emg1,emg2,emg3,emg4,emg5,emg6,emg7,emg8,acc_x,acc_y,acc_z,gyro_x,gyro_y,gyro_z,angle_pitch,angle_roll,angle_yaw
126.0,124.0,127.0,127.0,127.0,120.0,126.0,127.0,25.0,-111.0,-70.0,127.0,127.0,127.0,116.0,87.0,-94.0
126.0,124.0,127.0,127.0,127.0,119.0,126.0,127.0,25.0,-111.0,-70.0,127.0,127.0,127.0,116.0,87.0,-94.0
126.0,124.0,128.0,127.0,127.0,119.0,126.0,127.0,25.0,-111.0,-70.0,127.0,127.0,127.0,116.0,87.0,-94.0
126.0,124.0,127.0,127.0,127.0,119.0,126.0,127.0,25.0,-111.0,-70.0,127.0,127.0,127.0,116.0,87.0,-94.0
126.0,124.0,127.0,127.0,127.0,120.0,126.0,127.0,25.0,-111.0,-70.0,127.0,127.0,127.0,116.0,87.0,-94.0
126.0,124.0,127.0,127.0,127.0,121.0,126.0,127.0,25.0,-111.0,-70.0,127.0,127.0,127.0,116.0,87.0,-94.0
126.0,124.0,127.0,127.0,127.0,121.0,126.0,127.0,25.0,-111.0,-70.0,127.0,127.0,127.0,116.0,87.0,-94.0
126.0,124.0,127.0,127.0,127.0,121.0,126.0,127.0,25.0,-111.0,-70.0,127.0,127.0,127.0,116.0,87.0,-94.0
126.0,127.0,126.0,127.0,127.0,123.0,126.0,127.0,25.0,-110.0,-71.0,127.0,127.0,127.0,116.0,87.0,-94.0
126.0,127.0,126.0,127.0,126.0,124.0,126.0,127.0,25.0,-110.0,-71.0,127.0,127.0,127.0,116.0,87.0,-94.0
126.0,127.0,126.0,127.0,127.0,123.0,126.0,127.0,25.0,-110.0,-71.0,127.0,127.0,127.0,116.0,87.0,-94.0
126.0,127.0,126.0,127.0,126.0,123.0,126.0,127.0,25.0,-110.0,-71.0,127.0,127.0,127.0,116.0,87.0,-94.0
127.0,127.0,126.0,127.0,126.0,123.0,126.0,127.0,25.0,-110.0,-71.0,127.0,127.0,127.0,116.0,87.0,-94.0
126.0,127.0,126.0,127.0,126.0,123.0,126.0,127.0,25.0,-110.0,-71.0,127.0,127.0,127.0,116.0,87.0,-94.0
126.0,127.0,126.0,127.0,126.0,125.0,126.0,127.0,25.0,-110.0,-71.0,127.0,127.0,127.0,116.0,87.0,-94.0
126.0,127.0,126.0,127.0,126.0,125.0,126.0,127.0,25.0,-110.0,-71.0,127.0,127.0,127.0,116.0,87.0,-94.0
126.0,127.0,126.0,127.0,126.0,125.0,126.0,127.0,25.0,-110.0,-71.0,127.0,127.0,127.0,116.0,87.0,-94.0
126.0,127.0,126.0,127.0,126.0,125.0,126.0,127.0,25.0,-110.0,-71.0,127.0,127.0,127.0,116.0,87.0,-94.0
126.0,127.0,125.0,127.0,127.0,125.0,127.0,127.0,23.0,-109.0,-71.0,127.0,127.0,127.0,116.0,87.0,-94.0
126.0,127.0,125.0,127.0,127.0,124.0,127.0,127.0,23.0,-109.0,-71.0,127.0,127.0,127.0,116.0,87.0,-94.0
126.0,126.0,125.0,127.0,127.0,124.0,127.0,127.0,23.0,-109.0,-71.0,127.0,127.0,127.0,116.0,87.0,-94.0
126.0,126.0,125.0,127.0,127.0,124.0,127.0,127.0,23.0,-109.0,-71.0,127.0,127.0,127.0,116.0,87.0,-94.0
126.0,126.0,125.0,127.0,127.0,124.0,127.0,127.0,23.0,-109.0,-71.0,127.0,127.0,127.0,116.0,87.0,-94.0
126.0,127.0,125.0,127.0,127.0,126.0,127.0,127.0,23.0,-109.0,-71.0,127.0,127.0,127.0,116.0,87.0,-94.0
126.0,127.0,125.0,127.0,127.0,126.0,127.0,127.0,23.0,-109.0,-71.0,127.0,127.0,127.0,116.0,87.0,-94.0
126.0,127.0,125.0,127.0,127.0,126.0,127.0,127.0,23.0,-109.0,-71.0,127.0,127.0,127.0,116.0,87.0,-94.0
126.0,127.0,125.0,127.0,127.0,126.0,127.0,127.0,23.0,-109.0,-71.0,127.0,127.0,127.0,116.0,87.0,-94.0
126.0,127.0,125.0,127.0,127.0,124.0,127.0,127.0,23.0,-109.0,-71.0,127.0,127.0,127.0,116.0,87.0,-94.0
126.0,125.0,126.0,127.0,127.0,123.0,127.0,127.0,23.0,-108.0,-71.0,127.0,127.0,127.0,116.0,87.0,-94.0
126.0,125.0,126.0,127.0,127.0,123.0,127.0,127.0,23.0,-108.0,-71.0,127.0,127.0,127.0,116.0,87.0,-94.0
126.0,125.0,126.0,127.0,127.0,123.0,127.0,127.0,23.0,-108.0,-71.0,127.0,127.0,127.0,116.0,87.0,-94.0
126.0,124.0,126.0,127.0,127.0,123.0,127.0,127.0,23.0,-108.0,-71.0,127.0,127.0,127.0,116.0,87.0,-94.0
126.0,124.0,126.0,127.0,127.0,123.0,127.0,127.0,23.0,-108.0,-71.0,127.0,127.0,127.0,116.0,87.0,-94.0
126.0,125.0,126.0,127.0,127.0,123.0,127.0,127.0,23.0,-108.0,-71.0,127.0,127.0,127.0,116.0,87.0,-94.0
126.0,124.0,126.0,127.0,127.0,124.0,127.0,127.0,23.0,-108.0,-71.0,127.0,127.0,127.0,116.0,87.0,-94.0
126.0,125.0,126.0,127.0,127.0,123.0,127.0,127.0,23.0,-108.0,-71.0,127.0,127.0,127.0,116.0,87.0,-94.0
126.0,125.0,126.0,127.0,127.0,123.0,127.0,127.0,23.0,-108.0,-71.0,127.0,127.0,127.0,116.0,87.0,-94.0
126.0,125.0,126.0,127.0,127.0,124.0,127.0,127.0,23.0,-108.0,-71.0,127.0,127.0,127.0,116.0,87.0,-94.0
126.0,124.0,126.0,127.0,127.0,126.0,127.0,128.0,23.0,-108.0,-72.0,127.0,127.0,127.0,116.0,87.0,-94.0
126.0,125.0,126.0,127.0,127.0,127.0,127.0,128.0,23.0,-108.0,-72.0,127.0,127.0,127.0,116.0,87.0,-94.0
126.0,125.0,126.0,127.0,127.0,127.0,127.0,128.0,23.0,-108.0,-72.0,127.0,127.0,127.0,116.0,87.0,-94.0
126.0,124.0,127.0,127.0,127.0,126.0,127.0,128.0,23.0,-108.0,-72.0,127.0,127.0,127.0,116.0,87.0,-94.0
126.0,124.0,127.0,127.0,127.0,126.0,127.0,128.0,23.0,-108.0,-72.0,127.0,127.0,127.0,116.0,87.0,-94.0
126.0,124.0,127.0,127.0,127.0,126.0,127.0,128.0,23.0,-108.0,-72.0,127.0,127.0,127.0,116.0,87.0,-94.0
125.0,124.0,126.0,127.0,127.0,125.0,127.0,128.0,23.0,-108.0,-72.0,127.0,127.0,127.0,116.0,87.0,-94.0
125.0,124.0,127.0,127.0,127.0,125.0,127.0,128.0,23.0,-108.0,-72.0,127.0,127.0,127.0,116.0,87.0,-94.0
125.0,124.0,127.0,127.0,127.0,125.0,127.0,128.0,23.0,-108.0,-72.0,127.0,127.0,127.0,116.0,87.0,-94.0
126.0,124.0,127.0,127.0,127.0,125.0,127.0,128.0,23.0,-108.0,-72.0,127.0,127.0,127.0,116.0,87.0,-94.0
127.0,126.0,126.0,127.0,127.0,125.0,127.0,129.0,23.0,-108.0,-71.0,127.0,127.0,127.0,116.0,87.0,-94.0
127.0,127.0,126.0,127.0,127.0,125.0,127.0,129.0,23.0,-108.0,-71.0,127.0,127.0,127.0,116.0,87.0,-94.0
127.0,126.0,126.0,127.0,127.0,125.0,127.0,129.0,23.0,-108.0,-71.0,127.0,127.0,127.0,116.0,87.0,-94.0
127.0,126.0,126.0,127.0,127.0,125.0,127.0,129.0,23.0,-108.0,-71.0,127.0,127.0,127.0,116.0,87.0,-94.0
127.0,126.0,126.0,127.0,127.0,125.0,127.0,129.0,23.0,-108.0,-71.0,127.0,127.0,127.0,116.0,87.0,-94.0
127.0,126.0,126.0,127.0,127.0,124.0,127.0,129.0,23.0,-108.0,-71.0,127.0,127.0,127.0,116.0,87.0,-94.0
127.0,126.0,126.0,127.0,127.0,124.0,127.0,129.0,23.0,-108.0,-71.0,127.0,127.0,127.0,116.0,87.0,-94.0
127.0,126.0,126.0,127.0,127.0,124.0,127.0,129.0,23.0,-108.0,-71.0,127.0,127.0,127.0,116.0,87.0,-94.0
127.0,126.0,126.0,127.0,127.0,124.0,127.0,129.0,23.0,-108.0,-71.0,127.0,127.0,127.0,116.0,87.0,-94.0
127.0,126.0,126.0,127.0,127.0,124.0,127.0,129.0,23.0,-108.0,-71.0,127.0,127.0,127.0,116.0,87.0,-94.0
127.0,130.0,126.0,128.0,127.0,124.0,126.0,128.0,25.0,-109.0,-71.0,127.0,127.0,127.0,116.0,87.0,-94.0
127.0,130.0,126.0,127.0,127.0,124.0,126.0,128.0,25.0,-109.0,-71.0,127.0,127.0,127.0,116.0,87.0,-94.0
127.0,130.0,126.0,127.0,127.0,124.0,126.0,128.0,25.0,-109.0,-71.0,127.0,127.0,127.0,116.0,87.0,-94.0
127.0,130.0,126.0,128.0,127.0,124.0,126.0,128.0,25.0,-109.0,-71.0,127.0,127.0,127.0,116.0,87.0,-94.0
127.0,130.0,126.0,128.0,127.0,123.0,126.0,129.0,25.0,-109.0,-71.0,127.0,127.0,127.0,116.0,87.0,-94.0
128.0,130.0,126.0,128.0,127.0,123.0,126.0,128.0,25.0,-109.0,-71.0,127.0,127.0,127.0,116.0,87.0,-94.0
127.0,130.0,126.0,128.0,127.0,122.0,126.0,128.0,25.0,-109.0,-71.0,127.0,127.0,127.0,116.0,87.0,-94.0
127.0,130.0,126.0,128.0,127.0,123.0,126.0,128.0,25.0,-109.0,-71.0,127.0,127.0,127.0,116.0,87.0,-94.0
127.0,130.0,126.0,127.0,127.0,123.0,126.0,128.0,25.0,-109.0,-71.0,127.0,127.0,127.0,116.0,87.0,-94.0
127.0,130.0,126.0,127.0,127.0,124.0,126.0,128.0,25.0,-109.0,-71.0,127.0,127.0,127.0,116.0,87.0,-94.0
126.0,125.0,128.0,127.0,127.0,125.0,125.0,128.0,26.0,-109.0,-71.0,127.0,127.0,127.0,116.0,87.0,-94.0
126.0,125.0,128.0,127.0,127.0,124.0,125.0,128.0,26.0,-109.0,-71.0,127.0,127.0,127.0,116.0,87.0,-94.0
126.0,125.0,128.0,127.0,127.0,124.0,125.0,128.0,26.0,-109.0,-71.0,127.0,127.0,127.0,116.0,87.0,-94.0
126.0,126.0,128.0,127.0,127.0,123.0,125.0,128.0,26.0,-109.0,-71.0,127.0,127.0,127.0,116.0,87.0,-94.0
126.0,125.0,128.0,127.0,127.0,123.0,125.0,128.0,26.0,-109.0,-71.0,127.0,127.0,127.0,116.0,87.0,-94.0
126.0,125.0,128.0,127.0,127.0,123.0,125.0,128.0,26.0,-109.0,-71.0,127.0,127.0,127.0,116.0,87.0,-94.0
126.0,125.0,128.0,127.0,127.0,123.0,125.0,128.0,26.0,-109.0,-71.0,127.0,127.0,127.0,116.0,87.0,-94.0
126.0,125.0,128.0,127.0,127.0,123.0,125.0,128.0,26.0,-109.0,-71.0,127.0,127.0,127.0,116.0,87.0,-94.0
126.0,125.0,128.0,127.0,127.0,125.0,125.0,128.0,26.0,-109.0,-71.0,127.0,127.0,127.0,116.0,87.0,-94.0
126.0,125.0,128.0,127.0,127.0,125.0,125.0,128.0,26.0,-109.0,-71.0,127.0,127.0,127.0,116.0,87.0,-94.0
127.0,123.0,128.0,127.0,126.0,121.0,126.0,128.0,27.0,-110.0,-70.0,127.0,127.0,127.0,116.0,87.0,-94.0
127.0,123.0,128.0,127.0,126.0,121.0,126.0,128.0,27.0,-110.0,-70.0,127.0,127.0,127.0,116.0,87.0,-94.0
126.0,122.0,128.0,127.0,127.0,121.0,126.0,128.0,27.0,-110.0,-70.0,127.0,127.0,127.0,116.0,87.0,-94.0
126.0,122.0,128.0,127.0,126.0,120.0,126.0,128.0,27.0,-110.0,-70.0,127.0,127.0,127.0,116.0,87.0,-94.0
126.0,122.0,128.0,127.0,126.0,120.0,126.0,128.0,27.0,-110.0,-70.0,127.0,127.0,127.0,116.0,87.0,-94.0
126.0,122.0,128.0,127.0,126.0,120.0,126.0,128.0,27.0,-110.0,-70.0,127.0,127.0,127.0,116.0,87.0,-94.0
127.0,122.0,128.0,127.0,126.0,120.0,126.0,128.0,27.0,-110.0,-70.0,127.0,127.0,127.0,116.0,87.0,-94.0
126.0,123.0,128.0,127.0,127.0,121.0,126.0,128.0,27.0,-110.0,-70.0,127.0,127.0,127.0,116.0,87.0,-94.0
126.0,123.0,128.0,127.0,127.0,122.0,126.0,128.0,27.0,-110.0,-70.0,127.0,127.0,127.0,116.0,87.0,-94.0
126.0,123.0,128.0,127.0,127.0,121.0,126.0,128.0,27.0,-110.0,-70.0,127.0,127.0,127.0,116.0,87.0,-94.0
127.0,124.0,127.0,127.0,127.0,120.0,126.0,128.0,27.0,-110.0,-70.0,127.0,127.0,127.0,116.0,87.0,-94.0
127.0,124.0,127.0,127.0,127.0,119.0,126.0,128.0,27.0,-110.0,-70.0,127.0,127.0,127.0,116.0,87.0,-94.0
127.0,124.0,127.0,127.0,127.0,119.0,126.0,128.0,27.0,-110.0,-70.0,127.0,127.0,127.0,116.0,87.0,-94.0
127.0,124.0,127.0,127.0,127.0,119.0,126.0,128.0,27.0,-110.0,-70.0,127.0,127.0,127.0,116.0,87.0,-94.0
127.0,124.0,127.0,127.0,126.0,119.0,126.0,128.0,27.0,-110.0,-70.0,127.0,127.0,127.0,116.0,87.0,-94.0
127.0,123.0,127.0,127.0,127.0,119.0,126.0,128.0,27.0,-110.0,-70.0,127.0,127.0,127.0,116.0,87.0,-94.0
127.0,124.0,127.0,127.0,126.0,120.0,126.0,128.0,27.0,-110.0,-70.0,127.0,127.0,127.0,116.0,87.0,-94.0
127.0,124.0,127.0,127.0,127.0,120.0,126.0,128.0,27.0,-110.0,-70.0,127.0,127.0,127.0,116.0,87.0,-94.0
127.0,124.0,127.0,127.0,127.0,120.0,126.0,128.0,27.0,-110.0,-70.0,127.0,127.0,127.0,116.0,87.0,-94.0
127.0,124.0,127.0,127.0,127.0,120.0,126.0,128.0,27.0,-110.0,-70.0,127.0,127.0,127.0,116.0,87.0,-94.0
127.0,125.0,126.0,127.0,127.0,121.0,126.0,128.0,26.0,-110.0,-70.0,127.0,127.0,127.0,116.0,87.0,-94.0
126.0,125.0,126.0,127.0,127.0,121.0,126.0,128.0,26.0,-110.0,-70.0,127.0,127.0,127.0,116.0,87.0,-94.0
127.0,125.0,127.0,127.0,127.0,121.0,126.0,128.0,26.0,-110.0,-70.0,127.0,127.0,127.0,116.0,87.0,-94.0
127.0,125.0,127.0,127.0,127.0,121.0,126.0,127.0,26.0,-110.0,-70.0,127.0,127.0,127.0,116.0,87.0,-94.0
127.0,125.0,127.0,127.0,127.0,121.0,126.0,127.0,26.0,-110.0,-70.0,127.0,127.0,127.0,116.0,87.0,-94.0
127.0,125.0,126.0,127.0,127.0,122.0,126.0,127.0,26.0,-110.0,-70.0,127.0,127.0,127.0,116.0,87.0,-94.0
127.0,125.0,126.0,127.0,127.0,123.0,126.0,127.0,26.0,-110.0,-70.0,127.0,127.0,127.0,116.0,87.0,-94.0
127.0,125.0,126.0,127.0,127.0,123.0,126.0,127.0,26.0,-110.0,-70.0,127.0,127.0,127.0,116.0,87.0,-94.0
127.0,125.0,126.0,127.0,127.0,123.0,126.0,127.0,26.0,-110.0,-70.0,127.0,127.0,127.0,116.0,87.0,-94.0
127.0,126.0,126.0,127.0,127.0,124.0,126.0,127.0,26.0,-110.0,-70.0,127.0,127.0,127.0,116.0,87.0,-94.0
127.0,126.0,126.0,127.0,127.0,122.0,127.0,127.0,25.0,-110.0,-71.0,127.0,127.0,127.0,116.0,87.0,-94.0
127.0,126.0,126.0,127.0,127.0,122.0,127.0,127.0,25.0,-110.0,-71.0,127.0,127.0,127.0,116.0,87.0,-94.0
127.0,125.0,126.0,127.0,127.0,122.0,127.0,127.0,25.0,-110.0,-71.0,127.0,127.0,127.0,116.0,87.0,-94.0
127.0,125.0,126.0,127.0,127.0,122.0,127.0,127.0,25.0,-110.0,-71.0,127.0,127.0,127.0,116.0,87.0,-94.0
127.0,125.0,126.0,127.0,127.0,122.0,127.0,127.0,25.0,-110.0,-71.0,127.0,127.0,127.0,116.0,87.0,-94.0
127.0,125.0,126.0,127.0,127.0,122.0,127.0,127.0,25.0,-110.0,-71.0,127.0,127.0,127.0,116.0,87.0,-94.0
127.0,125.0,126.0,127.0,127.0,123.0,127.0,127.0,25.0,-110.0,-71.0,127.0,127.0,127.0,116.0,87.0,-94.0
127.0,125.0,126.0,127.0,127.0,122.0,127.0,127.0,25.0,-110.0,-71.0,127.0,127.0,127.0,116.0,87.0,-94.0
127.0,125.0,126.0,127.0,127.0,122.0,127.0,127.0,25.0,-110.0,-71.0,127.0,127.0,127.0,116.0,87.0,-94.0
127.0,125.0,126.0,127.0,127.0,123.0,127.0,127.0,25.0,-110.0,-71.0,127.0,127.0,127.0,116.0,87.0,-94.0
126.0,126.0,124.0,127.0,127.0,123.0,127.0,128.0,24.0,-109.0,-71.0,127.0,127.0,127.0,116.0,87.0,-94.0
126.0,126.0,125.0,127.0,126.0,123.0,127.0,127.0,24.0,-109.0,-71.0,127.0,127.0,127.0,116.0,87.0,-94.0
126.0,126.0,125.0,127.0,126.0,123.0,127.0,128.0,24.0,-109.0,-71.0,127.0,127.0,127.0,116.0,87.0,-94.0
126.0,126.0,124.0,127.0,126.0,123.0,127.0,128.0,24.0,-109.0,-71.0,127.0,127.0,127.0,116.0,87.0,-94.0
126.0,127.0,124.0,127.0,127.0,125.0,127.0,128.0,24.0,-109.0,-71.0,127.0,127.0,127.0,116.0,87.0,-94.0
126.0,127.0,124.0,128.0,126.0,125.0,127.0,128.0,24.0,-109.0,-71.0,127.0,127.0,127.0,116.0,87.0,-94.0
126.0,127.0,124.0,128.0,126.0,125.0,127.0,128.0,24.0,-109.0,-71.0,127.0,127.0,127.0,116.0,87.0,-94.0
126.0,127.0,124.0,128.0,126.0,124.0,127.0,128.0,24.0,-109.0,-71.0,127.0,127.0,127.0,116.0,87.0,-94.0
126.0,126.0,124.0,127.0,127.0,124.0,127.0,127.0,24.0,-109.0,-71.0,127.0,127.0,127.0,116.0,87.0,-94.0
126.0,126.0,124.0,127.0,127.0,123.0,127.0,128.0,24.0,-109.0,-71.0,127.0,127.0,127.0,116.0,87.0,-94.0
127.0,126.0,109.0,127.0,127.0,125.0,127.0,128.0,24.0,-108.0,-72.0,127.0,127.0,127.0,116.0,87.0,-94.0
127.0,126.0,109.0,127.0,127.0,126.0,127.0,128.0,24.0,-108.0,-72.0,127.0,127.0,127.0,116.0,87.0,-94.0
127.0,125.0,108.0,127.0,127.0,126.0,127.0,128.0,24.0,-108.0,-72.0,127.0,127.0,127.0,116.0,87.0,-94.0
127.0,126.0,107.0,127.0,127.0,127.0,127.0,128.0,24.0,-108.0,-72.0,127.0,127.0,127.0,116.0,87.0,-94.0
127.0,126.0,107.0,127.0,127.0,127.0,127.0,128.0,24.0,-108.0,-72.0,127.0,127.0,127.0,116.0,87.0,-94.0
127.0,126.0,107.0,127.0,127.0,127.0,127.0,128.0,24.0,-108.0,-72.0,127.0,127.0,127.0,116.0,87.0,-94.0
127.0,126.0,107.0,127.0,126.0,127.0,127.0,129.0,24.0,-108.0,-72.0,127.0,127.0,127.0,116.0,87.0,-94.0
127.0,126.0,110.0,127.0,127.0,126.0,127.0,128.0,24.0,-108.0,-72.0,127.0,127.0,127.0,116.0,87.0,-94.0
127.0,126.0,109.0,127.0,127.0,126.0,127.0,128.0,24.0,-108.0,-72.0,127.0,127.0,127.0,116.0,87.0,-94.0
127.0,126.0,109.0,127.0,127.0,125.0,127.0,128.0,24.0,-108.0,-72.0,127.0,127.0,127.0,116.0,87.0,-94.0
127.0,124.0,60.0,127.0,127.0,126.0,127.0,129.0,25.0,-109.0,-72.0,127.0,127.0,127.0,116.0,87.0,-94.0
127.0,124.0,59.0,127.0,127.0,126.0,127.0,129.0,25.0,-109.0,-72.0,127.0,127.0,127.0,116.0,87.0,-94.0
127.0,124.0,57.0,127.0,127.0,127.0,127.0,129.0,25.0,-109.0,-72.0,127.0,127.0,127.0,116.0,87.0,-94.0
127.0,125.0,57.0,127.0,127.0,127.0,127.0,129.0,25.0,-109.0,-72.0,127.0,127.0,127.0,116.0,87.0,-94.0
127.0,124.0,56.0,127.0,127.0,127.0,127.0,129.0,25.0,-109.0,-72.0,127.0,127.0,127.0,116.0,87.0,-94.0
127.0,124.0,56.0,127.0,127.0,127.0,127.0,129.0,25.0,-109.0,-72.0,127.0,127.0,127.0,116.0,87.0,-94.0
127.0,124.0,65.0,128.0,127.0,126.0,127.0,129.0,25.0,-109.0,-72.0,127.0,127.0,127.0,116.0,87.0,-94.0
127.0,124.0,63.0,128.0,127.0,126.0,127.0,129.0,25.0,-109.0,-72.0,127.0,127.0,127.0,116.0,87.0,-94.0
127.0,124.0,62.0,127.0,127.0,126.0,127.0,129.0,25.0,-109.0,-72.0,127.0,127.0,127.0,116.0,87.0,-94.0
127.0,124.0,61.0,127.0,127.0,126.0,127.0,129.0,25.0,-109.0,-72.0,127.0,127.0,127.0,116.0,87.0,-94.0
125.0,125.0,85.0,127.0,127.0,123.0,126.0,128.0,25.0,-109.0,-71.0,127.0,127.0,127.0,116.0,87.0,-94.0
125.0,125.0,85.0,127.0,127.0,124.0,126.0,128.0,25.0,-109.0,-71.0,127.0,127.0,127.0,116.0,87.0,-94.0
125.0,126.0,86.0,127.0,127.0,125.0,126.0,128.0,25.0,-109.0,-71.0,127.0,127.0,127.0,116.0,87.0,-94.0
125.0,126.0,88.0,127.0,127.0,125.0,126.0,128.0,25.0,-109.0,-71.0,127.0,127.0,127.0,116.0,87.0,-94.0
125.0,126.0,89.0,127.0,127.0,125.0,126.0,128.0,25.0,-109.0,-71.0,127.0,127.0,127.0,116.0,87.0,-94.0
125.0,125.0,78.0,126.0,127.0,124.0,126.0,128.0,25.0,-109.0,-71.0,127.0,127.0,127.0,116.0,87.0,-94.0
125.0,125.0,79.0,127.0,127.0,124.0,126.0,128.0,25.0,-109.0,-71.0,127.0,127.0,127.0,116.0,87.0,-94.0
125.0,125.0,81.0,127.0,127.0,124.0,126.0,128.0,25.0,-109.0,-71.0,127.0,127.0,127.0,116.0,87.0,-94.0
125.0,125.0,82.0,127.0,127.0,123.0,126.0,128.0,25.0,-109.0,-71.0,127.0,127.0,127.0,116.0,87.0,-94.0
125.0,125.0,83.0,127.0,127.0,123.0,126.0,128.0,25.0,-109.0,-71.0,127.0,127.0,127.0,116.0,87.0,-94.0
125.0,128.0,115.0,126.0,126.0,123.0,125.0,128.0,27.0,-110.0,-71.0,127.0,127.0,127.0,116.0,87.0,-94.0
125.0,128.0,117.0,126.0,127.0,124.0,125.0,128.0,27.0,-110.0,-71.0,127.0,127.0,127.0,116.0,87.0,-94.0
125.0,128.0,119.0,126.0,126.0,124.0,125.0,128.0,27.0,-110.0,-71.0,127.0,127.0,127.0,116.0,87.0,-94.0
126.0,128.0,121.0,126.0,126.0,124.0,125.0,128.0,27.0,-110.0,-71.0,127.0,127.0,127.0,116.0,87.0,-94.0
125.0,129.0,104.0,127.0,127.0,122.0,125.0,128.0,27.0,-110.0,-71.0,127.0,127.0,127.0,116.0,87.0,-94.0
125.0,129.0,106.0,127.0,127.0,123.0,125.0,128.0,27.0,-110.0,-71.0,127.0,127.0,127.0,116.0,87.0,-94.0
125.0,129.0,108.0,127.0,127.0,123.0,125.0,128.0,27.0,-110.0,-71.0,127.0,127.0,127.0,116.0,87.0,-94.0
125.0,128.0,110.0,127.0,127.0,122.0,125.0,128.0,27.0,-110.0,-71.0,127.0,127.0,127.0,116.0,87.0,-94.0
125.0,128.0,112.0,126.0,127.0,122.0,125.0,128.0,27.0,-110.0,-71.0,127.0,127.0,127.0,116.0,87.0,-94.0
125.0,128.0,113.0,126.0,127.0,122.0,125.0,128.0,27.0,-110.0,-71.0,127.0,127.0,127.0,116.0,87.0,-94.0
127.0,124.0,163.0,126.0,127.0,122.0,125.0,128.0,28.0,-111.0,-70.0,127.0,127.0,127.0,116.0,87.0,-94.0
127.0,124.0,164.0,126.0,127.0,122.0,125.0,128.0,28.0,-111.0,-70.0,127.0,127.0,127.0,116.0,87.0,-94.0
127.0,124.0,164.0,126.0,127.0,121.0,125.0,128.0,28.0,-111.0,-70.0,127.0,127.0,127.0,116.0,87.0,-94.0
126.0,124.0,162.0,125.0,127.0,120.0,125.0,128.0,28.0,-111.0,-70.0,127.0,127.0,127.0,116.0,87.0,-94.0
126.0,125.0,162.0,125.0,127.0,121.0,125.0,128.0,28.0,-111.0,-70.0,127.0,127.0,127.0,116.0,87.0,-94.0
126.0,124.0,162.0,125.0,127.0,121.0,125.0,128.0,28.0,-111.0,-70.0,127.0,127.0,127.0,116.0,87.0,-94.0
126.0,124.0,163.0,126.0,127.0,121.0,125.0,128.0,28.0,-111.0,-70.0,127.0,127.0,127.0,116.0,87.0,-94.0
126.0,124.0,163.0,126.0,127.0,120.0,125.0,128.0,28.0,-111.0,-70.0,127.0,127.0,127.0,116.0,87.0,-94.0
127.0,124.0,163.0,126.0,127.0,120.0,125.0,128.0,28.0,-111.0,-70.0,127.0,127.0,127.0,116.0,87.0,-94.0
127.0,124.0,164.0,126.0,127.0,121.0,125.0,128.0,28.0,-111.0,-70.0,127.0,127.0,127.0,116.0,87.0,-94.0
127.0,122.0,162.0,124.0,128.0,120.0,126.0,128.0,28.0,-111.0,-70.0,127.0,127.0,127.0,116.0,87.0,-94.0
127.0,121.0,161.0,124.0,128.0,120.0,126.0,128.0,28.0,-111.0,-70.0,127.0,127.0,127.0,116.0,87.0,-94.0
127.0,122.0,165.0,127.0,128.0,118.0,126.0,128.0,28.0,-111.0,-70.0,127.0,127.0,127.0,116.0,87.0,-94.0
127.0,122.0,165.0,127.0,128.0,119.0,126.0,128.0,28.0,-111.0,-70.0,127.0,127.0,127.0,116.0,87.0,-94.0
127.0,122.0,165.0,127.0,128.0,119.0,126.0,128.0,28.0,-111.0,-70.0,127.0,127.0,127.0,116.0,87.0,-94.0
127.0,122.0,165.0,126.0,128.0,119.0,126.0,128.0,28.0,-111.0,-70.0,127.0,127.0,127.0,116.0,87.0,-94.0
127.0,121.0,165.0,126.0,128.0,118.0,126.0,128.0,28.0,-111.0,-70.0,127.0,127.0,127.0,116.0,87.0,-94.0
127.0,121.0,164.0,125.0,128.0,119.0,126.0,128.0,28.0,-111.0,-70.0,127.0,127.0,127.0,116.0,87.0,-94.0
127.0,121.0,164.0,125.0,128.0,119.0,126.0,128.0,28.0,-111.0,-70.0,127.0,127.0,127.0,116.0,87.0,-94.0
127.0,122.0,162.0,124.0,128.0,120.0,126.0,128.0,28.0,-111.0,-70.0,127.0,127.0,127.0,116.0,87.0,-94.0
128.0,121.0,155.0,127.0,127.0,121.0,126.0,127.0,27.0,-111.0,-70.0,127.0,127.0,127.0,116.0,87.0,-94.0
128.0,121.0,157.0,125.0,127.0,120.0,126.0,127.0,27.0,-111.0,-70.0,127.0,127.0,127.0,116.0,87.0,-94.0
128.0,121.0,156.0,126.0,127.0,120.0,126.0,127.0,27.0,-111.0,-70.0,127.0,127.0,127.0,116.0,87.0,-94.0
128.0,121.0,156.0,126.0,128.0,120.0,126.0,127.0,27.0,-111.0,-70.0,127.0,127.0,127.0,116.0,87.0,-94.0
128.0,121.0,156.0,127.0,127.0,120.0,126.0,127.0,27.0,-111.0,-70.0,127.0,127.0,127.0,116.0,87.0,-94.0
128.0,121.0,156.0,127.0,128.0,120.0,126.0,127.0,27.0,-111.0,-70.0,127.0,127.0,127.0,116.0,87.0,-94.0
128.0,121.0,156.0,127.0,128.0,120.0,126.0,128.0,27.0,-111.0,-70.0,127.0,127.0,127.0,116.0,87.0,-94.0
128.0,121.0,156.0,127.0,128.0,120.0,126.0,127.0,27.0,-111.0,-70.0,127.0,127.0,127.0,116.0,87.0,-94.0
128.0,121.0,155.0,127.0,128.0,121.0,126.0,127.0,27.0,-111.0,-70.0,127.0,127.0,127.0,116.0,87.0,-94.0
128.0,121.0,155.0,127.0,128.0,121.0,126.0,127.0,27.0,-111.0,-70.0,127.0,127.0,127.0,116.0,87.0,-94.0
127.0,125.0,143.0,128.0,127.0,123.0,127.0,127.0,26.0,-110.0,-70.0,127.0,127.0,127.0,116.0,87.0,-94.0
127.0,125.0,143.0,128.0,127.0,123.0,127.0,127.0,26.0,-110.0,-70.0,127.0,127.0,127.0,116.0,87.0,-94.0
127.0,125.0,144.0,128.0,127.0,123.0,127.0,127.0,26.0,-110.0,-70.0,127.0,127.0,127.0,116.0,87.0,-94.0
127.0,125.0,144.0,128.0,127.0,123.0,127.0,127.0,26.0,-110.0,-70.0,127.0,127.0,127.0,116.0,87.0,-94.0
127.0,126.0,144.0,128.0,127.0,124.0,127.0,127.0,26.0,-110.0,-70.0,127.0,127.0,127.0,116.0,87.0,-94.0
127.0,126.0,145.0,129.0,127.0,125.0,127.0,127.0,26.0,-110.0,-70.0,127.0,127.0,127.0,116.0,87.0,-94.0
127.0,126.0,145.0,129.0,127.0,125.0,127.0,127.0,26.0,-110.0,-70.0,127.0,127.0,127.0,116.0,87.0,-94.0
127.0,126.0,145.0,129.0,127.0,124.0,127.0,127.0,26.0,-110.0,-70.0,127.0,127.0,127.0,116.0,87.0,-94.0
127.0,126.0,145.0,129.0,127.0,124.0,127.0,127.0,26.0,-110.0,-70.0,127.0,127.0,127.0,116.0,87.0,-94.0
127.0,126.0,145.0,129.0,127.0,125.0,127.0,127.0,26.0,-110.0,-70.0,127.0,127.0,127.0,116.0,87.0,-94.0
126.0,128.0,147.0,126.0,125.0,124.0,127.0,127.0,25.0,-109.0,-71.0,127.0,127.0,127.0,116.0,87.0,-94.0
126.0,128.0,146.0,126.0,125.0,124.0,127.0,127.0,25.0,-109.0,-71.0,127.0,127.0,127.0,116.0,87.0,-94.0
126.0,128.0,146.0,126.0,125.0,124.0,127.0,127.0,25.0,-109.0,-71.0,127.0,127.0,127.0,116.0,87.0,-94.0
126.0,128.0,146.0,126.0,125.0,125.0,127.0,127.0,25.0,-109.0,-71.0,127.0,127.0,127.0,116.0,87.0,-94.0
126.0,128.0,145.0,126.0,125.0,125.0,127.0,127.0,25.0,-109.0,-71.0,127.0,127.0,127.0,116.0,87.0,-94.0
126.0,128.0,145.0,126.0,125.0,126.0,127.0,127.0,25.0,-109.0,-71.0,127.0,127.0,127.0,116.0,87.0,-94.0
126.0,128.0,145.0,125.0,125.0,125.0,127.0,127.0,25.0,-109.0,-71.0,127.0,127.0,127.0,116.0,87.0,-94.0
126.0,128.0,144.0,125.0,125.0,125.0,127.0,127.0,25.0,-109.0,-71.0,127.0,127.0,127.0,116.0,87.0,-94.0
126.0,128.0,144.0,125.0,125.0,125.0,127.0,127.0,25.0,-109.0,-71.0,127.0,127.0,127.0,116.0,87.0,-94.0
126.0,128.0,146.0,126.0,125.0,124.0,127.0,127.0,25.0,-109.0,-71.0,127.0,127.0,127.0,116.0,87.0,-94.0
124.0,128.0,144.0,128.0,126.0,124.0,127.0,128.0,25.0,-108.0,-71.0,127.0,127.0,127.0,116.0,87.0,-94.0
124.0,128.0,145.0,128.0,126.0,124.0,127.0,128.0,25.0,-108.0,-71.0,127.0,127.0,127.0,116.0,87.0,-94.0
124.0,128.0,145.0,128.0,126.0,125.0,127.0,128.0,25.0,-108.0,-71.0,127.0,127.0,127.0,116.0,87.0,-94.0
124.0,128.0,145.0,128.0,126.0,125.0,127.0,128.0,25.0,-108.0,-71.0,127.0,127.0,127.0,116.0,87.0,-94.0
124.0,128.0,146.0,128.0,126.0,125.0,127.0,128.0,25.0,-108.0,-71.0,127.0,127.0,127.0,116.0,87.0,-94.0
124.0,128.0,146.0,128.0,126.0,125.0,127.0,128.0,25.0,-108.0,-71.0,127.0,127.0,127.0,116.0,87.0,-94.0
124.0,128.0,146.0,128.0,126.0,125.0,127.0,128.0,25.0,-108.0,-71.0,127.0,127.0,127.0,116.0,87.0,-94.0
124.0,128.0,146.0,128.0,126.0,125.0,127.0,128.0,25.0,-108.0,-71.0,127.0,127.0,127.0,116.0,87.0,-94.0
125.0,128.0,143.0,128.0,126.0,124.0,127.0,128.0,25.0,-108.0,-71.0,127.0,127.0,127.0,116.0,87.0,-94.0
124.0,128.0,144.0,128.0,126.0,124.0,127.0,128.0,25.0,-108.0,-71.0,127.0,127.0,127.0,116.0,87.0,-94.0
124.0,125.0,152.0,127.0,127.0,124.0,127.0,128.0,25.0,-109.0,-72.0,127.0,127.0,127.0,116.0,87.0,-94.0
123.0,125.0,153.0,127.0,127.0,125.0,127.0,128.0,25.0,-109.0,-72.0,127.0,127.0,127.0,116.0,87.0,-94.0
123.0,125.0,153.0,127.0,127.0,126.0,127.0,128.0,25.0,-109.0,-72.0,127.0,127.0,127.0,116.0,87.0,-94.0
123.0,125.0,154.0,127.0,127.0,126.0,127.0,128.0,25.0,-109.0,-72.0,127.0,127.0,127.0,116.0,87.0,-94.0
123.0,124.0,155.0,126.0,127.0,125.0,127.0,128.0,25.0,-109.0,-72.0,127.0,127.0,127.0,116.0,87.0,-94.0
123.0,124.0,155.0,126.0,127.0,125.0,127.0,128.0,25.0,-109.0,-72.0,127.0,127.0,127.0,116.0,87.0,-94.0
123.0,124.0,155.0,126.0,126.0,125.0,127.0,128.0,25.0,-109.0,-72.0,127.0,127.0,127.0,116.0,87.0,-94.0
124.0,126.0,149.0,127.0,126.0,124.0,127.0,128.0,25.0,-109.0,-72.0,127.0,127.0,127.0,116.0,87.0,-94.0
124.0,126.0,150.0,127.0,127.0,124.0,127.0,128.0,25.0,-109.0,-72.0,127.0,127.0,127.0,116.0,87.0,-94.0
124.0,125.0,151.0,127.0,127.0,124.0,127.0,128.0,25.0,-109.0,-72.0,127.0,127.0,127.0,116.0,87.0,-94.0
125.0,132.0,168.0,129.0,129.0,123.0,127.0,128.0,25.0,-110.0,-71.0,127.0,127.0,127.0,116.0,87.0,-94.0
125.0,132.0,168.0,128.0,129.0,124.0,127.0,128.0,25.0,-110.0,-71.0,127.0,127.0,127.0,116.0,87.0,-94.0
124.0,132.0,168.0,128.0,129.0,124.0,127.0,128.0,25.0,-110.0,-71.0,127.0,127.0,127.0,116.0,87.0,-94.0
124.0,132.0,168.0,128.0,129.0,124.0,127.0,128.0,25.0,-110.0,-71.0,127.0,127.0,127.0,116.0,87.0,-94.0
124.0,132.0,168.0,128.0,129.0,124.0,126.0,128.0,25.0,-110.0,-71.0,127.0,127.0,127.0,116.0,87.0,-94.0
124.0,131.0,169.0,128.0,129.0,124.0,126.0,128.0,25.0,-110.0,-71.0,127.0,127.0,127.0,116.0,87.0,-94.0
126.0,132.0,168.0,133.0,129.0,123.0,128.0,128.0,25.0,-110.0,-71.0,127.0,127.0,127.0,116.0,87.0,-94.0
125.0,132.0,168.0,133.0,129.0,123.0,128.0,128.0,25.0,-110.0,-71.0,127.0,127.0,127.0,116.0,87.0,-94.0
125.0,132.0,168.0,132.0,129.0,123.0,128.0,128.0,25.0,-110.0,-71.0,127.0,127.0,127.0,116.0,87.0,-94.0
125.0,132.0,168.0,131.0,129.0,123.0,128.0,128.0,25.0,-110.0,-71.0,127.0,127.0,127.0,116.0,87.0,-94.0
127.0,128.0,169.0,135.0,128.0,124.0,126.0,129.0,26.0,-110.0,-71.0,127.0,127.0,127.0,116.0,87.0,-94.0
127.0,127.0,169.0,135.0,128.0,124.0,126.0,129.0,26.0,-110.0,-71.0,127.0,127.0,127.0,116.0,87.0,-94.0
127.0,127.0,169.0,135.0,128.0,124.0,126.0,129.0,26.0,-110.0,-71.0,127.0,127.0,127.0,116.0,87.0,-94.0
127.0,126.0,169.0,135.0,128.0,124.0,126.0,129.0,26.0,-110.0,-71.0,127.0,127.0,127.0,116.0,87.0,-94.0
127.0,125.0,169.0,135.0,128.0,124.0,126.0,129.0,26.0,-110.0,-71.0,127.0,127.0,127.0,116.0,87.0,-94.0
129.0,129.0,170.0,137.0,128.0,123.0,126.0,129.0,26.0,-110.0,-71.0,127.0,127.0,127.0,116.0,87.0,-94.0
128.0,129.0,170.0,136.0,128.0,123.0,126.0,129.0,26.0,-110.0,-71.0,127.0,127.0,127.0,116.0,87.0,-94.0
128.0,129.0,170.0,136.0,128.0,123.0,126.0,129.0,26.0,-110.0,-71.0,127.0,127.0,127.0,116.0,87.0,-94.0
128.0,128.0,170.0,136.0,128.0,123.0,126.0,129.0,26.0,-110.0,-71.0,127.0,127.0,127.0,116.0,87.0,-94.0
128.0,128.0,169.0,135.0,128.0,123.0,126.0,129.0,26.0,-110.0,-71.0,127.0,127.0,127.0,116.0,87.0,-94.0
132.0,119.0,115.0,131.0,126.0,125.0,126.0,128.0,27.0,-110.0,-70.0,127.0,127.0,127.0,116.0,87.0,-94.0
131.0,119.0,113.0,132.0,126.0,125.0,126.0,129.0,27.0,-110.0,-70.0,127.0,127.0,127.0,116.0,87.0,-94.0
131.0,119.0,112.0,133.0,126.0,124.0,126.0,129.0,27.0,-110.0,-70.0,127.0,127.0,127.0,116.0,87.0,-94.0
132.0,119.0,110.0,134.0,125.0,124.0,126.0,129.0,27.0,-110.0,-70.0,127.0,127.0,127.0,116.0,87.0,-94.0
132.0,116.0,125.0,129.0,126.0,124.0,125.0,128.0,27.0,-110.0,-70.0,127.0,127.0,127.0,116.0,87.0,-94.0
132.0,116.0,123.0,129.0,126.0,124.0,125.0,128.0,27.0,-110.0,-70.0,127.0,127.0,127.0,116.0,87.0,-94.0
132.0,116.0,121.0,129.0,126.0,124.0,125.0,128.0,27.0,-110.0,-70.0,127.0,127.0,127.0,116.0,87.0,-94.0
132.0,116.0,119.0,130.0,126.0,124.0,125.0,128.0,27.0,-110.0,-70.0,127.0,127.0,127.0,116.0,87.0,-94.0
132.0,117.0,118.0,130.0,126.0,123.0,125.0,128.0,27.0,-110.0,-70.0,127.0,127.0,127.0,116.0,87.0,-94.0
132.0,118.0,116.0,131.0,126.0,125.0,126.0,128.0,27.0,-110.0,-70.0,127.0,127.0,127.0,116.0,87.0,-94.0
125.0,116.0,75.0,128.0,126.0,123.0,126.0,126.0,28.0,-111.0,-70.0,-128.0,127.0,127.0,116.0,87.0,-94.0
125.0,116.0,75.0,128.0,126.0,124.0,126.0,126.0,28.0,-111.0,-70.0,-128.0,127.0,127.0,116.0,87.0,-94.0
125.0,117.0,74.0,128.0,126.0,126.0,126.0,126.0,28.0,-111.0,-70.0,-128.0,127.0,127.0,116.0,87.0,-94.0
126.0,118.0,78.0,126.0,126.0,122.0,127.0,127.0,28.0,-111.0,-70.0,-128.0,127.0,127.0,116.0,87.0,-94.0
126.0,118.0,77.0,126.0,126.0,122.0,127.0,127.0,28.0,-111.0,-70.0,-128.0,127.0,127.0,116.0,87.0,-94.0
126.0,118.0,77.0,127.0,126.0,122.0,127.0,127.0,28.0,-111.0,-70.0,-128.0,127.0,127.0,116.0,87.0,-94.0
126.0,118.0,77.0,127.0,126.0,123.0,127.0,127.0,28.0,-111.0,-70.0,-128.0,127.0,127.0,116.0,87.0,-94.0
125.0,118.0,76.0,127.0,126.0,123.0,126.0,127.0,28.0,-111.0,-70.0,-128.0,127.0,127.0,116.0,87.0,-94.0
125.0,117.0,76.0,127.0,126.0,123.0,126.0,127.0,28.0,-111.0,-70.0,-128.0,127.0,127.0,116.0,87.0,-94.0
125.0,117.0,76.0,127.0,126.0,123.0,126.0,127.0,28.0,-111.0,-70.0,-128.0,127.0,127.0,116.0,87.0,-94.0
131.0,131.0,81.0,131.0,126.0,151.0,128.0,128.0,27.0,-112.0,-71.0,-128.0,127.0,127.0,116.0,87.0,-94.0
132.0,131.0,82.0,130.0,126.0,151.0,128.0,128.0,27.0,-112.0,-71.0,-128.0,127.0,127.0,116.0,87.0,-94.0
125.0,125.0,76.0,124.0,125.0,142.0,128.0,126.0,27.0,-112.0,-71.0,-128.0,127.0,127.0,116.0,87.0,-94.0
125.0,125.0,76.0,125.0,126.0,143.0,128.0,126.0,27.0,-112.0,-71.0,-128.0,127.0,127.0,116.0,87.0,-94.0
126.0,126.0,77.0,127.0,126.0,145.0,128.0,126.0,27.0,-112.0,-71.0,-128.0,127.0,127.0,116.0,87.0,-94.0
127.0,127.0,78.0,128.0,126.0,146.0,128.0,127.0,27.0,-112.0,-71.0,-128.0,127.0,127.0,116.0,87.0,-94.0
128.0,128.0,79.0,130.0,126.0,147.0,128.0,127.0,27.0,-112.0,-71.0,-128.0,127.0,127.0,116.0,87.0,-94.0
128.0,129.0,79.0,131.0,126.0,148.0,128.0,127.0,27.0,-112.0,-71.0,-128.0,127.0,127.0,116.0,87.0,-94.0
129.0,130.0,80.0,131.0,126.0,149.0,128.0,128.0,27.0,-112.0,-71.0,-128.0,127.0,127.0,116.0,87.0,-94.0
130.0,131.0,81.0,131.0,126.0,150.0,128.0,128.0,27.0,-112.0,-71.0,-128.0,127.0,127.0,116.0,87.0,-94.0
137.0,136.0,98.0,127.0,126.0,176.0,128.0,128.0,26.0,-112.0,-72.0,-128.0,127.0,127.0,116.0,87.0,-94.0
142.0,139.0,95.0,127.0,126.0,171.0,129.0,127.0,26.0,-112.0,-72.0,-128.0,127.0,127.0,116.0,87.0,-94.0
142.0,138.0,96.0,127.0,126.0,171.0,129.0,128.0,26.0,-112.0,-72.0,-128.0,127.0,127.0,116.0,87.0,-94.0
142.0,137.0,96.0,127.0,126.0,172.0,129.0,128.0,26.0,-112.0,-72.0,-128.0,127.0,127.0,116.0,87.0,-94.0
141.0,136.0,97.0,127.0,126.0,172.0,129.0,128.0,26.0,-112.0,-72.0,-128.0,127.0,127.0,116.0,87.0,-94.0
140.0,136.0,97.0,127.0,126.0,173.0,129.0,128.0,26.0,-112.0,-72.0,-128.0,127.0,127.0,116.0,87.0,-94.0
139.0,135.0,97.0,126.0,126.0,174.0,129.0,128.0,26.0,-112.0,-72.0,-128.0,127.0,127.0,116.0,87.0,-94.0
139.0,136.0,97.0,126.0,126.0,175.0,128.0,128.0,26.0,-112.0,-72.0,-128.0,127.0,127.0,116.0,87.0,-94.0
138.0,136.0,98.0,126.0,126.0,176.0,128.0,128.0,26.0,-112.0,-72.0,-128.0,127.0,127.0,116.0,87.0,-94.0
137.0,136.0,98.0,127.0,126.0,176.0,128.0,128.0,26.0,-112.0,-72.0,-128.0,127.0,127.0,116.0,87.0,-94.0
138.0,135.0,106.0,127.0,126.0,254.0,128.0,126.0,25.0,-111.0,-73.0,-128.0,127.0,127.0,116.0,87.0,-94.0
138.0,134.0,106.0,126.0,126.0,254.0,128.0,127.0,25.0,-111.0,-73.0,-128.0,127.0,127.0,116.0,87.0,-94.0
138.0,134.0,107.0,126.0,126.0,254.0,128.0,128.0,25.0,-111.0,-73.0,-128.0,127.0,127.0,116.0,87.0,-94.0
138.0,133.0,107.0,125.0,126.0,254.0,128.0,129.0,25.0,-111.0,-73.0,-128.0,127.0,127.0,116.0,87.0,-94.0
138.0,132.0,107.0,124.0,126.0,254.0,128.0,130.0,25.0,-111.0,-73.0,-128.0,127.0,127.0,116.0,87.0,-94.0
138.0,131.0,107.0,123.0,126.0,254.0,128.0,131.0,25.0,-111.0,-73.0,-128.0,127.0,127.0,116.0,87.0,-94.0
138.0,131.0,107.0,123.0,126.0,254.0,128.0,132.0,25.0,-111.0,-73.0,-128.0,127.0,127.0,116.0,87.0,-94.0
137.0,130.0,106.0,122.0,126.0,254.0,128.0,132.0,25.0,-111.0,-73.0,-128.0,127.0,127.0,116.0,87.0,-94.0
137.0,128.0,106.0,121.0,125.0,254.0,128.0,133.0,25.0,-111.0,-73.0,-128.0,127.0,127.0,116.0,87.0,-94.0
137.0,127.0,106.0,121.0,125.0,254.0,128.0,133.0,25.0,-111.0,-73.0,-128.0,127.0,127.0,116.0,87.0,-94.0
133.0,129.0,116.0,124.0,127.0,254.0,128.0,130.0,24.0,-109.0,-73.0,-128.0,127.0,127.0,116.0,87.0,-94.0
132.0,128.0,116.0,124.0,127.0,254.0,128.0,130.0,24.0,-109.0,-73.0,-128.0,127.0,127.0,116.0,87.0,-94.0
132.0,127.0,116.0,124.0,127.0,254.0,128.0,129.0,24.0,-109.0,-73.0,-128.0,127.0,127.0,116.0,87.0,-94.0
131.0,126.0,116.0,124.0,127.0,254.0,127.0,129.0,24.0,-109.0,-73.0,-128.0,127.0,127.0,116.0,87.0,-94.0
131.0,125.0,116.0,124.0,127.0,254.0,127.0,128.0,24.0,-109.0,-73.0,-128.0,127.0,127.0,116.0,87.0,-94.0
130.0,125.0,116.0,123.0,127.0,254.0,127.0,128.0,24.0,-109.0,-73.0,-128.0,127.0,127.0,116.0,87.0,-94.0
130.0,124.0,116.0,123.0,127.0,254.0,127.0,128.0,24.0,-109.0,-73.0,-128.0,127.0,127.0,116.0,87.0,-94.0
131.0,123.0,116.0,123.0,127.0,254.0,126.0,128.0,24.0,-109.0,-73.0,-128.0,127.0,127.0,116.0,87.0,-94.0
131.0,123.0,116.0,122.0,127.0,254.0,126.0,129.0,24.0,-109.0,-73.0,-128.0,127.0,127.0,116.0,87.0,-94.0
134.0,130.0,116.0,124.0,127.0,254.0,128.0,131.0,24.0,-109.0,-73.0,-128.0,127.0,127.0,116.0,87.0,-94.0
127.0,117.0,125.0,125.0,127.0,254.0,127.0,114.0,22.0,-107.0,-73.0,-128.0,127.0,127.0,116.0,87.0,-94.0
127.0,116.0,125.0,125.0,126.0,254.0,127.0,115.0,22.0,-107.0,-73.0,-128.0,127.0,127.0,116.0,87.0,-94.0
127.0,115.0,125.0,125.0,127.0,254.0,127.0,116.0,22.0,-107.0,-73.0,-128.0,127.0,127.0,116.0,87.0,-94.0
127.0,115.0,126.0,125.0,127.0,254.0,127.0,118.0,22.0,-107.0,-73.0,-128.0,127.0,127.0,116.0,87.0,-94.0
126.0,115.0,126.0,126.0,127.0,254.0,127.0,119.0,22.0,-107.0,-73.0,-128.0,127.0,127.0,116.0,87.0,-94.0
126.0,115.0,126.0,126.0,127.0,254.0,127.0,120.0,22.0,-107.0,-73.0,-128.0,127.0,127.0,116.0,87.0,-94.0
126.0,115.0,126.0,126.0,127.0,254.0,127.0,120.0,22.0,-107.0,-73.0,-128.0,127.0,127.0,116.0,87.0,-94.0
126.0,115.0,127.0,126.0,127.0,254.0,127.0,121.0,22.0,-107.0,-73.0,-128.0,127.0,127.0,116.0,87.0,-94.0
128.0,118.0,124.0,125.0,127.0,254.0,127.0,115.0,22.0,-107.0,-73.0,-128.0,127.0,127.0,116.0,87.0,-94.0
127.0,117.0,125.0,125.0,127.0,254.0,127.0,114.0,22.0,-107.0,-73.0,-128.0,127.0,127.0,116.0,87.0,-94.0
121.0,117.0,121.0,129.0,128.0,254.0,130.0,142.0,22.0,-105.0,-72.0,-128.0,127.0,127.0,116.0,87.0,-94.0
121.0,117.0,121.0,128.0,128.0,254.0,131.0,143.0,22.0,-105.0,-72.0,-128.0,127.0,127.0,116.0,87.0,-94.0
121.0,117.0,121.0,128.0,128.0,254.0,131.0,143.0,22.0,-105.0,-72.0,-128.0,127.0,127.0,116.0,87.0,-94.0
121.0,117.0,121.0,127.0,128.0,254.0,131.0,143.0,22.0,-105.0,-72.0,-128.0,127.0,127.0,116.0,87.0,-94.0
121.0,117.0,121.0,127.0,128.0,254.0,131.0,143.0,22.0,-105.0,-72.0,-128.0,127.0,127.0,116.0,87.0,-94.0
121.0,117.0,121.0,127.0,128.0,254.0,130.0,142.0,22.0,-105.0,-72.0,-128.0,127.0,127.0,116.0,87.0,-94.0
121.0,117.0,121.0,127.0,128.0,254.0,130.0,141.0,22.0,-105.0,-72.0,-128.0,127.0,127.0,116.0,87.0,-94.0
121.0,116.0,122.0,131.0,128.0,254.0,129.0,140.0,22.0,-105.0,-72.0,-128.0,127.0,127.0,116.0,87.0,-94.0
121.0,117.0,122.0,130.0,128.0,254.0,130.0,141.0,22.0,-105.0,-72.0,-128.0,127.0,127.0,116.0,87.0,-94.0
121.0,117.0,121.0,130.0,128.0,254.0,130.0,141.0,22.0,-105.0,-72.0,-128.0,127.0,127.0,116.0,87.0,-94.0
113.0,120.0,112.0,129.0,129.0,254.0,125.0,117.0,23.0,-105.0,-71.0,-128.0,127.0,127.0,116.0,87.0,-94.0
113.0,120.0,111.0,128.0,129.0,254.0,125.0,117.0,23.0,-105.0,-71.0,-128.0,127.0,127.0,116.0,87.0,-94.0
113.0,120.0,110.0,126.0,129.0,254.0,124.0,117.0,23.0,-105.0,-71.0,-128.0,127.0,127.0,116.0,87.0,-94.0
113.0,120.0,110.0,125.0,129.0,254.0,124.0,117.0,23.0,-105.0,-71.0,-128.0,127.0,127.0,116.0,87.0,-94.0
113.0,120.0,109.0,124.0,129.0,254.0,124.0,118.0,23.0,-105.0,-71.0,-128.0,127.0,127.0,116.0,87.0,-94.0
113.0,120.0,109.0,123.0,129.0,254.0,124.0,118.0,23.0,-105.0,-71.0,-128.0,127.0,127.0,116.0,87.0,-94.0
114.0,120.0,112.0,133.0,128.0,254.0,126.0,120.0,23.0,-105.0,-71.0,-128.0,127.0,127.0,116.0,87.0,-94.0
114.0,120.0,112.0,133.0,129.0,254.0,126.0,118.0,23.0,-105.0,-71.0,-128.0,127.0,127.0,116.0,87.0,-94.0
114.0,120.0,112.0,132.0,129.0,254.0,126.0,118.0,23.0,-105.0,-71.0,-128.0,127.0,127.0,116.0,87.0,-94.0
114.0,120.0,112.0,131.0,129.0,254.0,125.0,118.0,23.0,-105.0,-71.0,-128.0,127.0,127.0,116.0,87.0,-94.0
120.0,117.0,104.0,125.0,127.0,254.0,126.0,132.0,24.0,-107.0,-72.0,-128.0,127.0,127.0,116.0,87.0,-94.0
120.0,117.0,105.0,125.0,127.0,254.0,127.0,133.0,24.0,-107.0,-72.0,-128.0,127.0,127.0,116.0,87.0,-94.0
120.0,117.0,106.0,125.0,127.0,254.0,127.0,133.0,24.0,-107.0,-72.0,-128.0,127.0,127.0,116.0,87.0,-94.0
120.0,117.0,107.0,125.0,127.0,254.0,127.0,134.0,24.0,-107.0,-72.0,-128.0,127.0,127.0,116.0,87.0,-94.0
120.0,117.0,107.0,125.0,128.0,254.0,127.0,135.0,24.0,-107.0,-72.0,-128.0,127.0,127.0,116.0,87.0,-94.0
120.0,118.0,101.0,126.0,128.0,254.0,128.0,132.0,24.0,-107.0,-72.0,-128.0,127.0,127.0,116.0,87.0,-94.0
120.0,118.0,101.0,125.0,128.0,254.0,128.0,132.0,24.0,-107.0,-72.0,-128.0,127.0,127.0,116.0,87.0,-94.0
120.0,118.0,102.0,125.0,127.0,254.0,127.0,132.0,24.0,-107.0,-72.0,-128.0,127.0,127.0,116.0,87.0,-94.0
120.0,117.0,103.0,125.0,127.0,254.0,127.0,132.0,24.0,-107.0,-72.0,-128.0,127.0,127.0,116.0,87.0,-94.0
120.0,117.0,103.0,125.0,127.0,254.0,126.0,132.0,24.0,-107.0,-72.0,-128.0,127.0,127.0,116.0,87.0,-94.0
127.0,119.0,124.0,126.0,130.0,254.0,130.0,127.0,25.0,-107.0,-72.0,-128.0,127.0,127.0,116.0,87.0,-94.0
127.0,119.0,124.0,124.0,130.0,254.0,131.0,128.0,25.0,-107.0,-72.0,-128.0,127.0,127.0,116.0,87.0,-94.0
127.0,119.0,125.0,123.0,130.0,254.0,132.0,129.0,25.0,-107.0,-72.0,-128.0,127.0,127.0,116.0,87.0,-94.0
128.0,119.0,126.0,122.0,130.0,254.0,133.0,129.0,25.0,-107.0,-72.0,-128.0,127.0,127.0,116.0,87.0,-94.0
126.0,118.0,122.0,133.0,129.0,254.0,127.0,126.0,25.0,-107.0,-72.0,-128.0,127.0,127.0,116.0,87.0,-94.0
126.0,118.0,122.0,133.0,130.0,254.0,127.0,126.0,25.0,-107.0,-72.0,-128.0,127.0,127.0,116.0,87.0,-94.0
126.0,118.0,123.0,131.0,130.0,254.0,128.0,126.0,25.0,-107.0,-72.0,-128.0,127.0,127.0,116.0,87.0,-94.0
126.0,119.0,123.0,130.0,130.0,254.0,128.0,126.0,25.0,-107.0,-72.0,-128.0,127.0,127.0,116.0,87.0,-94.0
127.0,119.0,123.0,128.0,130.0,254.0,129.0,126.0,25.0,-107.0,-72.0,-128.0,127.0,127.0,116.0,87.0,-94.0
127.0,119.0,123.0,127.0,130.0,254.0,129.0,127.0,25.0,-107.0,-72.0,-128.0,127.0,127.0,116.0,87.0,-94.0
125.0,113.0,145.0,125.0,128.0,217.0,126.0,124.0,24.0,-106.0,-72.0,-128.0,127.0,127.0,116.0,87.0,-94.0
125.0,112.0,145.0,125.0,128.0,217.0,126.0,125.0,24.0,-106.0,-72.0,-128.0,127.0,127.0,116.0,87.0,-94.0
125.0,114.0,143.0,124.0,128.0,224.0,127.0,123.0,24.0,-106.0,-72.0,-128.0,127.0,127.0,116.0,87.0,-94.0
125.0,114.0,143.0,124.0,128.0,223.0,127.0,122.0,24.0,-106.0,-72.0,-128.0,127.0,127.0,116.0,87.0,-94.0
124.0,114.0,144.0,124.0,128.0,222.0,127.0,122.0,24.0,-106.0,-72.0,-128.0,127.0,127.0,116.0,87.0,-94.0
124.0,113.0,144.0,124.0,128.0,221.0,127.0,121.0,24.0,-106.0,-72.0,-128.0,127.0,127.0,116.0,87.0,-94.0
124.0,114.0,144.0,124.0,128.0,221.0,126.0,121.0,24.0,-106.0,-72.0,-128.0,127.0,127.0,116.0,87.0,-94.0
124.0,114.0,144.0,124.0,128.0,220.0,126.0,121.0,24.0,-106.0,-72.0,-128.0,127.0,127.0,116.0,87.0,-94.0
124.0,113.0,145.0,124.0,128.0,219.0,126.0,121.0,24.0,-106.0,-72.0,-128.0,127.0,127.0,116.0,87.0,-94.0
125.0,113.0,145.0,125.0,128.0,218.0,126.0,122.0,24.0,-106.0,-72.0,-128.0,127.0,127.0,116.0,87.0,-94.0
124.0,113.0,149.0,124.0,128.0,192.0,126.0,128.0,22.0,-106.0,-71.0,127.0,127.0,127.0,116.0,87.0,-94.0
125.0,114.0,153.0,129.0,129.0,193.0,122.0,127.0,22.0,-106.0,-71.0,127.0,127.0,127.0,116.0,87.0,-94.0
125.0,114.0,152.0,128.0,129.0,193.0,122.0,127.0,22.0,-106.0,-71.0,127.0,127.0,127.0,116.0,87.0,-94.0
125.0,114.0,152.0,127.0,129.0,192.0,122.0,126.0,22.0,-106.0,-71.0,127.0,127.0,127.0,116.0,87.0,-94.0
125.0,113.0,151.0,127.0,128.0,192.0,123.0,127.0,22.0,-106.0,-71.0,127.0,127.0,127.0,116.0,87.0,-94.0
125.0,114.0,151.0,126.0,128.0,193.0,123.0,127.0,22.0,-106.0,-71.0,127.0,127.0,127.0,116.0,87.0,-94.0
125.0,114.0,150.0,126.0,128.0,193.0,123.0,127.0,22.0,-106.0,-71.0,127.0,127.0,127.0,116.0,87.0,-94.0
125.0,114.0,150.0,126.0,128.0,193.0,124.0,128.0,22.0,-106.0,-71.0,127.0,127.0,127.0,116.0,87.0,-94.0
124.0,113.0,149.0,125.0,128.0,192.0,125.0,128.0,22.0,-106.0,-71.0,127.0,127.0,127.0,116.0,87.0,-94.0
124.0,113.0,149.0,125.0,128.0,192.0,125.0,128.0,22.0,-106.0,-71.0,127.0,127.0,127.0,116.0,87.0,-94.0
119.0,112.0,134.0,130.0,127.0,183.0,126.0,126.0,22.0,-105.0,-71.0,127.0,127.0,127.0,116.0,87.0,-94.0
119.0,111.0,134.0,130.0,127.0,183.0,127.0,127.0,22.0,-105.0,-71.0,127.0,127.0,127.0,116.0,87.0,-94.0
119.0,111.0,134.0,129.0,127.0,183.0,127.0,128.0,22.0,-105.0,-71.0,127.0,127.0,127.0,116.0,87.0,-94.0
119.0,111.0,133.0,129.0,127.0,182.0,128.0,129.0,22.0,-105.0,-71.0,127.0,127.0,127.0,116.0,87.0,-94.0
119.0,112.0,133.0,129.0,127.0,183.0,128.0,129.0,22.0,-105.0,-71.0,127.0,127.0,127.0,116.0,87.0,-94.0
119.0,112.0,132.0,128.0,127.0,183.0,129.0,129.0,22.0,-105.0,-71.0,127.0,127.0,127.0,116.0,87.0,-94.0
119.0,112.0,132.0,127.0,127.0,183.0,130.0,130.0,22.0,-105.0,-71.0,127.0,127.0,127.0,116.0,87.0,-94.0
120.0,113.0,131.0,127.0,127.0,182.0,130.0,130.0,22.0,-105.0,-71.0,127.0,127.0,127.0,116.0,87.0,-94.0
120.0,113.0,131.0,127.0,127.0,182.0,131.0,131.0,22.0,-105.0,-71.0,127.0,127.0,127.0,116.0,87.0,-94.0
120.0,113.0,130.0,126.0,128.0,182.0,131.0,131.0,22.0,-105.0,-71.0,127.0,127.0,127.0,116.0,87.0,-94.0
127.0,118.0,129.0,133.0,128.0,169.0,129.0,131.0,22.0,-106.0,-72.0,127.0,126.0,127.0,116.0,87.0,-94.0
128.0,118.0,129.0,133.0,128.0,168.0,129.0,131.0,22.0,-106.0,-72.0,127.0,126.0,127.0,116.0,87.0,-94.0
128.0,118.0,129.0,133.0,128.0,168.0,129.0,131.0,22.0,-106.0,-72.0,127.0,126.0,127.0,116.0,87.0,-94.0
128.0,119.0,130.0,132.0,127.0,168.0,129.0,131.0,22.0,-106.0,-72.0,127.0,126.0,127.0,116.0,87.0,-94.0
128.0,119.0,130.0,132.0,127.0,169.0,129.0,131.0,22.0,-106.0,-72.0,127.0,126.0,127.0,116.0,87.0,-94.0
128.0,119.0,130.0,131.0,127.0,169.0,130.0,130.0,22.0,-106.0,-72.0,127.0,126.0,127.0,116.0,87.0,-94.0
128.0,119.0,130.0,131.0,127.0,168.0,130.0,130.0,22.0,-106.0,-72.0,127.0,126.0,127.0,116.0,87.0,-94.0
128.0,120.0,131.0,130.0,127.0,168.0,130.0,130.0,22.0,-106.0,-72.0,127.0,126.0,127.0,116.0,87.0,-94.0
128.0,120.0,131.0,130.0,127.0,168.0,130.0,129.0,22.0,-106.0,-72.0,127.0,126.0,127.0,116.0,87.0,-94.0
127.0,118.0,129.0,132.0,128.0,169.0,129.0,131.0,22.0,-106.0,-72.0,127.0,126.0,127.0,116.0,87.0,-94.0
131.0,123.0,127.0,122.0,127.0,160.0,128.0,136.0,23.0,-107.0,-72.0,127.0,126.0,127.0,116.0,87.0,-94.0
131.0,123.0,128.0,121.0,127.0,159.0,128.0,136.0,23.0,-107.0,-72.0,127.0,126.0,127.0,116.0,87.0,-94.0
131.0,123.0,128.0,121.0,126.0,159.0,128.0,136.0,23.0,-107.0,-72.0,127.0,126.0,127.0,116.0,87.0,-94.0
131.0,124.0,128.0,122.0,126.0,160.0,127.0,136.0,23.0,-107.0,-72.0,127.0,126.0,127.0,116.0,87.0,-94.0
131.0,124.0,128.0,122.0,127.0,159.0,127.0,136.0,23.0,-107.0,-72.0,127.0,126.0,127.0,116.0,87.0,-94.0
131.0,125.0,129.0,123.0,127.0,159.0,127.0,136.0,23.0,-107.0,-72.0,127.0,126.0,127.0,116.0,87.0,-94.0
131.0,125.0,129.0,124.0,127.0,158.0,128.0,136.0,23.0,-107.0,-72.0,127.0,126.0,127.0,116.0,87.0,-94.0
131.0,126.0,130.0,125.0,127.0,158.0,128.0,135.0,23.0,-107.0,-72.0,127.0,126.0,127.0,116.0,87.0,-94.0
131.0,123.0,126.0,124.0,127.0,161.0,128.0,134.0,23.0,-107.0,-72.0,127.0,126.0,127.0,116.0,87.0,-94.0
131.0,123.0,127.0,123.0,127.0,160.0,128.0,135.0,23.0,-107.0,-72.0,127.0,126.0,127.0,116.0,87.0,-94.0
132.0,135.0,119.0,146.0,126.0,129.0,125.0,128.0,25.0,-107.0,-72.0,127.0,127.0,127.0,116.0,87.0,-94.0
132.0,134.0,119.0,145.0,127.0,129.0,125.0,128.0,25.0,-107.0,-72.0,127.0,127.0,127.0,116.0,87.0,-94.0
132.0,135.0,119.0,144.0,127.0,129.0,125.0,128.0,25.0,-107.0,-72.0,127.0,127.0,127.0,116.0,87.0,-94.0
132.0,135.0,119.0,143.0,127.0,129.0,125.0,127.0,25.0,-107.0,-72.0,127.0,127.0,127.0,116.0,87.0,-94.0
132.0,135.0,119.0,141.0,126.0,129.0,125.0,127.0,25.0,-107.0,-72.0,127.0,127.0,127.0,116.0,87.0,-94.0
132.0,135.0,118.0,140.0,126.0,130.0,124.0,127.0,25.0,-107.0,-72.0,127.0,127.0,127.0,116.0,87.0,-94.0
132.0,135.0,119.0,139.0,126.0,129.0,125.0,127.0,25.0,-107.0,-72.0,127.0,127.0,127.0,116.0,87.0,-94.0
132.0,135.0,120.0,147.0,126.0,131.0,126.0,129.0,25.0,-107.0,-72.0,127.0,127.0,127.0,116.0,87.0,-94.0
132.0,135.0,120.0,147.0,126.0,130.0,125.0,128.0,25.0,-107.0,-72.0,127.0,127.0,127.0,116.0,87.0,-94.0
132.0,134.0,119.0,147.0,126.0,129.0,125.0,128.0,25.0,-107.0,-72.0,127.0,127.0,127.0,116.0,87.0,-94.0
127.0,132.0,127.0,131.0,126.0,160.0,123.0,116.0,27.0,-107.0,-73.0,127.0,127.0,127.0,116.0,87.0,-94.0
127.0,132.0,127.0,131.0,125.0,161.0,123.0,114.0,27.0,-107.0,-73.0,127.0,127.0,127.0,116.0,87.0,-94.0
127.0,131.0,127.0,130.0,125.0,163.0,123.0,112.0,27.0,-107.0,-73.0,127.0,127.0,127.0,116.0,87.0,-94.0
127.0,131.0,127.0,130.0,125.0,164.0,123.0,110.0,27.0,-107.0,-73.0,127.0,127.0,127.0,116.0,87.0,-94.0
126.0,131.0,127.0,130.0,125.0,165.0,122.0,109.0,27.0,-107.0,-73.0,127.0,127.0,127.0,116.0,87.0,-94.0
126.0,131.0,128.0,131.0,125.0,167.0,123.0,108.0,27.0,-107.0,-73.0,127.0,127.0,127.0,116.0,87.0,-94.0
127.0,134.0,127.0,133.0,127.0,156.0,123.0,119.0,27.0,-107.0,-73.0,127.0,127.0,127.0,116.0,87.0,-94.0
127.0,133.0,127.0,133.0,127.0,157.0,123.0,119.0,27.0,-107.0,-73.0,127.0,127.0,127.0,116.0,87.0,-94.0
127.0,133.0,127.0,132.0,126.0,158.0,123.0,118.0,27.0,-107.0,-73.0,127.0,127.0,127.0,116.0,87.0,-94.0
127.0,132.0,127.0,132.0,126.0,159.0,123.0,117.0,27.0,-107.0,-73.0,127.0,127.0,127.0,116.0,87.0,-94.0
127.0,129.0,127.0,137.0,126.0,131.0,127.0,128.0,28.0,-108.0,-73.0,127.0,127.0,127.0,116.0,87.0,-94.0
127.0,130.0,127.0,136.0,127.0,130.0,127.0,127.0,28.0,-108.0,-73.0,127.0,127.0,127.0,116.0,87.0,-94.0
127.0,130.0,128.0,134.0,127.0,128.0,127.0,126.0,28.0,-108.0,-73.0,127.0,127.0,127.0,116.0,87.0,-94.0
127.0,130.0,129.0,134.0,127.0,125.0,127.0,126.0,28.0,-108.0,-73.0,127.0,127.0,127.0,116.0,87.0,-94.0
127.0,129.0,129.0,133.0,128.0,123.0,128.0,125.0,28.0,-108.0,-73.0,127.0,127.0,127.0,116.0,87.0,-94.0
128.0,129.0,123.0,136.0,125.0,142.0,128.0,132.0,28.0,-108.0,-73.0,127.0,127.0,127.0,116.0,87.0,-94.0
128.0,129.0,124.0,136.0,125.0,139.0,128.0,131.0,28.0,-108.0,-73.0,127.0,127.0,127.0,116.0,87.0,-94.0
128.0,129.0,125.0,137.0,126.0,137.0,127.0,130.0,28.0,-108.0,-73.0,127.0,127.0,127.0,116.0,87.0,-94.0
128.0,129.0,126.0,137.0,126.0,135.0,127.0,129.0,28.0,-108.0,-73.0,127.0,127.0,127.0,116.0,87.0,-94.0
128.0,129.0,127.0,137.0,126.0,132.0,127.0,128.0,28.0,-108.0,-73.0,127.0,127.0,127.0,116.0,87.0,-94.0
123.0,127.0,131.0,126.0,127.0,84.0,129.0,129.0,28.0,-109.0,-74.0,127.0,127.0,127.0,116.0,87.0,-94.0
123.0,127.0,130.0,125.0,127.0,83.0,129.0,129.0,28.0,-109.0,-74.0,127.0,127.0,127.0,116.0,87.0,-94.0
123.0,127.0,130.0,125.0,127.0,83.0,129.0,129.0,28.0,-109.0,-74.0,127.0,127.0,127.0,116.0,87.0,-94.0
123.0,127.0,130.0,125.0,127.0,83.0,129.0,129.0,28.0,-109.0,-74.0,127.0,127.0,127.0,116.0,87.0,-94.0
124.0,128.0,134.0,127.0,128.0,85.0,129.0,131.0,28.0,-109.0,-74.0,127.0,127.0,127.0,116.0,87.0,-94.0
124.0,128.0,134.0,127.0,128.0,84.0,129.0,130.0,28.0,-109.0,-74.0,127.0,127.0,127.0,116.0,87.0,-94.0
124.0,127.0,133.0,127.0,128.0,84.0,129.0,130.0,28.0,-109.0,-74.0,127.0,127.0,127.0,116.0,87.0,-94.0
124.0,127.0,132.0,127.0,128.0,83.0,129.0,130.0,28.0,-109.0,-74.0,127.0,127.0,127.0,116.0,87.0,-94.0
124.0,127.0,132.0,126.0,127.0,83.0,129.0,130.0,28.0,-109.0,-74.0,127.0,127.0,127.0,116.0,87.0,-94.0
123.0,127.0,131.0,126.0,127.0,83.0,129.0,130.0,28.0,-109.0,-74.0,127.0,127.0,127.0,116.0,87.0,-94.0
125.0,129.0,133.0,125.0,127.0,75.0,126.0,129.0,28.0,-110.0,-75.0,127.0,127.0,127.0,116.0,87.0,-94.0
125.0,129.0,133.0,125.0,127.0,75.0,127.0,129.0,28.0,-110.0,-75.0,127.0,127.0,127.0,116.0,87.0,-94.0
125.0,129.0,133.0,125.0,127.0,75.0,126.0,129.0,28.0,-110.0,-75.0,127.0,127.0,127.0,116.0,87.0,-94.0
124.0,127.0,131.0,126.0,125.0,74.0,126.0,126.0,28.0,-110.0,-75.0,127.0,127.0,127.0,116.0,87.0,-94.0
125.0,128.0,132.0,126.0,126.0,74.0,127.0,126.0,28.0,-110.0,-75.0,127.0,127.0,127.0,116.0,87.0,-94.0
125.0,128.0,132.0,126.0,126.0,74.0,127.0,126.0,28.0,-110.0,-75.0,127.0,127.0,127.0,116.0,87.0,-94.0
125.0,128.0,133.0,125.0,126.0,74.0,127.0,127.0,28.0,-110.0,-75.0,127.0,127.0,127.0,116.0,87.0,-94.0
125.0,128.0,133.0,125.0,126.0,74.0,127.0,128.0,28.0,-110.0,-75.0,127.0,127.0,127.0,116.0,87.0,-94.0
125.0,128.0,133.0,125.0,126.0,74.0,127.0,128.0,28.0,-110.0,-75.0,127.0,127.0,127.0,116.0,87.0,-94.0
125.0,129.0,133.0,125.0,127.0,75.0,127.0,129.0,28.0,-110.0,-75.0,127.0,127.0,127.0,116.0,87.0,-94.0
127.0,129.0,129.0,132.0,127.0,89.0,126.0,132.0,26.0,-109.0,-75.0,127.0,127.0,127.0,116.0,87.0,-94.0
127.0,129.0,130.0,131.0,128.0,89.0,126.0,132.0,26.0,-109.0,-75.0,127.0,127.0,127.0,116.0,87.0,-94.0
126.0,127.0,125.0,126.0,125.0,86.0,125.0,132.0,26.0,-109.0,-75.0,127.0,127.0,127.0,116.0,87.0,-94.0
126.0,128.0,125.0,127.0,126.0,87.0,125.0,132.0,26.0,-109.0,-75.0,127.0,127.0,127.0,116.0,87.0,-94.0
126.0,128.0,125.0,128.0,126.0,87.0,125.0,132.0,26.0,-109.0,-75.0,127.0,127.0,127.0,116.0,87.0,-94.0
126.0,128.0,126.0,129.0,126.0,87.0,125.0,132.0,26.0,-109.0,-75.0,127.0,127.0,127.0,116.0,87.0,-94.0
127.0,128.0,127.0,130.0,126.0,87.0,126.0,132.0,26.0,-109.0,-75.0,127.0,127.0,127.0,116.0,87.0,-94.0
126.0,128.0,128.0,131.0,127.0,87.0,126.0,132.0,26.0,-109.0,-75.0,127.0,127.0,127.0,116.0,87.0,-94.0
127.0,129.0,128.0,132.0,127.0,89.0,126.0,132.0,26.0,-109.0,-75.0,127.0,127.0,127.0,116.0,87.0,-94.0
127.0,130.0,129.0,132.0,127.0,89.0,126.0,132.0,26.0,-109.0,-75.0,127.0,127.0,127.0,116.0,87.0,-94.0
125.0,129.0,130.0,122.0,126.0,99.0,125.0,125.0,25.0,-108.0,-76.0,127.0,127.0,127.0,116.0,87.0,-94.0
125.0,129.0,129.0,118.0,126.0,97.0,126.0,121.0,25.0,-108.0,-76.0,127.0,127.0,127.0,116.0,87.0,-94.0
125.0,129.0,129.0,119.0,126.0,97.0,125.0,120.0,25.0,-108.0,-76.0,127.0,127.0,127.0,116.0,87.0,-94.0
125.0,129.0,129.0,120.0,126.0,97.0,125.0,119.0,25.0,-108.0,-76.0,127.0,127.0,127.0,116.0,87.0,-94.0
125.0,129.0,129.0,121.0,126.0,96.0,125.0,118.0,25.0,-108.0,-76.0,127.0,127.0,127.0,116.0,87.0,-94.0
125.0,129.0,129.0,122.0,126.0,97.0,125.0,119.0,25.0,-108.0,-76.0,127.0,127.0,127.0,116.0,87.0,-94.0
125.0,129.0,129.0,123.0,126.0,97.0,125.0,119.0,25.0,-108.0,-76.0,127.0,127.0,127.0,116.0,87.0,-94.0
125.0,129.0,129.0,123.0,126.0,98.0,125.0,121.0,25.0,-108.0,-76.0,127.0,127.0,127.0,116.0,87.0,-94.0
125.0,129.0,129.0,123.0,126.0,99.0,125.0,122.0,25.0,-108.0,-76.0,127.0,127.0,127.0,116.0,87.0,-94.0
125.0,129.0,130.0,123.0,126.0,99.0,125.0,124.0,25.0,-108.0,-76.0,127.0,127.0,127.0,116.0,87.0,-94.0
126.0,130.0,129.0,119.0,126.0,102.0,126.0,129.0,23.0,-107.0,-76.0,127.0,127.0,127.0,115.0,87.0,-94.0
125.0,131.0,130.0,121.0,126.0,103.0,126.0,129.0,23.0,-107.0,-76.0,127.0,127.0,127.0,115.0,87.0,-94.0
125.0,131.0,131.0,124.0,126.0,102.0,126.0,129.0,23.0,-107.0,-76.0,127.0,127.0,127.0,115.0,87.0,-94.0
125.0,131.0,132.0,127.0,127.0,102.0,126.0,128.0,23.0,-107.0,-76.0,127.0,127.0,127.0,115.0,87.0,-94.0
125.0,131.0,132.0,130.0,128.0,102.0,126.0,128.0,23.0,-107.0,-76.0,127.0,127.0,127.0,115.0,87.0,-94.0
125.0,131.0,133.0,133.0,128.0,102.0,126.0,128.0,23.0,-107.0,-76.0,127.0,127.0,127.0,115.0,87.0,-94.0
125.0,132.0,133.0,134.0,128.0,103.0,126.0,128.0,23.0,-107.0,-76.0,127.0,127.0,127.0,115.0,87.0,-94.0
125.0,132.0,133.0,135.0,128.0,103.0,126.0,128.0,23.0,-107.0,-76.0,127.0,127.0,127.0,115.0,87.0,-94.0
125.0,132.0,133.0,136.0,128.0,103.0,126.0,127.0,23.0,-107.0,-76.0,127.0,127.0,127.0,115.0,87.0,-94.0
125.0,132.0,133.0,136.0,128.0,103.0,126.0,127.0,23.0,-107.0,-76.0,127.0,127.0,127.0,115.0,87.0,-94.0
125.0,131.0,133.0,126.0,127.0,103.0,123.0,131.0,22.0,-107.0,-76.0,127.0,127.0,127.0,115.0,87.0,-94.0
125.0,131.0,134.0,126.0,127.0,103.0,123.0,131.0,22.0,-107.0,-76.0,127.0,127.0,127.0,115.0,87.0,-94.0
125.0,131.0,135.0,125.0,127.0,102.0,123.0,131.0,22.0,-107.0,-76.0,127.0,127.0,127.0,115.0,87.0,-94.0
125.0,132.0,135.0,125.0,127.0,102.0,124.0,131.0,22.0,-107.0,-76.0,127.0,127.0,127.0,115.0,87.0,-94.0
125.0,132.0,135.0,124.0,127.0,102.0,125.0,131.0,22.0,-107.0,-76.0,127.0,127.0,127.0,115.0,87.0,-94.0
125.0,133.0,135.0,124.0,128.0,103.0,125.0,131.0,22.0,-107.0,-76.0,127.0,127.0,127.0,115.0,87.0,-94.0
125.0,133.0,135.0,124.0,128.0,104.0,126.0,132.0,22.0,-107.0,-76.0,127.0,127.0,127.0,115.0,87.0,-94.0
125.0,133.0,135.0,124.0,128.0,104.0,127.0,132.0,22.0,-107.0,-76.0,127.0,127.0,127.0,115.0,87.0,-94.0
125.0,133.0,135.0,125.0,128.0,104.0,128.0,131.0,22.0,-107.0,-76.0,127.0,127.0,127.0,115.0,87.0,-94.0
125.0,131.0,132.0,126.0,126.0,103.0,123.0,131.0,22.0,-107.0,-76.0,127.0,127.0,127.0,115.0,87.0,-94.0
124.0,130.0,127.0,127.0,126.0,103.0,126.0,128.0,22.0,-107.0,-75.0,127.0,127.0,127.0,115.0,87.0,-94.0
124.0,130.0,127.0,126.0,126.0,103.0,126.0,128.0,22.0,-107.0,-75.0,127.0,127.0,127.0,115.0,87.0,-94.0
124.0,130.0,127.0,126.0,126.0,103.0,126.0,129.0,22.0,-107.0,-75.0,127.0,127.0,127.0,115.0,87.0,-94.0
124.0,130.0,127.0,126.0,126.0,103.0,126.0,129.0,22.0,-107.0,-75.0,127.0,127.0,127.0,115.0,87.0,-94.0
124.0,130.0,127.0,125.0,126.0,103.0,126.0,129.0,22.0,-107.0,-75.0,127.0,127.0,127.0,115.0,87.0,-94.0
124.0,130.0,127.0,125.0,126.0,103.0,126.0,130.0,22.0,-107.0,-75.0,127.0,127.0,127.0,115.0,87.0,-94.0
124.0,130.0,127.0,124.0,126.0,103.0,126.0,130.0,22.0,-107.0,-75.0,127.0,127.0,127.0,115.0,87.0,-94.0
124.0,131.0,127.0,124.0,126.0,104.0,126.0,129.0,22.0,-107.0,-75.0,127.0,127.0,127.0,115.0,87.0,-94.0
124.0,130.0,127.0,127.0,126.0,103.0,126.0,127.0,22.0,-107.0,-75.0,127.0,127.0,127.0,115.0,87.0,-94.0
124.0,130.0,127.0,126.0,126.0,103.0,126.0,127.0,22.0,-107.0,-75.0,127.0,127.0,127.0,115.0,87.0,-94.0
125.0,130.0,128.0,126.0,127.0,106.0,126.0,134.0,22.0,-106.0,-75.0,127.0,127.0,127.0,115.0,87.0,-94.0
125.0,131.0,128.0,126.0,127.0,107.0,126.0,135.0,22.0,-106.0,-75.0,127.0,127.0,127.0,115.0,87.0,-94.0
125.0,130.0,128.0,126.0,127.0,107.0,126.0,135.0,22.0,-106.0,-75.0,127.0,127.0,127.0,115.0,87.0,-94.0
125.0,130.0,128.0,126.0,127.0,106.0,126.0,135.0,22.0,-106.0,-75.0,127.0,127.0,127.0,115.0,87.0,-94.0
125.0,130.0,128.0,126.0,127.0,106.0,126.0,136.0,22.0,-106.0,-75.0,127.0,127.0,127.0,115.0,87.0,-94.0
125.0,130.0,128.0,125.0,127.0,106.0,126.0,136.0,22.0,-106.0,-75.0,127.0,127.0,127.0,115.0,87.0,-94.0
125.0,130.0,128.0,125.0,127.0,106.0,126.0,136.0,22.0,-106.0,-75.0,127.0,127.0,127.0,115.0,87.0,-94.0
125.0,130.0,127.0,125.0,127.0,105.0,126.0,130.0,22.0,-106.0,-75.0,127.0,127.0,127.0,115.0,87.0,-94.0
125.0,130.0,127.0,125.0,127.0,105.0,126.0,132.0,22.0,-106.0,-75.0,127.0,127.0,127.0,115.0,87.0,-94.0
125.0,130.0,128.0,125.0,127.0,105.0,126.0,133.0,22.0,-106.0,-75.0,127.0,127.0,127.0,115.0,87.0,-94.0
127.0,126.0,128.0,120.0,128.0,106.0,126.0,129.0,23.0,-106.0,-74.0,127.0,127.0,127.0,115.0,87.0,-94.0
127.0,126.0,128.0,121.0,127.0,107.0,126.0,130.0,23.0,-106.0,-74.0,127.0,127.0,127.0,115.0,87.0,-94.0
127.0,126.0,128.0,121.0,127.0,106.0,126.0,130.0,23.0,-106.0,-74.0,127.0,127.0,127.0,115.0,87.0,-94.0
127.0,126.0,129.0,122.0,127.0,106.0,126.0,130.0,23.0,-106.0,-74.0,127.0,127.0,127.0,115.0,87.0,-94.0
127.0,125.0,129.0,123.0,127.0,106.0,126.0,130.0,23.0,-106.0,-74.0,127.0,127.0,127.0,115.0,87.0,-94.0
127.0,125.0,129.0,124.0,127.0,106.0,126.0,130.0,23.0,-106.0,-74.0,127.0,127.0,127.0,115.0,87.0,-94.0
127.0,127.0,129.0,121.0,128.0,105.0,127.0,130.0,23.0,-106.0,-74.0,127.0,127.0,127.0,115.0,87.0,-94.0
127.0,126.0,129.0,121.0,128.0,105.0,127.0,129.0,23.0,-106.0,-74.0,127.0,127.0,127.0,115.0,87.0,-94.0
127.0,126.0,129.0,120.0,128.0,105.0,127.0,129.0,23.0,-106.0,-74.0,127.0,127.0,127.0,115.0,87.0,-94.0
127.0,126.0,128.0,120.0,128.0,105.0,126.0,129.0,23.0,-106.0,-74.0,127.0,127.0,127.0,115.0,87.0,-94.0
128.0,127.0,128.0,122.0,127.0,105.0,126.0,125.0,24.0,-106.0,-74.0,127.0,127.0,127.0,115.0,87.0,-94.0
128.0,126.0,128.0,122.0,127.0,105.0,126.0,125.0,24.0,-106.0,-74.0,127.0,127.0,127.0,115.0,87.0,-94.0
128.0,126.0,127.0,122.0,126.0,105.0,126.0,125.0,24.0,-106.0,-74.0,127.0,127.0,127.0,115.0,87.0,-94.0
128.0,126.0,127.0,122.0,126.0,105.0,125.0,127.0,24.0,-106.0,-74.0,127.0,127.0,127.0,115.0,87.0,-94.0
128.0,126.0,127.0,122.0,126.0,105.0,126.0,128.0,24.0,-106.0,-74.0,127.0,127.0,127.0,115.0,87.0,-94.0
128.0,126.0,129.0,122.0,127.0,104.0,126.0,127.0,24.0,-106.0,-74.0,127.0,127.0,127.0,115.0,87.0,-94.0
128.0,126.0,129.0,122.0,127.0,104.0,127.0,127.0,24.0,-106.0,-74.0,127.0,127.0,127.0,115.0,87.0,-94.0
128.0,126.0,129.0,122.0,127.0,104.0,127.0,127.0,24.0,-106.0,-74.0,127.0,127.0,127.0,115.0,87.0,-94.0
128.0,126.0,129.0,122.0,127.0,104.0,126.0,126.0,24.0,-106.0,-74.0,127.0,127.0,127.0,115.0,87.0,-94.0
128.0,127.0,128.0,122.0,127.0,105.0,126.0,126.0,24.0,-106.0,-74.0,127.0,127.0,127.0,115.0,87.0,-94.0
129.0,127.0,128.0,129.0,127.0,107.0,127.0,131.0,24.0,-106.0,-73.0,127.0,127.0,127.0,115.0,87.0,-94.0
129.0,127.0,127.0,129.0,127.0,107.0,127.0,132.0,24.0,-106.0,-73.0,127.0,127.0,127.0,115.0,87.0,-94.0
129.0,127.0,127.0,129.0,127.0,107.0,127.0,131.0,24.0,-106.0,-73.0,127.0,127.0,127.0,115.0,87.0,-94.0
129.0,127.0,127.0,129.0,127.0,107.0,127.0,131.0,24.0,-106.0,-73.0,127.0,127.0,127.0,115.0,87.0,-94.0
129.0,127.0,131.0,126.0,127.0,105.0,127.0,131.0,24.0,-106.0,-73.0,127.0,127.0,127.0,115.0,87.0,-94.0
129.0,126.0,131.0,126.0,127.0,105.0,127.0,131.0,24.0,-106.0,-73.0,127.0,127.0,127.0,115.0,87.0,-94.0
129.0,127.0,130.0,126.0,127.0,105.0,127.0,131.0,24.0,-106.0,-73.0,127.0,127.0,127.0,115.0,87.0,-94.0
129.0,127.0,130.0,127.0,127.0,106.0,127.0,131.0,24.0,-106.0,-73.0,127.0,127.0,127.0,115.0,87.0,-94.0
129.0,127.0,128.0,128.0,127.0,107.0,127.0,131.0,24.0,-106.0,-73.0,127.0,127.0,127.0,115.0,87.0,-94.0
129.0,127.0,128.0,129.0,127.0,107.0,127.0,131.0,24.0,-106.0,-73.0,127.0,127.0,127.0,115.0,87.0,-94.0
128.0,129.0,132.0,126.0,128.0,110.0,126.0,131.0,24.0,-105.0,-73.0,127.0,127.0,127.0,115.0,87.0,-94.0
128.0,128.0,132.0,126.0,128.0,110.0,126.0,132.0,24.0,-105.0,-73.0,127.0,127.0,127.0,115.0,87.0,-94.0
128.0,128.0,131.0,125.0,128.0,110.0,126.0,132.0,24.0,-105.0,-73.0,127.0,127.0,127.0,115.0,87.0,-94.0
127.0,128.0,133.0,130.0,127.0,108.0,125.0,126.0,24.0,-105.0,-73.0,127.0,127.0,127.0,115.0,87.0,-94.0
127.0,128.0,133.0,130.0,127.0,108.0,126.0,128.0,24.0,-105.0,-73.0,127.0,127.0,127.0,115.0,87.0,-94.0
128.0,128.0,133.0,130.0,128.0,108.0,126.0,129.0,24.0,-105.0,-73.0,127.0,127.0,127.0,115.0,87.0,-94.0
128.0,128.0,133.0,129.0,128.0,108.0,126.0,130.0,24.0,-105.0,-73.0,127.0,127.0,127.0,115.0,87.0,-94.0
128.0,129.0,133.0,128.0,128.0,110.0,126.0,131.0,24.0,-105.0,-73.0,127.0,127.0,127.0,115.0,87.0,-94.0
128.0,129.0,133.0,128.0,128.0,110.0,126.0,131.0,24.0,-105.0,-73.0,127.0,127.0,127.0,115.0,87.0,-94.0
128.0,129.0,132.0,127.0,128.0,110.0,126.0,131.0,24.0,-105.0,-73.0,127.0,127.0,127.0,115.0,87.0,-94.0
127.0,128.0,130.0,127.0,128.0,110.0,126.0,133.0,24.0,-106.0,-73.0,127.0,127.0,127.0,115.0,87.0,-94.0
127.0,128.0,131.0,127.0,128.0,110.0,126.0,134.0,24.0,-106.0,-73.0,127.0,127.0,127.0,115.0,87.0,-94.0
125.0,128.0,131.0,125.0,126.0,109.0,125.0,118.0,24.0,-106.0,-73.0,127.0,127.0,127.0,115.0,87.0,-94.0
125.0,128.0,131.0,126.0,126.0,109.0,125.0,120.0,24.0,-106.0,-73.0,127.0,127.0,127.0,115.0,87.0,-94.0
126.0,128.0,130.0,127.0,127.0,109.0,125.0,122.0,24.0,-106.0,-73.0,127.0,127.0,127.0,115.0,87.0,-94.0
126.0,128.0,130.0,129.0,127.0,109.0,125.0,124.0,24.0,-106.0,-73.0,127.0,127.0,127.0,115.0,87.0,-94.0
126.0,128.0,130.0,129.0,127.0,110.0,125.0,127.0,24.0,-106.0,-73.0,127.0,127.0,127.0,115.0,87.0,-94.0
126.0,128.0,130.0,129.0,127.0,111.0,125.0,129.0,24.0,-106.0,-73.0,127.0,127.0,127.0,115.0,87.0,-94.0
126.0,128.0,130.0,129.0,128.0,111.0,126.0,131.0,24.0,-106.0,-73.0,127.0,127.0,127.0,115.0,87.0,-94.0
126.0,128.0,130.0,128.0,128.0,110.0,126.0,132.0,24.0,-106.0,-73.0,127.0,127.0,127.0,115.0,87.0,-94.0
127.0,127.0,128.0,126.0,126.0,109.0,126.0,128.0,24.0,-106.0,-73.0,127.0,127.0,127.0,115.0,87.0,-94.0
127.0,128.0,129.0,126.0,127.0,108.0,126.0,128.0,24.0,-106.0,-73.0,127.0,127.0,127.0,115.0,87.0,-94.0
127.0,127.0,129.0,125.0,127.0,107.0,126.0,127.0,24.0,-106.0,-73.0,127.0,127.0,127.0,115.0,87.0,-94.0
127.0,127.0,129.0,125.0,127.0,108.0,126.0,127.0,24.0,-106.0,-73.0,127.0,127.0,127.0,115.0,87.0,-94.0
127.0,127.0,129.0,125.0,127.0,107.0,126.0,126.0,24.0,-106.0,-73.0,127.0,127.0,127.0,115.0,87.0,-94.0
127.0,127.0,129.0,124.0,127.0,109.0,126.0,126.0,24.0,-106.0,-73.0,127.0,127.0,127.0,115.0,87.0,-94.0
127.0,127.0,129.0,124.0,127.0,109.0,126.0,127.0,24.0,-106.0,-73.0,127.0,127.0,127.0,115.0,87.0,-94.0
127.0,127.0,128.0,125.0,127.0,109.0,126.0,127.0,24.0,-106.0,-73.0,127.0,127.0,127.0,115.0,87.0,-94.0
127.0,127.0,128.0,125.0,127.0,109.0,126.0,127.0,24.0,-106.0,-73.0,127.0,127.0,127.0,115.0,87.0,-94.0
127.0,127.0,128.0,125.0,126.0,109.0,126.0,127.0,24.0,-106.0,-73.0,127.0,127.0,127.0,115.0,87.0,-94.0
129.0,127.0,138.0,127.0,127.0,106.0,127.0,130.0,25.0,-107.0,-72.0,127.0,127.0,127.0,115.0,87.0,-94.0
129.0,127.0,138.0,126.0,127.0,106.0,127.0,131.0,25.0,-107.0,-72.0,127.0,127.0,127.0,115.0,87.0,-94.0
129.0,126.0,139.0,126.0,127.0,106.0,127.0,131.0,25.0,-107.0,-72.0,127.0,127.0,127.0,115.0,87.0,-94.0
129.0,127.0,139.0,125.0,127.0,106.0,127.0,131.0,25.0,-107.0,-72.0,127.0,127.0,127.0,115.0,87.0,-94.0
129.0,126.0,139.0,124.0,127.0,106.0,127.0,131.0,25.0,-107.0,-72.0,127.0,127.0,127.0,115.0,87.0,-94.0
130.0,126.0,139.0,123.0,127.0,106.0,127.0,131.0,25.0,-107.0,-72.0,127.0,127.0,127.0,115.0,87.0,-94.0
129.0,126.0,138.0,122.0,126.0,107.0,127.0,131.0,25.0,-107.0,-72.0,127.0,127.0,127.0,115.0,87.0,-94.0
129.0,126.0,137.0,121.0,126.0,107.0,127.0,131.0,25.0,-107.0,-72.0,127.0,127.0,127.0,115.0,87.0,-94.0
129.0,127.0,136.0,120.0,126.0,109.0,127.0,131.0,25.0,-107.0,-72.0,127.0,127.0,127.0,115.0,87.0,-94.0
129.0,127.0,135.0,119.0,126.0,109.0,128.0,131.0,25.0,-107.0,-72.0,127.0,127.0,127.0,115.0,87.0,-94.0
127.0,129.0,142.0,129.0,128.0,107.0,127.0,126.0,25.0,-107.0,-72.0,127.0,127.0,127.0,115.0,87.0,-94.0
127.0,129.0,142.0,129.0,128.0,108.0,127.0,125.0,25.0,-107.0,-72.0,127.0,127.0,127.0,115.0,87.0,-94.0
127.0,129.0,142.0,128.0,128.0,108.0,127.0,124.0,25.0,-107.0,-72.0,127.0,127.0,127.0,115.0,87.0,-94.0
127.0,129.0,142.0,127.0,128.0,108.0,127.0,122.0,25.0,-107.0,-72.0,127.0,127.0,127.0,115.0,87.0,-94.0
127.0,129.0,142.0,126.0,128.0,108.0,127.0,121.0,25.0,-107.0,-72.0,127.0,127.0,127.0,115.0,87.0,-94.0
127.0,129.0,142.0,125.0,128.0,108.0,127.0,120.0,25.0,-107.0,-72.0,127.0,127.0,127.0,115.0,87.0,-94.0
127.0,129.0,141.0,124.0,127.0,108.0,127.0,119.0,25.0,-107.0,-72.0,127.0,127.0,127.0,115.0,87.0,-94.0
127.0,129.0,141.0,123.0,127.0,107.0,127.0,119.0,25.0,-107.0,-72.0,127.0,127.0,127.0,115.0,87.0,-94.0
127.0,128.0,140.0,122.0,127.0,107.0,126.0,120.0,25.0,-107.0,-72.0,127.0,127.0,127.0,115.0,87.0,-94.0
127.0,128.0,142.0,129.0,128.0,106.0,127.0,127.0,25.0,-107.0,-72.0,127.0,127.0,127.0,115.0,87.0,-94.0
127.0,130.0,120.0,120.0,125.0,107.0,125.0,130.0,26.0,-107.0,-72.0,127.0,127.0,127.0,115.0,87.0,-94.0
127.0,130.0,120.0,119.0,125.0,107.0,125.0,130.0,26.0,-107.0,-72.0,127.0,127.0,127.0,115.0,87.0,-94.0
127.0,130.0,120.0,119.0,125.0,107.0,125.0,130.0,26.0,-107.0,-72.0,127.0,127.0,127.0,115.0,87.0,-94.0
127.0,129.0,120.0,119.0,125.0,107.0,125.0,131.0,26.0,-107.0,-72.0,127.0,127.0,127.0,115.0,87.0,-94.0
127.0,129.0,120.0,120.0,125.0,107.0,125.0,132.0,26.0,-107.0,-72.0,127.0,127.0,127.0,115.0,87.0,-94.0
127.0,129.0,120.0,121.0,125.0,106.0,125.0,133.0,26.0,-107.0,-72.0,127.0,127.0,127.0,115.0,87.0,-94.0
127.0,129.0,120.0,122.0,125.0,106.0,126.0,133.0,26.0,-107.0,-72.0,127.0,127.0,127.0,115.0,87.0,-94.0
127.0,129.0,120.0,124.0,125.0,106.0,126.0,133.0,26.0,-107.0,-72.0,127.0,127.0,127.0,115.0,87.0,-94.0
127.0,130.0,122.0,121.0,126.0,106.0,126.0,130.0,26.0,-107.0,-72.0,127.0,127.0,127.0,115.0,87.0,-94.0
127.0,130.0,121.0,121.0,126.0,106.0,126.0,130.0,26.0,-107.0,-72.0,127.0,127.0,127.0,115.0,87.0,-94.0
126.0,128.0,109.0,126.0,125.0,100.0,123.0,128.0,27.0,-108.0,-72.0,127.0,127.0,127.0,115.0,87.0,-94.0
126.0,128.0,109.0,126.0,125.0,99.0,124.0,128.0,27.0,-108.0,-72.0,127.0,127.0,127.0,115.0,87.0,-94.0
126.0,128.0,109.0,126.0,125.0,99.0,124.0,127.0,27.0,-108.0,-72.0,127.0,127.0,127.0,115.0,87.0,-94.0
126.0,128.0,109.0,127.0,125.0,99.0,124.0,127.0,27.0,-108.0,-72.0,127.0,127.0,127.0,115.0,87.0,-94.0
126.0,128.0,110.0,128.0,125.0,99.0,124.0,127.0,27.0,-108.0,-72.0,127.0,127.0,127.0,115.0,87.0,-94.0
126.0,127.0,111.0,129.0,125.0,98.0,125.0,126.0,27.0,-108.0,-72.0,127.0,127.0,127.0,115.0,87.0,-94.0
125.0,127.0,111.0,129.0,125.0,98.0,125.0,125.0,27.0,-108.0,-72.0,127.0,127.0,127.0,115.0,87.0,-94.0
126.0,128.0,111.0,126.0,125.0,99.0,123.0,128.0,27.0,-108.0,-72.0,127.0,127.0,127.0,115.0,87.0,-94.0
126.0,128.0,110.0,126.0,125.0,99.0,123.0,128.0,27.0,-108.0,-72.0,127.0,127.0,127.0,115.0,87.0,-94.0
126.0,128.0,110.0,126.0,125.0,100.0,123.0,128.0,27.0,-108.0,-72.0,127.0,127.0,127.0,115.0,87.0,-94.0
126.0,127.0,115.0,125.0,128.0,93.0,126.0,131.0,27.0,-109.0,-72.0,127.0,127.0,127.0,115.0,87.0,-94.0
126.0,127.0,115.0,125.0,128.0,93.0,126.0,131.0,27.0,-109.0,-72.0,127.0,127.0,127.0,115.0,87.0,-94.0
126.0,127.0,115.0,125.0,127.0,93.0,126.0,130.0,27.0,-109.0,-72.0,127.0,127.0,127.0,115.0,87.0,-94.0
126.0,127.0,115.0,125.0,127.0,93.0,126.0,130.0,27.0,-109.0,-72.0,127.0,127.0,127.0,115.0,87.0,-94.0
126.0,126.0,115.0,126.0,127.0,93.0,126.0,130.0,27.0,-109.0,-72.0,127.0,127.0,127.0,115.0,87.0,-94.0
126.0,126.0,115.0,127.0,127.0,92.0,126.0,129.0,27.0,-109.0,-72.0,127.0,127.0,127.0,115.0,87.0,-94.0
126.0,127.0,117.0,128.0,128.0,91.0,127.0,130.0,27.0,-109.0,-72.0,127.0,127.0,127.0,115.0,87.0,-94.0
126.0,127.0,116.0,127.0,128.0,91.0,127.0,130.0,27.0,-109.0,-72.0,127.0,127.0,127.0,115.0,87.0,-94.0
126.0,128.0,116.0,126.0,128.0,93.0,126.0,130.0,27.0,-109.0,-72.0,127.0,127.0,127.0,115.0,87.0,-94.0
126.0,128.0,115.0,126.0,128.0,93.0,126.0,130.0,27.0,-109.0,-72.0,127.0,127.0,127.0,115.0,87.0,-94.0
127.0,127.0,121.0,121.0,126.0,99.0,126.0,129.0,26.0,-109.0,-72.0,127.0,127.0,127.0,115.0,87.0,-94.0
127.0,126.0,121.0,121.0,126.0,99.0,126.0,129.0,26.0,-109.0,-72.0,127.0,127.0,127.0,115.0,87.0,-94.0
127.0,126.0,121.0,121.0,126.0,99.0,126.0,129.0,26.0,-109.0,-72.0,127.0,127.0,127.0,115.0,87.0,-94.0
127.0,126.0,121.0,121.0,126.0,99.0,126.0,129.0,26.0,-109.0,-72.0,127.0,127.0,127.0,115.0,87.0,-94.0
127.0,125.0,122.0,121.0,125.0,99.0,126.0,129.0,26.0,-109.0,-72.0,127.0,127.0,127.0,115.0,87.0,-94.0
127.0,127.0,123.0,123.0,127.0,97.0,126.0,128.0,26.0,-109.0,-72.0,127.0,127.0,127.0,115.0,87.0,-94.0
127.0,127.0,123.0,122.0,127.0,97.0,126.0,129.0,26.0,-109.0,-72.0,127.0,127.0,127.0,115.0,87.0,-94.0
127.0,127.0,122.0,122.0,127.0,98.0,126.0,129.0,26.0,-109.0,-72.0,127.0,127.0,127.0,115.0,87.0,-94.0
127.0,127.0,122.0,122.0,127.0,99.0,126.0,129.0,26.0,-109.0,-72.0,127.0,127.0,127.0,115.0,87.0,-94.0
127.0,127.0,121.0,122.0,127.0,99.0,126.0,129.0,26.0,-109.0,-72.0,127.0,127.0,127.0,115.0,87.0,-94.0
127.0,128.0,130.0,129.0,128.0,107.0,126.0,128.0,24.0,-109.0,-72.0,127.0,127.0,127.0,115.0,87.0,-94.0
128.0,128.0,131.0,129.0,128.0,107.0,126.0,129.0,24.0,-109.0,-72.0,127.0,127.0,127.0,115.0,87.0,-94.0
128.0,128.0,131.0,129.0,128.0,107.0,126.0,129.0,24.0,-109.0,-72.0,127.0,127.0,127.0,115.0,87.0,-94.0
128.0,127.0,131.0,129.0,128.0,107.0,126.0,129.0,24.0,-109.0,-72.0,127.0,127.0,127.0,115.0,87.0,-94.0
127.0,128.0,129.0,128.0,128.0,104.0,126.0,123.0,24.0,-109.0,-72.0,127.0,127.0,127.0,115.0,87.0,-94.0
127.0,127.0,130.0,128.0,128.0,105.0,126.0,123.0,24.0,-109.0,-72.0,127.0,127.0,127.0,115.0,87.0,-94.0
127.0,128.0,129.0,128.0,128.0,106.0,126.0,124.0,24.0,-109.0,-72.0,127.0,127.0,127.0,115.0,87.0,-94.0
127.0,128.0,129.0,128.0,128.0,107.0,126.0,124.0,24.0,-109.0,-72.0,127.0,127.0,127.0,115.0,87.0,-94.0
127.0,128.0,129.0,128.0,128.0,107.0,126.0,126.0,24.0,-109.0,-72.0,127.0,127.0,127.0,115.0,87.0,-94.0
127.0,128.0,129.0,128.0,128.0,107.0,126.0,127.0,24.0,-109.0,-72.0,127.0,127.0,127.0,115.0,87.0,-94.0
126.0,128.0,134.0,127.0,126.0,114.0,126.0,128.0,22.0,-108.0,-73.0,127.0,127.0,127.0,115.0,87.0,-94.0
126.0,128.0,134.0,126.0,126.0,114.0,126.0,128.0,22.0,-108.0,-73.0,127.0,127.0,127.0,115.0,87.0,-94.0
126.0,127.0,135.0,126.0,125.0,114.0,127.0,129.0,22.0,-108.0,-73.0,127.0,127.0,127.0,115.0,87.0,-94.0
126.0,128.0,134.0,127.0,127.0,112.0,125.0,130.0,22.0,-108.0,-73.0,127.0,127.0,127.0,115.0,87.0,-94.0
126.0,128.0,134.0,127.0,127.0,112.0,125.0,130.0,22.0,-108.0,-73.0,127.0,127.0,127.0,115.0,87.0,-94.0
126.0,128.0,133.0,127.0,127.0,113.0,125.0,130.0,22.0,-108.0,-73.0,127.0,127.0,127.0,115.0,87.0,-94.0
126.0,129.0,133.0,127.0,126.0,114.0,125.0,130.0,22.0,-108.0,-73.0,127.0,127.0,127.0,115.0,87.0,-94.0
126.0,128.0,133.0,127.0,126.0,114.0,125.0,129.0,22.0,-108.0,-73.0,127.0,127.0,127.0,115.0,87.0,-94.0
126.0,128.0,133.0,127.0,126.0,114.0,125.0,129.0,22.0,-108.0,-73.0,127.0,127.0,127.0,115.0,87.0,-94.0
126.0,128.0,134.0,127.0,126.0,114.0,126.0,129.0,22.0,-108.0,-73.0,127.0,127.0,127.0,115.0,87.0,-94.0
126.0,131.0,142.0,129.0,128.0,115.0,128.0,127.0,21.0,-107.0,-74.0,127.0,127.0,127.0,115.0,87.0,-94.0
125.0,130.0,144.0,126.0,128.0,113.0,128.0,129.0,21.0,-107.0,-74.0,127.0,127.0,127.0,115.0,87.0,-94.0
125.0,130.0,144.0,127.0,128.0,113.0,128.0,129.0,21.0,-107.0,-74.0,127.0,127.0,127.0,115.0,87.0,-94.0
125.0,130.0,144.0,128.0,128.0,113.0,128.0,129.0,21.0,-107.0,-74.0,127.0,127.0,127.0,115.0,87.0,-94.0
125.0,130.0,144.0,128.0,128.0,113.0,128.0,128.0,21.0,-107.0,-74.0,127.0,127.0,127.0,115.0,87.0,-94.0
125.0,130.0,144.0,128.0,128.0,112.0,128.0,128.0,21.0,-107.0,-74.0,127.0,127.0,127.0,115.0,87.0,-94.0
125.0,130.0,144.0,128.0,128.0,113.0,128.0,128.0,21.0,-107.0,-74.0,127.0,127.0,127.0,115.0,87.0,-94.0
125.0,131.0,143.0,128.0,128.0,113.0,128.0,128.0,21.0,-107.0,-74.0,127.0,127.0,127.0,115.0,87.0,-94.0
125.0,131.0,143.0,129.0,128.0,115.0,128.0,127.0,21.0,-107.0,-74.0,127.0,127.0,127.0,115.0,87.0,-94.0
126.0,131.0,142.0,129.0,128.0,115.0,128.0,127.0,21.0,-107.0,-74.0,127.0,127.0,127.0,115.0,87.0,-94.0
125.0,127.0,132.0,126.0,126.0,115.0,126.0,119.0,20.0,-107.0,-74.0,127.0,127.0,127.0,115.0,87.0,-94.0
125.0,130.0,133.0,131.0,127.0,116.0,127.0,126.0,20.0,-107.0,-74.0,127.0,127.0,127.0,115.0,87.0,-94.0
125.0,129.0,133.0,131.0,127.0,116.0,127.0,126.0,20.0,-107.0,-74.0,127.0,127.0,127.0,115.0,87.0,-94.0
125.0,129.0,133.0,131.0,127.0,116.0,127.0,126.0,20.0,-107.0,-74.0,127.0,127.0,127.0,115.0,87.0,-94.0
125.0,129.0,133.0,131.0,127.0,116.0,127.0,126.0,20.0,-107.0,-74.0,127.0,127.0,127.0,115.0,87.0,-94.0
125.0,128.0,133.0,130.0,126.0,116.0,127.0,125.0,20.0,-107.0,-74.0,127.0,127.0,127.0,115.0,87.0,-94.0
125.0,128.0,133.0,130.0,126.0,116.0,127.0,124.0,20.0,-107.0,-74.0,127.0,127.0,127.0,115.0,87.0,-94.0
125.0,128.0,133.0,130.0,126.0,116.0,127.0,122.0,20.0,-107.0,-74.0,127.0,127.0,127.0,115.0,87.0,-94.0
125.0,128.0,132.0,129.0,126.0,116.0,127.0,120.0,20.0,-107.0,-74.0,127.0,127.0,127.0,115.0,87.0,-94.0
125.0,128.0,132.0,128.0,126.0,116.0,126.0,119.0,20.0,-107.0,-74.0,127.0,127.0,127.0,115.0,87.0,-94.0
127.0,129.0,129.0,132.0,127.0,113.0,127.0,130.0,20.0,-107.0,-74.0,127.0,127.0,127.0,115.0,87.0,-94.0
127.0,129.0,129.0,132.0,127.0,113.0,127.0,130.0,20.0,-107.0,-74.0,127.0,127.0,127.0,115.0,87.0,-94.0
127.0,129.0,129.0,132.0,127.0,113.0,127.0,130.0,20.0,-107.0,-74.0,127.0,127.0,127.0,115.0,87.0,-94.0
127.0,129.0,129.0,132.0,127.0,113.0,127.0,130.0,20.0,-107.0,-74.0,127.0,127.0,127.0,115.0,87.0,-94.0
127.0,129.0,129.0,132.0,126.0,113.0,127.0,130.0,20.0,-107.0,-74.0,127.0,127.0,127.0,115.0,87.0,-94.0
127.0,128.0,129.0,131.0,126.0,113.0,127.0,130.0,20.0,-107.0,-74.0,127.0,127.0,127.0,115.0,87.0,-94.0
126.0,129.0,129.0,131.0,126.0,114.0,127.0,131.0,20.0,-107.0,-74.0,127.0,127.0,127.0,115.0,87.0,-94.0
126.0,129.0,129.0,131.0,127.0,115.0,127.0,130.0,20.0,-107.0,-74.0,127.0,127.0,127.0,115.0,87.0,-94.0
126.0,129.0,129.0,131.0,127.0,114.0,127.0,130.0,20.0,-107.0,-74.0,127.0,127.0,127.0,115.0,87.0,-94.0
127.0,129.0,129.0,131.0,127.0,114.0,127.0,129.0,20.0,-107.0,-74.0,127.0,127.0,127.0,115.0,87.0,-94.0
126.0,130.0,116.0,126.0,127.0,115.0,126.0,128.0,21.0,-107.0,-74.0,127.0,127.0,127.0,115.0,87.0,-94.0
126.0,129.0,116.0,126.0,127.0,115.0,126.0,129.0,21.0,-107.0,-74.0,127.0,127.0,127.0,115.0,87.0,-94.0
126.0,129.0,116.0,126.0,127.0,114.0,126.0,129.0,21.0,-107.0,-74.0,127.0,127.0,127.0,115.0,87.0,-94.0
126.0,129.0,117.0,126.0,127.0,114.0,126.0,129.0,21.0,-107.0,-74.0,127.0,127.0,127.0,115.0,87.0,-94.0
126.0,129.0,117.0,126.0,127.0,114.0,126.0,129.0,21.0,-107.0,-74.0,127.0,127.0,127.0,115.0,87.0,-94.0
126.0,129.0,117.0,127.0,127.0,114.0,127.0,129.0,21.0,-107.0,-74.0,127.0,127.0,127.0,115.0,87.0,-94.0
126.0,129.0,118.0,127.0,127.0,113.0,127.0,129.0,21.0,-107.0,-74.0,127.0,127.0,127.0,115.0,87.0,-94.0
126.0,129.0,118.0,127.0,127.0,113.0,127.0,129.0,21.0,-107.0,-74.0,127.0,127.0,127.0,115.0,87.0,-94.0
126.0,128.0,118.0,127.0,127.0,113.0,127.0,129.0,21.0,-107.0,-74.0,127.0,127.0,127.0,115.0,87.0,-94.0
126.0,129.0,116.0,126.0,127.0,115.0,126.0,128.0,21.0,-107.0,-74.0,127.0,127.0,127.0,115.0,87.0,-94.0
127.0,128.0,113.0,129.0,127.0,114.0,127.0,129.0,23.0,-107.0,-74.0,127.0,127.0,127.0,115.0,87.0,-94.0
127.0,128.0,114.0,130.0,127.0,114.0,127.0,129.0,23.0,-107.0,-74.0,127.0,127.0,127.0,115.0,87.0,-94.0
127.0,128.0,114.0,130.0,127.0,114.0,127.0,129.0,23.0,-107.0,-74.0,127.0,127.0,127.0,115.0,87.0,-94.0
127.0,128.0,115.0,131.0,127.0,114.0,127.0,128.0,23.0,-107.0,-74.0,127.0,127.0,127.0,115.0,87.0,-94.0
127.0,127.0,115.0,131.0,127.0,114.0,127.0,128.0,23.0,-107.0,-74.0,127.0,127.0,127.0,115.0,87.0,-94.0
127.0,127.0,115.0,131.0,127.0,113.0,127.0,127.0,23.0,-107.0,-74.0,127.0,127.0,127.0,115.0,87.0,-94.0
127.0,127.0,115.0,131.0,127.0,113.0,127.0,126.0,23.0,-107.0,-74.0,127.0,127.0,127.0,115.0,87.0,-94.0
127.0,127.0,116.0,131.0,127.0,113.0,127.0,126.0,23.0,-107.0,-74.0,127.0,127.0,127.0,115.0,87.0,-94.0
127.0,128.0,112.0,126.0,127.0,113.0,126.0,129.0,23.0,-107.0,-74.0,127.0,127.0,127.0,115.0,87.0,-94.0
127.0,128.0,113.0,128.0,127.0,114.0,126.0,129.0,23.0,-107.0,-74.0,127.0,127.0,127.0,115.0,87.0,-94.0
127.0,126.0,116.0,131.0,127.0,115.0,126.0,122.0,24.0,-107.0,-73.0,127.0,127.0,127.0,115.0,87.0,-94.0
127.0,126.0,116.0,131.0,127.0,115.0,126.0,122.0,24.0,-107.0,-73.0,127.0,127.0,127.0,115.0,87.0,-94.0
127.0,126.0,116.0,130.0,127.0,115.0,126.0,123.0,24.0,-107.0,-73.0,127.0,127.0,127.0,115.0,87.0,-94.0
127.0,126.0,117.0,130.0,126.0,114.0,126.0,124.0,24.0,-107.0,-73.0,127.0,127.0,127.0,115.0,87.0,-94.0
127.0,125.0,117.0,129.0,126.0,114.0,126.0,125.0,24.0,-107.0,-73.0,127.0,127.0,127.0,115.0,87.0,-94.0
127.0,125.0,117.0,129.0,126.0,114.0,126.0,126.0,24.0,-107.0,-73.0,127.0,127.0,127.0,115.0,87.0,-94.0
127.0,125.0,115.0,129.0,127.0,113.0,126.0,125.0,24.0,-107.0,-73.0,127.0,127.0,127.0,115.0,87.0,-94.0
127.0,126.0,115.0,130.0,127.0,114.0,126.0,124.0,24.0,-107.0,-73.0,127.0,127.0,127.0,115.0,87.0,-94.0
127.0,126.0,115.0,131.0,127.0,115.0,125.0,123.0,24.0,-107.0,-73.0,127.0,127.0,127.0,115.0,87.0,-94.0
127.0,126.0,116.0,131.0,127.0,115.0,125.0,123.0,24.0,-107.0,-73.0,127.0,127.0,127.0,115.0,87.0,-94.0
128.0,125.0,120.0,126.0,127.0,115.0,127.0,129.0,24.0,-107.0,-73.0,127.0,127.0,127.0,115.0,87.0,-94.0
128.0,125.0,121.0,126.0,127.0,115.0,127.0,129.0,24.0,-107.0,-73.0,127.0,127.0,127.0,115.0,87.0,-94.0
128.0,125.0,121.0,126.0,127.0,115.0,127.0,129.0,24.0,-107.0,-73.0,127.0,127.0,127.0,115.0,87.0,-94.0
128.0,125.0,121.0,126.0,127.0,114.0,127.0,129.0,24.0,-107.0,-73.0,127.0,127.0,127.0,115.0,87.0,-94.0
128.0,125.0,121.0,126.0,126.0,114.0,127.0,129.0,24.0,-107.0,-73.0,127.0,127.0,127.0,115.0,87.0,-94.0
128.0,125.0,120.0,126.0,127.0,114.0,127.0,130.0,24.0,-107.0,-73.0,127.0,127.0,127.0,115.0,87.0,-94.0
128.0,125.0,120.0,126.0,127.0,114.0,127.0,130.0,24.0,-107.0,-73.0,127.0,127.0,127.0,115.0,87.0,-94.0
128.0,126.0,120.0,126.0,127.0,115.0,127.0,130.0,24.0,-107.0,-73.0,127.0,127.0,127.0,115.0,87.0,-94.0
128.0,126.0,120.0,126.0,127.0,115.0,127.0,130.0,24.0,-107.0,-73.0,127.0,127.0,127.0,115.0,87.0,-94.0
128.0,126.0,120.0,126.0,127.0,115.0,127.0,129.0,24.0,-107.0,-73.0,127.0,127.0,127.0,115.0,87.0,-94.0
127.0,124.0,125.0,125.0,127.0,117.0,127.0,128.0,24.0,-107.0,-73.0,127.0,127.0,127.0,115.0,87.0,-94.0
127.0,124.0,126.0,125.0,127.0,117.0,127.0,128.0,24.0,-107.0,-73.0,127.0,127.0,127.0,115.0,87.0,-94.0
127.0,124.0,126.0,125.0,127.0,116.0,127.0,128.0,24.0,-107.0,-73.0,127.0,127.0,127.0,115.0,87.0,-94.0
127.0,124.0,126.0,125.0,127.0,116.0,127.0,128.0,24.0,-107.0,-73.0,127.0,127.0,127.0,115.0,87.0,-94.0
127.0,124.0,125.0,125.0,127.0,115.0,127.0,128.0,24.0,-107.0,-73.0,127.0,127.0,127.0,115.0,87.0,-94.0
127.0,124.0,125.0,125.0,127.0,116.0,127.0,128.0,24.0,-107.0,-73.0,127.0,127.0,127.0,115.0,87.0,-94.0
127.0,124.0,125.0,125.0,127.0,117.0,127.0,128.0,24.0,-107.0,-73.0,127.0,127.0,127.0,115.0,87.0,-94.0
127.0,124.0,125.0,125.0,127.0,117.0,127.0,128.0,24.0,-107.0,-73.0,127.0,127.0,127.0,115.0,87.0,-94.0
127.0,124.0,125.0,125.0,127.0,117.0,127.0,128.0,24.0,-107.0,-73.0,127.0,127.0,127.0,115.0,87.0,-94.0
127.0,124.0,125.0,125.0,127.0,117.0,127.0,128.0,24.0,-107.0,-73.0,127.0,127.0,127.0,115.0,87.0,-94.0
126.0,126.0,132.0,126.0,128.0,117.0,127.0,128.0,23.0,-106.0,-74.0,127.0,127.0,127.0,115.0,87.0,-94.0
126.0,126.0,132.0,127.0,128.0,117.0,127.0,128.0,23.0,-106.0,-74.0,127.0,127.0,127.0,115.0,87.0,-94.0
126.0,126.0,132.0,127.0,128.0,117.0,127.0,128.0,23.0,-106.0,-74.0,127.0,127.0,127.0,115.0,87.0,-94.0
126.0,125.0,135.0,127.0,127.0,115.0,127.0,128.0,23.0,-106.0,-74.0,127.0,127.0,127.0,115.0,87.0,-94.0
126.0,125.0,134.0,127.0,127.0,115.0,127.0,128.0,23.0,-106.0,-74.0,127.0,127.0,127.0,115.0,87.0,-94.0
126.0,125.0,134.0,127.0,127.0,115.0,127.0,128.0,23.0,-106.0,-74.0,127.0,127.0,127.0,115.0,87.0,-94.0
126.0,125.0,133.0,127.0,127.0,115.0,127.0,128.0,23.0,-106.0,-74.0,127.0,127.0,127.0,115.0,87.0,-94.0
126.0,125.0,133.0,126.0,127.0,116.0,127.0,128.0,23.0,-106.0,-74.0,127.0,127.0,127.0,115.0,87.0,-94.0
126.0,126.0,132.0,126.0,128.0,117.0,127.0,128.0,23.0,-106.0,-74.0,127.0,127.0,127.0,115.0,87.0,-94.0
126.0,126.0,132.0,126.0,128.0,117.0,127.0,128.0,23.0,-106.0,-74.0,127.0,127.0,127.0,115.0,87.0,-94.0
125.0,127.0,127.0,125.0,126.0,117.0,127.0,128.0,23.0,-106.0,-74.0,127.0,127.0,127.0,114.0,87.0,-94.0
125.0,127.0,127.0,124.0,126.0,117.0,127.0,128.0,23.0,-106.0,-74.0,127.0,127.0,127.0,114.0,87.0,-94.0
125.0,127.0,127.0,128.0,126.0,118.0,127.0,127.0,23.0,-106.0,-74.0,127.0,127.0,127.0,114.0,87.0,-94.0
125.0,127.0,127.0,129.0,127.0,118.0,127.0,127.0,23.0,-106.0,-74.0,127.0,127.0,127.0,114.0,87.0,-94.0
125.0,127.0,127.0,129.0,127.0,118.0,127.0,128.0,23.0,-106.0,-74.0,127.0,127.0,127.0,114.0,87.0,-94.0
125.0,127.0,127.0,129.0,127.0,118.0,127.0,128.0,23.0,-106.0,-74.0,127.0,127.0,127.0,114.0,87.0,-94.0
125.0,127.0,127.0,128.0,127.0,118.0,127.0,128.0,23.0,-106.0,-74.0,127.0,127.0,127.0,114.0,87.0,-94.0
125.0,127.0,127.0,128.0,127.0,117.0,127.0,128.0,23.0,-106.0,-74.0,127.0,127.0,127.0,114.0,87.0,-94.0
125.0,127.0,127.0,127.0,126.0,117.0,127.0,128.0,23.0,-106.0,-74.0,127.0,127.0,127.0,114.0,87.0,-94.0
125.0,127.0,127.0,126.0,126.0,117.0,127.0,128.0,23.0,-106.0,-74.0,127.0,127.0,127.0,114.0,87.0,-94.0
126.0,129.0,124.0,128.0,127.0,118.0,127.0,129.0,22.0,-106.0,-75.0,127.0,127.0,127.0,114.0,87.0,-94.0
126.0,131.0,125.0,129.0,127.0,119.0,127.0,129.0,22.0,-106.0,-75.0,127.0,127.0,127.0,114.0,87.0,-94.0
126.0,131.0,125.0,129.0,127.0,119.0,127.0,129.0,22.0,-106.0,-75.0,127.0,127.0,127.0,114.0,87.0,-94.0
126.0,130.0,125.0,129.0,127.0,119.0,127.0,129.0,22.0,-106.0,-75.0,127.0,127.0,127.0,114.0,87.0,-94.0
126.0,130.0,125.0,129.0,127.0,119.0,127.0,129.0,22.0,-106.0,-75.0,127.0,127.0,127.0,114.0,87.0,-94.0
126.0,130.0,125.0,129.0,127.0,119.0,127.0,129.0,22.0,-106.0,-75.0,127.0,127.0,127.0,114.0,87.0,-94.0
126.0,130.0,125.0,129.0,127.0,119.0,127.0,129.0,22.0,-106.0,-75.0,127.0,127.0,127.0,114.0,87.0,-94.0
126.0,130.0,125.0,128.0,127.0,119.0,127.0,129.0,22.0,-106.0,-75.0,127.0,127.0,127.0,114.0,87.0,-94.0
126.0,130.0,125.0,128.0,127.0,118.0,127.0,129.0,22.0,-106.0,-75.0,127.0,127.0,127.0,114.0,87.0,-94.0
126.0,130.0,124.0,128.0,127.0,118.0,127.0,129.0,22.0,-106.0,-75.0,127.0,127.0,127.0,114.0,87.0,-94.0
125.0,130.0,119.0,127.0,127.0,119.0,127.0,129.0,23.0,-106.0,-75.0,127.0,127.0,127.0,114.0,87.0,-94.0
125.0,130.0,119.0,127.0,127.0,119.0,127.0,129.0,23.0,-106.0,-75.0,127.0,127.0,127.0,114.0,87.0,-94.0
125.0,130.0,119.0,127.0,127.0,119.0,127.0,129.0,23.0,-106.0,-75.0,127.0,127.0,127.0,114.0,87.0,-94.0
125.0,130.0,119.0,127.0,127.0,119.0,127.0,129.0,23.0,-106.0,-75.0,127.0,127.0,127.0,114.0,87.0,-94.0
125.0,130.0,119.0,127.0,127.0,119.0,127.0,129.0,23.0,-106.0,-75.0,127.0,127.0,127.0,114.0,87.0,-94.0
125.0,129.0,119.0,127.0,127.0,119.0,127.0,129.0,23.0,-106.0,-75.0,127.0,127.0,127.0,114.0,87.0,-94.0
125.0,129.0,119.0,127.0,127.0,119.0,127.0,129.0,23.0,-106.0,-75.0,127.0,127.0,127.0,114.0,87.0,-94.0
125.0,129.0,119.0,127.0,127.0,119.0,127.0,129.0,23.0,-106.0,-75.0,127.0,127.0,127.0,114.0,87.0,-94.0
125.0,129.0,119.0,127.0,127.0,119.0,128.0,129.0,23.0,-106.0,-75.0,127.0,127.0,127.0,114.0,87.0,-94.0
125.0,129.0,118.0,127.0,127.0,119.0,128.0,129.0,23.0,-106.0,-75.0,127.0,127.0,127.0,114.0,87.0,-94.0
125.0,131.0,121.0,124.0,127.0,125.0,126.0,129.0,23.0,-107.0,-75.0,127.0,127.0,127.0,114.0,87.0,-94.0
125.0,131.0,122.0,124.0,127.0,125.0,126.0,129.0,23.0,-107.0,-75.0,127.0,127.0,127.0,114.0,87.0,-94.0
125.0,131.0,122.0,125.0,127.0,125.0,126.0,129.0,23.0,-107.0,-75.0,127.0,127.0,127.0,114.0,87.0,-94.0
125.0,131.0,121.0,125.0,127.0,125.0,126.0,129.0,23.0,-107.0,-75.0,127.0,127.0,127.0,114.0,87.0,-94.0
125.0,131.0,121.0,126.0,127.0,125.0,126.0,129.0,23.0,-107.0,-75.0,127.0,127.0,127.0,114.0,87.0,-94.0
125.0,131.0,121.0,127.0,127.0,124.0,126.0,128.0,23.0,-107.0,-75.0,127.0,127.0,127.0,114.0,87.0,-94.0
125.0,130.0,121.0,127.0,127.0,124.0,126.0,128.0,23.0,-107.0,-75.0,127.0,127.0,127.0,114.0,87.0,-94.0
125.0,130.0,121.0,128.0,127.0,124.0,126.0,129.0,23.0,-107.0,-75.0,127.0,127.0,127.0,114.0,87.0,-94.0
124.0,130.0,121.0,128.0,127.0,124.0,126.0,128.0,23.0,-107.0,-75.0,127.0,127.0,127.0,114.0,87.0,-94.0
125.0,131.0,121.0,124.0,127.0,125.0,126.0,129.0,23.0,-107.0,-75.0,127.0,127.0,127.0,114.0,87.0,-94.0
124.0,131.0,119.0,127.0,127.0,121.0,125.0,128.0,25.0,-108.0,-75.0,127.0,127.0,127.0,114.0,87.0,-94.0
124.0,131.0,119.0,127.0,127.0,121.0,125.0,128.0,25.0,-108.0,-75.0,127.0,127.0,127.0,114.0,87.0,-94.0
124.0,131.0,119.0,127.0,127.0,121.0,125.0,128.0,25.0,-108.0,-75.0,127.0,127.0,127.0,114.0,87.0,-94.0
124.0,131.0,120.0,126.0,127.0,120.0,125.0,128.0,25.0,-108.0,-75.0,127.0,127.0,127.0,114.0,87.0,-94.0
124.0,131.0,120.0,126.0,127.0,120.0,125.0,128.0,25.0,-108.0,-75.0,127.0,127.0,127.0,114.0,87.0,-94.0
124.0,131.0,120.0,126.0,127.0,120.0,125.0,128.0,25.0,-108.0,-75.0,127.0,127.0,127.0,114.0,87.0,-94.0
124.0,130.0,121.0,126.0,127.0,119.0,125.0,128.0,25.0,-108.0,-75.0,127.0,127.0,127.0,114.0,87.0,-94.0
124.0,130.0,122.0,126.0,127.0,119.0,125.0,128.0,25.0,-108.0,-75.0,127.0,127.0,127.0,114.0,87.0,-94.0
124.0,132.0,119.0,127.0,127.0,122.0,125.0,128.0,25.0,-108.0,-75.0,127.0,127.0,127.0,114.0,87.0,-94.0
124.0,132.0,119.0,127.0,127.0,122.0,125.0,128.0,25.0,-108.0,-75.0,127.0,127.0,127.0,114.0,87.0,-94.0
125.0,124.0,121.0,123.0,127.0,118.0,127.0,128.0,26.0,-108.0,-75.0,127.0,127.0,127.0,114.0,87.0,-94.0
125.0,124.0,121.0,123.0,127.0,118.0,127.0,128.0,26.0,-108.0,-75.0,127.0,127.0,127.0,114.0,87.0,-94.0
125.0,124.0,121.0,122.0,126.0,118.0,127.0,128.0,26.0,-108.0,-75.0,127.0,127.0,127.0,114.0,87.0,-94.0
126.0,123.0,122.0,122.0,126.0,117.0,127.0,128.0,26.0,-108.0,-75.0,127.0,127.0,127.0,114.0,87.0,-94.0
125.0,123.0,122.0,123.0,126.0,117.0,127.0,128.0,26.0,-108.0,-75.0,127.0,127.0,127.0,114.0,87.0,-94.0
125.0,123.0,122.0,123.0,126.0,117.0,127.0,128.0,26.0,-108.0,-75.0,127.0,127.0,127.0,114.0,87.0,-94.0
126.0,123.0,122.0,124.0,126.0,117.0,127.0,128.0,26.0,-108.0,-75.0,127.0,127.0,127.0,114.0,87.0,-94.0
125.0,125.0,121.0,124.0,127.0,118.0,126.0,128.0,26.0,-108.0,-75.0,127.0,127.0,127.0,114.0,87.0,-94.0
125.0,125.0,121.0,124.0,127.0,118.0,127.0,128.0,26.0,-108.0,-75.0,127.0,127.0,127.0,114.0,87.0,-94.0
125.0,124.0,121.0,123.0,127.0,118.0,127.0,128.0,26.0,-108.0,-75.0,127.0,127.0,127.0,114.0,87.0,-94.0
127.0,126.0,126.0,126.0,126.0,118.0,127.0,128.0,26.0,-108.0,-74.0,127.0,127.0,127.0,114.0,87.0,-94.0
127.0,126.0,126.0,126.0,126.0,118.0,127.0,128.0,26.0,-108.0,-74.0,127.0,127.0,127.0,114.0,87.0,-94.0
127.0,125.0,126.0,126.0,126.0,118.0,127.0,128.0,26.0,-108.0,-74.0,127.0,127.0,127.0,114.0,87.0,-94.0
127.0,125.0,127.0,126.0,126.0,118.0,127.0,127.0,26.0,-108.0,-74.0,127.0,127.0,127.0,114.0,87.0,-94.0
127.0,125.0,127.0,126.0,126.0,117.0,127.0,127.0,26.0,-108.0,-74.0,127.0,127.0,127.0,114.0,87.0,-94.0
127.0,125.0,127.0,126.0,126.0,117.0,127.0,127.0,26.0,-108.0,-74.0,127.0,127.0,127.0,114.0,87.0,-94.0
127.0,126.0,125.0,126.0,127.0,119.0,126.0,128.0,26.0,-108.0,-74.0,127.0,127.0,127.0,114.0,87.0,-94.0
127.0,126.0,125.0,126.0,127.0,119.0,127.0,128.0,26.0,-108.0,-74.0,127.0,127.0,127.0,114.0,87.0,-94.0
127.0,126.0,126.0,126.0,126.0,119.0,127.0,128.0,26.0,-108.0,-74.0,127.0,127.0,127.0,114.0,87.0,-94.0
127.0,126.0,126.0,126.0,126.0,118.0,127.0,128.0,26.0,-108.0,-74.0,127.0,127.0,127.0,114.0,87.0,-94.0
130.0,129.0,125.0,129.0,126.0,122.0,127.0,127.0,25.0,-108.0,-74.0,127.0,127.0,127.0,114.0,87.0,-94.0
130.0,129.0,125.0,129.0,126.0,121.0,127.0,127.0,25.0,-108.0,-74.0,127.0,127.0,127.0,114.0,87.0,-94.0
130.0,130.0,124.0,129.0,126.0,122.0,127.0,127.0,25.0,-108.0,-74.0,127.0,127.0,127.0,114.0,87.0,-94.0
130.0,130.0,124.0,128.0,126.0,122.0,127.0,127.0,25.0,-108.0,-74.0,127.0,127.0,127.0,114.0,87.0,-94.0
130.0,131.0,124.0,128.0,126.0,123.0,127.0,127.0,25.0,-108.0,-74.0,127.0,127.0,127.0,114.0,87.0,-94.0
130.0,127.0,125.0,128.0,126.0,119.0,127.0,127.0,25.0,-108.0,-74.0,127.0,127.0,127.0,114.0,87.0,-94.0
130.0,127.0,125.0,128.0,126.0,120.0,127.0,127.0,25.0,-108.0,-74.0,127.0,127.0,127.0,114.0,87.0,-94.0
130.0,128.0,125.0,128.0,126.0,120.0,127.0,127.0,25.0,-108.0,-74.0,127.0,127.0,127.0,114.0,87.0,-94.0
130.0,128.0,125.0,128.0,126.0,122.0,127.0,127.0,25.0,-108.0,-74.0,127.0,127.0,127.0,114.0,87.0,-94.0
130.0,129.0,125.0,128.0,126.0,122.0,127.0,127.0,25.0,-108.0,-74.0,127.0,127.0,127.0,114.0,87.0,-94.0
132.0,128.0,125.0,126.0,125.0,126.0,127.0,128.0,24.0,-107.0,-74.0,127.0,127.0,127.0,114.0,87.0,-94.0
132.0,128.0,124.0,126.0,125.0,126.0,127.0,128.0,24.0,-107.0,-74.0,127.0,127.0,127.0,114.0,87.0,-94.0
132.0,128.0,124.0,126.0,125.0,126.0,127.0,128.0,24.0,-107.0,-74.0,127.0,127.0,127.0,114.0,87.0,-94.0
132.0,128.0,124.0,126.0,125.0,126.0,128.0,128.0,24.0,-107.0,-74.0,127.0,127.0,127.0,114.0,87.0,-94.0
131.0,129.0,124.0,126.0,125.0,127.0,127.0,128.0,24.0,-107.0,-74.0,127.0,127.0,127.0,114.0,87.0,-94.0
131.0,129.0,124.0,126.0,125.0,127.0,127.0,128.0,24.0,-107.0,-74.0,127.0,127.0,127.0,114.0,87.0,-94.0
131.0,129.0,124.0,126.0,125.0,127.0,127.0,128.0,24.0,-107.0,-74.0,127.0,127.0,127.0,114.0,87.0,-94.0
131.0,128.0,124.0,126.0,125.0,126.0,127.0,128.0,24.0,-107.0,-74.0,127.0,127.0,127.0,114.0,87.0,-94.0
131.0,128.0,124.0,126.0,125.0,126.0,127.0,128.0,24.0,-107.0,-74.0,127.0,127.0,127.0,114.0,87.0,-94.0
131.0,128.0,125.0,126.0,125.0,126.0,127.0,128.0,24.0,-107.0,-74.0,127.0,127.0,127.0,114.0,87.0,-94.0
130.0,130.0,125.0,127.0,125.0,127.0,128.0,128.0,22.0,-106.0,-74.0,127.0,127.0,127.0,114.0,87.0,-94.0
130.0,129.0,125.0,127.0,125.0,127.0,128.0,128.0,22.0,-106.0,-74.0,127.0,127.0,127.0,114.0,87.0,-94.0
130.0,129.0,125.0,127.0,125.0,127.0,128.0,128.0,22.0,-106.0,-74.0,127.0,127.0,127.0,114.0,87.0,-94.0
130.0,130.0,125.0,128.0,126.0,128.0,128.0,128.0,22.0,-106.0,-74.0,127.0,127.0,127.0,114.0,87.0,-94.0
130.0,130.0,125.0,128.0,125.0,128.0,128.0,128.0,22.0,-106.0,-74.0,127.0,127.0,127.0,114.0,87.0,-94.0
130.0,130.0,125.0,128.0,126.0,128.0,128.0,128.0,22.0,-106.0,-74.0,127.0,127.0,127.0,114.0,87.0,-94.0
130.0,130.0,126.0,128.0,126.0,128.0,128.0,128.0,22.0,-106.0,-74.0,127.0,127.0,127.0,114.0,87.0,-94.0
130.0,130.0,126.0,128.0,126.0,128.0,128.0,128.0,22.0,-106.0,-74.0,127.0,127.0,127.0,114.0,87.0,-94.0
130.0,130.0,126.0,128.0,126.0,127.0,128.0,128.0,22.0,-106.0,-74.0,127.0,127.0,127.0,114.0,87.0,-94.0
130.0,129.0,125.0,128.0,125.0,127.0,128.0,128.0,22.0,-106.0,-74.0,127.0,127.0,127.0,114.0,87.0,-94.0
129.0,129.0,120.0,127.0,126.0,126.0,128.0,129.0,22.0,-105.0,-73.0,127.0,127.0,127.0,114.0,87.0,-94.0
129.0,129.0,119.0,127.0,126.0,126.0,128.0,129.0,22.0,-105.0,-73.0,127.0,127.0,127.0,114.0,87.0,-94.0
129.0,130.0,120.0,127.0,126.0,128.0,128.0,129.0,22.0,-105.0,-73.0,127.0,127.0,127.0,114.0,87.0,-94.0
129.0,130.0,120.0,127.0,126.0,128.0,128.0,129.0,22.0,-105.0,-73.0,127.0,127.0,127.0,114.0,87.0,-94.0
129.0,130.0,120.0,127.0,126.0,127.0,128.0,129.0,22.0,-105.0,-73.0,127.0,127.0,127.0,114.0,87.0,-94.0
129.0,130.0,120.0,127.0,126.0,127.0,128.0,129.0,22.0,-105.0,-73.0,127.0,127.0,127.0,114.0,87.0,-94.0
129.0,130.0,120.0,127.0,126.0,127.0,128.0,129.0,22.0,-105.0,-73.0,127.0,127.0,127.0,114.0,87.0,-94.0
129.0,130.0,120.0,127.0,126.0,127.0,128.0,129.0,22.0,-105.0,-73.0,127.0,127.0,127.0,114.0,87.0,-94.0
129.0,130.0,120.0,127.0,126.0,126.0,128.0,129.0,22.0,-105.0,-73.0,127.0,127.0,127.0,114.0,87.0,-94.0
129.0,129.0,120.0,127.0,126.0,126.0,128.0,129.0,22.0,-105.0,-73.0,127.0,127.0,127.0,114.0,87.0,-94.0
131.0,127.0,113.0,126.0,126.0,123.0,127.0,130.0,22.0,-105.0,-73.0,127.0,127.0,127.0,114.0,87.0,-94.0
131.0,128.0,109.0,126.0,126.0,125.0,127.0,131.0,22.0,-105.0,-73.0,127.0,127.0,127.0,114.0,87.0,-94.0
131.0,128.0,109.0,126.0,126.0,125.0,127.0,130.0,22.0,-105.0,-73.0,127.0,127.0,127.0,114.0,87.0,-94.0
131.0,128.0,109.0,126.0,126.0,125.0,127.0,130.0,22.0,-105.0,-73.0,127.0,127.0,127.0,114.0,87.0,-94.0
131.0,128.0,109.0,126.0,126.0,124.0,127.0,130.0,22.0,-105.0,-73.0,127.0,127.0,127.0,114.0,87.0,-94.0
131.0,128.0,109.0,126.0,126.0,124.0,127.0,130.0,22.0,-105.0,-73.0,127.0,127.0,127.0,114.0,87.0,-94.0
131.0,127.0,110.0,126.0,126.0,124.0,127.0,130.0,22.0,-105.0,-73.0,127.0,127.0,127.0,114.0,87.0,-94.0
131.0,127.0,111.0,126.0,126.0,124.0,127.0,130.0,22.0,-105.0,-73.0,127.0,127.0,127.0,114.0,87.0,-94.0
131.0,127.0,112.0,126.0,126.0,123.0,127.0,130.0,22.0,-105.0,-73.0,127.0,127.0,127.0,114.0,87.0,-94.0
131.0,127.0,112.0,126.0,126.0,123.0,127.0,130.0,22.0,-105.0,-73.0,127.0,127.0,127.0,114.0,87.0,-94.0
130.0,125.0,116.0,126.0,127.0,123.0,127.0,129.0,22.0,-105.0,-72.0,127.0,127.0,127.0,114.0,87.0,-94.0
129.0,125.0,116.0,125.0,127.0,123.0,127.0,128.0,22.0,-105.0,-72.0,127.0,127.0,127.0,114.0,87.0,-94.0
129.0,125.0,116.0,125.0,127.0,123.0,127.0,128.0,22.0,-105.0,-72.0,127.0,127.0,127.0,114.0,87.0,-94.0
129.0,125.0,116.0,125.0,127.0,122.0,127.0,128.0,22.0,-105.0,-72.0,127.0,127.0,127.0,114.0,87.0,-94.0
129.0,125.0,116.0,125.0,126.0,122.0,127.0,128.0,22.0,-105.0,-72.0,127.0,127.0,127.0,114.0,87.0,-94.0
129.0,124.0,116.0,125.0,126.0,122.0,126.0,128.0,22.0,-105.0,-72.0,127.0,127.0,127.0,114.0,87.0,-94.0
129.0,124.0,117.0,126.0,126.0,122.0,126.0,128.0,22.0,-105.0,-72.0,127.0,127.0,127.0,114.0,87.0,-94.0
129.0,124.0,117.0,126.0,126.0,121.0,126.0,127.0,22.0,-105.0,-72.0,127.0,127.0,127.0,114.0,87.0,-94.0
128.0,124.0,117.0,126.0,126.0,121.0,126.0,127.0,22.0,-105.0,-72.0,127.0,127.0,127.0,114.0,87.0,-94.0
128.0,124.0,118.0,126.0,126.0,121.0,126.0,127.0,22.0,-105.0,-72.0,127.0,127.0,127.0,114.0,87.0,-94.0
126.0,125.0,126.0,127.0,127.0,121.0,126.0,127.0,23.0,-105.0,-71.0,127.0,127.0,127.0,114.0,87.0,-94.0
126.0,125.0,126.0,127.0,127.0,121.0,126.0,127.0,23.0,-105.0,-71.0,127.0,127.0,127.0,114.0,87.0,-94.0
126.0,125.0,126.0,127.0,127.0,121.0,127.0,127.0,23.0,-105.0,-71.0,127.0,127.0,127.0,114.0,87.0,-94.0
126.0,125.0,127.0,127.0,127.0,121.0,126.0,127.0,23.0,-105.0,-71.0,127.0,127.0,127.0,114.0,87.0,-94.0
126.0,125.0,127.0,127.0,127.0,121.0,126.0,127.0,23.0,-105.0,-71.0,127.0,127.0,127.0,114.0,87.0,-94.0
126.0,125.0,127.0,127.0,127.0,121.0,126.0,126.0,23.0,-105.0,-71.0,127.0,127.0,127.0,114.0,87.0,-94.0
126.0,125.0,127.0,126.0,127.0,120.0,126.0,126.0,23.0,-105.0,-71.0,127.0,127.0,127.0,114.0,87.0,-94.0
125.0,125.0,127.0,126.0,127.0,120.0,126.0,126.0,23.0,-105.0,-71.0,127.0,127.0,127.0,114.0,87.0,-94.0
125.0,124.0,127.0,126.0,127.0,120.0,126.0,126.0,23.0,-105.0,-71.0,127.0,127.0,127.0,114.0,87.0,-94.0
126.0,125.0,126.0,127.0,127.0,122.0,127.0,127.0,23.0,-105.0,-71.0,127.0,127.0,127.0,114.0,87.0,-94.0
126.0,124.0,134.0,126.0,126.0,119.0,125.0,126.0,24.0,-106.0,-71.0,127.0,127.0,127.0,114.0,87.0,-94.0
126.0,124.0,135.0,126.0,126.0,119.0,125.0,126.0,24.0,-106.0,-71.0,127.0,127.0,127.0,114.0,87.0,-94.0
126.0,123.0,135.0,126.0,126.0,119.0,125.0,126.0,24.0,-106.0,-71.0,127.0,127.0,127.0,114.0,87.0,-94.0
126.0,124.0,135.0,126.0,126.0,119.0,125.0,126.0,24.0,-106.0,-71.0,127.0,127.0,127.0,114.0,87.0,-94.0
127.0,123.0,135.0,126.0,126.0,119.0,125.0,126.0,24.0,-106.0,-71.0,127.0,127.0,127.0,114.0,87.0,-94.0
127.0,123.0,135.0,126.0,126.0,118.0,125.0,126.0,24.0,-106.0,-71.0,127.0,127.0,127.0,114.0,87.0,-94.0
127.0,123.0,136.0,126.0,126.0,118.0,125.0,126.0,24.0,-106.0,-71.0,127.0,127.0,127.0,114.0,87.0,-94.0
127.0,123.0,136.0,126.0,126.0,118.0,125.0,126.0,24.0,-106.0,-71.0,127.0,127.0,127.0,114.0,87.0,-94.0
126.0,124.0,134.0,126.0,126.0,119.0,125.0,126.0,24.0,-106.0,-71.0,127.0,127.0,127.0,114.0,87.0,-94.0
126.0,124.0,134.0,126.0,126.0,119.0,125.0,126.0,24.0,-106.0,-71.0,127.0,127.0,127.0,114.0,87.0,-94.0
128.0,126.0,136.0,127.0,127.0,115.0,126.0,127.0,25.0,-106.0,-70.0,127.0,127.0,127.0,114.0,87.0,-94.0
128.0,126.0,136.0,127.0,127.0,115.0,126.0,127.0,25.0,-106.0,-70.0,127.0,127.0,127.0,114.0,87.0,-94.0
128.0,126.0,136.0,127.0,127.0,114.0,126.0,127.0,25.0,-106.0,-70.0,127.0,127.0,127.0,114.0,87.0,-94.0
128.0,126.0,136.0,127.0,127.0,114.0,126.0,127.0,25.0,-106.0,-70.0,127.0,127.0,127.0,114.0,87.0,-94.0
128.0,126.0,136.0,127.0,127.0,113.0,126.0,127.0,25.0,-106.0,-70.0,127.0,127.0,127.0,114.0,87.0,-94.0
128.0,125.0,136.0,127.0,127.0,113.0,126.0,127.0,25.0,-106.0,-70.0,127.0,127.0,127.0,114.0,87.0,-94.0
128.0,125.0,136.0,127.0,127.0,112.0,126.0,127.0,25.0,-106.0,-70.0,127.0,127.0,127.0,114.0,87.0,-94.0
128.0,126.0,136.0,127.0,127.0,115.0,126.0,127.0,25.0,-106.0,-70.0,127.0,127.0,127.0,114.0,87.0,-94.0
128.0,126.0,136.0,127.0,127.0,115.0,126.0,127.0,25.0,-106.0,-70.0,127.0,127.0,127.0,114.0,87.0,-94.0
128.0,126.0,136.0,127.0,127.0,115.0,126.0,127.0,25.0,-106.0,-70.0,127.0,127.0,127.0,114.0,87.0,-94.0
128.0,127.0,134.0,127.0,127.0,110.0,126.0,128.0,25.0,-107.0,-71.0,127.0,127.0,127.0,114.0,87.0,-94.0
128.0,127.0,134.0,127.0,127.0,110.0,126.0,128.0,25.0,-107.0,-71.0,127.0,127.0,127.0,114.0,87.0,-94.0
129.0,127.0,134.0,127.0,127.0,110.0,126.0,128.0,25.0,-107.0,-71.0,127.0,127.0,127.0,114.0,87.0,-94.0
129.0,127.0,134.0,127.0,127.0,110.0,126.0,128.0,25.0,-107.0,-71.0,127.0,127.0,127.0,114.0,87.0,-94.0
129.0,126.0,134.0,127.0,127.0,110.0,126.0,128.0,25.0,-107.0,-71.0,127.0,127.0,127.0,114.0,87.0,-94.0
129.0,127.0,134.0,127.0,127.0,110.0,126.0,128.0,25.0,-107.0,-71.0,127.0,127.0,127.0,114.0,87.0,-94.0
128.0,127.0,134.0,127.0,127.0,111.0,126.0,128.0,25.0,-107.0,-71.0,127.0,127.0,127.0,114.0,87.0,-94.0
129.0,127.0,134.0,127.0,127.0,111.0,126.0,128.0,25.0,-107.0,-71.0,127.0,127.0,127.0,114.0,87.0,-94.0
129.0,127.0,134.0,127.0,127.0,111.0,126.0,128.0,25.0,-107.0,-71.0,127.0,127.0,127.0,114.0,87.0,-94.0
128.0,127.0,134.0,127.0,127.0,111.0,126.0,128.0,25.0,-107.0,-71.0,127.0,127.0,127.0,114.0,87.0,-94.0
128.0,130.0,131.0,127.0,127.0,115.0,126.0,128.0,24.0,-108.0,-71.0,127.0,126.0,127.0,114.0,87.0,-94.0
128.0,130.0,131.0,127.0,127.0,115.0,126.0,128.0,24.0,-108.0,-71.0,127.0,126.0,127.0,114.0,87.0,-94.0
128.0,130.0,131.0,127.0,127.0,115.0,126.0,128.0,24.0,-108.0,-71.0,127.0,126.0,127.0,114.0,87.0,-94.0
128.0,130.0,131.0,127.0,127.0,114.0,126.0,128.0,24.0,-108.0,-71.0,127.0,126.0,127.0,114.0,87.0,-94.0
128.0,130.0,131.0,127.0,127.0,115.0,126.0,128.0,24.0,-108.0,-71.0,127.0,126.0,127.0,114.0,87.0,-94.0
128.0,130.0,131.0,128.0,127.0,115.0,126.0,128.0,24.0,-108.0,-71.0,127.0,126.0,127.0,114.0,87.0,-94.0
128.0,130.0,131.0,128.0,127.0,115.0,126.0,128.0,24.0,-108.0,-71.0,127.0,126.0,127.0,114.0,87.0,-94.0
128.0,130.0,131.0,128.0,127.0,115.0,126.0,128.0,24.0,-108.0,-71.0,127.0,126.0,127.0,114.0,87.0,-94.0
128.0,130.0,131.0,128.0,127.0,115.0,126.0,128.0,24.0,-108.0,-71.0,127.0,126.0,127.0,114.0,87.0,-94.0
128.0,130.0,131.0,128.0,127.0,115.0,126.0,128.0,24.0,-108.0,-71.0,127.0,126.0,127.0,114.0,87.0,-94.0
127.0,130.0,130.0,127.0,127.0,119.0,127.0,128.0,24.0,-108.0,-72.0,127.0,126.0,127.0,114.0,87.0,-94.0
127.0,130.0,130.0,127.0,127.0,118.0,127.0,128.0,24.0,-108.0,-72.0,127.0,126.0,127.0,114.0,87.0,-94.0
127.0,130.0,130.0,127.0,127.0,118.0,127.0,128.0,24.0,-108.0,-72.0,127.0,126.0,127.0,114.0,87.0,-94.0
127.0,130.0,130.0,127.0,127.0,118.0,127.0,128.0,24.0,-108.0,-72.0,127.0,126.0,127.0,114.0,87.0,-94.0
127.0,131.0,130.0,127.0,127.0,119.0,127.0,128.0,24.0,-108.0,-72.0,127.0,126.0,127.0,114.0,87.0,-94.0
127.0,131.0,130.0,127.0,127.0,119.0,127.0,128.0,24.0,-108.0,-72.0,127.0,126.0,127.0,114.0,87.0,-94.0
127.0,131.0,130.0,127.0,127.0,119.0,127.0,128.0,24.0,-108.0,-72.0,127.0,126.0,127.0,114.0,87.0,-94.0
127.0,131.0,130.0,127.0,127.0,119.0,127.0,128.0,24.0,-108.0,-72.0,127.0,126.0,127.0,114.0,87.0,-94.0
127.0,130.0,130.0,127.0,127.0,119.0,127.0,128.0,24.0,-108.0,-72.0,127.0,126.0,127.0,114.0,87.0,-94.0
127.0,130.0,130.0,127.0,127.0,119.0,127.0,128.0,24.0,-108.0,-72.0,127.0,126.0,127.0,114.0,87.0,-94.0
127.0,130.0,135.0,128.0,127.0,119.0,127.0,128.0,24.0,-108.0,-73.0,126.0,126.0,127.0,114.0,87.0,-94.0
127.0,130.0,135.0,128.0,127.0,118.0,127.0,128.0,24.0,-108.0,-73.0,126.0,126.0,127.0,114.0,87.0,-94.0
127.0,130.0,135.0,128.0,127.0,119.0,127.0,128.0,24.0,-108.0,-73.0,126.0,126.0,127.0,114.0,87.0,-94.0
127.0,131.0,135.0,128.0,127.0,120.0,127.0,128.0,24.0,-108.0,-73.0,126.0,126.0,127.0,114.0,87.0,-94.0
127.0,131.0,135.0,128.0,127.0,120.0,127.0,129.0,24.0,-108.0,-73.0,126.0,126.0,127.0,114.0,87.0,-94.0
127.0,131.0,135.0,128.0,127.0,120.0,127.0,128.0,24.0,-108.0,-73.0,126.0,126.0,127.0,114.0,87.0,-94.0
127.0,131.0,135.0,128.0,127.0,120.0,127.0,128.0,24.0,-108.0,-73.0,126.0,126.0,127.0,114.0,87.0,-94.0
127.0,131.0,135.0,128.0,127.0,119.0,127.0,128.0,24.0,-108.0,-73.0,126.0,126.0,127.0,114.0,87.0,-94.0
127.0,131.0,135.0,128.0,127.0,119.0,127.0,128.0,24.0,-108.0,-73.0,126.0,126.0,127.0,114.0,87.0,-94.0
127.0,130.0,135.0,128.0,127.0,119.0,127.0,128.0,24.0,-108.0,-73.0,126.0,126.0,127.0,114.0,87.0,-94.0
126.0,128.0,134.0,128.0,126.0,119.0,127.0,128.0,24.0,-108.0,-73.0,126.0,127.0,127.0,114.0,87.0,-94.0
126.0,128.0,134.0,128.0,127.0,118.0,127.0,128.0,24.0,-108.0,-73.0,126.0,127.0,127.0,114.0,87.0,-94.0
126.0,130.0,133.0,128.0,127.0,120.0,127.0,128.0,24.0,-108.0,-73.0,126.0,127.0,127.0,114.0,87.0,-94.0
126.0,130.0,133.0,128.0,127.0,120.0,127.0,128.0,24.0,-108.0,-73.0,126.0,127.0,127.0,114.0,87.0,-94.0
126.0,129.0,134.0,128.0,127.0,120.0,127.0,128.0,24.0,-108.0,-73.0,126.0,127.0,127.0,114.0,87.0,-94.0
126.0,129.0,134.0,128.0,127.0,120.0,127.0,128.0,24.0,-108.0,-73.0,126.0,127.0,127.0,114.0,87.0,-94.0
126.0,129.0,134.0,128.0,127.0,120.0,127.0,128.0,24.0,-108.0,-73.0,126.0,127.0,127.0,114.0,87.0,-94.0
126.0,129.0,134.0,128.0,127.0,119.0,127.0,128.0,24.0,-108.0,-73.0,126.0,127.0,127.0,114.0,87.0,-94.0
126.0,129.0,134.0,128.0,127.0,119.0,127.0,128.0,24.0,-108.0,-73.0,126.0,127.0,127.0,114.0,87.0,-94.0
126.0,129.0,134.0,128.0,127.0,119.0,127.0,128.0,24.0,-108.0,-73.0,126.0,127.0,127.0,114.0,87.0,-94.0
125.0,128.0,132.0,128.0,127.0,117.0,127.0,127.0,25.0,-108.0,-74.0,126.0,127.0,127.0,114.0,87.0,-94.0
125.0,129.0,131.0,128.0,127.0,119.0,127.0,127.0,25.0,-108.0,-74.0,126.0,127.0,127.0,114.0,87.0,-94.0
125.0,129.0,132.0,128.0,127.0,118.0,127.0,127.0,25.0,-108.0,-74.0,126.0,127.0,127.0,114.0,87.0,-94.0
125.0,129.0,132.0,128.0,127.0,118.0,127.0,127.0,25.0,-108.0,-74.0,126.0,127.0,127.0,114.0,87.0,-94.0
125.0,129.0,132.0,128.0,127.0,118.0,127.0,127.0,25.0,-108.0,-74.0,126.0,127.0,127.0,114.0,87.0,-94.0
125.0,129.0,132.0,128.0,127.0,118.0,127.0,127.0,25.0,-108.0,-74.0,126.0,127.0,127.0,114.0,87.0,-94.0
125.0,129.0,132.0,128.0,127.0,118.0,127.0,127.0,25.0,-108.0,-74.0,126.0,127.0,127.0,114.0,87.0,-94.0
125.0,129.0,132.0,128.0,127.0,117.0,127.0,127.0,25.0,-108.0,-74.0,126.0,127.0,127.0,114.0,87.0,-94.0
125.0,129.0,132.0,128.0,127.0,117.0,127.0,127.0,25.0,-108.0,-74.0,126.0,127.0,127.0,114.0,87.0,-94.0
125.0,128.0,132.0,128.0,127.0,117.0,127.0,127.0,25.0,-108.0,-74.0,126.0,127.0,127.0,114.0,87.0,-94.0
124.0,129.0,133.0,128.0,127.0,117.0,126.0,127.0,26.0,-109.0,-74.0,126.0,127.0,127.0,114.0,87.0,-94.0
124.0,129.0,133.0,128.0,127.0,117.0,126.0,127.0,26.0,-109.0,-74.0,126.0,127.0,127.0,114.0,87.0,-94.0
124.0,129.0,133.0,128.0,127.0,117.0,126.0,127.0,26.0,-109.0,-74.0,126.0,127.0,127.0,114.0,87.0,-94.0
124.0,129.0,133.0,128.0,127.0,117.0,126.0,127.0,26.0,-109.0,-74.0,126.0,127.0,127.0,114.0,87.0,-94.0
124.0,129.0,133.0,128.0,127.0,116.0,126.0,127.0,26.0,-109.0,-74.0,126.0,127.0,127.0,114.0,87.0,-94.0
124.0,129.0,133.0,128.0,127.0,116.0,126.0,127.0,26.0,-109.0,-74.0,126.0,127.0,127.0,114.0,87.0,-94.0
124.0,129.0,133.0,128.0,127.0,116.0,126.0,127.0,26.0,-109.0,-74.0,126.0,127.0,127.0,114.0,87.0,-94.0
124.0,129.0,133.0,128.0,127.0,116.0,126.0,127.0,26.0,-109.0,-74.0,126.0,127.0,127.0,114.0,87.0,-94.0
124.0,129.0,133.0,128.0,127.0,116.0,126.0,127.0,26.0,-109.0,-74.0,126.0,127.0,127.0,114.0,87.0,-94.0
124.0,129.0,133.0,128.0,127.0,116.0,126.0,127.0,26.0,-109.0,-74.0,126.0,127.0,127.0,114.0,87.0,-94.0
124.0,128.0,134.0,128.0,127.0,119.0,125.0,127.0,28.0,-110.0,-74.0,127.0,127.0,127.0,114.0,87.0,-94.0
124.0,128.0,134.0,128.0,127.0,120.0,125.0,127.0,28.0,-110.0,-74.0,127.0,127.0,127.0,114.0,87.0,-94.0
124.0,128.0,134.0,128.0,127.0,119.0,125.0,127.0,28.0,-110.0,-74.0,127.0,127.0,127.0,114.0,87.0,-94.0
124.0,128.0,134.0,128.0,127.0,119.0,125.0,127.0,28.0,-110.0,-74.0,127.0,127.0,127.0,114.0,87.0,-94.0
124.0,128.0,134.0,128.0,127.0,119.0,125.0,127.0,28.0,-110.0,-74.0,127.0,127.0,127.0,114.0,87.0,-94.0
124.0,127.0,134.0,128.0,127.0,119.0,125.0,127.0,28.0,-110.0,-74.0,127.0,127.0,127.0,114.0,87.0,-94.0
124.0,127.0,134.0,128.0,127.0,119.0,126.0,127.0,28.0,-110.0,-74.0,127.0,127.0,127.0,114.0,87.0,-94.0
124.0,127.0,135.0,128.0,127.0,118.0,125.0,127.0,28.0,-110.0,-74.0,127.0,127.0,127.0,114.0,87.0,-94.0
124.0,127.0,135.0,128.0,127.0,118.0,126.0,127.0,28.0,-110.0,-74.0,127.0,127.0,127.0,114.0,87.0,-94.0
124.0,128.0,134.0,128.0,127.0,120.0,125.0,127.0,28.0,-110.0,-74.0,127.0,127.0,127.0,114.0,87.0,-94.0
126.0,126.0,130.0,127.0,127.0,116.0,126.0,127.0,28.0,-111.0,-73.0,127.0,127.0,127.0,114.0,87.0,-94.0
126.0,126.0,130.0,127.0,127.0,116.0,126.0,127.0,28.0,-111.0,-73.0,127.0,127.0,127.0,114.0,87.0,-94.0
126.0,126.0,130.0,127.0,127.0,116.0,126.0,127.0,28.0,-111.0,-73.0,127.0,127.0,127.0,114.0,87.0,-94.0
126.0,126.0,130.0,127.0,127.0,115.0,126.0,127.0,28.0,-111.0,-73.0,127.0,127.0,127.0,114.0,87.0,-94.0
126.0,126.0,130.0,127.0,127.0,115.0,126.0,127.0,28.0,-111.0,-73.0,127.0,127.0,127.0,114.0,87.0,-94.0
126.0,126.0,130.0,127.0,127.0,115.0,126.0,127.0,28.0,-111.0,-73.0,127.0,127.0,127.0,114.0,87.0,-94.0
126.0,126.0,130.0,127.0,127.0,114.0,126.0,127.0,28.0,-111.0,-73.0,127.0,127.0,127.0,114.0,87.0,-94.0
126.0,125.0,130.0,127.0,127.0,114.0,126.0,127.0,28.0,-111.0,-73.0,127.0,127.0,127.0,114.0,87.0,-94.0
126.0,127.0,130.0,127.0,127.0,117.0,126.0,127.0,28.0,-111.0,-73.0,127.0,127.0,127.0,114.0,87.0,-94.0
126.0,126.0,130.0,127.0,127.0,116.0,126.0,127.0,28.0,-111.0,-73.0,127.0,127.0,127.0,114.0,87.0,-94.0
127.0,126.0,129.0,128.0,127.0,111.0,126.0,128.0,28.0,-111.0,-73.0,127.0,127.0,127.0,114.0,87.0,-94.0
127.0,126.0,129.0,128.0,127.0,111.0,126.0,128.0,28.0,-111.0,-73.0,127.0,127.0,127.0,114.0,87.0,-94.0
127.0,126.0,129.0,128.0,127.0,111.0,126.0,128.0,28.0,-111.0,-73.0,127.0,127.0,127.0,114.0,87.0,-94.0
127.0,126.0,129.0,128.0,127.0,110.0,126.0,128.0,28.0,-111.0,-73.0,127.0,127.0,127.0,114.0,87.0,-94.0
127.0,126.0,129.0,128.0,127.0,110.0,126.0,128.0,28.0,-111.0,-73.0,127.0,127.0,127.0,114.0,87.0,-94.0
127.0,125.0,129.0,128.0,127.0,110.0,126.0,128.0,28.0,-111.0,-73.0,127.0,127.0,127.0,114.0,87.0,-94.0
127.0,125.0,129.0,128.0,127.0,110.0,126.0,128.0,28.0,-111.0,-73.0,127.0,127.0,127.0,114.0,87.0,-94.0
127.0,126.0,130.0,128.0,127.0,111.0,125.0,128.0,28.0,-111.0,-73.0,127.0,127.0,127.0,114.0,87.0,-94.0
127.0,126.0,130.0,128.0,127.0,111.0,125.0,128.0,28.0,-111.0,-73.0,127.0,127.0,127.0,114.0,87.0,-94.0
127.0,126.0,130.0,128.0,127.0,111.0,125.0,128.0,28.0,-111.0,-73.0,127.0,127.0,127.0,114.0,87.0,-94.0
127.0,127.0,123.0,126.0,126.0,116.0,126.0,128.0,27.0,-111.0,-73.0,127.0,127.0,127.0,114.0,87.0,-94.0
127.0,126.0,123.0,126.0,126.0,116.0,126.0,128.0,27.0,-111.0,-73.0,127.0,127.0,127.0,114.0,87.0,-94.0
127.0,126.0,123.0,126.0,126.0,116.0,126.0,128.0,27.0,-111.0,-73.0,127.0,127.0,127.0,114.0,87.0,-94.0
127.0,126.0,123.0,126.0,126.0,116.0,126.0,128.0,27.0,-111.0,-73.0,127.0,127.0,127.0,114.0,87.0,-94.0
127.0,126.0,123.0,127.0,126.0,115.0,127.0,128.0,27.0,-111.0,-73.0,127.0,127.0,127.0,114.0,87.0,-94.0
127.0,126.0,123.0,127.0,126.0,115.0,126.0,128.0,27.0,-111.0,-73.0,127.0,127.0,127.0,114.0,87.0,-94.0
127.0,127.0,123.0,127.0,126.0,116.0,126.0,128.0,27.0,-111.0,-73.0,127.0,127.0,127.0,114.0,87.0,-94.0
127.0,127.0,123.0,127.0,126.0,116.0,126.0,128.0,27.0,-111.0,-73.0,127.0,127.0,127.0,114.0,87.0,-94.0
127.0,127.0,123.0,127.0,126.0,116.0,126.0,128.0,27.0,-111.0,-73.0,127.0,127.0,127.0,114.0,87.0,-94.0
127.0,127.0,123.0,126.0,126.0,116.0,126.0,128.0,27.0,-111.0,-73.0,127.0,127.0,127.0,114.0,87.0,-94.0
127.0,129.0,119.0,128.0,127.0,121.0,128.0,128.0,26.0,-110.0,-73.0,127.0,127.0,127.0,114.0,87.0,-94.0
127.0,129.0,119.0,128.0,127.0,121.0,128.0,128.0,26.0,-110.0,-73.0,127.0,127.0,127.0,114.0,87.0,-94.0
127.0,129.0,119.0,128.0,127.0,121.0,128.0,128.0,26.0,-110.0,-73.0,127.0,127.0,127.0,114.0,87.0,-94.0
127.0,129.0,120.0,128.0,127.0,121.0,128.0,128.0,26.0,-110.0,-73.0,127.0,127.0,127.0,114.0,87.0,-94.0
127.0,129.0,119.0,127.0,127.0,121.0,127.0,128.0,26.0,-110.0,-73.0,127.0,127.0,127.0,114.0,87.0,-94.0
127.0,129.0,119.0,127.0,127.0,122.0,127.0,128.0,26.0,-110.0,-73.0,127.0,127.0,127.0,114.0,87.0,-94.0
127.0,129.0,119.0,127.0,127.0,122.0,127.0,128.0,26.0,-110.0,-73.0,127.0,127.0,127.0,114.0,87.0,-94.0
127.0,129.0,119.0,128.0,127.0,122.0,127.0,128.0,26.0,-110.0,-73.0,127.0,127.0,127.0,114.0,87.0,-94.0
127.0,129.0,119.0,128.0,127.0,122.0,128.0,128.0,26.0,-110.0,-73.0,127.0,127.0,127.0,114.0,87.0,-94.0
127.0,129.0,119.0,128.0,127.0,122.0,128.0,128.0,26.0,-110.0,-73.0,127.0,127.0,127.0,114.0,87.0,-94.0
125.0,128.0,122.0,127.0,127.0,122.0,128.0,128.0,25.0,-109.0,-73.0,127.0,127.0,127.0,114.0,87.0,-94.0
125.0,128.0,122.0,127.0,127.0,121.0,128.0,128.0,25.0,-109.0,-73.0,127.0,127.0,127.0,114.0,87.0,-94.0
125.0,127.0,122.0,127.0,127.0,121.0,128.0,128.0,25.0,-109.0,-73.0,127.0,127.0,127.0,114.0,87.0,-94.0
125.0,127.0,122.0,127.0,126.0,121.0,128.0,128.0,25.0,-109.0,-73.0,127.0,127.0,127.0,114.0,87.0,-94.0
125.0,128.0,122.0,127.0,127.0,122.0,128.0,128.0,25.0,-109.0,-73.0,127.0,127.0,127.0,114.0,87.0,-94.0
125.0,128.0,122.0,127.0,127.0,123.0,128.0,128.0,25.0,-109.0,-73.0,127.0,127.0,127.0,114.0,87.0,-94.0
125.0,128.0,122.0,128.0,127.0,122.0,128.0,128.0,25.0,-109.0,-73.0,127.0,127.0,127.0,114.0,87.0,-94.0
125.0,128.0,122.0,127.0,127.0,122.0,128.0,128.0,25.0,-109.0,-73.0,127.0,127.0,127.0,114.0,87.0,-94.0
125.0,128.0,122.0,127.0,127.0,122.0,128.0,128.0,25.0,-109.0,-73.0,127.0,127.0,127.0,114.0,87.0,-94.0
125.0,128.0,122.0,127.0,127.0,122.0,128.0,128.0,25.0,-109.0,-73.0,127.0,127.0,127.0,114.0,87.0,-94.0
126.0,127.0,125.0,128.0,127.0,122.0,128.0,129.0,25.0,-108.0,-72.0,127.0,127.0,127.0,114.0,87.0,-94.0
127.0,127.0,125.0,127.0,127.0,121.0,128.0,129.0,25.0,-108.0,-72.0,127.0,127.0,127.0,114.0,87.0,-94.0
126.0,128.0,124.0,128.0,127.0,121.0,128.0,129.0,25.0,-108.0,-72.0,127.0,127.0,127.0,114.0,87.0,-94.0
126.0,128.0,124.0,128.0,127.0,122.0,128.0,129.0,25.0,-108.0,-72.0,127.0,127.0,127.0,114.0,87.0,-94.0
126.0,128.0,124.0,128.0,127.0,123.0,128.0,129.0,25.0,-108.0,-72.0,127.0,127.0,127.0,114.0,87.0,-94.0
126.0,128.0,124.0,128.0,127.0,122.0,128.0,129.0,25.0,-108.0,-72.0,127.0,127.0,127.0,114.0,87.0,-94.0
126.0,128.0,124.0,128.0,127.0,122.0,128.0,129.0,25.0,-108.0,-72.0,127.0,127.0,127.0,114.0,87.0,-94.0
126.0,128.0,124.0,128.0,127.0,122.0,128.0,129.0,25.0,-108.0,-72.0,127.0,127.0,127.0,114.0,87.0,-94.0
126.0,128.0,124.0,128.0,127.0,122.0,128.0,129.0,25.0,-108.0,-72.0,127.0,127.0,127.0,114.0,87.0,-94.0
126.0,127.0,124.0,128.0,127.0,122.0,128.0,129.0,25.0,-108.0,-72.0,127.0,127.0,127.0,114.0,87.0,-94.0
127.0,126.0,124.0,127.0,126.0,121.0,128.0,129.0,25.0,-108.0,-72.0,127.0,127.0,127.0,114.0,87.0,-94.0
127.0,126.0,124.0,127.0,127.0,121.0,128.0,129.0,25.0,-108.0,-72.0,127.0,127.0,127.0,114.0,87.0,-94.0
126.0,126.0,124.0,127.0,127.0,122.0,128.0,129.0,25.0,-108.0,-72.0,127.0,127.0,127.0,114.0,87.0,-94.0
126.0,127.0,123.0,127.0,127.0,122.0,128.0,129.0,25.0,-108.0,-72.0,127.0,127.0,127.0,114.0,87.0,-94.0
126.0,127.0,124.0,127.0,127.0,122.0,128.0,129.0,25.0,-108.0,-72.0,127.0,127.0,127.0,114.0,87.0,-94.0
126.0,127.0,124.0,127.0,127.0,122.0,128.0,129.0,25.0,-108.0,-72.0,127.0,127.0,127.0,114.0,87.0,-94.0
126.0,127.0,124.0,127.0,127.0,122.0,128.0,129.0,25.0,-108.0,-72.0,127.0,127.0,127.0,114.0,87.0,-94.0
127.0,127.0,124.0,127.0,127.0,122.0,128.0,129.0,25.0,-108.0,-72.0,127.0,127.0,127.0,114.0,87.0,-94.0
127.0,127.0,124.0,127.0,127.0,121.0,128.0,129.0,25.0,-108.0,-72.0,127.0,127.0,127.0,114.0,87.0,-94.0
127.0,126.0,124.0,127.0,126.0,121.0,128.0,129.0,25.0,-108.0,-72.0,127.0,127.0,127.0,114.0,87.0,-94.0
126.0,126.0,126.0,127.0,127.0,120.0,127.0,128.0,25.0,-108.0,-71.0,127.0,127.0,127.0,114.0,87.0,-94.0
126.0,126.0,126.0,127.0,127.0,120.0,127.0,128.0,25.0,-108.0,-71.0,127.0,127.0,127.0,114.0,87.0,-94.0
126.0,126.0,126.0,127.0,127.0,120.0,127.0,128.0,25.0,-108.0,-71.0,127.0,127.0,127.0,114.0,87.0,-94.0
126.0,126.0,126.0,127.0,127.0,120.0,127.0,128.0,25.0,-108.0,-71.0,127.0,127.0,127.0,114.0,87.0,-94.0
125.0,126.0,126.0,127.0,127.0,120.0,127.0,128.0,25.0,-108.0,-71.0,127.0,127.0,127.0,114.0,87.0,-94.0
125.0,127.0,125.0,127.0,127.0,122.0,126.0,128.0,25.0,-108.0,-71.0,127.0,127.0,127.0,114.0,87.0,-94.0
126.0,127.0,125.0,127.0,127.0,122.0,126.0,128.0,25.0,-108.0,-71.0,127.0,127.0,127.0,114.0,87.0,-94.0
126.0,126.0,125.0,127.0,127.0,121.0,126.0,128.0,25.0,-108.0,-71.0,127.0,127.0,127.0,114.0,87.0,-94.0
126.0,126.0,126.0,127.0,127.0,121.0,126.0,128.0,25.0,-108.0,-71.0,127.0,127.0,127.0,114.0,87.0,-94.0
126.0,126.0,126.0,127.0,127.0,121.0,126.0,128.0,25.0,-108.0,-71.0,127.0,127.0,127.0,114.0,87.0,-94.0
126.0,125.0,126.0,127.0,127.0,122.0,126.0,128.0,26.0,-108.0,-71.0,127.0,127.0,127.0,114.0,87.0,-94.0
126.0,125.0,126.0,127.0,127.0,122.0,126.0,128.0,26.0,-108.0,-71.0,127.0,127.0,127.0,114.0,87.0,-94.0
127.0,125.0,126.0,127.0,127.0,122.0,126.0,128.0,26.0,-108.0,-71.0,127.0,127.0,127.0,114.0,87.0,-94.0
127.0,125.0,126.0,127.0,127.0,121.0,126.0,128.0,26.0,-108.0,-71.0,127.0,127.0,127.0,114.0,87.0,-94.0
127.0,125.0,127.0,127.0,126.0,121.0,126.0,128.0,26.0,-108.0,-71.0,127.0,127.0,127.0,114.0,87.0,-94.0
127.0,125.0,127.0,127.0,126.0,121.0,126.0,129.0,26.0,-108.0,-71.0,127.0,127.0,127.0,114.0,87.0,-94.0
127.0,125.0,127.0,127.0,126.0,121.0,126.0,128.0,26.0,-108.0,-71.0,127.0,127.0,127.0,114.0,87.0,-94.0
127.0,125.0,127.0,127.0,126.0,120.0,126.0,128.0,26.0,-108.0,-71.0,127.0,127.0,127.0,114.0,87.0,-94.0
127.0,125.0,127.0,127.0,126.0,120.0,126.0,128.0,26.0,-108.0,-71.0,127.0,127.0,127.0,114.0,87.0,-94.0
126.0,126.0,126.0,127.0,127.0,122.0,126.0,128.0,26.0,-108.0,-71.0,127.0,127.0,127.0,114.0,87.0,-94.0
127.0,124.0,128.0,127.0,127.0,120.0,126.0,128.0,26.0,-109.0,-70.0,127.0,127.0,127.0,114.0,87.0,-94.0
127.0,124.0,128.0,127.0,127.0,120.0,126.0,128.0,26.0,-109.0,-70.0,127.0,127.0,127.0,114.0,87.0,-94.0
127.0,124.0,128.0,127.0,127.0,120.0,126.0,128.0,26.0,-109.0,-70.0,127.0,127.0,127.0,114.0,87.0,-94.0
127.0,123.0,128.0,127.0,127.0,120.0,126.0,128.0,26.0,-109.0,-70.0,127.0,127.0,127.0,114.0,87.0,-94.0
127.0,123.0,128.0,127.0,127.0,119.0,126.0,128.0,26.0,-109.0,-70.0,127.0,127.0,127.0,114.0,87.0,-94.0
127.0,123.0,128.0,127.0,127.0,119.0,126.0,128.0,26.0,-109.0,-70.0,127.0,127.0,127.0,114.0,87.0,-94.0
127.0,123.0,128.0,127.0,127.0,119.0,126.0,128.0,26.0,-109.0,-70.0,127.0,127.0,127.0,114.0,87.0,-94.0
127.0,123.0,129.0,127.0,127.0,119.0,126.0,128.0,26.0,-109.0,-70.0,127.0,127.0,127.0,114.0,87.0,-94.0
127.0,124.0,128.0,127.0,127.0,121.0,126.0,128.0,26.0,-109.0,-70.0,127.0,127.0,127.0,114.0,87.0,-94.0
127.0,124.0,128.0,127.0,127.0,121.0,126.0,128.0,26.0,-109.0,-70.0,127.0,127.0,127.0,114.0,87.0,-94.0
127.0,123.0,128.0,127.0,127.0,118.0,126.0,128.0,26.0,-109.0,-70.0,127.0,127.0,127.0,114.0,87.0,-94.0
127.0,123.0,128.0,127.0,127.0,118.0,126.0,128.0,26.0,-109.0,-70.0,127.0,127.0,127.0,114.0,87.0,-94.0
127.0,123.0,128.0,127.0,127.0,118.0,126.0,128.0,26.0,-109.0,-70.0,127.0,127.0,127.0,114.0,87.0,-94.0
127.0,123.0,128.0,127.0,127.0,118.0,126.0,128.0,26.0,-109.0,-70.0,127.0,127.0,127.0,114.0,87.0,-94.0
127.0,123.0,128.0,127.0,127.0,117.0,126.0,128.0,26.0,-109.0,-70.0,127.0,127.0,127.0,114.0,87.0,-94.0
127.0,123.0,128.0,127.0,127.0,117.0,126.0,128.0,26.0,-109.0,-70.0,127.0,127.0,127.0,114.0,87.0,-94.0
127.0,123.0,128.0,127.0,127.0,117.0,126.0,128.0,26.0,-109.0,-70.0,127.0,127.0,127.0,114.0,87.0,-94.0
127.0,123.0,128.0,127.0,127.0,119.0,126.0,128.0,26.0,-109.0,-70.0,127.0,127.0,127.0,114.0,87.0,-94.0
127.0,123.0,128.0,127.0,127.0,119.0,126.0,128.0,26.0,-109.0,-70.0,127.0,127.0,127.0,114.0,87.0,-94.0
127.0,123.0,128.0,127.0,127.0,118.0,126.0,128.0,26.0,-109.0,-70.0,127.0,127.0,127.0,114.0,87.0,-94.0
127.0,125.0,126.0,127.0,127.0,121.0,127.0,128.0,25.0,-109.0,-70.0,127.0,127.0,127.0,114.0,87.0,-94.0
127.0,125.0,126.0,127.0,127.0,121.0,127.0,128.0,25.0,-109.0,-70.0,127.0,127.0,127.0,114.0,87.0,-94.0
127.0,125.0,126.0,127.0,127.0,121.0,127.0,128.0,25.0,-109.0,-70.0,127.0,127.0,127.0,114.0,87.0,-94.0
127.0,125.0,126.0,127.0,127.0,121.0,127.0,128.0,25.0,-109.0,-70.0,127.0,127.0,127.0,114.0,87.0,-94.0
127.0,125.0,126.0,127.0,127.0,121.0,127.0,128.0,25.0,-109.0,-70.0,127.0,127.0,127.0,114.0,87.0,-94.0
127.0,124.0,126.0,127.0,127.0,120.0,127.0,128.0,25.0,-109.0,-70.0,127.0,127.0,127.0,114.0,87.0,-94.0
127.0,125.0,126.0,127.0,127.0,122.0,126.0,128.0,25.0,-109.0,-70.0,127.0,127.0,127.0,114.0,87.0,-94.0
127.0,125.0,126.0,127.0,127.0,122.0,126.0,128.0,25.0,-109.0,-70.0,127.0,127.0,127.0,114.0,87.0,-94.0
127.0,125.0,126.0,127.0,127.0,121.0,126.0,128.0,25.0,-109.0,-70.0,127.0,127.0,127.0,114.0,87.0,-94.0
127.0,125.0,126.0,127.0,127.0,121.0,126.0,128.0,25.0,-109.0,-70.0,127.0,127.0,127.0,114.0,87.0,-94.0
126.0,128.0,124.0,127.0,127.0,123.0,127.0,127.0,24.0,-109.0,-70.0,127.0,127.0,127.0,114.0,87.0,-94.0
126.0,128.0,124.0,127.0,127.0,122.0,127.0,127.0,24.0,-109.0,-70.0,127.0,127.0,127.0,114.0,87.0,-94.0
126.0,128.0,124.0,127.0,127.0,122.0,127.0,127.0,24.0,-109.0,-70.0,127.0,127.0,127.0,114.0,87.0,-94.0
126.0,128.0,124.0,127.0,127.0,122.0,127.0,127.0,24.0,-109.0,-70.0,127.0,127.0,127.0,114.0,87.0,-94.0
126.0,128.0,124.0,127.0,127.0,122.0,127.0,127.0,24.0,-109.0,-70.0,127.0,127.0,127.0,114.0,87.0,-94.0
126.0,128.0,124.0,127.0,127.0,123.0,127.0,127.0,24.0,-109.0,-70.0,127.0,127.0,127.0,114.0,87.0,-94.0
126.0,128.0,124.0,127.0,127.0,123.0,127.0,127.0,24.0,-109.0,-70.0,127.0,127.0,127.0,114.0,87.0,-94.0
126.0,128.0,124.0,127.0,127.0,123.0,127.0,127.0,24.0,-109.0,-70.0,127.0,127.0,127.0,114.0,87.0,-94.0
126.0,128.0,124.0,127.0,127.0,123.0,127.0,127.0,24.0,-109.0,-70.0,127.0,127.0,127.0,114.0,87.0,-94.0
126.0,128.0,124.0,127.0,127.0,123.0,127.0,127.0,24.0,-109.0,-70.0,127.0,127.0,127.0,114.0,87.0,-94.0
126.0,128.0,124.0,128.0,127.0,122.0,127.0,128.0,23.0,-108.0,-71.0,127.0,127.0,127.0,114.0,87.0,-94.0
126.0,128.0,124.0,127.0,127.0,122.0,127.0,128.0,23.0,-108.0,-71.0,127.0,127.0,127.0,114.0,87.0,-94.0
126.0,128.0,124.0,127.0,127.0,121.0,127.0,128.0,23.0,-108.0,-71.0,127.0,127.0,127.0,114.0,87.0,-94.0
126.0,127.0,124.0,128.0,127.0,121.0,127.0,128.0,23.0,-108.0,-71.0,127.0,127.0,127.0,114.0,87.0,-94.0
125.0,128.0,123.0,127.0,127.0,123.0,127.0,128.0,23.0,-108.0,-71.0,127.0,127.0,127.0,114.0,87.0,-94.0
125.0,128.0,123.0,127.0,127.0,123.0,127.0,128.0,23.0,-108.0,-71.0,127.0,127.0,127.0,114.0,87.0,-94.0
125.0,128.0,123.0,127.0,127.0,122.0,127.0,128.0,23.0,-108.0,-71.0,127.0,127.0,127.0,114.0,87.0,-94.0
126.0,128.0,123.0,127.0,127.0,122.0,127.0,128.0,23.0,-108.0,-71.0,127.0,127.0,127.0,114.0,87.0,-94.0
126.0,128.0,123.0,127.0,127.0,122.0,127.0,128.0,23.0,-108.0,-71.0,127.0,127.0,127.0,114.0,87.0,-94.0
126.0,128.0,124.0,128.0,127.0,122.0,127.0,128.0,23.0,-108.0,-71.0,127.0,127.0,127.0,114.0,87.0,-94.0
126.0,127.0,126.0,127.0,127.0,122.0,128.0,129.0,23.0,-108.0,-71.0,127.0,127.0,127.0,114.0,87.0,-94.0
126.0,127.0,126.0,127.0,127.0,122.0,128.0,129.0,23.0,-108.0,-71.0,127.0,127.0,127.0,114.0,87.0,-94.0
126.0,127.0,126.0,127.0,127.0,122.0,128.0,129.0,23.0,-108.0,-71.0,127.0,127.0,127.0,114.0,87.0,-94.0
126.0,128.0,125.0,128.0,127.0,124.0,127.0,129.0,23.0,-108.0,-71.0,127.0,127.0,127.0,114.0,87.0,-94.0
126.0,128.0,125.0,128.0,127.0,124.0,128.0,129.0,23.0,-108.0,-71.0,127.0,127.0,127.0,114.0,87.0,-94.0
126.0,128.0,125.0,128.0,127.0,123.0,128.0,129.0,23.0,-108.0,-71.0,127.0,127.0,127.0,114.0,87.0,-94.0
126.0,128.0,125.0,128.0,127.0,123.0,128.0,129.0,23.0,-108.0,-71.0,127.0,127.0,127.0,114.0,87.0,-94.0
126.0,128.0,125.0,128.0,127.0,123.0,128.0,129.0,23.0,-108.0,-71.0,127.0,127.0,127.0,114.0,87.0,-94.0
126.0,127.0,125.0,128.0,127.0,123.0,128.0,129.0,23.0,-108.0,-71.0,127.0,127.0,127.0,114.0,87.0,-94.0
126.0,127.0,126.0,128.0,127.0,122.0,128.0,129.0,23.0,-108.0,-71.0,127.0,127.0,127.0,114.0,87.0,-94.0
127.0,129.0,126.0,127.0,127.0,122.0,128.0,129.0,23.0,-108.0,-71.0,127.0,127.0,127.0,114.0,87.0,-94.0
127.0,129.0,126.0,127.0,127.0,123.0,128.0,129.0,23.0,-108.0,-71.0,127.0,127.0,127.0,114.0,87.0,-94.0
127.0,127.0,127.0,127.0,126.0,121.0,128.0,129.0,23.0,-108.0,-71.0,127.0,127.0,127.0,114.0,87.0,-94.0
127.0,128.0,127.0,127.0,126.0,121.0,128.0,129.0,23.0,-108.0,-71.0,127.0,127.0,127.0,114.0,87.0,-94.0
127.0,128.0,127.0,127.0,126.0,121.0,128.0,129.0,23.0,-108.0,-71.0,127.0,127.0,127.0,114.0,87.0,-94.0
127.0,128.0,126.0,127.0,126.0,123.0,127.0,129.0,23.0,-108.0,-71.0,127.0,127.0,127.0,114.0,87.0,-94.0
127.0,129.0,126.0,127.0,126.0,123.0,128.0,129.0,23.0,-108.0,-71.0,127.0,127.0,127.0,114.0,87.0,-94.0
127.0,129.0,126.0,127.0,126.0,122.0,128.0,129.0,23.0,-108.0,-71.0,127.0,127.0,127.0,114.0,87.0,-94.0
127.0,129.0,126.0,127.0,127.0,122.0,128.0,129.0,23.0,-108.0,-71.0,127.0,127.0,127.0,114.0,87.0,-94.0
127.0,129.0,126.0,127.0,127.0,122.0,128.0,129.0,23.0,-108.0,-71.0,127.0,127.0,127.0,114.0,87.0,-94.0
127.0,129.0,126.0,127.0,127.0,122.0,127.0,128.0,24.0,-109.0,-71.0,127.0,127.0,127.0,114.0,87.0,-94.0
127.0,130.0,125.0,127.0,127.0,124.0,127.0,128.0,24.0,-109.0,-71.0,127.0,127.0,127.0,114.0,87.0,-94.0
127.0,130.0,125.0,127.0,127.0,124.0,127.0,128.0,24.0,-109.0,-71.0,127.0,127.0,127.0,114.0,87.0,-94.0
127.0,130.0,125.0,127.0,127.0,124.0,127.0,128.0,24.0,-109.0,-71.0,127.0,127.0,127.0,114.0,87.0,-94.0
127.0,130.0,125.0,127.0,127.0,123.0,127.0,128.0,24.0,-109.0,-71.0,127.0,127.0,127.0,114.0,87.0,-94.0
127.0,130.0,125.0,127.0,127.0,123.0,127.0,128.0,24.0,-109.0,-71.0,127.0,127.0,127.0,114.0,87.0,-94.0
127.0,130.0,125.0,127.0,127.0,123.0,127.0,128.0,24.0,-109.0,-71.0,127.0,127.0,127.0,114.0,87.0,-94.0
127.0,130.0,125.0,127.0,127.0,122.0,127.0,128.0,24.0,-109.0,-71.0,127.0,127.0,127.0,114.0,87.0,-94.0
127.0,130.0,125.0,128.0,127.0,122.0,127.0,128.0,24.0,-109.0,-71.0,127.0,127.0,127.0,114.0,87.0,-94.0
127.0,129.0,126.0,127.0,127.0,122.0,127.0,128.0,24.0,-109.0,-71.0,127.0,127.0,127.0,114.0,87.0,-94.0
126.0,127.0,128.0,127.0,127.0,124.0,125.0,127.0,25.0,-109.0,-71.0,127.0,127.0,127.0,115.0,87.0,-94.0
126.0,126.0,127.0,127.0,126.0,124.0,125.0,127.0,25.0,-109.0,-71.0,127.0,127.0,127.0,115.0,87.0,-94.0
126.0,126.0,128.0,127.0,127.0,124.0,125.0,127.0,25.0,-109.0,-71.0,127.0,127.0,127.0,115.0,87.0,-94.0
126.0,126.0,128.0,127.0,127.0,124.0,125.0,127.0,25.0,-109.0,-71.0,127.0,127.0,127.0,115.0,87.0,-94.0
126.0,126.0,128.0,127.0,127.0,124.0,125.0,127.0,25.0,-109.0,-71.0,127.0,127.0,127.0,115.0,87.0,-94.0
126.0,126.0,128.0,127.0,127.0,123.0,125.0,127.0,25.0,-109.0,-71.0,127.0,127.0,127.0,115.0,87.0,-94.0
126.0,125.0,128.0,127.0,127.0,123.0,125.0,127.0,25.0,-109.0,-71.0,127.0,127.0,127.0,115.0,87.0,-94.0
126.0,125.0,128.0,127.0,127.0,123.0,125.0,127.0,25.0,-109.0,-71.0,127.0,127.0,127.0,115.0,87.0,-94.0
126.0,125.0,128.0,127.0,127.0,123.0,125.0,127.0,25.0,-109.0,-71.0,127.0,127.0,127.0,115.0,87.0,-94.0
126.0,125.0,128.0,127.0,127.0,123.0,125.0,127.0,25.0,-109.0,-71.0,127.0,127.0,127.0,115.0,87.0,-94.0
127.0,124.0,130.0,127.0,127.0,122.0,125.0,127.0,26.0,-110.0,-70.0,127.0,127.0,127.0,115.0,87.0,-94.0
127.0,124.0,130.0,127.0,127.0,122.0,125.0,127.0,26.0,-110.0,-70.0,127.0,127.0,127.0,115.0,87.0,-94.0
127.0,124.0,130.0,127.0,127.0,121.0,125.0,127.0,26.0,-110.0,-70.0,127.0,127.0,127.0,115.0,87.0,-94.0
127.0,124.0,131.0,127.0,127.0,121.0,125.0,127.0,26.0,-110.0,-70.0,127.0,127.0,127.0,115.0,87.0,-94.0
127.0,124.0,131.0,127.0,127.0,121.0,125.0,127.0,26.0,-110.0,-70.0,127.0,127.0,127.0,115.0,87.0,-94.0
127.0,124.0,131.0,127.0,127.0,120.0,125.0,127.0,26.0,-110.0,-70.0,127.0,127.0,127.0,115.0,87.0,-94.0
127.0,124.0,131.0,127.0,127.0,120.0,125.0,127.0,26.0,-110.0,-70.0,127.0,127.0,127.0,115.0,87.0,-94.0
127.0,124.0,131.0,127.0,127.0,120.0,125.0,127.0,26.0,-110.0,-70.0,127.0,127.0,127.0,115.0,87.0,-94.0
127.0,124.0,131.0,127.0,127.0,120.0,125.0,127.0,26.0,-110.0,-70.0,127.0,127.0,127.0,115.0,87.0,-94.0
