emg1,emg2,emg3,emg4,emg5,emg6,emg7,emg8,acc_x,acc_y,acc_z,gyro_x,gyro_y,gyro_z,angle_pitch,angle_roll,angle_yaw
128.0,129.0,124.0,127.0,127.0,123.0,127.0,127.0,34.0,-117.0,-59.0,127.0,127.0,127.0,123.0,91.0,-90.0
128.0,128.0,124.0,127.0,127.0,123.0,127.0,127.0,34.0,-117.0,-59.0,127.0,127.0,127.0,123.0,91.0,-90.0
128.0,128.0,124.0,127.0,127.0,123.0,127.0,127.0,34.0,-117.0,-59.0,127.0,127.0,127.0,123.0,91.0,-90.0
128.0,128.0,124.0,127.0,127.0,123.0,127.0,127.0,34.0,-117.0,-59.0,127.0,127.0,127.0,123.0,91.0,-90.0
128.0,128.0,124.0,127.0,127.0,122.0,127.0,127.0,34.0,-117.0,-59.0,127.0,127.0,127.0,123.0,91.0,-90.0
128.0,127.0,125.0,127.0,127.0,122.0,127.0,127.0,34.0,-116.0,-59.0,127.0,127.0,127.0,123.0,91.0,-90.0
128.0,128.0,125.0,127.0,127.0,122.0,127.0,127.0,34.0,-116.0,-59.0,127.0,127.0,127.0,123.0,91.0,-90.0
128.0,127.0,126.0,127.0,127.0,122.0,127.0,127.0,34.0,-116.0,-59.0,127.0,127.0,127.0,123.0,91.0,-90.0
128.0,127.0,126.0,127.0,127.0,122.0,127.0,127.0,34.0,-116.0,-59.0,127.0,127.0,127.0,123.0,91.0,-90.0
128.0,127.0,125.0,127.0,127.0,122.0,127.0,127.0,34.0,-116.0,-59.0,127.0,127.0,127.0,123.0,91.0,-90.0
128.0,127.0,126.0,127.0,127.0,122.0,127.0,127.0,34.0,-116.0,-59.0,127.0,127.0,127.0,123.0,91.0,-90.0
128.0,127.0,125.0,127.0,127.0,122.0,127.0,127.0,34.0,-116.0,-59.0,127.0,127.0,127.0,123.0,91.0,-90.0
128.0,127.0,125.0,127.0,127.0,122.0,127.0,127.0,34.0,-116.0,-59.0,127.0,127.0,127.0,123.0,91.0,-90.0
128.0,127.0,125.0,127.0,127.0,122.0,127.0,127.0,34.0,-116.0,-59.0,127.0,127.0,127.0,123.0,91.0,-90.0
128.0,127.0,125.0,127.0,127.0,122.0,127.0,127.0,34.0,-116.0,-59.0,127.0,127.0,127.0,123.0,91.0,-90.0
128.0,128.0,125.0,127.0,127.0,123.0,127.0,127.0,34.0,-116.0,-58.0,127.0,127.0,127.0,123.0,91.0,-90.0
128.0,128.0,126.0,127.0,127.0,123.0,127.0,127.0,34.0,-116.0,-58.0,127.0,127.0,127.0,123.0,91.0,-90.0
128.0,128.0,126.0,127.0,127.0,123.0,127.0,127.0,34.0,-116.0,-58.0,127.0,127.0,127.0,123.0,91.0,-90.0
128.0,128.0,126.0,127.0,127.0,123.0,127.0,127.0,34.0,-116.0,-58.0,127.0,127.0,127.0,123.0,91.0,-90.0
128.0,127.0,126.0,127.0,127.0,123.0,127.0,127.0,34.0,-116.0,-58.0,127.0,127.0,127.0,123.0,91.0,-90.0
128.0,128.0,125.0,127.0,127.0,124.0,127.0,127.0,34.0,-116.0,-58.0,127.0,127.0,127.0,123.0,91.0,-90.0
128.0,128.0,125.0,127.0,127.0,124.0,127.0,127.0,34.0,-116.0,-58.0,127.0,127.0,127.0,123.0,91.0,-90.0
128.0,128.0,125.0,127.0,127.0,124.0,127.0,127.0,34.0,-116.0,-58.0,127.0,127.0,127.0,123.0,91.0,-90.0
128.0,128.0,125.0,127.0,127.0,123.0,127.0,127.0,34.0,-116.0,-58.0,127.0,127.0,127.0,123.0,91.0,-90.0
128.0,128.0,125.0,127.0,127.0,123.0,127.0,127.0,34.0,-116.0,-58.0,127.0,127.0,127.0,123.0,91.0,-90.0
128.0,128.0,126.0,127.0,127.0,124.0,127.0,127.0,34.0,-115.0,-58.0,127.0,127.0,127.0,123.0,91.0,-90.0
128.0,128.0,126.0,127.0,127.0,123.0,127.0,127.0,34.0,-115.0,-58.0,127.0,127.0,127.0,123.0,91.0,-90.0
128.0,128.0,126.0,127.0,127.0,123.0,127.0,127.0,34.0,-115.0,-58.0,127.0,127.0,127.0,123.0,91.0,-90.0
128.0,128.0,125.0,127.0,127.0,123.0,127.0,127.0,34.0,-115.0,-58.0,127.0,127.0,127.0,123.0,91.0,-90.0
128.0,128.0,125.0,127.0,127.0,124.0,127.0,127.0,34.0,-115.0,-58.0,127.0,127.0,127.0,123.0,91.0,-90.0
128.0,128.0,125.0,127.0,127.0,125.0,127.0,127.0,34.0,-115.0,-58.0,127.0,127.0,127.0,123.0,91.0,-90.0
128.0,128.0,124.0,127.0,127.0,125.0,127.0,127.0,34.0,-115.0,-58.0,127.0,127.0,127.0,123.0,91.0,-90.0
128.0,128.0,124.0,127.0,127.0,124.0,127.0,127.0,34.0,-115.0,-58.0,127.0,127.0,127.0,123.0,91.0,-90.0
128.0,128.0,124.0,127.0,127.0,124.0,127.0,127.0,34.0,-115.0,-58.0,127.0,127.0,127.0,123.0,91.0,-90.0
128.0,128.0,124.0,127.0,127.0,124.0,127.0,127.0,34.0,-115.0,-58.0,127.0,127.0,127.0,123.0,91.0,-90.0
128.0,127.0,126.0,127.0,127.0,123.0,127.0,127.0,34.0,-115.0,-58.0,127.0,127.0,127.0,123.0,91.0,-90.0
128.0,127.0,126.0,127.0,127.0,123.0,127.0,127.0,34.0,-115.0,-58.0,127.0,127.0,127.0,123.0,91.0,-90.0
128.0,127.0,125.0,127.0,127.0,123.0,127.0,127.0,34.0,-115.0,-58.0,127.0,127.0,127.0,123.0,91.0,-90.0
128.0,128.0,125.0,127.0,127.0,123.0,127.0,127.0,34.0,-115.0,-58.0,127.0,127.0,127.0,123.0,91.0,-90.0
128.0,128.0,125.0,127.0,127.0,124.0,127.0,127.0,34.0,-115.0,-58.0,127.0,127.0,127.0,123.0,91.0,-90.0
128.0,128.0,124.0,127.0,127.0,124.0,127.0,127.0,34.0,-115.0,-58.0,127.0,127.0,127.0,123.0,91.0,-90.0
128.0,128.0,125.0,127.0,127.0,124.0,127.0,127.0,34.0,-115.0,-58.0,127.0,127.0,127.0,123.0,91.0,-90.0
128.0,128.0,125.0,127.0,127.0,124.0,127.0,127.0,34.0,-115.0,-58.0,127.0,127.0,127.0,123.0,91.0,-90.0
128.0,128.0,125.0,127.0,127.0,124.0,127.0,127.0,34.0,-115.0,-58.0,127.0,127.0,127.0,123.0,91.0,-90.0
128.0,128.0,125.0,127.0,127.0,124.0,127.0,127.0,34.0,-115.0,-58.0,127.0,127.0,127.0,123.0,91.0,-90.0
128.0,127.0,126.0,127.0,127.0,123.0,127.0,127.0,34.0,-115.0,-58.0,127.0,127.0,127.0,123.0,91.0,-90.0
128.0,127.0,126.0,126.0,127.0,123.0,127.0,127.0,34.0,-115.0,-58.0,127.0,127.0,127.0,123.0,91.0,-90.0
128.0,127.0,126.0,126.0,127.0,123.0,127.0,127.0,34.0,-115.0,-58.0,127.0,127.0,127.0,123.0,91.0,-90.0
129.0,128.0,125.0,127.0,127.0,124.0,127.0,127.0,34.0,-115.0,-58.0,127.0,127.0,127.0,123.0,91.0,-90.0
129.0,128.0,125.0,127.0,127.0,124.0,127.0,127.0,34.0,-115.0,-58.0,127.0,127.0,127.0,123.0,91.0,-90.0
129.0,128.0,125.0,127.0,127.0,124.0,127.0,127.0,34.0,-115.0,-58.0,127.0,127.0,127.0,123.0,91.0,-90.0
129.0,128.0,125.0,127.0,127.0,123.0,127.0,127.0,34.0,-115.0,-58.0,127.0,127.0,127.0,123.0,91.0,-90.0
129.0,128.0,125.0,127.0,127.0,123.0,127.0,127.0,34.0,-115.0,-58.0,127.0,127.0,127.0,123.0,91.0,-90.0
128.0,127.0,126.0,127.0,127.0,123.0,127.0,127.0,34.0,-115.0,-58.0,127.0,127.0,127.0,123.0,91.0,-90.0
128.0,127.0,126.0,126.0,127.0,123.0,127.0,127.0,34.0,-115.0,-58.0,127.0,127.0,127.0,123.0,91.0,-90.0
129.0,127.0,126.0,127.0,127.0,123.0,127.0,127.0,34.0,-115.0,-58.0,127.0,127.0,127.0,123.0,91.0,-90.0
129.0,127.0,126.0,127.0,127.0,123.0,127.0,127.0,34.0,-115.0,-58.0,127.0,127.0,127.0,123.0,91.0,-90.0
129.0,128.0,125.0,127.0,127.0,124.0,127.0,127.0,34.0,-115.0,-58.0,127.0,127.0,127.0,123.0,91.0,-90.0
129.0,128.0,125.0,127.0,127.0,124.0,127.0,127.0,34.0,-115.0,-58.0,127.0,127.0,127.0,123.0,91.0,-90.0
129.0,128.0,125.0,127.0,127.0,124.0,127.0,127.0,34.0,-115.0,-58.0,127.0,127.0,127.0,123.0,91.0,-90.0
129.0,128.0,125.0,127.0,127.0,124.0,127.0,127.0,34.0,-115.0,-58.0,127.0,127.0,127.0,123.0,91.0,-90.0
129.0,128.0,125.0,127.0,127.0,124.0,127.0,127.0,34.0,-115.0,-58.0,127.0,127.0,127.0,123.0,91.0,-90.0
129.0,127.0,126.0,127.0,127.0,124.0,127.0,127.0,34.0,-115.0,-58.0,127.0,127.0,127.0,123.0,91.0,-90.0
129.0,127.0,126.0,127.0,127.0,123.0,127.0,127.0,34.0,-115.0,-58.0,127.0,127.0,127.0,123.0,91.0,-90.0
129.0,127.0,126.0,127.0,127.0,123.0,127.0,127.0,34.0,-115.0,-58.0,127.0,127.0,127.0,123.0,91.0,-90.0
128.0,127.0,126.0,127.0,127.0,122.0,127.0,127.0,34.0,-115.0,-58.0,127.0,127.0,127.0,123.0,91.0,-90.0
128.0,128.0,125.0,127.0,127.0,123.0,127.0,127.0,34.0,-115.0,-58.0,127.0,127.0,127.0,123.0,91.0,-90.0
129.0,128.0,125.0,127.0,127.0,124.0,127.0,127.0,34.0,-115.0,-58.0,127.0,127.0,127.0,123.0,91.0,-90.0
128.0,128.0,125.0,127.0,127.0,124.0,127.0,127.0,34.0,-115.0,-58.0,127.0,127.0,127.0,123.0,91.0,-90.0
128.0,128.0,125.0,127.0,127.0,124.0,127.0,127.0,34.0,-115.0,-58.0,127.0,127.0,127.0,123.0,91.0,-90.0
128.0,128.0,125.0,127.0,127.0,123.0,127.0,127.0,34.0,-115.0,-58.0,127.0,127.0,127.0,123.0,91.0,-90.0
129.0,127.0,126.0,127.0,127.0,123.0,127.0,127.0,34.0,-115.0,-58.0,127.0,127.0,127.0,123.0,91.0,-90.0
129.0,127.0,126.0,127.0,127.0,123.0,127.0,127.0,34.0,-115.0,-58.0,127.0,127.0,127.0,123.0,91.0,-90.0
129.0,127.0,126.0,127.0,127.0,123.0,127.0,127.0,34.0,-115.0,-58.0,127.0,127.0,127.0,123.0,91.0,-90.0
128.0,127.0,126.0,127.0,127.0,123.0,127.0,127.0,34.0,-115.0,-58.0,127.0,127.0,127.0,123.0,91.0,-90.0
128.0,128.0,126.0,126.0,127.0,124.0,127.0,127.0,34.0,-116.0,-59.0,127.0,127.0,127.0,123.0,91.0,-90.0
128.0,128.0,125.0,126.0,127.0,124.0,127.0,127.0,34.0,-116.0,-59.0,127.0,127.0,127.0,123.0,91.0,-90.0
128.0,128.0,125.0,127.0,127.0,124.0,127.0,127.0,34.0,-116.0,-59.0,127.0,127.0,127.0,123.0,91.0,-90.0
128.0,128.0,125.0,127.0,127.0,124.0,127.0,127.0,34.0,-116.0,-59.0,127.0,127.0,127.0,123.0,91.0,-90.0
128.0,128.0,125.0,127.0,127.0,124.0,127.0,127.0,34.0,-116.0,-59.0,127.0,127.0,127.0,123.0,91.0,-90.0
128.0,128.0,126.0,126.0,127.0,123.0,127.0,127.0,34.0,-116.0,-59.0,127.0,127.0,127.0,123.0,91.0,-90.0
128.0,128.0,126.0,126.0,127.0,123.0,127.0,127.0,34.0,-116.0,-59.0,127.0,127.0,127.0,123.0,91.0,-90.0
128.0,127.0,126.0,126.0,127.0,123.0,127.0,127.0,34.0,-116.0,-59.0,127.0,127.0,127.0,123.0,91.0,-90.0
128.0,127.0,126.0,126.0,127.0,123.0,127.0,127.0,34.0,-116.0,-59.0,127.0,127.0,127.0,123.0,91.0,-90.0
128.0,127.0,126.0,126.0,127.0,123.0,127.0,127.0,34.0,-116.0,-59.0,127.0,127.0,127.0,123.0,91.0,-90.0
128.0,127.0,127.0,126.0,127.0,122.0,127.0,127.0,34.0,-116.0,-59.0,127.0,127.0,127.0,123.0,91.0,-90.0
128.0,127.0,127.0,126.0,127.0,123.0,127.0,127.0,34.0,-116.0,-59.0,127.0,127.0,127.0,123.0,91.0,-90.0
128.0,127.0,126.0,126.0,127.0,123.0,127.0,127.0,34.0,-116.0,-59.0,127.0,127.0,127.0,123.0,91.0,-90.0
128.0,128.0,126.0,126.0,127.0,124.0,127.0,127.0,34.0,-116.0,-59.0,127.0,127.0,127.0,123.0,91.0,-90.0
128.0,127.0,127.0,126.0,127.0,123.0,127.0,127.0,34.0,-116.0,-59.0,127.0,127.0,127.0,123.0,91.0,-90.0
128.0,127.0,127.0,126.0,127.0,123.0,127.0,127.0,34.0,-116.0,-59.0,127.0,127.0,127.0,123.0,91.0,-90.0
128.0,127.0,127.0,126.0,127.0,123.0,127.0,127.0,34.0,-116.0,-59.0,127.0,127.0,127.0,123.0,91.0,-90.0
128.0,127.0,127.0,126.0,127.0,123.0,127.0,127.0,34.0,-116.0,-59.0,127.0,127.0,127.0,123.0,91.0,-90.0
128.0,127.0,127.0,126.0,127.0,123.0,127.0,127.0,34.0,-116.0,-59.0,127.0,127.0,127.0,123.0,91.0,-90.0
128.0,127.0,127.0,126.0,127.0,122.0,127.0,127.0,34.0,-116.0,-59.0,127.0,127.0,127.0,123.0,91.0,-90.0
128.0,127.0,126.0,126.0,127.0,125.0,127.0,127.0,34.0,-117.0,-59.0,127.0,127.0,127.0,123.0,91.0,-90.0
128.0,127.0,127.0,127.0,127.0,125.0,127.0,127.0,34.0,-117.0,-59.0,127.0,127.0,127.0,123.0,91.0,-90.0
128.0,127.0,127.0,126.0,127.0,125.0,127.0,127.0,34.0,-117.0,-59.0,127.0,127.0,127.0,123.0,91.0,-90.0
128.0,127.0,127.0,126.0,127.0,124.0,127.0,127.0,34.0,-117.0,-59.0,127.0,127.0,127.0,123.0,91.0,-90.0
128.0,127.0,127.0,126.0,127.0,124.0,127.0,127.0,34.0,-117.0,-59.0,127.0,127.0,127.0,123.0,91.0,-90.0
128.0,127.0,127.0,126.0,127.0,125.0,127.0,127.0,34.0,-117.0,-59.0,127.0,127.0,127.0,123.0,91.0,-90.0
128.0,128.0,126.0,126.0,127.0,126.0,127.0,127.0,34.0,-117.0,-59.0,127.0,127.0,127.0,123.0,91.0,-90.0
128.0,128.0,126.0,126.0,127.0,126.0,127.0,127.0,34.0,-117.0,-59.0,127.0,127.0,127.0,123.0,91.0,-90.0
128.0,128.0,126.0,126.0,127.0,125.0,127.0,127.0,34.0,-117.0,-59.0,127.0,127.0,127.0,123.0,91.0,-90.0
128.0,127.0,127.0,126.0,127.0,125.0,127.0,127.0,34.0,-117.0,-59.0,127.0,127.0,127.0,123.0,91.0,-90.0
128.0,128.0,125.0,126.0,127.0,126.0,126.0,127.0,34.0,-117.0,-59.0,127.0,127.0,127.0,123.0,91.0,-90.0
128.0,128.0,125.0,126.0,127.0,126.0,126.0,127.0,34.0,-117.0,-59.0,127.0,127.0,127.0,123.0,91.0,-90.0
128.0,127.0,126.0,126.0,127.0,125.0,126.0,127.0,34.0,-117.0,-59.0,127.0,127.0,127.0,123.0,91.0,-90.0
128.0,127.0,126.0,126.0,127.0,125.0,126.0,127.0,34.0,-117.0,-59.0,127.0,127.0,127.0,123.0,91.0,-90.0
128.0,127.0,126.0,126.0,127.0,125.0,126.0,127.0,34.0,-117.0,-59.0,127.0,127.0,127.0,123.0,91.0,-90.0
128.0,128.0,125.0,126.0,127.0,127.0,126.0,127.0,34.0,-117.0,-59.0,127.0,127.0,127.0,123.0,91.0,-90.0
128.0,128.0,125.0,126.0,127.0,127.0,126.0,127.0,34.0,-117.0,-59.0,127.0,127.0,127.0,123.0,91.0,-90.0
128.0,128.0,125.0,126.0,127.0,126.0,126.0,127.0,34.0,-117.0,-59.0,127.0,127.0,127.0,123.0,91.0,-90.0
128.0,128.0,125.0,126.0,127.0,126.0,126.0,127.0,34.0,-117.0,-59.0,127.0,127.0,127.0,123.0,91.0,-90.0
128.0,128.0,125.0,126.0,127.0,126.0,126.0,127.0,34.0,-117.0,-59.0,127.0,127.0,127.0,123.0,91.0,-90.0
128.0,127.0,127.0,126.0,127.0,125.0,127.0,128.0,35.0,-117.0,-59.0,127.0,127.0,127.0,123.0,91.0,-90.0
128.0,127.0,127.0,126.0,127.0,126.0,127.0,128.0,35.0,-117.0,-59.0,127.0,127.0,127.0,123.0,91.0,-90.0
128.0,127.0,127.0,126.0,127.0,126.0,127.0,128.0,35.0,-117.0,-59.0,127.0,127.0,127.0,123.0,91.0,-90.0
128.0,127.0,127.0,126.0,127.0,126.0,127.0,128.0,35.0,-117.0,-59.0,127.0,127.0,127.0,123.0,91.0,-90.0
128.0,127.0,127.0,126.0,127.0,126.0,127.0,128.0,35.0,-117.0,-59.0,127.0,127.0,127.0,123.0,91.0,-90.0
128.0,127.0,127.0,126.0,127.0,126.0,127.0,128.0,35.0,-117.0,-59.0,127.0,127.0,127.0,123.0,91.0,-90.0
128.0,127.0,127.0,126.0,127.0,125.0,127.0,128.0,35.0,-117.0,-59.0,127.0,127.0,127.0,123.0,91.0,-90.0
128.0,127.0,127.0,126.0,127.0,125.0,127.0,128.0,35.0,-117.0,-59.0,127.0,127.0,127.0,123.0,91.0,-90.0
128.0,127.0,127.0,126.0,127.0,125.0,127.0,128.0,35.0,-117.0,-59.0,127.0,127.0,127.0,123.0,91.0,-90.0
128.0,127.0,127.0,127.0,127.0,125.0,127.0,128.0,35.0,-117.0,-59.0,127.0,127.0,127.0,123.0,91.0,-90.0
129.0,127.0,126.0,126.0,127.0,127.0,126.0,128.0,35.0,-118.0,-59.0,127.0,127.0,127.0,123.0,91.0,-90.0
129.0,127.0,126.0,126.0,127.0,127.0,126.0,128.0,35.0,-118.0,-59.0,127.0,127.0,127.0,123.0,91.0,-90.0
129.0,127.0,126.0,126.0,127.0,126.0,126.0,128.0,35.0,-118.0,-59.0,127.0,127.0,127.0,123.0,91.0,-90.0
129.0,127.0,126.0,126.0,127.0,126.0,126.0,128.0,35.0,-118.0,-59.0,127.0,127.0,127.0,123.0,91.0,-90.0
128.0,127.0,126.0,126.0,127.0,126.0,126.0,128.0,35.0,-118.0,-59.0,127.0,127.0,127.0,123.0,91.0,-90.0
128.0,127.0,126.0,126.0,127.0,125.0,127.0,128.0,35.0,-118.0,-59.0,127.0,127.0,127.0,123.0,91.0,-90.0
128.0,127.0,126.0,126.0,127.0,125.0,127.0,128.0,35.0,-118.0,-59.0,127.0,127.0,127.0,123.0,91.0,-90.0
128.0,127.0,126.0,126.0,127.0,125.0,127.0,128.0,35.0,-118.0,-59.0,127.0,127.0,127.0,123.0,91.0,-90.0
128.0,127.0,126.0,126.0,127.0,125.0,127.0,128.0,35.0,-118.0,-59.0,127.0,127.0,127.0,123.0,91.0,-90.0
128.0,127.0,126.0,126.0,127.0,124.0,127.0,128.0,35.0,-118.0,-59.0,127.0,127.0,127.0,123.0,91.0,-90.0
128.0,127.0,127.0,126.0,127.0,124.0,127.0,128.0,35.0,-118.0,-59.0,127.0,127.0,127.0,123.0,91.0,-90.0
128.0,127.0,127.0,126.0,127.0,124.0,127.0,128.0,35.0,-118.0,-59.0,127.0,127.0,127.0,123.0,91.0,-90.0
128.0,127.0,127.0,126.0,127.0,124.0,127.0,128.0,35.0,-118.0,-59.0,127.0,127.0,127.0,123.0,91.0,-90.0
128.0,127.0,127.0,126.0,127.0,123.0,127.0,128.0,35.0,-118.0,-59.0,127.0,127.0,127.0,123.0,91.0,-90.0
128.0,127.0,127.0,126.0,127.0,124.0,127.0,128.0,35.0,-118.0,-59.0,127.0,127.0,127.0,123.0,91.0,-90.0
128.0,127.0,127.0,126.0,127.0,123.0,127.0,128.0,35.0,-118.0,-59.0,127.0,127.0,127.0,123.0,91.0,-90.0
128.0,127.0,127.0,126.0,127.0,123.0,127.0,128.0,35.0,-118.0,-59.0,127.0,127.0,127.0,123.0,91.0,-90.0
128.0,127.0,127.0,126.0,127.0,124.0,127.0,128.0,35.0,-118.0,-59.0,127.0,127.0,127.0,123.0,91.0,-90.0
128.0,127.0,127.0,126.0,127.0,123.0,127.0,128.0,35.0,-118.0,-59.0,127.0,127.0,127.0,123.0,91.0,-90.0
128.0,127.0,127.0,126.0,127.0,124.0,127.0,128.0,35.0,-118.0,-59.0,127.0,127.0,127.0,123.0,91.0,-90.0
128.0,127.0,125.0,126.0,127.0,127.0,127.0,128.0,35.0,-118.0,-59.0,127.0,127.0,127.0,123.0,91.0,-90.0
128.0,127.0,126.0,126.0,127.0,127.0,127.0,128.0,35.0,-118.0,-59.0,127.0,127.0,127.0,123.0,91.0,-90.0
128.0,127.0,126.0,126.0,127.0,126.0,127.0,128.0,35.0,-118.0,-59.0,127.0,127.0,127.0,123.0,91.0,-90.0
128.0,127.0,126.0,126.0,127.0,126.0,127.0,128.0,35.0,-118.0,-59.0,127.0,127.0,127.0,123.0,91.0,-90.0
128.0,127.0,126.0,126.0,127.0,126.0,127.0,128.0,35.0,-118.0,-59.0,127.0,127.0,127.0,123.0,91.0,-90.0
128.0,127.0,126.0,126.0,127.0,125.0,127.0,128.0,35.0,-118.0,-59.0,127.0,127.0,127.0,123.0,91.0,-90.0
128.0,127.0,126.0,126.0,127.0,125.0,127.0,128.0,35.0,-118.0,-59.0,127.0,127.0,127.0,123.0,91.0,-90.0
128.0,127.0,126.0,126.0,127.0,125.0,127.0,128.0,35.0,-118.0,-59.0,127.0,127.0,127.0,123.0,91.0,-90.0
128.0,127.0,126.0,126.0,127.0,127.0,126.0,128.0,35.0,-118.0,-59.0,127.0,127.0,127.0,123.0,91.0,-90.0
128.0,128.0,125.0,126.0,127.0,127.0,127.0,128.0,35.0,-118.0,-59.0,127.0,127.0,127.0,123.0,91.0,-90.0
128.0,128.0,126.0,126.0,127.0,126.0,127.0,128.0,35.0,-118.0,-59.0,127.0,127.0,127.0,123.0,91.0,-90.0
128.0,128.0,126.0,126.0,127.0,126.0,127.0,128.0,35.0,-118.0,-59.0,127.0,127.0,127.0,123.0,91.0,-90.0
128.0,128.0,126.0,126.0,127.0,126.0,127.0,128.0,35.0,-118.0,-59.0,127.0,127.0,127.0,123.0,91.0,-90.0
128.0,128.0,126.0,126.0,127.0,126.0,127.0,128.0,35.0,-118.0,-59.0,127.0,127.0,127.0,123.0,91.0,-90.0
128.0,128.0,126.0,126.0,127.0,125.0,127.0,128.0,35.0,-118.0,-59.0,127.0,127.0,127.0,123.0,91.0,-90.0
128.0,128.0,126.0,126.0,127.0,125.0,127.0,128.0,35.0,-118.0,-59.0,127.0,127.0,127.0,123.0,91.0,-90.0
128.0,127.0,126.0,126.0,127.0,125.0,127.0,128.0,35.0,-118.0,-59.0,127.0,127.0,127.0,123.0,91.0,-90.0
128.0,127.0,127.0,126.0,127.0,125.0,127.0,128.0,35.0,-118.0,-59.0,127.0,127.0,127.0,123.0,91.0,-90.0
128.0,128.0,126.0,126.0,127.0,126.0,127.0,128.0,35.0,-118.0,-59.0,127.0,127.0,127.0,123.0,91.0,-90.0
128.0,128.0,126.0,126.0,127.0,126.0,127.0,128.0,35.0,-118.0,-59.0,127.0,127.0,127.0,123.0,91.0,-90.0
128.0,127.0,126.0,126.0,127.0,126.0,127.0,128.0,35.0,-118.0,-59.0,127.0,127.0,127.0,123.0,91.0,-90.0
128.0,127.0,126.0,126.0,127.0,126.0,127.0,128.0,35.0,-118.0,-59.0,127.0,127.0,127.0,123.0,91.0,-90.0
128.0,127.0,126.0,127.0,127.0,126.0,127.0,128.0,35.0,-118.0,-59.0,127.0,127.0,127.0,123.0,91.0,-90.0
128.0,127.0,126.0,127.0,127.0,126.0,127.0,128.0,35.0,-118.0,-59.0,127.0,127.0,127.0,123.0,91.0,-90.0
128.0,127.0,126.0,127.0,127.0,126.0,127.0,128.0,35.0,-118.0,-59.0,127.0,127.0,127.0,123.0,91.0,-90.0
128.0,127.0,126.0,127.0,127.0,125.0,127.0,128.0,35.0,-118.0,-59.0,127.0,127.0,127.0,123.0,91.0,-90.0
128.0,126.0,127.0,126.0,127.0,124.0,127.0,128.0,35.0,-118.0,-59.0,127.0,127.0,127.0,123.0,91.0,-90.0
128.0,126.0,127.0,126.0,127.0,124.0,127.0,128.0,35.0,-118.0,-59.0,127.0,127.0,127.0,123.0,91.0,-90.0
128.0,126.0,127.0,126.0,127.0,125.0,127.0,128.0,35.0,-118.0,-59.0,127.0,127.0,127.0,123.0,91.0,-90.0
128.0,127.0,127.0,126.0,127.0,125.0,127.0,128.0,35.0,-118.0,-59.0,127.0,127.0,127.0,123.0,91.0,-90.0
128.0,127.0,126.0,126.0,127.0,126.0,127.0,127.0,35.0,-118.0,-58.0,127.0,127.0,127.0,123.0,91.0,-90.0
128.0,127.0,126.0,127.0,127.0,125.0,127.0,128.0,35.0,-118.0,-58.0,127.0,127.0,127.0,123.0,91.0,-90.0
128.0,127.0,126.0,127.0,127.0,125.0,127.0,127.0,35.0,-118.0,-58.0,127.0,127.0,127.0,123.0,91.0,-90.0
128.0,127.0,126.0,127.0,127.0,125.0,127.0,127.0,35.0,-118.0,-58.0,127.0,127.0,127.0,123.0,91.0,-90.0
128.0,127.0,126.0,127.0,127.0,125.0,127.0,127.0,35.0,-118.0,-58.0,127.0,127.0,127.0,123.0,91.0,-90.0
128.0,127.0,126.0,126.0,127.0,127.0,127.0,128.0,35.0,-118.0,-58.0,127.0,127.0,127.0,123.0,91.0,-90.0
128.0,127.0,126.0,126.0,127.0,126.0,127.0,128.0,35.0,-118.0,-58.0,127.0,127.0,127.0,123.0,91.0,-90.0
128.0,127.0,126.0,127.0,127.0,126.0,127.0,128.0,35.0,-118.0,-58.0,127.0,127.0,127.0,123.0,91.0,-90.0
128.0,127.0,126.0,126.0,127.0,126.0,127.0,128.0,35.0,-118.0,-58.0,127.0,127.0,127.0,123.0,91.0,-90.0
128.0,127.0,126.0,127.0,127.0,126.0,127.0,128.0,35.0,-118.0,-58.0,127.0,127.0,127.0,123.0,91.0,-90.0
128.0,128.0,125.0,126.0,127.0,127.0,127.0,128.0,35.0,-118.0,-58.0,127.0,127.0,127.0,123.0,91.0,-90.0
128.0,127.0,125.0,126.0,127.0,127.0,127.0,128.0,35.0,-118.0,-58.0,127.0,127.0,127.0,123.0,91.0,-90.0
128.0,127.0,125.0,126.0,127.0,127.0,127.0,127.0,35.0,-118.0,-58.0,127.0,127.0,127.0,123.0,91.0,-90.0
128.0,128.0,125.0,126.0,127.0,127.0,127.0,127.0,35.0,-118.0,-58.0,127.0,127.0,127.0,123.0,91.0,-90.0
128.0,127.0,126.0,126.0,127.0,127.0,127.0,128.0,35.0,-118.0,-58.0,127.0,127.0,127.0,123.0,91.0,-90.0
128.0,128.0,125.0,126.0,127.0,128.0,127.0,127.0,35.0,-118.0,-58.0,127.0,127.0,127.0,123.0,91.0,-90.0
129.0,128.0,125.0,126.0,127.0,128.0,127.0,128.0,35.0,-118.0,-58.0,127.0,127.0,127.0,123.0,91.0,-90.0
129.0,128.0,125.0,126.0,127.0,128.0,127.0,128.0,35.0,-118.0,-58.0,127.0,127.0,127.0,123.0,91.0,-90.0
128.0,128.0,125.0,126.0,127.0,127.0,127.0,128.0,35.0,-118.0,-58.0,127.0,127.0,127.0,123.0,91.0,-90.0
128.0,127.0,125.0,126.0,127.0,127.0,127.0,128.0,35.0,-118.0,-58.0,127.0,127.0,127.0,123.0,91.0,-90.0
128.0,128.0,126.0,127.0,127.0,127.0,127.0,127.0,35.0,-118.0,-58.0,127.0,127.0,127.0,123.0,91.0,-90.0
128.0,128.0,126.0,127.0,127.0,127.0,127.0,127.0,35.0,-118.0,-58.0,127.0,127.0,127.0,123.0,91.0,-90.0
128.0,128.0,126.0,127.0,127.0,127.0,127.0,127.0,35.0,-118.0,-58.0,127.0,127.0,127.0,123.0,91.0,-90.0
128.0,127.0,127.0,126.0,127.0,126.0,127.0,127.0,35.0,-118.0,-58.0,127.0,127.0,127.0,123.0,91.0,-90.0
128.0,127.0,127.0,126.0,127.0,126.0,127.0,127.0,35.0,-118.0,-58.0,127.0,127.0,127.0,123.0,91.0,-90.0
128.0,127.0,127.0,126.0,127.0,126.0,127.0,127.0,35.0,-118.0,-58.0,127.0,127.0,127.0,123.0,91.0,-90.0
128.0,127.0,127.0,126.0,127.0,126.0,127.0,127.0,35.0,-118.0,-58.0,127.0,127.0,127.0,123.0,91.0,-90.0
128.0,127.0,126.0,126.0,127.0,127.0,127.0,127.0,35.0,-118.0,-58.0,127.0,127.0,127.0,123.0,91.0,-90.0
128.0,128.0,126.0,126.0,127.0,127.0,127.0,127.0,35.0,-118.0,-58.0,127.0,127.0,127.0,123.0,91.0,-90.0
128.0,128.0,126.0,126.0,127.0,127.0,127.0,127.0,35.0,-118.0,-58.0,127.0,127.0,127.0,123.0,91.0,-90.0
128.0,128.0,125.0,127.0,127.0,127.0,127.0,128.0,35.0,-118.0,-58.0,127.0,127.0,127.0,123.0,91.0,-90.0
128.0,128.0,125.0,127.0,127.0,127.0,127.0,128.0,35.0,-118.0,-58.0,127.0,127.0,127.0,123.0,91.0,-90.0
128.0,127.0,126.0,126.0,127.0,127.0,127.0,127.0,35.0,-118.0,-58.0,127.0,127.0,127.0,123.0,91.0,-90.0
128.0,127.0,126.0,126.0,127.0,127.0,127.0,127.0,35.0,-118.0,-58.0,127.0,127.0,127.0,123.0,91.0,-90.0
128.0,127.0,126.0,127.0,127.0,126.0,127.0,127.0,35.0,-118.0,-58.0,127.0,127.0,127.0,123.0,91.0,-90.0
128.0,127.0,126.0,127.0,127.0,126.0,127.0,127.0,35.0,-118.0,-58.0,127.0,127.0,127.0,123.0,91.0,-90.0
128.0,127.0,126.0,126.0,127.0,127.0,127.0,127.0,35.0,-118.0,-58.0,127.0,127.0,127.0,123.0,91.0,-90.0
128.0,128.0,125.0,127.0,127.0,128.0,127.0,127.0,35.0,-118.0,-58.0,127.0,127.0,127.0,123.0,91.0,-90.0
128.0,128.0,125.0,127.0,127.0,128.0,127.0,127.0,35.0,-118.0,-58.0,127.0,127.0,127.0,123.0,91.0,-90.0
128.0,128.0,125.0,127.0,127.0,127.0,127.0,128.0,35.0,-118.0,-58.0,127.0,127.0,127.0,123.0,91.0,-90.0
128.0,128.0,125.0,127.0,127.0,127.0,127.0,127.0,35.0,-117.0,-58.0,127.0,127.0,127.0,123.0,91.0,-90.0
128.0,127.0,127.0,127.0,127.0,127.0,127.0,127.0,35.0,-117.0,-58.0,127.0,127.0,127.0,123.0,91.0,-90.0
128.0,127.0,127.0,127.0,127.0,127.0,127.0,127.0,35.0,-117.0,-58.0,127.0,127.0,127.0,123.0,91.0,-90.0
128.0,127.0,127.0,127.0,127.0,126.0,127.0,127.0,35.0,-117.0,-58.0,127.0,127.0,127.0,123.0,91.0,-90.0
128.0,127.0,126.0,127.0,127.0,126.0,127.0,127.0,35.0,-117.0,-58.0,127.0,127.0,127.0,123.0,91.0,-90.0
128.0,127.0,126.0,127.0,127.0,126.0,127.0,127.0,35.0,-117.0,-58.0,127.0,127.0,127.0,123.0,91.0,-90.0
128.0,128.0,125.0,127.0,127.0,128.0,127.0,127.0,35.0,-117.0,-58.0,127.0,127.0,127.0,123.0,91.0,-90.0
128.0,128.0,125.0,127.0,127.0,128.0,127.0,128.0,35.0,-117.0,-58.0,127.0,127.0,127.0,123.0,91.0,-90.0
129.0,128.0,125.0,127.0,127.0,128.0,127.0,128.0,35.0,-117.0,-58.0,127.0,127.0,127.0,123.0,91.0,-90.0
128.0,128.0,125.0,127.0,127.0,127.0,127.0,128.0,35.0,-117.0,-58.0,127.0,127.0,127.0,123.0,91.0,-90.0
128.0,127.0,126.0,126.0,127.0,127.0,126.0,127.0,35.0,-117.0,-58.0,127.0,127.0,127.0,123.0,91.0,-90.0
128.0,127.0,126.0,126.0,127.0,127.0,126.0,127.0,35.0,-117.0,-58.0,127.0,127.0,127.0,123.0,91.0,-90.0
128.0,127.0,127.0,126.0,127.0,126.0,126.0,127.0,35.0,-117.0,-58.0,127.0,127.0,127.0,123.0,91.0,-90.0
128.0,127.0,127.0,126.0,127.0,126.0,127.0,127.0,35.0,-117.0,-58.0,127.0,127.0,127.0,123.0,91.0,-90.0
128.0,127.0,126.0,126.0,127.0,126.0,127.0,127.0,35.0,-117.0,-58.0,127.0,127.0,127.0,123.0,91.0,-90.0
128.0,127.0,126.0,127.0,127.0,127.0,126.0,127.0,35.0,-117.0,-58.0,127.0,127.0,127.0,123.0,91.0,-90.0
128.0,128.0,125.0,127.0,127.0,128.0,126.0,128.0,35.0,-117.0,-58.0,127.0,127.0,127.0,123.0,91.0,-90.0
128.0,128.0,125.0,127.0,127.0,127.0,126.0,128.0,35.0,-117.0,-58.0,127.0,127.0,127.0,123.0,91.0,-90.0
128.0,128.0,125.0,127.0,127.0,127.0,127.0,128.0,35.0,-117.0,-58.0,127.0,127.0,127.0,123.0,91.0,-90.0
128.0,128.0,125.0,127.0,127.0,127.0,127.0,128.0,35.0,-117.0,-58.0,127.0,127.0,127.0,123.0,91.0,-90.0
127.0,127.0,128.0,127.0,127.0,126.0,127.0,127.0,36.0,-117.0,-58.0,127.0,127.0,127.0,123.0,91.0,-90.0
127.0,126.0,128.0,127.0,127.0,126.0,127.0,127.0,36.0,-117.0,-58.0,127.0,127.0,127.0,123.0,91.0,-90.0
127.0,126.0,128.0,127.0,127.0,126.0,127.0,127.0,36.0,-117.0,-58.0,127.0,127.0,127.0,123.0,91.0,-90.0
127.0,126.0,128.0,127.0,127.0,126.0,127.0,127.0,36.0,-117.0,-58.0,127.0,127.0,127.0,123.0,91.0,-90.0
127.0,127.0,127.0,127.0,127.0,127.0,127.0,127.0,36.0,-117.0,-58.0,127.0,127.0,127.0,123.0,91.0,-90.0
127.0,127.0,126.0,127.0,127.0,127.0,127.0,127.0,36.0,-117.0,-58.0,127.0,127.0,127.0,123.0,91.0,-90.0
128.0,127.0,126.0,127.0,127.0,127.0,127.0,127.0,36.0,-117.0,-58.0,127.0,127.0,127.0,123.0,91.0,-90.0
128.0,127.0,126.0,127.0,127.0,127.0,127.0,127.0,36.0,-117.0,-58.0,127.0,127.0,127.0,123.0,91.0,-90.0
128.0,127.0,126.0,127.0,127.0,127.0,127.0,127.0,36.0,-117.0,-58.0,127.0,127.0,127.0,123.0,91.0,-90.0
127.0,127.0,128.0,126.0,127.0,127.0,127.0,128.0,36.0,-117.0,-58.0,127.0,127.0,127.0,123.0,91.0,-90.0
128.0,125.0,125.0,126.0,126.0,124.0,126.0,127.0,36.0,-117.0,-58.0,127.0,127.0,127.0,123.0,91.0,-90.0
128.0,125.0,125.0,126.0,127.0,124.0,126.0,127.0,36.0,-117.0,-58.0,127.0,127.0,127.0,123.0,91.0,-90.0
128.0,126.0,125.0,126.0,127.0,124.0,126.0,127.0,36.0,-117.0,-58.0,127.0,127.0,127.0,123.0,91.0,-90.0
128.0,125.0,125.0,127.0,127.0,124.0,126.0,127.0,36.0,-117.0,-58.0,127.0,127.0,127.0,123.0,91.0,-90.0
128.0,126.0,124.0,127.0,127.0,124.0,126.0,127.0,36.0,-117.0,-58.0,127.0,127.0,127.0,123.0,91.0,-90.0
128.0,126.0,124.0,127.0,127.0,124.0,126.0,127.0,36.0,-117.0,-58.0,127.0,127.0,127.0,123.0,91.0,-90.0
128.0,126.0,124.0,127.0,127.0,125.0,126.0,127.0,36.0,-117.0,-58.0,127.0,127.0,127.0,123.0,91.0,-90.0
129.0,127.0,123.0,128.0,127.0,126.0,126.0,127.0,36.0,-117.0,-58.0,127.0,127.0,127.0,123.0,91.0,-90.0
128.0,125.0,125.0,125.0,126.0,124.0,126.0,127.0,36.0,-117.0,-58.0,127.0,127.0,127.0,123.0,91.0,-90.0
128.0,125.0,125.0,126.0,126.0,124.0,126.0,127.0,36.0,-117.0,-58.0,127.0,127.0,127.0,123.0,91.0,-90.0
128.0,126.0,136.0,135.0,127.0,124.0,127.0,127.0,36.0,-117.0,-58.0,127.0,127.0,127.0,123.0,91.0,-90.0
127.0,126.0,137.0,135.0,127.0,124.0,127.0,127.0,36.0,-117.0,-58.0,127.0,127.0,127.0,123.0,91.0,-90.0
127.0,126.0,137.0,135.0,126.0,123.0,127.0,127.0,36.0,-117.0,-58.0,127.0,127.0,127.0,123.0,91.0,-90.0
127.0,125.0,138.0,135.0,126.0,123.0,127.0,127.0,36.0,-117.0,-58.0,127.0,127.0,127.0,123.0,91.0,-90.0
127.0,125.0,138.0,136.0,126.0,123.0,127.0,127.0,36.0,-117.0,-58.0,127.0,127.0,127.0,123.0,91.0,-90.0
127.0,125.0,139.0,136.0,126.0,123.0,127.0,127.0,36.0,-117.0,-58.0,127.0,127.0,127.0,123.0,91.0,-90.0
127.0,125.0,139.0,136.0,126.0,122.0,127.0,127.0,36.0,-117.0,-58.0,127.0,127.0,127.0,123.0,91.0,-90.0
128.0,126.0,135.0,135.0,127.0,123.0,127.0,127.0,36.0,-117.0,-58.0,127.0,127.0,127.0,123.0,91.0,-90.0
128.0,126.0,135.0,135.0,127.0,123.0,127.0,127.0,36.0,-117.0,-58.0,127.0,127.0,127.0,123.0,91.0,-90.0
128.0,126.0,136.0,135.0,127.0,123.0,127.0,127.0,36.0,-117.0,-58.0,127.0,127.0,127.0,123.0,91.0,-90.0
127.0,125.0,181.0,166.0,127.0,123.0,127.0,128.0,36.0,-117.0,-58.0,127.0,127.0,127.0,123.0,91.0,-90.0
127.0,125.0,182.0,168.0,127.0,122.0,127.0,128.0,36.0,-117.0,-58.0,127.0,127.0,127.0,123.0,91.0,-90.0
127.0,125.0,183.0,168.0,127.0,122.0,127.0,128.0,36.0,-117.0,-58.0,127.0,127.0,127.0,123.0,91.0,-90.0
127.0,124.0,183.0,169.0,127.0,122.0,127.0,128.0,36.0,-117.0,-58.0,127.0,127.0,127.0,123.0,91.0,-90.0
127.0,124.0,183.0,170.0,126.0,122.0,127.0,128.0,36.0,-117.0,-58.0,127.0,127.0,127.0,123.0,91.0,-90.0
126.0,124.0,183.0,170.0,126.0,121.0,127.0,128.0,36.0,-117.0,-58.0,127.0,127.0,127.0,123.0,91.0,-90.0
127.0,124.0,178.0,163.0,127.0,121.0,127.0,128.0,36.0,-117.0,-58.0,127.0,127.0,127.0,123.0,91.0,-90.0
127.0,125.0,178.0,163.0,127.0,121.0,127.0,128.0,36.0,-117.0,-58.0,127.0,127.0,127.0,123.0,91.0,-90.0
127.0,125.0,179.0,164.0,127.0,122.0,127.0,128.0,36.0,-117.0,-58.0,127.0,127.0,127.0,123.0,91.0,-90.0
127.0,125.0,180.0,165.0,127.0,123.0,127.0,128.0,36.0,-117.0,-58.0,127.0,127.0,127.0,123.0,91.0,-90.0
128.0,128.0,254.0,199.0,131.0,115.0,128.0,129.0,36.0,-118.0,-58.0,127.0,127.0,127.0,123.0,91.0,-90.0
128.0,128.0,254.0,200.0,131.0,114.0,128.0,129.0,36.0,-118.0,-58.0,127.0,127.0,127.0,123.0,91.0,-90.0
128.0,128.0,254.0,201.0,131.0,114.0,128.0,129.0,36.0,-118.0,-58.0,127.0,127.0,127.0,123.0,91.0,-90.0
128.0,127.0,254.0,201.0,131.0,114.0,128.0,129.0,36.0,-118.0,-58.0,127.0,127.0,127.0,123.0,91.0,-90.0
128.0,127.0,254.0,202.0,131.0,113.0,128.0,129.0,36.0,-118.0,-58.0,127.0,127.0,127.0,123.0,91.0,-90.0
127.0,127.0,235.0,193.0,129.0,115.0,127.0,128.0,36.0,-118.0,-58.0,127.0,127.0,127.0,123.0,91.0,-90.0
127.0,127.0,239.0,194.0,130.0,115.0,128.0,129.0,36.0,-118.0,-58.0,127.0,127.0,127.0,123.0,91.0,-90.0
127.0,127.0,244.0,196.0,130.0,115.0,128.0,128.0,36.0,-118.0,-58.0,127.0,127.0,127.0,123.0,91.0,-90.0
127.0,128.0,248.0,197.0,130.0,116.0,128.0,129.0,36.0,-118.0,-58.0,127.0,127.0,127.0,123.0,91.0,-90.0
128.0,128.0,253.0,198.0,130.0,115.0,128.0,129.0,36.0,-118.0,-58.0,127.0,127.0,127.0,123.0,91.0,-90.0
126.0,125.0,252.0,210.0,131.0,115.0,127.0,128.0,36.0,-119.0,-58.0,-128.0,127.0,127.0,123.0,91.0,-90.0
127.0,126.0,252.0,211.0,131.0,115.0,127.0,129.0,36.0,-119.0,-58.0,-128.0,127.0,127.0,123.0,91.0,-90.0
127.0,126.0,252.0,212.0,132.0,115.0,127.0,129.0,36.0,-119.0,-58.0,-128.0,127.0,127.0,123.0,91.0,-90.0
128.0,127.0,251.0,213.0,132.0,115.0,127.0,129.0,36.0,-119.0,-58.0,-128.0,127.0,127.0,123.0,91.0,-90.0
124.0,122.0,254.0,204.0,128.0,112.0,126.0,127.0,36.0,-119.0,-58.0,-128.0,127.0,127.0,123.0,91.0,-90.0
124.0,122.0,254.0,205.0,128.0,112.0,126.0,127.0,36.0,-119.0,-58.0,-128.0,127.0,127.0,123.0,91.0,-90.0
124.0,123.0,253.0,206.0,128.0,112.0,126.0,128.0,36.0,-119.0,-58.0,-128.0,127.0,127.0,123.0,91.0,-90.0
125.0,123.0,253.0,207.0,129.0,113.0,126.0,128.0,36.0,-119.0,-58.0,-128.0,127.0,127.0,123.0,91.0,-90.0
125.0,124.0,252.0,207.0,129.0,114.0,126.0,128.0,36.0,-119.0,-58.0,-128.0,127.0,127.0,123.0,91.0,-90.0
126.0,124.0,252.0,209.0,130.0,114.0,127.0,128.0,36.0,-119.0,-58.0,-128.0,127.0,127.0,123.0,91.0,-90.0
118.0,118.0,217.0,200.0,128.0,111.0,127.0,127.0,36.0,-119.0,-58.0,-128.0,127.0,127.0,123.0,91.0,-90.0
118.0,118.0,215.0,200.0,128.0,111.0,127.0,127.0,36.0,-119.0,-58.0,-128.0,127.0,127.0,123.0,91.0,-90.0
119.0,117.0,213.0,200.0,127.0,110.0,127.0,127.0,36.0,-119.0,-58.0,-128.0,127.0,127.0,123.0,91.0,-90.0
120.0,121.0,223.0,200.0,128.0,112.0,127.0,128.0,36.0,-119.0,-58.0,-128.0,127.0,127.0,123.0,91.0,-90.0
119.0,120.0,223.0,200.0,128.0,112.0,127.0,128.0,36.0,-119.0,-58.0,-128.0,127.0,127.0,123.0,91.0,-90.0
119.0,120.0,222.0,199.0,128.0,112.0,127.0,128.0,36.0,-119.0,-58.0,-128.0,127.0,127.0,123.0,91.0,-90.0
118.0,120.0,222.0,199.0,128.0,112.0,127.0,128.0,36.0,-119.0,-58.0,-128.0,127.0,127.0,123.0,91.0,-90.0
118.0,119.0,221.0,198.0,128.0,111.0,127.0,128.0,36.0,-119.0,-58.0,-128.0,127.0,127.0,123.0,91.0,-90.0
118.0,119.0,220.0,199.0,128.0,111.0,127.0,128.0,36.0,-119.0,-58.0,-128.0,127.0,127.0,123.0,91.0,-90.0
118.0,119.0,218.0,199.0,128.0,111.0,127.0,127.0,36.0,-119.0,-58.0,-128.0,127.0,127.0,123.0,91.0,-90.0
122.0,122.0,109.0,192.0,129.0,104.0,128.0,128.0,37.0,-119.0,-58.0,-128.0,127.0,127.0,123.0,91.0,-90.0
121.0,122.0,107.0,192.0,129.0,104.0,128.0,128.0,37.0,-119.0,-58.0,-128.0,127.0,127.0,123.0,91.0,-90.0
126.0,127.0,123.0,193.0,130.0,107.0,128.0,130.0,37.0,-119.0,-58.0,-128.0,127.0,127.0,123.0,91.0,-90.0
125.0,126.0,121.0,193.0,129.0,107.0,128.0,130.0,37.0,-119.0,-58.0,-128.0,127.0,127.0,123.0,91.0,-90.0
124.0,125.0,119.0,193.0,129.0,107.0,128.0,130.0,37.0,-119.0,-58.0,-128.0,127.0,127.0,123.0,91.0,-90.0
124.0,124.0,117.0,193.0,129.0,106.0,128.0,129.0,37.0,-119.0,-58.0,-128.0,127.0,127.0,123.0,91.0,-90.0
123.0,124.0,115.0,193.0,129.0,106.0,128.0,129.0,37.0,-119.0,-58.0,-128.0,127.0,127.0,123.0,91.0,-90.0
123.0,123.0,113.0,193.0,129.0,106.0,128.0,129.0,37.0,-119.0,-58.0,-128.0,127.0,127.0,123.0,91.0,-90.0
122.0,123.0,112.0,193.0,129.0,105.0,128.0,129.0,37.0,-119.0,-58.0,-128.0,127.0,127.0,123.0,91.0,-90.0
122.0,122.0,110.0,193.0,129.0,104.0,128.0,129.0,37.0,-119.0,-58.0,-128.0,127.0,127.0,123.0,91.0,-90.0
124.0,127.0,53.0,174.0,131.0,94.0,127.0,127.0,37.0,-118.0,-58.0,-128.0,127.0,127.0,123.0,91.0,-90.0
127.0,127.0,57.0,173.0,129.0,97.0,127.0,130.0,37.0,-118.0,-58.0,-128.0,127.0,127.0,123.0,91.0,-90.0
127.0,127.0,57.0,173.0,129.0,96.0,127.0,130.0,37.0,-118.0,-58.0,-128.0,127.0,127.0,123.0,91.0,-90.0
127.0,127.0,56.0,174.0,130.0,96.0,127.0,129.0,37.0,-118.0,-58.0,-128.0,127.0,127.0,123.0,91.0,-90.0
127.0,126.0,55.0,174.0,130.0,96.0,127.0,129.0,37.0,-118.0,-58.0,-128.0,127.0,127.0,123.0,91.0,-90.0
126.0,126.0,55.0,175.0,130.0,95.0,127.0,128.0,37.0,-118.0,-58.0,-128.0,127.0,127.0,123.0,91.0,-90.0
126.0,126.0,54.0,175.0,130.0,95.0,127.0,128.0,37.0,-118.0,-58.0,-128.0,127.0,127.0,123.0,91.0,-90.0
125.0,125.0,54.0,175.0,130.0,95.0,127.0,127.0,37.0,-118.0,-58.0,-128.0,127.0,127.0,123.0,91.0,-90.0
125.0,125.0,54.0,175.0,131.0,94.0,127.0,127.0,37.0,-118.0,-58.0,-128.0,127.0,127.0,123.0,91.0,-90.0
125.0,126.0,53.0,174.0,131.0,95.0,127.0,127.0,37.0,-118.0,-58.0,-128.0,127.0,127.0,123.0,91.0,-90.0
127.0,132.0,50.0,175.0,132.0,94.0,127.0,130.0,37.0,-118.0,-59.0,-128.0,127.0,127.0,123.0,91.0,-90.0
127.0,132.0,50.0,174.0,132.0,95.0,127.0,130.0,37.0,-118.0,-59.0,-128.0,127.0,127.0,123.0,91.0,-90.0
127.0,132.0,50.0,174.0,132.0,95.0,127.0,129.0,37.0,-118.0,-59.0,-128.0,127.0,127.0,123.0,91.0,-90.0
127.0,131.0,50.0,173.0,132.0,95.0,127.0,129.0,37.0,-118.0,-59.0,-128.0,127.0,127.0,123.0,91.0,-90.0
128.0,130.0,50.0,173.0,132.0,95.0,127.0,129.0,37.0,-118.0,-59.0,-128.0,127.0,127.0,123.0,91.0,-90.0
128.0,129.0,50.0,173.0,132.0,95.0,127.0,128.0,37.0,-118.0,-59.0,-128.0,127.0,127.0,123.0,91.0,-90.0
128.0,128.0,50.0,172.0,131.0,94.0,127.0,128.0,37.0,-118.0,-59.0,-128.0,127.0,127.0,123.0,91.0,-90.0
129.0,127.0,50.0,172.0,131.0,95.0,127.0,128.0,37.0,-118.0,-59.0,-128.0,127.0,127.0,123.0,91.0,-90.0
129.0,127.0,50.0,171.0,131.0,95.0,127.0,128.0,37.0,-118.0,-59.0,-128.0,127.0,127.0,123.0,91.0,-90.0
129.0,126.0,50.0,170.0,131.0,95.0,127.0,128.0,37.0,-118.0,-59.0,-128.0,127.0,127.0,123.0,91.0,-90.0
136.0,143.0,73.0,174.0,134.0,87.0,132.0,133.0,37.0,-118.0,-60.0,127.0,127.0,127.0,123.0,91.0,-90.0
136.0,143.0,72.0,174.0,134.0,87.0,132.0,134.0,37.0,-118.0,-60.0,127.0,127.0,127.0,123.0,91.0,-90.0
136.0,143.0,72.0,174.0,134.0,87.0,132.0,136.0,37.0,-118.0,-60.0,127.0,127.0,127.0,123.0,91.0,-90.0
136.0,143.0,72.0,173.0,134.0,87.0,132.0,137.0,37.0,-118.0,-60.0,127.0,127.0,127.0,123.0,91.0,-90.0
136.0,143.0,72.0,173.0,134.0,86.0,132.0,138.0,37.0,-118.0,-60.0,127.0,127.0,127.0,123.0,91.0,-90.0
136.0,142.0,72.0,173.0,135.0,86.0,132.0,138.0,37.0,-118.0,-60.0,127.0,127.0,127.0,123.0,91.0,-90.0
136.0,142.0,71.0,174.0,135.0,87.0,132.0,139.0,37.0,-118.0,-60.0,127.0,127.0,127.0,123.0,91.0,-90.0
136.0,142.0,71.0,174.0,135.0,87.0,132.0,139.0,37.0,-118.0,-60.0,127.0,127.0,127.0,123.0,91.0,-90.0
136.0,142.0,71.0,174.0,135.0,87.0,132.0,139.0,37.0,-118.0,-60.0,127.0,127.0,127.0,123.0,91.0,-90.0
136.0,143.0,73.0,175.0,134.0,86.0,132.0,131.0,37.0,-118.0,-60.0,127.0,127.0,127.0,123.0,91.0,-90.0
131.0,133.0,51.0,174.0,138.0,66.0,130.0,114.0,37.0,-118.0,-60.0,-128.0,127.0,127.0,123.0,91.0,-90.0
132.0,132.0,50.0,173.0,138.0,65.0,130.0,116.0,37.0,-118.0,-60.0,-128.0,127.0,127.0,123.0,91.0,-90.0
132.0,131.0,50.0,173.0,138.0,63.0,130.0,117.0,37.0,-118.0,-60.0,-128.0,127.0,127.0,123.0,91.0,-90.0
132.0,130.0,49.0,173.0,138.0,62.0,129.0,118.0,37.0,-118.0,-60.0,-128.0,127.0,127.0,123.0,91.0,-90.0
132.0,130.0,48.0,173.0,138.0,61.0,129.0,119.0,37.0,-118.0,-60.0,-128.0,127.0,127.0,123.0,91.0,-90.0
132.0,130.0,47.0,173.0,138.0,61.0,129.0,120.0,37.0,-118.0,-60.0,-128.0,127.0,127.0,123.0,91.0,-90.0
132.0,130.0,46.0,173.0,138.0,61.0,129.0,121.0,37.0,-118.0,-60.0,-128.0,127.0,127.0,123.0,91.0,-90.0
133.0,130.0,45.0,172.0,138.0,60.0,129.0,123.0,37.0,-118.0,-60.0,-128.0,127.0,127.0,123.0,91.0,-90.0
131.0,134.0,53.0,174.0,138.0,66.0,130.0,110.0,37.0,-118.0,-60.0,-128.0,127.0,127.0,123.0,91.0,-90.0
131.0,134.0,52.0,174.0,138.0,66.0,130.0,112.0,37.0,-118.0,-60.0,-128.0,127.0,127.0,123.0,91.0,-90.0
132.0,127.0,31.0,177.0,140.0,33.0,126.0,104.0,37.0,-118.0,-60.0,-128.0,127.0,127.0,123.0,91.0,-90.0
131.0,127.0,32.0,176.0,140.0,32.0,125.0,101.0,37.0,-118.0,-60.0,-128.0,127.0,127.0,123.0,91.0,-90.0
131.0,126.0,32.0,176.0,140.0,31.0,125.0,98.0,37.0,-118.0,-60.0,-128.0,127.0,127.0,123.0,91.0,-90.0
130.0,126.0,33.0,176.0,140.0,31.0,124.0,94.0,37.0,-118.0,-60.0,-128.0,127.0,127.0,123.0,91.0,-90.0
130.0,125.0,33.0,177.0,140.0,31.0,124.0,90.0,37.0,-118.0,-60.0,-128.0,127.0,127.0,123.0,91.0,-90.0
129.0,125.0,34.0,178.0,140.0,31.0,124.0,86.0,37.0,-118.0,-60.0,-128.0,127.0,127.0,123.0,91.0,-90.0
129.0,124.0,35.0,178.0,140.0,31.0,123.0,82.0,37.0,-118.0,-60.0,-128.0,127.0,127.0,123.0,91.0,-90.0
134.0,128.0,31.0,178.0,140.0,33.0,127.0,109.0,37.0,-118.0,-60.0,-128.0,127.0,127.0,123.0,91.0,-90.0
133.0,128.0,31.0,177.0,140.0,34.0,126.0,108.0,37.0,-118.0,-60.0,-128.0,127.0,127.0,123.0,91.0,-90.0
133.0,128.0,31.0,177.0,140.0,34.0,126.0,107.0,37.0,-118.0,-60.0,-128.0,127.0,127.0,123.0,91.0,-90.0
130.0,121.0,88.0,162.0,139.0,8.0,123.0,135.0,37.0,-117.0,-59.0,-128.0,127.0,127.0,123.0,91.0,-90.0
130.0,121.0,90.0,162.0,139.0,7.0,123.0,135.0,37.0,-117.0,-59.0,-128.0,127.0,127.0,123.0,91.0,-90.0
130.0,122.0,92.0,162.0,139.0,6.0,122.0,135.0,37.0,-117.0,-59.0,-128.0,127.0,127.0,123.0,91.0,-90.0
130.0,122.0,94.0,163.0,139.0,5.0,122.0,135.0,37.0,-117.0,-59.0,-128.0,127.0,127.0,123.0,91.0,-90.0
130.0,122.0,96.0,164.0,140.0,5.0,121.0,134.0,37.0,-117.0,-59.0,-128.0,127.0,127.0,123.0,91.0,-90.0
130.0,123.0,98.0,165.0,140.0,4.0,121.0,133.0,37.0,-117.0,-59.0,-128.0,127.0,127.0,123.0,91.0,-90.0
131.0,121.0,81.0,166.0,140.0,11.0,125.0,137.0,37.0,-117.0,-59.0,-128.0,127.0,127.0,123.0,91.0,-90.0
131.0,121.0,82.0,164.0,139.0,10.0,124.0,136.0,37.0,-117.0,-59.0,-128.0,127.0,127.0,123.0,91.0,-90.0
130.0,121.0,84.0,163.0,139.0,10.0,124.0,136.0,37.0,-117.0,-59.0,-128.0,127.0,127.0,123.0,91.0,-90.0
130.0,121.0,86.0,162.0,139.0,9.0,123.0,135.0,37.0,-117.0,-59.0,-128.0,127.0,127.0,123.0,91.0,-90.0
125.0,128.0,137.0,159.0,140.0,0.0,125.0,136.0,36.0,-113.0,-57.0,-128.0,127.0,127.0,123.0,91.0,-90.0
125.0,128.0,137.0,159.0,141.0,0.0,126.0,135.0,36.0,-113.0,-57.0,-128.0,127.0,127.0,123.0,91.0,-90.0
125.0,128.0,137.0,158.0,141.0,0.0,126.0,135.0,36.0,-113.0,-57.0,-128.0,127.0,127.0,123.0,91.0,-90.0
125.0,129.0,137.0,158.0,141.0,0.0,126.0,135.0,36.0,-113.0,-57.0,-128.0,127.0,127.0,123.0,91.0,-90.0
125.0,129.0,136.0,158.0,141.0,0.0,126.0,134.0,36.0,-113.0,-57.0,-128.0,127.0,127.0,123.0,91.0,-90.0
125.0,125.0,137.0,151.0,138.0,0.0,123.0,136.0,36.0,-113.0,-57.0,-128.0,127.0,127.0,123.0,91.0,-90.0
125.0,126.0,137.0,154.0,138.0,0.0,123.0,136.0,36.0,-113.0,-57.0,-128.0,127.0,127.0,123.0,91.0,-90.0
125.0,127.0,137.0,156.0,139.0,0.0,124.0,136.0,36.0,-113.0,-57.0,-128.0,127.0,127.0,123.0,91.0,-90.0
125.0,127.0,137.0,159.0,139.0,0.0,124.0,136.0,36.0,-113.0,-57.0,-128.0,127.0,127.0,123.0,91.0,-90.0
125.0,128.0,137.0,159.0,140.0,0.0,125.0,136.0,36.0,-113.0,-57.0,-128.0,127.0,127.0,123.0,91.0,-90.0
125.0,124.0,161.0,140.0,139.0,0.0,125.0,128.0,36.0,-111.0,-56.0,127.0,127.0,127.0,123.0,91.0,-90.0
125.0,124.0,162.0,141.0,139.0,0.0,125.0,125.0,36.0,-111.0,-56.0,127.0,127.0,127.0,123.0,91.0,-90.0
125.0,124.0,162.0,143.0,139.0,0.0,125.0,123.0,36.0,-111.0,-56.0,127.0,127.0,127.0,123.0,91.0,-90.0
125.0,124.0,163.0,145.0,139.0,0.0,125.0,121.0,36.0,-111.0,-56.0,127.0,127.0,127.0,123.0,91.0,-90.0
126.0,125.0,157.0,144.0,141.0,0.0,125.0,135.0,36.0,-111.0,-56.0,127.0,127.0,127.0,123.0,91.0,-90.0
126.0,125.0,158.0,143.0,141.0,0.0,125.0,134.0,36.0,-111.0,-56.0,127.0,127.0,127.0,123.0,91.0,-90.0
126.0,126.0,158.0,142.0,141.0,0.0,125.0,134.0,36.0,-111.0,-56.0,127.0,127.0,127.0,123.0,91.0,-90.0
126.0,125.0,158.0,141.0,140.0,0.0,126.0,133.0,36.0,-111.0,-56.0,127.0,127.0,127.0,123.0,91.0,-90.0
126.0,125.0,159.0,140.0,140.0,0.0,126.0,132.0,36.0,-111.0,-56.0,127.0,127.0,127.0,123.0,91.0,-90.0
125.0,125.0,160.0,140.0,139.0,0.0,126.0,130.0,36.0,-111.0,-56.0,127.0,127.0,127.0,123.0,91.0,-90.0
128.0,122.0,146.0,128.0,130.0,7.0,125.0,125.0,36.0,-111.0,-57.0,127.0,127.0,127.0,123.0,91.0,-90.0
128.0,123.0,146.0,128.0,130.0,9.0,124.0,124.0,36.0,-111.0,-57.0,127.0,127.0,127.0,123.0,91.0,-90.0
128.0,123.0,146.0,129.0,130.0,10.0,124.0,122.0,36.0,-111.0,-57.0,127.0,127.0,127.0,123.0,91.0,-90.0
127.0,123.0,150.0,131.0,134.0,1.0,126.0,131.0,36.0,-111.0,-57.0,127.0,127.0,127.0,123.0,91.0,-90.0
127.0,123.0,149.0,131.0,133.0,2.0,126.0,131.0,36.0,-111.0,-57.0,127.0,127.0,127.0,123.0,91.0,-90.0
127.0,123.0,147.0,130.0,133.0,4.0,126.0,131.0,36.0,-111.0,-57.0,127.0,127.0,127.0,123.0,91.0,-90.0
127.0,123.0,147.0,129.0,132.0,5.0,125.0,130.0,36.0,-111.0,-57.0,127.0,127.0,127.0,123.0,91.0,-90.0
127.0,123.0,147.0,129.0,132.0,5.0,125.0,129.0,36.0,-111.0,-57.0,127.0,127.0,127.0,123.0,91.0,-90.0
128.0,122.0,146.0,129.0,131.0,5.0,125.0,128.0,36.0,-111.0,-57.0,127.0,127.0,127.0,123.0,91.0,-90.0
128.0,122.0,146.0,129.0,131.0,6.0,125.0,127.0,36.0,-111.0,-57.0,127.0,127.0,127.0,123.0,91.0,-90.0
123.0,120.0,152.0,142.0,123.0,54.0,124.0,131.0,35.0,-112.0,-57.0,127.0,127.0,127.0,123.0,91.0,-90.0
123.0,120.0,152.0,142.0,123.0,55.0,124.0,131.0,35.0,-112.0,-57.0,127.0,127.0,127.0,123.0,91.0,-90.0
123.0,121.0,156.0,140.0,126.0,49.0,125.0,130.0,35.0,-112.0,-57.0,127.0,127.0,127.0,123.0,91.0,-90.0
123.0,121.0,155.0,140.0,126.0,50.0,125.0,130.0,35.0,-112.0,-57.0,127.0,127.0,127.0,123.0,91.0,-90.0
123.0,121.0,154.0,140.0,125.0,50.0,125.0,130.0,35.0,-112.0,-57.0,127.0,127.0,127.0,123.0,91.0,-90.0
123.0,121.0,154.0,141.0,125.0,51.0,125.0,131.0,35.0,-112.0,-57.0,127.0,127.0,127.0,123.0,91.0,-90.0
123.0,120.0,153.0,142.0,125.0,52.0,125.0,131.0,35.0,-112.0,-57.0,127.0,127.0,127.0,123.0,91.0,-90.0
123.0,121.0,153.0,142.0,124.0,53.0,125.0,131.0,35.0,-112.0,-57.0,127.0,127.0,127.0,123.0,91.0,-90.0
123.0,121.0,152.0,142.0,124.0,53.0,125.0,131.0,35.0,-112.0,-57.0,127.0,127.0,127.0,123.0,91.0,-90.0
123.0,121.0,152.0,142.0,124.0,54.0,125.0,131.0,35.0,-112.0,-57.0,127.0,127.0,127.0,123.0,91.0,-90.0
122.0,122.0,151.0,133.0,119.0,74.0,124.0,120.0,35.0,-111.0,-57.0,127.0,126.0,127.0,122.0,91.0,-90.0
123.0,122.0,155.0,137.0,121.0,73.0,124.0,119.0,35.0,-111.0,-57.0,127.0,126.0,127.0,122.0,91.0,-90.0
123.0,122.0,155.0,136.0,121.0,73.0,124.0,119.0,35.0,-111.0,-57.0,127.0,126.0,127.0,122.0,91.0,-90.0
123.0,122.0,155.0,135.0,121.0,73.0,124.0,120.0,35.0,-111.0,-57.0,127.0,126.0,127.0,122.0,91.0,-90.0
123.0,122.0,154.0,134.0,120.0,73.0,124.0,120.0,35.0,-111.0,-57.0,127.0,126.0,127.0,122.0,91.0,-90.0
122.0,122.0,154.0,133.0,120.0,73.0,124.0,120.0,35.0,-111.0,-57.0,127.0,126.0,127.0,122.0,91.0,-90.0
122.0,123.0,153.0,133.0,120.0,74.0,124.0,120.0,35.0,-111.0,-57.0,127.0,126.0,127.0,122.0,91.0,-90.0
122.0,123.0,152.0,133.0,120.0,74.0,124.0,120.0,35.0,-111.0,-57.0,127.0,126.0,127.0,122.0,91.0,-90.0
122.0,123.0,152.0,133.0,120.0,74.0,124.0,120.0,35.0,-111.0,-57.0,127.0,126.0,127.0,122.0,91.0,-90.0
122.0,123.0,151.0,133.0,119.0,74.0,124.0,120.0,35.0,-111.0,-57.0,127.0,126.0,127.0,122.0,91.0,-90.0
126.0,122.0,130.0,139.0,119.0,80.0,127.0,128.0,36.0,-109.0,-55.0,127.0,126.0,127.0,122.0,91.0,-90.0
126.0,122.0,130.0,139.0,119.0,80.0,127.0,129.0,36.0,-109.0,-55.0,127.0,126.0,127.0,122.0,91.0,-90.0
126.0,122.0,130.0,139.0,119.0,80.0,127.0,129.0,36.0,-109.0,-55.0,127.0,126.0,127.0,122.0,91.0,-90.0
126.0,122.0,129.0,138.0,119.0,80.0,127.0,129.0,36.0,-109.0,-55.0,127.0,126.0,127.0,122.0,91.0,-90.0
126.0,122.0,129.0,138.0,118.0,81.0,127.0,128.0,36.0,-109.0,-55.0,127.0,126.0,127.0,122.0,91.0,-90.0
126.0,122.0,128.0,139.0,118.0,81.0,127.0,128.0,36.0,-109.0,-55.0,127.0,126.0,127.0,122.0,91.0,-90.0
126.0,122.0,127.0,140.0,119.0,82.0,127.0,127.0,36.0,-109.0,-55.0,127.0,126.0,127.0,122.0,91.0,-90.0
126.0,122.0,127.0,141.0,119.0,82.0,127.0,127.0,36.0,-109.0,-55.0,127.0,126.0,127.0,122.0,91.0,-90.0
126.0,122.0,126.0,142.0,119.0,82.0,127.0,127.0,36.0,-109.0,-55.0,127.0,126.0,127.0,122.0,91.0,-90.0
126.0,122.0,126.0,141.0,119.0,83.0,127.0,127.0,36.0,-109.0,-55.0,127.0,126.0,127.0,122.0,91.0,-90.0
124.0,121.0,104.0,122.0,116.0,85.0,127.0,122.0,37.0,-109.0,-55.0,126.0,126.0,127.0,122.0,91.0,-90.0
125.0,121.0,104.0,123.0,116.0,84.0,127.0,123.0,37.0,-109.0,-55.0,126.0,126.0,127.0,122.0,91.0,-90.0
125.0,121.0,104.0,124.0,116.0,84.0,127.0,125.0,37.0,-109.0,-55.0,126.0,126.0,127.0,122.0,91.0,-90.0
125.0,121.0,104.0,124.0,117.0,84.0,127.0,126.0,37.0,-109.0,-55.0,126.0,126.0,127.0,122.0,91.0,-90.0
125.0,121.0,103.0,123.0,117.0,84.0,127.0,127.0,37.0,-109.0,-55.0,126.0,126.0,127.0,122.0,91.0,-90.0
126.0,122.0,102.0,122.0,117.0,85.0,128.0,128.0,37.0,-109.0,-55.0,126.0,126.0,127.0,122.0,91.0,-90.0
126.0,122.0,102.0,121.0,117.0,84.0,128.0,129.0,37.0,-109.0,-55.0,126.0,126.0,127.0,122.0,91.0,-90.0
126.0,122.0,101.0,121.0,118.0,84.0,128.0,129.0,37.0,-109.0,-55.0,126.0,126.0,127.0,122.0,91.0,-90.0
126.0,122.0,101.0,121.0,118.0,84.0,128.0,129.0,37.0,-109.0,-55.0,126.0,126.0,127.0,122.0,91.0,-90.0
124.0,120.0,105.0,122.0,116.0,85.0,127.0,122.0,37.0,-109.0,-55.0,126.0,126.0,127.0,122.0,91.0,-90.0
125.0,120.0,103.0,125.0,120.0,68.0,127.0,129.0,38.0,-110.0,-55.0,126.0,126.0,127.0,122.0,91.0,-90.0
125.0,120.0,103.0,126.0,120.0,67.0,127.0,129.0,38.0,-110.0,-55.0,126.0,126.0,127.0,122.0,91.0,-90.0
125.0,120.0,104.0,127.0,120.0,67.0,127.0,129.0,38.0,-110.0,-55.0,126.0,126.0,127.0,122.0,91.0,-90.0
125.0,120.0,104.0,127.0,120.0,67.0,127.0,129.0,38.0,-110.0,-55.0,126.0,126.0,127.0,122.0,91.0,-90.0
125.0,120.0,104.0,128.0,120.0,68.0,128.0,129.0,38.0,-110.0,-55.0,126.0,126.0,127.0,122.0,91.0,-90.0
125.0,120.0,105.0,129.0,120.0,68.0,128.0,129.0,38.0,-110.0,-55.0,126.0,126.0,127.0,122.0,91.0,-90.0
125.0,120.0,105.0,129.0,120.0,68.0,128.0,129.0,38.0,-110.0,-55.0,126.0,126.0,127.0,122.0,91.0,-90.0
125.0,120.0,106.0,129.0,120.0,67.0,128.0,128.0,38.0,-110.0,-55.0,126.0,126.0,127.0,122.0,91.0,-90.0
125.0,120.0,102.0,124.0,120.0,69.0,127.0,130.0,38.0,-110.0,-55.0,126.0,126.0,127.0,122.0,91.0,-90.0
125.0,120.0,102.0,125.0,120.0,68.0,127.0,129.0,38.0,-110.0,-55.0,126.0,126.0,127.0,122.0,91.0,-90.0
126.0,121.0,126.0,118.0,120.0,68.0,124.0,126.0,39.0,-112.0,-56.0,126.0,126.0,127.0,122.0,91.0,-90.0
126.0,121.0,127.0,118.0,120.0,68.0,124.0,126.0,39.0,-112.0,-56.0,126.0,126.0,127.0,122.0,91.0,-90.0
126.0,121.0,128.0,118.0,120.0,68.0,124.0,126.0,39.0,-112.0,-56.0,126.0,126.0,127.0,122.0,91.0,-90.0
126.0,122.0,128.0,118.0,120.0,69.0,124.0,126.0,39.0,-112.0,-56.0,126.0,126.0,127.0,122.0,91.0,-90.0
126.0,122.0,128.0,118.0,120.0,68.0,124.0,125.0,39.0,-112.0,-56.0,126.0,126.0,127.0,122.0,91.0,-90.0
126.0,122.0,129.0,117.0,120.0,68.0,124.0,125.0,39.0,-112.0,-56.0,126.0,126.0,127.0,122.0,91.0,-90.0
126.0,122.0,129.0,117.0,120.0,67.0,123.0,124.0,39.0,-112.0,-56.0,126.0,126.0,127.0,122.0,91.0,-90.0
126.0,121.0,124.0,119.0,119.0,69.0,124.0,126.0,39.0,-112.0,-56.0,126.0,126.0,127.0,122.0,91.0,-90.0
126.0,121.0,125.0,119.0,119.0,69.0,124.0,126.0,39.0,-112.0,-56.0,126.0,126.0,127.0,122.0,91.0,-90.0
126.0,121.0,125.0,119.0,119.0,69.0,124.0,126.0,39.0,-112.0,-56.0,126.0,126.0,127.0,122.0,91.0,-90.0
128.0,122.0,132.0,111.0,122.0,58.0,126.0,131.0,41.0,-113.0,-57.0,126.0,126.0,-128.0,122.0,91.0,-90.0
128.0,122.0,132.0,111.0,122.0,58.0,126.0,131.0,41.0,-113.0,-57.0,126.0,126.0,-128.0,122.0,91.0,-90.0
128.0,122.0,131.0,111.0,122.0,59.0,125.0,130.0,41.0,-113.0,-57.0,126.0,126.0,-128.0,122.0,91.0,-90.0
128.0,123.0,130.0,111.0,122.0,59.0,125.0,130.0,41.0,-113.0,-57.0,126.0,126.0,-128.0,122.0,91.0,-90.0
128.0,123.0,130.0,111.0,122.0,59.0,126.0,130.0,41.0,-113.0,-57.0,126.0,126.0,-128.0,122.0,91.0,-90.0
128.0,123.0,129.0,111.0,122.0,59.0,126.0,130.0,41.0,-113.0,-57.0,126.0,126.0,-128.0,122.0,91.0,-90.0
128.0,123.0,132.0,112.0,122.0,58.0,126.0,133.0,41.0,-113.0,-57.0,126.0,126.0,-128.0,122.0,91.0,-90.0
128.0,122.0,131.0,112.0,122.0,58.0,126.0,133.0,41.0,-113.0,-57.0,126.0,126.0,-128.0,122.0,91.0,-90.0
128.0,122.0,132.0,111.0,122.0,58.0,126.0,132.0,41.0,-113.0,-57.0,126.0,126.0,-128.0,122.0,91.0,-90.0
128.0,122.0,132.0,111.0,122.0,58.0,126.0,132.0,41.0,-113.0,-57.0,126.0,126.0,-128.0,122.0,91.0,-90.0
129.0,123.0,127.0,107.0,123.0,64.0,124.0,130.0,41.0,-114.0,-58.0,126.0,127.0,-128.0,122.0,91.0,-90.0
129.0,123.0,125.0,107.0,123.0,65.0,124.0,130.0,41.0,-114.0,-58.0,126.0,127.0,-128.0,122.0,91.0,-90.0
129.0,124.0,124.0,106.0,123.0,66.0,124.0,130.0,41.0,-114.0,-58.0,126.0,127.0,-128.0,122.0,91.0,-90.0
129.0,123.0,124.0,106.0,122.0,66.0,124.0,129.0,41.0,-114.0,-58.0,126.0,127.0,-128.0,122.0,91.0,-90.0
129.0,123.0,123.0,105.0,122.0,66.0,123.0,129.0,41.0,-114.0,-58.0,126.0,127.0,-128.0,122.0,91.0,-90.0
128.0,123.0,129.0,110.0,123.0,64.0,124.0,128.0,41.0,-114.0,-58.0,126.0,127.0,-128.0,122.0,91.0,-90.0
128.0,123.0,128.0,110.0,124.0,64.0,124.0,128.0,41.0,-114.0,-58.0,126.0,127.0,-128.0,122.0,91.0,-90.0
128.0,123.0,128.0,109.0,124.0,64.0,124.0,128.0,41.0,-114.0,-58.0,126.0,127.0,-128.0,122.0,91.0,-90.0
128.0,123.0,128.0,109.0,123.0,64.0,124.0,129.0,41.0,-114.0,-58.0,126.0,127.0,-128.0,122.0,91.0,-90.0
129.0,123.0,127.0,108.0,123.0,64.0,124.0,129.0,41.0,-114.0,-58.0,126.0,127.0,-128.0,122.0,91.0,-90.0
128.0,123.0,129.0,108.0,121.0,48.0,122.0,129.0,42.0,-115.0,-59.0,126.0,127.0,127.0,122.0,91.0,-90.0
128.0,123.0,128.0,107.0,121.0,47.0,122.0,129.0,42.0,-115.0,-59.0,126.0,127.0,127.0,122.0,91.0,-90.0
128.0,123.0,128.0,107.0,121.0,47.0,122.0,129.0,42.0,-115.0,-59.0,126.0,127.0,127.0,122.0,91.0,-90.0
128.0,123.0,127.0,106.0,121.0,47.0,122.0,129.0,42.0,-115.0,-59.0,126.0,127.0,127.0,122.0,91.0,-90.0
128.0,123.0,130.0,111.0,122.0,51.0,122.0,127.0,42.0,-115.0,-59.0,126.0,127.0,127.0,122.0,91.0,-90.0
128.0,123.0,130.0,111.0,122.0,51.0,122.0,129.0,42.0,-115.0,-59.0,126.0,127.0,127.0,122.0,91.0,-90.0
128.0,123.0,129.0,111.0,122.0,50.0,122.0,129.0,42.0,-115.0,-59.0,126.0,127.0,127.0,122.0,91.0,-90.0
128.0,123.0,129.0,110.0,122.0,49.0,122.0,129.0,42.0,-115.0,-59.0,126.0,127.0,127.0,122.0,91.0,-90.0
128.0,123.0,129.0,109.0,122.0,49.0,122.0,129.0,42.0,-115.0,-59.0,126.0,127.0,127.0,122.0,91.0,-90.0
128.0,123.0,129.0,109.0,122.0,48.0,122.0,129.0,42.0,-115.0,-59.0,126.0,127.0,127.0,122.0,91.0,-90.0
127.0,124.0,136.0,119.0,126.0,38.0,124.0,120.0,42.0,-115.0,-59.0,126.0,127.0,127.0,122.0,91.0,-90.0
128.0,125.0,136.0,119.0,126.0,37.0,124.0,120.0,42.0,-115.0,-59.0,126.0,127.0,127.0,122.0,91.0,-90.0
128.0,125.0,136.0,119.0,126.0,36.0,124.0,120.0,42.0,-115.0,-59.0,126.0,127.0,127.0,122.0,91.0,-90.0
127.0,123.0,135.0,109.0,123.0,42.0,123.0,125.0,42.0,-115.0,-59.0,126.0,127.0,127.0,122.0,91.0,-90.0
127.0,123.0,135.0,111.0,123.0,41.0,123.0,124.0,42.0,-115.0,-59.0,126.0,127.0,127.0,122.0,91.0,-90.0
127.0,123.0,136.0,113.0,124.0,40.0,123.0,124.0,42.0,-115.0,-59.0,126.0,127.0,127.0,122.0,91.0,-90.0
127.0,124.0,136.0,115.0,124.0,41.0,123.0,124.0,42.0,-115.0,-59.0,126.0,127.0,127.0,122.0,91.0,-90.0
127.0,124.0,136.0,117.0,125.0,41.0,123.0,123.0,42.0,-115.0,-59.0,126.0,127.0,127.0,122.0,91.0,-90.0
127.0,124.0,136.0,118.0,125.0,40.0,123.0,123.0,42.0,-115.0,-59.0,126.0,127.0,127.0,122.0,91.0,-90.0
127.0,124.0,136.0,119.0,126.0,39.0,124.0,121.0,42.0,-115.0,-59.0,126.0,127.0,127.0,122.0,91.0,-90.0
128.0,124.0,126.0,105.0,121.0,0.0,125.0,128.0,41.0,-115.0,-58.0,127.0,127.0,127.0,122.0,91.0,-90.0
128.0,124.0,127.0,105.0,121.0,0.0,126.0,129.0,41.0,-115.0,-58.0,127.0,127.0,127.0,122.0,91.0,-90.0
127.0,124.0,127.0,113.0,121.0,0.0,125.0,128.0,41.0,-115.0,-58.0,127.0,127.0,127.0,122.0,91.0,-90.0
127.0,124.0,127.0,112.0,121.0,0.0,125.0,128.0,41.0,-115.0,-58.0,127.0,127.0,127.0,122.0,91.0,-90.0
128.0,124.0,126.0,111.0,121.0,0.0,125.0,128.0,41.0,-115.0,-58.0,127.0,127.0,127.0,122.0,91.0,-90.0
128.0,124.0,126.0,110.0,121.0,0.0,125.0,128.0,41.0,-115.0,-58.0,127.0,127.0,127.0,122.0,91.0,-90.0
128.0,124.0,126.0,110.0,121.0,0.0,126.0,128.0,41.0,-115.0,-58.0,127.0,127.0,127.0,122.0,91.0,-90.0
128.0,124.0,126.0,108.0,121.0,0.0,126.0,128.0,41.0,-115.0,-58.0,127.0,127.0,127.0,122.0,91.0,-90.0
128.0,124.0,126.0,107.0,121.0,0.0,126.0,128.0,41.0,-115.0,-58.0,127.0,127.0,127.0,122.0,91.0,-90.0
128.0,124.0,126.0,106.0,121.0,0.0,126.0,128.0,41.0,-115.0,-58.0,127.0,127.0,127.0,122.0,91.0,-90.0
128.0,125.0,132.0,115.0,124.0,0.0,125.0,130.0,41.0,-114.0,-57.0,127.0,127.0,127.0,122.0,91.0,-90.0
128.0,125.0,133.0,113.0,124.0,0.0,125.0,131.0,41.0,-114.0,-57.0,127.0,127.0,127.0,122.0,91.0,-90.0
128.0,125.0,133.0,112.0,124.0,0.0,125.0,131.0,41.0,-114.0,-57.0,127.0,127.0,127.0,122.0,91.0,-90.0
128.0,125.0,133.0,112.0,124.0,0.0,125.0,131.0,41.0,-114.0,-57.0,127.0,127.0,127.0,122.0,91.0,-90.0
128.0,125.0,133.0,113.0,124.0,0.0,125.0,130.0,41.0,-114.0,-57.0,127.0,127.0,127.0,122.0,91.0,-90.0
128.0,125.0,132.0,114.0,124.0,0.0,125.0,130.0,41.0,-114.0,-57.0,127.0,127.0,127.0,122.0,91.0,-90.0
128.0,125.0,132.0,114.0,124.0,0.0,125.0,130.0,41.0,-114.0,-57.0,127.0,127.0,127.0,122.0,91.0,-90.0
128.0,125.0,132.0,115.0,124.0,0.0,125.0,130.0,41.0,-114.0,-57.0,127.0,127.0,127.0,122.0,91.0,-90.0
128.0,125.0,132.0,115.0,124.0,0.0,125.0,130.0,41.0,-114.0,-57.0,127.0,127.0,127.0,122.0,91.0,-90.0
128.0,125.0,132.0,115.0,124.0,0.0,125.0,130.0,41.0,-114.0,-57.0,127.0,127.0,127.0,122.0,91.0,-90.0
127.0,124.0,143.0,104.0,123.0,0.0,125.0,129.0,41.0,-114.0,-57.0,127.0,127.0,127.0,122.0,91.0,-90.0
127.0,124.0,142.0,104.0,124.0,0.0,125.0,130.0,41.0,-114.0,-57.0,127.0,127.0,127.0,122.0,91.0,-90.0
127.0,125.0,142.0,105.0,124.0,0.0,125.0,131.0,41.0,-114.0,-57.0,127.0,127.0,127.0,122.0,91.0,-90.0
127.0,125.0,142.0,105.0,124.0,0.0,125.0,131.0,41.0,-114.0,-57.0,127.0,127.0,127.0,122.0,91.0,-90.0
127.0,125.0,141.0,105.0,124.0,0.0,126.0,131.0,41.0,-114.0,-57.0,127.0,127.0,127.0,122.0,91.0,-90.0
127.0,125.0,141.0,106.0,124.0,0.0,126.0,130.0,41.0,-114.0,-57.0,127.0,127.0,127.0,122.0,91.0,-90.0
127.0,125.0,141.0,106.0,124.0,0.0,126.0,130.0,41.0,-114.0,-57.0,127.0,127.0,127.0,122.0,91.0,-90.0
127.0,125.0,140.0,105.0,124.0,0.0,126.0,130.0,41.0,-114.0,-57.0,127.0,127.0,127.0,122.0,91.0,-90.0
127.0,125.0,140.0,105.0,124.0,0.0,126.0,129.0,41.0,-114.0,-57.0,127.0,127.0,127.0,122.0,91.0,-90.0
127.0,125.0,140.0,105.0,124.0,0.0,125.0,128.0,41.0,-114.0,-57.0,127.0,127.0,127.0,122.0,91.0,-90.0
125.0,125.0,132.0,108.0,125.0,0.0,126.0,118.0,40.0,-113.0,-57.0,127.0,127.0,127.0,122.0,91.0,-90.0
125.0,125.0,131.0,108.0,125.0,0.0,126.0,119.0,40.0,-113.0,-57.0,127.0,127.0,127.0,122.0,91.0,-90.0
126.0,125.0,131.0,108.0,125.0,0.0,126.0,121.0,40.0,-113.0,-57.0,127.0,127.0,127.0,122.0,91.0,-90.0
126.0,126.0,130.0,108.0,125.0,0.0,126.0,123.0,40.0,-113.0,-57.0,127.0,127.0,127.0,122.0,91.0,-90.0
126.0,126.0,129.0,108.0,125.0,0.0,126.0,124.0,40.0,-113.0,-57.0,127.0,127.0,127.0,122.0,91.0,-90.0
127.0,126.0,129.0,108.0,125.0,0.0,127.0,126.0,40.0,-113.0,-57.0,127.0,127.0,127.0,122.0,91.0,-90.0
127.0,126.0,128.0,108.0,125.0,0.0,127.0,128.0,40.0,-113.0,-57.0,127.0,127.0,127.0,122.0,91.0,-90.0
127.0,125.0,128.0,108.0,125.0,0.0,127.0,129.0,40.0,-113.0,-57.0,127.0,127.0,127.0,122.0,91.0,-90.0
127.0,125.0,127.0,108.0,125.0,0.0,127.0,130.0,40.0,-113.0,-57.0,127.0,127.0,127.0,122.0,91.0,-90.0
125.0,125.0,132.0,108.0,125.0,0.0,125.0,118.0,40.0,-113.0,-57.0,127.0,127.0,127.0,122.0,91.0,-90.0
125.0,124.0,141.0,111.0,125.0,0.0,126.0,122.0,40.0,-113.0,-57.0,127.0,127.0,127.0,122.0,91.0,-90.0
125.0,124.0,142.0,111.0,125.0,0.0,126.0,122.0,40.0,-113.0,-57.0,127.0,127.0,127.0,122.0,91.0,-90.0
126.0,125.0,144.0,110.0,125.0,0.0,126.0,124.0,40.0,-113.0,-57.0,127.0,127.0,127.0,122.0,91.0,-90.0
126.0,125.0,145.0,109.0,125.0,0.0,127.0,125.0,40.0,-113.0,-57.0,127.0,127.0,127.0,122.0,91.0,-90.0
126.0,125.0,147.0,109.0,125.0,0.0,127.0,126.0,40.0,-113.0,-57.0,127.0,127.0,127.0,122.0,91.0,-90.0
126.0,125.0,148.0,108.0,125.0,0.0,127.0,127.0,40.0,-113.0,-57.0,127.0,127.0,127.0,122.0,91.0,-90.0
127.0,125.0,150.0,106.0,125.0,0.0,127.0,128.0,40.0,-113.0,-57.0,127.0,127.0,127.0,122.0,91.0,-90.0
127.0,126.0,151.0,105.0,125.0,0.0,127.0,128.0,40.0,-113.0,-57.0,127.0,127.0,127.0,122.0,91.0,-90.0
125.0,124.0,138.0,111.0,125.0,0.0,126.0,121.0,40.0,-113.0,-57.0,127.0,127.0,127.0,122.0,91.0,-90.0
125.0,124.0,139.0,111.0,125.0,0.0,126.0,121.0,40.0,-113.0,-57.0,127.0,127.0,127.0,122.0,91.0,-90.0
129.0,127.0,122.0,114.0,127.0,0.0,128.0,128.0,40.0,-113.0,-56.0,127.0,127.0,127.0,122.0,91.0,-90.0
129.0,127.0,120.0,114.0,127.0,0.0,128.0,128.0,40.0,-113.0,-56.0,127.0,127.0,127.0,122.0,91.0,-90.0
129.0,127.0,119.0,114.0,127.0,0.0,128.0,129.0,40.0,-113.0,-56.0,127.0,127.0,127.0,122.0,91.0,-90.0
129.0,127.0,118.0,114.0,127.0,0.0,128.0,129.0,40.0,-113.0,-56.0,127.0,127.0,127.0,122.0,91.0,-90.0
129.0,127.0,117.0,113.0,127.0,0.0,128.0,130.0,40.0,-113.0,-56.0,127.0,127.0,127.0,122.0,91.0,-90.0
129.0,127.0,116.0,112.0,126.0,0.0,128.0,130.0,40.0,-113.0,-56.0,127.0,127.0,127.0,122.0,91.0,-90.0
129.0,127.0,114.0,112.0,126.0,0.0,128.0,130.0,40.0,-113.0,-56.0,127.0,127.0,127.0,122.0,91.0,-90.0
128.0,126.0,124.0,113.0,127.0,0.0,127.0,126.0,40.0,-113.0,-56.0,127.0,127.0,127.0,122.0,91.0,-90.0
128.0,126.0,123.0,113.0,127.0,0.0,128.0,127.0,40.0,-113.0,-56.0,127.0,127.0,127.0,122.0,91.0,-90.0
128.0,126.0,122.0,114.0,127.0,0.0,128.0,127.0,40.0,-113.0,-56.0,127.0,127.0,127.0,122.0,91.0,-90.0
127.0,125.0,102.0,114.0,125.0,0.0,126.0,120.0,40.0,-112.0,-56.0,127.0,127.0,127.0,122.0,91.0,-90.0
127.0,125.0,102.0,114.0,125.0,0.0,126.0,120.0,40.0,-112.0,-56.0,127.0,127.0,127.0,122.0,91.0,-90.0
127.0,125.0,102.0,114.0,124.0,0.0,126.0,119.0,40.0,-112.0,-56.0,127.0,127.0,127.0,122.0,91.0,-90.0
127.0,125.0,102.0,114.0,124.0,0.0,126.0,119.0,40.0,-112.0,-56.0,127.0,127.0,127.0,122.0,91.0,-90.0
127.0,125.0,101.0,114.0,124.0,0.0,126.0,119.0,40.0,-112.0,-56.0,127.0,127.0,127.0,122.0,91.0,-90.0
127.0,125.0,101.0,113.0,124.0,0.0,126.0,119.0,40.0,-112.0,-56.0,127.0,127.0,127.0,122.0,91.0,-90.0
127.0,123.0,102.0,108.0,123.0,0.0,126.0,124.0,40.0,-112.0,-56.0,127.0,127.0,127.0,122.0,91.0,-90.0
127.0,124.0,103.0,111.0,124.0,0.0,126.0,123.0,40.0,-112.0,-56.0,127.0,127.0,127.0,122.0,91.0,-90.0
127.0,124.0,103.0,113.0,124.0,0.0,126.0,122.0,40.0,-112.0,-56.0,127.0,127.0,127.0,122.0,91.0,-90.0
127.0,124.0,102.0,114.0,125.0,0.0,126.0,121.0,40.0,-112.0,-56.0,127.0,127.0,127.0,122.0,91.0,-90.0
129.0,127.0,107.0,112.0,126.0,0.0,128.0,130.0,39.0,-112.0,-55.0,127.0,127.0,127.0,122.0,91.0,-90.0
129.0,127.0,107.0,111.0,126.0,0.0,128.0,129.0,39.0,-112.0,-55.0,127.0,127.0,127.0,122.0,91.0,-90.0
129.0,127.0,107.0,111.0,126.0,0.0,128.0,129.0,39.0,-112.0,-55.0,127.0,127.0,127.0,122.0,91.0,-90.0
129.0,127.0,107.0,111.0,126.0,0.0,128.0,128.0,39.0,-112.0,-55.0,127.0,127.0,127.0,122.0,91.0,-90.0
128.0,126.0,107.0,110.0,126.0,0.0,127.0,127.0,39.0,-112.0,-55.0,127.0,127.0,127.0,122.0,91.0,-90.0
129.0,127.0,106.0,113.0,126.0,0.0,127.0,130.0,39.0,-112.0,-55.0,127.0,127.0,127.0,122.0,91.0,-90.0
129.0,127.0,106.0,113.0,126.0,0.0,127.0,130.0,39.0,-112.0,-55.0,127.0,127.0,127.0,122.0,91.0,-90.0
129.0,127.0,106.0,113.0,126.0,0.0,128.0,130.0,39.0,-112.0,-55.0,127.0,127.0,127.0,122.0,91.0,-90.0
129.0,127.0,106.0,112.0,127.0,0.0,128.0,130.0,39.0,-112.0,-55.0,127.0,127.0,127.0,122.0,91.0,-90.0
129.0,127.0,107.0,112.0,127.0,0.0,128.0,130.0,39.0,-112.0,-55.0,127.0,127.0,127.0,122.0,91.0,-90.0
128.0,125.0,108.0,112.0,125.0,0.0,127.0,129.0,39.0,-112.0,-55.0,127.0,127.0,127.0,122.0,91.0,-90.0
128.0,125.0,109.0,113.0,126.0,0.0,127.0,128.0,39.0,-112.0,-55.0,127.0,127.0,127.0,122.0,91.0,-90.0
128.0,125.0,109.0,114.0,126.0,0.0,128.0,128.0,39.0,-112.0,-55.0,127.0,127.0,127.0,122.0,91.0,-90.0
128.0,125.0,109.0,115.0,126.0,0.0,128.0,128.0,39.0,-112.0,-55.0,127.0,127.0,127.0,122.0,91.0,-90.0
128.0,125.0,108.0,110.0,124.0,0.0,128.0,129.0,39.0,-112.0,-55.0,127.0,127.0,127.0,122.0,91.0,-90.0
128.0,125.0,108.0,110.0,124.0,0.0,127.0,129.0,39.0,-112.0,-55.0,127.0,127.0,127.0,122.0,91.0,-90.0
128.0,125.0,108.0,110.0,125.0,0.0,127.0,130.0,39.0,-112.0,-55.0,127.0,127.0,127.0,122.0,91.0,-90.0
128.0,125.0,108.0,111.0,125.0,0.0,127.0,130.0,39.0,-112.0,-55.0,127.0,127.0,127.0,122.0,91.0,-90.0
128.0,125.0,108.0,111.0,125.0,0.0,127.0,130.0,39.0,-112.0,-55.0,127.0,127.0,127.0,122.0,91.0,-90.0
128.0,125.0,108.0,112.0,125.0,0.0,127.0,129.0,39.0,-112.0,-55.0,127.0,127.0,127.0,122.0,91.0,-90.0
129.0,126.0,124.0,117.0,126.0,0.0,128.0,130.0,39.0,-113.0,-55.0,127.0,127.0,127.0,122.0,91.0,-90.0
129.0,126.0,124.0,117.0,126.0,0.0,128.0,130.0,39.0,-113.0,-55.0,127.0,127.0,127.0,122.0,91.0,-90.0
129.0,126.0,124.0,117.0,126.0,0.0,128.0,130.0,39.0,-113.0,-55.0,127.0,127.0,127.0,122.0,91.0,-90.0
129.0,126.0,125.0,113.0,126.0,0.0,128.0,131.0,39.0,-113.0,-55.0,127.0,127.0,127.0,122.0,91.0,-90.0
129.0,126.0,124.0,114.0,125.0,0.0,128.0,131.0,39.0,-113.0,-55.0,127.0,127.0,127.0,122.0,91.0,-90.0
129.0,126.0,124.0,114.0,125.0,0.0,128.0,131.0,39.0,-113.0,-55.0,127.0,127.0,127.0,122.0,91.0,-90.0
129.0,126.0,124.0,115.0,125.0,0.0,128.0,131.0,39.0,-113.0,-55.0,127.0,127.0,127.0,122.0,91.0,-90.0
129.0,126.0,124.0,115.0,125.0,0.0,128.0,131.0,39.0,-113.0,-55.0,127.0,127.0,127.0,122.0,91.0,-90.0
129.0,126.0,124.0,116.0,126.0,0.0,128.0,130.0,39.0,-113.0,-55.0,127.0,127.0,127.0,122.0,91.0,-90.0
129.0,126.0,124.0,116.0,126.0,0.0,128.0,130.0,39.0,-113.0,-55.0,127.0,127.0,127.0,122.0,91.0,-90.0
126.0,125.0,134.0,116.0,125.0,0.0,126.0,125.0,39.0,-113.0,-55.0,127.0,127.0,127.0,122.0,91.0,-90.0
126.0,126.0,135.0,117.0,125.0,0.0,126.0,125.0,39.0,-113.0,-55.0,127.0,127.0,127.0,122.0,91.0,-90.0
127.0,125.0,132.0,115.0,125.0,0.0,126.0,123.0,39.0,-113.0,-55.0,127.0,127.0,127.0,122.0,91.0,-90.0
127.0,125.0,132.0,115.0,124.0,0.0,126.0,123.0,39.0,-113.0,-55.0,127.0,127.0,127.0,122.0,91.0,-90.0
127.0,125.0,132.0,115.0,125.0,0.0,126.0,123.0,39.0,-113.0,-55.0,127.0,127.0,127.0,122.0,91.0,-90.0
127.0,125.0,132.0,115.0,125.0,0.0,126.0,124.0,39.0,-113.0,-55.0,127.0,127.0,127.0,122.0,91.0,-90.0
126.0,125.0,133.0,115.0,125.0,0.0,126.0,125.0,39.0,-113.0,-55.0,127.0,127.0,127.0,122.0,91.0,-90.0
126.0,125.0,133.0,114.0,125.0,0.0,126.0,125.0,39.0,-113.0,-55.0,127.0,127.0,127.0,122.0,91.0,-90.0
126.0,125.0,133.0,114.0,125.0,0.0,126.0,126.0,39.0,-113.0,-55.0,127.0,127.0,127.0,122.0,91.0,-90.0
126.0,125.0,134.0,115.0,125.0,0.0,126.0,126.0,39.0,-113.0,-55.0,127.0,127.0,127.0,122.0,91.0,-90.0
125.0,125.0,127.0,124.0,125.0,0.0,125.0,116.0,39.0,-113.0,-55.0,127.0,127.0,127.0,122.0,91.0,-90.0
127.0,125.0,129.0,118.0,125.0,0.0,127.0,122.0,39.0,-113.0,-55.0,127.0,127.0,127.0,122.0,91.0,-90.0
127.0,125.0,129.0,119.0,125.0,0.0,126.0,122.0,39.0,-113.0,-55.0,127.0,127.0,127.0,122.0,91.0,-90.0
127.0,125.0,128.0,119.0,125.0,0.0,126.0,123.0,39.0,-113.0,-55.0,127.0,127.0,127.0,122.0,91.0,-90.0
127.0,126.0,127.0,120.0,125.0,0.0,126.0,123.0,39.0,-113.0,-55.0,127.0,127.0,127.0,122.0,91.0,-90.0
127.0,125.0,127.0,122.0,125.0,0.0,126.0,123.0,39.0,-113.0,-55.0,127.0,127.0,127.0,122.0,91.0,-90.0
126.0,125.0,127.0,122.0,125.0,0.0,126.0,122.0,39.0,-113.0,-55.0,127.0,127.0,127.0,122.0,91.0,-90.0
126.0,125.0,127.0,123.0,125.0,0.0,126.0,121.0,39.0,-113.0,-55.0,127.0,127.0,127.0,122.0,91.0,-90.0
126.0,125.0,127.0,123.0,125.0,0.0,126.0,119.0,39.0,-113.0,-55.0,127.0,127.0,127.0,122.0,91.0,-90.0
125.0,125.0,127.0,124.0,125.0,0.0,126.0,118.0,39.0,-113.0,-55.0,127.0,127.0,127.0,122.0,91.0,-90.0
128.0,125.0,124.0,121.0,126.0,0.0,127.0,133.0,39.0,-113.0,-55.0,127.0,127.0,127.0,122.0,91.0,-90.0
128.0,125.0,124.0,122.0,126.0,0.0,127.0,133.0,39.0,-113.0,-55.0,127.0,127.0,127.0,122.0,91.0,-90.0
128.0,126.0,125.0,122.0,126.0,0.0,127.0,133.0,39.0,-113.0,-55.0,127.0,127.0,127.0,122.0,91.0,-90.0
128.0,126.0,125.0,123.0,127.0,0.0,127.0,133.0,39.0,-113.0,-55.0,127.0,127.0,127.0,122.0,91.0,-90.0
128.0,126.0,125.0,124.0,127.0,0.0,127.0,133.0,39.0,-113.0,-55.0,127.0,127.0,127.0,122.0,91.0,-90.0
128.0,126.0,126.0,124.0,127.0,0.0,127.0,133.0,39.0,-113.0,-55.0,127.0,127.0,127.0,122.0,91.0,-90.0
128.0,126.0,126.0,124.0,127.0,0.0,127.0,133.0,39.0,-113.0,-55.0,127.0,127.0,127.0,122.0,91.0,-90.0
128.0,126.0,126.0,124.0,127.0,0.0,127.0,133.0,39.0,-113.0,-55.0,127.0,127.0,127.0,122.0,91.0,-90.0
128.0,126.0,126.0,123.0,127.0,0.0,127.0,132.0,39.0,-113.0,-55.0,127.0,127.0,127.0,122.0,91.0,-90.0
128.0,126.0,127.0,123.0,127.0,0.0,127.0,132.0,39.0,-113.0,-55.0,127.0,127.0,127.0,122.0,91.0,-90.0
128.0,125.0,140.0,119.0,127.0,0.0,127.0,128.0,39.0,-113.0,-56.0,127.0,127.0,127.0,122.0,91.0,-90.0
128.0,125.0,140.0,119.0,127.0,0.0,127.0,128.0,39.0,-113.0,-56.0,127.0,127.0,127.0,122.0,91.0,-90.0
128.0,126.0,140.0,119.0,127.0,0.0,127.0,128.0,39.0,-113.0,-56.0,127.0,127.0,127.0,122.0,91.0,-90.0
128.0,126.0,141.0,120.0,127.0,0.0,127.0,128.0,39.0,-113.0,-56.0,127.0,127.0,127.0,122.0,91.0,-90.0
128.0,126.0,142.0,120.0,127.0,0.0,127.0,128.0,39.0,-113.0,-56.0,127.0,127.0,127.0,122.0,91.0,-90.0
128.0,126.0,142.0,121.0,127.0,0.0,128.0,128.0,39.0,-113.0,-56.0,127.0,127.0,127.0,122.0,91.0,-90.0
128.0,126.0,142.0,121.0,127.0,0.0,128.0,128.0,39.0,-113.0,-56.0,127.0,127.0,127.0,122.0,91.0,-90.0
128.0,126.0,142.0,121.0,127.0,0.0,128.0,128.0,39.0,-113.0,-56.0,127.0,127.0,127.0,122.0,91.0,-90.0
128.0,126.0,143.0,121.0,127.0,0.0,128.0,128.0,39.0,-113.0,-56.0,127.0,127.0,127.0,122.0,91.0,-90.0
128.0,125.0,140.0,119.0,127.0,0.0,127.0,128.0,39.0,-113.0,-56.0,127.0,127.0,127.0,122.0,91.0,-90.0
128.0,125.0,141.0,124.0,127.0,0.0,127.0,125.0,40.0,-113.0,-56.0,127.0,127.0,127.0,122.0,91.0,-90.0
129.0,126.0,141.0,124.0,127.0,0.0,127.0,125.0,40.0,-113.0,-56.0,127.0,127.0,127.0,122.0,91.0,-90.0
129.0,126.0,141.0,123.0,127.0,0.0,127.0,125.0,40.0,-113.0,-56.0,127.0,127.0,127.0,122.0,91.0,-90.0
129.0,126.0,141.0,123.0,128.0,0.0,127.0,125.0,40.0,-113.0,-56.0,127.0,127.0,127.0,122.0,91.0,-90.0
129.0,127.0,141.0,123.0,128.0,0.0,127.0,125.0,40.0,-113.0,-56.0,127.0,127.0,127.0,122.0,91.0,-90.0
129.0,127.0,141.0,122.0,128.0,0.0,127.0,126.0,40.0,-113.0,-56.0,127.0,127.0,127.0,122.0,91.0,-90.0
129.0,127.0,141.0,122.0,128.0,0.0,128.0,126.0,40.0,-113.0,-56.0,127.0,127.0,127.0,122.0,91.0,-90.0
129.0,127.0,141.0,122.0,128.0,0.0,128.0,126.0,40.0,-113.0,-56.0,127.0,127.0,127.0,122.0,91.0,-90.0
128.0,125.0,141.0,124.0,126.0,0.0,127.0,126.0,40.0,-113.0,-56.0,127.0,127.0,127.0,122.0,91.0,-90.0
128.0,125.0,141.0,124.0,127.0,0.0,127.0,126.0,40.0,-113.0,-56.0,127.0,127.0,127.0,122.0,91.0,-90.0
128.0,126.0,135.0,120.0,126.0,0.0,127.0,129.0,40.0,-114.0,-56.0,127.0,127.0,127.0,122.0,91.0,-90.0
128.0,126.0,135.0,120.0,126.0,0.0,127.0,129.0,40.0,-114.0,-56.0,127.0,127.0,127.0,122.0,91.0,-90.0
128.0,126.0,135.0,120.0,126.0,0.0,127.0,129.0,40.0,-114.0,-56.0,127.0,127.0,127.0,122.0,91.0,-90.0
128.0,126.0,135.0,121.0,126.0,0.0,127.0,129.0,40.0,-114.0,-56.0,127.0,127.0,127.0,122.0,91.0,-90.0
128.0,126.0,134.0,121.0,126.0,0.0,127.0,129.0,40.0,-114.0,-56.0,127.0,127.0,127.0,122.0,91.0,-90.0
128.0,126.0,134.0,121.0,126.0,0.0,127.0,128.0,40.0,-114.0,-56.0,127.0,127.0,127.0,122.0,91.0,-90.0
128.0,126.0,135.0,122.0,126.0,0.0,127.0,127.0,40.0,-114.0,-56.0,127.0,127.0,127.0,122.0,91.0,-90.0
129.0,126.0,135.0,116.0,125.0,0.0,127.0,129.0,40.0,-114.0,-56.0,127.0,127.0,127.0,122.0,91.0,-90.0
128.0,126.0,135.0,118.0,125.0,0.0,127.0,129.0,40.0,-114.0,-56.0,127.0,127.0,127.0,122.0,91.0,-90.0
128.0,126.0,135.0,119.0,125.0,0.0,127.0,129.0,40.0,-114.0,-56.0,127.0,127.0,127.0,122.0,91.0,-90.0
128.0,127.0,138.0,120.0,127.0,0.0,127.0,128.0,40.0,-114.0,-56.0,127.0,127.0,127.0,122.0,91.0,-90.0
128.0,127.0,138.0,120.0,127.0,0.0,127.0,128.0,40.0,-114.0,-56.0,127.0,127.0,127.0,122.0,91.0,-90.0
128.0,127.0,138.0,121.0,127.0,0.0,127.0,127.0,40.0,-114.0,-56.0,127.0,127.0,127.0,122.0,91.0,-90.0
128.0,127.0,139.0,121.0,127.0,0.0,127.0,127.0,40.0,-114.0,-56.0,127.0,127.0,127.0,122.0,91.0,-90.0
128.0,127.0,139.0,122.0,127.0,0.0,127.0,127.0,40.0,-114.0,-56.0,127.0,127.0,127.0,122.0,91.0,-90.0
128.0,127.0,140.0,122.0,127.0,0.0,127.0,127.0,40.0,-114.0,-56.0,127.0,127.0,127.0,122.0,91.0,-90.0
129.0,127.0,138.0,119.0,127.0,0.0,127.0,129.0,40.0,-114.0,-56.0,127.0,127.0,127.0,122.0,91.0,-90.0
129.0,127.0,138.0,119.0,127.0,0.0,127.0,129.0,40.0,-114.0,-56.0,127.0,127.0,127.0,122.0,91.0,-90.0
129.0,127.0,138.0,120.0,127.0,0.0,127.0,129.0,40.0,-114.0,-56.0,127.0,127.0,127.0,122.0,91.0,-90.0
129.0,127.0,138.0,120.0,127.0,0.0,127.0,128.0,40.0,-114.0,-56.0,127.0,127.0,127.0,122.0,91.0,-90.0
128.0,127.0,137.0,123.0,127.0,0.0,127.0,127.0,40.0,-113.0,-56.0,127.0,127.0,127.0,122.0,91.0,-90.0
128.0,127.0,137.0,122.0,127.0,0.0,127.0,127.0,40.0,-113.0,-56.0,127.0,127.0,127.0,122.0,91.0,-90.0
128.0,127.0,138.0,122.0,127.0,0.0,127.0,127.0,40.0,-113.0,-56.0,127.0,127.0,127.0,122.0,91.0,-90.0
128.0,127.0,138.0,122.0,127.0,0.0,127.0,127.0,40.0,-113.0,-56.0,127.0,127.0,127.0,122.0,91.0,-90.0
128.0,127.0,137.0,122.0,127.0,0.0,127.0,127.0,40.0,-113.0,-56.0,127.0,127.0,127.0,122.0,91.0,-90.0
128.0,126.0,137.0,120.0,126.0,0.0,126.0,126.0,40.0,-113.0,-56.0,127.0,127.0,127.0,122.0,91.0,-90.0
128.0,126.0,137.0,121.0,126.0,0.0,127.0,127.0,40.0,-113.0,-56.0,127.0,127.0,127.0,122.0,91.0,-90.0
128.0,126.0,137.0,121.0,126.0,0.0,127.0,127.0,40.0,-113.0,-56.0,127.0,127.0,127.0,122.0,91.0,-90.0
128.0,126.0,137.0,122.0,126.0,0.0,127.0,126.0,40.0,-113.0,-56.0,127.0,127.0,127.0,122.0,91.0,-90.0
128.0,127.0,137.0,122.0,127.0,0.0,127.0,126.0,40.0,-113.0,-56.0,127.0,127.0,127.0,122.0,91.0,-90.0
128.0,126.0,132.0,124.0,126.0,0.0,127.0,126.0,40.0,-113.0,-56.0,127.0,127.0,127.0,122.0,91.0,-90.0
128.0,126.0,132.0,123.0,126.0,0.0,127.0,126.0,40.0,-113.0,-56.0,127.0,127.0,127.0,122.0,91.0,-90.0
128.0,126.0,132.0,123.0,126.0,0.0,127.0,126.0,40.0,-113.0,-56.0,127.0,127.0,127.0,122.0,91.0,-90.0
128.0,126.0,132.0,123.0,126.0,0.0,127.0,126.0,40.0,-113.0,-56.0,127.0,127.0,127.0,122.0,91.0,-90.0
128.0,126.0,134.0,122.0,126.0,0.0,127.0,127.0,40.0,-113.0,-56.0,127.0,127.0,127.0,122.0,91.0,-90.0
128.0,127.0,133.0,123.0,127.0,0.0,127.0,127.0,40.0,-113.0,-56.0,127.0,127.0,127.0,122.0,91.0,-90.0
128.0,127.0,133.0,123.0,127.0,0.0,127.0,127.0,40.0,-113.0,-56.0,127.0,127.0,127.0,122.0,91.0,-90.0
128.0,127.0,133.0,123.0,127.0,0.0,127.0,126.0,40.0,-113.0,-56.0,127.0,127.0,127.0,122.0,91.0,-90.0
128.0,127.0,133.0,124.0,126.0,0.0,127.0,126.0,40.0,-113.0,-56.0,127.0,127.0,127.0,122.0,91.0,-90.0
128.0,127.0,133.0,124.0,126.0,0.0,127.0,126.0,40.0,-113.0,-56.0,127.0,127.0,127.0,122.0,91.0,-90.0
128.0,127.0,132.0,121.0,127.0,0.0,127.0,128.0,40.0,-113.0,-57.0,127.0,127.0,127.0,121.0,91.0,-90.0
128.0,126.0,132.0,121.0,126.0,0.0,127.0,127.0,40.0,-113.0,-57.0,127.0,127.0,127.0,121.0,91.0,-90.0
128.0,126.0,132.0,121.0,126.0,0.0,127.0,126.0,40.0,-113.0,-57.0,127.0,127.0,127.0,121.0,91.0,-90.0
129.0,127.0,132.0,123.0,127.0,0.0,127.0,129.0,40.0,-113.0,-57.0,127.0,127.0,127.0,121.0,91.0,-90.0
129.0,127.0,131.0,123.0,127.0,0.0,127.0,129.0,40.0,-113.0,-57.0,127.0,127.0,127.0,121.0,91.0,-90.0
129.0,127.0,131.0,122.0,127.0,0.0,127.0,129.0,40.0,-113.0,-57.0,127.0,127.0,127.0,121.0,91.0,-90.0
129.0,127.0,131.0,122.0,127.0,0.0,127.0,129.0,40.0,-113.0,-57.0,127.0,127.0,127.0,121.0,91.0,-90.0
129.0,127.0,132.0,122.0,127.0,0.0,127.0,129.0,40.0,-113.0,-57.0,127.0,127.0,127.0,121.0,91.0,-90.0
129.0,127.0,132.0,121.0,127.0,0.0,127.0,128.0,40.0,-113.0,-57.0,127.0,127.0,127.0,121.0,91.0,-90.0
128.0,127.0,132.0,121.0,127.0,0.0,127.0,128.0,40.0,-113.0,-57.0,127.0,127.0,127.0,121.0,91.0,-90.0
128.0,127.0,132.0,123.0,127.0,0.0,127.0,129.0,40.0,-112.0,-57.0,127.0,127.0,127.0,121.0,91.0,-90.0
128.0,127.0,132.0,123.0,127.0,0.0,127.0,129.0,40.0,-112.0,-57.0,127.0,127.0,127.0,121.0,91.0,-90.0
128.0,127.0,132.0,124.0,127.0,0.0,127.0,130.0,40.0,-112.0,-57.0,127.0,127.0,127.0,121.0,91.0,-90.0
129.0,127.0,132.0,124.0,127.0,0.0,127.0,130.0,40.0,-112.0,-57.0,127.0,127.0,127.0,121.0,91.0,-90.0
129.0,127.0,131.0,124.0,127.0,0.0,127.0,130.0,40.0,-112.0,-57.0,127.0,127.0,127.0,121.0,91.0,-90.0
128.0,127.0,131.0,124.0,127.0,0.0,127.0,129.0,40.0,-112.0,-57.0,127.0,127.0,127.0,121.0,91.0,-90.0
128.0,127.0,131.0,124.0,127.0,0.0,127.0,129.0,40.0,-112.0,-57.0,127.0,127.0,127.0,121.0,91.0,-90.0
128.0,127.0,131.0,124.0,127.0,0.0,127.0,129.0,40.0,-112.0,-57.0,127.0,127.0,127.0,121.0,91.0,-90.0
128.0,127.0,131.0,123.0,127.0,0.0,127.0,129.0,40.0,-112.0,-57.0,127.0,127.0,127.0,121.0,91.0,-90.0
128.0,127.0,131.0,123.0,127.0,0.0,127.0,129.0,40.0,-112.0,-57.0,127.0,127.0,127.0,121.0,91.0,-90.0
128.0,126.0,130.0,125.0,126.0,0.0,126.0,128.0,40.0,-112.0,-57.0,127.0,127.0,127.0,121.0,91.0,-90.0
128.0,126.0,129.0,125.0,126.0,0.0,126.0,127.0,40.0,-112.0,-57.0,127.0,127.0,127.0,121.0,91.0,-90.0
128.0,126.0,129.0,124.0,127.0,0.0,126.0,127.0,40.0,-112.0,-57.0,127.0,127.0,127.0,121.0,91.0,-90.0
128.0,126.0,129.0,123.0,126.0,0.0,126.0,126.0,40.0,-112.0,-57.0,127.0,127.0,127.0,121.0,91.0,-90.0
128.0,126.0,129.0,123.0,126.0,0.0,126.0,126.0,40.0,-112.0,-57.0,127.0,127.0,127.0,121.0,91.0,-90.0
128.0,126.0,129.0,122.0,126.0,0.0,126.0,126.0,40.0,-112.0,-57.0,127.0,127.0,127.0,121.0,91.0,-90.0
128.0,126.0,129.0,122.0,126.0,0.0,127.0,126.0,40.0,-112.0,-57.0,127.0,127.0,127.0,121.0,91.0,-90.0
128.0,126.0,129.0,121.0,127.0,0.0,127.0,127.0,40.0,-112.0,-57.0,127.0,127.0,127.0,121.0,91.0,-90.0
128.0,126.0,130.0,121.0,127.0,0.0,127.0,127.0,40.0,-112.0,-57.0,127.0,127.0,127.0,121.0,91.0,-90.0
128.0,126.0,130.0,121.0,127.0,0.0,127.0,127.0,40.0,-112.0,-57.0,127.0,127.0,127.0,121.0,91.0,-90.0
128.0,125.0,130.0,124.0,126.0,0.0,127.0,127.0,40.0,-112.0,-57.0,127.0,127.0,127.0,121.0,91.0,-90.0
128.0,125.0,130.0,124.0,126.0,0.0,127.0,127.0,40.0,-112.0,-57.0,127.0,127.0,127.0,121.0,91.0,-90.0
127.0,125.0,130.0,124.0,126.0,0.0,127.0,127.0,40.0,-112.0,-57.0,127.0,127.0,127.0,121.0,91.0,-90.0
127.0,125.0,130.0,124.0,126.0,0.0,127.0,127.0,40.0,-112.0,-57.0,127.0,127.0,127.0,121.0,91.0,-90.0
127.0,125.0,129.0,124.0,126.0,0.0,127.0,127.0,40.0,-112.0,-57.0,127.0,127.0,127.0,121.0,91.0,-90.0
128.0,125.0,129.0,124.0,126.0,1.0,127.0,127.0,40.0,-112.0,-57.0,127.0,127.0,127.0,121.0,91.0,-90.0
128.0,125.0,129.0,124.0,126.0,1.0,127.0,127.0,40.0,-112.0,-57.0,127.0,127.0,127.0,121.0,91.0,-90.0
127.0,125.0,129.0,124.0,126.0,1.0,127.0,127.0,40.0,-112.0,-57.0,127.0,127.0,127.0,121.0,91.0,-90.0
127.0,125.0,128.0,124.0,126.0,1.0,127.0,127.0,40.0,-112.0,-57.0,127.0,127.0,127.0,121.0,91.0,-90.0
127.0,125.0,128.0,124.0,126.0,2.0,127.0,127.0,40.0,-112.0,-57.0,127.0,127.0,127.0,121.0,91.0,-90.0
128.0,126.0,113.0,125.0,126.0,59.0,127.0,130.0,40.0,-112.0,-56.0,127.0,127.0,127.0,121.0,91.0,-90.0
128.0,126.0,112.0,124.0,126.0,60.0,127.0,130.0,40.0,-112.0,-56.0,127.0,127.0,127.0,121.0,91.0,-90.0
128.0,126.0,111.0,124.0,126.0,61.0,127.0,130.0,40.0,-112.0,-56.0,127.0,127.0,127.0,121.0,91.0,-90.0
128.0,126.0,110.0,123.0,126.0,62.0,127.0,130.0,40.0,-112.0,-56.0,127.0,127.0,127.0,121.0,91.0,-90.0
128.0,125.0,109.0,123.0,126.0,63.0,127.0,130.0,40.0,-112.0,-56.0,127.0,127.0,127.0,121.0,91.0,-90.0
128.0,125.0,108.0,123.0,126.0,64.0,127.0,130.0,40.0,-112.0,-56.0,127.0,127.0,127.0,121.0,91.0,-90.0
128.0,125.0,107.0,123.0,126.0,64.0,127.0,129.0,40.0,-112.0,-56.0,127.0,127.0,127.0,121.0,91.0,-90.0
127.0,125.0,106.0,123.0,126.0,65.0,127.0,129.0,40.0,-112.0,-56.0,127.0,127.0,127.0,121.0,91.0,-90.0
127.0,125.0,105.0,123.0,126.0,66.0,127.0,129.0,40.0,-112.0,-56.0,127.0,127.0,127.0,121.0,91.0,-90.0
128.0,126.0,113.0,125.0,126.0,58.0,127.0,130.0,40.0,-112.0,-56.0,127.0,127.0,127.0,121.0,91.0,-90.0
127.0,125.0,107.0,129.0,126.0,97.0,126.0,128.0,40.0,-112.0,-56.0,127.0,127.0,127.0,121.0,91.0,-90.0
127.0,125.0,107.0,129.0,126.0,98.0,126.0,128.0,40.0,-112.0,-56.0,127.0,127.0,127.0,121.0,91.0,-90.0
127.0,125.0,108.0,129.0,126.0,98.0,126.0,128.0,40.0,-112.0,-56.0,127.0,127.0,127.0,121.0,91.0,-90.0
127.0,125.0,108.0,129.0,126.0,98.0,127.0,128.0,40.0,-112.0,-56.0,127.0,127.0,127.0,121.0,91.0,-90.0
127.0,125.0,109.0,129.0,126.0,98.0,127.0,128.0,40.0,-112.0,-56.0,127.0,127.0,127.0,121.0,91.0,-90.0
127.0,125.0,109.0,129.0,126.0,98.0,127.0,128.0,40.0,-112.0,-56.0,127.0,127.0,127.0,121.0,91.0,-90.0
127.0,125.0,109.0,129.0,126.0,98.0,127.0,129.0,40.0,-112.0,-56.0,127.0,127.0,127.0,121.0,91.0,-90.0
127.0,125.0,109.0,129.0,126.0,99.0,127.0,129.0,40.0,-112.0,-56.0,127.0,127.0,127.0,121.0,91.0,-90.0
127.0,125.0,105.0,128.0,127.0,97.0,126.0,129.0,40.0,-112.0,-56.0,127.0,127.0,127.0,121.0,91.0,-90.0
127.0,125.0,106.0,129.0,127.0,97.0,126.0,128.0,40.0,-112.0,-56.0,127.0,127.0,127.0,121.0,91.0,-90.0
127.0,124.0,90.0,125.0,126.0,109.0,126.0,125.0,40.0,-112.0,-56.0,127.0,127.0,127.0,121.0,91.0,-90.0
127.0,124.0,90.0,125.0,126.0,109.0,126.0,125.0,40.0,-112.0,-56.0,127.0,127.0,127.0,121.0,91.0,-90.0
126.0,124.0,90.0,125.0,126.0,109.0,126.0,124.0,40.0,-112.0,-56.0,127.0,127.0,127.0,121.0,91.0,-90.0
126.0,124.0,90.0,125.0,126.0,109.0,126.0,124.0,40.0,-112.0,-56.0,127.0,127.0,127.0,121.0,91.0,-90.0
127.0,123.0,90.0,125.0,126.0,109.0,126.0,123.0,40.0,-112.0,-56.0,127.0,127.0,127.0,121.0,91.0,-90.0
127.0,123.0,91.0,125.0,126.0,109.0,126.0,124.0,40.0,-112.0,-56.0,127.0,127.0,127.0,121.0,91.0,-90.0
127.0,123.0,91.0,124.0,125.0,109.0,126.0,125.0,40.0,-112.0,-56.0,127.0,127.0,127.0,121.0,91.0,-90.0
127.0,124.0,91.0,125.0,126.0,109.0,126.0,126.0,40.0,-112.0,-56.0,127.0,127.0,127.0,121.0,91.0,-90.0
127.0,124.0,91.0,125.0,126.0,109.0,126.0,126.0,40.0,-112.0,-56.0,127.0,127.0,127.0,121.0,91.0,-90.0
127.0,124.0,90.0,125.0,126.0,109.0,126.0,126.0,40.0,-112.0,-56.0,127.0,127.0,127.0,121.0,91.0,-90.0
128.0,125.0,118.0,125.0,127.0,107.0,128.0,130.0,40.0,-112.0,-56.0,127.0,127.0,127.0,121.0,91.0,-90.0
128.0,125.0,118.0,125.0,127.0,106.0,128.0,130.0,40.0,-112.0,-56.0,127.0,127.0,127.0,121.0,91.0,-90.0
128.0,125.0,119.0,125.0,127.0,106.0,128.0,130.0,40.0,-112.0,-56.0,127.0,127.0,127.0,121.0,91.0,-90.0
128.0,125.0,120.0,125.0,127.0,106.0,128.0,130.0,40.0,-112.0,-56.0,127.0,127.0,127.0,121.0,91.0,-90.0
128.0,125.0,121.0,126.0,127.0,105.0,128.0,129.0,40.0,-112.0,-56.0,127.0,127.0,127.0,121.0,91.0,-90.0
128.0,125.0,121.0,126.0,127.0,104.0,128.0,130.0,40.0,-112.0,-56.0,127.0,127.0,127.0,121.0,91.0,-90.0
128.0,125.0,115.0,125.0,127.0,108.0,128.0,130.0,40.0,-112.0,-56.0,127.0,127.0,127.0,121.0,91.0,-90.0
128.0,125.0,115.0,125.0,127.0,108.0,128.0,130.0,40.0,-112.0,-56.0,127.0,127.0,127.0,121.0,91.0,-90.0
128.0,125.0,116.0,125.0,127.0,108.0,128.0,130.0,40.0,-112.0,-56.0,127.0,127.0,127.0,121.0,91.0,-90.0
128.0,125.0,117.0,125.0,127.0,107.0,128.0,130.0,40.0,-112.0,-56.0,127.0,127.0,127.0,121.0,91.0,-90.0
128.0,125.0,138.0,128.0,126.0,102.0,127.0,129.0,40.0,-112.0,-56.0,127.0,127.0,127.0,121.0,91.0,-90.0
128.0,125.0,138.0,129.0,126.0,102.0,127.0,129.0,40.0,-112.0,-56.0,127.0,127.0,127.0,121.0,91.0,-90.0
128.0,125.0,138.0,129.0,126.0,102.0,127.0,128.0,40.0,-112.0,-56.0,127.0,127.0,127.0,121.0,91.0,-90.0
128.0,125.0,139.0,129.0,126.0,101.0,127.0,128.0,40.0,-112.0,-56.0,127.0,127.0,127.0,121.0,91.0,-90.0
128.0,125.0,139.0,128.0,126.0,101.0,127.0,128.0,40.0,-112.0,-56.0,127.0,127.0,127.0,121.0,91.0,-90.0
128.0,125.0,136.0,130.0,127.0,103.0,127.0,128.0,40.0,-112.0,-56.0,127.0,127.0,127.0,121.0,91.0,-90.0
128.0,125.0,137.0,129.0,127.0,102.0,127.0,128.0,40.0,-112.0,-56.0,127.0,127.0,127.0,121.0,91.0,-90.0
128.0,125.0,137.0,129.0,127.0,102.0,127.0,128.0,40.0,-112.0,-56.0,127.0,127.0,127.0,121.0,91.0,-90.0
128.0,125.0,137.0,129.0,126.0,102.0,127.0,128.0,40.0,-112.0,-56.0,127.0,127.0,127.0,121.0,91.0,-90.0
128.0,125.0,137.0,128.0,126.0,102.0,127.0,129.0,40.0,-112.0,-56.0,127.0,127.0,127.0,121.0,91.0,-90.0
128.0,125.0,136.0,126.0,127.0,107.0,127.0,127.0,40.0,-112.0,-55.0,127.0,127.0,127.0,121.0,91.0,-90.0
128.0,125.0,136.0,125.0,127.0,107.0,127.0,127.0,40.0,-112.0,-55.0,127.0,127.0,127.0,121.0,91.0,-90.0
128.0,125.0,136.0,125.0,126.0,107.0,127.0,127.0,40.0,-112.0,-55.0,127.0,127.0,127.0,121.0,91.0,-90.0
128.0,125.0,137.0,125.0,127.0,106.0,127.0,127.0,40.0,-112.0,-55.0,127.0,127.0,127.0,121.0,91.0,-90.0
128.0,125.0,137.0,125.0,127.0,107.0,127.0,127.0,40.0,-112.0,-55.0,127.0,127.0,127.0,121.0,91.0,-90.0
128.0,125.0,137.0,126.0,127.0,106.0,127.0,127.0,40.0,-112.0,-55.0,127.0,127.0,127.0,121.0,91.0,-90.0
128.0,125.0,136.0,126.0,127.0,108.0,127.0,127.0,40.0,-112.0,-55.0,127.0,127.0,127.0,121.0,91.0,-90.0
128.0,125.0,136.0,126.0,127.0,108.0,127.0,127.0,40.0,-112.0,-55.0,127.0,127.0,127.0,121.0,91.0,-90.0
128.0,125.0,136.0,126.0,127.0,108.0,127.0,127.0,40.0,-112.0,-55.0,127.0,127.0,127.0,121.0,91.0,-90.0
128.0,125.0,136.0,126.0,127.0,108.0,127.0,127.0,40.0,-112.0,-55.0,127.0,127.0,127.0,121.0,91.0,-90.0
128.0,124.0,131.0,125.0,127.0,106.0,127.0,127.0,40.0,-111.0,-55.0,127.0,127.0,127.0,121.0,91.0,-90.0
128.0,124.0,131.0,125.0,127.0,106.0,127.0,127.0,40.0,-111.0,-55.0,127.0,127.0,127.0,121.0,91.0,-90.0
128.0,124.0,133.0,125.0,127.0,105.0,127.0,127.0,40.0,-111.0,-55.0,127.0,127.0,127.0,121.0,91.0,-90.0
128.0,124.0,133.0,125.0,127.0,105.0,127.0,127.0,40.0,-111.0,-55.0,127.0,127.0,127.0,121.0,91.0,-90.0
128.0,124.0,132.0,125.0,127.0,105.0,127.0,127.0,40.0,-111.0,-55.0,127.0,127.0,127.0,121.0,91.0,-90.0
128.0,124.0,132.0,125.0,127.0,106.0,127.0,127.0,40.0,-111.0,-55.0,127.0,127.0,127.0,121.0,91.0,-90.0
128.0,124.0,132.0,125.0,127.0,106.0,127.0,127.0,40.0,-111.0,-55.0,127.0,127.0,127.0,121.0,91.0,-90.0
128.0,124.0,131.0,125.0,127.0,106.0,127.0,127.0,40.0,-111.0,-55.0,127.0,127.0,127.0,121.0,91.0,-90.0
128.0,124.0,131.0,125.0,127.0,106.0,127.0,127.0,40.0,-111.0,-55.0,127.0,127.0,127.0,121.0,91.0,-90.0
128.0,124.0,131.0,125.0,127.0,106.0,127.0,127.0,40.0,-111.0,-55.0,127.0,127.0,127.0,121.0,91.0,-90.0
127.0,124.0,129.0,124.0,127.0,107.0,127.0,127.0,40.0,-111.0,-55.0,127.0,127.0,127.0,121.0,91.0,-90.0
127.0,124.0,130.0,124.0,127.0,104.0,127.0,127.0,40.0,-111.0,-55.0,127.0,127.0,127.0,121.0,91.0,-90.0
127.0,124.0,130.0,124.0,127.0,104.0,127.0,127.0,40.0,-111.0,-55.0,127.0,127.0,127.0,121.0,91.0,-90.0
127.0,124.0,130.0,124.0,127.0,104.0,126.0,127.0,40.0,-111.0,-55.0,127.0,127.0,127.0,121.0,91.0,-90.0
127.0,124.0,130.0,124.0,127.0,104.0,127.0,127.0,40.0,-111.0,-55.0,127.0,127.0,127.0,121.0,91.0,-90.0
127.0,123.0,130.0,124.0,126.0,104.0,127.0,127.0,40.0,-111.0,-55.0,127.0,127.0,127.0,121.0,91.0,-90.0
127.0,124.0,130.0,124.0,126.0,104.0,127.0,127.0,40.0,-111.0,-55.0,127.0,127.0,127.0,121.0,91.0,-90.0
127.0,124.0,130.0,124.0,127.0,105.0,126.0,127.0,40.0,-111.0,-55.0,127.0,127.0,127.0,121.0,91.0,-90.0
127.0,124.0,129.0,124.0,127.0,107.0,127.0,127.0,40.0,-111.0,-55.0,127.0,127.0,127.0,121.0,91.0,-90.0
127.0,124.0,129.0,124.0,127.0,107.0,127.0,127.0,40.0,-111.0,-55.0,127.0,127.0,127.0,121.0,91.0,-90.0
127.0,124.0,128.0,127.0,127.0,109.0,127.0,127.0,40.0,-112.0,-55.0,127.0,127.0,127.0,121.0,91.0,-90.0
127.0,124.0,128.0,127.0,127.0,111.0,127.0,127.0,40.0,-112.0,-55.0,127.0,127.0,127.0,121.0,91.0,-90.0
127.0,124.0,128.0,127.0,127.0,111.0,127.0,127.0,40.0,-112.0,-55.0,127.0,127.0,127.0,121.0,91.0,-90.0
127.0,124.0,128.0,127.0,127.0,111.0,127.0,127.0,40.0,-112.0,-55.0,127.0,127.0,127.0,121.0,91.0,-90.0
127.0,124.0,129.0,127.0,127.0,111.0,127.0,127.0,40.0,-112.0,-55.0,127.0,127.0,127.0,121.0,91.0,-90.0
127.0,124.0,128.0,128.0,127.0,111.0,127.0,127.0,40.0,-112.0,-55.0,127.0,127.0,127.0,121.0,91.0,-90.0
127.0,124.0,128.0,128.0,127.0,111.0,127.0,127.0,40.0,-112.0,-55.0,127.0,127.0,127.0,121.0,91.0,-90.0
127.0,124.0,129.0,128.0,126.0,111.0,127.0,127.0,40.0,-112.0,-55.0,127.0,127.0,127.0,121.0,91.0,-90.0
127.0,124.0,129.0,128.0,126.0,111.0,127.0,127.0,40.0,-112.0,-55.0,127.0,127.0,127.0,121.0,91.0,-90.0
127.0,124.0,129.0,128.0,126.0,110.0,127.0,127.0,40.0,-112.0,-55.0,127.0,127.0,127.0,121.0,91.0,-90.0
127.0,124.0,126.0,137.0,128.0,119.0,127.0,127.0,40.0,-113.0,-55.0,127.0,127.0,127.0,121.0,91.0,-90.0
127.0,125.0,126.0,137.0,127.0,120.0,127.0,127.0,40.0,-113.0,-55.0,127.0,127.0,127.0,121.0,91.0,-90.0
127.0,124.0,126.0,137.0,127.0,120.0,127.0,127.0,40.0,-113.0,-55.0,127.0,127.0,127.0,121.0,91.0,-90.0
127.0,125.0,125.0,138.0,128.0,121.0,127.0,127.0,40.0,-113.0,-55.0,127.0,127.0,127.0,121.0,91.0,-90.0
127.0,125.0,125.0,138.0,127.0,121.0,127.0,127.0,40.0,-113.0,-55.0,127.0,127.0,127.0,121.0,91.0,-90.0
127.0,125.0,126.0,138.0,128.0,121.0,127.0,127.0,40.0,-113.0,-55.0,127.0,127.0,127.0,121.0,91.0,-90.0
127.0,124.0,126.0,138.0,127.0,121.0,127.0,127.0,40.0,-113.0,-55.0,127.0,127.0,127.0,121.0,91.0,-90.0
127.0,124.0,126.0,138.0,127.0,121.0,127.0,127.0,40.0,-113.0,-55.0,127.0,127.0,127.0,121.0,91.0,-90.0
127.0,124.0,126.0,139.0,127.0,121.0,127.0,127.0,40.0,-113.0,-55.0,127.0,127.0,127.0,121.0,91.0,-90.0
127.0,124.0,126.0,137.0,127.0,118.0,127.0,127.0,40.0,-113.0,-55.0,127.0,127.0,127.0,121.0,91.0,-90.0
128.0,124.0,128.0,149.0,126.0,124.0,127.0,127.0,40.0,-113.0,-55.0,127.0,127.0,127.0,121.0,91.0,-90.0
128.0,124.0,128.0,149.0,127.0,124.0,127.0,127.0,40.0,-113.0,-55.0,127.0,127.0,127.0,121.0,91.0,-90.0
128.0,124.0,127.0,149.0,127.0,126.0,127.0,127.0,40.0,-113.0,-55.0,127.0,127.0,127.0,121.0,91.0,-90.0
128.0,125.0,127.0,149.0,127.0,126.0,127.0,127.0,40.0,-113.0,-55.0,127.0,127.0,127.0,121.0,91.0,-90.0
128.0,125.0,127.0,149.0,126.0,127.0,127.0,127.0,40.0,-113.0,-55.0,127.0,127.0,127.0,121.0,91.0,-90.0
128.0,124.0,127.0,150.0,127.0,126.0,127.0,127.0,40.0,-113.0,-55.0,127.0,127.0,127.0,121.0,91.0,-90.0
128.0,124.0,127.0,150.0,126.0,127.0,128.0,127.0,40.0,-113.0,-55.0,127.0,127.0,127.0,121.0,91.0,-90.0
128.0,124.0,127.0,150.0,126.0,127.0,128.0,127.0,40.0,-113.0,-55.0,127.0,127.0,127.0,121.0,91.0,-90.0
128.0,124.0,127.0,150.0,126.0,126.0,128.0,127.0,40.0,-113.0,-55.0,127.0,127.0,127.0,121.0,91.0,-90.0
128.0,124.0,128.0,148.0,127.0,124.0,127.0,127.0,40.0,-113.0,-55.0,127.0,127.0,127.0,121.0,91.0,-90.0
128.0,124.0,133.0,153.0,126.0,143.0,127.0,127.0,41.0,-113.0,-56.0,127.0,127.0,127.0,121.0,91.0,-90.0
128.0,124.0,133.0,153.0,126.0,145.0,127.0,127.0,41.0,-113.0,-56.0,127.0,127.0,127.0,121.0,91.0,-90.0
128.0,124.0,133.0,154.0,126.0,146.0,127.0,127.0,41.0,-113.0,-56.0,127.0,127.0,127.0,121.0,91.0,-90.0
128.0,124.0,134.0,154.0,126.0,147.0,127.0,127.0,41.0,-113.0,-56.0,127.0,127.0,127.0,121.0,91.0,-90.0
128.0,124.0,134.0,154.0,126.0,147.0,127.0,127.0,41.0,-113.0,-56.0,127.0,127.0,127.0,121.0,91.0,-90.0
128.0,124.0,134.0,154.0,126.0,147.0,127.0,127.0,41.0,-113.0,-56.0,127.0,127.0,127.0,121.0,91.0,-90.0
128.0,124.0,135.0,154.0,126.0,148.0,127.0,127.0,41.0,-113.0,-56.0,127.0,127.0,127.0,121.0,91.0,-90.0
128.0,124.0,135.0,154.0,126.0,148.0,127.0,127.0,41.0,-113.0,-56.0,127.0,127.0,127.0,121.0,91.0,-90.0
128.0,124.0,133.0,153.0,126.0,142.0,127.0,127.0,41.0,-113.0,-56.0,127.0,127.0,127.0,121.0,91.0,-90.0
128.0,124.0,133.0,153.0,126.0,142.0,127.0,127.0,41.0,-113.0,-56.0,127.0,127.0,127.0,121.0,91.0,-90.0
128.0,124.0,137.0,148.0,124.0,164.0,127.0,127.0,41.0,-114.0,-56.0,127.0,127.0,127.0,121.0,91.0,-90.0
128.0,124.0,136.0,148.0,124.0,166.0,127.0,127.0,41.0,-114.0,-56.0,127.0,127.0,127.0,121.0,91.0,-90.0
128.0,124.0,136.0,148.0,124.0,166.0,127.0,127.0,41.0,-114.0,-56.0,127.0,127.0,127.0,121.0,91.0,-90.0
128.0,124.0,136.0,148.0,124.0,166.0,127.0,127.0,41.0,-114.0,-56.0,127.0,127.0,127.0,121.0,91.0,-90.0
128.0,124.0,135.0,148.0,124.0,166.0,127.0,127.0,41.0,-114.0,-56.0,127.0,127.0,127.0,121.0,91.0,-90.0
128.0,124.0,135.0,148.0,124.0,167.0,127.0,127.0,41.0,-114.0,-56.0,127.0,127.0,127.0,121.0,91.0,-90.0
128.0,124.0,137.0,148.0,124.0,163.0,127.0,127.0,41.0,-114.0,-56.0,127.0,127.0,127.0,121.0,91.0,-90.0
128.0,124.0,137.0,148.0,124.0,163.0,127.0,127.0,41.0,-114.0,-56.0,127.0,127.0,127.0,121.0,91.0,-90.0
128.0,124.0,137.0,148.0,124.0,163.0,127.0,127.0,41.0,-114.0,-56.0,127.0,127.0,127.0,121.0,91.0,-90.0
128.0,124.0,137.0,148.0,124.0,163.0,127.0,127.0,41.0,-114.0,-56.0,127.0,127.0,127.0,121.0,91.0,-90.0
128.0,125.0,123.0,143.0,125.0,173.0,127.0,128.0,41.0,-114.0,-56.0,127.0,127.0,127.0,121.0,91.0,-90.0
128.0,125.0,123.0,143.0,125.0,173.0,127.0,128.0,41.0,-114.0,-56.0,127.0,127.0,127.0,121.0,91.0,-90.0
128.0,125.0,123.0,143.0,125.0,173.0,127.0,128.0,41.0,-114.0,-56.0,127.0,127.0,127.0,121.0,91.0,-90.0
128.0,125.0,123.0,142.0,125.0,173.0,127.0,128.0,41.0,-114.0,-56.0,127.0,127.0,127.0,121.0,91.0,-90.0
128.0,125.0,123.0,142.0,125.0,174.0,127.0,128.0,41.0,-114.0,-56.0,127.0,127.0,127.0,121.0,91.0,-90.0
128.0,125.0,123.0,143.0,125.0,171.0,127.0,128.0,41.0,-114.0,-56.0,127.0,127.0,127.0,121.0,91.0,-90.0
128.0,124.0,123.0,143.0,125.0,171.0,127.0,128.0,41.0,-114.0,-56.0,127.0,127.0,127.0,121.0,91.0,-90.0
128.0,124.0,123.0,143.0,125.0,171.0,127.0,128.0,41.0,-114.0,-56.0,127.0,127.0,127.0,121.0,91.0,-90.0
128.0,124.0,123.0,143.0,125.0,171.0,127.0,128.0,41.0,-114.0,-56.0,127.0,127.0,127.0,121.0,91.0,-90.0
128.0,124.0,123.0,143.0,125.0,172.0,127.0,128.0,41.0,-114.0,-56.0,127.0,127.0,127.0,121.0,91.0,-90.0
128.0,125.0,123.0,143.0,127.0,177.0,127.0,128.0,41.0,-114.0,-56.0,127.0,127.0,127.0,121.0,91.0,-90.0
128.0,125.0,123.0,143.0,127.0,177.0,127.0,128.0,41.0,-114.0,-56.0,127.0,127.0,127.0,121.0,91.0,-90.0
128.0,125.0,123.0,143.0,127.0,177.0,127.0,128.0,41.0,-114.0,-56.0,127.0,127.0,127.0,121.0,91.0,-90.0
128.0,125.0,123.0,143.0,127.0,177.0,127.0,128.0,41.0,-114.0,-56.0,127.0,127.0,127.0,121.0,91.0,-90.0
128.0,125.0,123.0,143.0,127.0,176.0,127.0,128.0,41.0,-114.0,-56.0,127.0,127.0,127.0,121.0,91.0,-90.0
128.0,125.0,123.0,143.0,127.0,176.0,127.0,128.0,41.0,-114.0,-56.0,127.0,127.0,127.0,121.0,91.0,-90.0
128.0,125.0,123.0,143.0,127.0,176.0,127.0,128.0,41.0,-114.0,-56.0,127.0,127.0,127.0,121.0,91.0,-90.0
128.0,125.0,123.0,143.0,127.0,176.0,127.0,128.0,41.0,-114.0,-56.0,127.0,127.0,127.0,121.0,91.0,-90.0
128.0,125.0,123.0,143.0,127.0,176.0,127.0,128.0,41.0,-114.0,-56.0,127.0,127.0,127.0,121.0,91.0,-90.0
128.0,125.0,123.0,143.0,127.0,177.0,127.0,128.0,41.0,-114.0,-56.0,127.0,127.0,127.0,121.0,91.0,-90.0
128.0,124.0,127.0,143.0,126.0,179.0,127.0,128.0,41.0,-114.0,-55.0,127.0,127.0,127.0,121.0,91.0,-90.0
128.0,125.0,127.0,143.0,126.0,180.0,127.0,129.0,41.0,-114.0,-55.0,127.0,127.0,127.0,121.0,91.0,-90.0
128.0,125.0,127.0,143.0,126.0,181.0,127.0,129.0,41.0,-114.0,-55.0,127.0,127.0,127.0,121.0,91.0,-90.0
128.0,124.0,127.0,143.0,126.0,178.0,127.0,128.0,41.0,-114.0,-55.0,127.0,127.0,127.0,121.0,91.0,-90.0
128.0,124.0,127.0,143.0,126.0,178.0,127.0,128.0,41.0,-114.0,-55.0,127.0,127.0,127.0,121.0,91.0,-90.0
128.0,124.0,127.0,143.0,126.0,178.0,127.0,128.0,41.0,-114.0,-55.0,127.0,127.0,127.0,121.0,91.0,-90.0
128.0,124.0,127.0,143.0,126.0,178.0,127.0,128.0,41.0,-114.0,-55.0,127.0,127.0,127.0,121.0,91.0,-90.0
128.0,124.0,127.0,143.0,126.0,178.0,127.0,128.0,41.0,-114.0,-55.0,127.0,127.0,127.0,121.0,91.0,-90.0
128.0,124.0,127.0,143.0,126.0,178.0,127.0,128.0,41.0,-114.0,-55.0,127.0,127.0,127.0,121.0,91.0,-90.0
128.0,124.0,127.0,143.0,126.0,178.0,127.0,128.0,41.0,-114.0,-55.0,127.0,127.0,127.0,121.0,91.0,-90.0
129.0,125.0,125.0,144.0,126.0,191.0,127.0,128.0,41.0,-115.0,-55.0,127.0,127.0,127.0,121.0,91.0,-90.0
129.0,125.0,125.0,144.0,126.0,191.0,127.0,128.0,41.0,-115.0,-55.0,127.0,127.0,127.0,121.0,91.0,-90.0
129.0,125.0,125.0,144.0,126.0,189.0,127.0,128.0,41.0,-115.0,-55.0,127.0,127.0,127.0,121.0,91.0,-90.0
129.0,125.0,125.0,144.0,126.0,190.0,127.0,128.0,41.0,-115.0,-55.0,127.0,127.0,127.0,121.0,91.0,-90.0
129.0,125.0,125.0,144.0,126.0,191.0,127.0,128.0,41.0,-115.0,-55.0,127.0,127.0,127.0,121.0,91.0,-90.0
129.0,126.0,125.0,144.0,126.0,191.0,127.0,128.0,41.0,-115.0,-55.0,127.0,127.0,127.0,121.0,91.0,-90.0
129.0,125.0,125.0,144.0,126.0,191.0,127.0,128.0,41.0,-115.0,-55.0,127.0,127.0,127.0,121.0,91.0,-90.0
129.0,125.0,125.0,144.0,126.0,191.0,127.0,128.0,41.0,-115.0,-55.0,127.0,127.0,127.0,121.0,91.0,-90.0
129.0,125.0,125.0,144.0,126.0,191.0,127.0,128.0,41.0,-115.0,-55.0,127.0,127.0,127.0,121.0,91.0,-90.0
129.0,125.0,125.0,144.0,126.0,192.0,127.0,128.0,41.0,-115.0,-55.0,127.0,127.0,127.0,121.0,91.0,-90.0
129.0,126.0,127.0,147.0,126.0,194.0,127.0,128.0,41.0,-115.0,-55.0,127.0,127.0,127.0,121.0,91.0,-90.0
128.0,126.0,126.0,146.0,126.0,193.0,127.0,128.0,41.0,-115.0,-55.0,127.0,127.0,127.0,121.0,91.0,-90.0
128.0,126.0,127.0,147.0,126.0,193.0,127.0,128.0,41.0,-115.0,-55.0,127.0,127.0,127.0,121.0,91.0,-90.0
128.0,126.0,126.0,147.0,126.0,194.0,127.0,128.0,41.0,-115.0,-55.0,127.0,127.0,127.0,121.0,91.0,-90.0
128.0,126.0,126.0,147.0,126.0,195.0,127.0,128.0,41.0,-115.0,-55.0,127.0,127.0,127.0,121.0,91.0,-90.0
129.0,126.0,127.0,147.0,126.0,195.0,127.0,128.0,41.0,-115.0,-55.0,127.0,127.0,127.0,121.0,91.0,-90.0
129.0,126.0,127.0,147.0,126.0,194.0,127.0,128.0,41.0,-115.0,-55.0,127.0,127.0,127.0,121.0,91.0,-90.0
129.0,126.0,127.0,147.0,126.0,194.0,127.0,128.0,41.0,-115.0,-55.0,127.0,127.0,127.0,121.0,91.0,-90.0
129.0,126.0,127.0,147.0,126.0,195.0,127.0,128.0,41.0,-115.0,-55.0,127.0,127.0,127.0,121.0,91.0,-90.0
129.0,126.0,127.0,147.0,126.0,194.0,127.0,128.0,41.0,-115.0,-55.0,127.0,127.0,127.0,121.0,91.0,-90.0
129.0,126.0,128.0,147.0,126.0,193.0,127.0,127.0,40.0,-115.0,-55.0,127.0,127.0,127.0,121.0,91.0,-90.0
129.0,126.0,128.0,147.0,126.0,192.0,127.0,127.0,40.0,-115.0,-55.0,127.0,127.0,127.0,121.0,91.0,-90.0
129.0,126.0,128.0,147.0,126.0,193.0,127.0,127.0,40.0,-115.0,-55.0,127.0,127.0,127.0,121.0,91.0,-90.0
129.0,126.0,128.0,147.0,126.0,194.0,127.0,127.0,40.0,-115.0,-55.0,127.0,127.0,127.0,121.0,91.0,-90.0
129.0,126.0,128.0,147.0,126.0,193.0,127.0,127.0,40.0,-115.0,-55.0,127.0,127.0,127.0,121.0,91.0,-90.0
129.0,126.0,128.0,147.0,126.0,193.0,127.0,127.0,40.0,-115.0,-55.0,127.0,127.0,127.0,121.0,91.0,-90.0
129.0,126.0,128.0,147.0,126.0,193.0,127.0,127.0,40.0,-115.0,-55.0,127.0,127.0,127.0,121.0,91.0,-90.0
129.0,126.0,128.0,146.0,126.0,192.0,127.0,127.0,40.0,-115.0,-55.0,127.0,127.0,127.0,121.0,91.0,-90.0
129.0,126.0,129.0,146.0,126.0,192.0,127.0,127.0,40.0,-115.0,-55.0,127.0,127.0,127.0,121.0,91.0,-90.0
129.0,126.0,129.0,146.0,126.0,191.0,127.0,127.0,40.0,-115.0,-55.0,127.0,127.0,127.0,121.0,91.0,-90.0
129.0,126.0,129.0,144.0,126.0,176.0,127.0,127.0,40.0,-114.0,-55.0,127.0,127.0,127.0,121.0,91.0,-90.0
129.0,126.0,128.0,144.0,126.0,177.0,127.0,127.0,40.0,-114.0,-55.0,127.0,127.0,127.0,121.0,91.0,-90.0
129.0,126.0,128.0,144.0,126.0,178.0,127.0,127.0,40.0,-114.0,-55.0,127.0,127.0,127.0,121.0,91.0,-90.0
129.0,126.0,128.0,144.0,126.0,177.0,127.0,127.0,40.0,-114.0,-55.0,127.0,127.0,127.0,121.0,91.0,-90.0
129.0,126.0,127.0,144.0,126.0,177.0,127.0,127.0,40.0,-114.0,-55.0,127.0,127.0,127.0,121.0,91.0,-90.0
129.0,126.0,127.0,144.0,127.0,177.0,127.0,127.0,40.0,-114.0,-55.0,127.0,127.0,127.0,121.0,91.0,-90.0
129.0,126.0,127.0,145.0,127.0,176.0,127.0,127.0,40.0,-114.0,-55.0,127.0,127.0,127.0,121.0,91.0,-90.0
129.0,126.0,127.0,145.0,127.0,176.0,127.0,127.0,40.0,-114.0,-55.0,127.0,127.0,127.0,121.0,91.0,-90.0
129.0,126.0,127.0,145.0,127.0,175.0,127.0,127.0,40.0,-114.0,-55.0,127.0,127.0,127.0,121.0,91.0,-90.0
129.0,126.0,129.0,144.0,126.0,177.0,127.0,127.0,40.0,-114.0,-55.0,127.0,127.0,127.0,121.0,91.0,-90.0
130.0,126.0,127.0,144.0,126.0,164.0,126.0,127.0,40.0,-115.0,-55.0,127.0,127.0,127.0,121.0,91.0,-90.0
130.0,126.0,127.0,144.0,126.0,166.0,126.0,127.0,40.0,-115.0,-55.0,127.0,127.0,127.0,121.0,91.0,-90.0
130.0,127.0,127.0,144.0,126.0,165.0,126.0,127.0,40.0,-115.0,-55.0,127.0,127.0,127.0,121.0,91.0,-90.0
130.0,126.0,127.0,144.0,126.0,165.0,126.0,127.0,40.0,-115.0,-55.0,127.0,127.0,127.0,121.0,91.0,-90.0
130.0,126.0,128.0,144.0,126.0,165.0,126.0,127.0,40.0,-115.0,-55.0,127.0,127.0,127.0,121.0,91.0,-90.0
130.0,126.0,128.0,144.0,126.0,164.0,126.0,127.0,40.0,-115.0,-55.0,127.0,127.0,127.0,121.0,91.0,-90.0
130.0,126.0,128.0,144.0,126.0,164.0,126.0,127.0,40.0,-115.0,-55.0,127.0,127.0,127.0,121.0,91.0,-90.0
130.0,126.0,128.0,144.0,126.0,163.0,126.0,127.0,40.0,-115.0,-55.0,127.0,127.0,127.0,121.0,91.0,-90.0
130.0,126.0,127.0,143.0,126.0,164.0,126.0,127.0,40.0,-115.0,-55.0,127.0,127.0,127.0,121.0,91.0,-90.0
130.0,126.0,127.0,144.0,126.0,164.0,126.0,127.0,40.0,-115.0,-55.0,127.0,127.0,127.0,121.0,91.0,-90.0
129.0,127.0,129.0,141.0,126.0,153.0,127.0,127.0,40.0,-115.0,-55.0,127.0,127.0,127.0,121.0,91.0,-90.0
129.0,127.0,129.0,141.0,126.0,153.0,127.0,127.0,40.0,-115.0,-55.0,127.0,127.0,127.0,121.0,91.0,-90.0
129.0,126.0,129.0,141.0,126.0,153.0,127.0,127.0,40.0,-115.0,-55.0,127.0,127.0,127.0,121.0,91.0,-90.0
129.0,126.0,129.0,140.0,126.0,152.0,127.0,127.0,40.0,-115.0,-55.0,127.0,127.0,127.0,121.0,91.0,-90.0
129.0,126.0,129.0,140.0,126.0,152.0,127.0,127.0,40.0,-115.0,-55.0,127.0,127.0,127.0,121.0,91.0,-90.0
129.0,126.0,129.0,140.0,126.0,152.0,127.0,127.0,40.0,-115.0,-55.0,127.0,127.0,127.0,121.0,91.0,-90.0
129.0,126.0,129.0,140.0,126.0,151.0,127.0,127.0,40.0,-115.0,-55.0,127.0,127.0,127.0,121.0,91.0,-90.0
129.0,126.0,130.0,141.0,126.0,152.0,127.0,127.0,40.0,-115.0,-55.0,127.0,127.0,127.0,121.0,91.0,-90.0
129.0,126.0,130.0,141.0,126.0,152.0,127.0,127.0,40.0,-115.0,-55.0,127.0,127.0,127.0,121.0,91.0,-90.0
129.0,126.0,130.0,141.0,126.0,152.0,127.0,127.0,40.0,-115.0,-55.0,127.0,127.0,127.0,121.0,91.0,-90.0
129.0,127.0,127.0,138.0,125.0,148.0,127.0,127.0,40.0,-115.0,-55.0,127.0,127.0,127.0,121.0,91.0,-90.0
129.0,127.0,127.0,138.0,125.0,148.0,127.0,127.0,40.0,-115.0,-55.0,127.0,127.0,127.0,121.0,91.0,-90.0
129.0,126.0,127.0,138.0,125.0,148.0,127.0,127.0,40.0,-115.0,-55.0,127.0,127.0,127.0,121.0,91.0,-90.0
129.0,126.0,128.0,138.0,125.0,148.0,127.0,127.0,40.0,-115.0,-55.0,127.0,127.0,127.0,121.0,91.0,-90.0
129.0,126.0,128.0,138.0,125.0,147.0,127.0,127.0,40.0,-115.0,-55.0,127.0,127.0,127.0,121.0,91.0,-90.0
129.0,126.0,128.0,138.0,125.0,147.0,127.0,127.0,40.0,-115.0,-55.0,127.0,127.0,127.0,121.0,91.0,-90.0
129.0,126.0,127.0,139.0,125.0,147.0,127.0,127.0,40.0,-115.0,-55.0,127.0,127.0,127.0,121.0,91.0,-90.0
129.0,126.0,127.0,139.0,125.0,147.0,126.0,127.0,40.0,-115.0,-55.0,127.0,127.0,127.0,121.0,91.0,-90.0
129.0,126.0,127.0,138.0,125.0,147.0,126.0,127.0,40.0,-115.0,-55.0,127.0,127.0,127.0,121.0,91.0,-90.0
129.0,127.0,127.0,138.0,125.0,148.0,126.0,127.0,40.0,-115.0,-55.0,127.0,127.0,127.0,121.0,91.0,-90.0
129.0,125.0,127.0,136.0,125.0,142.0,126.0,127.0,40.0,-115.0,-55.0,127.0,127.0,127.0,121.0,91.0,-90.0
129.0,126.0,126.0,136.0,125.0,143.0,126.0,127.0,40.0,-115.0,-55.0,127.0,127.0,127.0,121.0,91.0,-90.0
129.0,126.0,126.0,136.0,125.0,144.0,126.0,127.0,40.0,-115.0,-55.0,127.0,127.0,127.0,121.0,91.0,-90.0
129.0,126.0,126.0,136.0,125.0,144.0,126.0,127.0,40.0,-115.0,-55.0,127.0,127.0,127.0,121.0,91.0,-90.0
129.0,126.0,127.0,136.0,125.0,144.0,126.0,127.0,40.0,-115.0,-55.0,127.0,127.0,127.0,121.0,91.0,-90.0
129.0,125.0,127.0,137.0,125.0,142.0,126.0,127.0,40.0,-115.0,-55.0,127.0,127.0,127.0,121.0,91.0,-90.0
129.0,125.0,127.0,137.0,125.0,142.0,126.0,127.0,40.0,-115.0,-55.0,127.0,127.0,127.0,121.0,91.0,-90.0
129.0,125.0,127.0,137.0,125.0,142.0,126.0,127.0,40.0,-115.0,-55.0,127.0,127.0,127.0,121.0,91.0,-90.0
129.0,125.0,127.0,137.0,125.0,142.0,126.0,127.0,40.0,-115.0,-55.0,127.0,127.0,127.0,121.0,91.0,-90.0
129.0,125.0,127.0,137.0,125.0,142.0,126.0,127.0,40.0,-115.0,-55.0,127.0,127.0,127.0,121.0,91.0,-90.0
129.0,126.0,129.0,135.0,126.0,141.0,127.0,128.0,40.0,-115.0,-55.0,127.0,127.0,127.0,121.0,91.0,-90.0
129.0,126.0,129.0,135.0,126.0,140.0,126.0,128.0,40.0,-115.0,-55.0,127.0,127.0,127.0,121.0,91.0,-90.0
129.0,126.0,129.0,135.0,126.0,140.0,127.0,128.0,40.0,-115.0,-55.0,127.0,127.0,127.0,121.0,91.0,-90.0
129.0,126.0,130.0,135.0,126.0,140.0,127.0,128.0,40.0,-115.0,-55.0,127.0,127.0,127.0,121.0,91.0,-90.0
129.0,127.0,127.0,136.0,126.0,141.0,126.0,127.0,40.0,-115.0,-55.0,127.0,127.0,127.0,121.0,91.0,-90.0
129.0,127.0,127.0,136.0,126.0,142.0,126.0,128.0,40.0,-115.0,-55.0,127.0,127.0,127.0,121.0,91.0,-90.0
129.0,127.0,128.0,136.0,126.0,141.0,126.0,128.0,40.0,-115.0,-55.0,127.0,127.0,127.0,121.0,91.0,-90.0
129.0,127.0,128.0,136.0,126.0,141.0,127.0,128.0,40.0,-115.0,-55.0,127.0,127.0,127.0,121.0,91.0,-90.0
129.0,126.0,128.0,136.0,126.0,141.0,126.0,128.0,40.0,-115.0,-55.0,127.0,127.0,127.0,121.0,91.0,-90.0
129.0,126.0,128.0,136.0,126.0,141.0,126.0,128.0,40.0,-115.0,-55.0,127.0,127.0,127.0,121.0,91.0,-90.0
129.0,126.0,135.0,134.0,125.0,139.0,126.0,128.0,40.0,-115.0,-55.0,127.0,127.0,127.0,121.0,91.0,-90.0
129.0,126.0,135.0,134.0,125.0,139.0,127.0,128.0,40.0,-115.0,-55.0,127.0,127.0,127.0,121.0,91.0,-90.0
129.0,126.0,135.0,134.0,125.0,139.0,127.0,128.0,40.0,-115.0,-55.0,127.0,127.0,127.0,121.0,91.0,-90.0
129.0,127.0,135.0,134.0,125.0,140.0,127.0,128.0,40.0,-115.0,-55.0,127.0,127.0,127.0,121.0,91.0,-90.0
129.0,127.0,134.0,134.0,125.0,140.0,127.0,128.0,40.0,-115.0,-55.0,127.0,127.0,127.0,121.0,91.0,-90.0
129.0,127.0,135.0,134.0,125.0,140.0,127.0,128.0,40.0,-115.0,-55.0,127.0,127.0,127.0,121.0,91.0,-90.0
129.0,126.0,135.0,134.0,125.0,140.0,127.0,128.0,40.0,-115.0,-55.0,127.0,127.0,127.0,121.0,91.0,-90.0
129.0,126.0,135.0,134.0,125.0,140.0,127.0,128.0,40.0,-115.0,-55.0,127.0,127.0,127.0,121.0,91.0,-90.0
129.0,126.0,135.0,134.0,125.0,140.0,127.0,128.0,40.0,-115.0,-55.0,127.0,127.0,127.0,121.0,91.0,-90.0
129.0,126.0,135.0,134.0,125.0,139.0,127.0,128.0,40.0,-115.0,-55.0,127.0,127.0,127.0,121.0,91.0,-90.0
129.0,126.0,131.0,133.0,125.0,136.0,127.0,128.0,40.0,-115.0,-55.0,127.0,127.0,127.0,121.0,91.0,-90.0
129.0,126.0,131.0,133.0,125.0,136.0,127.0,128.0,40.0,-115.0,-55.0,127.0,127.0,127.0,121.0,91.0,-90.0
129.0,126.0,132.0,133.0,125.0,136.0,127.0,128.0,40.0,-115.0,-55.0,127.0,127.0,127.0,121.0,91.0,-90.0
129.0,126.0,132.0,133.0,125.0,137.0,127.0,128.0,40.0,-115.0,-55.0,127.0,127.0,127.0,121.0,91.0,-90.0
129.0,126.0,132.0,133.0,125.0,137.0,127.0,128.0,40.0,-115.0,-55.0,127.0,127.0,127.0,121.0,91.0,-90.0
129.0,126.0,132.0,133.0,125.0,137.0,127.0,128.0,40.0,-115.0,-55.0,127.0,127.0,127.0,121.0,91.0,-90.0
129.0,126.0,131.0,133.0,125.0,137.0,127.0,128.0,40.0,-115.0,-55.0,127.0,127.0,127.0,121.0,91.0,-90.0
129.0,126.0,131.0,133.0,125.0,137.0,127.0,128.0,40.0,-115.0,-55.0,127.0,127.0,127.0,121.0,91.0,-90.0
129.0,126.0,131.0,133.0,125.0,137.0,127.0,128.0,40.0,-115.0,-55.0,127.0,127.0,127.0,121.0,91.0,-90.0
129.0,126.0,131.0,133.0,125.0,136.0,127.0,128.0,40.0,-115.0,-55.0,127.0,127.0,127.0,121.0,91.0,-90.0
128.0,125.0,129.0,132.0,125.0,135.0,126.0,128.0,40.0,-115.0,-56.0,127.0,127.0,127.0,121.0,91.0,-90.0
129.0,126.0,129.0,132.0,126.0,135.0,126.0,128.0,40.0,-115.0,-56.0,127.0,127.0,127.0,121.0,91.0,-90.0
129.0,126.0,129.0,133.0,126.0,136.0,126.0,128.0,40.0,-115.0,-56.0,127.0,127.0,127.0,121.0,91.0,-90.0
129.0,126.0,129.0,132.0,126.0,137.0,126.0,128.0,40.0,-115.0,-56.0,127.0,127.0,127.0,121.0,91.0,-90.0
129.0,126.0,129.0,132.0,126.0,136.0,126.0,128.0,40.0,-115.0,-56.0,127.0,127.0,127.0,121.0,91.0,-90.0
129.0,126.0,129.0,132.0,125.0,136.0,126.0,128.0,40.0,-115.0,-56.0,127.0,127.0,127.0,121.0,91.0,-90.0
129.0,126.0,129.0,132.0,125.0,136.0,126.0,128.0,40.0,-115.0,-56.0,127.0,127.0,127.0,121.0,91.0,-90.0
128.0,126.0,129.0,132.0,125.0,136.0,126.0,128.0,40.0,-115.0,-56.0,127.0,127.0,127.0,121.0,91.0,-90.0
129.0,126.0,129.0,132.0,125.0,135.0,126.0,128.0,40.0,-115.0,-56.0,127.0,127.0,127.0,121.0,91.0,-90.0
128.0,126.0,129.0,132.0,125.0,135.0,126.0,127.0,40.0,-115.0,-56.0,127.0,127.0,127.0,121.0,91.0,-90.0
128.0,125.0,128.0,131.0,125.0,130.0,127.0,127.0,40.0,-116.0,-56.0,127.0,127.0,127.0,121.0,91.0,-90.0
128.0,126.0,128.0,131.0,125.0,131.0,127.0,128.0,40.0,-116.0,-56.0,127.0,127.0,127.0,121.0,91.0,-90.0
128.0,126.0,128.0,131.0,125.0,132.0,127.0,128.0,40.0,-116.0,-56.0,127.0,127.0,127.0,121.0,91.0,-90.0
128.0,126.0,128.0,131.0,125.0,132.0,127.0,128.0,40.0,-116.0,-56.0,127.0,127.0,127.0,121.0,91.0,-90.0
128.0,126.0,128.0,131.0,125.0,131.0,127.0,128.0,40.0,-116.0,-56.0,127.0,127.0,127.0,121.0,91.0,-90.0
128.0,126.0,128.0,131.0,125.0,131.0,127.0,128.0,40.0,-116.0,-56.0,127.0,127.0,127.0,121.0,91.0,-90.0
128.0,126.0,128.0,131.0,125.0,131.0,127.0,128.0,40.0,-116.0,-56.0,127.0,127.0,127.0,121.0,91.0,-90.0
128.0,125.0,128.0,131.0,125.0,131.0,127.0,128.0,40.0,-116.0,-56.0,127.0,127.0,127.0,121.0,91.0,-90.0
128.0,125.0,128.0,131.0,125.0,131.0,127.0,128.0,40.0,-116.0,-56.0,127.0,127.0,127.0,121.0,91.0,-90.0
128.0,125.0,128.0,131.0,125.0,131.0,127.0,128.0,40.0,-116.0,-56.0,127.0,127.0,127.0,121.0,91.0,-90.0
128.0,125.0,126.0,131.0,125.0,132.0,127.0,128.0,40.0,-116.0,-56.0,127.0,127.0,127.0,121.0,91.0,-90.0
128.0,126.0,126.0,131.0,125.0,132.0,127.0,128.0,40.0,-116.0,-56.0,127.0,127.0,127.0,121.0,91.0,-90.0
128.0,126.0,126.0,131.0,125.0,132.0,127.0,128.0,40.0,-116.0,-56.0,127.0,127.0,127.0,121.0,91.0,-90.0
128.0,125.0,126.0,131.0,125.0,132.0,127.0,128.0,40.0,-116.0,-56.0,127.0,127.0,127.0,121.0,91.0,-90.0
128.0,125.0,126.0,131.0,125.0,132.0,127.0,128.0,40.0,-116.0,-56.0,127.0,127.0,127.0,121.0,91.0,-90.0
128.0,125.0,126.0,131.0,125.0,132.0,127.0,128.0,40.0,-116.0,-56.0,127.0,127.0,127.0,121.0,91.0,-90.0
128.0,125.0,126.0,131.0,125.0,131.0,127.0,128.0,40.0,-116.0,-56.0,127.0,127.0,127.0,121.0,91.0,-90.0
128.0,125.0,126.0,131.0,125.0,131.0,127.0,128.0,40.0,-116.0,-56.0,127.0,127.0,127.0,121.0,91.0,-90.0
128.0,125.0,126.0,131.0,125.0,131.0,127.0,128.0,40.0,-116.0,-56.0,127.0,127.0,127.0,121.0,91.0,-90.0
128.0,125.0,127.0,131.0,125.0,131.0,127.0,128.0,40.0,-116.0,-56.0,127.0,127.0,127.0,121.0,91.0,-90.0
128.0,126.0,123.0,131.0,126.0,130.0,126.0,128.0,40.0,-116.0,-56.0,127.0,127.0,127.0,121.0,91.0,-90.0
128.0,126.0,123.0,131.0,126.0,130.0,127.0,128.0,40.0,-116.0,-56.0,127.0,127.0,127.0,121.0,91.0,-90.0
128.0,126.0,123.0,131.0,126.0,130.0,127.0,128.0,40.0,-116.0,-56.0,127.0,127.0,127.0,121.0,91.0,-90.0
128.0,126.0,123.0,131.0,126.0,130.0,127.0,128.0,40.0,-116.0,-56.0,127.0,127.0,127.0,121.0,91.0,-90.0
128.0,126.0,123.0,131.0,126.0,130.0,127.0,128.0,40.0,-116.0,-56.0,127.0,127.0,127.0,121.0,91.0,-90.0
128.0,126.0,123.0,131.0,126.0,130.0,127.0,128.0,40.0,-116.0,-56.0,127.0,127.0,127.0,121.0,91.0,-90.0
128.0,126.0,123.0,131.0,126.0,130.0,127.0,128.0,40.0,-116.0,-56.0,127.0,127.0,127.0,121.0,91.0,-90.0
128.0,126.0,123.0,131.0,126.0,129.0,127.0,128.0,40.0,-116.0,-56.0,127.0,127.0,127.0,121.0,91.0,-90.0
128.0,126.0,124.0,131.0,126.0,128.0,127.0,128.0,40.0,-116.0,-56.0,127.0,127.0,127.0,121.0,91.0,-90.0
128.0,126.0,123.0,131.0,126.0,129.0,127.0,128.0,40.0,-116.0,-56.0,127.0,127.0,127.0,121.0,91.0,-90.0
128.0,125.0,120.0,128.0,126.0,127.0,126.0,128.0,40.0,-116.0,-56.0,127.0,127.0,127.0,121.0,91.0,-90.0
128.0,126.0,120.0,128.0,126.0,127.0,126.0,128.0,40.0,-116.0,-56.0,127.0,127.0,127.0,121.0,91.0,-90.0
128.0,126.0,119.0,128.0,126.0,128.0,126.0,128.0,40.0,-116.0,-56.0,127.0,127.0,127.0,121.0,91.0,-90.0
128.0,126.0,119.0,128.0,126.0,129.0,126.0,128.0,40.0,-116.0,-56.0,127.0,127.0,127.0,121.0,91.0,-90.0
129.0,126.0,119.0,128.0,126.0,128.0,126.0,128.0,40.0,-116.0,-56.0,127.0,127.0,127.0,121.0,91.0,-90.0
128.0,126.0,119.0,128.0,126.0,128.0,126.0,128.0,40.0,-116.0,-56.0,127.0,127.0,127.0,121.0,91.0,-90.0
128.0,126.0,119.0,128.0,127.0,128.0,126.0,128.0,40.0,-116.0,-56.0,127.0,127.0,127.0,121.0,91.0,-90.0
128.0,126.0,120.0,129.0,126.0,127.0,126.0,128.0,40.0,-116.0,-56.0,127.0,127.0,127.0,121.0,91.0,-90.0
128.0,125.0,120.0,128.0,126.0,127.0,126.0,128.0,40.0,-116.0,-56.0,127.0,127.0,127.0,121.0,91.0,-90.0
128.0,125.0,120.0,128.0,126.0,126.0,126.0,128.0,40.0,-116.0,-56.0,127.0,127.0,127.0,121.0,91.0,-90.0
128.0,127.0,122.0,127.0,127.0,127.0,127.0,128.0,40.0,-116.0,-56.0,127.0,127.0,127.0,121.0,91.0,-90.0
128.0,127.0,122.0,127.0,127.0,127.0,127.0,128.0,40.0,-116.0,-56.0,127.0,127.0,127.0,121.0,91.0,-90.0
128.0,126.0,122.0,127.0,127.0,126.0,127.0,128.0,40.0,-116.0,-56.0,127.0,127.0,127.0,121.0,91.0,-90.0
128.0,126.0,123.0,127.0,127.0,126.0,127.0,128.0,40.0,-116.0,-56.0,127.0,127.0,127.0,121.0,91.0,-90.0
128.0,126.0,123.0,127.0,127.0,126.0,127.0,128.0,40.0,-116.0,-56.0,127.0,127.0,127.0,121.0,91.0,-90.0
128.0,126.0,123.0,127.0,127.0,125.0,127.0,128.0,40.0,-116.0,-56.0,127.0,127.0,127.0,121.0,91.0,-90.0
128.0,127.0,121.0,127.0,127.0,127.0,127.0,128.0,40.0,-116.0,-56.0,127.0,127.0,127.0,121.0,91.0,-90.0
128.0,127.0,121.0,127.0,127.0,127.0,127.0,128.0,40.0,-116.0,-56.0,127.0,127.0,127.0,121.0,91.0,-90.0
128.0,127.0,121.0,127.0,127.0,127.0,127.0,128.0,40.0,-116.0,-56.0,127.0,127.0,127.0,121.0,91.0,-90.0
128.0,127.0,122.0,127.0,127.0,127.0,127.0,128.0,40.0,-116.0,-56.0,127.0,127.0,127.0,121.0,91.0,-90.0
128.0,127.0,125.0,126.0,127.0,121.0,127.0,128.0,40.0,-116.0,-56.0,127.0,127.0,127.0,121.0,91.0,-90.0
128.0,127.0,125.0,126.0,127.0,121.0,127.0,128.0,40.0,-116.0,-56.0,127.0,127.0,127.0,121.0,91.0,-90.0
128.0,127.0,125.0,126.0,127.0,121.0,127.0,128.0,40.0,-116.0,-56.0,127.0,127.0,127.0,121.0,91.0,-90.0
128.0,127.0,125.0,126.0,127.0,120.0,127.0,128.0,40.0,-116.0,-56.0,127.0,127.0,127.0,121.0,91.0,-90.0
128.0,127.0,125.0,126.0,127.0,120.0,127.0,128.0,40.0,-116.0,-56.0,127.0,127.0,127.0,121.0,91.0,-90.0
129.0,127.0,124.0,126.0,127.0,122.0,127.0,128.0,40.0,-116.0,-56.0,127.0,127.0,127.0,121.0,91.0,-90.0
129.0,127.0,124.0,126.0,127.0,122.0,127.0,128.0,40.0,-116.0,-56.0,127.0,127.0,127.0,121.0,91.0,-90.0
129.0,127.0,124.0,126.0,127.0,122.0,127.0,128.0,40.0,-116.0,-56.0,127.0,127.0,127.0,121.0,91.0,-90.0
128.0,127.0,124.0,126.0,127.0,122.0,127.0,128.0,40.0,-116.0,-56.0,127.0,127.0,127.0,121.0,91.0,-90.0
128.0,127.0,124.0,126.0,127.0,122.0,127.0,128.0,40.0,-116.0,-56.0,127.0,127.0,127.0,121.0,91.0,-90.0
129.0,127.0,125.0,126.0,127.0,122.0,127.0,128.0,40.0,-116.0,-56.0,127.0,127.0,127.0,121.0,91.0,-90.0
129.0,127.0,125.0,126.0,127.0,122.0,127.0,128.0,40.0,-116.0,-56.0,127.0,127.0,127.0,121.0,91.0,-90.0
129.0,127.0,126.0,126.0,127.0,121.0,127.0,128.0,40.0,-116.0,-56.0,127.0,127.0,127.0,121.0,91.0,-90.0
129.0,127.0,126.0,126.0,127.0,121.0,127.0,128.0,40.0,-116.0,-56.0,127.0,127.0,127.0,121.0,91.0,-90.0
129.0,128.0,124.0,126.0,127.0,123.0,127.0,128.0,40.0,-116.0,-56.0,127.0,127.0,127.0,121.0,91.0,-90.0
129.0,127.0,124.0,126.0,127.0,122.0,127.0,128.0,40.0,-116.0,-56.0,127.0,127.0,127.0,121.0,91.0,-90.0
129.0,127.0,124.0,126.0,127.0,122.0,127.0,128.0,40.0,-116.0,-56.0,127.0,127.0,127.0,121.0,91.0,-90.0
129.0,127.0,125.0,126.0,127.0,122.0,127.0,128.0,40.0,-116.0,-56.0,127.0,127.0,127.0,121.0,91.0,-90.0
129.0,127.0,125.0,126.0,127.0,122.0,127.0,128.0,40.0,-116.0,-56.0,127.0,127.0,127.0,121.0,91.0,-90.0
129.0,127.0,125.0,126.0,127.0,122.0,127.0,128.0,40.0,-116.0,-56.0,127.0,127.0,127.0,121.0,91.0,-90.0
129.0,127.0,132.0,126.0,127.0,122.0,127.0,128.0,39.0,-116.0,-56.0,127.0,127.0,127.0,121.0,91.0,-90.0
129.0,127.0,133.0,126.0,126.0,122.0,127.0,128.0,39.0,-116.0,-56.0,127.0,127.0,127.0,121.0,91.0,-90.0
129.0,127.0,133.0,125.0,126.0,121.0,127.0,128.0,39.0,-116.0,-56.0,127.0,127.0,127.0,121.0,91.0,-90.0
129.0,128.0,129.0,126.0,127.0,123.0,127.0,128.0,39.0,-116.0,-56.0,127.0,127.0,127.0,121.0,91.0,-90.0
129.0,128.0,129.0,126.0,127.0,123.0,127.0,128.0,39.0,-116.0,-56.0,127.0,127.0,127.0,121.0,91.0,-90.0
129.0,127.0,130.0,126.0,127.0,123.0,127.0,128.0,39.0,-116.0,-56.0,127.0,127.0,127.0,121.0,91.0,-90.0
129.0,127.0,130.0,126.0,127.0,123.0,127.0,128.0,39.0,-116.0,-56.0,127.0,127.0,127.0,121.0,91.0,-90.0
129.0,127.0,131.0,126.0,127.0,123.0,127.0,128.0,39.0,-116.0,-56.0,127.0,127.0,127.0,121.0,91.0,-90.0
129.0,127.0,131.0,126.0,127.0,122.0,127.0,128.0,39.0,-116.0,-56.0,127.0,127.0,127.0,121.0,91.0,-90.0
129.0,127.0,132.0,126.0,127.0,122.0,127.0,128.0,39.0,-116.0,-56.0,127.0,127.0,127.0,121.0,91.0,-90.0
129.0,126.0,132.0,123.0,126.0,122.0,127.0,128.0,39.0,-116.0,-56.0,127.0,127.0,127.0,121.0,91.0,-90.0
129.0,126.0,133.0,123.0,126.0,122.0,127.0,128.0,39.0,-116.0,-56.0,127.0,127.0,127.0,121.0,91.0,-90.0
129.0,127.0,132.0,124.0,126.0,123.0,127.0,128.0,39.0,-116.0,-56.0,127.0,127.0,127.0,121.0,91.0,-90.0
129.0,127.0,132.0,124.0,126.0,123.0,127.0,128.0,39.0,-116.0,-56.0,127.0,127.0,127.0,121.0,91.0,-90.0
129.0,127.0,132.0,124.0,126.0,123.0,127.0,128.0,39.0,-116.0,-56.0,127.0,127.0,127.0,121.0,91.0,-90.0
129.0,127.0,132.0,124.0,126.0,123.0,127.0,128.0,39.0,-116.0,-56.0,127.0,127.0,127.0,121.0,91.0,-90.0
129.0,126.0,132.0,124.0,126.0,123.0,127.0,128.0,39.0,-116.0,-56.0,127.0,127.0,127.0,121.0,91.0,-90.0
129.0,126.0,132.0,124.0,126.0,123.0,127.0,128.0,39.0,-116.0,-56.0,127.0,127.0,127.0,121.0,91.0,-90.0
129.0,126.0,132.0,124.0,126.0,122.0,127.0,128.0,39.0,-116.0,-56.0,127.0,127.0,127.0,121.0,91.0,-90.0
129.0,126.0,132.0,123.0,126.0,122.0,127.0,128.0,39.0,-116.0,-56.0,127.0,127.0,127.0,121.0,91.0,-90.0
128.0,126.0,134.0,121.0,126.0,124.0,127.0,128.0,39.0,-116.0,-56.0,127.0,127.0,127.0,121.0,91.0,-90.0
129.0,127.0,132.0,121.0,126.0,125.0,127.0,128.0,39.0,-116.0,-56.0,127.0,127.0,127.0,121.0,91.0,-90.0
129.0,127.0,132.0,121.0,126.0,125.0,127.0,128.0,39.0,-116.0,-56.0,127.0,127.0,127.0,121.0,91.0,-90.0
129.0,127.0,133.0,121.0,126.0,125.0,127.0,128.0,39.0,-116.0,-56.0,127.0,127.0,127.0,121.0,91.0,-90.0
129.0,126.0,133.0,121.0,126.0,125.0,127.0,128.0,39.0,-116.0,-56.0,127.0,127.0,127.0,121.0,91.0,-90.0
129.0,126.0,133.0,121.0,126.0,125.0,127.0,128.0,39.0,-116.0,-56.0,127.0,127.0,127.0,121.0,91.0,-90.0
129.0,126.0,133.0,121.0,126.0,125.0,127.0,128.0,39.0,-116.0,-56.0,127.0,127.0,127.0,121.0,91.0,-90.0
129.0,126.0,133.0,121.0,126.0,125.0,127.0,128.0,39.0,-116.0,-56.0,127.0,127.0,127.0,121.0,91.0,-90.0
129.0,126.0,133.0,121.0,126.0,125.0,127.0,128.0,39.0,-116.0,-56.0,127.0,127.0,127.0,121.0,91.0,-90.0
128.0,126.0,133.0,121.0,126.0,125.0,127.0,128.0,39.0,-116.0,-56.0,127.0,127.0,127.0,121.0,91.0,-90.0
129.0,127.0,132.0,119.0,126.0,127.0,127.0,128.0,39.0,-116.0,-56.0,127.0,127.0,127.0,121.0,91.0,-90.0
129.0,127.0,132.0,119.0,126.0,127.0,127.0,128.0,39.0,-116.0,-56.0,127.0,127.0,127.0,121.0,91.0,-90.0
129.0,126.0,132.0,119.0,126.0,127.0,127.0,128.0,39.0,-116.0,-56.0,127.0,127.0,127.0,121.0,91.0,-90.0
129.0,126.0,132.0,119.0,126.0,127.0,127.0,128.0,39.0,-116.0,-56.0,127.0,127.0,127.0,121.0,91.0,-90.0
128.0,126.0,132.0,119.0,126.0,127.0,127.0,128.0,39.0,-116.0,-56.0,127.0,127.0,127.0,121.0,91.0,-90.0
128.0,126.0,132.0,119.0,126.0,127.0,127.0,128.0,39.0,-116.0,-56.0,127.0,127.0,127.0,121.0,91.0,-90.0
128.0,126.0,132.0,119.0,126.0,127.0,127.0,128.0,39.0,-116.0,-56.0,127.0,127.0,127.0,121.0,91.0,-90.0
128.0,126.0,132.0,119.0,126.0,126.0,127.0,128.0,39.0,-116.0,-56.0,127.0,127.0,127.0,121.0,91.0,-90.0
128.0,126.0,132.0,119.0,126.0,126.0,127.0,128.0,39.0,-116.0,-56.0,127.0,127.0,127.0,121.0,91.0,-90.0
128.0,126.0,132.0,119.0,126.0,126.0,127.0,128.0,39.0,-116.0,-56.0,127.0,127.0,127.0,121.0,91.0,-90.0
128.0,125.0,131.0,120.0,126.0,123.0,127.0,128.0,38.0,-116.0,-56.0,127.0,127.0,127.0,121.0,91.0,-90.0
128.0,125.0,130.0,120.0,126.0,124.0,127.0,128.0,38.0,-116.0,-56.0,127.0,127.0,127.0,121.0,91.0,-90.0
128.0,126.0,130.0,120.0,126.0,125.0,127.0,128.0,38.0,-116.0,-56.0,127.0,127.0,127.0,121.0,91.0,-90.0
128.0,126.0,130.0,120.0,126.0,126.0,127.0,128.0,38.0,-116.0,-56.0,127.0,127.0,127.0,121.0,91.0,-90.0
128.0,126.0,130.0,120.0,126.0,125.0,127.0,128.0,38.0,-116.0,-56.0,127.0,127.0,127.0,121.0,91.0,-90.0
128.0,126.0,130.0,120.0,126.0,125.0,127.0,128.0,38.0,-116.0,-56.0,127.0,127.0,127.0,121.0,91.0,-90.0
128.0,125.0,130.0,120.0,126.0,125.0,127.0,128.0,38.0,-116.0,-56.0,127.0,127.0,127.0,121.0,91.0,-90.0
128.0,125.0,130.0,120.0,126.0,125.0,127.0,128.0,38.0,-116.0,-56.0,127.0,127.0,127.0,121.0,91.0,-90.0
128.0,126.0,130.0,120.0,126.0,125.0,127.0,128.0,38.0,-116.0,-56.0,127.0,127.0,127.0,121.0,91.0,-90.0
128.0,126.0,129.0,120.0,126.0,126.0,127.0,128.0,38.0,-116.0,-56.0,127.0,127.0,127.0,121.0,91.0,-90.0
128.0,126.0,129.0,120.0,127.0,125.0,127.0,128.0,38.0,-117.0,-57.0,127.0,127.0,127.0,121.0,91.0,-90.0
128.0,126.0,129.0,120.0,127.0,124.0,127.0,128.0,38.0,-117.0,-57.0,127.0,127.0,127.0,121.0,91.0,-90.0
128.0,126.0,129.0,120.0,127.0,124.0,127.0,128.0,38.0,-117.0,-57.0,127.0,127.0,127.0,121.0,91.0,-90.0
128.0,126.0,129.0,120.0,127.0,124.0,127.0,128.0,38.0,-117.0,-57.0,127.0,127.0,127.0,121.0,91.0,-90.0
128.0,126.0,129.0,120.0,127.0,123.0,127.0,128.0,38.0,-117.0,-57.0,127.0,127.0,127.0,121.0,91.0,-90.0
128.0,126.0,129.0,120.0,127.0,123.0,127.0,128.0,38.0,-117.0,-57.0,127.0,127.0,127.0,121.0,91.0,-90.0
128.0,126.0,129.0,120.0,127.0,123.0,127.0,128.0,38.0,-117.0,-57.0,127.0,127.0,127.0,121.0,91.0,-90.0
128.0,126.0,129.0,120.0,127.0,123.0,127.0,128.0,38.0,-117.0,-57.0,127.0,127.0,127.0,121.0,91.0,-90.0
128.0,127.0,129.0,120.0,127.0,125.0,127.0,128.0,38.0,-117.0,-57.0,127.0,127.0,127.0,121.0,91.0,-90.0
128.0,126.0,129.0,120.0,127.0,125.0,127.0,128.0,38.0,-117.0,-57.0,127.0,127.0,127.0,121.0,91.0,-90.0
128.0,126.0,126.0,121.0,127.0,120.0,127.0,128.0,38.0,-117.0,-57.0,127.0,127.0,127.0,121.0,91.0,-90.0
128.0,126.0,126.0,121.0,127.0,120.0,127.0,127.0,38.0,-117.0,-57.0,127.0,127.0,127.0,121.0,91.0,-90.0
128.0,126.0,126.0,121.0,127.0,120.0,127.0,128.0,38.0,-117.0,-57.0,127.0,127.0,127.0,121.0,91.0,-90.0
128.0,126.0,126.0,121.0,127.0,120.0,127.0,127.0,38.0,-117.0,-57.0,127.0,127.0,127.0,121.0,91.0,-90.0
128.0,126.0,126.0,121.0,127.0,120.0,127.0,128.0,38.0,-117.0,-57.0,127.0,127.0,127.0,121.0,91.0,-90.0
128.0,126.0,126.0,121.0,127.0,121.0,127.0,128.0,38.0,-117.0,-57.0,127.0,127.0,127.0,121.0,91.0,-90.0
128.0,125.0,126.0,121.0,127.0,121.0,127.0,128.0,38.0,-117.0,-57.0,127.0,127.0,127.0,121.0,91.0,-90.0
128.0,125.0,126.0,121.0,127.0,121.0,127.0,128.0,38.0,-117.0,-57.0,127.0,127.0,127.0,121.0,91.0,-90.0
128.0,126.0,126.0,121.0,127.0,120.0,127.0,128.0,38.0,-117.0,-57.0,127.0,127.0,127.0,121.0,91.0,-90.0
128.0,126.0,126.0,121.0,127.0,120.0,127.0,128.0,38.0,-117.0,-57.0,127.0,127.0,127.0,121.0,91.0,-90.0
128.0,126.0,123.0,121.0,127.0,122.0,127.0,128.0,38.0,-117.0,-57.0,127.0,127.0,127.0,121.0,91.0,-90.0
128.0,126.0,124.0,121.0,127.0,122.0,127.0,128.0,38.0,-117.0,-57.0,127.0,127.0,127.0,121.0,91.0,-90.0
128.0,126.0,124.0,121.0,127.0,122.0,127.0,128.0,38.0,-117.0,-57.0,127.0,127.0,127.0,121.0,91.0,-90.0
128.0,126.0,124.0,121.0,127.0,122.0,127.0,128.0,38.0,-117.0,-57.0,127.0,127.0,127.0,121.0,91.0,-90.0
128.0,126.0,124.0,121.0,127.0,122.0,127.0,128.0,38.0,-117.0,-57.0,127.0,127.0,127.0,121.0,91.0,-90.0
128.0,126.0,124.0,121.0,127.0,121.0,127.0,128.0,38.0,-117.0,-57.0,127.0,127.0,127.0,121.0,91.0,-90.0
128.0,126.0,123.0,121.0,127.0,123.0,127.0,128.0,38.0,-117.0,-57.0,127.0,127.0,127.0,121.0,91.0,-90.0
128.0,126.0,123.0,121.0,127.0,123.0,127.0,128.0,38.0,-117.0,-57.0,127.0,127.0,127.0,121.0,91.0,-90.0
128.0,126.0,123.0,121.0,127.0,123.0,127.0,128.0,38.0,-117.0,-57.0,127.0,127.0,127.0,121.0,91.0,-90.0
128.0,126.0,123.0,121.0,127.0,123.0,127.0,128.0,38.0,-117.0,-57.0,127.0,127.0,127.0,121.0,91.0,-90.0
128.0,126.0,125.0,121.0,127.0,122.0,127.0,127.0,38.0,-117.0,-57.0,127.0,127.0,127.0,121.0,91.0,-90.0
128.0,126.0,125.0,121.0,127.0,122.0,127.0,127.0,38.0,-117.0,-57.0,127.0,127.0,127.0,121.0,91.0,-90.0
128.0,126.0,125.0,121.0,127.0,122.0,127.0,127.0,38.0,-117.0,-57.0,127.0,127.0,127.0,121.0,91.0,-90.0
128.0,126.0,126.0,121.0,127.0,122.0,127.0,127.0,38.0,-117.0,-57.0,127.0,127.0,127.0,121.0,91.0,-90.0
128.0,126.0,126.0,121.0,127.0,122.0,127.0,127.0,38.0,-117.0,-57.0,127.0,127.0,127.0,121.0,91.0,-90.0
128.0,126.0,124.0,122.0,127.0,123.0,127.0,127.0,38.0,-117.0,-57.0,127.0,127.0,127.0,121.0,91.0,-90.0
128.0,126.0,124.0,121.0,127.0,123.0,127.0,127.0,38.0,-117.0,-57.0,127.0,127.0,127.0,121.0,91.0,-90.0
128.0,126.0,124.0,121.0,127.0,123.0,127.0,127.0,38.0,-117.0,-57.0,127.0,127.0,127.0,121.0,91.0,-90.0
128.0,126.0,125.0,121.0,127.0,123.0,127.0,127.0,38.0,-117.0,-57.0,127.0,127.0,127.0,121.0,91.0,-90.0
128.0,126.0,125.0,121.0,127.0,122.0,127.0,127.0,38.0,-117.0,-57.0,127.0,127.0,127.0,121.0,91.0,-90.0
128.0,126.0,127.0,121.0,127.0,123.0,127.0,128.0,37.0,-117.0,-57.0,127.0,127.0,127.0,121.0,91.0,-90.0
128.0,126.0,128.0,121.0,127.0,123.0,127.0,128.0,37.0,-117.0,-57.0,127.0,127.0,127.0,121.0,91.0,-90.0
128.0,126.0,128.0,120.0,127.0,123.0,127.0,127.0,37.0,-117.0,-57.0,127.0,127.0,127.0,121.0,91.0,-90.0
128.0,126.0,128.0,120.0,127.0,123.0,127.0,128.0,37.0,-117.0,-57.0,127.0,127.0,127.0,121.0,91.0,-90.0
128.0,127.0,127.0,121.0,127.0,124.0,127.0,128.0,37.0,-117.0,-57.0,127.0,127.0,127.0,121.0,91.0,-90.0
128.0,126.0,127.0,121.0,127.0,124.0,127.0,128.0,37.0,-117.0,-57.0,127.0,127.0,127.0,121.0,91.0,-90.0
128.0,126.0,127.0,121.0,127.0,124.0,127.0,128.0,37.0,-117.0,-57.0,127.0,127.0,127.0,121.0,91.0,-90.0
128.0,126.0,127.0,121.0,127.0,124.0,127.0,128.0,37.0,-117.0,-57.0,127.0,127.0,127.0,121.0,91.0,-90.0
128.0,126.0,127.0,121.0,127.0,124.0,127.0,128.0,37.0,-117.0,-57.0,127.0,127.0,127.0,121.0,91.0,-90.0
128.0,126.0,127.0,121.0,127.0,123.0,127.0,128.0,37.0,-117.0,-57.0,127.0,127.0,127.0,121.0,91.0,-90.0
128.0,126.0,126.0,120.0,127.0,125.0,127.0,127.0,37.0,-117.0,-57.0,127.0,127.0,127.0,121.0,91.0,-90.0
128.0,126.0,126.0,120.0,127.0,125.0,127.0,127.0,37.0,-117.0,-57.0,127.0,127.0,127.0,121.0,91.0,-90.0
128.0,126.0,126.0,120.0,127.0,125.0,127.0,127.0,37.0,-117.0,-57.0,127.0,127.0,127.0,121.0,91.0,-90.0
128.0,127.0,126.0,120.0,127.0,125.0,127.0,127.0,37.0,-117.0,-57.0,127.0,127.0,127.0,121.0,91.0,-90.0
128.0,127.0,125.0,120.0,127.0,126.0,126.0,127.0,37.0,-117.0,-57.0,127.0,127.0,127.0,121.0,91.0,-90.0
128.0,127.0,125.0,120.0,127.0,127.0,127.0,128.0,37.0,-117.0,-57.0,127.0,127.0,127.0,121.0,91.0,-90.0
128.0,127.0,125.0,120.0,127.0,126.0,127.0,127.0,37.0,-117.0,-57.0,127.0,127.0,127.0,121.0,91.0,-90.0
128.0,126.0,125.0,120.0,127.0,126.0,127.0,127.0,37.0,-117.0,-57.0,127.0,127.0,127.0,121.0,91.0,-90.0
