emg1,emg2,emg3,emg4,emg5,emg6,emg7,emg8,acc_x,acc_y,acc_z,gyro_x,gyro_y,gyro_z,angle_pitch,angle_roll,angle_yaw
127.0,125.0,126.0,127.0,127.0,130.0,127.0,128.0,20.0,-106.0,-77.0,127.0,127.0,127.0,111.0,84.0,-89.0
127.0,125.0,126.0,127.0,127.0,130.0,127.0,128.0,20.0,-106.0,-77.0,127.0,127.0,127.0,111.0,84.0,-89.0
127.0,125.0,126.0,127.0,127.0,130.0,127.0,128.0,20.0,-106.0,-77.0,127.0,127.0,127.0,111.0,84.0,-89.0
127.0,125.0,126.0,127.0,127.0,130.0,127.0,128.0,20.0,-106.0,-77.0,127.0,127.0,127.0,111.0,84.0,-89.0
127.0,125.0,126.0,127.0,127.0,130.0,127.0,128.0,20.0,-106.0,-77.0,127.0,127.0,127.0,111.0,84.0,-89.0
127.0,125.0,126.0,127.0,127.0,130.0,127.0,128.0,20.0,-106.0,-77.0,127.0,127.0,127.0,111.0,84.0,-89.0
127.0,125.0,125.0,127.0,127.0,131.0,127.0,128.0,20.0,-106.0,-77.0,127.0,127.0,127.0,111.0,84.0,-89.0
127.0,125.0,125.0,127.0,127.0,131.0,127.0,128.0,20.0,-106.0,-77.0,127.0,127.0,127.0,111.0,84.0,-89.0
127.0,125.0,125.0,127.0,127.0,131.0,127.0,128.0,20.0,-106.0,-77.0,127.0,127.0,127.0,111.0,84.0,-89.0
127.0,124.0,126.0,127.0,126.0,129.0,127.0,127.0,20.0,-106.0,-77.0,127.0,127.0,127.0,111.0,84.0,-89.0
127.0,125.0,126.0,127.0,127.0,130.0,127.0,128.0,20.0,-106.0,-77.0,127.0,127.0,127.0,111.0,84.0,-89.0
127.0,125.0,127.0,127.0,127.0,130.0,127.0,128.0,20.0,-106.0,-77.0,127.0,127.0,127.0,111.0,84.0,-89.0
127.0,125.0,127.0,127.0,127.0,130.0,127.0,128.0,20.0,-106.0,-77.0,127.0,127.0,127.0,111.0,84.0,-89.0
127.0,125.0,127.0,127.0,127.0,130.0,127.0,128.0,20.0,-106.0,-77.0,127.0,127.0,127.0,111.0,84.0,-89.0
127.0,125.0,127.0,127.0,127.0,130.0,127.0,128.0,20.0,-106.0,-77.0,127.0,127.0,127.0,111.0,84.0,-89.0
127.0,126.0,127.0,127.0,127.0,131.0,127.0,128.0,20.0,-106.0,-77.0,127.0,127.0,127.0,111.0,84.0,-89.0
127.0,126.0,126.0,127.0,127.0,131.0,127.0,128.0,20.0,-106.0,-77.0,127.0,127.0,127.0,111.0,84.0,-89.0
127.0,126.0,127.0,127.0,127.0,131.0,127.0,128.0,20.0,-106.0,-77.0,127.0,127.0,127.0,111.0,84.0,-89.0
127.0,125.0,127.0,127.0,127.0,129.0,127.0,128.0,20.0,-106.0,-77.0,127.0,127.0,127.0,111.0,84.0,-89.0
127.0,125.0,127.0,127.0,127.0,130.0,127.0,128.0,20.0,-106.0,-77.0,127.0,127.0,127.0,111.0,84.0,-89.0
127.0,126.0,127.0,127.0,127.0,130.0,127.0,128.0,20.0,-106.0,-77.0,127.0,127.0,127.0,111.0,84.0,-89.0
127.0,125.0,126.0,127.0,127.0,130.0,127.0,128.0,20.0,-106.0,-77.0,127.0,127.0,127.0,111.0,84.0,-89.0
127.0,125.0,126.0,127.0,127.0,130.0,127.0,128.0,20.0,-106.0,-77.0,127.0,127.0,127.0,111.0,84.0,-89.0
127.0,125.0,126.0,127.0,127.0,130.0,127.0,128.0,20.0,-106.0,-77.0,127.0,127.0,127.0,111.0,84.0,-89.0
127.0,125.0,126.0,127.0,127.0,129.0,127.0,128.0,20.0,-106.0,-77.0,127.0,127.0,127.0,111.0,84.0,-89.0
127.0,125.0,126.0,127.0,127.0,129.0,127.0,128.0,20.0,-106.0,-77.0,127.0,127.0,127.0,111.0,84.0,-89.0
127.0,125.0,126.0,127.0,127.0,129.0,127.0,128.0,20.0,-106.0,-77.0,127.0,127.0,127.0,111.0,84.0,-89.0
127.0,126.0,126.0,127.0,127.0,131.0,127.0,128.0,20.0,-106.0,-77.0,127.0,127.0,127.0,111.0,84.0,-89.0
127.0,126.0,126.0,127.0,127.0,131.0,127.0,128.0,20.0,-106.0,-77.0,127.0,127.0,127.0,111.0,84.0,-89.0
127.0,126.0,126.0,127.0,127.0,131.0,127.0,128.0,20.0,-106.0,-77.0,127.0,127.0,127.0,111.0,84.0,-89.0
127.0,126.0,126.0,127.0,127.0,130.0,127.0,128.0,20.0,-106.0,-77.0,127.0,127.0,127.0,111.0,84.0,-89.0
127.0,125.0,126.0,127.0,127.0,131.0,127.0,128.0,20.0,-106.0,-77.0,127.0,127.0,127.0,111.0,84.0,-89.0
127.0,125.0,126.0,127.0,127.0,131.0,127.0,128.0,20.0,-106.0,-77.0,127.0,127.0,127.0,111.0,84.0,-89.0
127.0,125.0,126.0,127.0,127.0,130.0,127.0,128.0,20.0,-106.0,-77.0,127.0,127.0,127.0,111.0,84.0,-89.0
127.0,125.0,126.0,127.0,127.0,130.0,127.0,128.0,20.0,-106.0,-77.0,127.0,127.0,127.0,111.0,84.0,-89.0
127.0,125.0,126.0,127.0,127.0,130.0,127.0,128.0,20.0,-106.0,-77.0,127.0,127.0,127.0,111.0,84.0,-89.0
127.0,126.0,125.0,127.0,127.0,132.0,127.0,128.0,20.0,-106.0,-77.0,127.0,127.0,127.0,111.0,84.0,-89.0
127.0,126.0,125.0,127.0,127.0,131.0,127.0,128.0,20.0,-106.0,-77.0,127.0,127.0,127.0,111.0,84.0,-89.0
127.0,126.0,125.0,127.0,127.0,131.0,127.0,128.0,20.0,-106.0,-77.0,127.0,127.0,127.0,111.0,84.0,-89.0
127.0,126.0,125.0,127.0,127.0,131.0,127.0,128.0,20.0,-106.0,-77.0,127.0,127.0,127.0,111.0,84.0,-89.0
127.0,125.0,125.0,127.0,127.0,131.0,127.0,128.0,20.0,-106.0,-77.0,127.0,127.0,127.0,111.0,84.0,-89.0
127.0,125.0,126.0,127.0,127.0,130.0,127.0,128.0,20.0,-106.0,-77.0,127.0,127.0,127.0,111.0,84.0,-89.0
127.0,125.0,126.0,127.0,127.0,130.0,127.0,128.0,20.0,-106.0,-77.0,127.0,127.0,127.0,111.0,84.0,-89.0
127.0,125.0,126.0,127.0,127.0,129.0,127.0,128.0,20.0,-106.0,-77.0,127.0,127.0,127.0,111.0,84.0,-89.0
127.0,125.0,126.0,127.0,127.0,130.0,127.0,128.0,20.0,-106.0,-77.0,127.0,127.0,127.0,111.0,84.0,-89.0
127.0,126.0,126.0,127.0,127.0,131.0,127.0,128.0,20.0,-106.0,-77.0,127.0,127.0,127.0,111.0,84.0,-89.0
127.0,126.0,126.0,127.0,127.0,131.0,127.0,128.0,20.0,-106.0,-77.0,127.0,127.0,127.0,111.0,84.0,-89.0
127.0,126.0,126.0,127.0,127.0,131.0,127.0,128.0,20.0,-106.0,-77.0,127.0,127.0,127.0,111.0,84.0,-89.0
128.0,126.0,126.0,127.0,127.0,131.0,127.0,128.0,20.0,-106.0,-77.0,127.0,127.0,127.0,111.0,84.0,-89.0
127.0,126.0,126.0,127.0,127.0,131.0,127.0,128.0,20.0,-106.0,-77.0,127.0,127.0,127.0,111.0,84.0,-89.0
127.0,126.0,126.0,127.0,127.0,130.0,127.0,128.0,20.0,-106.0,-77.0,127.0,127.0,127.0,111.0,84.0,-89.0
127.0,125.0,126.0,127.0,127.0,129.0,126.0,128.0,20.0,-106.0,-77.0,127.0,127.0,127.0,111.0,84.0,-89.0
127.0,126.0,126.0,127.0,127.0,130.0,127.0,128.0,20.0,-106.0,-77.0,127.0,127.0,127.0,111.0,84.0,-89.0
127.0,125.0,127.0,127.0,126.0,127.0,126.0,127.0,20.0,-106.0,-77.0,127.0,127.0,127.0,111.0,84.0,-89.0
127.0,125.0,127.0,127.0,126.0,128.0,127.0,128.0,20.0,-106.0,-77.0,127.0,127.0,127.0,111.0,84.0,-89.0
127.0,125.0,127.0,127.0,126.0,129.0,126.0,128.0,20.0,-106.0,-77.0,127.0,127.0,127.0,111.0,84.0,-89.0
127.0,126.0,126.0,127.0,127.0,129.0,126.0,128.0,20.0,-106.0,-77.0,127.0,127.0,127.0,111.0,84.0,-89.0
127.0,126.0,126.0,127.0,127.0,129.0,127.0,128.0,20.0,-106.0,-77.0,127.0,127.0,127.0,111.0,84.0,-89.0
127.0,125.0,126.0,127.0,127.0,129.0,127.0,128.0,20.0,-106.0,-77.0,127.0,127.0,127.0,111.0,84.0,-89.0
127.0,125.0,126.0,127.0,126.0,129.0,126.0,128.0,20.0,-106.0,-77.0,127.0,127.0,127.0,111.0,84.0,-89.0
127.0,125.0,126.0,127.0,127.0,129.0,127.0,128.0,20.0,-106.0,-77.0,127.0,127.0,127.0,111.0,84.0,-89.0
127.0,126.0,126.0,127.0,127.0,131.0,126.0,128.0,20.0,-106.0,-77.0,127.0,127.0,127.0,111.0,84.0,-89.0
127.0,125.0,127.0,127.0,127.0,128.0,126.0,128.0,20.0,-106.0,-77.0,127.0,127.0,127.0,111.0,84.0,-89.0
127.0,125.0,127.0,127.0,127.0,128.0,126.0,128.0,20.0,-106.0,-77.0,127.0,127.0,127.0,111.0,84.0,-89.0
127.0,126.0,126.0,127.0,127.0,129.0,126.0,128.0,20.0,-106.0,-77.0,127.0,127.0,127.0,111.0,84.0,-89.0
127.0,126.0,126.0,127.0,127.0,130.0,126.0,128.0,20.0,-106.0,-77.0,127.0,127.0,127.0,111.0,84.0,-89.0
127.0,126.0,126.0,127.0,127.0,130.0,126.0,128.0,20.0,-106.0,-77.0,127.0,127.0,127.0,111.0,84.0,-89.0
127.0,126.0,126.0,127.0,127.0,129.0,126.0,128.0,20.0,-106.0,-77.0,127.0,127.0,127.0,111.0,84.0,-89.0
127.0,126.0,126.0,127.0,127.0,129.0,126.0,128.0,20.0,-106.0,-77.0,127.0,127.0,127.0,111.0,84.0,-89.0
127.0,126.0,126.0,127.0,127.0,129.0,126.0,128.0,20.0,-106.0,-77.0,127.0,127.0,127.0,111.0,84.0,-89.0
127.0,126.0,126.0,127.0,127.0,129.0,126.0,128.0,20.0,-106.0,-77.0,127.0,127.0,127.0,111.0,84.0,-89.0
127.0,125.0,127.0,127.0,127.0,128.0,126.0,128.0,20.0,-106.0,-77.0,127.0,127.0,127.0,111.0,84.0,-89.0
127.0,125.0,127.0,127.0,127.0,128.0,127.0,128.0,20.0,-106.0,-77.0,127.0,127.0,127.0,111.0,84.0,-89.0
127.0,125.0,127.0,127.0,127.0,129.0,126.0,128.0,20.0,-106.0,-77.0,127.0,127.0,127.0,111.0,84.0,-89.0
127.0,126.0,126.0,127.0,127.0,130.0,127.0,128.0,20.0,-106.0,-77.0,127.0,127.0,127.0,111.0,84.0,-89.0
127.0,126.0,126.0,127.0,127.0,130.0,127.0,128.0,20.0,-106.0,-77.0,127.0,127.0,127.0,111.0,84.0,-89.0
127.0,126.0,126.0,127.0,127.0,130.0,127.0,128.0,20.0,-106.0,-77.0,127.0,127.0,127.0,111.0,84.0,-89.0
127.0,126.0,126.0,127.0,127.0,130.0,127.0,128.0,20.0,-106.0,-77.0,127.0,127.0,127.0,111.0,84.0,-89.0
127.0,125.0,126.0,127.0,127.0,130.0,127.0,128.0,20.0,-106.0,-77.0,127.0,127.0,127.0,111.0,84.0,-89.0
127.0,125.0,126.0,127.0,127.0,130.0,126.0,128.0,20.0,-106.0,-77.0,127.0,127.0,127.0,111.0,84.0,-89.0
127.0,126.0,126.0,127.0,127.0,131.0,126.0,128.0,20.0,-106.0,-77.0,127.0,127.0,127.0,111.0,84.0,-89.0
127.0,125.0,127.0,127.0,127.0,129.0,127.0,128.0,20.0,-106.0,-77.0,127.0,127.0,127.0,111.0,84.0,-89.0
127.0,125.0,127.0,127.0,127.0,129.0,127.0,128.0,20.0,-106.0,-77.0,127.0,127.0,127.0,111.0,84.0,-89.0
127.0,126.0,126.0,127.0,127.0,130.0,126.0,128.0,20.0,-106.0,-77.0,127.0,127.0,127.0,111.0,84.0,-89.0
127.0,126.0,126.0,127.0,127.0,130.0,127.0,128.0,20.0,-106.0,-77.0,127.0,127.0,127.0,111.0,84.0,-89.0
127.0,125.0,126.0,127.0,127.0,130.0,126.0,128.0,20.0,-106.0,-77.0,127.0,127.0,127.0,111.0,84.0,-89.0
127.0,125.0,126.0,127.0,127.0,130.0,126.0,128.0,20.0,-106.0,-77.0,127.0,127.0,127.0,111.0,84.0,-89.0
127.0,125.0,126.0,127.0,127.0,130.0,127.0,128.0,20.0,-106.0,-77.0,127.0,127.0,127.0,111.0,84.0,-89.0
127.0,125.0,126.0,127.0,127.0,130.0,126.0,128.0,20.0,-106.0,-77.0,127.0,127.0,127.0,111.0,84.0,-89.0
127.0,126.0,125.0,127.0,127.0,131.0,126.0,128.0,20.0,-106.0,-77.0,127.0,127.0,127.0,111.0,84.0,-89.0
127.0,125.0,127.0,127.0,127.0,128.0,127.0,128.0,20.0,-106.0,-77.0,127.0,127.0,127.0,111.0,84.0,-89.0
127.0,125.0,127.0,127.0,127.0,129.0,126.0,127.0,20.0,-106.0,-77.0,127.0,127.0,127.0,111.0,84.0,-89.0
127.0,125.0,126.0,127.0,127.0,130.0,126.0,128.0,20.0,-106.0,-77.0,127.0,127.0,127.0,111.0,84.0,-89.0
127.0,125.0,126.0,127.0,127.0,130.0,126.0,128.0,20.0,-106.0,-77.0,127.0,127.0,127.0,111.0,84.0,-89.0
127.0,125.0,126.0,127.0,127.0,130.0,126.0,128.0,20.0,-106.0,-77.0,127.0,127.0,127.0,111.0,84.0,-89.0
127.0,125.0,126.0,127.0,126.0,130.0,126.0,128.0,20.0,-106.0,-77.0,127.0,127.0,127.0,111.0,84.0,-89.0
127.0,125.0,126.0,127.0,126.0,130.0,126.0,128.0,20.0,-106.0,-77.0,127.0,127.0,127.0,111.0,84.0,-89.0
127.0,125.0,126.0,127.0,126.0,130.0,126.0,128.0,20.0,-106.0,-77.0,127.0,127.0,127.0,111.0,84.0,-89.0
127.0,126.0,126.0,127.0,126.0,131.0,126.0,128.0,20.0,-106.0,-77.0,127.0,127.0,127.0,111.0,84.0,-89.0
127.0,125.0,127.0,127.0,127.0,128.0,126.0,128.0,20.0,-106.0,-77.0,127.0,127.0,127.0,111.0,84.0,-89.0
127.0,125.0,127.0,127.0,127.0,129.0,126.0,128.0,20.0,-106.0,-77.0,127.0,127.0,127.0,111.0,84.0,-89.0
127.0,126.0,126.0,127.0,127.0,130.0,126.0,128.0,20.0,-106.0,-77.0,127.0,127.0,127.0,111.0,84.0,-89.0
127.0,126.0,126.0,127.0,127.0,130.0,126.0,128.0,20.0,-106.0,-77.0,127.0,127.0,127.0,111.0,84.0,-89.0
127.0,126.0,126.0,127.0,127.0,130.0,126.0,128.0,20.0,-106.0,-77.0,127.0,127.0,127.0,111.0,84.0,-89.0
127.0,125.0,126.0,127.0,127.0,130.0,127.0,128.0,20.0,-106.0,-77.0,127.0,127.0,127.0,111.0,84.0,-89.0
127.0,126.0,126.0,127.0,127.0,130.0,127.0,128.0,20.0,-106.0,-77.0,127.0,127.0,127.0,111.0,84.0,-89.0
127.0,125.0,126.0,127.0,127.0,130.0,126.0,128.0,20.0,-106.0,-77.0,127.0,127.0,127.0,111.0,84.0,-89.0
127.0,126.0,126.0,127.0,127.0,131.0,126.0,128.0,20.0,-106.0,-77.0,127.0,127.0,127.0,111.0,84.0,-89.0
127.0,125.0,127.0,127.0,127.0,128.0,126.0,128.0,20.0,-106.0,-77.0,127.0,127.0,127.0,111.0,84.0,-89.0
127.0,125.0,127.0,127.0,127.0,128.0,126.0,128.0,20.0,-106.0,-77.0,127.0,127.0,127.0,111.0,84.0,-89.0
127.0,125.0,127.0,127.0,127.0,129.0,126.0,128.0,20.0,-106.0,-77.0,127.0,127.0,127.0,111.0,84.0,-89.0
127.0,125.0,126.0,127.0,127.0,130.0,126.0,127.0,20.0,-106.0,-77.0,127.0,127.0,127.0,111.0,84.0,-89.0
127.0,125.0,126.0,127.0,127.0,130.0,126.0,128.0,20.0,-106.0,-77.0,127.0,127.0,127.0,111.0,84.0,-89.0
127.0,125.0,126.0,127.0,127.0,130.0,126.0,128.0,20.0,-106.0,-77.0,127.0,127.0,127.0,111.0,84.0,-89.0
127.0,125.0,126.0,127.0,127.0,130.0,126.0,128.0,20.0,-106.0,-77.0,127.0,127.0,127.0,111.0,84.0,-89.0
127.0,125.0,126.0,127.0,127.0,130.0,126.0,127.0,20.0,-106.0,-77.0,127.0,127.0,127.0,111.0,84.0,-89.0
127.0,125.0,126.0,127.0,127.0,129.0,126.0,128.0,20.0,-106.0,-77.0,127.0,127.0,127.0,111.0,84.0,-89.0
127.0,126.0,126.0,127.0,127.0,131.0,126.0,128.0,20.0,-106.0,-77.0,127.0,127.0,127.0,111.0,84.0,-89.0
127.0,126.0,126.0,127.0,127.0,131.0,126.0,128.0,20.0,-106.0,-77.0,127.0,127.0,127.0,111.0,84.0,-89.0
127.0,126.0,126.0,127.0,127.0,131.0,126.0,128.0,20.0,-106.0,-77.0,127.0,127.0,127.0,111.0,84.0,-89.0
127.0,125.0,126.0,127.0,127.0,130.0,126.0,128.0,20.0,-106.0,-77.0,127.0,127.0,127.0,111.0,84.0,-89.0
127.0,126.0,126.0,127.0,127.0,130.0,127.0,128.0,20.0,-106.0,-77.0,127.0,127.0,127.0,111.0,84.0,-89.0
127.0,126.0,126.0,127.0,127.0,130.0,127.0,128.0,20.0,-106.0,-77.0,127.0,127.0,127.0,111.0,84.0,-89.0
127.0,126.0,126.0,127.0,127.0,130.0,127.0,128.0,20.0,-106.0,-77.0,127.0,127.0,127.0,111.0,84.0,-89.0
127.0,126.0,126.0,127.0,127.0,130.0,127.0,128.0,20.0,-106.0,-77.0,127.0,127.0,127.0,111.0,84.0,-89.0
127.0,126.0,126.0,127.0,127.0,130.0,127.0,128.0,20.0,-106.0,-77.0,127.0,127.0,127.0,111.0,84.0,-89.0
127.0,126.0,125.0,127.0,127.0,131.0,127.0,128.0,20.0,-106.0,-77.0,127.0,127.0,127.0,111.0,84.0,-89.0
127.0,126.0,125.0,127.0,127.0,131.0,127.0,128.0,20.0,-106.0,-77.0,127.0,127.0,127.0,111.0,84.0,-89.0
127.0,126.0,125.0,127.0,127.0,131.0,127.0,128.0,20.0,-106.0,-77.0,127.0,127.0,127.0,111.0,84.0,-89.0
127.0,126.0,126.0,127.0,127.0,131.0,127.0,128.0,20.0,-106.0,-77.0,127.0,127.0,127.0,111.0,84.0,-89.0
127.0,126.0,126.0,127.0,127.0,131.0,127.0,128.0,20.0,-106.0,-77.0,127.0,127.0,127.0,111.0,84.0,-89.0
127.0,126.0,125.0,127.0,127.0,131.0,127.0,128.0,20.0,-106.0,-77.0,127.0,127.0,127.0,111.0,84.0,-89.0
127.0,126.0,125.0,127.0,127.0,132.0,127.0,128.0,20.0,-106.0,-77.0,127.0,127.0,127.0,111.0,84.0,-89.0
127.0,126.0,125.0,128.0,127.0,131.0,127.0,128.0,20.0,-106.0,-77.0,127.0,127.0,127.0,111.0,84.0,-89.0
127.0,126.0,125.0,128.0,127.0,131.0,127.0,128.0,20.0,-106.0,-77.0,127.0,127.0,127.0,111.0,84.0,-89.0
127.0,125.0,126.0,127.0,127.0,130.0,127.0,128.0,20.0,-106.0,-77.0,127.0,127.0,127.0,111.0,84.0,-89.0
127.0,126.0,126.0,127.0,127.0,130.0,127.0,128.0,20.0,-106.0,-77.0,127.0,127.0,127.0,111.0,84.0,-89.0
127.0,126.0,126.0,127.0,127.0,131.0,127.0,128.0,20.0,-106.0,-77.0,127.0,127.0,127.0,111.0,84.0,-89.0
127.0,125.0,126.0,127.0,127.0,130.0,127.0,128.0,20.0,-106.0,-77.0,127.0,127.0,127.0,111.0,84.0,-89.0
127.0,125.0,126.0,127.0,127.0,130.0,127.0,128.0,20.0,-106.0,-77.0,127.0,127.0,127.0,111.0,84.0,-89.0
127.0,125.0,126.0,128.0,127.0,130.0,127.0,128.0,20.0,-106.0,-77.0,127.0,127.0,127.0,111.0,84.0,-89.0
127.0,126.0,125.0,127.0,127.0,131.0,127.0,128.0,20.0,-106.0,-77.0,127.0,127.0,127.0,111.0,84.0,-89.0
127.0,126.0,125.0,127.0,127.0,131.0,127.0,128.0,20.0,-106.0,-77.0,127.0,127.0,127.0,111.0,84.0,-89.0
127.0,126.0,125.0,127.0,127.0,131.0,127.0,128.0,20.0,-106.0,-77.0,127.0,127.0,127.0,111.0,84.0,-89.0
127.0,125.0,126.0,127.0,127.0,130.0,127.0,128.0,20.0,-106.0,-77.0,127.0,127.0,127.0,111.0,84.0,-89.0
127.0,126.0,126.0,127.0,127.0,130.0,127.0,128.0,20.0,-106.0,-77.0,127.0,127.0,127.0,111.0,84.0,-89.0
127.0,126.0,126.0,127.0,127.0,130.0,127.0,128.0,20.0,-106.0,-77.0,127.0,127.0,127.0,111.0,84.0,-89.0
127.0,125.0,125.0,127.0,127.0,130.0,127.0,128.0,20.0,-106.0,-77.0,127.0,127.0,127.0,111.0,84.0,-89.0
127.0,125.0,125.0,127.0,127.0,130.0,127.0,128.0,20.0,-106.0,-77.0,127.0,127.0,127.0,111.0,84.0,-89.0
127.0,125.0,125.0,127.0,127.0,130.0,127.0,128.0,20.0,-106.0,-77.0,127.0,127.0,127.0,111.0,84.0,-89.0
127.0,125.0,125.0,127.0,127.0,130.0,127.0,128.0,20.0,-106.0,-77.0,127.0,127.0,127.0,111.0,84.0,-89.0
127.0,126.0,125.0,127.0,127.0,131.0,127.0,128.0,20.0,-106.0,-77.0,127.0,127.0,127.0,111.0,84.0,-89.0
127.0,126.0,125.0,127.0,127.0,131.0,127.0,128.0,20.0,-106.0,-77.0,127.0,127.0,127.0,111.0,84.0,-89.0
127.0,125.0,126.0,127.0,126.0,130.0,127.0,128.0,20.0,-106.0,-77.0,127.0,127.0,127.0,111.0,84.0,-89.0
127.0,126.0,126.0,127.0,127.0,131.0,127.0,128.0,20.0,-106.0,-77.0,127.0,127.0,127.0,111.0,84.0,-89.0
127.0,125.0,126.0,127.0,127.0,131.0,127.0,128.0,20.0,-106.0,-77.0,127.0,127.0,127.0,111.0,84.0,-89.0
127.0,125.0,126.0,127.0,127.0,130.0,127.0,128.0,20.0,-106.0,-77.0,127.0,127.0,127.0,111.0,84.0,-89.0
127.0,125.0,126.0,127.0,127.0,130.0,127.0,128.0,20.0,-106.0,-77.0,127.0,127.0,127.0,111.0,84.0,-89.0
127.0,125.0,126.0,127.0,127.0,130.0,127.0,128.0,20.0,-106.0,-77.0,127.0,127.0,127.0,111.0,84.0,-89.0
127.0,125.0,126.0,127.0,127.0,130.0,127.0,128.0,20.0,-106.0,-77.0,127.0,127.0,127.0,111.0,84.0,-89.0
127.0,126.0,125.0,127.0,127.0,131.0,127.0,128.0,20.0,-106.0,-77.0,127.0,127.0,127.0,111.0,84.0,-89.0
127.0,125.0,125.0,127.0,127.0,131.0,127.0,128.0,20.0,-106.0,-77.0,127.0,127.0,127.0,111.0,84.0,-89.0
127.0,125.0,126.0,127.0,127.0,130.0,127.0,128.0,20.0,-106.0,-77.0,127.0,127.0,127.0,111.0,84.0,-89.0
127.0,125.0,126.0,127.0,127.0,131.0,127.0,128.0,20.0,-106.0,-77.0,127.0,127.0,127.0,111.0,84.0,-89.0
127.0,125.0,126.0,127.0,127.0,131.0,127.0,128.0,20.0,-106.0,-77.0,127.0,127.0,127.0,111.0,84.0,-89.0
127.0,125.0,126.0,127.0,127.0,131.0,127.0,128.0,20.0,-106.0,-77.0,127.0,127.0,127.0,111.0,84.0,-89.0
127.0,125.0,126.0,127.0,127.0,130.0,127.0,128.0,20.0,-106.0,-77.0,127.0,127.0,127.0,111.0,84.0,-89.0
127.0,125.0,126.0,127.0,127.0,130.0,127.0,128.0,20.0,-106.0,-77.0,127.0,127.0,127.0,111.0,84.0,-89.0
127.0,125.0,126.0,127.0,127.0,130.0,127.0,128.0,20.0,-106.0,-77.0,127.0,127.0,127.0,111.0,84.0,-89.0
127.0,126.0,125.0,127.0,127.0,132.0,127.0,128.0,20.0,-106.0,-77.0,127.0,127.0,127.0,111.0,84.0,-89.0
127.0,126.0,125.0,127.0,127.0,132.0,127.0,128.0,20.0,-106.0,-77.0,127.0,127.0,127.0,111.0,84.0,-89.0
127.0,125.0,128.0,128.0,127.0,129.0,127.0,128.0,20.0,-106.0,-77.0,127.0,127.0,127.0,111.0,84.0,-89.0
127.0,125.0,127.0,128.0,127.0,131.0,127.0,128.0,20.0,-106.0,-77.0,127.0,127.0,127.0,111.0,84.0,-89.0
127.0,125.0,127.0,128.0,127.0,131.0,127.0,128.0,20.0,-106.0,-77.0,127.0,127.0,127.0,111.0,84.0,-89.0
127.0,125.0,127.0,128.0,127.0,130.0,127.0,128.0,20.0,-106.0,-77.0,127.0,127.0,127.0,111.0,84.0,-89.0
127.0,125.0,127.0,128.0,127.0,130.0,127.0,128.0,20.0,-106.0,-77.0,127.0,127.0,127.0,111.0,84.0,-89.0
127.0,125.0,127.0,128.0,127.0,130.0,127.0,128.0,20.0,-106.0,-77.0,127.0,127.0,127.0,111.0,84.0,-89.0
127.0,125.0,127.0,128.0,127.0,130.0,127.0,128.0,20.0,-106.0,-77.0,127.0,127.0,127.0,111.0,84.0,-89.0
127.0,126.0,127.0,128.0,127.0,131.0,127.0,128.0,20.0,-106.0,-77.0,127.0,127.0,127.0,111.0,84.0,-89.0
127.0,126.0,127.0,128.0,127.0,131.0,127.0,128.0,20.0,-106.0,-77.0,127.0,127.0,127.0,111.0,84.0,-89.0
127.0,126.0,127.0,128.0,127.0,131.0,127.0,128.0,20.0,-106.0,-77.0,127.0,127.0,127.0,111.0,84.0,-89.0
127.0,125.0,127.0,127.0,127.0,130.0,127.0,128.0,20.0,-106.0,-77.0,127.0,127.0,127.0,111.0,84.0,-89.0
127.0,125.0,126.0,127.0,127.0,130.0,127.0,128.0,20.0,-106.0,-77.0,127.0,127.0,127.0,111.0,84.0,-89.0
127.0,125.0,126.0,127.0,127.0,130.0,127.0,128.0,20.0,-106.0,-77.0,127.0,127.0,127.0,111.0,84.0,-89.0
127.0,125.0,126.0,127.0,127.0,130.0,127.0,128.0,20.0,-106.0,-77.0,127.0,127.0,127.0,111.0,84.0,-89.0
127.0,125.0,126.0,127.0,127.0,130.0,127.0,128.0,20.0,-106.0,-77.0,127.0,127.0,127.0,111.0,84.0,-89.0
127.0,125.0,126.0,127.0,127.0,130.0,127.0,128.0,20.0,-106.0,-77.0,127.0,127.0,127.0,111.0,84.0,-89.0
127.0,125.0,126.0,127.0,127.0,131.0,126.0,128.0,20.0,-106.0,-77.0,127.0,127.0,127.0,111.0,84.0,-89.0
127.0,126.0,125.0,127.0,127.0,131.0,126.0,128.0,20.0,-106.0,-77.0,127.0,127.0,127.0,111.0,84.0,-89.0
127.0,125.0,125.0,127.0,127.0,131.0,127.0,128.0,20.0,-106.0,-77.0,127.0,127.0,127.0,111.0,84.0,-89.0
127.0,125.0,127.0,127.0,127.0,129.0,127.0,128.0,20.0,-106.0,-77.0,127.0,127.0,127.0,111.0,84.0,-89.0
127.0,125.0,126.0,127.0,127.0,131.0,127.0,128.0,20.0,-106.0,-77.0,127.0,127.0,127.0,111.0,84.0,-89.0
127.0,125.0,126.0,127.0,127.0,130.0,127.0,128.0,20.0,-106.0,-77.0,127.0,127.0,127.0,111.0,84.0,-89.0
127.0,125.0,126.0,127.0,126.0,130.0,127.0,128.0,20.0,-106.0,-77.0,127.0,127.0,127.0,111.0,84.0,-89.0
127.0,125.0,126.0,127.0,126.0,130.0,127.0,128.0,20.0,-106.0,-77.0,127.0,127.0,127.0,111.0,84.0,-89.0
127.0,125.0,126.0,127.0,126.0,130.0,127.0,128.0,20.0,-106.0,-77.0,127.0,127.0,127.0,111.0,84.0,-89.0
127.0,126.0,125.0,127.0,127.0,131.0,126.0,128.0,20.0,-106.0,-77.0,127.0,127.0,127.0,111.0,84.0,-89.0
127.0,126.0,125.0,127.0,127.0,131.0,126.0,128.0,20.0,-106.0,-77.0,127.0,127.0,127.0,111.0,84.0,-89.0
127.0,125.0,127.0,127.0,126.0,129.0,127.0,128.0,20.0,-106.0,-77.0,127.0,127.0,127.0,111.0,84.0,-89.0
127.0,125.0,127.0,127.0,126.0,129.0,126.0,128.0,20.0,-106.0,-77.0,127.0,127.0,127.0,111.0,84.0,-89.0
127.0,125.0,126.0,127.0,126.0,130.0,127.0,128.0,20.0,-106.0,-77.0,127.0,127.0,127.0,111.0,84.0,-89.0
127.0,125.0,125.0,127.0,127.0,131.0,127.0,128.0,20.0,-106.0,-77.0,127.0,127.0,127.0,111.0,84.0,-89.0
127.0,125.0,125.0,127.0,127.0,131.0,127.0,128.0,20.0,-106.0,-77.0,127.0,127.0,127.0,111.0,84.0,-89.0
127.0,125.0,125.0,127.0,127.0,130.0,127.0,128.0,20.0,-106.0,-77.0,127.0,127.0,127.0,111.0,84.0,-89.0
127.0,125.0,125.0,127.0,127.0,130.0,127.0,128.0,20.0,-106.0,-77.0,127.0,127.0,127.0,111.0,84.0,-89.0
127.0,125.0,124.0,127.0,127.0,131.0,126.0,128.0,20.0,-106.0,-77.0,127.0,127.0,127.0,111.0,84.0,-89.0
127.0,126.0,124.0,127.0,127.0,132.0,127.0,128.0,20.0,-106.0,-77.0,127.0,127.0,127.0,111.0,84.0,-89.0
127.0,125.0,125.0,127.0,127.0,129.0,127.0,128.0,20.0,-106.0,-77.0,127.0,127.0,127.0,111.0,84.0,-89.0
127.0,125.0,125.0,127.0,127.0,129.0,127.0,128.0,20.0,-106.0,-77.0,127.0,127.0,127.0,111.0,84.0,-89.0
127.0,125.0,124.0,127.0,127.0,131.0,127.0,128.0,20.0,-106.0,-77.0,127.0,127.0,127.0,111.0,84.0,-89.0
127.0,125.0,124.0,127.0,127.0,131.0,127.0,128.0,20.0,-106.0,-77.0,127.0,127.0,127.0,111.0,84.0,-89.0
127.0,124.0,127.0,126.0,126.0,129.0,127.0,128.0,20.0,-106.0,-77.0,127.0,127.0,127.0,111.0,84.0,-89.0
127.0,124.0,127.0,126.0,126.0,129.0,127.0,128.0,20.0,-106.0,-77.0,127.0,127.0,127.0,111.0,84.0,-89.0
127.0,124.0,127.0,126.0,126.0,129.0,127.0,128.0,20.0,-106.0,-77.0,127.0,127.0,127.0,111.0,84.0,-89.0
127.0,124.0,127.0,126.0,126.0,129.0,127.0,128.0,20.0,-106.0,-77.0,127.0,127.0,127.0,111.0,84.0,-89.0
127.0,124.0,127.0,126.0,126.0,129.0,126.0,128.0,20.0,-106.0,-77.0,127.0,127.0,127.0,111.0,84.0,-89.0
127.0,124.0,126.0,127.0,127.0,129.0,127.0,128.0,20.0,-106.0,-77.0,127.0,127.0,127.0,111.0,84.0,-89.0
127.0,124.0,126.0,127.0,126.0,129.0,127.0,128.0,20.0,-106.0,-77.0,127.0,127.0,127.0,111.0,84.0,-89.0
127.0,124.0,126.0,126.0,126.0,129.0,127.0,128.0,20.0,-106.0,-77.0,127.0,127.0,127.0,111.0,84.0,-89.0
127.0,124.0,127.0,126.0,126.0,129.0,127.0,128.0,20.0,-106.0,-77.0,127.0,127.0,127.0,111.0,84.0,-89.0
127.0,124.0,127.0,126.0,126.0,129.0,127.0,128.0,20.0,-106.0,-77.0,127.0,127.0,127.0,111.0,84.0,-89.0
127.0,125.0,127.0,127.0,127.0,131.0,126.0,128.0,20.0,-106.0,-77.0,127.0,127.0,127.0,111.0,84.0,-89.0
127.0,125.0,127.0,127.0,127.0,131.0,126.0,128.0,20.0,-106.0,-77.0,127.0,127.0,127.0,111.0,84.0,-89.0
127.0,125.0,127.0,127.0,127.0,131.0,126.0,128.0,20.0,-106.0,-77.0,127.0,127.0,127.0,111.0,84.0,-89.0
127.0,125.0,127.0,127.0,127.0,131.0,126.0,128.0,20.0,-106.0,-77.0,127.0,127.0,127.0,111.0,84.0,-89.0
127.0,125.0,128.0,127.0,127.0,130.0,126.0,128.0,20.0,-106.0,-77.0,127.0,127.0,127.0,111.0,84.0,-89.0
127.0,125.0,128.0,127.0,127.0,130.0,126.0,128.0,20.0,-106.0,-77.0,127.0,127.0,127.0,111.0,84.0,-89.0
127.0,125.0,128.0,127.0,127.0,130.0,126.0,128.0,20.0,-106.0,-77.0,127.0,127.0,127.0,111.0,84.0,-89.0
127.0,125.0,128.0,127.0,127.0,130.0,126.0,128.0,20.0,-106.0,-77.0,127.0,127.0,127.0,111.0,84.0,-89.0
127.0,125.0,127.0,127.0,127.0,130.0,126.0,128.0,20.0,-106.0,-77.0,127.0,127.0,127.0,111.0,84.0,-89.0
127.0,125.0,127.0,127.0,127.0,130.0,126.0,128.0,20.0,-106.0,-77.0,127.0,127.0,127.0,111.0,84.0,-89.0
126.0,124.0,128.0,128.0,127.0,131.0,127.0,128.0,20.0,-106.0,-77.0,127.0,127.0,127.0,111.0,84.0,-89.0
126.0,123.0,128.0,128.0,127.0,131.0,127.0,128.0,20.0,-106.0,-77.0,127.0,127.0,127.0,111.0,84.0,-89.0
126.0,123.0,128.0,128.0,127.0,131.0,127.0,128.0,20.0,-106.0,-77.0,127.0,127.0,127.0,111.0,84.0,-89.0
127.0,123.0,128.0,127.0,127.0,131.0,127.0,128.0,20.0,-106.0,-77.0,127.0,127.0,127.0,111.0,84.0,-89.0
126.0,124.0,128.0,128.0,127.0,130.0,127.0,128.0,20.0,-106.0,-77.0,127.0,127.0,127.0,111.0,84.0,-89.0
126.0,124.0,128.0,128.0,127.0,130.0,127.0,128.0,20.0,-106.0,-77.0,127.0,127.0,127.0,111.0,84.0,-89.0
126.0,123.0,128.0,128.0,127.0,130.0,127.0,128.0,20.0,-106.0,-77.0,127.0,127.0,127.0,111.0,84.0,-89.0
126.0,123.0,128.0,128.0,127.0,130.0,127.0,128.0,20.0,-106.0,-77.0,127.0,127.0,127.0,111.0,84.0,-89.0
126.0,123.0,128.0,128.0,127.0,130.0,127.0,128.0,20.0,-106.0,-77.0,127.0,127.0,127.0,111.0,84.0,-89.0
126.0,124.0,128.0,128.0,127.0,131.0,127.0,128.0,20.0,-106.0,-77.0,127.0,127.0,127.0,111.0,84.0,-89.0
127.0,125.0,130.0,128.0,126.0,131.0,126.0,128.0,20.0,-107.0,-77.0,127.0,127.0,127.0,111.0,84.0,-89.0
127.0,125.0,130.0,128.0,126.0,131.0,126.0,128.0,20.0,-107.0,-77.0,127.0,127.0,127.0,111.0,84.0,-89.0
127.0,124.0,130.0,127.0,126.0,131.0,127.0,128.0,20.0,-107.0,-77.0,127.0,127.0,127.0,111.0,84.0,-89.0
127.0,124.0,131.0,127.0,126.0,131.0,127.0,128.0,20.0,-107.0,-77.0,127.0,127.0,127.0,111.0,84.0,-89.0
127.0,124.0,131.0,127.0,126.0,131.0,127.0,128.0,20.0,-107.0,-77.0,127.0,127.0,127.0,111.0,84.0,-89.0
127.0,124.0,131.0,126.0,126.0,130.0,127.0,128.0,20.0,-107.0,-77.0,127.0,127.0,127.0,111.0,84.0,-89.0
127.0,124.0,131.0,126.0,126.0,130.0,127.0,128.0,20.0,-107.0,-77.0,127.0,127.0,127.0,111.0,84.0,-89.0
127.0,125.0,130.0,126.0,126.0,130.0,127.0,128.0,20.0,-107.0,-77.0,127.0,127.0,127.0,111.0,84.0,-89.0
127.0,125.0,130.0,127.0,126.0,132.0,126.0,128.0,20.0,-107.0,-77.0,127.0,127.0,127.0,111.0,84.0,-89.0
127.0,125.0,130.0,127.0,126.0,132.0,126.0,128.0,20.0,-107.0,-77.0,127.0,127.0,127.0,111.0,84.0,-89.0
123.0,121.0,141.0,128.0,127.0,131.0,127.0,127.0,20.0,-107.0,-77.0,127.0,127.0,127.0,111.0,84.0,-89.0
123.0,123.0,137.0,131.0,127.0,131.0,126.0,127.0,20.0,-107.0,-77.0,127.0,127.0,127.0,111.0,84.0,-89.0
123.0,122.0,138.0,131.0,127.0,131.0,126.0,127.0,20.0,-107.0,-77.0,127.0,127.0,127.0,111.0,84.0,-89.0
123.0,122.0,138.0,130.0,127.0,131.0,127.0,127.0,20.0,-107.0,-77.0,127.0,127.0,127.0,111.0,84.0,-89.0
123.0,122.0,138.0,130.0,127.0,130.0,127.0,127.0,20.0,-107.0,-77.0,127.0,127.0,127.0,111.0,84.0,-89.0
123.0,122.0,139.0,129.0,127.0,130.0,127.0,127.0,20.0,-107.0,-77.0,127.0,127.0,127.0,111.0,84.0,-89.0
123.0,121.0,139.0,129.0,127.0,130.0,127.0,127.0,20.0,-107.0,-77.0,127.0,127.0,127.0,111.0,84.0,-89.0
123.0,121.0,139.0,128.0,127.0,131.0,127.0,127.0,20.0,-107.0,-77.0,127.0,127.0,127.0,111.0,84.0,-89.0
123.0,121.0,139.0,128.0,127.0,132.0,127.0,127.0,20.0,-107.0,-77.0,127.0,127.0,127.0,111.0,84.0,-89.0
123.0,121.0,140.0,128.0,127.0,131.0,127.0,127.0,20.0,-107.0,-77.0,127.0,127.0,127.0,111.0,84.0,-89.0
124.0,124.0,158.0,132.0,128.0,129.0,127.0,127.0,20.0,-107.0,-77.0,127.0,127.0,127.0,111.0,84.0,-89.0
124.0,124.0,159.0,131.0,128.0,130.0,127.0,127.0,20.0,-107.0,-77.0,127.0,127.0,127.0,111.0,84.0,-89.0
123.0,124.0,161.0,130.0,128.0,129.0,126.0,127.0,20.0,-107.0,-77.0,127.0,127.0,127.0,111.0,84.0,-89.0
123.0,124.0,162.0,130.0,128.0,129.0,127.0,127.0,20.0,-107.0,-77.0,127.0,127.0,127.0,111.0,84.0,-89.0
123.0,124.0,164.0,129.0,128.0,129.0,126.0,127.0,20.0,-107.0,-77.0,127.0,127.0,127.0,111.0,84.0,-89.0
122.0,123.0,165.0,128.0,127.0,129.0,126.0,127.0,20.0,-107.0,-77.0,127.0,127.0,127.0,111.0,84.0,-89.0
122.0,124.0,166.0,128.0,127.0,130.0,127.0,127.0,20.0,-107.0,-77.0,127.0,127.0,127.0,111.0,84.0,-89.0
122.0,124.0,168.0,127.0,127.0,130.0,127.0,127.0,20.0,-107.0,-77.0,127.0,127.0,127.0,111.0,84.0,-89.0
122.0,124.0,169.0,127.0,127.0,130.0,127.0,127.0,20.0,-107.0,-77.0,127.0,127.0,127.0,111.0,84.0,-89.0
123.0,124.0,171.0,127.0,127.0,130.0,127.0,127.0,20.0,-107.0,-77.0,127.0,127.0,127.0,111.0,84.0,-89.0
127.0,127.0,254.0,131.0,127.0,127.0,128.0,128.0,20.0,-107.0,-77.0,127.0,127.0,127.0,111.0,84.0,-89.0
127.0,127.0,254.0,130.0,127.0,126.0,128.0,128.0,20.0,-107.0,-77.0,127.0,127.0,127.0,111.0,84.0,-89.0
127.0,127.0,254.0,129.0,127.0,126.0,129.0,128.0,20.0,-107.0,-77.0,127.0,127.0,127.0,111.0,84.0,-89.0
128.0,127.0,254.0,129.0,127.0,126.0,129.0,128.0,20.0,-107.0,-77.0,127.0,127.0,127.0,111.0,84.0,-89.0
128.0,127.0,254.0,129.0,127.0,126.0,129.0,128.0,20.0,-107.0,-77.0,127.0,127.0,127.0,111.0,84.0,-89.0
128.0,128.0,254.0,129.0,127.0,127.0,129.0,128.0,20.0,-107.0,-77.0,127.0,127.0,127.0,111.0,84.0,-89.0
128.0,128.0,254.0,129.0,128.0,127.0,129.0,128.0,20.0,-107.0,-77.0,127.0,127.0,127.0,111.0,84.0,-89.0
129.0,129.0,254.0,129.0,128.0,127.0,129.0,128.0,20.0,-107.0,-77.0,127.0,127.0,127.0,111.0,84.0,-89.0
129.0,129.0,254.0,129.0,128.0,127.0,129.0,128.0,20.0,-107.0,-77.0,127.0,127.0,127.0,111.0,84.0,-89.0
126.0,127.0,254.0,131.0,127.0,127.0,128.0,128.0,20.0,-107.0,-77.0,127.0,127.0,127.0,111.0,84.0,-89.0
128.0,123.0,254.0,125.0,126.0,141.0,127.0,127.0,20.0,-107.0,-77.0,127.0,127.0,127.0,111.0,84.0,-89.0
128.0,123.0,254.0,124.0,126.0,141.0,127.0,127.0,20.0,-107.0,-77.0,127.0,127.0,127.0,111.0,84.0,-89.0
128.0,123.0,254.0,123.0,126.0,141.0,127.0,127.0,20.0,-107.0,-77.0,127.0,127.0,127.0,111.0,84.0,-89.0
129.0,123.0,254.0,123.0,126.0,141.0,127.0,127.0,20.0,-107.0,-77.0,127.0,127.0,127.0,111.0,84.0,-89.0
128.0,123.0,254.0,122.0,126.0,142.0,127.0,127.0,20.0,-107.0,-77.0,127.0,127.0,127.0,111.0,84.0,-89.0
128.0,123.0,254.0,121.0,125.0,143.0,127.0,128.0,20.0,-107.0,-77.0,127.0,127.0,127.0,111.0,84.0,-89.0
128.0,123.0,254.0,121.0,125.0,143.0,127.0,128.0,20.0,-107.0,-77.0,127.0,127.0,127.0,111.0,84.0,-89.0
128.0,123.0,254.0,121.0,125.0,143.0,127.0,128.0,20.0,-107.0,-77.0,127.0,127.0,127.0,111.0,84.0,-89.0
128.0,123.0,254.0,126.0,126.0,140.0,127.0,127.0,20.0,-107.0,-77.0,127.0,127.0,127.0,111.0,84.0,-89.0
128.0,123.0,254.0,125.0,126.0,141.0,127.0,127.0,20.0,-107.0,-77.0,127.0,127.0,127.0,111.0,84.0,-89.0
126.0,124.0,91.0,127.0,127.0,142.0,127.0,127.0,20.0,-108.0,-77.0,-128.0,127.0,127.0,111.0,84.0,-89.0
126.0,126.0,87.0,127.0,127.0,142.0,127.0,127.0,20.0,-108.0,-77.0,-128.0,127.0,127.0,111.0,84.0,-89.0
126.0,126.0,84.0,127.0,127.0,142.0,127.0,127.0,20.0,-108.0,-77.0,-128.0,127.0,127.0,111.0,84.0,-89.0
126.0,127.0,81.0,127.0,127.0,142.0,127.0,127.0,20.0,-108.0,-77.0,-128.0,127.0,127.0,111.0,84.0,-89.0
126.0,127.0,79.0,127.0,127.0,141.0,127.0,127.0,20.0,-108.0,-77.0,-128.0,127.0,127.0,111.0,84.0,-89.0
126.0,127.0,76.0,127.0,127.0,141.0,127.0,127.0,20.0,-108.0,-77.0,-128.0,127.0,127.0,111.0,84.0,-89.0
126.0,126.0,73.0,128.0,127.0,141.0,127.0,127.0,20.0,-108.0,-77.0,-128.0,127.0,127.0,111.0,84.0,-89.0
126.0,120.0,100.0,128.0,127.0,143.0,126.0,127.0,20.0,-108.0,-77.0,-128.0,127.0,127.0,111.0,84.0,-89.0
126.0,121.0,97.0,128.0,127.0,142.0,126.0,127.0,20.0,-108.0,-77.0,-128.0,127.0,127.0,111.0,84.0,-89.0
126.0,123.0,94.0,127.0,127.0,142.0,127.0,127.0,20.0,-108.0,-77.0,-128.0,127.0,127.0,111.0,84.0,-89.0
130.0,136.0,51.0,131.0,130.0,137.0,128.0,127.0,20.0,-108.0,-77.0,-128.0,127.0,127.0,111.0,84.0,-89.0
130.0,136.0,52.0,131.0,129.0,137.0,129.0,128.0,20.0,-108.0,-77.0,-128.0,127.0,127.0,111.0,84.0,-89.0
130.0,136.0,52.0,131.0,129.0,137.0,129.0,128.0,20.0,-108.0,-77.0,-128.0,127.0,127.0,111.0,84.0,-89.0
130.0,136.0,53.0,131.0,129.0,137.0,129.0,129.0,20.0,-108.0,-77.0,-128.0,127.0,127.0,111.0,84.0,-89.0
131.0,136.0,54.0,131.0,129.0,136.0,130.0,129.0,20.0,-108.0,-77.0,-128.0,127.0,127.0,111.0,84.0,-89.0
131.0,136.0,55.0,130.0,129.0,136.0,130.0,129.0,20.0,-108.0,-77.0,-128.0,127.0,127.0,111.0,84.0,-89.0
131.0,135.0,47.0,131.0,129.0,137.0,127.0,127.0,20.0,-108.0,-77.0,-128.0,127.0,127.0,111.0,84.0,-89.0
131.0,135.0,48.0,131.0,129.0,136.0,127.0,127.0,20.0,-108.0,-77.0,-128.0,127.0,127.0,111.0,84.0,-89.0
131.0,136.0,49.0,131.0,129.0,136.0,127.0,127.0,20.0,-108.0,-77.0,-128.0,127.0,127.0,111.0,84.0,-89.0
130.0,136.0,50.0,131.0,129.0,136.0,127.0,127.0,20.0,-108.0,-77.0,-128.0,127.0,127.0,111.0,84.0,-89.0
134.0,144.0,87.0,130.0,128.0,133.0,131.0,133.0,21.0,-108.0,-77.0,-128.0,127.0,127.0,111.0,84.0,-89.0
134.0,143.0,88.0,130.0,127.0,133.0,131.0,133.0,21.0,-108.0,-77.0,-128.0,127.0,127.0,111.0,84.0,-89.0
133.0,143.0,88.0,130.0,127.0,133.0,131.0,133.0,21.0,-108.0,-77.0,-128.0,127.0,127.0,111.0,84.0,-89.0
133.0,142.0,89.0,132.0,127.0,133.0,131.0,133.0,21.0,-108.0,-77.0,-128.0,127.0,127.0,111.0,84.0,-89.0
133.0,141.0,90.0,133.0,127.0,133.0,130.0,133.0,21.0,-108.0,-77.0,-128.0,127.0,127.0,111.0,84.0,-89.0
136.0,146.0,84.0,130.0,128.0,132.0,131.0,132.0,21.0,-108.0,-77.0,-128.0,127.0,127.0,111.0,84.0,-89.0
135.0,146.0,85.0,130.0,128.0,132.0,131.0,132.0,21.0,-108.0,-77.0,-128.0,127.0,127.0,111.0,84.0,-89.0
135.0,146.0,85.0,130.0,128.0,132.0,132.0,132.0,21.0,-108.0,-77.0,-128.0,127.0,127.0,111.0,84.0,-89.0
135.0,145.0,86.0,130.0,128.0,132.0,131.0,133.0,21.0,-108.0,-77.0,-128.0,127.0,127.0,111.0,84.0,-89.0
134.0,145.0,86.0,130.0,128.0,133.0,131.0,133.0,21.0,-108.0,-77.0,-128.0,127.0,127.0,111.0,84.0,-89.0
128.0,130.0,48.0,134.0,128.0,135.0,126.0,122.0,21.0,-108.0,-78.0,-128.0,127.0,127.0,111.0,84.0,-89.0
129.0,130.0,47.0,135.0,128.0,134.0,126.0,123.0,21.0,-108.0,-78.0,-128.0,127.0,127.0,111.0,84.0,-89.0
130.0,130.0,47.0,135.0,129.0,134.0,127.0,124.0,21.0,-108.0,-78.0,-128.0,127.0,127.0,111.0,84.0,-89.0
130.0,131.0,46.0,135.0,129.0,134.0,127.0,125.0,21.0,-108.0,-78.0,-128.0,127.0,127.0,111.0,84.0,-89.0
122.0,124.0,55.0,137.0,128.0,134.0,126.0,122.0,21.0,-108.0,-78.0,-128.0,127.0,127.0,111.0,84.0,-89.0
122.0,125.0,54.0,137.0,128.0,134.0,126.0,121.0,21.0,-108.0,-78.0,-128.0,127.0,127.0,111.0,84.0,-89.0
122.0,125.0,53.0,136.0,128.0,134.0,126.0,121.0,21.0,-108.0,-78.0,-128.0,127.0,127.0,111.0,84.0,-89.0
123.0,126.0,51.0,135.0,128.0,133.0,126.0,120.0,21.0,-108.0,-78.0,-128.0,127.0,127.0,111.0,84.0,-89.0
125.0,127.0,50.0,135.0,128.0,135.0,126.0,120.0,21.0,-108.0,-78.0,-128.0,127.0,127.0,111.0,84.0,-89.0
127.0,129.0,49.0,135.0,128.0,135.0,126.0,121.0,21.0,-108.0,-78.0,-128.0,127.0,127.0,111.0,84.0,-89.0
126.0,124.0,33.0,132.0,126.0,134.0,124.0,124.0,21.0,-108.0,-78.0,-128.0,127.0,127.0,111.0,84.0,-89.0
126.0,123.0,33.0,132.0,126.0,134.0,124.0,122.0,21.0,-108.0,-78.0,-128.0,127.0,127.0,111.0,84.0,-89.0
125.0,123.0,33.0,132.0,126.0,134.0,124.0,120.0,21.0,-108.0,-78.0,-128.0,127.0,127.0,111.0,84.0,-89.0
129.0,128.0,33.0,134.0,127.0,134.0,125.0,123.0,21.0,-108.0,-78.0,-128.0,127.0,127.0,111.0,84.0,-89.0
129.0,128.0,33.0,134.0,127.0,134.0,125.0,123.0,21.0,-108.0,-78.0,-128.0,127.0,127.0,111.0,84.0,-89.0
128.0,127.0,33.0,133.0,127.0,134.0,125.0,124.0,21.0,-108.0,-78.0,-128.0,127.0,127.0,111.0,84.0,-89.0
128.0,127.0,33.0,133.0,127.0,134.0,125.0,124.0,21.0,-108.0,-78.0,-128.0,127.0,127.0,111.0,84.0,-89.0
127.0,126.0,33.0,132.0,127.0,135.0,125.0,125.0,21.0,-108.0,-78.0,-128.0,127.0,127.0,111.0,84.0,-89.0
127.0,126.0,33.0,132.0,126.0,135.0,125.0,125.0,21.0,-108.0,-78.0,-128.0,127.0,127.0,111.0,84.0,-89.0
126.0,125.0,33.0,132.0,126.0,135.0,124.0,125.0,21.0,-108.0,-78.0,-128.0,127.0,127.0,111.0,84.0,-89.0
130.0,136.0,64.0,135.0,129.0,133.0,127.0,135.0,20.0,-107.0,-79.0,-127.0,127.0,127.0,111.0,84.0,-89.0
130.0,135.0,65.0,134.0,129.0,133.0,126.0,135.0,20.0,-107.0,-79.0,-127.0,127.0,127.0,111.0,84.0,-89.0
126.0,133.0,60.0,134.0,128.0,133.0,128.0,123.0,20.0,-107.0,-79.0,-127.0,127.0,127.0,111.0,84.0,-89.0
126.0,132.0,61.0,135.0,128.0,132.0,128.0,124.0,20.0,-107.0,-79.0,-127.0,127.0,127.0,111.0,84.0,-89.0
127.0,132.0,61.0,135.0,128.0,132.0,128.0,125.0,20.0,-107.0,-79.0,-127.0,127.0,127.0,111.0,84.0,-89.0
127.0,132.0,62.0,135.0,128.0,132.0,128.0,127.0,20.0,-107.0,-79.0,-127.0,127.0,127.0,111.0,84.0,-89.0
128.0,133.0,62.0,135.0,128.0,133.0,128.0,129.0,20.0,-107.0,-79.0,-127.0,127.0,127.0,111.0,84.0,-89.0
128.0,134.0,63.0,135.0,129.0,133.0,127.0,132.0,20.0,-107.0,-79.0,-127.0,127.0,127.0,111.0,84.0,-89.0
129.0,135.0,63.0,135.0,129.0,133.0,127.0,134.0,20.0,-107.0,-79.0,-127.0,127.0,127.0,111.0,84.0,-89.0
129.0,136.0,64.0,135.0,129.0,133.0,127.0,135.0,20.0,-107.0,-79.0,-127.0,127.0,127.0,111.0,84.0,-89.0
128.0,127.0,96.0,132.0,127.0,128.0,129.0,135.0,20.0,-106.0,-79.0,-127.0,127.0,127.0,111.0,84.0,-89.0
126.0,127.0,89.0,131.0,127.0,128.0,129.0,130.0,20.0,-106.0,-79.0,-127.0,127.0,127.0,111.0,84.0,-89.0
126.0,128.0,90.0,131.0,127.0,127.0,129.0,129.0,20.0,-106.0,-79.0,-127.0,127.0,127.0,111.0,84.0,-89.0
126.0,128.0,91.0,132.0,127.0,127.0,129.0,128.0,20.0,-106.0,-79.0,-127.0,127.0,127.0,111.0,84.0,-89.0
126.0,128.0,92.0,132.0,127.0,127.0,129.0,127.0,20.0,-106.0,-79.0,-127.0,127.0,127.0,111.0,84.0,-89.0
127.0,128.0,92.0,133.0,127.0,128.0,129.0,127.0,20.0,-106.0,-79.0,-127.0,127.0,127.0,111.0,84.0,-89.0
127.0,128.0,93.0,133.0,128.0,128.0,129.0,128.0,20.0,-106.0,-79.0,-127.0,127.0,127.0,111.0,84.0,-89.0
127.0,128.0,94.0,133.0,127.0,128.0,129.0,129.0,20.0,-106.0,-79.0,-127.0,127.0,127.0,111.0,84.0,-89.0
127.0,128.0,95.0,133.0,127.0,128.0,130.0,131.0,20.0,-106.0,-79.0,-127.0,127.0,127.0,111.0,84.0,-89.0
127.0,127.0,95.0,132.0,127.0,128.0,129.0,133.0,20.0,-106.0,-79.0,-127.0,127.0,127.0,111.0,84.0,-89.0
126.0,124.0,126.0,137.0,128.0,122.0,124.0,140.0,19.0,-103.0,-79.0,-128.0,127.0,127.0,111.0,84.0,-89.0
126.0,124.0,126.0,137.0,129.0,122.0,124.0,139.0,19.0,-103.0,-79.0,-128.0,127.0,127.0,111.0,84.0,-89.0
126.0,124.0,127.0,138.0,129.0,121.0,125.0,139.0,19.0,-103.0,-79.0,-128.0,127.0,127.0,111.0,84.0,-89.0
126.0,124.0,127.0,138.0,129.0,121.0,125.0,138.0,19.0,-103.0,-79.0,-128.0,127.0,127.0,111.0,84.0,-89.0
126.0,125.0,128.0,138.0,129.0,122.0,125.0,137.0,19.0,-103.0,-79.0,-128.0,127.0,127.0,111.0,84.0,-89.0
126.0,125.0,128.0,138.0,129.0,123.0,126.0,137.0,19.0,-103.0,-79.0,-128.0,127.0,127.0,111.0,84.0,-89.0
126.0,125.0,129.0,138.0,129.0,122.0,126.0,136.0,19.0,-103.0,-79.0,-128.0,127.0,127.0,111.0,84.0,-89.0
126.0,125.0,129.0,138.0,129.0,122.0,126.0,135.0,19.0,-103.0,-79.0,-128.0,127.0,127.0,111.0,84.0,-89.0
126.0,125.0,129.0,137.0,129.0,122.0,127.0,134.0,19.0,-103.0,-79.0,-128.0,127.0,127.0,111.0,84.0,-89.0
125.0,125.0,130.0,137.0,129.0,122.0,127.0,133.0,19.0,-103.0,-79.0,-128.0,127.0,127.0,111.0,84.0,-89.0
125.0,125.0,122.0,125.0,128.0,120.0,127.0,132.0,19.0,-102.0,-79.0,-128.0,127.0,127.0,111.0,84.0,-89.0
125.0,125.0,122.0,127.0,128.0,120.0,127.0,132.0,19.0,-102.0,-79.0,-128.0,127.0,127.0,111.0,84.0,-89.0
125.0,125.0,122.0,128.0,129.0,120.0,127.0,131.0,19.0,-102.0,-79.0,-128.0,127.0,127.0,111.0,84.0,-89.0
125.0,125.0,122.0,129.0,129.0,120.0,126.0,131.0,19.0,-102.0,-79.0,-128.0,127.0,127.0,111.0,84.0,-89.0
125.0,125.0,123.0,130.0,130.0,120.0,126.0,130.0,19.0,-102.0,-79.0,-128.0,127.0,127.0,111.0,84.0,-89.0
125.0,126.0,123.0,131.0,130.0,120.0,126.0,130.0,19.0,-102.0,-79.0,-128.0,127.0,127.0,111.0,84.0,-89.0
125.0,126.0,123.0,133.0,131.0,120.0,126.0,129.0,19.0,-102.0,-79.0,-128.0,127.0,127.0,111.0,84.0,-89.0
126.0,126.0,124.0,134.0,131.0,120.0,126.0,130.0,19.0,-102.0,-79.0,-128.0,127.0,127.0,111.0,84.0,-89.0
126.0,126.0,124.0,135.0,131.0,120.0,126.0,130.0,19.0,-102.0,-79.0,-128.0,127.0,127.0,111.0,84.0,-89.0
125.0,125.0,122.0,124.0,128.0,121.0,128.0,133.0,19.0,-102.0,-79.0,-128.0,127.0,127.0,111.0,84.0,-89.0
122.0,123.0,111.0,132.0,128.0,122.0,125.0,119.0,19.0,-102.0,-79.0,-128.0,127.0,127.0,111.0,84.0,-89.0
122.0,123.0,111.0,133.0,128.0,123.0,125.0,119.0,19.0,-102.0,-79.0,-128.0,127.0,127.0,111.0,84.0,-89.0
122.0,123.0,110.0,133.0,128.0,123.0,125.0,119.0,19.0,-102.0,-79.0,-128.0,127.0,127.0,111.0,84.0,-89.0
122.0,124.0,110.0,134.0,128.0,124.0,125.0,120.0,19.0,-102.0,-79.0,-128.0,127.0,127.0,111.0,84.0,-89.0
122.0,123.0,110.0,134.0,128.0,124.0,125.0,121.0,19.0,-102.0,-79.0,-128.0,127.0,127.0,111.0,84.0,-89.0
122.0,123.0,110.0,134.0,128.0,124.0,126.0,121.0,19.0,-102.0,-79.0,-128.0,127.0,127.0,111.0,84.0,-89.0
123.0,123.0,110.0,134.0,128.0,124.0,126.0,122.0,19.0,-102.0,-79.0,-128.0,127.0,127.0,111.0,84.0,-89.0
123.0,123.0,109.0,134.0,128.0,124.0,126.0,123.0,19.0,-102.0,-79.0,-128.0,127.0,127.0,111.0,84.0,-89.0
122.0,124.0,112.0,131.0,129.0,123.0,125.0,121.0,19.0,-102.0,-79.0,-128.0,127.0,127.0,111.0,84.0,-89.0
122.0,124.0,111.0,131.0,128.0,123.0,125.0,120.0,19.0,-102.0,-79.0,-128.0,127.0,127.0,111.0,84.0,-89.0
125.0,124.0,113.0,131.0,127.0,127.0,129.0,131.0,19.0,-103.0,-80.0,-128.0,127.0,127.0,111.0,84.0,-89.0
125.0,124.0,114.0,131.0,127.0,127.0,129.0,130.0,19.0,-103.0,-80.0,-128.0,127.0,127.0,111.0,84.0,-89.0
125.0,125.0,114.0,131.0,127.0,128.0,129.0,130.0,19.0,-103.0,-80.0,-128.0,127.0,127.0,111.0,84.0,-89.0
125.0,125.0,115.0,131.0,127.0,128.0,129.0,129.0,19.0,-103.0,-80.0,-128.0,127.0,127.0,111.0,84.0,-89.0
125.0,125.0,116.0,131.0,127.0,128.0,128.0,129.0,19.0,-103.0,-80.0,-128.0,127.0,127.0,111.0,84.0,-89.0
125.0,124.0,116.0,131.0,128.0,128.0,128.0,129.0,19.0,-103.0,-80.0,-128.0,127.0,127.0,111.0,84.0,-89.0
125.0,124.0,117.0,131.0,128.0,128.0,128.0,129.0,19.0,-103.0,-80.0,-128.0,127.0,127.0,111.0,84.0,-89.0
125.0,124.0,111.0,130.0,127.0,127.0,129.0,132.0,19.0,-103.0,-80.0,-128.0,127.0,127.0,111.0,84.0,-89.0
125.0,124.0,111.0,130.0,127.0,127.0,129.0,131.0,19.0,-103.0,-80.0,-128.0,127.0,127.0,111.0,84.0,-89.0
125.0,124.0,112.0,131.0,127.0,127.0,129.0,131.0,19.0,-103.0,-80.0,-128.0,127.0,127.0,111.0,84.0,-89.0
125.0,122.0,132.0,131.0,126.0,127.0,125.0,128.0,19.0,-102.0,-79.0,-128.0,127.0,127.0,111.0,84.0,-89.0
126.0,123.0,131.0,131.0,126.0,128.0,125.0,128.0,19.0,-102.0,-79.0,-128.0,127.0,127.0,111.0,84.0,-89.0
126.0,123.0,131.0,131.0,126.0,128.0,125.0,128.0,19.0,-102.0,-79.0,-128.0,127.0,127.0,111.0,84.0,-89.0
126.0,123.0,131.0,131.0,126.0,128.0,125.0,128.0,19.0,-102.0,-79.0,-128.0,127.0,127.0,111.0,84.0,-89.0
126.0,123.0,131.0,131.0,127.0,128.0,125.0,127.0,19.0,-102.0,-79.0,-128.0,127.0,127.0,111.0,84.0,-89.0
126.0,123.0,131.0,131.0,127.0,128.0,125.0,127.0,19.0,-102.0,-79.0,-128.0,127.0,127.0,111.0,84.0,-89.0
125.0,122.0,130.0,128.0,125.0,127.0,125.0,128.0,19.0,-102.0,-79.0,-128.0,127.0,127.0,111.0,84.0,-89.0
125.0,122.0,131.0,130.0,126.0,127.0,125.0,128.0,19.0,-102.0,-79.0,-128.0,127.0,127.0,111.0,84.0,-89.0
125.0,122.0,131.0,131.0,126.0,127.0,125.0,128.0,19.0,-102.0,-79.0,-128.0,127.0,127.0,111.0,84.0,-89.0
125.0,122.0,131.0,131.0,126.0,127.0,125.0,128.0,19.0,-102.0,-79.0,-128.0,127.0,127.0,111.0,84.0,-89.0
127.0,122.0,118.0,129.0,126.0,129.0,127.0,133.0,19.0,-101.0,-79.0,127.0,127.0,127.0,111.0,84.0,-89.0
127.0,122.0,118.0,130.0,127.0,130.0,127.0,132.0,19.0,-101.0,-79.0,127.0,127.0,127.0,111.0,84.0,-89.0
127.0,121.0,118.0,130.0,126.0,129.0,127.0,131.0,19.0,-101.0,-79.0,127.0,127.0,127.0,111.0,84.0,-89.0
127.0,121.0,118.0,130.0,126.0,129.0,128.0,131.0,19.0,-101.0,-79.0,127.0,127.0,127.0,111.0,84.0,-89.0
127.0,122.0,119.0,130.0,127.0,129.0,128.0,130.0,19.0,-101.0,-79.0,127.0,127.0,127.0,111.0,84.0,-89.0
127.0,122.0,119.0,126.0,126.0,129.0,128.0,136.0,19.0,-101.0,-79.0,127.0,127.0,127.0,111.0,84.0,-89.0
127.0,122.0,119.0,127.0,126.0,128.0,128.0,136.0,19.0,-101.0,-79.0,127.0,127.0,127.0,111.0,84.0,-89.0
127.0,121.0,119.0,128.0,126.0,128.0,127.0,136.0,19.0,-101.0,-79.0,127.0,127.0,127.0,111.0,84.0,-89.0
127.0,121.0,119.0,128.0,126.0,128.0,127.0,135.0,19.0,-101.0,-79.0,127.0,127.0,127.0,111.0,84.0,-89.0
127.0,121.0,118.0,129.0,126.0,128.0,126.0,134.0,19.0,-101.0,-79.0,127.0,127.0,127.0,111.0,84.0,-89.0
127.0,122.0,126.0,133.0,127.0,128.0,128.0,126.0,19.0,-101.0,-78.0,127.0,127.0,127.0,111.0,84.0,-89.0
126.0,122.0,126.0,133.0,127.0,128.0,128.0,125.0,19.0,-101.0,-78.0,127.0,127.0,127.0,111.0,84.0,-89.0
126.0,122.0,126.0,134.0,127.0,128.0,128.0,125.0,19.0,-101.0,-78.0,127.0,127.0,127.0,111.0,84.0,-89.0
128.0,123.0,125.0,136.0,128.0,127.0,127.0,129.0,19.0,-101.0,-78.0,127.0,127.0,127.0,111.0,84.0,-89.0
128.0,123.0,125.0,135.0,128.0,127.0,127.0,129.0,19.0,-101.0,-78.0,127.0,127.0,127.0,111.0,84.0,-89.0
127.0,123.0,125.0,134.0,128.0,127.0,127.0,128.0,19.0,-101.0,-78.0,127.0,127.0,127.0,111.0,84.0,-89.0
127.0,123.0,125.0,133.0,127.0,126.0,128.0,128.0,19.0,-101.0,-78.0,127.0,127.0,127.0,111.0,84.0,-89.0
127.0,123.0,126.0,133.0,127.0,126.0,128.0,127.0,19.0,-101.0,-78.0,127.0,127.0,127.0,111.0,84.0,-89.0
127.0,122.0,126.0,133.0,127.0,127.0,128.0,127.0,19.0,-101.0,-78.0,127.0,127.0,127.0,111.0,84.0,-89.0
127.0,122.0,126.0,132.0,127.0,128.0,128.0,126.0,19.0,-101.0,-78.0,127.0,127.0,127.0,111.0,84.0,-89.0
126.0,123.0,120.0,131.0,127.0,124.0,127.0,117.0,20.0,-101.0,-78.0,127.0,127.0,127.0,111.0,84.0,-89.0
126.0,123.0,120.0,131.0,127.0,124.0,128.0,117.0,20.0,-101.0,-78.0,127.0,127.0,127.0,111.0,84.0,-89.0
127.0,123.0,125.0,129.0,128.0,125.0,128.0,121.0,20.0,-101.0,-78.0,127.0,127.0,127.0,111.0,84.0,-89.0
127.0,123.0,124.0,128.0,127.0,125.0,128.0,121.0,20.0,-101.0,-78.0,127.0,127.0,127.0,111.0,84.0,-89.0
127.0,123.0,124.0,128.0,127.0,124.0,128.0,121.0,20.0,-101.0,-78.0,127.0,127.0,127.0,111.0,84.0,-89.0
127.0,123.0,124.0,127.0,127.0,124.0,127.0,120.0,20.0,-101.0,-78.0,127.0,127.0,127.0,111.0,84.0,-89.0
127.0,123.0,123.0,128.0,127.0,124.0,127.0,120.0,20.0,-101.0,-78.0,127.0,127.0,127.0,111.0,84.0,-89.0
126.0,123.0,122.0,128.0,127.0,123.0,127.0,119.0,20.0,-101.0,-78.0,127.0,127.0,127.0,111.0,84.0,-89.0
126.0,123.0,121.0,129.0,127.0,124.0,127.0,118.0,20.0,-101.0,-78.0,127.0,127.0,127.0,111.0,84.0,-89.0
126.0,123.0,121.0,130.0,127.0,124.0,127.0,117.0,20.0,-101.0,-78.0,127.0,127.0,127.0,111.0,84.0,-89.0
127.0,122.0,107.0,133.0,126.0,115.0,127.0,124.0,21.0,-102.0,-78.0,127.0,127.0,127.0,111.0,84.0,-89.0
128.0,122.0,98.0,132.0,125.0,116.0,127.0,128.0,21.0,-102.0,-78.0,127.0,127.0,127.0,111.0,84.0,-89.0
128.0,122.0,99.0,131.0,125.0,116.0,127.0,127.0,21.0,-102.0,-78.0,127.0,127.0,127.0,111.0,84.0,-89.0
128.0,121.0,100.0,131.0,125.0,116.0,127.0,127.0,21.0,-102.0,-78.0,127.0,127.0,127.0,111.0,84.0,-89.0
127.0,121.0,101.0,132.0,125.0,116.0,126.0,126.0,21.0,-102.0,-78.0,127.0,127.0,127.0,111.0,84.0,-89.0
127.0,121.0,102.0,132.0,125.0,115.0,126.0,125.0,21.0,-102.0,-78.0,127.0,127.0,127.0,111.0,84.0,-89.0
127.0,121.0,103.0,133.0,125.0,115.0,126.0,125.0,21.0,-102.0,-78.0,127.0,127.0,127.0,111.0,84.0,-89.0
127.0,121.0,104.0,132.0,126.0,116.0,126.0,125.0,21.0,-102.0,-78.0,127.0,127.0,127.0,111.0,84.0,-89.0
127.0,122.0,105.0,132.0,126.0,116.0,126.0,124.0,21.0,-102.0,-78.0,127.0,127.0,127.0,111.0,84.0,-89.0
127.0,122.0,106.0,132.0,126.0,116.0,126.0,124.0,21.0,-102.0,-78.0,127.0,127.0,127.0,111.0,84.0,-89.0
128.0,120.0,129.0,137.0,125.0,95.0,124.0,124.0,22.0,-103.0,-78.0,127.0,127.0,127.0,111.0,84.0,-89.0
128.0,120.0,129.0,136.0,124.0,95.0,124.0,125.0,22.0,-103.0,-78.0,127.0,127.0,127.0,111.0,84.0,-89.0
128.0,120.0,129.0,136.0,124.0,95.0,124.0,126.0,22.0,-103.0,-78.0,127.0,127.0,127.0,111.0,84.0,-89.0
128.0,119.0,129.0,135.0,124.0,95.0,124.0,126.0,22.0,-103.0,-78.0,127.0,127.0,127.0,111.0,84.0,-89.0
128.0,119.0,129.0,136.0,123.0,95.0,123.0,126.0,22.0,-103.0,-78.0,127.0,127.0,127.0,111.0,84.0,-89.0
128.0,119.0,129.0,137.0,123.0,94.0,123.0,126.0,22.0,-103.0,-78.0,127.0,127.0,127.0,111.0,84.0,-89.0
127.0,119.0,129.0,139.0,123.0,94.0,123.0,126.0,22.0,-103.0,-78.0,127.0,127.0,127.0,111.0,84.0,-89.0
127.0,119.0,129.0,140.0,123.0,94.0,123.0,126.0,22.0,-103.0,-78.0,127.0,127.0,127.0,111.0,84.0,-89.0
127.0,119.0,129.0,142.0,123.0,94.0,124.0,127.0,22.0,-103.0,-78.0,127.0,127.0,127.0,111.0,84.0,-89.0
127.0,119.0,129.0,143.0,124.0,95.0,124.0,127.0,22.0,-103.0,-78.0,127.0,127.0,127.0,111.0,84.0,-89.0
127.0,121.0,168.0,130.0,126.0,107.0,123.0,127.0,23.0,-103.0,-79.0,126.0,127.0,127.0,111.0,84.0,-89.0
127.0,121.0,169.0,130.0,127.0,108.0,123.0,127.0,23.0,-103.0,-79.0,126.0,127.0,127.0,111.0,84.0,-89.0
127.0,122.0,170.0,129.0,127.0,109.0,123.0,127.0,23.0,-103.0,-79.0,126.0,127.0,127.0,111.0,84.0,-89.0
127.0,122.0,171.0,128.0,127.0,110.0,124.0,127.0,23.0,-103.0,-79.0,126.0,127.0,127.0,111.0,84.0,-89.0
127.0,122.0,172.0,128.0,127.0,110.0,124.0,127.0,23.0,-103.0,-79.0,126.0,127.0,127.0,111.0,84.0,-89.0
128.0,122.0,173.0,127.0,127.0,110.0,124.0,128.0,23.0,-103.0,-79.0,126.0,127.0,127.0,111.0,84.0,-89.0
128.0,122.0,173.0,126.0,127.0,111.0,125.0,128.0,23.0,-103.0,-79.0,126.0,127.0,127.0,111.0,84.0,-89.0
127.0,122.0,173.0,126.0,127.0,111.0,125.0,128.0,23.0,-103.0,-79.0,126.0,127.0,127.0,111.0,84.0,-89.0
128.0,122.0,173.0,125.0,127.0,111.0,125.0,128.0,23.0,-103.0,-79.0,126.0,127.0,127.0,111.0,84.0,-89.0
127.0,121.0,166.0,131.0,126.0,107.0,123.0,126.0,23.0,-103.0,-79.0,126.0,127.0,127.0,111.0,84.0,-89.0
128.0,123.0,144.0,115.0,126.0,117.0,125.0,130.0,23.0,-104.0,-79.0,126.0,127.0,127.0,111.0,84.0,-89.0
128.0,123.0,143.0,114.0,126.0,117.0,125.0,130.0,23.0,-104.0,-79.0,126.0,127.0,127.0,111.0,84.0,-89.0
128.0,123.0,143.0,114.0,127.0,118.0,125.0,130.0,23.0,-104.0,-79.0,126.0,127.0,127.0,111.0,84.0,-89.0
128.0,124.0,143.0,113.0,127.0,118.0,125.0,130.0,23.0,-104.0,-79.0,126.0,127.0,127.0,111.0,84.0,-89.0
128.0,124.0,143.0,113.0,127.0,118.0,125.0,130.0,23.0,-104.0,-79.0,126.0,127.0,127.0,111.0,84.0,-89.0
128.0,124.0,144.0,114.0,127.0,118.0,124.0,130.0,23.0,-104.0,-79.0,126.0,127.0,127.0,111.0,84.0,-89.0
128.0,124.0,143.0,114.0,127.0,118.0,124.0,129.0,23.0,-104.0,-79.0,126.0,127.0,127.0,111.0,84.0,-89.0
128.0,123.0,143.0,115.0,127.0,118.0,124.0,129.0,23.0,-104.0,-79.0,126.0,127.0,127.0,111.0,84.0,-89.0
128.0,122.0,144.0,116.0,126.0,117.0,125.0,130.0,23.0,-104.0,-79.0,126.0,127.0,127.0,111.0,84.0,-89.0
128.0,122.0,144.0,116.0,126.0,116.0,125.0,130.0,23.0,-104.0,-79.0,126.0,127.0,127.0,111.0,84.0,-89.0
127.0,121.0,147.0,111.0,124.0,123.0,123.0,129.0,23.0,-105.0,-80.0,127.0,127.0,127.0,111.0,84.0,-89.0
127.0,122.0,147.0,112.0,125.0,124.0,123.0,129.0,23.0,-105.0,-80.0,127.0,127.0,127.0,111.0,84.0,-89.0
127.0,122.0,147.0,112.0,125.0,124.0,123.0,129.0,23.0,-105.0,-80.0,127.0,127.0,127.0,111.0,84.0,-89.0
127.0,122.0,147.0,112.0,125.0,124.0,123.0,129.0,23.0,-105.0,-80.0,127.0,127.0,127.0,111.0,84.0,-89.0
128.0,122.0,147.0,112.0,125.0,124.0,122.0,129.0,23.0,-105.0,-80.0,127.0,127.0,127.0,111.0,84.0,-89.0
128.0,123.0,146.0,112.0,125.0,124.0,122.0,129.0,23.0,-105.0,-80.0,127.0,127.0,127.0,111.0,84.0,-89.0
128.0,123.0,146.0,112.0,125.0,123.0,122.0,129.0,23.0,-105.0,-80.0,127.0,127.0,127.0,111.0,84.0,-89.0
126.0,120.0,146.0,111.0,124.0,123.0,123.0,130.0,23.0,-105.0,-80.0,127.0,127.0,127.0,111.0,84.0,-89.0
127.0,121.0,147.0,111.0,124.0,123.0,123.0,130.0,23.0,-105.0,-80.0,127.0,127.0,127.0,111.0,84.0,-89.0
127.0,121.0,147.0,111.0,124.0,123.0,123.0,130.0,23.0,-105.0,-80.0,127.0,127.0,127.0,111.0,84.0,-89.0
127.0,124.0,120.0,109.0,125.0,119.0,123.0,128.0,23.0,-106.0,-81.0,127.0,127.0,127.0,111.0,84.0,-89.0
127.0,123.0,120.0,108.0,125.0,119.0,123.0,128.0,23.0,-106.0,-81.0,127.0,127.0,127.0,111.0,84.0,-89.0
127.0,123.0,119.0,107.0,125.0,119.0,123.0,127.0,23.0,-106.0,-81.0,127.0,127.0,127.0,111.0,84.0,-89.0
127.0,123.0,119.0,106.0,124.0,119.0,123.0,127.0,23.0,-106.0,-81.0,127.0,127.0,127.0,111.0,84.0,-89.0
127.0,123.0,118.0,105.0,124.0,119.0,123.0,125.0,23.0,-106.0,-81.0,127.0,127.0,127.0,111.0,84.0,-89.0
127.0,123.0,118.0,104.0,124.0,118.0,123.0,124.0,23.0,-106.0,-81.0,127.0,127.0,127.0,111.0,84.0,-89.0
128.0,124.0,123.0,110.0,126.0,118.0,124.0,129.0,23.0,-106.0,-81.0,127.0,127.0,127.0,111.0,84.0,-89.0
127.0,123.0,122.0,110.0,126.0,118.0,124.0,129.0,23.0,-106.0,-81.0,127.0,127.0,127.0,111.0,84.0,-89.0
127.0,123.0,122.0,110.0,126.0,118.0,124.0,129.0,23.0,-106.0,-81.0,127.0,127.0,127.0,111.0,84.0,-89.0
127.0,123.0,121.0,110.0,126.0,118.0,123.0,129.0,23.0,-106.0,-81.0,127.0,127.0,127.0,111.0,84.0,-89.0
128.0,125.0,132.0,113.0,127.0,119.0,126.0,131.0,22.0,-106.0,-81.0,127.0,127.0,127.0,111.0,84.0,-89.0
128.0,125.0,133.0,113.0,127.0,119.0,126.0,131.0,22.0,-106.0,-81.0,127.0,127.0,127.0,111.0,84.0,-89.0
128.0,124.0,134.0,113.0,127.0,119.0,126.0,131.0,22.0,-106.0,-81.0,127.0,127.0,127.0,111.0,84.0,-89.0
128.0,124.0,134.0,114.0,127.0,119.0,126.0,131.0,22.0,-106.0,-81.0,127.0,127.0,127.0,111.0,84.0,-89.0
128.0,124.0,135.0,114.0,127.0,119.0,126.0,131.0,22.0,-106.0,-81.0,127.0,127.0,127.0,111.0,84.0,-89.0
128.0,124.0,129.0,114.0,127.0,118.0,125.0,129.0,22.0,-106.0,-81.0,127.0,127.0,127.0,111.0,84.0,-89.0
128.0,124.0,129.0,114.0,127.0,117.0,125.0,129.0,22.0,-106.0,-81.0,127.0,127.0,127.0,111.0,84.0,-89.0
128.0,124.0,130.0,113.0,127.0,118.0,125.0,130.0,22.0,-106.0,-81.0,127.0,127.0,127.0,111.0,84.0,-89.0
128.0,124.0,131.0,113.0,127.0,118.0,125.0,130.0,22.0,-106.0,-81.0,127.0,127.0,127.0,111.0,84.0,-89.0
128.0,124.0,131.0,113.0,127.0,119.0,125.0,131.0,22.0,-106.0,-81.0,127.0,127.0,127.0,111.0,84.0,-89.0
126.0,122.0,137.0,117.0,124.0,123.0,124.0,121.0,21.0,-105.0,-81.0,127.0,127.0,127.0,111.0,84.0,-89.0
127.0,123.0,137.0,117.0,124.0,124.0,124.0,123.0,21.0,-105.0,-81.0,127.0,127.0,127.0,111.0,84.0,-89.0
127.0,123.0,136.0,117.0,124.0,124.0,125.0,125.0,21.0,-105.0,-81.0,127.0,127.0,127.0,111.0,84.0,-89.0
127.0,123.0,136.0,116.0,124.0,124.0,125.0,127.0,21.0,-105.0,-81.0,127.0,127.0,127.0,111.0,84.0,-89.0
126.0,123.0,140.0,116.0,126.0,121.0,125.0,117.0,21.0,-105.0,-81.0,127.0,127.0,127.0,111.0,84.0,-89.0
126.0,123.0,140.0,116.0,125.0,121.0,125.0,116.0,21.0,-105.0,-81.0,127.0,127.0,127.0,111.0,84.0,-89.0
126.0,123.0,139.0,117.0,125.0,121.0,125.0,117.0,21.0,-105.0,-81.0,127.0,127.0,127.0,111.0,84.0,-89.0
126.0,122.0,139.0,117.0,125.0,121.0,124.0,117.0,21.0,-105.0,-81.0,127.0,127.0,127.0,111.0,84.0,-89.0
126.0,123.0,138.0,117.0,125.0,123.0,124.0,118.0,21.0,-105.0,-81.0,127.0,127.0,127.0,111.0,84.0,-89.0
126.0,123.0,138.0,117.0,124.0,123.0,124.0,120.0,21.0,-105.0,-81.0,127.0,127.0,127.0,111.0,84.0,-89.0
127.0,123.0,131.0,114.0,125.0,127.0,126.0,131.0,20.0,-104.0,-81.0,127.0,127.0,127.0,111.0,84.0,-89.0
127.0,123.0,131.0,113.0,124.0,128.0,126.0,131.0,20.0,-104.0,-81.0,127.0,127.0,127.0,111.0,84.0,-89.0
127.0,123.0,131.0,113.0,124.0,128.0,126.0,131.0,20.0,-104.0,-81.0,127.0,127.0,127.0,111.0,84.0,-89.0
128.0,123.0,132.0,116.0,126.0,124.0,126.0,133.0,20.0,-104.0,-81.0,127.0,127.0,127.0,111.0,84.0,-89.0
128.0,124.0,131.0,115.0,126.0,126.0,126.0,133.0,20.0,-104.0,-81.0,127.0,127.0,127.0,111.0,84.0,-89.0
128.0,124.0,131.0,115.0,126.0,126.0,126.0,133.0,20.0,-104.0,-81.0,127.0,127.0,127.0,111.0,84.0,-89.0
128.0,124.0,130.0,115.0,126.0,126.0,126.0,132.0,20.0,-104.0,-81.0,127.0,127.0,127.0,111.0,84.0,-89.0
128.0,124.0,130.0,114.0,125.0,126.0,126.0,132.0,20.0,-104.0,-81.0,127.0,127.0,127.0,111.0,84.0,-89.0
127.0,124.0,131.0,114.0,125.0,126.0,126.0,132.0,20.0,-104.0,-81.0,127.0,127.0,127.0,111.0,84.0,-89.0
127.0,123.0,131.0,114.0,125.0,126.0,126.0,131.0,20.0,-104.0,-81.0,127.0,127.0,127.0,111.0,84.0,-89.0
127.0,122.0,124.0,116.0,125.0,123.0,126.0,128.0,19.0,-104.0,-81.0,127.0,127.0,127.0,111.0,84.0,-89.0
127.0,122.0,123.0,117.0,125.0,123.0,126.0,129.0,19.0,-104.0,-81.0,127.0,127.0,127.0,111.0,84.0,-89.0
127.0,122.0,127.0,112.0,126.0,123.0,126.0,124.0,19.0,-104.0,-81.0,127.0,127.0,127.0,111.0,84.0,-89.0
127.0,122.0,127.0,112.0,125.0,123.0,126.0,124.0,19.0,-104.0,-81.0,127.0,127.0,127.0,111.0,84.0,-89.0
127.0,121.0,126.0,112.0,125.0,123.0,126.0,124.0,19.0,-104.0,-81.0,127.0,127.0,127.0,111.0,84.0,-89.0
126.0,121.0,126.0,112.0,125.0,123.0,126.0,124.0,19.0,-104.0,-81.0,127.0,127.0,127.0,111.0,84.0,-89.0
126.0,121.0,126.0,112.0,125.0,123.0,126.0,124.0,19.0,-104.0,-81.0,127.0,127.0,127.0,111.0,84.0,-89.0
126.0,121.0,126.0,113.0,124.0,123.0,126.0,124.0,19.0,-104.0,-81.0,127.0,127.0,127.0,111.0,84.0,-89.0
126.0,121.0,125.0,114.0,125.0,123.0,126.0,125.0,19.0,-104.0,-81.0,127.0,127.0,127.0,111.0,84.0,-89.0
127.0,121.0,125.0,115.0,125.0,123.0,126.0,127.0,19.0,-104.0,-81.0,127.0,127.0,127.0,111.0,84.0,-89.0
127.0,125.0,113.0,117.0,127.0,117.0,126.0,122.0,18.0,-104.0,-81.0,127.0,127.0,127.0,111.0,84.0,-89.0
127.0,124.0,113.0,117.0,125.0,117.0,126.0,127.0,18.0,-104.0,-81.0,127.0,127.0,127.0,111.0,84.0,-89.0
127.0,124.0,113.0,116.0,125.0,117.0,126.0,127.0,18.0,-104.0,-81.0,127.0,127.0,127.0,111.0,84.0,-89.0
127.0,124.0,113.0,116.0,125.0,116.0,126.0,126.0,18.0,-104.0,-81.0,127.0,127.0,127.0,111.0,84.0,-89.0
127.0,124.0,113.0,115.0,125.0,116.0,126.0,125.0,18.0,-104.0,-81.0,127.0,127.0,127.0,111.0,84.0,-89.0
127.0,124.0,113.0,115.0,125.0,117.0,125.0,125.0,18.0,-104.0,-81.0,127.0,127.0,127.0,111.0,84.0,-89.0
127.0,124.0,112.0,115.0,125.0,118.0,126.0,124.0,18.0,-104.0,-81.0,127.0,127.0,127.0,111.0,84.0,-89.0
127.0,124.0,112.0,115.0,125.0,118.0,126.0,124.0,18.0,-104.0,-81.0,127.0,127.0,127.0,111.0,84.0,-89.0
127.0,124.0,113.0,116.0,126.0,117.0,126.0,123.0,18.0,-104.0,-81.0,127.0,127.0,127.0,111.0,84.0,-89.0
127.0,125.0,113.0,117.0,126.0,117.0,126.0,123.0,18.0,-104.0,-81.0,127.0,127.0,127.0,111.0,84.0,-89.0
128.0,125.0,123.0,118.0,127.0,121.0,127.0,129.0,17.0,-104.0,-81.0,127.0,127.0,127.0,111.0,84.0,-89.0
128.0,125.0,123.0,117.0,126.0,120.0,127.0,128.0,17.0,-104.0,-81.0,127.0,127.0,127.0,111.0,84.0,-89.0
128.0,125.0,123.0,117.0,126.0,120.0,127.0,128.0,17.0,-104.0,-81.0,127.0,127.0,127.0,111.0,84.0,-89.0
128.0,125.0,124.0,117.0,126.0,121.0,127.0,128.0,17.0,-104.0,-81.0,127.0,127.0,127.0,111.0,84.0,-89.0
128.0,125.0,124.0,117.0,126.0,121.0,127.0,128.0,17.0,-104.0,-81.0,127.0,127.0,127.0,111.0,84.0,-89.0
128.0,125.0,124.0,117.0,126.0,123.0,127.0,128.0,17.0,-104.0,-81.0,127.0,127.0,127.0,111.0,84.0,-89.0
128.0,125.0,124.0,117.0,126.0,123.0,127.0,129.0,17.0,-104.0,-81.0,127.0,127.0,127.0,111.0,84.0,-89.0
128.0,124.0,124.0,118.0,125.0,123.0,127.0,129.0,17.0,-104.0,-81.0,127.0,127.0,127.0,111.0,84.0,-89.0
128.0,124.0,124.0,118.0,125.0,123.0,127.0,130.0,17.0,-104.0,-81.0,127.0,127.0,127.0,111.0,84.0,-89.0
128.0,124.0,125.0,118.0,125.0,123.0,126.0,131.0,17.0,-104.0,-81.0,127.0,127.0,127.0,111.0,84.0,-89.0
127.0,124.0,130.0,121.0,126.0,124.0,126.0,125.0,17.0,-103.0,-81.0,127.0,127.0,127.0,111.0,84.0,-89.0
127.0,124.0,130.0,121.0,126.0,124.0,126.0,125.0,17.0,-103.0,-81.0,127.0,127.0,127.0,111.0,84.0,-89.0
127.0,124.0,131.0,121.0,126.0,124.0,126.0,125.0,17.0,-103.0,-81.0,127.0,127.0,127.0,111.0,84.0,-89.0
127.0,124.0,130.0,121.0,126.0,125.0,126.0,125.0,17.0,-103.0,-81.0,127.0,127.0,127.0,111.0,84.0,-89.0
127.0,124.0,130.0,121.0,126.0,126.0,126.0,126.0,17.0,-103.0,-81.0,127.0,127.0,127.0,111.0,84.0,-89.0
127.0,124.0,130.0,120.0,126.0,126.0,126.0,126.0,17.0,-103.0,-81.0,127.0,127.0,127.0,111.0,84.0,-89.0
127.0,124.0,129.0,119.0,126.0,126.0,126.0,126.0,17.0,-103.0,-81.0,127.0,127.0,127.0,111.0,84.0,-89.0
126.0,124.0,129.0,118.0,126.0,127.0,126.0,127.0,17.0,-103.0,-81.0,127.0,127.0,127.0,111.0,84.0,-89.0
127.0,124.0,130.0,120.0,126.0,125.0,126.0,125.0,17.0,-103.0,-81.0,127.0,127.0,127.0,111.0,84.0,-89.0
127.0,124.0,130.0,120.0,126.0,125.0,126.0,125.0,17.0,-103.0,-81.0,127.0,127.0,127.0,111.0,84.0,-89.0
128.0,127.0,133.0,119.0,127.0,124.0,126.0,128.0,17.0,-103.0,-80.0,127.0,127.0,127.0,111.0,84.0,-89.0
128.0,127.0,133.0,119.0,127.0,124.0,126.0,128.0,17.0,-103.0,-80.0,127.0,127.0,127.0,111.0,84.0,-89.0
128.0,127.0,132.0,118.0,127.0,124.0,126.0,128.0,17.0,-103.0,-80.0,127.0,127.0,127.0,111.0,84.0,-89.0
128.0,127.0,132.0,117.0,127.0,123.0,127.0,128.0,17.0,-103.0,-80.0,127.0,127.0,127.0,111.0,84.0,-89.0
128.0,127.0,132.0,117.0,127.0,123.0,127.0,128.0,17.0,-103.0,-80.0,127.0,127.0,127.0,111.0,84.0,-89.0
128.0,126.0,132.0,117.0,127.0,123.0,127.0,128.0,17.0,-103.0,-80.0,127.0,127.0,127.0,111.0,84.0,-89.0
128.0,126.0,132.0,117.0,127.0,123.0,127.0,128.0,17.0,-103.0,-80.0,127.0,127.0,127.0,111.0,84.0,-89.0
128.0,127.0,132.0,118.0,127.0,125.0,126.0,128.0,17.0,-103.0,-80.0,127.0,127.0,127.0,111.0,84.0,-89.0
128.0,127.0,133.0,119.0,127.0,125.0,126.0,128.0,17.0,-103.0,-80.0,127.0,127.0,127.0,111.0,84.0,-89.0
128.0,127.0,133.0,119.0,127.0,125.0,126.0,128.0,17.0,-103.0,-80.0,127.0,127.0,127.0,111.0,84.0,-89.0
126.0,124.0,126.0,121.0,125.0,127.0,127.0,123.0,18.0,-104.0,-80.0,127.0,127.0,127.0,111.0,84.0,-89.0
126.0,124.0,127.0,121.0,125.0,127.0,127.0,124.0,18.0,-104.0,-80.0,127.0,127.0,127.0,111.0,84.0,-89.0
126.0,124.0,127.0,122.0,125.0,126.0,127.0,125.0,18.0,-104.0,-80.0,127.0,127.0,127.0,111.0,84.0,-89.0
126.0,124.0,127.0,123.0,125.0,126.0,127.0,126.0,18.0,-104.0,-80.0,127.0,127.0,127.0,111.0,84.0,-89.0
126.0,124.0,127.0,124.0,126.0,126.0,128.0,127.0,18.0,-104.0,-80.0,127.0,127.0,127.0,111.0,84.0,-89.0
126.0,124.0,127.0,126.0,126.0,126.0,128.0,128.0,18.0,-104.0,-80.0,127.0,127.0,127.0,111.0,84.0,-89.0
127.0,125.0,127.0,116.0,126.0,127.0,127.0,123.0,18.0,-104.0,-80.0,127.0,127.0,127.0,111.0,84.0,-89.0
126.0,125.0,127.0,117.0,126.0,127.0,127.0,122.0,18.0,-104.0,-80.0,127.0,127.0,127.0,111.0,84.0,-89.0
126.0,125.0,127.0,119.0,126.0,127.0,127.0,123.0,18.0,-104.0,-80.0,127.0,127.0,127.0,111.0,84.0,-89.0
126.0,124.0,127.0,120.0,125.0,127.0,127.0,123.0,18.0,-104.0,-80.0,127.0,127.0,127.0,111.0,84.0,-89.0
126.0,125.0,128.0,122.0,127.0,125.0,126.0,130.0,18.0,-104.0,-80.0,127.0,127.0,127.0,111.0,84.0,-89.0
126.0,125.0,128.0,122.0,127.0,124.0,126.0,128.0,18.0,-104.0,-80.0,127.0,127.0,127.0,111.0,84.0,-89.0
126.0,124.0,128.0,122.0,127.0,124.0,126.0,127.0,18.0,-104.0,-80.0,127.0,127.0,127.0,111.0,84.0,-89.0
126.0,124.0,128.0,122.0,126.0,124.0,126.0,127.0,18.0,-104.0,-80.0,127.0,127.0,127.0,111.0,84.0,-89.0
126.0,124.0,128.0,122.0,126.0,123.0,126.0,126.0,18.0,-104.0,-80.0,127.0,127.0,127.0,111.0,84.0,-89.0
128.0,127.0,126.0,123.0,127.0,126.0,127.0,132.0,18.0,-104.0,-80.0,127.0,127.0,127.0,111.0,84.0,-89.0
127.0,127.0,126.0,123.0,127.0,126.0,127.0,132.0,18.0,-104.0,-80.0,127.0,127.0,127.0,111.0,84.0,-89.0
127.0,127.0,127.0,122.0,127.0,126.0,127.0,132.0,18.0,-104.0,-80.0,127.0,127.0,127.0,111.0,84.0,-89.0
127.0,126.0,127.0,122.0,127.0,125.0,127.0,131.0,18.0,-104.0,-80.0,127.0,127.0,127.0,111.0,84.0,-89.0
127.0,126.0,127.0,122.0,127.0,125.0,127.0,130.0,18.0,-104.0,-80.0,127.0,127.0,127.0,111.0,84.0,-89.0
126.0,125.0,127.0,124.0,127.0,126.0,127.0,125.0,19.0,-104.0,-80.0,127.0,127.0,127.0,111.0,84.0,-89.0
126.0,125.0,127.0,124.0,127.0,126.0,127.0,125.0,19.0,-104.0,-80.0,127.0,127.0,127.0,111.0,84.0,-89.0
126.0,125.0,127.0,124.0,127.0,126.0,127.0,124.0,19.0,-104.0,-80.0,127.0,127.0,127.0,111.0,84.0,-89.0
126.0,125.0,127.0,124.0,127.0,126.0,127.0,124.0,19.0,-104.0,-80.0,127.0,127.0,127.0,111.0,84.0,-89.0
126.0,126.0,127.0,124.0,127.0,125.0,127.0,126.0,19.0,-104.0,-80.0,127.0,127.0,127.0,111.0,84.0,-89.0
126.0,126.0,127.0,124.0,127.0,126.0,127.0,126.0,19.0,-104.0,-80.0,127.0,127.0,127.0,111.0,84.0,-89.0
126.0,126.0,127.0,124.0,127.0,126.0,127.0,126.0,19.0,-104.0,-80.0,127.0,127.0,127.0,111.0,84.0,-89.0
126.0,126.0,127.0,124.0,127.0,126.0,127.0,126.0,19.0,-104.0,-80.0,127.0,127.0,127.0,111.0,84.0,-89.0
126.0,125.0,126.0,124.0,127.0,126.0,127.0,126.0,19.0,-104.0,-80.0,127.0,127.0,127.0,111.0,84.0,-89.0
126.0,125.0,126.0,124.0,127.0,126.0,127.0,126.0,19.0,-104.0,-80.0,127.0,127.0,127.0,111.0,84.0,-89.0
127.0,127.0,128.0,123.0,129.0,125.0,128.0,126.0,19.0,-104.0,-80.0,127.0,127.0,127.0,111.0,84.0,-89.0
127.0,127.0,128.0,122.0,128.0,125.0,128.0,126.0,19.0,-104.0,-80.0,127.0,127.0,127.0,111.0,84.0,-89.0
127.0,127.0,128.0,122.0,128.0,126.0,127.0,127.0,19.0,-104.0,-80.0,127.0,127.0,127.0,111.0,84.0,-89.0
127.0,125.0,128.0,124.0,129.0,124.0,127.0,127.0,19.0,-104.0,-80.0,127.0,127.0,127.0,111.0,84.0,-89.0
127.0,126.0,128.0,124.0,129.0,124.0,127.0,126.0,19.0,-104.0,-80.0,127.0,127.0,127.0,111.0,84.0,-89.0
127.0,126.0,128.0,124.0,129.0,124.0,127.0,126.0,19.0,-104.0,-80.0,127.0,127.0,127.0,111.0,84.0,-89.0
127.0,127.0,128.0,124.0,129.0,126.0,127.0,126.0,19.0,-104.0,-80.0,127.0,127.0,127.0,111.0,84.0,-89.0
127.0,127.0,128.0,124.0,129.0,126.0,128.0,126.0,19.0,-104.0,-80.0,127.0,127.0,127.0,111.0,84.0,-89.0
127.0,127.0,128.0,124.0,129.0,126.0,128.0,126.0,19.0,-104.0,-80.0,127.0,127.0,127.0,111.0,84.0,-89.0
127.0,127.0,128.0,123.0,129.0,125.0,128.0,126.0,19.0,-104.0,-80.0,127.0,127.0,127.0,111.0,84.0,-89.0
128.0,126.0,128.0,121.0,127.0,126.0,127.0,130.0,19.0,-104.0,-79.0,127.0,127.0,127.0,111.0,84.0,-89.0
128.0,126.0,128.0,121.0,127.0,125.0,127.0,130.0,19.0,-104.0,-79.0,127.0,127.0,127.0,111.0,84.0,-89.0
127.0,125.0,128.0,120.0,127.0,124.0,126.0,126.0,19.0,-104.0,-79.0,127.0,127.0,127.0,111.0,84.0,-89.0
127.0,125.0,128.0,119.0,127.0,124.0,126.0,127.0,19.0,-104.0,-79.0,127.0,127.0,127.0,111.0,84.0,-89.0
127.0,125.0,128.0,119.0,127.0,124.0,126.0,127.0,19.0,-104.0,-79.0,127.0,127.0,127.0,111.0,84.0,-89.0
127.0,126.0,127.0,119.0,127.0,126.0,126.0,128.0,19.0,-104.0,-79.0,127.0,127.0,127.0,111.0,84.0,-89.0
127.0,126.0,127.0,119.0,127.0,126.0,126.0,129.0,19.0,-104.0,-79.0,127.0,127.0,127.0,111.0,84.0,-89.0
128.0,126.0,128.0,120.0,127.0,126.0,126.0,130.0,19.0,-104.0,-79.0,127.0,127.0,127.0,111.0,84.0,-89.0
128.0,126.0,128.0,120.0,127.0,126.0,126.0,130.0,19.0,-104.0,-79.0,127.0,127.0,127.0,111.0,84.0,-89.0
128.0,126.0,128.0,121.0,127.0,126.0,127.0,130.0,19.0,-104.0,-79.0,127.0,127.0,127.0,111.0,84.0,-89.0
126.0,124.0,124.0,121.0,126.0,126.0,126.0,124.0,20.0,-104.0,-79.0,127.0,127.0,127.0,111.0,84.0,-89.0
127.0,125.0,125.0,117.0,126.0,125.0,127.0,125.0,20.0,-104.0,-79.0,127.0,127.0,127.0,111.0,84.0,-89.0
127.0,125.0,125.0,117.0,126.0,125.0,127.0,125.0,20.0,-104.0,-79.0,127.0,127.0,127.0,111.0,84.0,-89.0
127.0,125.0,125.0,118.0,126.0,125.0,127.0,124.0,20.0,-104.0,-79.0,127.0,127.0,127.0,111.0,84.0,-89.0
127.0,125.0,125.0,118.0,126.0,126.0,127.0,124.0,20.0,-104.0,-79.0,127.0,127.0,127.0,111.0,84.0,-89.0
126.0,125.0,124.0,119.0,126.0,127.0,127.0,124.0,20.0,-104.0,-79.0,127.0,127.0,127.0,111.0,84.0,-89.0
126.0,125.0,124.0,119.0,126.0,127.0,127.0,124.0,20.0,-104.0,-79.0,127.0,127.0,127.0,111.0,84.0,-89.0
126.0,125.0,124.0,120.0,126.0,127.0,127.0,124.0,20.0,-104.0,-79.0,127.0,127.0,127.0,111.0,84.0,-89.0
126.0,125.0,124.0,120.0,126.0,126.0,127.0,124.0,20.0,-104.0,-79.0,127.0,127.0,127.0,111.0,84.0,-89.0
126.0,125.0,124.0,121.0,126.0,127.0,126.0,124.0,20.0,-104.0,-79.0,127.0,127.0,127.0,111.0,84.0,-89.0
127.0,125.0,125.0,117.0,127.0,125.0,127.0,126.0,20.0,-104.0,-79.0,127.0,127.0,127.0,111.0,84.0,-89.0
127.0,125.0,125.0,117.0,126.0,125.0,127.0,126.0,20.0,-104.0,-79.0,127.0,127.0,127.0,111.0,84.0,-89.0
127.0,125.0,125.0,118.0,126.0,125.0,127.0,126.0,20.0,-104.0,-79.0,127.0,127.0,127.0,111.0,84.0,-89.0
127.0,126.0,124.0,119.0,127.0,126.0,127.0,126.0,20.0,-104.0,-79.0,127.0,127.0,127.0,111.0,84.0,-89.0
127.0,126.0,124.0,119.0,127.0,127.0,127.0,126.0,20.0,-104.0,-79.0,127.0,127.0,127.0,111.0,84.0,-89.0
128.0,126.0,124.0,119.0,127.0,127.0,127.0,127.0,20.0,-104.0,-79.0,127.0,127.0,127.0,111.0,84.0,-89.0
128.0,126.0,125.0,119.0,127.0,127.0,127.0,128.0,20.0,-104.0,-79.0,127.0,127.0,127.0,111.0,84.0,-89.0
128.0,126.0,125.0,119.0,126.0,127.0,127.0,130.0,20.0,-104.0,-79.0,127.0,127.0,127.0,111.0,84.0,-89.0
128.0,125.0,125.0,119.0,126.0,127.0,127.0,131.0,20.0,-104.0,-79.0,127.0,127.0,127.0,111.0,84.0,-89.0
128.0,125.0,125.0,119.0,126.0,126.0,127.0,132.0,20.0,-104.0,-79.0,127.0,127.0,127.0,111.0,84.0,-89.0
127.0,125.0,128.0,122.0,126.0,126.0,126.0,127.0,20.0,-104.0,-79.0,127.0,127.0,127.0,111.0,84.0,-89.0
127.0,125.0,128.0,122.0,126.0,126.0,126.0,127.0,20.0,-104.0,-79.0,127.0,127.0,127.0,111.0,84.0,-89.0
127.0,125.0,128.0,122.0,127.0,127.0,127.0,128.0,20.0,-104.0,-79.0,127.0,127.0,127.0,111.0,84.0,-89.0
128.0,126.0,128.0,121.0,127.0,128.0,127.0,128.0,20.0,-104.0,-79.0,127.0,127.0,127.0,111.0,84.0,-89.0
128.0,126.0,128.0,122.0,127.0,128.0,127.0,129.0,20.0,-104.0,-79.0,127.0,127.0,127.0,111.0,84.0,-89.0
128.0,126.0,128.0,122.0,127.0,128.0,127.0,129.0,20.0,-104.0,-79.0,127.0,127.0,127.0,111.0,84.0,-89.0
128.0,126.0,128.0,122.0,127.0,128.0,127.0,130.0,20.0,-104.0,-79.0,127.0,127.0,127.0,111.0,84.0,-89.0
128.0,126.0,128.0,122.0,127.0,128.0,127.0,130.0,20.0,-104.0,-79.0,127.0,127.0,127.0,111.0,84.0,-89.0
128.0,125.0,128.0,121.0,127.0,128.0,127.0,130.0,20.0,-104.0,-79.0,127.0,127.0,127.0,111.0,84.0,-89.0
127.0,125.0,128.0,123.0,126.0,126.0,126.0,127.0,20.0,-104.0,-79.0,127.0,127.0,127.0,111.0,84.0,-89.0
127.0,124.0,130.0,122.0,126.0,128.0,126.0,126.0,20.0,-104.0,-79.0,127.0,127.0,127.0,111.0,84.0,-89.0
127.0,124.0,130.0,122.0,126.0,128.0,126.0,126.0,20.0,-104.0,-79.0,127.0,127.0,127.0,111.0,84.0,-89.0
127.0,125.0,130.0,122.0,127.0,129.0,126.0,127.0,20.0,-104.0,-79.0,127.0,127.0,127.0,111.0,84.0,-89.0
127.0,125.0,130.0,122.0,127.0,129.0,126.0,127.0,20.0,-104.0,-79.0,127.0,127.0,127.0,111.0,84.0,-89.0
127.0,125.0,130.0,122.0,127.0,129.0,126.0,128.0,20.0,-104.0,-79.0,127.0,127.0,127.0,111.0,84.0,-89.0
127.0,126.0,130.0,122.0,127.0,128.0,126.0,128.0,20.0,-104.0,-79.0,127.0,127.0,127.0,111.0,84.0,-89.0
127.0,126.0,131.0,123.0,127.0,128.0,127.0,128.0,20.0,-104.0,-79.0,127.0,127.0,127.0,111.0,84.0,-89.0
128.0,126.0,131.0,123.0,127.0,128.0,127.0,128.0,20.0,-104.0,-79.0,127.0,127.0,127.0,111.0,84.0,-89.0
127.0,124.0,129.0,122.0,126.0,128.0,126.0,126.0,20.0,-104.0,-79.0,127.0,127.0,127.0,111.0,84.0,-89.0
127.0,124.0,129.0,122.0,126.0,127.0,126.0,126.0,20.0,-104.0,-79.0,127.0,127.0,127.0,111.0,84.0,-89.0
127.0,125.0,130.0,122.0,126.0,127.0,127.0,123.0,20.0,-104.0,-80.0,127.0,127.0,127.0,111.0,84.0,-89.0
127.0,126.0,130.0,122.0,127.0,128.0,127.0,124.0,20.0,-104.0,-80.0,127.0,127.0,127.0,111.0,84.0,-89.0
127.0,126.0,130.0,122.0,126.0,128.0,127.0,124.0,20.0,-104.0,-80.0,127.0,127.0,127.0,111.0,84.0,-89.0
127.0,125.0,130.0,122.0,126.0,128.0,127.0,125.0,20.0,-104.0,-80.0,127.0,127.0,127.0,111.0,84.0,-89.0
127.0,125.0,130.0,122.0,126.0,128.0,127.0,126.0,20.0,-104.0,-80.0,127.0,127.0,127.0,111.0,84.0,-89.0
127.0,125.0,130.0,122.0,126.0,128.0,127.0,127.0,20.0,-104.0,-80.0,127.0,127.0,127.0,111.0,84.0,-89.0
127.0,125.0,130.0,122.0,126.0,128.0,127.0,128.0,20.0,-104.0,-80.0,127.0,127.0,127.0,111.0,84.0,-89.0
127.0,125.0,131.0,123.0,126.0,127.0,127.0,125.0,20.0,-104.0,-80.0,127.0,127.0,127.0,111.0,84.0,-89.0
126.0,125.0,131.0,123.0,126.0,127.0,127.0,124.0,20.0,-104.0,-80.0,127.0,127.0,127.0,111.0,84.0,-89.0
126.0,125.0,131.0,123.0,126.0,127.0,127.0,123.0,20.0,-104.0,-80.0,127.0,127.0,127.0,111.0,84.0,-89.0
127.0,125.0,129.0,124.0,127.0,128.0,126.0,125.0,20.0,-104.0,-80.0,127.0,127.0,127.0,111.0,84.0,-89.0
127.0,125.0,129.0,123.0,127.0,128.0,126.0,125.0,20.0,-104.0,-80.0,127.0,127.0,127.0,111.0,84.0,-89.0
127.0,125.0,129.0,123.0,127.0,128.0,126.0,126.0,20.0,-104.0,-80.0,127.0,127.0,127.0,111.0,84.0,-89.0
127.0,125.0,129.0,122.0,127.0,128.0,126.0,126.0,20.0,-104.0,-80.0,127.0,127.0,127.0,111.0,84.0,-89.0
127.0,126.0,129.0,122.0,127.0,128.0,126.0,126.0,20.0,-104.0,-80.0,127.0,127.0,127.0,111.0,84.0,-89.0
127.0,126.0,129.0,122.0,127.0,128.0,126.0,126.0,20.0,-104.0,-80.0,127.0,127.0,127.0,111.0,84.0,-89.0
127.0,125.0,130.0,126.0,127.0,127.0,126.0,126.0,20.0,-104.0,-80.0,127.0,127.0,127.0,111.0,84.0,-89.0
127.0,125.0,130.0,125.0,127.0,127.0,126.0,126.0,20.0,-104.0,-80.0,127.0,127.0,127.0,111.0,84.0,-89.0
127.0,125.0,130.0,125.0,127.0,127.0,126.0,126.0,20.0,-104.0,-80.0,127.0,127.0,127.0,111.0,84.0,-89.0
127.0,125.0,130.0,124.0,127.0,127.0,126.0,125.0,20.0,-104.0,-80.0,127.0,127.0,127.0,111.0,84.0,-89.0
127.0,125.0,130.0,123.0,127.0,124.0,127.0,127.0,19.0,-104.0,-80.0,127.0,127.0,127.0,111.0,84.0,-89.0
127.0,125.0,130.0,123.0,127.0,124.0,127.0,127.0,19.0,-104.0,-80.0,127.0,127.0,127.0,111.0,84.0,-89.0
127.0,125.0,130.0,123.0,127.0,125.0,127.0,127.0,19.0,-104.0,-80.0,127.0,127.0,127.0,111.0,84.0,-89.0
127.0,125.0,130.0,124.0,127.0,126.0,127.0,127.0,19.0,-104.0,-80.0,127.0,127.0,127.0,111.0,84.0,-89.0
127.0,125.0,130.0,124.0,127.0,126.0,127.0,127.0,19.0,-104.0,-80.0,127.0,127.0,127.0,111.0,84.0,-89.0
128.0,125.0,129.0,124.0,127.0,124.0,127.0,129.0,19.0,-104.0,-80.0,127.0,127.0,127.0,111.0,84.0,-89.0
127.0,125.0,129.0,124.0,127.0,124.0,127.0,128.0,19.0,-104.0,-80.0,127.0,127.0,127.0,111.0,84.0,-89.0
127.0,125.0,129.0,124.0,127.0,124.0,127.0,128.0,19.0,-104.0,-80.0,127.0,127.0,127.0,111.0,84.0,-89.0
127.0,125.0,129.0,124.0,127.0,124.0,127.0,128.0,19.0,-104.0,-80.0,127.0,127.0,127.0,111.0,84.0,-89.0
127.0,125.0,130.0,124.0,127.0,124.0,127.0,128.0,19.0,-104.0,-80.0,127.0,127.0,127.0,111.0,84.0,-89.0
127.0,126.0,128.0,120.0,127.0,128.0,127.0,127.0,19.0,-104.0,-80.0,127.0,127.0,127.0,111.0,84.0,-89.0
127.0,126.0,128.0,120.0,127.0,128.0,127.0,127.0,19.0,-104.0,-80.0,127.0,127.0,127.0,111.0,84.0,-89.0
127.0,125.0,128.0,120.0,127.0,128.0,127.0,127.0,19.0,-104.0,-80.0,127.0,127.0,127.0,111.0,84.0,-89.0
127.0,125.0,127.0,120.0,127.0,128.0,127.0,127.0,19.0,-104.0,-80.0,127.0,127.0,127.0,111.0,84.0,-89.0
127.0,126.0,129.0,122.0,128.0,127.0,127.0,126.0,19.0,-104.0,-80.0,127.0,127.0,127.0,111.0,84.0,-89.0
127.0,126.0,128.0,122.0,128.0,128.0,127.0,126.0,19.0,-104.0,-80.0,127.0,127.0,127.0,111.0,84.0,-89.0
127.0,126.0,128.0,121.0,128.0,128.0,127.0,127.0,19.0,-104.0,-80.0,127.0,127.0,127.0,111.0,84.0,-89.0
127.0,126.0,128.0,121.0,128.0,128.0,127.0,127.0,19.0,-104.0,-80.0,127.0,127.0,127.0,111.0,84.0,-89.0
127.0,126.0,128.0,121.0,127.0,128.0,127.0,127.0,19.0,-104.0,-80.0,127.0,127.0,127.0,111.0,84.0,-89.0
127.0,125.0,128.0,120.0,127.0,128.0,127.0,127.0,19.0,-104.0,-80.0,127.0,127.0,127.0,111.0,84.0,-89.0
127.0,125.0,127.0,124.0,127.0,128.0,127.0,127.0,19.0,-104.0,-80.0,127.0,127.0,127.0,111.0,84.0,-89.0
127.0,126.0,127.0,124.0,127.0,127.0,127.0,127.0,19.0,-104.0,-80.0,127.0,127.0,127.0,111.0,84.0,-89.0
127.0,126.0,127.0,125.0,127.0,127.0,127.0,126.0,19.0,-104.0,-80.0,127.0,127.0,127.0,111.0,84.0,-89.0
128.0,125.0,127.0,119.0,127.0,127.0,127.0,129.0,19.0,-104.0,-80.0,127.0,127.0,127.0,111.0,84.0,-89.0
127.0,125.0,127.0,119.0,126.0,128.0,127.0,129.0,19.0,-104.0,-80.0,127.0,127.0,127.0,111.0,84.0,-89.0
127.0,125.0,127.0,119.0,127.0,128.0,127.0,129.0,19.0,-104.0,-80.0,127.0,127.0,127.0,111.0,84.0,-89.0
127.0,125.0,127.0,119.0,127.0,128.0,127.0,129.0,19.0,-104.0,-80.0,127.0,127.0,127.0,111.0,84.0,-89.0
127.0,125.0,127.0,120.0,127.0,128.0,127.0,129.0,19.0,-104.0,-80.0,127.0,127.0,127.0,111.0,84.0,-89.0
127.0,125.0,127.0,121.0,127.0,128.0,127.0,128.0,19.0,-104.0,-80.0,127.0,127.0,127.0,111.0,84.0,-89.0
127.0,125.0,127.0,122.0,127.0,128.0,127.0,128.0,19.0,-104.0,-80.0,127.0,127.0,127.0,111.0,84.0,-89.0
127.0,125.0,128.0,119.0,125.0,128.0,127.0,128.0,19.0,-104.0,-80.0,127.0,127.0,127.0,111.0,84.0,-89.0
128.0,126.0,127.0,123.0,126.0,127.0,127.0,130.0,19.0,-104.0,-80.0,127.0,127.0,127.0,111.0,84.0,-89.0
128.0,126.0,127.0,122.0,126.0,127.0,127.0,130.0,19.0,-104.0,-80.0,127.0,127.0,127.0,111.0,84.0,-89.0
128.0,126.0,127.0,121.0,126.0,128.0,126.0,129.0,19.0,-104.0,-80.0,127.0,127.0,127.0,111.0,84.0,-89.0
128.0,126.0,127.0,121.0,125.0,129.0,127.0,129.0,19.0,-104.0,-80.0,127.0,127.0,127.0,111.0,84.0,-89.0
127.0,126.0,127.0,120.0,125.0,129.0,127.0,129.0,19.0,-104.0,-80.0,127.0,127.0,127.0,111.0,84.0,-89.0
127.0,126.0,127.0,120.0,125.0,129.0,127.0,128.0,19.0,-104.0,-80.0,127.0,127.0,127.0,111.0,84.0,-89.0
127.0,126.0,127.0,119.0,125.0,129.0,127.0,128.0,19.0,-104.0,-80.0,127.0,127.0,127.0,111.0,84.0,-89.0
127.0,125.0,127.0,119.0,125.0,129.0,127.0,127.0,19.0,-104.0,-80.0,127.0,127.0,127.0,111.0,84.0,-89.0
127.0,125.0,128.0,119.0,125.0,128.0,127.0,127.0,19.0,-104.0,-80.0,127.0,127.0,127.0,111.0,84.0,-89.0
128.0,127.0,129.0,120.0,127.0,126.0,127.0,127.0,19.0,-104.0,-80.0,127.0,127.0,127.0,111.0,84.0,-89.0
128.0,127.0,129.0,118.0,127.0,126.0,127.0,126.0,19.0,-104.0,-80.0,127.0,127.0,127.0,111.0,84.0,-89.0
128.0,127.0,129.0,116.0,127.0,127.0,127.0,126.0,19.0,-104.0,-80.0,127.0,127.0,127.0,111.0,84.0,-89.0
128.0,127.0,128.0,114.0,127.0,128.0,127.0,127.0,19.0,-104.0,-80.0,127.0,127.0,127.0,111.0,84.0,-89.0
128.0,127.0,128.0,113.0,127.0,128.0,127.0,127.0,19.0,-104.0,-80.0,127.0,127.0,127.0,111.0,84.0,-89.0
128.0,126.0,128.0,112.0,127.0,128.0,127.0,128.0,19.0,-104.0,-80.0,127.0,127.0,127.0,111.0,84.0,-89.0
128.0,126.0,128.0,111.0,126.0,128.0,127.0,128.0,19.0,-104.0,-80.0,127.0,127.0,127.0,111.0,84.0,-89.0
128.0,126.0,127.0,111.0,126.0,128.0,127.0,128.0,19.0,-104.0,-80.0,127.0,127.0,127.0,111.0,84.0,-89.0
127.0,126.0,127.0,112.0,126.0,128.0,127.0,128.0,19.0,-104.0,-80.0,127.0,127.0,127.0,111.0,84.0,-89.0
127.0,125.0,127.0,114.0,126.0,128.0,127.0,128.0,19.0,-104.0,-80.0,127.0,127.0,127.0,111.0,84.0,-89.0
127.0,125.0,127.0,124.0,126.0,127.0,126.0,127.0,19.0,-104.0,-80.0,127.0,127.0,127.0,111.0,84.0,-89.0
127.0,125.0,127.0,124.0,126.0,128.0,126.0,126.0,19.0,-104.0,-80.0,127.0,127.0,127.0,111.0,84.0,-89.0
127.0,125.0,126.0,124.0,126.0,129.0,126.0,126.0,19.0,-104.0,-80.0,127.0,127.0,127.0,111.0,84.0,-89.0
127.0,125.0,126.0,123.0,126.0,129.0,126.0,126.0,19.0,-104.0,-80.0,127.0,127.0,127.0,111.0,84.0,-89.0
127.0,125.0,127.0,123.0,126.0,129.0,126.0,127.0,19.0,-104.0,-80.0,127.0,127.0,127.0,111.0,84.0,-89.0
127.0,125.0,127.0,123.0,126.0,129.0,127.0,127.0,19.0,-104.0,-80.0,127.0,127.0,127.0,111.0,84.0,-89.0
127.0,126.0,127.0,123.0,126.0,129.0,127.0,128.0,19.0,-104.0,-80.0,127.0,127.0,127.0,111.0,84.0,-89.0
127.0,125.0,127.0,123.0,126.0,129.0,127.0,128.0,19.0,-104.0,-80.0,127.0,127.0,127.0,111.0,84.0,-89.0
127.0,125.0,127.0,123.0,126.0,128.0,127.0,129.0,19.0,-104.0,-80.0,127.0,127.0,127.0,111.0,84.0,-89.0
127.0,125.0,127.0,124.0,126.0,127.0,126.0,127.0,19.0,-104.0,-80.0,127.0,127.0,127.0,111.0,84.0,-89.0
127.0,125.0,129.0,123.0,127.0,128.0,127.0,127.0,19.0,-104.0,-80.0,127.0,127.0,127.0,111.0,84.0,-89.0
127.0,125.0,129.0,123.0,127.0,129.0,127.0,127.0,19.0,-104.0,-80.0,127.0,127.0,127.0,111.0,84.0,-89.0
127.0,125.0,129.0,123.0,127.0,129.0,127.0,127.0,19.0,-104.0,-80.0,127.0,127.0,127.0,111.0,84.0,-89.0
127.0,125.0,129.0,123.0,127.0,129.0,127.0,127.0,19.0,-104.0,-80.0,127.0,127.0,127.0,111.0,84.0,-89.0
127.0,125.0,129.0,123.0,127.0,129.0,127.0,127.0,19.0,-104.0,-80.0,127.0,127.0,127.0,111.0,84.0,-89.0
127.0,125.0,129.0,122.0,127.0,129.0,127.0,127.0,19.0,-104.0,-80.0,127.0,127.0,127.0,111.0,84.0,-89.0
127.0,125.0,129.0,122.0,127.0,129.0,127.0,128.0,19.0,-104.0,-80.0,127.0,127.0,127.0,111.0,84.0,-89.0
127.0,125.0,129.0,122.0,127.0,129.0,127.0,128.0,19.0,-104.0,-80.0,127.0,127.0,127.0,111.0,84.0,-89.0
127.0,125.0,129.0,123.0,127.0,128.0,127.0,128.0,19.0,-104.0,-80.0,127.0,127.0,127.0,111.0,84.0,-89.0
127.0,125.0,129.0,123.0,127.0,128.0,127.0,127.0,19.0,-104.0,-80.0,127.0,127.0,127.0,111.0,84.0,-89.0
128.0,126.0,129.0,123.0,127.0,129.0,127.0,130.0,19.0,-104.0,-80.0,127.0,127.0,127.0,111.0,84.0,-89.0
128.0,126.0,129.0,123.0,127.0,129.0,127.0,130.0,19.0,-104.0,-80.0,127.0,127.0,127.0,111.0,84.0,-89.0
128.0,126.0,129.0,124.0,127.0,129.0,127.0,130.0,19.0,-104.0,-80.0,127.0,127.0,127.0,111.0,84.0,-89.0
128.0,126.0,129.0,124.0,127.0,129.0,127.0,129.0,19.0,-104.0,-80.0,127.0,127.0,127.0,111.0,84.0,-89.0
128.0,126.0,129.0,124.0,127.0,129.0,127.0,129.0,19.0,-104.0,-80.0,127.0,127.0,127.0,111.0,84.0,-89.0
127.0,126.0,129.0,124.0,127.0,129.0,127.0,129.0,19.0,-104.0,-80.0,127.0,127.0,127.0,111.0,84.0,-89.0
127.0,125.0,129.0,125.0,127.0,128.0,127.0,129.0,19.0,-104.0,-80.0,127.0,127.0,127.0,111.0,84.0,-89.0
128.0,126.0,130.0,122.0,127.0,127.0,127.0,131.0,19.0,-104.0,-80.0,127.0,127.0,127.0,111.0,84.0,-89.0
128.0,126.0,130.0,122.0,127.0,128.0,127.0,131.0,19.0,-104.0,-80.0,127.0,127.0,127.0,111.0,84.0,-89.0
128.0,126.0,130.0,122.0,127.0,128.0,127.0,130.0,19.0,-104.0,-80.0,127.0,127.0,127.0,111.0,84.0,-89.0
126.0,124.0,129.0,124.0,126.0,126.0,126.0,121.0,19.0,-104.0,-80.0,127.0,127.0,127.0,111.0,84.0,-89.0
126.0,124.0,129.0,123.0,126.0,126.0,126.0,121.0,19.0,-104.0,-80.0,127.0,127.0,127.0,111.0,84.0,-89.0
126.0,124.0,128.0,123.0,126.0,127.0,126.0,122.0,19.0,-104.0,-80.0,127.0,127.0,127.0,111.0,84.0,-89.0
126.0,125.0,128.0,122.0,126.0,128.0,126.0,123.0,19.0,-104.0,-80.0,127.0,127.0,127.0,111.0,84.0,-89.0
126.0,124.0,128.0,122.0,125.0,128.0,126.0,124.0,19.0,-104.0,-80.0,127.0,127.0,127.0,111.0,84.0,-89.0
127.0,124.0,128.0,121.0,125.0,128.0,126.0,125.0,19.0,-104.0,-80.0,127.0,127.0,127.0,111.0,84.0,-89.0
127.0,125.0,129.0,124.0,127.0,126.0,127.0,122.0,19.0,-104.0,-80.0,127.0,127.0,127.0,111.0,84.0,-89.0
127.0,125.0,129.0,124.0,127.0,126.0,126.0,122.0,19.0,-104.0,-80.0,127.0,127.0,127.0,111.0,84.0,-89.0
126.0,125.0,129.0,124.0,126.0,126.0,126.0,121.0,19.0,-104.0,-80.0,127.0,127.0,127.0,111.0,84.0,-89.0
126.0,124.0,129.0,124.0,126.0,126.0,126.0,121.0,19.0,-104.0,-80.0,127.0,127.0,127.0,111.0,84.0,-89.0
127.0,126.0,130.0,123.0,128.0,129.0,127.0,129.0,19.0,-104.0,-80.0,127.0,127.0,127.0,111.0,84.0,-89.0
127.0,126.0,130.0,123.0,128.0,129.0,127.0,129.0,19.0,-104.0,-80.0,127.0,127.0,127.0,111.0,84.0,-89.0
127.0,126.0,130.0,124.0,128.0,129.0,127.0,129.0,19.0,-104.0,-80.0,127.0,127.0,127.0,111.0,84.0,-89.0
127.0,126.0,130.0,124.0,128.0,129.0,127.0,129.0,19.0,-104.0,-80.0,127.0,127.0,127.0,111.0,84.0,-89.0
127.0,126.0,131.0,124.0,128.0,128.0,127.0,129.0,19.0,-104.0,-80.0,127.0,127.0,127.0,111.0,84.0,-89.0
127.0,125.0,130.0,121.0,127.0,128.0,127.0,127.0,19.0,-104.0,-80.0,127.0,127.0,127.0,111.0,84.0,-89.0
127.0,126.0,131.0,122.0,128.0,128.0,127.0,127.0,19.0,-104.0,-80.0,127.0,127.0,127.0,111.0,84.0,-89.0
127.0,126.0,131.0,122.0,128.0,128.0,127.0,128.0,19.0,-104.0,-80.0,127.0,127.0,127.0,111.0,84.0,-89.0
127.0,126.0,130.0,123.0,128.0,129.0,127.0,129.0,19.0,-104.0,-80.0,127.0,127.0,127.0,111.0,84.0,-89.0
127.0,126.0,130.0,123.0,128.0,130.0,127.0,129.0,19.0,-104.0,-80.0,127.0,127.0,127.0,111.0,84.0,-89.0
127.0,125.0,134.0,124.0,126.0,128.0,126.0,127.0,19.0,-104.0,-80.0,127.0,127.0,127.0,111.0,84.0,-89.0
127.0,125.0,135.0,124.0,126.0,128.0,126.0,127.0,19.0,-104.0,-80.0,127.0,127.0,127.0,111.0,84.0,-89.0
127.0,126.0,135.0,124.0,126.0,128.0,127.0,127.0,19.0,-104.0,-80.0,127.0,127.0,127.0,111.0,84.0,-89.0
127.0,126.0,135.0,123.0,126.0,127.0,127.0,127.0,19.0,-104.0,-80.0,127.0,127.0,127.0,111.0,84.0,-89.0
127.0,125.0,133.0,123.0,126.0,126.0,126.0,126.0,19.0,-104.0,-80.0,127.0,127.0,127.0,111.0,84.0,-89.0
127.0,125.0,134.0,124.0,126.0,126.0,126.0,126.0,19.0,-104.0,-80.0,127.0,127.0,127.0,111.0,84.0,-89.0
127.0,125.0,134.0,124.0,126.0,126.0,126.0,126.0,19.0,-104.0,-80.0,127.0,127.0,127.0,111.0,84.0,-89.0
127.0,125.0,134.0,124.0,126.0,127.0,126.0,126.0,19.0,-104.0,-80.0,127.0,127.0,127.0,111.0,84.0,-89.0
127.0,125.0,134.0,124.0,126.0,128.0,126.0,127.0,19.0,-104.0,-80.0,127.0,127.0,127.0,111.0,84.0,-89.0
127.0,125.0,134.0,124.0,126.0,128.0,126.0,127.0,19.0,-104.0,-80.0,127.0,127.0,127.0,111.0,84.0,-89.0
127.0,126.0,141.0,128.0,127.0,128.0,126.0,128.0,19.0,-104.0,-80.0,127.0,127.0,127.0,111.0,84.0,-89.0
127.0,126.0,141.0,127.0,127.0,128.0,126.0,127.0,19.0,-104.0,-80.0,127.0,127.0,127.0,111.0,84.0,-89.0
127.0,126.0,141.0,126.0,127.0,127.0,126.0,127.0,19.0,-104.0,-80.0,127.0,127.0,127.0,111.0,84.0,-89.0
127.0,125.0,139.0,124.0,126.0,127.0,126.0,127.0,19.0,-104.0,-80.0,127.0,127.0,127.0,111.0,84.0,-89.0
127.0,125.0,139.0,125.0,126.0,127.0,126.0,127.0,19.0,-104.0,-80.0,127.0,127.0,127.0,111.0,84.0,-89.0
127.0,125.0,139.0,126.0,126.0,127.0,126.0,127.0,19.0,-104.0,-80.0,127.0,127.0,127.0,111.0,84.0,-89.0
127.0,125.0,139.0,127.0,126.0,128.0,126.0,127.0,19.0,-104.0,-80.0,127.0,127.0,127.0,111.0,84.0,-89.0
127.0,126.0,139.0,128.0,126.0,128.0,126.0,128.0,19.0,-104.0,-80.0,127.0,127.0,127.0,111.0,84.0,-89.0
127.0,126.0,140.0,128.0,127.0,128.0,126.0,128.0,19.0,-104.0,-80.0,127.0,127.0,127.0,111.0,84.0,-89.0
127.0,126.0,140.0,128.0,127.0,128.0,126.0,128.0,19.0,-104.0,-80.0,127.0,127.0,127.0,111.0,84.0,-89.0
127.0,127.0,142.0,122.0,127.0,127.0,127.0,128.0,19.0,-104.0,-80.0,127.0,127.0,127.0,111.0,84.0,-89.0
127.0,126.0,142.0,122.0,127.0,127.0,127.0,128.0,19.0,-104.0,-80.0,127.0,127.0,127.0,111.0,84.0,-89.0
127.0,126.0,143.0,124.0,127.0,125.0,127.0,128.0,19.0,-104.0,-80.0,127.0,127.0,127.0,111.0,84.0,-89.0
127.0,126.0,143.0,124.0,127.0,125.0,127.0,128.0,19.0,-104.0,-80.0,127.0,127.0,127.0,111.0,84.0,-89.0
127.0,126.0,143.0,124.0,127.0,125.0,127.0,128.0,19.0,-104.0,-80.0,127.0,127.0,127.0,111.0,84.0,-89.0
127.0,126.0,143.0,124.0,127.0,125.0,127.0,128.0,19.0,-104.0,-80.0,127.0,127.0,127.0,111.0,84.0,-89.0
127.0,126.0,142.0,124.0,127.0,126.0,126.0,128.0,19.0,-104.0,-80.0,127.0,127.0,127.0,111.0,84.0,-89.0
127.0,126.0,142.0,123.0,127.0,126.0,127.0,128.0,19.0,-104.0,-80.0,127.0,127.0,127.0,111.0,84.0,-89.0
127.0,126.0,142.0,122.0,127.0,126.0,126.0,128.0,19.0,-104.0,-80.0,127.0,127.0,127.0,111.0,84.0,-89.0
127.0,127.0,142.0,122.0,127.0,127.0,126.0,128.0,19.0,-104.0,-80.0,127.0,127.0,127.0,111.0,84.0,-89.0
128.0,126.0,139.0,123.0,127.0,121.0,128.0,131.0,19.0,-105.0,-80.0,127.0,127.0,127.0,111.0,84.0,-89.0
128.0,127.0,141.0,126.0,127.0,123.0,127.0,130.0,19.0,-105.0,-80.0,127.0,127.0,127.0,111.0,84.0,-89.0
128.0,127.0,141.0,125.0,127.0,123.0,127.0,131.0,19.0,-105.0,-80.0,127.0,127.0,127.0,111.0,84.0,-89.0
128.0,127.0,141.0,125.0,127.0,123.0,127.0,131.0,19.0,-105.0,-80.0,127.0,127.0,127.0,111.0,84.0,-89.0
128.0,127.0,140.0,124.0,127.0,122.0,127.0,131.0,19.0,-105.0,-80.0,127.0,127.0,127.0,111.0,84.0,-89.0
128.0,127.0,140.0,124.0,127.0,122.0,128.0,131.0,19.0,-105.0,-80.0,127.0,127.0,127.0,111.0,84.0,-89.0
128.0,127.0,140.0,123.0,127.0,122.0,128.0,131.0,19.0,-105.0,-80.0,127.0,127.0,127.0,111.0,84.0,-89.0
128.0,127.0,140.0,123.0,127.0,121.0,128.0,131.0,19.0,-105.0,-80.0,127.0,127.0,127.0,111.0,84.0,-89.0
128.0,127.0,139.0,123.0,127.0,121.0,128.0,131.0,19.0,-105.0,-80.0,127.0,127.0,127.0,111.0,84.0,-89.0
128.0,126.0,139.0,123.0,127.0,121.0,128.0,131.0,19.0,-105.0,-80.0,127.0,127.0,127.0,111.0,84.0,-89.0
127.0,125.0,131.0,120.0,126.0,121.0,127.0,125.0,19.0,-105.0,-80.0,127.0,127.0,127.0,111.0,84.0,-89.0
127.0,125.0,131.0,120.0,126.0,121.0,127.0,125.0,19.0,-105.0,-80.0,127.0,127.0,127.0,111.0,84.0,-89.0
127.0,125.0,131.0,120.0,126.0,121.0,127.0,125.0,19.0,-105.0,-80.0,127.0,127.0,127.0,111.0,84.0,-89.0
127.0,125.0,131.0,120.0,126.0,121.0,127.0,126.0,19.0,-105.0,-80.0,127.0,127.0,127.0,111.0,84.0,-89.0
127.0,125.0,131.0,120.0,126.0,120.0,127.0,126.0,19.0,-105.0,-80.0,127.0,127.0,127.0,111.0,84.0,-89.0
127.0,124.0,131.0,120.0,125.0,120.0,127.0,127.0,19.0,-105.0,-80.0,127.0,127.0,127.0,111.0,84.0,-89.0
127.0,124.0,131.0,121.0,125.0,120.0,127.0,127.0,19.0,-105.0,-80.0,127.0,127.0,127.0,111.0,84.0,-89.0
127.0,124.0,131.0,122.0,125.0,120.0,127.0,128.0,19.0,-105.0,-80.0,127.0,127.0,127.0,111.0,84.0,-89.0
127.0,124.0,131.0,123.0,125.0,119.0,127.0,128.0,19.0,-105.0,-80.0,127.0,127.0,127.0,111.0,84.0,-89.0
127.0,124.0,131.0,125.0,125.0,119.0,127.0,128.0,19.0,-105.0,-80.0,127.0,127.0,127.0,111.0,84.0,-89.0
128.0,126.0,130.0,127.0,128.0,121.0,127.0,129.0,19.0,-105.0,-80.0,127.0,127.0,127.0,111.0,84.0,-89.0
128.0,126.0,129.0,127.0,128.0,121.0,127.0,129.0,19.0,-105.0,-80.0,127.0,127.0,127.0,111.0,84.0,-89.0
128.0,126.0,129.0,127.0,128.0,121.0,127.0,129.0,19.0,-105.0,-80.0,127.0,127.0,127.0,111.0,84.0,-89.0
128.0,126.0,129.0,127.0,127.0,121.0,127.0,129.0,19.0,-105.0,-80.0,127.0,127.0,127.0,111.0,84.0,-89.0
128.0,125.0,129.0,127.0,127.0,121.0,127.0,128.0,19.0,-105.0,-80.0,127.0,127.0,127.0,111.0,84.0,-89.0
128.0,125.0,129.0,127.0,127.0,120.0,127.0,128.0,19.0,-105.0,-80.0,127.0,127.0,127.0,111.0,84.0,-89.0
128.0,125.0,129.0,126.0,127.0,120.0,127.0,128.0,19.0,-105.0,-80.0,127.0,127.0,127.0,111.0,84.0,-89.0
128.0,125.0,129.0,126.0,127.0,120.0,127.0,128.0,19.0,-105.0,-80.0,127.0,127.0,127.0,111.0,84.0,-89.0
128.0,125.0,129.0,126.0,127.0,120.0,127.0,128.0,19.0,-105.0,-80.0,127.0,127.0,127.0,111.0,84.0,-89.0
128.0,126.0,130.0,127.0,128.0,121.0,128.0,129.0,19.0,-105.0,-80.0,127.0,127.0,127.0,111.0,84.0,-89.0
128.0,125.0,126.0,122.0,126.0,123.0,127.0,129.0,20.0,-105.0,-79.0,127.0,127.0,127.0,111.0,84.0,-89.0
128.0,125.0,126.0,122.0,126.0,123.0,127.0,129.0,20.0,-105.0,-79.0,127.0,127.0,127.0,111.0,84.0,-89.0
128.0,125.0,126.0,122.0,126.0,123.0,127.0,129.0,20.0,-105.0,-79.0,127.0,127.0,127.0,111.0,84.0,-89.0
128.0,125.0,126.0,122.0,126.0,123.0,127.0,129.0,20.0,-105.0,-79.0,127.0,127.0,127.0,111.0,84.0,-89.0
128.0,125.0,126.0,122.0,127.0,123.0,127.0,129.0,20.0,-105.0,-79.0,127.0,127.0,127.0,111.0,84.0,-89.0
128.0,125.0,126.0,122.0,127.0,124.0,127.0,129.0,20.0,-105.0,-79.0,127.0,127.0,127.0,111.0,84.0,-89.0
128.0,126.0,126.0,123.0,127.0,124.0,127.0,129.0,20.0,-105.0,-79.0,127.0,127.0,127.0,111.0,84.0,-89.0
128.0,125.0,126.0,123.0,127.0,125.0,127.0,129.0,20.0,-105.0,-79.0,127.0,127.0,127.0,111.0,84.0,-89.0
128.0,125.0,127.0,122.0,126.0,121.0,127.0,129.0,20.0,-105.0,-79.0,127.0,127.0,127.0,111.0,84.0,-89.0
128.0,125.0,126.0,122.0,126.0,123.0,127.0,129.0,20.0,-105.0,-79.0,127.0,127.0,127.0,111.0,84.0,-89.0
127.0,125.0,122.0,123.0,126.0,127.0,126.0,124.0,20.0,-105.0,-79.0,127.0,127.0,127.0,111.0,84.0,-89.0
127.0,125.0,122.0,123.0,126.0,127.0,126.0,124.0,20.0,-105.0,-79.0,127.0,127.0,127.0,111.0,84.0,-89.0
127.0,125.0,122.0,123.0,126.0,126.0,126.0,124.0,20.0,-105.0,-79.0,127.0,127.0,127.0,111.0,84.0,-89.0
127.0,125.0,122.0,123.0,126.0,126.0,126.0,124.0,20.0,-105.0,-79.0,127.0,127.0,127.0,111.0,84.0,-89.0
127.0,125.0,122.0,122.0,126.0,127.0,126.0,125.0,20.0,-105.0,-79.0,127.0,127.0,127.0,111.0,84.0,-89.0
127.0,125.0,122.0,122.0,126.0,128.0,127.0,126.0,20.0,-105.0,-79.0,127.0,127.0,127.0,111.0,84.0,-89.0
127.0,125.0,122.0,122.0,126.0,128.0,127.0,127.0,20.0,-105.0,-79.0,127.0,127.0,127.0,111.0,84.0,-89.0
127.0,125.0,123.0,123.0,126.0,125.0,127.0,124.0,20.0,-105.0,-79.0,127.0,127.0,127.0,111.0,84.0,-89.0
127.0,125.0,122.0,123.0,126.0,127.0,126.0,124.0,20.0,-105.0,-79.0,127.0,127.0,127.0,111.0,84.0,-89.0
127.0,125.0,122.0,123.0,126.0,127.0,126.0,124.0,20.0,-105.0,-79.0,127.0,127.0,127.0,111.0,84.0,-89.0
127.0,126.0,127.0,124.0,127.0,128.0,127.0,128.0,19.0,-105.0,-79.0,127.0,127.0,127.0,111.0,84.0,-89.0
127.0,125.0,127.0,124.0,127.0,127.0,128.0,128.0,19.0,-105.0,-79.0,127.0,127.0,127.0,111.0,84.0,-89.0
127.0,126.0,127.0,124.0,127.0,127.0,128.0,128.0,19.0,-105.0,-79.0,127.0,127.0,127.0,111.0,84.0,-89.0
127.0,125.0,128.0,125.0,127.0,127.0,128.0,128.0,19.0,-105.0,-79.0,127.0,127.0,127.0,111.0,84.0,-89.0
127.0,125.0,128.0,125.0,127.0,126.0,128.0,128.0,19.0,-105.0,-79.0,127.0,127.0,127.0,111.0,84.0,-89.0
127.0,125.0,128.0,125.0,127.0,126.0,128.0,128.0,19.0,-105.0,-79.0,127.0,127.0,127.0,111.0,84.0,-89.0
127.0,125.0,127.0,127.0,126.0,129.0,127.0,128.0,19.0,-105.0,-79.0,127.0,127.0,127.0,111.0,84.0,-89.0
127.0,125.0,127.0,126.0,126.0,128.0,127.0,128.0,19.0,-105.0,-79.0,127.0,127.0,127.0,111.0,84.0,-89.0
127.0,126.0,127.0,125.0,127.0,128.0,127.0,128.0,19.0,-105.0,-79.0,127.0,127.0,127.0,111.0,84.0,-89.0
127.0,126.0,127.0,125.0,127.0,128.0,127.0,128.0,19.0,-105.0,-79.0,127.0,127.0,127.0,111.0,84.0,-89.0
127.0,125.0,125.0,123.0,127.0,129.0,127.0,128.0,19.0,-105.0,-79.0,127.0,127.0,127.0,111.0,84.0,-89.0
127.0,125.0,125.0,123.0,127.0,129.0,127.0,128.0,19.0,-105.0,-79.0,127.0,127.0,127.0,111.0,84.0,-89.0
127.0,125.0,125.0,124.0,127.0,129.0,127.0,128.0,19.0,-105.0,-79.0,127.0,127.0,127.0,111.0,84.0,-89.0
127.0,125.0,125.0,124.0,127.0,128.0,127.0,128.0,19.0,-105.0,-79.0,127.0,127.0,127.0,111.0,84.0,-89.0
127.0,124.0,125.0,124.0,127.0,128.0,127.0,128.0,19.0,-105.0,-79.0,127.0,127.0,127.0,111.0,84.0,-89.0
127.0,125.0,126.0,124.0,128.0,128.0,127.0,128.0,19.0,-105.0,-79.0,127.0,127.0,127.0,111.0,84.0,-89.0
127.0,126.0,126.0,124.0,128.0,129.0,127.0,128.0,19.0,-105.0,-79.0,127.0,127.0,127.0,111.0,84.0,-89.0
127.0,126.0,126.0,124.0,128.0,130.0,127.0,128.0,19.0,-105.0,-79.0,127.0,127.0,127.0,111.0,84.0,-89.0
127.0,126.0,126.0,124.0,128.0,130.0,127.0,128.0,19.0,-105.0,-79.0,127.0,127.0,127.0,111.0,84.0,-89.0
127.0,125.0,125.0,124.0,127.0,129.0,127.0,128.0,19.0,-105.0,-79.0,127.0,127.0,127.0,111.0,84.0,-89.0
127.0,125.0,125.0,124.0,126.0,128.0,127.0,129.0,19.0,-106.0,-79.0,127.0,127.0,127.0,111.0,84.0,-89.0
127.0,125.0,125.0,125.0,126.0,127.0,127.0,129.0,19.0,-106.0,-79.0,127.0,127.0,127.0,111.0,84.0,-89.0
127.0,125.0,125.0,125.0,126.0,127.0,127.0,129.0,19.0,-106.0,-79.0,127.0,127.0,127.0,111.0,84.0,-89.0
127.0,125.0,125.0,125.0,126.0,127.0,127.0,129.0,19.0,-106.0,-79.0,127.0,127.0,127.0,111.0,84.0,-89.0
127.0,125.0,124.0,123.0,126.0,127.0,127.0,126.0,19.0,-106.0,-79.0,127.0,127.0,127.0,111.0,84.0,-89.0
127.0,125.0,124.0,123.0,126.0,127.0,127.0,126.0,19.0,-106.0,-79.0,127.0,127.0,127.0,111.0,84.0,-89.0
127.0,126.0,124.0,124.0,126.0,128.0,127.0,126.0,19.0,-106.0,-79.0,127.0,127.0,127.0,111.0,84.0,-89.0
127.0,125.0,124.0,124.0,126.0,128.0,127.0,127.0,19.0,-106.0,-79.0,127.0,127.0,127.0,111.0,84.0,-89.0
127.0,125.0,124.0,124.0,126.0,128.0,127.0,128.0,19.0,-106.0,-79.0,127.0,127.0,127.0,111.0,84.0,-89.0
127.0,125.0,125.0,124.0,126.0,128.0,127.0,128.0,19.0,-106.0,-79.0,127.0,127.0,127.0,111.0,84.0,-89.0
127.0,126.0,124.0,126.0,126.0,128.0,127.0,128.0,19.0,-106.0,-79.0,127.0,127.0,127.0,111.0,84.0,-89.0
127.0,126.0,124.0,126.0,126.0,128.0,127.0,128.0,19.0,-106.0,-79.0,127.0,127.0,127.0,111.0,84.0,-89.0
127.0,126.0,124.0,125.0,126.0,126.0,127.0,127.0,19.0,-106.0,-79.0,127.0,127.0,127.0,111.0,84.0,-89.0
127.0,126.0,124.0,126.0,126.0,126.0,127.0,127.0,19.0,-106.0,-79.0,127.0,127.0,127.0,111.0,84.0,-89.0
127.0,126.0,124.0,126.0,126.0,127.0,127.0,127.0,19.0,-106.0,-79.0,127.0,127.0,127.0,111.0,84.0,-89.0
127.0,126.0,124.0,126.0,126.0,128.0,127.0,127.0,19.0,-106.0,-79.0,127.0,127.0,127.0,111.0,84.0,-89.0
127.0,126.0,124.0,126.0,126.0,128.0,127.0,127.0,19.0,-106.0,-79.0,127.0,127.0,127.0,111.0,84.0,-89.0
127.0,126.0,124.0,126.0,126.0,128.0,127.0,127.0,19.0,-106.0,-79.0,127.0,127.0,127.0,111.0,84.0,-89.0
127.0,126.0,124.0,126.0,126.0,128.0,127.0,127.0,19.0,-106.0,-79.0,127.0,127.0,127.0,111.0,84.0,-89.0
127.0,126.0,124.0,126.0,126.0,128.0,127.0,128.0,19.0,-106.0,-79.0,127.0,127.0,127.0,111.0,84.0,-89.0
127.0,127.0,125.0,122.0,126.0,129.0,127.0,128.0,19.0,-106.0,-79.0,127.0,127.0,127.0,111.0,84.0,-89.0
127.0,127.0,125.0,122.0,126.0,128.0,127.0,128.0,19.0,-106.0,-79.0,127.0,127.0,127.0,111.0,84.0,-89.0
127.0,127.0,125.0,123.0,126.0,128.0,127.0,128.0,19.0,-106.0,-79.0,127.0,127.0,127.0,111.0,84.0,-89.0
127.0,127.0,125.0,123.0,126.0,128.0,127.0,128.0,19.0,-106.0,-79.0,127.0,127.0,127.0,111.0,84.0,-89.0
127.0,127.0,125.0,123.0,126.0,130.0,127.0,128.0,19.0,-106.0,-79.0,127.0,127.0,127.0,111.0,84.0,-89.0
127.0,127.0,125.0,123.0,126.0,130.0,127.0,128.0,19.0,-106.0,-79.0,127.0,127.0,127.0,111.0,84.0,-89.0
127.0,127.0,125.0,123.0,126.0,130.0,127.0,128.0,19.0,-106.0,-79.0,127.0,127.0,127.0,111.0,84.0,-89.0
127.0,127.0,125.0,123.0,126.0,130.0,127.0,128.0,19.0,-106.0,-79.0,127.0,127.0,127.0,111.0,84.0,-89.0
127.0,127.0,125.0,123.0,126.0,130.0,127.0,128.0,19.0,-106.0,-79.0,127.0,127.0,127.0,111.0,84.0,-89.0
127.0,127.0,125.0,123.0,126.0,129.0,127.0,128.0,19.0,-106.0,-79.0,127.0,127.0,127.0,111.0,84.0,-89.0
126.0,127.0,128.0,120.0,126.0,129.0,127.0,128.0,19.0,-106.0,-80.0,127.0,127.0,127.0,111.0,84.0,-89.0
126.0,127.0,129.0,121.0,126.0,129.0,127.0,128.0,19.0,-106.0,-80.0,127.0,127.0,127.0,111.0,84.0,-89.0
126.0,126.0,129.0,120.0,126.0,129.0,127.0,128.0,19.0,-106.0,-80.0,127.0,127.0,127.0,111.0,84.0,-89.0
126.0,127.0,128.0,121.0,126.0,131.0,127.0,128.0,19.0,-106.0,-80.0,127.0,127.0,127.0,111.0,84.0,-89.0
126.0,127.0,128.0,121.0,126.0,131.0,127.0,128.0,19.0,-106.0,-80.0,127.0,127.0,127.0,111.0,84.0,-89.0
126.0,127.0,129.0,121.0,126.0,130.0,127.0,128.0,19.0,-106.0,-80.0,127.0,127.0,127.0,111.0,84.0,-89.0
126.0,127.0,129.0,121.0,126.0,132.0,127.0,128.0,19.0,-106.0,-80.0,127.0,127.0,127.0,111.0,84.0,-89.0
126.0,127.0,129.0,121.0,126.0,132.0,127.0,129.0,19.0,-106.0,-80.0,127.0,127.0,127.0,111.0,84.0,-89.0
126.0,127.0,129.0,121.0,126.0,132.0,127.0,128.0,19.0,-106.0,-80.0,127.0,127.0,127.0,111.0,84.0,-89.0
126.0,127.0,129.0,121.0,126.0,133.0,127.0,128.0,19.0,-106.0,-80.0,127.0,127.0,127.0,111.0,84.0,-89.0
127.0,126.0,128.0,117.0,125.0,127.0,127.0,128.0,19.0,-106.0,-80.0,127.0,127.0,127.0,111.0,84.0,-89.0
127.0,126.0,128.0,117.0,125.0,127.0,127.0,128.0,19.0,-106.0,-80.0,127.0,127.0,127.0,111.0,84.0,-89.0
127.0,126.0,128.0,117.0,125.0,127.0,127.0,128.0,19.0,-106.0,-80.0,127.0,127.0,127.0,111.0,84.0,-89.0
127.0,126.0,128.0,117.0,125.0,127.0,127.0,128.0,19.0,-106.0,-80.0,127.0,127.0,127.0,111.0,84.0,-89.0
127.0,126.0,128.0,117.0,126.0,127.0,127.0,128.0,19.0,-106.0,-80.0,127.0,127.0,127.0,111.0,84.0,-89.0
127.0,125.0,128.0,117.0,126.0,127.0,127.0,128.0,19.0,-106.0,-80.0,127.0,127.0,127.0,111.0,84.0,-89.0
127.0,125.0,128.0,117.0,126.0,127.0,126.0,128.0,19.0,-106.0,-80.0,127.0,127.0,127.0,111.0,84.0,-89.0
127.0,125.0,128.0,117.0,126.0,127.0,127.0,128.0,19.0,-106.0,-80.0,127.0,127.0,127.0,111.0,84.0,-89.0
127.0,125.0,128.0,117.0,126.0,127.0,126.0,128.0,19.0,-106.0,-80.0,127.0,127.0,127.0,111.0,84.0,-89.0
127.0,126.0,129.0,117.0,125.0,127.0,126.0,128.0,19.0,-106.0,-80.0,127.0,127.0,127.0,111.0,84.0,-89.0
128.0,126.0,125.0,117.0,126.0,128.0,127.0,128.0,19.0,-106.0,-80.0,127.0,127.0,127.0,111.0,84.0,-89.0
128.0,127.0,125.0,117.0,126.0,129.0,126.0,128.0,19.0,-106.0,-80.0,127.0,127.0,127.0,111.0,84.0,-89.0
128.0,127.0,125.0,117.0,126.0,130.0,127.0,128.0,19.0,-106.0,-80.0,127.0,127.0,127.0,111.0,84.0,-89.0
128.0,127.0,125.0,117.0,126.0,130.0,127.0,128.0,19.0,-106.0,-80.0,127.0,127.0,127.0,111.0,84.0,-89.0
128.0,127.0,125.0,117.0,126.0,129.0,127.0,128.0,19.0,-106.0,-80.0,127.0,127.0,127.0,111.0,84.0,-89.0
128.0,127.0,125.0,117.0,126.0,129.0,127.0,128.0,19.0,-106.0,-80.0,127.0,127.0,127.0,111.0,84.0,-89.0
128.0,127.0,125.0,117.0,126.0,129.0,127.0,128.0,19.0,-106.0,-80.0,127.0,127.0,127.0,111.0,84.0,-89.0
128.0,128.0,125.0,117.0,126.0,130.0,127.0,128.0,19.0,-106.0,-80.0,127.0,127.0,127.0,111.0,84.0,-89.0
128.0,126.0,125.0,117.0,126.0,128.0,127.0,128.0,19.0,-106.0,-80.0,127.0,127.0,127.0,111.0,84.0,-89.0
128.0,126.0,125.0,117.0,126.0,128.0,127.0,128.0,19.0,-106.0,-80.0,127.0,127.0,127.0,111.0,84.0,-89.0
128.0,127.0,122.0,116.0,126.0,133.0,127.0,129.0,19.0,-106.0,-80.0,127.0,127.0,127.0,111.0,84.0,-89.0
128.0,127.0,122.0,116.0,126.0,133.0,127.0,128.0,19.0,-106.0,-80.0,127.0,127.0,127.0,111.0,84.0,-89.0
128.0,127.0,122.0,116.0,126.0,133.0,127.0,128.0,19.0,-106.0,-80.0,127.0,127.0,127.0,111.0,84.0,-89.0
128.0,127.0,122.0,116.0,126.0,132.0,127.0,129.0,19.0,-106.0,-80.0,127.0,127.0,127.0,111.0,84.0,-89.0
128.0,127.0,122.0,116.0,126.0,132.0,127.0,129.0,19.0,-106.0,-80.0,127.0,127.0,127.0,111.0,84.0,-89.0
128.0,127.0,122.0,115.0,126.0,132.0,127.0,129.0,19.0,-106.0,-80.0,127.0,127.0,127.0,111.0,84.0,-89.0
128.0,126.0,123.0,115.0,126.0,132.0,127.0,129.0,19.0,-106.0,-80.0,127.0,127.0,127.0,111.0,84.0,-89.0
128.0,128.0,122.0,117.0,126.0,134.0,127.0,128.0,19.0,-106.0,-80.0,127.0,127.0,127.0,111.0,84.0,-89.0
128.0,128.0,122.0,117.0,126.0,133.0,127.0,129.0,19.0,-106.0,-80.0,127.0,127.0,127.0,111.0,84.0,-89.0
128.0,128.0,122.0,116.0,126.0,133.0,127.0,129.0,19.0,-106.0,-80.0,127.0,127.0,127.0,111.0,84.0,-89.0
128.0,126.0,123.0,119.0,126.0,136.0,127.0,128.0,19.0,-105.0,-81.0,127.0,127.0,127.0,111.0,84.0,-89.0
128.0,126.0,123.0,119.0,126.0,136.0,127.0,128.0,19.0,-105.0,-81.0,127.0,127.0,127.0,111.0,84.0,-89.0
128.0,126.0,124.0,119.0,126.0,136.0,127.0,128.0,19.0,-105.0,-81.0,127.0,127.0,127.0,111.0,84.0,-89.0
128.0,126.0,124.0,119.0,126.0,135.0,127.0,128.0,19.0,-105.0,-81.0,127.0,127.0,127.0,111.0,84.0,-89.0
128.0,126.0,124.0,119.0,126.0,135.0,127.0,128.0,19.0,-105.0,-81.0,127.0,127.0,127.0,111.0,84.0,-89.0
128.0,126.0,124.0,119.0,126.0,135.0,127.0,128.0,19.0,-105.0,-81.0,127.0,127.0,127.0,111.0,84.0,-89.0
127.0,126.0,122.0,118.0,126.0,137.0,127.0,128.0,19.0,-105.0,-81.0,127.0,127.0,127.0,111.0,84.0,-89.0
127.0,126.0,122.0,118.0,126.0,137.0,127.0,128.0,19.0,-105.0,-81.0,127.0,127.0,127.0,111.0,84.0,-89.0
127.0,126.0,123.0,119.0,126.0,137.0,127.0,128.0,19.0,-105.0,-81.0,127.0,127.0,127.0,111.0,84.0,-89.0
128.0,126.0,123.0,119.0,126.0,137.0,127.0,128.0,19.0,-105.0,-81.0,127.0,127.0,127.0,111.0,84.0,-89.0
128.0,126.0,121.0,118.0,126.0,137.0,127.0,128.0,18.0,-105.0,-81.0,127.0,127.0,127.0,111.0,84.0,-89.0
128.0,125.0,121.0,118.0,126.0,137.0,127.0,128.0,18.0,-105.0,-81.0,127.0,127.0,127.0,111.0,84.0,-89.0
128.0,125.0,121.0,118.0,126.0,137.0,127.0,128.0,18.0,-105.0,-81.0,127.0,127.0,127.0,111.0,84.0,-89.0
128.0,125.0,121.0,118.0,126.0,137.0,127.0,128.0,18.0,-105.0,-81.0,127.0,127.0,127.0,111.0,84.0,-89.0
128.0,125.0,121.0,118.0,126.0,137.0,127.0,128.0,18.0,-105.0,-81.0,127.0,127.0,127.0,111.0,84.0,-89.0
128.0,126.0,121.0,118.0,126.0,138.0,127.0,128.0,18.0,-105.0,-81.0,127.0,127.0,127.0,111.0,84.0,-89.0
128.0,126.0,121.0,118.0,126.0,138.0,127.0,128.0,18.0,-105.0,-81.0,127.0,127.0,127.0,111.0,84.0,-89.0
128.0,126.0,121.0,118.0,126.0,138.0,127.0,128.0,18.0,-105.0,-81.0,127.0,127.0,127.0,111.0,84.0,-89.0
128.0,126.0,121.0,118.0,126.0,138.0,127.0,128.0,18.0,-105.0,-81.0,127.0,127.0,127.0,111.0,84.0,-89.0
128.0,126.0,121.0,118.0,126.0,137.0,127.0,128.0,18.0,-105.0,-81.0,127.0,127.0,127.0,111.0,84.0,-89.0
128.0,125.0,122.0,120.0,126.0,141.0,127.0,128.0,18.0,-105.0,-80.0,127.0,127.0,127.0,111.0,84.0,-89.0
128.0,125.0,122.0,120.0,126.0,141.0,127.0,128.0,18.0,-105.0,-80.0,127.0,127.0,127.0,111.0,84.0,-89.0
128.0,125.0,122.0,120.0,126.0,141.0,127.0,128.0,18.0,-105.0,-80.0,127.0,127.0,127.0,111.0,84.0,-89.0
128.0,125.0,123.0,120.0,126.0,141.0,127.0,128.0,18.0,-105.0,-80.0,127.0,127.0,127.0,111.0,84.0,-89.0
128.0,126.0,121.0,120.0,127.0,142.0,127.0,128.0,18.0,-105.0,-80.0,127.0,127.0,127.0,111.0,84.0,-89.0
128.0,126.0,121.0,120.0,126.0,142.0,127.0,128.0,18.0,-105.0,-80.0,127.0,127.0,127.0,111.0,84.0,-89.0
128.0,126.0,121.0,120.0,126.0,142.0,127.0,128.0,18.0,-105.0,-80.0,127.0,127.0,127.0,111.0,84.0,-89.0
128.0,125.0,121.0,120.0,126.0,142.0,127.0,128.0,18.0,-105.0,-80.0,127.0,127.0,127.0,111.0,84.0,-89.0
128.0,125.0,122.0,120.0,126.0,142.0,127.0,128.0,18.0,-105.0,-80.0,127.0,127.0,127.0,111.0,84.0,-89.0
128.0,125.0,122.0,120.0,126.0,142.0,127.0,128.0,18.0,-105.0,-80.0,127.0,127.0,127.0,111.0,84.0,-89.0
128.0,125.0,123.0,127.0,126.0,144.0,127.0,128.0,18.0,-105.0,-80.0,127.0,127.0,127.0,111.0,84.0,-89.0
128.0,125.0,123.0,127.0,126.0,143.0,127.0,128.0,18.0,-105.0,-80.0,127.0,127.0,127.0,111.0,84.0,-89.0
128.0,125.0,123.0,127.0,126.0,143.0,127.0,128.0,18.0,-105.0,-80.0,127.0,127.0,127.0,111.0,84.0,-89.0
128.0,125.0,122.0,125.0,126.0,145.0,127.0,128.0,18.0,-105.0,-80.0,127.0,127.0,127.0,111.0,84.0,-89.0
128.0,125.0,122.0,125.0,126.0,145.0,127.0,128.0,18.0,-105.0,-80.0,127.0,127.0,127.0,111.0,84.0,-89.0
128.0,125.0,122.0,126.0,126.0,145.0,127.0,128.0,18.0,-105.0,-80.0,127.0,127.0,127.0,111.0,84.0,-89.0
128.0,125.0,122.0,126.0,126.0,145.0,127.0,128.0,18.0,-105.0,-80.0,127.0,127.0,127.0,111.0,84.0,-89.0
128.0,125.0,122.0,126.0,126.0,144.0,127.0,128.0,18.0,-105.0,-80.0,127.0,127.0,127.0,111.0,84.0,-89.0
128.0,125.0,122.0,126.0,126.0,144.0,127.0,128.0,18.0,-105.0,-80.0,127.0,127.0,127.0,111.0,84.0,-89.0
128.0,125.0,123.0,127.0,126.0,144.0,127.0,128.0,18.0,-105.0,-80.0,127.0,127.0,127.0,111.0,84.0,-89.0
128.0,125.0,122.0,130.0,126.0,145.0,127.0,128.0,18.0,-105.0,-80.0,127.0,127.0,127.0,111.0,84.0,-89.0
128.0,125.0,122.0,130.0,126.0,145.0,127.0,128.0,18.0,-105.0,-80.0,127.0,127.0,127.0,111.0,84.0,-89.0
128.0,126.0,123.0,130.0,127.0,146.0,127.0,128.0,18.0,-105.0,-80.0,127.0,127.0,127.0,111.0,84.0,-89.0
128.0,126.0,123.0,130.0,127.0,146.0,127.0,128.0,18.0,-105.0,-80.0,127.0,127.0,127.0,111.0,84.0,-89.0
128.0,126.0,123.0,130.0,127.0,146.0,127.0,128.0,18.0,-105.0,-80.0,127.0,127.0,127.0,111.0,84.0,-89.0
128.0,126.0,123.0,130.0,127.0,146.0,127.0,128.0,18.0,-105.0,-80.0,127.0,127.0,127.0,111.0,84.0,-89.0
128.0,126.0,122.0,130.0,127.0,146.0,127.0,128.0,18.0,-105.0,-80.0,127.0,127.0,127.0,111.0,84.0,-89.0
128.0,126.0,122.0,130.0,126.0,146.0,127.0,128.0,18.0,-105.0,-80.0,127.0,127.0,127.0,111.0,84.0,-89.0
128.0,126.0,122.0,130.0,126.0,145.0,127.0,128.0,18.0,-105.0,-80.0,127.0,127.0,127.0,111.0,84.0,-89.0
128.0,125.0,122.0,130.0,126.0,145.0,127.0,128.0,18.0,-105.0,-80.0,127.0,127.0,127.0,111.0,84.0,-89.0
128.0,126.0,118.0,128.0,127.0,143.0,127.0,128.0,18.0,-105.0,-80.0,127.0,127.0,127.0,111.0,84.0,-89.0
128.0,126.0,119.0,129.0,126.0,141.0,127.0,128.0,18.0,-105.0,-80.0,127.0,127.0,127.0,111.0,84.0,-89.0
128.0,126.0,118.0,129.0,126.0,143.0,127.0,128.0,18.0,-105.0,-80.0,127.0,127.0,127.0,111.0,84.0,-89.0
128.0,126.0,118.0,129.0,126.0,143.0,127.0,128.0,18.0,-105.0,-80.0,127.0,127.0,127.0,111.0,84.0,-89.0
128.0,126.0,118.0,129.0,126.0,142.0,127.0,128.0,18.0,-105.0,-80.0,127.0,127.0,127.0,111.0,84.0,-89.0
128.0,126.0,118.0,129.0,126.0,142.0,127.0,128.0,18.0,-105.0,-80.0,127.0,127.0,127.0,111.0,84.0,-89.0
128.0,126.0,118.0,128.0,126.0,142.0,127.0,128.0,18.0,-105.0,-80.0,127.0,127.0,127.0,111.0,84.0,-89.0
128.0,126.0,118.0,128.0,126.0,142.0,127.0,128.0,18.0,-105.0,-80.0,127.0,127.0,127.0,111.0,84.0,-89.0
128.0,126.0,118.0,128.0,126.0,143.0,127.0,128.0,18.0,-105.0,-80.0,127.0,127.0,127.0,111.0,84.0,-89.0
128.0,127.0,118.0,128.0,127.0,143.0,127.0,128.0,18.0,-105.0,-80.0,127.0,127.0,127.0,111.0,84.0,-89.0
128.0,126.0,125.0,130.0,127.0,140.0,127.0,128.0,18.0,-105.0,-81.0,127.0,127.0,127.0,111.0,84.0,-89.0
128.0,126.0,125.0,130.0,127.0,142.0,127.0,128.0,18.0,-105.0,-81.0,127.0,127.0,127.0,111.0,84.0,-89.0
128.0,126.0,125.0,130.0,127.0,142.0,127.0,128.0,18.0,-105.0,-81.0,127.0,127.0,127.0,111.0,84.0,-89.0
128.0,126.0,125.0,130.0,127.0,142.0,127.0,128.0,18.0,-105.0,-81.0,127.0,127.0,127.0,111.0,84.0,-89.0
128.0,126.0,125.0,130.0,127.0,141.0,127.0,128.0,18.0,-105.0,-81.0,127.0,127.0,127.0,111.0,84.0,-89.0
128.0,126.0,125.0,130.0,127.0,141.0,127.0,128.0,18.0,-105.0,-81.0,127.0,127.0,127.0,111.0,84.0,-89.0
128.0,126.0,125.0,130.0,127.0,141.0,127.0,128.0,18.0,-105.0,-81.0,127.0,127.0,127.0,111.0,84.0,-89.0
128.0,126.0,125.0,130.0,127.0,142.0,127.0,128.0,18.0,-105.0,-81.0,127.0,127.0,127.0,111.0,84.0,-89.0
128.0,126.0,125.0,130.0,127.0,142.0,127.0,128.0,18.0,-105.0,-81.0,127.0,127.0,127.0,111.0,84.0,-89.0
128.0,126.0,125.0,130.0,127.0,142.0,127.0,128.0,18.0,-105.0,-81.0,127.0,127.0,127.0,111.0,84.0,-89.0
128.0,126.0,131.0,131.0,127.0,139.0,127.0,128.0,18.0,-105.0,-81.0,127.0,127.0,127.0,111.0,84.0,-89.0
128.0,127.0,131.0,131.0,127.0,140.0,127.0,128.0,18.0,-105.0,-81.0,127.0,127.0,127.0,111.0,84.0,-89.0
128.0,127.0,131.0,131.0,127.0,140.0,127.0,128.0,18.0,-105.0,-81.0,127.0,127.0,127.0,111.0,84.0,-89.0
128.0,126.0,131.0,131.0,127.0,139.0,127.0,128.0,18.0,-105.0,-81.0,127.0,127.0,127.0,111.0,84.0,-89.0
128.0,126.0,132.0,131.0,127.0,139.0,127.0,128.0,18.0,-105.0,-81.0,127.0,127.0,127.0,111.0,84.0,-89.0
128.0,126.0,132.0,132.0,127.0,139.0,127.0,128.0,18.0,-105.0,-81.0,127.0,127.0,127.0,111.0,84.0,-89.0
128.0,127.0,133.0,132.0,127.0,140.0,127.0,128.0,18.0,-105.0,-81.0,127.0,127.0,127.0,111.0,84.0,-89.0
128.0,127.0,132.0,132.0,127.0,141.0,126.0,128.0,18.0,-105.0,-81.0,127.0,127.0,127.0,111.0,84.0,-89.0
128.0,127.0,133.0,132.0,127.0,141.0,127.0,128.0,18.0,-105.0,-81.0,127.0,127.0,127.0,111.0,84.0,-89.0
128.0,126.0,131.0,130.0,127.0,138.0,127.0,128.0,18.0,-105.0,-81.0,127.0,127.0,127.0,111.0,84.0,-89.0
128.0,126.0,134.0,131.0,127.0,139.0,127.0,128.0,18.0,-105.0,-81.0,127.0,127.0,127.0,111.0,84.0,-89.0
128.0,126.0,134.0,131.0,127.0,139.0,127.0,128.0,18.0,-105.0,-81.0,127.0,127.0,127.0,111.0,84.0,-89.0
128.0,126.0,134.0,131.0,127.0,138.0,127.0,128.0,18.0,-105.0,-81.0,127.0,127.0,127.0,111.0,84.0,-89.0
128.0,126.0,134.0,131.0,127.0,138.0,127.0,128.0,18.0,-105.0,-81.0,127.0,127.0,127.0,111.0,84.0,-89.0
128.0,126.0,134.0,131.0,127.0,138.0,127.0,128.0,18.0,-105.0,-81.0,127.0,127.0,127.0,111.0,84.0,-89.0
128.0,126.0,133.0,131.0,127.0,139.0,126.0,128.0,18.0,-105.0,-81.0,127.0,127.0,127.0,111.0,84.0,-89.0
127.0,126.0,133.0,131.0,127.0,140.0,127.0,128.0,18.0,-105.0,-81.0,127.0,127.0,127.0,111.0,84.0,-89.0
127.0,126.0,133.0,131.0,127.0,140.0,126.0,128.0,18.0,-105.0,-81.0,127.0,127.0,127.0,111.0,84.0,-89.0
128.0,126.0,134.0,132.0,127.0,137.0,127.0,128.0,18.0,-105.0,-81.0,127.0,127.0,127.0,111.0,84.0,-89.0
128.0,126.0,134.0,131.0,127.0,138.0,126.0,128.0,18.0,-105.0,-81.0,127.0,127.0,127.0,111.0,84.0,-89.0
127.0,126.0,124.0,131.0,127.0,136.0,126.0,128.0,18.0,-105.0,-81.0,127.0,127.0,127.0,111.0,84.0,-89.0
127.0,126.0,124.0,131.0,127.0,136.0,126.0,128.0,18.0,-105.0,-81.0,127.0,127.0,127.0,111.0,84.0,-89.0
128.0,126.0,123.0,131.0,127.0,136.0,126.0,128.0,18.0,-105.0,-81.0,127.0,127.0,127.0,111.0,84.0,-89.0
127.0,126.0,123.0,131.0,127.0,136.0,126.0,128.0,18.0,-105.0,-81.0,127.0,127.0,127.0,111.0,84.0,-89.0
127.0,126.0,123.0,131.0,127.0,136.0,126.0,128.0,18.0,-105.0,-81.0,127.0,127.0,127.0,111.0,84.0,-89.0
127.0,126.0,123.0,131.0,127.0,137.0,126.0,128.0,18.0,-105.0,-81.0,127.0,127.0,127.0,111.0,84.0,-89.0
128.0,126.0,123.0,131.0,127.0,137.0,126.0,128.0,18.0,-105.0,-81.0,127.0,127.0,127.0,111.0,84.0,-89.0
127.0,125.0,125.0,131.0,127.0,135.0,126.0,128.0,18.0,-105.0,-81.0,127.0,127.0,127.0,111.0,84.0,-89.0
127.0,126.0,125.0,131.0,127.0,136.0,126.0,128.0,18.0,-105.0,-81.0,127.0,127.0,127.0,111.0,84.0,-89.0
127.0,126.0,124.0,131.0,127.0,137.0,126.0,128.0,18.0,-105.0,-81.0,127.0,127.0,127.0,111.0,84.0,-89.0
127.0,126.0,122.0,132.0,127.0,134.0,126.0,128.0,18.0,-106.0,-80.0,127.0,127.0,127.0,111.0,84.0,-89.0
127.0,126.0,122.0,132.0,127.0,134.0,126.0,128.0,18.0,-106.0,-80.0,127.0,127.0,127.0,111.0,84.0,-89.0
127.0,126.0,122.0,132.0,127.0,134.0,126.0,128.0,18.0,-106.0,-80.0,127.0,127.0,127.0,111.0,84.0,-89.0
127.0,126.0,122.0,131.0,127.0,134.0,126.0,128.0,18.0,-106.0,-80.0,127.0,127.0,127.0,111.0,84.0,-89.0
127.0,126.0,122.0,131.0,127.0,135.0,126.0,128.0,18.0,-106.0,-80.0,127.0,127.0,127.0,111.0,84.0,-89.0
127.0,126.0,122.0,131.0,127.0,136.0,126.0,128.0,18.0,-106.0,-80.0,127.0,127.0,127.0,111.0,84.0,-89.0
127.0,125.0,122.0,132.0,127.0,133.0,126.0,128.0,18.0,-106.0,-80.0,127.0,127.0,127.0,111.0,84.0,-89.0
127.0,125.0,122.0,132.0,127.0,134.0,126.0,127.0,18.0,-106.0,-80.0,127.0,127.0,127.0,111.0,84.0,-89.0
127.0,126.0,122.0,132.0,127.0,135.0,126.0,128.0,18.0,-106.0,-80.0,127.0,127.0,127.0,111.0,84.0,-89.0
127.0,126.0,122.0,132.0,127.0,135.0,126.0,128.0,18.0,-106.0,-80.0,127.0,127.0,127.0,111.0,84.0,-89.0
128.0,126.0,130.0,132.0,127.0,132.0,127.0,128.0,18.0,-106.0,-81.0,127.0,127.0,127.0,111.0,84.0,-89.0
127.0,126.0,130.0,132.0,127.0,132.0,127.0,128.0,18.0,-106.0,-81.0,127.0,127.0,127.0,111.0,84.0,-89.0
127.0,126.0,130.0,132.0,127.0,132.0,127.0,128.0,18.0,-106.0,-81.0,127.0,127.0,127.0,111.0,84.0,-89.0
127.0,126.0,130.0,132.0,127.0,134.0,127.0,128.0,18.0,-106.0,-81.0,127.0,127.0,127.0,111.0,84.0,-89.0
128.0,126.0,130.0,132.0,127.0,134.0,126.0,128.0,18.0,-106.0,-81.0,127.0,127.0,127.0,111.0,84.0,-89.0
127.0,125.0,129.0,132.0,127.0,131.0,127.0,128.0,18.0,-106.0,-81.0,127.0,127.0,127.0,111.0,84.0,-89.0
127.0,125.0,129.0,132.0,127.0,132.0,126.0,128.0,18.0,-106.0,-81.0,127.0,127.0,127.0,111.0,84.0,-89.0
127.0,126.0,129.0,132.0,127.0,133.0,127.0,128.0,18.0,-106.0,-81.0,127.0,127.0,127.0,111.0,84.0,-89.0
127.0,126.0,129.0,132.0,127.0,133.0,127.0,128.0,18.0,-106.0,-81.0,127.0,127.0,127.0,111.0,84.0,-89.0
127.0,126.0,129.0,132.0,127.0,133.0,127.0,128.0,18.0,-106.0,-81.0,127.0,127.0,127.0,111.0,84.0,-89.0
127.0,125.0,135.0,131.0,126.0,132.0,126.0,128.0,18.0,-107.0,-81.0,127.0,127.0,127.0,111.0,84.0,-89.0
127.0,125.0,135.0,131.0,126.0,132.0,126.0,128.0,18.0,-107.0,-81.0,127.0,127.0,127.0,111.0,84.0,-89.0
127.0,126.0,135.0,131.0,126.0,133.0,126.0,128.0,18.0,-107.0,-81.0,127.0,127.0,127.0,111.0,84.0,-89.0
127.0,126.0,134.0,131.0,126.0,133.0,126.0,128.0,18.0,-107.0,-81.0,127.0,127.0,127.0,111.0,84.0,-89.0
127.0,125.0,135.0,131.0,126.0,131.0,127.0,128.0,18.0,-107.0,-81.0,127.0,127.0,127.0,111.0,84.0,-89.0
127.0,125.0,135.0,131.0,126.0,131.0,126.0,128.0,18.0,-107.0,-81.0,127.0,127.0,127.0,111.0,84.0,-89.0
127.0,126.0,135.0,131.0,126.0,132.0,126.0,128.0,18.0,-107.0,-81.0,127.0,127.0,127.0,111.0,84.0,-89.0
127.0,126.0,135.0,131.0,126.0,133.0,126.0,128.0,18.0,-107.0,-81.0,127.0,127.0,127.0,111.0,84.0,-89.0
127.0,126.0,135.0,131.0,126.0,132.0,126.0,128.0,18.0,-107.0,-81.0,127.0,127.0,127.0,111.0,84.0,-89.0
127.0,125.0,135.0,131.0,126.0,132.0,126.0,128.0,18.0,-107.0,-81.0,127.0,127.0,127.0,111.0,84.0,-89.0
127.0,125.0,132.0,130.0,126.0,130.0,127.0,128.0,18.0,-107.0,-81.0,127.0,127.0,127.0,111.0,84.0,-89.0
127.0,125.0,132.0,130.0,126.0,130.0,127.0,128.0,18.0,-107.0,-81.0,127.0,127.0,127.0,111.0,84.0,-89.0
127.0,125.0,132.0,130.0,126.0,130.0,127.0,128.0,18.0,-107.0,-81.0,127.0,127.0,127.0,111.0,84.0,-89.0
127.0,125.0,132.0,130.0,126.0,130.0,127.0,127.0,18.0,-107.0,-81.0,127.0,127.0,127.0,111.0,84.0,-89.0
127.0,125.0,132.0,130.0,126.0,130.0,127.0,127.0,18.0,-107.0,-81.0,127.0,127.0,127.0,111.0,84.0,-89.0
127.0,125.0,132.0,130.0,126.0,130.0,127.0,127.0,18.0,-107.0,-81.0,127.0,127.0,127.0,111.0,84.0,-89.0
127.0,125.0,132.0,130.0,126.0,130.0,127.0,127.0,18.0,-107.0,-81.0,127.0,127.0,127.0,111.0,84.0,-89.0
127.0,125.0,132.0,130.0,126.0,130.0,127.0,127.0,18.0,-107.0,-81.0,127.0,127.0,127.0,111.0,84.0,-89.0
127.0,125.0,132.0,130.0,126.0,130.0,127.0,127.0,18.0,-107.0,-81.0,127.0,127.0,127.0,111.0,84.0,-89.0
127.0,125.0,132.0,130.0,126.0,130.0,127.0,127.0,18.0,-107.0,-81.0,127.0,127.0,127.0,111.0,84.0,-89.0
127.0,126.0,129.0,131.0,127.0,133.0,126.0,128.0,18.0,-107.0,-81.0,127.0,127.0,127.0,111.0,84.0,-89.0
127.0,126.0,128.0,131.0,127.0,134.0,126.0,128.0,18.0,-107.0,-81.0,127.0,127.0,127.0,111.0,84.0,-89.0
127.0,125.0,129.0,131.0,127.0,132.0,126.0,128.0,18.0,-107.0,-81.0,127.0,127.0,127.0,111.0,84.0,-89.0
127.0,125.0,129.0,131.0,127.0,132.0,126.0,128.0,18.0,-107.0,-81.0,127.0,127.0,127.0,111.0,84.0,-89.0
127.0,125.0,129.0,131.0,127.0,132.0,126.0,128.0,18.0,-107.0,-81.0,127.0,127.0,127.0,111.0,84.0,-89.0
127.0,125.0,130.0,131.0,127.0,131.0,126.0,128.0,18.0,-107.0,-81.0,127.0,127.0,127.0,111.0,84.0,-89.0
127.0,125.0,130.0,131.0,127.0,131.0,126.0,128.0,18.0,-107.0,-81.0,127.0,127.0,127.0,111.0,84.0,-89.0
127.0,126.0,129.0,131.0,127.0,132.0,126.0,128.0,18.0,-107.0,-81.0,127.0,127.0,127.0,111.0,84.0,-89.0
127.0,126.0,129.0,131.0,127.0,133.0,126.0,128.0,18.0,-107.0,-81.0,127.0,127.0,127.0,111.0,84.0,-89.0
127.0,126.0,129.0,131.0,127.0,133.0,126.0,128.0,18.0,-107.0,-81.0,127.0,127.0,127.0,111.0,84.0,-89.0
127.0,126.0,127.0,131.0,127.0,133.0,127.0,128.0,18.0,-107.0,-81.0,127.0,127.0,127.0,111.0,84.0,-89.0
127.0,126.0,127.0,131.0,127.0,133.0,127.0,128.0,18.0,-107.0,-81.0,127.0,127.0,127.0,111.0,84.0,-89.0
127.0,126.0,127.0,131.0,127.0,133.0,127.0,128.0,18.0,-107.0,-81.0,127.0,127.0,127.0,111.0,84.0,-89.0
127.0,126.0,127.0,131.0,126.0,132.0,127.0,128.0,18.0,-107.0,-81.0,127.0,127.0,127.0,111.0,84.0,-89.0
127.0,126.0,127.0,130.0,126.0,132.0,127.0,128.0,18.0,-107.0,-81.0,127.0,127.0,127.0,111.0,84.0,-89.0
127.0,126.0,127.0,130.0,126.0,132.0,127.0,128.0,18.0,-107.0,-81.0,127.0,127.0,127.0,111.0,84.0,-89.0
127.0,126.0,127.0,130.0,126.0,132.0,127.0,128.0,18.0,-107.0,-81.0,127.0,127.0,127.0,111.0,84.0,-89.0
127.0,125.0,127.0,130.0,126.0,131.0,127.0,128.0,18.0,-107.0,-81.0,127.0,127.0,127.0,111.0,84.0,-89.0
127.0,125.0,127.0,130.0,126.0,131.0,127.0,128.0,18.0,-107.0,-81.0,127.0,127.0,127.0,111.0,84.0,-89.0
127.0,125.0,127.0,130.0,126.0,131.0,127.0,128.0,18.0,-107.0,-81.0,127.0,127.0,127.0,111.0,84.0,-89.0
127.0,126.0,126.0,131.0,127.0,133.0,127.0,128.0,18.0,-107.0,-81.0,127.0,127.0,127.0,111.0,84.0,-89.0
127.0,126.0,126.0,131.0,127.0,133.0,127.0,128.0,18.0,-107.0,-81.0,127.0,127.0,127.0,111.0,84.0,-89.0
127.0,126.0,126.0,131.0,127.0,132.0,127.0,128.0,18.0,-107.0,-81.0,127.0,127.0,127.0,111.0,84.0,-89.0
127.0,126.0,127.0,131.0,127.0,132.0,127.0,128.0,18.0,-107.0,-81.0,127.0,127.0,127.0,111.0,84.0,-89.0
127.0,126.0,127.0,131.0,127.0,132.0,127.0,128.0,18.0,-107.0,-81.0,127.0,127.0,127.0,111.0,84.0,-89.0
127.0,125.0,127.0,131.0,127.0,132.0,127.0,128.0,18.0,-107.0,-81.0,127.0,127.0,127.0,111.0,84.0,-89.0
127.0,125.0,127.0,131.0,126.0,131.0,127.0,127.0,18.0,-107.0,-81.0,127.0,127.0,127.0,111.0,84.0,-89.0
127.0,125.0,127.0,131.0,127.0,131.0,127.0,128.0,18.0,-107.0,-81.0,127.0,127.0,127.0,111.0,84.0,-89.0
127.0,125.0,127.0,131.0,126.0,131.0,127.0,127.0,18.0,-107.0,-81.0,127.0,127.0,127.0,111.0,84.0,-89.0
127.0,126.0,126.0,131.0,127.0,133.0,127.0,128.0,18.0,-107.0,-81.0,127.0,127.0,127.0,111.0,84.0,-89.0
127.0,126.0,127.0,131.0,127.0,133.0,127.0,128.0,18.0,-107.0,-81.0,127.0,127.0,127.0,111.0,84.0,-89.0
127.0,126.0,127.0,131.0,127.0,132.0,127.0,128.0,18.0,-107.0,-81.0,127.0,127.0,127.0,111.0,84.0,-89.0
127.0,125.0,127.0,131.0,126.0,132.0,127.0,128.0,18.0,-107.0,-81.0,127.0,127.0,127.0,111.0,84.0,-89.0
127.0,125.0,127.0,131.0,126.0,132.0,127.0,128.0,18.0,-107.0,-81.0,127.0,127.0,127.0,111.0,84.0,-89.0
127.0,125.0,127.0,131.0,126.0,132.0,127.0,128.0,18.0,-107.0,-81.0,127.0,127.0,127.0,111.0,84.0,-89.0
127.0,125.0,127.0,131.0,126.0,131.0,127.0,128.0,18.0,-107.0,-81.0,127.0,127.0,127.0,111.0,84.0,-89.0
127.0,125.0,127.0,131.0,126.0,131.0,127.0,128.0,18.0,-107.0,-81.0,127.0,127.0,127.0,111.0,84.0,-89.0
127.0,125.0,127.0,131.0,126.0,131.0,127.0,128.0,18.0,-107.0,-81.0,127.0,127.0,127.0,111.0,84.0,-89.0
127.0,126.0,127.0,131.0,127.0,133.0,127.0,128.0,18.0,-107.0,-81.0,127.0,127.0,127.0,111.0,84.0,-89.0
127.0,126.0,127.0,131.0,127.0,133.0,127.0,128.0,18.0,-107.0,-81.0,127.0,127.0,127.0,111.0,84.0,-89.0
127.0,126.0,127.0,133.0,127.0,132.0,127.0,128.0,18.0,-107.0,-81.0,127.0,127.0,127.0,111.0,84.0,-89.0
127.0,126.0,127.0,133.0,127.0,132.0,127.0,128.0,18.0,-107.0,-81.0,127.0,127.0,127.0,111.0,84.0,-89.0
127.0,126.0,127.0,133.0,127.0,132.0,127.0,128.0,18.0,-107.0,-81.0,127.0,127.0,127.0,111.0,84.0,-89.0
127.0,126.0,127.0,133.0,127.0,132.0,127.0,128.0,18.0,-107.0,-81.0,127.0,127.0,127.0,111.0,84.0,-89.0
127.0,125.0,127.0,133.0,127.0,132.0,127.0,128.0,18.0,-107.0,-81.0,127.0,127.0,127.0,111.0,84.0,-89.0
127.0,125.0,127.0,133.0,127.0,131.0,127.0,128.0,18.0,-107.0,-81.0,127.0,127.0,127.0,111.0,84.0,-89.0
127.0,125.0,127.0,133.0,127.0,131.0,127.0,128.0,18.0,-107.0,-81.0,127.0,127.0,127.0,111.0,84.0,-89.0
127.0,126.0,127.0,133.0,127.0,133.0,126.0,128.0,18.0,-107.0,-81.0,127.0,127.0,127.0,111.0,84.0,-89.0
127.0,126.0,127.0,133.0,127.0,132.0,126.0,128.0,18.0,-107.0,-81.0,127.0,127.0,127.0,111.0,84.0,-89.0
127.0,126.0,127.0,133.0,127.0,133.0,127.0,128.0,18.0,-107.0,-81.0,127.0,127.0,127.0,111.0,84.0,-89.0
127.0,125.0,126.0,131.0,127.0,131.0,127.0,128.0,18.0,-107.0,-81.0,127.0,127.0,127.0,111.0,84.0,-89.0
127.0,125.0,126.0,131.0,127.0,131.0,127.0,128.0,18.0,-107.0,-81.0,127.0,127.0,127.0,111.0,84.0,-89.0
127.0,125.0,127.0,131.0,127.0,130.0,127.0,128.0,18.0,-107.0,-81.0,127.0,127.0,127.0,111.0,84.0,-89.0
127.0,125.0,127.0,131.0,127.0,130.0,127.0,128.0,18.0,-107.0,-81.0,127.0,127.0,127.0,111.0,84.0,-89.0
127.0,125.0,127.0,131.0,127.0,130.0,127.0,128.0,18.0,-107.0,-81.0,127.0,127.0,127.0,111.0,84.0,-89.0
127.0,125.0,127.0,131.0,127.0,130.0,127.0,128.0,18.0,-107.0,-81.0,127.0,127.0,127.0,111.0,84.0,-89.0
127.0,126.0,126.0,131.0,127.0,132.0,126.0,128.0,18.0,-107.0,-81.0,127.0,127.0,127.0,111.0,84.0,-89.0
127.0,126.0,126.0,131.0,127.0,131.0,126.0,128.0,18.0,-107.0,-81.0,127.0,127.0,127.0,111.0,84.0,-89.0
127.0,126.0,126.0,131.0,127.0,132.0,127.0,128.0,18.0,-107.0,-81.0,127.0,127.0,127.0,111.0,84.0,-89.0
127.0,126.0,126.0,131.0,127.0,131.0,127.0,128.0,18.0,-107.0,-81.0,127.0,127.0,127.0,111.0,84.0,-89.0
127.0,126.0,127.0,132.0,127.0,131.0,127.0,128.0,18.0,-107.0,-81.0,127.0,127.0,127.0,111.0,84.0,-89.0
127.0,126.0,127.0,132.0,127.0,131.0,127.0,128.0,18.0,-107.0,-81.0,127.0,127.0,127.0,111.0,84.0,-89.0
127.0,125.0,127.0,132.0,127.0,130.0,127.0,128.0,18.0,-107.0,-81.0,127.0,127.0,127.0,111.0,84.0,-89.0
127.0,125.0,127.0,132.0,127.0,130.0,127.0,128.0,18.0,-107.0,-81.0,127.0,127.0,127.0,111.0,84.0,-89.0
127.0,125.0,127.0,132.0,127.0,130.0,127.0,128.0,18.0,-107.0,-81.0,127.0,127.0,127.0,111.0,84.0,-89.0
127.0,126.0,127.0,132.0,127.0,132.0,127.0,128.0,18.0,-107.0,-81.0,127.0,127.0,127.0,111.0,84.0,-89.0
127.0,126.0,127.0,132.0,127.0,131.0,127.0,128.0,18.0,-107.0,-81.0,127.0,127.0,127.0,111.0,84.0,-89.0
127.0,126.0,127.0,132.0,127.0,131.0,127.0,128.0,18.0,-107.0,-81.0,127.0,127.0,127.0,111.0,84.0,-89.0
127.0,126.0,127.0,132.0,127.0,131.0,127.0,128.0,18.0,-107.0,-81.0,127.0,127.0,127.0,111.0,84.0,-89.0
127.0,126.0,127.0,132.0,127.0,131.0,127.0,128.0,18.0,-107.0,-81.0,127.0,127.0,127.0,111.0,84.0,-89.0
127.0,126.0,128.0,133.0,127.0,130.0,126.0,128.0,18.0,-107.0,-81.0,127.0,127.0,127.0,111.0,84.0,-89.0
127.0,126.0,128.0,133.0,127.0,131.0,126.0,128.0,18.0,-107.0,-81.0,127.0,127.0,127.0,111.0,84.0,-89.0
127.0,126.0,128.0,133.0,127.0,131.0,126.0,128.0,18.0,-107.0,-81.0,127.0,127.0,127.0,111.0,84.0,-89.0
127.0,126.0,128.0,133.0,127.0,131.0,126.0,128.0,18.0,-107.0,-81.0,127.0,127.0,127.0,111.0,84.0,-89.0
127.0,125.0,129.0,133.0,127.0,129.0,126.0,128.0,18.0,-107.0,-81.0,127.0,127.0,127.0,111.0,84.0,-89.0
127.0,126.0,128.0,133.0,127.0,130.0,126.0,128.0,18.0,-107.0,-81.0,127.0,127.0,127.0,111.0,84.0,-89.0
127.0,126.0,128.0,133.0,127.0,131.0,127.0,128.0,18.0,-107.0,-81.0,127.0,127.0,127.0,111.0,84.0,-89.0
127.0,126.0,128.0,133.0,127.0,131.0,127.0,128.0,18.0,-107.0,-81.0,127.0,127.0,127.0,111.0,84.0,-89.0
127.0,126.0,128.0,133.0,127.0,130.0,127.0,128.0,18.0,-107.0,-81.0,127.0,127.0,127.0,111.0,84.0,-89.0
127.0,126.0,128.0,133.0,127.0,130.0,127.0,128.0,18.0,-107.0,-81.0,127.0,127.0,127.0,111.0,84.0,-89.0
127.0,125.0,129.0,132.0,127.0,131.0,126.0,128.0,18.0,-107.0,-81.0,127.0,127.0,127.0,111.0,84.0,-89.0
127.0,126.0,129.0,132.0,127.0,132.0,126.0,128.0,18.0,-107.0,-81.0,127.0,127.0,127.0,111.0,84.0,-89.0
127.0,126.0,129.0,132.0,127.0,132.0,126.0,128.0,18.0,-107.0,-81.0,127.0,127.0,127.0,111.0,84.0,-89.0
127.0,125.0,129.0,132.0,127.0,129.0,126.0,127.0,18.0,-107.0,-81.0,127.0,127.0,127.0,111.0,84.0,-89.0
127.0,126.0,129.0,132.0,127.0,130.0,126.0,128.0,18.0,-107.0,-81.0,127.0,127.0,127.0,111.0,84.0,-89.0
