emg1,emg2,emg3,emg4,emg5,emg6,emg7,emg8,acc_x,acc_y,acc_z,gyro_x,gyro_y,gyro_z,angle_pitch,angle_roll,angle_yaw
128.0,125.0,123.0,119.0,128.0,120.0,127.0,129.0,18.0,-104.0,-82.0,127.0,127.0,127.0,111.0,84.0,-89.0
128.0,125.0,123.0,119.0,128.0,120.0,127.0,130.0,18.0,-104.0,-82.0,127.0,127.0,127.0,111.0,84.0,-89.0
127.0,126.0,124.0,124.0,128.0,122.0,126.0,120.0,18.0,-104.0,-82.0,127.0,127.0,127.0,111.0,84.0,-89.0
127.0,126.0,123.0,124.0,128.0,122.0,126.0,120.0,18.0,-104.0,-82.0,127.0,127.0,127.0,111.0,84.0,-89.0
127.0,125.0,123.0,123.0,128.0,122.0,126.0,121.0,18.0,-104.0,-82.0,127.0,127.0,127.0,111.0,84.0,-89.0
128.0,125.0,123.0,119.0,127.0,121.0,127.0,128.0,18.0,-105.0,-82.0,127.0,127.0,127.0,111.0,84.0,-89.0
128.0,125.0,124.0,121.0,127.0,120.0,127.0,128.0,18.0,-105.0,-82.0,127.0,127.0,127.0,111.0,84.0,-89.0
127.0,125.0,124.0,122.0,127.0,120.0,127.0,128.0,18.0,-105.0,-82.0,127.0,127.0,127.0,111.0,84.0,-89.0
127.0,125.0,125.0,123.0,128.0,120.0,127.0,128.0,18.0,-105.0,-82.0,127.0,127.0,127.0,111.0,84.0,-89.0
127.0,125.0,125.0,123.0,128.0,120.0,127.0,128.0,18.0,-105.0,-82.0,127.0,127.0,127.0,111.0,84.0,-89.0
127.0,126.0,125.0,123.0,128.0,121.0,127.0,128.0,18.0,-105.0,-82.0,127.0,127.0,127.0,111.0,84.0,-89.0
128.0,123.0,122.0,114.0,125.0,119.0,126.0,129.0,18.0,-105.0,-82.0,127.0,127.0,127.0,111.0,84.0,-89.0
128.0,124.0,122.0,115.0,126.0,119.0,126.0,129.0,18.0,-105.0,-82.0,127.0,127.0,127.0,111.0,84.0,-89.0
128.0,124.0,122.0,116.0,126.0,121.0,126.0,129.0,18.0,-105.0,-82.0,127.0,127.0,127.0,111.0,84.0,-89.0
128.0,124.0,123.0,117.0,126.0,121.0,127.0,129.0,18.0,-105.0,-82.0,127.0,127.0,127.0,111.0,84.0,-89.0
128.0,125.0,128.0,116.0,125.0,120.0,127.0,131.0,18.0,-105.0,-83.0,127.0,127.0,127.0,111.0,84.0,-89.0
128.0,125.0,128.0,117.0,125.0,120.0,127.0,131.0,18.0,-105.0,-83.0,127.0,127.0,127.0,111.0,84.0,-89.0
128.0,125.0,128.0,118.0,125.0,120.0,127.0,131.0,18.0,-105.0,-83.0,127.0,127.0,127.0,111.0,84.0,-89.0
128.0,125.0,128.0,119.0,125.0,120.0,127.0,131.0,18.0,-105.0,-83.0,127.0,127.0,127.0,111.0,84.0,-89.0
128.0,126.0,128.0,119.0,126.0,121.0,127.0,131.0,18.0,-105.0,-83.0,127.0,127.0,127.0,111.0,84.0,-89.0
128.0,124.0,127.0,113.0,125.0,118.0,126.0,131.0,18.0,-105.0,-83.0,127.0,127.0,127.0,111.0,84.0,-89.0
128.0,124.0,127.0,113.0,125.0,118.0,126.0,131.0,18.0,-105.0,-83.0,127.0,127.0,127.0,111.0,84.0,-89.0
128.0,124.0,127.0,113.0,125.0,120.0,126.0,131.0,18.0,-105.0,-83.0,127.0,127.0,127.0,111.0,84.0,-89.0
128.0,125.0,127.0,114.0,125.0,120.0,126.0,131.0,18.0,-105.0,-83.0,127.0,127.0,127.0,111.0,84.0,-89.0
128.0,125.0,127.0,115.0,125.0,120.0,126.0,131.0,18.0,-105.0,-83.0,127.0,127.0,127.0,111.0,84.0,-89.0
127.0,125.0,124.0,119.0,127.0,121.0,126.0,124.0,18.0,-104.0,-83.0,127.0,127.0,127.0,111.0,84.0,-89.0
127.0,125.0,124.0,119.0,127.0,121.0,126.0,126.0,18.0,-104.0,-83.0,127.0,127.0,127.0,111.0,84.0,-89.0
127.0,125.0,124.0,119.0,126.0,121.0,126.0,128.0,18.0,-104.0,-83.0,127.0,127.0,127.0,111.0,84.0,-89.0
127.0,125.0,123.0,118.0,126.0,122.0,126.0,130.0,18.0,-104.0,-83.0,127.0,127.0,127.0,111.0,84.0,-89.0
125.0,125.0,127.0,120.0,128.0,118.0,126.0,119.0,18.0,-104.0,-83.0,127.0,127.0,127.0,111.0,84.0,-89.0
125.0,125.0,126.0,120.0,128.0,119.0,126.0,118.0,18.0,-104.0,-83.0,127.0,127.0,127.0,111.0,84.0,-89.0
125.0,125.0,126.0,120.0,128.0,119.0,126.0,118.0,18.0,-104.0,-83.0,127.0,127.0,127.0,111.0,84.0,-89.0
126.0,125.0,125.0,120.0,128.0,121.0,126.0,118.0,18.0,-104.0,-83.0,127.0,127.0,127.0,111.0,84.0,-89.0
126.0,125.0,125.0,120.0,127.0,121.0,126.0,120.0,18.0,-104.0,-83.0,127.0,127.0,127.0,111.0,84.0,-89.0
126.0,125.0,125.0,119.0,127.0,121.0,126.0,122.0,18.0,-104.0,-83.0,127.0,127.0,127.0,111.0,84.0,-89.0
128.0,126.0,127.0,120.0,127.0,121.0,127.0,127.0,18.0,-104.0,-83.0,127.0,127.0,127.0,111.0,84.0,-89.0
128.0,126.0,126.0,120.0,127.0,121.0,127.0,127.0,18.0,-104.0,-83.0,127.0,127.0,127.0,111.0,84.0,-89.0
128.0,127.0,126.0,120.0,127.0,123.0,127.0,128.0,18.0,-104.0,-83.0,127.0,127.0,127.0,111.0,84.0,-89.0
128.0,125.0,127.0,122.0,126.0,120.0,126.0,128.0,18.0,-104.0,-83.0,127.0,127.0,127.0,111.0,84.0,-89.0
128.0,125.0,127.0,121.0,127.0,120.0,126.0,127.0,18.0,-104.0,-83.0,127.0,127.0,127.0,111.0,84.0,-89.0
128.0,126.0,127.0,121.0,127.0,120.0,126.0,127.0,18.0,-104.0,-83.0,127.0,127.0,127.0,111.0,84.0,-89.0
128.0,126.0,126.0,120.0,127.0,122.0,126.0,127.0,18.0,-104.0,-83.0,127.0,127.0,127.0,111.0,84.0,-89.0
128.0,126.0,126.0,120.0,127.0,122.0,127.0,127.0,18.0,-104.0,-83.0,127.0,127.0,127.0,111.0,84.0,-89.0
128.0,126.0,127.0,120.0,127.0,121.0,127.0,127.0,18.0,-104.0,-83.0,127.0,127.0,127.0,111.0,84.0,-89.0
128.0,126.0,127.0,120.0,127.0,121.0,127.0,127.0,18.0,-104.0,-83.0,127.0,127.0,127.0,111.0,84.0,-89.0
127.0,124.0,126.0,121.0,127.0,121.0,127.0,126.0,18.0,-104.0,-83.0,127.0,127.0,127.0,111.0,84.0,-89.0
127.0,124.0,126.0,120.0,127.0,121.0,127.0,127.0,18.0,-104.0,-83.0,127.0,127.0,127.0,111.0,84.0,-89.0
127.0,125.0,125.0,121.0,128.0,123.0,127.0,129.0,18.0,-104.0,-83.0,127.0,127.0,127.0,111.0,84.0,-89.0
128.0,125.0,125.0,121.0,128.0,123.0,127.0,129.0,18.0,-104.0,-83.0,127.0,127.0,127.0,111.0,84.0,-89.0
127.0,125.0,125.0,122.0,128.0,122.0,127.0,128.0,18.0,-104.0,-83.0,127.0,127.0,127.0,111.0,84.0,-89.0
127.0,125.0,125.0,122.0,128.0,122.0,127.0,127.0,18.0,-104.0,-83.0,127.0,127.0,127.0,111.0,84.0,-89.0
127.0,125.0,125.0,122.0,128.0,122.0,127.0,127.0,18.0,-104.0,-83.0,127.0,127.0,127.0,111.0,84.0,-89.0
127.0,124.0,126.0,122.0,127.0,122.0,127.0,127.0,18.0,-104.0,-83.0,127.0,127.0,127.0,111.0,84.0,-89.0
127.0,124.0,126.0,122.0,127.0,121.0,127.0,126.0,18.0,-104.0,-83.0,127.0,127.0,127.0,111.0,84.0,-89.0
127.0,124.0,126.0,121.0,127.0,121.0,127.0,126.0,18.0,-104.0,-83.0,127.0,127.0,127.0,111.0,84.0,-89.0
127.0,126.0,127.0,120.0,127.0,123.0,127.0,125.0,17.0,-104.0,-83.0,127.0,127.0,127.0,111.0,84.0,-89.0
127.0,126.0,128.0,122.0,127.0,120.0,127.0,128.0,17.0,-104.0,-83.0,127.0,127.0,127.0,111.0,84.0,-89.0
127.0,126.0,128.0,121.0,127.0,120.0,127.0,127.0,17.0,-104.0,-83.0,127.0,127.0,127.0,111.0,84.0,-89.0
127.0,126.0,128.0,121.0,127.0,121.0,127.0,127.0,17.0,-104.0,-83.0,127.0,127.0,127.0,111.0,84.0,-89.0
127.0,126.0,128.0,121.0,127.0,122.0,127.0,126.0,17.0,-104.0,-83.0,127.0,127.0,127.0,111.0,84.0,-89.0
127.0,126.0,127.0,120.0,127.0,122.0,127.0,125.0,17.0,-104.0,-83.0,127.0,127.0,127.0,111.0,84.0,-89.0
127.0,126.0,127.0,120.0,127.0,122.0,127.0,124.0,17.0,-104.0,-83.0,127.0,127.0,127.0,111.0,84.0,-89.0
127.0,126.0,127.0,120.0,127.0,122.0,127.0,124.0,17.0,-104.0,-83.0,127.0,127.0,127.0,111.0,84.0,-89.0
127.0,125.0,127.0,120.0,127.0,122.0,127.0,124.0,17.0,-104.0,-83.0,127.0,127.0,127.0,111.0,84.0,-89.0
127.0,125.0,127.0,120.0,127.0,122.0,127.0,125.0,17.0,-104.0,-83.0,127.0,127.0,127.0,111.0,84.0,-89.0
127.0,125.0,128.0,122.0,127.0,122.0,127.0,129.0,17.0,-104.0,-83.0,127.0,127.0,127.0,110.0,84.0,-89.0
128.0,125.0,128.0,123.0,127.0,122.0,127.0,130.0,17.0,-104.0,-83.0,127.0,127.0,127.0,110.0,84.0,-89.0
128.0,125.0,129.0,123.0,127.0,122.0,128.0,130.0,17.0,-104.0,-83.0,127.0,127.0,127.0,110.0,84.0,-89.0
128.0,125.0,129.0,123.0,127.0,122.0,128.0,130.0,17.0,-104.0,-83.0,127.0,127.0,127.0,110.0,84.0,-89.0
128.0,125.0,129.0,123.0,127.0,121.0,128.0,130.0,17.0,-104.0,-83.0,127.0,127.0,127.0,110.0,84.0,-89.0
128.0,125.0,129.0,123.0,127.0,121.0,128.0,130.0,17.0,-104.0,-83.0,127.0,127.0,127.0,110.0,84.0,-89.0
128.0,125.0,129.0,122.0,127.0,121.0,128.0,130.0,17.0,-104.0,-83.0,127.0,127.0,127.0,110.0,84.0,-89.0
128.0,125.0,129.0,122.0,127.0,120.0,128.0,130.0,17.0,-104.0,-83.0,127.0,127.0,127.0,110.0,84.0,-89.0
128.0,125.0,129.0,121.0,127.0,120.0,128.0,130.0,17.0,-104.0,-83.0,127.0,127.0,127.0,110.0,84.0,-89.0
128.0,125.0,129.0,121.0,127.0,120.0,128.0,130.0,17.0,-104.0,-83.0,127.0,127.0,127.0,110.0,84.0,-89.0
127.0,126.0,129.0,123.0,127.0,123.0,127.0,128.0,17.0,-104.0,-83.0,127.0,127.0,127.0,110.0,84.0,-89.0
127.0,126.0,129.0,124.0,127.0,123.0,127.0,128.0,17.0,-104.0,-83.0,127.0,127.0,127.0,110.0,84.0,-89.0
127.0,126.0,129.0,124.0,127.0,122.0,127.0,128.0,17.0,-104.0,-83.0,127.0,127.0,127.0,110.0,84.0,-89.0
127.0,126.0,128.0,125.0,127.0,122.0,127.0,128.0,17.0,-104.0,-83.0,127.0,127.0,127.0,110.0,84.0,-89.0
127.0,126.0,128.0,125.0,127.0,122.0,127.0,128.0,17.0,-104.0,-83.0,127.0,127.0,127.0,110.0,84.0,-89.0
127.0,126.0,129.0,125.0,127.0,122.0,127.0,128.0,17.0,-104.0,-83.0,127.0,127.0,127.0,110.0,84.0,-89.0
127.0,125.0,128.0,125.0,127.0,121.0,127.0,128.0,17.0,-104.0,-83.0,127.0,127.0,127.0,110.0,84.0,-89.0
127.0,125.0,128.0,125.0,127.0,121.0,127.0,128.0,17.0,-104.0,-83.0,127.0,127.0,127.0,110.0,84.0,-89.0
127.0,126.0,128.0,121.0,127.0,123.0,127.0,128.0,17.0,-104.0,-83.0,127.0,127.0,127.0,110.0,84.0,-89.0
127.0,126.0,129.0,122.0,127.0,123.0,127.0,128.0,17.0,-104.0,-83.0,127.0,127.0,127.0,110.0,84.0,-89.0
127.0,125.0,123.0,122.0,127.0,123.0,127.0,130.0,17.0,-104.0,-83.0,127.0,127.0,127.0,110.0,84.0,-89.0
127.0,125.0,123.0,122.0,127.0,123.0,127.0,130.0,17.0,-104.0,-83.0,127.0,127.0,127.0,110.0,84.0,-89.0
127.0,125.0,123.0,122.0,127.0,123.0,127.0,130.0,17.0,-104.0,-83.0,127.0,127.0,127.0,110.0,84.0,-89.0
127.0,125.0,123.0,122.0,127.0,122.0,127.0,130.0,17.0,-104.0,-83.0,127.0,127.0,127.0,110.0,84.0,-89.0
128.0,125.0,123.0,122.0,127.0,124.0,127.0,130.0,17.0,-104.0,-83.0,127.0,127.0,127.0,110.0,84.0,-89.0
128.0,126.0,123.0,122.0,128.0,124.0,127.0,131.0,17.0,-104.0,-83.0,127.0,127.0,127.0,110.0,84.0,-89.0
128.0,126.0,123.0,122.0,128.0,124.0,128.0,131.0,17.0,-104.0,-83.0,127.0,127.0,127.0,110.0,84.0,-89.0
127.0,125.0,124.0,122.0,127.0,121.0,127.0,129.0,17.0,-104.0,-83.0,127.0,127.0,127.0,110.0,84.0,-89.0
127.0,125.0,124.0,122.0,127.0,123.0,127.0,129.0,17.0,-104.0,-83.0,127.0,127.0,127.0,110.0,84.0,-89.0
127.0,125.0,124.0,122.0,127.0,123.0,127.0,129.0,17.0,-104.0,-83.0,127.0,127.0,127.0,110.0,84.0,-89.0
127.0,125.0,122.0,120.0,126.0,123.0,127.0,130.0,17.0,-104.0,-83.0,127.0,127.0,127.0,110.0,84.0,-89.0
127.0,125.0,122.0,120.0,126.0,122.0,127.0,130.0,17.0,-104.0,-83.0,127.0,127.0,127.0,110.0,84.0,-89.0
127.0,125.0,123.0,121.0,126.0,122.0,127.0,130.0,17.0,-104.0,-83.0,127.0,127.0,127.0,110.0,84.0,-89.0
127.0,125.0,122.0,121.0,127.0,123.0,127.0,129.0,17.0,-104.0,-83.0,127.0,127.0,127.0,110.0,84.0,-89.0
127.0,125.0,122.0,121.0,127.0,124.0,127.0,129.0,17.0,-104.0,-83.0,127.0,127.0,127.0,110.0,84.0,-89.0
127.0,125.0,123.0,122.0,127.0,124.0,127.0,129.0,17.0,-104.0,-83.0,127.0,127.0,127.0,110.0,84.0,-89.0
127.0,124.0,123.0,116.0,126.0,122.0,127.0,129.0,17.0,-104.0,-83.0,127.0,127.0,127.0,110.0,84.0,-89.0
127.0,125.0,122.0,117.0,126.0,123.0,127.0,129.0,17.0,-104.0,-83.0,127.0,127.0,127.0,110.0,84.0,-89.0
127.0,125.0,122.0,119.0,126.0,123.0,127.0,129.0,17.0,-104.0,-83.0,127.0,127.0,127.0,110.0,84.0,-89.0
127.0,125.0,122.0,119.0,126.0,123.0,127.0,130.0,17.0,-104.0,-83.0,127.0,127.0,127.0,110.0,84.0,-89.0
127.0,124.0,124.0,120.0,127.0,123.0,127.0,128.0,17.0,-104.0,-83.0,127.0,127.0,127.0,110.0,84.0,-89.0
127.0,124.0,124.0,120.0,127.0,123.0,127.0,128.0,17.0,-104.0,-83.0,127.0,127.0,127.0,110.0,84.0,-89.0
127.0,124.0,124.0,119.0,126.0,124.0,127.0,128.0,17.0,-104.0,-83.0,127.0,127.0,127.0,110.0,84.0,-89.0
127.0,124.0,124.0,119.0,126.0,125.0,127.0,128.0,17.0,-104.0,-83.0,127.0,127.0,127.0,110.0,84.0,-89.0
127.0,124.0,123.0,119.0,126.0,125.0,127.0,128.0,17.0,-104.0,-83.0,127.0,127.0,127.0,110.0,84.0,-89.0
127.0,124.0,125.0,122.0,127.0,122.0,127.0,128.0,17.0,-104.0,-83.0,127.0,127.0,127.0,110.0,84.0,-89.0
127.0,124.0,124.0,122.0,127.0,123.0,127.0,128.0,17.0,-104.0,-83.0,127.0,127.0,127.0,110.0,84.0,-89.0
127.0,124.0,124.0,122.0,127.0,124.0,127.0,128.0,17.0,-104.0,-83.0,127.0,127.0,127.0,110.0,84.0,-89.0
127.0,124.0,124.0,121.0,127.0,124.0,127.0,128.0,17.0,-104.0,-83.0,127.0,127.0,127.0,110.0,84.0,-89.0
127.0,124.0,124.0,121.0,127.0,124.0,127.0,128.0,17.0,-104.0,-83.0,127.0,127.0,127.0,110.0,84.0,-89.0
127.0,124.0,126.0,124.0,127.0,124.0,127.0,127.0,17.0,-104.0,-83.0,127.0,127.0,127.0,110.0,84.0,-89.0
127.0,124.0,126.0,124.0,127.0,124.0,127.0,127.0,17.0,-104.0,-83.0,127.0,127.0,127.0,110.0,84.0,-89.0
127.0,125.0,126.0,123.0,127.0,125.0,127.0,127.0,17.0,-104.0,-83.0,127.0,127.0,127.0,110.0,84.0,-89.0
127.0,125.0,126.0,122.0,128.0,125.0,127.0,127.0,17.0,-104.0,-83.0,127.0,127.0,127.0,110.0,84.0,-89.0
127.0,123.0,127.0,127.0,126.0,123.0,126.0,127.0,17.0,-104.0,-83.0,127.0,127.0,127.0,110.0,84.0,-89.0
127.0,123.0,127.0,127.0,126.0,124.0,126.0,127.0,17.0,-104.0,-83.0,127.0,127.0,127.0,110.0,84.0,-89.0
127.0,124.0,126.0,127.0,126.0,124.0,126.0,127.0,17.0,-104.0,-83.0,127.0,127.0,127.0,110.0,84.0,-89.0
127.0,124.0,126.0,126.0,127.0,124.0,126.0,127.0,17.0,-104.0,-83.0,127.0,127.0,127.0,110.0,84.0,-89.0
127.0,124.0,126.0,126.0,127.0,124.0,127.0,127.0,17.0,-104.0,-83.0,127.0,127.0,127.0,110.0,84.0,-89.0
127.0,124.0,126.0,125.0,127.0,124.0,127.0,127.0,17.0,-104.0,-83.0,127.0,127.0,127.0,110.0,84.0,-89.0
127.0,125.0,128.0,123.0,127.0,124.0,127.0,129.0,17.0,-104.0,-83.0,127.0,127.0,127.0,110.0,84.0,-89.0
127.0,125.0,127.0,123.0,127.0,126.0,127.0,129.0,17.0,-104.0,-83.0,127.0,127.0,127.0,110.0,84.0,-89.0
127.0,125.0,127.0,123.0,127.0,126.0,127.0,129.0,17.0,-104.0,-83.0,127.0,127.0,127.0,110.0,84.0,-89.0
127.0,124.0,129.0,123.0,127.0,123.0,127.0,129.0,17.0,-104.0,-83.0,127.0,127.0,127.0,110.0,84.0,-89.0
127.0,124.0,128.0,123.0,127.0,123.0,127.0,129.0,17.0,-104.0,-83.0,127.0,127.0,127.0,110.0,84.0,-89.0
127.0,125.0,128.0,123.0,127.0,125.0,127.0,129.0,17.0,-104.0,-83.0,127.0,127.0,127.0,110.0,84.0,-89.0
127.0,125.0,128.0,123.0,127.0,125.0,127.0,129.0,17.0,-104.0,-83.0,127.0,127.0,127.0,110.0,84.0,-89.0
127.0,125.0,128.0,123.0,127.0,124.0,127.0,129.0,17.0,-104.0,-83.0,127.0,127.0,127.0,110.0,84.0,-89.0
127.0,125.0,128.0,123.0,127.0,124.0,127.0,129.0,17.0,-104.0,-83.0,127.0,127.0,127.0,110.0,84.0,-89.0
127.0,125.0,128.0,123.0,127.0,124.0,127.0,129.0,17.0,-104.0,-83.0,127.0,127.0,127.0,110.0,84.0,-89.0
127.0,124.0,129.0,123.0,127.0,126.0,127.0,128.0,17.0,-104.0,-82.0,127.0,127.0,127.0,110.0,84.0,-89.0
127.0,124.0,129.0,123.0,127.0,127.0,127.0,128.0,17.0,-104.0,-82.0,127.0,127.0,127.0,110.0,84.0,-89.0
127.0,124.0,128.0,122.0,126.0,124.0,127.0,128.0,17.0,-104.0,-82.0,127.0,127.0,127.0,110.0,84.0,-89.0
127.0,124.0,128.0,122.0,126.0,124.0,127.0,128.0,17.0,-104.0,-82.0,127.0,127.0,127.0,110.0,84.0,-89.0
127.0,124.0,128.0,123.0,126.0,126.0,127.0,128.0,17.0,-104.0,-82.0,127.0,127.0,127.0,110.0,84.0,-89.0
127.0,124.0,128.0,123.0,126.0,126.0,127.0,128.0,17.0,-104.0,-82.0,127.0,127.0,127.0,110.0,84.0,-89.0
127.0,124.0,128.0,123.0,126.0,125.0,127.0,128.0,17.0,-104.0,-82.0,127.0,127.0,127.0,110.0,84.0,-89.0
127.0,124.0,128.0,123.0,127.0,125.0,127.0,128.0,17.0,-104.0,-82.0,127.0,127.0,127.0,110.0,84.0,-89.0
127.0,124.0,129.0,123.0,127.0,125.0,127.0,128.0,17.0,-104.0,-82.0,127.0,127.0,127.0,110.0,84.0,-89.0
127.0,124.0,129.0,123.0,127.0,125.0,127.0,128.0,17.0,-104.0,-82.0,127.0,127.0,127.0,110.0,84.0,-89.0
127.0,125.0,128.0,121.0,127.0,126.0,127.0,128.0,17.0,-104.0,-82.0,127.0,127.0,127.0,110.0,84.0,-89.0
127.0,124.0,129.0,121.0,127.0,123.0,127.0,129.0,17.0,-104.0,-82.0,127.0,127.0,127.0,110.0,84.0,-89.0
127.0,124.0,129.0,121.0,127.0,123.0,127.0,129.0,17.0,-104.0,-82.0,127.0,127.0,127.0,110.0,84.0,-89.0
127.0,125.0,128.0,121.0,127.0,125.0,127.0,129.0,17.0,-104.0,-82.0,127.0,127.0,127.0,110.0,84.0,-89.0
127.0,125.0,128.0,121.0,127.0,125.0,127.0,129.0,17.0,-104.0,-82.0,127.0,127.0,127.0,110.0,84.0,-89.0
127.0,125.0,128.0,121.0,127.0,125.0,127.0,129.0,17.0,-104.0,-82.0,127.0,127.0,127.0,110.0,84.0,-89.0
127.0,125.0,128.0,121.0,127.0,125.0,127.0,128.0,17.0,-104.0,-82.0,127.0,127.0,127.0,110.0,84.0,-89.0
127.0,124.0,128.0,121.0,127.0,125.0,127.0,128.0,17.0,-104.0,-82.0,127.0,127.0,127.0,110.0,84.0,-89.0
127.0,124.0,128.0,121.0,127.0,124.0,127.0,128.0,17.0,-104.0,-82.0,127.0,127.0,127.0,110.0,84.0,-89.0
127.0,125.0,128.0,121.0,127.0,126.0,127.0,128.0,17.0,-104.0,-82.0,127.0,127.0,127.0,110.0,84.0,-89.0
127.0,125.0,128.0,122.0,127.0,123.0,127.0,129.0,17.0,-104.0,-82.0,127.0,127.0,127.0,110.0,84.0,-89.0
127.0,125.0,127.0,121.0,127.0,123.0,127.0,129.0,17.0,-104.0,-82.0,127.0,127.0,127.0,110.0,84.0,-89.0
127.0,125.0,127.0,121.0,127.0,124.0,127.0,129.0,17.0,-104.0,-82.0,127.0,127.0,127.0,110.0,84.0,-89.0
127.0,125.0,126.0,121.0,128.0,125.0,127.0,129.0,17.0,-104.0,-82.0,127.0,127.0,127.0,110.0,84.0,-89.0
127.0,125.0,126.0,121.0,127.0,124.0,127.0,129.0,17.0,-104.0,-82.0,127.0,127.0,127.0,110.0,84.0,-89.0
127.0,125.0,126.0,120.0,127.0,124.0,127.0,128.0,17.0,-104.0,-82.0,127.0,127.0,127.0,110.0,84.0,-89.0
127.0,125.0,127.0,120.0,127.0,124.0,127.0,128.0,17.0,-104.0,-82.0,127.0,127.0,127.0,110.0,84.0,-89.0
127.0,125.0,127.0,120.0,127.0,124.0,127.0,128.0,17.0,-104.0,-82.0,127.0,127.0,127.0,110.0,84.0,-89.0
127.0,125.0,127.0,120.0,127.0,125.0,127.0,128.0,17.0,-104.0,-82.0,127.0,127.0,127.0,110.0,84.0,-89.0
127.0,125.0,127.0,121.0,127.0,126.0,127.0,128.0,17.0,-104.0,-82.0,127.0,127.0,127.0,110.0,84.0,-89.0
127.0,125.0,128.0,123.0,126.0,123.0,126.0,127.0,17.0,-104.0,-82.0,127.0,127.0,127.0,110.0,84.0,-89.0
127.0,124.0,128.0,123.0,126.0,122.0,126.0,127.0,17.0,-104.0,-82.0,127.0,127.0,127.0,110.0,84.0,-89.0
127.0,124.0,128.0,123.0,126.0,123.0,126.0,127.0,17.0,-104.0,-82.0,127.0,127.0,127.0,110.0,84.0,-89.0
127.0,124.0,128.0,123.0,126.0,122.0,126.0,127.0,17.0,-104.0,-82.0,127.0,127.0,127.0,110.0,84.0,-89.0
127.0,124.0,128.0,123.0,126.0,122.0,126.0,127.0,17.0,-104.0,-82.0,127.0,127.0,127.0,110.0,84.0,-89.0
127.0,124.0,128.0,123.0,126.0,122.0,126.0,127.0,17.0,-104.0,-82.0,127.0,127.0,127.0,110.0,84.0,-89.0
127.0,124.0,128.0,123.0,126.0,122.0,126.0,127.0,17.0,-104.0,-82.0,127.0,127.0,127.0,110.0,84.0,-89.0
127.0,124.0,128.0,123.0,126.0,122.0,126.0,127.0,17.0,-104.0,-82.0,127.0,127.0,127.0,110.0,84.0,-89.0
127.0,124.0,128.0,123.0,126.0,122.0,126.0,127.0,17.0,-104.0,-82.0,127.0,127.0,127.0,110.0,84.0,-89.0
127.0,125.0,128.0,123.0,126.0,123.0,126.0,127.0,17.0,-104.0,-82.0,127.0,127.0,127.0,110.0,84.0,-89.0
127.0,125.0,129.0,125.0,127.0,125.0,127.0,128.0,17.0,-104.0,-82.0,127.0,127.0,127.0,110.0,84.0,-89.0
127.0,125.0,129.0,125.0,127.0,125.0,127.0,128.0,17.0,-104.0,-82.0,127.0,127.0,127.0,110.0,84.0,-89.0
127.0,125.0,129.0,125.0,127.0,125.0,127.0,127.0,17.0,-104.0,-82.0,127.0,127.0,127.0,110.0,84.0,-89.0
127.0,125.0,129.0,124.0,128.0,126.0,127.0,127.0,17.0,-104.0,-82.0,127.0,127.0,127.0,110.0,84.0,-89.0
127.0,125.0,129.0,124.0,128.0,127.0,127.0,127.0,17.0,-104.0,-82.0,127.0,127.0,127.0,110.0,84.0,-89.0
127.0,125.0,129.0,124.0,127.0,127.0,127.0,127.0,17.0,-104.0,-82.0,127.0,127.0,127.0,110.0,84.0,-89.0
127.0,125.0,129.0,124.0,127.0,127.0,127.0,127.0,17.0,-104.0,-82.0,127.0,127.0,127.0,110.0,84.0,-89.0
127.0,126.0,129.0,124.0,127.0,128.0,127.0,127.0,17.0,-104.0,-82.0,127.0,127.0,127.0,110.0,84.0,-89.0
127.0,125.0,129.0,124.0,128.0,126.0,127.0,128.0,17.0,-104.0,-82.0,127.0,127.0,127.0,110.0,84.0,-89.0
127.0,125.0,129.0,125.0,128.0,125.0,127.0,128.0,17.0,-104.0,-82.0,127.0,127.0,127.0,110.0,84.0,-89.0
127.0,125.0,127.0,129.0,127.0,125.0,127.0,129.0,17.0,-104.0,-82.0,127.0,127.0,127.0,110.0,84.0,-89.0
127.0,125.0,128.0,129.0,127.0,125.0,127.0,129.0,17.0,-104.0,-82.0,127.0,127.0,127.0,110.0,84.0,-89.0
127.0,125.0,128.0,130.0,127.0,124.0,127.0,129.0,17.0,-104.0,-82.0,127.0,127.0,127.0,110.0,84.0,-89.0
127.0,125.0,128.0,130.0,127.0,124.0,127.0,129.0,17.0,-104.0,-82.0,127.0,127.0,127.0,110.0,84.0,-89.0
128.0,126.0,129.0,130.0,127.0,124.0,127.0,129.0,17.0,-104.0,-82.0,127.0,127.0,127.0,110.0,84.0,-89.0
128.0,126.0,129.0,130.0,127.0,124.0,127.0,129.0,17.0,-104.0,-82.0,127.0,127.0,127.0,110.0,84.0,-89.0
128.0,126.0,128.0,131.0,127.0,125.0,127.0,129.0,17.0,-104.0,-82.0,127.0,127.0,127.0,110.0,84.0,-89.0
127.0,123.0,128.0,128.0,126.0,122.0,127.0,129.0,17.0,-104.0,-82.0,127.0,127.0,127.0,110.0,84.0,-89.0
127.0,124.0,128.0,128.0,126.0,122.0,127.0,129.0,17.0,-104.0,-82.0,127.0,127.0,127.0,110.0,84.0,-89.0
127.0,124.0,127.0,128.0,127.0,124.0,127.0,129.0,17.0,-104.0,-82.0,127.0,127.0,127.0,110.0,84.0,-89.0
127.0,124.0,131.0,132.0,126.0,123.0,126.0,125.0,17.0,-104.0,-82.0,127.0,127.0,127.0,110.0,84.0,-89.0
127.0,124.0,132.0,132.0,126.0,123.0,126.0,125.0,17.0,-104.0,-82.0,127.0,127.0,127.0,110.0,84.0,-89.0
127.0,123.0,132.0,132.0,126.0,122.0,126.0,124.0,17.0,-104.0,-82.0,127.0,127.0,127.0,110.0,84.0,-89.0
127.0,123.0,132.0,132.0,126.0,123.0,126.0,124.0,17.0,-104.0,-82.0,127.0,127.0,127.0,110.0,84.0,-89.0
126.0,123.0,132.0,132.0,126.0,123.0,126.0,124.0,17.0,-104.0,-82.0,127.0,127.0,127.0,110.0,84.0,-89.0
127.0,124.0,132.0,133.0,126.0,124.0,126.0,125.0,17.0,-104.0,-82.0,127.0,127.0,127.0,110.0,84.0,-89.0
127.0,124.0,131.0,132.0,127.0,121.0,126.0,127.0,17.0,-104.0,-82.0,127.0,127.0,127.0,110.0,84.0,-89.0
127.0,124.0,131.0,132.0,126.0,121.0,126.0,127.0,17.0,-104.0,-82.0,127.0,127.0,127.0,110.0,84.0,-89.0
127.0,124.0,131.0,131.0,126.0,122.0,126.0,126.0,17.0,-104.0,-82.0,127.0,127.0,127.0,110.0,84.0,-89.0
127.0,124.0,131.0,131.0,126.0,123.0,126.0,126.0,17.0,-104.0,-82.0,127.0,127.0,127.0,110.0,84.0,-89.0
127.0,125.0,138.0,134.0,127.0,123.0,127.0,128.0,17.0,-104.0,-82.0,127.0,127.0,127.0,110.0,84.0,-89.0
127.0,125.0,138.0,134.0,127.0,123.0,127.0,127.0,17.0,-104.0,-82.0,127.0,127.0,127.0,110.0,84.0,-89.0
127.0,125.0,138.0,134.0,127.0,123.0,127.0,127.0,17.0,-104.0,-82.0,127.0,127.0,127.0,110.0,84.0,-89.0
127.0,125.0,138.0,134.0,127.0,123.0,127.0,127.0,17.0,-104.0,-82.0,127.0,127.0,127.0,110.0,84.0,-89.0
127.0,125.0,138.0,134.0,127.0,123.0,127.0,128.0,17.0,-104.0,-82.0,127.0,127.0,127.0,110.0,84.0,-89.0
127.0,125.0,138.0,134.0,127.0,121.0,127.0,128.0,17.0,-104.0,-82.0,127.0,127.0,127.0,110.0,84.0,-89.0
127.0,125.0,138.0,134.0,127.0,122.0,127.0,128.0,17.0,-104.0,-82.0,127.0,127.0,127.0,110.0,84.0,-89.0
127.0,125.0,138.0,134.0,127.0,123.0,126.0,128.0,17.0,-104.0,-82.0,127.0,127.0,127.0,110.0,84.0,-89.0
127.0,125.0,137.0,134.0,127.0,124.0,126.0,128.0,17.0,-104.0,-82.0,127.0,127.0,127.0,110.0,84.0,-89.0
127.0,125.0,137.0,134.0,127.0,124.0,127.0,128.0,17.0,-104.0,-82.0,127.0,127.0,127.0,110.0,84.0,-89.0
127.0,125.0,136.0,136.0,126.0,126.0,127.0,127.0,17.0,-105.0,-82.0,127.0,127.0,127.0,110.0,84.0,-89.0
127.0,125.0,136.0,136.0,127.0,126.0,127.0,127.0,17.0,-105.0,-82.0,127.0,127.0,127.0,110.0,84.0,-89.0
127.0,125.0,136.0,136.0,127.0,126.0,127.0,128.0,17.0,-105.0,-82.0,127.0,127.0,127.0,110.0,84.0,-89.0
127.0,125.0,136.0,136.0,127.0,125.0,127.0,128.0,17.0,-105.0,-82.0,127.0,127.0,127.0,110.0,84.0,-89.0
127.0,124.0,136.0,133.0,126.0,126.0,127.0,127.0,17.0,-105.0,-82.0,127.0,127.0,127.0,110.0,84.0,-89.0
127.0,124.0,136.0,134.0,126.0,126.0,127.0,127.0,17.0,-105.0,-82.0,127.0,127.0,127.0,110.0,84.0,-89.0
127.0,124.0,136.0,135.0,126.0,126.0,127.0,127.0,17.0,-105.0,-82.0,127.0,127.0,127.0,110.0,84.0,-89.0
127.0,125.0,136.0,135.0,126.0,127.0,127.0,127.0,17.0,-105.0,-82.0,127.0,127.0,127.0,110.0,84.0,-89.0
127.0,125.0,136.0,136.0,126.0,127.0,127.0,127.0,17.0,-105.0,-82.0,127.0,127.0,127.0,110.0,84.0,-89.0
127.0,125.0,136.0,136.0,126.0,126.0,127.0,128.0,17.0,-105.0,-82.0,127.0,127.0,127.0,110.0,84.0,-89.0
127.0,124.0,135.0,135.0,127.0,129.0,127.0,127.0,17.0,-105.0,-81.0,127.0,127.0,127.0,110.0,84.0,-89.0
127.0,124.0,135.0,135.0,127.0,129.0,127.0,127.0,17.0,-105.0,-81.0,127.0,127.0,127.0,110.0,84.0,-89.0
126.0,124.0,135.0,135.0,127.0,128.0,127.0,127.0,17.0,-105.0,-81.0,127.0,127.0,127.0,110.0,84.0,-89.0
127.0,124.0,136.0,135.0,127.0,127.0,127.0,128.0,17.0,-105.0,-81.0,127.0,127.0,127.0,110.0,84.0,-89.0
127.0,124.0,135.0,135.0,127.0,128.0,127.0,128.0,17.0,-105.0,-81.0,127.0,127.0,127.0,110.0,84.0,-89.0
127.0,124.0,135.0,135.0,127.0,128.0,127.0,127.0,17.0,-105.0,-81.0,127.0,127.0,127.0,110.0,84.0,-89.0
127.0,124.0,135.0,135.0,127.0,129.0,127.0,128.0,17.0,-105.0,-81.0,127.0,127.0,127.0,110.0,84.0,-89.0
127.0,124.0,135.0,135.0,127.0,129.0,127.0,127.0,17.0,-105.0,-81.0,127.0,127.0,127.0,110.0,84.0,-89.0
127.0,124.0,135.0,135.0,127.0,129.0,127.0,128.0,17.0,-105.0,-81.0,127.0,127.0,127.0,110.0,84.0,-89.0
127.0,124.0,135.0,135.0,127.0,129.0,127.0,127.0,17.0,-105.0,-81.0,127.0,127.0,127.0,110.0,84.0,-89.0
127.0,125.0,132.0,134.0,127.0,129.0,127.0,128.0,17.0,-105.0,-81.0,127.0,127.0,127.0,110.0,84.0,-89.0
128.0,125.0,134.0,135.0,127.0,127.0,127.0,128.0,17.0,-105.0,-81.0,127.0,127.0,127.0,110.0,84.0,-89.0
128.0,125.0,134.0,134.0,127.0,127.0,127.0,128.0,17.0,-105.0,-81.0,127.0,127.0,127.0,110.0,84.0,-89.0
128.0,125.0,134.0,134.0,127.0,127.0,127.0,128.0,17.0,-105.0,-81.0,127.0,127.0,127.0,110.0,84.0,-89.0
127.0,125.0,133.0,134.0,127.0,127.0,127.0,128.0,17.0,-105.0,-81.0,127.0,127.0,127.0,110.0,84.0,-89.0
127.0,126.0,133.0,134.0,127.0,129.0,127.0,128.0,17.0,-105.0,-81.0,127.0,127.0,127.0,110.0,84.0,-89.0
127.0,125.0,133.0,134.0,127.0,129.0,127.0,128.0,17.0,-105.0,-81.0,127.0,127.0,127.0,110.0,84.0,-89.0
127.0,125.0,133.0,134.0,127.0,129.0,127.0,128.0,17.0,-105.0,-81.0,127.0,127.0,127.0,110.0,84.0,-89.0
127.0,125.0,132.0,134.0,127.0,129.0,127.0,128.0,17.0,-105.0,-81.0,127.0,127.0,127.0,110.0,84.0,-89.0
127.0,125.0,132.0,134.0,127.0,129.0,127.0,128.0,17.0,-105.0,-81.0,127.0,127.0,127.0,110.0,84.0,-89.0
126.0,122.0,133.0,134.0,126.0,127.0,127.0,126.0,18.0,-105.0,-80.0,127.0,127.0,127.0,110.0,84.0,-89.0
126.0,122.0,133.0,134.0,126.0,127.0,127.0,125.0,18.0,-105.0,-80.0,127.0,127.0,127.0,110.0,84.0,-89.0
126.0,122.0,133.0,134.0,126.0,127.0,127.0,125.0,18.0,-105.0,-80.0,127.0,127.0,127.0,110.0,84.0,-89.0
126.0,122.0,134.0,134.0,126.0,127.0,126.0,126.0,18.0,-105.0,-80.0,127.0,127.0,127.0,110.0,84.0,-89.0
126.0,122.0,134.0,134.0,126.0,128.0,127.0,126.0,18.0,-105.0,-80.0,127.0,127.0,127.0,110.0,84.0,-89.0
126.0,122.0,134.0,134.0,127.0,128.0,126.0,126.0,18.0,-105.0,-80.0,127.0,127.0,127.0,110.0,84.0,-89.0
126.0,122.0,134.0,134.0,127.0,128.0,126.0,126.0,18.0,-105.0,-80.0,127.0,127.0,127.0,110.0,84.0,-89.0
126.0,122.0,133.0,134.0,127.0,130.0,126.0,126.0,18.0,-105.0,-80.0,127.0,127.0,127.0,110.0,84.0,-89.0
126.0,123.0,133.0,134.0,127.0,130.0,126.0,126.0,18.0,-105.0,-80.0,127.0,127.0,127.0,110.0,84.0,-89.0
126.0,123.0,133.0,133.0,127.0,130.0,127.0,126.0,18.0,-105.0,-80.0,127.0,127.0,127.0,110.0,84.0,-89.0
127.0,125.0,137.0,136.0,127.0,137.0,127.0,127.0,18.0,-105.0,-80.0,127.0,127.0,127.0,110.0,84.0,-89.0
127.0,125.0,136.0,135.0,127.0,137.0,127.0,127.0,18.0,-105.0,-80.0,127.0,127.0,127.0,110.0,84.0,-89.0
127.0,125.0,136.0,135.0,127.0,137.0,127.0,127.0,18.0,-105.0,-80.0,127.0,127.0,127.0,110.0,84.0,-89.0
127.0,125.0,136.0,135.0,127.0,137.0,127.0,127.0,18.0,-105.0,-80.0,127.0,127.0,127.0,110.0,84.0,-89.0
127.0,125.0,136.0,135.0,127.0,137.0,127.0,127.0,18.0,-105.0,-80.0,127.0,127.0,127.0,110.0,84.0,-89.0
127.0,125.0,136.0,135.0,127.0,137.0,127.0,127.0,18.0,-105.0,-80.0,127.0,127.0,127.0,110.0,84.0,-89.0
127.0,125.0,137.0,135.0,127.0,137.0,127.0,127.0,18.0,-105.0,-80.0,127.0,127.0,127.0,110.0,84.0,-89.0
126.0,124.0,137.0,135.0,127.0,137.0,127.0,127.0,18.0,-105.0,-80.0,127.0,127.0,127.0,110.0,84.0,-89.0
127.0,124.0,137.0,135.0,127.0,137.0,127.0,127.0,18.0,-105.0,-80.0,127.0,127.0,127.0,110.0,84.0,-89.0
127.0,125.0,137.0,136.0,127.0,136.0,127.0,127.0,18.0,-105.0,-80.0,127.0,127.0,127.0,110.0,84.0,-89.0
127.0,125.0,133.0,135.0,128.0,141.0,127.0,128.0,18.0,-105.0,-80.0,127.0,127.0,127.0,110.0,84.0,-89.0
127.0,125.0,133.0,135.0,128.0,141.0,127.0,128.0,18.0,-105.0,-80.0,127.0,127.0,127.0,110.0,84.0,-89.0
127.0,125.0,133.0,135.0,128.0,140.0,127.0,128.0,18.0,-105.0,-80.0,127.0,127.0,127.0,110.0,84.0,-89.0
127.0,125.0,133.0,135.0,127.0,140.0,127.0,128.0,18.0,-105.0,-80.0,127.0,127.0,127.0,110.0,84.0,-89.0
127.0,124.0,133.0,135.0,127.0,140.0,127.0,128.0,18.0,-105.0,-80.0,127.0,127.0,127.0,110.0,84.0,-89.0
127.0,124.0,133.0,135.0,127.0,140.0,127.0,128.0,18.0,-105.0,-80.0,127.0,127.0,127.0,110.0,84.0,-89.0
127.0,124.0,132.0,134.0,127.0,139.0,127.0,128.0,18.0,-105.0,-80.0,127.0,127.0,127.0,110.0,84.0,-89.0
127.0,124.0,132.0,134.0,127.0,139.0,127.0,128.0,18.0,-105.0,-80.0,127.0,127.0,127.0,110.0,84.0,-89.0
127.0,124.0,133.0,134.0,127.0,139.0,127.0,128.0,18.0,-105.0,-80.0,127.0,127.0,127.0,110.0,84.0,-89.0
127.0,125.0,133.0,135.0,127.0,141.0,127.0,128.0,18.0,-105.0,-80.0,127.0,127.0,127.0,110.0,84.0,-89.0
127.0,124.0,128.0,135.0,126.0,136.0,127.0,127.0,19.0,-105.0,-79.0,127.0,127.0,127.0,110.0,84.0,-89.0
127.0,124.0,128.0,135.0,126.0,135.0,127.0,127.0,19.0,-105.0,-79.0,127.0,127.0,127.0,110.0,84.0,-89.0
127.0,123.0,128.0,135.0,126.0,135.0,127.0,127.0,19.0,-105.0,-79.0,127.0,127.0,127.0,110.0,84.0,-89.0
127.0,123.0,128.0,135.0,126.0,135.0,127.0,127.0,19.0,-105.0,-79.0,127.0,127.0,127.0,110.0,84.0,-89.0
127.0,123.0,128.0,135.0,126.0,135.0,127.0,127.0,19.0,-105.0,-79.0,127.0,127.0,127.0,110.0,84.0,-89.0
127.0,123.0,128.0,135.0,126.0,135.0,127.0,127.0,19.0,-105.0,-79.0,127.0,127.0,127.0,110.0,84.0,-89.0
127.0,123.0,128.0,135.0,126.0,135.0,127.0,127.0,19.0,-105.0,-79.0,127.0,127.0,127.0,110.0,84.0,-89.0
127.0,123.0,129.0,135.0,126.0,134.0,127.0,127.0,19.0,-105.0,-79.0,127.0,127.0,127.0,110.0,84.0,-89.0
127.0,124.0,129.0,135.0,126.0,136.0,127.0,127.0,19.0,-105.0,-79.0,127.0,127.0,127.0,110.0,84.0,-89.0
127.0,124.0,128.0,135.0,126.0,136.0,127.0,127.0,19.0,-105.0,-79.0,127.0,127.0,127.0,110.0,84.0,-89.0
127.0,124.0,128.0,136.0,127.0,139.0,127.0,128.0,19.0,-105.0,-79.0,127.0,127.0,127.0,110.0,84.0,-89.0
127.0,124.0,128.0,136.0,127.0,138.0,127.0,128.0,19.0,-105.0,-79.0,127.0,127.0,127.0,110.0,84.0,-89.0
127.0,124.0,127.0,136.0,127.0,138.0,127.0,128.0,19.0,-105.0,-79.0,127.0,127.0,127.0,110.0,84.0,-89.0
127.0,124.0,127.0,136.0,127.0,138.0,127.0,128.0,19.0,-105.0,-79.0,127.0,127.0,127.0,110.0,84.0,-89.0
127.0,124.0,127.0,136.0,127.0,138.0,127.0,128.0,19.0,-105.0,-79.0,127.0,127.0,127.0,110.0,84.0,-89.0
127.0,124.0,127.0,136.0,127.0,138.0,127.0,128.0,19.0,-105.0,-79.0,127.0,127.0,127.0,110.0,84.0,-89.0
127.0,124.0,128.0,136.0,127.0,137.0,127.0,127.0,19.0,-105.0,-79.0,127.0,127.0,127.0,110.0,84.0,-89.0
127.0,124.0,128.0,136.0,127.0,138.0,127.0,128.0,19.0,-105.0,-79.0,127.0,127.0,127.0,110.0,84.0,-89.0
127.0,125.0,128.0,136.0,127.0,139.0,127.0,128.0,19.0,-105.0,-79.0,127.0,127.0,127.0,110.0,84.0,-89.0
127.0,124.0,128.0,136.0,127.0,139.0,127.0,128.0,19.0,-105.0,-79.0,127.0,127.0,127.0,110.0,84.0,-89.0
127.0,123.0,124.0,135.0,127.0,135.0,127.0,127.0,19.0,-105.0,-78.0,127.0,127.0,127.0,110.0,84.0,-89.0
127.0,124.0,124.0,135.0,127.0,135.0,127.0,127.0,19.0,-105.0,-78.0,127.0,127.0,127.0,110.0,84.0,-89.0
127.0,123.0,124.0,135.0,127.0,134.0,127.0,127.0,19.0,-105.0,-78.0,127.0,127.0,127.0,110.0,84.0,-89.0
127.0,123.0,124.0,135.0,127.0,134.0,127.0,127.0,19.0,-105.0,-78.0,127.0,127.0,127.0,110.0,84.0,-89.0
127.0,123.0,124.0,135.0,127.0,133.0,127.0,127.0,19.0,-105.0,-78.0,127.0,127.0,127.0,110.0,84.0,-89.0
127.0,123.0,125.0,136.0,127.0,134.0,127.0,127.0,19.0,-105.0,-78.0,127.0,127.0,127.0,110.0,84.0,-89.0
127.0,123.0,124.0,136.0,127.0,135.0,127.0,127.0,19.0,-105.0,-78.0,127.0,127.0,127.0,110.0,84.0,-89.0
127.0,124.0,124.0,136.0,127.0,135.0,127.0,127.0,19.0,-105.0,-78.0,127.0,127.0,127.0,110.0,84.0,-89.0
127.0,124.0,124.0,136.0,127.0,135.0,127.0,127.0,19.0,-105.0,-78.0,127.0,127.0,127.0,110.0,84.0,-89.0
127.0,124.0,124.0,135.0,127.0,135.0,127.0,127.0,19.0,-105.0,-78.0,127.0,127.0,127.0,110.0,84.0,-89.0
127.0,124.0,118.0,134.0,126.0,135.0,127.0,128.0,20.0,-105.0,-78.0,127.0,127.0,127.0,110.0,84.0,-89.0
127.0,124.0,118.0,134.0,126.0,135.0,127.0,128.0,20.0,-105.0,-78.0,127.0,127.0,127.0,110.0,84.0,-89.0
127.0,124.0,118.0,134.0,126.0,135.0,127.0,128.0,20.0,-105.0,-78.0,127.0,127.0,127.0,110.0,84.0,-89.0
127.0,124.0,118.0,134.0,126.0,135.0,127.0,128.0,20.0,-105.0,-78.0,127.0,127.0,127.0,110.0,84.0,-89.0
127.0,124.0,119.0,135.0,127.0,133.0,127.0,127.0,20.0,-105.0,-78.0,127.0,127.0,127.0,110.0,84.0,-89.0
127.0,124.0,119.0,134.0,127.0,134.0,127.0,127.0,20.0,-105.0,-78.0,127.0,127.0,127.0,110.0,84.0,-89.0
127.0,124.0,118.0,135.0,127.0,135.0,127.0,128.0,20.0,-105.0,-78.0,127.0,127.0,127.0,110.0,84.0,-89.0
127.0,124.0,118.0,134.0,126.0,135.0,127.0,128.0,20.0,-105.0,-78.0,127.0,127.0,127.0,110.0,84.0,-89.0
127.0,124.0,118.0,134.0,126.0,135.0,127.0,128.0,20.0,-105.0,-78.0,127.0,127.0,127.0,110.0,84.0,-89.0
127.0,124.0,118.0,134.0,126.0,135.0,127.0,128.0,20.0,-105.0,-78.0,127.0,127.0,127.0,110.0,84.0,-89.0
127.0,124.0,119.0,135.0,127.0,140.0,127.0,128.0,20.0,-105.0,-78.0,127.0,127.0,127.0,110.0,84.0,-89.0
127.0,124.0,119.0,135.0,127.0,139.0,127.0,128.0,20.0,-105.0,-78.0,127.0,127.0,127.0,110.0,84.0,-89.0
127.0,124.0,119.0,135.0,127.0,139.0,127.0,128.0,20.0,-105.0,-78.0,127.0,127.0,127.0,110.0,84.0,-89.0
127.0,124.0,118.0,135.0,126.0,139.0,127.0,128.0,20.0,-105.0,-78.0,127.0,127.0,127.0,110.0,84.0,-89.0
127.0,124.0,118.0,135.0,127.0,139.0,126.0,128.0,20.0,-105.0,-78.0,127.0,127.0,127.0,110.0,84.0,-89.0
127.0,124.0,118.0,135.0,127.0,140.0,127.0,128.0,20.0,-105.0,-78.0,127.0,127.0,127.0,110.0,84.0,-89.0
127.0,124.0,118.0,135.0,127.0,140.0,127.0,128.0,20.0,-105.0,-78.0,127.0,127.0,127.0,110.0,84.0,-89.0
127.0,124.0,118.0,135.0,127.0,140.0,127.0,128.0,20.0,-105.0,-78.0,127.0,127.0,127.0,110.0,84.0,-89.0
127.0,124.0,119.0,135.0,127.0,140.0,127.0,128.0,20.0,-105.0,-78.0,127.0,127.0,127.0,110.0,84.0,-89.0
127.0,124.0,119.0,135.0,127.0,140.0,127.0,128.0,20.0,-105.0,-78.0,127.0,127.0,127.0,110.0,84.0,-89.0
126.0,124.0,123.0,135.0,127.0,135.0,127.0,128.0,20.0,-105.0,-78.0,127.0,127.0,127.0,110.0,84.0,-89.0
126.0,124.0,123.0,135.0,126.0,135.0,127.0,128.0,20.0,-105.0,-78.0,127.0,127.0,127.0,110.0,84.0,-89.0
126.0,124.0,124.0,135.0,127.0,134.0,127.0,128.0,20.0,-105.0,-78.0,127.0,127.0,127.0,110.0,84.0,-89.0
126.0,124.0,124.0,135.0,127.0,134.0,127.0,128.0,20.0,-105.0,-78.0,127.0,127.0,127.0,110.0,84.0,-89.0
126.0,124.0,124.0,135.0,127.0,134.0,127.0,128.0,20.0,-105.0,-78.0,127.0,127.0,127.0,110.0,84.0,-89.0
126.0,124.0,124.0,135.0,127.0,134.0,127.0,128.0,20.0,-105.0,-78.0,127.0,127.0,127.0,110.0,84.0,-89.0
126.0,124.0,124.0,135.0,127.0,134.0,127.0,128.0,20.0,-105.0,-78.0,127.0,127.0,127.0,110.0,84.0,-89.0
126.0,124.0,123.0,135.0,127.0,135.0,127.0,128.0,20.0,-105.0,-78.0,127.0,127.0,127.0,110.0,84.0,-89.0
126.0,124.0,123.0,135.0,127.0,136.0,127.0,128.0,20.0,-105.0,-78.0,127.0,127.0,127.0,110.0,84.0,-89.0
126.0,124.0,123.0,135.0,127.0,135.0,127.0,128.0,20.0,-105.0,-78.0,127.0,127.0,127.0,110.0,84.0,-89.0
127.0,124.0,122.0,136.0,127.0,130.0,127.0,128.0,21.0,-106.0,-78.0,127.0,127.0,127.0,110.0,84.0,-89.0
127.0,125.0,121.0,136.0,127.0,132.0,127.0,128.0,21.0,-106.0,-78.0,127.0,127.0,127.0,110.0,84.0,-89.0
127.0,125.0,121.0,136.0,127.0,132.0,127.0,128.0,21.0,-106.0,-78.0,127.0,127.0,127.0,110.0,84.0,-89.0
127.0,125.0,121.0,136.0,127.0,132.0,127.0,128.0,21.0,-106.0,-78.0,127.0,127.0,127.0,110.0,84.0,-89.0
127.0,125.0,121.0,136.0,127.0,132.0,127.0,128.0,21.0,-106.0,-78.0,127.0,127.0,127.0,110.0,84.0,-89.0
127.0,125.0,121.0,136.0,127.0,131.0,127.0,128.0,21.0,-106.0,-78.0,127.0,127.0,127.0,110.0,84.0,-89.0
127.0,124.0,121.0,136.0,127.0,131.0,127.0,128.0,21.0,-106.0,-78.0,127.0,127.0,127.0,110.0,84.0,-89.0
127.0,124.0,121.0,136.0,127.0,131.0,127.0,128.0,21.0,-106.0,-78.0,127.0,127.0,127.0,110.0,84.0,-89.0
127.0,124.0,121.0,136.0,127.0,130.0,127.0,128.0,21.0,-106.0,-78.0,127.0,127.0,127.0,110.0,84.0,-89.0
127.0,124.0,121.0,136.0,127.0,130.0,127.0,128.0,21.0,-106.0,-78.0,127.0,127.0,127.0,110.0,84.0,-89.0
127.0,124.0,119.0,134.0,126.0,132.0,126.0,128.0,21.0,-105.0,-78.0,127.0,127.0,127.0,110.0,84.0,-89.0
127.0,124.0,119.0,134.0,126.0,132.0,127.0,128.0,21.0,-105.0,-78.0,127.0,127.0,127.0,110.0,84.0,-89.0
127.0,124.0,120.0,134.0,126.0,132.0,127.0,128.0,21.0,-105.0,-78.0,127.0,127.0,127.0,110.0,84.0,-89.0
127.0,124.0,120.0,134.0,127.0,132.0,127.0,128.0,21.0,-105.0,-78.0,127.0,127.0,127.0,110.0,84.0,-89.0
127.0,124.0,120.0,134.0,127.0,132.0,127.0,128.0,21.0,-105.0,-78.0,127.0,127.0,127.0,110.0,84.0,-89.0
127.0,124.0,120.0,134.0,126.0,131.0,127.0,128.0,21.0,-105.0,-78.0,127.0,127.0,127.0,110.0,84.0,-89.0
127.0,124.0,120.0,134.0,126.0,131.0,127.0,128.0,21.0,-105.0,-78.0,127.0,127.0,127.0,110.0,84.0,-89.0
127.0,124.0,120.0,134.0,126.0,131.0,127.0,128.0,21.0,-105.0,-78.0,127.0,127.0,127.0,110.0,84.0,-89.0
127.0,124.0,120.0,134.0,127.0,131.0,127.0,128.0,21.0,-105.0,-78.0,127.0,127.0,127.0,110.0,84.0,-89.0
127.0,124.0,120.0,134.0,127.0,131.0,127.0,128.0,21.0,-105.0,-78.0,127.0,127.0,127.0,110.0,84.0,-89.0
127.0,125.0,119.0,135.0,127.0,134.0,127.0,128.0,21.0,-105.0,-78.0,127.0,127.0,127.0,110.0,84.0,-89.0
127.0,125.0,119.0,134.0,127.0,133.0,127.0,128.0,21.0,-105.0,-78.0,127.0,127.0,127.0,110.0,84.0,-89.0
127.0,125.0,119.0,134.0,127.0,133.0,127.0,128.0,21.0,-105.0,-78.0,127.0,127.0,127.0,110.0,84.0,-89.0
127.0,125.0,119.0,134.0,127.0,133.0,127.0,128.0,21.0,-105.0,-78.0,127.0,127.0,127.0,110.0,84.0,-89.0
127.0,124.0,119.0,134.0,127.0,133.0,127.0,128.0,21.0,-105.0,-78.0,127.0,127.0,127.0,110.0,84.0,-89.0
127.0,124.0,120.0,134.0,127.0,132.0,127.0,128.0,21.0,-105.0,-78.0,127.0,127.0,127.0,110.0,84.0,-89.0
127.0,124.0,120.0,134.0,127.0,132.0,127.0,128.0,21.0,-105.0,-78.0,127.0,127.0,127.0,110.0,84.0,-89.0
127.0,124.0,120.0,134.0,127.0,132.0,127.0,128.0,21.0,-105.0,-78.0,127.0,127.0,127.0,110.0,84.0,-89.0
127.0,125.0,119.0,134.0,127.0,131.0,127.0,128.0,21.0,-105.0,-78.0,127.0,127.0,127.0,110.0,84.0,-89.0
127.0,125.0,119.0,135.0,127.0,134.0,127.0,128.0,21.0,-105.0,-78.0,127.0,127.0,127.0,110.0,84.0,-89.0
127.0,125.0,113.0,134.0,127.0,132.0,127.0,128.0,21.0,-105.0,-78.0,127.0,127.0,127.0,110.0,84.0,-89.0
127.0,125.0,114.0,134.0,127.0,133.0,127.0,128.0,21.0,-105.0,-78.0,127.0,127.0,127.0,110.0,84.0,-89.0
127.0,125.0,114.0,134.0,127.0,133.0,127.0,128.0,21.0,-105.0,-78.0,127.0,127.0,127.0,110.0,84.0,-89.0
127.0,124.0,114.0,133.0,127.0,132.0,127.0,128.0,21.0,-105.0,-78.0,127.0,127.0,127.0,110.0,84.0,-89.0
127.0,124.0,114.0,133.0,127.0,132.0,127.0,128.0,21.0,-105.0,-78.0,127.0,127.0,127.0,110.0,84.0,-89.0
127.0,124.0,114.0,133.0,127.0,132.0,127.0,128.0,21.0,-105.0,-78.0,127.0,127.0,127.0,110.0,84.0,-89.0
127.0,124.0,115.0,133.0,127.0,132.0,127.0,128.0,21.0,-105.0,-78.0,127.0,127.0,127.0,110.0,84.0,-89.0
127.0,125.0,113.0,134.0,127.0,133.0,126.0,128.0,21.0,-105.0,-78.0,127.0,127.0,127.0,110.0,84.0,-89.0
127.0,125.0,113.0,134.0,127.0,133.0,126.0,128.0,21.0,-105.0,-78.0,127.0,127.0,127.0,110.0,84.0,-89.0
127.0,125.0,113.0,134.0,127.0,133.0,126.0,128.0,21.0,-105.0,-78.0,127.0,127.0,127.0,110.0,84.0,-89.0
127.0,125.0,124.0,133.0,127.0,134.0,127.0,128.0,21.0,-105.0,-78.0,127.0,127.0,127.0,110.0,84.0,-89.0
127.0,126.0,124.0,133.0,127.0,134.0,127.0,128.0,21.0,-105.0,-78.0,127.0,127.0,127.0,110.0,84.0,-89.0
127.0,125.0,124.0,133.0,127.0,134.0,127.0,128.0,21.0,-105.0,-78.0,127.0,127.0,127.0,110.0,84.0,-89.0
127.0,125.0,125.0,133.0,127.0,134.0,127.0,128.0,21.0,-105.0,-78.0,127.0,127.0,127.0,110.0,84.0,-89.0
127.0,125.0,125.0,133.0,127.0,134.0,127.0,128.0,21.0,-105.0,-78.0,127.0,127.0,127.0,110.0,84.0,-89.0
127.0,125.0,125.0,133.0,127.0,133.0,127.0,128.0,21.0,-105.0,-78.0,127.0,127.0,127.0,110.0,84.0,-89.0
127.0,125.0,123.0,133.0,127.0,134.0,127.0,128.0,21.0,-105.0,-78.0,127.0,127.0,127.0,110.0,84.0,-89.0
127.0,125.0,123.0,133.0,127.0,134.0,127.0,128.0,21.0,-105.0,-78.0,127.0,127.0,127.0,110.0,84.0,-89.0
127.0,125.0,123.0,133.0,127.0,134.0,127.0,128.0,21.0,-105.0,-78.0,127.0,127.0,127.0,110.0,84.0,-89.0
127.0,125.0,123.0,133.0,127.0,134.0,127.0,128.0,21.0,-105.0,-78.0,127.0,127.0,127.0,110.0,84.0,-89.0
127.0,125.0,129.0,132.0,126.0,133.0,127.0,128.0,21.0,-106.0,-78.0,127.0,127.0,127.0,110.0,84.0,-89.0
127.0,125.0,129.0,132.0,126.0,133.0,127.0,128.0,21.0,-106.0,-78.0,127.0,127.0,127.0,110.0,84.0,-89.0
127.0,125.0,129.0,132.0,126.0,133.0,127.0,128.0,21.0,-106.0,-78.0,127.0,127.0,127.0,110.0,84.0,-89.0
127.0,125.0,129.0,132.0,126.0,133.0,127.0,128.0,21.0,-106.0,-78.0,127.0,127.0,127.0,110.0,84.0,-89.0
127.0,125.0,129.0,132.0,126.0,132.0,127.0,128.0,21.0,-106.0,-78.0,127.0,127.0,127.0,110.0,84.0,-89.0
127.0,125.0,129.0,132.0,127.0,133.0,126.0,128.0,21.0,-106.0,-78.0,127.0,127.0,127.0,110.0,84.0,-89.0
127.0,126.0,128.0,132.0,127.0,134.0,126.0,128.0,21.0,-106.0,-78.0,127.0,127.0,127.0,110.0,84.0,-89.0
127.0,126.0,128.0,132.0,127.0,134.0,126.0,128.0,21.0,-106.0,-78.0,127.0,127.0,127.0,110.0,84.0,-89.0
127.0,125.0,128.0,132.0,127.0,133.0,126.0,128.0,21.0,-106.0,-78.0,127.0,127.0,127.0,110.0,84.0,-89.0
127.0,125.0,128.0,132.0,126.0,133.0,126.0,128.0,21.0,-106.0,-78.0,127.0,127.0,127.0,110.0,84.0,-89.0
127.0,126.0,128.0,133.0,127.0,134.0,126.0,128.0,22.0,-106.0,-78.0,127.0,127.0,127.0,110.0,84.0,-89.0
127.0,125.0,128.0,133.0,127.0,134.0,126.0,128.0,22.0,-106.0,-78.0,127.0,127.0,127.0,110.0,84.0,-89.0
127.0,125.0,128.0,133.0,127.0,134.0,126.0,128.0,22.0,-106.0,-78.0,127.0,127.0,127.0,110.0,84.0,-89.0
127.0,125.0,128.0,133.0,127.0,133.0,126.0,128.0,22.0,-106.0,-78.0,127.0,127.0,127.0,110.0,84.0,-89.0
127.0,125.0,129.0,133.0,127.0,133.0,127.0,128.0,22.0,-106.0,-78.0,127.0,127.0,127.0,110.0,84.0,-89.0
127.0,126.0,127.0,133.0,127.0,135.0,126.0,128.0,22.0,-106.0,-78.0,127.0,127.0,127.0,110.0,84.0,-89.0
127.0,126.0,128.0,133.0,127.0,135.0,126.0,128.0,22.0,-106.0,-78.0,127.0,127.0,127.0,110.0,84.0,-89.0
127.0,126.0,128.0,133.0,127.0,135.0,126.0,128.0,22.0,-106.0,-78.0,127.0,127.0,127.0,110.0,84.0,-89.0
127.0,126.0,128.0,133.0,127.0,134.0,126.0,128.0,22.0,-106.0,-78.0,127.0,127.0,127.0,110.0,84.0,-89.0
127.0,126.0,128.0,133.0,127.0,134.0,126.0,128.0,22.0,-106.0,-78.0,127.0,127.0,127.0,110.0,84.0,-89.0
127.0,125.0,137.0,132.0,127.0,132.0,127.0,128.0,22.0,-106.0,-78.0,127.0,127.0,127.0,110.0,84.0,-89.0
127.0,125.0,137.0,132.0,127.0,131.0,127.0,128.0,22.0,-106.0,-78.0,127.0,127.0,127.0,110.0,84.0,-89.0
127.0,125.0,137.0,132.0,127.0,131.0,127.0,128.0,22.0,-106.0,-78.0,127.0,127.0,127.0,110.0,84.0,-89.0
127.0,125.0,137.0,132.0,127.0,132.0,127.0,128.0,22.0,-106.0,-78.0,127.0,127.0,127.0,110.0,84.0,-89.0
127.0,124.0,136.0,132.0,127.0,130.0,127.0,128.0,22.0,-106.0,-78.0,127.0,127.0,127.0,110.0,84.0,-89.0
127.0,124.0,136.0,132.0,126.0,130.0,127.0,128.0,22.0,-106.0,-78.0,127.0,127.0,127.0,110.0,84.0,-89.0
127.0,124.0,137.0,132.0,127.0,130.0,127.0,128.0,22.0,-106.0,-78.0,127.0,127.0,127.0,110.0,84.0,-89.0
127.0,125.0,136.0,132.0,127.0,132.0,127.0,128.0,22.0,-106.0,-78.0,127.0,127.0,127.0,110.0,84.0,-89.0
127.0,125.0,136.0,132.0,127.0,132.0,127.0,128.0,22.0,-106.0,-78.0,127.0,127.0,127.0,110.0,84.0,-89.0
127.0,125.0,137.0,132.0,127.0,132.0,127.0,128.0,22.0,-106.0,-78.0,127.0,127.0,127.0,110.0,84.0,-89.0
127.0,124.0,140.0,132.0,127.0,130.0,127.0,128.0,22.0,-107.0,-78.0,127.0,127.0,127.0,111.0,84.0,-89.0
127.0,124.0,140.0,132.0,127.0,130.0,127.0,128.0,22.0,-107.0,-78.0,127.0,127.0,127.0,111.0,84.0,-89.0
127.0,124.0,140.0,132.0,127.0,130.0,127.0,128.0,22.0,-107.0,-78.0,127.0,127.0,127.0,111.0,84.0,-89.0
127.0,125.0,140.0,132.0,127.0,132.0,126.0,128.0,22.0,-107.0,-78.0,127.0,127.0,127.0,111.0,84.0,-89.0
127.0,125.0,140.0,132.0,127.0,132.0,126.0,128.0,22.0,-107.0,-78.0,127.0,127.0,127.0,111.0,84.0,-89.0
127.0,125.0,140.0,132.0,127.0,132.0,127.0,128.0,22.0,-107.0,-78.0,127.0,127.0,127.0,111.0,84.0,-89.0
127.0,125.0,140.0,132.0,127.0,131.0,127.0,128.0,22.0,-107.0,-78.0,127.0,127.0,127.0,111.0,84.0,-89.0
127.0,125.0,140.0,132.0,127.0,131.0,127.0,128.0,22.0,-107.0,-78.0,127.0,127.0,127.0,111.0,84.0,-89.0
127.0,125.0,140.0,132.0,127.0,131.0,127.0,128.0,22.0,-107.0,-78.0,127.0,127.0,127.0,111.0,84.0,-89.0
127.0,125.0,140.0,132.0,127.0,130.0,127.0,128.0,22.0,-107.0,-78.0,127.0,127.0,127.0,111.0,84.0,-89.0
127.0,125.0,135.0,130.0,126.0,130.0,126.0,128.0,22.0,-107.0,-77.0,127.0,127.0,127.0,111.0,84.0,-89.0
127.0,125.0,135.0,131.0,127.0,132.0,126.0,128.0,22.0,-107.0,-77.0,127.0,127.0,127.0,111.0,84.0,-89.0
127.0,125.0,135.0,131.0,127.0,132.0,126.0,128.0,22.0,-107.0,-77.0,127.0,127.0,127.0,111.0,84.0,-89.0
127.0,125.0,135.0,131.0,127.0,132.0,126.0,128.0,22.0,-107.0,-77.0,127.0,127.0,127.0,111.0,84.0,-89.0
127.0,125.0,135.0,131.0,127.0,132.0,126.0,128.0,22.0,-107.0,-77.0,127.0,127.0,127.0,111.0,84.0,-89.0
127.0,125.0,135.0,131.0,126.0,131.0,126.0,128.0,22.0,-107.0,-77.0,127.0,127.0,127.0,111.0,84.0,-89.0
127.0,125.0,135.0,131.0,126.0,131.0,126.0,128.0,22.0,-107.0,-77.0,127.0,127.0,127.0,111.0,84.0,-89.0
127.0,125.0,135.0,130.0,126.0,131.0,126.0,128.0,22.0,-107.0,-77.0,127.0,127.0,127.0,111.0,84.0,-89.0
127.0,125.0,135.0,130.0,126.0,130.0,126.0,128.0,22.0,-107.0,-77.0,127.0,127.0,127.0,111.0,84.0,-89.0
127.0,125.0,135.0,130.0,126.0,130.0,126.0,128.0,22.0,-107.0,-77.0,127.0,127.0,127.0,111.0,84.0,-89.0
127.0,125.0,131.0,130.0,127.0,131.0,126.0,128.0,22.0,-107.0,-77.0,127.0,127.0,127.0,111.0,84.0,-89.0
127.0,125.0,131.0,130.0,127.0,131.0,127.0,128.0,22.0,-107.0,-77.0,127.0,127.0,127.0,111.0,84.0,-89.0
127.0,125.0,130.0,130.0,127.0,131.0,126.0,128.0,22.0,-107.0,-77.0,127.0,127.0,127.0,111.0,84.0,-89.0
127.0,125.0,130.0,130.0,127.0,131.0,126.0,128.0,22.0,-107.0,-77.0,127.0,127.0,127.0,111.0,84.0,-89.0
127.0,125.0,131.0,130.0,127.0,131.0,127.0,128.0,22.0,-107.0,-77.0,127.0,127.0,127.0,111.0,84.0,-89.0
127.0,125.0,131.0,130.0,127.0,131.0,127.0,128.0,22.0,-107.0,-77.0,127.0,127.0,127.0,111.0,84.0,-89.0
127.0,125.0,131.0,131.0,127.0,130.0,126.0,128.0,22.0,-107.0,-77.0,127.0,127.0,127.0,111.0,84.0,-89.0
127.0,125.0,131.0,131.0,127.0,130.0,127.0,128.0,22.0,-107.0,-77.0,127.0,127.0,127.0,111.0,84.0,-89.0
127.0,125.0,131.0,130.0,127.0,130.0,127.0,128.0,22.0,-107.0,-77.0,127.0,127.0,127.0,111.0,84.0,-89.0
127.0,125.0,131.0,130.0,127.0,130.0,127.0,128.0,22.0,-107.0,-77.0,127.0,127.0,127.0,111.0,84.0,-89.0
127.0,125.0,126.0,129.0,127.0,130.0,126.0,128.0,23.0,-107.0,-77.0,127.0,127.0,127.0,111.0,84.0,-89.0
127.0,125.0,126.0,129.0,126.0,130.0,126.0,128.0,23.0,-107.0,-77.0,127.0,127.0,127.0,111.0,84.0,-89.0
127.0,125.0,126.0,129.0,127.0,130.0,126.0,128.0,23.0,-107.0,-77.0,127.0,127.0,127.0,111.0,84.0,-89.0
127.0,125.0,126.0,130.0,126.0,130.0,126.0,128.0,23.0,-107.0,-77.0,127.0,127.0,127.0,111.0,84.0,-89.0
127.0,125.0,126.0,130.0,126.0,130.0,126.0,127.0,23.0,-107.0,-77.0,127.0,127.0,127.0,111.0,84.0,-89.0
127.0,125.0,127.0,130.0,126.0,130.0,126.0,128.0,23.0,-107.0,-77.0,127.0,127.0,127.0,111.0,84.0,-89.0
127.0,124.0,127.0,130.0,126.0,129.0,126.0,127.0,23.0,-107.0,-77.0,127.0,127.0,127.0,111.0,84.0,-89.0
127.0,124.0,127.0,130.0,126.0,129.0,126.0,127.0,23.0,-107.0,-77.0,127.0,127.0,127.0,111.0,84.0,-89.0
127.0,124.0,127.0,130.0,126.0,129.0,126.0,128.0,23.0,-107.0,-77.0,127.0,127.0,127.0,111.0,84.0,-89.0
127.0,125.0,126.0,129.0,127.0,131.0,126.0,128.0,23.0,-107.0,-77.0,127.0,127.0,127.0,111.0,84.0,-89.0
127.0,125.0,126.0,130.0,126.0,130.0,127.0,128.0,23.0,-106.0,-77.0,127.0,127.0,127.0,111.0,84.0,-89.0
127.0,125.0,126.0,130.0,126.0,130.0,127.0,128.0,23.0,-106.0,-77.0,127.0,127.0,127.0,111.0,84.0,-89.0
127.0,125.0,126.0,130.0,126.0,130.0,127.0,128.0,23.0,-106.0,-77.0,127.0,127.0,127.0,111.0,84.0,-89.0
127.0,124.0,127.0,130.0,126.0,129.0,127.0,128.0,23.0,-106.0,-77.0,127.0,127.0,127.0,111.0,84.0,-89.0
127.0,124.0,127.0,130.0,126.0,129.0,127.0,128.0,23.0,-106.0,-77.0,127.0,127.0,127.0,111.0,84.0,-89.0
127.0,124.0,127.0,129.0,126.0,129.0,127.0,128.0,23.0,-106.0,-77.0,127.0,127.0,127.0,111.0,84.0,-89.0
127.0,124.0,127.0,129.0,126.0,129.0,127.0,128.0,23.0,-106.0,-77.0,127.0,127.0,127.0,111.0,84.0,-89.0
127.0,124.0,127.0,129.0,126.0,129.0,127.0,128.0,23.0,-106.0,-77.0,127.0,127.0,127.0,111.0,84.0,-89.0
127.0,125.0,126.0,130.0,126.0,130.0,127.0,128.0,23.0,-106.0,-77.0,127.0,127.0,127.0,111.0,84.0,-89.0
127.0,125.0,126.0,130.0,126.0,130.0,127.0,128.0,23.0,-106.0,-77.0,127.0,127.0,127.0,111.0,84.0,-89.0
127.0,125.0,126.0,129.0,126.0,129.0,127.0,128.0,22.0,-106.0,-77.0,127.0,127.0,127.0,111.0,84.0,-89.0
127.0,125.0,126.0,130.0,126.0,129.0,127.0,128.0,22.0,-106.0,-77.0,127.0,127.0,127.0,111.0,84.0,-89.0
127.0,125.0,126.0,130.0,126.0,129.0,127.0,128.0,22.0,-106.0,-77.0,127.0,127.0,127.0,111.0,84.0,-89.0
127.0,125.0,126.0,130.0,126.0,129.0,127.0,128.0,22.0,-106.0,-77.0,127.0,127.0,127.0,111.0,84.0,-89.0
127.0,125.0,126.0,130.0,126.0,129.0,127.0,128.0,22.0,-106.0,-77.0,127.0,127.0,127.0,111.0,84.0,-89.0
127.0,125.0,126.0,130.0,126.0,128.0,127.0,128.0,22.0,-106.0,-77.0,127.0,127.0,127.0,111.0,84.0,-89.0
127.0,125.0,126.0,130.0,126.0,128.0,127.0,128.0,22.0,-106.0,-77.0,127.0,127.0,127.0,111.0,84.0,-89.0
127.0,125.0,127.0,130.0,127.0,130.0,127.0,128.0,22.0,-106.0,-77.0,127.0,127.0,127.0,111.0,84.0,-89.0
127.0,125.0,127.0,130.0,127.0,129.0,127.0,128.0,22.0,-106.0,-77.0,127.0,127.0,127.0,111.0,84.0,-89.0
127.0,125.0,127.0,130.0,126.0,129.0,127.0,128.0,22.0,-106.0,-77.0,127.0,127.0,127.0,111.0,84.0,-89.0
127.0,125.0,126.0,129.0,127.0,130.0,126.0,128.0,22.0,-106.0,-77.0,127.0,127.0,127.0,111.0,84.0,-89.0
127.0,125.0,126.0,129.0,127.0,129.0,126.0,128.0,22.0,-106.0,-77.0,127.0,127.0,127.0,111.0,84.0,-89.0
127.0,125.0,126.0,129.0,127.0,129.0,126.0,128.0,22.0,-106.0,-77.0,127.0,127.0,127.0,111.0,84.0,-89.0
127.0,125.0,126.0,129.0,127.0,129.0,126.0,128.0,22.0,-106.0,-77.0,127.0,127.0,127.0,111.0,84.0,-89.0
127.0,125.0,126.0,129.0,126.0,129.0,126.0,128.0,22.0,-106.0,-77.0,127.0,127.0,127.0,111.0,84.0,-89.0
127.0,124.0,126.0,129.0,126.0,129.0,126.0,128.0,22.0,-106.0,-77.0,127.0,127.0,127.0,111.0,84.0,-89.0
127.0,125.0,126.0,129.0,127.0,130.0,126.0,128.0,22.0,-106.0,-77.0,127.0,127.0,127.0,111.0,84.0,-89.0
127.0,125.0,126.0,130.0,127.0,130.0,126.0,128.0,22.0,-106.0,-77.0,127.0,127.0,127.0,111.0,84.0,-89.0
127.0,125.0,126.0,129.0,127.0,130.0,126.0,128.0,22.0,-106.0,-77.0,127.0,127.0,127.0,111.0,84.0,-89.0
127.0,125.0,126.0,129.0,127.0,130.0,126.0,128.0,22.0,-106.0,-77.0,127.0,127.0,127.0,111.0,84.0,-89.0
127.0,125.0,126.0,129.0,127.0,130.0,127.0,128.0,22.0,-106.0,-77.0,127.0,127.0,127.0,111.0,84.0,-89.0
127.0,125.0,126.0,129.0,127.0,130.0,127.0,128.0,22.0,-106.0,-77.0,127.0,127.0,127.0,111.0,84.0,-89.0
127.0,125.0,126.0,129.0,127.0,130.0,127.0,128.0,22.0,-106.0,-77.0,127.0,127.0,127.0,111.0,84.0,-89.0
127.0,125.0,126.0,129.0,127.0,131.0,127.0,128.0,22.0,-106.0,-77.0,127.0,127.0,127.0,111.0,84.0,-89.0
127.0,125.0,125.0,129.0,127.0,131.0,127.0,128.0,22.0,-106.0,-77.0,127.0,127.0,127.0,111.0,84.0,-89.0
127.0,124.0,126.0,129.0,126.0,129.0,126.0,128.0,22.0,-106.0,-77.0,127.0,127.0,127.0,111.0,84.0,-89.0
127.0,125.0,126.0,129.0,126.0,129.0,126.0,128.0,22.0,-106.0,-77.0,127.0,127.0,127.0,111.0,84.0,-89.0
127.0,125.0,126.0,129.0,127.0,130.0,126.0,128.0,22.0,-106.0,-77.0,127.0,127.0,127.0,111.0,84.0,-89.0
127.0,125.0,126.0,129.0,127.0,130.0,126.0,128.0,22.0,-106.0,-77.0,127.0,127.0,127.0,111.0,84.0,-89.0
127.0,125.0,126.0,129.0,127.0,130.0,126.0,128.0,22.0,-106.0,-77.0,127.0,127.0,127.0,111.0,84.0,-89.0
127.0,124.0,126.0,127.0,126.0,129.0,127.0,128.0,22.0,-106.0,-77.0,127.0,127.0,127.0,111.0,84.0,-89.0
127.0,124.0,126.0,127.0,126.0,129.0,127.0,128.0,22.0,-106.0,-77.0,127.0,127.0,127.0,111.0,84.0,-89.0
127.0,124.0,126.0,127.0,126.0,129.0,126.0,128.0,22.0,-106.0,-77.0,127.0,127.0,127.0,111.0,84.0,-89.0
127.0,124.0,126.0,128.0,126.0,130.0,127.0,128.0,22.0,-106.0,-77.0,127.0,127.0,127.0,111.0,84.0,-89.0
127.0,123.0,127.0,127.0,126.0,127.0,127.0,128.0,22.0,-106.0,-77.0,127.0,127.0,127.0,111.0,84.0,-89.0
127.0,123.0,127.0,127.0,126.0,127.0,127.0,128.0,22.0,-106.0,-77.0,127.0,127.0,127.0,111.0,84.0,-89.0
127.0,124.0,126.0,127.0,126.0,129.0,126.0,128.0,22.0,-106.0,-77.0,127.0,127.0,127.0,111.0,84.0,-89.0
127.0,124.0,126.0,127.0,126.0,129.0,127.0,128.0,22.0,-106.0,-77.0,127.0,127.0,127.0,111.0,84.0,-89.0
127.0,124.0,126.0,127.0,126.0,129.0,127.0,128.0,22.0,-106.0,-77.0,127.0,127.0,127.0,111.0,84.0,-89.0
127.0,124.0,126.0,127.0,126.0,129.0,127.0,128.0,22.0,-106.0,-77.0,127.0,127.0,127.0,111.0,84.0,-89.0
127.0,124.0,128.0,129.0,126.0,128.0,127.0,128.0,22.0,-105.0,-77.0,127.0,127.0,127.0,111.0,84.0,-89.0
127.0,124.0,127.0,129.0,126.0,129.0,127.0,128.0,22.0,-105.0,-77.0,127.0,127.0,127.0,111.0,84.0,-89.0
127.0,124.0,127.0,129.0,126.0,129.0,127.0,128.0,22.0,-105.0,-77.0,127.0,127.0,127.0,111.0,84.0,-89.0
127.0,123.0,129.0,129.0,127.0,127.0,127.0,128.0,22.0,-105.0,-77.0,127.0,127.0,127.0,111.0,84.0,-89.0
127.0,124.0,129.0,129.0,127.0,127.0,127.0,128.0,22.0,-105.0,-77.0,127.0,127.0,127.0,111.0,84.0,-89.0
127.0,124.0,128.0,129.0,127.0,128.0,127.0,128.0,22.0,-105.0,-77.0,127.0,127.0,127.0,111.0,84.0,-89.0
127.0,124.0,128.0,129.0,127.0,129.0,127.0,128.0,22.0,-105.0,-77.0,127.0,127.0,127.0,111.0,84.0,-89.0
127.0,124.0,128.0,129.0,127.0,129.0,127.0,128.0,22.0,-105.0,-77.0,127.0,127.0,127.0,111.0,84.0,-89.0
127.0,124.0,128.0,129.0,127.0,128.0,127.0,128.0,22.0,-105.0,-77.0,127.0,127.0,127.0,111.0,84.0,-89.0
127.0,124.0,128.0,129.0,126.0,128.0,127.0,128.0,22.0,-105.0,-77.0,127.0,127.0,127.0,111.0,84.0,-89.0
127.0,125.0,127.0,128.0,126.0,129.0,127.0,128.0,21.0,-105.0,-77.0,127.0,127.0,127.0,111.0,84.0,-89.0
127.0,125.0,126.0,128.0,127.0,130.0,127.0,128.0,21.0,-105.0,-77.0,127.0,127.0,127.0,111.0,84.0,-89.0
127.0,124.0,127.0,128.0,126.0,128.0,127.0,128.0,21.0,-105.0,-77.0,127.0,127.0,127.0,111.0,84.0,-89.0
127.0,124.0,127.0,128.0,126.0,128.0,127.0,128.0,21.0,-105.0,-77.0,127.0,127.0,127.0,111.0,84.0,-89.0
127.0,124.0,127.0,128.0,126.0,129.0,127.0,128.0,21.0,-105.0,-77.0,127.0,127.0,127.0,111.0,84.0,-89.0
127.0,125.0,126.0,128.0,126.0,130.0,127.0,128.0,21.0,-105.0,-77.0,127.0,127.0,127.0,111.0,84.0,-89.0
127.0,125.0,127.0,128.0,126.0,130.0,127.0,128.0,21.0,-105.0,-77.0,127.0,127.0,127.0,111.0,84.0,-89.0
127.0,125.0,127.0,128.0,126.0,129.0,127.0,128.0,21.0,-105.0,-77.0,127.0,127.0,127.0,111.0,84.0,-89.0
127.0,124.0,127.0,128.0,126.0,129.0,127.0,128.0,21.0,-105.0,-77.0,127.0,127.0,127.0,111.0,84.0,-89.0
127.0,124.0,127.0,128.0,126.0,129.0,127.0,128.0,21.0,-105.0,-77.0,127.0,127.0,127.0,111.0,84.0,-89.0
127.0,125.0,125.0,128.0,127.0,130.0,126.0,128.0,21.0,-105.0,-77.0,127.0,127.0,127.0,111.0,84.0,-89.0
127.0,124.0,127.0,128.0,126.0,127.0,127.0,128.0,21.0,-105.0,-77.0,127.0,127.0,127.0,111.0,84.0,-89.0
127.0,124.0,127.0,128.0,127.0,127.0,127.0,128.0,21.0,-105.0,-77.0,127.0,127.0,127.0,111.0,84.0,-89.0
127.0,124.0,127.0,128.0,127.0,128.0,127.0,128.0,21.0,-105.0,-77.0,127.0,127.0,127.0,111.0,84.0,-89.0
127.0,125.0,126.0,128.0,127.0,129.0,127.0,128.0,21.0,-105.0,-77.0,127.0,127.0,127.0,111.0,84.0,-89.0
127.0,125.0,126.0,128.0,127.0,129.0,127.0,128.0,21.0,-105.0,-77.0,127.0,127.0,127.0,111.0,84.0,-89.0
127.0,124.0,126.0,128.0,127.0,129.0,127.0,128.0,21.0,-105.0,-77.0,127.0,127.0,127.0,111.0,84.0,-89.0
127.0,124.0,126.0,128.0,127.0,129.0,127.0,128.0,21.0,-105.0,-77.0,127.0,127.0,127.0,111.0,84.0,-89.0
127.0,124.0,126.0,128.0,127.0,129.0,127.0,128.0,21.0,-105.0,-77.0,127.0,127.0,127.0,111.0,84.0,-89.0
127.0,124.0,126.0,128.0,127.0,129.0,127.0,128.0,21.0,-105.0,-77.0,127.0,127.0,127.0,111.0,84.0,-89.0
127.0,124.0,128.0,128.0,127.0,127.0,127.0,127.0,21.0,-105.0,-77.0,127.0,127.0,127.0,111.0,84.0,-89.0
127.0,124.0,127.0,128.0,127.0,127.0,127.0,128.0,21.0,-105.0,-77.0,127.0,127.0,127.0,111.0,84.0,-89.0
127.0,124.0,127.0,128.0,127.0,128.0,127.0,128.0,21.0,-105.0,-77.0,127.0,127.0,127.0,111.0,84.0,-89.0
127.0,124.0,127.0,128.0,127.0,129.0,127.0,128.0,21.0,-105.0,-77.0,127.0,127.0,127.0,111.0,84.0,-89.0
127.0,124.0,127.0,128.0,127.0,129.0,127.0,128.0,21.0,-105.0,-77.0,127.0,127.0,127.0,111.0,84.0,-89.0
127.0,124.0,127.0,128.0,127.0,129.0,127.0,128.0,21.0,-105.0,-77.0,127.0,127.0,127.0,111.0,84.0,-89.0
127.0,124.0,127.0,128.0,127.0,129.0,127.0,128.0,21.0,-105.0,-77.0,127.0,127.0,127.0,111.0,84.0,-89.0
127.0,124.0,127.0,128.0,127.0,129.0,127.0,128.0,21.0,-105.0,-77.0,127.0,127.0,127.0,111.0,84.0,-89.0
127.0,124.0,127.0,128.0,127.0,129.0,127.0,128.0,21.0,-105.0,-77.0,127.0,127.0,127.0,111.0,84.0,-89.0
127.0,124.0,126.0,128.0,127.0,130.0,127.0,128.0,21.0,-105.0,-77.0,127.0,127.0,127.0,111.0,84.0,-89.0
127.0,124.0,127.0,129.0,127.0,130.0,127.0,128.0,21.0,-105.0,-77.0,127.0,127.0,127.0,111.0,84.0,-89.0
127.0,124.0,127.0,129.0,127.0,130.0,127.0,128.0,21.0,-105.0,-77.0,127.0,127.0,127.0,111.0,84.0,-89.0
127.0,124.0,127.0,129.0,127.0,130.0,127.0,128.0,21.0,-105.0,-77.0,127.0,127.0,127.0,111.0,84.0,-89.0
127.0,124.0,127.0,129.0,127.0,130.0,127.0,128.0,21.0,-105.0,-77.0,127.0,127.0,127.0,111.0,84.0,-89.0
127.0,124.0,127.0,129.0,127.0,129.0,127.0,128.0,21.0,-105.0,-77.0,127.0,127.0,127.0,111.0,84.0,-89.0
127.0,124.0,127.0,129.0,127.0,129.0,127.0,128.0,21.0,-105.0,-77.0,127.0,127.0,127.0,111.0,84.0,-89.0
127.0,124.0,127.0,129.0,127.0,129.0,127.0,128.0,21.0,-105.0,-77.0,127.0,127.0,127.0,111.0,84.0,-89.0
127.0,124.0,127.0,129.0,127.0,129.0,127.0,128.0,21.0,-105.0,-77.0,127.0,127.0,127.0,111.0,84.0,-89.0
127.0,124.0,127.0,129.0,127.0,129.0,127.0,128.0,21.0,-105.0,-77.0,127.0,127.0,127.0,111.0,84.0,-89.0
127.0,124.0,127.0,129.0,127.0,130.0,127.0,128.0,21.0,-105.0,-77.0,127.0,127.0,127.0,111.0,84.0,-89.0
127.0,125.0,126.0,128.0,127.0,130.0,127.0,128.0,21.0,-105.0,-77.0,127.0,127.0,127.0,111.0,84.0,-89.0
127.0,125.0,126.0,128.0,127.0,130.0,127.0,128.0,21.0,-105.0,-77.0,127.0,127.0,127.0,111.0,84.0,-89.0
127.0,125.0,126.0,128.0,127.0,130.0,127.0,128.0,21.0,-105.0,-77.0,127.0,127.0,127.0,111.0,84.0,-89.0
127.0,125.0,126.0,129.0,127.0,130.0,127.0,128.0,21.0,-105.0,-77.0,127.0,127.0,127.0,111.0,84.0,-89.0
127.0,124.0,127.0,129.0,127.0,130.0,127.0,128.0,21.0,-105.0,-77.0,127.0,127.0,127.0,111.0,84.0,-89.0
127.0,124.0,127.0,128.0,127.0,129.0,127.0,128.0,21.0,-105.0,-77.0,127.0,127.0,127.0,111.0,84.0,-89.0
127.0,124.0,127.0,129.0,127.0,129.0,127.0,128.0,21.0,-105.0,-77.0,127.0,127.0,127.0,111.0,84.0,-89.0
127.0,124.0,127.0,128.0,127.0,129.0,127.0,128.0,21.0,-105.0,-77.0,127.0,127.0,127.0,111.0,84.0,-89.0
127.0,125.0,126.0,128.0,127.0,131.0,126.0,128.0,21.0,-105.0,-77.0,127.0,127.0,127.0,111.0,84.0,-89.0
127.0,125.0,126.0,128.0,127.0,131.0,126.0,128.0,21.0,-105.0,-77.0,127.0,127.0,127.0,111.0,84.0,-89.0
127.0,125.0,127.0,129.0,127.0,129.0,127.0,128.0,21.0,-105.0,-77.0,127.0,127.0,127.0,111.0,84.0,-89.0
127.0,125.0,127.0,129.0,127.0,129.0,127.0,128.0,21.0,-105.0,-77.0,127.0,127.0,127.0,111.0,84.0,-89.0
127.0,125.0,127.0,129.0,127.0,129.0,127.0,128.0,21.0,-105.0,-77.0,127.0,127.0,127.0,111.0,84.0,-89.0
127.0,125.0,127.0,129.0,127.0,129.0,127.0,128.0,21.0,-105.0,-77.0,127.0,127.0,127.0,111.0,84.0,-89.0
127.0,124.0,127.0,129.0,127.0,129.0,127.0,128.0,21.0,-105.0,-77.0,127.0,127.0,127.0,111.0,84.0,-89.0
127.0,124.0,127.0,129.0,127.0,129.0,127.0,128.0,21.0,-105.0,-77.0,127.0,127.0,127.0,111.0,84.0,-89.0
127.0,125.0,127.0,129.0,127.0,129.0,127.0,128.0,21.0,-105.0,-77.0,127.0,127.0,127.0,111.0,84.0,-89.0
127.0,124.0,128.0,129.0,127.0,127.0,127.0,128.0,21.0,-105.0,-77.0,127.0,127.0,127.0,111.0,84.0,-89.0
127.0,124.0,127.0,129.0,127.0,127.0,127.0,128.0,21.0,-105.0,-77.0,127.0,127.0,127.0,111.0,84.0,-89.0
127.0,124.0,127.0,129.0,127.0,128.0,127.0,128.0,21.0,-105.0,-77.0,127.0,127.0,127.0,111.0,84.0,-89.0
127.0,125.0,128.0,127.0,127.0,129.0,127.0,128.0,21.0,-105.0,-77.0,127.0,127.0,127.0,111.0,84.0,-89.0
127.0,125.0,128.0,127.0,127.0,129.0,127.0,128.0,21.0,-105.0,-77.0,127.0,127.0,127.0,111.0,84.0,-89.0
127.0,124.0,129.0,127.0,127.0,128.0,127.0,128.0,21.0,-105.0,-77.0,127.0,127.0,127.0,111.0,84.0,-89.0
127.0,124.0,129.0,127.0,127.0,128.0,127.0,127.0,21.0,-105.0,-77.0,127.0,127.0,127.0,111.0,84.0,-89.0
127.0,124.0,129.0,128.0,127.0,128.0,127.0,127.0,21.0,-105.0,-77.0,127.0,127.0,127.0,111.0,84.0,-89.0
127.0,124.0,129.0,128.0,127.0,128.0,127.0,127.0,21.0,-105.0,-77.0,127.0,127.0,127.0,111.0,84.0,-89.0
127.0,125.0,128.0,127.0,127.0,129.0,126.0,128.0,21.0,-105.0,-77.0,127.0,127.0,127.0,111.0,84.0,-89.0
127.0,125.0,128.0,127.0,127.0,129.0,126.0,128.0,21.0,-105.0,-77.0,127.0,127.0,127.0,111.0,84.0,-89.0
127.0,125.0,128.0,127.0,127.0,129.0,127.0,128.0,21.0,-105.0,-77.0,127.0,127.0,127.0,111.0,84.0,-89.0
127.0,125.0,128.0,127.0,127.0,129.0,127.0,128.0,21.0,-105.0,-77.0,127.0,127.0,127.0,111.0,84.0,-89.0
127.0,125.0,125.0,128.0,127.0,130.0,127.0,128.0,21.0,-105.0,-77.0,127.0,127.0,127.0,111.0,84.0,-89.0
127.0,124.0,125.0,128.0,127.0,130.0,127.0,128.0,21.0,-105.0,-77.0,127.0,127.0,127.0,111.0,84.0,-89.0
127.0,124.0,126.0,128.0,127.0,129.0,127.0,128.0,21.0,-105.0,-77.0,127.0,127.0,127.0,111.0,84.0,-89.0
127.0,124.0,125.0,128.0,127.0,130.0,127.0,128.0,21.0,-105.0,-77.0,127.0,127.0,127.0,111.0,84.0,-89.0
127.0,124.0,126.0,128.0,127.0,129.0,127.0,128.0,21.0,-105.0,-77.0,127.0,127.0,127.0,111.0,84.0,-89.0
127.0,125.0,125.0,129.0,127.0,131.0,127.0,128.0,21.0,-105.0,-77.0,127.0,127.0,127.0,111.0,84.0,-89.0
127.0,125.0,125.0,129.0,127.0,131.0,127.0,128.0,21.0,-105.0,-77.0,127.0,127.0,127.0,111.0,84.0,-89.0
127.0,125.0,125.0,128.0,127.0,131.0,127.0,128.0,21.0,-105.0,-77.0,127.0,127.0,127.0,111.0,84.0,-89.0
127.0,125.0,125.0,128.0,127.0,130.0,127.0,128.0,21.0,-105.0,-77.0,127.0,127.0,127.0,111.0,84.0,-89.0
127.0,125.0,125.0,128.0,127.0,130.0,127.0,128.0,21.0,-105.0,-77.0,127.0,127.0,127.0,111.0,84.0,-89.0
127.0,125.0,125.0,128.0,127.0,129.0,127.0,128.0,21.0,-105.0,-77.0,127.0,127.0,127.0,111.0,84.0,-89.0
127.0,125.0,125.0,128.0,127.0,129.0,127.0,128.0,21.0,-105.0,-77.0,127.0,127.0,127.0,111.0,84.0,-89.0
127.0,125.0,125.0,128.0,127.0,129.0,127.0,128.0,21.0,-105.0,-77.0,127.0,127.0,127.0,111.0,84.0,-89.0
127.0,124.0,126.0,128.0,127.0,129.0,127.0,128.0,21.0,-105.0,-77.0,127.0,127.0,127.0,111.0,84.0,-89.0
127.0,125.0,125.0,128.0,127.0,130.0,127.0,128.0,21.0,-105.0,-77.0,127.0,127.0,127.0,111.0,84.0,-89.0
127.0,125.0,125.0,128.0,127.0,130.0,127.0,128.0,21.0,-105.0,-77.0,127.0,127.0,127.0,111.0,84.0,-89.0
127.0,125.0,125.0,128.0,127.0,130.0,127.0,128.0,21.0,-105.0,-77.0,127.0,127.0,127.0,111.0,84.0,-89.0
127.0,125.0,125.0,128.0,127.0,130.0,127.0,128.0,21.0,-105.0,-77.0,127.0,127.0,127.0,111.0,84.0,-89.0
127.0,125.0,125.0,128.0,127.0,130.0,127.0,128.0,21.0,-105.0,-77.0,127.0,127.0,127.0,111.0,84.0,-89.0
127.0,125.0,125.0,128.0,127.0,130.0,127.0,128.0,21.0,-105.0,-77.0,127.0,127.0,127.0,111.0,84.0,-89.0
127.0,125.0,126.0,128.0,127.0,131.0,127.0,128.0,21.0,-105.0,-77.0,127.0,127.0,127.0,111.0,84.0,-89.0
127.0,125.0,126.0,128.0,127.0,130.0,127.0,128.0,21.0,-105.0,-77.0,127.0,127.0,127.0,111.0,84.0,-89.0
127.0,125.0,127.0,128.0,127.0,131.0,127.0,128.0,21.0,-105.0,-77.0,127.0,127.0,127.0,111.0,84.0,-89.0
127.0,125.0,126.0,128.0,127.0,131.0,127.0,128.0,21.0,-105.0,-77.0,127.0,127.0,127.0,111.0,84.0,-89.0
127.0,125.0,126.0,128.0,127.0,132.0,127.0,128.0,21.0,-105.0,-77.0,127.0,127.0,127.0,111.0,84.0,-89.0
127.0,125.0,126.0,128.0,127.0,132.0,127.0,128.0,21.0,-105.0,-77.0,127.0,127.0,127.0,111.0,84.0,-89.0
127.0,125.0,126.0,128.0,127.0,131.0,127.0,128.0,21.0,-105.0,-77.0,127.0,127.0,127.0,111.0,84.0,-89.0
127.0,125.0,126.0,128.0,127.0,131.0,127.0,128.0,21.0,-105.0,-77.0,127.0,127.0,127.0,111.0,84.0,-89.0
127.0,125.0,126.0,128.0,127.0,131.0,127.0,128.0,21.0,-105.0,-77.0,127.0,127.0,127.0,111.0,84.0,-89.0
127.0,125.0,126.0,128.0,127.0,131.0,127.0,128.0,21.0,-105.0,-77.0,127.0,127.0,127.0,111.0,84.0,-89.0
127.0,125.0,126.0,129.0,127.0,130.0,127.0,128.0,21.0,-105.0,-77.0,127.0,127.0,127.0,111.0,84.0,-89.0
127.0,125.0,127.0,128.0,127.0,129.0,127.0,128.0,21.0,-105.0,-77.0,127.0,127.0,127.0,111.0,84.0,-89.0
127.0,125.0,126.0,128.0,127.0,130.0,126.0,128.0,21.0,-105.0,-77.0,127.0,127.0,127.0,111.0,84.0,-89.0
127.0,125.0,126.0,129.0,127.0,131.0,126.0,128.0,21.0,-105.0,-77.0,127.0,127.0,127.0,111.0,84.0,-89.0
127.0,125.0,126.0,129.0,127.0,131.0,127.0,128.0,21.0,-105.0,-77.0,127.0,127.0,127.0,111.0,84.0,-89.0
127.0,125.0,126.0,129.0,127.0,130.0,127.0,128.0,21.0,-105.0,-77.0,127.0,127.0,127.0,111.0,84.0,-89.0
127.0,125.0,126.0,129.0,127.0,130.0,126.0,128.0,21.0,-105.0,-77.0,127.0,127.0,127.0,111.0,84.0,-89.0
127.0,125.0,126.0,129.0,127.0,130.0,127.0,128.0,21.0,-105.0,-77.0,127.0,127.0,127.0,111.0,84.0,-89.0
127.0,125.0,126.0,129.0,127.0,130.0,127.0,128.0,21.0,-105.0,-77.0,127.0,127.0,127.0,111.0,84.0,-89.0
127.0,125.0,126.0,129.0,127.0,130.0,127.0,128.0,21.0,-105.0,-77.0,127.0,127.0,127.0,111.0,84.0,-89.0
127.0,125.0,126.0,128.0,127.0,130.0,127.0,128.0,21.0,-105.0,-77.0,127.0,127.0,127.0,111.0,84.0,-89.0
127.0,125.0,126.0,128.0,127.0,131.0,127.0,128.0,21.0,-105.0,-77.0,127.0,127.0,127.0,111.0,84.0,-89.0
127.0,126.0,125.0,128.0,127.0,132.0,127.0,128.0,21.0,-105.0,-77.0,127.0,127.0,127.0,111.0,84.0,-89.0
127.0,126.0,125.0,128.0,127.0,132.0,127.0,128.0,21.0,-105.0,-77.0,127.0,127.0,127.0,111.0,84.0,-89.0
127.0,126.0,125.0,128.0,127.0,131.0,127.0,128.0,21.0,-105.0,-77.0,127.0,127.0,127.0,111.0,84.0,-89.0
127.0,125.0,125.0,128.0,127.0,131.0,127.0,128.0,21.0,-105.0,-77.0,127.0,127.0,127.0,111.0,84.0,-89.0
127.0,125.0,125.0,128.0,127.0,131.0,127.0,128.0,21.0,-105.0,-77.0,127.0,127.0,127.0,111.0,84.0,-89.0
127.0,125.0,125.0,128.0,127.0,131.0,127.0,128.0,21.0,-105.0,-77.0,127.0,127.0,127.0,111.0,84.0,-89.0
127.0,125.0,125.0,128.0,127.0,131.0,127.0,128.0,21.0,-105.0,-77.0,127.0,127.0,127.0,111.0,84.0,-89.0
127.0,125.0,125.0,128.0,127.0,131.0,127.0,128.0,21.0,-105.0,-77.0,127.0,127.0,127.0,111.0,84.0,-89.0
127.0,125.0,126.0,127.0,127.0,128.0,127.0,127.0,21.0,-106.0,-77.0,127.0,127.0,127.0,111.0,84.0,-89.0
127.0,125.0,125.0,127.0,127.0,129.0,127.0,128.0,21.0,-106.0,-77.0,127.0,127.0,127.0,111.0,84.0,-89.0
127.0,125.0,125.0,127.0,127.0,129.0,127.0,128.0,21.0,-106.0,-77.0,127.0,127.0,127.0,111.0,84.0,-89.0
127.0,125.0,126.0,127.0,127.0,129.0,127.0,128.0,21.0,-106.0,-77.0,127.0,127.0,127.0,111.0,84.0,-89.0
127.0,125.0,126.0,128.0,127.0,129.0,127.0,128.0,21.0,-106.0,-77.0,127.0,127.0,127.0,111.0,84.0,-89.0
127.0,125.0,126.0,128.0,127.0,129.0,127.0,128.0,21.0,-106.0,-77.0,127.0,127.0,127.0,111.0,84.0,-89.0
127.0,125.0,126.0,128.0,127.0,129.0,127.0,128.0,21.0,-106.0,-77.0,127.0,127.0,127.0,111.0,84.0,-89.0
127.0,125.0,126.0,128.0,127.0,128.0,127.0,128.0,21.0,-106.0,-77.0,127.0,127.0,127.0,111.0,84.0,-89.0
127.0,125.0,126.0,128.0,127.0,128.0,127.0,128.0,21.0,-106.0,-77.0,127.0,127.0,127.0,111.0,84.0,-89.0
127.0,125.0,126.0,127.0,127.0,128.0,127.0,128.0,21.0,-106.0,-77.0,127.0,127.0,127.0,111.0,84.0,-89.0
127.0,124.0,126.0,127.0,127.0,128.0,127.0,128.0,21.0,-106.0,-77.0,127.0,127.0,127.0,111.0,84.0,-89.0
127.0,124.0,126.0,127.0,127.0,128.0,127.0,128.0,21.0,-106.0,-77.0,127.0,127.0,127.0,111.0,84.0,-89.0
127.0,124.0,126.0,127.0,127.0,128.0,127.0,128.0,21.0,-106.0,-77.0,127.0,127.0,127.0,111.0,84.0,-89.0
127.0,124.0,125.0,127.0,127.0,129.0,127.0,128.0,21.0,-106.0,-77.0,127.0,127.0,127.0,111.0,84.0,-89.0
127.0,125.0,125.0,127.0,127.0,130.0,127.0,128.0,21.0,-106.0,-77.0,127.0,127.0,127.0,111.0,84.0,-89.0
127.0,125.0,125.0,127.0,127.0,130.0,127.0,128.0,21.0,-106.0,-77.0,127.0,127.0,127.0,111.0,84.0,-89.0
127.0,124.0,125.0,127.0,127.0,129.0,127.0,128.0,21.0,-106.0,-77.0,127.0,127.0,127.0,111.0,84.0,-89.0
127.0,124.0,126.0,127.0,127.0,129.0,127.0,128.0,21.0,-106.0,-77.0,127.0,127.0,127.0,111.0,84.0,-89.0
127.0,124.0,126.0,127.0,127.0,128.0,127.0,128.0,21.0,-106.0,-77.0,127.0,127.0,127.0,111.0,84.0,-89.0
127.0,124.0,126.0,127.0,127.0,128.0,127.0,128.0,21.0,-106.0,-77.0,127.0,127.0,127.0,111.0,84.0,-89.0
127.0,125.0,124.0,128.0,127.0,131.0,126.0,128.0,21.0,-106.0,-77.0,127.0,127.0,127.0,111.0,84.0,-89.0
127.0,125.0,124.0,128.0,127.0,131.0,127.0,128.0,21.0,-106.0,-77.0,127.0,127.0,127.0,111.0,84.0,-89.0
127.0,125.0,124.0,128.0,127.0,131.0,126.0,128.0,21.0,-106.0,-77.0,127.0,127.0,127.0,111.0,84.0,-89.0
127.0,124.0,124.0,128.0,127.0,131.0,126.0,128.0,21.0,-106.0,-77.0,127.0,127.0,127.0,111.0,84.0,-89.0
127.0,124.0,124.0,128.0,127.0,131.0,127.0,128.0,21.0,-106.0,-77.0,127.0,127.0,127.0,111.0,84.0,-89.0
127.0,124.0,125.0,128.0,127.0,130.0,127.0,128.0,21.0,-106.0,-77.0,127.0,127.0,127.0,111.0,84.0,-89.0
127.0,124.0,125.0,128.0,127.0,130.0,127.0,128.0,21.0,-106.0,-77.0,127.0,127.0,127.0,111.0,84.0,-89.0
127.0,125.0,124.0,128.0,127.0,131.0,126.0,128.0,21.0,-106.0,-77.0,127.0,127.0,127.0,111.0,84.0,-89.0
127.0,125.0,124.0,128.0,127.0,131.0,126.0,128.0,21.0,-106.0,-77.0,127.0,127.0,127.0,111.0,84.0,-89.0
127.0,125.0,124.0,128.0,127.0,131.0,126.0,128.0,21.0,-106.0,-77.0,127.0,127.0,127.0,111.0,84.0,-89.0
127.0,125.0,126.0,127.0,127.0,131.0,127.0,128.0,21.0,-106.0,-77.0,127.0,127.0,127.0,111.0,84.0,-89.0
127.0,125.0,126.0,127.0,127.0,130.0,127.0,128.0,21.0,-106.0,-77.0,127.0,127.0,127.0,111.0,84.0,-89.0
127.0,124.0,126.0,127.0,127.0,130.0,127.0,128.0,21.0,-106.0,-77.0,127.0,127.0,127.0,111.0,84.0,-89.0
127.0,124.0,126.0,127.0,127.0,130.0,127.0,128.0,21.0,-106.0,-77.0,127.0,127.0,127.0,111.0,84.0,-89.0
127.0,124.0,126.0,127.0,127.0,130.0,127.0,128.0,21.0,-106.0,-77.0,127.0,127.0,127.0,111.0,84.0,-89.0
127.0,124.0,126.0,127.0,127.0,129.0,127.0,128.0,21.0,-106.0,-77.0,127.0,127.0,127.0,111.0,84.0,-89.0
127.0,125.0,125.0,127.0,127.0,131.0,127.0,128.0,21.0,-106.0,-77.0,127.0,127.0,127.0,111.0,84.0,-89.0
127.0,125.0,125.0,127.0,127.0,131.0,127.0,128.0,21.0,-106.0,-77.0,127.0,127.0,127.0,111.0,84.0,-89.0
127.0,125.0,126.0,127.0,127.0,131.0,127.0,128.0,21.0,-106.0,-77.0,127.0,127.0,127.0,111.0,84.0,-89.0
127.0,125.0,126.0,127.0,127.0,131.0,127.0,128.0,21.0,-106.0,-77.0,127.0,127.0,127.0,111.0,84.0,-89.0
127.0,125.0,125.0,128.0,127.0,130.0,127.0,128.0,21.0,-106.0,-77.0,127.0,127.0,127.0,111.0,84.0,-89.0
127.0,125.0,125.0,128.0,127.0,130.0,127.0,128.0,21.0,-106.0,-77.0,127.0,127.0,127.0,111.0,84.0,-89.0
127.0,125.0,125.0,128.0,127.0,130.0,127.0,128.0,21.0,-106.0,-77.0,127.0,127.0,127.0,111.0,84.0,-89.0
127.0,125.0,125.0,128.0,127.0,130.0,126.0,128.0,21.0,-106.0,-77.0,127.0,127.0,127.0,111.0,84.0,-89.0
127.0,125.0,125.0,128.0,127.0,129.0,127.0,128.0,21.0,-106.0,-77.0,127.0,127.0,127.0,111.0,84.0,-89.0
127.0,125.0,125.0,128.0,127.0,131.0,126.0,128.0,21.0,-106.0,-77.0,127.0,127.0,127.0,111.0,84.0,-89.0
127.0,125.0,125.0,128.0,127.0,131.0,126.0,128.0,21.0,-106.0,-77.0,127.0,127.0,127.0,111.0,84.0,-89.0
127.0,125.0,125.0,128.0,127.0,131.0,126.0,128.0,21.0,-106.0,-77.0,127.0,127.0,127.0,111.0,84.0,-89.0
127.0,125.0,125.0,128.0,127.0,131.0,126.0,128.0,21.0,-106.0,-77.0,127.0,127.0,127.0,111.0,84.0,-89.0
127.0,125.0,125.0,128.0,127.0,131.0,126.0,128.0,21.0,-106.0,-77.0,127.0,127.0,127.0,111.0,84.0,-89.0
127.0,125.0,125.0,128.0,127.0,130.0,127.0,128.0,21.0,-106.0,-77.0,127.0,127.0,127.0,111.0,84.0,-89.0
127.0,125.0,126.0,128.0,127.0,130.0,127.0,128.0,21.0,-106.0,-77.0,127.0,127.0,127.0,111.0,84.0,-89.0
127.0,124.0,126.0,128.0,127.0,129.0,127.0,128.0,21.0,-106.0,-77.0,127.0,127.0,127.0,111.0,84.0,-89.0
127.0,124.0,126.0,128.0,127.0,129.0,127.0,128.0,21.0,-106.0,-77.0,127.0,127.0,127.0,111.0,84.0,-89.0
127.0,125.0,125.0,128.0,127.0,131.0,126.0,128.0,21.0,-106.0,-77.0,127.0,127.0,127.0,111.0,84.0,-89.0
127.0,125.0,125.0,128.0,127.0,131.0,127.0,128.0,21.0,-106.0,-77.0,127.0,127.0,127.0,111.0,84.0,-89.0
127.0,125.0,125.0,128.0,127.0,130.0,127.0,128.0,21.0,-106.0,-77.0,127.0,127.0,127.0,111.0,84.0,-89.0
127.0,125.0,125.0,128.0,127.0,130.0,127.0,128.0,21.0,-106.0,-77.0,127.0,127.0,127.0,111.0,84.0,-89.0
127.0,125.0,125.0,128.0,127.0,130.0,127.0,128.0,21.0,-106.0,-77.0,127.0,127.0,127.0,111.0,84.0,-89.0
127.0,125.0,125.0,128.0,127.0,130.0,127.0,128.0,21.0,-106.0,-77.0,127.0,127.0,127.0,111.0,84.0,-89.0
127.0,125.0,125.0,127.0,127.0,130.0,127.0,128.0,21.0,-106.0,-77.0,127.0,127.0,127.0,111.0,84.0,-89.0
127.0,125.0,126.0,127.0,127.0,130.0,127.0,128.0,21.0,-106.0,-77.0,127.0,127.0,127.0,111.0,84.0,-89.0
127.0,124.0,126.0,127.0,127.0,129.0,127.0,128.0,21.0,-106.0,-77.0,127.0,127.0,127.0,111.0,84.0,-89.0
127.0,125.0,125.0,127.0,127.0,131.0,127.0,128.0,21.0,-106.0,-77.0,127.0,127.0,127.0,111.0,84.0,-89.0
127.0,125.0,125.0,128.0,127.0,131.0,127.0,128.0,21.0,-106.0,-77.0,127.0,127.0,127.0,111.0,84.0,-89.0
127.0,125.0,125.0,127.0,127.0,131.0,127.0,128.0,21.0,-106.0,-77.0,127.0,127.0,127.0,111.0,84.0,-89.0
127.0,125.0,125.0,128.0,127.0,131.0,127.0,128.0,21.0,-106.0,-77.0,127.0,127.0,127.0,111.0,84.0,-89.0
127.0,125.0,125.0,127.0,127.0,131.0,127.0,128.0,21.0,-106.0,-77.0,127.0,127.0,127.0,111.0,84.0,-89.0
127.0,125.0,125.0,128.0,127.0,130.0,127.0,128.0,21.0,-106.0,-77.0,127.0,127.0,127.0,111.0,84.0,-89.0
127.0,125.0,125.0,128.0,127.0,130.0,127.0,128.0,21.0,-106.0,-77.0,127.0,127.0,127.0,111.0,84.0,-89.0
127.0,124.0,125.0,128.0,127.0,130.0,127.0,128.0,21.0,-106.0,-77.0,127.0,127.0,127.0,111.0,84.0,-89.0
127.0,124.0,125.0,128.0,127.0,129.0,127.0,128.0,21.0,-106.0,-77.0,127.0,127.0,127.0,111.0,84.0,-89.0
127.0,125.0,125.0,127.0,127.0,131.0,127.0,128.0,21.0,-106.0,-77.0,127.0,127.0,127.0,111.0,84.0,-89.0
127.0,125.0,125.0,127.0,127.0,131.0,127.0,128.0,21.0,-106.0,-77.0,127.0,127.0,127.0,111.0,84.0,-89.0
127.0,125.0,125.0,127.0,127.0,131.0,127.0,128.0,21.0,-106.0,-77.0,127.0,127.0,127.0,111.0,84.0,-89.0
127.0,124.0,125.0,127.0,127.0,130.0,127.0,128.0,21.0,-106.0,-77.0,127.0,127.0,127.0,111.0,84.0,-89.0
127.0,124.0,125.0,127.0,127.0,131.0,127.0,128.0,21.0,-106.0,-77.0,127.0,127.0,127.0,111.0,84.0,-89.0
127.0,124.0,125.0,128.0,127.0,130.0,127.0,128.0,21.0,-106.0,-77.0,127.0,127.0,127.0,111.0,84.0,-89.0
127.0,124.0,125.0,128.0,127.0,130.0,127.0,128.0,21.0,-106.0,-77.0,127.0,127.0,127.0,111.0,84.0,-89.0
127.0,124.0,125.0,128.0,127.0,130.0,127.0,128.0,21.0,-106.0,-77.0,127.0,127.0,127.0,111.0,84.0,-89.0
127.0,124.0,126.0,127.0,127.0,130.0,127.0,128.0,21.0,-106.0,-77.0,127.0,127.0,127.0,111.0,84.0,-89.0
127.0,125.0,125.0,127.0,127.0,132.0,127.0,128.0,21.0,-106.0,-77.0,127.0,127.0,127.0,111.0,84.0,-89.0
127.0,125.0,125.0,127.0,127.0,131.0,127.0,128.0,21.0,-106.0,-77.0,127.0,127.0,127.0,111.0,84.0,-89.0
127.0,125.0,125.0,127.0,127.0,131.0,127.0,128.0,21.0,-106.0,-77.0,127.0,127.0,127.0,111.0,84.0,-89.0
127.0,125.0,125.0,127.0,127.0,131.0,127.0,128.0,21.0,-106.0,-77.0,127.0,127.0,127.0,111.0,84.0,-89.0
127.0,125.0,125.0,127.0,127.0,131.0,127.0,128.0,21.0,-106.0,-77.0,127.0,127.0,127.0,111.0,84.0,-89.0
127.0,125.0,125.0,127.0,127.0,131.0,127.0,128.0,21.0,-106.0,-77.0,127.0,127.0,127.0,111.0,84.0,-89.0
127.0,125.0,125.0,127.0,127.0,130.0,127.0,128.0,21.0,-106.0,-77.0,127.0,127.0,127.0,111.0,84.0,-89.0
127.0,124.0,125.0,127.0,127.0,130.0,127.0,128.0,21.0,-106.0,-77.0,127.0,127.0,127.0,111.0,84.0,-89.0
127.0,124.0,126.0,127.0,127.0,130.0,127.0,128.0,21.0,-106.0,-77.0,127.0,127.0,127.0,111.0,84.0,-89.0
127.0,124.0,127.0,127.0,127.0,128.0,127.0,128.0,21.0,-106.0,-77.0,127.0,127.0,127.0,111.0,84.0,-89.0
127.0,124.0,127.0,127.0,127.0,128.0,127.0,128.0,21.0,-106.0,-77.0,127.0,127.0,127.0,111.0,84.0,-89.0
127.0,124.0,127.0,127.0,127.0,128.0,127.0,128.0,21.0,-106.0,-77.0,127.0,127.0,127.0,111.0,84.0,-89.0
127.0,124.0,127.0,127.0,126.0,128.0,127.0,128.0,21.0,-106.0,-77.0,127.0,127.0,127.0,111.0,84.0,-89.0
127.0,124.0,127.0,127.0,127.0,128.0,127.0,128.0,21.0,-106.0,-77.0,127.0,127.0,127.0,111.0,84.0,-89.0
127.0,124.0,127.0,127.0,127.0,128.0,127.0,128.0,21.0,-106.0,-77.0,127.0,127.0,127.0,111.0,84.0,-89.0
127.0,124.0,127.0,127.0,127.0,128.0,127.0,128.0,21.0,-106.0,-77.0,127.0,127.0,127.0,111.0,84.0,-89.0
127.0,124.0,127.0,127.0,127.0,128.0,127.0,128.0,21.0,-106.0,-77.0,127.0,127.0,127.0,111.0,84.0,-89.0
127.0,124.0,127.0,127.0,127.0,128.0,127.0,128.0,21.0,-106.0,-77.0,127.0,127.0,127.0,111.0,84.0,-89.0
127.0,124.0,126.0,127.0,127.0,129.0,126.0,128.0,21.0,-106.0,-77.0,127.0,127.0,127.0,111.0,84.0,-89.0
127.0,124.0,127.0,127.0,127.0,129.0,127.0,128.0,20.0,-106.0,-77.0,127.0,127.0,127.0,111.0,84.0,-89.0
127.0,124.0,127.0,127.0,127.0,129.0,127.0,128.0,20.0,-106.0,-77.0,127.0,127.0,127.0,111.0,84.0,-89.0
127.0,124.0,127.0,127.0,127.0,129.0,127.0,128.0,20.0,-106.0,-77.0,127.0,127.0,127.0,111.0,84.0,-89.0
127.0,124.0,127.0,127.0,127.0,129.0,127.0,128.0,20.0,-106.0,-77.0,127.0,127.0,127.0,111.0,84.0,-89.0
127.0,124.0,127.0,127.0,127.0,129.0,127.0,128.0,20.0,-106.0,-77.0,127.0,127.0,127.0,111.0,84.0,-89.0
127.0,124.0,127.0,127.0,127.0,129.0,127.0,128.0,20.0,-106.0,-77.0,127.0,127.0,127.0,111.0,84.0,-89.0
127.0,124.0,127.0,127.0,127.0,129.0,127.0,128.0,20.0,-106.0,-77.0,127.0,127.0,127.0,111.0,84.0,-89.0
127.0,124.0,127.0,127.0,127.0,129.0,127.0,128.0,20.0,-106.0,-77.0,127.0,127.0,127.0,111.0,84.0,-89.0
127.0,124.0,127.0,127.0,127.0,129.0,127.0,128.0,20.0,-106.0,-77.0,127.0,127.0,127.0,111.0,84.0,-89.0
127.0,124.0,127.0,127.0,127.0,129.0,127.0,128.0,20.0,-106.0,-77.0,127.0,127.0,127.0,111.0,84.0,-89.0
127.0,125.0,127.0,128.0,127.0,129.0,127.0,128.0,20.0,-106.0,-77.0,127.0,127.0,127.0,111.0,84.0,-89.0
127.0,125.0,127.0,127.0,127.0,130.0,127.0,128.0,20.0,-106.0,-77.0,127.0,127.0,127.0,111.0,84.0,-89.0
127.0,125.0,127.0,127.0,127.0,131.0,127.0,128.0,20.0,-106.0,-77.0,127.0,127.0,127.0,111.0,84.0,-89.0
127.0,125.0,127.0,127.0,127.0,130.0,127.0,128.0,20.0,-106.0,-77.0,127.0,127.0,127.0,111.0,84.0,-89.0
127.0,125.0,127.0,127.0,127.0,130.0,127.0,128.0,20.0,-106.0,-77.0,127.0,127.0,127.0,111.0,84.0,-89.0
127.0,125.0,127.0,127.0,127.0,130.0,127.0,128.0,20.0,-106.0,-77.0,127.0,127.0,127.0,111.0,84.0,-89.0
127.0,125.0,127.0,127.0,127.0,130.0,127.0,128.0,20.0,-106.0,-77.0,127.0,127.0,127.0,111.0,84.0,-89.0
127.0,125.0,127.0,127.0,127.0,130.0,127.0,128.0,20.0,-106.0,-77.0,127.0,127.0,127.0,111.0,84.0,-89.0
127.0,125.0,127.0,128.0,127.0,129.0,127.0,128.0,20.0,-106.0,-77.0,127.0,127.0,127.0,111.0,84.0,-89.0
127.0,125.0,127.0,128.0,127.0,129.0,127.0,128.0,20.0,-106.0,-77.0,127.0,127.0,127.0,111.0,84.0,-89.0
127.0,125.0,126.0,127.0,127.0,130.0,126.0,128.0,20.0,-106.0,-77.0,127.0,127.0,127.0,111.0,84.0,-89.0
127.0,125.0,125.0,127.0,127.0,131.0,126.0,128.0,20.0,-106.0,-77.0,127.0,127.0,127.0,111.0,84.0,-89.0
127.0,125.0,125.0,127.0,127.0,131.0,127.0,128.0,20.0,-106.0,-77.0,127.0,127.0,127.0,111.0,84.0,-89.0
127.0,125.0,125.0,127.0,127.0,131.0,127.0,128.0,20.0,-106.0,-77.0,127.0,127.0,127.0,111.0,84.0,-89.0
127.0,125.0,125.0,127.0,127.0,131.0,127.0,128.0,20.0,-106.0,-77.0,127.0,127.0,127.0,111.0,84.0,-89.0
127.0,125.0,125.0,127.0,127.0,131.0,127.0,128.0,20.0,-106.0,-77.0,127.0,127.0,127.0,111.0,84.0,-89.0
127.0,125.0,125.0,127.0,127.0,130.0,127.0,128.0,20.0,-106.0,-77.0,127.0,127.0,127.0,111.0,84.0,-89.0
127.0,125.0,126.0,128.0,127.0,130.0,127.0,128.0,20.0,-106.0,-77.0,127.0,127.0,127.0,111.0,84.0,-89.0
127.0,124.0,126.0,128.0,127.0,129.0,127.0,128.0,20.0,-106.0,-77.0,127.0,127.0,127.0,111.0,84.0,-89.0
127.0,124.0,126.0,128.0,127.0,130.0,127.0,128.0,20.0,-106.0,-77.0,127.0,127.0,127.0,111.0,84.0,-89.0
127.0,125.0,125.0,128.0,127.0,132.0,126.0,128.0,20.0,-106.0,-77.0,127.0,127.0,127.0,111.0,84.0,-89.0
127.0,125.0,125.0,128.0,127.0,132.0,126.0,128.0,20.0,-106.0,-77.0,127.0,127.0,127.0,111.0,84.0,-89.0
127.0,125.0,125.0,127.0,127.0,132.0,126.0,128.0,20.0,-106.0,-77.0,127.0,127.0,127.0,111.0,84.0,-89.0
127.0,125.0,126.0,127.0,127.0,131.0,126.0,128.0,20.0,-106.0,-77.0,127.0,127.0,127.0,111.0,84.0,-89.0
127.0,125.0,126.0,127.0,127.0,131.0,127.0,128.0,20.0,-106.0,-77.0,127.0,127.0,127.0,111.0,84.0,-89.0
127.0,125.0,126.0,127.0,127.0,131.0,127.0,128.0,20.0,-106.0,-77.0,127.0,127.0,127.0,111.0,84.0,-89.0
127.0,125.0,126.0,128.0,127.0,131.0,126.0,128.0,20.0,-106.0,-77.0,127.0,127.0,127.0,111.0,84.0,-89.0
127.0,125.0,126.0,128.0,127.0,130.0,126.0,128.0,20.0,-106.0,-77.0,127.0,127.0,127.0,111.0,84.0,-89.0
127.0,125.0,126.0,128.0,127.0,131.0,126.0,128.0,20.0,-106.0,-77.0,127.0,127.0,127.0,111.0,84.0,-89.0
127.0,125.0,126.0,128.0,127.0,131.0,126.0,128.0,20.0,-106.0,-77.0,127.0,127.0,127.0,111.0,84.0,-89.0
127.0,125.0,125.0,126.0,127.0,131.0,127.0,128.0,20.0,-106.0,-77.0,127.0,127.0,127.0,111.0,84.0,-89.0
127.0,125.0,125.0,126.0,127.0,131.0,127.0,128.0,20.0,-106.0,-77.0,127.0,127.0,127.0,111.0,84.0,-89.0
127.0,125.0,125.0,126.0,127.0,131.0,127.0,128.0,20.0,-106.0,-77.0,127.0,127.0,127.0,111.0,84.0,-89.0
127.0,125.0,125.0,126.0,127.0,131.0,127.0,128.0,20.0,-106.0,-77.0,127.0,127.0,127.0,111.0,84.0,-89.0
127.0,125.0,125.0,126.0,127.0,131.0,127.0,128.0,20.0,-106.0,-77.0,127.0,127.0,127.0,111.0,84.0,-89.0
127.0,125.0,125.0,127.0,127.0,130.0,127.0,128.0,20.0,-106.0,-77.0,127.0,127.0,127.0,111.0,84.0,-89.0
127.0,125.0,125.0,126.0,127.0,130.0,127.0,128.0,20.0,-106.0,-77.0,127.0,127.0,127.0,111.0,84.0,-89.0
127.0,125.0,125.0,126.0,127.0,130.0,127.0,128.0,20.0,-106.0,-77.0,127.0,127.0,127.0,111.0,84.0,-89.0
127.0,125.0,125.0,126.0,127.0,130.0,126.0,128.0,20.0,-106.0,-77.0,127.0,127.0,127.0,111.0,84.0,-89.0
127.0,125.0,125.0,126.0,127.0,131.0,126.0,128.0,20.0,-106.0,-77.0,127.0,127.0,127.0,111.0,84.0,-89.0
127.0,125.0,125.0,128.0,127.0,132.0,127.0,128.0,20.0,-106.0,-77.0,127.0,127.0,127.0,111.0,84.0,-89.0
127.0,125.0,125.0,128.0,127.0,131.0,127.0,128.0,20.0,-106.0,-77.0,127.0,127.0,127.0,111.0,84.0,-89.0
127.0,125.0,125.0,128.0,127.0,131.0,127.0,128.0,20.0,-106.0,-77.0,127.0,127.0,127.0,111.0,84.0,-89.0
127.0,124.0,126.0,128.0,127.0,131.0,127.0,128.0,20.0,-106.0,-77.0,127.0,127.0,127.0,111.0,84.0,-89.0
127.0,124.0,126.0,128.0,127.0,131.0,127.0,128.0,20.0,-106.0,-77.0,127.0,127.0,127.0,111.0,84.0,-89.0
127.0,124.0,126.0,128.0,127.0,130.0,127.0,128.0,20.0,-106.0,-77.0,127.0,127.0,127.0,111.0,84.0,-89.0
127.0,124.0,126.0,128.0,127.0,130.0,127.0,128.0,20.0,-106.0,-77.0,127.0,127.0,127.0,111.0,84.0,-89.0
127.0,124.0,126.0,128.0,127.0,131.0,127.0,128.0,20.0,-106.0,-77.0,127.0,127.0,127.0,111.0,84.0,-89.0
127.0,125.0,125.0,128.0,127.0,132.0,127.0,128.0,20.0,-106.0,-77.0,127.0,127.0,127.0,111.0,84.0,-89.0
127.0,125.0,125.0,128.0,127.0,132.0,127.0,128.0,20.0,-106.0,-77.0,127.0,127.0,127.0,111.0,84.0,-89.0
127.0,124.0,125.0,128.0,127.0,131.0,127.0,128.0,20.0,-106.0,-77.0,127.0,127.0,127.0,111.0,84.0,-89.0
127.0,124.0,125.0,128.0,127.0,131.0,127.0,128.0,20.0,-106.0,-77.0,127.0,127.0,127.0,111.0,84.0,-89.0
127.0,125.0,126.0,128.0,127.0,130.0,127.0,128.0,20.0,-106.0,-77.0,127.0,127.0,127.0,111.0,84.0,-89.0
127.0,124.0,126.0,128.0,127.0,130.0,127.0,128.0,20.0,-106.0,-77.0,127.0,127.0,127.0,111.0,84.0,-89.0
127.0,124.0,126.0,128.0,127.0,130.0,127.0,128.0,20.0,-106.0,-77.0,127.0,127.0,127.0,111.0,84.0,-89.0
127.0,124.0,126.0,128.0,127.0,130.0,127.0,128.0,20.0,-106.0,-77.0,127.0,127.0,127.0,111.0,84.0,-89.0
127.0,124.0,126.0,128.0,127.0,130.0,127.0,128.0,20.0,-106.0,-77.0,127.0,127.0,127.0,111.0,84.0,-89.0
127.0,125.0,125.0,128.0,127.0,131.0,127.0,128.0,20.0,-106.0,-77.0,127.0,127.0,127.0,111.0,84.0,-89.0
127.0,124.0,125.0,128.0,127.0,131.0,127.0,128.0,20.0,-106.0,-77.0,127.0,127.0,127.0,111.0,84.0,-89.0
127.0,124.0,125.0,128.0,127.0,131.0,127.0,128.0,20.0,-106.0,-77.0,127.0,127.0,127.0,111.0,84.0,-89.0
127.0,124.0,126.0,128.0,127.0,130.0,127.0,128.0,20.0,-106.0,-77.0,127.0,127.0,127.0,111.0,84.0,-89.0
127.0,124.0,127.0,128.0,127.0,129.0,127.0,128.0,20.0,-106.0,-77.0,127.0,127.0,127.0,111.0,84.0,-89.0
127.0,124.0,127.0,128.0,127.0,129.0,127.0,128.0,20.0,-106.0,-77.0,127.0,127.0,127.0,111.0,84.0,-89.0
127.0,124.0,127.0,127.0,127.0,129.0,127.0,128.0,20.0,-106.0,-77.0,127.0,127.0,127.0,111.0,84.0,-89.0
127.0,124.0,127.0,128.0,127.0,129.0,127.0,128.0,20.0,-106.0,-77.0,127.0,127.0,127.0,111.0,84.0,-89.0
127.0,124.0,127.0,128.0,127.0,129.0,127.0,128.0,20.0,-106.0,-77.0,127.0,127.0,127.0,111.0,84.0,-89.0
127.0,124.0,127.0,128.0,127.0,128.0,127.0,128.0,20.0,-106.0,-77.0,127.0,127.0,127.0,111.0,84.0,-89.0
127.0,124.0,126.0,127.0,127.0,129.0,127.0,128.0,20.0,-106.0,-77.0,127.0,127.0,127.0,111.0,84.0,-89.0
127.0,124.0,126.0,128.0,127.0,129.0,127.0,128.0,20.0,-106.0,-77.0,127.0,127.0,127.0,111.0,84.0,-89.0
127.0,124.0,126.0,127.0,127.0,130.0,127.0,128.0,20.0,-106.0,-77.0,127.0,127.0,127.0,111.0,84.0,-89.0
127.0,124.0,127.0,127.0,127.0,130.0,127.0,128.0,20.0,-106.0,-77.0,127.0,127.0,127.0,111.0,84.0,-89.0
127.0,124.0,127.0,127.0,127.0,130.0,127.0,128.0,20.0,-106.0,-77.0,127.0,127.0,127.0,111.0,84.0,-89.0
127.0,125.0,127.0,127.0,127.0,131.0,127.0,128.0,20.0,-106.0,-77.0,127.0,127.0,127.0,111.0,84.0,-89.0
127.0,125.0,127.0,127.0,127.0,131.0,127.0,128.0,20.0,-106.0,-77.0,127.0,127.0,127.0,111.0,84.0,-89.0
127.0,125.0,127.0,127.0,127.0,131.0,127.0,128.0,20.0,-106.0,-77.0,127.0,127.0,127.0,111.0,84.0,-89.0
127.0,125.0,126.0,128.0,127.0,132.0,127.0,128.0,20.0,-106.0,-77.0,127.0,127.0,127.0,111.0,84.0,-89.0
127.0,125.0,126.0,128.0,127.0,132.0,127.0,128.0,20.0,-106.0,-77.0,127.0,127.0,127.0,111.0,84.0,-89.0
127.0,125.0,126.0,128.0,127.0,132.0,127.0,128.0,20.0,-106.0,-77.0,127.0,127.0,127.0,111.0,84.0,-89.0
127.0,125.0,126.0,128.0,127.0,132.0,127.0,128.0,20.0,-106.0,-77.0,127.0,127.0,127.0,111.0,84.0,-89.0
127.0,125.0,127.0,128.0,127.0,131.0,127.0,128.0,20.0,-106.0,-77.0,127.0,127.0,127.0,111.0,84.0,-89.0
127.0,124.0,126.0,128.0,127.0,130.0,127.0,128.0,20.0,-106.0,-77.0,127.0,127.0,127.0,111.0,84.0,-89.0
127.0,124.0,126.0,128.0,127.0,130.0,127.0,128.0,20.0,-106.0,-77.0,127.0,127.0,127.0,111.0,84.0,-89.0
127.0,124.0,126.0,128.0,127.0,130.0,127.0,128.0,20.0,-106.0,-77.0,127.0,127.0,127.0,111.0,84.0,-89.0
127.0,124.0,126.0,128.0,127.0,130.0,127.0,128.0,20.0,-106.0,-77.0,127.0,127.0,127.0,111.0,84.0,-89.0
127.0,125.0,126.0,128.0,127.0,131.0,127.0,128.0,20.0,-106.0,-77.0,127.0,127.0,127.0,111.0,84.0,-89.0
127.0,125.0,126.0,128.0,127.0,131.0,127.0,128.0,20.0,-106.0,-77.0,127.0,127.0,127.0,111.0,84.0,-89.0
127.0,125.0,126.0,128.0,127.0,131.0,127.0,128.0,20.0,-106.0,-77.0,127.0,127.0,127.0,111.0,84.0,-89.0
127.0,125.0,126.0,128.0,127.0,131.0,127.0,128.0,20.0,-106.0,-77.0,127.0,127.0,127.0,111.0,84.0,-89.0
127.0,125.0,126.0,128.0,127.0,131.0,127.0,128.0,20.0,-106.0,-77.0,127.0,127.0,127.0,111.0,84.0,-89.0
127.0,125.0,126.0,128.0,127.0,130.0,127.0,128.0,20.0,-106.0,-77.0,127.0,127.0,127.0,111.0,84.0,-89.0
127.0,124.0,125.0,128.0,127.0,130.0,127.0,128.0,20.0,-106.0,-77.0,127.0,127.0,127.0,111.0,84.0,-89.0
127.0,124.0,126.0,128.0,127.0,130.0,127.0,128.0,20.0,-106.0,-77.0,127.0,127.0,127.0,111.0,84.0,-89.0
127.0,124.0,126.0,128.0,127.0,130.0,127.0,128.0,20.0,-106.0,-77.0,127.0,127.0,127.0,111.0,84.0,-89.0
127.0,124.0,125.0,128.0,127.0,131.0,127.0,128.0,20.0,-106.0,-77.0,127.0,127.0,127.0,111.0,84.0,-89.0
127.0,125.0,125.0,128.0,127.0,132.0,127.0,128.0,20.0,-106.0,-77.0,127.0,127.0,127.0,111.0,84.0,-89.0
127.0,125.0,125.0,128.0,127.0,132.0,127.0,128.0,20.0,-106.0,-77.0,127.0,127.0,127.0,111.0,84.0,-89.0
127.0,125.0,125.0,128.0,127.0,132.0,127.0,128.0,20.0,-106.0,-77.0,127.0,127.0,127.0,111.0,84.0,-89.0
127.0,125.0,125.0,128.0,127.0,131.0,127.0,128.0,20.0,-106.0,-77.0,127.0,127.0,127.0,111.0,84.0,-89.0
127.0,124.0,125.0,128.0,127.0,131.0,127.0,128.0,20.0,-106.0,-77.0,127.0,127.0,127.0,111.0,84.0,-89.0
127.0,124.0,125.0,128.0,127.0,131.0,127.0,128.0,20.0,-106.0,-77.0,127.0,127.0,127.0,111.0,84.0,-89.0
126.0,124.0,126.0,127.0,127.0,131.0,126.0,128.0,20.0,-106.0,-77.0,127.0,127.0,127.0,111.0,84.0,-89.0
127.0,124.0,126.0,127.0,127.0,131.0,126.0,128.0,20.0,-106.0,-77.0,127.0,127.0,127.0,111.0,84.0,-89.0
127.0,124.0,126.0,127.0,126.0,131.0,126.0,128.0,20.0,-106.0,-77.0,127.0,127.0,127.0,111.0,84.0,-89.0
127.0,124.0,126.0,127.0,126.0,132.0,126.0,128.0,20.0,-106.0,-77.0,127.0,127.0,127.0,111.0,84.0,-89.0
127.0,124.0,126.0,127.0,127.0,132.0,126.0,128.0,20.0,-106.0,-77.0,127.0,127.0,127.0,111.0,84.0,-89.0
127.0,124.0,126.0,127.0,127.0,132.0,126.0,128.0,20.0,-106.0,-77.0,127.0,127.0,127.0,111.0,84.0,-89.0
127.0,124.0,126.0,127.0,127.0,132.0,126.0,128.0,20.0,-106.0,-77.0,127.0,127.0,127.0,111.0,84.0,-89.0
126.0,124.0,126.0,128.0,127.0,131.0,126.0,128.0,20.0,-106.0,-77.0,127.0,127.0,127.0,111.0,84.0,-89.0
126.0,124.0,126.0,128.0,127.0,131.0,126.0,128.0,20.0,-106.0,-77.0,127.0,127.0,127.0,111.0,84.0,-89.0
127.0,124.0,126.0,127.0,127.0,131.0,126.0,128.0,20.0,-106.0,-77.0,127.0,127.0,127.0,111.0,84.0,-89.0
127.0,124.0,127.0,128.0,127.0,130.0,126.0,128.0,20.0,-106.0,-77.0,127.0,127.0,127.0,111.0,84.0,-89.0
127.0,124.0,127.0,128.0,127.0,130.0,126.0,128.0,20.0,-106.0,-77.0,127.0,127.0,127.0,111.0,84.0,-89.0
127.0,125.0,126.0,128.0,127.0,131.0,126.0,128.0,20.0,-106.0,-77.0,127.0,127.0,127.0,111.0,84.0,-89.0
127.0,125.0,126.0,128.0,127.0,131.0,126.0,128.0,20.0,-106.0,-77.0,127.0,127.0,127.0,111.0,84.0,-89.0
127.0,125.0,126.0,128.0,127.0,131.0,126.0,128.0,20.0,-106.0,-77.0,127.0,127.0,127.0,111.0,84.0,-89.0
127.0,125.0,126.0,128.0,127.0,131.0,126.0,128.0,20.0,-106.0,-77.0,127.0,127.0,127.0,111.0,84.0,-89.0
127.0,125.0,127.0,128.0,127.0,131.0,126.0,128.0,20.0,-106.0,-77.0,127.0,127.0,127.0,111.0,84.0,-89.0
127.0,124.0,127.0,128.0,127.0,130.0,126.0,128.0,20.0,-106.0,-77.0,127.0,127.0,127.0,111.0,84.0,-89.0
127.0,124.0,127.0,128.0,127.0,130.0,126.0,128.0,20.0,-106.0,-77.0,127.0,127.0,127.0,111.0,84.0,-89.0
127.0,124.0,127.0,128.0,127.0,130.0,126.0,128.0,20.0,-106.0,-77.0,127.0,127.0,127.0,111.0,84.0,-89.0
127.0,124.0,126.0,127.0,126.0,130.0,127.0,128.0,20.0,-106.0,-77.0,127.0,127.0,127.0,111.0,84.0,-89.0
127.0,125.0,125.0,127.0,127.0,131.0,127.0,128.0,20.0,-106.0,-77.0,127.0,127.0,127.0,111.0,84.0,-89.0
127.0,125.0,125.0,127.0,127.0,132.0,127.0,128.0,20.0,-106.0,-77.0,127.0,127.0,127.0,111.0,84.0,-89.0
127.0,125.0,125.0,127.0,127.0,131.0,127.0,128.0,20.0,-106.0,-77.0,127.0,127.0,127.0,111.0,84.0,-89.0
127.0,124.0,125.0,127.0,127.0,131.0,127.0,128.0,20.0,-106.0,-77.0,127.0,127.0,127.0,111.0,84.0,-89.0
127.0,124.0,126.0,127.0,126.0,131.0,127.0,128.0,20.0,-106.0,-77.0,127.0,127.0,127.0,111.0,84.0,-89.0
127.0,124.0,126.0,127.0,126.0,131.0,127.0,128.0,20.0,-106.0,-77.0,127.0,127.0,127.0,111.0,84.0,-89.0
127.0,124.0,126.0,127.0,126.0,130.0,127.0,128.0,20.0,-106.0,-77.0,127.0,127.0,127.0,111.0,84.0,-89.0
127.0,124.0,126.0,127.0,126.0,130.0,127.0,128.0,20.0,-106.0,-77.0,127.0,127.0,127.0,111.0,84.0,-89.0
127.0,124.0,126.0,127.0,126.0,130.0,127.0,128.0,20.0,-106.0,-77.0,127.0,127.0,127.0,111.0,84.0,-89.0
127.0,124.0,125.0,128.0,127.0,131.0,126.0,128.0,20.0,-106.0,-77.0,127.0,127.0,127.0,111.0,84.0,-89.0
127.0,125.0,125.0,128.0,127.0,132.0,126.0,128.0,20.0,-106.0,-77.0,127.0,127.0,127.0,111.0,84.0,-89.0
127.0,125.0,125.0,128.0,127.0,132.0,126.0,128.0,20.0,-106.0,-77.0,127.0,127.0,127.0,111.0,84.0,-89.0
127.0,125.0,125.0,128.0,127.0,131.0,126.0,128.0,20.0,-106.0,-77.0,127.0,127.0,127.0,111.0,84.0,-89.0
127.0,124.0,126.0,128.0,127.0,131.0,126.0,128.0,20.0,-106.0,-77.0,127.0,127.0,127.0,111.0,84.0,-89.0
127.0,124.0,126.0,128.0,127.0,131.0,126.0,128.0,20.0,-106.0,-77.0,127.0,127.0,127.0,111.0,84.0,-89.0
127.0,124.0,126.0,128.0,127.0,131.0,126.0,128.0,20.0,-106.0,-77.0,127.0,127.0,127.0,111.0,84.0,-89.0
127.0,124.0,126.0,128.0,127.0,130.0,126.0,128.0,20.0,-106.0,-77.0,127.0,127.0,127.0,111.0,84.0,-89.0
127.0,124.0,126.0,128.0,127.0,130.0,126.0,128.0,20.0,-106.0,-77.0,127.0,127.0,127.0,111.0,84.0,-89.0
127.0,124.0,126.0,128.0,127.0,130.0,126.0,128.0,20.0,-106.0,-77.0,127.0,127.0,127.0,111.0,84.0,-89.0
127.0,123.0,127.0,127.0,127.0,128.0,127.0,128.0,20.0,-106.0,-77.0,127.0,127.0,127.0,111.0,84.0,-89.0
127.0,123.0,127.0,127.0,127.0,129.0,127.0,128.0,20.0,-106.0,-77.0,127.0,127.0,127.0,111.0,84.0,-89.0
127.0,124.0,127.0,127.0,127.0,129.0,126.0,128.0,20.0,-106.0,-77.0,127.0,127.0,127.0,111.0,84.0,-89.0
127.0,123.0,127.0,127.0,127.0,128.0,127.0,128.0,20.0,-106.0,-77.0,127.0,127.0,127.0,111.0,84.0,-89.0
127.0,123.0,127.0,127.0,127.0,128.0,127.0,128.0,20.0,-106.0,-77.0,127.0,127.0,127.0,111.0,84.0,-89.0
127.0,123.0,127.0,127.0,127.0,128.0,127.0,128.0,20.0,-106.0,-77.0,127.0,127.0,127.0,111.0,84.0,-89.0
127.0,123.0,127.0,128.0,127.0,128.0,127.0,128.0,20.0,-106.0,-77.0,127.0,127.0,127.0,111.0,84.0,-89.0
127.0,123.0,127.0,127.0,127.0,128.0,127.0,128.0,20.0,-106.0,-77.0,127.0,127.0,127.0,111.0,84.0,-89.0
127.0,123.0,127.0,128.0,127.0,128.0,127.0,128.0,20.0,-106.0,-77.0,127.0,127.0,127.0,111.0,84.0,-89.0
127.0,123.0,127.0,128.0,127.0,128.0,127.0,128.0,20.0,-106.0,-77.0,127.0,127.0,127.0,111.0,84.0,-89.0
127.0,124.0,127.0,128.0,127.0,130.0,127.0,128.0,20.0,-106.0,-77.0,127.0,127.0,127.0,111.0,84.0,-89.0
127.0,124.0,127.0,127.0,127.0,130.0,127.0,128.0,20.0,-106.0,-77.0,127.0,127.0,127.0,111.0,84.0,-89.0
127.0,124.0,127.0,128.0,127.0,130.0,127.0,128.0,20.0,-106.0,-77.0,127.0,127.0,127.0,111.0,84.0,-89.0
127.0,124.0,127.0,128.0,127.0,129.0,127.0,128.0,20.0,-106.0,-77.0,127.0,127.0,127.0,111.0,84.0,-89.0
127.0,124.0,127.0,128.0,127.0,129.0,127.0,128.0,20.0,-106.0,-77.0,127.0,127.0,127.0,111.0,84.0,-89.0
127.0,124.0,127.0,128.0,127.0,130.0,126.0,128.0,20.0,-106.0,-77.0,127.0,127.0,127.0,111.0,84.0,-89.0
127.0,125.0,127.0,128.0,127.0,131.0,126.0,128.0,20.0,-106.0,-77.0,127.0,127.0,127.0,111.0,84.0,-89.0
127.0,124.0,127.0,128.0,127.0,131.0,126.0,128.0,20.0,-106.0,-77.0,127.0,127.0,127.0,111.0,84.0,-89.0
127.0,124.0,127.0,128.0,127.0,131.0,126.0,128.0,20.0,-106.0,-77.0,127.0,127.0,127.0,111.0,84.0,-89.0
127.0,124.0,127.0,128.0,127.0,130.0,126.0,128.0,20.0,-106.0,-77.0,127.0,127.0,127.0,111.0,84.0,-89.0
127.0,124.0,127.0,128.0,127.0,131.0,126.0,128.0,20.0,-106.0,-77.0,127.0,127.0,127.0,111.0,84.0,-89.0
127.0,124.0,127.0,128.0,127.0,131.0,127.0,128.0,20.0,-106.0,-77.0,127.0,127.0,127.0,111.0,84.0,-89.0
127.0,124.0,127.0,128.0,127.0,130.0,127.0,128.0,20.0,-106.0,-77.0,127.0,127.0,127.0,111.0,84.0,-89.0
127.0,124.0,127.0,128.0,127.0,131.0,127.0,128.0,20.0,-106.0,-77.0,127.0,127.0,127.0,111.0,84.0,-89.0
127.0,124.0,127.0,128.0,127.0,131.0,126.0,128.0,20.0,-106.0,-77.0,127.0,127.0,127.0,111.0,84.0,-89.0
127.0,125.0,127.0,128.0,127.0,132.0,127.0,128.0,20.0,-106.0,-77.0,127.0,127.0,127.0,111.0,84.0,-89.0
127.0,124.0,127.0,128.0,127.0,132.0,127.0,128.0,20.0,-106.0,-77.0,127.0,127.0,127.0,111.0,84.0,-89.0
127.0,124.0,127.0,128.0,127.0,132.0,127.0,128.0,20.0,-106.0,-77.0,127.0,127.0,127.0,111.0,84.0,-89.0
127.0,124.0,127.0,128.0,127.0,131.0,127.0,128.0,20.0,-106.0,-77.0,127.0,127.0,127.0,111.0,84.0,-89.0
127.0,124.0,127.0,128.0,127.0,132.0,126.0,128.0,20.0,-106.0,-77.0,127.0,127.0,127.0,111.0,84.0,-89.0
127.0,124.0,126.0,128.0,127.0,130.0,127.0,128.0,20.0,-106.0,-77.0,127.0,127.0,127.0,111.0,84.0,-89.0
127.0,124.0,126.0,128.0,127.0,130.0,127.0,128.0,20.0,-106.0,-77.0,127.0,127.0,127.0,111.0,84.0,-89.0
127.0,124.0,126.0,128.0,127.0,130.0,127.0,128.0,20.0,-106.0,-77.0,127.0,127.0,127.0,111.0,84.0,-89.0
127.0,124.0,126.0,128.0,127.0,130.0,126.0,128.0,20.0,-106.0,-77.0,127.0,127.0,127.0,111.0,84.0,-89.0
127.0,124.0,126.0,128.0,127.0,131.0,127.0,128.0,20.0,-106.0,-77.0,127.0,127.0,127.0,111.0,84.0,-89.0
127.0,124.0,126.0,128.0,127.0,131.0,126.0,128.0,20.0,-106.0,-77.0,127.0,127.0,127.0,111.0,84.0,-89.0
127.0,124.0,126.0,128.0,127.0,131.0,127.0,128.0,20.0,-106.0,-77.0,127.0,127.0,127.0,111.0,84.0,-89.0
127.0,124.0,126.0,128.0,127.0,131.0,126.0,128.0,20.0,-106.0,-77.0,127.0,127.0,127.0,111.0,84.0,-89.0
127.0,124.0,126.0,128.0,127.0,131.0,126.0,128.0,20.0,-106.0,-77.0,127.0,127.0,127.0,111.0,84.0,-89.0
127.0,124.0,126.0,128.0,127.0,131.0,127.0,128.0,20.0,-106.0,-77.0,127.0,127.0,127.0,111.0,84.0,-89.0
127.0,124.0,127.0,128.0,127.0,130.0,127.0,128.0,20.0,-106.0,-77.0,127.0,127.0,127.0,111.0,84.0,-89.0
127.0,124.0,127.0,127.0,127.0,130.0,127.0,128.0,20.0,-106.0,-77.0,127.0,127.0,127.0,111.0,84.0,-89.0
127.0,124.0,126.0,128.0,127.0,130.0,127.0,128.0,20.0,-106.0,-77.0,127.0,127.0,127.0,111.0,84.0,-89.0
127.0,125.0,126.0,128.0,127.0,132.0,127.0,128.0,20.0,-106.0,-77.0,127.0,127.0,127.0,111.0,84.0,-89.0
127.0,125.0,126.0,128.0,127.0,132.0,127.0,128.0,20.0,-106.0,-77.0,127.0,127.0,127.0,111.0,84.0,-89.0
127.0,125.0,126.0,127.0,127.0,132.0,127.0,128.0,20.0,-106.0,-77.0,127.0,127.0,127.0,111.0,84.0,-89.0
127.0,124.0,126.0,127.0,127.0,131.0,127.0,128.0,20.0,-106.0,-77.0,127.0,127.0,127.0,111.0,84.0,-89.0
127.0,124.0,126.0,127.0,127.0,131.0,127.0,128.0,20.0,-106.0,-77.0,127.0,127.0,127.0,111.0,84.0,-89.0
127.0,124.0,126.0,127.0,127.0,131.0,127.0,128.0,20.0,-106.0,-77.0,127.0,127.0,127.0,111.0,84.0,-89.0
127.0,124.0,127.0,127.0,127.0,130.0,127.0,128.0,20.0,-106.0,-77.0,127.0,127.0,127.0,111.0,84.0,-89.0
127.0,124.0,126.0,128.0,127.0,131.0,127.0,128.0,20.0,-106.0,-77.0,127.0,127.0,127.0,111.0,84.0,-89.0
127.0,124.0,126.0,128.0,127.0,131.0,127.0,128.0,20.0,-106.0,-77.0,127.0,127.0,127.0,111.0,84.0,-89.0
127.0,124.0,125.0,128.0,127.0,132.0,127.0,128.0,20.0,-106.0,-77.0,127.0,127.0,127.0,111.0,84.0,-89.0
127.0,124.0,125.0,128.0,127.0,132.0,127.0,128.0,20.0,-106.0,-77.0,127.0,127.0,127.0,111.0,84.0,-89.0
127.0,124.0,125.0,128.0,127.0,132.0,127.0,128.0,20.0,-106.0,-77.0,127.0,127.0,127.0,111.0,84.0,-89.0
127.0,124.0,125.0,128.0,127.0,132.0,127.0,128.0,20.0,-106.0,-77.0,127.0,127.0,127.0,111.0,84.0,-89.0
127.0,124.0,125.0,128.0,127.0,132.0,127.0,128.0,20.0,-106.0,-77.0,127.0,127.0,127.0,111.0,84.0,-89.0
127.0,124.0,125.0,128.0,127.0,132.0,127.0,128.0,20.0,-106.0,-77.0,127.0,127.0,127.0,111.0,84.0,-89.0
127.0,124.0,126.0,128.0,127.0,131.0,127.0,128.0,20.0,-106.0,-77.0,127.0,127.0,127.0,111.0,84.0,-89.0
127.0,124.0,126.0,128.0,127.0,131.0,127.0,128.0,20.0,-106.0,-77.0,127.0,127.0,127.0,111.0,84.0,-89.0
127.0,124.0,126.0,127.0,127.0,131.0,127.0,128.0,20.0,-106.0,-77.0,127.0,127.0,127.0,111.0,84.0,-89.0
127.0,124.0,126.0,127.0,127.0,132.0,126.0,128.0,20.0,-106.0,-77.0,127.0,127.0,127.0,111.0,84.0,-89.0
127.0,124.0,126.0,128.0,127.0,132.0,126.0,128.0,20.0,-106.0,-77.0,127.0,127.0,127.0,111.0,84.0,-89.0
127.0,125.0,126.0,128.0,127.0,132.0,127.0,128.0,20.0,-106.0,-77.0,127.0,127.0,127.0,111.0,84.0,-89.0
127.0,124.0,126.0,128.0,127.0,132.0,127.0,128.0,20.0,-106.0,-77.0,127.0,127.0,127.0,111.0,84.0,-89.0
127.0,124.0,126.0,128.0,127.0,132.0,127.0,128.0,20.0,-106.0,-77.0,127.0,127.0,127.0,111.0,84.0,-89.0
127.0,124.0,126.0,128.0,127.0,132.0,127.0,128.0,20.0,-106.0,-77.0,127.0,127.0,127.0,111.0,84.0,-89.0
127.0,124.0,126.0,127.0,127.0,131.0,127.0,128.0,20.0,-106.0,-77.0,127.0,127.0,127.0,111.0,84.0,-89.0
127.0,124.0,126.0,127.0,127.0,131.0,127.0,128.0,20.0,-106.0,-77.0,127.0,127.0,127.0,111.0,84.0,-89.0
127.0,124.0,126.0,127.0,127.0,131.0,127.0,128.0,20.0,-106.0,-77.0,127.0,127.0,127.0,111.0,84.0,-89.0
127.0,125.0,127.0,128.0,127.0,131.0,127.0,128.0,20.0,-106.0,-77.0,127.0,127.0,127.0,111.0,84.0,-89.0
127.0,125.0,127.0,128.0,127.0,131.0,127.0,128.0,20.0,-106.0,-77.0,127.0,127.0,127.0,111.0,84.0,-89.0
127.0,125.0,127.0,128.0,127.0,131.0,127.0,128.0,20.0,-106.0,-77.0,127.0,127.0,127.0,111.0,84.0,-89.0
127.0,125.0,127.0,128.0,127.0,131.0,127.0,128.0,20.0,-106.0,-77.0,127.0,127.0,127.0,111.0,84.0,-89.0
127.0,125.0,127.0,128.0,127.0,131.0,127.0,128.0,20.0,-106.0,-77.0,127.0,127.0,127.0,111.0,84.0,-89.0
127.0,125.0,127.0,128.0,127.0,131.0,127.0,128.0,20.0,-106.0,-77.0,127.0,127.0,127.0,111.0,84.0,-89.0
127.0,125.0,128.0,128.0,127.0,130.0,127.0,128.0,20.0,-106.0,-77.0,127.0,127.0,127.0,111.0,84.0,-89.0
127.0,124.0,128.0,128.0,127.0,130.0,127.0,128.0,20.0,-106.0,-77.0,127.0,127.0,127.0,111.0,84.0,-89.0
127.0,124.0,128.0,128.0,127.0,130.0,127.0,128.0,20.0,-106.0,-77.0,127.0,127.0,127.0,111.0,84.0,-89.0
127.0,124.0,128.0,128.0,127.0,130.0,127.0,128.0,20.0,-106.0,-77.0,127.0,127.0,127.0,111.0,84.0,-89.0
127.0,123.0,127.0,127.0,126.0,128.0,127.0,128.0,20.0,-106.0,-77.0,127.0,127.0,127.0,111.0,84.0,-89.0
127.0,124.0,127.0,127.0,126.0,129.0,127.0,128.0,20.0,-106.0,-77.0,127.0,127.0,127.0,111.0,84.0,-89.0
127.0,124.0,126.0,127.0,126.0,129.0,127.0,128.0,20.0,-106.0,-77.0,127.0,127.0,127.0,111.0,84.0,-89.0
127.0,124.0,126.0,127.0,126.0,130.0,127.0,128.0,20.0,-106.0,-77.0,127.0,127.0,127.0,111.0,84.0,-89.0
127.0,124.0,126.0,127.0,126.0,130.0,127.0,128.0,20.0,-106.0,-77.0,127.0,127.0,127.0,111.0,84.0,-89.0
127.0,123.0,127.0,127.0,126.0,129.0,127.0,128.0,20.0,-106.0,-77.0,127.0,127.0,127.0,111.0,84.0,-89.0
127.0,123.0,127.0,127.0,126.0,129.0,127.0,128.0,20.0,-106.0,-77.0,127.0,127.0,127.0,111.0,84.0,-89.0
127.0,123.0,127.0,127.0,126.0,129.0,127.0,128.0,20.0,-106.0,-77.0,127.0,127.0,127.0,111.0,84.0,-89.0
127.0,124.0,127.0,127.0,126.0,129.0,127.0,128.0,20.0,-106.0,-77.0,127.0,127.0,127.0,111.0,84.0,-89.0
127.0,124.0,127.0,127.0,126.0,128.0,127.0,128.0,20.0,-106.0,-77.0,127.0,127.0,127.0,111.0,84.0,-89.0
127.0,124.0,126.0,128.0,127.0,131.0,127.0,128.0,20.0,-106.0,-77.0,127.0,127.0,127.0,111.0,84.0,-89.0
127.0,124.0,126.0,128.0,127.0,131.0,127.0,128.0,20.0,-106.0,-77.0,127.0,127.0,127.0,111.0,84.0,-89.0
127.0,124.0,126.0,127.0,127.0,130.0,127.0,128.0,20.0,-106.0,-77.0,127.0,127.0,127.0,111.0,84.0,-89.0
127.0,124.0,126.0,127.0,127.0,130.0,127.0,128.0,20.0,-106.0,-77.0,127.0,127.0,127.0,111.0,84.0,-89.0
127.0,124.0,127.0,128.0,127.0,130.0,127.0,128.0,20.0,-106.0,-77.0,127.0,127.0,127.0,111.0,84.0,-89.0
127.0,124.0,126.0,128.0,127.0,131.0,127.0,128.0,20.0,-106.0,-77.0,127.0,127.0,127.0,111.0,84.0,-89.0
127.0,124.0,126.0,128.0,127.0,131.0,127.0,128.0,20.0,-106.0,-77.0,127.0,127.0,127.0,111.0,84.0,-89.0
127.0,124.0,126.0,128.0,127.0,131.0,127.0,128.0,20.0,-106.0,-77.0,127.0,127.0,127.0,111.0,84.0,-89.0
127.0,124.0,126.0,128.0,127.0,131.0,127.0,128.0,20.0,-106.0,-77.0,127.0,127.0,127.0,111.0,84.0,-89.0
127.0,124.0,126.0,128.0,127.0,131.0,127.0,128.0,20.0,-106.0,-77.0,127.0,127.0,127.0,111.0,84.0,-89.0
127.0,124.0,126.0,128.0,127.0,131.0,127.0,128.0,20.0,-106.0,-77.0,127.0,127.0,127.0,111.0,84.0,-89.0
127.0,124.0,126.0,128.0,127.0,131.0,127.0,128.0,20.0,-106.0,-77.0,127.0,127.0,127.0,111.0,84.0,-89.0
127.0,124.0,126.0,127.0,127.0,131.0,127.0,128.0,20.0,-106.0,-77.0,127.0,127.0,127.0,111.0,84.0,-89.0
127.0,124.0,127.0,128.0,127.0,130.0,127.0,128.0,20.0,-106.0,-77.0,127.0,127.0,127.0,111.0,84.0,-89.0
127.0,124.0,126.0,128.0,126.0,131.0,127.0,128.0,20.0,-106.0,-77.0,127.0,127.0,127.0,111.0,84.0,-89.0
127.0,124.0,126.0,128.0,127.0,131.0,127.0,128.0,20.0,-106.0,-77.0,127.0,127.0,127.0,111.0,84.0,-89.0
127.0,124.0,126.0,128.0,127.0,131.0,127.0,128.0,20.0,-106.0,-77.0,127.0,127.0,127.0,111.0,84.0,-89.0
127.0,124.0,126.0,128.0,127.0,131.0,127.0,128.0,20.0,-106.0,-77.0,127.0,127.0,127.0,111.0,84.0,-89.0
127.0,124.0,126.0,128.0,127.0,131.0,127.0,128.0,20.0,-106.0,-77.0,127.0,127.0,127.0,111.0,84.0,-89.0
127.0,124.0,126.0,128.0,127.0,131.0,127.0,128.0,20.0,-106.0,-77.0,127.0,127.0,127.0,111.0,84.0,-89.0
127.0,124.0,125.0,127.0,127.0,131.0,127.0,128.0,20.0,-106.0,-77.0,127.0,127.0,127.0,111.0,84.0,-89.0
127.0,124.0,125.0,127.0,127.0,131.0,127.0,128.0,20.0,-106.0,-77.0,127.0,127.0,127.0,111.0,84.0,-89.0
127.0,124.0,126.0,127.0,127.0,131.0,127.0,128.0,20.0,-106.0,-77.0,127.0,127.0,127.0,111.0,84.0,-89.0
127.0,124.0,125.0,127.0,127.0,131.0,126.0,127.0,20.0,-106.0,-77.0,127.0,127.0,127.0,111.0,84.0,-89.0
127.0,124.0,125.0,127.0,127.0,132.0,126.0,128.0,20.0,-106.0,-77.0,127.0,127.0,127.0,111.0,84.0,-89.0
127.0,124.0,125.0,127.0,127.0,132.0,127.0,128.0,20.0,-106.0,-77.0,127.0,127.0,127.0,111.0,84.0,-89.0
127.0,124.0,125.0,128.0,127.0,132.0,126.0,128.0,20.0,-106.0,-77.0,127.0,127.0,127.0,111.0,84.0,-89.0
127.0,124.0,125.0,128.0,127.0,132.0,127.0,128.0,20.0,-106.0,-77.0,127.0,127.0,127.0,111.0,84.0,-89.0
127.0,124.0,125.0,128.0,127.0,132.0,127.0,128.0,20.0,-106.0,-77.0,127.0,127.0,127.0,111.0,84.0,-89.0
127.0,124.0,125.0,128.0,127.0,132.0,127.0,128.0,20.0,-106.0,-77.0,127.0,127.0,127.0,111.0,84.0,-89.0
127.0,124.0,127.0,127.0,126.0,132.0,127.0,128.0,20.0,-106.0,-77.0,127.0,127.0,127.0,111.0,84.0,-89.0
127.0,124.0,127.0,127.0,127.0,131.0,127.0,128.0,20.0,-106.0,-77.0,127.0,127.0,127.0,111.0,84.0,-89.0
127.0,124.0,127.0,127.0,127.0,132.0,126.0,128.0,20.0,-106.0,-77.0,127.0,127.0,127.0,111.0,84.0,-89.0
127.0,124.0,126.0,127.0,127.0,133.0,127.0,128.0,20.0,-106.0,-77.0,127.0,127.0,127.0,111.0,84.0,-89.0
127.0,124.0,126.0,127.0,127.0,133.0,127.0,128.0,20.0,-106.0,-77.0,127.0,127.0,127.0,111.0,84.0,-89.0
127.0,124.0,126.0,127.0,127.0,132.0,127.0,128.0,20.0,-106.0,-77.0,127.0,127.0,127.0,111.0,84.0,-89.0
127.0,124.0,126.0,127.0,127.0,132.0,127.0,128.0,20.0,-106.0,-77.0,127.0,127.0,127.0,111.0,84.0,-89.0
127.0,124.0,126.0,127.0,127.0,132.0,127.0,128.0,20.0,-106.0,-77.0,127.0,127.0,127.0,111.0,84.0,-89.0
127.0,124.0,126.0,127.0,126.0,132.0,127.0,128.0,20.0,-106.0,-77.0,127.0,127.0,127.0,111.0,84.0,-89.0
127.0,124.0,127.0,127.0,126.0,132.0,127.0,128.0,20.0,-106.0,-77.0,127.0,127.0,127.0,111.0,84.0,-89.0
127.0,124.0,126.0,127.0,127.0,131.0,127.0,128.0,20.0,-106.0,-77.0,127.0,127.0,127.0,111.0,84.0,-89.0
127.0,124.0,126.0,127.0,127.0,131.0,127.0,128.0,20.0,-106.0,-77.0,127.0,127.0,127.0,111.0,84.0,-89.0
127.0,124.0,125.0,127.0,127.0,132.0,127.0,128.0,20.0,-106.0,-77.0,127.0,127.0,127.0,111.0,84.0,-89.0
127.0,125.0,125.0,127.0,127.0,132.0,127.0,128.0,20.0,-106.0,-77.0,127.0,127.0,127.0,111.0,84.0,-89.0
127.0,124.0,125.0,127.0,127.0,132.0,127.0,128.0,20.0,-106.0,-77.0,127.0,127.0,127.0,111.0,84.0,-89.0
127.0,125.0,125.0,127.0,127.0,133.0,127.0,128.0,20.0,-106.0,-77.0,127.0,127.0,127.0,111.0,84.0,-89.0
127.0,125.0,124.0,127.0,127.0,133.0,127.0,128.0,20.0,-106.0,-77.0,127.0,127.0,127.0,111.0,84.0,-89.0
127.0,125.0,125.0,127.0,127.0,133.0,127.0,128.0,20.0,-106.0,-77.0,127.0,127.0,127.0,111.0,84.0,-89.0
127.0,125.0,125.0,127.0,127.0,133.0,127.0,128.0,20.0,-106.0,-77.0,127.0,127.0,127.0,111.0,84.0,-89.0
127.0,124.0,125.0,127.0,127.0,133.0,127.0,128.0,20.0,-106.0,-77.0,127.0,127.0,127.0,111.0,84.0,-89.0
127.0,124.0,127.0,128.0,127.0,132.0,127.0,128.0,21.0,-106.0,-77.0,127.0,127.0,127.0,111.0,84.0,-89.0
127.0,124.0,127.0,128.0,127.0,131.0,127.0,128.0,21.0,-106.0,-77.0,127.0,127.0,127.0,111.0,84.0,-89.0
127.0,124.0,127.0,128.0,127.0,131.0,127.0,128.0,21.0,-106.0,-77.0,127.0,127.0,127.0,111.0,84.0,-89.0
127.0,124.0,127.0,128.0,127.0,131.0,127.0,128.0,21.0,-106.0,-77.0,127.0,127.0,127.0,111.0,84.0,-89.0
127.0,124.0,127.0,128.0,127.0,132.0,127.0,128.0,21.0,-106.0,-77.0,127.0,127.0,127.0,111.0,84.0,-89.0
127.0,125.0,126.0,128.0,127.0,133.0,127.0,128.0,21.0,-106.0,-77.0,127.0,127.0,127.0,111.0,84.0,-89.0
127.0,125.0,126.0,128.0,127.0,133.0,127.0,128.0,21.0,-106.0,-77.0,127.0,127.0,127.0,111.0,84.0,-89.0
127.0,124.0,126.0,128.0,127.0,132.0,127.0,128.0,21.0,-106.0,-77.0,127.0,127.0,127.0,111.0,84.0,-89.0
127.0,124.0,126.0,128.0,127.0,132.0,127.0,128.0,21.0,-106.0,-77.0,127.0,127.0,127.0,111.0,84.0,-89.0
127.0,124.0,127.0,128.0,127.0,132.0,127.0,128.0,21.0,-106.0,-77.0,127.0,127.0,127.0,111.0,84.0,-89.0
127.0,124.0,127.0,128.0,127.0,131.0,127.0,128.0,21.0,-106.0,-77.0,127.0,127.0,127.0,111.0,84.0,-89.0
127.0,124.0,127.0,128.0,127.0,131.0,127.0,128.0,21.0,-106.0,-77.0,127.0,127.0,127.0,111.0,84.0,-89.0
127.0,124.0,127.0,128.0,127.0,131.0,127.0,128.0,21.0,-106.0,-77.0,127.0,127.0,127.0,111.0,84.0,-89.0
127.0,124.0,127.0,128.0,127.0,132.0,127.0,128.0,21.0,-106.0,-77.0,127.0,127.0,127.0,111.0,84.0,-89.0
127.0,124.0,127.0,128.0,127.0,132.0,127.0,128.0,21.0,-106.0,-77.0,127.0,127.0,127.0,111.0,84.0,-89.0
127.0,124.0,127.0,128.0,127.0,132.0,127.0,128.0,21.0,-106.0,-77.0,127.0,127.0,127.0,111.0,84.0,-89.0
127.0,124.0,127.0,128.0,127.0,132.0,127.0,128.0,21.0,-106.0,-77.0,127.0,127.0,127.0,111.0,84.0,-89.0
127.0,124.0,127.0,128.0,127.0,132.0,127.0,128.0,21.0,-106.0,-77.0,127.0,127.0,127.0,111.0,84.0,-89.0
127.0,124.0,127.0,128.0,127.0,132.0,127.0,128.0,21.0,-106.0,-77.0,127.0,127.0,127.0,111.0,84.0,-89.0
127.0,124.0,127.0,128.0,127.0,131.0,127.0,128.0,21.0,-106.0,-77.0,127.0,127.0,127.0,111.0,84.0,-89.0
127.0,123.0,128.0,127.0,127.0,130.0,127.0,128.0,21.0,-106.0,-77.0,127.0,127.0,127.0,111.0,84.0,-89.0
127.0,124.0,128.0,127.0,127.0,130.0,127.0,128.0,21.0,-106.0,-77.0,127.0,127.0,127.0,111.0,84.0,-89.0
127.0,123.0,128.0,127.0,127.0,130.0,127.0,128.0,21.0,-106.0,-77.0,127.0,127.0,127.0,111.0,84.0,-89.0
127.0,123.0,128.0,127.0,127.0,130.0,127.0,128.0,21.0,-106.0,-77.0,127.0,127.0,127.0,111.0,84.0,-89.0
127.0,124.0,128.0,127.0,127.0,130.0,127.0,128.0,21.0,-106.0,-77.0,127.0,127.0,127.0,111.0,84.0,-89.0
127.0,124.0,128.0,127.0,127.0,130.0,127.0,128.0,21.0,-106.0,-77.0,127.0,127.0,127.0,111.0,84.0,-89.0
127.0,124.0,127.0,127.0,127.0,132.0,127.0,128.0,21.0,-106.0,-77.0,127.0,127.0,127.0,111.0,84.0,-89.0
127.0,123.0,129.0,127.0,127.0,130.0,127.0,128.0,21.0,-106.0,-77.0,127.0,127.0,127.0,111.0,84.0,-89.0
127.0,123.0,128.0,127.0,127.0,130.0,127.0,128.0,21.0,-106.0,-77.0,127.0,127.0,127.0,111.0,84.0,-89.0
127.0,123.0,128.0,127.0,127.0,130.0,127.0,128.0,21.0,-106.0,-77.0,127.0,127.0,127.0,111.0,84.0,-89.0
127.0,125.0,126.0,128.0,127.0,133.0,127.0,128.0,21.0,-106.0,-77.0,127.0,127.0,127.0,111.0,84.0,-89.0
127.0,125.0,126.0,128.0,127.0,132.0,127.0,128.0,21.0,-106.0,-77.0,127.0,127.0,127.0,111.0,84.0,-89.0
127.0,124.0,126.0,128.0,127.0,132.0,127.0,128.0,21.0,-106.0,-77.0,127.0,127.0,127.0,111.0,84.0,-89.0
127.0,124.0,126.0,128.0,127.0,132.0,127.0,128.0,21.0,-106.0,-77.0,127.0,127.0,127.0,111.0,84.0,-89.0
127.0,124.0,126.0,128.0,127.0,132.0,127.0,128.0,21.0,-106.0,-77.0,127.0,127.0,127.0,111.0,84.0,-89.0
127.0,124.0,126.0,128.0,127.0,132.0,127.0,128.0,21.0,-106.0,-77.0,127.0,127.0,127.0,111.0,84.0,-89.0
127.0,124.0,127.0,127.0,127.0,131.0,127.0,128.0,21.0,-106.0,-77.0,127.0,127.0,127.0,111.0,84.0,-89.0
127.0,124.0,127.0,128.0,127.0,131.0,127.0,128.0,21.0,-106.0,-77.0,127.0,127.0,127.0,111.0,84.0,-89.0
127.0,124.0,127.0,127.0,127.0,132.0,127.0,128.0,21.0,-106.0,-77.0,127.0,127.0,127.0,111.0,84.0,-89.0
127.0,125.0,126.0,128.0,127.0,133.0,127.0,128.0,21.0,-106.0,-77.0,127.0,127.0,127.0,111.0,84.0,-89.0
127.0,124.0,126.0,128.0,127.0,132.0,127.0,128.0,21.0,-106.0,-77.0,127.0,127.0,127.0,111.0,84.0,-89.0
127.0,124.0,126.0,128.0,127.0,132.0,127.0,128.0,21.0,-106.0,-77.0,127.0,127.0,127.0,111.0,84.0,-89.0
127.0,124.0,126.0,128.0,127.0,132.0,127.0,128.0,21.0,-106.0,-77.0,127.0,127.0,127.0,111.0,84.0,-89.0
127.0,124.0,126.0,128.0,127.0,132.0,127.0,128.0,21.0,-106.0,-77.0,127.0,127.0,127.0,111.0,84.0,-89.0
127.0,124.0,126.0,128.0,127.0,132.0,127.0,128.0,21.0,-106.0,-77.0,127.0,127.0,127.0,111.0,84.0,-89.0
127.0,124.0,127.0,127.0,127.0,131.0,126.0,128.0,21.0,-106.0,-77.0,127.0,127.0,127.0,111.0,84.0,-89.0
127.0,124.0,127.0,127.0,127.0,131.0,127.0,128.0,21.0,-106.0,-77.0,127.0,127.0,127.0,111.0,84.0,-89.0
127.0,124.0,127.0,127.0,127.0,131.0,126.0,128.0,21.0,-106.0,-77.0,127.0,127.0,127.0,111.0,84.0,-89.0
127.0,124.0,126.0,128.0,127.0,132.0,126.0,128.0,21.0,-106.0,-77.0,127.0,127.0,127.0,111.0,84.0,-89.0
127.0,124.0,126.0,128.0,127.0,133.0,126.0,128.0,21.0,-106.0,-77.0,127.0,127.0,127.0,111.0,84.0,-89.0
127.0,124.0,125.0,128.0,127.0,133.0,127.0,128.0,21.0,-106.0,-77.0,127.0,127.0,127.0,111.0,84.0,-89.0
127.0,124.0,125.0,128.0,127.0,133.0,127.0,128.0,21.0,-106.0,-77.0,127.0,127.0,127.0,111.0,84.0,-89.0
127.0,124.0,125.0,128.0,127.0,133.0,127.0,128.0,21.0,-106.0,-77.0,127.0,127.0,127.0,111.0,84.0,-89.0
127.0,124.0,126.0,128.0,127.0,132.0,127.0,128.0,21.0,-106.0,-77.0,127.0,127.0,127.0,111.0,84.0,-89.0
127.0,124.0,126.0,128.0,127.0,131.0,127.0,128.0,21.0,-106.0,-77.0,127.0,127.0,127.0,111.0,84.0,-89.0
127.0,124.0,126.0,128.0,127.0,131.0,127.0,128.0,21.0,-106.0,-77.0,127.0,127.0,127.0,111.0,84.0,-89.0
127.0,124.0,126.0,128.0,127.0,132.0,127.0,128.0,21.0,-106.0,-77.0,127.0,127.0,127.0,111.0,84.0,-89.0
127.0,125.0,125.0,128.0,127.0,133.0,126.0,128.0,21.0,-106.0,-77.0,127.0,127.0,127.0,111.0,84.0,-89.0
127.0,125.0,125.0,128.0,127.0,133.0,126.0,128.0,21.0,-106.0,-77.0,127.0,127.0,127.0,111.0,84.0,-89.0
127.0,125.0,125.0,128.0,127.0,133.0,127.0,128.0,21.0,-106.0,-77.0,127.0,127.0,127.0,111.0,84.0,-89.0
127.0,124.0,126.0,127.0,127.0,132.0,126.0,128.0,21.0,-106.0,-77.0,127.0,127.0,127.0,111.0,84.0,-89.0
127.0,124.0,126.0,128.0,127.0,132.0,126.0,128.0,21.0,-106.0,-77.0,127.0,127.0,127.0,111.0,84.0,-89.0
127.0,124.0,126.0,127.0,127.0,132.0,126.0,128.0,21.0,-106.0,-77.0,127.0,127.0,127.0,111.0,84.0,-89.0
127.0,124.0,126.0,128.0,127.0,131.0,127.0,128.0,21.0,-106.0,-77.0,127.0,127.0,127.0,111.0,84.0,-89.0
127.0,124.0,126.0,127.0,127.0,131.0,126.0,128.0,21.0,-106.0,-77.0,127.0,127.0,127.0,111.0,84.0,-89.0
127.0,124.0,126.0,128.0,127.0,131.0,126.0,128.0,21.0,-106.0,-77.0,127.0,127.0,127.0,111.0,84.0,-89.0
127.0,124.0,126.0,128.0,127.0,132.0,126.0,128.0,21.0,-106.0,-77.0,127.0,127.0,127.0,111.0,84.0,-89.0
127.0,124.0,126.0,128.0,127.0,133.0,126.0,128.0,21.0,-106.0,-77.0,127.0,127.0,127.0,111.0,84.0,-89.0
127.0,124.0,126.0,128.0,127.0,132.0,126.0,128.0,21.0,-106.0,-77.0,127.0,127.0,127.0,111.0,84.0,-89.0
127.0,124.0,126.0,128.0,127.0,132.0,126.0,128.0,21.0,-106.0,-77.0,127.0,127.0,127.0,111.0,84.0,-89.0
127.0,125.0,125.0,128.0,127.0,132.0,127.0,128.0,21.0,-106.0,-77.0,127.0,127.0,127.0,111.0,84.0,-89.0
127.0,124.0,125.0,127.0,127.0,132.0,126.0,128.0,21.0,-106.0,-77.0,127.0,127.0,127.0,111.0,84.0,-89.0
127.0,124.0,125.0,128.0,127.0,132.0,126.0,128.0,21.0,-106.0,-77.0,127.0,127.0,127.0,111.0,84.0,-89.0
127.0,124.0,125.0,128.0,127.0,132.0,126.0,128.0,21.0,-106.0,-77.0,127.0,127.0,127.0,111.0,84.0,-89.0
127.0,124.0,125.0,128.0,127.0,131.0,126.0,128.0,21.0,-106.0,-77.0,127.0,127.0,127.0,111.0,84.0,-89.0
127.0,125.0,125.0,128.0,127.0,133.0,126.0,128.0,21.0,-106.0,-77.0,127.0,127.0,127.0,111.0,84.0,-89.0
127.0,125.0,125.0,128.0,127.0,133.0,126.0,128.0,21.0,-106.0,-77.0,127.0,127.0,127.0,111.0,84.0,-89.0
127.0,125.0,125.0,128.0,127.0,133.0,126.0,128.0,21.0,-106.0,-77.0,127.0,127.0,127.0,111.0,84.0,-89.0
127.0,125.0,125.0,128.0,127.0,133.0,126.0,128.0,21.0,-106.0,-77.0,127.0,127.0,127.0,111.0,84.0,-89.0
127.0,125.0,125.0,128.0,127.0,132.0,126.0,128.0,21.0,-106.0,-77.0,127.0,127.0,127.0,111.0,84.0,-89.0
127.0,125.0,126.0,128.0,127.0,132.0,126.0,128.0,21.0,-106.0,-77.0,127.0,127.0,127.0,111.0,84.0,-89.0
127.0,124.0,126.0,128.0,127.0,132.0,126.0,128.0,21.0,-106.0,-77.0,127.0,127.0,127.0,111.0,84.0,-89.0
127.0,124.0,126.0,128.0,127.0,132.0,126.0,128.0,21.0,-106.0,-77.0,127.0,127.0,127.0,111.0,84.0,-89.0
127.0,124.0,126.0,128.0,127.0,132.0,126.0,128.0,21.0,-106.0,-77.0,127.0,127.0,127.0,111.0,84.0,-89.0
127.0,125.0,126.0,128.0,127.0,132.0,126.0,128.0,21.0,-106.0,-77.0,127.0,127.0,127.0,111.0,84.0,-89.0
127.0,125.0,125.0,128.0,127.0,133.0,126.0,128.0,21.0,-106.0,-77.0,127.0,127.0,127.0,111.0,84.0,-89.0
127.0,125.0,125.0,128.0,127.0,133.0,126.0,128.0,21.0,-106.0,-77.0,127.0,127.0,127.0,111.0,84.0,-89.0
127.0,125.0,125.0,128.0,127.0,133.0,126.0,128.0,21.0,-106.0,-77.0,127.0,127.0,127.0,111.0,84.0,-89.0
127.0,125.0,126.0,128.0,127.0,132.0,126.0,128.0,21.0,-106.0,-77.0,127.0,127.0,127.0,111.0,84.0,-89.0
127.0,125.0,126.0,128.0,127.0,133.0,126.0,128.0,21.0,-106.0,-77.0,127.0,127.0,127.0,111.0,84.0,-89.0
127.0,124.0,127.0,127.0,127.0,131.0,127.0,128.0,21.0,-106.0,-77.0,127.0,127.0,127.0,111.0,84.0,-89.0
127.0,124.0,127.0,127.0,127.0,131.0,127.0,128.0,21.0,-106.0,-77.0,127.0,127.0,127.0,111.0,84.0,-89.0
127.0,124.0,127.0,127.0,127.0,131.0,127.0,128.0,21.0,-106.0,-77.0,127.0,127.0,127.0,111.0,84.0,-89.0
127.0,124.0,126.0,127.0,127.0,132.0,126.0,128.0,21.0,-106.0,-77.0,127.0,127.0,127.0,111.0,84.0,-89.0
127.0,124.0,126.0,128.0,127.0,133.0,127.0,128.0,21.0,-106.0,-77.0,127.0,127.0,127.0,111.0,84.0,-89.0
127.0,125.0,126.0,128.0,127.0,133.0,127.0,128.0,21.0,-106.0,-77.0,127.0,127.0,127.0,111.0,84.0,-89.0
127.0,124.0,126.0,128.0,127.0,132.0,127.0,128.0,21.0,-106.0,-77.0,127.0,127.0,127.0,111.0,84.0,-89.0
127.0,124.0,126.0,128.0,127.0,132.0,127.0,128.0,21.0,-106.0,-77.0,127.0,127.0,127.0,111.0,84.0,-89.0
127.0,124.0,126.0,128.0,127.0,132.0,127.0,128.0,21.0,-106.0,-77.0,127.0,127.0,127.0,111.0,84.0,-89.0
127.0,124.0,127.0,127.0,127.0,132.0,127.0,128.0,21.0,-106.0,-77.0,127.0,127.0,127.0,111.0,84.0,-89.0
127.0,123.0,128.0,128.0,127.0,129.0,127.0,128.0,21.0,-106.0,-77.0,127.0,127.0,127.0,111.0,84.0,-89.0
127.0,123.0,128.0,128.0,127.0,129.0,127.0,128.0,21.0,-106.0,-77.0,127.0,127.0,127.0,111.0,84.0,-89.0
127.0,123.0,128.0,129.0,127.0,129.0,127.0,128.0,21.0,-106.0,-77.0,127.0,127.0,127.0,111.0,84.0,-89.0
127.0,123.0,128.0,129.0,127.0,129.0,127.0,128.0,21.0,-106.0,-77.0,127.0,127.0,127.0,111.0,84.0,-89.0
127.0,123.0,127.0,129.0,127.0,129.0,127.0,128.0,21.0,-106.0,-77.0,127.0,127.0,127.0,111.0,84.0,-89.0
127.0,124.0,127.0,129.0,127.0,130.0,127.0,128.0,21.0,-106.0,-77.0,127.0,127.0,127.0,111.0,84.0,-89.0
127.0,124.0,127.0,129.0,127.0,131.0,127.0,128.0,21.0,-106.0,-77.0,127.0,127.0,127.0,111.0,84.0,-89.0
127.0,124.0,127.0,129.0,127.0,131.0,127.0,128.0,21.0,-106.0,-77.0,127.0,127.0,127.0,111.0,84.0,-89.0
127.0,123.0,128.0,128.0,127.0,129.0,127.0,128.0,21.0,-106.0,-77.0,127.0,127.0,127.0,111.0,84.0,-89.0
127.0,123.0,128.0,128.0,127.0,129.0,127.0,128.0,21.0,-106.0,-77.0,127.0,127.0,127.0,111.0,84.0,-89.0
127.0,124.0,126.0,128.0,127.0,132.0,127.0,128.0,21.0,-106.0,-77.0,127.0,127.0,127.0,111.0,84.0,-89.0
127.0,124.0,126.0,128.0,127.0,132.0,127.0,128.0,21.0,-106.0,-77.0,127.0,127.0,127.0,111.0,84.0,-89.0
127.0,124.0,126.0,128.0,127.0,132.0,127.0,128.0,21.0,-106.0,-77.0,127.0,127.0,127.0,111.0,84.0,-89.0
127.0,124.0,126.0,128.0,127.0,132.0,127.0,128.0,21.0,-106.0,-77.0,127.0,127.0,127.0,111.0,84.0,-89.0
127.0,124.0,126.0,128.0,127.0,132.0,127.0,128.0,21.0,-106.0,-77.0,127.0,127.0,127.0,111.0,84.0,-89.0
127.0,123.0,126.0,128.0,127.0,132.0,127.0,128.0,21.0,-106.0,-77.0,127.0,127.0,127.0,111.0,84.0,-89.0
127.0,123.0,126.0,128.0,127.0,132.0,127.0,128.0,21.0,-106.0,-77.0,127.0,127.0,127.0,111.0,84.0,-89.0
127.0,124.0,126.0,128.0,127.0,131.0,127.0,128.0,21.0,-106.0,-77.0,127.0,127.0,127.0,111.0,84.0,-89.0
127.0,124.0,126.0,128.0,127.0,131.0,127.0,128.0,21.0,-106.0,-77.0,127.0,127.0,127.0,111.0,84.0,-89.0
127.0,124.0,126.0,127.0,127.0,132.0,127.0,128.0,21.0,-106.0,-77.0,127.0,127.0,127.0,111.0,84.0,-89.0
127.0,124.0,126.0,127.0,127.0,133.0,127.0,128.0,21.0,-106.0,-77.0,127.0,127.0,127.0,111.0,84.0,-89.0
127.0,124.0,126.0,127.0,127.0,133.0,127.0,128.0,21.0,-106.0,-77.0,127.0,127.0,127.0,111.0,84.0,-89.0
127.0,124.0,126.0,127.0,127.0,133.0,127.0,128.0,21.0,-106.0,-77.0,127.0,127.0,127.0,111.0,84.0,-89.0
127.0,124.0,127.0,127.0,127.0,133.0,127.0,128.0,21.0,-106.0,-77.0,127.0,127.0,127.0,111.0,84.0,-89.0
127.0,124.0,127.0,127.0,127.0,132.0,127.0,128.0,21.0,-106.0,-77.0,127.0,127.0,127.0,111.0,84.0,-89.0
127.0,124.0,127.0,127.0,127.0,132.0,127.0,128.0,21.0,-106.0,-77.0,127.0,127.0,127.0,111.0,84.0,-89.0
127.0,124.0,127.0,127.0,127.0,132.0,127.0,128.0,21.0,-106.0,-77.0,127.0,127.0,127.0,111.0,84.0,-89.0
127.0,124.0,126.0,127.0,127.0,132.0,127.0,128.0,21.0,-106.0,-77.0,127.0,127.0,127.0,111.0,84.0,-89.0
127.0,124.0,126.0,127.0,127.0,133.0,127.0,128.0,21.0,-106.0,-77.0,127.0,127.0,127.0,111.0,84.0,-89.0
127.0,124.0,126.0,127.0,127.0,133.0,127.0,128.0,21.0,-106.0,-77.0,127.0,127.0,127.0,111.0,84.0,-89.0
127.0,124.0,126.0,128.0,127.0,133.0,127.0,128.0,21.0,-106.0,-77.0,127.0,127.0,127.0,111.0,84.0,-89.0
127.0,124.0,126.0,127.0,127.0,133.0,127.0,128.0,21.0,-106.0,-77.0,127.0,127.0,127.0,111.0,84.0,-89.0
127.0,124.0,126.0,128.0,127.0,133.0,127.0,128.0,21.0,-106.0,-77.0,127.0,127.0,127.0,111.0,84.0,-89.0
127.0,124.0,127.0,128.0,127.0,132.0,127.0,128.0,21.0,-106.0,-77.0,127.0,127.0,127.0,111.0,84.0,-89.0
127.0,124.0,127.0,128.0,127.0,132.0,127.0,128.0,21.0,-106.0,-77.0,127.0,127.0,127.0,111.0,84.0,-89.0
127.0,124.0,127.0,127.0,127.0,132.0,127.0,128.0,21.0,-106.0,-77.0,127.0,127.0,127.0,111.0,84.0,-89.0
127.0,124.0,127.0,127.0,127.0,132.0,127.0,128.0,21.0,-106.0,-77.0,127.0,127.0,127.0,111.0,84.0,-89.0
127.0,124.0,126.0,127.0,127.0,133.0,127.0,128.0,21.0,-106.0,-77.0,127.0,127.0,127.0,111.0,84.0,-89.0
127.0,124.0,126.0,127.0,127.0,133.0,127.0,128.0,21.0,-106.0,-77.0,127.0,127.0,127.0,111.0,84.0,-89.0
127.0,124.0,126.0,127.0,127.0,133.0,127.0,128.0,21.0,-106.0,-77.0,127.0,127.0,127.0,111.0,84.0,-89.0
127.0,125.0,125.0,128.0,127.0,133.0,127.0,128.0,21.0,-106.0,-77.0,127.0,127.0,127.0,111.0,84.0,-89.0
127.0,124.0,125.0,128.0,127.0,133.0,127.0,128.0,21.0,-106.0,-77.0,127.0,127.0,127.0,111.0,84.0,-89.0
127.0,124.0,126.0,128.0,127.0,132.0,127.0,128.0,21.0,-106.0,-77.0,127.0,127.0,127.0,111.0,84.0,-89.0
127.0,124.0,126.0,128.0,127.0,132.0,127.0,128.0,21.0,-106.0,-77.0,127.0,127.0,127.0,111.0,84.0,-89.0
127.0,124.0,125.0,127.0,127.0,132.0,127.0,128.0,21.0,-106.0,-77.0,127.0,127.0,127.0,111.0,84.0,-89.0
127.0,124.0,125.0,127.0,127.0,132.0,127.0,128.0,21.0,-106.0,-77.0,127.0,127.0,127.0,111.0,84.0,-89.0
127.0,124.0,125.0,128.0,127.0,133.0,127.0,128.0,21.0,-106.0,-77.0,127.0,127.0,127.0,111.0,84.0,-89.0
127.0,125.0,125.0,128.0,127.0,133.0,127.0,128.0,21.0,-106.0,-77.0,127.0,127.0,127.0,111.0,84.0,-89.0
127.0,124.0,125.0,128.0,127.0,133.0,127.0,128.0,21.0,-106.0,-77.0,127.0,127.0,127.0,111.0,84.0,-89.0
127.0,124.0,125.0,128.0,127.0,133.0,127.0,128.0,21.0,-106.0,-77.0,127.0,127.0,127.0,111.0,84.0,-89.0
127.0,124.0,126.0,128.0,127.0,133.0,127.0,128.0,21.0,-106.0,-77.0,127.0,127.0,127.0,111.0,84.0,-89.0
127.0,124.0,126.0,128.0,127.0,132.0,127.0,128.0,21.0,-106.0,-77.0,127.0,127.0,127.0,111.0,84.0,-89.0
127.0,124.0,127.0,128.0,127.0,132.0,127.0,128.0,21.0,-106.0,-77.0,127.0,127.0,127.0,111.0,84.0,-89.0
127.0,124.0,126.0,126.0,127.0,132.0,126.0,128.0,21.0,-106.0,-77.0,127.0,127.0,127.0,111.0,84.0,-89.0
127.0,124.0,126.0,126.0,126.0,132.0,126.0,128.0,21.0,-106.0,-77.0,127.0,127.0,127.0,111.0,84.0,-89.0
127.0,124.0,126.0,126.0,126.0,133.0,126.0,128.0,21.0,-106.0,-77.0,127.0,127.0,127.0,111.0,84.0,-89.0
127.0,124.0,126.0,127.0,127.0,133.0,126.0,128.0,21.0,-106.0,-77.0,127.0,127.0,127.0,111.0,84.0,-89.0
127.0,124.0,126.0,127.0,127.0,133.0,126.0,128.0,21.0,-106.0,-77.0,127.0,127.0,127.0,111.0,84.0,-89.0
127.0,124.0,126.0,127.0,127.0,133.0,127.0,128.0,21.0,-106.0,-77.0,127.0,127.0,127.0,111.0,84.0,-89.0
127.0,124.0,126.0,127.0,126.0,133.0,127.0,128.0,21.0,-106.0,-77.0,127.0,127.0,127.0,111.0,84.0,-89.0
127.0,124.0,126.0,128.0,127.0,133.0,127.0,128.0,21.0,-106.0,-77.0,127.0,127.0,127.0,111.0,84.0,-89.0
127.0,124.0,126.0,128.0,127.0,132.0,127.0,128.0,21.0,-106.0,-77.0,127.0,127.0,127.0,111.0,84.0,-89.0
