emg1,emg2,emg3,emg4,emg5,emg6,emg7,emg8,acc_x,acc_y,acc_z,gyro_x,gyro_y,gyro_z,angle_pitch,angle_roll,angle_yaw
129.0,129.0,162.0,124.0,121.0,155.0,125.0,122.0,35.0,-121.0,-61.0,127.0,127.0,127.0,124.0,89.0,-67.0
129.0,130.0,162.0,124.0,121.0,156.0,125.0,122.0,35.0,-121.0,-61.0,127.0,127.0,127.0,124.0,89.0,-67.0
129.0,130.0,162.0,124.0,121.0,156.0,125.0,122.0,35.0,-121.0,-61.0,127.0,127.0,127.0,124.0,89.0,-67.0
129.0,130.0,162.0,124.0,121.0,156.0,125.0,122.0,35.0,-121.0,-61.0,127.0,127.0,127.0,124.0,89.0,-67.0
129.0,129.0,163.0,123.0,120.0,156.0,125.0,122.0,35.0,-121.0,-61.0,127.0,127.0,127.0,124.0,89.0,-67.0
129.0,129.0,162.0,123.0,121.0,156.0,125.0,122.0,35.0,-121.0,-61.0,127.0,127.0,127.0,124.0,89.0,-67.0
129.0,129.0,162.0,124.0,121.0,156.0,125.0,122.0,35.0,-121.0,-61.0,127.0,127.0,127.0,124.0,89.0,-67.0
129.0,129.0,162.0,124.0,121.0,156.0,125.0,122.0,35.0,-121.0,-61.0,127.0,127.0,127.0,124.0,89.0,-67.0
129.0,129.0,162.0,124.0,121.0,156.0,125.0,122.0,35.0,-121.0,-61.0,127.0,127.0,127.0,124.0,89.0,-67.0
129.0,129.0,162.0,124.0,121.0,155.0,125.0,122.0,35.0,-121.0,-61.0,127.0,127.0,127.0,124.0,89.0,-67.0
126.0,130.0,165.0,120.0,124.0,158.0,125.0,123.0,34.0,-121.0,-61.0,127.0,127.0,127.0,124.0,89.0,-67.0
126.0,130.0,165.0,120.0,124.0,159.0,126.0,123.0,34.0,-121.0,-61.0,127.0,127.0,127.0,124.0,89.0,-67.0
126.0,130.0,165.0,120.0,124.0,159.0,126.0,123.0,34.0,-121.0,-61.0,127.0,127.0,127.0,124.0,89.0,-67.0
126.0,130.0,164.0,120.0,124.0,156.0,125.0,122.0,34.0,-121.0,-61.0,127.0,127.0,127.0,124.0,89.0,-67.0
126.0,130.0,164.0,120.0,124.0,157.0,125.0,122.0,34.0,-121.0,-61.0,127.0,127.0,127.0,124.0,89.0,-67.0
126.0,130.0,165.0,120.0,124.0,157.0,125.0,122.0,34.0,-121.0,-61.0,127.0,127.0,127.0,124.0,89.0,-67.0
126.0,130.0,165.0,120.0,124.0,157.0,125.0,123.0,34.0,-121.0,-61.0,127.0,127.0,127.0,124.0,89.0,-67.0
126.0,130.0,165.0,120.0,124.0,158.0,125.0,122.0,34.0,-121.0,-61.0,127.0,127.0,127.0,124.0,89.0,-67.0
126.0,130.0,165.0,120.0,124.0,158.0,125.0,123.0,34.0,-121.0,-61.0,127.0,127.0,127.0,124.0,89.0,-67.0
126.0,130.0,165.0,120.0,124.0,158.0,125.0,123.0,34.0,-121.0,-61.0,127.0,127.0,127.0,124.0,89.0,-67.0
126.0,132.0,174.0,127.0,128.0,177.0,126.0,123.0,34.0,-121.0,-62.0,127.0,127.0,127.0,124.0,89.0,-67.0
126.0,132.0,175.0,127.0,128.0,176.0,126.0,123.0,34.0,-121.0,-62.0,127.0,127.0,127.0,124.0,89.0,-67.0
126.0,131.0,173.0,126.0,127.0,176.0,126.0,123.0,34.0,-121.0,-62.0,127.0,127.0,127.0,124.0,89.0,-67.0
126.0,131.0,173.0,126.0,127.0,176.0,126.0,123.0,34.0,-121.0,-62.0,127.0,127.0,127.0,124.0,89.0,-67.0
126.0,131.0,173.0,126.0,127.0,176.0,126.0,123.0,34.0,-121.0,-62.0,127.0,127.0,127.0,124.0,89.0,-67.0
126.0,131.0,174.0,126.0,127.0,177.0,126.0,123.0,34.0,-121.0,-62.0,127.0,127.0,127.0,124.0,89.0,-67.0
126.0,131.0,174.0,127.0,127.0,177.0,125.0,123.0,34.0,-121.0,-62.0,127.0,127.0,127.0,124.0,89.0,-67.0
126.0,132.0,174.0,127.0,128.0,177.0,125.0,123.0,34.0,-121.0,-62.0,127.0,127.0,127.0,124.0,89.0,-67.0
126.0,132.0,174.0,127.0,128.0,177.0,126.0,123.0,34.0,-121.0,-62.0,127.0,127.0,127.0,124.0,89.0,-67.0
126.0,132.0,174.0,127.0,128.0,177.0,126.0,123.0,34.0,-121.0,-62.0,127.0,127.0,127.0,124.0,89.0,-67.0
124.0,135.0,182.0,132.0,129.0,163.0,126.0,125.0,34.0,-121.0,-62.0,127.0,127.0,127.0,124.0,89.0,-67.0
125.0,134.0,180.0,131.0,128.0,166.0,125.0,125.0,34.0,-121.0,-62.0,127.0,127.0,127.0,124.0,89.0,-67.0
125.0,134.0,180.0,131.0,128.0,166.0,125.0,125.0,34.0,-121.0,-62.0,127.0,127.0,127.0,124.0,89.0,-67.0
125.0,135.0,180.0,131.0,128.0,165.0,125.0,125.0,34.0,-121.0,-62.0,127.0,127.0,127.0,124.0,89.0,-67.0
125.0,135.0,180.0,131.0,128.0,165.0,125.0,125.0,34.0,-121.0,-62.0,127.0,127.0,127.0,124.0,89.0,-67.0
125.0,135.0,180.0,131.0,128.0,165.0,126.0,125.0,34.0,-121.0,-62.0,127.0,127.0,127.0,124.0,89.0,-67.0
125.0,135.0,180.0,131.0,128.0,164.0,126.0,125.0,34.0,-121.0,-62.0,127.0,127.0,127.0,124.0,89.0,-67.0
124.0,135.0,180.0,131.0,129.0,164.0,126.0,125.0,34.0,-121.0,-62.0,127.0,127.0,127.0,124.0,89.0,-67.0
124.0,135.0,181.0,132.0,129.0,164.0,126.0,125.0,34.0,-121.0,-62.0,127.0,127.0,127.0,124.0,89.0,-67.0
124.0,135.0,181.0,132.0,129.0,164.0,126.0,125.0,34.0,-121.0,-62.0,127.0,127.0,127.0,124.0,89.0,-67.0
124.0,147.0,254.0,148.0,138.0,147.0,125.0,125.0,35.0,-121.0,-62.0,127.0,127.0,127.0,124.0,89.0,-67.0
124.0,147.0,254.0,148.0,138.0,145.0,125.0,125.0,35.0,-121.0,-62.0,127.0,127.0,127.0,124.0,89.0,-67.0
124.0,148.0,254.0,148.0,138.0,144.0,125.0,125.0,35.0,-121.0,-62.0,127.0,127.0,127.0,124.0,89.0,-67.0
124.0,148.0,254.0,147.0,138.0,142.0,125.0,125.0,35.0,-121.0,-62.0,127.0,127.0,127.0,124.0,89.0,-67.0
124.0,148.0,254.0,147.0,138.0,141.0,125.0,125.0,35.0,-121.0,-62.0,127.0,127.0,127.0,124.0,89.0,-67.0
124.0,148.0,253.0,147.0,137.0,139.0,125.0,125.0,35.0,-121.0,-62.0,127.0,127.0,127.0,124.0,89.0,-67.0
124.0,149.0,252.0,147.0,137.0,137.0,125.0,125.0,35.0,-121.0,-62.0,127.0,127.0,127.0,124.0,89.0,-67.0
123.0,149.0,251.0,147.0,137.0,135.0,125.0,125.0,35.0,-121.0,-62.0,127.0,127.0,127.0,124.0,89.0,-67.0
123.0,149.0,250.0,146.0,137.0,133.0,125.0,125.0,35.0,-121.0,-62.0,127.0,127.0,127.0,124.0,89.0,-67.0
123.0,149.0,249.0,146.0,137.0,132.0,125.0,125.0,35.0,-121.0,-62.0,127.0,127.0,127.0,124.0,89.0,-67.0
126.0,144.0,193.0,140.0,130.0,95.0,124.0,126.0,35.0,-120.0,-63.0,127.0,127.0,127.0,124.0,89.0,-67.0
126.0,144.0,193.0,140.0,130.0,96.0,124.0,126.0,35.0,-120.0,-63.0,127.0,127.0,127.0,124.0,89.0,-67.0
126.0,144.0,192.0,140.0,129.0,96.0,124.0,126.0,35.0,-120.0,-63.0,127.0,127.0,127.0,124.0,89.0,-67.0
126.0,144.0,192.0,140.0,129.0,97.0,125.0,126.0,35.0,-120.0,-63.0,127.0,127.0,127.0,124.0,89.0,-67.0
126.0,144.0,192.0,140.0,128.0,97.0,125.0,126.0,35.0,-120.0,-63.0,127.0,127.0,127.0,124.0,89.0,-67.0
126.0,144.0,191.0,140.0,128.0,98.0,125.0,126.0,35.0,-120.0,-63.0,127.0,127.0,127.0,124.0,89.0,-67.0
126.0,144.0,191.0,139.0,128.0,98.0,125.0,126.0,35.0,-120.0,-63.0,127.0,127.0,127.0,124.0,89.0,-67.0
126.0,144.0,190.0,139.0,127.0,99.0,125.0,126.0,35.0,-120.0,-63.0,127.0,127.0,127.0,124.0,89.0,-67.0
127.0,144.0,189.0,139.0,127.0,100.0,125.0,126.0,35.0,-120.0,-63.0,127.0,127.0,127.0,124.0,89.0,-67.0
126.0,144.0,193.0,140.0,130.0,95.0,124.0,126.0,35.0,-120.0,-63.0,127.0,127.0,127.0,124.0,89.0,-67.0
124.0,138.0,157.0,139.0,120.0,123.0,125.0,127.0,35.0,-119.0,-62.0,126.0,127.0,127.0,124.0,89.0,-67.0
124.0,138.0,158.0,140.0,120.0,123.0,125.0,127.0,35.0,-119.0,-62.0,126.0,127.0,127.0,124.0,89.0,-67.0
124.0,138.0,159.0,140.0,120.0,123.0,125.0,127.0,35.0,-119.0,-62.0,126.0,127.0,127.0,124.0,89.0,-67.0
124.0,138.0,159.0,140.0,120.0,123.0,125.0,127.0,35.0,-119.0,-62.0,126.0,127.0,127.0,124.0,89.0,-67.0
124.0,138.0,160.0,140.0,120.0,123.0,125.0,127.0,35.0,-119.0,-62.0,126.0,127.0,127.0,124.0,89.0,-67.0
124.0,138.0,161.0,141.0,120.0,122.0,126.0,127.0,35.0,-119.0,-62.0,126.0,127.0,127.0,124.0,89.0,-67.0
124.0,138.0,161.0,141.0,120.0,122.0,126.0,127.0,35.0,-119.0,-62.0,126.0,127.0,127.0,124.0,89.0,-67.0
124.0,138.0,162.0,141.0,120.0,122.0,126.0,127.0,35.0,-119.0,-62.0,126.0,127.0,127.0,124.0,89.0,-67.0
124.0,138.0,156.0,139.0,121.0,123.0,125.0,127.0,35.0,-119.0,-62.0,126.0,127.0,127.0,124.0,89.0,-67.0
124.0,138.0,157.0,139.0,121.0,123.0,125.0,127.0,35.0,-119.0,-62.0,126.0,127.0,127.0,124.0,89.0,-67.0
124.0,131.0,34.0,145.0,122.0,122.0,127.0,129.0,36.0,-119.0,-62.0,126.0,127.0,127.0,124.0,89.0,-67.0
124.0,131.0,30.0,145.0,122.0,121.0,127.0,129.0,36.0,-119.0,-62.0,126.0,127.0,127.0,124.0,89.0,-67.0
124.0,130.0,27.0,145.0,122.0,120.0,127.0,129.0,36.0,-119.0,-62.0,126.0,127.0,127.0,124.0,89.0,-67.0
124.0,130.0,24.0,145.0,122.0,120.0,127.0,129.0,36.0,-119.0,-62.0,126.0,127.0,127.0,124.0,89.0,-67.0
123.0,130.0,20.0,145.0,122.0,119.0,127.0,129.0,36.0,-119.0,-62.0,126.0,127.0,127.0,124.0,89.0,-67.0
123.0,130.0,17.0,145.0,122.0,118.0,127.0,129.0,36.0,-119.0,-62.0,126.0,127.0,127.0,124.0,89.0,-67.0
123.0,129.0,14.0,145.0,122.0,117.0,127.0,129.0,36.0,-119.0,-62.0,126.0,127.0,127.0,124.0,89.0,-67.0
124.0,132.0,46.0,145.0,122.0,123.0,126.0,128.0,36.0,-119.0,-62.0,126.0,127.0,127.0,124.0,89.0,-67.0
124.0,132.0,42.0,145.0,122.0,123.0,127.0,128.0,36.0,-119.0,-62.0,126.0,127.0,127.0,124.0,89.0,-67.0
124.0,131.0,38.0,145.0,122.0,122.0,127.0,129.0,36.0,-119.0,-62.0,126.0,127.0,127.0,124.0,89.0,-67.0
121.0,124.0,23.0,147.0,124.0,85.0,126.0,128.0,36.0,-119.0,-60.0,126.0,127.0,127.0,124.0,89.0,-67.0
121.0,124.0,25.0,147.0,124.0,84.0,126.0,128.0,36.0,-119.0,-60.0,126.0,127.0,127.0,124.0,89.0,-67.0
121.0,124.0,27.0,148.0,125.0,84.0,126.0,128.0,36.0,-119.0,-60.0,126.0,127.0,127.0,124.0,89.0,-67.0
121.0,124.0,28.0,148.0,125.0,84.0,126.0,128.0,36.0,-119.0,-60.0,126.0,127.0,127.0,124.0,89.0,-67.0
121.0,124.0,29.0,148.0,125.0,84.0,126.0,128.0,36.0,-119.0,-60.0,126.0,127.0,127.0,124.0,89.0,-67.0
122.0,124.0,30.0,148.0,125.0,83.0,126.0,128.0,36.0,-119.0,-60.0,126.0,127.0,127.0,124.0,89.0,-67.0
121.0,124.0,13.0,146.0,123.0,85.0,125.0,128.0,36.0,-119.0,-60.0,126.0,127.0,127.0,124.0,89.0,-67.0
121.0,124.0,15.0,146.0,124.0,85.0,125.0,128.0,36.0,-119.0,-60.0,126.0,127.0,127.0,124.0,89.0,-67.0
121.0,124.0,18.0,146.0,124.0,85.0,125.0,128.0,36.0,-119.0,-60.0,126.0,127.0,127.0,124.0,89.0,-67.0
121.0,124.0,20.0,147.0,124.0,85.0,126.0,128.0,36.0,-119.0,-60.0,126.0,127.0,127.0,124.0,89.0,-67.0
119.0,124.0,20.0,137.0,131.0,40.0,125.0,131.0,35.0,-120.0,-59.0,126.0,127.0,127.0,124.0,89.0,-67.0
119.0,124.0,20.0,137.0,131.0,38.0,125.0,130.0,35.0,-120.0,-59.0,126.0,127.0,127.0,124.0,89.0,-67.0
119.0,124.0,20.0,136.0,131.0,35.0,125.0,130.0,35.0,-120.0,-59.0,126.0,127.0,127.0,124.0,89.0,-67.0
119.0,124.0,20.0,136.0,131.0,32.0,125.0,130.0,35.0,-120.0,-59.0,126.0,127.0,127.0,124.0,89.0,-67.0
119.0,124.0,21.0,136.0,131.0,29.0,125.0,130.0,35.0,-120.0,-59.0,126.0,127.0,127.0,124.0,89.0,-67.0
119.0,124.0,19.0,138.0,130.0,54.0,125.0,131.0,35.0,-120.0,-59.0,126.0,127.0,127.0,124.0,89.0,-67.0
119.0,124.0,19.0,137.0,130.0,51.0,125.0,131.0,35.0,-120.0,-59.0,126.0,127.0,127.0,124.0,89.0,-67.0
119.0,124.0,19.0,137.0,130.0,49.0,125.0,131.0,35.0,-120.0,-59.0,126.0,127.0,127.0,124.0,89.0,-67.0
119.0,124.0,19.0,137.0,131.0,46.0,125.0,131.0,35.0,-120.0,-59.0,126.0,127.0,127.0,124.0,89.0,-67.0
119.0,124.0,19.0,137.0,131.0,43.0,125.0,131.0,35.0,-120.0,-59.0,126.0,127.0,127.0,124.0,89.0,-67.0
121.0,125.0,72.0,133.0,131.0,17.0,126.0,128.0,35.0,-120.0,-57.0,126.0,127.0,127.0,124.0,89.0,-67.0
121.0,125.0,73.0,133.0,131.0,19.0,126.0,128.0,35.0,-120.0,-57.0,126.0,127.0,127.0,124.0,89.0,-67.0
121.0,125.0,74.0,133.0,131.0,20.0,126.0,128.0,35.0,-120.0,-57.0,126.0,127.0,127.0,124.0,89.0,-67.0
121.0,126.0,75.0,133.0,131.0,23.0,126.0,128.0,35.0,-120.0,-57.0,126.0,127.0,127.0,124.0,89.0,-67.0
121.0,124.0,65.0,133.0,130.0,9.0,126.0,127.0,35.0,-120.0,-57.0,126.0,127.0,127.0,124.0,89.0,-67.0
121.0,124.0,66.0,133.0,131.0,10.0,126.0,127.0,35.0,-120.0,-57.0,126.0,127.0,127.0,124.0,89.0,-67.0
121.0,125.0,67.0,133.0,131.0,12.0,126.0,127.0,35.0,-120.0,-57.0,126.0,127.0,127.0,124.0,89.0,-67.0
121.0,125.0,68.0,133.0,131.0,14.0,126.0,128.0,35.0,-120.0,-57.0,126.0,127.0,127.0,124.0,89.0,-67.0
121.0,125.0,69.0,133.0,131.0,15.0,126.0,128.0,35.0,-120.0,-57.0,126.0,127.0,127.0,124.0,89.0,-67.0
121.0,125.0,70.0,133.0,131.0,16.0,126.0,128.0,35.0,-120.0,-57.0,126.0,127.0,127.0,124.0,89.0,-67.0
121.0,125.0,116.0,132.0,126.0,70.0,127.0,132.0,35.0,-121.0,-57.0,126.0,127.0,127.0,124.0,89.0,-67.0
121.0,124.0,117.0,132.0,125.0,70.0,127.0,132.0,35.0,-121.0,-57.0,126.0,127.0,127.0,124.0,89.0,-67.0
121.0,124.0,117.0,132.0,125.0,70.0,128.0,132.0,35.0,-121.0,-57.0,126.0,127.0,127.0,124.0,89.0,-67.0
121.0,125.0,113.0,132.0,127.0,68.0,126.0,131.0,35.0,-121.0,-57.0,126.0,127.0,127.0,124.0,89.0,-67.0
121.0,125.0,113.0,132.0,126.0,68.0,126.0,132.0,35.0,-121.0,-57.0,126.0,127.0,127.0,124.0,89.0,-67.0
121.0,125.0,114.0,132.0,126.0,69.0,127.0,132.0,35.0,-121.0,-57.0,126.0,127.0,127.0,124.0,89.0,-67.0
121.0,125.0,115.0,132.0,126.0,69.0,127.0,132.0,35.0,-121.0,-57.0,126.0,127.0,127.0,124.0,89.0,-67.0
121.0,125.0,115.0,132.0,126.0,69.0,127.0,132.0,35.0,-121.0,-57.0,126.0,127.0,127.0,124.0,89.0,-67.0
121.0,125.0,116.0,132.0,126.0,69.0,127.0,132.0,35.0,-121.0,-57.0,126.0,127.0,127.0,124.0,89.0,-67.0
121.0,125.0,116.0,132.0,126.0,69.0,127.0,132.0,35.0,-121.0,-57.0,126.0,127.0,127.0,124.0,89.0,-67.0
121.0,125.0,127.0,134.0,124.0,85.0,131.0,131.0,34.0,-122.0,-57.0,127.0,127.0,127.0,124.0,89.0,-67.0
121.0,125.0,127.0,133.0,124.0,85.0,131.0,131.0,34.0,-122.0,-57.0,127.0,127.0,127.0,124.0,89.0,-67.0
122.0,125.0,127.0,133.0,124.0,85.0,130.0,132.0,34.0,-122.0,-57.0,127.0,127.0,127.0,124.0,89.0,-67.0
121.0,125.0,127.0,133.0,124.0,85.0,130.0,132.0,34.0,-122.0,-57.0,127.0,127.0,127.0,124.0,89.0,-67.0
121.0,125.0,127.0,133.0,124.0,85.0,130.0,131.0,34.0,-122.0,-57.0,127.0,127.0,127.0,124.0,89.0,-67.0
121.0,125.0,128.0,133.0,124.0,85.0,130.0,131.0,34.0,-122.0,-57.0,127.0,127.0,127.0,124.0,89.0,-67.0
121.0,125.0,127.0,133.0,124.0,85.0,131.0,131.0,34.0,-122.0,-57.0,127.0,127.0,127.0,124.0,89.0,-67.0
121.0,125.0,127.0,133.0,124.0,85.0,131.0,131.0,34.0,-122.0,-57.0,127.0,127.0,127.0,124.0,89.0,-67.0
121.0,125.0,127.0,133.0,124.0,85.0,131.0,131.0,34.0,-122.0,-57.0,127.0,127.0,127.0,124.0,89.0,-67.0
121.0,125.0,127.0,133.0,124.0,85.0,131.0,131.0,34.0,-122.0,-57.0,127.0,127.0,127.0,124.0,89.0,-67.0
120.0,122.0,128.0,132.0,125.0,99.0,131.0,130.0,34.0,-121.0,-58.0,127.0,127.0,127.0,124.0,89.0,-67.0
119.0,122.0,128.0,132.0,125.0,99.0,131.0,130.0,34.0,-121.0,-58.0,127.0,127.0,127.0,124.0,89.0,-67.0
119.0,122.0,128.0,133.0,125.0,99.0,131.0,130.0,34.0,-121.0,-58.0,127.0,127.0,127.0,124.0,89.0,-67.0
119.0,122.0,128.0,133.0,125.0,99.0,131.0,130.0,34.0,-121.0,-58.0,127.0,127.0,127.0,124.0,89.0,-67.0
119.0,122.0,127.0,133.0,125.0,99.0,131.0,130.0,34.0,-121.0,-58.0,127.0,127.0,127.0,124.0,89.0,-67.0
119.0,122.0,127.0,133.0,125.0,99.0,131.0,130.0,34.0,-121.0,-58.0,127.0,127.0,127.0,124.0,89.0,-67.0
119.0,122.0,127.0,133.0,125.0,99.0,131.0,130.0,34.0,-121.0,-58.0,127.0,127.0,127.0,124.0,89.0,-67.0
119.0,122.0,127.0,133.0,125.0,99.0,131.0,130.0,34.0,-121.0,-58.0,127.0,127.0,127.0,124.0,89.0,-67.0
119.0,122.0,127.0,133.0,125.0,99.0,131.0,129.0,34.0,-121.0,-58.0,127.0,127.0,127.0,124.0,89.0,-67.0
119.0,122.0,127.0,133.0,125.0,99.0,131.0,129.0,34.0,-121.0,-58.0,127.0,127.0,127.0,124.0,89.0,-67.0
117.0,126.0,124.0,129.0,127.0,113.0,130.0,125.0,33.0,-120.0,-58.0,127.0,127.0,127.0,124.0,89.0,-67.0
117.0,126.0,125.0,129.0,127.0,114.0,130.0,125.0,33.0,-120.0,-58.0,127.0,127.0,127.0,124.0,89.0,-67.0
117.0,126.0,125.0,129.0,127.0,114.0,130.0,125.0,33.0,-120.0,-58.0,127.0,127.0,127.0,124.0,89.0,-67.0
117.0,127.0,125.0,128.0,127.0,114.0,130.0,124.0,33.0,-120.0,-58.0,127.0,127.0,127.0,124.0,89.0,-67.0
117.0,127.0,125.0,128.0,127.0,115.0,130.0,124.0,33.0,-120.0,-58.0,127.0,127.0,127.0,124.0,89.0,-67.0
117.0,127.0,125.0,128.0,128.0,115.0,130.0,124.0,33.0,-120.0,-58.0,127.0,127.0,127.0,124.0,89.0,-67.0
117.0,127.0,125.0,128.0,128.0,116.0,130.0,124.0,33.0,-120.0,-58.0,127.0,127.0,127.0,124.0,89.0,-67.0
117.0,128.0,126.0,128.0,128.0,117.0,130.0,124.0,33.0,-120.0,-58.0,127.0,127.0,127.0,124.0,89.0,-67.0
117.0,128.0,126.0,128.0,128.0,118.0,130.0,124.0,33.0,-120.0,-58.0,127.0,127.0,127.0,124.0,89.0,-67.0
117.0,126.0,125.0,129.0,127.0,112.0,130.0,125.0,33.0,-120.0,-58.0,127.0,127.0,127.0,124.0,89.0,-67.0
123.0,131.0,169.0,133.0,133.0,156.0,131.0,121.0,32.0,-120.0,-59.0,126.0,127.0,127.0,124.0,89.0,-67.0
123.0,132.0,168.0,133.0,133.0,157.0,132.0,121.0,32.0,-120.0,-59.0,126.0,127.0,127.0,124.0,89.0,-67.0
123.0,132.0,167.0,133.0,133.0,157.0,133.0,121.0,32.0,-120.0,-59.0,126.0,127.0,127.0,124.0,89.0,-67.0
123.0,132.0,167.0,133.0,133.0,158.0,133.0,121.0,32.0,-120.0,-59.0,126.0,127.0,127.0,124.0,89.0,-67.0
123.0,132.0,165.0,133.0,134.0,159.0,134.0,121.0,32.0,-120.0,-59.0,126.0,127.0,127.0,124.0,89.0,-67.0
123.0,132.0,164.0,133.0,134.0,160.0,135.0,121.0,32.0,-120.0,-59.0,126.0,127.0,127.0,124.0,89.0,-67.0
123.0,133.0,163.0,133.0,134.0,162.0,136.0,121.0,32.0,-120.0,-59.0,126.0,127.0,127.0,124.0,89.0,-67.0
123.0,133.0,162.0,133.0,134.0,162.0,137.0,121.0,32.0,-120.0,-59.0,126.0,127.0,127.0,124.0,89.0,-67.0
123.0,131.0,170.0,133.0,133.0,153.0,131.0,121.0,32.0,-120.0,-59.0,126.0,127.0,127.0,124.0,89.0,-67.0
123.0,131.0,169.0,133.0,133.0,155.0,131.0,121.0,32.0,-120.0,-59.0,126.0,127.0,127.0,124.0,89.0,-67.0
129.0,136.0,124.0,137.0,131.0,178.0,141.0,133.0,31.0,-121.0,-59.0,127.0,127.0,127.0,124.0,89.0,-67.0
129.0,136.0,123.0,138.0,130.0,177.0,141.0,133.0,31.0,-121.0,-59.0,127.0,127.0,127.0,124.0,89.0,-67.0
130.0,136.0,123.0,138.0,130.0,177.0,140.0,133.0,31.0,-121.0,-59.0,127.0,127.0,127.0,124.0,89.0,-67.0
130.0,136.0,122.0,138.0,130.0,176.0,140.0,134.0,31.0,-121.0,-59.0,127.0,127.0,127.0,124.0,89.0,-67.0
130.0,137.0,121.0,138.0,130.0,176.0,139.0,134.0,31.0,-121.0,-59.0,127.0,127.0,127.0,124.0,89.0,-67.0
130.0,137.0,121.0,139.0,130.0,175.0,139.0,135.0,31.0,-121.0,-59.0,127.0,127.0,127.0,124.0,89.0,-67.0
130.0,137.0,120.0,139.0,130.0,175.0,139.0,135.0,31.0,-121.0,-59.0,127.0,127.0,127.0,124.0,89.0,-67.0
129.0,135.0,126.0,137.0,131.0,178.0,143.0,131.0,31.0,-121.0,-59.0,127.0,127.0,127.0,124.0,89.0,-67.0
129.0,135.0,125.0,137.0,131.0,179.0,142.0,132.0,31.0,-121.0,-59.0,127.0,127.0,127.0,124.0,89.0,-67.0
129.0,136.0,125.0,137.0,131.0,179.0,142.0,132.0,31.0,-121.0,-59.0,127.0,127.0,127.0,124.0,89.0,-67.0
119.0,130.0,74.0,149.0,128.0,138.0,132.0,131.0,31.0,-123.0,-60.0,127.0,126.0,127.0,124.0,89.0,-67.0
118.0,130.0,74.0,149.0,127.0,138.0,130.0,130.0,31.0,-123.0,-60.0,127.0,126.0,127.0,124.0,89.0,-67.0
118.0,130.0,75.0,149.0,127.0,138.0,129.0,130.0,31.0,-123.0,-60.0,127.0,126.0,127.0,124.0,89.0,-67.0
118.0,130.0,75.0,149.0,127.0,139.0,128.0,130.0,31.0,-123.0,-60.0,127.0,126.0,127.0,124.0,89.0,-67.0
118.0,130.0,75.0,149.0,126.0,140.0,127.0,130.0,31.0,-123.0,-60.0,127.0,126.0,127.0,124.0,89.0,-67.0
117.0,130.0,75.0,149.0,126.0,140.0,126.0,130.0,31.0,-123.0,-60.0,127.0,126.0,127.0,124.0,89.0,-67.0
120.0,131.0,76.0,149.0,129.0,137.0,136.0,131.0,31.0,-123.0,-60.0,127.0,126.0,127.0,124.0,89.0,-67.0
119.0,131.0,75.0,149.0,129.0,138.0,135.0,131.0,31.0,-123.0,-60.0,127.0,126.0,127.0,124.0,89.0,-67.0
119.0,131.0,75.0,149.0,128.0,138.0,134.0,131.0,31.0,-123.0,-60.0,127.0,126.0,127.0,124.0,89.0,-67.0
119.0,131.0,74.0,149.0,128.0,138.0,133.0,131.0,31.0,-123.0,-60.0,127.0,126.0,127.0,124.0,89.0,-67.0
118.0,127.0,138.0,140.0,124.0,157.0,101.0,125.0,33.0,-123.0,-60.0,-128.0,127.0,127.0,124.0,89.0,-67.0
119.0,127.0,137.0,141.0,125.0,158.0,101.0,125.0,33.0,-123.0,-60.0,-128.0,127.0,127.0,124.0,89.0,-67.0
119.0,127.0,137.0,141.0,125.0,158.0,102.0,124.0,33.0,-123.0,-60.0,-128.0,127.0,127.0,124.0,89.0,-67.0
119.0,127.0,136.0,141.0,126.0,159.0,102.0,124.0,33.0,-123.0,-60.0,-128.0,127.0,127.0,124.0,89.0,-67.0
119.0,127.0,136.0,141.0,126.0,160.0,102.0,124.0,33.0,-123.0,-60.0,-128.0,127.0,127.0,124.0,89.0,-67.0
118.0,126.0,137.0,140.0,122.0,155.0,100.0,125.0,33.0,-123.0,-60.0,-128.0,127.0,127.0,124.0,89.0,-67.0
118.0,126.0,138.0,140.0,122.0,155.0,100.0,125.0,33.0,-123.0,-60.0,-128.0,127.0,127.0,124.0,89.0,-67.0
118.0,126.0,138.0,140.0,123.0,155.0,100.0,125.0,33.0,-123.0,-60.0,-128.0,127.0,127.0,124.0,89.0,-67.0
118.0,126.0,138.0,140.0,123.0,156.0,100.0,125.0,33.0,-123.0,-60.0,-128.0,127.0,127.0,124.0,89.0,-67.0
118.0,127.0,138.0,140.0,124.0,156.0,101.0,125.0,33.0,-123.0,-60.0,-128.0,127.0,127.0,124.0,89.0,-67.0
115.0,125.0,117.0,140.0,132.0,157.0,118.0,119.0,36.0,-123.0,-63.0,-128.0,127.0,127.0,124.0,89.0,-67.0
115.0,125.0,117.0,139.0,132.0,156.0,119.0,119.0,36.0,-123.0,-63.0,-128.0,127.0,127.0,124.0,89.0,-67.0
115.0,124.0,118.0,139.0,132.0,156.0,120.0,119.0,36.0,-123.0,-63.0,-128.0,127.0,127.0,124.0,89.0,-67.0
115.0,124.0,119.0,138.0,131.0,155.0,120.0,119.0,36.0,-123.0,-63.0,-128.0,127.0,127.0,124.0,89.0,-67.0
116.0,125.0,113.0,143.0,133.0,159.0,115.0,120.0,36.0,-123.0,-63.0,-128.0,127.0,127.0,124.0,89.0,-67.0
116.0,124.0,114.0,142.0,132.0,158.0,115.0,120.0,36.0,-123.0,-63.0,-128.0,127.0,127.0,124.0,89.0,-67.0
115.0,124.0,114.0,142.0,132.0,158.0,116.0,120.0,36.0,-123.0,-63.0,-128.0,127.0,127.0,124.0,89.0,-67.0
115.0,124.0,115.0,141.0,132.0,158.0,117.0,120.0,36.0,-123.0,-63.0,-128.0,127.0,127.0,124.0,89.0,-67.0
115.0,124.0,116.0,141.0,132.0,157.0,117.0,119.0,36.0,-123.0,-63.0,-128.0,127.0,127.0,124.0,89.0,-67.0
115.0,125.0,116.0,140.0,132.0,158.0,118.0,120.0,36.0,-123.0,-63.0,-128.0,127.0,127.0,124.0,89.0,-67.0
122.0,127.0,142.0,122.0,120.0,123.0,126.0,128.0,37.0,-123.0,-66.0,-128.0,127.0,127.0,124.0,89.0,-67.0
122.0,128.0,142.0,121.0,120.0,122.0,125.0,128.0,37.0,-123.0,-66.0,-128.0,127.0,127.0,124.0,89.0,-67.0
122.0,128.0,142.0,121.0,120.0,121.0,125.0,129.0,37.0,-123.0,-66.0,-128.0,127.0,127.0,124.0,89.0,-67.0
121.0,126.0,143.0,123.0,122.0,126.0,127.0,126.0,37.0,-123.0,-66.0,-128.0,127.0,127.0,124.0,89.0,-67.0
121.0,126.0,143.0,123.0,121.0,125.0,127.0,126.0,37.0,-123.0,-66.0,-128.0,127.0,127.0,124.0,89.0,-67.0
121.0,126.0,143.0,122.0,121.0,124.0,127.0,127.0,37.0,-123.0,-66.0,-128.0,127.0,127.0,124.0,89.0,-67.0
121.0,126.0,143.0,122.0,121.0,124.0,126.0,127.0,37.0,-123.0,-66.0,-128.0,127.0,127.0,124.0,89.0,-67.0
121.0,127.0,143.0,122.0,121.0,123.0,126.0,127.0,37.0,-123.0,-66.0,-128.0,127.0,127.0,124.0,89.0,-67.0
121.0,127.0,142.0,122.0,121.0,124.0,126.0,127.0,37.0,-123.0,-66.0,-128.0,127.0,127.0,124.0,89.0,-67.0
122.0,127.0,142.0,122.0,121.0,123.0,126.0,128.0,37.0,-123.0,-66.0,-128.0,127.0,127.0,124.0,89.0,-67.0
125.0,130.0,115.0,118.0,115.0,109.0,111.0,129.0,39.0,-121.0,-66.0,127.0,127.0,127.0,124.0,89.0,-67.0
125.0,130.0,115.0,118.0,115.0,109.0,111.0,128.0,39.0,-121.0,-66.0,127.0,127.0,127.0,124.0,89.0,-67.0
125.0,130.0,119.0,117.0,115.0,111.0,112.0,130.0,39.0,-121.0,-66.0,127.0,127.0,127.0,124.0,89.0,-67.0
125.0,130.0,118.0,117.0,115.0,110.0,112.0,130.0,39.0,-121.0,-66.0,127.0,127.0,127.0,124.0,89.0,-67.0
125.0,130.0,118.0,117.0,115.0,110.0,112.0,130.0,39.0,-121.0,-66.0,127.0,127.0,127.0,124.0,89.0,-67.0
125.0,130.0,118.0,117.0,115.0,110.0,112.0,129.0,39.0,-121.0,-66.0,127.0,127.0,127.0,124.0,89.0,-67.0
125.0,130.0,117.0,117.0,115.0,109.0,111.0,129.0,39.0,-121.0,-66.0,127.0,127.0,127.0,124.0,89.0,-67.0
125.0,130.0,116.0,117.0,115.0,110.0,111.0,129.0,39.0,-121.0,-66.0,127.0,127.0,127.0,124.0,89.0,-67.0
125.0,130.0,116.0,118.0,115.0,110.0,111.0,129.0,39.0,-121.0,-66.0,127.0,127.0,127.0,124.0,89.0,-67.0
125.0,130.0,116.0,118.0,115.0,110.0,111.0,129.0,39.0,-121.0,-66.0,127.0,127.0,127.0,124.0,89.0,-67.0
124.0,128.0,135.0,122.0,120.0,114.0,117.0,124.0,41.0,-119.0,-66.0,127.0,127.0,127.0,124.0,89.0,-67.0
124.0,127.0,129.0,122.0,118.0,112.0,114.0,124.0,41.0,-119.0,-66.0,127.0,127.0,127.0,124.0,89.0,-67.0
124.0,127.0,130.0,122.0,118.0,112.0,115.0,124.0,41.0,-119.0,-66.0,127.0,127.0,127.0,124.0,89.0,-67.0
124.0,127.0,130.0,122.0,119.0,112.0,115.0,124.0,41.0,-119.0,-66.0,127.0,127.0,127.0,124.0,89.0,-67.0
124.0,127.0,131.0,122.0,119.0,112.0,115.0,124.0,41.0,-119.0,-66.0,127.0,127.0,127.0,124.0,89.0,-67.0
124.0,127.0,132.0,122.0,119.0,112.0,116.0,124.0,41.0,-119.0,-66.0,127.0,127.0,127.0,124.0,89.0,-67.0
124.0,127.0,132.0,122.0,119.0,113.0,116.0,124.0,41.0,-119.0,-66.0,127.0,127.0,127.0,124.0,89.0,-67.0
124.0,128.0,133.0,122.0,119.0,113.0,116.0,124.0,41.0,-119.0,-66.0,127.0,127.0,127.0,124.0,89.0,-67.0
124.0,128.0,133.0,122.0,119.0,113.0,117.0,124.0,41.0,-119.0,-66.0,127.0,127.0,127.0,124.0,89.0,-67.0
124.0,128.0,134.0,122.0,120.0,113.0,117.0,124.0,41.0,-119.0,-66.0,127.0,127.0,127.0,124.0,89.0,-67.0
124.0,128.0,151.0,123.0,125.0,118.0,125.0,126.0,42.0,-120.0,-64.0,126.0,127.0,127.0,124.0,89.0,-67.0
124.0,128.0,151.0,123.0,125.0,118.0,125.0,126.0,42.0,-120.0,-64.0,126.0,127.0,127.0,124.0,89.0,-67.0
124.0,127.0,151.0,123.0,126.0,118.0,126.0,126.0,42.0,-120.0,-64.0,126.0,127.0,127.0,124.0,89.0,-67.0
124.0,127.0,151.0,123.0,126.0,118.0,126.0,126.0,42.0,-120.0,-64.0,126.0,127.0,127.0,124.0,89.0,-67.0
124.0,128.0,151.0,123.0,126.0,118.0,126.0,126.0,42.0,-120.0,-64.0,126.0,127.0,127.0,124.0,89.0,-67.0
124.0,128.0,151.0,123.0,126.0,118.0,126.0,126.0,42.0,-120.0,-64.0,126.0,127.0,127.0,124.0,89.0,-67.0
124.0,128.0,151.0,124.0,126.0,119.0,126.0,127.0,42.0,-120.0,-64.0,126.0,127.0,127.0,124.0,89.0,-67.0
124.0,128.0,151.0,124.0,126.0,119.0,127.0,127.0,42.0,-120.0,-64.0,126.0,127.0,127.0,124.0,89.0,-67.0
124.0,128.0,151.0,124.0,126.0,119.0,127.0,127.0,42.0,-120.0,-64.0,126.0,127.0,127.0,124.0,89.0,-67.0
124.0,128.0,151.0,124.0,126.0,119.0,127.0,127.0,42.0,-120.0,-64.0,126.0,127.0,127.0,124.0,89.0,-67.0
123.0,127.0,147.0,126.0,127.0,125.0,130.0,129.0,43.0,-122.0,-63.0,126.0,127.0,127.0,124.0,89.0,-67.0
123.0,127.0,147.0,126.0,127.0,125.0,131.0,129.0,43.0,-122.0,-63.0,126.0,127.0,127.0,124.0,89.0,-67.0
122.0,127.0,147.0,126.0,127.0,125.0,131.0,129.0,43.0,-122.0,-63.0,126.0,127.0,127.0,124.0,89.0,-67.0
122.0,127.0,147.0,126.0,127.0,125.0,131.0,129.0,43.0,-122.0,-63.0,126.0,127.0,127.0,124.0,89.0,-67.0
122.0,127.0,146.0,126.0,127.0,125.0,131.0,129.0,43.0,-122.0,-63.0,126.0,127.0,127.0,124.0,89.0,-67.0
122.0,127.0,146.0,127.0,127.0,126.0,131.0,129.0,43.0,-122.0,-63.0,126.0,127.0,127.0,124.0,89.0,-67.0
122.0,127.0,145.0,127.0,128.0,126.0,131.0,129.0,43.0,-122.0,-63.0,126.0,127.0,127.0,124.0,89.0,-67.0
122.0,127.0,145.0,127.0,127.0,126.0,131.0,129.0,43.0,-122.0,-63.0,126.0,127.0,127.0,124.0,89.0,-67.0
122.0,127.0,145.0,127.0,127.0,126.0,131.0,129.0,43.0,-122.0,-63.0,126.0,127.0,127.0,124.0,89.0,-67.0
123.0,127.0,147.0,126.0,127.0,125.0,130.0,129.0,43.0,-122.0,-63.0,126.0,127.0,127.0,124.0,89.0,-67.0
122.0,125.0,141.0,123.0,125.0,128.0,128.0,126.0,44.0,-124.0,-63.0,126.0,127.0,-128.0,124.0,89.0,-67.0
122.0,125.0,141.0,123.0,125.0,128.0,127.0,126.0,44.0,-124.0,-63.0,126.0,127.0,-128.0,124.0,89.0,-67.0
122.0,125.0,141.0,123.0,125.0,128.0,127.0,126.0,44.0,-124.0,-63.0,126.0,127.0,-128.0,124.0,89.0,-67.0
122.0,125.0,140.0,123.0,125.0,128.0,127.0,126.0,44.0,-124.0,-63.0,126.0,127.0,-128.0,124.0,89.0,-67.0
122.0,125.0,140.0,124.0,126.0,128.0,127.0,126.0,44.0,-124.0,-63.0,126.0,127.0,-128.0,124.0,89.0,-67.0
122.0,125.0,140.0,124.0,126.0,128.0,127.0,126.0,44.0,-124.0,-63.0,126.0,127.0,-128.0,124.0,89.0,-67.0
122.0,125.0,140.0,124.0,126.0,128.0,127.0,126.0,44.0,-124.0,-63.0,126.0,127.0,-128.0,124.0,89.0,-67.0
122.0,125.0,140.0,124.0,126.0,128.0,127.0,126.0,44.0,-124.0,-63.0,126.0,127.0,-128.0,124.0,89.0,-67.0
122.0,125.0,141.0,123.0,125.0,129.0,128.0,126.0,44.0,-124.0,-63.0,126.0,127.0,-128.0,124.0,89.0,-67.0
122.0,125.0,141.0,123.0,125.0,129.0,128.0,126.0,44.0,-124.0,-63.0,126.0,127.0,-128.0,124.0,89.0,-67.0
122.0,124.0,139.0,125.0,127.0,128.0,126.0,125.0,42.0,-124.0,-63.0,126.0,-128.0,-128.0,124.0,89.0,-67.0
122.0,124.0,139.0,125.0,127.0,128.0,126.0,125.0,42.0,-124.0,-63.0,126.0,-128.0,-128.0,124.0,89.0,-67.0
122.0,124.0,139.0,125.0,127.0,128.0,126.0,125.0,42.0,-124.0,-63.0,126.0,-128.0,-128.0,124.0,89.0,-67.0
122.0,124.0,139.0,125.0,127.0,128.0,126.0,125.0,42.0,-124.0,-63.0,126.0,-128.0,-128.0,124.0,89.0,-67.0
122.0,125.0,139.0,125.0,127.0,129.0,126.0,125.0,42.0,-124.0,-63.0,126.0,-128.0,-128.0,124.0,89.0,-67.0
122.0,125.0,139.0,126.0,127.0,129.0,126.0,125.0,42.0,-124.0,-63.0,126.0,-128.0,-128.0,124.0,89.0,-67.0
122.0,125.0,138.0,126.0,127.0,130.0,126.0,125.0,42.0,-124.0,-63.0,126.0,-128.0,-128.0,124.0,89.0,-67.0
122.0,124.0,140.0,125.0,127.0,128.0,125.0,125.0,42.0,-124.0,-63.0,126.0,-128.0,-128.0,124.0,89.0,-67.0
122.0,124.0,139.0,125.0,127.0,128.0,125.0,125.0,42.0,-124.0,-63.0,126.0,-128.0,-128.0,124.0,89.0,-67.0
122.0,124.0,139.0,125.0,127.0,128.0,125.0,125.0,42.0,-124.0,-63.0,126.0,-128.0,-128.0,124.0,89.0,-67.0
122.0,124.0,138.0,126.0,128.0,134.0,126.0,127.0,40.0,-123.0,-64.0,126.0,-128.0,-128.0,124.0,89.0,-67.0
122.0,124.0,138.0,126.0,128.0,134.0,126.0,127.0,40.0,-123.0,-64.0,126.0,-128.0,-128.0,124.0,89.0,-67.0
122.0,124.0,138.0,126.0,128.0,134.0,126.0,127.0,40.0,-123.0,-64.0,126.0,-128.0,-128.0,124.0,89.0,-67.0
122.0,125.0,138.0,126.0,128.0,134.0,126.0,127.0,40.0,-123.0,-64.0,126.0,-128.0,-128.0,124.0,89.0,-67.0
122.0,124.0,138.0,126.0,128.0,134.0,126.0,127.0,40.0,-123.0,-64.0,126.0,-128.0,-128.0,124.0,89.0,-67.0
122.0,124.0,138.0,126.0,128.0,134.0,126.0,127.0,40.0,-123.0,-64.0,126.0,-128.0,-128.0,124.0,89.0,-67.0
122.0,123.0,138.0,125.0,128.0,133.0,126.0,127.0,40.0,-123.0,-64.0,126.0,-128.0,-128.0,124.0,89.0,-67.0
122.0,124.0,138.0,125.0,128.0,133.0,126.0,127.0,40.0,-123.0,-64.0,126.0,-128.0,-128.0,124.0,89.0,-67.0
122.0,124.0,138.0,125.0,128.0,133.0,126.0,127.0,40.0,-123.0,-64.0,126.0,-128.0,-128.0,124.0,89.0,-67.0
122.0,124.0,138.0,125.0,128.0,134.0,126.0,127.0,40.0,-123.0,-64.0,126.0,-128.0,-128.0,124.0,89.0,-67.0
122.0,123.0,135.0,126.0,128.0,134.0,126.0,127.0,38.0,-123.0,-64.0,126.0,-128.0,127.0,124.0,89.0,-67.0
122.0,123.0,135.0,126.0,128.0,134.0,126.0,127.0,38.0,-123.0,-64.0,126.0,-128.0,127.0,124.0,89.0,-67.0
122.0,123.0,135.0,126.0,128.0,134.0,126.0,127.0,38.0,-123.0,-64.0,126.0,-128.0,127.0,124.0,89.0,-67.0
122.0,123.0,135.0,126.0,128.0,134.0,126.0,127.0,38.0,-123.0,-64.0,126.0,-128.0,127.0,124.0,89.0,-67.0
122.0,123.0,135.0,126.0,128.0,134.0,127.0,127.0,38.0,-123.0,-64.0,126.0,-128.0,127.0,124.0,89.0,-67.0
122.0,123.0,136.0,126.0,128.0,135.0,126.0,127.0,38.0,-123.0,-64.0,126.0,-128.0,127.0,124.0,89.0,-67.0
122.0,123.0,136.0,126.0,128.0,135.0,126.0,127.0,38.0,-123.0,-64.0,126.0,-128.0,127.0,124.0,89.0,-67.0
122.0,123.0,136.0,126.0,128.0,135.0,126.0,127.0,38.0,-123.0,-64.0,126.0,-128.0,127.0,124.0,89.0,-67.0
122.0,123.0,136.0,126.0,128.0,134.0,126.0,127.0,38.0,-123.0,-64.0,126.0,-128.0,127.0,124.0,89.0,-67.0
122.0,123.0,136.0,126.0,128.0,134.0,126.0,127.0,38.0,-123.0,-64.0,126.0,-128.0,127.0,124.0,89.0,-67.0
122.0,123.0,134.0,126.0,129.0,135.0,127.0,127.0,35.0,-123.0,-64.0,126.0,-128.0,127.0,124.0,89.0,-67.0
122.0,123.0,134.0,126.0,129.0,135.0,127.0,127.0,35.0,-123.0,-64.0,126.0,-128.0,127.0,124.0,89.0,-67.0
122.0,123.0,134.0,126.0,129.0,135.0,127.0,127.0,35.0,-123.0,-64.0,126.0,-128.0,127.0,124.0,89.0,-67.0
122.0,123.0,134.0,126.0,129.0,135.0,127.0,127.0,35.0,-123.0,-64.0,126.0,-128.0,127.0,124.0,89.0,-67.0
122.0,123.0,134.0,126.0,129.0,135.0,126.0,127.0,35.0,-123.0,-64.0,126.0,-128.0,127.0,124.0,89.0,-67.0
122.0,123.0,134.0,126.0,129.0,135.0,126.0,127.0,35.0,-123.0,-64.0,126.0,-128.0,127.0,124.0,89.0,-67.0
122.0,123.0,134.0,126.0,129.0,135.0,126.0,127.0,35.0,-123.0,-64.0,126.0,-128.0,127.0,124.0,89.0,-67.0
122.0,123.0,134.0,126.0,129.0,135.0,126.0,127.0,35.0,-123.0,-64.0,126.0,-128.0,127.0,124.0,89.0,-67.0
122.0,123.0,134.0,126.0,129.0,135.0,127.0,127.0,35.0,-123.0,-64.0,126.0,-128.0,127.0,124.0,89.0,-67.0
122.0,123.0,134.0,126.0,129.0,135.0,127.0,127.0,35.0,-123.0,-64.0,126.0,-128.0,127.0,124.0,89.0,-67.0
122.0,124.0,131.0,127.0,128.0,137.0,130.0,128.0,32.0,-122.0,-65.0,126.0,-128.0,127.0,124.0,89.0,-67.0
122.0,124.0,131.0,127.0,128.0,137.0,131.0,129.0,32.0,-122.0,-65.0,126.0,-128.0,127.0,124.0,89.0,-67.0
122.0,124.0,131.0,128.0,128.0,137.0,131.0,128.0,32.0,-122.0,-65.0,126.0,-128.0,127.0,124.0,89.0,-67.0
122.0,123.0,132.0,127.0,128.0,138.0,129.0,128.0,32.0,-122.0,-65.0,126.0,-128.0,127.0,124.0,89.0,-67.0
122.0,123.0,132.0,127.0,128.0,138.0,129.0,128.0,32.0,-122.0,-65.0,126.0,-128.0,127.0,124.0,89.0,-67.0
122.0,123.0,132.0,127.0,128.0,138.0,129.0,128.0,32.0,-122.0,-65.0,126.0,-128.0,127.0,124.0,89.0,-67.0
122.0,123.0,132.0,127.0,128.0,137.0,130.0,128.0,32.0,-122.0,-65.0,126.0,-128.0,127.0,124.0,89.0,-67.0
122.0,123.0,132.0,127.0,128.0,137.0,130.0,128.0,32.0,-122.0,-65.0,126.0,-128.0,127.0,124.0,89.0,-67.0
122.0,124.0,132.0,127.0,128.0,137.0,130.0,128.0,32.0,-122.0,-65.0,126.0,-128.0,127.0,124.0,89.0,-67.0
122.0,124.0,132.0,127.0,128.0,137.0,130.0,128.0,32.0,-122.0,-65.0,126.0,-128.0,127.0,124.0,89.0,-67.0
122.0,126.0,126.0,129.0,127.0,135.0,134.0,128.0,31.0,-121.0,-66.0,126.0,-128.0,127.0,124.0,89.0,-67.0
122.0,126.0,126.0,129.0,127.0,135.0,134.0,128.0,31.0,-121.0,-66.0,126.0,-128.0,127.0,124.0,89.0,-67.0
122.0,125.0,128.0,128.0,127.0,136.0,133.0,129.0,31.0,-121.0,-66.0,126.0,-128.0,127.0,124.0,89.0,-67.0
122.0,125.0,127.0,128.0,127.0,136.0,133.0,128.0,31.0,-121.0,-66.0,126.0,-128.0,127.0,124.0,89.0,-67.0
122.0,126.0,127.0,128.0,127.0,136.0,133.0,128.0,31.0,-121.0,-66.0,126.0,-128.0,127.0,124.0,89.0,-67.0
122.0,126.0,127.0,128.0,127.0,136.0,133.0,128.0,31.0,-121.0,-66.0,126.0,-128.0,127.0,124.0,89.0,-67.0
122.0,126.0,127.0,128.0,127.0,136.0,133.0,128.0,31.0,-121.0,-66.0,126.0,-128.0,127.0,124.0,89.0,-67.0
122.0,126.0,127.0,129.0,127.0,135.0,134.0,128.0,31.0,-121.0,-66.0,126.0,-128.0,127.0,124.0,89.0,-67.0
122.0,126.0,126.0,129.0,127.0,135.0,134.0,128.0,31.0,-121.0,-66.0,126.0,-128.0,127.0,124.0,89.0,-67.0
122.0,126.0,126.0,129.0,127.0,135.0,134.0,128.0,31.0,-121.0,-66.0,126.0,-128.0,127.0,124.0,89.0,-67.0
123.0,126.0,125.0,128.0,127.0,135.0,128.0,128.0,29.0,-121.0,-66.0,126.0,-128.0,127.0,124.0,89.0,-67.0
123.0,126.0,125.0,127.0,127.0,137.0,128.0,128.0,29.0,-121.0,-66.0,126.0,-128.0,127.0,124.0,89.0,-67.0
123.0,126.0,125.0,127.0,127.0,137.0,128.0,128.0,29.0,-121.0,-66.0,126.0,-128.0,127.0,124.0,89.0,-67.0
123.0,126.0,125.0,128.0,127.0,137.0,128.0,128.0,29.0,-121.0,-66.0,126.0,-128.0,127.0,124.0,89.0,-67.0
123.0,126.0,125.0,128.0,127.0,136.0,128.0,128.0,29.0,-121.0,-66.0,126.0,-128.0,127.0,124.0,89.0,-67.0
123.0,126.0,125.0,128.0,127.0,136.0,128.0,128.0,29.0,-121.0,-66.0,126.0,-128.0,127.0,124.0,89.0,-67.0
123.0,126.0,125.0,128.0,127.0,136.0,128.0,128.0,29.0,-121.0,-66.0,126.0,-128.0,127.0,124.0,89.0,-67.0
123.0,126.0,125.0,128.0,127.0,136.0,128.0,128.0,29.0,-121.0,-66.0,126.0,-128.0,127.0,124.0,89.0,-67.0
123.0,126.0,125.0,128.0,127.0,135.0,128.0,128.0,29.0,-121.0,-66.0,126.0,-128.0,127.0,124.0,89.0,-67.0
123.0,126.0,125.0,127.0,127.0,135.0,128.0,128.0,29.0,-121.0,-66.0,126.0,-128.0,127.0,124.0,89.0,-67.0
122.0,125.0,127.0,126.0,127.0,133.0,126.0,127.0,27.0,-122.0,-66.0,127.0,-128.0,-128.0,124.0,89.0,-67.0
122.0,125.0,127.0,126.0,127.0,133.0,126.0,127.0,27.0,-122.0,-66.0,127.0,-128.0,-128.0,124.0,89.0,-67.0
122.0,126.0,127.0,126.0,127.0,133.0,126.0,127.0,27.0,-122.0,-66.0,127.0,-128.0,-128.0,124.0,89.0,-67.0
122.0,126.0,127.0,126.0,127.0,133.0,126.0,127.0,27.0,-122.0,-66.0,127.0,-128.0,-128.0,124.0,89.0,-67.0
122.0,126.0,127.0,127.0,127.0,133.0,126.0,127.0,27.0,-122.0,-66.0,127.0,-128.0,-128.0,124.0,89.0,-67.0
122.0,126.0,127.0,127.0,127.0,133.0,126.0,127.0,27.0,-122.0,-66.0,127.0,-128.0,-128.0,124.0,89.0,-67.0
122.0,126.0,127.0,127.0,127.0,132.0,126.0,127.0,27.0,-122.0,-66.0,127.0,-128.0,-128.0,124.0,89.0,-67.0
122.0,126.0,127.0,127.0,127.0,132.0,127.0,127.0,27.0,-122.0,-66.0,127.0,-128.0,-128.0,124.0,89.0,-67.0
123.0,126.0,127.0,127.0,127.0,132.0,127.0,127.0,27.0,-122.0,-66.0,127.0,-128.0,-128.0,124.0,89.0,-67.0
122.0,126.0,127.0,127.0,127.0,132.0,127.0,127.0,27.0,-122.0,-66.0,127.0,-128.0,-128.0,124.0,89.0,-67.0
123.0,127.0,125.0,126.0,126.0,131.0,127.0,127.0,25.0,-122.0,-66.0,127.0,-128.0,-128.0,124.0,89.0,-67.0
123.0,127.0,125.0,126.0,126.0,131.0,127.0,127.0,25.0,-122.0,-66.0,127.0,-128.0,-128.0,124.0,89.0,-67.0
123.0,127.0,125.0,126.0,126.0,130.0,127.0,127.0,25.0,-122.0,-66.0,127.0,-128.0,-128.0,124.0,89.0,-67.0
123.0,127.0,125.0,126.0,126.0,130.0,127.0,127.0,25.0,-122.0,-66.0,127.0,-128.0,-128.0,124.0,89.0,-67.0
123.0,127.0,125.0,126.0,126.0,130.0,127.0,127.0,25.0,-122.0,-66.0,127.0,-128.0,-128.0,124.0,89.0,-67.0
123.0,127.0,125.0,126.0,125.0,130.0,127.0,127.0,25.0,-122.0,-66.0,127.0,-128.0,-128.0,124.0,89.0,-67.0
123.0,127.0,125.0,126.0,126.0,130.0,127.0,127.0,25.0,-122.0,-66.0,127.0,-128.0,-128.0,124.0,89.0,-67.0
123.0,127.0,125.0,126.0,126.0,130.0,127.0,127.0,25.0,-122.0,-66.0,127.0,-128.0,-128.0,124.0,89.0,-67.0
123.0,127.0,125.0,126.0,126.0,130.0,127.0,127.0,25.0,-122.0,-66.0,127.0,-128.0,-128.0,124.0,89.0,-67.0
123.0,126.0,126.0,126.0,125.0,130.0,127.0,127.0,25.0,-122.0,-66.0,127.0,-128.0,-128.0,124.0,89.0,-67.0
123.0,126.0,126.0,126.0,125.0,130.0,127.0,128.0,24.0,-123.0,-66.0,127.0,-128.0,-128.0,124.0,89.0,-67.0
123.0,126.0,126.0,126.0,125.0,130.0,127.0,128.0,24.0,-123.0,-66.0,127.0,-128.0,-128.0,124.0,89.0,-67.0
123.0,126.0,126.0,126.0,125.0,130.0,127.0,128.0,24.0,-123.0,-66.0,127.0,-128.0,-128.0,124.0,89.0,-67.0
123.0,126.0,126.0,126.0,125.0,130.0,127.0,128.0,24.0,-123.0,-66.0,127.0,-128.0,-128.0,124.0,89.0,-67.0
124.0,126.0,126.0,126.0,125.0,130.0,128.0,128.0,24.0,-123.0,-66.0,127.0,-128.0,-128.0,124.0,89.0,-67.0
123.0,126.0,127.0,126.0,125.0,129.0,128.0,128.0,24.0,-123.0,-66.0,127.0,-128.0,-128.0,124.0,89.0,-67.0
124.0,126.0,127.0,126.0,125.0,129.0,128.0,128.0,24.0,-123.0,-66.0,127.0,-128.0,-128.0,124.0,89.0,-67.0
123.0,126.0,126.0,126.0,125.0,129.0,128.0,128.0,24.0,-123.0,-66.0,127.0,-128.0,-128.0,124.0,89.0,-67.0
123.0,126.0,126.0,126.0,125.0,130.0,127.0,127.0,24.0,-123.0,-66.0,127.0,-128.0,-128.0,124.0,89.0,-67.0
123.0,126.0,126.0,126.0,125.0,130.0,127.0,128.0,24.0,-123.0,-66.0,127.0,-128.0,-128.0,124.0,89.0,-67.0
124.0,124.0,129.0,125.0,125.0,131.0,128.0,129.0,22.0,-123.0,-66.0,127.0,-128.0,-128.0,124.0,89.0,-66.0
124.0,123.0,129.0,125.0,125.0,130.0,128.0,129.0,22.0,-123.0,-66.0,127.0,-128.0,-128.0,124.0,89.0,-66.0
124.0,123.0,129.0,125.0,125.0,130.0,129.0,129.0,22.0,-123.0,-66.0,127.0,-128.0,-128.0,124.0,89.0,-66.0
124.0,123.0,129.0,125.0,125.0,130.0,129.0,129.0,22.0,-123.0,-66.0,127.0,-128.0,-128.0,124.0,89.0,-66.0
123.0,123.0,129.0,125.0,125.0,130.0,129.0,129.0,22.0,-123.0,-66.0,127.0,-128.0,-128.0,124.0,89.0,-66.0
124.0,123.0,129.0,125.0,125.0,130.0,129.0,129.0,22.0,-123.0,-66.0,127.0,-128.0,-128.0,124.0,89.0,-66.0
123.0,123.0,128.0,125.0,125.0,130.0,129.0,129.0,22.0,-123.0,-66.0,127.0,-128.0,-128.0,124.0,89.0,-66.0
124.0,124.0,129.0,125.0,125.0,131.0,128.0,129.0,22.0,-123.0,-66.0,127.0,-128.0,-128.0,124.0,89.0,-66.0
124.0,123.0,129.0,125.0,125.0,131.0,128.0,129.0,22.0,-123.0,-66.0,127.0,-128.0,-128.0,124.0,89.0,-66.0
124.0,123.0,129.0,125.0,125.0,131.0,128.0,129.0,22.0,-123.0,-66.0,127.0,-128.0,-128.0,124.0,89.0,-66.0
124.0,124.0,128.0,125.0,126.0,131.0,131.0,128.0,20.0,-123.0,-66.0,127.0,-128.0,-128.0,124.0,89.0,-66.0
124.0,124.0,128.0,125.0,126.0,131.0,131.0,128.0,20.0,-123.0,-66.0,127.0,-128.0,-128.0,124.0,89.0,-66.0
124.0,124.0,128.0,125.0,126.0,131.0,132.0,128.0,20.0,-123.0,-66.0,127.0,-128.0,-128.0,124.0,89.0,-66.0
124.0,124.0,128.0,125.0,126.0,130.0,132.0,128.0,20.0,-123.0,-66.0,127.0,-128.0,-128.0,124.0,89.0,-66.0
124.0,124.0,128.0,125.0,126.0,130.0,132.0,128.0,20.0,-123.0,-66.0,127.0,-128.0,-128.0,124.0,89.0,-66.0
124.0,124.0,127.0,125.0,126.0,130.0,132.0,128.0,20.0,-123.0,-66.0,127.0,-128.0,-128.0,124.0,89.0,-66.0
124.0,123.0,129.0,124.0,126.0,132.0,131.0,129.0,20.0,-123.0,-66.0,127.0,-128.0,-128.0,124.0,89.0,-66.0
124.0,123.0,129.0,125.0,126.0,132.0,131.0,129.0,20.0,-123.0,-66.0,127.0,-128.0,-128.0,124.0,89.0,-66.0
124.0,123.0,128.0,125.0,126.0,132.0,131.0,129.0,20.0,-123.0,-66.0,127.0,-128.0,-128.0,124.0,89.0,-66.0
124.0,123.0,128.0,125.0,126.0,132.0,131.0,129.0,20.0,-123.0,-66.0,127.0,-128.0,-128.0,124.0,89.0,-66.0
123.0,128.0,123.0,126.0,127.0,129.0,123.0,123.0,18.0,-123.0,-67.0,127.0,-128.0,-128.0,124.0,88.0,-65.0
123.0,128.0,123.0,126.0,127.0,129.0,123.0,123.0,18.0,-123.0,-67.0,127.0,-128.0,-128.0,124.0,88.0,-65.0
123.0,128.0,123.0,126.0,127.0,129.0,123.0,123.0,18.0,-123.0,-67.0,127.0,-128.0,-128.0,124.0,88.0,-65.0
123.0,128.0,123.0,126.0,127.0,129.0,123.0,123.0,18.0,-123.0,-67.0,127.0,-128.0,-128.0,124.0,88.0,-65.0
123.0,128.0,123.0,126.0,127.0,129.0,122.0,123.0,18.0,-123.0,-67.0,127.0,-128.0,-128.0,124.0,88.0,-65.0
123.0,128.0,123.0,126.0,127.0,130.0,124.0,124.0,18.0,-123.0,-67.0,127.0,-128.0,-128.0,124.0,88.0,-65.0
123.0,128.0,123.0,126.0,127.0,130.0,124.0,124.0,18.0,-123.0,-67.0,127.0,-128.0,-128.0,124.0,88.0,-65.0
123.0,128.0,123.0,126.0,127.0,130.0,124.0,124.0,18.0,-123.0,-67.0,127.0,-128.0,-128.0,124.0,88.0,-65.0
123.0,128.0,123.0,126.0,127.0,130.0,124.0,124.0,18.0,-123.0,-67.0,127.0,-128.0,-128.0,124.0,88.0,-65.0
123.0,128.0,123.0,126.0,127.0,130.0,123.0,124.0,18.0,-123.0,-67.0,127.0,-128.0,-128.0,124.0,88.0,-65.0
123.0,126.0,125.0,126.0,125.0,130.0,109.0,121.0,17.0,-124.0,-67.0,127.0,-128.0,-128.0,124.0,88.0,-65.0
123.0,126.0,125.0,126.0,125.0,130.0,109.0,121.0,17.0,-124.0,-67.0,127.0,-128.0,-128.0,124.0,88.0,-65.0
123.0,126.0,125.0,126.0,125.0,130.0,109.0,121.0,17.0,-124.0,-67.0,127.0,-128.0,-128.0,124.0,88.0,-65.0
123.0,126.0,125.0,126.0,125.0,130.0,109.0,121.0,17.0,-124.0,-67.0,127.0,-128.0,-128.0,124.0,88.0,-65.0
123.0,125.0,126.0,125.0,125.0,131.0,109.0,121.0,17.0,-124.0,-67.0,127.0,-128.0,-128.0,124.0,88.0,-65.0
123.0,125.0,126.0,125.0,125.0,131.0,109.0,121.0,17.0,-124.0,-67.0,127.0,-128.0,-128.0,124.0,88.0,-65.0
123.0,125.0,126.0,125.0,125.0,131.0,109.0,121.0,17.0,-124.0,-67.0,127.0,-128.0,-128.0,124.0,88.0,-65.0
123.0,126.0,126.0,125.0,125.0,131.0,109.0,121.0,17.0,-124.0,-67.0,127.0,-128.0,-128.0,124.0,88.0,-65.0
123.0,126.0,126.0,126.0,125.0,131.0,109.0,121.0,17.0,-124.0,-67.0,127.0,-128.0,-128.0,124.0,88.0,-65.0
123.0,126.0,126.0,126.0,125.0,131.0,109.0,121.0,17.0,-124.0,-67.0,127.0,-128.0,-128.0,124.0,88.0,-65.0
124.0,131.0,120.0,127.0,127.0,128.0,116.0,123.0,15.0,-123.0,-68.0,127.0,-128.0,-128.0,125.0,88.0,-65.0
124.0,131.0,120.0,127.0,127.0,128.0,116.0,123.0,15.0,-123.0,-68.0,127.0,-128.0,-128.0,125.0,88.0,-65.0
124.0,131.0,120.0,127.0,127.0,128.0,116.0,123.0,15.0,-123.0,-68.0,127.0,-128.0,-128.0,125.0,88.0,-65.0
124.0,131.0,121.0,127.0,127.0,129.0,114.0,123.0,15.0,-123.0,-68.0,127.0,-128.0,-128.0,125.0,88.0,-65.0
124.0,131.0,121.0,127.0,127.0,129.0,115.0,123.0,15.0,-123.0,-68.0,127.0,-128.0,-128.0,125.0,88.0,-65.0
124.0,132.0,121.0,127.0,127.0,129.0,115.0,123.0,15.0,-123.0,-68.0,127.0,-128.0,-128.0,125.0,88.0,-65.0
124.0,132.0,121.0,127.0,127.0,129.0,115.0,123.0,15.0,-123.0,-68.0,127.0,-128.0,-128.0,125.0,88.0,-65.0
124.0,131.0,121.0,127.0,127.0,129.0,115.0,123.0,15.0,-123.0,-68.0,127.0,-128.0,-128.0,125.0,88.0,-65.0
124.0,131.0,120.0,127.0,127.0,128.0,115.0,123.0,15.0,-123.0,-68.0,127.0,-128.0,-128.0,125.0,88.0,-65.0
124.0,131.0,120.0,127.0,127.0,128.0,115.0,123.0,15.0,-123.0,-68.0,127.0,-128.0,-128.0,125.0,88.0,-65.0
123.0,125.0,126.0,126.0,126.0,132.0,112.0,124.0,14.0,-123.0,-69.0,127.0,-128.0,-128.0,125.0,87.0,-65.0
123.0,125.0,126.0,125.0,126.0,132.0,112.0,124.0,14.0,-123.0,-69.0,127.0,-128.0,-128.0,125.0,87.0,-65.0
123.0,126.0,126.0,125.0,126.0,132.0,112.0,124.0,14.0,-123.0,-69.0,127.0,-128.0,-128.0,125.0,87.0,-65.0
123.0,126.0,126.0,125.0,126.0,132.0,112.0,123.0,14.0,-123.0,-69.0,127.0,-128.0,-128.0,125.0,87.0,-65.0
123.0,126.0,126.0,125.0,126.0,133.0,111.0,123.0,14.0,-123.0,-69.0,127.0,-128.0,-128.0,125.0,87.0,-65.0
123.0,126.0,126.0,125.0,126.0,133.0,111.0,124.0,14.0,-123.0,-69.0,127.0,-128.0,-128.0,125.0,87.0,-65.0
123.0,125.0,126.0,125.0,126.0,133.0,112.0,124.0,14.0,-123.0,-69.0,127.0,-128.0,-128.0,125.0,87.0,-65.0
123.0,125.0,126.0,125.0,126.0,132.0,112.0,124.0,14.0,-123.0,-69.0,127.0,-128.0,-128.0,125.0,87.0,-65.0
123.0,125.0,126.0,125.0,126.0,132.0,112.0,124.0,14.0,-123.0,-69.0,127.0,-128.0,-128.0,125.0,87.0,-65.0
123.0,125.0,126.0,126.0,126.0,132.0,112.0,124.0,14.0,-123.0,-69.0,127.0,-128.0,-128.0,125.0,87.0,-65.0
123.0,128.0,125.0,126.0,127.0,128.0,122.0,125.0,13.0,-122.0,-71.0,127.0,-128.0,-128.0,125.0,87.0,-65.0
123.0,128.0,124.0,127.0,127.0,128.0,123.0,125.0,13.0,-122.0,-71.0,127.0,-128.0,-128.0,125.0,87.0,-65.0
123.0,128.0,124.0,127.0,127.0,127.0,123.0,125.0,13.0,-122.0,-71.0,127.0,-128.0,-128.0,125.0,87.0,-65.0
123.0,128.0,124.0,127.0,127.0,127.0,124.0,125.0,13.0,-122.0,-71.0,127.0,-128.0,-128.0,125.0,87.0,-65.0
123.0,129.0,123.0,127.0,128.0,127.0,124.0,125.0,13.0,-122.0,-71.0,127.0,-128.0,-128.0,125.0,87.0,-65.0
123.0,129.0,123.0,127.0,128.0,127.0,125.0,125.0,13.0,-122.0,-71.0,127.0,-128.0,-128.0,125.0,87.0,-65.0
123.0,130.0,122.0,127.0,128.0,128.0,125.0,125.0,13.0,-122.0,-71.0,127.0,-128.0,-128.0,125.0,87.0,-65.0
123.0,130.0,122.0,127.0,128.0,128.0,125.0,125.0,13.0,-122.0,-71.0,127.0,-128.0,-128.0,125.0,87.0,-65.0
123.0,131.0,122.0,127.0,128.0,127.0,126.0,125.0,13.0,-122.0,-71.0,127.0,-128.0,-128.0,125.0,87.0,-65.0
123.0,131.0,121.0,127.0,128.0,127.0,126.0,125.0,13.0,-122.0,-71.0,127.0,-128.0,-128.0,125.0,87.0,-65.0
124.0,142.0,113.0,130.0,130.0,125.0,143.0,127.0,12.0,-121.0,-72.0,127.0,-128.0,-128.0,125.0,87.0,-64.0
124.0,142.0,112.0,130.0,130.0,124.0,143.0,127.0,12.0,-121.0,-72.0,127.0,-128.0,-128.0,125.0,87.0,-64.0
124.0,142.0,112.0,130.0,130.0,124.0,143.0,127.0,12.0,-121.0,-72.0,127.0,-128.0,-128.0,125.0,87.0,-64.0
124.0,143.0,112.0,130.0,130.0,124.0,143.0,127.0,12.0,-121.0,-72.0,127.0,-128.0,-128.0,125.0,87.0,-64.0
124.0,143.0,112.0,130.0,130.0,124.0,144.0,127.0,12.0,-121.0,-72.0,127.0,-128.0,-128.0,125.0,87.0,-64.0
124.0,143.0,112.0,130.0,130.0,124.0,144.0,127.0,12.0,-121.0,-72.0,127.0,-128.0,-128.0,125.0,87.0,-64.0
124.0,143.0,112.0,130.0,130.0,124.0,144.0,127.0,12.0,-121.0,-72.0,127.0,-128.0,-128.0,125.0,87.0,-64.0
124.0,143.0,112.0,130.0,130.0,124.0,144.0,127.0,12.0,-121.0,-72.0,127.0,-128.0,-128.0,125.0,87.0,-64.0
124.0,143.0,112.0,130.0,130.0,123.0,145.0,127.0,12.0,-121.0,-72.0,127.0,-128.0,-128.0,125.0,87.0,-64.0
124.0,143.0,112.0,130.0,130.0,123.0,145.0,127.0,12.0,-121.0,-72.0,127.0,-128.0,-128.0,125.0,87.0,-64.0
124.0,144.0,115.0,129.0,129.0,126.0,145.0,128.0,11.0,-121.0,-74.0,126.0,-128.0,-128.0,125.0,87.0,-64.0
124.0,144.0,115.0,129.0,129.0,126.0,145.0,127.0,11.0,-121.0,-74.0,126.0,-128.0,-128.0,125.0,87.0,-64.0
124.0,144.0,115.0,129.0,129.0,126.0,145.0,128.0,11.0,-121.0,-74.0,126.0,-128.0,-128.0,125.0,87.0,-64.0
124.0,144.0,115.0,129.0,129.0,126.0,145.0,128.0,11.0,-121.0,-74.0,126.0,-128.0,-128.0,125.0,87.0,-64.0
124.0,144.0,115.0,129.0,129.0,126.0,145.0,128.0,11.0,-121.0,-74.0,126.0,-128.0,-128.0,125.0,87.0,-64.0
124.0,143.0,115.0,129.0,129.0,125.0,145.0,128.0,11.0,-121.0,-74.0,126.0,-128.0,-128.0,125.0,87.0,-64.0
124.0,143.0,115.0,129.0,129.0,125.0,145.0,128.0,11.0,-121.0,-74.0,126.0,-128.0,-128.0,125.0,87.0,-64.0
124.0,143.0,115.0,129.0,129.0,125.0,145.0,128.0,11.0,-121.0,-74.0,126.0,-128.0,-128.0,125.0,87.0,-64.0
124.0,143.0,114.0,129.0,129.0,126.0,144.0,127.0,11.0,-121.0,-74.0,126.0,-128.0,-128.0,125.0,87.0,-64.0
124.0,144.0,115.0,129.0,129.0,126.0,145.0,128.0,11.0,-121.0,-74.0,126.0,-128.0,-128.0,125.0,87.0,-64.0
123.0,137.0,123.0,127.0,128.0,129.0,136.0,127.0,9.0,-120.0,-75.0,126.0,-128.0,-128.0,125.0,86.0,-63.0
123.0,137.0,124.0,127.0,128.0,129.0,136.0,127.0,9.0,-120.0,-75.0,126.0,-128.0,-128.0,125.0,86.0,-63.0
123.0,137.0,124.0,128.0,128.0,129.0,136.0,127.0,9.0,-120.0,-75.0,126.0,-128.0,-128.0,125.0,86.0,-63.0
123.0,137.0,124.0,128.0,128.0,129.0,136.0,127.0,9.0,-120.0,-75.0,126.0,-128.0,-128.0,125.0,86.0,-63.0
123.0,136.0,124.0,127.0,128.0,129.0,136.0,127.0,9.0,-120.0,-75.0,126.0,-128.0,-128.0,125.0,86.0,-63.0
123.0,136.0,124.0,127.0,128.0,129.0,136.0,127.0,9.0,-120.0,-75.0,126.0,-128.0,-128.0,125.0,86.0,-63.0
123.0,136.0,125.0,128.0,128.0,129.0,136.0,127.0,9.0,-120.0,-75.0,126.0,-128.0,-128.0,125.0,86.0,-63.0
123.0,137.0,123.0,127.0,128.0,129.0,137.0,127.0,9.0,-120.0,-75.0,126.0,-128.0,-128.0,125.0,86.0,-63.0
123.0,137.0,123.0,127.0,128.0,129.0,136.0,127.0,9.0,-120.0,-75.0,126.0,-128.0,-128.0,125.0,86.0,-63.0
123.0,137.0,123.0,127.0,128.0,129.0,136.0,127.0,9.0,-120.0,-75.0,126.0,-128.0,-128.0,125.0,86.0,-63.0
123.0,131.0,130.0,127.0,128.0,133.0,129.0,127.0,7.0,-120.0,-77.0,126.0,-128.0,-128.0,125.0,85.0,-63.0
123.0,131.0,130.0,127.0,128.0,133.0,129.0,127.0,7.0,-120.0,-77.0,126.0,-128.0,-128.0,125.0,85.0,-63.0
123.0,131.0,130.0,127.0,128.0,133.0,129.0,127.0,7.0,-120.0,-77.0,126.0,-128.0,-128.0,125.0,85.0,-63.0
123.0,131.0,130.0,127.0,128.0,132.0,129.0,127.0,7.0,-120.0,-77.0,126.0,-128.0,-128.0,125.0,85.0,-63.0
123.0,131.0,130.0,127.0,128.0,132.0,129.0,127.0,7.0,-120.0,-77.0,126.0,-128.0,-128.0,125.0,85.0,-63.0
123.0,131.0,130.0,127.0,128.0,132.0,130.0,127.0,7.0,-120.0,-77.0,126.0,-128.0,-128.0,125.0,85.0,-63.0
123.0,131.0,130.0,126.0,127.0,133.0,129.0,127.0,7.0,-120.0,-77.0,126.0,-128.0,-128.0,125.0,85.0,-63.0
123.0,131.0,130.0,127.0,127.0,133.0,129.0,127.0,7.0,-120.0,-77.0,126.0,-128.0,-128.0,125.0,85.0,-63.0
123.0,131.0,130.0,127.0,128.0,133.0,129.0,127.0,7.0,-120.0,-77.0,126.0,-128.0,-128.0,125.0,85.0,-63.0
123.0,131.0,130.0,127.0,127.0,133.0,129.0,127.0,7.0,-120.0,-77.0,126.0,-128.0,-128.0,125.0,85.0,-63.0
123.0,129.0,131.0,128.0,128.0,133.0,126.0,127.0,6.0,-119.0,-78.0,126.0,127.0,-128.0,125.0,85.0,-63.0
123.0,128.0,131.0,128.0,128.0,133.0,126.0,127.0,6.0,-119.0,-78.0,126.0,127.0,-128.0,125.0,85.0,-63.0
122.0,128.0,132.0,128.0,128.0,133.0,127.0,127.0,6.0,-119.0,-78.0,126.0,127.0,-128.0,125.0,85.0,-63.0
122.0,128.0,132.0,128.0,128.0,132.0,127.0,127.0,6.0,-119.0,-78.0,126.0,127.0,-128.0,125.0,85.0,-63.0
122.0,128.0,132.0,128.0,128.0,132.0,127.0,127.0,6.0,-119.0,-78.0,126.0,127.0,-128.0,125.0,85.0,-63.0
122.0,128.0,132.0,128.0,127.0,132.0,127.0,127.0,6.0,-119.0,-78.0,126.0,127.0,-128.0,125.0,85.0,-63.0
123.0,128.0,132.0,128.0,128.0,133.0,126.0,127.0,6.0,-119.0,-78.0,126.0,127.0,-128.0,125.0,85.0,-63.0
122.0,128.0,132.0,128.0,128.0,133.0,126.0,127.0,6.0,-119.0,-78.0,126.0,127.0,-128.0,125.0,85.0,-63.0
122.0,128.0,132.0,128.0,128.0,133.0,127.0,127.0,6.0,-119.0,-78.0,126.0,127.0,-128.0,125.0,85.0,-63.0
122.0,129.0,131.0,128.0,128.0,133.0,126.0,127.0,6.0,-119.0,-78.0,126.0,127.0,-128.0,125.0,85.0,-63.0
123.0,126.0,132.0,127.0,128.0,134.0,125.0,127.0,5.0,-118.0,-79.0,126.0,127.0,-128.0,125.0,84.0,-62.0
123.0,126.0,131.0,127.0,128.0,134.0,125.0,127.0,5.0,-118.0,-79.0,126.0,127.0,-128.0,125.0,84.0,-62.0
123.0,126.0,131.0,127.0,128.0,134.0,125.0,127.0,5.0,-118.0,-79.0,126.0,127.0,-128.0,125.0,84.0,-62.0
123.0,126.0,131.0,127.0,128.0,134.0,125.0,127.0,5.0,-118.0,-79.0,126.0,127.0,-128.0,125.0,84.0,-62.0
123.0,125.0,132.0,127.0,128.0,134.0,125.0,127.0,5.0,-118.0,-79.0,126.0,127.0,-128.0,125.0,84.0,-62.0
123.0,126.0,132.0,127.0,128.0,134.0,124.0,127.0,5.0,-118.0,-79.0,126.0,127.0,-128.0,125.0,84.0,-62.0
123.0,126.0,132.0,127.0,128.0,134.0,125.0,127.0,5.0,-118.0,-79.0,126.0,127.0,-128.0,125.0,84.0,-62.0
123.0,126.0,132.0,127.0,128.0,134.0,125.0,127.0,5.0,-118.0,-79.0,126.0,127.0,-128.0,125.0,84.0,-62.0
123.0,126.0,132.0,127.0,128.0,134.0,125.0,127.0,5.0,-118.0,-79.0,126.0,127.0,-128.0,125.0,84.0,-62.0
123.0,126.0,132.0,127.0,128.0,134.0,125.0,127.0,5.0,-118.0,-79.0,126.0,127.0,-128.0,125.0,84.0,-62.0
123.0,123.0,134.0,126.0,127.0,132.0,125.0,128.0,4.0,-117.0,-79.0,126.0,127.0,-128.0,125.0,84.0,-62.0
123.0,123.0,134.0,126.0,127.0,132.0,125.0,128.0,4.0,-117.0,-79.0,126.0,127.0,-128.0,125.0,84.0,-62.0
123.0,123.0,134.0,126.0,127.0,132.0,125.0,128.0,4.0,-117.0,-79.0,126.0,127.0,-128.0,125.0,84.0,-62.0
123.0,123.0,134.0,126.0,127.0,132.0,125.0,128.0,4.0,-117.0,-79.0,126.0,127.0,-128.0,125.0,84.0,-62.0
123.0,123.0,134.0,126.0,127.0,133.0,125.0,128.0,4.0,-117.0,-79.0,126.0,127.0,-128.0,125.0,84.0,-62.0
123.0,123.0,134.0,127.0,127.0,133.0,125.0,128.0,4.0,-117.0,-79.0,126.0,127.0,-128.0,125.0,84.0,-62.0
123.0,124.0,134.0,126.0,127.0,133.0,125.0,128.0,4.0,-117.0,-79.0,126.0,127.0,-128.0,125.0,84.0,-62.0
123.0,123.0,134.0,126.0,127.0,133.0,125.0,128.0,4.0,-117.0,-79.0,126.0,127.0,-128.0,125.0,84.0,-62.0
123.0,123.0,134.0,126.0,127.0,133.0,125.0,128.0,4.0,-117.0,-79.0,126.0,127.0,-128.0,125.0,84.0,-62.0
123.0,123.0,134.0,126.0,127.0,133.0,125.0,128.0,4.0,-117.0,-79.0,126.0,127.0,-128.0,125.0,84.0,-62.0
124.0,120.0,139.0,126.0,128.0,131.0,122.0,128.0,5.0,-116.0,-80.0,126.0,127.0,-128.0,124.0,84.0,-62.0
124.0,121.0,139.0,126.0,128.0,131.0,122.0,129.0,5.0,-116.0,-80.0,126.0,127.0,-128.0,124.0,84.0,-62.0
124.0,119.0,139.0,125.0,127.0,132.0,122.0,128.0,5.0,-116.0,-80.0,126.0,127.0,-128.0,124.0,84.0,-62.0
123.0,119.0,139.0,125.0,127.0,132.0,122.0,128.0,5.0,-116.0,-80.0,126.0,127.0,-128.0,124.0,84.0,-62.0
124.0,119.0,139.0,125.0,127.0,132.0,122.0,128.0,5.0,-116.0,-80.0,126.0,127.0,-128.0,124.0,84.0,-62.0
124.0,120.0,139.0,125.0,127.0,132.0,122.0,128.0,5.0,-116.0,-80.0,126.0,127.0,-128.0,124.0,84.0,-62.0
124.0,120.0,139.0,125.0,127.0,132.0,122.0,128.0,5.0,-116.0,-80.0,126.0,127.0,-128.0,124.0,84.0,-62.0
124.0,120.0,139.0,125.0,127.0,132.0,122.0,128.0,5.0,-116.0,-80.0,126.0,127.0,-128.0,124.0,84.0,-62.0
124.0,120.0,139.0,126.0,127.0,132.0,122.0,128.0,5.0,-116.0,-80.0,126.0,127.0,-128.0,124.0,84.0,-62.0
124.0,120.0,139.0,126.0,128.0,132.0,122.0,128.0,5.0,-116.0,-80.0,126.0,127.0,-128.0,124.0,84.0,-62.0
123.0,123.0,132.0,127.0,128.0,127.0,125.0,129.0,6.0,-115.0,-80.0,126.0,127.0,-128.0,123.0,84.0,-62.0
123.0,122.0,135.0,126.0,128.0,127.0,124.0,129.0,6.0,-115.0,-80.0,126.0,127.0,-128.0,123.0,84.0,-62.0
123.0,122.0,134.0,127.0,128.0,127.0,124.0,129.0,6.0,-115.0,-80.0,126.0,127.0,-128.0,123.0,84.0,-62.0
123.0,122.0,134.0,127.0,128.0,127.0,124.0,129.0,6.0,-115.0,-80.0,126.0,127.0,-128.0,123.0,84.0,-62.0
123.0,122.0,134.0,127.0,128.0,127.0,124.0,129.0,6.0,-115.0,-80.0,126.0,127.0,-128.0,123.0,84.0,-62.0
123.0,122.0,134.0,127.0,128.0,127.0,124.0,129.0,6.0,-115.0,-80.0,126.0,127.0,-128.0,123.0,84.0,-62.0
123.0,123.0,133.0,127.0,128.0,128.0,124.0,129.0,6.0,-115.0,-80.0,126.0,127.0,-128.0,123.0,84.0,-62.0
123.0,123.0,133.0,127.0,128.0,127.0,124.0,129.0,6.0,-115.0,-80.0,126.0,127.0,-128.0,123.0,84.0,-62.0
123.0,123.0,132.0,127.0,128.0,127.0,125.0,129.0,6.0,-115.0,-80.0,126.0,127.0,-128.0,123.0,84.0,-62.0
123.0,123.0,132.0,127.0,128.0,127.0,125.0,129.0,6.0,-115.0,-80.0,126.0,127.0,-128.0,123.0,84.0,-62.0
123.0,123.0,129.0,127.0,127.0,127.0,127.0,128.0,7.0,-115.0,-80.0,126.0,127.0,-128.0,123.0,84.0,-62.0
123.0,123.0,129.0,127.0,127.0,127.0,127.0,128.0,7.0,-115.0,-80.0,126.0,127.0,-128.0,123.0,84.0,-62.0
123.0,123.0,129.0,127.0,127.0,127.0,127.0,128.0,7.0,-115.0,-80.0,126.0,127.0,-128.0,123.0,84.0,-62.0
123.0,123.0,129.0,127.0,127.0,127.0,127.0,128.0,7.0,-115.0,-80.0,126.0,127.0,-128.0,123.0,84.0,-62.0
123.0,123.0,129.0,127.0,127.0,127.0,127.0,128.0,7.0,-115.0,-80.0,126.0,127.0,-128.0,123.0,84.0,-62.0
123.0,124.0,128.0,127.0,127.0,128.0,127.0,128.0,7.0,-115.0,-80.0,126.0,127.0,-128.0,123.0,84.0,-62.0
123.0,124.0,128.0,127.0,127.0,127.0,127.0,128.0,7.0,-115.0,-80.0,126.0,127.0,-128.0,123.0,84.0,-62.0
123.0,124.0,128.0,127.0,127.0,127.0,127.0,128.0,7.0,-115.0,-80.0,126.0,127.0,-128.0,123.0,84.0,-62.0
123.0,124.0,128.0,127.0,127.0,127.0,127.0,127.0,7.0,-115.0,-80.0,126.0,127.0,-128.0,123.0,84.0,-62.0
123.0,124.0,128.0,127.0,127.0,127.0,128.0,127.0,7.0,-115.0,-80.0,126.0,127.0,-128.0,123.0,84.0,-62.0
123.0,124.0,126.0,127.0,126.0,125.0,127.0,126.0,10.0,-114.0,-80.0,126.0,126.0,-128.0,123.0,84.0,-62.0
123.0,124.0,125.0,127.0,126.0,125.0,127.0,126.0,10.0,-114.0,-80.0,126.0,126.0,-128.0,123.0,84.0,-62.0
123.0,124.0,125.0,127.0,126.0,125.0,127.0,126.0,10.0,-114.0,-80.0,126.0,126.0,-128.0,123.0,84.0,-62.0
123.0,124.0,125.0,127.0,126.0,125.0,126.0,126.0,10.0,-114.0,-80.0,126.0,126.0,-128.0,123.0,84.0,-62.0
123.0,125.0,124.0,127.0,126.0,125.0,126.0,126.0,10.0,-114.0,-80.0,126.0,126.0,-128.0,123.0,84.0,-62.0
123.0,125.0,124.0,127.0,126.0,125.0,126.0,126.0,10.0,-114.0,-80.0,126.0,126.0,-128.0,123.0,84.0,-62.0
123.0,125.0,124.0,127.0,126.0,125.0,126.0,126.0,10.0,-114.0,-80.0,126.0,126.0,-128.0,123.0,84.0,-62.0
123.0,125.0,124.0,127.0,126.0,125.0,127.0,126.0,10.0,-114.0,-80.0,126.0,126.0,-128.0,123.0,84.0,-62.0
123.0,125.0,124.0,127.0,126.0,125.0,127.0,126.0,10.0,-114.0,-80.0,126.0,126.0,-128.0,123.0,84.0,-62.0
123.0,124.0,126.0,127.0,126.0,125.0,127.0,126.0,10.0,-114.0,-80.0,126.0,126.0,-128.0,123.0,84.0,-62.0
123.0,125.0,122.0,127.0,127.0,124.0,126.0,126.0,12.0,-114.0,-80.0,127.0,126.0,-128.0,123.0,84.0,-62.0
123.0,125.0,122.0,127.0,127.0,123.0,126.0,126.0,12.0,-114.0,-80.0,127.0,126.0,-128.0,123.0,84.0,-62.0
123.0,125.0,122.0,127.0,126.0,123.0,126.0,126.0,12.0,-114.0,-80.0,127.0,126.0,-128.0,123.0,84.0,-62.0
123.0,126.0,121.0,127.0,127.0,124.0,126.0,126.0,12.0,-114.0,-80.0,127.0,126.0,-128.0,123.0,84.0,-62.0
123.0,126.0,121.0,127.0,127.0,124.0,126.0,126.0,12.0,-114.0,-80.0,127.0,126.0,-128.0,123.0,84.0,-62.0
123.0,126.0,121.0,127.0,127.0,124.0,126.0,126.0,12.0,-114.0,-80.0,127.0,126.0,-128.0,123.0,84.0,-62.0
123.0,126.0,121.0,127.0,127.0,124.0,126.0,126.0,12.0,-114.0,-80.0,127.0,126.0,-128.0,123.0,84.0,-62.0
123.0,126.0,121.0,127.0,127.0,124.0,126.0,126.0,12.0,-114.0,-80.0,127.0,126.0,-128.0,123.0,84.0,-62.0
123.0,125.0,121.0,127.0,127.0,124.0,126.0,126.0,12.0,-114.0,-80.0,127.0,126.0,-128.0,123.0,84.0,-62.0
123.0,125.0,122.0,127.0,126.0,124.0,126.0,126.0,12.0,-114.0,-80.0,127.0,126.0,-128.0,123.0,84.0,-62.0
123.0,127.0,125.0,125.0,126.0,126.0,126.0,126.0,15.0,-114.0,-79.0,127.0,126.0,-128.0,123.0,84.0,-62.0
123.0,127.0,125.0,125.0,126.0,127.0,126.0,126.0,15.0,-114.0,-79.0,127.0,126.0,-128.0,123.0,84.0,-62.0
123.0,127.0,124.0,125.0,126.0,127.0,125.0,126.0,15.0,-114.0,-79.0,127.0,126.0,-128.0,123.0,84.0,-62.0
123.0,127.0,124.0,125.0,126.0,127.0,125.0,126.0,15.0,-114.0,-79.0,127.0,126.0,-128.0,123.0,84.0,-62.0
123.0,127.0,124.0,125.0,126.0,127.0,125.0,127.0,15.0,-114.0,-79.0,127.0,126.0,-128.0,123.0,84.0,-62.0
123.0,127.0,124.0,126.0,126.0,127.0,125.0,127.0,15.0,-114.0,-79.0,127.0,126.0,-128.0,123.0,84.0,-62.0
123.0,127.0,125.0,125.0,126.0,127.0,126.0,127.0,15.0,-114.0,-79.0,127.0,126.0,-128.0,123.0,84.0,-62.0
123.0,127.0,124.0,125.0,126.0,127.0,125.0,126.0,15.0,-114.0,-79.0,127.0,126.0,-128.0,123.0,84.0,-62.0
123.0,127.0,125.0,125.0,126.0,127.0,125.0,126.0,15.0,-114.0,-79.0,127.0,126.0,-128.0,123.0,84.0,-62.0
123.0,127.0,125.0,125.0,126.0,127.0,125.0,126.0,15.0,-114.0,-79.0,127.0,126.0,-128.0,123.0,84.0,-62.0
123.0,126.0,127.0,124.0,125.0,129.0,125.0,127.0,17.0,-114.0,-78.0,127.0,126.0,127.0,122.0,84.0,-62.0
123.0,127.0,127.0,124.0,125.0,129.0,125.0,127.0,17.0,-114.0,-78.0,127.0,126.0,127.0,122.0,84.0,-62.0
123.0,127.0,126.0,124.0,125.0,129.0,125.0,127.0,17.0,-114.0,-78.0,127.0,126.0,127.0,122.0,84.0,-62.0
123.0,127.0,126.0,124.0,125.0,129.0,125.0,127.0,17.0,-114.0,-78.0,127.0,126.0,127.0,122.0,84.0,-62.0
123.0,127.0,126.0,124.0,125.0,129.0,125.0,127.0,17.0,-114.0,-78.0,127.0,126.0,127.0,122.0,84.0,-62.0
123.0,127.0,126.0,124.0,125.0,129.0,125.0,127.0,17.0,-114.0,-78.0,127.0,126.0,127.0,122.0,84.0,-62.0
123.0,127.0,127.0,124.0,125.0,129.0,125.0,127.0,17.0,-114.0,-78.0,127.0,126.0,127.0,122.0,84.0,-62.0
123.0,126.0,127.0,124.0,125.0,129.0,125.0,127.0,17.0,-114.0,-78.0,127.0,126.0,127.0,122.0,84.0,-62.0
123.0,126.0,127.0,124.0,125.0,129.0,125.0,127.0,17.0,-114.0,-78.0,127.0,126.0,127.0,122.0,84.0,-62.0
123.0,126.0,127.0,124.0,125.0,129.0,125.0,127.0,17.0,-114.0,-78.0,127.0,126.0,127.0,122.0,84.0,-62.0
123.0,124.0,129.0,124.0,124.0,131.0,123.0,127.0,19.0,-114.0,-78.0,127.0,126.0,127.0,122.0,84.0,-62.0
124.0,124.0,128.0,124.0,125.0,131.0,123.0,127.0,19.0,-114.0,-78.0,127.0,126.0,127.0,122.0,84.0,-62.0
124.0,124.0,128.0,124.0,125.0,131.0,123.0,127.0,19.0,-114.0,-78.0,127.0,126.0,127.0,122.0,84.0,-62.0
124.0,124.0,128.0,124.0,125.0,131.0,123.0,127.0,19.0,-114.0,-78.0,127.0,126.0,127.0,122.0,84.0,-62.0
124.0,124.0,128.0,124.0,125.0,131.0,123.0,127.0,19.0,-114.0,-78.0,127.0,126.0,127.0,122.0,84.0,-62.0
124.0,124.0,129.0,124.0,125.0,131.0,123.0,127.0,19.0,-114.0,-78.0,127.0,126.0,127.0,122.0,84.0,-62.0
124.0,124.0,129.0,124.0,124.0,131.0,123.0,127.0,19.0,-114.0,-78.0,127.0,126.0,127.0,122.0,84.0,-62.0
124.0,124.0,129.0,124.0,124.0,131.0,123.0,127.0,19.0,-114.0,-78.0,127.0,126.0,127.0,122.0,84.0,-62.0
124.0,124.0,129.0,124.0,125.0,131.0,123.0,127.0,19.0,-114.0,-78.0,127.0,126.0,127.0,122.0,84.0,-62.0
124.0,124.0,129.0,124.0,125.0,131.0,123.0,127.0,19.0,-114.0,-78.0,127.0,126.0,127.0,122.0,84.0,-62.0
124.0,122.0,130.0,124.0,125.0,129.0,123.0,127.0,20.0,-114.0,-77.0,127.0,126.0,127.0,122.0,84.0,-62.0
124.0,122.0,130.0,124.0,125.0,129.0,123.0,127.0,20.0,-114.0,-77.0,127.0,126.0,127.0,122.0,84.0,-62.0
124.0,122.0,130.0,124.0,125.0,129.0,123.0,127.0,20.0,-114.0,-77.0,127.0,126.0,127.0,122.0,84.0,-62.0
124.0,122.0,130.0,124.0,125.0,129.0,123.0,127.0,20.0,-114.0,-77.0,127.0,126.0,127.0,122.0,84.0,-62.0
124.0,122.0,130.0,124.0,125.0,130.0,122.0,127.0,20.0,-114.0,-77.0,127.0,126.0,127.0,122.0,84.0,-62.0
124.0,122.0,130.0,123.0,125.0,130.0,122.0,127.0,20.0,-114.0,-77.0,127.0,126.0,127.0,122.0,84.0,-62.0
124.0,122.0,130.0,124.0,125.0,130.0,122.0,127.0,20.0,-114.0,-77.0,127.0,126.0,127.0,122.0,84.0,-62.0
124.0,122.0,130.0,124.0,125.0,129.0,122.0,127.0,20.0,-114.0,-77.0,127.0,126.0,127.0,122.0,84.0,-62.0
124.0,122.0,130.0,124.0,125.0,129.0,123.0,127.0,20.0,-114.0,-77.0,127.0,126.0,127.0,122.0,84.0,-62.0
124.0,122.0,130.0,124.0,125.0,129.0,123.0,127.0,20.0,-114.0,-77.0,127.0,126.0,127.0,122.0,84.0,-62.0
125.0,122.0,129.0,124.0,125.0,128.0,124.0,127.0,21.0,-114.0,-76.0,127.0,126.0,127.0,121.0,84.0,-62.0
125.0,122.0,129.0,124.0,125.0,127.0,124.0,127.0,21.0,-114.0,-76.0,127.0,126.0,127.0,121.0,84.0,-62.0
125.0,123.0,129.0,124.0,125.0,127.0,124.0,127.0,21.0,-114.0,-76.0,127.0,126.0,127.0,121.0,84.0,-62.0
124.0,122.0,130.0,124.0,125.0,128.0,123.0,127.0,21.0,-114.0,-76.0,127.0,126.0,127.0,121.0,84.0,-62.0
124.0,122.0,130.0,124.0,125.0,128.0,123.0,127.0,21.0,-114.0,-76.0,127.0,126.0,127.0,121.0,84.0,-62.0
125.0,122.0,130.0,124.0,125.0,128.0,124.0,127.0,21.0,-114.0,-76.0,127.0,126.0,127.0,121.0,84.0,-62.0
125.0,122.0,130.0,124.0,125.0,127.0,124.0,127.0,21.0,-114.0,-76.0,127.0,126.0,127.0,121.0,84.0,-62.0
125.0,122.0,130.0,124.0,125.0,127.0,124.0,127.0,21.0,-114.0,-76.0,127.0,126.0,127.0,121.0,84.0,-62.0
125.0,122.0,130.0,124.0,125.0,127.0,124.0,127.0,21.0,-114.0,-76.0,127.0,126.0,127.0,121.0,84.0,-62.0
125.0,122.0,129.0,124.0,125.0,128.0,124.0,127.0,21.0,-114.0,-76.0,127.0,126.0,127.0,121.0,84.0,-62.0
125.0,122.0,129.0,124.0,124.0,127.0,124.0,127.0,20.0,-113.0,-75.0,127.0,126.0,127.0,121.0,84.0,-62.0
125.0,122.0,129.0,124.0,124.0,127.0,124.0,127.0,20.0,-113.0,-75.0,127.0,126.0,127.0,121.0,84.0,-62.0
125.0,122.0,130.0,124.0,124.0,127.0,124.0,127.0,20.0,-113.0,-75.0,127.0,126.0,127.0,121.0,84.0,-62.0
125.0,122.0,130.0,124.0,124.0,127.0,124.0,127.0,20.0,-113.0,-75.0,127.0,126.0,127.0,121.0,84.0,-62.0
125.0,122.0,130.0,124.0,124.0,127.0,124.0,127.0,20.0,-113.0,-75.0,127.0,126.0,127.0,121.0,84.0,-62.0
125.0,121.0,130.0,124.0,124.0,127.0,124.0,127.0,20.0,-113.0,-75.0,127.0,126.0,127.0,121.0,84.0,-62.0
125.0,121.0,130.0,124.0,124.0,127.0,124.0,127.0,20.0,-113.0,-75.0,127.0,126.0,127.0,121.0,84.0,-62.0
125.0,121.0,130.0,124.0,124.0,127.0,124.0,127.0,20.0,-113.0,-75.0,127.0,126.0,127.0,121.0,84.0,-62.0
125.0,122.0,130.0,124.0,124.0,127.0,124.0,127.0,20.0,-113.0,-75.0,127.0,126.0,127.0,121.0,84.0,-62.0
125.0,122.0,129.0,124.0,124.0,127.0,124.0,127.0,20.0,-113.0,-75.0,127.0,126.0,127.0,121.0,84.0,-62.0
125.0,123.0,128.0,125.0,126.0,128.0,125.0,127.0,19.0,-113.0,-75.0,127.0,126.0,127.0,121.0,84.0,-62.0
124.0,122.0,129.0,124.0,126.0,128.0,124.0,127.0,19.0,-113.0,-75.0,127.0,126.0,127.0,121.0,84.0,-62.0
125.0,122.0,129.0,125.0,126.0,128.0,125.0,127.0,19.0,-113.0,-75.0,127.0,126.0,127.0,121.0,84.0,-62.0
125.0,122.0,129.0,125.0,126.0,128.0,125.0,127.0,19.0,-113.0,-75.0,127.0,126.0,127.0,121.0,84.0,-62.0
125.0,122.0,129.0,125.0,126.0,128.0,125.0,127.0,19.0,-113.0,-75.0,127.0,126.0,127.0,121.0,84.0,-62.0
125.0,122.0,129.0,125.0,126.0,128.0,125.0,127.0,19.0,-113.0,-75.0,127.0,126.0,127.0,121.0,84.0,-62.0
125.0,123.0,129.0,125.0,126.0,127.0,125.0,127.0,19.0,-113.0,-75.0,127.0,126.0,127.0,121.0,84.0,-62.0
125.0,123.0,128.0,125.0,126.0,128.0,125.0,127.0,19.0,-113.0,-75.0,127.0,126.0,127.0,121.0,84.0,-62.0
125.0,123.0,128.0,125.0,126.0,128.0,125.0,127.0,19.0,-113.0,-75.0,127.0,126.0,127.0,121.0,84.0,-62.0
125.0,123.0,128.0,125.0,126.0,128.0,125.0,127.0,19.0,-113.0,-75.0,127.0,126.0,127.0,121.0,84.0,-62.0
125.0,123.0,127.0,126.0,125.0,127.0,126.0,127.0,18.0,-112.0,-74.0,127.0,126.0,127.0,120.0,84.0,-62.0
125.0,124.0,127.0,126.0,125.0,127.0,126.0,127.0,18.0,-112.0,-74.0,127.0,126.0,127.0,120.0,84.0,-62.0
125.0,124.0,127.0,126.0,125.0,127.0,126.0,127.0,18.0,-112.0,-74.0,127.0,126.0,127.0,120.0,84.0,-62.0
125.0,124.0,127.0,126.0,126.0,127.0,126.0,127.0,18.0,-112.0,-74.0,127.0,126.0,127.0,120.0,84.0,-62.0
125.0,124.0,127.0,126.0,125.0,127.0,126.0,127.0,18.0,-112.0,-74.0,127.0,126.0,127.0,120.0,84.0,-62.0
125.0,124.0,127.0,126.0,126.0,127.0,126.0,127.0,18.0,-112.0,-74.0,127.0,126.0,127.0,120.0,84.0,-62.0
125.0,124.0,126.0,126.0,126.0,127.0,126.0,127.0,18.0,-112.0,-74.0,127.0,126.0,127.0,120.0,84.0,-62.0
125.0,124.0,126.0,126.0,126.0,126.0,126.0,127.0,18.0,-112.0,-74.0,127.0,126.0,127.0,120.0,84.0,-62.0
125.0,124.0,126.0,126.0,126.0,126.0,126.0,127.0,18.0,-112.0,-74.0,127.0,126.0,127.0,120.0,84.0,-62.0
125.0,124.0,126.0,126.0,126.0,126.0,126.0,127.0,18.0,-112.0,-74.0,127.0,126.0,127.0,120.0,84.0,-62.0
125.0,125.0,126.0,127.0,127.0,128.0,126.0,127.0,17.0,-110.0,-74.0,127.0,126.0,127.0,120.0,84.0,-62.0
125.0,125.0,126.0,127.0,127.0,128.0,126.0,127.0,17.0,-110.0,-74.0,127.0,126.0,127.0,120.0,84.0,-62.0
125.0,125.0,126.0,127.0,127.0,128.0,126.0,127.0,17.0,-110.0,-74.0,127.0,126.0,127.0,120.0,84.0,-62.0
125.0,125.0,126.0,127.0,127.0,127.0,126.0,127.0,17.0,-110.0,-74.0,127.0,126.0,127.0,120.0,84.0,-62.0
125.0,125.0,126.0,127.0,127.0,127.0,126.0,127.0,17.0,-110.0,-74.0,127.0,126.0,127.0,120.0,84.0,-62.0
125.0,125.0,126.0,127.0,127.0,128.0,126.0,127.0,17.0,-110.0,-74.0,127.0,126.0,127.0,120.0,84.0,-62.0
125.0,125.0,126.0,127.0,127.0,128.0,126.0,127.0,17.0,-110.0,-74.0,127.0,126.0,127.0,120.0,84.0,-62.0
125.0,126.0,126.0,127.0,127.0,128.0,126.0,127.0,17.0,-110.0,-74.0,127.0,126.0,127.0,120.0,84.0,-62.0
125.0,125.0,126.0,127.0,127.0,128.0,126.0,127.0,17.0,-110.0,-74.0,127.0,126.0,127.0,120.0,84.0,-62.0
125.0,124.0,126.0,126.0,127.0,127.0,126.0,127.0,17.0,-110.0,-74.0,127.0,126.0,127.0,120.0,84.0,-62.0
125.0,124.0,126.0,128.0,128.0,128.0,125.0,126.0,16.0,-109.0,-75.0,127.0,126.0,127.0,120.0,84.0,-62.0
125.0,124.0,126.0,128.0,128.0,128.0,126.0,127.0,16.0,-109.0,-75.0,127.0,126.0,127.0,120.0,84.0,-62.0
125.0,124.0,126.0,128.0,128.0,127.0,126.0,126.0,16.0,-109.0,-75.0,127.0,126.0,127.0,120.0,84.0,-62.0
125.0,124.0,126.0,128.0,128.0,127.0,126.0,127.0,16.0,-109.0,-75.0,127.0,126.0,127.0,120.0,84.0,-62.0
125.0,124.0,126.0,128.0,128.0,127.0,126.0,127.0,16.0,-109.0,-75.0,127.0,126.0,127.0,120.0,84.0,-62.0
125.0,124.0,126.0,128.0,128.0,127.0,126.0,127.0,16.0,-109.0,-75.0,127.0,126.0,127.0,120.0,84.0,-62.0
125.0,124.0,126.0,128.0,128.0,127.0,126.0,127.0,16.0,-109.0,-75.0,127.0,126.0,127.0,120.0,84.0,-62.0
125.0,124.0,126.0,128.0,128.0,127.0,126.0,127.0,16.0,-109.0,-75.0,127.0,126.0,127.0,120.0,84.0,-62.0
125.0,124.0,126.0,128.0,128.0,128.0,125.0,127.0,16.0,-109.0,-75.0,127.0,126.0,127.0,120.0,84.0,-62.0
125.0,124.0,126.0,128.0,128.0,128.0,125.0,126.0,16.0,-109.0,-75.0,127.0,126.0,127.0,120.0,84.0,-62.0
124.0,127.0,126.0,128.0,130.0,127.0,127.0,127.0,16.0,-108.0,-75.0,127.0,126.0,127.0,119.0,84.0,-62.0
124.0,127.0,126.0,128.0,130.0,127.0,127.0,127.0,16.0,-108.0,-75.0,127.0,126.0,127.0,119.0,84.0,-62.0
124.0,127.0,126.0,128.0,130.0,127.0,127.0,127.0,16.0,-108.0,-75.0,127.0,126.0,127.0,119.0,84.0,-62.0
124.0,127.0,126.0,128.0,130.0,127.0,128.0,127.0,16.0,-108.0,-75.0,127.0,126.0,127.0,119.0,84.0,-62.0
124.0,127.0,126.0,128.0,130.0,127.0,128.0,127.0,16.0,-108.0,-75.0,127.0,126.0,127.0,119.0,84.0,-62.0
124.0,127.0,126.0,128.0,130.0,127.0,128.0,127.0,16.0,-108.0,-75.0,127.0,126.0,127.0,119.0,84.0,-62.0
124.0,127.0,126.0,128.0,130.0,127.0,128.0,127.0,16.0,-108.0,-75.0,127.0,126.0,127.0,119.0,84.0,-62.0
124.0,127.0,126.0,128.0,129.0,128.0,127.0,127.0,16.0,-108.0,-75.0,127.0,126.0,127.0,119.0,84.0,-62.0
124.0,127.0,126.0,128.0,129.0,127.0,127.0,127.0,16.0,-108.0,-75.0,127.0,126.0,127.0,119.0,84.0,-62.0
124.0,127.0,126.0,128.0,130.0,127.0,127.0,127.0,16.0,-108.0,-75.0,127.0,126.0,127.0,119.0,84.0,-62.0
123.0,127.0,123.0,128.0,130.0,126.0,128.0,127.0,18.0,-107.0,-76.0,127.0,126.0,127.0,118.0,84.0,-62.0
123.0,127.0,123.0,128.0,130.0,126.0,128.0,127.0,18.0,-107.0,-76.0,127.0,126.0,127.0,118.0,84.0,-62.0
123.0,128.0,123.0,128.0,130.0,126.0,128.0,127.0,18.0,-107.0,-76.0,127.0,126.0,127.0,118.0,84.0,-62.0
123.0,128.0,123.0,128.0,130.0,127.0,128.0,127.0,18.0,-107.0,-76.0,127.0,126.0,127.0,118.0,84.0,-62.0
123.0,128.0,123.0,128.0,130.0,127.0,128.0,127.0,18.0,-107.0,-76.0,127.0,126.0,127.0,118.0,84.0,-62.0
123.0,128.0,123.0,128.0,130.0,126.0,128.0,127.0,18.0,-107.0,-76.0,127.0,126.0,127.0,118.0,84.0,-62.0
123.0,127.0,124.0,128.0,130.0,126.0,128.0,127.0,18.0,-107.0,-76.0,127.0,126.0,127.0,118.0,84.0,-62.0
123.0,127.0,123.0,128.0,130.0,127.0,128.0,127.0,18.0,-107.0,-76.0,127.0,126.0,127.0,118.0,84.0,-62.0
123.0,127.0,123.0,128.0,130.0,127.0,128.0,127.0,18.0,-107.0,-76.0,127.0,126.0,127.0,118.0,84.0,-62.0
123.0,127.0,123.0,128.0,130.0,126.0,128.0,127.0,18.0,-107.0,-76.0,127.0,126.0,127.0,118.0,84.0,-62.0
124.0,127.0,125.0,127.0,129.0,127.0,127.0,127.0,20.0,-106.0,-76.0,127.0,126.0,127.0,118.0,84.0,-62.0
124.0,127.0,125.0,127.0,129.0,127.0,127.0,127.0,20.0,-106.0,-76.0,127.0,126.0,127.0,118.0,84.0,-62.0
124.0,128.0,125.0,127.0,129.0,127.0,126.0,127.0,20.0,-106.0,-76.0,127.0,126.0,127.0,118.0,84.0,-62.0
124.0,128.0,125.0,127.0,129.0,127.0,126.0,127.0,20.0,-106.0,-76.0,127.0,126.0,127.0,118.0,84.0,-62.0
124.0,128.0,125.0,127.0,128.0,127.0,127.0,127.0,20.0,-106.0,-76.0,127.0,126.0,127.0,118.0,84.0,-62.0
123.0,127.0,125.0,127.0,129.0,126.0,126.0,127.0,20.0,-106.0,-76.0,127.0,126.0,127.0,118.0,84.0,-62.0
123.0,127.0,125.0,127.0,129.0,127.0,126.0,127.0,20.0,-106.0,-76.0,127.0,126.0,127.0,118.0,84.0,-62.0
124.0,127.0,125.0,127.0,129.0,127.0,126.0,127.0,20.0,-106.0,-76.0,127.0,126.0,127.0,118.0,84.0,-62.0
123.0,127.0,125.0,127.0,129.0,127.0,126.0,127.0,20.0,-106.0,-76.0,127.0,126.0,127.0,118.0,84.0,-62.0
123.0,127.0,125.0,127.0,129.0,127.0,127.0,127.0,20.0,-106.0,-76.0,127.0,126.0,127.0,118.0,84.0,-62.0
124.0,127.0,127.0,127.0,128.0,127.0,126.0,127.0,22.0,-106.0,-76.0,127.0,126.0,127.0,118.0,84.0,-62.0
124.0,127.0,127.0,127.0,128.0,127.0,125.0,127.0,22.0,-106.0,-76.0,127.0,126.0,127.0,118.0,84.0,-62.0
124.0,127.0,127.0,127.0,128.0,127.0,125.0,127.0,22.0,-106.0,-76.0,127.0,126.0,127.0,118.0,84.0,-62.0
124.0,127.0,127.0,127.0,128.0,127.0,126.0,127.0,22.0,-106.0,-76.0,127.0,126.0,127.0,118.0,84.0,-62.0
124.0,126.0,128.0,127.0,128.0,127.0,125.0,127.0,22.0,-106.0,-76.0,127.0,126.0,127.0,118.0,84.0,-62.0
124.0,126.0,127.0,127.0,128.0,127.0,125.0,127.0,22.0,-106.0,-76.0,127.0,126.0,127.0,118.0,84.0,-62.0
124.0,126.0,127.0,127.0,128.0,127.0,125.0,127.0,22.0,-106.0,-76.0,127.0,126.0,127.0,118.0,84.0,-62.0
124.0,126.0,127.0,127.0,128.0,127.0,125.0,127.0,22.0,-106.0,-76.0,127.0,126.0,127.0,118.0,84.0,-62.0
124.0,126.0,127.0,127.0,128.0,127.0,126.0,127.0,22.0,-106.0,-76.0,127.0,126.0,127.0,118.0,84.0,-62.0
124.0,127.0,127.0,127.0,128.0,127.0,126.0,127.0,22.0,-106.0,-76.0,127.0,126.0,127.0,118.0,84.0,-62.0
124.0,127.0,126.0,125.0,127.0,120.0,126.0,127.0,23.0,-106.0,-75.0,127.0,126.0,127.0,117.0,84.0,-62.0
124.0,127.0,126.0,125.0,127.0,120.0,126.0,127.0,23.0,-106.0,-75.0,127.0,126.0,127.0,117.0,84.0,-62.0
124.0,127.0,126.0,125.0,127.0,120.0,126.0,127.0,23.0,-106.0,-75.0,127.0,126.0,127.0,117.0,84.0,-62.0
124.0,126.0,127.0,125.0,127.0,121.0,126.0,127.0,23.0,-106.0,-75.0,127.0,126.0,127.0,117.0,84.0,-62.0
124.0,126.0,126.0,125.0,127.0,121.0,126.0,127.0,23.0,-106.0,-75.0,127.0,126.0,127.0,117.0,84.0,-62.0
124.0,126.0,126.0,125.0,127.0,121.0,126.0,127.0,23.0,-106.0,-75.0,127.0,126.0,127.0,117.0,84.0,-62.0
124.0,126.0,126.0,125.0,127.0,121.0,126.0,127.0,23.0,-106.0,-75.0,127.0,126.0,127.0,117.0,84.0,-62.0
124.0,126.0,126.0,125.0,127.0,120.0,126.0,127.0,23.0,-106.0,-75.0,127.0,126.0,127.0,117.0,84.0,-62.0
124.0,126.0,126.0,125.0,127.0,120.0,126.0,127.0,23.0,-106.0,-75.0,127.0,126.0,127.0,117.0,84.0,-62.0
124.0,126.0,126.0,125.0,127.0,120.0,126.0,127.0,23.0,-106.0,-75.0,127.0,126.0,127.0,117.0,84.0,-62.0
125.0,126.0,127.0,124.0,125.0,121.0,126.0,127.0,25.0,-106.0,-74.0,127.0,126.0,127.0,117.0,84.0,-62.0
125.0,126.0,127.0,124.0,125.0,121.0,127.0,127.0,25.0,-106.0,-74.0,127.0,126.0,127.0,117.0,84.0,-62.0
125.0,125.0,127.0,124.0,126.0,119.0,127.0,127.0,25.0,-106.0,-74.0,127.0,126.0,127.0,117.0,84.0,-62.0
125.0,125.0,127.0,124.0,126.0,120.0,126.0,127.0,25.0,-106.0,-74.0,127.0,126.0,127.0,117.0,84.0,-62.0
125.0,125.0,127.0,124.0,126.0,120.0,126.0,127.0,25.0,-106.0,-74.0,127.0,126.0,127.0,117.0,84.0,-62.0
125.0,125.0,127.0,124.0,126.0,120.0,126.0,127.0,25.0,-106.0,-74.0,127.0,126.0,127.0,117.0,84.0,-62.0
125.0,125.0,127.0,124.0,125.0,120.0,127.0,127.0,25.0,-106.0,-74.0,127.0,126.0,127.0,117.0,84.0,-62.0
125.0,125.0,127.0,124.0,125.0,120.0,127.0,127.0,25.0,-106.0,-74.0,127.0,126.0,127.0,117.0,84.0,-62.0
125.0,125.0,127.0,124.0,125.0,120.0,127.0,127.0,25.0,-106.0,-74.0,127.0,126.0,127.0,117.0,84.0,-62.0
125.0,126.0,127.0,124.0,125.0,120.0,126.0,127.0,25.0,-106.0,-74.0,127.0,126.0,127.0,117.0,84.0,-62.0
125.0,125.0,129.0,124.0,124.0,122.0,125.0,127.0,27.0,-106.0,-73.0,127.0,127.0,127.0,117.0,84.0,-62.0
125.0,124.0,130.0,123.0,124.0,120.0,125.0,127.0,27.0,-106.0,-73.0,127.0,127.0,127.0,117.0,84.0,-62.0
125.0,124.0,129.0,123.0,124.0,121.0,125.0,127.0,27.0,-106.0,-73.0,127.0,127.0,127.0,117.0,84.0,-62.0
125.0,125.0,129.0,123.0,124.0,121.0,125.0,127.0,27.0,-106.0,-73.0,127.0,127.0,127.0,117.0,84.0,-62.0
125.0,125.0,129.0,124.0,124.0,121.0,125.0,127.0,27.0,-106.0,-73.0,127.0,127.0,127.0,117.0,84.0,-62.0
125.0,125.0,129.0,124.0,124.0,121.0,125.0,127.0,27.0,-106.0,-73.0,127.0,127.0,127.0,117.0,84.0,-62.0
125.0,124.0,129.0,124.0,124.0,121.0,125.0,127.0,27.0,-106.0,-73.0,127.0,127.0,127.0,117.0,84.0,-62.0
125.0,125.0,129.0,124.0,124.0,121.0,125.0,127.0,27.0,-106.0,-73.0,127.0,127.0,127.0,117.0,84.0,-62.0
125.0,125.0,129.0,124.0,124.0,121.0,125.0,127.0,27.0,-106.0,-73.0,127.0,127.0,127.0,117.0,84.0,-62.0
125.0,125.0,129.0,124.0,124.0,122.0,125.0,127.0,27.0,-106.0,-73.0,127.0,127.0,127.0,117.0,84.0,-62.0
126.0,124.0,129.0,124.0,124.0,122.0,125.0,127.0,28.0,-106.0,-71.0,127.0,127.0,127.0,117.0,84.0,-61.0
125.0,124.0,128.0,124.0,124.0,122.0,125.0,127.0,28.0,-106.0,-71.0,127.0,127.0,127.0,117.0,84.0,-61.0
126.0,125.0,128.0,124.0,124.0,122.0,125.0,127.0,28.0,-106.0,-71.0,127.0,127.0,127.0,117.0,84.0,-61.0
126.0,125.0,128.0,125.0,124.0,122.0,125.0,127.0,28.0,-106.0,-71.0,127.0,127.0,127.0,117.0,84.0,-61.0
126.0,125.0,128.0,125.0,124.0,122.0,125.0,127.0,28.0,-106.0,-71.0,127.0,127.0,127.0,117.0,84.0,-61.0
126.0,125.0,128.0,125.0,124.0,122.0,126.0,127.0,28.0,-106.0,-71.0,127.0,127.0,127.0,117.0,84.0,-61.0
126.0,125.0,128.0,125.0,124.0,122.0,126.0,127.0,28.0,-106.0,-71.0,127.0,127.0,127.0,117.0,84.0,-61.0
126.0,125.0,128.0,125.0,124.0,122.0,126.0,127.0,28.0,-106.0,-71.0,127.0,127.0,127.0,117.0,84.0,-61.0
126.0,125.0,128.0,125.0,125.0,123.0,126.0,127.0,28.0,-106.0,-71.0,127.0,127.0,127.0,117.0,84.0,-61.0
126.0,125.0,127.0,125.0,125.0,122.0,126.0,127.0,28.0,-106.0,-71.0,127.0,127.0,127.0,117.0,84.0,-61.0
125.0,124.0,128.0,125.0,125.0,121.0,126.0,127.0,29.0,-106.0,-70.0,127.0,127.0,127.0,117.0,84.0,-61.0
126.0,125.0,128.0,125.0,125.0,121.0,126.0,128.0,29.0,-106.0,-70.0,127.0,127.0,127.0,117.0,84.0,-61.0
126.0,125.0,128.0,125.0,125.0,121.0,126.0,128.0,29.0,-106.0,-70.0,127.0,127.0,127.0,117.0,84.0,-61.0
126.0,125.0,128.0,125.0,125.0,121.0,126.0,128.0,29.0,-106.0,-70.0,127.0,127.0,127.0,117.0,84.0,-61.0
126.0,125.0,128.0,125.0,125.0,121.0,126.0,128.0,29.0,-106.0,-70.0,127.0,127.0,127.0,117.0,84.0,-61.0
126.0,125.0,128.0,125.0,125.0,121.0,126.0,128.0,29.0,-106.0,-70.0,127.0,127.0,127.0,117.0,84.0,-61.0
126.0,125.0,128.0,125.0,125.0,121.0,127.0,128.0,29.0,-106.0,-70.0,127.0,127.0,127.0,117.0,84.0,-61.0
126.0,125.0,128.0,125.0,125.0,122.0,126.0,128.0,29.0,-106.0,-70.0,127.0,127.0,127.0,117.0,84.0,-61.0
126.0,126.0,128.0,125.0,125.0,122.0,126.0,128.0,29.0,-106.0,-70.0,127.0,127.0,127.0,117.0,84.0,-61.0
125.0,124.0,129.0,125.0,125.0,120.0,126.0,127.0,29.0,-106.0,-70.0,127.0,127.0,127.0,117.0,84.0,-61.0
125.0,124.0,128.0,126.0,125.0,122.0,125.0,127.0,30.0,-106.0,-69.0,127.0,127.0,127.0,116.0,84.0,-61.0
125.0,124.0,128.0,126.0,125.0,122.0,125.0,127.0,30.0,-106.0,-69.0,127.0,127.0,127.0,116.0,84.0,-61.0
125.0,124.0,128.0,126.0,125.0,122.0,125.0,127.0,30.0,-106.0,-69.0,127.0,127.0,127.0,116.0,84.0,-61.0
125.0,124.0,128.0,126.0,125.0,122.0,126.0,127.0,30.0,-106.0,-69.0,127.0,127.0,127.0,116.0,84.0,-61.0
125.0,124.0,128.0,126.0,125.0,122.0,125.0,127.0,30.0,-106.0,-69.0,127.0,127.0,127.0,116.0,84.0,-61.0
125.0,124.0,128.0,126.0,125.0,122.0,126.0,127.0,30.0,-106.0,-69.0,127.0,127.0,127.0,116.0,84.0,-61.0
125.0,124.0,128.0,126.0,126.0,121.0,126.0,127.0,30.0,-106.0,-69.0,127.0,127.0,127.0,116.0,84.0,-61.0
125.0,124.0,128.0,126.0,126.0,121.0,126.0,127.0,30.0,-106.0,-69.0,127.0,127.0,127.0,116.0,84.0,-61.0
125.0,124.0,128.0,126.0,125.0,122.0,125.0,127.0,30.0,-106.0,-69.0,127.0,127.0,127.0,116.0,84.0,-61.0
125.0,124.0,128.0,126.0,125.0,122.0,126.0,127.0,30.0,-106.0,-69.0,127.0,127.0,127.0,116.0,84.0,-61.0
125.0,125.0,127.0,126.0,126.0,122.0,126.0,128.0,31.0,-105.0,-69.0,127.0,127.0,127.0,116.0,84.0,-61.0
125.0,125.0,127.0,126.0,126.0,122.0,126.0,128.0,31.0,-105.0,-69.0,127.0,127.0,127.0,116.0,84.0,-61.0
125.0,126.0,127.0,126.0,126.0,122.0,126.0,127.0,31.0,-105.0,-69.0,127.0,127.0,127.0,116.0,84.0,-61.0
125.0,126.0,127.0,126.0,126.0,122.0,126.0,127.0,31.0,-105.0,-69.0,127.0,127.0,127.0,116.0,84.0,-61.0
125.0,126.0,126.0,126.0,126.0,122.0,126.0,128.0,31.0,-105.0,-69.0,127.0,127.0,127.0,116.0,84.0,-61.0
125.0,126.0,126.0,126.0,126.0,122.0,126.0,128.0,31.0,-105.0,-69.0,127.0,127.0,127.0,116.0,84.0,-61.0
125.0,126.0,126.0,126.0,126.0,122.0,126.0,128.0,31.0,-105.0,-69.0,127.0,127.0,127.0,116.0,84.0,-61.0
125.0,125.0,127.0,126.0,126.0,122.0,126.0,128.0,31.0,-105.0,-69.0,127.0,127.0,127.0,116.0,84.0,-61.0
125.0,125.0,127.0,126.0,126.0,122.0,126.0,128.0,31.0,-105.0,-69.0,127.0,127.0,127.0,116.0,84.0,-61.0
125.0,125.0,127.0,126.0,126.0,122.0,126.0,127.0,31.0,-105.0,-69.0,127.0,127.0,127.0,116.0,84.0,-61.0
125.0,127.0,125.0,127.0,127.0,120.0,128.0,127.0,31.0,-105.0,-70.0,127.0,127.0,127.0,116.0,84.0,-61.0
125.0,128.0,125.0,127.0,127.0,121.0,127.0,127.0,31.0,-105.0,-70.0,127.0,127.0,127.0,116.0,84.0,-61.0
125.0,128.0,125.0,127.0,127.0,121.0,127.0,127.0,31.0,-105.0,-70.0,127.0,127.0,127.0,116.0,84.0,-61.0
125.0,128.0,125.0,127.0,127.0,121.0,128.0,127.0,31.0,-105.0,-70.0,127.0,127.0,127.0,116.0,84.0,-61.0
125.0,128.0,125.0,127.0,127.0,121.0,128.0,127.0,31.0,-105.0,-70.0,127.0,127.0,127.0,116.0,84.0,-61.0
125.0,127.0,125.0,127.0,127.0,120.0,128.0,127.0,31.0,-105.0,-70.0,127.0,127.0,127.0,116.0,84.0,-61.0
125.0,127.0,125.0,127.0,127.0,121.0,127.0,127.0,31.0,-105.0,-70.0,127.0,127.0,127.0,116.0,84.0,-61.0
125.0,127.0,125.0,127.0,127.0,120.0,127.0,127.0,31.0,-105.0,-70.0,127.0,127.0,127.0,116.0,84.0,-61.0
125.0,127.0,125.0,127.0,127.0,120.0,127.0,127.0,31.0,-105.0,-70.0,127.0,127.0,127.0,116.0,84.0,-61.0
125.0,127.0,125.0,127.0,127.0,120.0,127.0,127.0,31.0,-105.0,-70.0,127.0,127.0,127.0,116.0,84.0,-61.0
124.0,129.0,125.0,127.0,127.0,121.0,128.0,127.0,32.0,-104.0,-70.0,127.0,127.0,127.0,116.0,84.0,-61.0
124.0,129.0,125.0,127.0,127.0,121.0,128.0,127.0,32.0,-104.0,-70.0,127.0,127.0,127.0,116.0,84.0,-61.0
124.0,129.0,125.0,127.0,127.0,121.0,128.0,127.0,32.0,-104.0,-70.0,127.0,127.0,127.0,116.0,84.0,-61.0
124.0,129.0,125.0,127.0,127.0,121.0,128.0,127.0,32.0,-104.0,-70.0,127.0,127.0,127.0,116.0,84.0,-61.0
124.0,129.0,125.0,127.0,127.0,121.0,128.0,127.0,32.0,-104.0,-70.0,127.0,127.0,127.0,116.0,84.0,-61.0
124.0,129.0,125.0,127.0,127.0,121.0,128.0,127.0,32.0,-104.0,-70.0,127.0,127.0,127.0,116.0,84.0,-61.0
124.0,129.0,125.0,127.0,127.0,121.0,128.0,127.0,32.0,-104.0,-70.0,127.0,127.0,127.0,116.0,84.0,-61.0
124.0,128.0,125.0,127.0,127.0,121.0,128.0,127.0,32.0,-104.0,-70.0,127.0,127.0,127.0,116.0,84.0,-61.0
124.0,128.0,125.0,127.0,127.0,120.0,128.0,127.0,32.0,-104.0,-70.0,127.0,127.0,127.0,116.0,84.0,-61.0
124.0,129.0,125.0,127.0,127.0,120.0,128.0,127.0,32.0,-104.0,-70.0,127.0,127.0,127.0,116.0,84.0,-61.0
125.0,128.0,126.0,127.0,127.0,121.0,127.0,127.0,33.0,-104.0,-70.0,127.0,127.0,127.0,116.0,84.0,-61.0
125.0,128.0,126.0,127.0,127.0,121.0,127.0,127.0,33.0,-104.0,-70.0,127.0,127.0,127.0,116.0,84.0,-61.0
124.0,128.0,126.0,127.0,127.0,121.0,127.0,127.0,33.0,-104.0,-70.0,127.0,127.0,127.0,116.0,84.0,-61.0
124.0,128.0,127.0,127.0,127.0,121.0,127.0,127.0,33.0,-104.0,-70.0,127.0,127.0,127.0,116.0,84.0,-61.0
124.0,128.0,127.0,127.0,127.0,121.0,127.0,127.0,33.0,-104.0,-70.0,127.0,127.0,127.0,116.0,84.0,-61.0
124.0,128.0,127.0,127.0,127.0,121.0,127.0,127.0,33.0,-104.0,-70.0,127.0,127.0,127.0,116.0,84.0,-61.0
124.0,127.0,127.0,127.0,127.0,121.0,127.0,127.0,33.0,-104.0,-70.0,127.0,127.0,127.0,116.0,84.0,-61.0
124.0,127.0,127.0,126.0,127.0,121.0,127.0,127.0,33.0,-104.0,-70.0,127.0,127.0,127.0,116.0,84.0,-61.0
124.0,127.0,127.0,127.0,127.0,121.0,127.0,127.0,33.0,-104.0,-70.0,127.0,127.0,127.0,116.0,84.0,-61.0
124.0,128.0,127.0,126.0,127.0,121.0,127.0,127.0,33.0,-104.0,-70.0,127.0,127.0,127.0,116.0,84.0,-61.0
125.0,126.0,128.0,126.0,127.0,123.0,126.0,127.0,34.0,-104.0,-70.0,127.0,127.0,127.0,116.0,84.0,-61.0
125.0,126.0,128.0,126.0,127.0,123.0,126.0,127.0,34.0,-104.0,-70.0,127.0,127.0,127.0,116.0,84.0,-61.0
125.0,126.0,128.0,126.0,127.0,122.0,126.0,127.0,34.0,-104.0,-70.0,127.0,127.0,127.0,116.0,84.0,-61.0
125.0,126.0,128.0,126.0,127.0,123.0,126.0,127.0,34.0,-104.0,-70.0,127.0,127.0,127.0,116.0,84.0,-61.0
125.0,126.0,128.0,126.0,127.0,123.0,126.0,127.0,34.0,-104.0,-70.0,127.0,127.0,127.0,116.0,84.0,-61.0
125.0,126.0,128.0,126.0,127.0,123.0,126.0,127.0,34.0,-104.0,-70.0,127.0,127.0,127.0,116.0,84.0,-61.0
125.0,126.0,128.0,126.0,127.0,123.0,126.0,127.0,34.0,-104.0,-70.0,127.0,127.0,127.0,116.0,84.0,-61.0
125.0,126.0,128.0,126.0,127.0,123.0,126.0,127.0,34.0,-104.0,-70.0,127.0,127.0,127.0,116.0,84.0,-61.0
125.0,126.0,128.0,126.0,127.0,123.0,126.0,127.0,34.0,-104.0,-70.0,127.0,127.0,127.0,116.0,84.0,-61.0
125.0,126.0,128.0,126.0,127.0,123.0,126.0,127.0,34.0,-104.0,-70.0,127.0,127.0,127.0,116.0,84.0,-61.0
125.0,125.0,128.0,127.0,127.0,124.0,126.0,128.0,35.0,-104.0,-70.0,127.0,127.0,127.0,115.0,84.0,-60.0
124.0,125.0,129.0,126.0,127.0,123.0,126.0,127.0,35.0,-104.0,-70.0,127.0,127.0,127.0,115.0,84.0,-60.0
125.0,125.0,128.0,126.0,127.0,124.0,126.0,128.0,35.0,-104.0,-70.0,127.0,127.0,127.0,115.0,84.0,-60.0
125.0,125.0,128.0,126.0,127.0,124.0,126.0,128.0,35.0,-104.0,-70.0,127.0,127.0,127.0,115.0,84.0,-60.0
125.0,125.0,128.0,126.0,127.0,124.0,126.0,128.0,35.0,-104.0,-70.0,127.0,127.0,127.0,115.0,84.0,-60.0
125.0,125.0,128.0,126.0,127.0,123.0,126.0,128.0,35.0,-104.0,-70.0,127.0,127.0,127.0,115.0,84.0,-60.0
125.0,125.0,128.0,126.0,127.0,124.0,126.0,128.0,35.0,-104.0,-70.0,127.0,127.0,127.0,115.0,84.0,-60.0
125.0,125.0,128.0,126.0,127.0,124.0,126.0,128.0,35.0,-104.0,-70.0,127.0,127.0,127.0,115.0,84.0,-60.0
125.0,125.0,128.0,126.0,127.0,124.0,126.0,128.0,35.0,-104.0,-70.0,127.0,127.0,127.0,115.0,84.0,-60.0
125.0,126.0,128.0,127.0,127.0,124.0,126.0,128.0,35.0,-104.0,-70.0,127.0,127.0,127.0,115.0,84.0,-60.0
125.0,124.0,128.0,126.0,127.0,123.0,126.0,127.0,35.0,-105.0,-70.0,127.0,127.0,127.0,115.0,84.0,-60.0
125.0,125.0,128.0,126.0,127.0,124.0,126.0,127.0,35.0,-105.0,-70.0,127.0,127.0,127.0,115.0,84.0,-60.0
125.0,125.0,128.0,126.0,127.0,124.0,126.0,128.0,35.0,-105.0,-70.0,127.0,127.0,127.0,115.0,84.0,-60.0
125.0,124.0,128.0,126.0,127.0,123.0,126.0,128.0,35.0,-105.0,-70.0,127.0,127.0,127.0,115.0,84.0,-60.0
125.0,124.0,128.0,126.0,127.0,123.0,126.0,127.0,35.0,-105.0,-70.0,127.0,127.0,127.0,115.0,84.0,-60.0
125.0,124.0,128.0,126.0,127.0,123.0,126.0,127.0,35.0,-105.0,-70.0,127.0,127.0,127.0,115.0,84.0,-60.0
125.0,124.0,128.0,126.0,127.0,123.0,126.0,127.0,35.0,-105.0,-70.0,127.0,127.0,127.0,115.0,84.0,-60.0
125.0,124.0,128.0,126.0,127.0,123.0,126.0,127.0,35.0,-105.0,-70.0,127.0,127.0,127.0,115.0,84.0,-60.0
125.0,124.0,128.0,126.0,127.0,123.0,126.0,127.0,35.0,-105.0,-70.0,127.0,127.0,127.0,115.0,84.0,-60.0
125.0,124.0,128.0,126.0,127.0,123.0,126.0,127.0,35.0,-105.0,-70.0,127.0,127.0,127.0,115.0,84.0,-60.0
125.0,125.0,128.0,126.0,127.0,124.0,125.0,127.0,35.0,-106.0,-69.0,127.0,127.0,127.0,115.0,84.0,-60.0
125.0,125.0,128.0,126.0,127.0,124.0,126.0,127.0,35.0,-106.0,-69.0,127.0,127.0,127.0,115.0,84.0,-60.0
125.0,124.0,128.0,126.0,127.0,123.0,126.0,127.0,35.0,-106.0,-69.0,127.0,127.0,127.0,115.0,84.0,-60.0
125.0,125.0,128.0,126.0,127.0,124.0,125.0,127.0,35.0,-106.0,-69.0,127.0,127.0,127.0,115.0,84.0,-60.0
125.0,125.0,128.0,127.0,127.0,124.0,125.0,127.0,35.0,-106.0,-69.0,127.0,127.0,127.0,115.0,84.0,-60.0
125.0,125.0,128.0,127.0,127.0,124.0,125.0,127.0,35.0,-106.0,-69.0,127.0,127.0,127.0,115.0,84.0,-60.0
125.0,125.0,128.0,127.0,127.0,124.0,126.0,127.0,35.0,-106.0,-69.0,127.0,127.0,127.0,115.0,84.0,-60.0
125.0,125.0,128.0,127.0,127.0,124.0,126.0,127.0,35.0,-106.0,-69.0,127.0,127.0,127.0,115.0,84.0,-60.0
125.0,125.0,128.0,127.0,127.0,124.0,126.0,127.0,35.0,-106.0,-69.0,127.0,127.0,127.0,115.0,84.0,-60.0
125.0,124.0,128.0,126.0,127.0,123.0,126.0,127.0,35.0,-106.0,-69.0,127.0,127.0,127.0,115.0,84.0,-60.0
125.0,124.0,128.0,127.0,127.0,123.0,126.0,127.0,35.0,-106.0,-69.0,127.0,127.0,127.0,115.0,84.0,-60.0
125.0,124.0,128.0,127.0,127.0,123.0,126.0,127.0,35.0,-106.0,-69.0,127.0,127.0,127.0,115.0,84.0,-60.0
125.0,125.0,127.0,127.0,127.0,123.0,126.0,127.0,35.0,-106.0,-69.0,127.0,127.0,127.0,115.0,84.0,-60.0
125.0,125.0,127.0,127.0,127.0,124.0,126.0,127.0,35.0,-106.0,-69.0,127.0,127.0,127.0,115.0,84.0,-60.0
125.0,125.0,127.0,127.0,127.0,123.0,126.0,127.0,35.0,-106.0,-69.0,127.0,127.0,127.0,115.0,84.0,-60.0
125.0,125.0,127.0,127.0,127.0,124.0,126.0,127.0,35.0,-106.0,-69.0,127.0,127.0,127.0,115.0,84.0,-60.0
125.0,125.0,127.0,127.0,128.0,124.0,126.0,128.0,35.0,-106.0,-69.0,127.0,127.0,127.0,115.0,84.0,-60.0
125.0,126.0,127.0,127.0,127.0,124.0,126.0,128.0,35.0,-106.0,-69.0,127.0,127.0,127.0,115.0,84.0,-60.0
125.0,125.0,128.0,127.0,127.0,123.0,126.0,127.0,35.0,-106.0,-69.0,127.0,127.0,127.0,115.0,84.0,-60.0
125.0,124.0,128.0,127.0,127.0,123.0,126.0,127.0,35.0,-106.0,-69.0,127.0,127.0,127.0,115.0,84.0,-60.0
125.0,125.0,127.0,127.0,127.0,122.0,126.0,128.0,35.0,-107.0,-68.0,127.0,127.0,127.0,115.0,84.0,-60.0
125.0,125.0,127.0,127.0,127.0,122.0,126.0,127.0,35.0,-107.0,-68.0,127.0,127.0,127.0,115.0,84.0,-60.0
125.0,125.0,127.0,127.0,127.0,122.0,126.0,127.0,35.0,-107.0,-68.0,127.0,127.0,127.0,115.0,84.0,-60.0
125.0,125.0,127.0,127.0,127.0,122.0,126.0,127.0,35.0,-107.0,-68.0,127.0,127.0,127.0,115.0,84.0,-60.0
125.0,125.0,127.0,127.0,127.0,122.0,126.0,127.0,35.0,-107.0,-68.0,127.0,127.0,127.0,115.0,84.0,-60.0
125.0,126.0,127.0,127.0,127.0,123.0,126.0,128.0,35.0,-107.0,-68.0,127.0,127.0,127.0,115.0,84.0,-60.0
125.0,126.0,127.0,127.0,127.0,123.0,126.0,127.0,35.0,-107.0,-68.0,127.0,127.0,127.0,115.0,84.0,-60.0
125.0,125.0,127.0,126.0,127.0,121.0,126.0,127.0,35.0,-107.0,-68.0,127.0,127.0,127.0,115.0,84.0,-60.0
125.0,125.0,127.0,126.0,127.0,122.0,126.0,127.0,35.0,-107.0,-68.0,127.0,127.0,127.0,115.0,84.0,-60.0
125.0,125.0,127.0,127.0,127.0,122.0,126.0,128.0,35.0,-107.0,-68.0,127.0,127.0,127.0,115.0,84.0,-60.0
125.0,125.0,127.0,127.0,127.0,122.0,126.0,127.0,34.0,-108.0,-68.0,127.0,127.0,127.0,115.0,85.0,-60.0
125.0,125.0,127.0,127.0,127.0,122.0,126.0,127.0,34.0,-108.0,-68.0,127.0,127.0,127.0,115.0,85.0,-60.0
125.0,126.0,127.0,127.0,127.0,122.0,126.0,127.0,34.0,-108.0,-68.0,127.0,127.0,127.0,115.0,85.0,-60.0
125.0,126.0,126.0,127.0,127.0,122.0,126.0,127.0,34.0,-108.0,-68.0,127.0,127.0,127.0,115.0,85.0,-60.0
125.0,126.0,126.0,127.0,127.0,122.0,126.0,127.0,34.0,-108.0,-68.0,127.0,127.0,127.0,115.0,85.0,-60.0
125.0,126.0,126.0,127.0,127.0,122.0,126.0,127.0,34.0,-108.0,-68.0,127.0,127.0,127.0,115.0,85.0,-60.0
125.0,125.0,127.0,127.0,127.0,121.0,126.0,127.0,34.0,-108.0,-68.0,127.0,127.0,127.0,115.0,85.0,-60.0
125.0,125.0,127.0,127.0,127.0,122.0,126.0,127.0,34.0,-108.0,-68.0,127.0,127.0,127.0,115.0,85.0,-60.0
125.0,125.0,127.0,127.0,127.0,123.0,126.0,127.0,34.0,-108.0,-68.0,127.0,127.0,127.0,115.0,85.0,-60.0
125.0,125.0,127.0,127.0,127.0,122.0,126.0,127.0,34.0,-108.0,-68.0,127.0,127.0,127.0,115.0,85.0,-60.0
125.0,125.0,127.0,127.0,127.0,122.0,126.0,127.0,32.0,-108.0,-68.0,127.0,127.0,127.0,115.0,85.0,-60.0
125.0,125.0,127.0,127.0,127.0,122.0,126.0,127.0,32.0,-108.0,-68.0,127.0,127.0,127.0,115.0,85.0,-60.0
125.0,125.0,127.0,127.0,127.0,122.0,126.0,127.0,32.0,-108.0,-68.0,127.0,127.0,127.0,115.0,85.0,-60.0
125.0,126.0,127.0,127.0,127.0,122.0,126.0,127.0,32.0,-108.0,-68.0,127.0,127.0,127.0,115.0,85.0,-60.0
125.0,126.0,127.0,127.0,127.0,122.0,126.0,127.0,32.0,-108.0,-68.0,127.0,127.0,127.0,115.0,85.0,-60.0
125.0,125.0,127.0,127.0,127.0,121.0,127.0,127.0,32.0,-108.0,-68.0,127.0,127.0,127.0,115.0,85.0,-60.0
125.0,125.0,127.0,127.0,127.0,121.0,126.0,127.0,32.0,-108.0,-68.0,127.0,127.0,127.0,115.0,85.0,-60.0
125.0,126.0,127.0,127.0,127.0,122.0,126.0,127.0,32.0,-108.0,-68.0,127.0,127.0,127.0,115.0,85.0,-60.0
125.0,125.0,127.0,127.0,127.0,122.0,126.0,127.0,32.0,-108.0,-68.0,127.0,127.0,127.0,115.0,85.0,-60.0
125.0,125.0,127.0,127.0,127.0,122.0,126.0,127.0,32.0,-108.0,-68.0,127.0,127.0,127.0,115.0,85.0,-60.0
125.0,125.0,128.0,126.0,126.0,123.0,126.0,127.0,31.0,-108.0,-69.0,127.0,127.0,127.0,115.0,85.0,-60.0
125.0,125.0,128.0,126.0,126.0,123.0,126.0,127.0,31.0,-108.0,-69.0,127.0,127.0,127.0,115.0,85.0,-60.0
125.0,125.0,128.0,126.0,126.0,124.0,126.0,127.0,31.0,-108.0,-69.0,127.0,127.0,127.0,115.0,85.0,-60.0
125.0,125.0,128.0,126.0,126.0,124.0,126.0,127.0,31.0,-108.0,-69.0,127.0,127.0,127.0,115.0,85.0,-60.0
124.0,124.0,128.0,126.0,126.0,122.0,126.0,127.0,31.0,-108.0,-69.0,127.0,127.0,127.0,115.0,85.0,-60.0
124.0,125.0,128.0,126.0,126.0,122.0,126.0,127.0,31.0,-108.0,-69.0,127.0,127.0,127.0,115.0,85.0,-60.0
125.0,125.0,128.0,126.0,126.0,123.0,126.0,127.0,31.0,-108.0,-69.0,127.0,127.0,127.0,115.0,85.0,-60.0
125.0,125.0,128.0,126.0,126.0,123.0,126.0,127.0,31.0,-108.0,-69.0,127.0,127.0,127.0,115.0,85.0,-60.0
125.0,125.0,128.0,126.0,126.0,123.0,126.0,127.0,31.0,-108.0,-69.0,127.0,127.0,127.0,115.0,85.0,-60.0
125.0,125.0,128.0,126.0,126.0,123.0,126.0,127.0,31.0,-108.0,-69.0,127.0,127.0,127.0,115.0,85.0,-60.0
125.0,124.0,129.0,126.0,126.0,126.0,126.0,127.0,29.0,-107.0,-70.0,127.0,127.0,127.0,115.0,85.0,-60.0
125.0,125.0,128.0,126.0,126.0,127.0,125.0,127.0,29.0,-107.0,-70.0,127.0,127.0,127.0,115.0,85.0,-60.0
125.0,125.0,128.0,126.0,126.0,127.0,125.0,127.0,29.0,-107.0,-70.0,127.0,127.0,127.0,115.0,85.0,-60.0
125.0,124.0,129.0,126.0,126.0,125.0,126.0,127.0,29.0,-107.0,-70.0,127.0,127.0,127.0,115.0,85.0,-60.0
125.0,124.0,129.0,126.0,126.0,125.0,125.0,127.0,29.0,-107.0,-70.0,127.0,127.0,127.0,115.0,85.0,-60.0
125.0,124.0,129.0,126.0,126.0,126.0,125.0,127.0,29.0,-107.0,-70.0,127.0,127.0,127.0,115.0,85.0,-60.0
125.0,124.0,129.0,126.0,126.0,126.0,125.0,127.0,29.0,-107.0,-70.0,127.0,127.0,127.0,115.0,85.0,-60.0
125.0,124.0,129.0,126.0,126.0,126.0,125.0,127.0,29.0,-107.0,-70.0,127.0,127.0,127.0,115.0,85.0,-60.0
125.0,124.0,129.0,126.0,126.0,126.0,125.0,127.0,29.0,-107.0,-70.0,127.0,127.0,127.0,115.0,85.0,-60.0
125.0,124.0,129.0,126.0,126.0,126.0,125.0,127.0,29.0,-107.0,-70.0,127.0,127.0,127.0,115.0,85.0,-60.0
124.0,124.0,128.0,126.0,126.0,128.0,125.0,127.0,28.0,-106.0,-71.0,127.0,127.0,127.0,115.0,85.0,-60.0
124.0,125.0,128.0,126.0,126.0,128.0,126.0,127.0,28.0,-106.0,-71.0,127.0,127.0,127.0,115.0,85.0,-60.0
124.0,124.0,128.0,126.0,126.0,127.0,126.0,127.0,28.0,-106.0,-71.0,127.0,127.0,127.0,115.0,85.0,-60.0
124.0,124.0,128.0,126.0,126.0,127.0,126.0,127.0,28.0,-106.0,-71.0,127.0,127.0,127.0,115.0,85.0,-60.0
124.0,124.0,128.0,126.0,126.0,128.0,125.0,127.0,28.0,-106.0,-71.0,127.0,127.0,127.0,115.0,85.0,-60.0
124.0,124.0,128.0,126.0,126.0,128.0,125.0,127.0,28.0,-106.0,-71.0,127.0,127.0,127.0,115.0,85.0,-60.0
124.0,124.0,128.0,126.0,126.0,128.0,126.0,127.0,28.0,-106.0,-71.0,127.0,127.0,127.0,115.0,85.0,-60.0
124.0,124.0,128.0,126.0,126.0,127.0,126.0,127.0,28.0,-106.0,-71.0,127.0,127.0,127.0,115.0,85.0,-60.0
124.0,124.0,128.0,126.0,126.0,127.0,126.0,127.0,28.0,-106.0,-71.0,127.0,127.0,127.0,115.0,85.0,-60.0
124.0,124.0,128.0,126.0,126.0,127.0,126.0,127.0,28.0,-106.0,-71.0,127.0,127.0,127.0,115.0,85.0,-60.0
124.0,124.0,129.0,126.0,126.0,125.0,126.0,127.0,27.0,-105.0,-73.0,127.0,127.0,127.0,115.0,85.0,-60.0
124.0,124.0,129.0,126.0,126.0,126.0,126.0,127.0,27.0,-105.0,-73.0,127.0,127.0,127.0,115.0,85.0,-60.0
124.0,124.0,129.0,126.0,126.0,125.0,126.0,127.0,27.0,-105.0,-73.0,127.0,127.0,127.0,115.0,85.0,-60.0
124.0,124.0,129.0,126.0,126.0,126.0,126.0,127.0,27.0,-105.0,-73.0,127.0,127.0,127.0,115.0,85.0,-60.0
124.0,124.0,129.0,126.0,126.0,126.0,126.0,127.0,27.0,-105.0,-73.0,127.0,127.0,127.0,115.0,85.0,-60.0
124.0,124.0,129.0,126.0,126.0,126.0,126.0,127.0,27.0,-105.0,-73.0,127.0,127.0,127.0,115.0,85.0,-60.0
124.0,124.0,129.0,126.0,126.0,125.0,126.0,127.0,27.0,-105.0,-73.0,127.0,127.0,127.0,115.0,85.0,-60.0
124.0,124.0,129.0,126.0,126.0,125.0,126.0,127.0,27.0,-105.0,-73.0,127.0,127.0,127.0,115.0,85.0,-60.0
124.0,124.0,129.0,126.0,126.0,125.0,126.0,127.0,27.0,-105.0,-73.0,127.0,127.0,127.0,115.0,85.0,-60.0
124.0,124.0,129.0,126.0,126.0,125.0,126.0,127.0,27.0,-105.0,-73.0,127.0,127.0,127.0,115.0,85.0,-60.0
124.0,125.0,128.0,126.0,126.0,127.0,126.0,127.0,27.0,-105.0,-74.0,127.0,127.0,127.0,114.0,85.0,-60.0
124.0,125.0,128.0,126.0,126.0,127.0,126.0,127.0,27.0,-105.0,-74.0,127.0,127.0,127.0,114.0,85.0,-60.0
124.0,125.0,128.0,126.0,126.0,127.0,126.0,127.0,27.0,-105.0,-74.0,127.0,127.0,127.0,114.0,85.0,-60.0
125.0,125.0,128.0,126.0,126.0,127.0,126.0,127.0,27.0,-105.0,-74.0,127.0,127.0,127.0,114.0,85.0,-60.0
125.0,125.0,128.0,126.0,126.0,127.0,126.0,127.0,27.0,-105.0,-74.0,127.0,127.0,127.0,114.0,85.0,-60.0
124.0,125.0,128.0,126.0,126.0,127.0,125.0,127.0,27.0,-105.0,-74.0,127.0,127.0,127.0,114.0,85.0,-60.0
125.0,125.0,128.0,126.0,126.0,127.0,126.0,127.0,27.0,-105.0,-74.0,127.0,127.0,127.0,114.0,85.0,-60.0
125.0,125.0,128.0,126.0,126.0,127.0,126.0,127.0,27.0,-105.0,-74.0,127.0,127.0,127.0,114.0,85.0,-60.0
125.0,125.0,128.0,126.0,126.0,127.0,126.0,127.0,27.0,-105.0,-74.0,127.0,127.0,127.0,114.0,85.0,-60.0
125.0,125.0,128.0,126.0,126.0,127.0,126.0,127.0,27.0,-105.0,-74.0,127.0,127.0,127.0,114.0,85.0,-60.0
125.0,125.0,127.0,126.0,126.0,127.0,126.0,127.0,26.0,-104.0,-74.0,127.0,127.0,127.0,114.0,85.0,-60.0
125.0,125.0,127.0,126.0,126.0,126.0,127.0,127.0,26.0,-104.0,-74.0,127.0,127.0,127.0,114.0,85.0,-60.0
125.0,125.0,127.0,126.0,126.0,126.0,127.0,127.0,26.0,-104.0,-74.0,127.0,127.0,127.0,114.0,85.0,-60.0
125.0,125.0,127.0,126.0,126.0,126.0,127.0,127.0,26.0,-104.0,-74.0,127.0,127.0,127.0,114.0,85.0,-60.0
125.0,126.0,127.0,126.0,126.0,127.0,126.0,127.0,26.0,-104.0,-74.0,127.0,127.0,127.0,114.0,85.0,-60.0
125.0,126.0,127.0,126.0,126.0,127.0,126.0,127.0,26.0,-104.0,-74.0,127.0,127.0,127.0,114.0,85.0,-60.0
125.0,126.0,127.0,126.0,126.0,127.0,126.0,127.0,26.0,-104.0,-74.0,127.0,127.0,127.0,114.0,85.0,-60.0
125.0,126.0,127.0,126.0,126.0,127.0,127.0,127.0,26.0,-104.0,-74.0,127.0,127.0,127.0,114.0,85.0,-60.0
125.0,126.0,127.0,126.0,126.0,127.0,127.0,127.0,26.0,-104.0,-74.0,127.0,127.0,127.0,114.0,85.0,-60.0
125.0,126.0,127.0,126.0,126.0,127.0,126.0,127.0,26.0,-104.0,-74.0,127.0,127.0,127.0,114.0,85.0,-60.0
125.0,126.0,127.0,126.0,127.0,126.0,127.0,127.0,26.0,-104.0,-74.0,127.0,127.0,127.0,114.0,85.0,-60.0
125.0,126.0,127.0,126.0,127.0,126.0,127.0,127.0,26.0,-104.0,-74.0,127.0,127.0,127.0,114.0,85.0,-60.0
125.0,126.0,127.0,126.0,127.0,126.0,127.0,127.0,26.0,-104.0,-74.0,127.0,127.0,127.0,114.0,85.0,-60.0
125.0,126.0,127.0,126.0,127.0,127.0,126.0,127.0,26.0,-104.0,-74.0,127.0,127.0,127.0,114.0,85.0,-60.0
125.0,126.0,127.0,126.0,127.0,127.0,126.0,127.0,26.0,-104.0,-74.0,127.0,127.0,127.0,114.0,85.0,-60.0
125.0,126.0,127.0,126.0,127.0,127.0,126.0,127.0,26.0,-104.0,-74.0,127.0,127.0,127.0,114.0,85.0,-60.0
125.0,126.0,127.0,126.0,127.0,127.0,127.0,128.0,26.0,-104.0,-74.0,127.0,127.0,127.0,114.0,85.0,-60.0
125.0,126.0,127.0,126.0,127.0,126.0,127.0,128.0,26.0,-104.0,-74.0,127.0,127.0,127.0,114.0,85.0,-60.0
125.0,126.0,127.0,126.0,127.0,127.0,127.0,127.0,26.0,-104.0,-74.0,127.0,127.0,127.0,114.0,85.0,-60.0
125.0,126.0,127.0,126.0,127.0,127.0,127.0,127.0,26.0,-104.0,-74.0,127.0,127.0,127.0,114.0,85.0,-60.0
125.0,125.0,128.0,126.0,127.0,125.0,126.0,128.0,26.0,-105.0,-74.0,127.0,127.0,127.0,114.0,85.0,-60.0
125.0,125.0,128.0,126.0,127.0,125.0,126.0,128.0,26.0,-105.0,-74.0,127.0,127.0,127.0,114.0,85.0,-60.0
125.0,125.0,128.0,126.0,127.0,125.0,126.0,128.0,26.0,-105.0,-74.0,127.0,127.0,127.0,114.0,85.0,-60.0
125.0,126.0,128.0,126.0,127.0,126.0,126.0,128.0,26.0,-105.0,-74.0,127.0,127.0,127.0,114.0,85.0,-60.0
125.0,126.0,128.0,126.0,127.0,126.0,126.0,128.0,26.0,-105.0,-74.0,127.0,127.0,127.0,114.0,85.0,-60.0
125.0,126.0,128.0,126.0,127.0,126.0,126.0,128.0,26.0,-105.0,-74.0,127.0,127.0,127.0,114.0,85.0,-60.0
125.0,126.0,128.0,126.0,127.0,126.0,126.0,128.0,26.0,-105.0,-74.0,127.0,127.0,127.0,114.0,85.0,-60.0
125.0,126.0,128.0,126.0,127.0,126.0,126.0,128.0,26.0,-105.0,-74.0,127.0,127.0,127.0,114.0,85.0,-60.0
125.0,125.0,128.0,126.0,127.0,126.0,126.0,128.0,26.0,-105.0,-74.0,127.0,127.0,127.0,114.0,85.0,-60.0
125.0,125.0,128.0,126.0,127.0,125.0,126.0,128.0,26.0,-105.0,-74.0,127.0,127.0,127.0,114.0,85.0,-60.0
125.0,125.0,128.0,126.0,127.0,125.0,126.0,128.0,26.0,-105.0,-74.0,127.0,127.0,127.0,114.0,85.0,-60.0
125.0,125.0,128.0,126.0,127.0,125.0,126.0,128.0,26.0,-105.0,-74.0,127.0,127.0,127.0,114.0,85.0,-60.0
125.0,126.0,127.0,126.0,127.0,126.0,126.0,128.0,26.0,-105.0,-74.0,127.0,127.0,127.0,114.0,85.0,-60.0
125.0,126.0,127.0,126.0,127.0,126.0,126.0,128.0,26.0,-105.0,-74.0,127.0,127.0,127.0,114.0,85.0,-60.0
125.0,126.0,127.0,126.0,127.0,126.0,126.0,128.0,26.0,-105.0,-74.0,127.0,127.0,127.0,114.0,85.0,-60.0
125.0,126.0,127.0,126.0,127.0,126.0,126.0,128.0,26.0,-105.0,-74.0,127.0,127.0,127.0,114.0,85.0,-60.0
125.0,126.0,127.0,126.0,127.0,126.0,126.0,128.0,26.0,-105.0,-74.0,127.0,127.0,127.0,114.0,85.0,-60.0
125.0,125.0,128.0,126.0,127.0,126.0,126.0,128.0,26.0,-105.0,-74.0,127.0,127.0,127.0,114.0,85.0,-60.0
125.0,125.0,128.0,126.0,127.0,126.0,126.0,128.0,26.0,-105.0,-74.0,127.0,127.0,127.0,114.0,85.0,-60.0
125.0,125.0,128.0,126.0,127.0,125.0,126.0,128.0,26.0,-105.0,-74.0,127.0,127.0,127.0,114.0,85.0,-60.0
125.0,125.0,128.0,127.0,127.0,124.0,126.0,128.0,26.0,-106.0,-73.0,127.0,127.0,127.0,114.0,85.0,-60.0
125.0,125.0,128.0,127.0,127.0,124.0,126.0,128.0,26.0,-106.0,-73.0,127.0,127.0,127.0,114.0,85.0,-60.0
125.0,125.0,128.0,127.0,127.0,124.0,126.0,128.0,26.0,-106.0,-73.0,127.0,127.0,127.0,114.0,85.0,-60.0
125.0,125.0,128.0,127.0,127.0,124.0,126.0,128.0,26.0,-106.0,-73.0,127.0,127.0,127.0,114.0,85.0,-60.0
125.0,125.0,128.0,127.0,127.0,124.0,126.0,128.0,26.0,-106.0,-73.0,127.0,127.0,127.0,114.0,85.0,-60.0
125.0,125.0,128.0,127.0,127.0,125.0,126.0,128.0,26.0,-106.0,-73.0,127.0,127.0,127.0,114.0,85.0,-60.0
125.0,125.0,128.0,127.0,127.0,125.0,126.0,128.0,26.0,-106.0,-73.0,127.0,127.0,127.0,114.0,85.0,-60.0
125.0,125.0,128.0,127.0,127.0,125.0,126.0,128.0,26.0,-106.0,-73.0,127.0,127.0,127.0,114.0,85.0,-60.0
125.0,125.0,128.0,127.0,127.0,124.0,126.0,128.0,26.0,-106.0,-73.0,127.0,127.0,127.0,114.0,85.0,-60.0
125.0,125.0,128.0,127.0,127.0,124.0,126.0,128.0,26.0,-106.0,-73.0,127.0,127.0,127.0,114.0,85.0,-60.0
125.0,125.0,128.0,127.0,127.0,125.0,126.0,127.0,26.0,-106.0,-73.0,127.0,127.0,127.0,114.0,85.0,-60.0
125.0,125.0,128.0,127.0,127.0,124.0,126.0,127.0,26.0,-106.0,-73.0,127.0,127.0,127.0,114.0,85.0,-60.0
125.0,125.0,128.0,127.0,127.0,125.0,126.0,127.0,26.0,-106.0,-73.0,127.0,127.0,127.0,114.0,85.0,-60.0
125.0,125.0,127.0,127.0,127.0,124.0,126.0,127.0,26.0,-106.0,-73.0,127.0,127.0,127.0,114.0,85.0,-60.0
125.0,125.0,127.0,127.0,127.0,125.0,126.0,128.0,26.0,-106.0,-73.0,127.0,127.0,127.0,114.0,85.0,-60.0
125.0,125.0,127.0,127.0,127.0,125.0,126.0,128.0,26.0,-106.0,-73.0,127.0,127.0,127.0,114.0,85.0,-60.0
125.0,125.0,127.0,127.0,127.0,125.0,126.0,128.0,26.0,-106.0,-73.0,127.0,127.0,127.0,114.0,85.0,-60.0
125.0,125.0,127.0,127.0,127.0,125.0,126.0,128.0,26.0,-106.0,-73.0,127.0,127.0,127.0,114.0,85.0,-60.0
125.0,125.0,127.0,127.0,127.0,125.0,126.0,127.0,26.0,-106.0,-73.0,127.0,127.0,127.0,114.0,85.0,-60.0
125.0,125.0,128.0,127.0,127.0,125.0,126.0,128.0,26.0,-106.0,-73.0,127.0,127.0,127.0,114.0,85.0,-60.0
125.0,126.0,127.0,127.0,127.0,126.0,126.0,128.0,26.0,-107.0,-73.0,127.0,127.0,127.0,114.0,85.0,-60.0
125.0,125.0,127.0,127.0,127.0,125.0,126.0,127.0,26.0,-107.0,-73.0,127.0,127.0,127.0,114.0,85.0,-60.0
125.0,125.0,127.0,127.0,127.0,125.0,126.0,128.0,26.0,-107.0,-73.0,127.0,127.0,127.0,114.0,85.0,-60.0
125.0,125.0,127.0,126.0,127.0,125.0,126.0,127.0,26.0,-107.0,-73.0,127.0,127.0,127.0,114.0,85.0,-60.0
125.0,125.0,127.0,127.0,127.0,125.0,126.0,127.0,26.0,-107.0,-73.0,127.0,127.0,127.0,114.0,85.0,-60.0
125.0,125.0,127.0,127.0,127.0,125.0,126.0,127.0,26.0,-107.0,-73.0,127.0,127.0,127.0,114.0,85.0,-60.0
125.0,125.0,128.0,127.0,127.0,125.0,126.0,127.0,26.0,-107.0,-73.0,127.0,127.0,127.0,114.0,85.0,-60.0
125.0,125.0,128.0,126.0,127.0,125.0,126.0,127.0,26.0,-107.0,-73.0,127.0,127.0,127.0,114.0,85.0,-60.0
125.0,125.0,128.0,127.0,127.0,125.0,126.0,127.0,26.0,-107.0,-73.0,127.0,127.0,127.0,114.0,85.0,-60.0
125.0,125.0,127.0,127.0,127.0,125.0,125.0,127.0,26.0,-107.0,-73.0,127.0,127.0,127.0,114.0,85.0,-60.0
125.0,125.0,127.0,126.0,127.0,125.0,126.0,127.0,25.0,-107.0,-73.0,127.0,127.0,127.0,114.0,85.0,-60.0
125.0,125.0,127.0,126.0,127.0,125.0,126.0,127.0,25.0,-107.0,-73.0,127.0,127.0,127.0,114.0,85.0,-60.0
125.0,125.0,127.0,126.0,127.0,125.0,125.0,127.0,25.0,-107.0,-73.0,127.0,127.0,127.0,114.0,85.0,-60.0
125.0,126.0,127.0,126.0,127.0,126.0,125.0,127.0,25.0,-107.0,-73.0,127.0,127.0,127.0,114.0,85.0,-60.0
125.0,126.0,127.0,126.0,127.0,126.0,125.0,127.0,25.0,-107.0,-73.0,127.0,127.0,127.0,114.0,85.0,-60.0
125.0,125.0,127.0,126.0,127.0,126.0,125.0,127.0,25.0,-107.0,-73.0,127.0,127.0,127.0,114.0,85.0,-60.0
125.0,125.0,127.0,126.0,127.0,125.0,125.0,127.0,25.0,-107.0,-73.0,127.0,127.0,127.0,114.0,85.0,-60.0
125.0,125.0,127.0,126.0,127.0,126.0,125.0,127.0,25.0,-107.0,-73.0,127.0,127.0,127.0,114.0,85.0,-60.0
125.0,125.0,127.0,126.0,127.0,125.0,126.0,127.0,25.0,-107.0,-73.0,127.0,127.0,127.0,114.0,85.0,-60.0
125.0,125.0,127.0,126.0,127.0,125.0,126.0,127.0,25.0,-107.0,-73.0,127.0,127.0,127.0,114.0,85.0,-60.0
125.0,126.0,126.0,127.0,127.0,126.0,126.0,127.0,24.0,-107.0,-73.0,127.0,127.0,127.0,114.0,85.0,-60.0
125.0,126.0,126.0,127.0,127.0,126.0,126.0,127.0,24.0,-107.0,-73.0,127.0,127.0,127.0,114.0,85.0,-60.0
125.0,126.0,127.0,127.0,127.0,126.0,126.0,127.0,24.0,-107.0,-73.0,127.0,127.0,127.0,114.0,85.0,-60.0
125.0,125.0,127.0,127.0,127.0,125.0,126.0,127.0,24.0,-107.0,-73.0,127.0,127.0,127.0,114.0,85.0,-60.0
125.0,126.0,127.0,127.0,127.0,126.0,126.0,127.0,24.0,-107.0,-73.0,127.0,127.0,127.0,114.0,85.0,-60.0
125.0,126.0,126.0,127.0,127.0,126.0,126.0,127.0,24.0,-107.0,-73.0,127.0,127.0,127.0,114.0,85.0,-60.0
125.0,126.0,127.0,127.0,127.0,126.0,126.0,128.0,24.0,-107.0,-73.0,127.0,127.0,127.0,114.0,85.0,-60.0
125.0,126.0,127.0,127.0,127.0,126.0,126.0,128.0,24.0,-107.0,-73.0,127.0,127.0,127.0,114.0,85.0,-60.0
125.0,126.0,127.0,127.0,127.0,126.0,126.0,128.0,24.0,-107.0,-73.0,127.0,127.0,127.0,114.0,85.0,-60.0
125.0,126.0,127.0,127.0,127.0,126.0,126.0,128.0,24.0,-107.0,-73.0,127.0,127.0,127.0,114.0,85.0,-60.0
125.0,126.0,127.0,126.0,126.0,125.0,126.0,127.0,23.0,-107.0,-74.0,127.0,127.0,127.0,114.0,85.0,-60.0
125.0,126.0,127.0,126.0,126.0,125.0,126.0,127.0,23.0,-107.0,-74.0,127.0,127.0,127.0,114.0,85.0,-60.0
125.0,126.0,127.0,126.0,126.0,125.0,126.0,127.0,23.0,-107.0,-74.0,127.0,127.0,127.0,114.0,85.0,-60.0
125.0,126.0,127.0,126.0,126.0,125.0,125.0,127.0,23.0,-107.0,-74.0,127.0,127.0,127.0,114.0,85.0,-60.0
125.0,126.0,127.0,126.0,126.0,126.0,125.0,127.0,23.0,-107.0,-74.0,127.0,127.0,127.0,114.0,85.0,-60.0
125.0,126.0,127.0,126.0,126.0,126.0,125.0,127.0,23.0,-107.0,-74.0,127.0,127.0,127.0,114.0,85.0,-60.0
125.0,126.0,127.0,126.0,126.0,126.0,125.0,127.0,23.0,-107.0,-74.0,127.0,127.0,127.0,114.0,85.0,-60.0
125.0,126.0,127.0,126.0,126.0,126.0,126.0,127.0,23.0,-107.0,-74.0,127.0,127.0,127.0,114.0,85.0,-60.0
125.0,126.0,127.0,126.0,127.0,126.0,126.0,127.0,23.0,-107.0,-74.0,127.0,127.0,127.0,114.0,85.0,-60.0
125.0,126.0,127.0,126.0,126.0,125.0,126.0,127.0,23.0,-107.0,-74.0,127.0,127.0,127.0,114.0,85.0,-60.0
125.0,126.0,127.0,126.0,126.0,126.0,126.0,127.0,22.0,-106.0,-74.0,127.0,127.0,127.0,114.0,85.0,-60.0
125.0,126.0,127.0,126.0,126.0,126.0,126.0,127.0,22.0,-106.0,-74.0,127.0,127.0,127.0,114.0,85.0,-60.0
125.0,126.0,127.0,126.0,126.0,126.0,126.0,127.0,22.0,-106.0,-74.0,127.0,127.0,127.0,114.0,85.0,-60.0
125.0,126.0,126.0,126.0,126.0,127.0,126.0,127.0,22.0,-106.0,-74.0,127.0,127.0,127.0,114.0,85.0,-60.0
125.0,126.0,126.0,126.0,126.0,127.0,126.0,127.0,22.0,-106.0,-74.0,127.0,127.0,127.0,114.0,85.0,-60.0
125.0,126.0,127.0,126.0,126.0,127.0,126.0,127.0,22.0,-106.0,-74.0,127.0,127.0,127.0,114.0,85.0,-60.0
125.0,126.0,126.0,126.0,126.0,127.0,126.0,127.0,22.0,-106.0,-74.0,127.0,127.0,127.0,114.0,85.0,-60.0
125.0,126.0,126.0,126.0,126.0,127.0,126.0,127.0,22.0,-106.0,-74.0,127.0,127.0,127.0,114.0,85.0,-60.0
125.0,126.0,126.0,126.0,126.0,126.0,126.0,127.0,22.0,-106.0,-74.0,127.0,127.0,127.0,114.0,85.0,-60.0
125.0,126.0,126.0,126.0,126.0,126.0,126.0,127.0,22.0,-106.0,-74.0,127.0,127.0,127.0,114.0,85.0,-60.0
125.0,126.0,127.0,127.0,126.0,126.0,126.0,127.0,22.0,-106.0,-75.0,127.0,127.0,127.0,114.0,85.0,-60.0
125.0,126.0,127.0,127.0,126.0,126.0,126.0,127.0,22.0,-106.0,-75.0,127.0,127.0,127.0,114.0,85.0,-60.0
125.0,126.0,127.0,127.0,127.0,127.0,125.0,127.0,22.0,-106.0,-75.0,127.0,127.0,127.0,114.0,85.0,-60.0
125.0,126.0,127.0,127.0,127.0,127.0,126.0,127.0,22.0,-106.0,-75.0,127.0,127.0,127.0,114.0,85.0,-60.0
125.0,126.0,127.0,127.0,127.0,127.0,126.0,127.0,22.0,-106.0,-75.0,127.0,127.0,127.0,114.0,85.0,-60.0
125.0,126.0,127.0,127.0,127.0,127.0,126.0,127.0,22.0,-106.0,-75.0,127.0,127.0,127.0,114.0,85.0,-60.0
125.0,126.0,127.0,127.0,127.0,127.0,126.0,127.0,22.0,-106.0,-75.0,127.0,127.0,127.0,114.0,85.0,-60.0
125.0,127.0,127.0,127.0,126.0,127.0,126.0,127.0,22.0,-106.0,-75.0,127.0,127.0,127.0,114.0,85.0,-60.0
125.0,126.0,127.0,127.0,126.0,126.0,126.0,127.0,22.0,-106.0,-75.0,127.0,127.0,127.0,114.0,85.0,-60.0
125.0,126.0,127.0,127.0,126.0,126.0,126.0,127.0,22.0,-106.0,-75.0,127.0,127.0,127.0,114.0,85.0,-60.0
125.0,127.0,126.0,126.0,126.0,126.0,126.0,127.0,22.0,-106.0,-75.0,127.0,127.0,127.0,113.0,85.0,-60.0
125.0,127.0,126.0,126.0,126.0,126.0,126.0,127.0,22.0,-106.0,-75.0,127.0,127.0,127.0,113.0,85.0,-60.0
125.0,127.0,126.0,126.0,127.0,126.0,126.0,127.0,22.0,-106.0,-75.0,127.0,127.0,127.0,113.0,85.0,-60.0
125.0,127.0,126.0,126.0,127.0,126.0,126.0,127.0,22.0,-106.0,-75.0,127.0,127.0,127.0,113.0,85.0,-60.0
125.0,128.0,126.0,127.0,127.0,127.0,126.0,127.0,22.0,-106.0,-75.0,127.0,127.0,127.0,113.0,85.0,-60.0
125.0,128.0,125.0,127.0,127.0,127.0,126.0,128.0,22.0,-106.0,-75.0,127.0,127.0,127.0,113.0,85.0,-60.0
125.0,127.0,126.0,127.0,127.0,126.0,126.0,127.0,22.0,-106.0,-75.0,127.0,127.0,127.0,113.0,85.0,-60.0
125.0,127.0,126.0,126.0,126.0,126.0,126.0,127.0,22.0,-106.0,-75.0,127.0,127.0,127.0,113.0,85.0,-60.0
125.0,127.0,126.0,126.0,126.0,126.0,126.0,127.0,22.0,-106.0,-75.0,127.0,127.0,127.0,113.0,85.0,-60.0
125.0,127.0,126.0,126.0,126.0,126.0,126.0,127.0,22.0,-106.0,-75.0,127.0,127.0,127.0,113.0,85.0,-60.0
125.0,127.0,126.0,127.0,127.0,125.0,126.0,127.0,23.0,-106.0,-75.0,127.0,127.0,127.0,113.0,85.0,-60.0
126.0,127.0,126.0,127.0,127.0,125.0,126.0,127.0,23.0,-106.0,-75.0,127.0,127.0,127.0,113.0,85.0,-60.0
125.0,127.0,126.0,127.0,127.0,125.0,126.0,127.0,23.0,-106.0,-75.0,127.0,127.0,127.0,113.0,85.0,-60.0
125.0,127.0,126.0,127.0,127.0,125.0,126.0,127.0,23.0,-106.0,-75.0,127.0,127.0,127.0,113.0,85.0,-60.0
125.0,127.0,126.0,127.0,127.0,125.0,126.0,127.0,23.0,-106.0,-75.0,127.0,127.0,127.0,113.0,85.0,-60.0
125.0,127.0,125.0,127.0,127.0,126.0,126.0,127.0,23.0,-106.0,-75.0,127.0,127.0,127.0,113.0,85.0,-60.0
125.0,127.0,126.0,127.0,127.0,125.0,126.0,127.0,23.0,-106.0,-75.0,127.0,127.0,127.0,113.0,85.0,-60.0
125.0,127.0,126.0,127.0,127.0,125.0,126.0,127.0,23.0,-106.0,-75.0,127.0,127.0,127.0,113.0,85.0,-60.0
125.0,127.0,126.0,127.0,127.0,126.0,126.0,127.0,23.0,-106.0,-75.0,127.0,127.0,127.0,113.0,85.0,-60.0
125.0,127.0,126.0,127.0,127.0,125.0,126.0,127.0,23.0,-106.0,-75.0,127.0,127.0,127.0,113.0,85.0,-60.0
125.0,127.0,126.0,127.0,127.0,124.0,127.0,128.0,24.0,-106.0,-75.0,127.0,127.0,127.0,113.0,85.0,-60.0
125.0,127.0,126.0,127.0,127.0,124.0,127.0,128.0,24.0,-106.0,-75.0,127.0,127.0,127.0,113.0,85.0,-60.0
125.0,127.0,126.0,126.0,127.0,124.0,126.0,127.0,24.0,-106.0,-75.0,127.0,127.0,127.0,113.0,85.0,-60.0
125.0,128.0,126.0,127.0,127.0,125.0,126.0,128.0,24.0,-106.0,-75.0,127.0,127.0,127.0,113.0,85.0,-60.0
125.0,127.0,126.0,127.0,127.0,123.0,127.0,127.0,24.0,-106.0,-75.0,127.0,127.0,127.0,113.0,85.0,-60.0
125.0,127.0,126.0,127.0,127.0,123.0,127.0,128.0,24.0,-106.0,-75.0,127.0,127.0,127.0,113.0,85.0,-60.0
125.0,127.0,126.0,127.0,127.0,124.0,126.0,127.0,24.0,-106.0,-75.0,127.0,127.0,127.0,113.0,85.0,-60.0
125.0,128.0,126.0,127.0,127.0,124.0,127.0,128.0,24.0,-106.0,-75.0,127.0,127.0,127.0,113.0,85.0,-60.0
125.0,127.0,126.0,127.0,127.0,124.0,127.0,128.0,24.0,-106.0,-75.0,127.0,127.0,127.0,113.0,85.0,-60.0
125.0,127.0,126.0,127.0,127.0,124.0,127.0,128.0,24.0,-106.0,-75.0,127.0,127.0,127.0,113.0,85.0,-60.0
125.0,127.0,128.0,127.0,127.0,124.0,127.0,127.0,25.0,-107.0,-74.0,127.0,127.0,127.0,113.0,85.0,-60.0
125.0,127.0,128.0,127.0,127.0,124.0,127.0,127.0,25.0,-107.0,-74.0,127.0,127.0,127.0,113.0,85.0,-60.0
125.0,127.0,127.0,127.0,127.0,124.0,127.0,128.0,25.0,-107.0,-74.0,127.0,127.0,127.0,113.0,85.0,-60.0
125.0,127.0,127.0,127.0,127.0,123.0,127.0,127.0,25.0,-107.0,-74.0,127.0,127.0,127.0,113.0,85.0,-60.0
125.0,127.0,127.0,126.0,127.0,123.0,127.0,127.0,25.0,-107.0,-74.0,127.0,127.0,127.0,113.0,85.0,-60.0
125.0,127.0,127.0,126.0,127.0,124.0,127.0,127.0,25.0,-107.0,-74.0,127.0,127.0,127.0,113.0,85.0,-60.0
125.0,127.0,127.0,127.0,127.0,124.0,126.0,127.0,25.0,-107.0,-74.0,127.0,127.0,127.0,113.0,85.0,-60.0
125.0,127.0,127.0,127.0,127.0,124.0,127.0,127.0,25.0,-107.0,-74.0,127.0,127.0,127.0,113.0,85.0,-60.0
125.0,127.0,128.0,127.0,127.0,124.0,127.0,127.0,25.0,-107.0,-74.0,127.0,127.0,127.0,113.0,85.0,-60.0
125.0,127.0,128.0,127.0,127.0,124.0,127.0,127.0,25.0,-107.0,-74.0,127.0,127.0,127.0,113.0,85.0,-60.0
125.0,126.0,128.0,126.0,127.0,125.0,126.0,127.0,26.0,-108.0,-74.0,127.0,127.0,127.0,113.0,85.0,-60.0
125.0,126.0,127.0,126.0,127.0,126.0,126.0,128.0,26.0,-108.0,-74.0,127.0,127.0,127.0,113.0,85.0,-60.0
125.0,126.0,128.0,126.0,127.0,124.0,127.0,127.0,26.0,-108.0,-74.0,127.0,127.0,127.0,113.0,85.0,-60.0
125.0,126.0,128.0,126.0,127.0,124.0,126.0,127.0,26.0,-108.0,-74.0,127.0,127.0,127.0,113.0,85.0,-60.0
125.0,126.0,128.0,126.0,127.0,124.0,126.0,127.0,26.0,-108.0,-74.0,127.0,127.0,127.0,113.0,85.0,-60.0
125.0,126.0,128.0,126.0,127.0,125.0,126.0,127.0,26.0,-108.0,-74.0,127.0,127.0,127.0,113.0,85.0,-60.0
125.0,126.0,128.0,126.0,127.0,125.0,126.0,127.0,26.0,-108.0,-74.0,127.0,127.0,127.0,113.0,85.0,-60.0
125.0,126.0,128.0,126.0,127.0,125.0,126.0,127.0,26.0,-108.0,-74.0,127.0,127.0,127.0,113.0,85.0,-60.0
125.0,126.0,128.0,126.0,127.0,125.0,126.0,128.0,26.0,-108.0,-74.0,127.0,127.0,127.0,113.0,85.0,-60.0
125.0,126.0,128.0,126.0,127.0,125.0,126.0,127.0,26.0,-108.0,-74.0,127.0,127.0,127.0,113.0,85.0,-60.0
125.0,126.0,128.0,126.0,127.0,127.0,126.0,128.0,27.0,-109.0,-73.0,127.0,127.0,127.0,113.0,85.0,-60.0
125.0,125.0,128.0,126.0,127.0,125.0,126.0,128.0,27.0,-109.0,-73.0,127.0,127.0,127.0,113.0,85.0,-60.0
125.0,125.0,128.0,126.0,127.0,125.0,126.0,128.0,27.0,-109.0,-73.0,127.0,127.0,127.0,113.0,85.0,-60.0
125.0,125.0,128.0,126.0,127.0,126.0,126.0,128.0,27.0,-109.0,-73.0,127.0,127.0,127.0,113.0,85.0,-60.0
125.0,126.0,128.0,126.0,127.0,126.0,126.0,128.0,27.0,-109.0,-73.0,127.0,127.0,127.0,113.0,85.0,-60.0
125.0,126.0,128.0,126.0,127.0,126.0,126.0,128.0,27.0,-109.0,-73.0,127.0,127.0,127.0,113.0,85.0,-60.0
125.0,126.0,128.0,126.0,127.0,126.0,126.0,128.0,27.0,-109.0,-73.0,127.0,127.0,127.0,113.0,85.0,-60.0
125.0,125.0,128.0,126.0,127.0,126.0,126.0,128.0,27.0,-109.0,-73.0,127.0,127.0,127.0,113.0,85.0,-60.0
125.0,125.0,128.0,126.0,127.0,126.0,126.0,128.0,27.0,-109.0,-73.0,127.0,127.0,127.0,113.0,85.0,-60.0
125.0,125.0,128.0,126.0,127.0,126.0,126.0,128.0,27.0,-109.0,-73.0,127.0,127.0,127.0,113.0,85.0,-60.0
125.0,125.0,128.0,126.0,127.0,124.0,127.0,128.0,28.0,-110.0,-72.0,127.0,127.0,127.0,113.0,85.0,-60.0
125.0,125.0,128.0,126.0,127.0,124.0,127.0,128.0,28.0,-110.0,-72.0,127.0,127.0,127.0,113.0,85.0,-60.0
125.0,125.0,128.0,126.0,127.0,124.0,126.0,128.0,28.0,-110.0,-72.0,127.0,127.0,127.0,113.0,85.0,-60.0
125.0,126.0,128.0,126.0,127.0,125.0,126.0,128.0,28.0,-110.0,-72.0,127.0,127.0,127.0,113.0,85.0,-60.0
125.0,126.0,128.0,126.0,127.0,125.0,126.0,128.0,28.0,-110.0,-72.0,127.0,127.0,127.0,113.0,85.0,-60.0
125.0,126.0,128.0,126.0,127.0,125.0,126.0,128.0,28.0,-110.0,-72.0,127.0,127.0,127.0,113.0,85.0,-60.0
125.0,125.0,128.0,126.0,127.0,125.0,126.0,128.0,28.0,-110.0,-72.0,127.0,127.0,127.0,113.0,85.0,-60.0
125.0,125.0,128.0,126.0,127.0,124.0,126.0,128.0,28.0,-110.0,-72.0,127.0,127.0,127.0,113.0,85.0,-60.0
125.0,125.0,128.0,126.0,127.0,124.0,126.0,128.0,28.0,-110.0,-72.0,127.0,127.0,127.0,113.0,85.0,-60.0
125.0,126.0,128.0,126.0,127.0,125.0,126.0,128.0,28.0,-110.0,-72.0,127.0,127.0,127.0,113.0,85.0,-60.0
125.0,125.0,129.0,126.0,127.0,124.0,126.0,128.0,28.0,-111.0,-72.0,127.0,127.0,127.0,113.0,85.0,-60.0
125.0,125.0,129.0,126.0,127.0,124.0,126.0,128.0,28.0,-111.0,-72.0,127.0,127.0,127.0,113.0,85.0,-60.0
125.0,125.0,129.0,126.0,127.0,125.0,125.0,128.0,28.0,-111.0,-72.0,127.0,127.0,127.0,113.0,85.0,-60.0
125.0,125.0,129.0,126.0,127.0,125.0,125.0,128.0,28.0,-111.0,-72.0,127.0,127.0,127.0,113.0,85.0,-60.0
125.0,125.0,129.0,126.0,127.0,125.0,125.0,128.0,28.0,-111.0,-72.0,127.0,127.0,127.0,113.0,85.0,-60.0
125.0,125.0,129.0,126.0,127.0,125.0,126.0,128.0,28.0,-111.0,-72.0,127.0,127.0,127.0,113.0,85.0,-60.0
125.0,125.0,129.0,126.0,127.0,125.0,126.0,128.0,28.0,-111.0,-72.0,127.0,127.0,127.0,113.0,85.0,-60.0
125.0,125.0,129.0,126.0,127.0,125.0,125.0,128.0,28.0,-111.0,-72.0,127.0,127.0,127.0,113.0,85.0,-60.0
125.0,125.0,129.0,126.0,127.0,125.0,125.0,128.0,28.0,-111.0,-72.0,127.0,127.0,127.0,113.0,85.0,-60.0
125.0,125.0,129.0,126.0,127.0,124.0,126.0,128.0,28.0,-111.0,-72.0,127.0,127.0,127.0,113.0,85.0,-60.0
125.0,125.0,129.0,126.0,127.0,126.0,124.0,128.0,27.0,-111.0,-71.0,127.0,127.0,127.0,113.0,85.0,-60.0
125.0,125.0,129.0,126.0,127.0,126.0,124.0,128.0,27.0,-111.0,-71.0,127.0,127.0,127.0,113.0,85.0,-60.0
125.0,124.0,129.0,126.0,127.0,126.0,124.0,128.0,27.0,-111.0,-71.0,127.0,127.0,127.0,113.0,85.0,-60.0
125.0,124.0,129.0,126.0,127.0,126.0,124.0,128.0,27.0,-111.0,-71.0,127.0,127.0,127.0,113.0,85.0,-60.0
125.0,124.0,129.0,126.0,127.0,126.0,125.0,128.0,27.0,-111.0,-71.0,127.0,127.0,127.0,113.0,85.0,-60.0
125.0,124.0,130.0,126.0,127.0,126.0,125.0,128.0,27.0,-111.0,-71.0,127.0,127.0,127.0,113.0,85.0,-60.0
125.0,124.0,130.0,126.0,127.0,126.0,125.0,128.0,27.0,-111.0,-71.0,127.0,127.0,127.0,113.0,85.0,-60.0
125.0,124.0,130.0,126.0,127.0,125.0,125.0,128.0,27.0,-111.0,-71.0,127.0,127.0,127.0,113.0,85.0,-60.0
125.0,125.0,128.0,126.0,127.0,126.0,124.0,128.0,27.0,-111.0,-71.0,127.0,127.0,127.0,113.0,85.0,-60.0
125.0,125.0,128.0,126.0,127.0,126.0,124.0,128.0,27.0,-111.0,-71.0,127.0,127.0,127.0,113.0,85.0,-60.0
126.0,124.0,129.0,126.0,127.0,123.0,125.0,127.0,25.0,-111.0,-72.0,127.0,127.0,127.0,113.0,85.0,-60.0
126.0,124.0,129.0,126.0,127.0,123.0,125.0,127.0,25.0,-111.0,-72.0,127.0,127.0,127.0,113.0,85.0,-60.0
126.0,124.0,129.0,126.0,127.0,123.0,125.0,127.0,25.0,-111.0,-72.0,127.0,127.0,127.0,113.0,85.0,-60.0
125.0,124.0,129.0,126.0,127.0,123.0,125.0,127.0,25.0,-111.0,-72.0,127.0,127.0,127.0,113.0,85.0,-60.0
125.0,124.0,129.0,126.0,127.0,122.0,125.0,127.0,25.0,-111.0,-72.0,127.0,127.0,127.0,113.0,85.0,-60.0
125.0,124.0,129.0,126.0,127.0,122.0,125.0,127.0,25.0,-111.0,-72.0,127.0,127.0,127.0,113.0,85.0,-60.0
125.0,124.0,129.0,126.0,127.0,122.0,125.0,127.0,25.0,-111.0,-72.0,127.0,127.0,127.0,113.0,85.0,-60.0
126.0,124.0,129.0,126.0,127.0,123.0,125.0,127.0,25.0,-111.0,-72.0,127.0,127.0,127.0,113.0,85.0,-60.0
126.0,124.0,129.0,126.0,127.0,123.0,125.0,127.0,25.0,-111.0,-72.0,127.0,127.0,127.0,113.0,85.0,-60.0
126.0,124.0,129.0,126.0,127.0,123.0,125.0,127.0,25.0,-111.0,-72.0,127.0,127.0,127.0,113.0,85.0,-60.0
125.0,125.0,128.0,126.0,127.0,125.0,125.0,127.0,23.0,-110.0,-72.0,127.0,127.0,127.0,113.0,85.0,-60.0
125.0,125.0,128.0,126.0,127.0,125.0,125.0,127.0,23.0,-110.0,-72.0,127.0,127.0,127.0,113.0,85.0,-60.0
125.0,125.0,128.0,126.0,127.0,125.0,125.0,127.0,23.0,-110.0,-72.0,127.0,127.0,127.0,113.0,85.0,-60.0
125.0,124.0,128.0,126.0,127.0,125.0,125.0,127.0,23.0,-110.0,-72.0,127.0,127.0,127.0,113.0,85.0,-60.0
125.0,125.0,128.0,126.0,127.0,125.0,125.0,127.0,23.0,-110.0,-72.0,127.0,127.0,127.0,113.0,85.0,-60.0
125.0,125.0,127.0,126.0,127.0,125.0,125.0,127.0,23.0,-110.0,-72.0,127.0,127.0,127.0,113.0,85.0,-60.0
125.0,124.0,128.0,126.0,127.0,123.0,126.0,127.0,23.0,-110.0,-72.0,127.0,127.0,127.0,113.0,85.0,-60.0
125.0,124.0,128.0,126.0,127.0,123.0,126.0,127.0,23.0,-110.0,-72.0,127.0,127.0,127.0,113.0,85.0,-60.0
125.0,124.0,128.0,126.0,127.0,124.0,126.0,127.0,23.0,-110.0,-72.0,127.0,127.0,127.0,113.0,85.0,-60.0
125.0,125.0,128.0,126.0,127.0,124.0,125.0,127.0,23.0,-110.0,-72.0,127.0,127.0,127.0,113.0,85.0,-60.0
125.0,126.0,127.0,126.0,126.0,127.0,125.0,127.0,21.0,-109.0,-73.0,127.0,127.0,127.0,113.0,85.0,-60.0
125.0,125.0,127.0,126.0,126.0,127.0,125.0,127.0,21.0,-109.0,-73.0,127.0,127.0,127.0,113.0,85.0,-60.0
125.0,125.0,127.0,126.0,126.0,127.0,125.0,127.0,21.0,-109.0,-73.0,127.0,127.0,127.0,113.0,85.0,-60.0
125.0,126.0,127.0,126.0,126.0,127.0,125.0,127.0,21.0,-109.0,-73.0,127.0,127.0,127.0,113.0,85.0,-60.0
125.0,125.0,127.0,126.0,126.0,127.0,126.0,127.0,21.0,-109.0,-73.0,127.0,127.0,127.0,113.0,85.0,-60.0
125.0,126.0,127.0,127.0,126.0,127.0,126.0,127.0,21.0,-109.0,-73.0,127.0,127.0,127.0,113.0,85.0,-60.0
125.0,126.0,127.0,127.0,126.0,128.0,125.0,127.0,21.0,-109.0,-73.0,127.0,127.0,127.0,113.0,85.0,-60.0
125.0,126.0,127.0,127.0,126.0,128.0,125.0,127.0,21.0,-109.0,-73.0,127.0,127.0,127.0,113.0,85.0,-60.0
125.0,126.0,127.0,126.0,126.0,127.0,125.0,127.0,21.0,-109.0,-73.0,127.0,127.0,127.0,113.0,85.0,-60.0
125.0,126.0,127.0,126.0,126.0,127.0,125.0,127.0,21.0,-109.0,-73.0,127.0,127.0,127.0,113.0,85.0,-60.0
125.0,127.0,127.0,126.0,126.0,128.0,125.0,127.0,18.0,-108.0,-74.0,127.0,127.0,127.0,113.0,85.0,-60.0
125.0,126.0,127.0,126.0,126.0,128.0,125.0,127.0,18.0,-108.0,-74.0,127.0,127.0,127.0,113.0,85.0,-60.0
125.0,127.0,127.0,126.0,126.0,128.0,125.0,127.0,18.0,-108.0,-74.0,127.0,127.0,127.0,113.0,85.0,-60.0
125.0,126.0,127.0,126.0,126.0,128.0,125.0,127.0,18.0,-108.0,-74.0,127.0,127.0,127.0,113.0,85.0,-60.0
125.0,127.0,126.0,126.0,126.0,128.0,125.0,127.0,18.0,-108.0,-74.0,127.0,127.0,127.0,113.0,85.0,-60.0
125.0,127.0,126.0,126.0,126.0,128.0,125.0,127.0,18.0,-108.0,-74.0,127.0,127.0,127.0,113.0,85.0,-60.0
125.0,127.0,126.0,126.0,126.0,128.0,125.0,127.0,18.0,-108.0,-74.0,127.0,127.0,127.0,113.0,85.0,-60.0
125.0,127.0,126.0,126.0,126.0,128.0,125.0,127.0,18.0,-108.0,-74.0,127.0,127.0,127.0,113.0,85.0,-60.0
125.0,127.0,127.0,126.0,126.0,128.0,125.0,127.0,18.0,-108.0,-74.0,127.0,127.0,127.0,113.0,85.0,-60.0
125.0,127.0,127.0,126.0,126.0,128.0,125.0,127.0,18.0,-108.0,-74.0,127.0,127.0,127.0,113.0,85.0,-60.0
125.0,127.0,126.0,126.0,126.0,128.0,125.0,127.0,17.0,-106.0,-75.0,127.0,127.0,127.0,113.0,85.0,-60.0
125.0,127.0,126.0,126.0,126.0,128.0,125.0,127.0,17.0,-106.0,-75.0,127.0,127.0,127.0,113.0,85.0,-60.0
125.0,127.0,126.0,126.0,126.0,128.0,125.0,127.0,17.0,-106.0,-75.0,127.0,127.0,127.0,113.0,85.0,-60.0
125.0,127.0,125.0,126.0,126.0,129.0,125.0,127.0,17.0,-106.0,-75.0,127.0,127.0,127.0,113.0,85.0,-60.0
125.0,127.0,126.0,126.0,126.0,129.0,125.0,127.0,17.0,-106.0,-75.0,127.0,127.0,127.0,113.0,85.0,-60.0
125.0,127.0,126.0,126.0,126.0,129.0,125.0,127.0,17.0,-106.0,-75.0,127.0,127.0,127.0,113.0,85.0,-60.0
125.0,127.0,126.0,126.0,126.0,129.0,125.0,127.0,17.0,-106.0,-75.0,127.0,127.0,127.0,113.0,85.0,-60.0
125.0,127.0,126.0,126.0,126.0,128.0,125.0,127.0,17.0,-106.0,-75.0,127.0,127.0,127.0,113.0,85.0,-60.0
125.0,127.0,126.0,126.0,126.0,128.0,125.0,127.0,17.0,-106.0,-75.0,127.0,127.0,127.0,113.0,85.0,-60.0
125.0,127.0,126.0,126.0,126.0,128.0,125.0,127.0,17.0,-106.0,-75.0,127.0,127.0,127.0,113.0,85.0,-60.0
125.0,126.0,126.0,126.0,126.0,129.0,125.0,127.0,17.0,-105.0,-76.0,127.0,127.0,127.0,113.0,85.0,-60.0
125.0,126.0,127.0,126.0,126.0,129.0,125.0,127.0,17.0,-105.0,-76.0,127.0,127.0,127.0,113.0,85.0,-60.0
125.0,127.0,126.0,126.0,126.0,129.0,125.0,127.0,17.0,-105.0,-76.0,127.0,127.0,127.0,113.0,85.0,-60.0
125.0,127.0,126.0,126.0,126.0,129.0,125.0,127.0,17.0,-105.0,-76.0,127.0,127.0,127.0,113.0,85.0,-60.0
