emg1,emg2,emg3,emg4,emg5,emg6,emg7,emg8,acc_x,acc_y,acc_z,gyro_x,gyro_y,gyro_z,angle_pitch,angle_roll,angle_yaw
123.0,120.0,128.0,123.0,128.0,117.0,135.0,131.0,31.0,-120.0,-66.0,126.0,126.0,127.0,115.0,86.0,-53.0
124.0,120.0,130.0,122.0,128.0,117.0,135.0,131.0,31.0,-120.0,-66.0,126.0,126.0,127.0,115.0,86.0,-53.0
124.0,120.0,132.0,122.0,128.0,117.0,135.0,131.0,31.0,-120.0,-66.0,126.0,126.0,127.0,115.0,86.0,-53.0
124.0,119.0,134.0,122.0,128.0,117.0,135.0,131.0,31.0,-120.0,-66.0,126.0,126.0,127.0,115.0,86.0,-53.0
124.0,119.0,137.0,123.0,129.0,117.0,135.0,132.0,31.0,-120.0,-66.0,126.0,126.0,127.0,115.0,86.0,-53.0
124.0,119.0,139.0,123.0,129.0,117.0,135.0,132.0,31.0,-120.0,-66.0,126.0,126.0,127.0,115.0,86.0,-53.0
124.0,119.0,141.0,124.0,129.0,117.0,134.0,132.0,31.0,-120.0,-66.0,126.0,126.0,127.0,115.0,86.0,-53.0
124.0,119.0,143.0,124.0,130.0,117.0,134.0,132.0,31.0,-120.0,-66.0,126.0,126.0,127.0,115.0,86.0,-53.0
123.0,120.0,125.0,124.0,128.0,117.0,135.0,131.0,31.0,-120.0,-66.0,126.0,126.0,127.0,115.0,86.0,-53.0
123.0,120.0,127.0,123.0,128.0,117.0,135.0,131.0,31.0,-120.0,-66.0,126.0,126.0,127.0,115.0,86.0,-53.0
126.0,122.0,192.0,124.0,128.0,106.0,121.0,128.0,29.0,-119.0,-65.0,126.0,126.0,126.0,116.0,86.0,-53.0
126.0,122.0,193.0,124.0,128.0,105.0,121.0,128.0,29.0,-119.0,-65.0,126.0,126.0,126.0,116.0,86.0,-53.0
126.0,122.0,194.0,124.0,128.0,105.0,121.0,128.0,29.0,-119.0,-65.0,126.0,126.0,126.0,116.0,86.0,-53.0
126.0,122.0,194.0,124.0,128.0,105.0,121.0,128.0,29.0,-119.0,-65.0,126.0,126.0,126.0,116.0,86.0,-53.0
126.0,122.0,195.0,124.0,128.0,105.0,121.0,128.0,29.0,-119.0,-65.0,126.0,126.0,126.0,116.0,86.0,-53.0
126.0,122.0,195.0,124.0,128.0,104.0,121.0,128.0,29.0,-119.0,-65.0,126.0,126.0,126.0,116.0,86.0,-53.0
126.0,121.0,196.0,124.0,128.0,104.0,121.0,128.0,29.0,-119.0,-65.0,126.0,126.0,126.0,116.0,86.0,-53.0
125.0,121.0,190.0,124.0,127.0,106.0,121.0,128.0,29.0,-119.0,-65.0,126.0,126.0,126.0,116.0,86.0,-53.0
126.0,121.0,191.0,124.0,128.0,106.0,120.0,128.0,29.0,-119.0,-65.0,126.0,126.0,126.0,116.0,86.0,-53.0
126.0,121.0,192.0,124.0,128.0,106.0,121.0,128.0,29.0,-119.0,-65.0,126.0,126.0,126.0,116.0,86.0,-53.0
125.0,122.0,201.0,126.0,130.0,107.0,124.0,129.0,26.0,-117.0,-65.0,126.0,126.0,126.0,116.0,86.0,-53.0
125.0,123.0,200.0,126.0,130.0,107.0,124.0,129.0,26.0,-117.0,-65.0,126.0,126.0,126.0,116.0,86.0,-53.0
125.0,123.0,199.0,126.0,129.0,107.0,124.0,129.0,26.0,-117.0,-65.0,126.0,126.0,126.0,116.0,86.0,-53.0
124.0,123.0,198.0,126.0,129.0,108.0,124.0,129.0,26.0,-117.0,-65.0,126.0,126.0,126.0,116.0,86.0,-53.0
124.0,123.0,197.0,126.0,129.0,108.0,124.0,129.0,26.0,-117.0,-65.0,126.0,126.0,126.0,116.0,86.0,-53.0
124.0,123.0,196.0,126.0,129.0,108.0,125.0,129.0,26.0,-117.0,-65.0,126.0,126.0,126.0,116.0,86.0,-53.0
125.0,120.0,205.0,124.0,129.0,106.0,124.0,129.0,26.0,-117.0,-65.0,126.0,126.0,126.0,116.0,86.0,-53.0
125.0,120.0,204.0,124.0,129.0,106.0,124.0,129.0,26.0,-117.0,-65.0,126.0,126.0,126.0,116.0,86.0,-53.0
125.0,121.0,204.0,125.0,129.0,106.0,124.0,129.0,26.0,-117.0,-65.0,126.0,126.0,126.0,116.0,86.0,-53.0
125.0,121.0,203.0,125.0,129.0,107.0,124.0,129.0,26.0,-117.0,-65.0,126.0,126.0,126.0,116.0,86.0,-53.0
123.0,123.0,172.0,123.0,128.0,116.0,126.0,128.0,28.0,-117.0,-65.0,126.0,126.0,127.0,117.0,86.0,-53.0
123.0,123.0,171.0,123.0,128.0,116.0,127.0,128.0,28.0,-117.0,-65.0,126.0,126.0,127.0,117.0,86.0,-53.0
123.0,123.0,171.0,124.0,128.0,116.0,127.0,128.0,28.0,-117.0,-65.0,126.0,126.0,127.0,117.0,86.0,-53.0
123.0,123.0,170.0,124.0,128.0,116.0,127.0,129.0,28.0,-117.0,-65.0,126.0,126.0,127.0,117.0,86.0,-53.0
123.0,123.0,169.0,124.0,128.0,116.0,127.0,128.0,28.0,-117.0,-65.0,126.0,126.0,127.0,117.0,86.0,-53.0
123.0,122.0,175.0,121.0,127.0,115.0,125.0,128.0,28.0,-117.0,-65.0,126.0,126.0,127.0,117.0,86.0,-53.0
123.0,122.0,174.0,121.0,127.0,115.0,126.0,128.0,28.0,-117.0,-65.0,126.0,126.0,127.0,117.0,86.0,-53.0
123.0,123.0,173.0,122.0,127.0,116.0,126.0,128.0,28.0,-117.0,-65.0,126.0,126.0,127.0,117.0,86.0,-53.0
123.0,123.0,173.0,122.0,128.0,116.0,126.0,128.0,28.0,-117.0,-65.0,126.0,126.0,127.0,117.0,86.0,-53.0
123.0,123.0,172.0,122.0,128.0,116.0,126.0,128.0,28.0,-117.0,-65.0,126.0,126.0,127.0,117.0,86.0,-53.0
125.0,124.0,158.0,127.0,129.0,115.0,128.0,129.0,31.0,-119.0,-65.0,126.0,127.0,127.0,118.0,87.0,-53.0
125.0,124.0,158.0,127.0,129.0,115.0,128.0,129.0,31.0,-119.0,-65.0,126.0,127.0,127.0,118.0,87.0,-53.0
125.0,124.0,158.0,127.0,129.0,115.0,128.0,129.0,31.0,-119.0,-65.0,126.0,127.0,127.0,118.0,87.0,-53.0
125.0,125.0,158.0,127.0,128.0,115.0,128.0,129.0,31.0,-119.0,-65.0,126.0,127.0,127.0,118.0,87.0,-53.0
124.0,122.0,158.0,126.0,129.0,116.0,127.0,129.0,31.0,-119.0,-65.0,126.0,127.0,127.0,118.0,87.0,-53.0
124.0,122.0,158.0,126.0,129.0,116.0,127.0,129.0,31.0,-119.0,-65.0,126.0,127.0,127.0,118.0,87.0,-53.0
124.0,122.0,158.0,126.0,129.0,116.0,127.0,129.0,31.0,-119.0,-65.0,126.0,127.0,127.0,118.0,87.0,-53.0
124.0,122.0,158.0,127.0,129.0,115.0,128.0,129.0,31.0,-119.0,-65.0,126.0,127.0,127.0,118.0,87.0,-53.0
124.0,122.0,158.0,127.0,129.0,115.0,128.0,129.0,31.0,-119.0,-65.0,126.0,127.0,127.0,118.0,87.0,-53.0
124.0,123.0,158.0,127.0,129.0,115.0,128.0,129.0,31.0,-119.0,-65.0,126.0,127.0,127.0,118.0,87.0,-53.0
125.0,122.0,174.0,125.0,129.0,112.0,128.0,129.0,31.0,-120.0,-64.0,127.0,127.0,127.0,118.0,87.0,-53.0
125.0,121.0,174.0,125.0,129.0,111.0,128.0,129.0,31.0,-120.0,-64.0,127.0,127.0,127.0,118.0,87.0,-53.0
125.0,121.0,174.0,124.0,129.0,111.0,128.0,129.0,31.0,-120.0,-64.0,127.0,127.0,127.0,118.0,87.0,-53.0
125.0,122.0,172.0,124.0,129.0,112.0,128.0,129.0,31.0,-120.0,-64.0,127.0,127.0,127.0,118.0,87.0,-53.0
125.0,122.0,172.0,124.0,129.0,112.0,128.0,129.0,31.0,-120.0,-64.0,127.0,127.0,127.0,118.0,87.0,-53.0
125.0,122.0,172.0,124.0,129.0,112.0,128.0,129.0,31.0,-120.0,-64.0,127.0,127.0,127.0,118.0,87.0,-53.0
125.0,122.0,172.0,125.0,129.0,112.0,128.0,129.0,31.0,-120.0,-64.0,127.0,127.0,127.0,118.0,87.0,-53.0
126.0,122.0,173.0,125.0,129.0,112.0,128.0,129.0,31.0,-120.0,-64.0,127.0,127.0,127.0,118.0,87.0,-53.0
125.0,122.0,173.0,125.0,129.0,112.0,128.0,129.0,31.0,-120.0,-64.0,127.0,127.0,127.0,118.0,87.0,-53.0
125.0,122.0,173.0,125.0,129.0,112.0,128.0,129.0,31.0,-120.0,-64.0,127.0,127.0,127.0,118.0,87.0,-53.0
125.0,124.0,165.0,126.0,130.0,115.0,127.0,129.0,29.0,-119.0,-64.0,126.0,126.0,127.0,119.0,87.0,-53.0
125.0,124.0,165.0,126.0,130.0,115.0,127.0,129.0,29.0,-119.0,-64.0,126.0,126.0,127.0,119.0,87.0,-53.0
125.0,123.0,170.0,125.0,129.0,113.0,126.0,129.0,29.0,-119.0,-64.0,126.0,126.0,127.0,119.0,87.0,-53.0
125.0,123.0,170.0,125.0,129.0,113.0,127.0,129.0,29.0,-119.0,-64.0,126.0,126.0,127.0,119.0,87.0,-53.0
125.0,123.0,169.0,126.0,129.0,113.0,127.0,129.0,29.0,-119.0,-64.0,126.0,126.0,127.0,119.0,87.0,-53.0
125.0,123.0,169.0,126.0,129.0,114.0,127.0,129.0,29.0,-119.0,-64.0,126.0,126.0,127.0,119.0,87.0,-53.0
125.0,123.0,168.0,126.0,129.0,114.0,127.0,129.0,29.0,-119.0,-64.0,126.0,126.0,127.0,119.0,87.0,-53.0
125.0,123.0,167.0,126.0,130.0,114.0,127.0,129.0,29.0,-119.0,-64.0,126.0,126.0,127.0,119.0,87.0,-53.0
125.0,124.0,166.0,126.0,130.0,114.0,127.0,129.0,29.0,-119.0,-64.0,126.0,126.0,127.0,119.0,87.0,-53.0
125.0,124.0,166.0,126.0,130.0,114.0,127.0,129.0,29.0,-119.0,-64.0,126.0,126.0,127.0,119.0,87.0,-53.0
125.0,124.0,125.0,126.0,128.0,117.0,127.0,128.0,30.0,-120.0,-63.0,127.0,127.0,127.0,120.0,87.0,-53.0
124.0,124.0,127.0,126.0,127.0,117.0,126.0,129.0,30.0,-120.0,-63.0,127.0,127.0,127.0,120.0,87.0,-53.0
124.0,124.0,127.0,126.0,127.0,117.0,126.0,129.0,30.0,-120.0,-63.0,127.0,127.0,127.0,120.0,87.0,-53.0
124.0,124.0,126.0,126.0,127.0,117.0,126.0,129.0,30.0,-120.0,-63.0,127.0,127.0,127.0,120.0,87.0,-53.0
124.0,124.0,126.0,126.0,127.0,117.0,126.0,129.0,30.0,-120.0,-63.0,127.0,127.0,127.0,120.0,87.0,-53.0
124.0,124.0,126.0,126.0,128.0,117.0,126.0,129.0,30.0,-120.0,-63.0,127.0,127.0,127.0,120.0,87.0,-53.0
124.0,124.0,125.0,126.0,128.0,117.0,127.0,128.0,30.0,-120.0,-63.0,127.0,127.0,127.0,120.0,87.0,-53.0
125.0,124.0,125.0,126.0,128.0,117.0,127.0,128.0,30.0,-120.0,-63.0,127.0,127.0,127.0,120.0,87.0,-53.0
125.0,124.0,125.0,126.0,128.0,117.0,127.0,129.0,30.0,-120.0,-63.0,127.0,127.0,127.0,120.0,87.0,-53.0
125.0,124.0,125.0,126.0,128.0,117.0,127.0,129.0,30.0,-120.0,-63.0,127.0,127.0,127.0,120.0,87.0,-53.0
126.0,123.0,147.0,127.0,128.0,116.0,127.0,128.0,30.0,-122.0,-63.0,127.0,127.0,127.0,120.0,87.0,-53.0
126.0,123.0,147.0,127.0,128.0,115.0,127.0,128.0,30.0,-122.0,-63.0,127.0,127.0,127.0,120.0,87.0,-53.0
126.0,123.0,148.0,127.0,128.0,115.0,127.0,128.0,30.0,-122.0,-63.0,127.0,127.0,127.0,120.0,87.0,-53.0
126.0,123.0,149.0,127.0,128.0,115.0,127.0,128.0,30.0,-122.0,-63.0,127.0,127.0,127.0,120.0,87.0,-53.0
126.0,123.0,149.0,127.0,128.0,115.0,127.0,128.0,30.0,-122.0,-63.0,127.0,127.0,127.0,120.0,87.0,-53.0
126.0,123.0,150.0,126.0,128.0,115.0,127.0,128.0,30.0,-122.0,-63.0,127.0,127.0,127.0,120.0,87.0,-53.0
126.0,123.0,150.0,126.0,128.0,115.0,127.0,128.0,30.0,-122.0,-63.0,127.0,127.0,127.0,120.0,87.0,-53.0
127.0,123.0,151.0,126.0,128.0,115.0,127.0,128.0,30.0,-122.0,-63.0,127.0,127.0,127.0,120.0,87.0,-53.0
127.0,123.0,152.0,126.0,128.0,115.0,128.0,128.0,30.0,-122.0,-63.0,127.0,127.0,127.0,120.0,87.0,-53.0
127.0,123.0,152.0,126.0,128.0,115.0,128.0,128.0,30.0,-122.0,-63.0,127.0,127.0,127.0,120.0,87.0,-53.0
127.0,124.0,169.0,126.0,128.0,114.0,126.0,128.0,29.0,-121.0,-63.0,127.0,127.0,127.0,121.0,87.0,-53.0
127.0,124.0,170.0,126.0,128.0,113.0,127.0,129.0,29.0,-121.0,-63.0,127.0,127.0,127.0,121.0,87.0,-53.0
127.0,124.0,170.0,126.0,128.0,114.0,127.0,129.0,29.0,-121.0,-63.0,127.0,127.0,127.0,121.0,87.0,-53.0
127.0,124.0,170.0,126.0,128.0,114.0,127.0,129.0,29.0,-121.0,-63.0,127.0,127.0,127.0,121.0,87.0,-53.0
127.0,123.0,170.0,126.0,128.0,113.0,127.0,129.0,29.0,-121.0,-63.0,127.0,127.0,127.0,121.0,87.0,-53.0
127.0,124.0,169.0,126.0,128.0,113.0,127.0,128.0,29.0,-121.0,-63.0,127.0,127.0,127.0,121.0,87.0,-53.0
127.0,124.0,169.0,126.0,128.0,113.0,127.0,128.0,29.0,-121.0,-63.0,127.0,127.0,127.0,121.0,87.0,-53.0
127.0,124.0,169.0,126.0,128.0,113.0,127.0,128.0,29.0,-121.0,-63.0,127.0,127.0,127.0,121.0,87.0,-53.0
127.0,124.0,169.0,126.0,128.0,114.0,126.0,128.0,29.0,-121.0,-63.0,127.0,127.0,127.0,121.0,87.0,-53.0
127.0,124.0,169.0,126.0,128.0,114.0,126.0,128.0,29.0,-121.0,-63.0,127.0,127.0,127.0,121.0,87.0,-53.0
125.0,124.0,159.0,125.0,128.0,115.0,127.0,128.0,29.0,-120.0,-63.0,127.0,127.0,127.0,122.0,87.0,-53.0
125.0,124.0,159.0,126.0,128.0,115.0,127.0,128.0,29.0,-120.0,-63.0,127.0,127.0,127.0,122.0,87.0,-53.0
125.0,124.0,158.0,126.0,128.0,115.0,127.0,128.0,29.0,-120.0,-63.0,127.0,127.0,127.0,122.0,87.0,-53.0
125.0,124.0,158.0,125.0,127.0,115.0,127.0,128.0,29.0,-120.0,-63.0,127.0,127.0,127.0,122.0,87.0,-53.0
125.0,124.0,157.0,125.0,127.0,115.0,127.0,128.0,29.0,-120.0,-63.0,127.0,127.0,127.0,122.0,87.0,-53.0
125.0,124.0,157.0,125.0,127.0,115.0,127.0,128.0,29.0,-120.0,-63.0,127.0,127.0,127.0,122.0,87.0,-53.0
124.0,124.0,157.0,125.0,127.0,115.0,127.0,128.0,29.0,-120.0,-63.0,127.0,127.0,127.0,122.0,87.0,-53.0
125.0,123.0,161.0,125.0,128.0,115.0,127.0,128.0,29.0,-120.0,-63.0,127.0,127.0,127.0,122.0,87.0,-53.0
125.0,123.0,161.0,125.0,127.0,115.0,127.0,128.0,29.0,-120.0,-63.0,127.0,127.0,127.0,122.0,87.0,-53.0
125.0,123.0,160.0,125.0,127.0,115.0,127.0,128.0,29.0,-120.0,-63.0,127.0,127.0,127.0,122.0,87.0,-53.0
124.0,123.0,151.0,125.0,127.0,117.0,127.0,129.0,31.0,-121.0,-64.0,127.0,127.0,127.0,123.0,87.0,-53.0
124.0,123.0,151.0,125.0,127.0,117.0,127.0,129.0,31.0,-121.0,-64.0,127.0,127.0,127.0,123.0,87.0,-53.0
124.0,123.0,150.0,125.0,127.0,117.0,127.0,129.0,31.0,-121.0,-64.0,127.0,127.0,127.0,123.0,87.0,-53.0
124.0,123.0,150.0,126.0,128.0,117.0,127.0,129.0,31.0,-121.0,-64.0,127.0,127.0,127.0,123.0,87.0,-53.0
124.0,124.0,149.0,126.0,128.0,118.0,127.0,129.0,31.0,-121.0,-64.0,127.0,127.0,127.0,123.0,87.0,-53.0
124.0,124.0,148.0,126.0,128.0,118.0,128.0,129.0,31.0,-121.0,-64.0,127.0,127.0,127.0,123.0,87.0,-53.0
124.0,121.0,152.0,124.0,127.0,117.0,127.0,129.0,31.0,-121.0,-64.0,127.0,127.0,127.0,123.0,87.0,-53.0
124.0,122.0,152.0,124.0,127.0,117.0,127.0,129.0,31.0,-121.0,-64.0,127.0,127.0,127.0,123.0,87.0,-53.0
124.0,122.0,152.0,124.0,127.0,117.0,127.0,129.0,31.0,-121.0,-64.0,127.0,127.0,127.0,123.0,87.0,-53.0
124.0,122.0,151.0,125.0,127.0,117.0,127.0,129.0,31.0,-121.0,-64.0,127.0,127.0,127.0,123.0,87.0,-53.0
125.0,124.0,149.0,127.0,128.0,117.0,127.0,129.0,33.0,-122.0,-64.0,127.0,127.0,127.0,123.0,87.0,-53.0
125.0,124.0,149.0,127.0,128.0,117.0,127.0,128.0,33.0,-122.0,-64.0,127.0,127.0,127.0,123.0,87.0,-53.0
125.0,124.0,149.0,127.0,128.0,116.0,127.0,128.0,33.0,-122.0,-64.0,127.0,127.0,127.0,123.0,87.0,-53.0
125.0,124.0,149.0,127.0,128.0,116.0,127.0,128.0,33.0,-122.0,-64.0,127.0,127.0,127.0,123.0,87.0,-53.0
125.0,124.0,149.0,127.0,128.0,116.0,127.0,128.0,33.0,-122.0,-64.0,127.0,127.0,127.0,123.0,87.0,-53.0
125.0,124.0,148.0,126.0,127.0,117.0,126.0,128.0,33.0,-122.0,-64.0,127.0,127.0,127.0,123.0,87.0,-53.0
125.0,124.0,148.0,126.0,127.0,117.0,126.0,128.0,33.0,-122.0,-64.0,127.0,127.0,127.0,123.0,87.0,-53.0
125.0,124.0,148.0,126.0,127.0,117.0,127.0,128.0,33.0,-122.0,-64.0,127.0,127.0,127.0,123.0,87.0,-53.0
125.0,124.0,149.0,126.0,127.0,117.0,127.0,129.0,33.0,-122.0,-64.0,127.0,127.0,127.0,123.0,87.0,-53.0
125.0,124.0,149.0,127.0,128.0,117.0,127.0,128.0,33.0,-122.0,-64.0,127.0,127.0,127.0,123.0,87.0,-53.0
126.0,125.0,151.0,126.0,128.0,117.0,126.0,128.0,33.0,-122.0,-64.0,127.0,127.0,127.0,124.0,87.0,-53.0
126.0,125.0,151.0,126.0,128.0,117.0,126.0,128.0,33.0,-122.0,-64.0,127.0,127.0,127.0,124.0,87.0,-53.0
126.0,126.0,150.0,126.0,128.0,117.0,126.0,128.0,33.0,-122.0,-64.0,127.0,127.0,127.0,124.0,87.0,-53.0
126.0,125.0,150.0,126.0,128.0,117.0,126.0,128.0,33.0,-122.0,-64.0,127.0,127.0,127.0,124.0,87.0,-53.0
126.0,125.0,152.0,126.0,128.0,117.0,125.0,128.0,33.0,-122.0,-64.0,127.0,127.0,127.0,124.0,87.0,-53.0
126.0,125.0,152.0,126.0,128.0,117.0,125.0,128.0,33.0,-122.0,-64.0,127.0,127.0,127.0,124.0,87.0,-53.0
126.0,125.0,152.0,126.0,128.0,117.0,126.0,128.0,33.0,-122.0,-64.0,127.0,127.0,127.0,124.0,87.0,-53.0
126.0,125.0,152.0,126.0,128.0,117.0,125.0,128.0,33.0,-122.0,-64.0,127.0,127.0,127.0,124.0,87.0,-53.0
126.0,125.0,151.0,126.0,128.0,117.0,126.0,128.0,33.0,-122.0,-64.0,127.0,127.0,127.0,124.0,87.0,-53.0
126.0,125.0,151.0,126.0,128.0,117.0,126.0,128.0,33.0,-122.0,-64.0,127.0,127.0,127.0,124.0,87.0,-53.0
125.0,124.0,148.0,128.0,128.0,118.0,127.0,129.0,32.0,-121.0,-64.0,127.0,127.0,127.0,125.0,87.0,-53.0
125.0,124.0,147.0,128.0,128.0,118.0,127.0,129.0,32.0,-121.0,-64.0,127.0,127.0,127.0,125.0,87.0,-53.0
125.0,124.0,147.0,128.0,128.0,118.0,127.0,129.0,32.0,-121.0,-64.0,127.0,127.0,127.0,125.0,87.0,-53.0
125.0,123.0,150.0,126.0,128.0,117.0,126.0,129.0,32.0,-121.0,-64.0,127.0,127.0,127.0,125.0,87.0,-53.0
125.0,123.0,150.0,126.0,128.0,117.0,126.0,129.0,32.0,-121.0,-64.0,127.0,127.0,127.0,125.0,87.0,-53.0
125.0,123.0,149.0,127.0,128.0,117.0,126.0,129.0,32.0,-121.0,-64.0,127.0,127.0,127.0,125.0,87.0,-53.0
125.0,123.0,149.0,127.0,128.0,117.0,126.0,129.0,32.0,-121.0,-64.0,127.0,127.0,127.0,125.0,87.0,-53.0
125.0,124.0,148.0,127.0,128.0,117.0,126.0,129.0,32.0,-121.0,-64.0,127.0,127.0,127.0,125.0,87.0,-53.0
125.0,124.0,148.0,127.0,128.0,118.0,126.0,129.0,32.0,-121.0,-64.0,127.0,127.0,127.0,125.0,87.0,-53.0
125.0,124.0,148.0,128.0,128.0,118.0,126.0,129.0,32.0,-121.0,-64.0,127.0,127.0,127.0,125.0,87.0,-53.0
124.0,124.0,141.0,127.0,127.0,118.0,126.0,128.0,33.0,-121.0,-64.0,127.0,127.0,127.0,125.0,87.0,-53.0
124.0,124.0,141.0,127.0,127.0,118.0,127.0,128.0,33.0,-121.0,-64.0,127.0,127.0,127.0,125.0,87.0,-53.0
124.0,123.0,144.0,126.0,126.0,118.0,126.0,129.0,33.0,-121.0,-64.0,127.0,127.0,127.0,125.0,87.0,-53.0
124.0,123.0,144.0,126.0,126.0,118.0,126.0,128.0,33.0,-121.0,-64.0,127.0,127.0,127.0,125.0,87.0,-53.0
124.0,123.0,143.0,126.0,126.0,118.0,126.0,128.0,33.0,-121.0,-64.0,127.0,127.0,127.0,125.0,87.0,-53.0
124.0,123.0,143.0,126.0,126.0,118.0,126.0,128.0,33.0,-121.0,-64.0,127.0,127.0,127.0,125.0,87.0,-53.0
124.0,124.0,142.0,126.0,126.0,118.0,126.0,128.0,33.0,-121.0,-64.0,127.0,127.0,127.0,125.0,87.0,-53.0
124.0,124.0,142.0,126.0,126.0,118.0,126.0,128.0,33.0,-121.0,-64.0,127.0,127.0,127.0,125.0,87.0,-53.0
124.0,124.0,142.0,126.0,126.0,118.0,126.0,128.0,33.0,-121.0,-64.0,127.0,127.0,127.0,125.0,87.0,-53.0
124.0,124.0,142.0,127.0,126.0,118.0,126.0,128.0,33.0,-121.0,-64.0,127.0,127.0,127.0,125.0,87.0,-53.0
125.0,125.0,140.0,128.0,127.0,117.0,128.0,130.0,32.0,-122.0,-63.0,127.0,127.0,127.0,125.0,87.0,-53.0
125.0,123.0,144.0,128.0,128.0,118.0,128.0,130.0,32.0,-122.0,-63.0,127.0,127.0,127.0,125.0,87.0,-53.0
125.0,123.0,143.0,128.0,128.0,117.0,128.0,130.0,32.0,-122.0,-63.0,127.0,127.0,127.0,125.0,87.0,-53.0
125.0,123.0,143.0,128.0,127.0,117.0,128.0,130.0,32.0,-122.0,-63.0,127.0,127.0,127.0,125.0,87.0,-53.0
125.0,123.0,143.0,128.0,127.0,117.0,128.0,130.0,32.0,-122.0,-63.0,127.0,127.0,127.0,125.0,87.0,-53.0
125.0,124.0,142.0,128.0,127.0,117.0,128.0,130.0,32.0,-122.0,-63.0,127.0,127.0,127.0,125.0,87.0,-53.0
125.0,124.0,141.0,128.0,127.0,117.0,128.0,130.0,32.0,-122.0,-63.0,127.0,127.0,127.0,125.0,87.0,-53.0
125.0,125.0,141.0,128.0,127.0,117.0,128.0,130.0,32.0,-122.0,-63.0,127.0,127.0,127.0,125.0,87.0,-53.0
125.0,125.0,141.0,128.0,127.0,117.0,128.0,130.0,32.0,-122.0,-63.0,127.0,127.0,127.0,125.0,87.0,-53.0
125.0,125.0,141.0,128.0,128.0,117.0,128.0,130.0,32.0,-122.0,-63.0,127.0,127.0,127.0,125.0,87.0,-53.0
126.0,124.0,140.0,126.0,127.0,118.0,127.0,129.0,31.0,-121.0,-63.0,127.0,127.0,127.0,125.0,87.0,-53.0
126.0,124.0,140.0,126.0,128.0,118.0,127.0,129.0,31.0,-121.0,-63.0,127.0,127.0,127.0,125.0,87.0,-53.0
126.0,124.0,140.0,126.0,127.0,118.0,127.0,129.0,31.0,-121.0,-63.0,127.0,127.0,127.0,125.0,87.0,-53.0
126.0,124.0,140.0,127.0,127.0,118.0,127.0,129.0,31.0,-121.0,-63.0,127.0,127.0,127.0,125.0,87.0,-53.0
126.0,124.0,140.0,127.0,128.0,118.0,127.0,129.0,31.0,-121.0,-63.0,127.0,127.0,127.0,125.0,87.0,-53.0
126.0,124.0,140.0,127.0,128.0,119.0,127.0,129.0,31.0,-121.0,-63.0,127.0,127.0,127.0,125.0,87.0,-53.0
126.0,124.0,139.0,127.0,128.0,119.0,127.0,129.0,31.0,-121.0,-63.0,127.0,127.0,127.0,125.0,87.0,-53.0
126.0,124.0,139.0,127.0,128.0,119.0,127.0,129.0,31.0,-121.0,-63.0,127.0,127.0,127.0,125.0,87.0,-53.0
126.0,124.0,139.0,127.0,128.0,119.0,127.0,129.0,31.0,-121.0,-63.0,127.0,127.0,127.0,125.0,87.0,-53.0
126.0,124.0,139.0,127.0,128.0,119.0,127.0,129.0,31.0,-121.0,-63.0,127.0,127.0,127.0,125.0,87.0,-53.0
126.0,122.0,138.0,127.0,127.0,118.0,127.0,128.0,32.0,-122.0,-62.0,127.0,127.0,127.0,126.0,87.0,-53.0
126.0,122.0,138.0,126.0,127.0,118.0,127.0,128.0,32.0,-122.0,-62.0,127.0,127.0,127.0,126.0,87.0,-53.0
126.0,122.0,138.0,126.0,126.0,118.0,127.0,129.0,32.0,-122.0,-62.0,127.0,127.0,127.0,126.0,87.0,-53.0
125.0,122.0,138.0,126.0,126.0,118.0,127.0,128.0,32.0,-122.0,-62.0,127.0,127.0,127.0,126.0,87.0,-53.0
125.0,122.0,138.0,126.0,126.0,118.0,127.0,128.0,32.0,-122.0,-62.0,127.0,127.0,127.0,126.0,87.0,-53.0
125.0,122.0,138.0,126.0,126.0,118.0,127.0,128.0,32.0,-122.0,-62.0,127.0,127.0,127.0,126.0,87.0,-53.0
125.0,122.0,138.0,126.0,126.0,118.0,127.0,128.0,32.0,-122.0,-62.0,127.0,127.0,127.0,126.0,87.0,-53.0
126.0,123.0,137.0,126.0,127.0,118.0,127.0,128.0,32.0,-122.0,-62.0,127.0,127.0,127.0,126.0,87.0,-53.0
126.0,123.0,137.0,126.0,127.0,118.0,127.0,129.0,32.0,-122.0,-62.0,127.0,127.0,127.0,126.0,87.0,-53.0
126.0,123.0,138.0,127.0,127.0,118.0,127.0,129.0,32.0,-122.0,-62.0,127.0,127.0,127.0,126.0,87.0,-53.0
126.0,124.0,135.0,127.0,127.0,119.0,126.0,129.0,33.0,-122.0,-62.0,127.0,127.0,127.0,126.0,88.0,-53.0
126.0,125.0,135.0,127.0,127.0,119.0,126.0,129.0,33.0,-122.0,-62.0,127.0,127.0,127.0,126.0,88.0,-53.0
126.0,125.0,135.0,127.0,127.0,119.0,126.0,129.0,33.0,-122.0,-62.0,127.0,127.0,127.0,126.0,88.0,-53.0
126.0,125.0,134.0,127.0,127.0,119.0,126.0,129.0,33.0,-122.0,-62.0,127.0,127.0,127.0,126.0,88.0,-53.0
126.0,125.0,134.0,127.0,127.0,119.0,126.0,129.0,33.0,-122.0,-62.0,127.0,127.0,127.0,126.0,88.0,-53.0
126.0,125.0,134.0,127.0,127.0,119.0,126.0,129.0,33.0,-122.0,-62.0,127.0,127.0,127.0,126.0,88.0,-53.0
126.0,125.0,134.0,127.0,127.0,119.0,126.0,129.0,33.0,-122.0,-62.0,127.0,127.0,127.0,126.0,88.0,-53.0
126.0,125.0,134.0,127.0,127.0,119.0,126.0,129.0,33.0,-122.0,-62.0,127.0,127.0,127.0,126.0,88.0,-53.0
125.0,124.0,136.0,127.0,127.0,119.0,126.0,128.0,33.0,-122.0,-62.0,127.0,127.0,127.0,126.0,88.0,-53.0
125.0,124.0,136.0,127.0,127.0,118.0,126.0,128.0,33.0,-122.0,-62.0,127.0,127.0,127.0,126.0,88.0,-53.0
125.0,125.0,134.0,127.0,127.0,118.0,126.0,129.0,33.0,-123.0,-62.0,127.0,127.0,127.0,127.0,88.0,-53.0
125.0,125.0,134.0,127.0,127.0,118.0,126.0,129.0,33.0,-123.0,-62.0,127.0,127.0,127.0,127.0,88.0,-53.0
125.0,125.0,133.0,127.0,127.0,118.0,126.0,129.0,33.0,-123.0,-62.0,127.0,127.0,127.0,127.0,88.0,-53.0
125.0,125.0,133.0,127.0,127.0,118.0,126.0,129.0,33.0,-123.0,-62.0,127.0,127.0,127.0,127.0,88.0,-53.0
125.0,125.0,133.0,127.0,127.0,118.0,126.0,129.0,33.0,-123.0,-62.0,127.0,127.0,127.0,127.0,88.0,-53.0
125.0,125.0,133.0,127.0,127.0,118.0,126.0,129.0,33.0,-123.0,-62.0,127.0,127.0,127.0,127.0,88.0,-53.0
125.0,125.0,133.0,127.0,127.0,118.0,126.0,129.0,33.0,-123.0,-62.0,127.0,127.0,127.0,127.0,88.0,-53.0
125.0,124.0,135.0,127.0,127.0,118.0,126.0,129.0,33.0,-123.0,-62.0,127.0,127.0,127.0,127.0,88.0,-53.0
125.0,124.0,135.0,127.0,127.0,118.0,126.0,129.0,33.0,-123.0,-62.0,127.0,127.0,127.0,127.0,88.0,-53.0
125.0,125.0,134.0,127.0,127.0,118.0,126.0,129.0,33.0,-123.0,-62.0,127.0,127.0,127.0,127.0,88.0,-53.0
124.0,124.0,131.0,127.0,127.0,117.0,126.0,128.0,33.0,-123.0,-61.0,127.0,127.0,127.0,127.0,88.0,-53.0
124.0,125.0,130.0,127.0,127.0,117.0,126.0,128.0,33.0,-123.0,-61.0,127.0,127.0,127.0,127.0,88.0,-53.0
124.0,125.0,129.0,127.0,127.0,117.0,126.0,129.0,33.0,-123.0,-61.0,127.0,127.0,127.0,127.0,88.0,-53.0
124.0,125.0,129.0,128.0,127.0,117.0,126.0,129.0,33.0,-123.0,-61.0,127.0,127.0,127.0,127.0,88.0,-53.0
124.0,125.0,128.0,128.0,127.0,117.0,127.0,129.0,33.0,-123.0,-61.0,127.0,127.0,127.0,127.0,88.0,-53.0
124.0,125.0,128.0,128.0,127.0,117.0,127.0,129.0,33.0,-123.0,-61.0,127.0,127.0,127.0,127.0,88.0,-53.0
125.0,124.0,131.0,126.0,127.0,117.0,126.0,128.0,33.0,-123.0,-61.0,127.0,127.0,127.0,127.0,88.0,-53.0
125.0,124.0,131.0,126.0,127.0,117.0,126.0,129.0,33.0,-123.0,-61.0,127.0,127.0,127.0,127.0,88.0,-53.0
125.0,124.0,131.0,127.0,127.0,117.0,126.0,128.0,33.0,-123.0,-61.0,127.0,127.0,127.0,127.0,88.0,-53.0
125.0,124.0,131.0,127.0,127.0,117.0,126.0,129.0,33.0,-123.0,-61.0,127.0,127.0,127.0,127.0,88.0,-53.0
123.0,124.0,110.0,128.0,127.0,117.0,126.0,129.0,33.0,-124.0,-61.0,127.0,127.0,127.0,127.0,88.0,-53.0
124.0,125.0,110.0,128.0,127.0,117.0,126.0,129.0,33.0,-124.0,-61.0,127.0,127.0,127.0,127.0,88.0,-53.0
124.0,125.0,110.0,128.0,127.0,117.0,126.0,129.0,33.0,-124.0,-61.0,127.0,127.0,127.0,127.0,88.0,-53.0
124.0,125.0,110.0,128.0,127.0,117.0,126.0,129.0,33.0,-124.0,-61.0,127.0,127.0,127.0,127.0,88.0,-53.0
124.0,125.0,109.0,128.0,127.0,117.0,126.0,129.0,33.0,-124.0,-61.0,127.0,127.0,127.0,127.0,88.0,-53.0
123.0,124.0,112.0,127.0,127.0,117.0,125.0,129.0,33.0,-124.0,-61.0,127.0,127.0,127.0,127.0,88.0,-53.0
123.0,124.0,112.0,128.0,127.0,117.0,126.0,129.0,33.0,-124.0,-61.0,127.0,127.0,127.0,127.0,88.0,-53.0
123.0,124.0,112.0,128.0,127.0,117.0,126.0,129.0,33.0,-124.0,-61.0,127.0,127.0,127.0,127.0,88.0,-53.0
123.0,124.0,111.0,128.0,127.0,117.0,126.0,129.0,33.0,-124.0,-61.0,127.0,127.0,127.0,127.0,88.0,-53.0
123.0,124.0,111.0,128.0,127.0,117.0,126.0,129.0,33.0,-124.0,-61.0,127.0,127.0,127.0,127.0,88.0,-53.0
124.0,125.0,97.0,129.0,127.0,117.0,126.0,129.0,33.0,-124.0,-60.0,127.0,127.0,127.0,127.0,88.0,-53.0
124.0,125.0,97.0,129.0,127.0,117.0,127.0,129.0,33.0,-124.0,-60.0,127.0,127.0,127.0,127.0,88.0,-53.0
124.0,125.0,97.0,129.0,127.0,117.0,127.0,129.0,33.0,-124.0,-60.0,127.0,127.0,127.0,127.0,88.0,-53.0
124.0,125.0,96.0,129.0,127.0,116.0,127.0,129.0,33.0,-124.0,-60.0,127.0,127.0,127.0,127.0,88.0,-53.0
124.0,125.0,100.0,128.0,127.0,117.0,126.0,129.0,33.0,-124.0,-60.0,127.0,127.0,127.0,127.0,88.0,-53.0
124.0,124.0,100.0,128.0,127.0,117.0,126.0,129.0,33.0,-124.0,-60.0,127.0,127.0,127.0,127.0,88.0,-53.0
124.0,124.0,99.0,128.0,127.0,117.0,127.0,129.0,33.0,-124.0,-60.0,127.0,127.0,127.0,127.0,88.0,-53.0
124.0,124.0,99.0,128.0,127.0,117.0,127.0,129.0,33.0,-124.0,-60.0,127.0,127.0,127.0,127.0,88.0,-53.0
124.0,125.0,99.0,128.0,127.0,117.0,127.0,129.0,33.0,-124.0,-60.0,127.0,127.0,127.0,127.0,88.0,-53.0
124.0,125.0,98.0,128.0,127.0,117.0,126.0,129.0,33.0,-124.0,-60.0,127.0,127.0,127.0,127.0,88.0,-53.0
123.0,125.0,100.0,130.0,127.0,115.0,126.0,129.0,33.0,-124.0,-60.0,-128.0,127.0,127.0,127.0,88.0,-53.0
123.0,125.0,99.0,130.0,127.0,115.0,126.0,129.0,33.0,-124.0,-60.0,-128.0,127.0,127.0,127.0,88.0,-53.0
123.0,125.0,99.0,130.0,127.0,115.0,127.0,129.0,33.0,-124.0,-60.0,-128.0,127.0,127.0,127.0,88.0,-53.0
123.0,124.0,101.0,130.0,127.0,115.0,126.0,129.0,33.0,-124.0,-60.0,-128.0,127.0,127.0,127.0,88.0,-53.0
123.0,124.0,101.0,130.0,127.0,115.0,126.0,129.0,33.0,-124.0,-60.0,-128.0,127.0,127.0,127.0,88.0,-53.0
123.0,124.0,101.0,130.0,127.0,115.0,126.0,129.0,33.0,-124.0,-60.0,-128.0,127.0,127.0,127.0,88.0,-53.0
123.0,124.0,101.0,130.0,127.0,115.0,126.0,129.0,33.0,-124.0,-60.0,-128.0,127.0,127.0,127.0,88.0,-53.0
123.0,124.0,101.0,130.0,127.0,115.0,126.0,129.0,33.0,-124.0,-60.0,-128.0,127.0,127.0,127.0,88.0,-53.0
123.0,124.0,101.0,130.0,127.0,115.0,126.0,129.0,33.0,-124.0,-60.0,-128.0,127.0,127.0,127.0,88.0,-53.0
123.0,125.0,100.0,130.0,127.0,115.0,126.0,129.0,33.0,-124.0,-60.0,-128.0,127.0,127.0,127.0,88.0,-53.0
123.0,126.0,85.0,130.0,127.0,114.0,127.0,129.0,33.0,-124.0,-60.0,-128.0,127.0,127.0,127.0,88.0,-53.0
123.0,126.0,84.0,130.0,127.0,114.0,127.0,129.0,33.0,-124.0,-60.0,-128.0,127.0,127.0,127.0,88.0,-53.0
123.0,125.0,89.0,130.0,127.0,114.0,127.0,129.0,33.0,-124.0,-60.0,-128.0,127.0,127.0,127.0,88.0,-53.0
123.0,125.0,89.0,130.0,127.0,114.0,127.0,129.0,33.0,-124.0,-60.0,-128.0,127.0,127.0,127.0,88.0,-53.0
123.0,125.0,89.0,130.0,127.0,114.0,127.0,129.0,33.0,-124.0,-60.0,-128.0,127.0,127.0,127.0,88.0,-53.0
123.0,125.0,88.0,130.0,127.0,114.0,127.0,129.0,33.0,-124.0,-60.0,-128.0,127.0,127.0,127.0,88.0,-53.0
123.0,125.0,88.0,130.0,127.0,114.0,127.0,129.0,33.0,-124.0,-60.0,-128.0,127.0,127.0,127.0,88.0,-53.0
123.0,125.0,87.0,130.0,127.0,114.0,127.0,129.0,33.0,-124.0,-60.0,-128.0,127.0,127.0,127.0,88.0,-53.0
123.0,126.0,86.0,130.0,127.0,114.0,127.0,129.0,33.0,-124.0,-60.0,-128.0,127.0,127.0,127.0,88.0,-53.0
123.0,126.0,86.0,130.0,127.0,114.0,127.0,129.0,33.0,-124.0,-60.0,-128.0,127.0,127.0,127.0,88.0,-53.0
122.0,127.0,88.0,127.0,128.0,115.0,127.0,129.0,34.0,-124.0,-61.0,-128.0,127.0,127.0,127.0,88.0,-53.0
122.0,126.0,86.0,128.0,127.0,115.0,128.0,129.0,34.0,-124.0,-61.0,-128.0,127.0,127.0,127.0,88.0,-53.0
122.0,126.0,86.0,128.0,128.0,115.0,128.0,130.0,34.0,-124.0,-61.0,-128.0,127.0,127.0,127.0,88.0,-53.0
122.0,126.0,87.0,128.0,127.0,115.0,128.0,130.0,34.0,-124.0,-61.0,-128.0,127.0,127.0,127.0,88.0,-53.0
122.0,126.0,87.0,128.0,127.0,115.0,128.0,129.0,34.0,-124.0,-61.0,-128.0,127.0,127.0,127.0,88.0,-53.0
122.0,126.0,87.0,128.0,128.0,115.0,128.0,130.0,34.0,-124.0,-61.0,-128.0,127.0,127.0,127.0,88.0,-53.0
122.0,126.0,87.0,128.0,127.0,115.0,128.0,130.0,34.0,-124.0,-61.0,-128.0,127.0,127.0,127.0,88.0,-53.0
122.0,126.0,88.0,128.0,128.0,115.0,128.0,129.0,34.0,-124.0,-61.0,-128.0,127.0,127.0,127.0,88.0,-53.0
122.0,127.0,88.0,128.0,128.0,115.0,128.0,129.0,34.0,-124.0,-61.0,-128.0,127.0,127.0,127.0,88.0,-53.0
122.0,127.0,88.0,127.0,128.0,115.0,128.0,129.0,34.0,-124.0,-61.0,-128.0,127.0,127.0,127.0,88.0,-53.0
122.0,127.0,116.0,127.0,127.0,116.0,126.0,129.0,35.0,-123.0,-61.0,-128.0,127.0,127.0,127.0,88.0,-53.0
122.0,128.0,116.0,127.0,127.0,116.0,126.0,129.0,35.0,-123.0,-61.0,-128.0,127.0,127.0,127.0,88.0,-53.0
122.0,128.0,117.0,127.0,127.0,116.0,127.0,129.0,35.0,-123.0,-61.0,-128.0,127.0,127.0,127.0,88.0,-53.0
123.0,127.0,117.0,126.0,127.0,116.0,127.0,129.0,35.0,-123.0,-61.0,-128.0,127.0,127.0,127.0,88.0,-53.0
123.0,128.0,117.0,126.0,127.0,116.0,127.0,129.0,35.0,-123.0,-61.0,-128.0,127.0,127.0,127.0,88.0,-53.0
123.0,128.0,118.0,126.0,127.0,116.0,127.0,129.0,35.0,-123.0,-61.0,-128.0,127.0,127.0,127.0,88.0,-53.0
123.0,128.0,118.0,126.0,127.0,115.0,127.0,129.0,35.0,-123.0,-61.0,-128.0,127.0,127.0,127.0,88.0,-53.0
123.0,128.0,118.0,126.0,127.0,115.0,127.0,129.0,35.0,-123.0,-61.0,-128.0,127.0,127.0,127.0,88.0,-53.0
123.0,128.0,118.0,126.0,127.0,115.0,127.0,129.0,35.0,-123.0,-61.0,-128.0,127.0,127.0,127.0,88.0,-53.0
123.0,128.0,117.0,126.0,127.0,116.0,127.0,129.0,35.0,-123.0,-61.0,-128.0,127.0,127.0,127.0,88.0,-53.0
123.0,128.0,117.0,126.0,126.0,116.0,125.0,129.0,36.0,-121.0,-62.0,-127.0,127.0,127.0,127.0,88.0,-53.0
123.0,128.0,117.0,126.0,127.0,116.0,125.0,129.0,36.0,-121.0,-62.0,-127.0,127.0,127.0,127.0,88.0,-53.0
123.0,128.0,117.0,126.0,127.0,117.0,125.0,129.0,36.0,-121.0,-62.0,-127.0,127.0,127.0,127.0,88.0,-53.0
123.0,128.0,116.0,126.0,127.0,117.0,125.0,129.0,36.0,-121.0,-62.0,-127.0,127.0,127.0,127.0,88.0,-53.0
123.0,128.0,116.0,126.0,127.0,117.0,125.0,129.0,36.0,-121.0,-62.0,-127.0,127.0,127.0,127.0,88.0,-53.0
123.0,129.0,116.0,126.0,127.0,117.0,125.0,129.0,36.0,-121.0,-62.0,-127.0,127.0,127.0,127.0,88.0,-53.0
123.0,129.0,116.0,126.0,127.0,117.0,125.0,129.0,36.0,-121.0,-62.0,-127.0,127.0,127.0,127.0,88.0,-53.0
123.0,129.0,116.0,126.0,127.0,117.0,126.0,129.0,36.0,-121.0,-62.0,-127.0,127.0,127.0,127.0,88.0,-53.0
123.0,129.0,117.0,126.0,127.0,116.0,126.0,129.0,36.0,-121.0,-62.0,-127.0,127.0,127.0,127.0,88.0,-53.0
123.0,128.0,117.0,126.0,127.0,117.0,125.0,129.0,36.0,-121.0,-62.0,-127.0,127.0,127.0,127.0,88.0,-53.0
124.0,127.0,131.0,127.0,127.0,115.0,125.0,129.0,36.0,-119.0,-62.0,-127.0,127.0,127.0,127.0,88.0,-53.0
124.0,128.0,131.0,127.0,126.0,116.0,125.0,129.0,36.0,-119.0,-62.0,-127.0,127.0,127.0,127.0,88.0,-53.0
124.0,128.0,130.0,127.0,127.0,116.0,125.0,129.0,36.0,-119.0,-62.0,-127.0,127.0,127.0,127.0,88.0,-53.0
124.0,128.0,130.0,127.0,127.0,116.0,125.0,129.0,36.0,-119.0,-62.0,-127.0,127.0,127.0,127.0,88.0,-53.0
124.0,128.0,130.0,127.0,127.0,116.0,125.0,129.0,36.0,-119.0,-62.0,-127.0,127.0,127.0,127.0,88.0,-53.0
124.0,128.0,130.0,128.0,127.0,116.0,126.0,129.0,36.0,-119.0,-62.0,-127.0,127.0,127.0,127.0,88.0,-53.0
124.0,129.0,129.0,128.0,127.0,116.0,126.0,129.0,36.0,-119.0,-62.0,-127.0,127.0,127.0,127.0,88.0,-53.0
124.0,129.0,129.0,128.0,127.0,116.0,126.0,129.0,36.0,-119.0,-62.0,-127.0,127.0,127.0,127.0,88.0,-53.0
124.0,127.0,131.0,127.0,127.0,116.0,125.0,129.0,36.0,-119.0,-62.0,-127.0,127.0,127.0,127.0,88.0,-53.0
124.0,127.0,131.0,127.0,127.0,115.0,125.0,129.0,36.0,-119.0,-62.0,-127.0,127.0,127.0,127.0,88.0,-53.0
124.0,128.0,120.0,129.0,127.0,115.0,127.0,129.0,35.0,-118.0,-62.0,-127.0,127.0,127.0,127.0,88.0,-53.0
124.0,129.0,119.0,129.0,127.0,115.0,127.0,129.0,35.0,-118.0,-62.0,-127.0,127.0,127.0,127.0,88.0,-53.0
124.0,129.0,118.0,129.0,127.0,115.0,127.0,129.0,35.0,-118.0,-62.0,-127.0,127.0,127.0,127.0,88.0,-53.0
124.0,129.0,118.0,129.0,127.0,115.0,127.0,129.0,35.0,-118.0,-62.0,-127.0,127.0,127.0,127.0,88.0,-53.0
124.0,129.0,118.0,129.0,127.0,115.0,127.0,129.0,35.0,-118.0,-62.0,-127.0,127.0,127.0,127.0,88.0,-53.0
124.0,129.0,117.0,129.0,127.0,115.0,127.0,129.0,35.0,-118.0,-62.0,-127.0,127.0,127.0,127.0,88.0,-53.0
124.0,129.0,117.0,129.0,127.0,115.0,127.0,129.0,35.0,-118.0,-62.0,-127.0,127.0,127.0,127.0,88.0,-53.0
124.0,128.0,121.0,129.0,127.0,115.0,127.0,129.0,35.0,-118.0,-62.0,-127.0,127.0,127.0,127.0,88.0,-53.0
124.0,128.0,121.0,129.0,127.0,115.0,127.0,129.0,35.0,-118.0,-62.0,-127.0,127.0,127.0,127.0,88.0,-53.0
124.0,128.0,120.0,129.0,127.0,115.0,127.0,129.0,35.0,-118.0,-62.0,-127.0,127.0,127.0,127.0,88.0,-53.0
123.0,129.0,146.0,130.0,127.0,113.0,127.0,129.0,34.0,-117.0,-63.0,-127.0,127.0,127.0,127.0,88.0,-53.0
123.0,129.0,147.0,130.0,128.0,113.0,127.0,129.0,34.0,-117.0,-63.0,-127.0,127.0,127.0,127.0,88.0,-53.0
123.0,129.0,148.0,130.0,128.0,113.0,127.0,129.0,34.0,-117.0,-63.0,-127.0,127.0,127.0,127.0,88.0,-53.0
123.0,130.0,149.0,130.0,128.0,113.0,127.0,130.0,34.0,-117.0,-63.0,-127.0,127.0,127.0,127.0,88.0,-53.0
123.0,130.0,150.0,130.0,128.0,113.0,127.0,129.0,34.0,-117.0,-63.0,-127.0,127.0,127.0,127.0,88.0,-53.0
123.0,130.0,151.0,130.0,128.0,113.0,127.0,130.0,34.0,-117.0,-63.0,-127.0,127.0,127.0,127.0,88.0,-53.0
123.0,129.0,142.0,130.0,127.0,113.0,127.0,129.0,34.0,-117.0,-63.0,-127.0,127.0,127.0,127.0,88.0,-53.0
123.0,129.0,143.0,130.0,127.0,113.0,127.0,129.0,34.0,-117.0,-63.0,-127.0,127.0,127.0,127.0,88.0,-53.0
123.0,129.0,144.0,130.0,127.0,113.0,127.0,129.0,34.0,-117.0,-63.0,-127.0,127.0,127.0,127.0,88.0,-53.0
123.0,129.0,145.0,130.0,127.0,113.0,127.0,129.0,34.0,-117.0,-63.0,-127.0,127.0,127.0,127.0,88.0,-53.0
122.0,130.0,186.0,128.0,128.0,117.0,129.0,130.0,35.0,-116.0,-63.0,-127.0,127.0,127.0,127.0,88.0,-53.0
122.0,130.0,186.0,128.0,128.0,117.0,129.0,130.0,35.0,-116.0,-63.0,-127.0,127.0,127.0,127.0,88.0,-53.0
122.0,130.0,186.0,128.0,128.0,117.0,129.0,130.0,35.0,-116.0,-63.0,-127.0,127.0,127.0,127.0,88.0,-53.0
122.0,130.0,185.0,128.0,128.0,117.0,129.0,130.0,35.0,-116.0,-63.0,-127.0,127.0,127.0,127.0,88.0,-53.0
122.0,130.0,185.0,128.0,128.0,117.0,129.0,130.0,35.0,-116.0,-63.0,-127.0,127.0,127.0,127.0,88.0,-53.0
122.0,129.0,187.0,128.0,128.0,116.0,129.0,129.0,35.0,-116.0,-63.0,-127.0,127.0,127.0,127.0,88.0,-53.0
122.0,129.0,187.0,128.0,128.0,116.0,129.0,129.0,35.0,-116.0,-63.0,-127.0,127.0,127.0,127.0,88.0,-53.0
122.0,129.0,187.0,128.0,128.0,116.0,129.0,129.0,35.0,-116.0,-63.0,-127.0,127.0,127.0,127.0,88.0,-53.0
122.0,129.0,187.0,128.0,128.0,116.0,129.0,129.0,35.0,-116.0,-63.0,-127.0,127.0,127.0,127.0,88.0,-53.0
122.0,130.0,186.0,128.0,128.0,116.0,129.0,129.0,35.0,-116.0,-63.0,-127.0,127.0,127.0,127.0,88.0,-53.0
124.0,129.0,168.0,125.0,126.0,117.0,126.0,129.0,36.0,-116.0,-63.0,-127.0,127.0,127.0,127.0,88.0,-53.0
124.0,129.0,167.0,125.0,126.0,117.0,126.0,129.0,36.0,-116.0,-63.0,-127.0,127.0,127.0,127.0,88.0,-53.0
124.0,129.0,167.0,125.0,126.0,118.0,126.0,129.0,36.0,-116.0,-63.0,-127.0,127.0,127.0,127.0,88.0,-53.0
124.0,129.0,166.0,125.0,126.0,118.0,126.0,129.0,36.0,-116.0,-63.0,-127.0,127.0,127.0,127.0,88.0,-53.0
123.0,128.0,171.0,126.0,126.0,117.0,127.0,129.0,36.0,-116.0,-63.0,-127.0,127.0,127.0,127.0,88.0,-53.0
123.0,128.0,171.0,125.0,126.0,117.0,127.0,129.0,36.0,-116.0,-63.0,-127.0,127.0,127.0,127.0,88.0,-53.0
123.0,128.0,170.0,125.0,126.0,117.0,127.0,129.0,36.0,-116.0,-63.0,-127.0,127.0,127.0,127.0,88.0,-53.0
123.0,128.0,170.0,125.0,126.0,117.0,127.0,129.0,36.0,-116.0,-63.0,-127.0,127.0,127.0,127.0,88.0,-53.0
123.0,129.0,169.0,125.0,126.0,117.0,126.0,129.0,36.0,-116.0,-63.0,-127.0,127.0,127.0,127.0,88.0,-53.0
123.0,129.0,168.0,125.0,126.0,117.0,126.0,129.0,36.0,-116.0,-63.0,-127.0,127.0,127.0,127.0,88.0,-53.0
125.0,128.0,152.0,122.0,126.0,124.0,123.0,128.0,35.0,-116.0,-63.0,-127.0,127.0,127.0,127.0,88.0,-53.0
125.0,128.0,151.0,122.0,126.0,124.0,123.0,128.0,35.0,-116.0,-63.0,-127.0,127.0,127.0,127.0,88.0,-53.0
125.0,128.0,151.0,122.0,126.0,124.0,123.0,128.0,35.0,-116.0,-63.0,-127.0,127.0,127.0,127.0,88.0,-53.0
125.0,127.0,156.0,122.0,126.0,123.0,123.0,128.0,35.0,-116.0,-63.0,-127.0,127.0,127.0,127.0,88.0,-53.0
125.0,127.0,155.0,122.0,126.0,123.0,123.0,128.0,35.0,-116.0,-63.0,-127.0,127.0,127.0,127.0,88.0,-53.0
125.0,127.0,155.0,122.0,126.0,123.0,123.0,128.0,35.0,-116.0,-63.0,-127.0,127.0,127.0,127.0,88.0,-53.0
125.0,127.0,154.0,122.0,126.0,123.0,123.0,128.0,35.0,-116.0,-63.0,-127.0,127.0,127.0,127.0,88.0,-53.0
125.0,127.0,153.0,122.0,126.0,123.0,123.0,128.0,35.0,-116.0,-63.0,-127.0,127.0,127.0,127.0,88.0,-53.0
125.0,127.0,153.0,122.0,126.0,123.0,123.0,128.0,35.0,-116.0,-63.0,-127.0,127.0,127.0,127.0,88.0,-53.0
125.0,127.0,152.0,122.0,126.0,123.0,123.0,128.0,35.0,-116.0,-63.0,-127.0,127.0,127.0,127.0,88.0,-53.0
128.0,127.0,232.0,124.0,126.0,127.0,124.0,127.0,32.0,-115.0,-63.0,-127.0,127.0,127.0,127.0,88.0,-53.0
128.0,127.0,234.0,124.0,126.0,127.0,124.0,127.0,32.0,-115.0,-63.0,-127.0,127.0,127.0,127.0,88.0,-53.0
127.0,126.0,220.0,123.0,126.0,127.0,123.0,127.0,32.0,-115.0,-63.0,-127.0,127.0,127.0,127.0,88.0,-53.0
127.0,126.0,221.0,123.0,126.0,127.0,123.0,127.0,32.0,-115.0,-63.0,-127.0,127.0,127.0,127.0,88.0,-53.0
127.0,127.0,222.0,123.0,126.0,127.0,123.0,127.0,32.0,-115.0,-63.0,-127.0,127.0,127.0,127.0,88.0,-53.0
127.0,127.0,224.0,123.0,126.0,127.0,123.0,127.0,32.0,-115.0,-63.0,-127.0,127.0,127.0,127.0,88.0,-53.0
127.0,127.0,226.0,123.0,126.0,127.0,123.0,127.0,32.0,-115.0,-63.0,-127.0,127.0,127.0,127.0,88.0,-53.0
127.0,127.0,227.0,123.0,126.0,127.0,123.0,127.0,32.0,-115.0,-63.0,-127.0,127.0,127.0,127.0,88.0,-53.0
127.0,127.0,229.0,123.0,126.0,127.0,123.0,127.0,32.0,-115.0,-63.0,-127.0,127.0,127.0,127.0,88.0,-53.0
128.0,127.0,231.0,124.0,126.0,127.0,123.0,127.0,32.0,-115.0,-63.0,-127.0,127.0,127.0,127.0,88.0,-53.0
128.0,128.0,254.0,126.0,127.0,127.0,125.0,127.0,29.0,-113.0,-63.0,-127.0,127.0,127.0,127.0,88.0,-53.0
128.0,127.0,254.0,126.0,127.0,127.0,124.0,127.0,29.0,-113.0,-63.0,-127.0,127.0,127.0,127.0,88.0,-53.0
128.0,127.0,254.0,126.0,127.0,127.0,124.0,127.0,29.0,-113.0,-63.0,-127.0,127.0,127.0,127.0,88.0,-53.0
128.0,128.0,254.0,126.0,127.0,127.0,124.0,127.0,29.0,-113.0,-63.0,-127.0,127.0,127.0,127.0,88.0,-53.0
128.0,128.0,254.0,126.0,127.0,127.0,124.0,127.0,29.0,-113.0,-63.0,-127.0,127.0,127.0,127.0,88.0,-53.0
128.0,128.0,254.0,126.0,127.0,127.0,125.0,127.0,29.0,-113.0,-63.0,-127.0,127.0,127.0,127.0,88.0,-53.0
128.0,128.0,254.0,126.0,127.0,127.0,125.0,127.0,29.0,-113.0,-63.0,-127.0,127.0,127.0,127.0,88.0,-53.0
128.0,128.0,254.0,126.0,127.0,127.0,125.0,127.0,29.0,-113.0,-63.0,-127.0,127.0,127.0,127.0,88.0,-53.0
128.0,128.0,254.0,126.0,127.0,127.0,125.0,127.0,29.0,-113.0,-63.0,-127.0,127.0,127.0,127.0,88.0,-53.0
128.0,128.0,254.0,126.0,127.0,127.0,125.0,127.0,29.0,-113.0,-63.0,-127.0,127.0,127.0,127.0,88.0,-53.0
128.0,127.0,254.0,127.0,127.0,127.0,126.0,127.0,26.0,-112.0,-63.0,-127.0,127.0,127.0,127.0,88.0,-53.0
128.0,127.0,254.0,127.0,127.0,126.0,126.0,127.0,26.0,-112.0,-63.0,-127.0,127.0,127.0,127.0,88.0,-53.0
128.0,128.0,254.0,127.0,127.0,127.0,126.0,127.0,26.0,-112.0,-63.0,-127.0,127.0,127.0,127.0,88.0,-53.0
128.0,128.0,254.0,127.0,127.0,127.0,126.0,127.0,26.0,-112.0,-63.0,-127.0,127.0,127.0,127.0,88.0,-53.0
128.0,127.0,254.0,127.0,127.0,127.0,126.0,127.0,26.0,-112.0,-63.0,-127.0,127.0,127.0,127.0,88.0,-53.0
128.0,128.0,254.0,127.0,127.0,127.0,126.0,127.0,26.0,-112.0,-63.0,-127.0,127.0,127.0,127.0,88.0,-53.0
128.0,128.0,254.0,127.0,127.0,126.0,126.0,127.0,26.0,-112.0,-63.0,-127.0,127.0,127.0,127.0,88.0,-53.0
128.0,128.0,254.0,127.0,127.0,126.0,126.0,127.0,26.0,-112.0,-63.0,-127.0,127.0,127.0,127.0,88.0,-53.0
128.0,128.0,254.0,127.0,127.0,126.0,126.0,127.0,26.0,-112.0,-63.0,-127.0,127.0,127.0,127.0,88.0,-53.0
128.0,128.0,254.0,127.0,127.0,126.0,126.0,127.0,26.0,-112.0,-63.0,-127.0,127.0,127.0,127.0,88.0,-53.0
128.0,128.0,254.0,126.0,126.0,126.0,126.0,128.0,25.0,-112.0,-63.0,-128.0,127.0,127.0,126.0,88.0,-53.0
128.0,128.0,254.0,126.0,126.0,126.0,126.0,128.0,25.0,-112.0,-63.0,-128.0,127.0,127.0,126.0,88.0,-53.0
128.0,128.0,254.0,126.0,127.0,126.0,126.0,128.0,25.0,-112.0,-63.0,-128.0,127.0,127.0,126.0,88.0,-53.0
128.0,128.0,254.0,126.0,126.0,126.0,126.0,128.0,25.0,-112.0,-63.0,-128.0,127.0,127.0,126.0,88.0,-53.0
128.0,128.0,254.0,126.0,126.0,126.0,126.0,128.0,25.0,-112.0,-63.0,-128.0,127.0,127.0,126.0,88.0,-53.0
128.0,128.0,254.0,126.0,126.0,126.0,126.0,128.0,25.0,-112.0,-63.0,-128.0,127.0,127.0,126.0,88.0,-53.0
128.0,128.0,254.0,126.0,126.0,126.0,126.0,128.0,25.0,-112.0,-63.0,-128.0,127.0,127.0,126.0,88.0,-53.0
128.0,128.0,254.0,126.0,126.0,125.0,126.0,128.0,25.0,-112.0,-63.0,-128.0,127.0,127.0,126.0,88.0,-53.0
128.0,128.0,254.0,126.0,126.0,125.0,126.0,128.0,25.0,-112.0,-63.0,-128.0,127.0,127.0,126.0,88.0,-53.0
128.0,127.0,254.0,126.0,126.0,126.0,126.0,128.0,25.0,-112.0,-63.0,-128.0,127.0,127.0,126.0,88.0,-53.0
127.0,128.0,254.0,127.0,128.0,125.0,126.0,128.0,24.0,-112.0,-63.0,-128.0,127.0,127.0,126.0,88.0,-53.0
128.0,128.0,254.0,127.0,128.0,125.0,127.0,128.0,24.0,-112.0,-63.0,-128.0,127.0,127.0,126.0,88.0,-53.0
127.0,128.0,254.0,127.0,128.0,124.0,127.0,128.0,24.0,-112.0,-63.0,-128.0,127.0,127.0,126.0,88.0,-53.0
128.0,128.0,254.0,127.0,128.0,124.0,127.0,128.0,24.0,-112.0,-63.0,-128.0,127.0,127.0,126.0,88.0,-53.0
127.0,128.0,254.0,127.0,128.0,124.0,127.0,128.0,24.0,-112.0,-63.0,-128.0,127.0,127.0,126.0,88.0,-53.0
127.0,128.0,254.0,127.0,128.0,124.0,127.0,128.0,24.0,-112.0,-63.0,-128.0,127.0,127.0,126.0,88.0,-53.0
128.0,128.0,254.0,127.0,128.0,124.0,127.0,128.0,24.0,-112.0,-63.0,-128.0,127.0,127.0,126.0,88.0,-53.0
128.0,128.0,254.0,127.0,128.0,124.0,127.0,128.0,24.0,-112.0,-63.0,-128.0,127.0,127.0,126.0,88.0,-53.0
127.0,127.0,254.0,127.0,127.0,124.0,127.0,128.0,24.0,-112.0,-63.0,-128.0,127.0,127.0,126.0,88.0,-53.0
127.0,127.0,254.0,127.0,128.0,124.0,127.0,128.0,24.0,-112.0,-63.0,-128.0,127.0,127.0,126.0,88.0,-53.0
127.0,128.0,254.0,128.0,128.0,125.0,127.0,129.0,24.0,-112.0,-63.0,-128.0,127.0,127.0,126.0,88.0,-53.0
127.0,128.0,254.0,128.0,128.0,124.0,127.0,129.0,24.0,-112.0,-63.0,-128.0,127.0,127.0,126.0,88.0,-53.0
127.0,128.0,254.0,128.0,128.0,124.0,128.0,129.0,24.0,-112.0,-63.0,-128.0,127.0,127.0,126.0,88.0,-53.0
127.0,128.0,254.0,128.0,128.0,124.0,128.0,129.0,24.0,-112.0,-63.0,-128.0,127.0,127.0,126.0,88.0,-53.0
127.0,128.0,254.0,128.0,128.0,124.0,128.0,129.0,24.0,-112.0,-63.0,-128.0,127.0,127.0,126.0,88.0,-53.0
127.0,128.0,254.0,128.0,128.0,124.0,128.0,128.0,24.0,-112.0,-63.0,-128.0,127.0,127.0,126.0,88.0,-53.0
127.0,128.0,254.0,128.0,128.0,124.0,128.0,129.0,24.0,-112.0,-63.0,-128.0,127.0,127.0,126.0,88.0,-53.0
127.0,127.0,254.0,128.0,128.0,124.0,127.0,128.0,24.0,-112.0,-63.0,-128.0,127.0,127.0,126.0,88.0,-53.0
127.0,127.0,254.0,128.0,128.0,124.0,127.0,128.0,24.0,-112.0,-63.0,-128.0,127.0,127.0,126.0,88.0,-53.0
127.0,127.0,254.0,128.0,128.0,124.0,127.0,128.0,24.0,-112.0,-63.0,-128.0,127.0,127.0,126.0,88.0,-53.0
126.0,129.0,254.0,129.0,129.0,126.0,129.0,129.0,24.0,-112.0,-63.0,-128.0,127.0,127.0,125.0,88.0,-53.0
126.0,129.0,254.0,129.0,129.0,126.0,129.0,129.0,24.0,-112.0,-63.0,-128.0,127.0,127.0,125.0,88.0,-53.0
126.0,129.0,254.0,129.0,129.0,126.0,129.0,129.0,24.0,-112.0,-63.0,-128.0,127.0,127.0,125.0,88.0,-53.0
126.0,130.0,254.0,129.0,129.0,126.0,129.0,129.0,24.0,-112.0,-63.0,-128.0,127.0,127.0,125.0,88.0,-53.0
126.0,130.0,254.0,129.0,129.0,126.0,129.0,129.0,24.0,-112.0,-63.0,-128.0,127.0,127.0,125.0,88.0,-53.0
126.0,129.0,254.0,129.0,129.0,126.0,129.0,129.0,24.0,-112.0,-63.0,-128.0,127.0,127.0,125.0,88.0,-53.0
126.0,128.0,254.0,129.0,129.0,126.0,129.0,129.0,24.0,-112.0,-63.0,-128.0,127.0,127.0,125.0,88.0,-53.0
126.0,128.0,254.0,129.0,129.0,126.0,129.0,129.0,24.0,-112.0,-63.0,-128.0,127.0,127.0,125.0,88.0,-53.0
126.0,129.0,254.0,129.0,129.0,126.0,129.0,129.0,24.0,-112.0,-63.0,-128.0,127.0,127.0,125.0,88.0,-53.0
126.0,129.0,254.0,129.0,129.0,126.0,129.0,129.0,24.0,-112.0,-63.0,-128.0,127.0,127.0,125.0,88.0,-53.0
125.0,129.0,210.0,128.0,128.0,129.0,129.0,129.0,26.0,-112.0,-63.0,-128.0,127.0,127.0,125.0,88.0,-53.0
125.0,129.0,208.0,128.0,128.0,129.0,128.0,129.0,26.0,-112.0,-63.0,-128.0,127.0,127.0,125.0,88.0,-53.0
125.0,130.0,207.0,128.0,128.0,129.0,129.0,129.0,26.0,-112.0,-63.0,-128.0,127.0,127.0,125.0,88.0,-53.0
125.0,129.0,206.0,128.0,128.0,129.0,129.0,129.0,26.0,-112.0,-63.0,-128.0,127.0,127.0,125.0,88.0,-53.0
125.0,129.0,205.0,128.0,128.0,129.0,129.0,129.0,26.0,-112.0,-63.0,-128.0,127.0,127.0,125.0,88.0,-53.0
125.0,128.0,218.0,128.0,128.0,128.0,129.0,129.0,26.0,-112.0,-63.0,-128.0,127.0,127.0,125.0,88.0,-53.0
125.0,129.0,216.0,128.0,128.0,129.0,129.0,129.0,26.0,-112.0,-63.0,-128.0,127.0,127.0,125.0,88.0,-53.0
125.0,129.0,215.0,128.0,128.0,128.0,129.0,129.0,26.0,-112.0,-63.0,-128.0,127.0,127.0,125.0,88.0,-53.0
125.0,129.0,213.0,128.0,128.0,129.0,129.0,129.0,26.0,-112.0,-63.0,-128.0,127.0,127.0,125.0,88.0,-53.0
125.0,129.0,212.0,128.0,128.0,129.0,129.0,129.0,26.0,-112.0,-63.0,-128.0,127.0,127.0,125.0,88.0,-53.0
124.0,130.0,189.0,128.0,126.0,128.0,126.0,129.0,29.0,-111.0,-63.0,-128.0,127.0,127.0,125.0,88.0,-53.0
124.0,130.0,189.0,127.0,126.0,127.0,126.0,129.0,29.0,-111.0,-63.0,-128.0,127.0,127.0,125.0,88.0,-53.0
124.0,130.0,189.0,128.0,127.0,127.0,126.0,129.0,29.0,-111.0,-63.0,-128.0,127.0,127.0,125.0,88.0,-53.0
124.0,130.0,189.0,128.0,126.0,127.0,127.0,129.0,29.0,-111.0,-63.0,-128.0,127.0,127.0,125.0,88.0,-53.0
124.0,130.0,190.0,127.0,127.0,128.0,126.0,129.0,29.0,-111.0,-63.0,-128.0,127.0,127.0,125.0,88.0,-53.0
124.0,130.0,190.0,127.0,127.0,128.0,126.0,129.0,29.0,-111.0,-63.0,-128.0,127.0,127.0,125.0,88.0,-53.0
124.0,130.0,190.0,127.0,127.0,128.0,126.0,129.0,29.0,-111.0,-63.0,-128.0,127.0,127.0,125.0,88.0,-53.0
124.0,130.0,190.0,127.0,127.0,128.0,126.0,129.0,29.0,-111.0,-63.0,-128.0,127.0,127.0,125.0,88.0,-53.0
124.0,130.0,189.0,127.0,127.0,128.0,126.0,129.0,29.0,-111.0,-63.0,-128.0,127.0,127.0,125.0,88.0,-53.0
124.0,130.0,189.0,128.0,127.0,128.0,126.0,129.0,29.0,-111.0,-63.0,-128.0,127.0,127.0,125.0,88.0,-53.0
125.0,130.0,227.0,127.0,126.0,125.0,124.0,128.0,31.0,-111.0,-63.0,-128.0,127.0,127.0,125.0,88.0,-53.0
125.0,130.0,228.0,127.0,126.0,125.0,124.0,128.0,31.0,-111.0,-63.0,-128.0,127.0,127.0,125.0,88.0,-53.0
125.0,130.0,230.0,127.0,126.0,125.0,124.0,128.0,31.0,-111.0,-63.0,-128.0,127.0,127.0,125.0,88.0,-53.0
125.0,130.0,215.0,126.0,126.0,126.0,124.0,128.0,31.0,-111.0,-63.0,-128.0,127.0,127.0,125.0,88.0,-53.0
125.0,130.0,217.0,126.0,126.0,126.0,124.0,128.0,31.0,-111.0,-63.0,-128.0,127.0,127.0,125.0,88.0,-53.0
125.0,130.0,218.0,126.0,126.0,126.0,124.0,128.0,31.0,-111.0,-63.0,-128.0,127.0,127.0,125.0,88.0,-53.0
125.0,130.0,220.0,127.0,126.0,126.0,124.0,128.0,31.0,-111.0,-63.0,-128.0,127.0,127.0,125.0,88.0,-53.0
125.0,130.0,221.0,127.0,126.0,126.0,124.0,128.0,31.0,-111.0,-63.0,-128.0,127.0,127.0,125.0,88.0,-53.0
125.0,130.0,223.0,127.0,126.0,126.0,124.0,128.0,31.0,-111.0,-63.0,-128.0,127.0,127.0,125.0,88.0,-53.0
125.0,130.0,225.0,127.0,126.0,125.0,124.0,128.0,31.0,-111.0,-63.0,-128.0,127.0,127.0,125.0,88.0,-53.0
127.0,129.0,254.0,127.0,126.0,125.0,124.0,127.0,33.0,-109.0,-64.0,-128.0,127.0,127.0,124.0,88.0,-53.0
127.0,129.0,254.0,128.0,126.0,125.0,124.0,127.0,33.0,-109.0,-64.0,-128.0,127.0,127.0,124.0,88.0,-53.0
127.0,129.0,254.0,127.0,125.0,125.0,123.0,127.0,33.0,-109.0,-64.0,-128.0,127.0,127.0,124.0,88.0,-53.0
127.0,129.0,254.0,127.0,125.0,125.0,123.0,127.0,33.0,-109.0,-64.0,-128.0,127.0,127.0,124.0,88.0,-53.0
127.0,129.0,254.0,127.0,126.0,125.0,124.0,127.0,33.0,-109.0,-64.0,-128.0,127.0,127.0,124.0,88.0,-53.0
127.0,129.0,254.0,127.0,126.0,125.0,124.0,127.0,33.0,-109.0,-64.0,-128.0,127.0,127.0,124.0,88.0,-53.0
127.0,129.0,254.0,127.0,126.0,125.0,124.0,127.0,33.0,-109.0,-64.0,-128.0,127.0,127.0,124.0,88.0,-53.0
127.0,129.0,254.0,127.0,126.0,125.0,124.0,127.0,33.0,-109.0,-64.0,-128.0,127.0,127.0,124.0,88.0,-53.0
127.0,129.0,254.0,127.0,126.0,125.0,124.0,127.0,33.0,-109.0,-64.0,-128.0,127.0,127.0,124.0,88.0,-53.0
127.0,129.0,254.0,127.0,126.0,125.0,124.0,127.0,33.0,-109.0,-64.0,-128.0,127.0,127.0,124.0,88.0,-53.0
128.0,126.0,254.0,130.0,126.0,126.0,125.0,127.0,34.0,-108.0,-64.0,-128.0,127.0,127.0,123.0,88.0,-53.0
127.0,126.0,254.0,130.0,126.0,126.0,125.0,127.0,34.0,-108.0,-64.0,-128.0,127.0,127.0,123.0,88.0,-53.0
127.0,126.0,254.0,130.0,126.0,126.0,125.0,127.0,34.0,-108.0,-64.0,-128.0,127.0,127.0,123.0,88.0,-53.0
127.0,126.0,254.0,130.0,126.0,126.0,125.0,127.0,34.0,-108.0,-64.0,-128.0,127.0,127.0,123.0,88.0,-53.0
127.0,126.0,254.0,130.0,126.0,126.0,125.0,127.0,34.0,-108.0,-64.0,-128.0,127.0,127.0,123.0,88.0,-53.0
127.0,126.0,254.0,130.0,126.0,126.0,125.0,127.0,34.0,-108.0,-64.0,-128.0,127.0,127.0,123.0,88.0,-53.0
127.0,126.0,254.0,130.0,126.0,126.0,125.0,127.0,34.0,-108.0,-64.0,-128.0,127.0,127.0,123.0,88.0,-53.0
127.0,126.0,254.0,130.0,126.0,126.0,125.0,127.0,34.0,-108.0,-64.0,-128.0,127.0,127.0,123.0,88.0,-53.0
128.0,126.0,254.0,130.0,126.0,126.0,125.0,127.0,34.0,-108.0,-64.0,-128.0,127.0,127.0,123.0,88.0,-53.0
128.0,126.0,254.0,130.0,126.0,126.0,125.0,127.0,34.0,-108.0,-64.0,-128.0,127.0,127.0,123.0,88.0,-53.0
128.0,126.0,254.0,129.0,127.0,128.0,125.0,127.0,34.0,-107.0,-64.0,-128.0,127.0,127.0,123.0,88.0,-53.0
128.0,126.0,254.0,129.0,127.0,128.0,125.0,127.0,34.0,-107.0,-64.0,-128.0,127.0,127.0,123.0,88.0,-53.0
128.0,126.0,254.0,129.0,127.0,128.0,125.0,127.0,34.0,-107.0,-64.0,-128.0,127.0,127.0,123.0,88.0,-53.0
128.0,126.0,254.0,129.0,127.0,128.0,125.0,127.0,34.0,-107.0,-64.0,-128.0,127.0,127.0,123.0,88.0,-53.0
128.0,126.0,254.0,129.0,127.0,128.0,125.0,127.0,34.0,-107.0,-64.0,-128.0,127.0,127.0,123.0,88.0,-53.0
128.0,126.0,254.0,129.0,127.0,128.0,125.0,127.0,34.0,-107.0,-64.0,-128.0,127.0,127.0,123.0,88.0,-53.0
128.0,126.0,254.0,129.0,127.0,128.0,125.0,127.0,34.0,-107.0,-64.0,-128.0,127.0,127.0,123.0,88.0,-53.0
128.0,126.0,254.0,129.0,127.0,128.0,125.0,127.0,34.0,-107.0,-64.0,-128.0,127.0,127.0,123.0,88.0,-53.0
128.0,126.0,254.0,129.0,127.0,128.0,125.0,127.0,34.0,-107.0,-64.0,-128.0,127.0,127.0,123.0,88.0,-53.0
128.0,125.0,254.0,129.0,127.0,128.0,126.0,127.0,34.0,-107.0,-64.0,-128.0,127.0,127.0,123.0,88.0,-53.0
127.0,125.0,254.0,129.0,127.0,130.0,125.0,128.0,34.0,-107.0,-64.0,127.0,127.0,127.0,122.0,88.0,-53.0
127.0,125.0,254.0,129.0,127.0,130.0,125.0,128.0,34.0,-107.0,-64.0,127.0,127.0,127.0,122.0,88.0,-53.0
127.0,125.0,254.0,129.0,127.0,130.0,125.0,128.0,34.0,-107.0,-64.0,127.0,127.0,127.0,122.0,88.0,-53.0
127.0,125.0,254.0,129.0,127.0,130.0,126.0,128.0,34.0,-107.0,-64.0,127.0,127.0,127.0,122.0,88.0,-53.0
127.0,125.0,254.0,129.0,127.0,130.0,126.0,128.0,34.0,-107.0,-64.0,127.0,127.0,127.0,122.0,88.0,-53.0
127.0,125.0,254.0,129.0,127.0,129.0,126.0,128.0,34.0,-107.0,-64.0,127.0,127.0,127.0,122.0,88.0,-53.0
127.0,125.0,254.0,129.0,127.0,129.0,126.0,128.0,34.0,-107.0,-64.0,127.0,127.0,127.0,122.0,88.0,-53.0
127.0,125.0,254.0,129.0,127.0,129.0,126.0,128.0,34.0,-107.0,-64.0,127.0,127.0,127.0,122.0,88.0,-53.0
127.0,125.0,254.0,129.0,127.0,129.0,126.0,127.0,34.0,-107.0,-64.0,127.0,127.0,127.0,122.0,88.0,-53.0
127.0,125.0,254.0,129.0,127.0,130.0,125.0,127.0,34.0,-107.0,-64.0,127.0,127.0,127.0,122.0,88.0,-53.0
126.0,126.0,254.0,128.0,127.0,129.0,127.0,128.0,35.0,-107.0,-64.0,-128.0,127.0,127.0,122.0,88.0,-53.0
126.0,126.0,254.0,128.0,127.0,128.0,127.0,128.0,35.0,-107.0,-64.0,-128.0,127.0,127.0,122.0,88.0,-53.0
126.0,126.0,254.0,129.0,127.0,128.0,127.0,128.0,35.0,-107.0,-64.0,-128.0,127.0,127.0,122.0,88.0,-53.0
126.0,126.0,254.0,129.0,127.0,128.0,127.0,128.0,35.0,-107.0,-64.0,-128.0,127.0,127.0,122.0,88.0,-53.0
126.0,126.0,254.0,129.0,127.0,128.0,127.0,128.0,35.0,-107.0,-64.0,-128.0,127.0,127.0,122.0,88.0,-53.0
126.0,126.0,254.0,129.0,127.0,128.0,128.0,128.0,35.0,-107.0,-64.0,-128.0,127.0,127.0,122.0,88.0,-53.0
126.0,126.0,254.0,129.0,127.0,128.0,128.0,128.0,35.0,-107.0,-64.0,-128.0,127.0,127.0,122.0,88.0,-53.0
126.0,126.0,254.0,129.0,127.0,128.0,128.0,128.0,35.0,-107.0,-64.0,-128.0,127.0,127.0,122.0,88.0,-53.0
126.0,125.0,254.0,128.0,127.0,128.0,127.0,127.0,35.0,-107.0,-64.0,-128.0,127.0,127.0,122.0,88.0,-53.0
126.0,126.0,254.0,128.0,127.0,129.0,127.0,128.0,35.0,-107.0,-64.0,-128.0,127.0,127.0,122.0,88.0,-53.0
124.0,126.0,254.0,131.0,129.0,129.0,127.0,127.0,35.0,-108.0,-64.0,-128.0,127.0,127.0,122.0,88.0,-53.0
124.0,126.0,254.0,131.0,129.0,129.0,127.0,127.0,35.0,-108.0,-64.0,-128.0,127.0,127.0,122.0,88.0,-53.0
124.0,126.0,254.0,131.0,129.0,129.0,127.0,127.0,35.0,-108.0,-64.0,-128.0,127.0,127.0,122.0,88.0,-53.0
124.0,126.0,254.0,131.0,129.0,129.0,127.0,127.0,35.0,-108.0,-64.0,-128.0,127.0,127.0,122.0,88.0,-53.0
124.0,127.0,254.0,131.0,129.0,129.0,127.0,127.0,35.0,-108.0,-64.0,-128.0,127.0,127.0,122.0,88.0,-53.0
124.0,127.0,254.0,131.0,129.0,130.0,127.0,127.0,35.0,-108.0,-64.0,-128.0,127.0,127.0,122.0,88.0,-53.0
124.0,127.0,254.0,131.0,129.0,130.0,127.0,127.0,35.0,-108.0,-64.0,-128.0,127.0,127.0,122.0,88.0,-53.0
124.0,126.0,254.0,132.0,129.0,129.0,127.0,127.0,35.0,-108.0,-64.0,-128.0,127.0,127.0,122.0,88.0,-53.0
124.0,126.0,254.0,132.0,129.0,129.0,127.0,127.0,35.0,-108.0,-64.0,-128.0,127.0,127.0,122.0,88.0,-53.0
124.0,126.0,254.0,131.0,129.0,129.0,127.0,127.0,35.0,-108.0,-64.0,-128.0,127.0,127.0,122.0,88.0,-53.0
121.0,128.0,191.0,131.0,129.0,132.0,126.0,126.0,36.0,-108.0,-64.0,-128.0,127.0,127.0,121.0,88.0,-53.0
121.0,127.0,187.0,131.0,129.0,132.0,126.0,126.0,36.0,-108.0,-64.0,-128.0,127.0,127.0,121.0,88.0,-53.0
121.0,128.0,183.0,131.0,129.0,132.0,126.0,126.0,36.0,-108.0,-64.0,-128.0,127.0,127.0,121.0,88.0,-53.0
121.0,128.0,178.0,131.0,129.0,132.0,127.0,126.0,36.0,-108.0,-64.0,-128.0,127.0,127.0,121.0,88.0,-53.0
121.0,128.0,174.0,131.0,129.0,132.0,127.0,126.0,36.0,-108.0,-64.0,-128.0,127.0,127.0,121.0,88.0,-53.0
120.0,128.0,170.0,131.0,129.0,132.0,127.0,126.0,36.0,-108.0,-64.0,-128.0,127.0,127.0,121.0,88.0,-53.0
121.0,127.0,208.0,131.0,129.0,132.0,126.0,126.0,36.0,-108.0,-64.0,-128.0,127.0,127.0,121.0,88.0,-53.0
121.0,127.0,204.0,131.0,129.0,132.0,126.0,126.0,36.0,-108.0,-64.0,-128.0,127.0,127.0,121.0,88.0,-53.0
121.0,128.0,200.0,131.0,129.0,132.0,126.0,126.0,36.0,-108.0,-64.0,-128.0,127.0,127.0,121.0,88.0,-53.0
121.0,128.0,195.0,131.0,129.0,132.0,126.0,126.0,36.0,-108.0,-64.0,-128.0,127.0,127.0,121.0,88.0,-53.0
120.0,127.0,29.0,126.0,129.0,131.0,125.0,126.0,37.0,-108.0,-65.0,-128.0,127.0,127.0,121.0,88.0,-53.0
120.0,127.0,27.0,126.0,129.0,131.0,125.0,126.0,37.0,-108.0,-65.0,-128.0,127.0,127.0,121.0,88.0,-53.0
120.0,127.0,26.0,126.0,129.0,131.0,125.0,126.0,37.0,-108.0,-65.0,-128.0,127.0,127.0,121.0,88.0,-53.0
120.0,127.0,24.0,126.0,129.0,131.0,125.0,125.0,37.0,-108.0,-65.0,-128.0,127.0,127.0,121.0,88.0,-53.0
120.0,127.0,23.0,126.0,129.0,131.0,125.0,126.0,37.0,-108.0,-65.0,-128.0,127.0,127.0,121.0,88.0,-53.0
120.0,127.0,38.0,126.0,129.0,131.0,125.0,125.0,37.0,-108.0,-65.0,-128.0,127.0,127.0,121.0,88.0,-53.0
120.0,127.0,36.0,126.0,129.0,131.0,125.0,125.0,37.0,-108.0,-65.0,-128.0,127.0,127.0,121.0,88.0,-53.0
120.0,127.0,34.0,126.0,129.0,131.0,125.0,125.0,37.0,-108.0,-65.0,-128.0,127.0,127.0,121.0,88.0,-53.0
120.0,127.0,32.0,126.0,129.0,131.0,125.0,126.0,37.0,-108.0,-65.0,-128.0,127.0,127.0,121.0,88.0,-53.0
120.0,127.0,31.0,126.0,129.0,131.0,125.0,126.0,37.0,-108.0,-65.0,-128.0,127.0,127.0,121.0,88.0,-53.0
121.0,128.0,0.0,128.0,129.0,129.0,126.0,126.0,38.0,-107.0,-65.0,-127.0,127.0,127.0,120.0,88.0,-53.0
121.0,128.0,0.0,128.0,129.0,129.0,126.0,126.0,38.0,-107.0,-65.0,-127.0,127.0,127.0,120.0,88.0,-53.0
121.0,128.0,0.0,128.0,129.0,129.0,126.0,126.0,38.0,-107.0,-65.0,-127.0,127.0,127.0,120.0,88.0,-53.0
121.0,128.0,0.0,128.0,129.0,129.0,127.0,126.0,38.0,-107.0,-65.0,-127.0,127.0,127.0,120.0,88.0,-53.0
121.0,128.0,0.0,127.0,129.0,129.0,126.0,126.0,38.0,-107.0,-65.0,-127.0,127.0,127.0,120.0,88.0,-53.0
121.0,128.0,0.0,127.0,129.0,130.0,126.0,126.0,38.0,-107.0,-65.0,-127.0,127.0,127.0,120.0,88.0,-53.0
121.0,128.0,0.0,127.0,129.0,130.0,126.0,126.0,38.0,-107.0,-65.0,-127.0,127.0,127.0,120.0,88.0,-53.0
121.0,128.0,0.0,127.0,129.0,130.0,126.0,126.0,38.0,-107.0,-65.0,-127.0,127.0,127.0,120.0,88.0,-53.0
121.0,128.0,0.0,127.0,129.0,129.0,126.0,126.0,38.0,-107.0,-65.0,-127.0,127.0,127.0,120.0,88.0,-53.0
121.0,128.0,0.0,127.0,129.0,129.0,126.0,126.0,38.0,-107.0,-65.0,-127.0,127.0,127.0,120.0,88.0,-53.0
123.0,128.0,0.0,129.0,129.0,134.0,127.0,127.0,38.0,-106.0,-66.0,-127.0,127.0,127.0,120.0,88.0,-53.0
123.0,128.0,0.0,129.0,129.0,134.0,127.0,127.0,38.0,-106.0,-66.0,-127.0,127.0,127.0,120.0,88.0,-53.0
124.0,128.0,0.0,129.0,129.0,134.0,127.0,127.0,38.0,-106.0,-66.0,-127.0,127.0,127.0,120.0,88.0,-53.0
123.0,128.0,0.0,128.0,128.0,133.0,127.0,127.0,38.0,-106.0,-66.0,-127.0,127.0,127.0,120.0,88.0,-53.0
123.0,128.0,0.0,128.0,128.0,133.0,126.0,127.0,38.0,-106.0,-66.0,-127.0,127.0,127.0,120.0,88.0,-53.0
123.0,129.0,0.0,128.0,128.0,133.0,127.0,127.0,38.0,-106.0,-66.0,-127.0,127.0,127.0,120.0,88.0,-53.0
123.0,129.0,0.0,128.0,128.0,133.0,127.0,127.0,38.0,-106.0,-66.0,-127.0,127.0,127.0,120.0,88.0,-53.0
123.0,129.0,0.0,129.0,128.0,133.0,127.0,127.0,38.0,-106.0,-66.0,-127.0,127.0,127.0,120.0,88.0,-53.0
123.0,129.0,0.0,129.0,128.0,134.0,127.0,127.0,38.0,-106.0,-66.0,-127.0,127.0,127.0,120.0,88.0,-53.0
123.0,129.0,0.0,129.0,129.0,134.0,127.0,127.0,38.0,-106.0,-66.0,-127.0,127.0,127.0,120.0,88.0,-53.0
126.0,128.0,0.0,129.0,127.0,135.0,128.0,128.0,37.0,-106.0,-66.0,-128.0,127.0,127.0,120.0,88.0,-53.0
126.0,128.0,0.0,129.0,127.0,135.0,128.0,128.0,37.0,-106.0,-66.0,-128.0,127.0,127.0,120.0,88.0,-53.0
126.0,128.0,0.0,128.0,128.0,136.0,128.0,128.0,37.0,-106.0,-66.0,-128.0,127.0,127.0,120.0,88.0,-53.0
126.0,128.0,0.0,128.0,128.0,136.0,127.0,128.0,37.0,-106.0,-66.0,-128.0,127.0,127.0,120.0,88.0,-53.0
126.0,128.0,0.0,128.0,128.0,136.0,127.0,128.0,37.0,-106.0,-66.0,-128.0,127.0,127.0,120.0,88.0,-53.0
126.0,128.0,0.0,128.0,128.0,136.0,128.0,128.0,37.0,-106.0,-66.0,-128.0,127.0,127.0,120.0,88.0,-53.0
126.0,128.0,0.0,128.0,128.0,136.0,128.0,128.0,37.0,-106.0,-66.0,-128.0,127.0,127.0,120.0,88.0,-53.0
126.0,128.0,0.0,128.0,127.0,136.0,128.0,128.0,37.0,-106.0,-66.0,-128.0,127.0,127.0,120.0,88.0,-53.0
126.0,128.0,0.0,128.0,127.0,136.0,128.0,128.0,37.0,-106.0,-66.0,-128.0,127.0,127.0,120.0,88.0,-53.0
126.0,128.0,0.0,128.0,127.0,135.0,128.0,128.0,37.0,-106.0,-66.0,-128.0,127.0,127.0,120.0,88.0,-53.0
128.0,127.0,3.0,127.0,125.0,132.0,128.0,129.0,36.0,-106.0,-67.0,-128.0,127.0,127.0,119.0,88.0,-53.0
127.0,127.0,1.0,127.0,125.0,132.0,128.0,129.0,36.0,-106.0,-67.0,-128.0,127.0,127.0,119.0,88.0,-53.0
127.0,127.0,1.0,127.0,125.0,132.0,128.0,129.0,36.0,-106.0,-67.0,-128.0,127.0,127.0,119.0,88.0,-53.0
127.0,127.0,1.0,128.0,125.0,133.0,127.0,129.0,36.0,-106.0,-67.0,-128.0,127.0,127.0,119.0,88.0,-53.0
128.0,127.0,2.0,128.0,125.0,133.0,128.0,129.0,36.0,-106.0,-67.0,-128.0,127.0,127.0,119.0,88.0,-53.0
128.0,127.0,2.0,128.0,125.0,133.0,128.0,129.0,36.0,-106.0,-67.0,-128.0,127.0,127.0,119.0,88.0,-53.0
128.0,127.0,2.0,128.0,125.0,132.0,128.0,129.0,36.0,-106.0,-67.0,-128.0,127.0,127.0,119.0,88.0,-53.0
128.0,127.0,3.0,128.0,125.0,132.0,128.0,129.0,36.0,-106.0,-67.0,-128.0,127.0,127.0,119.0,88.0,-53.0
128.0,127.0,3.0,128.0,125.0,132.0,128.0,129.0,36.0,-106.0,-67.0,-128.0,127.0,127.0,119.0,88.0,-53.0
128.0,127.0,3.0,128.0,125.0,132.0,128.0,129.0,36.0,-106.0,-67.0,-128.0,127.0,127.0,119.0,88.0,-53.0
128.0,127.0,21.0,126.0,124.0,131.0,127.0,130.0,34.0,-106.0,-67.0,-128.0,127.0,127.0,118.0,88.0,-53.0
128.0,127.0,21.0,126.0,124.0,132.0,127.0,130.0,34.0,-106.0,-67.0,-128.0,127.0,127.0,118.0,88.0,-53.0
128.0,127.0,22.0,126.0,124.0,132.0,127.0,130.0,34.0,-106.0,-67.0,-128.0,127.0,127.0,118.0,88.0,-53.0
129.0,127.0,22.0,126.0,124.0,132.0,127.0,130.0,34.0,-106.0,-67.0,-128.0,127.0,127.0,118.0,88.0,-53.0
129.0,127.0,23.0,126.0,125.0,132.0,127.0,130.0,34.0,-106.0,-67.0,-128.0,127.0,127.0,118.0,88.0,-53.0
128.0,127.0,23.0,126.0,125.0,132.0,127.0,130.0,34.0,-106.0,-67.0,-128.0,127.0,127.0,118.0,88.0,-53.0
129.0,127.0,23.0,126.0,125.0,132.0,127.0,130.0,34.0,-106.0,-67.0,-128.0,127.0,127.0,118.0,88.0,-53.0
129.0,127.0,24.0,126.0,125.0,132.0,127.0,130.0,34.0,-106.0,-67.0,-128.0,127.0,127.0,118.0,88.0,-53.0
129.0,127.0,24.0,126.0,125.0,132.0,127.0,130.0,34.0,-106.0,-67.0,-128.0,127.0,127.0,118.0,88.0,-53.0
129.0,127.0,24.0,126.0,125.0,131.0,127.0,130.0,34.0,-106.0,-67.0,-128.0,127.0,127.0,118.0,88.0,-53.0
129.0,127.0,35.0,127.0,126.0,128.0,126.0,130.0,32.0,-106.0,-68.0,-128.0,127.0,127.0,118.0,88.0,-53.0
129.0,127.0,35.0,127.0,126.0,128.0,126.0,130.0,32.0,-106.0,-68.0,-128.0,127.0,127.0,118.0,88.0,-53.0
129.0,127.0,36.0,127.0,126.0,128.0,126.0,130.0,32.0,-106.0,-68.0,-128.0,127.0,127.0,118.0,88.0,-53.0
129.0,127.0,36.0,127.0,126.0,128.0,126.0,130.0,32.0,-106.0,-68.0,-128.0,127.0,127.0,118.0,88.0,-53.0
129.0,128.0,36.0,127.0,126.0,129.0,126.0,130.0,32.0,-106.0,-68.0,-128.0,127.0,127.0,118.0,88.0,-53.0
129.0,128.0,36.0,127.0,126.0,129.0,126.0,130.0,32.0,-106.0,-68.0,-128.0,127.0,127.0,118.0,88.0,-53.0
129.0,128.0,36.0,127.0,126.0,129.0,126.0,130.0,32.0,-106.0,-68.0,-128.0,127.0,127.0,118.0,88.0,-53.0
129.0,128.0,36.0,127.0,126.0,129.0,126.0,130.0,32.0,-106.0,-68.0,-128.0,127.0,127.0,118.0,88.0,-53.0
129.0,128.0,36.0,127.0,126.0,129.0,126.0,130.0,32.0,-106.0,-68.0,-128.0,127.0,127.0,118.0,88.0,-53.0
129.0,127.0,35.0,127.0,126.0,129.0,126.0,130.0,32.0,-106.0,-68.0,-128.0,127.0,127.0,118.0,88.0,-53.0
130.0,129.0,44.0,128.0,127.0,134.0,130.0,130.0,31.0,-105.0,-68.0,-128.0,127.0,127.0,118.0,88.0,-53.0
130.0,129.0,44.0,128.0,128.0,134.0,130.0,130.0,31.0,-105.0,-68.0,-128.0,127.0,127.0,118.0,88.0,-53.0
130.0,129.0,44.0,129.0,128.0,134.0,130.0,130.0,31.0,-105.0,-68.0,-128.0,127.0,127.0,118.0,88.0,-53.0
130.0,129.0,44.0,129.0,128.0,134.0,131.0,130.0,31.0,-105.0,-68.0,-128.0,127.0,127.0,118.0,88.0,-53.0
130.0,129.0,45.0,129.0,128.0,134.0,131.0,130.0,31.0,-105.0,-68.0,-128.0,127.0,127.0,118.0,88.0,-53.0
130.0,129.0,45.0,129.0,128.0,134.0,131.0,130.0,31.0,-105.0,-68.0,-128.0,127.0,127.0,118.0,88.0,-53.0
130.0,129.0,45.0,129.0,128.0,134.0,131.0,130.0,31.0,-105.0,-68.0,-128.0,127.0,127.0,118.0,88.0,-53.0
130.0,129.0,45.0,129.0,128.0,134.0,131.0,130.0,31.0,-105.0,-68.0,-128.0,127.0,127.0,118.0,88.0,-53.0
130.0,129.0,43.0,128.0,128.0,134.0,130.0,130.0,31.0,-105.0,-68.0,-128.0,127.0,127.0,118.0,88.0,-53.0
130.0,129.0,44.0,128.0,128.0,134.0,130.0,130.0,31.0,-105.0,-68.0,-128.0,127.0,127.0,118.0,88.0,-53.0
130.0,129.0,54.0,128.0,128.0,134.0,131.0,130.0,31.0,-105.0,-68.0,-128.0,127.0,127.0,118.0,88.0,-53.0
130.0,129.0,54.0,128.0,128.0,134.0,131.0,130.0,31.0,-105.0,-68.0,-128.0,127.0,127.0,118.0,88.0,-53.0
130.0,129.0,54.0,128.0,128.0,134.0,131.0,130.0,31.0,-105.0,-68.0,-128.0,127.0,127.0,118.0,88.0,-53.0
130.0,129.0,54.0,128.0,128.0,134.0,131.0,130.0,31.0,-105.0,-68.0,-128.0,127.0,127.0,118.0,88.0,-53.0
130.0,129.0,55.0,128.0,128.0,134.0,131.0,131.0,31.0,-105.0,-68.0,-128.0,127.0,127.0,118.0,88.0,-53.0
130.0,129.0,55.0,128.0,128.0,134.0,131.0,130.0,31.0,-105.0,-68.0,-128.0,127.0,127.0,118.0,88.0,-53.0
131.0,129.0,52.0,128.0,128.0,134.0,130.0,130.0,31.0,-105.0,-68.0,-128.0,127.0,127.0,118.0,88.0,-53.0
130.0,129.0,53.0,128.0,128.0,134.0,130.0,130.0,31.0,-105.0,-68.0,-128.0,127.0,127.0,118.0,88.0,-53.0
130.0,129.0,53.0,128.0,128.0,134.0,131.0,130.0,31.0,-105.0,-68.0,-128.0,127.0,127.0,118.0,88.0,-53.0
130.0,129.0,53.0,128.0,128.0,134.0,131.0,130.0,31.0,-105.0,-68.0,-128.0,127.0,127.0,118.0,88.0,-53.0
129.0,127.0,67.0,126.0,125.0,136.0,128.0,130.0,31.0,-104.0,-69.0,-128.0,127.0,127.0,117.0,88.0,-53.0
129.0,127.0,67.0,126.0,125.0,136.0,128.0,130.0,31.0,-104.0,-69.0,-128.0,127.0,127.0,117.0,88.0,-53.0
129.0,127.0,67.0,126.0,125.0,135.0,127.0,130.0,31.0,-104.0,-69.0,-128.0,127.0,127.0,117.0,88.0,-53.0
129.0,127.0,68.0,126.0,125.0,135.0,127.0,130.0,31.0,-104.0,-69.0,-128.0,127.0,127.0,117.0,88.0,-53.0
129.0,127.0,68.0,126.0,125.0,135.0,127.0,130.0,31.0,-104.0,-69.0,-128.0,127.0,127.0,117.0,88.0,-53.0
129.0,128.0,65.0,126.0,126.0,136.0,128.0,131.0,31.0,-104.0,-69.0,-128.0,127.0,127.0,117.0,88.0,-53.0
129.0,128.0,66.0,126.0,126.0,136.0,128.0,131.0,31.0,-104.0,-69.0,-128.0,127.0,127.0,117.0,88.0,-53.0
129.0,127.0,66.0,126.0,126.0,136.0,128.0,131.0,31.0,-104.0,-69.0,-128.0,127.0,127.0,117.0,88.0,-53.0
129.0,127.0,66.0,126.0,126.0,136.0,128.0,131.0,31.0,-104.0,-69.0,-128.0,127.0,127.0,117.0,88.0,-53.0
129.0,127.0,66.0,126.0,126.0,136.0,128.0,130.0,31.0,-104.0,-69.0,-128.0,127.0,127.0,117.0,88.0,-53.0
127.0,127.0,76.0,126.0,123.0,131.0,126.0,130.0,30.0,-103.0,-69.0,-128.0,127.0,127.0,116.0,88.0,-53.0
127.0,127.0,76.0,126.0,123.0,131.0,126.0,130.0,30.0,-103.0,-69.0,-128.0,127.0,127.0,116.0,88.0,-53.0
127.0,127.0,76.0,126.0,123.0,131.0,127.0,130.0,30.0,-103.0,-69.0,-128.0,127.0,127.0,116.0,88.0,-53.0
127.0,127.0,76.0,126.0,123.0,130.0,127.0,130.0,30.0,-103.0,-69.0,-128.0,127.0,127.0,116.0,88.0,-53.0
127.0,127.0,74.0,126.0,123.0,132.0,126.0,130.0,30.0,-103.0,-69.0,-128.0,127.0,127.0,116.0,88.0,-53.0
127.0,127.0,74.0,126.0,123.0,132.0,126.0,130.0,30.0,-103.0,-69.0,-128.0,127.0,127.0,116.0,88.0,-53.0
127.0,127.0,75.0,126.0,123.0,132.0,126.0,130.0,30.0,-103.0,-69.0,-128.0,127.0,127.0,116.0,88.0,-53.0
127.0,127.0,75.0,126.0,123.0,132.0,126.0,130.0,30.0,-103.0,-69.0,-128.0,127.0,127.0,116.0,88.0,-53.0
127.0,127.0,75.0,126.0,123.0,131.0,126.0,130.0,30.0,-103.0,-69.0,-128.0,127.0,127.0,116.0,88.0,-53.0
127.0,127.0,75.0,126.0,123.0,131.0,126.0,130.0,30.0,-103.0,-69.0,-128.0,127.0,127.0,116.0,88.0,-53.0
127.0,127.0,83.0,125.0,122.0,129.0,128.0,129.0,29.0,-103.0,-70.0,-128.0,127.0,127.0,116.0,88.0,-53.0
127.0,127.0,83.0,125.0,122.0,129.0,128.0,129.0,29.0,-103.0,-70.0,-128.0,127.0,127.0,116.0,88.0,-53.0
127.0,127.0,83.0,125.0,122.0,129.0,128.0,129.0,29.0,-103.0,-70.0,-128.0,127.0,127.0,116.0,88.0,-53.0
127.0,128.0,82.0,126.0,122.0,129.0,128.0,129.0,29.0,-103.0,-70.0,-128.0,127.0,127.0,116.0,88.0,-53.0
127.0,128.0,82.0,126.0,122.0,129.0,128.0,129.0,29.0,-103.0,-70.0,-128.0,127.0,127.0,116.0,88.0,-53.0
127.0,128.0,82.0,125.0,122.0,129.0,128.0,129.0,29.0,-103.0,-70.0,-128.0,127.0,127.0,116.0,88.0,-53.0
127.0,128.0,82.0,125.0,122.0,129.0,128.0,129.0,29.0,-103.0,-70.0,-128.0,127.0,127.0,116.0,88.0,-53.0
127.0,128.0,83.0,125.0,122.0,129.0,128.0,129.0,29.0,-103.0,-70.0,-128.0,127.0,127.0,116.0,88.0,-53.0
127.0,128.0,83.0,125.0,122.0,129.0,128.0,129.0,29.0,-103.0,-70.0,-128.0,127.0,127.0,116.0,88.0,-53.0
127.0,127.0,83.0,125.0,122.0,129.0,128.0,129.0,29.0,-103.0,-70.0,-128.0,127.0,127.0,116.0,88.0,-53.0
129.0,127.0,88.0,122.0,121.0,132.0,122.0,127.0,28.0,-103.0,-70.0,-128.0,127.0,127.0,116.0,88.0,-53.0
129.0,127.0,88.0,122.0,121.0,132.0,122.0,127.0,28.0,-103.0,-70.0,-128.0,127.0,127.0,116.0,88.0,-53.0
128.0,127.0,87.0,122.0,121.0,132.0,122.0,127.0,28.0,-103.0,-70.0,-128.0,127.0,127.0,116.0,88.0,-53.0
128.0,128.0,87.0,122.0,121.0,132.0,122.0,127.0,28.0,-103.0,-70.0,-128.0,127.0,127.0,116.0,88.0,-53.0
128.0,128.0,87.0,122.0,121.0,132.0,122.0,127.0,28.0,-103.0,-70.0,-128.0,127.0,127.0,116.0,88.0,-53.0
128.0,127.0,88.0,122.0,121.0,132.0,122.0,127.0,28.0,-103.0,-70.0,-128.0,127.0,127.0,116.0,88.0,-53.0
128.0,127.0,88.0,122.0,121.0,132.0,122.0,127.0,28.0,-103.0,-70.0,-128.0,127.0,127.0,116.0,88.0,-53.0
128.0,127.0,88.0,122.0,121.0,132.0,121.0,127.0,28.0,-103.0,-70.0,-128.0,127.0,127.0,116.0,88.0,-53.0
129.0,127.0,88.0,122.0,121.0,132.0,121.0,127.0,28.0,-103.0,-70.0,-128.0,127.0,127.0,116.0,88.0,-53.0
129.0,127.0,88.0,122.0,121.0,132.0,122.0,127.0,28.0,-103.0,-70.0,-128.0,127.0,127.0,116.0,88.0,-53.0
130.0,128.0,91.0,120.0,122.0,133.0,117.0,127.0,27.0,-102.0,-70.0,-128.0,127.0,127.0,115.0,88.0,-53.0
130.0,128.0,90.0,120.0,122.0,133.0,117.0,127.0,27.0,-102.0,-70.0,-128.0,127.0,127.0,115.0,88.0,-53.0
130.0,129.0,90.0,120.0,122.0,133.0,117.0,127.0,27.0,-102.0,-70.0,-128.0,127.0,127.0,115.0,88.0,-53.0
130.0,128.0,90.0,120.0,122.0,134.0,117.0,127.0,27.0,-102.0,-70.0,-128.0,127.0,127.0,115.0,88.0,-53.0
130.0,128.0,90.0,120.0,122.0,133.0,117.0,127.0,27.0,-102.0,-70.0,-128.0,127.0,127.0,115.0,88.0,-53.0
130.0,128.0,91.0,120.0,122.0,133.0,117.0,127.0,27.0,-102.0,-70.0,-128.0,127.0,127.0,115.0,88.0,-53.0
130.0,128.0,91.0,120.0,122.0,133.0,117.0,127.0,27.0,-102.0,-70.0,-128.0,127.0,127.0,115.0,88.0,-53.0
130.0,128.0,91.0,120.0,122.0,133.0,117.0,127.0,27.0,-102.0,-70.0,-128.0,127.0,127.0,115.0,88.0,-53.0
130.0,128.0,91.0,120.0,122.0,133.0,117.0,127.0,27.0,-102.0,-70.0,-128.0,127.0,127.0,115.0,88.0,-53.0
130.0,128.0,91.0,120.0,122.0,133.0,117.0,127.0,27.0,-102.0,-70.0,-128.0,127.0,127.0,115.0,88.0,-53.0
129.0,127.0,95.0,119.0,122.0,131.0,117.0,127.0,27.0,-101.0,-71.0,127.0,127.0,127.0,114.0,88.0,-53.0
129.0,127.0,95.0,119.0,122.0,131.0,117.0,126.0,27.0,-101.0,-71.0,127.0,127.0,127.0,114.0,88.0,-53.0
129.0,127.0,95.0,119.0,122.0,131.0,117.0,127.0,27.0,-101.0,-71.0,127.0,127.0,127.0,114.0,88.0,-53.0
129.0,127.0,95.0,119.0,122.0,131.0,116.0,126.0,27.0,-101.0,-71.0,127.0,127.0,127.0,114.0,88.0,-53.0
129.0,128.0,95.0,119.0,123.0,132.0,116.0,127.0,27.0,-101.0,-71.0,127.0,127.0,127.0,114.0,88.0,-53.0
129.0,128.0,95.0,119.0,123.0,132.0,116.0,127.0,27.0,-101.0,-71.0,127.0,127.0,127.0,114.0,88.0,-53.0
129.0,128.0,95.0,119.0,123.0,132.0,117.0,127.0,27.0,-101.0,-71.0,127.0,127.0,127.0,114.0,88.0,-53.0
129.0,128.0,95.0,119.0,123.0,132.0,117.0,127.0,27.0,-101.0,-71.0,127.0,127.0,127.0,114.0,88.0,-53.0
129.0,128.0,95.0,119.0,123.0,131.0,117.0,127.0,27.0,-101.0,-71.0,127.0,127.0,127.0,114.0,88.0,-53.0
129.0,128.0,95.0,119.0,123.0,131.0,117.0,127.0,27.0,-101.0,-71.0,127.0,127.0,127.0,114.0,88.0,-53.0
128.0,127.0,99.0,120.0,123.0,133.0,121.0,127.0,28.0,-101.0,-71.0,127.0,127.0,127.0,114.0,88.0,-53.0
128.0,127.0,99.0,120.0,123.0,133.0,121.0,127.0,28.0,-101.0,-71.0,127.0,127.0,127.0,114.0,88.0,-53.0
128.0,127.0,99.0,120.0,123.0,133.0,121.0,127.0,28.0,-101.0,-71.0,127.0,127.0,127.0,114.0,88.0,-53.0
128.0,127.0,100.0,120.0,123.0,133.0,121.0,127.0,28.0,-101.0,-71.0,127.0,127.0,127.0,114.0,88.0,-53.0
128.0,127.0,100.0,120.0,123.0,133.0,121.0,127.0,28.0,-101.0,-71.0,127.0,127.0,127.0,114.0,88.0,-53.0
128.0,127.0,100.0,120.0,123.0,133.0,121.0,127.0,28.0,-101.0,-71.0,127.0,127.0,127.0,114.0,88.0,-53.0
128.0,127.0,100.0,120.0,123.0,133.0,121.0,127.0,28.0,-101.0,-71.0,127.0,127.0,127.0,114.0,88.0,-53.0
128.0,127.0,100.0,120.0,124.0,133.0,121.0,127.0,28.0,-101.0,-71.0,127.0,127.0,127.0,114.0,88.0,-53.0
128.0,127.0,100.0,120.0,124.0,133.0,122.0,127.0,28.0,-101.0,-71.0,127.0,127.0,127.0,114.0,88.0,-53.0
128.0,127.0,99.0,120.0,123.0,133.0,121.0,127.0,28.0,-101.0,-71.0,127.0,127.0,127.0,114.0,88.0,-53.0
127.0,127.0,105.0,121.0,125.0,134.0,124.0,127.0,28.0,-101.0,-71.0,127.0,127.0,127.0,113.0,88.0,-53.0
127.0,127.0,105.0,121.0,125.0,134.0,124.0,127.0,28.0,-101.0,-71.0,127.0,127.0,127.0,113.0,88.0,-53.0
127.0,128.0,105.0,121.0,125.0,135.0,124.0,127.0,28.0,-101.0,-71.0,127.0,127.0,127.0,113.0,88.0,-53.0
127.0,128.0,105.0,121.0,125.0,134.0,124.0,127.0,28.0,-101.0,-71.0,127.0,127.0,127.0,113.0,88.0,-53.0
127.0,127.0,105.0,121.0,125.0,134.0,124.0,127.0,28.0,-101.0,-71.0,127.0,127.0,127.0,113.0,88.0,-53.0
127.0,127.0,106.0,121.0,125.0,134.0,125.0,127.0,28.0,-101.0,-71.0,127.0,127.0,127.0,113.0,88.0,-53.0
127.0,127.0,106.0,121.0,125.0,134.0,125.0,127.0,28.0,-101.0,-71.0,127.0,127.0,127.0,113.0,88.0,-53.0
127.0,127.0,106.0,121.0,125.0,134.0,125.0,127.0,28.0,-101.0,-71.0,127.0,127.0,127.0,113.0,88.0,-53.0
127.0,127.0,105.0,121.0,125.0,134.0,124.0,127.0,28.0,-101.0,-71.0,127.0,127.0,127.0,113.0,88.0,-53.0
127.0,128.0,105.0,121.0,125.0,135.0,124.0,127.0,28.0,-101.0,-71.0,127.0,127.0,127.0,113.0,88.0,-53.0
127.0,126.0,110.0,122.0,126.0,136.0,126.0,127.0,29.0,-101.0,-71.0,127.0,127.0,127.0,113.0,88.0,-53.0
127.0,126.0,110.0,122.0,126.0,136.0,126.0,127.0,29.0,-101.0,-71.0,127.0,127.0,127.0,113.0,88.0,-53.0
127.0,126.0,110.0,122.0,126.0,136.0,126.0,127.0,29.0,-101.0,-71.0,127.0,127.0,127.0,113.0,88.0,-53.0
127.0,126.0,110.0,122.0,126.0,136.0,126.0,127.0,29.0,-101.0,-71.0,127.0,127.0,127.0,113.0,88.0,-53.0
127.0,126.0,110.0,122.0,126.0,136.0,126.0,127.0,29.0,-101.0,-71.0,127.0,127.0,127.0,113.0,88.0,-53.0
127.0,127.0,110.0,123.0,126.0,136.0,126.0,127.0,29.0,-101.0,-71.0,127.0,127.0,127.0,113.0,88.0,-53.0
127.0,127.0,110.0,123.0,126.0,136.0,126.0,127.0,29.0,-101.0,-71.0,127.0,127.0,127.0,113.0,88.0,-53.0
127.0,126.0,110.0,122.0,125.0,135.0,126.0,127.0,29.0,-101.0,-71.0,127.0,127.0,127.0,113.0,88.0,-53.0
127.0,127.0,110.0,122.0,125.0,136.0,126.0,127.0,29.0,-101.0,-71.0,127.0,127.0,127.0,113.0,88.0,-53.0
127.0,127.0,110.0,122.0,125.0,136.0,126.0,127.0,29.0,-101.0,-71.0,127.0,127.0,127.0,113.0,88.0,-53.0
126.0,126.0,113.0,124.0,126.0,138.0,127.0,128.0,30.0,-102.0,-72.0,127.0,127.0,127.0,113.0,88.0,-53.0
126.0,126.0,113.0,124.0,126.0,138.0,127.0,128.0,30.0,-102.0,-72.0,127.0,127.0,127.0,113.0,88.0,-53.0
126.0,126.0,113.0,124.0,127.0,137.0,127.0,128.0,30.0,-102.0,-72.0,127.0,127.0,127.0,113.0,88.0,-53.0
126.0,127.0,113.0,124.0,126.0,138.0,126.0,128.0,30.0,-102.0,-72.0,127.0,127.0,127.0,113.0,88.0,-53.0
126.0,127.0,113.0,124.0,127.0,138.0,126.0,128.0,30.0,-102.0,-72.0,127.0,127.0,127.0,113.0,88.0,-53.0
126.0,127.0,113.0,124.0,127.0,138.0,127.0,128.0,30.0,-102.0,-72.0,127.0,127.0,127.0,113.0,88.0,-53.0
126.0,126.0,113.0,123.0,126.0,137.0,127.0,128.0,30.0,-102.0,-72.0,127.0,127.0,127.0,113.0,88.0,-53.0
126.0,126.0,113.0,123.0,126.0,138.0,126.0,128.0,30.0,-102.0,-72.0,127.0,127.0,127.0,113.0,88.0,-53.0
126.0,126.0,113.0,123.0,126.0,138.0,126.0,128.0,30.0,-102.0,-72.0,127.0,127.0,127.0,113.0,88.0,-53.0
126.0,126.0,113.0,124.0,126.0,138.0,127.0,128.0,30.0,-102.0,-72.0,127.0,127.0,127.0,113.0,88.0,-53.0
126.0,127.0,116.0,125.0,128.0,137.0,127.0,128.0,30.0,-102.0,-72.0,127.0,127.0,127.0,113.0,88.0,-53.0
126.0,127.0,116.0,125.0,128.0,137.0,127.0,128.0,30.0,-102.0,-72.0,127.0,127.0,127.0,113.0,88.0,-53.0
126.0,127.0,116.0,125.0,128.0,137.0,127.0,128.0,30.0,-102.0,-72.0,127.0,127.0,127.0,113.0,88.0,-53.0
126.0,127.0,116.0,125.0,128.0,138.0,127.0,128.0,30.0,-102.0,-72.0,127.0,127.0,127.0,113.0,88.0,-53.0
126.0,127.0,116.0,125.0,128.0,138.0,127.0,128.0,30.0,-102.0,-72.0,127.0,127.0,127.0,113.0,88.0,-53.0
126.0,127.0,116.0,125.0,128.0,137.0,127.0,128.0,30.0,-102.0,-72.0,127.0,127.0,127.0,113.0,88.0,-53.0
126.0,127.0,116.0,125.0,128.0,137.0,127.0,128.0,30.0,-102.0,-72.0,127.0,127.0,127.0,113.0,88.0,-53.0
126.0,127.0,116.0,125.0,128.0,138.0,127.0,128.0,30.0,-102.0,-72.0,127.0,127.0,127.0,113.0,88.0,-53.0
126.0,127.0,116.0,125.0,128.0,138.0,127.0,128.0,30.0,-102.0,-72.0,127.0,127.0,127.0,113.0,88.0,-53.0
126.0,127.0,116.0,125.0,128.0,137.0,127.0,128.0,30.0,-102.0,-72.0,127.0,127.0,127.0,113.0,88.0,-53.0
126.0,127.0,118.0,127.0,129.0,138.0,127.0,128.0,29.0,-102.0,-73.0,127.0,127.0,127.0,112.0,88.0,-53.0
126.0,127.0,118.0,127.0,129.0,138.0,127.0,128.0,29.0,-102.0,-73.0,127.0,127.0,127.0,112.0,88.0,-53.0
126.0,128.0,118.0,127.0,129.0,139.0,127.0,128.0,29.0,-102.0,-73.0,127.0,127.0,127.0,112.0,88.0,-53.0
126.0,127.0,118.0,126.0,129.0,137.0,127.0,128.0,29.0,-102.0,-73.0,127.0,127.0,127.0,112.0,88.0,-53.0
126.0,127.0,118.0,126.0,129.0,137.0,127.0,128.0,29.0,-102.0,-73.0,127.0,127.0,127.0,112.0,88.0,-53.0
126.0,127.0,118.0,127.0,129.0,138.0,127.0,128.0,29.0,-102.0,-73.0,127.0,127.0,127.0,112.0,88.0,-53.0
126.0,127.0,118.0,127.0,129.0,138.0,127.0,128.0,29.0,-102.0,-73.0,127.0,127.0,127.0,112.0,88.0,-53.0
126.0,127.0,118.0,127.0,129.0,138.0,127.0,128.0,29.0,-102.0,-73.0,127.0,127.0,127.0,112.0,88.0,-53.0
126.0,127.0,118.0,127.0,129.0,138.0,127.0,128.0,29.0,-102.0,-73.0,127.0,127.0,127.0,112.0,88.0,-53.0
126.0,127.0,118.0,127.0,129.0,138.0,127.0,128.0,29.0,-102.0,-73.0,127.0,127.0,127.0,112.0,88.0,-53.0
126.0,127.0,120.0,129.0,130.0,142.0,130.0,128.0,28.0,-102.0,-74.0,127.0,127.0,127.0,112.0,88.0,-53.0
126.0,127.0,120.0,129.0,130.0,142.0,130.0,128.0,28.0,-102.0,-74.0,127.0,127.0,127.0,112.0,88.0,-53.0
126.0,127.0,119.0,129.0,130.0,141.0,130.0,128.0,28.0,-102.0,-74.0,127.0,127.0,127.0,112.0,88.0,-53.0
126.0,127.0,120.0,129.0,130.0,141.0,130.0,128.0,28.0,-102.0,-74.0,127.0,127.0,127.0,112.0,88.0,-53.0
126.0,127.0,119.0,129.0,130.0,141.0,130.0,128.0,28.0,-102.0,-74.0,127.0,127.0,127.0,112.0,88.0,-53.0
126.0,127.0,119.0,129.0,130.0,142.0,130.0,128.0,28.0,-102.0,-74.0,127.0,127.0,127.0,112.0,88.0,-53.0
126.0,127.0,120.0,129.0,130.0,142.0,130.0,128.0,28.0,-102.0,-74.0,127.0,127.0,127.0,112.0,88.0,-53.0
126.0,127.0,120.0,129.0,130.0,141.0,130.0,128.0,28.0,-102.0,-74.0,127.0,127.0,127.0,112.0,88.0,-53.0
126.0,127.0,120.0,129.0,130.0,141.0,130.0,128.0,28.0,-102.0,-74.0,127.0,127.0,127.0,112.0,88.0,-53.0
126.0,127.0,120.0,129.0,130.0,141.0,130.0,128.0,28.0,-102.0,-74.0,127.0,127.0,127.0,112.0,88.0,-53.0
126.0,125.0,121.0,130.0,130.0,142.0,132.0,126.0,26.0,-102.0,-74.0,127.0,127.0,127.0,112.0,88.0,-53.0
126.0,126.0,120.0,129.0,130.0,142.0,132.0,127.0,26.0,-102.0,-74.0,127.0,127.0,127.0,112.0,88.0,-53.0
126.0,126.0,120.0,129.0,130.0,142.0,132.0,127.0,26.0,-102.0,-74.0,127.0,127.0,127.0,112.0,88.0,-53.0
126.0,126.0,120.0,129.0,130.0,142.0,132.0,127.0,26.0,-102.0,-74.0,127.0,127.0,127.0,112.0,88.0,-53.0
126.0,126.0,120.0,129.0,130.0,142.0,132.0,126.0,26.0,-102.0,-74.0,127.0,127.0,127.0,112.0,88.0,-53.0
126.0,126.0,120.0,129.0,131.0,142.0,132.0,126.0,26.0,-102.0,-74.0,127.0,127.0,127.0,112.0,88.0,-53.0
126.0,125.0,121.0,129.0,130.0,142.0,132.0,126.0,26.0,-102.0,-74.0,127.0,127.0,127.0,112.0,88.0,-53.0
126.0,125.0,121.0,130.0,130.0,142.0,132.0,126.0,26.0,-102.0,-74.0,127.0,127.0,127.0,112.0,88.0,-53.0
126.0,125.0,121.0,130.0,131.0,142.0,132.0,126.0,26.0,-102.0,-74.0,127.0,127.0,127.0,112.0,88.0,-53.0
126.0,125.0,121.0,130.0,130.0,142.0,132.0,126.0,26.0,-102.0,-74.0,127.0,127.0,127.0,112.0,88.0,-53.0
126.0,126.0,122.0,131.0,132.0,143.0,131.0,126.0,25.0,-102.0,-74.0,-128.0,127.0,127.0,111.0,88.0,-53.0
126.0,126.0,122.0,132.0,132.0,143.0,131.0,126.0,25.0,-102.0,-74.0,-128.0,127.0,127.0,111.0,88.0,-53.0
126.0,125.0,122.0,131.0,132.0,143.0,131.0,126.0,25.0,-102.0,-74.0,-128.0,127.0,127.0,111.0,88.0,-53.0
125.0,125.0,122.0,132.0,132.0,142.0,131.0,126.0,25.0,-102.0,-74.0,-128.0,127.0,127.0,111.0,88.0,-53.0
126.0,125.0,122.0,132.0,132.0,143.0,131.0,126.0,25.0,-102.0,-74.0,-128.0,127.0,127.0,111.0,88.0,-53.0
125.0,125.0,122.0,131.0,132.0,143.0,131.0,126.0,25.0,-102.0,-74.0,-128.0,127.0,127.0,111.0,88.0,-53.0
125.0,126.0,122.0,131.0,132.0,143.0,131.0,126.0,25.0,-102.0,-74.0,-128.0,127.0,127.0,111.0,88.0,-53.0
125.0,125.0,122.0,132.0,132.0,143.0,131.0,126.0,25.0,-102.0,-74.0,-128.0,127.0,127.0,111.0,88.0,-53.0
125.0,125.0,122.0,132.0,132.0,143.0,131.0,126.0,25.0,-102.0,-74.0,-128.0,127.0,127.0,111.0,88.0,-53.0
125.0,125.0,123.0,132.0,132.0,143.0,131.0,126.0,25.0,-102.0,-74.0,-128.0,127.0,127.0,111.0,88.0,-53.0
125.0,125.0,122.0,133.0,132.0,143.0,133.0,126.0,25.0,-102.0,-74.0,-128.0,-128.0,127.0,111.0,88.0,-53.0
125.0,125.0,122.0,133.0,132.0,143.0,133.0,126.0,25.0,-102.0,-74.0,-128.0,-128.0,127.0,111.0,88.0,-53.0
125.0,125.0,122.0,133.0,132.0,143.0,134.0,126.0,25.0,-102.0,-74.0,-128.0,-128.0,127.0,111.0,88.0,-53.0
125.0,125.0,122.0,133.0,132.0,143.0,134.0,126.0,25.0,-102.0,-74.0,-128.0,-128.0,127.0,111.0,88.0,-53.0
125.0,125.0,122.0,133.0,132.0,143.0,134.0,126.0,25.0,-102.0,-74.0,-128.0,-128.0,127.0,111.0,88.0,-53.0
125.0,125.0,122.0,133.0,132.0,143.0,134.0,126.0,25.0,-102.0,-74.0,-128.0,-128.0,127.0,111.0,88.0,-53.0
125.0,125.0,122.0,133.0,132.0,143.0,134.0,126.0,25.0,-102.0,-74.0,-128.0,-128.0,127.0,111.0,88.0,-53.0
125.0,126.0,122.0,133.0,132.0,143.0,134.0,126.0,25.0,-102.0,-74.0,-128.0,-128.0,127.0,111.0,88.0,-53.0
125.0,125.0,122.0,133.0,132.0,143.0,134.0,126.0,25.0,-102.0,-74.0,-128.0,-128.0,127.0,111.0,88.0,-53.0
125.0,125.0,122.0,133.0,132.0,143.0,133.0,126.0,25.0,-102.0,-74.0,-128.0,-128.0,127.0,111.0,88.0,-53.0
125.0,127.0,123.0,134.0,132.0,144.0,143.0,127.0,24.0,-103.0,-75.0,-128.0,-128.0,127.0,111.0,88.0,-53.0
125.0,126.0,123.0,134.0,131.0,144.0,143.0,127.0,24.0,-103.0,-75.0,-128.0,-128.0,127.0,111.0,88.0,-53.0
125.0,126.0,123.0,134.0,131.0,144.0,143.0,127.0,24.0,-103.0,-75.0,-128.0,-128.0,127.0,111.0,88.0,-53.0
125.0,126.0,123.0,133.0,131.0,144.0,143.0,127.0,24.0,-103.0,-75.0,-128.0,-128.0,127.0,111.0,88.0,-53.0
126.0,127.0,123.0,133.0,132.0,144.0,143.0,127.0,24.0,-103.0,-75.0,-128.0,-128.0,127.0,111.0,88.0,-53.0
126.0,127.0,123.0,133.0,132.0,144.0,143.0,127.0,24.0,-103.0,-75.0,-128.0,-128.0,127.0,111.0,88.0,-53.0
126.0,127.0,123.0,133.0,132.0,144.0,143.0,127.0,24.0,-103.0,-75.0,-128.0,-128.0,127.0,111.0,88.0,-53.0
126.0,127.0,123.0,133.0,132.0,144.0,143.0,127.0,24.0,-103.0,-75.0,-128.0,-128.0,127.0,111.0,88.0,-53.0
125.0,127.0,123.0,134.0,132.0,144.0,143.0,127.0,24.0,-103.0,-75.0,-128.0,-128.0,127.0,111.0,88.0,-53.0
125.0,127.0,123.0,134.0,132.0,144.0,143.0,127.0,24.0,-103.0,-75.0,-128.0,-128.0,127.0,111.0,88.0,-53.0
128.0,128.0,124.0,131.0,130.0,140.0,134.0,128.0,23.0,-103.0,-75.0,-128.0,-128.0,127.0,111.0,88.0,-53.0
128.0,128.0,124.0,131.0,130.0,140.0,134.0,128.0,23.0,-103.0,-75.0,-128.0,-128.0,127.0,111.0,88.0,-53.0
128.0,128.0,125.0,131.0,130.0,139.0,134.0,128.0,23.0,-103.0,-75.0,-128.0,-128.0,127.0,111.0,88.0,-53.0
128.0,127.0,125.0,131.0,130.0,139.0,134.0,128.0,23.0,-103.0,-75.0,-128.0,-128.0,127.0,111.0,88.0,-53.0
128.0,127.0,125.0,131.0,130.0,139.0,134.0,128.0,23.0,-103.0,-75.0,-128.0,-128.0,127.0,111.0,88.0,-53.0
128.0,127.0,125.0,131.0,130.0,138.0,133.0,128.0,23.0,-103.0,-75.0,-128.0,-128.0,127.0,111.0,88.0,-53.0
128.0,127.0,125.0,131.0,130.0,138.0,133.0,128.0,23.0,-103.0,-75.0,-128.0,-128.0,127.0,111.0,88.0,-53.0
127.0,128.0,124.0,132.0,130.0,141.0,135.0,128.0,23.0,-103.0,-75.0,-128.0,-128.0,127.0,111.0,88.0,-53.0
127.0,128.0,124.0,132.0,130.0,140.0,135.0,128.0,23.0,-103.0,-75.0,-128.0,-128.0,127.0,111.0,88.0,-53.0
128.0,128.0,124.0,131.0,130.0,140.0,135.0,128.0,23.0,-103.0,-75.0,-128.0,-128.0,127.0,111.0,88.0,-53.0
130.0,129.0,126.0,130.0,129.0,126.0,123.0,128.0,22.0,-103.0,-75.0,-128.0,-128.0,127.0,111.0,88.0,-53.0
130.0,129.0,126.0,130.0,129.0,126.0,123.0,128.0,22.0,-103.0,-75.0,-128.0,-128.0,127.0,111.0,88.0,-53.0
130.0,129.0,126.0,130.0,128.0,125.0,123.0,128.0,22.0,-103.0,-75.0,-128.0,-128.0,127.0,111.0,88.0,-53.0
130.0,128.0,126.0,131.0,128.0,125.0,123.0,128.0,22.0,-103.0,-75.0,-128.0,-128.0,127.0,111.0,88.0,-53.0
130.0,128.0,127.0,131.0,128.0,125.0,123.0,128.0,22.0,-103.0,-75.0,-128.0,-128.0,127.0,111.0,88.0,-53.0
130.0,128.0,127.0,131.0,128.0,124.0,122.0,128.0,22.0,-103.0,-75.0,-128.0,-128.0,127.0,111.0,88.0,-53.0
129.0,129.0,126.0,130.0,129.0,128.0,124.0,128.0,22.0,-103.0,-75.0,-128.0,-128.0,127.0,111.0,88.0,-53.0
129.0,129.0,126.0,130.0,129.0,128.0,124.0,128.0,22.0,-103.0,-75.0,-128.0,-128.0,127.0,111.0,88.0,-53.0
130.0,129.0,126.0,130.0,129.0,127.0,124.0,128.0,22.0,-103.0,-75.0,-128.0,-128.0,127.0,111.0,88.0,-53.0
130.0,129.0,126.0,130.0,129.0,127.0,124.0,128.0,22.0,-103.0,-75.0,-128.0,-128.0,127.0,111.0,88.0,-53.0
130.0,129.0,127.0,130.0,125.0,122.0,116.0,129.0,19.0,-103.0,-75.0,-128.0,-128.0,127.0,111.0,87.0,-53.0
130.0,129.0,127.0,130.0,125.0,122.0,116.0,129.0,19.0,-103.0,-75.0,-128.0,-128.0,127.0,111.0,87.0,-53.0
130.0,129.0,127.0,130.0,125.0,122.0,116.0,129.0,19.0,-103.0,-75.0,-128.0,-128.0,127.0,111.0,87.0,-53.0
130.0,129.0,127.0,130.0,125.0,122.0,116.0,129.0,19.0,-103.0,-75.0,-128.0,-128.0,127.0,111.0,87.0,-53.0
130.0,129.0,127.0,130.0,125.0,122.0,116.0,129.0,19.0,-103.0,-75.0,-128.0,-128.0,127.0,111.0,87.0,-53.0
130.0,130.0,127.0,130.0,126.0,121.0,117.0,129.0,19.0,-103.0,-75.0,-128.0,-128.0,127.0,111.0,87.0,-53.0
130.0,130.0,127.0,130.0,126.0,121.0,116.0,129.0,19.0,-103.0,-75.0,-128.0,-128.0,127.0,111.0,87.0,-53.0
130.0,130.0,127.0,130.0,125.0,122.0,116.0,129.0,19.0,-103.0,-75.0,-128.0,-128.0,127.0,111.0,87.0,-53.0
130.0,129.0,127.0,130.0,125.0,122.0,116.0,129.0,19.0,-103.0,-75.0,-128.0,-128.0,127.0,111.0,87.0,-53.0
130.0,129.0,127.0,130.0,125.0,122.0,116.0,129.0,19.0,-103.0,-75.0,-128.0,-128.0,127.0,111.0,87.0,-53.0
131.0,129.0,124.0,131.0,123.0,133.0,113.0,129.0,18.0,-102.0,-76.0,127.0,127.0,127.0,110.0,87.0,-53.0
131.0,129.0,124.0,130.0,123.0,133.0,113.0,129.0,18.0,-102.0,-76.0,127.0,127.0,127.0,110.0,87.0,-53.0
131.0,129.0,124.0,130.0,123.0,133.0,113.0,129.0,18.0,-102.0,-76.0,127.0,127.0,127.0,110.0,87.0,-53.0
131.0,128.0,124.0,130.0,123.0,134.0,113.0,129.0,18.0,-102.0,-76.0,127.0,127.0,127.0,110.0,87.0,-53.0
131.0,130.0,124.0,131.0,123.0,132.0,113.0,129.0,18.0,-102.0,-76.0,127.0,127.0,127.0,110.0,87.0,-53.0
131.0,130.0,124.0,131.0,123.0,132.0,113.0,129.0,18.0,-102.0,-76.0,127.0,127.0,127.0,110.0,87.0,-53.0
131.0,129.0,124.0,131.0,123.0,132.0,113.0,129.0,18.0,-102.0,-76.0,127.0,127.0,127.0,110.0,87.0,-53.0
131.0,129.0,124.0,131.0,123.0,132.0,113.0,129.0,18.0,-102.0,-76.0,127.0,127.0,127.0,110.0,87.0,-53.0
131.0,129.0,124.0,131.0,123.0,133.0,113.0,129.0,18.0,-102.0,-76.0,127.0,127.0,127.0,110.0,87.0,-53.0
131.0,129.0,124.0,131.0,123.0,133.0,113.0,129.0,18.0,-102.0,-76.0,127.0,127.0,127.0,110.0,87.0,-53.0
130.0,129.0,124.0,128.0,122.0,148.0,120.0,130.0,16.0,-101.0,-77.0,127.0,127.0,127.0,109.0,87.0,-53.0
130.0,129.0,124.0,128.0,122.0,149.0,120.0,130.0,16.0,-101.0,-77.0,127.0,127.0,127.0,109.0,87.0,-53.0
130.0,129.0,124.0,128.0,122.0,149.0,120.0,130.0,16.0,-101.0,-77.0,127.0,127.0,127.0,109.0,87.0,-53.0
130.0,129.0,124.0,129.0,122.0,145.0,118.0,129.0,16.0,-101.0,-77.0,127.0,127.0,127.0,109.0,87.0,-53.0
130.0,129.0,124.0,129.0,122.0,146.0,118.0,130.0,16.0,-101.0,-77.0,127.0,127.0,127.0,109.0,87.0,-53.0
130.0,129.0,124.0,129.0,122.0,146.0,119.0,130.0,16.0,-101.0,-77.0,127.0,127.0,127.0,109.0,87.0,-53.0
130.0,129.0,124.0,128.0,122.0,147.0,119.0,130.0,16.0,-101.0,-77.0,127.0,127.0,127.0,109.0,87.0,-53.0
130.0,129.0,124.0,128.0,122.0,147.0,119.0,130.0,16.0,-101.0,-77.0,127.0,127.0,127.0,109.0,87.0,-53.0
130.0,129.0,124.0,128.0,122.0,147.0,120.0,130.0,16.0,-101.0,-77.0,127.0,127.0,127.0,109.0,87.0,-53.0
130.0,129.0,124.0,128.0,122.0,148.0,120.0,130.0,16.0,-101.0,-77.0,127.0,127.0,127.0,109.0,87.0,-53.0
129.0,128.0,124.0,124.0,123.0,156.0,124.0,129.0,17.0,-100.0,-78.0,127.0,127.0,127.0,109.0,87.0,-53.0
128.0,128.0,124.0,124.0,123.0,156.0,124.0,129.0,17.0,-100.0,-78.0,127.0,127.0,127.0,109.0,87.0,-53.0
129.0,128.0,124.0,125.0,123.0,156.0,125.0,129.0,17.0,-100.0,-78.0,127.0,127.0,127.0,109.0,87.0,-53.0
129.0,129.0,123.0,125.0,123.0,156.0,125.0,129.0,17.0,-100.0,-78.0,127.0,127.0,127.0,109.0,87.0,-53.0
129.0,129.0,123.0,125.0,123.0,156.0,125.0,129.0,17.0,-100.0,-78.0,127.0,127.0,127.0,109.0,87.0,-53.0
129.0,128.0,124.0,125.0,123.0,156.0,125.0,129.0,17.0,-100.0,-78.0,127.0,127.0,127.0,109.0,87.0,-53.0
129.0,128.0,124.0,125.0,123.0,156.0,125.0,129.0,17.0,-100.0,-78.0,127.0,127.0,127.0,109.0,87.0,-53.0
129.0,128.0,124.0,124.0,123.0,156.0,125.0,129.0,17.0,-100.0,-78.0,127.0,127.0,127.0,109.0,87.0,-53.0
128.0,128.0,124.0,124.0,122.0,156.0,125.0,129.0,17.0,-100.0,-78.0,127.0,127.0,127.0,109.0,87.0,-53.0
129.0,128.0,123.0,124.0,123.0,156.0,124.0,129.0,17.0,-100.0,-78.0,127.0,127.0,127.0,109.0,87.0,-53.0
128.0,127.0,123.0,121.0,122.0,148.0,121.0,128.0,18.0,-99.0,-79.0,127.0,127.0,127.0,108.0,87.0,-53.0
128.0,128.0,123.0,122.0,122.0,150.0,122.0,128.0,18.0,-99.0,-79.0,127.0,127.0,127.0,108.0,87.0,-53.0
128.0,128.0,123.0,121.0,122.0,150.0,121.0,128.0,18.0,-99.0,-79.0,127.0,127.0,127.0,108.0,87.0,-53.0
128.0,128.0,123.0,121.0,122.0,150.0,121.0,128.0,18.0,-99.0,-79.0,127.0,127.0,127.0,108.0,87.0,-53.0
128.0,128.0,123.0,121.0,122.0,149.0,121.0,128.0,18.0,-99.0,-79.0,127.0,127.0,127.0,108.0,87.0,-53.0
128.0,127.0,123.0,121.0,122.0,149.0,121.0,128.0,18.0,-99.0,-79.0,127.0,127.0,127.0,108.0,87.0,-53.0
128.0,127.0,123.0,121.0,122.0,149.0,121.0,128.0,18.0,-99.0,-79.0,127.0,127.0,127.0,108.0,87.0,-53.0
128.0,127.0,123.0,121.0,122.0,149.0,121.0,128.0,18.0,-99.0,-79.0,127.0,127.0,127.0,108.0,87.0,-53.0
128.0,127.0,123.0,121.0,122.0,149.0,121.0,128.0,18.0,-99.0,-79.0,127.0,127.0,127.0,108.0,87.0,-53.0
128.0,127.0,123.0,121.0,122.0,149.0,121.0,128.0,18.0,-99.0,-79.0,127.0,127.0,127.0,108.0,87.0,-53.0
126.0,128.0,119.0,120.0,122.0,144.0,119.0,127.0,19.0,-99.0,-79.0,127.0,127.0,127.0,108.0,87.0,-53.0
126.0,128.0,119.0,120.0,122.0,144.0,119.0,127.0,19.0,-99.0,-79.0,127.0,127.0,127.0,108.0,87.0,-53.0
126.0,128.0,119.0,120.0,122.0,144.0,119.0,127.0,19.0,-99.0,-79.0,127.0,127.0,127.0,108.0,87.0,-53.0
126.0,127.0,119.0,120.0,122.0,143.0,119.0,127.0,19.0,-99.0,-79.0,127.0,127.0,127.0,108.0,87.0,-53.0
126.0,127.0,119.0,120.0,122.0,143.0,119.0,127.0,19.0,-99.0,-79.0,127.0,127.0,127.0,108.0,87.0,-53.0
126.0,127.0,119.0,120.0,122.0,143.0,119.0,127.0,19.0,-99.0,-79.0,127.0,127.0,127.0,108.0,87.0,-53.0
126.0,127.0,119.0,120.0,122.0,143.0,119.0,127.0,19.0,-99.0,-79.0,127.0,127.0,127.0,108.0,87.0,-53.0
126.0,127.0,119.0,120.0,122.0,143.0,119.0,127.0,19.0,-99.0,-79.0,127.0,127.0,127.0,108.0,87.0,-53.0
126.0,127.0,119.0,120.0,122.0,143.0,119.0,127.0,19.0,-99.0,-79.0,127.0,127.0,127.0,108.0,87.0,-53.0
126.0,127.0,119.0,120.0,122.0,143.0,118.0,127.0,19.0,-99.0,-79.0,127.0,127.0,127.0,108.0,87.0,-53.0
127.0,128.0,120.0,121.0,123.0,139.0,119.0,127.0,21.0,-100.0,-79.0,127.0,127.0,127.0,108.0,87.0,-53.0
127.0,127.0,120.0,120.0,123.0,139.0,119.0,127.0,21.0,-100.0,-79.0,127.0,127.0,127.0,108.0,87.0,-53.0
127.0,127.0,121.0,121.0,123.0,139.0,119.0,127.0,21.0,-100.0,-79.0,127.0,127.0,127.0,108.0,87.0,-53.0
127.0,127.0,121.0,120.0,123.0,139.0,119.0,127.0,21.0,-100.0,-79.0,127.0,127.0,127.0,108.0,87.0,-53.0
127.0,127.0,121.0,120.0,123.0,138.0,119.0,127.0,21.0,-100.0,-79.0,127.0,127.0,127.0,108.0,87.0,-53.0
127.0,127.0,121.0,120.0,123.0,138.0,119.0,127.0,21.0,-100.0,-79.0,127.0,127.0,127.0,108.0,87.0,-53.0
127.0,127.0,121.0,120.0,123.0,138.0,119.0,127.0,21.0,-100.0,-79.0,127.0,127.0,127.0,108.0,87.0,-53.0
127.0,126.0,121.0,120.0,123.0,138.0,119.0,127.0,21.0,-100.0,-79.0,127.0,127.0,127.0,108.0,87.0,-53.0
127.0,127.0,121.0,120.0,123.0,138.0,119.0,127.0,21.0,-100.0,-79.0,127.0,127.0,127.0,108.0,87.0,-53.0
127.0,128.0,120.0,121.0,123.0,139.0,119.0,127.0,21.0,-100.0,-79.0,127.0,127.0,127.0,108.0,87.0,-53.0
128.0,127.0,123.0,121.0,123.0,135.0,122.0,127.0,23.0,-100.0,-79.0,127.0,127.0,127.0,108.0,87.0,-53.0
128.0,126.0,123.0,121.0,123.0,135.0,122.0,127.0,23.0,-100.0,-79.0,127.0,127.0,127.0,108.0,87.0,-53.0
128.0,126.0,123.0,121.0,123.0,135.0,122.0,127.0,23.0,-100.0,-79.0,127.0,127.0,127.0,108.0,87.0,-53.0
128.0,126.0,123.0,121.0,123.0,135.0,122.0,127.0,23.0,-100.0,-79.0,127.0,127.0,127.0,108.0,87.0,-53.0
128.0,126.0,124.0,121.0,123.0,135.0,122.0,127.0,23.0,-100.0,-79.0,127.0,127.0,127.0,108.0,87.0,-53.0
128.0,126.0,124.0,121.0,123.0,135.0,123.0,127.0,23.0,-100.0,-79.0,127.0,127.0,127.0,108.0,87.0,-53.0
128.0,126.0,124.0,121.0,123.0,135.0,123.0,127.0,23.0,-100.0,-79.0,127.0,127.0,127.0,108.0,87.0,-53.0
128.0,127.0,123.0,121.0,123.0,136.0,122.0,127.0,23.0,-100.0,-79.0,127.0,127.0,127.0,108.0,87.0,-53.0
128.0,127.0,123.0,121.0,123.0,136.0,122.0,127.0,23.0,-100.0,-79.0,127.0,127.0,127.0,108.0,87.0,-53.0
128.0,127.0,123.0,121.0,123.0,136.0,122.0,127.0,23.0,-100.0,-79.0,127.0,127.0,127.0,108.0,87.0,-53.0
128.0,126.0,124.0,122.0,124.0,135.0,126.0,127.0,24.0,-100.0,-79.0,127.0,127.0,127.0,108.0,87.0,-53.0
128.0,126.0,124.0,122.0,124.0,135.0,126.0,127.0,24.0,-100.0,-79.0,127.0,127.0,127.0,108.0,87.0,-53.0
128.0,126.0,124.0,122.0,124.0,135.0,126.0,127.0,24.0,-100.0,-79.0,127.0,127.0,127.0,108.0,87.0,-53.0
128.0,125.0,124.0,122.0,124.0,135.0,126.0,127.0,24.0,-100.0,-79.0,127.0,127.0,127.0,108.0,87.0,-53.0
128.0,125.0,124.0,121.0,124.0,135.0,126.0,127.0,24.0,-100.0,-79.0,127.0,127.0,127.0,108.0,87.0,-53.0
128.0,125.0,124.0,122.0,124.0,135.0,126.0,127.0,24.0,-100.0,-79.0,127.0,127.0,127.0,108.0,87.0,-53.0
128.0,127.0,124.0,122.0,124.0,135.0,126.0,127.0,24.0,-100.0,-79.0,127.0,127.0,127.0,108.0,87.0,-53.0
128.0,127.0,124.0,122.0,124.0,135.0,126.0,127.0,24.0,-100.0,-79.0,127.0,127.0,127.0,108.0,87.0,-53.0
128.0,126.0,124.0,122.0,124.0,135.0,126.0,127.0,24.0,-100.0,-79.0,127.0,127.0,127.0,108.0,87.0,-53.0
128.0,126.0,124.0,121.0,124.0,135.0,126.0,127.0,24.0,-100.0,-79.0,127.0,127.0,127.0,108.0,87.0,-53.0
129.0,125.0,126.0,122.0,125.0,136.0,127.0,126.0,25.0,-101.0,-79.0,127.0,127.0,127.0,108.0,87.0,-53.0
129.0,125.0,127.0,122.0,126.0,136.0,127.0,126.0,25.0,-101.0,-79.0,127.0,127.0,127.0,108.0,87.0,-53.0
129.0,125.0,127.0,122.0,126.0,136.0,127.0,126.0,25.0,-101.0,-79.0,127.0,127.0,127.0,108.0,87.0,-53.0
129.0,125.0,127.0,122.0,126.0,136.0,127.0,126.0,25.0,-101.0,-79.0,127.0,127.0,127.0,108.0,87.0,-53.0
128.0,125.0,127.0,122.0,126.0,136.0,127.0,126.0,25.0,-101.0,-79.0,127.0,127.0,127.0,108.0,87.0,-53.0
129.0,126.0,125.0,122.0,125.0,136.0,127.0,126.0,25.0,-101.0,-79.0,127.0,127.0,127.0,108.0,87.0,-53.0
129.0,126.0,126.0,122.0,125.0,136.0,127.0,127.0,25.0,-101.0,-79.0,127.0,127.0,127.0,108.0,87.0,-53.0
129.0,126.0,126.0,122.0,125.0,136.0,127.0,126.0,25.0,-101.0,-79.0,127.0,127.0,127.0,108.0,87.0,-53.0
129.0,126.0,126.0,122.0,125.0,136.0,127.0,126.0,25.0,-101.0,-79.0,127.0,127.0,127.0,108.0,87.0,-53.0
129.0,126.0,126.0,122.0,125.0,136.0,127.0,126.0,25.0,-101.0,-79.0,127.0,127.0,127.0,108.0,87.0,-53.0
128.0,125.0,129.0,123.0,126.0,137.0,127.0,126.0,25.0,-101.0,-79.0,127.0,127.0,127.0,108.0,87.0,-53.0
128.0,125.0,129.0,123.0,126.0,137.0,127.0,126.0,25.0,-101.0,-79.0,127.0,127.0,127.0,108.0,87.0,-53.0
128.0,125.0,129.0,123.0,126.0,137.0,127.0,126.0,25.0,-101.0,-79.0,127.0,127.0,127.0,108.0,87.0,-53.0
128.0,126.0,129.0,123.0,126.0,138.0,127.0,126.0,25.0,-101.0,-79.0,127.0,127.0,127.0,108.0,87.0,-53.0
128.0,125.0,129.0,123.0,126.0,137.0,128.0,126.0,25.0,-101.0,-79.0,127.0,127.0,127.0,108.0,87.0,-53.0
128.0,125.0,129.0,123.0,126.0,137.0,128.0,126.0,25.0,-101.0,-79.0,127.0,127.0,127.0,108.0,87.0,-53.0
128.0,126.0,129.0,123.0,126.0,137.0,127.0,126.0,25.0,-101.0,-79.0,127.0,127.0,127.0,108.0,87.0,-53.0
128.0,126.0,129.0,123.0,126.0,137.0,127.0,126.0,25.0,-101.0,-79.0,127.0,127.0,127.0,108.0,87.0,-53.0
128.0,126.0,129.0,123.0,126.0,137.0,127.0,126.0,25.0,-101.0,-79.0,127.0,127.0,127.0,108.0,87.0,-53.0
128.0,125.0,129.0,123.0,126.0,137.0,127.0,126.0,25.0,-101.0,-79.0,127.0,127.0,127.0,108.0,87.0,-53.0
127.0,125.0,123.0,122.0,127.0,140.0,128.0,127.0,26.0,-101.0,-79.0,127.0,127.0,127.0,108.0,87.0,-53.0
127.0,125.0,123.0,122.0,127.0,140.0,128.0,127.0,26.0,-101.0,-79.0,127.0,127.0,127.0,108.0,87.0,-53.0
127.0,124.0,123.0,122.0,127.0,140.0,128.0,127.0,26.0,-101.0,-79.0,127.0,127.0,127.0,108.0,87.0,-53.0
127.0,126.0,123.0,123.0,127.0,140.0,128.0,127.0,26.0,-101.0,-79.0,127.0,127.0,127.0,108.0,87.0,-53.0
127.0,126.0,123.0,123.0,127.0,140.0,128.0,127.0,26.0,-101.0,-79.0,127.0,127.0,127.0,108.0,87.0,-53.0
127.0,125.0,123.0,122.0,127.0,140.0,128.0,127.0,26.0,-101.0,-79.0,127.0,127.0,127.0,108.0,87.0,-53.0
127.0,125.0,123.0,122.0,127.0,140.0,128.0,127.0,26.0,-101.0,-79.0,127.0,127.0,127.0,108.0,87.0,-53.0
127.0,125.0,123.0,122.0,127.0,140.0,128.0,127.0,26.0,-101.0,-79.0,127.0,127.0,127.0,108.0,87.0,-53.0
127.0,125.0,123.0,122.0,127.0,140.0,128.0,127.0,26.0,-101.0,-79.0,127.0,127.0,127.0,108.0,87.0,-53.0
127.0,125.0,123.0,122.0,127.0,140.0,128.0,127.0,26.0,-101.0,-79.0,127.0,127.0,127.0,108.0,87.0,-53.0
127.0,126.0,121.0,124.0,128.0,143.0,128.0,127.0,26.0,-101.0,-79.0,127.0,127.0,127.0,107.0,86.0,-53.0
127.0,126.0,121.0,124.0,128.0,143.0,128.0,127.0,26.0,-101.0,-79.0,127.0,127.0,127.0,107.0,86.0,-53.0
127.0,127.0,120.0,124.0,128.0,143.0,128.0,127.0,26.0,-101.0,-79.0,127.0,127.0,127.0,107.0,86.0,-53.0
127.0,127.0,120.0,124.0,128.0,143.0,128.0,127.0,26.0,-101.0,-79.0,127.0,127.0,127.0,107.0,86.0,-53.0
127.0,127.0,121.0,124.0,128.0,143.0,128.0,127.0,26.0,-101.0,-79.0,127.0,127.0,127.0,107.0,86.0,-53.0
127.0,127.0,121.0,124.0,128.0,143.0,128.0,127.0,26.0,-101.0,-79.0,127.0,127.0,127.0,107.0,86.0,-53.0
127.0,127.0,121.0,124.0,128.0,143.0,127.0,127.0,26.0,-101.0,-79.0,127.0,127.0,127.0,107.0,86.0,-53.0
127.0,127.0,121.0,124.0,128.0,143.0,128.0,127.0,26.0,-101.0,-79.0,127.0,127.0,127.0,107.0,86.0,-53.0
127.0,126.0,121.0,124.0,128.0,143.0,128.0,127.0,26.0,-101.0,-79.0,127.0,127.0,127.0,107.0,86.0,-53.0
127.0,126.0,121.0,124.0,128.0,143.0,128.0,127.0,26.0,-101.0,-79.0,127.0,127.0,127.0,107.0,86.0,-53.0
127.0,127.0,123.0,125.0,129.0,143.0,127.0,126.0,27.0,-101.0,-80.0,127.0,127.0,127.0,107.0,86.0,-53.0
127.0,128.0,122.0,125.0,129.0,144.0,127.0,127.0,27.0,-101.0,-80.0,127.0,127.0,127.0,107.0,86.0,-53.0
127.0,128.0,122.0,125.0,129.0,144.0,127.0,127.0,27.0,-101.0,-80.0,127.0,127.0,127.0,107.0,86.0,-53.0
127.0,128.0,122.0,125.0,129.0,143.0,127.0,127.0,27.0,-101.0,-80.0,127.0,127.0,127.0,107.0,86.0,-53.0
127.0,128.0,122.0,125.0,129.0,143.0,127.0,127.0,27.0,-101.0,-80.0,127.0,127.0,127.0,107.0,86.0,-53.0
127.0,128.0,122.0,125.0,129.0,143.0,127.0,127.0,27.0,-101.0,-80.0,127.0,127.0,127.0,107.0,86.0,-53.0
127.0,128.0,123.0,125.0,129.0,143.0,127.0,127.0,27.0,-101.0,-80.0,127.0,127.0,127.0,107.0,86.0,-53.0
127.0,127.0,123.0,125.0,129.0,143.0,127.0,127.0,27.0,-101.0,-80.0,127.0,127.0,127.0,107.0,86.0,-53.0
127.0,127.0,123.0,125.0,129.0,143.0,127.0,127.0,27.0,-101.0,-80.0,127.0,127.0,127.0,107.0,86.0,-53.0
127.0,127.0,123.0,125.0,129.0,143.0,127.0,127.0,27.0,-101.0,-80.0,127.0,127.0,127.0,107.0,86.0,-53.0
127.0,128.0,123.0,125.0,129.0,142.0,127.0,126.0,27.0,-101.0,-81.0,-128.0,127.0,127.0,107.0,86.0,-53.0
127.0,128.0,123.0,125.0,129.0,142.0,127.0,126.0,27.0,-101.0,-81.0,-128.0,127.0,127.0,107.0,86.0,-53.0
127.0,128.0,123.0,125.0,129.0,142.0,127.0,126.0,27.0,-101.0,-81.0,-128.0,127.0,127.0,107.0,86.0,-53.0
127.0,127.0,123.0,125.0,129.0,142.0,127.0,126.0,27.0,-101.0,-81.0,-128.0,127.0,127.0,107.0,86.0,-53.0
127.0,127.0,123.0,125.0,129.0,142.0,127.0,126.0,27.0,-101.0,-81.0,-128.0,127.0,127.0,107.0,86.0,-53.0
127.0,127.0,124.0,125.0,128.0,142.0,127.0,126.0,27.0,-101.0,-81.0,-128.0,127.0,127.0,107.0,86.0,-53.0
127.0,127.0,124.0,124.0,128.0,142.0,127.0,126.0,27.0,-101.0,-81.0,-128.0,127.0,127.0,107.0,86.0,-53.0
127.0,127.0,124.0,124.0,128.0,142.0,127.0,126.0,27.0,-101.0,-81.0,-128.0,127.0,127.0,107.0,86.0,-53.0
127.0,127.0,124.0,124.0,128.0,142.0,127.0,126.0,27.0,-101.0,-81.0,-128.0,127.0,127.0,107.0,86.0,-53.0
127.0,126.0,124.0,124.0,128.0,141.0,127.0,126.0,27.0,-101.0,-81.0,-128.0,127.0,127.0,107.0,86.0,-53.0
126.0,126.0,123.0,124.0,127.0,140.0,127.0,125.0,26.0,-102.0,-81.0,-128.0,127.0,127.0,107.0,86.0,-53.0
126.0,126.0,123.0,124.0,127.0,140.0,127.0,125.0,26.0,-102.0,-81.0,-128.0,127.0,127.0,107.0,86.0,-53.0
126.0,126.0,123.0,124.0,127.0,140.0,127.0,125.0,26.0,-102.0,-81.0,-128.0,127.0,127.0,107.0,86.0,-53.0
126.0,126.0,123.0,124.0,127.0,140.0,127.0,125.0,26.0,-102.0,-81.0,-128.0,127.0,127.0,107.0,86.0,-53.0
126.0,126.0,123.0,124.0,127.0,140.0,127.0,125.0,26.0,-102.0,-81.0,-128.0,127.0,127.0,107.0,86.0,-53.0
126.0,125.0,123.0,124.0,127.0,140.0,127.0,125.0,26.0,-102.0,-81.0,-128.0,127.0,127.0,107.0,86.0,-53.0
126.0,125.0,124.0,124.0,127.0,140.0,127.0,125.0,26.0,-102.0,-81.0,-128.0,127.0,127.0,107.0,86.0,-53.0
126.0,125.0,124.0,124.0,127.0,139.0,127.0,125.0,26.0,-102.0,-81.0,-128.0,127.0,127.0,107.0,86.0,-53.0
126.0,125.0,124.0,124.0,127.0,139.0,127.0,125.0,26.0,-102.0,-81.0,-128.0,127.0,127.0,107.0,86.0,-53.0
126.0,126.0,123.0,124.0,127.0,140.0,127.0,125.0,26.0,-102.0,-81.0,-128.0,127.0,127.0,107.0,86.0,-53.0
126.0,127.0,124.0,124.0,127.0,138.0,127.0,126.0,24.0,-102.0,-81.0,-128.0,127.0,127.0,107.0,86.0,-53.0
126.0,126.0,124.0,124.0,127.0,138.0,127.0,126.0,24.0,-102.0,-81.0,-128.0,127.0,127.0,107.0,86.0,-53.0
126.0,126.0,125.0,124.0,127.0,138.0,127.0,126.0,24.0,-102.0,-81.0,-128.0,127.0,127.0,107.0,86.0,-53.0
126.0,126.0,125.0,124.0,127.0,138.0,127.0,126.0,24.0,-102.0,-81.0,-128.0,127.0,127.0,107.0,86.0,-53.0
126.0,126.0,125.0,124.0,127.0,138.0,127.0,126.0,24.0,-102.0,-81.0,-128.0,127.0,127.0,107.0,86.0,-53.0
126.0,126.0,125.0,123.0,127.0,138.0,127.0,126.0,24.0,-102.0,-81.0,-128.0,127.0,127.0,107.0,86.0,-53.0
126.0,126.0,125.0,123.0,127.0,138.0,127.0,126.0,24.0,-102.0,-81.0,-128.0,127.0,127.0,107.0,86.0,-53.0
127.0,126.0,125.0,123.0,127.0,137.0,127.0,126.0,24.0,-102.0,-81.0,-128.0,127.0,127.0,107.0,86.0,-53.0
126.0,127.0,124.0,124.0,127.0,138.0,127.0,126.0,24.0,-102.0,-81.0,-128.0,127.0,127.0,107.0,86.0,-53.0
126.0,127.0,124.0,124.0,127.0,138.0,127.0,126.0,24.0,-102.0,-81.0,-128.0,127.0,127.0,107.0,86.0,-53.0
128.0,127.0,127.0,124.0,127.0,137.0,126.0,127.0,22.0,-102.0,-81.0,-128.0,127.0,127.0,107.0,86.0,-53.0
128.0,127.0,127.0,124.0,127.0,137.0,126.0,127.0,22.0,-102.0,-81.0,-128.0,127.0,127.0,107.0,86.0,-53.0
128.0,127.0,127.0,124.0,127.0,137.0,126.0,127.0,22.0,-102.0,-81.0,-128.0,127.0,127.0,107.0,86.0,-53.0
128.0,127.0,127.0,124.0,127.0,137.0,126.0,127.0,22.0,-102.0,-81.0,-128.0,127.0,127.0,107.0,86.0,-53.0
128.0,127.0,127.0,124.0,127.0,137.0,126.0,127.0,22.0,-102.0,-81.0,-128.0,127.0,127.0,107.0,86.0,-53.0
128.0,127.0,127.0,124.0,127.0,137.0,126.0,127.0,22.0,-102.0,-81.0,-128.0,127.0,127.0,107.0,86.0,-53.0
128.0,128.0,127.0,124.0,127.0,137.0,127.0,127.0,22.0,-102.0,-81.0,-128.0,127.0,127.0,107.0,86.0,-53.0
128.0,128.0,127.0,124.0,127.0,137.0,126.0,127.0,22.0,-102.0,-81.0,-128.0,127.0,127.0,107.0,86.0,-53.0
128.0,128.0,127.0,124.0,127.0,137.0,126.0,127.0,22.0,-102.0,-81.0,-128.0,127.0,127.0,107.0,86.0,-53.0
128.0,128.0,127.0,124.0,127.0,137.0,126.0,127.0,22.0,-102.0,-81.0,-128.0,127.0,127.0,107.0,86.0,-53.0
129.0,128.0,128.0,124.0,127.0,136.0,126.0,128.0,20.0,-102.0,-81.0,-128.0,127.0,127.0,107.0,85.0,-54.0
129.0,128.0,128.0,124.0,127.0,136.0,126.0,128.0,20.0,-102.0,-81.0,-128.0,127.0,127.0,107.0,85.0,-54.0
129.0,128.0,128.0,124.0,127.0,136.0,126.0,128.0,20.0,-102.0,-81.0,-128.0,127.0,127.0,107.0,85.0,-54.0
129.0,127.0,128.0,124.0,127.0,136.0,126.0,128.0,20.0,-102.0,-81.0,-128.0,127.0,127.0,107.0,85.0,-54.0
129.0,127.0,128.0,124.0,127.0,136.0,126.0,128.0,20.0,-102.0,-81.0,-128.0,127.0,127.0,107.0,85.0,-54.0
129.0,128.0,128.0,124.0,127.0,136.0,127.0,128.0,20.0,-102.0,-81.0,-128.0,127.0,127.0,107.0,85.0,-54.0
129.0,128.0,128.0,124.0,127.0,135.0,127.0,128.0,20.0,-102.0,-81.0,-128.0,127.0,127.0,107.0,85.0,-54.0
129.0,128.0,128.0,124.0,127.0,136.0,127.0,128.0,20.0,-102.0,-81.0,-128.0,127.0,127.0,107.0,85.0,-54.0
129.0,128.0,128.0,124.0,127.0,136.0,126.0,128.0,20.0,-102.0,-81.0,-128.0,127.0,127.0,107.0,85.0,-54.0
129.0,128.0,127.0,124.0,127.0,136.0,126.0,128.0,20.0,-102.0,-81.0,-128.0,127.0,127.0,107.0,85.0,-54.0
130.0,128.0,128.0,126.0,128.0,134.0,127.0,129.0,18.0,-102.0,-81.0,127.0,127.0,127.0,107.0,85.0,-54.0
130.0,128.0,129.0,126.0,128.0,134.0,127.0,129.0,18.0,-102.0,-81.0,127.0,127.0,127.0,107.0,85.0,-54.0
130.0,128.0,129.0,126.0,128.0,134.0,127.0,129.0,18.0,-102.0,-81.0,127.0,127.0,127.0,107.0,85.0,-54.0
130.0,128.0,129.0,126.0,127.0,134.0,127.0,129.0,18.0,-102.0,-81.0,127.0,127.0,127.0,107.0,85.0,-54.0
130.0,129.0,128.0,126.0,128.0,135.0,127.0,129.0,18.0,-102.0,-81.0,127.0,127.0,127.0,107.0,85.0,-54.0
130.0,129.0,128.0,126.0,128.0,135.0,127.0,129.0,18.0,-102.0,-81.0,127.0,127.0,127.0,107.0,85.0,-54.0
130.0,129.0,128.0,126.0,128.0,135.0,127.0,129.0,18.0,-102.0,-81.0,127.0,127.0,127.0,107.0,85.0,-54.0
130.0,129.0,128.0,126.0,128.0,135.0,127.0,129.0,18.0,-102.0,-81.0,127.0,127.0,127.0,107.0,85.0,-54.0
130.0,129.0,128.0,126.0,128.0,135.0,127.0,129.0,18.0,-102.0,-81.0,127.0,127.0,127.0,107.0,85.0,-54.0
130.0,129.0,128.0,126.0,128.0,135.0,127.0,129.0,18.0,-102.0,-81.0,127.0,127.0,127.0,107.0,85.0,-54.0
130.0,128.0,127.0,127.0,128.0,134.0,127.0,129.0,17.0,-101.0,-81.0,127.0,127.0,127.0,106.0,85.0,-54.0
130.0,128.0,127.0,127.0,128.0,134.0,127.0,129.0,17.0,-101.0,-81.0,127.0,127.0,127.0,106.0,85.0,-54.0
130.0,128.0,127.0,127.0,128.0,134.0,127.0,129.0,17.0,-101.0,-81.0,127.0,127.0,127.0,106.0,85.0,-54.0
130.0,129.0,127.0,128.0,128.0,134.0,127.0,129.0,17.0,-101.0,-81.0,127.0,127.0,127.0,106.0,85.0,-54.0
130.0,129.0,127.0,128.0,128.0,135.0,127.0,129.0,17.0,-101.0,-81.0,127.0,127.0,127.0,106.0,85.0,-54.0
130.0,129.0,127.0,128.0,128.0,135.0,127.0,129.0,17.0,-101.0,-81.0,127.0,127.0,127.0,106.0,85.0,-54.0
130.0,129.0,127.0,127.0,128.0,135.0,127.0,129.0,17.0,-101.0,-81.0,127.0,127.0,127.0,106.0,85.0,-54.0
130.0,129.0,127.0,127.0,128.0,134.0,127.0,129.0,17.0,-101.0,-81.0,127.0,127.0,127.0,106.0,85.0,-54.0
130.0,129.0,127.0,127.0,128.0,134.0,127.0,129.0,17.0,-101.0,-81.0,127.0,127.0,127.0,106.0,85.0,-54.0
130.0,129.0,127.0,127.0,128.0,134.0,127.0,129.0,17.0,-101.0,-81.0,127.0,127.0,127.0,106.0,85.0,-54.0
129.0,128.0,126.0,127.0,128.0,133.0,127.0,129.0,16.0,-101.0,-81.0,127.0,127.0,127.0,106.0,85.0,-54.0
129.0,128.0,126.0,127.0,128.0,133.0,127.0,129.0,16.0,-101.0,-81.0,127.0,127.0,127.0,106.0,85.0,-54.0
129.0,129.0,126.0,127.0,128.0,134.0,127.0,129.0,16.0,-101.0,-81.0,127.0,127.0,127.0,106.0,85.0,-54.0
129.0,129.0,126.0,127.0,128.0,134.0,127.0,129.0,16.0,-101.0,-81.0,127.0,127.0,127.0,106.0,85.0,-54.0
129.0,129.0,125.0,127.0,128.0,134.0,127.0,129.0,16.0,-101.0,-81.0,127.0,127.0,127.0,106.0,85.0,-54.0
129.0,129.0,126.0,127.0,128.0,134.0,127.0,129.0,16.0,-101.0,-81.0,127.0,127.0,127.0,106.0,85.0,-54.0
129.0,129.0,126.0,127.0,128.0,134.0,127.0,129.0,16.0,-101.0,-81.0,127.0,127.0,127.0,106.0,85.0,-54.0
129.0,129.0,126.0,127.0,128.0,134.0,127.0,129.0,16.0,-101.0,-81.0,127.0,127.0,127.0,106.0,85.0,-54.0
129.0,128.0,126.0,127.0,128.0,134.0,127.0,129.0,16.0,-101.0,-81.0,127.0,127.0,127.0,106.0,85.0,-54.0
129.0,128.0,126.0,127.0,128.0,134.0,127.0,129.0,16.0,-101.0,-81.0,127.0,127.0,127.0,106.0,85.0,-54.0
129.0,128.0,126.0,125.0,128.0,133.0,127.0,129.0,16.0,-101.0,-81.0,127.0,127.0,127.0,106.0,85.0,-54.0
129.0,129.0,125.0,126.0,128.0,133.0,127.0,129.0,16.0,-101.0,-81.0,127.0,127.0,127.0,106.0,85.0,-54.0
129.0,129.0,125.0,125.0,128.0,133.0,127.0,129.0,16.0,-101.0,-81.0,127.0,127.0,127.0,106.0,85.0,-54.0
129.0,129.0,125.0,125.0,128.0,133.0,127.0,129.0,16.0,-101.0,-81.0,127.0,127.0,127.0,106.0,85.0,-54.0
129.0,128.0,125.0,125.0,128.0,133.0,127.0,129.0,16.0,-101.0,-81.0,127.0,127.0,127.0,106.0,85.0,-54.0
129.0,128.0,125.0,125.0,128.0,133.0,127.0,129.0,16.0,-101.0,-81.0,127.0,127.0,127.0,106.0,85.0,-54.0
129.0,128.0,125.0,125.0,128.0,133.0,127.0,129.0,16.0,-101.0,-81.0,127.0,127.0,127.0,106.0,85.0,-54.0
129.0,128.0,125.0,125.0,128.0,133.0,127.0,129.0,16.0,-101.0,-81.0,127.0,127.0,127.0,106.0,85.0,-54.0
129.0,128.0,126.0,125.0,128.0,133.0,127.0,129.0,16.0,-101.0,-81.0,127.0,127.0,127.0,106.0,85.0,-54.0
129.0,128.0,126.0,125.0,128.0,133.0,127.0,129.0,16.0,-101.0,-81.0,127.0,127.0,127.0,106.0,85.0,-54.0
129.0,129.0,125.0,125.0,127.0,132.0,127.0,128.0,17.0,-101.0,-81.0,127.0,127.0,127.0,106.0,85.0,-54.0
129.0,129.0,125.0,125.0,127.0,132.0,127.0,128.0,17.0,-101.0,-81.0,127.0,127.0,127.0,106.0,85.0,-54.0
129.0,129.0,125.0,125.0,127.0,132.0,127.0,128.0,17.0,-101.0,-81.0,127.0,127.0,127.0,106.0,85.0,-54.0
129.0,129.0,125.0,125.0,127.0,132.0,127.0,128.0,17.0,-101.0,-81.0,127.0,127.0,127.0,106.0,85.0,-54.0
129.0,129.0,125.0,125.0,127.0,132.0,127.0,128.0,17.0,-101.0,-81.0,127.0,127.0,127.0,106.0,85.0,-54.0
129.0,129.0,125.0,125.0,127.0,132.0,127.0,128.0,17.0,-101.0,-81.0,127.0,127.0,127.0,106.0,85.0,-54.0
129.0,129.0,125.0,125.0,127.0,132.0,127.0,128.0,17.0,-101.0,-81.0,127.0,127.0,127.0,106.0,85.0,-54.0
129.0,129.0,126.0,125.0,127.0,132.0,127.0,128.0,17.0,-101.0,-81.0,127.0,127.0,127.0,106.0,85.0,-54.0
129.0,128.0,126.0,125.0,127.0,132.0,127.0,128.0,17.0,-101.0,-81.0,127.0,127.0,127.0,106.0,85.0,-54.0
129.0,128.0,126.0,125.0,127.0,132.0,127.0,128.0,17.0,-101.0,-81.0,127.0,127.0,127.0,106.0,85.0,-54.0
129.0,129.0,126.0,125.0,127.0,131.0,126.0,128.0,18.0,-101.0,-80.0,127.0,127.0,127.0,106.0,85.0,-54.0
129.0,129.0,125.0,125.0,127.0,132.0,126.0,128.0,18.0,-101.0,-80.0,127.0,127.0,127.0,106.0,85.0,-54.0
129.0,129.0,125.0,125.0,127.0,132.0,126.0,128.0,18.0,-101.0,-80.0,127.0,127.0,127.0,106.0,85.0,-54.0
129.0,129.0,126.0,125.0,127.0,132.0,126.0,128.0,18.0,-101.0,-80.0,127.0,127.0,127.0,106.0,85.0,-54.0
129.0,128.0,126.0,125.0,127.0,131.0,126.0,128.0,18.0,-101.0,-80.0,127.0,127.0,127.0,106.0,85.0,-54.0
129.0,128.0,126.0,125.0,127.0,132.0,126.0,128.0,18.0,-101.0,-80.0,127.0,127.0,127.0,106.0,85.0,-54.0
129.0,128.0,126.0,125.0,127.0,131.0,126.0,128.0,18.0,-101.0,-80.0,127.0,127.0,127.0,106.0,85.0,-54.0
128.0,128.0,126.0,125.0,127.0,131.0,126.0,128.0,18.0,-101.0,-80.0,127.0,127.0,127.0,106.0,85.0,-54.0
128.0,128.0,126.0,125.0,127.0,131.0,126.0,128.0,18.0,-101.0,-80.0,127.0,127.0,127.0,106.0,85.0,-54.0
129.0,129.0,126.0,125.0,127.0,131.0,127.0,128.0,18.0,-101.0,-80.0,127.0,127.0,127.0,106.0,85.0,-54.0
128.0,129.0,126.0,125.0,127.0,131.0,126.0,128.0,19.0,-101.0,-80.0,127.0,127.0,127.0,106.0,85.0,-54.0
128.0,128.0,126.0,125.0,127.0,131.0,126.0,128.0,19.0,-101.0,-80.0,127.0,127.0,127.0,106.0,85.0,-54.0
128.0,128.0,126.0,125.0,127.0,131.0,126.0,128.0,19.0,-101.0,-80.0,127.0,127.0,127.0,106.0,85.0,-54.0
128.0,128.0,126.0,125.0,127.0,131.0,126.0,128.0,19.0,-101.0,-80.0,127.0,127.0,127.0,106.0,85.0,-54.0
128.0,128.0,126.0,125.0,127.0,131.0,126.0,128.0,19.0,-101.0,-80.0,127.0,127.0,127.0,106.0,85.0,-54.0
128.0,128.0,126.0,125.0,127.0,131.0,126.0,128.0,19.0,-101.0,-80.0,127.0,127.0,127.0,106.0,85.0,-54.0
128.0,127.0,126.0,125.0,126.0,131.0,126.0,128.0,19.0,-101.0,-80.0,127.0,127.0,127.0,106.0,85.0,-54.0
128.0,127.0,126.0,125.0,126.0,131.0,126.0,128.0,19.0,-101.0,-80.0,127.0,127.0,127.0,106.0,85.0,-54.0
128.0,128.0,126.0,125.0,127.0,131.0,126.0,128.0,19.0,-101.0,-80.0,127.0,127.0,127.0,106.0,85.0,-54.0
128.0,128.0,126.0,125.0,127.0,131.0,126.0,128.0,19.0,-101.0,-80.0,127.0,127.0,127.0,106.0,85.0,-54.0
128.0,127.0,126.0,125.0,127.0,131.0,126.0,128.0,19.0,-101.0,-79.0,127.0,127.0,127.0,106.0,85.0,-54.0
128.0,127.0,126.0,125.0,127.0,131.0,126.0,127.0,19.0,-101.0,-79.0,127.0,127.0,127.0,106.0,85.0,-54.0
128.0,127.0,126.0,125.0,127.0,132.0,125.0,128.0,19.0,-101.0,-79.0,127.0,127.0,127.0,106.0,85.0,-54.0
128.0,127.0,126.0,125.0,127.0,132.0,126.0,128.0,19.0,-101.0,-79.0,127.0,127.0,127.0,106.0,85.0,-54.0
128.0,127.0,126.0,125.0,127.0,132.0,126.0,128.0,19.0,-101.0,-79.0,127.0,127.0,127.0,106.0,85.0,-54.0
128.0,126.0,126.0,125.0,127.0,132.0,126.0,128.0,19.0,-101.0,-79.0,127.0,127.0,127.0,106.0,85.0,-54.0
128.0,126.0,127.0,125.0,127.0,132.0,126.0,128.0,19.0,-101.0,-79.0,127.0,127.0,127.0,106.0,85.0,-54.0
128.0,127.0,126.0,125.0,126.0,131.0,126.0,128.0,19.0,-101.0,-79.0,127.0,127.0,127.0,106.0,85.0,-54.0
128.0,127.0,126.0,125.0,126.0,131.0,126.0,128.0,19.0,-101.0,-79.0,127.0,127.0,127.0,106.0,85.0,-54.0
128.0,127.0,126.0,125.0,126.0,131.0,126.0,128.0,19.0,-101.0,-79.0,127.0,127.0,127.0,106.0,85.0,-54.0
127.0,126.0,126.0,125.0,126.0,131.0,126.0,128.0,20.0,-101.0,-78.0,127.0,127.0,127.0,106.0,85.0,-54.0
127.0,126.0,126.0,125.0,126.0,131.0,126.0,128.0,20.0,-101.0,-78.0,127.0,127.0,127.0,106.0,85.0,-54.0
127.0,126.0,127.0,125.0,126.0,131.0,126.0,127.0,20.0,-101.0,-78.0,127.0,127.0,127.0,106.0,85.0,-54.0
127.0,126.0,127.0,125.0,126.0,131.0,126.0,128.0,20.0,-101.0,-78.0,127.0,127.0,127.0,106.0,85.0,-54.0
127.0,126.0,127.0,125.0,126.0,130.0,126.0,128.0,20.0,-101.0,-78.0,127.0,127.0,127.0,106.0,85.0,-54.0
127.0,126.0,127.0,124.0,126.0,130.0,126.0,127.0,20.0,-101.0,-78.0,127.0,127.0,127.0,106.0,85.0,-54.0
127.0,127.0,126.0,126.0,127.0,131.0,126.0,128.0,20.0,-101.0,-78.0,127.0,127.0,127.0,106.0,85.0,-54.0
127.0,127.0,126.0,125.0,127.0,131.0,126.0,128.0,20.0,-101.0,-78.0,127.0,127.0,127.0,106.0,85.0,-54.0
127.0,127.0,126.0,125.0,126.0,131.0,126.0,128.0,20.0,-101.0,-78.0,127.0,127.0,127.0,106.0,85.0,-54.0
127.0,127.0,126.0,125.0,126.0,131.0,126.0,128.0,20.0,-101.0,-78.0,127.0,127.0,127.0,106.0,85.0,-54.0
127.0,127.0,126.0,125.0,126.0,131.0,126.0,128.0,21.0,-101.0,-78.0,127.0,127.0,127.0,106.0,85.0,-54.0
127.0,126.0,126.0,125.0,126.0,131.0,126.0,128.0,21.0,-101.0,-78.0,127.0,127.0,127.0,106.0,85.0,-54.0
127.0,126.0,126.0,125.0,126.0,131.0,126.0,128.0,21.0,-101.0,-78.0,127.0,127.0,127.0,106.0,85.0,-54.0
127.0,126.0,126.0,126.0,126.0,131.0,126.0,128.0,21.0,-101.0,-78.0,127.0,127.0,127.0,106.0,85.0,-54.0
127.0,126.0,127.0,126.0,126.0,131.0,126.0,128.0,21.0,-101.0,-78.0,127.0,127.0,127.0,106.0,85.0,-54.0
127.0,127.0,126.0,126.0,127.0,131.0,126.0,128.0,21.0,-101.0,-78.0,127.0,127.0,127.0,106.0,85.0,-54.0
127.0,127.0,126.0,126.0,126.0,131.0,126.0,128.0,21.0,-101.0,-78.0,127.0,127.0,127.0,106.0,85.0,-54.0
127.0,127.0,126.0,126.0,126.0,131.0,126.0,128.0,21.0,-101.0,-78.0,127.0,127.0,127.0,106.0,85.0,-54.0
127.0,127.0,126.0,125.0,126.0,131.0,126.0,128.0,21.0,-101.0,-78.0,127.0,127.0,127.0,106.0,85.0,-54.0
127.0,127.0,126.0,125.0,126.0,131.0,126.0,128.0,21.0,-101.0,-78.0,127.0,127.0,127.0,106.0,85.0,-54.0
127.0,127.0,126.0,126.0,126.0,131.0,126.0,128.0,22.0,-101.0,-78.0,127.0,127.0,127.0,106.0,85.0,-54.0
127.0,127.0,126.0,126.0,126.0,131.0,126.0,128.0,22.0,-101.0,-78.0,127.0,127.0,127.0,106.0,85.0,-54.0
127.0,126.0,126.0,125.0,126.0,131.0,126.0,128.0,22.0,-101.0,-78.0,127.0,127.0,127.0,106.0,85.0,-54.0
127.0,128.0,125.0,126.0,127.0,132.0,126.0,128.0,22.0,-101.0,-78.0,127.0,127.0,127.0,106.0,85.0,-54.0
127.0,128.0,125.0,126.0,127.0,132.0,126.0,128.0,22.0,-101.0,-78.0,127.0,127.0,127.0,106.0,85.0,-54.0
127.0,128.0,125.0,126.0,127.0,132.0,126.0,128.0,22.0,-101.0,-78.0,127.0,127.0,127.0,106.0,85.0,-54.0
127.0,127.0,126.0,126.0,127.0,131.0,126.0,128.0,22.0,-101.0,-78.0,127.0,127.0,127.0,106.0,85.0,-54.0
127.0,127.0,126.0,126.0,126.0,131.0,126.0,128.0,22.0,-101.0,-78.0,127.0,127.0,127.0,106.0,85.0,-54.0
127.0,127.0,126.0,126.0,127.0,131.0,126.0,128.0,22.0,-101.0,-78.0,127.0,127.0,127.0,106.0,85.0,-54.0
127.0,127.0,126.0,126.0,126.0,131.0,126.0,128.0,22.0,-101.0,-78.0,127.0,127.0,127.0,106.0,85.0,-54.0
127.0,127.0,126.0,126.0,126.0,131.0,126.0,128.0,22.0,-100.0,-78.0,127.0,127.0,127.0,106.0,85.0,-54.0
127.0,126.0,126.0,126.0,126.0,131.0,127.0,128.0,22.0,-100.0,-78.0,127.0,127.0,127.0,106.0,85.0,-54.0
127.0,128.0,125.0,126.0,126.0,131.0,126.0,128.0,22.0,-100.0,-78.0,127.0,127.0,127.0,106.0,85.0,-54.0
127.0,128.0,125.0,126.0,126.0,131.0,126.0,128.0,22.0,-100.0,-78.0,127.0,127.0,127.0,106.0,85.0,-54.0
127.0,128.0,126.0,126.0,126.0,131.0,126.0,128.0,22.0,-100.0,-78.0,127.0,127.0,127.0,106.0,85.0,-54.0
127.0,127.0,126.0,126.0,126.0,131.0,127.0,128.0,22.0,-100.0,-78.0,127.0,127.0,127.0,106.0,85.0,-54.0
127.0,127.0,126.0,126.0,126.0,131.0,126.0,128.0,22.0,-100.0,-78.0,127.0,127.0,127.0,106.0,85.0,-54.0
127.0,127.0,126.0,126.0,126.0,131.0,127.0,128.0,22.0,-100.0,-78.0,127.0,127.0,127.0,106.0,85.0,-54.0
127.0,127.0,126.0,126.0,126.0,131.0,127.0,128.0,22.0,-100.0,-78.0,127.0,127.0,127.0,106.0,85.0,-54.0
127.0,127.0,126.0,126.0,126.0,131.0,126.0,128.0,22.0,-100.0,-78.0,127.0,127.0,127.0,106.0,85.0,-54.0
127.0,126.0,127.0,126.0,126.0,131.0,126.0,128.0,21.0,-100.0,-78.0,127.0,127.0,127.0,106.0,85.0,-54.0
127.0,128.0,127.0,126.0,127.0,131.0,126.0,128.0,21.0,-100.0,-78.0,127.0,127.0,127.0,106.0,85.0,-54.0
127.0,127.0,126.0,126.0,127.0,131.0,126.0,128.0,21.0,-100.0,-78.0,127.0,127.0,127.0,106.0,85.0,-54.0
127.0,127.0,127.0,126.0,127.0,131.0,126.0,128.0,21.0,-100.0,-78.0,127.0,127.0,127.0,106.0,85.0,-54.0
127.0,127.0,127.0,126.0,127.0,131.0,126.0,128.0,21.0,-100.0,-78.0,127.0,127.0,127.0,106.0,85.0,-54.0
127.0,127.0,127.0,126.0,127.0,131.0,126.0,128.0,21.0,-100.0,-78.0,127.0,127.0,127.0,106.0,85.0,-54.0
127.0,127.0,127.0,126.0,127.0,131.0,126.0,128.0,21.0,-100.0,-78.0,127.0,127.0,127.0,106.0,85.0,-54.0
127.0,127.0,127.0,126.0,126.0,131.0,126.0,128.0,21.0,-100.0,-78.0,127.0,127.0,127.0,106.0,85.0,-54.0
127.0,127.0,127.0,126.0,126.0,131.0,126.0,128.0,21.0,-100.0,-78.0,127.0,127.0,127.0,106.0,85.0,-54.0
127.0,126.0,127.0,126.0,126.0,131.0,126.0,128.0,21.0,-100.0,-78.0,127.0,127.0,127.0,106.0,85.0,-54.0
127.0,127.0,127.0,126.0,126.0,131.0,126.0,128.0,21.0,-100.0,-78.0,127.0,127.0,127.0,106.0,85.0,-54.0
127.0,127.0,127.0,126.0,126.0,131.0,126.0,128.0,21.0,-100.0,-78.0,127.0,127.0,127.0,106.0,85.0,-54.0
127.0,127.0,127.0,126.0,126.0,131.0,126.0,128.0,21.0,-100.0,-78.0,127.0,127.0,127.0,106.0,85.0,-54.0
127.0,127.0,127.0,126.0,126.0,131.0,126.0,128.0,21.0,-100.0,-78.0,127.0,127.0,127.0,106.0,85.0,-54.0
127.0,127.0,127.0,126.0,126.0,131.0,126.0,128.0,21.0,-100.0,-78.0,127.0,127.0,127.0,106.0,85.0,-54.0
127.0,127.0,127.0,126.0,126.0,131.0,126.0,128.0,21.0,-100.0,-78.0,127.0,127.0,127.0,106.0,85.0,-54.0
127.0,127.0,127.0,126.0,126.0,131.0,126.0,128.0,21.0,-100.0,-78.0,127.0,127.0,127.0,106.0,85.0,-54.0
127.0,126.0,127.0,126.0,126.0,131.0,126.0,128.0,21.0,-100.0,-78.0,127.0,127.0,127.0,106.0,85.0,-54.0
127.0,126.0,128.0,126.0,126.0,131.0,126.0,128.0,21.0,-100.0,-78.0,127.0,127.0,127.0,106.0,85.0,-54.0
127.0,126.0,128.0,126.0,126.0,131.0,126.0,128.0,21.0,-100.0,-78.0,127.0,127.0,127.0,106.0,85.0,-54.0
127.0,127.0,126.0,126.0,127.0,131.0,127.0,128.0,20.0,-101.0,-78.0,127.0,127.0,127.0,106.0,85.0,-54.0
127.0,127.0,126.0,126.0,127.0,131.0,127.0,128.0,20.0,-101.0,-78.0,127.0,127.0,127.0,106.0,85.0,-54.0
127.0,127.0,126.0,126.0,127.0,131.0,127.0,128.0,20.0,-101.0,-78.0,127.0,127.0,127.0,106.0,85.0,-54.0
127.0,127.0,126.0,126.0,127.0,131.0,127.0,128.0,20.0,-101.0,-78.0,127.0,127.0,127.0,106.0,85.0,-54.0
127.0,127.0,126.0,126.0,127.0,131.0,127.0,128.0,20.0,-101.0,-78.0,127.0,127.0,127.0,106.0,85.0,-54.0
127.0,127.0,127.0,126.0,127.0,131.0,127.0,128.0,20.0,-101.0,-78.0,127.0,127.0,127.0,106.0,85.0,-54.0
126.0,126.0,127.0,126.0,127.0,131.0,127.0,128.0,20.0,-101.0,-78.0,127.0,127.0,127.0,106.0,85.0,-54.0
126.0,126.0,127.0,126.0,127.0,131.0,127.0,128.0,20.0,-101.0,-78.0,127.0,127.0,127.0,106.0,85.0,-54.0
126.0,126.0,127.0,126.0,127.0,131.0,127.0,128.0,20.0,-101.0,-78.0,127.0,127.0,127.0,106.0,85.0,-54.0
127.0,127.0,126.0,126.0,127.0,131.0,127.0,128.0,20.0,-101.0,-78.0,127.0,127.0,127.0,106.0,85.0,-54.0
126.0,127.0,126.0,126.0,127.0,130.0,127.0,127.0,20.0,-101.0,-78.0,127.0,127.0,127.0,106.0,85.0,-54.0
126.0,127.0,125.0,126.0,127.0,130.0,127.0,127.0,20.0,-101.0,-78.0,127.0,127.0,127.0,106.0,85.0,-54.0
126.0,127.0,125.0,126.0,127.0,130.0,127.0,127.0,20.0,-101.0,-78.0,127.0,127.0,127.0,106.0,85.0,-54.0
126.0,127.0,125.0,126.0,127.0,130.0,127.0,127.0,20.0,-101.0,-78.0,127.0,127.0,127.0,106.0,85.0,-54.0
126.0,127.0,126.0,126.0,127.0,130.0,127.0,127.0,20.0,-101.0,-78.0,127.0,127.0,127.0,106.0,85.0,-54.0
126.0,127.0,126.0,126.0,127.0,130.0,127.0,127.0,20.0,-101.0,-78.0,127.0,127.0,127.0,106.0,85.0,-54.0
126.0,127.0,126.0,126.0,127.0,130.0,127.0,127.0,20.0,-101.0,-78.0,127.0,127.0,127.0,106.0,85.0,-54.0
126.0,127.0,126.0,126.0,127.0,130.0,127.0,127.0,20.0,-101.0,-78.0,127.0,127.0,127.0,106.0,85.0,-54.0
126.0,127.0,126.0,126.0,127.0,130.0,128.0,127.0,20.0,-101.0,-78.0,127.0,127.0,127.0,106.0,85.0,-54.0
126.0,127.0,126.0,126.0,127.0,129.0,128.0,127.0,20.0,-101.0,-78.0,127.0,127.0,127.0,106.0,85.0,-54.0
126.0,128.0,125.0,126.0,127.0,129.0,127.0,127.0,21.0,-101.0,-78.0,127.0,127.0,127.0,106.0,85.0,-54.0
126.0,127.0,125.0,126.0,127.0,129.0,127.0,127.0,21.0,-101.0,-78.0,127.0,127.0,127.0,106.0,85.0,-54.0
126.0,127.0,125.0,127.0,127.0,129.0,127.0,127.0,21.0,-101.0,-78.0,127.0,127.0,127.0,106.0,85.0,-54.0
126.0,127.0,126.0,127.0,127.0,129.0,127.0,127.0,21.0,-101.0,-78.0,127.0,127.0,127.0,106.0,85.0,-54.0
126.0,127.0,126.0,127.0,127.0,129.0,127.0,127.0,21.0,-101.0,-78.0,127.0,127.0,127.0,106.0,85.0,-54.0
126.0,127.0,126.0,127.0,127.0,129.0,127.0,127.0,21.0,-101.0,-78.0,127.0,127.0,127.0,106.0,85.0,-54.0
126.0,127.0,126.0,127.0,127.0,129.0,127.0,127.0,21.0,-101.0,-78.0,127.0,127.0,127.0,106.0,85.0,-54.0
126.0,128.0,125.0,126.0,127.0,129.0,127.0,127.0,21.0,-101.0,-78.0,127.0,127.0,127.0,106.0,85.0,-54.0
126.0,128.0,125.0,126.0,127.0,129.0,127.0,127.0,21.0,-101.0,-78.0,127.0,127.0,127.0,106.0,85.0,-54.0
126.0,128.0,125.0,126.0,127.0,129.0,127.0,127.0,21.0,-101.0,-78.0,127.0,127.0,127.0,106.0,85.0,-54.0
126.0,128.0,126.0,126.0,127.0,130.0,126.0,126.0,22.0,-102.0,-78.0,127.0,127.0,127.0,106.0,85.0,-54.0
126.0,128.0,126.0,126.0,127.0,130.0,126.0,126.0,22.0,-102.0,-78.0,127.0,127.0,127.0,106.0,85.0,-54.0
126.0,128.0,126.0,126.0,127.0,130.0,126.0,126.0,22.0,-102.0,-78.0,127.0,127.0,127.0,106.0,85.0,-54.0
126.0,128.0,126.0,126.0,127.0,130.0,126.0,126.0,22.0,-102.0,-78.0,127.0,127.0,127.0,106.0,85.0,-54.0
126.0,128.0,126.0,126.0,127.0,130.0,126.0,126.0,22.0,-102.0,-78.0,127.0,127.0,127.0,106.0,85.0,-54.0
126.0,127.0,126.0,126.0,127.0,130.0,126.0,126.0,22.0,-102.0,-78.0,127.0,127.0,127.0,106.0,85.0,-54.0
126.0,128.0,126.0,126.0,127.0,130.0,126.0,126.0,22.0,-102.0,-78.0,127.0,127.0,127.0,106.0,85.0,-54.0
126.0,128.0,126.0,126.0,127.0,130.0,126.0,126.0,22.0,-102.0,-78.0,127.0,127.0,127.0,106.0,85.0,-54.0
126.0,128.0,126.0,126.0,127.0,130.0,126.0,126.0,22.0,-102.0,-78.0,127.0,127.0,127.0,106.0,85.0,-54.0
126.0,128.0,126.0,126.0,127.0,130.0,126.0,126.0,22.0,-102.0,-78.0,127.0,127.0,127.0,106.0,85.0,-54.0
125.0,128.0,125.0,126.0,127.0,129.0,126.0,126.0,23.0,-102.0,-77.0,127.0,127.0,127.0,106.0,85.0,-54.0
125.0,128.0,125.0,126.0,127.0,129.0,126.0,126.0,23.0,-102.0,-77.0,127.0,127.0,127.0,106.0,85.0,-54.0
125.0,128.0,125.0,126.0,127.0,129.0,126.0,126.0,23.0,-102.0,-77.0,127.0,127.0,127.0,106.0,85.0,-54.0
125.0,128.0,125.0,127.0,127.0,129.0,126.0,126.0,23.0,-102.0,-77.0,127.0,127.0,127.0,106.0,85.0,-54.0
125.0,128.0,126.0,127.0,127.0,129.0,126.0,126.0,23.0,-102.0,-77.0,127.0,127.0,127.0,106.0,85.0,-54.0
125.0,129.0,125.0,126.0,127.0,129.0,126.0,126.0,23.0,-102.0,-77.0,127.0,127.0,127.0,106.0,85.0,-54.0
125.0,129.0,125.0,126.0,127.0,129.0,126.0,126.0,23.0,-102.0,-77.0,127.0,127.0,127.0,106.0,85.0,-54.0
125.0,129.0,125.0,126.0,127.0,129.0,126.0,126.0,23.0,-102.0,-77.0,127.0,127.0,127.0,106.0,85.0,-54.0
125.0,129.0,125.0,126.0,127.0,129.0,126.0,126.0,23.0,-102.0,-77.0,127.0,127.0,127.0,106.0,85.0,-54.0
125.0,128.0,125.0,126.0,127.0,129.0,126.0,126.0,23.0,-102.0,-77.0,127.0,127.0,127.0,106.0,85.0,-54.0
125.0,128.0,126.0,127.0,127.0,130.0,127.0,126.0,24.0,-103.0,-77.0,127.0,127.0,127.0,106.0,85.0,-54.0
125.0,128.0,126.0,127.0,127.0,130.0,127.0,126.0,24.0,-103.0,-77.0,127.0,127.0,127.0,106.0,85.0,-54.0
125.0,128.0,126.0,127.0,127.0,130.0,126.0,126.0,24.0,-103.0,-77.0,127.0,127.0,127.0,106.0,85.0,-54.0
