emg1,emg2,emg3,emg4,emg5,emg6,emg7,emg8,acc_x,acc_y,acc_z,gyro_x,gyro_y,gyro_z,angle_pitch,angle_roll,angle_yaw
127.0,126.0,128.0,127.0,126.0,129.0,125.0,127.0,17.0,-119.0,-79.0,127.0,127.0,127.0,121.0,83.0,-127.0
127.0,126.0,127.0,127.0,126.0,130.0,125.0,127.0,17.0,-119.0,-79.0,127.0,127.0,127.0,121.0,83.0,-127.0
127.0,126.0,127.0,127.0,126.0,130.0,125.0,127.0,17.0,-119.0,-79.0,127.0,127.0,127.0,121.0,83.0,-127.0
127.0,126.0,127.0,127.0,126.0,129.0,125.0,127.0,17.0,-119.0,-79.0,127.0,127.0,127.0,121.0,83.0,-127.0
127.0,126.0,127.0,127.0,126.0,129.0,125.0,127.0,17.0,-119.0,-79.0,127.0,127.0,127.0,121.0,83.0,-127.0
127.0,126.0,127.0,127.0,126.0,129.0,125.0,127.0,17.0,-119.0,-79.0,127.0,127.0,127.0,121.0,83.0,-127.0
127.0,126.0,127.0,127.0,127.0,129.0,126.0,128.0,17.0,-119.0,-79.0,127.0,127.0,127.0,121.0,83.0,-127.0
127.0,126.0,128.0,127.0,126.0,129.0,125.0,127.0,17.0,-119.0,-79.0,127.0,127.0,127.0,121.0,83.0,-127.0
127.0,126.0,128.0,127.0,126.0,129.0,125.0,127.0,17.0,-119.0,-79.0,127.0,127.0,127.0,121.0,83.0,-127.0
127.0,126.0,128.0,127.0,126.0,129.0,125.0,127.0,17.0,-119.0,-79.0,127.0,127.0,127.0,121.0,83.0,-127.0
127.0,126.0,127.0,127.0,127.0,129.0,125.0,127.0,17.0,-119.0,-79.0,127.0,127.0,127.0,121.0,83.0,-127.0
127.0,126.0,127.0,127.0,126.0,129.0,125.0,127.0,17.0,-119.0,-79.0,127.0,127.0,127.0,121.0,83.0,-127.0
127.0,126.0,127.0,127.0,126.0,129.0,125.0,127.0,17.0,-119.0,-79.0,127.0,127.0,127.0,121.0,83.0,-127.0
127.0,126.0,127.0,127.0,126.0,129.0,125.0,127.0,17.0,-119.0,-79.0,127.0,127.0,127.0,121.0,83.0,-127.0
127.0,126.0,127.0,127.0,127.0,129.0,125.0,127.0,17.0,-119.0,-79.0,127.0,127.0,127.0,121.0,83.0,-127.0
127.0,126.0,127.0,127.0,127.0,129.0,125.0,127.0,17.0,-119.0,-79.0,127.0,127.0,127.0,121.0,83.0,-127.0
127.0,126.0,127.0,128.0,127.0,129.0,126.0,127.0,17.0,-119.0,-79.0,127.0,127.0,127.0,121.0,83.0,-127.0
127.0,126.0,127.0,127.0,126.0,128.0,125.0,127.0,17.0,-119.0,-79.0,127.0,127.0,127.0,121.0,83.0,-127.0
127.0,126.0,127.0,127.0,126.0,129.0,125.0,127.0,17.0,-119.0,-79.0,127.0,127.0,127.0,121.0,83.0,-127.0
127.0,126.0,127.0,127.0,126.0,129.0,125.0,127.0,17.0,-119.0,-79.0,127.0,127.0,127.0,121.0,83.0,-127.0
127.0,125.0,128.0,126.0,126.0,128.0,125.0,127.0,17.0,-119.0,-79.0,127.0,127.0,127.0,121.0,83.0,-127.0
127.0,125.0,128.0,126.0,126.0,128.0,125.0,127.0,17.0,-119.0,-79.0,127.0,127.0,127.0,121.0,83.0,-127.0
127.0,126.0,128.0,126.0,126.0,129.0,125.0,127.0,17.0,-119.0,-79.0,127.0,127.0,127.0,121.0,83.0,-127.0
127.0,126.0,128.0,126.0,126.0,129.0,125.0,127.0,17.0,-119.0,-79.0,127.0,127.0,127.0,121.0,83.0,-127.0
127.0,126.0,128.0,126.0,126.0,129.0,125.0,127.0,17.0,-119.0,-79.0,127.0,127.0,127.0,121.0,83.0,-127.0
127.0,126.0,128.0,126.0,126.0,128.0,126.0,127.0,17.0,-119.0,-79.0,127.0,127.0,127.0,121.0,83.0,-127.0
127.0,126.0,128.0,126.0,126.0,128.0,125.0,127.0,17.0,-119.0,-79.0,127.0,127.0,127.0,121.0,83.0,-127.0
127.0,126.0,128.0,126.0,126.0,128.0,125.0,127.0,17.0,-119.0,-79.0,127.0,127.0,127.0,121.0,83.0,-127.0
127.0,126.0,128.0,126.0,126.0,128.0,125.0,127.0,17.0,-119.0,-79.0,127.0,127.0,127.0,121.0,83.0,-127.0
127.0,125.0,128.0,126.0,126.0,128.0,125.0,127.0,17.0,-119.0,-79.0,127.0,127.0,127.0,121.0,83.0,-127.0
127.0,126.0,128.0,127.0,126.0,128.0,126.0,127.0,17.0,-119.0,-79.0,127.0,127.0,127.0,121.0,83.0,-127.0
127.0,126.0,128.0,127.0,126.0,128.0,126.0,127.0,17.0,-119.0,-79.0,127.0,127.0,127.0,121.0,83.0,-127.0
127.0,126.0,128.0,127.0,126.0,129.0,126.0,127.0,17.0,-119.0,-79.0,127.0,127.0,127.0,121.0,83.0,-127.0
127.0,126.0,128.0,127.0,126.0,129.0,126.0,127.0,17.0,-119.0,-79.0,127.0,127.0,127.0,121.0,83.0,-127.0
127.0,126.0,128.0,127.0,126.0,128.0,126.0,127.0,17.0,-119.0,-79.0,127.0,127.0,127.0,121.0,83.0,-127.0
127.0,126.0,128.0,126.0,126.0,128.0,126.0,127.0,17.0,-119.0,-79.0,127.0,127.0,127.0,121.0,83.0,-127.0
127.0,126.0,128.0,126.0,126.0,128.0,126.0,127.0,17.0,-119.0,-79.0,127.0,127.0,127.0,121.0,83.0,-127.0
127.0,126.0,128.0,127.0,126.0,128.0,126.0,127.0,17.0,-119.0,-79.0,127.0,127.0,127.0,121.0,83.0,-127.0
127.0,125.0,128.0,127.0,126.0,128.0,126.0,127.0,17.0,-119.0,-79.0,127.0,127.0,127.0,121.0,83.0,-127.0
127.0,125.0,128.0,127.0,126.0,128.0,126.0,127.0,17.0,-119.0,-79.0,127.0,127.0,127.0,121.0,83.0,-127.0
127.0,126.0,127.0,127.0,126.0,129.0,125.0,127.0,17.0,-119.0,-79.0,127.0,127.0,127.0,121.0,83.0,-127.0
127.0,126.0,127.0,127.0,126.0,129.0,126.0,127.0,17.0,-119.0,-79.0,127.0,127.0,127.0,121.0,83.0,-127.0
127.0,126.0,127.0,127.0,126.0,128.0,126.0,127.0,17.0,-119.0,-79.0,127.0,127.0,127.0,121.0,83.0,-127.0
127.0,126.0,127.0,127.0,126.0,128.0,126.0,127.0,17.0,-119.0,-79.0,127.0,127.0,127.0,121.0,83.0,-127.0
127.0,126.0,127.0,127.0,126.0,129.0,125.0,127.0,17.0,-119.0,-79.0,127.0,127.0,127.0,121.0,83.0,-127.0
127.0,126.0,127.0,127.0,126.0,129.0,125.0,127.0,17.0,-119.0,-79.0,127.0,127.0,127.0,121.0,83.0,-127.0
127.0,126.0,127.0,127.0,126.0,129.0,125.0,127.0,17.0,-119.0,-79.0,127.0,127.0,127.0,121.0,83.0,-127.0
127.0,126.0,127.0,127.0,126.0,129.0,125.0,127.0,17.0,-119.0,-79.0,127.0,127.0,127.0,121.0,83.0,-127.0
127.0,126.0,127.0,127.0,126.0,129.0,125.0,127.0,17.0,-119.0,-79.0,127.0,127.0,127.0,121.0,83.0,-127.0
127.0,126.0,127.0,127.0,126.0,129.0,125.0,127.0,17.0,-119.0,-79.0,127.0,127.0,127.0,121.0,83.0,-127.0
127.0,126.0,128.0,127.0,127.0,129.0,125.0,127.0,17.0,-119.0,-79.0,127.0,127.0,127.0,121.0,83.0,-127.0
127.0,126.0,128.0,127.0,127.0,129.0,125.0,127.0,17.0,-119.0,-79.0,127.0,127.0,127.0,121.0,83.0,-127.0
127.0,126.0,128.0,127.0,127.0,129.0,125.0,127.0,17.0,-119.0,-79.0,127.0,127.0,127.0,121.0,83.0,-127.0
127.0,126.0,128.0,127.0,126.0,129.0,125.0,127.0,17.0,-119.0,-79.0,127.0,127.0,127.0,121.0,83.0,-127.0
127.0,126.0,128.0,126.0,126.0,129.0,125.0,127.0,17.0,-119.0,-79.0,127.0,127.0,127.0,121.0,83.0,-127.0
127.0,126.0,128.0,126.0,126.0,129.0,125.0,127.0,17.0,-119.0,-79.0,127.0,127.0,127.0,121.0,83.0,-127.0
127.0,126.0,128.0,126.0,126.0,129.0,125.0,127.0,17.0,-119.0,-79.0,127.0,127.0,127.0,121.0,83.0,-127.0
127.0,126.0,128.0,126.0,126.0,129.0,125.0,127.0,17.0,-119.0,-79.0,127.0,127.0,127.0,121.0,83.0,-127.0
127.0,125.0,128.0,126.0,126.0,129.0,125.0,127.0,17.0,-119.0,-79.0,127.0,127.0,127.0,121.0,83.0,-127.0
127.0,125.0,128.0,126.0,126.0,129.0,125.0,127.0,17.0,-119.0,-79.0,127.0,127.0,127.0,121.0,83.0,-127.0
127.0,127.0,128.0,128.0,127.0,129.0,125.0,128.0,17.0,-119.0,-79.0,127.0,127.0,127.0,121.0,83.0,-127.0
127.0,127.0,128.0,127.0,127.0,129.0,125.0,127.0,17.0,-119.0,-79.0,127.0,127.0,127.0,121.0,83.0,-127.0
127.0,127.0,128.0,127.0,127.0,129.0,125.0,127.0,17.0,-119.0,-79.0,127.0,127.0,127.0,121.0,83.0,-127.0
127.0,127.0,128.0,128.0,127.0,130.0,125.0,127.0,17.0,-119.0,-79.0,127.0,127.0,127.0,121.0,83.0,-127.0
127.0,127.0,128.0,128.0,127.0,130.0,125.0,128.0,17.0,-119.0,-79.0,127.0,127.0,127.0,121.0,83.0,-127.0
127.0,127.0,128.0,128.0,127.0,129.0,125.0,127.0,17.0,-119.0,-79.0,127.0,127.0,127.0,121.0,83.0,-127.0
127.0,127.0,128.0,128.0,127.0,130.0,125.0,127.0,17.0,-119.0,-79.0,127.0,127.0,127.0,121.0,83.0,-127.0
127.0,127.0,128.0,128.0,127.0,130.0,125.0,127.0,17.0,-119.0,-79.0,127.0,127.0,127.0,121.0,83.0,-127.0
127.0,127.0,128.0,128.0,127.0,130.0,125.0,128.0,17.0,-119.0,-79.0,127.0,127.0,127.0,121.0,83.0,-127.0
127.0,127.0,128.0,128.0,127.0,130.0,125.0,128.0,17.0,-119.0,-79.0,127.0,127.0,127.0,121.0,83.0,-127.0
127.0,126.0,128.0,126.0,126.0,129.0,125.0,127.0,17.0,-119.0,-79.0,127.0,127.0,127.0,121.0,83.0,-127.0
127.0,126.0,128.0,126.0,126.0,129.0,125.0,127.0,17.0,-119.0,-79.0,127.0,127.0,127.0,121.0,83.0,-127.0
127.0,126.0,128.0,126.0,126.0,129.0,125.0,127.0,17.0,-119.0,-79.0,127.0,127.0,127.0,121.0,83.0,-127.0
127.0,126.0,128.0,125.0,126.0,129.0,125.0,127.0,17.0,-119.0,-79.0,127.0,127.0,127.0,121.0,83.0,-127.0
127.0,126.0,128.0,125.0,126.0,129.0,125.0,127.0,17.0,-119.0,-79.0,127.0,127.0,127.0,121.0,83.0,-127.0
127.0,126.0,127.0,125.0,126.0,129.0,124.0,127.0,17.0,-119.0,-79.0,127.0,127.0,127.0,121.0,83.0,-127.0
127.0,126.0,128.0,125.0,126.0,130.0,125.0,127.0,17.0,-119.0,-79.0,127.0,127.0,127.0,121.0,83.0,-127.0
127.0,126.0,128.0,125.0,126.0,129.0,125.0,127.0,17.0,-119.0,-79.0,127.0,127.0,127.0,121.0,83.0,-127.0
127.0,126.0,128.0,125.0,126.0,129.0,125.0,127.0,17.0,-119.0,-79.0,127.0,127.0,127.0,121.0,83.0,-127.0
127.0,126.0,127.0,125.0,126.0,129.0,125.0,127.0,17.0,-119.0,-79.0,127.0,127.0,127.0,121.0,83.0,-127.0
126.0,126.0,127.0,126.0,127.0,130.0,125.0,127.0,17.0,-119.0,-79.0,127.0,127.0,127.0,121.0,83.0,-127.0
126.0,126.0,127.0,127.0,127.0,130.0,125.0,127.0,17.0,-119.0,-79.0,127.0,127.0,127.0,121.0,83.0,-127.0
126.0,126.0,127.0,127.0,127.0,130.0,125.0,127.0,17.0,-119.0,-79.0,127.0,127.0,127.0,121.0,83.0,-127.0
126.0,126.0,128.0,127.0,127.0,130.0,125.0,127.0,17.0,-119.0,-79.0,127.0,127.0,127.0,121.0,83.0,-127.0
126.0,126.0,127.0,127.0,127.0,130.0,125.0,127.0,17.0,-119.0,-79.0,127.0,127.0,127.0,121.0,83.0,-127.0
126.0,126.0,127.0,127.0,127.0,130.0,125.0,127.0,17.0,-119.0,-79.0,127.0,127.0,127.0,121.0,83.0,-127.0
126.0,126.0,127.0,127.0,127.0,130.0,125.0,127.0,17.0,-119.0,-79.0,127.0,127.0,127.0,121.0,83.0,-127.0
126.0,126.0,127.0,127.0,127.0,130.0,125.0,127.0,17.0,-119.0,-79.0,127.0,127.0,127.0,121.0,83.0,-127.0
126.0,126.0,127.0,127.0,127.0,130.0,125.0,127.0,17.0,-119.0,-79.0,127.0,127.0,127.0,121.0,83.0,-127.0
126.0,126.0,127.0,127.0,127.0,130.0,125.0,127.0,17.0,-119.0,-79.0,127.0,127.0,127.0,121.0,83.0,-127.0
126.0,126.0,128.0,126.0,126.0,130.0,125.0,127.0,17.0,-119.0,-79.0,127.0,127.0,127.0,121.0,83.0,-127.0
126.0,126.0,128.0,126.0,126.0,130.0,125.0,127.0,17.0,-119.0,-79.0,127.0,127.0,127.0,121.0,83.0,-127.0
126.0,126.0,128.0,126.0,126.0,130.0,125.0,127.0,17.0,-119.0,-79.0,127.0,127.0,127.0,121.0,83.0,-127.0
126.0,126.0,128.0,126.0,126.0,130.0,125.0,126.0,17.0,-119.0,-79.0,127.0,127.0,127.0,121.0,83.0,-127.0
126.0,126.0,128.0,126.0,126.0,130.0,125.0,126.0,17.0,-119.0,-79.0,127.0,127.0,127.0,121.0,83.0,-127.0
126.0,126.0,128.0,126.0,126.0,130.0,125.0,127.0,17.0,-119.0,-79.0,127.0,127.0,127.0,121.0,83.0,-127.0
126.0,126.0,128.0,126.0,126.0,130.0,125.0,127.0,17.0,-119.0,-79.0,127.0,127.0,127.0,121.0,83.0,-127.0
126.0,126.0,128.0,126.0,126.0,130.0,125.0,127.0,17.0,-119.0,-79.0,127.0,127.0,127.0,121.0,83.0,-127.0
126.0,126.0,128.0,126.0,127.0,130.0,125.0,127.0,17.0,-119.0,-79.0,127.0,127.0,127.0,121.0,83.0,-127.0
126.0,126.0,128.0,126.0,127.0,130.0,125.0,127.0,17.0,-119.0,-79.0,127.0,127.0,127.0,121.0,83.0,-127.0
127.0,126.0,129.0,126.0,127.0,128.0,126.0,127.0,17.0,-119.0,-79.0,127.0,127.0,127.0,121.0,83.0,-127.0
127.0,126.0,129.0,126.0,127.0,129.0,125.0,127.0,17.0,-119.0,-79.0,127.0,127.0,127.0,121.0,83.0,-127.0
127.0,126.0,129.0,126.0,127.0,128.0,125.0,127.0,17.0,-119.0,-79.0,127.0,127.0,127.0,121.0,83.0,-127.0
127.0,125.0,129.0,126.0,127.0,128.0,125.0,127.0,17.0,-119.0,-79.0,127.0,127.0,127.0,121.0,83.0,-127.0
127.0,126.0,129.0,126.0,126.0,128.0,125.0,127.0,17.0,-119.0,-79.0,127.0,127.0,127.0,121.0,83.0,-127.0
127.0,126.0,129.0,126.0,126.0,129.0,125.0,127.0,17.0,-119.0,-79.0,127.0,127.0,127.0,121.0,83.0,-127.0
127.0,126.0,128.0,126.0,127.0,129.0,125.0,127.0,17.0,-119.0,-79.0,127.0,127.0,127.0,121.0,83.0,-127.0
127.0,126.0,128.0,127.0,127.0,128.0,126.0,127.0,17.0,-119.0,-79.0,127.0,127.0,127.0,121.0,83.0,-127.0
127.0,126.0,128.0,127.0,127.0,128.0,126.0,127.0,17.0,-119.0,-79.0,127.0,127.0,127.0,121.0,83.0,-127.0
127.0,126.0,129.0,127.0,127.0,128.0,126.0,127.0,17.0,-119.0,-79.0,127.0,127.0,127.0,121.0,83.0,-127.0
127.0,126.0,127.0,126.0,126.0,129.0,125.0,127.0,17.0,-119.0,-79.0,127.0,127.0,127.0,121.0,83.0,-127.0
127.0,126.0,127.0,126.0,126.0,129.0,125.0,127.0,17.0,-119.0,-79.0,127.0,127.0,127.0,121.0,83.0,-127.0
127.0,126.0,127.0,126.0,126.0,129.0,124.0,127.0,17.0,-119.0,-79.0,127.0,127.0,127.0,121.0,83.0,-127.0
127.0,126.0,127.0,126.0,126.0,129.0,125.0,127.0,17.0,-119.0,-79.0,127.0,127.0,127.0,121.0,83.0,-127.0
127.0,126.0,127.0,126.0,127.0,129.0,125.0,127.0,17.0,-119.0,-79.0,127.0,127.0,127.0,121.0,83.0,-127.0
127.0,126.0,127.0,126.0,127.0,129.0,125.0,127.0,17.0,-119.0,-79.0,127.0,127.0,127.0,121.0,83.0,-127.0
127.0,126.0,127.0,126.0,126.0,128.0,125.0,127.0,17.0,-119.0,-79.0,127.0,127.0,127.0,121.0,83.0,-127.0
127.0,126.0,127.0,126.0,126.0,128.0,125.0,127.0,17.0,-119.0,-79.0,127.0,127.0,127.0,121.0,83.0,-127.0
127.0,126.0,127.0,126.0,126.0,128.0,125.0,127.0,17.0,-119.0,-79.0,127.0,127.0,127.0,121.0,83.0,-127.0
127.0,126.0,127.0,126.0,126.0,129.0,125.0,127.0,17.0,-119.0,-79.0,127.0,127.0,127.0,121.0,83.0,-127.0
127.0,126.0,127.0,128.0,127.0,129.0,125.0,127.0,17.0,-119.0,-79.0,127.0,127.0,127.0,121.0,83.0,-127.0
127.0,126.0,127.0,128.0,127.0,130.0,125.0,127.0,17.0,-119.0,-79.0,127.0,127.0,127.0,121.0,83.0,-127.0
127.0,126.0,127.0,128.0,127.0,129.0,125.0,127.0,17.0,-119.0,-79.0,127.0,127.0,127.0,121.0,83.0,-127.0
127.0,126.0,127.0,128.0,127.0,130.0,125.0,127.0,17.0,-119.0,-79.0,127.0,127.0,127.0,121.0,83.0,-127.0
127.0,126.0,127.0,128.0,127.0,129.0,125.0,127.0,17.0,-119.0,-79.0,127.0,127.0,127.0,121.0,83.0,-127.0
127.0,126.0,127.0,128.0,127.0,129.0,125.0,127.0,17.0,-119.0,-79.0,127.0,127.0,127.0,121.0,83.0,-127.0
127.0,126.0,127.0,128.0,127.0,129.0,125.0,127.0,17.0,-119.0,-79.0,127.0,127.0,127.0,121.0,83.0,-127.0
127.0,126.0,127.0,128.0,127.0,129.0,125.0,127.0,17.0,-119.0,-79.0,127.0,127.0,127.0,121.0,83.0,-127.0
127.0,126.0,127.0,128.0,127.0,129.0,125.0,127.0,17.0,-119.0,-79.0,127.0,127.0,127.0,121.0,83.0,-127.0
127.0,126.0,127.0,128.0,127.0,129.0,125.0,127.0,17.0,-119.0,-79.0,127.0,127.0,127.0,121.0,83.0,-127.0
127.0,126.0,127.0,127.0,127.0,129.0,125.0,127.0,17.0,-119.0,-79.0,127.0,127.0,127.0,121.0,83.0,-127.0
127.0,126.0,127.0,127.0,127.0,130.0,125.0,127.0,17.0,-119.0,-79.0,127.0,127.0,127.0,121.0,83.0,-127.0
127.0,126.0,127.0,127.0,127.0,130.0,125.0,127.0,17.0,-119.0,-79.0,127.0,127.0,127.0,121.0,83.0,-127.0
127.0,126.0,127.0,127.0,127.0,129.0,125.0,127.0,17.0,-119.0,-79.0,127.0,127.0,127.0,121.0,83.0,-127.0
127.0,126.0,126.0,127.0,127.0,129.0,126.0,127.0,17.0,-119.0,-79.0,127.0,127.0,127.0,121.0,83.0,-127.0
127.0,126.0,126.0,127.0,127.0,129.0,125.0,127.0,17.0,-119.0,-79.0,127.0,127.0,127.0,121.0,83.0,-127.0
127.0,126.0,127.0,127.0,127.0,129.0,125.0,127.0,17.0,-119.0,-79.0,127.0,127.0,127.0,121.0,83.0,-127.0
127.0,126.0,127.0,127.0,127.0,129.0,125.0,127.0,17.0,-119.0,-79.0,127.0,127.0,127.0,121.0,83.0,-127.0
127.0,126.0,127.0,127.0,127.0,129.0,125.0,127.0,17.0,-119.0,-79.0,127.0,127.0,127.0,121.0,83.0,-127.0
127.0,126.0,127.0,127.0,127.0,129.0,125.0,127.0,17.0,-119.0,-79.0,127.0,127.0,127.0,121.0,83.0,-127.0
127.0,126.0,127.0,126.0,126.0,129.0,126.0,127.0,17.0,-119.0,-79.0,127.0,127.0,127.0,121.0,83.0,-127.0
127.0,126.0,127.0,127.0,126.0,129.0,126.0,127.0,17.0,-119.0,-79.0,127.0,127.0,127.0,121.0,83.0,-127.0
127.0,126.0,127.0,127.0,126.0,129.0,126.0,127.0,17.0,-119.0,-79.0,127.0,127.0,127.0,121.0,83.0,-127.0
126.0,126.0,127.0,125.0,126.0,129.0,126.0,127.0,17.0,-119.0,-79.0,127.0,127.0,127.0,121.0,83.0,-127.0
126.0,126.0,127.0,125.0,126.0,129.0,126.0,127.0,17.0,-119.0,-79.0,127.0,127.0,127.0,121.0,83.0,-127.0
126.0,126.0,127.0,125.0,126.0,129.0,126.0,127.0,17.0,-119.0,-79.0,127.0,127.0,127.0,121.0,83.0,-127.0
126.0,126.0,127.0,126.0,126.0,129.0,126.0,127.0,17.0,-119.0,-79.0,127.0,127.0,127.0,121.0,83.0,-127.0
126.0,126.0,127.0,126.0,126.0,129.0,126.0,127.0,17.0,-119.0,-79.0,127.0,127.0,127.0,121.0,83.0,-127.0
127.0,126.0,127.0,126.0,126.0,129.0,126.0,127.0,17.0,-119.0,-79.0,127.0,127.0,127.0,121.0,83.0,-127.0
127.0,126.0,127.0,126.0,126.0,129.0,126.0,127.0,17.0,-119.0,-79.0,127.0,127.0,127.0,121.0,83.0,-127.0
126.0,126.0,127.0,126.0,127.0,130.0,125.0,127.0,17.0,-119.0,-79.0,127.0,127.0,127.0,121.0,83.0,-128.0
126.0,126.0,127.0,126.0,127.0,130.0,125.0,127.0,17.0,-119.0,-79.0,127.0,127.0,127.0,121.0,83.0,-128.0
126.0,126.0,127.0,127.0,126.0,129.0,126.0,127.0,17.0,-119.0,-79.0,127.0,127.0,127.0,121.0,83.0,-128.0
126.0,126.0,127.0,127.0,127.0,129.0,126.0,127.0,17.0,-119.0,-79.0,127.0,127.0,127.0,121.0,83.0,-128.0
126.0,126.0,127.0,127.0,127.0,129.0,126.0,127.0,17.0,-119.0,-79.0,127.0,127.0,127.0,121.0,83.0,-128.0
126.0,126.0,127.0,127.0,126.0,129.0,126.0,127.0,17.0,-119.0,-79.0,127.0,127.0,127.0,121.0,83.0,-128.0
126.0,126.0,127.0,127.0,126.0,129.0,126.0,127.0,17.0,-119.0,-79.0,127.0,127.0,127.0,121.0,83.0,-128.0
126.0,126.0,127.0,126.0,126.0,129.0,126.0,127.0,17.0,-119.0,-79.0,127.0,127.0,127.0,121.0,83.0,-128.0
126.0,126.0,127.0,126.0,126.0,129.0,125.0,127.0,17.0,-119.0,-79.0,127.0,127.0,127.0,121.0,83.0,-128.0
126.0,126.0,127.0,126.0,127.0,130.0,125.0,127.0,17.0,-119.0,-79.0,127.0,127.0,127.0,121.0,83.0,-128.0
126.0,127.0,128.0,126.0,126.0,130.0,125.0,127.0,17.0,-119.0,-79.0,127.0,127.0,127.0,121.0,83.0,-128.0
126.0,127.0,127.0,126.0,126.0,129.0,126.0,127.0,17.0,-119.0,-79.0,127.0,127.0,127.0,121.0,83.0,-128.0
126.0,127.0,127.0,126.0,126.0,129.0,125.0,127.0,17.0,-119.0,-79.0,127.0,127.0,127.0,121.0,83.0,-128.0
126.0,127.0,128.0,126.0,126.0,129.0,125.0,127.0,17.0,-119.0,-79.0,127.0,127.0,127.0,121.0,83.0,-128.0
126.0,127.0,128.0,126.0,126.0,129.0,125.0,127.0,17.0,-119.0,-79.0,127.0,127.0,127.0,121.0,83.0,-128.0
126.0,127.0,128.0,126.0,126.0,129.0,125.0,127.0,17.0,-119.0,-79.0,127.0,127.0,127.0,121.0,83.0,-128.0
126.0,127.0,128.0,126.0,126.0,129.0,125.0,127.0,17.0,-119.0,-79.0,127.0,127.0,127.0,121.0,83.0,-128.0
126.0,126.0,128.0,126.0,126.0,129.0,125.0,127.0,17.0,-119.0,-79.0,127.0,127.0,127.0,121.0,83.0,-128.0
126.0,127.0,128.0,126.0,126.0,130.0,125.0,127.0,17.0,-119.0,-79.0,127.0,127.0,127.0,121.0,83.0,-128.0
126.0,127.0,128.0,126.0,126.0,130.0,125.0,127.0,17.0,-119.0,-79.0,127.0,127.0,127.0,121.0,83.0,-128.0
126.0,127.0,128.0,126.0,126.0,128.0,126.0,127.0,17.0,-119.0,-79.0,127.0,127.0,127.0,121.0,83.0,-128.0
127.0,127.0,128.0,126.0,126.0,129.0,125.0,127.0,17.0,-119.0,-79.0,127.0,127.0,127.0,121.0,83.0,-128.0
127.0,127.0,128.0,126.0,126.0,129.0,125.0,127.0,17.0,-119.0,-79.0,127.0,127.0,127.0,121.0,83.0,-128.0
127.0,127.0,128.0,127.0,126.0,129.0,125.0,127.0,17.0,-119.0,-79.0,127.0,127.0,127.0,121.0,83.0,-128.0
127.0,127.0,128.0,127.0,126.0,129.0,125.0,127.0,17.0,-119.0,-79.0,127.0,127.0,127.0,121.0,83.0,-128.0
127.0,127.0,128.0,127.0,126.0,129.0,125.0,127.0,17.0,-119.0,-79.0,127.0,127.0,127.0,121.0,83.0,-128.0
127.0,127.0,128.0,127.0,126.0,129.0,125.0,127.0,17.0,-119.0,-79.0,127.0,127.0,127.0,121.0,83.0,-128.0
127.0,127.0,128.0,127.0,126.0,130.0,125.0,127.0,17.0,-119.0,-79.0,127.0,127.0,127.0,121.0,83.0,-128.0
127.0,127.0,128.0,127.0,126.0,130.0,125.0,127.0,17.0,-119.0,-79.0,127.0,127.0,127.0,121.0,83.0,-128.0
127.0,127.0,128.0,127.0,126.0,130.0,125.0,127.0,17.0,-119.0,-79.0,127.0,127.0,127.0,121.0,83.0,-128.0
126.0,126.0,128.0,127.0,126.0,128.0,126.0,127.0,17.0,-119.0,-79.0,127.0,127.0,127.0,121.0,83.0,-128.0
126.0,126.0,128.0,127.0,126.0,128.0,126.0,127.0,17.0,-119.0,-79.0,127.0,127.0,127.0,121.0,83.0,-128.0
127.0,126.0,128.0,127.0,126.0,128.0,126.0,127.0,17.0,-119.0,-79.0,127.0,127.0,127.0,121.0,83.0,-128.0
127.0,126.0,128.0,127.0,126.0,128.0,125.0,127.0,17.0,-119.0,-79.0,127.0,127.0,127.0,121.0,83.0,-128.0
127.0,126.0,128.0,127.0,126.0,128.0,125.0,127.0,17.0,-119.0,-79.0,127.0,127.0,127.0,121.0,83.0,-128.0
127.0,126.0,128.0,127.0,126.0,128.0,125.0,127.0,17.0,-119.0,-79.0,127.0,127.0,127.0,121.0,83.0,-128.0
127.0,126.0,128.0,127.0,126.0,128.0,125.0,127.0,17.0,-119.0,-79.0,127.0,127.0,127.0,121.0,83.0,-128.0
127.0,126.0,128.0,126.0,126.0,128.0,125.0,127.0,17.0,-119.0,-79.0,127.0,127.0,127.0,121.0,83.0,-128.0
127.0,126.0,128.0,127.0,126.0,128.0,125.0,127.0,17.0,-119.0,-79.0,127.0,127.0,127.0,121.0,83.0,-128.0
126.0,127.0,128.0,128.0,126.0,128.0,126.0,127.0,17.0,-119.0,-79.0,127.0,127.0,127.0,121.0,83.0,-128.0
127.0,126.0,127.0,126.0,126.0,128.0,125.0,127.0,17.0,-118.0,-79.0,127.0,127.0,127.0,121.0,83.0,-128.0
127.0,126.0,127.0,126.0,126.0,128.0,125.0,127.0,17.0,-118.0,-79.0,127.0,127.0,127.0,121.0,83.0,-128.0
127.0,126.0,128.0,125.0,126.0,128.0,125.0,127.0,17.0,-118.0,-79.0,127.0,127.0,127.0,121.0,83.0,-128.0
127.0,126.0,128.0,125.0,126.0,128.0,125.0,127.0,17.0,-118.0,-79.0,127.0,127.0,127.0,121.0,83.0,-128.0
127.0,126.0,128.0,125.0,126.0,128.0,125.0,127.0,17.0,-118.0,-79.0,127.0,127.0,127.0,121.0,83.0,-128.0
127.0,126.0,128.0,125.0,126.0,128.0,125.0,127.0,17.0,-118.0,-79.0,127.0,127.0,127.0,121.0,83.0,-128.0
127.0,126.0,128.0,125.0,126.0,128.0,125.0,127.0,17.0,-118.0,-79.0,127.0,127.0,127.0,121.0,83.0,-128.0
127.0,126.0,128.0,125.0,126.0,128.0,125.0,127.0,17.0,-118.0,-79.0,127.0,127.0,127.0,121.0,83.0,-128.0
127.0,126.0,127.0,125.0,126.0,129.0,125.0,127.0,17.0,-118.0,-79.0,127.0,127.0,127.0,121.0,83.0,-128.0
127.0,126.0,127.0,126.0,126.0,128.0,125.0,127.0,17.0,-118.0,-79.0,127.0,127.0,127.0,121.0,83.0,-128.0
126.0,126.0,128.0,127.0,126.0,129.0,126.0,127.0,17.0,-118.0,-79.0,127.0,127.0,127.0,121.0,83.0,-128.0
126.0,126.0,128.0,126.0,126.0,129.0,125.0,127.0,17.0,-118.0,-79.0,127.0,127.0,127.0,121.0,83.0,-128.0
126.0,126.0,128.0,126.0,126.0,130.0,125.0,127.0,17.0,-118.0,-79.0,127.0,127.0,127.0,121.0,83.0,-128.0
126.0,126.0,128.0,126.0,126.0,130.0,125.0,127.0,17.0,-118.0,-79.0,127.0,127.0,127.0,121.0,83.0,-128.0
126.0,126.0,128.0,126.0,126.0,130.0,125.0,127.0,17.0,-118.0,-79.0,127.0,127.0,127.0,121.0,83.0,-128.0
126.0,127.0,128.0,126.0,127.0,130.0,125.0,127.0,17.0,-118.0,-79.0,127.0,127.0,127.0,121.0,83.0,-128.0
126.0,126.0,128.0,126.0,127.0,130.0,125.0,127.0,17.0,-118.0,-79.0,127.0,127.0,127.0,121.0,83.0,-128.0
126.0,126.0,127.0,127.0,126.0,129.0,126.0,127.0,17.0,-118.0,-79.0,127.0,127.0,127.0,121.0,83.0,-128.0
126.0,126.0,128.0,127.0,126.0,129.0,126.0,127.0,17.0,-118.0,-79.0,127.0,127.0,127.0,121.0,83.0,-128.0
126.0,126.0,128.0,127.0,126.0,129.0,126.0,127.0,17.0,-118.0,-79.0,127.0,127.0,127.0,121.0,83.0,-128.0
126.0,126.0,128.0,128.0,127.0,129.0,126.0,127.0,17.0,-118.0,-79.0,127.0,127.0,127.0,121.0,83.0,-128.0
126.0,126.0,128.0,128.0,126.0,129.0,126.0,127.0,17.0,-118.0,-79.0,127.0,127.0,127.0,121.0,83.0,-128.0
126.0,126.0,128.0,128.0,127.0,129.0,126.0,127.0,17.0,-118.0,-79.0,127.0,127.0,127.0,121.0,83.0,-128.0
126.0,126.0,127.0,128.0,126.0,129.0,126.0,127.0,17.0,-118.0,-79.0,127.0,127.0,127.0,121.0,83.0,-128.0
126.0,126.0,127.0,128.0,127.0,130.0,126.0,127.0,17.0,-118.0,-79.0,127.0,127.0,127.0,121.0,83.0,-128.0
126.0,126.0,127.0,128.0,127.0,129.0,126.0,127.0,17.0,-118.0,-79.0,127.0,127.0,127.0,121.0,83.0,-128.0
126.0,126.0,127.0,127.0,127.0,129.0,126.0,127.0,17.0,-118.0,-79.0,127.0,127.0,127.0,121.0,83.0,-128.0
126.0,126.0,128.0,128.0,127.0,128.0,126.0,127.0,17.0,-118.0,-79.0,127.0,127.0,127.0,121.0,83.0,-128.0
126.0,126.0,128.0,128.0,127.0,129.0,126.0,127.0,17.0,-118.0,-79.0,127.0,127.0,127.0,121.0,83.0,-128.0
126.0,127.0,128.0,128.0,127.0,129.0,126.0,127.0,17.0,-118.0,-79.0,127.0,127.0,127.0,121.0,83.0,-128.0
127.0,127.0,124.0,126.0,126.0,129.0,125.0,128.0,17.0,-118.0,-79.0,127.0,127.0,127.0,121.0,83.0,-128.0
127.0,127.0,124.0,126.0,126.0,129.0,125.0,128.0,17.0,-118.0,-79.0,127.0,127.0,127.0,121.0,83.0,-128.0
127.0,126.0,123.0,126.0,126.0,129.0,125.0,128.0,17.0,-118.0,-79.0,127.0,127.0,127.0,121.0,83.0,-128.0
127.0,127.0,123.0,126.0,126.0,130.0,125.0,128.0,17.0,-118.0,-79.0,127.0,127.0,127.0,121.0,83.0,-128.0
127.0,127.0,123.0,126.0,126.0,130.0,125.0,128.0,17.0,-118.0,-79.0,127.0,127.0,127.0,121.0,83.0,-128.0
127.0,127.0,122.0,126.0,126.0,130.0,125.0,128.0,17.0,-118.0,-79.0,127.0,127.0,127.0,121.0,83.0,-128.0
127.0,127.0,124.0,126.0,126.0,128.0,126.0,128.0,17.0,-118.0,-79.0,127.0,127.0,127.0,121.0,83.0,-128.0
127.0,127.0,124.0,126.0,126.0,129.0,126.0,128.0,17.0,-118.0,-79.0,127.0,127.0,127.0,121.0,83.0,-128.0
127.0,127.0,124.0,126.0,127.0,129.0,125.0,128.0,17.0,-118.0,-79.0,127.0,127.0,127.0,121.0,83.0,-128.0
127.0,127.0,124.0,126.0,126.0,129.0,125.0,128.0,17.0,-118.0,-79.0,127.0,127.0,127.0,121.0,83.0,-128.0
126.0,127.0,117.0,124.0,126.0,129.0,125.0,128.0,17.0,-119.0,-79.0,127.0,127.0,127.0,121.0,83.0,-128.0
126.0,126.0,116.0,123.0,126.0,129.0,125.0,128.0,17.0,-119.0,-79.0,127.0,127.0,127.0,121.0,83.0,-128.0
126.0,127.0,116.0,123.0,126.0,129.0,125.0,128.0,17.0,-119.0,-79.0,127.0,127.0,127.0,121.0,83.0,-128.0
126.0,127.0,115.0,123.0,126.0,130.0,125.0,128.0,17.0,-119.0,-79.0,127.0,127.0,127.0,121.0,83.0,-128.0
126.0,127.0,115.0,123.0,126.0,129.0,125.0,128.0,17.0,-119.0,-79.0,127.0,127.0,127.0,121.0,83.0,-128.0
126.0,127.0,118.0,125.0,126.0,128.0,126.0,128.0,17.0,-119.0,-79.0,127.0,127.0,127.0,121.0,83.0,-128.0
126.0,127.0,118.0,125.0,126.0,129.0,126.0,128.0,17.0,-119.0,-79.0,127.0,127.0,127.0,121.0,83.0,-128.0
126.0,127.0,118.0,125.0,126.0,129.0,126.0,128.0,17.0,-119.0,-79.0,127.0,127.0,127.0,121.0,83.0,-128.0
126.0,127.0,118.0,125.0,126.0,129.0,126.0,128.0,17.0,-119.0,-79.0,127.0,127.0,127.0,121.0,83.0,-128.0
126.0,127.0,118.0,124.0,126.0,129.0,125.0,128.0,17.0,-119.0,-79.0,127.0,127.0,127.0,121.0,83.0,-128.0
126.0,127.0,129.0,130.0,127.0,129.0,126.0,129.0,17.0,-119.0,-79.0,127.0,127.0,127.0,121.0,83.0,-128.0
126.0,127.0,130.0,131.0,127.0,130.0,126.0,129.0,17.0,-119.0,-79.0,127.0,127.0,127.0,121.0,83.0,-128.0
126.0,127.0,130.0,131.0,127.0,130.0,126.0,129.0,17.0,-119.0,-79.0,127.0,127.0,127.0,121.0,83.0,-128.0
126.0,127.0,131.0,131.0,127.0,130.0,126.0,129.0,17.0,-119.0,-79.0,127.0,127.0,127.0,121.0,83.0,-128.0
126.0,127.0,123.0,119.0,126.0,128.0,126.0,129.0,17.0,-119.0,-79.0,127.0,127.0,127.0,121.0,83.0,-128.0
126.0,127.0,123.0,121.0,126.0,129.0,126.0,129.0,17.0,-119.0,-79.0,127.0,127.0,127.0,121.0,83.0,-128.0
126.0,127.0,124.0,123.0,126.0,129.0,126.0,128.0,17.0,-119.0,-79.0,127.0,127.0,127.0,121.0,83.0,-128.0
126.0,127.0,126.0,125.0,126.0,129.0,126.0,128.0,17.0,-119.0,-79.0,127.0,127.0,127.0,121.0,83.0,-128.0
126.0,127.0,127.0,127.0,127.0,129.0,126.0,129.0,17.0,-119.0,-79.0,127.0,127.0,127.0,121.0,83.0,-128.0
126.0,127.0,128.0,128.0,127.0,129.0,126.0,129.0,17.0,-119.0,-79.0,127.0,127.0,127.0,121.0,83.0,-128.0
126.0,127.0,141.0,129.0,127.0,130.0,127.0,129.0,17.0,-119.0,-79.0,127.0,127.0,127.0,121.0,83.0,-128.0
126.0,127.0,141.0,129.0,128.0,130.0,127.0,129.0,17.0,-119.0,-79.0,127.0,127.0,127.0,121.0,83.0,-128.0
126.0,127.0,140.0,129.0,128.0,130.0,127.0,129.0,17.0,-119.0,-79.0,127.0,127.0,127.0,121.0,83.0,-128.0
126.0,127.0,141.0,129.0,127.0,128.0,127.0,129.0,17.0,-119.0,-79.0,127.0,127.0,127.0,121.0,83.0,-128.0
126.0,127.0,141.0,129.0,128.0,129.0,127.0,129.0,17.0,-119.0,-79.0,127.0,127.0,127.0,121.0,83.0,-128.0
126.0,127.0,141.0,129.0,128.0,129.0,127.0,129.0,17.0,-119.0,-79.0,127.0,127.0,127.0,121.0,83.0,-128.0
126.0,127.0,141.0,129.0,127.0,129.0,127.0,129.0,17.0,-119.0,-79.0,127.0,127.0,127.0,121.0,83.0,-128.0
126.0,127.0,141.0,129.0,127.0,129.0,127.0,129.0,17.0,-119.0,-79.0,127.0,127.0,127.0,121.0,83.0,-128.0
126.0,127.0,141.0,129.0,127.0,129.0,127.0,129.0,17.0,-119.0,-79.0,127.0,127.0,127.0,121.0,83.0,-128.0
126.0,127.0,141.0,129.0,127.0,129.0,127.0,129.0,17.0,-119.0,-79.0,127.0,127.0,127.0,121.0,83.0,-128.0
125.0,126.0,122.0,118.0,125.0,128.0,127.0,131.0,17.0,-119.0,-78.0,127.0,127.0,127.0,121.0,83.0,-128.0
125.0,127.0,125.0,125.0,126.0,128.0,128.0,131.0,17.0,-119.0,-78.0,127.0,127.0,127.0,121.0,83.0,-128.0
125.0,127.0,125.0,125.0,126.0,128.0,128.0,131.0,17.0,-119.0,-78.0,127.0,127.0,127.0,121.0,83.0,-128.0
125.0,126.0,125.0,124.0,125.0,128.0,128.0,131.0,17.0,-119.0,-78.0,127.0,127.0,127.0,121.0,83.0,-128.0
125.0,126.0,124.0,123.0,125.0,128.0,128.0,131.0,17.0,-119.0,-78.0,127.0,127.0,127.0,121.0,83.0,-128.0
125.0,126.0,124.0,122.0,125.0,128.0,127.0,131.0,17.0,-119.0,-78.0,127.0,127.0,127.0,121.0,83.0,-128.0
125.0,126.0,123.0,121.0,125.0,128.0,127.0,131.0,17.0,-119.0,-78.0,127.0,127.0,127.0,121.0,83.0,-128.0
125.0,126.0,123.0,120.0,125.0,128.0,127.0,131.0,17.0,-119.0,-78.0,127.0,127.0,127.0,121.0,83.0,-128.0
125.0,126.0,123.0,120.0,125.0,128.0,127.0,131.0,17.0,-119.0,-78.0,127.0,127.0,127.0,121.0,83.0,-128.0
125.0,126.0,123.0,119.0,125.0,128.0,127.0,131.0,17.0,-119.0,-78.0,127.0,127.0,127.0,121.0,83.0,-128.0
124.0,128.0,123.0,126.0,126.0,128.0,129.0,133.0,17.0,-119.0,-79.0,127.0,127.0,127.0,121.0,83.0,-128.0
124.0,128.0,123.0,125.0,126.0,128.0,129.0,132.0,17.0,-119.0,-79.0,127.0,127.0,127.0,121.0,83.0,-128.0
124.0,128.0,123.0,125.0,126.0,128.0,128.0,132.0,17.0,-119.0,-79.0,127.0,127.0,127.0,121.0,83.0,-128.0
124.0,128.0,123.0,124.0,125.0,128.0,128.0,132.0,17.0,-119.0,-79.0,127.0,127.0,127.0,121.0,83.0,-128.0
125.0,128.0,124.0,124.0,125.0,128.0,128.0,132.0,17.0,-119.0,-79.0,127.0,127.0,127.0,121.0,83.0,-128.0
125.0,128.0,124.0,124.0,125.0,128.0,128.0,132.0,17.0,-119.0,-79.0,127.0,127.0,127.0,121.0,83.0,-128.0
125.0,128.0,125.0,125.0,125.0,129.0,127.0,132.0,17.0,-119.0,-79.0,127.0,127.0,127.0,121.0,83.0,-128.0
125.0,128.0,125.0,125.0,126.0,129.0,127.0,131.0,17.0,-119.0,-79.0,127.0,127.0,127.0,121.0,83.0,-128.0
125.0,128.0,126.0,126.0,126.0,129.0,127.0,132.0,17.0,-119.0,-79.0,127.0,127.0,127.0,121.0,83.0,-128.0
125.0,128.0,126.0,126.0,126.0,129.0,127.0,132.0,17.0,-119.0,-79.0,127.0,127.0,127.0,121.0,83.0,-128.0
125.0,129.0,127.0,126.0,127.0,129.0,127.0,130.0,17.0,-119.0,-79.0,127.0,127.0,127.0,121.0,83.0,-128.0
125.0,128.0,128.0,125.0,127.0,129.0,127.0,130.0,17.0,-119.0,-79.0,127.0,127.0,127.0,121.0,83.0,-128.0
125.0,128.0,128.0,124.0,127.0,129.0,127.0,130.0,17.0,-119.0,-79.0,127.0,127.0,127.0,121.0,83.0,-128.0
125.0,128.0,129.0,124.0,127.0,129.0,127.0,130.0,17.0,-119.0,-79.0,127.0,127.0,127.0,121.0,83.0,-128.0
125.0,128.0,130.0,124.0,127.0,129.0,127.0,130.0,17.0,-119.0,-79.0,127.0,127.0,127.0,121.0,83.0,-128.0
125.0,128.0,130.0,124.0,127.0,130.0,127.0,129.0,17.0,-119.0,-79.0,127.0,127.0,127.0,121.0,83.0,-128.0
125.0,128.0,130.0,125.0,127.0,130.0,126.0,129.0,17.0,-119.0,-79.0,127.0,127.0,127.0,121.0,83.0,-128.0
125.0,128.0,131.0,126.0,127.0,130.0,126.0,129.0,17.0,-119.0,-79.0,127.0,127.0,127.0,121.0,83.0,-128.0
125.0,128.0,131.0,127.0,127.0,130.0,126.0,129.0,17.0,-119.0,-79.0,127.0,127.0,127.0,121.0,83.0,-128.0
125.0,129.0,127.0,126.0,127.0,129.0,127.0,130.0,17.0,-119.0,-79.0,127.0,127.0,127.0,121.0,83.0,-128.0
126.0,129.0,129.0,127.0,127.0,129.0,126.0,130.0,17.0,-119.0,-79.0,127.0,127.0,127.0,121.0,83.0,-128.0
126.0,129.0,129.0,127.0,126.0,128.0,126.0,130.0,17.0,-119.0,-79.0,127.0,127.0,127.0,121.0,83.0,-128.0
126.0,129.0,129.0,127.0,126.0,128.0,126.0,130.0,17.0,-119.0,-79.0,127.0,127.0,127.0,121.0,83.0,-128.0
126.0,129.0,129.0,126.0,126.0,128.0,126.0,130.0,17.0,-119.0,-79.0,127.0,127.0,127.0,121.0,83.0,-128.0
126.0,129.0,129.0,126.0,126.0,129.0,126.0,130.0,17.0,-119.0,-79.0,127.0,127.0,127.0,121.0,83.0,-128.0
126.0,129.0,129.0,126.0,126.0,129.0,126.0,130.0,17.0,-119.0,-79.0,127.0,127.0,127.0,121.0,83.0,-128.0
126.0,129.0,129.0,126.0,126.0,129.0,126.0,130.0,17.0,-119.0,-79.0,127.0,127.0,127.0,121.0,83.0,-128.0
126.0,129.0,129.0,126.0,126.0,129.0,126.0,130.0,17.0,-119.0,-79.0,127.0,127.0,127.0,121.0,83.0,-128.0
125.0,129.0,129.0,127.0,127.0,129.0,127.0,130.0,17.0,-119.0,-79.0,127.0,127.0,127.0,121.0,83.0,-128.0
125.0,129.0,129.0,127.0,127.0,129.0,126.0,130.0,17.0,-119.0,-79.0,127.0,127.0,127.0,121.0,83.0,-128.0
126.0,129.0,123.0,127.0,126.0,127.0,127.0,131.0,17.0,-118.0,-79.0,127.0,127.0,127.0,121.0,83.0,-128.0
126.0,129.0,123.0,127.0,126.0,127.0,127.0,131.0,17.0,-118.0,-79.0,127.0,127.0,127.0,121.0,83.0,-128.0
126.0,129.0,123.0,127.0,126.0,127.0,127.0,131.0,17.0,-118.0,-79.0,127.0,127.0,127.0,121.0,83.0,-128.0
127.0,129.0,122.0,127.0,126.0,128.0,126.0,130.0,17.0,-118.0,-79.0,127.0,127.0,127.0,121.0,83.0,-128.0
127.0,130.0,122.0,127.0,126.0,128.0,126.0,131.0,17.0,-118.0,-79.0,127.0,127.0,127.0,121.0,83.0,-128.0
127.0,129.0,122.0,126.0,126.0,128.0,126.0,131.0,17.0,-118.0,-79.0,127.0,127.0,127.0,121.0,83.0,-128.0
127.0,129.0,122.0,126.0,126.0,128.0,126.0,131.0,17.0,-118.0,-79.0,127.0,127.0,127.0,121.0,83.0,-128.0
126.0,130.0,123.0,127.0,127.0,127.0,127.0,131.0,17.0,-118.0,-79.0,127.0,127.0,127.0,121.0,83.0,-128.0
126.0,130.0,123.0,127.0,127.0,127.0,127.0,131.0,17.0,-118.0,-79.0,127.0,127.0,127.0,121.0,83.0,-128.0
126.0,130.0,123.0,127.0,126.0,127.0,127.0,131.0,17.0,-118.0,-79.0,127.0,127.0,127.0,121.0,83.0,-128.0
127.0,129.0,119.0,124.0,126.0,128.0,125.0,128.0,17.0,-118.0,-79.0,127.0,127.0,127.0,121.0,83.0,-128.0
127.0,129.0,119.0,124.0,126.0,129.0,125.0,128.0,17.0,-118.0,-79.0,127.0,127.0,127.0,121.0,83.0,-128.0
127.0,129.0,119.0,124.0,126.0,129.0,124.0,128.0,17.0,-118.0,-79.0,127.0,127.0,127.0,121.0,83.0,-128.0
127.0,129.0,119.0,124.0,126.0,129.0,124.0,128.0,17.0,-118.0,-79.0,127.0,127.0,127.0,121.0,83.0,-128.0
127.0,129.0,119.0,124.0,126.0,129.0,124.0,128.0,17.0,-118.0,-79.0,127.0,127.0,127.0,121.0,83.0,-128.0
127.0,129.0,119.0,124.0,126.0,130.0,124.0,128.0,17.0,-118.0,-79.0,127.0,127.0,127.0,121.0,83.0,-128.0
127.0,129.0,119.0,125.0,126.0,128.0,125.0,128.0,17.0,-118.0,-79.0,127.0,127.0,127.0,121.0,83.0,-128.0
127.0,129.0,119.0,125.0,126.0,128.0,125.0,128.0,17.0,-118.0,-79.0,127.0,127.0,127.0,121.0,83.0,-128.0
127.0,129.0,119.0,125.0,126.0,128.0,125.0,128.0,17.0,-118.0,-79.0,127.0,127.0,127.0,121.0,83.0,-128.0
127.0,129.0,119.0,124.0,126.0,128.0,125.0,128.0,17.0,-118.0,-79.0,127.0,127.0,127.0,121.0,83.0,-128.0
127.0,128.0,126.0,126.0,126.0,128.0,123.0,127.0,17.0,-118.0,-79.0,127.0,127.0,127.0,121.0,83.0,-128.0
127.0,127.0,127.0,126.0,126.0,128.0,123.0,127.0,17.0,-118.0,-79.0,127.0,127.0,127.0,121.0,83.0,-128.0
127.0,127.0,127.0,126.0,126.0,128.0,123.0,127.0,17.0,-118.0,-79.0,127.0,127.0,127.0,121.0,83.0,-128.0
127.0,127.0,127.0,126.0,126.0,128.0,123.0,127.0,17.0,-118.0,-79.0,127.0,127.0,127.0,121.0,83.0,-128.0
127.0,127.0,127.0,126.0,126.0,128.0,123.0,127.0,17.0,-118.0,-79.0,127.0,127.0,127.0,121.0,83.0,-128.0
127.0,129.0,124.0,128.0,127.0,128.0,124.0,127.0,17.0,-118.0,-79.0,127.0,127.0,127.0,121.0,83.0,-128.0
127.0,129.0,125.0,127.0,126.0,128.0,124.0,127.0,17.0,-118.0,-79.0,127.0,127.0,127.0,121.0,83.0,-128.0
127.0,128.0,125.0,127.0,126.0,128.0,124.0,127.0,17.0,-118.0,-79.0,127.0,127.0,127.0,121.0,83.0,-128.0
127.0,128.0,126.0,127.0,126.0,128.0,124.0,127.0,17.0,-118.0,-79.0,127.0,127.0,127.0,121.0,83.0,-128.0
127.0,128.0,126.0,127.0,126.0,128.0,123.0,127.0,17.0,-118.0,-79.0,127.0,127.0,127.0,121.0,83.0,-128.0
128.0,126.0,127.0,126.0,126.0,129.0,123.0,128.0,17.0,-118.0,-78.0,127.0,127.0,127.0,121.0,83.0,-128.0
128.0,126.0,127.0,126.0,126.0,129.0,123.0,128.0,17.0,-118.0,-78.0,127.0,127.0,127.0,121.0,83.0,-128.0
128.0,126.0,127.0,126.0,126.0,129.0,123.0,128.0,17.0,-118.0,-78.0,127.0,127.0,127.0,121.0,83.0,-128.0
128.0,126.0,127.0,126.0,126.0,129.0,123.0,128.0,17.0,-118.0,-78.0,127.0,127.0,127.0,121.0,83.0,-128.0
128.0,127.0,127.0,126.0,126.0,128.0,123.0,128.0,17.0,-118.0,-78.0,127.0,127.0,127.0,121.0,83.0,-128.0
128.0,127.0,127.0,126.0,126.0,129.0,123.0,128.0,17.0,-118.0,-78.0,127.0,127.0,127.0,121.0,83.0,-128.0
128.0,127.0,127.0,126.0,126.0,129.0,123.0,128.0,17.0,-118.0,-78.0,127.0,127.0,127.0,121.0,83.0,-128.0
128.0,127.0,127.0,126.0,126.0,129.0,123.0,128.0,17.0,-118.0,-78.0,127.0,127.0,127.0,121.0,83.0,-128.0
128.0,127.0,127.0,126.0,126.0,129.0,123.0,128.0,17.0,-118.0,-78.0,127.0,127.0,127.0,121.0,83.0,-128.0
128.0,126.0,127.0,126.0,126.0,129.0,123.0,128.0,17.0,-118.0,-78.0,127.0,127.0,127.0,121.0,83.0,-128.0
127.0,126.0,123.0,125.0,126.0,129.0,123.0,127.0,17.0,-118.0,-78.0,127.0,127.0,127.0,121.0,83.0,-128.0
127.0,126.0,124.0,125.0,126.0,129.0,123.0,127.0,17.0,-118.0,-78.0,127.0,127.0,127.0,121.0,83.0,-128.0
126.0,126.0,124.0,125.0,126.0,129.0,123.0,127.0,17.0,-118.0,-78.0,127.0,127.0,127.0,121.0,83.0,-128.0
128.0,127.0,122.0,126.0,126.0,128.0,124.0,128.0,17.0,-118.0,-78.0,127.0,127.0,127.0,121.0,83.0,-128.0
127.0,127.0,122.0,126.0,126.0,128.0,124.0,128.0,17.0,-118.0,-78.0,127.0,127.0,127.0,121.0,83.0,-128.0
127.0,127.0,122.0,126.0,126.0,128.0,124.0,128.0,17.0,-118.0,-78.0,127.0,127.0,127.0,121.0,83.0,-128.0
127.0,127.0,123.0,126.0,126.0,128.0,124.0,128.0,17.0,-118.0,-78.0,127.0,127.0,127.0,121.0,83.0,-128.0
127.0,126.0,123.0,126.0,126.0,128.0,124.0,128.0,17.0,-118.0,-78.0,127.0,127.0,127.0,121.0,83.0,-128.0
127.0,126.0,123.0,125.0,126.0,128.0,124.0,128.0,17.0,-118.0,-78.0,127.0,127.0,127.0,121.0,83.0,-128.0
127.0,126.0,123.0,125.0,126.0,129.0,123.0,127.0,17.0,-118.0,-78.0,127.0,127.0,127.0,121.0,83.0,-128.0
126.0,126.0,134.0,125.0,126.0,130.0,123.0,127.0,17.0,-118.0,-78.0,127.0,127.0,127.0,121.0,83.0,-128.0
126.0,126.0,134.0,125.0,126.0,130.0,123.0,127.0,17.0,-118.0,-78.0,127.0,127.0,127.0,121.0,83.0,-128.0
126.0,126.0,134.0,126.0,126.0,128.0,124.0,127.0,17.0,-118.0,-78.0,127.0,127.0,127.0,121.0,83.0,-128.0
126.0,126.0,134.0,126.0,126.0,129.0,124.0,127.0,17.0,-118.0,-78.0,127.0,127.0,127.0,121.0,83.0,-128.0
126.0,126.0,134.0,126.0,126.0,129.0,124.0,127.0,17.0,-118.0,-78.0,127.0,127.0,127.0,121.0,83.0,-128.0
126.0,126.0,134.0,126.0,126.0,129.0,123.0,127.0,17.0,-118.0,-78.0,127.0,127.0,127.0,121.0,83.0,-128.0
126.0,126.0,134.0,126.0,126.0,129.0,123.0,127.0,17.0,-118.0,-78.0,127.0,127.0,127.0,121.0,83.0,-128.0
126.0,126.0,134.0,125.0,126.0,129.0,123.0,127.0,17.0,-118.0,-78.0,127.0,127.0,127.0,121.0,83.0,-128.0
126.0,126.0,134.0,125.0,126.0,129.0,123.0,127.0,17.0,-118.0,-78.0,127.0,127.0,127.0,121.0,83.0,-128.0
126.0,126.0,134.0,125.0,126.0,130.0,123.0,127.0,17.0,-118.0,-78.0,127.0,127.0,127.0,121.0,83.0,-128.0
128.0,126.0,127.0,126.0,127.0,130.0,124.0,128.0,17.0,-118.0,-78.0,127.0,127.0,127.0,121.0,83.0,-128.0
127.0,127.0,128.0,127.0,127.0,128.0,125.0,128.0,17.0,-118.0,-78.0,127.0,127.0,127.0,121.0,83.0,-128.0
127.0,127.0,128.0,127.0,127.0,129.0,125.0,128.0,17.0,-118.0,-78.0,127.0,127.0,127.0,121.0,83.0,-128.0
127.0,127.0,128.0,127.0,127.0,129.0,125.0,128.0,17.0,-118.0,-78.0,127.0,127.0,127.0,121.0,83.0,-128.0
128.0,127.0,128.0,127.0,127.0,129.0,125.0,128.0,17.0,-118.0,-78.0,127.0,127.0,127.0,121.0,83.0,-128.0
128.0,126.0,127.0,126.0,127.0,129.0,125.0,128.0,17.0,-118.0,-78.0,127.0,127.0,127.0,121.0,83.0,-128.0
128.0,126.0,127.0,126.0,127.0,129.0,125.0,128.0,17.0,-118.0,-78.0,127.0,127.0,127.0,121.0,83.0,-128.0
128.0,126.0,127.0,126.0,127.0,129.0,124.0,128.0,17.0,-118.0,-78.0,127.0,127.0,127.0,121.0,83.0,-128.0
128.0,126.0,127.0,126.0,127.0,130.0,124.0,128.0,17.0,-118.0,-78.0,127.0,127.0,127.0,121.0,83.0,-128.0
128.0,126.0,127.0,126.0,127.0,130.0,124.0,128.0,17.0,-118.0,-78.0,127.0,127.0,127.0,121.0,83.0,-128.0
128.0,126.0,124.0,125.0,126.0,128.0,125.0,128.0,17.0,-118.0,-78.0,127.0,127.0,127.0,121.0,83.0,-128.0
128.0,126.0,124.0,125.0,126.0,129.0,125.0,128.0,17.0,-118.0,-78.0,127.0,127.0,127.0,121.0,83.0,-128.0
128.0,126.0,124.0,125.0,126.0,129.0,124.0,128.0,17.0,-118.0,-78.0,127.0,127.0,127.0,121.0,83.0,-128.0
129.0,125.0,124.0,125.0,126.0,129.0,124.0,128.0,17.0,-118.0,-78.0,127.0,127.0,127.0,121.0,83.0,-128.0
129.0,125.0,124.0,125.0,126.0,129.0,124.0,128.0,17.0,-118.0,-78.0,127.0,127.0,127.0,121.0,83.0,-128.0
129.0,125.0,124.0,125.0,126.0,129.0,124.0,128.0,17.0,-118.0,-78.0,127.0,127.0,127.0,121.0,83.0,-128.0
129.0,125.0,125.0,125.0,126.0,129.0,124.0,128.0,17.0,-118.0,-78.0,127.0,127.0,127.0,121.0,83.0,-128.0
129.0,125.0,124.0,125.0,126.0,130.0,124.0,127.0,17.0,-118.0,-78.0,127.0,127.0,127.0,121.0,83.0,-128.0
129.0,125.0,124.0,125.0,126.0,130.0,124.0,128.0,17.0,-118.0,-78.0,127.0,127.0,127.0,121.0,83.0,-128.0
129.0,125.0,124.0,125.0,126.0,130.0,124.0,128.0,17.0,-118.0,-78.0,127.0,127.0,127.0,121.0,83.0,-128.0
129.0,125.0,123.0,127.0,127.0,129.0,124.0,127.0,17.0,-118.0,-78.0,127.0,127.0,127.0,121.0,83.0,-128.0
129.0,125.0,123.0,126.0,127.0,129.0,124.0,127.0,17.0,-118.0,-78.0,127.0,127.0,127.0,121.0,83.0,-128.0
129.0,125.0,123.0,126.0,127.0,129.0,124.0,127.0,17.0,-118.0,-78.0,127.0,127.0,127.0,121.0,83.0,-128.0
129.0,125.0,123.0,126.0,127.0,129.0,124.0,127.0,17.0,-118.0,-78.0,127.0,127.0,127.0,121.0,83.0,-128.0
129.0,124.0,123.0,126.0,126.0,129.0,124.0,127.0,17.0,-118.0,-78.0,127.0,127.0,127.0,121.0,83.0,-128.0
129.0,124.0,124.0,126.0,126.0,129.0,124.0,127.0,17.0,-118.0,-78.0,127.0,127.0,127.0,121.0,83.0,-128.0
129.0,124.0,123.0,126.0,126.0,130.0,123.0,127.0,17.0,-118.0,-78.0,127.0,127.0,127.0,121.0,83.0,-128.0
129.0,125.0,124.0,126.0,126.0,130.0,123.0,127.0,17.0,-118.0,-78.0,127.0,127.0,127.0,121.0,83.0,-128.0
129.0,124.0,124.0,126.0,126.0,130.0,123.0,127.0,17.0,-118.0,-78.0,127.0,127.0,127.0,121.0,83.0,-128.0
129.0,125.0,123.0,127.0,127.0,128.0,125.0,127.0,17.0,-118.0,-78.0,127.0,127.0,127.0,121.0,83.0,-128.0
129.0,125.0,124.0,125.0,126.0,129.0,124.0,126.0,17.0,-118.0,-78.0,127.0,127.0,127.0,121.0,83.0,-128.0
129.0,125.0,124.0,125.0,126.0,129.0,124.0,126.0,17.0,-118.0,-78.0,127.0,127.0,127.0,121.0,83.0,-128.0
130.0,125.0,124.0,125.0,126.0,129.0,123.0,126.0,17.0,-118.0,-78.0,127.0,127.0,127.0,121.0,83.0,-128.0
130.0,125.0,124.0,125.0,126.0,129.0,123.0,126.0,17.0,-118.0,-78.0,127.0,127.0,127.0,121.0,83.0,-128.0
130.0,124.0,124.0,125.0,126.0,129.0,123.0,126.0,17.0,-118.0,-78.0,127.0,127.0,127.0,121.0,83.0,-128.0
130.0,124.0,124.0,125.0,126.0,130.0,123.0,126.0,17.0,-118.0,-78.0,127.0,127.0,127.0,121.0,83.0,-128.0
130.0,125.0,124.0,125.0,126.0,130.0,123.0,126.0,17.0,-118.0,-78.0,127.0,127.0,127.0,121.0,83.0,-128.0
130.0,125.0,124.0,125.0,126.0,130.0,123.0,126.0,17.0,-118.0,-78.0,127.0,127.0,127.0,121.0,83.0,-128.0
129.0,125.0,124.0,126.0,126.0,128.0,124.0,126.0,17.0,-118.0,-78.0,127.0,127.0,127.0,121.0,83.0,-128.0
129.0,125.0,124.0,125.0,126.0,129.0,124.0,126.0,17.0,-118.0,-78.0,127.0,127.0,127.0,121.0,83.0,-128.0
129.0,124.0,126.0,125.0,126.0,129.0,125.0,125.0,17.0,-118.0,-78.0,127.0,127.0,127.0,121.0,83.0,-128.0
129.0,124.0,126.0,125.0,126.0,129.0,124.0,125.0,17.0,-118.0,-78.0,127.0,127.0,127.0,121.0,83.0,-128.0
129.0,124.0,126.0,125.0,126.0,129.0,124.0,125.0,17.0,-118.0,-78.0,127.0,127.0,127.0,121.0,83.0,-128.0
129.0,124.0,126.0,125.0,126.0,129.0,124.0,125.0,17.0,-118.0,-78.0,127.0,127.0,127.0,121.0,83.0,-128.0
129.0,124.0,126.0,125.0,126.0,129.0,124.0,125.0,17.0,-118.0,-78.0,127.0,127.0,127.0,121.0,83.0,-128.0
129.0,124.0,126.0,125.0,126.0,129.0,124.0,125.0,17.0,-118.0,-78.0,127.0,127.0,127.0,121.0,83.0,-128.0
129.0,124.0,126.0,124.0,126.0,129.0,124.0,125.0,17.0,-118.0,-78.0,127.0,127.0,127.0,121.0,83.0,-128.0
129.0,124.0,125.0,126.0,126.0,128.0,125.0,126.0,17.0,-118.0,-78.0,127.0,127.0,127.0,121.0,83.0,-128.0
129.0,124.0,125.0,126.0,126.0,128.0,125.0,126.0,17.0,-118.0,-78.0,127.0,127.0,127.0,121.0,83.0,-128.0
129.0,124.0,125.0,126.0,126.0,128.0,125.0,126.0,17.0,-118.0,-78.0,127.0,127.0,127.0,121.0,83.0,-128.0
128.0,126.0,129.0,128.0,127.0,129.0,125.0,126.0,17.0,-118.0,-78.0,127.0,127.0,127.0,121.0,83.0,-128.0
128.0,126.0,129.0,127.0,127.0,129.0,125.0,126.0,17.0,-118.0,-78.0,127.0,127.0,127.0,121.0,83.0,-128.0
128.0,126.0,129.0,127.0,127.0,129.0,125.0,126.0,17.0,-118.0,-78.0,127.0,127.0,127.0,121.0,83.0,-128.0
128.0,125.0,129.0,127.0,127.0,129.0,125.0,126.0,17.0,-118.0,-78.0,127.0,127.0,127.0,121.0,83.0,-128.0
128.0,125.0,129.0,127.0,127.0,129.0,125.0,126.0,17.0,-118.0,-78.0,127.0,127.0,127.0,121.0,83.0,-128.0
129.0,125.0,129.0,127.0,127.0,129.0,125.0,126.0,17.0,-118.0,-78.0,127.0,127.0,127.0,121.0,83.0,-128.0
128.0,126.0,128.0,128.0,127.0,129.0,126.0,126.0,17.0,-118.0,-78.0,127.0,127.0,127.0,121.0,83.0,-128.0
128.0,126.0,128.0,128.0,127.0,129.0,125.0,126.0,17.0,-118.0,-78.0,127.0,127.0,127.0,121.0,83.0,-128.0
128.0,126.0,128.0,128.0,127.0,129.0,125.0,126.0,17.0,-118.0,-78.0,127.0,127.0,127.0,121.0,83.0,-128.0
128.0,126.0,128.0,128.0,127.0,130.0,125.0,126.0,17.0,-118.0,-78.0,127.0,127.0,127.0,121.0,83.0,-128.0
128.0,125.0,129.0,126.0,127.0,128.0,125.0,126.0,18.0,-118.0,-78.0,127.0,127.0,127.0,121.0,83.0,-128.0
128.0,125.0,129.0,126.0,127.0,129.0,125.0,126.0,18.0,-118.0,-78.0,127.0,127.0,127.0,121.0,83.0,-128.0
128.0,125.0,129.0,126.0,127.0,129.0,125.0,126.0,18.0,-118.0,-78.0,127.0,127.0,127.0,121.0,83.0,-128.0
128.0,125.0,129.0,126.0,126.0,128.0,125.0,126.0,18.0,-118.0,-78.0,127.0,127.0,127.0,121.0,83.0,-128.0
128.0,125.0,129.0,126.0,126.0,128.0,125.0,126.0,18.0,-118.0,-78.0,127.0,127.0,127.0,121.0,83.0,-128.0
128.0,125.0,129.0,127.0,127.0,127.0,127.0,127.0,18.0,-118.0,-78.0,127.0,127.0,127.0,121.0,83.0,-128.0
128.0,125.0,129.0,127.0,127.0,127.0,127.0,127.0,18.0,-118.0,-78.0,127.0,127.0,127.0,121.0,83.0,-128.0
128.0,125.0,129.0,126.0,127.0,127.0,126.0,127.0,18.0,-118.0,-78.0,127.0,127.0,127.0,121.0,83.0,-128.0
128.0,125.0,129.0,126.0,127.0,127.0,126.0,127.0,18.0,-118.0,-78.0,127.0,127.0,127.0,121.0,83.0,-128.0
128.0,125.0,129.0,126.0,127.0,128.0,126.0,126.0,18.0,-118.0,-78.0,127.0,127.0,127.0,121.0,83.0,-128.0
127.0,126.0,129.0,126.0,127.0,129.0,125.0,126.0,18.0,-118.0,-78.0,127.0,127.0,127.0,121.0,83.0,-128.0
127.0,126.0,129.0,126.0,127.0,129.0,125.0,126.0,18.0,-118.0,-78.0,127.0,127.0,127.0,121.0,83.0,-128.0
127.0,126.0,130.0,126.0,127.0,129.0,125.0,126.0,18.0,-118.0,-78.0,127.0,127.0,127.0,121.0,83.0,-128.0
127.0,125.0,130.0,126.0,127.0,129.0,125.0,126.0,18.0,-118.0,-78.0,127.0,127.0,127.0,121.0,83.0,-128.0
127.0,126.0,128.0,127.0,127.0,128.0,126.0,127.0,18.0,-118.0,-78.0,127.0,127.0,127.0,121.0,83.0,-128.0
127.0,126.0,129.0,127.0,127.0,128.0,126.0,127.0,18.0,-118.0,-78.0,127.0,127.0,127.0,121.0,83.0,-128.0
127.0,126.0,129.0,127.0,127.0,128.0,126.0,126.0,18.0,-118.0,-78.0,127.0,127.0,127.0,121.0,83.0,-128.0
127.0,126.0,129.0,126.0,127.0,128.0,126.0,126.0,18.0,-118.0,-78.0,127.0,127.0,127.0,121.0,83.0,-128.0
127.0,126.0,129.0,126.0,127.0,128.0,126.0,126.0,18.0,-118.0,-78.0,127.0,127.0,127.0,121.0,83.0,-128.0
127.0,126.0,129.0,126.0,127.0,129.0,125.0,126.0,18.0,-118.0,-78.0,127.0,127.0,127.0,121.0,83.0,-128.0
127.0,125.0,130.0,126.0,126.0,129.0,125.0,126.0,18.0,-118.0,-78.0,127.0,127.0,127.0,121.0,83.0,-128.0
127.0,125.0,130.0,126.0,127.0,130.0,125.0,126.0,18.0,-118.0,-78.0,127.0,127.0,127.0,121.0,83.0,-128.0
127.0,125.0,130.0,126.0,127.0,130.0,125.0,126.0,18.0,-118.0,-78.0,127.0,127.0,127.0,121.0,83.0,-128.0
126.0,126.0,129.0,127.0,127.0,128.0,126.0,126.0,18.0,-118.0,-78.0,127.0,127.0,127.0,121.0,83.0,-128.0
126.0,126.0,129.0,127.0,127.0,128.0,126.0,126.0,18.0,-118.0,-78.0,127.0,127.0,127.0,121.0,83.0,-128.0
126.0,126.0,129.0,127.0,126.0,128.0,126.0,126.0,18.0,-118.0,-78.0,127.0,127.0,127.0,121.0,83.0,-128.0
126.0,125.0,129.0,127.0,126.0,128.0,125.0,126.0,18.0,-118.0,-78.0,127.0,127.0,127.0,121.0,83.0,-128.0
126.0,125.0,129.0,127.0,126.0,128.0,125.0,126.0,18.0,-118.0,-78.0,127.0,127.0,127.0,121.0,83.0,-128.0
126.0,125.0,129.0,126.0,126.0,129.0,125.0,126.0,18.0,-118.0,-78.0,127.0,127.0,127.0,121.0,83.0,-128.0
127.0,125.0,130.0,126.0,126.0,129.0,125.0,126.0,18.0,-118.0,-78.0,127.0,127.0,127.0,121.0,83.0,-128.0
127.0,125.0,130.0,126.0,126.0,128.0,125.0,126.0,18.0,-118.0,-78.0,127.0,127.0,127.0,121.0,83.0,-128.0
127.0,125.0,130.0,126.0,126.0,128.0,125.0,126.0,18.0,-118.0,-78.0,127.0,127.0,127.0,121.0,83.0,-128.0
126.0,125.0,129.0,126.0,127.0,127.0,126.0,127.0,18.0,-118.0,-78.0,127.0,127.0,127.0,121.0,83.0,-128.0
126.0,125.0,129.0,126.0,127.0,127.0,126.0,127.0,18.0,-118.0,-78.0,127.0,127.0,127.0,121.0,83.0,-128.0
126.0,125.0,129.0,126.0,127.0,128.0,126.0,126.0,18.0,-118.0,-78.0,127.0,127.0,127.0,121.0,83.0,-128.0
126.0,125.0,129.0,126.0,127.0,128.0,126.0,126.0,18.0,-118.0,-78.0,127.0,127.0,127.0,121.0,83.0,-128.0
126.0,125.0,129.0,126.0,127.0,128.0,126.0,126.0,18.0,-118.0,-78.0,127.0,127.0,127.0,121.0,83.0,-128.0
126.0,125.0,129.0,126.0,126.0,128.0,125.0,126.0,18.0,-118.0,-78.0,127.0,127.0,127.0,121.0,83.0,-128.0
127.0,125.0,129.0,126.0,126.0,128.0,125.0,126.0,18.0,-118.0,-78.0,127.0,127.0,127.0,121.0,83.0,-128.0
127.0,125.0,129.0,126.0,126.0,129.0,125.0,126.0,18.0,-118.0,-78.0,127.0,127.0,127.0,121.0,83.0,-128.0
127.0,125.0,129.0,126.0,126.0,129.0,125.0,126.0,18.0,-118.0,-78.0,127.0,127.0,127.0,121.0,83.0,-128.0
126.0,126.0,128.0,126.0,126.0,128.0,126.0,127.0,18.0,-118.0,-78.0,127.0,127.0,127.0,121.0,83.0,-128.0
126.0,126.0,128.0,126.0,126.0,128.0,126.0,127.0,18.0,-118.0,-78.0,127.0,127.0,127.0,121.0,83.0,-128.0
126.0,126.0,128.0,125.0,126.0,128.0,126.0,127.0,18.0,-118.0,-78.0,127.0,127.0,127.0,121.0,83.0,-128.0
126.0,126.0,128.0,126.0,126.0,129.0,126.0,127.0,18.0,-118.0,-78.0,127.0,127.0,127.0,121.0,83.0,-128.0
126.0,126.0,128.0,126.0,126.0,129.0,125.0,126.0,18.0,-118.0,-78.0,127.0,127.0,127.0,121.0,83.0,-128.0
126.0,126.0,128.0,126.0,126.0,129.0,125.0,126.0,18.0,-118.0,-78.0,127.0,127.0,127.0,121.0,83.0,-128.0
126.0,125.0,128.0,126.0,126.0,129.0,125.0,126.0,18.0,-118.0,-78.0,127.0,127.0,127.0,121.0,83.0,-128.0
126.0,125.0,128.0,126.0,126.0,129.0,125.0,126.0,18.0,-118.0,-78.0,127.0,127.0,127.0,121.0,83.0,-128.0
127.0,125.0,129.0,126.0,126.0,129.0,125.0,126.0,18.0,-118.0,-78.0,127.0,127.0,127.0,121.0,83.0,-128.0
126.0,126.0,128.0,127.0,127.0,128.0,127.0,127.0,18.0,-118.0,-78.0,127.0,127.0,127.0,121.0,83.0,-128.0
126.0,126.0,128.0,127.0,127.0,128.0,127.0,127.0,18.0,-118.0,-78.0,127.0,127.0,127.0,121.0,83.0,-128.0
126.0,126.0,128.0,127.0,127.0,128.0,127.0,127.0,18.0,-118.0,-78.0,127.0,127.0,127.0,121.0,83.0,-128.0
126.0,126.0,128.0,127.0,127.0,129.0,126.0,127.0,18.0,-118.0,-78.0,127.0,127.0,127.0,121.0,83.0,-128.0
126.0,126.0,128.0,127.0,127.0,129.0,126.0,127.0,18.0,-118.0,-78.0,127.0,127.0,127.0,121.0,83.0,-128.0
126.0,126.0,128.0,127.0,127.0,129.0,126.0,127.0,18.0,-118.0,-78.0,127.0,127.0,127.0,121.0,83.0,-128.0
126.0,126.0,128.0,127.0,127.0,129.0,126.0,127.0,18.0,-118.0,-78.0,127.0,127.0,127.0,121.0,83.0,-128.0
126.0,126.0,128.0,126.0,127.0,129.0,126.0,126.0,18.0,-118.0,-78.0,127.0,127.0,127.0,121.0,83.0,-128.0
126.0,126.0,128.0,126.0,127.0,129.0,126.0,127.0,18.0,-118.0,-78.0,127.0,127.0,127.0,121.0,83.0,-128.0
127.0,125.0,128.0,126.0,127.0,129.0,126.0,126.0,18.0,-118.0,-78.0,127.0,127.0,127.0,121.0,83.0,-128.0
126.0,126.0,129.0,127.0,127.0,128.0,127.0,127.0,18.0,-118.0,-78.0,127.0,127.0,127.0,121.0,83.0,-128.0
126.0,126.0,129.0,127.0,127.0,128.0,127.0,127.0,18.0,-118.0,-78.0,127.0,127.0,127.0,121.0,83.0,-128.0
126.0,126.0,129.0,127.0,127.0,129.0,126.0,127.0,18.0,-118.0,-78.0,127.0,127.0,127.0,121.0,83.0,-128.0
126.0,126.0,129.0,127.0,127.0,129.0,126.0,127.0,18.0,-118.0,-78.0,127.0,127.0,127.0,121.0,83.0,-128.0
126.0,126.0,129.0,127.0,127.0,129.0,126.0,127.0,18.0,-118.0,-78.0,127.0,127.0,127.0,121.0,83.0,-128.0
126.0,126.0,129.0,127.0,127.0,130.0,126.0,127.0,18.0,-118.0,-78.0,127.0,127.0,127.0,121.0,83.0,-128.0
126.0,126.0,129.0,127.0,127.0,130.0,126.0,127.0,18.0,-118.0,-78.0,127.0,127.0,127.0,121.0,83.0,-128.0
126.0,126.0,129.0,127.0,127.0,130.0,126.0,127.0,18.0,-118.0,-78.0,127.0,127.0,127.0,121.0,83.0,-128.0
126.0,126.0,130.0,127.0,127.0,130.0,126.0,127.0,18.0,-118.0,-78.0,127.0,127.0,127.0,121.0,83.0,-128.0
126.0,127.0,129.0,127.0,127.0,128.0,127.0,127.0,18.0,-118.0,-78.0,127.0,127.0,127.0,121.0,83.0,-128.0
126.0,126.0,129.0,126.0,127.0,128.0,127.0,127.0,18.0,-118.0,-78.0,127.0,127.0,127.0,121.0,83.0,-128.0
126.0,126.0,129.0,126.0,127.0,128.0,126.0,127.0,18.0,-118.0,-78.0,127.0,127.0,127.0,121.0,83.0,-128.0
126.0,125.0,129.0,126.0,127.0,128.0,126.0,127.0,18.0,-118.0,-78.0,127.0,127.0,127.0,121.0,83.0,-128.0
126.0,125.0,129.0,126.0,127.0,129.0,126.0,127.0,18.0,-118.0,-78.0,127.0,127.0,127.0,121.0,83.0,-128.0
126.0,125.0,129.0,126.0,127.0,129.0,126.0,127.0,18.0,-118.0,-78.0,127.0,127.0,127.0,121.0,83.0,-128.0
126.0,125.0,129.0,126.0,127.0,130.0,126.0,127.0,18.0,-118.0,-78.0,127.0,127.0,127.0,121.0,83.0,-128.0
126.0,125.0,129.0,126.0,127.0,130.0,126.0,127.0,18.0,-118.0,-78.0,127.0,127.0,127.0,121.0,83.0,-128.0
126.0,125.0,129.0,126.0,127.0,129.0,126.0,127.0,18.0,-118.0,-78.0,127.0,127.0,127.0,121.0,83.0,-128.0
126.0,126.0,128.0,127.0,127.0,128.0,127.0,127.0,18.0,-118.0,-78.0,127.0,127.0,127.0,121.0,83.0,-128.0
126.0,126.0,128.0,127.0,127.0,128.0,127.0,127.0,18.0,-118.0,-78.0,127.0,127.0,127.0,121.0,83.0,-128.0
126.0,126.0,129.0,126.0,126.0,128.0,127.0,127.0,18.0,-118.0,-78.0,127.0,127.0,127.0,121.0,83.0,-128.0
126.0,126.0,129.0,126.0,126.0,128.0,126.0,127.0,18.0,-118.0,-78.0,127.0,127.0,127.0,121.0,83.0,-128.0
126.0,125.0,129.0,126.0,126.0,128.0,126.0,127.0,18.0,-118.0,-78.0,127.0,127.0,127.0,121.0,83.0,-128.0
126.0,125.0,129.0,126.0,126.0,128.0,126.0,127.0,18.0,-118.0,-78.0,127.0,127.0,127.0,121.0,83.0,-128.0
126.0,125.0,129.0,125.0,126.0,129.0,126.0,126.0,18.0,-118.0,-78.0,127.0,127.0,127.0,121.0,83.0,-128.0
126.0,125.0,129.0,125.0,126.0,129.0,126.0,126.0,18.0,-118.0,-78.0,127.0,127.0,127.0,121.0,83.0,-128.0
126.0,125.0,129.0,125.0,126.0,129.0,126.0,126.0,18.0,-118.0,-78.0,127.0,127.0,127.0,121.0,83.0,-128.0
126.0,126.0,129.0,127.0,127.0,128.0,127.0,127.0,18.0,-118.0,-78.0,127.0,127.0,127.0,121.0,83.0,-128.0
126.0,126.0,129.0,127.0,127.0,128.0,127.0,127.0,18.0,-118.0,-78.0,127.0,127.0,127.0,121.0,83.0,-128.0
126.0,126.0,129.0,127.0,127.0,128.0,127.0,127.0,18.0,-118.0,-78.0,127.0,127.0,127.0,121.0,83.0,-128.0
126.0,127.0,129.0,128.0,126.0,129.0,126.0,127.0,18.0,-118.0,-78.0,127.0,127.0,127.0,121.0,83.0,-128.0
126.0,126.0,129.0,128.0,126.0,129.0,126.0,127.0,18.0,-118.0,-78.0,127.0,127.0,127.0,121.0,83.0,-128.0
126.0,126.0,129.0,127.0,126.0,129.0,126.0,127.0,18.0,-118.0,-78.0,127.0,127.0,127.0,121.0,83.0,-128.0
126.0,126.0,129.0,127.0,126.0,129.0,126.0,127.0,18.0,-118.0,-78.0,127.0,127.0,127.0,121.0,83.0,-128.0
126.0,126.0,129.0,127.0,126.0,129.0,126.0,127.0,18.0,-118.0,-78.0,127.0,127.0,127.0,121.0,83.0,-128.0
126.0,126.0,129.0,127.0,126.0,129.0,126.0,127.0,18.0,-118.0,-78.0,127.0,127.0,127.0,121.0,83.0,-128.0
125.0,127.0,129.0,129.0,126.0,128.0,127.0,127.0,18.0,-118.0,-78.0,127.0,127.0,127.0,121.0,83.0,-128.0
125.0,127.0,129.0,129.0,126.0,128.0,127.0,127.0,18.0,-118.0,-78.0,127.0,127.0,127.0,121.0,83.0,-128.0
126.0,127.0,129.0,128.0,126.0,128.0,127.0,127.0,18.0,-118.0,-78.0,127.0,127.0,127.0,121.0,83.0,-128.0
126.0,127.0,129.0,128.0,126.0,128.0,126.0,127.0,18.0,-118.0,-78.0,127.0,127.0,127.0,121.0,83.0,-128.0
126.0,127.0,128.0,127.0,127.0,130.0,126.0,128.0,18.0,-118.0,-77.0,127.0,127.0,127.0,121.0,83.0,-128.0
126.0,127.0,129.0,127.0,127.0,130.0,126.0,128.0,18.0,-118.0,-77.0,127.0,127.0,127.0,121.0,83.0,-128.0
126.0,126.0,129.0,127.0,127.0,130.0,126.0,127.0,18.0,-118.0,-77.0,127.0,127.0,127.0,121.0,83.0,-128.0
126.0,126.0,129.0,127.0,127.0,130.0,126.0,127.0,18.0,-118.0,-77.0,127.0,127.0,127.0,121.0,83.0,-128.0
126.0,126.0,129.0,127.0,127.0,130.0,125.0,127.0,18.0,-118.0,-77.0,127.0,127.0,127.0,121.0,83.0,-128.0
126.0,127.0,128.0,127.0,127.0,128.0,127.0,128.0,18.0,-118.0,-77.0,127.0,127.0,127.0,121.0,83.0,-128.0
126.0,127.0,128.0,127.0,127.0,128.0,127.0,128.0,18.0,-118.0,-77.0,127.0,127.0,127.0,121.0,83.0,-128.0
126.0,127.0,128.0,127.0,127.0,129.0,127.0,128.0,18.0,-118.0,-77.0,127.0,127.0,127.0,121.0,83.0,-128.0
126.0,127.0,128.0,127.0,127.0,129.0,126.0,128.0,18.0,-118.0,-77.0,127.0,127.0,127.0,121.0,83.0,-128.0
126.0,127.0,128.0,127.0,127.0,130.0,126.0,128.0,18.0,-118.0,-77.0,127.0,127.0,127.0,121.0,83.0,-128.0
126.0,126.0,128.0,126.0,127.0,130.0,126.0,127.0,18.0,-118.0,-77.0,127.0,127.0,127.0,121.0,83.0,-128.0
126.0,126.0,128.0,126.0,126.0,130.0,126.0,127.0,18.0,-118.0,-77.0,127.0,127.0,127.0,121.0,83.0,-128.0
126.0,126.0,128.0,126.0,126.0,130.0,126.0,127.0,18.0,-118.0,-77.0,127.0,127.0,127.0,121.0,83.0,-128.0
126.0,126.0,128.0,126.0,126.0,130.0,126.0,127.0,18.0,-118.0,-77.0,127.0,127.0,127.0,121.0,83.0,-128.0
126.0,127.0,127.0,127.0,127.0,128.0,127.0,128.0,18.0,-118.0,-77.0,127.0,127.0,127.0,121.0,83.0,-128.0
126.0,126.0,128.0,127.0,127.0,128.0,127.0,128.0,18.0,-118.0,-77.0,127.0,127.0,127.0,121.0,83.0,-128.0
126.0,126.0,128.0,127.0,127.0,128.0,127.0,128.0,18.0,-118.0,-77.0,127.0,127.0,127.0,121.0,83.0,-128.0
126.0,126.0,128.0,127.0,127.0,129.0,126.0,128.0,18.0,-118.0,-77.0,127.0,127.0,127.0,121.0,83.0,-128.0
126.0,126.0,128.0,127.0,127.0,129.0,126.0,128.0,18.0,-118.0,-77.0,127.0,127.0,127.0,121.0,83.0,-128.0
126.0,126.0,128.0,127.0,127.0,129.0,126.0,127.0,18.0,-118.0,-77.0,127.0,127.0,127.0,121.0,83.0,-128.0
126.0,126.0,127.0,126.0,127.0,129.0,126.0,127.0,18.0,-118.0,-77.0,127.0,127.0,127.0,121.0,83.0,-128.0
126.0,126.0,128.0,126.0,126.0,129.0,126.0,127.0,18.0,-118.0,-77.0,127.0,127.0,127.0,121.0,83.0,-128.0
126.0,126.0,128.0,126.0,126.0,129.0,126.0,127.0,18.0,-118.0,-77.0,127.0,127.0,127.0,121.0,83.0,-128.0
126.0,127.0,127.0,128.0,127.0,128.0,127.0,128.0,18.0,-118.0,-77.0,127.0,127.0,127.0,121.0,83.0,-128.0
126.0,127.0,127.0,128.0,127.0,128.0,127.0,128.0,18.0,-118.0,-77.0,127.0,127.0,127.0,121.0,83.0,-128.0
126.0,127.0,127.0,128.0,127.0,128.0,127.0,128.0,18.0,-118.0,-77.0,127.0,127.0,127.0,121.0,83.0,-128.0
126.0,126.0,128.0,127.0,127.0,128.0,127.0,128.0,18.0,-118.0,-77.0,127.0,127.0,127.0,121.0,83.0,-128.0
126.0,127.0,127.0,127.0,127.0,129.0,126.0,128.0,18.0,-118.0,-77.0,127.0,127.0,127.0,121.0,83.0,-128.0
126.0,127.0,127.0,127.0,127.0,129.0,126.0,128.0,18.0,-118.0,-77.0,127.0,127.0,127.0,121.0,83.0,-128.0
126.0,126.0,128.0,127.0,127.0,129.0,126.0,127.0,18.0,-118.0,-77.0,127.0,127.0,127.0,121.0,83.0,-128.0
126.0,126.0,127.0,126.0,126.0,130.0,125.0,127.0,18.0,-118.0,-77.0,127.0,127.0,127.0,121.0,83.0,-128.0
127.0,126.0,127.0,126.0,126.0,130.0,125.0,127.0,18.0,-118.0,-77.0,127.0,127.0,127.0,121.0,83.0,-128.0
126.0,127.0,127.0,128.0,127.0,128.0,127.0,127.0,18.0,-118.0,-77.0,127.0,127.0,127.0,121.0,83.0,-128.0
126.0,127.0,127.0,128.0,127.0,128.0,127.0,127.0,18.0,-118.0,-77.0,127.0,127.0,127.0,121.0,83.0,-128.0
126.0,126.0,127.0,128.0,127.0,128.0,127.0,127.0,18.0,-118.0,-77.0,127.0,127.0,127.0,121.0,83.0,-128.0
126.0,126.0,127.0,127.0,126.0,128.0,127.0,127.0,18.0,-118.0,-77.0,127.0,127.0,127.0,121.0,83.0,-128.0
126.0,127.0,127.0,127.0,127.0,129.0,126.0,127.0,18.0,-118.0,-77.0,127.0,127.0,127.0,121.0,83.0,-128.0
126.0,126.0,127.0,127.0,127.0,129.0,126.0,127.0,18.0,-118.0,-77.0,127.0,127.0,127.0,121.0,83.0,-128.0
127.0,126.0,127.0,126.0,126.0,129.0,126.0,127.0,18.0,-118.0,-77.0,127.0,127.0,127.0,121.0,83.0,-128.0
126.0,126.0,127.0,126.0,126.0,130.0,125.0,127.0,18.0,-118.0,-77.0,127.0,127.0,127.0,121.0,83.0,-128.0
127.0,126.0,128.0,127.0,127.0,129.0,125.0,127.0,18.0,-118.0,-77.0,127.0,127.0,127.0,121.0,83.0,-128.0
126.0,127.0,127.0,127.0,127.0,128.0,127.0,128.0,18.0,-118.0,-77.0,127.0,127.0,127.0,121.0,83.0,-128.0
126.0,127.0,127.0,127.0,127.0,129.0,126.0,128.0,18.0,-118.0,-77.0,127.0,127.0,127.0,121.0,83.0,-128.0
126.0,127.0,128.0,127.0,127.0,129.0,126.0,128.0,18.0,-118.0,-77.0,127.0,127.0,127.0,121.0,83.0,-128.0
126.0,127.0,128.0,127.0,127.0,129.0,126.0,128.0,18.0,-118.0,-77.0,127.0,127.0,127.0,121.0,83.0,-128.0
127.0,127.0,128.0,127.0,127.0,129.0,126.0,128.0,18.0,-118.0,-77.0,127.0,127.0,127.0,121.0,83.0,-128.0
127.0,127.0,128.0,127.0,127.0,129.0,126.0,127.0,18.0,-118.0,-77.0,127.0,127.0,127.0,121.0,83.0,-128.0
127.0,127.0,128.0,127.0,127.0,129.0,126.0,127.0,18.0,-118.0,-77.0,127.0,127.0,127.0,121.0,83.0,-128.0
127.0,127.0,128.0,127.0,127.0,129.0,125.0,127.0,18.0,-118.0,-77.0,127.0,127.0,127.0,121.0,83.0,-128.0
127.0,126.0,128.0,127.0,127.0,129.0,125.0,127.0,18.0,-118.0,-77.0,127.0,127.0,127.0,121.0,83.0,-128.0
126.0,127.0,127.0,127.0,127.0,128.0,127.0,128.0,18.0,-118.0,-77.0,127.0,127.0,127.0,121.0,83.0,-128.0
126.0,127.0,127.0,127.0,127.0,128.0,126.0,127.0,18.0,-118.0,-77.0,127.0,127.0,127.0,121.0,83.0,-128.0
126.0,127.0,127.0,127.0,127.0,129.0,126.0,127.0,18.0,-118.0,-77.0,127.0,127.0,127.0,121.0,83.0,-128.0
126.0,127.0,127.0,127.0,127.0,129.0,126.0,127.0,18.0,-118.0,-77.0,127.0,127.0,127.0,121.0,83.0,-128.0
126.0,127.0,127.0,127.0,127.0,129.0,126.0,127.0,18.0,-118.0,-77.0,127.0,127.0,127.0,121.0,83.0,-128.0
126.0,127.0,127.0,127.0,127.0,129.0,126.0,127.0,18.0,-118.0,-77.0,127.0,127.0,127.0,121.0,83.0,-128.0
126.0,127.0,127.0,126.0,127.0,129.0,126.0,127.0,18.0,-118.0,-77.0,127.0,127.0,127.0,121.0,83.0,-128.0
127.0,127.0,127.0,126.0,127.0,129.0,125.0,127.0,18.0,-118.0,-77.0,127.0,127.0,127.0,121.0,83.0,-128.0
127.0,126.0,127.0,126.0,126.0,129.0,125.0,127.0,18.0,-118.0,-77.0,127.0,127.0,127.0,121.0,83.0,-128.0
127.0,126.0,128.0,126.0,126.0,129.0,125.0,127.0,18.0,-118.0,-77.0,127.0,127.0,127.0,121.0,83.0,-128.0
126.0,127.0,126.0,127.0,126.0,127.0,127.0,128.0,18.0,-118.0,-77.0,127.0,127.0,127.0,121.0,83.0,-128.0
126.0,127.0,127.0,126.0,126.0,127.0,127.0,128.0,18.0,-118.0,-77.0,127.0,127.0,127.0,121.0,83.0,-128.0
127.0,127.0,127.0,126.0,126.0,128.0,126.0,128.0,18.0,-118.0,-77.0,127.0,127.0,127.0,121.0,83.0,-128.0
127.0,127.0,127.0,126.0,126.0,128.0,126.0,128.0,18.0,-118.0,-77.0,127.0,127.0,127.0,121.0,83.0,-128.0
127.0,127.0,127.0,126.0,126.0,129.0,126.0,128.0,18.0,-118.0,-77.0,127.0,127.0,127.0,121.0,83.0,-128.0
127.0,127.0,127.0,126.0,126.0,129.0,126.0,127.0,18.0,-118.0,-77.0,127.0,127.0,127.0,121.0,83.0,-128.0
127.0,127.0,127.0,126.0,126.0,129.0,126.0,127.0,18.0,-118.0,-77.0,127.0,127.0,127.0,121.0,83.0,-128.0
127.0,126.0,127.0,126.0,126.0,129.0,126.0,127.0,18.0,-118.0,-77.0,127.0,127.0,127.0,121.0,83.0,-128.0
127.0,126.0,127.0,126.0,126.0,129.0,125.0,127.0,18.0,-118.0,-77.0,127.0,127.0,127.0,121.0,83.0,-128.0
126.0,127.0,126.0,127.0,126.0,127.0,127.0,128.0,18.0,-118.0,-77.0,127.0,127.0,127.0,121.0,83.0,-128.0
126.0,128.0,127.0,127.0,127.0,129.0,126.0,128.0,18.0,-118.0,-77.0,127.0,127.0,127.0,121.0,83.0,-128.0
127.0,128.0,127.0,127.0,127.0,129.0,126.0,128.0,18.0,-118.0,-77.0,127.0,127.0,127.0,121.0,83.0,-128.0
127.0,127.0,127.0,127.0,127.0,129.0,126.0,128.0,18.0,-118.0,-77.0,127.0,127.0,127.0,121.0,83.0,-128.0
127.0,127.0,127.0,126.0,127.0,129.0,126.0,128.0,18.0,-118.0,-77.0,127.0,127.0,127.0,121.0,83.0,-128.0
127.0,127.0,127.0,126.0,127.0,129.0,125.0,127.0,18.0,-118.0,-77.0,127.0,127.0,127.0,121.0,83.0,-128.0
127.0,127.0,127.0,126.0,127.0,129.0,125.0,127.0,18.0,-118.0,-77.0,127.0,127.0,127.0,121.0,83.0,-128.0
127.0,127.0,128.0,126.0,127.0,129.0,125.0,127.0,18.0,-118.0,-77.0,127.0,127.0,127.0,121.0,83.0,-128.0
127.0,127.0,128.0,126.0,127.0,129.0,125.0,127.0,18.0,-118.0,-77.0,127.0,127.0,127.0,121.0,83.0,-128.0
126.0,128.0,127.0,127.0,127.0,129.0,126.0,128.0,18.0,-118.0,-77.0,127.0,127.0,127.0,121.0,83.0,-128.0
126.0,128.0,127.0,127.0,127.0,129.0,126.0,128.0,18.0,-118.0,-77.0,127.0,127.0,127.0,121.0,83.0,-128.0
126.0,127.0,126.0,127.0,127.0,129.0,126.0,128.0,18.0,-118.0,-77.0,127.0,127.0,127.0,121.0,83.0,-128.0
126.0,127.0,126.0,127.0,127.0,129.0,126.0,128.0,18.0,-118.0,-77.0,127.0,127.0,127.0,121.0,83.0,-128.0
126.0,127.0,126.0,127.0,127.0,129.0,126.0,128.0,18.0,-118.0,-77.0,127.0,127.0,127.0,121.0,83.0,-128.0
126.0,127.0,126.0,127.0,127.0,129.0,126.0,128.0,18.0,-118.0,-77.0,127.0,127.0,127.0,121.0,83.0,-128.0
127.0,126.0,126.0,126.0,126.0,129.0,126.0,128.0,18.0,-118.0,-77.0,127.0,127.0,127.0,121.0,83.0,-128.0
127.0,126.0,126.0,126.0,126.0,129.0,126.0,128.0,18.0,-118.0,-77.0,127.0,127.0,127.0,121.0,83.0,-128.0
127.0,126.0,126.0,126.0,126.0,129.0,125.0,128.0,18.0,-118.0,-77.0,127.0,127.0,127.0,121.0,83.0,-128.0
126.0,127.0,126.0,128.0,127.0,128.0,126.0,128.0,18.0,-118.0,-77.0,127.0,127.0,127.0,121.0,83.0,-128.0
126.0,127.0,126.0,127.0,127.0,128.0,126.0,128.0,18.0,-118.0,-77.0,127.0,127.0,127.0,121.0,83.0,-128.0
126.0,127.0,126.0,127.0,127.0,128.0,126.0,128.0,18.0,-118.0,-77.0,127.0,127.0,127.0,121.0,83.0,-128.0
126.0,127.0,126.0,126.0,127.0,129.0,126.0,128.0,18.0,-118.0,-77.0,127.0,127.0,127.0,121.0,83.0,-128.0
126.0,127.0,126.0,126.0,127.0,129.0,126.0,128.0,18.0,-118.0,-77.0,127.0,127.0,127.0,121.0,83.0,-128.0
127.0,126.0,127.0,127.0,127.0,129.0,126.0,128.0,18.0,-118.0,-77.0,127.0,127.0,127.0,121.0,83.0,-128.0
127.0,126.0,127.0,127.0,127.0,129.0,126.0,128.0,18.0,-118.0,-77.0,127.0,127.0,127.0,121.0,83.0,-128.0
127.0,126.0,127.0,127.0,127.0,129.0,126.0,128.0,18.0,-118.0,-77.0,127.0,127.0,127.0,121.0,83.0,-128.0
127.0,126.0,127.0,127.0,127.0,129.0,126.0,128.0,18.0,-118.0,-77.0,127.0,127.0,127.0,121.0,83.0,-128.0
126.0,127.0,126.0,127.0,127.0,129.0,127.0,128.0,18.0,-118.0,-77.0,127.0,127.0,127.0,121.0,83.0,-128.0
126.0,127.0,126.0,126.0,127.0,128.0,127.0,128.0,18.0,-118.0,-77.0,127.0,127.0,127.0,121.0,83.0,-128.0
126.0,127.0,126.0,126.0,127.0,129.0,127.0,128.0,18.0,-118.0,-77.0,127.0,127.0,127.0,121.0,83.0,-128.0
126.0,127.0,126.0,126.0,127.0,129.0,126.0,128.0,18.0,-118.0,-77.0,127.0,127.0,127.0,121.0,83.0,-128.0
126.0,127.0,126.0,125.0,126.0,129.0,126.0,128.0,18.0,-118.0,-77.0,127.0,127.0,127.0,121.0,83.0,-128.0
126.0,127.0,126.0,125.0,126.0,129.0,126.0,127.0,18.0,-118.0,-77.0,127.0,127.0,127.0,121.0,83.0,-128.0
126.0,126.0,126.0,125.0,126.0,129.0,126.0,127.0,18.0,-118.0,-77.0,127.0,127.0,127.0,121.0,83.0,-128.0
126.0,126.0,126.0,125.0,126.0,129.0,126.0,127.0,18.0,-118.0,-77.0,127.0,127.0,127.0,121.0,83.0,-128.0
126.0,126.0,127.0,126.0,126.0,129.0,126.0,127.0,18.0,-118.0,-77.0,127.0,127.0,127.0,121.0,83.0,-128.0
126.0,127.0,126.0,127.0,127.0,129.0,127.0,128.0,18.0,-118.0,-77.0,127.0,127.0,127.0,121.0,83.0,-128.0
126.0,127.0,126.0,126.0,127.0,129.0,127.0,128.0,18.0,-118.0,-77.0,127.0,127.0,127.0,121.0,83.0,-128.0
126.0,127.0,126.0,126.0,127.0,129.0,126.0,128.0,18.0,-118.0,-77.0,127.0,127.0,127.0,121.0,83.0,-128.0
126.0,127.0,126.0,125.0,127.0,129.0,126.0,128.0,18.0,-118.0,-77.0,127.0,127.0,127.0,121.0,83.0,-128.0
126.0,127.0,126.0,125.0,126.0,129.0,126.0,128.0,18.0,-118.0,-77.0,127.0,127.0,127.0,121.0,83.0,-128.0
126.0,126.0,126.0,126.0,126.0,129.0,126.0,127.0,18.0,-118.0,-77.0,127.0,127.0,127.0,121.0,83.0,-128.0
126.0,126.0,126.0,126.0,126.0,129.0,126.0,127.0,18.0,-118.0,-77.0,127.0,127.0,127.0,121.0,83.0,-128.0
126.0,126.0,126.0,125.0,126.0,129.0,125.0,127.0,18.0,-118.0,-77.0,127.0,127.0,127.0,121.0,83.0,-128.0
127.0,126.0,127.0,125.0,126.0,129.0,125.0,127.0,18.0,-118.0,-77.0,127.0,127.0,127.0,121.0,83.0,-128.0
126.0,127.0,126.0,127.0,127.0,129.0,126.0,128.0,18.0,-118.0,-77.0,127.0,127.0,127.0,121.0,83.0,-128.0
126.0,127.0,126.0,127.0,127.0,129.0,126.0,128.0,18.0,-118.0,-77.0,127.0,127.0,127.0,121.0,83.0,-128.0
126.0,127.0,126.0,127.0,127.0,129.0,126.0,128.0,18.0,-118.0,-77.0,127.0,127.0,127.0,121.0,83.0,-128.0
126.0,127.0,126.0,127.0,126.0,129.0,126.0,128.0,18.0,-118.0,-77.0,127.0,127.0,127.0,121.0,83.0,-128.0
126.0,127.0,126.0,127.0,126.0,129.0,126.0,128.0,18.0,-118.0,-77.0,127.0,127.0,127.0,121.0,83.0,-128.0
126.0,127.0,126.0,126.0,126.0,129.0,126.0,128.0,18.0,-118.0,-77.0,127.0,127.0,127.0,121.0,83.0,-128.0
126.0,127.0,126.0,127.0,127.0,129.0,126.0,128.0,18.0,-118.0,-77.0,127.0,127.0,127.0,121.0,83.0,-128.0
126.0,127.0,126.0,127.0,127.0,129.0,125.0,127.0,18.0,-118.0,-77.0,127.0,127.0,127.0,121.0,83.0,-128.0
127.0,127.0,126.0,126.0,126.0,129.0,125.0,127.0,18.0,-118.0,-77.0,127.0,127.0,127.0,121.0,83.0,-128.0
126.0,128.0,125.0,128.0,127.0,129.0,126.0,128.0,18.0,-118.0,-77.0,127.0,127.0,127.0,121.0,83.0,-128.0
126.0,127.0,125.0,128.0,127.0,129.0,126.0,128.0,18.0,-118.0,-77.0,127.0,127.0,127.0,121.0,83.0,-128.0
126.0,127.0,125.0,127.0,127.0,129.0,126.0,128.0,18.0,-118.0,-77.0,127.0,127.0,127.0,121.0,83.0,-128.0
126.0,127.0,125.0,127.0,127.0,130.0,126.0,128.0,18.0,-118.0,-77.0,127.0,127.0,127.0,121.0,83.0,-128.0
126.0,127.0,126.0,127.0,127.0,129.0,126.0,128.0,18.0,-118.0,-77.0,127.0,127.0,127.0,121.0,83.0,-128.0
126.0,127.0,126.0,127.0,127.0,129.0,126.0,128.0,18.0,-118.0,-77.0,127.0,127.0,127.0,121.0,83.0,-128.0
126.0,127.0,126.0,127.0,127.0,129.0,126.0,128.0,18.0,-118.0,-77.0,127.0,127.0,127.0,121.0,83.0,-128.0
126.0,127.0,126.0,125.0,126.0,129.0,125.0,127.0,18.0,-118.0,-77.0,127.0,127.0,127.0,121.0,83.0,-128.0
126.0,127.0,126.0,125.0,126.0,129.0,125.0,127.0,18.0,-118.0,-77.0,127.0,127.0,127.0,121.0,83.0,-128.0
126.0,127.0,125.0,127.0,126.0,128.0,127.0,127.0,18.0,-118.0,-77.0,127.0,127.0,127.0,121.0,83.0,-128.0
126.0,127.0,125.0,127.0,126.0,128.0,127.0,127.0,18.0,-118.0,-77.0,127.0,127.0,127.0,121.0,83.0,-128.0
126.0,127.0,125.0,126.0,126.0,128.0,126.0,127.0,18.0,-118.0,-77.0,127.0,127.0,127.0,121.0,83.0,-128.0
126.0,127.0,125.0,126.0,126.0,129.0,126.0,127.0,18.0,-118.0,-77.0,127.0,127.0,127.0,121.0,83.0,-128.0
126.0,127.0,125.0,126.0,126.0,129.0,126.0,127.0,18.0,-118.0,-77.0,127.0,127.0,127.0,121.0,83.0,-128.0
126.0,127.0,125.0,125.0,126.0,129.0,126.0,127.0,18.0,-118.0,-77.0,127.0,127.0,127.0,121.0,83.0,-128.0
126.0,127.0,125.0,125.0,126.0,129.0,126.0,127.0,18.0,-118.0,-77.0,127.0,127.0,127.0,121.0,83.0,-128.0
126.0,127.0,125.0,125.0,126.0,129.0,126.0,127.0,18.0,-118.0,-77.0,127.0,127.0,127.0,121.0,83.0,-128.0
127.0,127.0,126.0,127.0,126.0,129.0,126.0,127.0,18.0,-118.0,-77.0,127.0,127.0,127.0,121.0,83.0,-128.0
126.0,127.0,126.0,129.0,127.0,127.0,128.0,128.0,18.0,-118.0,-77.0,127.0,127.0,127.0,121.0,83.0,-128.0
126.0,127.0,126.0,129.0,127.0,127.0,127.0,128.0,18.0,-118.0,-77.0,127.0,127.0,127.0,121.0,83.0,-128.0
126.0,127.0,126.0,128.0,127.0,127.0,127.0,127.0,18.0,-118.0,-77.0,127.0,127.0,127.0,121.0,83.0,-128.0
127.0,127.0,126.0,128.0,126.0,127.0,127.0,127.0,18.0,-118.0,-77.0,127.0,127.0,127.0,121.0,83.0,-128.0
127.0,127.0,126.0,128.0,126.0,127.0,127.0,127.0,18.0,-118.0,-77.0,127.0,127.0,127.0,121.0,83.0,-128.0
127.0,127.0,126.0,128.0,126.0,127.0,127.0,127.0,18.0,-118.0,-77.0,127.0,127.0,127.0,121.0,83.0,-128.0
127.0,127.0,126.0,128.0,126.0,128.0,126.0,127.0,18.0,-118.0,-77.0,127.0,127.0,127.0,121.0,83.0,-128.0
127.0,127.0,126.0,128.0,126.0,129.0,126.0,127.0,18.0,-118.0,-77.0,127.0,127.0,127.0,121.0,83.0,-128.0
127.0,127.0,126.0,127.0,126.0,129.0,126.0,127.0,18.0,-118.0,-77.0,127.0,127.0,127.0,121.0,83.0,-128.0
126.0,128.0,126.0,127.0,127.0,128.0,127.0,128.0,18.0,-118.0,-77.0,127.0,127.0,127.0,121.0,83.0,-128.0
126.0,128.0,126.0,127.0,127.0,128.0,127.0,128.0,18.0,-118.0,-77.0,127.0,127.0,127.0,121.0,83.0,-128.0
126.0,128.0,127.0,127.0,127.0,128.0,127.0,128.0,18.0,-118.0,-77.0,127.0,127.0,127.0,121.0,83.0,-128.0
126.0,128.0,126.0,127.0,127.0,129.0,126.0,128.0,18.0,-118.0,-77.0,127.0,127.0,127.0,121.0,83.0,-128.0
127.0,128.0,126.0,127.0,127.0,129.0,126.0,128.0,18.0,-118.0,-77.0,127.0,127.0,127.0,121.0,83.0,-128.0
127.0,128.0,127.0,127.0,127.0,129.0,126.0,128.0,18.0,-118.0,-77.0,127.0,127.0,127.0,121.0,83.0,-128.0
127.0,127.0,127.0,126.0,127.0,129.0,126.0,128.0,18.0,-118.0,-77.0,127.0,127.0,127.0,121.0,83.0,-128.0
127.0,128.0,127.0,126.0,127.0,130.0,126.0,128.0,18.0,-118.0,-77.0,127.0,127.0,127.0,121.0,83.0,-128.0
127.0,127.0,127.0,126.0,127.0,130.0,125.0,128.0,18.0,-118.0,-77.0,127.0,127.0,127.0,121.0,83.0,-128.0
127.0,127.0,127.0,126.0,127.0,130.0,125.0,128.0,18.0,-118.0,-77.0,127.0,127.0,127.0,121.0,83.0,-128.0
127.0,127.0,127.0,126.0,127.0,128.0,126.0,128.0,18.0,-118.0,-77.0,127.0,127.0,127.0,121.0,83.0,-128.0
127.0,127.0,127.0,126.0,127.0,128.0,126.0,128.0,18.0,-118.0,-77.0,127.0,127.0,127.0,121.0,83.0,-128.0
127.0,127.0,127.0,126.0,127.0,128.0,126.0,128.0,18.0,-118.0,-77.0,127.0,127.0,127.0,121.0,83.0,-128.0
127.0,127.0,127.0,126.0,127.0,128.0,126.0,128.0,18.0,-118.0,-77.0,127.0,127.0,127.0,121.0,83.0,-128.0
127.0,126.0,127.0,126.0,127.0,129.0,126.0,128.0,18.0,-118.0,-77.0,127.0,127.0,127.0,121.0,83.0,-128.0
127.0,126.0,127.0,126.0,127.0,129.0,126.0,128.0,18.0,-118.0,-77.0,127.0,127.0,127.0,121.0,83.0,-128.0
127.0,127.0,127.0,126.0,127.0,129.0,125.0,128.0,18.0,-118.0,-77.0,127.0,127.0,127.0,121.0,83.0,-128.0
127.0,126.0,128.0,126.0,127.0,130.0,125.0,128.0,18.0,-118.0,-77.0,127.0,127.0,127.0,121.0,83.0,-128.0
127.0,126.0,128.0,126.0,127.0,130.0,125.0,127.0,18.0,-118.0,-77.0,127.0,127.0,127.0,121.0,83.0,-128.0
127.0,127.0,127.0,126.0,127.0,128.0,127.0,128.0,18.0,-118.0,-77.0,127.0,127.0,127.0,121.0,83.0,-128.0
126.0,127.0,127.0,127.0,127.0,129.0,126.0,127.0,18.0,-118.0,-77.0,127.0,127.0,127.0,121.0,83.0,-128.0
126.0,127.0,127.0,127.0,127.0,129.0,126.0,127.0,18.0,-118.0,-77.0,127.0,127.0,127.0,121.0,83.0,-128.0
126.0,127.0,127.0,127.0,127.0,129.0,126.0,127.0,18.0,-118.0,-77.0,127.0,127.0,127.0,121.0,83.0,-128.0
126.0,127.0,127.0,127.0,127.0,129.0,126.0,126.0,18.0,-118.0,-77.0,127.0,127.0,127.0,121.0,83.0,-128.0
126.0,127.0,127.0,126.0,127.0,129.0,125.0,126.0,18.0,-118.0,-77.0,127.0,127.0,127.0,121.0,83.0,-128.0
126.0,127.0,127.0,126.0,127.0,130.0,125.0,126.0,18.0,-118.0,-77.0,127.0,127.0,127.0,121.0,83.0,-128.0
126.0,127.0,127.0,126.0,127.0,130.0,125.0,126.0,18.0,-118.0,-77.0,127.0,127.0,127.0,121.0,83.0,-128.0
126.0,126.0,127.0,126.0,127.0,130.0,125.0,126.0,18.0,-118.0,-77.0,127.0,127.0,127.0,121.0,83.0,-128.0
126.0,127.0,127.0,128.0,127.0,128.0,126.0,127.0,18.0,-118.0,-77.0,127.0,127.0,127.0,121.0,83.0,-128.0
126.0,127.0,127.0,128.0,127.0,129.0,126.0,127.0,18.0,-118.0,-77.0,127.0,127.0,127.0,121.0,83.0,-128.0
126.0,127.0,126.0,125.0,127.0,129.0,126.0,127.0,18.0,-118.0,-77.0,127.0,127.0,127.0,121.0,83.0,-128.0
126.0,127.0,127.0,125.0,127.0,129.0,126.0,127.0,18.0,-118.0,-77.0,127.0,127.0,127.0,121.0,83.0,-128.0
126.0,126.0,127.0,125.0,127.0,129.0,126.0,127.0,18.0,-118.0,-77.0,127.0,127.0,127.0,121.0,83.0,-128.0
126.0,126.0,127.0,124.0,127.0,129.0,126.0,127.0,18.0,-118.0,-77.0,127.0,127.0,127.0,121.0,83.0,-128.0
126.0,127.0,127.0,124.0,127.0,130.0,126.0,127.0,18.0,-118.0,-77.0,127.0,127.0,127.0,121.0,83.0,-128.0
126.0,127.0,127.0,124.0,127.0,130.0,125.0,127.0,18.0,-118.0,-77.0,127.0,127.0,127.0,121.0,83.0,-128.0
126.0,126.0,127.0,124.0,127.0,130.0,125.0,127.0,18.0,-118.0,-77.0,127.0,127.0,127.0,121.0,83.0,-128.0
126.0,127.0,126.0,126.0,127.0,128.0,127.0,127.0,18.0,-118.0,-77.0,127.0,127.0,127.0,121.0,83.0,-128.0
126.0,127.0,126.0,126.0,127.0,128.0,126.0,127.0,18.0,-118.0,-77.0,127.0,127.0,127.0,121.0,83.0,-128.0
126.0,127.0,126.0,125.0,127.0,129.0,126.0,127.0,18.0,-118.0,-77.0,127.0,127.0,127.0,121.0,83.0,-128.0
126.0,127.0,126.0,128.0,127.0,128.0,127.0,127.0,18.0,-118.0,-77.0,127.0,127.0,127.0,121.0,83.0,-128.0
126.0,127.0,126.0,128.0,127.0,128.0,127.0,127.0,18.0,-118.0,-77.0,127.0,127.0,127.0,121.0,83.0,-128.0
126.0,127.0,127.0,128.0,127.0,128.0,127.0,127.0,18.0,-118.0,-77.0,127.0,127.0,127.0,121.0,83.0,-128.0
126.0,127.0,127.0,128.0,126.0,128.0,127.0,127.0,18.0,-118.0,-77.0,127.0,127.0,127.0,121.0,83.0,-128.0
126.0,126.0,127.0,128.0,126.0,128.0,126.0,127.0,18.0,-118.0,-77.0,127.0,127.0,127.0,121.0,83.0,-128.0
127.0,126.0,127.0,128.0,126.0,128.0,126.0,127.0,18.0,-118.0,-77.0,127.0,127.0,127.0,121.0,83.0,-128.0
126.0,128.0,126.0,128.0,127.0,128.0,127.0,128.0,18.0,-118.0,-77.0,127.0,127.0,127.0,121.0,83.0,-128.0
126.0,128.0,126.0,128.0,127.0,128.0,127.0,128.0,18.0,-118.0,-77.0,127.0,127.0,127.0,121.0,83.0,-128.0
126.0,128.0,126.0,128.0,127.0,128.0,127.0,127.0,18.0,-118.0,-77.0,127.0,127.0,127.0,121.0,83.0,-128.0
126.0,127.0,126.0,128.0,127.0,128.0,127.0,127.0,18.0,-118.0,-77.0,127.0,127.0,127.0,121.0,83.0,-128.0
126.0,128.0,126.0,127.0,127.0,129.0,126.0,128.0,18.0,-118.0,-77.0,127.0,127.0,127.0,121.0,83.0,-128.0
126.0,128.0,126.0,127.0,127.0,129.0,126.0,128.0,18.0,-118.0,-77.0,127.0,127.0,127.0,121.0,83.0,-128.0
126.0,128.0,126.0,127.0,127.0,129.0,126.0,128.0,18.0,-118.0,-77.0,127.0,127.0,127.0,121.0,83.0,-128.0
126.0,128.0,126.0,127.0,127.0,129.0,126.0,127.0,18.0,-118.0,-77.0,127.0,127.0,127.0,121.0,83.0,-128.0
127.0,127.0,126.0,127.0,127.0,129.0,126.0,127.0,18.0,-118.0,-77.0,127.0,127.0,127.0,121.0,83.0,-128.0
126.0,128.0,126.0,127.0,127.0,128.0,127.0,128.0,18.0,-118.0,-77.0,127.0,127.0,127.0,121.0,83.0,-128.0
126.0,128.0,126.0,127.0,127.0,129.0,127.0,128.0,18.0,-118.0,-77.0,127.0,127.0,127.0,121.0,83.0,-128.0
126.0,128.0,126.0,127.0,127.0,129.0,127.0,128.0,18.0,-118.0,-77.0,127.0,127.0,127.0,121.0,83.0,-128.0
126.0,128.0,126.0,127.0,127.0,129.0,127.0,128.0,18.0,-118.0,-77.0,127.0,127.0,127.0,121.0,83.0,-128.0
126.0,128.0,126.0,127.0,127.0,129.0,126.0,128.0,18.0,-118.0,-77.0,127.0,127.0,127.0,121.0,83.0,-128.0
126.0,127.0,127.0,126.0,127.0,129.0,126.0,127.0,18.0,-118.0,-77.0,127.0,127.0,127.0,121.0,83.0,-128.0
126.0,127.0,127.0,126.0,127.0,129.0,125.0,127.0,18.0,-118.0,-77.0,127.0,127.0,127.0,121.0,83.0,-128.0
127.0,126.0,127.0,126.0,127.0,129.0,125.0,127.0,18.0,-118.0,-77.0,127.0,127.0,127.0,121.0,83.0,-128.0
127.0,126.0,127.0,125.0,126.0,129.0,125.0,127.0,18.0,-118.0,-77.0,127.0,127.0,127.0,121.0,83.0,-128.0
126.0,127.0,127.0,127.0,127.0,128.0,127.0,127.0,18.0,-118.0,-77.0,127.0,127.0,127.0,121.0,83.0,-128.0
126.0,127.0,127.0,127.0,127.0,127.0,127.0,127.0,18.0,-118.0,-77.0,127.0,127.0,127.0,121.0,83.0,-128.0
126.0,127.0,127.0,127.0,127.0,127.0,127.0,127.0,18.0,-118.0,-77.0,127.0,127.0,127.0,121.0,83.0,-128.0
126.0,127.0,127.0,126.0,127.0,128.0,126.0,127.0,18.0,-118.0,-77.0,127.0,127.0,127.0,121.0,83.0,-128.0
126.0,127.0,127.0,126.0,127.0,128.0,126.0,127.0,18.0,-118.0,-77.0,127.0,127.0,127.0,121.0,83.0,-128.0
126.0,127.0,127.0,126.0,127.0,128.0,126.0,127.0,18.0,-118.0,-77.0,127.0,127.0,127.0,121.0,83.0,-128.0
127.0,126.0,127.0,127.0,126.0,128.0,126.0,127.0,18.0,-118.0,-77.0,127.0,127.0,127.0,121.0,83.0,-128.0
127.0,126.0,127.0,127.0,126.0,129.0,126.0,127.0,18.0,-118.0,-77.0,127.0,127.0,127.0,121.0,83.0,-128.0
127.0,126.0,127.0,127.0,126.0,129.0,126.0,127.0,18.0,-118.0,-77.0,127.0,127.0,127.0,121.0,83.0,-128.0
126.0,126.0,126.0,128.0,127.0,127.0,127.0,127.0,18.0,-118.0,-77.0,127.0,127.0,127.0,121.0,83.0,-128.0
126.0,126.0,126.0,128.0,127.0,127.0,127.0,127.0,18.0,-118.0,-77.0,127.0,127.0,127.0,121.0,83.0,-128.0
126.0,126.0,126.0,127.0,127.0,127.0,127.0,127.0,18.0,-118.0,-77.0,127.0,127.0,127.0,121.0,83.0,-128.0
126.0,126.0,126.0,127.0,127.0,127.0,127.0,127.0,18.0,-118.0,-77.0,127.0,127.0,127.0,121.0,83.0,-128.0
127.0,126.0,127.0,127.0,126.0,127.0,127.0,127.0,18.0,-118.0,-77.0,127.0,127.0,127.0,121.0,83.0,-128.0
127.0,126.0,127.0,127.0,126.0,127.0,127.0,127.0,18.0,-118.0,-77.0,127.0,127.0,127.0,121.0,83.0,-128.0
127.0,126.0,127.0,127.0,126.0,128.0,126.0,127.0,18.0,-118.0,-77.0,127.0,127.0,127.0,121.0,83.0,-128.0
126.0,126.0,127.0,128.0,126.0,128.0,126.0,127.0,18.0,-118.0,-77.0,127.0,127.0,127.0,121.0,83.0,-128.0
126.0,126.0,127.0,127.0,126.0,128.0,126.0,127.0,18.0,-118.0,-77.0,127.0,127.0,127.0,121.0,83.0,-128.0
126.0,127.0,126.0,128.0,127.0,127.0,127.0,128.0,18.0,-118.0,-77.0,127.0,127.0,127.0,121.0,83.0,-128.0
126.0,127.0,126.0,128.0,127.0,128.0,127.0,128.0,18.0,-118.0,-77.0,127.0,127.0,127.0,121.0,83.0,-128.0
126.0,127.0,126.0,128.0,127.0,128.0,127.0,128.0,18.0,-118.0,-77.0,127.0,127.0,127.0,121.0,83.0,-128.0
126.0,127.0,126.0,128.0,127.0,128.0,127.0,128.0,18.0,-118.0,-77.0,127.0,127.0,127.0,121.0,83.0,-128.0
126.0,127.0,126.0,128.0,127.0,128.0,126.0,128.0,18.0,-118.0,-77.0,127.0,127.0,127.0,121.0,83.0,-128.0
126.0,127.0,126.0,128.0,127.0,128.0,126.0,128.0,18.0,-118.0,-77.0,127.0,127.0,127.0,121.0,83.0,-128.0
126.0,127.0,127.0,128.0,127.0,128.0,126.0,128.0,18.0,-118.0,-77.0,127.0,127.0,127.0,121.0,83.0,-128.0
126.0,127.0,127.0,128.0,127.0,128.0,126.0,128.0,18.0,-118.0,-77.0,127.0,127.0,127.0,121.0,83.0,-128.0
126.0,126.0,127.0,127.0,126.0,128.0,126.0,128.0,18.0,-118.0,-77.0,127.0,127.0,127.0,121.0,83.0,-128.0
126.0,127.0,126.0,128.0,127.0,127.0,128.0,128.0,18.0,-118.0,-77.0,127.0,127.0,127.0,121.0,83.0,-128.0
126.0,127.0,126.0,128.0,127.0,127.0,127.0,128.0,18.0,-118.0,-77.0,127.0,127.0,127.0,121.0,83.0,-128.0
126.0,127.0,126.0,128.0,127.0,127.0,127.0,128.0,18.0,-118.0,-77.0,127.0,127.0,127.0,121.0,83.0,-128.0
126.0,127.0,126.0,128.0,127.0,127.0,127.0,128.0,18.0,-118.0,-77.0,127.0,127.0,127.0,121.0,83.0,-128.0
126.0,127.0,126.0,127.0,127.0,127.0,127.0,128.0,18.0,-118.0,-77.0,127.0,127.0,127.0,121.0,83.0,-128.0
126.0,127.0,126.0,127.0,127.0,128.0,127.0,128.0,18.0,-118.0,-77.0,127.0,127.0,127.0,121.0,83.0,-128.0
126.0,127.0,126.0,127.0,127.0,128.0,127.0,128.0,18.0,-118.0,-77.0,127.0,127.0,127.0,121.0,83.0,-128.0
126.0,127.0,126.0,127.0,126.0,128.0,127.0,128.0,18.0,-118.0,-77.0,127.0,127.0,127.0,121.0,83.0,-128.0
126.0,127.0,126.0,127.0,126.0,128.0,126.0,128.0,18.0,-118.0,-77.0,127.0,127.0,127.0,121.0,83.0,-128.0
125.0,128.0,126.0,128.0,127.0,128.0,127.0,128.0,18.0,-118.0,-77.0,127.0,127.0,127.0,121.0,83.0,-128.0
125.0,128.0,126.0,128.0,127.0,128.0,127.0,128.0,18.0,-118.0,-77.0,127.0,127.0,127.0,121.0,83.0,-128.0
126.0,128.0,126.0,127.0,127.0,128.0,127.0,128.0,18.0,-118.0,-77.0,127.0,127.0,127.0,121.0,83.0,-128.0
126.0,128.0,126.0,127.0,127.0,128.0,127.0,128.0,18.0,-118.0,-77.0,127.0,127.0,127.0,121.0,83.0,-128.0
126.0,127.0,126.0,127.0,127.0,128.0,127.0,128.0,18.0,-118.0,-77.0,127.0,127.0,127.0,121.0,83.0,-128.0
126.0,127.0,126.0,126.0,127.0,128.0,127.0,128.0,18.0,-118.0,-77.0,127.0,127.0,127.0,121.0,83.0,-128.0
126.0,127.0,126.0,126.0,127.0,128.0,127.0,128.0,18.0,-118.0,-77.0,127.0,127.0,127.0,121.0,83.0,-128.0
126.0,127.0,126.0,126.0,127.0,128.0,127.0,128.0,18.0,-118.0,-77.0,127.0,127.0,127.0,121.0,83.0,-128.0
126.0,127.0,126.0,126.0,126.0,128.0,127.0,128.0,18.0,-118.0,-77.0,127.0,127.0,127.0,121.0,83.0,-128.0
126.0,127.0,127.0,125.0,126.0,128.0,126.0,128.0,18.0,-118.0,-77.0,127.0,127.0,127.0,121.0,83.0,-128.0
126.0,129.0,126.0,129.0,127.0,128.0,127.0,128.0,18.0,-118.0,-77.0,127.0,127.0,127.0,121.0,83.0,-128.0
126.0,129.0,126.0,128.0,128.0,128.0,127.0,128.0,18.0,-118.0,-77.0,127.0,127.0,127.0,121.0,83.0,-128.0
126.0,129.0,126.0,128.0,128.0,128.0,127.0,128.0,18.0,-118.0,-77.0,127.0,127.0,127.0,121.0,83.0,-128.0
126.0,129.0,126.0,128.0,127.0,128.0,126.0,128.0,18.0,-118.0,-77.0,127.0,127.0,127.0,121.0,83.0,-128.0
126.0,128.0,126.0,128.0,127.0,128.0,126.0,128.0,18.0,-118.0,-77.0,127.0,127.0,127.0,121.0,83.0,-128.0
126.0,128.0,126.0,128.0,127.0,128.0,126.0,128.0,18.0,-118.0,-77.0,127.0,127.0,127.0,121.0,83.0,-128.0
126.0,128.0,126.0,127.0,127.0,129.0,126.0,128.0,18.0,-118.0,-77.0,127.0,127.0,127.0,121.0,83.0,-128.0
126.0,128.0,127.0,127.0,127.0,128.0,126.0,128.0,18.0,-118.0,-77.0,127.0,127.0,127.0,121.0,83.0,-128.0
127.0,128.0,127.0,127.0,127.0,128.0,126.0,128.0,18.0,-118.0,-77.0,127.0,127.0,127.0,121.0,83.0,-128.0
126.0,129.0,126.0,129.0,128.0,128.0,127.0,128.0,18.0,-118.0,-77.0,127.0,127.0,127.0,121.0,83.0,-128.0
126.0,128.0,126.0,127.0,127.0,128.0,126.0,128.0,18.0,-118.0,-77.0,127.0,127.0,127.0,121.0,83.0,-128.0
126.0,128.0,126.0,127.0,127.0,129.0,126.0,128.0,18.0,-118.0,-77.0,127.0,127.0,127.0,121.0,83.0,-128.0
126.0,128.0,126.0,127.0,127.0,129.0,126.0,128.0,18.0,-118.0,-77.0,127.0,127.0,127.0,121.0,83.0,-128.0
126.0,128.0,126.0,127.0,127.0,129.0,126.0,128.0,18.0,-118.0,-77.0,127.0,127.0,127.0,121.0,83.0,-128.0
126.0,127.0,126.0,127.0,127.0,129.0,126.0,127.0,18.0,-118.0,-77.0,127.0,127.0,127.0,121.0,83.0,-128.0
126.0,127.0,126.0,127.0,127.0,129.0,126.0,127.0,18.0,-118.0,-77.0,127.0,127.0,127.0,121.0,83.0,-128.0
127.0,127.0,126.0,127.0,127.0,129.0,126.0,127.0,18.0,-118.0,-77.0,127.0,127.0,127.0,121.0,83.0,-128.0
127.0,127.0,126.0,127.0,126.0,129.0,126.0,127.0,18.0,-118.0,-77.0,127.0,127.0,127.0,121.0,83.0,-128.0
126.0,128.0,126.0,127.0,127.0,128.0,127.0,128.0,18.0,-118.0,-77.0,127.0,127.0,127.0,121.0,83.0,-128.0
126.0,128.0,126.0,127.0,127.0,128.0,127.0,128.0,18.0,-118.0,-77.0,127.0,127.0,127.0,121.0,83.0,-128.0
126.0,128.0,126.0,127.0,127.0,129.0,126.0,128.0,18.0,-118.0,-77.0,127.0,127.0,127.0,121.0,83.0,-128.0
126.0,128.0,126.0,127.0,127.0,129.0,126.0,128.0,18.0,-118.0,-77.0,127.0,127.0,127.0,121.0,83.0,-128.0
126.0,127.0,126.0,127.0,127.0,129.0,126.0,128.0,18.0,-118.0,-77.0,127.0,127.0,127.0,121.0,83.0,-128.0
126.0,127.0,126.0,127.0,127.0,129.0,126.0,127.0,18.0,-118.0,-77.0,127.0,127.0,127.0,121.0,83.0,-128.0
126.0,127.0,126.0,127.0,127.0,129.0,126.0,127.0,18.0,-118.0,-77.0,127.0,127.0,127.0,121.0,83.0,-128.0
126.0,127.0,127.0,127.0,127.0,129.0,126.0,127.0,18.0,-118.0,-77.0,127.0,127.0,127.0,121.0,83.0,-128.0
126.0,127.0,127.0,126.0,127.0,129.0,126.0,127.0,18.0,-118.0,-77.0,127.0,127.0,127.0,121.0,83.0,-128.0
126.0,128.0,126.0,128.0,127.0,128.0,127.0,128.0,18.0,-118.0,-77.0,127.0,127.0,127.0,121.0,83.0,-128.0
126.0,128.0,126.0,127.0,127.0,128.0,127.0,128.0,18.0,-118.0,-77.0,127.0,127.0,127.0,121.0,83.0,-128.0
126.0,128.0,126.0,127.0,127.0,128.0,127.0,128.0,18.0,-118.0,-77.0,127.0,127.0,127.0,121.0,83.0,-128.0
126.0,128.0,127.0,127.0,127.0,129.0,126.0,127.0,18.0,-118.0,-77.0,127.0,127.0,127.0,121.0,83.0,-128.0
126.0,128.0,127.0,127.0,127.0,129.0,126.0,127.0,18.0,-118.0,-77.0,127.0,127.0,127.0,121.0,83.0,-128.0
126.0,128.0,126.0,127.0,127.0,129.0,126.0,127.0,18.0,-118.0,-77.0,127.0,127.0,127.0,121.0,83.0,-128.0
126.0,128.0,127.0,127.0,127.0,129.0,126.0,127.0,18.0,-118.0,-77.0,127.0,127.0,127.0,121.0,83.0,-128.0
126.0,127.0,127.0,127.0,127.0,129.0,126.0,127.0,18.0,-118.0,-77.0,127.0,127.0,127.0,121.0,83.0,-128.0
126.0,127.0,127.0,127.0,127.0,129.0,126.0,127.0,18.0,-118.0,-77.0,127.0,127.0,127.0,121.0,83.0,-128.0
126.0,128.0,126.0,127.0,127.0,128.0,127.0,127.0,18.0,-118.0,-77.0,127.0,127.0,127.0,121.0,83.0,-128.0
126.0,128.0,127.0,127.0,127.0,128.0,127.0,127.0,18.0,-118.0,-77.0,127.0,127.0,127.0,121.0,83.0,-128.0
126.0,128.0,127.0,127.0,127.0,128.0,127.0,127.0,18.0,-118.0,-77.0,127.0,127.0,127.0,121.0,83.0,-128.0
126.0,128.0,127.0,127.0,127.0,129.0,126.0,127.0,18.0,-118.0,-77.0,127.0,127.0,127.0,121.0,83.0,-128.0
126.0,128.0,126.0,127.0,127.0,128.0,126.0,128.0,18.0,-118.0,-77.0,127.0,127.0,127.0,121.0,83.0,-128.0
126.0,127.0,127.0,127.0,126.0,128.0,126.0,128.0,18.0,-118.0,-77.0,127.0,127.0,127.0,121.0,83.0,-128.0
126.0,127.0,127.0,127.0,126.0,128.0,126.0,128.0,18.0,-118.0,-77.0,127.0,127.0,127.0,121.0,83.0,-128.0
126.0,127.0,127.0,127.0,126.0,128.0,126.0,128.0,18.0,-118.0,-77.0,127.0,127.0,127.0,121.0,83.0,-128.0
126.0,127.0,127.0,126.0,126.0,128.0,126.0,128.0,18.0,-118.0,-77.0,127.0,127.0,127.0,121.0,83.0,-128.0
126.0,128.0,126.0,128.0,127.0,128.0,127.0,128.0,18.0,-118.0,-77.0,127.0,127.0,127.0,121.0,83.0,-128.0
126.0,128.0,126.0,127.0,127.0,128.0,127.0,128.0,18.0,-118.0,-77.0,127.0,127.0,127.0,121.0,83.0,-128.0
126.0,128.0,126.0,127.0,127.0,128.0,127.0,128.0,18.0,-118.0,-77.0,127.0,127.0,127.0,121.0,83.0,-128.0
126.0,128.0,126.0,127.0,127.0,128.0,126.0,128.0,18.0,-118.0,-77.0,127.0,127.0,127.0,121.0,83.0,-128.0
126.0,128.0,126.0,127.0,127.0,129.0,126.0,128.0,18.0,-118.0,-77.0,127.0,127.0,127.0,121.0,83.0,-128.0
126.0,128.0,127.0,130.0,127.0,129.0,127.0,128.0,18.0,-118.0,-77.0,127.0,127.0,127.0,121.0,83.0,-128.0
126.0,127.0,127.0,130.0,127.0,129.0,126.0,128.0,18.0,-118.0,-77.0,127.0,127.0,127.0,121.0,83.0,-128.0
126.0,127.0,127.0,129.0,127.0,129.0,126.0,128.0,18.0,-118.0,-77.0,127.0,127.0,127.0,121.0,83.0,-128.0
126.0,127.0,127.0,129.0,127.0,129.0,126.0,128.0,18.0,-118.0,-77.0,127.0,127.0,127.0,121.0,83.0,-128.0
126.0,127.0,127.0,131.0,127.0,128.0,127.0,128.0,18.0,-118.0,-77.0,127.0,127.0,127.0,121.0,83.0,-128.0
126.0,127.0,127.0,131.0,127.0,128.0,127.0,128.0,18.0,-118.0,-77.0,127.0,127.0,127.0,121.0,83.0,-128.0
126.0,127.0,127.0,130.0,127.0,128.0,127.0,128.0,18.0,-118.0,-77.0,127.0,127.0,127.0,121.0,83.0,-128.0
126.0,128.0,127.0,130.0,127.0,128.0,127.0,128.0,18.0,-118.0,-77.0,127.0,127.0,127.0,121.0,83.0,-128.0
126.0,128.0,127.0,130.0,127.0,129.0,127.0,128.0,18.0,-118.0,-77.0,127.0,127.0,127.0,121.0,83.0,-128.0
126.0,128.0,127.0,130.0,127.0,129.0,127.0,128.0,18.0,-118.0,-77.0,127.0,127.0,127.0,121.0,83.0,-128.0
125.0,127.0,127.0,125.0,126.0,128.0,126.0,126.0,18.0,-118.0,-77.0,127.0,127.0,127.0,121.0,83.0,-128.0
125.0,126.0,127.0,124.0,126.0,128.0,126.0,125.0,18.0,-118.0,-77.0,127.0,127.0,127.0,121.0,83.0,-128.0
125.0,126.0,127.0,124.0,126.0,128.0,125.0,125.0,18.0,-118.0,-77.0,127.0,127.0,127.0,121.0,83.0,-128.0
126.0,127.0,127.0,127.0,126.0,127.0,127.0,128.0,18.0,-118.0,-77.0,127.0,127.0,127.0,121.0,83.0,-128.0
125.0,127.0,127.0,127.0,126.0,127.0,127.0,128.0,18.0,-118.0,-77.0,127.0,127.0,127.0,121.0,83.0,-128.0
125.0,127.0,127.0,127.0,126.0,127.0,127.0,127.0,18.0,-118.0,-77.0,127.0,127.0,127.0,121.0,83.0,-128.0
125.0,127.0,127.0,126.0,126.0,128.0,126.0,127.0,18.0,-118.0,-77.0,127.0,127.0,127.0,121.0,83.0,-128.0
125.0,127.0,127.0,126.0,126.0,128.0,126.0,127.0,18.0,-118.0,-77.0,127.0,127.0,127.0,121.0,83.0,-128.0
125.0,127.0,127.0,126.0,126.0,128.0,126.0,127.0,18.0,-118.0,-77.0,127.0,127.0,127.0,121.0,83.0,-128.0
125.0,127.0,127.0,125.0,126.0,128.0,126.0,126.0,18.0,-118.0,-77.0,127.0,127.0,127.0,121.0,83.0,-128.0
115.0,124.0,123.0,125.0,125.0,128.0,123.0,109.0,18.0,-118.0,-77.0,127.0,127.0,127.0,121.0,83.0,-128.0
115.0,124.0,123.0,125.0,125.0,128.0,123.0,108.0,18.0,-118.0,-77.0,127.0,127.0,127.0,121.0,83.0,-128.0
117.0,124.0,123.0,127.0,127.0,126.0,125.0,106.0,18.0,-118.0,-77.0,127.0,127.0,127.0,121.0,83.0,-128.0
117.0,124.0,123.0,126.0,127.0,127.0,125.0,105.0,18.0,-118.0,-77.0,127.0,127.0,127.0,121.0,83.0,-128.0
117.0,124.0,123.0,126.0,127.0,127.0,125.0,105.0,18.0,-118.0,-77.0,127.0,127.0,127.0,121.0,83.0,-128.0
117.0,125.0,123.0,126.0,127.0,127.0,124.0,106.0,18.0,-118.0,-77.0,127.0,127.0,127.0,121.0,83.0,-128.0
116.0,125.0,123.0,125.0,126.0,128.0,124.0,107.0,18.0,-118.0,-77.0,127.0,127.0,127.0,121.0,83.0,-128.0
116.0,125.0,123.0,125.0,126.0,128.0,124.0,108.0,18.0,-118.0,-77.0,127.0,127.0,127.0,121.0,83.0,-128.0
116.0,124.0,123.0,125.0,126.0,128.0,124.0,108.0,18.0,-118.0,-77.0,127.0,127.0,127.0,121.0,83.0,-128.0
115.0,125.0,123.0,124.0,126.0,128.0,123.0,109.0,18.0,-118.0,-77.0,127.0,127.0,127.0,121.0,83.0,-128.0
104.0,120.0,143.0,135.0,128.0,128.0,122.0,110.0,18.0,-118.0,-77.0,127.0,127.0,127.0,121.0,83.0,-128.0
104.0,123.0,134.0,126.0,125.0,126.0,124.0,118.0,18.0,-118.0,-77.0,127.0,127.0,127.0,121.0,83.0,-128.0
104.0,123.0,135.0,127.0,125.0,127.0,124.0,118.0,18.0,-118.0,-77.0,127.0,127.0,127.0,121.0,83.0,-128.0
103.0,122.0,136.0,128.0,125.0,127.0,124.0,118.0,18.0,-118.0,-77.0,127.0,127.0,127.0,121.0,83.0,-128.0
103.0,122.0,137.0,130.0,126.0,127.0,123.0,118.0,18.0,-118.0,-77.0,127.0,127.0,127.0,121.0,83.0,-128.0
103.0,121.0,138.0,131.0,126.0,127.0,123.0,118.0,18.0,-118.0,-77.0,127.0,127.0,127.0,121.0,83.0,-128.0
103.0,121.0,140.0,132.0,127.0,127.0,123.0,117.0,18.0,-118.0,-77.0,127.0,127.0,127.0,121.0,83.0,-128.0
103.0,120.0,141.0,133.0,127.0,127.0,123.0,116.0,18.0,-118.0,-77.0,127.0,127.0,127.0,121.0,83.0,-128.0
103.0,120.0,141.0,133.0,128.0,128.0,123.0,114.0,18.0,-118.0,-77.0,127.0,127.0,127.0,121.0,83.0,-128.0
104.0,120.0,142.0,134.0,128.0,128.0,123.0,112.0,18.0,-118.0,-77.0,127.0,127.0,127.0,121.0,83.0,-128.0
124.0,113.0,160.0,130.0,126.0,131.0,123.0,131.0,19.0,-118.0,-77.0,127.0,127.0,127.0,121.0,83.0,-128.0
124.0,113.0,161.0,130.0,126.0,132.0,124.0,132.0,19.0,-118.0,-77.0,127.0,127.0,127.0,121.0,83.0,-128.0
124.0,112.0,162.0,130.0,127.0,132.0,125.0,135.0,19.0,-118.0,-77.0,127.0,127.0,127.0,121.0,83.0,-128.0
124.0,111.0,163.0,130.0,127.0,132.0,127.0,137.0,19.0,-118.0,-77.0,127.0,127.0,127.0,121.0,83.0,-128.0
124.0,111.0,164.0,130.0,128.0,131.0,127.0,138.0,19.0,-118.0,-77.0,127.0,127.0,127.0,121.0,83.0,-128.0
124.0,110.0,165.0,130.0,128.0,132.0,128.0,138.0,19.0,-118.0,-77.0,127.0,127.0,127.0,121.0,83.0,-128.0
124.0,110.0,166.0,131.0,129.0,132.0,128.0,138.0,19.0,-118.0,-77.0,127.0,127.0,127.0,121.0,83.0,-128.0
123.0,110.0,168.0,132.0,130.0,132.0,128.0,137.0,19.0,-118.0,-77.0,127.0,127.0,127.0,121.0,83.0,-128.0
123.0,110.0,169.0,133.0,131.0,133.0,127.0,135.0,19.0,-118.0,-77.0,127.0,127.0,127.0,121.0,83.0,-128.0
123.0,110.0,171.0,134.0,132.0,133.0,127.0,133.0,19.0,-118.0,-77.0,127.0,127.0,127.0,121.0,83.0,-128.0
116.0,101.0,114.0,141.0,141.0,134.0,119.0,129.0,19.0,-118.0,-76.0,127.0,127.0,127.0,121.0,83.0,-128.0
115.0,101.0,112.0,139.0,142.0,136.0,117.0,129.0,19.0,-118.0,-76.0,127.0,127.0,127.0,121.0,83.0,-128.0
115.0,101.0,109.0,137.0,143.0,138.0,118.0,128.0,19.0,-118.0,-76.0,127.0,127.0,127.0,121.0,83.0,-128.0
115.0,101.0,107.0,135.0,144.0,140.0,121.0,128.0,19.0,-118.0,-76.0,127.0,127.0,127.0,121.0,83.0,-128.0
114.0,101.0,105.0,133.0,145.0,142.0,124.0,128.0,19.0,-118.0,-76.0,127.0,127.0,127.0,121.0,83.0,-128.0
114.0,102.0,103.0,131.0,145.0,143.0,125.0,128.0,19.0,-118.0,-76.0,127.0,127.0,127.0,121.0,83.0,-128.0
114.0,102.0,101.0,129.0,145.0,145.0,125.0,129.0,19.0,-118.0,-76.0,127.0,127.0,127.0,121.0,83.0,-128.0
113.0,103.0,99.0,127.0,145.0,147.0,127.0,129.0,19.0,-118.0,-76.0,127.0,127.0,127.0,121.0,83.0,-128.0
113.0,103.0,97.0,126.0,144.0,147.0,127.0,130.0,19.0,-118.0,-76.0,127.0,127.0,127.0,121.0,83.0,-128.0
117.0,100.0,116.0,143.0,139.0,132.0,115.0,130.0,19.0,-118.0,-76.0,127.0,127.0,127.0,121.0,83.0,-128.0
122.0,130.0,0.0,126.0,122.0,19.0,133.0,169.0,23.0,-121.0,-76.0,-128.0,127.0,127.0,121.0,83.0,-128.0
122.0,129.0,0.0,128.0,122.0,8.0,135.0,172.0,23.0,-121.0,-76.0,-128.0,127.0,127.0,121.0,83.0,-128.0
123.0,129.0,0.0,130.0,123.0,0.0,134.0,174.0,23.0,-121.0,-76.0,-128.0,127.0,127.0,121.0,83.0,-128.0
123.0,128.0,0.0,133.0,123.0,0.0,135.0,175.0,23.0,-121.0,-76.0,-128.0,127.0,127.0,121.0,83.0,-128.0
123.0,127.0,0.0,135.0,124.0,0.0,138.0,176.0,23.0,-121.0,-76.0,-128.0,127.0,127.0,121.0,83.0,-128.0
123.0,127.0,0.0,138.0,125.0,0.0,140.0,177.0,23.0,-121.0,-76.0,-128.0,127.0,127.0,121.0,83.0,-128.0
123.0,126.0,0.0,141.0,126.0,0.0,139.0,177.0,23.0,-121.0,-76.0,-128.0,127.0,127.0,121.0,83.0,-128.0
123.0,126.0,0.0,143.0,126.0,0.0,145.0,177.0,23.0,-121.0,-76.0,-128.0,127.0,127.0,121.0,83.0,-128.0
121.0,129.0,0.0,125.0,122.0,36.0,132.0,161.0,23.0,-121.0,-76.0,-128.0,127.0,127.0,121.0,83.0,-128.0
121.0,130.0,0.0,125.0,122.0,28.0,133.0,166.0,23.0,-121.0,-76.0,-128.0,127.0,127.0,121.0,83.0,-128.0
97.0,95.0,0.0,118.0,99.0,0.0,191.0,155.0,27.0,-127.0,-76.0,-127.0,-128.0,127.0,122.0,83.0,-128.0
97.0,97.0,0.0,120.0,100.0,0.0,189.0,153.0,27.0,-127.0,-76.0,-127.0,-128.0,127.0,122.0,83.0,-128.0
97.0,99.0,0.0,121.0,101.0,0.0,187.0,152.0,27.0,-127.0,-76.0,-127.0,-128.0,127.0,122.0,83.0,-128.0
97.0,101.0,0.0,124.0,103.0,0.0,186.0,150.0,27.0,-127.0,-76.0,-127.0,-128.0,127.0,122.0,83.0,-128.0
98.0,103.0,0.0,126.0,104.0,0.0,183.0,149.0,27.0,-127.0,-76.0,-127.0,-128.0,127.0,122.0,83.0,-128.0
98.0,105.0,0.0,129.0,105.0,0.0,181.0,147.0,27.0,-127.0,-76.0,-127.0,-128.0,127.0,122.0,83.0,-128.0
99.0,107.0,0.0,131.0,107.0,0.0,179.0,145.0,27.0,-127.0,-76.0,-127.0,-128.0,127.0,122.0,83.0,-128.0
97.0,89.0,0.0,117.0,97.0,0.0,195.0,159.0,27.0,-127.0,-76.0,-127.0,-128.0,127.0,122.0,83.0,-128.0
97.0,90.0,0.0,117.0,97.0,0.0,194.0,158.0,27.0,-127.0,-76.0,-127.0,-128.0,127.0,122.0,83.0,-128.0
97.0,92.0,0.0,117.0,98.0,0.0,192.0,156.0,27.0,-127.0,-76.0,-127.0,-128.0,127.0,122.0,83.0,-128.0
95.0,159.0,0.0,131.0,118.0,0.0,62.0,79.0,28.0,-127.0,-75.0,-126.0,-128.0,127.0,122.0,83.0,-128.0
94.0,159.0,0.0,133.0,120.0,0.0,60.0,80.0,28.0,-127.0,-75.0,-126.0,-128.0,127.0,122.0,83.0,-128.0
94.0,158.0,0.0,136.0,122.0,0.0,59.0,81.0,28.0,-127.0,-75.0,-126.0,-128.0,127.0,122.0,83.0,-128.0
94.0,157.0,0.0,139.0,124.0,0.0,58.0,82.0,28.0,-127.0,-75.0,-126.0,-128.0,127.0,122.0,83.0,-128.0
94.0,156.0,0.0,141.0,127.0,0.0,57.0,84.0,28.0,-127.0,-75.0,-126.0,-128.0,127.0,122.0,83.0,-128.0
93.0,155.0,0.0,143.0,129.0,0.0,56.0,86.0,28.0,-127.0,-75.0,-126.0,-128.0,127.0,122.0,83.0,-128.0
96.0,162.0,0.0,130.0,113.0,0.0,71.0,80.0,28.0,-127.0,-75.0,-126.0,-128.0,127.0,122.0,83.0,-128.0
96.0,161.0,0.0,130.0,114.0,0.0,69.0,79.0,28.0,-127.0,-75.0,-126.0,-128.0,127.0,122.0,83.0,-128.0
95.0,161.0,0.0,129.0,115.0,0.0,67.0,79.0,28.0,-127.0,-75.0,-126.0,-128.0,127.0,122.0,83.0,-128.0
95.0,160.0,0.0,130.0,116.0,0.0,64.0,79.0,28.0,-127.0,-75.0,-126.0,-128.0,127.0,122.0,83.0,-128.0
102.0,104.0,0.0,103.0,144.0,78.0,72.0,111.0,28.0,-111.0,-76.0,-127.0,-128.0,-128.0,122.0,83.0,-128.0
103.0,103.0,0.0,103.0,143.0,77.0,72.0,111.0,28.0,-111.0,-76.0,-127.0,-128.0,-128.0,122.0,83.0,-128.0
104.0,102.0,0.0,104.0,143.0,76.0,73.0,112.0,28.0,-111.0,-76.0,-127.0,-128.0,-128.0,122.0,83.0,-128.0
104.0,102.0,0.0,104.0,142.0,74.0,73.0,112.0,28.0,-111.0,-76.0,-127.0,-128.0,-128.0,122.0,83.0,-128.0
105.0,101.0,0.0,105.0,142.0,72.0,73.0,113.0,28.0,-111.0,-76.0,-127.0,-128.0,-128.0,122.0,83.0,-128.0
99.0,107.0,0.0,100.0,148.0,76.0,71.0,111.0,28.0,-111.0,-76.0,-127.0,-128.0,-128.0,122.0,83.0,-128.0
100.0,106.0,0.0,100.0,147.0,77.0,71.0,111.0,28.0,-111.0,-76.0,-127.0,-128.0,-128.0,122.0,83.0,-128.0
100.0,105.0,0.0,100.0,146.0,78.0,72.0,111.0,28.0,-111.0,-76.0,-127.0,-128.0,-128.0,122.0,83.0,-128.0
101.0,105.0,0.0,102.0,145.0,78.0,72.0,111.0,28.0,-111.0,-76.0,-127.0,-128.0,-128.0,122.0,83.0,-128.0
101.0,104.0,0.0,103.0,144.0,78.0,72.0,111.0,28.0,-111.0,-76.0,-127.0,-128.0,-128.0,122.0,83.0,-128.0
132.0,121.0,0.0,122.0,146.0,0.0,96.0,130.0,24.0,-101.0,-81.0,126.0,-128.0,-128.0,121.0,84.0,-128.0
132.0,122.0,0.0,119.0,144.0,0.0,96.0,130.0,24.0,-101.0,-81.0,126.0,-128.0,-128.0,121.0,84.0,-128.0
132.0,122.0,0.0,117.0,143.0,0.0,97.0,130.0,24.0,-101.0,-81.0,126.0,-128.0,-128.0,121.0,84.0,-128.0
132.0,122.0,0.0,115.0,141.0,0.0,98.0,130.0,24.0,-101.0,-81.0,126.0,-128.0,-128.0,121.0,84.0,-128.0
132.0,117.0,0.0,129.0,155.0,0.0,93.0,129.0,24.0,-101.0,-81.0,126.0,-128.0,-128.0,121.0,84.0,-128.0
132.0,118.0,0.0,130.0,154.0,0.0,94.0,130.0,24.0,-101.0,-81.0,126.0,-128.0,-128.0,121.0,84.0,-128.0
132.0,119.0,0.0,129.0,153.0,0.0,94.0,130.0,24.0,-101.0,-81.0,126.0,-128.0,-128.0,121.0,84.0,-128.0
132.0,119.0,0.0,128.0,151.0,0.0,95.0,130.0,24.0,-101.0,-81.0,126.0,-128.0,-128.0,121.0,84.0,-128.0
132.0,120.0,0.0,126.0,149.0,0.0,95.0,130.0,24.0,-101.0,-81.0,126.0,-128.0,-128.0,121.0,84.0,-128.0
132.0,121.0,0.0,124.0,148.0,0.0,95.0,130.0,24.0,-101.0,-81.0,126.0,-128.0,-128.0,121.0,84.0,-128.0
110.0,122.0,254.0,102.0,132.0,143.0,131.0,142.0,19.0,-100.0,-84.0,126.0,-128.0,-128.0,120.0,84.0,-128.0
109.0,122.0,254.0,101.0,131.0,148.0,131.0,141.0,19.0,-100.0,-84.0,126.0,-128.0,-128.0,120.0,84.0,-128.0
109.0,122.0,254.0,99.0,130.0,153.0,131.0,140.0,19.0,-100.0,-84.0,126.0,-128.0,-128.0,120.0,84.0,-128.0
114.0,120.0,254.0,118.0,139.0,106.0,133.0,141.0,19.0,-100.0,-84.0,126.0,-128.0,-128.0,120.0,84.0,-128.0
114.0,120.0,254.0,115.0,137.0,111.0,133.0,140.0,19.0,-100.0,-84.0,126.0,-128.0,-128.0,120.0,84.0,-128.0
113.0,120.0,254.0,113.0,136.0,116.0,132.0,139.0,19.0,-100.0,-84.0,126.0,-128.0,-128.0,120.0,84.0,-128.0
112.0,121.0,254.0,110.0,135.0,121.0,132.0,139.0,19.0,-100.0,-84.0,126.0,-128.0,-128.0,120.0,84.0,-128.0
111.0,121.0,254.0,107.0,134.0,126.0,132.0,140.0,19.0,-100.0,-84.0,126.0,-128.0,-128.0,120.0,84.0,-128.0
111.0,121.0,254.0,104.0,134.0,132.0,132.0,141.0,19.0,-100.0,-84.0,126.0,-128.0,-128.0,120.0,84.0,-128.0
110.0,122.0,254.0,103.0,133.0,138.0,132.0,142.0,19.0,-100.0,-84.0,126.0,-128.0,-128.0,120.0,84.0,-128.0
111.0,127.0,254.0,114.0,125.0,156.0,127.0,118.0,16.0,-107.0,-85.0,127.0,-128.0,-128.0,120.0,84.0,-128.0
112.0,127.0,254.0,113.0,125.0,155.0,126.0,120.0,16.0,-107.0,-85.0,127.0,-128.0,-128.0,120.0,84.0,-128.0
107.0,129.0,254.0,121.0,130.0,166.0,132.0,110.0,16.0,-107.0,-85.0,127.0,-128.0,-128.0,120.0,84.0,-128.0
108.0,129.0,254.0,120.0,129.0,165.0,131.0,109.0,16.0,-107.0,-85.0,127.0,-128.0,-128.0,120.0,84.0,-128.0
109.0,130.0,254.0,120.0,129.0,163.0,131.0,109.0,16.0,-107.0,-85.0,127.0,-128.0,-128.0,120.0,84.0,-128.0
109.0,130.0,254.0,119.0,129.0,162.0,130.0,110.0,16.0,-107.0,-85.0,127.0,-128.0,-128.0,120.0,84.0,-128.0
110.0,129.0,254.0,118.0,129.0,161.0,130.0,111.0,16.0,-107.0,-85.0,127.0,-128.0,-128.0,120.0,84.0,-128.0
110.0,129.0,254.0,117.0,128.0,159.0,128.0,113.0,16.0,-107.0,-85.0,127.0,-128.0,-128.0,120.0,84.0,-128.0
110.0,129.0,254.0,116.0,127.0,158.0,128.0,115.0,16.0,-107.0,-85.0,127.0,-128.0,-128.0,120.0,84.0,-128.0
111.0,128.0,254.0,115.0,126.0,157.0,127.0,116.0,16.0,-107.0,-85.0,127.0,-128.0,-128.0,120.0,84.0,-128.0
133.0,126.0,254.0,123.0,112.0,168.0,101.0,128.0,11.0,-110.0,-87.0,-128.0,127.0,-128.0,120.0,84.0,-127.0
133.0,125.0,254.0,123.0,111.0,168.0,101.0,129.0,11.0,-110.0,-87.0,-128.0,127.0,-128.0,120.0,84.0,-127.0
134.0,125.0,254.0,123.0,111.0,168.0,100.0,130.0,11.0,-110.0,-87.0,-128.0,127.0,-128.0,120.0,84.0,-127.0
134.0,124.0,254.0,123.0,112.0,167.0,99.0,131.0,11.0,-110.0,-87.0,-128.0,127.0,-128.0,120.0,84.0,-127.0
135.0,124.0,254.0,124.0,112.0,167.0,99.0,132.0,11.0,-110.0,-87.0,-128.0,127.0,-128.0,120.0,84.0,-127.0
135.0,124.0,254.0,125.0,112.0,167.0,98.0,132.0,11.0,-110.0,-87.0,-128.0,127.0,-128.0,120.0,84.0,-127.0
136.0,124.0,254.0,126.0,113.0,166.0,98.0,132.0,11.0,-110.0,-87.0,-128.0,127.0,-128.0,120.0,84.0,-127.0
137.0,123.0,254.0,128.0,114.0,166.0,97.0,132.0,11.0,-110.0,-87.0,-128.0,127.0,-128.0,120.0,84.0,-127.0
138.0,123.0,254.0,130.0,115.0,165.0,97.0,132.0,11.0,-110.0,-87.0,-128.0,127.0,-128.0,120.0,84.0,-127.0
138.0,123.0,254.0,131.0,116.0,164.0,97.0,132.0,11.0,-110.0,-87.0,-128.0,127.0,-128.0,120.0,84.0,-127.0
139.0,113.0,245.0,137.0,129.0,117.0,105.0,127.0,8.0,-109.0,-87.0,126.0,127.0,-128.0,119.0,84.0,-127.0
139.0,113.0,243.0,136.0,129.0,116.0,106.0,126.0,8.0,-109.0,-87.0,126.0,127.0,-128.0,119.0,84.0,-127.0
139.0,113.0,241.0,135.0,129.0,116.0,106.0,126.0,8.0,-109.0,-87.0,126.0,127.0,-128.0,119.0,84.0,-127.0
139.0,113.0,240.0,133.0,129.0,115.0,107.0,125.0,8.0,-109.0,-87.0,126.0,127.0,-128.0,119.0,84.0,-127.0
138.0,113.0,238.0,132.0,128.0,114.0,107.0,124.0,8.0,-109.0,-87.0,126.0,127.0,-128.0,119.0,84.0,-127.0
138.0,113.0,236.0,129.0,128.0,113.0,107.0,123.0,8.0,-109.0,-87.0,126.0,127.0,-128.0,119.0,84.0,-127.0
138.0,113.0,234.0,127.0,128.0,113.0,107.0,123.0,8.0,-109.0,-87.0,126.0,127.0,-128.0,119.0,84.0,-127.0
138.0,112.0,232.0,126.0,127.0,112.0,108.0,123.0,8.0,-109.0,-87.0,126.0,127.0,-128.0,119.0,84.0,-127.0
137.0,112.0,230.0,124.0,127.0,111.0,109.0,122.0,8.0,-109.0,-87.0,126.0,127.0,-128.0,119.0,84.0,-127.0
139.0,112.0,246.0,138.0,130.0,118.0,105.0,127.0,8.0,-109.0,-87.0,126.0,127.0,-128.0,119.0,84.0,-127.0
132.0,116.0,154.0,119.0,120.0,92.0,135.0,134.0,7.0,-107.0,-87.0,125.0,127.0,-128.0,118.0,84.0,-127.0
132.0,116.0,153.0,119.0,119.0,92.0,135.0,135.0,7.0,-107.0,-87.0,125.0,127.0,-128.0,118.0,84.0,-127.0
132.0,116.0,152.0,120.0,117.0,92.0,135.0,135.0,7.0,-107.0,-87.0,125.0,127.0,-128.0,118.0,84.0,-127.0
132.0,116.0,151.0,121.0,116.0,92.0,135.0,135.0,7.0,-107.0,-87.0,125.0,127.0,-128.0,118.0,84.0,-127.0
131.0,115.0,150.0,122.0,115.0,92.0,135.0,135.0,7.0,-107.0,-87.0,125.0,127.0,-128.0,118.0,84.0,-127.0
131.0,115.0,150.0,122.0,113.0,92.0,135.0,135.0,7.0,-107.0,-87.0,125.0,127.0,-128.0,118.0,84.0,-127.0
131.0,115.0,149.0,122.0,112.0,92.0,135.0,135.0,7.0,-107.0,-87.0,125.0,127.0,-128.0,118.0,84.0,-127.0
131.0,115.0,148.0,121.0,111.0,92.0,135.0,134.0,7.0,-107.0,-87.0,125.0,127.0,-128.0,118.0,84.0,-127.0
132.0,116.0,156.0,120.0,123.0,93.0,135.0,131.0,7.0,-107.0,-87.0,125.0,127.0,-128.0,118.0,84.0,-127.0
132.0,116.0,155.0,119.0,122.0,92.0,135.0,132.0,7.0,-107.0,-87.0,125.0,127.0,-128.0,118.0,84.0,-127.0
125.0,120.0,160.0,137.0,121.0,82.0,135.0,131.0,6.0,-109.0,-86.0,126.0,127.0,-128.0,118.0,84.0,-127.0
125.0,120.0,160.0,136.0,121.0,82.0,135.0,130.0,6.0,-109.0,-86.0,126.0,127.0,-128.0,118.0,84.0,-127.0
125.0,120.0,160.0,135.0,120.0,81.0,134.0,129.0,6.0,-109.0,-86.0,126.0,127.0,-128.0,118.0,84.0,-127.0
125.0,120.0,160.0,134.0,119.0,81.0,134.0,129.0,6.0,-109.0,-86.0,126.0,127.0,-128.0,118.0,84.0,-127.0
124.0,120.0,160.0,134.0,118.0,81.0,134.0,128.0,6.0,-109.0,-86.0,126.0,127.0,-128.0,118.0,84.0,-127.0
124.0,120.0,161.0,134.0,118.0,80.0,134.0,127.0,6.0,-109.0,-86.0,126.0,127.0,-128.0,118.0,84.0,-127.0
124.0,120.0,161.0,133.0,117.0,80.0,134.0,126.0,6.0,-109.0,-86.0,126.0,127.0,-128.0,118.0,84.0,-127.0
125.0,120.0,159.0,139.0,122.0,83.0,138.0,132.0,6.0,-109.0,-86.0,126.0,127.0,-128.0,118.0,84.0,-127.0
125.0,120.0,159.0,139.0,122.0,83.0,137.0,132.0,6.0,-109.0,-86.0,126.0,127.0,-128.0,118.0,84.0,-127.0
125.0,120.0,160.0,138.0,122.0,82.0,136.0,131.0,6.0,-109.0,-86.0,126.0,127.0,-128.0,118.0,84.0,-127.0
133.0,121.0,165.0,134.0,122.0,75.0,136.0,133.0,5.0,-112.0,-86.0,127.0,127.0,127.0,118.0,84.0,-127.0
133.0,121.0,163.0,135.0,122.0,75.0,136.0,132.0,5.0,-112.0,-86.0,127.0,127.0,127.0,118.0,84.0,-127.0
134.0,120.0,161.0,135.0,122.0,76.0,135.0,131.0,5.0,-112.0,-86.0,127.0,127.0,127.0,118.0,84.0,-127.0
134.0,120.0,159.0,135.0,122.0,76.0,135.0,130.0,5.0,-112.0,-86.0,127.0,127.0,127.0,118.0,84.0,-127.0
134.0,120.0,158.0,135.0,122.0,76.0,134.0,129.0,5.0,-112.0,-86.0,127.0,127.0,127.0,118.0,84.0,-127.0
134.0,120.0,156.0,134.0,122.0,77.0,134.0,129.0,5.0,-112.0,-86.0,127.0,127.0,127.0,118.0,84.0,-127.0
132.0,121.0,171.0,133.0,120.0,74.0,136.0,134.0,5.0,-112.0,-86.0,127.0,127.0,127.0,118.0,84.0,-127.0
132.0,121.0,170.0,133.0,120.0,74.0,136.0,135.0,5.0,-112.0,-86.0,127.0,127.0,127.0,118.0,84.0,-127.0
132.0,121.0,168.0,133.0,121.0,74.0,137.0,134.0,5.0,-112.0,-86.0,127.0,127.0,127.0,118.0,84.0,-127.0
133.0,121.0,167.0,133.0,121.0,74.0,136.0,134.0,5.0,-112.0,-86.0,127.0,127.0,127.0,118.0,84.0,-127.0
134.0,124.0,102.0,118.0,115.0,91.0,134.0,125.0,4.0,-112.0,-86.0,127.0,127.0,127.0,118.0,84.0,-127.0
135.0,124.0,102.0,119.0,116.0,91.0,134.0,128.0,4.0,-112.0,-86.0,127.0,127.0,127.0,118.0,84.0,-127.0
135.0,123.0,102.0,121.0,117.0,91.0,134.0,132.0,4.0,-112.0,-86.0,127.0,127.0,127.0,118.0,84.0,-127.0
135.0,123.0,102.0,122.0,117.0,92.0,134.0,134.0,4.0,-112.0,-86.0,127.0,127.0,127.0,118.0,84.0,-127.0
136.0,123.0,102.0,123.0,118.0,92.0,134.0,136.0,4.0,-112.0,-86.0,127.0,127.0,127.0,118.0,84.0,-127.0
133.0,124.0,103.0,116.0,113.0,90.0,135.0,121.0,4.0,-112.0,-86.0,127.0,127.0,127.0,118.0,84.0,-127.0
133.0,124.0,103.0,115.0,113.0,90.0,135.0,121.0,4.0,-112.0,-86.0,127.0,127.0,127.0,118.0,84.0,-127.0
133.0,124.0,103.0,115.0,114.0,90.0,134.0,122.0,4.0,-112.0,-86.0,127.0,127.0,127.0,118.0,84.0,-127.0
134.0,124.0,103.0,115.0,114.0,91.0,134.0,122.0,4.0,-112.0,-86.0,127.0,127.0,127.0,118.0,84.0,-127.0
134.0,124.0,102.0,116.0,115.0,91.0,134.0,123.0,4.0,-112.0,-86.0,127.0,127.0,127.0,118.0,84.0,-127.0
130.0,126.0,105.0,121.0,120.0,104.0,139.0,139.0,6.0,-114.0,-86.0,126.0,127.0,127.0,118.0,84.0,-127.0
130.0,126.0,105.0,120.0,120.0,105.0,138.0,138.0,6.0,-114.0,-86.0,126.0,127.0,127.0,118.0,84.0,-127.0
130.0,126.0,105.0,119.0,120.0,105.0,138.0,137.0,6.0,-114.0,-86.0,126.0,127.0,127.0,118.0,84.0,-127.0
130.0,125.0,106.0,118.0,120.0,105.0,138.0,138.0,6.0,-114.0,-86.0,126.0,127.0,127.0,118.0,84.0,-127.0
131.0,127.0,103.0,125.0,121.0,101.0,140.0,141.0,6.0,-114.0,-86.0,126.0,127.0,127.0,118.0,84.0,-127.0
131.0,127.0,104.0,125.0,121.0,102.0,140.0,141.0,6.0,-114.0,-86.0,126.0,127.0,127.0,118.0,84.0,-127.0
131.0,127.0,104.0,124.0,121.0,102.0,140.0,142.0,6.0,-114.0,-86.0,126.0,127.0,127.0,118.0,84.0,-127.0
131.0,127.0,104.0,124.0,121.0,103.0,140.0,142.0,6.0,-114.0,-86.0,126.0,127.0,127.0,118.0,84.0,-127.0
130.0,127.0,104.0,123.0,121.0,103.0,140.0,141.0,6.0,-114.0,-86.0,126.0,127.0,127.0,118.0,84.0,-127.0
130.0,126.0,104.0,122.0,120.0,104.0,139.0,140.0,6.0,-114.0,-86.0,126.0,127.0,127.0,118.0,84.0,-127.0
123.0,125.0,116.0,129.0,127.0,93.0,132.0,129.0,9.0,-116.0,-86.0,126.0,127.0,127.0,118.0,84.0,-127.0
123.0,125.0,117.0,128.0,126.0,94.0,132.0,130.0,9.0,-116.0,-86.0,126.0,127.0,127.0,118.0,84.0,-127.0
123.0,124.0,117.0,128.0,125.0,94.0,131.0,131.0,9.0,-116.0,-86.0,126.0,127.0,127.0,118.0,84.0,-127.0
122.0,125.0,116.0,141.0,134.0,93.0,135.0,128.0,9.0,-116.0,-86.0,126.0,127.0,127.0,118.0,84.0,-127.0
122.0,126.0,116.0,141.0,134.0,93.0,134.0,127.0,9.0,-116.0,-86.0,126.0,127.0,127.0,118.0,84.0,-127.0
122.0,126.0,116.0,140.0,133.0,93.0,134.0,127.0,9.0,-116.0,-86.0,126.0,127.0,127.0,118.0,84.0,-127.0
123.0,126.0,116.0,137.0,132.0,93.0,134.0,126.0,9.0,-116.0,-86.0,126.0,127.0,127.0,118.0,84.0,-127.0
123.0,126.0,116.0,135.0,130.0,93.0,133.0,127.0,9.0,-116.0,-86.0,126.0,127.0,127.0,118.0,84.0,-127.0
123.0,126.0,116.0,132.0,129.0,93.0,133.0,127.0,9.0,-116.0,-86.0,126.0,127.0,127.0,118.0,84.0,-127.0
123.0,125.0,117.0,130.0,128.0,93.0,133.0,128.0,9.0,-116.0,-86.0,126.0,127.0,127.0,118.0,84.0,-127.0
129.0,121.0,121.0,123.0,119.0,108.0,129.0,127.0,12.0,-116.0,-86.0,126.0,127.0,127.0,118.0,84.0,-127.0
129.0,121.0,122.0,122.0,118.0,108.0,129.0,127.0,12.0,-116.0,-86.0,126.0,127.0,127.0,118.0,84.0,-127.0
129.0,121.0,119.0,117.0,120.0,106.0,128.0,125.0,12.0,-116.0,-86.0,126.0,127.0,127.0,118.0,84.0,-127.0
129.0,122.0,119.0,118.0,119.0,106.0,128.0,124.0,12.0,-116.0,-86.0,126.0,127.0,127.0,118.0,84.0,-127.0
129.0,122.0,120.0,120.0,119.0,107.0,128.0,123.0,12.0,-116.0,-86.0,126.0,127.0,127.0,118.0,84.0,-127.0
129.0,122.0,120.0,121.0,119.0,107.0,128.0,123.0,12.0,-116.0,-86.0,126.0,127.0,127.0,118.0,84.0,-127.0
129.0,121.0,120.0,122.0,119.0,107.0,129.0,123.0,12.0,-116.0,-86.0,126.0,127.0,127.0,118.0,84.0,-127.0
129.0,121.0,120.0,123.0,119.0,107.0,129.0,124.0,12.0,-116.0,-86.0,126.0,127.0,127.0,118.0,84.0,-127.0
129.0,121.0,121.0,123.0,119.0,107.0,129.0,126.0,12.0,-116.0,-86.0,126.0,127.0,127.0,118.0,84.0,-127.0
129.0,121.0,121.0,123.0,119.0,107.0,129.0,126.0,12.0,-116.0,-86.0,126.0,127.0,127.0,118.0,84.0,-127.0
125.0,120.0,131.0,120.0,126.0,112.0,127.0,132.0,14.0,-116.0,-84.0,126.0,127.0,127.0,118.0,84.0,-127.0
128.0,121.0,130.0,133.0,134.0,110.0,131.0,135.0,14.0,-116.0,-84.0,126.0,127.0,127.0,118.0,84.0,-127.0
128.0,121.0,130.0,132.0,134.0,110.0,130.0,134.0,14.0,-116.0,-84.0,126.0,127.0,127.0,118.0,84.0,-127.0
127.0,121.0,130.0,131.0,134.0,111.0,130.0,134.0,14.0,-116.0,-84.0,126.0,127.0,127.0,118.0,84.0,-127.0
127.0,121.0,130.0,130.0,133.0,111.0,130.0,134.0,14.0,-116.0,-84.0,126.0,127.0,127.0,118.0,84.0,-127.0
127.0,121.0,130.0,129.0,132.0,111.0,130.0,134.0,14.0,-116.0,-84.0,126.0,127.0,127.0,118.0,84.0,-127.0
127.0,121.0,130.0,128.0,131.0,111.0,129.0,134.0,14.0,-116.0,-84.0,126.0,127.0,127.0,118.0,84.0,-127.0
126.0,121.0,130.0,127.0,130.0,112.0,129.0,134.0,14.0,-116.0,-84.0,126.0,127.0,127.0,118.0,84.0,-127.0
126.0,120.0,130.0,125.0,129.0,112.0,128.0,133.0,14.0,-116.0,-84.0,126.0,127.0,127.0,118.0,84.0,-127.0
126.0,120.0,131.0,123.0,127.0,112.0,127.0,133.0,14.0,-116.0,-84.0,126.0,127.0,127.0,118.0,84.0,-127.0
119.0,119.0,131.0,125.0,126.0,109.0,133.0,134.0,17.0,-116.0,-84.0,127.0,127.0,127.0,118.0,84.0,-127.0
119.0,119.0,131.0,126.0,126.0,109.0,133.0,134.0,17.0,-116.0,-84.0,127.0,127.0,127.0,118.0,84.0,-127.0
118.0,118.0,131.0,127.0,127.0,109.0,132.0,134.0,17.0,-116.0,-84.0,127.0,127.0,127.0,118.0,84.0,-127.0
118.0,118.0,131.0,128.0,127.0,109.0,132.0,134.0,17.0,-116.0,-84.0,127.0,127.0,127.0,118.0,84.0,-127.0
118.0,118.0,131.0,130.0,128.0,109.0,132.0,134.0,17.0,-116.0,-84.0,127.0,127.0,127.0,118.0,84.0,-127.0
118.0,118.0,131.0,131.0,128.0,109.0,132.0,134.0,17.0,-116.0,-84.0,127.0,127.0,127.0,118.0,84.0,-127.0
118.0,118.0,131.0,132.0,129.0,109.0,132.0,134.0,17.0,-116.0,-84.0,127.0,127.0,127.0,118.0,84.0,-127.0
118.0,118.0,131.0,133.0,129.0,109.0,132.0,134.0,17.0,-116.0,-84.0,127.0,127.0,127.0,118.0,84.0,-127.0
118.0,118.0,131.0,133.0,129.0,109.0,132.0,134.0,17.0,-116.0,-84.0,127.0,127.0,127.0,118.0,84.0,-127.0
118.0,118.0,132.0,132.0,130.0,109.0,131.0,134.0,17.0,-116.0,-84.0,127.0,127.0,127.0,118.0,84.0,-127.0
123.0,119.0,130.0,120.0,129.0,103.0,127.0,133.0,17.0,-116.0,-85.0,127.0,127.0,127.0,118.0,84.0,-127.0
123.0,119.0,130.0,121.0,129.0,103.0,127.0,132.0,17.0,-116.0,-85.0,127.0,127.0,127.0,118.0,84.0,-127.0
123.0,119.0,130.0,121.0,129.0,103.0,127.0,132.0,17.0,-116.0,-85.0,127.0,127.0,127.0,118.0,84.0,-127.0
124.0,119.0,130.0,122.0,129.0,102.0,127.0,133.0,17.0,-116.0,-85.0,127.0,127.0,127.0,118.0,84.0,-127.0
124.0,119.0,130.0,123.0,128.0,103.0,126.0,134.0,17.0,-116.0,-85.0,127.0,127.0,127.0,118.0,84.0,-127.0
124.0,119.0,130.0,124.0,128.0,103.0,126.0,135.0,17.0,-116.0,-85.0,127.0,127.0,127.0,118.0,84.0,-127.0
125.0,119.0,130.0,124.0,128.0,103.0,126.0,135.0,17.0,-116.0,-85.0,127.0,127.0,127.0,118.0,84.0,-127.0
125.0,118.0,130.0,125.0,127.0,103.0,125.0,136.0,17.0,-116.0,-85.0,127.0,127.0,127.0,118.0,84.0,-127.0
126.0,118.0,130.0,126.0,127.0,103.0,125.0,137.0,17.0,-116.0,-85.0,127.0,127.0,127.0,118.0,84.0,-127.0
122.0,119.0,130.0,119.0,129.0,103.0,127.0,134.0,17.0,-116.0,-85.0,127.0,127.0,127.0,118.0,84.0,-127.0
130.0,121.0,126.0,126.0,126.0,108.0,118.0,129.0,17.0,-115.0,-85.0,127.0,127.0,127.0,118.0,84.0,-127.0
130.0,121.0,126.0,125.0,125.0,108.0,117.0,129.0,17.0,-115.0,-85.0,127.0,127.0,127.0,118.0,84.0,-127.0
130.0,121.0,126.0,125.0,124.0,108.0,116.0,129.0,17.0,-115.0,-85.0,127.0,127.0,127.0,118.0,84.0,-127.0
130.0,121.0,126.0,125.0,124.0,109.0,116.0,129.0,17.0,-115.0,-85.0,127.0,127.0,127.0,118.0,84.0,-127.0
130.0,121.0,126.0,125.0,124.0,109.0,116.0,129.0,17.0,-115.0,-85.0,127.0,127.0,127.0,118.0,84.0,-127.0
130.0,120.0,126.0,125.0,124.0,110.0,116.0,129.0,17.0,-115.0,-85.0,127.0,127.0,127.0,118.0,84.0,-127.0
130.0,120.0,126.0,125.0,124.0,110.0,116.0,128.0,17.0,-115.0,-85.0,127.0,127.0,127.0,118.0,84.0,-127.0
130.0,120.0,126.0,125.0,124.0,110.0,114.0,128.0,17.0,-115.0,-85.0,127.0,127.0,127.0,118.0,84.0,-127.0
130.0,121.0,127.0,126.0,128.0,107.0,121.0,129.0,17.0,-115.0,-85.0,127.0,127.0,127.0,118.0,84.0,-127.0
130.0,121.0,127.0,126.0,127.0,108.0,120.0,129.0,17.0,-115.0,-85.0,127.0,127.0,127.0,118.0,84.0,-127.0
125.0,119.0,126.0,120.0,121.0,110.0,112.0,128.0,17.0,-114.0,-83.0,127.0,127.0,127.0,118.0,84.0,-127.0
125.0,118.0,126.0,119.0,121.0,110.0,111.0,128.0,17.0,-114.0,-83.0,127.0,127.0,127.0,118.0,84.0,-127.0
125.0,118.0,126.0,119.0,121.0,110.0,110.0,128.0,17.0,-114.0,-83.0,127.0,127.0,127.0,118.0,84.0,-127.0
125.0,118.0,126.0,119.0,121.0,110.0,109.0,128.0,17.0,-114.0,-83.0,127.0,127.0,127.0,118.0,84.0,-127.0
125.0,118.0,126.0,119.0,121.0,110.0,109.0,128.0,17.0,-114.0,-83.0,127.0,127.0,127.0,118.0,84.0,-127.0
125.0,118.0,126.0,120.0,121.0,110.0,108.0,128.0,17.0,-114.0,-83.0,127.0,127.0,127.0,118.0,84.0,-127.0
125.0,118.0,127.0,120.0,122.0,110.0,108.0,128.0,17.0,-114.0,-83.0,127.0,127.0,127.0,118.0,84.0,-127.0
125.0,119.0,126.0,122.0,121.0,110.0,111.0,129.0,17.0,-114.0,-83.0,127.0,127.0,127.0,118.0,84.0,-127.0
125.0,119.0,126.0,121.0,121.0,110.0,111.0,129.0,17.0,-114.0,-83.0,127.0,127.0,127.0,118.0,84.0,-127.0
125.0,119.0,126.0,121.0,121.0,110.0,111.0,129.0,17.0,-114.0,-83.0,127.0,127.0,127.0,118.0,84.0,-127.0
123.0,118.0,135.0,129.0,129.0,97.0,96.0,130.0,18.0,-114.0,-82.0,127.0,127.0,127.0,118.0,84.0,-127.0
122.0,118.0,135.0,129.0,129.0,97.0,97.0,130.0,18.0,-114.0,-82.0,127.0,127.0,127.0,118.0,84.0,-127.0
123.0,118.0,135.0,128.0,129.0,97.0,95.0,130.0,18.0,-114.0,-82.0,127.0,127.0,127.0,118.0,84.0,-127.0
123.0,118.0,135.0,128.0,129.0,97.0,95.0,130.0,18.0,-114.0,-82.0,127.0,127.0,127.0,118.0,84.0,-127.0
123.0,118.0,135.0,128.0,129.0,96.0,94.0,130.0,18.0,-114.0,-82.0,127.0,127.0,127.0,118.0,84.0,-127.0
123.0,118.0,136.0,127.0,129.0,96.0,93.0,130.0,18.0,-114.0,-82.0,127.0,127.0,127.0,118.0,84.0,-127.0
122.0,118.0,134.0,129.0,129.0,99.0,101.0,130.0,18.0,-114.0,-82.0,127.0,127.0,127.0,118.0,84.0,-127.0
122.0,118.0,134.0,129.0,129.0,99.0,101.0,130.0,18.0,-114.0,-82.0,127.0,127.0,127.0,118.0,84.0,-127.0
122.0,118.0,134.0,129.0,129.0,98.0,99.0,130.0,18.0,-114.0,-82.0,127.0,127.0,127.0,118.0,84.0,-127.0
123.0,118.0,134.0,129.0,129.0,98.0,97.0,130.0,18.0,-114.0,-82.0,127.0,127.0,127.0,118.0,84.0,-127.0
126.0,118.0,140.0,119.0,129.0,83.0,78.0,129.0,17.0,-114.0,-82.0,127.0,127.0,127.0,118.0,84.0,-127.0
126.0,118.0,140.0,120.0,129.0,83.0,79.0,129.0,17.0,-114.0,-82.0,127.0,127.0,127.0,118.0,84.0,-127.0
126.0,118.0,140.0,121.0,129.0,83.0,82.0,129.0,17.0,-114.0,-82.0,127.0,127.0,127.0,118.0,84.0,-127.0
126.0,118.0,140.0,123.0,129.0,83.0,84.0,129.0,17.0,-114.0,-82.0,127.0,127.0,127.0,118.0,84.0,-127.0
126.0,118.0,140.0,124.0,130.0,82.0,84.0,129.0,17.0,-114.0,-82.0,127.0,127.0,127.0,118.0,84.0,-127.0
126.0,118.0,140.0,118.0,130.0,84.0,83.0,130.0,17.0,-114.0,-82.0,127.0,127.0,127.0,118.0,84.0,-127.0
126.0,118.0,140.0,118.0,129.0,83.0,82.0,130.0,17.0,-114.0,-82.0,127.0,127.0,127.0,118.0,84.0,-127.0
126.0,118.0,140.0,118.0,129.0,83.0,81.0,130.0,17.0,-114.0,-82.0,127.0,127.0,127.0,118.0,84.0,-127.0
126.0,118.0,140.0,118.0,129.0,83.0,80.0,129.0,17.0,-114.0,-82.0,127.0,127.0,127.0,118.0,84.0,-127.0
126.0,118.0,140.0,118.0,129.0,83.0,79.0,129.0,17.0,-114.0,-82.0,127.0,127.0,127.0,118.0,84.0,-127.0
129.0,119.0,134.0,118.0,124.0,68.0,76.0,128.0,16.0,-113.0,-83.0,127.0,127.0,127.0,118.0,84.0,-127.0
129.0,119.0,134.0,119.0,125.0,68.0,76.0,129.0,16.0,-113.0,-83.0,127.0,127.0,127.0,118.0,84.0,-127.0
129.0,119.0,133.0,121.0,125.0,69.0,76.0,129.0,16.0,-113.0,-83.0,127.0,127.0,127.0,118.0,84.0,-127.0
130.0,120.0,133.0,123.0,126.0,69.0,77.0,129.0,16.0,-113.0,-83.0,127.0,127.0,127.0,118.0,84.0,-127.0
128.0,120.0,135.0,121.0,125.0,67.0,75.0,128.0,16.0,-113.0,-83.0,127.0,127.0,127.0,118.0,84.0,-127.0
128.0,119.0,135.0,121.0,125.0,67.0,75.0,128.0,16.0,-113.0,-83.0,127.0,127.0,127.0,118.0,84.0,-127.0
129.0,119.0,135.0,120.0,125.0,67.0,75.0,128.0,16.0,-113.0,-83.0,127.0,127.0,127.0,118.0,84.0,-127.0
129.0,119.0,134.0,118.0,124.0,67.0,74.0,128.0,16.0,-113.0,-83.0,127.0,127.0,127.0,118.0,84.0,-127.0
129.0,119.0,134.0,118.0,124.0,67.0,75.0,128.0,16.0,-113.0,-83.0,127.0,127.0,127.0,118.0,84.0,-127.0
128.0,119.0,134.0,117.0,124.0,67.0,74.0,128.0,16.0,-113.0,-83.0,127.0,127.0,127.0,118.0,84.0,-127.0
131.0,126.0,130.0,118.0,129.0,93.0,94.0,133.0,15.0,-112.0,-83.0,127.0,127.0,127.0,118.0,84.0,-127.0
131.0,126.0,130.0,116.0,129.0,93.0,93.0,133.0,15.0,-112.0,-83.0,127.0,127.0,127.0,118.0,84.0,-127.0
131.0,126.0,131.0,115.0,129.0,94.0,93.0,133.0,15.0,-112.0,-83.0,127.0,127.0,127.0,118.0,84.0,-127.0
132.0,126.0,127.0,128.0,130.0,89.0,87.0,132.0,15.0,-112.0,-83.0,127.0,127.0,127.0,118.0,84.0,-127.0
132.0,126.0,127.0,127.0,130.0,89.0,89.0,132.0,15.0,-112.0,-83.0,127.0,127.0,127.0,118.0,84.0,-127.0
132.0,126.0,127.0,126.0,130.0,90.0,93.0,132.0,15.0,-112.0,-83.0,127.0,127.0,127.0,118.0,84.0,-127.0
132.0,126.0,128.0,124.0,130.0,90.0,97.0,133.0,15.0,-112.0,-83.0,127.0,127.0,127.0,118.0,84.0,-127.0
132.0,126.0,128.0,122.0,130.0,91.0,96.0,133.0,15.0,-112.0,-83.0,127.0,127.0,127.0,118.0,84.0,-127.0
132.0,126.0,128.0,121.0,129.0,91.0,95.0,133.0,15.0,-112.0,-83.0,127.0,127.0,127.0,118.0,84.0,-127.0
131.0,126.0,129.0,119.0,129.0,92.0,94.0,133.0,15.0,-112.0,-83.0,127.0,127.0,127.0,118.0,84.0,-127.0
131.0,135.0,254.0,136.0,133.0,102.0,98.0,126.0,15.0,-111.0,-82.0,127.0,127.0,127.0,117.0,84.0,-127.0
132.0,134.0,254.0,135.0,132.0,101.0,97.0,126.0,15.0,-111.0,-82.0,127.0,127.0,127.0,117.0,84.0,-127.0
128.0,135.0,248.0,140.0,135.0,108.0,99.0,129.0,15.0,-111.0,-82.0,127.0,127.0,127.0,117.0,84.0,-127.0
129.0,135.0,251.0,140.0,135.0,107.0,99.0,128.0,15.0,-111.0,-82.0,127.0,127.0,127.0,117.0,84.0,-127.0
129.0,135.0,253.0,139.0,135.0,107.0,98.0,128.0,15.0,-111.0,-82.0,127.0,127.0,127.0,117.0,84.0,-127.0
129.0,135.0,254.0,138.0,135.0,106.0,97.0,128.0,15.0,-111.0,-82.0,127.0,127.0,127.0,117.0,84.0,-127.0
130.0,135.0,254.0,137.0,134.0,106.0,97.0,127.0,15.0,-111.0,-82.0,127.0,127.0,127.0,117.0,84.0,-127.0
130.0,135.0,254.0,137.0,134.0,105.0,96.0,127.0,15.0,-111.0,-82.0,127.0,127.0,127.0,117.0,84.0,-127.0
131.0,135.0,254.0,136.0,134.0,104.0,95.0,127.0,15.0,-111.0,-82.0,127.0,127.0,127.0,117.0,84.0,-127.0
131.0,135.0,254.0,136.0,133.0,103.0,94.0,126.0,15.0,-111.0,-82.0,127.0,127.0,127.0,117.0,84.0,-127.0
137.0,116.0,107.0,130.0,131.0,29.0,55.0,116.0,15.0,-109.0,-82.0,126.0,126.0,127.0,116.0,84.0,-127.0
141.0,118.0,140.0,138.0,130.0,38.0,59.0,114.0,15.0,-109.0,-82.0,126.0,126.0,127.0,116.0,84.0,-127.0
140.0,118.0,136.0,137.0,130.0,37.0,57.0,115.0,15.0,-109.0,-82.0,126.0,126.0,127.0,116.0,84.0,-127.0
140.0,118.0,132.0,136.0,131.0,36.0,56.0,115.0,15.0,-109.0,-82.0,126.0,126.0,127.0,116.0,84.0,-127.0
140.0,118.0,128.0,135.0,131.0,34.0,54.0,115.0,15.0,-109.0,-82.0,126.0,126.0,127.0,116.0,84.0,-127.0
139.0,118.0,124.0,134.0,131.0,33.0,54.0,115.0,15.0,-109.0,-82.0,126.0,126.0,127.0,116.0,84.0,-127.0
139.0,117.0,120.0,133.0,131.0,32.0,53.0,115.0,15.0,-109.0,-82.0,126.0,126.0,127.0,116.0,84.0,-127.0
138.0,117.0,116.0,132.0,131.0,32.0,52.0,115.0,15.0,-109.0,-82.0,126.0,126.0,127.0,116.0,84.0,-127.0
138.0,117.0,113.0,131.0,131.0,31.0,55.0,115.0,15.0,-109.0,-82.0,126.0,126.0,127.0,116.0,84.0,-127.0
137.0,117.0,110.0,130.0,131.0,30.0,55.0,116.0,15.0,-109.0,-82.0,126.0,126.0,127.0,116.0,84.0,-127.0
128.0,121.0,85.0,131.0,127.0,41.0,64.0,132.0,16.0,-107.0,-80.0,126.0,126.0,127.0,116.0,84.0,-127.0
128.0,121.0,85.0,131.0,127.0,42.0,62.0,132.0,16.0,-107.0,-80.0,126.0,126.0,127.0,116.0,84.0,-127.0
128.0,122.0,84.0,131.0,127.0,42.0,58.0,132.0,16.0,-107.0,-80.0,126.0,126.0,127.0,116.0,84.0,-127.0
128.0,122.0,84.0,130.0,127.0,42.0,62.0,133.0,16.0,-107.0,-80.0,126.0,126.0,127.0,116.0,84.0,-127.0
128.0,122.0,83.0,130.0,126.0,43.0,63.0,133.0,16.0,-107.0,-80.0,126.0,126.0,127.0,116.0,84.0,-127.0
128.0,122.0,83.0,130.0,126.0,43.0,61.0,133.0,16.0,-107.0,-80.0,126.0,126.0,127.0,116.0,84.0,-127.0
128.0,122.0,82.0,129.0,125.0,44.0,62.0,133.0,16.0,-107.0,-80.0,126.0,126.0,127.0,116.0,84.0,-127.0
127.0,122.0,82.0,129.0,125.0,44.0,67.0,134.0,16.0,-107.0,-80.0,126.0,126.0,127.0,116.0,84.0,-127.0
127.0,122.0,82.0,129.0,124.0,45.0,65.0,134.0,16.0,-107.0,-80.0,126.0,126.0,127.0,116.0,84.0,-127.0
127.0,122.0,82.0,128.0,124.0,45.0,63.0,134.0,16.0,-107.0,-80.0,126.0,126.0,127.0,116.0,84.0,-127.0
112.0,128.0,153.0,129.0,123.0,58.0,66.0,128.0,16.0,-111.0,-80.0,127.0,126.0,127.0,116.0,84.0,-127.0
112.0,128.0,155.0,129.0,123.0,58.0,66.0,127.0,16.0,-111.0,-80.0,127.0,126.0,127.0,116.0,84.0,-127.0
112.0,128.0,156.0,129.0,123.0,58.0,66.0,127.0,16.0,-111.0,-80.0,127.0,126.0,127.0,116.0,84.0,-127.0
112.0,128.0,157.0,129.0,123.0,59.0,66.0,127.0,16.0,-111.0,-80.0,127.0,126.0,127.0,116.0,84.0,-127.0
112.0,128.0,158.0,128.0,123.0,59.0,66.0,126.0,16.0,-111.0,-80.0,127.0,126.0,127.0,116.0,84.0,-127.0
112.0,128.0,158.0,128.0,123.0,59.0,66.0,126.0,16.0,-111.0,-80.0,127.0,126.0,127.0,116.0,84.0,-127.0
112.0,129.0,158.0,128.0,122.0,59.0,66.0,125.0,16.0,-111.0,-80.0,127.0,126.0,127.0,116.0,84.0,-127.0
113.0,129.0,159.0,128.0,122.0,59.0,66.0,125.0,16.0,-111.0,-80.0,127.0,126.0,127.0,116.0,84.0,-127.0
