emg1,emg2,emg3,emg4,emg5,emg6,emg7,emg8,acc_x,acc_y,acc_z,gyro_x,gyro_y,gyro_z,angle_pitch,angle_roll,angle_yaw
127.0,126.0,126.0,127.0,127.0,149.0,127.0,128.0,20.0,-106.0,-78.0,127.0,127.0,127.0,112.0,85.0,-89.0
127.0,126.0,126.0,127.0,127.0,148.0,127.0,128.0,20.0,-106.0,-78.0,127.0,127.0,127.0,112.0,85.0,-89.0
127.0,125.0,126.0,127.0,127.0,148.0,127.0,128.0,20.0,-106.0,-78.0,127.0,127.0,127.0,112.0,85.0,-89.0
127.0,125.0,126.0,127.0,127.0,148.0,127.0,128.0,20.0,-106.0,-78.0,127.0,127.0,127.0,112.0,85.0,-89.0
127.0,125.0,126.0,127.0,127.0,148.0,127.0,128.0,20.0,-106.0,-78.0,127.0,127.0,127.0,112.0,85.0,-89.0
127.0,126.0,126.0,127.0,127.0,149.0,127.0,128.0,20.0,-106.0,-78.0,127.0,127.0,127.0,112.0,85.0,-89.0
127.0,126.0,126.0,127.0,127.0,149.0,127.0,128.0,20.0,-106.0,-78.0,127.0,127.0,127.0,112.0,85.0,-89.0
127.0,126.0,126.0,127.0,127.0,149.0,127.0,128.0,20.0,-106.0,-78.0,127.0,127.0,127.0,112.0,85.0,-89.0
127.0,126.0,126.0,127.0,127.0,150.0,127.0,128.0,20.0,-106.0,-78.0,127.0,127.0,127.0,112.0,85.0,-89.0
126.0,126.0,126.0,127.0,127.0,150.0,127.0,128.0,20.0,-106.0,-78.0,127.0,127.0,127.0,112.0,85.0,-89.0
126.0,126.0,126.0,127.0,127.0,150.0,127.0,128.0,20.0,-106.0,-78.0,127.0,127.0,127.0,112.0,85.0,-89.0
126.0,126.0,127.0,127.0,127.0,148.0,127.0,128.0,20.0,-106.0,-78.0,127.0,127.0,127.0,112.0,85.0,-89.0
126.0,126.0,127.0,127.0,127.0,148.0,127.0,128.0,20.0,-106.0,-78.0,127.0,127.0,127.0,112.0,85.0,-89.0
126.0,126.0,127.0,127.0,127.0,148.0,127.0,128.0,20.0,-106.0,-78.0,127.0,127.0,127.0,112.0,85.0,-89.0
126.0,126.0,127.0,127.0,127.0,149.0,127.0,128.0,20.0,-106.0,-78.0,127.0,127.0,127.0,112.0,85.0,-89.0
126.0,126.0,126.0,127.0,127.0,149.0,127.0,128.0,20.0,-106.0,-78.0,127.0,127.0,127.0,112.0,85.0,-89.0
127.0,126.0,126.0,127.0,127.0,149.0,127.0,128.0,20.0,-106.0,-78.0,127.0,127.0,127.0,112.0,85.0,-89.0
126.0,126.0,126.0,127.0,127.0,149.0,127.0,128.0,20.0,-106.0,-78.0,127.0,127.0,127.0,112.0,85.0,-89.0
127.0,126.0,127.0,127.0,127.0,149.0,127.0,128.0,20.0,-106.0,-78.0,127.0,127.0,127.0,112.0,85.0,-89.0
127.0,126.0,127.0,127.0,127.0,148.0,127.0,128.0,20.0,-106.0,-78.0,127.0,127.0,127.0,112.0,85.0,-89.0
127.0,126.0,127.0,127.0,127.0,148.0,127.0,128.0,20.0,-106.0,-78.0,127.0,127.0,127.0,112.0,85.0,-89.0
127.0,125.0,127.0,127.0,126.0,148.0,127.0,128.0,20.0,-106.0,-78.0,127.0,127.0,127.0,112.0,85.0,-89.0
127.0,125.0,127.0,127.0,126.0,148.0,127.0,128.0,20.0,-106.0,-78.0,127.0,127.0,127.0,112.0,85.0,-89.0
127.0,126.0,127.0,127.0,126.0,148.0,126.0,128.0,20.0,-106.0,-78.0,127.0,127.0,127.0,112.0,85.0,-89.0
127.0,126.0,127.0,127.0,127.0,149.0,126.0,128.0,20.0,-106.0,-78.0,127.0,127.0,127.0,112.0,85.0,-89.0
127.0,126.0,127.0,127.0,127.0,149.0,126.0,128.0,20.0,-106.0,-78.0,127.0,127.0,127.0,112.0,85.0,-89.0
127.0,126.0,127.0,127.0,127.0,149.0,127.0,128.0,20.0,-106.0,-78.0,127.0,127.0,127.0,112.0,85.0,-89.0
127.0,126.0,127.0,127.0,127.0,149.0,127.0,128.0,20.0,-106.0,-78.0,127.0,127.0,127.0,112.0,85.0,-89.0
127.0,126.0,127.0,127.0,127.0,148.0,127.0,128.0,20.0,-106.0,-78.0,127.0,127.0,127.0,112.0,85.0,-89.0
127.0,125.0,127.0,127.0,127.0,148.0,127.0,128.0,20.0,-106.0,-78.0,127.0,127.0,127.0,112.0,85.0,-89.0
127.0,125.0,127.0,127.0,127.0,148.0,127.0,128.0,20.0,-106.0,-78.0,127.0,127.0,127.0,112.0,85.0,-89.0
127.0,125.0,127.0,127.0,127.0,148.0,127.0,128.0,20.0,-106.0,-78.0,127.0,127.0,127.0,112.0,85.0,-89.0
127.0,126.0,127.0,127.0,127.0,148.0,127.0,128.0,20.0,-106.0,-78.0,127.0,127.0,127.0,112.0,85.0,-89.0
127.0,126.0,127.0,127.0,127.0,149.0,127.0,128.0,20.0,-106.0,-78.0,127.0,127.0,127.0,112.0,85.0,-89.0
127.0,126.0,126.0,127.0,127.0,149.0,127.0,128.0,20.0,-106.0,-78.0,127.0,127.0,127.0,112.0,85.0,-89.0
127.0,126.0,127.0,127.0,127.0,149.0,127.0,128.0,20.0,-106.0,-78.0,127.0,127.0,127.0,112.0,85.0,-89.0
127.0,126.0,127.0,127.0,127.0,149.0,127.0,128.0,20.0,-106.0,-78.0,127.0,127.0,127.0,112.0,85.0,-89.0
127.0,126.0,127.0,127.0,127.0,149.0,127.0,128.0,20.0,-106.0,-78.0,127.0,127.0,127.0,112.0,85.0,-89.0
127.0,125.0,127.0,127.0,127.0,148.0,127.0,128.0,20.0,-106.0,-78.0,127.0,127.0,127.0,112.0,85.0,-89.0
127.0,125.0,127.0,127.0,127.0,148.0,127.0,128.0,20.0,-106.0,-78.0,127.0,127.0,127.0,112.0,85.0,-89.0
127.0,125.0,127.0,127.0,127.0,148.0,127.0,128.0,20.0,-106.0,-78.0,127.0,127.0,127.0,112.0,85.0,-89.0
127.0,125.0,127.0,127.0,127.0,148.0,127.0,127.0,20.0,-106.0,-78.0,127.0,127.0,127.0,112.0,85.0,-89.0
127.0,126.0,126.0,127.0,127.0,149.0,127.0,128.0,20.0,-106.0,-78.0,127.0,127.0,127.0,112.0,85.0,-89.0
127.0,126.0,126.0,127.0,127.0,149.0,127.0,128.0,20.0,-106.0,-78.0,127.0,127.0,127.0,112.0,85.0,-89.0
127.0,126.0,126.0,127.0,127.0,149.0,127.0,128.0,20.0,-106.0,-78.0,127.0,127.0,127.0,112.0,85.0,-89.0
127.0,125.0,126.0,127.0,127.0,149.0,127.0,128.0,20.0,-106.0,-78.0,127.0,127.0,127.0,112.0,85.0,-89.0
127.0,125.0,126.0,127.0,127.0,149.0,127.0,128.0,20.0,-106.0,-78.0,127.0,127.0,127.0,112.0,85.0,-89.0
127.0,126.0,127.0,127.0,127.0,149.0,127.0,128.0,20.0,-106.0,-78.0,127.0,127.0,127.0,112.0,85.0,-89.0
127.0,125.0,127.0,127.0,127.0,148.0,127.0,128.0,20.0,-106.0,-78.0,127.0,127.0,127.0,112.0,85.0,-89.0
127.0,125.0,126.0,127.0,127.0,148.0,127.0,128.0,20.0,-106.0,-78.0,127.0,127.0,127.0,112.0,85.0,-89.0
127.0,125.0,126.0,127.0,127.0,148.0,127.0,128.0,20.0,-106.0,-78.0,127.0,127.0,127.0,112.0,85.0,-89.0
127.0,126.0,126.0,127.0,127.0,149.0,126.0,128.0,20.0,-106.0,-78.0,127.0,127.0,127.0,112.0,85.0,-89.0
127.0,126.0,126.0,127.0,127.0,149.0,127.0,128.0,20.0,-106.0,-78.0,127.0,127.0,127.0,112.0,85.0,-89.0
127.0,126.0,126.0,127.0,127.0,149.0,127.0,128.0,20.0,-106.0,-78.0,127.0,127.0,127.0,112.0,85.0,-89.0
127.0,126.0,126.0,127.0,127.0,149.0,127.0,128.0,20.0,-106.0,-78.0,127.0,127.0,127.0,112.0,85.0,-89.0
127.0,126.0,126.0,127.0,127.0,149.0,127.0,128.0,20.0,-106.0,-78.0,127.0,127.0,127.0,112.0,85.0,-89.0
127.0,125.0,126.0,127.0,127.0,149.0,127.0,128.0,20.0,-106.0,-78.0,127.0,127.0,127.0,112.0,85.0,-89.0
127.0,125.0,126.0,127.0,127.0,148.0,127.0,128.0,20.0,-106.0,-78.0,127.0,127.0,127.0,112.0,85.0,-89.0
127.0,125.0,128.0,127.0,127.0,146.0,127.0,128.0,20.0,-106.0,-78.0,127.0,127.0,127.0,112.0,85.0,-89.0
127.0,125.0,128.0,127.0,127.0,146.0,127.0,128.0,20.0,-106.0,-78.0,127.0,127.0,127.0,112.0,85.0,-89.0
127.0,125.0,128.0,127.0,127.0,146.0,127.0,128.0,20.0,-106.0,-78.0,127.0,127.0,127.0,112.0,85.0,-89.0
127.0,125.0,128.0,127.0,127.0,146.0,127.0,127.0,20.0,-106.0,-78.0,127.0,127.0,127.0,112.0,85.0,-89.0
127.0,125.0,128.0,127.0,127.0,147.0,127.0,128.0,20.0,-106.0,-78.0,127.0,127.0,127.0,112.0,85.0,-89.0
127.0,125.0,127.0,127.0,127.0,147.0,127.0,128.0,20.0,-106.0,-78.0,127.0,127.0,127.0,112.0,85.0,-89.0
127.0,125.0,127.0,127.0,127.0,148.0,127.0,128.0,20.0,-106.0,-78.0,127.0,127.0,127.0,112.0,85.0,-89.0
127.0,125.0,128.0,127.0,127.0,146.0,127.0,127.0,20.0,-106.0,-78.0,127.0,127.0,127.0,112.0,85.0,-89.0
127.0,125.0,128.0,127.0,127.0,146.0,127.0,128.0,20.0,-106.0,-78.0,127.0,127.0,127.0,112.0,85.0,-89.0
127.0,125.0,128.0,127.0,127.0,146.0,127.0,128.0,20.0,-106.0,-78.0,127.0,127.0,127.0,112.0,85.0,-89.0
127.0,125.0,126.0,127.0,126.0,149.0,127.0,128.0,20.0,-106.0,-78.0,127.0,127.0,127.0,112.0,85.0,-89.0
127.0,126.0,126.0,127.0,126.0,149.0,126.0,128.0,20.0,-106.0,-78.0,127.0,127.0,127.0,112.0,85.0,-89.0
127.0,126.0,126.0,127.0,127.0,150.0,127.0,128.0,20.0,-106.0,-78.0,127.0,127.0,127.0,112.0,85.0,-89.0
127.0,126.0,126.0,127.0,127.0,150.0,127.0,128.0,20.0,-106.0,-78.0,127.0,127.0,127.0,112.0,85.0,-89.0
127.0,126.0,126.0,127.0,126.0,149.0,127.0,128.0,20.0,-106.0,-78.0,127.0,127.0,127.0,112.0,85.0,-89.0
127.0,125.0,126.0,127.0,126.0,149.0,127.0,128.0,20.0,-106.0,-78.0,127.0,127.0,127.0,112.0,85.0,-89.0
127.0,125.0,127.0,127.0,126.0,148.0,127.0,128.0,20.0,-106.0,-78.0,127.0,127.0,127.0,112.0,85.0,-89.0
127.0,125.0,127.0,127.0,126.0,148.0,126.0,128.0,20.0,-106.0,-78.0,127.0,127.0,127.0,112.0,85.0,-89.0
127.0,125.0,126.0,127.0,126.0,149.0,126.0,128.0,20.0,-106.0,-78.0,127.0,127.0,127.0,112.0,85.0,-89.0
127.0,126.0,126.0,127.0,127.0,149.0,127.0,128.0,20.0,-106.0,-78.0,127.0,127.0,127.0,112.0,85.0,-89.0
127.0,126.0,127.0,127.0,127.0,148.0,127.0,128.0,20.0,-106.0,-78.0,127.0,127.0,127.0,112.0,85.0,-89.0
127.0,125.0,127.0,127.0,127.0,147.0,127.0,128.0,20.0,-106.0,-78.0,127.0,127.0,127.0,112.0,85.0,-89.0
127.0,126.0,126.0,127.0,127.0,148.0,127.0,128.0,20.0,-106.0,-78.0,127.0,127.0,127.0,112.0,85.0,-89.0
127.0,125.0,126.0,127.0,127.0,148.0,127.0,128.0,20.0,-106.0,-78.0,127.0,127.0,127.0,112.0,85.0,-89.0
127.0,126.0,126.0,127.0,127.0,149.0,127.0,128.0,20.0,-106.0,-78.0,127.0,127.0,127.0,112.0,85.0,-89.0
127.0,125.0,127.0,127.0,127.0,146.0,127.0,128.0,20.0,-106.0,-78.0,127.0,127.0,127.0,112.0,85.0,-89.0
127.0,125.0,127.0,127.0,127.0,146.0,127.0,128.0,20.0,-106.0,-78.0,127.0,127.0,127.0,112.0,85.0,-89.0
127.0,125.0,127.0,127.0,127.0,147.0,127.0,128.0,20.0,-106.0,-78.0,127.0,127.0,127.0,112.0,85.0,-89.0
127.0,126.0,126.0,127.0,127.0,148.0,127.0,128.0,20.0,-106.0,-78.0,127.0,127.0,127.0,112.0,85.0,-89.0
127.0,126.0,126.0,127.0,127.0,148.0,127.0,128.0,20.0,-106.0,-78.0,127.0,127.0,127.0,112.0,85.0,-89.0
127.0,125.0,127.0,127.0,126.0,147.0,127.0,128.0,20.0,-106.0,-78.0,127.0,127.0,127.0,112.0,85.0,-89.0
127.0,125.0,127.0,127.0,126.0,147.0,127.0,128.0,20.0,-106.0,-78.0,127.0,127.0,127.0,112.0,85.0,-89.0
127.0,125.0,127.0,127.0,126.0,147.0,126.0,128.0,20.0,-106.0,-78.0,127.0,127.0,127.0,112.0,85.0,-89.0
127.0,126.0,126.0,127.0,127.0,148.0,126.0,128.0,20.0,-106.0,-78.0,127.0,127.0,127.0,112.0,85.0,-89.0
127.0,125.0,127.0,127.0,126.0,146.0,127.0,128.0,20.0,-106.0,-78.0,127.0,127.0,127.0,112.0,85.0,-89.0
127.0,125.0,127.0,127.0,126.0,146.0,127.0,128.0,20.0,-106.0,-78.0,127.0,127.0,127.0,112.0,85.0,-89.0
127.0,125.0,127.0,127.0,126.0,147.0,126.0,128.0,20.0,-106.0,-78.0,127.0,127.0,127.0,112.0,85.0,-89.0
127.0,126.0,127.0,127.0,126.0,148.0,127.0,128.0,20.0,-106.0,-78.0,127.0,127.0,127.0,112.0,85.0,-89.0
127.0,126.0,127.0,127.0,126.0,148.0,127.0,128.0,20.0,-106.0,-78.0,127.0,127.0,127.0,112.0,85.0,-89.0
127.0,126.0,127.0,127.0,126.0,147.0,127.0,128.0,20.0,-106.0,-78.0,127.0,127.0,127.0,112.0,85.0,-89.0
127.0,125.0,126.0,127.0,127.0,147.0,127.0,128.0,20.0,-106.0,-78.0,127.0,127.0,127.0,112.0,85.0,-89.0
127.0,125.0,126.0,127.0,127.0,147.0,126.0,128.0,20.0,-106.0,-78.0,127.0,127.0,127.0,112.0,85.0,-89.0
127.0,126.0,126.0,127.0,127.0,149.0,126.0,128.0,20.0,-106.0,-78.0,127.0,127.0,127.0,112.0,85.0,-89.0
127.0,125.0,127.0,127.0,127.0,146.0,126.0,128.0,20.0,-106.0,-78.0,127.0,127.0,127.0,112.0,85.0,-89.0
127.0,125.0,127.0,127.0,127.0,146.0,127.0,128.0,20.0,-106.0,-78.0,127.0,127.0,127.0,112.0,85.0,-89.0
127.0,125.0,127.0,127.0,127.0,147.0,126.0,128.0,20.0,-106.0,-78.0,127.0,127.0,127.0,112.0,85.0,-89.0
127.0,126.0,126.0,127.0,127.0,148.0,126.0,128.0,20.0,-106.0,-78.0,127.0,127.0,127.0,112.0,85.0,-89.0
127.0,126.0,126.0,127.0,127.0,148.0,126.0,128.0,20.0,-106.0,-78.0,127.0,127.0,127.0,112.0,85.0,-89.0
127.0,125.0,126.0,127.0,127.0,147.0,126.0,128.0,20.0,-106.0,-78.0,127.0,127.0,127.0,112.0,85.0,-89.0
127.0,125.0,126.0,127.0,127.0,147.0,127.0,128.0,20.0,-106.0,-78.0,127.0,127.0,127.0,112.0,85.0,-89.0
127.0,125.0,125.0,127.0,127.0,147.0,127.0,128.0,20.0,-106.0,-78.0,127.0,127.0,127.0,112.0,85.0,-89.0
127.0,126.0,124.0,127.0,127.0,148.0,127.0,128.0,20.0,-106.0,-78.0,127.0,127.0,127.0,112.0,85.0,-89.0
127.0,125.0,126.0,127.0,127.0,146.0,127.0,128.0,20.0,-106.0,-78.0,127.0,127.0,127.0,112.0,85.0,-89.0
127.0,125.0,125.0,127.0,127.0,146.0,127.0,128.0,20.0,-106.0,-78.0,127.0,127.0,127.0,112.0,85.0,-89.0
127.0,125.0,125.0,127.0,127.0,147.0,127.0,128.0,20.0,-106.0,-78.0,127.0,127.0,127.0,112.0,85.0,-89.0
127.0,126.0,125.0,127.0,127.0,148.0,127.0,128.0,20.0,-106.0,-78.0,127.0,127.0,127.0,112.0,85.0,-89.0
127.0,126.0,124.0,127.0,127.0,148.0,127.0,128.0,20.0,-106.0,-78.0,127.0,127.0,127.0,112.0,85.0,-89.0
127.0,126.0,125.0,127.0,127.0,147.0,127.0,128.0,20.0,-106.0,-78.0,127.0,127.0,127.0,112.0,85.0,-89.0
127.0,125.0,125.0,127.0,127.0,147.0,127.0,128.0,20.0,-106.0,-78.0,127.0,127.0,127.0,112.0,85.0,-89.0
127.0,125.0,125.0,127.0,127.0,147.0,127.0,128.0,20.0,-106.0,-78.0,127.0,127.0,127.0,112.0,85.0,-89.0
127.0,126.0,126.0,127.0,127.0,148.0,127.0,128.0,20.0,-106.0,-78.0,127.0,127.0,127.0,112.0,85.0,-89.0
127.0,125.0,127.0,127.0,127.0,145.0,127.0,128.0,20.0,-106.0,-78.0,127.0,127.0,127.0,112.0,85.0,-89.0
127.0,125.0,127.0,127.0,127.0,146.0,127.0,128.0,20.0,-106.0,-78.0,127.0,127.0,127.0,112.0,85.0,-89.0
127.0,125.0,127.0,127.0,127.0,146.0,127.0,128.0,20.0,-106.0,-78.0,127.0,127.0,127.0,112.0,85.0,-89.0
127.0,126.0,126.0,127.0,127.0,147.0,127.0,128.0,20.0,-106.0,-78.0,127.0,127.0,127.0,112.0,85.0,-89.0
127.0,125.0,126.0,127.0,127.0,147.0,127.0,128.0,20.0,-106.0,-78.0,127.0,127.0,127.0,112.0,85.0,-89.0
127.0,126.0,127.0,127.0,127.0,147.0,127.0,128.0,20.0,-106.0,-78.0,127.0,127.0,127.0,112.0,85.0,-89.0
127.0,125.0,127.0,127.0,127.0,147.0,127.0,128.0,20.0,-106.0,-78.0,127.0,127.0,127.0,112.0,85.0,-89.0
127.0,125.0,127.0,127.0,127.0,147.0,127.0,128.0,20.0,-106.0,-78.0,127.0,127.0,127.0,112.0,85.0,-89.0
127.0,125.0,127.0,127.0,127.0,147.0,127.0,128.0,20.0,-106.0,-78.0,127.0,127.0,127.0,112.0,85.0,-89.0
127.0,126.0,127.0,127.0,127.0,147.0,127.0,128.0,20.0,-106.0,-78.0,127.0,127.0,127.0,112.0,85.0,-89.0
127.0,126.0,127.0,127.0,127.0,148.0,127.0,128.0,20.0,-106.0,-78.0,127.0,127.0,127.0,112.0,85.0,-89.0
127.0,126.0,127.0,127.0,127.0,147.0,127.0,128.0,20.0,-106.0,-78.0,127.0,127.0,127.0,112.0,85.0,-89.0
127.0,126.0,127.0,127.0,127.0,147.0,127.0,128.0,20.0,-106.0,-78.0,127.0,127.0,127.0,112.0,85.0,-89.0
127.0,126.0,127.0,127.0,127.0,147.0,127.0,128.0,20.0,-106.0,-78.0,127.0,127.0,127.0,112.0,85.0,-89.0
127.0,125.0,127.0,127.0,127.0,147.0,127.0,128.0,20.0,-106.0,-78.0,127.0,127.0,127.0,112.0,85.0,-89.0
127.0,125.0,127.0,127.0,127.0,146.0,127.0,128.0,20.0,-106.0,-78.0,127.0,127.0,127.0,112.0,85.0,-89.0
127.0,125.0,127.0,127.0,127.0,146.0,127.0,128.0,20.0,-106.0,-78.0,127.0,127.0,127.0,112.0,85.0,-89.0
127.0,125.0,127.0,127.0,127.0,146.0,127.0,128.0,20.0,-106.0,-78.0,127.0,127.0,127.0,112.0,85.0,-89.0
127.0,125.0,128.0,127.0,126.0,146.0,127.0,128.0,20.0,-106.0,-78.0,127.0,127.0,127.0,112.0,85.0,-89.0
127.0,125.0,126.0,127.0,127.0,147.0,127.0,128.0,20.0,-106.0,-78.0,127.0,127.0,127.0,112.0,85.0,-89.0
127.0,125.0,126.0,127.0,127.0,146.0,127.0,128.0,20.0,-106.0,-78.0,127.0,127.0,127.0,112.0,85.0,-89.0
127.0,125.0,126.0,127.0,127.0,146.0,127.0,128.0,20.0,-106.0,-78.0,127.0,127.0,127.0,112.0,85.0,-89.0
127.0,125.0,126.0,127.0,127.0,146.0,127.0,128.0,20.0,-106.0,-78.0,127.0,127.0,127.0,112.0,85.0,-89.0
127.0,125.0,126.0,127.0,127.0,146.0,127.0,128.0,20.0,-106.0,-78.0,127.0,127.0,127.0,112.0,85.0,-89.0
127.0,125.0,126.0,127.0,127.0,147.0,126.0,128.0,20.0,-106.0,-78.0,127.0,127.0,127.0,112.0,85.0,-89.0
127.0,126.0,126.0,127.0,127.0,147.0,127.0,128.0,20.0,-106.0,-78.0,127.0,127.0,127.0,112.0,85.0,-89.0
127.0,125.0,126.0,127.0,127.0,147.0,127.0,128.0,20.0,-106.0,-78.0,127.0,127.0,127.0,112.0,85.0,-89.0
127.0,125.0,126.0,127.0,127.0,147.0,127.0,128.0,20.0,-106.0,-78.0,127.0,127.0,127.0,112.0,85.0,-89.0
127.0,125.0,126.0,127.0,127.0,147.0,127.0,128.0,20.0,-106.0,-78.0,127.0,127.0,127.0,112.0,85.0,-89.0
127.0,126.0,127.0,127.0,127.0,147.0,127.0,128.0,20.0,-106.0,-78.0,127.0,127.0,127.0,112.0,85.0,-89.0
127.0,126.0,127.0,127.0,127.0,147.0,127.0,128.0,20.0,-106.0,-78.0,127.0,127.0,127.0,112.0,85.0,-89.0
127.0,125.0,127.0,127.0,127.0,146.0,126.0,128.0,20.0,-106.0,-78.0,127.0,127.0,127.0,112.0,85.0,-89.0
127.0,125.0,127.0,127.0,127.0,146.0,127.0,128.0,20.0,-106.0,-78.0,127.0,127.0,127.0,112.0,85.0,-89.0
127.0,126.0,127.0,127.0,127.0,147.0,126.0,128.0,20.0,-106.0,-78.0,127.0,127.0,127.0,112.0,85.0,-89.0
127.0,126.0,126.0,127.0,127.0,148.0,127.0,128.0,20.0,-106.0,-78.0,127.0,127.0,127.0,112.0,85.0,-89.0
127.0,126.0,126.0,127.0,127.0,148.0,127.0,128.0,20.0,-106.0,-78.0,127.0,127.0,127.0,112.0,85.0,-89.0
127.0,126.0,126.0,127.0,127.0,148.0,127.0,128.0,20.0,-106.0,-78.0,127.0,127.0,127.0,112.0,85.0,-89.0
127.0,126.0,127.0,127.0,127.0,147.0,127.0,128.0,20.0,-106.0,-78.0,127.0,127.0,127.0,112.0,85.0,-89.0
127.0,126.0,127.0,127.0,127.0,147.0,127.0,128.0,20.0,-106.0,-78.0,127.0,127.0,127.0,112.0,85.0,-89.0
127.0,126.0,126.0,127.0,127.0,146.0,127.0,128.0,20.0,-106.0,-78.0,127.0,127.0,127.0,112.0,85.0,-89.0
127.0,126.0,127.0,127.0,127.0,146.0,127.0,128.0,20.0,-106.0,-78.0,127.0,127.0,127.0,112.0,85.0,-89.0
127.0,126.0,126.0,127.0,127.0,146.0,127.0,128.0,20.0,-106.0,-78.0,127.0,127.0,127.0,112.0,85.0,-89.0
127.0,126.0,126.0,127.0,127.0,147.0,127.0,128.0,20.0,-106.0,-78.0,127.0,127.0,127.0,112.0,85.0,-89.0
127.0,126.0,126.0,127.0,127.0,148.0,127.0,128.0,20.0,-106.0,-78.0,127.0,127.0,127.0,112.0,85.0,-89.0
127.0,126.0,126.0,128.0,127.0,148.0,127.0,128.0,20.0,-106.0,-78.0,127.0,127.0,127.0,112.0,85.0,-89.0
127.0,126.0,126.0,127.0,127.0,147.0,127.0,128.0,20.0,-106.0,-78.0,127.0,127.0,127.0,112.0,85.0,-89.0
127.0,126.0,126.0,127.0,127.0,147.0,127.0,128.0,20.0,-106.0,-78.0,127.0,127.0,127.0,112.0,85.0,-89.0
127.0,126.0,126.0,127.0,127.0,147.0,127.0,128.0,20.0,-106.0,-78.0,127.0,127.0,127.0,112.0,85.0,-89.0
127.0,126.0,126.0,127.0,127.0,147.0,127.0,128.0,20.0,-106.0,-78.0,127.0,127.0,127.0,112.0,85.0,-89.0
127.0,125.0,127.0,127.0,127.0,145.0,127.0,128.0,20.0,-106.0,-78.0,127.0,127.0,127.0,112.0,85.0,-89.0
127.0,125.0,127.0,127.0,127.0,145.0,126.0,128.0,20.0,-106.0,-78.0,127.0,127.0,127.0,112.0,85.0,-89.0
127.0,125.0,127.0,127.0,127.0,146.0,126.0,128.0,20.0,-106.0,-78.0,127.0,127.0,127.0,112.0,85.0,-89.0
127.0,126.0,127.0,127.0,127.0,147.0,126.0,128.0,20.0,-106.0,-78.0,127.0,127.0,127.0,112.0,85.0,-89.0
127.0,126.0,127.0,127.0,127.0,147.0,127.0,128.0,20.0,-106.0,-78.0,127.0,127.0,127.0,112.0,85.0,-89.0
127.0,126.0,127.0,127.0,127.0,146.0,127.0,128.0,20.0,-106.0,-78.0,127.0,127.0,127.0,112.0,85.0,-89.0
127.0,126.0,128.0,127.0,127.0,145.0,126.0,128.0,20.0,-106.0,-78.0,127.0,127.0,127.0,112.0,85.0,-89.0
127.0,126.0,127.0,127.0,127.0,146.0,127.0,128.0,20.0,-106.0,-78.0,127.0,127.0,127.0,112.0,85.0,-89.0
127.0,126.0,127.0,127.0,127.0,146.0,127.0,128.0,20.0,-106.0,-78.0,127.0,127.0,127.0,112.0,85.0,-89.0
127.0,125.0,127.0,127.0,127.0,145.0,127.0,128.0,20.0,-106.0,-78.0,127.0,127.0,127.0,112.0,85.0,-89.0
127.0,126.0,127.0,127.0,127.0,146.0,127.0,128.0,20.0,-106.0,-78.0,127.0,127.0,127.0,112.0,85.0,-89.0
127.0,126.0,126.0,127.0,127.0,146.0,126.0,128.0,20.0,-106.0,-78.0,127.0,127.0,127.0,112.0,85.0,-89.0
127.0,126.0,126.0,127.0,127.0,147.0,126.0,128.0,20.0,-106.0,-78.0,127.0,127.0,127.0,112.0,85.0,-89.0
127.0,126.0,126.0,127.0,127.0,147.0,126.0,128.0,20.0,-106.0,-78.0,127.0,127.0,127.0,112.0,85.0,-89.0
127.0,126.0,126.0,127.0,127.0,147.0,126.0,128.0,20.0,-106.0,-78.0,127.0,127.0,127.0,112.0,85.0,-89.0
127.0,126.0,127.0,127.0,127.0,146.0,126.0,128.0,20.0,-106.0,-78.0,127.0,127.0,127.0,112.0,85.0,-89.0
127.0,126.0,127.0,127.0,127.0,147.0,126.0,128.0,20.0,-106.0,-78.0,127.0,127.0,127.0,112.0,85.0,-89.0
127.0,126.0,127.0,127.0,127.0,147.0,126.0,128.0,20.0,-106.0,-78.0,127.0,127.0,127.0,112.0,85.0,-89.0
127.0,126.0,127.0,127.0,127.0,146.0,126.0,128.0,20.0,-106.0,-78.0,127.0,127.0,127.0,112.0,85.0,-89.0
127.0,126.0,127.0,127.0,127.0,146.0,127.0,128.0,20.0,-106.0,-78.0,127.0,127.0,127.0,112.0,85.0,-89.0
127.0,125.0,126.0,127.0,127.0,146.0,127.0,128.0,20.0,-106.0,-78.0,127.0,127.0,127.0,112.0,85.0,-89.0
127.0,126.0,126.0,127.0,127.0,147.0,127.0,128.0,20.0,-106.0,-78.0,127.0,127.0,127.0,112.0,85.0,-89.0
127.0,126.0,125.0,127.0,127.0,148.0,127.0,128.0,20.0,-106.0,-78.0,127.0,127.0,127.0,112.0,85.0,-89.0
127.0,125.0,127.0,127.0,127.0,145.0,127.0,128.0,20.0,-106.0,-78.0,127.0,127.0,127.0,112.0,85.0,-89.0
127.0,125.0,126.0,127.0,127.0,146.0,127.0,128.0,20.0,-106.0,-78.0,127.0,127.0,127.0,112.0,85.0,-89.0
127.0,126.0,126.0,127.0,127.0,147.0,127.0,128.0,20.0,-106.0,-78.0,127.0,127.0,127.0,112.0,85.0,-89.0
127.0,126.0,126.0,127.0,127.0,147.0,127.0,128.0,20.0,-106.0,-78.0,127.0,127.0,127.0,112.0,85.0,-89.0
127.0,126.0,126.0,127.0,127.0,146.0,127.0,128.0,20.0,-106.0,-78.0,127.0,127.0,127.0,112.0,85.0,-89.0
127.0,125.0,126.0,127.0,127.0,146.0,127.0,128.0,20.0,-106.0,-78.0,127.0,127.0,127.0,112.0,85.0,-89.0
127.0,125.0,126.0,127.0,127.0,146.0,127.0,128.0,20.0,-106.0,-78.0,127.0,127.0,127.0,112.0,85.0,-89.0
127.0,126.0,124.0,127.0,127.0,146.0,127.0,128.0,20.0,-106.0,-78.0,127.0,127.0,127.0,112.0,85.0,-89.0
127.0,126.0,124.0,127.0,127.0,146.0,127.0,128.0,20.0,-106.0,-78.0,127.0,127.0,127.0,112.0,85.0,-89.0
127.0,125.0,125.0,127.0,127.0,146.0,127.0,128.0,20.0,-106.0,-78.0,127.0,127.0,127.0,112.0,85.0,-89.0
127.0,126.0,124.0,127.0,127.0,146.0,127.0,128.0,20.0,-106.0,-78.0,127.0,127.0,127.0,112.0,85.0,-89.0
127.0,126.0,124.0,127.0,127.0,147.0,127.0,128.0,20.0,-106.0,-78.0,127.0,127.0,127.0,112.0,85.0,-89.0
127.0,126.0,124.0,127.0,127.0,147.0,127.0,128.0,20.0,-106.0,-78.0,127.0,127.0,127.0,112.0,85.0,-89.0
127.0,126.0,124.0,127.0,127.0,147.0,127.0,128.0,20.0,-106.0,-78.0,127.0,127.0,127.0,112.0,85.0,-89.0
127.0,126.0,124.0,127.0,127.0,146.0,127.0,128.0,20.0,-106.0,-78.0,127.0,127.0,127.0,112.0,85.0,-89.0
127.0,126.0,124.0,127.0,127.0,147.0,127.0,128.0,20.0,-106.0,-78.0,127.0,127.0,127.0,112.0,85.0,-89.0
127.0,126.0,124.0,127.0,127.0,146.0,127.0,128.0,20.0,-106.0,-78.0,127.0,127.0,127.0,112.0,85.0,-89.0
127.0,125.0,125.0,127.0,127.0,146.0,127.0,128.0,20.0,-106.0,-78.0,127.0,127.0,127.0,112.0,85.0,-89.0
127.0,125.0,125.0,127.0,127.0,146.0,127.0,128.0,20.0,-106.0,-78.0,127.0,127.0,127.0,112.0,85.0,-89.0
127.0,125.0,125.0,127.0,127.0,146.0,126.0,128.0,20.0,-106.0,-78.0,127.0,127.0,127.0,112.0,85.0,-89.0
127.0,126.0,125.0,127.0,127.0,147.0,126.0,128.0,20.0,-106.0,-78.0,127.0,127.0,127.0,112.0,85.0,-89.0
127.0,126.0,125.0,127.0,127.0,147.0,127.0,128.0,20.0,-106.0,-78.0,127.0,127.0,127.0,112.0,85.0,-89.0
127.0,126.0,125.0,127.0,127.0,147.0,126.0,128.0,20.0,-106.0,-78.0,127.0,127.0,127.0,112.0,85.0,-89.0
127.0,126.0,125.0,127.0,127.0,147.0,127.0,128.0,20.0,-106.0,-78.0,127.0,127.0,127.0,112.0,85.0,-89.0
127.0,126.0,125.0,127.0,127.0,147.0,127.0,128.0,20.0,-106.0,-78.0,127.0,127.0,127.0,112.0,85.0,-89.0
127.0,126.0,125.0,127.0,127.0,146.0,127.0,128.0,20.0,-106.0,-78.0,127.0,127.0,127.0,112.0,85.0,-89.0
127.0,125.0,125.0,127.0,127.0,146.0,127.0,128.0,20.0,-106.0,-78.0,127.0,127.0,127.0,112.0,85.0,-89.0
127.0,125.0,128.0,127.0,127.0,145.0,127.0,127.0,20.0,-106.0,-78.0,127.0,127.0,127.0,112.0,85.0,-89.0
127.0,125.0,128.0,127.0,127.0,145.0,127.0,128.0,20.0,-106.0,-78.0,127.0,127.0,127.0,112.0,85.0,-89.0
127.0,125.0,128.0,127.0,127.0,145.0,127.0,128.0,20.0,-106.0,-78.0,127.0,127.0,127.0,112.0,85.0,-89.0
127.0,125.0,128.0,127.0,127.0,145.0,127.0,127.0,20.0,-106.0,-78.0,127.0,127.0,127.0,112.0,85.0,-89.0
127.0,125.0,128.0,127.0,127.0,145.0,127.0,127.0,20.0,-106.0,-78.0,127.0,127.0,127.0,112.0,85.0,-89.0
127.0,125.0,127.0,127.0,127.0,146.0,127.0,127.0,20.0,-106.0,-78.0,127.0,127.0,127.0,112.0,85.0,-89.0
127.0,126.0,127.0,127.0,127.0,146.0,126.0,128.0,20.0,-106.0,-78.0,127.0,127.0,127.0,112.0,85.0,-89.0
127.0,126.0,127.0,127.0,127.0,146.0,127.0,128.0,20.0,-106.0,-78.0,127.0,127.0,127.0,112.0,85.0,-89.0
127.0,125.0,127.0,127.0,127.0,146.0,127.0,127.0,20.0,-106.0,-78.0,127.0,127.0,127.0,112.0,85.0,-89.0
127.0,125.0,127.0,127.0,127.0,145.0,126.0,127.0,20.0,-106.0,-78.0,127.0,127.0,127.0,112.0,85.0,-89.0
127.0,126.0,128.0,127.0,127.0,146.0,127.0,128.0,20.0,-106.0,-78.0,127.0,127.0,127.0,112.0,85.0,-89.0
127.0,126.0,128.0,127.0,127.0,145.0,127.0,128.0,20.0,-106.0,-78.0,127.0,127.0,127.0,112.0,85.0,-89.0
127.0,126.0,128.0,127.0,127.0,146.0,127.0,128.0,20.0,-106.0,-78.0,127.0,127.0,127.0,112.0,85.0,-89.0
127.0,126.0,128.0,127.0,127.0,145.0,127.0,128.0,20.0,-106.0,-78.0,127.0,127.0,127.0,112.0,85.0,-89.0
127.0,126.0,128.0,127.0,127.0,145.0,127.0,128.0,20.0,-106.0,-78.0,127.0,127.0,127.0,112.0,85.0,-89.0
127.0,126.0,128.0,127.0,127.0,145.0,127.0,128.0,20.0,-106.0,-78.0,127.0,127.0,127.0,112.0,85.0,-89.0
127.0,126.0,128.0,127.0,127.0,145.0,127.0,128.0,20.0,-106.0,-78.0,127.0,127.0,127.0,112.0,85.0,-89.0
127.0,126.0,128.0,127.0,127.0,144.0,127.0,128.0,20.0,-106.0,-78.0,127.0,127.0,127.0,112.0,85.0,-89.0
127.0,126.0,128.0,127.0,127.0,144.0,127.0,128.0,20.0,-106.0,-78.0,127.0,127.0,127.0,112.0,85.0,-89.0
127.0,126.0,128.0,127.0,127.0,146.0,127.0,128.0,20.0,-106.0,-78.0,127.0,127.0,127.0,112.0,85.0,-89.0
127.0,126.0,126.0,127.0,127.0,146.0,127.0,128.0,20.0,-106.0,-78.0,127.0,127.0,127.0,112.0,85.0,-89.0
127.0,126.0,126.0,127.0,127.0,146.0,127.0,128.0,20.0,-106.0,-78.0,127.0,127.0,127.0,112.0,85.0,-89.0
127.0,126.0,126.0,127.0,127.0,146.0,127.0,128.0,20.0,-106.0,-78.0,127.0,127.0,127.0,112.0,85.0,-89.0
127.0,126.0,126.0,127.0,127.0,146.0,127.0,128.0,20.0,-106.0,-78.0,127.0,127.0,127.0,112.0,85.0,-89.0
127.0,126.0,126.0,127.0,127.0,146.0,127.0,128.0,20.0,-106.0,-78.0,127.0,127.0,127.0,112.0,85.0,-89.0
127.0,126.0,126.0,127.0,127.0,146.0,127.0,128.0,20.0,-106.0,-78.0,127.0,127.0,127.0,112.0,85.0,-89.0
127.0,126.0,127.0,127.0,127.0,145.0,127.0,128.0,20.0,-106.0,-78.0,127.0,127.0,127.0,112.0,85.0,-89.0
127.0,126.0,127.0,127.0,127.0,145.0,127.0,128.0,20.0,-106.0,-78.0,127.0,127.0,127.0,112.0,85.0,-89.0
127.0,126.0,126.0,127.0,127.0,147.0,127.0,128.0,20.0,-106.0,-78.0,127.0,127.0,127.0,112.0,85.0,-89.0
127.0,126.0,126.0,127.0,127.0,147.0,127.0,128.0,20.0,-106.0,-78.0,127.0,127.0,127.0,112.0,85.0,-89.0
127.0,125.0,127.0,127.0,126.0,145.0,127.0,128.0,20.0,-106.0,-78.0,127.0,127.0,127.0,112.0,85.0,-89.0
127.0,125.0,127.0,127.0,126.0,145.0,127.0,128.0,20.0,-106.0,-78.0,127.0,127.0,127.0,112.0,85.0,-89.0
127.0,125.0,127.0,127.0,127.0,145.0,127.0,127.0,20.0,-106.0,-78.0,127.0,127.0,127.0,112.0,85.0,-89.0
127.0,125.0,127.0,127.0,127.0,145.0,127.0,127.0,20.0,-106.0,-78.0,127.0,127.0,127.0,112.0,85.0,-89.0
127.0,125.0,127.0,127.0,127.0,145.0,127.0,127.0,20.0,-106.0,-78.0,127.0,127.0,127.0,112.0,85.0,-89.0
127.0,125.0,127.0,127.0,127.0,145.0,127.0,127.0,20.0,-106.0,-78.0,127.0,127.0,127.0,112.0,85.0,-89.0
127.0,125.0,127.0,127.0,127.0,144.0,127.0,127.0,20.0,-106.0,-78.0,127.0,127.0,127.0,112.0,85.0,-89.0
127.0,126.0,127.0,127.0,126.0,145.0,127.0,128.0,20.0,-106.0,-78.0,127.0,127.0,127.0,112.0,85.0,-89.0
127.0,126.0,127.0,127.0,127.0,145.0,127.0,128.0,20.0,-106.0,-78.0,127.0,127.0,127.0,112.0,85.0,-89.0
127.0,125.0,127.0,127.0,127.0,145.0,127.0,128.0,20.0,-106.0,-78.0,127.0,127.0,127.0,112.0,85.0,-89.0
127.0,126.0,126.0,127.0,127.0,146.0,127.0,128.0,20.0,-106.0,-78.0,127.0,127.0,127.0,112.0,85.0,-89.0
127.0,125.0,126.0,127.0,127.0,145.0,127.0,128.0,20.0,-106.0,-78.0,127.0,127.0,127.0,112.0,85.0,-89.0
127.0,125.0,126.0,127.0,127.0,145.0,127.0,128.0,20.0,-106.0,-78.0,127.0,127.0,127.0,112.0,85.0,-89.0
127.0,125.0,126.0,127.0,127.0,145.0,127.0,128.0,20.0,-106.0,-78.0,127.0,127.0,127.0,112.0,85.0,-89.0
127.0,125.0,126.0,127.0,127.0,145.0,127.0,128.0,20.0,-106.0,-78.0,127.0,127.0,127.0,112.0,85.0,-89.0
127.0,125.0,127.0,127.0,127.0,144.0,127.0,128.0,20.0,-106.0,-78.0,127.0,127.0,127.0,112.0,85.0,-89.0
127.0,126.0,126.0,127.0,127.0,146.0,127.0,128.0,20.0,-106.0,-78.0,127.0,127.0,127.0,112.0,85.0,-89.0
127.0,126.0,126.0,127.0,127.0,146.0,127.0,128.0,20.0,-106.0,-78.0,127.0,127.0,127.0,112.0,85.0,-89.0
127.0,126.0,126.0,127.0,127.0,146.0,127.0,128.0,20.0,-106.0,-78.0,127.0,127.0,127.0,112.0,85.0,-89.0
127.0,125.0,126.0,127.0,127.0,146.0,127.0,128.0,20.0,-106.0,-78.0,127.0,127.0,127.0,112.0,85.0,-89.0
127.0,126.0,126.0,127.0,127.0,146.0,127.0,128.0,20.0,-106.0,-78.0,127.0,127.0,127.0,112.0,85.0,-89.0
127.0,126.0,126.0,127.0,127.0,146.0,127.0,128.0,20.0,-106.0,-78.0,127.0,127.0,127.0,112.0,85.0,-89.0
127.0,126.0,126.0,127.0,127.0,146.0,127.0,128.0,20.0,-106.0,-78.0,127.0,127.0,127.0,112.0,85.0,-89.0
127.0,126.0,126.0,127.0,127.0,145.0,127.0,128.0,20.0,-106.0,-78.0,127.0,127.0,127.0,112.0,85.0,-89.0
127.0,126.0,126.0,127.0,127.0,145.0,127.0,128.0,20.0,-106.0,-78.0,127.0,127.0,127.0,112.0,85.0,-89.0
127.0,126.0,126.0,127.0,127.0,146.0,127.0,128.0,20.0,-106.0,-78.0,127.0,127.0,127.0,112.0,85.0,-89.0
127.0,126.0,126.0,127.0,127.0,146.0,127.0,128.0,20.0,-106.0,-78.0,127.0,127.0,127.0,112.0,85.0,-89.0
127.0,126.0,126.0,127.0,127.0,146.0,127.0,128.0,20.0,-106.0,-78.0,127.0,127.0,127.0,112.0,85.0,-89.0
127.0,126.0,126.0,127.0,127.0,146.0,127.0,128.0,20.0,-106.0,-78.0,127.0,127.0,127.0,112.0,85.0,-89.0
127.0,126.0,126.0,127.0,127.0,146.0,127.0,128.0,20.0,-106.0,-78.0,127.0,127.0,127.0,112.0,85.0,-89.0
127.0,126.0,126.0,127.0,127.0,145.0,126.0,128.0,20.0,-106.0,-78.0,127.0,127.0,127.0,112.0,85.0,-89.0
127.0,126.0,125.0,127.0,127.0,145.0,126.0,128.0,20.0,-106.0,-78.0,127.0,127.0,127.0,112.0,85.0,-89.0
127.0,126.0,126.0,127.0,127.0,145.0,126.0,128.0,20.0,-106.0,-78.0,127.0,127.0,127.0,112.0,85.0,-89.0
127.0,125.0,126.0,127.0,127.0,145.0,126.0,127.0,20.0,-106.0,-78.0,127.0,127.0,127.0,112.0,85.0,-89.0
127.0,126.0,125.0,127.0,127.0,146.0,126.0,128.0,20.0,-106.0,-78.0,127.0,127.0,127.0,112.0,85.0,-89.0
127.0,126.0,125.0,127.0,127.0,146.0,126.0,128.0,20.0,-106.0,-78.0,127.0,127.0,127.0,112.0,85.0,-89.0
127.0,126.0,125.0,127.0,127.0,146.0,126.0,128.0,20.0,-106.0,-78.0,127.0,127.0,127.0,112.0,85.0,-89.0
127.0,126.0,125.0,127.0,127.0,146.0,126.0,128.0,20.0,-106.0,-78.0,127.0,127.0,127.0,112.0,85.0,-89.0
127.0,126.0,125.0,127.0,127.0,146.0,126.0,128.0,20.0,-106.0,-78.0,127.0,127.0,127.0,112.0,85.0,-89.0
127.0,126.0,125.0,127.0,127.0,146.0,126.0,128.0,20.0,-106.0,-78.0,127.0,127.0,127.0,112.0,85.0,-89.0
127.0,126.0,126.0,127.0,127.0,146.0,127.0,128.0,20.0,-106.0,-78.0,127.0,127.0,127.0,112.0,85.0,-89.0
127.0,126.0,126.0,127.0,127.0,146.0,127.0,128.0,20.0,-106.0,-78.0,127.0,127.0,127.0,112.0,85.0,-89.0
127.0,125.0,126.0,127.0,127.0,145.0,127.0,128.0,20.0,-106.0,-78.0,127.0,127.0,127.0,112.0,85.0,-89.0
127.0,126.0,125.0,127.0,127.0,147.0,127.0,128.0,20.0,-106.0,-78.0,127.0,127.0,127.0,112.0,85.0,-89.0
127.0,126.0,125.0,127.0,127.0,147.0,127.0,128.0,20.0,-106.0,-78.0,127.0,127.0,127.0,112.0,85.0,-89.0
127.0,126.0,125.0,127.0,127.0,147.0,127.0,128.0,20.0,-106.0,-78.0,127.0,127.0,127.0,112.0,85.0,-89.0
127.0,126.0,125.0,127.0,127.0,147.0,127.0,128.0,20.0,-106.0,-78.0,127.0,127.0,127.0,112.0,85.0,-89.0
127.0,126.0,125.0,127.0,127.0,147.0,127.0,128.0,20.0,-106.0,-78.0,127.0,127.0,127.0,112.0,85.0,-89.0
127.0,126.0,125.0,127.0,127.0,146.0,127.0,128.0,20.0,-106.0,-78.0,127.0,127.0,127.0,112.0,85.0,-89.0
127.0,126.0,126.0,127.0,127.0,146.0,127.0,128.0,20.0,-106.0,-78.0,127.0,127.0,127.0,112.0,85.0,-89.0
127.0,126.0,125.0,127.0,127.0,145.0,127.0,128.0,20.0,-106.0,-78.0,127.0,127.0,127.0,112.0,85.0,-89.0
127.0,126.0,124.0,127.0,127.0,146.0,127.0,128.0,20.0,-106.0,-78.0,127.0,127.0,127.0,112.0,85.0,-89.0
127.0,125.0,126.0,127.0,127.0,144.0,127.0,128.0,20.0,-106.0,-78.0,127.0,127.0,127.0,112.0,85.0,-89.0
127.0,125.0,125.0,127.0,127.0,144.0,127.0,128.0,20.0,-106.0,-78.0,127.0,127.0,127.0,112.0,85.0,-89.0
127.0,125.0,125.0,127.0,127.0,144.0,127.0,128.0,20.0,-106.0,-78.0,127.0,127.0,127.0,112.0,85.0,-89.0
127.0,126.0,125.0,127.0,127.0,146.0,127.0,128.0,20.0,-106.0,-78.0,127.0,127.0,127.0,112.0,85.0,-89.0
127.0,126.0,124.0,127.0,127.0,146.0,127.0,128.0,20.0,-106.0,-78.0,127.0,127.0,127.0,112.0,85.0,-89.0
127.0,126.0,125.0,127.0,127.0,145.0,127.0,128.0,20.0,-106.0,-78.0,127.0,127.0,127.0,112.0,85.0,-89.0
127.0,126.0,125.0,127.0,127.0,145.0,127.0,128.0,20.0,-106.0,-78.0,127.0,127.0,127.0,112.0,85.0,-89.0
127.0,126.0,125.0,127.0,127.0,145.0,127.0,128.0,20.0,-106.0,-78.0,127.0,127.0,127.0,112.0,85.0,-89.0
127.0,125.0,126.0,127.0,127.0,145.0,127.0,128.0,20.0,-106.0,-78.0,127.0,127.0,127.0,112.0,85.0,-89.0
127.0,126.0,125.0,127.0,127.0,146.0,127.0,128.0,20.0,-106.0,-78.0,127.0,127.0,127.0,112.0,85.0,-89.0
127.0,126.0,125.0,127.0,127.0,146.0,127.0,128.0,20.0,-106.0,-78.0,127.0,127.0,127.0,112.0,85.0,-89.0
127.0,126.0,125.0,127.0,127.0,146.0,127.0,128.0,20.0,-106.0,-78.0,127.0,127.0,127.0,112.0,85.0,-89.0
127.0,126.0,125.0,127.0,127.0,146.0,127.0,128.0,20.0,-106.0,-78.0,127.0,127.0,127.0,112.0,85.0,-89.0
127.0,126.0,125.0,127.0,127.0,145.0,127.0,128.0,20.0,-106.0,-78.0,127.0,127.0,127.0,112.0,85.0,-89.0
127.0,126.0,125.0,127.0,127.0,145.0,127.0,128.0,20.0,-106.0,-78.0,127.0,127.0,127.0,112.0,85.0,-89.0
127.0,125.0,125.0,127.0,127.0,145.0,127.0,128.0,20.0,-106.0,-78.0,127.0,127.0,127.0,112.0,85.0,-89.0
127.0,125.0,125.0,127.0,127.0,145.0,127.0,128.0,20.0,-106.0,-78.0,127.0,127.0,127.0,112.0,85.0,-89.0
127.0,125.0,125.0,127.0,127.0,145.0,127.0,128.0,20.0,-106.0,-78.0,127.0,127.0,127.0,112.0,85.0,-89.0
127.0,126.0,126.0,127.0,127.0,146.0,127.0,128.0,20.0,-106.0,-78.0,127.0,127.0,127.0,112.0,85.0,-89.0
127.0,126.0,126.0,127.0,127.0,146.0,127.0,128.0,20.0,-106.0,-78.0,127.0,127.0,127.0,112.0,85.0,-89.0
127.0,126.0,126.0,127.0,127.0,146.0,127.0,128.0,20.0,-106.0,-78.0,127.0,127.0,127.0,112.0,85.0,-89.0
127.0,126.0,126.0,127.0,127.0,146.0,127.0,128.0,20.0,-106.0,-78.0,127.0,127.0,127.0,112.0,85.0,-89.0
127.0,126.0,127.0,127.0,127.0,146.0,127.0,128.0,20.0,-106.0,-78.0,127.0,127.0,127.0,112.0,85.0,-89.0
127.0,126.0,127.0,127.0,127.0,145.0,127.0,128.0,20.0,-106.0,-78.0,127.0,127.0,127.0,112.0,85.0,-89.0
127.0,125.0,127.0,127.0,127.0,145.0,127.0,128.0,20.0,-106.0,-78.0,127.0,127.0,127.0,112.0,85.0,-89.0
127.0,125.0,127.0,127.0,127.0,145.0,127.0,128.0,20.0,-106.0,-78.0,127.0,127.0,127.0,112.0,85.0,-89.0
127.0,125.0,127.0,127.0,127.0,145.0,127.0,128.0,20.0,-106.0,-78.0,127.0,127.0,127.0,112.0,85.0,-89.0
127.0,125.0,127.0,127.0,127.0,145.0,127.0,128.0,20.0,-106.0,-78.0,127.0,127.0,127.0,112.0,85.0,-89.0
127.0,126.0,127.0,127.0,127.0,146.0,126.0,128.0,20.0,-106.0,-78.0,127.0,127.0,127.0,112.0,85.0,-89.0
127.0,126.0,127.0,127.0,127.0,146.0,126.0,128.0,20.0,-106.0,-78.0,127.0,127.0,127.0,112.0,85.0,-89.0
127.0,126.0,127.0,127.0,127.0,146.0,126.0,128.0,20.0,-106.0,-78.0,127.0,127.0,127.0,112.0,85.0,-89.0
127.0,125.0,127.0,127.0,127.0,145.0,126.0,128.0,20.0,-106.0,-78.0,127.0,127.0,127.0,112.0,85.0,-89.0
127.0,125.0,127.0,127.0,127.0,145.0,126.0,128.0,20.0,-106.0,-78.0,127.0,127.0,127.0,112.0,85.0,-89.0
127.0,125.0,127.0,127.0,127.0,145.0,126.0,128.0,20.0,-106.0,-78.0,127.0,127.0,127.0,112.0,85.0,-89.0
127.0,125.0,127.0,127.0,127.0,145.0,127.0,128.0,20.0,-106.0,-78.0,127.0,127.0,127.0,112.0,85.0,-89.0
127.0,125.0,127.0,127.0,127.0,145.0,126.0,128.0,20.0,-106.0,-78.0,127.0,127.0,127.0,112.0,85.0,-89.0
127.0,125.0,127.0,127.0,127.0,144.0,126.0,128.0,20.0,-106.0,-78.0,127.0,127.0,127.0,112.0,85.0,-89.0
127.0,126.0,127.0,127.0,127.0,146.0,126.0,128.0,20.0,-106.0,-78.0,127.0,127.0,127.0,112.0,85.0,-89.0
127.0,126.0,126.0,127.0,127.0,146.0,127.0,128.0,20.0,-106.0,-78.0,127.0,127.0,127.0,112.0,85.0,-89.0
127.0,126.0,126.0,127.0,127.0,145.0,127.0,128.0,20.0,-106.0,-78.0,127.0,127.0,127.0,112.0,85.0,-89.0
127.0,126.0,126.0,127.0,127.0,145.0,127.0,128.0,20.0,-106.0,-78.0,127.0,127.0,127.0,112.0,85.0,-89.0
127.0,126.0,127.0,127.0,127.0,145.0,127.0,128.0,20.0,-106.0,-78.0,127.0,127.0,127.0,112.0,85.0,-89.0
127.0,125.0,127.0,127.0,127.0,145.0,127.0,128.0,20.0,-106.0,-78.0,127.0,127.0,127.0,112.0,85.0,-89.0
127.0,125.0,127.0,127.0,127.0,144.0,127.0,128.0,20.0,-106.0,-78.0,127.0,127.0,127.0,112.0,85.0,-89.0
127.0,125.0,127.0,127.0,127.0,144.0,127.0,128.0,20.0,-106.0,-78.0,127.0,127.0,127.0,112.0,85.0,-89.0
127.0,125.0,127.0,127.0,127.0,144.0,127.0,128.0,20.0,-106.0,-78.0,127.0,127.0,127.0,112.0,85.0,-89.0
127.0,126.0,126.0,127.0,127.0,146.0,127.0,128.0,20.0,-106.0,-78.0,127.0,127.0,127.0,112.0,85.0,-89.0
127.0,126.0,126.0,127.0,127.0,146.0,127.0,128.0,20.0,-106.0,-78.0,127.0,127.0,127.0,112.0,85.0,-89.0
126.0,126.0,126.0,127.0,127.0,147.0,127.0,128.0,20.0,-106.0,-78.0,127.0,127.0,127.0,112.0,85.0,-89.0
127.0,126.0,126.0,127.0,127.0,146.0,127.0,128.0,20.0,-106.0,-78.0,127.0,127.0,127.0,112.0,85.0,-89.0
127.0,126.0,126.0,127.0,127.0,146.0,127.0,128.0,20.0,-106.0,-78.0,127.0,127.0,127.0,112.0,85.0,-89.0
127.0,126.0,126.0,127.0,127.0,146.0,127.0,128.0,20.0,-106.0,-78.0,127.0,127.0,127.0,112.0,85.0,-89.0
127.0,126.0,127.0,127.0,127.0,146.0,127.0,128.0,20.0,-106.0,-78.0,127.0,127.0,127.0,112.0,85.0,-89.0
127.0,126.0,127.0,127.0,127.0,146.0,127.0,128.0,20.0,-106.0,-78.0,127.0,127.0,127.0,112.0,85.0,-89.0
127.0,126.0,127.0,127.0,127.0,145.0,127.0,128.0,20.0,-106.0,-78.0,127.0,127.0,127.0,112.0,85.0,-89.0
126.0,126.0,126.0,127.0,127.0,146.0,127.0,128.0,20.0,-106.0,-78.0,127.0,127.0,127.0,112.0,85.0,-89.0
126.0,126.0,126.0,127.0,127.0,147.0,127.0,128.0,20.0,-106.0,-78.0,127.0,127.0,127.0,112.0,85.0,-89.0
126.0,126.0,126.0,127.0,127.0,147.0,127.0,128.0,20.0,-106.0,-78.0,127.0,127.0,127.0,112.0,85.0,-89.0
127.0,126.0,126.0,127.0,127.0,147.0,127.0,128.0,20.0,-106.0,-78.0,127.0,127.0,127.0,112.0,85.0,-89.0
127.0,126.0,126.0,127.0,127.0,147.0,127.0,128.0,20.0,-106.0,-78.0,127.0,127.0,127.0,112.0,85.0,-89.0
127.0,126.0,126.0,127.0,127.0,146.0,127.0,128.0,20.0,-106.0,-78.0,127.0,127.0,127.0,112.0,85.0,-89.0
127.0,126.0,126.0,127.0,127.0,146.0,127.0,128.0,20.0,-106.0,-78.0,127.0,127.0,127.0,112.0,85.0,-89.0
127.0,126.0,126.0,127.0,127.0,146.0,127.0,128.0,20.0,-106.0,-78.0,127.0,127.0,127.0,112.0,85.0,-89.0
127.0,126.0,127.0,127.0,127.0,145.0,127.0,128.0,20.0,-106.0,-78.0,127.0,127.0,127.0,112.0,85.0,-89.0
127.0,126.0,127.0,127.0,127.0,145.0,127.0,128.0,20.0,-106.0,-78.0,127.0,127.0,127.0,112.0,85.0,-89.0
127.0,126.0,126.0,127.0,127.0,146.0,127.0,128.0,20.0,-106.0,-78.0,127.0,127.0,127.0,112.0,85.0,-89.0
127.0,126.0,126.0,127.0,127.0,146.0,127.0,128.0,20.0,-106.0,-78.0,127.0,127.0,127.0,112.0,85.0,-89.0
127.0,126.0,126.0,127.0,127.0,146.0,127.0,128.0,20.0,-106.0,-78.0,127.0,127.0,127.0,112.0,85.0,-89.0
127.0,126.0,126.0,127.0,127.0,146.0,127.0,128.0,20.0,-106.0,-78.0,127.0,127.0,127.0,112.0,85.0,-89.0
127.0,126.0,126.0,127.0,127.0,145.0,127.0,128.0,20.0,-106.0,-78.0,127.0,127.0,127.0,112.0,85.0,-89.0
127.0,126.0,126.0,127.0,127.0,145.0,127.0,128.0,20.0,-106.0,-78.0,127.0,127.0,127.0,112.0,85.0,-89.0
127.0,126.0,126.0,127.0,127.0,145.0,127.0,128.0,20.0,-106.0,-78.0,127.0,127.0,127.0,112.0,85.0,-89.0
127.0,126.0,127.0,127.0,127.0,145.0,127.0,128.0,20.0,-106.0,-78.0,127.0,127.0,127.0,112.0,85.0,-89.0
127.0,126.0,127.0,127.0,127.0,144.0,127.0,128.0,20.0,-106.0,-78.0,127.0,127.0,127.0,112.0,85.0,-89.0
127.0,126.0,127.0,127.0,127.0,144.0,127.0,128.0,20.0,-106.0,-78.0,127.0,127.0,127.0,112.0,85.0,-89.0
127.0,126.0,127.0,127.0,127.0,144.0,127.0,128.0,20.0,-106.0,-78.0,127.0,127.0,127.0,112.0,85.0,-89.0
127.0,126.0,127.0,127.0,127.0,144.0,127.0,127.0,20.0,-106.0,-78.0,127.0,127.0,127.0,112.0,85.0,-89.0
127.0,126.0,126.0,127.0,127.0,146.0,127.0,128.0,20.0,-106.0,-78.0,127.0,127.0,127.0,112.0,85.0,-89.0
127.0,125.0,127.0,127.0,127.0,143.0,127.0,128.0,20.0,-106.0,-78.0,127.0,127.0,127.0,112.0,85.0,-89.0
127.0,126.0,127.0,127.0,127.0,144.0,127.0,128.0,20.0,-106.0,-78.0,127.0,127.0,127.0,112.0,85.0,-89.0
127.0,126.0,127.0,127.0,127.0,144.0,127.0,128.0,20.0,-106.0,-78.0,127.0,127.0,127.0,112.0,85.0,-89.0
127.0,125.0,127.0,127.0,127.0,143.0,127.0,128.0,20.0,-106.0,-78.0,127.0,127.0,127.0,112.0,85.0,-89.0
127.0,125.0,127.0,127.0,127.0,143.0,127.0,128.0,20.0,-106.0,-78.0,127.0,127.0,127.0,112.0,85.0,-89.0
127.0,125.0,127.0,127.0,127.0,142.0,127.0,128.0,20.0,-106.0,-78.0,127.0,127.0,127.0,112.0,85.0,-89.0
127.0,125.0,127.0,127.0,127.0,143.0,127.0,128.0,20.0,-106.0,-78.0,127.0,127.0,127.0,112.0,85.0,-89.0
127.0,125.0,127.0,127.0,127.0,143.0,127.0,128.0,20.0,-106.0,-78.0,127.0,127.0,127.0,112.0,85.0,-89.0
127.0,125.0,128.0,127.0,127.0,143.0,127.0,128.0,20.0,-106.0,-78.0,127.0,127.0,127.0,112.0,85.0,-89.0
127.0,125.0,127.0,127.0,127.0,143.0,127.0,128.0,20.0,-106.0,-78.0,127.0,127.0,127.0,112.0,85.0,-89.0
127.0,125.0,127.0,127.0,127.0,144.0,127.0,128.0,20.0,-106.0,-78.0,127.0,127.0,127.0,112.0,85.0,-89.0
127.0,125.0,127.0,127.0,127.0,144.0,127.0,128.0,20.0,-106.0,-78.0,127.0,127.0,127.0,112.0,85.0,-89.0
127.0,125.0,127.0,127.0,127.0,144.0,127.0,128.0,20.0,-106.0,-78.0,127.0,127.0,127.0,112.0,85.0,-89.0
127.0,125.0,127.0,127.0,127.0,144.0,127.0,128.0,20.0,-106.0,-78.0,127.0,127.0,127.0,112.0,85.0,-89.0
127.0,126.0,127.0,127.0,127.0,145.0,127.0,128.0,20.0,-106.0,-78.0,127.0,127.0,127.0,112.0,85.0,-89.0
127.0,126.0,127.0,127.0,127.0,145.0,127.0,128.0,20.0,-106.0,-78.0,127.0,127.0,127.0,112.0,85.0,-89.0
127.0,126.0,127.0,127.0,127.0,145.0,127.0,128.0,20.0,-106.0,-78.0,127.0,127.0,127.0,112.0,85.0,-89.0
127.0,126.0,127.0,127.0,127.0,145.0,127.0,128.0,20.0,-106.0,-78.0,127.0,127.0,127.0,112.0,85.0,-89.0
127.0,126.0,127.0,127.0,127.0,145.0,127.0,128.0,20.0,-106.0,-78.0,127.0,127.0,127.0,112.0,85.0,-89.0
127.0,126.0,127.0,127.0,127.0,145.0,127.0,128.0,20.0,-106.0,-78.0,127.0,127.0,127.0,112.0,85.0,-89.0
127.0,125.0,127.0,127.0,127.0,144.0,126.0,128.0,20.0,-107.0,-78.0,127.0,127.0,127.0,112.0,85.0,-89.0
127.0,125.0,127.0,127.0,127.0,144.0,126.0,128.0,20.0,-107.0,-78.0,127.0,127.0,127.0,112.0,85.0,-89.0
127.0,125.0,127.0,127.0,127.0,144.0,126.0,128.0,20.0,-107.0,-78.0,127.0,127.0,127.0,112.0,85.0,-89.0
127.0,126.0,126.0,127.0,127.0,145.0,126.0,128.0,20.0,-107.0,-78.0,127.0,127.0,127.0,112.0,85.0,-89.0
127.0,126.0,126.0,127.0,127.0,145.0,126.0,128.0,20.0,-107.0,-78.0,127.0,127.0,127.0,112.0,85.0,-89.0
127.0,126.0,126.0,127.0,127.0,145.0,126.0,128.0,20.0,-107.0,-78.0,127.0,127.0,127.0,112.0,85.0,-89.0
127.0,126.0,126.0,127.0,127.0,145.0,126.0,128.0,20.0,-107.0,-78.0,127.0,127.0,127.0,112.0,85.0,-89.0
127.0,126.0,126.0,127.0,127.0,145.0,126.0,128.0,20.0,-107.0,-78.0,127.0,127.0,127.0,112.0,85.0,-89.0
127.0,126.0,126.0,127.0,127.0,145.0,126.0,128.0,20.0,-107.0,-78.0,127.0,127.0,127.0,112.0,85.0,-89.0
127.0,126.0,127.0,127.0,127.0,145.0,126.0,128.0,20.0,-107.0,-78.0,127.0,127.0,127.0,112.0,85.0,-89.0
127.0,126.0,127.0,127.0,127.0,144.0,126.0,128.0,20.0,-107.0,-78.0,127.0,127.0,127.0,112.0,85.0,-89.0
127.0,126.0,127.0,127.0,127.0,144.0,126.0,128.0,20.0,-107.0,-78.0,127.0,127.0,127.0,112.0,85.0,-89.0
127.0,126.0,127.0,127.0,127.0,145.0,126.0,128.0,20.0,-107.0,-78.0,127.0,127.0,127.0,112.0,85.0,-89.0
127.0,126.0,127.0,127.0,127.0,146.0,126.0,128.0,20.0,-107.0,-78.0,127.0,127.0,127.0,112.0,85.0,-89.0
127.0,126.0,127.0,127.0,127.0,146.0,126.0,128.0,20.0,-107.0,-78.0,127.0,127.0,127.0,112.0,85.0,-89.0
127.0,126.0,127.0,127.0,127.0,145.0,127.0,128.0,20.0,-107.0,-78.0,127.0,127.0,127.0,112.0,85.0,-89.0
127.0,126.0,127.0,127.0,127.0,145.0,126.0,128.0,20.0,-107.0,-78.0,127.0,127.0,127.0,112.0,85.0,-89.0
127.0,126.0,127.0,127.0,127.0,145.0,126.0,128.0,20.0,-107.0,-78.0,127.0,127.0,127.0,112.0,85.0,-89.0
127.0,126.0,127.0,127.0,127.0,145.0,127.0,128.0,20.0,-107.0,-78.0,127.0,127.0,127.0,112.0,85.0,-89.0
127.0,126.0,127.0,127.0,127.0,145.0,127.0,128.0,20.0,-107.0,-78.0,127.0,127.0,127.0,112.0,85.0,-89.0
127.0,125.0,126.0,127.0,127.0,144.0,127.0,128.0,20.0,-107.0,-78.0,127.0,127.0,127.0,112.0,85.0,-89.0
127.0,126.0,126.0,127.0,127.0,144.0,127.0,128.0,20.0,-107.0,-78.0,127.0,127.0,127.0,112.0,85.0,-89.0
127.0,126.0,126.0,127.0,127.0,145.0,127.0,128.0,20.0,-107.0,-78.0,127.0,127.0,127.0,112.0,85.0,-89.0
127.0,126.0,126.0,127.0,127.0,145.0,127.0,128.0,20.0,-107.0,-78.0,127.0,127.0,127.0,112.0,85.0,-89.0
127.0,126.0,126.0,127.0,127.0,145.0,127.0,128.0,20.0,-107.0,-78.0,127.0,127.0,127.0,112.0,85.0,-89.0
127.0,126.0,126.0,127.0,127.0,144.0,127.0,128.0,20.0,-107.0,-78.0,127.0,127.0,127.0,112.0,85.0,-89.0
127.0,126.0,126.0,127.0,127.0,145.0,127.0,128.0,20.0,-107.0,-78.0,127.0,127.0,127.0,112.0,85.0,-89.0
127.0,126.0,126.0,127.0,127.0,144.0,127.0,128.0,20.0,-107.0,-78.0,127.0,127.0,127.0,112.0,85.0,-89.0
127.0,126.0,126.0,127.0,127.0,144.0,127.0,128.0,20.0,-107.0,-78.0,127.0,127.0,127.0,112.0,85.0,-89.0
127.0,125.0,126.0,127.0,127.0,144.0,127.0,128.0,20.0,-107.0,-78.0,127.0,127.0,127.0,112.0,85.0,-89.0
127.0,126.0,126.0,127.0,127.0,145.0,126.0,128.0,20.0,-107.0,-78.0,127.0,127.0,127.0,112.0,85.0,-89.0
127.0,126.0,126.0,127.0,127.0,145.0,126.0,128.0,20.0,-107.0,-78.0,127.0,127.0,127.0,112.0,85.0,-89.0
127.0,126.0,126.0,127.0,127.0,145.0,127.0,128.0,20.0,-107.0,-78.0,127.0,127.0,127.0,112.0,85.0,-89.0
127.0,126.0,126.0,127.0,127.0,145.0,127.0,128.0,20.0,-107.0,-78.0,127.0,127.0,127.0,112.0,85.0,-89.0
127.0,126.0,126.0,127.0,127.0,145.0,127.0,128.0,20.0,-107.0,-78.0,127.0,127.0,127.0,112.0,85.0,-89.0
127.0,126.0,126.0,127.0,127.0,145.0,127.0,128.0,20.0,-107.0,-78.0,127.0,127.0,127.0,112.0,85.0,-89.0
127.0,126.0,126.0,127.0,127.0,145.0,127.0,128.0,20.0,-107.0,-78.0,127.0,127.0,127.0,112.0,85.0,-89.0
127.0,126.0,126.0,127.0,127.0,145.0,127.0,128.0,20.0,-107.0,-78.0,127.0,127.0,127.0,112.0,85.0,-89.0
127.0,125.0,126.0,127.0,127.0,144.0,127.0,128.0,20.0,-107.0,-78.0,127.0,127.0,127.0,112.0,85.0,-89.0
127.0,125.0,127.0,127.0,127.0,144.0,126.0,128.0,20.0,-107.0,-78.0,127.0,127.0,127.0,112.0,85.0,-89.0
127.0,126.0,126.0,127.0,127.0,145.0,126.0,128.0,20.0,-107.0,-78.0,127.0,127.0,127.0,112.0,85.0,-89.0
127.0,126.0,126.0,127.0,127.0,145.0,126.0,128.0,20.0,-107.0,-78.0,127.0,127.0,127.0,112.0,85.0,-89.0
127.0,126.0,126.0,127.0,127.0,145.0,126.0,128.0,20.0,-107.0,-78.0,127.0,127.0,127.0,112.0,85.0,-89.0
127.0,126.0,127.0,127.0,127.0,145.0,126.0,128.0,20.0,-107.0,-78.0,127.0,127.0,127.0,112.0,85.0,-89.0
127.0,126.0,126.0,127.0,127.0,145.0,126.0,128.0,20.0,-107.0,-78.0,127.0,127.0,127.0,112.0,85.0,-89.0
127.0,126.0,127.0,127.0,127.0,145.0,127.0,128.0,20.0,-107.0,-78.0,127.0,127.0,127.0,112.0,85.0,-89.0
127.0,126.0,126.0,127.0,127.0,144.0,126.0,128.0,20.0,-107.0,-78.0,127.0,127.0,127.0,112.0,85.0,-89.0
127.0,126.0,127.0,127.0,127.0,144.0,126.0,128.0,20.0,-107.0,-78.0,127.0,127.0,127.0,112.0,85.0,-89.0
127.0,126.0,127.0,127.0,127.0,144.0,126.0,128.0,20.0,-107.0,-78.0,127.0,127.0,127.0,112.0,85.0,-89.0
127.0,126.0,127.0,127.0,127.0,144.0,126.0,128.0,20.0,-107.0,-78.0,127.0,127.0,127.0,112.0,85.0,-89.0
127.0,126.0,126.0,127.0,127.0,145.0,126.0,128.0,20.0,-107.0,-78.0,127.0,127.0,127.0,112.0,85.0,-89.0
127.0,126.0,126.0,127.0,127.0,145.0,126.0,128.0,20.0,-107.0,-78.0,127.0,127.0,127.0,112.0,85.0,-89.0
127.0,126.0,126.0,127.0,127.0,145.0,126.0,128.0,20.0,-107.0,-78.0,127.0,127.0,127.0,112.0,85.0,-89.0
127.0,126.0,126.0,127.0,127.0,145.0,126.0,128.0,20.0,-107.0,-78.0,127.0,127.0,127.0,112.0,85.0,-89.0
127.0,126.0,126.0,127.0,127.0,145.0,126.0,128.0,20.0,-107.0,-78.0,127.0,127.0,127.0,112.0,85.0,-89.0
127.0,126.0,126.0,127.0,127.0,144.0,126.0,128.0,20.0,-107.0,-78.0,127.0,127.0,127.0,112.0,85.0,-89.0
127.0,126.0,127.0,127.0,127.0,144.0,126.0,128.0,20.0,-107.0,-78.0,127.0,127.0,127.0,112.0,85.0,-89.0
127.0,126.0,127.0,127.0,127.0,144.0,126.0,128.0,20.0,-107.0,-78.0,127.0,127.0,127.0,112.0,85.0,-89.0
127.0,126.0,127.0,127.0,127.0,144.0,126.0,128.0,20.0,-107.0,-78.0,127.0,127.0,127.0,112.0,85.0,-89.0
127.0,126.0,126.0,127.0,127.0,145.0,126.0,128.0,20.0,-107.0,-78.0,127.0,127.0,127.0,112.0,85.0,-89.0
127.0,125.0,128.0,127.0,127.0,143.0,127.0,128.0,20.0,-107.0,-78.0,127.0,127.0,127.0,112.0,85.0,-89.0
127.0,126.0,127.0,127.0,127.0,144.0,127.0,128.0,20.0,-107.0,-78.0,127.0,127.0,127.0,112.0,85.0,-89.0
127.0,126.0,127.0,127.0,127.0,144.0,127.0,128.0,20.0,-107.0,-78.0,127.0,127.0,127.0,112.0,85.0,-89.0
127.0,126.0,127.0,127.0,127.0,144.0,127.0,128.0,20.0,-107.0,-78.0,127.0,127.0,127.0,112.0,85.0,-89.0
127.0,125.0,127.0,127.0,127.0,144.0,127.0,128.0,20.0,-107.0,-78.0,127.0,127.0,127.0,112.0,85.0,-89.0
127.0,125.0,128.0,127.0,127.0,143.0,127.0,128.0,20.0,-107.0,-78.0,127.0,127.0,127.0,112.0,85.0,-89.0
127.0,125.0,128.0,127.0,127.0,143.0,127.0,128.0,20.0,-107.0,-78.0,127.0,127.0,127.0,112.0,85.0,-89.0
127.0,125.0,128.0,127.0,127.0,143.0,127.0,127.0,20.0,-107.0,-78.0,127.0,127.0,127.0,112.0,85.0,-89.0
127.0,125.0,128.0,127.0,127.0,143.0,127.0,128.0,20.0,-107.0,-78.0,127.0,127.0,127.0,112.0,85.0,-89.0
127.0,125.0,128.0,127.0,127.0,143.0,127.0,127.0,20.0,-107.0,-78.0,127.0,127.0,127.0,112.0,85.0,-89.0
127.0,126.0,126.0,127.0,127.0,145.0,127.0,128.0,20.0,-107.0,-78.0,127.0,127.0,127.0,112.0,85.0,-89.0
127.0,126.0,126.0,127.0,127.0,145.0,127.0,128.0,20.0,-107.0,-78.0,127.0,127.0,127.0,112.0,85.0,-89.0
127.0,126.0,126.0,127.0,127.0,145.0,127.0,128.0,20.0,-107.0,-78.0,127.0,127.0,127.0,112.0,85.0,-89.0
127.0,125.0,127.0,127.0,127.0,144.0,127.0,128.0,20.0,-107.0,-78.0,127.0,127.0,127.0,112.0,85.0,-89.0
127.0,126.0,127.0,127.0,127.0,145.0,126.0,128.0,20.0,-107.0,-78.0,127.0,127.0,127.0,112.0,85.0,-89.0
127.0,126.0,127.0,127.0,127.0,145.0,127.0,128.0,20.0,-107.0,-78.0,127.0,127.0,127.0,112.0,85.0,-89.0
127.0,126.0,127.0,127.0,127.0,144.0,126.0,128.0,20.0,-107.0,-78.0,127.0,127.0,127.0,112.0,85.0,-89.0
127.0,126.0,126.0,127.0,127.0,145.0,126.0,128.0,20.0,-107.0,-78.0,127.0,127.0,127.0,112.0,85.0,-89.0
127.0,126.0,126.0,127.0,127.0,145.0,126.0,128.0,20.0,-107.0,-78.0,127.0,127.0,127.0,112.0,85.0,-89.0
127.0,126.0,126.0,127.0,127.0,145.0,127.0,128.0,20.0,-107.0,-78.0,127.0,127.0,127.0,112.0,85.0,-89.0
127.0,126.0,125.0,127.0,127.0,144.0,127.0,128.0,20.0,-107.0,-78.0,127.0,127.0,127.0,112.0,85.0,-89.0
127.0,126.0,125.0,127.0,127.0,144.0,127.0,128.0,20.0,-107.0,-78.0,127.0,127.0,127.0,112.0,85.0,-89.0
127.0,126.0,125.0,127.0,127.0,144.0,127.0,128.0,20.0,-107.0,-78.0,127.0,127.0,127.0,112.0,85.0,-89.0
127.0,125.0,126.0,127.0,127.0,144.0,127.0,128.0,20.0,-107.0,-78.0,127.0,127.0,127.0,112.0,85.0,-89.0
127.0,125.0,126.0,127.0,127.0,143.0,126.0,128.0,20.0,-107.0,-78.0,127.0,127.0,127.0,112.0,85.0,-89.0
127.0,125.0,126.0,127.0,127.0,144.0,126.0,128.0,20.0,-107.0,-78.0,127.0,127.0,127.0,112.0,85.0,-89.0
127.0,126.0,125.0,127.0,127.0,144.0,126.0,128.0,20.0,-107.0,-78.0,127.0,127.0,127.0,112.0,85.0,-89.0
127.0,126.0,125.0,127.0,127.0,145.0,126.0,128.0,20.0,-107.0,-78.0,127.0,127.0,127.0,112.0,85.0,-89.0
127.0,126.0,125.0,127.0,127.0,145.0,127.0,128.0,20.0,-107.0,-78.0,127.0,127.0,127.0,112.0,85.0,-89.0
127.0,126.0,125.0,127.0,127.0,144.0,127.0,128.0,20.0,-107.0,-78.0,127.0,127.0,127.0,112.0,85.0,-89.0
127.0,126.0,126.0,127.0,127.0,144.0,127.0,128.0,20.0,-107.0,-78.0,127.0,127.0,127.0,112.0,85.0,-89.0
127.0,126.0,126.0,127.0,127.0,144.0,127.0,128.0,20.0,-107.0,-78.0,127.0,127.0,127.0,112.0,85.0,-89.0
127.0,125.0,126.0,127.0,127.0,143.0,127.0,128.0,20.0,-107.0,-78.0,127.0,127.0,127.0,112.0,85.0,-89.0
127.0,125.0,126.0,127.0,127.0,143.0,127.0,128.0,20.0,-107.0,-78.0,127.0,127.0,127.0,112.0,85.0,-89.0
127.0,125.0,126.0,127.0,127.0,143.0,127.0,128.0,20.0,-107.0,-78.0,127.0,127.0,127.0,112.0,85.0,-89.0
127.0,126.0,126.0,127.0,127.0,144.0,127.0,128.0,20.0,-107.0,-78.0,127.0,127.0,127.0,112.0,85.0,-89.0
127.0,126.0,126.0,127.0,127.0,144.0,127.0,128.0,20.0,-107.0,-78.0,127.0,127.0,127.0,112.0,85.0,-89.0
127.0,126.0,126.0,127.0,127.0,144.0,127.0,128.0,20.0,-107.0,-78.0,127.0,127.0,127.0,112.0,85.0,-89.0
127.0,126.0,126.0,127.0,127.0,144.0,127.0,128.0,20.0,-107.0,-78.0,127.0,127.0,127.0,112.0,85.0,-89.0
127.0,126.0,126.0,127.0,127.0,144.0,127.0,128.0,20.0,-107.0,-78.0,127.0,127.0,127.0,112.0,85.0,-89.0
127.0,126.0,126.0,127.0,127.0,144.0,127.0,128.0,20.0,-107.0,-78.0,127.0,127.0,127.0,112.0,85.0,-89.0
127.0,126.0,127.0,127.0,127.0,144.0,127.0,128.0,20.0,-107.0,-78.0,127.0,127.0,127.0,112.0,85.0,-89.0
127.0,126.0,127.0,127.0,127.0,143.0,127.0,128.0,20.0,-107.0,-78.0,127.0,127.0,127.0,112.0,85.0,-89.0
127.0,126.0,126.0,127.0,127.0,143.0,127.0,128.0,20.0,-107.0,-78.0,127.0,127.0,127.0,112.0,85.0,-89.0
127.0,126.0,126.0,127.0,127.0,144.0,126.0,128.0,20.0,-107.0,-78.0,127.0,127.0,127.0,112.0,85.0,-89.0
127.0,126.0,126.0,127.0,127.0,145.0,127.0,128.0,20.0,-107.0,-78.0,127.0,127.0,127.0,112.0,85.0,-89.0
127.0,126.0,126.0,127.0,127.0,145.0,126.0,128.0,20.0,-107.0,-78.0,127.0,127.0,127.0,112.0,85.0,-89.0
127.0,126.0,126.0,127.0,127.0,144.0,127.0,128.0,20.0,-107.0,-78.0,127.0,127.0,127.0,112.0,85.0,-89.0
127.0,126.0,126.0,127.0,127.0,144.0,127.0,128.0,20.0,-107.0,-78.0,127.0,127.0,127.0,112.0,85.0,-89.0
127.0,126.0,126.0,127.0,127.0,144.0,126.0,128.0,20.0,-107.0,-78.0,127.0,127.0,127.0,112.0,85.0,-89.0
127.0,126.0,126.0,127.0,127.0,144.0,127.0,128.0,20.0,-107.0,-78.0,127.0,127.0,127.0,112.0,85.0,-89.0
127.0,126.0,126.0,127.0,127.0,144.0,127.0,128.0,20.0,-107.0,-78.0,127.0,127.0,127.0,112.0,85.0,-89.0
127.0,126.0,126.0,127.0,127.0,144.0,127.0,128.0,20.0,-107.0,-78.0,127.0,127.0,127.0,112.0,85.0,-89.0
127.0,126.0,126.0,127.0,127.0,144.0,127.0,128.0,20.0,-107.0,-78.0,127.0,127.0,127.0,112.0,85.0,-89.0
127.0,126.0,126.0,127.0,127.0,145.0,127.0,128.0,20.0,-107.0,-78.0,127.0,127.0,127.0,112.0,85.0,-89.0
127.0,126.0,126.0,127.0,127.0,145.0,127.0,128.0,20.0,-107.0,-78.0,127.0,127.0,127.0,112.0,85.0,-89.0
127.0,126.0,126.0,127.0,127.0,145.0,127.0,128.0,20.0,-107.0,-78.0,127.0,127.0,127.0,112.0,85.0,-89.0
127.0,126.0,126.0,127.0,127.0,145.0,127.0,128.0,20.0,-107.0,-78.0,127.0,127.0,127.0,112.0,85.0,-89.0
127.0,126.0,126.0,128.0,127.0,145.0,127.0,128.0,20.0,-107.0,-78.0,127.0,127.0,127.0,112.0,85.0,-89.0
127.0,126.0,126.0,127.0,127.0,144.0,127.0,128.0,20.0,-107.0,-78.0,127.0,127.0,127.0,112.0,85.0,-89.0
127.0,125.0,126.0,127.0,127.0,143.0,127.0,128.0,20.0,-107.0,-78.0,127.0,127.0,127.0,112.0,85.0,-89.0
126.0,126.0,126.0,127.0,127.0,143.0,127.0,128.0,20.0,-107.0,-78.0,127.0,127.0,127.0,112.0,85.0,-89.0
126.0,126.0,126.0,127.0,127.0,143.0,127.0,128.0,20.0,-107.0,-78.0,127.0,127.0,127.0,112.0,85.0,-89.0
127.0,126.0,125.0,127.0,127.0,144.0,126.0,128.0,20.0,-107.0,-78.0,127.0,127.0,127.0,112.0,85.0,-89.0
127.0,126.0,125.0,127.0,127.0,144.0,126.0,128.0,20.0,-107.0,-78.0,127.0,127.0,127.0,112.0,85.0,-89.0
127.0,126.0,125.0,127.0,127.0,144.0,127.0,128.0,20.0,-107.0,-78.0,127.0,127.0,127.0,112.0,85.0,-89.0
127.0,126.0,126.0,127.0,127.0,144.0,127.0,128.0,20.0,-107.0,-78.0,127.0,127.0,127.0,112.0,85.0,-89.0
127.0,126.0,126.0,128.0,127.0,144.0,127.0,128.0,20.0,-107.0,-78.0,127.0,127.0,127.0,112.0,85.0,-89.0
127.0,126.0,126.0,128.0,127.0,144.0,127.0,128.0,20.0,-107.0,-78.0,127.0,127.0,127.0,112.0,85.0,-89.0
127.0,126.0,126.0,127.0,127.0,143.0,127.0,128.0,20.0,-107.0,-78.0,127.0,127.0,127.0,112.0,85.0,-89.0
127.0,125.0,127.0,127.0,126.0,142.0,127.0,128.0,20.0,-107.0,-78.0,127.0,127.0,127.0,112.0,85.0,-89.0
127.0,125.0,126.0,127.0,126.0,142.0,127.0,128.0,20.0,-107.0,-78.0,127.0,127.0,127.0,112.0,85.0,-89.0
127.0,126.0,126.0,127.0,126.0,144.0,127.0,128.0,20.0,-107.0,-78.0,127.0,127.0,127.0,112.0,85.0,-89.0
127.0,126.0,126.0,127.0,126.0,144.0,127.0,128.0,20.0,-107.0,-78.0,127.0,127.0,127.0,112.0,85.0,-89.0
127.0,126.0,126.0,127.0,126.0,143.0,127.0,128.0,20.0,-107.0,-78.0,127.0,127.0,127.0,112.0,85.0,-89.0
127.0,126.0,126.0,127.0,126.0,143.0,127.0,128.0,20.0,-107.0,-78.0,127.0,127.0,127.0,112.0,85.0,-89.0
127.0,126.0,126.0,127.0,127.0,143.0,127.0,128.0,20.0,-107.0,-78.0,127.0,127.0,127.0,112.0,85.0,-89.0
127.0,126.0,126.0,127.0,127.0,143.0,127.0,128.0,20.0,-107.0,-78.0,127.0,127.0,127.0,112.0,85.0,-89.0
127.0,126.0,127.0,127.0,127.0,143.0,127.0,128.0,20.0,-107.0,-78.0,127.0,127.0,127.0,112.0,85.0,-89.0
127.0,126.0,127.0,127.0,126.0,142.0,127.0,128.0,20.0,-107.0,-78.0,127.0,127.0,127.0,112.0,85.0,-89.0
127.0,126.0,126.0,127.0,127.0,145.0,127.0,128.0,20.0,-107.0,-78.0,127.0,127.0,127.0,112.0,85.0,-89.0
127.0,126.0,126.0,127.0,127.0,144.0,127.0,128.0,20.0,-107.0,-78.0,127.0,127.0,127.0,112.0,85.0,-89.0
127.0,126.0,126.0,127.0,127.0,144.0,127.0,128.0,20.0,-107.0,-78.0,127.0,127.0,127.0,112.0,85.0,-89.0
127.0,126.0,126.0,127.0,127.0,144.0,127.0,128.0,20.0,-107.0,-78.0,127.0,127.0,127.0,112.0,85.0,-89.0
127.0,126.0,126.0,127.0,127.0,143.0,127.0,128.0,20.0,-107.0,-78.0,127.0,127.0,127.0,112.0,85.0,-89.0
127.0,126.0,127.0,127.0,127.0,143.0,127.0,128.0,20.0,-107.0,-78.0,127.0,127.0,127.0,112.0,85.0,-89.0
127.0,125.0,127.0,127.0,127.0,143.0,127.0,128.0,20.0,-107.0,-78.0,127.0,127.0,127.0,112.0,85.0,-89.0
127.0,126.0,125.0,127.0,127.0,145.0,127.0,128.0,20.0,-107.0,-78.0,127.0,127.0,127.0,112.0,85.0,-89.0
127.0,126.0,125.0,127.0,127.0,145.0,127.0,128.0,20.0,-107.0,-78.0,127.0,127.0,127.0,112.0,85.0,-89.0
127.0,126.0,125.0,127.0,127.0,145.0,127.0,128.0,20.0,-107.0,-78.0,127.0,127.0,127.0,112.0,85.0,-89.0
127.0,125.0,127.0,127.0,127.0,142.0,126.0,128.0,20.0,-107.0,-78.0,127.0,127.0,127.0,112.0,85.0,-89.0
127.0,125.0,127.0,127.0,127.0,142.0,126.0,128.0,20.0,-107.0,-78.0,127.0,127.0,127.0,112.0,85.0,-89.0
127.0,125.0,127.0,127.0,127.0,142.0,126.0,128.0,20.0,-107.0,-78.0,127.0,127.0,127.0,112.0,85.0,-89.0
127.0,125.0,127.0,127.0,127.0,142.0,126.0,128.0,20.0,-107.0,-78.0,127.0,127.0,127.0,112.0,85.0,-89.0
127.0,125.0,127.0,127.0,127.0,142.0,126.0,127.0,20.0,-107.0,-78.0,127.0,127.0,127.0,112.0,85.0,-89.0
127.0,125.0,126.0,127.0,127.0,142.0,126.0,128.0,20.0,-107.0,-78.0,127.0,127.0,127.0,112.0,85.0,-89.0
127.0,125.0,127.0,127.0,127.0,142.0,127.0,128.0,20.0,-107.0,-78.0,127.0,127.0,127.0,112.0,85.0,-89.0
127.0,125.0,127.0,127.0,127.0,142.0,126.0,128.0,20.0,-107.0,-78.0,127.0,127.0,127.0,112.0,85.0,-89.0
127.0,125.0,127.0,127.0,127.0,142.0,126.0,128.0,20.0,-107.0,-78.0,127.0,127.0,127.0,112.0,85.0,-89.0
127.0,125.0,127.0,127.0,127.0,142.0,126.0,128.0,20.0,-107.0,-78.0,127.0,127.0,127.0,112.0,85.0,-89.0
127.0,126.0,127.0,127.0,127.0,142.0,127.0,128.0,20.0,-107.0,-78.0,127.0,127.0,127.0,112.0,85.0,-89.0
127.0,126.0,127.0,127.0,127.0,142.0,127.0,128.0,20.0,-107.0,-78.0,127.0,127.0,127.0,112.0,85.0,-89.0
127.0,126.0,127.0,127.0,127.0,142.0,127.0,128.0,20.0,-107.0,-78.0,127.0,127.0,127.0,112.0,85.0,-89.0
127.0,126.0,126.0,127.0,127.0,143.0,127.0,128.0,20.0,-107.0,-78.0,127.0,127.0,127.0,112.0,85.0,-89.0
127.0,126.0,126.0,127.0,127.0,143.0,127.0,128.0,20.0,-107.0,-78.0,127.0,127.0,127.0,112.0,85.0,-89.0
127.0,126.0,128.0,127.0,127.0,141.0,127.0,128.0,20.0,-107.0,-78.0,127.0,127.0,127.0,112.0,85.0,-89.0
127.0,126.0,127.0,127.0,127.0,142.0,127.0,128.0,20.0,-107.0,-78.0,127.0,127.0,127.0,112.0,85.0,-89.0
127.0,126.0,127.0,127.0,127.0,143.0,127.0,128.0,20.0,-107.0,-78.0,127.0,127.0,127.0,112.0,85.0,-89.0
127.0,126.0,127.0,127.0,127.0,143.0,127.0,128.0,20.0,-107.0,-78.0,127.0,127.0,127.0,112.0,85.0,-89.0
127.0,126.0,127.0,127.0,127.0,142.0,127.0,128.0,20.0,-107.0,-78.0,127.0,127.0,127.0,112.0,85.0,-89.0
127.0,126.0,126.0,127.0,127.0,143.0,127.0,128.0,20.0,-107.0,-78.0,127.0,127.0,127.0,112.0,85.0,-89.0
127.0,126.0,126.0,127.0,127.0,143.0,126.0,128.0,20.0,-107.0,-78.0,127.0,127.0,127.0,112.0,85.0,-89.0
127.0,126.0,126.0,127.0,127.0,144.0,127.0,128.0,20.0,-107.0,-78.0,127.0,127.0,127.0,112.0,85.0,-89.0
127.0,125.0,126.0,127.0,127.0,142.0,127.0,128.0,20.0,-107.0,-78.0,127.0,127.0,127.0,112.0,85.0,-89.0
127.0,125.0,126.0,127.0,127.0,142.0,127.0,128.0,20.0,-107.0,-78.0,127.0,127.0,127.0,112.0,85.0,-89.0
126.0,126.0,126.0,127.0,127.0,143.0,127.0,128.0,20.0,-107.0,-78.0,127.0,127.0,127.0,112.0,85.0,-89.0
127.0,126.0,126.0,127.0,127.0,143.0,127.0,128.0,20.0,-107.0,-78.0,127.0,127.0,127.0,112.0,85.0,-89.0
127.0,126.0,126.0,127.0,127.0,143.0,127.0,128.0,20.0,-107.0,-78.0,127.0,127.0,127.0,112.0,85.0,-89.0
127.0,126.0,126.0,127.0,127.0,143.0,127.0,128.0,20.0,-107.0,-78.0,127.0,127.0,127.0,112.0,85.0,-89.0
127.0,126.0,126.0,127.0,127.0,143.0,127.0,128.0,20.0,-107.0,-78.0,127.0,127.0,127.0,112.0,85.0,-89.0
127.0,126.0,126.0,127.0,127.0,143.0,126.0,128.0,20.0,-107.0,-78.0,127.0,127.0,127.0,112.0,85.0,-89.0
127.0,126.0,126.0,127.0,127.0,144.0,126.0,128.0,20.0,-107.0,-78.0,127.0,127.0,127.0,112.0,85.0,-89.0
127.0,126.0,126.0,127.0,127.0,144.0,127.0,128.0,20.0,-107.0,-78.0,127.0,127.0,127.0,112.0,85.0,-89.0
127.0,125.0,127.0,127.0,127.0,142.0,127.0,128.0,20.0,-107.0,-78.0,127.0,127.0,127.0,112.0,85.0,-89.0
127.0,125.0,127.0,127.0,127.0,142.0,127.0,128.0,20.0,-107.0,-78.0,127.0,127.0,127.0,112.0,85.0,-89.0
127.0,126.0,126.0,127.0,127.0,143.0,126.0,128.0,20.0,-107.0,-78.0,127.0,127.0,127.0,112.0,85.0,-89.0
127.0,126.0,126.0,127.0,127.0,143.0,126.0,128.0,20.0,-107.0,-78.0,127.0,127.0,127.0,112.0,85.0,-89.0
127.0,126.0,127.0,127.0,127.0,143.0,127.0,128.0,20.0,-107.0,-78.0,127.0,127.0,127.0,112.0,85.0,-89.0
127.0,126.0,127.0,127.0,127.0,142.0,127.0,128.0,20.0,-107.0,-78.0,127.0,127.0,127.0,112.0,85.0,-89.0
127.0,126.0,126.0,127.0,127.0,143.0,127.0,128.0,20.0,-107.0,-78.0,127.0,127.0,127.0,112.0,85.0,-89.0
127.0,126.0,126.0,127.0,126.0,143.0,126.0,128.0,20.0,-107.0,-78.0,127.0,127.0,127.0,112.0,85.0,-89.0
127.0,126.0,126.0,127.0,127.0,144.0,126.0,128.0,20.0,-107.0,-78.0,127.0,127.0,127.0,112.0,85.0,-89.0
127.0,125.0,127.0,127.0,127.0,142.0,126.0,128.0,20.0,-107.0,-78.0,127.0,127.0,127.0,112.0,85.0,-89.0
127.0,125.0,127.0,127.0,126.0,142.0,126.0,127.0,20.0,-107.0,-78.0,127.0,127.0,127.0,112.0,85.0,-89.0
127.0,126.0,127.0,127.0,127.0,143.0,126.0,128.0,20.0,-107.0,-78.0,127.0,127.0,127.0,112.0,85.0,-89.0
127.0,126.0,126.0,127.0,127.0,143.0,126.0,128.0,20.0,-107.0,-78.0,127.0,127.0,127.0,112.0,85.0,-89.0
127.0,126.0,127.0,127.0,127.0,143.0,126.0,128.0,20.0,-107.0,-78.0,127.0,127.0,127.0,112.0,85.0,-89.0
127.0,126.0,127.0,127.0,127.0,142.0,126.0,128.0,20.0,-107.0,-78.0,127.0,127.0,127.0,112.0,85.0,-89.0
127.0,126.0,127.0,127.0,126.0,142.0,126.0,128.0,20.0,-107.0,-78.0,127.0,127.0,127.0,112.0,85.0,-89.0
127.0,126.0,127.0,127.0,126.0,142.0,126.0,128.0,20.0,-107.0,-78.0,127.0,127.0,127.0,112.0,85.0,-89.0
127.0,126.0,126.0,127.0,127.0,144.0,127.0,128.0,20.0,-107.0,-78.0,127.0,127.0,127.0,112.0,85.0,-89.0
127.0,125.0,128.0,127.0,126.0,141.0,126.0,128.0,20.0,-107.0,-78.0,127.0,127.0,127.0,112.0,85.0,-89.0
127.0,125.0,128.0,127.0,127.0,141.0,126.0,128.0,20.0,-107.0,-78.0,127.0,127.0,127.0,112.0,85.0,-89.0
127.0,126.0,127.0,127.0,127.0,143.0,126.0,128.0,20.0,-107.0,-78.0,127.0,127.0,127.0,112.0,85.0,-89.0
127.0,126.0,127.0,127.0,127.0,143.0,126.0,128.0,20.0,-107.0,-78.0,127.0,127.0,127.0,112.0,85.0,-89.0
127.0,126.0,127.0,127.0,127.0,143.0,126.0,128.0,20.0,-107.0,-78.0,127.0,127.0,127.0,112.0,85.0,-89.0
127.0,126.0,127.0,127.0,127.0,142.0,127.0,128.0,20.0,-107.0,-78.0,127.0,127.0,127.0,112.0,85.0,-89.0
127.0,126.0,127.0,127.0,127.0,142.0,127.0,128.0,20.0,-107.0,-78.0,127.0,127.0,127.0,112.0,85.0,-89.0
127.0,126.0,127.0,127.0,127.0,142.0,127.0,128.0,20.0,-107.0,-78.0,127.0,127.0,127.0,112.0,85.0,-89.0
127.0,126.0,127.0,127.0,127.0,143.0,126.0,128.0,20.0,-107.0,-78.0,127.0,127.0,127.0,112.0,85.0,-89.0
127.0,126.0,127.0,127.0,127.0,142.0,127.0,128.0,20.0,-107.0,-78.0,127.0,127.0,127.0,112.0,85.0,-89.0
127.0,126.0,127.0,127.0,127.0,142.0,127.0,127.0,20.0,-107.0,-78.0,127.0,127.0,127.0,112.0,85.0,-89.0
127.0,126.0,126.0,127.0,127.0,143.0,127.0,128.0,20.0,-107.0,-78.0,127.0,127.0,127.0,112.0,85.0,-89.0
127.0,126.0,126.0,127.0,127.0,143.0,127.0,128.0,20.0,-107.0,-78.0,127.0,127.0,127.0,112.0,85.0,-89.0
127.0,126.0,126.0,127.0,127.0,143.0,127.0,128.0,20.0,-107.0,-78.0,127.0,127.0,127.0,112.0,85.0,-89.0
127.0,126.0,126.0,127.0,127.0,143.0,127.0,128.0,20.0,-107.0,-78.0,127.0,127.0,127.0,112.0,85.0,-89.0
127.0,126.0,126.0,127.0,127.0,142.0,127.0,128.0,20.0,-107.0,-78.0,127.0,127.0,127.0,112.0,85.0,-89.0
127.0,126.0,126.0,127.0,127.0,143.0,127.0,128.0,20.0,-107.0,-78.0,127.0,127.0,127.0,112.0,85.0,-89.0
127.0,126.0,126.0,127.0,127.0,143.0,127.0,127.0,20.0,-107.0,-78.0,127.0,127.0,127.0,112.0,85.0,-89.0
127.0,126.0,125.0,127.0,127.0,144.0,127.0,128.0,20.0,-107.0,-78.0,127.0,127.0,127.0,112.0,85.0,-89.0
127.0,125.0,127.0,127.0,127.0,142.0,127.0,128.0,20.0,-107.0,-78.0,127.0,127.0,127.0,112.0,85.0,-89.0
127.0,125.0,127.0,127.0,127.0,142.0,127.0,128.0,20.0,-107.0,-78.0,127.0,127.0,127.0,112.0,85.0,-89.0
127.0,125.0,127.0,127.0,127.0,142.0,127.0,128.0,20.0,-107.0,-78.0,127.0,127.0,127.0,112.0,85.0,-89.0
127.0,125.0,127.0,127.0,127.0,142.0,127.0,128.0,20.0,-107.0,-78.0,127.0,127.0,127.0,112.0,85.0,-89.0
127.0,125.0,127.0,127.0,127.0,142.0,127.0,128.0,20.0,-107.0,-78.0,127.0,127.0,127.0,112.0,85.0,-89.0
127.0,125.0,127.0,127.0,127.0,142.0,127.0,128.0,20.0,-107.0,-78.0,127.0,127.0,127.0,112.0,85.0,-89.0
127.0,126.0,127.0,127.0,127.0,142.0,127.0,128.0,20.0,-107.0,-78.0,127.0,127.0,127.0,112.0,85.0,-89.0
127.0,125.0,127.0,127.0,127.0,142.0,127.0,128.0,20.0,-107.0,-78.0,127.0,127.0,127.0,112.0,85.0,-89.0
127.0,125.0,127.0,127.0,127.0,142.0,127.0,128.0,20.0,-107.0,-78.0,127.0,127.0,127.0,112.0,85.0,-89.0
127.0,125.0,127.0,127.0,126.0,142.0,127.0,128.0,20.0,-107.0,-78.0,127.0,127.0,127.0,112.0,85.0,-89.0
127.0,125.0,126.0,127.0,127.0,142.0,127.0,128.0,20.0,-107.0,-77.0,127.0,127.0,127.0,112.0,85.0,-89.0
127.0,125.0,126.0,127.0,127.0,142.0,127.0,128.0,20.0,-107.0,-77.0,127.0,127.0,127.0,112.0,85.0,-89.0
127.0,125.0,126.0,127.0,127.0,142.0,127.0,128.0,20.0,-107.0,-77.0,127.0,127.0,127.0,112.0,85.0,-89.0
126.0,125.0,126.0,127.0,127.0,142.0,127.0,128.0,20.0,-107.0,-77.0,127.0,127.0,127.0,112.0,85.0,-89.0
127.0,126.0,125.0,127.0,127.0,143.0,126.0,128.0,20.0,-107.0,-77.0,127.0,127.0,127.0,112.0,85.0,-89.0
127.0,126.0,125.0,127.0,127.0,143.0,126.0,128.0,20.0,-107.0,-77.0,127.0,127.0,127.0,112.0,85.0,-89.0
127.0,126.0,126.0,127.0,127.0,143.0,126.0,128.0,20.0,-107.0,-77.0,127.0,127.0,127.0,112.0,85.0,-89.0
127.0,126.0,126.0,127.0,127.0,143.0,127.0,128.0,20.0,-107.0,-77.0,127.0,127.0,127.0,112.0,85.0,-89.0
127.0,125.0,126.0,127.0,127.0,142.0,127.0,128.0,20.0,-107.0,-77.0,127.0,127.0,127.0,112.0,85.0,-89.0
126.0,125.0,126.0,127.0,127.0,142.0,127.0,128.0,20.0,-107.0,-77.0,127.0,127.0,127.0,112.0,85.0,-89.0
127.0,126.0,126.0,127.0,127.0,142.0,127.0,128.0,20.0,-107.0,-77.0,127.0,127.0,127.0,112.0,85.0,-89.0
127.0,126.0,126.0,127.0,127.0,142.0,127.0,128.0,20.0,-107.0,-77.0,127.0,127.0,127.0,112.0,85.0,-89.0
127.0,126.0,126.0,127.0,127.0,142.0,127.0,128.0,20.0,-107.0,-77.0,127.0,127.0,127.0,112.0,85.0,-89.0
127.0,126.0,125.0,127.0,127.0,143.0,126.0,128.0,20.0,-107.0,-77.0,127.0,127.0,127.0,112.0,85.0,-89.0
127.0,126.0,125.0,127.0,127.0,143.0,126.0,128.0,20.0,-107.0,-77.0,127.0,127.0,127.0,112.0,85.0,-89.0
127.0,126.0,125.0,127.0,127.0,143.0,126.0,128.0,20.0,-107.0,-77.0,127.0,127.0,127.0,112.0,85.0,-89.0
127.0,126.0,126.0,127.0,127.0,143.0,126.0,128.0,20.0,-107.0,-77.0,127.0,127.0,127.0,112.0,85.0,-89.0
127.0,126.0,126.0,127.0,127.0,143.0,127.0,128.0,20.0,-107.0,-77.0,127.0,127.0,127.0,112.0,85.0,-89.0
127.0,126.0,126.0,127.0,127.0,143.0,127.0,128.0,20.0,-107.0,-77.0,127.0,127.0,127.0,112.0,85.0,-89.0
127.0,126.0,126.0,127.0,127.0,142.0,127.0,128.0,20.0,-107.0,-77.0,127.0,127.0,127.0,112.0,85.0,-89.0
126.0,126.0,125.0,127.0,127.0,142.0,127.0,128.0,20.0,-107.0,-77.0,127.0,127.0,127.0,112.0,85.0,-89.0
126.0,126.0,125.0,127.0,127.0,142.0,127.0,128.0,20.0,-107.0,-77.0,127.0,127.0,127.0,112.0,85.0,-89.0
127.0,126.0,125.0,127.0,127.0,143.0,126.0,128.0,20.0,-107.0,-77.0,127.0,127.0,127.0,112.0,85.0,-89.0
126.0,126.0,124.0,127.0,127.0,143.0,127.0,128.0,20.0,-107.0,-77.0,127.0,127.0,127.0,112.0,85.0,-89.0
126.0,126.0,124.0,127.0,127.0,143.0,127.0,128.0,20.0,-107.0,-77.0,127.0,127.0,127.0,112.0,85.0,-89.0
126.0,126.0,126.0,127.0,127.0,141.0,127.0,128.0,20.0,-107.0,-77.0,127.0,127.0,127.0,112.0,85.0,-89.0
127.0,126.0,126.0,127.0,127.0,143.0,127.0,128.0,20.0,-107.0,-77.0,127.0,127.0,127.0,112.0,85.0,-89.0
127.0,126.0,125.0,127.0,127.0,143.0,127.0,128.0,20.0,-107.0,-77.0,127.0,127.0,127.0,112.0,85.0,-89.0
126.0,126.0,125.0,127.0,127.0,142.0,127.0,128.0,20.0,-107.0,-77.0,127.0,127.0,127.0,112.0,85.0,-89.0
126.0,126.0,125.0,127.0,127.0,142.0,127.0,128.0,20.0,-107.0,-77.0,127.0,127.0,127.0,112.0,85.0,-89.0
127.0,126.0,112.0,126.0,126.0,142.0,127.0,128.0,20.0,-107.0,-77.0,127.0,127.0,127.0,112.0,85.0,-89.0
127.0,126.0,110.0,126.0,126.0,142.0,127.0,128.0,20.0,-107.0,-77.0,127.0,127.0,127.0,112.0,85.0,-89.0
127.0,126.0,109.0,126.0,127.0,143.0,127.0,128.0,20.0,-107.0,-77.0,127.0,127.0,127.0,112.0,85.0,-89.0
127.0,126.0,107.0,126.0,127.0,143.0,127.0,128.0,20.0,-107.0,-77.0,127.0,127.0,127.0,112.0,85.0,-89.0
127.0,125.0,118.0,127.0,126.0,141.0,127.0,128.0,20.0,-107.0,-77.0,127.0,127.0,127.0,112.0,85.0,-89.0
127.0,126.0,117.0,127.0,127.0,142.0,127.0,128.0,20.0,-107.0,-77.0,127.0,127.0,127.0,112.0,85.0,-89.0
127.0,126.0,116.0,127.0,126.0,142.0,127.0,128.0,20.0,-107.0,-77.0,127.0,127.0,127.0,112.0,85.0,-89.0
127.0,126.0,115.0,127.0,126.0,142.0,127.0,128.0,20.0,-107.0,-77.0,127.0,127.0,127.0,112.0,85.0,-89.0
127.0,126.0,115.0,127.0,126.0,141.0,127.0,128.0,20.0,-107.0,-77.0,127.0,127.0,127.0,112.0,85.0,-89.0
127.0,125.0,113.0,126.0,126.0,141.0,127.0,128.0,20.0,-107.0,-77.0,127.0,127.0,127.0,112.0,85.0,-89.0
125.0,122.0,82.0,129.0,126.0,142.0,126.0,127.0,20.0,-107.0,-77.0,127.0,127.0,127.0,112.0,85.0,-89.0
125.0,122.0,84.0,131.0,127.0,142.0,126.0,127.0,20.0,-107.0,-77.0,127.0,127.0,127.0,112.0,85.0,-89.0
125.0,122.0,86.0,132.0,127.0,142.0,126.0,127.0,20.0,-107.0,-77.0,127.0,127.0,127.0,112.0,85.0,-89.0
124.0,122.0,70.0,122.0,125.0,140.0,126.0,127.0,20.0,-107.0,-77.0,127.0,127.0,127.0,112.0,85.0,-89.0
124.0,122.0,71.0,123.0,125.0,142.0,126.0,127.0,20.0,-107.0,-77.0,127.0,127.0,127.0,112.0,85.0,-89.0
124.0,122.0,73.0,123.0,125.0,142.0,126.0,127.0,20.0,-107.0,-77.0,127.0,127.0,127.0,112.0,85.0,-89.0
124.0,122.0,74.0,124.0,125.0,142.0,126.0,127.0,20.0,-107.0,-77.0,127.0,127.0,127.0,112.0,85.0,-89.0
124.0,121.0,76.0,125.0,126.0,141.0,126.0,127.0,20.0,-107.0,-77.0,127.0,127.0,127.0,112.0,85.0,-89.0
124.0,121.0,78.0,127.0,126.0,141.0,126.0,127.0,20.0,-107.0,-77.0,127.0,127.0,127.0,112.0,85.0,-89.0
124.0,122.0,80.0,128.0,126.0,141.0,126.0,127.0,20.0,-107.0,-77.0,127.0,127.0,127.0,112.0,85.0,-89.0
124.0,125.0,160.0,138.0,128.0,139.0,128.0,127.0,20.0,-107.0,-77.0,127.0,127.0,127.0,112.0,85.0,-89.0
124.0,125.0,160.0,137.0,128.0,138.0,128.0,127.0,20.0,-107.0,-77.0,127.0,127.0,127.0,112.0,85.0,-89.0
125.0,124.0,156.0,136.0,127.0,137.0,127.0,127.0,20.0,-107.0,-77.0,127.0,127.0,127.0,112.0,85.0,-89.0
125.0,124.0,156.0,137.0,127.0,138.0,127.0,126.0,20.0,-107.0,-77.0,127.0,127.0,127.0,112.0,85.0,-89.0
124.0,124.0,157.0,138.0,127.0,139.0,127.0,127.0,20.0,-107.0,-77.0,127.0,127.0,127.0,112.0,85.0,-89.0
124.0,124.0,158.0,139.0,128.0,138.0,127.0,127.0,20.0,-107.0,-77.0,127.0,127.0,127.0,112.0,85.0,-89.0
124.0,124.0,159.0,139.0,128.0,138.0,127.0,127.0,20.0,-107.0,-77.0,127.0,127.0,127.0,112.0,85.0,-89.0
124.0,124.0,159.0,139.0,128.0,138.0,127.0,127.0,20.0,-107.0,-77.0,127.0,127.0,127.0,112.0,85.0,-89.0
124.0,124.0,160.0,138.0,128.0,138.0,128.0,127.0,20.0,-107.0,-77.0,127.0,127.0,127.0,112.0,85.0,-89.0
124.0,124.0,160.0,138.0,128.0,138.0,128.0,127.0,20.0,-107.0,-77.0,127.0,127.0,127.0,112.0,85.0,-89.0
127.0,130.0,234.0,127.0,126.0,133.0,127.0,132.0,20.0,-107.0,-76.0,127.0,127.0,127.0,112.0,85.0,-89.0
128.0,129.0,216.0,129.0,126.0,132.0,125.0,120.0,20.0,-107.0,-76.0,127.0,127.0,127.0,112.0,85.0,-89.0
128.0,129.0,216.0,129.0,126.0,133.0,125.0,121.0,20.0,-107.0,-76.0,127.0,127.0,127.0,112.0,85.0,-89.0
128.0,130.0,217.0,129.0,126.0,133.0,125.0,123.0,20.0,-107.0,-76.0,127.0,127.0,127.0,112.0,85.0,-89.0
128.0,130.0,219.0,130.0,126.0,133.0,125.0,125.0,20.0,-107.0,-76.0,127.0,127.0,127.0,112.0,85.0,-89.0
128.0,130.0,221.0,130.0,126.0,133.0,125.0,127.0,20.0,-107.0,-76.0,127.0,127.0,127.0,112.0,85.0,-89.0
128.0,130.0,224.0,129.0,126.0,132.0,126.0,129.0,20.0,-107.0,-76.0,127.0,127.0,127.0,112.0,85.0,-89.0
128.0,130.0,226.0,129.0,126.0,132.0,126.0,130.0,20.0,-107.0,-76.0,127.0,127.0,127.0,112.0,85.0,-89.0
127.0,129.0,229.0,128.0,126.0,132.0,126.0,131.0,20.0,-107.0,-76.0,127.0,127.0,127.0,112.0,85.0,-89.0
127.0,130.0,231.0,127.0,126.0,133.0,126.0,132.0,20.0,-107.0,-76.0,127.0,127.0,127.0,112.0,85.0,-89.0
127.0,133.0,254.0,140.0,128.0,127.0,129.0,129.0,20.0,-108.0,-76.0,-128.0,127.0,127.0,112.0,85.0,-89.0
129.0,133.0,254.0,137.0,128.0,127.0,130.0,130.0,20.0,-108.0,-76.0,-128.0,127.0,127.0,112.0,85.0,-89.0
128.0,133.0,254.0,137.0,128.0,126.0,130.0,130.0,20.0,-108.0,-76.0,-128.0,127.0,127.0,112.0,85.0,-89.0
128.0,133.0,254.0,137.0,128.0,127.0,130.0,130.0,20.0,-108.0,-76.0,-128.0,127.0,127.0,112.0,85.0,-89.0
128.0,134.0,254.0,137.0,128.0,127.0,129.0,129.0,20.0,-108.0,-76.0,-128.0,127.0,127.0,112.0,85.0,-89.0
128.0,134.0,254.0,138.0,128.0,127.0,129.0,129.0,20.0,-108.0,-76.0,-128.0,127.0,127.0,112.0,85.0,-89.0
128.0,134.0,254.0,139.0,128.0,127.0,129.0,129.0,20.0,-108.0,-76.0,-128.0,127.0,127.0,112.0,85.0,-89.0
128.0,134.0,254.0,139.0,128.0,127.0,129.0,129.0,20.0,-108.0,-76.0,-128.0,127.0,127.0,112.0,85.0,-89.0
128.0,134.0,254.0,140.0,128.0,127.0,129.0,129.0,20.0,-108.0,-76.0,-128.0,127.0,127.0,112.0,85.0,-89.0
127.0,134.0,254.0,140.0,128.0,127.0,129.0,129.0,20.0,-108.0,-76.0,-128.0,127.0,127.0,112.0,85.0,-89.0
125.0,130.0,254.0,139.0,128.0,127.0,127.0,126.0,20.0,-108.0,-76.0,-128.0,127.0,127.0,112.0,85.0,-89.0
125.0,131.0,253.0,138.0,128.0,126.0,127.0,126.0,20.0,-108.0,-76.0,-128.0,127.0,127.0,112.0,85.0,-89.0
126.0,132.0,252.0,137.0,128.0,126.0,127.0,126.0,20.0,-108.0,-76.0,-128.0,127.0,127.0,112.0,85.0,-89.0
126.0,132.0,250.0,136.0,127.0,126.0,127.0,126.0,20.0,-108.0,-76.0,-128.0,127.0,127.0,112.0,85.0,-89.0
126.0,133.0,247.0,135.0,127.0,127.0,127.0,126.0,20.0,-108.0,-76.0,-128.0,127.0,127.0,112.0,85.0,-89.0
127.0,134.0,244.0,133.0,127.0,127.0,127.0,125.0,20.0,-108.0,-76.0,-128.0,127.0,127.0,112.0,85.0,-89.0
127.0,134.0,241.0,131.0,126.0,126.0,127.0,125.0,20.0,-108.0,-76.0,-128.0,127.0,127.0,112.0,85.0,-89.0
127.0,135.0,238.0,130.0,126.0,126.0,127.0,125.0,20.0,-108.0,-76.0,-128.0,127.0,127.0,112.0,85.0,-89.0
127.0,137.0,234.0,130.0,126.0,126.0,127.0,125.0,20.0,-108.0,-76.0,-128.0,127.0,127.0,112.0,85.0,-89.0
127.0,138.0,230.0,130.0,126.0,126.0,127.0,125.0,20.0,-108.0,-76.0,-128.0,127.0,127.0,112.0,85.0,-89.0
121.0,132.0,81.0,132.0,127.0,109.0,128.0,129.0,21.0,-109.0,-76.0,-128.0,127.0,127.0,112.0,85.0,-89.0
122.0,133.0,78.0,131.0,127.0,109.0,128.0,129.0,21.0,-109.0,-76.0,-128.0,127.0,127.0,112.0,85.0,-89.0
123.0,133.0,75.0,131.0,127.0,108.0,128.0,129.0,21.0,-109.0,-76.0,-128.0,127.0,127.0,112.0,85.0,-89.0
124.0,133.0,72.0,132.0,127.0,109.0,128.0,128.0,21.0,-109.0,-76.0,-128.0,127.0,127.0,112.0,85.0,-89.0
125.0,133.0,69.0,132.0,127.0,109.0,128.0,128.0,21.0,-109.0,-76.0,-128.0,127.0,127.0,112.0,85.0,-89.0
126.0,132.0,66.0,132.0,128.0,109.0,128.0,127.0,21.0,-109.0,-76.0,-128.0,127.0,127.0,112.0,85.0,-89.0
126.0,132.0,63.0,133.0,128.0,108.0,128.0,127.0,21.0,-109.0,-76.0,-128.0,127.0,127.0,112.0,85.0,-89.0
126.0,132.0,60.0,133.0,128.0,108.0,128.0,126.0,21.0,-109.0,-76.0,-128.0,127.0,127.0,112.0,85.0,-89.0
121.0,131.0,86.0,132.0,127.0,110.0,128.0,128.0,21.0,-109.0,-76.0,-128.0,127.0,127.0,112.0,85.0,-89.0
121.0,132.0,83.0,132.0,127.0,110.0,128.0,129.0,21.0,-109.0,-76.0,-128.0,127.0,127.0,112.0,85.0,-89.0
131.0,140.0,2.0,134.0,128.0,110.0,129.0,129.0,21.0,-109.0,-77.0,-128.0,127.0,127.0,112.0,85.0,-89.0
131.0,141.0,2.0,136.0,128.0,110.0,129.0,128.0,21.0,-109.0,-77.0,-128.0,127.0,127.0,112.0,85.0,-89.0
132.0,142.0,2.0,137.0,128.0,111.0,129.0,129.0,21.0,-109.0,-77.0,-128.0,127.0,127.0,112.0,85.0,-89.0
132.0,143.0,1.0,137.0,128.0,111.0,129.0,129.0,21.0,-109.0,-77.0,-128.0,127.0,127.0,112.0,85.0,-89.0
133.0,144.0,1.0,137.0,127.0,111.0,129.0,129.0,21.0,-109.0,-77.0,-128.0,127.0,127.0,112.0,85.0,-89.0
134.0,144.0,0.0,137.0,127.0,111.0,129.0,130.0,21.0,-109.0,-77.0,-128.0,127.0,127.0,112.0,85.0,-89.0
135.0,145.0,0.0,137.0,127.0,111.0,129.0,130.0,21.0,-109.0,-77.0,-128.0,127.0,127.0,112.0,85.0,-89.0
130.0,139.0,4.0,132.0,128.0,110.0,128.0,129.0,21.0,-109.0,-77.0,-128.0,127.0,127.0,112.0,85.0,-89.0
130.0,139.0,3.0,132.0,128.0,110.0,129.0,129.0,21.0,-109.0,-77.0,-128.0,127.0,127.0,112.0,85.0,-89.0
131.0,139.0,3.0,133.0,128.0,110.0,129.0,129.0,21.0,-109.0,-77.0,-128.0,127.0,127.0,112.0,85.0,-89.0
125.0,139.0,9.0,126.0,127.0,107.0,125.0,122.0,21.0,-109.0,-78.0,-127.0,127.0,127.0,112.0,85.0,-89.0
126.0,140.0,9.0,126.0,127.0,107.0,126.0,122.0,21.0,-109.0,-78.0,-127.0,127.0,127.0,112.0,85.0,-89.0
126.0,140.0,9.0,126.0,127.0,107.0,126.0,122.0,21.0,-109.0,-78.0,-127.0,127.0,127.0,112.0,85.0,-89.0
126.0,141.0,9.0,126.0,127.0,107.0,126.0,122.0,21.0,-109.0,-78.0,-127.0,127.0,127.0,112.0,85.0,-89.0
126.0,141.0,9.0,126.0,127.0,106.0,127.0,122.0,21.0,-109.0,-78.0,-127.0,127.0,127.0,112.0,85.0,-89.0
126.0,140.0,9.0,126.0,127.0,106.0,127.0,123.0,21.0,-109.0,-78.0,-127.0,127.0,127.0,112.0,85.0,-89.0
125.0,139.0,8.0,127.0,127.0,108.0,123.0,123.0,21.0,-109.0,-78.0,-127.0,127.0,127.0,112.0,85.0,-89.0
125.0,139.0,8.0,127.0,127.0,108.0,124.0,123.0,21.0,-109.0,-78.0,-127.0,127.0,127.0,112.0,85.0,-89.0
125.0,138.0,8.0,126.0,127.0,107.0,124.0,122.0,21.0,-109.0,-78.0,-127.0,127.0,127.0,112.0,85.0,-89.0
125.0,138.0,8.0,126.0,127.0,107.0,125.0,122.0,21.0,-109.0,-78.0,-127.0,127.0,127.0,112.0,85.0,-89.0
128.0,134.0,15.0,131.0,129.0,84.0,126.0,118.0,21.0,-109.0,-79.0,-127.0,127.0,127.0,112.0,85.0,-89.0
128.0,135.0,16.0,132.0,129.0,85.0,126.0,117.0,21.0,-109.0,-79.0,-127.0,127.0,127.0,112.0,85.0,-89.0
128.0,137.0,16.0,133.0,129.0,84.0,126.0,117.0,21.0,-109.0,-79.0,-127.0,127.0,127.0,112.0,85.0,-89.0
128.0,138.0,16.0,133.0,129.0,84.0,126.0,117.0,21.0,-109.0,-79.0,-127.0,127.0,127.0,112.0,85.0,-89.0
129.0,138.0,17.0,134.0,129.0,84.0,126.0,117.0,21.0,-109.0,-79.0,-127.0,127.0,127.0,112.0,85.0,-89.0
128.0,135.0,14.0,130.0,129.0,85.0,127.0,127.0,21.0,-109.0,-79.0,-127.0,127.0,127.0,112.0,85.0,-89.0
128.0,134.0,14.0,130.0,129.0,85.0,127.0,125.0,21.0,-109.0,-79.0,-127.0,127.0,127.0,112.0,85.0,-89.0
128.0,134.0,15.0,130.0,129.0,84.0,127.0,124.0,21.0,-109.0,-79.0,-127.0,127.0,127.0,112.0,85.0,-89.0
128.0,134.0,15.0,130.0,129.0,84.0,127.0,122.0,21.0,-109.0,-79.0,-127.0,127.0,127.0,112.0,85.0,-89.0
128.0,134.0,15.0,130.0,128.0,84.0,126.0,120.0,21.0,-109.0,-79.0,-127.0,127.0,127.0,112.0,85.0,-89.0
127.0,134.0,51.0,125.0,127.0,105.0,127.0,131.0,20.0,-108.0,-79.0,-127.0,127.0,127.0,112.0,85.0,-89.0
128.0,134.0,51.0,125.0,127.0,105.0,128.0,133.0,20.0,-108.0,-79.0,-127.0,127.0,127.0,112.0,85.0,-89.0
128.0,133.0,51.0,124.0,126.0,105.0,128.0,135.0,20.0,-108.0,-79.0,-127.0,127.0,127.0,112.0,85.0,-89.0
128.0,133.0,52.0,124.0,126.0,106.0,128.0,137.0,20.0,-108.0,-79.0,-127.0,127.0,127.0,112.0,85.0,-89.0
124.0,138.0,47.0,127.0,127.0,101.0,127.0,115.0,20.0,-108.0,-79.0,-127.0,127.0,127.0,112.0,85.0,-89.0
125.0,137.0,48.0,126.0,127.0,102.0,127.0,117.0,20.0,-108.0,-79.0,-127.0,127.0,127.0,112.0,85.0,-89.0
125.0,136.0,48.0,126.0,127.0,102.0,127.0,119.0,20.0,-108.0,-79.0,-127.0,127.0,127.0,112.0,85.0,-89.0
126.0,136.0,49.0,125.0,127.0,102.0,127.0,122.0,20.0,-108.0,-79.0,-127.0,127.0,127.0,112.0,85.0,-89.0
127.0,135.0,50.0,125.0,127.0,103.0,127.0,125.0,20.0,-108.0,-79.0,-127.0,127.0,127.0,112.0,85.0,-89.0
127.0,135.0,50.0,125.0,127.0,104.0,127.0,128.0,20.0,-108.0,-79.0,-127.0,127.0,127.0,112.0,85.0,-89.0
123.0,131.0,87.0,136.0,128.0,110.0,125.0,112.0,19.0,-105.0,-79.0,-127.0,127.0,127.0,112.0,85.0,-89.0
123.0,131.0,88.0,135.0,128.0,110.0,125.0,111.0,19.0,-105.0,-79.0,-127.0,127.0,127.0,112.0,85.0,-89.0
123.0,131.0,88.0,134.0,128.0,110.0,126.0,112.0,19.0,-105.0,-79.0,-127.0,127.0,127.0,112.0,85.0,-89.0
123.0,130.0,82.0,138.0,129.0,110.0,127.0,125.0,19.0,-105.0,-79.0,-127.0,127.0,127.0,112.0,85.0,-89.0
123.0,130.0,83.0,138.0,128.0,110.0,127.0,123.0,19.0,-105.0,-79.0,-127.0,127.0,127.0,112.0,85.0,-89.0
123.0,129.0,83.0,137.0,128.0,109.0,126.0,122.0,19.0,-105.0,-79.0,-127.0,127.0,127.0,112.0,85.0,-89.0
123.0,129.0,84.0,137.0,128.0,109.0,126.0,120.0,19.0,-105.0,-79.0,-127.0,127.0,127.0,112.0,85.0,-89.0
123.0,129.0,85.0,137.0,128.0,109.0,126.0,118.0,19.0,-105.0,-79.0,-127.0,127.0,127.0,112.0,85.0,-89.0
123.0,130.0,86.0,137.0,128.0,109.0,125.0,116.0,19.0,-105.0,-79.0,-127.0,127.0,127.0,112.0,85.0,-89.0
123.0,131.0,86.0,136.0,128.0,110.0,125.0,114.0,19.0,-105.0,-79.0,-127.0,127.0,127.0,112.0,85.0,-89.0
119.0,125.0,139.0,131.0,127.0,104.0,124.0,113.0,19.0,-101.0,-78.0,-128.0,127.0,127.0,112.0,85.0,-89.0
120.0,126.0,139.0,130.0,128.0,105.0,124.0,113.0,19.0,-101.0,-78.0,-128.0,127.0,127.0,112.0,85.0,-89.0
121.0,127.0,128.0,116.0,126.0,106.0,126.0,125.0,19.0,-101.0,-78.0,-128.0,127.0,127.0,112.0,85.0,-89.0
121.0,126.0,129.0,118.0,126.0,106.0,126.0,124.0,19.0,-101.0,-78.0,-128.0,127.0,127.0,112.0,85.0,-89.0
121.0,126.0,131.0,120.0,126.0,105.0,126.0,123.0,19.0,-101.0,-78.0,-128.0,127.0,127.0,112.0,85.0,-89.0
120.0,125.0,132.0,123.0,126.0,105.0,126.0,121.0,19.0,-101.0,-78.0,-128.0,127.0,127.0,112.0,85.0,-89.0
120.0,125.0,133.0,126.0,127.0,105.0,126.0,119.0,19.0,-101.0,-78.0,-128.0,127.0,127.0,112.0,85.0,-89.0
120.0,125.0,135.0,128.0,127.0,105.0,125.0,117.0,19.0,-101.0,-78.0,-128.0,127.0,127.0,112.0,85.0,-89.0
120.0,125.0,136.0,130.0,127.0,104.0,125.0,115.0,19.0,-101.0,-78.0,-128.0,127.0,127.0,112.0,85.0,-89.0
119.0,125.0,138.0,130.0,127.0,104.0,125.0,114.0,19.0,-101.0,-78.0,-128.0,127.0,127.0,112.0,85.0,-89.0
124.0,126.0,121.0,131.0,127.0,91.0,126.0,132.0,19.0,-99.0,-78.0,-128.0,127.0,127.0,112.0,85.0,-89.0
122.0,125.0,127.0,134.0,127.0,91.0,125.0,122.0,19.0,-99.0,-78.0,-128.0,127.0,127.0,112.0,85.0,-89.0
122.0,125.0,126.0,134.0,127.0,91.0,125.0,122.0,19.0,-99.0,-78.0,-128.0,127.0,127.0,112.0,85.0,-89.0
122.0,125.0,125.0,134.0,127.0,91.0,125.0,122.0,19.0,-99.0,-78.0,-128.0,127.0,127.0,112.0,85.0,-89.0
122.0,125.0,124.0,134.0,127.0,92.0,125.0,121.0,19.0,-99.0,-78.0,-128.0,127.0,127.0,112.0,85.0,-89.0
123.0,125.0,124.0,134.0,127.0,92.0,125.0,121.0,19.0,-99.0,-78.0,-128.0,127.0,127.0,112.0,85.0,-89.0
123.0,125.0,123.0,133.0,127.0,92.0,125.0,122.0,19.0,-99.0,-78.0,-128.0,127.0,127.0,112.0,85.0,-89.0
123.0,125.0,122.0,133.0,127.0,91.0,125.0,124.0,19.0,-99.0,-78.0,-128.0,127.0,127.0,112.0,85.0,-89.0
123.0,125.0,122.0,132.0,127.0,91.0,125.0,126.0,19.0,-99.0,-78.0,-128.0,127.0,127.0,112.0,85.0,-89.0
124.0,126.0,121.0,132.0,127.0,91.0,126.0,129.0,19.0,-99.0,-78.0,-128.0,127.0,127.0,112.0,85.0,-89.0
123.0,126.0,126.0,130.0,129.0,98.0,124.0,126.0,18.0,-99.0,-78.0,127.0,127.0,127.0,112.0,85.0,-89.0
123.0,126.0,126.0,131.0,129.0,99.0,124.0,127.0,18.0,-99.0,-78.0,127.0,127.0,127.0,112.0,85.0,-89.0
123.0,126.0,127.0,131.0,129.0,99.0,124.0,127.0,18.0,-99.0,-78.0,127.0,127.0,127.0,112.0,85.0,-89.0
123.0,126.0,126.0,130.0,129.0,100.0,124.0,126.0,18.0,-99.0,-78.0,127.0,127.0,127.0,112.0,85.0,-89.0
123.0,126.0,127.0,130.0,129.0,101.0,125.0,125.0,18.0,-99.0,-78.0,127.0,127.0,127.0,112.0,85.0,-89.0
123.0,126.0,127.0,130.0,129.0,101.0,125.0,124.0,18.0,-99.0,-78.0,127.0,127.0,127.0,112.0,85.0,-89.0
123.0,126.0,127.0,130.0,129.0,101.0,126.0,123.0,18.0,-99.0,-78.0,127.0,127.0,127.0,112.0,85.0,-89.0
123.0,126.0,128.0,130.0,128.0,101.0,126.0,121.0,18.0,-99.0,-78.0,127.0,127.0,127.0,112.0,85.0,-89.0
123.0,126.0,128.0,129.0,128.0,101.0,126.0,119.0,18.0,-99.0,-78.0,127.0,127.0,127.0,112.0,85.0,-89.0
122.0,126.0,128.0,129.0,128.0,101.0,126.0,117.0,18.0,-99.0,-78.0,127.0,127.0,127.0,112.0,85.0,-89.0
121.0,123.0,119.0,132.0,126.0,115.0,124.0,116.0,18.0,-100.0,-79.0,127.0,127.0,127.0,112.0,85.0,-89.0
121.0,123.0,119.0,131.0,126.0,115.0,125.0,114.0,18.0,-100.0,-79.0,127.0,127.0,127.0,112.0,85.0,-89.0
121.0,124.0,119.0,131.0,126.0,117.0,124.0,112.0,18.0,-100.0,-79.0,127.0,127.0,127.0,112.0,85.0,-89.0
121.0,123.0,119.0,130.0,126.0,117.0,125.0,111.0,18.0,-100.0,-79.0,127.0,127.0,127.0,112.0,85.0,-89.0
121.0,123.0,118.0,129.0,125.0,117.0,125.0,111.0,18.0,-100.0,-79.0,127.0,127.0,127.0,112.0,85.0,-89.0
121.0,123.0,118.0,128.0,125.0,117.0,125.0,111.0,18.0,-100.0,-79.0,127.0,127.0,127.0,112.0,85.0,-89.0
121.0,123.0,118.0,128.0,125.0,118.0,125.0,111.0,18.0,-100.0,-79.0,127.0,127.0,127.0,112.0,85.0,-89.0
122.0,123.0,117.0,127.0,125.0,118.0,125.0,112.0,18.0,-100.0,-79.0,127.0,127.0,127.0,112.0,85.0,-89.0
122.0,123.0,117.0,126.0,125.0,118.0,125.0,112.0,18.0,-100.0,-79.0,127.0,127.0,127.0,112.0,85.0,-89.0
121.0,123.0,119.0,132.0,126.0,115.0,125.0,118.0,18.0,-100.0,-79.0,127.0,127.0,127.0,112.0,85.0,-89.0
126.0,124.0,86.0,124.0,126.0,124.0,124.0,129.0,17.0,-102.0,-79.0,127.0,127.0,127.0,112.0,85.0,-89.0
126.0,124.0,85.0,125.0,126.0,125.0,124.0,129.0,17.0,-102.0,-79.0,127.0,127.0,127.0,112.0,85.0,-89.0
126.0,124.0,84.0,125.0,126.0,125.0,125.0,128.0,17.0,-102.0,-79.0,127.0,127.0,127.0,112.0,85.0,-89.0
126.0,124.0,83.0,126.0,126.0,125.0,125.0,128.0,17.0,-102.0,-79.0,127.0,127.0,127.0,112.0,85.0,-89.0
125.0,124.0,83.0,126.0,126.0,125.0,125.0,128.0,17.0,-102.0,-79.0,127.0,127.0,127.0,112.0,85.0,-89.0
125.0,124.0,82.0,126.0,126.0,125.0,125.0,128.0,17.0,-102.0,-79.0,127.0,127.0,127.0,112.0,85.0,-89.0
125.0,124.0,81.0,126.0,126.0,125.0,126.0,128.0,17.0,-102.0,-79.0,127.0,127.0,127.0,112.0,85.0,-89.0
125.0,124.0,81.0,127.0,126.0,125.0,126.0,128.0,17.0,-102.0,-79.0,127.0,127.0,127.0,112.0,85.0,-89.0
126.0,124.0,88.0,123.0,126.0,124.0,125.0,131.0,17.0,-102.0,-79.0,127.0,127.0,127.0,112.0,85.0,-89.0
126.0,124.0,87.0,123.0,126.0,124.0,125.0,130.0,17.0,-102.0,-79.0,127.0,127.0,127.0,112.0,85.0,-89.0
124.0,124.0,75.0,135.0,128.0,130.0,124.0,111.0,18.0,-102.0,-79.0,127.0,127.0,127.0,112.0,85.0,-89.0
124.0,124.0,76.0,135.0,128.0,130.0,124.0,112.0,18.0,-102.0,-79.0,127.0,127.0,127.0,112.0,85.0,-89.0
124.0,124.0,77.0,135.0,128.0,130.0,124.0,113.0,18.0,-102.0,-79.0,127.0,127.0,127.0,112.0,85.0,-89.0
124.0,124.0,79.0,134.0,128.0,130.0,124.0,114.0,18.0,-102.0,-79.0,127.0,127.0,127.0,112.0,85.0,-89.0
124.0,124.0,80.0,134.0,127.0,130.0,124.0,114.0,18.0,-102.0,-79.0,127.0,127.0,127.0,112.0,85.0,-89.0
124.0,124.0,81.0,134.0,127.0,130.0,124.0,115.0,18.0,-102.0,-79.0,127.0,127.0,127.0,112.0,85.0,-89.0
124.0,124.0,83.0,134.0,127.0,130.0,125.0,117.0,18.0,-102.0,-79.0,127.0,127.0,127.0,112.0,85.0,-89.0
124.0,124.0,73.0,134.0,127.0,129.0,124.0,112.0,18.0,-102.0,-79.0,127.0,127.0,127.0,112.0,85.0,-89.0
124.0,124.0,74.0,134.0,128.0,129.0,124.0,111.0,18.0,-102.0,-79.0,127.0,127.0,127.0,112.0,85.0,-89.0
124.0,124.0,75.0,135.0,128.0,129.0,124.0,111.0,18.0,-102.0,-79.0,127.0,127.0,127.0,112.0,85.0,-89.0
127.0,124.0,160.0,134.0,127.0,130.0,126.0,128.0,19.0,-101.0,-79.0,127.0,127.0,127.0,111.0,85.0,-89.0
127.0,124.0,161.0,134.0,127.0,130.0,126.0,127.0,19.0,-101.0,-79.0,127.0,127.0,127.0,111.0,85.0,-89.0
127.0,124.0,162.0,134.0,127.0,129.0,126.0,126.0,19.0,-101.0,-79.0,127.0,127.0,127.0,111.0,85.0,-89.0
127.0,124.0,163.0,134.0,127.0,129.0,126.0,125.0,19.0,-101.0,-79.0,127.0,127.0,127.0,111.0,85.0,-89.0
127.0,124.0,165.0,134.0,127.0,129.0,126.0,124.0,19.0,-101.0,-79.0,127.0,127.0,127.0,111.0,85.0,-89.0
126.0,124.0,166.0,135.0,126.0,129.0,126.0,123.0,19.0,-101.0,-79.0,127.0,127.0,127.0,111.0,85.0,-89.0
128.0,125.0,156.0,136.0,128.0,129.0,126.0,129.0,19.0,-101.0,-79.0,127.0,127.0,127.0,111.0,85.0,-89.0
128.0,124.0,157.0,135.0,128.0,129.0,126.0,129.0,19.0,-101.0,-79.0,127.0,127.0,127.0,111.0,85.0,-89.0
128.0,124.0,158.0,135.0,128.0,129.0,127.0,129.0,19.0,-101.0,-79.0,127.0,127.0,127.0,111.0,85.0,-89.0
127.0,124.0,159.0,135.0,128.0,129.0,126.0,128.0,19.0,-101.0,-79.0,127.0,127.0,127.0,111.0,85.0,-89.0
127.0,125.0,190.0,136.0,127.0,130.0,126.0,127.0,20.0,-100.0,-78.0,126.0,127.0,127.0,111.0,85.0,-89.0
127.0,125.0,190.0,135.0,127.0,130.0,126.0,126.0,20.0,-100.0,-78.0,126.0,127.0,127.0,111.0,85.0,-89.0
127.0,124.0,190.0,135.0,127.0,130.0,126.0,126.0,20.0,-100.0,-78.0,126.0,127.0,127.0,111.0,85.0,-89.0
127.0,124.0,190.0,135.0,127.0,130.0,126.0,126.0,20.0,-100.0,-78.0,126.0,127.0,127.0,111.0,85.0,-89.0
128.0,125.0,191.0,141.0,127.0,129.0,126.0,128.0,20.0,-100.0,-78.0,126.0,127.0,127.0,111.0,85.0,-89.0
128.0,125.0,191.0,140.0,127.0,129.0,126.0,128.0,20.0,-100.0,-78.0,126.0,127.0,127.0,111.0,85.0,-89.0
128.0,124.0,191.0,139.0,127.0,129.0,126.0,127.0,20.0,-100.0,-78.0,126.0,127.0,127.0,111.0,85.0,-89.0
128.0,124.0,191.0,138.0,127.0,129.0,126.0,127.0,20.0,-100.0,-78.0,126.0,127.0,127.0,111.0,85.0,-89.0
127.0,125.0,191.0,137.0,127.0,130.0,126.0,127.0,20.0,-100.0,-78.0,126.0,127.0,127.0,111.0,85.0,-89.0
127.0,125.0,190.0,137.0,127.0,130.0,126.0,127.0,20.0,-100.0,-78.0,126.0,127.0,127.0,111.0,85.0,-89.0
127.0,123.0,181.0,136.0,126.0,136.0,125.0,122.0,20.0,-101.0,-78.0,126.0,126.0,127.0,111.0,85.0,-89.0
127.0,124.0,180.0,136.0,126.0,137.0,125.0,122.0,20.0,-101.0,-78.0,126.0,126.0,127.0,111.0,85.0,-89.0
127.0,124.0,180.0,136.0,126.0,138.0,125.0,122.0,20.0,-101.0,-78.0,126.0,126.0,127.0,111.0,85.0,-89.0
127.0,124.0,184.0,137.0,127.0,134.0,127.0,124.0,20.0,-101.0,-78.0,126.0,126.0,127.0,111.0,85.0,-89.0
127.0,123.0,184.0,136.0,127.0,134.0,126.0,123.0,20.0,-101.0,-78.0,126.0,126.0,127.0,111.0,85.0,-89.0
127.0,123.0,184.0,136.0,127.0,134.0,126.0,123.0,20.0,-101.0,-78.0,126.0,126.0,127.0,111.0,85.0,-89.0
127.0,123.0,183.0,136.0,126.0,135.0,126.0,123.0,20.0,-101.0,-78.0,126.0,126.0,127.0,111.0,85.0,-89.0
127.0,123.0,183.0,136.0,126.0,135.0,126.0,123.0,20.0,-101.0,-78.0,126.0,126.0,127.0,111.0,85.0,-89.0
127.0,123.0,182.0,136.0,126.0,135.0,125.0,122.0,20.0,-101.0,-78.0,126.0,126.0,127.0,111.0,85.0,-89.0
127.0,123.0,182.0,136.0,126.0,135.0,125.0,122.0,20.0,-101.0,-78.0,126.0,126.0,127.0,111.0,85.0,-89.0
127.0,123.0,159.0,126.0,126.0,141.0,123.0,119.0,21.0,-103.0,-78.0,126.0,126.0,127.0,111.0,85.0,-89.0
127.0,123.0,159.0,126.0,126.0,141.0,123.0,120.0,21.0,-103.0,-78.0,126.0,126.0,127.0,111.0,85.0,-89.0
126.0,123.0,162.0,129.0,125.0,140.0,123.0,119.0,21.0,-103.0,-78.0,126.0,126.0,127.0,111.0,85.0,-89.0
126.0,123.0,161.0,128.0,125.0,140.0,123.0,118.0,21.0,-103.0,-78.0,126.0,126.0,127.0,111.0,85.0,-89.0
126.0,124.0,161.0,128.0,125.0,141.0,123.0,117.0,21.0,-103.0,-78.0,126.0,126.0,127.0,111.0,85.0,-89.0
126.0,124.0,160.0,128.0,125.0,141.0,123.0,116.0,21.0,-103.0,-78.0,126.0,126.0,127.0,111.0,85.0,-89.0
126.0,124.0,160.0,128.0,125.0,141.0,123.0,115.0,21.0,-103.0,-78.0,126.0,126.0,127.0,111.0,85.0,-89.0
126.0,124.0,160.0,127.0,125.0,141.0,123.0,115.0,21.0,-103.0,-78.0,126.0,126.0,127.0,111.0,85.0,-89.0
126.0,124.0,159.0,127.0,126.0,141.0,123.0,116.0,21.0,-103.0,-78.0,126.0,126.0,127.0,111.0,85.0,-89.0
126.0,124.0,159.0,127.0,126.0,141.0,123.0,117.0,21.0,-103.0,-78.0,126.0,126.0,127.0,111.0,85.0,-89.0
129.0,125.0,156.0,121.0,126.0,152.0,125.0,140.0,22.0,-105.0,-79.0,127.0,127.0,127.0,111.0,85.0,-89.0
129.0,124.0,155.0,122.0,126.0,150.0,126.0,143.0,22.0,-105.0,-79.0,127.0,127.0,127.0,111.0,85.0,-89.0
129.0,124.0,155.0,121.0,126.0,150.0,127.0,144.0,22.0,-105.0,-79.0,127.0,127.0,127.0,111.0,85.0,-89.0
129.0,125.0,154.0,121.0,126.0,151.0,127.0,144.0,22.0,-105.0,-79.0,127.0,127.0,127.0,111.0,85.0,-89.0
129.0,125.0,154.0,121.0,126.0,152.0,127.0,143.0,22.0,-105.0,-79.0,127.0,127.0,127.0,111.0,85.0,-89.0
129.0,125.0,154.0,121.0,126.0,152.0,126.0,143.0,22.0,-105.0,-79.0,127.0,127.0,127.0,111.0,85.0,-89.0
129.0,125.0,154.0,120.0,126.0,152.0,126.0,142.0,22.0,-105.0,-79.0,127.0,127.0,127.0,111.0,85.0,-89.0
129.0,125.0,154.0,120.0,126.0,152.0,126.0,142.0,22.0,-105.0,-79.0,127.0,127.0,127.0,111.0,85.0,-89.0
129.0,125.0,155.0,120.0,126.0,152.0,126.0,141.0,22.0,-105.0,-79.0,127.0,127.0,127.0,111.0,85.0,-89.0
129.0,125.0,155.0,120.0,126.0,152.0,126.0,141.0,22.0,-105.0,-79.0,127.0,127.0,127.0,111.0,85.0,-89.0
127.0,123.0,154.0,116.0,124.0,160.0,125.0,128.0,22.0,-106.0,-79.0,127.0,127.0,127.0,111.0,85.0,-89.0
127.0,123.0,154.0,116.0,124.0,160.0,125.0,128.0,22.0,-106.0,-79.0,127.0,127.0,127.0,111.0,85.0,-89.0
127.0,123.0,153.0,116.0,124.0,161.0,125.0,127.0,22.0,-106.0,-79.0,127.0,127.0,127.0,111.0,85.0,-89.0
127.0,123.0,153.0,117.0,124.0,161.0,125.0,127.0,22.0,-106.0,-79.0,127.0,127.0,127.0,111.0,85.0,-89.0
127.0,123.0,153.0,118.0,124.0,161.0,125.0,126.0,22.0,-106.0,-79.0,127.0,127.0,127.0,111.0,85.0,-89.0
127.0,124.0,153.0,119.0,124.0,161.0,125.0,125.0,22.0,-106.0,-79.0,127.0,127.0,127.0,111.0,85.0,-89.0
127.0,124.0,154.0,120.0,125.0,161.0,125.0,125.0,22.0,-106.0,-79.0,127.0,127.0,127.0,111.0,85.0,-89.0
127.0,124.0,154.0,121.0,125.0,161.0,125.0,124.0,22.0,-106.0,-79.0,127.0,127.0,127.0,111.0,85.0,-89.0
127.0,124.0,155.0,122.0,125.0,161.0,124.0,123.0,22.0,-106.0,-79.0,127.0,127.0,127.0,111.0,85.0,-89.0
127.0,124.0,155.0,122.0,125.0,161.0,124.0,123.0,22.0,-106.0,-79.0,127.0,127.0,127.0,111.0,85.0,-89.0
125.0,123.0,151.0,116.0,125.0,162.0,123.0,121.0,22.0,-107.0,-80.0,127.0,127.0,127.0,111.0,85.0,-89.0
125.0,124.0,149.0,116.0,126.0,163.0,123.0,121.0,22.0,-107.0,-80.0,127.0,127.0,127.0,111.0,85.0,-89.0
125.0,124.0,149.0,115.0,126.0,163.0,123.0,122.0,22.0,-107.0,-80.0,127.0,127.0,127.0,111.0,85.0,-89.0
126.0,124.0,148.0,114.0,126.0,163.0,124.0,123.0,22.0,-107.0,-80.0,127.0,127.0,127.0,111.0,85.0,-89.0
126.0,124.0,148.0,113.0,126.0,162.0,124.0,124.0,22.0,-107.0,-80.0,127.0,127.0,127.0,111.0,85.0,-89.0
126.0,124.0,148.0,112.0,126.0,162.0,124.0,125.0,22.0,-107.0,-80.0,127.0,127.0,127.0,111.0,85.0,-89.0
127.0,124.0,147.0,111.0,126.0,162.0,124.0,127.0,22.0,-107.0,-80.0,127.0,127.0,127.0,111.0,85.0,-89.0
127.0,124.0,147.0,111.0,126.0,162.0,125.0,129.0,22.0,-107.0,-80.0,127.0,127.0,127.0,111.0,85.0,-89.0
127.0,124.0,147.0,111.0,126.0,162.0,125.0,131.0,22.0,-107.0,-80.0,127.0,127.0,127.0,111.0,85.0,-89.0
125.0,123.0,151.0,117.0,125.0,162.0,123.0,120.0,22.0,-107.0,-80.0,127.0,127.0,127.0,111.0,85.0,-89.0
127.0,125.0,141.0,112.0,126.0,165.0,124.0,127.0,22.0,-107.0,-79.0,127.0,127.0,127.0,111.0,85.0,-89.0
127.0,125.0,140.0,111.0,126.0,166.0,124.0,127.0,22.0,-107.0,-79.0,127.0,127.0,127.0,111.0,85.0,-89.0
127.0,124.0,140.0,110.0,126.0,166.0,125.0,127.0,22.0,-107.0,-79.0,127.0,127.0,127.0,111.0,85.0,-89.0
127.0,124.0,140.0,110.0,126.0,166.0,125.0,126.0,22.0,-107.0,-79.0,127.0,127.0,127.0,111.0,85.0,-89.0
127.0,124.0,140.0,110.0,126.0,166.0,125.0,126.0,22.0,-107.0,-79.0,127.0,127.0,127.0,111.0,85.0,-89.0
127.0,124.0,140.0,112.0,125.0,166.0,125.0,126.0,22.0,-107.0,-79.0,127.0,127.0,127.0,111.0,85.0,-89.0
127.0,124.0,141.0,114.0,126.0,166.0,125.0,126.0,22.0,-107.0,-79.0,127.0,127.0,127.0,111.0,85.0,-89.0
127.0,124.0,142.0,115.0,126.0,165.0,125.0,125.0,22.0,-107.0,-79.0,127.0,127.0,127.0,111.0,85.0,-89.0
127.0,125.0,143.0,115.0,126.0,164.0,124.0,128.0,22.0,-107.0,-79.0,127.0,127.0,127.0,111.0,85.0,-89.0
127.0,125.0,142.0,113.0,126.0,164.0,124.0,128.0,22.0,-107.0,-79.0,127.0,127.0,127.0,111.0,85.0,-89.0
126.0,125.0,137.0,119.0,126.0,113.0,125.0,128.0,23.0,-106.0,-79.0,127.0,127.0,127.0,111.0,85.0,-89.0
126.0,125.0,137.0,119.0,126.0,111.0,125.0,128.0,23.0,-106.0,-79.0,127.0,127.0,127.0,111.0,85.0,-89.0
126.0,125.0,137.0,119.0,126.0,110.0,125.0,128.0,23.0,-106.0,-79.0,127.0,127.0,127.0,111.0,85.0,-89.0
126.0,125.0,137.0,119.0,126.0,109.0,125.0,128.0,23.0,-106.0,-79.0,127.0,127.0,127.0,111.0,85.0,-89.0
126.0,125.0,137.0,120.0,126.0,107.0,126.0,128.0,23.0,-106.0,-79.0,127.0,127.0,127.0,111.0,85.0,-89.0
126.0,125.0,138.0,120.0,126.0,106.0,126.0,128.0,23.0,-106.0,-79.0,127.0,127.0,127.0,111.0,85.0,-89.0
126.0,125.0,138.0,120.0,126.0,104.0,126.0,127.0,23.0,-106.0,-79.0,127.0,127.0,127.0,111.0,85.0,-89.0
127.0,125.0,138.0,118.0,126.0,117.0,125.0,129.0,23.0,-106.0,-79.0,127.0,127.0,127.0,111.0,85.0,-89.0
127.0,124.0,138.0,118.0,126.0,115.0,125.0,128.0,23.0,-106.0,-79.0,127.0,127.0,127.0,111.0,85.0,-89.0
126.0,125.0,137.0,118.0,126.0,114.0,125.0,128.0,23.0,-106.0,-79.0,127.0,127.0,127.0,111.0,85.0,-89.0
128.0,125.0,136.0,119.0,127.0,70.0,126.0,135.0,22.0,-106.0,-79.0,127.0,127.0,127.0,111.0,85.0,-89.0
127.0,125.0,136.0,118.0,127.0,70.0,126.0,135.0,22.0,-106.0,-79.0,127.0,127.0,127.0,111.0,85.0,-89.0
127.0,125.0,135.0,117.0,127.0,71.0,126.0,135.0,22.0,-106.0,-79.0,127.0,127.0,127.0,111.0,85.0,-89.0
127.0,125.0,135.0,117.0,127.0,70.0,126.0,135.0,22.0,-106.0,-79.0,127.0,127.0,127.0,111.0,85.0,-89.0
127.0,125.0,135.0,118.0,127.0,70.0,126.0,135.0,22.0,-106.0,-79.0,127.0,127.0,127.0,111.0,85.0,-89.0
127.0,124.0,135.0,119.0,127.0,69.0,126.0,135.0,22.0,-106.0,-79.0,127.0,127.0,127.0,111.0,85.0,-89.0
128.0,126.0,137.0,123.0,126.0,72.0,126.0,134.0,22.0,-106.0,-79.0,127.0,127.0,127.0,111.0,85.0,-89.0
128.0,126.0,137.0,122.0,126.0,71.0,126.0,135.0,22.0,-106.0,-79.0,127.0,127.0,127.0,111.0,85.0,-89.0
128.0,126.0,137.0,121.0,126.0,71.0,126.0,135.0,22.0,-106.0,-79.0,127.0,127.0,127.0,111.0,85.0,-89.0
128.0,125.0,137.0,120.0,127.0,70.0,126.0,135.0,22.0,-106.0,-79.0,127.0,127.0,127.0,111.0,85.0,-89.0
129.0,126.0,126.0,122.0,125.0,69.0,128.0,140.0,22.0,-105.0,-79.0,127.0,127.0,127.0,111.0,85.0,-89.0
129.0,126.0,125.0,121.0,125.0,68.0,128.0,139.0,22.0,-105.0,-79.0,127.0,127.0,127.0,111.0,85.0,-89.0
128.0,126.0,125.0,121.0,125.0,68.0,128.0,139.0,22.0,-105.0,-79.0,127.0,127.0,127.0,111.0,85.0,-89.0
128.0,125.0,126.0,121.0,125.0,68.0,128.0,138.0,22.0,-105.0,-79.0,127.0,127.0,127.0,111.0,85.0,-89.0
128.0,125.0,126.0,121.0,125.0,68.0,128.0,138.0,22.0,-105.0,-79.0,127.0,127.0,127.0,111.0,85.0,-89.0
129.0,126.0,127.0,123.0,126.0,69.0,127.0,140.0,22.0,-105.0,-79.0,127.0,127.0,127.0,111.0,85.0,-89.0
129.0,126.0,127.0,123.0,126.0,69.0,127.0,140.0,22.0,-105.0,-79.0,127.0,127.0,127.0,111.0,85.0,-89.0
129.0,126.0,127.0,123.0,126.0,69.0,127.0,140.0,22.0,-105.0,-79.0,127.0,127.0,127.0,111.0,85.0,-89.0
129.0,126.0,127.0,123.0,126.0,69.0,127.0,140.0,22.0,-105.0,-79.0,127.0,127.0,127.0,111.0,85.0,-89.0
129.0,126.0,126.0,122.0,126.0,69.0,127.0,140.0,22.0,-105.0,-79.0,127.0,127.0,127.0,111.0,85.0,-89.0
127.0,124.0,129.0,115.0,127.0,72.0,128.0,135.0,22.0,-105.0,-78.0,127.0,127.0,127.0,111.0,85.0,-89.0
128.0,124.0,129.0,116.0,127.0,72.0,128.0,135.0,22.0,-105.0,-78.0,127.0,127.0,127.0,111.0,85.0,-89.0
128.0,124.0,129.0,118.0,127.0,72.0,128.0,135.0,22.0,-105.0,-78.0,127.0,127.0,127.0,111.0,85.0,-89.0
128.0,124.0,130.0,121.0,128.0,72.0,128.0,135.0,22.0,-105.0,-78.0,127.0,127.0,127.0,111.0,85.0,-89.0
127.0,125.0,129.0,116.0,125.0,73.0,126.0,135.0,22.0,-105.0,-78.0,127.0,127.0,127.0,111.0,85.0,-89.0
127.0,125.0,129.0,115.0,126.0,73.0,127.0,135.0,22.0,-105.0,-78.0,127.0,127.0,127.0,111.0,85.0,-89.0
127.0,125.0,129.0,115.0,126.0,73.0,127.0,135.0,22.0,-105.0,-78.0,127.0,127.0,127.0,111.0,85.0,-89.0
127.0,125.0,129.0,115.0,126.0,73.0,127.0,135.0,22.0,-105.0,-78.0,127.0,127.0,127.0,111.0,85.0,-89.0
127.0,125.0,129.0,115.0,126.0,73.0,127.0,135.0,22.0,-105.0,-78.0,127.0,127.0,127.0,111.0,85.0,-89.0
127.0,124.0,129.0,115.0,126.0,73.0,127.0,135.0,22.0,-105.0,-78.0,127.0,127.0,127.0,111.0,85.0,-89.0
127.0,125.0,133.0,124.0,126.0,72.0,126.0,128.0,22.0,-104.0,-78.0,127.0,127.0,127.0,111.0,85.0,-89.0
127.0,125.0,133.0,124.0,126.0,72.0,127.0,129.0,22.0,-104.0,-78.0,127.0,127.0,127.0,111.0,85.0,-89.0
127.0,124.0,133.0,124.0,126.0,72.0,127.0,130.0,22.0,-104.0,-78.0,127.0,127.0,127.0,111.0,85.0,-89.0
126.0,126.0,132.0,123.0,127.0,73.0,126.0,122.0,22.0,-104.0,-78.0,127.0,127.0,127.0,111.0,85.0,-89.0
126.0,125.0,132.0,124.0,126.0,73.0,126.0,123.0,22.0,-104.0,-78.0,127.0,127.0,127.0,111.0,85.0,-89.0
126.0,125.0,133.0,124.0,126.0,73.0,126.0,123.0,22.0,-104.0,-78.0,127.0,127.0,127.0,111.0,85.0,-89.0
126.0,125.0,133.0,124.0,126.0,73.0,126.0,123.0,22.0,-104.0,-78.0,127.0,127.0,127.0,111.0,85.0,-89.0
126.0,125.0,133.0,124.0,126.0,73.0,126.0,124.0,22.0,-104.0,-78.0,127.0,127.0,127.0,111.0,85.0,-89.0
126.0,125.0,133.0,124.0,126.0,73.0,126.0,125.0,22.0,-104.0,-78.0,127.0,127.0,127.0,111.0,85.0,-89.0
126.0,125.0,133.0,124.0,126.0,72.0,126.0,126.0,22.0,-104.0,-78.0,127.0,127.0,127.0,111.0,85.0,-89.0
127.0,126.0,129.0,119.0,126.0,71.0,126.0,125.0,22.0,-104.0,-77.0,127.0,127.0,127.0,111.0,85.0,-89.0
127.0,126.0,129.0,119.0,126.0,71.0,126.0,125.0,22.0,-104.0,-77.0,127.0,127.0,127.0,111.0,85.0,-89.0
127.0,126.0,127.0,122.0,127.0,72.0,127.0,130.0,22.0,-104.0,-77.0,127.0,127.0,127.0,111.0,85.0,-89.0
127.0,126.0,127.0,122.0,127.0,72.0,127.0,129.0,22.0,-104.0,-77.0,127.0,127.0,127.0,111.0,85.0,-89.0
127.0,126.0,127.0,122.0,127.0,72.0,127.0,129.0,22.0,-104.0,-77.0,127.0,127.0,127.0,111.0,85.0,-89.0
127.0,126.0,127.0,122.0,127.0,72.0,127.0,128.0,22.0,-104.0,-77.0,127.0,127.0,127.0,111.0,85.0,-89.0
127.0,126.0,127.0,121.0,127.0,72.0,127.0,127.0,22.0,-104.0,-77.0,127.0,127.0,127.0,111.0,85.0,-89.0
127.0,126.0,128.0,121.0,127.0,72.0,127.0,127.0,22.0,-104.0,-77.0,127.0,127.0,127.0,111.0,85.0,-89.0
127.0,126.0,128.0,120.0,127.0,71.0,126.0,126.0,22.0,-104.0,-77.0,127.0,127.0,127.0,111.0,85.0,-89.0
127.0,126.0,128.0,120.0,126.0,71.0,126.0,125.0,22.0,-104.0,-77.0,127.0,127.0,127.0,111.0,85.0,-89.0
126.0,125.0,127.0,123.0,126.0,76.0,127.0,125.0,22.0,-103.0,-77.0,127.0,127.0,127.0,111.0,85.0,-89.0
127.0,127.0,129.0,122.0,127.0,76.0,128.0,127.0,22.0,-103.0,-77.0,127.0,127.0,127.0,111.0,85.0,-89.0
127.0,126.0,129.0,122.0,127.0,76.0,128.0,128.0,22.0,-103.0,-77.0,127.0,127.0,127.0,111.0,85.0,-89.0
127.0,126.0,128.0,122.0,127.0,76.0,128.0,128.0,22.0,-103.0,-77.0,127.0,127.0,127.0,111.0,85.0,-89.0
126.0,126.0,128.0,122.0,127.0,76.0,128.0,128.0,22.0,-103.0,-77.0,127.0,127.0,127.0,111.0,85.0,-89.0
126.0,126.0,128.0,122.0,127.0,76.0,128.0,128.0,22.0,-103.0,-77.0,127.0,127.0,127.0,111.0,85.0,-89.0
126.0,126.0,128.0,122.0,127.0,76.0,127.0,127.0,22.0,-103.0,-77.0,127.0,127.0,127.0,111.0,85.0,-89.0
126.0,126.0,128.0,123.0,127.0,76.0,127.0,127.0,22.0,-103.0,-77.0,127.0,127.0,127.0,111.0,85.0,-89.0
126.0,125.0,127.0,123.0,127.0,76.0,127.0,126.0,22.0,-103.0,-77.0,127.0,127.0,127.0,111.0,85.0,-89.0
126.0,125.0,127.0,123.0,126.0,76.0,127.0,125.0,22.0,-103.0,-77.0,127.0,127.0,127.0,111.0,85.0,-89.0
128.0,126.0,122.0,119.0,126.0,80.0,127.0,130.0,22.0,-103.0,-77.0,127.0,127.0,127.0,111.0,85.0,-89.0
128.0,126.0,122.0,119.0,126.0,80.0,127.0,129.0,22.0,-103.0,-77.0,127.0,127.0,127.0,111.0,85.0,-89.0
127.0,126.0,123.0,119.0,126.0,80.0,127.0,129.0,22.0,-103.0,-77.0,127.0,127.0,127.0,111.0,85.0,-89.0
127.0,126.0,123.0,119.0,126.0,80.0,127.0,128.0,22.0,-103.0,-77.0,127.0,127.0,127.0,111.0,85.0,-89.0
127.0,126.0,123.0,119.0,126.0,80.0,127.0,128.0,22.0,-103.0,-77.0,127.0,127.0,127.0,111.0,85.0,-89.0
127.0,126.0,123.0,119.0,126.0,80.0,127.0,127.0,22.0,-103.0,-77.0,127.0,127.0,127.0,111.0,85.0,-89.0
127.0,125.0,123.0,119.0,125.0,79.0,127.0,127.0,22.0,-103.0,-77.0,127.0,127.0,127.0,111.0,85.0,-89.0
127.0,125.0,123.0,119.0,125.0,79.0,126.0,126.0,22.0,-103.0,-77.0,127.0,127.0,127.0,111.0,85.0,-89.0
127.0,125.0,123.0,120.0,125.0,79.0,127.0,126.0,22.0,-103.0,-77.0,127.0,127.0,127.0,111.0,85.0,-89.0
127.0,125.0,123.0,120.0,125.0,79.0,127.0,125.0,22.0,-103.0,-77.0,127.0,127.0,127.0,111.0,85.0,-89.0
128.0,126.0,127.0,123.0,127.0,82.0,127.0,131.0,22.0,-103.0,-76.0,127.0,127.0,127.0,111.0,85.0,-89.0
128.0,126.0,127.0,123.0,127.0,82.0,128.0,132.0,22.0,-103.0,-76.0,127.0,127.0,127.0,111.0,85.0,-89.0
128.0,126.0,127.0,123.0,127.0,82.0,128.0,132.0,22.0,-103.0,-76.0,127.0,127.0,127.0,111.0,85.0,-89.0
128.0,126.0,127.0,123.0,127.0,82.0,128.0,133.0,22.0,-103.0,-76.0,127.0,127.0,127.0,111.0,85.0,-89.0
128.0,126.0,127.0,124.0,127.0,82.0,128.0,133.0,22.0,-103.0,-76.0,127.0,127.0,127.0,111.0,85.0,-89.0
128.0,126.0,127.0,124.0,127.0,81.0,128.0,132.0,22.0,-103.0,-76.0,127.0,127.0,127.0,111.0,85.0,-89.0
128.0,126.0,126.0,124.0,127.0,81.0,128.0,132.0,22.0,-103.0,-76.0,127.0,127.0,127.0,111.0,85.0,-89.0
128.0,126.0,126.0,124.0,127.0,81.0,127.0,132.0,22.0,-103.0,-76.0,127.0,127.0,127.0,111.0,85.0,-89.0
128.0,126.0,126.0,124.0,126.0,81.0,127.0,131.0,22.0,-103.0,-76.0,127.0,127.0,127.0,111.0,85.0,-89.0
128.0,125.0,127.0,123.0,127.0,82.0,127.0,130.0,22.0,-103.0,-76.0,127.0,127.0,127.0,111.0,85.0,-89.0
128.0,125.0,127.0,126.0,128.0,84.0,127.0,132.0,22.0,-103.0,-76.0,127.0,127.0,127.0,111.0,85.0,-89.0
128.0,125.0,127.0,126.0,127.0,84.0,127.0,132.0,22.0,-103.0,-76.0,127.0,127.0,127.0,111.0,85.0,-89.0
128.0,125.0,128.0,126.0,127.0,84.0,127.0,132.0,22.0,-103.0,-76.0,127.0,127.0,127.0,111.0,85.0,-89.0
128.0,126.0,128.0,126.0,127.0,84.0,127.0,132.0,22.0,-103.0,-76.0,127.0,127.0,127.0,111.0,85.0,-89.0
128.0,126.0,129.0,126.0,127.0,83.0,127.0,132.0,22.0,-103.0,-76.0,127.0,127.0,127.0,111.0,85.0,-89.0
127.0,126.0,130.0,127.0,127.0,83.0,127.0,131.0,22.0,-103.0,-76.0,127.0,127.0,127.0,111.0,85.0,-89.0
127.0,126.0,130.0,127.0,127.0,83.0,127.0,131.0,22.0,-103.0,-76.0,127.0,127.0,127.0,111.0,85.0,-89.0
127.0,126.0,131.0,126.0,126.0,83.0,127.0,131.0,22.0,-103.0,-76.0,127.0,127.0,127.0,111.0,85.0,-89.0
128.0,125.0,126.0,125.0,128.0,84.0,127.0,131.0,22.0,-103.0,-76.0,127.0,127.0,127.0,111.0,85.0,-89.0
128.0,125.0,126.0,126.0,128.0,84.0,127.0,132.0,22.0,-103.0,-76.0,127.0,127.0,127.0,111.0,85.0,-89.0
126.0,124.0,133.0,124.0,126.0,83.0,126.0,126.0,22.0,-102.0,-76.0,127.0,127.0,127.0,111.0,85.0,-89.0
126.0,124.0,132.0,124.0,126.0,85.0,126.0,126.0,22.0,-102.0,-76.0,127.0,127.0,127.0,111.0,85.0,-89.0
126.0,124.0,132.0,124.0,126.0,85.0,126.0,125.0,22.0,-102.0,-76.0,127.0,127.0,127.0,111.0,85.0,-89.0
126.0,124.0,132.0,124.0,126.0,84.0,126.0,125.0,22.0,-102.0,-76.0,127.0,127.0,127.0,111.0,85.0,-89.0
126.0,123.0,132.0,123.0,126.0,84.0,126.0,124.0,22.0,-102.0,-76.0,127.0,127.0,127.0,111.0,85.0,-89.0
126.0,123.0,131.0,123.0,125.0,84.0,126.0,124.0,22.0,-102.0,-76.0,127.0,127.0,127.0,111.0,85.0,-89.0
127.0,124.0,134.0,125.0,126.0,82.0,127.0,129.0,22.0,-102.0,-76.0,127.0,127.0,127.0,111.0,85.0,-89.0
126.0,124.0,134.0,125.0,126.0,82.0,127.0,129.0,22.0,-102.0,-76.0,127.0,127.0,127.0,111.0,85.0,-89.0
126.0,124.0,134.0,125.0,126.0,82.0,126.0,128.0,22.0,-102.0,-76.0,127.0,127.0,127.0,111.0,85.0,-89.0
126.0,124.0,133.0,125.0,126.0,83.0,126.0,127.0,22.0,-102.0,-76.0,127.0,127.0,127.0,111.0,85.0,-89.0
127.0,126.0,118.0,126.0,127.0,87.0,127.0,133.0,22.0,-102.0,-76.0,127.0,127.0,127.0,111.0,85.0,-89.0
127.0,126.0,118.0,126.0,127.0,86.0,127.0,134.0,22.0,-102.0,-76.0,127.0,127.0,127.0,111.0,85.0,-89.0
127.0,126.0,118.0,126.0,127.0,86.0,127.0,133.0,22.0,-102.0,-76.0,127.0,127.0,127.0,111.0,85.0,-89.0
127.0,126.0,118.0,126.0,127.0,86.0,127.0,133.0,22.0,-102.0,-76.0,127.0,127.0,127.0,111.0,85.0,-89.0
127.0,126.0,118.0,126.0,127.0,86.0,127.0,133.0,22.0,-102.0,-76.0,127.0,127.0,127.0,111.0,85.0,-89.0
126.0,125.0,120.0,124.0,127.0,86.0,127.0,128.0,22.0,-102.0,-76.0,127.0,127.0,127.0,111.0,85.0,-89.0
127.0,125.0,120.0,125.0,127.0,86.0,127.0,130.0,22.0,-102.0,-76.0,127.0,127.0,127.0,111.0,85.0,-89.0
127.0,125.0,120.0,126.0,127.0,86.0,127.0,131.0,22.0,-102.0,-76.0,127.0,127.0,127.0,111.0,85.0,-89.0
127.0,125.0,119.0,126.0,127.0,85.0,127.0,132.0,22.0,-102.0,-76.0,127.0,127.0,127.0,111.0,85.0,-89.0
127.0,126.0,119.0,126.0,127.0,86.0,127.0,133.0,22.0,-102.0,-76.0,127.0,127.0,127.0,111.0,85.0,-89.0
127.0,125.0,111.0,123.0,127.0,88.0,127.0,126.0,22.0,-103.0,-76.0,127.0,127.0,127.0,111.0,85.0,-89.0
127.0,125.0,111.0,124.0,127.0,88.0,127.0,126.0,22.0,-103.0,-76.0,127.0,127.0,127.0,111.0,85.0,-89.0
127.0,125.0,111.0,124.0,127.0,88.0,127.0,126.0,22.0,-103.0,-76.0,127.0,127.0,127.0,111.0,85.0,-89.0
127.0,125.0,111.0,125.0,127.0,88.0,127.0,126.0,22.0,-103.0,-76.0,127.0,127.0,127.0,111.0,85.0,-89.0
127.0,126.0,111.0,117.0,126.0,87.0,127.0,128.0,22.0,-103.0,-76.0,127.0,127.0,127.0,111.0,85.0,-89.0
127.0,125.0,111.0,118.0,126.0,87.0,127.0,128.0,22.0,-103.0,-76.0,127.0,127.0,127.0,111.0,85.0,-89.0
127.0,125.0,111.0,118.0,126.0,86.0,127.0,127.0,22.0,-103.0,-76.0,127.0,127.0,127.0,111.0,85.0,-89.0
127.0,125.0,111.0,119.0,126.0,87.0,127.0,127.0,22.0,-103.0,-76.0,127.0,127.0,127.0,111.0,85.0,-89.0
127.0,125.0,111.0,120.0,126.0,87.0,127.0,127.0,22.0,-103.0,-76.0,127.0,127.0,127.0,111.0,85.0,-89.0
127.0,125.0,111.0,122.0,126.0,88.0,127.0,127.0,22.0,-103.0,-76.0,127.0,127.0,127.0,111.0,85.0,-89.0
127.0,126.0,112.0,125.0,127.0,90.0,127.0,131.0,23.0,-103.0,-76.0,127.0,127.0,127.0,111.0,85.0,-89.0
127.0,126.0,112.0,125.0,127.0,89.0,128.0,132.0,23.0,-103.0,-76.0,127.0,127.0,127.0,111.0,85.0,-89.0
128.0,126.0,112.0,125.0,127.0,89.0,128.0,131.0,23.0,-103.0,-76.0,127.0,127.0,127.0,111.0,85.0,-89.0
127.0,126.0,112.0,125.0,127.0,89.0,127.0,129.0,23.0,-103.0,-76.0,127.0,127.0,127.0,111.0,85.0,-89.0
127.0,126.0,112.0,125.0,127.0,88.0,127.0,129.0,23.0,-103.0,-76.0,127.0,127.0,127.0,111.0,85.0,-89.0
127.0,126.0,112.0,125.0,127.0,88.0,127.0,130.0,23.0,-103.0,-76.0,127.0,127.0,127.0,111.0,85.0,-89.0
127.0,126.0,112.0,125.0,127.0,88.0,127.0,130.0,23.0,-103.0,-76.0,127.0,127.0,127.0,111.0,85.0,-89.0
127.0,126.0,112.0,125.0,127.0,88.0,127.0,131.0,23.0,-103.0,-76.0,127.0,127.0,127.0,111.0,85.0,-89.0
127.0,126.0,112.0,124.0,127.0,90.0,127.0,131.0,23.0,-103.0,-76.0,127.0,127.0,127.0,111.0,85.0,-89.0
127.0,126.0,112.0,124.0,127.0,90.0,127.0,131.0,23.0,-103.0,-76.0,127.0,127.0,127.0,111.0,85.0,-89.0
126.0,125.0,119.0,118.0,127.0,91.0,127.0,126.0,23.0,-103.0,-76.0,127.0,127.0,127.0,111.0,85.0,-89.0
126.0,125.0,119.0,119.0,127.0,90.0,127.0,127.0,23.0,-103.0,-76.0,127.0,127.0,127.0,111.0,85.0,-89.0
126.0,126.0,119.0,123.0,128.0,90.0,126.0,121.0,23.0,-103.0,-76.0,127.0,127.0,127.0,111.0,85.0,-89.0
126.0,126.0,119.0,122.0,128.0,90.0,126.0,122.0,23.0,-103.0,-76.0,127.0,127.0,127.0,111.0,85.0,-89.0
126.0,126.0,119.0,121.0,128.0,89.0,127.0,122.0,23.0,-103.0,-76.0,127.0,127.0,127.0,111.0,85.0,-89.0
126.0,126.0,119.0,120.0,128.0,89.0,127.0,123.0,23.0,-103.0,-76.0,127.0,127.0,127.0,111.0,85.0,-89.0
126.0,126.0,119.0,119.0,128.0,89.0,127.0,123.0,23.0,-103.0,-76.0,127.0,127.0,127.0,111.0,85.0,-89.0
126.0,126.0,118.0,119.0,128.0,90.0,126.0,123.0,23.0,-103.0,-76.0,127.0,127.0,127.0,111.0,85.0,-89.0
126.0,126.0,118.0,118.0,128.0,91.0,126.0,124.0,23.0,-103.0,-76.0,127.0,127.0,127.0,111.0,85.0,-89.0
126.0,126.0,119.0,118.0,127.0,91.0,127.0,125.0,23.0,-103.0,-76.0,127.0,127.0,127.0,111.0,85.0,-89.0
127.0,126.0,121.0,126.0,126.0,92.0,127.0,127.0,23.0,-103.0,-76.0,127.0,127.0,127.0,111.0,85.0,-89.0
127.0,126.0,121.0,125.0,126.0,91.0,127.0,131.0,23.0,-103.0,-76.0,127.0,127.0,127.0,111.0,85.0,-89.0
127.0,126.0,121.0,125.0,126.0,91.0,127.0,130.0,23.0,-103.0,-76.0,127.0,127.0,127.0,111.0,85.0,-89.0
127.0,126.0,121.0,125.0,126.0,91.0,127.0,130.0,23.0,-103.0,-76.0,127.0,127.0,127.0,111.0,85.0,-89.0
127.0,126.0,121.0,125.0,126.0,91.0,127.0,129.0,23.0,-103.0,-76.0,127.0,127.0,127.0,111.0,85.0,-89.0
127.0,126.0,121.0,125.0,126.0,91.0,127.0,128.0,23.0,-103.0,-76.0,127.0,127.0,127.0,111.0,85.0,-89.0
127.0,126.0,121.0,125.0,126.0,92.0,127.0,127.0,23.0,-103.0,-76.0,127.0,127.0,127.0,111.0,85.0,-89.0
127.0,126.0,121.0,125.0,126.0,92.0,127.0,127.0,23.0,-103.0,-76.0,127.0,127.0,127.0,111.0,85.0,-89.0
127.0,126.0,121.0,126.0,126.0,92.0,127.0,127.0,23.0,-103.0,-76.0,127.0,127.0,127.0,111.0,85.0,-89.0
127.0,126.0,121.0,126.0,126.0,92.0,127.0,127.0,23.0,-103.0,-76.0,127.0,127.0,127.0,111.0,85.0,-89.0
128.0,127.0,125.0,121.0,126.0,93.0,127.0,131.0,23.0,-103.0,-76.0,127.0,127.0,127.0,111.0,85.0,-89.0
128.0,127.0,125.0,120.0,126.0,93.0,127.0,131.0,23.0,-103.0,-76.0,127.0,127.0,127.0,111.0,85.0,-89.0
128.0,127.0,125.0,120.0,126.0,92.0,127.0,132.0,23.0,-103.0,-76.0,127.0,127.0,127.0,111.0,85.0,-89.0
128.0,126.0,125.0,120.0,126.0,92.0,127.0,132.0,23.0,-103.0,-76.0,127.0,127.0,127.0,111.0,85.0,-89.0
128.0,126.0,125.0,121.0,127.0,92.0,127.0,132.0,23.0,-103.0,-76.0,127.0,127.0,127.0,111.0,85.0,-89.0
128.0,127.0,124.0,122.0,127.0,93.0,127.0,132.0,23.0,-103.0,-76.0,127.0,127.0,127.0,111.0,85.0,-89.0
128.0,127.0,124.0,122.0,127.0,94.0,127.0,132.0,23.0,-103.0,-76.0,127.0,127.0,127.0,111.0,85.0,-89.0
128.0,127.0,124.0,123.0,127.0,94.0,127.0,131.0,23.0,-103.0,-76.0,127.0,127.0,127.0,111.0,85.0,-89.0
128.0,127.0,123.0,123.0,127.0,93.0,127.0,131.0,23.0,-103.0,-76.0,127.0,127.0,127.0,111.0,85.0,-89.0
128.0,126.0,123.0,123.0,127.0,93.0,127.0,131.0,23.0,-103.0,-76.0,127.0,127.0,127.0,111.0,85.0,-89.0
128.0,126.0,128.0,126.0,127.0,94.0,127.0,132.0,23.0,-104.0,-77.0,127.0,127.0,127.0,111.0,85.0,-89.0
128.0,126.0,128.0,126.0,127.0,93.0,127.0,132.0,23.0,-104.0,-77.0,127.0,127.0,127.0,111.0,85.0,-89.0
128.0,126.0,128.0,127.0,127.0,93.0,127.0,131.0,23.0,-104.0,-77.0,127.0,127.0,127.0,111.0,85.0,-89.0
128.0,126.0,127.0,127.0,127.0,93.0,127.0,131.0,23.0,-104.0,-77.0,127.0,127.0,127.0,111.0,85.0,-89.0
127.0,126.0,126.0,126.0,126.0,94.0,126.0,131.0,23.0,-104.0,-77.0,127.0,127.0,127.0,111.0,85.0,-89.0
127.0,126.0,125.0,126.0,126.0,95.0,126.0,131.0,23.0,-104.0,-77.0,127.0,127.0,127.0,111.0,85.0,-89.0
127.0,126.0,125.0,126.0,126.0,95.0,126.0,131.0,23.0,-104.0,-77.0,127.0,127.0,127.0,111.0,85.0,-89.0
127.0,125.0,125.0,125.0,126.0,95.0,126.0,132.0,23.0,-104.0,-77.0,127.0,127.0,127.0,111.0,85.0,-89.0
127.0,125.0,124.0,125.0,125.0,95.0,126.0,132.0,23.0,-104.0,-77.0,127.0,127.0,127.0,111.0,85.0,-89.0
128.0,126.0,128.0,126.0,127.0,94.0,127.0,133.0,23.0,-104.0,-77.0,127.0,127.0,127.0,111.0,85.0,-89.0
126.0,125.0,127.0,121.0,126.0,93.0,126.0,126.0,23.0,-104.0,-77.0,127.0,127.0,127.0,111.0,85.0,-89.0
126.0,125.0,127.0,120.0,126.0,94.0,126.0,127.0,23.0,-104.0,-77.0,127.0,127.0,127.0,111.0,85.0,-89.0
126.0,124.0,127.0,120.0,126.0,94.0,126.0,127.0,23.0,-104.0,-77.0,127.0,127.0,127.0,111.0,85.0,-89.0
126.0,124.0,127.0,120.0,126.0,94.0,126.0,128.0,23.0,-104.0,-77.0,127.0,127.0,127.0,111.0,85.0,-89.0
126.0,124.0,127.0,121.0,126.0,94.0,126.0,129.0,23.0,-104.0,-77.0,127.0,127.0,127.0,111.0,85.0,-89.0
126.0,124.0,127.0,122.0,126.0,94.0,126.0,129.0,23.0,-104.0,-77.0,127.0,127.0,127.0,111.0,85.0,-89.0
126.0,124.0,127.0,123.0,126.0,94.0,126.0,129.0,23.0,-104.0,-77.0,127.0,127.0,127.0,111.0,85.0,-89.0
126.0,125.0,127.0,124.0,126.0,96.0,126.0,130.0,23.0,-104.0,-77.0,127.0,127.0,127.0,111.0,85.0,-89.0
126.0,125.0,128.0,122.0,127.0,93.0,126.0,125.0,23.0,-104.0,-77.0,127.0,127.0,127.0,111.0,85.0,-89.0
126.0,125.0,127.0,121.0,127.0,94.0,126.0,126.0,23.0,-104.0,-77.0,127.0,127.0,127.0,111.0,85.0,-89.0
127.0,126.0,127.0,123.0,127.0,96.0,127.0,131.0,23.0,-104.0,-77.0,127.0,127.0,127.0,111.0,85.0,-89.0
127.0,126.0,127.0,123.0,127.0,96.0,127.0,131.0,23.0,-104.0,-77.0,127.0,127.0,127.0,111.0,85.0,-89.0
127.0,126.0,127.0,123.0,127.0,96.0,127.0,131.0,23.0,-104.0,-77.0,127.0,127.0,127.0,111.0,85.0,-89.0
127.0,126.0,127.0,123.0,127.0,96.0,127.0,131.0,23.0,-104.0,-77.0,127.0,127.0,127.0,111.0,85.0,-89.0
127.0,126.0,127.0,123.0,127.0,96.0,127.0,131.0,23.0,-104.0,-77.0,127.0,127.0,127.0,111.0,85.0,-89.0
127.0,126.0,127.0,123.0,127.0,96.0,127.0,131.0,23.0,-104.0,-77.0,127.0,127.0,127.0,111.0,85.0,-89.0
127.0,126.0,128.0,123.0,127.0,95.0,127.0,130.0,23.0,-104.0,-77.0,127.0,127.0,127.0,111.0,85.0,-89.0
127.0,126.0,127.0,124.0,127.0,95.0,127.0,131.0,23.0,-104.0,-77.0,127.0,127.0,127.0,111.0,85.0,-89.0
127.0,126.0,127.0,124.0,127.0,95.0,127.0,131.0,23.0,-104.0,-77.0,127.0,127.0,127.0,111.0,85.0,-89.0
127.0,126.0,127.0,124.0,127.0,96.0,127.0,131.0,23.0,-104.0,-77.0,127.0,127.0,127.0,111.0,85.0,-89.0
127.0,127.0,126.0,124.0,127.0,97.0,127.0,131.0,23.0,-104.0,-77.0,127.0,127.0,127.0,111.0,85.0,-89.0
127.0,126.0,126.0,123.0,127.0,96.0,127.0,131.0,23.0,-104.0,-77.0,127.0,127.0,127.0,111.0,85.0,-89.0
127.0,126.0,126.0,123.0,127.0,96.0,127.0,132.0,23.0,-104.0,-77.0,127.0,127.0,127.0,111.0,85.0,-89.0
127.0,126.0,126.0,124.0,127.0,96.0,127.0,131.0,23.0,-104.0,-77.0,127.0,127.0,127.0,111.0,85.0,-89.0
127.0,126.0,125.0,124.0,127.0,96.0,127.0,131.0,23.0,-104.0,-77.0,127.0,127.0,127.0,111.0,85.0,-89.0
127.0,126.0,126.0,124.0,127.0,96.0,127.0,131.0,23.0,-104.0,-77.0,127.0,127.0,127.0,111.0,85.0,-89.0
127.0,126.0,127.0,124.0,127.0,95.0,127.0,130.0,23.0,-104.0,-77.0,127.0,127.0,127.0,111.0,85.0,-89.0
127.0,126.0,127.0,124.0,127.0,95.0,127.0,131.0,23.0,-104.0,-77.0,127.0,127.0,127.0,111.0,85.0,-89.0
127.0,126.0,127.0,123.0,127.0,95.0,127.0,131.0,23.0,-104.0,-77.0,127.0,127.0,127.0,111.0,85.0,-89.0
127.0,127.0,126.0,123.0,127.0,97.0,127.0,131.0,23.0,-104.0,-77.0,127.0,127.0,127.0,111.0,85.0,-89.0
127.0,126.0,128.0,126.0,127.0,98.0,127.0,129.0,23.0,-104.0,-77.0,127.0,127.0,127.0,111.0,85.0,-89.0
127.0,126.0,128.0,125.0,127.0,98.0,127.0,130.0,23.0,-104.0,-77.0,127.0,127.0,127.0,111.0,85.0,-89.0
127.0,126.0,128.0,125.0,127.0,98.0,127.0,131.0,23.0,-104.0,-77.0,127.0,127.0,127.0,111.0,85.0,-89.0
127.0,126.0,127.0,125.0,127.0,98.0,127.0,131.0,23.0,-104.0,-77.0,127.0,127.0,127.0,111.0,85.0,-89.0
127.0,126.0,127.0,125.0,127.0,97.0,127.0,131.0,23.0,-104.0,-77.0,127.0,127.0,127.0,111.0,85.0,-89.0
126.0,125.0,128.0,125.0,127.0,96.0,126.0,123.0,23.0,-104.0,-77.0,127.0,127.0,127.0,111.0,85.0,-89.0
126.0,125.0,128.0,125.0,127.0,97.0,126.0,124.0,23.0,-104.0,-77.0,127.0,127.0,127.0,111.0,85.0,-89.0
126.0,126.0,128.0,125.0,127.0,97.0,127.0,126.0,23.0,-104.0,-77.0,127.0,127.0,127.0,111.0,85.0,-89.0
127.0,126.0,128.0,125.0,127.0,98.0,127.0,127.0,23.0,-104.0,-77.0,127.0,127.0,127.0,111.0,85.0,-89.0
127.0,126.0,128.0,126.0,127.0,98.0,127.0,128.0,23.0,-104.0,-77.0,127.0,127.0,127.0,111.0,85.0,-89.0
127.0,127.0,128.0,124.0,127.0,98.0,127.0,126.0,23.0,-104.0,-77.0,127.0,127.0,127.0,111.0,85.0,-89.0
127.0,127.0,128.0,124.0,127.0,98.0,127.0,126.0,23.0,-104.0,-77.0,127.0,127.0,127.0,111.0,85.0,-89.0
127.0,127.0,128.0,125.0,127.0,98.0,127.0,127.0,23.0,-104.0,-77.0,127.0,127.0,127.0,111.0,85.0,-89.0
127.0,127.0,128.0,125.0,127.0,97.0,127.0,128.0,23.0,-104.0,-77.0,127.0,127.0,127.0,111.0,85.0,-89.0
127.0,126.0,127.0,125.0,127.0,97.0,127.0,125.0,23.0,-104.0,-77.0,127.0,127.0,127.0,111.0,85.0,-89.0
127.0,126.0,127.0,124.0,127.0,97.0,127.0,125.0,23.0,-104.0,-77.0,127.0,127.0,127.0,111.0,85.0,-89.0
127.0,127.0,127.0,124.0,127.0,97.0,127.0,125.0,23.0,-104.0,-77.0,127.0,127.0,127.0,111.0,85.0,-89.0
127.0,127.0,127.0,124.0,127.0,98.0,127.0,125.0,23.0,-104.0,-77.0,127.0,127.0,127.0,111.0,85.0,-89.0
127.0,127.0,128.0,123.0,127.0,98.0,127.0,125.0,23.0,-104.0,-77.0,127.0,127.0,127.0,111.0,85.0,-89.0
127.0,127.0,128.0,124.0,127.0,98.0,127.0,125.0,23.0,-104.0,-77.0,127.0,127.0,127.0,111.0,85.0,-89.0
127.0,126.0,126.0,122.0,126.0,100.0,126.0,124.0,23.0,-104.0,-77.0,127.0,127.0,127.0,111.0,85.0,-89.0
127.0,126.0,126.0,123.0,126.0,100.0,126.0,125.0,23.0,-104.0,-77.0,127.0,127.0,127.0,111.0,85.0,-89.0
127.0,126.0,126.0,123.0,126.0,99.0,126.0,125.0,23.0,-104.0,-77.0,127.0,127.0,127.0,111.0,85.0,-89.0
127.0,127.0,127.0,123.0,127.0,98.0,127.0,125.0,23.0,-104.0,-77.0,127.0,127.0,127.0,111.0,85.0,-89.0
127.0,127.0,127.0,123.0,127.0,98.0,127.0,124.0,23.0,-104.0,-77.0,127.0,127.0,127.0,111.0,85.0,-89.0
127.0,127.0,126.0,122.0,127.0,98.0,127.0,124.0,23.0,-104.0,-77.0,127.0,127.0,127.0,111.0,85.0,-89.0
127.0,127.0,126.0,122.0,127.0,99.0,126.0,124.0,23.0,-104.0,-77.0,127.0,127.0,127.0,111.0,85.0,-89.0
127.0,127.0,126.0,122.0,127.0,100.0,126.0,124.0,23.0,-104.0,-77.0,127.0,127.0,127.0,111.0,85.0,-89.0
127.0,126.0,126.0,122.0,127.0,100.0,126.0,124.0,23.0,-104.0,-77.0,127.0,127.0,127.0,111.0,85.0,-89.0
127.0,126.0,126.0,122.0,126.0,100.0,126.0,124.0,23.0,-104.0,-77.0,127.0,127.0,127.0,111.0,85.0,-89.0
126.0,125.0,126.0,124.0,126.0,98.0,127.0,127.0,23.0,-104.0,-77.0,127.0,127.0,127.0,111.0,85.0,-89.0
126.0,125.0,126.0,124.0,126.0,98.0,127.0,127.0,23.0,-104.0,-77.0,127.0,127.0,127.0,111.0,85.0,-89.0
127.0,125.0,128.0,121.0,127.0,97.0,127.0,132.0,23.0,-104.0,-77.0,127.0,127.0,127.0,111.0,85.0,-89.0
127.0,125.0,128.0,121.0,127.0,97.0,127.0,132.0,23.0,-104.0,-77.0,127.0,127.0,127.0,111.0,85.0,-89.0
127.0,125.0,127.0,122.0,127.0,97.0,127.0,131.0,23.0,-104.0,-77.0,127.0,127.0,127.0,111.0,85.0,-89.0
127.0,125.0,127.0,123.0,127.0,98.0,127.0,130.0,23.0,-104.0,-77.0,127.0,127.0,127.0,111.0,85.0,-89.0
127.0,126.0,126.0,124.0,127.0,98.0,127.0,130.0,23.0,-104.0,-77.0,127.0,127.0,127.0,111.0,85.0,-89.0
126.0,126.0,126.0,124.0,127.0,98.0,127.0,129.0,23.0,-104.0,-77.0,127.0,127.0,127.0,111.0,85.0,-89.0
126.0,125.0,126.0,124.0,126.0,98.0,127.0,128.0,23.0,-104.0,-77.0,127.0,127.0,127.0,111.0,85.0,-89.0
126.0,125.0,126.0,124.0,126.0,98.0,127.0,128.0,23.0,-104.0,-77.0,127.0,127.0,127.0,111.0,85.0,-89.0
127.0,125.0,124.0,124.0,126.0,99.0,127.0,128.0,22.0,-103.0,-77.0,127.0,127.0,127.0,111.0,85.0,-89.0
127.0,125.0,125.0,123.0,127.0,98.0,127.0,128.0,22.0,-103.0,-77.0,127.0,127.0,127.0,111.0,85.0,-89.0
127.0,125.0,125.0,123.0,127.0,98.0,127.0,128.0,22.0,-103.0,-77.0,127.0,127.0,127.0,111.0,85.0,-89.0
127.0,125.0,125.0,123.0,127.0,98.0,127.0,128.0,22.0,-103.0,-77.0,127.0,127.0,127.0,111.0,85.0,-89.0
127.0,126.0,124.0,123.0,127.0,99.0,127.0,128.0,22.0,-103.0,-77.0,127.0,127.0,127.0,111.0,85.0,-89.0
127.0,126.0,124.0,123.0,127.0,100.0,127.0,128.0,22.0,-103.0,-77.0,127.0,127.0,127.0,111.0,85.0,-89.0
127.0,126.0,124.0,123.0,126.0,99.0,127.0,128.0,22.0,-103.0,-77.0,127.0,127.0,127.0,111.0,85.0,-89.0
127.0,125.0,124.0,123.0,126.0,99.0,127.0,128.0,22.0,-103.0,-77.0,127.0,127.0,127.0,111.0,85.0,-89.0
127.0,125.0,123.0,123.0,126.0,99.0,126.0,128.0,22.0,-103.0,-77.0,127.0,127.0,127.0,111.0,85.0,-89.0
127.0,125.0,123.0,124.0,126.0,99.0,127.0,128.0,22.0,-103.0,-77.0,127.0,127.0,127.0,111.0,85.0,-89.0
127.0,125.0,128.0,124.0,126.0,98.0,127.0,129.0,22.0,-103.0,-77.0,127.0,127.0,127.0,111.0,85.0,-89.0
127.0,125.0,129.0,125.0,127.0,98.0,127.0,129.0,22.0,-103.0,-77.0,127.0,127.0,127.0,111.0,85.0,-89.0
127.0,125.0,129.0,126.0,127.0,98.0,127.0,128.0,22.0,-103.0,-77.0,127.0,127.0,127.0,111.0,85.0,-89.0
127.0,125.0,130.0,126.0,127.0,97.0,127.0,128.0,22.0,-103.0,-77.0,127.0,127.0,127.0,111.0,85.0,-89.0
127.0,125.0,130.0,127.0,127.0,97.0,127.0,128.0,22.0,-103.0,-77.0,127.0,127.0,127.0,111.0,85.0,-89.0
127.0,125.0,131.0,127.0,127.0,97.0,127.0,128.0,22.0,-103.0,-77.0,127.0,127.0,127.0,111.0,85.0,-89.0
127.0,125.0,131.0,127.0,127.0,97.0,127.0,128.0,22.0,-103.0,-77.0,127.0,127.0,127.0,111.0,85.0,-89.0
127.0,125.0,131.0,127.0,127.0,97.0,127.0,127.0,22.0,-103.0,-77.0,127.0,127.0,127.0,111.0,85.0,-89.0
127.0,125.0,131.0,127.0,128.0,97.0,127.0,127.0,22.0,-103.0,-77.0,127.0,127.0,127.0,111.0,85.0,-89.0
127.0,126.0,131.0,127.0,128.0,98.0,127.0,127.0,22.0,-103.0,-77.0,127.0,127.0,127.0,111.0,85.0,-89.0
127.0,125.0,129.0,124.0,127.0,99.0,127.0,127.0,22.0,-104.0,-77.0,127.0,127.0,127.0,111.0,85.0,-89.0
127.0,126.0,129.0,124.0,127.0,99.0,127.0,127.0,22.0,-104.0,-77.0,127.0,127.0,127.0,111.0,85.0,-89.0
