emg1,emg2,emg3,emg4,emg5,emg6,emg7,emg8,acc_x,acc_y,acc_z,gyro_x,gyro_y,gyro_z,angle_pitch,angle_roll,angle_yaw
127.0,127.0,127.0,127.0,127.0,127.0,112.0,128.0,24.0,-116.0,-70.0,127.0,127.0,127.0,119.0,86.0,-47.0
127.0,127.0,127.0,127.0,127.0,127.0,112.0,128.0,24.0,-116.0,-70.0,127.0,127.0,127.0,119.0,86.0,-47.0
127.0,127.0,127.0,127.0,127.0,127.0,112.0,128.0,24.0,-116.0,-70.0,127.0,127.0,127.0,119.0,86.0,-47.0
127.0,127.0,127.0,127.0,127.0,127.0,113.0,127.0,24.0,-116.0,-70.0,127.0,127.0,127.0,119.0,86.0,-47.0
127.0,127.0,127.0,127.0,127.0,127.0,112.0,127.0,24.0,-116.0,-70.0,127.0,127.0,127.0,119.0,86.0,-47.0
127.0,127.0,127.0,127.0,127.0,127.0,113.0,128.0,24.0,-116.0,-70.0,127.0,127.0,127.0,119.0,86.0,-47.0
127.0,127.0,127.0,127.0,127.0,127.0,113.0,128.0,24.0,-116.0,-70.0,127.0,127.0,127.0,119.0,86.0,-47.0
127.0,127.0,127.0,127.0,127.0,127.0,112.0,128.0,24.0,-116.0,-70.0,127.0,127.0,127.0,119.0,86.0,-47.0
127.0,127.0,127.0,127.0,127.0,127.0,112.0,128.0,24.0,-116.0,-70.0,127.0,127.0,127.0,119.0,86.0,-47.0
127.0,127.0,127.0,127.0,127.0,127.0,112.0,128.0,24.0,-116.0,-70.0,127.0,127.0,127.0,119.0,86.0,-47.0
127.0,127.0,127.0,127.0,127.0,127.0,113.0,128.0,24.0,-116.0,-70.0,127.0,127.0,127.0,119.0,86.0,-47.0
127.0,127.0,127.0,127.0,127.0,127.0,113.0,128.0,24.0,-116.0,-70.0,127.0,127.0,127.0,119.0,86.0,-47.0
127.0,127.0,127.0,127.0,127.0,126.0,113.0,128.0,24.0,-116.0,-70.0,127.0,127.0,127.0,119.0,86.0,-47.0
127.0,127.0,127.0,127.0,127.0,126.0,112.0,128.0,24.0,-116.0,-70.0,127.0,127.0,127.0,119.0,86.0,-47.0
127.0,127.0,127.0,127.0,127.0,126.0,112.0,128.0,24.0,-116.0,-70.0,127.0,127.0,127.0,119.0,86.0,-47.0
127.0,127.0,127.0,127.0,127.0,126.0,112.0,128.0,24.0,-116.0,-70.0,127.0,127.0,127.0,119.0,86.0,-47.0
127.0,127.0,127.0,127.0,127.0,127.0,112.0,128.0,24.0,-116.0,-70.0,127.0,127.0,127.0,119.0,86.0,-47.0
127.0,127.0,127.0,127.0,127.0,127.0,112.0,128.0,24.0,-116.0,-70.0,127.0,127.0,127.0,119.0,86.0,-47.0
127.0,127.0,127.0,127.0,127.0,127.0,112.0,128.0,24.0,-116.0,-70.0,127.0,127.0,127.0,119.0,86.0,-47.0
127.0,127.0,127.0,127.0,127.0,127.0,113.0,127.0,24.0,-116.0,-70.0,127.0,127.0,127.0,119.0,86.0,-47.0
126.0,127.0,127.0,127.0,127.0,126.0,112.0,128.0,24.0,-116.0,-70.0,127.0,127.0,127.0,119.0,86.0,-47.0
127.0,127.0,127.0,127.0,127.0,126.0,112.0,128.0,24.0,-116.0,-70.0,127.0,127.0,127.0,119.0,86.0,-47.0
127.0,127.0,127.0,127.0,127.0,127.0,112.0,128.0,24.0,-116.0,-70.0,127.0,127.0,127.0,119.0,86.0,-47.0
127.0,127.0,127.0,127.0,127.0,127.0,112.0,128.0,24.0,-116.0,-70.0,127.0,127.0,127.0,119.0,86.0,-47.0
127.0,127.0,127.0,127.0,127.0,127.0,112.0,128.0,24.0,-116.0,-70.0,127.0,127.0,127.0,119.0,86.0,-47.0
127.0,127.0,127.0,127.0,127.0,126.0,112.0,128.0,24.0,-116.0,-70.0,127.0,127.0,127.0,119.0,86.0,-47.0
127.0,127.0,127.0,127.0,127.0,126.0,112.0,128.0,24.0,-116.0,-70.0,127.0,127.0,127.0,119.0,86.0,-47.0
127.0,127.0,127.0,127.0,127.0,126.0,112.0,128.0,24.0,-116.0,-70.0,127.0,127.0,127.0,119.0,86.0,-47.0
127.0,127.0,127.0,127.0,127.0,126.0,113.0,128.0,24.0,-116.0,-70.0,127.0,127.0,127.0,119.0,86.0,-47.0
126.0,127.0,127.0,127.0,127.0,126.0,112.0,128.0,24.0,-116.0,-70.0,127.0,127.0,127.0,119.0,86.0,-47.0
127.0,127.0,127.0,127.0,127.0,127.0,112.0,128.0,24.0,-116.0,-70.0,127.0,127.0,127.0,119.0,86.0,-47.0
127.0,127.0,127.0,127.0,127.0,127.0,112.0,128.0,24.0,-116.0,-70.0,127.0,127.0,127.0,119.0,86.0,-47.0
127.0,127.0,127.0,127.0,127.0,127.0,113.0,128.0,24.0,-116.0,-70.0,127.0,127.0,127.0,119.0,86.0,-47.0
127.0,127.0,127.0,127.0,127.0,127.0,113.0,128.0,24.0,-116.0,-70.0,127.0,127.0,127.0,119.0,86.0,-47.0
127.0,127.0,127.0,127.0,127.0,127.0,113.0,128.0,24.0,-116.0,-70.0,127.0,127.0,127.0,119.0,86.0,-47.0
127.0,127.0,127.0,127.0,127.0,127.0,113.0,128.0,24.0,-116.0,-70.0,127.0,127.0,127.0,119.0,86.0,-47.0
126.0,127.0,127.0,127.0,127.0,127.0,113.0,128.0,24.0,-116.0,-70.0,127.0,127.0,127.0,119.0,86.0,-47.0
126.0,127.0,127.0,127.0,127.0,127.0,113.0,128.0,24.0,-116.0,-70.0,127.0,127.0,127.0,119.0,86.0,-47.0
126.0,127.0,127.0,127.0,127.0,127.0,112.0,128.0,24.0,-116.0,-70.0,127.0,127.0,127.0,119.0,86.0,-47.0
126.0,127.0,127.0,127.0,127.0,127.0,112.0,128.0,24.0,-116.0,-70.0,127.0,127.0,127.0,119.0,86.0,-47.0
127.0,127.0,127.0,127.0,127.0,127.0,112.0,128.0,24.0,-116.0,-70.0,127.0,127.0,127.0,119.0,86.0,-47.0
127.0,127.0,127.0,127.0,127.0,127.0,113.0,128.0,24.0,-116.0,-70.0,127.0,127.0,127.0,119.0,86.0,-47.0
127.0,127.0,127.0,127.0,127.0,127.0,113.0,128.0,24.0,-116.0,-70.0,127.0,127.0,127.0,119.0,86.0,-47.0
127.0,127.0,127.0,127.0,127.0,127.0,113.0,128.0,24.0,-116.0,-70.0,127.0,127.0,127.0,119.0,86.0,-47.0
127.0,127.0,127.0,127.0,127.0,127.0,113.0,128.0,24.0,-116.0,-70.0,127.0,127.0,127.0,119.0,86.0,-47.0
127.0,127.0,127.0,127.0,127.0,127.0,113.0,128.0,24.0,-116.0,-70.0,127.0,127.0,127.0,119.0,86.0,-47.0
126.0,127.0,127.0,127.0,127.0,127.0,112.0,128.0,24.0,-116.0,-70.0,127.0,127.0,127.0,119.0,86.0,-47.0
126.0,127.0,127.0,127.0,127.0,127.0,112.0,128.0,24.0,-116.0,-70.0,127.0,127.0,127.0,119.0,86.0,-47.0
126.0,127.0,127.0,127.0,127.0,127.0,112.0,128.0,24.0,-116.0,-70.0,127.0,127.0,127.0,119.0,86.0,-47.0
127.0,127.0,127.0,127.0,127.0,127.0,112.0,128.0,24.0,-116.0,-70.0,127.0,127.0,127.0,119.0,86.0,-47.0
127.0,127.0,127.0,127.0,127.0,126.0,112.0,128.0,24.0,-116.0,-70.0,127.0,127.0,127.0,119.0,86.0,-47.0
127.0,127.0,127.0,127.0,127.0,126.0,112.0,128.0,24.0,-116.0,-70.0,127.0,127.0,127.0,119.0,86.0,-47.0
127.0,127.0,127.0,127.0,127.0,126.0,112.0,128.0,24.0,-116.0,-70.0,127.0,127.0,127.0,119.0,86.0,-47.0
127.0,127.0,127.0,127.0,127.0,126.0,112.0,128.0,24.0,-116.0,-70.0,127.0,127.0,127.0,119.0,86.0,-47.0
127.0,127.0,127.0,127.0,127.0,126.0,112.0,128.0,24.0,-116.0,-70.0,127.0,127.0,127.0,119.0,86.0,-47.0
127.0,127.0,127.0,127.0,127.0,126.0,112.0,128.0,24.0,-116.0,-70.0,127.0,127.0,127.0,119.0,86.0,-47.0
127.0,127.0,127.0,127.0,127.0,126.0,112.0,128.0,24.0,-116.0,-70.0,127.0,127.0,127.0,119.0,86.0,-47.0
127.0,127.0,127.0,127.0,127.0,126.0,112.0,128.0,24.0,-116.0,-70.0,127.0,127.0,127.0,119.0,86.0,-47.0
127.0,127.0,127.0,127.0,127.0,126.0,112.0,128.0,24.0,-116.0,-70.0,127.0,127.0,127.0,119.0,86.0,-47.0
127.0,127.0,127.0,127.0,127.0,126.0,112.0,128.0,24.0,-116.0,-70.0,127.0,127.0,127.0,119.0,86.0,-47.0
127.0,127.0,127.0,127.0,127.0,126.0,111.0,128.0,25.0,-116.0,-70.0,127.0,127.0,127.0,119.0,86.0,-47.0
127.0,127.0,127.0,127.0,127.0,126.0,111.0,128.0,25.0,-116.0,-70.0,127.0,127.0,127.0,119.0,86.0,-47.0
127.0,127.0,127.0,127.0,127.0,126.0,111.0,128.0,25.0,-116.0,-70.0,127.0,127.0,127.0,119.0,86.0,-47.0
127.0,127.0,127.0,127.0,127.0,126.0,112.0,128.0,25.0,-116.0,-70.0,127.0,127.0,127.0,119.0,86.0,-47.0
127.0,127.0,127.0,127.0,127.0,126.0,112.0,128.0,25.0,-116.0,-70.0,127.0,127.0,127.0,119.0,86.0,-47.0
127.0,127.0,127.0,127.0,127.0,127.0,112.0,128.0,25.0,-116.0,-70.0,127.0,127.0,127.0,119.0,86.0,-47.0
127.0,127.0,127.0,127.0,127.0,126.0,112.0,128.0,25.0,-116.0,-70.0,127.0,127.0,127.0,119.0,86.0,-47.0
127.0,127.0,127.0,127.0,127.0,126.0,112.0,128.0,25.0,-116.0,-70.0,127.0,127.0,127.0,119.0,86.0,-47.0
127.0,127.0,127.0,127.0,127.0,126.0,112.0,128.0,25.0,-116.0,-70.0,127.0,127.0,127.0,119.0,86.0,-47.0
127.0,127.0,127.0,127.0,127.0,126.0,112.0,128.0,25.0,-116.0,-70.0,127.0,127.0,127.0,119.0,86.0,-47.0
127.0,127.0,127.0,127.0,127.0,127.0,113.0,128.0,25.0,-116.0,-70.0,127.0,127.0,127.0,119.0,86.0,-47.0
127.0,127.0,127.0,127.0,127.0,127.0,113.0,128.0,25.0,-116.0,-70.0,127.0,127.0,127.0,119.0,86.0,-47.0
127.0,127.0,127.0,127.0,127.0,127.0,112.0,128.0,25.0,-116.0,-70.0,127.0,127.0,127.0,119.0,86.0,-47.0
127.0,127.0,127.0,127.0,127.0,126.0,112.0,128.0,25.0,-116.0,-70.0,127.0,127.0,127.0,119.0,86.0,-47.0
127.0,127.0,127.0,127.0,127.0,126.0,112.0,128.0,25.0,-116.0,-70.0,127.0,127.0,127.0,119.0,86.0,-47.0
127.0,127.0,127.0,127.0,127.0,126.0,112.0,128.0,25.0,-116.0,-70.0,127.0,127.0,127.0,119.0,86.0,-47.0
127.0,127.0,127.0,127.0,127.0,127.0,113.0,128.0,25.0,-116.0,-70.0,127.0,127.0,127.0,119.0,86.0,-47.0
127.0,127.0,127.0,127.0,127.0,127.0,112.0,128.0,25.0,-116.0,-70.0,127.0,127.0,127.0,119.0,86.0,-47.0
127.0,127.0,127.0,127.0,127.0,127.0,113.0,128.0,25.0,-116.0,-70.0,127.0,127.0,127.0,119.0,86.0,-47.0
127.0,127.0,127.0,127.0,127.0,127.0,113.0,128.0,25.0,-116.0,-70.0,127.0,127.0,127.0,119.0,86.0,-47.0
127.0,127.0,127.0,127.0,127.0,126.0,113.0,128.0,25.0,-116.0,-70.0,127.0,127.0,127.0,119.0,86.0,-47.0
127.0,127.0,127.0,127.0,127.0,126.0,113.0,128.0,25.0,-116.0,-70.0,127.0,127.0,127.0,119.0,86.0,-47.0
127.0,127.0,127.0,127.0,127.0,126.0,113.0,128.0,25.0,-116.0,-70.0,127.0,127.0,127.0,119.0,86.0,-47.0
127.0,126.0,127.0,127.0,127.0,126.0,112.0,128.0,25.0,-116.0,-70.0,127.0,127.0,127.0,119.0,86.0,-47.0
127.0,126.0,127.0,127.0,127.0,126.0,112.0,128.0,25.0,-116.0,-70.0,127.0,127.0,127.0,119.0,86.0,-47.0
127.0,127.0,127.0,127.0,127.0,127.0,112.0,128.0,25.0,-116.0,-70.0,127.0,127.0,127.0,119.0,86.0,-47.0
127.0,127.0,127.0,127.0,127.0,127.0,112.0,128.0,25.0,-116.0,-70.0,127.0,127.0,127.0,119.0,86.0,-47.0
127.0,127.0,127.0,127.0,127.0,126.0,113.0,128.0,25.0,-116.0,-70.0,127.0,127.0,127.0,119.0,86.0,-47.0
127.0,127.0,127.0,127.0,127.0,127.0,112.0,128.0,25.0,-116.0,-70.0,127.0,127.0,127.0,119.0,86.0,-47.0
127.0,127.0,127.0,127.0,127.0,126.0,113.0,128.0,25.0,-116.0,-70.0,127.0,127.0,127.0,119.0,86.0,-47.0
127.0,127.0,127.0,127.0,127.0,127.0,112.0,128.0,25.0,-116.0,-70.0,127.0,127.0,127.0,119.0,86.0,-47.0
127.0,127.0,127.0,127.0,127.0,127.0,112.0,128.0,25.0,-116.0,-70.0,127.0,127.0,127.0,119.0,86.0,-47.0
127.0,127.0,127.0,127.0,127.0,127.0,112.0,128.0,25.0,-116.0,-70.0,127.0,127.0,127.0,119.0,86.0,-47.0
127.0,127.0,127.0,127.0,127.0,126.0,112.0,128.0,25.0,-116.0,-70.0,127.0,127.0,127.0,119.0,86.0,-47.0
127.0,127.0,127.0,127.0,127.0,127.0,112.0,128.0,25.0,-116.0,-70.0,127.0,127.0,127.0,119.0,86.0,-47.0
127.0,127.0,127.0,127.0,127.0,127.0,112.0,128.0,25.0,-116.0,-70.0,127.0,127.0,127.0,119.0,86.0,-47.0
127.0,127.0,127.0,127.0,127.0,127.0,113.0,128.0,25.0,-116.0,-70.0,127.0,127.0,127.0,119.0,86.0,-47.0
127.0,127.0,127.0,127.0,127.0,127.0,112.0,128.0,25.0,-116.0,-70.0,127.0,127.0,127.0,119.0,86.0,-47.0
127.0,127.0,127.0,127.0,127.0,127.0,112.0,128.0,25.0,-116.0,-70.0,127.0,127.0,127.0,119.0,86.0,-47.0
127.0,127.0,127.0,127.0,127.0,127.0,112.0,128.0,25.0,-116.0,-70.0,127.0,127.0,127.0,119.0,86.0,-47.0
127.0,127.0,127.0,127.0,127.0,127.0,113.0,128.0,25.0,-116.0,-70.0,127.0,127.0,127.0,119.0,86.0,-47.0
127.0,127.0,127.0,127.0,127.0,127.0,113.0,128.0,25.0,-116.0,-70.0,127.0,127.0,127.0,119.0,86.0,-47.0
127.0,127.0,127.0,127.0,127.0,127.0,113.0,128.0,25.0,-116.0,-70.0,127.0,127.0,127.0,119.0,86.0,-47.0
127.0,127.0,127.0,127.0,127.0,126.0,112.0,128.0,25.0,-116.0,-70.0,127.0,127.0,127.0,119.0,86.0,-47.0
127.0,127.0,127.0,127.0,127.0,126.0,112.0,128.0,25.0,-116.0,-70.0,127.0,127.0,127.0,119.0,86.0,-47.0
127.0,127.0,127.0,127.0,127.0,127.0,113.0,128.0,25.0,-116.0,-70.0,127.0,127.0,127.0,119.0,86.0,-47.0
127.0,127.0,127.0,127.0,127.0,127.0,113.0,128.0,25.0,-116.0,-70.0,127.0,127.0,127.0,119.0,86.0,-47.0
127.0,127.0,127.0,127.0,127.0,127.0,112.0,128.0,25.0,-116.0,-70.0,127.0,127.0,127.0,119.0,86.0,-47.0
127.0,127.0,127.0,127.0,127.0,127.0,112.0,128.0,25.0,-116.0,-70.0,127.0,127.0,127.0,119.0,86.0,-47.0
127.0,127.0,127.0,127.0,127.0,127.0,112.0,128.0,25.0,-116.0,-70.0,127.0,127.0,127.0,119.0,86.0,-47.0
127.0,127.0,127.0,127.0,127.0,127.0,113.0,127.0,25.0,-116.0,-70.0,127.0,127.0,127.0,119.0,86.0,-47.0
127.0,127.0,127.0,127.0,127.0,127.0,111.0,128.0,25.0,-116.0,-70.0,127.0,127.0,127.0,119.0,86.0,-47.0
127.0,127.0,127.0,127.0,127.0,127.0,112.0,128.0,25.0,-116.0,-70.0,127.0,127.0,127.0,119.0,86.0,-47.0
127.0,127.0,127.0,127.0,127.0,126.0,112.0,128.0,25.0,-116.0,-70.0,127.0,127.0,127.0,119.0,86.0,-47.0
127.0,127.0,127.0,127.0,127.0,126.0,113.0,128.0,25.0,-116.0,-70.0,127.0,127.0,127.0,119.0,86.0,-47.0
127.0,127.0,127.0,127.0,127.0,126.0,112.0,128.0,25.0,-116.0,-70.0,127.0,127.0,127.0,119.0,86.0,-47.0
127.0,127.0,127.0,127.0,127.0,126.0,113.0,128.0,25.0,-116.0,-70.0,127.0,127.0,127.0,119.0,86.0,-47.0
127.0,127.0,127.0,127.0,127.0,127.0,112.0,128.0,25.0,-116.0,-70.0,127.0,127.0,127.0,119.0,86.0,-47.0
127.0,127.0,127.0,127.0,127.0,127.0,112.0,127.0,25.0,-116.0,-70.0,127.0,127.0,127.0,119.0,86.0,-47.0
127.0,127.0,127.0,127.0,127.0,127.0,112.0,128.0,25.0,-116.0,-70.0,127.0,127.0,127.0,119.0,86.0,-47.0
127.0,127.0,127.0,127.0,127.0,126.0,112.0,128.0,25.0,-116.0,-70.0,127.0,127.0,127.0,119.0,86.0,-47.0
127.0,127.0,127.0,127.0,127.0,127.0,113.0,128.0,25.0,-116.0,-70.0,127.0,127.0,127.0,119.0,86.0,-47.0
127.0,127.0,127.0,127.0,127.0,127.0,112.0,128.0,25.0,-116.0,-70.0,127.0,127.0,127.0,119.0,86.0,-47.0
127.0,127.0,127.0,127.0,127.0,127.0,112.0,128.0,25.0,-116.0,-70.0,127.0,127.0,127.0,119.0,86.0,-47.0
127.0,127.0,127.0,127.0,127.0,127.0,112.0,128.0,25.0,-116.0,-70.0,127.0,127.0,127.0,119.0,86.0,-47.0
127.0,127.0,127.0,127.0,127.0,127.0,112.0,128.0,25.0,-116.0,-70.0,127.0,127.0,127.0,119.0,86.0,-47.0
127.0,127.0,127.0,127.0,127.0,126.0,113.0,128.0,25.0,-116.0,-70.0,127.0,127.0,127.0,119.0,86.0,-47.0
127.0,127.0,127.0,127.0,127.0,126.0,113.0,128.0,25.0,-116.0,-70.0,127.0,127.0,127.0,119.0,86.0,-47.0
127.0,127.0,127.0,127.0,127.0,126.0,113.0,128.0,25.0,-116.0,-70.0,127.0,127.0,127.0,119.0,86.0,-47.0
127.0,127.0,127.0,127.0,127.0,126.0,112.0,128.0,25.0,-116.0,-70.0,127.0,127.0,127.0,119.0,86.0,-47.0
127.0,127.0,128.0,127.0,127.0,127.0,112.0,128.0,25.0,-116.0,-70.0,127.0,127.0,127.0,119.0,86.0,-47.0
127.0,127.0,128.0,127.0,127.0,127.0,112.0,128.0,25.0,-116.0,-70.0,127.0,127.0,127.0,119.0,86.0,-47.0
127.0,127.0,127.0,127.0,127.0,127.0,112.0,128.0,25.0,-116.0,-70.0,127.0,127.0,127.0,119.0,86.0,-47.0
127.0,127.0,127.0,127.0,127.0,126.0,112.0,128.0,25.0,-116.0,-70.0,127.0,127.0,127.0,119.0,86.0,-47.0
127.0,127.0,127.0,127.0,127.0,126.0,113.0,128.0,25.0,-116.0,-70.0,127.0,127.0,127.0,119.0,86.0,-47.0
127.0,127.0,127.0,127.0,127.0,126.0,113.0,128.0,25.0,-116.0,-70.0,127.0,127.0,127.0,119.0,86.0,-47.0
127.0,127.0,127.0,127.0,127.0,126.0,112.0,128.0,25.0,-116.0,-70.0,127.0,127.0,127.0,119.0,86.0,-47.0
127.0,127.0,127.0,127.0,127.0,126.0,112.0,128.0,25.0,-116.0,-70.0,127.0,127.0,127.0,119.0,86.0,-47.0
127.0,127.0,127.0,127.0,127.0,126.0,112.0,128.0,25.0,-116.0,-70.0,127.0,127.0,127.0,119.0,86.0,-47.0
127.0,127.0,127.0,127.0,127.0,126.0,112.0,128.0,25.0,-116.0,-70.0,127.0,127.0,127.0,119.0,86.0,-47.0
127.0,127.0,127.0,127.0,127.0,127.0,112.0,128.0,24.0,-116.0,-70.0,127.0,127.0,127.0,119.0,86.0,-47.0
127.0,127.0,127.0,127.0,127.0,126.0,112.0,128.0,24.0,-116.0,-70.0,127.0,127.0,127.0,119.0,86.0,-47.0
127.0,127.0,127.0,127.0,127.0,126.0,112.0,128.0,24.0,-116.0,-70.0,127.0,127.0,127.0,119.0,86.0,-47.0
127.0,127.0,127.0,127.0,127.0,127.0,112.0,128.0,24.0,-116.0,-70.0,127.0,127.0,127.0,119.0,86.0,-47.0
127.0,127.0,127.0,127.0,127.0,127.0,112.0,128.0,24.0,-116.0,-70.0,127.0,127.0,127.0,119.0,86.0,-47.0
127.0,127.0,127.0,127.0,127.0,126.0,112.0,128.0,24.0,-116.0,-70.0,127.0,127.0,127.0,119.0,86.0,-47.0
127.0,127.0,127.0,127.0,127.0,126.0,113.0,128.0,24.0,-116.0,-70.0,127.0,127.0,127.0,119.0,86.0,-47.0
127.0,127.0,127.0,127.0,127.0,126.0,113.0,128.0,24.0,-116.0,-70.0,127.0,127.0,127.0,119.0,86.0,-47.0
127.0,127.0,127.0,127.0,127.0,126.0,112.0,128.0,24.0,-116.0,-70.0,127.0,127.0,127.0,119.0,86.0,-47.0
127.0,127.0,127.0,127.0,127.0,127.0,112.0,128.0,24.0,-116.0,-70.0,127.0,127.0,127.0,119.0,86.0,-47.0
127.0,127.0,127.0,127.0,127.0,126.0,112.0,128.0,24.0,-116.0,-70.0,127.0,127.0,127.0,119.0,86.0,-47.0
127.0,127.0,127.0,127.0,127.0,127.0,112.0,128.0,24.0,-116.0,-70.0,127.0,127.0,127.0,119.0,86.0,-47.0
127.0,127.0,127.0,127.0,127.0,127.0,112.0,128.0,24.0,-116.0,-70.0,127.0,127.0,127.0,119.0,86.0,-47.0
127.0,127.0,127.0,127.0,127.0,126.0,113.0,128.0,24.0,-116.0,-70.0,127.0,127.0,127.0,119.0,86.0,-47.0
127.0,127.0,127.0,127.0,127.0,126.0,113.0,128.0,24.0,-116.0,-70.0,127.0,127.0,127.0,119.0,86.0,-47.0
127.0,127.0,127.0,127.0,127.0,126.0,112.0,128.0,24.0,-116.0,-70.0,127.0,127.0,127.0,119.0,86.0,-47.0
127.0,127.0,127.0,127.0,127.0,127.0,112.0,128.0,24.0,-116.0,-70.0,127.0,127.0,127.0,119.0,86.0,-47.0
127.0,127.0,127.0,127.0,127.0,127.0,113.0,128.0,24.0,-116.0,-70.0,127.0,127.0,127.0,119.0,86.0,-47.0
127.0,127.0,127.0,127.0,127.0,126.0,111.0,128.0,24.0,-116.0,-70.0,127.0,127.0,127.0,119.0,86.0,-47.0
127.0,127.0,127.0,127.0,127.0,126.0,112.0,128.0,24.0,-116.0,-70.0,127.0,127.0,127.0,119.0,86.0,-47.0
127.0,127.0,127.0,127.0,127.0,126.0,113.0,128.0,24.0,-116.0,-70.0,127.0,127.0,127.0,119.0,86.0,-47.0
127.0,127.0,127.0,127.0,127.0,126.0,112.0,128.0,24.0,-116.0,-70.0,127.0,127.0,127.0,119.0,86.0,-47.0
127.0,127.0,127.0,127.0,127.0,126.0,112.0,128.0,24.0,-116.0,-70.0,127.0,127.0,127.0,119.0,86.0,-47.0
127.0,127.0,127.0,127.0,127.0,126.0,111.0,128.0,24.0,-116.0,-70.0,127.0,127.0,127.0,119.0,86.0,-47.0
127.0,127.0,127.0,127.0,127.0,126.0,111.0,128.0,24.0,-116.0,-70.0,127.0,127.0,127.0,119.0,86.0,-47.0
127.0,127.0,127.0,127.0,127.0,126.0,111.0,128.0,24.0,-116.0,-70.0,127.0,127.0,127.0,119.0,86.0,-47.0
127.0,127.0,127.0,127.0,127.0,126.0,111.0,128.0,24.0,-116.0,-70.0,127.0,127.0,127.0,119.0,86.0,-47.0
127.0,127.0,127.0,127.0,127.0,127.0,113.0,128.0,24.0,-116.0,-70.0,127.0,127.0,127.0,119.0,86.0,-47.0
127.0,127.0,127.0,127.0,127.0,126.0,112.0,128.0,24.0,-116.0,-70.0,127.0,127.0,127.0,119.0,86.0,-47.0
127.0,127.0,127.0,127.0,127.0,126.0,113.0,128.0,24.0,-116.0,-70.0,127.0,127.0,127.0,119.0,86.0,-47.0
127.0,127.0,127.0,127.0,127.0,126.0,112.0,128.0,24.0,-116.0,-70.0,127.0,127.0,127.0,119.0,86.0,-47.0
127.0,127.0,127.0,127.0,127.0,126.0,112.0,128.0,24.0,-116.0,-70.0,127.0,127.0,127.0,119.0,86.0,-47.0
127.0,127.0,127.0,127.0,127.0,126.0,112.0,128.0,24.0,-116.0,-70.0,127.0,127.0,127.0,119.0,86.0,-47.0
127.0,127.0,127.0,127.0,127.0,126.0,112.0,128.0,24.0,-116.0,-70.0,127.0,127.0,127.0,119.0,86.0,-47.0
127.0,127.0,127.0,127.0,127.0,126.0,112.0,128.0,24.0,-116.0,-70.0,127.0,127.0,127.0,119.0,86.0,-47.0
127.0,127.0,127.0,127.0,127.0,127.0,113.0,128.0,24.0,-116.0,-70.0,127.0,127.0,127.0,119.0,86.0,-47.0
127.0,127.0,127.0,127.0,127.0,127.0,112.0,128.0,24.0,-116.0,-70.0,127.0,127.0,127.0,119.0,86.0,-47.0
127.0,127.0,127.0,127.0,127.0,127.0,112.0,128.0,24.0,-116.0,-70.0,127.0,127.0,127.0,119.0,86.0,-47.0
127.0,127.0,127.0,127.0,127.0,127.0,112.0,128.0,24.0,-116.0,-70.0,127.0,127.0,127.0,119.0,86.0,-47.0
127.0,127.0,127.0,127.0,127.0,126.0,112.0,128.0,24.0,-116.0,-70.0,127.0,127.0,127.0,119.0,86.0,-47.0
127.0,127.0,127.0,127.0,127.0,126.0,111.0,128.0,24.0,-116.0,-70.0,127.0,127.0,127.0,119.0,86.0,-47.0
127.0,127.0,127.0,127.0,127.0,126.0,111.0,128.0,24.0,-116.0,-70.0,127.0,127.0,127.0,119.0,86.0,-47.0
127.0,127.0,127.0,127.0,127.0,126.0,111.0,128.0,24.0,-116.0,-70.0,127.0,127.0,127.0,119.0,86.0,-47.0
127.0,127.0,127.0,127.0,127.0,126.0,111.0,128.0,24.0,-116.0,-70.0,127.0,127.0,127.0,119.0,86.0,-47.0
127.0,127.0,127.0,127.0,127.0,126.0,112.0,128.0,24.0,-116.0,-70.0,127.0,127.0,127.0,119.0,86.0,-47.0
127.0,127.0,127.0,127.0,127.0,126.0,112.0,128.0,24.0,-116.0,-70.0,127.0,127.0,127.0,119.0,86.0,-47.0
127.0,127.0,127.0,127.0,127.0,126.0,111.0,128.0,24.0,-116.0,-70.0,127.0,127.0,127.0,119.0,86.0,-47.0
127.0,127.0,127.0,127.0,127.0,126.0,111.0,128.0,24.0,-116.0,-70.0,127.0,127.0,127.0,119.0,86.0,-47.0
127.0,127.0,127.0,127.0,127.0,126.0,111.0,128.0,24.0,-116.0,-70.0,127.0,127.0,127.0,119.0,86.0,-47.0
127.0,127.0,127.0,127.0,127.0,126.0,111.0,128.0,24.0,-116.0,-70.0,127.0,127.0,127.0,119.0,86.0,-47.0
127.0,127.0,127.0,127.0,127.0,126.0,113.0,128.0,24.0,-116.0,-70.0,127.0,127.0,127.0,119.0,86.0,-47.0
127.0,127.0,127.0,127.0,127.0,126.0,112.0,128.0,24.0,-116.0,-70.0,127.0,127.0,127.0,119.0,86.0,-47.0
127.0,127.0,127.0,127.0,127.0,126.0,112.0,128.0,24.0,-116.0,-70.0,127.0,127.0,127.0,119.0,86.0,-47.0
127.0,127.0,127.0,127.0,127.0,127.0,113.0,128.0,24.0,-116.0,-70.0,127.0,127.0,127.0,119.0,86.0,-47.0
127.0,127.0,127.0,127.0,127.0,127.0,112.0,128.0,24.0,-116.0,-70.0,127.0,127.0,127.0,119.0,86.0,-47.0
127.0,127.0,127.0,127.0,127.0,127.0,112.0,128.0,24.0,-116.0,-70.0,127.0,127.0,127.0,119.0,86.0,-47.0
127.0,127.0,127.0,127.0,127.0,127.0,112.0,128.0,24.0,-116.0,-70.0,127.0,127.0,127.0,119.0,86.0,-47.0
127.0,127.0,127.0,127.0,127.0,126.0,112.0,128.0,24.0,-116.0,-70.0,127.0,127.0,127.0,119.0,86.0,-47.0
127.0,127.0,127.0,127.0,127.0,126.0,112.0,128.0,24.0,-116.0,-70.0,127.0,127.0,127.0,119.0,86.0,-47.0
127.0,127.0,127.0,127.0,127.0,126.0,113.0,128.0,24.0,-116.0,-70.0,127.0,127.0,127.0,119.0,86.0,-47.0
126.0,127.0,127.0,127.0,127.0,126.0,113.0,128.0,24.0,-116.0,-70.0,127.0,127.0,127.0,119.0,86.0,-47.0
126.0,127.0,127.0,127.0,127.0,126.0,113.0,128.0,24.0,-116.0,-70.0,127.0,127.0,127.0,119.0,86.0,-47.0
127.0,127.0,127.0,127.0,127.0,127.0,113.0,128.0,24.0,-116.0,-70.0,127.0,127.0,127.0,119.0,86.0,-47.0
127.0,127.0,127.0,127.0,127.0,127.0,113.0,128.0,24.0,-116.0,-70.0,127.0,127.0,127.0,119.0,86.0,-47.0
127.0,127.0,127.0,127.0,127.0,127.0,113.0,128.0,24.0,-116.0,-70.0,127.0,127.0,127.0,119.0,86.0,-47.0
127.0,127.0,127.0,127.0,127.0,127.0,113.0,128.0,24.0,-116.0,-70.0,127.0,127.0,127.0,119.0,86.0,-47.0
127.0,127.0,127.0,127.0,127.0,127.0,112.0,128.0,24.0,-116.0,-70.0,127.0,127.0,127.0,119.0,86.0,-47.0
127.0,127.0,127.0,127.0,127.0,127.0,112.0,128.0,24.0,-116.0,-70.0,127.0,127.0,127.0,119.0,86.0,-47.0
127.0,127.0,127.0,127.0,127.0,126.0,112.0,128.0,24.0,-116.0,-70.0,127.0,127.0,127.0,119.0,86.0,-47.0
127.0,127.0,127.0,127.0,127.0,126.0,113.0,128.0,24.0,-116.0,-70.0,127.0,127.0,127.0,119.0,86.0,-47.0
127.0,127.0,127.0,127.0,127.0,127.0,112.0,128.0,24.0,-116.0,-70.0,127.0,127.0,127.0,119.0,86.0,-47.0
127.0,127.0,127.0,127.0,127.0,127.0,112.0,128.0,24.0,-116.0,-70.0,127.0,127.0,127.0,119.0,86.0,-47.0
127.0,127.0,127.0,127.0,127.0,127.0,113.0,128.0,24.0,-116.0,-70.0,127.0,127.0,127.0,119.0,86.0,-47.0
127.0,127.0,127.0,127.0,127.0,127.0,113.0,128.0,24.0,-116.0,-70.0,127.0,127.0,127.0,119.0,86.0,-47.0
127.0,127.0,127.0,127.0,127.0,127.0,113.0,128.0,24.0,-116.0,-70.0,127.0,127.0,127.0,119.0,86.0,-47.0
127.0,127.0,127.0,127.0,127.0,127.0,113.0,128.0,24.0,-116.0,-70.0,127.0,127.0,127.0,119.0,86.0,-47.0
127.0,127.0,127.0,127.0,127.0,127.0,112.0,128.0,24.0,-116.0,-70.0,127.0,127.0,127.0,119.0,86.0,-47.0
127.0,127.0,127.0,127.0,127.0,127.0,112.0,128.0,24.0,-116.0,-70.0,127.0,127.0,127.0,119.0,86.0,-47.0
127.0,127.0,127.0,127.0,127.0,127.0,112.0,128.0,24.0,-116.0,-70.0,127.0,127.0,127.0,119.0,86.0,-47.0
127.0,127.0,127.0,127.0,127.0,127.0,112.0,128.0,24.0,-116.0,-70.0,127.0,127.0,127.0,119.0,86.0,-47.0
127.0,127.0,127.0,127.0,127.0,127.0,106.0,128.0,24.0,-116.0,-70.0,127.0,127.0,127.0,119.0,86.0,-47.0
127.0,127.0,127.0,127.0,127.0,127.0,110.0,128.0,24.0,-116.0,-70.0,127.0,127.0,127.0,119.0,86.0,-47.0
127.0,127.0,127.0,127.0,127.0,127.0,112.0,128.0,24.0,-116.0,-70.0,127.0,127.0,127.0,119.0,86.0,-47.0
127.0,127.0,127.0,127.0,127.0,127.0,112.0,128.0,24.0,-116.0,-70.0,127.0,127.0,127.0,119.0,86.0,-47.0
127.0,127.0,127.0,127.0,127.0,127.0,113.0,128.0,24.0,-116.0,-70.0,127.0,127.0,127.0,119.0,86.0,-47.0
127.0,127.0,127.0,127.0,127.0,127.0,113.0,128.0,24.0,-116.0,-70.0,127.0,127.0,127.0,119.0,86.0,-47.0
127.0,127.0,127.0,127.0,127.0,127.0,112.0,128.0,24.0,-116.0,-70.0,127.0,127.0,127.0,119.0,86.0,-47.0
127.0,127.0,127.0,127.0,127.0,127.0,112.0,128.0,24.0,-116.0,-70.0,127.0,127.0,127.0,119.0,86.0,-47.0
127.0,127.0,127.0,127.0,127.0,127.0,112.0,128.0,24.0,-116.0,-70.0,127.0,127.0,127.0,119.0,86.0,-47.0
127.0,127.0,127.0,127.0,127.0,127.0,112.0,128.0,24.0,-116.0,-70.0,127.0,127.0,127.0,119.0,86.0,-47.0
127.0,127.0,127.0,127.0,127.0,126.0,112.0,128.0,24.0,-116.0,-70.0,127.0,127.0,127.0,119.0,86.0,-47.0
127.0,127.0,127.0,127.0,127.0,126.0,112.0,128.0,24.0,-116.0,-70.0,127.0,127.0,127.0,119.0,86.0,-47.0
127.0,127.0,127.0,127.0,127.0,127.0,112.0,128.0,24.0,-116.0,-70.0,127.0,127.0,127.0,119.0,86.0,-47.0
127.0,127.0,127.0,127.0,127.0,126.0,112.0,128.0,24.0,-116.0,-70.0,127.0,127.0,127.0,119.0,86.0,-47.0
127.0,127.0,127.0,127.0,127.0,126.0,112.0,128.0,24.0,-116.0,-70.0,127.0,127.0,127.0,119.0,86.0,-47.0
127.0,127.0,127.0,127.0,127.0,126.0,112.0,128.0,24.0,-116.0,-70.0,127.0,127.0,127.0,119.0,86.0,-47.0
127.0,127.0,127.0,127.0,127.0,126.0,112.0,128.0,24.0,-116.0,-70.0,127.0,127.0,127.0,119.0,86.0,-47.0
127.0,127.0,127.0,127.0,127.0,127.0,112.0,128.0,24.0,-116.0,-70.0,127.0,127.0,127.0,119.0,86.0,-47.0
127.0,127.0,127.0,127.0,127.0,127.0,112.0,128.0,24.0,-116.0,-70.0,127.0,127.0,127.0,119.0,86.0,-47.0
127.0,127.0,127.0,127.0,127.0,126.0,111.0,128.0,24.0,-116.0,-70.0,127.0,127.0,127.0,119.0,86.0,-47.0
127.0,127.0,128.0,127.0,127.0,127.0,113.0,128.0,24.0,-116.0,-70.0,127.0,127.0,127.0,119.0,86.0,-47.0
127.0,127.0,128.0,127.0,127.0,127.0,113.0,128.0,24.0,-116.0,-70.0,127.0,127.0,127.0,119.0,86.0,-47.0
127.0,127.0,128.0,127.0,127.0,127.0,113.0,128.0,24.0,-116.0,-70.0,127.0,127.0,127.0,119.0,86.0,-47.0
127.0,127.0,128.0,127.0,127.0,127.0,112.0,128.0,24.0,-116.0,-70.0,127.0,127.0,127.0,119.0,86.0,-47.0
127.0,127.0,128.0,127.0,127.0,127.0,113.0,128.0,24.0,-116.0,-70.0,127.0,127.0,127.0,119.0,86.0,-47.0
127.0,127.0,127.0,127.0,127.0,127.0,112.0,128.0,24.0,-116.0,-70.0,127.0,127.0,127.0,119.0,86.0,-47.0
127.0,127.0,127.0,127.0,127.0,127.0,113.0,128.0,24.0,-116.0,-70.0,127.0,127.0,127.0,119.0,86.0,-47.0
127.0,127.0,127.0,127.0,127.0,127.0,113.0,128.0,24.0,-116.0,-70.0,127.0,127.0,127.0,119.0,86.0,-47.0
127.0,127.0,127.0,127.0,127.0,126.0,113.0,128.0,24.0,-116.0,-70.0,127.0,127.0,127.0,119.0,86.0,-47.0
127.0,127.0,127.0,127.0,127.0,127.0,113.0,128.0,24.0,-116.0,-70.0,127.0,127.0,127.0,119.0,86.0,-47.0
127.0,127.0,127.0,127.0,127.0,127.0,112.0,128.0,24.0,-116.0,-70.0,127.0,127.0,127.0,119.0,86.0,-47.0
127.0,127.0,127.0,127.0,127.0,127.0,112.0,128.0,24.0,-116.0,-70.0,127.0,127.0,127.0,119.0,86.0,-47.0
127.0,127.0,127.0,127.0,127.0,126.0,112.0,128.0,24.0,-116.0,-70.0,127.0,127.0,127.0,119.0,86.0,-47.0
127.0,127.0,127.0,127.0,127.0,127.0,112.0,128.0,24.0,-116.0,-70.0,127.0,127.0,127.0,119.0,86.0,-47.0
127.0,127.0,127.0,127.0,127.0,127.0,112.0,128.0,24.0,-116.0,-70.0,127.0,127.0,127.0,119.0,86.0,-47.0
127.0,127.0,127.0,127.0,127.0,126.0,112.0,128.0,24.0,-116.0,-70.0,127.0,127.0,127.0,119.0,86.0,-47.0
127.0,127.0,127.0,127.0,127.0,126.0,113.0,128.0,24.0,-116.0,-70.0,127.0,127.0,127.0,119.0,86.0,-47.0
127.0,127.0,127.0,127.0,127.0,126.0,112.0,128.0,24.0,-116.0,-70.0,127.0,127.0,127.0,119.0,86.0,-47.0
127.0,127.0,127.0,127.0,127.0,126.0,112.0,128.0,24.0,-116.0,-70.0,127.0,127.0,127.0,119.0,86.0,-47.0
127.0,127.0,127.0,127.0,127.0,127.0,112.0,128.0,24.0,-116.0,-70.0,127.0,127.0,127.0,119.0,86.0,-47.0
127.0,127.0,127.0,127.0,127.0,127.0,112.0,128.0,24.0,-116.0,-70.0,127.0,127.0,127.0,119.0,86.0,-47.0
127.0,127.0,127.0,127.0,127.0,127.0,112.0,128.0,24.0,-116.0,-70.0,127.0,127.0,127.0,119.0,86.0,-47.0
127.0,127.0,127.0,127.0,127.0,126.0,112.0,128.0,24.0,-116.0,-70.0,127.0,127.0,127.0,119.0,86.0,-47.0
127.0,127.0,127.0,127.0,127.0,126.0,113.0,128.0,24.0,-116.0,-70.0,127.0,127.0,127.0,119.0,86.0,-47.0
127.0,127.0,127.0,127.0,127.0,126.0,113.0,128.0,24.0,-116.0,-70.0,127.0,127.0,127.0,119.0,86.0,-47.0
127.0,127.0,127.0,127.0,127.0,126.0,112.0,128.0,24.0,-116.0,-70.0,127.0,127.0,127.0,119.0,86.0,-47.0
127.0,127.0,127.0,127.0,127.0,126.0,113.0,128.0,24.0,-116.0,-70.0,127.0,127.0,127.0,119.0,86.0,-47.0
127.0,127.0,127.0,127.0,127.0,126.0,112.0,128.0,24.0,-116.0,-70.0,127.0,127.0,127.0,119.0,86.0,-47.0
127.0,127.0,127.0,127.0,127.0,127.0,112.0,128.0,24.0,-116.0,-70.0,127.0,127.0,127.0,119.0,86.0,-47.0
127.0,127.0,127.0,127.0,127.0,127.0,112.0,128.0,24.0,-116.0,-70.0,127.0,127.0,127.0,119.0,86.0,-47.0
127.0,127.0,127.0,127.0,127.0,127.0,112.0,128.0,24.0,-116.0,-70.0,127.0,127.0,127.0,119.0,86.0,-47.0
127.0,127.0,127.0,127.0,127.0,127.0,113.0,128.0,24.0,-116.0,-70.0,127.0,127.0,127.0,119.0,86.0,-47.0
127.0,127.0,127.0,127.0,127.0,127.0,113.0,128.0,24.0,-116.0,-70.0,127.0,127.0,127.0,119.0,86.0,-47.0
127.0,127.0,127.0,127.0,127.0,127.0,112.0,128.0,24.0,-116.0,-70.0,127.0,127.0,127.0,119.0,86.0,-47.0
127.0,127.0,127.0,127.0,127.0,127.0,112.0,128.0,24.0,-116.0,-70.0,127.0,127.0,127.0,119.0,86.0,-47.0
127.0,127.0,127.0,127.0,127.0,127.0,112.0,128.0,24.0,-116.0,-70.0,127.0,127.0,127.0,119.0,86.0,-47.0
127.0,127.0,127.0,127.0,127.0,127.0,112.0,128.0,24.0,-116.0,-70.0,127.0,127.0,127.0,119.0,86.0,-47.0
127.0,127.0,127.0,127.0,127.0,127.0,113.0,128.0,24.0,-116.0,-70.0,127.0,127.0,127.0,119.0,86.0,-47.0
127.0,127.0,127.0,127.0,127.0,127.0,113.0,128.0,24.0,-116.0,-70.0,127.0,127.0,127.0,119.0,86.0,-47.0
127.0,127.0,127.0,127.0,127.0,127.0,113.0,128.0,24.0,-116.0,-70.0,127.0,127.0,127.0,119.0,86.0,-47.0
127.0,127.0,127.0,127.0,127.0,127.0,112.0,128.0,24.0,-116.0,-70.0,127.0,127.0,127.0,119.0,86.0,-47.0
127.0,127.0,127.0,127.0,127.0,127.0,112.0,128.0,24.0,-116.0,-70.0,127.0,127.0,127.0,119.0,86.0,-47.0
127.0,127.0,127.0,127.0,127.0,126.0,112.0,128.0,24.0,-116.0,-70.0,127.0,127.0,127.0,119.0,86.0,-47.0
127.0,127.0,127.0,127.0,127.0,126.0,113.0,128.0,24.0,-116.0,-70.0,127.0,127.0,127.0,119.0,86.0,-47.0
127.0,127.0,127.0,127.0,127.0,126.0,113.0,128.0,24.0,-116.0,-70.0,127.0,127.0,127.0,119.0,86.0,-47.0
127.0,127.0,127.0,127.0,127.0,126.0,113.0,128.0,24.0,-116.0,-70.0,127.0,127.0,127.0,119.0,86.0,-47.0
127.0,127.0,127.0,127.0,127.0,127.0,112.0,128.0,24.0,-116.0,-70.0,127.0,127.0,127.0,119.0,86.0,-47.0
127.0,127.0,127.0,127.0,127.0,127.0,112.0,128.0,24.0,-116.0,-70.0,127.0,127.0,127.0,119.0,86.0,-47.0
127.0,127.0,127.0,127.0,127.0,127.0,113.0,128.0,24.0,-116.0,-70.0,127.0,127.0,127.0,119.0,86.0,-47.0
127.0,127.0,127.0,127.0,127.0,127.0,112.0,128.0,24.0,-116.0,-70.0,127.0,127.0,127.0,119.0,86.0,-47.0
127.0,127.0,127.0,127.0,127.0,127.0,112.0,128.0,24.0,-116.0,-70.0,127.0,127.0,127.0,119.0,86.0,-47.0
127.0,127.0,127.0,127.0,127.0,127.0,112.0,128.0,24.0,-116.0,-70.0,127.0,127.0,127.0,119.0,86.0,-47.0
127.0,127.0,127.0,127.0,127.0,126.0,112.0,128.0,24.0,-116.0,-70.0,127.0,127.0,127.0,119.0,86.0,-47.0
127.0,127.0,127.0,127.0,127.0,126.0,112.0,128.0,24.0,-116.0,-70.0,127.0,127.0,127.0,119.0,86.0,-47.0
127.0,127.0,127.0,127.0,127.0,126.0,112.0,128.0,24.0,-116.0,-70.0,127.0,127.0,127.0,119.0,86.0,-47.0
127.0,127.0,127.0,127.0,127.0,127.0,113.0,128.0,24.0,-116.0,-70.0,127.0,127.0,127.0,119.0,86.0,-47.0
127.0,127.0,127.0,127.0,127.0,127.0,113.0,128.0,24.0,-116.0,-70.0,127.0,127.0,127.0,119.0,86.0,-47.0
127.0,127.0,127.0,127.0,127.0,127.0,113.0,128.0,24.0,-116.0,-70.0,127.0,127.0,127.0,119.0,86.0,-47.0
127.0,127.0,127.0,127.0,127.0,127.0,113.0,128.0,24.0,-116.0,-70.0,127.0,127.0,127.0,119.0,86.0,-47.0
127.0,127.0,127.0,127.0,127.0,127.0,112.0,128.0,24.0,-116.0,-70.0,127.0,127.0,127.0,119.0,86.0,-47.0
127.0,127.0,127.0,127.0,127.0,127.0,113.0,128.0,24.0,-116.0,-70.0,127.0,127.0,127.0,119.0,86.0,-47.0
127.0,127.0,127.0,127.0,127.0,127.0,112.0,128.0,24.0,-116.0,-70.0,127.0,127.0,127.0,119.0,86.0,-47.0
127.0,127.0,127.0,127.0,127.0,126.0,112.0,128.0,24.0,-116.0,-70.0,127.0,127.0,127.0,119.0,86.0,-47.0
127.0,127.0,127.0,127.0,127.0,126.0,112.0,128.0,24.0,-116.0,-70.0,127.0,127.0,127.0,119.0,86.0,-47.0
127.0,127.0,127.0,127.0,127.0,127.0,112.0,128.0,24.0,-116.0,-70.0,127.0,127.0,127.0,119.0,86.0,-47.0
127.0,127.0,127.0,127.0,127.0,127.0,113.0,128.0,24.0,-116.0,-70.0,127.0,127.0,127.0,119.0,86.0,-47.0
127.0,127.0,127.0,127.0,127.0,127.0,114.0,128.0,24.0,-116.0,-70.0,127.0,127.0,127.0,119.0,86.0,-47.0
127.0,127.0,127.0,127.0,127.0,127.0,114.0,128.0,24.0,-116.0,-70.0,127.0,127.0,127.0,119.0,86.0,-47.0
127.0,127.0,127.0,127.0,127.0,127.0,113.0,128.0,24.0,-116.0,-70.0,127.0,127.0,127.0,119.0,86.0,-47.0
127.0,127.0,127.0,127.0,127.0,127.0,113.0,128.0,24.0,-116.0,-70.0,127.0,127.0,127.0,119.0,86.0,-47.0
127.0,127.0,127.0,127.0,127.0,127.0,112.0,128.0,24.0,-116.0,-70.0,127.0,127.0,127.0,119.0,86.0,-47.0
127.0,127.0,127.0,127.0,127.0,126.0,112.0,128.0,24.0,-116.0,-70.0,127.0,127.0,127.0,119.0,86.0,-47.0
127.0,127.0,127.0,127.0,127.0,126.0,112.0,128.0,24.0,-116.0,-70.0,127.0,127.0,127.0,119.0,86.0,-47.0
127.0,127.0,127.0,127.0,127.0,126.0,112.0,128.0,24.0,-116.0,-70.0,127.0,127.0,127.0,119.0,86.0,-47.0
127.0,127.0,127.0,127.0,127.0,126.0,112.0,128.0,24.0,-116.0,-70.0,127.0,127.0,127.0,119.0,86.0,-47.0
127.0,127.0,127.0,127.0,127.0,126.0,112.0,128.0,24.0,-116.0,-70.0,127.0,127.0,127.0,119.0,86.0,-47.0
127.0,127.0,127.0,127.0,127.0,126.0,112.0,128.0,24.0,-116.0,-70.0,127.0,127.0,127.0,119.0,86.0,-47.0
127.0,127.0,127.0,127.0,127.0,126.0,111.0,128.0,24.0,-116.0,-70.0,127.0,127.0,127.0,119.0,86.0,-47.0
127.0,127.0,127.0,127.0,127.0,126.0,111.0,128.0,24.0,-116.0,-70.0,127.0,127.0,127.0,119.0,86.0,-47.0
127.0,127.0,127.0,127.0,127.0,126.0,112.0,128.0,24.0,-116.0,-70.0,127.0,127.0,127.0,119.0,86.0,-47.0
127.0,127.0,127.0,127.0,127.0,127.0,112.0,128.0,24.0,-116.0,-70.0,127.0,127.0,127.0,119.0,86.0,-47.0
127.0,127.0,127.0,127.0,127.0,127.0,112.0,128.0,24.0,-116.0,-70.0,127.0,127.0,127.0,119.0,86.0,-47.0
127.0,127.0,127.0,127.0,127.0,127.0,112.0,128.0,24.0,-116.0,-70.0,127.0,127.0,127.0,119.0,86.0,-47.0
127.0,127.0,127.0,127.0,127.0,126.0,113.0,128.0,24.0,-116.0,-70.0,127.0,127.0,127.0,119.0,86.0,-47.0
127.0,127.0,127.0,127.0,127.0,126.0,113.0,128.0,24.0,-116.0,-70.0,127.0,127.0,127.0,119.0,86.0,-47.0
127.0,127.0,127.0,127.0,127.0,126.0,112.0,128.0,24.0,-116.0,-70.0,127.0,127.0,127.0,119.0,86.0,-47.0
127.0,127.0,127.0,127.0,127.0,127.0,112.0,128.0,24.0,-116.0,-70.0,127.0,127.0,127.0,119.0,86.0,-47.0
127.0,127.0,127.0,127.0,127.0,127.0,113.0,128.0,24.0,-116.0,-70.0,127.0,127.0,127.0,119.0,86.0,-47.0
127.0,127.0,127.0,127.0,127.0,127.0,113.0,128.0,24.0,-116.0,-70.0,127.0,127.0,127.0,119.0,86.0,-47.0
127.0,127.0,127.0,127.0,127.0,127.0,112.0,128.0,24.0,-116.0,-70.0,127.0,127.0,127.0,119.0,86.0,-47.0
127.0,127.0,127.0,127.0,127.0,127.0,111.0,128.0,24.0,-116.0,-70.0,127.0,127.0,127.0,119.0,86.0,-47.0
127.0,127.0,127.0,127.0,127.0,127.0,113.0,128.0,24.0,-116.0,-70.0,127.0,127.0,127.0,119.0,86.0,-47.0
127.0,127.0,127.0,127.0,127.0,127.0,113.0,128.0,24.0,-116.0,-70.0,127.0,127.0,127.0,119.0,86.0,-47.0
127.0,127.0,127.0,127.0,127.0,127.0,113.0,128.0,24.0,-116.0,-70.0,127.0,127.0,127.0,119.0,86.0,-47.0
127.0,127.0,127.0,127.0,127.0,127.0,112.0,128.0,24.0,-116.0,-70.0,127.0,127.0,127.0,119.0,86.0,-47.0
127.0,127.0,128.0,127.0,127.0,127.0,112.0,128.0,24.0,-116.0,-70.0,127.0,127.0,127.0,119.0,86.0,-47.0
127.0,127.0,128.0,127.0,127.0,127.0,109.0,128.0,24.0,-116.0,-70.0,127.0,127.0,127.0,119.0,86.0,-47.0
127.0,127.0,128.0,127.0,127.0,127.0,111.0,128.0,24.0,-116.0,-70.0,127.0,127.0,127.0,119.0,86.0,-47.0
127.0,127.0,127.0,127.0,127.0,127.0,112.0,128.0,24.0,-116.0,-70.0,127.0,127.0,127.0,119.0,86.0,-47.0
127.0,127.0,127.0,127.0,127.0,127.0,111.0,128.0,24.0,-116.0,-70.0,127.0,127.0,127.0,119.0,86.0,-47.0
127.0,127.0,127.0,127.0,127.0,127.0,113.0,128.0,24.0,-116.0,-70.0,127.0,127.0,127.0,119.0,86.0,-47.0
127.0,127.0,127.0,127.0,127.0,127.0,112.0,128.0,24.0,-116.0,-70.0,127.0,127.0,127.0,119.0,86.0,-47.0
127.0,127.0,127.0,127.0,127.0,127.0,112.0,128.0,24.0,-116.0,-70.0,127.0,127.0,127.0,119.0,86.0,-47.0
127.0,127.0,127.0,127.0,127.0,127.0,112.0,128.0,24.0,-116.0,-70.0,127.0,127.0,127.0,119.0,86.0,-47.0
127.0,127.0,127.0,127.0,127.0,127.0,113.0,128.0,24.0,-116.0,-70.0,127.0,127.0,127.0,119.0,86.0,-47.0
127.0,127.0,127.0,127.0,127.0,127.0,113.0,128.0,24.0,-116.0,-70.0,127.0,127.0,127.0,119.0,86.0,-47.0
127.0,127.0,127.0,127.0,127.0,127.0,112.0,128.0,24.0,-116.0,-70.0,127.0,127.0,127.0,119.0,86.0,-47.0
127.0,127.0,127.0,127.0,127.0,127.0,112.0,128.0,24.0,-116.0,-70.0,127.0,127.0,127.0,119.0,86.0,-47.0
127.0,127.0,127.0,127.0,127.0,127.0,113.0,128.0,24.0,-116.0,-70.0,127.0,127.0,127.0,119.0,86.0,-47.0
127.0,127.0,127.0,127.0,127.0,127.0,113.0,128.0,24.0,-116.0,-70.0,127.0,127.0,127.0,119.0,86.0,-47.0
127.0,127.0,127.0,127.0,127.0,126.0,112.0,128.0,24.0,-116.0,-70.0,127.0,127.0,127.0,119.0,86.0,-47.0
127.0,127.0,127.0,127.0,127.0,126.0,112.0,128.0,24.0,-116.0,-70.0,127.0,127.0,127.0,119.0,86.0,-47.0
127.0,127.0,127.0,127.0,127.0,126.0,113.0,128.0,24.0,-116.0,-70.0,127.0,127.0,127.0,119.0,86.0,-47.0
127.0,127.0,127.0,127.0,127.0,127.0,113.0,128.0,24.0,-116.0,-70.0,127.0,127.0,127.0,119.0,86.0,-47.0
127.0,127.0,127.0,127.0,127.0,127.0,113.0,128.0,24.0,-116.0,-70.0,127.0,127.0,127.0,119.0,86.0,-47.0
127.0,127.0,127.0,127.0,127.0,127.0,113.0,128.0,24.0,-116.0,-70.0,127.0,127.0,127.0,119.0,86.0,-47.0
127.0,127.0,127.0,127.0,127.0,126.0,112.0,128.0,24.0,-116.0,-70.0,127.0,127.0,127.0,119.0,86.0,-47.0
127.0,127.0,127.0,127.0,127.0,127.0,112.0,128.0,24.0,-116.0,-70.0,127.0,127.0,127.0,119.0,86.0,-47.0
127.0,127.0,127.0,127.0,127.0,127.0,112.0,128.0,24.0,-116.0,-70.0,127.0,127.0,127.0,119.0,86.0,-47.0
127.0,127.0,127.0,127.0,127.0,127.0,112.0,128.0,24.0,-116.0,-70.0,127.0,127.0,127.0,119.0,86.0,-47.0
127.0,127.0,127.0,127.0,127.0,127.0,112.0,128.0,24.0,-116.0,-70.0,127.0,127.0,127.0,119.0,86.0,-47.0
127.0,127.0,127.0,127.0,127.0,127.0,113.0,128.0,24.0,-116.0,-70.0,127.0,127.0,127.0,119.0,86.0,-47.0
127.0,127.0,127.0,127.0,127.0,127.0,113.0,128.0,24.0,-116.0,-70.0,127.0,127.0,127.0,119.0,86.0,-47.0
127.0,127.0,127.0,127.0,127.0,127.0,113.0,128.0,24.0,-116.0,-70.0,127.0,127.0,127.0,119.0,86.0,-47.0
127.0,127.0,127.0,127.0,127.0,127.0,112.0,128.0,24.0,-116.0,-70.0,127.0,127.0,127.0,119.0,86.0,-47.0
127.0,127.0,127.0,127.0,127.0,127.0,110.0,128.0,24.0,-116.0,-70.0,127.0,127.0,127.0,119.0,86.0,-47.0
127.0,127.0,127.0,127.0,127.0,127.0,107.0,128.0,24.0,-116.0,-70.0,127.0,127.0,127.0,119.0,86.0,-47.0
127.0,127.0,127.0,127.0,127.0,127.0,106.0,128.0,24.0,-116.0,-70.0,127.0,127.0,127.0,119.0,86.0,-47.0
127.0,127.0,127.0,127.0,127.0,127.0,107.0,128.0,24.0,-116.0,-70.0,127.0,127.0,127.0,119.0,86.0,-47.0
127.0,127.0,127.0,127.0,127.0,127.0,112.0,128.0,24.0,-116.0,-70.0,127.0,127.0,127.0,119.0,86.0,-47.0
127.0,127.0,127.0,127.0,127.0,126.0,112.0,128.0,24.0,-116.0,-70.0,127.0,127.0,127.0,119.0,86.0,-47.0
127.0,127.0,127.0,127.0,127.0,126.0,112.0,128.0,24.0,-116.0,-70.0,127.0,127.0,127.0,119.0,86.0,-47.0
127.0,127.0,127.0,127.0,127.0,126.0,112.0,128.0,24.0,-116.0,-70.0,127.0,127.0,127.0,119.0,86.0,-47.0
127.0,127.0,127.0,128.0,127.0,126.0,112.0,128.0,24.0,-116.0,-70.0,127.0,127.0,127.0,119.0,86.0,-47.0
127.0,127.0,127.0,127.0,127.0,126.0,113.0,128.0,24.0,-116.0,-70.0,127.0,127.0,127.0,119.0,86.0,-47.0
127.0,127.0,127.0,127.0,127.0,127.0,112.0,128.0,24.0,-116.0,-70.0,127.0,127.0,127.0,119.0,86.0,-47.0
127.0,127.0,127.0,127.0,127.0,127.0,112.0,128.0,24.0,-116.0,-70.0,127.0,127.0,127.0,119.0,86.0,-47.0
127.0,127.0,127.0,127.0,127.0,127.0,112.0,128.0,24.0,-116.0,-70.0,127.0,127.0,127.0,119.0,86.0,-47.0
127.0,127.0,127.0,127.0,127.0,127.0,112.0,128.0,24.0,-116.0,-70.0,127.0,127.0,127.0,119.0,86.0,-47.0
127.0,127.0,127.0,127.0,127.0,127.0,112.0,128.0,24.0,-116.0,-70.0,127.0,127.0,127.0,119.0,86.0,-47.0
127.0,127.0,128.0,128.0,127.0,127.0,113.0,128.0,24.0,-116.0,-70.0,127.0,127.0,127.0,119.0,86.0,-47.0
127.0,127.0,128.0,128.0,127.0,127.0,113.0,128.0,24.0,-116.0,-70.0,127.0,127.0,127.0,119.0,86.0,-47.0
127.0,127.0,128.0,128.0,127.0,127.0,113.0,128.0,24.0,-116.0,-70.0,127.0,127.0,127.0,119.0,86.0,-47.0
127.0,127.0,129.0,127.0,127.0,127.0,112.0,128.0,24.0,-116.0,-70.0,127.0,127.0,127.0,119.0,86.0,-47.0
127.0,127.0,129.0,127.0,127.0,127.0,111.0,128.0,24.0,-116.0,-70.0,127.0,127.0,127.0,119.0,86.0,-47.0
127.0,127.0,129.0,127.0,127.0,127.0,110.0,128.0,24.0,-116.0,-70.0,127.0,127.0,127.0,119.0,86.0,-47.0
127.0,127.0,129.0,127.0,127.0,127.0,111.0,128.0,24.0,-116.0,-70.0,127.0,127.0,127.0,119.0,86.0,-47.0
127.0,127.0,128.0,127.0,127.0,127.0,113.0,128.0,24.0,-116.0,-70.0,127.0,127.0,127.0,119.0,86.0,-47.0
127.0,127.0,128.0,128.0,127.0,127.0,113.0,128.0,24.0,-116.0,-70.0,127.0,127.0,127.0,119.0,86.0,-47.0
127.0,127.0,128.0,128.0,127.0,127.0,114.0,128.0,24.0,-116.0,-70.0,127.0,127.0,127.0,119.0,86.0,-47.0
126.0,127.0,123.0,130.0,127.0,126.0,112.0,128.0,24.0,-116.0,-70.0,127.0,127.0,127.0,119.0,86.0,-47.0
126.0,127.0,123.0,131.0,127.0,126.0,111.0,128.0,24.0,-116.0,-70.0,127.0,127.0,127.0,119.0,86.0,-47.0
126.0,127.0,124.0,129.0,127.0,126.0,112.0,128.0,24.0,-116.0,-70.0,127.0,127.0,127.0,119.0,86.0,-47.0
127.0,126.0,124.0,129.0,127.0,126.0,111.0,128.0,24.0,-116.0,-70.0,127.0,127.0,127.0,119.0,86.0,-47.0
126.0,127.0,124.0,130.0,127.0,126.0,111.0,128.0,24.0,-116.0,-70.0,127.0,127.0,127.0,119.0,86.0,-47.0
126.0,127.0,124.0,130.0,127.0,126.0,111.0,128.0,24.0,-116.0,-70.0,127.0,127.0,127.0,119.0,86.0,-47.0
126.0,127.0,124.0,130.0,127.0,126.0,111.0,128.0,24.0,-116.0,-70.0,127.0,127.0,127.0,119.0,86.0,-47.0
126.0,127.0,124.0,130.0,127.0,126.0,111.0,128.0,24.0,-116.0,-70.0,127.0,127.0,127.0,119.0,86.0,-47.0
126.0,127.0,123.0,130.0,127.0,126.0,111.0,128.0,24.0,-116.0,-70.0,127.0,127.0,127.0,119.0,86.0,-47.0
126.0,127.0,123.0,130.0,127.0,126.0,111.0,128.0,24.0,-116.0,-70.0,127.0,127.0,127.0,119.0,86.0,-47.0
126.0,125.0,116.0,132.0,127.0,126.0,112.0,128.0,24.0,-116.0,-70.0,127.0,127.0,127.0,119.0,86.0,-47.0
126.0,127.0,117.0,131.0,127.0,127.0,112.0,128.0,24.0,-116.0,-70.0,127.0,127.0,127.0,119.0,86.0,-47.0
126.0,127.0,117.0,131.0,127.0,126.0,112.0,128.0,24.0,-116.0,-70.0,127.0,127.0,127.0,119.0,86.0,-47.0
126.0,126.0,116.0,132.0,127.0,126.0,112.0,128.0,24.0,-116.0,-70.0,127.0,127.0,127.0,119.0,86.0,-47.0
126.0,126.0,116.0,132.0,127.0,126.0,112.0,128.0,24.0,-116.0,-70.0,127.0,127.0,127.0,119.0,86.0,-47.0
126.0,126.0,116.0,132.0,127.0,126.0,112.0,128.0,24.0,-116.0,-70.0,127.0,127.0,127.0,119.0,86.0,-47.0
126.0,126.0,116.0,132.0,127.0,127.0,112.0,128.0,24.0,-116.0,-70.0,127.0,127.0,127.0,119.0,86.0,-47.0
126.0,126.0,116.0,132.0,127.0,126.0,113.0,128.0,24.0,-116.0,-70.0,127.0,127.0,127.0,119.0,86.0,-47.0
126.0,126.0,116.0,132.0,127.0,126.0,113.0,128.0,24.0,-116.0,-70.0,127.0,127.0,127.0,119.0,86.0,-47.0
126.0,126.0,116.0,132.0,127.0,126.0,112.0,128.0,24.0,-116.0,-70.0,127.0,127.0,127.0,119.0,86.0,-47.0
127.0,128.0,128.0,119.0,125.0,126.0,112.0,127.0,24.0,-116.0,-70.0,127.0,127.0,127.0,119.0,86.0,-47.0
126.0,128.0,129.0,120.0,125.0,126.0,111.0,128.0,24.0,-116.0,-70.0,127.0,127.0,127.0,119.0,86.0,-47.0
126.0,128.0,129.0,121.0,125.0,126.0,112.0,128.0,24.0,-116.0,-70.0,127.0,127.0,127.0,119.0,86.0,-47.0
126.0,128.0,130.0,122.0,125.0,126.0,112.0,128.0,24.0,-116.0,-70.0,127.0,127.0,127.0,119.0,86.0,-47.0
126.0,128.0,131.0,123.0,125.0,126.0,111.0,128.0,24.0,-116.0,-70.0,127.0,127.0,127.0,119.0,86.0,-47.0
126.0,128.0,131.0,124.0,125.0,126.0,111.0,128.0,24.0,-116.0,-70.0,127.0,127.0,127.0,119.0,86.0,-47.0
126.0,128.0,133.0,126.0,125.0,126.0,111.0,128.0,24.0,-116.0,-70.0,127.0,127.0,127.0,119.0,86.0,-47.0
126.0,128.0,134.0,127.0,125.0,126.0,111.0,128.0,24.0,-116.0,-70.0,127.0,127.0,127.0,119.0,86.0,-47.0
126.0,128.0,135.0,129.0,126.0,126.0,112.0,128.0,24.0,-116.0,-70.0,127.0,127.0,127.0,119.0,86.0,-47.0
126.0,128.0,137.0,130.0,126.0,126.0,111.0,128.0,24.0,-116.0,-70.0,127.0,127.0,127.0,119.0,86.0,-47.0
127.0,125.0,156.0,130.0,127.0,127.0,107.0,128.0,24.0,-116.0,-70.0,127.0,127.0,127.0,119.0,86.0,-47.0
127.0,125.0,157.0,130.0,127.0,127.0,106.0,128.0,24.0,-116.0,-70.0,127.0,127.0,127.0,119.0,86.0,-47.0
127.0,125.0,157.0,130.0,127.0,127.0,106.0,128.0,24.0,-116.0,-70.0,127.0,127.0,127.0,119.0,86.0,-47.0
127.0,125.0,158.0,130.0,128.0,127.0,106.0,128.0,24.0,-116.0,-70.0,127.0,127.0,127.0,119.0,86.0,-47.0
127.0,124.0,159.0,130.0,128.0,127.0,108.0,128.0,24.0,-116.0,-70.0,127.0,127.0,127.0,119.0,86.0,-47.0
127.0,124.0,159.0,130.0,128.0,127.0,113.0,128.0,24.0,-116.0,-70.0,127.0,127.0,127.0,119.0,86.0,-47.0
127.0,124.0,160.0,130.0,128.0,127.0,113.0,128.0,24.0,-116.0,-70.0,127.0,127.0,127.0,119.0,86.0,-47.0
127.0,124.0,160.0,129.0,127.0,126.0,112.0,128.0,24.0,-116.0,-70.0,127.0,127.0,127.0,119.0,86.0,-47.0
127.0,123.0,161.0,129.0,127.0,126.0,112.0,128.0,24.0,-116.0,-70.0,127.0,127.0,127.0,119.0,86.0,-47.0
127.0,125.0,156.0,130.0,127.0,127.0,107.0,128.0,24.0,-116.0,-70.0,127.0,127.0,127.0,119.0,86.0,-47.0
127.0,131.0,171.0,136.0,129.0,127.0,106.0,128.0,25.0,-116.0,-70.0,127.0,127.0,127.0,119.0,86.0,-47.0
127.0,130.0,171.0,137.0,129.0,127.0,106.0,128.0,25.0,-116.0,-70.0,127.0,127.0,127.0,119.0,86.0,-47.0
127.0,129.0,171.0,137.0,129.0,127.0,106.0,128.0,25.0,-116.0,-70.0,127.0,127.0,127.0,119.0,86.0,-47.0
126.0,128.0,170.0,138.0,129.0,127.0,107.0,128.0,25.0,-116.0,-70.0,127.0,127.0,127.0,119.0,86.0,-47.0
126.0,127.0,169.0,137.0,128.0,127.0,110.0,128.0,25.0,-116.0,-70.0,127.0,127.0,127.0,119.0,86.0,-47.0
125.0,126.0,169.0,137.0,128.0,127.0,112.0,128.0,25.0,-116.0,-70.0,127.0,127.0,127.0,119.0,86.0,-47.0
125.0,125.0,168.0,136.0,128.0,127.0,113.0,128.0,25.0,-116.0,-70.0,127.0,127.0,127.0,119.0,86.0,-47.0
125.0,125.0,168.0,134.0,128.0,127.0,113.0,128.0,25.0,-116.0,-70.0,127.0,127.0,127.0,119.0,86.0,-47.0
128.0,132.0,171.0,134.0,128.0,127.0,106.0,128.0,25.0,-116.0,-70.0,127.0,127.0,127.0,119.0,86.0,-47.0
128.0,131.0,171.0,135.0,128.0,127.0,106.0,128.0,25.0,-116.0,-70.0,127.0,127.0,127.0,119.0,86.0,-47.0
131.0,133.0,178.0,131.0,131.0,128.0,106.0,129.0,25.0,-116.0,-70.0,127.0,127.0,127.0,119.0,86.0,-47.0
131.0,132.0,177.0,131.0,131.0,127.0,106.0,129.0,25.0,-116.0,-70.0,127.0,127.0,127.0,119.0,86.0,-47.0
130.0,132.0,177.0,130.0,130.0,127.0,106.0,129.0,25.0,-116.0,-70.0,127.0,127.0,127.0,119.0,86.0,-47.0
131.0,131.0,177.0,130.0,130.0,127.0,106.0,129.0,25.0,-116.0,-70.0,127.0,127.0,127.0,119.0,86.0,-47.0
131.0,131.0,177.0,130.0,130.0,127.0,108.0,129.0,25.0,-116.0,-70.0,127.0,127.0,127.0,119.0,86.0,-47.0
131.0,131.0,177.0,130.0,130.0,127.0,112.0,129.0,25.0,-116.0,-70.0,127.0,127.0,127.0,119.0,86.0,-47.0
131.0,131.0,177.0,132.0,130.0,127.0,113.0,129.0,25.0,-116.0,-70.0,127.0,127.0,127.0,119.0,86.0,-47.0
130.0,134.0,178.0,136.0,131.0,128.0,108.0,129.0,25.0,-116.0,-70.0,127.0,127.0,127.0,119.0,86.0,-47.0
130.0,134.0,178.0,134.0,131.0,128.0,107.0,129.0,25.0,-116.0,-70.0,127.0,127.0,127.0,119.0,86.0,-47.0
130.0,133.0,178.0,132.0,131.0,128.0,107.0,129.0,25.0,-116.0,-70.0,127.0,127.0,127.0,119.0,86.0,-47.0
130.0,120.0,145.0,118.0,127.0,127.0,106.0,128.0,25.0,-116.0,-70.0,127.0,127.0,127.0,119.0,86.0,-47.0
130.0,121.0,144.0,115.0,127.0,127.0,105.0,128.0,25.0,-116.0,-70.0,127.0,127.0,127.0,119.0,86.0,-47.0
131.0,121.0,143.0,113.0,127.0,127.0,110.0,128.0,25.0,-116.0,-70.0,127.0,127.0,127.0,119.0,86.0,-47.0
131.0,122.0,143.0,112.0,127.0,127.0,113.0,128.0,25.0,-116.0,-70.0,127.0,127.0,127.0,119.0,86.0,-47.0
131.0,122.0,142.0,111.0,127.0,127.0,112.0,128.0,25.0,-116.0,-70.0,127.0,127.0,127.0,119.0,86.0,-47.0
131.0,123.0,142.0,111.0,127.0,127.0,112.0,128.0,25.0,-116.0,-70.0,127.0,127.0,127.0,119.0,86.0,-47.0
128.0,119.0,149.0,133.0,128.0,127.0,106.0,127.0,25.0,-116.0,-70.0,127.0,127.0,127.0,119.0,86.0,-47.0
129.0,119.0,148.0,129.0,128.0,127.0,106.0,128.0,25.0,-116.0,-70.0,127.0,127.0,127.0,119.0,86.0,-47.0
129.0,120.0,147.0,126.0,128.0,127.0,107.0,128.0,25.0,-116.0,-70.0,127.0,127.0,127.0,119.0,86.0,-47.0
130.0,120.0,146.0,122.0,127.0,127.0,106.0,128.0,25.0,-116.0,-70.0,127.0,127.0,127.0,119.0,86.0,-47.0
135.0,139.0,127.0,126.0,127.0,125.0,109.0,128.0,25.0,-116.0,-70.0,127.0,127.0,127.0,119.0,86.0,-47.0
136.0,141.0,126.0,126.0,127.0,125.0,109.0,128.0,25.0,-116.0,-70.0,127.0,127.0,127.0,119.0,86.0,-47.0
136.0,141.0,125.0,127.0,127.0,125.0,109.0,128.0,25.0,-116.0,-70.0,127.0,127.0,127.0,119.0,86.0,-47.0
136.0,141.0,124.0,127.0,127.0,124.0,109.0,128.0,25.0,-116.0,-70.0,127.0,127.0,127.0,119.0,86.0,-47.0
137.0,141.0,123.0,128.0,127.0,124.0,109.0,128.0,25.0,-116.0,-70.0,127.0,127.0,127.0,119.0,86.0,-47.0
132.0,131.0,130.0,124.0,127.0,125.0,110.0,129.0,25.0,-116.0,-70.0,127.0,127.0,127.0,119.0,86.0,-47.0
132.0,132.0,129.0,123.0,127.0,125.0,110.0,129.0,25.0,-116.0,-70.0,127.0,127.0,127.0,119.0,86.0,-47.0
132.0,133.0,129.0,124.0,127.0,125.0,110.0,128.0,25.0,-116.0,-70.0,127.0,127.0,127.0,119.0,86.0,-47.0
133.0,134.0,128.0,124.0,127.0,125.0,110.0,128.0,25.0,-116.0,-70.0,127.0,127.0,127.0,119.0,86.0,-47.0
134.0,137.0,127.0,125.0,127.0,125.0,109.0,128.0,25.0,-116.0,-70.0,127.0,127.0,127.0,119.0,86.0,-47.0
137.0,127.0,85.0,118.0,128.0,122.0,105.0,128.0,25.0,-117.0,-72.0,127.0,127.0,127.0,119.0,86.0,-47.0
137.0,128.0,85.0,117.0,128.0,122.0,106.0,128.0,25.0,-117.0,-72.0,127.0,127.0,127.0,119.0,86.0,-47.0
137.0,128.0,86.0,117.0,128.0,122.0,105.0,129.0,25.0,-117.0,-72.0,127.0,127.0,127.0,119.0,86.0,-47.0
137.0,130.0,86.0,117.0,128.0,123.0,105.0,129.0,25.0,-117.0,-72.0,127.0,127.0,127.0,119.0,86.0,-47.0
138.0,130.0,85.0,124.0,127.0,122.0,105.0,130.0,25.0,-117.0,-72.0,127.0,127.0,127.0,119.0,86.0,-47.0
138.0,128.0,84.0,122.0,127.0,122.0,105.0,130.0,25.0,-117.0,-72.0,127.0,127.0,127.0,119.0,86.0,-47.0
138.0,127.0,84.0,120.0,127.0,122.0,105.0,129.0,25.0,-117.0,-72.0,127.0,127.0,127.0,119.0,86.0,-47.0
138.0,126.0,84.0,120.0,128.0,123.0,105.0,129.0,25.0,-117.0,-72.0,127.0,127.0,127.0,119.0,86.0,-47.0
138.0,126.0,84.0,119.0,128.0,122.0,105.0,129.0,25.0,-117.0,-72.0,127.0,127.0,127.0,119.0,86.0,-47.0
137.0,126.0,85.0,118.0,128.0,122.0,106.0,128.0,25.0,-117.0,-72.0,127.0,127.0,127.0,119.0,86.0,-47.0
131.0,134.0,85.0,121.0,130.0,114.0,98.0,125.0,26.0,-118.0,-73.0,127.0,127.0,127.0,119.0,86.0,-47.0
131.0,133.0,85.0,121.0,130.0,113.0,98.0,124.0,26.0,-118.0,-73.0,127.0,127.0,127.0,119.0,86.0,-47.0
133.0,140.0,86.0,126.0,131.0,116.0,102.0,128.0,26.0,-118.0,-73.0,127.0,127.0,127.0,119.0,86.0,-47.0
132.0,139.0,86.0,125.0,131.0,116.0,102.0,128.0,26.0,-118.0,-73.0,127.0,127.0,127.0,119.0,86.0,-47.0
132.0,137.0,85.0,125.0,131.0,116.0,102.0,128.0,26.0,-118.0,-73.0,127.0,127.0,127.0,119.0,86.0,-47.0
132.0,136.0,85.0,124.0,131.0,116.0,101.0,128.0,26.0,-118.0,-73.0,127.0,127.0,127.0,119.0,86.0,-47.0
132.0,135.0,85.0,123.0,131.0,115.0,100.0,127.0,26.0,-118.0,-73.0,127.0,127.0,127.0,119.0,86.0,-47.0
132.0,135.0,85.0,123.0,131.0,115.0,100.0,127.0,26.0,-118.0,-73.0,127.0,127.0,127.0,119.0,86.0,-47.0
132.0,134.0,85.0,122.0,131.0,114.0,99.0,126.0,26.0,-118.0,-73.0,127.0,127.0,127.0,119.0,86.0,-47.0
131.0,134.0,85.0,122.0,130.0,114.0,99.0,125.0,26.0,-118.0,-73.0,127.0,127.0,127.0,119.0,86.0,-47.0
128.0,110.0,89.0,111.0,126.0,109.0,98.0,125.0,26.0,-118.0,-73.0,127.0,127.0,127.0,119.0,86.0,-47.0
127.0,113.0,89.0,115.0,128.0,109.0,97.0,129.0,26.0,-118.0,-73.0,127.0,127.0,127.0,119.0,86.0,-47.0
127.0,111.0,89.0,115.0,128.0,109.0,98.0,129.0,26.0,-118.0,-73.0,127.0,127.0,127.0,119.0,86.0,-47.0
127.0,110.0,89.0,116.0,128.0,109.0,98.0,129.0,26.0,-118.0,-73.0,127.0,127.0,127.0,119.0,86.0,-47.0
128.0,109.0,89.0,116.0,128.0,109.0,97.0,128.0,26.0,-118.0,-73.0,127.0,127.0,127.0,119.0,86.0,-47.0
128.0,108.0,88.0,115.0,127.0,109.0,97.0,128.0,26.0,-118.0,-73.0,127.0,127.0,127.0,119.0,86.0,-47.0
128.0,108.0,88.0,115.0,127.0,109.0,98.0,128.0,26.0,-118.0,-73.0,127.0,127.0,127.0,119.0,86.0,-47.0
128.0,107.0,88.0,114.0,127.0,109.0,98.0,127.0,26.0,-118.0,-73.0,127.0,127.0,127.0,119.0,86.0,-47.0
128.0,107.0,88.0,113.0,127.0,109.0,98.0,127.0,26.0,-118.0,-73.0,127.0,127.0,127.0,119.0,86.0,-47.0
128.0,108.0,88.0,112.0,127.0,109.0,98.0,126.0,26.0,-118.0,-73.0,127.0,127.0,127.0,119.0,86.0,-47.0
133.0,139.0,109.0,119.0,130.0,118.0,105.0,124.0,26.0,-117.0,-73.0,-128.0,127.0,127.0,119.0,86.0,-47.0
133.0,138.0,110.0,119.0,130.0,118.0,105.0,124.0,26.0,-117.0,-73.0,-128.0,127.0,127.0,119.0,86.0,-47.0
133.0,138.0,110.0,120.0,130.0,118.0,106.0,124.0,26.0,-117.0,-73.0,-128.0,127.0,127.0,119.0,86.0,-47.0
133.0,138.0,110.0,120.0,130.0,118.0,106.0,124.0,26.0,-117.0,-73.0,-128.0,127.0,127.0,119.0,86.0,-47.0
133.0,139.0,111.0,120.0,130.0,118.0,106.0,123.0,26.0,-117.0,-73.0,-128.0,127.0,127.0,119.0,86.0,-47.0
132.0,139.0,112.0,120.0,130.0,119.0,106.0,123.0,26.0,-117.0,-73.0,-128.0,127.0,127.0,119.0,86.0,-47.0
132.0,139.0,112.0,121.0,130.0,119.0,106.0,123.0,26.0,-117.0,-73.0,-128.0,127.0,127.0,119.0,86.0,-47.0
132.0,139.0,112.0,121.0,129.0,119.0,106.0,123.0,26.0,-117.0,-73.0,-128.0,127.0,127.0,119.0,86.0,-47.0
132.0,139.0,112.0,121.0,129.0,119.0,106.0,124.0,26.0,-117.0,-73.0,-128.0,127.0,127.0,119.0,86.0,-47.0
132.0,138.0,112.0,121.0,129.0,119.0,107.0,124.0,26.0,-117.0,-73.0,-128.0,127.0,127.0,119.0,86.0,-47.0
130.0,141.0,116.0,125.0,126.0,124.0,107.0,147.0,24.0,-114.0,-71.0,-128.0,127.0,127.0,119.0,86.0,-47.0
129.0,140.0,116.0,125.0,125.0,124.0,107.0,147.0,24.0,-114.0,-71.0,-128.0,127.0,127.0,119.0,86.0,-47.0
129.0,139.0,116.0,124.0,125.0,124.0,107.0,147.0,24.0,-114.0,-71.0,-128.0,127.0,127.0,119.0,86.0,-47.0
129.0,138.0,116.0,124.0,126.0,124.0,107.0,147.0,24.0,-114.0,-71.0,-128.0,127.0,127.0,119.0,86.0,-47.0
128.0,138.0,117.0,125.0,126.0,124.0,107.0,146.0,24.0,-114.0,-71.0,-128.0,127.0,127.0,119.0,86.0,-47.0
128.0,137.0,117.0,125.0,126.0,124.0,107.0,146.0,24.0,-114.0,-71.0,-128.0,127.0,127.0,119.0,86.0,-47.0
128.0,138.0,117.0,125.0,126.0,123.0,107.0,145.0,24.0,-114.0,-71.0,-128.0,127.0,127.0,119.0,86.0,-47.0
127.0,138.0,116.0,125.0,126.0,123.0,107.0,145.0,24.0,-114.0,-71.0,-128.0,127.0,127.0,119.0,86.0,-47.0
127.0,137.0,116.0,125.0,126.0,123.0,108.0,144.0,24.0,-114.0,-71.0,-128.0,127.0,127.0,119.0,86.0,-47.0
130.0,141.0,116.0,125.0,126.0,124.0,107.0,146.0,24.0,-114.0,-71.0,-128.0,127.0,127.0,119.0,86.0,-47.0
122.0,123.0,118.0,126.0,125.0,125.0,109.0,136.0,22.0,-110.0,-69.0,127.0,127.0,127.0,119.0,86.0,-47.0
123.0,123.0,119.0,126.0,125.0,125.0,109.0,137.0,22.0,-110.0,-69.0,127.0,127.0,127.0,119.0,86.0,-47.0
123.0,124.0,120.0,127.0,126.0,125.0,109.0,139.0,22.0,-110.0,-69.0,127.0,127.0,127.0,119.0,86.0,-47.0
123.0,124.0,120.0,128.0,126.0,125.0,110.0,140.0,22.0,-110.0,-69.0,127.0,127.0,127.0,119.0,86.0,-47.0
123.0,125.0,121.0,128.0,126.0,125.0,110.0,141.0,22.0,-110.0,-69.0,127.0,127.0,127.0,119.0,86.0,-47.0
123.0,126.0,122.0,129.0,126.0,125.0,110.0,141.0,22.0,-110.0,-69.0,127.0,127.0,127.0,119.0,86.0,-47.0
123.0,127.0,122.0,129.0,127.0,125.0,110.0,142.0,22.0,-110.0,-69.0,127.0,127.0,127.0,119.0,86.0,-47.0
123.0,129.0,123.0,129.0,127.0,125.0,110.0,142.0,22.0,-110.0,-69.0,127.0,127.0,127.0,119.0,86.0,-47.0
122.0,125.0,117.0,123.0,125.0,124.0,109.0,135.0,22.0,-110.0,-69.0,127.0,127.0,127.0,119.0,86.0,-47.0
122.0,124.0,118.0,124.0,125.0,125.0,109.0,135.0,22.0,-110.0,-69.0,127.0,127.0,127.0,119.0,86.0,-47.0
125.0,127.0,121.0,122.0,129.0,129.0,110.0,142.0,22.0,-109.0,-67.0,127.0,127.0,127.0,119.0,86.0,-47.0
125.0,127.0,121.0,122.0,129.0,129.0,110.0,141.0,22.0,-109.0,-67.0,127.0,127.0,127.0,119.0,86.0,-47.0
125.0,127.0,121.0,122.0,129.0,129.0,110.0,141.0,22.0,-109.0,-67.0,127.0,127.0,127.0,119.0,86.0,-47.0
126.0,127.0,121.0,122.0,128.0,129.0,110.0,142.0,22.0,-109.0,-67.0,127.0,127.0,127.0,119.0,86.0,-47.0
127.0,127.0,122.0,122.0,128.0,129.0,110.0,144.0,22.0,-109.0,-67.0,127.0,127.0,127.0,119.0,86.0,-47.0
128.0,127.0,122.0,122.0,128.0,129.0,110.0,146.0,22.0,-109.0,-67.0,127.0,127.0,127.0,119.0,86.0,-47.0
128.0,128.0,122.0,123.0,128.0,129.0,110.0,149.0,22.0,-109.0,-67.0,127.0,127.0,127.0,119.0,86.0,-47.0
124.0,131.0,121.0,122.0,129.0,129.0,109.0,146.0,22.0,-109.0,-67.0,127.0,127.0,127.0,119.0,86.0,-47.0
124.0,130.0,121.0,122.0,129.0,129.0,110.0,145.0,22.0,-109.0,-67.0,127.0,127.0,127.0,119.0,86.0,-47.0
124.0,128.0,121.0,122.0,129.0,129.0,110.0,143.0,22.0,-109.0,-67.0,127.0,127.0,127.0,119.0,86.0,-47.0
128.0,130.0,122.0,124.0,127.0,130.0,111.0,142.0,21.0,-109.0,-68.0,127.0,127.0,127.0,119.0,86.0,-47.0
128.0,130.0,122.0,125.0,127.0,130.0,111.0,141.0,21.0,-109.0,-68.0,127.0,127.0,127.0,119.0,86.0,-47.0
128.0,130.0,122.0,126.0,127.0,130.0,110.0,140.0,21.0,-109.0,-68.0,127.0,127.0,127.0,119.0,86.0,-47.0
128.0,130.0,122.0,127.0,126.0,129.0,110.0,138.0,21.0,-109.0,-68.0,127.0,127.0,127.0,119.0,86.0,-47.0
127.0,129.0,122.0,128.0,126.0,129.0,109.0,137.0,21.0,-109.0,-68.0,127.0,127.0,127.0,119.0,86.0,-47.0
127.0,129.0,122.0,129.0,126.0,129.0,109.0,136.0,21.0,-109.0,-68.0,127.0,127.0,127.0,119.0,86.0,-47.0
128.0,130.0,121.0,122.0,127.0,130.0,111.0,147.0,21.0,-109.0,-68.0,127.0,127.0,127.0,119.0,86.0,-47.0
128.0,130.0,121.0,123.0,127.0,130.0,111.0,146.0,21.0,-109.0,-68.0,127.0,127.0,127.0,119.0,86.0,-47.0
128.0,130.0,121.0,123.0,127.0,130.0,110.0,144.0,21.0,-109.0,-68.0,127.0,127.0,127.0,119.0,86.0,-47.0
128.0,130.0,121.0,123.0,127.0,130.0,111.0,143.0,21.0,-109.0,-68.0,127.0,127.0,127.0,119.0,86.0,-47.0
125.0,127.0,124.0,135.0,125.0,127.0,106.0,124.0,20.0,-109.0,-68.0,127.0,126.0,127.0,119.0,86.0,-47.0
125.0,127.0,124.0,136.0,125.0,127.0,106.0,125.0,20.0,-109.0,-68.0,127.0,126.0,127.0,119.0,86.0,-47.0
125.0,127.0,124.0,137.0,125.0,127.0,106.0,125.0,20.0,-109.0,-68.0,127.0,126.0,127.0,119.0,86.0,-47.0
125.0,127.0,124.0,138.0,125.0,127.0,106.0,125.0,20.0,-109.0,-68.0,127.0,126.0,127.0,119.0,86.0,-47.0
125.0,127.0,124.0,138.0,125.0,127.0,107.0,126.0,20.0,-109.0,-68.0,127.0,126.0,127.0,119.0,86.0,-47.0
124.0,127.0,123.0,130.0,124.0,127.0,106.0,122.0,20.0,-109.0,-68.0,127.0,126.0,127.0,119.0,86.0,-47.0
124.0,127.0,124.0,131.0,124.0,127.0,106.0,122.0,20.0,-109.0,-68.0,127.0,126.0,127.0,119.0,86.0,-47.0
124.0,127.0,124.0,132.0,124.0,127.0,106.0,122.0,20.0,-109.0,-68.0,127.0,126.0,127.0,119.0,86.0,-47.0
124.0,127.0,124.0,133.0,125.0,127.0,106.0,122.0,20.0,-109.0,-68.0,127.0,126.0,127.0,119.0,86.0,-47.0
124.0,127.0,124.0,134.0,125.0,127.0,106.0,123.0,20.0,-109.0,-68.0,127.0,126.0,127.0,119.0,86.0,-47.0
125.0,126.0,124.0,134.0,126.0,128.0,108.0,122.0,21.0,-110.0,-68.0,127.0,126.0,127.0,119.0,86.0,-47.0
125.0,126.0,124.0,133.0,126.0,128.0,108.0,120.0,21.0,-110.0,-68.0,127.0,126.0,127.0,119.0,86.0,-47.0
124.0,126.0,124.0,132.0,126.0,128.0,108.0,118.0,21.0,-110.0,-68.0,127.0,126.0,127.0,119.0,86.0,-47.0
124.0,126.0,124.0,131.0,126.0,128.0,108.0,116.0,21.0,-110.0,-68.0,127.0,126.0,127.0,119.0,86.0,-47.0
127.0,126.0,126.0,137.0,125.0,128.0,108.0,128.0,21.0,-110.0,-68.0,127.0,126.0,127.0,119.0,86.0,-47.0
127.0,126.0,126.0,138.0,125.0,128.0,108.0,129.0,21.0,-110.0,-68.0,127.0,126.0,127.0,119.0,86.0,-47.0
127.0,126.0,125.0,138.0,125.0,128.0,108.0,128.0,21.0,-110.0,-68.0,127.0,126.0,127.0,119.0,86.0,-47.0
126.0,126.0,125.0,137.0,126.0,128.0,108.0,127.0,21.0,-110.0,-68.0,127.0,126.0,127.0,119.0,86.0,-47.0
126.0,126.0,125.0,136.0,126.0,128.0,108.0,126.0,21.0,-110.0,-68.0,127.0,126.0,127.0,119.0,86.0,-47.0
126.0,126.0,124.0,135.0,126.0,128.0,108.0,124.0,21.0,-110.0,-68.0,127.0,126.0,127.0,119.0,86.0,-47.0
129.0,129.0,129.0,127.0,127.0,131.0,112.0,140.0,22.0,-110.0,-68.0,127.0,126.0,127.0,119.0,86.0,-47.0
129.0,129.0,129.0,127.0,127.0,131.0,113.0,140.0,22.0,-110.0,-68.0,127.0,126.0,127.0,119.0,86.0,-47.0
129.0,128.0,128.0,128.0,127.0,131.0,113.0,139.0,22.0,-110.0,-68.0,127.0,126.0,127.0,119.0,86.0,-47.0
127.0,128.0,132.0,125.0,126.0,130.0,110.0,134.0,22.0,-110.0,-68.0,127.0,126.0,127.0,119.0,86.0,-47.0
128.0,129.0,131.0,126.0,127.0,130.0,111.0,135.0,22.0,-110.0,-68.0,127.0,126.0,127.0,119.0,86.0,-47.0
129.0,129.0,131.0,126.0,127.0,130.0,112.0,137.0,22.0,-110.0,-68.0,127.0,126.0,127.0,119.0,86.0,-47.0
129.0,129.0,131.0,126.0,127.0,130.0,112.0,138.0,22.0,-110.0,-68.0,127.0,126.0,127.0,119.0,86.0,-47.0
129.0,129.0,131.0,126.0,127.0,131.0,112.0,138.0,22.0,-110.0,-68.0,127.0,126.0,127.0,119.0,86.0,-47.0
129.0,129.0,130.0,126.0,127.0,131.0,112.0,139.0,22.0,-110.0,-68.0,127.0,126.0,127.0,119.0,86.0,-47.0
129.0,129.0,130.0,126.0,127.0,131.0,112.0,140.0,22.0,-110.0,-68.0,127.0,126.0,127.0,119.0,86.0,-47.0
128.0,128.0,133.0,114.0,127.0,131.0,112.0,126.0,23.0,-110.0,-68.0,127.0,126.0,127.0,119.0,86.0,-47.0
127.0,128.0,132.0,113.0,127.0,131.0,112.0,125.0,23.0,-110.0,-68.0,127.0,126.0,127.0,119.0,86.0,-47.0
127.0,128.0,134.0,122.0,126.0,129.0,110.0,129.0,23.0,-110.0,-68.0,127.0,126.0,127.0,119.0,86.0,-47.0
128.0,129.0,134.0,121.0,127.0,130.0,110.0,129.0,23.0,-110.0,-68.0,127.0,126.0,127.0,119.0,86.0,-47.0
128.0,129.0,134.0,120.0,127.0,130.0,110.0,130.0,23.0,-110.0,-68.0,127.0,126.0,127.0,119.0,86.0,-47.0
129.0,129.0,134.0,119.0,127.0,130.0,111.0,130.0,23.0,-110.0,-68.0,127.0,126.0,127.0,119.0,86.0,-47.0
129.0,129.0,134.0,118.0,127.0,130.0,112.0,129.0,23.0,-110.0,-68.0,127.0,126.0,127.0,119.0,86.0,-47.0
129.0,129.0,133.0,117.0,127.0,131.0,111.0,129.0,23.0,-110.0,-68.0,127.0,126.0,127.0,119.0,86.0,-47.0
129.0,129.0,133.0,116.0,127.0,131.0,112.0,128.0,23.0,-110.0,-68.0,127.0,126.0,127.0,119.0,86.0,-47.0
128.0,129.0,133.0,115.0,127.0,131.0,112.0,127.0,23.0,-110.0,-68.0,127.0,126.0,127.0,119.0,86.0,-47.0
127.0,128.0,131.0,128.0,125.0,130.0,110.0,132.0,25.0,-111.0,-69.0,127.0,126.0,127.0,119.0,86.0,-47.0
128.0,128.0,131.0,130.0,125.0,128.0,108.0,139.0,25.0,-111.0,-69.0,127.0,126.0,127.0,119.0,86.0,-47.0
128.0,128.0,131.0,130.0,125.0,129.0,109.0,138.0,25.0,-111.0,-69.0,127.0,126.0,127.0,119.0,86.0,-47.0
128.0,128.0,131.0,130.0,125.0,129.0,109.0,138.0,25.0,-111.0,-69.0,127.0,126.0,127.0,119.0,86.0,-47.0
128.0,128.0,131.0,130.0,125.0,129.0,109.0,137.0,25.0,-111.0,-69.0,127.0,126.0,127.0,119.0,86.0,-47.0
128.0,128.0,131.0,130.0,125.0,129.0,109.0,137.0,25.0,-111.0,-69.0,127.0,126.0,127.0,119.0,86.0,-47.0
128.0,129.0,131.0,130.0,125.0,130.0,110.0,136.0,25.0,-111.0,-69.0,127.0,126.0,127.0,119.0,86.0,-47.0
128.0,128.0,131.0,129.0,125.0,129.0,110.0,135.0,25.0,-111.0,-69.0,127.0,126.0,127.0,119.0,86.0,-47.0
127.0,128.0,131.0,129.0,125.0,129.0,110.0,134.0,25.0,-111.0,-69.0,127.0,126.0,127.0,119.0,86.0,-47.0
127.0,128.0,131.0,128.0,125.0,129.0,110.0,133.0,25.0,-111.0,-69.0,127.0,126.0,127.0,119.0,86.0,-47.0
127.0,128.0,137.0,126.0,127.0,129.0,109.0,139.0,26.0,-113.0,-70.0,127.0,126.0,127.0,119.0,86.0,-47.0
127.0,128.0,137.0,124.0,127.0,129.0,109.0,138.0,26.0,-113.0,-70.0,127.0,126.0,127.0,119.0,86.0,-47.0
127.0,128.0,137.0,123.0,127.0,129.0,109.0,138.0,26.0,-113.0,-70.0,127.0,126.0,127.0,119.0,86.0,-47.0
127.0,128.0,137.0,123.0,127.0,129.0,109.0,138.0,26.0,-113.0,-70.0,127.0,126.0,127.0,119.0,86.0,-47.0
127.0,128.0,137.0,123.0,127.0,129.0,109.0,138.0,26.0,-113.0,-70.0,127.0,126.0,127.0,119.0,86.0,-47.0
127.0,128.0,137.0,123.0,127.0,129.0,109.0,139.0,26.0,-113.0,-70.0,127.0,126.0,127.0,119.0,86.0,-47.0
127.0,128.0,137.0,124.0,127.0,129.0,109.0,139.0,26.0,-113.0,-70.0,127.0,126.0,127.0,119.0,86.0,-47.0
127.0,128.0,137.0,124.0,127.0,129.0,109.0,138.0,26.0,-113.0,-70.0,127.0,126.0,127.0,119.0,86.0,-47.0
126.0,128.0,137.0,124.0,127.0,129.0,109.0,138.0,26.0,-113.0,-70.0,127.0,126.0,127.0,119.0,86.0,-47.0
127.0,127.0,137.0,127.0,127.0,129.0,109.0,139.0,26.0,-113.0,-70.0,127.0,126.0,127.0,119.0,86.0,-47.0
123.0,126.0,135.0,143.0,126.0,127.0,110.0,127.0,27.0,-114.0,-70.0,127.0,126.0,127.0,119.0,86.0,-47.0
123.0,126.0,135.0,142.0,126.0,127.0,112.0,127.0,27.0,-114.0,-70.0,127.0,126.0,127.0,119.0,86.0,-47.0
123.0,126.0,135.0,140.0,126.0,127.0,112.0,126.0,27.0,-114.0,-70.0,127.0,126.0,127.0,119.0,86.0,-47.0
123.0,126.0,135.0,138.0,126.0,127.0,112.0,126.0,27.0,-114.0,-70.0,127.0,126.0,127.0,119.0,86.0,-47.0
123.0,126.0,135.0,137.0,126.0,127.0,112.0,125.0,27.0,-114.0,-70.0,127.0,126.0,127.0,119.0,86.0,-47.0
123.0,126.0,135.0,135.0,126.0,127.0,112.0,125.0,27.0,-114.0,-70.0,127.0,126.0,127.0,119.0,86.0,-47.0
123.0,126.0,135.0,134.0,126.0,126.0,112.0,125.0,27.0,-114.0,-70.0,127.0,126.0,127.0,119.0,86.0,-47.0
124.0,126.0,135.0,133.0,126.0,127.0,112.0,126.0,27.0,-114.0,-70.0,127.0,126.0,127.0,119.0,86.0,-47.0
123.0,126.0,136.0,141.0,126.0,127.0,106.0,128.0,27.0,-114.0,-70.0,127.0,126.0,127.0,119.0,86.0,-47.0
123.0,126.0,136.0,142.0,126.0,127.0,106.0,128.0,27.0,-114.0,-70.0,127.0,126.0,127.0,119.0,86.0,-47.0
125.0,128.0,134.0,120.0,126.0,123.0,107.0,125.0,28.0,-114.0,-69.0,127.0,126.0,127.0,119.0,86.0,-47.0
125.0,128.0,134.0,121.0,126.0,123.0,107.0,126.0,28.0,-114.0,-69.0,127.0,126.0,127.0,119.0,86.0,-47.0
125.0,128.0,134.0,121.0,126.0,123.0,106.0,126.0,28.0,-114.0,-69.0,127.0,126.0,127.0,119.0,86.0,-47.0
125.0,127.0,133.0,122.0,126.0,123.0,106.0,127.0,28.0,-114.0,-69.0,127.0,126.0,127.0,119.0,86.0,-47.0
126.0,127.0,133.0,123.0,126.0,123.0,106.0,127.0,28.0,-114.0,-69.0,127.0,126.0,127.0,119.0,86.0,-47.0
126.0,127.0,134.0,124.0,127.0,123.0,105.0,128.0,28.0,-114.0,-69.0,127.0,126.0,127.0,119.0,86.0,-47.0
126.0,127.0,134.0,126.0,127.0,122.0,105.0,127.0,28.0,-114.0,-69.0,127.0,126.0,127.0,119.0,86.0,-47.0
125.0,127.0,134.0,122.0,126.0,123.0,107.0,126.0,28.0,-114.0,-69.0,127.0,126.0,127.0,119.0,86.0,-47.0
125.0,127.0,135.0,121.0,126.0,123.0,107.0,126.0,28.0,-114.0,-69.0,127.0,126.0,127.0,119.0,86.0,-47.0
125.0,128.0,134.0,120.0,126.0,123.0,106.0,125.0,28.0,-114.0,-69.0,127.0,126.0,127.0,119.0,86.0,-47.0
130.0,126.0,138.0,140.0,129.0,121.0,103.0,135.0,28.0,-113.0,-69.0,127.0,127.0,127.0,119.0,86.0,-47.0
130.0,126.0,138.0,139.0,129.0,122.0,103.0,134.0,28.0,-113.0,-69.0,127.0,127.0,127.0,119.0,86.0,-47.0
130.0,126.0,139.0,138.0,129.0,122.0,104.0,133.0,28.0,-113.0,-69.0,127.0,127.0,127.0,119.0,86.0,-47.0
130.0,126.0,139.0,138.0,129.0,122.0,105.0,133.0,28.0,-113.0,-69.0,127.0,127.0,127.0,119.0,86.0,-47.0
130.0,126.0,138.0,137.0,129.0,123.0,105.0,132.0,28.0,-113.0,-69.0,127.0,127.0,127.0,119.0,86.0,-47.0
130.0,126.0,137.0,137.0,129.0,123.0,105.0,131.0,28.0,-113.0,-69.0,127.0,127.0,127.0,119.0,86.0,-47.0
130.0,127.0,137.0,143.0,129.0,121.0,102.0,135.0,28.0,-113.0,-69.0,127.0,127.0,127.0,119.0,86.0,-47.0
130.0,127.0,137.0,142.0,129.0,121.0,103.0,135.0,28.0,-113.0,-69.0,127.0,127.0,127.0,119.0,86.0,-47.0
130.0,127.0,138.0,142.0,129.0,121.0,103.0,135.0,28.0,-113.0,-69.0,127.0,127.0,127.0,119.0,86.0,-47.0
130.0,127.0,138.0,141.0,129.0,121.0,103.0,135.0,28.0,-113.0,-69.0,127.0,127.0,127.0,119.0,86.0,-47.0
128.0,126.0,129.0,129.0,126.0,128.0,108.0,116.0,29.0,-114.0,-70.0,127.0,127.0,127.0,119.0,86.0,-47.0
127.0,125.0,129.0,130.0,125.0,128.0,107.0,115.0,29.0,-114.0,-70.0,127.0,127.0,127.0,119.0,86.0,-47.0
127.0,125.0,129.0,130.0,125.0,128.0,107.0,115.0,29.0,-114.0,-70.0,127.0,127.0,127.0,119.0,86.0,-47.0
127.0,125.0,129.0,131.0,125.0,128.0,107.0,115.0,29.0,-114.0,-70.0,127.0,127.0,127.0,119.0,86.0,-47.0
126.0,125.0,129.0,131.0,125.0,128.0,106.0,114.0,29.0,-114.0,-70.0,127.0,127.0,127.0,119.0,86.0,-47.0
128.0,126.0,131.0,128.0,126.0,128.0,107.0,118.0,29.0,-114.0,-70.0,127.0,127.0,127.0,119.0,86.0,-47.0
128.0,126.0,131.0,128.0,126.0,128.0,108.0,117.0,29.0,-114.0,-70.0,127.0,127.0,127.0,119.0,86.0,-47.0
128.0,126.0,130.0,128.0,126.0,128.0,108.0,117.0,29.0,-114.0,-70.0,127.0,127.0,127.0,119.0,86.0,-47.0
128.0,126.0,130.0,129.0,126.0,128.0,108.0,117.0,29.0,-114.0,-70.0,127.0,127.0,127.0,119.0,86.0,-47.0
128.0,126.0,129.0,129.0,126.0,128.0,108.0,116.0,29.0,-114.0,-70.0,127.0,127.0,127.0,119.0,86.0,-47.0
127.0,125.0,123.0,131.0,126.0,131.0,112.0,124.0,29.0,-115.0,-72.0,127.0,127.0,127.0,119.0,86.0,-47.0
128.0,125.0,123.0,130.0,127.0,131.0,112.0,124.0,29.0,-115.0,-72.0,127.0,127.0,127.0,119.0,86.0,-47.0
128.0,126.0,124.0,130.0,127.0,131.0,112.0,124.0,29.0,-115.0,-72.0,127.0,127.0,127.0,119.0,86.0,-47.0
128.0,127.0,124.0,129.0,127.0,131.0,112.0,124.0,29.0,-115.0,-72.0,127.0,127.0,127.0,119.0,86.0,-47.0
125.0,123.0,124.0,122.0,125.0,130.0,111.0,123.0,29.0,-115.0,-72.0,127.0,127.0,127.0,119.0,86.0,-47.0
126.0,123.0,124.0,125.0,125.0,130.0,112.0,124.0,29.0,-115.0,-72.0,127.0,127.0,127.0,119.0,86.0,-47.0
126.0,123.0,124.0,127.0,125.0,130.0,112.0,124.0,29.0,-115.0,-72.0,127.0,127.0,127.0,119.0,86.0,-47.0
127.0,123.0,124.0,129.0,126.0,130.0,112.0,124.0,29.0,-115.0,-72.0,127.0,127.0,127.0,119.0,86.0,-47.0
127.0,124.0,124.0,130.0,126.0,131.0,112.0,124.0,29.0,-115.0,-72.0,127.0,127.0,127.0,119.0,86.0,-47.0
127.0,124.0,124.0,131.0,126.0,131.0,112.0,124.0,29.0,-115.0,-72.0,127.0,127.0,127.0,119.0,86.0,-47.0
124.0,126.0,126.0,127.0,127.0,131.0,112.0,108.0,29.0,-117.0,-73.0,127.0,127.0,127.0,119.0,86.0,-47.0
124.0,126.0,126.0,126.0,128.0,131.0,112.0,109.0,29.0,-117.0,-73.0,127.0,127.0,127.0,119.0,86.0,-47.0
124.0,126.0,127.0,126.0,128.0,131.0,112.0,111.0,29.0,-117.0,-73.0,127.0,127.0,127.0,119.0,86.0,-47.0
125.0,125.0,125.0,129.0,127.0,132.0,114.0,117.0,29.0,-117.0,-73.0,127.0,127.0,127.0,119.0,86.0,-47.0
125.0,125.0,125.0,129.0,127.0,132.0,114.0,115.0,29.0,-117.0,-73.0,127.0,127.0,127.0,119.0,86.0,-47.0
124.0,125.0,125.0,129.0,127.0,132.0,114.0,113.0,29.0,-117.0,-73.0,127.0,127.0,127.0,119.0,86.0,-47.0
124.0,125.0,125.0,129.0,127.0,131.0,113.0,111.0,29.0,-117.0,-73.0,127.0,127.0,127.0,119.0,86.0,-47.0
124.0,125.0,125.0,128.0,127.0,131.0,113.0,109.0,29.0,-117.0,-73.0,127.0,127.0,127.0,119.0,86.0,-47.0
124.0,125.0,125.0,128.0,127.0,131.0,112.0,108.0,29.0,-117.0,-73.0,127.0,127.0,127.0,119.0,86.0,-47.0
124.0,125.0,126.0,127.0,127.0,131.0,112.0,107.0,29.0,-117.0,-73.0,127.0,127.0,127.0,119.0,86.0,-47.0
126.0,126.0,127.0,122.0,128.0,130.0,110.0,116.0,29.0,-117.0,-74.0,127.0,127.0,127.0,119.0,86.0,-47.0
126.0,126.0,128.0,124.0,128.0,129.0,110.0,116.0,29.0,-117.0,-74.0,127.0,127.0,127.0,119.0,86.0,-47.0
127.0,126.0,125.0,121.0,127.0,129.0,109.0,122.0,29.0,-117.0,-74.0,127.0,127.0,127.0,119.0,86.0,-47.0
127.0,126.0,125.0,119.0,127.0,129.0,110.0,122.0,29.0,-117.0,-74.0,127.0,127.0,127.0,119.0,86.0,-47.0
127.0,126.0,125.0,117.0,127.0,129.0,110.0,121.0,29.0,-117.0,-74.0,127.0,127.0,127.0,119.0,86.0,-47.0
126.0,125.0,125.0,116.0,127.0,129.0,110.0,121.0,29.0,-117.0,-74.0,127.0,127.0,127.0,119.0,86.0,-47.0
126.0,125.0,125.0,116.0,127.0,129.0,109.0,120.0,29.0,-117.0,-74.0,127.0,127.0,127.0,119.0,86.0,-47.0
126.0,125.0,125.0,117.0,127.0,129.0,110.0,119.0,29.0,-117.0,-74.0,127.0,127.0,127.0,119.0,86.0,-47.0
126.0,125.0,126.0,118.0,127.0,129.0,109.0,118.0,29.0,-117.0,-74.0,127.0,127.0,127.0,119.0,86.0,-47.0
126.0,126.0,126.0,120.0,127.0,129.0,110.0,117.0,29.0,-117.0,-74.0,127.0,127.0,127.0,119.0,86.0,-47.0
128.0,126.0,130.0,125.0,126.0,126.0,110.0,124.0,28.0,-115.0,-73.0,127.0,127.0,127.0,119.0,86.0,-47.0
127.0,126.0,131.0,119.0,126.0,126.0,112.0,121.0,28.0,-115.0,-73.0,127.0,127.0,127.0,119.0,86.0,-47.0
127.0,125.0,132.0,118.0,126.0,126.0,111.0,121.0,28.0,-115.0,-73.0,127.0,127.0,127.0,119.0,86.0,-47.0
127.0,125.0,132.0,118.0,126.0,126.0,111.0,121.0,28.0,-115.0,-73.0,127.0,127.0,127.0,119.0,86.0,-47.0
128.0,125.0,131.0,118.0,126.0,126.0,112.0,122.0,28.0,-115.0,-73.0,127.0,127.0,127.0,119.0,86.0,-47.0
128.0,126.0,131.0,118.0,126.0,126.0,111.0,123.0,28.0,-115.0,-73.0,127.0,127.0,127.0,119.0,86.0,-47.0
128.0,126.0,130.0,119.0,126.0,126.0,111.0,124.0,28.0,-115.0,-73.0,127.0,127.0,127.0,119.0,86.0,-47.0
128.0,126.0,130.0,120.0,126.0,126.0,110.0,124.0,28.0,-115.0,-73.0,127.0,127.0,127.0,119.0,86.0,-47.0
128.0,126.0,130.0,122.0,126.0,125.0,110.0,125.0,28.0,-115.0,-73.0,127.0,127.0,127.0,119.0,86.0,-47.0
128.0,126.0,130.0,123.0,126.0,125.0,110.0,125.0,28.0,-115.0,-73.0,127.0,127.0,127.0,119.0,86.0,-47.0
126.0,126.0,130.0,119.0,128.0,127.0,106.0,121.0,28.0,-113.0,-72.0,127.0,127.0,127.0,119.0,86.0,-47.0
126.0,126.0,130.0,118.0,127.0,127.0,106.0,120.0,28.0,-113.0,-72.0,127.0,127.0,127.0,119.0,86.0,-47.0
126.0,126.0,129.0,117.0,127.0,127.0,106.0,119.0,28.0,-113.0,-72.0,127.0,127.0,127.0,119.0,86.0,-47.0
126.0,126.0,129.0,117.0,127.0,127.0,106.0,119.0,28.0,-113.0,-72.0,127.0,127.0,127.0,119.0,86.0,-47.0
126.0,127.0,129.0,118.0,127.0,128.0,107.0,120.0,28.0,-113.0,-72.0,127.0,127.0,127.0,119.0,86.0,-47.0
126.0,127.0,128.0,119.0,127.0,128.0,107.0,120.0,28.0,-113.0,-72.0,127.0,127.0,127.0,119.0,86.0,-47.0
127.0,127.0,128.0,120.0,127.0,127.0,106.0,121.0,28.0,-113.0,-72.0,127.0,127.0,127.0,119.0,86.0,-47.0
127.0,127.0,127.0,122.0,127.0,127.0,107.0,122.0,28.0,-113.0,-72.0,127.0,127.0,127.0,119.0,86.0,-47.0
127.0,127.0,127.0,124.0,127.0,127.0,106.0,124.0,28.0,-113.0,-72.0,127.0,127.0,127.0,119.0,86.0,-47.0
127.0,127.0,127.0,126.0,126.0,127.0,106.0,125.0,28.0,-113.0,-72.0,127.0,127.0,127.0,119.0,86.0,-47.0
126.0,126.0,128.0,121.0,127.0,127.0,106.0,126.0,27.0,-112.0,-72.0,127.0,127.0,127.0,119.0,86.0,-47.0
126.0,126.0,127.0,121.0,127.0,127.0,106.0,127.0,27.0,-112.0,-72.0,127.0,127.0,127.0,119.0,86.0,-47.0
127.0,126.0,127.0,120.0,126.0,127.0,106.0,128.0,27.0,-112.0,-72.0,127.0,127.0,127.0,119.0,86.0,-47.0
127.0,126.0,127.0,120.0,126.0,128.0,107.0,129.0,27.0,-112.0,-72.0,127.0,127.0,127.0,119.0,86.0,-47.0
127.0,125.0,127.0,120.0,126.0,127.0,106.0,130.0,27.0,-112.0,-72.0,127.0,127.0,127.0,119.0,86.0,-47.0
127.0,125.0,127.0,120.0,126.0,127.0,107.0,130.0,27.0,-112.0,-72.0,127.0,127.0,127.0,119.0,86.0,-47.0
127.0,125.0,127.0,121.0,126.0,127.0,106.0,131.0,27.0,-112.0,-72.0,127.0,127.0,127.0,119.0,86.0,-47.0
127.0,125.0,128.0,122.0,126.0,127.0,106.0,131.0,27.0,-112.0,-72.0,127.0,127.0,127.0,119.0,86.0,-47.0
127.0,125.0,128.0,124.0,126.0,127.0,111.0,131.0,27.0,-112.0,-72.0,127.0,127.0,127.0,119.0,86.0,-47.0
126.0,127.0,128.0,122.0,127.0,128.0,107.0,126.0,27.0,-112.0,-72.0,127.0,127.0,127.0,119.0,86.0,-47.0
128.0,126.0,129.0,126.0,127.0,127.0,113.0,127.0,26.0,-111.0,-71.0,127.0,127.0,127.0,119.0,86.0,-47.0
128.0,126.0,130.0,126.0,127.0,127.0,113.0,127.0,26.0,-111.0,-71.0,127.0,127.0,127.0,119.0,86.0,-47.0
128.0,126.0,130.0,125.0,127.0,127.0,113.0,127.0,26.0,-111.0,-71.0,127.0,127.0,127.0,119.0,86.0,-47.0
128.0,126.0,130.0,124.0,127.0,127.0,113.0,127.0,26.0,-111.0,-71.0,127.0,127.0,127.0,119.0,86.0,-47.0
128.0,127.0,130.0,122.0,127.0,127.0,112.0,127.0,26.0,-111.0,-71.0,127.0,127.0,127.0,119.0,86.0,-47.0
128.0,127.0,129.0,120.0,127.0,127.0,112.0,127.0,26.0,-111.0,-71.0,127.0,127.0,127.0,119.0,86.0,-47.0
128.0,127.0,129.0,118.0,126.0,126.0,112.0,127.0,26.0,-111.0,-71.0,127.0,127.0,127.0,119.0,86.0,-47.0
128.0,126.0,128.0,116.0,126.0,126.0,112.0,127.0,26.0,-111.0,-71.0,127.0,127.0,127.0,119.0,86.0,-47.0
127.0,126.0,129.0,126.0,127.0,127.0,113.0,127.0,26.0,-111.0,-71.0,127.0,127.0,127.0,119.0,86.0,-47.0
128.0,126.0,129.0,126.0,127.0,127.0,113.0,127.0,26.0,-111.0,-71.0,127.0,127.0,127.0,119.0,86.0,-47.0
128.0,127.0,130.0,126.0,127.0,126.0,111.0,131.0,26.0,-110.0,-70.0,127.0,127.0,127.0,119.0,86.0,-47.0
128.0,127.0,131.0,127.0,127.0,126.0,111.0,132.0,26.0,-110.0,-70.0,127.0,127.0,127.0,119.0,86.0,-47.0
128.0,127.0,130.0,127.0,127.0,126.0,111.0,133.0,26.0,-110.0,-70.0,127.0,127.0,127.0,119.0,86.0,-47.0
128.0,127.0,131.0,127.0,127.0,126.0,110.0,134.0,26.0,-110.0,-70.0,127.0,127.0,127.0,119.0,86.0,-47.0
128.0,127.0,131.0,127.0,127.0,126.0,111.0,134.0,26.0,-110.0,-70.0,127.0,127.0,127.0,119.0,86.0,-47.0
128.0,127.0,131.0,127.0,126.0,126.0,111.0,134.0,26.0,-110.0,-70.0,127.0,127.0,127.0,119.0,86.0,-47.0
128.0,127.0,131.0,127.0,126.0,125.0,110.0,134.0,26.0,-110.0,-70.0,127.0,127.0,127.0,119.0,86.0,-47.0
128.0,127.0,130.0,126.0,127.0,125.0,111.0,126.0,26.0,-110.0,-70.0,127.0,127.0,127.0,119.0,86.0,-47.0
128.0,127.0,130.0,126.0,127.0,126.0,111.0,128.0,26.0,-110.0,-70.0,127.0,127.0,127.0,119.0,86.0,-47.0
128.0,127.0,130.0,126.0,127.0,126.0,111.0,130.0,26.0,-110.0,-70.0,127.0,127.0,127.0,119.0,86.0,-47.0
127.0,126.0,132.0,124.0,125.0,125.0,109.0,127.0,25.0,-109.0,-69.0,127.0,127.0,127.0,119.0,86.0,-47.0
127.0,126.0,133.0,126.0,125.0,125.0,109.0,127.0,25.0,-109.0,-69.0,127.0,127.0,127.0,119.0,86.0,-47.0
127.0,125.0,133.0,128.0,125.0,125.0,110.0,126.0,25.0,-109.0,-69.0,127.0,127.0,127.0,119.0,86.0,-47.0
127.0,126.0,133.0,129.0,126.0,125.0,110.0,125.0,25.0,-109.0,-69.0,127.0,127.0,127.0,119.0,86.0,-47.0
127.0,126.0,133.0,131.0,126.0,125.0,111.0,125.0,25.0,-109.0,-69.0,127.0,127.0,127.0,119.0,86.0,-47.0
127.0,126.0,133.0,131.0,126.0,125.0,111.0,124.0,25.0,-109.0,-69.0,127.0,127.0,127.0,119.0,86.0,-47.0
127.0,126.0,131.0,119.0,125.0,125.0,110.0,128.0,25.0,-109.0,-69.0,127.0,127.0,127.0,119.0,86.0,-47.0
127.0,126.0,131.0,119.0,125.0,125.0,110.0,128.0,25.0,-109.0,-69.0,127.0,127.0,127.0,119.0,86.0,-47.0
127.0,126.0,131.0,121.0,125.0,125.0,110.0,128.0,25.0,-109.0,-69.0,127.0,127.0,127.0,119.0,86.0,-47.0
127.0,126.0,132.0,122.0,125.0,125.0,110.0,128.0,25.0,-109.0,-69.0,127.0,127.0,127.0,119.0,86.0,-47.0
127.0,126.0,131.0,129.0,127.0,126.0,111.0,128.0,25.0,-109.0,-69.0,127.0,127.0,127.0,119.0,86.0,-47.0
127.0,126.0,131.0,128.0,126.0,126.0,112.0,128.0,25.0,-109.0,-69.0,127.0,127.0,127.0,119.0,86.0,-47.0
127.0,126.0,131.0,127.0,126.0,126.0,111.0,128.0,25.0,-109.0,-69.0,127.0,127.0,127.0,119.0,86.0,-47.0
127.0,126.0,130.0,126.0,126.0,126.0,111.0,127.0,25.0,-109.0,-69.0,127.0,127.0,127.0,119.0,86.0,-47.0
127.0,126.0,130.0,124.0,126.0,126.0,111.0,127.0,25.0,-109.0,-69.0,127.0,127.0,127.0,119.0,86.0,-47.0
126.0,126.0,132.0,133.0,127.0,126.0,112.0,126.0,25.0,-109.0,-69.0,127.0,127.0,127.0,119.0,86.0,-47.0
126.0,126.0,132.0,133.0,127.0,126.0,112.0,127.0,25.0,-109.0,-69.0,127.0,127.0,127.0,119.0,86.0,-47.0
127.0,126.0,132.0,132.0,127.0,126.0,112.0,127.0,25.0,-109.0,-69.0,127.0,127.0,127.0,119.0,86.0,-47.0
127.0,126.0,131.0,132.0,127.0,126.0,112.0,128.0,25.0,-109.0,-69.0,127.0,127.0,127.0,119.0,86.0,-47.0
127.0,126.0,131.0,131.0,127.0,126.0,111.0,128.0,25.0,-109.0,-69.0,127.0,127.0,127.0,119.0,86.0,-47.0
126.0,125.0,124.0,130.0,125.0,126.0,111.0,124.0,24.0,-109.0,-69.0,127.0,127.0,127.0,118.0,86.0,-47.0
126.0,125.0,124.0,131.0,126.0,126.0,112.0,124.0,24.0,-109.0,-69.0,127.0,127.0,127.0,118.0,86.0,-47.0
127.0,126.0,124.0,130.0,126.0,127.0,112.0,124.0,24.0,-109.0,-69.0,127.0,127.0,127.0,118.0,86.0,-47.0
127.0,124.0,123.0,117.0,124.0,125.0,111.0,127.0,24.0,-109.0,-69.0,127.0,127.0,127.0,118.0,86.0,-47.0
126.0,124.0,123.0,118.0,123.0,125.0,111.0,126.0,24.0,-109.0,-69.0,127.0,127.0,127.0,118.0,86.0,-47.0
126.0,124.0,123.0,120.0,123.0,126.0,110.0,125.0,24.0,-109.0,-69.0,127.0,127.0,127.0,118.0,86.0,-47.0
126.0,124.0,124.0,122.0,124.0,126.0,111.0,124.0,24.0,-109.0,-69.0,127.0,127.0,127.0,118.0,86.0,-47.0
126.0,124.0,124.0,125.0,124.0,126.0,111.0,124.0,24.0,-109.0,-69.0,127.0,127.0,127.0,118.0,86.0,-47.0
126.0,124.0,124.0,127.0,124.0,126.0,111.0,123.0,24.0,-109.0,-69.0,127.0,127.0,127.0,118.0,86.0,-47.0
126.0,125.0,124.0,129.0,125.0,126.0,111.0,123.0,24.0,-109.0,-69.0,127.0,127.0,127.0,118.0,86.0,-47.0
128.0,128.0,126.0,122.0,128.0,127.0,111.0,129.0,24.0,-109.0,-69.0,127.0,127.0,127.0,118.0,86.0,-47.0
128.0,128.0,126.0,122.0,128.0,127.0,107.0,129.0,24.0,-109.0,-69.0,127.0,127.0,127.0,118.0,86.0,-47.0
127.0,127.0,124.0,126.0,126.0,126.0,112.0,125.0,24.0,-109.0,-69.0,127.0,127.0,127.0,118.0,86.0,-47.0
127.0,127.0,125.0,125.0,126.0,126.0,112.0,125.0,24.0,-109.0,-69.0,127.0,127.0,127.0,118.0,86.0,-47.0
128.0,127.0,125.0,125.0,127.0,127.0,113.0,125.0,24.0,-109.0,-69.0,127.0,127.0,127.0,118.0,86.0,-47.0
128.0,127.0,125.0,124.0,127.0,127.0,112.0,126.0,24.0,-109.0,-69.0,127.0,127.0,127.0,118.0,86.0,-47.0
128.0,127.0,125.0,123.0,127.0,127.0,114.0,127.0,24.0,-109.0,-69.0,127.0,127.0,127.0,118.0,86.0,-47.0
128.0,127.0,125.0,122.0,128.0,127.0,114.0,128.0,24.0,-109.0,-69.0,127.0,127.0,127.0,118.0,86.0,-47.0
128.0,128.0,125.0,122.0,128.0,127.0,113.0,128.0,24.0,-109.0,-69.0,127.0,127.0,127.0,118.0,86.0,-47.0
128.0,128.0,125.0,122.0,128.0,127.0,114.0,129.0,24.0,-109.0,-69.0,127.0,127.0,127.0,118.0,86.0,-47.0
127.0,127.0,123.0,122.0,126.0,127.0,113.0,125.0,25.0,-109.0,-69.0,127.0,127.0,127.0,118.0,86.0,-47.0
127.0,127.0,124.0,126.0,126.0,126.0,112.0,130.0,25.0,-109.0,-69.0,127.0,127.0,127.0,118.0,86.0,-47.0
127.0,127.0,124.0,125.0,127.0,126.0,112.0,129.0,25.0,-109.0,-69.0,127.0,127.0,127.0,118.0,86.0,-47.0
127.0,127.0,124.0,124.0,127.0,127.0,113.0,128.0,25.0,-109.0,-69.0,127.0,127.0,127.0,118.0,86.0,-47.0
127.0,127.0,124.0,124.0,127.0,127.0,113.0,128.0,25.0,-109.0,-69.0,127.0,127.0,127.0,118.0,86.0,-47.0
127.0,127.0,124.0,123.0,127.0,127.0,112.0,127.0,25.0,-109.0,-69.0,127.0,127.0,127.0,118.0,86.0,-47.0
127.0,127.0,123.0,122.0,127.0,127.0,112.0,127.0,25.0,-109.0,-69.0,127.0,127.0,127.0,118.0,86.0,-47.0
127.0,127.0,123.0,122.0,127.0,127.0,112.0,127.0,25.0,-109.0,-69.0,127.0,127.0,127.0,118.0,86.0,-47.0
127.0,127.0,123.0,122.0,126.0,127.0,112.0,126.0,25.0,-109.0,-69.0,127.0,127.0,127.0,118.0,86.0,-47.0
127.0,127.0,123.0,122.0,126.0,127.0,112.0,125.0,25.0,-109.0,-69.0,127.0,127.0,127.0,118.0,86.0,-47.0
127.0,128.0,126.0,129.0,126.0,127.0,112.0,133.0,25.0,-109.0,-69.0,127.0,127.0,127.0,118.0,86.0,-47.0
127.0,128.0,126.0,129.0,126.0,127.0,112.0,132.0,25.0,-109.0,-69.0,127.0,127.0,127.0,118.0,86.0,-47.0
127.0,128.0,126.0,128.0,126.0,127.0,113.0,132.0,25.0,-109.0,-69.0,127.0,127.0,127.0,118.0,86.0,-47.0
127.0,127.0,125.0,128.0,126.0,127.0,113.0,131.0,25.0,-109.0,-69.0,127.0,127.0,127.0,118.0,86.0,-47.0
127.0,127.0,125.0,129.0,126.0,127.0,113.0,131.0,25.0,-109.0,-69.0,127.0,127.0,127.0,118.0,86.0,-47.0
127.0,126.0,124.0,130.0,126.0,127.0,113.0,130.0,25.0,-109.0,-69.0,127.0,127.0,127.0,118.0,86.0,-47.0
127.0,126.0,125.0,131.0,126.0,127.0,109.0,129.0,25.0,-109.0,-69.0,127.0,127.0,127.0,118.0,86.0,-47.0
127.0,125.0,125.0,133.0,126.0,127.0,111.0,128.0,25.0,-109.0,-69.0,127.0,127.0,127.0,118.0,86.0,-47.0
126.0,125.0,125.0,135.0,126.0,127.0,113.0,127.0,25.0,-109.0,-69.0,127.0,127.0,127.0,118.0,86.0,-47.0
126.0,125.0,125.0,136.0,126.0,127.0,111.0,125.0,25.0,-109.0,-69.0,127.0,127.0,127.0,118.0,86.0,-47.0
126.0,127.0,126.0,124.0,128.0,127.0,106.0,122.0,25.0,-110.0,-69.0,127.0,127.0,127.0,118.0,86.0,-47.0
126.0,127.0,126.0,124.0,128.0,127.0,105.0,122.0,25.0,-110.0,-69.0,127.0,127.0,127.0,118.0,86.0,-47.0
126.0,127.0,126.0,124.0,128.0,127.0,108.0,121.0,25.0,-110.0,-69.0,127.0,127.0,127.0,118.0,86.0,-47.0
125.0,127.0,126.0,125.0,128.0,127.0,112.0,121.0,25.0,-110.0,-69.0,127.0,127.0,127.0,118.0,86.0,-47.0
125.0,127.0,126.0,125.0,128.0,127.0,113.0,120.0,25.0,-110.0,-69.0,127.0,127.0,127.0,118.0,86.0,-47.0
125.0,127.0,125.0,126.0,127.0,127.0,113.0,120.0,25.0,-110.0,-69.0,127.0,127.0,127.0,118.0,86.0,-47.0
125.0,127.0,125.0,127.0,127.0,127.0,113.0,120.0,25.0,-110.0,-69.0,127.0,127.0,127.0,118.0,86.0,-47.0
125.0,126.0,125.0,128.0,127.0,127.0,112.0,120.0,25.0,-110.0,-69.0,127.0,127.0,127.0,118.0,86.0,-47.0
125.0,126.0,126.0,129.0,127.0,126.0,112.0,120.0,25.0,-110.0,-69.0,127.0,127.0,127.0,118.0,86.0,-47.0
126.0,127.0,126.0,123.0,128.0,127.0,106.0,123.0,25.0,-110.0,-69.0,127.0,127.0,127.0,118.0,86.0,-47.0
127.0,127.0,123.0,129.0,127.0,127.0,106.0,125.0,25.0,-111.0,-69.0,127.0,127.0,127.0,118.0,86.0,-47.0
127.0,127.0,123.0,129.0,127.0,127.0,106.0,124.0,25.0,-111.0,-69.0,127.0,127.0,127.0,118.0,86.0,-47.0
127.0,127.0,123.0,129.0,127.0,127.0,106.0,123.0,25.0,-111.0,-69.0,127.0,127.0,127.0,118.0,86.0,-47.0
127.0,127.0,123.0,129.0,127.0,127.0,106.0,122.0,25.0,-111.0,-69.0,127.0,127.0,127.0,118.0,86.0,-47.0
127.0,127.0,123.0,129.0,127.0,127.0,106.0,122.0,25.0,-111.0,-69.0,127.0,127.0,127.0,118.0,86.0,-47.0
127.0,126.0,123.0,129.0,126.0,127.0,107.0,122.0,25.0,-111.0,-69.0,127.0,127.0,127.0,118.0,86.0,-47.0
127.0,126.0,122.0,129.0,126.0,127.0,106.0,124.0,25.0,-111.0,-69.0,127.0,127.0,127.0,118.0,86.0,-47.0
127.0,126.0,122.0,129.0,126.0,127.0,110.0,125.0,25.0,-111.0,-69.0,127.0,127.0,127.0,118.0,86.0,-47.0
128.0,127.0,123.0,128.0,127.0,127.0,106.0,127.0,25.0,-111.0,-69.0,127.0,127.0,127.0,118.0,86.0,-47.0
127.0,127.0,123.0,129.0,127.0,127.0,107.0,126.0,25.0,-111.0,-69.0,127.0,127.0,127.0,118.0,86.0,-47.0
128.0,127.0,124.0,124.0,128.0,128.0,106.0,130.0,26.0,-111.0,-69.0,127.0,127.0,127.0,118.0,86.0,-47.0
128.0,127.0,124.0,125.0,128.0,128.0,106.0,130.0,26.0,-111.0,-69.0,127.0,127.0,127.0,118.0,86.0,-47.0
128.0,127.0,123.0,126.0,128.0,127.0,106.0,130.0,26.0,-111.0,-69.0,127.0,127.0,127.0,118.0,86.0,-47.0
128.0,127.0,123.0,127.0,128.0,128.0,107.0,130.0,26.0,-111.0,-69.0,127.0,127.0,127.0,118.0,86.0,-47.0
128.0,127.0,123.0,128.0,127.0,127.0,106.0,130.0,26.0,-111.0,-69.0,127.0,127.0,127.0,118.0,86.0,-47.0
128.0,126.0,122.0,128.0,127.0,127.0,107.0,130.0,26.0,-111.0,-69.0,127.0,127.0,127.0,118.0,86.0,-47.0
127.0,126.0,122.0,128.0,127.0,127.0,107.0,130.0,26.0,-111.0,-69.0,127.0,127.0,127.0,118.0,86.0,-47.0
128.0,127.0,124.0,122.0,129.0,127.0,107.0,126.0,26.0,-111.0,-69.0,127.0,127.0,127.0,118.0,86.0,-47.0
128.0,127.0,124.0,123.0,128.0,127.0,107.0,127.0,26.0,-111.0,-69.0,127.0,127.0,127.0,118.0,86.0,-47.0
128.0,127.0,124.0,123.0,128.0,127.0,106.0,129.0,26.0,-111.0,-69.0,127.0,127.0,127.0,118.0,86.0,-47.0
128.0,127.0,126.0,128.0,127.0,127.0,107.0,128.0,26.0,-111.0,-69.0,127.0,127.0,127.0,118.0,86.0,-47.0
128.0,127.0,126.0,128.0,127.0,127.0,107.0,128.0,26.0,-111.0,-69.0,127.0,127.0,127.0,118.0,86.0,-47.0
128.0,127.0,126.0,127.0,127.0,127.0,106.0,128.0,26.0,-111.0,-69.0,127.0,127.0,127.0,118.0,86.0,-47.0
128.0,127.0,126.0,126.0,126.0,127.0,106.0,128.0,26.0,-111.0,-69.0,127.0,127.0,127.0,118.0,86.0,-47.0
128.0,127.0,126.0,126.0,126.0,127.0,106.0,128.0,26.0,-111.0,-69.0,127.0,127.0,127.0,118.0,86.0,-47.0
128.0,127.0,126.0,125.0,126.0,127.0,106.0,128.0,26.0,-111.0,-69.0,127.0,127.0,127.0,118.0,86.0,-47.0
127.0,126.0,125.0,131.0,126.0,127.0,112.0,128.0,26.0,-111.0,-69.0,127.0,127.0,127.0,118.0,86.0,-47.0
127.0,127.0,125.0,129.0,126.0,127.0,113.0,128.0,26.0,-111.0,-69.0,127.0,127.0,127.0,118.0,86.0,-47.0
127.0,127.0,125.0,129.0,127.0,127.0,112.0,128.0,26.0,-111.0,-69.0,127.0,127.0,127.0,118.0,86.0,-47.0
128.0,127.0,126.0,128.0,127.0,127.0,109.0,128.0,26.0,-111.0,-69.0,127.0,127.0,127.0,118.0,86.0,-47.0
126.0,127.0,126.0,126.0,126.0,127.0,112.0,123.0,26.0,-111.0,-69.0,127.0,127.0,127.0,118.0,86.0,-47.0
126.0,126.0,126.0,126.0,126.0,127.0,113.0,124.0,26.0,-111.0,-69.0,127.0,127.0,127.0,118.0,86.0,-47.0
126.0,126.0,126.0,126.0,126.0,127.0,113.0,125.0,26.0,-111.0,-69.0,127.0,127.0,127.0,118.0,86.0,-47.0
126.0,126.0,126.0,126.0,127.0,127.0,112.0,126.0,26.0,-111.0,-69.0,127.0,127.0,127.0,118.0,86.0,-47.0
126.0,126.0,126.0,126.0,127.0,127.0,112.0,126.0,26.0,-111.0,-69.0,127.0,127.0,127.0,118.0,86.0,-47.0
127.0,127.0,127.0,126.0,127.0,127.0,113.0,122.0,26.0,-111.0,-69.0,127.0,127.0,127.0,118.0,86.0,-47.0
127.0,127.0,127.0,126.0,127.0,127.0,113.0,122.0,26.0,-111.0,-69.0,127.0,127.0,127.0,118.0,86.0,-47.0
126.0,127.0,126.0,126.0,127.0,127.0,113.0,122.0,26.0,-111.0,-69.0,127.0,127.0,127.0,118.0,86.0,-47.0
127.0,127.0,126.0,126.0,127.0,127.0,112.0,122.0,26.0,-111.0,-69.0,127.0,127.0,127.0,118.0,86.0,-47.0
127.0,127.0,126.0,126.0,127.0,127.0,110.0,122.0,26.0,-111.0,-69.0,127.0,127.0,127.0,118.0,86.0,-47.0
128.0,127.0,127.0,122.0,127.0,127.0,106.0,126.0,27.0,-111.0,-70.0,127.0,127.0,127.0,118.0,86.0,-47.0
127.0,127.0,127.0,122.0,127.0,127.0,107.0,125.0,27.0,-111.0,-70.0,127.0,127.0,127.0,118.0,86.0,-47.0
127.0,127.0,127.0,122.0,127.0,127.0,106.0,125.0,27.0,-111.0,-70.0,127.0,127.0,127.0,118.0,86.0,-47.0
127.0,127.0,127.0,122.0,127.0,127.0,111.0,124.0,27.0,-111.0,-70.0,127.0,127.0,127.0,118.0,86.0,-47.0
128.0,128.0,127.0,124.0,128.0,128.0,106.0,130.0,27.0,-111.0,-70.0,127.0,127.0,127.0,118.0,86.0,-47.0
128.0,128.0,127.0,124.0,128.0,128.0,106.0,130.0,27.0,-111.0,-70.0,127.0,127.0,127.0,118.0,86.0,-47.0
128.0,128.0,127.0,124.0,128.0,128.0,107.0,130.0,27.0,-111.0,-70.0,127.0,127.0,127.0,118.0,86.0,-47.0
128.0,128.0,127.0,123.0,128.0,127.0,106.0,129.0,27.0,-111.0,-70.0,127.0,127.0,127.0,118.0,86.0,-47.0
128.0,128.0,127.0,123.0,128.0,127.0,106.0,128.0,27.0,-111.0,-70.0,127.0,127.0,127.0,118.0,86.0,-47.0
128.0,127.0,127.0,123.0,127.0,127.0,107.0,127.0,27.0,-111.0,-70.0,127.0,127.0,127.0,118.0,86.0,-47.0
127.0,127.0,127.0,125.0,128.0,127.0,106.0,126.0,27.0,-112.0,-70.0,127.0,127.0,127.0,118.0,86.0,-47.0
127.0,127.0,128.0,125.0,128.0,127.0,107.0,126.0,27.0,-112.0,-70.0,127.0,127.0,127.0,118.0,86.0,-47.0
127.0,127.0,127.0,124.0,128.0,127.0,107.0,125.0,27.0,-112.0,-70.0,127.0,127.0,127.0,118.0,86.0,-47.0
126.0,126.0,127.0,127.0,127.0,127.0,106.0,124.0,27.0,-112.0,-70.0,127.0,127.0,127.0,118.0,86.0,-47.0
127.0,127.0,127.0,127.0,127.0,127.0,107.0,125.0,27.0,-112.0,-70.0,127.0,127.0,127.0,118.0,86.0,-47.0
127.0,127.0,127.0,127.0,127.0,127.0,106.0,125.0,27.0,-112.0,-70.0,127.0,127.0,127.0,118.0,86.0,-47.0
127.0,127.0,127.0,127.0,127.0,127.0,107.0,126.0,27.0,-112.0,-70.0,127.0,127.0,127.0,118.0,86.0,-47.0
127.0,127.0,127.0,127.0,127.0,127.0,106.0,126.0,27.0,-112.0,-70.0,127.0,127.0,127.0,118.0,86.0,-47.0
127.0,127.0,127.0,127.0,127.0,127.0,106.0,126.0,27.0,-112.0,-70.0,127.0,127.0,127.0,118.0,86.0,-47.0
127.0,127.0,127.0,126.0,128.0,127.0,106.0,126.0,27.0,-112.0,-70.0,127.0,127.0,127.0,118.0,86.0,-47.0
127.0,127.0,127.0,128.0,127.0,127.0,106.0,125.0,27.0,-112.0,-70.0,127.0,127.0,127.0,118.0,86.0,-47.0
127.0,127.0,127.0,128.0,127.0,127.0,107.0,125.0,27.0,-112.0,-70.0,127.0,127.0,127.0,118.0,86.0,-47.0
127.0,128.0,129.0,126.0,128.0,128.0,107.0,124.0,27.0,-112.0,-70.0,127.0,127.0,127.0,118.0,86.0,-47.0
127.0,128.0,129.0,127.0,128.0,128.0,107.0,123.0,27.0,-112.0,-70.0,127.0,127.0,127.0,118.0,86.0,-47.0
127.0,128.0,128.0,128.0,128.0,128.0,107.0,123.0,27.0,-112.0,-70.0,127.0,127.0,127.0,118.0,86.0,-47.0
127.0,128.0,128.0,128.0,128.0,128.0,107.0,122.0,27.0,-112.0,-70.0,127.0,127.0,127.0,118.0,86.0,-47.0
127.0,128.0,128.0,129.0,128.0,128.0,107.0,123.0,27.0,-112.0,-70.0,127.0,127.0,127.0,118.0,86.0,-47.0
127.0,127.0,128.0,129.0,128.0,128.0,107.0,123.0,27.0,-112.0,-70.0,127.0,127.0,127.0,118.0,86.0,-47.0
127.0,127.0,128.0,129.0,128.0,127.0,107.0,124.0,27.0,-112.0,-70.0,127.0,127.0,127.0,118.0,86.0,-47.0
127.0,127.0,128.0,128.0,128.0,127.0,106.0,124.0,27.0,-112.0,-70.0,127.0,127.0,127.0,118.0,86.0,-47.0
127.0,127.0,128.0,129.0,126.0,127.0,112.0,127.0,27.0,-112.0,-70.0,127.0,127.0,127.0,118.0,86.0,-47.0
125.0,125.0,126.0,127.0,125.0,126.0,111.0,120.0,27.0,-112.0,-70.0,127.0,127.0,127.0,118.0,86.0,-47.0
125.0,126.0,126.0,127.0,125.0,126.0,111.0,121.0,27.0,-112.0,-70.0,127.0,127.0,127.0,118.0,86.0,-47.0
125.0,126.0,126.0,128.0,125.0,126.0,112.0,122.0,27.0,-112.0,-70.0,127.0,127.0,127.0,118.0,86.0,-47.0
126.0,126.0,127.0,128.0,125.0,126.0,112.0,124.0,27.0,-112.0,-70.0,127.0,127.0,127.0,118.0,86.0,-47.0
126.0,126.0,127.0,128.0,125.0,126.0,113.0,125.0,27.0,-112.0,-70.0,127.0,127.0,127.0,118.0,86.0,-47.0
126.0,126.0,127.0,128.0,126.0,127.0,112.0,126.0,27.0,-112.0,-70.0,127.0,127.0,127.0,118.0,86.0,-47.0
127.0,127.0,127.0,128.0,126.0,127.0,112.0,127.0,27.0,-112.0,-70.0,127.0,127.0,127.0,118.0,86.0,-47.0
127.0,127.0,128.0,128.0,126.0,127.0,112.0,127.0,27.0,-112.0,-70.0,127.0,127.0,127.0,118.0,86.0,-47.0
127.0,127.0,128.0,129.0,126.0,127.0,112.0,127.0,27.0,-112.0,-70.0,127.0,127.0,127.0,118.0,86.0,-47.0
126.0,126.0,125.0,123.0,127.0,127.0,109.0,125.0,27.0,-112.0,-71.0,127.0,127.0,127.0,118.0,86.0,-47.0
126.0,126.0,125.0,122.0,127.0,127.0,112.0,124.0,27.0,-112.0,-71.0,127.0,127.0,127.0,118.0,86.0,-47.0
126.0,126.0,125.0,121.0,127.0,127.0,112.0,124.0,27.0,-112.0,-71.0,127.0,127.0,127.0,118.0,86.0,-47.0
126.0,126.0,125.0,121.0,127.0,127.0,113.0,123.0,27.0,-112.0,-71.0,127.0,127.0,127.0,118.0,86.0,-47.0
126.0,126.0,125.0,121.0,127.0,127.0,113.0,122.0,27.0,-112.0,-71.0,127.0,127.0,127.0,118.0,86.0,-47.0
126.0,126.0,125.0,121.0,127.0,127.0,113.0,121.0,27.0,-112.0,-71.0,127.0,127.0,127.0,118.0,86.0,-47.0
125.0,126.0,125.0,121.0,127.0,127.0,113.0,120.0,27.0,-112.0,-71.0,127.0,127.0,127.0,118.0,86.0,-47.0
125.0,126.0,126.0,122.0,127.0,127.0,113.0,119.0,27.0,-112.0,-71.0,127.0,127.0,127.0,118.0,86.0,-47.0
125.0,126.0,126.0,124.0,127.0,127.0,114.0,119.0,27.0,-112.0,-71.0,127.0,127.0,127.0,118.0,86.0,-47.0
125.0,126.0,126.0,125.0,127.0,127.0,114.0,118.0,27.0,-112.0,-71.0,127.0,127.0,127.0,118.0,86.0,-47.0
126.0,127.0,127.0,134.0,127.0,127.0,110.0,125.0,27.0,-112.0,-71.0,127.0,127.0,127.0,118.0,86.0,-47.0
126.0,127.0,127.0,134.0,127.0,127.0,108.0,125.0,27.0,-112.0,-71.0,127.0,127.0,127.0,118.0,86.0,-47.0
126.0,127.0,127.0,133.0,127.0,127.0,112.0,125.0,27.0,-112.0,-71.0,127.0,127.0,127.0,118.0,86.0,-47.0
126.0,127.0,127.0,133.0,127.0,127.0,113.0,124.0,27.0,-112.0,-71.0,127.0,127.0,127.0,118.0,86.0,-47.0
126.0,127.0,128.0,133.0,127.0,127.0,113.0,124.0,27.0,-112.0,-71.0,127.0,127.0,127.0,118.0,86.0,-47.0
126.0,127.0,128.0,133.0,127.0,127.0,113.0,124.0,27.0,-112.0,-71.0,127.0,127.0,127.0,118.0,86.0,-47.0
126.0,126.0,128.0,133.0,127.0,127.0,113.0,123.0,27.0,-112.0,-71.0,127.0,127.0,127.0,118.0,86.0,-47.0
126.0,126.0,128.0,133.0,127.0,127.0,113.0,123.0,27.0,-112.0,-71.0,127.0,127.0,127.0,118.0,86.0,-47.0
126.0,127.0,127.0,133.0,126.0,127.0,112.0,125.0,27.0,-112.0,-71.0,127.0,127.0,127.0,118.0,86.0,-47.0
126.0,127.0,127.0,134.0,127.0,127.0,113.0,125.0,27.0,-112.0,-71.0,127.0,127.0,127.0,118.0,86.0,-47.0
127.0,126.0,127.0,127.0,125.0,127.0,112.0,129.0,27.0,-112.0,-71.0,127.0,127.0,127.0,118.0,86.0,-47.0
127.0,126.0,127.0,128.0,125.0,127.0,112.0,129.0,27.0,-112.0,-71.0,127.0,127.0,127.0,118.0,86.0,-47.0
127.0,127.0,127.0,129.0,126.0,126.0,112.0,129.0,27.0,-112.0,-71.0,127.0,127.0,127.0,118.0,86.0,-47.0
127.0,127.0,128.0,130.0,126.0,126.0,112.0,128.0,27.0,-112.0,-71.0,127.0,127.0,127.0,118.0,86.0,-47.0
127.0,127.0,128.0,131.0,126.0,126.0,112.0,128.0,27.0,-112.0,-71.0,127.0,127.0,127.0,118.0,86.0,-47.0
127.0,127.0,128.0,132.0,126.0,126.0,112.0,128.0,27.0,-112.0,-71.0,127.0,127.0,127.0,118.0,86.0,-47.0
127.0,127.0,129.0,132.0,126.0,127.0,112.0,127.0,27.0,-112.0,-71.0,127.0,127.0,127.0,118.0,86.0,-47.0
127.0,126.0,125.0,124.0,125.0,126.0,112.0,130.0,27.0,-112.0,-71.0,127.0,127.0,127.0,118.0,86.0,-47.0
127.0,126.0,125.0,124.0,125.0,126.0,112.0,130.0,27.0,-112.0,-71.0,127.0,127.0,127.0,118.0,86.0,-47.0
127.0,126.0,126.0,126.0,125.0,127.0,112.0,129.0,27.0,-112.0,-71.0,127.0,127.0,127.0,118.0,86.0,-47.0
126.0,127.0,128.0,122.0,126.0,127.0,113.0,126.0,27.0,-111.0,-71.0,127.0,127.0,127.0,118.0,86.0,-47.0
126.0,126.0,128.0,122.0,126.0,127.0,112.0,127.0,27.0,-111.0,-71.0,127.0,127.0,127.0,118.0,86.0,-47.0
126.0,126.0,128.0,123.0,126.0,127.0,113.0,127.0,27.0,-111.0,-71.0,127.0,127.0,127.0,118.0,86.0,-47.0
126.0,126.0,127.0,125.0,126.0,127.0,113.0,127.0,27.0,-111.0,-71.0,127.0,127.0,127.0,118.0,86.0,-47.0
126.0,126.0,127.0,128.0,126.0,127.0,112.0,127.0,27.0,-111.0,-71.0,127.0,127.0,127.0,118.0,86.0,-47.0
126.0,126.0,127.0,130.0,126.0,127.0,111.0,128.0,27.0,-111.0,-71.0,127.0,127.0,127.0,118.0,86.0,-47.0
126.0,126.0,128.0,126.0,126.0,127.0,112.0,124.0,27.0,-111.0,-71.0,127.0,127.0,127.0,118.0,86.0,-47.0
126.0,126.0,128.0,124.0,126.0,127.0,112.0,124.0,27.0,-111.0,-71.0,127.0,127.0,127.0,118.0,86.0,-47.0
126.0,127.0,128.0,123.0,126.0,127.0,111.0,125.0,27.0,-111.0,-71.0,127.0,127.0,127.0,118.0,86.0,-47.0
126.0,127.0,128.0,122.0,126.0,127.0,111.0,125.0,27.0,-111.0,-71.0,127.0,127.0,127.0,118.0,86.0,-47.0
125.0,126.0,128.0,127.0,126.0,126.0,113.0,121.0,27.0,-111.0,-71.0,127.0,127.0,127.0,118.0,86.0,-47.0
125.0,126.0,128.0,127.0,126.0,126.0,112.0,122.0,27.0,-111.0,-71.0,127.0,127.0,127.0,118.0,86.0,-47.0
125.0,126.0,128.0,127.0,126.0,126.0,112.0,124.0,27.0,-111.0,-71.0,127.0,127.0,127.0,118.0,86.0,-47.0
126.0,126.0,127.0,128.0,126.0,127.0,112.0,125.0,27.0,-111.0,-71.0,127.0,127.0,127.0,118.0,86.0,-47.0
126.0,126.0,128.0,128.0,126.0,127.0,113.0,126.0,27.0,-111.0,-71.0,127.0,127.0,127.0,118.0,86.0,-47.0
125.0,126.0,127.0,125.0,126.0,126.0,112.0,121.0,27.0,-111.0,-71.0,127.0,127.0,127.0,118.0,86.0,-47.0
125.0,126.0,128.0,125.0,126.0,126.0,112.0,120.0,27.0,-111.0,-71.0,127.0,127.0,127.0,118.0,86.0,-47.0
125.0,126.0,128.0,126.0,126.0,126.0,112.0,120.0,27.0,-111.0,-71.0,127.0,127.0,127.0,118.0,86.0,-47.0
125.0,126.0,128.0,126.0,126.0,127.0,112.0,120.0,27.0,-111.0,-71.0,127.0,127.0,127.0,118.0,86.0,-47.0
125.0,126.0,128.0,126.0,126.0,127.0,112.0,120.0,27.0,-111.0,-71.0,127.0,127.0,127.0,118.0,86.0,-47.0
126.0,126.0,127.0,127.0,127.0,127.0,113.0,124.0,26.0,-111.0,-70.0,127.0,127.0,127.0,118.0,86.0,-47.0
126.0,127.0,127.0,127.0,127.0,127.0,112.0,126.0,26.0,-111.0,-70.0,127.0,127.0,127.0,118.0,86.0,-47.0
126.0,127.0,126.0,128.0,127.0,127.0,109.0,128.0,26.0,-111.0,-70.0,127.0,127.0,127.0,118.0,86.0,-47.0
127.0,127.0,126.0,129.0,127.0,127.0,107.0,129.0,26.0,-111.0,-70.0,127.0,127.0,127.0,118.0,86.0,-47.0
124.0,125.0,126.0,134.0,125.0,126.0,112.0,120.0,26.0,-111.0,-70.0,127.0,127.0,127.0,118.0,86.0,-47.0
124.0,125.0,126.0,133.0,126.0,126.0,112.0,119.0,26.0,-111.0,-70.0,127.0,127.0,127.0,118.0,86.0,-47.0
124.0,126.0,126.0,132.0,126.0,126.0,112.0,118.0,26.0,-111.0,-70.0,127.0,127.0,127.0,118.0,86.0,-47.0
124.0,126.0,127.0,130.0,126.0,126.0,112.0,118.0,26.0,-111.0,-70.0,127.0,127.0,127.0,118.0,86.0,-47.0
125.0,126.0,127.0,128.0,126.0,127.0,112.0,119.0,26.0,-111.0,-70.0,127.0,127.0,127.0,118.0,86.0,-47.0
125.0,126.0,127.0,128.0,127.0,127.0,112.0,121.0,26.0,-111.0,-70.0,127.0,127.0,127.0,118.0,86.0,-47.0
126.0,126.0,127.0,126.0,125.0,126.0,112.0,122.0,26.0,-111.0,-70.0,127.0,127.0,127.0,118.0,86.0,-47.0
126.0,126.0,127.0,127.0,125.0,126.0,111.0,123.0,26.0,-111.0,-70.0,127.0,127.0,127.0,118.0,86.0,-47.0
126.0,127.0,127.0,128.0,125.0,126.0,112.0,124.0,26.0,-111.0,-70.0,127.0,127.0,127.0,118.0,86.0,-47.0
126.0,126.0,126.0,129.0,126.0,126.0,112.0,123.0,26.0,-111.0,-70.0,127.0,127.0,127.0,118.0,86.0,-47.0
126.0,126.0,126.0,128.0,126.0,126.0,112.0,122.0,26.0,-111.0,-70.0,127.0,127.0,127.0,118.0,86.0,-47.0
126.0,126.0,126.0,127.0,126.0,126.0,111.0,121.0,26.0,-111.0,-70.0,127.0,127.0,127.0,118.0,86.0,-47.0
126.0,126.0,127.0,126.0,126.0,126.0,112.0,121.0,26.0,-111.0,-70.0,127.0,127.0,127.0,118.0,86.0,-47.0
125.0,126.0,127.0,126.0,126.0,126.0,111.0,121.0,26.0,-111.0,-70.0,127.0,127.0,127.0,118.0,86.0,-47.0
125.0,126.0,127.0,125.0,125.0,126.0,111.0,121.0,26.0,-111.0,-70.0,127.0,127.0,127.0,118.0,86.0,-47.0
126.0,126.0,127.0,125.0,125.0,126.0,112.0,121.0,26.0,-111.0,-70.0,127.0,127.0,127.0,118.0,86.0,-47.0
127.0,127.0,129.0,132.0,126.0,126.0,113.0,129.0,26.0,-110.0,-70.0,127.0,127.0,127.0,118.0,86.0,-47.0
127.0,127.0,129.0,131.0,126.0,126.0,112.0,129.0,26.0,-110.0,-70.0,127.0,127.0,127.0,118.0,86.0,-47.0
127.0,126.0,126.0,127.0,126.0,127.0,112.0,127.0,26.0,-110.0,-70.0,127.0,127.0,127.0,118.0,86.0,-47.0
126.0,126.0,127.0,128.0,126.0,127.0,112.0,128.0,26.0,-110.0,-70.0,127.0,127.0,127.0,118.0,86.0,-47.0
127.0,126.0,127.0,128.0,126.0,127.0,112.0,128.0,26.0,-110.0,-70.0,127.0,127.0,127.0,118.0,86.0,-47.0
127.0,126.0,127.0,129.0,125.0,127.0,112.0,129.0,26.0,-110.0,-70.0,127.0,127.0,127.0,118.0,86.0,-47.0
127.0,126.0,128.0,130.0,126.0,127.0,112.0,129.0,26.0,-110.0,-70.0,127.0,127.0,127.0,118.0,86.0,-47.0
127.0,126.0,129.0,131.0,126.0,127.0,112.0,129.0,26.0,-110.0,-70.0,127.0,127.0,127.0,118.0,86.0,-47.0
127.0,127.0,129.0,132.0,126.0,127.0,112.0,129.0,26.0,-110.0,-70.0,127.0,127.0,127.0,118.0,86.0,-47.0
127.0,127.0,129.0,132.0,126.0,126.0,113.0,129.0,26.0,-110.0,-70.0,127.0,127.0,127.0,118.0,86.0,-47.0
127.0,127.0,127.0,124.0,127.0,127.0,113.0,127.0,26.0,-110.0,-70.0,127.0,127.0,127.0,118.0,86.0,-47.0
126.0,126.0,128.0,131.0,126.0,127.0,113.0,125.0,26.0,-110.0,-70.0,127.0,127.0,127.0,118.0,86.0,-47.0
126.0,127.0,128.0,129.0,127.0,127.0,110.0,126.0,26.0,-110.0,-70.0,127.0,127.0,127.0,118.0,86.0,-47.0
126.0,127.0,128.0,128.0,127.0,127.0,108.0,126.0,26.0,-110.0,-70.0,127.0,127.0,127.0,118.0,86.0,-47.0
127.0,127.0,127.0,126.0,128.0,127.0,107.0,126.0,26.0,-110.0,-70.0,127.0,127.0,127.0,118.0,86.0,-47.0
127.0,127.0,127.0,125.0,128.0,127.0,106.0,127.0,26.0,-110.0,-70.0,127.0,127.0,127.0,118.0,86.0,-47.0
127.0,127.0,127.0,124.0,128.0,127.0,108.0,127.0,26.0,-110.0,-70.0,127.0,127.0,127.0,118.0,86.0,-47.0
127.0,127.0,127.0,123.0,128.0,127.0,112.0,127.0,26.0,-110.0,-70.0,127.0,127.0,127.0,118.0,86.0,-47.0
127.0,127.0,127.0,123.0,128.0,127.0,113.0,127.0,26.0,-110.0,-70.0,127.0,127.0,127.0,118.0,86.0,-47.0
127.0,127.0,127.0,124.0,127.0,127.0,113.0,127.0,26.0,-110.0,-70.0,127.0,127.0,127.0,118.0,86.0,-47.0
128.0,128.0,127.0,129.0,126.0,127.0,112.0,132.0,26.0,-110.0,-70.0,127.0,127.0,127.0,118.0,86.0,-47.0
128.0,128.0,127.0,128.0,126.0,127.0,112.0,132.0,26.0,-110.0,-70.0,127.0,127.0,127.0,118.0,86.0,-47.0
128.0,128.0,127.0,127.0,126.0,127.0,112.0,132.0,26.0,-110.0,-70.0,127.0,127.0,127.0,118.0,86.0,-47.0
128.0,128.0,127.0,127.0,126.0,127.0,107.0,132.0,26.0,-110.0,-70.0,127.0,127.0,127.0,118.0,86.0,-47.0
128.0,128.0,127.0,126.0,126.0,127.0,107.0,132.0,26.0,-110.0,-70.0,127.0,127.0,127.0,118.0,86.0,-47.0
128.0,128.0,127.0,125.0,126.0,127.0,106.0,131.0,26.0,-110.0,-70.0,127.0,127.0,127.0,118.0,86.0,-47.0
128.0,128.0,127.0,125.0,126.0,127.0,106.0,131.0,26.0,-110.0,-70.0,127.0,127.0,127.0,118.0,86.0,-47.0
128.0,128.0,127.0,125.0,126.0,127.0,109.0,130.0,26.0,-110.0,-70.0,127.0,127.0,127.0,118.0,86.0,-47.0
127.0,127.0,126.0,125.0,126.0,127.0,112.0,130.0,26.0,-110.0,-70.0,127.0,127.0,127.0,118.0,86.0,-47.0
127.0,127.0,126.0,126.0,126.0,127.0,113.0,130.0,26.0,-110.0,-70.0,127.0,127.0,127.0,118.0,86.0,-47.0
127.0,126.0,126.0,132.0,127.0,126.0,112.0,127.0,26.0,-110.0,-70.0,127.0,127.0,127.0,118.0,86.0,-47.0
126.0,126.0,126.0,132.0,127.0,126.0,112.0,127.0,26.0,-110.0,-70.0,127.0,127.0,127.0,118.0,86.0,-47.0
127.0,127.0,126.0,131.0,127.0,127.0,112.0,126.0,26.0,-110.0,-70.0,127.0,127.0,127.0,118.0,86.0,-47.0
127.0,127.0,127.0,131.0,127.0,127.0,112.0,126.0,26.0,-110.0,-70.0,127.0,127.0,127.0,118.0,86.0,-47.0
127.0,127.0,127.0,130.0,127.0,127.0,112.0,126.0,26.0,-110.0,-70.0,127.0,127.0,127.0,118.0,86.0,-47.0
127.0,127.0,127.0,129.0,127.0,127.0,113.0,126.0,26.0,-110.0,-70.0,127.0,127.0,127.0,118.0,86.0,-47.0
127.0,127.0,127.0,128.0,127.0,127.0,113.0,126.0,26.0,-110.0,-70.0,127.0,127.0,127.0,118.0,86.0,-47.0
127.0,127.0,127.0,127.0,127.0,127.0,113.0,127.0,26.0,-110.0,-70.0,127.0,127.0,127.0,118.0,86.0,-47.0
127.0,127.0,128.0,126.0,127.0,127.0,113.0,127.0,26.0,-110.0,-70.0,127.0,127.0,127.0,118.0,86.0,-47.0
127.0,126.0,125.0,132.0,127.0,126.0,112.0,127.0,26.0,-110.0,-70.0,127.0,127.0,127.0,118.0,86.0,-47.0
126.0,126.0,126.0,123.0,127.0,127.0,111.0,127.0,26.0,-110.0,-70.0,127.0,127.0,127.0,118.0,86.0,-47.0
127.0,126.0,126.0,123.0,127.0,127.0,108.0,128.0,26.0,-110.0,-70.0,127.0,127.0,127.0,118.0,86.0,-47.0
127.0,126.0,126.0,123.0,127.0,127.0,107.0,129.0,26.0,-110.0,-70.0,127.0,127.0,127.0,118.0,86.0,-47.0
127.0,126.0,126.0,124.0,127.0,127.0,106.0,129.0,26.0,-110.0,-70.0,127.0,127.0,127.0,118.0,86.0,-47.0
127.0,126.0,126.0,124.0,127.0,127.0,108.0,129.0,26.0,-110.0,-70.0,127.0,127.0,127.0,118.0,86.0,-47.0
127.0,126.0,126.0,125.0,127.0,127.0,111.0,129.0,26.0,-110.0,-70.0,127.0,127.0,127.0,118.0,86.0,-47.0
127.0,126.0,127.0,125.0,127.0,127.0,113.0,129.0,26.0,-110.0,-70.0,127.0,127.0,127.0,118.0,86.0,-47.0
127.0,126.0,127.0,126.0,127.0,127.0,111.0,129.0,26.0,-110.0,-70.0,127.0,127.0,127.0,118.0,86.0,-47.0
126.0,126.0,126.0,124.0,127.0,127.0,113.0,123.0,26.0,-110.0,-70.0,127.0,127.0,127.0,118.0,86.0,-47.0
126.0,126.0,126.0,123.0,127.0,127.0,112.0,125.0,26.0,-110.0,-70.0,127.0,127.0,127.0,118.0,86.0,-47.0
127.0,125.0,125.0,127.0,126.0,127.0,112.0,128.0,25.0,-110.0,-69.0,127.0,127.0,127.0,118.0,86.0,-47.0
127.0,125.0,125.0,128.0,126.0,127.0,113.0,130.0,25.0,-110.0,-69.0,127.0,127.0,127.0,118.0,86.0,-47.0
127.0,125.0,125.0,128.0,125.0,127.0,112.0,130.0,25.0,-110.0,-69.0,127.0,127.0,127.0,118.0,86.0,-47.0
127.0,126.0,125.0,129.0,126.0,127.0,112.0,131.0,25.0,-110.0,-69.0,127.0,127.0,127.0,118.0,86.0,-47.0
128.0,126.0,126.0,128.0,126.0,127.0,113.0,131.0,25.0,-110.0,-69.0,127.0,127.0,127.0,118.0,86.0,-47.0
128.0,126.0,126.0,128.0,126.0,127.0,113.0,132.0,25.0,-110.0,-69.0,127.0,127.0,127.0,118.0,86.0,-47.0
128.0,126.0,126.0,128.0,125.0,127.0,112.0,132.0,25.0,-110.0,-69.0,127.0,127.0,127.0,118.0,86.0,-47.0
126.0,125.0,125.0,125.0,126.0,127.0,112.0,125.0,25.0,-110.0,-69.0,127.0,127.0,127.0,118.0,86.0,-47.0
127.0,125.0,125.0,126.0,126.0,127.0,112.0,126.0,25.0,-110.0,-69.0,127.0,127.0,127.0,118.0,86.0,-47.0
127.0,125.0,125.0,127.0,126.0,127.0,112.0,127.0,25.0,-110.0,-69.0,127.0,127.0,127.0,118.0,86.0,-47.0
128.0,126.0,128.0,134.0,126.0,126.0,112.0,136.0,25.0,-110.0,-69.0,127.0,127.0,127.0,118.0,86.0,-47.0
128.0,126.0,127.0,132.0,126.0,126.0,112.0,136.0,25.0,-110.0,-69.0,127.0,127.0,127.0,118.0,86.0,-47.0
128.0,126.0,127.0,130.0,126.0,126.0,112.0,136.0,25.0,-110.0,-69.0,127.0,127.0,127.0,118.0,86.0,-47.0
128.0,127.0,127.0,127.0,126.0,126.0,111.0,135.0,25.0,-110.0,-69.0,127.0,127.0,127.0,118.0,86.0,-47.0
128.0,127.0,127.0,125.0,127.0,126.0,112.0,135.0,25.0,-110.0,-69.0,127.0,127.0,127.0,118.0,86.0,-47.0
128.0,127.0,127.0,123.0,127.0,126.0,112.0,135.0,25.0,-110.0,-69.0,127.0,127.0,127.0,118.0,86.0,-47.0
128.0,127.0,128.0,138.0,127.0,127.0,112.0,135.0,25.0,-110.0,-69.0,127.0,127.0,127.0,118.0,86.0,-47.0
128.0,127.0,128.0,138.0,126.0,127.0,113.0,135.0,25.0,-110.0,-69.0,127.0,127.0,127.0,118.0,86.0,-47.0
128.0,127.0,128.0,137.0,126.0,127.0,113.0,136.0,25.0,-110.0,-69.0,127.0,127.0,127.0,118.0,86.0,-47.0
128.0,126.0,128.0,136.0,126.0,126.0,112.0,136.0,25.0,-110.0,-69.0,127.0,127.0,127.0,118.0,86.0,-47.0
127.0,127.0,128.0,130.0,127.0,127.0,112.0,125.0,25.0,-111.0,-69.0,127.0,127.0,127.0,118.0,86.0,-47.0
128.0,127.0,128.0,129.0,127.0,127.0,112.0,126.0,25.0,-111.0,-69.0,127.0,127.0,127.0,118.0,86.0,-47.0
127.0,127.0,128.0,128.0,127.0,127.0,112.0,126.0,25.0,-111.0,-69.0,127.0,127.0,127.0,118.0,86.0,-47.0
127.0,126.0,128.0,128.0,127.0,127.0,112.0,126.0,25.0,-111.0,-69.0,127.0,127.0,127.0,118.0,86.0,-47.0
127.0,126.0,128.0,127.0,127.0,126.0,113.0,126.0,25.0,-111.0,-69.0,127.0,127.0,127.0,118.0,86.0,-47.0
127.0,127.0,129.0,133.0,126.0,127.0,112.0,125.0,25.0,-111.0,-69.0,127.0,127.0,127.0,118.0,86.0,-47.0
127.0,127.0,129.0,133.0,127.0,127.0,112.0,125.0,25.0,-111.0,-69.0,127.0,127.0,127.0,118.0,86.0,-47.0
127.0,127.0,129.0,132.0,127.0,127.0,112.0,125.0,25.0,-111.0,-69.0,127.0,127.0,127.0,118.0,86.0,-47.0
127.0,127.0,129.0,132.0,127.0,127.0,112.0,125.0,25.0,-111.0,-69.0,127.0,127.0,127.0,118.0,86.0,-47.0
127.0,127.0,128.0,131.0,127.0,127.0,112.0,125.0,25.0,-111.0,-69.0,127.0,127.0,127.0,118.0,86.0,-47.0
127.0,127.0,128.0,124.0,127.0,127.0,112.0,129.0,25.0,-111.0,-69.0,127.0,127.0,127.0,118.0,86.0,-47.0
127.0,127.0,128.0,124.0,127.0,127.0,113.0,129.0,25.0,-111.0,-69.0,127.0,127.0,127.0,118.0,86.0,-47.0
127.0,127.0,128.0,124.0,127.0,127.0,108.0,128.0,25.0,-111.0,-69.0,127.0,127.0,127.0,118.0,86.0,-47.0
127.0,127.0,128.0,124.0,128.0,127.0,108.0,128.0,25.0,-111.0,-69.0,127.0,127.0,127.0,118.0,86.0,-47.0
127.0,127.0,127.0,123.0,126.0,127.0,112.0,128.0,25.0,-111.0,-69.0,127.0,127.0,127.0,118.0,86.0,-47.0
127.0,127.0,127.0,124.0,127.0,127.0,112.0,128.0,25.0,-111.0,-69.0,127.0,127.0,127.0,118.0,86.0,-47.0
127.0,127.0,127.0,125.0,127.0,127.0,112.0,129.0,25.0,-111.0,-69.0,127.0,127.0,127.0,118.0,86.0,-47.0
127.0,127.0,127.0,125.0,127.0,127.0,113.0,129.0,25.0,-111.0,-69.0,127.0,127.0,127.0,118.0,86.0,-47.0
127.0,127.0,128.0,125.0,127.0,127.0,110.0,129.0,25.0,-111.0,-69.0,127.0,127.0,127.0,118.0,86.0,-47.0
127.0,127.0,128.0,124.0,127.0,127.0,109.0,129.0,25.0,-111.0,-69.0,127.0,127.0,127.0,118.0,86.0,-47.0
128.0,126.0,126.0,119.0,127.0,127.0,112.0,132.0,25.0,-111.0,-69.0,127.0,127.0,127.0,118.0,86.0,-47.0
128.0,126.0,126.0,119.0,126.0,126.0,112.0,132.0,25.0,-111.0,-69.0,127.0,127.0,127.0,118.0,86.0,-47.0
128.0,126.0,126.0,119.0,126.0,126.0,112.0,132.0,25.0,-111.0,-69.0,127.0,127.0,127.0,118.0,86.0,-47.0
127.0,127.0,127.0,123.0,128.0,127.0,107.0,130.0,25.0,-111.0,-69.0,127.0,127.0,127.0,118.0,86.0,-47.0
127.0,127.0,127.0,123.0,128.0,127.0,106.0,130.0,25.0,-111.0,-69.0,127.0,127.0,127.0,118.0,86.0,-47.0
127.0,127.0,127.0,122.0,128.0,127.0,106.0,130.0,25.0,-111.0,-69.0,127.0,127.0,127.0,118.0,86.0,-47.0
128.0,127.0,127.0,122.0,127.0,127.0,108.0,130.0,25.0,-111.0,-69.0,127.0,127.0,127.0,118.0,86.0,-47.0
128.0,127.0,126.0,121.0,127.0,127.0,112.0,131.0,25.0,-111.0,-69.0,127.0,127.0,127.0,118.0,86.0,-47.0
128.0,127.0,126.0,121.0,127.0,127.0,113.0,131.0,25.0,-111.0,-69.0,127.0,127.0,127.0,118.0,86.0,-47.0
128.0,126.0,126.0,120.0,127.0,127.0,113.0,132.0,25.0,-111.0,-69.0,127.0,127.0,127.0,118.0,86.0,-47.0
127.0,126.0,129.0,131.0,126.0,127.0,112.0,128.0,25.0,-111.0,-69.0,127.0,127.0,127.0,118.0,86.0,-47.0
127.0,126.0,129.0,132.0,126.0,127.0,112.0,128.0,25.0,-111.0,-69.0,127.0,127.0,127.0,118.0,86.0,-47.0
126.0,126.0,127.0,127.0,126.0,127.0,110.0,128.0,25.0,-111.0,-69.0,127.0,127.0,127.0,118.0,86.0,-47.0
126.0,126.0,127.0,128.0,126.0,127.0,113.0,128.0,25.0,-111.0,-69.0,127.0,127.0,127.0,118.0,86.0,-47.0
126.0,126.0,127.0,129.0,126.0,127.0,113.0,128.0,25.0,-111.0,-69.0,127.0,127.0,127.0,118.0,86.0,-47.0
126.0,126.0,127.0,130.0,126.0,127.0,113.0,127.0,25.0,-111.0,-69.0,127.0,127.0,127.0,118.0,86.0,-47.0
126.0,126.0,127.0,131.0,126.0,127.0,113.0,127.0,25.0,-111.0,-69.0,127.0,127.0,127.0,118.0,86.0,-47.0
126.0,126.0,128.0,131.0,126.0,127.0,112.0,127.0,25.0,-111.0,-69.0,127.0,127.0,127.0,118.0,86.0,-47.0
126.0,126.0,128.0,131.0,126.0,127.0,112.0,127.0,25.0,-111.0,-69.0,127.0,127.0,127.0,118.0,86.0,-47.0
126.0,126.0,129.0,131.0,126.0,127.0,112.0,128.0,25.0,-111.0,-69.0,127.0,127.0,127.0,118.0,86.0,-47.0
125.0,126.0,127.0,124.0,126.0,127.0,107.0,120.0,25.0,-111.0,-70.0,127.0,127.0,127.0,118.0,86.0,-47.0
126.0,126.0,127.0,123.0,126.0,127.0,106.0,121.0,25.0,-111.0,-70.0,127.0,127.0,127.0,118.0,86.0,-47.0
126.0,126.0,127.0,123.0,126.0,127.0,106.0,122.0,25.0,-111.0,-70.0,127.0,127.0,127.0,118.0,86.0,-47.0
126.0,126.0,127.0,123.0,126.0,127.0,106.0,123.0,25.0,-111.0,-70.0,127.0,127.0,127.0,118.0,86.0,-47.0
126.0,126.0,127.0,123.0,125.0,127.0,111.0,124.0,25.0,-111.0,-70.0,127.0,127.0,127.0,118.0,86.0,-47.0
126.0,126.0,127.0,122.0,125.0,127.0,113.0,124.0,25.0,-111.0,-70.0,127.0,127.0,127.0,118.0,86.0,-47.0
126.0,126.0,127.0,122.0,125.0,127.0,112.0,124.0,25.0,-111.0,-70.0,127.0,127.0,127.0,118.0,86.0,-47.0
126.0,126.0,127.0,122.0,125.0,127.0,112.0,125.0,25.0,-111.0,-70.0,127.0,127.0,127.0,118.0,86.0,-47.0
126.0,126.0,127.0,122.0,125.0,126.0,112.0,126.0,25.0,-111.0,-70.0,127.0,127.0,127.0,118.0,86.0,-47.0
127.0,126.0,127.0,122.0,125.0,126.0,112.0,127.0,25.0,-111.0,-70.0,127.0,127.0,127.0,118.0,86.0,-47.0
127.0,127.0,126.0,124.0,127.0,127.0,106.0,129.0,26.0,-111.0,-70.0,127.0,127.0,127.0,118.0,86.0,-47.0
127.0,127.0,126.0,126.0,126.0,127.0,106.0,128.0,26.0,-111.0,-70.0,127.0,127.0,127.0,118.0,86.0,-47.0
127.0,126.0,126.0,127.0,126.0,127.0,106.0,128.0,26.0,-111.0,-70.0,127.0,127.0,127.0,118.0,86.0,-47.0
127.0,126.0,126.0,129.0,126.0,127.0,106.0,128.0,26.0,-111.0,-70.0,127.0,127.0,127.0,118.0,86.0,-47.0
127.0,126.0,127.0,130.0,127.0,127.0,109.0,127.0,26.0,-111.0,-70.0,127.0,127.0,127.0,118.0,86.0,-47.0
126.0,126.0,127.0,132.0,127.0,127.0,110.0,126.0,26.0,-111.0,-70.0,127.0,127.0,127.0,118.0,86.0,-47.0
126.0,126.0,127.0,133.0,127.0,127.0,111.0,125.0,26.0,-111.0,-70.0,127.0,127.0,127.0,118.0,86.0,-47.0
126.0,126.0,127.0,134.0,127.0,127.0,113.0,125.0,26.0,-111.0,-70.0,127.0,127.0,127.0,118.0,86.0,-47.0
126.0,126.0,128.0,134.0,127.0,127.0,113.0,124.0,26.0,-111.0,-70.0,127.0,127.0,127.0,118.0,86.0,-47.0
127.0,127.0,126.0,123.0,127.0,127.0,106.0,129.0,26.0,-111.0,-70.0,127.0,127.0,127.0,118.0,86.0,-47.0
125.0,125.0,125.0,125.0,125.0,127.0,110.0,123.0,26.0,-112.0,-70.0,127.0,127.0,127.0,118.0,86.0,-47.0
125.0,125.0,125.0,126.0,125.0,127.0,110.0,123.0,26.0,-112.0,-70.0,127.0,127.0,127.0,118.0,86.0,-47.0
125.0,125.0,126.0,125.0,126.0,127.0,112.0,124.0,26.0,-112.0,-70.0,127.0,127.0,127.0,118.0,86.0,-47.0
125.0,125.0,126.0,125.0,126.0,127.0,113.0,124.0,26.0,-112.0,-70.0,127.0,127.0,127.0,118.0,86.0,-47.0
126.0,126.0,126.0,124.0,126.0,127.0,113.0,124.0,26.0,-112.0,-70.0,127.0,127.0,127.0,118.0,86.0,-47.0
126.0,126.0,126.0,124.0,126.0,127.0,113.0,124.0,26.0,-112.0,-70.0,127.0,127.0,127.0,118.0,86.0,-47.0
126.0,126.0,126.0,124.0,126.0,127.0,112.0,124.0,26.0,-112.0,-70.0,127.0,127.0,127.0,118.0,86.0,-47.0
126.0,126.0,126.0,123.0,126.0,127.0,112.0,124.0,26.0,-112.0,-70.0,127.0,127.0,127.0,118.0,86.0,-47.0
126.0,125.0,125.0,124.0,125.0,127.0,106.0,124.0,26.0,-112.0,-70.0,127.0,127.0,127.0,118.0,86.0,-47.0
126.0,125.0,125.0,125.0,125.0,127.0,106.0,124.0,26.0,-112.0,-70.0,127.0,127.0,127.0,118.0,86.0,-47.0
127.0,128.0,130.0,128.0,127.0,128.0,106.0,127.0,26.0,-112.0,-70.0,127.0,127.0,127.0,118.0,86.0,-47.0
127.0,127.0,130.0,128.0,127.0,128.0,106.0,127.0,26.0,-112.0,-70.0,127.0,127.0,127.0,118.0,86.0,-47.0
127.0,127.0,130.0,127.0,127.0,127.0,106.0,127.0,26.0,-112.0,-70.0,127.0,127.0,127.0,118.0,86.0,-47.0
127.0,127.0,130.0,127.0,127.0,127.0,106.0,127.0,26.0,-112.0,-70.0,127.0,127.0,127.0,118.0,86.0,-47.0
127.0,127.0,130.0,127.0,127.0,127.0,106.0,126.0,26.0,-112.0,-70.0,127.0,127.0,127.0,118.0,86.0,-47.0
127.0,127.0,129.0,127.0,127.0,127.0,107.0,126.0,26.0,-112.0,-70.0,127.0,127.0,127.0,118.0,86.0,-47.0
127.0,127.0,129.0,128.0,127.0,127.0,111.0,126.0,26.0,-112.0,-70.0,127.0,127.0,127.0,118.0,86.0,-47.0
127.0,128.0,130.0,128.0,128.0,128.0,107.0,128.0,26.0,-112.0,-70.0,127.0,127.0,127.0,118.0,86.0,-47.0
127.0,128.0,129.0,128.0,128.0,128.0,107.0,128.0,26.0,-112.0,-70.0,127.0,127.0,127.0,118.0,86.0,-47.0
127.0,128.0,130.0,128.0,128.0,128.0,107.0,128.0,26.0,-112.0,-70.0,127.0,127.0,127.0,118.0,86.0,-47.0
127.0,126.0,126.0,125.0,126.0,127.0,113.0,128.0,26.0,-112.0,-70.0,127.0,127.0,127.0,118.0,86.0,-47.0
127.0,126.0,126.0,125.0,126.0,127.0,112.0,128.0,26.0,-112.0,-70.0,127.0,127.0,127.0,118.0,86.0,-47.0
127.0,126.0,126.0,125.0,126.0,127.0,107.0,128.0,26.0,-112.0,-70.0,127.0,127.0,127.0,118.0,86.0,-47.0
127.0,126.0,126.0,126.0,126.0,127.0,106.0,128.0,26.0,-112.0,-70.0,127.0,127.0,127.0,118.0,86.0,-47.0
127.0,126.0,126.0,126.0,126.0,127.0,106.0,128.0,26.0,-112.0,-70.0,127.0,127.0,127.0,118.0,86.0,-47.0
127.0,126.0,126.0,126.0,126.0,127.0,110.0,128.0,26.0,-112.0,-70.0,127.0,127.0,127.0,118.0,86.0,-47.0
127.0,126.0,126.0,124.0,126.0,127.0,113.0,128.0,26.0,-112.0,-70.0,127.0,127.0,127.0,118.0,86.0,-47.0
127.0,126.0,127.0,124.0,126.0,127.0,113.0,128.0,26.0,-112.0,-70.0,127.0,127.0,127.0,118.0,86.0,-47.0
127.0,126.0,127.0,124.0,126.0,127.0,113.0,128.0,26.0,-112.0,-70.0,127.0,127.0,127.0,118.0,86.0,-47.0
127.0,126.0,127.0,124.0,127.0,127.0,112.0,128.0,26.0,-112.0,-70.0,127.0,127.0,127.0,118.0,86.0,-47.0
126.0,126.0,125.0,128.0,126.0,127.0,107.0,126.0,26.0,-112.0,-70.0,127.0,127.0,127.0,118.0,86.0,-47.0
126.0,126.0,125.0,128.0,125.0,127.0,109.0,126.0,26.0,-112.0,-70.0,127.0,127.0,127.0,118.0,86.0,-47.0
126.0,126.0,125.0,128.0,125.0,127.0,113.0,126.0,26.0,-112.0,-70.0,127.0,127.0,127.0,118.0,86.0,-47.0
126.0,126.0,125.0,128.0,125.0,127.0,113.0,125.0,26.0,-112.0,-70.0,127.0,127.0,127.0,118.0,86.0,-47.0
126.0,125.0,125.0,127.0,125.0,127.0,113.0,124.0,26.0,-112.0,-70.0,127.0,127.0,127.0,118.0,86.0,-47.0
126.0,126.0,126.0,126.0,126.0,127.0,112.0,127.0,26.0,-112.0,-70.0,127.0,127.0,127.0,118.0,86.0,-47.0
126.0,126.0,126.0,126.0,126.0,127.0,111.0,127.0,26.0,-112.0,-70.0,127.0,127.0,127.0,118.0,86.0,-47.0
126.0,126.0,126.0,127.0,126.0,127.0,110.0,127.0,26.0,-112.0,-70.0,127.0,127.0,127.0,118.0,86.0,-47.0
127.0,126.0,126.0,127.0,126.0,127.0,107.0,127.0,26.0,-112.0,-70.0,127.0,127.0,127.0,118.0,86.0,-47.0
127.0,126.0,125.0,128.0,126.0,127.0,107.0,127.0,26.0,-112.0,-70.0,127.0,127.0,127.0,118.0,86.0,-47.0
126.0,126.0,125.0,130.0,126.0,127.0,113.0,128.0,26.0,-112.0,-70.0,127.0,127.0,127.0,118.0,86.0,-47.0
126.0,125.0,126.0,131.0,126.0,127.0,113.0,128.0,26.0,-112.0,-70.0,127.0,127.0,127.0,118.0,86.0,-47.0
126.0,125.0,125.0,131.0,125.0,127.0,112.0,127.0,26.0,-112.0,-70.0,127.0,127.0,127.0,118.0,86.0,-47.0
126.0,125.0,126.0,131.0,125.0,126.0,113.0,127.0,26.0,-112.0,-70.0,127.0,127.0,127.0,118.0,86.0,-47.0
126.0,127.0,126.0,127.0,127.0,127.0,108.0,127.0,26.0,-112.0,-70.0,127.0,127.0,127.0,118.0,86.0,-47.0
126.0,127.0,126.0,127.0,127.0,127.0,110.0,128.0,26.0,-112.0,-70.0,127.0,127.0,127.0,118.0,86.0,-47.0
126.0,126.0,126.0,128.0,127.0,127.0,113.0,128.0,26.0,-112.0,-70.0,127.0,127.0,127.0,118.0,86.0,-47.0
126.0,126.0,126.0,128.0,126.0,127.0,113.0,129.0,26.0,-112.0,-70.0,127.0,127.0,127.0,118.0,86.0,-47.0
126.0,126.0,126.0,129.0,126.0,127.0,113.0,129.0,26.0,-112.0,-70.0,127.0,127.0,127.0,118.0,86.0,-47.0
126.0,126.0,125.0,129.0,126.0,127.0,112.0,129.0,26.0,-112.0,-70.0,127.0,127.0,127.0,118.0,86.0,-47.0
126.0,127.0,128.0,128.0,127.0,127.0,106.0,127.0,26.0,-112.0,-70.0,127.0,127.0,127.0,118.0,86.0,-47.0
126.0,127.0,128.0,128.0,127.0,127.0,106.0,127.0,26.0,-112.0,-70.0,127.0,127.0,127.0,118.0,86.0,-47.0
126.0,127.0,128.0,127.0,127.0,127.0,106.0,127.0,26.0,-112.0,-70.0,127.0,127.0,127.0,118.0,86.0,-47.0
126.0,126.0,127.0,128.0,127.0,127.0,108.0,127.0,26.0,-112.0,-70.0,127.0,127.0,127.0,118.0,86.0,-47.0
126.0,126.0,127.0,129.0,127.0,127.0,107.0,127.0,26.0,-112.0,-70.0,127.0,127.0,127.0,118.0,86.0,-47.0
126.0,127.0,128.0,129.0,127.0,127.0,106.0,127.0,26.0,-112.0,-70.0,127.0,127.0,127.0,118.0,86.0,-47.0
126.0,127.0,127.0,129.0,127.0,127.0,106.0,127.0,26.0,-112.0,-70.0,127.0,127.0,127.0,118.0,86.0,-47.0
126.0,127.0,128.0,129.0,127.0,127.0,107.0,127.0,26.0,-112.0,-70.0,127.0,127.0,127.0,118.0,86.0,-47.0
126.0,127.0,128.0,129.0,127.0,127.0,107.0,127.0,26.0,-112.0,-70.0,127.0,127.0,127.0,118.0,86.0,-47.0
126.0,127.0,128.0,129.0,127.0,127.0,106.0,127.0,26.0,-112.0,-70.0,127.0,127.0,127.0,118.0,86.0,-47.0
126.0,126.0,127.0,126.0,126.0,127.0,106.0,126.0,26.0,-112.0,-70.0,127.0,127.0,127.0,118.0,86.0,-47.0
126.0,126.0,126.0,126.0,126.0,127.0,108.0,126.0,26.0,-112.0,-70.0,127.0,127.0,127.0,118.0,86.0,-47.0
126.0,126.0,127.0,128.0,127.0,128.0,106.0,126.0,26.0,-112.0,-70.0,127.0,127.0,127.0,118.0,86.0,-47.0
126.0,126.0,127.0,127.0,127.0,128.0,106.0,127.0,26.0,-112.0,-70.0,127.0,127.0,127.0,118.0,86.0,-47.0
126.0,126.0,127.0,127.0,127.0,127.0,107.0,127.0,26.0,-112.0,-70.0,127.0,127.0,127.0,118.0,86.0,-47.0
126.0,126.0,127.0,126.0,127.0,127.0,107.0,127.0,26.0,-112.0,-70.0,127.0,127.0,127.0,118.0,86.0,-47.0
126.0,126.0,127.0,126.0,127.0,127.0,107.0,127.0,26.0,-112.0,-70.0,127.0,127.0,127.0,118.0,86.0,-47.0
126.0,126.0,127.0,126.0,127.0,127.0,107.0,127.0,26.0,-112.0,-70.0,127.0,127.0,127.0,118.0,86.0,-47.0
126.0,126.0,127.0,126.0,126.0,127.0,106.0,127.0,26.0,-112.0,-70.0,127.0,127.0,127.0,118.0,86.0,-47.0
126.0,126.0,127.0,126.0,126.0,127.0,106.0,127.0,26.0,-112.0,-70.0,127.0,127.0,127.0,118.0,86.0,-47.0
127.0,127.0,128.0,125.0,127.0,127.0,106.0,126.0,26.0,-112.0,-70.0,127.0,127.0,127.0,118.0,86.0,-47.0
127.0,128.0,128.0,125.0,128.0,127.0,107.0,127.0,26.0,-112.0,-70.0,127.0,127.0,127.0,118.0,86.0,-47.0
127.0,128.0,128.0,125.0,128.0,127.0,107.0,128.0,26.0,-112.0,-70.0,127.0,127.0,127.0,118.0,86.0,-47.0
127.0,128.0,129.0,125.0,128.0,127.0,107.0,128.0,26.0,-112.0,-70.0,127.0,127.0,127.0,118.0,86.0,-47.0
127.0,127.0,129.0,126.0,128.0,127.0,106.0,128.0,26.0,-112.0,-70.0,127.0,127.0,127.0,118.0,86.0,-47.0
127.0,127.0,129.0,126.0,128.0,127.0,106.0,128.0,26.0,-112.0,-70.0,127.0,127.0,127.0,118.0,86.0,-47.0
127.0,127.0,129.0,126.0,128.0,127.0,106.0,127.0,26.0,-112.0,-70.0,127.0,127.0,127.0,118.0,86.0,-47.0
127.0,127.0,129.0,126.0,128.0,127.0,106.0,127.0,26.0,-112.0,-70.0,127.0,127.0,127.0,118.0,86.0,-47.0
127.0,127.0,129.0,126.0,128.0,127.0,106.0,127.0,26.0,-112.0,-70.0,127.0,127.0,127.0,118.0,86.0,-47.0
127.0,127.0,129.0,125.0,128.0,127.0,106.0,127.0,26.0,-112.0,-70.0,127.0,127.0,127.0,118.0,86.0,-47.0
127.0,126.0,125.0,122.0,125.0,127.0,106.0,129.0,26.0,-112.0,-70.0,127.0,127.0,127.0,118.0,86.0,-47.0
127.0,126.0,126.0,123.0,125.0,127.0,106.0,129.0,26.0,-112.0,-70.0,127.0,127.0,127.0,118.0,86.0,-47.0
127.0,126.0,126.0,124.0,126.0,127.0,106.0,128.0,26.0,-112.0,-70.0,127.0,127.0,127.0,118.0,86.0,-47.0
127.0,126.0,126.0,125.0,126.0,128.0,106.0,128.0,26.0,-112.0,-70.0,127.0,127.0,127.0,118.0,86.0,-47.0
127.0,126.0,126.0,125.0,126.0,127.0,106.0,128.0,26.0,-112.0,-70.0,127.0,127.0,127.0,118.0,86.0,-47.0
127.0,127.0,126.0,126.0,126.0,128.0,106.0,128.0,26.0,-112.0,-70.0,127.0,127.0,127.0,118.0,86.0,-47.0
127.0,126.0,126.0,127.0,126.0,127.0,106.0,128.0,26.0,-112.0,-70.0,127.0,127.0,127.0,118.0,86.0,-47.0
127.0,126.0,126.0,129.0,126.0,127.0,106.0,128.0,26.0,-112.0,-70.0,127.0,127.0,127.0,118.0,86.0,-47.0
127.0,126.0,126.0,130.0,127.0,127.0,107.0,128.0,26.0,-112.0,-70.0,127.0,127.0,127.0,118.0,86.0,-47.0
127.0,126.0,127.0,132.0,127.0,127.0,106.0,128.0,26.0,-112.0,-70.0,127.0,127.0,127.0,118.0,86.0,-47.0
129.0,128.0,127.0,122.0,128.0,128.0,107.0,130.0,26.0,-112.0,-70.0,127.0,127.0,127.0,118.0,86.0,-47.0
129.0,128.0,127.0,122.0,128.0,128.0,107.0,130.0,26.0,-112.0,-70.0,127.0,127.0,127.0,118.0,86.0,-47.0
129.0,128.0,127.0,122.0,127.0,128.0,107.0,130.0,26.0,-112.0,-70.0,127.0,127.0,127.0,118.0,86.0,-47.0
129.0,128.0,127.0,123.0,127.0,128.0,107.0,129.0,26.0,-112.0,-70.0,127.0,127.0,127.0,118.0,86.0,-47.0
129.0,128.0,126.0,124.0,127.0,128.0,107.0,129.0,26.0,-112.0,-70.0,127.0,127.0,127.0,118.0,86.0,-47.0
129.0,127.0,126.0,125.0,127.0,127.0,106.0,129.0,26.0,-112.0,-70.0,127.0,127.0,127.0,118.0,86.0,-47.0
128.0,127.0,126.0,125.0,127.0,127.0,107.0,129.0,26.0,-112.0,-70.0,127.0,127.0,127.0,118.0,86.0,-47.0
128.0,127.0,127.0,126.0,127.0,127.0,107.0,129.0,26.0,-112.0,-70.0,127.0,127.0,127.0,118.0,86.0,-47.0
128.0,127.0,126.0,126.0,127.0,127.0,106.0,129.0,26.0,-112.0,-70.0,127.0,127.0,127.0,118.0,86.0,-47.0
128.0,128.0,127.0,122.0,128.0,128.0,107.0,130.0,26.0,-112.0,-70.0,127.0,127.0,127.0,118.0,86.0,-47.0
127.0,126.0,126.0,124.0,126.0,127.0,107.0,127.0,26.0,-112.0,-70.0,127.0,127.0,127.0,118.0,86.0,-47.0
127.0,126.0,126.0,125.0,126.0,127.0,107.0,127.0,26.0,-112.0,-70.0,127.0,127.0,127.0,118.0,86.0,-47.0
127.0,126.0,125.0,124.0,126.0,127.0,106.0,127.0,26.0,-112.0,-70.0,127.0,127.0,127.0,118.0,86.0,-47.0
127.0,126.0,125.0,124.0,126.0,127.0,107.0,127.0,26.0,-112.0,-70.0,127.0,127.0,127.0,118.0,86.0,-47.0
126.0,126.0,125.0,124.0,126.0,127.0,106.0,128.0,26.0,-112.0,-70.0,127.0,127.0,127.0,118.0,86.0,-47.0
126.0,126.0,124.0,124.0,126.0,127.0,108.0,128.0,26.0,-112.0,-70.0,127.0,127.0,127.0,118.0,86.0,-47.0
126.0,126.0,124.0,123.0,126.0,127.0,111.0,127.0,26.0,-112.0,-70.0,127.0,127.0,127.0,118.0,86.0,-47.0
