emg1,emg2,emg3,emg4,emg5,emg6,emg7,emg8,acc_x,acc_y,acc_z,gyro_x,gyro_y,gyro_z,angle_pitch,angle_roll,angle_yaw
124.0,124.0,128.0,127.0,127.0,125.0,126.0,128.0,34.0,-100.0,-67.0,127.0,127.0,127.0,111.0,89.0,-115.0
124.0,124.0,127.0,127.0,127.0,125.0,126.0,128.0,34.0,-100.0,-67.0,127.0,127.0,127.0,111.0,89.0,-115.0
124.0,124.0,127.0,127.0,127.0,126.0,126.0,128.0,34.0,-100.0,-67.0,127.0,127.0,127.0,111.0,89.0,-115.0
124.0,125.0,127.0,127.0,127.0,127.0,126.0,128.0,34.0,-100.0,-67.0,127.0,127.0,127.0,111.0,89.0,-115.0
124.0,125.0,127.0,127.0,127.0,127.0,126.0,128.0,34.0,-100.0,-67.0,127.0,127.0,127.0,111.0,89.0,-115.0
124.0,125.0,127.0,127.0,127.0,127.0,126.0,128.0,34.0,-100.0,-67.0,127.0,127.0,127.0,111.0,89.0,-115.0
124.0,125.0,127.0,127.0,127.0,126.0,126.0,128.0,34.0,-100.0,-68.0,127.0,127.0,127.0,111.0,89.0,-115.0
124.0,125.0,127.0,127.0,126.0,126.0,126.0,128.0,34.0,-100.0,-68.0,127.0,127.0,127.0,111.0,89.0,-115.0
124.0,125.0,127.0,127.0,127.0,126.0,126.0,128.0,34.0,-100.0,-68.0,127.0,127.0,127.0,111.0,89.0,-115.0
124.0,125.0,127.0,127.0,126.0,128.0,126.0,128.0,34.0,-100.0,-68.0,127.0,127.0,127.0,111.0,89.0,-115.0
124.0,125.0,127.0,127.0,126.0,127.0,126.0,128.0,34.0,-100.0,-68.0,127.0,127.0,127.0,111.0,89.0,-115.0
124.0,125.0,127.0,127.0,127.0,127.0,126.0,128.0,34.0,-100.0,-68.0,127.0,127.0,127.0,111.0,89.0,-115.0
124.0,125.0,127.0,127.0,127.0,127.0,126.0,128.0,34.0,-100.0,-68.0,127.0,127.0,127.0,111.0,89.0,-115.0
124.0,125.0,127.0,127.0,127.0,127.0,126.0,128.0,34.0,-100.0,-68.0,127.0,127.0,127.0,111.0,89.0,-115.0
124.0,125.0,127.0,127.0,127.0,127.0,126.0,128.0,34.0,-100.0,-68.0,127.0,127.0,127.0,111.0,89.0,-115.0
124.0,125.0,127.0,127.0,127.0,126.0,126.0,128.0,34.0,-100.0,-68.0,127.0,127.0,127.0,111.0,89.0,-115.0
124.0,125.0,127.0,127.0,127.0,127.0,126.0,128.0,34.0,-100.0,-68.0,127.0,127.0,127.0,111.0,89.0,-115.0
124.0,125.0,127.0,127.0,127.0,127.0,126.0,128.0,34.0,-100.0,-68.0,127.0,127.0,127.0,111.0,89.0,-115.0
124.0,125.0,127.0,127.0,127.0,128.0,125.0,128.0,34.0,-100.0,-68.0,127.0,127.0,127.0,111.0,89.0,-115.0
124.0,125.0,127.0,127.0,127.0,128.0,126.0,128.0,34.0,-100.0,-68.0,127.0,127.0,127.0,111.0,89.0,-115.0
124.0,125.0,127.0,127.0,127.0,128.0,126.0,128.0,34.0,-100.0,-68.0,127.0,127.0,127.0,111.0,89.0,-115.0
124.0,125.0,127.0,127.0,127.0,128.0,126.0,128.0,34.0,-100.0,-68.0,127.0,127.0,127.0,111.0,89.0,-115.0
124.0,125.0,127.0,127.0,127.0,128.0,126.0,128.0,34.0,-100.0,-68.0,127.0,127.0,127.0,111.0,89.0,-115.0
124.0,125.0,127.0,127.0,127.0,128.0,126.0,128.0,34.0,-100.0,-68.0,127.0,127.0,127.0,111.0,89.0,-115.0
124.0,125.0,127.0,127.0,127.0,128.0,126.0,128.0,34.0,-100.0,-68.0,127.0,127.0,127.0,111.0,89.0,-115.0
124.0,125.0,127.0,127.0,127.0,127.0,126.0,128.0,34.0,-100.0,-68.0,127.0,127.0,127.0,111.0,89.0,-115.0
124.0,125.0,127.0,127.0,127.0,128.0,126.0,128.0,34.0,-100.0,-68.0,127.0,127.0,127.0,111.0,89.0,-115.0
124.0,125.0,127.0,127.0,127.0,130.0,126.0,127.0,34.0,-100.0,-68.0,127.0,127.0,127.0,111.0,89.0,-115.0
124.0,125.0,127.0,127.0,127.0,130.0,126.0,127.0,34.0,-100.0,-68.0,127.0,127.0,127.0,111.0,89.0,-115.0
124.0,125.0,127.0,127.0,127.0,130.0,126.0,127.0,34.0,-100.0,-68.0,127.0,127.0,127.0,111.0,89.0,-115.0
124.0,125.0,127.0,127.0,127.0,129.0,126.0,127.0,34.0,-100.0,-68.0,127.0,127.0,127.0,111.0,89.0,-115.0
124.0,125.0,127.0,127.0,127.0,129.0,126.0,127.0,34.0,-100.0,-68.0,127.0,127.0,127.0,111.0,89.0,-115.0
124.0,125.0,127.0,127.0,127.0,129.0,126.0,127.0,34.0,-100.0,-68.0,127.0,127.0,127.0,111.0,89.0,-115.0
124.0,125.0,127.0,127.0,127.0,129.0,126.0,128.0,34.0,-100.0,-68.0,127.0,127.0,127.0,111.0,89.0,-115.0
124.0,125.0,127.0,127.0,127.0,129.0,126.0,127.0,34.0,-100.0,-68.0,127.0,127.0,127.0,111.0,89.0,-115.0
124.0,125.0,127.0,127.0,127.0,128.0,126.0,127.0,34.0,-100.0,-68.0,127.0,127.0,127.0,111.0,89.0,-115.0
124.0,125.0,127.0,127.0,127.0,130.0,125.0,127.0,34.0,-100.0,-68.0,127.0,127.0,127.0,111.0,89.0,-115.0
124.0,125.0,127.0,127.0,127.0,130.0,126.0,127.0,34.0,-100.0,-68.0,127.0,127.0,127.0,111.0,89.0,-115.0
124.0,125.0,127.0,127.0,127.0,130.0,126.0,127.0,34.0,-100.0,-68.0,127.0,127.0,127.0,111.0,89.0,-115.0
124.0,125.0,127.0,127.0,127.0,129.0,126.0,127.0,34.0,-100.0,-68.0,127.0,127.0,127.0,111.0,89.0,-115.0
124.0,125.0,127.0,127.0,127.0,129.0,126.0,127.0,34.0,-100.0,-68.0,127.0,127.0,127.0,111.0,89.0,-115.0
124.0,125.0,127.0,127.0,127.0,129.0,126.0,127.0,34.0,-100.0,-68.0,127.0,127.0,127.0,111.0,89.0,-115.0
124.0,125.0,127.0,127.0,127.0,129.0,126.0,127.0,34.0,-100.0,-68.0,127.0,127.0,127.0,111.0,89.0,-115.0
124.0,125.0,127.0,127.0,127.0,128.0,126.0,127.0,34.0,-100.0,-68.0,127.0,127.0,127.0,111.0,89.0,-115.0
124.0,125.0,127.0,127.0,127.0,128.0,126.0,127.0,34.0,-100.0,-68.0,127.0,127.0,127.0,111.0,89.0,-115.0
124.0,125.0,127.0,127.0,127.0,128.0,126.0,127.0,34.0,-100.0,-68.0,127.0,127.0,127.0,111.0,89.0,-115.0
124.0,125.0,126.0,127.0,127.0,130.0,126.0,127.0,34.0,-100.0,-68.0,127.0,127.0,127.0,111.0,89.0,-115.0
124.0,125.0,126.0,127.0,127.0,129.0,126.0,127.0,34.0,-100.0,-68.0,127.0,127.0,127.0,111.0,89.0,-115.0
124.0,125.0,126.0,127.0,127.0,129.0,126.0,127.0,34.0,-100.0,-68.0,127.0,127.0,127.0,111.0,89.0,-115.0
124.0,125.0,126.0,127.0,127.0,129.0,126.0,127.0,34.0,-100.0,-68.0,127.0,127.0,127.0,111.0,89.0,-115.0
124.0,125.0,126.0,127.0,127.0,129.0,126.0,127.0,34.0,-100.0,-68.0,127.0,127.0,127.0,111.0,89.0,-115.0
124.0,125.0,126.0,127.0,127.0,128.0,126.0,127.0,34.0,-100.0,-68.0,127.0,127.0,127.0,111.0,89.0,-115.0
124.0,125.0,126.0,127.0,127.0,128.0,126.0,127.0,34.0,-100.0,-68.0,127.0,127.0,127.0,111.0,89.0,-115.0
124.0,125.0,126.0,127.0,127.0,128.0,126.0,127.0,34.0,-100.0,-68.0,127.0,127.0,127.0,111.0,89.0,-115.0
124.0,125.0,126.0,127.0,127.0,128.0,126.0,127.0,34.0,-100.0,-68.0,127.0,127.0,127.0,111.0,89.0,-115.0
124.0,125.0,126.0,127.0,127.0,129.0,126.0,127.0,34.0,-100.0,-68.0,127.0,127.0,127.0,111.0,89.0,-115.0
124.0,125.0,126.0,127.0,127.0,129.0,126.0,127.0,34.0,-100.0,-68.0,127.0,127.0,127.0,111.0,89.0,-115.0
124.0,125.0,126.0,127.0,127.0,129.0,126.0,127.0,34.0,-100.0,-68.0,127.0,127.0,127.0,111.0,89.0,-115.0
124.0,125.0,126.0,127.0,127.0,129.0,126.0,127.0,34.0,-100.0,-68.0,127.0,127.0,127.0,111.0,89.0,-115.0
124.0,125.0,126.0,127.0,127.0,129.0,126.0,127.0,34.0,-100.0,-68.0,127.0,127.0,127.0,111.0,89.0,-115.0
124.0,125.0,126.0,127.0,127.0,128.0,126.0,127.0,34.0,-100.0,-68.0,127.0,127.0,127.0,111.0,89.0,-115.0
124.0,125.0,126.0,127.0,127.0,128.0,127.0,127.0,34.0,-100.0,-68.0,127.0,127.0,127.0,111.0,89.0,-115.0
124.0,125.0,126.0,127.0,127.0,128.0,127.0,127.0,34.0,-100.0,-68.0,127.0,127.0,127.0,111.0,89.0,-115.0
124.0,124.0,126.0,127.0,127.0,128.0,127.0,127.0,34.0,-100.0,-68.0,127.0,127.0,127.0,111.0,89.0,-115.0
124.0,125.0,126.0,127.0,127.0,129.0,126.0,127.0,34.0,-100.0,-68.0,127.0,127.0,127.0,111.0,89.0,-115.0
124.0,125.0,126.0,127.0,127.0,129.0,126.0,127.0,34.0,-100.0,-68.0,127.0,127.0,127.0,111.0,89.0,-115.0
124.0,125.0,127.0,127.0,126.0,129.0,126.0,127.0,34.0,-100.0,-68.0,127.0,127.0,127.0,111.0,89.0,-115.0
124.0,126.0,126.0,127.0,127.0,130.0,126.0,127.0,34.0,-100.0,-68.0,127.0,127.0,127.0,111.0,89.0,-115.0
124.0,126.0,126.0,127.0,127.0,130.0,126.0,128.0,34.0,-100.0,-68.0,127.0,127.0,127.0,111.0,89.0,-115.0
124.0,126.0,126.0,127.0,127.0,129.0,126.0,128.0,34.0,-100.0,-68.0,127.0,127.0,127.0,111.0,89.0,-115.0
124.0,126.0,126.0,127.0,127.0,129.0,126.0,128.0,34.0,-100.0,-68.0,127.0,127.0,127.0,111.0,89.0,-115.0
124.0,125.0,126.0,127.0,127.0,129.0,126.0,128.0,34.0,-100.0,-68.0,127.0,127.0,127.0,111.0,89.0,-115.0
124.0,125.0,126.0,127.0,127.0,128.0,126.0,127.0,34.0,-100.0,-68.0,127.0,127.0,127.0,111.0,89.0,-115.0
124.0,125.0,127.0,127.0,126.0,128.0,126.0,127.0,34.0,-100.0,-68.0,127.0,127.0,127.0,111.0,89.0,-115.0
124.0,125.0,127.0,127.0,127.0,129.0,126.0,128.0,34.0,-100.0,-68.0,127.0,127.0,127.0,111.0,89.0,-115.0
124.0,125.0,127.0,127.0,127.0,129.0,126.0,128.0,34.0,-100.0,-68.0,127.0,127.0,127.0,111.0,89.0,-115.0
124.0,124.0,127.0,127.0,127.0,125.0,126.0,127.0,34.0,-100.0,-68.0,127.0,127.0,127.0,111.0,89.0,-115.0
124.0,124.0,127.0,127.0,127.0,125.0,126.0,127.0,34.0,-100.0,-68.0,127.0,127.0,127.0,111.0,89.0,-115.0
124.0,124.0,127.0,127.0,127.0,125.0,126.0,127.0,34.0,-100.0,-68.0,127.0,127.0,127.0,111.0,89.0,-115.0
124.0,124.0,127.0,127.0,127.0,125.0,127.0,127.0,34.0,-100.0,-68.0,127.0,127.0,127.0,111.0,89.0,-115.0
124.0,124.0,127.0,127.0,127.0,125.0,126.0,128.0,34.0,-100.0,-68.0,127.0,127.0,127.0,111.0,89.0,-115.0
124.0,124.0,127.0,127.0,127.0,126.0,126.0,127.0,34.0,-100.0,-68.0,127.0,127.0,127.0,111.0,89.0,-115.0
124.0,124.0,127.0,127.0,127.0,126.0,126.0,127.0,34.0,-100.0,-68.0,127.0,127.0,127.0,111.0,89.0,-115.0
124.0,124.0,127.0,127.0,127.0,125.0,126.0,127.0,34.0,-100.0,-68.0,127.0,127.0,127.0,111.0,89.0,-115.0
124.0,124.0,127.0,127.0,127.0,126.0,126.0,127.0,34.0,-100.0,-68.0,127.0,127.0,127.0,111.0,89.0,-115.0
124.0,124.0,127.0,127.0,127.0,125.0,126.0,128.0,34.0,-100.0,-68.0,127.0,127.0,127.0,111.0,89.0,-115.0
124.0,124.0,127.0,126.0,126.0,125.0,127.0,127.0,33.0,-100.0,-68.0,127.0,127.0,127.0,111.0,89.0,-115.0
124.0,124.0,127.0,126.0,126.0,125.0,127.0,127.0,33.0,-100.0,-68.0,127.0,127.0,127.0,111.0,89.0,-115.0
124.0,124.0,127.0,126.0,126.0,125.0,127.0,127.0,33.0,-100.0,-68.0,127.0,127.0,127.0,111.0,89.0,-115.0
124.0,124.0,127.0,126.0,126.0,125.0,127.0,127.0,33.0,-100.0,-68.0,127.0,127.0,127.0,111.0,89.0,-115.0
124.0,124.0,127.0,127.0,127.0,126.0,127.0,128.0,33.0,-100.0,-68.0,127.0,127.0,127.0,111.0,89.0,-115.0
124.0,124.0,127.0,127.0,126.0,126.0,127.0,128.0,33.0,-100.0,-68.0,127.0,127.0,127.0,111.0,89.0,-115.0
124.0,124.0,127.0,127.0,126.0,126.0,127.0,127.0,33.0,-100.0,-68.0,127.0,127.0,127.0,111.0,89.0,-115.0
124.0,124.0,127.0,127.0,126.0,126.0,127.0,127.0,33.0,-100.0,-68.0,127.0,127.0,127.0,111.0,89.0,-115.0
124.0,124.0,127.0,127.0,126.0,126.0,127.0,127.0,33.0,-100.0,-68.0,127.0,127.0,127.0,111.0,89.0,-115.0
124.0,124.0,127.0,127.0,126.0,125.0,127.0,127.0,33.0,-100.0,-68.0,127.0,127.0,127.0,111.0,89.0,-115.0
124.0,125.0,126.0,128.0,127.0,126.0,127.0,127.0,33.0,-100.0,-67.0,127.0,127.0,127.0,111.0,89.0,-115.0
124.0,125.0,126.0,128.0,127.0,125.0,127.0,127.0,33.0,-100.0,-67.0,127.0,127.0,127.0,111.0,89.0,-115.0
124.0,125.0,127.0,128.0,127.0,125.0,127.0,127.0,33.0,-100.0,-67.0,127.0,127.0,127.0,111.0,89.0,-115.0
124.0,125.0,126.0,127.0,127.0,128.0,126.0,127.0,33.0,-100.0,-67.0,127.0,127.0,127.0,111.0,89.0,-115.0
124.0,125.0,126.0,127.0,127.0,127.0,127.0,127.0,33.0,-100.0,-67.0,127.0,127.0,127.0,111.0,89.0,-115.0
124.0,125.0,126.0,127.0,127.0,127.0,127.0,127.0,33.0,-100.0,-67.0,127.0,127.0,127.0,111.0,89.0,-115.0
124.0,125.0,126.0,127.0,127.0,127.0,127.0,127.0,33.0,-100.0,-67.0,127.0,127.0,127.0,111.0,89.0,-115.0
124.0,125.0,126.0,127.0,127.0,127.0,127.0,127.0,33.0,-100.0,-67.0,127.0,127.0,127.0,111.0,89.0,-115.0
124.0,125.0,126.0,127.0,127.0,126.0,127.0,127.0,33.0,-100.0,-67.0,127.0,127.0,127.0,111.0,89.0,-115.0
124.0,125.0,126.0,127.0,127.0,126.0,127.0,127.0,33.0,-100.0,-67.0,127.0,127.0,127.0,111.0,89.0,-115.0
124.0,126.0,126.0,127.0,127.0,127.0,127.0,127.0,33.0,-100.0,-67.0,127.0,127.0,127.0,111.0,89.0,-115.0
124.0,126.0,125.0,127.0,127.0,127.0,127.0,127.0,33.0,-100.0,-67.0,127.0,127.0,127.0,111.0,89.0,-115.0
124.0,126.0,126.0,127.0,127.0,128.0,126.0,128.0,33.0,-100.0,-67.0,127.0,127.0,127.0,111.0,89.0,-115.0
124.0,126.0,126.0,127.0,127.0,128.0,126.0,128.0,33.0,-100.0,-67.0,127.0,127.0,127.0,111.0,89.0,-115.0
124.0,126.0,125.0,127.0,127.0,129.0,126.0,129.0,33.0,-100.0,-67.0,127.0,127.0,127.0,111.0,89.0,-115.0
125.0,126.0,125.0,127.0,127.0,129.0,126.0,129.0,33.0,-100.0,-67.0,127.0,127.0,127.0,111.0,89.0,-115.0
124.0,126.0,125.0,127.0,127.0,128.0,127.0,129.0,33.0,-100.0,-67.0,127.0,127.0,127.0,111.0,89.0,-115.0
124.0,126.0,126.0,127.0,127.0,128.0,127.0,129.0,33.0,-100.0,-67.0,127.0,127.0,127.0,111.0,89.0,-115.0
124.0,126.0,126.0,127.0,127.0,128.0,127.0,129.0,33.0,-100.0,-67.0,127.0,127.0,127.0,111.0,89.0,-115.0
124.0,126.0,126.0,127.0,127.0,127.0,127.0,128.0,33.0,-100.0,-67.0,127.0,127.0,127.0,111.0,89.0,-115.0
125.0,126.0,126.0,127.0,127.0,128.0,127.0,128.0,33.0,-100.0,-67.0,127.0,127.0,127.0,111.0,89.0,-115.0
125.0,126.0,126.0,127.0,127.0,128.0,126.0,128.0,33.0,-100.0,-67.0,127.0,127.0,127.0,111.0,89.0,-115.0
125.0,125.0,126.0,127.0,127.0,128.0,126.0,127.0,33.0,-100.0,-67.0,127.0,127.0,127.0,111.0,89.0,-115.0
125.0,125.0,126.0,127.0,127.0,128.0,126.0,128.0,33.0,-100.0,-67.0,127.0,127.0,127.0,111.0,89.0,-115.0
125.0,125.0,126.0,127.0,127.0,127.0,126.0,127.0,33.0,-100.0,-67.0,127.0,127.0,127.0,111.0,89.0,-115.0
125.0,125.0,126.0,127.0,127.0,127.0,127.0,127.0,33.0,-100.0,-67.0,127.0,127.0,127.0,111.0,89.0,-115.0
125.0,126.0,126.0,127.0,127.0,128.0,126.0,127.0,33.0,-100.0,-67.0,127.0,127.0,127.0,111.0,89.0,-115.0
125.0,126.0,126.0,127.0,127.0,129.0,126.0,128.0,33.0,-100.0,-67.0,127.0,127.0,127.0,111.0,89.0,-115.0
125.0,126.0,126.0,127.0,127.0,128.0,126.0,128.0,33.0,-100.0,-67.0,127.0,127.0,127.0,111.0,89.0,-115.0
125.0,126.0,126.0,127.0,127.0,128.0,127.0,128.0,33.0,-100.0,-67.0,127.0,127.0,127.0,111.0,89.0,-115.0
124.0,125.0,126.0,127.0,127.0,129.0,126.0,127.0,33.0,-99.0,-67.0,127.0,127.0,127.0,111.0,89.0,-115.0
124.0,125.0,126.0,127.0,127.0,129.0,126.0,127.0,33.0,-99.0,-67.0,127.0,127.0,127.0,111.0,89.0,-115.0
124.0,125.0,126.0,127.0,127.0,128.0,126.0,127.0,33.0,-99.0,-67.0,127.0,127.0,127.0,111.0,89.0,-115.0
124.0,125.0,126.0,127.0,127.0,128.0,126.0,127.0,33.0,-99.0,-67.0,127.0,127.0,127.0,111.0,89.0,-115.0
124.0,125.0,126.0,127.0,127.0,128.0,126.0,127.0,33.0,-99.0,-67.0,127.0,127.0,127.0,111.0,89.0,-115.0
124.0,126.0,126.0,127.0,127.0,128.0,126.0,127.0,33.0,-99.0,-67.0,127.0,127.0,127.0,111.0,89.0,-115.0
124.0,126.0,126.0,127.0,127.0,129.0,126.0,127.0,33.0,-99.0,-67.0,127.0,127.0,127.0,111.0,89.0,-115.0
124.0,126.0,126.0,127.0,127.0,129.0,126.0,127.0,33.0,-99.0,-67.0,127.0,127.0,127.0,111.0,89.0,-115.0
124.0,126.0,126.0,127.0,127.0,129.0,127.0,127.0,33.0,-99.0,-67.0,127.0,127.0,127.0,111.0,89.0,-115.0
124.0,126.0,126.0,127.0,127.0,129.0,127.0,127.0,33.0,-99.0,-67.0,127.0,127.0,127.0,111.0,89.0,-115.0
124.0,125.0,128.0,127.0,127.0,128.0,127.0,128.0,33.0,-99.0,-67.0,127.0,127.0,127.0,111.0,89.0,-115.0
124.0,125.0,128.0,127.0,127.0,128.0,127.0,128.0,33.0,-99.0,-67.0,127.0,127.0,127.0,111.0,89.0,-115.0
124.0,125.0,128.0,127.0,127.0,128.0,127.0,128.0,33.0,-99.0,-67.0,127.0,127.0,127.0,111.0,89.0,-115.0
124.0,125.0,128.0,127.0,127.0,127.0,127.0,128.0,33.0,-99.0,-67.0,127.0,127.0,127.0,111.0,89.0,-115.0
124.0,125.0,128.0,127.0,127.0,128.0,127.0,128.0,33.0,-99.0,-67.0,127.0,127.0,127.0,111.0,89.0,-115.0
124.0,126.0,127.0,127.0,127.0,128.0,127.0,128.0,33.0,-99.0,-67.0,127.0,127.0,127.0,111.0,89.0,-115.0
124.0,126.0,127.0,127.0,127.0,128.0,127.0,128.0,33.0,-99.0,-67.0,127.0,127.0,127.0,111.0,89.0,-115.0
124.0,126.0,127.0,127.0,127.0,128.0,127.0,128.0,33.0,-99.0,-67.0,127.0,127.0,127.0,111.0,89.0,-115.0
124.0,126.0,127.0,127.0,127.0,128.0,127.0,128.0,33.0,-99.0,-67.0,127.0,127.0,127.0,111.0,89.0,-115.0
124.0,126.0,128.0,127.0,127.0,129.0,127.0,128.0,33.0,-99.0,-67.0,127.0,127.0,127.0,111.0,89.0,-115.0
124.0,125.0,127.0,127.0,127.0,124.0,127.0,128.0,33.0,-99.0,-67.0,127.0,127.0,127.0,111.0,89.0,-115.0
124.0,125.0,127.0,127.0,127.0,124.0,127.0,128.0,33.0,-99.0,-67.0,127.0,127.0,127.0,111.0,89.0,-115.0
124.0,125.0,127.0,127.0,127.0,123.0,127.0,128.0,33.0,-99.0,-67.0,127.0,127.0,127.0,111.0,89.0,-115.0
124.0,125.0,127.0,127.0,127.0,123.0,127.0,128.0,33.0,-99.0,-67.0,127.0,127.0,127.0,111.0,89.0,-115.0
124.0,126.0,126.0,127.0,127.0,124.0,127.0,128.0,33.0,-99.0,-67.0,127.0,127.0,127.0,111.0,89.0,-115.0
124.0,126.0,126.0,127.0,127.0,124.0,127.0,128.0,33.0,-99.0,-67.0,127.0,127.0,127.0,111.0,89.0,-115.0
125.0,126.0,126.0,127.0,127.0,124.0,127.0,128.0,33.0,-99.0,-67.0,127.0,127.0,127.0,111.0,89.0,-115.0
125.0,126.0,126.0,127.0,127.0,124.0,127.0,128.0,33.0,-99.0,-67.0,127.0,127.0,127.0,111.0,89.0,-115.0
124.0,126.0,127.0,127.0,127.0,125.0,127.0,128.0,33.0,-99.0,-67.0,127.0,127.0,127.0,111.0,89.0,-115.0
124.0,125.0,127.0,127.0,127.0,124.0,127.0,128.0,33.0,-99.0,-67.0,127.0,127.0,127.0,111.0,89.0,-115.0
125.0,124.0,126.0,127.0,127.0,122.0,127.0,128.0,33.0,-99.0,-67.0,127.0,127.0,127.0,111.0,89.0,-115.0
125.0,124.0,126.0,127.0,127.0,122.0,127.0,128.0,33.0,-99.0,-67.0,127.0,127.0,127.0,111.0,89.0,-115.0
125.0,124.0,126.0,127.0,127.0,122.0,127.0,128.0,33.0,-99.0,-67.0,127.0,127.0,127.0,111.0,89.0,-115.0
125.0,124.0,126.0,127.0,127.0,122.0,127.0,128.0,33.0,-99.0,-67.0,127.0,127.0,127.0,111.0,89.0,-115.0
125.0,124.0,126.0,127.0,127.0,122.0,127.0,128.0,33.0,-99.0,-67.0,127.0,127.0,127.0,111.0,89.0,-115.0
125.0,124.0,126.0,127.0,127.0,122.0,127.0,128.0,33.0,-99.0,-67.0,127.0,127.0,127.0,111.0,89.0,-115.0
125.0,125.0,125.0,127.0,127.0,123.0,126.0,128.0,33.0,-99.0,-67.0,127.0,127.0,127.0,111.0,89.0,-115.0
125.0,124.0,126.0,127.0,127.0,122.0,127.0,128.0,33.0,-99.0,-67.0,127.0,127.0,127.0,111.0,89.0,-115.0
125.0,124.0,126.0,127.0,127.0,122.0,127.0,128.0,33.0,-99.0,-67.0,127.0,127.0,127.0,111.0,89.0,-115.0
125.0,124.0,126.0,127.0,127.0,122.0,127.0,128.0,33.0,-99.0,-67.0,127.0,127.0,127.0,111.0,89.0,-115.0
125.0,125.0,125.0,127.0,127.0,126.0,126.0,128.0,33.0,-99.0,-67.0,127.0,127.0,127.0,111.0,89.0,-115.0
125.0,125.0,125.0,127.0,126.0,126.0,126.0,128.0,33.0,-99.0,-67.0,127.0,127.0,127.0,111.0,89.0,-115.0
125.0,125.0,125.0,127.0,126.0,126.0,127.0,128.0,33.0,-99.0,-67.0,127.0,127.0,127.0,111.0,89.0,-115.0
125.0,125.0,125.0,127.0,126.0,126.0,126.0,128.0,33.0,-99.0,-67.0,127.0,127.0,127.0,111.0,89.0,-115.0
125.0,125.0,125.0,127.0,126.0,126.0,127.0,128.0,33.0,-99.0,-67.0,127.0,127.0,127.0,111.0,89.0,-115.0
125.0,125.0,125.0,127.0,127.0,125.0,127.0,128.0,33.0,-99.0,-67.0,127.0,127.0,127.0,111.0,89.0,-115.0
124.0,124.0,126.0,127.0,126.0,125.0,127.0,128.0,33.0,-99.0,-67.0,127.0,127.0,127.0,111.0,89.0,-115.0
124.0,124.0,126.0,127.0,126.0,125.0,127.0,128.0,33.0,-99.0,-67.0,127.0,127.0,127.0,111.0,89.0,-115.0
124.0,124.0,126.0,127.0,126.0,125.0,127.0,128.0,33.0,-99.0,-67.0,127.0,127.0,127.0,111.0,89.0,-115.0
124.0,125.0,125.0,127.0,126.0,126.0,126.0,128.0,33.0,-99.0,-67.0,127.0,127.0,127.0,111.0,89.0,-115.0
124.0,126.0,126.0,127.0,127.0,127.0,126.0,128.0,34.0,-99.0,-67.0,127.0,127.0,127.0,111.0,89.0,-115.0
124.0,125.0,126.0,127.0,127.0,127.0,126.0,128.0,34.0,-99.0,-67.0,127.0,127.0,127.0,111.0,89.0,-115.0
124.0,125.0,126.0,127.0,127.0,127.0,126.0,128.0,34.0,-99.0,-67.0,127.0,127.0,127.0,111.0,89.0,-115.0
124.0,125.0,126.0,127.0,127.0,127.0,126.0,128.0,34.0,-99.0,-67.0,127.0,127.0,127.0,111.0,89.0,-115.0
124.0,125.0,126.0,127.0,127.0,127.0,126.0,128.0,34.0,-99.0,-67.0,127.0,127.0,127.0,111.0,89.0,-115.0
124.0,125.0,126.0,127.0,127.0,127.0,126.0,127.0,34.0,-99.0,-67.0,127.0,127.0,127.0,111.0,89.0,-115.0
124.0,125.0,126.0,127.0,127.0,127.0,126.0,128.0,34.0,-99.0,-67.0,127.0,127.0,127.0,111.0,89.0,-115.0
124.0,125.0,126.0,127.0,127.0,126.0,126.0,127.0,34.0,-99.0,-67.0,127.0,127.0,127.0,111.0,89.0,-115.0
124.0,125.0,126.0,127.0,127.0,127.0,126.0,127.0,34.0,-99.0,-67.0,127.0,127.0,127.0,111.0,89.0,-115.0
124.0,126.0,126.0,127.0,127.0,128.0,126.0,128.0,34.0,-99.0,-67.0,127.0,127.0,127.0,111.0,89.0,-115.0
124.0,126.0,127.0,127.0,127.0,127.0,126.0,128.0,34.0,-99.0,-67.0,127.0,127.0,127.0,111.0,89.0,-115.0
124.0,126.0,127.0,127.0,127.0,128.0,126.0,128.0,34.0,-99.0,-67.0,127.0,127.0,127.0,111.0,89.0,-115.0
124.0,126.0,127.0,127.0,127.0,128.0,126.0,128.0,34.0,-99.0,-67.0,127.0,127.0,127.0,111.0,89.0,-115.0
124.0,126.0,127.0,127.0,127.0,127.0,126.0,128.0,34.0,-99.0,-67.0,127.0,127.0,127.0,111.0,89.0,-115.0
124.0,125.0,128.0,127.0,127.0,126.0,127.0,128.0,34.0,-99.0,-67.0,127.0,127.0,127.0,111.0,89.0,-115.0
124.0,125.0,128.0,127.0,127.0,126.0,127.0,128.0,34.0,-99.0,-67.0,127.0,127.0,127.0,111.0,89.0,-115.0
124.0,125.0,128.0,127.0,127.0,126.0,127.0,128.0,34.0,-99.0,-67.0,127.0,127.0,127.0,111.0,89.0,-115.0
124.0,125.0,128.0,127.0,127.0,127.0,126.0,128.0,34.0,-99.0,-67.0,127.0,127.0,127.0,111.0,89.0,-115.0
124.0,126.0,127.0,127.0,127.0,127.0,126.0,128.0,34.0,-99.0,-67.0,127.0,127.0,127.0,111.0,89.0,-115.0
124.0,126.0,127.0,127.0,127.0,127.0,127.0,128.0,34.0,-99.0,-67.0,127.0,127.0,127.0,111.0,89.0,-115.0
124.0,125.0,128.0,127.0,127.0,124.0,127.0,128.0,34.0,-99.0,-67.0,127.0,127.0,127.0,111.0,89.0,-115.0
124.0,125.0,128.0,127.0,127.0,124.0,127.0,128.0,34.0,-99.0,-67.0,127.0,127.0,127.0,111.0,89.0,-115.0
124.0,125.0,128.0,127.0,127.0,123.0,127.0,128.0,34.0,-99.0,-67.0,127.0,127.0,127.0,111.0,89.0,-115.0
124.0,125.0,128.0,127.0,127.0,125.0,126.0,128.0,34.0,-99.0,-67.0,127.0,127.0,127.0,111.0,89.0,-115.0
124.0,125.0,128.0,127.0,127.0,125.0,127.0,128.0,34.0,-99.0,-67.0,127.0,127.0,127.0,111.0,89.0,-115.0
124.0,125.0,128.0,127.0,127.0,125.0,127.0,128.0,34.0,-99.0,-67.0,127.0,127.0,127.0,111.0,89.0,-115.0
124.0,125.0,128.0,127.0,127.0,125.0,127.0,128.0,34.0,-99.0,-67.0,127.0,127.0,127.0,111.0,89.0,-115.0
124.0,125.0,128.0,127.0,127.0,125.0,127.0,128.0,34.0,-99.0,-67.0,127.0,127.0,127.0,111.0,89.0,-115.0
124.0,125.0,128.0,127.0,127.0,125.0,127.0,128.0,34.0,-99.0,-67.0,127.0,127.0,127.0,111.0,89.0,-115.0
124.0,125.0,128.0,127.0,127.0,124.0,127.0,128.0,34.0,-99.0,-67.0,127.0,127.0,127.0,111.0,89.0,-115.0
124.0,126.0,126.0,127.0,127.0,124.0,127.0,128.0,34.0,-99.0,-67.0,127.0,127.0,127.0,111.0,89.0,-115.0
124.0,126.0,126.0,127.0,127.0,124.0,127.0,128.0,34.0,-99.0,-67.0,127.0,127.0,127.0,111.0,89.0,-115.0
124.0,126.0,126.0,127.0,127.0,125.0,126.0,128.0,34.0,-99.0,-67.0,127.0,127.0,127.0,111.0,89.0,-115.0
124.0,126.0,126.0,127.0,127.0,126.0,126.0,128.0,34.0,-99.0,-67.0,127.0,127.0,127.0,111.0,89.0,-115.0
124.0,126.0,125.0,127.0,127.0,126.0,126.0,128.0,34.0,-99.0,-67.0,127.0,127.0,127.0,111.0,89.0,-115.0
124.0,126.0,126.0,127.0,127.0,125.0,127.0,128.0,34.0,-99.0,-67.0,127.0,127.0,127.0,111.0,89.0,-115.0
124.0,126.0,126.0,127.0,127.0,125.0,127.0,128.0,34.0,-99.0,-67.0,127.0,127.0,127.0,111.0,89.0,-115.0
124.0,126.0,126.0,127.0,127.0,125.0,127.0,128.0,34.0,-99.0,-67.0,127.0,127.0,127.0,111.0,89.0,-115.0
124.0,126.0,126.0,127.0,127.0,125.0,127.0,128.0,34.0,-99.0,-67.0,127.0,127.0,127.0,111.0,89.0,-115.0
124.0,126.0,126.0,127.0,127.0,124.0,127.0,128.0,34.0,-99.0,-67.0,127.0,127.0,127.0,111.0,89.0,-115.0
124.0,125.0,126.0,127.0,126.0,125.0,127.0,128.0,34.0,-99.0,-67.0,127.0,127.0,127.0,111.0,89.0,-115.0
124.0,126.0,126.0,127.0,127.0,126.0,126.0,128.0,34.0,-99.0,-67.0,127.0,127.0,127.0,111.0,89.0,-115.0
124.0,126.0,126.0,127.0,127.0,127.0,126.0,128.0,34.0,-99.0,-67.0,127.0,127.0,127.0,111.0,89.0,-115.0
124.0,126.0,126.0,127.0,127.0,126.0,126.0,128.0,34.0,-99.0,-67.0,127.0,127.0,127.0,111.0,89.0,-115.0
124.0,126.0,126.0,127.0,127.0,126.0,126.0,128.0,34.0,-99.0,-67.0,127.0,127.0,127.0,111.0,89.0,-115.0
124.0,126.0,126.0,127.0,127.0,126.0,126.0,128.0,34.0,-99.0,-67.0,127.0,127.0,127.0,111.0,89.0,-115.0
124.0,126.0,126.0,127.0,127.0,126.0,127.0,128.0,34.0,-99.0,-67.0,127.0,127.0,127.0,111.0,89.0,-115.0
124.0,126.0,126.0,127.0,127.0,126.0,127.0,128.0,34.0,-99.0,-67.0,127.0,127.0,127.0,111.0,89.0,-115.0
124.0,126.0,126.0,127.0,127.0,125.0,127.0,128.0,34.0,-99.0,-67.0,127.0,127.0,127.0,111.0,89.0,-115.0
124.0,126.0,126.0,127.0,127.0,125.0,127.0,128.0,34.0,-99.0,-67.0,127.0,127.0,127.0,111.0,89.0,-115.0
124.0,125.0,126.0,127.0,126.0,127.0,126.0,128.0,34.0,-99.0,-67.0,127.0,127.0,127.0,111.0,89.0,-115.0
124.0,126.0,126.0,127.0,127.0,128.0,126.0,128.0,34.0,-99.0,-67.0,127.0,127.0,127.0,111.0,89.0,-115.0
124.0,126.0,126.0,127.0,126.0,128.0,126.0,128.0,34.0,-99.0,-67.0,127.0,127.0,127.0,111.0,89.0,-115.0
124.0,126.0,126.0,127.0,126.0,127.0,126.0,128.0,34.0,-99.0,-67.0,127.0,127.0,127.0,111.0,89.0,-115.0
124.0,126.0,126.0,127.0,126.0,127.0,126.0,128.0,34.0,-99.0,-67.0,127.0,127.0,127.0,111.0,89.0,-115.0
124.0,126.0,126.0,127.0,127.0,127.0,126.0,128.0,34.0,-99.0,-67.0,127.0,127.0,127.0,111.0,89.0,-115.0
124.0,126.0,126.0,127.0,127.0,127.0,126.0,128.0,34.0,-99.0,-67.0,127.0,127.0,127.0,111.0,89.0,-115.0
124.0,125.0,126.0,127.0,127.0,126.0,127.0,128.0,34.0,-99.0,-67.0,127.0,127.0,127.0,111.0,89.0,-115.0
124.0,125.0,126.0,127.0,127.0,126.0,127.0,128.0,34.0,-99.0,-67.0,127.0,127.0,127.0,111.0,89.0,-115.0
124.0,125.0,127.0,127.0,127.0,126.0,126.0,128.0,34.0,-99.0,-67.0,127.0,127.0,127.0,111.0,89.0,-115.0
124.0,124.0,130.0,127.0,126.0,125.0,127.0,127.0,33.0,-99.0,-67.0,127.0,127.0,127.0,111.0,89.0,-115.0
124.0,124.0,129.0,127.0,126.0,126.0,127.0,127.0,33.0,-99.0,-67.0,127.0,127.0,127.0,111.0,89.0,-115.0
124.0,124.0,129.0,127.0,126.0,126.0,126.0,127.0,33.0,-99.0,-67.0,127.0,127.0,127.0,111.0,89.0,-115.0
124.0,125.0,128.0,126.0,127.0,127.0,126.0,127.0,33.0,-99.0,-67.0,127.0,127.0,127.0,111.0,89.0,-115.0
124.0,125.0,128.0,126.0,127.0,127.0,126.0,128.0,33.0,-99.0,-67.0,127.0,127.0,127.0,111.0,89.0,-115.0
124.0,125.0,127.0,126.0,127.0,127.0,126.0,128.0,33.0,-99.0,-67.0,127.0,127.0,127.0,111.0,89.0,-115.0
124.0,125.0,126.0,126.0,127.0,127.0,126.0,128.0,33.0,-99.0,-67.0,127.0,127.0,127.0,111.0,89.0,-115.0
124.0,125.0,126.0,126.0,127.0,127.0,126.0,128.0,33.0,-99.0,-67.0,127.0,127.0,127.0,111.0,89.0,-115.0
124.0,124.0,129.0,127.0,126.0,126.0,127.0,128.0,33.0,-99.0,-67.0,127.0,127.0,127.0,111.0,89.0,-115.0
124.0,124.0,130.0,127.0,126.0,125.0,127.0,128.0,33.0,-99.0,-67.0,127.0,127.0,127.0,111.0,89.0,-115.0
124.0,125.0,109.0,126.0,127.0,128.0,126.0,128.0,33.0,-100.0,-67.0,127.0,127.0,127.0,111.0,89.0,-115.0
124.0,125.0,108.0,126.0,127.0,128.0,126.0,128.0,33.0,-100.0,-67.0,127.0,127.0,127.0,111.0,89.0,-115.0
124.0,125.0,108.0,126.0,127.0,128.0,126.0,128.0,33.0,-100.0,-67.0,127.0,127.0,127.0,111.0,89.0,-115.0
124.0,125.0,107.0,125.0,127.0,127.0,126.0,128.0,33.0,-100.0,-67.0,127.0,127.0,127.0,111.0,89.0,-115.0
124.0,124.0,106.0,126.0,126.0,127.0,126.0,128.0,33.0,-100.0,-67.0,127.0,127.0,127.0,111.0,89.0,-115.0
124.0,124.0,105.0,126.0,126.0,127.0,126.0,128.0,33.0,-100.0,-67.0,127.0,127.0,127.0,111.0,89.0,-115.0
124.0,124.0,105.0,126.0,126.0,127.0,126.0,128.0,33.0,-100.0,-67.0,127.0,127.0,127.0,111.0,89.0,-115.0
124.0,125.0,111.0,126.0,127.0,129.0,126.0,128.0,33.0,-100.0,-67.0,127.0,127.0,127.0,111.0,89.0,-115.0
124.0,125.0,110.0,126.0,127.0,129.0,126.0,128.0,33.0,-100.0,-67.0,127.0,127.0,127.0,111.0,89.0,-115.0
124.0,125.0,110.0,126.0,127.0,128.0,126.0,128.0,33.0,-100.0,-67.0,127.0,127.0,127.0,111.0,89.0,-115.0
124.0,126.0,29.0,126.0,127.0,129.0,126.0,128.0,33.0,-100.0,-67.0,127.0,127.0,127.0,111.0,89.0,-115.0
124.0,125.0,27.0,125.0,127.0,128.0,126.0,128.0,33.0,-100.0,-67.0,127.0,127.0,127.0,111.0,89.0,-115.0
124.0,125.0,26.0,125.0,127.0,128.0,126.0,128.0,33.0,-100.0,-67.0,127.0,127.0,127.0,111.0,89.0,-115.0
124.0,125.0,24.0,125.0,127.0,128.0,127.0,128.0,33.0,-100.0,-67.0,127.0,127.0,127.0,111.0,89.0,-115.0
124.0,125.0,23.0,125.0,127.0,127.0,127.0,128.0,33.0,-100.0,-67.0,127.0,127.0,127.0,111.0,89.0,-115.0
124.0,125.0,22.0,125.0,127.0,127.0,127.0,128.0,33.0,-100.0,-67.0,127.0,127.0,127.0,111.0,89.0,-115.0
124.0,125.0,37.0,127.0,127.0,129.0,126.0,128.0,33.0,-100.0,-67.0,127.0,127.0,127.0,111.0,89.0,-115.0
124.0,125.0,35.0,126.0,127.0,129.0,126.0,128.0,33.0,-100.0,-67.0,127.0,127.0,127.0,111.0,89.0,-115.0
124.0,126.0,32.0,126.0,127.0,130.0,126.0,128.0,33.0,-100.0,-67.0,127.0,127.0,127.0,111.0,89.0,-115.0
124.0,126.0,31.0,126.0,127.0,129.0,126.0,128.0,33.0,-100.0,-67.0,127.0,127.0,127.0,111.0,89.0,-115.0
122.0,125.0,42.0,127.0,129.0,128.0,127.0,128.0,33.0,-100.0,-67.0,127.0,127.0,127.0,111.0,89.0,-115.0
122.0,125.0,41.0,127.0,129.0,128.0,127.0,128.0,33.0,-100.0,-67.0,127.0,127.0,127.0,111.0,89.0,-115.0
122.0,125.0,39.0,127.0,129.0,128.0,127.0,128.0,33.0,-100.0,-67.0,127.0,127.0,127.0,111.0,89.0,-115.0
122.0,125.0,37.0,128.0,129.0,128.0,127.0,128.0,33.0,-100.0,-67.0,127.0,127.0,127.0,111.0,89.0,-115.0
122.0,125.0,35.0,128.0,128.0,127.0,127.0,128.0,33.0,-100.0,-67.0,127.0,127.0,127.0,111.0,89.0,-115.0
122.0,124.0,44.0,125.0,128.0,127.0,127.0,128.0,33.0,-100.0,-67.0,127.0,127.0,127.0,111.0,89.0,-115.0
122.0,124.0,44.0,126.0,128.0,127.0,127.0,128.0,33.0,-100.0,-67.0,127.0,127.0,127.0,111.0,89.0,-115.0
122.0,125.0,43.0,126.0,128.0,129.0,127.0,128.0,33.0,-100.0,-67.0,127.0,127.0,127.0,111.0,89.0,-115.0
122.0,125.0,43.0,126.0,128.0,129.0,127.0,128.0,33.0,-100.0,-67.0,127.0,127.0,127.0,111.0,89.0,-115.0
122.0,125.0,43.0,126.0,129.0,128.0,127.0,128.0,33.0,-100.0,-67.0,127.0,127.0,127.0,111.0,89.0,-115.0
121.0,123.0,116.0,119.0,126.0,126.0,126.0,128.0,32.0,-100.0,-66.0,127.0,127.0,127.0,111.0,89.0,-115.0
121.0,123.0,119.0,119.0,126.0,126.0,126.0,128.0,32.0,-100.0,-66.0,127.0,127.0,127.0,111.0,89.0,-115.0
121.0,124.0,122.0,119.0,126.0,127.0,126.0,128.0,32.0,-100.0,-66.0,127.0,127.0,127.0,111.0,89.0,-115.0
121.0,124.0,125.0,119.0,126.0,128.0,126.0,128.0,32.0,-100.0,-66.0,127.0,127.0,127.0,111.0,89.0,-115.0
121.0,124.0,96.0,122.0,126.0,127.0,126.0,128.0,32.0,-100.0,-66.0,127.0,127.0,127.0,111.0,89.0,-115.0
121.0,124.0,99.0,122.0,126.0,127.0,126.0,128.0,32.0,-100.0,-66.0,127.0,127.0,127.0,111.0,89.0,-115.0
121.0,124.0,103.0,121.0,126.0,127.0,126.0,128.0,32.0,-100.0,-66.0,127.0,127.0,127.0,111.0,89.0,-115.0
121.0,124.0,106.0,120.0,126.0,127.0,126.0,128.0,32.0,-100.0,-66.0,127.0,127.0,127.0,111.0,89.0,-115.0
121.0,124.0,110.0,120.0,126.0,126.0,126.0,128.0,32.0,-100.0,-66.0,127.0,127.0,127.0,111.0,89.0,-115.0
121.0,124.0,113.0,119.0,126.0,126.0,126.0,128.0,32.0,-100.0,-66.0,127.0,127.0,127.0,111.0,89.0,-115.0
122.0,123.0,202.0,125.0,126.0,122.0,125.0,127.0,32.0,-100.0,-66.0,127.0,127.0,127.0,111.0,89.0,-115.0
122.0,123.0,202.0,125.0,126.0,121.0,125.0,127.0,32.0,-100.0,-66.0,127.0,127.0,127.0,111.0,89.0,-115.0
122.0,123.0,202.0,124.0,126.0,121.0,125.0,127.0,32.0,-100.0,-66.0,127.0,127.0,127.0,111.0,89.0,-115.0
122.0,122.0,200.0,129.0,126.0,123.0,125.0,127.0,32.0,-100.0,-66.0,127.0,127.0,127.0,111.0,89.0,-115.0
122.0,122.0,201.0,128.0,126.0,122.0,125.0,127.0,32.0,-100.0,-66.0,127.0,127.0,127.0,111.0,89.0,-115.0
122.0,123.0,201.0,127.0,126.0,123.0,125.0,127.0,32.0,-100.0,-66.0,127.0,127.0,127.0,111.0,89.0,-115.0
122.0,123.0,201.0,127.0,126.0,123.0,125.0,127.0,32.0,-100.0,-66.0,127.0,127.0,127.0,111.0,89.0,-115.0
122.0,123.0,201.0,127.0,126.0,123.0,125.0,127.0,32.0,-100.0,-66.0,127.0,127.0,127.0,111.0,89.0,-115.0
122.0,123.0,201.0,126.0,126.0,122.0,125.0,127.0,32.0,-100.0,-66.0,127.0,127.0,127.0,111.0,89.0,-115.0
122.0,123.0,201.0,126.0,126.0,122.0,125.0,127.0,32.0,-100.0,-66.0,127.0,127.0,127.0,111.0,89.0,-115.0
122.0,122.0,197.0,127.0,127.0,121.0,126.0,127.0,33.0,-101.0,-67.0,127.0,127.0,127.0,111.0,89.0,-115.0
122.0,122.0,196.0,127.0,127.0,121.0,126.0,127.0,33.0,-101.0,-67.0,127.0,127.0,127.0,111.0,89.0,-115.0
122.0,122.0,202.0,130.0,128.0,119.0,126.0,128.0,33.0,-101.0,-67.0,127.0,127.0,127.0,111.0,89.0,-115.0
122.0,122.0,201.0,130.0,127.0,119.0,126.0,128.0,33.0,-101.0,-67.0,127.0,127.0,127.0,111.0,89.0,-115.0
122.0,122.0,201.0,130.0,127.0,120.0,126.0,128.0,33.0,-101.0,-67.0,127.0,127.0,127.0,111.0,89.0,-115.0
122.0,122.0,200.0,129.0,127.0,120.0,126.0,128.0,33.0,-101.0,-67.0,127.0,127.0,127.0,111.0,89.0,-115.0
122.0,122.0,200.0,129.0,127.0,120.0,126.0,128.0,33.0,-101.0,-67.0,127.0,127.0,127.0,111.0,89.0,-115.0
122.0,122.0,199.0,129.0,127.0,121.0,126.0,127.0,33.0,-101.0,-67.0,127.0,127.0,127.0,111.0,89.0,-115.0
122.0,122.0,198.0,128.0,127.0,121.0,126.0,127.0,33.0,-101.0,-67.0,127.0,127.0,127.0,111.0,89.0,-115.0
122.0,122.0,197.0,128.0,127.0,121.0,126.0,127.0,33.0,-101.0,-67.0,127.0,127.0,127.0,111.0,89.0,-115.0
122.0,124.0,179.0,133.0,127.0,122.0,125.0,128.0,33.0,-101.0,-67.0,127.0,127.0,127.0,111.0,89.0,-115.0
122.0,123.0,178.0,129.0,127.0,120.0,125.0,128.0,33.0,-101.0,-67.0,127.0,127.0,127.0,111.0,89.0,-115.0
122.0,123.0,178.0,130.0,127.0,120.0,125.0,128.0,33.0,-101.0,-67.0,127.0,127.0,127.0,111.0,89.0,-115.0
122.0,124.0,177.0,131.0,127.0,121.0,124.0,128.0,33.0,-101.0,-67.0,127.0,127.0,127.0,111.0,89.0,-115.0
122.0,124.0,177.0,131.0,127.0,122.0,124.0,128.0,33.0,-101.0,-67.0,127.0,127.0,127.0,111.0,89.0,-115.0
122.0,124.0,177.0,132.0,127.0,122.0,124.0,128.0,33.0,-101.0,-67.0,127.0,127.0,127.0,111.0,89.0,-115.0
122.0,124.0,177.0,132.0,127.0,121.0,124.0,128.0,33.0,-101.0,-67.0,127.0,127.0,127.0,111.0,89.0,-115.0
122.0,124.0,178.0,132.0,127.0,121.0,124.0,128.0,33.0,-101.0,-67.0,127.0,127.0,127.0,111.0,89.0,-115.0
122.0,124.0,178.0,132.0,127.0,121.0,124.0,128.0,33.0,-101.0,-67.0,127.0,127.0,127.0,111.0,89.0,-115.0
122.0,124.0,178.0,132.0,127.0,121.0,124.0,128.0,33.0,-101.0,-67.0,127.0,127.0,127.0,111.0,89.0,-115.0
123.0,125.0,174.0,124.0,126.0,124.0,126.0,129.0,33.0,-101.0,-67.0,127.0,127.0,127.0,111.0,89.0,-115.0
123.0,125.0,174.0,125.0,127.0,124.0,126.0,129.0,33.0,-101.0,-67.0,127.0,127.0,127.0,111.0,89.0,-115.0
124.0,125.0,174.0,126.0,127.0,124.0,126.0,129.0,33.0,-101.0,-67.0,127.0,127.0,127.0,111.0,89.0,-115.0
124.0,125.0,175.0,127.0,127.0,124.0,126.0,129.0,33.0,-101.0,-67.0,127.0,127.0,127.0,111.0,89.0,-115.0
123.0,125.0,175.0,128.0,127.0,124.0,126.0,129.0,33.0,-101.0,-67.0,127.0,127.0,127.0,111.0,89.0,-115.0
123.0,124.0,176.0,130.0,127.0,123.0,126.0,129.0,33.0,-101.0,-67.0,127.0,127.0,127.0,111.0,89.0,-115.0
123.0,124.0,176.0,132.0,127.0,123.0,126.0,129.0,33.0,-101.0,-67.0,127.0,127.0,127.0,111.0,89.0,-115.0
123.0,124.0,177.0,133.0,127.0,123.0,126.0,129.0,33.0,-101.0,-67.0,127.0,127.0,127.0,111.0,89.0,-115.0
123.0,123.0,177.0,134.0,127.0,123.0,126.0,129.0,33.0,-101.0,-67.0,127.0,127.0,127.0,111.0,89.0,-115.0
123.0,123.0,178.0,135.0,127.0,122.0,126.0,129.0,33.0,-101.0,-67.0,127.0,127.0,127.0,111.0,89.0,-115.0
122.0,112.0,173.0,130.0,126.0,125.0,123.0,120.0,33.0,-101.0,-68.0,-128.0,127.0,127.0,111.0,89.0,-115.0
122.0,112.0,174.0,131.0,126.0,125.0,123.0,121.0,33.0,-101.0,-68.0,-128.0,127.0,127.0,111.0,89.0,-115.0
122.0,113.0,174.0,132.0,126.0,125.0,123.0,121.0,33.0,-101.0,-68.0,-128.0,127.0,127.0,111.0,89.0,-115.0
123.0,114.0,174.0,133.0,126.0,125.0,123.0,121.0,33.0,-101.0,-68.0,-128.0,127.0,127.0,111.0,89.0,-115.0
123.0,115.0,175.0,133.0,126.0,125.0,123.0,122.0,33.0,-101.0,-68.0,-128.0,127.0,127.0,111.0,89.0,-115.0
123.0,116.0,176.0,133.0,126.0,125.0,124.0,122.0,33.0,-101.0,-68.0,-128.0,127.0,127.0,111.0,89.0,-115.0
123.0,117.0,176.0,133.0,126.0,125.0,124.0,122.0,33.0,-101.0,-68.0,-128.0,127.0,127.0,111.0,89.0,-115.0
123.0,119.0,177.0,133.0,126.0,125.0,124.0,123.0,33.0,-101.0,-68.0,-128.0,127.0,127.0,111.0,89.0,-115.0
123.0,120.0,178.0,132.0,126.0,125.0,124.0,124.0,33.0,-101.0,-68.0,-128.0,127.0,127.0,111.0,89.0,-115.0
122.0,112.0,173.0,129.0,125.0,124.0,123.0,120.0,33.0,-101.0,-68.0,-128.0,127.0,127.0,111.0,89.0,-115.0
127.0,123.0,143.0,131.0,127.0,119.0,124.0,122.0,34.0,-101.0,-68.0,-128.0,127.0,127.0,111.0,89.0,-115.0
127.0,123.0,142.0,132.0,127.0,120.0,124.0,124.0,34.0,-101.0,-68.0,-128.0,127.0,127.0,111.0,89.0,-115.0
127.0,123.0,141.0,131.0,128.0,119.0,124.0,125.0,34.0,-101.0,-68.0,-128.0,127.0,127.0,111.0,89.0,-115.0
127.0,122.0,141.0,131.0,128.0,118.0,125.0,127.0,34.0,-101.0,-68.0,-128.0,127.0,127.0,111.0,89.0,-115.0
127.0,122.0,140.0,131.0,128.0,117.0,125.0,128.0,34.0,-101.0,-68.0,-128.0,127.0,127.0,111.0,89.0,-115.0
127.0,121.0,139.0,131.0,128.0,116.0,125.0,129.0,34.0,-101.0,-68.0,-128.0,127.0,127.0,111.0,89.0,-115.0
127.0,120.0,138.0,131.0,128.0,115.0,126.0,130.0,34.0,-101.0,-68.0,-128.0,127.0,127.0,111.0,89.0,-115.0
127.0,120.0,137.0,131.0,128.0,115.0,126.0,131.0,34.0,-101.0,-68.0,-128.0,127.0,127.0,111.0,89.0,-115.0
127.0,123.0,145.0,130.0,126.0,121.0,124.0,121.0,34.0,-101.0,-68.0,-128.0,127.0,127.0,111.0,89.0,-115.0
127.0,123.0,144.0,131.0,127.0,120.0,124.0,122.0,34.0,-101.0,-68.0,-128.0,127.0,127.0,111.0,89.0,-115.0
128.0,115.0,96.0,130.0,127.0,83.0,124.0,123.0,34.0,-102.0,-69.0,-128.0,127.0,127.0,111.0,89.0,-115.0
128.0,115.0,95.0,130.0,127.0,82.0,125.0,124.0,34.0,-102.0,-69.0,-128.0,127.0,127.0,111.0,89.0,-115.0
128.0,115.0,95.0,130.0,127.0,82.0,125.0,125.0,34.0,-102.0,-69.0,-128.0,127.0,127.0,111.0,89.0,-115.0
128.0,115.0,94.0,130.0,127.0,81.0,126.0,125.0,34.0,-102.0,-69.0,-128.0,127.0,127.0,111.0,89.0,-115.0
128.0,115.0,94.0,129.0,128.0,80.0,126.0,126.0,34.0,-102.0,-69.0,-128.0,127.0,127.0,111.0,89.0,-115.0
128.0,115.0,93.0,129.0,128.0,80.0,126.0,127.0,34.0,-102.0,-69.0,-128.0,127.0,127.0,111.0,89.0,-115.0
128.0,116.0,92.0,129.0,128.0,79.0,127.0,128.0,34.0,-102.0,-69.0,-128.0,127.0,127.0,111.0,89.0,-115.0
128.0,117.0,98.0,128.0,127.0,85.0,123.0,123.0,34.0,-102.0,-69.0,-128.0,127.0,127.0,111.0,89.0,-115.0
128.0,116.0,97.0,129.0,127.0,85.0,124.0,123.0,34.0,-102.0,-69.0,-128.0,127.0,127.0,111.0,89.0,-115.0
128.0,116.0,96.0,129.0,127.0,84.0,124.0,123.0,34.0,-102.0,-69.0,-128.0,127.0,127.0,111.0,89.0,-115.0
127.0,119.0,80.0,132.0,128.0,66.0,127.0,125.0,34.0,-102.0,-69.0,-128.0,127.0,127.0,111.0,89.0,-115.0
127.0,120.0,80.0,133.0,127.0,65.0,127.0,126.0,34.0,-102.0,-69.0,-128.0,127.0,127.0,111.0,89.0,-115.0
127.0,121.0,80.0,134.0,128.0,65.0,127.0,127.0,34.0,-102.0,-69.0,-128.0,127.0,127.0,111.0,89.0,-115.0
127.0,121.0,80.0,134.0,127.0,65.0,127.0,129.0,34.0,-102.0,-69.0,-128.0,127.0,127.0,111.0,89.0,-115.0
127.0,122.0,80.0,134.0,128.0,64.0,127.0,130.0,34.0,-102.0,-69.0,-128.0,127.0,127.0,111.0,89.0,-115.0
127.0,122.0,79.0,133.0,128.0,64.0,127.0,131.0,34.0,-102.0,-69.0,-128.0,127.0,127.0,111.0,89.0,-115.0
126.0,117.0,80.0,127.0,128.0,67.0,126.0,120.0,34.0,-102.0,-69.0,-128.0,127.0,127.0,111.0,89.0,-115.0
126.0,118.0,80.0,128.0,128.0,67.0,126.0,122.0,34.0,-102.0,-69.0,-128.0,127.0,127.0,111.0,89.0,-115.0
126.0,118.0,80.0,129.0,128.0,67.0,127.0,123.0,34.0,-102.0,-69.0,-128.0,127.0,127.0,111.0,89.0,-115.0
126.0,119.0,80.0,131.0,128.0,66.0,127.0,124.0,34.0,-102.0,-69.0,-128.0,127.0,127.0,111.0,89.0,-115.0
125.0,117.0,93.0,115.0,126.0,74.0,128.0,123.0,33.0,-102.0,-69.0,-128.0,127.0,127.0,111.0,89.0,-115.0
125.0,117.0,94.0,115.0,126.0,75.0,129.0,123.0,33.0,-102.0,-69.0,-128.0,127.0,127.0,111.0,89.0,-115.0
124.0,118.0,95.0,115.0,126.0,75.0,129.0,122.0,33.0,-102.0,-69.0,-128.0,127.0,127.0,111.0,89.0,-115.0
124.0,118.0,95.0,116.0,126.0,76.0,130.0,123.0,33.0,-102.0,-69.0,-128.0,127.0,127.0,111.0,89.0,-115.0
124.0,118.0,96.0,117.0,126.0,76.0,130.0,124.0,33.0,-102.0,-69.0,-128.0,127.0,127.0,111.0,89.0,-115.0
126.0,117.0,91.0,117.0,127.0,72.0,128.0,128.0,33.0,-102.0,-69.0,-128.0,127.0,127.0,111.0,89.0,-115.0
126.0,117.0,91.0,116.0,126.0,72.0,128.0,127.0,33.0,-102.0,-69.0,-128.0,127.0,127.0,111.0,89.0,-115.0
125.0,117.0,92.0,115.0,126.0,73.0,128.0,126.0,33.0,-102.0,-69.0,-128.0,127.0,127.0,111.0,89.0,-115.0
125.0,117.0,92.0,115.0,126.0,73.0,128.0,125.0,33.0,-102.0,-69.0,-128.0,127.0,127.0,111.0,89.0,-115.0
125.0,117.0,93.0,114.0,126.0,74.0,128.0,124.0,33.0,-102.0,-69.0,-128.0,127.0,127.0,111.0,89.0,-115.0
120.0,120.0,122.0,129.0,128.0,94.0,126.0,111.0,33.0,-99.0,-69.0,-127.0,127.0,127.0,111.0,89.0,-115.0
120.0,120.0,123.0,128.0,128.0,94.0,126.0,111.0,33.0,-99.0,-69.0,-127.0,127.0,127.0,111.0,89.0,-115.0
120.0,119.0,124.0,128.0,128.0,95.0,126.0,110.0,33.0,-99.0,-69.0,-127.0,127.0,127.0,111.0,89.0,-115.0
121.0,122.0,118.0,131.0,128.0,92.0,128.0,131.0,33.0,-99.0,-69.0,-127.0,127.0,127.0,111.0,89.0,-115.0
121.0,123.0,118.0,131.0,128.0,93.0,128.0,129.0,33.0,-99.0,-69.0,-127.0,127.0,127.0,111.0,89.0,-115.0
121.0,123.0,119.0,131.0,129.0,93.0,127.0,126.0,33.0,-99.0,-69.0,-127.0,127.0,127.0,111.0,89.0,-115.0
121.0,122.0,119.0,130.0,128.0,93.0,127.0,123.0,33.0,-99.0,-69.0,-127.0,127.0,127.0,111.0,89.0,-115.0
121.0,122.0,120.0,130.0,128.0,94.0,127.0,119.0,33.0,-99.0,-69.0,-127.0,127.0,127.0,111.0,89.0,-115.0
121.0,121.0,120.0,129.0,128.0,94.0,127.0,116.0,33.0,-99.0,-69.0,-127.0,127.0,127.0,111.0,89.0,-115.0
121.0,121.0,121.0,129.0,128.0,94.0,126.0,113.0,33.0,-99.0,-69.0,-127.0,127.0,127.0,111.0,89.0,-115.0
118.0,115.0,106.0,135.0,127.0,111.0,129.0,147.0,31.0,-95.0,-68.0,-128.0,127.0,127.0,111.0,89.0,-115.0
118.0,116.0,106.0,135.0,127.0,111.0,130.0,146.0,31.0,-95.0,-68.0,-128.0,127.0,127.0,111.0,89.0,-115.0
119.0,115.0,111.0,126.0,126.0,111.0,129.0,152.0,31.0,-95.0,-68.0,-128.0,127.0,127.0,111.0,89.0,-115.0
119.0,115.0,110.0,128.0,126.0,111.0,129.0,152.0,31.0,-95.0,-68.0,-128.0,127.0,127.0,111.0,89.0,-115.0
119.0,115.0,109.0,129.0,126.0,111.0,129.0,153.0,31.0,-95.0,-68.0,-128.0,127.0,127.0,111.0,89.0,-115.0
119.0,115.0,109.0,131.0,126.0,111.0,129.0,153.0,31.0,-95.0,-68.0,-128.0,127.0,127.0,111.0,89.0,-115.0
119.0,115.0,108.0,132.0,126.0,111.0,129.0,152.0,31.0,-95.0,-68.0,-128.0,127.0,127.0,111.0,89.0,-115.0
119.0,115.0,107.0,133.0,126.0,111.0,129.0,151.0,31.0,-95.0,-68.0,-128.0,127.0,127.0,111.0,89.0,-115.0
118.0,115.0,107.0,134.0,126.0,111.0,129.0,150.0,31.0,-95.0,-68.0,-128.0,127.0,127.0,111.0,89.0,-115.0
118.0,115.0,106.0,135.0,127.0,111.0,129.0,149.0,31.0,-95.0,-68.0,-128.0,127.0,127.0,111.0,89.0,-115.0
116.0,123.0,140.0,128.0,128.0,113.0,130.0,133.0,31.0,-94.0,-67.0,-128.0,127.0,127.0,111.0,89.0,-115.0
117.0,122.0,124.0,125.0,129.0,111.0,133.0,131.0,31.0,-94.0,-67.0,-128.0,127.0,127.0,111.0,89.0,-115.0
117.0,123.0,125.0,125.0,129.0,112.0,132.0,131.0,31.0,-94.0,-67.0,-128.0,127.0,127.0,111.0,89.0,-115.0
117.0,123.0,127.0,125.0,129.0,112.0,132.0,132.0,31.0,-94.0,-67.0,-128.0,127.0,127.0,111.0,89.0,-115.0
117.0,123.0,129.0,126.0,130.0,112.0,131.0,132.0,31.0,-94.0,-67.0,-128.0,127.0,127.0,111.0,89.0,-115.0
117.0,123.0,130.0,127.0,129.0,112.0,131.0,133.0,31.0,-94.0,-67.0,-128.0,127.0,127.0,111.0,89.0,-115.0
117.0,124.0,132.0,127.0,129.0,113.0,131.0,133.0,31.0,-94.0,-67.0,-128.0,127.0,127.0,111.0,89.0,-115.0
117.0,123.0,134.0,128.0,129.0,113.0,131.0,133.0,31.0,-94.0,-67.0,-128.0,127.0,127.0,111.0,89.0,-115.0
117.0,123.0,136.0,128.0,129.0,112.0,131.0,133.0,31.0,-94.0,-67.0,-128.0,127.0,127.0,111.0,89.0,-115.0
117.0,124.0,138.0,128.0,129.0,113.0,131.0,133.0,31.0,-94.0,-67.0,-128.0,127.0,127.0,111.0,89.0,-115.0
121.0,125.0,178.0,125.0,128.0,110.0,130.0,135.0,32.0,-94.0,-68.0,127.0,127.0,127.0,111.0,89.0,-115.0
121.0,125.0,177.0,124.0,128.0,110.0,130.0,134.0,32.0,-94.0,-68.0,127.0,127.0,127.0,111.0,89.0,-115.0
121.0,125.0,175.0,124.0,129.0,111.0,130.0,134.0,32.0,-94.0,-68.0,127.0,127.0,127.0,111.0,89.0,-115.0
121.0,125.0,174.0,124.0,129.0,111.0,130.0,133.0,32.0,-94.0,-68.0,127.0,127.0,127.0,111.0,89.0,-115.0
121.0,125.0,173.0,124.0,128.0,111.0,131.0,132.0,32.0,-94.0,-68.0,127.0,127.0,127.0,111.0,89.0,-115.0
121.0,125.0,172.0,124.0,129.0,111.0,131.0,131.0,32.0,-94.0,-68.0,127.0,127.0,127.0,111.0,89.0,-115.0
121.0,124.0,170.0,124.0,129.0,111.0,131.0,131.0,32.0,-94.0,-68.0,127.0,127.0,127.0,111.0,89.0,-115.0
121.0,124.0,169.0,123.0,128.0,110.0,131.0,130.0,32.0,-94.0,-68.0,127.0,127.0,127.0,111.0,89.0,-115.0
121.0,124.0,168.0,122.0,128.0,110.0,132.0,130.0,32.0,-94.0,-68.0,127.0,127.0,127.0,111.0,89.0,-115.0
121.0,123.0,167.0,121.0,128.0,110.0,132.0,131.0,32.0,-94.0,-68.0,127.0,127.0,127.0,111.0,89.0,-115.0
120.0,126.0,119.0,125.0,131.0,113.0,127.0,119.0,33.0,-95.0,-68.0,127.0,127.0,127.0,111.0,89.0,-115.0
120.0,127.0,117.0,125.0,131.0,114.0,127.0,118.0,33.0,-95.0,-68.0,127.0,127.0,127.0,111.0,89.0,-115.0
119.0,126.0,116.0,124.0,130.0,114.0,127.0,116.0,33.0,-95.0,-68.0,127.0,127.0,127.0,111.0,89.0,-115.0
119.0,126.0,115.0,123.0,130.0,114.0,126.0,114.0,33.0,-95.0,-68.0,127.0,127.0,127.0,111.0,89.0,-115.0
119.0,126.0,114.0,123.0,130.0,115.0,126.0,113.0,33.0,-95.0,-68.0,127.0,127.0,127.0,111.0,89.0,-115.0
119.0,125.0,113.0,122.0,129.0,115.0,125.0,112.0,33.0,-95.0,-68.0,127.0,127.0,127.0,111.0,89.0,-115.0
119.0,125.0,112.0,123.0,129.0,114.0,125.0,113.0,33.0,-95.0,-68.0,127.0,127.0,127.0,111.0,89.0,-115.0
119.0,125.0,111.0,123.0,129.0,115.0,125.0,115.0,33.0,-95.0,-68.0,127.0,127.0,127.0,111.0,89.0,-115.0
119.0,124.0,111.0,124.0,129.0,115.0,126.0,118.0,33.0,-95.0,-68.0,127.0,127.0,127.0,111.0,89.0,-115.0
120.0,126.0,120.0,126.0,131.0,113.0,127.0,120.0,33.0,-95.0,-68.0,127.0,127.0,127.0,111.0,89.0,-115.0
117.0,123.0,86.0,110.0,127.0,116.0,129.0,132.0,32.0,-95.0,-68.0,127.0,127.0,127.0,111.0,89.0,-115.0
117.0,123.0,86.0,110.0,127.0,116.0,128.0,132.0,32.0,-95.0,-68.0,127.0,127.0,127.0,111.0,89.0,-115.0
117.0,123.0,87.0,110.0,127.0,115.0,129.0,132.0,32.0,-95.0,-68.0,127.0,127.0,127.0,111.0,89.0,-115.0
117.0,123.0,87.0,111.0,127.0,115.0,129.0,132.0,32.0,-95.0,-68.0,127.0,127.0,127.0,111.0,89.0,-115.0
117.0,123.0,87.0,112.0,127.0,114.0,129.0,132.0,32.0,-95.0,-68.0,127.0,127.0,127.0,111.0,89.0,-115.0
117.0,123.0,88.0,115.0,127.0,114.0,129.0,132.0,32.0,-95.0,-68.0,127.0,127.0,127.0,111.0,89.0,-115.0
117.0,123.0,88.0,118.0,127.0,113.0,129.0,131.0,32.0,-95.0,-68.0,127.0,127.0,127.0,111.0,89.0,-115.0
118.0,124.0,87.0,121.0,128.0,113.0,129.0,131.0,32.0,-95.0,-68.0,127.0,127.0,127.0,111.0,89.0,-115.0
117.0,123.0,85.0,114.0,127.0,116.0,128.0,133.0,32.0,-95.0,-68.0,127.0,127.0,127.0,111.0,89.0,-115.0
117.0,123.0,86.0,112.0,127.0,116.0,128.0,133.0,32.0,-95.0,-68.0,127.0,127.0,127.0,111.0,89.0,-115.0
120.0,124.0,81.0,128.0,126.0,105.0,127.0,130.0,32.0,-94.0,-68.0,127.0,127.0,127.0,111.0,89.0,-115.0
120.0,124.0,81.0,129.0,126.0,105.0,128.0,130.0,32.0,-94.0,-68.0,127.0,127.0,127.0,111.0,89.0,-115.0
120.0,124.0,81.0,129.0,126.0,104.0,128.0,130.0,32.0,-94.0,-68.0,127.0,127.0,127.0,111.0,89.0,-115.0
120.0,124.0,82.0,129.0,126.0,104.0,128.0,130.0,32.0,-94.0,-68.0,127.0,127.0,127.0,111.0,89.0,-115.0
120.0,124.0,82.0,129.0,126.0,103.0,128.0,131.0,32.0,-94.0,-68.0,127.0,127.0,127.0,111.0,89.0,-115.0
120.0,125.0,82.0,129.0,126.0,103.0,128.0,131.0,32.0,-94.0,-68.0,127.0,127.0,127.0,111.0,89.0,-115.0
120.0,125.0,82.0,128.0,126.0,103.0,128.0,131.0,32.0,-94.0,-68.0,127.0,127.0,127.0,111.0,89.0,-115.0
120.0,125.0,80.0,128.0,127.0,105.0,127.0,130.0,32.0,-94.0,-68.0,127.0,127.0,127.0,111.0,89.0,-115.0
120.0,125.0,80.0,128.0,127.0,105.0,127.0,130.0,32.0,-94.0,-68.0,127.0,127.0,127.0,111.0,89.0,-115.0
120.0,124.0,81.0,128.0,126.0,105.0,127.0,130.0,32.0,-94.0,-68.0,127.0,127.0,127.0,111.0,89.0,-115.0
125.0,126.0,47.0,131.0,129.0,105.0,128.0,126.0,33.0,-93.0,-67.0,127.0,127.0,127.0,111.0,89.0,-115.0
125.0,126.0,47.0,131.0,129.0,105.0,128.0,127.0,33.0,-93.0,-67.0,127.0,127.0,127.0,111.0,89.0,-115.0
126.0,126.0,46.0,131.0,129.0,105.0,129.0,127.0,33.0,-93.0,-67.0,127.0,127.0,127.0,111.0,89.0,-115.0
126.0,126.0,45.0,131.0,129.0,105.0,129.0,128.0,33.0,-93.0,-67.0,127.0,127.0,127.0,111.0,89.0,-115.0
126.0,126.0,45.0,131.0,129.0,104.0,129.0,128.0,33.0,-93.0,-67.0,127.0,127.0,127.0,111.0,89.0,-115.0
126.0,126.0,44.0,132.0,129.0,104.0,129.0,129.0,33.0,-93.0,-67.0,127.0,127.0,127.0,111.0,89.0,-115.0
125.0,126.0,52.0,133.0,129.0,105.0,128.0,123.0,33.0,-93.0,-67.0,127.0,127.0,127.0,111.0,89.0,-115.0
125.0,126.0,50.0,132.0,129.0,105.0,128.0,124.0,33.0,-93.0,-67.0,127.0,127.0,127.0,111.0,89.0,-115.0
125.0,126.0,49.0,131.0,129.0,105.0,128.0,124.0,33.0,-93.0,-67.0,127.0,127.0,127.0,111.0,89.0,-115.0
125.0,126.0,48.0,131.0,129.0,105.0,128.0,125.0,33.0,-93.0,-67.0,127.0,127.0,127.0,111.0,89.0,-115.0
127.0,128.0,42.0,129.0,128.0,122.0,127.0,109.0,35.0,-93.0,-66.0,126.0,127.0,127.0,111.0,89.0,-115.0
127.0,128.0,42.0,130.0,128.0,122.0,127.0,111.0,35.0,-93.0,-66.0,126.0,127.0,127.0,111.0,89.0,-115.0
128.0,128.0,42.0,131.0,128.0,123.0,128.0,113.0,35.0,-93.0,-66.0,126.0,127.0,127.0,111.0,89.0,-115.0
128.0,127.0,42.0,131.0,128.0,123.0,128.0,116.0,35.0,-93.0,-66.0,126.0,127.0,127.0,111.0,89.0,-115.0
128.0,127.0,43.0,131.0,128.0,123.0,128.0,118.0,35.0,-93.0,-66.0,126.0,127.0,127.0,111.0,89.0,-115.0
127.0,127.0,41.0,126.0,127.0,118.0,126.0,113.0,35.0,-93.0,-66.0,126.0,127.0,127.0,111.0,89.0,-115.0
127.0,127.0,42.0,126.0,127.0,119.0,126.0,111.0,35.0,-93.0,-66.0,126.0,127.0,127.0,111.0,89.0,-115.0
127.0,128.0,42.0,127.0,127.0,120.0,126.0,108.0,35.0,-93.0,-66.0,126.0,127.0,127.0,111.0,89.0,-115.0
127.0,128.0,42.0,128.0,127.0,121.0,126.0,107.0,35.0,-93.0,-66.0,126.0,127.0,127.0,111.0,89.0,-115.0
127.0,128.0,42.0,129.0,127.0,121.0,126.0,108.0,35.0,-93.0,-66.0,126.0,127.0,127.0,111.0,89.0,-115.0
125.0,124.0,79.0,122.0,126.0,155.0,128.0,130.0,37.0,-94.0,-67.0,126.0,127.0,127.0,111.0,89.0,-115.0
125.0,124.0,80.0,122.0,126.0,155.0,128.0,129.0,37.0,-94.0,-67.0,126.0,127.0,127.0,111.0,89.0,-115.0
125.0,124.0,81.0,122.0,126.0,154.0,128.0,128.0,37.0,-94.0,-67.0,126.0,127.0,127.0,111.0,89.0,-115.0
125.0,124.0,82.0,122.0,126.0,154.0,128.0,127.0,37.0,-94.0,-67.0,126.0,127.0,127.0,111.0,89.0,-115.0
126.0,125.0,75.0,129.0,126.0,153.0,129.0,134.0,37.0,-94.0,-67.0,126.0,127.0,127.0,111.0,89.0,-115.0
126.0,125.0,76.0,128.0,126.0,153.0,129.0,134.0,37.0,-94.0,-67.0,126.0,127.0,127.0,111.0,89.0,-115.0
126.0,125.0,76.0,126.0,126.0,155.0,129.0,133.0,37.0,-94.0,-67.0,126.0,127.0,127.0,111.0,89.0,-115.0
126.0,125.0,77.0,125.0,126.0,155.0,129.0,132.0,37.0,-94.0,-67.0,126.0,127.0,127.0,111.0,89.0,-115.0
125.0,125.0,77.0,124.0,126.0,155.0,128.0,131.0,37.0,-94.0,-67.0,126.0,127.0,127.0,111.0,89.0,-115.0
125.0,125.0,78.0,123.0,126.0,155.0,128.0,131.0,37.0,-94.0,-67.0,126.0,127.0,127.0,111.0,89.0,-115.0
125.0,123.0,151.0,122.0,125.0,106.0,126.0,125.0,38.0,-96.0,-69.0,126.0,127.0,127.0,111.0,89.0,-115.0
125.0,123.0,151.0,122.0,125.0,104.0,126.0,126.0,38.0,-96.0,-69.0,126.0,127.0,127.0,111.0,89.0,-115.0
125.0,123.0,152.0,122.0,125.0,102.0,127.0,127.0,38.0,-96.0,-69.0,126.0,127.0,127.0,111.0,89.0,-115.0
125.0,122.0,145.0,128.0,125.0,115.0,127.0,125.0,38.0,-96.0,-69.0,126.0,127.0,127.0,111.0,89.0,-115.0
125.0,122.0,146.0,127.0,125.0,114.0,126.0,125.0,38.0,-96.0,-69.0,126.0,127.0,127.0,111.0,89.0,-115.0
125.0,122.0,147.0,126.0,125.0,112.0,126.0,126.0,38.0,-96.0,-69.0,126.0,127.0,127.0,111.0,89.0,-115.0
125.0,122.0,148.0,125.0,125.0,111.0,126.0,125.0,38.0,-96.0,-69.0,126.0,127.0,127.0,111.0,89.0,-115.0
125.0,122.0,149.0,124.0,125.0,110.0,126.0,125.0,38.0,-96.0,-69.0,126.0,127.0,127.0,111.0,89.0,-115.0
125.0,122.0,149.0,123.0,125.0,109.0,126.0,125.0,38.0,-96.0,-69.0,126.0,127.0,127.0,111.0,89.0,-115.0
125.0,123.0,150.0,122.0,125.0,108.0,126.0,125.0,38.0,-96.0,-69.0,126.0,127.0,127.0,111.0,89.0,-115.0
124.0,121.0,149.0,120.0,123.0,47.0,121.0,125.0,39.0,-99.0,-70.0,127.0,127.0,127.0,111.0,89.0,-115.0
124.0,121.0,149.0,119.0,123.0,46.0,121.0,125.0,39.0,-99.0,-70.0,127.0,127.0,127.0,111.0,89.0,-115.0
124.0,123.0,153.0,127.0,124.0,54.0,121.0,125.0,39.0,-99.0,-70.0,127.0,127.0,127.0,111.0,89.0,-115.0
124.0,123.0,153.0,126.0,124.0,54.0,121.0,125.0,39.0,-99.0,-70.0,127.0,127.0,127.0,111.0,89.0,-115.0
124.0,123.0,152.0,125.0,124.0,52.0,121.0,125.0,39.0,-99.0,-70.0,127.0,127.0,127.0,111.0,89.0,-115.0
124.0,122.0,152.0,124.0,123.0,51.0,121.0,125.0,39.0,-99.0,-70.0,127.0,127.0,127.0,111.0,89.0,-115.0
124.0,122.0,152.0,123.0,123.0,51.0,121.0,125.0,39.0,-99.0,-70.0,127.0,127.0,127.0,111.0,89.0,-115.0
124.0,121.0,151.0,122.0,123.0,49.0,121.0,125.0,39.0,-99.0,-70.0,127.0,127.0,127.0,111.0,89.0,-115.0
124.0,121.0,151.0,121.0,123.0,48.0,121.0,125.0,39.0,-99.0,-70.0,127.0,127.0,127.0,111.0,89.0,-115.0
124.0,121.0,150.0,120.0,123.0,48.0,121.0,125.0,39.0,-99.0,-70.0,127.0,127.0,127.0,111.0,89.0,-115.0
123.0,124.0,118.0,126.0,128.0,48.0,122.0,128.0,38.0,-100.0,-70.0,127.0,127.0,127.0,111.0,89.0,-115.0
123.0,124.0,118.0,127.0,128.0,49.0,122.0,129.0,38.0,-100.0,-70.0,127.0,127.0,127.0,111.0,89.0,-115.0
123.0,124.0,118.0,128.0,128.0,49.0,122.0,130.0,38.0,-100.0,-70.0,127.0,127.0,127.0,111.0,89.0,-115.0
123.0,124.0,118.0,128.0,128.0,49.0,122.0,130.0,38.0,-100.0,-70.0,127.0,127.0,127.0,111.0,89.0,-115.0
123.0,123.0,119.0,128.0,127.0,50.0,122.0,130.0,38.0,-100.0,-70.0,127.0,127.0,127.0,111.0,89.0,-115.0
123.0,123.0,119.0,128.0,127.0,50.0,122.0,129.0,38.0,-100.0,-70.0,127.0,127.0,127.0,111.0,89.0,-115.0
123.0,123.0,119.0,128.0,127.0,50.0,122.0,129.0,38.0,-100.0,-70.0,127.0,127.0,127.0,111.0,89.0,-115.0
123.0,123.0,119.0,127.0,126.0,51.0,122.0,128.0,38.0,-100.0,-70.0,127.0,127.0,127.0,111.0,89.0,-115.0
122.0,122.0,119.0,127.0,126.0,51.0,122.0,128.0,38.0,-100.0,-70.0,127.0,127.0,127.0,111.0,89.0,-115.0
122.0,122.0,118.0,126.0,126.0,51.0,122.0,128.0,38.0,-100.0,-70.0,127.0,127.0,127.0,111.0,89.0,-115.0
120.0,121.0,173.0,132.0,125.0,62.0,124.0,131.0,37.0,-99.0,-71.0,127.0,127.0,127.0,111.0,89.0,-115.0
120.0,121.0,174.0,132.0,124.0,62.0,124.0,131.0,37.0,-99.0,-71.0,127.0,127.0,127.0,111.0,89.0,-115.0
120.0,121.0,176.0,132.0,124.0,62.0,124.0,131.0,37.0,-99.0,-71.0,127.0,127.0,127.0,111.0,89.0,-115.0
120.0,121.0,178.0,132.0,124.0,62.0,124.0,131.0,37.0,-99.0,-71.0,127.0,127.0,127.0,111.0,89.0,-115.0
120.0,121.0,179.0,132.0,124.0,63.0,124.0,131.0,37.0,-99.0,-71.0,127.0,127.0,127.0,111.0,89.0,-115.0
120.0,121.0,181.0,131.0,123.0,63.0,124.0,131.0,37.0,-99.0,-71.0,127.0,127.0,127.0,111.0,89.0,-115.0
120.0,122.0,181.0,129.0,123.0,65.0,124.0,132.0,37.0,-99.0,-71.0,127.0,127.0,127.0,111.0,89.0,-115.0
120.0,122.0,182.0,128.0,123.0,65.0,124.0,132.0,37.0,-99.0,-71.0,127.0,127.0,127.0,111.0,89.0,-115.0
120.0,122.0,183.0,126.0,123.0,65.0,125.0,131.0,37.0,-99.0,-71.0,127.0,127.0,127.0,111.0,89.0,-115.0
121.0,122.0,184.0,125.0,123.0,65.0,125.0,131.0,37.0,-99.0,-71.0,127.0,127.0,127.0,111.0,89.0,-115.0
123.0,124.0,190.0,127.0,126.0,72.0,123.0,127.0,35.0,-98.0,-72.0,127.0,127.0,127.0,111.0,89.0,-115.0
123.0,124.0,189.0,126.0,126.0,71.0,123.0,127.0,35.0,-98.0,-72.0,127.0,127.0,127.0,111.0,89.0,-115.0
123.0,124.0,188.0,126.0,126.0,71.0,123.0,126.0,35.0,-98.0,-72.0,127.0,127.0,127.0,111.0,89.0,-115.0
123.0,124.0,187.0,126.0,126.0,70.0,123.0,125.0,35.0,-98.0,-72.0,127.0,127.0,127.0,111.0,89.0,-115.0
123.0,124.0,187.0,126.0,126.0,69.0,123.0,125.0,35.0,-98.0,-72.0,127.0,127.0,127.0,111.0,89.0,-115.0
123.0,124.0,186.0,127.0,126.0,68.0,123.0,124.0,35.0,-98.0,-72.0,127.0,127.0,127.0,111.0,89.0,-115.0
123.0,123.0,185.0,127.0,126.0,68.0,123.0,123.0,35.0,-98.0,-72.0,127.0,127.0,127.0,111.0,89.0,-115.0
123.0,123.0,184.0,128.0,126.0,67.0,123.0,122.0,35.0,-98.0,-72.0,127.0,127.0,127.0,111.0,89.0,-115.0
123.0,123.0,191.0,127.0,126.0,71.0,123.0,127.0,35.0,-98.0,-72.0,127.0,127.0,127.0,111.0,89.0,-115.0
123.0,124.0,190.0,127.0,126.0,72.0,123.0,127.0,35.0,-98.0,-72.0,127.0,127.0,127.0,111.0,89.0,-115.0
124.0,124.0,166.0,122.0,124.0,55.0,124.0,127.0,34.0,-97.0,-72.0,127.0,127.0,127.0,110.0,89.0,-115.0
124.0,124.0,166.0,122.0,124.0,55.0,124.0,127.0,34.0,-97.0,-72.0,127.0,127.0,127.0,110.0,89.0,-115.0
124.0,124.0,165.0,123.0,124.0,55.0,124.0,127.0,34.0,-97.0,-72.0,127.0,127.0,127.0,110.0,89.0,-115.0
124.0,124.0,165.0,124.0,124.0,55.0,124.0,128.0,34.0,-97.0,-72.0,127.0,127.0,127.0,110.0,89.0,-115.0
124.0,124.0,165.0,125.0,124.0,54.0,124.0,128.0,34.0,-97.0,-72.0,127.0,127.0,127.0,110.0,89.0,-115.0
124.0,125.0,165.0,126.0,124.0,54.0,124.0,129.0,34.0,-97.0,-72.0,127.0,127.0,127.0,110.0,89.0,-115.0
124.0,125.0,165.0,127.0,125.0,54.0,124.0,130.0,34.0,-97.0,-72.0,127.0,127.0,127.0,110.0,89.0,-115.0
124.0,124.0,169.0,124.0,125.0,53.0,125.0,127.0,34.0,-97.0,-72.0,127.0,127.0,127.0,110.0,89.0,-115.0
124.0,125.0,168.0,123.0,125.0,54.0,124.0,127.0,34.0,-97.0,-72.0,127.0,127.0,127.0,110.0,89.0,-115.0
124.0,124.0,167.0,123.0,124.0,55.0,124.0,127.0,34.0,-97.0,-72.0,127.0,127.0,127.0,110.0,89.0,-115.0
124.0,126.0,152.0,129.0,125.0,67.0,126.0,130.0,32.0,-97.0,-73.0,127.0,127.0,127.0,110.0,89.0,-115.0
124.0,127.0,152.0,128.0,125.0,67.0,126.0,129.0,32.0,-97.0,-73.0,127.0,127.0,127.0,110.0,89.0,-115.0
124.0,126.0,152.0,127.0,125.0,67.0,126.0,128.0,32.0,-97.0,-73.0,127.0,127.0,127.0,110.0,89.0,-115.0
124.0,126.0,153.0,125.0,125.0,66.0,127.0,128.0,32.0,-97.0,-73.0,127.0,127.0,127.0,110.0,89.0,-115.0
124.0,126.0,153.0,124.0,126.0,66.0,127.0,127.0,32.0,-97.0,-73.0,127.0,127.0,127.0,110.0,89.0,-115.0
124.0,127.0,153.0,124.0,126.0,66.0,127.0,127.0,32.0,-97.0,-73.0,127.0,127.0,127.0,110.0,89.0,-115.0
124.0,125.0,153.0,130.0,125.0,65.0,126.0,130.0,32.0,-97.0,-73.0,127.0,127.0,127.0,110.0,89.0,-115.0
124.0,126.0,152.0,130.0,125.0,66.0,126.0,130.0,32.0,-97.0,-73.0,127.0,127.0,127.0,110.0,89.0,-115.0
124.0,126.0,152.0,130.0,125.0,67.0,126.0,130.0,32.0,-97.0,-73.0,127.0,127.0,127.0,110.0,89.0,-115.0
124.0,126.0,152.0,129.0,125.0,67.0,126.0,130.0,32.0,-97.0,-73.0,127.0,127.0,127.0,110.0,89.0,-115.0
122.0,127.0,150.0,126.0,127.0,62.0,126.0,129.0,30.0,-96.0,-74.0,127.0,127.0,127.0,110.0,89.0,-115.0
122.0,126.0,150.0,125.0,127.0,61.0,126.0,130.0,30.0,-96.0,-74.0,127.0,127.0,127.0,110.0,89.0,-115.0
122.0,126.0,150.0,125.0,127.0,60.0,126.0,130.0,30.0,-96.0,-74.0,127.0,127.0,127.0,110.0,89.0,-115.0
122.0,126.0,150.0,125.0,127.0,59.0,126.0,130.0,30.0,-96.0,-74.0,127.0,127.0,127.0,110.0,89.0,-115.0
122.0,126.0,150.0,125.0,127.0,58.0,126.0,129.0,30.0,-96.0,-74.0,127.0,127.0,127.0,110.0,89.0,-115.0
122.0,126.0,149.0,127.0,126.0,63.0,126.0,120.0,30.0,-96.0,-74.0,127.0,127.0,127.0,110.0,89.0,-115.0
122.0,126.0,149.0,128.0,127.0,64.0,126.0,122.0,30.0,-96.0,-74.0,127.0,127.0,127.0,110.0,89.0,-115.0
122.0,126.0,150.0,128.0,127.0,63.0,126.0,124.0,30.0,-96.0,-74.0,127.0,127.0,127.0,110.0,89.0,-115.0
122.0,126.0,150.0,128.0,127.0,62.0,126.0,126.0,30.0,-96.0,-74.0,127.0,127.0,127.0,110.0,89.0,-115.0
122.0,127.0,150.0,127.0,127.0,63.0,126.0,128.0,30.0,-96.0,-74.0,127.0,127.0,127.0,110.0,89.0,-115.0
123.0,125.0,161.0,131.0,128.0,76.0,127.0,128.0,29.0,-95.0,-74.0,127.0,127.0,127.0,109.0,89.0,-115.0
123.0,126.0,161.0,130.0,128.0,79.0,127.0,128.0,29.0,-95.0,-74.0,127.0,127.0,127.0,109.0,89.0,-115.0
123.0,126.0,161.0,129.0,128.0,80.0,127.0,128.0,29.0,-95.0,-74.0,127.0,127.0,127.0,109.0,89.0,-115.0
123.0,126.0,161.0,128.0,128.0,80.0,127.0,128.0,29.0,-95.0,-74.0,127.0,127.0,127.0,109.0,89.0,-115.0
123.0,126.0,160.0,131.0,128.0,71.0,127.0,130.0,29.0,-95.0,-74.0,127.0,127.0,127.0,109.0,89.0,-115.0
123.0,126.0,160.0,132.0,128.0,72.0,127.0,130.0,29.0,-95.0,-74.0,127.0,127.0,127.0,109.0,89.0,-115.0
123.0,126.0,160.0,132.0,128.0,73.0,127.0,130.0,29.0,-95.0,-74.0,127.0,127.0,127.0,109.0,89.0,-115.0
123.0,126.0,161.0,133.0,128.0,74.0,127.0,129.0,29.0,-95.0,-74.0,127.0,127.0,127.0,109.0,89.0,-115.0
123.0,126.0,161.0,132.0,128.0,74.0,127.0,129.0,29.0,-95.0,-74.0,127.0,127.0,127.0,109.0,89.0,-115.0
123.0,126.0,161.0,132.0,128.0,75.0,127.0,129.0,29.0,-95.0,-74.0,127.0,127.0,127.0,109.0,89.0,-115.0
123.0,124.0,154.0,128.0,125.0,105.0,125.0,125.0,29.0,-94.0,-74.0,127.0,127.0,127.0,109.0,89.0,-115.0
123.0,124.0,154.0,128.0,125.0,105.0,125.0,125.0,29.0,-94.0,-74.0,127.0,127.0,127.0,109.0,89.0,-115.0
123.0,124.0,153.0,128.0,125.0,105.0,126.0,125.0,29.0,-94.0,-74.0,127.0,127.0,127.0,109.0,89.0,-115.0
123.0,124.0,157.0,128.0,126.0,102.0,126.0,127.0,29.0,-94.0,-74.0,127.0,127.0,127.0,109.0,89.0,-115.0
123.0,125.0,156.0,128.0,125.0,104.0,125.0,127.0,29.0,-94.0,-74.0,127.0,127.0,127.0,109.0,89.0,-115.0
123.0,125.0,156.0,128.0,125.0,105.0,125.0,127.0,29.0,-94.0,-74.0,127.0,127.0,127.0,109.0,89.0,-115.0
123.0,124.0,156.0,128.0,125.0,105.0,125.0,127.0,29.0,-94.0,-74.0,127.0,127.0,127.0,109.0,89.0,-115.0
123.0,124.0,155.0,128.0,125.0,105.0,125.0,126.0,29.0,-94.0,-74.0,127.0,127.0,127.0,109.0,89.0,-115.0
123.0,124.0,155.0,128.0,125.0,105.0,125.0,126.0,29.0,-94.0,-74.0,127.0,127.0,127.0,109.0,89.0,-115.0
123.0,124.0,154.0,128.0,125.0,105.0,125.0,126.0,29.0,-94.0,-74.0,127.0,127.0,127.0,109.0,89.0,-115.0
124.0,125.0,141.0,127.0,127.0,110.0,127.0,129.0,28.0,-94.0,-73.0,127.0,127.0,127.0,109.0,89.0,-115.0
124.0,125.0,141.0,127.0,128.0,110.0,127.0,131.0,28.0,-94.0,-73.0,127.0,127.0,127.0,109.0,89.0,-115.0
123.0,124.0,140.0,125.0,126.0,109.0,125.0,120.0,28.0,-94.0,-73.0,127.0,127.0,127.0,109.0,89.0,-115.0
123.0,125.0,139.0,124.0,126.0,111.0,124.0,120.0,28.0,-94.0,-73.0,127.0,127.0,127.0,109.0,89.0,-115.0
123.0,125.0,139.0,124.0,126.0,111.0,124.0,120.0,28.0,-94.0,-73.0,127.0,127.0,127.0,109.0,89.0,-115.0
123.0,125.0,139.0,125.0,126.0,111.0,125.0,121.0,28.0,-94.0,-73.0,127.0,127.0,127.0,109.0,89.0,-115.0
123.0,125.0,140.0,126.0,126.0,111.0,125.0,123.0,28.0,-94.0,-73.0,127.0,127.0,127.0,109.0,89.0,-115.0
123.0,125.0,140.0,126.0,127.0,111.0,125.0,124.0,28.0,-94.0,-73.0,127.0,127.0,127.0,109.0,89.0,-115.0
124.0,125.0,140.0,127.0,127.0,111.0,126.0,125.0,28.0,-94.0,-73.0,127.0,127.0,127.0,109.0,89.0,-115.0
124.0,125.0,141.0,127.0,127.0,110.0,126.0,127.0,28.0,-94.0,-73.0,127.0,127.0,127.0,109.0,89.0,-115.0
123.0,124.0,123.0,128.0,127.0,113.0,127.0,128.0,28.0,-94.0,-73.0,127.0,127.0,127.0,108.0,89.0,-115.0
123.0,125.0,127.0,127.0,127.0,112.0,126.0,122.0,28.0,-94.0,-73.0,127.0,127.0,127.0,108.0,89.0,-115.0
123.0,125.0,126.0,127.0,127.0,113.0,126.0,123.0,28.0,-94.0,-73.0,127.0,127.0,127.0,108.0,89.0,-115.0
123.0,125.0,126.0,127.0,127.0,114.0,126.0,123.0,28.0,-94.0,-73.0,127.0,127.0,127.0,108.0,89.0,-115.0
123.0,125.0,125.0,128.0,127.0,114.0,126.0,123.0,28.0,-94.0,-73.0,127.0,127.0,127.0,108.0,89.0,-115.0
123.0,125.0,125.0,128.0,127.0,114.0,126.0,124.0,28.0,-94.0,-73.0,127.0,127.0,127.0,108.0,89.0,-115.0
123.0,124.0,124.0,128.0,127.0,113.0,126.0,124.0,28.0,-94.0,-73.0,127.0,127.0,127.0,108.0,89.0,-115.0
123.0,124.0,124.0,128.0,127.0,114.0,126.0,125.0,28.0,-94.0,-73.0,127.0,127.0,127.0,108.0,89.0,-115.0
123.0,124.0,124.0,128.0,127.0,113.0,126.0,126.0,28.0,-94.0,-73.0,127.0,127.0,127.0,108.0,89.0,-115.0
123.0,124.0,123.0,128.0,127.0,113.0,126.0,127.0,28.0,-94.0,-73.0,127.0,127.0,127.0,108.0,89.0,-115.0
124.0,126.0,121.0,129.0,127.0,111.0,127.0,128.0,29.0,-94.0,-73.0,127.0,127.0,127.0,108.0,89.0,-115.0
124.0,126.0,121.0,130.0,128.0,112.0,127.0,128.0,29.0,-94.0,-73.0,127.0,127.0,127.0,108.0,89.0,-115.0
124.0,127.0,122.0,131.0,129.0,113.0,127.0,128.0,29.0,-94.0,-73.0,127.0,127.0,127.0,108.0,89.0,-115.0
124.0,127.0,123.0,131.0,129.0,113.0,127.0,128.0,29.0,-94.0,-73.0,127.0,127.0,127.0,108.0,89.0,-115.0
125.0,127.0,123.0,131.0,129.0,112.0,128.0,128.0,29.0,-94.0,-73.0,127.0,127.0,127.0,108.0,89.0,-115.0
125.0,127.0,124.0,131.0,129.0,112.0,128.0,128.0,29.0,-94.0,-73.0,127.0,127.0,127.0,108.0,89.0,-115.0
125.0,128.0,125.0,131.0,130.0,112.0,128.0,128.0,29.0,-94.0,-73.0,127.0,127.0,127.0,108.0,89.0,-115.0
125.0,127.0,125.0,131.0,130.0,111.0,128.0,128.0,29.0,-94.0,-73.0,127.0,127.0,127.0,108.0,89.0,-115.0
125.0,127.0,126.0,131.0,129.0,111.0,128.0,128.0,29.0,-94.0,-73.0,127.0,127.0,127.0,108.0,89.0,-115.0
125.0,127.0,126.0,131.0,129.0,111.0,128.0,128.0,29.0,-94.0,-73.0,127.0,127.0,127.0,108.0,89.0,-115.0
124.0,124.0,135.0,122.0,126.0,111.0,126.0,127.0,29.0,-94.0,-72.0,127.0,127.0,127.0,108.0,89.0,-115.0
124.0,125.0,135.0,122.0,126.0,112.0,126.0,126.0,29.0,-94.0,-72.0,127.0,127.0,127.0,108.0,89.0,-115.0
124.0,124.0,135.0,121.0,126.0,112.0,126.0,126.0,29.0,-94.0,-72.0,127.0,127.0,127.0,108.0,89.0,-115.0
124.0,124.0,135.0,121.0,125.0,112.0,126.0,126.0,29.0,-94.0,-72.0,127.0,127.0,127.0,108.0,89.0,-115.0
124.0,124.0,135.0,121.0,125.0,112.0,126.0,126.0,29.0,-94.0,-72.0,127.0,127.0,127.0,108.0,89.0,-115.0
124.0,124.0,136.0,121.0,125.0,112.0,126.0,125.0,29.0,-94.0,-72.0,127.0,127.0,127.0,108.0,89.0,-115.0
124.0,124.0,136.0,121.0,125.0,112.0,126.0,125.0,29.0,-94.0,-72.0,127.0,127.0,127.0,108.0,89.0,-115.0
124.0,124.0,137.0,122.0,125.0,111.0,126.0,124.0,29.0,-94.0,-72.0,127.0,127.0,127.0,108.0,89.0,-115.0
124.0,124.0,138.0,123.0,125.0,111.0,126.0,124.0,29.0,-94.0,-72.0,127.0,127.0,127.0,108.0,89.0,-115.0
124.0,124.0,135.0,123.0,126.0,111.0,127.0,127.0,29.0,-94.0,-72.0,127.0,127.0,127.0,108.0,89.0,-115.0
124.0,125.0,135.0,125.0,127.0,114.0,126.0,127.0,29.0,-93.0,-72.0,127.0,127.0,127.0,108.0,89.0,-115.0
124.0,125.0,135.0,125.0,127.0,115.0,126.0,128.0,29.0,-93.0,-72.0,127.0,127.0,127.0,108.0,89.0,-115.0
124.0,125.0,135.0,125.0,127.0,114.0,126.0,128.0,29.0,-93.0,-72.0,127.0,127.0,127.0,108.0,89.0,-115.0
124.0,125.0,135.0,125.0,127.0,114.0,126.0,128.0,29.0,-93.0,-72.0,127.0,127.0,127.0,108.0,89.0,-115.0
124.0,125.0,134.0,125.0,127.0,114.0,126.0,128.0,29.0,-93.0,-72.0,127.0,127.0,127.0,108.0,89.0,-115.0
124.0,125.0,134.0,125.0,127.0,114.0,127.0,128.0,29.0,-93.0,-72.0,127.0,127.0,127.0,108.0,89.0,-115.0
124.0,125.0,134.0,125.0,127.0,113.0,127.0,128.0,29.0,-93.0,-72.0,127.0,127.0,127.0,108.0,89.0,-115.0
124.0,124.0,133.0,125.0,127.0,113.0,127.0,128.0,29.0,-93.0,-72.0,127.0,127.0,127.0,108.0,89.0,-115.0
124.0,124.0,136.0,125.0,127.0,112.0,127.0,127.0,29.0,-93.0,-72.0,127.0,127.0,127.0,108.0,89.0,-115.0
124.0,124.0,136.0,125.0,127.0,113.0,126.0,127.0,29.0,-93.0,-72.0,127.0,127.0,127.0,108.0,89.0,-115.0
125.0,125.0,121.0,127.0,126.0,117.0,126.0,130.0,29.0,-93.0,-72.0,127.0,127.0,127.0,108.0,89.0,-115.0
125.0,125.0,121.0,126.0,126.0,117.0,126.0,129.0,29.0,-93.0,-72.0,127.0,127.0,127.0,108.0,89.0,-115.0
125.0,125.0,121.0,126.0,126.0,116.0,126.0,129.0,29.0,-93.0,-72.0,127.0,127.0,127.0,108.0,89.0,-115.0
125.0,125.0,121.0,126.0,126.0,116.0,126.0,129.0,29.0,-93.0,-72.0,127.0,127.0,127.0,108.0,89.0,-115.0
125.0,125.0,121.0,126.0,126.0,116.0,126.0,129.0,29.0,-93.0,-72.0,127.0,127.0,127.0,108.0,89.0,-115.0
125.0,125.0,120.0,126.0,126.0,116.0,126.0,129.0,29.0,-93.0,-72.0,127.0,127.0,127.0,108.0,89.0,-115.0
125.0,125.0,120.0,126.0,126.0,115.0,126.0,129.0,29.0,-93.0,-72.0,127.0,127.0,127.0,108.0,89.0,-115.0
125.0,125.0,122.0,126.0,126.0,115.0,126.0,130.0,29.0,-93.0,-72.0,127.0,127.0,127.0,108.0,89.0,-115.0
125.0,125.0,122.0,126.0,126.0,115.0,126.0,130.0,29.0,-93.0,-72.0,127.0,127.0,127.0,108.0,89.0,-115.0
125.0,125.0,121.0,127.0,126.0,117.0,126.0,130.0,29.0,-93.0,-72.0,127.0,127.0,127.0,108.0,89.0,-115.0
125.0,124.0,123.0,127.0,127.0,113.0,127.0,128.0,30.0,-93.0,-72.0,127.0,127.0,127.0,108.0,89.0,-115.0
125.0,124.0,122.0,127.0,127.0,114.0,126.0,128.0,30.0,-93.0,-72.0,127.0,127.0,127.0,108.0,89.0,-115.0
125.0,124.0,123.0,127.0,127.0,115.0,126.0,128.0,30.0,-93.0,-72.0,127.0,127.0,127.0,108.0,89.0,-115.0
125.0,124.0,123.0,127.0,127.0,115.0,127.0,128.0,30.0,-93.0,-72.0,127.0,127.0,127.0,108.0,89.0,-115.0
125.0,124.0,123.0,127.0,127.0,114.0,127.0,128.0,30.0,-93.0,-72.0,127.0,127.0,127.0,108.0,89.0,-115.0
125.0,124.0,123.0,127.0,127.0,114.0,126.0,128.0,30.0,-93.0,-72.0,127.0,127.0,127.0,108.0,89.0,-115.0
125.0,124.0,122.0,128.0,127.0,113.0,127.0,128.0,30.0,-93.0,-72.0,127.0,127.0,127.0,108.0,89.0,-115.0
125.0,124.0,122.0,128.0,127.0,112.0,127.0,128.0,30.0,-93.0,-72.0,127.0,127.0,127.0,108.0,89.0,-115.0
125.0,124.0,122.0,127.0,127.0,112.0,127.0,128.0,30.0,-93.0,-72.0,127.0,127.0,127.0,108.0,89.0,-115.0
125.0,124.0,123.0,127.0,127.0,113.0,127.0,128.0,30.0,-93.0,-72.0,127.0,127.0,127.0,108.0,89.0,-115.0
125.0,124.0,131.0,127.0,127.0,114.0,127.0,128.0,30.0,-94.0,-73.0,127.0,127.0,127.0,108.0,89.0,-115.0
125.0,124.0,131.0,127.0,127.0,114.0,127.0,128.0,30.0,-94.0,-73.0,127.0,127.0,127.0,108.0,89.0,-115.0
125.0,124.0,132.0,127.0,127.0,114.0,126.0,128.0,30.0,-94.0,-73.0,127.0,127.0,127.0,108.0,89.0,-115.0
125.0,124.0,132.0,127.0,127.0,115.0,126.0,128.0,30.0,-94.0,-73.0,127.0,127.0,127.0,108.0,89.0,-115.0
125.0,123.0,128.0,127.0,127.0,112.0,127.0,128.0,30.0,-94.0,-73.0,127.0,127.0,127.0,108.0,89.0,-115.0
125.0,123.0,128.0,127.0,127.0,112.0,127.0,128.0,30.0,-94.0,-73.0,127.0,127.0,127.0,108.0,89.0,-115.0
125.0,123.0,129.0,127.0,127.0,113.0,127.0,128.0,30.0,-94.0,-73.0,127.0,127.0,127.0,108.0,89.0,-115.0
125.0,124.0,129.0,127.0,127.0,114.0,126.0,128.0,30.0,-94.0,-73.0,127.0,127.0,127.0,108.0,89.0,-115.0
125.0,124.0,129.0,127.0,127.0,115.0,126.0,128.0,30.0,-94.0,-73.0,127.0,127.0,127.0,108.0,89.0,-115.0
125.0,124.0,130.0,127.0,127.0,115.0,126.0,128.0,30.0,-94.0,-73.0,127.0,127.0,127.0,108.0,89.0,-115.0
125.0,124.0,164.0,124.0,126.0,120.0,126.0,127.0,30.0,-93.0,-73.0,127.0,127.0,127.0,108.0,89.0,-115.0
124.0,124.0,165.0,124.0,126.0,120.0,126.0,127.0,30.0,-93.0,-73.0,127.0,127.0,127.0,108.0,89.0,-115.0
125.0,124.0,164.0,125.0,126.0,121.0,125.0,127.0,30.0,-93.0,-73.0,127.0,127.0,127.0,108.0,89.0,-115.0
125.0,124.0,161.0,124.0,126.0,116.0,126.0,127.0,30.0,-93.0,-73.0,127.0,127.0,127.0,108.0,89.0,-115.0
125.0,124.0,161.0,124.0,126.0,116.0,126.0,127.0,30.0,-93.0,-73.0,127.0,127.0,127.0,108.0,89.0,-115.0
125.0,124.0,162.0,124.0,126.0,117.0,126.0,127.0,30.0,-93.0,-73.0,127.0,127.0,127.0,108.0,89.0,-115.0
125.0,125.0,162.0,124.0,126.0,119.0,126.0,127.0,30.0,-93.0,-73.0,127.0,127.0,127.0,108.0,89.0,-115.0
125.0,125.0,163.0,124.0,126.0,120.0,126.0,127.0,30.0,-93.0,-73.0,127.0,127.0,127.0,108.0,89.0,-115.0
125.0,124.0,164.0,123.0,126.0,120.0,126.0,127.0,30.0,-93.0,-73.0,127.0,127.0,127.0,108.0,89.0,-115.0
125.0,124.0,164.0,123.0,126.0,120.0,126.0,127.0,30.0,-93.0,-73.0,127.0,127.0,127.0,108.0,89.0,-115.0
125.0,124.0,150.0,126.0,127.0,157.0,126.0,127.0,30.0,-93.0,-73.0,127.0,127.0,127.0,108.0,89.0,-115.0
125.0,124.0,149.0,126.0,127.0,157.0,126.0,127.0,30.0,-93.0,-73.0,127.0,127.0,127.0,108.0,89.0,-115.0
125.0,125.0,158.0,128.0,127.0,153.0,126.0,127.0,30.0,-93.0,-73.0,127.0,127.0,127.0,108.0,89.0,-115.0
125.0,125.0,157.0,128.0,127.0,154.0,126.0,127.0,30.0,-93.0,-73.0,127.0,127.0,127.0,108.0,89.0,-115.0
125.0,125.0,156.0,128.0,127.0,154.0,126.0,127.0,30.0,-93.0,-73.0,127.0,127.0,127.0,108.0,89.0,-115.0
125.0,124.0,155.0,127.0,127.0,154.0,126.0,127.0,30.0,-93.0,-73.0,127.0,127.0,127.0,108.0,89.0,-115.0
125.0,124.0,154.0,127.0,127.0,155.0,126.0,127.0,30.0,-93.0,-73.0,127.0,127.0,127.0,108.0,89.0,-115.0
125.0,124.0,153.0,126.0,127.0,155.0,126.0,127.0,30.0,-93.0,-73.0,127.0,127.0,127.0,108.0,89.0,-115.0
125.0,124.0,152.0,126.0,127.0,156.0,126.0,127.0,30.0,-93.0,-73.0,127.0,127.0,127.0,108.0,89.0,-115.0
125.0,124.0,151.0,126.0,127.0,156.0,126.0,127.0,30.0,-93.0,-73.0,127.0,127.0,127.0,108.0,89.0,-115.0
125.0,124.0,137.0,126.0,126.0,157.0,125.0,127.0,30.0,-93.0,-73.0,127.0,127.0,127.0,108.0,89.0,-115.0
125.0,126.0,135.0,126.0,126.0,160.0,125.0,127.0,30.0,-93.0,-73.0,127.0,127.0,127.0,108.0,89.0,-115.0
125.0,126.0,136.0,125.0,126.0,160.0,125.0,127.0,30.0,-93.0,-73.0,127.0,127.0,127.0,108.0,89.0,-115.0
125.0,125.0,136.0,125.0,126.0,160.0,125.0,127.0,30.0,-93.0,-73.0,127.0,127.0,127.0,108.0,89.0,-115.0
125.0,125.0,137.0,125.0,126.0,159.0,125.0,127.0,30.0,-93.0,-73.0,127.0,127.0,127.0,108.0,89.0,-115.0
125.0,125.0,137.0,126.0,126.0,159.0,125.0,127.0,30.0,-93.0,-73.0,127.0,127.0,127.0,108.0,89.0,-115.0
125.0,125.0,137.0,126.0,126.0,159.0,125.0,127.0,30.0,-93.0,-73.0,127.0,127.0,127.0,108.0,89.0,-115.0
125.0,125.0,137.0,126.0,126.0,158.0,125.0,127.0,30.0,-93.0,-73.0,127.0,127.0,127.0,108.0,89.0,-115.0
125.0,125.0,137.0,126.0,126.0,158.0,125.0,127.0,30.0,-93.0,-73.0,127.0,127.0,127.0,108.0,89.0,-115.0
125.0,125.0,137.0,127.0,126.0,157.0,125.0,127.0,30.0,-93.0,-73.0,127.0,127.0,127.0,108.0,89.0,-115.0
125.0,126.0,131.0,128.0,127.0,152.0,124.0,127.0,29.0,-94.0,-74.0,127.0,127.0,127.0,108.0,89.0,-115.0
125.0,126.0,132.0,129.0,127.0,152.0,124.0,127.0,29.0,-94.0,-74.0,127.0,127.0,127.0,108.0,89.0,-115.0
125.0,126.0,132.0,129.0,127.0,152.0,124.0,127.0,29.0,-94.0,-74.0,127.0,127.0,127.0,108.0,89.0,-115.0
125.0,126.0,132.0,129.0,127.0,152.0,124.0,127.0,29.0,-94.0,-74.0,127.0,127.0,127.0,108.0,89.0,-115.0
125.0,125.0,132.0,129.0,127.0,151.0,124.0,127.0,29.0,-94.0,-74.0,127.0,127.0,127.0,108.0,89.0,-115.0
125.0,125.0,132.0,129.0,127.0,151.0,124.0,127.0,29.0,-94.0,-74.0,127.0,127.0,127.0,108.0,89.0,-115.0
125.0,125.0,132.0,128.0,127.0,151.0,124.0,127.0,29.0,-94.0,-74.0,127.0,127.0,127.0,108.0,89.0,-115.0
125.0,125.0,132.0,128.0,127.0,150.0,124.0,127.0,29.0,-94.0,-74.0,127.0,127.0,127.0,108.0,89.0,-115.0
125.0,125.0,132.0,128.0,127.0,150.0,124.0,127.0,29.0,-94.0,-74.0,127.0,127.0,127.0,108.0,89.0,-115.0
125.0,125.0,132.0,128.0,127.0,150.0,125.0,127.0,29.0,-94.0,-74.0,127.0,127.0,127.0,108.0,89.0,-115.0
125.0,126.0,128.0,123.0,125.0,149.0,123.0,126.0,29.0,-95.0,-74.0,127.0,127.0,127.0,108.0,89.0,-115.0
125.0,125.0,128.0,123.0,125.0,149.0,124.0,126.0,29.0,-95.0,-74.0,127.0,127.0,127.0,108.0,89.0,-115.0
125.0,125.0,128.0,123.0,125.0,149.0,123.0,126.0,29.0,-95.0,-74.0,127.0,127.0,127.0,108.0,89.0,-115.0
125.0,126.0,127.0,124.0,125.0,150.0,123.0,126.0,29.0,-95.0,-74.0,127.0,127.0,127.0,108.0,89.0,-115.0
125.0,126.0,127.0,126.0,125.0,149.0,123.0,126.0,29.0,-95.0,-74.0,127.0,127.0,127.0,108.0,89.0,-115.0
125.0,125.0,127.0,127.0,125.0,149.0,124.0,126.0,29.0,-95.0,-74.0,127.0,127.0,127.0,108.0,89.0,-115.0
125.0,125.0,127.0,128.0,125.0,148.0,124.0,126.0,29.0,-95.0,-74.0,127.0,127.0,127.0,108.0,89.0,-115.0
125.0,125.0,127.0,128.0,126.0,148.0,124.0,126.0,29.0,-95.0,-74.0,127.0,127.0,127.0,108.0,89.0,-115.0
125.0,125.0,127.0,129.0,126.0,147.0,124.0,126.0,29.0,-95.0,-74.0,127.0,127.0,127.0,108.0,89.0,-115.0
125.0,126.0,128.0,123.0,125.0,149.0,123.0,126.0,29.0,-95.0,-74.0,127.0,127.0,127.0,108.0,89.0,-115.0
126.0,126.0,125.0,133.0,127.0,142.0,125.0,126.0,29.0,-96.0,-74.0,127.0,127.0,127.0,108.0,89.0,-115.0
126.0,126.0,125.0,132.0,127.0,142.0,125.0,126.0,29.0,-96.0,-74.0,127.0,127.0,127.0,108.0,89.0,-115.0
126.0,126.0,125.0,132.0,127.0,143.0,125.0,126.0,29.0,-96.0,-74.0,127.0,127.0,127.0,108.0,89.0,-115.0
126.0,126.0,125.0,132.0,127.0,144.0,125.0,126.0,29.0,-96.0,-74.0,127.0,127.0,127.0,108.0,89.0,-115.0
126.0,126.0,126.0,132.0,127.0,143.0,125.0,126.0,29.0,-96.0,-74.0,127.0,127.0,127.0,108.0,89.0,-115.0
126.0,126.0,126.0,131.0,127.0,143.0,125.0,126.0,29.0,-96.0,-74.0,127.0,127.0,127.0,108.0,89.0,-115.0
126.0,126.0,126.0,131.0,127.0,143.0,125.0,126.0,29.0,-96.0,-74.0,127.0,127.0,127.0,108.0,89.0,-115.0
126.0,126.0,126.0,131.0,127.0,143.0,125.0,126.0,29.0,-96.0,-74.0,127.0,127.0,127.0,108.0,89.0,-115.0
126.0,126.0,125.0,133.0,127.0,142.0,125.0,126.0,29.0,-96.0,-74.0,127.0,127.0,127.0,108.0,89.0,-115.0
126.0,126.0,125.0,133.0,127.0,142.0,125.0,126.0,29.0,-96.0,-74.0,127.0,127.0,127.0,108.0,89.0,-115.0
126.0,125.0,131.0,127.0,126.0,141.0,127.0,127.0,29.0,-97.0,-74.0,127.0,127.0,127.0,108.0,89.0,-115.0
126.0,125.0,131.0,127.0,126.0,141.0,127.0,127.0,29.0,-97.0,-74.0,127.0,127.0,127.0,108.0,89.0,-115.0
126.0,125.0,131.0,127.0,126.0,142.0,127.0,127.0,29.0,-97.0,-74.0,127.0,127.0,127.0,108.0,89.0,-115.0
126.0,125.0,132.0,127.0,126.0,142.0,127.0,127.0,29.0,-97.0,-74.0,127.0,127.0,127.0,108.0,89.0,-115.0
126.0,125.0,132.0,128.0,126.0,141.0,127.0,127.0,29.0,-97.0,-74.0,127.0,127.0,127.0,108.0,89.0,-115.0
126.0,125.0,132.0,128.0,126.0,142.0,127.0,127.0,29.0,-97.0,-74.0,127.0,127.0,127.0,108.0,89.0,-115.0
126.0,126.0,132.0,127.0,126.0,142.0,127.0,127.0,29.0,-97.0,-74.0,127.0,127.0,127.0,108.0,89.0,-115.0
126.0,125.0,131.0,127.0,126.0,141.0,127.0,127.0,29.0,-97.0,-74.0,127.0,127.0,127.0,108.0,89.0,-115.0
126.0,125.0,131.0,127.0,126.0,141.0,127.0,127.0,29.0,-97.0,-74.0,127.0,127.0,127.0,108.0,89.0,-115.0
126.0,125.0,131.0,127.0,126.0,142.0,127.0,127.0,29.0,-97.0,-74.0,127.0,127.0,127.0,108.0,89.0,-115.0
129.0,129.0,122.0,128.0,126.0,139.0,129.0,127.0,30.0,-97.0,-73.0,127.0,127.0,127.0,108.0,89.0,-115.0
129.0,128.0,122.0,128.0,126.0,139.0,129.0,127.0,30.0,-97.0,-73.0,127.0,127.0,127.0,108.0,89.0,-115.0
129.0,128.0,121.0,128.0,126.0,139.0,129.0,127.0,30.0,-97.0,-73.0,127.0,127.0,127.0,108.0,89.0,-115.0
130.0,129.0,121.0,128.0,126.0,140.0,128.0,127.0,30.0,-97.0,-73.0,127.0,127.0,127.0,108.0,89.0,-115.0
130.0,129.0,120.0,128.0,126.0,140.0,128.0,127.0,30.0,-97.0,-73.0,127.0,127.0,127.0,108.0,89.0,-115.0
130.0,129.0,120.0,127.0,126.0,140.0,129.0,127.0,30.0,-97.0,-73.0,127.0,127.0,127.0,108.0,89.0,-115.0
129.0,129.0,123.0,128.0,126.0,138.0,129.0,127.0,30.0,-97.0,-73.0,127.0,127.0,127.0,108.0,89.0,-115.0
129.0,129.0,122.0,128.0,126.0,139.0,129.0,127.0,30.0,-97.0,-73.0,127.0,127.0,127.0,108.0,89.0,-115.0
129.0,129.0,122.0,128.0,126.0,139.0,129.0,127.0,30.0,-97.0,-73.0,127.0,127.0,127.0,108.0,89.0,-115.0
129.0,129.0,122.0,128.0,126.0,139.0,129.0,127.0,30.0,-97.0,-73.0,127.0,127.0,127.0,108.0,89.0,-115.0
132.0,127.0,97.0,126.0,126.0,132.0,127.0,129.0,30.0,-96.0,-72.0,127.0,127.0,127.0,108.0,89.0,-115.0
133.0,127.0,96.0,126.0,126.0,131.0,127.0,129.0,30.0,-96.0,-72.0,127.0,127.0,127.0,108.0,89.0,-115.0
133.0,128.0,95.0,126.0,126.0,132.0,127.0,129.0,30.0,-96.0,-72.0,127.0,127.0,127.0,108.0,89.0,-115.0
133.0,128.0,94.0,126.0,126.0,132.0,127.0,129.0,30.0,-96.0,-72.0,127.0,127.0,127.0,108.0,89.0,-115.0
133.0,128.0,94.0,126.0,127.0,132.0,127.0,129.0,30.0,-96.0,-72.0,127.0,127.0,127.0,108.0,89.0,-115.0
132.0,127.0,100.0,126.0,126.0,132.0,127.0,129.0,30.0,-96.0,-72.0,127.0,127.0,127.0,108.0,89.0,-115.0
132.0,127.0,99.0,126.0,126.0,133.0,127.0,129.0,30.0,-96.0,-72.0,127.0,127.0,127.0,108.0,89.0,-115.0
132.0,127.0,99.0,126.0,126.0,133.0,127.0,129.0,30.0,-96.0,-72.0,127.0,127.0,127.0,108.0,89.0,-115.0
132.0,127.0,98.0,126.0,126.0,133.0,127.0,129.0,30.0,-96.0,-72.0,127.0,127.0,127.0,108.0,89.0,-115.0
132.0,127.0,98.0,126.0,126.0,132.0,127.0,129.0,30.0,-96.0,-72.0,127.0,127.0,127.0,108.0,89.0,-115.0
134.0,128.0,66.0,125.0,127.0,121.0,128.0,129.0,30.0,-96.0,-71.0,127.0,127.0,127.0,108.0,89.0,-115.0
134.0,129.0,65.0,125.0,127.0,122.0,128.0,129.0,30.0,-96.0,-71.0,127.0,127.0,127.0,108.0,89.0,-115.0
134.0,129.0,64.0,125.0,127.0,123.0,128.0,129.0,30.0,-96.0,-71.0,127.0,127.0,127.0,108.0,89.0,-115.0
133.0,129.0,63.0,125.0,127.0,122.0,128.0,129.0,30.0,-96.0,-71.0,127.0,127.0,127.0,108.0,89.0,-115.0
135.0,128.0,73.0,125.0,127.0,121.0,128.0,129.0,30.0,-96.0,-71.0,127.0,127.0,127.0,108.0,89.0,-115.0
135.0,128.0,72.0,125.0,127.0,122.0,128.0,129.0,30.0,-96.0,-71.0,127.0,127.0,127.0,108.0,89.0,-115.0
135.0,129.0,71.0,125.0,127.0,122.0,128.0,129.0,30.0,-96.0,-71.0,127.0,127.0,127.0,108.0,89.0,-115.0
135.0,128.0,69.0,125.0,127.0,122.0,128.0,129.0,30.0,-96.0,-71.0,127.0,127.0,127.0,108.0,89.0,-115.0
134.0,128.0,68.0,125.0,127.0,122.0,128.0,129.0,30.0,-96.0,-71.0,127.0,127.0,127.0,108.0,89.0,-115.0
134.0,128.0,67.0,125.0,127.0,121.0,128.0,129.0,30.0,-96.0,-71.0,127.0,127.0,127.0,108.0,89.0,-115.0
132.0,128.0,90.0,126.0,127.0,123.0,127.0,129.0,30.0,-95.0,-71.0,127.0,127.0,127.0,108.0,89.0,-115.0
132.0,128.0,91.0,126.0,127.0,123.0,127.0,129.0,30.0,-95.0,-71.0,127.0,127.0,127.0,108.0,89.0,-115.0
132.0,128.0,80.0,126.0,127.0,121.0,127.0,129.0,30.0,-95.0,-71.0,127.0,127.0,127.0,108.0,89.0,-115.0
132.0,128.0,81.0,126.0,127.0,121.0,127.0,129.0,30.0,-95.0,-71.0,127.0,127.0,127.0,108.0,89.0,-115.0
132.0,128.0,82.0,126.0,127.0,122.0,127.0,129.0,30.0,-95.0,-71.0,127.0,127.0,127.0,108.0,89.0,-115.0
132.0,128.0,84.0,126.0,127.0,123.0,127.0,129.0,30.0,-95.0,-71.0,127.0,127.0,127.0,108.0,89.0,-115.0
132.0,128.0,85.0,126.0,127.0,122.0,127.0,129.0,30.0,-95.0,-71.0,127.0,127.0,127.0,108.0,89.0,-115.0
132.0,128.0,86.0,126.0,127.0,122.0,127.0,129.0,30.0,-95.0,-71.0,127.0,127.0,127.0,108.0,89.0,-115.0
132.0,128.0,88.0,126.0,127.0,122.0,127.0,129.0,30.0,-95.0,-71.0,127.0,127.0,127.0,108.0,89.0,-115.0
132.0,128.0,89.0,126.0,127.0,122.0,127.0,129.0,30.0,-95.0,-71.0,127.0,127.0,127.0,108.0,89.0,-115.0
127.0,127.0,130.0,126.0,127.0,120.0,128.0,129.0,31.0,-94.0,-70.0,126.0,126.0,127.0,108.0,89.0,-115.0
129.0,126.0,125.0,126.0,127.0,118.0,128.0,128.0,31.0,-94.0,-70.0,126.0,126.0,127.0,108.0,89.0,-115.0
128.0,126.0,126.0,126.0,127.0,118.0,128.0,128.0,31.0,-94.0,-70.0,126.0,126.0,127.0,108.0,89.0,-115.0
128.0,126.0,126.0,126.0,127.0,119.0,128.0,129.0,31.0,-94.0,-70.0,126.0,126.0,127.0,108.0,89.0,-115.0
128.0,126.0,127.0,126.0,127.0,119.0,128.0,129.0,31.0,-94.0,-70.0,126.0,126.0,127.0,108.0,89.0,-115.0
128.0,126.0,128.0,126.0,127.0,119.0,128.0,129.0,31.0,-94.0,-70.0,126.0,126.0,127.0,108.0,89.0,-115.0
128.0,126.0,129.0,126.0,127.0,119.0,128.0,129.0,31.0,-94.0,-70.0,126.0,126.0,127.0,108.0,89.0,-115.0
128.0,126.0,129.0,126.0,127.0,119.0,128.0,128.0,31.0,-94.0,-70.0,126.0,126.0,127.0,108.0,89.0,-115.0
128.0,126.0,130.0,126.0,127.0,119.0,128.0,129.0,31.0,-94.0,-70.0,126.0,126.0,127.0,108.0,89.0,-115.0
127.0,126.0,130.0,126.0,127.0,120.0,127.0,129.0,31.0,-94.0,-70.0,126.0,126.0,127.0,108.0,89.0,-115.0
124.0,124.0,140.0,126.0,126.0,121.0,127.0,128.0,31.0,-93.0,-68.0,126.0,126.0,127.0,108.0,89.0,-115.0
124.0,124.0,139.0,126.0,126.0,122.0,127.0,128.0,31.0,-93.0,-68.0,126.0,126.0,127.0,108.0,89.0,-115.0
124.0,124.0,139.0,126.0,126.0,123.0,127.0,128.0,31.0,-93.0,-68.0,126.0,126.0,127.0,108.0,89.0,-115.0
124.0,124.0,139.0,126.0,126.0,124.0,127.0,128.0,31.0,-93.0,-68.0,126.0,126.0,127.0,108.0,89.0,-115.0
124.0,124.0,139.0,126.0,126.0,123.0,127.0,128.0,31.0,-93.0,-68.0,126.0,126.0,127.0,108.0,89.0,-115.0
124.0,124.0,139.0,126.0,126.0,123.0,127.0,128.0,31.0,-93.0,-68.0,126.0,126.0,127.0,108.0,89.0,-115.0
123.0,124.0,139.0,126.0,126.0,123.0,127.0,128.0,31.0,-93.0,-68.0,126.0,126.0,127.0,108.0,89.0,-115.0
123.0,124.0,139.0,126.0,126.0,123.0,127.0,128.0,31.0,-93.0,-68.0,126.0,126.0,127.0,108.0,89.0,-115.0
123.0,124.0,139.0,126.0,126.0,123.0,127.0,128.0,31.0,-93.0,-68.0,126.0,126.0,127.0,108.0,89.0,-115.0
123.0,124.0,139.0,126.0,126.0,123.0,127.0,128.0,31.0,-93.0,-68.0,126.0,126.0,127.0,108.0,89.0,-115.0
125.0,124.0,136.0,125.0,126.0,121.0,126.0,128.0,32.0,-94.0,-68.0,126.0,126.0,127.0,108.0,89.0,-115.0
125.0,124.0,135.0,125.0,126.0,122.0,126.0,128.0,32.0,-94.0,-68.0,126.0,126.0,127.0,108.0,89.0,-115.0
125.0,125.0,135.0,126.0,126.0,123.0,126.0,128.0,32.0,-94.0,-68.0,126.0,126.0,127.0,108.0,89.0,-115.0
125.0,125.0,135.0,126.0,126.0,123.0,126.0,128.0,32.0,-94.0,-68.0,126.0,126.0,127.0,108.0,89.0,-115.0
125.0,125.0,135.0,126.0,126.0,122.0,126.0,128.0,32.0,-94.0,-68.0,126.0,126.0,127.0,108.0,89.0,-115.0
125.0,124.0,135.0,126.0,126.0,122.0,126.0,128.0,32.0,-94.0,-68.0,126.0,126.0,127.0,108.0,89.0,-115.0
125.0,124.0,135.0,127.0,126.0,122.0,126.0,128.0,32.0,-94.0,-68.0,126.0,126.0,127.0,108.0,89.0,-115.0
125.0,125.0,135.0,127.0,126.0,123.0,125.0,128.0,32.0,-94.0,-68.0,126.0,126.0,127.0,108.0,89.0,-115.0
125.0,125.0,135.0,127.0,126.0,124.0,125.0,128.0,32.0,-94.0,-68.0,126.0,126.0,127.0,108.0,89.0,-115.0
125.0,124.0,136.0,125.0,126.0,121.0,126.0,128.0,32.0,-94.0,-68.0,126.0,126.0,127.0,108.0,89.0,-115.0
127.0,124.0,137.0,128.0,126.0,120.0,125.0,127.0,33.0,-96.0,-68.0,127.0,126.0,127.0,108.0,89.0,-115.0
127.0,124.0,137.0,128.0,126.0,120.0,125.0,127.0,33.0,-96.0,-68.0,127.0,126.0,127.0,108.0,89.0,-115.0
127.0,124.0,137.0,128.0,126.0,120.0,125.0,127.0,33.0,-96.0,-68.0,127.0,126.0,127.0,108.0,89.0,-115.0
127.0,124.0,137.0,128.0,126.0,120.0,125.0,127.0,33.0,-96.0,-68.0,127.0,126.0,127.0,108.0,89.0,-115.0
127.0,124.0,137.0,128.0,126.0,120.0,125.0,127.0,33.0,-96.0,-68.0,127.0,126.0,127.0,108.0,89.0,-115.0
127.0,124.0,138.0,128.0,126.0,120.0,125.0,127.0,33.0,-96.0,-68.0,127.0,126.0,127.0,108.0,89.0,-115.0
127.0,124.0,138.0,128.0,126.0,120.0,125.0,127.0,33.0,-96.0,-68.0,127.0,126.0,127.0,108.0,89.0,-115.0
127.0,124.0,138.0,128.0,126.0,120.0,125.0,127.0,33.0,-96.0,-68.0,127.0,126.0,127.0,108.0,89.0,-115.0
127.0,124.0,137.0,128.0,126.0,120.0,125.0,127.0,33.0,-96.0,-68.0,127.0,126.0,127.0,108.0,89.0,-115.0
127.0,124.0,137.0,128.0,126.0,120.0,125.0,127.0,33.0,-96.0,-68.0,127.0,126.0,127.0,108.0,89.0,-115.0
125.0,124.0,138.0,127.0,126.0,120.0,125.0,127.0,33.0,-97.0,-68.0,127.0,126.0,127.0,108.0,89.0,-115.0
125.0,124.0,138.0,127.0,126.0,120.0,125.0,127.0,33.0,-97.0,-68.0,127.0,126.0,127.0,108.0,89.0,-115.0
125.0,124.0,138.0,127.0,126.0,120.0,125.0,127.0,33.0,-97.0,-68.0,127.0,126.0,127.0,108.0,89.0,-115.0
125.0,125.0,138.0,127.0,126.0,121.0,125.0,127.0,33.0,-97.0,-68.0,127.0,126.0,127.0,108.0,89.0,-115.0
125.0,125.0,138.0,126.0,126.0,121.0,125.0,127.0,33.0,-97.0,-68.0,127.0,126.0,127.0,108.0,89.0,-115.0
125.0,125.0,138.0,126.0,126.0,121.0,125.0,127.0,33.0,-97.0,-68.0,127.0,126.0,127.0,108.0,89.0,-115.0
125.0,125.0,138.0,126.0,126.0,121.0,125.0,127.0,33.0,-97.0,-68.0,127.0,126.0,127.0,108.0,89.0,-115.0
125.0,125.0,138.0,128.0,127.0,121.0,125.0,127.0,33.0,-97.0,-68.0,127.0,126.0,127.0,108.0,89.0,-115.0
125.0,125.0,138.0,128.0,126.0,121.0,125.0,127.0,33.0,-97.0,-68.0,127.0,126.0,127.0,108.0,89.0,-115.0
125.0,124.0,138.0,128.0,126.0,120.0,125.0,127.0,33.0,-97.0,-68.0,127.0,126.0,127.0,108.0,89.0,-115.0
124.0,125.0,144.0,130.0,128.0,120.0,126.0,127.0,33.0,-98.0,-68.0,127.0,127.0,127.0,108.0,89.0,-115.0
123.0,125.0,144.0,130.0,128.0,120.0,126.0,127.0,33.0,-98.0,-68.0,127.0,127.0,127.0,108.0,89.0,-115.0
124.0,125.0,144.0,129.0,128.0,122.0,126.0,128.0,33.0,-98.0,-68.0,127.0,127.0,127.0,108.0,89.0,-115.0
124.0,126.0,144.0,129.0,128.0,122.0,126.0,128.0,33.0,-98.0,-68.0,127.0,127.0,127.0,108.0,89.0,-115.0
124.0,125.0,144.0,129.0,128.0,122.0,126.0,128.0,33.0,-98.0,-68.0,127.0,127.0,127.0,108.0,89.0,-115.0
124.0,126.0,144.0,128.0,128.0,123.0,126.0,128.0,33.0,-98.0,-68.0,127.0,127.0,127.0,108.0,89.0,-115.0
124.0,125.0,143.0,132.0,128.0,120.0,126.0,127.0,33.0,-98.0,-68.0,127.0,127.0,127.0,108.0,89.0,-115.0
124.0,125.0,143.0,131.0,128.0,120.0,126.0,127.0,33.0,-98.0,-68.0,127.0,127.0,127.0,108.0,89.0,-115.0
124.0,125.0,144.0,131.0,128.0,120.0,126.0,127.0,33.0,-98.0,-68.0,127.0,127.0,127.0,108.0,89.0,-115.0
124.0,125.0,144.0,130.0,128.0,120.0,126.0,127.0,33.0,-98.0,-68.0,127.0,127.0,127.0,108.0,89.0,-115.0
124.0,124.0,144.0,126.0,126.0,122.0,126.0,127.0,33.0,-99.0,-68.0,127.0,127.0,127.0,108.0,89.0,-115.0
124.0,124.0,144.0,126.0,126.0,122.0,126.0,127.0,33.0,-99.0,-68.0,127.0,127.0,127.0,108.0,89.0,-115.0
124.0,124.0,143.0,126.0,126.0,122.0,126.0,127.0,33.0,-99.0,-68.0,127.0,127.0,127.0,108.0,89.0,-115.0
124.0,124.0,143.0,126.0,126.0,122.0,125.0,126.0,33.0,-99.0,-68.0,127.0,127.0,127.0,108.0,89.0,-115.0
124.0,125.0,143.0,125.0,126.0,123.0,125.0,126.0,33.0,-99.0,-68.0,127.0,127.0,127.0,108.0,89.0,-115.0
123.0,124.0,145.0,127.0,127.0,120.0,126.0,127.0,33.0,-99.0,-68.0,127.0,127.0,127.0,108.0,89.0,-115.0
123.0,124.0,145.0,126.0,127.0,120.0,126.0,127.0,33.0,-99.0,-68.0,127.0,127.0,127.0,108.0,89.0,-115.0
123.0,124.0,144.0,126.0,126.0,121.0,126.0,127.0,33.0,-99.0,-68.0,127.0,127.0,127.0,108.0,89.0,-115.0
123.0,125.0,144.0,126.0,126.0,122.0,126.0,127.0,33.0,-99.0,-68.0,127.0,127.0,127.0,108.0,89.0,-115.0
124.0,125.0,144.0,126.0,126.0,122.0,126.0,127.0,33.0,-99.0,-68.0,127.0,127.0,127.0,108.0,89.0,-115.0
124.0,125.0,133.0,130.0,127.0,122.0,125.0,127.0,34.0,-99.0,-69.0,127.0,127.0,127.0,108.0,89.0,-115.0
124.0,125.0,133.0,130.0,127.0,122.0,125.0,127.0,34.0,-99.0,-69.0,127.0,127.0,127.0,108.0,89.0,-115.0
124.0,125.0,132.0,130.0,127.0,122.0,126.0,127.0,34.0,-99.0,-69.0,127.0,127.0,127.0,108.0,89.0,-115.0
124.0,125.0,132.0,129.0,127.0,121.0,126.0,127.0,34.0,-99.0,-69.0,127.0,127.0,127.0,108.0,89.0,-115.0
123.0,125.0,134.0,131.0,127.0,121.0,126.0,127.0,34.0,-99.0,-69.0,127.0,127.0,127.0,108.0,89.0,-115.0
124.0,125.0,134.0,131.0,127.0,121.0,126.0,127.0,34.0,-99.0,-69.0,127.0,127.0,127.0,108.0,89.0,-115.0
124.0,125.0,134.0,131.0,127.0,121.0,126.0,127.0,34.0,-99.0,-69.0,127.0,127.0,127.0,108.0,89.0,-115.0
124.0,125.0,134.0,130.0,127.0,120.0,126.0,127.0,34.0,-99.0,-69.0,127.0,127.0,127.0,108.0,89.0,-115.0
124.0,125.0,134.0,130.0,127.0,120.0,126.0,127.0,34.0,-99.0,-69.0,127.0,127.0,127.0,108.0,89.0,-115.0
124.0,125.0,134.0,130.0,127.0,120.0,126.0,127.0,34.0,-99.0,-69.0,127.0,127.0,127.0,108.0,89.0,-115.0
125.0,126.0,125.0,130.0,126.0,121.0,126.0,127.0,34.0,-100.0,-69.0,127.0,127.0,127.0,108.0,89.0,-115.0
125.0,126.0,125.0,129.0,126.0,121.0,126.0,127.0,34.0,-100.0,-69.0,127.0,127.0,127.0,108.0,89.0,-115.0
125.0,125.0,124.0,129.0,126.0,120.0,126.0,127.0,34.0,-100.0,-69.0,127.0,127.0,127.0,108.0,89.0,-115.0
125.0,126.0,127.0,128.0,127.0,120.0,126.0,127.0,34.0,-100.0,-69.0,127.0,127.0,127.0,108.0,89.0,-115.0
125.0,126.0,126.0,128.0,127.0,120.0,126.0,127.0,34.0,-100.0,-69.0,127.0,127.0,127.0,108.0,89.0,-115.0
125.0,126.0,127.0,129.0,127.0,120.0,126.0,127.0,34.0,-100.0,-69.0,127.0,127.0,127.0,108.0,89.0,-115.0
125.0,125.0,127.0,129.0,127.0,119.0,126.0,127.0,34.0,-100.0,-69.0,127.0,127.0,127.0,108.0,89.0,-115.0
125.0,125.0,126.0,129.0,127.0,119.0,126.0,127.0,34.0,-100.0,-69.0,127.0,127.0,127.0,108.0,89.0,-115.0
125.0,125.0,126.0,130.0,127.0,119.0,126.0,127.0,34.0,-100.0,-69.0,127.0,127.0,127.0,108.0,89.0,-115.0
125.0,126.0,125.0,130.0,127.0,120.0,126.0,127.0,34.0,-100.0,-69.0,127.0,127.0,127.0,108.0,89.0,-115.0
124.0,126.0,125.0,129.0,127.0,121.0,127.0,128.0,34.0,-101.0,-69.0,127.0,127.0,127.0,108.0,89.0,-115.0
124.0,126.0,125.0,129.0,127.0,121.0,127.0,128.0,34.0,-101.0,-69.0,127.0,127.0,127.0,108.0,89.0,-115.0
124.0,126.0,125.0,129.0,127.0,119.0,127.0,127.0,34.0,-101.0,-69.0,127.0,127.0,127.0,108.0,89.0,-115.0
124.0,126.0,125.0,129.0,127.0,119.0,127.0,127.0,34.0,-101.0,-69.0,127.0,127.0,127.0,108.0,89.0,-115.0
124.0,126.0,125.0,129.0,127.0,119.0,127.0,127.0,34.0,-101.0,-69.0,127.0,127.0,127.0,108.0,89.0,-115.0
124.0,126.0,125.0,129.0,127.0,119.0,127.0,127.0,34.0,-101.0,-69.0,127.0,127.0,127.0,108.0,89.0,-115.0
124.0,126.0,125.0,129.0,127.0,119.0,127.0,127.0,34.0,-101.0,-69.0,127.0,127.0,127.0,108.0,89.0,-115.0
124.0,126.0,125.0,129.0,127.0,119.0,127.0,127.0,34.0,-101.0,-69.0,127.0,127.0,127.0,108.0,89.0,-115.0
124.0,126.0,125.0,129.0,127.0,120.0,127.0,127.0,34.0,-101.0,-69.0,127.0,127.0,127.0,108.0,89.0,-115.0
124.0,126.0,125.0,129.0,127.0,121.0,127.0,127.0,34.0,-101.0,-69.0,127.0,127.0,127.0,108.0,89.0,-115.0
125.0,125.0,124.0,128.0,126.0,121.0,126.0,128.0,34.0,-101.0,-68.0,127.0,127.0,127.0,108.0,89.0,-115.0
125.0,125.0,123.0,125.0,126.0,119.0,127.0,128.0,34.0,-101.0,-68.0,127.0,127.0,127.0,108.0,89.0,-115.0
125.0,125.0,123.0,126.0,126.0,120.0,127.0,128.0,34.0,-101.0,-68.0,127.0,127.0,127.0,108.0,89.0,-115.0
125.0,125.0,123.0,126.0,126.0,120.0,127.0,128.0,34.0,-101.0,-68.0,127.0,127.0,127.0,108.0,89.0,-115.0
125.0,125.0,123.0,126.0,126.0,119.0,127.0,128.0,34.0,-101.0,-68.0,127.0,127.0,127.0,108.0,89.0,-115.0
125.0,125.0,124.0,126.0,126.0,119.0,127.0,128.0,34.0,-101.0,-68.0,127.0,127.0,127.0,108.0,89.0,-115.0
125.0,125.0,124.0,126.0,126.0,119.0,127.0,128.0,34.0,-101.0,-68.0,127.0,127.0,127.0,108.0,89.0,-115.0
125.0,125.0,124.0,127.0,126.0,120.0,126.0,128.0,34.0,-101.0,-68.0,127.0,127.0,127.0,108.0,89.0,-115.0
125.0,126.0,124.0,127.0,126.0,121.0,126.0,128.0,34.0,-101.0,-68.0,127.0,127.0,127.0,108.0,89.0,-115.0
125.0,125.0,124.0,128.0,126.0,121.0,126.0,128.0,34.0,-101.0,-68.0,127.0,127.0,127.0,108.0,89.0,-115.0
125.0,125.0,121.0,132.0,128.0,116.0,127.0,128.0,34.0,-100.0,-68.0,127.0,127.0,127.0,108.0,89.0,-115.0
125.0,125.0,120.0,132.0,128.0,116.0,127.0,128.0,34.0,-100.0,-68.0,127.0,127.0,127.0,108.0,89.0,-115.0
125.0,125.0,120.0,131.0,128.0,116.0,127.0,128.0,34.0,-100.0,-68.0,127.0,127.0,127.0,108.0,89.0,-115.0
125.0,125.0,120.0,131.0,128.0,116.0,127.0,128.0,34.0,-100.0,-68.0,127.0,127.0,127.0,108.0,89.0,-115.0
125.0,125.0,120.0,131.0,128.0,116.0,127.0,128.0,34.0,-100.0,-68.0,127.0,127.0,127.0,108.0,89.0,-115.0
125.0,125.0,120.0,131.0,128.0,116.0,127.0,128.0,34.0,-100.0,-68.0,127.0,127.0,127.0,108.0,89.0,-115.0
125.0,125.0,120.0,130.0,128.0,116.0,127.0,128.0,34.0,-100.0,-68.0,127.0,127.0,127.0,108.0,89.0,-115.0
125.0,125.0,120.0,130.0,128.0,116.0,127.0,128.0,34.0,-100.0,-68.0,127.0,127.0,127.0,108.0,89.0,-115.0
125.0,125.0,120.0,130.0,128.0,116.0,127.0,128.0,34.0,-100.0,-68.0,127.0,127.0,127.0,108.0,89.0,-115.0
126.0,125.0,120.0,129.0,128.0,116.0,127.0,128.0,34.0,-100.0,-68.0,127.0,127.0,127.0,108.0,89.0,-115.0
127.0,125.0,119.0,127.0,126.0,117.0,127.0,127.0,34.0,-100.0,-68.0,127.0,127.0,127.0,108.0,89.0,-115.0
128.0,125.0,120.0,127.0,126.0,117.0,127.0,128.0,34.0,-100.0,-68.0,127.0,127.0,127.0,108.0,89.0,-115.0
127.0,125.0,120.0,127.0,126.0,117.0,127.0,128.0,34.0,-100.0,-68.0,127.0,127.0,127.0,108.0,89.0,-115.0
127.0,125.0,120.0,127.0,126.0,116.0,127.0,128.0,34.0,-100.0,-68.0,127.0,127.0,127.0,108.0,89.0,-115.0
127.0,124.0,120.0,127.0,126.0,116.0,127.0,128.0,34.0,-100.0,-68.0,127.0,127.0,127.0,108.0,89.0,-115.0
127.0,124.0,120.0,127.0,126.0,116.0,127.0,128.0,34.0,-100.0,-68.0,127.0,127.0,127.0,108.0,89.0,-115.0
127.0,124.0,121.0,127.0,126.0,116.0,127.0,128.0,34.0,-100.0,-68.0,127.0,127.0,127.0,108.0,89.0,-115.0
127.0,124.0,121.0,127.0,126.0,116.0,127.0,128.0,34.0,-100.0,-68.0,127.0,127.0,127.0,108.0,89.0,-115.0
127.0,125.0,121.0,127.0,126.0,116.0,127.0,128.0,34.0,-100.0,-68.0,127.0,127.0,127.0,108.0,89.0,-115.0
127.0,125.0,119.0,127.0,126.0,117.0,127.0,128.0,34.0,-100.0,-68.0,127.0,127.0,127.0,108.0,89.0,-115.0
126.0,125.0,120.0,127.0,127.0,118.0,126.0,127.0,34.0,-99.0,-68.0,127.0,127.0,127.0,108.0,89.0,-115.0
126.0,124.0,120.0,127.0,126.0,117.0,126.0,127.0,34.0,-99.0,-68.0,127.0,127.0,127.0,108.0,89.0,-115.0
125.0,124.0,120.0,126.0,126.0,117.0,126.0,127.0,34.0,-99.0,-68.0,127.0,127.0,127.0,108.0,89.0,-115.0
125.0,124.0,120.0,127.0,126.0,117.0,126.0,127.0,34.0,-99.0,-68.0,127.0,127.0,127.0,108.0,89.0,-115.0
125.0,124.0,121.0,127.0,126.0,117.0,126.0,127.0,34.0,-99.0,-68.0,127.0,127.0,127.0,108.0,89.0,-115.0
125.0,124.0,121.0,127.0,126.0,116.0,126.0,128.0,34.0,-99.0,-68.0,127.0,127.0,127.0,108.0,89.0,-115.0
125.0,124.0,121.0,127.0,126.0,117.0,126.0,127.0,34.0,-99.0,-68.0,127.0,127.0,127.0,108.0,89.0,-115.0
126.0,125.0,120.0,127.0,127.0,118.0,126.0,127.0,34.0,-99.0,-68.0,127.0,127.0,127.0,108.0,89.0,-115.0
126.0,125.0,120.0,127.0,127.0,118.0,126.0,127.0,34.0,-99.0,-68.0,127.0,127.0,127.0,108.0,89.0,-115.0
126.0,125.0,120.0,127.0,126.0,118.0,126.0,127.0,34.0,-99.0,-68.0,127.0,127.0,127.0,108.0,89.0,-115.0
124.0,125.0,122.0,128.0,127.0,120.0,126.0,128.0,34.0,-99.0,-68.0,127.0,127.0,127.0,108.0,89.0,-115.0
124.0,125.0,121.0,128.0,127.0,121.0,126.0,128.0,34.0,-99.0,-68.0,127.0,127.0,127.0,108.0,89.0,-115.0
124.0,125.0,121.0,128.0,127.0,121.0,126.0,128.0,34.0,-99.0,-68.0,127.0,127.0,127.0,108.0,89.0,-115.0
124.0,125.0,122.0,128.0,127.0,121.0,126.0,128.0,34.0,-99.0,-68.0,127.0,127.0,127.0,108.0,89.0,-115.0
124.0,124.0,122.0,127.0,127.0,120.0,126.0,128.0,34.0,-99.0,-68.0,127.0,127.0,127.0,108.0,89.0,-115.0
124.0,124.0,122.0,127.0,126.0,120.0,126.0,127.0,34.0,-99.0,-68.0,127.0,127.0,127.0,108.0,89.0,-115.0
124.0,125.0,122.0,128.0,127.0,119.0,126.0,128.0,34.0,-99.0,-68.0,127.0,127.0,127.0,108.0,89.0,-115.0
124.0,125.0,122.0,128.0,127.0,120.0,126.0,127.0,34.0,-99.0,-68.0,127.0,127.0,127.0,108.0,89.0,-115.0
124.0,125.0,122.0,128.0,127.0,120.0,126.0,128.0,34.0,-99.0,-68.0,127.0,127.0,127.0,108.0,89.0,-115.0
124.0,125.0,122.0,128.0,127.0,120.0,126.0,128.0,34.0,-99.0,-68.0,127.0,127.0,127.0,108.0,89.0,-115.0
123.0,124.0,122.0,127.0,127.0,119.0,126.0,127.0,34.0,-99.0,-68.0,127.0,127.0,127.0,108.0,89.0,-115.0
123.0,124.0,122.0,126.0,127.0,119.0,126.0,127.0,34.0,-99.0,-68.0,127.0,127.0,127.0,108.0,89.0,-115.0
123.0,124.0,122.0,127.0,127.0,119.0,126.0,127.0,34.0,-99.0,-68.0,127.0,127.0,127.0,108.0,89.0,-115.0
123.0,124.0,122.0,127.0,127.0,119.0,126.0,127.0,34.0,-99.0,-68.0,127.0,127.0,127.0,108.0,89.0,-115.0
123.0,124.0,122.0,127.0,127.0,119.0,126.0,127.0,34.0,-99.0,-68.0,127.0,127.0,127.0,108.0,89.0,-115.0
123.0,124.0,122.0,127.0,128.0,118.0,126.0,127.0,34.0,-99.0,-68.0,127.0,127.0,127.0,108.0,89.0,-115.0
123.0,124.0,122.0,127.0,128.0,118.0,126.0,127.0,34.0,-99.0,-68.0,127.0,127.0,127.0,108.0,89.0,-115.0
123.0,124.0,122.0,127.0,127.0,118.0,126.0,127.0,34.0,-99.0,-68.0,127.0,127.0,127.0,108.0,89.0,-115.0
123.0,124.0,122.0,127.0,127.0,118.0,126.0,127.0,34.0,-99.0,-68.0,127.0,127.0,127.0,108.0,89.0,-115.0
123.0,124.0,122.0,126.0,127.0,118.0,126.0,127.0,34.0,-99.0,-68.0,127.0,127.0,127.0,108.0,89.0,-115.0
124.0,126.0,124.0,126.0,127.0,119.0,126.0,128.0,34.0,-100.0,-68.0,127.0,127.0,127.0,108.0,89.0,-115.0
124.0,125.0,124.0,126.0,127.0,119.0,126.0,128.0,34.0,-100.0,-68.0,127.0,127.0,127.0,108.0,89.0,-115.0
124.0,125.0,125.0,126.0,127.0,119.0,126.0,128.0,34.0,-100.0,-68.0,127.0,127.0,127.0,108.0,89.0,-115.0
124.0,125.0,125.0,126.0,127.0,119.0,126.0,128.0,34.0,-100.0,-68.0,127.0,127.0,127.0,108.0,89.0,-115.0
123.0,125.0,124.0,127.0,127.0,119.0,126.0,127.0,34.0,-100.0,-68.0,127.0,127.0,127.0,108.0,89.0,-115.0
123.0,125.0,125.0,127.0,127.0,119.0,126.0,127.0,34.0,-100.0,-68.0,127.0,127.0,127.0,108.0,89.0,-115.0
123.0,125.0,125.0,127.0,127.0,118.0,126.0,127.0,34.0,-100.0,-68.0,127.0,127.0,127.0,108.0,89.0,-115.0
123.0,125.0,125.0,126.0,127.0,118.0,126.0,127.0,34.0,-100.0,-68.0,127.0,127.0,127.0,108.0,89.0,-115.0
123.0,125.0,125.0,126.0,127.0,118.0,126.0,127.0,34.0,-100.0,-68.0,127.0,127.0,127.0,108.0,89.0,-115.0
123.0,126.0,124.0,126.0,127.0,119.0,126.0,127.0,34.0,-100.0,-68.0,127.0,127.0,127.0,108.0,89.0,-115.0
124.0,125.0,126.0,125.0,126.0,120.0,126.0,127.0,33.0,-100.0,-68.0,127.0,127.0,127.0,108.0,89.0,-115.0
124.0,125.0,126.0,125.0,126.0,121.0,126.0,127.0,33.0,-100.0,-68.0,127.0,127.0,127.0,108.0,89.0,-115.0
124.0,125.0,126.0,125.0,126.0,121.0,126.0,127.0,33.0,-100.0,-68.0,127.0,127.0,127.0,108.0,89.0,-115.0
124.0,124.0,126.0,125.0,126.0,117.0,126.0,127.0,33.0,-100.0,-68.0,127.0,127.0,127.0,108.0,89.0,-115.0
124.0,124.0,126.0,125.0,126.0,118.0,126.0,127.0,33.0,-100.0,-68.0,127.0,127.0,127.0,108.0,89.0,-115.0
124.0,125.0,126.0,125.0,127.0,119.0,126.0,127.0,33.0,-100.0,-68.0,127.0,127.0,127.0,108.0,89.0,-115.0
124.0,125.0,126.0,125.0,126.0,119.0,126.0,127.0,33.0,-100.0,-68.0,127.0,127.0,127.0,108.0,89.0,-115.0
124.0,125.0,126.0,125.0,126.0,119.0,126.0,127.0,33.0,-100.0,-68.0,127.0,127.0,127.0,108.0,89.0,-115.0
124.0,125.0,126.0,125.0,127.0,120.0,126.0,127.0,33.0,-100.0,-68.0,127.0,127.0,127.0,108.0,89.0,-115.0
124.0,125.0,126.0,125.0,127.0,120.0,126.0,127.0,33.0,-100.0,-68.0,127.0,127.0,127.0,108.0,89.0,-115.0
123.0,124.0,127.0,127.0,126.0,118.0,127.0,127.0,33.0,-100.0,-69.0,127.0,127.0,127.0,108.0,89.0,-115.0
123.0,124.0,128.0,127.0,126.0,118.0,127.0,127.0,33.0,-100.0,-69.0,127.0,127.0,127.0,108.0,89.0,-115.0
123.0,125.0,127.0,126.0,126.0,118.0,127.0,127.0,33.0,-100.0,-69.0,127.0,127.0,127.0,108.0,89.0,-115.0
123.0,125.0,127.0,126.0,126.0,118.0,127.0,127.0,33.0,-100.0,-69.0,127.0,127.0,127.0,108.0,89.0,-115.0
123.0,125.0,127.0,126.0,126.0,119.0,126.0,127.0,33.0,-100.0,-69.0,127.0,127.0,127.0,108.0,89.0,-115.0
123.0,125.0,127.0,126.0,126.0,119.0,126.0,127.0,33.0,-100.0,-69.0,127.0,127.0,127.0,108.0,89.0,-115.0
123.0,125.0,127.0,126.0,126.0,119.0,127.0,127.0,33.0,-100.0,-69.0,127.0,127.0,127.0,108.0,89.0,-115.0
123.0,125.0,127.0,126.0,126.0,119.0,126.0,127.0,33.0,-100.0,-69.0,127.0,127.0,127.0,108.0,89.0,-115.0
123.0,125.0,127.0,126.0,126.0,119.0,127.0,127.0,33.0,-100.0,-69.0,127.0,127.0,127.0,108.0,89.0,-115.0
123.0,125.0,127.0,126.0,126.0,118.0,127.0,127.0,33.0,-100.0,-69.0,127.0,127.0,127.0,108.0,89.0,-115.0
124.0,124.0,128.0,126.0,127.0,117.0,127.0,127.0,33.0,-99.0,-69.0,127.0,127.0,127.0,108.0,89.0,-115.0
124.0,124.0,128.0,126.0,127.0,115.0,127.0,127.0,33.0,-99.0,-69.0,127.0,127.0,127.0,108.0,89.0,-115.0
124.0,124.0,128.0,126.0,127.0,115.0,127.0,127.0,33.0,-99.0,-69.0,127.0,127.0,127.0,108.0,89.0,-115.0
124.0,124.0,128.0,126.0,127.0,115.0,127.0,127.0,33.0,-99.0,-69.0,127.0,127.0,127.0,108.0,89.0,-115.0
124.0,124.0,128.0,126.0,127.0,115.0,127.0,127.0,33.0,-99.0,-69.0,127.0,127.0,127.0,108.0,89.0,-115.0
124.0,124.0,128.0,126.0,127.0,115.0,127.0,127.0,33.0,-99.0,-69.0,127.0,127.0,127.0,108.0,89.0,-115.0
124.0,124.0,128.0,126.0,127.0,117.0,127.0,127.0,33.0,-99.0,-69.0,127.0,127.0,127.0,108.0,89.0,-115.0
124.0,124.0,128.0,126.0,127.0,117.0,126.0,127.0,33.0,-99.0,-69.0,127.0,127.0,127.0,108.0,89.0,-115.0
124.0,124.0,128.0,126.0,127.0,117.0,127.0,127.0,33.0,-99.0,-69.0,127.0,127.0,127.0,108.0,89.0,-115.0
124.0,124.0,128.0,126.0,127.0,117.0,127.0,127.0,33.0,-99.0,-69.0,127.0,127.0,127.0,108.0,89.0,-115.0
124.0,125.0,129.0,126.0,126.0,118.0,126.0,127.0,32.0,-99.0,-69.0,127.0,127.0,127.0,108.0,89.0,-115.0
124.0,125.0,129.0,126.0,126.0,118.0,126.0,127.0,32.0,-99.0,-69.0,127.0,127.0,127.0,108.0,89.0,-115.0
124.0,125.0,129.0,126.0,126.0,118.0,126.0,127.0,32.0,-99.0,-69.0,127.0,127.0,127.0,108.0,89.0,-115.0
124.0,125.0,129.0,126.0,126.0,118.0,126.0,127.0,32.0,-99.0,-69.0,127.0,127.0,127.0,108.0,89.0,-115.0
124.0,125.0,129.0,126.0,126.0,118.0,126.0,127.0,32.0,-99.0,-69.0,127.0,127.0,127.0,108.0,89.0,-115.0
124.0,125.0,129.0,126.0,126.0,118.0,126.0,127.0,32.0,-99.0,-69.0,127.0,127.0,127.0,108.0,89.0,-115.0
124.0,125.0,129.0,126.0,126.0,118.0,126.0,127.0,32.0,-99.0,-69.0,127.0,127.0,127.0,108.0,89.0,-115.0
124.0,125.0,130.0,125.0,126.0,117.0,126.0,127.0,32.0,-99.0,-69.0,127.0,127.0,127.0,108.0,89.0,-115.0
124.0,124.0,130.0,125.0,126.0,117.0,126.0,127.0,32.0,-99.0,-69.0,127.0,127.0,127.0,108.0,89.0,-115.0
124.0,124.0,130.0,125.0,126.0,117.0,126.0,127.0,32.0,-99.0,-69.0,127.0,127.0,127.0,108.0,89.0,-115.0
124.0,126.0,127.0,126.0,127.0,118.0,126.0,127.0,32.0,-100.0,-69.0,127.0,127.0,127.0,108.0,89.0,-115.0
124.0,125.0,127.0,126.0,127.0,118.0,126.0,127.0,32.0,-100.0,-69.0,127.0,127.0,127.0,108.0,89.0,-115.0
124.0,125.0,127.0,126.0,127.0,118.0,126.0,127.0,32.0,-100.0,-69.0,127.0,127.0,127.0,108.0,89.0,-115.0
124.0,125.0,127.0,126.0,127.0,118.0,126.0,127.0,32.0,-100.0,-69.0,127.0,127.0,127.0,108.0,89.0,-115.0
124.0,125.0,128.0,126.0,127.0,118.0,127.0,127.0,32.0,-100.0,-69.0,127.0,127.0,127.0,108.0,89.0,-115.0
124.0,125.0,128.0,126.0,127.0,117.0,127.0,127.0,32.0,-100.0,-69.0,127.0,127.0,127.0,108.0,89.0,-115.0
124.0,125.0,128.0,126.0,127.0,117.0,127.0,127.0,32.0,-100.0,-69.0,127.0,127.0,127.0,108.0,89.0,-115.0
124.0,125.0,128.0,126.0,127.0,117.0,127.0,127.0,32.0,-100.0,-69.0,127.0,127.0,127.0,108.0,89.0,-115.0
124.0,124.0,128.0,126.0,127.0,117.0,127.0,127.0,32.0,-100.0,-69.0,127.0,127.0,127.0,108.0,89.0,-115.0
124.0,126.0,127.0,127.0,127.0,118.0,126.0,127.0,32.0,-100.0,-69.0,127.0,127.0,127.0,108.0,89.0,-115.0
125.0,125.0,127.0,127.0,127.0,118.0,127.0,128.0,32.0,-100.0,-69.0,127.0,127.0,127.0,109.0,89.0,-115.0
125.0,125.0,127.0,127.0,127.0,118.0,127.0,128.0,32.0,-100.0,-69.0,127.0,127.0,127.0,109.0,89.0,-115.0
125.0,125.0,127.0,127.0,127.0,118.0,127.0,128.0,32.0,-100.0,-69.0,127.0,127.0,127.0,109.0,89.0,-115.0
124.0,125.0,127.0,127.0,127.0,118.0,127.0,128.0,32.0,-100.0,-69.0,127.0,127.0,127.0,109.0,89.0,-115.0
124.0,124.0,127.0,127.0,127.0,117.0,127.0,128.0,32.0,-100.0,-69.0,127.0,127.0,127.0,109.0,89.0,-115.0
124.0,124.0,127.0,127.0,127.0,117.0,127.0,128.0,32.0,-100.0,-69.0,127.0,127.0,127.0,109.0,89.0,-115.0
124.0,124.0,127.0,126.0,127.0,117.0,127.0,128.0,32.0,-100.0,-69.0,127.0,127.0,127.0,109.0,89.0,-115.0
124.0,124.0,127.0,126.0,127.0,117.0,127.0,128.0,32.0,-100.0,-69.0,127.0,127.0,127.0,109.0,89.0,-115.0
125.0,125.0,126.0,127.0,127.0,119.0,127.0,128.0,32.0,-100.0,-69.0,127.0,127.0,127.0,109.0,89.0,-115.0
125.0,125.0,127.0,127.0,127.0,118.0,127.0,128.0,32.0,-100.0,-69.0,127.0,127.0,127.0,109.0,89.0,-115.0
125.0,126.0,127.0,127.0,127.0,119.0,127.0,128.0,32.0,-99.0,-68.0,127.0,127.0,127.0,109.0,89.0,-115.0
124.0,126.0,127.0,127.0,127.0,119.0,127.0,128.0,32.0,-99.0,-68.0,127.0,127.0,127.0,109.0,89.0,-115.0
124.0,126.0,127.0,127.0,127.0,119.0,127.0,128.0,32.0,-99.0,-68.0,127.0,127.0,127.0,109.0,89.0,-115.0
125.0,126.0,126.0,127.0,127.0,120.0,126.0,128.0,32.0,-99.0,-68.0,127.0,127.0,127.0,109.0,89.0,-115.0
124.0,126.0,126.0,127.0,127.0,120.0,127.0,128.0,32.0,-99.0,-68.0,127.0,127.0,127.0,109.0,89.0,-115.0
124.0,126.0,127.0,127.0,127.0,119.0,127.0,128.0,32.0,-99.0,-68.0,127.0,127.0,127.0,109.0,89.0,-115.0
124.0,125.0,127.0,127.0,127.0,119.0,127.0,128.0,32.0,-99.0,-68.0,127.0,127.0,127.0,109.0,89.0,-115.0
124.0,125.0,127.0,127.0,127.0,118.0,127.0,128.0,32.0,-99.0,-68.0,127.0,127.0,127.0,109.0,89.0,-115.0
124.0,125.0,127.0,127.0,127.0,118.0,127.0,128.0,32.0,-99.0,-68.0,127.0,127.0,127.0,109.0,89.0,-115.0
124.0,125.0,127.0,127.0,127.0,118.0,127.0,128.0,32.0,-99.0,-68.0,127.0,127.0,127.0,109.0,89.0,-115.0
125.0,125.0,126.0,128.0,127.0,116.0,127.0,128.0,32.0,-99.0,-68.0,127.0,127.0,127.0,109.0,89.0,-115.0
125.0,124.0,126.0,128.0,127.0,116.0,127.0,128.0,32.0,-99.0,-68.0,127.0,127.0,127.0,109.0,89.0,-115.0
125.0,124.0,126.0,128.0,127.0,116.0,127.0,128.0,32.0,-99.0,-68.0,127.0,127.0,127.0,109.0,89.0,-115.0
125.0,124.0,126.0,128.0,127.0,116.0,127.0,128.0,32.0,-99.0,-68.0,127.0,127.0,127.0,109.0,89.0,-115.0
125.0,124.0,126.0,128.0,127.0,116.0,127.0,128.0,32.0,-99.0,-68.0,127.0,127.0,127.0,109.0,89.0,-115.0
125.0,124.0,126.0,128.0,127.0,115.0,127.0,128.0,32.0,-99.0,-68.0,127.0,127.0,127.0,109.0,89.0,-115.0
125.0,125.0,126.0,128.0,127.0,116.0,127.0,128.0,32.0,-99.0,-68.0,127.0,127.0,127.0,109.0,89.0,-115.0
125.0,125.0,126.0,128.0,127.0,117.0,127.0,128.0,32.0,-99.0,-68.0,127.0,127.0,127.0,109.0,89.0,-115.0
125.0,125.0,126.0,128.0,127.0,116.0,127.0,128.0,32.0,-99.0,-68.0,127.0,127.0,127.0,109.0,89.0,-115.0
125.0,125.0,126.0,128.0,127.0,116.0,127.0,128.0,32.0,-99.0,-68.0,127.0,127.0,127.0,109.0,89.0,-115.0
124.0,125.0,126.0,127.0,127.0,119.0,127.0,128.0,32.0,-99.0,-68.0,127.0,127.0,127.0,109.0,89.0,-115.0
125.0,125.0,126.0,127.0,127.0,120.0,126.0,128.0,32.0,-99.0,-68.0,127.0,127.0,127.0,109.0,89.0,-115.0
125.0,125.0,126.0,127.0,127.0,120.0,126.0,128.0,32.0,-99.0,-68.0,127.0,127.0,127.0,109.0,89.0,-115.0
125.0,125.0,126.0,127.0,127.0,119.0,127.0,128.0,32.0,-99.0,-68.0,127.0,127.0,127.0,109.0,89.0,-115.0
124.0,125.0,126.0,127.0,127.0,120.0,126.0,128.0,32.0,-99.0,-68.0,127.0,127.0,127.0,109.0,89.0,-115.0
125.0,125.0,126.0,127.0,127.0,119.0,127.0,128.0,32.0,-99.0,-68.0,127.0,127.0,127.0,109.0,89.0,-115.0
125.0,125.0,126.0,127.0,127.0,119.0,127.0,128.0,32.0,-99.0,-68.0,127.0,127.0,127.0,109.0,89.0,-115.0
125.0,125.0,126.0,127.0,127.0,118.0,127.0,128.0,32.0,-99.0,-68.0,127.0,127.0,127.0,109.0,89.0,-115.0
125.0,125.0,126.0,127.0,127.0,119.0,126.0,128.0,32.0,-99.0,-68.0,127.0,127.0,127.0,109.0,89.0,-115.0
124.0,125.0,126.0,127.0,127.0,119.0,127.0,128.0,32.0,-99.0,-68.0,127.0,127.0,127.0,109.0,89.0,-115.0
124.0,123.0,128.0,127.0,127.0,116.0,127.0,128.0,32.0,-99.0,-67.0,127.0,127.0,127.0,109.0,89.0,-115.0
124.0,123.0,128.0,127.0,127.0,116.0,127.0,128.0,32.0,-99.0,-67.0,127.0,127.0,127.0,109.0,89.0,-115.0
124.0,123.0,128.0,127.0,127.0,116.0,127.0,128.0,32.0,-99.0,-67.0,127.0,127.0,127.0,109.0,89.0,-115.0
124.0,124.0,128.0,127.0,127.0,117.0,127.0,128.0,32.0,-99.0,-67.0,127.0,127.0,127.0,109.0,89.0,-115.0
124.0,123.0,128.0,127.0,127.0,114.0,127.0,127.0,32.0,-99.0,-67.0,127.0,127.0,127.0,109.0,89.0,-115.0
124.0,123.0,128.0,127.0,127.0,114.0,127.0,127.0,32.0,-99.0,-67.0,127.0,127.0,127.0,109.0,89.0,-115.0
124.0,123.0,128.0,127.0,127.0,114.0,127.0,127.0,32.0,-99.0,-67.0,127.0,127.0,127.0,109.0,89.0,-115.0
124.0,124.0,127.0,127.0,127.0,116.0,127.0,127.0,32.0,-99.0,-67.0,127.0,127.0,127.0,109.0,89.0,-115.0
124.0,124.0,127.0,127.0,127.0,116.0,127.0,128.0,32.0,-99.0,-67.0,127.0,127.0,127.0,109.0,89.0,-115.0
124.0,124.0,128.0,127.0,127.0,116.0,127.0,128.0,32.0,-99.0,-67.0,127.0,127.0,127.0,109.0,89.0,-115.0
124.0,124.0,127.0,127.0,126.0,115.0,127.0,128.0,32.0,-99.0,-67.0,127.0,127.0,127.0,109.0,89.0,-115.0
124.0,124.0,127.0,127.0,126.0,115.0,127.0,128.0,32.0,-99.0,-67.0,127.0,127.0,127.0,109.0,89.0,-115.0
124.0,124.0,127.0,126.0,126.0,114.0,127.0,128.0,32.0,-99.0,-67.0,127.0,127.0,127.0,109.0,89.0,-115.0
124.0,124.0,127.0,126.0,126.0,114.0,127.0,127.0,32.0,-99.0,-67.0,127.0,127.0,127.0,109.0,89.0,-115.0
124.0,124.0,126.0,126.0,126.0,114.0,127.0,127.0,32.0,-99.0,-67.0,127.0,127.0,127.0,109.0,89.0,-115.0
124.0,124.0,126.0,126.0,126.0,115.0,127.0,127.0,32.0,-99.0,-67.0,127.0,127.0,127.0,109.0,89.0,-115.0
124.0,124.0,126.0,126.0,126.0,114.0,127.0,127.0,32.0,-99.0,-67.0,127.0,127.0,127.0,109.0,89.0,-115.0
124.0,124.0,126.0,126.0,126.0,115.0,127.0,127.0,32.0,-99.0,-67.0,127.0,127.0,127.0,109.0,89.0,-115.0
124.0,124.0,126.0,126.0,126.0,115.0,127.0,127.0,32.0,-99.0,-67.0,127.0,127.0,127.0,109.0,89.0,-115.0
124.0,124.0,127.0,127.0,126.0,114.0,127.0,127.0,32.0,-99.0,-67.0,127.0,127.0,127.0,109.0,89.0,-115.0
124.0,124.0,128.0,127.0,127.0,116.0,127.0,128.0,32.0,-99.0,-67.0,127.0,127.0,127.0,109.0,89.0,-115.0
124.0,124.0,128.0,127.0,127.0,116.0,126.0,128.0,32.0,-99.0,-67.0,127.0,127.0,127.0,109.0,89.0,-115.0
124.0,125.0,126.0,127.0,127.0,117.0,127.0,128.0,32.0,-99.0,-67.0,127.0,127.0,127.0,109.0,89.0,-115.0
124.0,125.0,126.0,127.0,127.0,117.0,126.0,128.0,32.0,-99.0,-67.0,127.0,127.0,127.0,109.0,89.0,-115.0
124.0,125.0,127.0,127.0,127.0,117.0,126.0,128.0,32.0,-99.0,-67.0,127.0,127.0,127.0,109.0,89.0,-115.0
124.0,125.0,127.0,127.0,127.0,117.0,127.0,128.0,32.0,-99.0,-67.0,127.0,127.0,127.0,109.0,89.0,-115.0
124.0,125.0,127.0,127.0,127.0,117.0,127.0,128.0,32.0,-99.0,-67.0,127.0,127.0,127.0,109.0,89.0,-115.0
124.0,124.0,127.0,127.0,127.0,117.0,127.0,128.0,32.0,-99.0,-67.0,127.0,127.0,127.0,109.0,89.0,-115.0
124.0,124.0,127.0,127.0,127.0,116.0,127.0,128.0,32.0,-99.0,-67.0,127.0,127.0,127.0,109.0,89.0,-115.0
124.0,124.0,128.0,127.0,127.0,116.0,127.0,128.0,32.0,-99.0,-67.0,127.0,127.0,127.0,109.0,89.0,-115.0
124.0,125.0,127.0,128.0,127.0,117.0,126.0,127.0,32.0,-99.0,-67.0,127.0,127.0,127.0,109.0,89.0,-115.0
124.0,125.0,127.0,127.0,126.0,116.0,127.0,127.0,32.0,-99.0,-67.0,127.0,127.0,127.0,109.0,89.0,-115.0
124.0,125.0,127.0,127.0,126.0,116.0,126.0,127.0,32.0,-99.0,-67.0,127.0,127.0,127.0,109.0,89.0,-115.0
124.0,125.0,127.0,127.0,126.0,116.0,127.0,127.0,32.0,-99.0,-67.0,127.0,127.0,127.0,109.0,89.0,-115.0
124.0,125.0,127.0,127.0,126.0,116.0,127.0,127.0,32.0,-99.0,-67.0,127.0,127.0,127.0,109.0,89.0,-115.0
124.0,124.0,127.0,127.0,126.0,116.0,127.0,127.0,32.0,-99.0,-67.0,127.0,127.0,127.0,109.0,89.0,-115.0
124.0,124.0,127.0,127.0,126.0,116.0,126.0,127.0,32.0,-99.0,-67.0,127.0,127.0,127.0,109.0,89.0,-115.0
124.0,125.0,127.0,127.0,126.0,116.0,126.0,127.0,32.0,-99.0,-67.0,127.0,127.0,127.0,109.0,89.0,-115.0
124.0,125.0,127.0,128.0,127.0,117.0,126.0,127.0,32.0,-99.0,-67.0,127.0,127.0,127.0,109.0,89.0,-115.0
124.0,125.0,127.0,128.0,127.0,118.0,126.0,128.0,32.0,-99.0,-67.0,127.0,127.0,127.0,109.0,89.0,-115.0
125.0,125.0,125.0,126.0,127.0,116.0,127.0,128.0,32.0,-99.0,-67.0,127.0,127.0,127.0,109.0,89.0,-115.0
125.0,125.0,125.0,126.0,127.0,116.0,127.0,128.0,32.0,-99.0,-67.0,127.0,127.0,127.0,109.0,89.0,-115.0
125.0,125.0,125.0,126.0,127.0,116.0,127.0,128.0,32.0,-99.0,-67.0,127.0,127.0,127.0,109.0,89.0,-115.0
125.0,125.0,125.0,126.0,127.0,116.0,127.0,128.0,32.0,-99.0,-67.0,127.0,127.0,127.0,109.0,89.0,-115.0
125.0,124.0,126.0,126.0,127.0,116.0,127.0,128.0,32.0,-99.0,-67.0,127.0,127.0,127.0,109.0,89.0,-115.0
125.0,124.0,126.0,126.0,127.0,116.0,127.0,128.0,32.0,-99.0,-67.0,127.0,127.0,127.0,109.0,89.0,-115.0
125.0,124.0,126.0,126.0,127.0,115.0,127.0,128.0,32.0,-99.0,-67.0,127.0,127.0,127.0,109.0,89.0,-115.0
124.0,124.0,126.0,126.0,127.0,115.0,127.0,127.0,32.0,-99.0,-67.0,127.0,127.0,127.0,109.0,89.0,-115.0
125.0,124.0,126.0,126.0,126.0,115.0,127.0,127.0,32.0,-99.0,-67.0,127.0,127.0,127.0,109.0,89.0,-115.0
124.0,124.0,126.0,126.0,126.0,115.0,127.0,128.0,32.0,-99.0,-67.0,127.0,127.0,127.0,109.0,89.0,-115.0
124.0,124.0,127.0,127.0,126.0,115.0,126.0,127.0,32.0,-99.0,-67.0,127.0,127.0,127.0,110.0,89.0,-115.0
124.0,124.0,126.0,127.0,127.0,116.0,126.0,127.0,32.0,-99.0,-67.0,127.0,127.0,127.0,110.0,89.0,-115.0
124.0,124.0,126.0,127.0,126.0,116.0,126.0,127.0,32.0,-99.0,-67.0,127.0,127.0,127.0,110.0,89.0,-115.0
124.0,125.0,126.0,127.0,127.0,117.0,126.0,127.0,32.0,-99.0,-67.0,127.0,127.0,127.0,110.0,89.0,-115.0
124.0,125.0,126.0,127.0,127.0,117.0,126.0,127.0,32.0,-99.0,-67.0,127.0,127.0,127.0,110.0,89.0,-115.0
124.0,125.0,126.0,127.0,127.0,117.0,126.0,127.0,32.0,-99.0,-67.0,127.0,127.0,127.0,110.0,89.0,-115.0
124.0,125.0,126.0,127.0,126.0,117.0,126.0,127.0,32.0,-99.0,-67.0,127.0,127.0,127.0,110.0,89.0,-115.0
124.0,125.0,126.0,127.0,126.0,117.0,126.0,127.0,32.0,-99.0,-67.0,127.0,127.0,127.0,110.0,89.0,-115.0
124.0,125.0,127.0,127.0,127.0,116.0,126.0,127.0,32.0,-99.0,-67.0,127.0,127.0,127.0,110.0,89.0,-115.0
124.0,124.0,127.0,127.0,127.0,115.0,126.0,127.0,32.0,-99.0,-67.0,127.0,127.0,127.0,110.0,89.0,-115.0
124.0,125.0,126.0,128.0,127.0,117.0,126.0,128.0,32.0,-100.0,-67.0,127.0,127.0,127.0,110.0,89.0,-115.0
124.0,125.0,126.0,128.0,127.0,117.0,126.0,128.0,32.0,-100.0,-67.0,127.0,127.0,127.0,110.0,89.0,-115.0
124.0,125.0,126.0,128.0,127.0,117.0,126.0,128.0,32.0,-100.0,-67.0,127.0,127.0,127.0,110.0,89.0,-115.0
124.0,125.0,126.0,128.0,127.0,116.0,126.0,128.0,32.0,-100.0,-67.0,127.0,127.0,127.0,110.0,89.0,-115.0
124.0,125.0,126.0,128.0,127.0,116.0,126.0,128.0,32.0,-100.0,-67.0,127.0,127.0,127.0,110.0,89.0,-115.0
124.0,124.0,126.0,128.0,127.0,116.0,126.0,128.0,32.0,-100.0,-67.0,127.0,127.0,127.0,110.0,89.0,-115.0
124.0,124.0,126.0,128.0,127.0,116.0,126.0,128.0,32.0,-100.0,-67.0,127.0,127.0,127.0,110.0,89.0,-115.0
124.0,126.0,126.0,128.0,127.0,117.0,126.0,128.0,32.0,-100.0,-67.0,127.0,127.0,127.0,110.0,89.0,-115.0
124.0,126.0,126.0,128.0,127.0,117.0,126.0,128.0,32.0,-100.0,-67.0,127.0,127.0,127.0,110.0,89.0,-115.0
124.0,125.0,126.0,128.0,127.0,117.0,126.0,128.0,32.0,-100.0,-67.0,127.0,127.0,127.0,110.0,89.0,-115.0
125.0,125.0,126.0,127.0,127.0,118.0,126.0,128.0,32.0,-100.0,-68.0,127.0,127.0,127.0,110.0,89.0,-115.0
125.0,125.0,126.0,127.0,127.0,118.0,126.0,128.0,32.0,-100.0,-68.0,127.0,127.0,127.0,110.0,89.0,-115.0
124.0,125.0,126.0,127.0,127.0,117.0,126.0,128.0,32.0,-100.0,-68.0,127.0,127.0,127.0,110.0,89.0,-115.0
125.0,125.0,126.0,127.0,127.0,117.0,127.0,128.0,32.0,-100.0,-68.0,127.0,127.0,127.0,110.0,89.0,-115.0
124.0,125.0,126.0,127.0,127.0,117.0,127.0,128.0,32.0,-100.0,-68.0,127.0,127.0,127.0,110.0,89.0,-115.0
124.0,125.0,126.0,127.0,127.0,117.0,126.0,128.0,32.0,-100.0,-68.0,127.0,127.0,127.0,110.0,89.0,-115.0
125.0,126.0,125.0,127.0,127.0,118.0,126.0,128.0,32.0,-100.0,-68.0,127.0,127.0,127.0,110.0,89.0,-115.0
125.0,126.0,126.0,127.0,127.0,118.0,126.0,128.0,32.0,-100.0,-68.0,127.0,127.0,127.0,110.0,89.0,-115.0
125.0,126.0,126.0,127.0,127.0,118.0,126.0,128.0,32.0,-100.0,-68.0,127.0,127.0,127.0,110.0,89.0,-115.0
125.0,126.0,126.0,127.0,127.0,118.0,126.0,128.0,32.0,-100.0,-68.0,127.0,127.0,127.0,110.0,89.0,-115.0
124.0,127.0,126.0,127.0,127.0,120.0,126.0,127.0,32.0,-100.0,-68.0,127.0,127.0,127.0,110.0,89.0,-115.0
125.0,127.0,126.0,127.0,127.0,120.0,126.0,128.0,32.0,-100.0,-68.0,127.0,127.0,127.0,110.0,89.0,-115.0
125.0,126.0,126.0,127.0,127.0,120.0,126.0,128.0,32.0,-100.0,-68.0,127.0,127.0,127.0,110.0,89.0,-115.0
124.0,126.0,126.0,127.0,127.0,120.0,126.0,128.0,32.0,-100.0,-68.0,127.0,127.0,127.0,110.0,89.0,-115.0
125.0,126.0,126.0,126.0,127.0,119.0,126.0,128.0,32.0,-100.0,-68.0,127.0,127.0,127.0,110.0,89.0,-115.0
124.0,126.0,126.0,127.0,127.0,119.0,126.0,128.0,32.0,-100.0,-68.0,127.0,127.0,127.0,110.0,89.0,-115.0
124.0,126.0,127.0,127.0,127.0,118.0,126.0,128.0,32.0,-100.0,-68.0,127.0,127.0,127.0,110.0,89.0,-115.0
124.0,126.0,126.0,127.0,127.0,119.0,126.0,128.0,32.0,-100.0,-68.0,127.0,127.0,127.0,110.0,89.0,-115.0
124.0,126.0,126.0,127.0,127.0,120.0,126.0,128.0,32.0,-100.0,-68.0,127.0,127.0,127.0,110.0,89.0,-115.0
124.0,126.0,126.0,127.0,127.0,119.0,126.0,128.0,32.0,-100.0,-68.0,127.0,127.0,127.0,110.0,89.0,-115.0
124.0,124.0,128.0,127.0,126.0,115.0,127.0,128.0,32.0,-100.0,-68.0,127.0,127.0,127.0,110.0,89.0,-115.0
124.0,124.0,127.0,127.0,126.0,115.0,126.0,128.0,32.0,-100.0,-68.0,127.0,127.0,127.0,110.0,89.0,-115.0
124.0,124.0,127.0,127.0,126.0,116.0,126.0,128.0,32.0,-100.0,-68.0,127.0,127.0,127.0,110.0,89.0,-115.0
124.0,125.0,127.0,127.0,126.0,117.0,126.0,128.0,32.0,-100.0,-68.0,127.0,127.0,127.0,110.0,89.0,-115.0
124.0,124.0,128.0,127.0,126.0,115.0,127.0,128.0,32.0,-100.0,-68.0,127.0,127.0,127.0,110.0,89.0,-115.0
124.0,124.0,128.0,127.0,126.0,115.0,127.0,128.0,32.0,-100.0,-68.0,127.0,127.0,127.0,110.0,89.0,-115.0
124.0,124.0,128.0,127.0,126.0,114.0,127.0,128.0,32.0,-100.0,-68.0,127.0,127.0,127.0,110.0,89.0,-115.0
124.0,124.0,128.0,127.0,126.0,115.0,127.0,128.0,32.0,-100.0,-68.0,127.0,127.0,127.0,110.0,89.0,-115.0
124.0,124.0,128.0,127.0,126.0,115.0,127.0,128.0,32.0,-100.0,-68.0,127.0,127.0,127.0,110.0,89.0,-115.0
124.0,124.0,128.0,127.0,126.0,115.0,127.0,128.0,32.0,-100.0,-68.0,127.0,127.0,127.0,110.0,89.0,-115.0
125.0,125.0,125.0,128.0,127.0,117.0,126.0,127.0,32.0,-100.0,-68.0,127.0,127.0,127.0,110.0,89.0,-115.0
125.0,125.0,125.0,128.0,127.0,117.0,126.0,127.0,32.0,-100.0,-68.0,127.0,127.0,127.0,110.0,89.0,-115.0
125.0,125.0,125.0,128.0,127.0,117.0,126.0,127.0,32.0,-100.0,-68.0,127.0,127.0,127.0,110.0,89.0,-115.0
125.0,125.0,124.0,127.0,127.0,116.0,126.0,127.0,32.0,-100.0,-68.0,127.0,127.0,127.0,110.0,89.0,-115.0
125.0,125.0,124.0,127.0,127.0,116.0,126.0,127.0,32.0,-100.0,-68.0,127.0,127.0,127.0,110.0,89.0,-115.0
125.0,125.0,124.0,127.0,127.0,117.0,126.0,127.0,32.0,-100.0,-68.0,127.0,127.0,127.0,110.0,89.0,-115.0
125.0,125.0,124.0,127.0,127.0,118.0,126.0,127.0,32.0,-100.0,-68.0,127.0,127.0,127.0,110.0,89.0,-115.0
125.0,125.0,124.0,127.0,127.0,118.0,126.0,127.0,32.0,-100.0,-68.0,127.0,127.0,127.0,110.0,89.0,-115.0
125.0,125.0,125.0,128.0,127.0,117.0,126.0,127.0,32.0,-100.0,-68.0,127.0,127.0,127.0,110.0,89.0,-115.0
125.0,125.0,125.0,128.0,127.0,117.0,126.0,127.0,32.0,-100.0,-68.0,127.0,127.0,127.0,110.0,89.0,-115.0
125.0,126.0,124.0,126.0,127.0,119.0,126.0,128.0,32.0,-100.0,-68.0,127.0,127.0,127.0,110.0,89.0,-115.0
125.0,125.0,124.0,126.0,127.0,118.0,126.0,128.0,32.0,-100.0,-68.0,127.0,127.0,127.0,110.0,89.0,-115.0
125.0,125.0,124.0,126.0,127.0,116.0,127.0,128.0,32.0,-100.0,-68.0,127.0,127.0,127.0,110.0,89.0,-115.0
125.0,125.0,124.0,126.0,127.0,116.0,127.0,128.0,32.0,-100.0,-68.0,127.0,127.0,127.0,110.0,89.0,-115.0
125.0,125.0,124.0,126.0,127.0,117.0,126.0,128.0,32.0,-100.0,-68.0,127.0,127.0,127.0,110.0,89.0,-115.0
125.0,125.0,124.0,126.0,127.0,118.0,126.0,128.0,32.0,-100.0,-68.0,127.0,127.0,127.0,110.0,89.0,-115.0
125.0,125.0,124.0,126.0,127.0,118.0,126.0,128.0,32.0,-100.0,-68.0,127.0,127.0,127.0,110.0,89.0,-115.0
125.0,125.0,124.0,126.0,127.0,118.0,126.0,128.0,32.0,-100.0,-68.0,127.0,127.0,127.0,110.0,89.0,-115.0
125.0,126.0,124.0,126.0,127.0,119.0,126.0,128.0,32.0,-100.0,-68.0,127.0,127.0,127.0,110.0,89.0,-115.0
125.0,126.0,124.0,126.0,127.0,119.0,126.0,128.0,32.0,-100.0,-68.0,127.0,127.0,127.0,110.0,89.0,-115.0
125.0,126.0,126.0,129.0,127.0,118.0,126.0,128.0,32.0,-100.0,-68.0,127.0,127.0,127.0,110.0,89.0,-115.0
124.0,125.0,126.0,130.0,127.0,117.0,126.0,128.0,32.0,-100.0,-68.0,127.0,127.0,127.0,110.0,89.0,-115.0
124.0,125.0,126.0,130.0,127.0,117.0,126.0,128.0,32.0,-100.0,-68.0,127.0,127.0,127.0,110.0,89.0,-115.0
125.0,125.0,126.0,130.0,127.0,117.0,126.0,128.0,32.0,-100.0,-68.0,127.0,127.0,127.0,110.0,89.0,-115.0
124.0,125.0,126.0,130.0,127.0,116.0,126.0,128.0,32.0,-100.0,-68.0,127.0,127.0,127.0,110.0,89.0,-115.0
124.0,125.0,126.0,130.0,127.0,117.0,126.0,128.0,32.0,-100.0,-68.0,127.0,127.0,127.0,110.0,89.0,-115.0
124.0,125.0,126.0,129.0,127.0,117.0,126.0,128.0,32.0,-100.0,-68.0,127.0,127.0,127.0,110.0,89.0,-115.0
125.0,126.0,126.0,129.0,127.0,118.0,126.0,128.0,32.0,-100.0,-68.0,127.0,127.0,127.0,110.0,89.0,-115.0
125.0,126.0,126.0,129.0,127.0,118.0,126.0,128.0,32.0,-100.0,-68.0,127.0,127.0,127.0,110.0,89.0,-115.0
124.0,126.0,126.0,129.0,127.0,118.0,126.0,128.0,32.0,-100.0,-68.0,127.0,127.0,127.0,110.0,89.0,-115.0
125.0,125.0,125.0,126.0,127.0,118.0,126.0,128.0,32.0,-100.0,-68.0,127.0,127.0,127.0,110.0,89.0,-115.0
125.0,125.0,125.0,126.0,127.0,118.0,126.0,128.0,32.0,-100.0,-68.0,127.0,127.0,127.0,110.0,89.0,-115.0
125.0,125.0,125.0,126.0,127.0,117.0,126.0,128.0,32.0,-100.0,-68.0,127.0,127.0,127.0,110.0,89.0,-115.0
125.0,125.0,126.0,126.0,127.0,117.0,126.0,128.0,32.0,-100.0,-68.0,127.0,127.0,127.0,110.0,89.0,-115.0
125.0,125.0,126.0,126.0,127.0,117.0,126.0,128.0,32.0,-100.0,-68.0,127.0,127.0,127.0,110.0,89.0,-115.0
125.0,125.0,126.0,126.0,127.0,118.0,126.0,127.0,32.0,-100.0,-68.0,127.0,127.0,127.0,110.0,89.0,-115.0
125.0,125.0,125.0,126.0,127.0,119.0,126.0,128.0,32.0,-100.0,-68.0,127.0,127.0,127.0,110.0,89.0,-115.0
125.0,125.0,125.0,126.0,127.0,119.0,126.0,127.0,32.0,-100.0,-68.0,127.0,127.0,127.0,110.0,89.0,-115.0
125.0,125.0,125.0,126.0,127.0,119.0,126.0,128.0,32.0,-100.0,-68.0,127.0,127.0,127.0,110.0,89.0,-115.0
125.0,125.0,126.0,126.0,127.0,119.0,126.0,128.0,32.0,-100.0,-68.0,127.0,127.0,127.0,110.0,89.0,-115.0
124.0,125.0,126.0,127.0,127.0,118.0,126.0,127.0,32.0,-100.0,-68.0,127.0,127.0,127.0,110.0,89.0,-115.0
124.0,125.0,126.0,127.0,127.0,118.0,126.0,127.0,32.0,-100.0,-68.0,127.0,127.0,127.0,110.0,89.0,-115.0
124.0,124.0,126.0,127.0,127.0,118.0,126.0,127.0,32.0,-100.0,-68.0,127.0,127.0,127.0,110.0,89.0,-115.0
124.0,124.0,126.0,127.0,126.0,118.0,126.0,128.0,32.0,-100.0,-68.0,127.0,127.0,127.0,110.0,89.0,-115.0
124.0,124.0,126.0,127.0,126.0,118.0,126.0,127.0,32.0,-100.0,-68.0,127.0,127.0,127.0,110.0,89.0,-115.0
124.0,125.0,126.0,127.0,127.0,119.0,125.0,127.0,32.0,-100.0,-68.0,127.0,127.0,127.0,110.0,89.0,-115.0
124.0,125.0,126.0,127.0,127.0,119.0,125.0,127.0,32.0,-100.0,-68.0,127.0,127.0,127.0,110.0,89.0,-115.0
124.0,125.0,126.0,127.0,127.0,119.0,125.0,127.0,32.0,-100.0,-68.0,127.0,127.0,127.0,110.0,89.0,-115.0
124.0,125.0,126.0,127.0,127.0,120.0,125.0,127.0,32.0,-100.0,-68.0,127.0,127.0,127.0,110.0,89.0,-115.0
124.0,125.0,126.0,127.0,126.0,118.0,126.0,127.0,32.0,-100.0,-68.0,127.0,127.0,127.0,110.0,89.0,-115.0
125.0,125.0,128.0,127.0,127.0,119.0,126.0,128.0,32.0,-100.0,-68.0,127.0,127.0,127.0,111.0,89.0,-115.0
125.0,125.0,128.0,127.0,127.0,119.0,126.0,128.0,32.0,-100.0,-68.0,127.0,127.0,127.0,111.0,89.0,-115.0
125.0,125.0,128.0,127.0,127.0,119.0,126.0,128.0,32.0,-100.0,-68.0,127.0,127.0,127.0,111.0,89.0,-115.0
125.0,125.0,128.0,127.0,127.0,119.0,126.0,128.0,32.0,-100.0,-68.0,127.0,127.0,127.0,111.0,89.0,-115.0
125.0,124.0,128.0,127.0,127.0,118.0,126.0,128.0,32.0,-100.0,-68.0,127.0,127.0,127.0,111.0,89.0,-115.0
125.0,124.0,128.0,127.0,127.0,118.0,126.0,128.0,32.0,-100.0,-68.0,127.0,127.0,127.0,111.0,89.0,-115.0
124.0,124.0,128.0,127.0,126.0,118.0,126.0,128.0,32.0,-100.0,-68.0,127.0,127.0,127.0,111.0,89.0,-115.0
125.0,124.0,128.0,126.0,126.0,118.0,126.0,128.0,32.0,-100.0,-68.0,127.0,127.0,127.0,111.0,89.0,-115.0
