emg1,emg2,emg3,emg4,emg5,emg6,emg7,emg8,acc_x,acc_y,acc_z,gyro_x,gyro_y,gyro_z,angle_pitch,angle_roll,angle_yaw
126.0,127.0,127.0,126.0,126.0,126.0,113.0,127.0,25.0,-114.0,-70.0,127.0,127.0,127.0,118.0,85.0,110.0
126.0,126.0,127.0,126.0,126.0,126.0,113.0,127.0,25.0,-114.0,-70.0,127.0,127.0,127.0,118.0,85.0,110.0
127.0,127.0,127.0,126.0,126.0,126.0,112.0,127.0,25.0,-114.0,-70.0,127.0,127.0,127.0,118.0,85.0,110.0
126.0,127.0,127.0,126.0,126.0,126.0,112.0,127.0,25.0,-114.0,-70.0,127.0,127.0,127.0,118.0,85.0,110.0
126.0,127.0,127.0,126.0,126.0,126.0,112.0,127.0,25.0,-114.0,-70.0,127.0,127.0,127.0,118.0,85.0,110.0
126.0,127.0,127.0,126.0,127.0,126.0,112.0,127.0,25.0,-114.0,-70.0,127.0,127.0,127.0,118.0,85.0,110.0
127.0,127.0,127.0,126.0,127.0,126.0,112.0,127.0,25.0,-114.0,-70.0,127.0,127.0,127.0,118.0,85.0,110.0
127.0,127.0,127.0,126.0,127.0,126.0,112.0,127.0,25.0,-114.0,-70.0,127.0,127.0,127.0,118.0,85.0,110.0
126.0,127.0,127.0,126.0,127.0,126.0,112.0,127.0,25.0,-114.0,-70.0,127.0,127.0,127.0,118.0,85.0,110.0
126.0,127.0,127.0,126.0,126.0,126.0,112.0,127.0,25.0,-114.0,-70.0,127.0,127.0,127.0,118.0,85.0,110.0
127.0,126.0,127.0,126.0,127.0,126.0,112.0,127.0,25.0,-114.0,-70.0,127.0,127.0,127.0,118.0,85.0,110.0
126.0,127.0,127.0,126.0,127.0,126.0,112.0,127.0,25.0,-114.0,-70.0,127.0,127.0,127.0,118.0,85.0,110.0
127.0,126.0,127.0,126.0,127.0,126.0,111.0,127.0,25.0,-114.0,-70.0,127.0,127.0,127.0,118.0,85.0,110.0
127.0,126.0,127.0,126.0,127.0,126.0,112.0,127.0,25.0,-114.0,-70.0,127.0,127.0,127.0,118.0,85.0,110.0
127.0,126.0,127.0,126.0,127.0,126.0,112.0,127.0,25.0,-114.0,-70.0,127.0,127.0,127.0,118.0,85.0,110.0
127.0,126.0,127.0,126.0,127.0,126.0,111.0,127.0,25.0,-114.0,-70.0,127.0,127.0,127.0,118.0,85.0,110.0
127.0,126.0,127.0,126.0,127.0,126.0,111.0,127.0,25.0,-114.0,-70.0,127.0,127.0,127.0,118.0,85.0,110.0
127.0,126.0,127.0,126.0,127.0,126.0,111.0,127.0,25.0,-114.0,-70.0,127.0,127.0,127.0,118.0,85.0,110.0
127.0,126.0,127.0,126.0,127.0,126.0,111.0,127.0,25.0,-114.0,-70.0,127.0,127.0,127.0,118.0,85.0,110.0
127.0,126.0,127.0,126.0,127.0,126.0,111.0,127.0,25.0,-114.0,-70.0,127.0,127.0,127.0,118.0,85.0,110.0
127.0,127.0,127.0,127.0,127.0,126.0,112.0,127.0,25.0,-114.0,-70.0,127.0,127.0,127.0,118.0,85.0,110.0
127.0,127.0,127.0,127.0,127.0,126.0,112.0,127.0,25.0,-114.0,-70.0,127.0,127.0,127.0,118.0,85.0,110.0
127.0,127.0,127.0,127.0,127.0,126.0,112.0,127.0,25.0,-114.0,-70.0,127.0,127.0,127.0,118.0,85.0,110.0
127.0,127.0,127.0,127.0,127.0,126.0,112.0,127.0,25.0,-114.0,-70.0,127.0,127.0,127.0,118.0,85.0,110.0
126.0,127.0,127.0,126.0,127.0,126.0,112.0,127.0,25.0,-114.0,-70.0,127.0,127.0,127.0,118.0,85.0,110.0
126.0,127.0,127.0,126.0,127.0,126.0,112.0,127.0,25.0,-114.0,-70.0,127.0,127.0,127.0,118.0,85.0,110.0
126.0,127.0,127.0,126.0,127.0,126.0,112.0,127.0,25.0,-114.0,-70.0,127.0,127.0,127.0,118.0,85.0,110.0
126.0,127.0,127.0,126.0,127.0,126.0,111.0,127.0,25.0,-114.0,-70.0,127.0,127.0,127.0,118.0,85.0,110.0
127.0,127.0,127.0,126.0,127.0,126.0,112.0,127.0,25.0,-114.0,-70.0,127.0,127.0,127.0,118.0,85.0,110.0
127.0,127.0,127.0,126.0,127.0,126.0,112.0,127.0,25.0,-114.0,-70.0,127.0,127.0,127.0,118.0,85.0,110.0
127.0,127.0,127.0,126.0,127.0,126.0,112.0,127.0,25.0,-114.0,-70.0,127.0,127.0,127.0,118.0,85.0,110.0
127.0,127.0,127.0,126.0,127.0,126.0,112.0,127.0,25.0,-114.0,-70.0,127.0,127.0,127.0,118.0,85.0,110.0
127.0,127.0,127.0,126.0,127.0,126.0,113.0,127.0,25.0,-114.0,-70.0,127.0,127.0,127.0,118.0,85.0,110.0
127.0,127.0,127.0,126.0,127.0,126.0,112.0,127.0,25.0,-114.0,-70.0,127.0,127.0,127.0,118.0,85.0,110.0
127.0,127.0,127.0,126.0,127.0,126.0,113.0,127.0,25.0,-114.0,-70.0,127.0,127.0,127.0,118.0,85.0,110.0
127.0,127.0,127.0,126.0,126.0,126.0,113.0,127.0,25.0,-114.0,-70.0,127.0,127.0,127.0,118.0,85.0,110.0
127.0,127.0,127.0,126.0,126.0,126.0,113.0,127.0,25.0,-114.0,-70.0,127.0,127.0,127.0,118.0,85.0,110.0
127.0,127.0,127.0,126.0,126.0,126.0,113.0,127.0,25.0,-114.0,-70.0,127.0,127.0,127.0,118.0,85.0,110.0
127.0,127.0,127.0,126.0,126.0,126.0,113.0,127.0,25.0,-114.0,-70.0,127.0,127.0,127.0,118.0,85.0,110.0
126.0,127.0,127.0,126.0,127.0,126.0,112.0,127.0,25.0,-114.0,-70.0,127.0,127.0,127.0,118.0,85.0,110.0
127.0,127.0,127.0,125.0,127.0,126.0,113.0,127.0,25.0,-114.0,-70.0,127.0,127.0,127.0,118.0,85.0,110.0
127.0,126.0,127.0,125.0,127.0,126.0,113.0,127.0,25.0,-114.0,-70.0,127.0,127.0,127.0,118.0,85.0,110.0
127.0,126.0,127.0,125.0,126.0,127.0,112.0,127.0,25.0,-114.0,-70.0,127.0,127.0,127.0,118.0,85.0,110.0
127.0,126.0,127.0,126.0,127.0,126.0,113.0,127.0,25.0,-114.0,-70.0,127.0,127.0,127.0,118.0,85.0,110.0
127.0,126.0,127.0,126.0,127.0,127.0,113.0,127.0,25.0,-114.0,-70.0,127.0,127.0,127.0,118.0,85.0,110.0
127.0,127.0,127.0,126.0,127.0,126.0,113.0,127.0,25.0,-114.0,-70.0,127.0,127.0,127.0,118.0,85.0,110.0
127.0,127.0,127.0,126.0,127.0,126.0,112.0,127.0,25.0,-114.0,-70.0,127.0,127.0,127.0,118.0,85.0,110.0
126.0,127.0,127.0,126.0,127.0,126.0,112.0,127.0,25.0,-114.0,-70.0,127.0,127.0,127.0,118.0,85.0,110.0
127.0,127.0,127.0,125.0,127.0,126.0,112.0,127.0,25.0,-114.0,-70.0,127.0,127.0,127.0,118.0,85.0,110.0
127.0,127.0,127.0,125.0,127.0,126.0,112.0,127.0,25.0,-114.0,-70.0,127.0,127.0,127.0,118.0,85.0,110.0
126.0,127.0,127.0,126.0,127.0,126.0,113.0,127.0,25.0,-114.0,-70.0,127.0,127.0,127.0,118.0,85.0,110.0
126.0,127.0,127.0,126.0,127.0,126.0,113.0,127.0,25.0,-114.0,-70.0,127.0,127.0,127.0,118.0,85.0,110.0
126.0,127.0,127.0,126.0,127.0,126.0,113.0,127.0,25.0,-114.0,-70.0,127.0,127.0,127.0,118.0,85.0,110.0
126.0,127.0,127.0,126.0,127.0,127.0,112.0,127.0,25.0,-114.0,-70.0,127.0,127.0,127.0,118.0,85.0,110.0
127.0,127.0,127.0,126.0,127.0,127.0,112.0,127.0,25.0,-114.0,-70.0,127.0,127.0,127.0,118.0,85.0,110.0
127.0,127.0,127.0,127.0,127.0,127.0,112.0,127.0,25.0,-114.0,-70.0,127.0,127.0,127.0,118.0,85.0,110.0
127.0,127.0,128.0,127.0,127.0,127.0,112.0,127.0,25.0,-114.0,-70.0,127.0,127.0,127.0,118.0,85.0,110.0
127.0,127.0,127.0,126.0,127.0,126.0,112.0,127.0,25.0,-114.0,-70.0,127.0,127.0,127.0,118.0,85.0,110.0
127.0,127.0,127.0,126.0,127.0,126.0,112.0,127.0,25.0,-114.0,-70.0,127.0,127.0,127.0,118.0,85.0,110.0
126.0,127.0,127.0,126.0,127.0,126.0,113.0,127.0,25.0,-114.0,-70.0,127.0,127.0,127.0,118.0,85.0,110.0
127.0,127.0,128.0,126.0,127.0,126.0,112.0,127.0,25.0,-114.0,-70.0,127.0,127.0,127.0,118.0,85.0,110.0
127.0,127.0,128.0,126.0,127.0,126.0,113.0,127.0,25.0,-114.0,-70.0,127.0,127.0,127.0,118.0,85.0,110.0
127.0,127.0,128.0,126.0,127.0,126.0,113.0,127.0,25.0,-114.0,-70.0,127.0,127.0,127.0,118.0,85.0,110.0
127.0,127.0,128.0,126.0,126.0,126.0,113.0,127.0,25.0,-114.0,-70.0,127.0,127.0,127.0,118.0,85.0,110.0
127.0,126.0,128.0,126.0,126.0,126.0,113.0,127.0,25.0,-114.0,-70.0,127.0,127.0,127.0,118.0,85.0,110.0
127.0,126.0,128.0,126.0,126.0,126.0,113.0,127.0,25.0,-114.0,-70.0,127.0,127.0,127.0,118.0,85.0,110.0
127.0,127.0,127.0,126.0,127.0,126.0,113.0,127.0,25.0,-114.0,-70.0,127.0,127.0,127.0,118.0,85.0,110.0
127.0,127.0,127.0,126.0,127.0,126.0,112.0,127.0,25.0,-114.0,-70.0,127.0,127.0,127.0,118.0,85.0,110.0
127.0,127.0,127.0,126.0,127.0,126.0,112.0,127.0,25.0,-114.0,-70.0,127.0,127.0,127.0,118.0,85.0,110.0
127.0,127.0,127.0,126.0,127.0,126.0,113.0,127.0,25.0,-114.0,-70.0,127.0,127.0,127.0,118.0,85.0,110.0
127.0,127.0,127.0,126.0,127.0,126.0,112.0,127.0,25.0,-114.0,-70.0,127.0,127.0,127.0,118.0,85.0,110.0
127.0,127.0,127.0,126.0,127.0,126.0,112.0,127.0,25.0,-114.0,-70.0,127.0,127.0,127.0,118.0,85.0,110.0
127.0,127.0,127.0,126.0,126.0,126.0,112.0,127.0,25.0,-114.0,-70.0,127.0,127.0,127.0,118.0,85.0,110.0
127.0,127.0,127.0,126.0,126.0,126.0,111.0,127.0,25.0,-114.0,-70.0,127.0,127.0,127.0,118.0,85.0,110.0
127.0,127.0,127.0,126.0,126.0,126.0,112.0,127.0,25.0,-114.0,-70.0,127.0,127.0,127.0,118.0,85.0,110.0
127.0,127.0,127.0,127.0,127.0,126.0,112.0,127.0,25.0,-114.0,-70.0,127.0,127.0,127.0,118.0,85.0,110.0
127.0,127.0,127.0,127.0,127.0,126.0,112.0,127.0,25.0,-114.0,-70.0,127.0,127.0,127.0,118.0,85.0,110.0
127.0,127.0,127.0,127.0,127.0,126.0,111.0,127.0,25.0,-114.0,-70.0,127.0,127.0,127.0,118.0,85.0,110.0
127.0,127.0,127.0,127.0,127.0,126.0,111.0,127.0,25.0,-114.0,-70.0,127.0,127.0,127.0,118.0,85.0,110.0
127.0,127.0,127.0,126.0,127.0,126.0,112.0,127.0,25.0,-114.0,-70.0,127.0,127.0,127.0,118.0,85.0,110.0
126.0,127.0,127.0,126.0,126.0,126.0,113.0,127.0,25.0,-114.0,-70.0,127.0,127.0,127.0,118.0,85.0,110.0
126.0,127.0,127.0,126.0,126.0,126.0,113.0,127.0,25.0,-114.0,-70.0,127.0,127.0,127.0,118.0,85.0,110.0
126.0,127.0,127.0,126.0,126.0,126.0,113.0,127.0,25.0,-114.0,-70.0,127.0,127.0,127.0,118.0,85.0,110.0
127.0,127.0,127.0,126.0,126.0,126.0,113.0,127.0,25.0,-114.0,-70.0,127.0,127.0,127.0,118.0,85.0,110.0
127.0,127.0,127.0,126.0,126.0,127.0,112.0,127.0,25.0,-114.0,-70.0,127.0,127.0,127.0,118.0,85.0,110.0
127.0,127.0,127.0,126.0,126.0,126.0,112.0,127.0,25.0,-114.0,-70.0,127.0,127.0,127.0,118.0,85.0,110.0
127.0,127.0,127.0,126.0,126.0,126.0,112.0,127.0,25.0,-114.0,-70.0,127.0,127.0,127.0,118.0,85.0,110.0
126.0,127.0,127.0,126.0,126.0,126.0,112.0,127.0,25.0,-114.0,-70.0,127.0,127.0,127.0,118.0,85.0,110.0
126.0,127.0,127.0,126.0,126.0,126.0,113.0,127.0,25.0,-114.0,-70.0,127.0,127.0,127.0,118.0,85.0,110.0
126.0,127.0,127.0,126.0,126.0,126.0,112.0,127.0,25.0,-114.0,-70.0,127.0,127.0,127.0,118.0,85.0,110.0
127.0,127.0,127.0,126.0,126.0,126.0,112.0,127.0,25.0,-114.0,-70.0,127.0,127.0,127.0,118.0,85.0,110.0
127.0,127.0,127.0,126.0,126.0,126.0,112.0,127.0,25.0,-114.0,-70.0,127.0,127.0,127.0,118.0,85.0,110.0
127.0,126.0,127.0,126.0,126.0,126.0,112.0,127.0,25.0,-114.0,-70.0,127.0,127.0,127.0,118.0,85.0,110.0
127.0,127.0,127.0,127.0,127.0,126.0,112.0,127.0,25.0,-114.0,-70.0,127.0,127.0,127.0,118.0,85.0,110.0
127.0,127.0,127.0,127.0,127.0,126.0,112.0,127.0,25.0,-114.0,-70.0,127.0,127.0,127.0,118.0,85.0,110.0
127.0,127.0,127.0,127.0,127.0,126.0,112.0,127.0,25.0,-114.0,-70.0,127.0,127.0,127.0,118.0,85.0,110.0
127.0,127.0,127.0,127.0,127.0,126.0,112.0,127.0,25.0,-114.0,-70.0,127.0,127.0,127.0,118.0,85.0,110.0
127.0,127.0,127.0,127.0,127.0,126.0,112.0,127.0,25.0,-114.0,-70.0,127.0,127.0,127.0,118.0,85.0,110.0
127.0,127.0,127.0,127.0,127.0,126.0,112.0,127.0,25.0,-114.0,-70.0,127.0,127.0,127.0,118.0,85.0,110.0
127.0,127.0,127.0,126.0,126.0,126.0,112.0,127.0,25.0,-114.0,-70.0,127.0,127.0,127.0,118.0,85.0,110.0
127.0,127.0,127.0,126.0,127.0,126.0,112.0,127.0,25.0,-114.0,-70.0,127.0,127.0,127.0,118.0,85.0,110.0
127.0,127.0,127.0,126.0,127.0,126.0,112.0,127.0,25.0,-114.0,-70.0,127.0,127.0,127.0,118.0,85.0,110.0
127.0,127.0,127.0,126.0,127.0,127.0,112.0,127.0,25.0,-114.0,-70.0,127.0,127.0,127.0,118.0,85.0,110.0
127.0,127.0,127.0,126.0,127.0,127.0,112.0,127.0,25.0,-114.0,-70.0,127.0,127.0,127.0,118.0,85.0,110.0
127.0,126.0,127.0,126.0,127.0,126.0,112.0,127.0,25.0,-114.0,-70.0,127.0,127.0,127.0,118.0,85.0,110.0
127.0,126.0,127.0,126.0,127.0,126.0,112.0,127.0,25.0,-114.0,-70.0,127.0,127.0,127.0,118.0,85.0,110.0
127.0,126.0,127.0,126.0,126.0,126.0,113.0,127.0,25.0,-114.0,-70.0,127.0,127.0,127.0,118.0,85.0,110.0
127.0,126.0,127.0,126.0,126.0,126.0,113.0,127.0,25.0,-114.0,-70.0,127.0,127.0,127.0,118.0,85.0,110.0
127.0,126.0,127.0,126.0,126.0,126.0,112.0,127.0,25.0,-114.0,-70.0,127.0,127.0,127.0,118.0,85.0,110.0
127.0,126.0,127.0,126.0,127.0,126.0,112.0,127.0,25.0,-114.0,-70.0,127.0,127.0,127.0,118.0,85.0,110.0
127.0,127.0,128.0,126.0,127.0,126.0,113.0,127.0,25.0,-114.0,-70.0,127.0,127.0,127.0,118.0,85.0,110.0
127.0,127.0,127.0,126.0,127.0,126.0,112.0,127.0,25.0,-114.0,-70.0,127.0,127.0,127.0,118.0,85.0,110.0
127.0,127.0,127.0,126.0,127.0,127.0,112.0,127.0,25.0,-114.0,-70.0,127.0,127.0,127.0,118.0,85.0,110.0
126.0,127.0,128.0,126.0,127.0,126.0,112.0,127.0,25.0,-114.0,-70.0,127.0,127.0,127.0,118.0,85.0,110.0
126.0,127.0,128.0,126.0,127.0,126.0,112.0,127.0,25.0,-114.0,-70.0,127.0,127.0,127.0,118.0,85.0,110.0
126.0,127.0,128.0,126.0,127.0,126.0,112.0,127.0,25.0,-114.0,-70.0,127.0,127.0,127.0,118.0,85.0,110.0
126.0,127.0,128.0,126.0,127.0,126.0,113.0,127.0,25.0,-114.0,-70.0,127.0,127.0,127.0,118.0,85.0,110.0
126.0,127.0,128.0,126.0,127.0,126.0,113.0,127.0,25.0,-114.0,-70.0,127.0,127.0,127.0,118.0,85.0,110.0
127.0,127.0,128.0,126.0,127.0,126.0,113.0,127.0,25.0,-114.0,-70.0,127.0,127.0,127.0,118.0,85.0,110.0
127.0,127.0,128.0,126.0,127.0,126.0,113.0,127.0,25.0,-114.0,-70.0,127.0,127.0,127.0,118.0,85.0,110.0
126.0,127.0,127.0,127.0,127.0,126.0,112.0,127.0,25.0,-114.0,-70.0,127.0,127.0,127.0,118.0,85.0,110.0
126.0,127.0,127.0,127.0,127.0,126.0,112.0,127.0,25.0,-114.0,-70.0,127.0,127.0,127.0,118.0,85.0,110.0
126.0,127.0,127.0,127.0,127.0,126.0,112.0,127.0,25.0,-114.0,-70.0,127.0,127.0,127.0,118.0,85.0,110.0
126.0,127.0,127.0,126.0,127.0,126.0,111.0,127.0,25.0,-114.0,-70.0,127.0,127.0,127.0,118.0,85.0,110.0
126.0,127.0,127.0,126.0,127.0,126.0,112.0,127.0,25.0,-114.0,-70.0,127.0,127.0,127.0,118.0,85.0,110.0
127.0,127.0,127.0,126.0,127.0,126.0,112.0,127.0,25.0,-114.0,-70.0,127.0,127.0,127.0,118.0,85.0,110.0
127.0,127.0,127.0,126.0,127.0,126.0,111.0,127.0,25.0,-114.0,-70.0,127.0,127.0,127.0,118.0,85.0,110.0
127.0,127.0,127.0,126.0,127.0,126.0,111.0,127.0,25.0,-114.0,-70.0,127.0,127.0,127.0,118.0,85.0,110.0
127.0,126.0,127.0,126.0,127.0,126.0,112.0,127.0,25.0,-114.0,-70.0,127.0,127.0,127.0,118.0,85.0,110.0
127.0,126.0,127.0,126.0,127.0,126.0,111.0,127.0,25.0,-114.0,-70.0,127.0,127.0,127.0,118.0,85.0,110.0
127.0,126.0,127.0,126.0,127.0,126.0,112.0,127.0,25.0,-114.0,-70.0,127.0,127.0,127.0,118.0,85.0,110.0
127.0,126.0,127.0,126.0,127.0,126.0,112.0,127.0,25.0,-114.0,-70.0,127.0,127.0,127.0,118.0,85.0,110.0
127.0,126.0,127.0,126.0,127.0,126.0,112.0,127.0,25.0,-114.0,-70.0,127.0,127.0,127.0,118.0,85.0,110.0
127.0,126.0,127.0,126.0,127.0,126.0,111.0,127.0,25.0,-114.0,-70.0,127.0,127.0,127.0,118.0,85.0,110.0
127.0,126.0,127.0,126.0,127.0,126.0,111.0,127.0,25.0,-114.0,-70.0,127.0,127.0,127.0,118.0,85.0,110.0
127.0,126.0,127.0,126.0,127.0,126.0,112.0,127.0,25.0,-114.0,-70.0,127.0,127.0,127.0,118.0,85.0,110.0
127.0,127.0,127.0,126.0,127.0,126.0,112.0,127.0,25.0,-114.0,-70.0,127.0,127.0,127.0,118.0,85.0,110.0
127.0,127.0,127.0,126.0,127.0,126.0,111.0,127.0,25.0,-114.0,-70.0,127.0,127.0,127.0,118.0,85.0,110.0
127.0,127.0,127.0,126.0,127.0,126.0,111.0,127.0,25.0,-114.0,-70.0,127.0,127.0,127.0,118.0,85.0,110.0
127.0,127.0,127.0,126.0,127.0,126.0,112.0,127.0,25.0,-114.0,-70.0,127.0,127.0,127.0,118.0,85.0,110.0
126.0,127.0,127.0,126.0,127.0,126.0,111.0,127.0,25.0,-114.0,-70.0,127.0,127.0,127.0,118.0,85.0,110.0
126.0,127.0,127.0,125.0,127.0,126.0,111.0,127.0,25.0,-114.0,-70.0,127.0,127.0,127.0,118.0,85.0,110.0
126.0,127.0,127.0,125.0,127.0,125.0,111.0,127.0,25.0,-114.0,-70.0,127.0,127.0,127.0,118.0,85.0,110.0
126.0,127.0,127.0,125.0,127.0,125.0,110.0,127.0,25.0,-114.0,-70.0,127.0,127.0,127.0,118.0,85.0,110.0
126.0,127.0,127.0,125.0,127.0,125.0,111.0,127.0,25.0,-114.0,-70.0,127.0,127.0,127.0,118.0,85.0,110.0
126.0,127.0,127.0,125.0,127.0,125.0,111.0,127.0,25.0,-114.0,-70.0,127.0,127.0,127.0,118.0,85.0,110.0
126.0,127.0,127.0,125.0,127.0,125.0,111.0,127.0,25.0,-114.0,-70.0,127.0,127.0,127.0,118.0,85.0,110.0
127.0,127.0,127.0,125.0,127.0,125.0,111.0,127.0,25.0,-114.0,-70.0,127.0,127.0,127.0,118.0,85.0,110.0
127.0,126.0,127.0,126.0,127.0,126.0,110.0,127.0,25.0,-114.0,-70.0,127.0,127.0,127.0,118.0,85.0,110.0
126.0,127.0,127.0,126.0,127.0,126.0,110.0,127.0,25.0,-114.0,-70.0,127.0,127.0,127.0,118.0,85.0,110.0
127.0,127.0,127.0,126.0,127.0,126.0,111.0,127.0,25.0,-114.0,-70.0,127.0,127.0,127.0,118.0,85.0,110.0
127.0,127.0,127.0,126.0,127.0,126.0,112.0,128.0,25.0,-114.0,-70.0,127.0,127.0,127.0,118.0,85.0,110.0
127.0,127.0,127.0,126.0,127.0,126.0,111.0,127.0,25.0,-114.0,-70.0,127.0,127.0,127.0,118.0,85.0,110.0
127.0,127.0,127.0,126.0,127.0,126.0,111.0,127.0,25.0,-114.0,-70.0,127.0,127.0,127.0,118.0,85.0,110.0
127.0,127.0,127.0,126.0,127.0,126.0,111.0,127.0,25.0,-114.0,-70.0,127.0,127.0,127.0,118.0,85.0,110.0
127.0,127.0,127.0,126.0,127.0,126.0,111.0,127.0,25.0,-114.0,-70.0,127.0,127.0,127.0,118.0,85.0,110.0
127.0,127.0,127.0,126.0,127.0,126.0,111.0,127.0,25.0,-114.0,-70.0,127.0,127.0,127.0,118.0,85.0,110.0
127.0,127.0,127.0,127.0,127.0,126.0,111.0,127.0,25.0,-114.0,-70.0,127.0,127.0,127.0,118.0,85.0,110.0
127.0,127.0,127.0,126.0,127.0,126.0,111.0,128.0,25.0,-114.0,-70.0,127.0,127.0,127.0,118.0,85.0,110.0
127.0,127.0,127.0,126.0,127.0,126.0,111.0,127.0,25.0,-114.0,-70.0,127.0,127.0,127.0,118.0,85.0,110.0
127.0,127.0,126.0,126.0,127.0,126.0,111.0,128.0,25.0,-114.0,-70.0,127.0,127.0,127.0,118.0,85.0,110.0
127.0,127.0,126.0,126.0,127.0,126.0,111.0,127.0,25.0,-114.0,-70.0,127.0,127.0,127.0,118.0,85.0,110.0
127.0,127.0,126.0,126.0,127.0,126.0,111.0,127.0,25.0,-114.0,-70.0,127.0,127.0,127.0,118.0,85.0,110.0
127.0,127.0,126.0,126.0,127.0,126.0,111.0,127.0,25.0,-114.0,-70.0,127.0,127.0,127.0,118.0,85.0,110.0
127.0,127.0,126.0,126.0,127.0,126.0,111.0,127.0,25.0,-114.0,-70.0,127.0,127.0,127.0,118.0,85.0,110.0
127.0,127.0,127.0,126.0,127.0,126.0,111.0,128.0,25.0,-114.0,-70.0,127.0,127.0,127.0,118.0,85.0,110.0
127.0,127.0,126.0,126.0,127.0,126.0,111.0,128.0,25.0,-114.0,-70.0,127.0,127.0,127.0,118.0,85.0,110.0
127.0,127.0,126.0,126.0,127.0,126.0,111.0,128.0,25.0,-114.0,-70.0,127.0,127.0,127.0,118.0,85.0,110.0
127.0,127.0,126.0,126.0,127.0,126.0,111.0,128.0,25.0,-114.0,-70.0,127.0,127.0,127.0,118.0,85.0,110.0
127.0,127.0,126.0,126.0,127.0,126.0,111.0,128.0,25.0,-114.0,-70.0,127.0,127.0,127.0,118.0,85.0,110.0
126.0,126.0,127.0,126.0,126.0,126.0,112.0,127.0,25.0,-114.0,-70.0,127.0,127.0,127.0,118.0,85.0,110.0
126.0,126.0,127.0,126.0,126.0,126.0,111.0,127.0,25.0,-114.0,-70.0,127.0,127.0,127.0,118.0,85.0,110.0
126.0,126.0,127.0,126.0,126.0,126.0,111.0,127.0,25.0,-114.0,-70.0,127.0,127.0,127.0,118.0,85.0,110.0
126.0,127.0,127.0,126.0,126.0,126.0,111.0,127.0,25.0,-114.0,-70.0,127.0,127.0,127.0,118.0,85.0,110.0
126.0,126.0,127.0,127.0,126.0,126.0,112.0,128.0,25.0,-114.0,-70.0,127.0,127.0,127.0,118.0,85.0,110.0
126.0,126.0,127.0,127.0,126.0,126.0,112.0,128.0,25.0,-114.0,-70.0,127.0,127.0,127.0,118.0,85.0,110.0
126.0,126.0,127.0,126.0,126.0,126.0,112.0,128.0,25.0,-114.0,-70.0,127.0,127.0,127.0,118.0,85.0,110.0
126.0,126.0,126.0,126.0,126.0,126.0,112.0,128.0,25.0,-114.0,-70.0,127.0,127.0,127.0,118.0,85.0,110.0
126.0,126.0,127.0,126.0,126.0,126.0,112.0,127.0,25.0,-114.0,-70.0,127.0,127.0,127.0,118.0,85.0,110.0
126.0,126.0,127.0,126.0,126.0,126.0,111.0,127.0,25.0,-114.0,-70.0,127.0,127.0,127.0,118.0,85.0,110.0
127.0,127.0,126.0,126.0,126.0,126.0,112.0,127.0,25.0,-114.0,-70.0,127.0,127.0,127.0,118.0,85.0,110.0
127.0,126.0,126.0,126.0,126.0,126.0,112.0,127.0,25.0,-114.0,-70.0,127.0,127.0,127.0,118.0,85.0,110.0
127.0,126.0,126.0,126.0,126.0,126.0,112.0,127.0,25.0,-114.0,-70.0,127.0,127.0,127.0,118.0,85.0,110.0
126.0,127.0,126.0,126.0,126.0,126.0,112.0,127.0,25.0,-114.0,-70.0,127.0,127.0,127.0,118.0,85.0,110.0
126.0,127.0,126.0,127.0,127.0,126.0,112.0,127.0,25.0,-114.0,-70.0,127.0,127.0,127.0,118.0,85.0,110.0
126.0,127.0,126.0,126.0,126.0,126.0,111.0,127.0,25.0,-114.0,-70.0,127.0,127.0,127.0,118.0,85.0,110.0
126.0,127.0,126.0,126.0,126.0,126.0,112.0,127.0,25.0,-114.0,-70.0,127.0,127.0,127.0,118.0,85.0,110.0
127.0,127.0,126.0,126.0,127.0,126.0,111.0,127.0,25.0,-114.0,-70.0,127.0,127.0,127.0,118.0,85.0,110.0
127.0,127.0,126.0,126.0,127.0,126.0,111.0,127.0,25.0,-114.0,-70.0,127.0,127.0,127.0,118.0,85.0,110.0
127.0,127.0,126.0,126.0,127.0,126.0,112.0,127.0,25.0,-114.0,-70.0,127.0,127.0,127.0,118.0,85.0,110.0
127.0,127.0,127.0,126.0,126.0,126.0,112.0,127.0,25.0,-114.0,-70.0,127.0,127.0,127.0,118.0,85.0,110.0
126.0,127.0,127.0,126.0,126.0,126.0,112.0,127.0,25.0,-114.0,-70.0,127.0,127.0,127.0,118.0,85.0,110.0
126.0,126.0,127.0,126.0,127.0,126.0,112.0,127.0,25.0,-114.0,-70.0,127.0,127.0,127.0,118.0,85.0,110.0
127.0,126.0,127.0,126.0,127.0,126.0,111.0,127.0,25.0,-114.0,-70.0,127.0,127.0,127.0,118.0,85.0,110.0
127.0,126.0,127.0,126.0,127.0,126.0,112.0,127.0,25.0,-114.0,-70.0,127.0,127.0,127.0,118.0,85.0,110.0
127.0,126.0,127.0,126.0,127.0,126.0,112.0,127.0,25.0,-114.0,-70.0,127.0,127.0,127.0,118.0,85.0,110.0
127.0,126.0,127.0,126.0,126.0,126.0,112.0,127.0,25.0,-114.0,-70.0,127.0,127.0,127.0,118.0,85.0,110.0
127.0,126.0,127.0,126.0,126.0,126.0,112.0,127.0,25.0,-114.0,-70.0,127.0,127.0,127.0,118.0,85.0,110.0
127.0,127.0,127.0,126.0,126.0,126.0,112.0,127.0,25.0,-114.0,-70.0,127.0,127.0,127.0,118.0,85.0,110.0
127.0,127.0,127.0,126.0,126.0,126.0,112.0,127.0,25.0,-114.0,-70.0,127.0,127.0,127.0,118.0,85.0,110.0
127.0,127.0,127.0,126.0,126.0,126.0,112.0,127.0,25.0,-114.0,-70.0,127.0,127.0,127.0,118.0,85.0,110.0
126.0,127.0,127.0,126.0,127.0,126.0,111.0,127.0,25.0,-114.0,-70.0,127.0,127.0,127.0,118.0,85.0,110.0
127.0,127.0,127.0,126.0,127.0,126.0,112.0,127.0,25.0,-114.0,-70.0,127.0,127.0,127.0,118.0,85.0,110.0
126.0,127.0,127.0,126.0,127.0,126.0,112.0,127.0,25.0,-114.0,-70.0,127.0,127.0,127.0,118.0,85.0,110.0
126.0,127.0,127.0,126.0,127.0,126.0,112.0,127.0,25.0,-114.0,-70.0,127.0,127.0,127.0,118.0,85.0,110.0
126.0,127.0,127.0,126.0,127.0,126.0,112.0,127.0,25.0,-114.0,-70.0,127.0,127.0,127.0,118.0,85.0,110.0
126.0,127.0,127.0,126.0,127.0,126.0,112.0,127.0,25.0,-114.0,-70.0,127.0,127.0,127.0,118.0,85.0,110.0
127.0,127.0,127.0,126.0,127.0,126.0,111.0,127.0,25.0,-114.0,-70.0,127.0,127.0,127.0,118.0,85.0,110.0
127.0,127.0,127.0,126.0,127.0,126.0,111.0,127.0,25.0,-114.0,-70.0,127.0,127.0,127.0,118.0,85.0,110.0
127.0,127.0,127.0,126.0,126.0,126.0,112.0,127.0,25.0,-114.0,-70.0,127.0,127.0,127.0,118.0,85.0,110.0
126.0,127.0,127.0,125.0,127.0,126.0,112.0,127.0,25.0,-114.0,-70.0,127.0,127.0,127.0,118.0,85.0,110.0
127.0,127.0,126.0,126.0,127.0,126.0,112.0,127.0,25.0,-114.0,-70.0,127.0,127.0,127.0,118.0,85.0,110.0
127.0,127.0,126.0,126.0,127.0,126.0,111.0,127.0,25.0,-114.0,-70.0,127.0,127.0,127.0,118.0,85.0,110.0
127.0,127.0,127.0,126.0,127.0,126.0,112.0,127.0,25.0,-114.0,-70.0,127.0,127.0,127.0,118.0,85.0,110.0
127.0,127.0,127.0,126.0,127.0,126.0,112.0,127.0,25.0,-114.0,-70.0,127.0,127.0,127.0,118.0,85.0,110.0
127.0,127.0,126.0,126.0,127.0,126.0,112.0,127.0,25.0,-114.0,-70.0,127.0,127.0,127.0,118.0,85.0,110.0
127.0,127.0,127.0,126.0,127.0,126.0,112.0,127.0,25.0,-114.0,-70.0,127.0,127.0,127.0,118.0,85.0,110.0
127.0,127.0,127.0,126.0,127.0,126.0,112.0,127.0,25.0,-114.0,-70.0,127.0,127.0,127.0,118.0,85.0,110.0
127.0,127.0,127.0,127.0,127.0,126.0,112.0,127.0,25.0,-114.0,-70.0,127.0,127.0,127.0,118.0,85.0,110.0
127.0,126.0,127.0,127.0,127.0,126.0,112.0,127.0,25.0,-114.0,-70.0,127.0,127.0,127.0,118.0,85.0,110.0
127.0,126.0,127.0,127.0,127.0,126.0,112.0,127.0,25.0,-114.0,-70.0,127.0,127.0,127.0,118.0,85.0,110.0
127.0,126.0,127.0,126.0,127.0,126.0,112.0,127.0,25.0,-114.0,-70.0,127.0,127.0,127.0,118.0,85.0,110.0
127.0,126.0,127.0,126.0,127.0,126.0,112.0,127.0,25.0,-114.0,-70.0,127.0,127.0,127.0,118.0,85.0,110.0
127.0,127.0,127.0,126.0,127.0,126.0,112.0,127.0,25.0,-114.0,-70.0,127.0,127.0,127.0,118.0,85.0,110.0
127.0,127.0,127.0,126.0,127.0,126.0,112.0,127.0,25.0,-114.0,-70.0,127.0,127.0,127.0,118.0,85.0,110.0
127.0,127.0,127.0,126.0,127.0,126.0,113.0,127.0,25.0,-114.0,-70.0,127.0,127.0,127.0,118.0,85.0,110.0
127.0,127.0,127.0,126.0,127.0,126.0,113.0,127.0,25.0,-114.0,-70.0,127.0,127.0,127.0,118.0,85.0,110.0
127.0,127.0,127.0,126.0,127.0,126.0,112.0,127.0,25.0,-114.0,-70.0,127.0,127.0,127.0,118.0,85.0,110.0
127.0,127.0,127.0,126.0,127.0,126.0,113.0,127.0,25.0,-114.0,-70.0,127.0,127.0,127.0,118.0,85.0,110.0
127.0,126.0,127.0,127.0,127.0,126.0,112.0,127.0,25.0,-114.0,-70.0,127.0,127.0,127.0,118.0,85.0,110.0
127.0,127.0,127.0,126.0,127.0,126.0,111.0,127.0,25.0,-114.0,-70.0,127.0,127.0,127.0,118.0,85.0,110.0
127.0,127.0,127.0,126.0,127.0,126.0,111.0,127.0,25.0,-114.0,-70.0,127.0,127.0,127.0,118.0,85.0,110.0
127.0,127.0,127.0,126.0,127.0,126.0,111.0,127.0,25.0,-114.0,-70.0,127.0,127.0,127.0,118.0,85.0,110.0
127.0,127.0,127.0,126.0,127.0,126.0,111.0,127.0,25.0,-114.0,-70.0,127.0,127.0,127.0,118.0,85.0,110.0
127.0,127.0,127.0,126.0,127.0,126.0,111.0,127.0,25.0,-114.0,-70.0,127.0,127.0,127.0,118.0,85.0,110.0
127.0,127.0,127.0,126.0,127.0,126.0,111.0,127.0,25.0,-114.0,-70.0,127.0,127.0,127.0,118.0,85.0,110.0
127.0,127.0,127.0,126.0,127.0,126.0,111.0,127.0,25.0,-114.0,-70.0,127.0,127.0,127.0,118.0,85.0,110.0
127.0,127.0,128.0,126.0,127.0,126.0,111.0,127.0,25.0,-114.0,-70.0,127.0,127.0,127.0,118.0,85.0,110.0
127.0,127.0,127.0,126.0,127.0,126.0,111.0,127.0,25.0,-114.0,-70.0,127.0,127.0,127.0,118.0,85.0,110.0
127.0,127.0,127.0,126.0,127.0,126.0,111.0,127.0,25.0,-114.0,-70.0,127.0,127.0,127.0,118.0,85.0,110.0
127.0,127.0,127.0,127.0,127.0,126.0,113.0,127.0,25.0,-114.0,-70.0,127.0,127.0,127.0,118.0,85.0,110.0
127.0,127.0,127.0,127.0,127.0,126.0,113.0,127.0,25.0,-114.0,-70.0,127.0,127.0,127.0,118.0,85.0,110.0
127.0,127.0,127.0,127.0,127.0,127.0,113.0,127.0,25.0,-114.0,-70.0,127.0,127.0,127.0,118.0,85.0,110.0
127.0,127.0,127.0,126.0,127.0,126.0,113.0,127.0,25.0,-114.0,-70.0,127.0,127.0,127.0,118.0,85.0,110.0
127.0,126.0,127.0,126.0,127.0,126.0,113.0,127.0,25.0,-114.0,-70.0,127.0,127.0,127.0,118.0,85.0,110.0
127.0,126.0,127.0,126.0,126.0,126.0,113.0,127.0,25.0,-114.0,-70.0,127.0,127.0,127.0,118.0,85.0,110.0
127.0,126.0,127.0,126.0,126.0,126.0,113.0,127.0,25.0,-114.0,-70.0,127.0,127.0,127.0,118.0,85.0,110.0
127.0,127.0,127.0,127.0,127.0,126.0,113.0,127.0,25.0,-114.0,-70.0,127.0,127.0,127.0,118.0,85.0,110.0
127.0,127.0,127.0,127.0,127.0,126.0,112.0,127.0,25.0,-114.0,-70.0,127.0,127.0,127.0,118.0,85.0,110.0
127.0,127.0,127.0,127.0,127.0,126.0,113.0,127.0,25.0,-114.0,-70.0,127.0,127.0,127.0,118.0,85.0,110.0
127.0,127.0,127.0,126.0,127.0,126.0,112.0,127.0,25.0,-114.0,-70.0,127.0,127.0,127.0,118.0,85.0,110.0
126.0,127.0,127.0,126.0,127.0,126.0,111.0,127.0,25.0,-114.0,-70.0,127.0,127.0,127.0,118.0,85.0,110.0
126.0,127.0,127.0,126.0,127.0,126.0,111.0,127.0,25.0,-114.0,-70.0,127.0,127.0,127.0,118.0,85.0,110.0
126.0,127.0,127.0,126.0,126.0,126.0,111.0,127.0,25.0,-114.0,-70.0,127.0,127.0,127.0,118.0,85.0,110.0
126.0,127.0,127.0,126.0,126.0,126.0,111.0,127.0,25.0,-114.0,-70.0,127.0,127.0,127.0,118.0,85.0,110.0
126.0,127.0,127.0,126.0,126.0,126.0,111.0,127.0,25.0,-114.0,-70.0,127.0,127.0,127.0,118.0,85.0,110.0
127.0,126.0,127.0,126.0,127.0,126.0,112.0,127.0,25.0,-114.0,-70.0,127.0,127.0,127.0,118.0,85.0,110.0
127.0,126.0,127.0,126.0,127.0,126.0,112.0,127.0,25.0,-114.0,-70.0,127.0,127.0,127.0,118.0,85.0,110.0
127.0,127.0,127.0,126.0,127.0,126.0,112.0,127.0,25.0,-114.0,-70.0,127.0,127.0,127.0,118.0,85.0,110.0
127.0,127.0,127.0,126.0,127.0,126.0,112.0,127.0,25.0,-114.0,-70.0,127.0,127.0,127.0,118.0,85.0,110.0
127.0,127.0,127.0,127.0,127.0,126.0,111.0,127.0,25.0,-114.0,-70.0,127.0,127.0,127.0,118.0,85.0,110.0
127.0,127.0,127.0,127.0,127.0,126.0,111.0,127.0,25.0,-114.0,-70.0,127.0,127.0,127.0,118.0,85.0,110.0
127.0,127.0,127.0,127.0,127.0,126.0,111.0,127.0,25.0,-114.0,-70.0,127.0,127.0,127.0,118.0,85.0,110.0
127.0,127.0,127.0,126.0,127.0,126.0,111.0,127.0,25.0,-114.0,-70.0,127.0,127.0,127.0,118.0,85.0,110.0
127.0,127.0,127.0,126.0,127.0,126.0,111.0,127.0,25.0,-114.0,-70.0,127.0,127.0,127.0,118.0,85.0,110.0
127.0,127.0,127.0,127.0,127.0,126.0,111.0,128.0,25.0,-114.0,-70.0,127.0,127.0,127.0,118.0,85.0,110.0
127.0,127.0,127.0,127.0,127.0,126.0,111.0,127.0,25.0,-114.0,-70.0,127.0,127.0,127.0,118.0,85.0,110.0
127.0,127.0,127.0,127.0,127.0,126.0,112.0,127.0,25.0,-114.0,-70.0,127.0,127.0,127.0,118.0,85.0,110.0
127.0,127.0,127.0,127.0,127.0,126.0,111.0,127.0,25.0,-114.0,-70.0,127.0,127.0,127.0,118.0,85.0,110.0
127.0,127.0,127.0,127.0,127.0,126.0,111.0,127.0,25.0,-114.0,-70.0,127.0,127.0,127.0,118.0,85.0,110.0
127.0,126.0,127.0,126.0,127.0,126.0,112.0,127.0,25.0,-114.0,-70.0,127.0,127.0,127.0,118.0,85.0,110.0
127.0,126.0,127.0,126.0,127.0,126.0,112.0,127.0,25.0,-114.0,-70.0,127.0,127.0,127.0,118.0,85.0,110.0
127.0,126.0,127.0,126.0,127.0,126.0,112.0,127.0,25.0,-114.0,-70.0,127.0,127.0,127.0,118.0,85.0,110.0
127.0,126.0,127.0,126.0,127.0,126.0,112.0,127.0,25.0,-114.0,-70.0,127.0,127.0,127.0,118.0,85.0,110.0
127.0,127.0,127.0,127.0,127.0,126.0,112.0,127.0,25.0,-114.0,-70.0,127.0,127.0,127.0,118.0,85.0,110.0
127.0,127.0,127.0,127.0,127.0,126.0,112.0,127.0,25.0,-114.0,-70.0,127.0,127.0,127.0,118.0,85.0,110.0
127.0,127.0,127.0,127.0,127.0,126.0,111.0,127.0,25.0,-114.0,-70.0,127.0,127.0,127.0,118.0,85.0,110.0
127.0,127.0,127.0,127.0,127.0,126.0,111.0,127.0,25.0,-114.0,-70.0,127.0,127.0,127.0,118.0,85.0,110.0
127.0,127.0,127.0,127.0,127.0,126.0,111.0,127.0,25.0,-114.0,-70.0,127.0,127.0,127.0,118.0,85.0,110.0
127.0,127.0,127.0,127.0,127.0,126.0,111.0,127.0,25.0,-114.0,-70.0,127.0,127.0,127.0,118.0,85.0,110.0
127.0,127.0,127.0,126.0,127.0,126.0,111.0,127.0,25.0,-114.0,-70.0,127.0,127.0,127.0,118.0,85.0,110.0
126.0,127.0,127.0,126.0,126.0,126.0,111.0,127.0,25.0,-114.0,-70.0,127.0,127.0,127.0,118.0,85.0,110.0
127.0,127.0,127.0,126.0,126.0,126.0,111.0,127.0,25.0,-114.0,-70.0,127.0,127.0,127.0,118.0,85.0,110.0
127.0,126.0,127.0,126.0,127.0,126.0,111.0,128.0,25.0,-114.0,-70.0,127.0,127.0,127.0,118.0,85.0,110.0
127.0,126.0,127.0,126.0,127.0,126.0,111.0,127.0,25.0,-114.0,-70.0,127.0,127.0,127.0,118.0,85.0,110.0
127.0,126.0,127.0,126.0,127.0,126.0,112.0,127.0,25.0,-114.0,-70.0,127.0,127.0,127.0,118.0,85.0,110.0
127.0,127.0,127.0,126.0,127.0,126.0,111.0,127.0,25.0,-114.0,-70.0,127.0,127.0,127.0,118.0,85.0,110.0
127.0,127.0,127.0,126.0,127.0,126.0,111.0,127.0,25.0,-114.0,-70.0,127.0,127.0,127.0,118.0,85.0,110.0
127.0,127.0,127.0,126.0,127.0,126.0,111.0,127.0,25.0,-114.0,-70.0,127.0,127.0,127.0,118.0,85.0,110.0
127.0,127.0,127.0,126.0,127.0,126.0,111.0,127.0,25.0,-114.0,-70.0,127.0,127.0,127.0,118.0,85.0,110.0
127.0,127.0,127.0,126.0,126.0,126.0,111.0,128.0,25.0,-114.0,-70.0,127.0,127.0,127.0,118.0,85.0,110.0
127.0,127.0,127.0,126.0,126.0,126.0,111.0,127.0,25.0,-114.0,-70.0,127.0,127.0,127.0,118.0,85.0,110.0
126.0,127.0,127.0,127.0,127.0,126.0,111.0,128.0,25.0,-114.0,-70.0,127.0,127.0,127.0,118.0,85.0,110.0
126.0,127.0,127.0,127.0,127.0,126.0,111.0,128.0,25.0,-114.0,-70.0,127.0,127.0,127.0,118.0,85.0,110.0
126.0,127.0,127.0,127.0,127.0,126.0,111.0,128.0,25.0,-114.0,-70.0,127.0,127.0,127.0,118.0,85.0,110.0
127.0,127.0,127.0,127.0,127.0,126.0,111.0,128.0,25.0,-114.0,-70.0,127.0,127.0,127.0,118.0,85.0,110.0
127.0,127.0,127.0,127.0,127.0,126.0,111.0,127.0,25.0,-114.0,-70.0,127.0,127.0,127.0,118.0,85.0,110.0
127.0,127.0,127.0,127.0,127.0,126.0,111.0,127.0,25.0,-114.0,-70.0,127.0,127.0,127.0,118.0,85.0,110.0
127.0,127.0,127.0,126.0,127.0,126.0,111.0,127.0,25.0,-114.0,-70.0,127.0,127.0,127.0,118.0,85.0,110.0
127.0,127.0,127.0,126.0,127.0,126.0,111.0,127.0,25.0,-114.0,-70.0,127.0,127.0,127.0,118.0,85.0,110.0
126.0,127.0,127.0,126.0,126.0,126.0,111.0,127.0,25.0,-114.0,-70.0,127.0,127.0,127.0,118.0,85.0,110.0
127.0,127.0,127.0,127.0,127.0,126.0,112.0,128.0,25.0,-114.0,-70.0,127.0,127.0,127.0,118.0,85.0,110.0
127.0,127.0,127.0,126.0,127.0,126.0,111.0,128.0,25.0,-114.0,-70.0,127.0,127.0,127.0,118.0,85.0,110.0
127.0,127.0,127.0,126.0,127.0,126.0,111.0,127.0,25.0,-114.0,-70.0,127.0,127.0,127.0,118.0,85.0,110.0
127.0,126.0,127.0,126.0,127.0,126.0,111.0,127.0,25.0,-114.0,-70.0,127.0,127.0,127.0,118.0,85.0,110.0
127.0,126.0,127.0,126.0,127.0,126.0,111.0,127.0,25.0,-114.0,-70.0,127.0,127.0,127.0,118.0,85.0,110.0
127.0,126.0,127.0,126.0,127.0,126.0,111.0,127.0,25.0,-114.0,-70.0,127.0,127.0,127.0,118.0,85.0,110.0
127.0,126.0,127.0,126.0,127.0,126.0,111.0,127.0,25.0,-114.0,-70.0,127.0,127.0,127.0,118.0,85.0,110.0
127.0,127.0,127.0,126.0,127.0,126.0,111.0,127.0,25.0,-114.0,-70.0,127.0,127.0,127.0,118.0,85.0,110.0
127.0,127.0,127.0,126.0,127.0,126.0,111.0,127.0,25.0,-114.0,-70.0,127.0,127.0,127.0,118.0,85.0,110.0
127.0,127.0,127.0,126.0,127.0,126.0,112.0,128.0,25.0,-114.0,-70.0,127.0,127.0,127.0,118.0,85.0,110.0
127.0,127.0,127.0,126.0,127.0,126.0,112.0,128.0,25.0,-114.0,-70.0,127.0,127.0,127.0,118.0,85.0,110.0
126.0,127.0,127.0,126.0,127.0,126.0,112.0,128.0,25.0,-114.0,-70.0,127.0,127.0,127.0,118.0,85.0,110.0
126.0,127.0,127.0,126.0,127.0,126.0,112.0,128.0,25.0,-114.0,-70.0,127.0,127.0,127.0,118.0,85.0,110.0
127.0,127.0,127.0,126.0,127.0,126.0,113.0,128.0,25.0,-114.0,-70.0,127.0,127.0,127.0,118.0,85.0,110.0
127.0,127.0,127.0,126.0,127.0,126.0,113.0,128.0,25.0,-114.0,-70.0,127.0,127.0,127.0,118.0,85.0,110.0
126.0,127.0,127.0,126.0,127.0,126.0,113.0,128.0,25.0,-114.0,-70.0,127.0,127.0,127.0,118.0,85.0,110.0
127.0,127.0,127.0,126.0,127.0,126.0,112.0,128.0,25.0,-114.0,-70.0,127.0,127.0,127.0,118.0,85.0,110.0
127.0,127.0,127.0,126.0,127.0,127.0,112.0,128.0,25.0,-114.0,-70.0,127.0,127.0,127.0,118.0,85.0,110.0
127.0,127.0,127.0,126.0,127.0,126.0,112.0,128.0,25.0,-114.0,-70.0,127.0,127.0,127.0,118.0,85.0,110.0
126.0,126.0,126.0,126.0,127.0,126.0,112.0,128.0,25.0,-114.0,-70.0,127.0,127.0,127.0,118.0,85.0,110.0
126.0,126.0,126.0,126.0,127.0,126.0,112.0,127.0,25.0,-114.0,-70.0,127.0,127.0,127.0,118.0,85.0,110.0
126.0,127.0,126.0,125.0,127.0,126.0,111.0,127.0,25.0,-114.0,-70.0,127.0,127.0,127.0,118.0,85.0,110.0
126.0,127.0,126.0,125.0,127.0,126.0,111.0,127.0,25.0,-114.0,-70.0,127.0,127.0,127.0,118.0,85.0,110.0
127.0,127.0,126.0,125.0,127.0,126.0,111.0,127.0,25.0,-114.0,-70.0,127.0,127.0,127.0,118.0,85.0,110.0
127.0,127.0,126.0,125.0,127.0,126.0,111.0,127.0,25.0,-114.0,-70.0,127.0,127.0,127.0,118.0,85.0,110.0
127.0,127.0,126.0,125.0,127.0,126.0,111.0,127.0,25.0,-114.0,-70.0,127.0,127.0,127.0,118.0,85.0,110.0
127.0,127.0,126.0,125.0,127.0,126.0,111.0,127.0,25.0,-114.0,-70.0,127.0,127.0,127.0,118.0,85.0,110.0
127.0,127.0,127.0,125.0,126.0,126.0,112.0,128.0,25.0,-114.0,-70.0,127.0,127.0,127.0,118.0,85.0,110.0
126.0,127.0,126.0,126.0,127.0,126.0,112.0,128.0,25.0,-114.0,-70.0,127.0,127.0,127.0,118.0,85.0,110.0
127.0,127.0,127.0,127.0,127.0,126.0,112.0,127.0,25.0,-114.0,-70.0,127.0,127.0,127.0,118.0,85.0,110.0
127.0,127.0,127.0,127.0,127.0,126.0,111.0,127.0,25.0,-114.0,-70.0,127.0,127.0,127.0,118.0,85.0,110.0
127.0,126.0,127.0,127.0,127.0,126.0,111.0,127.0,25.0,-114.0,-70.0,127.0,127.0,127.0,118.0,85.0,110.0
127.0,126.0,127.0,127.0,127.0,126.0,112.0,127.0,25.0,-114.0,-70.0,127.0,127.0,127.0,118.0,85.0,110.0
127.0,127.0,127.0,127.0,127.0,126.0,112.0,127.0,25.0,-114.0,-70.0,127.0,127.0,127.0,118.0,85.0,110.0
127.0,127.0,127.0,127.0,127.0,126.0,112.0,127.0,25.0,-114.0,-70.0,127.0,127.0,127.0,118.0,85.0,110.0
127.0,127.0,128.0,127.0,127.0,126.0,112.0,127.0,25.0,-114.0,-70.0,127.0,127.0,127.0,118.0,85.0,110.0
127.0,127.0,128.0,127.0,127.0,126.0,112.0,127.0,25.0,-114.0,-70.0,127.0,127.0,127.0,118.0,85.0,110.0
127.0,127.0,127.0,127.0,127.0,126.0,112.0,127.0,25.0,-114.0,-70.0,127.0,127.0,127.0,118.0,85.0,110.0
127.0,127.0,127.0,127.0,127.0,126.0,111.0,127.0,25.0,-114.0,-70.0,127.0,127.0,127.0,118.0,85.0,110.0
126.0,127.0,127.0,126.0,127.0,126.0,112.0,127.0,25.0,-114.0,-70.0,127.0,127.0,127.0,118.0,85.0,110.0
126.0,127.0,127.0,126.0,127.0,126.0,112.0,127.0,25.0,-114.0,-70.0,127.0,127.0,127.0,118.0,85.0,110.0
126.0,127.0,127.0,126.0,127.0,126.0,111.0,127.0,25.0,-114.0,-70.0,127.0,127.0,127.0,118.0,85.0,110.0
126.0,127.0,126.0,126.0,127.0,126.0,111.0,127.0,25.0,-114.0,-70.0,127.0,127.0,127.0,118.0,85.0,110.0
126.0,127.0,126.0,126.0,127.0,126.0,111.0,127.0,25.0,-114.0,-70.0,127.0,127.0,127.0,118.0,85.0,110.0
126.0,127.0,127.0,126.0,127.0,126.0,112.0,127.0,25.0,-114.0,-70.0,127.0,127.0,127.0,118.0,85.0,110.0
126.0,127.0,127.0,126.0,127.0,126.0,112.0,127.0,25.0,-114.0,-70.0,127.0,127.0,127.0,118.0,85.0,110.0
126.0,126.0,127.0,126.0,127.0,126.0,112.0,127.0,25.0,-114.0,-70.0,127.0,127.0,127.0,118.0,85.0,110.0
126.0,127.0,127.0,126.0,127.0,126.0,112.0,127.0,25.0,-114.0,-70.0,127.0,127.0,127.0,118.0,85.0,110.0
126.0,127.0,127.0,126.0,127.0,126.0,112.0,127.0,25.0,-114.0,-70.0,127.0,127.0,127.0,118.0,85.0,110.0
126.0,126.0,126.0,125.0,127.0,126.0,111.0,127.0,25.0,-114.0,-70.0,127.0,127.0,127.0,118.0,85.0,110.0
127.0,126.0,126.0,125.0,126.0,126.0,112.0,127.0,25.0,-114.0,-70.0,127.0,127.0,127.0,118.0,85.0,110.0
127.0,126.0,126.0,125.0,126.0,126.0,111.0,127.0,25.0,-114.0,-70.0,127.0,127.0,127.0,118.0,85.0,110.0
127.0,126.0,126.0,125.0,126.0,126.0,111.0,127.0,25.0,-114.0,-70.0,127.0,127.0,127.0,118.0,85.0,110.0
127.0,126.0,126.0,125.0,126.0,126.0,111.0,127.0,25.0,-114.0,-70.0,127.0,127.0,127.0,118.0,85.0,110.0
127.0,126.0,126.0,126.0,126.0,126.0,111.0,127.0,25.0,-114.0,-70.0,127.0,127.0,127.0,118.0,85.0,110.0
126.0,127.0,126.0,125.0,127.0,126.0,111.0,127.0,25.0,-114.0,-70.0,127.0,127.0,127.0,118.0,85.0,110.0
126.0,127.0,126.0,125.0,127.0,126.0,111.0,127.0,25.0,-114.0,-70.0,127.0,127.0,127.0,118.0,85.0,110.0
126.0,127.0,126.0,125.0,126.0,126.0,111.0,127.0,25.0,-114.0,-70.0,127.0,127.0,127.0,118.0,85.0,110.0
126.0,127.0,126.0,125.0,127.0,126.0,111.0,127.0,25.0,-114.0,-70.0,127.0,127.0,127.0,118.0,85.0,110.0
127.0,127.0,127.0,126.0,127.0,126.0,112.0,127.0,25.0,-114.0,-70.0,127.0,127.0,127.0,118.0,85.0,110.0
127.0,127.0,127.0,126.0,127.0,126.0,112.0,127.0,25.0,-114.0,-70.0,127.0,127.0,127.0,118.0,85.0,110.0
127.0,127.0,127.0,126.0,127.0,126.0,111.0,127.0,25.0,-114.0,-70.0,127.0,127.0,127.0,118.0,85.0,110.0
126.0,127.0,127.0,126.0,127.0,126.0,111.0,127.0,25.0,-114.0,-70.0,127.0,127.0,127.0,118.0,85.0,110.0
126.0,127.0,127.0,126.0,127.0,126.0,111.0,127.0,25.0,-114.0,-70.0,127.0,127.0,127.0,118.0,85.0,110.0
127.0,127.0,127.0,126.0,127.0,126.0,112.0,127.0,25.0,-114.0,-70.0,127.0,127.0,127.0,118.0,85.0,110.0
127.0,126.0,127.0,126.0,127.0,126.0,112.0,127.0,25.0,-114.0,-70.0,127.0,127.0,127.0,118.0,85.0,110.0
127.0,126.0,127.0,126.0,127.0,126.0,112.0,127.0,25.0,-114.0,-70.0,127.0,127.0,127.0,118.0,85.0,110.0
127.0,126.0,127.0,126.0,127.0,126.0,111.0,127.0,25.0,-114.0,-70.0,127.0,127.0,127.0,118.0,85.0,110.0
127.0,127.0,127.0,126.0,127.0,126.0,111.0,127.0,25.0,-114.0,-70.0,127.0,127.0,127.0,118.0,85.0,110.0
127.0,127.0,127.0,126.0,127.0,126.0,111.0,127.0,25.0,-114.0,-70.0,127.0,127.0,127.0,118.0,85.0,110.0
127.0,127.0,127.0,126.0,127.0,126.0,111.0,127.0,25.0,-114.0,-70.0,127.0,127.0,127.0,118.0,85.0,110.0
127.0,127.0,127.0,126.0,127.0,126.0,111.0,127.0,25.0,-114.0,-70.0,127.0,127.0,127.0,118.0,85.0,110.0
127.0,127.0,127.0,126.0,127.0,126.0,111.0,127.0,25.0,-114.0,-70.0,127.0,127.0,127.0,118.0,85.0,110.0
127.0,127.0,127.0,126.0,127.0,126.0,111.0,128.0,25.0,-114.0,-70.0,127.0,127.0,127.0,118.0,85.0,110.0
127.0,127.0,127.0,126.0,126.0,126.0,111.0,128.0,25.0,-114.0,-70.0,127.0,127.0,127.0,118.0,85.0,110.0
127.0,127.0,127.0,126.0,127.0,126.0,111.0,128.0,25.0,-114.0,-70.0,127.0,127.0,127.0,118.0,85.0,110.0
127.0,127.0,127.0,126.0,127.0,126.0,111.0,127.0,25.0,-114.0,-70.0,127.0,127.0,127.0,118.0,85.0,110.0
127.0,127.0,127.0,126.0,127.0,126.0,111.0,127.0,25.0,-114.0,-70.0,127.0,127.0,127.0,118.0,85.0,110.0
127.0,127.0,127.0,126.0,127.0,126.0,111.0,127.0,25.0,-114.0,-70.0,127.0,127.0,127.0,118.0,85.0,110.0
127.0,127.0,127.0,127.0,127.0,126.0,112.0,127.0,25.0,-114.0,-70.0,127.0,127.0,127.0,118.0,85.0,110.0
127.0,127.0,127.0,127.0,127.0,126.0,111.0,127.0,25.0,-114.0,-70.0,127.0,127.0,127.0,118.0,85.0,110.0
127.0,127.0,127.0,127.0,127.0,126.0,111.0,128.0,25.0,-114.0,-70.0,127.0,127.0,127.0,118.0,85.0,110.0
127.0,127.0,127.0,127.0,127.0,126.0,111.0,128.0,25.0,-114.0,-70.0,127.0,127.0,127.0,118.0,85.0,110.0
127.0,127.0,127.0,127.0,127.0,126.0,111.0,128.0,25.0,-114.0,-70.0,127.0,127.0,127.0,118.0,85.0,110.0
127.0,127.0,127.0,127.0,127.0,126.0,111.0,128.0,25.0,-114.0,-70.0,127.0,127.0,127.0,118.0,85.0,110.0
127.0,127.0,127.0,127.0,127.0,126.0,111.0,127.0,25.0,-114.0,-70.0,127.0,127.0,127.0,118.0,85.0,110.0
127.0,127.0,127.0,127.0,127.0,126.0,111.0,127.0,25.0,-114.0,-70.0,127.0,127.0,127.0,118.0,85.0,110.0
127.0,127.0,127.0,127.0,127.0,126.0,111.0,127.0,25.0,-114.0,-70.0,127.0,127.0,127.0,118.0,85.0,110.0
127.0,127.0,127.0,127.0,127.0,126.0,111.0,127.0,25.0,-114.0,-70.0,127.0,127.0,127.0,118.0,85.0,110.0
127.0,127.0,127.0,126.0,127.0,126.0,111.0,127.0,25.0,-114.0,-70.0,127.0,127.0,127.0,118.0,85.0,110.0
127.0,126.0,126.0,127.0,127.0,126.0,111.0,127.0,25.0,-114.0,-70.0,127.0,127.0,127.0,118.0,85.0,110.0
127.0,126.0,126.0,127.0,127.0,126.0,111.0,127.0,25.0,-114.0,-70.0,127.0,127.0,127.0,118.0,85.0,110.0
127.0,126.0,126.0,127.0,127.0,126.0,111.0,127.0,25.0,-114.0,-70.0,127.0,127.0,127.0,118.0,85.0,110.0
127.0,127.0,126.0,127.0,127.0,126.0,111.0,127.0,25.0,-114.0,-70.0,127.0,127.0,127.0,118.0,85.0,110.0
127.0,127.0,126.0,126.0,127.0,126.0,111.0,127.0,25.0,-114.0,-70.0,127.0,127.0,127.0,118.0,85.0,110.0
127.0,127.0,126.0,126.0,127.0,126.0,111.0,127.0,25.0,-114.0,-70.0,127.0,127.0,127.0,118.0,85.0,110.0
127.0,127.0,126.0,126.0,127.0,126.0,112.0,127.0,25.0,-114.0,-70.0,127.0,127.0,127.0,118.0,85.0,110.0
127.0,127.0,127.0,126.0,127.0,126.0,111.0,127.0,25.0,-114.0,-70.0,127.0,127.0,127.0,118.0,85.0,110.0
127.0,127.0,127.0,126.0,127.0,126.0,111.0,127.0,25.0,-114.0,-70.0,127.0,127.0,127.0,118.0,85.0,110.0
127.0,127.0,127.0,126.0,127.0,126.0,112.0,128.0,25.0,-114.0,-70.0,127.0,127.0,127.0,118.0,85.0,110.0
127.0,127.0,127.0,126.0,127.0,126.0,112.0,128.0,25.0,-114.0,-70.0,127.0,127.0,127.0,118.0,85.0,110.0
127.0,127.0,127.0,125.0,127.0,126.0,112.0,128.0,25.0,-114.0,-70.0,127.0,127.0,127.0,118.0,85.0,110.0
127.0,127.0,127.0,125.0,127.0,126.0,112.0,128.0,25.0,-114.0,-70.0,127.0,127.0,127.0,118.0,85.0,110.0
127.0,127.0,127.0,125.0,127.0,126.0,111.0,128.0,25.0,-114.0,-70.0,127.0,127.0,127.0,118.0,85.0,110.0
127.0,127.0,127.0,125.0,127.0,126.0,111.0,128.0,25.0,-114.0,-70.0,127.0,127.0,127.0,118.0,85.0,110.0
127.0,127.0,127.0,125.0,127.0,126.0,112.0,128.0,25.0,-114.0,-70.0,127.0,127.0,127.0,118.0,85.0,110.0
127.0,127.0,127.0,125.0,127.0,126.0,111.0,128.0,25.0,-114.0,-70.0,127.0,127.0,127.0,118.0,85.0,110.0
127.0,127.0,127.0,126.0,127.0,126.0,111.0,128.0,25.0,-114.0,-70.0,127.0,127.0,127.0,118.0,85.0,110.0
127.0,127.0,127.0,126.0,127.0,126.0,111.0,128.0,25.0,-114.0,-70.0,127.0,127.0,127.0,118.0,85.0,110.0
127.0,127.0,126.0,126.0,127.0,126.0,111.0,128.0,25.0,-114.0,-70.0,127.0,127.0,127.0,118.0,85.0,110.0
127.0,127.0,126.0,126.0,127.0,126.0,112.0,128.0,25.0,-114.0,-70.0,127.0,127.0,127.0,118.0,85.0,110.0
127.0,127.0,126.0,126.0,127.0,126.0,112.0,128.0,25.0,-114.0,-70.0,127.0,127.0,127.0,118.0,85.0,110.0
127.0,127.0,126.0,126.0,127.0,126.0,111.0,128.0,25.0,-114.0,-70.0,127.0,127.0,127.0,118.0,85.0,110.0
127.0,127.0,126.0,126.0,127.0,126.0,111.0,128.0,25.0,-114.0,-70.0,127.0,127.0,127.0,118.0,85.0,110.0
127.0,127.0,126.0,126.0,127.0,126.0,112.0,128.0,25.0,-114.0,-70.0,127.0,127.0,127.0,118.0,85.0,110.0
127.0,127.0,126.0,126.0,127.0,126.0,112.0,128.0,25.0,-114.0,-70.0,127.0,127.0,127.0,118.0,85.0,110.0
127.0,127.0,126.0,126.0,127.0,126.0,112.0,128.0,25.0,-114.0,-70.0,127.0,127.0,127.0,118.0,85.0,110.0
127.0,127.0,126.0,126.0,127.0,126.0,112.0,128.0,25.0,-114.0,-70.0,127.0,127.0,127.0,118.0,85.0,110.0
127.0,127.0,126.0,126.0,127.0,126.0,112.0,128.0,25.0,-114.0,-70.0,127.0,127.0,127.0,118.0,85.0,110.0
126.0,127.0,127.0,126.0,127.0,126.0,111.0,128.0,25.0,-114.0,-70.0,127.0,127.0,127.0,118.0,85.0,110.0
126.0,127.0,127.0,126.0,127.0,126.0,111.0,128.0,25.0,-114.0,-70.0,127.0,127.0,127.0,118.0,85.0,110.0
126.0,127.0,127.0,127.0,127.0,126.0,111.0,128.0,25.0,-114.0,-70.0,127.0,127.0,127.0,118.0,85.0,110.0
126.0,127.0,127.0,126.0,127.0,126.0,111.0,128.0,25.0,-114.0,-70.0,127.0,127.0,127.0,118.0,85.0,110.0
126.0,127.0,127.0,127.0,127.0,126.0,111.0,128.0,25.0,-114.0,-70.0,127.0,127.0,127.0,118.0,85.0,110.0
126.0,127.0,127.0,127.0,127.0,126.0,112.0,128.0,25.0,-114.0,-70.0,127.0,127.0,127.0,118.0,85.0,110.0
126.0,127.0,127.0,127.0,127.0,126.0,112.0,127.0,25.0,-114.0,-70.0,127.0,127.0,127.0,118.0,85.0,110.0
127.0,127.0,127.0,126.0,127.0,126.0,111.0,127.0,25.0,-114.0,-70.0,127.0,127.0,127.0,118.0,85.0,110.0
127.0,126.0,126.0,127.0,127.0,126.0,111.0,128.0,25.0,-114.0,-70.0,127.0,127.0,127.0,118.0,85.0,110.0
127.0,126.0,127.0,127.0,127.0,126.0,111.0,128.0,25.0,-114.0,-70.0,127.0,127.0,127.0,118.0,85.0,110.0
127.0,127.0,127.0,127.0,127.0,126.0,112.0,127.0,25.0,-114.0,-70.0,127.0,127.0,127.0,118.0,85.0,110.0
127.0,127.0,127.0,127.0,127.0,126.0,111.0,127.0,25.0,-114.0,-70.0,127.0,127.0,127.0,118.0,85.0,110.0
127.0,127.0,127.0,127.0,127.0,126.0,112.0,127.0,25.0,-114.0,-70.0,127.0,127.0,127.0,118.0,85.0,110.0
127.0,127.0,127.0,126.0,127.0,126.0,111.0,127.0,25.0,-114.0,-70.0,127.0,127.0,127.0,118.0,85.0,110.0
127.0,126.0,127.0,126.0,127.0,126.0,112.0,127.0,25.0,-114.0,-70.0,127.0,127.0,127.0,118.0,85.0,110.0
127.0,126.0,126.0,126.0,127.0,126.0,112.0,127.0,25.0,-114.0,-70.0,127.0,127.0,127.0,118.0,85.0,110.0
127.0,126.0,127.0,126.0,127.0,126.0,112.0,127.0,25.0,-114.0,-70.0,127.0,127.0,127.0,118.0,85.0,110.0
127.0,127.0,127.0,127.0,127.0,126.0,111.0,128.0,25.0,-114.0,-70.0,127.0,127.0,127.0,118.0,85.0,110.0
127.0,127.0,127.0,127.0,127.0,126.0,111.0,127.0,25.0,-114.0,-70.0,127.0,127.0,127.0,118.0,85.0,110.0
127.0,127.0,127.0,127.0,127.0,126.0,112.0,127.0,25.0,-114.0,-70.0,127.0,127.0,127.0,118.0,85.0,110.0
127.0,126.0,127.0,126.0,127.0,126.0,111.0,128.0,25.0,-114.0,-70.0,127.0,127.0,127.0,118.0,85.0,110.0
127.0,126.0,127.0,126.0,127.0,126.0,112.0,127.0,25.0,-114.0,-70.0,127.0,127.0,127.0,118.0,85.0,110.0
127.0,126.0,127.0,126.0,127.0,126.0,112.0,127.0,25.0,-114.0,-70.0,127.0,127.0,127.0,118.0,85.0,110.0
127.0,126.0,127.0,126.0,127.0,126.0,111.0,127.0,25.0,-114.0,-70.0,127.0,127.0,127.0,118.0,85.0,110.0
126.0,126.0,127.0,126.0,127.0,126.0,111.0,127.0,25.0,-114.0,-70.0,127.0,127.0,127.0,118.0,85.0,110.0
126.0,127.0,127.0,126.0,127.0,126.0,111.0,127.0,25.0,-114.0,-70.0,127.0,127.0,127.0,118.0,85.0,110.0
127.0,127.0,127.0,126.0,127.0,126.0,112.0,128.0,25.0,-114.0,-70.0,127.0,127.0,127.0,118.0,85.0,110.0
127.0,127.0,127.0,126.0,127.0,126.0,112.0,128.0,25.0,-114.0,-70.0,127.0,127.0,127.0,118.0,85.0,110.0
127.0,127.0,127.0,126.0,127.0,126.0,112.0,128.0,25.0,-114.0,-70.0,127.0,127.0,127.0,118.0,85.0,110.0
127.0,126.0,127.0,126.0,127.0,126.0,111.0,128.0,25.0,-114.0,-70.0,127.0,127.0,127.0,118.0,85.0,110.0
126.0,127.0,128.0,126.0,127.0,126.0,113.0,127.0,25.0,-114.0,-70.0,127.0,127.0,127.0,118.0,85.0,110.0
126.0,127.0,128.0,126.0,127.0,126.0,113.0,127.0,25.0,-114.0,-70.0,127.0,127.0,127.0,118.0,85.0,110.0
127.0,127.0,128.0,126.0,127.0,126.0,113.0,127.0,25.0,-114.0,-70.0,127.0,127.0,127.0,118.0,85.0,110.0
127.0,127.0,129.0,126.0,127.0,126.0,112.0,127.0,25.0,-114.0,-70.0,127.0,127.0,127.0,118.0,85.0,110.0
127.0,127.0,129.0,126.0,127.0,126.0,112.0,127.0,25.0,-114.0,-70.0,127.0,127.0,127.0,118.0,85.0,110.0
127.0,127.0,127.0,128.0,127.0,126.0,113.0,128.0,25.0,-114.0,-70.0,127.0,127.0,127.0,118.0,85.0,110.0
126.0,127.0,127.0,128.0,127.0,126.0,112.0,128.0,25.0,-114.0,-70.0,127.0,127.0,127.0,118.0,85.0,110.0
126.0,127.0,127.0,127.0,128.0,126.0,112.0,127.0,25.0,-114.0,-70.0,127.0,127.0,127.0,118.0,85.0,110.0
126.0,127.0,128.0,127.0,128.0,126.0,112.0,127.0,25.0,-114.0,-70.0,127.0,127.0,127.0,118.0,85.0,110.0
127.0,127.0,128.0,127.0,127.0,126.0,112.0,127.0,25.0,-114.0,-70.0,127.0,127.0,127.0,118.0,85.0,110.0
127.0,127.0,129.0,129.0,126.0,126.0,111.0,126.0,25.0,-114.0,-70.0,127.0,127.0,127.0,118.0,85.0,110.0
127.0,127.0,129.0,129.0,126.0,126.0,111.0,126.0,25.0,-114.0,-70.0,127.0,127.0,127.0,118.0,85.0,110.0
127.0,126.0,129.0,128.0,125.0,126.0,111.0,126.0,25.0,-114.0,-70.0,127.0,127.0,127.0,118.0,85.0,110.0
127.0,126.0,130.0,128.0,125.0,126.0,111.0,127.0,25.0,-114.0,-70.0,127.0,127.0,127.0,118.0,85.0,110.0
126.0,127.0,129.0,127.0,126.0,126.0,111.0,127.0,25.0,-114.0,-70.0,127.0,127.0,127.0,118.0,85.0,110.0
126.0,127.0,129.0,127.0,126.0,126.0,111.0,127.0,25.0,-114.0,-70.0,127.0,127.0,127.0,118.0,85.0,110.0
126.0,127.0,129.0,128.0,126.0,126.0,111.0,127.0,25.0,-114.0,-70.0,127.0,127.0,127.0,118.0,85.0,110.0
127.0,127.0,129.0,128.0,126.0,126.0,111.0,127.0,25.0,-114.0,-70.0,127.0,127.0,127.0,118.0,85.0,110.0
127.0,127.0,129.0,129.0,126.0,126.0,111.0,127.0,25.0,-114.0,-70.0,127.0,127.0,127.0,118.0,85.0,110.0
127.0,127.0,129.0,129.0,126.0,126.0,111.0,127.0,25.0,-114.0,-70.0,127.0,127.0,127.0,118.0,85.0,110.0
127.0,127.0,170.0,132.0,128.0,126.0,111.0,127.0,25.0,-114.0,-70.0,127.0,127.0,127.0,118.0,85.0,110.0
126.0,126.0,171.0,132.0,128.0,126.0,110.0,127.0,25.0,-114.0,-70.0,127.0,127.0,127.0,118.0,85.0,110.0
126.0,127.0,172.0,132.0,128.0,125.0,110.0,127.0,25.0,-114.0,-70.0,127.0,127.0,127.0,118.0,85.0,110.0
127.0,126.0,163.0,133.0,129.0,126.0,112.0,127.0,25.0,-114.0,-70.0,127.0,127.0,127.0,118.0,85.0,110.0
127.0,126.0,164.0,133.0,129.0,126.0,112.0,127.0,25.0,-114.0,-70.0,127.0,127.0,127.0,118.0,85.0,110.0
127.0,126.0,164.0,133.0,129.0,126.0,111.0,127.0,25.0,-114.0,-70.0,127.0,127.0,127.0,118.0,85.0,110.0
127.0,126.0,166.0,133.0,129.0,126.0,111.0,127.0,25.0,-114.0,-70.0,127.0,127.0,127.0,118.0,85.0,110.0
127.0,126.0,167.0,133.0,129.0,126.0,111.0,127.0,25.0,-114.0,-70.0,127.0,127.0,127.0,118.0,85.0,110.0
127.0,126.0,168.0,132.0,128.0,126.0,111.0,127.0,25.0,-114.0,-70.0,127.0,127.0,127.0,118.0,85.0,110.0
127.0,126.0,169.0,132.0,128.0,126.0,111.0,127.0,25.0,-114.0,-70.0,127.0,127.0,127.0,118.0,85.0,110.0
126.0,127.0,183.0,136.0,130.0,126.0,112.0,128.0,25.0,-114.0,-70.0,127.0,127.0,127.0,118.0,85.0,110.0
126.0,127.0,182.0,135.0,130.0,126.0,112.0,128.0,25.0,-114.0,-70.0,127.0,127.0,127.0,118.0,85.0,110.0
127.0,127.0,189.0,135.0,129.0,126.0,110.0,127.0,25.0,-114.0,-70.0,127.0,127.0,127.0,118.0,85.0,110.0
127.0,127.0,189.0,135.0,129.0,126.0,111.0,128.0,25.0,-114.0,-70.0,127.0,127.0,127.0,118.0,85.0,110.0
127.0,127.0,188.0,135.0,130.0,126.0,111.0,127.0,25.0,-114.0,-70.0,127.0,127.0,127.0,118.0,85.0,110.0
126.0,127.0,188.0,136.0,130.0,126.0,112.0,127.0,25.0,-114.0,-70.0,127.0,127.0,127.0,118.0,85.0,110.0
126.0,127.0,187.0,136.0,130.0,126.0,111.0,127.0,25.0,-114.0,-70.0,127.0,127.0,127.0,118.0,85.0,110.0
126.0,127.0,186.0,136.0,130.0,126.0,112.0,128.0,25.0,-114.0,-70.0,127.0,127.0,127.0,118.0,85.0,110.0
126.0,127.0,185.0,137.0,130.0,126.0,112.0,128.0,25.0,-114.0,-70.0,127.0,127.0,127.0,118.0,85.0,110.0
126.0,127.0,184.0,136.0,130.0,126.0,112.0,128.0,25.0,-114.0,-70.0,127.0,127.0,127.0,118.0,85.0,110.0
127.0,127.0,129.0,150.0,132.0,127.0,107.0,128.0,25.0,-114.0,-69.0,127.0,127.0,127.0,118.0,85.0,110.0
127.0,127.0,132.0,147.0,128.0,126.0,112.0,128.0,25.0,-114.0,-69.0,127.0,127.0,127.0,118.0,85.0,110.0
126.0,127.0,131.0,149.0,129.0,126.0,112.0,128.0,25.0,-114.0,-69.0,127.0,127.0,127.0,118.0,85.0,110.0
126.0,127.0,131.0,150.0,130.0,126.0,112.0,128.0,25.0,-114.0,-69.0,127.0,127.0,127.0,118.0,85.0,110.0
127.0,127.0,130.0,151.0,130.0,127.0,112.0,128.0,25.0,-114.0,-69.0,127.0,127.0,127.0,118.0,85.0,110.0
127.0,127.0,129.0,151.0,131.0,127.0,113.0,128.0,25.0,-114.0,-69.0,127.0,127.0,127.0,118.0,85.0,110.0
127.0,127.0,129.0,152.0,131.0,127.0,113.0,128.0,25.0,-114.0,-69.0,127.0,127.0,127.0,118.0,85.0,110.0
127.0,127.0,129.0,152.0,132.0,127.0,107.0,128.0,25.0,-114.0,-69.0,127.0,127.0,127.0,118.0,85.0,110.0
127.0,127.0,129.0,152.0,132.0,127.0,106.0,128.0,25.0,-114.0,-69.0,127.0,127.0,127.0,118.0,85.0,110.0
127.0,127.0,129.0,151.0,132.0,127.0,107.0,128.0,25.0,-114.0,-69.0,127.0,127.0,127.0,118.0,85.0,110.0
127.0,127.0,154.0,134.0,128.0,128.0,109.0,127.0,25.0,-115.0,-69.0,127.0,127.0,127.0,118.0,85.0,110.0
127.0,127.0,154.0,132.0,128.0,128.0,108.0,126.0,25.0,-115.0,-69.0,127.0,127.0,127.0,118.0,85.0,110.0
127.0,127.0,154.0,130.0,128.0,128.0,108.0,126.0,25.0,-115.0,-69.0,127.0,127.0,127.0,118.0,85.0,110.0
127.0,127.0,154.0,130.0,128.0,128.0,108.0,126.0,25.0,-115.0,-69.0,127.0,127.0,127.0,118.0,85.0,110.0
127.0,127.0,154.0,130.0,128.0,128.0,107.0,125.0,25.0,-115.0,-69.0,127.0,127.0,127.0,118.0,85.0,110.0
127.0,126.0,154.0,130.0,128.0,128.0,107.0,125.0,25.0,-115.0,-69.0,127.0,127.0,127.0,118.0,85.0,110.0
127.0,126.0,154.0,131.0,127.0,128.0,107.0,124.0,25.0,-115.0,-69.0,127.0,127.0,127.0,118.0,85.0,110.0
127.0,126.0,154.0,131.0,127.0,128.0,107.0,124.0,25.0,-115.0,-69.0,127.0,127.0,127.0,118.0,85.0,110.0
127.0,126.0,155.0,131.0,127.0,128.0,107.0,124.0,25.0,-115.0,-69.0,127.0,127.0,127.0,118.0,85.0,110.0
127.0,127.0,156.0,130.0,126.0,127.0,107.0,124.0,25.0,-115.0,-69.0,127.0,127.0,127.0,118.0,85.0,110.0
127.0,126.0,153.0,142.0,131.0,126.0,111.0,119.0,26.0,-116.0,-69.0,-128.0,127.0,127.0,118.0,85.0,110.0
127.0,126.0,152.0,143.0,131.0,126.0,112.0,119.0,26.0,-116.0,-69.0,-128.0,127.0,127.0,118.0,85.0,110.0
127.0,126.0,151.0,142.0,131.0,126.0,112.0,119.0,26.0,-116.0,-69.0,-128.0,127.0,127.0,118.0,85.0,110.0
126.0,126.0,149.0,142.0,131.0,126.0,112.0,119.0,26.0,-116.0,-69.0,-128.0,127.0,127.0,118.0,85.0,110.0
126.0,127.0,148.0,141.0,131.0,126.0,112.0,119.0,26.0,-116.0,-69.0,-128.0,127.0,127.0,118.0,85.0,110.0
126.0,127.0,147.0,140.0,130.0,126.0,111.0,120.0,26.0,-116.0,-69.0,-128.0,127.0,127.0,118.0,85.0,110.0
126.0,127.0,145.0,138.0,130.0,126.0,111.0,120.0,26.0,-116.0,-69.0,-128.0,127.0,127.0,118.0,85.0,110.0
126.0,127.0,143.0,136.0,130.0,126.0,110.0,121.0,26.0,-116.0,-69.0,-128.0,127.0,127.0,118.0,85.0,110.0
126.0,127.0,141.0,134.0,129.0,125.0,111.0,121.0,26.0,-116.0,-69.0,-128.0,127.0,127.0,118.0,85.0,110.0
127.0,126.0,154.0,142.0,131.0,126.0,111.0,120.0,26.0,-116.0,-69.0,-128.0,127.0,127.0,118.0,85.0,110.0
127.0,127.0,115.0,141.0,125.0,125.0,110.0,111.0,26.0,-115.0,-70.0,-128.0,127.0,127.0,118.0,85.0,110.0
127.0,127.0,116.0,140.0,126.0,126.0,111.0,110.0,26.0,-115.0,-70.0,-128.0,127.0,127.0,118.0,85.0,110.0
127.0,127.0,117.0,139.0,126.0,126.0,111.0,109.0,26.0,-115.0,-70.0,-128.0,127.0,127.0,118.0,85.0,110.0
127.0,127.0,118.0,139.0,126.0,126.0,112.0,109.0,26.0,-115.0,-70.0,-128.0,127.0,127.0,118.0,85.0,110.0
127.0,127.0,119.0,139.0,126.0,126.0,111.0,108.0,26.0,-115.0,-70.0,-128.0,127.0,127.0,118.0,85.0,110.0
127.0,127.0,119.0,139.0,127.0,126.0,112.0,108.0,26.0,-115.0,-70.0,-128.0,127.0,127.0,118.0,85.0,110.0
127.0,127.0,120.0,139.0,127.0,127.0,112.0,109.0,26.0,-115.0,-70.0,-128.0,127.0,127.0,118.0,85.0,110.0
127.0,127.0,120.0,140.0,127.0,127.0,113.0,110.0,26.0,-115.0,-70.0,-128.0,127.0,127.0,118.0,85.0,110.0
127.0,127.0,114.0,141.0,125.0,125.0,110.0,113.0,26.0,-115.0,-70.0,-128.0,127.0,127.0,118.0,85.0,110.0
127.0,127.0,114.0,141.0,125.0,125.0,110.0,112.0,26.0,-115.0,-70.0,-128.0,127.0,127.0,118.0,85.0,110.0
127.0,126.0,74.0,129.0,128.0,122.0,105.0,133.0,27.0,-116.0,-71.0,-128.0,127.0,127.0,118.0,85.0,110.0
127.0,126.0,73.0,129.0,128.0,122.0,105.0,132.0,27.0,-116.0,-71.0,-128.0,127.0,127.0,118.0,85.0,110.0
127.0,126.0,72.0,128.0,128.0,122.0,105.0,131.0,27.0,-116.0,-71.0,-128.0,127.0,127.0,118.0,85.0,110.0
127.0,126.0,71.0,128.0,129.0,122.0,104.0,130.0,27.0,-116.0,-71.0,-128.0,127.0,127.0,118.0,85.0,110.0
127.0,126.0,70.0,127.0,129.0,121.0,104.0,129.0,27.0,-116.0,-71.0,-128.0,127.0,127.0,118.0,85.0,110.0
127.0,127.0,69.0,127.0,129.0,121.0,103.0,128.0,27.0,-116.0,-71.0,-128.0,127.0,127.0,118.0,85.0,110.0
127.0,127.0,68.0,126.0,129.0,121.0,103.0,127.0,27.0,-116.0,-71.0,-128.0,127.0,127.0,118.0,85.0,110.0
127.0,127.0,75.0,130.0,127.0,123.0,106.0,136.0,27.0,-116.0,-71.0,-128.0,127.0,127.0,118.0,85.0,110.0
127.0,127.0,75.0,130.0,128.0,123.0,106.0,136.0,27.0,-116.0,-71.0,-128.0,127.0,127.0,118.0,85.0,110.0
127.0,127.0,74.0,129.0,128.0,122.0,106.0,135.0,27.0,-116.0,-71.0,-128.0,127.0,127.0,118.0,85.0,110.0
126.0,127.0,49.0,123.0,132.0,108.0,95.0,129.0,27.0,-118.0,-73.0,-128.0,127.0,127.0,119.0,85.0,110.0
126.0,127.0,50.0,123.0,132.0,108.0,95.0,131.0,27.0,-118.0,-73.0,-128.0,127.0,127.0,119.0,85.0,110.0
126.0,127.0,50.0,122.0,133.0,108.0,96.0,132.0,27.0,-118.0,-73.0,-128.0,127.0,127.0,119.0,85.0,110.0
126.0,127.0,50.0,120.0,133.0,109.0,96.0,134.0,27.0,-118.0,-73.0,-128.0,127.0,127.0,119.0,85.0,110.0
126.0,127.0,50.0,119.0,133.0,109.0,96.0,136.0,27.0,-118.0,-73.0,-128.0,127.0,127.0,119.0,85.0,110.0
127.0,127.0,50.0,118.0,133.0,109.0,97.0,139.0,27.0,-118.0,-73.0,-128.0,127.0,127.0,119.0,85.0,110.0
127.0,126.0,48.0,128.0,130.0,108.0,95.0,125.0,27.0,-118.0,-73.0,-128.0,127.0,127.0,119.0,85.0,110.0
126.0,126.0,48.0,126.0,130.0,108.0,95.0,126.0,27.0,-118.0,-73.0,-128.0,127.0,127.0,119.0,85.0,110.0
126.0,126.0,49.0,125.0,131.0,108.0,95.0,127.0,27.0,-118.0,-73.0,-128.0,127.0,127.0,119.0,85.0,110.0
126.0,127.0,49.0,124.0,131.0,108.0,95.0,128.0,27.0,-118.0,-73.0,-128.0,127.0,127.0,119.0,85.0,110.0
127.0,127.0,83.0,125.0,125.0,115.0,99.0,145.0,28.0,-119.0,-75.0,-128.0,-128.0,127.0,119.0,85.0,110.0
127.0,127.0,84.0,125.0,125.0,115.0,100.0,146.0,28.0,-119.0,-75.0,-128.0,-128.0,127.0,119.0,85.0,110.0
127.0,127.0,85.0,123.0,125.0,116.0,101.0,146.0,28.0,-119.0,-75.0,-128.0,-128.0,127.0,119.0,85.0,110.0
127.0,127.0,86.0,121.0,126.0,116.0,102.0,148.0,28.0,-119.0,-75.0,-128.0,-128.0,127.0,119.0,85.0,110.0
127.0,127.0,87.0,118.0,126.0,117.0,103.0,149.0,28.0,-119.0,-75.0,-128.0,-128.0,127.0,119.0,85.0,110.0
126.0,127.0,79.0,121.0,126.0,113.0,97.0,144.0,28.0,-119.0,-75.0,-128.0,-128.0,127.0,119.0,85.0,110.0
126.0,127.0,79.0,122.0,126.0,113.0,98.0,144.0,28.0,-119.0,-75.0,-128.0,-128.0,127.0,119.0,85.0,110.0
126.0,127.0,80.0,123.0,126.0,114.0,98.0,144.0,28.0,-119.0,-75.0,-128.0,-128.0,127.0,119.0,85.0,110.0
126.0,127.0,81.0,124.0,126.0,114.0,98.0,144.0,28.0,-119.0,-75.0,-128.0,-128.0,127.0,119.0,85.0,110.0
126.0,127.0,82.0,125.0,126.0,114.0,99.0,144.0,28.0,-119.0,-75.0,-128.0,-128.0,127.0,119.0,85.0,110.0
127.0,126.0,108.0,121.0,126.0,116.0,102.0,138.0,25.0,-116.0,-74.0,-127.0,127.0,127.0,119.0,85.0,110.0
127.0,127.0,108.0,123.0,126.0,116.0,102.0,138.0,25.0,-116.0,-74.0,-127.0,127.0,127.0,119.0,85.0,110.0
127.0,127.0,108.0,124.0,125.0,115.0,101.0,137.0,25.0,-116.0,-74.0,-127.0,127.0,127.0,119.0,85.0,110.0
127.0,127.0,107.0,111.0,127.0,118.0,105.0,129.0,25.0,-116.0,-74.0,-127.0,127.0,127.0,119.0,85.0,110.0
127.0,127.0,108.0,112.0,127.0,118.0,105.0,132.0,25.0,-116.0,-74.0,-127.0,127.0,127.0,119.0,85.0,110.0
127.0,126.0,108.0,114.0,127.0,118.0,105.0,134.0,25.0,-116.0,-74.0,-127.0,127.0,127.0,119.0,85.0,110.0
127.0,126.0,108.0,115.0,127.0,117.0,104.0,136.0,25.0,-116.0,-74.0,-127.0,127.0,127.0,119.0,85.0,110.0
127.0,126.0,107.0,116.0,127.0,117.0,104.0,137.0,25.0,-116.0,-74.0,-127.0,127.0,127.0,119.0,85.0,110.0
127.0,126.0,107.0,118.0,126.0,117.0,103.0,138.0,25.0,-116.0,-74.0,-127.0,127.0,127.0,119.0,85.0,110.0
127.0,126.0,107.0,120.0,126.0,116.0,103.0,138.0,25.0,-116.0,-74.0,-127.0,127.0,127.0,119.0,85.0,110.0
126.0,127.0,111.0,124.0,131.0,118.0,105.0,128.0,22.0,-110.0,-70.0,-127.0,127.0,127.0,119.0,85.0,110.0
126.0,127.0,111.0,124.0,131.0,119.0,106.0,128.0,22.0,-110.0,-70.0,-127.0,127.0,127.0,119.0,85.0,110.0
127.0,126.0,113.0,118.0,132.0,117.0,104.0,127.0,22.0,-110.0,-70.0,-127.0,127.0,127.0,119.0,85.0,110.0
127.0,127.0,113.0,118.0,132.0,118.0,104.0,127.0,22.0,-110.0,-70.0,-127.0,127.0,127.0,119.0,85.0,110.0
127.0,127.0,112.0,119.0,132.0,118.0,104.0,126.0,22.0,-110.0,-70.0,-127.0,127.0,127.0,119.0,85.0,110.0
127.0,127.0,112.0,120.0,132.0,118.0,105.0,126.0,22.0,-110.0,-70.0,-127.0,127.0,127.0,119.0,85.0,110.0
126.0,127.0,112.0,120.0,132.0,118.0,105.0,126.0,22.0,-110.0,-70.0,-127.0,127.0,127.0,119.0,85.0,110.0
127.0,127.0,112.0,121.0,132.0,118.0,105.0,126.0,22.0,-110.0,-70.0,-127.0,127.0,127.0,119.0,85.0,110.0
127.0,127.0,112.0,122.0,132.0,118.0,105.0,126.0,22.0,-110.0,-70.0,-127.0,127.0,127.0,119.0,85.0,110.0
127.0,127.0,111.0,123.0,131.0,118.0,105.0,127.0,22.0,-110.0,-70.0,-127.0,127.0,127.0,119.0,85.0,110.0
127.0,127.0,124.0,119.0,128.0,130.0,111.0,143.0,22.0,-106.0,-69.0,-128.0,127.0,127.0,119.0,85.0,110.0
126.0,127.0,120.0,119.0,127.0,129.0,108.0,137.0,22.0,-106.0,-69.0,-128.0,127.0,127.0,119.0,85.0,110.0
126.0,127.0,121.0,119.0,127.0,129.0,109.0,137.0,22.0,-106.0,-69.0,-128.0,127.0,127.0,119.0,85.0,110.0
126.0,127.0,122.0,119.0,127.0,129.0,109.0,137.0,22.0,-106.0,-69.0,-128.0,127.0,127.0,119.0,85.0,110.0
126.0,127.0,122.0,118.0,128.0,129.0,109.0,138.0,22.0,-106.0,-69.0,-128.0,127.0,127.0,119.0,85.0,110.0
127.0,127.0,123.0,118.0,128.0,129.0,110.0,139.0,22.0,-106.0,-69.0,-128.0,127.0,127.0,119.0,85.0,110.0
127.0,127.0,123.0,117.0,128.0,130.0,110.0,141.0,22.0,-106.0,-69.0,-128.0,127.0,127.0,119.0,85.0,110.0
126.0,127.0,124.0,117.0,128.0,130.0,111.0,143.0,22.0,-106.0,-69.0,-128.0,127.0,127.0,119.0,85.0,110.0
127.0,127.0,124.0,117.0,128.0,130.0,111.0,144.0,22.0,-106.0,-69.0,-128.0,127.0,127.0,119.0,85.0,110.0
127.0,127.0,124.0,118.0,128.0,130.0,111.0,143.0,22.0,-106.0,-69.0,-128.0,127.0,127.0,119.0,85.0,110.0
127.0,127.0,126.0,128.0,125.0,130.0,111.0,135.0,20.0,-107.0,-70.0,-128.0,127.0,127.0,119.0,85.0,110.0
127.0,127.0,126.0,127.0,125.0,130.0,111.0,136.0,20.0,-107.0,-70.0,-128.0,127.0,127.0,119.0,85.0,110.0
127.0,127.0,126.0,126.0,125.0,130.0,111.0,136.0,20.0,-107.0,-70.0,-128.0,127.0,127.0,119.0,85.0,110.0
127.0,127.0,126.0,125.0,125.0,130.0,111.0,136.0,20.0,-107.0,-70.0,-128.0,127.0,127.0,119.0,85.0,110.0
127.0,127.0,127.0,124.0,125.0,130.0,111.0,137.0,20.0,-107.0,-70.0,-128.0,127.0,127.0,119.0,85.0,110.0
127.0,127.0,127.0,123.0,126.0,130.0,111.0,138.0,20.0,-107.0,-70.0,-128.0,127.0,127.0,119.0,85.0,110.0
127.0,127.0,127.0,123.0,126.0,131.0,112.0,139.0,20.0,-107.0,-70.0,-128.0,127.0,127.0,119.0,85.0,110.0
127.0,127.0,127.0,122.0,127.0,131.0,112.0,140.0,20.0,-107.0,-70.0,-128.0,127.0,127.0,119.0,85.0,110.0
127.0,127.0,128.0,121.0,127.0,131.0,113.0,141.0,20.0,-107.0,-70.0,-128.0,127.0,127.0,119.0,85.0,110.0
127.0,127.0,128.0,119.0,127.0,131.0,113.0,142.0,20.0,-107.0,-70.0,-128.0,127.0,127.0,119.0,85.0,110.0
127.0,127.0,130.0,133.0,125.0,137.0,115.0,146.0,20.0,-108.0,-70.0,-128.0,127.0,127.0,119.0,85.0,110.0
127.0,127.0,131.0,133.0,125.0,137.0,115.0,146.0,20.0,-108.0,-70.0,-128.0,127.0,127.0,119.0,85.0,110.0
127.0,127.0,131.0,132.0,125.0,137.0,116.0,146.0,20.0,-108.0,-70.0,-128.0,127.0,127.0,119.0,85.0,110.0
127.0,127.0,131.0,132.0,125.0,138.0,116.0,145.0,20.0,-108.0,-70.0,-128.0,127.0,127.0,119.0,85.0,110.0
127.0,127.0,132.0,132.0,126.0,138.0,116.0,145.0,20.0,-108.0,-70.0,-128.0,127.0,127.0,119.0,85.0,110.0
126.0,127.0,132.0,132.0,126.0,138.0,117.0,145.0,20.0,-108.0,-70.0,-128.0,127.0,127.0,119.0,85.0,110.0
126.0,127.0,132.0,132.0,126.0,138.0,118.0,145.0,20.0,-108.0,-70.0,-128.0,127.0,127.0,119.0,85.0,110.0
127.0,127.0,133.0,131.0,126.0,139.0,118.0,145.0,20.0,-108.0,-70.0,-128.0,127.0,127.0,119.0,85.0,110.0
127.0,127.0,133.0,130.0,126.0,139.0,118.0,144.0,20.0,-108.0,-70.0,-128.0,127.0,127.0,119.0,85.0,110.0
127.0,126.0,129.0,133.0,125.0,137.0,114.0,146.0,20.0,-108.0,-70.0,-128.0,127.0,127.0,119.0,85.0,110.0
127.0,127.0,131.0,142.0,126.0,139.0,120.0,145.0,21.0,-108.0,-70.0,127.0,126.0,127.0,119.0,85.0,110.0
127.0,127.0,131.0,143.0,126.0,139.0,120.0,145.0,21.0,-108.0,-70.0,127.0,126.0,127.0,119.0,85.0,110.0
127.0,127.0,131.0,143.0,125.0,139.0,119.0,145.0,21.0,-108.0,-70.0,127.0,126.0,127.0,119.0,85.0,110.0
127.0,127.0,131.0,142.0,126.0,139.0,119.0,144.0,21.0,-108.0,-70.0,127.0,126.0,127.0,119.0,85.0,110.0
127.0,127.0,131.0,141.0,125.0,139.0,119.0,144.0,21.0,-108.0,-70.0,127.0,126.0,127.0,119.0,85.0,110.0
127.0,127.0,131.0,140.0,126.0,139.0,119.0,144.0,21.0,-108.0,-70.0,127.0,126.0,127.0,119.0,85.0,110.0
127.0,127.0,132.0,138.0,126.0,139.0,120.0,145.0,21.0,-108.0,-70.0,127.0,126.0,127.0,119.0,85.0,110.0
127.0,127.0,132.0,136.0,126.0,139.0,120.0,145.0,21.0,-108.0,-70.0,127.0,126.0,127.0,119.0,85.0,110.0
126.0,127.0,131.0,139.0,126.0,140.0,120.0,145.0,21.0,-108.0,-70.0,127.0,126.0,127.0,119.0,85.0,110.0
127.0,127.0,131.0,141.0,126.0,140.0,120.0,145.0,21.0,-108.0,-70.0,127.0,126.0,127.0,119.0,85.0,110.0
127.0,127.0,127.0,126.0,129.0,139.0,119.0,142.0,22.0,-107.0,-69.0,127.0,126.0,127.0,118.0,85.0,110.0
127.0,127.0,128.0,126.0,129.0,139.0,118.0,143.0,22.0,-107.0,-69.0,127.0,126.0,127.0,118.0,85.0,110.0
127.0,126.0,128.0,126.0,129.0,138.0,118.0,143.0,22.0,-107.0,-69.0,127.0,126.0,127.0,118.0,85.0,110.0
127.0,126.0,128.0,126.0,129.0,138.0,118.0,143.0,22.0,-107.0,-69.0,127.0,126.0,127.0,118.0,85.0,110.0
127.0,126.0,128.0,127.0,128.0,138.0,118.0,143.0,22.0,-107.0,-69.0,127.0,126.0,127.0,118.0,85.0,110.0
127.0,126.0,129.0,127.0,128.0,138.0,117.0,144.0,22.0,-107.0,-69.0,127.0,126.0,127.0,118.0,85.0,110.0
127.0,126.0,129.0,128.0,128.0,138.0,117.0,144.0,22.0,-107.0,-69.0,127.0,126.0,127.0,118.0,85.0,110.0
127.0,127.0,128.0,127.0,129.0,139.0,120.0,144.0,22.0,-107.0,-69.0,127.0,126.0,127.0,118.0,85.0,110.0
127.0,127.0,127.0,127.0,129.0,139.0,119.0,143.0,22.0,-107.0,-69.0,127.0,126.0,127.0,118.0,85.0,110.0
127.0,127.0,127.0,126.0,129.0,139.0,118.0,143.0,22.0,-107.0,-69.0,127.0,126.0,127.0,118.0,85.0,110.0
127.0,127.0,131.0,131.0,127.0,130.0,111.0,144.0,23.0,-106.0,-68.0,126.0,126.0,127.0,118.0,85.0,110.0
126.0,127.0,132.0,131.0,128.0,130.0,111.0,144.0,23.0,-106.0,-68.0,126.0,126.0,127.0,118.0,85.0,110.0
126.0,127.0,132.0,130.0,128.0,130.0,111.0,144.0,23.0,-106.0,-68.0,126.0,126.0,127.0,118.0,85.0,110.0
126.0,127.0,133.0,129.0,128.0,130.0,111.0,144.0,23.0,-106.0,-68.0,126.0,126.0,127.0,118.0,85.0,110.0
126.0,127.0,133.0,128.0,128.0,130.0,111.0,144.0,23.0,-106.0,-68.0,126.0,126.0,127.0,118.0,85.0,110.0
127.0,127.0,133.0,127.0,128.0,129.0,110.0,143.0,23.0,-106.0,-68.0,126.0,126.0,127.0,118.0,85.0,110.0
127.0,126.0,131.0,132.0,128.0,131.0,112.0,145.0,23.0,-106.0,-68.0,126.0,126.0,127.0,118.0,85.0,110.0
127.0,126.0,131.0,132.0,128.0,131.0,112.0,145.0,23.0,-106.0,-68.0,126.0,126.0,127.0,118.0,85.0,110.0
127.0,126.0,131.0,131.0,128.0,130.0,112.0,145.0,23.0,-106.0,-68.0,126.0,126.0,127.0,118.0,85.0,110.0
127.0,126.0,131.0,131.0,127.0,130.0,112.0,144.0,23.0,-106.0,-68.0,126.0,126.0,127.0,118.0,85.0,110.0
127.0,127.0,138.0,133.0,126.0,124.0,108.0,132.0,25.0,-107.0,-67.0,126.0,126.0,127.0,118.0,85.0,110.0
127.0,127.0,138.0,133.0,126.0,124.0,108.0,133.0,25.0,-107.0,-67.0,126.0,126.0,127.0,118.0,85.0,110.0
127.0,127.0,138.0,133.0,125.0,124.0,107.0,133.0,25.0,-107.0,-67.0,126.0,126.0,127.0,118.0,85.0,110.0
127.0,127.0,138.0,133.0,125.0,123.0,107.0,134.0,25.0,-107.0,-67.0,126.0,126.0,127.0,118.0,85.0,110.0
127.0,127.0,138.0,133.0,125.0,123.0,107.0,134.0,25.0,-107.0,-67.0,126.0,126.0,127.0,118.0,85.0,110.0
126.0,127.0,137.0,128.0,126.0,125.0,110.0,127.0,25.0,-107.0,-67.0,126.0,126.0,127.0,118.0,85.0,110.0
126.0,127.0,138.0,129.0,126.0,125.0,109.0,129.0,25.0,-107.0,-67.0,126.0,126.0,127.0,118.0,85.0,110.0
126.0,127.0,137.0,130.0,126.0,124.0,109.0,130.0,25.0,-107.0,-67.0,126.0,126.0,127.0,118.0,85.0,110.0
127.0,127.0,137.0,131.0,126.0,124.0,109.0,130.0,25.0,-107.0,-67.0,126.0,126.0,127.0,118.0,85.0,110.0
127.0,127.0,137.0,132.0,126.0,124.0,108.0,131.0,25.0,-107.0,-67.0,126.0,126.0,127.0,118.0,85.0,110.0
127.0,127.0,139.0,126.0,124.0,125.0,110.0,129.0,28.0,-108.0,-68.0,126.0,126.0,-128.0,118.0,85.0,110.0
127.0,127.0,139.0,125.0,124.0,125.0,110.0,129.0,28.0,-108.0,-68.0,126.0,126.0,-128.0,118.0,85.0,110.0
127.0,126.0,139.0,124.0,124.0,125.0,110.0,129.0,28.0,-108.0,-68.0,126.0,126.0,-128.0,118.0,85.0,110.0
127.0,126.0,139.0,122.0,124.0,125.0,111.0,129.0,28.0,-108.0,-68.0,126.0,126.0,-128.0,118.0,85.0,110.0
127.0,127.0,140.0,132.0,124.0,125.0,109.0,132.0,28.0,-108.0,-68.0,126.0,126.0,-128.0,118.0,85.0,110.0
127.0,127.0,140.0,131.0,124.0,125.0,109.0,132.0,28.0,-108.0,-68.0,126.0,126.0,-128.0,118.0,85.0,110.0
127.0,127.0,140.0,130.0,124.0,125.0,109.0,131.0,28.0,-108.0,-68.0,126.0,126.0,-128.0,118.0,85.0,110.0
127.0,127.0,140.0,129.0,124.0,125.0,109.0,130.0,28.0,-108.0,-68.0,126.0,126.0,-128.0,118.0,85.0,110.0
127.0,127.0,140.0,128.0,124.0,125.0,110.0,130.0,28.0,-108.0,-68.0,126.0,126.0,-128.0,118.0,85.0,110.0
127.0,127.0,139.0,127.0,124.0,125.0,110.0,130.0,28.0,-108.0,-68.0,126.0,126.0,-128.0,118.0,85.0,110.0
126.0,127.0,136.0,123.0,123.0,126.0,112.0,124.0,29.0,-110.0,-71.0,126.0,126.0,-128.0,118.0,85.0,110.0
126.0,127.0,136.0,123.0,123.0,126.0,113.0,124.0,29.0,-110.0,-71.0,126.0,126.0,-128.0,118.0,85.0,110.0
126.0,127.0,136.0,124.0,123.0,126.0,113.0,124.0,29.0,-110.0,-71.0,126.0,126.0,-128.0,118.0,85.0,110.0
127.0,126.0,134.0,120.0,124.0,126.0,112.0,121.0,29.0,-110.0,-71.0,126.0,126.0,-128.0,118.0,85.0,110.0
127.0,126.0,134.0,121.0,123.0,126.0,113.0,122.0,29.0,-110.0,-71.0,126.0,126.0,-128.0,118.0,85.0,110.0
127.0,126.0,135.0,121.0,123.0,126.0,113.0,122.0,29.0,-110.0,-71.0,126.0,126.0,-128.0,118.0,85.0,110.0
127.0,126.0,135.0,122.0,123.0,126.0,113.0,123.0,29.0,-110.0,-71.0,126.0,126.0,-128.0,118.0,85.0,110.0
127.0,126.0,135.0,122.0,123.0,126.0,113.0,123.0,29.0,-110.0,-71.0,126.0,126.0,-128.0,118.0,85.0,110.0
127.0,126.0,136.0,122.0,123.0,126.0,112.0,123.0,29.0,-110.0,-71.0,126.0,126.0,-128.0,118.0,85.0,110.0
127.0,126.0,136.0,123.0,123.0,127.0,113.0,124.0,29.0,-110.0,-71.0,126.0,126.0,-128.0,118.0,85.0,110.0
127.0,127.0,131.0,128.0,125.0,124.0,109.0,109.0,29.0,-112.0,-73.0,126.0,127.0,-128.0,118.0,85.0,110.0
127.0,126.0,129.0,122.0,122.0,124.0,108.0,120.0,29.0,-112.0,-73.0,126.0,127.0,-128.0,118.0,85.0,110.0
127.0,127.0,129.0,122.0,122.0,124.0,108.0,118.0,29.0,-112.0,-73.0,126.0,127.0,-128.0,118.0,85.0,110.0
127.0,127.0,129.0,122.0,123.0,124.0,109.0,117.0,29.0,-112.0,-73.0,126.0,127.0,-128.0,118.0,85.0,110.0
127.0,127.0,130.0,123.0,123.0,124.0,109.0,116.0,29.0,-112.0,-73.0,126.0,127.0,-128.0,118.0,85.0,110.0
126.0,127.0,130.0,124.0,123.0,124.0,109.0,115.0,29.0,-112.0,-73.0,126.0,127.0,-128.0,118.0,85.0,110.0
126.0,127.0,130.0,125.0,124.0,125.0,109.0,114.0,29.0,-112.0,-73.0,126.0,127.0,-128.0,118.0,85.0,110.0
126.0,127.0,131.0,125.0,124.0,124.0,108.0,112.0,29.0,-112.0,-73.0,126.0,127.0,-128.0,118.0,85.0,110.0
127.0,127.0,131.0,126.0,125.0,124.0,109.0,111.0,29.0,-112.0,-73.0,126.0,127.0,-128.0,118.0,85.0,110.0
127.0,127.0,131.0,127.0,125.0,125.0,109.0,110.0,29.0,-112.0,-73.0,126.0,127.0,-128.0,118.0,85.0,110.0
126.0,127.0,129.0,122.0,126.0,123.0,107.0,127.0,28.0,-113.0,-74.0,127.0,127.0,-128.0,118.0,85.0,110.0
126.0,127.0,129.0,122.0,126.0,123.0,107.0,126.0,28.0,-113.0,-74.0,127.0,127.0,-128.0,118.0,85.0,110.0
127.0,127.0,129.0,121.0,126.0,124.0,107.0,126.0,28.0,-113.0,-74.0,127.0,127.0,-128.0,118.0,85.0,110.0
127.0,127.0,129.0,120.0,126.0,124.0,107.0,125.0,28.0,-113.0,-74.0,127.0,127.0,-128.0,118.0,85.0,110.0
127.0,127.0,130.0,119.0,126.0,124.0,107.0,124.0,28.0,-113.0,-74.0,127.0,127.0,-128.0,118.0,85.0,110.0
127.0,127.0,130.0,119.0,126.0,124.0,107.0,123.0,28.0,-113.0,-74.0,127.0,127.0,-128.0,118.0,85.0,110.0
127.0,127.0,130.0,119.0,126.0,124.0,107.0,122.0,28.0,-113.0,-74.0,127.0,127.0,-128.0,118.0,85.0,110.0
127.0,127.0,131.0,119.0,126.0,124.0,107.0,121.0,28.0,-113.0,-74.0,127.0,127.0,-128.0,118.0,85.0,110.0
127.0,127.0,132.0,119.0,126.0,124.0,107.0,120.0,28.0,-113.0,-74.0,127.0,127.0,-128.0,118.0,85.0,110.0
127.0,127.0,132.0,119.0,126.0,124.0,107.0,120.0,28.0,-113.0,-74.0,127.0,127.0,-128.0,118.0,85.0,110.0
127.0,127.0,130.0,123.0,126.0,123.0,106.0,121.0,28.0,-113.0,-74.0,127.0,127.0,127.0,118.0,85.0,111.0
127.0,127.0,130.0,123.0,126.0,123.0,107.0,121.0,28.0,-113.0,-74.0,127.0,127.0,127.0,118.0,85.0,111.0
127.0,127.0,130.0,122.0,126.0,123.0,107.0,121.0,28.0,-113.0,-74.0,127.0,127.0,127.0,118.0,85.0,111.0
127.0,126.0,129.0,122.0,126.0,123.0,107.0,121.0,28.0,-113.0,-74.0,127.0,127.0,127.0,118.0,85.0,111.0
127.0,126.0,129.0,121.0,126.0,123.0,106.0,120.0,28.0,-113.0,-74.0,127.0,127.0,127.0,118.0,85.0,111.0
127.0,127.0,129.0,120.0,125.0,123.0,106.0,120.0,28.0,-113.0,-74.0,127.0,127.0,127.0,118.0,85.0,111.0
127.0,127.0,128.0,120.0,125.0,123.0,106.0,119.0,28.0,-113.0,-74.0,127.0,127.0,127.0,118.0,85.0,111.0
127.0,127.0,128.0,120.0,125.0,123.0,106.0,119.0,28.0,-113.0,-74.0,127.0,127.0,127.0,118.0,85.0,111.0
127.0,127.0,128.0,120.0,125.0,122.0,105.0,118.0,28.0,-113.0,-74.0,127.0,127.0,127.0,118.0,85.0,111.0
127.0,127.0,130.0,124.0,125.0,123.0,106.0,121.0,28.0,-113.0,-74.0,127.0,127.0,127.0,118.0,85.0,111.0
126.0,127.0,129.0,117.0,127.0,123.0,106.0,122.0,27.0,-113.0,-74.0,127.0,127.0,127.0,118.0,85.0,111.0
126.0,127.0,129.0,117.0,127.0,123.0,107.0,122.0,27.0,-113.0,-74.0,127.0,127.0,127.0,118.0,85.0,111.0
126.0,127.0,129.0,117.0,127.0,123.0,106.0,122.0,27.0,-113.0,-74.0,127.0,127.0,127.0,118.0,85.0,111.0
126.0,127.0,128.0,117.0,127.0,123.0,106.0,121.0,27.0,-113.0,-74.0,127.0,127.0,127.0,118.0,85.0,111.0
126.0,127.0,128.0,117.0,126.0,123.0,106.0,120.0,27.0,-113.0,-74.0,127.0,127.0,127.0,118.0,85.0,111.0
126.0,127.0,128.0,117.0,126.0,123.0,106.0,119.0,27.0,-113.0,-74.0,127.0,127.0,127.0,118.0,85.0,111.0
127.0,127.0,128.0,118.0,126.0,123.0,106.0,119.0,27.0,-113.0,-74.0,127.0,127.0,127.0,118.0,85.0,111.0
127.0,127.0,128.0,119.0,126.0,123.0,106.0,119.0,27.0,-113.0,-74.0,127.0,127.0,127.0,118.0,85.0,111.0
126.0,126.0,130.0,116.0,127.0,123.0,106.0,121.0,27.0,-113.0,-74.0,127.0,127.0,127.0,118.0,85.0,111.0
126.0,126.0,129.0,116.0,127.0,123.0,106.0,122.0,27.0,-113.0,-74.0,127.0,127.0,127.0,118.0,85.0,111.0
127.0,127.0,128.0,127.0,127.0,123.0,106.0,118.0,26.0,-113.0,-74.0,127.0,127.0,127.0,118.0,85.0,111.0
127.0,127.0,128.0,127.0,127.0,123.0,106.0,118.0,26.0,-113.0,-74.0,127.0,127.0,127.0,118.0,85.0,111.0
127.0,127.0,128.0,127.0,127.0,123.0,106.0,117.0,26.0,-113.0,-74.0,127.0,127.0,127.0,118.0,85.0,111.0
127.0,127.0,128.0,126.0,127.0,123.0,106.0,117.0,26.0,-113.0,-74.0,127.0,127.0,127.0,118.0,85.0,111.0
127.0,127.0,128.0,126.0,127.0,123.0,106.0,117.0,26.0,-113.0,-74.0,127.0,127.0,127.0,118.0,85.0,111.0
127.0,126.0,128.0,126.0,127.0,123.0,106.0,116.0,26.0,-113.0,-74.0,127.0,127.0,127.0,118.0,85.0,111.0
127.0,126.0,128.0,126.0,127.0,123.0,106.0,116.0,26.0,-113.0,-74.0,127.0,127.0,127.0,118.0,85.0,111.0
126.0,127.0,128.0,126.0,127.0,123.0,106.0,120.0,26.0,-113.0,-74.0,127.0,127.0,127.0,118.0,85.0,111.0
126.0,127.0,128.0,127.0,128.0,123.0,106.0,119.0,26.0,-113.0,-74.0,127.0,127.0,127.0,118.0,85.0,111.0
126.0,127.0,128.0,127.0,128.0,123.0,106.0,119.0,26.0,-113.0,-74.0,127.0,127.0,127.0,118.0,85.0,111.0
127.0,126.0,127.0,121.0,127.0,122.0,104.0,120.0,26.0,-113.0,-74.0,127.0,127.0,127.0,118.0,85.0,111.0
127.0,126.0,127.0,122.0,127.0,122.0,105.0,121.0,26.0,-113.0,-74.0,127.0,127.0,127.0,118.0,85.0,111.0
127.0,126.0,127.0,122.0,127.0,122.0,105.0,121.0,26.0,-113.0,-74.0,127.0,127.0,127.0,118.0,85.0,111.0
127.0,126.0,127.0,123.0,127.0,122.0,105.0,121.0,26.0,-113.0,-74.0,127.0,127.0,127.0,118.0,85.0,111.0
127.0,126.0,127.0,124.0,126.0,122.0,104.0,121.0,26.0,-113.0,-74.0,127.0,127.0,127.0,118.0,85.0,111.0
126.0,126.0,127.0,124.0,126.0,122.0,104.0,122.0,26.0,-113.0,-74.0,127.0,127.0,127.0,118.0,85.0,111.0
126.0,126.0,128.0,121.0,127.0,122.0,105.0,120.0,26.0,-113.0,-74.0,127.0,127.0,127.0,118.0,85.0,111.0
127.0,126.0,127.0,121.0,127.0,122.0,105.0,120.0,26.0,-113.0,-74.0,127.0,127.0,127.0,118.0,85.0,111.0
127.0,126.0,127.0,121.0,127.0,122.0,105.0,120.0,26.0,-113.0,-74.0,127.0,127.0,127.0,118.0,85.0,111.0
127.0,126.0,127.0,121.0,127.0,122.0,105.0,120.0,26.0,-113.0,-74.0,127.0,127.0,127.0,118.0,85.0,111.0
126.0,127.0,128.0,123.0,127.0,122.0,104.0,120.0,25.0,-112.0,-73.0,127.0,127.0,127.0,118.0,85.0,111.0
126.0,127.0,128.0,124.0,128.0,122.0,104.0,121.0,25.0,-112.0,-73.0,127.0,127.0,127.0,118.0,85.0,111.0
127.0,127.0,128.0,125.0,127.0,122.0,104.0,122.0,25.0,-112.0,-73.0,127.0,127.0,127.0,118.0,85.0,111.0
127.0,127.0,128.0,126.0,127.0,122.0,104.0,123.0,25.0,-112.0,-73.0,127.0,127.0,127.0,118.0,85.0,111.0
127.0,127.0,127.0,127.0,127.0,121.0,104.0,124.0,25.0,-112.0,-73.0,127.0,127.0,127.0,118.0,85.0,111.0
127.0,127.0,128.0,124.0,127.0,122.0,104.0,121.0,25.0,-112.0,-73.0,127.0,127.0,127.0,118.0,85.0,111.0
127.0,127.0,128.0,123.0,127.0,122.0,104.0,120.0,25.0,-112.0,-73.0,127.0,127.0,127.0,118.0,85.0,111.0
127.0,127.0,128.0,122.0,127.0,122.0,104.0,119.0,25.0,-112.0,-73.0,127.0,127.0,127.0,118.0,85.0,111.0
126.0,127.0,128.0,122.0,127.0,122.0,104.0,119.0,25.0,-112.0,-73.0,127.0,127.0,127.0,118.0,85.0,111.0
126.0,127.0,128.0,122.0,127.0,122.0,104.0,119.0,25.0,-112.0,-73.0,127.0,127.0,127.0,118.0,85.0,111.0
127.0,127.0,130.0,130.0,127.0,121.0,103.0,118.0,25.0,-111.0,-72.0,127.0,127.0,127.0,118.0,85.0,111.0
127.0,127.0,130.0,130.0,126.0,121.0,103.0,117.0,25.0,-111.0,-72.0,127.0,127.0,127.0,118.0,85.0,111.0
127.0,127.0,130.0,131.0,127.0,121.0,103.0,117.0,25.0,-111.0,-72.0,127.0,127.0,127.0,118.0,85.0,111.0
127.0,126.0,130.0,130.0,127.0,121.0,102.0,116.0,25.0,-111.0,-72.0,127.0,127.0,127.0,118.0,85.0,111.0
127.0,127.0,128.0,125.0,127.0,121.0,103.0,123.0,25.0,-111.0,-72.0,127.0,127.0,127.0,118.0,85.0,111.0
127.0,127.0,128.0,126.0,127.0,121.0,104.0,124.0,25.0,-111.0,-72.0,127.0,127.0,127.0,118.0,85.0,111.0
127.0,127.0,129.0,126.0,127.0,121.0,104.0,123.0,25.0,-111.0,-72.0,127.0,127.0,127.0,118.0,85.0,111.0
127.0,127.0,129.0,127.0,126.0,121.0,104.0,122.0,25.0,-111.0,-72.0,127.0,127.0,127.0,118.0,85.0,111.0
127.0,127.0,129.0,127.0,127.0,121.0,103.0,121.0,25.0,-111.0,-72.0,127.0,127.0,127.0,118.0,85.0,111.0
127.0,127.0,130.0,129.0,127.0,121.0,103.0,119.0,25.0,-111.0,-72.0,127.0,127.0,127.0,118.0,85.0,111.0
127.0,127.0,127.0,125.0,127.0,122.0,104.0,127.0,25.0,-111.0,-71.0,127.0,127.0,127.0,118.0,85.0,111.0
127.0,127.0,127.0,124.0,127.0,122.0,104.0,126.0,25.0,-111.0,-71.0,127.0,127.0,127.0,118.0,85.0,111.0
127.0,127.0,127.0,124.0,127.0,122.0,104.0,126.0,25.0,-111.0,-71.0,127.0,127.0,127.0,118.0,85.0,111.0
127.0,127.0,127.0,130.0,129.0,122.0,105.0,129.0,25.0,-111.0,-71.0,127.0,127.0,127.0,118.0,85.0,111.0
127.0,127.0,127.0,130.0,128.0,122.0,105.0,129.0,25.0,-111.0,-71.0,127.0,127.0,127.0,118.0,85.0,111.0
127.0,127.0,127.0,129.0,128.0,122.0,105.0,128.0,25.0,-111.0,-71.0,127.0,127.0,127.0,118.0,85.0,111.0
127.0,127.0,127.0,129.0,128.0,122.0,105.0,128.0,25.0,-111.0,-71.0,127.0,127.0,127.0,118.0,85.0,111.0
127.0,126.0,127.0,128.0,128.0,122.0,105.0,128.0,25.0,-111.0,-71.0,127.0,127.0,127.0,118.0,85.0,111.0
127.0,127.0,127.0,127.0,128.0,122.0,104.0,127.0,25.0,-111.0,-71.0,127.0,127.0,127.0,118.0,85.0,111.0
127.0,127.0,127.0,126.0,128.0,122.0,104.0,127.0,25.0,-111.0,-71.0,127.0,127.0,127.0,118.0,85.0,111.0
127.0,127.0,128.0,118.0,128.0,122.0,105.0,126.0,25.0,-110.0,-71.0,127.0,127.0,127.0,118.0,85.0,111.0
127.0,127.0,128.0,117.0,128.0,122.0,105.0,126.0,25.0,-110.0,-71.0,127.0,127.0,127.0,118.0,85.0,111.0
127.0,126.0,127.0,135.0,127.0,121.0,103.0,127.0,25.0,-110.0,-71.0,127.0,127.0,127.0,118.0,85.0,111.0
127.0,127.0,127.0,133.0,127.0,121.0,103.0,127.0,25.0,-110.0,-71.0,127.0,127.0,127.0,118.0,85.0,111.0
127.0,127.0,128.0,130.0,127.0,121.0,103.0,127.0,25.0,-110.0,-71.0,127.0,127.0,127.0,118.0,85.0,111.0
127.0,127.0,128.0,127.0,128.0,122.0,104.0,127.0,25.0,-110.0,-71.0,127.0,127.0,127.0,118.0,85.0,111.0
127.0,127.0,128.0,125.0,128.0,122.0,104.0,127.0,25.0,-110.0,-71.0,127.0,127.0,127.0,118.0,85.0,111.0
127.0,127.0,128.0,123.0,128.0,122.0,105.0,127.0,25.0,-110.0,-71.0,127.0,127.0,127.0,118.0,85.0,111.0
127.0,127.0,128.0,121.0,128.0,122.0,105.0,126.0,25.0,-110.0,-71.0,127.0,127.0,127.0,118.0,85.0,111.0
127.0,127.0,128.0,119.0,128.0,122.0,105.0,126.0,25.0,-110.0,-71.0,127.0,127.0,127.0,118.0,85.0,111.0
127.0,126.0,130.0,129.0,127.0,121.0,103.0,129.0,25.0,-110.0,-70.0,127.0,127.0,127.0,118.0,85.0,111.0
127.0,127.0,130.0,124.0,128.0,121.0,103.0,131.0,25.0,-110.0,-70.0,127.0,127.0,127.0,118.0,85.0,111.0
127.0,127.0,130.0,124.0,128.0,121.0,103.0,131.0,25.0,-110.0,-70.0,127.0,127.0,127.0,118.0,85.0,111.0
127.0,127.0,130.0,125.0,128.0,121.0,103.0,131.0,25.0,-110.0,-70.0,127.0,127.0,127.0,118.0,85.0,111.0
127.0,127.0,130.0,126.0,128.0,121.0,103.0,131.0,25.0,-110.0,-70.0,127.0,127.0,127.0,118.0,85.0,111.0
127.0,127.0,130.0,127.0,128.0,121.0,103.0,130.0,25.0,-110.0,-70.0,127.0,127.0,127.0,118.0,85.0,111.0
127.0,127.0,130.0,128.0,128.0,121.0,103.0,130.0,25.0,-110.0,-70.0,127.0,127.0,127.0,118.0,85.0,111.0
127.0,127.0,130.0,128.0,128.0,121.0,103.0,130.0,25.0,-110.0,-70.0,127.0,127.0,127.0,118.0,85.0,111.0
127.0,127.0,130.0,129.0,127.0,121.0,103.0,130.0,25.0,-110.0,-70.0,127.0,127.0,127.0,118.0,85.0,111.0
127.0,127.0,130.0,129.0,127.0,121.0,103.0,129.0,25.0,-110.0,-70.0,127.0,127.0,127.0,118.0,85.0,111.0
127.0,127.0,128.0,129.0,128.0,121.0,103.0,126.0,25.0,-110.0,-70.0,127.0,127.0,127.0,118.0,85.0,111.0
127.0,127.0,128.0,129.0,128.0,121.0,102.0,125.0,25.0,-110.0,-70.0,127.0,127.0,127.0,118.0,85.0,111.0
127.0,127.0,128.0,130.0,128.0,121.0,103.0,125.0,25.0,-110.0,-70.0,127.0,127.0,127.0,118.0,85.0,111.0
127.0,126.0,128.0,130.0,128.0,121.0,103.0,125.0,25.0,-110.0,-70.0,127.0,127.0,127.0,118.0,85.0,111.0
127.0,126.0,128.0,130.0,128.0,121.0,103.0,125.0,25.0,-110.0,-70.0,127.0,127.0,127.0,118.0,85.0,111.0
127.0,126.0,128.0,131.0,128.0,121.0,104.0,125.0,25.0,-110.0,-70.0,127.0,127.0,127.0,118.0,85.0,111.0
127.0,127.0,128.0,131.0,128.0,121.0,103.0,125.0,25.0,-110.0,-70.0,127.0,127.0,127.0,118.0,85.0,111.0
127.0,127.0,128.0,131.0,127.0,121.0,103.0,125.0,25.0,-110.0,-70.0,127.0,127.0,127.0,118.0,85.0,111.0
126.0,127.0,128.0,131.0,127.0,121.0,103.0,126.0,25.0,-110.0,-70.0,127.0,127.0,127.0,118.0,85.0,111.0
126.0,127.0,128.0,131.0,127.0,121.0,103.0,126.0,25.0,-110.0,-70.0,127.0,127.0,127.0,118.0,85.0,111.0
126.0,126.0,126.0,131.0,127.0,121.0,102.0,129.0,25.0,-110.0,-69.0,127.0,127.0,127.0,118.0,85.0,111.0
126.0,127.0,126.0,130.0,127.0,121.0,102.0,129.0,25.0,-110.0,-69.0,127.0,127.0,127.0,118.0,85.0,111.0
126.0,127.0,126.0,130.0,127.0,121.0,103.0,129.0,25.0,-110.0,-69.0,127.0,127.0,127.0,118.0,85.0,111.0
126.0,127.0,126.0,130.0,127.0,121.0,103.0,129.0,25.0,-110.0,-69.0,127.0,127.0,127.0,118.0,85.0,111.0
126.0,127.0,127.0,129.0,127.0,121.0,103.0,129.0,25.0,-110.0,-69.0,127.0,127.0,127.0,118.0,85.0,111.0
126.0,127.0,127.0,128.0,127.0,121.0,103.0,129.0,25.0,-110.0,-69.0,127.0,127.0,127.0,118.0,85.0,111.0
127.0,127.0,128.0,128.0,127.0,121.0,103.0,129.0,25.0,-110.0,-69.0,127.0,127.0,127.0,118.0,85.0,111.0
127.0,127.0,128.0,127.0,127.0,121.0,104.0,129.0,25.0,-110.0,-69.0,127.0,127.0,127.0,118.0,85.0,111.0
127.0,127.0,128.0,126.0,128.0,121.0,104.0,129.0,25.0,-110.0,-69.0,127.0,127.0,127.0,118.0,85.0,111.0
127.0,127.0,126.0,131.0,126.0,121.0,102.0,129.0,25.0,-110.0,-69.0,127.0,127.0,127.0,118.0,85.0,111.0
126.0,127.0,127.0,132.0,127.0,121.0,103.0,129.0,25.0,-109.0,-69.0,127.0,127.0,127.0,118.0,85.0,111.0
127.0,127.0,127.0,131.0,127.0,121.0,103.0,130.0,25.0,-109.0,-69.0,127.0,127.0,127.0,118.0,85.0,111.0
127.0,127.0,127.0,130.0,127.0,121.0,103.0,131.0,25.0,-109.0,-69.0,127.0,127.0,127.0,118.0,85.0,111.0
127.0,127.0,127.0,128.0,127.0,121.0,103.0,132.0,25.0,-109.0,-69.0,127.0,127.0,127.0,118.0,85.0,111.0
127.0,127.0,126.0,127.0,126.0,121.0,103.0,132.0,25.0,-109.0,-69.0,127.0,127.0,127.0,118.0,85.0,111.0
127.0,127.0,126.0,126.0,126.0,121.0,103.0,132.0,25.0,-109.0,-69.0,127.0,127.0,127.0,118.0,85.0,111.0
127.0,126.0,127.0,125.0,126.0,121.0,103.0,133.0,25.0,-109.0,-69.0,127.0,127.0,127.0,118.0,85.0,111.0
127.0,126.0,127.0,125.0,126.0,121.0,103.0,133.0,25.0,-109.0,-69.0,127.0,127.0,127.0,118.0,85.0,111.0
126.0,127.0,128.0,134.0,127.0,121.0,103.0,128.0,25.0,-109.0,-69.0,127.0,127.0,127.0,118.0,85.0,111.0
126.0,127.0,127.0,133.0,127.0,121.0,103.0,129.0,25.0,-109.0,-69.0,127.0,127.0,127.0,118.0,85.0,111.0
127.0,126.0,128.0,127.0,128.0,122.0,104.0,126.0,25.0,-110.0,-69.0,127.0,127.0,127.0,118.0,85.0,111.0
127.0,127.0,128.0,127.0,128.0,122.0,104.0,125.0,25.0,-110.0,-69.0,127.0,127.0,127.0,118.0,85.0,111.0
127.0,127.0,129.0,128.0,128.0,122.0,104.0,125.0,25.0,-110.0,-69.0,127.0,127.0,127.0,118.0,85.0,111.0
127.0,127.0,129.0,128.0,128.0,122.0,104.0,125.0,25.0,-110.0,-69.0,127.0,127.0,127.0,118.0,85.0,111.0
127.0,127.0,129.0,128.0,128.0,122.0,104.0,126.0,25.0,-110.0,-69.0,127.0,127.0,127.0,118.0,85.0,111.0
127.0,127.0,128.0,127.0,127.0,122.0,104.0,126.0,25.0,-110.0,-69.0,127.0,127.0,127.0,118.0,85.0,111.0
127.0,127.0,128.0,127.0,127.0,122.0,104.0,127.0,25.0,-110.0,-69.0,127.0,127.0,127.0,118.0,85.0,111.0
127.0,127.0,128.0,125.0,128.0,122.0,104.0,127.0,25.0,-110.0,-69.0,127.0,127.0,127.0,118.0,85.0,111.0
127.0,127.0,128.0,126.0,128.0,122.0,104.0,127.0,25.0,-110.0,-69.0,127.0,127.0,127.0,118.0,85.0,111.0
127.0,126.0,128.0,127.0,128.0,122.0,104.0,126.0,25.0,-110.0,-69.0,127.0,127.0,127.0,118.0,85.0,111.0
127.0,127.0,129.0,129.0,128.0,122.0,105.0,128.0,25.0,-110.0,-69.0,127.0,127.0,127.0,118.0,85.0,111.0
127.0,127.0,129.0,129.0,128.0,122.0,105.0,129.0,25.0,-110.0,-69.0,127.0,127.0,127.0,118.0,85.0,111.0
127.0,127.0,129.0,129.0,128.0,122.0,105.0,129.0,25.0,-110.0,-69.0,127.0,127.0,127.0,118.0,85.0,111.0
127.0,127.0,128.0,129.0,128.0,122.0,105.0,129.0,25.0,-110.0,-69.0,127.0,127.0,127.0,118.0,85.0,111.0
127.0,127.0,128.0,130.0,128.0,122.0,104.0,130.0,25.0,-110.0,-69.0,127.0,127.0,127.0,118.0,85.0,111.0
127.0,127.0,128.0,130.0,128.0,122.0,104.0,130.0,25.0,-110.0,-69.0,127.0,127.0,127.0,118.0,85.0,111.0
127.0,127.0,129.0,130.0,129.0,122.0,104.0,127.0,25.0,-110.0,-69.0,127.0,127.0,127.0,118.0,85.0,111.0
127.0,127.0,129.0,130.0,128.0,122.0,104.0,127.0,25.0,-110.0,-69.0,127.0,127.0,127.0,118.0,85.0,111.0
127.0,127.0,129.0,129.0,128.0,122.0,104.0,127.0,25.0,-110.0,-69.0,127.0,127.0,127.0,118.0,85.0,111.0
127.0,127.0,129.0,129.0,128.0,122.0,105.0,127.0,25.0,-110.0,-69.0,127.0,127.0,127.0,118.0,85.0,111.0
127.0,127.0,129.0,133.0,127.0,122.0,104.0,127.0,25.0,-110.0,-69.0,127.0,127.0,127.0,118.0,85.0,111.0
127.0,126.0,129.0,131.0,127.0,122.0,104.0,127.0,25.0,-110.0,-69.0,127.0,127.0,127.0,118.0,85.0,111.0
127.0,127.0,129.0,129.0,127.0,122.0,104.0,126.0,25.0,-110.0,-69.0,127.0,127.0,127.0,118.0,85.0,111.0
127.0,126.0,129.0,126.0,127.0,122.0,104.0,126.0,25.0,-110.0,-69.0,127.0,127.0,127.0,118.0,85.0,111.0
127.0,127.0,130.0,130.0,126.0,122.0,104.0,130.0,25.0,-110.0,-69.0,127.0,127.0,127.0,118.0,85.0,111.0
127.0,127.0,130.0,131.0,126.0,122.0,104.0,129.0,25.0,-110.0,-69.0,127.0,127.0,127.0,118.0,85.0,111.0
127.0,127.0,130.0,132.0,126.0,122.0,105.0,129.0,25.0,-110.0,-69.0,127.0,127.0,127.0,118.0,85.0,111.0
127.0,127.0,130.0,134.0,126.0,122.0,105.0,128.0,25.0,-110.0,-69.0,127.0,127.0,127.0,118.0,85.0,111.0
127.0,127.0,130.0,134.0,127.0,122.0,105.0,128.0,25.0,-110.0,-69.0,127.0,127.0,127.0,118.0,85.0,111.0
127.0,127.0,129.0,134.0,127.0,122.0,104.0,127.0,25.0,-110.0,-69.0,127.0,127.0,127.0,118.0,85.0,111.0
126.0,127.0,125.0,132.0,126.0,122.0,105.0,130.0,25.0,-110.0,-69.0,127.0,127.0,127.0,118.0,85.0,111.0
126.0,127.0,125.0,131.0,126.0,122.0,105.0,130.0,25.0,-110.0,-69.0,127.0,127.0,127.0,118.0,85.0,111.0
126.0,127.0,125.0,131.0,126.0,122.0,105.0,130.0,25.0,-110.0,-69.0,127.0,127.0,127.0,118.0,85.0,111.0
127.0,126.0,125.0,132.0,127.0,122.0,106.0,129.0,25.0,-110.0,-69.0,127.0,127.0,127.0,118.0,85.0,111.0
127.0,126.0,125.0,132.0,126.0,122.0,105.0,130.0,25.0,-110.0,-69.0,127.0,127.0,127.0,118.0,85.0,111.0
127.0,126.0,125.0,132.0,127.0,122.0,105.0,130.0,25.0,-110.0,-69.0,127.0,127.0,127.0,118.0,85.0,111.0
127.0,126.0,124.0,132.0,126.0,122.0,105.0,130.0,25.0,-110.0,-69.0,127.0,127.0,127.0,118.0,85.0,111.0
127.0,126.0,124.0,132.0,127.0,122.0,105.0,130.0,25.0,-110.0,-69.0,127.0,127.0,127.0,118.0,85.0,111.0
127.0,126.0,125.0,132.0,127.0,122.0,105.0,130.0,25.0,-110.0,-69.0,127.0,127.0,127.0,118.0,85.0,111.0
127.0,127.0,125.0,132.0,126.0,122.0,105.0,130.0,25.0,-110.0,-69.0,127.0,127.0,127.0,118.0,85.0,111.0
127.0,127.0,127.0,125.0,127.0,123.0,107.0,130.0,25.0,-110.0,-69.0,127.0,127.0,127.0,118.0,85.0,111.0
127.0,127.0,127.0,125.0,127.0,123.0,107.0,129.0,25.0,-110.0,-69.0,127.0,127.0,127.0,118.0,85.0,111.0
126.0,126.0,127.0,123.0,127.0,123.0,106.0,130.0,25.0,-110.0,-69.0,127.0,127.0,127.0,118.0,85.0,111.0
126.0,127.0,127.0,122.0,127.0,123.0,107.0,131.0,25.0,-110.0,-69.0,127.0,127.0,127.0,118.0,85.0,111.0
126.0,127.0,127.0,123.0,127.0,123.0,107.0,131.0,25.0,-110.0,-69.0,127.0,127.0,127.0,118.0,85.0,111.0
126.0,127.0,127.0,123.0,127.0,123.0,107.0,131.0,25.0,-110.0,-69.0,127.0,127.0,127.0,118.0,85.0,111.0
126.0,127.0,127.0,123.0,127.0,123.0,107.0,131.0,25.0,-110.0,-69.0,127.0,127.0,127.0,118.0,85.0,111.0
126.0,127.0,127.0,123.0,127.0,123.0,107.0,130.0,25.0,-110.0,-69.0,127.0,127.0,127.0,118.0,85.0,111.0
126.0,127.0,127.0,124.0,127.0,123.0,107.0,130.0,25.0,-110.0,-69.0,127.0,127.0,127.0,118.0,85.0,111.0
127.0,127.0,127.0,124.0,127.0,123.0,107.0,130.0,25.0,-110.0,-69.0,127.0,127.0,127.0,118.0,85.0,111.0
127.0,126.0,126.0,126.0,128.0,124.0,108.0,130.0,25.0,-110.0,-70.0,127.0,127.0,127.0,118.0,85.0,111.0
126.0,127.0,126.0,133.0,126.0,123.0,106.0,128.0,25.0,-110.0,-70.0,127.0,127.0,127.0,118.0,85.0,111.0
127.0,127.0,126.0,132.0,127.0,123.0,107.0,128.0,25.0,-110.0,-70.0,127.0,127.0,127.0,118.0,85.0,111.0
127.0,127.0,126.0,131.0,127.0,124.0,107.0,128.0,25.0,-110.0,-70.0,127.0,127.0,127.0,118.0,85.0,111.0
127.0,127.0,126.0,130.0,127.0,124.0,107.0,129.0,25.0,-110.0,-70.0,127.0,127.0,127.0,118.0,85.0,111.0
127.0,127.0,126.0,129.0,128.0,124.0,107.0,129.0,25.0,-110.0,-70.0,127.0,127.0,127.0,118.0,85.0,111.0
127.0,127.0,126.0,128.0,128.0,124.0,108.0,129.0,25.0,-110.0,-70.0,127.0,127.0,127.0,118.0,85.0,111.0
127.0,126.0,126.0,127.0,128.0,124.0,108.0,130.0,25.0,-110.0,-70.0,127.0,127.0,127.0,118.0,85.0,111.0
127.0,126.0,126.0,127.0,128.0,124.0,108.0,130.0,25.0,-110.0,-70.0,127.0,127.0,127.0,118.0,85.0,111.0
127.0,126.0,126.0,126.0,128.0,124.0,108.0,130.0,25.0,-110.0,-70.0,127.0,127.0,127.0,118.0,85.0,111.0
127.0,126.0,127.0,128.0,127.0,124.0,108.0,128.0,26.0,-110.0,-70.0,127.0,127.0,127.0,118.0,85.0,111.0
127.0,126.0,127.0,128.0,127.0,124.0,108.0,128.0,26.0,-110.0,-70.0,127.0,127.0,127.0,118.0,85.0,111.0
127.0,127.0,127.0,128.0,127.0,124.0,108.0,128.0,26.0,-110.0,-70.0,127.0,127.0,127.0,118.0,85.0,111.0
127.0,127.0,126.0,128.0,127.0,124.0,108.0,128.0,26.0,-110.0,-70.0,127.0,127.0,127.0,118.0,85.0,111.0
127.0,127.0,126.0,128.0,127.0,124.0,108.0,128.0,26.0,-110.0,-70.0,127.0,127.0,127.0,118.0,85.0,111.0
127.0,127.0,126.0,128.0,127.0,124.0,108.0,128.0,26.0,-110.0,-70.0,127.0,127.0,127.0,118.0,85.0,111.0
127.0,127.0,125.0,128.0,127.0,124.0,107.0,128.0,26.0,-110.0,-70.0,127.0,127.0,127.0,118.0,85.0,111.0
126.0,127.0,125.0,128.0,126.0,124.0,107.0,128.0,26.0,-110.0,-70.0,127.0,127.0,127.0,118.0,85.0,111.0
126.0,127.0,125.0,128.0,126.0,124.0,107.0,127.0,26.0,-110.0,-70.0,127.0,127.0,127.0,118.0,85.0,111.0
127.0,127.0,125.0,129.0,126.0,124.0,107.0,127.0,26.0,-110.0,-70.0,127.0,127.0,127.0,118.0,85.0,111.0
127.0,127.0,126.0,127.0,128.0,124.0,109.0,131.0,26.0,-110.0,-70.0,127.0,127.0,127.0,118.0,85.0,111.0
127.0,127.0,126.0,127.0,128.0,124.0,109.0,131.0,26.0,-110.0,-70.0,127.0,127.0,127.0,118.0,85.0,111.0
127.0,127.0,126.0,128.0,128.0,124.0,109.0,130.0,26.0,-110.0,-70.0,127.0,127.0,127.0,118.0,85.0,111.0
127.0,127.0,127.0,127.0,128.0,125.0,109.0,130.0,26.0,-110.0,-70.0,127.0,127.0,127.0,118.0,85.0,111.0
127.0,127.0,127.0,127.0,128.0,125.0,109.0,130.0,26.0,-110.0,-70.0,127.0,127.0,127.0,118.0,85.0,111.0
127.0,127.0,127.0,126.0,128.0,125.0,109.0,130.0,26.0,-110.0,-70.0,127.0,127.0,127.0,118.0,85.0,111.0
127.0,127.0,127.0,126.0,128.0,125.0,109.0,130.0,26.0,-110.0,-70.0,127.0,127.0,127.0,118.0,85.0,111.0
127.0,127.0,126.0,125.0,128.0,125.0,109.0,130.0,26.0,-110.0,-70.0,127.0,127.0,127.0,118.0,85.0,111.0
127.0,127.0,127.0,124.0,128.0,125.0,109.0,129.0,26.0,-110.0,-70.0,127.0,127.0,127.0,118.0,85.0,111.0
126.0,127.0,126.0,127.0,128.0,124.0,109.0,132.0,26.0,-110.0,-70.0,127.0,127.0,127.0,118.0,85.0,111.0
127.0,127.0,126.0,131.0,127.0,124.0,107.0,127.0,26.0,-110.0,-70.0,127.0,127.0,127.0,118.0,85.0,111.0
127.0,127.0,126.0,131.0,127.0,124.0,108.0,127.0,26.0,-110.0,-70.0,127.0,127.0,127.0,118.0,85.0,111.0
127.0,126.0,126.0,131.0,127.0,124.0,108.0,127.0,26.0,-110.0,-70.0,127.0,127.0,127.0,118.0,85.0,111.0
127.0,127.0,127.0,130.0,127.0,124.0,108.0,127.0,26.0,-110.0,-70.0,127.0,127.0,127.0,118.0,85.0,111.0
127.0,127.0,127.0,130.0,127.0,124.0,108.0,127.0,26.0,-110.0,-70.0,127.0,127.0,127.0,118.0,85.0,111.0
127.0,127.0,127.0,129.0,127.0,124.0,108.0,127.0,26.0,-110.0,-70.0,127.0,127.0,127.0,118.0,85.0,111.0
127.0,127.0,128.0,129.0,127.0,124.0,109.0,127.0,26.0,-110.0,-70.0,127.0,127.0,127.0,118.0,85.0,111.0
126.0,127.0,128.0,128.0,127.0,124.0,109.0,127.0,26.0,-110.0,-70.0,127.0,127.0,127.0,118.0,85.0,111.0
127.0,127.0,125.0,132.0,126.0,124.0,107.0,128.0,26.0,-110.0,-70.0,127.0,127.0,127.0,118.0,85.0,111.0
127.0,127.0,125.0,132.0,126.0,124.0,107.0,128.0,26.0,-110.0,-70.0,127.0,127.0,127.0,118.0,85.0,111.0
126.0,127.0,129.0,129.0,128.0,125.0,110.0,130.0,26.0,-110.0,-71.0,127.0,127.0,127.0,118.0,85.0,111.0
126.0,127.0,128.0,128.0,128.0,125.0,110.0,130.0,26.0,-110.0,-71.0,127.0,127.0,127.0,118.0,85.0,111.0
127.0,127.0,128.0,128.0,129.0,125.0,110.0,129.0,26.0,-110.0,-71.0,127.0,127.0,127.0,118.0,85.0,111.0
126.0,127.0,128.0,127.0,128.0,125.0,110.0,129.0,26.0,-110.0,-71.0,127.0,127.0,127.0,118.0,85.0,111.0
127.0,127.0,128.0,127.0,128.0,125.0,109.0,129.0,26.0,-110.0,-71.0,127.0,127.0,127.0,118.0,85.0,111.0
127.0,127.0,127.0,127.0,128.0,125.0,110.0,129.0,26.0,-110.0,-71.0,127.0,127.0,127.0,118.0,85.0,111.0
127.0,127.0,127.0,126.0,128.0,125.0,109.0,128.0,26.0,-110.0,-71.0,127.0,127.0,127.0,118.0,85.0,111.0
126.0,127.0,128.0,132.0,128.0,125.0,110.0,130.0,26.0,-110.0,-71.0,127.0,127.0,127.0,118.0,85.0,111.0
126.0,127.0,129.0,131.0,128.0,125.0,110.0,130.0,26.0,-110.0,-71.0,127.0,127.0,127.0,118.0,85.0,111.0
126.0,127.0,129.0,130.0,128.0,125.0,110.0,130.0,26.0,-110.0,-71.0,127.0,127.0,127.0,118.0,85.0,111.0
127.0,127.0,127.0,124.0,128.0,125.0,111.0,125.0,26.0,-110.0,-71.0,127.0,127.0,127.0,118.0,85.0,111.0
127.0,127.0,127.0,124.0,127.0,125.0,110.0,124.0,26.0,-110.0,-71.0,127.0,127.0,127.0,118.0,85.0,111.0
127.0,127.0,126.0,124.0,127.0,125.0,110.0,123.0,26.0,-110.0,-71.0,127.0,127.0,127.0,118.0,85.0,111.0
127.0,127.0,126.0,124.0,127.0,125.0,110.0,123.0,26.0,-110.0,-71.0,127.0,127.0,127.0,118.0,85.0,111.0
127.0,127.0,126.0,123.0,127.0,125.0,109.0,122.0,26.0,-110.0,-71.0,127.0,127.0,127.0,118.0,85.0,111.0
127.0,126.0,126.0,123.0,126.0,125.0,110.0,121.0,26.0,-110.0,-71.0,127.0,127.0,127.0,118.0,85.0,111.0
127.0,127.0,127.0,126.0,128.0,125.0,110.0,124.0,26.0,-110.0,-71.0,127.0,127.0,127.0,118.0,85.0,111.0
127.0,127.0,127.0,125.0,128.0,125.0,110.0,125.0,26.0,-110.0,-71.0,127.0,127.0,127.0,118.0,85.0,111.0
127.0,127.0,127.0,125.0,128.0,125.0,110.0,125.0,26.0,-110.0,-71.0,127.0,127.0,127.0,118.0,85.0,111.0
127.0,127.0,127.0,125.0,128.0,125.0,111.0,125.0,26.0,-110.0,-71.0,127.0,127.0,127.0,118.0,85.0,111.0
127.0,127.0,128.0,126.0,128.0,125.0,110.0,129.0,26.0,-110.0,-71.0,127.0,127.0,127.0,118.0,85.0,111.0
126.0,127.0,128.0,126.0,128.0,125.0,110.0,130.0,26.0,-110.0,-71.0,127.0,127.0,127.0,118.0,85.0,111.0
126.0,127.0,128.0,126.0,128.0,125.0,109.0,130.0,26.0,-110.0,-71.0,127.0,127.0,127.0,118.0,85.0,111.0
126.0,127.0,128.0,125.0,128.0,125.0,110.0,129.0,26.0,-110.0,-71.0,127.0,127.0,127.0,118.0,85.0,111.0
126.0,127.0,127.0,125.0,128.0,125.0,110.0,129.0,26.0,-110.0,-71.0,127.0,127.0,127.0,118.0,85.0,111.0
127.0,126.0,129.0,127.0,128.0,125.0,110.0,127.0,26.0,-110.0,-71.0,127.0,127.0,127.0,118.0,85.0,111.0
127.0,126.0,128.0,127.0,128.0,125.0,110.0,128.0,26.0,-110.0,-71.0,127.0,127.0,127.0,118.0,85.0,111.0
127.0,126.0,128.0,127.0,128.0,125.0,110.0,128.0,26.0,-110.0,-71.0,127.0,127.0,127.0,118.0,85.0,111.0
127.0,127.0,128.0,127.0,128.0,125.0,110.0,129.0,26.0,-110.0,-71.0,127.0,127.0,127.0,118.0,85.0,111.0
127.0,127.0,128.0,127.0,128.0,125.0,110.0,129.0,26.0,-110.0,-71.0,127.0,127.0,127.0,118.0,85.0,111.0
127.0,127.0,127.0,135.0,127.0,125.0,110.0,125.0,26.0,-110.0,-71.0,127.0,127.0,127.0,118.0,85.0,111.0
127.0,127.0,127.0,136.0,127.0,125.0,110.0,126.0,26.0,-110.0,-71.0,127.0,127.0,127.0,118.0,85.0,111.0
127.0,127.0,127.0,136.0,127.0,125.0,110.0,127.0,26.0,-110.0,-71.0,127.0,127.0,127.0,118.0,85.0,111.0
127.0,127.0,127.0,135.0,127.0,125.0,110.0,128.0,26.0,-110.0,-71.0,127.0,127.0,127.0,118.0,85.0,111.0
126.0,127.0,128.0,129.0,128.0,125.0,110.0,122.0,26.0,-110.0,-71.0,127.0,127.0,127.0,118.0,85.0,111.0
126.0,127.0,128.0,130.0,128.0,125.0,110.0,122.0,26.0,-110.0,-71.0,127.0,127.0,127.0,118.0,85.0,111.0
127.0,127.0,128.0,132.0,128.0,125.0,110.0,122.0,26.0,-110.0,-71.0,127.0,127.0,127.0,118.0,85.0,111.0
127.0,127.0,128.0,133.0,128.0,125.0,110.0,122.0,26.0,-110.0,-71.0,127.0,127.0,127.0,118.0,85.0,111.0
127.0,127.0,128.0,134.0,128.0,125.0,110.0,123.0,26.0,-110.0,-71.0,127.0,127.0,127.0,118.0,85.0,111.0
127.0,127.0,127.0,135.0,128.0,125.0,110.0,124.0,26.0,-110.0,-71.0,127.0,127.0,127.0,118.0,85.0,111.0
127.0,127.0,126.0,122.0,126.0,125.0,109.0,122.0,26.0,-110.0,-71.0,127.0,127.0,127.0,118.0,85.0,111.0
126.0,127.0,126.0,122.0,126.0,125.0,109.0,122.0,26.0,-110.0,-71.0,127.0,127.0,127.0,118.0,85.0,111.0
126.0,127.0,126.0,122.0,126.0,125.0,110.0,122.0,26.0,-110.0,-71.0,127.0,127.0,127.0,118.0,85.0,111.0
126.0,126.0,127.0,123.0,127.0,125.0,110.0,127.0,26.0,-110.0,-71.0,127.0,127.0,127.0,118.0,85.0,111.0
126.0,126.0,127.0,123.0,127.0,125.0,110.0,126.0,26.0,-110.0,-71.0,127.0,127.0,127.0,118.0,85.0,111.0
126.0,126.0,127.0,123.0,127.0,125.0,110.0,126.0,26.0,-110.0,-71.0,127.0,127.0,127.0,118.0,85.0,111.0
127.0,126.0,127.0,123.0,127.0,125.0,110.0,125.0,26.0,-110.0,-71.0,127.0,127.0,127.0,118.0,85.0,111.0
127.0,126.0,126.0,123.0,127.0,125.0,110.0,124.0,26.0,-110.0,-71.0,127.0,127.0,127.0,118.0,85.0,111.0
127.0,126.0,126.0,123.0,127.0,125.0,110.0,124.0,26.0,-110.0,-71.0,127.0,127.0,127.0,118.0,85.0,111.0
127.0,126.0,126.0,123.0,127.0,125.0,110.0,123.0,26.0,-110.0,-71.0,127.0,127.0,127.0,118.0,85.0,111.0
126.0,127.0,126.0,128.0,126.0,125.0,110.0,127.0,26.0,-110.0,-71.0,127.0,127.0,127.0,118.0,85.0,111.0
126.0,127.0,126.0,129.0,126.0,125.0,109.0,127.0,26.0,-110.0,-71.0,127.0,127.0,127.0,118.0,85.0,111.0
127.0,127.0,126.0,124.0,127.0,125.0,109.0,125.0,26.0,-110.0,-71.0,127.0,127.0,127.0,118.0,85.0,111.0
127.0,127.0,125.0,124.0,126.0,125.0,109.0,125.0,26.0,-110.0,-71.0,127.0,127.0,127.0,118.0,85.0,111.0
127.0,127.0,125.0,124.0,126.0,125.0,110.0,125.0,26.0,-110.0,-71.0,127.0,127.0,127.0,118.0,85.0,111.0
127.0,127.0,125.0,124.0,126.0,125.0,110.0,126.0,26.0,-110.0,-71.0,127.0,127.0,127.0,118.0,85.0,111.0
127.0,127.0,125.0,125.0,126.0,125.0,109.0,127.0,26.0,-110.0,-71.0,127.0,127.0,127.0,118.0,85.0,111.0
127.0,127.0,125.0,126.0,126.0,125.0,110.0,127.0,26.0,-110.0,-71.0,127.0,127.0,127.0,118.0,85.0,111.0
126.0,127.0,125.0,127.0,126.0,125.0,110.0,128.0,26.0,-110.0,-71.0,127.0,127.0,127.0,118.0,85.0,111.0
127.0,127.0,125.0,128.0,126.0,125.0,109.0,128.0,26.0,-110.0,-71.0,127.0,127.0,127.0,118.0,85.0,111.0
127.0,126.0,127.0,124.0,128.0,125.0,111.0,124.0,26.0,-110.0,-71.0,127.0,127.0,127.0,118.0,85.0,111.0
126.0,126.0,127.0,125.0,128.0,125.0,110.0,129.0,26.0,-110.0,-71.0,127.0,127.0,127.0,118.0,85.0,111.0
126.0,126.0,127.0,125.0,128.0,125.0,110.0,129.0,26.0,-110.0,-71.0,127.0,127.0,127.0,118.0,85.0,111.0
126.0,126.0,127.0,125.0,128.0,125.0,110.0,128.0,26.0,-110.0,-71.0,127.0,127.0,127.0,118.0,85.0,111.0
127.0,126.0,127.0,124.0,128.0,125.0,110.0,127.0,26.0,-110.0,-71.0,127.0,127.0,127.0,118.0,85.0,111.0
127.0,126.0,127.0,124.0,128.0,125.0,110.0,127.0,26.0,-110.0,-71.0,127.0,127.0,127.0,118.0,85.0,111.0
127.0,126.0,127.0,123.0,128.0,125.0,110.0,126.0,26.0,-110.0,-71.0,127.0,127.0,127.0,118.0,85.0,111.0
127.0,126.0,127.0,123.0,128.0,125.0,110.0,125.0,26.0,-110.0,-71.0,127.0,127.0,127.0,118.0,85.0,111.0
127.0,126.0,127.0,123.0,128.0,125.0,110.0,125.0,26.0,-110.0,-71.0,127.0,127.0,127.0,118.0,85.0,111.0
127.0,126.0,127.0,123.0,128.0,125.0,110.0,124.0,26.0,-110.0,-71.0,127.0,127.0,127.0,118.0,85.0,111.0
127.0,126.0,127.0,128.0,127.0,125.0,109.0,127.0,25.0,-110.0,-71.0,127.0,127.0,127.0,117.0,85.0,111.0
127.0,126.0,127.0,128.0,127.0,125.0,109.0,127.0,25.0,-110.0,-71.0,127.0,127.0,127.0,117.0,85.0,111.0
126.0,127.0,127.0,127.0,127.0,125.0,109.0,126.0,25.0,-110.0,-71.0,127.0,127.0,127.0,117.0,85.0,111.0
126.0,127.0,126.0,126.0,127.0,125.0,109.0,126.0,25.0,-110.0,-71.0,127.0,127.0,127.0,117.0,85.0,111.0
126.0,127.0,126.0,125.0,127.0,125.0,109.0,126.0,25.0,-110.0,-71.0,127.0,127.0,127.0,117.0,85.0,111.0
126.0,127.0,126.0,124.0,127.0,125.0,110.0,126.0,25.0,-110.0,-71.0,127.0,127.0,127.0,117.0,85.0,111.0
126.0,127.0,126.0,123.0,127.0,125.0,110.0,126.0,25.0,-110.0,-71.0,127.0,127.0,127.0,117.0,85.0,111.0
126.0,127.0,126.0,122.0,127.0,125.0,110.0,126.0,25.0,-110.0,-71.0,127.0,127.0,127.0,117.0,85.0,111.0
126.0,127.0,126.0,121.0,127.0,125.0,110.0,126.0,25.0,-110.0,-71.0,127.0,127.0,127.0,117.0,85.0,111.0
126.0,127.0,126.0,120.0,126.0,125.0,110.0,125.0,25.0,-110.0,-71.0,127.0,127.0,127.0,117.0,85.0,111.0
126.0,126.0,127.0,132.0,126.0,125.0,110.0,124.0,25.0,-109.0,-71.0,127.0,127.0,127.0,117.0,85.0,111.0
126.0,126.0,127.0,132.0,126.0,125.0,110.0,124.0,25.0,-109.0,-71.0,127.0,127.0,127.0,117.0,85.0,111.0
126.0,126.0,126.0,132.0,126.0,125.0,110.0,124.0,25.0,-109.0,-71.0,127.0,127.0,127.0,117.0,85.0,111.0
126.0,126.0,126.0,131.0,126.0,125.0,110.0,124.0,25.0,-109.0,-71.0,127.0,127.0,127.0,117.0,85.0,111.0
126.0,126.0,126.0,131.0,126.0,125.0,110.0,124.0,25.0,-109.0,-71.0,127.0,127.0,127.0,117.0,85.0,111.0
126.0,126.0,126.0,131.0,126.0,125.0,110.0,124.0,25.0,-109.0,-71.0,127.0,127.0,127.0,117.0,85.0,111.0
126.0,126.0,126.0,130.0,126.0,125.0,110.0,125.0,25.0,-109.0,-71.0,127.0,127.0,127.0,117.0,85.0,111.0
126.0,126.0,126.0,130.0,126.0,125.0,110.0,126.0,25.0,-109.0,-71.0,127.0,127.0,127.0,117.0,85.0,111.0
126.0,126.0,126.0,130.0,126.0,125.0,110.0,126.0,25.0,-109.0,-71.0,127.0,127.0,127.0,117.0,85.0,111.0
126.0,127.0,127.0,132.0,126.0,125.0,110.0,124.0,25.0,-109.0,-71.0,127.0,127.0,127.0,117.0,85.0,111.0
127.0,126.0,127.0,123.0,128.0,126.0,111.0,130.0,25.0,-109.0,-71.0,127.0,127.0,127.0,117.0,85.0,111.0
127.0,126.0,127.0,122.0,128.0,126.0,111.0,129.0,25.0,-109.0,-71.0,127.0,127.0,127.0,117.0,85.0,111.0
127.0,127.0,127.0,122.0,128.0,126.0,111.0,129.0,25.0,-109.0,-71.0,127.0,127.0,127.0,117.0,85.0,111.0
127.0,127.0,127.0,122.0,128.0,126.0,111.0,128.0,25.0,-109.0,-71.0,127.0,127.0,127.0,117.0,85.0,111.0
127.0,127.0,127.0,122.0,127.0,126.0,111.0,128.0,25.0,-109.0,-71.0,127.0,127.0,127.0,117.0,85.0,111.0
127.0,127.0,127.0,122.0,128.0,126.0,112.0,128.0,25.0,-109.0,-71.0,127.0,127.0,127.0,117.0,85.0,111.0
127.0,127.0,127.0,122.0,127.0,126.0,112.0,128.0,25.0,-109.0,-71.0,127.0,127.0,127.0,117.0,85.0,111.0
126.0,127.0,126.0,122.0,127.0,126.0,112.0,127.0,25.0,-109.0,-71.0,127.0,127.0,127.0,117.0,85.0,111.0
127.0,127.0,127.0,123.0,128.0,126.0,110.0,130.0,25.0,-109.0,-71.0,127.0,127.0,127.0,117.0,85.0,111.0
127.0,127.0,127.0,123.0,128.0,126.0,111.0,130.0,25.0,-109.0,-71.0,127.0,127.0,127.0,117.0,85.0,111.0
126.0,127.0,128.0,127.0,128.0,126.0,111.0,128.0,25.0,-110.0,-71.0,127.0,127.0,127.0,117.0,85.0,111.0
126.0,127.0,128.0,125.0,128.0,126.0,111.0,128.0,25.0,-110.0,-71.0,127.0,127.0,127.0,117.0,85.0,111.0
126.0,127.0,128.0,124.0,127.0,126.0,111.0,129.0,25.0,-110.0,-71.0,127.0,127.0,127.0,117.0,85.0,111.0
126.0,127.0,128.0,123.0,127.0,126.0,111.0,128.0,25.0,-110.0,-71.0,127.0,127.0,127.0,117.0,85.0,111.0
126.0,126.0,128.0,122.0,127.0,126.0,111.0,128.0,25.0,-110.0,-71.0,127.0,127.0,127.0,117.0,85.0,111.0
126.0,126.0,128.0,122.0,127.0,126.0,111.0,128.0,25.0,-110.0,-71.0,127.0,127.0,127.0,117.0,85.0,111.0
126.0,126.0,128.0,122.0,127.0,126.0,111.0,128.0,25.0,-110.0,-71.0,127.0,127.0,127.0,117.0,85.0,111.0
126.0,127.0,127.0,131.0,128.0,126.0,111.0,128.0,25.0,-110.0,-71.0,127.0,127.0,127.0,117.0,85.0,111.0
126.0,127.0,127.0,130.0,128.0,126.0,111.0,128.0,25.0,-110.0,-71.0,127.0,127.0,127.0,117.0,85.0,111.0
126.0,127.0,128.0,128.0,128.0,126.0,111.0,128.0,25.0,-110.0,-71.0,127.0,127.0,127.0,117.0,85.0,111.0
127.0,126.0,126.0,124.0,127.0,126.0,112.0,128.0,25.0,-110.0,-71.0,127.0,127.0,127.0,117.0,85.0,111.0
127.0,126.0,126.0,124.0,127.0,126.0,112.0,128.0,25.0,-110.0,-71.0,127.0,127.0,127.0,117.0,85.0,111.0
127.0,126.0,126.0,124.0,127.0,126.0,111.0,129.0,25.0,-110.0,-71.0,127.0,127.0,127.0,117.0,85.0,111.0
127.0,126.0,126.0,124.0,127.0,126.0,111.0,129.0,25.0,-110.0,-71.0,127.0,127.0,127.0,117.0,85.0,111.0
127.0,126.0,127.0,124.0,127.0,126.0,111.0,129.0,25.0,-110.0,-71.0,127.0,127.0,127.0,117.0,85.0,111.0
127.0,127.0,127.0,124.0,127.0,126.0,111.0,129.0,25.0,-110.0,-71.0,127.0,127.0,127.0,117.0,85.0,111.0
127.0,127.0,127.0,123.0,127.0,126.0,111.0,128.0,25.0,-110.0,-71.0,127.0,127.0,127.0,117.0,85.0,111.0
127.0,127.0,127.0,123.0,127.0,126.0,111.0,128.0,25.0,-110.0,-71.0,127.0,127.0,127.0,117.0,85.0,111.0
127.0,127.0,127.0,124.0,127.0,126.0,111.0,128.0,25.0,-110.0,-71.0,127.0,127.0,127.0,117.0,85.0,111.0
127.0,127.0,127.0,124.0,127.0,126.0,112.0,128.0,25.0,-110.0,-71.0,127.0,127.0,127.0,117.0,85.0,111.0
127.0,127.0,127.0,124.0,128.0,126.0,112.0,129.0,25.0,-109.0,-71.0,127.0,127.0,127.0,117.0,85.0,111.0
127.0,127.0,127.0,125.0,127.0,126.0,112.0,129.0,25.0,-109.0,-71.0,127.0,127.0,127.0,117.0,85.0,111.0
127.0,127.0,127.0,125.0,127.0,126.0,112.0,128.0,25.0,-109.0,-71.0,127.0,127.0,127.0,117.0,85.0,111.0
127.0,127.0,127.0,125.0,127.0,126.0,112.0,127.0,25.0,-109.0,-71.0,127.0,127.0,127.0,117.0,85.0,111.0
127.0,127.0,127.0,125.0,127.0,126.0,112.0,127.0,25.0,-109.0,-71.0,127.0,127.0,127.0,117.0,85.0,111.0
127.0,127.0,127.0,123.0,128.0,126.0,112.0,131.0,25.0,-109.0,-71.0,127.0,127.0,127.0,117.0,85.0,111.0
127.0,127.0,127.0,124.0,128.0,126.0,111.0,131.0,25.0,-109.0,-71.0,127.0,127.0,127.0,117.0,85.0,111.0
127.0,127.0,127.0,124.0,128.0,126.0,112.0,130.0,25.0,-109.0,-71.0,127.0,127.0,127.0,117.0,85.0,111.0
127.0,127.0,127.0,124.0,128.0,126.0,112.0,130.0,25.0,-109.0,-71.0,127.0,127.0,127.0,117.0,85.0,111.0
127.0,127.0,127.0,124.0,128.0,126.0,112.0,130.0,25.0,-109.0,-71.0,127.0,127.0,127.0,117.0,85.0,111.0
127.0,127.0,130.0,128.0,127.0,127.0,112.0,129.0,25.0,-109.0,-71.0,127.0,127.0,127.0,117.0,85.0,111.0
127.0,127.0,129.0,127.0,127.0,127.0,113.0,129.0,25.0,-109.0,-71.0,127.0,127.0,127.0,117.0,85.0,111.0
127.0,127.0,129.0,127.0,127.0,127.0,113.0,130.0,25.0,-109.0,-71.0,127.0,127.0,127.0,117.0,85.0,111.0
127.0,127.0,129.0,126.0,127.0,127.0,114.0,130.0,25.0,-109.0,-71.0,127.0,127.0,127.0,117.0,85.0,111.0
127.0,127.0,129.0,131.0,127.0,126.0,111.0,126.0,25.0,-109.0,-71.0,127.0,127.0,127.0,117.0,85.0,111.0
127.0,127.0,129.0,130.0,127.0,126.0,111.0,126.0,25.0,-109.0,-71.0,127.0,127.0,127.0,117.0,85.0,111.0
127.0,127.0,129.0,129.0,127.0,126.0,112.0,127.0,25.0,-109.0,-71.0,127.0,127.0,127.0,117.0,85.0,111.0
127.0,127.0,129.0,129.0,127.0,126.0,112.0,127.0,25.0,-109.0,-71.0,127.0,127.0,127.0,117.0,85.0,111.0
127.0,127.0,129.0,129.0,127.0,126.0,112.0,128.0,25.0,-109.0,-71.0,127.0,127.0,127.0,117.0,85.0,111.0
127.0,127.0,129.0,129.0,127.0,127.0,112.0,128.0,25.0,-109.0,-71.0,127.0,127.0,127.0,117.0,85.0,111.0
126.0,127.0,126.0,126.0,127.0,126.0,113.0,131.0,25.0,-109.0,-71.0,127.0,127.0,127.0,117.0,85.0,111.0
126.0,127.0,126.0,126.0,127.0,126.0,113.0,131.0,25.0,-109.0,-71.0,127.0,127.0,127.0,117.0,85.0,111.0
126.0,127.0,126.0,125.0,127.0,126.0,113.0,131.0,25.0,-109.0,-71.0,127.0,127.0,127.0,117.0,85.0,111.0
127.0,126.0,127.0,129.0,127.0,126.0,112.0,133.0,25.0,-109.0,-71.0,127.0,127.0,127.0,117.0,85.0,111.0
127.0,126.0,127.0,129.0,127.0,126.0,112.0,132.0,25.0,-109.0,-71.0,127.0,127.0,127.0,117.0,85.0,111.0
127.0,126.0,127.0,129.0,127.0,126.0,112.0,132.0,25.0,-109.0,-71.0,127.0,127.0,127.0,117.0,85.0,111.0
127.0,127.0,126.0,128.0,127.0,126.0,112.0,132.0,25.0,-109.0,-71.0,127.0,127.0,127.0,117.0,85.0,111.0
127.0,126.0,126.0,128.0,127.0,126.0,112.0,132.0,25.0,-109.0,-71.0,127.0,127.0,127.0,117.0,85.0,111.0
127.0,127.0,126.0,127.0,127.0,126.0,112.0,132.0,25.0,-109.0,-71.0,127.0,127.0,127.0,117.0,85.0,111.0
126.0,127.0,126.0,127.0,127.0,126.0,113.0,131.0,25.0,-109.0,-71.0,127.0,127.0,127.0,117.0,85.0,111.0
127.0,127.0,127.0,130.0,127.0,127.0,112.0,128.0,25.0,-110.0,-71.0,127.0,127.0,127.0,117.0,85.0,111.0
127.0,127.0,127.0,123.0,127.0,126.0,112.0,128.0,25.0,-110.0,-71.0,127.0,127.0,127.0,117.0,85.0,111.0
127.0,127.0,127.0,124.0,127.0,126.0,112.0,128.0,25.0,-110.0,-71.0,127.0,127.0,127.0,117.0,85.0,111.0
127.0,127.0,127.0,125.0,127.0,126.0,112.0,128.0,25.0,-110.0,-71.0,127.0,127.0,127.0,117.0,85.0,111.0
127.0,127.0,127.0,126.0,127.0,127.0,112.0,129.0,25.0,-110.0,-71.0,127.0,127.0,127.0,117.0,85.0,111.0
127.0,127.0,127.0,127.0,127.0,126.0,112.0,129.0,25.0,-110.0,-71.0,127.0,127.0,127.0,117.0,85.0,111.0
127.0,127.0,127.0,128.0,127.0,127.0,112.0,129.0,25.0,-110.0,-71.0,127.0,127.0,127.0,117.0,85.0,111.0
127.0,127.0,127.0,128.0,128.0,127.0,112.0,129.0,25.0,-110.0,-71.0,127.0,127.0,127.0,117.0,85.0,111.0
127.0,127.0,127.0,129.0,128.0,127.0,112.0,129.0,25.0,-110.0,-71.0,127.0,127.0,127.0,117.0,85.0,111.0
127.0,127.0,127.0,129.0,127.0,127.0,112.0,129.0,25.0,-110.0,-71.0,127.0,127.0,127.0,117.0,85.0,111.0
127.0,127.0,128.0,130.0,127.0,126.0,113.0,130.0,25.0,-110.0,-70.0,127.0,127.0,127.0,117.0,85.0,111.0
127.0,127.0,127.0,130.0,127.0,126.0,112.0,130.0,25.0,-110.0,-70.0,127.0,127.0,127.0,117.0,85.0,111.0
127.0,127.0,127.0,130.0,127.0,127.0,112.0,130.0,25.0,-110.0,-70.0,127.0,127.0,127.0,117.0,85.0,111.0
127.0,126.0,127.0,130.0,127.0,126.0,112.0,130.0,25.0,-110.0,-70.0,127.0,127.0,127.0,117.0,85.0,111.0
127.0,126.0,127.0,130.0,127.0,127.0,112.0,130.0,25.0,-110.0,-70.0,127.0,127.0,127.0,117.0,85.0,111.0
127.0,127.0,127.0,130.0,127.0,127.0,112.0,130.0,25.0,-110.0,-70.0,127.0,127.0,127.0,117.0,85.0,111.0
127.0,127.0,127.0,129.0,127.0,127.0,112.0,130.0,25.0,-110.0,-70.0,127.0,127.0,127.0,117.0,85.0,111.0
127.0,127.0,127.0,129.0,127.0,126.0,112.0,130.0,25.0,-110.0,-70.0,127.0,127.0,127.0,117.0,85.0,111.0
127.0,127.0,127.0,129.0,127.0,127.0,112.0,130.0,25.0,-110.0,-70.0,127.0,127.0,127.0,117.0,85.0,111.0
127.0,127.0,127.0,129.0,127.0,127.0,112.0,130.0,25.0,-110.0,-70.0,127.0,127.0,127.0,117.0,85.0,111.0
127.0,127.0,128.0,126.0,127.0,127.0,112.0,121.0,25.0,-110.0,-70.0,127.0,127.0,127.0,117.0,85.0,111.0
127.0,127.0,128.0,127.0,127.0,127.0,112.0,120.0,25.0,-110.0,-70.0,127.0,127.0,127.0,117.0,85.0,111.0
126.0,127.0,128.0,127.0,127.0,127.0,112.0,120.0,25.0,-110.0,-70.0,127.0,127.0,127.0,117.0,85.0,111.0
126.0,127.0,128.0,127.0,127.0,127.0,112.0,120.0,25.0,-110.0,-70.0,127.0,127.0,127.0,117.0,85.0,111.0
127.0,127.0,127.0,127.0,127.0,126.0,112.0,120.0,25.0,-110.0,-70.0,127.0,127.0,127.0,117.0,85.0,111.0
127.0,127.0,127.0,126.0,127.0,126.0,113.0,120.0,25.0,-110.0,-70.0,127.0,127.0,127.0,117.0,85.0,111.0
126.0,127.0,127.0,126.0,127.0,126.0,112.0,120.0,25.0,-110.0,-70.0,127.0,127.0,127.0,117.0,85.0,111.0
127.0,127.0,127.0,126.0,127.0,126.0,112.0,121.0,25.0,-110.0,-70.0,127.0,127.0,127.0,117.0,85.0,111.0
127.0,127.0,127.0,126.0,127.0,126.0,112.0,122.0,25.0,-110.0,-70.0,127.0,127.0,127.0,117.0,85.0,111.0
127.0,127.0,127.0,126.0,127.0,127.0,112.0,121.0,25.0,-110.0,-70.0,127.0,127.0,127.0,117.0,85.0,111.0
127.0,127.0,126.0,126.0,128.0,128.0,107.0,128.0,25.0,-110.0,-71.0,127.0,127.0,127.0,117.0,85.0,111.0
127.0,127.0,126.0,126.0,128.0,128.0,107.0,128.0,25.0,-110.0,-71.0,127.0,127.0,127.0,117.0,85.0,111.0
127.0,127.0,126.0,127.0,128.0,128.0,108.0,128.0,25.0,-110.0,-71.0,127.0,127.0,127.0,117.0,85.0,111.0
127.0,127.0,126.0,127.0,128.0,128.0,108.0,128.0,25.0,-110.0,-71.0,127.0,127.0,127.0,117.0,85.0,111.0
127.0,127.0,126.0,127.0,128.0,128.0,108.0,128.0,25.0,-110.0,-71.0,127.0,127.0,127.0,117.0,85.0,111.0
127.0,127.0,126.0,127.0,128.0,128.0,109.0,128.0,25.0,-110.0,-71.0,127.0,127.0,127.0,117.0,85.0,111.0
127.0,126.0,126.0,127.0,127.0,128.0,108.0,127.0,25.0,-110.0,-71.0,127.0,127.0,127.0,117.0,85.0,111.0
127.0,126.0,126.0,127.0,127.0,128.0,108.0,127.0,25.0,-110.0,-71.0,127.0,127.0,127.0,117.0,85.0,111.0
127.0,127.0,126.0,125.0,127.0,128.0,107.0,128.0,25.0,-110.0,-71.0,127.0,127.0,127.0,117.0,85.0,111.0
127.0,127.0,126.0,125.0,127.0,128.0,107.0,128.0,25.0,-110.0,-71.0,127.0,127.0,127.0,117.0,85.0,111.0
127.0,126.0,127.0,126.0,127.0,129.0,109.0,127.0,25.0,-110.0,-71.0,127.0,127.0,127.0,117.0,85.0,111.0
127.0,126.0,127.0,127.0,127.0,129.0,109.0,127.0,25.0,-110.0,-71.0,127.0,127.0,127.0,117.0,85.0,111.0
127.0,126.0,127.0,127.0,127.0,129.0,109.0,127.0,25.0,-110.0,-71.0,127.0,127.0,127.0,117.0,85.0,111.0
127.0,126.0,128.0,127.0,128.0,129.0,109.0,127.0,25.0,-110.0,-71.0,127.0,127.0,127.0,117.0,85.0,111.0
126.0,127.0,128.0,127.0,128.0,129.0,109.0,127.0,25.0,-110.0,-71.0,127.0,127.0,127.0,117.0,85.0,111.0
126.0,127.0,128.0,128.0,127.0,129.0,109.0,127.0,25.0,-110.0,-71.0,127.0,127.0,127.0,117.0,85.0,111.0
126.0,127.0,128.0,128.0,127.0,129.0,109.0,127.0,25.0,-110.0,-71.0,127.0,127.0,127.0,117.0,85.0,111.0
127.0,127.0,127.0,126.0,127.0,129.0,108.0,127.0,25.0,-110.0,-71.0,127.0,127.0,127.0,117.0,85.0,111.0
127.0,126.0,127.0,126.0,127.0,129.0,109.0,127.0,25.0,-110.0,-71.0,127.0,127.0,127.0,117.0,85.0,111.0
127.0,126.0,127.0,126.0,127.0,129.0,109.0,127.0,25.0,-110.0,-71.0,127.0,127.0,127.0,117.0,85.0,111.0
127.0,127.0,127.0,127.0,127.0,128.0,107.0,126.0,25.0,-110.0,-71.0,127.0,127.0,127.0,117.0,85.0,111.0
127.0,127.0,126.0,127.0,127.0,128.0,107.0,126.0,25.0,-110.0,-71.0,127.0,127.0,127.0,117.0,85.0,111.0
127.0,127.0,126.0,126.0,127.0,128.0,107.0,126.0,25.0,-110.0,-71.0,127.0,127.0,127.0,117.0,85.0,111.0
127.0,127.0,126.0,126.0,127.0,128.0,107.0,126.0,25.0,-110.0,-71.0,127.0,127.0,127.0,117.0,85.0,111.0
127.0,127.0,126.0,126.0,126.0,128.0,107.0,126.0,25.0,-110.0,-71.0,127.0,127.0,127.0,117.0,85.0,111.0
127.0,127.0,126.0,126.0,126.0,128.0,107.0,126.0,25.0,-110.0,-71.0,127.0,127.0,127.0,117.0,85.0,111.0
127.0,127.0,127.0,128.0,127.0,128.0,107.0,126.0,25.0,-110.0,-71.0,127.0,127.0,127.0,117.0,85.0,111.0
127.0,127.0,127.0,127.0,127.0,128.0,107.0,126.0,25.0,-110.0,-71.0,127.0,127.0,127.0,117.0,85.0,111.0
127.0,127.0,127.0,127.0,127.0,128.0,108.0,126.0,25.0,-110.0,-71.0,127.0,127.0,127.0,117.0,85.0,111.0
127.0,127.0,127.0,127.0,127.0,128.0,107.0,126.0,25.0,-110.0,-71.0,127.0,127.0,127.0,117.0,85.0,111.0
127.0,127.0,128.0,130.0,127.0,128.0,106.0,127.0,25.0,-110.0,-71.0,127.0,127.0,127.0,117.0,85.0,111.0
127.0,127.0,128.0,130.0,127.0,128.0,107.0,127.0,25.0,-110.0,-71.0,127.0,127.0,127.0,117.0,85.0,111.0
127.0,126.0,128.0,130.0,127.0,128.0,107.0,127.0,25.0,-110.0,-71.0,127.0,127.0,127.0,117.0,85.0,111.0
127.0,126.0,128.0,131.0,127.0,128.0,107.0,128.0,25.0,-110.0,-71.0,127.0,127.0,127.0,117.0,85.0,111.0
127.0,126.0,128.0,131.0,127.0,128.0,107.0,128.0,25.0,-110.0,-71.0,127.0,127.0,127.0,117.0,85.0,111.0
127.0,127.0,127.0,125.0,126.0,127.0,107.0,126.0,25.0,-110.0,-71.0,127.0,127.0,127.0,117.0,85.0,111.0
127.0,127.0,127.0,126.0,126.0,127.0,107.0,127.0,25.0,-110.0,-71.0,127.0,127.0,127.0,117.0,85.0,111.0
127.0,127.0,128.0,127.0,127.0,127.0,106.0,126.0,25.0,-110.0,-71.0,127.0,127.0,127.0,117.0,85.0,111.0
127.0,127.0,128.0,128.0,127.0,127.0,106.0,127.0,25.0,-110.0,-71.0,127.0,127.0,127.0,117.0,85.0,111.0
127.0,127.0,128.0,129.0,127.0,127.0,106.0,127.0,25.0,-110.0,-71.0,127.0,127.0,127.0,117.0,85.0,111.0
127.0,127.0,126.0,126.0,128.0,127.0,107.0,125.0,25.0,-110.0,-71.0,127.0,127.0,127.0,117.0,85.0,111.0
127.0,127.0,126.0,125.0,128.0,127.0,107.0,124.0,25.0,-110.0,-71.0,127.0,127.0,127.0,117.0,85.0,111.0
127.0,127.0,126.0,125.0,128.0,127.0,107.0,124.0,25.0,-110.0,-71.0,127.0,127.0,127.0,117.0,85.0,111.0
127.0,127.0,126.0,125.0,128.0,127.0,107.0,124.0,25.0,-110.0,-71.0,127.0,127.0,127.0,117.0,85.0,111.0
127.0,127.0,126.0,129.0,127.0,127.0,105.0,126.0,25.0,-110.0,-71.0,127.0,127.0,127.0,117.0,85.0,111.0
127.0,127.0,127.0,129.0,127.0,127.0,106.0,126.0,25.0,-110.0,-71.0,127.0,127.0,127.0,117.0,85.0,111.0
126.0,127.0,127.0,129.0,128.0,127.0,107.0,125.0,25.0,-110.0,-71.0,127.0,127.0,127.0,117.0,85.0,111.0
126.0,127.0,127.0,128.0,128.0,127.0,106.0,125.0,25.0,-110.0,-71.0,127.0,127.0,127.0,117.0,85.0,111.0
126.0,127.0,127.0,127.0,128.0,127.0,106.0,125.0,25.0,-110.0,-71.0,127.0,127.0,127.0,117.0,85.0,111.0
126.0,127.0,126.0,127.0,128.0,127.0,107.0,125.0,25.0,-110.0,-71.0,127.0,127.0,127.0,117.0,85.0,111.0
127.0,127.0,126.0,129.0,128.0,127.0,106.0,125.0,25.0,-110.0,-71.0,127.0,127.0,127.0,117.0,85.0,111.0
127.0,126.0,126.0,129.0,128.0,128.0,106.0,124.0,25.0,-110.0,-71.0,127.0,127.0,127.0,117.0,85.0,111.0
127.0,126.0,126.0,129.0,128.0,128.0,106.0,125.0,25.0,-110.0,-71.0,127.0,127.0,127.0,117.0,85.0,111.0
127.0,127.0,126.0,130.0,128.0,127.0,107.0,125.0,25.0,-110.0,-71.0,127.0,127.0,127.0,117.0,85.0,111.0
127.0,127.0,126.0,130.0,128.0,127.0,106.0,125.0,25.0,-110.0,-71.0,127.0,127.0,127.0,117.0,85.0,111.0
127.0,127.0,126.0,130.0,128.0,127.0,106.0,124.0,25.0,-110.0,-71.0,127.0,127.0,127.0,117.0,85.0,111.0
127.0,127.0,126.0,130.0,128.0,127.0,107.0,125.0,25.0,-110.0,-71.0,127.0,127.0,127.0,117.0,85.0,111.0
127.0,127.0,126.0,130.0,128.0,127.0,107.0,125.0,25.0,-110.0,-71.0,127.0,127.0,127.0,117.0,85.0,111.0
127.0,127.0,126.0,130.0,128.0,127.0,106.0,125.0,25.0,-110.0,-71.0,127.0,127.0,127.0,117.0,85.0,111.0
127.0,127.0,126.0,130.0,128.0,127.0,107.0,125.0,25.0,-110.0,-71.0,127.0,127.0,127.0,117.0,85.0,111.0
126.0,127.0,126.0,127.0,127.0,128.0,109.0,124.0,25.0,-111.0,-71.0,127.0,127.0,127.0,117.0,85.0,111.0
126.0,126.0,126.0,127.0,127.0,128.0,109.0,125.0,25.0,-111.0,-71.0,127.0,127.0,127.0,117.0,85.0,111.0
127.0,126.0,125.0,128.0,126.0,128.0,107.0,124.0,25.0,-111.0,-71.0,127.0,127.0,127.0,117.0,85.0,111.0
127.0,126.0,125.0,128.0,126.0,128.0,107.0,124.0,25.0,-111.0,-71.0,127.0,127.0,127.0,117.0,85.0,111.0
127.0,126.0,125.0,127.0,127.0,128.0,107.0,124.0,25.0,-111.0,-71.0,127.0,127.0,127.0,117.0,85.0,111.0
127.0,126.0,126.0,127.0,127.0,128.0,108.0,124.0,25.0,-111.0,-71.0,127.0,127.0,127.0,117.0,85.0,111.0
127.0,126.0,126.0,127.0,127.0,128.0,108.0,125.0,25.0,-111.0,-71.0,127.0,127.0,127.0,117.0,85.0,111.0
127.0,126.0,126.0,127.0,127.0,128.0,108.0,124.0,25.0,-111.0,-71.0,127.0,127.0,127.0,117.0,85.0,111.0
127.0,126.0,126.0,127.0,127.0,128.0,108.0,124.0,25.0,-111.0,-71.0,127.0,127.0,127.0,117.0,85.0,111.0
126.0,127.0,126.0,127.0,127.0,128.0,108.0,124.0,25.0,-111.0,-71.0,127.0,127.0,127.0,117.0,85.0,111.0
127.0,127.0,127.0,129.0,126.0,127.0,107.0,125.0,25.0,-111.0,-71.0,127.0,127.0,127.0,117.0,85.0,111.0
126.0,127.0,125.0,124.0,126.0,127.0,106.0,124.0,25.0,-111.0,-71.0,127.0,127.0,127.0,117.0,85.0,111.0
126.0,127.0,125.0,124.0,126.0,127.0,107.0,124.0,25.0,-111.0,-71.0,127.0,127.0,127.0,117.0,85.0,111.0
126.0,127.0,125.0,125.0,126.0,127.0,107.0,124.0,25.0,-111.0,-71.0,127.0,127.0,127.0,117.0,85.0,111.0
126.0,127.0,125.0,125.0,126.0,127.0,106.0,124.0,25.0,-111.0,-71.0,127.0,127.0,127.0,117.0,85.0,111.0
126.0,127.0,125.0,125.0,127.0,128.0,106.0,125.0,25.0,-111.0,-71.0,127.0,127.0,127.0,117.0,85.0,111.0
126.0,127.0,126.0,126.0,127.0,128.0,106.0,125.0,25.0,-111.0,-71.0,127.0,127.0,127.0,117.0,85.0,111.0
126.0,127.0,126.0,127.0,126.0,127.0,106.0,125.0,25.0,-111.0,-71.0,127.0,127.0,127.0,117.0,85.0,111.0
127.0,127.0,126.0,128.0,126.0,127.0,107.0,125.0,25.0,-111.0,-71.0,127.0,127.0,127.0,117.0,85.0,111.0
127.0,127.0,126.0,129.0,126.0,127.0,107.0,125.0,25.0,-111.0,-71.0,127.0,127.0,127.0,117.0,85.0,111.0
127.0,127.0,127.0,134.0,126.0,127.0,108.0,123.0,25.0,-111.0,-71.0,127.0,127.0,127.0,117.0,85.0,111.0
127.0,127.0,128.0,134.0,126.0,127.0,107.0,123.0,25.0,-111.0,-71.0,127.0,127.0,127.0,117.0,85.0,111.0
127.0,127.0,128.0,135.0,126.0,127.0,107.0,123.0,25.0,-111.0,-71.0,127.0,127.0,127.0,117.0,85.0,111.0
127.0,127.0,129.0,135.0,126.0,127.0,107.0,123.0,25.0,-111.0,-71.0,127.0,127.0,127.0,117.0,85.0,111.0
127.0,127.0,129.0,134.0,126.0,127.0,107.0,123.0,25.0,-111.0,-71.0,127.0,127.0,127.0,117.0,85.0,111.0
127.0,126.0,129.0,134.0,126.0,127.0,107.0,123.0,25.0,-111.0,-71.0,127.0,127.0,127.0,117.0,85.0,111.0
127.0,126.0,128.0,133.0,126.0,127.0,108.0,123.0,25.0,-111.0,-71.0,127.0,127.0,127.0,117.0,85.0,111.0
127.0,126.0,128.0,131.0,127.0,127.0,110.0,123.0,25.0,-111.0,-71.0,127.0,127.0,127.0,117.0,85.0,111.0
127.0,126.0,128.0,130.0,127.0,127.0,108.0,123.0,25.0,-111.0,-71.0,127.0,127.0,127.0,117.0,85.0,111.0
127.0,126.0,128.0,129.0,127.0,127.0,107.0,123.0,25.0,-111.0,-71.0,127.0,127.0,127.0,117.0,85.0,111.0
127.0,126.0,147.0,127.0,127.0,127.0,106.0,122.0,25.0,-111.0,-70.0,127.0,127.0,127.0,117.0,85.0,111.0
126.0,126.0,148.0,127.0,127.0,127.0,106.0,122.0,25.0,-111.0,-70.0,127.0,127.0,127.0,117.0,85.0,111.0
126.0,126.0,149.0,126.0,127.0,128.0,107.0,122.0,25.0,-111.0,-70.0,127.0,127.0,127.0,117.0,85.0,111.0
126.0,126.0,151.0,126.0,128.0,128.0,107.0,122.0,25.0,-111.0,-70.0,127.0,127.0,127.0,117.0,85.0,111.0
126.0,126.0,153.0,126.0,128.0,128.0,107.0,122.0,25.0,-111.0,-70.0,127.0,127.0,127.0,117.0,85.0,111.0
126.0,126.0,155.0,128.0,128.0,128.0,107.0,122.0,25.0,-111.0,-70.0,127.0,127.0,127.0,117.0,85.0,111.0
126.0,126.0,157.0,130.0,128.0,128.0,107.0,122.0,25.0,-111.0,-70.0,127.0,127.0,127.0,117.0,85.0,111.0
126.0,126.0,159.0,132.0,128.0,128.0,108.0,122.0,25.0,-111.0,-70.0,127.0,127.0,127.0,117.0,85.0,111.0
126.0,126.0,160.0,133.0,129.0,128.0,108.0,122.0,25.0,-111.0,-70.0,127.0,127.0,127.0,117.0,85.0,111.0
127.0,126.0,146.0,127.0,127.0,127.0,106.0,122.0,25.0,-111.0,-70.0,127.0,127.0,127.0,117.0,85.0,111.0
127.0,127.0,187.0,147.0,130.0,127.0,113.0,121.0,25.0,-111.0,-70.0,127.0,127.0,127.0,117.0,85.0,111.0
127.0,127.0,187.0,148.0,130.0,127.0,113.0,121.0,25.0,-111.0,-70.0,127.0,127.0,127.0,117.0,85.0,111.0
127.0,127.0,186.0,148.0,130.0,127.0,113.0,121.0,25.0,-111.0,-70.0,127.0,127.0,127.0,117.0,85.0,111.0
127.0,127.0,185.0,148.0,130.0,127.0,112.0,121.0,25.0,-111.0,-70.0,127.0,127.0,127.0,117.0,85.0,111.0
127.0,127.0,185.0,148.0,130.0,127.0,112.0,121.0,25.0,-111.0,-70.0,127.0,127.0,127.0,117.0,85.0,111.0
