emg1,emg2,emg3,emg4,emg5,emg6,emg7,emg8,acc_x,acc_y,acc_z,gyro_x,gyro_y,gyro_z,angle_pitch,angle_roll,angle_yaw
127.0,127.0,127.0,127.0,127.0,127.0,113.0,128.0,41.0,-114.0,-55.0,127.0,127.0,127.0,123.0,89.0,-109.0
127.0,127.0,127.0,127.0,127.0,127.0,113.0,128.0,41.0,-114.0,-55.0,127.0,127.0,127.0,123.0,89.0,-109.0
127.0,127.0,127.0,127.0,127.0,127.0,108.0,128.0,41.0,-114.0,-55.0,127.0,127.0,127.0,123.0,89.0,-109.0
127.0,127.0,127.0,128.0,127.0,127.0,106.0,128.0,41.0,-114.0,-55.0,127.0,127.0,127.0,123.0,89.0,-109.0
126.0,127.0,127.0,126.0,127.0,127.0,112.0,128.0,41.0,-114.0,-55.0,127.0,127.0,127.0,123.0,89.0,-109.0
126.0,127.0,127.0,126.0,127.0,127.0,113.0,128.0,41.0,-114.0,-55.0,127.0,127.0,127.0,123.0,89.0,-109.0
126.0,127.0,127.0,127.0,127.0,127.0,113.0,128.0,41.0,-114.0,-55.0,127.0,127.0,127.0,123.0,89.0,-109.0
126.0,127.0,127.0,127.0,127.0,127.0,113.0,128.0,41.0,-114.0,-55.0,127.0,127.0,127.0,123.0,89.0,-109.0
127.0,127.0,127.0,127.0,127.0,127.0,112.0,128.0,41.0,-114.0,-55.0,127.0,127.0,127.0,123.0,89.0,-109.0
126.0,127.0,127.0,127.0,127.0,127.0,111.0,128.0,41.0,-114.0,-55.0,127.0,127.0,127.0,123.0,89.0,-109.0
127.0,127.0,127.0,127.0,127.0,127.0,107.0,128.0,41.0,-114.0,-55.0,127.0,127.0,127.0,123.0,89.0,-109.0
127.0,127.0,127.0,127.0,127.0,127.0,106.0,128.0,41.0,-114.0,-55.0,127.0,127.0,127.0,123.0,89.0,-109.0
127.0,127.0,127.0,127.0,127.0,127.0,106.0,128.0,41.0,-114.0,-55.0,127.0,127.0,127.0,123.0,89.0,-109.0
126.0,127.0,127.0,125.0,127.0,127.0,112.0,128.0,41.0,-114.0,-55.0,127.0,127.0,127.0,123.0,89.0,-109.0
126.0,127.0,127.0,126.0,127.0,127.0,113.0,128.0,41.0,-114.0,-55.0,127.0,127.0,127.0,123.0,89.0,-109.0
126.0,127.0,127.0,126.0,127.0,127.0,113.0,128.0,41.0,-114.0,-55.0,127.0,127.0,127.0,123.0,89.0,-109.0
126.0,127.0,127.0,126.0,127.0,127.0,110.0,128.0,41.0,-114.0,-55.0,127.0,127.0,127.0,123.0,89.0,-109.0
126.0,127.0,127.0,126.0,127.0,127.0,106.0,128.0,41.0,-114.0,-55.0,127.0,127.0,127.0,123.0,89.0,-109.0
126.0,127.0,127.0,127.0,127.0,127.0,107.0,128.0,41.0,-114.0,-55.0,127.0,127.0,127.0,123.0,89.0,-109.0
126.0,127.0,127.0,127.0,127.0,127.0,109.0,128.0,41.0,-114.0,-55.0,127.0,127.0,127.0,123.0,89.0,-109.0
127.0,127.0,127.0,126.0,127.0,127.0,106.0,128.0,41.0,-114.0,-55.0,127.0,127.0,127.0,123.0,89.0,-109.0
127.0,127.0,127.0,126.0,127.0,127.0,106.0,128.0,41.0,-114.0,-55.0,127.0,127.0,127.0,123.0,89.0,-109.0
126.0,127.0,127.0,125.0,127.0,127.0,112.0,127.0,41.0,-114.0,-55.0,127.0,127.0,127.0,123.0,89.0,-109.0
127.0,127.0,127.0,125.0,127.0,127.0,113.0,127.0,41.0,-114.0,-55.0,127.0,127.0,127.0,123.0,89.0,-109.0
127.0,127.0,127.0,126.0,127.0,127.0,113.0,128.0,41.0,-114.0,-55.0,127.0,127.0,127.0,123.0,89.0,-109.0
127.0,127.0,127.0,126.0,127.0,127.0,109.0,128.0,41.0,-114.0,-55.0,127.0,127.0,127.0,123.0,89.0,-109.0
127.0,127.0,127.0,126.0,127.0,127.0,106.0,128.0,41.0,-114.0,-55.0,127.0,127.0,127.0,123.0,89.0,-109.0
127.0,127.0,127.0,126.0,127.0,127.0,106.0,128.0,41.0,-114.0,-55.0,127.0,127.0,127.0,123.0,89.0,-109.0
127.0,127.0,127.0,126.0,127.0,127.0,107.0,128.0,41.0,-114.0,-55.0,127.0,127.0,127.0,123.0,89.0,-109.0
127.0,127.0,127.0,126.0,127.0,127.0,106.0,128.0,41.0,-114.0,-55.0,127.0,127.0,127.0,123.0,89.0,-109.0
127.0,128.0,127.0,127.0,127.0,127.0,106.0,128.0,42.0,-115.0,-55.0,127.0,127.0,127.0,123.0,89.0,-109.0
126.0,127.0,127.0,127.0,127.0,127.0,113.0,127.0,42.0,-115.0,-55.0,127.0,127.0,127.0,123.0,89.0,-109.0
126.0,127.0,127.0,127.0,127.0,127.0,112.0,128.0,42.0,-115.0,-55.0,127.0,127.0,127.0,123.0,89.0,-109.0
127.0,127.0,127.0,127.0,127.0,127.0,113.0,128.0,42.0,-115.0,-55.0,127.0,127.0,127.0,123.0,89.0,-109.0
127.0,127.0,127.0,127.0,127.0,127.0,109.0,128.0,42.0,-115.0,-55.0,127.0,127.0,127.0,123.0,89.0,-109.0
127.0,127.0,127.0,127.0,127.0,127.0,107.0,128.0,42.0,-115.0,-55.0,127.0,127.0,127.0,123.0,89.0,-109.0
127.0,127.0,127.0,127.0,127.0,127.0,106.0,128.0,42.0,-115.0,-55.0,127.0,127.0,127.0,123.0,89.0,-109.0
127.0,127.0,127.0,127.0,127.0,127.0,108.0,128.0,42.0,-115.0,-55.0,127.0,127.0,127.0,123.0,89.0,-109.0
127.0,128.0,127.0,127.0,127.0,127.0,109.0,128.0,42.0,-115.0,-55.0,127.0,127.0,127.0,123.0,89.0,-109.0
127.0,128.0,127.0,127.0,127.0,127.0,107.0,128.0,42.0,-115.0,-55.0,127.0,127.0,127.0,123.0,89.0,-109.0
126.0,127.0,127.0,126.0,127.0,127.0,113.0,127.0,42.0,-115.0,-54.0,127.0,127.0,127.0,123.0,89.0,-109.0
126.0,127.0,127.0,126.0,127.0,127.0,113.0,127.0,42.0,-115.0,-54.0,127.0,127.0,127.0,123.0,89.0,-109.0
126.0,127.0,127.0,126.0,127.0,127.0,113.0,127.0,42.0,-115.0,-54.0,127.0,127.0,127.0,123.0,89.0,-109.0
126.0,127.0,127.0,126.0,127.0,127.0,114.0,128.0,42.0,-115.0,-54.0,127.0,127.0,127.0,123.0,89.0,-109.0
126.0,127.0,127.0,126.0,127.0,127.0,111.0,128.0,42.0,-115.0,-54.0,127.0,127.0,127.0,123.0,89.0,-109.0
126.0,127.0,127.0,126.0,127.0,127.0,108.0,128.0,42.0,-115.0,-54.0,127.0,127.0,127.0,123.0,89.0,-109.0
126.0,127.0,127.0,126.0,127.0,127.0,110.0,127.0,42.0,-115.0,-54.0,127.0,127.0,127.0,123.0,89.0,-109.0
126.0,127.0,127.0,126.0,127.0,127.0,112.0,128.0,42.0,-115.0,-54.0,127.0,127.0,127.0,123.0,89.0,-109.0
126.0,127.0,127.0,126.0,127.0,127.0,108.0,128.0,42.0,-115.0,-54.0,127.0,127.0,127.0,123.0,89.0,-109.0
126.0,127.0,127.0,126.0,127.0,127.0,106.0,128.0,42.0,-115.0,-54.0,127.0,127.0,127.0,123.0,89.0,-109.0
126.0,127.0,127.0,126.0,127.0,127.0,112.0,127.0,42.0,-115.0,-54.0,127.0,127.0,127.0,123.0,89.0,-109.0
126.0,127.0,127.0,126.0,127.0,127.0,112.0,127.0,42.0,-115.0,-54.0,127.0,127.0,127.0,123.0,89.0,-109.0
126.0,127.0,127.0,127.0,127.0,127.0,112.0,127.0,42.0,-115.0,-54.0,127.0,127.0,127.0,123.0,89.0,-109.0
126.0,127.0,127.0,127.0,127.0,127.0,111.0,127.0,42.0,-115.0,-54.0,127.0,127.0,127.0,123.0,89.0,-109.0
126.0,127.0,127.0,127.0,127.0,127.0,113.0,128.0,42.0,-115.0,-54.0,127.0,127.0,127.0,123.0,89.0,-109.0
126.0,127.0,127.0,127.0,127.0,127.0,113.0,127.0,42.0,-115.0,-54.0,127.0,127.0,127.0,123.0,89.0,-109.0
126.0,127.0,127.0,127.0,127.0,127.0,113.0,128.0,42.0,-115.0,-54.0,127.0,127.0,127.0,123.0,89.0,-109.0
126.0,127.0,127.0,127.0,127.0,127.0,113.0,128.0,42.0,-115.0,-54.0,127.0,127.0,127.0,123.0,89.0,-109.0
126.0,127.0,127.0,127.0,127.0,127.0,113.0,128.0,42.0,-115.0,-54.0,127.0,127.0,127.0,123.0,89.0,-109.0
126.0,126.0,127.0,126.0,127.0,126.0,112.0,127.0,42.0,-115.0,-54.0,127.0,127.0,127.0,123.0,89.0,-109.0
126.0,127.0,127.0,126.0,127.0,127.0,111.0,128.0,42.0,-115.0,-54.0,127.0,127.0,127.0,123.0,89.0,-109.0
126.0,127.0,127.0,126.0,127.0,127.0,107.0,128.0,42.0,-115.0,-54.0,127.0,127.0,127.0,123.0,89.0,-109.0
126.0,127.0,127.0,126.0,127.0,127.0,106.0,128.0,42.0,-115.0,-54.0,127.0,127.0,127.0,123.0,89.0,-109.0
126.0,127.0,127.0,126.0,127.0,127.0,106.0,128.0,42.0,-115.0,-54.0,127.0,127.0,127.0,123.0,89.0,-109.0
126.0,127.0,127.0,126.0,127.0,127.0,106.0,128.0,42.0,-115.0,-54.0,127.0,127.0,127.0,123.0,89.0,-109.0
126.0,127.0,127.0,126.0,127.0,127.0,106.0,128.0,42.0,-115.0,-54.0,127.0,127.0,127.0,123.0,89.0,-109.0
126.0,127.0,127.0,126.0,127.0,127.0,106.0,128.0,42.0,-115.0,-54.0,127.0,127.0,127.0,123.0,89.0,-109.0
126.0,127.0,127.0,126.0,127.0,127.0,107.0,128.0,42.0,-115.0,-54.0,127.0,127.0,127.0,123.0,89.0,-109.0
126.0,126.0,127.0,126.0,127.0,127.0,114.0,128.0,42.0,-115.0,-54.0,127.0,127.0,127.0,123.0,89.0,-109.0
126.0,126.0,127.0,126.0,127.0,127.0,114.0,128.0,42.0,-115.0,-54.0,127.0,127.0,127.0,123.0,89.0,-109.0
127.0,127.0,127.0,127.0,127.0,127.0,113.0,128.0,41.0,-115.0,-54.0,127.0,127.0,127.0,123.0,89.0,-109.0
127.0,127.0,127.0,127.0,127.0,127.0,113.0,128.0,41.0,-115.0,-54.0,127.0,127.0,127.0,123.0,89.0,-109.0
127.0,127.0,127.0,127.0,127.0,127.0,112.0,128.0,41.0,-115.0,-54.0,127.0,127.0,127.0,123.0,89.0,-109.0
127.0,127.0,127.0,127.0,127.0,127.0,108.0,128.0,41.0,-115.0,-54.0,127.0,127.0,127.0,123.0,89.0,-109.0
127.0,127.0,127.0,127.0,127.0,127.0,106.0,128.0,41.0,-115.0,-54.0,127.0,127.0,127.0,123.0,89.0,-109.0
127.0,127.0,127.0,127.0,127.0,127.0,106.0,128.0,41.0,-115.0,-54.0,127.0,127.0,127.0,123.0,89.0,-109.0
127.0,127.0,127.0,127.0,127.0,127.0,106.0,128.0,41.0,-115.0,-54.0,127.0,127.0,127.0,123.0,89.0,-109.0
127.0,127.0,127.0,127.0,127.0,127.0,112.0,127.0,41.0,-115.0,-54.0,127.0,127.0,127.0,123.0,89.0,-109.0
127.0,127.0,127.0,127.0,127.0,127.0,113.0,128.0,41.0,-115.0,-54.0,127.0,127.0,127.0,123.0,89.0,-109.0
127.0,127.0,127.0,127.0,127.0,127.0,113.0,128.0,41.0,-115.0,-54.0,127.0,127.0,127.0,123.0,89.0,-109.0
127.0,127.0,127.0,126.0,127.0,127.0,113.0,127.0,41.0,-115.0,-55.0,127.0,127.0,127.0,123.0,89.0,-109.0
127.0,127.0,127.0,127.0,127.0,127.0,113.0,127.0,41.0,-115.0,-55.0,127.0,127.0,127.0,123.0,89.0,-109.0
127.0,127.0,127.0,127.0,127.0,127.0,113.0,127.0,41.0,-115.0,-55.0,127.0,127.0,127.0,123.0,89.0,-109.0
127.0,127.0,127.0,127.0,127.0,127.0,108.0,128.0,41.0,-115.0,-55.0,127.0,127.0,127.0,123.0,89.0,-109.0
127.0,127.0,127.0,127.0,127.0,127.0,107.0,128.0,41.0,-115.0,-55.0,127.0,127.0,127.0,123.0,89.0,-109.0
127.0,127.0,127.0,127.0,127.0,127.0,106.0,128.0,41.0,-115.0,-55.0,127.0,127.0,127.0,123.0,89.0,-109.0
127.0,127.0,127.0,126.0,127.0,127.0,112.0,127.0,41.0,-115.0,-55.0,127.0,127.0,127.0,123.0,89.0,-109.0
127.0,127.0,127.0,126.0,127.0,127.0,112.0,127.0,41.0,-115.0,-55.0,127.0,127.0,127.0,123.0,89.0,-109.0
127.0,127.0,127.0,126.0,127.0,127.0,113.0,127.0,41.0,-115.0,-55.0,127.0,127.0,127.0,123.0,89.0,-109.0
127.0,127.0,127.0,126.0,127.0,127.0,114.0,127.0,41.0,-115.0,-55.0,127.0,127.0,127.0,123.0,89.0,-109.0
127.0,127.0,127.0,127.0,127.0,127.0,113.0,128.0,41.0,-115.0,-55.0,127.0,127.0,127.0,123.0,89.0,-109.0
127.0,127.0,127.0,127.0,127.0,127.0,113.0,128.0,41.0,-115.0,-55.0,127.0,127.0,127.0,123.0,89.0,-109.0
127.0,127.0,127.0,127.0,127.0,127.0,113.0,128.0,41.0,-115.0,-55.0,127.0,127.0,127.0,123.0,89.0,-109.0
127.0,127.0,127.0,127.0,127.0,127.0,113.0,128.0,41.0,-115.0,-55.0,127.0,127.0,127.0,123.0,89.0,-109.0
127.0,127.0,127.0,127.0,127.0,127.0,111.0,128.0,41.0,-115.0,-55.0,127.0,127.0,127.0,123.0,89.0,-109.0
127.0,127.0,127.0,126.0,127.0,127.0,112.0,127.0,41.0,-115.0,-55.0,127.0,127.0,127.0,123.0,89.0,-109.0
127.0,127.0,127.0,126.0,127.0,127.0,112.0,128.0,41.0,-115.0,-55.0,127.0,127.0,127.0,123.0,89.0,-109.0
127.0,127.0,127.0,126.0,127.0,127.0,113.0,127.0,41.0,-115.0,-55.0,127.0,127.0,127.0,123.0,89.0,-109.0
127.0,127.0,127.0,127.0,127.0,127.0,113.0,128.0,41.0,-115.0,-55.0,127.0,127.0,127.0,123.0,89.0,-109.0
127.0,127.0,127.0,127.0,127.0,127.0,113.0,127.0,41.0,-115.0,-55.0,127.0,127.0,127.0,123.0,89.0,-109.0
127.0,127.0,127.0,127.0,127.0,127.0,113.0,128.0,41.0,-115.0,-55.0,127.0,127.0,127.0,123.0,89.0,-109.0
127.0,127.0,127.0,127.0,127.0,127.0,111.0,128.0,41.0,-115.0,-55.0,127.0,127.0,127.0,123.0,89.0,-109.0
127.0,127.0,127.0,127.0,127.0,127.0,106.0,128.0,41.0,-115.0,-55.0,127.0,127.0,127.0,123.0,89.0,-109.0
127.0,127.0,127.0,127.0,127.0,127.0,107.0,128.0,41.0,-115.0,-55.0,127.0,127.0,127.0,123.0,89.0,-109.0
127.0,126.0,127.0,126.0,126.0,127.0,112.0,127.0,41.0,-115.0,-55.0,127.0,127.0,127.0,123.0,89.0,-109.0
127.0,126.0,127.0,126.0,127.0,127.0,112.0,127.0,41.0,-115.0,-55.0,127.0,127.0,127.0,123.0,89.0,-109.0
127.0,127.0,127.0,126.0,127.0,127.0,113.0,128.0,41.0,-115.0,-55.0,127.0,127.0,127.0,123.0,89.0,-109.0
127.0,127.0,127.0,126.0,127.0,127.0,113.0,128.0,41.0,-115.0,-55.0,127.0,127.0,127.0,123.0,89.0,-109.0
127.0,127.0,127.0,126.0,127.0,127.0,113.0,127.0,41.0,-115.0,-55.0,127.0,127.0,127.0,123.0,89.0,-109.0
127.0,127.0,127.0,127.0,127.0,127.0,113.0,128.0,41.0,-115.0,-55.0,127.0,127.0,127.0,123.0,89.0,-109.0
127.0,127.0,127.0,127.0,127.0,127.0,113.0,128.0,41.0,-114.0,-55.0,127.0,127.0,127.0,123.0,89.0,-109.0
127.0,127.0,127.0,127.0,127.0,127.0,109.0,128.0,41.0,-114.0,-55.0,127.0,127.0,127.0,123.0,89.0,-109.0
127.0,128.0,127.0,128.0,127.0,127.0,108.0,128.0,41.0,-114.0,-55.0,127.0,127.0,127.0,123.0,89.0,-109.0
127.0,127.0,127.0,126.0,126.0,126.0,113.0,127.0,41.0,-114.0,-55.0,127.0,127.0,127.0,123.0,89.0,-109.0
127.0,127.0,128.0,126.0,126.0,127.0,112.0,128.0,41.0,-114.0,-55.0,127.0,127.0,127.0,123.0,89.0,-109.0
127.0,127.0,128.0,126.0,126.0,127.0,113.0,127.0,41.0,-114.0,-55.0,127.0,127.0,127.0,123.0,89.0,-109.0
127.0,127.0,128.0,127.0,127.0,127.0,113.0,128.0,41.0,-114.0,-55.0,127.0,127.0,127.0,123.0,89.0,-109.0
127.0,127.0,127.0,127.0,127.0,127.0,113.0,127.0,41.0,-114.0,-55.0,127.0,127.0,127.0,123.0,89.0,-109.0
127.0,127.0,128.0,127.0,127.0,127.0,113.0,128.0,41.0,-114.0,-55.0,127.0,127.0,127.0,123.0,89.0,-109.0
127.0,127.0,127.0,127.0,127.0,127.0,112.0,128.0,41.0,-114.0,-55.0,127.0,127.0,127.0,123.0,89.0,-109.0
127.0,127.0,127.0,127.0,127.0,127.0,113.0,128.0,41.0,-114.0,-56.0,127.0,127.0,127.0,123.0,89.0,-109.0
127.0,127.0,127.0,127.0,127.0,127.0,113.0,128.0,41.0,-114.0,-56.0,127.0,127.0,127.0,123.0,89.0,-109.0
127.0,126.0,127.0,126.0,126.0,126.0,112.0,127.0,41.0,-114.0,-56.0,127.0,127.0,127.0,123.0,89.0,-109.0
127.0,126.0,127.0,126.0,126.0,126.0,112.0,128.0,41.0,-114.0,-56.0,127.0,127.0,127.0,123.0,89.0,-109.0
127.0,126.0,127.0,126.0,126.0,127.0,112.0,128.0,41.0,-114.0,-56.0,127.0,127.0,127.0,123.0,89.0,-109.0
127.0,127.0,127.0,126.0,126.0,127.0,112.0,128.0,41.0,-114.0,-56.0,127.0,127.0,127.0,123.0,89.0,-109.0
127.0,127.0,127.0,126.0,126.0,127.0,112.0,128.0,41.0,-114.0,-56.0,127.0,127.0,127.0,123.0,89.0,-109.0
127.0,127.0,127.0,126.0,127.0,126.0,112.0,128.0,41.0,-114.0,-56.0,127.0,127.0,127.0,123.0,89.0,-109.0
127.0,127.0,127.0,126.0,127.0,127.0,112.0,128.0,41.0,-114.0,-56.0,127.0,127.0,127.0,123.0,89.0,-109.0
127.0,127.0,127.0,126.0,127.0,127.0,113.0,128.0,41.0,-114.0,-56.0,127.0,127.0,127.0,123.0,89.0,-109.0
127.0,127.0,127.0,127.0,127.0,127.0,110.0,128.0,41.0,-114.0,-56.0,127.0,127.0,127.0,123.0,89.0,-109.0
126.0,126.0,128.0,127.0,127.0,126.0,112.0,127.0,41.0,-114.0,-56.0,127.0,127.0,127.0,123.0,89.0,-109.0
126.0,126.0,127.0,127.0,127.0,126.0,113.0,127.0,41.0,-114.0,-56.0,127.0,127.0,127.0,123.0,89.0,-109.0
126.0,126.0,127.0,127.0,127.0,127.0,112.0,127.0,41.0,-114.0,-56.0,127.0,127.0,127.0,123.0,89.0,-109.0
126.0,126.0,127.0,127.0,127.0,127.0,112.0,128.0,41.0,-114.0,-56.0,127.0,127.0,127.0,123.0,89.0,-109.0
127.0,126.0,127.0,127.0,127.0,127.0,112.0,128.0,41.0,-114.0,-56.0,127.0,127.0,127.0,123.0,89.0,-109.0
127.0,127.0,127.0,127.0,127.0,127.0,112.0,128.0,41.0,-114.0,-56.0,127.0,127.0,127.0,123.0,89.0,-109.0
127.0,127.0,127.0,127.0,127.0,127.0,112.0,128.0,41.0,-114.0,-56.0,127.0,127.0,127.0,123.0,89.0,-109.0
127.0,127.0,127.0,127.0,127.0,127.0,113.0,128.0,41.0,-114.0,-56.0,127.0,127.0,127.0,123.0,89.0,-109.0
127.0,127.0,127.0,127.0,127.0,127.0,113.0,128.0,41.0,-114.0,-56.0,127.0,127.0,127.0,123.0,89.0,-109.0
127.0,126.0,127.0,127.0,126.0,127.0,112.0,127.0,41.0,-114.0,-56.0,127.0,127.0,127.0,123.0,89.0,-109.0
127.0,126.0,127.0,127.0,126.0,127.0,113.0,127.0,41.0,-114.0,-56.0,127.0,127.0,127.0,123.0,89.0,-109.0
127.0,126.0,127.0,127.0,126.0,127.0,113.0,128.0,41.0,-114.0,-56.0,127.0,127.0,127.0,123.0,89.0,-109.0
127.0,126.0,127.0,127.0,126.0,127.0,113.0,127.0,41.0,-114.0,-56.0,127.0,127.0,127.0,123.0,89.0,-109.0
127.0,126.0,127.0,127.0,126.0,127.0,113.0,128.0,41.0,-114.0,-56.0,127.0,127.0,127.0,123.0,89.0,-109.0
127.0,127.0,127.0,127.0,126.0,127.0,112.0,128.0,41.0,-114.0,-56.0,127.0,127.0,127.0,123.0,89.0,-109.0
127.0,127.0,127.0,127.0,127.0,127.0,109.0,128.0,41.0,-114.0,-56.0,127.0,127.0,127.0,123.0,89.0,-109.0
127.0,127.0,127.0,127.0,127.0,127.0,107.0,128.0,41.0,-114.0,-56.0,127.0,127.0,127.0,123.0,89.0,-109.0
126.0,127.0,127.0,127.0,127.0,127.0,110.0,128.0,41.0,-114.0,-56.0,127.0,127.0,127.0,123.0,89.0,-109.0
127.0,127.0,127.0,127.0,127.0,127.0,113.0,128.0,41.0,-114.0,-56.0,127.0,127.0,127.0,123.0,89.0,-109.0
127.0,127.0,127.0,127.0,127.0,127.0,113.0,127.0,41.0,-114.0,-56.0,127.0,127.0,127.0,123.0,89.0,-109.0
127.0,127.0,127.0,127.0,127.0,127.0,113.0,127.0,41.0,-114.0,-56.0,127.0,127.0,127.0,123.0,89.0,-109.0
127.0,127.0,127.0,127.0,127.0,127.0,113.0,128.0,41.0,-114.0,-56.0,127.0,127.0,127.0,123.0,89.0,-109.0
127.0,127.0,127.0,127.0,127.0,127.0,113.0,128.0,41.0,-114.0,-56.0,127.0,127.0,127.0,123.0,89.0,-109.0
127.0,127.0,127.0,127.0,127.0,127.0,110.0,128.0,41.0,-114.0,-56.0,127.0,127.0,127.0,123.0,89.0,-109.0
127.0,127.0,127.0,128.0,127.0,127.0,107.0,128.0,41.0,-114.0,-56.0,127.0,127.0,127.0,123.0,89.0,-109.0
127.0,127.0,127.0,128.0,127.0,127.0,106.0,128.0,41.0,-114.0,-56.0,127.0,127.0,127.0,123.0,89.0,-109.0
127.0,127.0,127.0,128.0,127.0,127.0,106.0,128.0,41.0,-114.0,-56.0,127.0,127.0,127.0,123.0,89.0,-109.0
127.0,127.0,127.0,128.0,127.0,127.0,107.0,128.0,41.0,-114.0,-56.0,127.0,127.0,127.0,123.0,89.0,-109.0
127.0,127.0,127.0,127.0,127.0,127.0,113.0,127.0,41.0,-114.0,-56.0,127.0,127.0,127.0,123.0,89.0,-109.0
127.0,127.0,127.0,127.0,127.0,127.0,113.0,127.0,41.0,-114.0,-55.0,127.0,127.0,127.0,123.0,89.0,-109.0
127.0,127.0,127.0,127.0,127.0,127.0,112.0,127.0,41.0,-114.0,-55.0,127.0,127.0,127.0,123.0,89.0,-109.0
127.0,127.0,127.0,127.0,127.0,127.0,112.0,127.0,41.0,-114.0,-55.0,127.0,127.0,127.0,123.0,89.0,-109.0
127.0,127.0,127.0,127.0,127.0,127.0,113.0,128.0,41.0,-114.0,-55.0,127.0,127.0,127.0,123.0,89.0,-109.0
127.0,127.0,127.0,127.0,127.0,127.0,110.0,128.0,41.0,-114.0,-55.0,127.0,127.0,127.0,123.0,89.0,-109.0
127.0,127.0,127.0,127.0,127.0,127.0,112.0,128.0,41.0,-114.0,-55.0,127.0,127.0,127.0,123.0,89.0,-109.0
127.0,127.0,127.0,127.0,127.0,127.0,108.0,128.0,41.0,-114.0,-55.0,127.0,127.0,127.0,123.0,89.0,-109.0
127.0,127.0,127.0,127.0,127.0,127.0,107.0,128.0,41.0,-114.0,-55.0,127.0,127.0,127.0,123.0,89.0,-109.0
127.0,127.0,128.0,126.0,127.0,127.0,112.0,127.0,41.0,-114.0,-55.0,127.0,127.0,127.0,123.0,89.0,-109.0
127.0,127.0,128.0,127.0,127.0,127.0,112.0,128.0,41.0,-114.0,-55.0,127.0,127.0,127.0,123.0,89.0,-109.0
127.0,127.0,127.0,126.0,127.0,126.0,112.0,127.0,41.0,-114.0,-55.0,127.0,127.0,127.0,123.0,89.0,-109.0
127.0,127.0,127.0,126.0,127.0,127.0,112.0,127.0,41.0,-114.0,-55.0,127.0,127.0,127.0,123.0,89.0,-109.0
127.0,127.0,127.0,126.0,127.0,127.0,112.0,127.0,41.0,-114.0,-55.0,127.0,127.0,127.0,123.0,89.0,-109.0
127.0,127.0,127.0,127.0,127.0,127.0,112.0,127.0,41.0,-114.0,-55.0,127.0,127.0,127.0,123.0,89.0,-109.0
127.0,127.0,127.0,127.0,127.0,127.0,113.0,128.0,41.0,-114.0,-55.0,127.0,127.0,127.0,123.0,89.0,-109.0
127.0,127.0,127.0,127.0,127.0,127.0,112.0,128.0,41.0,-114.0,-55.0,127.0,127.0,127.0,123.0,89.0,-109.0
127.0,127.0,127.0,127.0,127.0,127.0,107.0,128.0,41.0,-114.0,-55.0,127.0,127.0,127.0,123.0,89.0,-109.0
127.0,126.0,127.0,126.0,126.0,126.0,113.0,127.0,41.0,-114.0,-55.0,127.0,127.0,127.0,123.0,89.0,-109.0
127.0,126.0,127.0,126.0,126.0,126.0,113.0,127.0,41.0,-114.0,-55.0,127.0,127.0,127.0,123.0,89.0,-109.0
127.0,127.0,127.0,126.0,126.0,127.0,112.0,127.0,41.0,-114.0,-55.0,127.0,127.0,127.0,123.0,89.0,-109.0
127.0,127.0,127.0,127.0,127.0,127.0,112.0,127.0,41.0,-114.0,-55.0,127.0,127.0,127.0,123.0,90.0,-109.0
127.0,127.0,127.0,127.0,127.0,127.0,113.0,127.0,41.0,-114.0,-55.0,127.0,127.0,127.0,123.0,90.0,-109.0
127.0,127.0,127.0,127.0,127.0,127.0,113.0,127.0,41.0,-114.0,-55.0,127.0,127.0,127.0,123.0,90.0,-109.0
127.0,127.0,127.0,127.0,127.0,127.0,113.0,127.0,41.0,-114.0,-55.0,127.0,127.0,127.0,123.0,90.0,-109.0
127.0,127.0,127.0,127.0,127.0,127.0,113.0,128.0,41.0,-114.0,-55.0,127.0,127.0,127.0,123.0,90.0,-109.0
127.0,127.0,127.0,127.0,127.0,127.0,109.0,128.0,41.0,-114.0,-55.0,127.0,127.0,127.0,123.0,90.0,-109.0
127.0,126.0,128.0,126.0,127.0,127.0,113.0,127.0,41.0,-114.0,-55.0,127.0,127.0,127.0,123.0,90.0,-109.0
127.0,126.0,128.0,127.0,127.0,127.0,113.0,127.0,41.0,-114.0,-55.0,127.0,127.0,127.0,123.0,90.0,-109.0
127.0,126.0,127.0,127.0,127.0,127.0,113.0,127.0,41.0,-114.0,-55.0,127.0,127.0,127.0,123.0,90.0,-109.0
127.0,127.0,127.0,127.0,127.0,127.0,112.0,127.0,41.0,-114.0,-55.0,127.0,127.0,127.0,123.0,90.0,-109.0
127.0,127.0,127.0,126.0,127.0,127.0,112.0,128.0,41.0,-114.0,-55.0,127.0,127.0,127.0,123.0,90.0,-109.0
127.0,127.0,127.0,126.0,127.0,127.0,113.0,128.0,41.0,-114.0,-55.0,127.0,127.0,127.0,123.0,90.0,-109.0
127.0,127.0,127.0,126.0,127.0,127.0,113.0,128.0,41.0,-114.0,-55.0,127.0,127.0,127.0,123.0,90.0,-109.0
127.0,127.0,127.0,127.0,127.0,127.0,114.0,128.0,41.0,-114.0,-55.0,127.0,127.0,127.0,123.0,90.0,-109.0
127.0,127.0,126.0,127.0,127.0,127.0,109.0,128.0,41.0,-114.0,-55.0,127.0,127.0,127.0,123.0,90.0,-109.0
127.0,126.0,127.0,125.0,126.0,126.0,112.0,127.0,41.0,-114.0,-55.0,127.0,127.0,127.0,123.0,90.0,-109.0
127.0,126.0,127.0,125.0,126.0,126.0,112.0,127.0,41.0,-114.0,-55.0,127.0,127.0,127.0,123.0,90.0,-109.0
127.0,127.0,127.0,126.0,126.0,126.0,112.0,128.0,41.0,-114.0,-55.0,127.0,127.0,127.0,123.0,90.0,-109.0
127.0,127.0,127.0,126.0,127.0,126.0,112.0,127.0,41.0,-114.0,-55.0,127.0,127.0,127.0,123.0,90.0,-109.0
127.0,127.0,127.0,126.0,127.0,127.0,112.0,128.0,41.0,-114.0,-55.0,127.0,127.0,127.0,123.0,90.0,-109.0
127.0,127.0,127.0,126.0,127.0,127.0,113.0,128.0,41.0,-114.0,-55.0,127.0,127.0,127.0,123.0,90.0,-109.0
126.0,127.0,127.0,126.0,127.0,127.0,113.0,128.0,41.0,-114.0,-55.0,127.0,127.0,127.0,123.0,90.0,-109.0
127.0,127.0,127.0,126.0,127.0,127.0,113.0,128.0,41.0,-114.0,-55.0,127.0,127.0,127.0,123.0,90.0,-109.0
127.0,127.0,127.0,126.0,127.0,127.0,108.0,128.0,41.0,-114.0,-55.0,127.0,127.0,127.0,123.0,90.0,-109.0
126.0,126.0,127.0,126.0,126.0,127.0,112.0,127.0,41.0,-114.0,-55.0,127.0,127.0,127.0,123.0,90.0,-109.0
126.0,126.0,127.0,126.0,126.0,127.0,112.0,127.0,41.0,-114.0,-55.0,127.0,127.0,127.0,123.0,90.0,-109.0
126.0,126.0,127.0,126.0,126.0,127.0,112.0,128.0,41.0,-114.0,-55.0,127.0,127.0,127.0,123.0,90.0,-109.0
126.0,127.0,127.0,126.0,127.0,126.0,112.0,127.0,41.0,-114.0,-55.0,127.0,127.0,127.0,123.0,90.0,-109.0
126.0,127.0,127.0,126.0,127.0,127.0,112.0,128.0,41.0,-114.0,-55.0,127.0,127.0,127.0,123.0,90.0,-109.0
126.0,127.0,127.0,126.0,127.0,127.0,112.0,128.0,41.0,-114.0,-55.0,127.0,127.0,127.0,123.0,90.0,-109.0
127.0,127.0,127.0,125.0,127.0,127.0,113.0,128.0,42.0,-114.0,-55.0,127.0,127.0,127.0,123.0,90.0,-109.0
127.0,127.0,127.0,126.0,127.0,127.0,113.0,128.0,42.0,-114.0,-55.0,127.0,127.0,127.0,123.0,90.0,-109.0
127.0,127.0,127.0,126.0,127.0,127.0,112.0,128.0,42.0,-114.0,-55.0,127.0,127.0,127.0,123.0,90.0,-109.0
126.0,126.0,127.0,124.0,126.0,126.0,113.0,127.0,42.0,-114.0,-55.0,127.0,127.0,127.0,123.0,90.0,-109.0
127.0,126.0,127.0,125.0,126.0,127.0,112.0,128.0,42.0,-114.0,-55.0,127.0,127.0,127.0,123.0,90.0,-109.0
126.0,126.0,127.0,125.0,126.0,127.0,112.0,127.0,42.0,-114.0,-55.0,127.0,127.0,127.0,123.0,90.0,-109.0
126.0,126.0,127.0,125.0,126.0,126.0,112.0,127.0,42.0,-114.0,-55.0,127.0,127.0,127.0,123.0,90.0,-109.0
127.0,127.0,127.0,125.0,126.0,127.0,112.0,127.0,42.0,-114.0,-55.0,127.0,127.0,127.0,123.0,90.0,-109.0
127.0,127.0,127.0,125.0,127.0,127.0,112.0,127.0,42.0,-114.0,-55.0,127.0,127.0,127.0,123.0,90.0,-109.0
127.0,127.0,127.0,125.0,127.0,127.0,112.0,128.0,42.0,-114.0,-55.0,127.0,127.0,127.0,123.0,90.0,-109.0
126.0,127.0,127.0,127.0,127.0,127.0,113.0,128.0,42.0,-114.0,-55.0,127.0,127.0,127.0,123.0,90.0,-109.0
126.0,127.0,127.0,127.0,127.0,127.0,107.0,128.0,42.0,-114.0,-55.0,127.0,127.0,127.0,123.0,90.0,-109.0
126.0,126.0,127.0,126.0,126.0,127.0,113.0,128.0,42.0,-114.0,-55.0,127.0,127.0,127.0,123.0,90.0,-109.0
126.0,126.0,127.0,126.0,126.0,127.0,113.0,128.0,42.0,-114.0,-55.0,127.0,127.0,127.0,123.0,90.0,-109.0
126.0,126.0,127.0,126.0,126.0,127.0,113.0,128.0,42.0,-114.0,-55.0,127.0,127.0,127.0,123.0,90.0,-109.0
126.0,126.0,127.0,126.0,126.0,127.0,113.0,128.0,42.0,-114.0,-55.0,127.0,127.0,127.0,123.0,90.0,-109.0
126.0,126.0,127.0,126.0,127.0,127.0,112.0,128.0,42.0,-114.0,-55.0,127.0,127.0,127.0,123.0,90.0,-109.0
126.0,127.0,127.0,126.0,127.0,127.0,109.0,128.0,42.0,-114.0,-55.0,127.0,127.0,127.0,123.0,90.0,-109.0
126.0,127.0,127.0,127.0,127.0,127.0,107.0,128.0,42.0,-114.0,-55.0,127.0,127.0,127.0,123.0,90.0,-109.0
126.0,127.0,127.0,127.0,127.0,127.0,112.0,128.0,42.0,-114.0,-55.0,127.0,127.0,127.0,123.0,90.0,-109.0
126.0,127.0,127.0,127.0,127.0,127.0,109.0,128.0,42.0,-115.0,-55.0,127.0,127.0,127.0,123.0,90.0,-109.0
126.0,126.0,127.0,126.0,126.0,126.0,112.0,127.0,42.0,-115.0,-55.0,127.0,127.0,127.0,123.0,90.0,-109.0
126.0,127.0,127.0,126.0,126.0,126.0,112.0,127.0,42.0,-115.0,-55.0,127.0,127.0,127.0,123.0,90.0,-109.0
126.0,127.0,127.0,126.0,126.0,126.0,113.0,127.0,42.0,-115.0,-55.0,127.0,127.0,127.0,123.0,90.0,-109.0
126.0,127.0,127.0,126.0,126.0,127.0,112.0,127.0,42.0,-115.0,-55.0,127.0,127.0,127.0,123.0,90.0,-109.0
126.0,127.0,127.0,126.0,126.0,127.0,112.0,127.0,42.0,-115.0,-55.0,127.0,127.0,127.0,123.0,90.0,-109.0
126.0,127.0,127.0,126.0,126.0,127.0,113.0,127.0,42.0,-115.0,-55.0,127.0,127.0,127.0,123.0,90.0,-109.0
126.0,127.0,127.0,126.0,126.0,127.0,113.0,127.0,42.0,-115.0,-55.0,127.0,127.0,127.0,123.0,90.0,-109.0
126.0,127.0,127.0,127.0,126.0,127.0,113.0,127.0,42.0,-115.0,-55.0,127.0,127.0,127.0,123.0,90.0,-109.0
126.0,127.0,127.0,127.0,126.0,127.0,113.0,127.0,42.0,-115.0,-55.0,127.0,127.0,127.0,123.0,90.0,-109.0
126.0,126.0,127.0,125.0,126.0,127.0,112.0,127.0,42.0,-115.0,-55.0,127.0,127.0,127.0,123.0,90.0,-109.0
126.0,127.0,127.0,125.0,126.0,126.0,112.0,127.0,42.0,-115.0,-55.0,127.0,127.0,127.0,123.0,90.0,-109.0
126.0,127.0,127.0,125.0,126.0,126.0,112.0,127.0,42.0,-115.0,-55.0,127.0,127.0,127.0,123.0,90.0,-109.0
127.0,127.0,127.0,125.0,126.0,126.0,113.0,127.0,42.0,-115.0,-55.0,127.0,127.0,127.0,123.0,90.0,-109.0
127.0,127.0,127.0,125.0,126.0,127.0,112.0,128.0,42.0,-115.0,-55.0,127.0,127.0,127.0,123.0,90.0,-109.0
126.0,127.0,127.0,125.0,126.0,127.0,112.0,128.0,42.0,-115.0,-55.0,127.0,127.0,127.0,123.0,90.0,-109.0
127.0,127.0,127.0,125.0,126.0,127.0,112.0,128.0,42.0,-115.0,-55.0,127.0,127.0,127.0,123.0,90.0,-109.0
127.0,127.0,127.0,126.0,126.0,127.0,113.0,128.0,42.0,-115.0,-55.0,127.0,127.0,127.0,123.0,90.0,-109.0
127.0,127.0,127.0,126.0,126.0,127.0,113.0,128.0,42.0,-115.0,-55.0,127.0,127.0,127.0,123.0,90.0,-109.0
126.0,127.0,127.0,126.0,126.0,127.0,113.0,128.0,42.0,-115.0,-55.0,127.0,127.0,127.0,123.0,90.0,-109.0
127.0,127.0,127.0,126.0,127.0,126.0,112.0,127.0,41.0,-115.0,-55.0,127.0,127.0,127.0,123.0,90.0,-109.0
127.0,127.0,127.0,127.0,127.0,126.0,112.0,127.0,41.0,-115.0,-55.0,127.0,127.0,127.0,123.0,90.0,-109.0
127.0,127.0,127.0,127.0,127.0,126.0,112.0,128.0,41.0,-115.0,-55.0,127.0,127.0,127.0,123.0,90.0,-109.0
127.0,127.0,127.0,127.0,127.0,127.0,112.0,128.0,41.0,-115.0,-55.0,127.0,127.0,127.0,123.0,90.0,-109.0
127.0,127.0,127.0,127.0,127.0,127.0,112.0,128.0,41.0,-115.0,-55.0,127.0,127.0,127.0,123.0,90.0,-109.0
127.0,127.0,128.0,127.0,127.0,127.0,112.0,128.0,41.0,-115.0,-55.0,127.0,127.0,127.0,123.0,90.0,-109.0
127.0,127.0,128.0,127.0,127.0,127.0,113.0,128.0,41.0,-115.0,-55.0,127.0,127.0,127.0,123.0,90.0,-109.0
127.0,127.0,128.0,127.0,127.0,127.0,113.0,128.0,41.0,-115.0,-55.0,127.0,127.0,127.0,123.0,90.0,-109.0
127.0,127.0,128.0,128.0,127.0,127.0,112.0,128.0,41.0,-115.0,-55.0,127.0,127.0,127.0,123.0,90.0,-109.0
127.0,126.0,127.0,126.0,127.0,126.0,112.0,127.0,41.0,-115.0,-55.0,127.0,127.0,127.0,123.0,90.0,-109.0
127.0,127.0,127.0,126.0,127.0,126.0,113.0,127.0,41.0,-115.0,-55.0,127.0,127.0,127.0,123.0,90.0,-109.0
127.0,127.0,127.0,126.0,127.0,126.0,113.0,127.0,41.0,-115.0,-55.0,127.0,127.0,127.0,123.0,90.0,-109.0
127.0,127.0,127.0,127.0,127.0,127.0,112.0,127.0,41.0,-115.0,-55.0,127.0,127.0,127.0,123.0,90.0,-109.0
127.0,127.0,127.0,127.0,127.0,127.0,112.0,128.0,41.0,-115.0,-55.0,127.0,127.0,127.0,123.0,90.0,-109.0
127.0,127.0,127.0,127.0,127.0,127.0,113.0,128.0,41.0,-115.0,-55.0,127.0,127.0,127.0,123.0,90.0,-109.0
127.0,127.0,127.0,127.0,127.0,127.0,113.0,128.0,41.0,-115.0,-55.0,127.0,127.0,127.0,123.0,90.0,-109.0
127.0,127.0,127.0,127.0,127.0,127.0,112.0,128.0,41.0,-115.0,-55.0,127.0,127.0,127.0,123.0,90.0,-109.0
127.0,127.0,127.0,127.0,127.0,127.0,111.0,128.0,41.0,-115.0,-55.0,127.0,127.0,127.0,123.0,90.0,-109.0
127.0,127.0,127.0,127.0,127.0,127.0,107.0,128.0,41.0,-115.0,-55.0,127.0,127.0,127.0,123.0,90.0,-109.0
127.0,126.0,127.0,126.0,126.0,126.0,112.0,127.0,41.0,-115.0,-55.0,127.0,127.0,127.0,123.0,90.0,-109.0
127.0,127.0,128.0,127.0,127.0,126.0,112.0,127.0,41.0,-115.0,-55.0,127.0,127.0,127.0,123.0,90.0,-109.0
127.0,127.0,128.0,127.0,127.0,127.0,112.0,128.0,41.0,-115.0,-55.0,127.0,127.0,127.0,123.0,90.0,-109.0
127.0,127.0,128.0,127.0,127.0,127.0,112.0,128.0,41.0,-115.0,-55.0,127.0,127.0,127.0,123.0,90.0,-109.0
127.0,127.0,128.0,127.0,127.0,127.0,112.0,128.0,41.0,-115.0,-55.0,127.0,127.0,127.0,123.0,90.0,-109.0
127.0,127.0,128.0,128.0,127.0,127.0,113.0,128.0,41.0,-115.0,-55.0,127.0,127.0,127.0,123.0,90.0,-109.0
127.0,127.0,128.0,128.0,127.0,127.0,111.0,128.0,41.0,-115.0,-55.0,127.0,127.0,127.0,123.0,90.0,-109.0
127.0,127.0,127.0,128.0,127.0,127.0,110.0,128.0,41.0,-115.0,-55.0,127.0,127.0,127.0,123.0,90.0,-109.0
127.0,127.0,127.0,128.0,127.0,127.0,107.0,128.0,41.0,-115.0,-55.0,127.0,127.0,127.0,123.0,90.0,-109.0
127.0,126.0,128.0,126.0,127.0,126.0,112.0,127.0,41.0,-115.0,-55.0,127.0,127.0,127.0,123.0,90.0,-109.0
127.0,127.0,128.0,127.0,127.0,126.0,112.0,127.0,41.0,-115.0,-55.0,127.0,127.0,127.0,123.0,90.0,-109.0
127.0,127.0,127.0,126.0,127.0,127.0,112.0,128.0,41.0,-115.0,-55.0,127.0,127.0,127.0,123.0,90.0,-109.0
127.0,127.0,127.0,126.0,127.0,127.0,112.0,128.0,41.0,-115.0,-55.0,127.0,127.0,127.0,123.0,90.0,-109.0
127.0,127.0,127.0,126.0,127.0,127.0,112.0,128.0,41.0,-115.0,-55.0,127.0,127.0,127.0,123.0,90.0,-109.0
127.0,127.0,127.0,126.0,127.0,127.0,113.0,128.0,41.0,-115.0,-55.0,127.0,127.0,127.0,123.0,90.0,-109.0
127.0,127.0,127.0,126.0,127.0,127.0,114.0,128.0,41.0,-115.0,-55.0,127.0,127.0,127.0,123.0,90.0,-109.0
127.0,127.0,127.0,126.0,127.0,127.0,112.0,128.0,41.0,-115.0,-55.0,127.0,127.0,127.0,123.0,90.0,-109.0
127.0,127.0,127.0,126.0,127.0,127.0,108.0,128.0,41.0,-115.0,-55.0,127.0,127.0,127.0,123.0,90.0,-109.0
127.0,126.0,127.0,126.0,127.0,126.0,112.0,127.0,41.0,-115.0,-55.0,127.0,127.0,127.0,123.0,90.0,-109.0
127.0,127.0,127.0,126.0,127.0,126.0,112.0,127.0,41.0,-115.0,-55.0,127.0,127.0,127.0,123.0,90.0,-109.0
127.0,127.0,127.0,126.0,127.0,126.0,113.0,127.0,41.0,-115.0,-55.0,127.0,127.0,127.0,123.0,90.0,-109.0
127.0,127.0,127.0,127.0,127.0,127.0,112.0,128.0,41.0,-115.0,-55.0,127.0,127.0,127.0,123.0,90.0,-109.0
127.0,127.0,127.0,127.0,127.0,127.0,112.0,128.0,41.0,-115.0,-55.0,127.0,127.0,127.0,123.0,90.0,-109.0
127.0,127.0,127.0,127.0,127.0,127.0,112.0,128.0,41.0,-115.0,-55.0,127.0,127.0,127.0,123.0,90.0,-109.0
127.0,127.0,127.0,127.0,127.0,127.0,113.0,128.0,41.0,-115.0,-55.0,127.0,127.0,127.0,123.0,90.0,-109.0
127.0,127.0,127.0,127.0,127.0,127.0,113.0,128.0,41.0,-115.0,-55.0,127.0,127.0,127.0,123.0,90.0,-109.0
127.0,127.0,127.0,128.0,127.0,127.0,113.0,128.0,41.0,-115.0,-55.0,127.0,127.0,127.0,123.0,90.0,-109.0
127.0,126.0,127.0,126.0,127.0,126.0,112.0,128.0,41.0,-115.0,-55.0,127.0,127.0,127.0,123.0,90.0,-109.0
127.0,127.0,127.0,127.0,127.0,126.0,112.0,127.0,41.0,-115.0,-55.0,127.0,127.0,127.0,123.0,90.0,-109.0
127.0,127.0,127.0,127.0,127.0,126.0,112.0,128.0,41.0,-115.0,-55.0,127.0,127.0,127.0,123.0,90.0,-109.0
127.0,127.0,127.0,127.0,127.0,126.0,112.0,128.0,41.0,-115.0,-55.0,127.0,127.0,127.0,123.0,90.0,-109.0
127.0,127.0,128.0,127.0,127.0,127.0,112.0,127.0,41.0,-115.0,-55.0,127.0,127.0,127.0,123.0,90.0,-109.0
127.0,127.0,128.0,127.0,127.0,127.0,113.0,127.0,41.0,-115.0,-55.0,127.0,127.0,127.0,123.0,90.0,-109.0
127.0,127.0,128.0,127.0,127.0,127.0,113.0,127.0,41.0,-115.0,-55.0,127.0,127.0,127.0,123.0,90.0,-109.0
127.0,127.0,127.0,127.0,127.0,127.0,109.0,128.0,41.0,-115.0,-55.0,127.0,127.0,127.0,123.0,90.0,-109.0
127.0,127.0,127.0,127.0,127.0,127.0,106.0,128.0,41.0,-115.0,-55.0,127.0,127.0,127.0,123.0,90.0,-109.0
126.0,126.0,127.0,126.0,126.0,127.0,112.0,127.0,41.0,-115.0,-55.0,127.0,127.0,127.0,123.0,90.0,-109.0
126.0,126.0,128.0,126.0,126.0,127.0,113.0,127.0,41.0,-115.0,-55.0,127.0,127.0,127.0,123.0,90.0,-109.0
126.0,126.0,128.0,126.0,127.0,127.0,113.0,127.0,41.0,-115.0,-55.0,127.0,127.0,127.0,123.0,90.0,-109.0
127.0,126.0,128.0,127.0,127.0,127.0,113.0,127.0,41.0,-115.0,-55.0,127.0,127.0,127.0,123.0,90.0,-109.0
127.0,127.0,127.0,127.0,127.0,127.0,113.0,127.0,41.0,-115.0,-55.0,127.0,127.0,127.0,123.0,90.0,-109.0
127.0,127.0,127.0,127.0,127.0,127.0,113.0,128.0,41.0,-115.0,-55.0,127.0,127.0,127.0,123.0,90.0,-109.0
127.0,127.0,127.0,127.0,127.0,127.0,109.0,127.0,41.0,-115.0,-55.0,127.0,127.0,127.0,123.0,90.0,-109.0
127.0,127.0,127.0,127.0,127.0,127.0,106.0,128.0,41.0,-115.0,-55.0,127.0,127.0,127.0,123.0,90.0,-109.0
127.0,127.0,127.0,127.0,127.0,127.0,106.0,128.0,41.0,-115.0,-55.0,127.0,127.0,127.0,123.0,90.0,-109.0
126.0,126.0,128.0,127.0,126.0,126.0,113.0,127.0,41.0,-115.0,-55.0,127.0,127.0,127.0,123.0,90.0,-109.0
126.0,126.0,128.0,127.0,126.0,127.0,112.0,127.0,41.0,-115.0,-55.0,127.0,127.0,127.0,123.0,90.0,-109.0
127.0,127.0,128.0,127.0,126.0,127.0,112.0,127.0,41.0,-115.0,-55.0,127.0,127.0,127.0,123.0,90.0,-109.0
127.0,127.0,128.0,127.0,126.0,127.0,112.0,127.0,41.0,-115.0,-55.0,127.0,127.0,127.0,123.0,90.0,-109.0
126.0,127.0,128.0,127.0,127.0,127.0,113.0,127.0,41.0,-115.0,-55.0,127.0,127.0,127.0,123.0,90.0,-109.0
126.0,127.0,128.0,127.0,127.0,127.0,113.0,127.0,41.0,-115.0,-55.0,127.0,127.0,127.0,123.0,90.0,-109.0
127.0,127.0,127.0,127.0,127.0,127.0,107.0,128.0,41.0,-115.0,-55.0,127.0,127.0,127.0,123.0,90.0,-109.0
127.0,127.0,127.0,127.0,127.0,127.0,106.0,128.0,41.0,-115.0,-55.0,127.0,127.0,127.0,123.0,90.0,-109.0
127.0,127.0,127.0,127.0,127.0,127.0,106.0,128.0,41.0,-115.0,-55.0,127.0,127.0,127.0,123.0,90.0,-109.0
127.0,126.0,127.0,126.0,126.0,127.0,112.0,127.0,41.0,-115.0,-55.0,127.0,127.0,127.0,123.0,90.0,-109.0
127.0,126.0,127.0,126.0,126.0,127.0,112.0,127.0,41.0,-115.0,-55.0,127.0,127.0,127.0,123.0,90.0,-109.0
127.0,126.0,127.0,126.0,126.0,127.0,113.0,127.0,41.0,-115.0,-55.0,127.0,127.0,127.0,123.0,90.0,-109.0
127.0,126.0,127.0,126.0,126.0,127.0,113.0,127.0,41.0,-115.0,-55.0,127.0,127.0,127.0,123.0,90.0,-109.0
127.0,126.0,127.0,127.0,126.0,127.0,113.0,128.0,41.0,-115.0,-55.0,127.0,127.0,127.0,123.0,90.0,-109.0
127.0,126.0,127.0,127.0,127.0,127.0,112.0,128.0,41.0,-115.0,-55.0,127.0,127.0,127.0,123.0,90.0,-109.0
127.0,127.0,127.0,127.0,127.0,127.0,110.0,128.0,41.0,-115.0,-55.0,127.0,127.0,127.0,123.0,90.0,-109.0
126.0,127.0,127.0,127.0,126.0,127.0,110.0,128.0,41.0,-115.0,-55.0,127.0,127.0,127.0,123.0,90.0,-109.0
126.0,127.0,127.0,127.0,127.0,127.0,107.0,128.0,41.0,-115.0,-55.0,127.0,127.0,127.0,123.0,90.0,-109.0
126.0,126.0,127.0,126.0,126.0,126.0,112.0,127.0,41.0,-115.0,-55.0,127.0,127.0,127.0,123.0,90.0,-109.0
126.0,126.0,127.0,126.0,126.0,126.0,112.0,127.0,41.0,-115.0,-55.0,127.0,127.0,127.0,123.0,90.0,-109.0
126.0,126.0,127.0,126.0,126.0,127.0,112.0,127.0,41.0,-115.0,-55.0,127.0,127.0,127.0,123.0,90.0,-109.0
126.0,126.0,127.0,126.0,126.0,127.0,112.0,127.0,41.0,-115.0,-55.0,127.0,127.0,127.0,123.0,90.0,-109.0
126.0,126.0,127.0,126.0,126.0,127.0,112.0,128.0,41.0,-115.0,-55.0,127.0,127.0,127.0,123.0,90.0,-109.0
126.0,126.0,127.0,127.0,126.0,127.0,113.0,128.0,41.0,-115.0,-55.0,127.0,127.0,127.0,123.0,90.0,-109.0
126.0,127.0,127.0,127.0,126.0,127.0,113.0,128.0,41.0,-115.0,-55.0,127.0,127.0,127.0,123.0,90.0,-109.0
126.0,127.0,127.0,127.0,126.0,127.0,113.0,128.0,41.0,-115.0,-55.0,127.0,127.0,127.0,123.0,90.0,-109.0
127.0,127.0,127.0,127.0,127.0,127.0,106.0,128.0,41.0,-115.0,-55.0,127.0,127.0,127.0,123.0,90.0,-109.0
127.0,127.0,127.0,126.0,127.0,126.0,112.0,127.0,41.0,-115.0,-55.0,127.0,127.0,127.0,123.0,90.0,-109.0
127.0,127.0,127.0,126.0,127.0,127.0,113.0,127.0,41.0,-115.0,-55.0,127.0,127.0,127.0,123.0,90.0,-109.0
127.0,127.0,127.0,126.0,127.0,127.0,112.0,127.0,41.0,-115.0,-55.0,127.0,127.0,127.0,123.0,90.0,-109.0
127.0,127.0,127.0,126.0,127.0,127.0,112.0,127.0,41.0,-115.0,-55.0,127.0,127.0,127.0,123.0,90.0,-109.0
127.0,127.0,127.0,126.0,127.0,127.0,112.0,128.0,41.0,-115.0,-55.0,127.0,127.0,127.0,123.0,90.0,-109.0
127.0,127.0,127.0,126.0,127.0,127.0,113.0,128.0,41.0,-115.0,-55.0,127.0,127.0,127.0,123.0,90.0,-109.0
127.0,127.0,127.0,126.0,127.0,127.0,112.0,128.0,41.0,-115.0,-55.0,127.0,127.0,127.0,123.0,90.0,-109.0
127.0,127.0,127.0,126.0,127.0,127.0,109.0,128.0,41.0,-115.0,-55.0,127.0,127.0,127.0,123.0,90.0,-109.0
127.0,127.0,127.0,127.0,127.0,127.0,107.0,128.0,41.0,-115.0,-55.0,127.0,127.0,127.0,123.0,90.0,-109.0
127.0,126.0,127.0,126.0,127.0,126.0,112.0,127.0,41.0,-115.0,-55.0,127.0,127.0,127.0,123.0,90.0,-109.0
127.0,126.0,127.0,126.0,127.0,126.0,113.0,127.0,41.0,-115.0,-55.0,127.0,127.0,127.0,123.0,90.0,-109.0
127.0,126.0,127.0,126.0,127.0,127.0,112.0,127.0,41.0,-115.0,-55.0,127.0,127.0,127.0,123.0,90.0,-109.0
127.0,126.0,127.0,126.0,127.0,126.0,112.0,127.0,41.0,-115.0,-55.0,127.0,127.0,127.0,123.0,90.0,-109.0
127.0,127.0,127.0,126.0,127.0,127.0,112.0,127.0,41.0,-115.0,-55.0,127.0,127.0,127.0,123.0,90.0,-109.0
127.0,127.0,127.0,126.0,127.0,127.0,113.0,127.0,41.0,-115.0,-55.0,127.0,127.0,127.0,123.0,90.0,-109.0
127.0,127.0,127.0,126.0,127.0,127.0,113.0,127.0,41.0,-115.0,-55.0,127.0,127.0,127.0,123.0,90.0,-109.0
127.0,127.0,127.0,126.0,127.0,127.0,113.0,128.0,41.0,-115.0,-55.0,127.0,127.0,127.0,123.0,90.0,-109.0
127.0,127.0,127.0,126.0,127.0,127.0,112.0,128.0,41.0,-115.0,-55.0,127.0,127.0,127.0,123.0,90.0,-109.0
127.0,127.0,127.0,126.0,127.0,127.0,107.0,128.0,41.0,-115.0,-55.0,127.0,127.0,127.0,123.0,90.0,-109.0
127.0,127.0,127.0,127.0,127.0,126.0,113.0,127.0,41.0,-115.0,-55.0,127.0,127.0,127.0,123.0,90.0,-109.0
127.0,127.0,127.0,127.0,127.0,127.0,112.0,128.0,41.0,-115.0,-55.0,127.0,127.0,127.0,123.0,90.0,-109.0
127.0,127.0,127.0,127.0,127.0,127.0,112.0,128.0,41.0,-115.0,-55.0,127.0,127.0,127.0,123.0,90.0,-109.0
127.0,127.0,127.0,127.0,127.0,127.0,112.0,128.0,41.0,-115.0,-55.0,127.0,127.0,127.0,123.0,90.0,-109.0
127.0,127.0,127.0,127.0,127.0,127.0,112.0,128.0,41.0,-115.0,-55.0,127.0,127.0,127.0,123.0,90.0,-109.0
127.0,127.0,127.0,127.0,127.0,127.0,113.0,128.0,41.0,-115.0,-55.0,127.0,127.0,127.0,123.0,90.0,-109.0
127.0,127.0,127.0,127.0,127.0,127.0,113.0,128.0,41.0,-115.0,-55.0,127.0,127.0,127.0,123.0,90.0,-109.0
127.0,127.0,127.0,128.0,127.0,127.0,113.0,128.0,41.0,-115.0,-55.0,127.0,127.0,127.0,123.0,90.0,-109.0
127.0,127.0,127.0,128.0,127.0,127.0,112.0,128.0,41.0,-115.0,-55.0,127.0,127.0,127.0,123.0,90.0,-109.0
127.0,127.0,127.0,127.0,127.0,126.0,112.0,127.0,41.0,-115.0,-55.0,127.0,127.0,127.0,123.0,90.0,-109.0
127.0,126.0,127.0,126.0,126.0,126.0,112.0,128.0,41.0,-114.0,-56.0,127.0,127.0,127.0,123.0,90.0,-109.0
127.0,126.0,127.0,126.0,126.0,126.0,112.0,128.0,41.0,-114.0,-56.0,127.0,127.0,127.0,123.0,90.0,-109.0
127.0,127.0,127.0,127.0,127.0,126.0,113.0,128.0,41.0,-114.0,-56.0,127.0,127.0,127.0,123.0,90.0,-109.0
127.0,127.0,127.0,127.0,126.0,127.0,112.0,128.0,41.0,-114.0,-56.0,127.0,127.0,127.0,123.0,90.0,-109.0
127.0,127.0,127.0,127.0,127.0,127.0,112.0,128.0,41.0,-114.0,-56.0,127.0,127.0,127.0,123.0,90.0,-109.0
127.0,127.0,127.0,127.0,127.0,127.0,112.0,128.0,41.0,-114.0,-56.0,127.0,127.0,127.0,123.0,90.0,-109.0
127.0,127.0,127.0,127.0,127.0,127.0,112.0,128.0,41.0,-114.0,-56.0,127.0,127.0,127.0,123.0,90.0,-109.0
127.0,127.0,127.0,127.0,127.0,127.0,113.0,128.0,41.0,-114.0,-56.0,127.0,127.0,127.0,123.0,90.0,-109.0
127.0,126.0,127.0,126.0,126.0,126.0,111.0,128.0,41.0,-114.0,-56.0,127.0,127.0,127.0,123.0,90.0,-109.0
127.0,126.0,127.0,126.0,126.0,126.0,111.0,127.0,41.0,-114.0,-56.0,127.0,127.0,127.0,123.0,90.0,-109.0
127.0,126.0,127.0,126.0,126.0,126.0,112.0,127.0,41.0,-114.0,-56.0,127.0,127.0,127.0,123.0,90.0,-109.0
127.0,126.0,127.0,126.0,127.0,126.0,112.0,127.0,41.0,-114.0,-56.0,127.0,127.0,127.0,123.0,90.0,-109.0
127.0,127.0,127.0,127.0,127.0,126.0,113.0,127.0,41.0,-114.0,-56.0,127.0,127.0,127.0,123.0,90.0,-109.0
127.0,127.0,127.0,127.0,127.0,127.0,112.0,128.0,41.0,-114.0,-56.0,127.0,127.0,127.0,123.0,90.0,-109.0
127.0,127.0,127.0,127.0,127.0,127.0,112.0,127.0,41.0,-114.0,-56.0,127.0,127.0,127.0,123.0,90.0,-109.0
127.0,127.0,127.0,127.0,127.0,127.0,112.0,128.0,41.0,-114.0,-56.0,127.0,127.0,127.0,123.0,90.0,-109.0
127.0,127.0,127.0,127.0,127.0,127.0,112.0,128.0,41.0,-114.0,-56.0,127.0,127.0,127.0,123.0,90.0,-109.0
126.0,126.0,127.0,126.0,126.0,126.0,113.0,127.0,41.0,-114.0,-56.0,127.0,127.0,127.0,123.0,90.0,-109.0
127.0,126.0,127.0,126.0,126.0,126.0,112.0,127.0,41.0,-114.0,-56.0,127.0,127.0,127.0,123.0,90.0,-109.0
126.0,126.0,127.0,126.0,126.0,126.0,113.0,127.0,41.0,-114.0,-56.0,127.0,127.0,127.0,123.0,90.0,-109.0
127.0,127.0,127.0,126.0,126.0,127.0,112.0,128.0,41.0,-114.0,-56.0,127.0,127.0,127.0,123.0,90.0,-109.0
127.0,127.0,127.0,126.0,126.0,127.0,112.0,128.0,41.0,-114.0,-56.0,127.0,127.0,127.0,123.0,90.0,-109.0
127.0,127.0,127.0,126.0,126.0,127.0,113.0,128.0,41.0,-114.0,-56.0,127.0,127.0,127.0,123.0,90.0,-109.0
127.0,127.0,127.0,126.0,126.0,127.0,113.0,128.0,41.0,-114.0,-56.0,127.0,127.0,127.0,123.0,90.0,-109.0
127.0,127.0,127.0,126.0,127.0,127.0,112.0,128.0,41.0,-114.0,-56.0,127.0,127.0,127.0,123.0,90.0,-109.0
127.0,127.0,127.0,126.0,127.0,127.0,112.0,128.0,41.0,-114.0,-56.0,127.0,127.0,127.0,123.0,90.0,-109.0
127.0,127.0,127.0,126.0,126.0,126.0,112.0,128.0,41.0,-114.0,-56.0,127.0,127.0,127.0,123.0,90.0,-109.0
127.0,127.0,127.0,126.0,126.0,126.0,112.0,128.0,41.0,-114.0,-56.0,127.0,127.0,127.0,123.0,90.0,-109.0
127.0,127.0,127.0,126.0,126.0,126.0,112.0,128.0,41.0,-114.0,-56.0,127.0,127.0,127.0,123.0,90.0,-109.0
127.0,127.0,127.0,126.0,126.0,127.0,112.0,128.0,41.0,-114.0,-56.0,127.0,127.0,127.0,123.0,90.0,-109.0
127.0,127.0,128.0,126.0,127.0,127.0,113.0,128.0,41.0,-114.0,-56.0,127.0,127.0,127.0,123.0,90.0,-109.0
127.0,127.0,128.0,126.0,127.0,127.0,113.0,128.0,41.0,-114.0,-56.0,127.0,127.0,127.0,123.0,90.0,-109.0
127.0,127.0,128.0,126.0,127.0,127.0,111.0,128.0,41.0,-114.0,-56.0,127.0,127.0,127.0,123.0,90.0,-109.0
127.0,127.0,128.0,127.0,127.0,127.0,108.0,128.0,41.0,-114.0,-56.0,127.0,127.0,127.0,123.0,90.0,-109.0
127.0,127.0,128.0,127.0,127.0,127.0,106.0,128.0,41.0,-114.0,-56.0,127.0,127.0,127.0,123.0,90.0,-109.0
127.0,126.0,128.0,125.0,126.0,126.0,113.0,128.0,41.0,-114.0,-56.0,127.0,127.0,127.0,123.0,90.0,-109.0
127.0,126.0,128.0,126.0,126.0,126.0,113.0,128.0,41.0,-114.0,-56.0,127.0,127.0,127.0,123.0,90.0,-109.0
127.0,127.0,128.0,126.0,126.0,127.0,112.0,128.0,41.0,-114.0,-56.0,127.0,127.0,127.0,123.0,90.0,-109.0
127.0,127.0,128.0,126.0,126.0,127.0,112.0,128.0,41.0,-114.0,-56.0,127.0,127.0,127.0,123.0,90.0,-109.0
127.0,127.0,128.0,126.0,127.0,127.0,113.0,128.0,41.0,-114.0,-56.0,127.0,127.0,127.0,123.0,90.0,-109.0
127.0,127.0,127.0,127.0,127.0,127.0,113.0,127.0,41.0,-114.0,-56.0,127.0,127.0,127.0,123.0,90.0,-109.0
127.0,127.0,127.0,127.0,127.0,127.0,112.0,127.0,41.0,-114.0,-56.0,127.0,127.0,127.0,123.0,90.0,-109.0
127.0,127.0,127.0,127.0,127.0,127.0,114.0,128.0,41.0,-114.0,-56.0,127.0,127.0,127.0,123.0,90.0,-109.0
127.0,127.0,127.0,127.0,127.0,127.0,109.0,128.0,41.0,-114.0,-56.0,127.0,127.0,127.0,123.0,90.0,-109.0
127.0,126.0,127.0,126.0,127.0,126.0,112.0,127.0,41.0,-114.0,-56.0,127.0,127.0,127.0,123.0,90.0,-109.0
127.0,127.0,127.0,127.0,127.0,126.0,112.0,127.0,41.0,-114.0,-56.0,127.0,127.0,127.0,123.0,90.0,-109.0
127.0,127.0,127.0,127.0,127.0,126.0,113.0,127.0,41.0,-114.0,-56.0,127.0,127.0,127.0,123.0,90.0,-109.0
127.0,127.0,127.0,127.0,127.0,127.0,112.0,127.0,41.0,-114.0,-56.0,127.0,127.0,127.0,123.0,90.0,-109.0
127.0,127.0,127.0,127.0,127.0,127.0,112.0,127.0,41.0,-114.0,-56.0,127.0,127.0,127.0,123.0,90.0,-109.0
127.0,127.0,127.0,127.0,127.0,127.0,112.0,127.0,41.0,-114.0,-56.0,127.0,127.0,127.0,123.0,90.0,-109.0
127.0,126.0,127.0,126.0,127.0,127.0,112.0,128.0,41.0,-114.0,-56.0,127.0,127.0,127.0,123.0,90.0,-109.0
127.0,127.0,127.0,126.0,127.0,127.0,112.0,128.0,41.0,-114.0,-56.0,127.0,127.0,127.0,123.0,90.0,-109.0
127.0,127.0,127.0,126.0,127.0,127.0,112.0,128.0,41.0,-114.0,-56.0,127.0,127.0,127.0,123.0,90.0,-109.0
127.0,126.0,127.0,126.0,126.0,126.0,112.0,127.0,41.0,-114.0,-56.0,127.0,127.0,127.0,123.0,90.0,-109.0
127.0,126.0,127.0,126.0,127.0,126.0,112.0,127.0,41.0,-114.0,-56.0,127.0,127.0,127.0,123.0,90.0,-109.0
127.0,127.0,127.0,126.0,127.0,126.0,112.0,127.0,41.0,-114.0,-56.0,127.0,127.0,127.0,123.0,90.0,-109.0
127.0,126.0,127.0,126.0,127.0,126.0,112.0,127.0,41.0,-114.0,-56.0,127.0,127.0,127.0,123.0,90.0,-109.0
127.0,126.0,127.0,126.0,127.0,126.0,113.0,127.0,41.0,-114.0,-56.0,127.0,127.0,127.0,123.0,90.0,-109.0
127.0,126.0,127.0,126.0,127.0,127.0,113.0,127.0,41.0,-114.0,-56.0,127.0,127.0,127.0,123.0,90.0,-109.0
127.0,126.0,127.0,126.0,127.0,127.0,112.0,127.0,41.0,-114.0,-56.0,127.0,127.0,127.0,123.0,90.0,-109.0
126.0,127.0,127.0,126.0,127.0,127.0,113.0,128.0,41.0,-114.0,-55.0,127.0,127.0,127.0,123.0,90.0,-109.0
127.0,127.0,127.0,126.0,127.0,127.0,113.0,128.0,41.0,-114.0,-55.0,127.0,127.0,127.0,123.0,90.0,-109.0
126.0,126.0,127.0,126.0,126.0,126.0,112.0,127.0,41.0,-114.0,-55.0,127.0,127.0,127.0,123.0,90.0,-109.0
126.0,126.0,127.0,126.0,127.0,126.0,112.0,127.0,41.0,-114.0,-55.0,127.0,127.0,127.0,123.0,90.0,-109.0
126.0,126.0,127.0,126.0,127.0,126.0,112.0,127.0,41.0,-114.0,-55.0,127.0,127.0,127.0,123.0,90.0,-109.0
126.0,126.0,127.0,126.0,127.0,126.0,113.0,127.0,41.0,-114.0,-55.0,127.0,127.0,127.0,123.0,90.0,-109.0
126.0,126.0,127.0,126.0,127.0,127.0,112.0,127.0,41.0,-114.0,-55.0,127.0,127.0,127.0,123.0,90.0,-109.0
126.0,126.0,127.0,126.0,127.0,127.0,112.0,127.0,41.0,-114.0,-55.0,127.0,127.0,127.0,123.0,90.0,-109.0
126.0,127.0,127.0,126.0,127.0,127.0,112.0,127.0,41.0,-114.0,-55.0,127.0,127.0,127.0,123.0,90.0,-109.0
127.0,127.0,127.0,126.0,127.0,127.0,113.0,127.0,41.0,-114.0,-55.0,127.0,127.0,127.0,123.0,90.0,-109.0
126.0,127.0,127.0,127.0,127.0,127.0,112.0,127.0,41.0,-114.0,-55.0,127.0,127.0,127.0,123.0,90.0,-109.0
126.0,126.0,127.0,126.0,127.0,126.0,112.0,127.0,41.0,-114.0,-55.0,127.0,127.0,127.0,123.0,90.0,-109.0
127.0,126.0,127.0,126.0,127.0,126.0,112.0,127.0,41.0,-114.0,-55.0,127.0,127.0,127.0,123.0,90.0,-109.0
126.0,127.0,127.0,126.0,127.0,126.0,112.0,127.0,41.0,-114.0,-55.0,127.0,127.0,127.0,123.0,90.0,-109.0
126.0,126.0,127.0,127.0,127.0,126.0,112.0,127.0,41.0,-114.0,-55.0,127.0,127.0,127.0,123.0,90.0,-109.0
126.0,127.0,127.0,127.0,127.0,126.0,112.0,127.0,41.0,-114.0,-55.0,127.0,127.0,127.0,123.0,90.0,-109.0
126.0,127.0,127.0,127.0,127.0,127.0,112.0,127.0,41.0,-114.0,-55.0,127.0,127.0,127.0,123.0,90.0,-109.0
126.0,127.0,127.0,127.0,127.0,127.0,112.0,127.0,41.0,-114.0,-55.0,127.0,127.0,127.0,123.0,90.0,-109.0
126.0,127.0,127.0,127.0,127.0,127.0,113.0,127.0,41.0,-114.0,-55.0,127.0,127.0,127.0,123.0,90.0,-109.0
126.0,127.0,127.0,127.0,127.0,127.0,113.0,127.0,41.0,-114.0,-55.0,127.0,127.0,127.0,123.0,90.0,-109.0
126.0,126.0,126.0,125.0,126.0,126.0,112.0,127.0,41.0,-114.0,-55.0,127.0,127.0,127.0,123.0,90.0,-109.0
126.0,126.0,126.0,126.0,127.0,126.0,111.0,127.0,41.0,-114.0,-55.0,127.0,127.0,127.0,123.0,90.0,-109.0
127.0,127.0,126.0,126.0,127.0,126.0,111.0,127.0,41.0,-114.0,-55.0,127.0,127.0,127.0,123.0,90.0,-109.0
127.0,127.0,126.0,126.0,127.0,126.0,112.0,127.0,41.0,-114.0,-55.0,127.0,127.0,127.0,123.0,90.0,-109.0
127.0,127.0,126.0,126.0,127.0,126.0,112.0,127.0,41.0,-114.0,-55.0,127.0,127.0,127.0,123.0,90.0,-109.0
127.0,127.0,126.0,127.0,127.0,126.0,113.0,127.0,41.0,-114.0,-55.0,127.0,127.0,127.0,123.0,90.0,-109.0
127.0,127.0,126.0,127.0,127.0,126.0,113.0,128.0,41.0,-114.0,-55.0,127.0,127.0,127.0,123.0,90.0,-109.0
127.0,127.0,127.0,127.0,127.0,127.0,112.0,128.0,41.0,-114.0,-55.0,127.0,127.0,127.0,123.0,90.0,-109.0
127.0,127.0,127.0,127.0,127.0,127.0,112.0,128.0,41.0,-114.0,-55.0,127.0,127.0,127.0,123.0,90.0,-109.0
127.0,127.0,127.0,128.0,127.0,127.0,113.0,128.0,41.0,-114.0,-55.0,127.0,127.0,127.0,123.0,90.0,-109.0
126.0,126.0,127.0,126.0,126.0,126.0,113.0,127.0,41.0,-114.0,-55.0,127.0,127.0,127.0,123.0,90.0,-109.0
126.0,126.0,127.0,126.0,126.0,126.0,113.0,127.0,41.0,-114.0,-55.0,127.0,127.0,127.0,123.0,90.0,-109.0
126.0,126.0,127.0,126.0,126.0,126.0,112.0,127.0,41.0,-114.0,-55.0,127.0,127.0,127.0,123.0,90.0,-109.0
126.0,126.0,127.0,126.0,126.0,126.0,112.0,127.0,41.0,-114.0,-55.0,127.0,127.0,127.0,123.0,90.0,-109.0
126.0,127.0,127.0,126.0,126.0,126.0,112.0,127.0,41.0,-114.0,-55.0,127.0,127.0,127.0,123.0,90.0,-109.0
127.0,127.0,127.0,126.0,127.0,126.0,112.0,128.0,41.0,-114.0,-55.0,127.0,127.0,127.0,123.0,90.0,-109.0
127.0,127.0,127.0,126.0,127.0,127.0,112.0,128.0,41.0,-114.0,-55.0,127.0,127.0,127.0,123.0,90.0,-109.0
127.0,127.0,127.0,126.0,127.0,127.0,112.0,128.0,41.0,-114.0,-55.0,127.0,127.0,127.0,123.0,90.0,-109.0
127.0,127.0,127.0,126.0,127.0,127.0,113.0,128.0,41.0,-114.0,-55.0,127.0,127.0,127.0,123.0,90.0,-109.0
126.0,126.0,127.0,126.0,126.0,126.0,113.0,127.0,41.0,-114.0,-55.0,127.0,127.0,127.0,123.0,90.0,-109.0
126.0,126.0,127.0,126.0,126.0,126.0,112.0,127.0,41.0,-114.0,-55.0,127.0,127.0,127.0,123.0,90.0,-109.0
126.0,126.0,127.0,126.0,126.0,126.0,112.0,127.0,41.0,-114.0,-55.0,127.0,127.0,127.0,123.0,90.0,-109.0
126.0,126.0,127.0,126.0,126.0,126.0,112.0,127.0,41.0,-114.0,-55.0,127.0,127.0,127.0,123.0,90.0,-109.0
126.0,126.0,127.0,126.0,126.0,126.0,112.0,127.0,41.0,-114.0,-55.0,127.0,127.0,127.0,123.0,90.0,-109.0
127.0,126.0,127.0,126.0,126.0,126.0,112.0,127.0,41.0,-114.0,-55.0,127.0,127.0,127.0,123.0,90.0,-109.0
126.0,127.0,127.0,126.0,126.0,127.0,112.0,127.0,41.0,-114.0,-55.0,127.0,127.0,127.0,123.0,90.0,-109.0
126.0,126.0,127.0,126.0,126.0,127.0,112.0,127.0,41.0,-114.0,-55.0,127.0,127.0,127.0,123.0,90.0,-109.0
127.0,127.0,127.0,126.0,126.0,127.0,113.0,128.0,41.0,-114.0,-55.0,127.0,127.0,127.0,123.0,90.0,-109.0
126.0,126.0,127.0,126.0,126.0,126.0,111.0,127.0,41.0,-114.0,-55.0,127.0,127.0,127.0,123.0,90.0,-109.0
126.0,126.0,127.0,126.0,126.0,126.0,111.0,127.0,41.0,-114.0,-55.0,127.0,127.0,127.0,123.0,90.0,-109.0
127.0,126.0,127.0,126.0,127.0,126.0,112.0,127.0,41.0,-114.0,-55.0,127.0,127.0,127.0,123.0,90.0,-109.0
127.0,127.0,128.0,126.0,127.0,126.0,112.0,127.0,41.0,-114.0,-55.0,127.0,127.0,127.0,123.0,90.0,-109.0
127.0,126.0,127.0,126.0,127.0,126.0,113.0,127.0,41.0,-114.0,-55.0,127.0,127.0,127.0,123.0,90.0,-109.0
127.0,127.0,127.0,126.0,127.0,126.0,112.0,127.0,41.0,-114.0,-55.0,127.0,127.0,127.0,123.0,90.0,-109.0
127.0,127.0,127.0,126.0,127.0,127.0,112.0,128.0,41.0,-114.0,-55.0,127.0,127.0,127.0,123.0,90.0,-109.0
127.0,127.0,127.0,126.0,127.0,127.0,112.0,128.0,41.0,-114.0,-55.0,127.0,127.0,127.0,123.0,90.0,-109.0
126.0,127.0,127.0,127.0,127.0,127.0,112.0,128.0,41.0,-114.0,-55.0,127.0,127.0,127.0,123.0,90.0,-109.0
127.0,126.0,128.0,126.0,127.0,126.0,111.0,127.0,41.0,-114.0,-55.0,127.0,127.0,127.0,123.0,90.0,-109.0
127.0,126.0,127.0,126.0,127.0,126.0,112.0,127.0,41.0,-114.0,-55.0,127.0,127.0,127.0,123.0,90.0,-109.0
127.0,127.0,127.0,126.0,127.0,126.0,112.0,127.0,41.0,-114.0,-55.0,127.0,127.0,127.0,123.0,90.0,-109.0
127.0,127.0,127.0,127.0,126.0,126.0,112.0,127.0,41.0,-114.0,-55.0,127.0,127.0,127.0,123.0,90.0,-109.0
127.0,127.0,127.0,127.0,126.0,127.0,112.0,127.0,41.0,-114.0,-55.0,127.0,127.0,127.0,123.0,90.0,-109.0
127.0,127.0,127.0,127.0,126.0,127.0,112.0,127.0,41.0,-114.0,-55.0,127.0,127.0,127.0,123.0,90.0,-109.0
127.0,127.0,127.0,127.0,126.0,127.0,112.0,127.0,41.0,-114.0,-55.0,127.0,127.0,127.0,123.0,90.0,-109.0
127.0,127.0,127.0,127.0,127.0,127.0,113.0,127.0,41.0,-114.0,-55.0,127.0,127.0,127.0,123.0,90.0,-109.0
127.0,127.0,127.0,127.0,127.0,127.0,112.0,127.0,41.0,-114.0,-55.0,127.0,127.0,127.0,123.0,90.0,-109.0
127.0,127.0,127.0,127.0,127.0,126.0,111.0,127.0,41.0,-114.0,-55.0,127.0,127.0,127.0,123.0,90.0,-109.0
127.0,126.0,127.0,127.0,127.0,126.0,111.0,127.0,41.0,-114.0,-55.0,127.0,127.0,127.0,123.0,90.0,-109.0
127.0,126.0,127.0,127.0,126.0,126.0,112.0,127.0,41.0,-114.0,-55.0,127.0,127.0,127.0,123.0,90.0,-109.0
127.0,126.0,127.0,127.0,127.0,126.0,112.0,127.0,41.0,-114.0,-55.0,127.0,127.0,127.0,123.0,90.0,-109.0
126.0,126.0,127.0,126.0,126.0,126.0,113.0,127.0,41.0,-114.0,-55.0,127.0,127.0,127.0,123.0,90.0,-109.0
126.0,126.0,127.0,126.0,127.0,127.0,112.0,127.0,41.0,-114.0,-55.0,127.0,127.0,127.0,123.0,90.0,-109.0
126.0,126.0,127.0,126.0,127.0,127.0,112.0,127.0,41.0,-114.0,-55.0,127.0,127.0,127.0,123.0,90.0,-109.0
126.0,126.0,127.0,126.0,127.0,127.0,112.0,127.0,41.0,-114.0,-55.0,127.0,127.0,127.0,123.0,90.0,-109.0
126.0,126.0,127.0,127.0,127.0,127.0,113.0,128.0,41.0,-114.0,-55.0,127.0,127.0,127.0,123.0,90.0,-109.0
126.0,126.0,127.0,126.0,126.0,126.0,111.0,127.0,41.0,-114.0,-55.0,127.0,127.0,127.0,123.0,90.0,-109.0
126.0,126.0,127.0,126.0,126.0,126.0,111.0,127.0,41.0,-114.0,-55.0,127.0,127.0,127.0,123.0,90.0,-109.0
126.0,126.0,127.0,126.0,126.0,126.0,112.0,127.0,41.0,-114.0,-55.0,127.0,127.0,127.0,123.0,90.0,-109.0
126.0,126.0,127.0,126.0,126.0,126.0,112.0,127.0,41.0,-114.0,-55.0,127.0,127.0,127.0,123.0,90.0,-109.0
126.0,126.0,127.0,126.0,126.0,126.0,112.0,127.0,41.0,-114.0,-55.0,127.0,127.0,127.0,123.0,90.0,-109.0
126.0,127.0,127.0,125.0,126.0,127.0,112.0,128.0,41.0,-114.0,-55.0,127.0,127.0,127.0,123.0,90.0,-109.0
127.0,127.0,127.0,125.0,126.0,127.0,113.0,128.0,41.0,-114.0,-55.0,127.0,127.0,127.0,123.0,90.0,-109.0
127.0,127.0,127.0,126.0,126.0,127.0,113.0,128.0,41.0,-114.0,-55.0,127.0,127.0,127.0,123.0,90.0,-109.0
127.0,127.0,127.0,126.0,126.0,127.0,113.0,128.0,41.0,-114.0,-55.0,127.0,127.0,127.0,123.0,90.0,-109.0
127.0,126.0,127.0,124.0,126.0,126.0,112.0,127.0,41.0,-114.0,-55.0,127.0,127.0,127.0,123.0,90.0,-109.0
127.0,126.0,127.0,124.0,126.0,126.0,112.0,128.0,41.0,-114.0,-55.0,127.0,127.0,127.0,123.0,90.0,-109.0
127.0,126.0,127.0,124.0,126.0,126.0,112.0,127.0,41.0,-114.0,-55.0,127.0,127.0,127.0,123.0,90.0,-109.0
127.0,126.0,127.0,124.0,126.0,126.0,113.0,128.0,41.0,-114.0,-55.0,127.0,127.0,127.0,123.0,90.0,-109.0
127.0,127.0,127.0,125.0,126.0,126.0,112.0,127.0,41.0,-114.0,-55.0,127.0,127.0,127.0,123.0,90.0,-109.0
127.0,127.0,127.0,125.0,126.0,127.0,112.0,128.0,41.0,-114.0,-55.0,127.0,127.0,127.0,123.0,90.0,-109.0
127.0,126.0,128.0,126.0,127.0,127.0,113.0,128.0,41.0,-114.0,-55.0,127.0,127.0,127.0,123.0,90.0,-109.0
127.0,126.0,128.0,126.0,127.0,127.0,113.0,128.0,41.0,-114.0,-55.0,127.0,127.0,127.0,123.0,90.0,-109.0
127.0,126.0,128.0,126.0,127.0,127.0,109.0,128.0,41.0,-114.0,-55.0,127.0,127.0,127.0,123.0,90.0,-109.0
127.0,126.0,127.0,127.0,127.0,126.0,112.0,127.0,41.0,-114.0,-55.0,127.0,127.0,127.0,123.0,90.0,-109.0
127.0,126.0,127.0,127.0,127.0,126.0,112.0,127.0,41.0,-114.0,-55.0,127.0,127.0,127.0,123.0,90.0,-109.0
127.0,126.0,127.0,127.0,127.0,126.0,113.0,127.0,41.0,-114.0,-55.0,127.0,127.0,127.0,123.0,90.0,-109.0
127.0,126.0,128.0,127.0,127.0,126.0,113.0,127.0,41.0,-114.0,-55.0,127.0,127.0,127.0,123.0,90.0,-109.0
127.0,126.0,128.0,127.0,127.0,127.0,112.0,127.0,41.0,-114.0,-55.0,127.0,127.0,127.0,123.0,90.0,-109.0
127.0,126.0,128.0,126.0,127.0,127.0,112.0,127.0,41.0,-114.0,-55.0,127.0,127.0,127.0,123.0,90.0,-109.0
127.0,126.0,128.0,126.0,127.0,127.0,112.0,127.0,41.0,-114.0,-55.0,127.0,127.0,127.0,123.0,90.0,-109.0
127.0,127.0,130.0,129.0,128.0,125.0,110.0,128.0,41.0,-114.0,-55.0,127.0,127.0,127.0,123.0,90.0,-109.0
126.0,127.0,129.0,129.0,128.0,125.0,110.0,128.0,41.0,-114.0,-55.0,127.0,127.0,127.0,123.0,90.0,-109.0
126.0,126.0,128.0,128.0,127.0,125.0,110.0,127.0,41.0,-114.0,-55.0,127.0,127.0,127.0,123.0,90.0,-109.0
126.0,126.0,128.0,128.0,127.0,125.0,110.0,127.0,41.0,-114.0,-55.0,127.0,127.0,127.0,123.0,90.0,-109.0
126.0,126.0,129.0,128.0,127.0,126.0,110.0,127.0,41.0,-114.0,-55.0,127.0,127.0,127.0,123.0,90.0,-109.0
126.0,126.0,129.0,129.0,127.0,126.0,110.0,127.0,41.0,-114.0,-55.0,127.0,127.0,127.0,123.0,90.0,-109.0
126.0,127.0,129.0,129.0,128.0,125.0,110.0,127.0,41.0,-114.0,-55.0,127.0,127.0,127.0,123.0,90.0,-109.0
126.0,127.0,129.0,129.0,128.0,125.0,111.0,127.0,41.0,-114.0,-55.0,127.0,127.0,127.0,123.0,90.0,-109.0
126.0,127.0,130.0,129.0,128.0,125.0,111.0,128.0,41.0,-114.0,-55.0,127.0,127.0,127.0,123.0,90.0,-109.0
126.0,127.0,130.0,129.0,128.0,125.0,110.0,128.0,41.0,-114.0,-55.0,127.0,127.0,127.0,123.0,90.0,-109.0
125.0,127.0,125.0,130.0,128.0,92.0,83.0,125.0,41.0,-114.0,-55.0,127.0,127.0,127.0,123.0,90.0,-109.0
126.0,126.0,128.0,129.0,130.0,107.0,94.0,127.0,41.0,-114.0,-55.0,127.0,127.0,127.0,123.0,90.0,-109.0
126.0,126.0,127.0,129.0,130.0,105.0,92.0,127.0,41.0,-114.0,-55.0,127.0,127.0,127.0,123.0,90.0,-109.0
126.0,126.0,127.0,130.0,129.0,104.0,89.0,126.0,41.0,-114.0,-55.0,127.0,127.0,127.0,123.0,90.0,-109.0
126.0,127.0,127.0,130.0,129.0,102.0,92.0,126.0,41.0,-114.0,-55.0,127.0,127.0,127.0,123.0,90.0,-109.0
126.0,127.0,127.0,130.0,129.0,101.0,91.0,126.0,41.0,-114.0,-55.0,127.0,127.0,127.0,123.0,90.0,-109.0
126.0,127.0,127.0,130.0,129.0,99.0,88.0,126.0,41.0,-114.0,-55.0,127.0,127.0,127.0,123.0,90.0,-109.0
126.0,127.0,126.0,130.0,129.0,97.0,86.0,126.0,41.0,-114.0,-55.0,127.0,127.0,127.0,123.0,90.0,-109.0
126.0,127.0,126.0,130.0,128.0,95.0,83.0,125.0,41.0,-114.0,-55.0,127.0,127.0,127.0,123.0,90.0,-109.0
125.0,127.0,125.0,130.0,128.0,94.0,85.0,125.0,41.0,-114.0,-55.0,127.0,127.0,127.0,123.0,90.0,-109.0
125.0,128.0,112.0,130.0,150.0,67.0,64.0,124.0,41.0,-114.0,-56.0,127.0,127.0,127.0,123.0,90.0,-109.0
125.0,128.0,113.0,131.0,151.0,68.0,65.0,124.0,41.0,-114.0,-56.0,127.0,127.0,127.0,123.0,90.0,-109.0
125.0,128.0,113.0,131.0,152.0,69.0,67.0,124.0,41.0,-114.0,-56.0,127.0,127.0,127.0,123.0,90.0,-109.0
125.0,129.0,114.0,132.0,153.0,70.0,69.0,124.0,41.0,-114.0,-56.0,127.0,127.0,127.0,123.0,90.0,-109.0
125.0,129.0,114.0,133.0,154.0,72.0,67.0,124.0,41.0,-114.0,-56.0,127.0,127.0,127.0,123.0,90.0,-109.0
125.0,130.0,115.0,133.0,155.0,74.0,68.0,125.0,41.0,-114.0,-56.0,127.0,127.0,127.0,123.0,90.0,-109.0
125.0,130.0,115.0,133.0,156.0,76.0,70.0,125.0,41.0,-114.0,-56.0,127.0,127.0,127.0,123.0,90.0,-109.0
125.0,130.0,116.0,134.0,156.0,77.0,73.0,125.0,41.0,-114.0,-56.0,127.0,127.0,127.0,123.0,90.0,-109.0
125.0,130.0,115.0,134.0,157.0,79.0,73.0,125.0,41.0,-114.0,-56.0,127.0,127.0,127.0,123.0,90.0,-109.0
125.0,130.0,115.0,133.0,157.0,81.0,72.0,125.0,41.0,-114.0,-56.0,127.0,127.0,127.0,123.0,90.0,-109.0
124.0,142.0,133.0,144.0,226.0,254.0,195.0,162.0,41.0,-114.0,-57.0,-128.0,127.0,127.0,123.0,90.0,-109.0
124.0,142.0,134.0,145.0,230.0,254.0,195.0,163.0,41.0,-114.0,-57.0,-128.0,127.0,127.0,123.0,90.0,-109.0
124.0,142.0,135.0,146.0,234.0,254.0,195.0,166.0,41.0,-114.0,-57.0,-128.0,127.0,127.0,123.0,90.0,-109.0
124.0,143.0,136.0,147.0,238.0,254.0,195.0,168.0,41.0,-114.0,-57.0,-128.0,127.0,127.0,123.0,90.0,-109.0
124.0,143.0,137.0,148.0,243.0,254.0,195.0,170.0,41.0,-114.0,-57.0,-128.0,127.0,127.0,123.0,90.0,-109.0
124.0,144.0,138.0,149.0,247.0,254.0,195.0,172.0,41.0,-114.0,-57.0,-128.0,127.0,127.0,123.0,90.0,-109.0
124.0,144.0,139.0,151.0,252.0,254.0,194.0,174.0,41.0,-114.0,-57.0,-128.0,127.0,127.0,123.0,90.0,-109.0
124.0,144.0,141.0,152.0,254.0,254.0,195.0,175.0,41.0,-114.0,-57.0,-128.0,127.0,127.0,123.0,90.0,-109.0
124.0,145.0,141.0,154.0,254.0,254.0,195.0,176.0,41.0,-114.0,-57.0,-128.0,127.0,127.0,123.0,90.0,-109.0
124.0,142.0,132.0,143.0,222.0,254.0,195.0,160.0,41.0,-114.0,-57.0,-128.0,127.0,127.0,123.0,90.0,-109.0
115.0,141.0,145.0,174.0,254.0,74.0,67.0,180.0,41.0,-117.0,-57.0,-126.0,-128.0,127.0,123.0,90.0,-109.0
115.0,140.0,145.0,174.0,254.0,75.0,69.0,179.0,41.0,-117.0,-57.0,-126.0,-128.0,127.0,123.0,90.0,-109.0
114.0,140.0,145.0,174.0,254.0,76.0,71.0,177.0,41.0,-117.0,-57.0,-126.0,-128.0,127.0,123.0,90.0,-109.0
114.0,139.0,145.0,175.0,254.0,78.0,73.0,175.0,41.0,-117.0,-57.0,-126.0,-128.0,127.0,123.0,90.0,-109.0
113.0,138.0,145.0,175.0,254.0,79.0,74.0,174.0,41.0,-117.0,-57.0,-126.0,-128.0,127.0,123.0,90.0,-109.0
113.0,138.0,146.0,176.0,254.0,81.0,72.0,172.0,41.0,-117.0,-57.0,-126.0,-128.0,127.0,123.0,90.0,-109.0
113.0,137.0,147.0,177.0,254.0,83.0,75.0,170.0,41.0,-117.0,-57.0,-126.0,-128.0,127.0,123.0,90.0,-109.0
113.0,136.0,148.0,178.0,254.0,85.0,77.0,168.0,41.0,-117.0,-57.0,-126.0,-128.0,127.0,123.0,90.0,-109.0
116.0,141.0,147.0,174.0,254.0,71.0,69.0,183.0,41.0,-117.0,-57.0,-126.0,-128.0,127.0,123.0,90.0,-109.0
115.0,141.0,146.0,174.0,254.0,72.0,66.0,182.0,41.0,-117.0,-57.0,-126.0,-128.0,127.0,123.0,90.0,-109.0
89.0,110.0,138.0,219.0,183.0,128.0,107.0,113.0,41.0,-124.0,-56.0,-125.0,-128.0,126.0,123.0,90.0,-109.0
89.0,109.0,137.0,220.0,173.0,128.0,107.0,113.0,41.0,-124.0,-56.0,-125.0,-128.0,126.0,123.0,90.0,-109.0
89.0,108.0,136.0,221.0,164.0,128.0,108.0,113.0,41.0,-124.0,-56.0,-125.0,-128.0,126.0,123.0,90.0,-109.0
88.0,107.0,134.0,221.0,154.0,128.0,108.0,114.0,41.0,-124.0,-56.0,-125.0,-128.0,126.0,123.0,90.0,-109.0
88.0,106.0,132.0,221.0,144.0,129.0,108.0,114.0,41.0,-124.0,-56.0,-125.0,-128.0,126.0,123.0,90.0,-109.0
88.0,106.0,131.0,221.0,134.0,129.0,109.0,114.0,41.0,-124.0,-56.0,-125.0,-128.0,126.0,123.0,90.0,-109.0
88.0,106.0,130.0,220.0,124.0,129.0,109.0,115.0,41.0,-124.0,-56.0,-125.0,-128.0,126.0,123.0,90.0,-109.0
91.0,112.0,137.0,218.0,210.0,127.0,107.0,113.0,41.0,-124.0,-56.0,-125.0,-128.0,126.0,123.0,90.0,-109.0
90.0,111.0,137.0,218.0,201.0,128.0,106.0,113.0,41.0,-124.0,-56.0,-125.0,-128.0,126.0,123.0,90.0,-109.0
90.0,111.0,137.0,219.0,192.0,128.0,107.0,113.0,41.0,-124.0,-56.0,-125.0,-128.0,126.0,123.0,90.0,-109.0
121.0,114.0,143.0,171.0,0.0,143.0,124.0,144.0,41.0,-124.0,-58.0,-124.0,-127.0,127.0,123.0,90.0,-109.0
121.0,113.0,143.0,171.0,0.0,143.0,121.0,144.0,41.0,-124.0,-58.0,-124.0,-127.0,127.0,123.0,90.0,-109.0
121.0,113.0,144.0,171.0,0.0,143.0,119.0,144.0,41.0,-124.0,-58.0,-124.0,-127.0,127.0,123.0,90.0,-109.0
122.0,113.0,144.0,171.0,0.0,144.0,119.0,143.0,41.0,-124.0,-58.0,-124.0,-127.0,127.0,123.0,90.0,-109.0
122.0,115.0,146.0,170.0,0.0,144.0,120.0,143.0,41.0,-124.0,-58.0,-124.0,-127.0,127.0,123.0,90.0,-109.0
123.0,116.0,147.0,169.0,0.0,144.0,121.0,142.0,41.0,-124.0,-58.0,-124.0,-127.0,127.0,123.0,90.0,-109.0
118.0,114.0,142.0,174.0,0.0,141.0,123.0,145.0,41.0,-124.0,-58.0,-124.0,-127.0,127.0,123.0,90.0,-109.0
119.0,114.0,142.0,173.0,0.0,142.0,124.0,145.0,41.0,-124.0,-58.0,-124.0,-127.0,127.0,123.0,90.0,-109.0
120.0,114.0,143.0,172.0,0.0,142.0,124.0,145.0,41.0,-124.0,-58.0,-124.0,-127.0,127.0,123.0,90.0,-109.0
120.0,114.0,143.0,171.0,0.0,143.0,124.0,144.0,41.0,-124.0,-58.0,-124.0,-127.0,127.0,123.0,90.0,-109.0
133.0,119.0,141.0,161.0,56.0,147.0,125.0,126.0,41.0,-116.0,-59.0,-123.0,-127.0,127.0,123.0,90.0,-109.0
133.0,120.0,142.0,159.0,56.0,147.0,125.0,127.0,41.0,-116.0,-59.0,-123.0,-127.0,127.0,123.0,90.0,-109.0
133.0,120.0,144.0,158.0,56.0,147.0,124.0,128.0,41.0,-116.0,-59.0,-123.0,-127.0,127.0,123.0,90.0,-109.0
133.0,121.0,145.0,157.0,55.0,146.0,124.0,129.0,41.0,-116.0,-59.0,-123.0,-127.0,127.0,123.0,90.0,-109.0
133.0,122.0,145.0,156.0,55.0,146.0,124.0,129.0,41.0,-116.0,-59.0,-123.0,-127.0,127.0,123.0,90.0,-109.0
132.0,119.0,139.0,170.0,55.0,147.0,126.0,126.0,41.0,-116.0,-59.0,-123.0,-127.0,127.0,123.0,90.0,-109.0
132.0,119.0,139.0,168.0,56.0,147.0,126.0,126.0,41.0,-116.0,-59.0,-123.0,-127.0,127.0,123.0,90.0,-109.0
132.0,119.0,139.0,167.0,56.0,147.0,125.0,125.0,41.0,-116.0,-59.0,-123.0,-127.0,127.0,123.0,90.0,-109.0
132.0,119.0,139.0,165.0,56.0,147.0,125.0,125.0,41.0,-116.0,-59.0,-123.0,-127.0,127.0,123.0,90.0,-109.0
133.0,119.0,140.0,163.0,56.0,147.0,124.0,126.0,41.0,-116.0,-59.0,-123.0,-127.0,127.0,123.0,90.0,-109.0
135.0,126.0,135.0,157.0,41.0,146.0,124.0,155.0,38.0,-109.0,-59.0,-124.0,-128.0,127.0,122.0,90.0,-109.0
135.0,125.0,134.0,157.0,41.0,146.0,124.0,156.0,38.0,-109.0,-59.0,-124.0,-128.0,127.0,122.0,90.0,-109.0
135.0,124.0,133.0,156.0,41.0,146.0,123.0,157.0,38.0,-109.0,-59.0,-124.0,-128.0,127.0,122.0,90.0,-109.0
135.0,123.0,133.0,156.0,41.0,146.0,124.0,158.0,38.0,-109.0,-59.0,-124.0,-128.0,127.0,122.0,90.0,-109.0
135.0,125.0,140.0,159.0,39.0,146.0,124.0,147.0,38.0,-109.0,-59.0,-124.0,-128.0,127.0,122.0,90.0,-109.0
135.0,125.0,138.0,159.0,39.0,146.0,124.0,148.0,38.0,-109.0,-59.0,-124.0,-128.0,127.0,122.0,90.0,-109.0
135.0,125.0,137.0,158.0,39.0,146.0,124.0,149.0,38.0,-109.0,-59.0,-124.0,-128.0,127.0,122.0,90.0,-109.0
135.0,126.0,136.0,158.0,40.0,146.0,124.0,151.0,38.0,-109.0,-59.0,-124.0,-128.0,127.0,122.0,90.0,-109.0
135.0,127.0,136.0,158.0,40.0,146.0,124.0,153.0,38.0,-109.0,-59.0,-124.0,-128.0,127.0,122.0,90.0,-109.0
135.0,127.0,135.0,157.0,41.0,146.0,124.0,154.0,38.0,-109.0,-59.0,-124.0,-128.0,127.0,122.0,90.0,-109.0
130.0,117.0,109.0,136.0,11.0,143.0,119.0,129.0,35.0,-109.0,-61.0,-125.0,-128.0,127.0,121.0,90.0,-109.0
130.0,118.0,109.0,136.0,11.0,143.0,119.0,129.0,35.0,-109.0,-61.0,-125.0,-128.0,127.0,121.0,90.0,-109.0
130.0,120.0,109.0,135.0,10.0,143.0,119.0,128.0,35.0,-109.0,-61.0,-125.0,-128.0,127.0,121.0,90.0,-109.0
131.0,116.0,113.0,137.0,15.0,144.0,120.0,137.0,35.0,-109.0,-61.0,-125.0,-128.0,127.0,121.0,90.0,-109.0
131.0,116.0,112.0,136.0,14.0,144.0,119.0,136.0,35.0,-109.0,-61.0,-125.0,-128.0,127.0,121.0,90.0,-109.0
130.0,116.0,111.0,136.0,13.0,144.0,119.0,134.0,35.0,-109.0,-61.0,-125.0,-128.0,127.0,121.0,90.0,-109.0
130.0,116.0,110.0,136.0,13.0,144.0,119.0,133.0,35.0,-109.0,-61.0,-125.0,-128.0,127.0,121.0,90.0,-109.0
130.0,116.0,110.0,136.0,12.0,143.0,119.0,132.0,35.0,-109.0,-61.0,-125.0,-128.0,127.0,121.0,90.0,-109.0
130.0,116.0,110.0,136.0,12.0,143.0,119.0,131.0,35.0,-109.0,-61.0,-125.0,-128.0,127.0,121.0,90.0,-109.0
130.0,116.0,109.0,136.0,11.0,143.0,119.0,130.0,35.0,-109.0,-61.0,-125.0,-128.0,127.0,121.0,90.0,-109.0
132.0,121.0,108.0,133.0,68.0,143.0,119.0,129.0,34.0,-110.0,-63.0,-125.0,-128.0,127.0,121.0,90.0,-109.0
132.0,122.0,109.0,134.0,71.0,143.0,119.0,129.0,34.0,-110.0,-63.0,-125.0,-128.0,127.0,121.0,90.0,-109.0
132.0,119.0,106.0,131.0,48.0,143.0,119.0,128.0,34.0,-110.0,-63.0,-125.0,-128.0,127.0,121.0,90.0,-109.0
132.0,119.0,106.0,131.0,51.0,143.0,119.0,128.0,34.0,-110.0,-63.0,-125.0,-128.0,127.0,121.0,90.0,-109.0
132.0,119.0,106.0,131.0,53.0,143.0,119.0,128.0,34.0,-110.0,-63.0,-125.0,-128.0,127.0,121.0,90.0,-109.0
132.0,120.0,107.0,132.0,55.0,143.0,119.0,128.0,34.0,-110.0,-63.0,-125.0,-128.0,127.0,121.0,90.0,-109.0
132.0,120.0,107.0,132.0,58.0,143.0,119.0,128.0,34.0,-110.0,-63.0,-125.0,-128.0,127.0,121.0,90.0,-109.0
132.0,120.0,108.0,132.0,60.0,143.0,119.0,128.0,34.0,-110.0,-63.0,-125.0,-128.0,127.0,121.0,90.0,-109.0
132.0,121.0,108.0,132.0,63.0,143.0,119.0,128.0,34.0,-110.0,-63.0,-125.0,-128.0,127.0,121.0,90.0,-109.0
132.0,121.0,108.0,133.0,65.0,143.0,119.0,129.0,34.0,-110.0,-63.0,-125.0,-128.0,127.0,121.0,90.0,-109.0
133.0,128.0,132.0,144.0,149.0,143.0,125.0,134.0,33.0,-107.0,-64.0,-125.0,-128.0,127.0,120.0,90.0,-109.0
133.0,126.0,129.0,143.0,147.0,143.0,125.0,134.0,33.0,-107.0,-64.0,-125.0,-128.0,127.0,120.0,90.0,-109.0
133.0,127.0,129.0,143.0,147.0,143.0,125.0,134.0,33.0,-107.0,-64.0,-125.0,-128.0,127.0,120.0,90.0,-109.0
133.0,127.0,130.0,143.0,147.0,143.0,125.0,134.0,33.0,-107.0,-64.0,-125.0,-128.0,127.0,120.0,90.0,-109.0
133.0,127.0,130.0,143.0,147.0,143.0,125.0,134.0,33.0,-107.0,-64.0,-125.0,-128.0,127.0,120.0,90.0,-109.0
133.0,127.0,130.0,143.0,148.0,143.0,125.0,134.0,33.0,-107.0,-64.0,-125.0,-128.0,127.0,120.0,90.0,-109.0
133.0,127.0,131.0,143.0,148.0,143.0,125.0,134.0,33.0,-107.0,-64.0,-125.0,-128.0,127.0,120.0,90.0,-109.0
133.0,128.0,131.0,143.0,148.0,143.0,125.0,134.0,33.0,-107.0,-64.0,-125.0,-128.0,127.0,120.0,90.0,-109.0
133.0,128.0,131.0,143.0,148.0,143.0,125.0,134.0,33.0,-107.0,-64.0,-125.0,-128.0,127.0,120.0,90.0,-109.0
133.0,128.0,132.0,144.0,149.0,143.0,125.0,134.0,33.0,-107.0,-64.0,-125.0,-128.0,127.0,120.0,90.0,-109.0
132.0,126.0,126.0,148.0,125.0,143.0,119.0,122.0,32.0,-103.0,-65.0,-126.0,-128.0,127.0,120.0,90.0,-109.0
131.0,126.0,125.0,147.0,125.0,143.0,119.0,122.0,32.0,-103.0,-65.0,-126.0,-128.0,127.0,120.0,90.0,-109.0
131.0,126.0,125.0,147.0,124.0,143.0,119.0,122.0,32.0,-103.0,-65.0,-126.0,-128.0,127.0,120.0,90.0,-109.0
131.0,127.0,124.0,146.0,124.0,143.0,119.0,123.0,32.0,-103.0,-65.0,-126.0,-128.0,127.0,120.0,90.0,-109.0
131.0,128.0,124.0,145.0,123.0,143.0,119.0,123.0,32.0,-103.0,-65.0,-126.0,-128.0,127.0,120.0,90.0,-109.0
131.0,129.0,124.0,145.0,123.0,143.0,119.0,123.0,32.0,-103.0,-65.0,-126.0,-128.0,127.0,120.0,90.0,-109.0
131.0,130.0,124.0,144.0,123.0,143.0,119.0,123.0,32.0,-103.0,-65.0,-126.0,-128.0,127.0,120.0,90.0,-109.0
131.0,130.0,124.0,144.0,123.0,143.0,119.0,122.0,32.0,-103.0,-65.0,-126.0,-128.0,127.0,120.0,90.0,-109.0
131.0,129.0,124.0,144.0,122.0,143.0,119.0,122.0,32.0,-103.0,-65.0,-126.0,-128.0,127.0,120.0,90.0,-109.0
131.0,128.0,124.0,144.0,122.0,143.0,119.0,122.0,32.0,-103.0,-65.0,-126.0,-128.0,127.0,120.0,90.0,-109.0
131.0,125.0,117.0,141.0,125.0,143.0,124.0,132.0,31.0,-103.0,-65.0,-126.0,127.0,127.0,119.0,90.0,-109.0
131.0,125.0,117.0,141.0,126.0,143.0,125.0,133.0,31.0,-103.0,-65.0,-126.0,127.0,127.0,119.0,90.0,-109.0
131.0,125.0,118.0,142.0,126.0,143.0,125.0,133.0,31.0,-103.0,-65.0,-126.0,127.0,127.0,119.0,90.0,-109.0
131.0,125.0,117.0,142.0,127.0,143.0,124.0,133.0,31.0,-103.0,-65.0,-126.0,127.0,127.0,119.0,90.0,-109.0
131.0,125.0,117.0,142.0,127.0,143.0,125.0,133.0,31.0,-103.0,-65.0,-126.0,127.0,127.0,119.0,90.0,-109.0
131.0,125.0,117.0,143.0,128.0,143.0,126.0,132.0,31.0,-103.0,-65.0,-126.0,127.0,127.0,119.0,90.0,-109.0
131.0,126.0,116.0,144.0,128.0,143.0,125.0,132.0,31.0,-103.0,-65.0,-126.0,127.0,127.0,119.0,90.0,-109.0
131.0,126.0,116.0,144.0,129.0,143.0,124.0,131.0,31.0,-103.0,-65.0,-126.0,127.0,127.0,119.0,90.0,-109.0
131.0,125.0,117.0,141.0,125.0,143.0,125.0,130.0,31.0,-103.0,-65.0,-126.0,127.0,127.0,119.0,90.0,-109.0
131.0,125.0,118.0,141.0,125.0,143.0,125.0,131.0,31.0,-103.0,-65.0,-126.0,127.0,127.0,119.0,90.0,-109.0
129.0,123.0,116.0,144.0,132.0,142.0,125.0,130.0,30.0,-102.0,-67.0,-126.0,127.0,127.0,118.0,90.0,-109.0
129.0,123.0,116.0,144.0,132.0,142.0,125.0,130.0,30.0,-102.0,-67.0,-126.0,127.0,127.0,118.0,90.0,-109.0
129.0,123.0,116.0,144.0,131.0,142.0,125.0,130.0,30.0,-102.0,-67.0,-126.0,127.0,127.0,118.0,90.0,-109.0
129.0,123.0,116.0,144.0,131.0,142.0,125.0,130.0,30.0,-102.0,-67.0,-126.0,127.0,127.0,118.0,90.0,-109.0
129.0,123.0,116.0,144.0,131.0,142.0,124.0,130.0,30.0,-102.0,-67.0,-126.0,127.0,127.0,118.0,90.0,-109.0
129.0,124.0,117.0,144.0,132.0,142.0,124.0,130.0,30.0,-102.0,-67.0,-126.0,127.0,127.0,118.0,90.0,-109.0
129.0,124.0,117.0,144.0,132.0,142.0,124.0,130.0,30.0,-102.0,-67.0,-126.0,127.0,127.0,118.0,90.0,-109.0
129.0,123.0,117.0,146.0,132.0,142.0,125.0,131.0,30.0,-102.0,-67.0,-126.0,127.0,127.0,118.0,90.0,-109.0
129.0,123.0,117.0,146.0,132.0,142.0,124.0,130.0,30.0,-102.0,-67.0,-126.0,127.0,127.0,118.0,90.0,-109.0
129.0,123.0,116.0,145.0,132.0,142.0,124.0,130.0,30.0,-102.0,-67.0,-126.0,127.0,127.0,118.0,90.0,-109.0
129.0,125.0,124.0,147.0,138.0,142.0,125.0,132.0,29.0,-100.0,-68.0,-127.0,127.0,127.0,118.0,90.0,-109.0
130.0,126.0,125.0,147.0,138.0,142.0,125.0,132.0,29.0,-100.0,-68.0,-127.0,127.0,127.0,118.0,90.0,-109.0
130.0,125.0,125.0,147.0,138.0,142.0,125.0,132.0,29.0,-100.0,-68.0,-127.0,127.0,127.0,118.0,90.0,-109.0
130.0,125.0,125.0,147.0,138.0,142.0,124.0,132.0,29.0,-100.0,-68.0,-127.0,127.0,127.0,118.0,90.0,-109.0
130.0,125.0,124.0,147.0,139.0,142.0,124.0,131.0,29.0,-100.0,-68.0,-127.0,127.0,127.0,118.0,90.0,-109.0
130.0,125.0,124.0,147.0,139.0,142.0,124.0,131.0,29.0,-100.0,-68.0,-127.0,127.0,127.0,118.0,90.0,-109.0
129.0,126.0,125.0,148.0,137.0,142.0,125.0,132.0,29.0,-100.0,-68.0,-127.0,127.0,127.0,118.0,90.0,-109.0
129.0,125.0,124.0,147.0,137.0,142.0,124.0,132.0,29.0,-100.0,-68.0,-127.0,127.0,127.0,118.0,90.0,-109.0
129.0,125.0,123.0,147.0,138.0,142.0,124.0,132.0,29.0,-100.0,-68.0,-127.0,127.0,127.0,118.0,90.0,-109.0
130.0,125.0,123.0,147.0,138.0,142.0,124.0,132.0,29.0,-100.0,-68.0,-127.0,127.0,127.0,118.0,90.0,-109.0
129.0,126.0,125.0,143.0,133.0,142.0,125.0,123.0,29.0,-99.0,-70.0,-127.0,127.0,127.0,117.0,90.0,-109.0
129.0,126.0,125.0,143.0,132.0,142.0,125.0,122.0,29.0,-99.0,-70.0,-127.0,127.0,127.0,117.0,90.0,-109.0
129.0,126.0,126.0,144.0,132.0,142.0,125.0,121.0,29.0,-99.0,-70.0,-127.0,127.0,127.0,117.0,90.0,-109.0
129.0,126.0,126.0,144.0,132.0,143.0,124.0,121.0,29.0,-99.0,-70.0,-127.0,127.0,127.0,117.0,90.0,-109.0
129.0,126.0,127.0,144.0,132.0,142.0,124.0,120.0,29.0,-99.0,-70.0,-127.0,127.0,127.0,117.0,90.0,-109.0
129.0,127.0,125.0,145.0,134.0,142.0,125.0,125.0,29.0,-99.0,-70.0,-127.0,127.0,127.0,117.0,90.0,-109.0
129.0,127.0,125.0,144.0,134.0,142.0,124.0,124.0,29.0,-99.0,-70.0,-127.0,127.0,127.0,117.0,90.0,-109.0
129.0,127.0,125.0,144.0,133.0,142.0,125.0,124.0,29.0,-99.0,-70.0,-127.0,127.0,127.0,117.0,90.0,-109.0
129.0,127.0,125.0,143.0,133.0,142.0,124.0,124.0,29.0,-99.0,-70.0,-127.0,127.0,127.0,117.0,90.0,-109.0
129.0,127.0,125.0,143.0,133.0,142.0,124.0,123.0,29.0,-99.0,-70.0,-127.0,127.0,127.0,117.0,90.0,-109.0
129.0,127.0,129.0,144.0,132.0,143.0,124.0,122.0,28.0,-98.0,-71.0,-127.0,127.0,127.0,116.0,90.0,-109.0
129.0,127.0,130.0,144.0,132.0,142.0,125.0,122.0,28.0,-98.0,-71.0,-127.0,127.0,127.0,116.0,90.0,-109.0
129.0,127.0,130.0,144.0,132.0,143.0,124.0,122.0,28.0,-98.0,-71.0,-127.0,127.0,127.0,116.0,90.0,-109.0
129.0,127.0,130.0,144.0,133.0,143.0,125.0,122.0,28.0,-98.0,-71.0,-127.0,127.0,127.0,116.0,90.0,-109.0
129.0,128.0,126.0,144.0,131.0,143.0,125.0,122.0,28.0,-98.0,-71.0,-127.0,127.0,127.0,116.0,90.0,-109.0
129.0,128.0,127.0,144.0,131.0,143.0,125.0,122.0,28.0,-98.0,-71.0,-127.0,127.0,127.0,116.0,90.0,-109.0
129.0,128.0,127.0,144.0,131.0,143.0,125.0,122.0,28.0,-98.0,-71.0,-127.0,127.0,127.0,116.0,90.0,-109.0
129.0,127.0,128.0,144.0,131.0,142.0,124.0,122.0,28.0,-98.0,-71.0,-127.0,127.0,127.0,116.0,90.0,-109.0
129.0,127.0,129.0,144.0,131.0,142.0,125.0,122.0,28.0,-98.0,-71.0,-127.0,127.0,127.0,116.0,90.0,-109.0
129.0,127.0,129.0,144.0,132.0,142.0,124.0,122.0,28.0,-98.0,-71.0,-127.0,127.0,127.0,116.0,90.0,-109.0
129.0,125.0,123.0,141.0,135.0,142.0,125.0,122.0,28.0,-98.0,-71.0,-127.0,127.0,127.0,116.0,90.0,-109.0
129.0,125.0,123.0,141.0,135.0,142.0,125.0,123.0,28.0,-98.0,-71.0,-127.0,127.0,127.0,116.0,90.0,-109.0
129.0,125.0,123.0,141.0,135.0,142.0,125.0,123.0,28.0,-98.0,-71.0,-127.0,127.0,127.0,116.0,90.0,-109.0
128.0,124.0,124.0,142.0,136.0,142.0,124.0,121.0,28.0,-98.0,-71.0,-127.0,127.0,127.0,116.0,90.0,-109.0
128.0,124.0,124.0,142.0,136.0,142.0,125.0,121.0,28.0,-98.0,-71.0,-127.0,127.0,127.0,116.0,90.0,-109.0
129.0,124.0,124.0,142.0,135.0,142.0,125.0,121.0,28.0,-98.0,-71.0,-127.0,127.0,127.0,116.0,90.0,-109.0
128.0,124.0,124.0,142.0,135.0,142.0,125.0,121.0,28.0,-98.0,-71.0,-127.0,127.0,127.0,116.0,90.0,-109.0
128.0,124.0,124.0,142.0,135.0,142.0,125.0,122.0,28.0,-98.0,-71.0,-127.0,127.0,127.0,116.0,90.0,-109.0
129.0,125.0,124.0,142.0,134.0,142.0,125.0,122.0,28.0,-98.0,-71.0,-127.0,127.0,127.0,116.0,90.0,-109.0
129.0,125.0,123.0,141.0,135.0,142.0,125.0,122.0,28.0,-98.0,-71.0,-127.0,127.0,127.0,116.0,90.0,-109.0
130.0,126.0,127.0,142.0,137.0,142.0,124.0,125.0,28.0,-98.0,-72.0,-128.0,127.0,127.0,115.0,90.0,-109.0
130.0,126.0,127.0,142.0,138.0,142.0,124.0,125.0,28.0,-98.0,-72.0,-128.0,127.0,127.0,115.0,90.0,-109.0
129.0,126.0,128.0,142.0,137.0,142.0,124.0,123.0,28.0,-98.0,-72.0,-128.0,127.0,127.0,115.0,90.0,-109.0
129.0,126.0,128.0,142.0,137.0,142.0,124.0,123.0,28.0,-98.0,-72.0,-128.0,127.0,127.0,115.0,90.0,-109.0
129.0,126.0,128.0,142.0,137.0,142.0,124.0,123.0,28.0,-98.0,-72.0,-128.0,127.0,127.0,115.0,90.0,-109.0
129.0,126.0,128.0,142.0,137.0,142.0,124.0,124.0,28.0,-98.0,-72.0,-128.0,127.0,127.0,115.0,90.0,-109.0
129.0,126.0,127.0,142.0,137.0,142.0,124.0,124.0,28.0,-98.0,-72.0,-128.0,127.0,127.0,115.0,90.0,-109.0
129.0,126.0,127.0,142.0,137.0,142.0,124.0,124.0,28.0,-98.0,-72.0,-128.0,127.0,127.0,115.0,90.0,-109.0
129.0,126.0,127.0,142.0,137.0,142.0,124.0,124.0,28.0,-98.0,-72.0,-128.0,127.0,127.0,115.0,90.0,-109.0
130.0,126.0,127.0,142.0,137.0,142.0,124.0,125.0,28.0,-98.0,-72.0,-128.0,127.0,127.0,115.0,90.0,-109.0
129.0,126.0,128.0,139.0,137.0,142.0,123.0,128.0,29.0,-98.0,-72.0,-128.0,127.0,127.0,114.0,90.0,-109.0
129.0,125.0,129.0,138.0,137.0,142.0,124.0,129.0,29.0,-98.0,-72.0,-128.0,127.0,127.0,114.0,90.0,-109.0
129.0,125.0,129.0,138.0,137.0,142.0,124.0,129.0,29.0,-98.0,-72.0,-128.0,127.0,127.0,114.0,90.0,-109.0
129.0,126.0,129.0,138.0,137.0,142.0,124.0,129.0,29.0,-98.0,-72.0,-128.0,127.0,127.0,114.0,90.0,-109.0
129.0,125.0,129.0,138.0,137.0,142.0,124.0,129.0,29.0,-98.0,-72.0,-128.0,127.0,127.0,114.0,90.0,-109.0
129.0,126.0,129.0,138.0,137.0,142.0,123.0,129.0,29.0,-98.0,-72.0,-128.0,127.0,127.0,114.0,90.0,-109.0
129.0,126.0,129.0,138.0,137.0,142.0,123.0,128.0,29.0,-98.0,-72.0,-128.0,127.0,127.0,114.0,90.0,-109.0
129.0,126.0,129.0,138.0,137.0,142.0,123.0,128.0,29.0,-98.0,-72.0,-128.0,127.0,127.0,114.0,90.0,-109.0
129.0,126.0,129.0,138.0,137.0,142.0,123.0,128.0,29.0,-98.0,-72.0,-128.0,127.0,127.0,114.0,90.0,-109.0
129.0,126.0,128.0,138.0,137.0,142.0,123.0,128.0,29.0,-98.0,-72.0,-128.0,127.0,127.0,114.0,90.0,-109.0
129.0,125.0,125.0,136.0,137.0,142.0,124.0,131.0,30.0,-98.0,-72.0,-128.0,127.0,127.0,113.0,89.0,-109.0
129.0,125.0,125.0,136.0,137.0,142.0,124.0,131.0,30.0,-98.0,-72.0,-128.0,127.0,127.0,113.0,89.0,-109.0
129.0,125.0,125.0,135.0,137.0,142.0,124.0,131.0,30.0,-98.0,-72.0,-128.0,127.0,127.0,113.0,89.0,-109.0
129.0,125.0,125.0,135.0,137.0,142.0,124.0,131.0,30.0,-98.0,-72.0,-128.0,127.0,127.0,113.0,89.0,-109.0
129.0,125.0,125.0,135.0,138.0,142.0,124.0,131.0,30.0,-98.0,-72.0,-128.0,127.0,127.0,113.0,89.0,-109.0
129.0,125.0,125.0,135.0,137.0,142.0,124.0,131.0,30.0,-98.0,-72.0,-128.0,127.0,127.0,113.0,89.0,-109.0
129.0,125.0,125.0,135.0,138.0,142.0,124.0,131.0,30.0,-98.0,-72.0,-128.0,127.0,127.0,113.0,89.0,-109.0
129.0,125.0,126.0,135.0,138.0,142.0,124.0,131.0,30.0,-98.0,-72.0,-128.0,127.0,127.0,113.0,89.0,-109.0
129.0,126.0,126.0,135.0,138.0,142.0,124.0,131.0,30.0,-98.0,-72.0,-128.0,127.0,127.0,113.0,89.0,-109.0
129.0,126.0,127.0,136.0,138.0,142.0,124.0,131.0,30.0,-98.0,-72.0,-128.0,127.0,127.0,113.0,89.0,-109.0
129.0,125.0,127.0,139.0,137.0,142.0,124.0,126.0,30.0,-98.0,-73.0,-128.0,127.0,127.0,113.0,89.0,-109.0
129.0,126.0,127.0,139.0,137.0,142.0,124.0,126.0,30.0,-98.0,-73.0,-128.0,127.0,127.0,113.0,89.0,-109.0
129.0,125.0,127.0,139.0,137.0,142.0,124.0,126.0,30.0,-98.0,-73.0,-128.0,127.0,127.0,113.0,89.0,-109.0
129.0,125.0,127.0,139.0,137.0,142.0,124.0,125.0,30.0,-98.0,-73.0,-128.0,127.0,127.0,113.0,89.0,-109.0
129.0,125.0,127.0,139.0,137.0,142.0,124.0,125.0,30.0,-98.0,-73.0,-128.0,127.0,127.0,113.0,89.0,-109.0
129.0,125.0,127.0,139.0,137.0,142.0,124.0,125.0,30.0,-98.0,-73.0,-128.0,127.0,127.0,113.0,89.0,-109.0
129.0,125.0,127.0,139.0,137.0,142.0,124.0,125.0,30.0,-98.0,-73.0,-128.0,127.0,127.0,113.0,89.0,-109.0
129.0,125.0,127.0,139.0,137.0,142.0,124.0,125.0,30.0,-98.0,-73.0,-128.0,127.0,127.0,113.0,89.0,-109.0
129.0,126.0,127.0,139.0,137.0,142.0,124.0,125.0,30.0,-98.0,-73.0,-128.0,127.0,127.0,113.0,89.0,-109.0
129.0,126.0,127.0,139.0,137.0,142.0,124.0,126.0,30.0,-98.0,-73.0,-128.0,127.0,127.0,113.0,89.0,-109.0
129.0,125.0,129.0,138.0,134.0,142.0,124.0,121.0,31.0,-98.0,-73.0,127.0,127.0,127.0,112.0,89.0,-109.0
129.0,125.0,129.0,138.0,134.0,142.0,124.0,121.0,31.0,-98.0,-73.0,127.0,127.0,127.0,112.0,89.0,-109.0
129.0,125.0,129.0,138.0,134.0,142.0,123.0,121.0,31.0,-98.0,-73.0,127.0,127.0,127.0,112.0,89.0,-109.0
129.0,125.0,129.0,138.0,134.0,142.0,123.0,121.0,31.0,-98.0,-73.0,127.0,127.0,127.0,112.0,89.0,-109.0
129.0,125.0,129.0,138.0,134.0,142.0,123.0,121.0,31.0,-98.0,-73.0,127.0,127.0,127.0,112.0,89.0,-109.0
129.0,125.0,128.0,138.0,134.0,142.0,123.0,121.0,31.0,-98.0,-73.0,127.0,127.0,127.0,112.0,89.0,-109.0
129.0,125.0,128.0,138.0,134.0,141.0,123.0,121.0,31.0,-98.0,-73.0,127.0,127.0,127.0,112.0,89.0,-109.0
129.0,126.0,128.0,138.0,134.0,141.0,123.0,121.0,31.0,-98.0,-73.0,127.0,127.0,127.0,112.0,89.0,-109.0
129.0,125.0,129.0,138.0,134.0,142.0,124.0,121.0,31.0,-98.0,-73.0,127.0,127.0,127.0,112.0,89.0,-109.0
129.0,125.0,129.0,138.0,134.0,142.0,124.0,121.0,31.0,-98.0,-73.0,127.0,127.0,127.0,112.0,89.0,-109.0
129.0,125.0,128.0,135.0,130.0,141.0,121.0,121.0,31.0,-98.0,-73.0,127.0,127.0,127.0,111.0,89.0,-109.0
129.0,125.0,128.0,135.0,130.0,140.0,121.0,121.0,31.0,-98.0,-73.0,127.0,127.0,127.0,111.0,89.0,-109.0
129.0,125.0,128.0,135.0,130.0,140.0,121.0,121.0,31.0,-98.0,-73.0,127.0,127.0,127.0,111.0,89.0,-109.0
129.0,125.0,128.0,135.0,130.0,140.0,121.0,121.0,31.0,-98.0,-73.0,127.0,127.0,127.0,111.0,89.0,-109.0
129.0,125.0,128.0,135.0,130.0,140.0,121.0,121.0,31.0,-98.0,-73.0,127.0,127.0,127.0,111.0,89.0,-109.0
129.0,125.0,128.0,135.0,130.0,140.0,120.0,121.0,31.0,-98.0,-73.0,127.0,127.0,127.0,111.0,89.0,-109.0
129.0,125.0,128.0,135.0,130.0,140.0,120.0,121.0,31.0,-98.0,-73.0,127.0,127.0,127.0,111.0,89.0,-109.0
129.0,125.0,128.0,136.0,130.0,141.0,121.0,121.0,31.0,-98.0,-73.0,127.0,127.0,127.0,111.0,89.0,-109.0
129.0,125.0,128.0,135.0,130.0,141.0,121.0,121.0,31.0,-98.0,-73.0,127.0,127.0,127.0,111.0,89.0,-109.0
129.0,125.0,128.0,135.0,130.0,141.0,121.0,121.0,31.0,-98.0,-73.0,127.0,127.0,127.0,111.0,89.0,-109.0
129.0,125.0,128.0,132.0,130.0,138.0,118.0,121.0,31.0,-97.0,-73.0,127.0,127.0,127.0,111.0,89.0,-109.0
129.0,125.0,128.0,132.0,130.0,138.0,118.0,121.0,31.0,-97.0,-73.0,127.0,127.0,127.0,111.0,89.0,-109.0
129.0,125.0,128.0,132.0,130.0,138.0,118.0,120.0,31.0,-97.0,-73.0,127.0,127.0,127.0,111.0,89.0,-109.0
129.0,125.0,128.0,131.0,130.0,138.0,118.0,120.0,31.0,-97.0,-73.0,127.0,127.0,127.0,111.0,89.0,-109.0
129.0,125.0,128.0,132.0,130.0,138.0,118.0,120.0,31.0,-97.0,-73.0,127.0,127.0,127.0,111.0,89.0,-109.0
129.0,125.0,128.0,132.0,130.0,139.0,118.0,121.0,31.0,-97.0,-73.0,127.0,127.0,127.0,111.0,89.0,-109.0
129.0,124.0,128.0,132.0,130.0,138.0,118.0,121.0,31.0,-97.0,-73.0,127.0,127.0,127.0,111.0,89.0,-109.0
129.0,125.0,128.0,132.0,130.0,139.0,118.0,121.0,31.0,-97.0,-73.0,127.0,127.0,127.0,111.0,89.0,-109.0
129.0,125.0,128.0,132.0,130.0,138.0,118.0,121.0,31.0,-97.0,-73.0,127.0,127.0,127.0,111.0,89.0,-109.0
129.0,125.0,128.0,132.0,130.0,138.0,118.0,121.0,31.0,-97.0,-73.0,127.0,127.0,127.0,111.0,89.0,-109.0
129.0,125.0,127.0,133.0,130.0,137.0,114.0,121.0,31.0,-97.0,-73.0,127.0,127.0,127.0,110.0,89.0,-109.0
129.0,125.0,127.0,133.0,130.0,136.0,114.0,121.0,31.0,-97.0,-73.0,127.0,127.0,127.0,110.0,89.0,-109.0
129.0,125.0,127.0,133.0,131.0,137.0,115.0,120.0,31.0,-97.0,-73.0,127.0,127.0,127.0,110.0,89.0,-109.0
129.0,125.0,127.0,133.0,131.0,137.0,115.0,121.0,31.0,-97.0,-73.0,127.0,127.0,127.0,110.0,89.0,-109.0
129.0,125.0,127.0,133.0,131.0,137.0,115.0,121.0,31.0,-97.0,-73.0,127.0,127.0,127.0,110.0,89.0,-109.0
129.0,125.0,126.0,133.0,130.0,137.0,115.0,121.0,31.0,-97.0,-73.0,127.0,127.0,127.0,110.0,89.0,-109.0
129.0,125.0,126.0,133.0,130.0,137.0,115.0,120.0,31.0,-97.0,-73.0,127.0,127.0,127.0,110.0,89.0,-109.0
129.0,125.0,127.0,133.0,130.0,137.0,115.0,121.0,31.0,-97.0,-73.0,127.0,127.0,127.0,110.0,89.0,-109.0
129.0,125.0,127.0,133.0,130.0,137.0,115.0,121.0,31.0,-97.0,-73.0,127.0,127.0,127.0,110.0,89.0,-109.0
129.0,125.0,127.0,133.0,130.0,137.0,115.0,121.0,31.0,-97.0,-73.0,127.0,127.0,127.0,110.0,89.0,-109.0
128.0,125.0,126.0,134.0,133.0,132.0,115.0,121.0,31.0,-96.0,-72.0,126.0,127.0,127.0,109.0,89.0,-109.0
128.0,125.0,126.0,133.0,133.0,132.0,115.0,121.0,31.0,-96.0,-72.0,126.0,127.0,127.0,109.0,89.0,-109.0
128.0,125.0,126.0,134.0,133.0,132.0,115.0,121.0,31.0,-96.0,-72.0,126.0,127.0,127.0,109.0,89.0,-109.0
128.0,125.0,126.0,132.0,132.0,133.0,117.0,121.0,31.0,-96.0,-72.0,126.0,127.0,127.0,109.0,89.0,-109.0
128.0,125.0,126.0,133.0,132.0,133.0,117.0,121.0,31.0,-96.0,-72.0,126.0,127.0,127.0,109.0,89.0,-109.0
128.0,125.0,126.0,133.0,133.0,133.0,116.0,121.0,31.0,-96.0,-72.0,126.0,127.0,127.0,109.0,89.0,-109.0
128.0,125.0,126.0,133.0,133.0,133.0,116.0,121.0,31.0,-96.0,-72.0,126.0,127.0,127.0,109.0,89.0,-109.0
128.0,125.0,126.0,133.0,133.0,133.0,116.0,121.0,31.0,-96.0,-72.0,126.0,127.0,127.0,109.0,89.0,-109.0
128.0,125.0,126.0,133.0,133.0,133.0,116.0,121.0,31.0,-96.0,-72.0,126.0,127.0,127.0,109.0,89.0,-109.0
128.0,125.0,126.0,133.0,133.0,132.0,115.0,121.0,31.0,-96.0,-72.0,126.0,127.0,127.0,109.0,89.0,-109.0
128.0,125.0,125.0,129.0,119.0,73.0,68.0,123.0,31.0,-96.0,-71.0,126.0,126.0,127.0,109.0,89.0,-109.0
128.0,125.0,125.0,130.0,119.0,71.0,67.0,123.0,31.0,-96.0,-71.0,126.0,126.0,127.0,109.0,89.0,-109.0
128.0,125.0,124.0,130.0,121.0,89.0,79.0,123.0,31.0,-96.0,-71.0,126.0,126.0,127.0,109.0,89.0,-109.0
128.0,124.0,124.0,130.0,121.0,87.0,78.0,123.0,31.0,-96.0,-71.0,126.0,126.0,127.0,109.0,89.0,-109.0
128.0,124.0,124.0,129.0,121.0,85.0,79.0,122.0,31.0,-96.0,-71.0,126.0,126.0,127.0,109.0,89.0,-109.0
128.0,124.0,124.0,129.0,120.0,83.0,77.0,123.0,31.0,-96.0,-71.0,126.0,126.0,127.0,109.0,89.0,-109.0
128.0,124.0,124.0,129.0,120.0,81.0,74.0,123.0,31.0,-96.0,-71.0,126.0,126.0,127.0,109.0,89.0,-109.0
128.0,124.0,124.0,129.0,120.0,79.0,73.0,123.0,31.0,-96.0,-71.0,126.0,126.0,127.0,109.0,89.0,-109.0
128.0,125.0,124.0,129.0,119.0,77.0,74.0,123.0,31.0,-96.0,-71.0,126.0,126.0,127.0,109.0,89.0,-109.0
128.0,125.0,125.0,129.0,119.0,75.0,71.0,123.0,31.0,-96.0,-71.0,126.0,126.0,127.0,109.0,89.0,-109.0
128.0,125.0,125.0,128.0,113.0,4.0,28.0,123.0,31.0,-96.0,-71.0,126.0,126.0,127.0,108.0,89.0,-109.0
128.0,124.0,126.0,129.0,112.0,5.0,30.0,124.0,31.0,-96.0,-71.0,126.0,126.0,127.0,108.0,89.0,-109.0
128.0,124.0,126.0,129.0,112.0,5.0,29.0,123.0,31.0,-96.0,-71.0,126.0,126.0,127.0,108.0,89.0,-109.0
128.0,124.0,126.0,128.0,112.0,5.0,29.0,123.0,31.0,-96.0,-71.0,126.0,126.0,127.0,108.0,89.0,-109.0
128.0,125.0,126.0,128.0,112.0,5.0,29.0,123.0,31.0,-96.0,-71.0,126.0,126.0,127.0,108.0,89.0,-109.0
128.0,124.0,126.0,128.0,112.0,5.0,29.0,123.0,31.0,-96.0,-71.0,126.0,126.0,127.0,108.0,89.0,-109.0
128.0,124.0,126.0,128.0,112.0,5.0,29.0,123.0,31.0,-96.0,-71.0,126.0,126.0,127.0,108.0,89.0,-109.0
128.0,124.0,126.0,128.0,112.0,4.0,28.0,123.0,31.0,-96.0,-71.0,126.0,126.0,127.0,108.0,89.0,-109.0
128.0,124.0,125.0,128.0,112.0,4.0,28.0,124.0,31.0,-96.0,-71.0,126.0,126.0,127.0,108.0,89.0,-109.0
128.0,124.0,125.0,128.0,112.0,4.0,28.0,123.0,31.0,-96.0,-71.0,126.0,126.0,127.0,108.0,89.0,-109.0
129.0,125.0,128.0,132.0,120.0,40.0,47.0,126.0,31.0,-95.0,-71.0,125.0,126.0,127.0,108.0,89.0,-109.0
129.0,125.0,128.0,132.0,120.0,42.0,48.0,126.0,31.0,-95.0,-71.0,125.0,126.0,127.0,108.0,89.0,-109.0
129.0,125.0,128.0,131.0,120.0,44.0,50.0,126.0,31.0,-95.0,-71.0,125.0,126.0,127.0,108.0,89.0,-109.0
129.0,125.0,128.0,131.0,121.0,46.0,53.0,126.0,31.0,-95.0,-71.0,125.0,126.0,127.0,108.0,89.0,-109.0
129.0,126.0,128.0,131.0,121.0,48.0,51.0,126.0,31.0,-95.0,-71.0,125.0,126.0,127.0,108.0,89.0,-109.0
129.0,126.0,128.0,131.0,121.0,50.0,53.0,126.0,31.0,-95.0,-71.0,125.0,126.0,127.0,108.0,89.0,-109.0
129.0,125.0,128.0,131.0,121.0,52.0,55.0,126.0,31.0,-95.0,-71.0,125.0,126.0,127.0,108.0,89.0,-109.0
129.0,125.0,128.0,131.0,122.0,54.0,58.0,126.0,31.0,-95.0,-71.0,125.0,126.0,127.0,108.0,89.0,-109.0
129.0,126.0,128.0,131.0,122.0,56.0,57.0,126.0,31.0,-95.0,-71.0,125.0,126.0,127.0,108.0,89.0,-109.0
129.0,126.0,128.0,131.0,123.0,58.0,57.0,126.0,31.0,-95.0,-71.0,125.0,126.0,127.0,108.0,89.0,-109.0
128.0,126.0,126.0,126.0,128.0,112.0,95.0,127.0,31.0,-94.0,-71.0,125.0,126.0,127.0,108.0,89.0,-109.0
128.0,126.0,126.0,126.0,128.0,113.0,96.0,127.0,31.0,-94.0,-71.0,125.0,126.0,127.0,108.0,89.0,-109.0
128.0,126.0,126.0,126.0,129.0,114.0,97.0,127.0,31.0,-94.0,-71.0,125.0,126.0,127.0,108.0,89.0,-109.0
128.0,125.0,126.0,126.0,129.0,114.0,98.0,127.0,31.0,-94.0,-71.0,125.0,126.0,127.0,108.0,89.0,-109.0
128.0,125.0,126.0,126.0,129.0,115.0,99.0,127.0,31.0,-94.0,-71.0,125.0,126.0,127.0,108.0,89.0,-109.0
128.0,125.0,126.0,126.0,129.0,115.0,100.0,127.0,31.0,-94.0,-71.0,125.0,126.0,127.0,108.0,89.0,-109.0
128.0,125.0,126.0,126.0,129.0,116.0,101.0,127.0,31.0,-94.0,-71.0,125.0,126.0,127.0,108.0,89.0,-109.0
128.0,125.0,126.0,126.0,129.0,116.0,102.0,127.0,31.0,-94.0,-71.0,125.0,126.0,127.0,108.0,89.0,-109.0
128.0,125.0,126.0,126.0,130.0,116.0,102.0,127.0,31.0,-94.0,-71.0,125.0,126.0,127.0,108.0,89.0,-109.0
128.0,126.0,126.0,126.0,128.0,112.0,95.0,127.0,31.0,-94.0,-71.0,125.0,126.0,127.0,108.0,89.0,-109.0
127.0,125.0,126.0,119.0,138.0,125.0,110.0,128.0,31.0,-95.0,-70.0,125.0,126.0,127.0,108.0,89.0,-109.0
127.0,126.0,126.0,118.0,139.0,125.0,110.0,128.0,31.0,-95.0,-70.0,125.0,126.0,127.0,108.0,89.0,-109.0
128.0,126.0,126.0,118.0,139.0,125.0,110.0,128.0,31.0,-95.0,-70.0,125.0,126.0,127.0,108.0,89.0,-109.0
128.0,126.0,126.0,118.0,139.0,125.0,109.0,128.0,31.0,-95.0,-70.0,125.0,126.0,127.0,108.0,89.0,-109.0
128.0,126.0,126.0,118.0,139.0,125.0,109.0,128.0,31.0,-95.0,-70.0,125.0,126.0,127.0,108.0,89.0,-109.0
128.0,126.0,126.0,117.0,139.0,124.0,109.0,128.0,31.0,-95.0,-70.0,125.0,126.0,127.0,108.0,89.0,-109.0
127.0,126.0,126.0,117.0,138.0,124.0,109.0,128.0,31.0,-95.0,-70.0,125.0,126.0,127.0,108.0,89.0,-109.0
127.0,127.0,126.0,117.0,138.0,124.0,108.0,128.0,31.0,-95.0,-70.0,125.0,126.0,127.0,108.0,89.0,-109.0
127.0,125.0,125.0,119.0,138.0,125.0,110.0,128.0,31.0,-95.0,-70.0,125.0,126.0,127.0,108.0,89.0,-109.0
127.0,125.0,125.0,119.0,138.0,125.0,110.0,128.0,31.0,-95.0,-70.0,125.0,126.0,127.0,108.0,89.0,-109.0
127.0,125.0,126.0,115.0,133.0,114.0,98.0,128.0,31.0,-95.0,-70.0,124.0,126.0,127.0,108.0,89.0,-109.0
127.0,125.0,126.0,115.0,133.0,114.0,97.0,128.0,31.0,-95.0,-70.0,124.0,126.0,127.0,108.0,89.0,-109.0
127.0,125.0,126.0,114.0,133.0,114.0,97.0,128.0,31.0,-95.0,-70.0,124.0,126.0,127.0,108.0,89.0,-109.0
127.0,125.0,126.0,114.0,133.0,114.0,97.0,128.0,31.0,-95.0,-70.0,124.0,126.0,127.0,108.0,89.0,-109.0
127.0,125.0,126.0,114.0,133.0,114.0,97.0,128.0,31.0,-95.0,-70.0,124.0,126.0,127.0,108.0,89.0,-109.0
127.0,125.0,126.0,114.0,133.0,113.0,97.0,128.0,31.0,-95.0,-70.0,124.0,126.0,127.0,108.0,89.0,-109.0
127.0,125.0,127.0,114.0,133.0,114.0,97.0,128.0,31.0,-95.0,-70.0,124.0,126.0,127.0,108.0,89.0,-109.0
127.0,125.0,127.0,115.0,133.0,114.0,99.0,128.0,31.0,-95.0,-70.0,124.0,126.0,127.0,108.0,89.0,-109.0
127.0,125.0,127.0,115.0,133.0,114.0,99.0,128.0,31.0,-95.0,-70.0,124.0,126.0,127.0,108.0,89.0,-109.0
127.0,125.0,127.0,115.0,133.0,114.0,98.0,128.0,31.0,-95.0,-70.0,124.0,126.0,127.0,108.0,89.0,-109.0
128.0,126.0,129.0,108.0,135.0,114.0,98.0,129.0,32.0,-97.0,-69.0,124.0,126.0,127.0,108.0,89.0,-109.0
128.0,126.0,129.0,108.0,135.0,114.0,98.0,128.0,32.0,-97.0,-69.0,124.0,126.0,127.0,108.0,89.0,-109.0
128.0,126.0,128.0,108.0,135.0,114.0,98.0,128.0,32.0,-97.0,-69.0,124.0,126.0,127.0,108.0,89.0,-109.0
128.0,126.0,127.0,107.0,135.0,114.0,97.0,128.0,32.0,-97.0,-69.0,124.0,126.0,127.0,108.0,89.0,-109.0
128.0,126.0,127.0,107.0,135.0,114.0,97.0,128.0,32.0,-97.0,-69.0,124.0,126.0,127.0,108.0,89.0,-109.0
128.0,126.0,126.0,107.0,135.0,114.0,98.0,128.0,32.0,-97.0,-69.0,124.0,126.0,127.0,108.0,89.0,-109.0
128.0,127.0,129.0,109.0,135.0,114.0,99.0,129.0,32.0,-97.0,-69.0,124.0,126.0,127.0,108.0,89.0,-109.0
128.0,126.0,129.0,108.0,135.0,114.0,99.0,129.0,32.0,-97.0,-69.0,124.0,126.0,127.0,108.0,89.0,-109.0
128.0,126.0,129.0,108.0,135.0,114.0,98.0,129.0,32.0,-97.0,-69.0,124.0,126.0,127.0,108.0,89.0,-109.0
128.0,126.0,129.0,108.0,135.0,114.0,98.0,129.0,32.0,-97.0,-69.0,124.0,126.0,127.0,108.0,89.0,-109.0
128.0,126.0,125.0,91.0,136.0,115.0,99.0,129.0,33.0,-98.0,-68.0,124.0,126.0,127.0,108.0,89.0,-109.0
127.0,126.0,125.0,91.0,136.0,114.0,99.0,129.0,33.0,-98.0,-68.0,124.0,126.0,127.0,108.0,89.0,-109.0
128.0,126.0,125.0,91.0,136.0,114.0,99.0,129.0,33.0,-98.0,-68.0,124.0,126.0,127.0,108.0,89.0,-109.0
127.0,125.0,125.0,91.0,136.0,114.0,99.0,129.0,33.0,-98.0,-68.0,124.0,126.0,127.0,108.0,89.0,-109.0
128.0,125.0,125.0,91.0,136.0,114.0,100.0,129.0,33.0,-98.0,-68.0,124.0,126.0,127.0,108.0,89.0,-109.0
128.0,126.0,126.0,92.0,136.0,115.0,100.0,129.0,33.0,-98.0,-68.0,124.0,126.0,127.0,108.0,89.0,-109.0
128.0,126.0,126.0,92.0,137.0,115.0,99.0,129.0,33.0,-98.0,-68.0,124.0,126.0,127.0,108.0,89.0,-109.0
128.0,126.0,126.0,92.0,136.0,115.0,99.0,129.0,33.0,-98.0,-68.0,124.0,126.0,127.0,108.0,89.0,-109.0
128.0,126.0,126.0,92.0,136.0,115.0,99.0,129.0,33.0,-98.0,-68.0,124.0,126.0,127.0,108.0,89.0,-109.0
128.0,126.0,126.0,91.0,136.0,115.0,99.0,129.0,33.0,-98.0,-68.0,124.0,126.0,127.0,108.0,89.0,-109.0
128.0,127.0,127.0,90.0,131.0,114.0,98.0,129.0,34.0,-100.0,-67.0,124.0,126.0,-128.0,108.0,89.0,-109.0
128.0,127.0,127.0,91.0,131.0,114.0,98.0,129.0,34.0,-100.0,-67.0,124.0,126.0,-128.0,108.0,89.0,-109.0
128.0,127.0,127.0,91.0,131.0,114.0,98.0,129.0,34.0,-100.0,-67.0,124.0,126.0,-128.0,108.0,89.0,-109.0
128.0,127.0,127.0,91.0,131.0,114.0,98.0,129.0,34.0,-100.0,-67.0,124.0,126.0,-128.0,108.0,89.0,-109.0
128.0,127.0,129.0,91.0,131.0,114.0,98.0,129.0,34.0,-100.0,-67.0,124.0,126.0,-128.0,108.0,89.0,-109.0
128.0,127.0,128.0,91.0,131.0,114.0,98.0,129.0,34.0,-100.0,-67.0,124.0,126.0,-128.0,108.0,89.0,-109.0
128.0,127.0,128.0,91.0,131.0,114.0,98.0,129.0,34.0,-100.0,-67.0,124.0,126.0,-128.0,108.0,89.0,-109.0
128.0,127.0,128.0,91.0,131.0,114.0,99.0,129.0,34.0,-100.0,-67.0,124.0,126.0,-128.0,108.0,89.0,-109.0
128.0,127.0,127.0,91.0,131.0,114.0,99.0,129.0,34.0,-100.0,-67.0,124.0,126.0,-128.0,108.0,89.0,-109.0
128.0,127.0,127.0,91.0,131.0,114.0,98.0,129.0,34.0,-100.0,-67.0,124.0,126.0,-128.0,108.0,89.0,-109.0
127.0,127.0,119.0,97.0,126.0,114.0,98.0,127.0,35.0,-101.0,-66.0,124.0,126.0,-128.0,108.0,89.0,-109.0
127.0,127.0,119.0,97.0,126.0,114.0,99.0,127.0,35.0,-101.0,-66.0,124.0,126.0,-128.0,108.0,89.0,-109.0
127.0,127.0,119.0,98.0,126.0,114.0,98.0,127.0,35.0,-101.0,-66.0,124.0,126.0,-128.0,108.0,89.0,-109.0
127.0,126.0,120.0,96.0,126.0,114.0,99.0,127.0,35.0,-101.0,-66.0,124.0,126.0,-128.0,108.0,89.0,-109.0
127.0,126.0,120.0,96.0,126.0,114.0,99.0,127.0,35.0,-101.0,-66.0,124.0,126.0,-128.0,108.0,89.0,-109.0
127.0,126.0,119.0,96.0,126.0,114.0,99.0,127.0,35.0,-101.0,-66.0,124.0,126.0,-128.0,108.0,89.0,-109.0
127.0,126.0,119.0,97.0,126.0,114.0,99.0,127.0,35.0,-101.0,-66.0,124.0,126.0,-128.0,108.0,89.0,-109.0
127.0,127.0,119.0,97.0,126.0,114.0,98.0,127.0,35.0,-101.0,-66.0,124.0,126.0,-128.0,108.0,89.0,-109.0
127.0,127.0,119.0,97.0,126.0,114.0,98.0,127.0,35.0,-101.0,-66.0,124.0,126.0,-128.0,108.0,89.0,-109.0
127.0,127.0,119.0,97.0,126.0,114.0,98.0,127.0,35.0,-101.0,-66.0,124.0,126.0,-128.0,108.0,89.0,-109.0
126.0,126.0,123.0,108.0,126.0,116.0,102.0,128.0,36.0,-102.0,-64.0,124.0,126.0,-128.0,108.0,89.0,-109.0
126.0,126.0,123.0,108.0,126.0,116.0,103.0,128.0,36.0,-102.0,-64.0,124.0,126.0,-128.0,108.0,89.0,-109.0
126.0,126.0,122.0,107.0,126.0,116.0,102.0,128.0,36.0,-102.0,-64.0,124.0,126.0,-128.0,108.0,89.0,-109.0
126.0,126.0,122.0,107.0,126.0,116.0,103.0,128.0,36.0,-102.0,-64.0,124.0,126.0,-128.0,108.0,89.0,-109.0
126.0,126.0,122.0,107.0,126.0,116.0,102.0,128.0,36.0,-102.0,-64.0,124.0,126.0,-128.0,108.0,89.0,-109.0
126.0,126.0,122.0,107.0,126.0,116.0,103.0,128.0,36.0,-102.0,-64.0,124.0,126.0,-128.0,108.0,89.0,-109.0
126.0,126.0,122.0,107.0,126.0,116.0,103.0,128.0,36.0,-102.0,-64.0,124.0,126.0,-128.0,108.0,89.0,-109.0
126.0,126.0,122.0,107.0,126.0,116.0,103.0,128.0,36.0,-102.0,-64.0,124.0,126.0,-128.0,108.0,89.0,-109.0
126.0,126.0,122.0,108.0,126.0,116.0,103.0,128.0,36.0,-102.0,-64.0,124.0,126.0,-128.0,108.0,89.0,-109.0
126.0,126.0,123.0,108.0,126.0,116.0,102.0,128.0,36.0,-102.0,-64.0,124.0,126.0,-128.0,108.0,89.0,-109.0
127.0,127.0,130.0,113.0,127.0,123.0,107.0,127.0,37.0,-103.0,-63.0,124.0,126.0,-128.0,108.0,89.0,-109.0
127.0,127.0,129.0,113.0,126.0,122.0,105.0,128.0,37.0,-103.0,-63.0,124.0,126.0,-128.0,108.0,89.0,-109.0
127.0,127.0,129.0,112.0,127.0,122.0,105.0,128.0,37.0,-103.0,-63.0,124.0,126.0,-128.0,108.0,89.0,-109.0
127.0,127.0,129.0,112.0,127.0,122.0,105.0,128.0,37.0,-103.0,-63.0,124.0,126.0,-128.0,108.0,89.0,-109.0
127.0,127.0,129.0,112.0,127.0,123.0,105.0,128.0,37.0,-103.0,-63.0,124.0,126.0,-128.0,108.0,89.0,-109.0
127.0,127.0,130.0,112.0,127.0,123.0,105.0,128.0,37.0,-103.0,-63.0,124.0,126.0,-128.0,108.0,89.0,-109.0
127.0,127.0,130.0,112.0,127.0,123.0,106.0,128.0,37.0,-103.0,-63.0,124.0,126.0,-128.0,108.0,89.0,-109.0
127.0,127.0,130.0,112.0,127.0,123.0,106.0,127.0,37.0,-103.0,-63.0,124.0,126.0,-128.0,108.0,89.0,-109.0
127.0,127.0,130.0,112.0,127.0,123.0,106.0,127.0,37.0,-103.0,-63.0,124.0,126.0,-128.0,108.0,89.0,-109.0
127.0,127.0,130.0,113.0,127.0,123.0,106.0,127.0,37.0,-103.0,-63.0,124.0,126.0,-128.0,108.0,89.0,-109.0
127.0,127.0,134.0,117.0,126.0,124.0,109.0,125.0,38.0,-104.0,-62.0,124.0,126.0,-128.0,108.0,89.0,-109.0
127.0,127.0,134.0,117.0,127.0,124.0,108.0,125.0,38.0,-104.0,-62.0,124.0,126.0,-128.0,108.0,89.0,-109.0
127.0,128.0,134.0,117.0,127.0,124.0,108.0,125.0,38.0,-104.0,-62.0,124.0,126.0,-128.0,108.0,89.0,-109.0
127.0,127.0,134.0,118.0,127.0,124.0,108.0,125.0,38.0,-104.0,-62.0,124.0,126.0,-128.0,108.0,89.0,-109.0
127.0,127.0,134.0,118.0,127.0,124.0,108.0,125.0,38.0,-104.0,-62.0,124.0,126.0,-128.0,108.0,89.0,-109.0
127.0,127.0,134.0,118.0,127.0,124.0,108.0,125.0,38.0,-104.0,-62.0,124.0,126.0,-128.0,108.0,89.0,-109.0
127.0,127.0,134.0,118.0,127.0,124.0,109.0,125.0,38.0,-104.0,-62.0,124.0,126.0,-128.0,108.0,89.0,-109.0
127.0,128.0,134.0,118.0,127.0,124.0,108.0,125.0,38.0,-104.0,-62.0,124.0,126.0,-128.0,108.0,89.0,-109.0
127.0,128.0,134.0,119.0,127.0,124.0,108.0,125.0,38.0,-104.0,-62.0,124.0,126.0,-128.0,108.0,89.0,-109.0
127.0,128.0,134.0,119.0,127.0,124.0,109.0,125.0,38.0,-104.0,-62.0,124.0,126.0,-128.0,108.0,89.0,-109.0
126.0,126.0,133.0,120.0,128.0,127.0,112.0,124.0,38.0,-105.0,-60.0,124.0,126.0,-128.0,108.0,89.0,-109.0
126.0,126.0,133.0,120.0,128.0,126.0,112.0,124.0,38.0,-105.0,-60.0,124.0,126.0,-128.0,108.0,89.0,-109.0
126.0,126.0,133.0,120.0,128.0,126.0,112.0,124.0,38.0,-105.0,-60.0,124.0,126.0,-128.0,108.0,89.0,-109.0
126.0,126.0,133.0,120.0,128.0,126.0,112.0,124.0,38.0,-105.0,-60.0,124.0,126.0,-128.0,108.0,89.0,-109.0
126.0,126.0,133.0,120.0,128.0,126.0,112.0,124.0,38.0,-105.0,-60.0,124.0,126.0,-128.0,108.0,89.0,-109.0
126.0,126.0,133.0,120.0,128.0,126.0,112.0,124.0,38.0,-105.0,-60.0,124.0,126.0,-128.0,108.0,89.0,-109.0
126.0,126.0,133.0,120.0,127.0,126.0,112.0,124.0,38.0,-105.0,-60.0,124.0,126.0,-128.0,108.0,89.0,-109.0
126.0,127.0,134.0,120.0,127.0,126.0,112.0,124.0,38.0,-105.0,-60.0,124.0,126.0,-128.0,108.0,89.0,-109.0
126.0,127.0,134.0,120.0,127.0,126.0,111.0,124.0,38.0,-105.0,-60.0,124.0,126.0,-128.0,108.0,89.0,-109.0
126.0,126.0,133.0,120.0,128.0,127.0,112.0,124.0,38.0,-105.0,-60.0,124.0,126.0,-128.0,108.0,89.0,-109.0
126.0,127.0,133.0,121.0,125.0,122.0,106.0,125.0,39.0,-107.0,-59.0,125.0,126.0,-128.0,108.0,89.0,-109.0
126.0,127.0,133.0,121.0,125.0,122.0,106.0,125.0,39.0,-107.0,-59.0,125.0,126.0,-128.0,108.0,89.0,-109.0
126.0,127.0,133.0,121.0,125.0,122.0,105.0,125.0,39.0,-107.0,-59.0,125.0,126.0,-128.0,108.0,89.0,-109.0
126.0,127.0,133.0,121.0,125.0,122.0,104.0,125.0,39.0,-107.0,-59.0,125.0,126.0,-128.0,108.0,89.0,-109.0
126.0,127.0,133.0,121.0,125.0,122.0,104.0,125.0,39.0,-107.0,-59.0,125.0,126.0,-128.0,108.0,89.0,-109.0
126.0,127.0,133.0,121.0,125.0,122.0,105.0,125.0,39.0,-107.0,-59.0,125.0,126.0,-128.0,108.0,89.0,-109.0
126.0,127.0,133.0,121.0,125.0,122.0,104.0,125.0,39.0,-107.0,-59.0,125.0,126.0,-128.0,108.0,89.0,-109.0
126.0,127.0,133.0,121.0,125.0,122.0,105.0,125.0,39.0,-107.0,-59.0,125.0,126.0,-128.0,108.0,89.0,-109.0
126.0,127.0,133.0,121.0,125.0,123.0,105.0,125.0,39.0,-107.0,-59.0,125.0,126.0,-128.0,108.0,89.0,-109.0
126.0,127.0,133.0,121.0,125.0,122.0,105.0,125.0,39.0,-107.0,-59.0,125.0,126.0,-128.0,108.0,89.0,-109.0
126.0,127.0,131.0,122.0,125.0,122.0,105.0,125.0,40.0,-107.0,-58.0,125.0,126.0,-128.0,109.0,89.0,-109.0
126.0,127.0,131.0,122.0,125.0,122.0,104.0,124.0,40.0,-107.0,-58.0,125.0,126.0,-128.0,109.0,89.0,-109.0
126.0,127.0,131.0,122.0,126.0,122.0,104.0,124.0,40.0,-107.0,-58.0,125.0,126.0,-128.0,109.0,89.0,-109.0
126.0,127.0,132.0,122.0,126.0,122.0,104.0,124.0,40.0,-107.0,-58.0,125.0,126.0,-128.0,109.0,89.0,-109.0
126.0,127.0,132.0,122.0,126.0,122.0,104.0,124.0,40.0,-107.0,-58.0,125.0,126.0,-128.0,109.0,89.0,-109.0
126.0,127.0,132.0,122.0,126.0,122.0,104.0,124.0,40.0,-107.0,-58.0,125.0,126.0,-128.0,109.0,89.0,-109.0
126.0,127.0,132.0,122.0,126.0,122.0,105.0,124.0,40.0,-107.0,-58.0,125.0,126.0,-128.0,109.0,89.0,-109.0
126.0,127.0,130.0,123.0,125.0,122.0,104.0,125.0,40.0,-107.0,-58.0,125.0,126.0,-128.0,109.0,89.0,-109.0
126.0,127.0,130.0,123.0,125.0,122.0,105.0,125.0,40.0,-107.0,-58.0,125.0,126.0,-128.0,109.0,89.0,-109.0
126.0,127.0,131.0,122.0,125.0,122.0,105.0,125.0,40.0,-107.0,-58.0,125.0,126.0,-128.0,109.0,89.0,-109.0
126.0,126.0,131.0,121.0,126.0,123.0,106.0,125.0,41.0,-107.0,-58.0,125.0,126.0,-128.0,110.0,89.0,-109.0
126.0,126.0,131.0,121.0,126.0,123.0,106.0,125.0,41.0,-107.0,-58.0,125.0,126.0,-128.0,110.0,89.0,-109.0
126.0,126.0,131.0,121.0,127.0,123.0,106.0,125.0,41.0,-107.0,-58.0,125.0,126.0,-128.0,110.0,89.0,-109.0
126.0,126.0,131.0,121.0,127.0,123.0,106.0,125.0,41.0,-107.0,-58.0,125.0,126.0,-128.0,110.0,89.0,-109.0
126.0,126.0,131.0,121.0,127.0,123.0,106.0,125.0,41.0,-107.0,-58.0,125.0,126.0,-128.0,110.0,89.0,-109.0
126.0,126.0,131.0,120.0,127.0,123.0,106.0,125.0,41.0,-107.0,-58.0,125.0,126.0,-128.0,110.0,89.0,-109.0
126.0,126.0,130.0,121.0,126.0,123.0,106.0,125.0,41.0,-107.0,-58.0,125.0,126.0,-128.0,110.0,89.0,-109.0
126.0,126.0,130.0,121.0,126.0,123.0,106.0,125.0,41.0,-107.0,-58.0,125.0,126.0,-128.0,110.0,89.0,-109.0
126.0,126.0,130.0,121.0,126.0,123.0,106.0,125.0,41.0,-107.0,-58.0,125.0,126.0,-128.0,110.0,89.0,-109.0
126.0,126.0,131.0,121.0,126.0,123.0,106.0,125.0,41.0,-107.0,-58.0,125.0,126.0,-128.0,110.0,89.0,-109.0
126.0,126.0,130.0,122.0,127.0,124.0,108.0,125.0,41.0,-108.0,-58.0,125.0,126.0,-128.0,110.0,89.0,-109.0
126.0,126.0,130.0,122.0,127.0,124.0,108.0,125.0,41.0,-108.0,-58.0,125.0,126.0,-128.0,110.0,89.0,-109.0
126.0,126.0,130.0,122.0,127.0,124.0,108.0,126.0,41.0,-108.0,-58.0,125.0,126.0,-128.0,110.0,89.0,-109.0
126.0,127.0,130.0,122.0,127.0,124.0,108.0,126.0,41.0,-108.0,-58.0,125.0,126.0,-128.0,110.0,89.0,-109.0
126.0,127.0,130.0,122.0,127.0,124.0,108.0,126.0,41.0,-108.0,-58.0,125.0,126.0,-128.0,110.0,89.0,-109.0
126.0,127.0,129.0,121.0,127.0,124.0,108.0,126.0,41.0,-108.0,-58.0,125.0,126.0,-128.0,110.0,89.0,-109.0
126.0,127.0,130.0,121.0,127.0,124.0,108.0,126.0,41.0,-108.0,-58.0,125.0,126.0,-128.0,110.0,89.0,-109.0
126.0,126.0,130.0,121.0,127.0,124.0,108.0,126.0,41.0,-108.0,-58.0,125.0,126.0,-128.0,110.0,89.0,-109.0
126.0,126.0,130.0,121.0,127.0,124.0,108.0,126.0,41.0,-108.0,-58.0,125.0,126.0,-128.0,110.0,89.0,-109.0
126.0,126.0,130.0,121.0,127.0,124.0,108.0,126.0,41.0,-108.0,-58.0,125.0,126.0,-128.0,110.0,89.0,-109.0
126.0,126.0,129.0,123.0,128.0,125.0,109.0,126.0,41.0,-108.0,-57.0,126.0,126.0,127.0,111.0,89.0,-109.0
126.0,127.0,129.0,123.0,128.0,125.0,110.0,126.0,41.0,-108.0,-57.0,126.0,126.0,127.0,111.0,89.0,-109.0
126.0,127.0,129.0,123.0,128.0,125.0,110.0,126.0,41.0,-108.0,-57.0,126.0,126.0,127.0,111.0,89.0,-109.0
126.0,127.0,129.0,123.0,128.0,125.0,110.0,126.0,41.0,-108.0,-57.0,126.0,126.0,127.0,111.0,89.0,-109.0
126.0,127.0,129.0,123.0,128.0,126.0,111.0,126.0,41.0,-108.0,-57.0,126.0,126.0,127.0,111.0,89.0,-109.0
126.0,126.0,129.0,123.0,128.0,125.0,110.0,126.0,41.0,-108.0,-57.0,126.0,126.0,127.0,111.0,89.0,-109.0
126.0,127.0,129.0,123.0,128.0,125.0,110.0,126.0,41.0,-108.0,-57.0,126.0,126.0,127.0,111.0,89.0,-109.0
126.0,126.0,129.0,123.0,128.0,125.0,109.0,126.0,41.0,-108.0,-57.0,126.0,126.0,127.0,111.0,89.0,-109.0
126.0,126.0,129.0,123.0,128.0,125.0,109.0,126.0,41.0,-108.0,-57.0,126.0,126.0,127.0,111.0,89.0,-109.0
126.0,126.0,129.0,123.0,128.0,125.0,109.0,126.0,41.0,-108.0,-57.0,126.0,126.0,127.0,111.0,89.0,-109.0
126.0,126.0,128.0,123.0,127.0,125.0,110.0,126.0,42.0,-109.0,-57.0,126.0,126.0,127.0,111.0,89.0,-108.0
126.0,126.0,128.0,123.0,127.0,125.0,109.0,126.0,42.0,-109.0,-57.0,126.0,126.0,127.0,111.0,89.0,-108.0
126.0,127.0,128.0,123.0,127.0,125.0,109.0,126.0,42.0,-109.0,-57.0,126.0,126.0,127.0,111.0,89.0,-108.0
126.0,126.0,127.0,123.0,127.0,125.0,110.0,126.0,42.0,-109.0,-57.0,126.0,126.0,127.0,111.0,89.0,-108.0
126.0,126.0,127.0,123.0,127.0,125.0,110.0,126.0,42.0,-109.0,-57.0,126.0,126.0,127.0,111.0,89.0,-108.0
126.0,126.0,127.0,123.0,127.0,125.0,109.0,126.0,42.0,-109.0,-57.0,126.0,126.0,127.0,111.0,89.0,-108.0
126.0,126.0,127.0,123.0,128.0,125.0,109.0,126.0,42.0,-109.0,-57.0,126.0,126.0,127.0,111.0,89.0,-108.0
126.0,126.0,128.0,123.0,127.0,125.0,109.0,126.0,42.0,-109.0,-57.0,126.0,126.0,127.0,111.0,89.0,-108.0
126.0,126.0,128.0,123.0,127.0,125.0,109.0,126.0,42.0,-109.0,-57.0,126.0,126.0,127.0,111.0,89.0,-108.0
126.0,126.0,128.0,123.0,127.0,125.0,109.0,126.0,42.0,-109.0,-57.0,126.0,126.0,127.0,111.0,89.0,-108.0
126.0,126.0,126.0,123.0,127.0,125.0,110.0,126.0,43.0,-109.0,-57.0,126.0,127.0,127.0,112.0,89.0,-108.0
126.0,126.0,127.0,123.0,127.0,125.0,110.0,126.0,43.0,-109.0,-57.0,126.0,127.0,127.0,112.0,89.0,-108.0
126.0,126.0,126.0,124.0,127.0,125.0,111.0,126.0,43.0,-109.0,-57.0,126.0,127.0,127.0,112.0,89.0,-108.0
126.0,126.0,126.0,124.0,127.0,125.0,111.0,126.0,43.0,-109.0,-57.0,126.0,127.0,127.0,112.0,89.0,-108.0
126.0,126.0,126.0,123.0,127.0,125.0,110.0,126.0,43.0,-109.0,-57.0,126.0,127.0,127.0,112.0,89.0,-108.0
126.0,126.0,127.0,124.0,127.0,125.0,110.0,126.0,43.0,-109.0,-57.0,126.0,127.0,127.0,112.0,89.0,-108.0
126.0,126.0,127.0,124.0,127.0,125.0,110.0,126.0,43.0,-109.0,-57.0,126.0,127.0,127.0,112.0,89.0,-108.0
126.0,126.0,127.0,124.0,127.0,125.0,109.0,126.0,43.0,-109.0,-57.0,126.0,127.0,127.0,112.0,89.0,-108.0
126.0,126.0,127.0,123.0,127.0,125.0,109.0,126.0,43.0,-109.0,-57.0,126.0,127.0,127.0,112.0,89.0,-108.0
126.0,126.0,126.0,124.0,127.0,125.0,110.0,126.0,43.0,-109.0,-57.0,126.0,127.0,127.0,112.0,89.0,-108.0
126.0,126.0,127.0,123.0,127.0,125.0,110.0,126.0,43.0,-109.0,-56.0,126.0,127.0,127.0,112.0,89.0,-108.0
126.0,126.0,128.0,125.0,127.0,125.0,111.0,126.0,43.0,-109.0,-56.0,126.0,127.0,127.0,112.0,89.0,-108.0
126.0,126.0,128.0,124.0,127.0,125.0,111.0,126.0,43.0,-109.0,-56.0,126.0,127.0,127.0,112.0,89.0,-108.0
126.0,126.0,128.0,124.0,127.0,125.0,111.0,126.0,43.0,-109.0,-56.0,126.0,127.0,127.0,112.0,89.0,-108.0
126.0,126.0,128.0,124.0,127.0,125.0,111.0,126.0,43.0,-109.0,-56.0,126.0,127.0,127.0,112.0,89.0,-108.0
126.0,126.0,128.0,124.0,127.0,125.0,111.0,126.0,43.0,-109.0,-56.0,126.0,127.0,127.0,112.0,89.0,-108.0
126.0,126.0,128.0,124.0,127.0,125.0,110.0,126.0,43.0,-109.0,-56.0,126.0,127.0,127.0,112.0,89.0,-108.0
126.0,126.0,128.0,124.0,126.0,125.0,110.0,126.0,43.0,-109.0,-56.0,126.0,127.0,127.0,112.0,89.0,-108.0
126.0,126.0,128.0,124.0,127.0,125.0,110.0,126.0,43.0,-109.0,-56.0,126.0,127.0,127.0,112.0,89.0,-108.0
126.0,126.0,128.0,123.0,127.0,125.0,110.0,126.0,43.0,-109.0,-56.0,126.0,127.0,127.0,112.0,89.0,-108.0
126.0,127.0,127.0,125.0,127.0,126.0,111.0,126.0,44.0,-110.0,-56.0,126.0,127.0,127.0,113.0,89.0,-108.0
126.0,127.0,128.0,126.0,127.0,126.0,110.0,126.0,44.0,-110.0,-56.0,126.0,127.0,127.0,113.0,89.0,-108.0
126.0,127.0,128.0,126.0,127.0,126.0,111.0,126.0,44.0,-110.0,-56.0,126.0,127.0,127.0,113.0,89.0,-108.0
126.0,127.0,128.0,126.0,127.0,126.0,111.0,126.0,44.0,-110.0,-56.0,126.0,127.0,127.0,113.0,89.0,-108.0
126.0,126.0,128.0,126.0,127.0,126.0,111.0,126.0,44.0,-110.0,-56.0,126.0,127.0,127.0,113.0,89.0,-108.0
126.0,126.0,129.0,126.0,127.0,126.0,111.0,126.0,44.0,-110.0,-56.0,126.0,127.0,127.0,113.0,89.0,-108.0
126.0,126.0,129.0,126.0,127.0,126.0,111.0,126.0,44.0,-110.0,-56.0,126.0,127.0,127.0,113.0,89.0,-108.0
126.0,126.0,129.0,126.0,127.0,126.0,111.0,126.0,44.0,-110.0,-56.0,126.0,127.0,127.0,113.0,89.0,-108.0
126.0,126.0,129.0,125.0,127.0,126.0,111.0,126.0,44.0,-110.0,-56.0,126.0,127.0,127.0,113.0,89.0,-108.0
126.0,127.0,129.0,125.0,127.0,125.0,111.0,126.0,44.0,-110.0,-56.0,126.0,127.0,127.0,113.0,89.0,-108.0
126.0,126.0,127.0,124.0,127.0,125.0,111.0,127.0,44.0,-110.0,-56.0,126.0,127.0,127.0,113.0,89.0,-108.0
126.0,126.0,128.0,124.0,127.0,125.0,111.0,126.0,44.0,-110.0,-56.0,126.0,127.0,127.0,113.0,89.0,-108.0
126.0,126.0,128.0,124.0,127.0,126.0,111.0,126.0,44.0,-110.0,-56.0,126.0,127.0,127.0,113.0,89.0,-108.0
126.0,126.0,128.0,124.0,127.0,126.0,111.0,126.0,44.0,-110.0,-56.0,126.0,127.0,127.0,113.0,89.0,-108.0
126.0,126.0,128.0,124.0,126.0,126.0,110.0,127.0,44.0,-110.0,-56.0,126.0,127.0,127.0,113.0,89.0,-108.0
126.0,126.0,128.0,124.0,126.0,126.0,111.0,127.0,44.0,-110.0,-56.0,126.0,127.0,127.0,113.0,89.0,-108.0
126.0,126.0,128.0,124.0,126.0,126.0,111.0,127.0,44.0,-110.0,-56.0,126.0,127.0,127.0,113.0,89.0,-108.0
126.0,126.0,128.0,124.0,126.0,126.0,111.0,127.0,44.0,-110.0,-56.0,126.0,127.0,127.0,113.0,89.0,-108.0
126.0,126.0,128.0,124.0,126.0,126.0,112.0,127.0,44.0,-110.0,-56.0,126.0,127.0,127.0,113.0,89.0,-108.0
126.0,126.0,127.0,125.0,127.0,125.0,111.0,126.0,44.0,-110.0,-56.0,126.0,127.0,127.0,113.0,89.0,-108.0
126.0,126.0,128.0,124.0,126.0,126.0,111.0,126.0,44.0,-110.0,-55.0,126.0,127.0,127.0,113.0,89.0,-108.0
126.0,126.0,128.0,124.0,126.0,126.0,111.0,126.0,44.0,-110.0,-55.0,126.0,127.0,127.0,113.0,89.0,-108.0
126.0,126.0,127.0,124.0,126.0,126.0,111.0,126.0,44.0,-110.0,-55.0,126.0,127.0,127.0,113.0,89.0,-108.0
126.0,126.0,127.0,124.0,126.0,126.0,111.0,126.0,44.0,-110.0,-55.0,126.0,127.0,127.0,113.0,89.0,-108.0
126.0,126.0,127.0,124.0,126.0,126.0,112.0,126.0,44.0,-110.0,-55.0,126.0,127.0,127.0,113.0,89.0,-108.0
126.0,126.0,127.0,124.0,126.0,126.0,111.0,126.0,44.0,-110.0,-55.0,126.0,127.0,127.0,113.0,89.0,-108.0
126.0,126.0,127.0,124.0,126.0,126.0,112.0,127.0,44.0,-110.0,-55.0,126.0,127.0,127.0,113.0,89.0,-108.0
126.0,126.0,127.0,124.0,126.0,126.0,112.0,127.0,44.0,-110.0,-55.0,126.0,127.0,127.0,113.0,89.0,-108.0
126.0,127.0,128.0,125.0,126.0,126.0,112.0,126.0,44.0,-110.0,-55.0,126.0,127.0,127.0,113.0,89.0,-108.0
126.0,127.0,128.0,124.0,126.0,126.0,112.0,126.0,44.0,-110.0,-55.0,126.0,127.0,127.0,113.0,89.0,-108.0
126.0,127.0,127.0,124.0,127.0,126.0,112.0,127.0,45.0,-110.0,-55.0,127.0,127.0,127.0,114.0,89.0,-108.0
126.0,127.0,127.0,124.0,126.0,126.0,112.0,127.0,45.0,-110.0,-55.0,127.0,127.0,127.0,114.0,89.0,-108.0
126.0,126.0,127.0,124.0,127.0,126.0,112.0,127.0,45.0,-110.0,-55.0,127.0,127.0,127.0,114.0,89.0,-108.0
126.0,126.0,127.0,124.0,126.0,126.0,112.0,127.0,45.0,-110.0,-55.0,127.0,127.0,127.0,114.0,89.0,-108.0
126.0,126.0,127.0,124.0,126.0,126.0,112.0,126.0,45.0,-110.0,-55.0,127.0,127.0,127.0,114.0,89.0,-108.0
126.0,126.0,127.0,124.0,126.0,126.0,111.0,126.0,45.0,-110.0,-55.0,127.0,127.0,127.0,114.0,89.0,-108.0
126.0,126.0,128.0,124.0,127.0,126.0,111.0,126.0,45.0,-110.0,-55.0,127.0,127.0,127.0,114.0,89.0,-108.0
126.0,127.0,127.0,124.0,127.0,126.0,112.0,127.0,45.0,-110.0,-55.0,127.0,127.0,127.0,114.0,89.0,-108.0
126.0,127.0,127.0,124.0,127.0,126.0,112.0,127.0,45.0,-110.0,-55.0,127.0,127.0,127.0,114.0,89.0,-108.0
126.0,127.0,127.0,124.0,127.0,126.0,112.0,127.0,45.0,-110.0,-55.0,127.0,127.0,127.0,114.0,89.0,-108.0
127.0,127.0,126.0,125.0,127.0,126.0,111.0,126.0,45.0,-110.0,-55.0,127.0,127.0,127.0,114.0,90.0,-108.0
127.0,127.0,126.0,125.0,126.0,126.0,112.0,126.0,45.0,-110.0,-55.0,127.0,127.0,127.0,114.0,90.0,-108.0
127.0,127.0,126.0,125.0,126.0,126.0,112.0,126.0,45.0,-110.0,-55.0,127.0,127.0,127.0,114.0,90.0,-108.0
127.0,127.0,126.0,125.0,126.0,126.0,112.0,126.0,45.0,-110.0,-55.0,127.0,127.0,127.0,114.0,90.0,-108.0
127.0,127.0,126.0,125.0,126.0,126.0,112.0,126.0,45.0,-110.0,-55.0,127.0,127.0,127.0,114.0,90.0,-108.0
127.0,127.0,126.0,124.0,126.0,126.0,112.0,126.0,45.0,-110.0,-55.0,127.0,127.0,127.0,114.0,90.0,-108.0
127.0,127.0,126.0,124.0,127.0,126.0,111.0,126.0,45.0,-110.0,-55.0,127.0,127.0,127.0,114.0,90.0,-108.0
127.0,127.0,126.0,124.0,127.0,126.0,112.0,126.0,45.0,-110.0,-55.0,127.0,127.0,127.0,114.0,90.0,-108.0
127.0,127.0,126.0,124.0,127.0,126.0,112.0,126.0,45.0,-110.0,-55.0,127.0,127.0,127.0,114.0,90.0,-108.0
127.0,127.0,126.0,124.0,126.0,126.0,112.0,126.0,45.0,-110.0,-55.0,127.0,127.0,127.0,114.0,90.0,-108.0
127.0,127.0,128.0,125.0,127.0,127.0,113.0,126.0,45.0,-110.0,-55.0,127.0,127.0,127.0,115.0,90.0,-108.0
126.0,127.0,128.0,125.0,127.0,127.0,112.0,126.0,45.0,-110.0,-55.0,127.0,127.0,127.0,115.0,90.0,-108.0
127.0,127.0,128.0,125.0,127.0,127.0,112.0,126.0,45.0,-110.0,-55.0,127.0,127.0,127.0,115.0,90.0,-108.0
127.0,126.0,128.0,125.0,127.0,127.0,112.0,126.0,45.0,-110.0,-55.0,127.0,127.0,127.0,115.0,90.0,-108.0
127.0,126.0,127.0,125.0,127.0,127.0,112.0,126.0,45.0,-110.0,-55.0,127.0,127.0,127.0,115.0,90.0,-108.0
126.0,127.0,127.0,125.0,127.0,126.0,112.0,127.0,45.0,-110.0,-55.0,127.0,127.0,127.0,115.0,90.0,-108.0
127.0,127.0,127.0,125.0,127.0,126.0,113.0,127.0,45.0,-110.0,-55.0,127.0,127.0,127.0,115.0,90.0,-108.0
127.0,127.0,127.0,125.0,127.0,126.0,113.0,127.0,45.0,-110.0,-55.0,127.0,127.0,127.0,115.0,90.0,-108.0
127.0,127.0,127.0,125.0,127.0,126.0,113.0,126.0,45.0,-110.0,-55.0,127.0,127.0,127.0,115.0,90.0,-108.0
127.0,127.0,127.0,125.0,127.0,126.0,112.0,126.0,45.0,-110.0,-55.0,127.0,127.0,127.0,115.0,90.0,-108.0
126.0,126.0,126.0,125.0,126.0,126.0,113.0,126.0,45.0,-110.0,-55.0,127.0,127.0,127.0,115.0,90.0,-108.0
126.0,126.0,126.0,125.0,126.0,126.0,112.0,126.0,45.0,-110.0,-55.0,127.0,127.0,127.0,115.0,90.0,-108.0
126.0,126.0,126.0,125.0,126.0,126.0,113.0,126.0,45.0,-110.0,-55.0,127.0,127.0,127.0,115.0,90.0,-108.0
126.0,127.0,126.0,125.0,127.0,127.0,113.0,127.0,45.0,-110.0,-55.0,127.0,127.0,127.0,115.0,90.0,-108.0
126.0,127.0,126.0,125.0,127.0,126.0,113.0,126.0,45.0,-110.0,-55.0,127.0,127.0,127.0,115.0,90.0,-108.0
126.0,127.0,126.0,125.0,127.0,126.0,112.0,126.0,45.0,-110.0,-55.0,127.0,127.0,127.0,115.0,90.0,-108.0
126.0,127.0,126.0,125.0,126.0,126.0,113.0,126.0,45.0,-110.0,-55.0,127.0,127.0,127.0,115.0,90.0,-108.0
126.0,126.0,126.0,125.0,126.0,126.0,113.0,126.0,45.0,-110.0,-55.0,127.0,127.0,127.0,115.0,90.0,-108.0
126.0,126.0,126.0,125.0,126.0,126.0,113.0,126.0,45.0,-110.0,-55.0,127.0,127.0,127.0,115.0,90.0,-108.0
126.0,126.0,126.0,125.0,126.0,126.0,113.0,126.0,45.0,-110.0,-55.0,127.0,127.0,127.0,115.0,90.0,-108.0
126.0,126.0,127.0,125.0,126.0,126.0,112.0,126.0,45.0,-110.0,-54.0,127.0,127.0,127.0,115.0,90.0,-108.0
126.0,126.0,127.0,125.0,126.0,126.0,112.0,126.0,45.0,-110.0,-54.0,127.0,127.0,127.0,115.0,90.0,-108.0
126.0,126.0,127.0,125.0,126.0,126.0,112.0,126.0,45.0,-110.0,-54.0,127.0,127.0,127.0,115.0,90.0,-108.0
126.0,126.0,127.0,126.0,126.0,127.0,112.0,127.0,45.0,-110.0,-54.0,127.0,127.0,127.0,115.0,90.0,-108.0
126.0,126.0,127.0,125.0,126.0,127.0,112.0,127.0,45.0,-110.0,-54.0,127.0,127.0,127.0,115.0,90.0,-108.0
126.0,126.0,127.0,125.0,126.0,126.0,112.0,127.0,45.0,-110.0,-54.0,127.0,127.0,127.0,115.0,90.0,-108.0
126.0,126.0,127.0,125.0,126.0,126.0,112.0,126.0,45.0,-110.0,-54.0,127.0,127.0,127.0,115.0,90.0,-108.0
126.0,126.0,127.0,125.0,126.0,126.0,112.0,126.0,45.0,-110.0,-54.0,127.0,127.0,127.0,115.0,90.0,-108.0
126.0,126.0,127.0,125.0,126.0,126.0,111.0,126.0,45.0,-110.0,-54.0,127.0,127.0,127.0,115.0,90.0,-108.0
126.0,126.0,127.0,125.0,126.0,126.0,111.0,126.0,45.0,-110.0,-54.0,127.0,127.0,127.0,115.0,90.0,-108.0
126.0,126.0,127.0,126.0,127.0,126.0,112.0,126.0,45.0,-110.0,-54.0,127.0,127.0,127.0,116.0,90.0,-108.0
127.0,126.0,127.0,126.0,127.0,126.0,113.0,126.0,45.0,-110.0,-54.0,127.0,127.0,127.0,116.0,90.0,-108.0
126.0,126.0,126.0,126.0,127.0,126.0,112.0,126.0,45.0,-110.0,-54.0,127.0,127.0,127.0,116.0,90.0,-108.0
126.0,126.0,127.0,126.0,127.0,126.0,112.0,126.0,45.0,-110.0,-54.0,127.0,127.0,127.0,116.0,90.0,-108.0
126.0,126.0,127.0,126.0,127.0,126.0,111.0,126.0,45.0,-110.0,-54.0,127.0,127.0,127.0,116.0,90.0,-108.0
126.0,126.0,127.0,126.0,127.0,126.0,112.0,126.0,45.0,-110.0,-54.0,127.0,127.0,127.0,116.0,90.0,-108.0
126.0,126.0,127.0,126.0,127.0,126.0,112.0,126.0,45.0,-110.0,-54.0,127.0,127.0,127.0,116.0,90.0,-108.0
126.0,126.0,127.0,126.0,127.0,126.0,112.0,126.0,45.0,-110.0,-54.0,127.0,127.0,127.0,116.0,90.0,-108.0
126.0,126.0,127.0,126.0,127.0,126.0,112.0,126.0,45.0,-110.0,-54.0,127.0,127.0,127.0,116.0,90.0,-108.0
126.0,126.0,127.0,126.0,127.0,126.0,113.0,126.0,45.0,-110.0,-54.0,127.0,127.0,127.0,116.0,90.0,-108.0
127.0,126.0,126.0,124.0,126.0,126.0,111.0,126.0,45.0,-110.0,-54.0,127.0,127.0,127.0,116.0,90.0,-108.0
126.0,126.0,125.0,124.0,126.0,126.0,112.0,126.0,45.0,-110.0,-54.0,127.0,127.0,127.0,116.0,90.0,-108.0
126.0,126.0,125.0,124.0,126.0,126.0,112.0,126.0,45.0,-110.0,-54.0,127.0,127.0,127.0,116.0,90.0,-108.0
126.0,126.0,125.0,124.0,126.0,126.0,112.0,126.0,45.0,-110.0,-54.0,127.0,127.0,127.0,116.0,90.0,-108.0
126.0,126.0,125.0,124.0,126.0,126.0,111.0,126.0,45.0,-110.0,-54.0,127.0,127.0,127.0,116.0,90.0,-108.0
126.0,126.0,125.0,124.0,126.0,126.0,111.0,126.0,45.0,-110.0,-54.0,127.0,127.0,127.0,116.0,90.0,-108.0
126.0,126.0,125.0,124.0,126.0,126.0,111.0,126.0,45.0,-110.0,-54.0,127.0,127.0,127.0,116.0,90.0,-108.0
126.0,126.0,125.0,124.0,126.0,126.0,111.0,126.0,45.0,-110.0,-54.0,127.0,127.0,127.0,116.0,90.0,-108.0
126.0,126.0,126.0,124.0,126.0,126.0,111.0,126.0,45.0,-110.0,-54.0,127.0,127.0,127.0,116.0,90.0,-108.0
126.0,126.0,126.0,124.0,126.0,126.0,111.0,126.0,45.0,-110.0,-54.0,127.0,127.0,127.0,116.0,90.0,-108.0
127.0,127.0,127.0,125.0,126.0,126.0,113.0,127.0,44.0,-109.0,-54.0,127.0,127.0,127.0,116.0,91.0,-108.0
127.0,127.0,127.0,125.0,126.0,126.0,113.0,127.0,44.0,-109.0,-54.0,127.0,127.0,127.0,116.0,91.0,-108.0
126.0,126.0,127.0,125.0,126.0,126.0,112.0,126.0,44.0,-109.0,-54.0,127.0,127.0,127.0,116.0,91.0,-108.0
126.0,126.0,127.0,125.0,126.0,126.0,112.0,126.0,44.0,-109.0,-54.0,127.0,127.0,127.0,116.0,91.0,-108.0
126.0,127.0,127.0,125.0,126.0,126.0,112.0,126.0,44.0,-109.0,-54.0,127.0,127.0,127.0,116.0,91.0,-108.0
127.0,126.0,127.0,125.0,126.0,126.0,111.0,126.0,44.0,-109.0,-54.0,127.0,127.0,127.0,116.0,91.0,-108.0
126.0,126.0,127.0,125.0,126.0,126.0,111.0,126.0,44.0,-109.0,-54.0,127.0,127.0,127.0,116.0,91.0,-108.0
127.0,126.0,127.0,125.0,126.0,126.0,111.0,126.0,44.0,-109.0,-54.0,127.0,127.0,127.0,116.0,91.0,-108.0
126.0,126.0,127.0,125.0,126.0,126.0,111.0,126.0,44.0,-109.0,-54.0,127.0,127.0,127.0,116.0,91.0,-108.0
126.0,126.0,127.0,125.0,126.0,126.0,111.0,126.0,44.0,-109.0,-54.0,127.0,127.0,127.0,116.0,91.0,-108.0
126.0,126.0,127.0,126.0,126.0,126.0,112.0,126.0,44.0,-109.0,-54.0,127.0,127.0,127.0,116.0,91.0,-108.0
126.0,126.0,127.0,125.0,126.0,126.0,112.0,126.0,44.0,-109.0,-54.0,127.0,127.0,127.0,116.0,91.0,-108.0
126.0,126.0,127.0,125.0,126.0,126.0,112.0,126.0,44.0,-109.0,-54.0,127.0,127.0,127.0,116.0,91.0,-108.0
126.0,126.0,127.0,125.0,126.0,126.0,112.0,126.0,44.0,-109.0,-54.0,127.0,127.0,127.0,116.0,91.0,-108.0
126.0,126.0,127.0,125.0,126.0,126.0,112.0,126.0,44.0,-109.0,-54.0,127.0,127.0,127.0,116.0,91.0,-108.0
126.0,126.0,127.0,125.0,126.0,126.0,112.0,126.0,44.0,-109.0,-54.0,127.0,127.0,127.0,116.0,91.0,-108.0
126.0,126.0,127.0,125.0,126.0,126.0,112.0,126.0,44.0,-109.0,-54.0,127.0,127.0,127.0,116.0,91.0,-108.0
126.0,126.0,127.0,125.0,126.0,126.0,111.0,126.0,44.0,-109.0,-54.0,127.0,127.0,127.0,116.0,91.0,-108.0
126.0,126.0,127.0,125.0,126.0,126.0,111.0,126.0,44.0,-109.0,-54.0,127.0,127.0,127.0,116.0,91.0,-108.0
126.0,127.0,127.0,126.0,126.0,126.0,112.0,127.0,44.0,-109.0,-54.0,127.0,127.0,127.0,116.0,91.0,-108.0
126.0,126.0,127.0,126.0,127.0,126.0,111.0,127.0,44.0,-109.0,-54.0,127.0,127.0,127.0,116.0,91.0,-108.0
126.0,126.0,127.0,126.0,127.0,126.0,112.0,127.0,44.0,-109.0,-54.0,127.0,127.0,127.0,116.0,91.0,-108.0
126.0,126.0,127.0,125.0,127.0,126.0,111.0,126.0,44.0,-109.0,-54.0,127.0,127.0,127.0,116.0,91.0,-108.0
126.0,126.0,127.0,125.0,127.0,126.0,111.0,126.0,44.0,-109.0,-54.0,127.0,127.0,127.0,116.0,91.0,-108.0
126.0,126.0,127.0,125.0,127.0,126.0,111.0,126.0,44.0,-109.0,-54.0,127.0,127.0,127.0,116.0,91.0,-108.0
126.0,126.0,127.0,125.0,127.0,126.0,111.0,126.0,44.0,-109.0,-54.0,127.0,127.0,127.0,116.0,91.0,-108.0
126.0,126.0,127.0,125.0,127.0,126.0,111.0,126.0,44.0,-109.0,-54.0,127.0,127.0,127.0,116.0,91.0,-108.0
126.0,126.0,127.0,125.0,127.0,126.0,111.0,126.0,44.0,-109.0,-54.0,127.0,127.0,127.0,116.0,91.0,-108.0
126.0,127.0,127.0,126.0,127.0,126.0,111.0,127.0,44.0,-109.0,-54.0,127.0,127.0,127.0,116.0,91.0,-108.0
126.0,127.0,127.0,126.0,127.0,126.0,111.0,127.0,44.0,-109.0,-54.0,127.0,127.0,127.0,116.0,91.0,-108.0
126.0,126.0,127.0,126.0,127.0,126.0,112.0,127.0,44.0,-110.0,-54.0,127.0,127.0,127.0,117.0,91.0,-108.0
126.0,126.0,127.0,126.0,127.0,126.0,112.0,126.0,44.0,-110.0,-54.0,127.0,127.0,127.0,117.0,91.0,-108.0
126.0,126.0,127.0,126.0,127.0,126.0,112.0,126.0,44.0,-110.0,-54.0,127.0,127.0,127.0,117.0,91.0,-108.0
126.0,126.0,127.0,126.0,127.0,126.0,111.0,126.0,44.0,-110.0,-54.0,127.0,127.0,127.0,117.0,91.0,-108.0
126.0,126.0,127.0,125.0,127.0,126.0,112.0,126.0,44.0,-110.0,-54.0,127.0,127.0,127.0,117.0,91.0,-108.0
126.0,126.0,127.0,125.0,127.0,126.0,112.0,126.0,44.0,-110.0,-54.0,127.0,127.0,127.0,117.0,91.0,-108.0
126.0,126.0,127.0,125.0,127.0,126.0,112.0,126.0,44.0,-110.0,-54.0,127.0,127.0,127.0,117.0,91.0,-108.0
126.0,127.0,127.0,126.0,127.0,127.0,112.0,127.0,44.0,-110.0,-54.0,127.0,127.0,127.0,117.0,91.0,-108.0
126.0,127.0,127.0,126.0,127.0,127.0,112.0,127.0,44.0,-110.0,-54.0,127.0,127.0,127.0,117.0,91.0,-108.0
126.0,126.0,127.0,126.0,127.0,127.0,112.0,127.0,44.0,-110.0,-54.0,127.0,127.0,127.0,117.0,91.0,-108.0
126.0,126.0,128.0,125.0,126.0,126.0,111.0,127.0,44.0,-110.0,-54.0,127.0,127.0,127.0,117.0,91.0,-108.0
126.0,126.0,128.0,125.0,126.0,126.0,111.0,126.0,44.0,-110.0,-54.0,127.0,127.0,127.0,117.0,91.0,-108.0
127.0,126.0,128.0,125.0,126.0,126.0,111.0,127.0,44.0,-110.0,-54.0,127.0,127.0,127.0,117.0,91.0,-108.0
127.0,127.0,128.0,125.0,126.0,126.0,111.0,127.0,44.0,-110.0,-54.0,127.0,127.0,127.0,117.0,91.0,-108.0
127.0,126.0,128.0,125.0,126.0,125.0,111.0,126.0,44.0,-110.0,-54.0,127.0,127.0,127.0,117.0,91.0,-108.0
127.0,127.0,128.0,125.0,126.0,125.0,111.0,126.0,44.0,-110.0,-54.0,127.0,127.0,127.0,117.0,91.0,-108.0
