emg1,emg2,emg3,emg4,emg5,emg6,emg7,emg8,acc_x,acc_y,acc_z,gyro_x,gyro_y,gyro_z,angle_pitch,angle_roll,angle_yaw
127.0,127.0,127.0,127.0,126.0,128.0,125.0,128.0,-1.0,106.0,-73.0,127.0,127.0,127.0,-116.0,-87.0,105.0
127.0,127.0,127.0,127.0,127.0,128.0,125.0,128.0,-1.0,106.0,-73.0,127.0,127.0,127.0,-116.0,-87.0,105.0
127.0,127.0,127.0,127.0,127.0,128.0,125.0,128.0,-1.0,106.0,-73.0,127.0,127.0,127.0,-116.0,-87.0,105.0
127.0,127.0,127.0,127.0,127.0,128.0,125.0,128.0,-1.0,106.0,-73.0,127.0,127.0,127.0,-116.0,-87.0,105.0
127.0,127.0,127.0,127.0,127.0,128.0,126.0,128.0,-1.0,106.0,-73.0,127.0,127.0,127.0,-116.0,-87.0,105.0
127.0,127.0,127.0,127.0,127.0,128.0,126.0,128.0,-1.0,106.0,-73.0,127.0,127.0,127.0,-116.0,-87.0,105.0
127.0,127.0,127.0,127.0,127.0,128.0,126.0,128.0,-1.0,106.0,-73.0,127.0,127.0,127.0,-116.0,-87.0,105.0
127.0,127.0,127.0,127.0,127.0,128.0,126.0,128.0,-1.0,106.0,-73.0,127.0,127.0,127.0,-116.0,-87.0,105.0
127.0,127.0,127.0,127.0,127.0,128.0,125.0,128.0,-1.0,106.0,-73.0,127.0,127.0,127.0,-116.0,-87.0,105.0
127.0,127.0,127.0,127.0,126.0,128.0,125.0,128.0,-1.0,106.0,-73.0,127.0,127.0,127.0,-116.0,-87.0,105.0
127.0,127.0,127.0,128.0,126.0,128.0,125.0,128.0,-1.0,106.0,-73.0,127.0,127.0,127.0,-116.0,-87.0,105.0
127.0,127.0,127.0,128.0,126.0,128.0,126.0,128.0,-1.0,106.0,-73.0,127.0,127.0,127.0,-116.0,-87.0,105.0
127.0,127.0,127.0,128.0,127.0,128.0,126.0,128.0,-1.0,106.0,-73.0,127.0,127.0,127.0,-116.0,-87.0,105.0
127.0,127.0,127.0,128.0,127.0,128.0,126.0,128.0,-1.0,106.0,-73.0,127.0,127.0,127.0,-116.0,-87.0,105.0
127.0,127.0,127.0,128.0,127.0,128.0,126.0,128.0,-1.0,106.0,-73.0,127.0,127.0,127.0,-116.0,-87.0,105.0
127.0,127.0,127.0,128.0,127.0,127.0,126.0,128.0,-1.0,106.0,-73.0,127.0,127.0,127.0,-116.0,-87.0,105.0
127.0,127.0,127.0,128.0,127.0,127.0,126.0,128.0,-1.0,106.0,-73.0,127.0,127.0,127.0,-116.0,-87.0,105.0
127.0,127.0,127.0,127.0,126.0,127.0,126.0,128.0,-1.0,106.0,-73.0,127.0,127.0,127.0,-116.0,-87.0,105.0
127.0,127.0,127.0,127.0,126.0,128.0,125.0,128.0,-1.0,106.0,-73.0,127.0,127.0,127.0,-116.0,-87.0,105.0
127.0,127.0,127.0,128.0,126.0,128.0,125.0,128.0,-1.0,106.0,-73.0,127.0,127.0,127.0,-116.0,-87.0,105.0
127.0,127.0,127.0,127.0,126.0,129.0,127.0,128.0,-1.0,106.0,-73.0,127.0,127.0,127.0,-116.0,-87.0,105.0
127.0,127.0,127.0,127.0,126.0,129.0,126.0,128.0,-1.0,106.0,-73.0,127.0,127.0,127.0,-116.0,-87.0,105.0
127.0,127.0,127.0,127.0,127.0,129.0,127.0,128.0,-1.0,106.0,-73.0,127.0,127.0,127.0,-116.0,-87.0,105.0
127.0,127.0,127.0,127.0,127.0,128.0,127.0,128.0,-1.0,106.0,-73.0,127.0,127.0,127.0,-116.0,-87.0,105.0
127.0,127.0,127.0,127.0,126.0,128.0,127.0,128.0,-1.0,106.0,-73.0,127.0,127.0,127.0,-116.0,-87.0,105.0
127.0,127.0,127.0,127.0,126.0,128.0,127.0,128.0,-1.0,106.0,-73.0,127.0,127.0,127.0,-116.0,-87.0,105.0
127.0,127.0,127.0,127.0,127.0,128.0,127.0,128.0,-1.0,106.0,-73.0,127.0,127.0,127.0,-116.0,-87.0,105.0
127.0,127.0,127.0,127.0,127.0,128.0,127.0,128.0,-1.0,106.0,-73.0,127.0,127.0,127.0,-116.0,-87.0,105.0
127.0,127.0,127.0,127.0,127.0,128.0,127.0,128.0,-1.0,106.0,-73.0,127.0,127.0,127.0,-116.0,-87.0,105.0
127.0,127.0,127.0,127.0,127.0,128.0,127.0,128.0,-1.0,106.0,-73.0,127.0,127.0,127.0,-116.0,-87.0,105.0
127.0,127.0,127.0,128.0,127.0,128.0,126.0,128.0,-1.0,106.0,-73.0,127.0,127.0,127.0,-116.0,-87.0,105.0
127.0,127.0,127.0,128.0,127.0,128.0,126.0,128.0,-1.0,106.0,-73.0,127.0,127.0,127.0,-116.0,-87.0,105.0
127.0,127.0,127.0,128.0,127.0,127.0,126.0,128.0,-1.0,106.0,-73.0,127.0,127.0,127.0,-116.0,-87.0,105.0
127.0,127.0,127.0,127.0,127.0,127.0,126.0,128.0,-1.0,106.0,-73.0,127.0,127.0,127.0,-116.0,-87.0,105.0
127.0,127.0,127.0,128.0,127.0,127.0,126.0,128.0,-1.0,106.0,-73.0,127.0,127.0,127.0,-116.0,-87.0,105.0
127.0,127.0,127.0,128.0,126.0,128.0,126.0,128.0,-1.0,106.0,-73.0,127.0,127.0,127.0,-116.0,-87.0,105.0
127.0,127.0,127.0,128.0,126.0,128.0,126.0,128.0,-1.0,106.0,-73.0,127.0,127.0,127.0,-116.0,-87.0,105.0
127.0,127.0,127.0,128.0,126.0,128.0,126.0,128.0,-1.0,106.0,-73.0,127.0,127.0,127.0,-116.0,-87.0,105.0
127.0,127.0,127.0,128.0,126.0,128.0,126.0,128.0,-1.0,106.0,-73.0,127.0,127.0,127.0,-116.0,-87.0,105.0
127.0,127.0,127.0,128.0,127.0,128.0,126.0,128.0,-1.0,106.0,-73.0,127.0,127.0,127.0,-116.0,-87.0,105.0
127.0,127.0,127.0,128.0,127.0,128.0,126.0,128.0,-1.0,106.0,-73.0,127.0,127.0,127.0,-116.0,-87.0,105.0
127.0,127.0,127.0,128.0,127.0,128.0,126.0,128.0,-1.0,106.0,-73.0,127.0,127.0,127.0,-116.0,-87.0,105.0
127.0,127.0,127.0,128.0,127.0,127.0,126.0,128.0,-1.0,106.0,-73.0,127.0,127.0,127.0,-116.0,-87.0,105.0
126.0,127.0,127.0,128.0,127.0,127.0,126.0,128.0,-1.0,106.0,-73.0,127.0,127.0,127.0,-116.0,-87.0,105.0
127.0,127.0,127.0,128.0,127.0,128.0,125.0,128.0,-1.0,106.0,-73.0,127.0,127.0,127.0,-116.0,-87.0,105.0
127.0,127.0,127.0,128.0,127.0,128.0,125.0,128.0,-1.0,106.0,-73.0,127.0,127.0,127.0,-116.0,-87.0,105.0
127.0,127.0,127.0,128.0,127.0,128.0,125.0,128.0,-1.0,106.0,-73.0,127.0,127.0,127.0,-116.0,-87.0,105.0
127.0,127.0,127.0,128.0,127.0,128.0,125.0,128.0,-1.0,106.0,-73.0,127.0,127.0,127.0,-116.0,-87.0,105.0
126.0,127.0,127.0,128.0,127.0,128.0,125.0,128.0,-1.0,106.0,-73.0,127.0,127.0,127.0,-116.0,-87.0,105.0
127.0,127.0,127.0,128.0,127.0,128.0,126.0,128.0,-1.0,106.0,-73.0,127.0,127.0,127.0,-116.0,-87.0,105.0
127.0,127.0,127.0,127.0,127.0,128.0,126.0,128.0,-1.0,106.0,-73.0,127.0,127.0,127.0,-116.0,-87.0,105.0
127.0,127.0,127.0,127.0,127.0,128.0,126.0,128.0,-1.0,106.0,-73.0,127.0,127.0,127.0,-116.0,-87.0,105.0
127.0,127.0,127.0,127.0,127.0,128.0,126.0,128.0,-1.0,106.0,-73.0,127.0,127.0,127.0,-116.0,-87.0,105.0
126.0,127.0,127.0,128.0,126.0,128.0,125.0,128.0,-1.0,106.0,-73.0,127.0,127.0,127.0,-116.0,-87.0,105.0
127.0,127.0,127.0,128.0,127.0,128.0,125.0,128.0,-1.0,106.0,-73.0,127.0,127.0,127.0,-116.0,-87.0,105.0
127.0,127.0,127.0,128.0,127.0,128.0,125.0,128.0,-1.0,106.0,-73.0,127.0,127.0,127.0,-116.0,-87.0,105.0
127.0,127.0,127.0,128.0,127.0,128.0,125.0,128.0,-1.0,106.0,-73.0,127.0,127.0,127.0,-116.0,-87.0,105.0
127.0,127.0,127.0,128.0,127.0,128.0,125.0,128.0,-1.0,106.0,-73.0,127.0,127.0,127.0,-116.0,-87.0,105.0
126.0,127.0,127.0,128.0,127.0,128.0,126.0,128.0,-1.0,106.0,-73.0,127.0,127.0,127.0,-116.0,-87.0,105.0
126.0,127.0,127.0,127.0,127.0,128.0,126.0,128.0,-1.0,106.0,-73.0,127.0,127.0,127.0,-116.0,-87.0,105.0
126.0,127.0,127.0,127.0,127.0,127.0,126.0,128.0,-1.0,106.0,-73.0,127.0,127.0,127.0,-116.0,-87.0,105.0
126.0,127.0,127.0,127.0,127.0,127.0,126.0,128.0,-1.0,106.0,-73.0,127.0,127.0,127.0,-116.0,-87.0,105.0
127.0,127.0,127.0,127.0,126.0,128.0,125.0,128.0,-1.0,106.0,-73.0,127.0,127.0,127.0,-116.0,-87.0,105.0
127.0,127.0,127.0,128.0,127.0,128.0,125.0,128.0,-1.0,106.0,-73.0,127.0,127.0,127.0,-116.0,-87.0,105.0
127.0,127.0,127.0,127.0,127.0,128.0,125.0,128.0,-1.0,106.0,-73.0,127.0,127.0,127.0,-116.0,-87.0,105.0
127.0,127.0,127.0,127.0,126.0,128.0,125.0,128.0,-1.0,106.0,-73.0,127.0,127.0,127.0,-116.0,-87.0,105.0
127.0,127.0,127.0,127.0,127.0,128.0,125.0,128.0,-1.0,106.0,-73.0,127.0,127.0,127.0,-116.0,-87.0,105.0
126.0,127.0,127.0,127.0,127.0,128.0,125.0,128.0,-1.0,106.0,-73.0,127.0,127.0,127.0,-116.0,-87.0,105.0
126.0,127.0,127.0,127.0,127.0,128.0,126.0,128.0,-1.0,106.0,-73.0,127.0,127.0,127.0,-116.0,-87.0,105.0
126.0,127.0,127.0,127.0,127.0,127.0,126.0,128.0,-1.0,106.0,-73.0,127.0,127.0,127.0,-116.0,-87.0,105.0
127.0,127.0,127.0,127.0,126.0,127.0,126.0,128.0,-1.0,106.0,-73.0,127.0,127.0,127.0,-116.0,-87.0,105.0
127.0,127.0,127.0,127.0,126.0,129.0,125.0,128.0,-1.0,106.0,-73.0,127.0,127.0,127.0,-116.0,-87.0,105.0
127.0,127.0,127.0,127.0,126.0,129.0,125.0,128.0,-1.0,106.0,-73.0,127.0,127.0,127.0,-116.0,-87.0,105.0
127.0,127.0,127.0,127.0,126.0,128.0,125.0,128.0,-1.0,106.0,-73.0,127.0,127.0,127.0,-116.0,-87.0,105.0
127.0,127.0,127.0,127.0,126.0,128.0,125.0,128.0,-1.0,106.0,-73.0,127.0,127.0,127.0,-116.0,-87.0,105.0
127.0,127.0,127.0,127.0,126.0,128.0,125.0,128.0,-1.0,106.0,-73.0,127.0,127.0,127.0,-116.0,-87.0,105.0
127.0,127.0,127.0,127.0,126.0,128.0,125.0,128.0,-1.0,106.0,-73.0,127.0,127.0,127.0,-116.0,-87.0,105.0
127.0,127.0,127.0,127.0,126.0,128.0,125.0,128.0,-1.0,106.0,-73.0,127.0,127.0,127.0,-116.0,-87.0,105.0
127.0,127.0,127.0,127.0,126.0,128.0,126.0,128.0,-1.0,106.0,-73.0,127.0,127.0,127.0,-116.0,-87.0,105.0
127.0,127.0,127.0,127.0,126.0,127.0,126.0,128.0,-1.0,106.0,-73.0,127.0,127.0,127.0,-116.0,-87.0,105.0
127.0,127.0,127.0,127.0,126.0,129.0,125.0,128.0,-1.0,106.0,-73.0,127.0,127.0,127.0,-116.0,-87.0,105.0
127.0,127.0,127.0,127.0,127.0,129.0,125.0,128.0,-1.0,106.0,-73.0,127.0,127.0,127.0,-116.0,-87.0,105.0
127.0,127.0,127.0,127.0,127.0,129.0,125.0,128.0,-1.0,106.0,-73.0,127.0,127.0,127.0,-116.0,-87.0,105.0
127.0,127.0,127.0,127.0,127.0,129.0,125.0,128.0,-1.0,106.0,-73.0,127.0,127.0,127.0,-116.0,-87.0,105.0
127.0,127.0,127.0,127.0,127.0,128.0,125.0,128.0,-1.0,106.0,-73.0,127.0,127.0,127.0,-116.0,-87.0,105.0
127.0,127.0,127.0,128.0,127.0,128.0,126.0,128.0,-1.0,106.0,-73.0,127.0,127.0,127.0,-116.0,-87.0,105.0
127.0,127.0,127.0,127.0,127.0,128.0,126.0,128.0,-1.0,106.0,-73.0,127.0,127.0,127.0,-116.0,-87.0,105.0
127.0,127.0,127.0,127.0,127.0,128.0,126.0,128.0,-1.0,106.0,-73.0,127.0,127.0,127.0,-116.0,-87.0,105.0
127.0,127.0,127.0,127.0,127.0,128.0,126.0,128.0,-1.0,106.0,-73.0,127.0,127.0,127.0,-116.0,-87.0,105.0
127.0,127.0,127.0,127.0,127.0,128.0,126.0,128.0,-1.0,106.0,-73.0,127.0,127.0,127.0,-116.0,-87.0,105.0
126.0,127.0,127.0,127.0,126.0,128.0,126.0,128.0,-1.0,106.0,-73.0,127.0,127.0,127.0,-116.0,-87.0,105.0
126.0,127.0,127.0,127.0,126.0,128.0,126.0,128.0,-1.0,106.0,-73.0,127.0,127.0,127.0,-116.0,-87.0,105.0
126.0,127.0,127.0,127.0,127.0,128.0,126.0,128.0,-1.0,106.0,-73.0,127.0,127.0,127.0,-116.0,-87.0,105.0
126.0,127.0,127.0,127.0,127.0,128.0,126.0,128.0,-1.0,106.0,-73.0,127.0,127.0,127.0,-116.0,-87.0,105.0
126.0,127.0,127.0,127.0,127.0,128.0,126.0,128.0,-1.0,106.0,-73.0,127.0,127.0,127.0,-116.0,-87.0,105.0
126.0,127.0,127.0,127.0,127.0,128.0,126.0,128.0,-1.0,106.0,-73.0,127.0,127.0,127.0,-116.0,-87.0,105.0
126.0,127.0,127.0,127.0,127.0,128.0,126.0,128.0,-1.0,106.0,-73.0,127.0,127.0,127.0,-116.0,-87.0,105.0
126.0,127.0,127.0,127.0,127.0,127.0,126.0,128.0,-1.0,106.0,-73.0,127.0,127.0,127.0,-116.0,-87.0,105.0
126.0,127.0,127.0,127.0,127.0,127.0,126.0,128.0,-1.0,106.0,-73.0,127.0,127.0,127.0,-116.0,-87.0,105.0
126.0,127.0,127.0,127.0,126.0,128.0,126.0,128.0,-1.0,106.0,-73.0,127.0,127.0,127.0,-116.0,-87.0,105.0
126.0,127.0,127.0,127.0,126.0,127.0,126.0,128.0,-1.0,106.0,-73.0,127.0,127.0,127.0,-116.0,-87.0,105.0
127.0,127.0,127.0,127.0,126.0,128.0,126.0,128.0,-1.0,106.0,-73.0,127.0,127.0,127.0,-116.0,-87.0,105.0
127.0,127.0,127.0,127.0,126.0,128.0,125.0,128.0,-1.0,106.0,-73.0,127.0,127.0,127.0,-116.0,-87.0,105.0
126.0,127.0,127.0,127.0,126.0,128.0,126.0,128.0,-1.0,106.0,-73.0,127.0,127.0,127.0,-116.0,-87.0,105.0
126.0,127.0,127.0,127.0,126.0,127.0,126.0,128.0,-1.0,106.0,-73.0,127.0,127.0,127.0,-116.0,-87.0,105.0
126.0,127.0,127.0,127.0,126.0,127.0,126.0,128.0,-1.0,106.0,-73.0,127.0,127.0,127.0,-116.0,-87.0,105.0
126.0,127.0,127.0,127.0,126.0,127.0,126.0,128.0,-1.0,106.0,-73.0,127.0,127.0,127.0,-116.0,-87.0,105.0
126.0,127.0,127.0,127.0,126.0,128.0,125.0,128.0,-1.0,106.0,-73.0,127.0,127.0,127.0,-116.0,-87.0,105.0
126.0,127.0,127.0,127.0,126.0,127.0,126.0,128.0,-1.0,106.0,-73.0,127.0,127.0,127.0,-116.0,-87.0,105.0
126.0,127.0,127.0,127.0,126.0,127.0,126.0,128.0,-1.0,106.0,-73.0,127.0,127.0,127.0,-116.0,-87.0,105.0
127.0,127.0,127.0,128.0,127.0,128.0,126.0,128.0,-1.0,106.0,-73.0,127.0,127.0,127.0,-116.0,-87.0,105.0
127.0,126.0,127.0,128.0,127.0,128.0,126.0,128.0,-1.0,106.0,-73.0,127.0,127.0,127.0,-116.0,-87.0,105.0
127.0,126.0,127.0,128.0,127.0,128.0,126.0,128.0,-1.0,106.0,-73.0,127.0,127.0,127.0,-116.0,-87.0,105.0
127.0,126.0,127.0,127.0,127.0,128.0,126.0,128.0,-1.0,106.0,-73.0,127.0,127.0,127.0,-116.0,-87.0,105.0
127.0,126.0,127.0,127.0,127.0,128.0,126.0,128.0,-1.0,106.0,-73.0,127.0,127.0,127.0,-116.0,-87.0,105.0
127.0,126.0,127.0,127.0,127.0,128.0,126.0,128.0,-1.0,106.0,-73.0,127.0,127.0,127.0,-116.0,-87.0,105.0
127.0,126.0,127.0,127.0,127.0,128.0,126.0,128.0,-1.0,106.0,-73.0,127.0,127.0,127.0,-116.0,-87.0,105.0
127.0,127.0,127.0,128.0,127.0,128.0,125.0,128.0,-1.0,106.0,-73.0,127.0,127.0,127.0,-116.0,-87.0,105.0
127.0,127.0,127.0,128.0,127.0,128.0,125.0,128.0,-1.0,106.0,-73.0,127.0,127.0,127.0,-116.0,-87.0,105.0
127.0,127.0,127.0,128.0,127.0,128.0,125.0,128.0,-1.0,106.0,-73.0,127.0,127.0,127.0,-116.0,-87.0,105.0
127.0,127.0,127.0,127.0,127.0,128.0,125.0,128.0,-1.0,106.0,-73.0,127.0,127.0,127.0,-116.0,-87.0,105.0
127.0,127.0,127.0,127.0,127.0,127.0,126.0,128.0,-1.0,106.0,-73.0,127.0,127.0,127.0,-116.0,-87.0,105.0
127.0,127.0,127.0,127.0,127.0,127.0,126.0,128.0,-1.0,106.0,-73.0,127.0,127.0,127.0,-116.0,-87.0,105.0
127.0,127.0,127.0,127.0,127.0,127.0,126.0,128.0,-1.0,106.0,-73.0,127.0,127.0,127.0,-116.0,-87.0,105.0
127.0,127.0,127.0,127.0,127.0,127.0,126.0,128.0,-1.0,106.0,-73.0,127.0,127.0,127.0,-116.0,-87.0,105.0
127.0,127.0,127.0,127.0,127.0,127.0,126.0,128.0,-1.0,106.0,-73.0,127.0,127.0,127.0,-116.0,-87.0,105.0
127.0,127.0,127.0,127.0,127.0,128.0,125.0,128.0,-1.0,106.0,-73.0,127.0,127.0,127.0,-116.0,-87.0,105.0
126.0,127.0,127.0,127.0,127.0,128.0,125.0,128.0,-1.0,106.0,-73.0,127.0,127.0,127.0,-116.0,-87.0,105.0
127.0,127.0,127.0,127.0,127.0,128.0,125.0,128.0,-1.0,106.0,-73.0,127.0,127.0,127.0,-116.0,-87.0,105.0
127.0,127.0,127.0,127.0,127.0,128.0,125.0,128.0,-1.0,106.0,-73.0,127.0,127.0,127.0,-116.0,-87.0,105.0
127.0,127.0,127.0,127.0,127.0,128.0,126.0,128.0,-1.0,106.0,-73.0,127.0,127.0,127.0,-116.0,-87.0,105.0
127.0,126.0,127.0,127.0,127.0,128.0,126.0,128.0,-1.0,106.0,-73.0,127.0,127.0,127.0,-116.0,-87.0,105.0
127.0,126.0,127.0,127.0,127.0,127.0,126.0,128.0,-1.0,106.0,-73.0,127.0,127.0,127.0,-116.0,-87.0,105.0
127.0,126.0,127.0,127.0,127.0,127.0,126.0,128.0,-1.0,106.0,-73.0,127.0,127.0,127.0,-116.0,-87.0,105.0
127.0,126.0,127.0,127.0,127.0,127.0,126.0,128.0,-1.0,106.0,-73.0,127.0,127.0,127.0,-116.0,-87.0,105.0
127.0,127.0,127.0,127.0,126.0,128.0,125.0,128.0,-1.0,106.0,-73.0,127.0,127.0,127.0,-116.0,-87.0,105.0
127.0,127.0,127.0,127.0,126.0,128.0,125.0,128.0,-1.0,106.0,-73.0,127.0,127.0,127.0,-116.0,-87.0,105.0
127.0,127.0,127.0,127.0,126.0,128.0,125.0,128.0,-1.0,106.0,-73.0,127.0,127.0,127.0,-116.0,-87.0,105.0
127.0,127.0,127.0,127.0,126.0,128.0,126.0,128.0,-1.0,106.0,-73.0,127.0,127.0,127.0,-116.0,-87.0,105.0
127.0,126.0,127.0,127.0,127.0,128.0,126.0,128.0,-1.0,106.0,-73.0,127.0,127.0,127.0,-116.0,-87.0,105.0
126.0,127.0,127.0,127.0,126.0,128.0,126.0,128.0,-1.0,106.0,-73.0,127.0,127.0,127.0,-116.0,-87.0,105.0
126.0,127.0,127.0,127.0,126.0,127.0,126.0,128.0,-1.0,106.0,-73.0,127.0,127.0,127.0,-116.0,-87.0,105.0
126.0,127.0,127.0,127.0,126.0,127.0,126.0,128.0,-1.0,106.0,-73.0,127.0,127.0,127.0,-116.0,-87.0,105.0
126.0,127.0,127.0,127.0,126.0,127.0,126.0,128.0,-1.0,106.0,-73.0,127.0,127.0,127.0,-116.0,-87.0,105.0
126.0,127.0,127.0,127.0,126.0,128.0,125.0,128.0,-1.0,106.0,-73.0,127.0,127.0,127.0,-116.0,-87.0,105.0
126.0,127.0,127.0,127.0,126.0,128.0,125.0,128.0,-1.0,106.0,-73.0,127.0,127.0,127.0,-116.0,-87.0,105.0
126.0,127.0,127.0,127.0,126.0,128.0,125.0,128.0,-1.0,106.0,-73.0,127.0,127.0,127.0,-116.0,-87.0,105.0
126.0,127.0,127.0,127.0,126.0,128.0,125.0,128.0,-1.0,106.0,-73.0,127.0,127.0,127.0,-116.0,-87.0,105.0
126.0,127.0,127.0,127.0,126.0,128.0,125.0,128.0,-1.0,106.0,-73.0,127.0,127.0,127.0,-116.0,-87.0,105.0
126.0,127.0,127.0,127.0,126.0,128.0,125.0,128.0,-1.0,106.0,-73.0,127.0,127.0,127.0,-116.0,-87.0,105.0
127.0,127.0,127.0,128.0,127.0,127.0,126.0,128.0,-1.0,106.0,-73.0,127.0,127.0,127.0,-116.0,-87.0,105.0
127.0,127.0,127.0,128.0,127.0,128.0,126.0,128.0,-1.0,106.0,-73.0,127.0,127.0,127.0,-116.0,-87.0,105.0
127.0,127.0,127.0,128.0,127.0,127.0,126.0,128.0,-1.0,106.0,-73.0,127.0,127.0,127.0,-116.0,-87.0,105.0
127.0,127.0,127.0,128.0,127.0,128.0,125.0,128.0,-1.0,106.0,-73.0,127.0,127.0,127.0,-116.0,-87.0,105.0
127.0,127.0,127.0,128.0,127.0,128.0,125.0,128.0,-1.0,106.0,-73.0,127.0,127.0,127.0,-116.0,-87.0,105.0
127.0,127.0,127.0,128.0,127.0,128.0,125.0,128.0,-1.0,106.0,-73.0,127.0,127.0,127.0,-116.0,-87.0,105.0
127.0,127.0,127.0,128.0,127.0,128.0,125.0,128.0,-1.0,106.0,-73.0,127.0,127.0,127.0,-116.0,-87.0,105.0
127.0,127.0,127.0,128.0,127.0,128.0,125.0,128.0,-1.0,106.0,-73.0,127.0,127.0,127.0,-116.0,-87.0,105.0
127.0,127.0,127.0,128.0,127.0,128.0,125.0,128.0,-1.0,106.0,-73.0,127.0,127.0,127.0,-116.0,-87.0,105.0
127.0,127.0,127.0,128.0,127.0,128.0,126.0,128.0,-1.0,106.0,-73.0,127.0,127.0,127.0,-116.0,-87.0,105.0
127.0,127.0,127.0,127.0,126.0,128.0,126.0,128.0,-1.0,106.0,-73.0,127.0,127.0,127.0,-116.0,-87.0,105.0
126.0,127.0,127.0,127.0,126.0,128.0,126.0,128.0,-1.0,106.0,-73.0,127.0,127.0,127.0,-116.0,-87.0,105.0
127.0,127.0,127.0,127.0,126.0,128.0,125.0,128.0,-1.0,106.0,-73.0,127.0,127.0,127.0,-116.0,-87.0,105.0
127.0,127.0,127.0,127.0,126.0,128.0,125.0,128.0,-1.0,106.0,-73.0,127.0,127.0,127.0,-116.0,-87.0,105.0
127.0,127.0,127.0,127.0,126.0,128.0,125.0,128.0,-1.0,106.0,-73.0,127.0,127.0,127.0,-116.0,-87.0,105.0
127.0,127.0,127.0,127.0,126.0,128.0,125.0,128.0,-1.0,106.0,-73.0,127.0,127.0,127.0,-116.0,-87.0,105.0
127.0,127.0,127.0,127.0,126.0,128.0,125.0,128.0,-1.0,106.0,-73.0,127.0,127.0,127.0,-116.0,-87.0,105.0
127.0,127.0,127.0,127.0,126.0,128.0,126.0,128.0,-1.0,106.0,-73.0,127.0,127.0,127.0,-116.0,-87.0,105.0
127.0,127.0,127.0,127.0,126.0,128.0,126.0,128.0,-1.0,106.0,-73.0,127.0,127.0,127.0,-116.0,-87.0,105.0
126.0,127.0,127.0,127.0,126.0,128.0,126.0,128.0,-1.0,106.0,-73.0,127.0,127.0,127.0,-116.0,-87.0,105.0
127.0,127.0,127.0,127.0,127.0,127.0,126.0,128.0,-1.0,106.0,-73.0,127.0,127.0,127.0,-116.0,-87.0,105.0
127.0,127.0,127.0,127.0,127.0,128.0,125.0,128.0,-1.0,106.0,-73.0,127.0,127.0,127.0,-116.0,-87.0,105.0
127.0,127.0,127.0,127.0,126.0,128.0,125.0,128.0,-1.0,106.0,-73.0,127.0,127.0,127.0,-116.0,-87.0,105.0
127.0,127.0,127.0,127.0,127.0,128.0,125.0,128.0,-1.0,106.0,-73.0,127.0,127.0,127.0,-116.0,-87.0,105.0
127.0,127.0,127.0,127.0,127.0,128.0,125.0,128.0,-1.0,106.0,-73.0,127.0,127.0,127.0,-116.0,-87.0,105.0
127.0,127.0,127.0,127.0,127.0,128.0,125.0,128.0,-1.0,106.0,-73.0,127.0,127.0,127.0,-116.0,-87.0,105.0
127.0,127.0,127.0,127.0,127.0,128.0,125.0,128.0,-1.0,106.0,-73.0,127.0,127.0,127.0,-116.0,-87.0,105.0
127.0,127.0,127.0,127.0,127.0,128.0,125.0,128.0,-1.0,106.0,-73.0,127.0,127.0,127.0,-116.0,-87.0,105.0
127.0,127.0,127.0,127.0,127.0,127.0,125.0,128.0,-1.0,106.0,-73.0,127.0,127.0,127.0,-116.0,-87.0,105.0
127.0,127.0,127.0,127.0,127.0,127.0,126.0,128.0,-1.0,106.0,-73.0,127.0,127.0,127.0,-116.0,-87.0,105.0
127.0,127.0,127.0,127.0,127.0,127.0,126.0,128.0,-1.0,106.0,-73.0,127.0,127.0,127.0,-116.0,-87.0,105.0
127.0,127.0,127.0,127.0,126.0,127.0,126.0,128.0,-1.0,106.0,-73.0,127.0,127.0,127.0,-116.0,-87.0,105.0
127.0,127.0,127.0,127.0,126.0,128.0,125.0,128.0,-1.0,106.0,-73.0,127.0,127.0,127.0,-116.0,-87.0,105.0
127.0,127.0,127.0,127.0,126.0,128.0,126.0,128.0,-1.0,106.0,-73.0,127.0,127.0,127.0,-116.0,-87.0,105.0
127.0,127.0,127.0,127.0,126.0,128.0,126.0,128.0,-1.0,106.0,-73.0,127.0,127.0,127.0,-116.0,-87.0,105.0
127.0,127.0,127.0,127.0,127.0,128.0,126.0,128.0,-1.0,106.0,-73.0,127.0,127.0,127.0,-116.0,-87.0,105.0
127.0,127.0,127.0,127.0,127.0,128.0,126.0,128.0,-1.0,106.0,-73.0,127.0,127.0,127.0,-116.0,-87.0,105.0
127.0,127.0,127.0,127.0,127.0,128.0,126.0,128.0,-1.0,106.0,-73.0,127.0,127.0,127.0,-116.0,-87.0,105.0
127.0,127.0,127.0,128.0,126.0,128.0,126.0,128.0,-1.0,106.0,-73.0,127.0,127.0,127.0,-116.0,-87.0,105.0
127.0,127.0,127.0,127.0,127.0,128.0,126.0,128.0,-1.0,106.0,-73.0,127.0,127.0,127.0,-116.0,-87.0,105.0
127.0,127.0,127.0,127.0,126.0,128.0,126.0,128.0,-1.0,106.0,-73.0,127.0,127.0,127.0,-116.0,-87.0,105.0
127.0,127.0,127.0,127.0,126.0,128.0,125.0,128.0,-1.0,106.0,-73.0,127.0,127.0,127.0,-116.0,-87.0,105.0
127.0,127.0,127.0,127.0,126.0,128.0,126.0,128.0,-1.0,106.0,-73.0,127.0,127.0,127.0,-116.0,-87.0,105.0
127.0,127.0,127.0,127.0,126.0,128.0,126.0,128.0,-1.0,106.0,-73.0,127.0,127.0,127.0,-116.0,-87.0,105.0
127.0,127.0,127.0,127.0,126.0,128.0,126.0,128.0,-1.0,106.0,-73.0,127.0,127.0,127.0,-116.0,-87.0,105.0
127.0,127.0,127.0,127.0,126.0,128.0,126.0,128.0,-1.0,106.0,-73.0,127.0,127.0,127.0,-116.0,-87.0,105.0
127.0,127.0,127.0,127.0,126.0,128.0,126.0,128.0,-1.0,106.0,-73.0,127.0,127.0,127.0,-116.0,-87.0,105.0
127.0,127.0,127.0,127.0,126.0,128.0,125.0,128.0,-1.0,106.0,-73.0,127.0,127.0,127.0,-116.0,-87.0,105.0
127.0,127.0,127.0,127.0,126.0,128.0,125.0,128.0,-1.0,106.0,-73.0,127.0,127.0,127.0,-116.0,-87.0,105.0
127.0,127.0,127.0,127.0,127.0,127.0,126.0,128.0,-1.0,106.0,-73.0,127.0,127.0,127.0,-116.0,-87.0,105.0
127.0,127.0,127.0,127.0,126.0,128.0,125.0,128.0,-1.0,106.0,-73.0,127.0,127.0,127.0,-116.0,-87.0,105.0
127.0,127.0,127.0,127.0,126.0,128.0,125.0,128.0,-1.0,106.0,-73.0,127.0,127.0,127.0,-116.0,-87.0,105.0
127.0,127.0,127.0,127.0,127.0,128.0,125.0,128.0,-1.0,106.0,-73.0,127.0,127.0,127.0,-116.0,-87.0,105.0
127.0,127.0,127.0,127.0,127.0,128.0,125.0,128.0,-1.0,106.0,-73.0,127.0,127.0,127.0,-116.0,-87.0,105.0
127.0,127.0,127.0,127.0,127.0,128.0,125.0,128.0,-1.0,106.0,-73.0,127.0,127.0,127.0,-116.0,-87.0,105.0
127.0,127.0,127.0,127.0,127.0,128.0,125.0,128.0,-1.0,106.0,-73.0,127.0,127.0,127.0,-116.0,-87.0,105.0
127.0,127.0,127.0,127.0,126.0,128.0,125.0,128.0,-1.0,106.0,-73.0,127.0,127.0,127.0,-116.0,-87.0,105.0
127.0,127.0,127.0,127.0,126.0,128.0,125.0,128.0,-1.0,106.0,-73.0,127.0,127.0,127.0,-116.0,-87.0,105.0
127.0,126.0,127.0,127.0,127.0,127.0,126.0,127.0,-1.0,106.0,-73.0,127.0,127.0,127.0,-116.0,-87.0,105.0
127.0,126.0,127.0,127.0,127.0,127.0,125.0,127.0,-1.0,106.0,-73.0,127.0,127.0,127.0,-116.0,-87.0,105.0
127.0,127.0,127.0,127.0,127.0,128.0,125.0,128.0,-1.0,106.0,-73.0,127.0,127.0,127.0,-116.0,-87.0,105.0
127.0,127.0,127.0,127.0,127.0,128.0,125.0,128.0,-1.0,106.0,-73.0,127.0,127.0,127.0,-116.0,-87.0,105.0
127.0,126.0,127.0,127.0,127.0,128.0,125.0,128.0,-1.0,106.0,-73.0,127.0,127.0,127.0,-116.0,-87.0,105.0
127.0,127.0,127.0,127.0,127.0,128.0,125.0,128.0,-1.0,106.0,-73.0,127.0,127.0,127.0,-116.0,-87.0,105.0
127.0,126.0,127.0,127.0,127.0,128.0,125.0,128.0,-1.0,106.0,-73.0,127.0,127.0,127.0,-116.0,-87.0,105.0
127.0,127.0,127.0,127.0,126.0,128.0,125.0,128.0,-1.0,106.0,-73.0,127.0,127.0,127.0,-116.0,-87.0,105.0
127.0,127.0,127.0,127.0,127.0,128.0,125.0,128.0,-1.0,106.0,-73.0,127.0,127.0,127.0,-116.0,-87.0,105.0
127.0,126.0,127.0,127.0,127.0,127.0,126.0,127.0,-1.0,106.0,-73.0,127.0,127.0,127.0,-116.0,-87.0,105.0
127.0,126.0,127.0,127.0,127.0,127.0,125.0,127.0,-1.0,106.0,-73.0,127.0,127.0,127.0,-116.0,-87.0,105.0
127.0,126.0,127.0,127.0,126.0,128.0,125.0,128.0,-1.0,106.0,-73.0,127.0,127.0,127.0,-116.0,-87.0,105.0
127.0,127.0,127.0,127.0,127.0,128.0,126.0,128.0,-1.0,106.0,-73.0,127.0,127.0,127.0,-116.0,-87.0,105.0
127.0,127.0,127.0,127.0,127.0,128.0,126.0,128.0,-1.0,106.0,-73.0,127.0,127.0,127.0,-116.0,-87.0,105.0
127.0,127.0,127.0,127.0,127.0,128.0,126.0,128.0,-1.0,106.0,-73.0,127.0,127.0,127.0,-116.0,-87.0,105.0
127.0,127.0,127.0,127.0,127.0,128.0,126.0,128.0,-1.0,106.0,-73.0,127.0,127.0,127.0,-116.0,-87.0,105.0
127.0,127.0,127.0,127.0,127.0,128.0,126.0,128.0,-1.0,106.0,-73.0,127.0,127.0,127.0,-116.0,-87.0,105.0
127.0,127.0,127.0,127.0,127.0,128.0,126.0,128.0,-1.0,106.0,-73.0,127.0,127.0,127.0,-116.0,-87.0,105.0
127.0,127.0,127.0,127.0,127.0,127.0,126.0,128.0,-1.0,106.0,-73.0,127.0,127.0,127.0,-116.0,-87.0,105.0
127.0,127.0,127.0,127.0,127.0,127.0,126.0,128.0,-1.0,106.0,-73.0,127.0,127.0,127.0,-116.0,-87.0,105.0
127.0,127.0,127.0,127.0,127.0,128.0,126.0,128.0,-1.0,106.0,-73.0,127.0,127.0,127.0,-116.0,-87.0,105.0
127.0,127.0,127.0,127.0,127.0,128.0,126.0,128.0,-1.0,106.0,-73.0,127.0,127.0,127.0,-116.0,-87.0,105.0
127.0,127.0,127.0,127.0,127.0,128.0,126.0,128.0,-1.0,106.0,-73.0,127.0,127.0,127.0,-116.0,-87.0,105.0
127.0,127.0,127.0,127.0,127.0,128.0,126.0,128.0,-1.0,106.0,-73.0,127.0,127.0,127.0,-116.0,-87.0,105.0
127.0,127.0,127.0,127.0,127.0,128.0,126.0,128.0,-1.0,106.0,-73.0,127.0,127.0,127.0,-116.0,-87.0,105.0
127.0,127.0,127.0,127.0,126.0,128.0,125.0,128.0,-1.0,106.0,-73.0,127.0,127.0,127.0,-116.0,-87.0,105.0
127.0,127.0,127.0,127.0,126.0,129.0,125.0,128.0,-1.0,106.0,-73.0,127.0,127.0,127.0,-116.0,-87.0,105.0
127.0,127.0,127.0,127.0,127.0,127.0,126.0,127.0,-1.0,106.0,-73.0,127.0,127.0,127.0,-116.0,-87.0,105.0
127.0,127.0,127.0,127.0,127.0,127.0,126.0,127.0,-1.0,106.0,-73.0,127.0,127.0,127.0,-116.0,-87.0,105.0
127.0,127.0,127.0,127.0,126.0,128.0,125.0,128.0,-1.0,106.0,-73.0,127.0,127.0,127.0,-116.0,-87.0,105.0
127.0,127.0,127.0,127.0,126.0,128.0,125.0,128.0,-1.0,106.0,-73.0,127.0,127.0,127.0,-116.0,-87.0,105.0
127.0,127.0,127.0,127.0,127.0,128.0,125.0,128.0,-1.0,106.0,-73.0,127.0,127.0,127.0,-116.0,-87.0,105.0
127.0,127.0,127.0,127.0,127.0,127.0,125.0,128.0,-1.0,106.0,-73.0,127.0,127.0,127.0,-116.0,-87.0,105.0
127.0,127.0,127.0,127.0,127.0,127.0,126.0,128.0,-1.0,106.0,-73.0,127.0,127.0,127.0,-116.0,-87.0,105.0
127.0,127.0,127.0,127.0,127.0,127.0,126.0,128.0,-1.0,106.0,-73.0,127.0,127.0,127.0,-116.0,-87.0,105.0
127.0,127.0,127.0,127.0,127.0,127.0,126.0,128.0,-1.0,106.0,-73.0,127.0,127.0,127.0,-116.0,-87.0,105.0
127.0,127.0,127.0,127.0,126.0,128.0,125.0,128.0,-1.0,106.0,-73.0,127.0,127.0,127.0,-116.0,-87.0,105.0
127.0,127.0,127.0,127.0,126.0,128.0,125.0,128.0,-1.0,106.0,-73.0,127.0,127.0,127.0,-116.0,-87.0,105.0
127.0,127.0,127.0,128.0,126.0,128.0,125.0,128.0,-1.0,106.0,-73.0,127.0,127.0,127.0,-116.0,-87.0,105.0
127.0,127.0,127.0,127.0,126.0,128.0,125.0,128.0,-1.0,106.0,-73.0,127.0,127.0,127.0,-116.0,-87.0,105.0
127.0,127.0,127.0,127.0,126.0,128.0,125.0,128.0,-1.0,106.0,-73.0,127.0,127.0,127.0,-116.0,-87.0,105.0
127.0,127.0,127.0,127.0,127.0,127.0,125.0,128.0,-1.0,106.0,-73.0,127.0,127.0,127.0,-116.0,-87.0,105.0
127.0,127.0,127.0,127.0,127.0,128.0,126.0,128.0,-1.0,106.0,-73.0,127.0,127.0,127.0,-116.0,-87.0,105.0
127.0,127.0,127.0,127.0,127.0,127.0,126.0,128.0,-1.0,106.0,-73.0,127.0,127.0,127.0,-116.0,-87.0,105.0
127.0,127.0,127.0,127.0,127.0,127.0,126.0,128.0,-1.0,106.0,-73.0,127.0,127.0,127.0,-116.0,-87.0,105.0
127.0,127.0,127.0,127.0,127.0,128.0,125.0,128.0,-1.0,106.0,-73.0,127.0,127.0,127.0,-116.0,-87.0,105.0
127.0,127.0,127.0,127.0,127.0,128.0,125.0,128.0,-1.0,106.0,-73.0,127.0,127.0,127.0,-116.0,-87.0,105.0
127.0,127.0,127.0,127.0,127.0,128.0,125.0,128.0,-1.0,106.0,-73.0,127.0,127.0,127.0,-116.0,-87.0,105.0
127.0,127.0,127.0,127.0,127.0,128.0,125.0,128.0,-1.0,106.0,-73.0,127.0,127.0,127.0,-116.0,-87.0,105.0
127.0,127.0,127.0,127.0,127.0,128.0,125.0,128.0,-1.0,106.0,-73.0,127.0,127.0,127.0,-116.0,-87.0,105.0
127.0,127.0,127.0,127.0,127.0,128.0,126.0,128.0,-1.0,106.0,-73.0,127.0,127.0,127.0,-116.0,-87.0,105.0
127.0,127.0,127.0,127.0,127.0,128.0,126.0,128.0,-1.0,106.0,-73.0,127.0,127.0,127.0,-116.0,-87.0,105.0
127.0,127.0,127.0,127.0,127.0,128.0,126.0,128.0,-1.0,106.0,-73.0,127.0,127.0,127.0,-116.0,-87.0,105.0
127.0,127.0,127.0,127.0,127.0,129.0,126.0,128.0,-1.0,106.0,-73.0,127.0,127.0,127.0,-116.0,-87.0,105.0
127.0,127.0,127.0,127.0,127.0,127.0,126.0,128.0,-1.0,106.0,-73.0,127.0,127.0,127.0,-116.0,-87.0,105.0
127.0,127.0,127.0,127.0,127.0,128.0,126.0,128.0,-1.0,106.0,-73.0,127.0,127.0,127.0,-116.0,-87.0,105.0
127.0,127.0,127.0,127.0,127.0,128.0,126.0,128.0,-1.0,106.0,-73.0,127.0,127.0,127.0,-116.0,-87.0,105.0
127.0,127.0,127.0,127.0,127.0,128.0,125.0,128.0,-1.0,106.0,-73.0,127.0,127.0,127.0,-116.0,-87.0,105.0
127.0,127.0,127.0,127.0,127.0,128.0,125.0,128.0,-1.0,106.0,-73.0,127.0,127.0,127.0,-116.0,-87.0,105.0
127.0,127.0,127.0,127.0,127.0,128.0,126.0,128.0,-1.0,106.0,-73.0,127.0,127.0,127.0,-116.0,-87.0,105.0
127.0,127.0,127.0,127.0,127.0,128.0,126.0,128.0,-1.0,106.0,-73.0,127.0,127.0,127.0,-116.0,-87.0,105.0
127.0,127.0,127.0,127.0,127.0,128.0,126.0,128.0,-1.0,106.0,-73.0,127.0,127.0,127.0,-116.0,-87.0,105.0
127.0,127.0,127.0,127.0,127.0,127.0,126.0,127.0,-1.0,106.0,-73.0,127.0,127.0,127.0,-116.0,-87.0,105.0
127.0,127.0,127.0,127.0,127.0,128.0,125.0,128.0,-1.0,106.0,-73.0,127.0,127.0,127.0,-116.0,-87.0,105.0
127.0,127.0,127.0,127.0,127.0,128.0,125.0,128.0,-1.0,106.0,-73.0,127.0,127.0,127.0,-116.0,-87.0,105.0
127.0,127.0,127.0,127.0,127.0,128.0,125.0,128.0,-1.0,106.0,-73.0,127.0,127.0,127.0,-116.0,-87.0,105.0
127.0,127.0,127.0,127.0,127.0,128.0,126.0,128.0,-1.0,106.0,-73.0,127.0,127.0,127.0,-116.0,-87.0,105.0
127.0,127.0,127.0,127.0,127.0,128.0,126.0,128.0,-1.0,106.0,-73.0,127.0,127.0,127.0,-116.0,-87.0,105.0
127.0,127.0,127.0,127.0,127.0,128.0,126.0,128.0,-1.0,106.0,-73.0,127.0,127.0,127.0,-116.0,-87.0,105.0
127.0,127.0,127.0,127.0,127.0,128.0,126.0,128.0,-1.0,106.0,-73.0,127.0,127.0,127.0,-116.0,-87.0,105.0
127.0,127.0,127.0,127.0,127.0,128.0,126.0,128.0,-1.0,106.0,-73.0,127.0,127.0,127.0,-116.0,-87.0,105.0
127.0,127.0,127.0,127.0,127.0,128.0,126.0,128.0,-1.0,106.0,-73.0,127.0,127.0,127.0,-116.0,-87.0,105.0
127.0,127.0,127.0,127.0,126.0,127.0,126.0,128.0,-1.0,106.0,-73.0,127.0,127.0,127.0,-116.0,-87.0,105.0
127.0,127.0,127.0,127.0,126.0,127.0,126.0,128.0,-1.0,106.0,-73.0,127.0,127.0,127.0,-116.0,-87.0,105.0
127.0,127.0,127.0,127.0,126.0,127.0,126.0,128.0,-1.0,106.0,-73.0,127.0,127.0,127.0,-116.0,-87.0,105.0
127.0,127.0,127.0,127.0,126.0,127.0,126.0,128.0,-1.0,106.0,-73.0,127.0,127.0,127.0,-116.0,-87.0,105.0
127.0,127.0,127.0,127.0,126.0,127.0,126.0,128.0,-1.0,106.0,-73.0,127.0,127.0,127.0,-116.0,-87.0,105.0
127.0,127.0,127.0,127.0,126.0,127.0,126.0,128.0,-1.0,106.0,-73.0,127.0,127.0,127.0,-116.0,-87.0,105.0
127.0,127.0,127.0,127.0,126.0,127.0,127.0,128.0,-1.0,106.0,-73.0,127.0,127.0,127.0,-116.0,-87.0,105.0
127.0,127.0,127.0,127.0,126.0,127.0,127.0,128.0,-1.0,106.0,-73.0,127.0,127.0,127.0,-116.0,-87.0,105.0
127.0,127.0,127.0,127.0,127.0,127.0,127.0,128.0,-1.0,106.0,-73.0,127.0,127.0,127.0,-116.0,-87.0,105.0
127.0,127.0,127.0,127.0,127.0,127.0,127.0,128.0,-1.0,106.0,-73.0,127.0,127.0,127.0,-116.0,-87.0,105.0
127.0,127.0,127.0,127.0,126.0,128.0,126.0,128.0,-1.0,106.0,-73.0,127.0,127.0,127.0,-116.0,-87.0,105.0
127.0,127.0,127.0,127.0,126.0,128.0,126.0,128.0,-1.0,106.0,-73.0,127.0,127.0,127.0,-116.0,-87.0,105.0
127.0,127.0,127.0,127.0,127.0,128.0,126.0,128.0,-1.0,106.0,-73.0,127.0,127.0,127.0,-116.0,-87.0,105.0
127.0,127.0,127.0,127.0,127.0,128.0,126.0,128.0,-1.0,106.0,-73.0,127.0,127.0,127.0,-116.0,-87.0,105.0
127.0,127.0,127.0,127.0,127.0,128.0,126.0,128.0,-1.0,106.0,-73.0,127.0,127.0,127.0,-116.0,-87.0,105.0
127.0,127.0,127.0,127.0,127.0,128.0,126.0,128.0,-1.0,106.0,-73.0,127.0,127.0,127.0,-116.0,-87.0,105.0
127.0,127.0,127.0,127.0,127.0,128.0,126.0,128.0,-1.0,106.0,-73.0,127.0,127.0,127.0,-116.0,-87.0,105.0
127.0,127.0,127.0,127.0,127.0,128.0,126.0,128.0,-1.0,106.0,-73.0,127.0,127.0,127.0,-116.0,-87.0,105.0
127.0,127.0,127.0,127.0,127.0,127.0,127.0,128.0,-1.0,106.0,-73.0,127.0,127.0,127.0,-116.0,-87.0,105.0
127.0,127.0,127.0,127.0,126.0,128.0,126.0,128.0,-1.0,106.0,-73.0,127.0,127.0,127.0,-116.0,-87.0,105.0
127.0,127.0,127.0,127.0,127.0,128.0,125.0,128.0,-1.0,106.0,-73.0,127.0,127.0,127.0,-116.0,-87.0,105.0
127.0,127.0,127.0,127.0,127.0,128.0,126.0,128.0,-1.0,106.0,-73.0,127.0,127.0,127.0,-116.0,-87.0,105.0
127.0,127.0,127.0,127.0,127.0,128.0,126.0,128.0,-1.0,106.0,-73.0,127.0,127.0,127.0,-116.0,-87.0,105.0
127.0,127.0,127.0,127.0,127.0,128.0,126.0,128.0,-1.0,106.0,-73.0,127.0,127.0,127.0,-116.0,-87.0,105.0
127.0,127.0,127.0,127.0,127.0,127.0,126.0,128.0,-1.0,106.0,-73.0,127.0,127.0,127.0,-116.0,-87.0,105.0
127.0,127.0,127.0,127.0,127.0,127.0,126.0,127.0,-1.0,106.0,-73.0,127.0,127.0,127.0,-116.0,-87.0,105.0
127.0,127.0,127.0,127.0,127.0,127.0,126.0,128.0,-1.0,106.0,-73.0,127.0,127.0,127.0,-116.0,-87.0,105.0
127.0,127.0,127.0,127.0,127.0,127.0,126.0,127.0,-1.0,106.0,-73.0,127.0,127.0,127.0,-116.0,-87.0,105.0
127.0,127.0,127.0,127.0,127.0,128.0,125.0,128.0,-1.0,106.0,-73.0,127.0,127.0,127.0,-116.0,-87.0,105.0
127.0,127.0,127.0,127.0,127.0,128.0,125.0,128.0,-1.0,106.0,-73.0,127.0,127.0,127.0,-116.0,-87.0,105.0
127.0,127.0,127.0,127.0,127.0,128.0,125.0,128.0,-1.0,106.0,-73.0,127.0,127.0,127.0,-116.0,-87.0,105.0
127.0,127.0,127.0,127.0,127.0,128.0,126.0,128.0,-1.0,106.0,-73.0,127.0,127.0,127.0,-116.0,-87.0,105.0
127.0,127.0,127.0,127.0,127.0,128.0,126.0,128.0,-1.0,106.0,-73.0,127.0,127.0,127.0,-116.0,-87.0,105.0
127.0,127.0,127.0,127.0,127.0,128.0,126.0,128.0,-1.0,106.0,-73.0,127.0,127.0,127.0,-116.0,-87.0,105.0
127.0,127.0,127.0,127.0,127.0,128.0,126.0,128.0,-1.0,106.0,-73.0,127.0,127.0,127.0,-116.0,-87.0,105.0
127.0,127.0,127.0,127.0,127.0,128.0,126.0,128.0,-1.0,106.0,-73.0,127.0,127.0,127.0,-116.0,-87.0,105.0
127.0,127.0,127.0,127.0,127.0,128.0,126.0,128.0,-1.0,106.0,-73.0,127.0,127.0,127.0,-116.0,-87.0,105.0
127.0,127.0,127.0,127.0,127.0,129.0,125.0,128.0,-1.0,106.0,-73.0,127.0,127.0,127.0,-116.0,-87.0,105.0
127.0,127.0,127.0,127.0,127.0,129.0,125.0,128.0,-1.0,106.0,-73.0,127.0,127.0,127.0,-116.0,-87.0,105.0
127.0,127.0,127.0,127.0,127.0,129.0,125.0,128.0,-1.0,106.0,-73.0,127.0,127.0,127.0,-116.0,-87.0,105.0
127.0,127.0,127.0,127.0,127.0,128.0,126.0,128.0,-1.0,106.0,-73.0,127.0,127.0,127.0,-116.0,-87.0,105.0
127.0,127.0,127.0,127.0,127.0,128.0,126.0,128.0,-1.0,106.0,-73.0,127.0,127.0,127.0,-116.0,-87.0,105.0
127.0,127.0,127.0,127.0,127.0,128.0,126.0,128.0,-1.0,106.0,-73.0,127.0,127.0,127.0,-116.0,-87.0,105.0
127.0,127.0,127.0,127.0,127.0,128.0,126.0,128.0,-1.0,106.0,-73.0,127.0,127.0,127.0,-116.0,-87.0,105.0
127.0,127.0,127.0,127.0,127.0,128.0,126.0,128.0,-1.0,106.0,-73.0,127.0,127.0,127.0,-116.0,-87.0,105.0
127.0,127.0,127.0,127.0,127.0,127.0,126.0,128.0,-1.0,106.0,-73.0,127.0,127.0,127.0,-116.0,-87.0,105.0
127.0,127.0,127.0,127.0,127.0,128.0,125.0,128.0,-1.0,106.0,-73.0,127.0,127.0,127.0,-116.0,-87.0,105.0
127.0,127.0,127.0,128.0,127.0,128.0,125.0,128.0,-1.0,106.0,-73.0,127.0,127.0,127.0,-116.0,-87.0,105.0
127.0,127.0,127.0,127.0,126.0,128.0,125.0,128.0,-1.0,106.0,-73.0,127.0,127.0,127.0,-116.0,-87.0,105.0
127.0,127.0,127.0,127.0,127.0,128.0,126.0,128.0,-1.0,106.0,-73.0,127.0,127.0,127.0,-116.0,-87.0,105.0
127.0,127.0,127.0,127.0,127.0,128.0,125.0,128.0,-1.0,106.0,-73.0,127.0,127.0,127.0,-116.0,-87.0,105.0
127.0,127.0,127.0,127.0,127.0,128.0,126.0,128.0,-1.0,106.0,-73.0,127.0,127.0,127.0,-116.0,-87.0,105.0
127.0,127.0,127.0,127.0,127.0,128.0,126.0,128.0,-1.0,106.0,-73.0,127.0,127.0,127.0,-116.0,-87.0,105.0
127.0,127.0,127.0,127.0,127.0,128.0,126.0,128.0,-1.0,106.0,-73.0,127.0,127.0,127.0,-116.0,-87.0,105.0
127.0,127.0,127.0,127.0,127.0,128.0,126.0,128.0,-1.0,106.0,-73.0,127.0,127.0,127.0,-116.0,-87.0,105.0
127.0,127.0,127.0,127.0,126.0,128.0,125.0,128.0,-1.0,106.0,-73.0,127.0,127.0,127.0,-116.0,-87.0,105.0
127.0,127.0,127.0,127.0,127.0,128.0,125.0,128.0,-1.0,106.0,-73.0,127.0,127.0,127.0,-116.0,-87.0,105.0
127.0,127.0,127.0,127.0,127.0,128.0,125.0,128.0,-1.0,106.0,-73.0,127.0,127.0,127.0,-116.0,-87.0,105.0
127.0,127.0,127.0,127.0,127.0,128.0,125.0,128.0,-1.0,106.0,-73.0,127.0,127.0,127.0,-116.0,-87.0,105.0
127.0,127.0,127.0,127.0,127.0,128.0,125.0,128.0,-1.0,106.0,-73.0,127.0,127.0,127.0,-116.0,-87.0,105.0
127.0,127.0,127.0,127.0,126.0,127.0,126.0,128.0,-1.0,106.0,-73.0,127.0,127.0,127.0,-116.0,-87.0,105.0
127.0,127.0,127.0,127.0,127.0,127.0,126.0,128.0,-1.0,106.0,-73.0,127.0,127.0,127.0,-116.0,-87.0,105.0
127.0,127.0,127.0,127.0,127.0,127.0,126.0,128.0,-1.0,106.0,-73.0,127.0,127.0,127.0,-116.0,-87.0,105.0
127.0,127.0,127.0,127.0,126.0,127.0,126.0,128.0,-1.0,106.0,-73.0,127.0,127.0,127.0,-116.0,-87.0,105.0
127.0,127.0,127.0,127.0,126.0,128.0,125.0,128.0,-1.0,106.0,-73.0,127.0,127.0,127.0,-116.0,-87.0,105.0
127.0,127.0,127.0,127.0,126.0,128.0,125.0,128.0,-1.0,106.0,-73.0,127.0,127.0,127.0,-116.0,-87.0,105.0
127.0,127.0,127.0,127.0,126.0,128.0,125.0,128.0,-1.0,106.0,-73.0,127.0,127.0,127.0,-116.0,-87.0,105.0
127.0,127.0,127.0,127.0,126.0,128.0,125.0,128.0,-1.0,106.0,-73.0,127.0,127.0,127.0,-116.0,-87.0,105.0
127.0,127.0,127.0,127.0,126.0,128.0,126.0,128.0,-1.0,106.0,-73.0,127.0,127.0,127.0,-116.0,-87.0,105.0
127.0,127.0,127.0,127.0,126.0,127.0,126.0,128.0,-1.0,106.0,-73.0,127.0,127.0,127.0,-116.0,-87.0,105.0
127.0,127.0,127.0,127.0,127.0,127.0,126.0,128.0,-1.0,106.0,-73.0,127.0,127.0,127.0,-116.0,-87.0,105.0
127.0,127.0,127.0,127.0,127.0,127.0,126.0,128.0,-1.0,106.0,-73.0,127.0,127.0,127.0,-116.0,-87.0,105.0
127.0,127.0,127.0,127.0,127.0,127.0,126.0,128.0,-1.0,106.0,-73.0,127.0,127.0,127.0,-116.0,-87.0,105.0
127.0,127.0,127.0,127.0,126.0,128.0,125.0,128.0,-1.0,106.0,-73.0,127.0,127.0,127.0,-116.0,-87.0,105.0
127.0,127.0,127.0,127.0,126.0,127.0,125.0,128.0,-1.0,106.0,-73.0,127.0,127.0,127.0,-116.0,-87.0,105.0
127.0,127.0,127.0,127.0,126.0,127.0,125.0,128.0,-1.0,106.0,-73.0,127.0,127.0,127.0,-116.0,-87.0,105.0
127.0,127.0,127.0,127.0,126.0,127.0,125.0,128.0,-1.0,106.0,-73.0,127.0,127.0,127.0,-116.0,-87.0,105.0
127.0,127.0,127.0,127.0,126.0,127.0,125.0,128.0,-1.0,106.0,-73.0,127.0,127.0,127.0,-116.0,-87.0,105.0
127.0,127.0,127.0,127.0,127.0,127.0,125.0,128.0,-1.0,106.0,-73.0,127.0,127.0,127.0,-116.0,-87.0,105.0
127.0,127.0,127.0,127.0,127.0,127.0,125.0,128.0,-1.0,106.0,-73.0,127.0,127.0,127.0,-116.0,-87.0,105.0
127.0,127.0,127.0,127.0,127.0,128.0,126.0,128.0,-1.0,106.0,-73.0,127.0,127.0,127.0,-116.0,-87.0,105.0
127.0,127.0,127.0,127.0,127.0,128.0,126.0,128.0,-1.0,106.0,-73.0,127.0,127.0,127.0,-116.0,-87.0,105.0
127.0,127.0,127.0,127.0,126.0,128.0,125.0,128.0,-1.0,106.0,-73.0,127.0,127.0,127.0,-116.0,-87.0,105.0
127.0,127.0,127.0,127.0,126.0,128.0,125.0,128.0,-1.0,106.0,-73.0,127.0,127.0,127.0,-116.0,-87.0,105.0
127.0,127.0,127.0,127.0,126.0,128.0,125.0,128.0,-1.0,106.0,-73.0,127.0,127.0,127.0,-116.0,-87.0,105.0
127.0,127.0,127.0,127.0,126.0,128.0,126.0,128.0,-1.0,106.0,-73.0,127.0,127.0,127.0,-116.0,-87.0,105.0
127.0,127.0,127.0,127.0,127.0,128.0,126.0,128.0,-1.0,106.0,-73.0,127.0,127.0,127.0,-116.0,-87.0,105.0
127.0,127.0,127.0,127.0,127.0,128.0,126.0,128.0,-1.0,106.0,-73.0,127.0,127.0,127.0,-116.0,-87.0,105.0
127.0,127.0,127.0,127.0,127.0,128.0,126.0,128.0,-1.0,106.0,-73.0,127.0,127.0,127.0,-116.0,-87.0,105.0
127.0,127.0,127.0,127.0,127.0,128.0,126.0,128.0,-1.0,106.0,-73.0,127.0,127.0,127.0,-116.0,-87.0,105.0
127.0,127.0,127.0,127.0,127.0,127.0,126.0,127.0,-1.0,106.0,-73.0,127.0,127.0,127.0,-116.0,-87.0,105.0
127.0,127.0,127.0,127.0,127.0,128.0,125.0,128.0,-1.0,106.0,-73.0,127.0,127.0,127.0,-116.0,-87.0,105.0
127.0,127.0,127.0,127.0,127.0,128.0,125.0,128.0,-1.0,106.0,-73.0,127.0,127.0,127.0,-116.0,-87.0,105.0
127.0,127.0,127.0,127.0,127.0,128.0,125.0,128.0,-1.0,106.0,-73.0,127.0,127.0,127.0,-116.0,-87.0,105.0
127.0,127.0,127.0,127.0,127.0,128.0,125.0,128.0,-1.0,106.0,-73.0,127.0,127.0,127.0,-116.0,-87.0,105.0
127.0,127.0,127.0,127.0,127.0,128.0,125.0,128.0,-1.0,106.0,-73.0,127.0,127.0,127.0,-116.0,-87.0,105.0
127.0,127.0,127.0,127.0,127.0,128.0,125.0,128.0,-1.0,106.0,-73.0,127.0,127.0,127.0,-116.0,-87.0,105.0
127.0,127.0,127.0,127.0,127.0,128.0,125.0,128.0,-1.0,106.0,-73.0,127.0,127.0,127.0,-116.0,-87.0,105.0
127.0,127.0,127.0,127.0,127.0,128.0,126.0,128.0,-1.0,106.0,-73.0,127.0,127.0,127.0,-116.0,-87.0,105.0
127.0,127.0,127.0,127.0,127.0,128.0,126.0,128.0,-1.0,106.0,-73.0,127.0,127.0,127.0,-116.0,-87.0,105.0
127.0,127.0,127.0,127.0,127.0,128.0,126.0,128.0,-1.0,106.0,-73.0,127.0,127.0,127.0,-116.0,-87.0,105.0
127.0,127.0,127.0,127.0,127.0,128.0,126.0,128.0,-1.0,106.0,-73.0,127.0,127.0,127.0,-116.0,-87.0,105.0
127.0,127.0,127.0,127.0,127.0,128.0,126.0,128.0,-1.0,106.0,-73.0,127.0,127.0,127.0,-116.0,-87.0,105.0
127.0,127.0,127.0,127.0,127.0,128.0,126.0,128.0,-1.0,106.0,-73.0,127.0,127.0,127.0,-116.0,-87.0,105.0
127.0,127.0,127.0,127.0,127.0,128.0,126.0,128.0,-1.0,106.0,-73.0,127.0,127.0,127.0,-116.0,-87.0,105.0
127.0,127.0,127.0,127.0,127.0,128.0,126.0,128.0,-1.0,106.0,-73.0,127.0,127.0,127.0,-116.0,-87.0,105.0
127.0,127.0,127.0,127.0,127.0,128.0,126.0,128.0,-1.0,106.0,-73.0,127.0,127.0,127.0,-116.0,-87.0,105.0
127.0,127.0,127.0,127.0,127.0,128.0,126.0,128.0,-1.0,106.0,-73.0,127.0,127.0,127.0,-116.0,-87.0,105.0
127.0,127.0,127.0,127.0,127.0,127.0,127.0,128.0,-1.0,106.0,-73.0,127.0,127.0,127.0,-116.0,-87.0,105.0
127.0,127.0,127.0,127.0,127.0,127.0,127.0,128.0,-1.0,106.0,-73.0,127.0,127.0,127.0,-116.0,-87.0,105.0
127.0,127.0,127.0,127.0,126.0,128.0,125.0,128.0,-1.0,106.0,-73.0,127.0,127.0,127.0,-116.0,-87.0,105.0
127.0,127.0,127.0,127.0,126.0,128.0,125.0,128.0,-1.0,106.0,-73.0,127.0,127.0,127.0,-116.0,-87.0,105.0
127.0,127.0,127.0,127.0,127.0,128.0,125.0,128.0,-1.0,106.0,-73.0,127.0,127.0,127.0,-116.0,-87.0,105.0
127.0,127.0,127.0,127.0,127.0,128.0,125.0,128.0,-1.0,106.0,-73.0,127.0,127.0,127.0,-116.0,-87.0,105.0
127.0,127.0,127.0,127.0,127.0,127.0,125.0,128.0,-1.0,106.0,-73.0,127.0,127.0,127.0,-116.0,-87.0,105.0
127.0,127.0,127.0,127.0,127.0,127.0,125.0,128.0,-1.0,106.0,-73.0,127.0,127.0,127.0,-116.0,-87.0,105.0
127.0,127.0,127.0,127.0,127.0,127.0,125.0,128.0,-1.0,106.0,-73.0,127.0,127.0,127.0,-116.0,-87.0,105.0
127.0,127.0,127.0,127.0,127.0,127.0,125.0,128.0,-1.0,106.0,-73.0,127.0,127.0,127.0,-116.0,-87.0,105.0
127.0,127.0,127.0,127.0,127.0,127.0,125.0,128.0,-1.0,106.0,-73.0,127.0,127.0,127.0,-116.0,-87.0,105.0
127.0,127.0,127.0,127.0,126.0,128.0,125.0,128.0,-1.0,106.0,-73.0,127.0,127.0,127.0,-116.0,-87.0,105.0
127.0,127.0,127.0,127.0,126.0,128.0,125.0,128.0,-1.0,106.0,-73.0,127.0,127.0,127.0,-116.0,-87.0,105.0
127.0,127.0,127.0,127.0,126.0,128.0,125.0,128.0,-1.0,106.0,-73.0,127.0,127.0,127.0,-116.0,-87.0,105.0
127.0,127.0,127.0,127.0,126.0,128.0,125.0,128.0,-1.0,106.0,-73.0,127.0,127.0,127.0,-116.0,-87.0,105.0
127.0,127.0,127.0,127.0,126.0,128.0,126.0,128.0,-1.0,106.0,-73.0,127.0,127.0,127.0,-116.0,-87.0,105.0
127.0,127.0,127.0,127.0,127.0,128.0,126.0,128.0,-1.0,106.0,-73.0,127.0,127.0,127.0,-116.0,-87.0,105.0
127.0,127.0,127.0,127.0,126.0,128.0,126.0,128.0,-1.0,106.0,-73.0,127.0,127.0,127.0,-116.0,-87.0,105.0
127.0,127.0,127.0,127.0,127.0,128.0,126.0,128.0,-1.0,106.0,-73.0,127.0,127.0,127.0,-116.0,-87.0,105.0
127.0,127.0,127.0,127.0,127.0,128.0,126.0,128.0,-1.0,106.0,-73.0,127.0,127.0,127.0,-116.0,-87.0,105.0
127.0,127.0,127.0,127.0,126.0,128.0,125.0,128.0,-1.0,106.0,-73.0,127.0,127.0,127.0,-116.0,-87.0,105.0
127.0,127.0,127.0,127.0,126.0,128.0,125.0,128.0,-1.0,106.0,-73.0,127.0,127.0,127.0,-116.0,-87.0,105.0
127.0,127.0,127.0,127.0,127.0,128.0,126.0,129.0,-1.0,106.0,-73.0,127.0,127.0,127.0,-116.0,-87.0,105.0
127.0,127.0,127.0,127.0,127.0,128.0,126.0,129.0,-1.0,106.0,-73.0,127.0,127.0,127.0,-116.0,-87.0,105.0
127.0,127.0,127.0,127.0,127.0,128.0,126.0,129.0,-1.0,106.0,-73.0,127.0,127.0,127.0,-116.0,-87.0,105.0
127.0,127.0,127.0,127.0,127.0,128.0,126.0,128.0,-1.0,106.0,-73.0,127.0,127.0,127.0,-116.0,-87.0,105.0
127.0,127.0,127.0,127.0,127.0,128.0,126.0,128.0,-1.0,106.0,-73.0,127.0,127.0,127.0,-116.0,-87.0,105.0
127.0,127.0,127.0,127.0,127.0,128.0,126.0,128.0,-1.0,106.0,-73.0,127.0,127.0,127.0,-116.0,-87.0,105.0
127.0,127.0,127.0,127.0,127.0,127.0,126.0,128.0,-1.0,106.0,-73.0,127.0,127.0,127.0,-116.0,-87.0,105.0
127.0,127.0,127.0,127.0,126.0,128.0,126.0,129.0,-1.0,106.0,-73.0,127.0,127.0,127.0,-116.0,-87.0,105.0
127.0,127.0,127.0,127.0,126.0,128.0,126.0,129.0,-1.0,106.0,-73.0,127.0,127.0,127.0,-116.0,-87.0,105.0
127.0,127.0,127.0,127.0,127.0,128.0,126.0,129.0,-1.0,106.0,-73.0,127.0,127.0,127.0,-116.0,-87.0,105.0
126.0,127.0,127.0,127.0,126.0,128.0,125.0,128.0,-1.0,106.0,-73.0,127.0,127.0,127.0,-116.0,-87.0,105.0
126.0,127.0,127.0,127.0,126.0,127.0,125.0,128.0,-1.0,106.0,-73.0,127.0,127.0,127.0,-116.0,-87.0,105.0
126.0,127.0,127.0,127.0,126.0,127.0,125.0,128.0,-1.0,106.0,-73.0,127.0,127.0,127.0,-116.0,-87.0,105.0
126.0,127.0,127.0,127.0,126.0,127.0,125.0,128.0,-1.0,106.0,-73.0,127.0,127.0,127.0,-116.0,-87.0,105.0
126.0,127.0,127.0,127.0,126.0,127.0,125.0,128.0,-1.0,106.0,-73.0,127.0,127.0,127.0,-116.0,-87.0,105.0
126.0,127.0,127.0,127.0,126.0,127.0,125.0,128.0,-1.0,106.0,-73.0,127.0,127.0,127.0,-116.0,-87.0,105.0
126.0,127.0,127.0,127.0,127.0,127.0,126.0,128.0,-1.0,106.0,-73.0,127.0,127.0,127.0,-116.0,-87.0,105.0
126.0,127.0,127.0,127.0,127.0,127.0,126.0,128.0,-1.0,106.0,-73.0,127.0,127.0,127.0,-116.0,-87.0,105.0
126.0,127.0,127.0,127.0,127.0,127.0,125.0,128.0,-1.0,106.0,-73.0,127.0,127.0,127.0,-116.0,-87.0,105.0
126.0,127.0,127.0,127.0,126.0,128.0,125.0,128.0,-1.0,106.0,-73.0,127.0,127.0,127.0,-116.0,-87.0,105.0
127.0,127.0,127.0,127.0,127.0,128.0,126.0,129.0,-1.0,106.0,-73.0,127.0,127.0,127.0,-116.0,-87.0,105.0
127.0,127.0,127.0,127.0,127.0,128.0,126.0,129.0,-1.0,106.0,-73.0,127.0,127.0,127.0,-116.0,-87.0,105.0
127.0,127.0,127.0,127.0,127.0,128.0,126.0,128.0,-1.0,106.0,-73.0,127.0,127.0,127.0,-116.0,-87.0,105.0
127.0,127.0,127.0,127.0,127.0,128.0,126.0,129.0,-1.0,106.0,-73.0,127.0,127.0,127.0,-116.0,-87.0,105.0
127.0,127.0,127.0,127.0,127.0,128.0,126.0,129.0,-1.0,106.0,-73.0,127.0,127.0,127.0,-116.0,-87.0,105.0
127.0,127.0,127.0,127.0,127.0,127.0,126.0,129.0,-1.0,106.0,-73.0,127.0,127.0,127.0,-116.0,-87.0,105.0
127.0,127.0,127.0,127.0,127.0,127.0,126.0,129.0,-1.0,106.0,-73.0,127.0,127.0,127.0,-116.0,-87.0,105.0
127.0,127.0,127.0,127.0,127.0,127.0,126.0,129.0,-1.0,106.0,-73.0,127.0,127.0,127.0,-116.0,-87.0,105.0
127.0,127.0,127.0,127.0,127.0,128.0,126.0,129.0,-1.0,106.0,-73.0,127.0,127.0,127.0,-116.0,-87.0,105.0
127.0,127.0,127.0,127.0,127.0,128.0,126.0,129.0,-1.0,106.0,-73.0,127.0,127.0,127.0,-116.0,-87.0,105.0
127.0,127.0,127.0,127.0,127.0,128.0,126.0,128.0,-1.0,106.0,-73.0,127.0,127.0,127.0,-116.0,-87.0,105.0
127.0,127.0,127.0,127.0,127.0,128.0,126.0,128.0,-1.0,106.0,-73.0,127.0,127.0,127.0,-116.0,-87.0,105.0
127.0,127.0,127.0,127.0,127.0,128.0,126.0,128.0,-1.0,106.0,-73.0,127.0,127.0,127.0,-116.0,-87.0,105.0
127.0,127.0,127.0,127.0,127.0,127.0,126.0,128.0,-1.0,106.0,-73.0,127.0,127.0,127.0,-116.0,-87.0,105.0
127.0,127.0,127.0,127.0,126.0,128.0,126.0,129.0,-1.0,106.0,-73.0,127.0,127.0,127.0,-116.0,-87.0,105.0
127.0,127.0,127.0,127.0,127.0,128.0,126.0,129.0,-1.0,106.0,-73.0,127.0,127.0,127.0,-116.0,-87.0,105.0
127.0,127.0,127.0,127.0,127.0,128.0,126.0,129.0,-1.0,106.0,-73.0,127.0,127.0,127.0,-116.0,-87.0,105.0
127.0,127.0,127.0,127.0,127.0,128.0,126.0,129.0,-1.0,106.0,-73.0,127.0,127.0,127.0,-116.0,-87.0,105.0
127.0,127.0,127.0,127.0,127.0,128.0,126.0,129.0,-1.0,106.0,-73.0,127.0,127.0,127.0,-116.0,-87.0,105.0
127.0,127.0,127.0,127.0,127.0,128.0,126.0,129.0,-1.0,106.0,-73.0,127.0,127.0,127.0,-116.0,-87.0,105.0
127.0,127.0,128.0,127.0,127.0,127.0,126.0,128.0,-1.0,106.0,-73.0,127.0,127.0,127.0,-116.0,-87.0,105.0
127.0,127.0,128.0,127.0,127.0,127.0,126.0,128.0,-1.0,106.0,-73.0,127.0,127.0,127.0,-116.0,-87.0,105.0
127.0,127.0,127.0,127.0,127.0,127.0,126.0,128.0,-1.0,106.0,-73.0,127.0,127.0,127.0,-116.0,-87.0,105.0
127.0,127.0,127.0,127.0,126.0,128.0,125.0,128.0,-1.0,106.0,-73.0,127.0,127.0,127.0,-116.0,-87.0,105.0
127.0,127.0,127.0,127.0,126.0,128.0,125.0,128.0,-1.0,106.0,-73.0,127.0,127.0,127.0,-116.0,-87.0,105.0
127.0,127.0,127.0,127.0,126.0,128.0,125.0,128.0,-1.0,106.0,-73.0,127.0,127.0,127.0,-116.0,-87.0,105.0
127.0,127.0,127.0,127.0,126.0,128.0,125.0,128.0,-1.0,106.0,-73.0,127.0,127.0,127.0,-116.0,-87.0,105.0
127.0,127.0,127.0,127.0,127.0,128.0,125.0,128.0,-1.0,106.0,-73.0,127.0,127.0,127.0,-116.0,-87.0,105.0
127.0,127.0,127.0,127.0,127.0,128.0,125.0,128.0,-1.0,106.0,-73.0,127.0,127.0,127.0,-116.0,-87.0,105.0
127.0,127.0,128.0,127.0,127.0,127.0,125.0,128.0,-1.0,106.0,-73.0,127.0,127.0,127.0,-116.0,-87.0,105.0
127.0,127.0,127.0,127.0,126.0,128.0,126.0,128.0,-1.0,106.0,-73.0,127.0,127.0,127.0,-116.0,-87.0,105.0
127.0,127.0,127.0,127.0,127.0,128.0,126.0,128.0,-1.0,106.0,-73.0,127.0,127.0,127.0,-116.0,-87.0,105.0
127.0,127.0,127.0,127.0,127.0,129.0,125.0,128.0,-1.0,106.0,-73.0,127.0,127.0,127.0,-116.0,-87.0,105.0
127.0,127.0,127.0,127.0,126.0,129.0,125.0,128.0,-1.0,106.0,-73.0,127.0,127.0,127.0,-116.0,-87.0,105.0
127.0,127.0,127.0,127.0,126.0,129.0,125.0,128.0,-1.0,106.0,-73.0,127.0,127.0,127.0,-116.0,-87.0,105.0
127.0,127.0,127.0,127.0,127.0,128.0,125.0,128.0,-1.0,106.0,-73.0,127.0,127.0,127.0,-116.0,-87.0,105.0
127.0,127.0,127.0,127.0,127.0,128.0,126.0,128.0,-1.0,106.0,-73.0,127.0,127.0,127.0,-116.0,-87.0,105.0
127.0,127.0,127.0,127.0,127.0,128.0,126.0,128.0,-1.0,106.0,-73.0,127.0,127.0,127.0,-116.0,-87.0,105.0
127.0,127.0,127.0,127.0,127.0,128.0,126.0,128.0,-1.0,106.0,-73.0,127.0,127.0,127.0,-116.0,-87.0,105.0
127.0,127.0,127.0,127.0,127.0,128.0,126.0,128.0,-1.0,106.0,-73.0,127.0,127.0,127.0,-116.0,-87.0,105.0
127.0,127.0,127.0,127.0,126.0,127.0,125.0,128.0,-1.0,106.0,-73.0,127.0,127.0,127.0,-116.0,-87.0,105.0
127.0,127.0,127.0,127.0,126.0,128.0,125.0,128.0,-1.0,106.0,-73.0,127.0,127.0,127.0,-116.0,-87.0,105.0
127.0,127.0,127.0,127.0,126.0,128.0,125.0,128.0,-1.0,106.0,-73.0,127.0,127.0,127.0,-116.0,-87.0,105.0
127.0,127.0,127.0,127.0,126.0,128.0,125.0,128.0,-1.0,106.0,-73.0,127.0,127.0,127.0,-116.0,-87.0,105.0
127.0,127.0,127.0,127.0,126.0,127.0,125.0,128.0,-1.0,106.0,-73.0,127.0,127.0,127.0,-116.0,-87.0,105.0
127.0,127.0,127.0,127.0,126.0,127.0,125.0,128.0,-1.0,106.0,-73.0,127.0,127.0,127.0,-116.0,-87.0,105.0
127.0,127.0,127.0,127.0,126.0,127.0,125.0,128.0,-1.0,106.0,-73.0,127.0,127.0,127.0,-116.0,-87.0,105.0
127.0,127.0,127.0,127.0,126.0,127.0,125.0,128.0,-1.0,106.0,-73.0,127.0,127.0,127.0,-116.0,-87.0,105.0
127.0,127.0,127.0,127.0,126.0,127.0,125.0,128.0,-1.0,106.0,-73.0,127.0,127.0,127.0,-116.0,-87.0,105.0
127.0,127.0,127.0,127.0,126.0,127.0,125.0,128.0,-1.0,106.0,-73.0,127.0,127.0,127.0,-116.0,-87.0,105.0
127.0,127.0,127.0,127.0,126.0,128.0,125.0,128.0,-1.0,106.0,-73.0,127.0,127.0,127.0,-116.0,-87.0,105.0
127.0,127.0,127.0,127.0,126.0,128.0,125.0,128.0,-1.0,106.0,-73.0,127.0,127.0,127.0,-116.0,-87.0,105.0
127.0,127.0,127.0,127.0,126.0,128.0,125.0,128.0,-1.0,106.0,-73.0,127.0,127.0,127.0,-116.0,-87.0,105.0
127.0,127.0,127.0,127.0,126.0,128.0,125.0,128.0,-1.0,106.0,-73.0,127.0,127.0,127.0,-116.0,-87.0,105.0
127.0,127.0,127.0,127.0,127.0,128.0,125.0,128.0,-1.0,106.0,-73.0,127.0,127.0,127.0,-116.0,-87.0,105.0
127.0,127.0,127.0,127.0,127.0,128.0,126.0,128.0,-1.0,106.0,-73.0,127.0,127.0,127.0,-116.0,-87.0,105.0
127.0,127.0,127.0,127.0,127.0,127.0,126.0,128.0,-1.0,106.0,-73.0,127.0,127.0,127.0,-116.0,-87.0,105.0
127.0,127.0,127.0,127.0,127.0,127.0,126.0,128.0,-1.0,106.0,-73.0,127.0,127.0,127.0,-116.0,-87.0,105.0
127.0,127.0,127.0,127.0,127.0,127.0,126.0,128.0,-1.0,106.0,-73.0,127.0,127.0,127.0,-116.0,-87.0,105.0
127.0,127.0,127.0,127.0,127.0,127.0,126.0,128.0,-1.0,106.0,-73.0,127.0,127.0,127.0,-116.0,-87.0,105.0
127.0,127.0,127.0,127.0,127.0,129.0,126.0,128.0,-1.0,106.0,-73.0,127.0,127.0,127.0,-116.0,-87.0,105.0
127.0,127.0,127.0,127.0,127.0,128.0,126.0,128.0,-1.0,106.0,-73.0,127.0,127.0,127.0,-116.0,-87.0,105.0
127.0,127.0,127.0,127.0,127.0,128.0,126.0,128.0,-1.0,106.0,-73.0,127.0,127.0,127.0,-116.0,-87.0,105.0
127.0,127.0,127.0,127.0,127.0,128.0,126.0,128.0,-1.0,106.0,-73.0,127.0,127.0,127.0,-116.0,-87.0,105.0
127.0,127.0,127.0,127.0,127.0,128.0,126.0,128.0,-1.0,106.0,-73.0,127.0,127.0,127.0,-116.0,-87.0,105.0
127.0,127.0,127.0,127.0,127.0,128.0,126.0,128.0,-1.0,106.0,-73.0,127.0,127.0,127.0,-116.0,-87.0,105.0
127.0,127.0,127.0,127.0,127.0,128.0,126.0,128.0,-1.0,106.0,-73.0,127.0,127.0,127.0,-116.0,-87.0,105.0
127.0,127.0,127.0,127.0,127.0,128.0,126.0,128.0,-1.0,106.0,-73.0,127.0,127.0,127.0,-116.0,-87.0,105.0
127.0,127.0,127.0,127.0,127.0,128.0,126.0,128.0,-1.0,106.0,-73.0,127.0,127.0,127.0,-116.0,-87.0,105.0
127.0,127.0,127.0,127.0,127.0,129.0,126.0,128.0,-1.0,106.0,-73.0,127.0,127.0,127.0,-116.0,-87.0,105.0
127.0,127.0,127.0,127.0,127.0,128.0,126.0,128.0,-1.0,106.0,-73.0,127.0,127.0,127.0,-116.0,-87.0,105.0
127.0,127.0,127.0,127.0,127.0,128.0,126.0,128.0,-1.0,106.0,-73.0,127.0,127.0,127.0,-116.0,-87.0,105.0
127.0,127.0,127.0,127.0,127.0,128.0,126.0,128.0,-1.0,106.0,-73.0,127.0,127.0,127.0,-116.0,-87.0,105.0
127.0,127.0,127.0,127.0,127.0,128.0,126.0,128.0,-1.0,106.0,-73.0,127.0,127.0,127.0,-116.0,-87.0,105.0
127.0,127.0,127.0,127.0,127.0,128.0,126.0,128.0,-1.0,106.0,-73.0,127.0,127.0,127.0,-116.0,-87.0,105.0
127.0,127.0,127.0,127.0,127.0,128.0,125.0,128.0,-1.0,106.0,-73.0,127.0,127.0,127.0,-116.0,-87.0,105.0
127.0,127.0,127.0,128.0,127.0,128.0,125.0,128.0,-1.0,106.0,-73.0,127.0,127.0,127.0,-116.0,-87.0,105.0
127.0,127.0,127.0,127.0,127.0,128.0,125.0,128.0,-1.0,106.0,-73.0,127.0,127.0,127.0,-116.0,-87.0,105.0
127.0,127.0,127.0,127.0,127.0,127.0,126.0,128.0,-1.0,106.0,-73.0,127.0,127.0,127.0,-116.0,-87.0,105.0
127.0,127.0,127.0,127.0,127.0,127.0,126.0,128.0,-1.0,106.0,-73.0,127.0,127.0,127.0,-116.0,-87.0,105.0
127.0,127.0,127.0,127.0,127.0,128.0,126.0,128.0,-1.0,106.0,-73.0,127.0,127.0,127.0,-116.0,-87.0,105.0
127.0,127.0,127.0,127.0,127.0,128.0,126.0,128.0,-1.0,106.0,-73.0,127.0,127.0,127.0,-116.0,-87.0,105.0
127.0,127.0,127.0,127.0,127.0,127.0,126.0,128.0,-1.0,106.0,-73.0,127.0,127.0,127.0,-116.0,-87.0,105.0
127.0,127.0,127.0,127.0,127.0,128.0,126.0,128.0,-1.0,106.0,-73.0,127.0,127.0,127.0,-116.0,-87.0,105.0
127.0,127.0,127.0,127.0,127.0,128.0,126.0,128.0,-1.0,106.0,-73.0,127.0,127.0,127.0,-116.0,-87.0,105.0
127.0,127.0,127.0,127.0,126.0,128.0,125.0,128.0,-1.0,106.0,-73.0,127.0,127.0,127.0,-116.0,-87.0,105.0
127.0,127.0,127.0,127.0,126.0,128.0,125.0,128.0,-1.0,106.0,-73.0,127.0,127.0,127.0,-116.0,-87.0,105.0
127.0,127.0,127.0,127.0,127.0,127.0,127.0,128.0,-1.0,106.0,-73.0,127.0,127.0,127.0,-116.0,-87.0,105.0
127.0,127.0,127.0,127.0,127.0,128.0,127.0,128.0,-1.0,106.0,-73.0,127.0,127.0,127.0,-116.0,-87.0,105.0
127.0,127.0,127.0,127.0,126.0,128.0,126.0,128.0,-1.0,106.0,-73.0,127.0,127.0,127.0,-116.0,-87.0,105.0
127.0,127.0,127.0,127.0,127.0,128.0,125.0,128.0,-1.0,106.0,-73.0,127.0,127.0,127.0,-116.0,-87.0,105.0
127.0,127.0,127.0,127.0,127.0,128.0,125.0,128.0,-1.0,106.0,-73.0,127.0,127.0,127.0,-116.0,-87.0,105.0
127.0,127.0,127.0,127.0,127.0,128.0,125.0,128.0,-1.0,106.0,-73.0,127.0,127.0,127.0,-116.0,-87.0,105.0
127.0,127.0,127.0,127.0,127.0,128.0,125.0,128.0,-1.0,106.0,-73.0,127.0,127.0,127.0,-116.0,-87.0,105.0
127.0,127.0,127.0,127.0,127.0,128.0,125.0,128.0,-1.0,106.0,-73.0,127.0,127.0,127.0,-116.0,-87.0,105.0
127.0,127.0,127.0,127.0,126.0,129.0,125.0,128.0,-1.0,106.0,-73.0,127.0,127.0,127.0,-116.0,-87.0,105.0
127.0,127.0,127.0,127.0,126.0,127.0,126.0,128.0,-1.0,106.0,-73.0,127.0,127.0,127.0,-116.0,-87.0,105.0
127.0,127.0,127.0,127.0,127.0,127.0,126.0,128.0,-1.0,106.0,-73.0,127.0,127.0,127.0,-116.0,-87.0,105.0
127.0,127.0,127.0,127.0,126.0,128.0,125.0,128.0,-1.0,106.0,-73.0,127.0,127.0,127.0,-116.0,-87.0,105.0
127.0,127.0,127.0,127.0,126.0,128.0,125.0,128.0,-1.0,106.0,-73.0,127.0,127.0,127.0,-116.0,-87.0,105.0
127.0,127.0,127.0,127.0,126.0,128.0,125.0,128.0,-1.0,106.0,-73.0,127.0,127.0,127.0,-116.0,-87.0,105.0
127.0,127.0,127.0,127.0,126.0,127.0,125.0,128.0,-1.0,106.0,-73.0,127.0,127.0,127.0,-116.0,-87.0,105.0
127.0,127.0,127.0,127.0,126.0,127.0,125.0,128.0,-1.0,106.0,-73.0,127.0,127.0,127.0,-116.0,-87.0,105.0
127.0,127.0,127.0,127.0,126.0,128.0,125.0,128.0,-1.0,106.0,-73.0,127.0,127.0,127.0,-116.0,-87.0,105.0
127.0,127.0,127.0,127.0,126.0,128.0,125.0,128.0,-1.0,106.0,-73.0,127.0,127.0,127.0,-116.0,-87.0,105.0
127.0,127.0,127.0,127.0,126.0,127.0,126.0,128.0,-1.0,106.0,-73.0,127.0,127.0,127.0,-116.0,-87.0,105.0
127.0,127.0,127.0,127.0,126.0,127.0,126.0,128.0,-1.0,106.0,-73.0,127.0,127.0,127.0,-116.0,-87.0,105.0
127.0,127.0,127.0,127.0,126.0,128.0,125.0,128.0,-1.0,106.0,-73.0,127.0,127.0,127.0,-116.0,-87.0,105.0
127.0,127.0,127.0,127.0,126.0,128.0,125.0,128.0,-1.0,106.0,-73.0,127.0,127.0,127.0,-116.0,-87.0,105.0
127.0,127.0,127.0,127.0,126.0,128.0,125.0,128.0,-1.0,106.0,-73.0,127.0,127.0,127.0,-116.0,-87.0,105.0
127.0,127.0,127.0,127.0,126.0,128.0,126.0,128.0,-1.0,106.0,-73.0,127.0,127.0,127.0,-116.0,-87.0,105.0
127.0,127.0,127.0,127.0,127.0,128.0,126.0,128.0,-1.0,106.0,-73.0,127.0,127.0,127.0,-116.0,-87.0,105.0
127.0,127.0,127.0,127.0,126.0,128.0,126.0,128.0,-1.0,106.0,-73.0,127.0,127.0,127.0,-116.0,-87.0,105.0
127.0,127.0,127.0,127.0,126.0,128.0,126.0,128.0,-1.0,106.0,-73.0,127.0,127.0,127.0,-116.0,-87.0,105.0
127.0,127.0,127.0,127.0,126.0,127.0,127.0,127.0,-1.0,106.0,-73.0,127.0,127.0,127.0,-116.0,-87.0,105.0
127.0,127.0,127.0,127.0,127.0,127.0,126.0,127.0,-1.0,106.0,-73.0,127.0,127.0,127.0,-116.0,-87.0,105.0
127.0,127.0,127.0,127.0,126.0,127.0,126.0,128.0,-1.0,106.0,-73.0,127.0,127.0,127.0,-116.0,-87.0,105.0
127.0,127.0,127.0,127.0,126.0,128.0,126.0,128.0,-1.0,106.0,-73.0,127.0,127.0,127.0,-116.0,-87.0,105.0
127.0,127.0,127.0,127.0,126.0,128.0,126.0,128.0,-1.0,106.0,-73.0,127.0,127.0,127.0,-116.0,-87.0,105.0
127.0,127.0,127.0,127.0,126.0,128.0,126.0,128.0,-1.0,106.0,-73.0,127.0,127.0,127.0,-116.0,-87.0,105.0
126.0,127.0,127.0,127.0,126.0,127.0,125.0,128.0,-1.0,106.0,-73.0,127.0,127.0,127.0,-116.0,-87.0,105.0
126.0,127.0,127.0,127.0,126.0,127.0,125.0,128.0,-1.0,106.0,-73.0,127.0,127.0,127.0,-116.0,-87.0,105.0
127.0,127.0,127.0,127.0,126.0,128.0,125.0,128.0,-1.0,106.0,-73.0,127.0,127.0,127.0,-116.0,-87.0,105.0
126.0,126.0,127.0,127.0,127.0,127.0,126.0,128.0,-1.0,106.0,-73.0,127.0,127.0,127.0,-116.0,-87.0,105.0
126.0,126.0,127.0,127.0,127.0,127.0,126.0,128.0,-1.0,106.0,-73.0,127.0,127.0,127.0,-116.0,-87.0,105.0
127.0,127.0,127.0,127.0,126.0,127.0,126.0,128.0,-1.0,106.0,-73.0,127.0,127.0,127.0,-116.0,-87.0,105.0
127.0,127.0,127.0,127.0,126.0,128.0,125.0,128.0,-1.0,106.0,-73.0,127.0,127.0,127.0,-116.0,-87.0,105.0
127.0,127.0,127.0,127.0,126.0,127.0,125.0,128.0,-1.0,106.0,-73.0,127.0,127.0,127.0,-116.0,-87.0,105.0
127.0,127.0,127.0,127.0,126.0,127.0,125.0,128.0,-1.0,106.0,-73.0,127.0,127.0,127.0,-116.0,-87.0,105.0
126.0,126.0,127.0,127.0,126.0,127.0,125.0,128.0,-1.0,106.0,-73.0,127.0,127.0,127.0,-116.0,-87.0,105.0
126.0,126.0,127.0,127.0,126.0,127.0,125.0,128.0,-1.0,106.0,-73.0,127.0,127.0,127.0,-116.0,-87.0,105.0
126.0,126.0,127.0,127.0,126.0,127.0,125.0,128.0,-1.0,106.0,-73.0,127.0,127.0,127.0,-116.0,-87.0,105.0
126.0,126.0,127.0,127.0,127.0,127.0,126.0,128.0,-1.0,106.0,-73.0,127.0,127.0,127.0,-116.0,-87.0,105.0
126.0,126.0,127.0,127.0,127.0,127.0,126.0,128.0,-1.0,106.0,-73.0,127.0,127.0,127.0,-116.0,-87.0,105.0
126.0,126.0,127.0,127.0,126.0,127.0,125.0,128.0,-1.0,106.0,-73.0,127.0,127.0,127.0,-116.0,-87.0,105.0
126.0,126.0,127.0,127.0,126.0,128.0,125.0,128.0,-1.0,106.0,-73.0,127.0,127.0,127.0,-116.0,-87.0,105.0
126.0,126.0,127.0,127.0,126.0,128.0,125.0,128.0,-1.0,106.0,-73.0,127.0,127.0,127.0,-116.0,-87.0,105.0
126.0,126.0,127.0,127.0,126.0,127.0,125.0,128.0,-1.0,106.0,-73.0,127.0,127.0,127.0,-116.0,-87.0,105.0
126.0,126.0,127.0,127.0,126.0,127.0,125.0,128.0,-1.0,106.0,-73.0,127.0,127.0,127.0,-116.0,-87.0,105.0
126.0,126.0,127.0,127.0,126.0,127.0,125.0,128.0,-1.0,106.0,-73.0,127.0,127.0,127.0,-116.0,-87.0,105.0
127.0,127.0,127.0,128.0,127.0,128.0,125.0,128.0,-1.0,106.0,-73.0,127.0,127.0,127.0,-116.0,-87.0,105.0
127.0,127.0,127.0,128.0,127.0,128.0,125.0,128.0,-1.0,106.0,-73.0,127.0,127.0,127.0,-116.0,-87.0,105.0
127.0,127.0,127.0,128.0,127.0,128.0,125.0,129.0,-1.0,106.0,-73.0,127.0,127.0,127.0,-116.0,-87.0,105.0
127.0,127.0,127.0,128.0,127.0,128.0,125.0,128.0,-1.0,106.0,-73.0,127.0,127.0,127.0,-116.0,-87.0,105.0
127.0,127.0,127.0,128.0,127.0,128.0,125.0,128.0,-1.0,106.0,-73.0,127.0,127.0,127.0,-116.0,-87.0,105.0
127.0,127.0,127.0,128.0,127.0,128.0,125.0,128.0,-1.0,106.0,-73.0,127.0,127.0,127.0,-116.0,-87.0,105.0
127.0,127.0,127.0,128.0,127.0,128.0,125.0,128.0,-1.0,106.0,-73.0,127.0,127.0,127.0,-116.0,-87.0,105.0
127.0,127.0,127.0,128.0,127.0,128.0,125.0,128.0,-1.0,106.0,-73.0,127.0,127.0,127.0,-116.0,-87.0,105.0
127.0,127.0,127.0,128.0,127.0,128.0,125.0,128.0,-1.0,106.0,-73.0,127.0,127.0,127.0,-116.0,-87.0,105.0
127.0,127.0,127.0,128.0,127.0,128.0,125.0,128.0,-1.0,106.0,-73.0,127.0,127.0,127.0,-116.0,-87.0,105.0
126.0,126.0,127.0,127.0,127.0,127.0,127.0,128.0,-1.0,106.0,-73.0,127.0,127.0,127.0,-116.0,-87.0,105.0
126.0,126.0,127.0,127.0,127.0,127.0,127.0,128.0,-1.0,106.0,-73.0,127.0,127.0,127.0,-116.0,-87.0,105.0
126.0,126.0,127.0,127.0,127.0,127.0,127.0,128.0,-1.0,106.0,-73.0,127.0,127.0,127.0,-116.0,-87.0,105.0
126.0,126.0,127.0,127.0,127.0,127.0,127.0,128.0,-1.0,106.0,-73.0,127.0,127.0,127.0,-116.0,-87.0,105.0
126.0,126.0,127.0,127.0,127.0,127.0,127.0,128.0,-1.0,106.0,-73.0,127.0,127.0,127.0,-116.0,-87.0,105.0
126.0,127.0,127.0,127.0,127.0,127.0,127.0,128.0,-1.0,106.0,-73.0,127.0,127.0,127.0,-116.0,-87.0,105.0
127.0,127.0,127.0,127.0,127.0,128.0,126.0,128.0,-1.0,106.0,-73.0,127.0,127.0,127.0,-116.0,-87.0,105.0
127.0,127.0,127.0,127.0,127.0,128.0,126.0,128.0,-1.0,106.0,-73.0,127.0,127.0,127.0,-116.0,-87.0,105.0
127.0,127.0,127.0,127.0,127.0,127.0,126.0,128.0,-1.0,106.0,-73.0,127.0,127.0,127.0,-116.0,-87.0,105.0
127.0,127.0,127.0,127.0,127.0,127.0,126.0,128.0,-1.0,106.0,-73.0,127.0,127.0,127.0,-116.0,-87.0,105.0
126.0,127.0,127.0,127.0,127.0,126.0,124.0,128.0,-1.0,106.0,-73.0,127.0,127.0,127.0,-116.0,-87.0,105.0
126.0,127.0,127.0,127.0,127.0,126.0,124.0,128.0,-1.0,106.0,-73.0,127.0,127.0,127.0,-116.0,-87.0,105.0
126.0,127.0,127.0,127.0,126.0,127.0,123.0,128.0,-1.0,106.0,-73.0,127.0,127.0,127.0,-116.0,-87.0,105.0
126.0,127.0,127.0,127.0,126.0,127.0,123.0,128.0,-1.0,106.0,-73.0,127.0,127.0,127.0,-116.0,-87.0,105.0
126.0,127.0,127.0,127.0,127.0,127.0,123.0,128.0,-1.0,106.0,-73.0,127.0,127.0,127.0,-116.0,-87.0,105.0
126.0,127.0,127.0,127.0,127.0,127.0,123.0,128.0,-1.0,106.0,-73.0,127.0,127.0,127.0,-116.0,-87.0,105.0
126.0,127.0,127.0,127.0,127.0,127.0,123.0,128.0,-1.0,106.0,-73.0,127.0,127.0,127.0,-116.0,-87.0,105.0
126.0,127.0,127.0,127.0,127.0,127.0,123.0,128.0,-1.0,106.0,-73.0,127.0,127.0,127.0,-116.0,-87.0,105.0
126.0,127.0,127.0,127.0,127.0,127.0,124.0,128.0,-1.0,106.0,-73.0,127.0,127.0,127.0,-116.0,-87.0,105.0
126.0,127.0,127.0,127.0,127.0,126.0,124.0,128.0,-1.0,106.0,-73.0,127.0,127.0,127.0,-116.0,-87.0,105.0
127.0,127.0,127.0,127.0,127.0,127.0,122.0,128.0,-1.0,106.0,-73.0,127.0,127.0,127.0,-116.0,-87.0,105.0
126.0,127.0,127.0,127.0,126.0,128.0,122.0,128.0,-1.0,106.0,-73.0,127.0,127.0,127.0,-116.0,-87.0,105.0
127.0,127.0,127.0,127.0,126.0,128.0,122.0,128.0,-1.0,106.0,-73.0,127.0,127.0,127.0,-116.0,-87.0,105.0
127.0,127.0,127.0,127.0,126.0,128.0,122.0,128.0,-1.0,106.0,-73.0,127.0,127.0,127.0,-116.0,-87.0,105.0
127.0,127.0,127.0,127.0,126.0,127.0,122.0,128.0,-1.0,106.0,-73.0,127.0,127.0,127.0,-116.0,-87.0,105.0
127.0,127.0,127.0,127.0,126.0,127.0,122.0,128.0,-1.0,106.0,-73.0,127.0,127.0,127.0,-116.0,-87.0,105.0
127.0,127.0,127.0,127.0,126.0,127.0,121.0,128.0,-1.0,106.0,-73.0,127.0,127.0,127.0,-116.0,-87.0,105.0
126.0,127.0,127.0,127.0,126.0,127.0,122.0,128.0,-1.0,106.0,-73.0,127.0,127.0,127.0,-116.0,-87.0,105.0
127.0,127.0,127.0,127.0,127.0,128.0,123.0,128.0,-1.0,106.0,-73.0,127.0,127.0,127.0,-116.0,-87.0,105.0
127.0,127.0,127.0,127.0,127.0,127.0,122.0,128.0,-1.0,106.0,-73.0,127.0,127.0,127.0,-116.0,-87.0,105.0
127.0,127.0,127.0,127.0,126.0,127.0,121.0,128.0,-1.0,106.0,-73.0,127.0,127.0,127.0,-116.0,-87.0,105.0
127.0,127.0,127.0,127.0,126.0,128.0,121.0,128.0,-1.0,106.0,-73.0,127.0,127.0,127.0,-116.0,-87.0,105.0
127.0,127.0,127.0,127.0,126.0,128.0,121.0,128.0,-1.0,106.0,-73.0,127.0,127.0,127.0,-116.0,-87.0,105.0
127.0,127.0,127.0,127.0,126.0,128.0,121.0,128.0,-1.0,106.0,-73.0,127.0,127.0,127.0,-116.0,-87.0,105.0
127.0,127.0,127.0,127.0,126.0,127.0,121.0,128.0,-1.0,106.0,-73.0,127.0,127.0,127.0,-116.0,-87.0,105.0
127.0,127.0,127.0,127.0,126.0,128.0,121.0,128.0,-1.0,106.0,-73.0,127.0,127.0,127.0,-116.0,-87.0,105.0
127.0,127.0,127.0,127.0,126.0,127.0,121.0,128.0,-1.0,106.0,-73.0,127.0,127.0,127.0,-116.0,-87.0,105.0
127.0,127.0,127.0,127.0,126.0,128.0,122.0,128.0,-1.0,106.0,-73.0,127.0,127.0,127.0,-116.0,-87.0,105.0
127.0,127.0,127.0,127.0,126.0,127.0,122.0,128.0,-1.0,106.0,-73.0,127.0,127.0,127.0,-116.0,-87.0,105.0
127.0,127.0,127.0,127.0,126.0,127.0,122.0,128.0,-1.0,106.0,-73.0,127.0,127.0,127.0,-116.0,-87.0,105.0
127.0,127.0,127.0,127.0,126.0,129.0,122.0,128.0,-1.0,106.0,-73.0,127.0,127.0,127.0,-116.0,-87.0,105.0
127.0,127.0,127.0,127.0,126.0,129.0,122.0,128.0,-1.0,106.0,-73.0,127.0,127.0,127.0,-116.0,-87.0,105.0
127.0,127.0,127.0,127.0,126.0,128.0,122.0,128.0,-1.0,106.0,-73.0,127.0,127.0,127.0,-116.0,-87.0,105.0
127.0,127.0,127.0,127.0,126.0,128.0,122.0,128.0,-1.0,106.0,-73.0,127.0,127.0,127.0,-116.0,-87.0,105.0
127.0,127.0,127.0,127.0,126.0,128.0,122.0,128.0,-1.0,106.0,-73.0,127.0,127.0,127.0,-116.0,-87.0,105.0
127.0,127.0,127.0,127.0,126.0,128.0,122.0,128.0,-1.0,106.0,-73.0,127.0,127.0,127.0,-116.0,-87.0,105.0
127.0,127.0,127.0,127.0,127.0,129.0,123.0,128.0,-1.0,106.0,-73.0,127.0,127.0,127.0,-116.0,-87.0,105.0
127.0,127.0,127.0,127.0,127.0,128.0,123.0,128.0,-1.0,106.0,-73.0,127.0,127.0,127.0,-116.0,-87.0,105.0
127.0,127.0,127.0,127.0,127.0,128.0,123.0,128.0,-1.0,106.0,-73.0,127.0,127.0,127.0,-116.0,-87.0,105.0
127.0,127.0,127.0,127.0,126.0,128.0,123.0,128.0,-1.0,106.0,-73.0,127.0,127.0,127.0,-116.0,-87.0,105.0
127.0,127.0,127.0,127.0,127.0,129.0,123.0,128.0,-1.0,106.0,-73.0,127.0,127.0,127.0,-116.0,-87.0,105.0
127.0,127.0,127.0,127.0,127.0,129.0,123.0,128.0,-1.0,106.0,-73.0,127.0,127.0,127.0,-116.0,-87.0,105.0
127.0,127.0,127.0,127.0,127.0,129.0,123.0,128.0,-1.0,106.0,-73.0,127.0,127.0,127.0,-116.0,-87.0,105.0
127.0,127.0,127.0,127.0,127.0,128.0,123.0,128.0,-1.0,106.0,-73.0,127.0,127.0,127.0,-116.0,-87.0,105.0
127.0,127.0,127.0,127.0,127.0,128.0,123.0,128.0,-1.0,106.0,-73.0,127.0,127.0,127.0,-116.0,-87.0,105.0
127.0,127.0,127.0,127.0,127.0,128.0,124.0,128.0,-1.0,106.0,-73.0,127.0,127.0,127.0,-116.0,-87.0,105.0
127.0,127.0,127.0,127.0,127.0,128.0,124.0,128.0,-1.0,106.0,-73.0,127.0,127.0,127.0,-116.0,-87.0,105.0
127.0,127.0,127.0,127.0,127.0,128.0,124.0,128.0,-1.0,106.0,-73.0,127.0,127.0,127.0,-116.0,-87.0,105.0
127.0,127.0,127.0,127.0,127.0,128.0,124.0,128.0,-1.0,106.0,-73.0,127.0,127.0,127.0,-116.0,-87.0,105.0
127.0,127.0,127.0,127.0,127.0,129.0,123.0,128.0,-1.0,106.0,-73.0,127.0,127.0,127.0,-116.0,-87.0,105.0
127.0,127.0,127.0,127.0,127.0,128.0,124.0,128.0,-1.0,106.0,-73.0,127.0,127.0,127.0,-116.0,-87.0,105.0
127.0,127.0,127.0,127.0,127.0,128.0,124.0,128.0,-1.0,106.0,-73.0,127.0,127.0,127.0,-116.0,-87.0,105.0
127.0,127.0,127.0,127.0,127.0,128.0,124.0,128.0,-1.0,106.0,-73.0,127.0,127.0,127.0,-116.0,-87.0,105.0
127.0,127.0,127.0,127.0,127.0,128.0,124.0,128.0,-1.0,106.0,-73.0,127.0,127.0,127.0,-116.0,-87.0,105.0
127.0,127.0,127.0,127.0,127.0,128.0,124.0,128.0,-1.0,106.0,-73.0,127.0,127.0,127.0,-116.0,-87.0,105.0
127.0,127.0,127.0,127.0,127.0,128.0,124.0,128.0,-1.0,106.0,-73.0,127.0,127.0,127.0,-116.0,-87.0,105.0
127.0,127.0,127.0,127.0,127.0,128.0,124.0,128.0,-1.0,106.0,-73.0,127.0,127.0,127.0,-116.0,-87.0,105.0
127.0,127.0,127.0,127.0,127.0,128.0,124.0,128.0,-1.0,106.0,-73.0,127.0,127.0,127.0,-116.0,-87.0,105.0
127.0,127.0,127.0,127.0,126.0,128.0,124.0,128.0,-1.0,106.0,-73.0,127.0,127.0,127.0,-116.0,-87.0,105.0
127.0,127.0,127.0,127.0,127.0,129.0,124.0,128.0,-1.0,106.0,-73.0,127.0,127.0,127.0,-116.0,-87.0,105.0
127.0,127.0,127.0,127.0,127.0,128.0,125.0,128.0,-1.0,106.0,-73.0,127.0,127.0,127.0,-116.0,-87.0,105.0
127.0,127.0,127.0,127.0,127.0,128.0,125.0,128.0,-1.0,106.0,-73.0,127.0,127.0,127.0,-116.0,-87.0,105.0
127.0,127.0,127.0,127.0,127.0,128.0,125.0,128.0,-1.0,106.0,-73.0,127.0,127.0,127.0,-116.0,-87.0,105.0
127.0,127.0,127.0,127.0,126.0,128.0,125.0,128.0,-1.0,106.0,-73.0,127.0,127.0,127.0,-116.0,-87.0,105.0
127.0,127.0,127.0,127.0,127.0,128.0,125.0,128.0,-1.0,106.0,-73.0,127.0,127.0,127.0,-116.0,-87.0,105.0
127.0,127.0,127.0,127.0,127.0,128.0,125.0,128.0,-1.0,106.0,-73.0,127.0,127.0,127.0,-116.0,-87.0,105.0
127.0,126.0,127.0,127.0,127.0,128.0,125.0,128.0,-1.0,106.0,-73.0,127.0,127.0,127.0,-116.0,-87.0,105.0
127.0,127.0,127.0,127.0,126.0,128.0,125.0,128.0,-1.0,106.0,-73.0,127.0,127.0,127.0,-116.0,-87.0,105.0
127.0,127.0,127.0,127.0,126.0,128.0,125.0,128.0,-1.0,106.0,-73.0,127.0,127.0,127.0,-116.0,-87.0,105.0
127.0,127.0,127.0,127.0,127.0,128.0,125.0,128.0,-1.0,106.0,-73.0,127.0,127.0,127.0,-116.0,-87.0,105.0
127.0,127.0,127.0,127.0,127.0,128.0,125.0,128.0,-1.0,106.0,-73.0,127.0,127.0,127.0,-116.0,-87.0,105.0
127.0,127.0,127.0,127.0,127.0,128.0,125.0,128.0,-1.0,106.0,-73.0,127.0,127.0,127.0,-116.0,-87.0,105.0
126.0,127.0,127.0,127.0,127.0,126.0,126.0,128.0,-1.0,106.0,-73.0,127.0,127.0,127.0,-116.0,-87.0,105.0
126.0,127.0,127.0,127.0,127.0,127.0,126.0,128.0,-1.0,106.0,-73.0,127.0,127.0,127.0,-116.0,-87.0,105.0
126.0,127.0,127.0,127.0,127.0,127.0,125.0,128.0,-1.0,106.0,-73.0,127.0,127.0,127.0,-116.0,-87.0,105.0
126.0,127.0,127.0,127.0,127.0,127.0,126.0,128.0,-1.0,106.0,-73.0,127.0,127.0,127.0,-116.0,-87.0,105.0
126.0,127.0,127.0,127.0,127.0,127.0,126.0,128.0,-1.0,106.0,-73.0,127.0,127.0,127.0,-116.0,-87.0,105.0
126.0,127.0,127.0,127.0,127.0,127.0,126.0,128.0,-1.0,106.0,-73.0,127.0,127.0,127.0,-116.0,-87.0,105.0
126.0,127.0,127.0,127.0,127.0,127.0,126.0,128.0,-1.0,106.0,-73.0,127.0,127.0,127.0,-116.0,-87.0,105.0
126.0,127.0,127.0,127.0,127.0,127.0,125.0,128.0,-1.0,106.0,-73.0,127.0,127.0,127.0,-116.0,-87.0,105.0
127.0,127.0,127.0,127.0,126.0,128.0,125.0,128.0,-1.0,106.0,-73.0,127.0,127.0,127.0,-116.0,-87.0,105.0
127.0,127.0,127.0,127.0,126.0,127.0,126.0,128.0,-1.0,106.0,-73.0,127.0,127.0,127.0,-116.0,-87.0,105.0
127.0,127.0,127.0,127.0,126.0,128.0,126.0,128.0,-1.0,106.0,-73.0,127.0,127.0,127.0,-116.0,-87.0,105.0
127.0,127.0,127.0,127.0,126.0,128.0,125.0,129.0,-1.0,106.0,-73.0,127.0,127.0,127.0,-116.0,-87.0,105.0
127.0,127.0,127.0,127.0,126.0,128.0,125.0,128.0,-1.0,106.0,-73.0,127.0,127.0,127.0,-116.0,-87.0,105.0
127.0,127.0,127.0,127.0,126.0,128.0,125.0,128.0,-1.0,106.0,-73.0,127.0,127.0,127.0,-116.0,-87.0,105.0
127.0,127.0,127.0,127.0,126.0,129.0,125.0,129.0,-1.0,106.0,-73.0,127.0,127.0,127.0,-116.0,-87.0,105.0
127.0,127.0,127.0,127.0,126.0,128.0,125.0,128.0,-1.0,106.0,-73.0,127.0,127.0,127.0,-116.0,-87.0,105.0
127.0,127.0,127.0,127.0,126.0,128.0,125.0,128.0,-1.0,106.0,-73.0,127.0,127.0,127.0,-116.0,-87.0,105.0
127.0,127.0,127.0,127.0,126.0,128.0,125.0,128.0,-1.0,106.0,-73.0,127.0,127.0,127.0,-116.0,-87.0,105.0
127.0,127.0,127.0,127.0,126.0,128.0,126.0,128.0,-1.0,106.0,-73.0,127.0,127.0,127.0,-116.0,-87.0,105.0
127.0,127.0,127.0,127.0,126.0,127.0,126.0,128.0,-1.0,106.0,-73.0,127.0,127.0,127.0,-116.0,-87.0,105.0
127.0,127.0,127.0,127.0,126.0,127.0,126.0,128.0,-1.0,106.0,-73.0,127.0,127.0,127.0,-116.0,-87.0,105.0
127.0,127.0,127.0,127.0,126.0,127.0,125.0,128.0,-1.0,106.0,-73.0,127.0,127.0,127.0,-116.0,-87.0,105.0
127.0,127.0,127.0,127.0,126.0,127.0,125.0,128.0,-1.0,106.0,-73.0,127.0,127.0,127.0,-116.0,-87.0,105.0
127.0,127.0,127.0,127.0,126.0,128.0,125.0,128.0,-1.0,106.0,-73.0,127.0,127.0,127.0,-116.0,-87.0,105.0
127.0,127.0,127.0,127.0,126.0,128.0,125.0,128.0,-1.0,106.0,-73.0,127.0,127.0,127.0,-116.0,-87.0,105.0
127.0,127.0,127.0,127.0,126.0,128.0,125.0,128.0,-1.0,106.0,-73.0,127.0,127.0,127.0,-116.0,-87.0,105.0
127.0,127.0,127.0,127.0,127.0,128.0,125.0,128.0,-1.0,106.0,-73.0,127.0,127.0,127.0,-116.0,-87.0,105.0
127.0,127.0,127.0,127.0,126.0,128.0,125.0,128.0,-1.0,106.0,-73.0,127.0,127.0,127.0,-116.0,-87.0,105.0
127.0,127.0,127.0,127.0,127.0,127.0,126.0,128.0,-1.0,106.0,-73.0,127.0,127.0,127.0,-116.0,-87.0,105.0
127.0,127.0,127.0,127.0,127.0,127.0,126.0,128.0,-1.0,106.0,-73.0,127.0,127.0,127.0,-116.0,-87.0,105.0
127.0,127.0,127.0,127.0,127.0,127.0,126.0,128.0,-1.0,106.0,-73.0,127.0,127.0,127.0,-116.0,-87.0,105.0
127.0,127.0,127.0,127.0,127.0,127.0,126.0,128.0,-1.0,106.0,-73.0,127.0,127.0,127.0,-116.0,-87.0,105.0
127.0,127.0,127.0,127.0,126.0,128.0,126.0,128.0,-1.0,106.0,-73.0,127.0,127.0,127.0,-116.0,-87.0,105.0
127.0,127.0,127.0,127.0,126.0,128.0,125.0,128.0,-1.0,106.0,-73.0,127.0,127.0,127.0,-116.0,-87.0,105.0
127.0,127.0,127.0,127.0,126.0,128.0,125.0,128.0,-1.0,106.0,-73.0,127.0,127.0,127.0,-116.0,-87.0,105.0
127.0,127.0,127.0,127.0,127.0,128.0,125.0,128.0,-1.0,106.0,-73.0,127.0,127.0,127.0,-116.0,-87.0,105.0
127.0,127.0,127.0,127.0,126.0,128.0,125.0,128.0,-1.0,106.0,-73.0,127.0,127.0,127.0,-116.0,-87.0,105.0
127.0,127.0,127.0,127.0,127.0,127.0,126.0,128.0,-1.0,106.0,-73.0,127.0,127.0,127.0,-116.0,-87.0,105.0
127.0,127.0,127.0,127.0,126.0,128.0,126.0,128.0,-1.0,106.0,-73.0,127.0,127.0,127.0,-116.0,-87.0,105.0
127.0,126.0,127.0,127.0,126.0,128.0,126.0,128.0,-1.0,106.0,-73.0,127.0,127.0,127.0,-116.0,-87.0,105.0
127.0,126.0,127.0,127.0,126.0,127.0,126.0,128.0,-1.0,106.0,-73.0,127.0,127.0,127.0,-116.0,-87.0,105.0
127.0,127.0,127.0,127.0,126.0,128.0,126.0,128.0,-1.0,106.0,-73.0,127.0,127.0,127.0,-116.0,-87.0,105.0
127.0,127.0,127.0,127.0,126.0,128.0,125.0,128.0,-1.0,106.0,-73.0,127.0,127.0,127.0,-116.0,-87.0,105.0
127.0,127.0,127.0,127.0,126.0,128.0,125.0,128.0,-1.0,106.0,-73.0,127.0,127.0,127.0,-116.0,-87.0,105.0
127.0,127.0,127.0,127.0,126.0,128.0,125.0,128.0,-1.0,106.0,-73.0,127.0,127.0,127.0,-116.0,-87.0,105.0
127.0,127.0,127.0,127.0,126.0,128.0,125.0,128.0,-1.0,106.0,-73.0,127.0,127.0,127.0,-116.0,-87.0,105.0
127.0,127.0,127.0,127.0,126.0,128.0,125.0,128.0,-1.0,106.0,-73.0,127.0,127.0,127.0,-116.0,-87.0,105.0
127.0,127.0,127.0,127.0,126.0,128.0,126.0,128.0,-1.0,106.0,-73.0,127.0,127.0,127.0,-116.0,-87.0,105.0
127.0,127.0,127.0,127.0,127.0,128.0,126.0,128.0,-1.0,106.0,-73.0,127.0,127.0,127.0,-116.0,-87.0,105.0
127.0,127.0,127.0,127.0,127.0,128.0,126.0,128.0,-1.0,106.0,-73.0,127.0,127.0,127.0,-116.0,-87.0,105.0
127.0,127.0,127.0,127.0,127.0,128.0,126.0,128.0,-1.0,106.0,-73.0,127.0,127.0,127.0,-116.0,-87.0,105.0
127.0,127.0,127.0,127.0,127.0,128.0,125.0,128.0,-1.0,106.0,-73.0,127.0,127.0,127.0,-116.0,-87.0,105.0
127.0,127.0,127.0,127.0,127.0,128.0,125.0,128.0,-1.0,106.0,-73.0,127.0,127.0,127.0,-116.0,-87.0,105.0
127.0,127.0,127.0,127.0,127.0,128.0,125.0,128.0,-1.0,106.0,-73.0,127.0,127.0,127.0,-116.0,-87.0,105.0
127.0,127.0,127.0,127.0,127.0,128.0,125.0,128.0,-1.0,106.0,-73.0,127.0,127.0,127.0,-116.0,-87.0,105.0
127.0,127.0,127.0,127.0,127.0,128.0,125.0,128.0,-1.0,106.0,-73.0,127.0,127.0,127.0,-116.0,-87.0,105.0
127.0,127.0,127.0,127.0,127.0,128.0,126.0,128.0,-1.0,106.0,-73.0,127.0,127.0,127.0,-116.0,-87.0,105.0
127.0,127.0,127.0,127.0,127.0,128.0,126.0,128.0,-1.0,106.0,-73.0,127.0,127.0,127.0,-116.0,-87.0,105.0
127.0,127.0,127.0,127.0,126.0,127.0,126.0,128.0,-1.0,106.0,-73.0,127.0,127.0,127.0,-116.0,-87.0,105.0
127.0,127.0,127.0,127.0,126.0,127.0,126.0,128.0,-1.0,106.0,-73.0,127.0,127.0,127.0,-116.0,-87.0,105.0
127.0,127.0,127.0,127.0,126.0,128.0,125.0,128.0,-1.0,106.0,-73.0,127.0,127.0,127.0,-116.0,-87.0,105.0
127.0,127.0,127.0,127.0,126.0,128.0,125.0,128.0,-1.0,106.0,-73.0,127.0,127.0,127.0,-116.0,-87.0,105.0
127.0,127.0,127.0,127.0,126.0,128.0,125.0,128.0,-1.0,106.0,-73.0,127.0,127.0,127.0,-116.0,-87.0,105.0
127.0,127.0,127.0,128.0,126.0,128.0,125.0,128.0,-1.0,106.0,-73.0,127.0,127.0,127.0,-116.0,-87.0,105.0
127.0,127.0,127.0,128.0,126.0,128.0,125.0,128.0,-1.0,106.0,-73.0,127.0,127.0,127.0,-116.0,-87.0,105.0
127.0,127.0,127.0,127.0,126.0,128.0,126.0,128.0,-1.0,106.0,-73.0,127.0,127.0,127.0,-116.0,-87.0,105.0
127.0,127.0,127.0,127.0,127.0,127.0,126.0,128.0,-1.0,106.0,-73.0,127.0,127.0,127.0,-116.0,-87.0,105.0
127.0,127.0,127.0,127.0,127.0,127.0,126.0,128.0,-1.0,106.0,-73.0,127.0,127.0,127.0,-116.0,-87.0,105.0
127.0,127.0,127.0,127.0,126.0,128.0,126.0,128.0,-1.0,106.0,-73.0,127.0,127.0,127.0,-116.0,-87.0,105.0
127.0,127.0,127.0,127.0,126.0,128.0,125.0,128.0,-1.0,106.0,-73.0,127.0,127.0,127.0,-116.0,-87.0,105.0
127.0,127.0,127.0,127.0,126.0,128.0,125.0,128.0,-1.0,106.0,-73.0,127.0,127.0,127.0,-116.0,-87.0,105.0
127.0,127.0,127.0,127.0,126.0,128.0,125.0,128.0,-1.0,106.0,-73.0,127.0,127.0,127.0,-116.0,-87.0,105.0
127.0,127.0,127.0,127.0,126.0,128.0,125.0,128.0,-1.0,106.0,-73.0,127.0,127.0,127.0,-116.0,-87.0,105.0
127.0,127.0,127.0,127.0,126.0,128.0,125.0,128.0,-1.0,106.0,-73.0,127.0,127.0,127.0,-116.0,-87.0,105.0
127.0,127.0,127.0,127.0,126.0,128.0,126.0,128.0,-1.0,106.0,-73.0,127.0,127.0,127.0,-116.0,-87.0,105.0
127.0,127.0,127.0,127.0,126.0,128.0,126.0,128.0,-1.0,106.0,-73.0,127.0,127.0,127.0,-116.0,-87.0,105.0
127.0,127.0,127.0,127.0,126.0,128.0,126.0,128.0,-1.0,106.0,-73.0,127.0,127.0,127.0,-116.0,-87.0,105.0
127.0,127.0,127.0,127.0,126.0,128.0,126.0,128.0,-1.0,106.0,-73.0,127.0,127.0,127.0,-116.0,-87.0,105.0
127.0,127.0,127.0,127.0,127.0,127.0,127.0,127.0,-1.0,106.0,-73.0,127.0,127.0,127.0,-116.0,-87.0,105.0
127.0,127.0,127.0,127.0,127.0,127.0,127.0,127.0,-1.0,106.0,-73.0,127.0,127.0,127.0,-116.0,-87.0,105.0
127.0,127.0,127.0,127.0,127.0,127.0,127.0,127.0,-1.0,106.0,-73.0,127.0,127.0,127.0,-116.0,-87.0,105.0
127.0,127.0,127.0,127.0,127.0,127.0,127.0,127.0,-1.0,106.0,-73.0,127.0,127.0,127.0,-116.0,-87.0,105.0
127.0,127.0,127.0,127.0,127.0,127.0,127.0,127.0,-1.0,106.0,-73.0,127.0,127.0,127.0,-116.0,-87.0,105.0
127.0,127.0,127.0,127.0,127.0,127.0,127.0,127.0,-1.0,106.0,-73.0,127.0,127.0,127.0,-116.0,-87.0,105.0
127.0,127.0,127.0,127.0,127.0,127.0,127.0,127.0,-1.0,106.0,-73.0,127.0,127.0,127.0,-116.0,-87.0,105.0
127.0,127.0,127.0,127.0,127.0,127.0,127.0,127.0,-1.0,106.0,-73.0,127.0,127.0,127.0,-116.0,-87.0,105.0
127.0,127.0,127.0,127.0,127.0,127.0,127.0,127.0,-1.0,106.0,-73.0,127.0,127.0,127.0,-116.0,-87.0,105.0
127.0,127.0,127.0,127.0,127.0,127.0,127.0,127.0,-1.0,106.0,-73.0,127.0,127.0,127.0,-116.0,-87.0,105.0
127.0,127.0,127.0,127.0,127.0,128.0,126.0,128.0,-1.0,106.0,-73.0,127.0,127.0,127.0,-116.0,-87.0,105.0
127.0,127.0,127.0,127.0,127.0,128.0,126.0,128.0,-1.0,106.0,-73.0,127.0,127.0,127.0,-116.0,-87.0,105.0
127.0,127.0,127.0,127.0,127.0,128.0,126.0,128.0,-1.0,106.0,-73.0,127.0,127.0,127.0,-116.0,-87.0,105.0
127.0,127.0,127.0,127.0,127.0,128.0,126.0,128.0,-1.0,106.0,-73.0,127.0,127.0,127.0,-116.0,-87.0,105.0
127.0,127.0,127.0,127.0,126.0,128.0,126.0,128.0,-1.0,106.0,-73.0,127.0,127.0,127.0,-116.0,-87.0,105.0
127.0,127.0,127.0,127.0,127.0,128.0,126.0,128.0,-1.0,106.0,-73.0,127.0,127.0,127.0,-116.0,-87.0,105.0
127.0,127.0,127.0,127.0,127.0,128.0,127.0,128.0,-1.0,106.0,-73.0,127.0,127.0,127.0,-116.0,-87.0,105.0
127.0,127.0,127.0,127.0,127.0,128.0,127.0,128.0,-1.0,106.0,-73.0,127.0,127.0,127.0,-116.0,-87.0,105.0
127.0,127.0,127.0,127.0,127.0,128.0,126.0,128.0,-1.0,106.0,-73.0,127.0,127.0,127.0,-116.0,-87.0,105.0
127.0,127.0,127.0,127.0,127.0,128.0,126.0,128.0,-1.0,106.0,-73.0,127.0,127.0,127.0,-116.0,-87.0,105.0
127.0,127.0,127.0,127.0,126.0,128.0,125.0,128.0,-1.0,106.0,-73.0,127.0,127.0,127.0,-116.0,-87.0,105.0
127.0,127.0,127.0,127.0,126.0,128.0,125.0,128.0,-1.0,106.0,-73.0,127.0,127.0,127.0,-116.0,-87.0,105.0
127.0,127.0,127.0,127.0,126.0,127.0,126.0,128.0,-1.0,106.0,-73.0,127.0,127.0,127.0,-116.0,-87.0,105.0
127.0,127.0,127.0,127.0,126.0,127.0,126.0,128.0,-1.0,106.0,-73.0,127.0,127.0,127.0,-116.0,-87.0,105.0
127.0,127.0,127.0,127.0,126.0,127.0,126.0,128.0,-1.0,106.0,-73.0,127.0,127.0,127.0,-116.0,-87.0,105.0
127.0,127.0,127.0,127.0,126.0,127.0,126.0,128.0,-1.0,106.0,-73.0,127.0,127.0,127.0,-116.0,-87.0,105.0
127.0,127.0,127.0,127.0,126.0,127.0,126.0,128.0,-1.0,106.0,-73.0,127.0,127.0,127.0,-116.0,-87.0,105.0
127.0,127.0,127.0,127.0,126.0,127.0,126.0,128.0,-1.0,106.0,-73.0,127.0,127.0,127.0,-116.0,-87.0,105.0
127.0,127.0,127.0,127.0,126.0,127.0,126.0,128.0,-1.0,106.0,-73.0,127.0,127.0,127.0,-116.0,-87.0,105.0
127.0,127.0,127.0,127.0,126.0,128.0,125.0,128.0,-1.0,106.0,-73.0,127.0,127.0,127.0,-116.0,-87.0,105.0
127.0,127.0,127.0,127.0,127.0,128.0,126.0,128.0,-1.0,106.0,-73.0,127.0,127.0,127.0,-116.0,-87.0,105.0
127.0,127.0,127.0,127.0,127.0,128.0,126.0,128.0,-1.0,106.0,-73.0,127.0,127.0,127.0,-116.0,-87.0,105.0
127.0,127.0,127.0,127.0,126.0,128.0,126.0,128.0,-1.0,106.0,-73.0,127.0,127.0,127.0,-116.0,-87.0,105.0
127.0,127.0,127.0,127.0,126.0,128.0,126.0,128.0,-1.0,106.0,-73.0,127.0,127.0,127.0,-116.0,-87.0,105.0
127.0,127.0,127.0,127.0,127.0,128.0,126.0,128.0,-1.0,106.0,-73.0,127.0,127.0,127.0,-116.0,-87.0,105.0
127.0,127.0,127.0,127.0,126.0,128.0,126.0,128.0,-1.0,106.0,-73.0,127.0,127.0,127.0,-116.0,-87.0,105.0
127.0,127.0,127.0,127.0,127.0,128.0,126.0,128.0,-1.0,106.0,-73.0,127.0,127.0,127.0,-116.0,-87.0,105.0
127.0,127.0,127.0,127.0,127.0,128.0,126.0,128.0,-1.0,106.0,-73.0,127.0,127.0,127.0,-116.0,-87.0,105.0
127.0,127.0,127.0,127.0,126.0,128.0,126.0,128.0,-1.0,106.0,-73.0,127.0,127.0,127.0,-116.0,-87.0,105.0
127.0,127.0,127.0,128.0,126.0,128.0,126.0,128.0,-1.0,106.0,-73.0,127.0,127.0,127.0,-116.0,-87.0,105.0
127.0,127.0,127.0,127.0,126.0,129.0,126.0,129.0,-1.0,106.0,-73.0,127.0,127.0,127.0,-116.0,-87.0,105.0
127.0,127.0,127.0,127.0,126.0,127.0,127.0,128.0,-1.0,106.0,-73.0,127.0,127.0,127.0,-116.0,-87.0,105.0
127.0,127.0,127.0,127.0,126.0,128.0,127.0,128.0,-1.0,106.0,-73.0,127.0,127.0,127.0,-116.0,-87.0,105.0
127.0,127.0,127.0,127.0,126.0,128.0,127.0,128.0,-1.0,106.0,-73.0,127.0,127.0,127.0,-116.0,-87.0,105.0
127.0,127.0,127.0,127.0,126.0,128.0,127.0,128.0,-1.0,106.0,-73.0,127.0,127.0,127.0,-116.0,-87.0,105.0
127.0,127.0,127.0,127.0,126.0,128.0,127.0,128.0,-1.0,106.0,-73.0,127.0,127.0,127.0,-116.0,-87.0,105.0
127.0,127.0,127.0,127.0,126.0,128.0,127.0,128.0,-1.0,106.0,-73.0,127.0,127.0,127.0,-116.0,-87.0,105.0
127.0,127.0,127.0,128.0,126.0,129.0,126.0,129.0,-1.0,106.0,-73.0,127.0,127.0,127.0,-116.0,-87.0,105.0
127.0,127.0,127.0,128.0,126.0,129.0,126.0,129.0,-1.0,106.0,-73.0,127.0,127.0,127.0,-116.0,-87.0,105.0
127.0,127.0,127.0,128.0,126.0,129.0,126.0,129.0,-1.0,106.0,-73.0,127.0,127.0,127.0,-116.0,-87.0,105.0
127.0,127.0,127.0,127.0,126.0,128.0,127.0,128.0,-1.0,106.0,-73.0,127.0,127.0,127.0,-116.0,-87.0,105.0
127.0,127.0,127.0,127.0,126.0,128.0,126.0,128.0,-1.0,106.0,-73.0,127.0,127.0,127.0,-116.0,-87.0,105.0
127.0,127.0,127.0,127.0,127.0,128.0,126.0,128.0,-1.0,106.0,-73.0,127.0,127.0,127.0,-116.0,-87.0,105.0
127.0,127.0,127.0,127.0,127.0,127.0,126.0,128.0,-1.0,106.0,-73.0,127.0,127.0,127.0,-116.0,-87.0,105.0
127.0,127.0,127.0,127.0,127.0,128.0,126.0,128.0,-1.0,106.0,-73.0,127.0,127.0,127.0,-116.0,-87.0,105.0
127.0,127.0,127.0,127.0,127.0,127.0,126.0,128.0,-1.0,106.0,-73.0,127.0,127.0,127.0,-116.0,-87.0,105.0
127.0,127.0,127.0,127.0,126.0,128.0,126.0,128.0,-1.0,106.0,-73.0,127.0,127.0,127.0,-116.0,-87.0,105.0
127.0,127.0,127.0,127.0,126.0,128.0,125.0,128.0,-1.0,106.0,-73.0,127.0,127.0,127.0,-116.0,-87.0,105.0
127.0,127.0,127.0,127.0,126.0,128.0,125.0,129.0,-1.0,106.0,-73.0,127.0,127.0,127.0,-116.0,-87.0,105.0
127.0,127.0,127.0,127.0,126.0,128.0,125.0,128.0,-1.0,106.0,-73.0,127.0,127.0,127.0,-116.0,-87.0,105.0
127.0,127.0,127.0,127.0,126.0,127.0,126.0,128.0,-1.0,106.0,-73.0,127.0,127.0,127.0,-116.0,-87.0,105.0
127.0,127.0,127.0,127.0,126.0,127.0,126.0,128.0,-1.0,106.0,-73.0,127.0,127.0,127.0,-116.0,-87.0,105.0
127.0,127.0,127.0,127.0,126.0,127.0,126.0,128.0,-1.0,106.0,-73.0,127.0,127.0,127.0,-116.0,-87.0,105.0
127.0,127.0,127.0,127.0,126.0,127.0,126.0,128.0,-1.0,106.0,-73.0,127.0,127.0,127.0,-116.0,-87.0,105.0
127.0,127.0,127.0,127.0,126.0,127.0,126.0,129.0,-1.0,106.0,-73.0,127.0,127.0,127.0,-116.0,-87.0,105.0
127.0,127.0,127.0,127.0,126.0,127.0,125.0,129.0,-1.0,106.0,-73.0,127.0,127.0,127.0,-116.0,-87.0,105.0
127.0,127.0,127.0,127.0,126.0,128.0,125.0,129.0,-1.0,106.0,-73.0,127.0,127.0,127.0,-116.0,-87.0,105.0
127.0,127.0,127.0,127.0,126.0,128.0,125.0,129.0,-1.0,106.0,-73.0,127.0,127.0,127.0,-116.0,-87.0,105.0
127.0,127.0,127.0,127.0,127.0,128.0,125.0,129.0,-1.0,106.0,-73.0,127.0,127.0,127.0,-116.0,-87.0,105.0
127.0,127.0,127.0,127.0,126.0,127.0,126.0,128.0,-1.0,106.0,-73.0,127.0,127.0,127.0,-116.0,-87.0,105.0
127.0,127.0,127.0,127.0,127.0,128.0,126.0,128.0,-1.0,106.0,-73.0,127.0,127.0,127.0,-116.0,-87.0,105.0
127.0,127.0,127.0,127.0,127.0,128.0,126.0,128.0,-1.0,106.0,-73.0,127.0,127.0,127.0,-116.0,-87.0,105.0
127.0,127.0,127.0,127.0,127.0,128.0,126.0,128.0,-1.0,106.0,-73.0,127.0,127.0,127.0,-116.0,-87.0,105.0
127.0,127.0,127.0,127.0,127.0,128.0,126.0,128.0,-1.0,106.0,-73.0,127.0,127.0,127.0,-116.0,-87.0,105.0
127.0,127.0,127.0,127.0,127.0,128.0,126.0,128.0,-1.0,106.0,-73.0,127.0,127.0,127.0,-116.0,-87.0,105.0
127.0,127.0,127.0,127.0,127.0,128.0,125.0,128.0,-1.0,106.0,-73.0,127.0,127.0,127.0,-116.0,-87.0,105.0
127.0,127.0,127.0,127.0,127.0,128.0,125.0,128.0,-1.0,106.0,-73.0,127.0,127.0,127.0,-116.0,-87.0,105.0
127.0,127.0,127.0,127.0,127.0,128.0,125.0,128.0,-1.0,106.0,-73.0,127.0,127.0,127.0,-116.0,-87.0,105.0
127.0,127.0,127.0,127.0,127.0,127.0,126.0,128.0,-1.0,106.0,-73.0,127.0,127.0,127.0,-116.0,-87.0,105.0
127.0,127.0,127.0,127.0,127.0,128.0,126.0,128.0,-1.0,106.0,-73.0,127.0,127.0,127.0,-116.0,-87.0,105.0
127.0,127.0,127.0,127.0,127.0,127.0,127.0,128.0,-1.0,106.0,-73.0,127.0,127.0,127.0,-116.0,-87.0,105.0
127.0,127.0,127.0,127.0,127.0,127.0,127.0,128.0,-1.0,106.0,-73.0,127.0,127.0,127.0,-116.0,-87.0,105.0
127.0,127.0,127.0,127.0,127.0,127.0,127.0,128.0,-1.0,106.0,-73.0,127.0,127.0,127.0,-116.0,-87.0,105.0
127.0,127.0,127.0,127.0,127.0,127.0,127.0,128.0,-1.0,106.0,-73.0,127.0,127.0,127.0,-116.0,-87.0,105.0
127.0,127.0,127.0,127.0,127.0,127.0,127.0,128.0,-1.0,106.0,-73.0,127.0,127.0,127.0,-116.0,-87.0,105.0
127.0,127.0,127.0,127.0,127.0,127.0,127.0,128.0,-1.0,106.0,-73.0,127.0,127.0,127.0,-116.0,-87.0,105.0
127.0,127.0,127.0,127.0,127.0,127.0,127.0,128.0,-1.0,106.0,-73.0,127.0,127.0,127.0,-116.0,-87.0,105.0
127.0,127.0,127.0,127.0,127.0,127.0,127.0,128.0,-1.0,106.0,-73.0,127.0,127.0,127.0,-116.0,-87.0,105.0
127.0,127.0,127.0,127.0,127.0,127.0,127.0,128.0,-1.0,106.0,-73.0,127.0,127.0,127.0,-116.0,-87.0,105.0
127.0,127.0,127.0,127.0,127.0,127.0,127.0,128.0,-1.0,106.0,-73.0,127.0,127.0,127.0,-116.0,-87.0,105.0
127.0,127.0,127.0,127.0,126.0,128.0,125.0,128.0,-1.0,106.0,-73.0,127.0,127.0,127.0,-116.0,-87.0,105.0
127.0,127.0,127.0,127.0,126.0,128.0,125.0,128.0,-1.0,106.0,-73.0,127.0,127.0,127.0,-116.0,-87.0,105.0
127.0,127.0,127.0,127.0,126.0,128.0,125.0,128.0,-1.0,106.0,-73.0,127.0,127.0,127.0,-116.0,-87.0,105.0
127.0,127.0,127.0,127.0,126.0,128.0,125.0,128.0,-1.0,106.0,-73.0,127.0,127.0,127.0,-116.0,-87.0,105.0
127.0,127.0,127.0,127.0,126.0,128.0,125.0,128.0,-1.0,106.0,-73.0,127.0,127.0,127.0,-116.0,-87.0,105.0
127.0,127.0,127.0,127.0,127.0,128.0,125.0,128.0,-1.0,106.0,-73.0,127.0,127.0,127.0,-116.0,-87.0,105.0
127.0,127.0,127.0,127.0,126.0,128.0,126.0,128.0,-1.0,106.0,-73.0,127.0,127.0,127.0,-116.0,-87.0,105.0
127.0,127.0,127.0,127.0,127.0,128.0,126.0,128.0,-1.0,106.0,-73.0,127.0,127.0,127.0,-116.0,-87.0,105.0
127.0,127.0,127.0,127.0,127.0,128.0,126.0,128.0,-1.0,106.0,-73.0,127.0,127.0,127.0,-116.0,-87.0,105.0
127.0,127.0,127.0,127.0,127.0,128.0,126.0,128.0,-1.0,106.0,-73.0,127.0,127.0,127.0,-116.0,-87.0,105.0
127.0,127.0,127.0,127.0,126.0,129.0,126.0,128.0,-1.0,106.0,-74.0,127.0,127.0,127.0,-116.0,-87.0,105.0
127.0,127.0,127.0,127.0,126.0,129.0,126.0,128.0,-1.0,106.0,-74.0,127.0,127.0,127.0,-116.0,-87.0,105.0
127.0,127.0,127.0,127.0,126.0,129.0,126.0,128.0,-1.0,106.0,-74.0,127.0,127.0,127.0,-116.0,-87.0,105.0
127.0,127.0,127.0,127.0,126.0,129.0,126.0,128.0,-1.0,106.0,-74.0,127.0,127.0,127.0,-116.0,-87.0,105.0
127.0,127.0,127.0,127.0,126.0,129.0,125.0,128.0,-1.0,106.0,-74.0,127.0,127.0,127.0,-116.0,-87.0,105.0
127.0,127.0,127.0,127.0,127.0,129.0,126.0,128.0,-1.0,106.0,-74.0,127.0,127.0,127.0,-116.0,-87.0,105.0
127.0,127.0,127.0,127.0,127.0,129.0,127.0,128.0,-1.0,106.0,-74.0,127.0,127.0,127.0,-116.0,-87.0,105.0
127.0,127.0,127.0,127.0,127.0,129.0,126.0,128.0,-1.0,106.0,-74.0,127.0,127.0,127.0,-116.0,-87.0,105.0
127.0,127.0,127.0,127.0,127.0,129.0,126.0,128.0,-1.0,106.0,-74.0,127.0,127.0,127.0,-116.0,-87.0,105.0
127.0,127.0,127.0,127.0,126.0,129.0,126.0,128.0,-1.0,106.0,-74.0,127.0,127.0,127.0,-116.0,-87.0,105.0
127.0,127.0,127.0,127.0,126.0,128.0,125.0,128.0,-1.0,106.0,-74.0,127.0,127.0,127.0,-116.0,-87.0,105.0
127.0,127.0,127.0,127.0,127.0,128.0,125.0,128.0,-1.0,106.0,-74.0,127.0,127.0,127.0,-116.0,-87.0,105.0
127.0,127.0,127.0,127.0,127.0,128.0,125.0,128.0,-1.0,106.0,-74.0,127.0,127.0,127.0,-116.0,-87.0,105.0
127.0,127.0,127.0,127.0,126.0,127.0,126.0,128.0,-1.0,106.0,-74.0,127.0,127.0,127.0,-116.0,-87.0,105.0
127.0,127.0,127.0,127.0,126.0,127.0,126.0,128.0,-1.0,106.0,-74.0,127.0,127.0,127.0,-116.0,-87.0,105.0
127.0,127.0,127.0,127.0,126.0,127.0,126.0,128.0,-1.0,106.0,-74.0,127.0,127.0,127.0,-116.0,-87.0,105.0
127.0,127.0,127.0,127.0,126.0,127.0,126.0,128.0,-1.0,106.0,-74.0,127.0,127.0,127.0,-116.0,-87.0,105.0
127.0,127.0,127.0,127.0,126.0,127.0,126.0,128.0,-1.0,106.0,-74.0,127.0,127.0,127.0,-116.0,-87.0,105.0
127.0,127.0,127.0,127.0,126.0,128.0,125.0,128.0,-1.0,106.0,-74.0,127.0,127.0,127.0,-116.0,-87.0,105.0
127.0,127.0,127.0,127.0,126.0,128.0,125.0,128.0,-1.0,106.0,-74.0,127.0,127.0,127.0,-116.0,-87.0,105.0
127.0,127.0,127.0,127.0,126.0,128.0,125.0,128.0,-1.0,106.0,-74.0,127.0,127.0,127.0,-116.0,-87.0,105.0
127.0,127.0,127.0,127.0,126.0,128.0,125.0,128.0,-1.0,106.0,-74.0,127.0,127.0,127.0,-116.0,-87.0,105.0
127.0,127.0,127.0,127.0,127.0,128.0,125.0,128.0,-1.0,106.0,-74.0,127.0,127.0,127.0,-116.0,-87.0,105.0
127.0,127.0,127.0,127.0,126.0,128.0,126.0,128.0,-1.0,106.0,-74.0,127.0,127.0,127.0,-116.0,-87.0,105.0
127.0,127.0,127.0,127.0,127.0,128.0,126.0,128.0,-1.0,106.0,-74.0,127.0,127.0,127.0,-116.0,-87.0,105.0
127.0,127.0,127.0,127.0,127.0,128.0,126.0,128.0,-1.0,106.0,-74.0,127.0,127.0,127.0,-116.0,-87.0,105.0
127.0,127.0,127.0,127.0,127.0,128.0,126.0,128.0,-1.0,106.0,-74.0,127.0,127.0,127.0,-116.0,-87.0,105.0
127.0,127.0,127.0,127.0,126.0,128.0,125.0,128.0,-1.0,106.0,-74.0,127.0,127.0,127.0,-116.0,-87.0,105.0
127.0,127.0,127.0,127.0,126.0,128.0,125.0,128.0,-1.0,106.0,-74.0,127.0,127.0,127.0,-116.0,-87.0,105.0
127.0,127.0,127.0,127.0,126.0,128.0,125.0,128.0,-1.0,106.0,-74.0,127.0,127.0,127.0,-116.0,-87.0,105.0
127.0,127.0,127.0,127.0,126.0,128.0,125.0,128.0,-1.0,106.0,-74.0,127.0,127.0,127.0,-116.0,-87.0,105.0
127.0,127.0,127.0,127.0,126.0,128.0,125.0,128.0,-1.0,106.0,-74.0,127.0,127.0,127.0,-116.0,-87.0,105.0
127.0,127.0,127.0,127.0,126.0,127.0,126.0,128.0,-1.0,106.0,-74.0,127.0,127.0,127.0,-116.0,-87.0,105.0
127.0,127.0,127.0,127.0,126.0,127.0,126.0,128.0,-1.0,106.0,-74.0,127.0,127.0,127.0,-116.0,-87.0,105.0
127.0,127.0,127.0,127.0,126.0,127.0,126.0,128.0,-1.0,106.0,-74.0,127.0,127.0,127.0,-116.0,-87.0,105.0
127.0,127.0,127.0,127.0,126.0,127.0,126.0,128.0,-1.0,106.0,-74.0,127.0,127.0,127.0,-116.0,-87.0,105.0
127.0,127.0,127.0,127.0,126.0,128.0,125.0,128.0,-1.0,106.0,-74.0,127.0,127.0,127.0,-116.0,-87.0,105.0
127.0,127.0,127.0,127.0,126.0,128.0,125.0,128.0,-1.0,106.0,-74.0,127.0,127.0,127.0,-116.0,-87.0,105.0
127.0,127.0,127.0,127.0,126.0,128.0,125.0,128.0,-1.0,106.0,-74.0,127.0,127.0,127.0,-116.0,-87.0,105.0
127.0,127.0,127.0,127.0,126.0,128.0,125.0,128.0,-1.0,106.0,-74.0,127.0,127.0,127.0,-116.0,-87.0,105.0
127.0,127.0,127.0,127.0,126.0,128.0,125.0,128.0,-1.0,106.0,-73.0,127.0,127.0,127.0,-116.0,-87.0,105.0
127.0,127.0,127.0,127.0,127.0,127.0,126.0,128.0,-1.0,106.0,-73.0,127.0,127.0,127.0,-116.0,-87.0,105.0
127.0,127.0,127.0,127.0,127.0,127.0,126.0,128.0,-1.0,106.0,-73.0,127.0,127.0,127.0,-116.0,-87.0,105.0
127.0,127.0,127.0,127.0,127.0,127.0,126.0,128.0,-1.0,106.0,-73.0,127.0,127.0,127.0,-116.0,-87.0,105.0
127.0,127.0,127.0,127.0,127.0,127.0,126.0,128.0,-1.0,106.0,-73.0,127.0,127.0,127.0,-116.0,-87.0,105.0
127.0,127.0,127.0,127.0,127.0,127.0,126.0,128.0,-1.0,106.0,-73.0,127.0,127.0,127.0,-116.0,-87.0,105.0
127.0,127.0,127.0,127.0,127.0,128.0,125.0,128.0,-1.0,106.0,-73.0,127.0,127.0,127.0,-116.0,-87.0,105.0
127.0,127.0,127.0,127.0,127.0,128.0,125.0,128.0,-1.0,106.0,-73.0,127.0,127.0,127.0,-116.0,-87.0,105.0
127.0,127.0,127.0,127.0,127.0,128.0,125.0,128.0,-1.0,106.0,-73.0,127.0,127.0,127.0,-116.0,-87.0,105.0
127.0,127.0,127.0,127.0,127.0,128.0,125.0,128.0,-1.0,106.0,-73.0,127.0,127.0,127.0,-116.0,-87.0,105.0
127.0,127.0,127.0,127.0,126.0,127.0,127.0,128.0,-1.0,106.0,-73.0,127.0,127.0,127.0,-116.0,-87.0,105.0
127.0,127.0,127.0,127.0,126.0,127.0,127.0,128.0,-1.0,106.0,-73.0,127.0,127.0,127.0,-116.0,-87.0,105.0
127.0,127.0,127.0,127.0,126.0,127.0,128.0,128.0,-1.0,106.0,-73.0,127.0,127.0,127.0,-116.0,-87.0,105.0
127.0,127.0,127.0,127.0,126.0,127.0,128.0,128.0,-1.0,106.0,-73.0,127.0,127.0,127.0,-116.0,-87.0,105.0
127.0,127.0,127.0,127.0,126.0,127.0,128.0,128.0,-1.0,106.0,-73.0,127.0,127.0,127.0,-116.0,-87.0,105.0
127.0,127.0,127.0,127.0,126.0,127.0,127.0,128.0,-1.0,106.0,-73.0,127.0,127.0,127.0,-116.0,-87.0,105.0
127.0,127.0,127.0,127.0,126.0,127.0,127.0,128.0,-1.0,106.0,-73.0,127.0,127.0,127.0,-116.0,-87.0,105.0
127.0,127.0,127.0,127.0,126.0,127.0,127.0,128.0,-1.0,106.0,-73.0,127.0,127.0,127.0,-116.0,-87.0,105.0
127.0,127.0,127.0,127.0,126.0,127.0,128.0,128.0,-1.0,106.0,-73.0,127.0,127.0,127.0,-116.0,-87.0,105.0
127.0,127.0,127.0,127.0,126.0,127.0,128.0,128.0,-1.0,106.0,-73.0,127.0,127.0,127.0,-116.0,-87.0,105.0
127.0,127.0,127.0,127.0,126.0,128.0,126.0,128.0,-1.0,106.0,-73.0,127.0,127.0,127.0,-116.0,-87.0,105.0
127.0,127.0,127.0,127.0,126.0,128.0,126.0,128.0,-1.0,106.0,-73.0,127.0,127.0,127.0,-116.0,-87.0,105.0
127.0,127.0,127.0,127.0,126.0,128.0,126.0,128.0,-1.0,106.0,-73.0,127.0,127.0,127.0,-116.0,-87.0,105.0
127.0,127.0,127.0,127.0,127.0,128.0,126.0,128.0,-1.0,106.0,-73.0,127.0,127.0,127.0,-116.0,-87.0,105.0
127.0,127.0,127.0,127.0,127.0,128.0,126.0,128.0,-1.0,106.0,-73.0,127.0,127.0,127.0,-116.0,-87.0,105.0
127.0,127.0,127.0,127.0,127.0,128.0,126.0,128.0,-1.0,106.0,-73.0,127.0,127.0,127.0,-116.0,-87.0,105.0
127.0,127.0,127.0,127.0,127.0,128.0,126.0,128.0,-1.0,106.0,-73.0,127.0,127.0,127.0,-116.0,-87.0,105.0
127.0,127.0,127.0,127.0,127.0,128.0,126.0,128.0,-1.0,106.0,-73.0,127.0,127.0,127.0,-116.0,-87.0,105.0
127.0,127.0,127.0,127.0,127.0,128.0,127.0,128.0,-1.0,106.0,-73.0,127.0,127.0,127.0,-116.0,-87.0,105.0
127.0,127.0,127.0,127.0,126.0,128.0,126.0,128.0,-1.0,106.0,-73.0,127.0,127.0,127.0,-116.0,-87.0,105.0
127.0,127.0,127.0,127.0,127.0,127.0,130.0,129.0,-1.0,106.0,-73.0,127.0,127.0,127.0,-116.0,-87.0,105.0
127.0,127.0,127.0,127.0,126.0,127.0,129.0,129.0,-1.0,106.0,-73.0,127.0,127.0,127.0,-116.0,-87.0,105.0
127.0,127.0,127.0,127.0,126.0,127.0,129.0,129.0,-1.0,106.0,-73.0,127.0,127.0,127.0,-116.0,-87.0,105.0
127.0,127.0,127.0,127.0,127.0,127.0,129.0,128.0,-1.0,106.0,-73.0,127.0,127.0,127.0,-116.0,-87.0,105.0
127.0,127.0,127.0,127.0,127.0,127.0,129.0,128.0,-1.0,106.0,-73.0,127.0,127.0,127.0,-116.0,-87.0,105.0
127.0,127.0,127.0,127.0,127.0,127.0,128.0,128.0,-1.0,106.0,-73.0,127.0,127.0,127.0,-116.0,-87.0,105.0
127.0,127.0,127.0,127.0,127.0,127.0,128.0,128.0,-1.0,106.0,-73.0,127.0,127.0,127.0,-116.0,-87.0,105.0
127.0,127.0,127.0,127.0,127.0,126.0,128.0,128.0,-1.0,106.0,-73.0,127.0,127.0,127.0,-116.0,-87.0,105.0
127.0,127.0,127.0,128.0,126.0,128.0,130.0,129.0,-1.0,106.0,-73.0,127.0,127.0,127.0,-116.0,-87.0,105.0
127.0,127.0,127.0,127.0,126.0,127.0,130.0,129.0,-1.0,106.0,-73.0,127.0,127.0,127.0,-116.0,-87.0,105.0
127.0,127.0,127.0,127.0,126.0,127.0,126.0,129.0,-1.0,106.0,-73.0,127.0,127.0,127.0,-116.0,-87.0,105.0
127.0,127.0,127.0,127.0,126.0,127.0,126.0,129.0,-1.0,106.0,-73.0,127.0,127.0,127.0,-116.0,-87.0,105.0
127.0,127.0,127.0,127.0,126.0,127.0,126.0,129.0,-1.0,106.0,-73.0,127.0,127.0,127.0,-116.0,-87.0,105.0
127.0,127.0,127.0,127.0,126.0,127.0,126.0,128.0,-1.0,106.0,-73.0,127.0,127.0,127.0,-116.0,-87.0,105.0
127.0,127.0,127.0,127.0,126.0,127.0,127.0,128.0,-1.0,106.0,-73.0,127.0,127.0,127.0,-116.0,-87.0,105.0
127.0,127.0,127.0,127.0,127.0,127.0,127.0,128.0,-1.0,106.0,-73.0,127.0,127.0,127.0,-116.0,-87.0,105.0
127.0,127.0,127.0,127.0,127.0,126.0,127.0,128.0,-1.0,106.0,-73.0,127.0,127.0,127.0,-116.0,-87.0,105.0
127.0,127.0,127.0,127.0,126.0,127.0,126.0,128.0,-1.0,106.0,-73.0,127.0,127.0,127.0,-116.0,-87.0,105.0
127.0,127.0,127.0,127.0,126.0,127.0,126.0,128.0,-1.0,106.0,-73.0,127.0,127.0,127.0,-116.0,-87.0,105.0
127.0,127.0,127.0,127.0,126.0,127.0,126.0,129.0,-1.0,106.0,-73.0,127.0,127.0,127.0,-116.0,-87.0,105.0
127.0,127.0,127.0,127.0,127.0,125.0,123.0,128.0,-1.0,106.0,-73.0,127.0,127.0,127.0,-116.0,-87.0,105.0
127.0,127.0,127.0,127.0,127.0,125.0,123.0,128.0,-1.0,106.0,-73.0,127.0,127.0,127.0,-116.0,-87.0,105.0
127.0,127.0,127.0,127.0,127.0,125.0,123.0,128.0,-1.0,106.0,-73.0,127.0,127.0,127.0,-116.0,-87.0,105.0
127.0,127.0,127.0,127.0,127.0,125.0,123.0,128.0,-1.0,106.0,-73.0,127.0,127.0,127.0,-116.0,-87.0,105.0
127.0,127.0,127.0,127.0,127.0,124.0,123.0,128.0,-1.0,106.0,-73.0,127.0,127.0,127.0,-116.0,-87.0,105.0
127.0,127.0,127.0,127.0,127.0,124.0,123.0,128.0,-1.0,106.0,-73.0,127.0,127.0,127.0,-116.0,-87.0,105.0
127.0,127.0,127.0,127.0,126.0,125.0,123.0,128.0,-1.0,106.0,-73.0,127.0,127.0,127.0,-116.0,-87.0,105.0
127.0,127.0,127.0,127.0,127.0,125.0,123.0,128.0,-1.0,106.0,-73.0,127.0,127.0,127.0,-116.0,-87.0,105.0
127.0,127.0,127.0,127.0,127.0,125.0,123.0,128.0,-1.0,106.0,-73.0,127.0,127.0,127.0,-116.0,-87.0,105.0
127.0,127.0,127.0,127.0,127.0,125.0,123.0,128.0,-1.0,106.0,-73.0,127.0,127.0,127.0,-116.0,-87.0,105.0
127.0,127.0,127.0,127.0,126.0,128.0,124.0,128.0,-1.0,106.0,-73.0,127.0,127.0,127.0,-116.0,-87.0,105.0
127.0,127.0,127.0,127.0,127.0,128.0,124.0,128.0,-1.0,106.0,-73.0,127.0,127.0,127.0,-116.0,-87.0,105.0
127.0,127.0,127.0,127.0,127.0,128.0,124.0,128.0,-1.0,106.0,-73.0,127.0,127.0,127.0,-116.0,-87.0,105.0
127.0,127.0,127.0,127.0,127.0,128.0,125.0,128.0,-1.0,106.0,-73.0,127.0,127.0,127.0,-116.0,-87.0,105.0
127.0,127.0,127.0,127.0,126.0,127.0,124.0,128.0,-1.0,106.0,-73.0,127.0,127.0,127.0,-116.0,-87.0,105.0
127.0,127.0,126.0,127.0,126.0,128.0,124.0,128.0,-1.0,106.0,-73.0,127.0,127.0,127.0,-116.0,-87.0,105.0
127.0,127.0,127.0,127.0,126.0,128.0,123.0,128.0,-1.0,106.0,-73.0,127.0,127.0,127.0,-116.0,-87.0,105.0
126.0,127.0,127.0,127.0,126.0,128.0,124.0,128.0,-1.0,106.0,-73.0,127.0,127.0,127.0,-116.0,-87.0,105.0
127.0,127.0,127.0,127.0,126.0,128.0,124.0,128.0,-1.0,106.0,-73.0,127.0,127.0,127.0,-116.0,-87.0,105.0
127.0,127.0,127.0,127.0,126.0,128.0,124.0,128.0,-1.0,106.0,-73.0,127.0,127.0,127.0,-116.0,-87.0,105.0
127.0,127.0,127.0,127.0,126.0,125.0,119.0,128.0,-1.0,106.0,-74.0,127.0,127.0,127.0,-116.0,-87.0,105.0
127.0,127.0,127.0,127.0,126.0,125.0,119.0,128.0,-1.0,106.0,-74.0,127.0,127.0,127.0,-116.0,-87.0,105.0
127.0,127.0,127.0,127.0,126.0,125.0,119.0,128.0,-1.0,106.0,-74.0,127.0,127.0,127.0,-116.0,-87.0,105.0
127.0,127.0,127.0,127.0,126.0,125.0,119.0,128.0,-1.0,106.0,-74.0,127.0,127.0,127.0,-116.0,-87.0,105.0
127.0,127.0,126.0,127.0,126.0,125.0,120.0,128.0,-1.0,106.0,-74.0,127.0,127.0,127.0,-116.0,-87.0,105.0
127.0,127.0,126.0,127.0,126.0,125.0,119.0,129.0,-1.0,106.0,-74.0,127.0,127.0,127.0,-116.0,-87.0,105.0
127.0,127.0,126.0,127.0,126.0,125.0,120.0,128.0,-1.0,106.0,-74.0,127.0,127.0,127.0,-116.0,-87.0,105.0
127.0,127.0,127.0,127.0,126.0,125.0,119.0,128.0,-1.0,106.0,-74.0,127.0,127.0,127.0,-116.0,-87.0,105.0
127.0,127.0,127.0,127.0,126.0,125.0,119.0,128.0,-1.0,106.0,-74.0,127.0,127.0,127.0,-116.0,-87.0,105.0
127.0,127.0,127.0,127.0,126.0,125.0,119.0,128.0,-1.0,106.0,-74.0,127.0,127.0,127.0,-116.0,-87.0,105.0
127.0,127.0,127.0,128.0,127.0,126.0,117.0,128.0,-1.0,106.0,-74.0,127.0,127.0,127.0,-116.0,-87.0,105.0
127.0,127.0,127.0,128.0,127.0,126.0,117.0,128.0,-1.0,106.0,-74.0,127.0,127.0,127.0,-116.0,-87.0,105.0
127.0,127.0,127.0,128.0,127.0,126.0,117.0,128.0,-1.0,106.0,-74.0,127.0,127.0,127.0,-116.0,-87.0,105.0
127.0,127.0,127.0,128.0,126.0,126.0,117.0,128.0,-1.0,106.0,-74.0,127.0,127.0,127.0,-116.0,-87.0,105.0
127.0,127.0,127.0,128.0,127.0,126.0,117.0,128.0,-1.0,106.0,-74.0,127.0,127.0,127.0,-116.0,-87.0,105.0
127.0,127.0,127.0,128.0,127.0,126.0,117.0,128.0,-1.0,106.0,-74.0,127.0,127.0,127.0,-116.0,-87.0,105.0
127.0,127.0,127.0,128.0,127.0,126.0,117.0,128.0,-1.0,106.0,-74.0,127.0,127.0,127.0,-116.0,-87.0,105.0
127.0,127.0,127.0,128.0,127.0,126.0,117.0,128.0,-1.0,106.0,-74.0,127.0,127.0,127.0,-116.0,-87.0,105.0
127.0,127.0,127.0,128.0,127.0,126.0,117.0,128.0,-1.0,106.0,-74.0,127.0,127.0,127.0,-116.0,-87.0,105.0
127.0,127.0,127.0,128.0,127.0,126.0,117.0,128.0,-1.0,106.0,-74.0,127.0,127.0,127.0,-116.0,-87.0,105.0
127.0,127.0,127.0,128.0,127.0,126.0,117.0,128.0,-1.0,106.0,-73.0,127.0,127.0,127.0,-116.0,-87.0,105.0
127.0,127.0,127.0,128.0,127.0,126.0,118.0,128.0,-1.0,106.0,-73.0,127.0,127.0,127.0,-116.0,-87.0,105.0
127.0,127.0,127.0,128.0,126.0,126.0,118.0,128.0,-1.0,106.0,-73.0,127.0,127.0,127.0,-116.0,-87.0,105.0
127.0,127.0,127.0,128.0,126.0,127.0,118.0,128.0,-1.0,106.0,-73.0,127.0,127.0,127.0,-116.0,-87.0,105.0
127.0,127.0,127.0,128.0,127.0,127.0,117.0,128.0,-1.0,106.0,-73.0,127.0,127.0,127.0,-116.0,-87.0,105.0
127.0,127.0,127.0,128.0,127.0,127.0,117.0,128.0,-1.0,106.0,-73.0,127.0,127.0,127.0,-116.0,-87.0,105.0
127.0,127.0,127.0,128.0,127.0,126.0,117.0,128.0,-1.0,106.0,-73.0,127.0,127.0,127.0,-116.0,-87.0,105.0
127.0,127.0,127.0,128.0,127.0,126.0,117.0,128.0,-1.0,106.0,-73.0,127.0,127.0,127.0,-116.0,-87.0,105.0
127.0,127.0,127.0,128.0,127.0,126.0,117.0,128.0,-1.0,106.0,-73.0,127.0,127.0,127.0,-116.0,-87.0,105.0
127.0,127.0,127.0,128.0,127.0,126.0,117.0,128.0,-1.0,106.0,-73.0,127.0,127.0,127.0,-116.0,-87.0,105.0
127.0,127.0,127.0,128.0,127.0,128.0,122.0,128.0,-1.0,106.0,-73.0,127.0,127.0,127.0,-116.0,-87.0,105.0
127.0,127.0,127.0,128.0,127.0,124.0,121.0,128.0,-1.0,106.0,-73.0,127.0,127.0,127.0,-116.0,-87.0,105.0
127.0,127.0,127.0,128.0,127.0,124.0,121.0,128.0,-1.0,106.0,-73.0,127.0,127.0,127.0,-116.0,-87.0,105.0
127.0,127.0,127.0,128.0,127.0,125.0,121.0,128.0,-1.0,106.0,-73.0,127.0,127.0,127.0,-116.0,-87.0,105.0
127.0,127.0,127.0,128.0,127.0,126.0,121.0,128.0,-1.0,106.0,-73.0,127.0,127.0,127.0,-116.0,-87.0,105.0
127.0,128.0,127.0,128.0,127.0,127.0,121.0,128.0,-1.0,106.0,-73.0,127.0,127.0,127.0,-116.0,-87.0,105.0
127.0,127.0,127.0,128.0,127.0,127.0,121.0,128.0,-1.0,106.0,-73.0,127.0,127.0,127.0,-116.0,-87.0,105.0
127.0,127.0,127.0,128.0,127.0,127.0,121.0,128.0,-1.0,106.0,-73.0,127.0,127.0,127.0,-116.0,-87.0,105.0
127.0,127.0,127.0,128.0,127.0,127.0,122.0,128.0,-1.0,106.0,-73.0,127.0,127.0,127.0,-116.0,-87.0,105.0
127.0,127.0,127.0,128.0,127.0,128.0,122.0,128.0,-1.0,106.0,-73.0,127.0,127.0,127.0,-116.0,-87.0,105.0
126.0,128.0,123.0,127.0,125.0,125.0,122.0,128.0,-1.0,106.0,-73.0,127.0,127.0,127.0,-116.0,-87.0,105.0
126.0,128.0,122.0,127.0,125.0,124.0,122.0,128.0,-1.0,106.0,-73.0,127.0,127.0,127.0,-116.0,-87.0,105.0
126.0,128.0,121.0,127.0,125.0,124.0,122.0,128.0,-1.0,106.0,-73.0,127.0,127.0,127.0,-116.0,-87.0,105.0
126.0,128.0,121.0,127.0,125.0,124.0,122.0,128.0,-1.0,106.0,-73.0,127.0,127.0,127.0,-116.0,-87.0,105.0
126.0,129.0,120.0,127.0,125.0,123.0,122.0,128.0,-1.0,106.0,-73.0,127.0,127.0,127.0,-116.0,-87.0,105.0
126.0,129.0,120.0,127.0,125.0,123.0,122.0,128.0,-1.0,106.0,-73.0,127.0,127.0,127.0,-116.0,-87.0,105.0
127.0,129.0,120.0,127.0,125.0,122.0,122.0,128.0,-1.0,106.0,-73.0,127.0,127.0,127.0,-116.0,-87.0,105.0
127.0,129.0,120.0,127.0,125.0,122.0,122.0,127.0,-1.0,106.0,-73.0,127.0,127.0,127.0,-116.0,-87.0,105.0
127.0,128.0,120.0,127.0,125.0,121.0,122.0,127.0,-1.0,106.0,-73.0,127.0,127.0,127.0,-116.0,-87.0,105.0
127.0,128.0,121.0,127.0,125.0,121.0,122.0,127.0,-1.0,106.0,-73.0,127.0,127.0,127.0,-116.0,-87.0,105.0
127.0,126.0,121.0,127.0,126.0,127.0,117.0,128.0,-1.0,106.0,-73.0,127.0,127.0,127.0,-116.0,-87.0,105.0
128.0,126.0,123.0,127.0,126.0,127.0,117.0,127.0,-1.0,106.0,-73.0,127.0,127.0,127.0,-116.0,-87.0,105.0
128.0,126.0,125.0,128.0,126.0,127.0,117.0,127.0,-1.0,106.0,-73.0,127.0,127.0,127.0,-116.0,-87.0,105.0
128.0,126.0,126.0,128.0,126.0,127.0,116.0,127.0,-1.0,106.0,-73.0,127.0,127.0,127.0,-116.0,-87.0,105.0
128.0,126.0,128.0,129.0,125.0,127.0,116.0,127.0,-1.0,106.0,-73.0,127.0,127.0,127.0,-116.0,-87.0,105.0
128.0,126.0,130.0,129.0,125.0,127.0,116.0,127.0,-1.0,106.0,-73.0,127.0,127.0,127.0,-116.0,-87.0,105.0
128.0,126.0,131.0,129.0,125.0,127.0,115.0,127.0,-1.0,106.0,-73.0,127.0,127.0,127.0,-116.0,-87.0,105.0
128.0,126.0,133.0,130.0,125.0,127.0,115.0,127.0,-1.0,106.0,-73.0,127.0,127.0,127.0,-116.0,-87.0,105.0
128.0,127.0,134.0,130.0,125.0,127.0,115.0,127.0,-1.0,106.0,-73.0,127.0,127.0,127.0,-116.0,-87.0,105.0
127.0,125.0,120.0,126.0,126.0,128.0,117.0,128.0,-1.0,106.0,-73.0,127.0,127.0,127.0,-116.0,-87.0,105.0
125.0,123.0,124.0,147.0,114.0,123.0,72.0,128.0,-1.0,105.0,-73.0,127.0,127.0,127.0,-116.0,-87.0,105.0
125.0,123.0,125.0,148.0,114.0,123.0,71.0,128.0,-1.0,105.0,-73.0,127.0,127.0,127.0,-116.0,-87.0,105.0
125.0,123.0,126.0,148.0,113.0,123.0,71.0,128.0,-1.0,105.0,-73.0,127.0,127.0,127.0,-116.0,-87.0,105.0
125.0,122.0,127.0,149.0,113.0,123.0,70.0,128.0,-1.0,105.0,-73.0,127.0,127.0,127.0,-116.0,-87.0,105.0
125.0,122.0,128.0,149.0,113.0,123.0,70.0,128.0,-1.0,105.0,-73.0,127.0,127.0,127.0,-116.0,-87.0,105.0
125.0,122.0,130.0,150.0,113.0,123.0,70.0,128.0,-1.0,105.0,-73.0,127.0,127.0,127.0,-116.0,-87.0,105.0
125.0,123.0,131.0,150.0,112.0,123.0,71.0,128.0,-1.0,105.0,-73.0,127.0,127.0,127.0,-116.0,-87.0,105.0
125.0,123.0,133.0,151.0,112.0,122.0,71.0,129.0,-1.0,105.0,-73.0,127.0,127.0,127.0,-116.0,-87.0,105.0
126.0,123.0,122.0,147.0,115.0,124.0,75.0,129.0,-1.0,105.0,-73.0,127.0,127.0,127.0,-116.0,-87.0,105.0
125.0,123.0,123.0,147.0,114.0,123.0,73.0,128.0,-1.0,105.0,-73.0,127.0,127.0,127.0,-116.0,-87.0,105.0
125.0,113.0,136.0,184.0,58.0,56.0,151.0,133.0,-1.0,105.0,-73.0,126.0,127.0,127.0,-116.0,-87.0,105.0
125.0,112.0,136.0,186.0,56.0,55.0,153.0,133.0,-1.0,105.0,-73.0,126.0,127.0,127.0,-116.0,-87.0,105.0
125.0,111.0,136.0,188.0,55.0,53.0,155.0,133.0,-1.0,105.0,-73.0,126.0,127.0,127.0,-116.0,-87.0,105.0
125.0,110.0,136.0,190.0,53.0,52.0,156.0,133.0,-1.0,105.0,-73.0,126.0,127.0,127.0,-116.0,-87.0,105.0
125.0,109.0,136.0,192.0,51.0,51.0,158.0,133.0,-1.0,105.0,-73.0,126.0,127.0,127.0,-116.0,-87.0,105.0
125.0,108.0,136.0,195.0,48.0,50.0,160.0,133.0,-1.0,105.0,-73.0,126.0,127.0,127.0,-116.0,-87.0,105.0
125.0,107.0,135.0,198.0,46.0,49.0,161.0,133.0,-1.0,105.0,-73.0,126.0,127.0,127.0,-116.0,-87.0,105.0
125.0,115.0,134.0,178.0,62.0,60.0,146.0,133.0,-1.0,105.0,-73.0,126.0,127.0,127.0,-116.0,-87.0,105.0
125.0,114.0,135.0,180.0,61.0,59.0,148.0,133.0,-1.0,105.0,-73.0,126.0,127.0,127.0,-116.0,-87.0,105.0
125.0,113.0,135.0,182.0,59.0,57.0,150.0,133.0,-1.0,105.0,-73.0,126.0,127.0,127.0,-116.0,-87.0,105.0
129.0,71.0,63.0,54.0,0.0,0.0,192.0,146.0,-1.0,106.0,-74.0,125.0,127.0,126.0,-116.0,-87.0,104.0
129.0,70.0,59.0,39.0,0.0,0.0,192.0,146.0,-1.0,106.0,-74.0,125.0,127.0,126.0,-116.0,-87.0,104.0
129.0,68.0,56.0,23.0,0.0,0.0,193.0,147.0,-1.0,106.0,-74.0,125.0,127.0,126.0,-116.0,-87.0,104.0
129.0,66.0,53.0,6.0,0.0,0.0,193.0,148.0,-1.0,106.0,-74.0,125.0,127.0,126.0,-116.0,-87.0,104.0
129.0,65.0,50.0,0.0,0.0,0.0,194.0,148.0,-1.0,106.0,-74.0,125.0,127.0,126.0,-116.0,-87.0,104.0
127.0,79.0,80.0,120.0,0.0,0.0,192.0,140.0,-1.0,106.0,-74.0,125.0,127.0,126.0,-116.0,-87.0,104.0
128.0,77.0,77.0,108.0,0.0,0.0,191.0,141.0,-1.0,106.0,-74.0,125.0,127.0,126.0,-116.0,-87.0,104.0
128.0,76.0,74.0,95.0,0.0,0.0,191.0,142.0,-1.0,106.0,-74.0,125.0,127.0,126.0,-116.0,-87.0,104.0
128.0,74.0,70.0,82.0,0.0,0.0,191.0,143.0,-1.0,106.0,-74.0,125.0,127.0,126.0,-116.0,-87.0,104.0
128.0,73.0,66.0,68.0,0.0,0.0,191.0,145.0,-1.0,106.0,-74.0,125.0,127.0,126.0,-116.0,-87.0,104.0
126.0,0.0,248.0,134.0,0.0,0.0,224.0,148.0,-1.0,109.0,-74.0,124.0,126.0,126.0,-116.0,-87.0,104.0
126.0,0.0,254.0,134.0,0.0,0.0,223.0,149.0,-1.0,109.0,-74.0,124.0,126.0,126.0,-116.0,-87.0,104.0
126.0,0.0,254.0,135.0,0.0,0.0,223.0,149.0,-1.0,109.0,-74.0,124.0,126.0,126.0,-116.0,-87.0,104.0
125.0,0.0,254.0,135.0,0.0,0.0,223.0,148.0,-1.0,109.0,-74.0,124.0,126.0,126.0,-116.0,-87.0,104.0
128.0,0.0,207.0,129.0,0.0,0.0,224.0,149.0,-1.0,109.0,-74.0,124.0,126.0,126.0,-116.0,-87.0,104.0
127.0,0.0,214.0,130.0,0.0,0.0,224.0,149.0,-1.0,109.0,-74.0,124.0,126.0,126.0,-116.0,-87.0,104.0
127.0,0.0,221.0,131.0,0.0,0.0,224.0,148.0,-1.0,109.0,-74.0,124.0,126.0,126.0,-116.0,-87.0,104.0
127.0,0.0,228.0,132.0,0.0,0.0,224.0,148.0,-1.0,109.0,-74.0,124.0,126.0,126.0,-116.0,-87.0,104.0
127.0,0.0,235.0,132.0,0.0,0.0,224.0,148.0,-1.0,109.0,-74.0,124.0,126.0,126.0,-116.0,-87.0,104.0
127.0,0.0,242.0,133.0,0.0,0.0,224.0,148.0,-1.0,109.0,-74.0,124.0,126.0,126.0,-116.0,-87.0,104.0
127.0,0.0,254.0,138.0,0.0,0.0,182.0,217.0,-1.0,112.0,-75.0,123.0,126.0,126.0,-116.0,-87.0,104.0
127.0,0.0,254.0,138.0,0.0,0.0,181.0,217.0,-1.0,112.0,-75.0,123.0,126.0,126.0,-116.0,-87.0,104.0
127.0,0.0,254.0,138.0,0.0,0.0,180.0,218.0,-1.0,112.0,-75.0,123.0,126.0,126.0,-116.0,-87.0,104.0
127.0,0.0,254.0,137.0,0.0,0.0,189.0,211.0,-1.0,112.0,-75.0,123.0,126.0,126.0,-116.0,-87.0,104.0
127.0,0.0,254.0,137.0,0.0,0.0,188.0,212.0,-1.0,112.0,-75.0,123.0,126.0,126.0,-116.0,-87.0,104.0
127.0,0.0,254.0,137.0,0.0,0.0,187.0,213.0,-1.0,112.0,-75.0,123.0,126.0,126.0,-116.0,-87.0,104.0
127.0,0.0,254.0,137.0,0.0,0.0,186.0,214.0,-1.0,112.0,-75.0,123.0,126.0,126.0,-116.0,-87.0,104.0
127.0,0.0,254.0,137.0,0.0,0.0,185.0,215.0,-1.0,112.0,-75.0,123.0,126.0,126.0,-116.0,-87.0,104.0
127.0,0.0,254.0,137.0,0.0,0.0,184.0,216.0,-1.0,112.0,-75.0,123.0,126.0,126.0,-116.0,-87.0,104.0
127.0,0.0,254.0,137.0,0.0,0.0,183.0,216.0,-1.0,112.0,-75.0,123.0,126.0,126.0,-116.0,-87.0,104.0
120.0,0.0,254.0,137.0,137.0,0.0,108.0,221.0,-1.0,112.0,-76.0,123.0,126.0,126.0,-116.0,-87.0,104.0
120.0,0.0,254.0,137.0,143.0,0.0,107.0,221.0,-1.0,112.0,-76.0,123.0,126.0,126.0,-116.0,-87.0,104.0
121.0,0.0,254.0,138.0,86.0,0.0,121.0,218.0,-1.0,112.0,-76.0,123.0,126.0,126.0,-116.0,-87.0,104.0
121.0,0.0,254.0,138.0,92.0,0.0,120.0,218.0,-1.0,112.0,-76.0,123.0,126.0,126.0,-116.0,-87.0,104.0
121.0,0.0,254.0,138.0,99.0,0.0,118.0,218.0,-1.0,112.0,-76.0,123.0,126.0,126.0,-116.0,-87.0,104.0
121.0,0.0,254.0,138.0,105.0,0.0,116.0,219.0,-1.0,112.0,-76.0,123.0,126.0,126.0,-116.0,-87.0,104.0
121.0,0.0,254.0,137.0,111.0,0.0,114.0,219.0,-1.0,112.0,-76.0,123.0,126.0,126.0,-116.0,-87.0,104.0
120.0,0.0,254.0,137.0,118.0,0.0,112.0,219.0,-1.0,112.0,-76.0,123.0,126.0,126.0,-116.0,-87.0,104.0
120.0,0.0,254.0,137.0,124.0,0.0,111.0,220.0,-1.0,112.0,-76.0,123.0,126.0,126.0,-116.0,-87.0,104.0
120.0,0.0,254.0,137.0,131.0,0.0,110.0,220.0,-1.0,112.0,-76.0,123.0,126.0,126.0,-116.0,-87.0,104.0
117.0,0.0,212.0,136.0,254.0,0.0,81.0,254.0,-1.0,108.0,-77.0,123.0,126.0,126.0,-116.0,-87.0,104.0
117.0,0.0,240.0,137.0,254.0,0.0,83.0,254.0,-1.0,108.0,-77.0,123.0,126.0,126.0,-116.0,-87.0,104.0
117.0,0.0,237.0,137.0,254.0,0.0,83.0,254.0,-1.0,108.0,-77.0,123.0,126.0,126.0,-116.0,-87.0,104.0
117.0,0.0,233.0,137.0,254.0,0.0,82.0,254.0,-1.0,108.0,-77.0,123.0,126.0,126.0,-116.0,-87.0,104.0
117.0,0.0,230.0,136.0,254.0,0.0,82.0,254.0,-1.0,108.0,-77.0,123.0,126.0,126.0,-116.0,-87.0,104.0
117.0,0.0,226.0,136.0,254.0,0.0,82.0,254.0,-1.0,108.0,-77.0,123.0,126.0,126.0,-116.0,-87.0,104.0
117.0,0.0,222.0,136.0,254.0,0.0,81.0,254.0,-1.0,108.0,-77.0,123.0,126.0,126.0,-116.0,-87.0,104.0
117.0,0.0,219.0,136.0,254.0,0.0,81.0,254.0,-1.0,108.0,-77.0,123.0,126.0,126.0,-116.0,-87.0,104.0
117.0,0.0,217.0,136.0,254.0,0.0,81.0,254.0,-1.0,108.0,-77.0,123.0,126.0,126.0,-116.0,-87.0,104.0
117.0,0.0,214.0,136.0,254.0,0.0,82.0,254.0,-1.0,108.0,-77.0,123.0,126.0,126.0,-116.0,-87.0,104.0
120.0,0.0,130.0,137.0,254.0,0.0,111.0,254.0,-1.0,103.0,-77.0,124.0,126.0,126.0,-116.0,-87.0,104.0
120.0,0.0,128.0,137.0,254.0,0.0,111.0,254.0,-1.0,103.0,-77.0,124.0,126.0,126.0,-116.0,-87.0,104.0
120.0,0.0,126.0,137.0,254.0,0.0,112.0,254.0,-1.0,103.0,-77.0,124.0,126.0,126.0,-116.0,-87.0,104.0
120.0,0.0,123.0,137.0,254.0,0.0,112.0,254.0,-1.0,103.0,-77.0,124.0,126.0,126.0,-116.0,-87.0,104.0
120.0,0.0,120.0,137.0,254.0,0.0,113.0,254.0,-1.0,103.0,-77.0,124.0,126.0,126.0,-116.0,-87.0,104.0
120.0,0.0,118.0,137.0,254.0,0.0,113.0,254.0,-1.0,103.0,-77.0,124.0,126.0,126.0,-116.0,-87.0,104.0
120.0,0.0,117.0,137.0,254.0,0.0,114.0,254.0,-1.0,103.0,-77.0,124.0,126.0,126.0,-116.0,-87.0,104.0
120.0,0.0,116.0,137.0,254.0,0.0,115.0,254.0,-1.0,103.0,-77.0,124.0,126.0,126.0,-116.0,-87.0,104.0
120.0,0.0,114.0,137.0,254.0,0.0,116.0,254.0,-1.0,103.0,-77.0,124.0,126.0,126.0,-116.0,-87.0,104.0
120.0,0.0,113.0,137.0,254.0,0.0,116.0,254.0,-1.0,103.0,-77.0,124.0,126.0,126.0,-116.0,-87.0,104.0
123.0,0.0,87.0,138.0,253.0,0.0,135.0,254.0,-1.0,103.0,-77.0,124.0,126.0,126.0,-116.0,-87.0,103.0
124.0,0.0,87.0,138.0,253.0,0.0,135.0,254.0,-1.0,103.0,-77.0,124.0,126.0,126.0,-116.0,-87.0,103.0
124.0,0.0,87.0,138.0,252.0,0.0,135.0,254.0,-1.0,103.0,-77.0,124.0,126.0,126.0,-116.0,-87.0,103.0
124.0,0.0,87.0,138.0,251.0,0.0,135.0,254.0,-1.0,103.0,-77.0,124.0,126.0,126.0,-116.0,-87.0,103.0
124.0,0.0,87.0,138.0,250.0,0.0,135.0,254.0,-1.0,103.0,-77.0,124.0,126.0,126.0,-116.0,-87.0,103.0
124.0,0.0,88.0,138.0,249.0,0.0,135.0,254.0,-1.0,103.0,-77.0,124.0,126.0,126.0,-116.0,-87.0,103.0
124.0,0.0,88.0,138.0,248.0,0.0,135.0,254.0,-1.0,103.0,-77.0,124.0,126.0,126.0,-116.0,-87.0,103.0
124.0,0.0,88.0,138.0,247.0,0.0,135.0,254.0,-1.0,103.0,-77.0,124.0,126.0,126.0,-116.0,-87.0,103.0
124.0,0.0,87.0,138.0,246.0,0.0,135.0,254.0,-1.0,103.0,-77.0,124.0,126.0,126.0,-116.0,-87.0,103.0
123.0,0.0,86.0,138.0,254.0,0.0,135.0,254.0,-1.0,103.0,-77.0,124.0,126.0,126.0,-116.0,-87.0,103.0
124.0,0.0,91.0,138.0,188.0,0.0,123.0,254.0,-1.0,105.0,-77.0,125.0,126.0,127.0,-116.0,-87.0,103.0
124.0,0.0,92.0,138.0,187.0,0.0,123.0,254.0,-1.0,105.0,-77.0,125.0,126.0,127.0,-116.0,-87.0,103.0
124.0,0.0,93.0,138.0,186.0,0.0,122.0,254.0,-1.0,105.0,-77.0,125.0,126.0,127.0,-116.0,-87.0,103.0
124.0,0.0,93.0,138.0,185.0,0.0,122.0,254.0,-1.0,105.0,-77.0,125.0,126.0,127.0,-116.0,-87.0,103.0
124.0,0.0,93.0,138.0,184.0,0.0,122.0,254.0,-1.0,105.0,-77.0,125.0,126.0,127.0,-116.0,-87.0,103.0
124.0,0.0,93.0,137.0,183.0,0.0,121.0,254.0,-1.0,105.0,-77.0,125.0,126.0,127.0,-116.0,-87.0,103.0
124.0,0.0,93.0,137.0,183.0,0.0,121.0,254.0,-1.0,105.0,-77.0,125.0,126.0,127.0,-116.0,-87.0,103.0
124.0,0.0,93.0,137.0,182.0,0.0,121.0,254.0,-1.0,105.0,-77.0,125.0,126.0,127.0,-116.0,-87.0,103.0
124.0,0.0,90.0,138.0,190.0,0.0,124.0,254.0,-1.0,105.0,-77.0,125.0,126.0,127.0,-116.0,-87.0,103.0
124.0,0.0,91.0,138.0,189.0,0.0,123.0,254.0,-1.0,105.0,-77.0,125.0,126.0,127.0,-116.0,-87.0,103.0
122.0,0.0,99.0,138.0,157.0,0.0,111.0,254.0,-1.0,104.0,-76.0,125.0,127.0,127.0,-116.0,-87.0,103.0
122.0,0.0,100.0,138.0,157.0,0.0,111.0,254.0,-1.0,104.0,-76.0,125.0,127.0,127.0,-116.0,-87.0,103.0
122.0,0.0,100.0,138.0,156.0,0.0,112.0,254.0,-1.0,104.0,-76.0,125.0,127.0,127.0,-116.0,-87.0,103.0
122.0,0.0,101.0,138.0,156.0,0.0,112.0,254.0,-1.0,104.0,-76.0,125.0,127.0,127.0,-116.0,-87.0,103.0
122.0,0.0,101.0,137.0,156.0,0.0,112.0,254.0,-1.0,104.0,-76.0,125.0,127.0,127.0,-116.0,-87.0,103.0
122.0,0.0,101.0,137.0,155.0,0.0,111.0,254.0,-1.0,104.0,-76.0,125.0,127.0,127.0,-116.0,-87.0,103.0
122.0,0.0,102.0,137.0,155.0,0.0,111.0,254.0,-1.0,104.0,-76.0,125.0,127.0,127.0,-116.0,-87.0,103.0
122.0,0.0,97.0,138.0,158.0,0.0,111.0,254.0,-1.0,104.0,-76.0,125.0,127.0,127.0,-116.0,-87.0,103.0
122.0,0.0,97.0,138.0,158.0,0.0,111.0,254.0,-1.0,104.0,-76.0,125.0,127.0,127.0,-116.0,-87.0,103.0
122.0,0.0,98.0,138.0,157.0,0.0,111.0,254.0,-1.0,104.0,-76.0,125.0,127.0,127.0,-116.0,-87.0,103.0
123.0,22.0,102.0,136.0,134.0,0.0,109.0,254.0,-1.0,103.0,-77.0,125.0,127.0,127.0,-116.0,-87.0,103.0
123.0,24.0,100.0,136.0,134.0,0.0,109.0,254.0,-1.0,103.0,-77.0,125.0,127.0,127.0,-116.0,-87.0,103.0
123.0,25.0,99.0,136.0,134.0,0.0,109.0,254.0,-1.0,103.0,-77.0,125.0,127.0,127.0,-116.0,-87.0,103.0
123.0,27.0,98.0,136.0,133.0,0.0,109.0,254.0,-1.0,103.0,-77.0,125.0,127.0,127.0,-116.0,-87.0,103.0
123.0,28.0,96.0,136.0,133.0,0.0,109.0,254.0,-1.0,103.0,-77.0,125.0,127.0,127.0,-116.0,-87.0,103.0
122.0,30.0,95.0,136.0,133.0,0.0,109.0,254.0,-1.0,103.0,-77.0,125.0,127.0,127.0,-116.0,-87.0,103.0
123.0,16.0,104.0,136.0,135.0,0.0,109.0,254.0,-1.0,103.0,-77.0,125.0,127.0,127.0,-116.0,-87.0,103.0
123.0,18.0,104.0,136.0,135.0,0.0,109.0,254.0,-1.0,103.0,-77.0,125.0,127.0,127.0,-116.0,-87.0,103.0
123.0,20.0,103.0,136.0,134.0,0.0,109.0,254.0,-1.0,103.0,-77.0,125.0,127.0,127.0,-116.0,-87.0,103.0
123.0,21.0,103.0,136.0,134.0,0.0,109.0,254.0,-1.0,103.0,-77.0,125.0,127.0,127.0,-116.0,-87.0,103.0
123.0,87.0,102.0,137.0,125.0,8.0,116.0,254.0,-1.0,101.0,-78.0,125.0,127.0,127.0,-115.0,-87.0,103.0
123.0,88.0,103.0,137.0,125.0,9.0,116.0,254.0,-1.0,101.0,-78.0,125.0,127.0,127.0,-115.0,-87.0,103.0
123.0,89.0,104.0,137.0,125.0,10.0,116.0,254.0,-1.0,101.0,-78.0,125.0,127.0,127.0,-115.0,-87.0,103.0
123.0,89.0,105.0,137.0,125.0,12.0,117.0,254.0,-1.0,101.0,-78.0,125.0,127.0,127.0,-115.0,-87.0,103.0
123.0,90.0,105.0,138.0,126.0,13.0,117.0,254.0,-1.0,101.0,-78.0,125.0,127.0,127.0,-115.0,-87.0,103.0
123.0,83.0,96.0,137.0,124.0,4.0,115.0,254.0,-1.0,101.0,-78.0,125.0,127.0,127.0,-115.0,-87.0,103.0
123.0,84.0,97.0,137.0,125.0,5.0,115.0,254.0,-1.0,101.0,-78.0,125.0,127.0,127.0,-115.0,-87.0,103.0
123.0,85.0,98.0,137.0,125.0,6.0,115.0,254.0,-1.0,101.0,-78.0,125.0,127.0,127.0,-115.0,-87.0,103.0
123.0,85.0,100.0,137.0,125.0,6.0,116.0,254.0,-1.0,101.0,-78.0,125.0,127.0,127.0,-115.0,-87.0,103.0
123.0,86.0,101.0,137.0,125.0,7.0,116.0,254.0,-1.0,101.0,-78.0,125.0,127.0,127.0,-115.0,-87.0,103.0
124.0,111.0,108.0,139.0,130.0,72.0,117.0,254.0,-1.0,100.0,-80.0,126.0,127.0,127.0,-115.0,-87.0,103.0
124.0,111.0,108.0,139.0,130.0,74.0,117.0,254.0,-1.0,100.0,-80.0,126.0,127.0,127.0,-115.0,-87.0,103.0
124.0,111.0,108.0,139.0,130.0,74.0,116.0,254.0,-1.0,100.0,-80.0,126.0,127.0,127.0,-115.0,-87.0,103.0
124.0,111.0,108.0,139.0,130.0,75.0,116.0,254.0,-1.0,100.0,-80.0,126.0,127.0,127.0,-115.0,-87.0,103.0
124.0,107.0,105.0,139.0,130.0,66.0,118.0,254.0,-1.0,100.0,-80.0,126.0,127.0,127.0,-115.0,-87.0,103.0
124.0,108.0,105.0,139.0,130.0,68.0,118.0,254.0,-1.0,100.0,-80.0,126.0,127.0,127.0,-115.0,-87.0,103.0
124.0,109.0,106.0,139.0,130.0,69.0,118.0,254.0,-1.0,100.0,-80.0,126.0,127.0,127.0,-115.0,-87.0,103.0
124.0,109.0,107.0,139.0,130.0,69.0,117.0,254.0,-1.0,100.0,-80.0,126.0,127.0,127.0,-115.0,-87.0,103.0
124.0,110.0,108.0,139.0,130.0,70.0,117.0,254.0,-1.0,100.0,-80.0,126.0,127.0,127.0,-115.0,-87.0,103.0
124.0,111.0,108.0,139.0,130.0,71.0,117.0,254.0,-1.0,100.0,-80.0,126.0,127.0,127.0,-115.0,-87.0,103.0
124.0,108.0,109.0,138.0,129.0,96.0,118.0,254.0,-1.0,100.0,-81.0,126.0,127.0,127.0,-114.0,-87.0,103.0
124.0,108.0,110.0,138.0,129.0,96.0,118.0,254.0,-1.0,100.0,-81.0,126.0,127.0,127.0,-114.0,-87.0,103.0
124.0,108.0,111.0,138.0,130.0,97.0,118.0,254.0,-1.0,100.0,-81.0,126.0,127.0,127.0,-114.0,-87.0,103.0
124.0,108.0,105.0,138.0,130.0,92.0,118.0,254.0,-1.0,100.0,-81.0,126.0,127.0,127.0,-114.0,-87.0,103.0
124.0,108.0,104.0,138.0,130.0,93.0,118.0,254.0,-1.0,100.0,-81.0,126.0,127.0,127.0,-114.0,-87.0,103.0
124.0,108.0,105.0,138.0,130.0,94.0,118.0,254.0,-1.0,100.0,-81.0,126.0,127.0,127.0,-114.0,-87.0,103.0
124.0,108.0,105.0,138.0,130.0,94.0,118.0,254.0,-1.0,100.0,-81.0,126.0,127.0,127.0,-114.0,-87.0,103.0
124.0,108.0,106.0,138.0,130.0,94.0,118.0,254.0,-1.0,100.0,-81.0,126.0,127.0,127.0,-114.0,-87.0,103.0
124.0,107.0,106.0,138.0,130.0,95.0,118.0,254.0,-1.0,100.0,-81.0,126.0,127.0,127.0,-114.0,-87.0,103.0
124.0,107.0,107.0,138.0,130.0,95.0,118.0,254.0,-1.0,100.0,-81.0,126.0,127.0,127.0,-114.0,-87.0,103.0
124.0,112.0,115.0,139.0,126.0,106.0,121.0,254.0,-1.0,99.0,-82.0,126.0,127.0,127.0,-113.0,-87.0,103.0
124.0,112.0,115.0,139.0,126.0,106.0,121.0,254.0,-1.0,99.0,-82.0,126.0,127.0,127.0,-113.0,-87.0,103.0
125.0,111.0,114.0,139.0,126.0,102.0,122.0,254.0,-1.0,99.0,-82.0,126.0,127.0,127.0,-113.0,-87.0,103.0
125.0,112.0,114.0,139.0,126.0,103.0,122.0,254.0,-1.0,99.0,-82.0,126.0,127.0,127.0,-113.0,-87.0,103.0
125.0,112.0,114.0,139.0,126.0,103.0,122.0,254.0,-1.0,99.0,-82.0,126.0,127.0,127.0,-113.0,-87.0,103.0
125.0,112.0,114.0,139.0,126.0,103.0,122.0,254.0,-1.0,99.0,-82.0,126.0,127.0,127.0,-113.0,-87.0,103.0
125.0,112.0,115.0,139.0,126.0,104.0,122.0,254.0,-1.0,99.0,-82.0,126.0,127.0,127.0,-113.0,-87.0,103.0
125.0,112.0,115.0,139.0,126.0,104.0,122.0,254.0,-1.0,99.0,-82.0,126.0,127.0,127.0,-113.0,-87.0,103.0
125.0,112.0,115.0,139.0,126.0,104.0,122.0,254.0,-1.0,99.0,-82.0,126.0,127.0,127.0,-113.0,-87.0,103.0
125.0,112.0,115.0,139.0,126.0,105.0,121.0,254.0,-1.0,99.0,-82.0,126.0,127.0,127.0,-113.0,-87.0,103.0
125.0,115.0,115.0,139.0,124.0,106.0,122.0,254.0,-1.0,99.0,-83.0,126.0,127.0,127.0,-113.0,-87.0,103.0
125.0,115.0,113.0,139.0,123.0,103.0,124.0,254.0,-1.0,99.0,-83.0,126.0,127.0,127.0,-113.0,-87.0,103.0
125.0,115.0,113.0,139.0,123.0,104.0,123.0,254.0,-1.0,99.0,-83.0,126.0,127.0,127.0,-113.0,-87.0,103.0
125.0,115.0,114.0,139.0,123.0,104.0,123.0,254.0,-1.0,99.0,-83.0,126.0,127.0,127.0,-113.0,-87.0,103.0
125.0,115.0,115.0,139.0,123.0,104.0,123.0,254.0,-1.0,99.0,-83.0,126.0,127.0,127.0,-113.0,-87.0,103.0
125.0,115.0,115.0,139.0,123.0,104.0,123.0,254.0,-1.0,99.0,-83.0,126.0,127.0,127.0,-113.0,-87.0,103.0
125.0,115.0,115.0,139.0,124.0,104.0,123.0,254.0,-1.0,99.0,-83.0,126.0,127.0,127.0,-113.0,-87.0,103.0
125.0,115.0,115.0,139.0,124.0,104.0,123.0,254.0,-1.0,99.0,-83.0,126.0,127.0,127.0,-113.0,-87.0,103.0
125.0,115.0,115.0,139.0,124.0,105.0,123.0,254.0,-1.0,99.0,-83.0,126.0,127.0,127.0,-113.0,-87.0,103.0
125.0,115.0,115.0,139.0,124.0,106.0,123.0,254.0,-1.0,99.0,-83.0,126.0,127.0,127.0,-113.0,-87.0,103.0
125.0,115.0,116.0,139.0,124.0,104.0,125.0,254.0,-1.0,98.0,-84.0,127.0,127.0,127.0,-112.0,-86.0,103.0
