emg1,emg2,emg3,emg4,emg5,emg6,emg7,emg8,acc_x,acc_y,acc_z,gyro_x,gyro_y,gyro_z,angle_pitch,angle_roll,angle_yaw
127.0,127.0,127.0,126.0,127.0,129.0,125.0,131.0,-1.0,106.0,-80.0,127.0,127.0,127.0,-115.0,-85.0,107.0
127.0,127.0,127.0,126.0,127.0,129.0,125.0,131.0,-1.0,106.0,-80.0,127.0,127.0,127.0,-115.0,-85.0,107.0
127.0,127.0,127.0,126.0,127.0,129.0,125.0,131.0,-1.0,106.0,-80.0,127.0,127.0,127.0,-115.0,-85.0,107.0
127.0,127.0,127.0,126.0,127.0,129.0,125.0,130.0,-1.0,106.0,-80.0,127.0,127.0,127.0,-115.0,-85.0,107.0
127.0,127.0,127.0,126.0,127.0,129.0,125.0,130.0,-1.0,106.0,-80.0,127.0,127.0,127.0,-115.0,-85.0,107.0
127.0,127.0,127.0,126.0,126.0,129.0,125.0,131.0,-1.0,106.0,-80.0,127.0,127.0,127.0,-115.0,-85.0,107.0
127.0,127.0,128.0,126.0,127.0,128.0,126.0,130.0,-1.0,106.0,-80.0,127.0,127.0,127.0,-115.0,-85.0,107.0
127.0,127.0,128.0,126.0,127.0,128.0,126.0,130.0,-1.0,106.0,-80.0,127.0,127.0,127.0,-115.0,-85.0,107.0
127.0,127.0,127.0,126.0,126.0,129.0,126.0,131.0,-1.0,106.0,-80.0,127.0,127.0,127.0,-115.0,-85.0,107.0
127.0,127.0,127.0,126.0,126.0,129.0,125.0,131.0,-1.0,106.0,-80.0,127.0,127.0,127.0,-115.0,-85.0,107.0
127.0,127.0,127.0,126.0,127.0,129.0,126.0,131.0,-1.0,106.0,-80.0,127.0,127.0,127.0,-115.0,-85.0,107.0
127.0,127.0,127.0,126.0,127.0,129.0,126.0,131.0,-1.0,106.0,-80.0,127.0,127.0,127.0,-115.0,-85.0,107.0
127.0,127.0,127.0,126.0,127.0,129.0,126.0,131.0,-1.0,106.0,-80.0,127.0,127.0,127.0,-115.0,-85.0,107.0
127.0,127.0,127.0,126.0,127.0,129.0,126.0,131.0,-1.0,106.0,-80.0,127.0,127.0,127.0,-115.0,-85.0,107.0
127.0,127.0,127.0,126.0,126.0,129.0,126.0,131.0,-1.0,106.0,-80.0,127.0,127.0,127.0,-115.0,-85.0,107.0
127.0,127.0,127.0,126.0,126.0,129.0,125.0,131.0,-1.0,106.0,-80.0,127.0,127.0,127.0,-115.0,-85.0,107.0
127.0,127.0,127.0,127.0,127.0,129.0,126.0,130.0,-1.0,105.0,-80.0,127.0,127.0,127.0,-115.0,-85.0,107.0
127.0,127.0,127.0,127.0,127.0,129.0,126.0,130.0,-1.0,105.0,-80.0,127.0,127.0,127.0,-115.0,-85.0,107.0
127.0,127.0,127.0,127.0,127.0,129.0,125.0,131.0,-1.0,105.0,-80.0,127.0,127.0,127.0,-115.0,-85.0,107.0
127.0,127.0,127.0,127.0,127.0,129.0,125.0,130.0,-1.0,105.0,-80.0,127.0,127.0,127.0,-115.0,-85.0,107.0
127.0,127.0,127.0,127.0,127.0,129.0,126.0,130.0,-1.0,105.0,-80.0,127.0,127.0,127.0,-115.0,-85.0,107.0
127.0,127.0,127.0,127.0,127.0,129.0,126.0,130.0,-1.0,105.0,-80.0,127.0,127.0,127.0,-115.0,-85.0,107.0
127.0,127.0,127.0,127.0,127.0,129.0,126.0,130.0,-1.0,105.0,-80.0,127.0,127.0,127.0,-115.0,-85.0,107.0
127.0,127.0,127.0,127.0,127.0,129.0,125.0,130.0,-1.0,105.0,-80.0,127.0,127.0,127.0,-115.0,-85.0,107.0
127.0,127.0,127.0,127.0,127.0,130.0,125.0,131.0,-1.0,105.0,-80.0,127.0,127.0,127.0,-115.0,-85.0,107.0
127.0,127.0,127.0,127.0,127.0,128.0,126.0,130.0,-1.0,105.0,-80.0,127.0,127.0,127.0,-115.0,-85.0,107.0
126.0,127.0,127.0,127.0,127.0,129.0,126.0,130.0,-1.0,105.0,-80.0,127.0,127.0,127.0,-115.0,-85.0,107.0
127.0,127.0,127.0,127.0,127.0,130.0,125.0,131.0,-1.0,105.0,-80.0,127.0,127.0,127.0,-115.0,-85.0,107.0
127.0,127.0,127.0,127.0,127.0,130.0,125.0,130.0,-1.0,105.0,-80.0,127.0,127.0,127.0,-115.0,-85.0,107.0
127.0,127.0,127.0,127.0,127.0,129.0,125.0,130.0,-1.0,105.0,-80.0,127.0,127.0,127.0,-115.0,-85.0,107.0
127.0,127.0,127.0,127.0,127.0,129.0,125.0,130.0,-1.0,105.0,-80.0,127.0,127.0,127.0,-115.0,-85.0,107.0
127.0,127.0,127.0,127.0,127.0,129.0,125.0,130.0,-1.0,105.0,-80.0,127.0,127.0,127.0,-115.0,-85.0,107.0
127.0,127.0,127.0,127.0,127.0,129.0,125.0,130.0,-1.0,105.0,-80.0,127.0,127.0,127.0,-115.0,-85.0,107.0
127.0,127.0,127.0,127.0,126.0,130.0,125.0,131.0,-1.0,105.0,-80.0,127.0,127.0,127.0,-115.0,-85.0,107.0
126.0,127.0,128.0,127.0,127.0,129.0,126.0,130.0,-1.0,105.0,-80.0,127.0,127.0,127.0,-115.0,-85.0,107.0
127.0,127.0,127.0,127.0,127.0,129.0,126.0,130.0,-1.0,105.0,-80.0,127.0,127.0,127.0,-115.0,-85.0,107.0
127.0,127.0,127.0,126.0,126.0,129.0,125.0,131.0,-1.0,105.0,-80.0,127.0,127.0,127.0,-115.0,-85.0,107.0
127.0,127.0,127.0,126.0,126.0,129.0,125.0,131.0,-1.0,105.0,-80.0,127.0,127.0,127.0,-115.0,-85.0,107.0
127.0,127.0,127.0,126.0,126.0,129.0,126.0,131.0,-1.0,105.0,-80.0,127.0,127.0,127.0,-115.0,-85.0,107.0
127.0,127.0,127.0,126.0,126.0,129.0,126.0,130.0,-1.0,105.0,-80.0,127.0,127.0,127.0,-115.0,-85.0,107.0
127.0,127.0,127.0,126.0,126.0,129.0,126.0,130.0,-1.0,105.0,-80.0,127.0,127.0,127.0,-115.0,-85.0,107.0
127.0,127.0,127.0,126.0,126.0,129.0,126.0,130.0,-1.0,105.0,-80.0,127.0,127.0,127.0,-115.0,-85.0,107.0
127.0,127.0,127.0,126.0,126.0,129.0,125.0,131.0,-1.0,105.0,-80.0,127.0,127.0,127.0,-115.0,-85.0,107.0
127.0,127.0,127.0,126.0,127.0,128.0,126.0,130.0,-1.0,105.0,-80.0,127.0,127.0,127.0,-115.0,-85.0,107.0
127.0,127.0,127.0,126.0,127.0,128.0,126.0,130.0,-1.0,105.0,-80.0,127.0,127.0,127.0,-115.0,-85.0,107.0
127.0,127.0,127.0,126.0,126.0,129.0,126.0,130.0,-1.0,105.0,-80.0,127.0,127.0,127.0,-115.0,-85.0,107.0
127.0,127.0,127.0,127.0,126.0,129.0,126.0,130.0,-1.0,105.0,-80.0,127.0,127.0,127.0,-115.0,-85.0,107.0
127.0,127.0,127.0,127.0,126.0,129.0,126.0,130.0,-1.0,105.0,-80.0,127.0,127.0,127.0,-115.0,-85.0,107.0
127.0,127.0,127.0,127.0,126.0,128.0,126.0,130.0,-1.0,105.0,-80.0,127.0,127.0,127.0,-115.0,-85.0,107.0
127.0,127.0,127.0,126.0,126.0,128.0,126.0,130.0,-1.0,105.0,-80.0,127.0,127.0,127.0,-115.0,-85.0,107.0
127.0,127.0,127.0,126.0,126.0,128.0,126.0,130.0,-1.0,105.0,-80.0,127.0,127.0,127.0,-115.0,-85.0,107.0
127.0,127.0,127.0,126.0,126.0,128.0,127.0,130.0,-1.0,105.0,-80.0,127.0,127.0,127.0,-115.0,-85.0,107.0
127.0,127.0,127.0,127.0,126.0,129.0,126.0,131.0,-1.0,105.0,-80.0,127.0,127.0,127.0,-115.0,-85.0,107.0
127.0,127.0,127.0,127.0,126.0,129.0,126.0,131.0,-1.0,105.0,-80.0,127.0,127.0,127.0,-115.0,-85.0,107.0
127.0,127.0,127.0,127.0,126.0,129.0,126.0,131.0,-1.0,105.0,-80.0,127.0,127.0,127.0,-115.0,-85.0,107.0
127.0,127.0,127.0,127.0,126.0,129.0,126.0,130.0,-1.0,105.0,-80.0,127.0,127.0,127.0,-115.0,-85.0,107.0
127.0,127.0,127.0,126.0,127.0,129.0,126.0,130.0,-1.0,105.0,-80.0,127.0,127.0,127.0,-115.0,-85.0,107.0
127.0,127.0,127.0,126.0,127.0,129.0,126.0,130.0,-1.0,105.0,-80.0,127.0,127.0,127.0,-115.0,-85.0,107.0
127.0,127.0,127.0,126.0,127.0,129.0,126.0,130.0,-1.0,105.0,-80.0,127.0,127.0,127.0,-115.0,-85.0,107.0
127.0,127.0,127.0,126.0,127.0,129.0,126.0,130.0,-1.0,105.0,-80.0,127.0,127.0,127.0,-115.0,-85.0,107.0
127.0,127.0,127.0,126.0,127.0,128.0,126.0,130.0,-1.0,105.0,-80.0,127.0,127.0,127.0,-115.0,-85.0,107.0
127.0,127.0,127.0,126.0,126.0,129.0,125.0,130.0,-1.0,105.0,-80.0,127.0,127.0,127.0,-115.0,-85.0,107.0
127.0,127.0,127.0,126.0,126.0,129.0,125.0,130.0,-1.0,105.0,-80.0,127.0,127.0,127.0,-115.0,-85.0,107.0
127.0,127.0,127.0,126.0,126.0,129.0,125.0,130.0,-1.0,105.0,-80.0,127.0,127.0,127.0,-115.0,-85.0,107.0
127.0,127.0,127.0,126.0,127.0,129.0,125.0,130.0,-1.0,105.0,-80.0,127.0,127.0,127.0,-115.0,-85.0,107.0
127.0,127.0,127.0,126.0,127.0,129.0,125.0,130.0,-1.0,105.0,-80.0,127.0,127.0,127.0,-115.0,-85.0,107.0
127.0,127.0,127.0,126.0,127.0,128.0,126.0,130.0,-1.0,105.0,-80.0,127.0,127.0,127.0,-115.0,-85.0,107.0
127.0,127.0,127.0,126.0,127.0,128.0,126.0,130.0,-1.0,105.0,-80.0,127.0,127.0,127.0,-115.0,-85.0,107.0
127.0,127.0,127.0,126.0,127.0,128.0,126.0,130.0,-1.0,105.0,-80.0,127.0,127.0,127.0,-115.0,-85.0,107.0
127.0,127.0,127.0,126.0,127.0,129.0,125.0,131.0,-1.0,105.0,-80.0,127.0,127.0,127.0,-115.0,-85.0,107.0
127.0,127.0,127.0,126.0,127.0,129.0,125.0,131.0,-1.0,105.0,-80.0,127.0,127.0,127.0,-115.0,-85.0,107.0
127.0,127.0,127.0,126.0,127.0,129.0,125.0,131.0,-1.0,105.0,-80.0,127.0,127.0,127.0,-115.0,-85.0,107.0
127.0,127.0,127.0,126.0,127.0,129.0,126.0,131.0,-1.0,105.0,-80.0,127.0,127.0,127.0,-115.0,-85.0,107.0
127.0,127.0,127.0,126.0,127.0,129.0,126.0,130.0,-1.0,105.0,-80.0,127.0,127.0,127.0,-115.0,-85.0,107.0
127.0,127.0,127.0,126.0,127.0,129.0,126.0,130.0,-1.0,105.0,-80.0,127.0,127.0,127.0,-115.0,-85.0,107.0
127.0,127.0,127.0,126.0,127.0,128.0,126.0,130.0,-1.0,105.0,-80.0,127.0,127.0,127.0,-115.0,-85.0,107.0
127.0,127.0,127.0,126.0,126.0,129.0,126.0,131.0,-1.0,105.0,-80.0,127.0,127.0,127.0,-115.0,-85.0,107.0
127.0,127.0,127.0,126.0,126.0,129.0,126.0,131.0,-1.0,105.0,-80.0,127.0,127.0,127.0,-115.0,-85.0,107.0
127.0,127.0,127.0,126.0,127.0,129.0,127.0,130.0,-1.0,105.0,-80.0,127.0,127.0,127.0,-115.0,-85.0,107.0
127.0,127.0,127.0,126.0,126.0,129.0,126.0,130.0,-1.0,105.0,-80.0,127.0,127.0,127.0,-115.0,-85.0,107.0
127.0,127.0,127.0,126.0,126.0,129.0,126.0,131.0,-1.0,105.0,-80.0,127.0,127.0,127.0,-115.0,-85.0,107.0
127.0,127.0,127.0,126.0,126.0,129.0,126.0,131.0,-1.0,105.0,-80.0,127.0,127.0,127.0,-115.0,-85.0,107.0
127.0,127.0,127.0,126.0,127.0,129.0,126.0,130.0,-1.0,105.0,-80.0,127.0,127.0,127.0,-115.0,-85.0,107.0
127.0,127.0,127.0,126.0,127.0,129.0,126.0,130.0,-1.0,105.0,-80.0,127.0,127.0,127.0,-115.0,-85.0,107.0
127.0,127.0,127.0,126.0,127.0,129.0,126.0,130.0,-1.0,105.0,-80.0,127.0,127.0,127.0,-115.0,-85.0,107.0
127.0,127.0,127.0,126.0,126.0,129.0,126.0,131.0,-1.0,105.0,-80.0,127.0,127.0,127.0,-115.0,-85.0,107.0
127.0,127.0,127.0,126.0,126.0,129.0,125.0,131.0,-1.0,105.0,-80.0,127.0,127.0,127.0,-115.0,-85.0,107.0
127.0,127.0,127.0,126.0,127.0,128.0,126.0,130.0,-1.0,105.0,-80.0,127.0,127.0,127.0,-115.0,-85.0,107.0
127.0,127.0,127.0,126.0,126.0,129.0,126.0,130.0,-1.0,105.0,-80.0,127.0,127.0,127.0,-115.0,-85.0,107.0
127.0,127.0,127.0,126.0,126.0,129.0,126.0,131.0,-1.0,105.0,-80.0,127.0,127.0,127.0,-115.0,-85.0,107.0
127.0,127.0,127.0,126.0,127.0,129.0,126.0,130.0,-1.0,105.0,-80.0,127.0,127.0,127.0,-115.0,-85.0,107.0
127.0,127.0,127.0,126.0,127.0,129.0,126.0,130.0,-1.0,105.0,-80.0,127.0,127.0,127.0,-115.0,-85.0,107.0
127.0,127.0,127.0,126.0,127.0,129.0,126.0,130.0,-1.0,105.0,-80.0,127.0,127.0,127.0,-115.0,-85.0,107.0
127.0,127.0,127.0,126.0,127.0,129.0,126.0,130.0,-1.0,105.0,-80.0,127.0,127.0,127.0,-115.0,-85.0,107.0
127.0,127.0,127.0,126.0,126.0,129.0,125.0,131.0,-1.0,105.0,-80.0,127.0,127.0,127.0,-115.0,-85.0,107.0
127.0,127.0,127.0,126.0,126.0,129.0,125.0,131.0,-1.0,105.0,-80.0,127.0,127.0,127.0,-115.0,-85.0,107.0
126.0,127.0,127.0,126.0,126.0,128.0,126.0,130.0,-1.0,105.0,-80.0,127.0,127.0,127.0,-115.0,-85.0,107.0
126.0,127.0,127.0,126.0,126.0,129.0,126.0,130.0,-1.0,105.0,-80.0,127.0,127.0,127.0,-115.0,-85.0,107.0
126.0,127.0,127.0,126.0,126.0,129.0,126.0,131.0,-1.0,105.0,-80.0,127.0,127.0,127.0,-115.0,-85.0,107.0
126.0,127.0,127.0,126.0,126.0,129.0,126.0,130.0,-1.0,105.0,-80.0,127.0,127.0,127.0,-115.0,-85.0,107.0
126.0,127.0,127.0,126.0,126.0,129.0,126.0,130.0,-1.0,105.0,-80.0,127.0,127.0,127.0,-115.0,-85.0,107.0
126.0,127.0,127.0,126.0,126.0,128.0,126.0,130.0,-1.0,105.0,-80.0,127.0,127.0,127.0,-115.0,-85.0,107.0
126.0,127.0,127.0,126.0,126.0,128.0,126.0,130.0,-1.0,105.0,-80.0,127.0,127.0,127.0,-115.0,-85.0,107.0
126.0,127.0,126.0,126.0,126.0,129.0,126.0,130.0,-1.0,105.0,-80.0,127.0,127.0,127.0,-115.0,-85.0,107.0
127.0,127.0,126.0,126.0,126.0,129.0,125.0,131.0,-1.0,105.0,-80.0,127.0,127.0,127.0,-115.0,-85.0,107.0
127.0,127.0,126.0,126.0,126.0,129.0,126.0,131.0,-1.0,105.0,-80.0,127.0,127.0,127.0,-115.0,-85.0,107.0
127.0,127.0,127.0,126.0,126.0,129.0,125.0,130.0,-1.0,105.0,-80.0,127.0,127.0,127.0,-115.0,-85.0,107.0
127.0,127.0,127.0,126.0,126.0,129.0,125.0,130.0,-1.0,105.0,-80.0,127.0,127.0,127.0,-115.0,-85.0,107.0
127.0,127.0,127.0,126.0,126.0,129.0,125.0,130.0,-1.0,105.0,-80.0,127.0,127.0,127.0,-115.0,-85.0,107.0
127.0,127.0,127.0,126.0,126.0,129.0,125.0,130.0,-1.0,105.0,-80.0,127.0,127.0,127.0,-115.0,-85.0,107.0
127.0,127.0,127.0,126.0,127.0,129.0,125.0,130.0,-1.0,105.0,-80.0,127.0,127.0,127.0,-115.0,-85.0,107.0
127.0,127.0,127.0,126.0,127.0,129.0,125.0,130.0,-1.0,105.0,-80.0,127.0,127.0,127.0,-115.0,-85.0,107.0
126.0,127.0,127.0,126.0,126.0,129.0,125.0,130.0,-1.0,105.0,-80.0,127.0,127.0,127.0,-115.0,-85.0,107.0
127.0,127.0,127.0,126.0,126.0,129.0,125.0,131.0,-1.0,105.0,-80.0,127.0,127.0,127.0,-115.0,-85.0,107.0
127.0,127.0,127.0,127.0,126.0,129.0,125.0,131.0,-1.0,105.0,-80.0,127.0,127.0,127.0,-115.0,-85.0,107.0
126.0,127.0,127.0,126.0,127.0,128.0,126.0,130.0,-1.0,105.0,-80.0,127.0,127.0,127.0,-115.0,-85.0,107.0
127.0,127.0,127.0,127.0,126.0,129.0,125.0,130.0,-1.0,105.0,-80.0,127.0,127.0,127.0,-115.0,-85.0,107.0
127.0,127.0,127.0,127.0,126.0,129.0,125.0,130.0,-1.0,105.0,-80.0,127.0,127.0,127.0,-115.0,-85.0,107.0
127.0,127.0,127.0,127.0,126.0,129.0,125.0,130.0,-1.0,105.0,-80.0,127.0,127.0,127.0,-115.0,-85.0,107.0
127.0,127.0,127.0,127.0,126.0,129.0,125.0,130.0,-1.0,105.0,-80.0,127.0,127.0,127.0,-115.0,-85.0,107.0
127.0,127.0,127.0,127.0,126.0,129.0,125.0,130.0,-1.0,105.0,-80.0,127.0,127.0,127.0,-115.0,-85.0,107.0
127.0,127.0,127.0,127.0,126.0,129.0,125.0,130.0,-1.0,105.0,-80.0,127.0,127.0,127.0,-115.0,-85.0,107.0
127.0,127.0,127.0,127.0,126.0,129.0,125.0,131.0,-1.0,105.0,-80.0,127.0,127.0,127.0,-115.0,-85.0,107.0
127.0,127.0,127.0,127.0,126.0,129.0,125.0,131.0,-1.0,105.0,-80.0,127.0,127.0,127.0,-115.0,-85.0,107.0
127.0,127.0,127.0,127.0,126.0,129.0,125.0,131.0,-1.0,105.0,-80.0,127.0,127.0,127.0,-115.0,-85.0,107.0
126.0,127.0,127.0,127.0,126.0,129.0,125.0,130.0,-1.0,105.0,-80.0,127.0,127.0,127.0,-115.0,-85.0,107.0
127.0,127.0,127.0,127.0,127.0,129.0,125.0,130.0,-1.0,105.0,-80.0,127.0,127.0,127.0,-115.0,-85.0,107.0
127.0,127.0,127.0,127.0,127.0,129.0,125.0,130.0,-1.0,105.0,-80.0,127.0,127.0,127.0,-115.0,-85.0,107.0
127.0,127.0,127.0,127.0,127.0,129.0,125.0,130.0,-1.0,105.0,-80.0,127.0,127.0,127.0,-115.0,-85.0,107.0
127.0,127.0,127.0,127.0,127.0,129.0,125.0,130.0,-1.0,105.0,-80.0,127.0,127.0,127.0,-115.0,-85.0,107.0
127.0,127.0,127.0,127.0,127.0,129.0,125.0,130.0,-1.0,105.0,-80.0,127.0,127.0,127.0,-115.0,-85.0,107.0
127.0,127.0,127.0,127.0,126.0,129.0,125.0,131.0,-1.0,105.0,-80.0,127.0,127.0,127.0,-115.0,-85.0,107.0
127.0,127.0,127.0,127.0,126.0,130.0,125.0,131.0,-1.0,105.0,-80.0,127.0,127.0,127.0,-115.0,-85.0,107.0
127.0,127.0,127.0,127.0,127.0,129.0,126.0,130.0,-1.0,105.0,-80.0,127.0,127.0,127.0,-115.0,-85.0,107.0
127.0,127.0,127.0,127.0,127.0,129.0,125.0,130.0,-1.0,105.0,-80.0,127.0,127.0,127.0,-115.0,-85.0,107.0
127.0,127.0,127.0,127.0,127.0,129.0,125.0,130.0,-1.0,105.0,-80.0,127.0,127.0,127.0,-115.0,-85.0,107.0
127.0,127.0,127.0,127.0,126.0,129.0,125.0,131.0,-1.0,106.0,-80.0,127.0,127.0,127.0,-115.0,-85.0,107.0
127.0,127.0,127.0,127.0,126.0,129.0,125.0,131.0,-1.0,106.0,-80.0,127.0,127.0,127.0,-115.0,-85.0,107.0
127.0,127.0,127.0,127.0,126.0,129.0,125.0,131.0,-1.0,106.0,-80.0,127.0,127.0,127.0,-115.0,-85.0,107.0
127.0,127.0,127.0,127.0,126.0,129.0,125.0,131.0,-1.0,106.0,-80.0,127.0,127.0,127.0,-115.0,-85.0,107.0
127.0,127.0,127.0,127.0,126.0,129.0,125.0,131.0,-1.0,106.0,-80.0,127.0,127.0,127.0,-115.0,-85.0,107.0
127.0,127.0,127.0,127.0,126.0,129.0,125.0,131.0,-1.0,106.0,-80.0,127.0,127.0,127.0,-115.0,-85.0,107.0
127.0,127.0,127.0,127.0,127.0,128.0,126.0,130.0,-1.0,106.0,-80.0,127.0,127.0,127.0,-115.0,-85.0,107.0
127.0,127.0,127.0,127.0,126.0,129.0,126.0,131.0,-1.0,106.0,-80.0,127.0,127.0,127.0,-115.0,-85.0,107.0
127.0,127.0,127.0,127.0,126.0,129.0,125.0,131.0,-1.0,106.0,-80.0,127.0,127.0,127.0,-115.0,-85.0,107.0
127.0,127.0,127.0,127.0,126.0,129.0,125.0,131.0,-1.0,106.0,-80.0,127.0,127.0,127.0,-115.0,-85.0,107.0
127.0,127.0,127.0,127.0,127.0,129.0,125.0,131.0,-1.0,106.0,-81.0,127.0,127.0,127.0,-115.0,-85.0,107.0
127.0,127.0,127.0,127.0,127.0,129.0,125.0,131.0,-1.0,106.0,-81.0,127.0,127.0,127.0,-115.0,-85.0,107.0
127.0,127.0,127.0,127.0,127.0,129.0,125.0,131.0,-1.0,106.0,-81.0,127.0,127.0,127.0,-115.0,-85.0,107.0
127.0,127.0,127.0,127.0,126.0,129.0,125.0,131.0,-1.0,106.0,-81.0,127.0,127.0,127.0,-115.0,-85.0,107.0
127.0,127.0,127.0,127.0,126.0,129.0,125.0,131.0,-1.0,106.0,-81.0,127.0,127.0,127.0,-115.0,-85.0,107.0
126.0,127.0,127.0,127.0,127.0,128.0,126.0,130.0,-1.0,106.0,-81.0,127.0,127.0,127.0,-115.0,-85.0,107.0
126.0,127.0,127.0,127.0,127.0,128.0,126.0,130.0,-1.0,106.0,-81.0,127.0,127.0,127.0,-115.0,-85.0,107.0
127.0,127.0,127.0,127.0,126.0,129.0,125.0,131.0,-1.0,106.0,-81.0,127.0,127.0,127.0,-115.0,-85.0,107.0
127.0,127.0,127.0,127.0,127.0,129.0,125.0,131.0,-1.0,106.0,-81.0,127.0,127.0,127.0,-115.0,-85.0,107.0
127.0,127.0,127.0,127.0,127.0,129.0,125.0,131.0,-1.0,106.0,-81.0,127.0,127.0,127.0,-115.0,-85.0,107.0
127.0,127.0,127.0,127.0,127.0,128.0,126.0,131.0,-1.0,106.0,-81.0,127.0,127.0,127.0,-115.0,-85.0,107.0
127.0,127.0,127.0,127.0,127.0,128.0,126.0,131.0,-1.0,106.0,-81.0,127.0,127.0,127.0,-115.0,-85.0,107.0
127.0,127.0,127.0,127.0,127.0,128.0,126.0,131.0,-1.0,106.0,-81.0,127.0,127.0,127.0,-115.0,-85.0,107.0
127.0,127.0,127.0,127.0,127.0,128.0,126.0,131.0,-1.0,106.0,-81.0,127.0,127.0,127.0,-115.0,-85.0,107.0
127.0,127.0,127.0,127.0,127.0,128.0,126.0,131.0,-1.0,106.0,-81.0,127.0,127.0,127.0,-115.0,-85.0,107.0
127.0,127.0,127.0,127.0,127.0,128.0,126.0,131.0,-1.0,106.0,-81.0,127.0,127.0,127.0,-115.0,-85.0,107.0
127.0,127.0,127.0,127.0,127.0,128.0,126.0,131.0,-1.0,106.0,-81.0,127.0,127.0,127.0,-115.0,-85.0,107.0
127.0,127.0,127.0,127.0,127.0,128.0,126.0,131.0,-1.0,106.0,-81.0,127.0,127.0,127.0,-115.0,-85.0,107.0
127.0,127.0,127.0,127.0,127.0,128.0,126.0,131.0,-1.0,106.0,-81.0,127.0,127.0,127.0,-115.0,-85.0,107.0
127.0,127.0,127.0,127.0,127.0,128.0,126.0,131.0,-1.0,106.0,-81.0,127.0,127.0,127.0,-115.0,-85.0,107.0
127.0,127.0,127.0,127.0,127.0,129.0,125.0,131.0,-1.0,106.0,-81.0,127.0,127.0,127.0,-115.0,-85.0,107.0
127.0,127.0,127.0,127.0,127.0,129.0,125.0,131.0,-1.0,106.0,-81.0,127.0,127.0,127.0,-115.0,-85.0,107.0
127.0,127.0,127.0,127.0,127.0,129.0,125.0,131.0,-1.0,106.0,-81.0,127.0,127.0,127.0,-115.0,-85.0,107.0
127.0,127.0,127.0,127.0,126.0,129.0,125.0,131.0,-1.0,106.0,-81.0,127.0,127.0,127.0,-115.0,-85.0,107.0
127.0,127.0,127.0,127.0,127.0,129.0,125.0,131.0,-1.0,106.0,-81.0,127.0,127.0,127.0,-115.0,-85.0,107.0
127.0,127.0,127.0,127.0,127.0,129.0,125.0,131.0,-1.0,106.0,-81.0,127.0,127.0,127.0,-115.0,-85.0,107.0
127.0,127.0,127.0,127.0,127.0,129.0,125.0,131.0,-1.0,106.0,-81.0,127.0,127.0,127.0,-115.0,-85.0,107.0
127.0,127.0,127.0,127.0,127.0,129.0,125.0,131.0,-1.0,106.0,-81.0,127.0,127.0,127.0,-115.0,-85.0,107.0
127.0,127.0,127.0,127.0,126.0,129.0,125.0,131.0,-1.0,106.0,-81.0,127.0,127.0,127.0,-115.0,-85.0,107.0
127.0,127.0,127.0,127.0,126.0,130.0,125.0,131.0,-1.0,106.0,-81.0,127.0,127.0,127.0,-115.0,-85.0,107.0
127.0,127.0,127.0,127.0,126.0,129.0,125.0,131.0,-1.0,105.0,-81.0,127.0,127.0,127.0,-115.0,-85.0,107.0
127.0,127.0,127.0,127.0,126.0,129.0,125.0,131.0,-1.0,105.0,-81.0,127.0,127.0,127.0,-115.0,-85.0,107.0
127.0,127.0,127.0,127.0,126.0,129.0,125.0,131.0,-1.0,105.0,-81.0,127.0,127.0,127.0,-115.0,-85.0,107.0
127.0,127.0,127.0,127.0,126.0,129.0,126.0,131.0,-1.0,105.0,-81.0,127.0,127.0,127.0,-115.0,-85.0,107.0
127.0,127.0,127.0,127.0,126.0,129.0,126.0,131.0,-1.0,105.0,-81.0,127.0,127.0,127.0,-115.0,-85.0,107.0
127.0,127.0,127.0,127.0,126.0,129.0,126.0,131.0,-1.0,105.0,-81.0,127.0,127.0,127.0,-115.0,-85.0,107.0
127.0,127.0,127.0,127.0,126.0,129.0,126.0,131.0,-1.0,105.0,-81.0,127.0,127.0,127.0,-115.0,-85.0,107.0
127.0,127.0,127.0,127.0,126.0,129.0,125.0,131.0,-1.0,105.0,-81.0,127.0,127.0,127.0,-115.0,-85.0,107.0
127.0,127.0,127.0,127.0,126.0,130.0,125.0,131.0,-1.0,105.0,-81.0,127.0,127.0,127.0,-115.0,-85.0,107.0
127.0,127.0,127.0,127.0,126.0,130.0,125.0,131.0,-1.0,105.0,-81.0,127.0,127.0,127.0,-115.0,-85.0,107.0
127.0,127.0,127.0,127.0,126.0,130.0,125.0,131.0,-1.0,105.0,-81.0,127.0,127.0,127.0,-115.0,-85.0,107.0
127.0,127.0,127.0,127.0,126.0,129.0,125.0,131.0,-1.0,105.0,-81.0,127.0,127.0,127.0,-115.0,-85.0,107.0
127.0,127.0,127.0,127.0,126.0,129.0,125.0,131.0,-1.0,105.0,-81.0,127.0,127.0,127.0,-115.0,-85.0,107.0
127.0,127.0,127.0,127.0,126.0,129.0,125.0,130.0,-1.0,105.0,-81.0,127.0,127.0,127.0,-115.0,-85.0,107.0
127.0,127.0,127.0,127.0,126.0,129.0,125.0,130.0,-1.0,105.0,-81.0,127.0,127.0,127.0,-115.0,-85.0,107.0
127.0,127.0,127.0,127.0,126.0,129.0,125.0,130.0,-1.0,105.0,-81.0,127.0,127.0,127.0,-115.0,-85.0,107.0
127.0,127.0,127.0,127.0,126.0,129.0,125.0,130.0,-1.0,105.0,-81.0,127.0,127.0,127.0,-115.0,-85.0,107.0
127.0,127.0,127.0,127.0,126.0,129.0,125.0,131.0,-1.0,105.0,-81.0,127.0,127.0,127.0,-115.0,-85.0,107.0
127.0,127.0,127.0,127.0,126.0,129.0,125.0,131.0,-1.0,105.0,-81.0,127.0,127.0,127.0,-115.0,-85.0,107.0
127.0,127.0,127.0,127.0,126.0,129.0,125.0,131.0,-1.0,105.0,-81.0,127.0,127.0,127.0,-115.0,-85.0,107.0
127.0,127.0,127.0,127.0,126.0,130.0,125.0,131.0,-1.0,105.0,-81.0,127.0,127.0,127.0,-115.0,-85.0,107.0
127.0,127.0,127.0,127.0,127.0,130.0,125.0,131.0,-1.0,105.0,-81.0,127.0,127.0,127.0,-115.0,-85.0,107.0
127.0,127.0,127.0,127.0,127.0,129.0,125.0,130.0,-1.0,105.0,-81.0,127.0,127.0,127.0,-115.0,-85.0,107.0
127.0,127.0,127.0,127.0,127.0,129.0,125.0,130.0,-1.0,105.0,-81.0,127.0,127.0,127.0,-115.0,-85.0,107.0
127.0,127.0,127.0,127.0,127.0,130.0,125.0,130.0,-1.0,105.0,-81.0,127.0,127.0,127.0,-115.0,-85.0,107.0
127.0,127.0,127.0,127.0,127.0,129.0,126.0,130.0,-1.0,105.0,-81.0,127.0,127.0,127.0,-115.0,-85.0,107.0
127.0,127.0,127.0,127.0,127.0,129.0,126.0,130.0,-1.0,105.0,-81.0,127.0,127.0,127.0,-115.0,-85.0,107.0
127.0,127.0,127.0,127.0,127.0,129.0,126.0,130.0,-1.0,105.0,-81.0,127.0,127.0,127.0,-115.0,-85.0,107.0
127.0,127.0,127.0,127.0,127.0,129.0,126.0,130.0,-1.0,105.0,-81.0,127.0,127.0,127.0,-115.0,-85.0,107.0
127.0,127.0,127.0,127.0,127.0,129.0,126.0,130.0,-1.0,105.0,-81.0,127.0,127.0,127.0,-115.0,-85.0,107.0
127.0,127.0,127.0,127.0,127.0,129.0,125.0,131.0,-1.0,105.0,-81.0,127.0,127.0,127.0,-115.0,-85.0,107.0
127.0,127.0,127.0,127.0,127.0,129.0,125.0,131.0,-1.0,105.0,-81.0,127.0,127.0,127.0,-115.0,-85.0,107.0
127.0,127.0,127.0,127.0,127.0,129.0,125.0,130.0,-1.0,105.0,-81.0,127.0,127.0,127.0,-115.0,-85.0,107.0
127.0,127.0,127.0,127.0,127.0,129.0,125.0,130.0,-1.0,105.0,-81.0,127.0,127.0,127.0,-115.0,-85.0,107.0
127.0,127.0,127.0,127.0,127.0,129.0,125.0,130.0,-1.0,105.0,-81.0,127.0,127.0,127.0,-115.0,-85.0,107.0
127.0,127.0,127.0,127.0,127.0,129.0,125.0,130.0,-1.0,105.0,-81.0,127.0,127.0,127.0,-115.0,-85.0,107.0
127.0,127.0,127.0,127.0,127.0,129.0,126.0,130.0,-1.0,105.0,-81.0,127.0,127.0,127.0,-115.0,-85.0,107.0
127.0,127.0,127.0,127.0,127.0,129.0,126.0,130.0,-1.0,105.0,-81.0,127.0,127.0,127.0,-115.0,-85.0,107.0
127.0,127.0,127.0,127.0,127.0,128.0,126.0,130.0,-1.0,105.0,-81.0,127.0,127.0,127.0,-115.0,-85.0,107.0
127.0,127.0,127.0,127.0,126.0,129.0,125.0,131.0,-1.0,105.0,-81.0,127.0,127.0,127.0,-115.0,-85.0,107.0
127.0,127.0,127.0,127.0,126.0,130.0,125.0,131.0,-1.0,105.0,-81.0,127.0,127.0,127.0,-115.0,-85.0,107.0
127.0,127.0,127.0,127.0,126.0,130.0,125.0,131.0,-1.0,105.0,-81.0,127.0,127.0,127.0,-115.0,-85.0,107.0
127.0,127.0,127.0,127.0,127.0,130.0,125.0,131.0,-1.0,105.0,-81.0,127.0,127.0,127.0,-115.0,-85.0,107.0
127.0,127.0,127.0,127.0,127.0,130.0,125.0,131.0,-1.0,105.0,-81.0,127.0,127.0,127.0,-115.0,-85.0,107.0
127.0,127.0,127.0,127.0,127.0,130.0,125.0,131.0,-1.0,105.0,-81.0,127.0,127.0,127.0,-115.0,-85.0,107.0
127.0,127.0,127.0,127.0,127.0,130.0,125.0,131.0,-1.0,105.0,-81.0,127.0,127.0,127.0,-115.0,-85.0,107.0
127.0,127.0,127.0,127.0,127.0,130.0,125.0,131.0,-1.0,105.0,-81.0,127.0,127.0,127.0,-115.0,-85.0,107.0
127.0,127.0,127.0,127.0,127.0,129.0,126.0,130.0,-1.0,105.0,-81.0,127.0,127.0,127.0,-115.0,-85.0,107.0
127.0,127.0,127.0,127.0,127.0,130.0,125.0,131.0,-1.0,105.0,-81.0,127.0,127.0,127.0,-115.0,-85.0,107.0
127.0,127.0,127.0,127.0,127.0,130.0,125.0,131.0,-1.0,105.0,-81.0,127.0,127.0,127.0,-115.0,-85.0,107.0
127.0,127.0,127.0,126.0,126.0,130.0,125.0,131.0,-1.0,105.0,-80.0,127.0,127.0,127.0,-115.0,-85.0,107.0
127.0,127.0,127.0,126.0,126.0,130.0,125.0,131.0,-1.0,105.0,-80.0,127.0,127.0,127.0,-115.0,-85.0,107.0
127.0,127.0,127.0,126.0,126.0,130.0,126.0,131.0,-1.0,105.0,-80.0,127.0,127.0,127.0,-115.0,-85.0,107.0
127.0,127.0,127.0,126.0,126.0,130.0,126.0,131.0,-1.0,105.0,-80.0,127.0,127.0,127.0,-115.0,-85.0,107.0
127.0,127.0,127.0,126.0,126.0,129.0,126.0,131.0,-1.0,105.0,-80.0,127.0,127.0,127.0,-115.0,-85.0,107.0
127.0,127.0,127.0,126.0,126.0,129.0,126.0,131.0,-1.0,105.0,-80.0,127.0,127.0,127.0,-115.0,-85.0,107.0
127.0,127.0,127.0,126.0,126.0,129.0,126.0,131.0,-1.0,105.0,-80.0,127.0,127.0,127.0,-115.0,-85.0,107.0
126.0,127.0,127.0,126.0,127.0,129.0,126.0,130.0,-1.0,105.0,-80.0,127.0,127.0,127.0,-115.0,-85.0,107.0
126.0,127.0,127.0,126.0,127.0,129.0,126.0,130.0,-1.0,105.0,-80.0,127.0,127.0,127.0,-115.0,-85.0,107.0
127.0,127.0,127.0,126.0,127.0,129.0,126.0,130.0,-1.0,105.0,-80.0,127.0,127.0,127.0,-115.0,-85.0,107.0
127.0,127.0,128.0,126.0,127.0,128.0,130.0,127.0,-1.0,105.0,-80.0,127.0,127.0,127.0,-115.0,-85.0,107.0
127.0,127.0,128.0,126.0,127.0,128.0,130.0,127.0,-1.0,105.0,-80.0,127.0,127.0,127.0,-115.0,-85.0,107.0
127.0,127.0,127.0,126.0,127.0,129.0,129.0,127.0,-1.0,105.0,-80.0,127.0,127.0,127.0,-115.0,-85.0,107.0
127.0,127.0,127.0,126.0,127.0,129.0,129.0,126.0,-1.0,105.0,-80.0,127.0,127.0,127.0,-115.0,-85.0,107.0
127.0,127.0,127.0,126.0,127.0,128.0,129.0,126.0,-1.0,105.0,-80.0,127.0,127.0,127.0,-115.0,-85.0,107.0
127.0,127.0,128.0,126.0,127.0,130.0,131.0,129.0,-1.0,105.0,-80.0,127.0,127.0,127.0,-115.0,-85.0,107.0
127.0,127.0,128.0,126.0,127.0,129.0,131.0,128.0,-1.0,105.0,-80.0,127.0,127.0,127.0,-115.0,-85.0,107.0
127.0,127.0,128.0,126.0,127.0,129.0,131.0,128.0,-1.0,105.0,-80.0,127.0,127.0,127.0,-115.0,-85.0,107.0
127.0,127.0,128.0,126.0,127.0,129.0,131.0,128.0,-1.0,105.0,-80.0,127.0,127.0,127.0,-115.0,-85.0,107.0
127.0,127.0,128.0,126.0,127.0,129.0,130.0,127.0,-1.0,105.0,-80.0,127.0,127.0,127.0,-115.0,-85.0,107.0
128.0,128.0,129.0,127.0,129.0,126.0,144.0,121.0,-1.0,105.0,-80.0,127.0,127.0,127.0,-115.0,-85.0,107.0
128.0,128.0,129.0,127.0,129.0,126.0,145.0,121.0,-1.0,105.0,-80.0,127.0,127.0,127.0,-115.0,-85.0,107.0
128.0,128.0,129.0,127.0,129.0,127.0,146.0,122.0,-1.0,105.0,-80.0,127.0,127.0,127.0,-115.0,-85.0,107.0
128.0,128.0,129.0,127.0,128.0,128.0,148.0,123.0,-1.0,105.0,-80.0,127.0,127.0,127.0,-115.0,-85.0,107.0
127.0,127.0,128.0,127.0,127.0,125.0,140.0,120.0,-1.0,105.0,-80.0,127.0,127.0,127.0,-115.0,-85.0,107.0
127.0,127.0,128.0,127.0,127.0,125.0,140.0,120.0,-1.0,105.0,-80.0,127.0,127.0,127.0,-115.0,-85.0,107.0
127.0,127.0,129.0,127.0,127.0,125.0,141.0,120.0,-1.0,105.0,-80.0,127.0,127.0,127.0,-115.0,-85.0,107.0
127.0,127.0,129.0,127.0,128.0,124.0,141.0,120.0,-1.0,105.0,-80.0,127.0,127.0,127.0,-115.0,-85.0,107.0
127.0,128.0,129.0,128.0,128.0,125.0,142.0,120.0,-1.0,105.0,-80.0,127.0,127.0,127.0,-115.0,-85.0,107.0
127.0,128.0,129.0,128.0,129.0,125.0,143.0,120.0,-1.0,105.0,-80.0,127.0,127.0,127.0,-115.0,-85.0,107.0
129.0,129.0,127.0,125.0,125.0,108.0,237.0,125.0,-1.0,105.0,-80.0,127.0,127.0,127.0,-115.0,-85.0,107.0
128.0,129.0,128.0,125.0,124.0,107.0,244.0,124.0,-1.0,105.0,-80.0,127.0,127.0,127.0,-115.0,-85.0,107.0
128.0,129.0,128.0,126.0,125.0,107.0,252.0,124.0,-1.0,105.0,-80.0,127.0,127.0,127.0,-115.0,-85.0,107.0
130.0,129.0,127.0,125.0,126.0,113.0,202.0,127.0,-1.0,105.0,-80.0,127.0,127.0,127.0,-115.0,-85.0,107.0
130.0,129.0,127.0,125.0,125.0,113.0,205.0,127.0,-1.0,105.0,-80.0,127.0,127.0,127.0,-115.0,-85.0,107.0
130.0,129.0,127.0,124.0,125.0,112.0,209.0,127.0,-1.0,105.0,-80.0,127.0,127.0,127.0,-115.0,-85.0,107.0
130.0,129.0,127.0,124.0,125.0,112.0,214.0,127.0,-1.0,105.0,-80.0,127.0,127.0,127.0,-115.0,-85.0,107.0
129.0,129.0,127.0,124.0,125.0,112.0,219.0,127.0,-1.0,105.0,-80.0,127.0,127.0,127.0,-115.0,-85.0,107.0
129.0,129.0,127.0,125.0,125.0,111.0,225.0,126.0,-1.0,105.0,-80.0,127.0,127.0,127.0,-115.0,-85.0,107.0
129.0,129.0,127.0,125.0,125.0,110.0,231.0,125.0,-1.0,105.0,-80.0,127.0,127.0,127.0,-115.0,-85.0,107.0
131.0,129.0,131.0,143.0,128.0,110.0,254.0,126.0,-1.0,105.0,-80.0,127.0,127.0,127.0,-115.0,-85.0,107.0
131.0,129.0,131.0,143.0,128.0,110.0,254.0,125.0,-1.0,105.0,-80.0,127.0,127.0,127.0,-115.0,-85.0,107.0
131.0,129.0,131.0,140.0,129.0,110.0,254.0,125.0,-1.0,105.0,-80.0,127.0,127.0,127.0,-115.0,-85.0,107.0
131.0,130.0,131.0,141.0,129.0,111.0,254.0,125.0,-1.0,105.0,-80.0,127.0,127.0,127.0,-115.0,-85.0,107.0
131.0,130.0,131.0,141.0,129.0,111.0,254.0,125.0,-1.0,105.0,-80.0,127.0,127.0,127.0,-115.0,-85.0,107.0
131.0,129.0,131.0,141.0,129.0,110.0,254.0,125.0,-1.0,105.0,-80.0,127.0,127.0,127.0,-115.0,-85.0,107.0
131.0,129.0,131.0,142.0,129.0,110.0,254.0,125.0,-1.0,105.0,-80.0,127.0,127.0,127.0,-115.0,-85.0,107.0
131.0,129.0,131.0,142.0,129.0,111.0,254.0,125.0,-1.0,105.0,-80.0,127.0,127.0,127.0,-115.0,-85.0,107.0
131.0,129.0,131.0,142.0,129.0,111.0,254.0,126.0,-1.0,105.0,-80.0,127.0,127.0,127.0,-115.0,-85.0,107.0
131.0,129.0,131.0,143.0,129.0,110.0,254.0,126.0,-1.0,105.0,-80.0,127.0,127.0,127.0,-115.0,-85.0,107.0
132.0,123.0,136.0,163.0,116.0,95.0,254.0,143.0,-1.0,103.0,-81.0,127.0,127.0,-128.0,-115.0,-85.0,107.0
131.0,124.0,135.0,160.0,118.0,99.0,254.0,142.0,-1.0,103.0,-81.0,127.0,127.0,-128.0,-115.0,-85.0,107.0
131.0,124.0,135.0,160.0,117.0,99.0,254.0,143.0,-1.0,103.0,-81.0,127.0,127.0,-128.0,-115.0,-85.0,107.0
132.0,124.0,135.0,161.0,117.0,99.0,254.0,144.0,-1.0,103.0,-81.0,127.0,127.0,-128.0,-115.0,-85.0,107.0
132.0,124.0,135.0,161.0,117.0,99.0,254.0,144.0,-1.0,103.0,-81.0,127.0,127.0,-128.0,-115.0,-85.0,107.0
132.0,124.0,136.0,162.0,116.0,98.0,254.0,144.0,-1.0,103.0,-81.0,127.0,127.0,-128.0,-115.0,-85.0,107.0
132.0,124.0,136.0,162.0,116.0,98.0,254.0,144.0,-1.0,103.0,-81.0,127.0,127.0,-128.0,-115.0,-85.0,107.0
132.0,124.0,136.0,163.0,116.0,97.0,254.0,144.0,-1.0,103.0,-81.0,127.0,127.0,-128.0,-115.0,-85.0,107.0
132.0,124.0,136.0,163.0,116.0,96.0,254.0,143.0,-1.0,103.0,-81.0,127.0,127.0,-128.0,-115.0,-85.0,107.0
132.0,123.0,136.0,163.0,116.0,96.0,254.0,143.0,-1.0,103.0,-81.0,127.0,127.0,-128.0,-115.0,-85.0,107.0
136.0,118.0,115.0,134.0,107.0,89.0,254.0,156.0,-1.0,101.0,-83.0,-127.0,127.0,-128.0,-114.0,-85.0,107.0
136.0,117.0,114.0,134.0,106.0,89.0,254.0,156.0,-1.0,101.0,-83.0,-127.0,127.0,-128.0,-114.0,-85.0,107.0
136.0,117.0,114.0,133.0,105.0,89.0,254.0,155.0,-1.0,101.0,-83.0,-127.0,127.0,-128.0,-114.0,-85.0,107.0
136.0,117.0,113.0,133.0,105.0,88.0,254.0,155.0,-1.0,101.0,-83.0,-127.0,127.0,-128.0,-114.0,-85.0,107.0
136.0,117.0,113.0,133.0,105.0,87.0,254.0,154.0,-1.0,101.0,-83.0,-127.0,127.0,-128.0,-114.0,-85.0,107.0
136.0,117.0,112.0,133.0,104.0,87.0,254.0,153.0,-1.0,101.0,-83.0,-127.0,127.0,-128.0,-114.0,-85.0,107.0
136.0,116.0,112.0,132.0,104.0,86.0,254.0,152.0,-1.0,101.0,-83.0,-127.0,127.0,-128.0,-114.0,-85.0,107.0
136.0,116.0,111.0,132.0,103.0,86.0,254.0,151.0,-1.0,101.0,-83.0,-127.0,127.0,-128.0,-114.0,-85.0,107.0
136.0,116.0,111.0,133.0,103.0,86.0,254.0,151.0,-1.0,101.0,-83.0,-127.0,127.0,-128.0,-114.0,-85.0,107.0
137.0,116.0,110.0,133.0,103.0,86.0,254.0,151.0,-1.0,101.0,-83.0,-127.0,127.0,-128.0,-114.0,-85.0,107.0
137.0,106.0,124.0,166.0,82.0,87.0,254.0,159.0,-1.0,100.0,-87.0,-125.0,127.0,-128.0,-113.0,-85.0,107.0
137.0,106.0,124.0,166.0,81.0,87.0,254.0,160.0,-1.0,100.0,-87.0,-125.0,127.0,-128.0,-113.0,-85.0,107.0
136.0,106.0,124.0,165.0,80.0,87.0,254.0,160.0,-1.0,100.0,-87.0,-125.0,127.0,-128.0,-113.0,-85.0,107.0
136.0,106.0,125.0,165.0,79.0,86.0,254.0,161.0,-1.0,100.0,-87.0,-125.0,127.0,-128.0,-113.0,-85.0,107.0
135.0,105.0,125.0,165.0,77.0,84.0,254.0,161.0,-1.0,100.0,-87.0,-125.0,127.0,-128.0,-113.0,-85.0,107.0
135.0,105.0,125.0,165.0,76.0,83.0,254.0,161.0,-1.0,100.0,-87.0,-125.0,127.0,-128.0,-113.0,-85.0,107.0
135.0,105.0,126.0,164.0,75.0,82.0,254.0,160.0,-1.0,100.0,-87.0,-125.0,127.0,-128.0,-113.0,-85.0,107.0
134.0,105.0,126.0,163.0,74.0,81.0,254.0,160.0,-1.0,100.0,-87.0,-125.0,127.0,-128.0,-113.0,-85.0,107.0
134.0,105.0,127.0,163.0,74.0,80.0,254.0,160.0,-1.0,100.0,-87.0,-125.0,127.0,-128.0,-113.0,-85.0,107.0
137.0,107.0,124.0,165.0,83.0,88.0,254.0,159.0,-1.0,100.0,-87.0,-125.0,127.0,-128.0,-113.0,-85.0,107.0
135.0,122.0,154.0,92.0,32.0,10.0,254.0,172.0,-1.0,102.0,-85.0,-124.0,127.0,-128.0,-113.0,-85.0,107.0
135.0,123.0,154.0,95.0,32.0,8.0,254.0,173.0,-1.0,102.0,-85.0,-124.0,127.0,-128.0,-113.0,-85.0,107.0
135.0,123.0,154.0,97.0,32.0,7.0,254.0,174.0,-1.0,102.0,-85.0,-124.0,127.0,-128.0,-113.0,-85.0,107.0
136.0,124.0,154.0,99.0,33.0,5.0,254.0,174.0,-1.0,102.0,-85.0,-124.0,127.0,-128.0,-113.0,-85.0,107.0
136.0,124.0,155.0,101.0,33.0,4.0,254.0,175.0,-1.0,102.0,-85.0,-124.0,127.0,-128.0,-113.0,-85.0,107.0
136.0,124.0,155.0,103.0,33.0,3.0,254.0,177.0,-1.0,102.0,-85.0,-124.0,127.0,-128.0,-113.0,-85.0,107.0
136.0,125.0,155.0,105.0,34.0,3.0,254.0,178.0,-1.0,102.0,-85.0,-124.0,127.0,-128.0,-113.0,-85.0,107.0
137.0,126.0,155.0,107.0,34.0,2.0,254.0,179.0,-1.0,102.0,-85.0,-124.0,127.0,-128.0,-113.0,-85.0,107.0
135.0,121.0,153.0,89.0,33.0,13.0,254.0,171.0,-1.0,102.0,-85.0,-124.0,127.0,-128.0,-113.0,-85.0,107.0
135.0,122.0,153.0,91.0,33.0,11.0,254.0,171.0,-1.0,102.0,-85.0,-124.0,127.0,-128.0,-113.0,-85.0,107.0
138.0,127.0,128.0,143.0,133.0,40.0,128.0,201.0,-1.0,102.0,-76.0,-123.0,127.0,127.0,-113.0,-85.0,107.0
138.0,127.0,127.0,142.0,137.0,42.0,124.0,201.0,-1.0,102.0,-76.0,-123.0,127.0,127.0,-113.0,-85.0,107.0
138.0,127.0,125.0,141.0,140.0,43.0,121.0,201.0,-1.0,102.0,-76.0,-123.0,127.0,127.0,-113.0,-85.0,107.0
138.0,126.0,124.0,139.0,143.0,45.0,118.0,200.0,-1.0,102.0,-76.0,-123.0,127.0,127.0,-113.0,-85.0,107.0
138.0,126.0,122.0,138.0,146.0,46.0,115.0,200.0,-1.0,102.0,-76.0,-123.0,127.0,127.0,-113.0,-85.0,107.0
137.0,125.0,121.0,137.0,149.0,48.0,112.0,200.0,-1.0,102.0,-76.0,-123.0,127.0,127.0,-113.0,-85.0,107.0
137.0,125.0,120.0,136.0,152.0,49.0,110.0,199.0,-1.0,102.0,-76.0,-123.0,127.0,127.0,-113.0,-85.0,107.0
138.0,128.0,131.0,145.0,123.0,34.0,137.0,200.0,-1.0,102.0,-76.0,-123.0,127.0,127.0,-113.0,-85.0,107.0
138.0,127.0,130.0,145.0,127.0,36.0,134.0,200.0,-1.0,102.0,-76.0,-123.0,127.0,127.0,-113.0,-85.0,107.0
138.0,127.0,129.0,144.0,130.0,38.0,131.0,200.0,-1.0,102.0,-76.0,-123.0,127.0,127.0,-113.0,-85.0,107.0
132.0,121.0,79.0,120.0,207.0,124.0,46.0,190.0,-1.0,100.0,-68.0,-123.0,127.0,127.0,-113.0,-85.0,107.0
132.0,121.0,78.0,120.0,206.0,125.0,45.0,190.0,-1.0,100.0,-68.0,-123.0,127.0,127.0,-113.0,-85.0,107.0
132.0,121.0,78.0,120.0,206.0,126.0,44.0,189.0,-1.0,100.0,-68.0,-123.0,127.0,127.0,-113.0,-85.0,107.0
132.0,122.0,78.0,120.0,205.0,126.0,44.0,188.0,-1.0,100.0,-68.0,-123.0,127.0,127.0,-113.0,-85.0,107.0
131.0,121.0,77.0,120.0,205.0,127.0,44.0,188.0,-1.0,100.0,-68.0,-123.0,127.0,127.0,-113.0,-85.0,107.0
131.0,122.0,77.0,120.0,204.0,127.0,43.0,187.0,-1.0,100.0,-68.0,-123.0,127.0,127.0,-113.0,-85.0,107.0
132.0,121.0,81.0,119.0,208.0,120.0,48.0,191.0,-1.0,100.0,-68.0,-123.0,127.0,127.0,-113.0,-85.0,107.0
132.0,121.0,80.0,119.0,208.0,121.0,48.0,190.0,-1.0,100.0,-68.0,-123.0,127.0,127.0,-113.0,-85.0,107.0
132.0,121.0,80.0,120.0,207.0,123.0,47.0,190.0,-1.0,100.0,-68.0,-123.0,127.0,127.0,-113.0,-85.0,107.0
132.0,121.0,79.0,120.0,207.0,124.0,46.0,190.0,-1.0,100.0,-68.0,-123.0,127.0,127.0,-113.0,-85.0,107.0
129.0,120.0,95.0,125.0,171.0,129.0,34.0,172.0,-1.0,105.0,-69.0,-125.0,127.0,127.0,-113.0,-85.0,107.0
129.0,121.0,97.0,126.0,171.0,129.0,34.0,172.0,-1.0,105.0,-69.0,-125.0,127.0,127.0,-113.0,-85.0,107.0
129.0,121.0,98.0,127.0,170.0,129.0,34.0,173.0,-1.0,105.0,-69.0,-125.0,127.0,127.0,-113.0,-85.0,107.0
129.0,121.0,99.0,127.0,170.0,130.0,34.0,173.0,-1.0,105.0,-69.0,-125.0,127.0,127.0,-113.0,-85.0,107.0
129.0,121.0,100.0,128.0,169.0,130.0,34.0,175.0,-1.0,105.0,-69.0,-125.0,127.0,127.0,-113.0,-85.0,107.0
129.0,120.0,90.0,121.0,173.0,128.0,33.0,170.0,-1.0,105.0,-69.0,-125.0,127.0,127.0,-113.0,-85.0,107.0
129.0,120.0,91.0,122.0,173.0,128.0,34.0,170.0,-1.0,105.0,-69.0,-125.0,127.0,127.0,-113.0,-85.0,107.0
129.0,120.0,92.0,123.0,172.0,128.0,34.0,170.0,-1.0,105.0,-69.0,-125.0,127.0,127.0,-113.0,-85.0,107.0
129.0,120.0,94.0,123.0,172.0,128.0,34.0,171.0,-1.0,105.0,-69.0,-125.0,127.0,127.0,-113.0,-85.0,107.0
129.0,120.0,95.0,124.0,172.0,128.0,34.0,171.0,-1.0,105.0,-69.0,-125.0,127.0,127.0,-113.0,-85.0,107.0
128.0,120.0,139.0,153.0,149.0,132.0,59.0,210.0,-1.0,109.0,-77.0,-128.0,127.0,127.0,-114.0,-85.0,107.0
128.0,120.0,139.0,153.0,149.0,133.0,60.0,211.0,-1.0,109.0,-77.0,-128.0,127.0,127.0,-114.0,-85.0,107.0
128.0,120.0,139.0,153.0,149.0,133.0,60.0,211.0,-1.0,109.0,-77.0,-128.0,127.0,127.0,-114.0,-85.0,107.0
129.0,120.0,139.0,154.0,148.0,133.0,60.0,212.0,-1.0,109.0,-77.0,-128.0,127.0,127.0,-114.0,-85.0,107.0
128.0,120.0,137.0,152.0,152.0,131.0,58.0,207.0,-1.0,109.0,-77.0,-128.0,127.0,127.0,-114.0,-85.0,107.0
128.0,120.0,137.0,153.0,151.0,131.0,58.0,207.0,-1.0,109.0,-77.0,-128.0,127.0,127.0,-114.0,-85.0,107.0
128.0,120.0,138.0,153.0,151.0,132.0,58.0,208.0,-1.0,109.0,-77.0,-128.0,127.0,127.0,-114.0,-85.0,107.0
128.0,120.0,138.0,153.0,150.0,132.0,58.0,209.0,-1.0,109.0,-77.0,-128.0,127.0,127.0,-114.0,-85.0,107.0
128.0,120.0,138.0,153.0,150.0,132.0,58.0,209.0,-1.0,109.0,-77.0,-128.0,127.0,127.0,-114.0,-85.0,107.0
128.0,120.0,139.0,153.0,150.0,132.0,59.0,210.0,-1.0,109.0,-77.0,-128.0,127.0,127.0,-114.0,-85.0,107.0
129.0,123.0,128.0,155.0,137.0,127.0,78.0,217.0,-1.0,106.0,-83.0,-127.0,127.0,127.0,-114.0,-85.0,107.0
129.0,123.0,128.0,155.0,137.0,126.0,79.0,217.0,-1.0,106.0,-83.0,-127.0,127.0,127.0,-114.0,-85.0,107.0
129.0,124.0,127.0,155.0,137.0,126.0,80.0,217.0,-1.0,106.0,-83.0,-127.0,127.0,127.0,-114.0,-85.0,107.0
129.0,123.0,130.0,155.0,138.0,127.0,75.0,218.0,-1.0,106.0,-83.0,-127.0,127.0,127.0,-114.0,-85.0,107.0
129.0,123.0,130.0,155.0,138.0,127.0,76.0,218.0,-1.0,106.0,-83.0,-127.0,127.0,127.0,-114.0,-85.0,107.0
129.0,123.0,129.0,156.0,138.0,127.0,76.0,218.0,-1.0,106.0,-83.0,-127.0,127.0,127.0,-114.0,-85.0,107.0
129.0,123.0,129.0,156.0,138.0,127.0,76.0,218.0,-1.0,106.0,-83.0,-127.0,127.0,127.0,-114.0,-85.0,107.0
129.0,123.0,129.0,155.0,138.0,127.0,77.0,218.0,-1.0,106.0,-83.0,-127.0,127.0,127.0,-114.0,-85.0,107.0
129.0,123.0,128.0,155.0,137.0,127.0,77.0,217.0,-1.0,106.0,-83.0,-127.0,127.0,127.0,-114.0,-85.0,107.0
129.0,123.0,128.0,155.0,137.0,127.0,78.0,217.0,-1.0,106.0,-83.0,-127.0,127.0,127.0,-114.0,-85.0,107.0
128.0,126.0,122.0,148.0,131.0,120.0,96.0,211.0,-1.0,106.0,-85.0,-127.0,127.0,127.0,-114.0,-85.0,107.0
128.0,126.0,122.0,148.0,131.0,120.0,97.0,210.0,-1.0,106.0,-85.0,-127.0,127.0,127.0,-114.0,-85.0,107.0
128.0,126.0,121.0,149.0,131.0,121.0,92.0,213.0,-1.0,106.0,-85.0,-127.0,127.0,127.0,-114.0,-85.0,107.0
128.0,126.0,121.0,149.0,131.0,121.0,92.0,213.0,-1.0,106.0,-85.0,-127.0,127.0,127.0,-114.0,-85.0,107.0
128.0,126.0,122.0,149.0,131.0,121.0,93.0,212.0,-1.0,106.0,-85.0,-127.0,127.0,127.0,-114.0,-85.0,107.0
128.0,126.0,122.0,149.0,131.0,121.0,93.0,212.0,-1.0,106.0,-85.0,-127.0,127.0,127.0,-114.0,-85.0,107.0
128.0,126.0,122.0,149.0,131.0,121.0,94.0,212.0,-1.0,106.0,-85.0,-127.0,127.0,127.0,-114.0,-85.0,107.0
128.0,126.0,122.0,149.0,131.0,121.0,94.0,212.0,-1.0,106.0,-85.0,-127.0,127.0,127.0,-114.0,-85.0,107.0
128.0,126.0,122.0,148.0,131.0,121.0,95.0,211.0,-1.0,106.0,-85.0,-127.0,127.0,127.0,-114.0,-85.0,107.0
128.0,126.0,122.0,148.0,131.0,121.0,96.0,211.0,-1.0,106.0,-85.0,-127.0,127.0,127.0,-114.0,-85.0,107.0
128.0,127.0,123.0,141.0,128.0,121.0,106.0,205.0,-1.0,111.0,-86.0,-128.0,127.0,127.0,-114.0,-85.0,107.0
128.0,127.0,123.0,142.0,128.0,121.0,103.0,207.0,-1.0,111.0,-86.0,-128.0,127.0,127.0,-114.0,-85.0,107.0
128.0,127.0,123.0,142.0,128.0,121.0,103.0,207.0,-1.0,111.0,-86.0,-128.0,127.0,127.0,-114.0,-85.0,107.0
128.0,127.0,123.0,142.0,128.0,121.0,104.0,207.0,-1.0,111.0,-86.0,-128.0,127.0,127.0,-114.0,-85.0,107.0
128.0,127.0,123.0,142.0,128.0,121.0,104.0,207.0,-1.0,111.0,-86.0,-128.0,127.0,127.0,-114.0,-85.0,107.0
128.0,127.0,123.0,142.0,128.0,121.0,104.0,206.0,-1.0,111.0,-86.0,-128.0,127.0,127.0,-114.0,-85.0,107.0
128.0,127.0,123.0,142.0,128.0,121.0,104.0,206.0,-1.0,111.0,-86.0,-128.0,127.0,127.0,-114.0,-85.0,107.0
128.0,127.0,123.0,142.0,128.0,121.0,104.0,206.0,-1.0,111.0,-86.0,-128.0,127.0,127.0,-114.0,-85.0,107.0
128.0,127.0,123.0,142.0,128.0,121.0,105.0,206.0,-1.0,111.0,-86.0,-128.0,127.0,127.0,-114.0,-85.0,107.0
128.0,127.0,123.0,141.0,128.0,121.0,105.0,205.0,-1.0,111.0,-86.0,-128.0,127.0,127.0,-114.0,-85.0,107.0
128.0,127.0,125.0,135.0,127.0,123.0,108.0,197.0,-1.0,114.0,-84.0,127.0,127.0,127.0,-115.0,-85.0,107.0
127.0,127.0,126.0,135.0,127.0,123.0,107.0,197.0,-1.0,114.0,-84.0,127.0,127.0,127.0,-115.0,-85.0,107.0
127.0,127.0,126.0,135.0,127.0,123.0,107.0,197.0,-1.0,114.0,-84.0,127.0,127.0,127.0,-115.0,-85.0,107.0
127.0,127.0,126.0,135.0,127.0,123.0,107.0,196.0,-1.0,114.0,-84.0,127.0,127.0,127.0,-115.0,-85.0,107.0
128.0,127.0,126.0,135.0,127.0,123.0,107.0,196.0,-1.0,114.0,-84.0,127.0,127.0,127.0,-115.0,-85.0,107.0
127.0,127.0,126.0,135.0,127.0,123.0,107.0,196.0,-1.0,114.0,-84.0,127.0,127.0,127.0,-115.0,-85.0,107.0
127.0,127.0,126.0,135.0,127.0,123.0,107.0,195.0,-1.0,114.0,-84.0,127.0,127.0,127.0,-115.0,-85.0,107.0
127.0,127.0,126.0,134.0,127.0,123.0,107.0,195.0,-1.0,114.0,-84.0,127.0,127.0,127.0,-115.0,-85.0,107.0
127.0,127.0,126.0,134.0,127.0,122.0,106.0,194.0,-1.0,114.0,-84.0,127.0,127.0,127.0,-115.0,-85.0,107.0
127.0,127.0,126.0,134.0,127.0,122.0,106.0,194.0,-1.0,114.0,-84.0,127.0,127.0,127.0,-115.0,-85.0,107.0
127.0,128.0,128.0,132.0,125.0,121.0,104.0,182.0,-1.0,115.0,-83.0,127.0,127.0,127.0,-115.0,-85.0,107.0
127.0,128.0,128.0,132.0,125.0,121.0,104.0,182.0,-1.0,115.0,-83.0,127.0,127.0,127.0,-115.0,-85.0,107.0
127.0,128.0,128.0,132.0,125.0,121.0,103.0,182.0,-1.0,115.0,-83.0,127.0,127.0,127.0,-115.0,-85.0,107.0
127.0,128.0,128.0,132.0,125.0,121.0,103.0,182.0,-1.0,115.0,-83.0,127.0,127.0,127.0,-115.0,-85.0,107.0
127.0,128.0,128.0,132.0,125.0,121.0,103.0,182.0,-1.0,115.0,-83.0,127.0,127.0,127.0,-115.0,-85.0,107.0
127.0,128.0,128.0,132.0,125.0,121.0,103.0,182.0,-1.0,115.0,-83.0,127.0,127.0,127.0,-115.0,-85.0,107.0
127.0,128.0,128.0,132.0,125.0,121.0,103.0,181.0,-1.0,115.0,-83.0,127.0,127.0,127.0,-115.0,-85.0,107.0
127.0,128.0,128.0,132.0,125.0,121.0,104.0,181.0,-1.0,115.0,-83.0,127.0,127.0,127.0,-115.0,-85.0,107.0
127.0,128.0,128.0,132.0,125.0,121.0,104.0,181.0,-1.0,115.0,-83.0,127.0,127.0,127.0,-115.0,-85.0,107.0
127.0,128.0,128.0,132.0,125.0,121.0,104.0,182.0,-1.0,115.0,-83.0,127.0,127.0,127.0,-115.0,-85.0,107.0
128.0,130.0,129.0,132.0,124.0,118.0,84.0,185.0,-1.0,115.0,-81.0,127.0,127.0,127.0,-116.0,-85.0,107.0
128.0,130.0,129.0,133.0,124.0,118.0,83.0,184.0,-1.0,115.0,-81.0,127.0,127.0,127.0,-116.0,-85.0,107.0
128.0,130.0,129.0,133.0,124.0,118.0,83.0,184.0,-1.0,115.0,-81.0,127.0,127.0,127.0,-116.0,-85.0,107.0
128.0,130.0,129.0,133.0,124.0,117.0,82.0,183.0,-1.0,115.0,-81.0,127.0,127.0,127.0,-116.0,-85.0,107.0
128.0,130.0,129.0,133.0,124.0,117.0,82.0,183.0,-1.0,115.0,-81.0,127.0,127.0,127.0,-116.0,-85.0,107.0
128.0,130.0,129.0,133.0,124.0,117.0,81.0,182.0,-1.0,115.0,-81.0,127.0,127.0,127.0,-116.0,-85.0,107.0
128.0,130.0,129.0,132.0,124.0,117.0,80.0,182.0,-1.0,115.0,-81.0,127.0,127.0,127.0,-116.0,-85.0,107.0
128.0,129.0,129.0,132.0,124.0,117.0,79.0,181.0,-1.0,115.0,-81.0,127.0,127.0,127.0,-116.0,-85.0,107.0
128.0,130.0,128.0,132.0,124.0,118.0,85.0,186.0,-1.0,115.0,-81.0,127.0,127.0,127.0,-116.0,-85.0,107.0
128.0,130.0,128.0,132.0,124.0,118.0,84.0,185.0,-1.0,115.0,-81.0,127.0,127.0,127.0,-116.0,-85.0,107.0
127.0,130.0,133.0,129.0,123.0,117.0,70.0,161.0,-1.0,115.0,-80.0,127.0,127.0,127.0,-116.0,-85.0,107.0
127.0,130.0,133.0,129.0,123.0,117.0,70.0,160.0,-1.0,115.0,-80.0,127.0,127.0,127.0,-116.0,-85.0,107.0
127.0,130.0,133.0,130.0,123.0,117.0,70.0,160.0,-1.0,115.0,-80.0,127.0,127.0,127.0,-116.0,-85.0,107.0
127.0,130.0,134.0,130.0,123.0,117.0,70.0,160.0,-1.0,115.0,-80.0,127.0,127.0,127.0,-116.0,-85.0,107.0
127.0,130.0,134.0,130.0,123.0,117.0,70.0,160.0,-1.0,115.0,-80.0,127.0,127.0,127.0,-116.0,-85.0,107.0
127.0,130.0,134.0,130.0,123.0,117.0,70.0,160.0,-1.0,115.0,-80.0,127.0,127.0,127.0,-116.0,-85.0,107.0
127.0,130.0,134.0,130.0,123.0,117.0,69.0,160.0,-1.0,115.0,-80.0,127.0,127.0,127.0,-116.0,-85.0,107.0
127.0,130.0,132.0,129.0,123.0,118.0,70.0,162.0,-1.0,115.0,-80.0,127.0,127.0,127.0,-116.0,-85.0,107.0
127.0,130.0,133.0,129.0,123.0,118.0,70.0,161.0,-1.0,115.0,-80.0,127.0,127.0,127.0,-116.0,-85.0,107.0
127.0,130.0,133.0,129.0,123.0,118.0,70.0,161.0,-1.0,115.0,-80.0,127.0,127.0,127.0,-116.0,-85.0,107.0
127.0,131.0,139.0,146.0,124.0,117.0,33.0,129.0,-1.0,115.0,-79.0,126.0,127.0,127.0,-117.0,-85.0,107.0
127.0,131.0,139.0,146.0,124.0,117.0,32.0,129.0,-1.0,115.0,-79.0,126.0,127.0,127.0,-117.0,-85.0,107.0
127.0,131.0,139.0,147.0,124.0,117.0,32.0,128.0,-1.0,115.0,-79.0,126.0,127.0,127.0,-117.0,-85.0,107.0
126.0,131.0,139.0,147.0,124.0,117.0,31.0,128.0,-1.0,115.0,-79.0,126.0,127.0,127.0,-117.0,-85.0,107.0
126.0,131.0,139.0,147.0,124.0,117.0,30.0,128.0,-1.0,115.0,-79.0,126.0,127.0,127.0,-117.0,-85.0,107.0
126.0,131.0,139.0,148.0,124.0,117.0,30.0,127.0,-1.0,115.0,-79.0,126.0,127.0,127.0,-117.0,-85.0,107.0
127.0,131.0,138.0,144.0,123.0,117.0,35.0,131.0,-1.0,115.0,-79.0,126.0,127.0,127.0,-117.0,-85.0,107.0
127.0,131.0,139.0,145.0,123.0,117.0,34.0,130.0,-1.0,115.0,-79.0,126.0,127.0,127.0,-117.0,-85.0,107.0
127.0,131.0,139.0,145.0,124.0,117.0,34.0,130.0,-1.0,115.0,-79.0,126.0,127.0,127.0,-117.0,-85.0,107.0
127.0,131.0,139.0,146.0,124.0,117.0,33.0,130.0,-1.0,115.0,-79.0,126.0,127.0,127.0,-117.0,-85.0,107.0
126.0,131.0,140.0,161.0,124.0,121.0,0.0,95.0,-1.0,115.0,-77.0,126.0,127.0,127.0,-118.0,-85.0,107.0
126.0,131.0,140.0,161.0,124.0,121.0,0.0,95.0,-1.0,115.0,-77.0,126.0,127.0,127.0,-118.0,-85.0,107.0
126.0,131.0,140.0,161.0,125.0,121.0,0.0,95.0,-1.0,115.0,-77.0,126.0,127.0,127.0,-118.0,-85.0,107.0
126.0,131.0,140.0,161.0,124.0,121.0,0.0,95.0,-1.0,115.0,-77.0,126.0,127.0,127.0,-118.0,-85.0,107.0
126.0,131.0,140.0,161.0,125.0,121.0,0.0,95.0,-1.0,115.0,-77.0,126.0,127.0,127.0,-118.0,-85.0,107.0
126.0,131.0,140.0,161.0,124.0,121.0,0.0,95.0,-1.0,115.0,-77.0,126.0,127.0,127.0,-118.0,-85.0,107.0
126.0,131.0,140.0,161.0,124.0,121.0,0.0,95.0,-1.0,115.0,-77.0,126.0,127.0,127.0,-118.0,-85.0,107.0
126.0,131.0,140.0,161.0,124.0,121.0,0.0,95.0,-1.0,115.0,-77.0,126.0,127.0,127.0,-118.0,-85.0,107.0
126.0,131.0,140.0,161.0,124.0,121.0,0.0,95.0,-1.0,115.0,-77.0,126.0,127.0,127.0,-118.0,-85.0,107.0
126.0,131.0,140.0,161.0,124.0,121.0,0.0,95.0,-1.0,115.0,-77.0,126.0,127.0,127.0,-118.0,-85.0,107.0
125.0,132.0,137.0,152.0,123.0,125.0,7.0,44.0,-1.0,113.0,-76.0,125.0,127.0,127.0,-118.0,-85.0,107.0
125.0,132.0,137.0,152.0,123.0,125.0,8.0,42.0,-1.0,113.0,-76.0,125.0,127.0,127.0,-118.0,-85.0,107.0
125.0,132.0,137.0,151.0,123.0,125.0,9.0,41.0,-1.0,113.0,-76.0,125.0,127.0,127.0,-118.0,-85.0,107.0
125.0,132.0,137.0,151.0,123.0,125.0,10.0,39.0,-1.0,113.0,-76.0,125.0,127.0,127.0,-118.0,-85.0,107.0
125.0,132.0,137.0,154.0,124.0,126.0,2.0,53.0,-1.0,113.0,-76.0,125.0,127.0,127.0,-118.0,-85.0,107.0
125.0,132.0,138.0,153.0,124.0,126.0,3.0,51.0,-1.0,113.0,-76.0,125.0,127.0,127.0,-118.0,-85.0,107.0
125.0,132.0,137.0,153.0,124.0,126.0,3.0,50.0,-1.0,113.0,-76.0,125.0,127.0,127.0,-118.0,-85.0,107.0
125.0,132.0,137.0,153.0,124.0,126.0,4.0,48.0,-1.0,113.0,-76.0,125.0,127.0,127.0,-118.0,-85.0,107.0
125.0,132.0,137.0,153.0,123.0,125.0,5.0,47.0,-1.0,113.0,-76.0,125.0,127.0,127.0,-118.0,-85.0,107.0
125.0,132.0,137.0,152.0,123.0,125.0,6.0,45.0,-1.0,113.0,-76.0,125.0,127.0,127.0,-118.0,-85.0,107.0
124.0,132.0,136.0,147.0,122.0,127.0,56.0,0.0,-1.0,112.0,-74.0,125.0,127.0,127.0,-118.0,-85.0,107.0
124.0,132.0,136.0,148.0,122.0,127.0,57.0,0.0,-1.0,112.0,-74.0,125.0,127.0,127.0,-118.0,-85.0,107.0
124.0,132.0,136.0,148.0,122.0,127.0,58.0,0.0,-1.0,112.0,-74.0,125.0,127.0,127.0,-118.0,-85.0,107.0
124.0,132.0,136.0,146.0,122.0,128.0,50.0,0.0,-1.0,112.0,-74.0,125.0,127.0,127.0,-118.0,-85.0,107.0
124.0,132.0,136.0,146.0,122.0,128.0,50.0,0.0,-1.0,112.0,-74.0,125.0,127.0,127.0,-118.0,-85.0,107.0
124.0,132.0,136.0,146.0,122.0,128.0,51.0,0.0,-1.0,112.0,-74.0,125.0,127.0,127.0,-118.0,-85.0,107.0
124.0,132.0,136.0,147.0,122.0,128.0,52.0,0.0,-1.0,112.0,-74.0,125.0,127.0,127.0,-118.0,-85.0,107.0
124.0,132.0,136.0,147.0,122.0,128.0,53.0,0.0,-1.0,112.0,-74.0,125.0,127.0,127.0,-118.0,-85.0,107.0
124.0,132.0,136.0,147.0,122.0,128.0,54.0,0.0,-1.0,112.0,-74.0,125.0,127.0,127.0,-118.0,-85.0,107.0
124.0,132.0,136.0,147.0,122.0,128.0,55.0,0.0,-1.0,112.0,-74.0,125.0,127.0,127.0,-118.0,-85.0,107.0
123.0,132.0,135.0,156.0,121.0,130.0,62.0,0.0,-1.0,110.0,-73.0,125.0,127.0,127.0,-118.0,-85.0,107.0
123.0,132.0,135.0,156.0,121.0,130.0,62.0,0.0,-1.0,110.0,-73.0,125.0,127.0,127.0,-118.0,-85.0,107.0
123.0,132.0,135.0,156.0,121.0,130.0,67.0,0.0,-1.0,110.0,-73.0,125.0,127.0,127.0,-118.0,-85.0,107.0
123.0,132.0,135.0,156.0,121.0,130.0,67.0,0.0,-1.0,110.0,-73.0,125.0,127.0,127.0,-118.0,-85.0,107.0
123.0,132.0,135.0,156.0,121.0,130.0,66.0,0.0,-1.0,110.0,-73.0,125.0,127.0,127.0,-118.0,-85.0,107.0
123.0,132.0,135.0,156.0,121.0,130.0,65.0,0.0,-1.0,110.0,-73.0,125.0,127.0,127.0,-118.0,-85.0,107.0
123.0,132.0,135.0,156.0,121.0,130.0,65.0,0.0,-1.0,110.0,-73.0,125.0,127.0,127.0,-118.0,-85.0,107.0
123.0,132.0,135.0,156.0,121.0,130.0,64.0,0.0,-1.0,110.0,-73.0,125.0,127.0,127.0,-118.0,-85.0,107.0
123.0,132.0,135.0,156.0,121.0,130.0,64.0,0.0,-1.0,110.0,-73.0,125.0,127.0,127.0,-118.0,-85.0,107.0
123.0,132.0,135.0,156.0,121.0,130.0,63.0,0.0,-1.0,110.0,-73.0,125.0,127.0,127.0,-118.0,-85.0,107.0
123.0,131.0,134.0,146.0,120.0,129.0,32.0,25.0,-1.0,109.0,-72.0,125.0,127.0,127.0,-118.0,-85.0,107.0
123.0,131.0,135.0,147.0,120.0,128.0,38.0,13.0,-1.0,109.0,-72.0,125.0,127.0,127.0,-118.0,-85.0,107.0
123.0,131.0,135.0,147.0,120.0,128.0,37.0,15.0,-1.0,109.0,-72.0,125.0,127.0,127.0,-118.0,-85.0,107.0
123.0,131.0,135.0,147.0,120.0,129.0,37.0,16.0,-1.0,109.0,-72.0,125.0,127.0,127.0,-118.0,-85.0,107.0
123.0,131.0,135.0,147.0,120.0,129.0,36.0,17.0,-1.0,109.0,-72.0,125.0,127.0,127.0,-118.0,-85.0,107.0
123.0,131.0,135.0,147.0,120.0,128.0,35.0,18.0,-1.0,109.0,-72.0,125.0,127.0,127.0,-118.0,-85.0,107.0
123.0,131.0,135.0,147.0,120.0,128.0,35.0,19.0,-1.0,109.0,-72.0,125.0,127.0,127.0,-118.0,-85.0,107.0
123.0,131.0,135.0,146.0,120.0,128.0,34.0,21.0,-1.0,109.0,-72.0,125.0,127.0,127.0,-118.0,-85.0,107.0
123.0,131.0,134.0,146.0,120.0,129.0,34.0,22.0,-1.0,109.0,-72.0,125.0,127.0,127.0,-118.0,-85.0,107.0
123.0,131.0,134.0,146.0,119.0,129.0,33.0,24.0,-1.0,109.0,-72.0,125.0,127.0,127.0,-118.0,-85.0,107.0
123.0,130.0,135.0,161.0,119.0,121.0,33.0,66.0,-1.0,108.0,-71.0,125.0,127.0,127.0,-118.0,-85.0,107.0
123.0,130.0,135.0,161.0,119.0,121.0,33.0,67.0,-1.0,108.0,-71.0,125.0,127.0,127.0,-118.0,-85.0,107.0
123.0,131.0,134.0,162.0,119.0,122.0,33.0,68.0,-1.0,108.0,-71.0,125.0,127.0,127.0,-118.0,-85.0,107.0
123.0,131.0,134.0,162.0,119.0,122.0,33.0,69.0,-1.0,108.0,-71.0,125.0,127.0,127.0,-118.0,-85.0,107.0
123.0,130.0,135.0,162.0,119.0,121.0,33.0,69.0,-1.0,108.0,-71.0,125.0,127.0,127.0,-118.0,-85.0,107.0
123.0,130.0,135.0,162.0,119.0,121.0,33.0,70.0,-1.0,108.0,-71.0,125.0,127.0,127.0,-118.0,-85.0,107.0
123.0,130.0,135.0,163.0,119.0,121.0,33.0,71.0,-1.0,108.0,-71.0,125.0,127.0,127.0,-118.0,-85.0,107.0
123.0,130.0,135.0,163.0,119.0,121.0,33.0,72.0,-1.0,108.0,-71.0,125.0,127.0,127.0,-118.0,-85.0,107.0
123.0,130.0,134.0,163.0,119.0,121.0,32.0,73.0,-1.0,108.0,-71.0,125.0,127.0,127.0,-118.0,-85.0,107.0
123.0,130.0,135.0,163.0,119.0,121.0,32.0,73.0,-1.0,108.0,-71.0,125.0,127.0,127.0,-118.0,-85.0,107.0
123.0,130.0,134.0,150.0,118.0,116.0,51.0,92.0,-1.0,107.0,-71.0,125.0,127.0,127.0,-118.0,-85.0,107.0
123.0,130.0,134.0,149.0,118.0,116.0,51.0,93.0,-1.0,107.0,-71.0,125.0,127.0,127.0,-118.0,-85.0,107.0
123.0,130.0,134.0,148.0,119.0,116.0,51.0,93.0,-1.0,107.0,-71.0,125.0,127.0,127.0,-118.0,-85.0,107.0
123.0,130.0,134.0,148.0,119.0,116.0,52.0,93.0,-1.0,107.0,-71.0,125.0,127.0,127.0,-118.0,-85.0,107.0
123.0,130.0,134.0,147.0,119.0,116.0,53.0,94.0,-1.0,107.0,-71.0,125.0,127.0,127.0,-118.0,-85.0,107.0
123.0,130.0,134.0,147.0,119.0,116.0,54.0,94.0,-1.0,107.0,-71.0,125.0,127.0,127.0,-118.0,-85.0,107.0
123.0,130.0,134.0,146.0,119.0,116.0,55.0,94.0,-1.0,107.0,-71.0,125.0,127.0,127.0,-118.0,-85.0,107.0
123.0,130.0,134.0,145.0,119.0,117.0,55.0,95.0,-1.0,107.0,-71.0,125.0,127.0,127.0,-118.0,-85.0,107.0
123.0,130.0,134.0,145.0,119.0,117.0,56.0,95.0,-1.0,107.0,-71.0,125.0,127.0,127.0,-118.0,-85.0,107.0
123.0,130.0,134.0,150.0,118.0,115.0,50.0,92.0,-1.0,107.0,-71.0,125.0,127.0,127.0,-118.0,-85.0,107.0
122.0,128.0,134.0,108.0,124.0,124.0,92.0,100.0,-1.0,106.0,-71.0,125.0,127.0,127.0,-118.0,-85.0,107.0
122.0,128.0,134.0,108.0,124.0,124.0,92.0,101.0,-1.0,106.0,-71.0,125.0,127.0,127.0,-118.0,-85.0,107.0
122.0,128.0,134.0,107.0,124.0,124.0,93.0,101.0,-1.0,106.0,-71.0,125.0,127.0,127.0,-118.0,-85.0,107.0
122.0,128.0,134.0,107.0,124.0,124.0,94.0,101.0,-1.0,106.0,-71.0,125.0,127.0,127.0,-118.0,-85.0,107.0
122.0,128.0,134.0,107.0,124.0,125.0,94.0,101.0,-1.0,106.0,-71.0,125.0,127.0,127.0,-118.0,-85.0,107.0
122.0,128.0,134.0,107.0,124.0,125.0,95.0,101.0,-1.0,106.0,-71.0,125.0,127.0,127.0,-118.0,-85.0,107.0
122.0,128.0,133.0,106.0,124.0,126.0,95.0,102.0,-1.0,106.0,-71.0,125.0,127.0,127.0,-118.0,-85.0,107.0
122.0,128.0,133.0,106.0,124.0,127.0,95.0,102.0,-1.0,106.0,-71.0,125.0,127.0,127.0,-118.0,-85.0,107.0
122.0,128.0,134.0,109.0,124.0,122.0,91.0,100.0,-1.0,106.0,-71.0,125.0,127.0,127.0,-118.0,-85.0,107.0
122.0,128.0,134.0,108.0,124.0,123.0,92.0,100.0,-1.0,106.0,-71.0,125.0,127.0,127.0,-118.0,-85.0,107.0
121.0,126.0,131.0,87.0,133.0,143.0,121.0,111.0,-1.0,106.0,-71.0,125.0,127.0,127.0,-118.0,-85.0,107.0
121.0,126.0,131.0,86.0,133.0,143.0,121.0,112.0,-1.0,106.0,-71.0,125.0,127.0,127.0,-118.0,-85.0,107.0
121.0,126.0,132.0,86.0,133.0,143.0,122.0,112.0,-1.0,106.0,-71.0,125.0,127.0,127.0,-118.0,-85.0,107.0
121.0,126.0,132.0,85.0,134.0,143.0,122.0,112.0,-1.0,106.0,-71.0,125.0,127.0,127.0,-118.0,-85.0,107.0
121.0,126.0,132.0,84.0,134.0,143.0,123.0,112.0,-1.0,106.0,-71.0,125.0,127.0,127.0,-118.0,-85.0,107.0
121.0,126.0,131.0,84.0,134.0,144.0,123.0,112.0,-1.0,106.0,-71.0,125.0,127.0,127.0,-118.0,-85.0,107.0
121.0,126.0,131.0,83.0,134.0,144.0,124.0,113.0,-1.0,106.0,-71.0,125.0,127.0,127.0,-118.0,-85.0,107.0
121.0,126.0,131.0,89.0,132.0,141.0,120.0,110.0,-1.0,106.0,-71.0,125.0,127.0,127.0,-118.0,-85.0,107.0
121.0,126.0,131.0,88.0,133.0,141.0,120.0,111.0,-1.0,106.0,-71.0,125.0,127.0,127.0,-118.0,-85.0,107.0
121.0,126.0,131.0,88.0,133.0,142.0,120.0,111.0,-1.0,106.0,-71.0,125.0,127.0,127.0,-118.0,-85.0,107.0
121.0,125.0,125.0,76.0,146.0,150.0,147.0,117.0,-1.0,105.0,-71.0,125.0,127.0,127.0,-118.0,-85.0,107.0
121.0,125.0,124.0,76.0,146.0,150.0,147.0,117.0,-1.0,105.0,-71.0,125.0,127.0,127.0,-118.0,-85.0,107.0
121.0,125.0,124.0,77.0,146.0,150.0,148.0,117.0,-1.0,105.0,-71.0,125.0,127.0,127.0,-118.0,-85.0,107.0
121.0,125.0,124.0,77.0,146.0,150.0,148.0,117.0,-1.0,105.0,-71.0,125.0,127.0,127.0,-118.0,-85.0,107.0
121.0,125.0,123.0,78.0,146.0,151.0,148.0,117.0,-1.0,105.0,-71.0,125.0,127.0,127.0,-118.0,-85.0,107.0
121.0,125.0,123.0,79.0,146.0,151.0,148.0,117.0,-1.0,105.0,-71.0,125.0,127.0,127.0,-118.0,-85.0,107.0
121.0,125.0,126.0,73.0,146.0,149.0,146.0,116.0,-1.0,105.0,-71.0,125.0,127.0,127.0,-118.0,-85.0,107.0
121.0,125.0,126.0,74.0,146.0,149.0,147.0,116.0,-1.0,105.0,-71.0,125.0,127.0,127.0,-118.0,-85.0,107.0
121.0,125.0,125.0,74.0,146.0,150.0,146.0,116.0,-1.0,105.0,-71.0,125.0,127.0,127.0,-118.0,-85.0,107.0
121.0,125.0,125.0,75.0,146.0,150.0,146.0,117.0,-1.0,105.0,-71.0,125.0,127.0,127.0,-118.0,-85.0,107.0
121.0,125.0,121.0,102.0,148.0,155.0,159.0,122.0,-1.0,105.0,-73.0,125.0,127.0,127.0,-118.0,-85.0,107.0
121.0,125.0,121.0,102.0,148.0,155.0,159.0,122.0,-1.0,105.0,-73.0,125.0,127.0,127.0,-118.0,-85.0,107.0
121.0,125.0,121.0,103.0,147.0,155.0,160.0,122.0,-1.0,105.0,-73.0,125.0,127.0,127.0,-118.0,-85.0,107.0
121.0,125.0,121.0,103.0,147.0,156.0,159.0,122.0,-1.0,105.0,-73.0,125.0,127.0,127.0,-118.0,-85.0,107.0
121.0,125.0,120.0,98.0,148.0,154.0,159.0,120.0,-1.0,105.0,-73.0,125.0,127.0,127.0,-118.0,-85.0,107.0
121.0,125.0,120.0,99.0,148.0,154.0,159.0,120.0,-1.0,105.0,-73.0,125.0,127.0,127.0,-118.0,-85.0,107.0
121.0,125.0,120.0,100.0,148.0,154.0,159.0,121.0,-1.0,105.0,-73.0,125.0,127.0,127.0,-118.0,-85.0,107.0
121.0,125.0,120.0,100.0,148.0,155.0,159.0,121.0,-1.0,105.0,-73.0,125.0,127.0,127.0,-118.0,-85.0,107.0
121.0,125.0,120.0,101.0,148.0,155.0,159.0,121.0,-1.0,105.0,-73.0,125.0,127.0,127.0,-118.0,-85.0,107.0
121.0,125.0,121.0,101.0,148.0,155.0,159.0,122.0,-1.0,105.0,-73.0,125.0,127.0,127.0,-118.0,-85.0,107.0
122.0,125.0,121.0,139.0,145.0,156.0,164.0,125.0,-1.0,105.0,-74.0,125.0,127.0,127.0,-118.0,-85.0,107.0
122.0,125.0,120.0,139.0,145.0,156.0,164.0,125.0,-1.0,105.0,-74.0,125.0,127.0,127.0,-118.0,-85.0,107.0
122.0,125.0,120.0,140.0,145.0,155.0,164.0,125.0,-1.0,105.0,-74.0,125.0,127.0,127.0,-118.0,-85.0,107.0
122.0,126.0,121.0,136.0,145.0,157.0,163.0,125.0,-1.0,105.0,-74.0,125.0,127.0,127.0,-118.0,-85.0,107.0
122.0,126.0,121.0,136.0,145.0,157.0,163.0,125.0,-1.0,105.0,-74.0,125.0,127.0,127.0,-118.0,-85.0,107.0
122.0,126.0,121.0,137.0,145.0,157.0,163.0,125.0,-1.0,105.0,-74.0,125.0,127.0,127.0,-118.0,-85.0,107.0
122.0,125.0,121.0,137.0,145.0,156.0,163.0,125.0,-1.0,105.0,-74.0,125.0,127.0,127.0,-118.0,-85.0,107.0
122.0,125.0,121.0,138.0,145.0,156.0,163.0,125.0,-1.0,105.0,-74.0,125.0,127.0,127.0,-118.0,-85.0,107.0
122.0,125.0,121.0,138.0,145.0,156.0,163.0,125.0,-1.0,105.0,-74.0,125.0,127.0,127.0,-118.0,-85.0,107.0
122.0,125.0,121.0,139.0,145.0,156.0,164.0,125.0,-1.0,105.0,-74.0,125.0,127.0,127.0,-118.0,-85.0,107.0
123.0,126.0,120.0,134.0,139.0,151.0,162.0,127.0,-1.0,105.0,-76.0,125.0,127.0,127.0,-118.0,-85.0,107.0
123.0,126.0,120.0,134.0,139.0,151.0,162.0,127.0,-1.0,105.0,-76.0,125.0,127.0,127.0,-118.0,-85.0,107.0
123.0,126.0,120.0,135.0,140.0,150.0,163.0,127.0,-1.0,105.0,-76.0,125.0,127.0,127.0,-118.0,-85.0,107.0
123.0,126.0,120.0,135.0,140.0,151.0,163.0,127.0,-1.0,105.0,-76.0,125.0,127.0,127.0,-118.0,-85.0,107.0
123.0,126.0,120.0,135.0,140.0,150.0,162.0,127.0,-1.0,105.0,-76.0,125.0,127.0,127.0,-118.0,-85.0,107.0
123.0,126.0,120.0,135.0,140.0,150.0,162.0,127.0,-1.0,105.0,-76.0,125.0,127.0,127.0,-118.0,-85.0,107.0
123.0,126.0,120.0,135.0,140.0,150.0,162.0,127.0,-1.0,105.0,-76.0,125.0,127.0,127.0,-118.0,-85.0,107.0
123.0,126.0,120.0,135.0,139.0,150.0,162.0,127.0,-1.0,105.0,-76.0,125.0,127.0,127.0,-118.0,-85.0,107.0
123.0,126.0,120.0,134.0,139.0,150.0,162.0,127.0,-1.0,105.0,-76.0,125.0,127.0,127.0,-118.0,-85.0,107.0
123.0,126.0,120.0,134.0,139.0,151.0,162.0,127.0,-1.0,105.0,-76.0,125.0,127.0,127.0,-118.0,-85.0,107.0
124.0,126.0,122.0,127.0,129.0,146.0,159.0,128.0,-1.0,104.0,-77.0,126.0,127.0,127.0,-118.0,-85.0,107.0
124.0,126.0,122.0,127.0,131.0,146.0,161.0,127.0,-1.0,104.0,-77.0,126.0,127.0,127.0,-118.0,-85.0,107.0
124.0,126.0,122.0,127.0,130.0,147.0,160.0,128.0,-1.0,104.0,-77.0,126.0,127.0,127.0,-118.0,-85.0,107.0
124.0,126.0,122.0,127.0,130.0,147.0,160.0,128.0,-1.0,104.0,-77.0,126.0,127.0,127.0,-118.0,-85.0,107.0
124.0,126.0,122.0,127.0,130.0,146.0,160.0,128.0,-1.0,104.0,-77.0,126.0,127.0,127.0,-118.0,-85.0,107.0
124.0,126.0,122.0,127.0,130.0,146.0,160.0,128.0,-1.0,104.0,-77.0,126.0,127.0,127.0,-118.0,-85.0,107.0
124.0,126.0,122.0,127.0,130.0,146.0,160.0,128.0,-1.0,104.0,-77.0,126.0,127.0,127.0,-118.0,-85.0,107.0
124.0,126.0,122.0,127.0,130.0,146.0,160.0,128.0,-1.0,104.0,-77.0,126.0,127.0,127.0,-118.0,-85.0,107.0
124.0,126.0,122.0,127.0,129.0,147.0,159.0,128.0,-1.0,104.0,-77.0,126.0,127.0,127.0,-118.0,-85.0,107.0
124.0,126.0,122.0,127.0,129.0,147.0,159.0,128.0,-1.0,104.0,-77.0,126.0,127.0,127.0,-118.0,-85.0,107.0
124.0,127.0,124.0,124.0,126.0,144.0,157.0,128.0,-1.0,104.0,-78.0,126.0,127.0,127.0,-118.0,-85.0,107.0
125.0,127.0,124.0,124.0,126.0,144.0,156.0,129.0,-1.0,104.0,-78.0,126.0,127.0,127.0,-118.0,-85.0,107.0
125.0,127.0,124.0,124.0,126.0,144.0,156.0,129.0,-1.0,104.0,-78.0,126.0,127.0,127.0,-118.0,-85.0,107.0
125.0,127.0,124.0,124.0,126.0,144.0,156.0,129.0,-1.0,104.0,-78.0,126.0,127.0,127.0,-118.0,-85.0,107.0
125.0,127.0,124.0,124.0,126.0,144.0,156.0,129.0,-1.0,104.0,-78.0,126.0,127.0,127.0,-118.0,-85.0,107.0
125.0,127.0,124.0,124.0,126.0,144.0,156.0,129.0,-1.0,104.0,-78.0,126.0,127.0,127.0,-118.0,-85.0,107.0
125.0,127.0,124.0,124.0,126.0,144.0,155.0,129.0,-1.0,104.0,-78.0,126.0,127.0,127.0,-118.0,-85.0,107.0
125.0,127.0,124.0,124.0,125.0,144.0,154.0,130.0,-1.0,104.0,-78.0,126.0,127.0,127.0,-118.0,-85.0,107.0
125.0,127.0,124.0,124.0,125.0,144.0,154.0,129.0,-1.0,104.0,-78.0,126.0,127.0,127.0,-118.0,-85.0,107.0
125.0,127.0,124.0,124.0,125.0,144.0,154.0,130.0,-1.0,104.0,-78.0,126.0,127.0,127.0,-118.0,-85.0,107.0
125.0,127.0,124.0,122.0,123.0,141.0,151.0,131.0,-1.0,104.0,-79.0,126.0,127.0,127.0,-118.0,-85.0,107.0
125.0,127.0,125.0,122.0,123.0,141.0,150.0,131.0,-1.0,104.0,-79.0,126.0,127.0,127.0,-118.0,-85.0,107.0
125.0,127.0,125.0,123.0,123.0,140.0,150.0,131.0,-1.0,104.0,-79.0,126.0,127.0,127.0,-118.0,-85.0,107.0
125.0,127.0,125.0,123.0,124.0,140.0,150.0,131.0,-1.0,104.0,-79.0,126.0,127.0,127.0,-118.0,-85.0,107.0
125.0,127.0,125.0,122.0,123.0,140.0,150.0,131.0,-1.0,104.0,-79.0,126.0,127.0,127.0,-118.0,-85.0,107.0
125.0,127.0,125.0,122.0,124.0,140.0,150.0,131.0,-1.0,104.0,-79.0,126.0,127.0,127.0,-118.0,-85.0,107.0
125.0,127.0,125.0,123.0,123.0,141.0,149.0,132.0,-1.0,104.0,-79.0,126.0,127.0,127.0,-118.0,-85.0,107.0
125.0,127.0,125.0,123.0,123.0,141.0,149.0,132.0,-1.0,104.0,-79.0,126.0,127.0,127.0,-118.0,-85.0,107.0
125.0,127.0,125.0,123.0,123.0,140.0,149.0,132.0,-1.0,104.0,-79.0,126.0,127.0,127.0,-118.0,-85.0,107.0
125.0,127.0,125.0,122.0,124.0,140.0,151.0,131.0,-1.0,104.0,-79.0,126.0,127.0,127.0,-118.0,-85.0,107.0
125.0,128.0,126.0,122.0,123.0,139.0,147.0,133.0,-1.0,105.0,-79.0,127.0,127.0,127.0,-118.0,-85.0,107.0
125.0,128.0,126.0,122.0,124.0,139.0,147.0,132.0,-1.0,105.0,-79.0,127.0,127.0,127.0,-118.0,-85.0,107.0
125.0,128.0,126.0,122.0,124.0,139.0,147.0,132.0,-1.0,105.0,-79.0,127.0,127.0,127.0,-118.0,-85.0,107.0
125.0,128.0,126.0,122.0,124.0,139.0,147.0,133.0,-1.0,105.0,-79.0,127.0,127.0,127.0,-118.0,-85.0,107.0
125.0,128.0,126.0,122.0,124.0,139.0,147.0,133.0,-1.0,105.0,-79.0,127.0,127.0,127.0,-118.0,-85.0,107.0
125.0,128.0,125.0,122.0,123.0,140.0,146.0,133.0,-1.0,105.0,-79.0,127.0,127.0,127.0,-118.0,-85.0,107.0
125.0,128.0,126.0,123.0,123.0,140.0,146.0,133.0,-1.0,105.0,-79.0,127.0,127.0,127.0,-118.0,-85.0,107.0
125.0,128.0,126.0,123.0,123.0,140.0,146.0,133.0,-1.0,105.0,-79.0,127.0,127.0,127.0,-118.0,-85.0,107.0
125.0,128.0,126.0,122.0,124.0,139.0,148.0,132.0,-1.0,105.0,-79.0,127.0,127.0,127.0,-118.0,-85.0,107.0
125.0,128.0,125.0,122.0,123.0,139.0,147.0,132.0,-1.0,105.0,-79.0,127.0,127.0,127.0,-118.0,-85.0,107.0
125.0,128.0,126.0,122.0,123.0,137.0,145.0,133.0,-1.0,105.0,-79.0,127.0,127.0,127.0,-118.0,-85.0,107.0
125.0,128.0,126.0,122.0,123.0,137.0,145.0,133.0,-1.0,105.0,-79.0,127.0,127.0,127.0,-118.0,-85.0,107.0
125.0,128.0,126.0,122.0,123.0,136.0,145.0,133.0,-1.0,105.0,-79.0,127.0,127.0,127.0,-118.0,-85.0,107.0
125.0,128.0,126.0,122.0,123.0,137.0,145.0,133.0,-1.0,105.0,-79.0,127.0,127.0,127.0,-118.0,-85.0,107.0
125.0,128.0,126.0,122.0,123.0,137.0,144.0,133.0,-1.0,105.0,-79.0,127.0,127.0,127.0,-118.0,-85.0,107.0
125.0,128.0,126.0,123.0,123.0,137.0,144.0,133.0,-1.0,105.0,-79.0,127.0,127.0,127.0,-118.0,-85.0,107.0
125.0,128.0,126.0,123.0,123.0,137.0,144.0,133.0,-1.0,105.0,-79.0,127.0,127.0,127.0,-118.0,-85.0,107.0
125.0,128.0,126.0,122.0,123.0,136.0,146.0,132.0,-1.0,105.0,-79.0,127.0,127.0,127.0,-118.0,-85.0,107.0
125.0,128.0,126.0,122.0,123.0,137.0,145.0,133.0,-1.0,105.0,-79.0,127.0,127.0,127.0,-118.0,-85.0,107.0
125.0,128.0,126.0,122.0,123.0,137.0,145.0,133.0,-1.0,105.0,-79.0,127.0,127.0,127.0,-118.0,-85.0,107.0
125.0,128.0,126.0,123.0,124.0,138.0,144.0,132.0,-1.0,104.0,-79.0,127.0,127.0,127.0,-118.0,-85.0,107.0
125.0,127.0,126.0,123.0,124.0,137.0,143.0,132.0,-1.0,104.0,-79.0,127.0,127.0,127.0,-118.0,-85.0,107.0
125.0,127.0,126.0,123.0,124.0,137.0,143.0,132.0,-1.0,104.0,-79.0,127.0,127.0,127.0,-118.0,-85.0,107.0
125.0,128.0,126.0,123.0,124.0,138.0,143.0,132.0,-1.0,104.0,-79.0,127.0,127.0,127.0,-118.0,-85.0,107.0
125.0,127.0,126.0,123.0,124.0,138.0,143.0,132.0,-1.0,104.0,-79.0,127.0,127.0,127.0,-118.0,-85.0,107.0
125.0,128.0,126.0,123.0,124.0,138.0,143.0,132.0,-1.0,104.0,-79.0,127.0,127.0,127.0,-118.0,-85.0,107.0
125.0,127.0,126.0,123.0,124.0,137.0,144.0,132.0,-1.0,104.0,-79.0,127.0,127.0,127.0,-118.0,-85.0,107.0
125.0,128.0,126.0,123.0,124.0,138.0,144.0,132.0,-1.0,104.0,-79.0,127.0,127.0,127.0,-118.0,-85.0,107.0
125.0,128.0,126.0,123.0,124.0,138.0,144.0,132.0,-1.0,104.0,-79.0,127.0,127.0,127.0,-118.0,-85.0,107.0
125.0,128.0,126.0,123.0,124.0,138.0,143.0,132.0,-1.0,104.0,-79.0,127.0,127.0,127.0,-118.0,-85.0,107.0
125.0,127.0,127.0,123.0,124.0,138.0,141.0,132.0,-1.0,104.0,-78.0,127.0,127.0,127.0,-117.0,-85.0,107.0
125.0,127.0,127.0,123.0,124.0,138.0,141.0,132.0,-1.0,104.0,-78.0,127.0,127.0,127.0,-117.0,-85.0,107.0
125.0,127.0,127.0,123.0,124.0,139.0,141.0,132.0,-1.0,104.0,-78.0,127.0,127.0,127.0,-117.0,-85.0,107.0
125.0,127.0,127.0,123.0,123.0,139.0,140.0,132.0,-1.0,104.0,-78.0,127.0,127.0,127.0,-117.0,-85.0,107.0
126.0,127.0,127.0,123.0,124.0,139.0,140.0,132.0,-1.0,104.0,-78.0,127.0,127.0,127.0,-117.0,-85.0,107.0
125.0,127.0,127.0,123.0,124.0,138.0,142.0,131.0,-1.0,104.0,-78.0,127.0,127.0,127.0,-117.0,-85.0,107.0
125.0,127.0,126.0,123.0,124.0,139.0,141.0,132.0,-1.0,104.0,-78.0,127.0,127.0,127.0,-117.0,-85.0,107.0
125.0,127.0,127.0,123.0,124.0,139.0,141.0,132.0,-1.0,104.0,-78.0,127.0,127.0,127.0,-117.0,-85.0,107.0
125.0,127.0,127.0,123.0,124.0,139.0,141.0,132.0,-1.0,104.0,-78.0,127.0,127.0,127.0,-117.0,-85.0,107.0
125.0,127.0,127.0,123.0,124.0,139.0,141.0,132.0,-1.0,104.0,-78.0,127.0,127.0,127.0,-117.0,-85.0,107.0
125.0,127.0,127.0,123.0,124.0,137.0,139.0,130.0,-1.0,103.0,-77.0,127.0,127.0,127.0,-117.0,-85.0,107.0
125.0,127.0,127.0,123.0,124.0,137.0,139.0,130.0,-1.0,103.0,-77.0,127.0,127.0,127.0,-117.0,-85.0,107.0
125.0,127.0,127.0,123.0,124.0,137.0,139.0,130.0,-1.0,103.0,-77.0,127.0,127.0,127.0,-117.0,-85.0,107.0
125.0,127.0,127.0,123.0,124.0,137.0,139.0,130.0,-1.0,103.0,-77.0,127.0,127.0,127.0,-117.0,-85.0,107.0
126.0,127.0,127.0,123.0,124.0,138.0,139.0,131.0,-1.0,103.0,-77.0,127.0,127.0,127.0,-117.0,-85.0,107.0
125.0,127.0,127.0,123.0,124.0,138.0,139.0,131.0,-1.0,103.0,-77.0,127.0,127.0,127.0,-117.0,-85.0,107.0
125.0,127.0,127.0,123.0,124.0,138.0,139.0,131.0,-1.0,103.0,-77.0,127.0,127.0,127.0,-117.0,-85.0,107.0
125.0,127.0,127.0,123.0,124.0,138.0,139.0,131.0,-1.0,103.0,-77.0,127.0,127.0,127.0,-117.0,-85.0,107.0
125.0,127.0,127.0,123.0,124.0,138.0,139.0,131.0,-1.0,103.0,-77.0,127.0,127.0,127.0,-117.0,-85.0,107.0
125.0,127.0,127.0,123.0,124.0,137.0,139.0,130.0,-1.0,103.0,-77.0,127.0,127.0,127.0,-117.0,-85.0,107.0
126.0,127.0,127.0,123.0,124.0,138.0,137.0,131.0,-1.0,103.0,-77.0,127.0,127.0,127.0,-117.0,-85.0,107.0
126.0,127.0,127.0,123.0,124.0,137.0,137.0,131.0,-1.0,103.0,-77.0,127.0,127.0,127.0,-117.0,-85.0,107.0
126.0,127.0,127.0,123.0,124.0,137.0,137.0,131.0,-1.0,103.0,-77.0,127.0,127.0,127.0,-117.0,-85.0,107.0
126.0,127.0,127.0,123.0,124.0,137.0,138.0,131.0,-1.0,103.0,-77.0,127.0,127.0,127.0,-117.0,-85.0,107.0
126.0,127.0,127.0,123.0,124.0,137.0,138.0,131.0,-1.0,103.0,-77.0,127.0,127.0,127.0,-117.0,-85.0,107.0
126.0,127.0,127.0,123.0,124.0,137.0,138.0,131.0,-1.0,103.0,-77.0,127.0,127.0,127.0,-117.0,-85.0,107.0
126.0,127.0,127.0,123.0,124.0,137.0,138.0,131.0,-1.0,103.0,-77.0,127.0,127.0,127.0,-117.0,-85.0,107.0
126.0,127.0,127.0,123.0,124.0,137.0,138.0,131.0,-1.0,103.0,-77.0,127.0,127.0,127.0,-117.0,-85.0,107.0
126.0,127.0,127.0,123.0,124.0,138.0,137.0,131.0,-1.0,103.0,-77.0,127.0,127.0,127.0,-117.0,-85.0,107.0
126.0,127.0,127.0,123.0,124.0,138.0,137.0,131.0,-1.0,103.0,-77.0,127.0,127.0,127.0,-117.0,-85.0,107.0
126.0,127.0,127.0,123.0,125.0,137.0,136.0,132.0,-1.0,103.0,-77.0,127.0,127.0,127.0,-117.0,-85.0,107.0
126.0,127.0,127.0,123.0,125.0,137.0,136.0,132.0,-1.0,103.0,-77.0,127.0,127.0,127.0,-117.0,-85.0,107.0
126.0,127.0,127.0,123.0,125.0,137.0,137.0,131.0,-1.0,103.0,-77.0,127.0,127.0,127.0,-117.0,-85.0,107.0
126.0,127.0,127.0,122.0,125.0,136.0,137.0,131.0,-1.0,103.0,-77.0,127.0,127.0,127.0,-117.0,-85.0,107.0
126.0,127.0,127.0,122.0,125.0,136.0,137.0,131.0,-1.0,103.0,-77.0,127.0,127.0,127.0,-117.0,-85.0,107.0
126.0,127.0,127.0,122.0,125.0,136.0,137.0,131.0,-1.0,103.0,-77.0,127.0,127.0,127.0,-117.0,-85.0,107.0
126.0,127.0,127.0,122.0,125.0,136.0,136.0,131.0,-1.0,103.0,-77.0,127.0,127.0,127.0,-117.0,-85.0,107.0
126.0,127.0,127.0,123.0,125.0,137.0,136.0,132.0,-1.0,103.0,-77.0,127.0,127.0,127.0,-117.0,-85.0,107.0
126.0,127.0,127.0,123.0,125.0,137.0,136.0,132.0,-1.0,103.0,-77.0,127.0,127.0,127.0,-117.0,-85.0,107.0
126.0,127.0,127.0,123.0,125.0,137.0,136.0,132.0,-1.0,103.0,-77.0,127.0,127.0,127.0,-117.0,-85.0,107.0
126.0,127.0,127.0,123.0,125.0,136.0,134.0,132.0,-1.0,103.0,-77.0,127.0,127.0,127.0,-117.0,-85.0,107.0
126.0,127.0,127.0,123.0,125.0,136.0,135.0,132.0,-1.0,103.0,-77.0,127.0,127.0,127.0,-117.0,-85.0,107.0
126.0,127.0,127.0,123.0,125.0,136.0,135.0,131.0,-1.0,103.0,-77.0,127.0,127.0,127.0,-117.0,-85.0,107.0
126.0,127.0,127.0,123.0,125.0,135.0,135.0,131.0,-1.0,103.0,-77.0,127.0,127.0,127.0,-117.0,-85.0,107.0
126.0,127.0,127.0,123.0,125.0,135.0,135.0,132.0,-1.0,103.0,-77.0,127.0,127.0,127.0,-117.0,-85.0,107.0
126.0,127.0,127.0,123.0,125.0,135.0,135.0,131.0,-1.0,103.0,-77.0,127.0,127.0,127.0,-117.0,-85.0,107.0
126.0,127.0,127.0,123.0,125.0,136.0,134.0,132.0,-1.0,103.0,-77.0,127.0,127.0,127.0,-117.0,-85.0,107.0
126.0,127.0,127.0,123.0,125.0,136.0,134.0,132.0,-1.0,103.0,-77.0,127.0,127.0,127.0,-117.0,-85.0,107.0
126.0,127.0,127.0,123.0,125.0,136.0,134.0,132.0,-1.0,103.0,-77.0,127.0,127.0,127.0,-117.0,-85.0,107.0
126.0,127.0,127.0,123.0,125.0,136.0,134.0,132.0,-1.0,103.0,-77.0,127.0,127.0,127.0,-117.0,-85.0,107.0
126.0,127.0,127.0,123.0,125.0,136.0,134.0,132.0,-1.0,104.0,-77.0,127.0,127.0,127.0,-117.0,-85.0,107.0
126.0,127.0,127.0,123.0,126.0,136.0,134.0,132.0,-1.0,104.0,-77.0,127.0,127.0,127.0,-117.0,-85.0,107.0
126.0,127.0,127.0,123.0,126.0,136.0,134.0,132.0,-1.0,104.0,-77.0,127.0,127.0,127.0,-117.0,-85.0,107.0
126.0,127.0,127.0,123.0,126.0,136.0,134.0,132.0,-1.0,104.0,-77.0,127.0,127.0,127.0,-117.0,-85.0,107.0
126.0,127.0,127.0,123.0,126.0,136.0,134.0,132.0,-1.0,104.0,-77.0,127.0,127.0,127.0,-117.0,-85.0,107.0
126.0,127.0,127.0,123.0,125.0,136.0,133.0,132.0,-1.0,104.0,-77.0,127.0,127.0,127.0,-117.0,-85.0,107.0
126.0,127.0,127.0,123.0,125.0,136.0,133.0,132.0,-1.0,104.0,-77.0,127.0,127.0,127.0,-117.0,-85.0,107.0
126.0,127.0,127.0,123.0,126.0,136.0,133.0,132.0,-1.0,104.0,-77.0,127.0,127.0,127.0,-117.0,-85.0,107.0
126.0,127.0,127.0,123.0,126.0,136.0,133.0,132.0,-1.0,104.0,-77.0,127.0,127.0,127.0,-117.0,-85.0,107.0
126.0,127.0,127.0,123.0,126.0,136.0,133.0,132.0,-1.0,104.0,-77.0,127.0,127.0,127.0,-117.0,-85.0,107.0
126.0,127.0,127.0,123.0,125.0,134.0,131.0,132.0,-1.0,104.0,-77.0,127.0,127.0,127.0,-117.0,-85.0,107.0
126.0,127.0,127.0,123.0,125.0,134.0,131.0,132.0,-1.0,104.0,-77.0,127.0,127.0,127.0,-117.0,-85.0,107.0
126.0,127.0,127.0,123.0,125.0,134.0,131.0,132.0,-1.0,104.0,-77.0,127.0,127.0,127.0,-117.0,-85.0,107.0
126.0,127.0,127.0,123.0,125.0,134.0,131.0,132.0,-1.0,104.0,-77.0,127.0,127.0,127.0,-117.0,-85.0,107.0
126.0,127.0,127.0,123.0,125.0,134.0,131.0,132.0,-1.0,104.0,-77.0,127.0,127.0,127.0,-117.0,-85.0,107.0
126.0,127.0,127.0,123.0,125.0,134.0,130.0,132.0,-1.0,104.0,-77.0,127.0,127.0,127.0,-117.0,-85.0,107.0
126.0,127.0,127.0,123.0,125.0,134.0,130.0,132.0,-1.0,104.0,-77.0,127.0,127.0,127.0,-117.0,-85.0,107.0
126.0,127.0,127.0,123.0,125.0,134.0,130.0,132.0,-1.0,104.0,-77.0,127.0,127.0,127.0,-117.0,-85.0,107.0
126.0,127.0,127.0,123.0,125.0,134.0,130.0,132.0,-1.0,104.0,-77.0,127.0,127.0,127.0,-117.0,-85.0,107.0
126.0,127.0,127.0,123.0,125.0,134.0,131.0,132.0,-1.0,104.0,-77.0,127.0,127.0,127.0,-117.0,-85.0,107.0
126.0,127.0,127.0,123.0,125.0,134.0,131.0,132.0,-1.0,104.0,-77.0,127.0,127.0,127.0,-116.0,-85.0,107.0
126.0,127.0,127.0,123.0,125.0,134.0,131.0,132.0,-1.0,104.0,-77.0,127.0,127.0,127.0,-116.0,-85.0,107.0
126.0,127.0,127.0,123.0,125.0,134.0,131.0,132.0,-1.0,104.0,-77.0,127.0,127.0,127.0,-116.0,-85.0,107.0
126.0,127.0,127.0,123.0,125.0,134.0,131.0,132.0,-1.0,104.0,-77.0,127.0,127.0,127.0,-116.0,-85.0,107.0
126.0,127.0,127.0,123.0,125.0,135.0,130.0,132.0,-1.0,104.0,-77.0,127.0,127.0,127.0,-116.0,-85.0,107.0
126.0,127.0,127.0,123.0,125.0,135.0,130.0,132.0,-1.0,104.0,-77.0,127.0,127.0,127.0,-116.0,-85.0,107.0
126.0,127.0,127.0,123.0,125.0,134.0,131.0,132.0,-1.0,104.0,-77.0,127.0,127.0,127.0,-116.0,-85.0,107.0
126.0,127.0,127.0,123.0,125.0,134.0,131.0,132.0,-1.0,104.0,-77.0,127.0,127.0,127.0,-116.0,-85.0,107.0
126.0,127.0,127.0,123.0,125.0,134.0,131.0,132.0,-1.0,104.0,-77.0,127.0,127.0,127.0,-116.0,-85.0,107.0
126.0,127.0,127.0,123.0,125.0,134.0,131.0,132.0,-1.0,104.0,-77.0,127.0,127.0,127.0,-116.0,-85.0,107.0
126.0,127.0,127.0,123.0,125.0,134.0,132.0,132.0,-1.0,104.0,-77.0,127.0,127.0,127.0,-116.0,-85.0,107.0
126.0,127.0,127.0,123.0,125.0,134.0,132.0,132.0,-1.0,104.0,-77.0,127.0,127.0,127.0,-116.0,-85.0,107.0
126.0,127.0,127.0,123.0,125.0,134.0,131.0,132.0,-1.0,104.0,-77.0,127.0,127.0,127.0,-116.0,-85.0,107.0
126.0,127.0,127.0,123.0,125.0,134.0,131.0,132.0,-1.0,104.0,-77.0,127.0,127.0,127.0,-116.0,-85.0,107.0
126.0,127.0,127.0,123.0,125.0,134.0,131.0,132.0,-1.0,104.0,-77.0,127.0,127.0,127.0,-116.0,-85.0,107.0
126.0,127.0,127.0,123.0,125.0,134.0,131.0,132.0,-1.0,104.0,-77.0,127.0,127.0,127.0,-116.0,-85.0,107.0
126.0,127.0,127.0,123.0,125.0,134.0,132.0,132.0,-1.0,104.0,-77.0,127.0,127.0,127.0,-116.0,-85.0,107.0
126.0,127.0,127.0,123.0,125.0,134.0,132.0,132.0,-1.0,104.0,-77.0,127.0,127.0,127.0,-116.0,-85.0,107.0
126.0,127.0,127.0,123.0,125.0,134.0,132.0,132.0,-1.0,104.0,-77.0,127.0,127.0,127.0,-116.0,-85.0,107.0
126.0,127.0,127.0,123.0,125.0,134.0,132.0,132.0,-1.0,104.0,-77.0,127.0,127.0,127.0,-116.0,-85.0,107.0
126.0,127.0,127.0,123.0,126.0,133.0,131.0,131.0,-1.0,104.0,-77.0,127.0,127.0,127.0,-116.0,-85.0,107.0
126.0,127.0,127.0,123.0,126.0,133.0,132.0,131.0,-1.0,104.0,-77.0,127.0,127.0,127.0,-116.0,-85.0,107.0
126.0,127.0,127.0,123.0,126.0,133.0,131.0,131.0,-1.0,104.0,-77.0,127.0,127.0,127.0,-116.0,-85.0,107.0
126.0,127.0,127.0,123.0,126.0,133.0,131.0,132.0,-1.0,104.0,-77.0,127.0,127.0,127.0,-116.0,-85.0,107.0
126.0,127.0,127.0,123.0,126.0,133.0,131.0,132.0,-1.0,104.0,-77.0,127.0,127.0,127.0,-116.0,-85.0,107.0
126.0,127.0,127.0,123.0,126.0,133.0,132.0,131.0,-1.0,104.0,-77.0,127.0,127.0,127.0,-116.0,-85.0,107.0
126.0,127.0,127.0,123.0,126.0,133.0,132.0,131.0,-1.0,104.0,-77.0,127.0,127.0,127.0,-116.0,-85.0,107.0
126.0,127.0,127.0,123.0,126.0,133.0,132.0,131.0,-1.0,104.0,-77.0,127.0,127.0,127.0,-116.0,-85.0,107.0
126.0,127.0,127.0,123.0,126.0,133.0,132.0,131.0,-1.0,104.0,-77.0,127.0,127.0,127.0,-116.0,-85.0,107.0
126.0,127.0,127.0,123.0,126.0,133.0,132.0,131.0,-1.0,104.0,-77.0,127.0,127.0,127.0,-116.0,-85.0,107.0
126.0,127.0,127.0,124.0,125.0,133.0,129.0,133.0,-1.0,104.0,-77.0,127.0,127.0,127.0,-116.0,-85.0,107.0
126.0,127.0,127.0,124.0,126.0,133.0,130.0,132.0,-1.0,104.0,-77.0,127.0,127.0,127.0,-116.0,-85.0,107.0
126.0,127.0,127.0,124.0,126.0,133.0,129.0,132.0,-1.0,104.0,-77.0,127.0,127.0,127.0,-116.0,-85.0,107.0
126.0,127.0,127.0,124.0,126.0,133.0,130.0,132.0,-1.0,104.0,-77.0,127.0,127.0,127.0,-116.0,-85.0,107.0
126.0,127.0,127.0,123.0,126.0,133.0,130.0,132.0,-1.0,104.0,-77.0,127.0,127.0,127.0,-116.0,-85.0,107.0
126.0,127.0,127.0,123.0,126.0,133.0,130.0,132.0,-1.0,104.0,-77.0,127.0,127.0,127.0,-116.0,-85.0,107.0
126.0,127.0,127.0,123.0,126.0,133.0,130.0,132.0,-1.0,104.0,-77.0,127.0,127.0,127.0,-116.0,-85.0,107.0
126.0,127.0,127.0,123.0,125.0,133.0,130.0,132.0,-1.0,104.0,-77.0,127.0,127.0,127.0,-116.0,-85.0,107.0
126.0,127.0,127.0,124.0,125.0,134.0,129.0,133.0,-1.0,104.0,-77.0,127.0,127.0,127.0,-116.0,-85.0,107.0
126.0,127.0,127.0,124.0,125.0,134.0,129.0,133.0,-1.0,104.0,-77.0,127.0,127.0,127.0,-116.0,-85.0,107.0
126.0,127.0,127.0,124.0,126.0,131.0,129.0,133.0,-1.0,104.0,-77.0,127.0,127.0,127.0,-116.0,-85.0,107.0
126.0,127.0,127.0,124.0,126.0,131.0,129.0,133.0,-1.0,104.0,-77.0,127.0,127.0,127.0,-116.0,-85.0,107.0
126.0,127.0,127.0,124.0,126.0,131.0,129.0,133.0,-1.0,104.0,-77.0,127.0,127.0,127.0,-116.0,-85.0,107.0
126.0,127.0,127.0,124.0,126.0,131.0,130.0,132.0,-1.0,104.0,-77.0,127.0,127.0,127.0,-116.0,-85.0,107.0
126.0,127.0,127.0,123.0,126.0,130.0,130.0,132.0,-1.0,104.0,-77.0,127.0,127.0,127.0,-116.0,-85.0,107.0
126.0,127.0,127.0,124.0,126.0,130.0,130.0,132.0,-1.0,104.0,-77.0,127.0,127.0,127.0,-116.0,-85.0,107.0
126.0,127.0,127.0,124.0,126.0,130.0,130.0,133.0,-1.0,104.0,-77.0,127.0,127.0,127.0,-116.0,-85.0,107.0
126.0,127.0,127.0,124.0,126.0,131.0,129.0,133.0,-1.0,104.0,-77.0,127.0,127.0,127.0,-116.0,-85.0,107.0
126.0,127.0,127.0,124.0,126.0,131.0,129.0,133.0,-1.0,104.0,-77.0,127.0,127.0,127.0,-116.0,-85.0,107.0
126.0,127.0,127.0,124.0,126.0,131.0,129.0,133.0,-1.0,104.0,-77.0,127.0,127.0,127.0,-116.0,-85.0,107.0
126.0,128.0,127.0,124.0,126.0,131.0,129.0,133.0,-1.0,104.0,-78.0,127.0,127.0,127.0,-116.0,-85.0,107.0
126.0,128.0,127.0,124.0,126.0,131.0,129.0,133.0,-1.0,104.0,-78.0,127.0,127.0,127.0,-116.0,-85.0,107.0
126.0,128.0,127.0,123.0,126.0,131.0,130.0,132.0,-1.0,104.0,-78.0,127.0,127.0,127.0,-116.0,-85.0,107.0
126.0,128.0,127.0,123.0,126.0,131.0,130.0,132.0,-1.0,104.0,-78.0,127.0,127.0,127.0,-116.0,-85.0,107.0
126.0,127.0,127.0,123.0,126.0,131.0,130.0,132.0,-1.0,104.0,-78.0,127.0,127.0,127.0,-116.0,-85.0,107.0
126.0,127.0,127.0,123.0,126.0,131.0,130.0,132.0,-1.0,104.0,-78.0,127.0,127.0,127.0,-116.0,-85.0,107.0
126.0,128.0,127.0,123.0,126.0,131.0,129.0,133.0,-1.0,104.0,-78.0,127.0,127.0,127.0,-116.0,-85.0,107.0
126.0,128.0,127.0,124.0,126.0,132.0,129.0,133.0,-1.0,104.0,-78.0,127.0,127.0,127.0,-116.0,-85.0,107.0
126.0,128.0,127.0,124.0,126.0,131.0,129.0,133.0,-1.0,104.0,-78.0,127.0,127.0,127.0,-116.0,-85.0,107.0
126.0,128.0,127.0,124.0,126.0,131.0,129.0,133.0,-1.0,104.0,-78.0,127.0,127.0,127.0,-116.0,-85.0,107.0
126.0,127.0,127.0,123.0,126.0,130.0,129.0,133.0,-1.0,104.0,-78.0,127.0,127.0,127.0,-116.0,-85.0,107.0
126.0,127.0,127.0,123.0,126.0,130.0,130.0,133.0,-1.0,104.0,-78.0,127.0,127.0,127.0,-116.0,-85.0,107.0
126.0,127.0,127.0,123.0,126.0,130.0,130.0,133.0,-1.0,104.0,-78.0,127.0,127.0,127.0,-116.0,-85.0,107.0
126.0,127.0,127.0,123.0,126.0,130.0,130.0,133.0,-1.0,104.0,-78.0,127.0,127.0,127.0,-116.0,-85.0,107.0
126.0,127.0,127.0,123.0,126.0,130.0,130.0,133.0,-1.0,104.0,-78.0,127.0,127.0,127.0,-116.0,-85.0,107.0
126.0,127.0,127.0,123.0,126.0,130.0,129.0,133.0,-1.0,104.0,-78.0,127.0,127.0,127.0,-116.0,-85.0,107.0
126.0,127.0,126.0,123.0,126.0,130.0,129.0,133.0,-1.0,104.0,-78.0,127.0,127.0,127.0,-116.0,-85.0,107.0
126.0,127.0,127.0,123.0,126.0,130.0,129.0,133.0,-1.0,104.0,-78.0,127.0,127.0,127.0,-116.0,-85.0,107.0
126.0,127.0,127.0,123.0,126.0,130.0,129.0,133.0,-1.0,104.0,-78.0,127.0,127.0,127.0,-116.0,-85.0,107.0
126.0,127.0,127.0,123.0,126.0,130.0,129.0,133.0,-1.0,104.0,-78.0,127.0,127.0,127.0,-116.0,-85.0,107.0
126.0,127.0,127.0,124.0,126.0,129.0,130.0,132.0,-1.0,104.0,-78.0,127.0,127.0,127.0,-116.0,-85.0,107.0
126.0,127.0,127.0,123.0,126.0,129.0,130.0,132.0,-1.0,104.0,-78.0,127.0,127.0,127.0,-116.0,-85.0,107.0
126.0,127.0,127.0,123.0,126.0,129.0,130.0,132.0,-1.0,104.0,-78.0,127.0,127.0,127.0,-116.0,-85.0,107.0
126.0,127.0,127.0,124.0,126.0,129.0,130.0,132.0,-1.0,104.0,-78.0,127.0,127.0,127.0,-116.0,-85.0,107.0
126.0,128.0,127.0,124.0,126.0,130.0,129.0,132.0,-1.0,104.0,-78.0,127.0,127.0,127.0,-116.0,-85.0,107.0
126.0,128.0,127.0,124.0,126.0,130.0,129.0,132.0,-1.0,104.0,-78.0,127.0,127.0,127.0,-116.0,-85.0,107.0
126.0,128.0,127.0,124.0,126.0,130.0,129.0,132.0,-1.0,104.0,-78.0,127.0,127.0,127.0,-116.0,-85.0,107.0
126.0,127.0,127.0,124.0,126.0,130.0,129.0,132.0,-1.0,104.0,-78.0,127.0,127.0,127.0,-116.0,-85.0,107.0
126.0,127.0,127.0,124.0,126.0,130.0,129.0,132.0,-1.0,104.0,-78.0,127.0,127.0,127.0,-116.0,-85.0,107.0
126.0,127.0,127.0,124.0,126.0,130.0,129.0,132.0,-1.0,104.0,-78.0,127.0,127.0,127.0,-116.0,-85.0,107.0
126.0,127.0,127.0,124.0,126.0,132.0,129.0,131.0,-1.0,104.0,-78.0,127.0,127.0,127.0,-115.0,-85.0,107.0
126.0,127.0,127.0,124.0,126.0,132.0,129.0,131.0,-1.0,104.0,-78.0,127.0,127.0,127.0,-115.0,-85.0,107.0
126.0,127.0,127.0,124.0,126.0,131.0,129.0,131.0,-1.0,104.0,-78.0,127.0,127.0,127.0,-115.0,-85.0,107.0
126.0,127.0,127.0,124.0,126.0,132.0,128.0,131.0,-1.0,104.0,-78.0,127.0,127.0,127.0,-115.0,-85.0,107.0
126.0,127.0,127.0,124.0,126.0,132.0,128.0,131.0,-1.0,104.0,-78.0,127.0,127.0,127.0,-115.0,-85.0,107.0
126.0,127.0,127.0,124.0,126.0,132.0,128.0,131.0,-1.0,104.0,-78.0,127.0,127.0,127.0,-115.0,-85.0,107.0
126.0,127.0,127.0,124.0,126.0,132.0,128.0,131.0,-1.0,104.0,-78.0,127.0,127.0,127.0,-115.0,-85.0,107.0
126.0,127.0,127.0,124.0,126.0,132.0,128.0,131.0,-1.0,104.0,-78.0,127.0,127.0,127.0,-115.0,-85.0,107.0
126.0,127.0,127.0,124.0,126.0,132.0,128.0,131.0,-1.0,104.0,-78.0,127.0,127.0,127.0,-115.0,-85.0,107.0
126.0,127.0,127.0,124.0,126.0,132.0,129.0,131.0,-1.0,104.0,-78.0,127.0,127.0,127.0,-115.0,-85.0,107.0
126.0,127.0,127.0,124.0,126.0,134.0,129.0,130.0,-1.0,104.0,-77.0,127.0,127.0,127.0,-115.0,-85.0,107.0
126.0,127.0,127.0,124.0,126.0,134.0,129.0,130.0,-1.0,104.0,-77.0,127.0,127.0,127.0,-115.0,-85.0,107.0
126.0,127.0,127.0,124.0,125.0,134.0,128.0,130.0,-1.0,104.0,-77.0,127.0,127.0,127.0,-115.0,-85.0,107.0
126.0,127.0,127.0,124.0,126.0,134.0,128.0,131.0,-1.0,104.0,-77.0,127.0,127.0,127.0,-115.0,-85.0,107.0
126.0,127.0,127.0,124.0,126.0,134.0,128.0,131.0,-1.0,104.0,-77.0,127.0,127.0,127.0,-115.0,-85.0,107.0
126.0,127.0,127.0,124.0,126.0,134.0,128.0,131.0,-1.0,104.0,-77.0,127.0,127.0,127.0,-115.0,-85.0,107.0
126.0,127.0,127.0,124.0,126.0,134.0,128.0,130.0,-1.0,104.0,-77.0,127.0,127.0,127.0,-115.0,-85.0,107.0
127.0,127.0,127.0,124.0,126.0,134.0,128.0,130.0,-1.0,104.0,-77.0,127.0,127.0,127.0,-115.0,-85.0,107.0
126.0,127.0,127.0,124.0,125.0,134.0,129.0,130.0,-1.0,104.0,-77.0,127.0,127.0,127.0,-115.0,-85.0,107.0
126.0,127.0,127.0,123.0,125.0,133.0,129.0,130.0,-1.0,104.0,-77.0,127.0,127.0,127.0,-115.0,-85.0,107.0
126.0,127.0,127.0,123.0,126.0,133.0,129.0,129.0,-1.0,104.0,-77.0,127.0,127.0,127.0,-115.0,-85.0,107.0
126.0,127.0,127.0,123.0,126.0,133.0,129.0,129.0,-1.0,104.0,-77.0,127.0,127.0,127.0,-115.0,-85.0,107.0
126.0,127.0,127.0,123.0,126.0,133.0,129.0,129.0,-1.0,104.0,-77.0,127.0,127.0,127.0,-115.0,-85.0,107.0
126.0,127.0,127.0,123.0,126.0,133.0,129.0,129.0,-1.0,104.0,-77.0,127.0,127.0,127.0,-115.0,-85.0,107.0
126.0,127.0,127.0,123.0,126.0,133.0,128.0,129.0,-1.0,104.0,-77.0,127.0,127.0,127.0,-115.0,-85.0,107.0
126.0,127.0,127.0,124.0,126.0,134.0,128.0,130.0,-1.0,104.0,-77.0,127.0,127.0,127.0,-115.0,-85.0,107.0
126.0,127.0,127.0,124.0,126.0,134.0,128.0,130.0,-1.0,104.0,-77.0,127.0,127.0,127.0,-115.0,-85.0,107.0
126.0,127.0,127.0,123.0,126.0,133.0,129.0,129.0,-1.0,104.0,-77.0,127.0,127.0,127.0,-115.0,-85.0,107.0
126.0,127.0,127.0,123.0,126.0,133.0,129.0,129.0,-1.0,104.0,-77.0,127.0,127.0,127.0,-115.0,-85.0,107.0
126.0,127.0,127.0,123.0,126.0,133.0,129.0,129.0,-1.0,104.0,-77.0,127.0,127.0,127.0,-115.0,-85.0,107.0
126.0,127.0,127.0,124.0,127.0,134.0,128.0,130.0,-1.0,105.0,-76.0,127.0,127.0,127.0,-115.0,-85.0,107.0
126.0,127.0,127.0,124.0,127.0,134.0,128.0,130.0,-1.0,105.0,-76.0,127.0,127.0,127.0,-115.0,-85.0,107.0
126.0,127.0,127.0,124.0,127.0,134.0,128.0,130.0,-1.0,105.0,-76.0,127.0,127.0,127.0,-115.0,-85.0,107.0
126.0,127.0,127.0,124.0,127.0,134.0,128.0,130.0,-1.0,105.0,-76.0,127.0,127.0,127.0,-115.0,-85.0,107.0
126.0,127.0,127.0,124.0,127.0,134.0,128.0,130.0,-1.0,105.0,-76.0,127.0,127.0,127.0,-115.0,-85.0,107.0
126.0,127.0,127.0,124.0,127.0,133.0,128.0,130.0,-1.0,105.0,-76.0,127.0,127.0,127.0,-115.0,-85.0,107.0
126.0,127.0,127.0,124.0,127.0,133.0,129.0,130.0,-1.0,105.0,-76.0,127.0,127.0,127.0,-115.0,-85.0,107.0
126.0,127.0,127.0,124.0,127.0,133.0,128.0,130.0,-1.0,105.0,-76.0,127.0,127.0,127.0,-115.0,-85.0,107.0
126.0,127.0,127.0,124.0,127.0,134.0,128.0,130.0,-1.0,105.0,-76.0,127.0,127.0,127.0,-115.0,-85.0,107.0
126.0,127.0,127.0,124.0,127.0,134.0,128.0,130.0,-1.0,105.0,-76.0,127.0,127.0,127.0,-115.0,-85.0,107.0
126.0,127.0,127.0,124.0,126.0,133.0,128.0,131.0,-1.0,105.0,-76.0,127.0,127.0,127.0,-115.0,-85.0,107.0
126.0,127.0,127.0,124.0,126.0,133.0,128.0,131.0,-1.0,105.0,-76.0,127.0,127.0,127.0,-115.0,-85.0,107.0
126.0,127.0,127.0,124.0,126.0,133.0,128.0,131.0,-1.0,105.0,-76.0,127.0,127.0,127.0,-115.0,-85.0,107.0
126.0,127.0,127.0,124.0,126.0,133.0,128.0,131.0,-1.0,105.0,-76.0,127.0,127.0,127.0,-115.0,-85.0,107.0
126.0,127.0,127.0,124.0,126.0,133.0,128.0,130.0,-1.0,105.0,-76.0,127.0,127.0,127.0,-115.0,-85.0,107.0
126.0,127.0,127.0,124.0,126.0,133.0,128.0,130.0,-1.0,105.0,-76.0,127.0,127.0,127.0,-115.0,-85.0,107.0
126.0,127.0,127.0,124.0,126.0,132.0,128.0,130.0,-1.0,105.0,-76.0,127.0,127.0,127.0,-115.0,-85.0,107.0
126.0,127.0,126.0,124.0,126.0,133.0,127.0,131.0,-1.0,105.0,-76.0,127.0,127.0,127.0,-115.0,-85.0,107.0
126.0,127.0,126.0,124.0,126.0,133.0,127.0,131.0,-1.0,105.0,-76.0,127.0,127.0,127.0,-115.0,-85.0,107.0
126.0,127.0,127.0,124.0,126.0,133.0,127.0,131.0,-1.0,105.0,-76.0,127.0,127.0,127.0,-115.0,-85.0,107.0
126.0,127.0,127.0,124.0,126.0,132.0,127.0,130.0,-1.0,105.0,-76.0,127.0,127.0,127.0,-115.0,-85.0,107.0
126.0,127.0,127.0,124.0,127.0,132.0,127.0,130.0,-1.0,105.0,-76.0,127.0,127.0,127.0,-115.0,-85.0,107.0
126.0,127.0,127.0,124.0,127.0,132.0,127.0,130.0,-1.0,105.0,-76.0,127.0,127.0,127.0,-115.0,-85.0,107.0
126.0,127.0,127.0,124.0,127.0,132.0,127.0,130.0,-1.0,105.0,-76.0,127.0,127.0,127.0,-115.0,-85.0,107.0
126.0,127.0,127.0,124.0,126.0,132.0,128.0,130.0,-1.0,105.0,-76.0,127.0,127.0,127.0,-115.0,-85.0,107.0
126.0,127.0,127.0,124.0,126.0,132.0,128.0,130.0,-1.0,105.0,-76.0,127.0,127.0,127.0,-115.0,-85.0,107.0
126.0,127.0,127.0,124.0,126.0,132.0,127.0,130.0,-1.0,105.0,-76.0,127.0,127.0,127.0,-115.0,-85.0,107.0
126.0,127.0,127.0,124.0,126.0,132.0,127.0,130.0,-1.0,105.0,-76.0,127.0,127.0,127.0,-115.0,-85.0,107.0
126.0,127.0,127.0,124.0,126.0,132.0,127.0,130.0,-1.0,105.0,-76.0,127.0,127.0,127.0,-115.0,-85.0,107.0
126.0,127.0,127.0,124.0,126.0,132.0,127.0,130.0,-1.0,105.0,-76.0,127.0,127.0,127.0,-115.0,-85.0,107.0
126.0,127.0,127.0,124.0,127.0,132.0,127.0,129.0,-1.0,105.0,-76.0,127.0,127.0,127.0,-115.0,-85.0,107.0
126.0,127.0,127.0,124.0,127.0,132.0,127.0,129.0,-1.0,105.0,-76.0,127.0,127.0,127.0,-115.0,-85.0,107.0
126.0,127.0,127.0,123.0,127.0,132.0,127.0,129.0,-1.0,105.0,-76.0,127.0,127.0,127.0,-115.0,-85.0,107.0
126.0,127.0,127.0,123.0,126.0,132.0,128.0,129.0,-1.0,105.0,-76.0,127.0,127.0,127.0,-115.0,-85.0,107.0
126.0,127.0,127.0,123.0,127.0,132.0,128.0,129.0,-1.0,105.0,-76.0,127.0,127.0,127.0,-115.0,-85.0,107.0
126.0,127.0,127.0,123.0,126.0,132.0,127.0,129.0,-1.0,105.0,-76.0,127.0,127.0,127.0,-115.0,-85.0,107.0
126.0,127.0,127.0,124.0,126.0,132.0,127.0,129.0,-1.0,105.0,-76.0,127.0,127.0,127.0,-115.0,-85.0,107.0
126.0,127.0,127.0,124.0,126.0,132.0,127.0,129.0,-1.0,105.0,-76.0,127.0,127.0,127.0,-115.0,-85.0,107.0
126.0,127.0,127.0,124.0,127.0,132.0,127.0,129.0,-1.0,105.0,-76.0,127.0,127.0,127.0,-115.0,-85.0,107.0
126.0,127.0,127.0,124.0,127.0,132.0,127.0,129.0,-1.0,105.0,-76.0,127.0,127.0,127.0,-115.0,-85.0,107.0
126.0,127.0,127.0,123.0,127.0,132.0,127.0,129.0,-1.0,106.0,-76.0,127.0,127.0,127.0,-115.0,-85.0,107.0
126.0,127.0,127.0,123.0,127.0,132.0,127.0,128.0,-1.0,106.0,-76.0,127.0,127.0,127.0,-115.0,-85.0,107.0
126.0,127.0,127.0,123.0,127.0,131.0,128.0,128.0,-1.0,106.0,-76.0,127.0,127.0,127.0,-115.0,-85.0,107.0
126.0,127.0,127.0,123.0,127.0,132.0,128.0,128.0,-1.0,106.0,-76.0,127.0,127.0,127.0,-115.0,-85.0,107.0
126.0,127.0,127.0,123.0,127.0,132.0,127.0,128.0,-1.0,106.0,-76.0,127.0,127.0,127.0,-115.0,-85.0,107.0
126.0,128.0,127.0,123.0,127.0,132.0,127.0,129.0,-1.0,106.0,-76.0,127.0,127.0,127.0,-115.0,-85.0,107.0
126.0,127.0,127.0,123.0,127.0,132.0,127.0,129.0,-1.0,106.0,-76.0,127.0,127.0,127.0,-115.0,-85.0,107.0
126.0,127.0,127.0,123.0,127.0,132.0,127.0,129.0,-1.0,106.0,-76.0,127.0,127.0,127.0,-115.0,-85.0,107.0
126.0,127.0,127.0,123.0,127.0,132.0,127.0,129.0,-1.0,106.0,-76.0,127.0,127.0,127.0,-115.0,-85.0,107.0
126.0,127.0,127.0,123.0,127.0,132.0,127.0,129.0,-1.0,106.0,-76.0,127.0,127.0,127.0,-115.0,-85.0,107.0
126.0,127.0,127.0,124.0,127.0,132.0,127.0,129.0,-1.0,106.0,-77.0,127.0,127.0,127.0,-115.0,-85.0,107.0
126.0,127.0,127.0,124.0,127.0,131.0,128.0,128.0,-1.0,106.0,-77.0,127.0,127.0,127.0,-115.0,-85.0,107.0
126.0,127.0,127.0,124.0,127.0,132.0,128.0,128.0,-1.0,106.0,-77.0,127.0,127.0,127.0,-115.0,-85.0,107.0
126.0,127.0,127.0,124.0,126.0,132.0,128.0,129.0,-1.0,106.0,-77.0,127.0,127.0,127.0,-115.0,-85.0,107.0
127.0,127.0,127.0,124.0,126.0,132.0,127.0,129.0,-1.0,106.0,-77.0,127.0,127.0,127.0,-115.0,-85.0,107.0
126.0,127.0,127.0,124.0,126.0,132.0,127.0,129.0,-1.0,106.0,-77.0,127.0,127.0,127.0,-115.0,-85.0,107.0
126.0,127.0,127.0,124.0,126.0,132.0,127.0,129.0,-1.0,106.0,-77.0,127.0,127.0,127.0,-115.0,-85.0,107.0
126.0,127.0,127.0,124.0,127.0,132.0,127.0,129.0,-1.0,106.0,-77.0,127.0,127.0,127.0,-115.0,-85.0,107.0
126.0,127.0,127.0,124.0,127.0,132.0,127.0,129.0,-1.0,106.0,-77.0,127.0,127.0,127.0,-115.0,-85.0,107.0
126.0,127.0,127.0,124.0,127.0,132.0,127.0,129.0,-1.0,106.0,-77.0,127.0,127.0,127.0,-115.0,-85.0,107.0
126.0,127.0,127.0,123.0,126.0,131.0,128.0,129.0,-1.0,106.0,-77.0,127.0,127.0,127.0,-115.0,-85.0,107.0
126.0,127.0,127.0,123.0,126.0,131.0,128.0,129.0,-1.0,106.0,-77.0,127.0,127.0,127.0,-115.0,-85.0,107.0
126.0,127.0,127.0,123.0,126.0,131.0,127.0,129.0,-1.0,106.0,-77.0,127.0,127.0,127.0,-115.0,-85.0,107.0
126.0,127.0,127.0,124.0,126.0,132.0,127.0,129.0,-1.0,106.0,-77.0,127.0,127.0,127.0,-115.0,-85.0,107.0
126.0,127.0,127.0,124.0,126.0,132.0,127.0,130.0,-1.0,106.0,-77.0,127.0,127.0,127.0,-115.0,-85.0,107.0
126.0,127.0,127.0,124.0,126.0,132.0,127.0,130.0,-1.0,106.0,-77.0,127.0,127.0,127.0,-115.0,-85.0,107.0
126.0,127.0,127.0,124.0,126.0,132.0,127.0,129.0,-1.0,106.0,-77.0,127.0,127.0,127.0,-115.0,-85.0,107.0
126.0,127.0,127.0,124.0,126.0,132.0,127.0,129.0,-1.0,106.0,-77.0,127.0,127.0,127.0,-115.0,-85.0,107.0
126.0,127.0,127.0,124.0,126.0,132.0,127.0,129.0,-1.0,106.0,-77.0,127.0,127.0,127.0,-115.0,-85.0,107.0
126.0,127.0,127.0,124.0,126.0,131.0,127.0,129.0,-1.0,106.0,-77.0,127.0,127.0,127.0,-115.0,-85.0,107.0
126.0,127.0,127.0,124.0,127.0,130.0,128.0,129.0,-1.0,106.0,-78.0,127.0,127.0,127.0,-115.0,-85.0,107.0
126.0,127.0,127.0,124.0,127.0,130.0,128.0,129.0,-1.0,106.0,-78.0,127.0,127.0,127.0,-115.0,-85.0,107.0
126.0,127.0,127.0,124.0,127.0,130.0,128.0,129.0,-1.0,106.0,-78.0,127.0,127.0,127.0,-115.0,-85.0,107.0
126.0,127.0,127.0,124.0,127.0,130.0,128.0,129.0,-1.0,106.0,-78.0,127.0,127.0,127.0,-115.0,-85.0,107.0
126.0,127.0,127.0,124.0,127.0,131.0,128.0,129.0,-1.0,106.0,-78.0,127.0,127.0,127.0,-115.0,-85.0,107.0
126.0,127.0,127.0,124.0,126.0,131.0,127.0,130.0,-1.0,106.0,-78.0,127.0,127.0,127.0,-115.0,-85.0,107.0
126.0,127.0,127.0,124.0,126.0,131.0,127.0,130.0,-1.0,106.0,-78.0,127.0,127.0,127.0,-115.0,-85.0,107.0
126.0,127.0,127.0,124.0,127.0,131.0,127.0,130.0,-1.0,106.0,-78.0,127.0,127.0,127.0,-115.0,-85.0,107.0
126.0,127.0,127.0,124.0,127.0,131.0,127.0,130.0,-1.0,106.0,-78.0,127.0,127.0,127.0,-115.0,-85.0,107.0
126.0,127.0,127.0,124.0,127.0,130.0,128.0,129.0,-1.0,106.0,-78.0,127.0,127.0,127.0,-115.0,-85.0,107.0
126.0,127.0,127.0,124.0,126.0,131.0,126.0,131.0,-1.0,106.0,-78.0,127.0,127.0,127.0,-115.0,-85.0,107.0
126.0,127.0,127.0,124.0,126.0,131.0,126.0,131.0,-1.0,106.0,-78.0,127.0,127.0,127.0,-115.0,-85.0,107.0
126.0,127.0,127.0,124.0,126.0,131.0,126.0,131.0,-1.0,106.0,-78.0,127.0,127.0,127.0,-115.0,-85.0,107.0
126.0,127.0,127.0,124.0,126.0,131.0,126.0,131.0,-1.0,106.0,-78.0,127.0,127.0,127.0,-115.0,-85.0,107.0
126.0,127.0,127.0,124.0,126.0,131.0,126.0,131.0,-1.0,106.0,-78.0,127.0,127.0,127.0,-115.0,-85.0,107.0
126.0,127.0,127.0,124.0,126.0,131.0,126.0,131.0,-1.0,106.0,-78.0,127.0,127.0,127.0,-115.0,-85.0,107.0
126.0,127.0,127.0,124.0,127.0,131.0,126.0,131.0,-1.0,106.0,-78.0,127.0,127.0,127.0,-115.0,-85.0,107.0
126.0,127.0,127.0,124.0,127.0,131.0,126.0,131.0,-1.0,106.0,-78.0,127.0,127.0,127.0,-115.0,-85.0,107.0
126.0,127.0,126.0,124.0,126.0,131.0,126.0,131.0,-1.0,106.0,-78.0,127.0,127.0,127.0,-115.0,-85.0,107.0
126.0,127.0,127.0,124.0,126.0,131.0,126.0,131.0,-1.0,106.0,-78.0,127.0,127.0,127.0,-115.0,-85.0,107.0
126.0,127.0,127.0,124.0,126.0,131.0,125.0,131.0,-1.0,106.0,-79.0,127.0,127.0,127.0,-115.0,-85.0,107.0
126.0,127.0,127.0,124.0,126.0,131.0,125.0,131.0,-1.0,106.0,-79.0,127.0,127.0,127.0,-115.0,-85.0,107.0
126.0,127.0,127.0,124.0,126.0,131.0,125.0,131.0,-1.0,106.0,-79.0,127.0,127.0,127.0,-115.0,-85.0,107.0
126.0,127.0,127.0,124.0,126.0,131.0,125.0,131.0,-1.0,106.0,-79.0,127.0,127.0,127.0,-115.0,-85.0,107.0
126.0,127.0,127.0,124.0,126.0,131.0,125.0,131.0,-1.0,106.0,-79.0,127.0,127.0,127.0,-115.0,-85.0,107.0
126.0,127.0,127.0,124.0,126.0,131.0,125.0,131.0,-1.0,106.0,-79.0,127.0,127.0,127.0,-115.0,-85.0,107.0
126.0,127.0,127.0,124.0,126.0,131.0,125.0,131.0,-1.0,106.0,-79.0,127.0,127.0,127.0,-115.0,-85.0,107.0
126.0,127.0,126.0,124.0,126.0,131.0,125.0,131.0,-1.0,106.0,-79.0,127.0,127.0,127.0,-115.0,-85.0,107.0
126.0,127.0,127.0,124.0,126.0,131.0,125.0,131.0,-1.0,106.0,-79.0,127.0,127.0,127.0,-115.0,-85.0,107.0
126.0,127.0,127.0,124.0,126.0,131.0,125.0,131.0,-1.0,106.0,-79.0,127.0,127.0,127.0,-115.0,-85.0,107.0
126.0,127.0,127.0,125.0,126.0,131.0,125.0,132.0,-1.0,106.0,-79.0,127.0,127.0,127.0,-115.0,-85.0,107.0
127.0,127.0,127.0,125.0,126.0,131.0,125.0,132.0,-1.0,106.0,-79.0,127.0,127.0,127.0,-115.0,-85.0,107.0
126.0,127.0,127.0,125.0,126.0,131.0,125.0,132.0,-1.0,106.0,-79.0,127.0,127.0,127.0,-115.0,-85.0,107.0
126.0,127.0,127.0,125.0,126.0,131.0,126.0,132.0,-1.0,106.0,-79.0,127.0,127.0,127.0,-115.0,-85.0,107.0
127.0,127.0,127.0,125.0,126.0,131.0,126.0,132.0,-1.0,106.0,-79.0,127.0,127.0,127.0,-115.0,-85.0,107.0
126.0,127.0,127.0,125.0,126.0,131.0,126.0,132.0,-1.0,106.0,-79.0,127.0,127.0,127.0,-115.0,-85.0,107.0
127.0,127.0,127.0,124.0,126.0,131.0,126.0,132.0,-1.0,106.0,-79.0,127.0,127.0,127.0,-115.0,-85.0,107.0
127.0,127.0,127.0,124.0,126.0,131.0,125.0,132.0,-1.0,106.0,-79.0,127.0,127.0,127.0,-115.0,-85.0,107.0
127.0,127.0,127.0,124.0,126.0,131.0,125.0,132.0,-1.0,106.0,-79.0,127.0,127.0,127.0,-115.0,-85.0,107.0
127.0,127.0,127.0,124.0,126.0,131.0,125.0,132.0,-1.0,106.0,-79.0,127.0,127.0,127.0,-115.0,-85.0,107.0
127.0,127.0,127.0,125.0,126.0,131.0,126.0,131.0,-1.0,106.0,-79.0,127.0,127.0,127.0,-115.0,-85.0,107.0
126.0,127.0,127.0,125.0,126.0,131.0,126.0,131.0,-1.0,106.0,-79.0,127.0,127.0,127.0,-115.0,-85.0,107.0
126.0,127.0,127.0,125.0,126.0,131.0,126.0,131.0,-1.0,106.0,-79.0,127.0,127.0,127.0,-115.0,-85.0,107.0
126.0,127.0,127.0,125.0,126.0,131.0,126.0,131.0,-1.0,106.0,-79.0,127.0,127.0,127.0,-115.0,-85.0,107.0
126.0,127.0,127.0,125.0,126.0,130.0,126.0,131.0,-1.0,106.0,-79.0,127.0,127.0,127.0,-115.0,-85.0,107.0
127.0,127.0,127.0,125.0,126.0,131.0,126.0,131.0,-1.0,106.0,-79.0,127.0,127.0,127.0,-115.0,-85.0,107.0
127.0,127.0,127.0,125.0,126.0,131.0,126.0,132.0,-1.0,106.0,-79.0,127.0,127.0,127.0,-115.0,-85.0,107.0
126.0,127.0,127.0,125.0,126.0,131.0,126.0,132.0,-1.0,106.0,-79.0,127.0,127.0,127.0,-115.0,-85.0,107.0
127.0,127.0,127.0,125.0,126.0,131.0,126.0,131.0,-1.0,106.0,-79.0,127.0,127.0,127.0,-115.0,-85.0,107.0
127.0,127.0,127.0,125.0,126.0,131.0,126.0,131.0,-1.0,106.0,-79.0,127.0,127.0,127.0,-115.0,-85.0,107.0
127.0,127.0,127.0,125.0,126.0,131.0,126.0,131.0,-1.0,106.0,-79.0,127.0,127.0,127.0,-115.0,-85.0,107.0
127.0,127.0,127.0,125.0,126.0,131.0,126.0,131.0,-1.0,106.0,-79.0,127.0,127.0,127.0,-115.0,-85.0,107.0
127.0,127.0,127.0,125.0,126.0,131.0,126.0,131.0,-1.0,106.0,-79.0,127.0,127.0,127.0,-115.0,-85.0,107.0
126.0,127.0,127.0,125.0,126.0,131.0,126.0,131.0,-1.0,106.0,-79.0,127.0,127.0,127.0,-115.0,-85.0,107.0
127.0,127.0,127.0,125.0,126.0,131.0,127.0,131.0,-1.0,106.0,-79.0,127.0,127.0,127.0,-115.0,-85.0,107.0
127.0,127.0,127.0,125.0,126.0,131.0,126.0,131.0,-1.0,106.0,-79.0,127.0,127.0,127.0,-115.0,-85.0,107.0
127.0,127.0,127.0,125.0,126.0,131.0,126.0,131.0,-1.0,106.0,-79.0,127.0,127.0,127.0,-115.0,-85.0,107.0
127.0,127.0,127.0,125.0,126.0,131.0,126.0,131.0,-1.0,106.0,-79.0,127.0,127.0,127.0,-115.0,-85.0,107.0
127.0,127.0,127.0,125.0,126.0,131.0,126.0,131.0,-1.0,106.0,-79.0,127.0,127.0,127.0,-115.0,-85.0,107.0
127.0,127.0,127.0,125.0,126.0,131.0,126.0,131.0,-1.0,106.0,-79.0,127.0,127.0,127.0,-115.0,-85.0,107.0
127.0,128.0,127.0,124.0,126.0,132.0,126.0,131.0,-1.0,106.0,-79.0,127.0,127.0,127.0,-115.0,-85.0,107.0
127.0,127.0,127.0,124.0,126.0,131.0,126.0,131.0,-1.0,106.0,-79.0,127.0,127.0,127.0,-115.0,-85.0,107.0
127.0,127.0,127.0,124.0,126.0,131.0,126.0,131.0,-1.0,106.0,-79.0,127.0,127.0,127.0,-115.0,-85.0,107.0
127.0,127.0,127.0,124.0,126.0,131.0,126.0,130.0,-1.0,106.0,-79.0,127.0,127.0,127.0,-115.0,-85.0,107.0
127.0,128.0,127.0,124.0,126.0,131.0,126.0,131.0,-1.0,106.0,-79.0,127.0,127.0,127.0,-115.0,-85.0,107.0
127.0,128.0,127.0,124.0,126.0,131.0,126.0,131.0,-1.0,106.0,-79.0,127.0,127.0,127.0,-115.0,-85.0,107.0
127.0,128.0,127.0,124.0,126.0,131.0,126.0,131.0,-1.0,106.0,-79.0,127.0,127.0,127.0,-115.0,-85.0,107.0
127.0,128.0,127.0,125.0,126.0,132.0,125.0,131.0,-1.0,106.0,-79.0,127.0,127.0,127.0,-115.0,-85.0,107.0
127.0,128.0,127.0,125.0,126.0,132.0,125.0,131.0,-1.0,106.0,-79.0,127.0,127.0,127.0,-115.0,-85.0,107.0
127.0,128.0,127.0,125.0,126.0,132.0,126.0,131.0,-1.0,106.0,-79.0,127.0,127.0,127.0,-115.0,-85.0,107.0
126.0,127.0,127.0,125.0,127.0,130.0,127.0,129.0,-1.0,106.0,-78.0,127.0,127.0,127.0,-115.0,-85.0,107.0
126.0,127.0,127.0,125.0,127.0,131.0,127.0,129.0,-1.0,106.0,-78.0,127.0,127.0,127.0,-115.0,-85.0,107.0
126.0,127.0,127.0,124.0,126.0,131.0,127.0,130.0,-1.0,106.0,-78.0,127.0,127.0,127.0,-115.0,-85.0,107.0
126.0,127.0,127.0,124.0,126.0,131.0,127.0,129.0,-1.0,106.0,-78.0,127.0,127.0,127.0,-115.0,-85.0,107.0
126.0,127.0,127.0,124.0,126.0,131.0,127.0,130.0,-1.0,106.0,-78.0,127.0,127.0,127.0,-115.0,-85.0,107.0
126.0,127.0,127.0,124.0,127.0,130.0,127.0,129.0,-1.0,106.0,-78.0,127.0,127.0,127.0,-115.0,-85.0,107.0
126.0,127.0,127.0,124.0,127.0,130.0,127.0,129.0,-1.0,106.0,-78.0,127.0,127.0,127.0,-115.0,-85.0,107.0
126.0,127.0,127.0,124.0,127.0,131.0,127.0,129.0,-1.0,106.0,-78.0,127.0,127.0,127.0,-115.0,-85.0,107.0
126.0,127.0,127.0,124.0,127.0,130.0,127.0,129.0,-1.0,106.0,-78.0,127.0,127.0,127.0,-115.0,-85.0,107.0
126.0,127.0,127.0,124.0,127.0,130.0,127.0,129.0,-1.0,106.0,-78.0,127.0,127.0,127.0,-115.0,-85.0,107.0
126.0,127.0,127.0,125.0,127.0,132.0,126.0,129.0,-1.0,107.0,-78.0,127.0,127.0,127.0,-115.0,-85.0,107.0
126.0,127.0,127.0,124.0,126.0,131.0,126.0,129.0,-1.0,107.0,-78.0,127.0,127.0,127.0,-115.0,-85.0,107.0
126.0,127.0,127.0,124.0,126.0,131.0,126.0,129.0,-1.0,107.0,-78.0,127.0,127.0,127.0,-115.0,-85.0,107.0
126.0,127.0,127.0,124.0,126.0,131.0,126.0,129.0,-1.0,107.0,-78.0,127.0,127.0,127.0,-115.0,-85.0,107.0
126.0,127.0,127.0,125.0,126.0,131.0,126.0,129.0,-1.0,107.0,-78.0,127.0,127.0,127.0,-115.0,-85.0,107.0
126.0,127.0,127.0,125.0,126.0,132.0,126.0,129.0,-1.0,107.0,-78.0,127.0,127.0,127.0,-115.0,-85.0,107.0
126.0,127.0,127.0,125.0,126.0,132.0,126.0,129.0,-1.0,107.0,-78.0,127.0,127.0,127.0,-115.0,-85.0,107.0
126.0,127.0,127.0,125.0,126.0,132.0,126.0,129.0,-1.0,107.0,-78.0,127.0,127.0,127.0,-115.0,-85.0,107.0
126.0,127.0,127.0,125.0,126.0,132.0,126.0,129.0,-1.0,107.0,-78.0,127.0,127.0,127.0,-115.0,-85.0,107.0
126.0,127.0,127.0,125.0,126.0,132.0,126.0,129.0,-1.0,107.0,-78.0,127.0,127.0,127.0,-115.0,-85.0,107.0
126.0,127.0,127.0,124.0,126.0,130.0,128.0,128.0,-1.0,107.0,-78.0,127.0,127.0,127.0,-115.0,-85.0,107.0
126.0,127.0,127.0,124.0,127.0,130.0,128.0,128.0,-1.0,107.0,-78.0,127.0,127.0,127.0,-115.0,-85.0,107.0
126.0,127.0,127.0,124.0,127.0,130.0,128.0,128.0,-1.0,107.0,-78.0,127.0,127.0,127.0,-115.0,-85.0,107.0
126.0,127.0,127.0,124.0,127.0,130.0,128.0,128.0,-1.0,107.0,-78.0,127.0,127.0,127.0,-115.0,-85.0,107.0
126.0,127.0,127.0,124.0,127.0,130.0,128.0,128.0,-1.0,107.0,-78.0,127.0,127.0,127.0,-115.0,-85.0,107.0
126.0,127.0,127.0,124.0,127.0,130.0,128.0,128.0,-1.0,107.0,-78.0,127.0,127.0,127.0,-115.0,-85.0,107.0
126.0,127.0,127.0,124.0,127.0,130.0,128.0,128.0,-1.0,107.0,-78.0,127.0,127.0,127.0,-115.0,-85.0,107.0
126.0,127.0,127.0,124.0,127.0,130.0,128.0,128.0,-1.0,107.0,-78.0,127.0,127.0,127.0,-115.0,-85.0,107.0
126.0,127.0,127.0,124.0,127.0,130.0,128.0,128.0,-1.0,107.0,-78.0,127.0,127.0,127.0,-115.0,-85.0,107.0
126.0,127.0,127.0,124.0,127.0,130.0,128.0,128.0,-1.0,107.0,-78.0,127.0,127.0,127.0,-115.0,-85.0,107.0
126.0,127.0,127.0,125.0,127.0,131.0,128.0,128.0,-1.0,106.0,-78.0,127.0,127.0,127.0,-115.0,-85.0,107.0
127.0,127.0,127.0,125.0,127.0,131.0,127.0,129.0,-1.0,106.0,-78.0,127.0,127.0,127.0,-115.0,-85.0,107.0
127.0,127.0,127.0,125.0,127.0,131.0,127.0,129.0,-1.0,106.0,-78.0,127.0,127.0,127.0,-115.0,-85.0,107.0
127.0,127.0,127.0,125.0,127.0,131.0,127.0,128.0,-1.0,106.0,-78.0,127.0,127.0,127.0,-115.0,-85.0,107.0
127.0,127.0,127.0,125.0,127.0,130.0,127.0,128.0,-1.0,106.0,-78.0,127.0,127.0,127.0,-115.0,-85.0,107.0
127.0,127.0,127.0,125.0,127.0,131.0,127.0,128.0,-1.0,106.0,-78.0,127.0,127.0,127.0,-115.0,-85.0,107.0
126.0,127.0,127.0,125.0,126.0,131.0,127.0,129.0,-1.0,106.0,-78.0,127.0,127.0,127.0,-115.0,-85.0,107.0
127.0,127.0,127.0,125.0,126.0,131.0,127.0,129.0,-1.0,106.0,-78.0,127.0,127.0,127.0,-115.0,-85.0,107.0
127.0,127.0,127.0,125.0,127.0,131.0,127.0,129.0,-1.0,106.0,-78.0,127.0,127.0,127.0,-115.0,-85.0,107.0
126.0,127.0,127.0,125.0,127.0,130.0,128.0,128.0,-1.0,106.0,-78.0,127.0,127.0,127.0,-115.0,-85.0,107.0
127.0,127.0,127.0,124.0,127.0,131.0,127.0,129.0,-1.0,106.0,-78.0,127.0,127.0,127.0,-115.0,-85.0,107.0
127.0,127.0,127.0,124.0,127.0,131.0,127.0,129.0,-1.0,106.0,-78.0,127.0,127.0,127.0,-115.0,-85.0,107.0
127.0,127.0,127.0,124.0,127.0,131.0,127.0,129.0,-1.0,106.0,-78.0,127.0,127.0,127.0,-115.0,-85.0,107.0
127.0,127.0,127.0,124.0,127.0,131.0,127.0,129.0,-1.0,106.0,-78.0,127.0,127.0,127.0,-115.0,-85.0,107.0
127.0,127.0,127.0,125.0,127.0,131.0,127.0,129.0,-1.0,106.0,-78.0,127.0,127.0,127.0,-115.0,-85.0,107.0
127.0,127.0,127.0,124.0,127.0,131.0,127.0,129.0,-1.0,106.0,-78.0,127.0,127.0,127.0,-115.0,-85.0,107.0
127.0,127.0,127.0,125.0,127.0,131.0,126.0,129.0,-1.0,106.0,-78.0,127.0,127.0,127.0,-115.0,-85.0,107.0
127.0,127.0,127.0,125.0,127.0,131.0,126.0,130.0,-1.0,106.0,-78.0,127.0,127.0,127.0,-115.0,-85.0,107.0
127.0,127.0,127.0,124.0,127.0,130.0,127.0,129.0,-1.0,106.0,-78.0,127.0,127.0,127.0,-115.0,-85.0,107.0
127.0,127.0,127.0,124.0,127.0,130.0,127.0,129.0,-1.0,106.0,-78.0,127.0,127.0,127.0,-115.0,-85.0,107.0
127.0,127.0,127.0,124.0,127.0,131.0,127.0,129.0,-1.0,105.0,-78.0,127.0,127.0,127.0,-115.0,-85.0,107.0
127.0,127.0,127.0,124.0,127.0,130.0,127.0,129.0,-1.0,105.0,-78.0,127.0,127.0,127.0,-115.0,-85.0,107.0
127.0,127.0,127.0,124.0,127.0,130.0,127.0,129.0,-1.0,105.0,-78.0,127.0,127.0,127.0,-115.0,-85.0,107.0
127.0,127.0,127.0,124.0,127.0,130.0,127.0,129.0,-1.0,105.0,-78.0,127.0,127.0,127.0,-115.0,-85.0,107.0
127.0,127.0,127.0,124.0,127.0,130.0,127.0,129.0,-1.0,105.0,-78.0,127.0,127.0,127.0,-115.0,-85.0,107.0
127.0,127.0,127.0,124.0,127.0,131.0,126.0,129.0,-1.0,105.0,-78.0,127.0,127.0,127.0,-115.0,-85.0,107.0
127.0,127.0,127.0,124.0,127.0,131.0,126.0,129.0,-1.0,105.0,-78.0,127.0,127.0,127.0,-115.0,-85.0,107.0
127.0,127.0,127.0,124.0,127.0,130.0,127.0,128.0,-1.0,105.0,-78.0,127.0,127.0,127.0,-115.0,-85.0,107.0
127.0,127.0,127.0,124.0,127.0,130.0,127.0,129.0,-1.0,105.0,-78.0,127.0,127.0,127.0,-115.0,-85.0,107.0
127.0,127.0,127.0,124.0,126.0,131.0,127.0,129.0,-1.0,105.0,-78.0,127.0,127.0,127.0,-115.0,-85.0,107.0
127.0,127.0,127.0,125.0,127.0,130.0,126.0,129.0,-1.0,105.0,-78.0,127.0,127.0,127.0,-115.0,-85.0,107.0
127.0,127.0,127.0,125.0,127.0,130.0,126.0,128.0,-1.0,105.0,-78.0,127.0,127.0,127.0,-115.0,-85.0,107.0
127.0,127.0,127.0,125.0,127.0,130.0,126.0,128.0,-1.0,105.0,-78.0,127.0,127.0,127.0,-115.0,-85.0,107.0
127.0,127.0,127.0,125.0,127.0,130.0,126.0,129.0,-1.0,105.0,-78.0,127.0,127.0,127.0,-115.0,-85.0,107.0
127.0,127.0,127.0,125.0,127.0,131.0,126.0,129.0,-1.0,105.0,-78.0,127.0,127.0,127.0,-115.0,-85.0,107.0
127.0,127.0,127.0,125.0,127.0,131.0,126.0,129.0,-1.0,105.0,-78.0,127.0,127.0,127.0,-115.0,-85.0,107.0
127.0,127.0,127.0,124.0,127.0,130.0,127.0,128.0,-1.0,105.0,-78.0,127.0,127.0,127.0,-115.0,-85.0,107.0
127.0,127.0,127.0,124.0,127.0,130.0,127.0,128.0,-1.0,105.0,-78.0,127.0,127.0,127.0,-115.0,-85.0,107.0
127.0,127.0,127.0,125.0,127.0,130.0,127.0,129.0,-1.0,105.0,-78.0,127.0,127.0,127.0,-115.0,-85.0,107.0
127.0,127.0,127.0,125.0,127.0,130.0,126.0,129.0,-1.0,105.0,-78.0,127.0,127.0,127.0,-115.0,-85.0,107.0
127.0,127.0,127.0,124.0,127.0,130.0,126.0,128.0,-1.0,105.0,-78.0,127.0,127.0,127.0,-115.0,-85.0,107.0
127.0,127.0,127.0,124.0,127.0,130.0,126.0,128.0,-1.0,105.0,-78.0,127.0,127.0,127.0,-115.0,-85.0,107.0
127.0,127.0,127.0,124.0,127.0,130.0,126.0,128.0,-1.0,105.0,-78.0,127.0,127.0,127.0,-115.0,-85.0,107.0
127.0,127.0,127.0,125.0,127.0,131.0,126.0,128.0,-1.0,105.0,-78.0,127.0,127.0,127.0,-115.0,-85.0,107.0
127.0,127.0,127.0,125.0,127.0,131.0,125.0,129.0,-1.0,105.0,-78.0,127.0,127.0,127.0,-115.0,-85.0,107.0
127.0,127.0,127.0,124.0,127.0,129.0,127.0,128.0,-1.0,105.0,-78.0,127.0,127.0,127.0,-115.0,-85.0,107.0
127.0,127.0,127.0,124.0,127.0,129.0,127.0,128.0,-1.0,105.0,-78.0,127.0,127.0,127.0,-115.0,-85.0,107.0
127.0,127.0,127.0,124.0,127.0,130.0,126.0,128.0,-1.0,105.0,-78.0,127.0,127.0,127.0,-115.0,-85.0,107.0
127.0,127.0,127.0,124.0,127.0,130.0,126.0,128.0,-1.0,105.0,-78.0,127.0,127.0,127.0,-115.0,-85.0,107.0
127.0,127.0,127.0,124.0,127.0,130.0,126.0,128.0,-1.0,105.0,-78.0,127.0,127.0,127.0,-115.0,-85.0,107.0
127.0,128.0,127.0,125.0,127.0,130.0,127.0,128.0,-1.0,105.0,-79.0,127.0,127.0,127.0,-115.0,-85.0,107.0
127.0,128.0,127.0,125.0,127.0,130.0,127.0,129.0,-1.0,105.0,-79.0,127.0,127.0,127.0,-115.0,-85.0,107.0
127.0,128.0,127.0,125.0,127.0,130.0,126.0,129.0,-1.0,105.0,-79.0,127.0,127.0,127.0,-115.0,-85.0,107.0
127.0,128.0,127.0,125.0,127.0,129.0,128.0,128.0,-1.0,105.0,-79.0,127.0,127.0,127.0,-115.0,-85.0,107.0
127.0,128.0,127.0,125.0,127.0,129.0,127.0,128.0,-1.0,105.0,-79.0,127.0,127.0,127.0,-115.0,-85.0,107.0
127.0,128.0,127.0,125.0,127.0,129.0,127.0,128.0,-1.0,105.0,-79.0,127.0,127.0,127.0,-115.0,-85.0,107.0
127.0,128.0,127.0,125.0,127.0,130.0,127.0,129.0,-1.0,105.0,-79.0,127.0,127.0,127.0,-115.0,-85.0,107.0
127.0,128.0,127.0,125.0,127.0,130.0,127.0,129.0,-1.0,105.0,-79.0,127.0,127.0,127.0,-115.0,-85.0,107.0
127.0,128.0,127.0,125.0,127.0,130.0,127.0,129.0,-1.0,105.0,-79.0,127.0,127.0,127.0,-115.0,-85.0,107.0
127.0,128.0,127.0,125.0,127.0,130.0,127.0,128.0,-1.0,105.0,-79.0,127.0,127.0,127.0,-115.0,-85.0,107.0
127.0,127.0,127.0,125.0,127.0,130.0,127.0,127.0,-1.0,105.0,-79.0,127.0,127.0,127.0,-115.0,-85.0,107.0
127.0,127.0,127.0,125.0,127.0,130.0,127.0,127.0,-1.0,105.0,-79.0,127.0,127.0,127.0,-115.0,-85.0,107.0
127.0,127.0,127.0,125.0,126.0,129.0,127.0,127.0,-1.0,105.0,-79.0,127.0,127.0,127.0,-115.0,-85.0,107.0
127.0,127.0,127.0,125.0,126.0,129.0,127.0,128.0,-1.0,105.0,-79.0,127.0,127.0,127.0,-115.0,-85.0,107.0
127.0,127.0,127.0,125.0,127.0,129.0,127.0,127.0,-1.0,105.0,-79.0,127.0,127.0,127.0,-115.0,-85.0,107.0
127.0,127.0,127.0,125.0,127.0,129.0,127.0,127.0,-1.0,105.0,-79.0,127.0,127.0,127.0,-115.0,-85.0,107.0
127.0,127.0,127.0,125.0,127.0,129.0,127.0,127.0,-1.0,105.0,-79.0,127.0,127.0,127.0,-115.0,-85.0,107.0
127.0,127.0,127.0,125.0,127.0,129.0,127.0,127.0,-1.0,105.0,-79.0,127.0,127.0,127.0,-115.0,-85.0,107.0
127.0,127.0,127.0,125.0,127.0,129.0,127.0,127.0,-1.0,105.0,-79.0,127.0,127.0,127.0,-115.0,-85.0,107.0
127.0,127.0,127.0,125.0,127.0,129.0,127.0,127.0,-1.0,105.0,-79.0,127.0,127.0,127.0,-115.0,-85.0,107.0
127.0,127.0,127.0,125.0,127.0,130.0,126.0,129.0,-1.0,105.0,-79.0,127.0,127.0,127.0,-115.0,-85.0,107.0
127.0,127.0,127.0,125.0,126.0,130.0,126.0,128.0,-1.0,105.0,-79.0,127.0,127.0,127.0,-115.0,-85.0,107.0
127.0,127.0,127.0,125.0,126.0,130.0,126.0,129.0,-1.0,105.0,-79.0,127.0,127.0,127.0,-115.0,-85.0,107.0
127.0,127.0,127.0,125.0,127.0,130.0,126.0,129.0,-1.0,105.0,-79.0,127.0,127.0,127.0,-115.0,-85.0,107.0
127.0,127.0,127.0,125.0,127.0,130.0,126.0,128.0,-1.0,105.0,-79.0,127.0,127.0,127.0,-115.0,-85.0,107.0
127.0,127.0,127.0,125.0,127.0,130.0,126.0,129.0,-1.0,105.0,-79.0,127.0,127.0,127.0,-115.0,-85.0,107.0
127.0,127.0,127.0,125.0,127.0,130.0,126.0,128.0,-1.0,105.0,-79.0,127.0,127.0,127.0,-115.0,-85.0,107.0
127.0,127.0,127.0,125.0,126.0,130.0,126.0,129.0,-1.0,105.0,-79.0,127.0,127.0,127.0,-115.0,-85.0,107.0
127.0,127.0,127.0,125.0,127.0,130.0,126.0,129.0,-1.0,105.0,-79.0,127.0,127.0,127.0,-115.0,-85.0,107.0
127.0,127.0,127.0,125.0,127.0,130.0,126.0,129.0,-1.0,105.0,-79.0,127.0,127.0,127.0,-115.0,-85.0,107.0
127.0,127.0,127.0,124.0,126.0,129.0,126.0,130.0,-1.0,105.0,-80.0,127.0,127.0,127.0,-115.0,-85.0,107.0
127.0,127.0,127.0,124.0,126.0,130.0,126.0,130.0,-1.0,105.0,-80.0,127.0,127.0,127.0,-115.0,-85.0,107.0
127.0,127.0,127.0,124.0,126.0,130.0,126.0,130.0,-1.0,105.0,-80.0,127.0,127.0,127.0,-115.0,-85.0,107.0
127.0,127.0,127.0,124.0,126.0,129.0,126.0,130.0,-1.0,105.0,-80.0,127.0,127.0,127.0,-115.0,-85.0,107.0
127.0,127.0,127.0,124.0,126.0,129.0,126.0,130.0,-1.0,105.0,-80.0,127.0,127.0,127.0,-115.0,-85.0,107.0
127.0,127.0,127.0,124.0,126.0,129.0,126.0,130.0,-1.0,105.0,-80.0,127.0,127.0,127.0,-115.0,-85.0,107.0
127.0,127.0,127.0,124.0,126.0,130.0,126.0,130.0,-1.0,105.0,-80.0,127.0,127.0,127.0,-115.0,-85.0,107.0
127.0,127.0,127.0,124.0,126.0,130.0,126.0,130.0,-1.0,105.0,-80.0,127.0,127.0,127.0,-115.0,-85.0,107.0
127.0,127.0,127.0,125.0,126.0,130.0,126.0,130.0,-1.0,105.0,-80.0,127.0,127.0,127.0,-115.0,-85.0,107.0
127.0,127.0,127.0,125.0,126.0,130.0,126.0,130.0,-1.0,105.0,-80.0,127.0,127.0,127.0,-115.0,-85.0,107.0
127.0,127.0,127.0,125.0,126.0,130.0,126.0,129.0,-1.0,105.0,-80.0,127.0,127.0,127.0,-115.0,-85.0,107.0
127.0,127.0,127.0,125.0,126.0,130.0,126.0,129.0,-1.0,105.0,-80.0,127.0,127.0,127.0,-115.0,-85.0,107.0
127.0,127.0,127.0,125.0,126.0,130.0,127.0,128.0,-1.0,105.0,-80.0,127.0,127.0,127.0,-115.0,-85.0,107.0
127.0,127.0,127.0,125.0,126.0,130.0,126.0,128.0,-1.0,105.0,-80.0,127.0,127.0,127.0,-115.0,-85.0,107.0
127.0,127.0,127.0,125.0,126.0,130.0,126.0,128.0,-1.0,105.0,-80.0,127.0,127.0,127.0,-115.0,-85.0,107.0
127.0,127.0,127.0,125.0,126.0,130.0,126.0,128.0,-1.0,105.0,-80.0,127.0,127.0,127.0,-115.0,-85.0,107.0
127.0,127.0,127.0,125.0,126.0,130.0,126.0,129.0,-1.0,105.0,-80.0,127.0,127.0,127.0,-115.0,-85.0,107.0
127.0,127.0,127.0,125.0,126.0,130.0,126.0,129.0,-1.0,105.0,-80.0,127.0,127.0,127.0,-115.0,-85.0,107.0
127.0,127.0,127.0,125.0,126.0,130.0,126.0,129.0,-1.0,105.0,-80.0,127.0,127.0,127.0,-115.0,-85.0,107.0
127.0,127.0,127.0,125.0,126.0,130.0,127.0,128.0,-1.0,105.0,-80.0,127.0,127.0,127.0,-115.0,-85.0,107.0
127.0,127.0,127.0,125.0,126.0,130.0,126.0,127.0,-1.0,105.0,-80.0,127.0,127.0,127.0,-115.0,-85.0,107.0
127.0,127.0,127.0,125.0,126.0,130.0,126.0,127.0,-1.0,105.0,-80.0,127.0,127.0,127.0,-115.0,-85.0,107.0
127.0,127.0,127.0,125.0,126.0,129.0,126.0,127.0,-1.0,105.0,-80.0,127.0,127.0,127.0,-115.0,-85.0,107.0
127.0,127.0,127.0,125.0,126.0,130.0,126.0,127.0,-1.0,105.0,-80.0,127.0,127.0,127.0,-115.0,-85.0,107.0
127.0,127.0,127.0,125.0,126.0,130.0,126.0,127.0,-1.0,105.0,-80.0,127.0,127.0,127.0,-115.0,-85.0,107.0
127.0,127.0,127.0,125.0,126.0,130.0,125.0,128.0,-1.0,105.0,-80.0,127.0,127.0,127.0,-115.0,-85.0,107.0
127.0,127.0,127.0,125.0,126.0,130.0,125.0,128.0,-1.0,105.0,-80.0,127.0,127.0,127.0,-115.0,-85.0,107.0
127.0,127.0,127.0,125.0,126.0,130.0,125.0,128.0,-1.0,105.0,-80.0,127.0,127.0,127.0,-115.0,-85.0,107.0
127.0,127.0,127.0,125.0,126.0,130.0,126.0,127.0,-1.0,105.0,-80.0,127.0,127.0,127.0,-115.0,-85.0,107.0
127.0,127.0,127.0,125.0,126.0,130.0,126.0,127.0,-1.0,105.0,-80.0,127.0,127.0,127.0,-115.0,-85.0,107.0
127.0,127.0,127.0,125.0,126.0,130.0,127.0,128.0,-1.0,105.0,-80.0,127.0,127.0,127.0,-115.0,-85.0,107.0
127.0,127.0,127.0,125.0,126.0,130.0,127.0,127.0,-1.0,105.0,-80.0,127.0,127.0,127.0,-115.0,-85.0,107.0
127.0,127.0,127.0,125.0,126.0,130.0,127.0,127.0,-1.0,105.0,-80.0,127.0,127.0,127.0,-115.0,-85.0,107.0
127.0,127.0,127.0,125.0,126.0,130.0,126.0,128.0,-1.0,105.0,-80.0,127.0,127.0,127.0,-115.0,-85.0,107.0
127.0,127.0,127.0,126.0,126.0,130.0,126.0,128.0,-1.0,105.0,-80.0,127.0,127.0,127.0,-115.0,-85.0,107.0
127.0,127.0,127.0,126.0,126.0,130.0,126.0,128.0,-1.0,105.0,-80.0,127.0,127.0,127.0,-115.0,-85.0,107.0
127.0,127.0,127.0,126.0,127.0,130.0,126.0,128.0,-1.0,105.0,-80.0,127.0,127.0,127.0,-115.0,-85.0,107.0
127.0,127.0,127.0,125.0,126.0,129.0,127.0,127.0,-1.0,105.0,-80.0,127.0,127.0,127.0,-115.0,-85.0,107.0
127.0,127.0,127.0,125.0,126.0,130.0,127.0,128.0,-1.0,105.0,-80.0,127.0,127.0,127.0,-115.0,-85.0,107.0
127.0,127.0,127.0,125.0,126.0,130.0,127.0,128.0,-1.0,105.0,-80.0,127.0,127.0,127.0,-115.0,-85.0,107.0
126.0,127.0,127.0,125.0,126.0,129.0,126.0,127.0,-1.0,105.0,-81.0,127.0,127.0,127.0,-115.0,-85.0,107.0
126.0,127.0,127.0,125.0,126.0,129.0,126.0,127.0,-1.0,105.0,-81.0,127.0,127.0,127.0,-115.0,-85.0,107.0
126.0,127.0,127.0,125.0,126.0,129.0,126.0,128.0,-1.0,105.0,-81.0,127.0,127.0,127.0,-115.0,-85.0,107.0
126.0,127.0,126.0,125.0,126.0,130.0,125.0,128.0,-1.0,105.0,-81.0,127.0,127.0,127.0,-115.0,-85.0,107.0
126.0,127.0,126.0,126.0,126.0,130.0,125.0,128.0,-1.0,105.0,-81.0,127.0,127.0,127.0,-115.0,-85.0,107.0
126.0,127.0,127.0,126.0,126.0,130.0,125.0,128.0,-1.0,105.0,-81.0,127.0,127.0,127.0,-115.0,-85.0,107.0
126.0,127.0,126.0,125.0,126.0,129.0,126.0,127.0,-1.0,105.0,-81.0,127.0,127.0,127.0,-115.0,-85.0,107.0
126.0,127.0,126.0,125.0,125.0,130.0,126.0,128.0,-1.0,105.0,-81.0,127.0,127.0,127.0,-115.0,-85.0,107.0
126.0,127.0,126.0,125.0,125.0,130.0,126.0,128.0,-1.0,105.0,-81.0,127.0,127.0,127.0,-115.0,-85.0,107.0
126.0,127.0,126.0,125.0,126.0,129.0,126.0,127.0,-1.0,105.0,-81.0,127.0,127.0,127.0,-115.0,-85.0,107.0
126.0,127.0,127.0,125.0,126.0,130.0,126.0,128.0,-1.0,105.0,-81.0,127.0,127.0,127.0,-115.0,-85.0,107.0
126.0,127.0,127.0,125.0,126.0,130.0,126.0,127.0,-1.0,105.0,-81.0,127.0,127.0,127.0,-115.0,-85.0,107.0
126.0,127.0,127.0,125.0,126.0,130.0,125.0,128.0,-1.0,105.0,-81.0,127.0,127.0,127.0,-115.0,-85.0,107.0
127.0,127.0,127.0,125.0,126.0,130.0,125.0,128.0,-1.0,105.0,-81.0,127.0,127.0,127.0,-115.0,-85.0,107.0
127.0,127.0,127.0,125.0,126.0,130.0,125.0,128.0,-1.0,105.0,-81.0,127.0,127.0,127.0,-115.0,-85.0,107.0
126.0,127.0,127.0,125.0,126.0,129.0,126.0,127.0,-1.0,105.0,-81.0,127.0,127.0,127.0,-115.0,-85.0,107.0
127.0,127.0,126.0,125.0,126.0,130.0,126.0,128.0,-1.0,105.0,-81.0,127.0,127.0,127.0,-115.0,-85.0,107.0
127.0,127.0,127.0,125.0,126.0,130.0,126.0,128.0,-1.0,105.0,-81.0,127.0,127.0,127.0,-115.0,-85.0,107.0
127.0,127.0,127.0,125.0,126.0,130.0,126.0,128.0,-1.0,105.0,-81.0,127.0,127.0,127.0,-115.0,-85.0,107.0
126.0,127.0,127.0,125.0,126.0,130.0,126.0,127.0,-1.0,105.0,-81.0,127.0,127.0,127.0,-115.0,-85.0,107.0
127.0,127.0,127.0,125.0,127.0,129.0,126.0,127.0,-1.0,105.0,-81.0,127.0,127.0,127.0,-115.0,-85.0,107.0
127.0,127.0,127.0,125.0,127.0,129.0,126.0,127.0,-1.0,105.0,-81.0,127.0,127.0,127.0,-115.0,-85.0,107.0
127.0,127.0,127.0,125.0,127.0,129.0,126.0,127.0,-1.0,105.0,-81.0,127.0,127.0,127.0,-115.0,-85.0,107.0
127.0,127.0,127.0,125.0,127.0,129.0,126.0,127.0,-1.0,105.0,-81.0,127.0,127.0,127.0,-115.0,-85.0,107.0
127.0,127.0,127.0,125.0,127.0,129.0,127.0,127.0,-1.0,105.0,-81.0,127.0,127.0,127.0,-115.0,-85.0,107.0
127.0,127.0,127.0,125.0,127.0,129.0,127.0,127.0,-1.0,105.0,-81.0,127.0,127.0,127.0,-115.0,-85.0,107.0
127.0,127.0,127.0,125.0,127.0,129.0,126.0,127.0,-1.0,105.0,-81.0,127.0,127.0,127.0,-115.0,-85.0,107.0
127.0,127.0,127.0,125.0,127.0,129.0,126.0,127.0,-1.0,105.0,-81.0,127.0,127.0,127.0,-115.0,-85.0,107.0
127.0,127.0,127.0,125.0,127.0,129.0,127.0,127.0,-1.0,105.0,-81.0,127.0,127.0,127.0,-115.0,-85.0,107.0
127.0,127.0,127.0,125.0,127.0,129.0,126.0,127.0,-1.0,105.0,-81.0,127.0,127.0,127.0,-115.0,-85.0,107.0
127.0,127.0,127.0,126.0,126.0,130.0,125.0,128.0,-1.0,105.0,-81.0,127.0,127.0,127.0,-115.0,-85.0,107.0
127.0,127.0,127.0,126.0,127.0,130.0,125.0,128.0,-1.0,105.0,-81.0,127.0,127.0,127.0,-115.0,-85.0,107.0
127.0,127.0,127.0,126.0,127.0,130.0,125.0,128.0,-1.0,105.0,-81.0,127.0,127.0,127.0,-115.0,-85.0,107.0
127.0,127.0,127.0,125.0,126.0,129.0,126.0,127.0,-1.0,105.0,-81.0,127.0,127.0,127.0,-115.0,-85.0,107.0
127.0,127.0,127.0,125.0,126.0,129.0,126.0,128.0,-1.0,105.0,-81.0,127.0,127.0,127.0,-115.0,-85.0,107.0
127.0,127.0,127.0,126.0,126.0,129.0,126.0,128.0,-1.0,105.0,-81.0,127.0,127.0,127.0,-115.0,-85.0,107.0
127.0,127.0,127.0,126.0,127.0,129.0,126.0,128.0,-1.0,105.0,-81.0,127.0,127.0,127.0,-115.0,-85.0,107.0
127.0,127.0,127.0,126.0,127.0,129.0,126.0,128.0,-1.0,105.0,-81.0,127.0,127.0,127.0,-115.0,-85.0,107.0
127.0,127.0,127.0,126.0,127.0,129.0,126.0,128.0,-1.0,105.0,-81.0,127.0,127.0,127.0,-115.0,-85.0,107.0
127.0,127.0,127.0,126.0,127.0,129.0,126.0,128.0,-1.0,105.0,-81.0,127.0,127.0,127.0,-115.0,-85.0,107.0
127.0,127.0,127.0,126.0,126.0,130.0,125.0,128.0,-1.0,104.0,-81.0,127.0,127.0,127.0,-115.0,-85.0,107.0
127.0,127.0,127.0,126.0,127.0,130.0,125.0,128.0,-1.0,104.0,-81.0,127.0,127.0,127.0,-115.0,-85.0,107.0
127.0,127.0,127.0,125.0,127.0,129.0,127.0,127.0,-1.0,104.0,-81.0,127.0,127.0,127.0,-115.0,-85.0,107.0
127.0,127.0,127.0,125.0,126.0,130.0,126.0,127.0,-1.0,104.0,-81.0,127.0,127.0,127.0,-115.0,-85.0,107.0
127.0,127.0,127.0,126.0,126.0,130.0,126.0,127.0,-1.0,104.0,-81.0,127.0,127.0,127.0,-115.0,-85.0,107.0
127.0,127.0,127.0,126.0,126.0,130.0,126.0,127.0,-1.0,104.0,-81.0,127.0,127.0,127.0,-115.0,-85.0,107.0
127.0,127.0,127.0,126.0,127.0,130.0,126.0,127.0,-1.0,104.0,-81.0,127.0,127.0,127.0,-115.0,-85.0,107.0
127.0,127.0,127.0,126.0,127.0,130.0,126.0,127.0,-1.0,104.0,-81.0,127.0,127.0,127.0,-115.0,-85.0,107.0
127.0,127.0,127.0,126.0,127.0,130.0,126.0,127.0,-1.0,104.0,-81.0,127.0,127.0,127.0,-115.0,-85.0,107.0
127.0,127.0,127.0,126.0,126.0,130.0,126.0,128.0,-1.0,104.0,-81.0,127.0,127.0,127.0,-115.0,-85.0,107.0
127.0,127.0,127.0,125.0,126.0,128.0,127.0,127.0,-1.0,104.0,-81.0,127.0,127.0,127.0,-115.0,-85.0,107.0
127.0,127.0,127.0,125.0,126.0,129.0,127.0,127.0,-1.0,104.0,-81.0,127.0,127.0,127.0,-115.0,-85.0,107.0
127.0,127.0,127.0,125.0,126.0,129.0,126.0,127.0,-1.0,104.0,-81.0,127.0,127.0,127.0,-115.0,-85.0,107.0
127.0,127.0,127.0,125.0,126.0,129.0,126.0,127.0,-1.0,104.0,-81.0,127.0,127.0,127.0,-115.0,-85.0,107.0
127.0,127.0,127.0,125.0,126.0,129.0,126.0,127.0,-1.0,104.0,-81.0,127.0,127.0,127.0,-115.0,-85.0,107.0
127.0,127.0,127.0,125.0,126.0,129.0,126.0,127.0,-1.0,104.0,-81.0,127.0,127.0,127.0,-115.0,-85.0,107.0
126.0,127.0,127.0,125.0,126.0,129.0,126.0,127.0,-1.0,104.0,-81.0,127.0,127.0,127.0,-115.0,-85.0,107.0
126.0,127.0,127.0,125.0,126.0,129.0,126.0,127.0,-1.0,104.0,-81.0,127.0,127.0,127.0,-115.0,-85.0,107.0
126.0,127.0,127.0,125.0,126.0,129.0,126.0,127.0,-1.0,104.0,-81.0,127.0,127.0,127.0,-115.0,-85.0,107.0
127.0,127.0,127.0,125.0,126.0,130.0,125.0,128.0,-1.0,104.0,-81.0,127.0,127.0,127.0,-115.0,-85.0,107.0
127.0,127.0,127.0,125.0,127.0,129.0,127.0,127.0,-1.0,104.0,-81.0,127.0,127.0,127.0,-115.0,-85.0,107.0
127.0,127.0,127.0,125.0,126.0,130.0,127.0,127.0,-1.0,104.0,-81.0,127.0,127.0,127.0,-115.0,-85.0,107.0
127.0,127.0,127.0,126.0,126.0,130.0,126.0,128.0,-1.0,104.0,-81.0,127.0,127.0,127.0,-115.0,-85.0,107.0
127.0,127.0,127.0,126.0,126.0,130.0,126.0,128.0,-1.0,104.0,-81.0,127.0,127.0,127.0,-115.0,-85.0,107.0
127.0,127.0,127.0,126.0,127.0,130.0,126.0,128.0,-1.0,104.0,-81.0,127.0,127.0,127.0,-115.0,-85.0,107.0
127.0,127.0,127.0,126.0,127.0,130.0,126.0,128.0,-1.0,104.0,-81.0,127.0,127.0,127.0,-115.0,-85.0,107.0
127.0,127.0,127.0,126.0,127.0,130.0,126.0,128.0,-1.0,104.0,-81.0,127.0,127.0,127.0,-115.0,-85.0,107.0
127.0,127.0,127.0,126.0,127.0,130.0,126.0,128.0,-1.0,104.0,-81.0,127.0,127.0,127.0,-115.0,-85.0,107.0
127.0,127.0,127.0,126.0,126.0,130.0,126.0,128.0,-1.0,104.0,-81.0,127.0,127.0,127.0,-115.0,-85.0,107.0
127.0,127.0,127.0,126.0,126.0,130.0,126.0,128.0,-1.0,104.0,-81.0,127.0,127.0,127.0,-115.0,-85.0,107.0
127.0,127.0,127.0,126.0,126.0,129.0,126.0,127.0,-1.0,104.0,-80.0,127.0,127.0,127.0,-115.0,-85.0,107.0
127.0,127.0,127.0,126.0,126.0,129.0,126.0,128.0,-1.0,104.0,-80.0,127.0,127.0,127.0,-115.0,-85.0,107.0
127.0,127.0,127.0,126.0,126.0,129.0,126.0,128.0,-1.0,104.0,-80.0,127.0,127.0,127.0,-115.0,-85.0,107.0
127.0,127.0,127.0,126.0,127.0,129.0,126.0,128.0,-1.0,104.0,-80.0,127.0,127.0,127.0,-115.0,-85.0,107.0
127.0,127.0,127.0,126.0,127.0,129.0,126.0,128.0,-1.0,104.0,-80.0,127.0,127.0,127.0,-115.0,-85.0,107.0
127.0,127.0,127.0,126.0,127.0,129.0,126.0,128.0,-1.0,104.0,-80.0,127.0,127.0,127.0,-115.0,-85.0,107.0
127.0,127.0,127.0,126.0,127.0,129.0,126.0,128.0,-1.0,104.0,-80.0,127.0,127.0,127.0,-115.0,-85.0,107.0
127.0,127.0,127.0,126.0,126.0,130.0,126.0,128.0,-1.0,104.0,-80.0,127.0,127.0,127.0,-115.0,-85.0,107.0
127.0,127.0,127.0,125.0,127.0,128.0,127.0,127.0,-1.0,104.0,-80.0,127.0,127.0,127.0,-115.0,-85.0,107.0
127.0,127.0,127.0,126.0,127.0,129.0,127.0,127.0,-1.0,104.0,-80.0,127.0,127.0,127.0,-115.0,-85.0,107.0
127.0,127.0,127.0,125.0,126.0,130.0,126.0,128.0,-1.0,104.0,-80.0,127.0,127.0,127.0,-115.0,-85.0,107.0
