emg1,emg2,emg3,emg4,emg5,emg6,emg7,emg8,acc_x,acc_y,acc_z,gyro_x,gyro_y,gyro_z,angle_pitch,angle_roll,angle_yaw
127.0,127.0,127.0,126.0,126.0,134.0,126.0,129.0,-1.0,103.0,-83.0,127.0,127.0,127.0,-111.0,-86.0,111.0
127.0,127.0,127.0,126.0,126.0,134.0,126.0,129.0,-1.0,103.0,-83.0,127.0,127.0,127.0,-111.0,-86.0,111.0
127.0,127.0,127.0,126.0,126.0,134.0,126.0,129.0,-1.0,103.0,-83.0,127.0,127.0,127.0,-111.0,-86.0,111.0
127.0,127.0,127.0,126.0,126.0,134.0,127.0,129.0,-1.0,103.0,-83.0,127.0,127.0,127.0,-111.0,-86.0,111.0
127.0,127.0,127.0,126.0,126.0,134.0,127.0,129.0,-1.0,103.0,-83.0,127.0,127.0,127.0,-111.0,-86.0,111.0
127.0,127.0,127.0,126.0,126.0,134.0,127.0,129.0,-1.0,103.0,-83.0,127.0,127.0,127.0,-111.0,-86.0,111.0
127.0,128.0,127.0,126.0,126.0,135.0,126.0,130.0,-1.0,103.0,-83.0,127.0,127.0,127.0,-111.0,-86.0,111.0
127.0,128.0,127.0,126.0,126.0,135.0,126.0,130.0,-1.0,103.0,-83.0,127.0,127.0,127.0,-111.0,-86.0,111.0
127.0,128.0,127.0,126.0,126.0,135.0,126.0,130.0,-1.0,103.0,-83.0,127.0,127.0,127.0,-111.0,-86.0,111.0
127.0,127.0,127.0,126.0,126.0,134.0,126.0,129.0,-1.0,103.0,-83.0,127.0,127.0,127.0,-111.0,-86.0,111.0
127.0,127.0,127.0,126.0,126.0,134.0,126.0,129.0,-1.0,103.0,-83.0,127.0,127.0,127.0,-111.0,-86.0,111.0
127.0,127.0,127.0,126.0,126.0,134.0,126.0,129.0,-1.0,103.0,-83.0,127.0,127.0,127.0,-111.0,-86.0,111.0
127.0,127.0,127.0,126.0,126.0,134.0,126.0,129.0,-1.0,103.0,-83.0,127.0,127.0,127.0,-111.0,-86.0,111.0
127.0,127.0,127.0,126.0,126.0,134.0,126.0,129.0,-1.0,103.0,-83.0,127.0,127.0,127.0,-111.0,-86.0,111.0
127.0,127.0,127.0,126.0,126.0,134.0,126.0,129.0,-1.0,103.0,-83.0,127.0,127.0,127.0,-111.0,-86.0,111.0
127.0,127.0,127.0,126.0,126.0,134.0,126.0,129.0,-1.0,103.0,-83.0,127.0,127.0,127.0,-111.0,-86.0,111.0
127.0,128.0,127.0,125.0,126.0,134.0,126.0,129.0,-1.0,103.0,-83.0,127.0,127.0,127.0,-111.0,-86.0,111.0
127.0,128.0,127.0,125.0,126.0,134.0,126.0,129.0,-1.0,103.0,-83.0,127.0,127.0,127.0,-111.0,-86.0,111.0
126.0,128.0,127.0,125.0,126.0,134.0,126.0,129.0,-1.0,103.0,-83.0,127.0,127.0,127.0,-111.0,-86.0,111.0
126.0,128.0,127.0,125.0,126.0,134.0,126.0,129.0,-1.0,103.0,-83.0,127.0,127.0,127.0,-111.0,-86.0,111.0
126.0,128.0,127.0,126.0,126.0,134.0,126.0,129.0,-1.0,103.0,-83.0,127.0,127.0,127.0,-111.0,-86.0,111.0
126.0,128.0,127.0,126.0,126.0,134.0,126.0,129.0,-1.0,103.0,-83.0,127.0,127.0,127.0,-111.0,-86.0,111.0
127.0,128.0,126.0,126.0,126.0,135.0,125.0,129.0,-1.0,103.0,-83.0,127.0,127.0,127.0,-111.0,-86.0,111.0
126.0,128.0,127.0,126.0,126.0,135.0,125.0,129.0,-1.0,103.0,-83.0,127.0,127.0,127.0,-111.0,-86.0,111.0
126.0,128.0,127.0,126.0,126.0,134.0,125.0,129.0,-1.0,103.0,-83.0,127.0,127.0,127.0,-111.0,-86.0,111.0
126.0,128.0,127.0,125.0,126.0,134.0,126.0,129.0,-1.0,103.0,-83.0,127.0,127.0,127.0,-111.0,-86.0,111.0
127.0,128.0,127.0,126.0,126.0,134.0,126.0,129.0,-1.0,103.0,-83.0,127.0,127.0,127.0,-111.0,-86.0,111.0
127.0,128.0,127.0,126.0,126.0,133.0,126.0,129.0,-1.0,103.0,-83.0,127.0,127.0,127.0,-111.0,-86.0,111.0
127.0,128.0,127.0,126.0,126.0,133.0,126.0,129.0,-1.0,103.0,-83.0,127.0,127.0,127.0,-111.0,-86.0,111.0
127.0,128.0,127.0,126.0,126.0,133.0,126.0,129.0,-1.0,103.0,-83.0,127.0,127.0,127.0,-111.0,-86.0,111.0
127.0,128.0,127.0,126.0,126.0,133.0,126.0,129.0,-1.0,103.0,-83.0,127.0,127.0,127.0,-111.0,-86.0,111.0
127.0,128.0,127.0,126.0,126.0,134.0,125.0,129.0,-1.0,103.0,-83.0,127.0,127.0,127.0,-111.0,-86.0,111.0
127.0,128.0,127.0,126.0,126.0,134.0,125.0,129.0,-1.0,103.0,-83.0,127.0,127.0,127.0,-111.0,-86.0,111.0
127.0,128.0,127.0,126.0,126.0,134.0,125.0,129.0,-1.0,103.0,-83.0,127.0,127.0,127.0,-111.0,-86.0,111.0
127.0,128.0,127.0,126.0,126.0,133.0,126.0,128.0,-1.0,103.0,-83.0,127.0,127.0,127.0,-111.0,-86.0,111.0
127.0,128.0,127.0,126.0,126.0,134.0,126.0,129.0,-1.0,103.0,-83.0,127.0,127.0,127.0,-111.0,-86.0,111.0
127.0,128.0,127.0,126.0,126.0,134.0,126.0,129.0,-1.0,103.0,-83.0,127.0,127.0,127.0,-111.0,-86.0,111.0
127.0,128.0,127.0,126.0,126.0,134.0,126.0,129.0,-1.0,103.0,-83.0,127.0,127.0,127.0,-111.0,-86.0,111.0
127.0,128.0,127.0,126.0,126.0,134.0,126.0,129.0,-1.0,103.0,-83.0,127.0,127.0,127.0,-111.0,-86.0,111.0
126.0,128.0,127.0,126.0,126.0,134.0,126.0,129.0,-1.0,103.0,-83.0,127.0,127.0,127.0,-111.0,-86.0,111.0
127.0,128.0,127.0,126.0,126.0,134.0,125.0,129.0,-1.0,103.0,-83.0,127.0,127.0,127.0,-111.0,-86.0,111.0
127.0,128.0,127.0,126.0,126.0,134.0,125.0,129.0,-1.0,103.0,-83.0,127.0,127.0,127.0,-111.0,-86.0,111.0
127.0,128.0,127.0,126.0,126.0,134.0,125.0,129.0,-1.0,103.0,-83.0,127.0,127.0,127.0,-111.0,-86.0,111.0
127.0,128.0,127.0,125.0,126.0,133.0,126.0,128.0,-1.0,103.0,-83.0,127.0,127.0,127.0,-111.0,-86.0,111.0
127.0,128.0,127.0,126.0,126.0,134.0,126.0,129.0,-1.0,103.0,-83.0,127.0,127.0,127.0,-111.0,-86.0,111.0
127.0,128.0,127.0,126.0,126.0,134.0,126.0,129.0,-1.0,103.0,-83.0,127.0,127.0,127.0,-111.0,-86.0,111.0
126.0,127.0,127.0,125.0,126.0,133.0,126.0,129.0,-1.0,103.0,-83.0,127.0,127.0,127.0,-111.0,-86.0,111.0
126.0,127.0,127.0,125.0,126.0,134.0,126.0,129.0,-1.0,103.0,-83.0,127.0,127.0,127.0,-111.0,-86.0,111.0
126.0,127.0,127.0,125.0,126.0,133.0,126.0,129.0,-1.0,103.0,-83.0,127.0,127.0,127.0,-111.0,-86.0,111.0
126.0,128.0,127.0,126.0,126.0,134.0,125.0,129.0,-1.0,103.0,-83.0,127.0,127.0,127.0,-111.0,-86.0,111.0
126.0,128.0,127.0,126.0,126.0,134.0,125.0,129.0,-1.0,103.0,-83.0,127.0,127.0,127.0,-111.0,-86.0,111.0
127.0,127.0,127.0,126.0,126.0,134.0,125.0,129.0,-1.0,103.0,-83.0,127.0,127.0,127.0,-111.0,-86.0,111.0
126.0,127.0,127.0,125.0,126.0,133.0,126.0,129.0,-1.0,103.0,-83.0,127.0,127.0,127.0,-111.0,-86.0,111.0
127.0,128.0,127.0,125.0,126.0,134.0,126.0,129.0,-1.0,103.0,-83.0,127.0,127.0,127.0,-111.0,-86.0,111.0
126.0,128.0,127.0,125.0,126.0,134.0,126.0,129.0,-1.0,103.0,-83.0,127.0,127.0,127.0,-111.0,-86.0,111.0
127.0,127.0,127.0,125.0,126.0,134.0,126.0,129.0,-1.0,103.0,-83.0,127.0,127.0,127.0,-111.0,-86.0,111.0
126.0,127.0,127.0,126.0,127.0,133.0,126.0,128.0,-1.0,103.0,-83.0,127.0,127.0,127.0,-111.0,-86.0,111.0
126.0,127.0,127.0,126.0,127.0,133.0,126.0,128.0,-1.0,103.0,-83.0,127.0,127.0,127.0,-111.0,-86.0,111.0
126.0,127.0,127.0,126.0,126.0,134.0,125.0,128.0,-1.0,103.0,-83.0,127.0,127.0,127.0,-111.0,-86.0,111.0
127.0,128.0,127.0,126.0,126.0,134.0,125.0,129.0,-1.0,103.0,-83.0,127.0,127.0,127.0,-111.0,-86.0,111.0
126.0,127.0,127.0,126.0,127.0,133.0,126.0,128.0,-1.0,103.0,-83.0,127.0,127.0,127.0,-111.0,-86.0,111.0
126.0,127.0,127.0,126.0,127.0,133.0,126.0,128.0,-1.0,103.0,-83.0,127.0,127.0,127.0,-111.0,-86.0,111.0
126.0,128.0,127.0,126.0,126.0,134.0,126.0,128.0,-1.0,103.0,-83.0,127.0,127.0,127.0,-111.0,-86.0,111.0
126.0,128.0,127.0,126.0,126.0,134.0,126.0,128.0,-1.0,103.0,-83.0,127.0,127.0,127.0,-111.0,-86.0,111.0
126.0,127.0,127.0,126.0,127.0,134.0,126.0,128.0,-1.0,103.0,-83.0,127.0,127.0,127.0,-111.0,-86.0,111.0
126.0,127.0,127.0,126.0,127.0,133.0,126.0,128.0,-1.0,103.0,-83.0,127.0,127.0,127.0,-111.0,-86.0,111.0
127.0,127.0,127.0,126.0,126.0,133.0,126.0,129.0,-1.0,103.0,-83.0,127.0,127.0,127.0,-111.0,-86.0,111.0
127.0,128.0,127.0,126.0,126.0,133.0,125.0,129.0,-1.0,103.0,-83.0,127.0,127.0,127.0,-111.0,-86.0,111.0
127.0,128.0,127.0,126.0,126.0,134.0,125.0,130.0,-1.0,103.0,-83.0,127.0,127.0,127.0,-111.0,-86.0,111.0
126.0,127.0,127.0,125.0,126.0,132.0,126.0,129.0,-1.0,103.0,-83.0,127.0,127.0,127.0,-111.0,-86.0,111.0
126.0,127.0,127.0,125.0,126.0,132.0,126.0,129.0,-1.0,103.0,-83.0,127.0,127.0,127.0,-111.0,-86.0,111.0
127.0,128.0,127.0,125.0,126.0,133.0,126.0,129.0,-1.0,103.0,-83.0,127.0,127.0,127.0,-111.0,-86.0,111.0
127.0,128.0,127.0,125.0,126.0,133.0,126.0,129.0,-1.0,103.0,-83.0,127.0,127.0,127.0,-111.0,-86.0,111.0
127.0,128.0,127.0,126.0,126.0,133.0,126.0,129.0,-1.0,103.0,-83.0,127.0,127.0,127.0,-111.0,-86.0,111.0
127.0,128.0,127.0,126.0,126.0,133.0,126.0,129.0,-1.0,103.0,-83.0,127.0,127.0,127.0,-111.0,-86.0,111.0
126.0,127.0,127.0,126.0,126.0,133.0,126.0,129.0,-1.0,103.0,-83.0,127.0,127.0,127.0,-111.0,-86.0,111.0
127.0,128.0,127.0,126.0,126.0,134.0,126.0,129.0,-1.0,103.0,-83.0,127.0,127.0,127.0,-111.0,-86.0,111.0
127.0,128.0,127.0,126.0,126.0,134.0,125.0,129.0,-1.0,103.0,-83.0,127.0,127.0,127.0,-111.0,-86.0,111.0
126.0,128.0,127.0,126.0,127.0,133.0,127.0,128.0,-1.0,103.0,-83.0,127.0,127.0,127.0,-111.0,-86.0,111.0
126.0,128.0,127.0,126.0,127.0,133.0,127.0,129.0,-1.0,103.0,-83.0,127.0,127.0,127.0,-111.0,-86.0,111.0
127.0,128.0,127.0,126.0,126.0,134.0,126.0,129.0,-1.0,103.0,-83.0,127.0,127.0,127.0,-111.0,-86.0,111.0
127.0,128.0,127.0,126.0,126.0,134.0,126.0,129.0,-1.0,103.0,-83.0,127.0,127.0,127.0,-111.0,-86.0,111.0
127.0,128.0,127.0,126.0,126.0,134.0,126.0,129.0,-1.0,103.0,-83.0,127.0,127.0,127.0,-111.0,-86.0,111.0
127.0,128.0,127.0,126.0,127.0,134.0,126.0,129.0,-1.0,103.0,-83.0,127.0,127.0,127.0,-111.0,-86.0,111.0
127.0,128.0,127.0,126.0,127.0,134.0,126.0,129.0,-1.0,103.0,-83.0,127.0,127.0,127.0,-111.0,-86.0,111.0
127.0,128.0,127.0,126.0,127.0,134.0,126.0,129.0,-1.0,103.0,-83.0,127.0,127.0,127.0,-111.0,-86.0,111.0
127.0,128.0,127.0,126.0,126.0,134.0,125.0,130.0,-1.0,103.0,-83.0,127.0,127.0,127.0,-111.0,-86.0,111.0
127.0,127.0,127.0,126.0,126.0,133.0,127.0,129.0,-1.0,103.0,-83.0,127.0,127.0,127.0,-111.0,-86.0,111.0
126.0,127.0,127.0,126.0,126.0,133.0,127.0,129.0,-1.0,103.0,-83.0,127.0,127.0,127.0,-111.0,-86.0,111.0
126.0,127.0,127.0,126.0,126.0,133.0,126.0,129.0,-1.0,103.0,-83.0,127.0,127.0,127.0,-111.0,-86.0,111.0
127.0,128.0,127.0,126.0,126.0,133.0,126.0,129.0,-1.0,103.0,-83.0,127.0,127.0,127.0,-111.0,-86.0,111.0
127.0,128.0,127.0,126.0,126.0,133.0,126.0,129.0,-1.0,103.0,-83.0,127.0,127.0,127.0,-111.0,-86.0,111.0
126.0,128.0,127.0,126.0,126.0,133.0,126.0,129.0,-1.0,103.0,-83.0,127.0,127.0,127.0,-111.0,-86.0,111.0
126.0,127.0,127.0,126.0,126.0,133.0,126.0,129.0,-1.0,103.0,-83.0,127.0,127.0,127.0,-111.0,-86.0,111.0
127.0,128.0,127.0,126.0,126.0,133.0,126.0,129.0,-1.0,103.0,-83.0,127.0,127.0,127.0,-111.0,-86.0,111.0
126.0,128.0,127.0,126.0,126.0,133.0,126.0,129.0,-1.0,103.0,-83.0,127.0,127.0,127.0,-111.0,-86.0,111.0
126.0,127.0,127.0,126.0,126.0,132.0,127.0,128.0,-1.0,103.0,-83.0,127.0,127.0,127.0,-111.0,-86.0,111.0
126.0,127.0,127.0,126.0,127.0,132.0,127.0,129.0,-1.0,103.0,-83.0,127.0,127.0,127.0,-111.0,-86.0,111.0
126.0,127.0,127.0,126.0,127.0,132.0,127.0,128.0,-1.0,103.0,-83.0,127.0,127.0,127.0,-111.0,-86.0,111.0
126.0,127.0,127.0,126.0,127.0,132.0,127.0,128.0,-1.0,103.0,-83.0,127.0,127.0,127.0,-111.0,-86.0,111.0
126.0,127.0,127.0,126.0,127.0,133.0,127.0,129.0,-1.0,103.0,-83.0,127.0,127.0,127.0,-111.0,-86.0,111.0
126.0,127.0,127.0,126.0,127.0,132.0,127.0,128.0,-1.0,103.0,-83.0,127.0,127.0,127.0,-111.0,-86.0,111.0
126.0,127.0,127.0,126.0,127.0,132.0,127.0,128.0,-1.0,103.0,-83.0,127.0,127.0,127.0,-111.0,-86.0,111.0
126.0,127.0,127.0,126.0,127.0,133.0,127.0,128.0,-1.0,103.0,-83.0,127.0,127.0,127.0,-111.0,-86.0,111.0
126.0,127.0,127.0,126.0,127.0,133.0,127.0,129.0,-1.0,103.0,-83.0,127.0,127.0,127.0,-111.0,-86.0,111.0
126.0,127.0,127.0,126.0,127.0,133.0,127.0,129.0,-1.0,103.0,-83.0,127.0,127.0,127.0,-111.0,-86.0,111.0
126.0,128.0,127.0,126.0,126.0,133.0,126.0,129.0,-1.0,103.0,-83.0,127.0,127.0,127.0,-111.0,-86.0,111.0
126.0,127.0,127.0,126.0,126.0,133.0,126.0,129.0,-1.0,103.0,-83.0,127.0,127.0,127.0,-111.0,-86.0,111.0
126.0,127.0,127.0,126.0,126.0,133.0,126.0,129.0,-1.0,103.0,-83.0,127.0,127.0,127.0,-111.0,-86.0,111.0
126.0,127.0,127.0,126.0,126.0,133.0,126.0,129.0,-1.0,103.0,-83.0,127.0,127.0,127.0,-111.0,-86.0,111.0
126.0,128.0,127.0,126.0,126.0,133.0,126.0,129.0,-1.0,103.0,-83.0,127.0,127.0,127.0,-111.0,-86.0,111.0
127.0,128.0,127.0,126.0,126.0,134.0,126.0,129.0,-1.0,103.0,-83.0,127.0,127.0,127.0,-111.0,-86.0,111.0
126.0,128.0,127.0,126.0,126.0,134.0,126.0,129.0,-1.0,103.0,-83.0,127.0,127.0,127.0,-111.0,-86.0,111.0
126.0,128.0,127.0,126.0,126.0,134.0,126.0,129.0,-1.0,103.0,-83.0,127.0,127.0,127.0,-111.0,-86.0,111.0
126.0,127.0,127.0,126.0,126.0,133.0,126.0,129.0,-1.0,103.0,-83.0,127.0,127.0,127.0,-111.0,-86.0,111.0
127.0,128.0,127.0,126.0,126.0,133.0,126.0,129.0,-1.0,103.0,-83.0,127.0,127.0,127.0,-111.0,-86.0,111.0
127.0,128.0,127.0,126.0,126.0,133.0,126.0,129.0,-1.0,103.0,-83.0,127.0,127.0,127.0,-111.0,-86.0,111.0
127.0,128.0,127.0,126.0,126.0,133.0,126.0,129.0,-1.0,103.0,-83.0,127.0,127.0,127.0,-111.0,-86.0,111.0
127.0,128.0,127.0,126.0,126.0,133.0,126.0,129.0,-1.0,103.0,-83.0,127.0,127.0,127.0,-111.0,-86.0,111.0
127.0,128.0,127.0,126.0,126.0,133.0,126.0,129.0,-1.0,103.0,-83.0,127.0,127.0,127.0,-111.0,-86.0,111.0
127.0,128.0,127.0,126.0,126.0,134.0,126.0,129.0,-1.0,103.0,-83.0,127.0,127.0,127.0,-111.0,-86.0,111.0
127.0,128.0,127.0,126.0,126.0,134.0,126.0,130.0,-1.0,103.0,-83.0,127.0,127.0,127.0,-111.0,-86.0,111.0
127.0,128.0,127.0,126.0,126.0,134.0,126.0,130.0,-1.0,103.0,-83.0,127.0,127.0,127.0,-111.0,-86.0,111.0
127.0,128.0,127.0,126.0,126.0,134.0,126.0,129.0,-1.0,103.0,-83.0,127.0,127.0,127.0,-111.0,-86.0,111.0
127.0,128.0,127.0,126.0,126.0,133.0,126.0,129.0,-1.0,103.0,-83.0,127.0,127.0,127.0,-111.0,-86.0,111.0
127.0,128.0,127.0,126.0,126.0,133.0,126.0,129.0,-1.0,103.0,-83.0,127.0,127.0,127.0,-111.0,-86.0,111.0
127.0,127.0,127.0,126.0,127.0,133.0,126.0,129.0,-1.0,103.0,-83.0,127.0,127.0,127.0,-111.0,-86.0,111.0
127.0,127.0,127.0,125.0,127.0,133.0,126.0,129.0,-1.0,103.0,-83.0,127.0,127.0,127.0,-111.0,-86.0,111.0
126.0,127.0,127.0,125.0,127.0,133.0,126.0,129.0,-1.0,103.0,-83.0,127.0,127.0,127.0,-111.0,-86.0,111.0
127.0,128.0,127.0,125.0,126.0,134.0,126.0,130.0,-1.0,103.0,-83.0,127.0,127.0,127.0,-111.0,-86.0,111.0
127.0,128.0,127.0,126.0,126.0,134.0,126.0,130.0,-1.0,103.0,-83.0,127.0,127.0,127.0,-111.0,-86.0,111.0
127.0,128.0,127.0,126.0,127.0,134.0,126.0,130.0,-1.0,103.0,-83.0,127.0,127.0,127.0,-111.0,-86.0,111.0
127.0,128.0,127.0,126.0,127.0,134.0,126.0,130.0,-1.0,103.0,-83.0,127.0,127.0,127.0,-111.0,-86.0,111.0
127.0,128.0,127.0,125.0,126.0,133.0,126.0,129.0,-1.0,103.0,-83.0,127.0,127.0,127.0,-111.0,-86.0,111.0
127.0,128.0,127.0,126.0,127.0,133.0,126.0,129.0,-1.0,103.0,-83.0,127.0,127.0,127.0,-111.0,-86.0,111.0
127.0,127.0,127.0,126.0,127.0,133.0,126.0,129.0,-1.0,103.0,-83.0,127.0,127.0,127.0,-111.0,-86.0,111.0
126.0,127.0,127.0,126.0,126.0,133.0,126.0,129.0,-1.0,103.0,-83.0,127.0,127.0,127.0,-111.0,-86.0,111.0
126.0,127.0,127.0,126.0,126.0,133.0,126.0,129.0,-1.0,103.0,-83.0,127.0,127.0,127.0,-111.0,-86.0,111.0
126.0,128.0,127.0,126.0,125.0,133.0,126.0,129.0,-1.0,103.0,-83.0,127.0,127.0,127.0,-111.0,-86.0,111.0
126.0,128.0,127.0,126.0,125.0,133.0,126.0,130.0,-1.0,103.0,-83.0,127.0,127.0,127.0,-111.0,-86.0,111.0
126.0,128.0,127.0,126.0,125.0,133.0,126.0,130.0,-1.0,103.0,-83.0,127.0,127.0,127.0,-111.0,-86.0,111.0
126.0,127.0,127.0,126.0,125.0,133.0,126.0,130.0,-1.0,103.0,-83.0,127.0,127.0,127.0,-111.0,-86.0,111.0
127.0,128.0,127.0,126.0,126.0,133.0,126.0,129.0,-1.0,103.0,-83.0,127.0,127.0,127.0,-111.0,-86.0,111.0
127.0,128.0,127.0,126.0,126.0,133.0,126.0,129.0,-1.0,103.0,-83.0,127.0,127.0,127.0,-111.0,-86.0,111.0
126.0,128.0,127.0,126.0,126.0,133.0,126.0,129.0,-1.0,103.0,-83.0,127.0,127.0,127.0,-111.0,-86.0,111.0
127.0,128.0,127.0,126.0,126.0,133.0,126.0,129.0,-1.0,103.0,-83.0,127.0,127.0,127.0,-111.0,-86.0,111.0
127.0,127.0,127.0,126.0,127.0,132.0,126.0,129.0,-1.0,103.0,-83.0,127.0,127.0,127.0,-111.0,-86.0,111.0
127.0,127.0,127.0,126.0,126.0,133.0,125.0,129.0,-1.0,103.0,-83.0,127.0,127.0,127.0,-111.0,-86.0,111.0
127.0,127.0,127.0,126.0,127.0,133.0,125.0,129.0,-1.0,103.0,-83.0,127.0,127.0,127.0,-111.0,-86.0,111.0
127.0,127.0,127.0,126.0,126.0,133.0,125.0,129.0,-1.0,103.0,-83.0,127.0,127.0,127.0,-111.0,-86.0,111.0
127.0,127.0,127.0,126.0,126.0,133.0,125.0,129.0,-1.0,103.0,-83.0,127.0,127.0,127.0,-111.0,-86.0,111.0
127.0,127.0,126.0,126.0,127.0,133.0,126.0,129.0,-1.0,103.0,-83.0,127.0,127.0,127.0,-111.0,-86.0,111.0
127.0,127.0,126.0,126.0,127.0,133.0,126.0,129.0,-1.0,103.0,-83.0,127.0,127.0,127.0,-111.0,-86.0,111.0
127.0,127.0,127.0,126.0,127.0,133.0,126.0,129.0,-1.0,103.0,-83.0,127.0,127.0,127.0,-111.0,-86.0,111.0
127.0,127.0,127.0,126.0,127.0,132.0,126.0,129.0,-1.0,103.0,-83.0,127.0,127.0,127.0,-111.0,-86.0,111.0
127.0,127.0,127.0,126.0,127.0,132.0,126.0,129.0,-1.0,103.0,-83.0,127.0,127.0,127.0,-111.0,-86.0,111.0
126.0,127.0,127.0,126.0,127.0,133.0,125.0,129.0,-1.0,103.0,-83.0,127.0,127.0,127.0,-111.0,-86.0,111.0
127.0,128.0,127.0,126.0,127.0,133.0,125.0,129.0,-1.0,103.0,-83.0,127.0,127.0,127.0,-111.0,-86.0,111.0
126.0,127.0,127.0,126.0,127.0,133.0,125.0,129.0,-1.0,103.0,-83.0,127.0,127.0,127.0,-111.0,-86.0,111.0
126.0,127.0,127.0,126.0,127.0,133.0,125.0,129.0,-1.0,103.0,-83.0,127.0,127.0,127.0,-111.0,-86.0,111.0
127.0,127.0,127.0,126.0,127.0,133.0,126.0,129.0,-1.0,103.0,-83.0,127.0,127.0,127.0,-111.0,-86.0,111.0
127.0,127.0,127.0,126.0,127.0,133.0,126.0,129.0,-1.0,103.0,-83.0,127.0,127.0,127.0,-111.0,-86.0,111.0
126.0,127.0,127.0,126.0,127.0,133.0,126.0,129.0,-1.0,103.0,-83.0,127.0,127.0,127.0,-111.0,-86.0,111.0
127.0,127.0,127.0,126.0,127.0,133.0,126.0,129.0,-1.0,103.0,-83.0,127.0,127.0,127.0,-111.0,-86.0,111.0
126.0,127.0,127.0,126.0,127.0,133.0,126.0,129.0,-1.0,103.0,-83.0,127.0,127.0,127.0,-111.0,-86.0,111.0
126.0,127.0,127.0,126.0,127.0,133.0,126.0,129.0,-1.0,103.0,-83.0,127.0,127.0,127.0,-111.0,-86.0,111.0
127.0,127.0,126.0,126.0,127.0,133.0,125.0,130.0,-1.0,103.0,-83.0,127.0,127.0,127.0,-111.0,-86.0,111.0
127.0,127.0,126.0,126.0,127.0,133.0,125.0,130.0,-1.0,103.0,-83.0,127.0,127.0,127.0,-111.0,-86.0,111.0
127.0,127.0,127.0,126.0,127.0,133.0,125.0,130.0,-1.0,103.0,-83.0,127.0,127.0,127.0,-111.0,-86.0,111.0
127.0,127.0,126.0,126.0,126.0,133.0,126.0,130.0,-1.0,103.0,-83.0,127.0,127.0,127.0,-111.0,-86.0,111.0
127.0,127.0,126.0,126.0,126.0,133.0,126.0,130.0,-1.0,103.0,-83.0,127.0,127.0,127.0,-111.0,-86.0,111.0
127.0,127.0,126.0,126.0,127.0,133.0,126.0,130.0,-1.0,103.0,-83.0,127.0,127.0,127.0,-111.0,-86.0,111.0
127.0,127.0,127.0,126.0,127.0,133.0,126.0,130.0,-1.0,103.0,-83.0,127.0,127.0,127.0,-111.0,-86.0,111.0
127.0,127.0,127.0,126.0,127.0,132.0,126.0,130.0,-1.0,103.0,-83.0,127.0,127.0,127.0,-111.0,-86.0,111.0
127.0,127.0,127.0,126.0,127.0,133.0,126.0,130.0,-1.0,103.0,-83.0,127.0,127.0,127.0,-111.0,-86.0,111.0
127.0,127.0,126.0,126.0,127.0,133.0,126.0,130.0,-1.0,103.0,-83.0,127.0,127.0,127.0,-111.0,-86.0,111.0
126.0,127.0,127.0,125.0,127.0,130.0,126.0,129.0,-1.0,102.0,-83.0,127.0,127.0,127.0,-111.0,-86.0,111.0
126.0,127.0,127.0,125.0,126.0,130.0,126.0,129.0,-1.0,102.0,-83.0,127.0,127.0,127.0,-111.0,-86.0,111.0
126.0,127.0,127.0,125.0,126.0,130.0,126.0,129.0,-1.0,102.0,-83.0,127.0,127.0,127.0,-111.0,-86.0,111.0
126.0,127.0,127.0,125.0,126.0,130.0,126.0,129.0,-1.0,102.0,-83.0,127.0,127.0,127.0,-111.0,-86.0,111.0
126.0,127.0,127.0,125.0,126.0,130.0,126.0,129.0,-1.0,102.0,-83.0,127.0,127.0,127.0,-111.0,-86.0,111.0
126.0,127.0,127.0,125.0,126.0,130.0,126.0,129.0,-1.0,102.0,-83.0,127.0,127.0,127.0,-111.0,-86.0,111.0
126.0,127.0,127.0,125.0,126.0,130.0,126.0,129.0,-1.0,102.0,-83.0,127.0,127.0,127.0,-111.0,-86.0,111.0
126.0,127.0,127.0,125.0,126.0,130.0,126.0,129.0,-1.0,102.0,-83.0,127.0,127.0,127.0,-111.0,-86.0,111.0
126.0,127.0,127.0,125.0,127.0,130.0,126.0,129.0,-1.0,102.0,-83.0,127.0,127.0,127.0,-111.0,-86.0,111.0
126.0,127.0,127.0,125.0,127.0,130.0,126.0,129.0,-1.0,102.0,-83.0,127.0,127.0,127.0,-111.0,-86.0,111.0
126.0,127.0,126.0,125.0,127.0,128.0,125.0,127.0,-1.0,102.0,-83.0,127.0,127.0,127.0,-111.0,-86.0,111.0
126.0,127.0,126.0,125.0,127.0,128.0,125.0,127.0,-1.0,102.0,-83.0,127.0,127.0,127.0,-111.0,-86.0,111.0
126.0,127.0,126.0,125.0,127.0,128.0,125.0,127.0,-1.0,102.0,-83.0,127.0,127.0,127.0,-111.0,-86.0,111.0
126.0,127.0,126.0,125.0,127.0,128.0,125.0,127.0,-1.0,102.0,-83.0,127.0,127.0,127.0,-111.0,-86.0,111.0
126.0,127.0,126.0,125.0,126.0,128.0,125.0,127.0,-1.0,102.0,-83.0,127.0,127.0,127.0,-111.0,-86.0,111.0
126.0,127.0,126.0,125.0,126.0,128.0,125.0,127.0,-1.0,102.0,-83.0,127.0,127.0,127.0,-111.0,-86.0,111.0
126.0,127.0,126.0,125.0,127.0,128.0,125.0,127.0,-1.0,102.0,-83.0,127.0,127.0,127.0,-111.0,-86.0,111.0
126.0,127.0,126.0,125.0,127.0,128.0,125.0,127.0,-1.0,102.0,-83.0,127.0,127.0,127.0,-111.0,-86.0,111.0
126.0,127.0,126.0,125.0,127.0,128.0,125.0,127.0,-1.0,102.0,-83.0,127.0,127.0,127.0,-111.0,-86.0,111.0
126.0,127.0,126.0,125.0,127.0,128.0,125.0,127.0,-1.0,102.0,-83.0,127.0,127.0,127.0,-111.0,-86.0,111.0
126.0,128.0,127.0,125.0,126.0,126.0,126.0,127.0,-1.0,102.0,-83.0,127.0,127.0,127.0,-111.0,-86.0,111.0
126.0,128.0,127.0,125.0,126.0,126.0,126.0,127.0,-1.0,102.0,-83.0,127.0,127.0,127.0,-111.0,-86.0,111.0
126.0,128.0,127.0,125.0,126.0,126.0,126.0,127.0,-1.0,102.0,-83.0,127.0,127.0,127.0,-111.0,-86.0,111.0
126.0,128.0,127.0,125.0,126.0,127.0,126.0,127.0,-1.0,102.0,-83.0,127.0,127.0,127.0,-111.0,-86.0,111.0
126.0,128.0,127.0,126.0,126.0,127.0,125.0,127.0,-1.0,102.0,-83.0,127.0,127.0,127.0,-111.0,-86.0,111.0
126.0,128.0,127.0,126.0,126.0,127.0,125.0,127.0,-1.0,102.0,-83.0,127.0,127.0,127.0,-111.0,-86.0,111.0
126.0,128.0,127.0,126.0,126.0,127.0,125.0,127.0,-1.0,102.0,-83.0,127.0,127.0,127.0,-111.0,-86.0,111.0
126.0,128.0,127.0,126.0,126.0,127.0,125.0,127.0,-1.0,102.0,-83.0,127.0,127.0,127.0,-111.0,-86.0,111.0
126.0,128.0,127.0,126.0,126.0,127.0,125.0,127.0,-1.0,102.0,-83.0,127.0,127.0,127.0,-111.0,-86.0,111.0
126.0,128.0,127.0,126.0,126.0,127.0,126.0,127.0,-1.0,102.0,-83.0,127.0,127.0,127.0,-111.0,-86.0,111.0
126.0,127.0,127.0,125.0,123.0,125.0,126.0,126.0,-1.0,103.0,-83.0,127.0,127.0,127.0,-111.0,-86.0,111.0
126.0,127.0,127.0,125.0,123.0,126.0,126.0,126.0,-1.0,103.0,-83.0,127.0,127.0,127.0,-111.0,-86.0,111.0
126.0,127.0,127.0,125.0,123.0,126.0,125.0,126.0,-1.0,103.0,-83.0,127.0,127.0,127.0,-111.0,-86.0,111.0
126.0,127.0,127.0,125.0,123.0,126.0,125.0,127.0,-1.0,103.0,-83.0,127.0,127.0,127.0,-111.0,-86.0,111.0
126.0,127.0,127.0,125.0,123.0,126.0,125.0,127.0,-1.0,103.0,-83.0,127.0,127.0,127.0,-111.0,-86.0,111.0
126.0,127.0,127.0,125.0,123.0,126.0,125.0,127.0,-1.0,103.0,-83.0,127.0,127.0,127.0,-111.0,-86.0,111.0
126.0,127.0,127.0,125.0,123.0,127.0,125.0,127.0,-1.0,103.0,-83.0,127.0,127.0,127.0,-111.0,-86.0,111.0
126.0,127.0,127.0,125.0,123.0,127.0,125.0,127.0,-1.0,103.0,-83.0,127.0,127.0,127.0,-111.0,-86.0,111.0
126.0,127.0,127.0,125.0,123.0,126.0,126.0,126.0,-1.0,103.0,-83.0,127.0,127.0,127.0,-111.0,-86.0,111.0
126.0,127.0,127.0,125.0,123.0,125.0,126.0,126.0,-1.0,103.0,-83.0,127.0,127.0,127.0,-111.0,-86.0,111.0
126.0,127.0,127.0,125.0,124.0,129.0,125.0,128.0,-1.0,103.0,-83.0,127.0,127.0,127.0,-111.0,-86.0,111.0
126.0,127.0,127.0,125.0,124.0,129.0,125.0,128.0,-1.0,103.0,-83.0,127.0,127.0,127.0,-111.0,-86.0,111.0
126.0,127.0,127.0,125.0,124.0,130.0,125.0,129.0,-1.0,103.0,-83.0,127.0,127.0,127.0,-111.0,-86.0,111.0
126.0,127.0,127.0,125.0,124.0,130.0,125.0,129.0,-1.0,103.0,-83.0,127.0,127.0,127.0,-111.0,-86.0,111.0
126.0,127.0,127.0,125.0,124.0,130.0,125.0,129.0,-1.0,103.0,-83.0,127.0,127.0,127.0,-111.0,-86.0,111.0
126.0,127.0,127.0,125.0,124.0,130.0,125.0,128.0,-1.0,103.0,-83.0,127.0,127.0,127.0,-111.0,-86.0,111.0
126.0,127.0,127.0,125.0,124.0,130.0,125.0,129.0,-1.0,103.0,-83.0,127.0,127.0,127.0,-111.0,-86.0,111.0
126.0,127.0,127.0,125.0,123.0,129.0,125.0,128.0,-1.0,103.0,-83.0,127.0,127.0,127.0,-111.0,-86.0,111.0
126.0,127.0,127.0,125.0,123.0,129.0,125.0,128.0,-1.0,103.0,-83.0,127.0,127.0,127.0,-111.0,-86.0,111.0
126.0,127.0,127.0,125.0,124.0,129.0,125.0,128.0,-1.0,103.0,-83.0,127.0,127.0,127.0,-111.0,-86.0,111.0
127.0,127.0,126.0,125.0,127.0,131.0,126.0,131.0,-1.0,102.0,-83.0,127.0,127.0,127.0,-111.0,-86.0,111.0
127.0,127.0,126.0,125.0,127.0,131.0,125.0,131.0,-1.0,102.0,-83.0,127.0,127.0,127.0,-111.0,-86.0,111.0
127.0,127.0,126.0,125.0,127.0,131.0,125.0,131.0,-1.0,102.0,-83.0,127.0,127.0,127.0,-111.0,-86.0,111.0
126.0,127.0,126.0,125.0,127.0,131.0,125.0,131.0,-1.0,102.0,-83.0,127.0,127.0,127.0,-111.0,-86.0,111.0
126.0,127.0,126.0,125.0,127.0,131.0,125.0,130.0,-1.0,102.0,-83.0,127.0,127.0,127.0,-111.0,-86.0,111.0
126.0,127.0,127.0,125.0,127.0,130.0,125.0,130.0,-1.0,102.0,-83.0,127.0,127.0,127.0,-111.0,-86.0,111.0
127.0,127.0,126.0,125.0,127.0,131.0,126.0,130.0,-1.0,102.0,-83.0,127.0,127.0,127.0,-111.0,-86.0,111.0
127.0,127.0,126.0,125.0,127.0,131.0,126.0,130.0,-1.0,102.0,-83.0,127.0,127.0,127.0,-111.0,-86.0,111.0
127.0,127.0,126.0,125.0,127.0,130.0,126.0,130.0,-1.0,102.0,-83.0,127.0,127.0,127.0,-111.0,-86.0,111.0
127.0,127.0,126.0,125.0,127.0,131.0,126.0,131.0,-1.0,102.0,-83.0,127.0,127.0,127.0,-111.0,-86.0,111.0
127.0,127.0,125.0,124.0,128.0,133.0,127.0,129.0,-1.0,102.0,-83.0,127.0,127.0,127.0,-111.0,-86.0,111.0
127.0,127.0,125.0,124.0,128.0,133.0,126.0,129.0,-1.0,102.0,-83.0,127.0,127.0,127.0,-111.0,-86.0,111.0
127.0,127.0,125.0,124.0,129.0,134.0,126.0,129.0,-1.0,102.0,-83.0,127.0,127.0,127.0,-111.0,-86.0,111.0
127.0,127.0,125.0,124.0,129.0,135.0,126.0,129.0,-1.0,102.0,-83.0,127.0,127.0,127.0,-111.0,-86.0,111.0
127.0,128.0,125.0,124.0,130.0,135.0,126.0,129.0,-1.0,102.0,-83.0,127.0,127.0,127.0,-111.0,-86.0,111.0
127.0,127.0,126.0,125.0,127.0,131.0,127.0,129.0,-1.0,102.0,-83.0,127.0,127.0,127.0,-111.0,-86.0,111.0
127.0,127.0,126.0,124.0,127.0,131.0,127.0,128.0,-1.0,102.0,-83.0,127.0,127.0,127.0,-111.0,-86.0,111.0
127.0,127.0,126.0,124.0,127.0,131.0,127.0,128.0,-1.0,102.0,-83.0,127.0,127.0,127.0,-111.0,-86.0,111.0
127.0,127.0,126.0,124.0,128.0,131.0,127.0,128.0,-1.0,102.0,-83.0,127.0,127.0,127.0,-111.0,-86.0,111.0
127.0,127.0,125.0,124.0,128.0,131.0,127.0,128.0,-1.0,102.0,-83.0,127.0,127.0,127.0,-111.0,-86.0,111.0
126.0,128.0,130.0,130.0,130.0,131.0,130.0,112.0,-1.0,103.0,-83.0,127.0,127.0,127.0,-111.0,-86.0,111.0
126.0,128.0,130.0,129.0,130.0,131.0,130.0,112.0,-1.0,103.0,-83.0,127.0,127.0,127.0,-111.0,-86.0,111.0
126.0,128.0,130.0,129.0,130.0,130.0,130.0,112.0,-1.0,103.0,-83.0,127.0,127.0,127.0,-111.0,-86.0,111.0
126.0,128.0,130.0,129.0,130.0,130.0,131.0,112.0,-1.0,103.0,-83.0,127.0,127.0,127.0,-111.0,-86.0,111.0
127.0,128.0,129.0,128.0,130.0,134.0,131.0,115.0,-1.0,103.0,-83.0,127.0,127.0,127.0,-111.0,-86.0,111.0
127.0,128.0,129.0,129.0,130.0,133.0,131.0,114.0,-1.0,103.0,-83.0,127.0,127.0,127.0,-111.0,-86.0,111.0
126.0,128.0,130.0,129.0,130.0,132.0,131.0,113.0,-1.0,103.0,-83.0,127.0,127.0,127.0,-111.0,-86.0,111.0
126.0,128.0,130.0,129.0,130.0,132.0,131.0,112.0,-1.0,103.0,-83.0,127.0,127.0,127.0,-111.0,-86.0,111.0
126.0,128.0,130.0,129.0,130.0,131.0,130.0,112.0,-1.0,103.0,-83.0,127.0,127.0,127.0,-111.0,-86.0,111.0
126.0,128.0,130.0,129.0,130.0,132.0,130.0,112.0,-1.0,103.0,-83.0,127.0,127.0,127.0,-111.0,-86.0,111.0
130.0,129.0,128.0,119.0,126.0,113.0,215.0,122.0,-1.0,103.0,-83.0,127.0,127.0,127.0,-111.0,-86.0,111.0
130.0,129.0,128.0,119.0,126.0,114.0,219.0,123.0,-1.0,103.0,-83.0,127.0,127.0,127.0,-111.0,-86.0,111.0
131.0,129.0,128.0,119.0,126.0,115.0,223.0,124.0,-1.0,103.0,-83.0,127.0,127.0,127.0,-111.0,-86.0,111.0
129.0,128.0,129.0,119.0,127.0,117.0,188.0,122.0,-1.0,103.0,-83.0,127.0,127.0,127.0,-111.0,-86.0,111.0
129.0,128.0,128.0,119.0,127.0,117.0,191.0,122.0,-1.0,103.0,-83.0,127.0,127.0,127.0,-111.0,-86.0,111.0
129.0,128.0,128.0,119.0,127.0,116.0,195.0,122.0,-1.0,103.0,-83.0,127.0,127.0,127.0,-111.0,-86.0,111.0
129.0,128.0,128.0,119.0,127.0,115.0,199.0,122.0,-1.0,103.0,-83.0,127.0,127.0,127.0,-111.0,-86.0,111.0
129.0,129.0,128.0,119.0,127.0,114.0,203.0,122.0,-1.0,103.0,-83.0,127.0,127.0,127.0,-111.0,-86.0,111.0
129.0,129.0,128.0,119.0,127.0,114.0,206.0,122.0,-1.0,103.0,-83.0,127.0,127.0,127.0,-111.0,-86.0,111.0
130.0,129.0,128.0,119.0,126.0,113.0,211.0,122.0,-1.0,103.0,-83.0,127.0,127.0,127.0,-111.0,-86.0,111.0
130.0,129.0,130.0,143.0,124.0,106.0,254.0,117.0,-1.0,103.0,-83.0,127.0,127.0,127.0,-111.0,-86.0,111.0
130.0,129.0,130.0,144.0,124.0,106.0,254.0,117.0,-1.0,103.0,-83.0,127.0,127.0,127.0,-111.0,-86.0,111.0
131.0,129.0,129.0,134.0,126.0,110.0,254.0,122.0,-1.0,103.0,-83.0,127.0,127.0,127.0,-111.0,-86.0,111.0
131.0,129.0,129.0,135.0,126.0,109.0,254.0,121.0,-1.0,103.0,-83.0,127.0,127.0,127.0,-111.0,-86.0,111.0
130.0,129.0,129.0,137.0,125.0,109.0,254.0,120.0,-1.0,103.0,-83.0,127.0,127.0,127.0,-111.0,-86.0,111.0
130.0,129.0,129.0,138.0,125.0,109.0,254.0,120.0,-1.0,103.0,-83.0,127.0,127.0,127.0,-111.0,-86.0,111.0
130.0,129.0,129.0,139.0,125.0,108.0,254.0,119.0,-1.0,103.0,-83.0,127.0,127.0,127.0,-111.0,-86.0,111.0
130.0,129.0,129.0,140.0,124.0,107.0,254.0,119.0,-1.0,103.0,-83.0,127.0,127.0,127.0,-111.0,-86.0,111.0
130.0,129.0,129.0,141.0,124.0,107.0,254.0,118.0,-1.0,103.0,-83.0,127.0,127.0,127.0,-111.0,-86.0,111.0
130.0,129.0,130.0,142.0,124.0,107.0,254.0,118.0,-1.0,103.0,-83.0,127.0,127.0,127.0,-111.0,-86.0,111.0
136.0,130.0,139.0,190.0,116.0,90.0,254.0,120.0,-1.0,100.0,-82.0,127.0,127.0,-128.0,-111.0,-86.0,111.0
133.0,130.0,137.0,194.0,120.0,93.0,254.0,116.0,-1.0,100.0,-82.0,127.0,127.0,-128.0,-111.0,-86.0,111.0
134.0,130.0,137.0,194.0,119.0,93.0,254.0,117.0,-1.0,100.0,-82.0,127.0,127.0,-128.0,-111.0,-86.0,111.0
134.0,130.0,137.0,194.0,119.0,93.0,254.0,118.0,-1.0,100.0,-82.0,127.0,127.0,-128.0,-111.0,-86.0,111.0
134.0,130.0,137.0,194.0,118.0,93.0,254.0,119.0,-1.0,100.0,-82.0,127.0,127.0,-128.0,-111.0,-86.0,111.0
135.0,130.0,137.0,194.0,118.0,92.0,254.0,119.0,-1.0,100.0,-82.0,127.0,127.0,-128.0,-111.0,-86.0,111.0
135.0,130.0,138.0,193.0,117.0,92.0,254.0,119.0,-1.0,100.0,-82.0,127.0,127.0,-128.0,-111.0,-86.0,111.0
135.0,130.0,138.0,193.0,117.0,91.0,254.0,120.0,-1.0,100.0,-82.0,127.0,127.0,-128.0,-111.0,-86.0,111.0
135.0,130.0,139.0,192.0,117.0,91.0,254.0,120.0,-1.0,100.0,-82.0,127.0,127.0,-128.0,-111.0,-86.0,111.0
136.0,130.0,139.0,191.0,117.0,90.0,254.0,120.0,-1.0,100.0,-82.0,127.0,127.0,-128.0,-111.0,-86.0,111.0
140.0,128.0,140.0,27.0,95.0,80.0,254.0,134.0,-1.0,97.0,-83.0,-127.0,126.0,-127.0,-111.0,-86.0,111.0
140.0,127.0,140.0,22.0,95.0,81.0,254.0,135.0,-1.0,97.0,-83.0,-127.0,126.0,-127.0,-111.0,-86.0,111.0
140.0,127.0,140.0,17.0,95.0,82.0,254.0,135.0,-1.0,97.0,-83.0,-127.0,126.0,-127.0,-111.0,-86.0,111.0
140.0,127.0,140.0,12.0,95.0,83.0,254.0,136.0,-1.0,97.0,-83.0,-127.0,126.0,-127.0,-111.0,-86.0,111.0
140.0,127.0,140.0,7.0,95.0,83.0,254.0,137.0,-1.0,97.0,-83.0,-127.0,126.0,-127.0,-111.0,-86.0,111.0
140.0,127.0,140.0,2.0,94.0,84.0,254.0,137.0,-1.0,97.0,-83.0,-127.0,126.0,-127.0,-111.0,-86.0,111.0
140.0,127.0,140.0,0.0,94.0,84.0,254.0,137.0,-1.0,97.0,-83.0,-127.0,126.0,-127.0,-111.0,-86.0,111.0
140.0,127.0,140.0,0.0,94.0,85.0,254.0,138.0,-1.0,97.0,-83.0,-127.0,126.0,-127.0,-111.0,-86.0,111.0
140.0,126.0,140.0,0.0,94.0,85.0,254.0,138.0,-1.0,97.0,-83.0,-127.0,126.0,-127.0,-111.0,-86.0,111.0
140.0,126.0,140.0,0.0,94.0,86.0,254.0,139.0,-1.0,97.0,-83.0,-127.0,126.0,-127.0,-111.0,-86.0,111.0
138.0,112.0,131.0,18.0,94.0,104.0,254.0,156.0,-1.0,93.0,-87.0,-124.0,126.0,-127.0,-110.0,-86.0,111.0
138.0,111.0,131.0,21.0,93.0,104.0,254.0,156.0,-1.0,93.0,-87.0,-124.0,126.0,-127.0,-110.0,-86.0,111.0
138.0,111.0,130.0,24.0,93.0,104.0,254.0,157.0,-1.0,93.0,-87.0,-124.0,126.0,-127.0,-110.0,-86.0,111.0
138.0,111.0,130.0,26.0,92.0,104.0,254.0,157.0,-1.0,93.0,-87.0,-124.0,126.0,-127.0,-110.0,-86.0,111.0
138.0,110.0,129.0,29.0,92.0,103.0,254.0,158.0,-1.0,93.0,-87.0,-124.0,126.0,-127.0,-110.0,-86.0,111.0
139.0,110.0,129.0,31.0,92.0,103.0,254.0,158.0,-1.0,93.0,-87.0,-124.0,126.0,-127.0,-110.0,-86.0,111.0
139.0,110.0,128.0,34.0,91.0,102.0,254.0,159.0,-1.0,93.0,-87.0,-124.0,126.0,-127.0,-110.0,-86.0,111.0
139.0,109.0,128.0,36.0,90.0,101.0,254.0,160.0,-1.0,93.0,-87.0,-124.0,126.0,-127.0,-110.0,-86.0,111.0
139.0,109.0,128.0,39.0,90.0,101.0,254.0,160.0,-1.0,93.0,-87.0,-124.0,126.0,-127.0,-110.0,-86.0,111.0
138.0,112.0,132.0,15.0,94.0,105.0,254.0,156.0,-1.0,93.0,-87.0,-124.0,126.0,-127.0,-110.0,-86.0,111.0
133.0,99.0,114.0,0.0,38.0,25.0,254.0,193.0,-1.0,94.0,-88.0,-123.0,126.0,-127.0,-110.0,-86.0,111.0
133.0,99.0,114.0,0.0,37.0,23.0,254.0,195.0,-1.0,94.0,-88.0,-123.0,126.0,-127.0,-110.0,-86.0,111.0
133.0,99.0,114.0,0.0,35.0,20.0,254.0,196.0,-1.0,94.0,-88.0,-123.0,126.0,-127.0,-110.0,-86.0,111.0
133.0,100.0,115.0,0.0,34.0,16.0,254.0,197.0,-1.0,94.0,-88.0,-123.0,126.0,-127.0,-110.0,-86.0,111.0
133.0,100.0,115.0,0.0,33.0,13.0,254.0,198.0,-1.0,94.0,-88.0,-123.0,126.0,-127.0,-110.0,-86.0,111.0
133.0,100.0,115.0,0.0,32.0,10.0,254.0,199.0,-1.0,94.0,-88.0,-123.0,126.0,-127.0,-110.0,-86.0,111.0
133.0,100.0,115.0,0.0,31.0,7.0,254.0,200.0,-1.0,94.0,-88.0,-123.0,126.0,-127.0,-110.0,-86.0,111.0
133.0,101.0,115.0,0.0,30.0,4.0,254.0,201.0,-1.0,94.0,-88.0,-123.0,126.0,-127.0,-110.0,-86.0,111.0
133.0,99.0,114.0,3.0,41.0,31.0,254.0,191.0,-1.0,94.0,-88.0,-123.0,126.0,-127.0,-110.0,-86.0,111.0
133.0,99.0,114.0,0.0,40.0,28.0,254.0,192.0,-1.0,94.0,-88.0,-123.0,126.0,-127.0,-110.0,-86.0,111.0
136.0,120.0,126.0,1.0,76.0,0.0,218.0,243.0,-1.0,98.0,-83.0,-123.0,126.0,-128.0,-110.0,-86.0,111.0
136.0,120.0,126.0,2.0,80.0,0.0,213.0,244.0,-1.0,98.0,-83.0,-123.0,126.0,-128.0,-110.0,-86.0,111.0
137.0,120.0,126.0,4.0,85.0,0.0,208.0,244.0,-1.0,98.0,-83.0,-123.0,126.0,-128.0,-110.0,-86.0,111.0
137.0,120.0,126.0,5.0,89.0,0.0,203.0,245.0,-1.0,98.0,-83.0,-123.0,126.0,-128.0,-110.0,-86.0,111.0
137.0,120.0,126.0,7.0,93.0,0.0,197.0,246.0,-1.0,98.0,-83.0,-123.0,126.0,-128.0,-110.0,-86.0,111.0
137.0,120.0,125.0,9.0,97.0,0.0,192.0,246.0,-1.0,98.0,-83.0,-123.0,126.0,-128.0,-110.0,-86.0,111.0
137.0,120.0,125.0,11.0,101.0,0.0,187.0,247.0,-1.0,98.0,-83.0,-123.0,126.0,-128.0,-110.0,-86.0,111.0
136.0,119.0,126.0,0.0,64.0,0.0,232.0,241.0,-1.0,98.0,-83.0,-123.0,126.0,-128.0,-110.0,-86.0,111.0
136.0,119.0,126.0,0.0,68.0,0.0,228.0,241.0,-1.0,98.0,-83.0,-123.0,126.0,-128.0,-110.0,-86.0,111.0
136.0,119.0,127.0,0.0,72.0,0.0,223.0,242.0,-1.0,98.0,-83.0,-123.0,126.0,-128.0,-110.0,-86.0,111.0
135.0,119.0,98.0,98.0,220.0,87.0,47.0,231.0,-1.0,98.0,-76.0,-124.0,126.0,-128.0,-110.0,-86.0,111.0
135.0,119.0,98.0,99.0,220.0,89.0,46.0,231.0,-1.0,98.0,-76.0,-124.0,126.0,-128.0,-110.0,-86.0,111.0
135.0,119.0,98.0,100.0,221.0,91.0,44.0,230.0,-1.0,98.0,-76.0,-124.0,126.0,-128.0,-110.0,-86.0,111.0
134.0,119.0,98.0,101.0,221.0,92.0,43.0,230.0,-1.0,98.0,-76.0,-124.0,126.0,-128.0,-110.0,-86.0,111.0
134.0,119.0,98.0,102.0,222.0,94.0,42.0,229.0,-1.0,98.0,-76.0,-124.0,126.0,-128.0,-110.0,-86.0,111.0
134.0,119.0,98.0,103.0,222.0,95.0,41.0,229.0,-1.0,98.0,-76.0,-124.0,126.0,-128.0,-110.0,-86.0,111.0
136.0,119.0,100.0,93.0,217.0,79.0,54.0,233.0,-1.0,98.0,-76.0,-124.0,126.0,-128.0,-110.0,-86.0,111.0
135.0,119.0,99.0,94.0,218.0,81.0,52.0,232.0,-1.0,98.0,-76.0,-124.0,126.0,-128.0,-110.0,-86.0,111.0
135.0,119.0,99.0,96.0,219.0,83.0,51.0,232.0,-1.0,98.0,-76.0,-124.0,126.0,-128.0,-110.0,-86.0,111.0
135.0,119.0,98.0,97.0,219.0,85.0,48.0,232.0,-1.0,98.0,-76.0,-124.0,126.0,-128.0,-110.0,-86.0,111.0
129.0,119.0,101.0,128.0,191.0,128.0,26.0,228.0,-1.0,98.0,-74.0,-125.0,126.0,-128.0,-110.0,-86.0,111.0
129.0,119.0,101.0,129.0,191.0,127.0,26.0,229.0,-1.0,98.0,-74.0,-125.0,126.0,-128.0,-110.0,-86.0,111.0
129.0,119.0,101.0,129.0,190.0,127.0,27.0,229.0,-1.0,98.0,-74.0,-125.0,126.0,-128.0,-110.0,-86.0,111.0
129.0,119.0,102.0,129.0,189.0,127.0,27.0,229.0,-1.0,98.0,-74.0,-125.0,126.0,-128.0,-110.0,-86.0,111.0
129.0,119.0,102.0,130.0,189.0,127.0,27.0,230.0,-1.0,98.0,-74.0,-125.0,126.0,-128.0,-110.0,-86.0,111.0
129.0,119.0,100.0,127.0,195.0,129.0,25.0,227.0,-1.0,98.0,-74.0,-125.0,126.0,-128.0,-110.0,-86.0,111.0
129.0,119.0,100.0,127.0,194.0,128.0,25.0,227.0,-1.0,98.0,-74.0,-125.0,126.0,-128.0,-110.0,-86.0,111.0
129.0,119.0,100.0,128.0,194.0,128.0,25.0,228.0,-1.0,98.0,-74.0,-125.0,126.0,-128.0,-110.0,-86.0,111.0
129.0,119.0,101.0,128.0,193.0,128.0,26.0,228.0,-1.0,98.0,-74.0,-125.0,126.0,-128.0,-110.0,-86.0,111.0
129.0,119.0,101.0,128.0,192.0,128.0,26.0,228.0,-1.0,98.0,-74.0,-125.0,126.0,-128.0,-110.0,-86.0,111.0
128.0,121.0,118.0,142.0,160.0,131.0,50.0,240.0,-1.0,101.0,-76.0,-126.0,126.0,-128.0,-110.0,-86.0,111.0
128.0,121.0,119.0,143.0,160.0,131.0,51.0,240.0,-1.0,101.0,-76.0,-126.0,126.0,-128.0,-110.0,-86.0,111.0
128.0,121.0,119.0,143.0,159.0,131.0,51.0,240.0,-1.0,101.0,-76.0,-126.0,126.0,-128.0,-110.0,-86.0,111.0
128.0,121.0,119.0,143.0,159.0,132.0,52.0,241.0,-1.0,101.0,-76.0,-126.0,126.0,-128.0,-110.0,-86.0,111.0
128.0,121.0,116.0,141.0,162.0,129.0,46.0,238.0,-1.0,101.0,-76.0,-126.0,126.0,-128.0,-110.0,-86.0,111.0
128.0,121.0,116.0,141.0,162.0,129.0,47.0,239.0,-1.0,101.0,-76.0,-126.0,126.0,-128.0,-110.0,-86.0,111.0
128.0,121.0,117.0,141.0,161.0,130.0,47.0,239.0,-1.0,101.0,-76.0,-126.0,126.0,-128.0,-110.0,-86.0,111.0
128.0,121.0,117.0,141.0,161.0,130.0,48.0,239.0,-1.0,101.0,-76.0,-126.0,126.0,-128.0,-110.0,-86.0,111.0
128.0,121.0,117.0,142.0,160.0,130.0,49.0,239.0,-1.0,101.0,-76.0,-126.0,126.0,-128.0,-110.0,-86.0,111.0
128.0,121.0,118.0,142.0,160.0,130.0,49.0,240.0,-1.0,101.0,-76.0,-126.0,126.0,-128.0,-110.0,-86.0,111.0
128.0,123.0,125.0,150.0,144.0,129.0,75.0,242.0,-1.0,101.0,-81.0,-127.0,127.0,-128.0,-110.0,-86.0,111.0
128.0,123.0,125.0,151.0,144.0,129.0,75.0,241.0,-1.0,101.0,-81.0,-127.0,127.0,-128.0,-110.0,-86.0,111.0
128.0,123.0,125.0,151.0,144.0,128.0,76.0,241.0,-1.0,101.0,-81.0,-127.0,127.0,-128.0,-110.0,-86.0,111.0
128.0,123.0,125.0,149.0,144.0,130.0,75.0,243.0,-1.0,101.0,-81.0,-127.0,127.0,-128.0,-110.0,-86.0,111.0
129.0,123.0,125.0,149.0,144.0,130.0,75.0,243.0,-1.0,101.0,-81.0,-127.0,127.0,-128.0,-110.0,-86.0,111.0
129.0,123.0,125.0,150.0,144.0,130.0,75.0,243.0,-1.0,101.0,-81.0,-127.0,127.0,-128.0,-110.0,-86.0,111.0
129.0,123.0,125.0,150.0,144.0,129.0,76.0,243.0,-1.0,101.0,-81.0,-127.0,127.0,-128.0,-110.0,-86.0,111.0
128.0,123.0,125.0,150.0,144.0,129.0,76.0,242.0,-1.0,101.0,-81.0,-127.0,127.0,-128.0,-110.0,-86.0,111.0
128.0,123.0,125.0,150.0,145.0,129.0,76.0,242.0,-1.0,101.0,-81.0,-127.0,127.0,-128.0,-110.0,-86.0,111.0
128.0,123.0,125.0,150.0,144.0,129.0,76.0,242.0,-1.0,101.0,-81.0,-127.0,127.0,-128.0,-110.0,-86.0,111.0
127.0,125.0,128.0,163.0,132.0,122.0,92.0,217.0,-1.0,100.0,-84.0,-127.0,127.0,-128.0,-110.0,-86.0,111.0
127.0,125.0,127.0,163.0,132.0,121.0,92.0,216.0,-1.0,100.0,-84.0,-127.0,127.0,-128.0,-110.0,-86.0,111.0
127.0,124.0,129.0,162.0,134.0,123.0,93.0,222.0,-1.0,100.0,-84.0,-127.0,127.0,-128.0,-110.0,-86.0,111.0
127.0,124.0,128.0,162.0,134.0,123.0,92.0,222.0,-1.0,100.0,-84.0,-127.0,127.0,-128.0,-110.0,-86.0,111.0
127.0,124.0,128.0,163.0,134.0,123.0,92.0,222.0,-1.0,100.0,-84.0,-127.0,127.0,-128.0,-110.0,-86.0,111.0
127.0,124.0,128.0,163.0,134.0,123.0,93.0,221.0,-1.0,100.0,-84.0,-127.0,127.0,-128.0,-110.0,-86.0,111.0
127.0,124.0,128.0,163.0,133.0,122.0,93.0,221.0,-1.0,100.0,-84.0,-127.0,127.0,-128.0,-110.0,-86.0,111.0
127.0,124.0,128.0,163.0,133.0,122.0,93.0,220.0,-1.0,100.0,-84.0,-127.0,127.0,-128.0,-110.0,-86.0,111.0
127.0,124.0,128.0,163.0,133.0,122.0,93.0,219.0,-1.0,100.0,-84.0,-127.0,127.0,-128.0,-110.0,-86.0,111.0
127.0,125.0,128.0,163.0,133.0,122.0,92.0,218.0,-1.0,100.0,-84.0,-127.0,127.0,-128.0,-110.0,-86.0,111.0
128.0,127.0,129.0,159.0,124.0,110.0,0.0,201.0,-1.0,103.0,-87.0,-128.0,127.0,-128.0,-110.0,-86.0,111.0
128.0,126.0,130.0,163.0,126.0,111.0,0.0,205.0,-1.0,103.0,-87.0,-128.0,127.0,-128.0,-110.0,-86.0,111.0
128.0,126.0,130.0,162.0,125.0,112.0,0.0,205.0,-1.0,103.0,-87.0,-128.0,127.0,-128.0,-110.0,-86.0,111.0
128.0,126.0,130.0,162.0,125.0,112.0,0.0,205.0,-1.0,103.0,-87.0,-128.0,127.0,-128.0,-110.0,-86.0,111.0
128.0,127.0,130.0,162.0,125.0,111.0,0.0,204.0,-1.0,103.0,-87.0,-128.0,127.0,-128.0,-110.0,-86.0,111.0
128.0,127.0,130.0,162.0,125.0,111.0,0.0,203.0,-1.0,103.0,-87.0,-128.0,127.0,-128.0,-110.0,-86.0,111.0
128.0,127.0,130.0,161.0,125.0,111.0,0.0,203.0,-1.0,103.0,-87.0,-128.0,127.0,-128.0,-110.0,-86.0,111.0
128.0,127.0,129.0,161.0,125.0,110.0,0.0,202.0,-1.0,103.0,-87.0,-128.0,127.0,-128.0,-110.0,-86.0,111.0
128.0,127.0,129.0,160.0,124.0,111.0,0.0,202.0,-1.0,103.0,-87.0,-128.0,127.0,-128.0,-110.0,-86.0,111.0
128.0,127.0,129.0,160.0,124.0,110.0,0.0,202.0,-1.0,103.0,-87.0,-128.0,127.0,-128.0,-110.0,-86.0,111.0
129.0,128.0,130.0,150.0,121.0,105.0,0.0,142.0,-1.0,106.0,-88.0,127.0,127.0,-128.0,-110.0,-85.0,111.0
129.0,129.0,130.0,150.0,120.0,106.0,0.0,142.0,-1.0,106.0,-88.0,127.0,127.0,-128.0,-110.0,-85.0,111.0
129.0,129.0,131.0,150.0,120.0,106.0,0.0,141.0,-1.0,106.0,-88.0,127.0,127.0,-128.0,-110.0,-85.0,111.0
129.0,129.0,131.0,150.0,120.0,106.0,0.0,140.0,-1.0,106.0,-88.0,127.0,127.0,-128.0,-110.0,-85.0,111.0
129.0,129.0,132.0,150.0,121.0,106.0,0.0,138.0,-1.0,106.0,-88.0,127.0,127.0,-128.0,-110.0,-85.0,111.0
129.0,129.0,132.0,150.0,121.0,106.0,0.0,138.0,-1.0,106.0,-88.0,127.0,127.0,-128.0,-110.0,-85.0,111.0
129.0,129.0,133.0,150.0,121.0,106.0,0.0,137.0,-1.0,106.0,-88.0,127.0,127.0,-128.0,-110.0,-85.0,111.0
130.0,129.0,133.0,150.0,120.0,107.0,0.0,136.0,-1.0,106.0,-88.0,127.0,127.0,-128.0,-110.0,-85.0,111.0
129.0,129.0,134.0,150.0,121.0,107.0,0.0,135.0,-1.0,106.0,-88.0,127.0,127.0,-128.0,-110.0,-85.0,111.0
129.0,129.0,134.0,151.0,121.0,107.0,0.0,135.0,-1.0,106.0,-88.0,127.0,127.0,-128.0,-110.0,-85.0,111.0
127.0,131.0,140.0,167.0,119.0,112.0,0.0,94.0,-1.0,108.0,-88.0,126.0,127.0,127.0,-111.0,-85.0,111.0
127.0,131.0,140.0,168.0,119.0,113.0,0.0,92.0,-1.0,108.0,-88.0,126.0,127.0,127.0,-111.0,-85.0,111.0
127.0,131.0,141.0,168.0,119.0,113.0,0.0,91.0,-1.0,108.0,-88.0,126.0,127.0,127.0,-111.0,-85.0,111.0
127.0,131.0,141.0,169.0,119.0,113.0,0.0,90.0,-1.0,108.0,-88.0,126.0,127.0,127.0,-111.0,-85.0,111.0
127.0,131.0,141.0,169.0,120.0,113.0,0.0,88.0,-1.0,108.0,-88.0,126.0,127.0,127.0,-111.0,-85.0,111.0
127.0,131.0,141.0,170.0,120.0,113.0,0.0,87.0,-1.0,108.0,-88.0,126.0,127.0,127.0,-111.0,-85.0,111.0
127.0,131.0,141.0,170.0,119.0,113.0,0.0,85.0,-1.0,108.0,-88.0,126.0,127.0,127.0,-111.0,-85.0,111.0
127.0,131.0,141.0,171.0,119.0,114.0,0.0,84.0,-1.0,108.0,-88.0,126.0,127.0,127.0,-111.0,-85.0,111.0
127.0,131.0,141.0,171.0,119.0,114.0,0.0,82.0,-1.0,108.0,-88.0,126.0,127.0,127.0,-111.0,-85.0,111.0
127.0,130.0,140.0,167.0,119.0,111.0,0.0,95.0,-1.0,108.0,-88.0,126.0,127.0,127.0,-111.0,-85.0,111.0
126.0,131.0,141.0,185.0,120.0,121.0,0.0,12.0,-1.0,109.0,-87.0,126.0,127.0,127.0,-111.0,-85.0,111.0
126.0,131.0,141.0,185.0,120.0,121.0,0.0,11.0,-1.0,109.0,-87.0,126.0,127.0,127.0,-111.0,-85.0,111.0
126.0,131.0,141.0,185.0,120.0,120.0,0.0,10.0,-1.0,109.0,-87.0,126.0,127.0,127.0,-111.0,-85.0,111.0
126.0,131.0,141.0,185.0,120.0,121.0,0.0,9.0,-1.0,109.0,-87.0,126.0,127.0,127.0,-111.0,-85.0,111.0
126.0,131.0,141.0,186.0,120.0,121.0,0.0,8.0,-1.0,109.0,-87.0,126.0,127.0,127.0,-111.0,-85.0,111.0
126.0,131.0,141.0,186.0,120.0,121.0,0.0,7.0,-1.0,109.0,-87.0,126.0,127.0,127.0,-111.0,-85.0,111.0
126.0,131.0,140.0,186.0,120.0,122.0,0.0,7.0,-1.0,109.0,-87.0,126.0,127.0,127.0,-111.0,-85.0,111.0
126.0,131.0,140.0,186.0,120.0,122.0,0.0,6.0,-1.0,109.0,-87.0,126.0,127.0,127.0,-111.0,-85.0,111.0
126.0,131.0,142.0,185.0,120.0,120.0,0.0,14.0,-1.0,109.0,-87.0,126.0,127.0,127.0,-111.0,-85.0,111.0
126.0,131.0,142.0,185.0,120.0,120.0,0.0,13.0,-1.0,109.0,-87.0,126.0,127.0,127.0,-111.0,-85.0,111.0
125.0,131.0,136.0,196.0,118.0,123.0,31.0,0.0,-1.0,109.0,-86.0,125.0,-128.0,127.0,-112.0,-85.0,111.0
124.0,131.0,136.0,196.0,118.0,123.0,33.0,0.0,-1.0,109.0,-86.0,125.0,-128.0,127.0,-112.0,-85.0,111.0
124.0,131.0,136.0,197.0,118.0,122.0,35.0,0.0,-1.0,109.0,-86.0,125.0,-128.0,127.0,-112.0,-85.0,111.0
124.0,131.0,136.0,198.0,118.0,123.0,37.0,0.0,-1.0,109.0,-86.0,125.0,-128.0,127.0,-112.0,-85.0,111.0
124.0,131.0,136.0,198.0,117.0,122.0,39.0,0.0,-1.0,109.0,-86.0,125.0,-128.0,127.0,-112.0,-85.0,111.0
124.0,131.0,136.0,199.0,117.0,122.0,41.0,1.0,-1.0,109.0,-86.0,125.0,-128.0,127.0,-112.0,-85.0,111.0
124.0,131.0,136.0,200.0,117.0,122.0,43.0,1.0,-1.0,109.0,-86.0,125.0,-128.0,127.0,-112.0,-85.0,111.0
125.0,131.0,137.0,194.0,118.0,123.0,25.0,0.0,-1.0,109.0,-86.0,125.0,-128.0,127.0,-112.0,-85.0,111.0
125.0,131.0,136.0,194.0,118.0,123.0,27.0,0.0,-1.0,109.0,-86.0,125.0,-128.0,127.0,-112.0,-85.0,111.0
125.0,131.0,136.0,195.0,118.0,123.0,30.0,0.0,-1.0,109.0,-86.0,125.0,-128.0,127.0,-112.0,-85.0,111.0
119.0,130.0,137.0,233.0,112.0,119.0,85.0,28.0,-1.0,107.0,-85.0,125.0,127.0,127.0,-112.0,-85.0,111.0
119.0,130.0,137.0,233.0,112.0,120.0,85.0,29.0,-1.0,107.0,-85.0,125.0,127.0,127.0,-112.0,-85.0,111.0
119.0,130.0,137.0,233.0,112.0,119.0,85.0,29.0,-1.0,107.0,-85.0,125.0,127.0,127.0,-112.0,-85.0,111.0
119.0,129.0,138.0,233.0,112.0,119.0,84.0,30.0,-1.0,107.0,-85.0,125.0,127.0,127.0,-112.0,-85.0,111.0
119.0,129.0,138.0,233.0,112.0,119.0,84.0,30.0,-1.0,107.0,-85.0,125.0,127.0,127.0,-112.0,-85.0,111.0
119.0,130.0,137.0,233.0,113.0,120.0,85.0,25.0,-1.0,107.0,-85.0,125.0,127.0,127.0,-112.0,-85.0,111.0
119.0,130.0,137.0,233.0,113.0,120.0,85.0,25.0,-1.0,107.0,-85.0,125.0,127.0,127.0,-112.0,-85.0,111.0
119.0,130.0,137.0,233.0,113.0,120.0,85.0,26.0,-1.0,107.0,-85.0,125.0,127.0,127.0,-112.0,-85.0,111.0
119.0,130.0,137.0,233.0,113.0,119.0,86.0,26.0,-1.0,107.0,-85.0,125.0,127.0,127.0,-112.0,-85.0,111.0
119.0,130.0,137.0,233.0,113.0,119.0,86.0,27.0,-1.0,107.0,-85.0,125.0,127.0,127.0,-112.0,-85.0,111.0
118.0,130.0,142.0,163.0,115.0,117.0,64.0,62.0,-1.0,106.0,-84.0,124.0,127.0,127.0,-112.0,-85.0,111.0
118.0,130.0,142.0,161.0,116.0,117.0,64.0,63.0,-1.0,106.0,-84.0,124.0,127.0,127.0,-112.0,-85.0,111.0
118.0,130.0,142.0,159.0,116.0,117.0,65.0,64.0,-1.0,106.0,-84.0,124.0,127.0,127.0,-112.0,-85.0,111.0
118.0,130.0,142.0,158.0,116.0,117.0,65.0,64.0,-1.0,106.0,-84.0,124.0,127.0,127.0,-112.0,-85.0,111.0
118.0,129.0,141.0,173.0,114.0,117.0,63.0,58.0,-1.0,106.0,-84.0,124.0,127.0,127.0,-112.0,-85.0,111.0
118.0,129.0,141.0,171.0,115.0,117.0,63.0,59.0,-1.0,106.0,-84.0,124.0,127.0,127.0,-112.0,-85.0,111.0
118.0,129.0,141.0,169.0,115.0,117.0,63.0,59.0,-1.0,106.0,-84.0,124.0,127.0,127.0,-112.0,-85.0,111.0
118.0,129.0,142.0,168.0,115.0,116.0,64.0,60.0,-1.0,106.0,-84.0,124.0,127.0,127.0,-112.0,-85.0,111.0
118.0,129.0,142.0,166.0,115.0,117.0,64.0,61.0,-1.0,106.0,-84.0,124.0,127.0,127.0,-112.0,-85.0,111.0
118.0,129.0,142.0,164.0,115.0,117.0,64.0,61.0,-1.0,106.0,-84.0,124.0,127.0,127.0,-112.0,-85.0,111.0
118.0,130.0,133.0,93.0,122.0,119.0,95.0,85.0,-1.0,104.0,-82.0,124.0,127.0,126.0,-112.0,-85.0,111.0
118.0,129.0,133.0,92.0,122.0,119.0,96.0,85.0,-1.0,104.0,-82.0,124.0,127.0,126.0,-112.0,-85.0,111.0
118.0,129.0,133.0,90.0,122.0,120.0,96.0,86.0,-1.0,104.0,-82.0,124.0,127.0,126.0,-112.0,-85.0,111.0
118.0,129.0,135.0,101.0,121.0,117.0,92.0,83.0,-1.0,104.0,-82.0,124.0,127.0,126.0,-112.0,-85.0,111.0
118.0,129.0,135.0,100.0,121.0,117.0,92.0,83.0,-1.0,104.0,-82.0,124.0,127.0,126.0,-112.0,-85.0,111.0
118.0,129.0,134.0,99.0,121.0,117.0,93.0,83.0,-1.0,104.0,-82.0,124.0,127.0,126.0,-112.0,-85.0,111.0
118.0,129.0,134.0,98.0,121.0,117.0,94.0,84.0,-1.0,104.0,-82.0,124.0,127.0,126.0,-112.0,-85.0,111.0
118.0,129.0,134.0,96.0,121.0,118.0,94.0,84.0,-1.0,104.0,-82.0,124.0,127.0,126.0,-112.0,-85.0,111.0
118.0,129.0,134.0,95.0,122.0,118.0,95.0,84.0,-1.0,104.0,-82.0,124.0,127.0,126.0,-112.0,-85.0,111.0
118.0,130.0,133.0,94.0,122.0,119.0,95.0,85.0,-1.0,104.0,-82.0,124.0,127.0,126.0,-112.0,-85.0,111.0
118.0,126.0,118.0,51.0,125.0,133.0,116.0,90.0,-1.0,101.0,-80.0,124.0,127.0,126.0,-112.0,-85.0,111.0
118.0,126.0,118.0,51.0,125.0,133.0,116.0,90.0,-1.0,101.0,-80.0,124.0,127.0,126.0,-112.0,-85.0,111.0
118.0,127.0,120.0,55.0,123.0,130.0,113.0,91.0,-1.0,101.0,-80.0,124.0,127.0,126.0,-112.0,-85.0,111.0
118.0,127.0,120.0,54.0,124.0,130.0,114.0,90.0,-1.0,101.0,-80.0,124.0,127.0,126.0,-112.0,-85.0,111.0
118.0,127.0,119.0,54.0,124.0,131.0,114.0,90.0,-1.0,101.0,-80.0,124.0,127.0,126.0,-112.0,-85.0,111.0
118.0,126.0,119.0,53.0,124.0,131.0,115.0,90.0,-1.0,101.0,-80.0,124.0,127.0,126.0,-112.0,-85.0,111.0
118.0,126.0,119.0,53.0,124.0,131.0,115.0,90.0,-1.0,101.0,-80.0,124.0,127.0,126.0,-112.0,-85.0,111.0
118.0,126.0,119.0,52.0,124.0,132.0,115.0,90.0,-1.0,101.0,-80.0,124.0,127.0,126.0,-112.0,-85.0,111.0
118.0,126.0,118.0,52.0,124.0,133.0,115.0,90.0,-1.0,101.0,-80.0,124.0,127.0,126.0,-112.0,-85.0,111.0
118.0,126.0,118.0,52.0,125.0,133.0,115.0,90.0,-1.0,101.0,-80.0,124.0,127.0,126.0,-112.0,-85.0,111.0
119.0,125.0,117.0,85.0,144.0,155.0,130.0,94.0,-1.0,100.0,-79.0,124.0,127.0,126.0,-112.0,-85.0,111.0
119.0,125.0,114.0,75.0,140.0,149.0,128.0,92.0,-1.0,100.0,-79.0,124.0,127.0,126.0,-112.0,-85.0,111.0
119.0,125.0,114.0,76.0,141.0,150.0,128.0,92.0,-1.0,100.0,-79.0,124.0,127.0,126.0,-112.0,-85.0,111.0
119.0,125.0,115.0,77.0,141.0,150.0,129.0,92.0,-1.0,100.0,-79.0,124.0,127.0,126.0,-112.0,-85.0,111.0
119.0,125.0,115.0,78.0,142.0,151.0,129.0,92.0,-1.0,100.0,-79.0,124.0,127.0,126.0,-112.0,-85.0,111.0
119.0,125.0,115.0,79.0,142.0,151.0,129.0,92.0,-1.0,100.0,-79.0,124.0,127.0,126.0,-112.0,-85.0,111.0
119.0,125.0,115.0,80.0,143.0,152.0,129.0,93.0,-1.0,100.0,-79.0,124.0,127.0,126.0,-112.0,-85.0,111.0
119.0,125.0,116.0,81.0,143.0,153.0,129.0,93.0,-1.0,100.0,-79.0,124.0,127.0,126.0,-112.0,-85.0,111.0
119.0,125.0,116.0,83.0,143.0,154.0,129.0,93.0,-1.0,100.0,-79.0,124.0,127.0,126.0,-112.0,-85.0,111.0
119.0,125.0,116.0,84.0,144.0,154.0,129.0,93.0,-1.0,100.0,-79.0,124.0,127.0,126.0,-112.0,-85.0,111.0
121.0,126.0,125.0,135.0,153.0,167.0,140.0,103.0,-1.0,100.0,-79.0,125.0,127.0,126.0,-112.0,-85.0,111.0
121.0,126.0,125.0,136.0,154.0,167.0,140.0,103.0,-1.0,100.0,-79.0,125.0,127.0,126.0,-112.0,-85.0,111.0
121.0,126.0,125.0,137.0,154.0,167.0,141.0,103.0,-1.0,100.0,-79.0,125.0,127.0,126.0,-112.0,-85.0,111.0
121.0,126.0,125.0,138.0,154.0,167.0,141.0,104.0,-1.0,100.0,-79.0,125.0,127.0,126.0,-112.0,-85.0,111.0
121.0,126.0,125.0,139.0,154.0,168.0,142.0,104.0,-1.0,100.0,-79.0,125.0,127.0,126.0,-112.0,-85.0,111.0
121.0,126.0,125.0,139.0,154.0,168.0,142.0,104.0,-1.0,100.0,-79.0,125.0,127.0,126.0,-112.0,-85.0,111.0
121.0,126.0,125.0,140.0,154.0,168.0,142.0,105.0,-1.0,100.0,-79.0,125.0,127.0,126.0,-112.0,-85.0,111.0
121.0,127.0,125.0,141.0,154.0,169.0,142.0,105.0,-1.0,100.0,-79.0,125.0,127.0,126.0,-112.0,-85.0,111.0
121.0,127.0,125.0,142.0,154.0,169.0,142.0,105.0,-1.0,100.0,-79.0,125.0,127.0,126.0,-112.0,-85.0,111.0
121.0,127.0,125.0,142.0,154.0,169.0,142.0,106.0,-1.0,100.0,-79.0,125.0,127.0,126.0,-112.0,-85.0,111.0
121.0,127.0,123.0,146.0,153.0,168.0,149.0,112.0,-1.0,101.0,-79.0,125.0,127.0,126.0,-112.0,-85.0,111.0
121.0,127.0,123.0,146.0,153.0,168.0,149.0,112.0,-1.0,101.0,-79.0,125.0,127.0,126.0,-112.0,-85.0,111.0
121.0,127.0,123.0,146.0,153.0,168.0,150.0,112.0,-1.0,101.0,-79.0,125.0,127.0,126.0,-112.0,-85.0,111.0
121.0,127.0,123.0,145.0,153.0,167.0,150.0,112.0,-1.0,101.0,-79.0,125.0,127.0,126.0,-112.0,-85.0,111.0
121.0,127.0,123.0,145.0,153.0,167.0,150.0,113.0,-1.0,101.0,-79.0,125.0,127.0,126.0,-112.0,-85.0,111.0
121.0,127.0,123.0,145.0,153.0,167.0,150.0,113.0,-1.0,101.0,-79.0,125.0,127.0,126.0,-112.0,-85.0,111.0
121.0,127.0,123.0,145.0,153.0,167.0,150.0,113.0,-1.0,101.0,-79.0,125.0,127.0,126.0,-112.0,-85.0,111.0
121.0,127.0,123.0,144.0,153.0,167.0,150.0,113.0,-1.0,101.0,-79.0,125.0,127.0,126.0,-112.0,-85.0,111.0
121.0,127.0,123.0,144.0,153.0,166.0,150.0,113.0,-1.0,101.0,-79.0,125.0,127.0,126.0,-112.0,-85.0,111.0
121.0,127.0,123.0,147.0,154.0,168.0,149.0,112.0,-1.0,101.0,-79.0,125.0,127.0,126.0,-112.0,-85.0,111.0
122.0,128.0,123.0,134.0,145.0,160.0,142.0,116.0,-1.0,102.0,-80.0,125.0,127.0,126.0,-112.0,-85.0,111.0
122.0,128.0,123.0,134.0,145.0,160.0,142.0,116.0,-1.0,102.0,-80.0,125.0,127.0,126.0,-112.0,-85.0,111.0
122.0,128.0,123.0,133.0,145.0,159.0,142.0,116.0,-1.0,102.0,-80.0,125.0,127.0,126.0,-112.0,-85.0,111.0
122.0,128.0,123.0,133.0,144.0,159.0,142.0,116.0,-1.0,102.0,-80.0,125.0,127.0,126.0,-112.0,-85.0,111.0
122.0,128.0,123.0,133.0,144.0,158.0,142.0,116.0,-1.0,102.0,-80.0,125.0,127.0,126.0,-112.0,-85.0,111.0
122.0,128.0,123.0,133.0,144.0,158.0,142.0,116.0,-1.0,102.0,-80.0,125.0,127.0,126.0,-112.0,-85.0,111.0
122.0,128.0,123.0,133.0,144.0,158.0,142.0,116.0,-1.0,102.0,-80.0,125.0,127.0,126.0,-112.0,-85.0,111.0
122.0,128.0,123.0,132.0,144.0,157.0,142.0,116.0,-1.0,102.0,-80.0,125.0,127.0,126.0,-112.0,-85.0,111.0
122.0,128.0,123.0,134.0,145.0,161.0,142.0,116.0,-1.0,102.0,-80.0,125.0,127.0,126.0,-112.0,-85.0,111.0
122.0,128.0,123.0,134.0,145.0,160.0,142.0,116.0,-1.0,102.0,-80.0,125.0,127.0,126.0,-112.0,-85.0,111.0
124.0,128.0,124.0,127.0,132.0,149.0,139.0,118.0,-1.0,103.0,-81.0,126.0,127.0,126.0,-112.0,-85.0,111.0
124.0,128.0,124.0,127.0,132.0,149.0,139.0,118.0,-1.0,103.0,-81.0,126.0,127.0,126.0,-112.0,-85.0,111.0
124.0,128.0,124.0,127.0,132.0,149.0,139.0,118.0,-1.0,103.0,-81.0,126.0,127.0,126.0,-112.0,-85.0,111.0
124.0,128.0,124.0,127.0,132.0,148.0,139.0,118.0,-1.0,103.0,-81.0,126.0,127.0,126.0,-112.0,-85.0,111.0
124.0,128.0,125.0,127.0,132.0,148.0,139.0,118.0,-1.0,103.0,-81.0,126.0,127.0,126.0,-112.0,-85.0,111.0
124.0,128.0,125.0,127.0,132.0,148.0,139.0,118.0,-1.0,103.0,-81.0,126.0,127.0,126.0,-112.0,-85.0,111.0
124.0,128.0,125.0,127.0,131.0,148.0,140.0,118.0,-1.0,103.0,-81.0,126.0,127.0,126.0,-112.0,-85.0,111.0
124.0,129.0,124.0,128.0,133.0,150.0,139.0,118.0,-1.0,103.0,-81.0,126.0,127.0,126.0,-112.0,-85.0,111.0
124.0,128.0,124.0,128.0,133.0,150.0,139.0,118.0,-1.0,103.0,-81.0,126.0,127.0,126.0,-112.0,-85.0,111.0
124.0,129.0,124.0,127.0,133.0,150.0,139.0,118.0,-1.0,103.0,-81.0,126.0,127.0,126.0,-112.0,-85.0,111.0
124.0,129.0,125.0,124.0,125.0,145.0,140.0,120.0,-1.0,104.0,-82.0,126.0,127.0,126.0,-112.0,-85.0,111.0
124.0,129.0,125.0,124.0,125.0,145.0,140.0,120.0,-1.0,104.0,-82.0,126.0,127.0,126.0,-112.0,-85.0,111.0
124.0,129.0,125.0,124.0,125.0,145.0,140.0,120.0,-1.0,104.0,-82.0,126.0,127.0,126.0,-112.0,-85.0,111.0
124.0,129.0,125.0,124.0,125.0,144.0,140.0,120.0,-1.0,104.0,-82.0,126.0,127.0,126.0,-112.0,-85.0,111.0
124.0,129.0,125.0,124.0,125.0,145.0,140.0,120.0,-1.0,104.0,-82.0,126.0,127.0,126.0,-112.0,-85.0,111.0
124.0,129.0,125.0,124.0,125.0,144.0,140.0,120.0,-1.0,104.0,-82.0,126.0,127.0,126.0,-112.0,-85.0,111.0
124.0,129.0,125.0,124.0,125.0,145.0,139.0,120.0,-1.0,104.0,-82.0,126.0,127.0,126.0,-112.0,-85.0,111.0
124.0,129.0,125.0,124.0,125.0,145.0,139.0,121.0,-1.0,104.0,-82.0,126.0,127.0,126.0,-112.0,-85.0,111.0
124.0,129.0,125.0,124.0,125.0,145.0,139.0,121.0,-1.0,104.0,-82.0,126.0,127.0,126.0,-112.0,-85.0,111.0
124.0,129.0,125.0,124.0,125.0,145.0,140.0,120.0,-1.0,104.0,-82.0,126.0,127.0,126.0,-112.0,-85.0,111.0
124.0,129.0,126.0,122.0,124.0,145.0,142.0,122.0,-1.0,104.0,-82.0,126.0,127.0,126.0,-112.0,-85.0,111.0
124.0,129.0,126.0,122.0,124.0,145.0,143.0,122.0,-1.0,104.0,-82.0,126.0,127.0,126.0,-112.0,-85.0,111.0
124.0,129.0,126.0,122.0,124.0,144.0,143.0,122.0,-1.0,104.0,-82.0,126.0,127.0,126.0,-112.0,-85.0,111.0
124.0,129.0,126.0,122.0,124.0,145.0,143.0,122.0,-1.0,104.0,-82.0,126.0,127.0,126.0,-112.0,-85.0,111.0
124.0,129.0,126.0,122.0,124.0,144.0,143.0,122.0,-1.0,104.0,-82.0,126.0,127.0,126.0,-112.0,-85.0,111.0
124.0,129.0,126.0,122.0,124.0,145.0,143.0,122.0,-1.0,104.0,-82.0,126.0,127.0,126.0,-112.0,-85.0,111.0
124.0,128.0,126.0,122.0,124.0,145.0,143.0,122.0,-1.0,104.0,-82.0,126.0,127.0,126.0,-112.0,-85.0,111.0
124.0,128.0,126.0,122.0,124.0,145.0,143.0,122.0,-1.0,104.0,-82.0,126.0,127.0,126.0,-112.0,-85.0,111.0
124.0,129.0,126.0,122.0,124.0,145.0,143.0,122.0,-1.0,104.0,-82.0,126.0,127.0,126.0,-112.0,-85.0,111.0
124.0,129.0,126.0,122.0,124.0,145.0,142.0,122.0,-1.0,104.0,-82.0,126.0,127.0,126.0,-112.0,-85.0,111.0
124.0,128.0,130.0,124.0,123.0,147.0,144.0,123.0,-1.0,104.0,-83.0,126.0,127.0,126.0,-112.0,-85.0,111.0
124.0,128.0,130.0,124.0,123.0,147.0,144.0,123.0,-1.0,104.0,-83.0,126.0,127.0,126.0,-112.0,-85.0,111.0
124.0,128.0,130.0,124.0,123.0,147.0,144.0,123.0,-1.0,104.0,-83.0,126.0,127.0,126.0,-112.0,-85.0,111.0
124.0,128.0,130.0,124.0,123.0,147.0,144.0,123.0,-1.0,104.0,-83.0,126.0,127.0,126.0,-112.0,-85.0,111.0
124.0,128.0,130.0,124.0,123.0,147.0,145.0,123.0,-1.0,104.0,-83.0,126.0,127.0,126.0,-112.0,-85.0,111.0
124.0,128.0,130.0,124.0,123.0,146.0,145.0,123.0,-1.0,104.0,-83.0,126.0,127.0,126.0,-112.0,-85.0,111.0
124.0,128.0,130.0,124.0,123.0,147.0,145.0,123.0,-1.0,104.0,-83.0,126.0,127.0,126.0,-112.0,-85.0,111.0
124.0,128.0,130.0,124.0,123.0,147.0,145.0,123.0,-1.0,104.0,-83.0,126.0,127.0,126.0,-112.0,-85.0,111.0
124.0,128.0,130.0,124.0,123.0,147.0,144.0,123.0,-1.0,104.0,-83.0,126.0,127.0,126.0,-112.0,-85.0,111.0
124.0,129.0,130.0,124.0,123.0,147.0,144.0,123.0,-1.0,104.0,-83.0,126.0,127.0,126.0,-112.0,-85.0,111.0
124.0,129.0,130.0,121.0,123.0,149.0,143.0,123.0,-1.0,103.0,-83.0,126.0,127.0,126.0,-112.0,-85.0,111.0
124.0,129.0,129.0,121.0,123.0,149.0,143.0,123.0,-1.0,103.0,-83.0,126.0,127.0,126.0,-112.0,-85.0,111.0
124.0,129.0,131.0,121.0,123.0,149.0,143.0,123.0,-1.0,103.0,-83.0,126.0,127.0,126.0,-112.0,-85.0,111.0
124.0,129.0,131.0,121.0,123.0,149.0,143.0,123.0,-1.0,103.0,-83.0,126.0,127.0,126.0,-112.0,-85.0,111.0
124.0,128.0,131.0,121.0,123.0,149.0,144.0,123.0,-1.0,103.0,-83.0,126.0,127.0,126.0,-112.0,-85.0,111.0
124.0,129.0,130.0,121.0,123.0,149.0,144.0,123.0,-1.0,103.0,-83.0,126.0,127.0,126.0,-112.0,-85.0,111.0
124.0,128.0,130.0,121.0,123.0,149.0,143.0,123.0,-1.0,103.0,-83.0,126.0,127.0,126.0,-112.0,-85.0,111.0
124.0,129.0,130.0,121.0,123.0,149.0,143.0,123.0,-1.0,103.0,-83.0,126.0,127.0,126.0,-112.0,-85.0,111.0
124.0,129.0,130.0,121.0,123.0,149.0,143.0,123.0,-1.0,103.0,-83.0,126.0,127.0,126.0,-112.0,-85.0,111.0
124.0,129.0,130.0,121.0,123.0,149.0,143.0,123.0,-1.0,103.0,-83.0,126.0,127.0,126.0,-112.0,-85.0,111.0
125.0,129.0,123.0,119.0,125.0,150.0,141.0,123.0,-1.0,102.0,-82.0,126.0,127.0,126.0,-112.0,-85.0,111.0
124.0,128.0,124.0,118.0,125.0,149.0,141.0,122.0,-1.0,102.0,-82.0,126.0,127.0,126.0,-112.0,-85.0,111.0
124.0,128.0,124.0,118.0,125.0,149.0,141.0,122.0,-1.0,102.0,-82.0,126.0,127.0,126.0,-112.0,-85.0,111.0
124.0,128.0,124.0,118.0,125.0,149.0,141.0,122.0,-1.0,102.0,-82.0,126.0,127.0,126.0,-112.0,-85.0,111.0
125.0,128.0,124.0,119.0,125.0,149.0,141.0,122.0,-1.0,102.0,-82.0,126.0,127.0,126.0,-112.0,-85.0,111.0
125.0,128.0,124.0,118.0,125.0,149.0,141.0,122.0,-1.0,102.0,-82.0,126.0,127.0,126.0,-112.0,-85.0,111.0
125.0,129.0,123.0,119.0,125.0,150.0,141.0,122.0,-1.0,102.0,-82.0,126.0,127.0,126.0,-112.0,-85.0,111.0
125.0,129.0,123.0,119.0,125.0,150.0,141.0,123.0,-1.0,102.0,-82.0,126.0,127.0,126.0,-112.0,-85.0,111.0
125.0,129.0,123.0,119.0,125.0,150.0,141.0,123.0,-1.0,102.0,-82.0,126.0,127.0,126.0,-112.0,-85.0,111.0
125.0,129.0,124.0,119.0,125.0,150.0,141.0,123.0,-1.0,102.0,-82.0,126.0,127.0,126.0,-112.0,-85.0,111.0
125.0,128.0,123.0,127.0,124.0,150.0,141.0,125.0,-1.0,100.0,-81.0,126.0,127.0,126.0,-112.0,-85.0,111.0
125.0,128.0,123.0,127.0,125.0,150.0,141.0,125.0,-1.0,100.0,-81.0,126.0,127.0,126.0,-112.0,-85.0,111.0
125.0,128.0,123.0,127.0,125.0,150.0,141.0,125.0,-1.0,100.0,-81.0,126.0,127.0,126.0,-112.0,-85.0,111.0
125.0,128.0,123.0,127.0,125.0,150.0,141.0,125.0,-1.0,100.0,-81.0,126.0,127.0,126.0,-112.0,-85.0,111.0
125.0,128.0,123.0,128.0,125.0,150.0,141.0,125.0,-1.0,100.0,-81.0,126.0,127.0,126.0,-112.0,-85.0,111.0
125.0,128.0,123.0,128.0,125.0,150.0,140.0,126.0,-1.0,100.0,-81.0,126.0,127.0,126.0,-112.0,-85.0,111.0
125.0,128.0,123.0,128.0,125.0,151.0,140.0,126.0,-1.0,100.0,-81.0,126.0,127.0,126.0,-112.0,-85.0,111.0
125.0,128.0,123.0,128.0,125.0,151.0,141.0,126.0,-1.0,100.0,-81.0,126.0,127.0,126.0,-112.0,-85.0,111.0
125.0,128.0,123.0,128.0,125.0,151.0,141.0,126.0,-1.0,100.0,-81.0,126.0,127.0,126.0,-112.0,-85.0,111.0
125.0,128.0,123.0,128.0,125.0,150.0,141.0,126.0,-1.0,100.0,-81.0,126.0,127.0,126.0,-112.0,-85.0,111.0
125.0,128.0,125.0,128.0,124.0,147.0,140.0,126.0,-1.0,99.0,-81.0,126.0,127.0,126.0,-112.0,-85.0,111.0
125.0,128.0,125.0,128.0,124.0,147.0,140.0,126.0,-1.0,99.0,-81.0,126.0,127.0,126.0,-112.0,-85.0,111.0
125.0,128.0,125.0,128.0,124.0,147.0,140.0,126.0,-1.0,99.0,-81.0,126.0,127.0,126.0,-112.0,-85.0,111.0
125.0,128.0,125.0,127.0,124.0,147.0,140.0,126.0,-1.0,99.0,-81.0,126.0,127.0,126.0,-112.0,-85.0,111.0
125.0,128.0,125.0,127.0,124.0,147.0,140.0,126.0,-1.0,99.0,-81.0,126.0,127.0,126.0,-112.0,-85.0,111.0
125.0,128.0,125.0,127.0,124.0,147.0,140.0,126.0,-1.0,99.0,-81.0,126.0,127.0,126.0,-112.0,-85.0,111.0
125.0,128.0,125.0,127.0,123.0,147.0,140.0,126.0,-1.0,99.0,-81.0,126.0,127.0,126.0,-112.0,-85.0,111.0
125.0,128.0,125.0,127.0,123.0,147.0,139.0,127.0,-1.0,99.0,-81.0,126.0,127.0,126.0,-112.0,-85.0,111.0
125.0,128.0,125.0,127.0,123.0,148.0,139.0,127.0,-1.0,99.0,-81.0,126.0,127.0,126.0,-112.0,-85.0,111.0
125.0,128.0,125.0,128.0,124.0,147.0,140.0,126.0,-1.0,99.0,-81.0,126.0,127.0,126.0,-112.0,-85.0,111.0
125.0,128.0,126.0,126.0,122.0,146.0,137.0,127.0,-1.0,98.0,-81.0,127.0,127.0,126.0,-112.0,-85.0,110.0
125.0,128.0,126.0,126.0,122.0,146.0,137.0,127.0,-1.0,98.0,-81.0,127.0,127.0,126.0,-112.0,-85.0,110.0
125.0,128.0,126.0,126.0,123.0,146.0,137.0,127.0,-1.0,98.0,-81.0,127.0,127.0,126.0,-112.0,-85.0,110.0
125.0,128.0,126.0,126.0,123.0,146.0,137.0,127.0,-1.0,98.0,-81.0,127.0,127.0,126.0,-112.0,-85.0,110.0
125.0,128.0,126.0,126.0,123.0,146.0,137.0,127.0,-1.0,98.0,-81.0,127.0,127.0,126.0,-112.0,-85.0,110.0
125.0,128.0,126.0,126.0,123.0,146.0,138.0,127.0,-1.0,98.0,-81.0,127.0,127.0,126.0,-112.0,-85.0,110.0
125.0,128.0,126.0,126.0,123.0,145.0,138.0,127.0,-1.0,98.0,-81.0,127.0,127.0,126.0,-112.0,-85.0,110.0
125.0,128.0,126.0,126.0,123.0,145.0,138.0,127.0,-1.0,98.0,-81.0,127.0,127.0,126.0,-112.0,-85.0,110.0
125.0,128.0,126.0,126.0,123.0,146.0,138.0,127.0,-1.0,98.0,-81.0,127.0,127.0,126.0,-112.0,-85.0,110.0
125.0,128.0,126.0,126.0,123.0,145.0,138.0,127.0,-1.0,98.0,-81.0,127.0,127.0,126.0,-112.0,-85.0,110.0
126.0,129.0,126.0,125.0,123.0,145.0,136.0,127.0,-1.0,98.0,-81.0,127.0,127.0,127.0,-112.0,-85.0,110.0
125.0,128.0,126.0,125.0,123.0,145.0,137.0,127.0,-1.0,98.0,-81.0,127.0,127.0,127.0,-112.0,-85.0,110.0
125.0,128.0,126.0,125.0,123.0,145.0,137.0,127.0,-1.0,98.0,-81.0,127.0,127.0,127.0,-112.0,-85.0,110.0
125.0,128.0,126.0,125.0,124.0,144.0,137.0,127.0,-1.0,98.0,-81.0,127.0,127.0,127.0,-112.0,-85.0,110.0
125.0,128.0,127.0,125.0,124.0,144.0,137.0,127.0,-1.0,98.0,-81.0,127.0,127.0,127.0,-112.0,-85.0,110.0
125.0,128.0,127.0,125.0,124.0,144.0,137.0,127.0,-1.0,98.0,-81.0,127.0,127.0,127.0,-112.0,-85.0,110.0
125.0,128.0,127.0,125.0,124.0,144.0,137.0,127.0,-1.0,98.0,-81.0,127.0,127.0,127.0,-112.0,-85.0,110.0
125.0,128.0,126.0,125.0,124.0,144.0,137.0,127.0,-1.0,98.0,-81.0,127.0,127.0,127.0,-112.0,-85.0,110.0
125.0,128.0,126.0,125.0,124.0,144.0,137.0,127.0,-1.0,98.0,-81.0,127.0,127.0,127.0,-112.0,-85.0,110.0
125.0,128.0,126.0,125.0,123.0,145.0,137.0,127.0,-1.0,98.0,-81.0,127.0,127.0,127.0,-112.0,-85.0,110.0
125.0,129.0,127.0,125.0,124.0,143.0,135.0,127.0,-1.0,98.0,-81.0,127.0,127.0,127.0,-112.0,-85.0,110.0
125.0,129.0,127.0,125.0,124.0,143.0,135.0,127.0,-1.0,98.0,-81.0,127.0,127.0,127.0,-112.0,-85.0,110.0
125.0,128.0,127.0,125.0,124.0,143.0,136.0,127.0,-1.0,98.0,-81.0,127.0,127.0,127.0,-112.0,-85.0,110.0
125.0,128.0,127.0,125.0,124.0,143.0,136.0,127.0,-1.0,98.0,-81.0,127.0,127.0,127.0,-112.0,-85.0,110.0
125.0,128.0,127.0,125.0,124.0,143.0,136.0,127.0,-1.0,98.0,-81.0,127.0,127.0,127.0,-112.0,-85.0,110.0
125.0,128.0,127.0,125.0,124.0,143.0,136.0,127.0,-1.0,98.0,-81.0,127.0,127.0,127.0,-112.0,-85.0,110.0
125.0,128.0,127.0,125.0,124.0,143.0,136.0,127.0,-1.0,98.0,-81.0,127.0,127.0,127.0,-112.0,-85.0,110.0
125.0,128.0,127.0,125.0,124.0,143.0,136.0,127.0,-1.0,98.0,-81.0,127.0,127.0,127.0,-112.0,-85.0,110.0
125.0,128.0,127.0,125.0,124.0,143.0,135.0,127.0,-1.0,98.0,-81.0,127.0,127.0,127.0,-112.0,-85.0,110.0
126.0,129.0,127.0,125.0,124.0,143.0,135.0,128.0,-1.0,98.0,-81.0,127.0,127.0,127.0,-112.0,-85.0,110.0
126.0,128.0,127.0,125.0,124.0,143.0,135.0,128.0,-1.0,98.0,-81.0,127.0,127.0,127.0,-112.0,-85.0,110.0
126.0,128.0,127.0,125.0,124.0,143.0,135.0,128.0,-1.0,98.0,-81.0,127.0,127.0,127.0,-112.0,-85.0,110.0
126.0,128.0,127.0,125.0,124.0,143.0,135.0,128.0,-1.0,98.0,-81.0,127.0,127.0,127.0,-112.0,-85.0,110.0
126.0,128.0,127.0,125.0,124.0,143.0,135.0,127.0,-1.0,98.0,-81.0,127.0,127.0,127.0,-112.0,-85.0,110.0
126.0,128.0,127.0,125.0,124.0,143.0,135.0,127.0,-1.0,98.0,-81.0,127.0,127.0,127.0,-112.0,-85.0,110.0
126.0,128.0,127.0,125.0,124.0,143.0,135.0,127.0,-1.0,98.0,-81.0,127.0,127.0,127.0,-112.0,-85.0,110.0
126.0,128.0,127.0,125.0,124.0,143.0,135.0,127.0,-1.0,98.0,-81.0,127.0,127.0,127.0,-112.0,-85.0,110.0
126.0,128.0,127.0,125.0,124.0,143.0,135.0,127.0,-1.0,98.0,-81.0,127.0,127.0,127.0,-112.0,-85.0,110.0
126.0,128.0,127.0,125.0,124.0,143.0,135.0,128.0,-1.0,98.0,-81.0,127.0,127.0,127.0,-112.0,-85.0,110.0
126.0,128.0,127.0,125.0,124.0,143.0,135.0,128.0,-1.0,98.0,-81.0,127.0,127.0,127.0,-112.0,-85.0,110.0
126.0,128.0,127.0,125.0,124.0,142.0,134.0,127.0,-1.0,99.0,-81.0,127.0,127.0,127.0,-112.0,-85.0,110.0
126.0,128.0,127.0,125.0,124.0,142.0,133.0,127.0,-1.0,99.0,-81.0,127.0,127.0,127.0,-112.0,-85.0,110.0
126.0,128.0,127.0,125.0,124.0,142.0,134.0,127.0,-1.0,99.0,-81.0,127.0,127.0,127.0,-112.0,-85.0,110.0
126.0,128.0,127.0,125.0,125.0,142.0,134.0,127.0,-1.0,99.0,-81.0,127.0,127.0,127.0,-112.0,-85.0,110.0
126.0,128.0,127.0,125.0,124.0,142.0,134.0,127.0,-1.0,99.0,-81.0,127.0,127.0,127.0,-112.0,-85.0,110.0
126.0,128.0,127.0,125.0,124.0,142.0,134.0,127.0,-1.0,99.0,-81.0,127.0,127.0,127.0,-112.0,-85.0,110.0
126.0,128.0,127.0,125.0,124.0,142.0,134.0,127.0,-1.0,99.0,-81.0,127.0,127.0,127.0,-112.0,-85.0,110.0
126.0,128.0,127.0,125.0,124.0,143.0,134.0,128.0,-1.0,99.0,-81.0,127.0,127.0,127.0,-112.0,-85.0,110.0
126.0,128.0,127.0,125.0,124.0,142.0,134.0,127.0,-1.0,99.0,-81.0,127.0,127.0,127.0,-112.0,-85.0,110.0
126.0,128.0,127.0,125.0,124.0,142.0,134.0,127.0,-1.0,99.0,-81.0,127.0,127.0,127.0,-112.0,-85.0,110.0
126.0,128.0,127.0,125.0,125.0,142.0,133.0,128.0,-1.0,99.0,-81.0,127.0,127.0,127.0,-112.0,-85.0,110.0
126.0,128.0,127.0,125.0,125.0,141.0,133.0,128.0,-1.0,99.0,-81.0,127.0,127.0,127.0,-112.0,-85.0,110.0
126.0,128.0,127.0,124.0,125.0,141.0,133.0,127.0,-1.0,99.0,-81.0,127.0,127.0,127.0,-112.0,-85.0,110.0
126.0,128.0,127.0,125.0,125.0,141.0,133.0,127.0,-1.0,99.0,-81.0,127.0,127.0,127.0,-112.0,-85.0,110.0
126.0,128.0,127.0,125.0,125.0,141.0,133.0,127.0,-1.0,99.0,-81.0,127.0,127.0,127.0,-112.0,-85.0,110.0
126.0,128.0,127.0,124.0,124.0,141.0,133.0,127.0,-1.0,99.0,-81.0,127.0,127.0,127.0,-112.0,-85.0,110.0
126.0,128.0,127.0,125.0,124.0,142.0,132.0,128.0,-1.0,99.0,-81.0,127.0,127.0,127.0,-112.0,-85.0,110.0
126.0,128.0,127.0,125.0,124.0,142.0,132.0,128.0,-1.0,99.0,-81.0,127.0,127.0,127.0,-112.0,-85.0,110.0
126.0,128.0,127.0,125.0,125.0,141.0,132.0,128.0,-1.0,99.0,-81.0,127.0,127.0,127.0,-112.0,-85.0,110.0
126.0,128.0,127.0,125.0,125.0,141.0,133.0,128.0,-1.0,99.0,-81.0,127.0,127.0,127.0,-112.0,-85.0,110.0
126.0,128.0,127.0,125.0,125.0,141.0,132.0,128.0,-1.0,99.0,-81.0,127.0,127.0,127.0,-112.0,-85.0,110.0
126.0,128.0,127.0,125.0,125.0,141.0,132.0,128.0,-1.0,99.0,-81.0,127.0,127.0,127.0,-112.0,-85.0,110.0
126.0,128.0,127.0,125.0,125.0,141.0,133.0,128.0,-1.0,99.0,-81.0,127.0,127.0,127.0,-112.0,-85.0,110.0
126.0,128.0,127.0,125.0,125.0,141.0,133.0,128.0,-1.0,99.0,-81.0,127.0,127.0,127.0,-112.0,-85.0,110.0
126.0,128.0,127.0,125.0,125.0,141.0,132.0,128.0,-1.0,99.0,-81.0,127.0,127.0,127.0,-112.0,-85.0,110.0
126.0,128.0,127.0,125.0,124.0,141.0,132.0,128.0,-1.0,99.0,-81.0,127.0,127.0,127.0,-112.0,-85.0,110.0
126.0,128.0,127.0,125.0,124.0,141.0,132.0,128.0,-1.0,99.0,-81.0,127.0,127.0,127.0,-112.0,-85.0,110.0
126.0,128.0,127.0,125.0,125.0,141.0,132.0,128.0,-1.0,99.0,-81.0,127.0,127.0,127.0,-112.0,-85.0,110.0
126.0,128.0,127.0,125.0,125.0,141.0,132.0,128.0,-1.0,99.0,-81.0,127.0,127.0,127.0,-112.0,-85.0,110.0
126.0,128.0,127.0,125.0,125.0,141.0,132.0,128.0,-1.0,99.0,-81.0,127.0,127.0,127.0,-112.0,-85.0,110.0
126.0,128.0,127.0,125.0,125.0,140.0,131.0,128.0,-1.0,100.0,-81.0,127.0,127.0,127.0,-112.0,-85.0,110.0
126.0,128.0,127.0,125.0,125.0,139.0,132.0,127.0,-1.0,100.0,-81.0,127.0,127.0,127.0,-112.0,-85.0,110.0
126.0,128.0,127.0,125.0,125.0,139.0,131.0,128.0,-1.0,100.0,-81.0,127.0,127.0,127.0,-112.0,-85.0,110.0
126.0,128.0,127.0,125.0,125.0,139.0,132.0,127.0,-1.0,100.0,-81.0,127.0,127.0,127.0,-112.0,-85.0,110.0
126.0,128.0,127.0,125.0,125.0,139.0,132.0,127.0,-1.0,100.0,-81.0,127.0,127.0,127.0,-112.0,-85.0,110.0
126.0,128.0,127.0,125.0,125.0,139.0,132.0,127.0,-1.0,100.0,-81.0,127.0,127.0,127.0,-112.0,-85.0,110.0
126.0,128.0,127.0,125.0,125.0,139.0,132.0,127.0,-1.0,100.0,-81.0,127.0,127.0,127.0,-112.0,-85.0,110.0
126.0,128.0,127.0,125.0,125.0,140.0,131.0,128.0,-1.0,100.0,-81.0,127.0,127.0,127.0,-112.0,-85.0,110.0
126.0,128.0,127.0,125.0,125.0,140.0,131.0,128.0,-1.0,100.0,-81.0,127.0,127.0,127.0,-112.0,-85.0,110.0
126.0,128.0,127.0,125.0,125.0,140.0,131.0,128.0,-1.0,100.0,-81.0,127.0,127.0,127.0,-112.0,-85.0,110.0
126.0,128.0,127.0,125.0,125.0,140.0,130.0,129.0,-1.0,100.0,-82.0,127.0,127.0,127.0,-112.0,-85.0,110.0
126.0,128.0,127.0,125.0,125.0,140.0,130.0,129.0,-1.0,100.0,-82.0,127.0,127.0,127.0,-112.0,-85.0,110.0
126.0,128.0,127.0,125.0,125.0,140.0,130.0,129.0,-1.0,100.0,-82.0,127.0,127.0,127.0,-112.0,-85.0,110.0
126.0,128.0,127.0,125.0,125.0,140.0,130.0,128.0,-1.0,100.0,-82.0,127.0,127.0,127.0,-112.0,-85.0,110.0
126.0,128.0,127.0,125.0,125.0,140.0,130.0,128.0,-1.0,100.0,-82.0,127.0,127.0,127.0,-112.0,-85.0,110.0
126.0,128.0,127.0,125.0,125.0,139.0,131.0,128.0,-1.0,100.0,-82.0,127.0,127.0,127.0,-112.0,-85.0,110.0
126.0,128.0,127.0,125.0,126.0,139.0,131.0,128.0,-1.0,100.0,-82.0,127.0,127.0,127.0,-112.0,-85.0,110.0
126.0,128.0,127.0,125.0,126.0,139.0,131.0,128.0,-1.0,100.0,-82.0,127.0,127.0,127.0,-112.0,-85.0,110.0
126.0,128.0,127.0,125.0,126.0,139.0,131.0,128.0,-1.0,100.0,-82.0,127.0,127.0,127.0,-112.0,-85.0,110.0
126.0,128.0,127.0,125.0,126.0,139.0,131.0,128.0,-1.0,100.0,-82.0,127.0,127.0,127.0,-112.0,-85.0,110.0
126.0,128.0,127.0,125.0,125.0,139.0,130.0,128.0,-1.0,100.0,-82.0,127.0,127.0,127.0,-112.0,-85.0,110.0
126.0,128.0,127.0,125.0,126.0,139.0,130.0,128.0,-1.0,100.0,-82.0,127.0,127.0,127.0,-112.0,-85.0,110.0
126.0,128.0,127.0,125.0,126.0,139.0,130.0,128.0,-1.0,100.0,-82.0,127.0,127.0,127.0,-112.0,-85.0,110.0
126.0,128.0,127.0,125.0,126.0,139.0,130.0,128.0,-1.0,100.0,-82.0,127.0,127.0,127.0,-112.0,-85.0,110.0
126.0,128.0,127.0,125.0,126.0,139.0,130.0,128.0,-1.0,100.0,-82.0,127.0,127.0,127.0,-112.0,-85.0,110.0
126.0,128.0,127.0,125.0,126.0,139.0,130.0,128.0,-1.0,100.0,-82.0,127.0,127.0,127.0,-112.0,-85.0,110.0
126.0,128.0,127.0,125.0,126.0,139.0,130.0,128.0,-1.0,100.0,-82.0,127.0,127.0,127.0,-112.0,-85.0,110.0
126.0,128.0,127.0,125.0,126.0,139.0,130.0,128.0,-1.0,100.0,-82.0,127.0,127.0,127.0,-112.0,-85.0,110.0
126.0,128.0,127.0,125.0,126.0,139.0,131.0,128.0,-1.0,100.0,-82.0,127.0,127.0,127.0,-112.0,-85.0,110.0
126.0,128.0,127.0,125.0,125.0,139.0,130.0,128.0,-1.0,100.0,-82.0,127.0,127.0,127.0,-112.0,-85.0,110.0
126.0,128.0,127.0,125.0,126.0,139.0,129.0,128.0,-1.0,101.0,-82.0,127.0,127.0,127.0,-112.0,-85.0,110.0
126.0,128.0,127.0,124.0,126.0,139.0,129.0,128.0,-1.0,101.0,-82.0,127.0,127.0,127.0,-112.0,-85.0,110.0
126.0,128.0,127.0,124.0,126.0,139.0,129.0,128.0,-1.0,101.0,-82.0,127.0,127.0,127.0,-112.0,-85.0,110.0
126.0,128.0,127.0,124.0,126.0,139.0,129.0,128.0,-1.0,101.0,-82.0,127.0,127.0,127.0,-112.0,-85.0,110.0
126.0,128.0,127.0,124.0,126.0,138.0,129.0,128.0,-1.0,101.0,-82.0,127.0,127.0,127.0,-112.0,-85.0,110.0
126.0,128.0,127.0,124.0,126.0,138.0,129.0,128.0,-1.0,101.0,-82.0,127.0,127.0,127.0,-112.0,-85.0,110.0
126.0,128.0,127.0,124.0,126.0,138.0,129.0,128.0,-1.0,101.0,-82.0,127.0,127.0,127.0,-112.0,-85.0,110.0
126.0,128.0,127.0,125.0,126.0,138.0,129.0,128.0,-1.0,101.0,-82.0,127.0,127.0,127.0,-112.0,-85.0,110.0
126.0,128.0,127.0,124.0,125.0,139.0,129.0,128.0,-1.0,101.0,-82.0,127.0,127.0,127.0,-112.0,-85.0,110.0
126.0,128.0,127.0,125.0,125.0,139.0,129.0,128.0,-1.0,101.0,-82.0,127.0,127.0,127.0,-112.0,-85.0,110.0
127.0,128.0,127.0,125.0,126.0,139.0,129.0,128.0,-1.0,101.0,-83.0,127.0,127.0,127.0,-112.0,-85.0,110.0
127.0,128.0,127.0,125.0,126.0,138.0,129.0,128.0,-1.0,101.0,-83.0,127.0,127.0,127.0,-112.0,-85.0,110.0
126.0,128.0,127.0,125.0,126.0,138.0,129.0,128.0,-1.0,101.0,-83.0,127.0,127.0,127.0,-112.0,-85.0,110.0
126.0,128.0,127.0,125.0,126.0,138.0,129.0,128.0,-1.0,101.0,-83.0,127.0,127.0,127.0,-112.0,-85.0,110.0
126.0,128.0,127.0,125.0,126.0,138.0,129.0,128.0,-1.0,101.0,-83.0,127.0,127.0,127.0,-112.0,-85.0,110.0
126.0,128.0,127.0,125.0,126.0,138.0,129.0,128.0,-1.0,101.0,-83.0,127.0,127.0,127.0,-112.0,-85.0,110.0
126.0,128.0,127.0,125.0,126.0,138.0,129.0,128.0,-1.0,101.0,-83.0,127.0,127.0,127.0,-112.0,-85.0,110.0
127.0,128.0,127.0,125.0,126.0,139.0,129.0,128.0,-1.0,101.0,-83.0,127.0,127.0,127.0,-112.0,-85.0,110.0
127.0,128.0,127.0,125.0,126.0,139.0,129.0,128.0,-1.0,101.0,-83.0,127.0,127.0,127.0,-112.0,-85.0,110.0
127.0,128.0,127.0,125.0,126.0,139.0,129.0,128.0,-1.0,101.0,-83.0,127.0,127.0,127.0,-112.0,-85.0,110.0
127.0,128.0,127.0,124.0,126.0,138.0,129.0,129.0,-1.0,102.0,-83.0,127.0,127.0,127.0,-112.0,-85.0,110.0
127.0,128.0,127.0,124.0,126.0,138.0,129.0,129.0,-1.0,102.0,-83.0,127.0,127.0,127.0,-112.0,-85.0,110.0
127.0,128.0,127.0,124.0,126.0,138.0,129.0,129.0,-1.0,102.0,-83.0,127.0,127.0,127.0,-112.0,-85.0,110.0
127.0,128.0,127.0,124.0,126.0,138.0,129.0,129.0,-1.0,102.0,-83.0,127.0,127.0,127.0,-112.0,-85.0,110.0
127.0,128.0,127.0,124.0,126.0,138.0,129.0,129.0,-1.0,102.0,-83.0,127.0,127.0,127.0,-112.0,-85.0,110.0
127.0,128.0,127.0,124.0,126.0,138.0,129.0,129.0,-1.0,102.0,-83.0,127.0,127.0,127.0,-112.0,-85.0,110.0
127.0,128.0,127.0,124.0,125.0,138.0,128.0,129.0,-1.0,102.0,-83.0,127.0,127.0,127.0,-112.0,-85.0,110.0
127.0,128.0,127.0,125.0,125.0,139.0,128.0,129.0,-1.0,102.0,-83.0,127.0,127.0,127.0,-112.0,-85.0,110.0
127.0,128.0,127.0,125.0,125.0,139.0,128.0,129.0,-1.0,102.0,-83.0,127.0,127.0,127.0,-112.0,-85.0,110.0
127.0,128.0,127.0,124.0,126.0,138.0,129.0,129.0,-1.0,102.0,-83.0,127.0,127.0,127.0,-112.0,-85.0,110.0
127.0,128.0,127.0,125.0,126.0,138.0,128.0,129.0,-1.0,102.0,-83.0,127.0,127.0,127.0,-112.0,-85.0,110.0
126.0,128.0,127.0,125.0,126.0,138.0,128.0,129.0,-1.0,102.0,-83.0,127.0,127.0,127.0,-112.0,-85.0,110.0
126.0,128.0,127.0,125.0,126.0,138.0,128.0,129.0,-1.0,102.0,-83.0,127.0,127.0,127.0,-112.0,-85.0,110.0
126.0,128.0,127.0,125.0,126.0,138.0,128.0,129.0,-1.0,102.0,-83.0,127.0,127.0,127.0,-112.0,-85.0,110.0
126.0,128.0,127.0,125.0,126.0,138.0,128.0,129.0,-1.0,102.0,-83.0,127.0,127.0,127.0,-112.0,-85.0,110.0
126.0,128.0,127.0,124.0,126.0,138.0,128.0,129.0,-1.0,102.0,-83.0,127.0,127.0,127.0,-112.0,-85.0,110.0
126.0,128.0,127.0,125.0,126.0,138.0,128.0,129.0,-1.0,102.0,-83.0,127.0,127.0,127.0,-112.0,-85.0,110.0
126.0,128.0,127.0,125.0,126.0,138.0,128.0,129.0,-1.0,102.0,-83.0,127.0,127.0,127.0,-112.0,-85.0,110.0
126.0,128.0,127.0,125.0,126.0,138.0,128.0,129.0,-1.0,102.0,-83.0,127.0,127.0,127.0,-112.0,-85.0,110.0
126.0,128.0,127.0,125.0,126.0,138.0,128.0,129.0,-1.0,102.0,-83.0,127.0,127.0,127.0,-112.0,-85.0,110.0
126.0,128.0,127.0,125.0,126.0,138.0,128.0,129.0,-1.0,102.0,-83.0,127.0,127.0,127.0,-112.0,-85.0,110.0
126.0,128.0,127.0,125.0,126.0,137.0,128.0,129.0,-1.0,102.0,-83.0,127.0,127.0,127.0,-112.0,-85.0,110.0
126.0,128.0,127.0,125.0,126.0,137.0,129.0,129.0,-1.0,102.0,-83.0,127.0,127.0,127.0,-112.0,-85.0,110.0
126.0,128.0,127.0,125.0,126.0,138.0,128.0,129.0,-1.0,102.0,-83.0,127.0,127.0,127.0,-112.0,-85.0,110.0
126.0,128.0,126.0,125.0,125.0,138.0,128.0,129.0,-1.0,102.0,-83.0,127.0,127.0,127.0,-112.0,-85.0,110.0
126.0,128.0,126.0,125.0,125.0,138.0,128.0,129.0,-1.0,102.0,-83.0,127.0,127.0,127.0,-112.0,-85.0,110.0
126.0,128.0,126.0,125.0,125.0,138.0,128.0,129.0,-1.0,102.0,-83.0,127.0,127.0,127.0,-112.0,-85.0,110.0
126.0,128.0,127.0,125.0,126.0,138.0,128.0,129.0,-1.0,102.0,-83.0,127.0,127.0,127.0,-112.0,-85.0,110.0
126.0,128.0,127.0,125.0,126.0,138.0,128.0,129.0,-1.0,102.0,-83.0,127.0,127.0,127.0,-112.0,-85.0,110.0
126.0,128.0,127.0,125.0,125.0,138.0,128.0,129.0,-1.0,102.0,-83.0,127.0,127.0,127.0,-112.0,-85.0,110.0
127.0,128.0,127.0,125.0,126.0,137.0,129.0,129.0,-1.0,103.0,-83.0,127.0,127.0,127.0,-112.0,-85.0,110.0
127.0,128.0,127.0,125.0,126.0,137.0,129.0,129.0,-1.0,103.0,-83.0,127.0,127.0,127.0,-112.0,-85.0,110.0
126.0,128.0,127.0,124.0,126.0,137.0,129.0,129.0,-1.0,103.0,-83.0,127.0,127.0,127.0,-112.0,-85.0,110.0
126.0,128.0,127.0,125.0,126.0,137.0,129.0,129.0,-1.0,103.0,-83.0,127.0,127.0,127.0,-112.0,-85.0,110.0
126.0,128.0,127.0,125.0,126.0,136.0,129.0,128.0,-1.0,103.0,-83.0,127.0,127.0,127.0,-112.0,-85.0,110.0
127.0,128.0,127.0,124.0,126.0,137.0,129.0,128.0,-1.0,103.0,-83.0,127.0,127.0,127.0,-112.0,-85.0,110.0
127.0,128.0,127.0,125.0,126.0,137.0,129.0,129.0,-1.0,103.0,-83.0,127.0,127.0,127.0,-112.0,-85.0,110.0
127.0,128.0,127.0,125.0,126.0,137.0,129.0,129.0,-1.0,103.0,-83.0,127.0,127.0,127.0,-112.0,-85.0,110.0
127.0,128.0,127.0,125.0,126.0,137.0,129.0,129.0,-1.0,103.0,-83.0,127.0,127.0,127.0,-112.0,-85.0,110.0
127.0,128.0,127.0,125.0,126.0,137.0,129.0,129.0,-1.0,103.0,-83.0,127.0,127.0,127.0,-112.0,-85.0,110.0
126.0,128.0,127.0,125.0,126.0,137.0,128.0,128.0,-1.0,103.0,-82.0,127.0,127.0,127.0,-112.0,-85.0,110.0
126.0,128.0,127.0,125.0,126.0,138.0,127.0,129.0,-1.0,103.0,-82.0,127.0,127.0,127.0,-112.0,-85.0,110.0
126.0,128.0,127.0,125.0,126.0,138.0,127.0,129.0,-1.0,103.0,-82.0,127.0,127.0,127.0,-112.0,-85.0,110.0
126.0,128.0,127.0,125.0,126.0,138.0,127.0,129.0,-1.0,103.0,-82.0,127.0,127.0,127.0,-112.0,-85.0,110.0
126.0,128.0,127.0,125.0,126.0,138.0,127.0,129.0,-1.0,103.0,-82.0,127.0,127.0,127.0,-112.0,-85.0,110.0
126.0,128.0,127.0,125.0,125.0,137.0,127.0,129.0,-1.0,103.0,-82.0,127.0,127.0,127.0,-112.0,-85.0,110.0
126.0,128.0,127.0,125.0,126.0,137.0,127.0,129.0,-1.0,103.0,-82.0,127.0,127.0,127.0,-112.0,-85.0,110.0
126.0,128.0,127.0,125.0,126.0,137.0,128.0,129.0,-1.0,103.0,-82.0,127.0,127.0,127.0,-112.0,-85.0,110.0
126.0,128.0,127.0,125.0,126.0,137.0,128.0,129.0,-1.0,103.0,-82.0,127.0,127.0,127.0,-112.0,-85.0,110.0
126.0,128.0,127.0,125.0,126.0,137.0,128.0,128.0,-1.0,103.0,-82.0,127.0,127.0,127.0,-112.0,-85.0,110.0
126.0,128.0,127.0,125.0,126.0,138.0,127.0,128.0,-1.0,103.0,-82.0,127.0,127.0,127.0,-112.0,-85.0,110.0
126.0,128.0,127.0,125.0,126.0,138.0,127.0,128.0,-1.0,103.0,-82.0,127.0,127.0,127.0,-112.0,-85.0,110.0
126.0,128.0,127.0,125.0,126.0,137.0,127.0,128.0,-1.0,103.0,-82.0,127.0,127.0,127.0,-112.0,-85.0,110.0
126.0,128.0,127.0,125.0,126.0,137.0,127.0,128.0,-1.0,103.0,-82.0,127.0,127.0,127.0,-112.0,-85.0,110.0
126.0,128.0,127.0,125.0,126.0,137.0,127.0,128.0,-1.0,103.0,-82.0,127.0,127.0,127.0,-112.0,-85.0,110.0
126.0,128.0,127.0,125.0,126.0,137.0,127.0,128.0,-1.0,103.0,-82.0,127.0,127.0,127.0,-112.0,-85.0,110.0
126.0,128.0,127.0,125.0,126.0,137.0,127.0,128.0,-1.0,103.0,-82.0,127.0,127.0,127.0,-112.0,-85.0,110.0
126.0,128.0,127.0,125.0,126.0,137.0,127.0,128.0,-1.0,103.0,-82.0,127.0,127.0,127.0,-112.0,-85.0,110.0
126.0,128.0,127.0,125.0,126.0,137.0,127.0,128.0,-1.0,103.0,-82.0,127.0,127.0,127.0,-112.0,-85.0,110.0
126.0,128.0,127.0,125.0,126.0,137.0,128.0,128.0,-1.0,103.0,-82.0,127.0,127.0,127.0,-112.0,-85.0,110.0
127.0,128.0,127.0,125.0,126.0,138.0,127.0,128.0,-1.0,103.0,-81.0,127.0,127.0,127.0,-112.0,-85.0,110.0
127.0,128.0,127.0,125.0,126.0,137.0,127.0,128.0,-1.0,103.0,-81.0,127.0,127.0,127.0,-112.0,-85.0,110.0
127.0,128.0,126.0,125.0,126.0,137.0,127.0,128.0,-1.0,103.0,-81.0,127.0,127.0,127.0,-112.0,-85.0,110.0
127.0,128.0,127.0,125.0,126.0,137.0,127.0,128.0,-1.0,103.0,-81.0,127.0,127.0,127.0,-112.0,-85.0,110.0
127.0,128.0,127.0,125.0,126.0,137.0,127.0,128.0,-1.0,103.0,-81.0,127.0,127.0,127.0,-112.0,-85.0,110.0
127.0,128.0,127.0,125.0,126.0,137.0,127.0,128.0,-1.0,103.0,-81.0,127.0,127.0,127.0,-112.0,-85.0,110.0
127.0,128.0,127.0,125.0,126.0,137.0,127.0,128.0,-1.0,103.0,-81.0,127.0,127.0,127.0,-112.0,-85.0,110.0
127.0,128.0,127.0,125.0,126.0,136.0,128.0,128.0,-1.0,103.0,-81.0,127.0,127.0,127.0,-112.0,-85.0,110.0
126.0,128.0,127.0,125.0,126.0,136.0,128.0,127.0,-1.0,103.0,-81.0,127.0,127.0,127.0,-112.0,-85.0,110.0
127.0,128.0,126.0,125.0,126.0,138.0,127.0,128.0,-1.0,103.0,-81.0,127.0,127.0,127.0,-112.0,-85.0,110.0
127.0,128.0,127.0,125.0,126.0,137.0,127.0,128.0,-1.0,103.0,-81.0,127.0,127.0,127.0,-112.0,-85.0,110.0
127.0,128.0,127.0,125.0,126.0,137.0,127.0,128.0,-1.0,103.0,-81.0,127.0,127.0,127.0,-112.0,-85.0,110.0
127.0,128.0,127.0,125.0,126.0,137.0,127.0,128.0,-1.0,103.0,-81.0,127.0,127.0,127.0,-112.0,-85.0,110.0
127.0,128.0,127.0,125.0,126.0,137.0,127.0,128.0,-1.0,103.0,-81.0,127.0,127.0,127.0,-112.0,-85.0,110.0
126.0,127.0,127.0,125.0,126.0,136.0,127.0,128.0,-1.0,103.0,-81.0,127.0,127.0,127.0,-112.0,-85.0,110.0
126.0,128.0,127.0,125.0,126.0,136.0,127.0,128.0,-1.0,103.0,-81.0,127.0,127.0,127.0,-112.0,-85.0,110.0
126.0,127.0,127.0,125.0,126.0,136.0,128.0,127.0,-1.0,103.0,-81.0,127.0,127.0,127.0,-112.0,-85.0,110.0
126.0,127.0,127.0,125.0,126.0,136.0,128.0,127.0,-1.0,103.0,-81.0,127.0,127.0,127.0,-112.0,-85.0,110.0
127.0,128.0,127.0,125.0,126.0,137.0,127.0,128.0,-1.0,103.0,-81.0,127.0,127.0,127.0,-112.0,-85.0,110.0
127.0,128.0,127.0,125.0,126.0,137.0,127.0,128.0,-1.0,103.0,-81.0,127.0,127.0,127.0,-112.0,-85.0,110.0
126.0,128.0,127.0,125.0,126.0,137.0,127.0,128.0,-1.0,103.0,-81.0,127.0,127.0,127.0,-112.0,-85.0,110.0
126.0,128.0,127.0,125.0,126.0,137.0,127.0,128.0,-1.0,103.0,-81.0,127.0,127.0,127.0,-112.0,-85.0,110.0
126.0,128.0,127.0,125.0,126.0,137.0,127.0,128.0,-1.0,103.0,-81.0,127.0,127.0,127.0,-112.0,-85.0,110.0
126.0,128.0,127.0,125.0,126.0,137.0,127.0,128.0,-1.0,103.0,-81.0,127.0,127.0,127.0,-112.0,-85.0,110.0
126.0,128.0,127.0,125.0,126.0,137.0,127.0,128.0,-1.0,103.0,-81.0,127.0,127.0,127.0,-112.0,-85.0,110.0
126.0,128.0,127.0,125.0,126.0,136.0,127.0,128.0,-1.0,103.0,-81.0,127.0,127.0,127.0,-112.0,-85.0,110.0
126.0,128.0,127.0,125.0,126.0,136.0,127.0,128.0,-1.0,103.0,-81.0,127.0,127.0,127.0,-112.0,-85.0,110.0
126.0,128.0,127.0,125.0,126.0,137.0,127.0,129.0,-1.0,103.0,-81.0,127.0,127.0,127.0,-112.0,-85.0,110.0
126.0,128.0,127.0,125.0,126.0,137.0,127.0,129.0,-1.0,103.0,-81.0,127.0,127.0,127.0,-112.0,-85.0,110.0
126.0,128.0,127.0,125.0,126.0,137.0,127.0,129.0,-1.0,103.0,-81.0,127.0,127.0,127.0,-112.0,-85.0,110.0
127.0,128.0,127.0,125.0,126.0,137.0,127.0,129.0,-1.0,103.0,-81.0,127.0,127.0,127.0,-112.0,-85.0,110.0
127.0,128.0,127.0,125.0,126.0,137.0,127.0,129.0,-1.0,103.0,-81.0,127.0,127.0,127.0,-112.0,-85.0,110.0
126.0,128.0,127.0,125.0,127.0,137.0,127.0,129.0,-1.0,103.0,-81.0,127.0,127.0,127.0,-112.0,-85.0,110.0
126.0,128.0,127.0,125.0,127.0,137.0,127.0,129.0,-1.0,103.0,-81.0,127.0,127.0,127.0,-112.0,-85.0,110.0
126.0,128.0,127.0,125.0,127.0,137.0,127.0,128.0,-1.0,103.0,-81.0,127.0,127.0,127.0,-112.0,-85.0,110.0
126.0,128.0,127.0,125.0,127.0,136.0,127.0,128.0,-1.0,103.0,-81.0,127.0,127.0,127.0,-112.0,-85.0,110.0
127.0,128.0,127.0,125.0,126.0,137.0,126.0,129.0,-1.0,103.0,-81.0,127.0,127.0,127.0,-112.0,-85.0,110.0
127.0,128.0,127.0,125.0,126.0,137.0,126.0,129.0,-1.0,103.0,-81.0,127.0,127.0,127.0,-112.0,-85.0,110.0
127.0,128.0,127.0,125.0,126.0,137.0,126.0,129.0,-1.0,103.0,-81.0,127.0,127.0,127.0,-112.0,-85.0,110.0
127.0,128.0,127.0,125.0,126.0,137.0,127.0,129.0,-1.0,103.0,-81.0,127.0,127.0,127.0,-112.0,-85.0,110.0
127.0,128.0,127.0,125.0,127.0,137.0,127.0,128.0,-1.0,103.0,-81.0,127.0,127.0,127.0,-112.0,-85.0,110.0
126.0,128.0,127.0,125.0,127.0,136.0,127.0,128.0,-1.0,103.0,-81.0,127.0,127.0,127.0,-112.0,-85.0,110.0
126.0,128.0,127.0,125.0,127.0,136.0,127.0,128.0,-1.0,103.0,-81.0,127.0,127.0,127.0,-112.0,-85.0,110.0
126.0,128.0,127.0,125.0,127.0,136.0,127.0,128.0,-1.0,103.0,-81.0,127.0,127.0,127.0,-112.0,-85.0,110.0
126.0,128.0,127.0,125.0,127.0,136.0,127.0,128.0,-1.0,103.0,-81.0,127.0,127.0,127.0,-112.0,-85.0,110.0
127.0,128.0,127.0,125.0,126.0,137.0,126.0,129.0,-1.0,103.0,-81.0,127.0,127.0,127.0,-112.0,-85.0,110.0
127.0,128.0,127.0,125.0,126.0,137.0,126.0,129.0,-1.0,103.0,-81.0,127.0,127.0,127.0,-112.0,-85.0,110.0
127.0,128.0,127.0,125.0,126.0,137.0,126.0,129.0,-1.0,103.0,-81.0,127.0,127.0,127.0,-112.0,-85.0,110.0
127.0,128.0,127.0,125.0,127.0,137.0,127.0,128.0,-1.0,103.0,-81.0,127.0,127.0,127.0,-112.0,-85.0,110.0
127.0,128.0,127.0,125.0,126.0,137.0,127.0,129.0,-1.0,103.0,-81.0,127.0,127.0,127.0,-112.0,-85.0,110.0
127.0,127.0,127.0,125.0,126.0,136.0,127.0,128.0,-1.0,103.0,-81.0,127.0,127.0,127.0,-112.0,-85.0,110.0
127.0,127.0,127.0,125.0,126.0,136.0,127.0,128.0,-1.0,103.0,-81.0,127.0,127.0,127.0,-112.0,-85.0,110.0
127.0,128.0,127.0,125.0,126.0,136.0,127.0,128.0,-1.0,103.0,-81.0,127.0,127.0,127.0,-112.0,-85.0,110.0
127.0,128.0,127.0,125.0,126.0,136.0,127.0,128.0,-1.0,103.0,-81.0,127.0,127.0,127.0,-112.0,-85.0,110.0
126.0,127.0,127.0,125.0,126.0,135.0,127.0,128.0,-1.0,103.0,-81.0,127.0,127.0,127.0,-112.0,-85.0,110.0
126.0,127.0,127.0,125.0,126.0,135.0,127.0,128.0,-1.0,103.0,-81.0,127.0,127.0,127.0,-112.0,-85.0,110.0
126.0,127.0,127.0,125.0,126.0,136.0,127.0,128.0,-1.0,103.0,-81.0,127.0,127.0,127.0,-112.0,-85.0,110.0
127.0,127.0,127.0,125.0,126.0,136.0,127.0,128.0,-1.0,103.0,-81.0,127.0,127.0,127.0,-112.0,-85.0,110.0
127.0,128.0,127.0,125.0,126.0,136.0,127.0,128.0,-1.0,103.0,-81.0,127.0,127.0,127.0,-112.0,-85.0,110.0
127.0,128.0,127.0,125.0,126.0,136.0,127.0,128.0,-1.0,103.0,-81.0,127.0,127.0,127.0,-112.0,-85.0,110.0
126.0,128.0,127.0,125.0,126.0,135.0,127.0,128.0,-1.0,103.0,-81.0,127.0,127.0,127.0,-112.0,-85.0,110.0
126.0,127.0,127.0,125.0,126.0,135.0,127.0,128.0,-1.0,103.0,-81.0,127.0,127.0,127.0,-112.0,-85.0,110.0
126.0,128.0,127.0,125.0,126.0,136.0,126.0,128.0,-1.0,103.0,-81.0,127.0,127.0,127.0,-112.0,-85.0,110.0
126.0,128.0,126.0,125.0,126.0,136.0,126.0,128.0,-1.0,103.0,-81.0,127.0,127.0,127.0,-112.0,-85.0,110.0
126.0,128.0,126.0,125.0,126.0,136.0,126.0,128.0,-1.0,103.0,-81.0,127.0,127.0,127.0,-112.0,-85.0,110.0
126.0,128.0,126.0,125.0,126.0,136.0,127.0,128.0,-1.0,103.0,-81.0,127.0,127.0,127.0,-112.0,-85.0,110.0
126.0,128.0,127.0,125.0,126.0,136.0,127.0,128.0,-1.0,103.0,-81.0,127.0,127.0,127.0,-112.0,-85.0,110.0
126.0,128.0,127.0,125.0,126.0,136.0,127.0,128.0,-1.0,103.0,-81.0,127.0,127.0,127.0,-112.0,-85.0,110.0
126.0,127.0,127.0,125.0,126.0,136.0,127.0,128.0,-1.0,103.0,-81.0,127.0,127.0,127.0,-112.0,-85.0,110.0
126.0,127.0,127.0,125.0,126.0,135.0,127.0,128.0,-1.0,103.0,-81.0,127.0,127.0,127.0,-112.0,-85.0,110.0
126.0,127.0,127.0,125.0,126.0,136.0,127.0,128.0,-1.0,102.0,-82.0,127.0,127.0,127.0,-112.0,-85.0,110.0
127.0,128.0,127.0,125.0,126.0,137.0,126.0,128.0,-1.0,102.0,-82.0,127.0,127.0,127.0,-112.0,-85.0,110.0
127.0,128.0,127.0,125.0,126.0,136.0,126.0,128.0,-1.0,102.0,-82.0,127.0,127.0,127.0,-112.0,-85.0,110.0
127.0,128.0,127.0,125.0,126.0,136.0,126.0,128.0,-1.0,102.0,-82.0,127.0,127.0,127.0,-112.0,-85.0,110.0
127.0,127.0,127.0,125.0,126.0,136.0,126.0,128.0,-1.0,102.0,-82.0,127.0,127.0,127.0,-112.0,-85.0,110.0
127.0,127.0,127.0,125.0,126.0,136.0,127.0,128.0,-1.0,102.0,-82.0,127.0,127.0,127.0,-112.0,-85.0,110.0
126.0,127.0,127.0,125.0,126.0,136.0,127.0,128.0,-1.0,102.0,-82.0,127.0,127.0,127.0,-112.0,-85.0,110.0
126.0,127.0,127.0,125.0,126.0,136.0,127.0,128.0,-1.0,102.0,-82.0,127.0,127.0,127.0,-112.0,-85.0,110.0
126.0,127.0,127.0,125.0,126.0,136.0,127.0,128.0,-1.0,102.0,-82.0,127.0,127.0,127.0,-112.0,-85.0,110.0
126.0,127.0,127.0,125.0,126.0,136.0,127.0,128.0,-1.0,102.0,-82.0,127.0,127.0,127.0,-112.0,-85.0,110.0
127.0,128.0,127.0,125.0,126.0,136.0,127.0,128.0,-1.0,102.0,-82.0,127.0,127.0,127.0,-112.0,-85.0,110.0
127.0,128.0,127.0,125.0,126.0,136.0,127.0,128.0,-1.0,102.0,-82.0,127.0,127.0,127.0,-112.0,-85.0,110.0
127.0,128.0,127.0,125.0,126.0,136.0,127.0,128.0,-1.0,102.0,-82.0,127.0,127.0,127.0,-112.0,-85.0,110.0
127.0,128.0,127.0,125.0,126.0,136.0,127.0,128.0,-1.0,102.0,-82.0,127.0,127.0,127.0,-112.0,-85.0,110.0
127.0,128.0,127.0,125.0,126.0,136.0,127.0,128.0,-1.0,102.0,-82.0,127.0,127.0,127.0,-112.0,-85.0,110.0
127.0,128.0,127.0,125.0,126.0,136.0,127.0,128.0,-1.0,102.0,-82.0,127.0,127.0,127.0,-112.0,-85.0,110.0
127.0,128.0,127.0,125.0,126.0,135.0,127.0,128.0,-1.0,102.0,-82.0,127.0,127.0,127.0,-112.0,-85.0,110.0
127.0,128.0,127.0,125.0,126.0,135.0,127.0,128.0,-1.0,102.0,-82.0,127.0,127.0,127.0,-112.0,-85.0,110.0
127.0,128.0,127.0,125.0,126.0,135.0,128.0,128.0,-1.0,102.0,-82.0,127.0,127.0,127.0,-112.0,-85.0,110.0
127.0,127.0,127.0,125.0,126.0,135.0,128.0,128.0,-1.0,102.0,-82.0,127.0,127.0,127.0,-112.0,-85.0,110.0
127.0,128.0,127.0,126.0,126.0,136.0,126.0,128.0,-1.0,102.0,-82.0,127.0,127.0,127.0,-112.0,-85.0,110.0
127.0,128.0,127.0,126.0,126.0,136.0,126.0,128.0,-1.0,102.0,-82.0,127.0,127.0,127.0,-112.0,-85.0,110.0
127.0,128.0,127.0,126.0,126.0,136.0,126.0,128.0,-1.0,102.0,-82.0,127.0,127.0,127.0,-112.0,-85.0,110.0
127.0,127.0,127.0,125.0,126.0,136.0,127.0,128.0,-1.0,102.0,-82.0,127.0,127.0,127.0,-112.0,-85.0,110.0
127.0,128.0,127.0,125.0,126.0,136.0,127.0,128.0,-1.0,102.0,-82.0,127.0,127.0,127.0,-112.0,-85.0,110.0
127.0,127.0,127.0,125.0,126.0,136.0,127.0,128.0,-1.0,102.0,-82.0,127.0,127.0,127.0,-112.0,-85.0,110.0
127.0,127.0,127.0,125.0,126.0,135.0,127.0,128.0,-1.0,102.0,-82.0,127.0,127.0,127.0,-112.0,-85.0,110.0
127.0,127.0,127.0,125.0,126.0,135.0,127.0,128.0,-1.0,102.0,-82.0,127.0,127.0,127.0,-112.0,-85.0,110.0
127.0,127.0,127.0,125.0,126.0,135.0,127.0,128.0,-1.0,102.0,-82.0,127.0,127.0,127.0,-112.0,-85.0,110.0
127.0,128.0,127.0,126.0,126.0,136.0,126.0,129.0,-1.0,102.0,-82.0,127.0,127.0,127.0,-112.0,-85.0,110.0
127.0,128.0,127.0,125.0,126.0,136.0,126.0,128.0,-1.0,102.0,-82.0,127.0,127.0,127.0,-112.0,-85.0,110.0
127.0,128.0,127.0,125.0,126.0,136.0,126.0,128.0,-1.0,102.0,-82.0,127.0,127.0,127.0,-112.0,-85.0,110.0
127.0,128.0,127.0,125.0,126.0,135.0,126.0,128.0,-1.0,102.0,-82.0,127.0,127.0,127.0,-112.0,-85.0,110.0
127.0,128.0,127.0,125.0,126.0,135.0,127.0,128.0,-1.0,102.0,-82.0,127.0,127.0,127.0,-112.0,-85.0,110.0
127.0,128.0,127.0,125.0,126.0,135.0,127.0,128.0,-1.0,102.0,-82.0,127.0,127.0,127.0,-112.0,-85.0,110.0
127.0,128.0,127.0,125.0,126.0,135.0,127.0,128.0,-1.0,102.0,-82.0,127.0,127.0,127.0,-112.0,-85.0,110.0
127.0,128.0,127.0,125.0,126.0,135.0,127.0,128.0,-1.0,102.0,-82.0,127.0,127.0,127.0,-112.0,-85.0,110.0
127.0,128.0,127.0,125.0,126.0,135.0,127.0,128.0,-1.0,102.0,-82.0,127.0,127.0,127.0,-112.0,-85.0,110.0
127.0,128.0,127.0,125.0,126.0,136.0,126.0,128.0,-1.0,102.0,-82.0,127.0,127.0,127.0,-112.0,-85.0,110.0
127.0,128.0,127.0,125.0,126.0,136.0,126.0,128.0,-1.0,102.0,-82.0,127.0,127.0,127.0,-112.0,-85.0,110.0
127.0,128.0,127.0,125.0,126.0,135.0,126.0,129.0,-1.0,102.0,-82.0,127.0,127.0,127.0,-112.0,-85.0,110.0
127.0,128.0,127.0,125.0,126.0,135.0,127.0,128.0,-1.0,102.0,-82.0,127.0,127.0,127.0,-112.0,-85.0,110.0
127.0,128.0,127.0,125.0,126.0,135.0,127.0,128.0,-1.0,102.0,-82.0,127.0,127.0,127.0,-112.0,-85.0,110.0
127.0,128.0,127.0,125.0,126.0,135.0,127.0,128.0,-1.0,102.0,-82.0,127.0,127.0,127.0,-112.0,-85.0,110.0
127.0,128.0,127.0,125.0,126.0,135.0,127.0,128.0,-1.0,102.0,-82.0,127.0,127.0,127.0,-112.0,-85.0,110.0
127.0,127.0,127.0,125.0,126.0,135.0,127.0,128.0,-1.0,102.0,-82.0,127.0,127.0,127.0,-112.0,-85.0,110.0
127.0,127.0,127.0,125.0,126.0,135.0,127.0,128.0,-1.0,102.0,-82.0,127.0,127.0,127.0,-112.0,-85.0,110.0
127.0,128.0,127.0,125.0,126.0,136.0,126.0,129.0,-1.0,102.0,-82.0,127.0,127.0,127.0,-112.0,-85.0,110.0
127.0,128.0,127.0,125.0,126.0,136.0,126.0,129.0,-1.0,102.0,-82.0,127.0,127.0,127.0,-112.0,-85.0,110.0
127.0,128.0,127.0,125.0,126.0,136.0,126.0,129.0,-1.0,102.0,-82.0,127.0,127.0,127.0,-112.0,-85.0,110.0
127.0,128.0,127.0,125.0,126.0,135.0,126.0,129.0,-1.0,103.0,-82.0,127.0,127.0,127.0,-112.0,-85.0,110.0
127.0,128.0,127.0,125.0,126.0,135.0,126.0,128.0,-1.0,103.0,-82.0,127.0,127.0,127.0,-112.0,-85.0,110.0
127.0,128.0,127.0,125.0,126.0,135.0,126.0,128.0,-1.0,103.0,-82.0,127.0,127.0,127.0,-112.0,-85.0,110.0
127.0,127.0,127.0,125.0,126.0,135.0,127.0,128.0,-1.0,103.0,-82.0,127.0,127.0,127.0,-112.0,-85.0,110.0
127.0,127.0,127.0,125.0,126.0,135.0,127.0,128.0,-1.0,103.0,-82.0,127.0,127.0,127.0,-112.0,-85.0,110.0
127.0,127.0,127.0,125.0,126.0,135.0,127.0,128.0,-1.0,103.0,-82.0,127.0,127.0,127.0,-112.0,-85.0,110.0
127.0,128.0,127.0,126.0,126.0,136.0,126.0,129.0,-1.0,103.0,-82.0,127.0,127.0,127.0,-112.0,-85.0,110.0
127.0,128.0,127.0,125.0,126.0,136.0,126.0,129.0,-1.0,103.0,-82.0,127.0,127.0,127.0,-112.0,-85.0,110.0
127.0,128.0,127.0,125.0,126.0,136.0,126.0,129.0,-1.0,103.0,-82.0,127.0,127.0,127.0,-112.0,-85.0,110.0
127.0,128.0,127.0,125.0,126.0,136.0,126.0,129.0,-1.0,103.0,-82.0,127.0,127.0,127.0,-112.0,-85.0,110.0
127.0,128.0,127.0,125.0,126.0,135.0,126.0,128.0,-1.0,103.0,-82.0,127.0,127.0,127.0,-112.0,-85.0,110.0
127.0,128.0,127.0,125.0,126.0,135.0,126.0,128.0,-1.0,103.0,-82.0,127.0,127.0,127.0,-112.0,-85.0,110.0
127.0,128.0,127.0,125.0,126.0,135.0,126.0,128.0,-1.0,103.0,-82.0,127.0,127.0,127.0,-112.0,-85.0,110.0
127.0,128.0,127.0,125.0,126.0,135.0,126.0,129.0,-1.0,103.0,-82.0,127.0,127.0,127.0,-112.0,-85.0,110.0
127.0,128.0,127.0,125.0,126.0,135.0,126.0,129.0,-1.0,103.0,-82.0,127.0,127.0,127.0,-112.0,-85.0,110.0
127.0,127.0,127.0,125.0,126.0,135.0,127.0,128.0,-1.0,103.0,-82.0,127.0,127.0,127.0,-112.0,-85.0,110.0
127.0,127.0,127.0,125.0,126.0,135.0,126.0,128.0,-1.0,103.0,-82.0,127.0,127.0,127.0,-112.0,-85.0,110.0
127.0,128.0,127.0,125.0,126.0,135.0,126.0,128.0,-1.0,103.0,-82.0,127.0,127.0,127.0,-112.0,-85.0,110.0
127.0,128.0,127.0,125.0,126.0,135.0,126.0,128.0,-1.0,103.0,-82.0,127.0,127.0,127.0,-112.0,-85.0,110.0
127.0,128.0,127.0,125.0,126.0,135.0,126.0,128.0,-1.0,103.0,-82.0,127.0,127.0,127.0,-112.0,-85.0,110.0
127.0,128.0,127.0,125.0,126.0,135.0,127.0,128.0,-1.0,103.0,-82.0,127.0,127.0,127.0,-112.0,-85.0,110.0
127.0,128.0,127.0,125.0,126.0,135.0,127.0,128.0,-1.0,103.0,-82.0,127.0,127.0,127.0,-112.0,-85.0,110.0
127.0,128.0,127.0,125.0,126.0,136.0,126.0,129.0,-1.0,103.0,-82.0,127.0,127.0,127.0,-112.0,-85.0,110.0
127.0,128.0,127.0,125.0,126.0,136.0,126.0,129.0,-1.0,103.0,-82.0,127.0,127.0,127.0,-112.0,-85.0,110.0
127.0,127.0,127.0,125.0,126.0,135.0,127.0,128.0,-1.0,103.0,-82.0,127.0,127.0,127.0,-112.0,-85.0,110.0
127.0,128.0,127.0,125.0,126.0,135.0,127.0,128.0,-1.0,103.0,-82.0,127.0,127.0,127.0,-112.0,-85.0,110.0
127.0,128.0,127.0,125.0,126.0,136.0,126.0,129.0,-1.0,103.0,-82.0,127.0,127.0,127.0,-112.0,-85.0,110.0
127.0,128.0,127.0,125.0,126.0,136.0,126.0,129.0,-1.0,103.0,-82.0,127.0,127.0,127.0,-112.0,-85.0,110.0
127.0,128.0,127.0,125.0,126.0,135.0,126.0,129.0,-1.0,103.0,-82.0,127.0,127.0,127.0,-112.0,-85.0,110.0
127.0,128.0,127.0,125.0,126.0,135.0,127.0,128.0,-1.0,103.0,-82.0,127.0,127.0,127.0,-112.0,-85.0,110.0
127.0,127.0,127.0,125.0,126.0,134.0,127.0,128.0,-1.0,103.0,-82.0,127.0,127.0,127.0,-112.0,-85.0,110.0
127.0,128.0,127.0,125.0,126.0,135.0,126.0,129.0,-1.0,103.0,-82.0,127.0,127.0,127.0,-112.0,-85.0,110.0
127.0,128.0,127.0,125.0,126.0,135.0,126.0,129.0,-1.0,103.0,-82.0,127.0,127.0,127.0,-112.0,-85.0,110.0
127.0,127.0,127.0,125.0,126.0,134.0,127.0,128.0,-1.0,103.0,-82.0,127.0,127.0,127.0,-112.0,-85.0,110.0
127.0,127.0,127.0,125.0,126.0,134.0,127.0,128.0,-1.0,103.0,-82.0,127.0,127.0,127.0,-112.0,-85.0,110.0
127.0,127.0,127.0,125.0,126.0,135.0,126.0,128.0,-1.0,103.0,-82.0,127.0,127.0,127.0,-112.0,-85.0,110.0
127.0,127.0,127.0,125.0,126.0,135.0,126.0,128.0,-1.0,103.0,-82.0,127.0,127.0,127.0,-112.0,-85.0,110.0
127.0,127.0,127.0,126.0,126.0,135.0,126.0,128.0,-1.0,103.0,-82.0,127.0,127.0,127.0,-112.0,-85.0,110.0
127.0,127.0,127.0,125.0,126.0,134.0,127.0,128.0,-1.0,103.0,-82.0,127.0,127.0,127.0,-112.0,-85.0,110.0
127.0,127.0,127.0,125.0,126.0,134.0,127.0,128.0,-1.0,103.0,-82.0,127.0,127.0,127.0,-112.0,-85.0,110.0
127.0,127.0,126.0,125.0,126.0,135.0,126.0,129.0,-1.0,103.0,-82.0,127.0,127.0,127.0,-112.0,-85.0,110.0
127.0,128.0,126.0,125.0,126.0,135.0,126.0,129.0,-1.0,103.0,-82.0,127.0,127.0,127.0,-112.0,-85.0,110.0
127.0,127.0,127.0,125.0,126.0,134.0,126.0,128.0,-1.0,103.0,-82.0,127.0,127.0,127.0,-112.0,-85.0,110.0
127.0,127.0,126.0,125.0,126.0,134.0,126.0,128.0,-1.0,103.0,-82.0,127.0,127.0,127.0,-112.0,-85.0,110.0
127.0,127.0,126.0,125.0,126.0,135.0,126.0,128.0,-1.0,103.0,-82.0,127.0,127.0,127.0,-112.0,-85.0,110.0
127.0,127.0,126.0,125.0,126.0,135.0,126.0,129.0,-1.0,103.0,-82.0,127.0,127.0,127.0,-112.0,-85.0,110.0
127.0,127.0,126.0,125.0,126.0,135.0,126.0,128.0,-1.0,103.0,-82.0,127.0,127.0,127.0,-112.0,-85.0,110.0
127.0,127.0,126.0,125.0,126.0,134.0,126.0,128.0,-1.0,103.0,-82.0,127.0,127.0,127.0,-112.0,-85.0,110.0
127.0,127.0,126.0,125.0,126.0,134.0,126.0,128.0,-1.0,103.0,-82.0,127.0,127.0,127.0,-112.0,-85.0,110.0
127.0,127.0,126.0,125.0,126.0,134.0,126.0,128.0,-1.0,103.0,-82.0,127.0,127.0,127.0,-112.0,-85.0,110.0
127.0,128.0,126.0,125.0,126.0,135.0,126.0,129.0,-1.0,103.0,-82.0,127.0,127.0,127.0,-112.0,-85.0,110.0
127.0,127.0,127.0,125.0,127.0,134.0,127.0,129.0,-1.0,103.0,-82.0,127.0,127.0,127.0,-112.0,-85.0,110.0
127.0,127.0,127.0,125.0,126.0,134.0,127.0,129.0,-1.0,103.0,-82.0,127.0,127.0,127.0,-112.0,-85.0,110.0
127.0,127.0,126.0,125.0,126.0,135.0,126.0,129.0,-1.0,103.0,-82.0,127.0,127.0,127.0,-112.0,-85.0,110.0
127.0,128.0,127.0,125.0,126.0,135.0,126.0,129.0,-1.0,103.0,-82.0,127.0,127.0,127.0,-112.0,-85.0,110.0
127.0,127.0,127.0,125.0,126.0,135.0,126.0,129.0,-1.0,103.0,-82.0,127.0,127.0,127.0,-112.0,-85.0,110.0
127.0,127.0,127.0,125.0,126.0,135.0,126.0,129.0,-1.0,103.0,-82.0,127.0,127.0,127.0,-112.0,-85.0,110.0
127.0,127.0,127.0,125.0,126.0,135.0,127.0,129.0,-1.0,103.0,-82.0,127.0,127.0,127.0,-112.0,-85.0,110.0
127.0,127.0,127.0,125.0,126.0,135.0,127.0,129.0,-1.0,103.0,-82.0,127.0,127.0,127.0,-112.0,-85.0,110.0
127.0,127.0,126.0,125.0,126.0,135.0,126.0,129.0,-1.0,103.0,-82.0,127.0,127.0,127.0,-112.0,-85.0,110.0
127.0,127.0,127.0,125.0,126.0,134.0,127.0,128.0,-1.0,103.0,-82.0,127.0,127.0,127.0,-112.0,-85.0,110.0
127.0,127.0,127.0,125.0,126.0,134.0,127.0,128.0,-1.0,103.0,-82.0,127.0,127.0,127.0,-112.0,-85.0,110.0
127.0,127.0,127.0,125.0,126.0,134.0,126.0,128.0,-1.0,103.0,-82.0,127.0,127.0,127.0,-112.0,-85.0,110.0
127.0,127.0,127.0,125.0,126.0,135.0,126.0,128.0,-1.0,103.0,-82.0,127.0,127.0,127.0,-112.0,-85.0,110.0
127.0,127.0,127.0,125.0,126.0,135.0,126.0,128.0,-1.0,103.0,-82.0,127.0,127.0,127.0,-112.0,-85.0,110.0
127.0,127.0,127.0,125.0,126.0,134.0,126.0,128.0,-1.0,103.0,-82.0,127.0,127.0,127.0,-112.0,-85.0,110.0
127.0,127.0,127.0,125.0,126.0,134.0,127.0,128.0,-1.0,103.0,-82.0,127.0,127.0,127.0,-112.0,-85.0,110.0
127.0,127.0,127.0,125.0,126.0,134.0,127.0,128.0,-1.0,103.0,-82.0,127.0,127.0,127.0,-112.0,-85.0,110.0
127.0,127.0,127.0,125.0,126.0,134.0,126.0,128.0,-1.0,103.0,-82.0,127.0,127.0,127.0,-112.0,-85.0,110.0
127.0,127.0,126.0,125.0,126.0,135.0,126.0,128.0,-1.0,103.0,-82.0,127.0,127.0,127.0,-112.0,-85.0,110.0
127.0,127.0,127.0,126.0,127.0,134.0,127.0,128.0,-1.0,103.0,-82.0,127.0,127.0,127.0,-112.0,-85.0,110.0
127.0,127.0,127.0,126.0,126.0,134.0,126.0,129.0,-1.0,103.0,-82.0,127.0,127.0,127.0,-112.0,-85.0,110.0
127.0,127.0,126.0,126.0,126.0,135.0,126.0,129.0,-1.0,103.0,-82.0,127.0,127.0,127.0,-112.0,-85.0,110.0
127.0,127.0,127.0,126.0,126.0,135.0,126.0,129.0,-1.0,103.0,-82.0,127.0,127.0,127.0,-112.0,-85.0,110.0
127.0,127.0,127.0,126.0,126.0,135.0,126.0,129.0,-1.0,103.0,-82.0,127.0,127.0,127.0,-112.0,-85.0,110.0
127.0,127.0,127.0,126.0,126.0,134.0,127.0,129.0,-1.0,103.0,-82.0,127.0,127.0,127.0,-112.0,-85.0,110.0
127.0,127.0,127.0,126.0,126.0,135.0,127.0,129.0,-1.0,103.0,-82.0,127.0,127.0,127.0,-112.0,-85.0,110.0
127.0,128.0,127.0,126.0,126.0,135.0,127.0,129.0,-1.0,103.0,-82.0,127.0,127.0,127.0,-112.0,-85.0,110.0
127.0,128.0,126.0,126.0,126.0,135.0,126.0,129.0,-1.0,103.0,-82.0,127.0,127.0,127.0,-112.0,-85.0,110.0
127.0,127.0,127.0,126.0,126.0,134.0,127.0,128.0,-1.0,103.0,-82.0,127.0,127.0,127.0,-112.0,-85.0,110.0
127.0,127.0,127.0,125.0,126.0,134.0,127.0,129.0,-1.0,103.0,-82.0,127.0,127.0,127.0,-112.0,-85.0,110.0
127.0,128.0,127.0,125.0,126.0,134.0,126.0,129.0,-1.0,103.0,-82.0,127.0,127.0,127.0,-112.0,-85.0,110.0
127.0,127.0,127.0,125.0,126.0,134.0,126.0,129.0,-1.0,103.0,-82.0,127.0,127.0,127.0,-112.0,-85.0,110.0
127.0,127.0,127.0,125.0,126.0,134.0,126.0,129.0,-1.0,103.0,-82.0,127.0,127.0,127.0,-112.0,-85.0,110.0
127.0,127.0,127.0,125.0,126.0,134.0,127.0,129.0,-1.0,103.0,-82.0,127.0,127.0,127.0,-112.0,-85.0,110.0
127.0,127.0,127.0,125.0,126.0,134.0,127.0,129.0,-1.0,103.0,-82.0,127.0,127.0,127.0,-112.0,-85.0,110.0
127.0,127.0,127.0,125.0,126.0,134.0,126.0,129.0,-1.0,103.0,-82.0,127.0,127.0,127.0,-112.0,-85.0,110.0
127.0,128.0,127.0,125.0,126.0,135.0,126.0,129.0,-1.0,103.0,-82.0,127.0,127.0,127.0,-112.0,-85.0,110.0
127.0,127.0,127.0,125.0,126.0,134.0,127.0,128.0,-1.0,103.0,-82.0,127.0,127.0,127.0,-112.0,-85.0,110.0
127.0,127.0,127.0,125.0,126.0,134.0,127.0,128.0,-1.0,103.0,-82.0,127.0,127.0,127.0,-112.0,-85.0,110.0
127.0,127.0,127.0,125.0,126.0,134.0,126.0,129.0,-1.0,103.0,-82.0,127.0,127.0,127.0,-112.0,-85.0,110.0
127.0,127.0,127.0,125.0,126.0,134.0,126.0,129.0,-1.0,103.0,-82.0,127.0,127.0,127.0,-112.0,-85.0,110.0
127.0,127.0,127.0,125.0,127.0,134.0,126.0,129.0,-1.0,103.0,-82.0,127.0,127.0,127.0,-112.0,-85.0,110.0
127.0,127.0,127.0,125.0,127.0,133.0,127.0,129.0,-1.0,103.0,-82.0,127.0,127.0,127.0,-112.0,-85.0,110.0
127.0,127.0,127.0,125.0,126.0,134.0,127.0,129.0,-1.0,103.0,-82.0,127.0,127.0,127.0,-112.0,-85.0,110.0
127.0,127.0,127.0,125.0,127.0,133.0,127.0,129.0,-1.0,103.0,-82.0,127.0,127.0,127.0,-112.0,-85.0,110.0
127.0,127.0,127.0,125.0,127.0,133.0,127.0,129.0,-1.0,103.0,-82.0,127.0,127.0,127.0,-112.0,-85.0,110.0
127.0,127.0,127.0,125.0,126.0,134.0,126.0,129.0,-1.0,103.0,-82.0,127.0,127.0,127.0,-112.0,-85.0,110.0
127.0,127.0,127.0,125.0,126.0,134.0,126.0,129.0,-1.0,103.0,-82.0,127.0,127.0,127.0,-112.0,-85.0,110.0
127.0,127.0,127.0,125.0,126.0,134.0,126.0,129.0,-1.0,103.0,-82.0,127.0,127.0,127.0,-112.0,-85.0,110.0
127.0,128.0,127.0,125.0,127.0,134.0,126.0,130.0,-1.0,103.0,-82.0,127.0,127.0,127.0,-112.0,-85.0,110.0
127.0,127.0,127.0,125.0,127.0,133.0,127.0,129.0,-1.0,103.0,-82.0,127.0,127.0,127.0,-112.0,-85.0,110.0
127.0,127.0,127.0,125.0,127.0,133.0,127.0,129.0,-1.0,103.0,-82.0,127.0,127.0,127.0,-112.0,-85.0,110.0
127.0,127.0,127.0,125.0,127.0,133.0,127.0,129.0,-1.0,103.0,-82.0,127.0,127.0,127.0,-112.0,-85.0,110.0
127.0,127.0,127.0,125.0,127.0,133.0,127.0,129.0,-1.0,103.0,-82.0,127.0,127.0,127.0,-112.0,-85.0,110.0
127.0,127.0,127.0,125.0,127.0,133.0,126.0,129.0,-1.0,103.0,-82.0,127.0,127.0,127.0,-112.0,-85.0,110.0
127.0,127.0,127.0,125.0,127.0,134.0,126.0,130.0,-1.0,103.0,-82.0,127.0,127.0,127.0,-112.0,-85.0,110.0
127.0,127.0,127.0,125.0,127.0,134.0,126.0,130.0,-1.0,103.0,-82.0,127.0,127.0,127.0,-112.0,-85.0,110.0
127.0,128.0,127.0,125.0,127.0,134.0,126.0,130.0,-1.0,103.0,-82.0,127.0,127.0,127.0,-112.0,-85.0,110.0
127.0,127.0,127.0,125.0,127.0,134.0,126.0,130.0,-1.0,103.0,-82.0,127.0,127.0,127.0,-112.0,-85.0,110.0
127.0,127.0,127.0,125.0,126.0,134.0,126.0,130.0,-1.0,103.0,-82.0,127.0,127.0,127.0,-112.0,-85.0,110.0
127.0,127.0,127.0,125.0,126.0,134.0,126.0,130.0,-1.0,103.0,-82.0,127.0,127.0,127.0,-112.0,-85.0,110.0
127.0,127.0,127.0,125.0,126.0,134.0,126.0,130.0,-1.0,103.0,-82.0,127.0,127.0,127.0,-112.0,-85.0,110.0
127.0,127.0,127.0,125.0,126.0,133.0,126.0,130.0,-1.0,103.0,-82.0,127.0,127.0,127.0,-112.0,-85.0,110.0
127.0,127.0,127.0,125.0,127.0,134.0,126.0,130.0,-1.0,103.0,-82.0,127.0,127.0,127.0,-112.0,-85.0,110.0
127.0,127.0,127.0,125.0,126.0,134.0,126.0,130.0,-1.0,103.0,-82.0,127.0,127.0,127.0,-112.0,-85.0,110.0
127.0,127.0,127.0,126.0,126.0,134.0,126.0,130.0,-1.0,103.0,-82.0,127.0,127.0,127.0,-112.0,-85.0,110.0
127.0,127.0,127.0,126.0,126.0,134.0,126.0,130.0,-1.0,103.0,-82.0,127.0,127.0,127.0,-112.0,-85.0,110.0
127.0,127.0,127.0,126.0,126.0,134.0,126.0,130.0,-1.0,103.0,-82.0,127.0,127.0,127.0,-112.0,-85.0,110.0
127.0,127.0,127.0,125.0,126.0,134.0,126.0,130.0,-1.0,103.0,-82.0,127.0,127.0,127.0,-112.0,-85.0,110.0
127.0,127.0,127.0,125.0,127.0,133.0,126.0,129.0,-1.0,103.0,-82.0,127.0,127.0,127.0,-112.0,-85.0,110.0
127.0,127.0,127.0,125.0,127.0,133.0,126.0,129.0,-1.0,103.0,-82.0,127.0,127.0,127.0,-112.0,-85.0,110.0
127.0,127.0,127.0,125.0,127.0,133.0,126.0,129.0,-1.0,103.0,-82.0,127.0,127.0,127.0,-112.0,-85.0,110.0
127.0,127.0,127.0,125.0,127.0,134.0,125.0,130.0,-1.0,103.0,-82.0,127.0,127.0,127.0,-112.0,-85.0,110.0
127.0,127.0,127.0,125.0,127.0,134.0,125.0,130.0,-1.0,103.0,-82.0,127.0,127.0,127.0,-112.0,-85.0,110.0
127.0,127.0,127.0,126.0,127.0,134.0,125.0,130.0,-1.0,103.0,-82.0,127.0,127.0,127.0,-112.0,-85.0,110.0
127.0,127.0,127.0,125.0,127.0,134.0,125.0,130.0,-1.0,103.0,-82.0,127.0,127.0,127.0,-112.0,-85.0,110.0
127.0,127.0,127.0,125.0,127.0,133.0,126.0,130.0,-1.0,103.0,-82.0,127.0,127.0,127.0,-112.0,-85.0,110.0
127.0,127.0,127.0,125.0,127.0,133.0,126.0,130.0,-1.0,103.0,-82.0,127.0,127.0,127.0,-112.0,-85.0,110.0
127.0,127.0,127.0,125.0,127.0,133.0,126.0,130.0,-1.0,103.0,-82.0,127.0,127.0,127.0,-112.0,-85.0,110.0
127.0,127.0,127.0,125.0,127.0,133.0,126.0,129.0,-1.0,103.0,-82.0,127.0,127.0,127.0,-112.0,-85.0,110.0
127.0,127.0,127.0,125.0,127.0,133.0,126.0,129.0,-1.0,103.0,-82.0,127.0,127.0,127.0,-112.0,-85.0,110.0
127.0,127.0,127.0,125.0,127.0,133.0,126.0,129.0,-1.0,103.0,-82.0,127.0,127.0,127.0,-112.0,-85.0,110.0
127.0,127.0,127.0,125.0,126.0,134.0,125.0,130.0,-1.0,103.0,-82.0,127.0,127.0,127.0,-112.0,-85.0,110.0
127.0,127.0,127.0,125.0,126.0,134.0,125.0,130.0,-1.0,103.0,-82.0,127.0,127.0,127.0,-112.0,-85.0,110.0
127.0,127.0,127.0,126.0,127.0,134.0,125.0,130.0,-1.0,103.0,-82.0,127.0,127.0,127.0,-112.0,-85.0,110.0
127.0,127.0,127.0,125.0,127.0,134.0,126.0,130.0,-1.0,103.0,-82.0,127.0,127.0,127.0,-112.0,-85.0,110.0
127.0,127.0,127.0,125.0,127.0,134.0,126.0,130.0,-1.0,103.0,-82.0,127.0,127.0,127.0,-112.0,-85.0,110.0
127.0,127.0,127.0,125.0,127.0,134.0,126.0,130.0,-1.0,103.0,-82.0,127.0,127.0,127.0,-112.0,-85.0,110.0
127.0,127.0,127.0,125.0,127.0,133.0,126.0,129.0,-1.0,103.0,-82.0,127.0,127.0,127.0,-112.0,-85.0,110.0
127.0,127.0,127.0,125.0,126.0,133.0,127.0,130.0,-1.0,103.0,-82.0,127.0,127.0,127.0,-112.0,-85.0,110.0
127.0,127.0,127.0,125.0,127.0,134.0,126.0,130.0,-1.0,103.0,-82.0,127.0,127.0,127.0,-112.0,-85.0,110.0
127.0,127.0,127.0,126.0,126.0,134.0,126.0,130.0,-1.0,103.0,-82.0,127.0,127.0,127.0,-112.0,-85.0,110.0
127.0,127.0,127.0,126.0,126.0,134.0,126.0,130.0,-1.0,103.0,-82.0,127.0,127.0,127.0,-112.0,-85.0,110.0
127.0,127.0,127.0,126.0,126.0,134.0,126.0,130.0,-1.0,103.0,-82.0,127.0,127.0,127.0,-112.0,-85.0,110.0
127.0,127.0,127.0,125.0,126.0,134.0,126.0,130.0,-1.0,103.0,-82.0,127.0,127.0,127.0,-112.0,-85.0,110.0
127.0,127.0,127.0,125.0,126.0,134.0,126.0,130.0,-1.0,103.0,-82.0,127.0,127.0,127.0,-112.0,-85.0,110.0
127.0,127.0,127.0,125.0,126.0,134.0,127.0,130.0,-1.0,103.0,-82.0,127.0,127.0,127.0,-112.0,-85.0,110.0
127.0,127.0,127.0,125.0,126.0,134.0,127.0,130.0,-1.0,103.0,-82.0,127.0,127.0,127.0,-112.0,-85.0,110.0
127.0,127.0,127.0,125.0,126.0,134.0,127.0,130.0,-1.0,103.0,-82.0,127.0,127.0,127.0,-112.0,-85.0,110.0
127.0,127.0,127.0,125.0,126.0,133.0,127.0,129.0,-1.0,103.0,-82.0,127.0,127.0,127.0,-112.0,-85.0,110.0
127.0,127.0,127.0,125.0,126.0,134.0,126.0,130.0,-1.0,103.0,-82.0,127.0,127.0,127.0,-112.0,-85.0,110.0
127.0,127.0,127.0,125.0,126.0,134.0,126.0,130.0,-1.0,103.0,-82.0,127.0,127.0,127.0,-112.0,-85.0,110.0
127.0,127.0,127.0,125.0,126.0,134.0,126.0,130.0,-1.0,103.0,-82.0,127.0,127.0,127.0,-112.0,-85.0,110.0
127.0,127.0,127.0,125.0,126.0,134.0,126.0,130.0,-1.0,103.0,-82.0,127.0,127.0,127.0,-112.0,-85.0,110.0
127.0,127.0,127.0,125.0,126.0,134.0,126.0,130.0,-1.0,103.0,-82.0,127.0,127.0,127.0,-112.0,-85.0,110.0
127.0,127.0,127.0,125.0,126.0,134.0,126.0,130.0,-1.0,103.0,-82.0,127.0,127.0,127.0,-112.0,-85.0,110.0
127.0,127.0,127.0,125.0,126.0,134.0,127.0,130.0,-1.0,103.0,-82.0,127.0,127.0,127.0,-112.0,-85.0,110.0
127.0,127.0,127.0,125.0,126.0,133.0,127.0,130.0,-1.0,103.0,-82.0,127.0,127.0,127.0,-112.0,-85.0,110.0
127.0,127.0,127.0,125.0,126.0,133.0,127.0,130.0,-1.0,103.0,-82.0,127.0,127.0,127.0,-112.0,-85.0,110.0
127.0,127.0,127.0,125.0,126.0,134.0,126.0,132.0,-1.0,103.0,-82.0,127.0,127.0,127.0,-112.0,-85.0,110.0
127.0,127.0,126.0,125.0,126.0,134.0,126.0,132.0,-1.0,103.0,-82.0,127.0,127.0,127.0,-112.0,-85.0,110.0
127.0,128.0,126.0,126.0,126.0,134.0,126.0,132.0,-1.0,103.0,-82.0,127.0,127.0,127.0,-112.0,-85.0,110.0
127.0,128.0,127.0,126.0,126.0,134.0,126.0,132.0,-1.0,103.0,-82.0,127.0,127.0,127.0,-112.0,-85.0,110.0
127.0,128.0,127.0,126.0,126.0,134.0,126.0,132.0,-1.0,103.0,-82.0,127.0,127.0,127.0,-112.0,-85.0,110.0
127.0,128.0,127.0,126.0,126.0,134.0,126.0,132.0,-1.0,103.0,-82.0,127.0,127.0,127.0,-112.0,-85.0,110.0
127.0,128.0,127.0,125.0,126.0,134.0,126.0,132.0,-1.0,103.0,-82.0,127.0,127.0,127.0,-112.0,-85.0,110.0
127.0,127.0,127.0,125.0,126.0,134.0,126.0,132.0,-1.0,103.0,-82.0,127.0,127.0,127.0,-112.0,-85.0,110.0
127.0,128.0,127.0,125.0,126.0,134.0,127.0,132.0,-1.0,103.0,-82.0,127.0,127.0,127.0,-112.0,-85.0,110.0
127.0,127.0,127.0,126.0,126.0,133.0,126.0,132.0,-1.0,103.0,-82.0,127.0,127.0,127.0,-112.0,-85.0,110.0
127.0,127.0,127.0,125.0,126.0,132.0,127.0,132.0,-1.0,103.0,-82.0,127.0,127.0,127.0,-112.0,-85.0,110.0
127.0,127.0,127.0,125.0,126.0,133.0,127.0,132.0,-1.0,103.0,-82.0,127.0,127.0,127.0,-112.0,-85.0,110.0
127.0,127.0,127.0,125.0,126.0,133.0,127.0,132.0,-1.0,103.0,-82.0,127.0,127.0,127.0,-112.0,-85.0,110.0
127.0,128.0,127.0,125.0,126.0,133.0,126.0,133.0,-1.0,103.0,-82.0,127.0,127.0,127.0,-112.0,-85.0,110.0
127.0,128.0,127.0,125.0,126.0,133.0,126.0,133.0,-1.0,103.0,-82.0,127.0,127.0,127.0,-112.0,-85.0,110.0
127.0,127.0,127.0,125.0,126.0,133.0,127.0,133.0,-1.0,103.0,-82.0,127.0,127.0,127.0,-112.0,-85.0,110.0
127.0,127.0,127.0,125.0,126.0,133.0,127.0,133.0,-1.0,103.0,-82.0,127.0,127.0,127.0,-112.0,-85.0,110.0
127.0,127.0,127.0,125.0,126.0,133.0,127.0,133.0,-1.0,103.0,-82.0,127.0,127.0,127.0,-112.0,-85.0,110.0
127.0,127.0,127.0,125.0,126.0,133.0,127.0,132.0,-1.0,103.0,-82.0,127.0,127.0,127.0,-112.0,-85.0,110.0
127.0,127.0,127.0,125.0,126.0,132.0,127.0,132.0,-1.0,103.0,-82.0,127.0,127.0,127.0,-112.0,-85.0,110.0
127.0,127.0,127.0,125.0,126.0,133.0,126.0,133.0,-1.0,103.0,-82.0,127.0,127.0,127.0,-112.0,-85.0,110.0
127.0,127.0,127.0,125.0,127.0,133.0,126.0,133.0,-1.0,103.0,-82.0,127.0,127.0,127.0,-112.0,-85.0,110.0
127.0,127.0,127.0,125.0,127.0,133.0,127.0,133.0,-1.0,103.0,-82.0,127.0,127.0,127.0,-112.0,-85.0,110.0
127.0,127.0,127.0,125.0,127.0,133.0,127.0,133.0,-1.0,103.0,-82.0,127.0,127.0,127.0,-112.0,-85.0,110.0
127.0,127.0,127.0,125.0,127.0,133.0,127.0,133.0,-1.0,103.0,-82.0,127.0,127.0,127.0,-112.0,-85.0,110.0
127.0,127.0,127.0,125.0,127.0,132.0,127.0,133.0,-1.0,103.0,-82.0,127.0,127.0,127.0,-112.0,-85.0,110.0
127.0,127.0,127.0,125.0,127.0,132.0,127.0,133.0,-1.0,103.0,-82.0,127.0,127.0,127.0,-112.0,-85.0,110.0
127.0,127.0,127.0,125.0,126.0,133.0,126.0,133.0,-1.0,103.0,-82.0,127.0,127.0,127.0,-112.0,-85.0,110.0
127.0,127.0,127.0,125.0,126.0,133.0,126.0,133.0,-1.0,103.0,-82.0,127.0,127.0,127.0,-112.0,-85.0,110.0
127.0,127.0,127.0,125.0,126.0,133.0,126.0,133.0,-1.0,103.0,-82.0,127.0,127.0,127.0,-112.0,-85.0,110.0
127.0,127.0,126.0,125.0,126.0,133.0,126.0,134.0,-1.0,103.0,-82.0,127.0,127.0,127.0,-112.0,-85.0,110.0
127.0,127.0,126.0,125.0,126.0,133.0,126.0,133.0,-1.0,103.0,-82.0,127.0,127.0,127.0,-112.0,-85.0,110.0
127.0,127.0,126.0,125.0,126.0,133.0,126.0,133.0,-1.0,103.0,-82.0,127.0,127.0,127.0,-112.0,-85.0,110.0
127.0,127.0,127.0,125.0,126.0,133.0,126.0,133.0,-1.0,103.0,-82.0,127.0,127.0,127.0,-112.0,-85.0,110.0
127.0,127.0,127.0,125.0,126.0,133.0,127.0,133.0,-1.0,103.0,-82.0,127.0,127.0,127.0,-112.0,-85.0,110.0
127.0,127.0,127.0,125.0,126.0,133.0,127.0,133.0,-1.0,103.0,-82.0,127.0,127.0,127.0,-112.0,-85.0,110.0
127.0,127.0,126.0,125.0,126.0,134.0,126.0,134.0,-1.0,103.0,-82.0,127.0,127.0,127.0,-112.0,-85.0,110.0
127.0,127.0,126.0,125.0,126.0,134.0,126.0,134.0,-1.0,103.0,-82.0,127.0,127.0,127.0,-112.0,-85.0,110.0
127.0,127.0,126.0,125.0,126.0,133.0,126.0,134.0,-1.0,103.0,-82.0,127.0,127.0,127.0,-112.0,-85.0,110.0
127.0,127.0,126.0,125.0,126.0,133.0,126.0,134.0,-1.0,103.0,-82.0,127.0,127.0,127.0,-112.0,-85.0,110.0
127.0,128.0,127.0,126.0,126.0,133.0,126.0,134.0,-1.0,103.0,-82.0,127.0,127.0,127.0,-112.0,-85.0,110.0
127.0,128.0,127.0,126.0,126.0,133.0,126.0,134.0,-1.0,103.0,-82.0,127.0,127.0,127.0,-112.0,-85.0,110.0
127.0,128.0,127.0,126.0,126.0,133.0,126.0,134.0,-1.0,103.0,-82.0,127.0,127.0,127.0,-112.0,-85.0,110.0
127.0,128.0,127.0,125.0,126.0,133.0,126.0,133.0,-1.0,103.0,-82.0,127.0,127.0,127.0,-112.0,-85.0,110.0
127.0,128.0,127.0,125.0,126.0,132.0,126.0,133.0,-1.0,103.0,-82.0,127.0,127.0,127.0,-112.0,-85.0,110.0
127.0,128.0,127.0,126.0,126.0,133.0,125.0,134.0,-1.0,103.0,-82.0,127.0,127.0,127.0,-112.0,-85.0,110.0
127.0,128.0,127.0,126.0,126.0,133.0,125.0,134.0,-1.0,103.0,-82.0,127.0,127.0,127.0,-112.0,-85.0,110.0
127.0,128.0,127.0,126.0,126.0,133.0,126.0,134.0,-1.0,103.0,-82.0,127.0,127.0,127.0,-112.0,-85.0,110.0
127.0,128.0,127.0,126.0,126.0,133.0,126.0,134.0,-1.0,103.0,-82.0,127.0,127.0,127.0,-112.0,-85.0,110.0
127.0,128.0,127.0,126.0,126.0,133.0,126.0,134.0,-1.0,103.0,-82.0,127.0,127.0,127.0,-112.0,-85.0,110.0
127.0,127.0,127.0,126.0,127.0,133.0,127.0,133.0,-1.0,103.0,-82.0,127.0,127.0,127.0,-112.0,-85.0,110.0
127.0,127.0,127.0,126.0,127.0,133.0,127.0,133.0,-1.0,103.0,-82.0,127.0,127.0,127.0,-112.0,-85.0,110.0
127.0,127.0,127.0,126.0,127.0,133.0,127.0,133.0,-1.0,103.0,-82.0,127.0,127.0,127.0,-112.0,-85.0,110.0
127.0,127.0,127.0,125.0,126.0,133.0,127.0,133.0,-1.0,103.0,-82.0,127.0,127.0,127.0,-112.0,-85.0,110.0
127.0,127.0,127.0,126.0,126.0,134.0,126.0,134.0,-1.0,103.0,-82.0,127.0,127.0,127.0,-112.0,-85.0,110.0
127.0,127.0,127.0,126.0,127.0,134.0,126.0,134.0,-1.0,103.0,-82.0,127.0,127.0,127.0,-112.0,-85.0,110.0
127.0,127.0,127.0,126.0,127.0,133.0,126.0,134.0,-1.0,103.0,-82.0,127.0,127.0,127.0,-112.0,-85.0,110.0
127.0,127.0,127.0,126.0,126.0,133.0,126.0,134.0,-1.0,103.0,-82.0,127.0,127.0,127.0,-112.0,-85.0,110.0
127.0,127.0,127.0,126.0,127.0,133.0,126.0,133.0,-1.0,103.0,-82.0,127.0,127.0,127.0,-112.0,-85.0,110.0
127.0,127.0,127.0,126.0,127.0,133.0,126.0,133.0,-1.0,103.0,-82.0,127.0,127.0,127.0,-112.0,-85.0,110.0
126.0,127.0,127.0,126.0,126.0,133.0,126.0,134.0,-1.0,103.0,-82.0,127.0,127.0,127.0,-112.0,-85.0,110.0
126.0,127.0,127.0,126.0,126.0,132.0,126.0,133.0,-1.0,103.0,-82.0,127.0,127.0,127.0,-112.0,-85.0,110.0
127.0,127.0,127.0,126.0,126.0,132.0,127.0,133.0,-1.0,103.0,-82.0,127.0,127.0,127.0,-112.0,-85.0,110.0
126.0,127.0,127.0,126.0,126.0,133.0,126.0,134.0,-1.0,103.0,-82.0,127.0,127.0,127.0,-112.0,-85.0,110.0
126.0,127.0,126.0,126.0,126.0,133.0,126.0,134.0,-1.0,103.0,-82.0,127.0,127.0,127.0,-112.0,-85.0,110.0
127.0,127.0,127.0,126.0,126.0,133.0,126.0,134.0,-1.0,103.0,-82.0,127.0,127.0,127.0,-112.0,-85.0,110.0
127.0,127.0,127.0,126.0,126.0,133.0,126.0,134.0,-1.0,103.0,-82.0,127.0,127.0,127.0,-112.0,-85.0,110.0
126.0,127.0,127.0,126.0,126.0,133.0,126.0,134.0,-1.0,103.0,-82.0,127.0,127.0,127.0,-112.0,-85.0,110.0
126.0,127.0,127.0,126.0,126.0,133.0,126.0,134.0,-1.0,103.0,-82.0,127.0,127.0,127.0,-112.0,-85.0,110.0
126.0,127.0,127.0,126.0,126.0,133.0,126.0,134.0,-1.0,103.0,-82.0,127.0,127.0,127.0,-112.0,-85.0,110.0
126.0,127.0,127.0,125.0,127.0,132.0,127.0,134.0,-1.0,103.0,-82.0,127.0,127.0,127.0,-112.0,-85.0,110.0
126.0,127.0,127.0,125.0,127.0,132.0,127.0,134.0,-1.0,103.0,-82.0,127.0,127.0,127.0,-112.0,-85.0,110.0
127.0,127.0,126.0,126.0,126.0,134.0,126.0,135.0,-1.0,103.0,-82.0,127.0,127.0,127.0,-112.0,-85.0,110.0
127.0,127.0,126.0,126.0,126.0,133.0,126.0,134.0,-1.0,103.0,-82.0,127.0,127.0,127.0,-112.0,-85.0,110.0
127.0,127.0,126.0,126.0,126.0,133.0,126.0,134.0,-1.0,103.0,-82.0,127.0,127.0,127.0,-112.0,-85.0,110.0
127.0,127.0,127.0,126.0,126.0,133.0,126.0,134.0,-1.0,103.0,-82.0,127.0,127.0,127.0,-112.0,-85.0,110.0
127.0,127.0,127.0,126.0,126.0,133.0,126.0,134.0,-1.0,103.0,-82.0,127.0,127.0,127.0,-112.0,-85.0,110.0
127.0,127.0,127.0,126.0,126.0,133.0,126.0,134.0,-1.0,103.0,-82.0,127.0,127.0,127.0,-112.0,-85.0,110.0
127.0,127.0,127.0,126.0,126.0,133.0,127.0,134.0,-1.0,103.0,-82.0,127.0,127.0,127.0,-112.0,-85.0,110.0
126.0,127.0,127.0,126.0,127.0,133.0,127.0,134.0,-1.0,103.0,-82.0,127.0,127.0,127.0,-112.0,-85.0,110.0
127.0,127.0,127.0,126.0,126.0,133.0,126.0,134.0,-1.0,103.0,-82.0,127.0,127.0,127.0,-112.0,-85.0,110.0
127.0,127.0,127.0,126.0,126.0,133.0,126.0,135.0,-1.0,103.0,-82.0,127.0,127.0,127.0,-112.0,-85.0,110.0
127.0,127.0,127.0,126.0,126.0,133.0,126.0,135.0,-1.0,103.0,-82.0,127.0,127.0,127.0,-112.0,-85.0,110.0
127.0,127.0,127.0,126.0,126.0,134.0,125.0,135.0,-1.0,103.0,-82.0,127.0,127.0,127.0,-112.0,-85.0,110.0
127.0,127.0,127.0,126.0,126.0,134.0,125.0,135.0,-1.0,103.0,-82.0,127.0,127.0,127.0,-112.0,-85.0,110.0
127.0,127.0,127.0,126.0,126.0,134.0,126.0,135.0,-1.0,103.0,-82.0,127.0,127.0,127.0,-112.0,-85.0,110.0
127.0,127.0,127.0,126.0,126.0,133.0,126.0,135.0,-1.0,103.0,-82.0,127.0,127.0,127.0,-112.0,-85.0,110.0
127.0,127.0,127.0,126.0,126.0,133.0,126.0,135.0,-1.0,103.0,-82.0,127.0,127.0,127.0,-112.0,-85.0,110.0
127.0,127.0,127.0,126.0,126.0,133.0,126.0,135.0,-1.0,103.0,-82.0,127.0,127.0,127.0,-112.0,-85.0,110.0
127.0,127.0,127.0,126.0,126.0,133.0,126.0,134.0,-1.0,103.0,-82.0,127.0,127.0,127.0,-112.0,-85.0,110.0
126.0,127.0,127.0,126.0,127.0,132.0,126.0,134.0,-1.0,103.0,-82.0,127.0,127.0,127.0,-112.0,-85.0,110.0
126.0,127.0,127.0,126.0,127.0,132.0,126.0,134.0,-1.0,103.0,-82.0,127.0,127.0,127.0,-112.0,-85.0,110.0
126.0,127.0,127.0,126.0,127.0,132.0,126.0,134.0,-1.0,103.0,-82.0,127.0,127.0,127.0,-112.0,-85.0,110.0
126.0,127.0,127.0,126.0,126.0,132.0,126.0,134.0,-1.0,103.0,-82.0,127.0,127.0,127.0,-112.0,-85.0,110.0
126.0,127.0,127.0,126.0,126.0,132.0,126.0,134.0,-1.0,103.0,-82.0,127.0,127.0,127.0,-112.0,-85.0,110.0
126.0,127.0,127.0,126.0,127.0,132.0,126.0,134.0,-1.0,103.0,-82.0,127.0,127.0,127.0,-112.0,-85.0,110.0
126.0,127.0,127.0,126.0,126.0,132.0,127.0,134.0,-1.0,103.0,-82.0,127.0,127.0,127.0,-112.0,-85.0,110.0
126.0,127.0,127.0,126.0,126.0,132.0,127.0,134.0,-1.0,103.0,-82.0,127.0,127.0,127.0,-112.0,-85.0,110.0
126.0,127.0,127.0,126.0,126.0,132.0,127.0,134.0,-1.0,103.0,-82.0,127.0,127.0,127.0,-112.0,-85.0,110.0
126.0,127.0,127.0,125.0,126.0,132.0,127.0,134.0,-1.0,103.0,-82.0,127.0,127.0,127.0,-112.0,-85.0,110.0
127.0,127.0,127.0,126.0,127.0,133.0,126.0,135.0,-1.0,103.0,-82.0,127.0,127.0,127.0,-112.0,-85.0,110.0
127.0,127.0,127.0,126.0,126.0,133.0,126.0,135.0,-1.0,103.0,-82.0,127.0,127.0,127.0,-112.0,-85.0,110.0
127.0,127.0,127.0,126.0,126.0,133.0,126.0,135.0,-1.0,103.0,-82.0,127.0,127.0,127.0,-112.0,-85.0,110.0
127.0,128.0,127.0,126.0,126.0,133.0,126.0,135.0,-1.0,103.0,-82.0,127.0,127.0,127.0,-112.0,-85.0,110.0
127.0,127.0,127.0,126.0,126.0,133.0,126.0,135.0,-1.0,103.0,-82.0,127.0,127.0,127.0,-112.0,-85.0,110.0
127.0,127.0,127.0,126.0,127.0,133.0,126.0,135.0,-1.0,103.0,-82.0,127.0,127.0,127.0,-112.0,-85.0,110.0
127.0,127.0,127.0,126.0,127.0,133.0,126.0,135.0,-1.0,103.0,-82.0,127.0,127.0,127.0,-112.0,-85.0,110.0
127.0,127.0,127.0,126.0,127.0,133.0,126.0,135.0,-1.0,103.0,-82.0,127.0,127.0,127.0,-112.0,-85.0,110.0
127.0,127.0,127.0,126.0,126.0,133.0,126.0,135.0,-1.0,103.0,-82.0,127.0,127.0,127.0,-112.0,-85.0,110.0
127.0,127.0,127.0,126.0,127.0,133.0,126.0,135.0,-1.0,103.0,-82.0,127.0,127.0,127.0,-112.0,-85.0,110.0
127.0,127.0,127.0,126.0,126.0,132.0,126.0,135.0,-1.0,103.0,-82.0,127.0,127.0,127.0,-112.0,-85.0,110.0
127.0,127.0,127.0,126.0,127.0,132.0,126.0,135.0,-1.0,103.0,-82.0,127.0,127.0,127.0,-112.0,-85.0,110.0
127.0,127.0,127.0,126.0,126.0,132.0,126.0,135.0,-1.0,103.0,-82.0,127.0,127.0,127.0,-112.0,-85.0,110.0
127.0,127.0,127.0,126.0,127.0,132.0,126.0,135.0,-1.0,103.0,-82.0,127.0,127.0,127.0,-112.0,-85.0,110.0
127.0,127.0,127.0,126.0,127.0,132.0,126.0,135.0,-1.0,103.0,-82.0,127.0,127.0,127.0,-112.0,-85.0,110.0
127.0,127.0,127.0,126.0,127.0,132.0,126.0,135.0,-1.0,103.0,-82.0,127.0,127.0,127.0,-112.0,-85.0,110.0
127.0,127.0,127.0,126.0,127.0,132.0,127.0,135.0,-1.0,103.0,-82.0,127.0,127.0,127.0,-112.0,-85.0,110.0
127.0,127.0,127.0,126.0,127.0,132.0,127.0,135.0,-1.0,103.0,-82.0,127.0,127.0,127.0,-112.0,-85.0,110.0
127.0,127.0,127.0,126.0,126.0,133.0,125.0,135.0,-1.0,103.0,-82.0,127.0,127.0,127.0,-112.0,-85.0,110.0
127.0,127.0,127.0,126.0,126.0,133.0,125.0,135.0,-1.0,103.0,-82.0,127.0,127.0,127.0,-112.0,-85.0,110.0
126.0,127.0,127.0,126.0,126.0,133.0,126.0,135.0,-1.0,103.0,-83.0,127.0,127.0,127.0,-112.0,-85.0,110.0
126.0,127.0,127.0,126.0,126.0,132.0,126.0,135.0,-1.0,103.0,-83.0,127.0,127.0,127.0,-112.0,-85.0,110.0
126.0,127.0,127.0,126.0,126.0,132.0,126.0,135.0,-1.0,103.0,-83.0,127.0,127.0,127.0,-112.0,-85.0,110.0
126.0,127.0,127.0,126.0,126.0,132.0,126.0,135.0,-1.0,103.0,-83.0,127.0,127.0,127.0,-112.0,-85.0,110.0
126.0,127.0,127.0,126.0,126.0,132.0,126.0,135.0,-1.0,103.0,-83.0,127.0,127.0,127.0,-112.0,-85.0,110.0
126.0,127.0,127.0,126.0,126.0,132.0,127.0,135.0,-1.0,103.0,-83.0,127.0,127.0,127.0,-112.0,-85.0,110.0
126.0,127.0,127.0,126.0,126.0,133.0,125.0,136.0,-1.0,103.0,-83.0,127.0,127.0,127.0,-112.0,-85.0,110.0
126.0,127.0,127.0,126.0,126.0,133.0,126.0,136.0,-1.0,103.0,-83.0,127.0,127.0,127.0,-112.0,-85.0,110.0
126.0,127.0,127.0,126.0,126.0,133.0,126.0,136.0,-1.0,103.0,-83.0,127.0,127.0,127.0,-112.0,-85.0,110.0
126.0,127.0,127.0,126.0,126.0,133.0,126.0,136.0,-1.0,103.0,-83.0,127.0,127.0,127.0,-112.0,-85.0,110.0
127.0,127.0,127.0,126.0,126.0,133.0,125.0,135.0,-1.0,103.0,-83.0,127.0,127.0,127.0,-112.0,-85.0,109.0
127.0,127.0,127.0,126.0,126.0,133.0,125.0,135.0,-1.0,103.0,-83.0,127.0,127.0,127.0,-112.0,-85.0,109.0
127.0,127.0,127.0,126.0,126.0,132.0,125.0,135.0,-1.0,103.0,-83.0,127.0,127.0,127.0,-112.0,-85.0,109.0
