emg1,emg2,emg3,emg4,emg5,emg6,emg7,emg8,acc_x,acc_y,acc_z,gyro_x,gyro_y,gyro_z,angle_pitch,angle_roll,angle_yaw
125.0,126.0,124.0,126.0,127.0,121.0,127.0,128.0,38.0,-114.0,-60.0,127.0,127.0,127.0,-5.0,-5.0,-50.0
125.0,126.0,123.0,126.0,127.0,120.0,127.0,128.0,38.0,-114.0,-60.0,127.0,127.0,127.0,-5.0,-5.0,-50.0
126.0,126.0,125.0,126.0,128.0,122.0,127.0,128.0,38.0,-114.0,-60.0,127.0,127.0,127.0,-5.0,-5.0,-50.0
126.0,126.0,125.0,126.0,127.0,121.0,127.0,128.0,38.0,-114.0,-60.0,127.0,127.0,127.0,-5.0,-5.0,-50.0
126.0,126.0,125.0,126.0,127.0,121.0,127.0,128.0,38.0,-114.0,-60.0,127.0,127.0,127.0,-5.0,-5.0,-50.0
125.0,127.0,124.0,126.0,127.0,121.0,127.0,128.0,38.0,-114.0,-60.0,127.0,127.0,127.0,-5.0,-5.0,-50.0
125.0,127.0,124.0,126.0,127.0,121.0,127.0,128.0,38.0,-114.0,-60.0,127.0,127.0,127.0,-5.0,-5.0,-50.0
125.0,126.0,124.0,126.0,127.0,121.0,127.0,128.0,38.0,-114.0,-60.0,127.0,127.0,127.0,-5.0,-5.0,-50.0
126.0,126.0,127.0,127.0,128.0,124.0,127.0,128.0,38.0,-115.0,-59.0,127.0,127.0,127.0,-5.0,-5.0,-50.0
126.0,126.0,127.0,127.0,128.0,124.0,127.0,128.0,38.0,-115.0,-59.0,127.0,127.0,127.0,-5.0,-5.0,-50.0
126.0,126.0,127.0,127.0,128.0,124.0,127.0,128.0,38.0,-115.0,-59.0,127.0,127.0,127.0,-5.0,-5.0,-50.0
126.0,126.0,127.0,127.0,128.0,124.0,128.0,128.0,38.0,-115.0,-59.0,127.0,127.0,127.0,-5.0,-5.0,-50.0
126.0,126.0,128.0,127.0,129.0,124.0,128.0,128.0,38.0,-115.0,-59.0,127.0,127.0,127.0,-5.0,-5.0,-50.0
126.0,127.0,128.0,127.0,129.0,124.0,127.0,128.0,38.0,-115.0,-59.0,127.0,127.0,127.0,-5.0,-5.0,-50.0
126.0,127.0,128.0,128.0,129.0,124.0,128.0,128.0,38.0,-115.0,-59.0,127.0,127.0,127.0,-5.0,-5.0,-50.0
126.0,127.0,128.0,128.0,129.0,124.0,127.0,128.0,38.0,-115.0,-59.0,127.0,127.0,127.0,-5.0,-5.0,-50.0
126.0,127.0,128.0,128.0,129.0,124.0,127.0,128.0,38.0,-115.0,-59.0,127.0,127.0,127.0,-5.0,-5.0,-50.0
126.0,127.0,127.0,127.0,129.0,124.0,127.0,128.0,38.0,-115.0,-59.0,127.0,127.0,127.0,-5.0,-5.0,-50.0
126.0,125.0,130.0,124.0,127.0,121.0,127.0,128.0,38.0,-115.0,-59.0,127.0,127.0,127.0,-5.0,-5.0,-50.0
126.0,125.0,130.0,124.0,127.0,121.0,127.0,128.0,38.0,-115.0,-59.0,127.0,127.0,127.0,-5.0,-5.0,-50.0
126.0,126.0,128.0,125.0,127.0,121.0,127.0,128.0,38.0,-115.0,-59.0,127.0,127.0,127.0,-5.0,-5.0,-50.0
126.0,126.0,129.0,125.0,127.0,121.0,127.0,128.0,38.0,-115.0,-59.0,127.0,127.0,127.0,-5.0,-5.0,-50.0
126.0,126.0,129.0,125.0,127.0,121.0,127.0,128.0,38.0,-115.0,-59.0,127.0,127.0,127.0,-5.0,-5.0,-50.0
126.0,125.0,129.0,124.0,127.0,121.0,127.0,128.0,38.0,-115.0,-59.0,127.0,127.0,127.0,-5.0,-5.0,-50.0
126.0,125.0,129.0,124.0,127.0,121.0,127.0,128.0,38.0,-115.0,-59.0,127.0,127.0,127.0,-5.0,-5.0,-50.0
126.0,125.0,129.0,124.0,127.0,121.0,127.0,128.0,38.0,-115.0,-59.0,127.0,127.0,127.0,-5.0,-5.0,-50.0
126.0,125.0,129.0,124.0,127.0,121.0,127.0,128.0,38.0,-115.0,-59.0,127.0,127.0,127.0,-5.0,-5.0,-50.0
126.0,125.0,130.0,124.0,127.0,121.0,127.0,128.0,38.0,-115.0,-59.0,127.0,127.0,127.0,-5.0,-5.0,-50.0
125.0,126.0,126.0,125.0,127.0,121.0,126.0,128.0,38.0,-115.0,-59.0,127.0,127.0,127.0,-5.0,-5.0,-50.0
126.0,126.0,126.0,126.0,129.0,122.0,128.0,129.0,38.0,-115.0,-59.0,127.0,127.0,127.0,-5.0,-5.0,-50.0
126.0,127.0,126.0,126.0,129.0,122.0,128.0,129.0,38.0,-115.0,-59.0,127.0,127.0,127.0,-5.0,-5.0,-50.0
126.0,127.0,126.0,126.0,129.0,122.0,127.0,129.0,38.0,-115.0,-59.0,127.0,127.0,127.0,-5.0,-5.0,-50.0
126.0,126.0,127.0,126.0,128.0,122.0,127.0,128.0,38.0,-115.0,-59.0,127.0,127.0,127.0,-5.0,-5.0,-50.0
126.0,126.0,127.0,126.0,128.0,121.0,127.0,128.0,38.0,-115.0,-59.0,127.0,127.0,127.0,-5.0,-5.0,-50.0
126.0,126.0,126.0,126.0,128.0,121.0,127.0,128.0,38.0,-115.0,-59.0,127.0,127.0,127.0,-5.0,-5.0,-50.0
125.0,126.0,127.0,125.0,127.0,121.0,127.0,128.0,38.0,-115.0,-59.0,127.0,127.0,127.0,-5.0,-5.0,-50.0
125.0,126.0,126.0,125.0,127.0,121.0,126.0,128.0,38.0,-115.0,-59.0,127.0,127.0,127.0,-5.0,-5.0,-50.0
125.0,126.0,126.0,125.0,127.0,121.0,126.0,128.0,38.0,-115.0,-59.0,127.0,127.0,127.0,-5.0,-5.0,-50.0
126.0,126.0,127.0,126.0,128.0,122.0,127.0,128.0,38.0,-115.0,-59.0,127.0,127.0,127.0,-5.0,-5.0,-50.0
126.0,126.0,126.0,126.0,128.0,122.0,127.0,128.0,38.0,-115.0,-59.0,127.0,127.0,127.0,-5.0,-5.0,-50.0
126.0,126.0,126.0,126.0,128.0,122.0,127.0,128.0,38.0,-115.0,-59.0,127.0,127.0,127.0,-5.0,-5.0,-50.0
126.0,126.0,127.0,126.0,127.0,122.0,127.0,128.0,38.0,-115.0,-59.0,127.0,127.0,127.0,-5.0,-5.0,-50.0
126.0,126.0,127.0,126.0,128.0,122.0,127.0,128.0,38.0,-115.0,-59.0,127.0,127.0,127.0,-5.0,-5.0,-50.0
126.0,126.0,128.0,126.0,128.0,122.0,127.0,128.0,38.0,-115.0,-59.0,127.0,127.0,127.0,-5.0,-5.0,-50.0
126.0,126.0,129.0,126.0,128.0,122.0,127.0,128.0,38.0,-115.0,-59.0,127.0,127.0,127.0,-5.0,-5.0,-50.0
126.0,126.0,128.0,126.0,128.0,122.0,127.0,128.0,38.0,-115.0,-59.0,127.0,127.0,127.0,-5.0,-5.0,-50.0
126.0,126.0,128.0,126.0,128.0,122.0,127.0,128.0,38.0,-115.0,-59.0,127.0,127.0,127.0,-5.0,-5.0,-50.0
126.0,126.0,128.0,126.0,128.0,122.0,127.0,128.0,38.0,-115.0,-59.0,127.0,127.0,127.0,-5.0,-5.0,-50.0
126.0,126.0,129.0,125.0,127.0,121.0,126.0,128.0,38.0,-115.0,-59.0,127.0,127.0,127.0,-5.0,-5.0,-50.0
126.0,126.0,129.0,125.0,127.0,121.0,126.0,128.0,38.0,-115.0,-59.0,127.0,127.0,127.0,-5.0,-5.0,-50.0
126.0,126.0,129.0,125.0,127.0,121.0,126.0,128.0,38.0,-115.0,-59.0,127.0,127.0,127.0,-5.0,-5.0,-50.0
126.0,126.0,130.0,125.0,126.0,121.0,126.0,128.0,38.0,-115.0,-59.0,127.0,127.0,127.0,-5.0,-5.0,-50.0
126.0,125.0,130.0,125.0,126.0,121.0,126.0,128.0,38.0,-115.0,-59.0,127.0,127.0,127.0,-5.0,-5.0,-50.0
126.0,125.0,130.0,125.0,126.0,121.0,126.0,128.0,38.0,-115.0,-59.0,127.0,127.0,127.0,-5.0,-5.0,-50.0
126.0,125.0,130.0,125.0,127.0,121.0,126.0,128.0,38.0,-115.0,-59.0,127.0,127.0,127.0,-5.0,-5.0,-50.0
126.0,125.0,130.0,125.0,127.0,121.0,126.0,128.0,38.0,-115.0,-59.0,127.0,127.0,127.0,-5.0,-5.0,-50.0
126.0,125.0,130.0,125.0,127.0,121.0,126.0,128.0,38.0,-115.0,-59.0,127.0,127.0,127.0,-5.0,-5.0,-50.0
126.0,126.0,130.0,125.0,127.0,122.0,127.0,128.0,38.0,-115.0,-59.0,127.0,127.0,127.0,-5.0,-5.0,-50.0
126.0,125.0,129.0,126.0,128.0,122.0,127.0,128.0,37.0,-115.0,-59.0,127.0,127.0,127.0,-5.0,-5.0,-50.0
126.0,125.0,129.0,126.0,127.0,122.0,127.0,128.0,37.0,-115.0,-59.0,127.0,127.0,127.0,-5.0,-5.0,-50.0
126.0,125.0,130.0,126.0,127.0,122.0,127.0,128.0,37.0,-115.0,-59.0,127.0,127.0,127.0,-5.0,-5.0,-50.0
126.0,125.0,131.0,126.0,127.0,122.0,127.0,128.0,37.0,-115.0,-59.0,127.0,127.0,127.0,-5.0,-5.0,-50.0
126.0,125.0,130.0,126.0,127.0,121.0,126.0,128.0,37.0,-115.0,-59.0,127.0,127.0,127.0,-5.0,-5.0,-50.0
126.0,125.0,130.0,126.0,127.0,121.0,126.0,128.0,37.0,-115.0,-59.0,127.0,127.0,127.0,-5.0,-5.0,-50.0
126.0,125.0,129.0,126.0,127.0,121.0,126.0,128.0,37.0,-115.0,-59.0,127.0,127.0,127.0,-5.0,-5.0,-50.0
126.0,126.0,129.0,126.0,127.0,121.0,126.0,128.0,37.0,-115.0,-59.0,127.0,127.0,127.0,-5.0,-5.0,-50.0
126.0,125.0,129.0,127.0,127.0,122.0,127.0,128.0,37.0,-115.0,-59.0,127.0,127.0,127.0,-5.0,-5.0,-50.0
126.0,125.0,129.0,126.0,128.0,122.0,126.0,128.0,37.0,-115.0,-59.0,127.0,127.0,127.0,-5.0,-5.0,-50.0
126.0,126.0,129.0,127.0,127.0,120.0,126.0,128.0,37.0,-115.0,-59.0,127.0,127.0,127.0,-5.0,-5.0,-50.0
126.0,126.0,129.0,127.0,127.0,120.0,126.0,128.0,37.0,-115.0,-59.0,127.0,127.0,127.0,-5.0,-5.0,-50.0
126.0,126.0,129.0,126.0,127.0,120.0,126.0,128.0,37.0,-115.0,-59.0,127.0,127.0,127.0,-5.0,-5.0,-50.0
126.0,126.0,129.0,126.0,127.0,120.0,126.0,128.0,37.0,-115.0,-59.0,127.0,127.0,127.0,-5.0,-5.0,-50.0
126.0,125.0,129.0,126.0,127.0,120.0,126.0,128.0,37.0,-115.0,-59.0,127.0,127.0,127.0,-5.0,-5.0,-50.0
126.0,126.0,129.0,126.0,127.0,120.0,126.0,128.0,37.0,-115.0,-59.0,127.0,127.0,127.0,-5.0,-5.0,-50.0
126.0,126.0,129.0,126.0,127.0,120.0,126.0,128.0,37.0,-115.0,-59.0,127.0,127.0,127.0,-5.0,-5.0,-50.0
126.0,126.0,128.0,127.0,128.0,121.0,126.0,128.0,37.0,-115.0,-59.0,127.0,127.0,127.0,-5.0,-5.0,-50.0
126.0,126.0,128.0,127.0,128.0,120.0,126.0,127.0,37.0,-115.0,-59.0,127.0,127.0,127.0,-5.0,-5.0,-50.0
126.0,126.0,128.0,127.0,128.0,120.0,126.0,128.0,37.0,-115.0,-59.0,127.0,127.0,127.0,-5.0,-5.0,-50.0
126.0,125.0,131.0,126.0,127.0,120.0,126.0,128.0,36.0,-115.0,-59.0,127.0,127.0,127.0,-5.0,-5.0,-50.0
126.0,125.0,131.0,126.0,127.0,120.0,126.0,128.0,36.0,-115.0,-59.0,127.0,127.0,127.0,-5.0,-5.0,-50.0
126.0,125.0,132.0,127.0,127.0,120.0,126.0,128.0,36.0,-115.0,-59.0,127.0,127.0,127.0,-5.0,-5.0,-50.0
126.0,125.0,132.0,127.0,127.0,119.0,126.0,128.0,36.0,-115.0,-59.0,127.0,127.0,127.0,-5.0,-5.0,-50.0
126.0,125.0,131.0,127.0,127.0,119.0,126.0,128.0,36.0,-115.0,-59.0,127.0,127.0,127.0,-5.0,-5.0,-50.0
126.0,125.0,131.0,127.0,127.0,119.0,126.0,128.0,36.0,-115.0,-59.0,127.0,127.0,127.0,-5.0,-5.0,-50.0
126.0,125.0,131.0,126.0,127.0,120.0,126.0,128.0,36.0,-115.0,-59.0,127.0,127.0,127.0,-5.0,-5.0,-50.0
126.0,125.0,131.0,126.0,127.0,120.0,126.0,128.0,36.0,-115.0,-59.0,127.0,127.0,127.0,-5.0,-5.0,-50.0
126.0,125.0,131.0,126.0,128.0,120.0,126.0,128.0,36.0,-115.0,-59.0,127.0,127.0,127.0,-5.0,-5.0,-50.0
126.0,125.0,131.0,126.0,127.0,120.0,126.0,128.0,36.0,-115.0,-59.0,127.0,127.0,127.0,-5.0,-5.0,-50.0
126.0,125.0,135.0,126.0,126.0,119.0,125.0,128.0,36.0,-115.0,-60.0,127.0,127.0,127.0,-5.0,-5.0,-50.0
126.0,125.0,134.0,126.0,126.0,119.0,125.0,128.0,36.0,-115.0,-60.0,127.0,127.0,127.0,-5.0,-5.0,-50.0
126.0,125.0,135.0,126.0,126.0,119.0,125.0,128.0,36.0,-115.0,-60.0,127.0,127.0,127.0,-5.0,-5.0,-50.0
126.0,125.0,135.0,126.0,126.0,119.0,125.0,128.0,36.0,-115.0,-60.0,127.0,127.0,127.0,-5.0,-5.0,-50.0
126.0,125.0,135.0,126.0,126.0,119.0,125.0,128.0,36.0,-115.0,-60.0,127.0,127.0,127.0,-5.0,-5.0,-50.0
126.0,125.0,137.0,126.0,127.0,120.0,126.0,128.0,36.0,-115.0,-60.0,127.0,127.0,127.0,-5.0,-5.0,-50.0
126.0,125.0,137.0,126.0,127.0,120.0,126.0,128.0,36.0,-115.0,-60.0,127.0,127.0,127.0,-5.0,-5.0,-50.0
126.0,125.0,136.0,126.0,127.0,119.0,126.0,128.0,36.0,-115.0,-60.0,127.0,127.0,127.0,-5.0,-5.0,-50.0
126.0,125.0,136.0,126.0,126.0,119.0,126.0,128.0,36.0,-115.0,-60.0,127.0,127.0,127.0,-5.0,-5.0,-50.0
126.0,125.0,136.0,126.0,126.0,119.0,126.0,128.0,36.0,-115.0,-60.0,127.0,127.0,127.0,-5.0,-5.0,-50.0
126.0,125.0,132.0,126.0,127.0,119.0,126.0,128.0,36.0,-116.0,-60.0,127.0,127.0,127.0,-5.0,-5.0,-50.0
126.0,125.0,133.0,126.0,127.0,119.0,126.0,128.0,36.0,-116.0,-60.0,127.0,127.0,127.0,-5.0,-5.0,-50.0
126.0,125.0,132.0,126.0,127.0,118.0,126.0,128.0,36.0,-116.0,-60.0,127.0,127.0,127.0,-5.0,-5.0,-50.0
126.0,125.0,132.0,126.0,127.0,118.0,126.0,128.0,36.0,-116.0,-60.0,127.0,127.0,127.0,-5.0,-5.0,-50.0
126.0,125.0,131.0,127.0,127.0,119.0,126.0,128.0,36.0,-116.0,-60.0,127.0,127.0,127.0,-5.0,-5.0,-50.0
126.0,125.0,131.0,127.0,127.0,119.0,126.0,128.0,36.0,-116.0,-60.0,127.0,127.0,127.0,-5.0,-5.0,-50.0
126.0,125.0,131.0,127.0,127.0,119.0,126.0,128.0,36.0,-116.0,-60.0,127.0,127.0,127.0,-5.0,-5.0,-50.0
126.0,125.0,131.0,127.0,127.0,119.0,126.0,128.0,36.0,-116.0,-60.0,127.0,127.0,127.0,-5.0,-5.0,-50.0
126.0,125.0,131.0,127.0,127.0,119.0,126.0,128.0,36.0,-116.0,-60.0,127.0,127.0,127.0,-5.0,-5.0,-50.0
126.0,125.0,132.0,127.0,127.0,119.0,126.0,128.0,36.0,-116.0,-60.0,127.0,127.0,127.0,-5.0,-5.0,-50.0
126.0,126.0,124.0,126.0,127.0,116.0,126.0,128.0,36.0,-116.0,-60.0,127.0,127.0,127.0,-5.0,-5.0,-50.0
126.0,125.0,124.0,126.0,127.0,116.0,126.0,128.0,36.0,-116.0,-60.0,127.0,127.0,127.0,-5.0,-5.0,-50.0
126.0,125.0,124.0,126.0,127.0,116.0,126.0,128.0,36.0,-116.0,-60.0,127.0,127.0,127.0,-5.0,-5.0,-50.0
126.0,126.0,125.0,126.0,127.0,117.0,126.0,128.0,36.0,-116.0,-60.0,127.0,127.0,127.0,-5.0,-5.0,-50.0
126.0,126.0,125.0,126.0,127.0,117.0,126.0,128.0,36.0,-116.0,-60.0,127.0,127.0,127.0,-5.0,-5.0,-50.0
126.0,126.0,125.0,126.0,127.0,117.0,126.0,128.0,36.0,-116.0,-60.0,127.0,127.0,127.0,-5.0,-5.0,-50.0
126.0,126.0,125.0,126.0,127.0,117.0,126.0,128.0,36.0,-116.0,-60.0,127.0,127.0,127.0,-5.0,-5.0,-50.0
126.0,126.0,125.0,126.0,127.0,116.0,126.0,128.0,36.0,-116.0,-60.0,127.0,127.0,127.0,-5.0,-5.0,-50.0
126.0,126.0,124.0,126.0,127.0,116.0,126.0,128.0,36.0,-116.0,-60.0,127.0,127.0,127.0,-5.0,-5.0,-50.0
126.0,126.0,124.0,126.0,127.0,116.0,126.0,128.0,36.0,-116.0,-60.0,127.0,127.0,127.0,-5.0,-5.0,-50.0
125.0,125.0,120.0,126.0,127.0,114.0,126.0,128.0,36.0,-116.0,-60.0,-128.0,127.0,127.0,-5.0,-5.0,-50.0
125.0,125.0,120.0,126.0,127.0,114.0,126.0,128.0,36.0,-116.0,-60.0,-128.0,127.0,127.0,-5.0,-5.0,-50.0
125.0,126.0,118.0,126.0,127.0,114.0,126.0,128.0,36.0,-116.0,-60.0,-128.0,127.0,127.0,-5.0,-5.0,-50.0
125.0,125.0,118.0,126.0,127.0,114.0,126.0,128.0,36.0,-116.0,-60.0,-128.0,127.0,127.0,-5.0,-5.0,-50.0
125.0,125.0,118.0,126.0,127.0,114.0,126.0,128.0,36.0,-116.0,-60.0,-128.0,127.0,127.0,-5.0,-5.0,-50.0
125.0,125.0,119.0,126.0,127.0,114.0,126.0,128.0,36.0,-116.0,-60.0,-128.0,127.0,127.0,-5.0,-5.0,-50.0
125.0,125.0,119.0,126.0,127.0,114.0,126.0,128.0,36.0,-116.0,-60.0,-128.0,127.0,127.0,-5.0,-5.0,-50.0
125.0,125.0,119.0,126.0,127.0,114.0,126.0,128.0,36.0,-116.0,-60.0,-128.0,127.0,127.0,-5.0,-5.0,-50.0
125.0,125.0,119.0,126.0,127.0,114.0,126.0,128.0,36.0,-116.0,-60.0,-128.0,127.0,127.0,-5.0,-5.0,-50.0
125.0,125.0,120.0,126.0,127.0,114.0,126.0,128.0,36.0,-116.0,-60.0,-128.0,127.0,127.0,-5.0,-5.0,-50.0
125.0,126.0,125.0,127.0,128.0,110.0,126.0,128.0,36.0,-115.0,-60.0,-128.0,127.0,127.0,-5.0,-5.0,-50.0
125.0,127.0,121.0,127.0,128.0,110.0,126.0,128.0,36.0,-115.0,-60.0,-128.0,127.0,127.0,-5.0,-5.0,-50.0
125.0,127.0,122.0,127.0,128.0,110.0,126.0,128.0,36.0,-115.0,-60.0,-128.0,127.0,127.0,-5.0,-5.0,-50.0
125.0,126.0,122.0,127.0,128.0,110.0,126.0,128.0,36.0,-115.0,-60.0,-128.0,127.0,127.0,-5.0,-5.0,-50.0
125.0,126.0,123.0,126.0,128.0,110.0,126.0,128.0,36.0,-115.0,-60.0,-128.0,127.0,127.0,-5.0,-5.0,-50.0
125.0,126.0,124.0,126.0,128.0,110.0,126.0,128.0,36.0,-115.0,-60.0,-128.0,127.0,127.0,-5.0,-5.0,-50.0
125.0,126.0,124.0,127.0,128.0,110.0,126.0,128.0,36.0,-115.0,-60.0,-128.0,127.0,127.0,-5.0,-5.0,-50.0
125.0,126.0,125.0,127.0,128.0,110.0,126.0,128.0,36.0,-115.0,-60.0,-128.0,127.0,127.0,-5.0,-5.0,-50.0
125.0,126.0,125.0,127.0,128.0,110.0,126.0,128.0,36.0,-115.0,-60.0,-128.0,127.0,127.0,-5.0,-5.0,-50.0
125.0,126.0,125.0,127.0,128.0,110.0,126.0,128.0,36.0,-115.0,-60.0,-128.0,127.0,127.0,-5.0,-5.0,-50.0
125.0,126.0,123.0,127.0,128.0,107.0,126.0,128.0,36.0,-115.0,-61.0,-128.0,127.0,127.0,-5.0,-5.0,-50.0
125.0,126.0,123.0,127.0,128.0,106.0,126.0,128.0,36.0,-115.0,-61.0,-128.0,127.0,127.0,-5.0,-5.0,-50.0
125.0,126.0,123.0,127.0,128.0,106.0,126.0,128.0,36.0,-115.0,-61.0,-128.0,127.0,127.0,-5.0,-5.0,-50.0
125.0,127.0,122.0,127.0,128.0,106.0,126.0,128.0,36.0,-115.0,-61.0,-128.0,127.0,127.0,-5.0,-5.0,-50.0
125.0,127.0,122.0,127.0,128.0,106.0,126.0,128.0,36.0,-115.0,-61.0,-128.0,127.0,127.0,-5.0,-5.0,-50.0
125.0,127.0,122.0,127.0,128.0,106.0,126.0,128.0,36.0,-115.0,-61.0,-128.0,127.0,127.0,-5.0,-5.0,-50.0
125.0,127.0,121.0,127.0,128.0,106.0,126.0,128.0,36.0,-115.0,-61.0,-128.0,127.0,127.0,-5.0,-5.0,-50.0
125.0,127.0,121.0,127.0,128.0,106.0,126.0,128.0,36.0,-115.0,-61.0,-128.0,127.0,127.0,-5.0,-5.0,-50.0
125.0,127.0,121.0,127.0,128.0,106.0,126.0,128.0,36.0,-115.0,-61.0,-128.0,127.0,127.0,-5.0,-5.0,-50.0
125.0,127.0,121.0,127.0,128.0,106.0,126.0,128.0,36.0,-115.0,-61.0,-128.0,127.0,127.0,-5.0,-5.0,-50.0
125.0,126.0,114.0,128.0,128.0,104.0,126.0,128.0,36.0,-115.0,-61.0,-128.0,127.0,127.0,-5.0,-5.0,-50.0
125.0,126.0,114.0,128.0,128.0,104.0,126.0,128.0,36.0,-115.0,-61.0,-128.0,127.0,127.0,-5.0,-5.0,-50.0
125.0,126.0,113.0,128.0,128.0,104.0,126.0,128.0,36.0,-115.0,-61.0,-128.0,127.0,127.0,-5.0,-5.0,-50.0
125.0,127.0,113.0,128.0,128.0,104.0,126.0,128.0,36.0,-115.0,-61.0,-128.0,127.0,127.0,-5.0,-5.0,-50.0
125.0,127.0,114.0,128.0,128.0,104.0,126.0,128.0,36.0,-115.0,-61.0,-128.0,127.0,127.0,-5.0,-5.0,-50.0
125.0,126.0,114.0,128.0,128.0,104.0,126.0,128.0,36.0,-115.0,-61.0,-128.0,127.0,127.0,-5.0,-5.0,-50.0
125.0,126.0,114.0,128.0,128.0,104.0,126.0,128.0,36.0,-115.0,-61.0,-128.0,127.0,127.0,-5.0,-5.0,-50.0
125.0,126.0,115.0,128.0,128.0,104.0,126.0,128.0,36.0,-115.0,-61.0,-128.0,127.0,127.0,-5.0,-5.0,-50.0
125.0,127.0,114.0,128.0,128.0,104.0,126.0,128.0,36.0,-115.0,-61.0,-128.0,127.0,127.0,-5.0,-5.0,-50.0
125.0,126.0,114.0,128.0,128.0,104.0,126.0,128.0,36.0,-115.0,-61.0,-128.0,127.0,127.0,-5.0,-5.0,-50.0
125.0,127.0,114.0,127.0,127.0,106.0,127.0,128.0,36.0,-114.0,-61.0,-128.0,127.0,127.0,-5.0,-5.0,-50.0
125.0,127.0,114.0,127.0,127.0,106.0,127.0,128.0,36.0,-114.0,-61.0,-128.0,127.0,127.0,-5.0,-5.0,-50.0
125.0,127.0,114.0,127.0,127.0,106.0,127.0,128.0,36.0,-114.0,-61.0,-128.0,127.0,127.0,-5.0,-5.0,-50.0
125.0,127.0,114.0,127.0,127.0,106.0,127.0,128.0,36.0,-114.0,-61.0,-128.0,127.0,127.0,-5.0,-5.0,-50.0
125.0,127.0,115.0,127.0,127.0,106.0,127.0,128.0,36.0,-114.0,-61.0,-128.0,127.0,127.0,-5.0,-5.0,-50.0
125.0,127.0,115.0,127.0,127.0,106.0,127.0,128.0,36.0,-114.0,-61.0,-128.0,127.0,127.0,-5.0,-5.0,-50.0
125.0,127.0,115.0,127.0,127.0,106.0,127.0,128.0,36.0,-114.0,-61.0,-128.0,127.0,127.0,-5.0,-5.0,-50.0
125.0,127.0,115.0,127.0,127.0,106.0,127.0,128.0,36.0,-114.0,-61.0,-128.0,127.0,127.0,-5.0,-5.0,-50.0
125.0,127.0,113.0,127.0,127.0,106.0,127.0,128.0,36.0,-114.0,-61.0,-128.0,127.0,127.0,-5.0,-5.0,-50.0
125.0,127.0,113.0,127.0,127.0,106.0,127.0,128.0,36.0,-114.0,-61.0,-128.0,127.0,127.0,-5.0,-5.0,-50.0
126.0,128.0,103.0,127.0,127.0,109.0,127.0,128.0,35.0,-114.0,-61.0,-128.0,127.0,127.0,-5.0,-5.0,-50.0
126.0,128.0,104.0,127.0,127.0,109.0,127.0,128.0,35.0,-114.0,-61.0,-128.0,127.0,127.0,-5.0,-5.0,-50.0
126.0,128.0,105.0,127.0,127.0,109.0,127.0,128.0,35.0,-114.0,-61.0,-128.0,127.0,127.0,-5.0,-5.0,-50.0
126.0,128.0,105.0,127.0,127.0,109.0,127.0,128.0,35.0,-114.0,-61.0,-128.0,127.0,127.0,-5.0,-5.0,-50.0
126.0,128.0,105.0,127.0,127.0,109.0,127.0,128.0,35.0,-114.0,-61.0,-128.0,127.0,127.0,-5.0,-5.0,-50.0
126.0,128.0,106.0,127.0,127.0,109.0,127.0,128.0,35.0,-114.0,-61.0,-128.0,127.0,127.0,-5.0,-5.0,-50.0
126.0,128.0,106.0,126.0,127.0,109.0,127.0,128.0,35.0,-114.0,-61.0,-128.0,127.0,127.0,-5.0,-5.0,-50.0
126.0,128.0,102.0,127.0,127.0,109.0,127.0,128.0,35.0,-114.0,-61.0,-128.0,127.0,127.0,-5.0,-5.0,-50.0
126.0,128.0,102.0,127.0,127.0,109.0,127.0,128.0,35.0,-114.0,-61.0,-128.0,127.0,127.0,-5.0,-5.0,-50.0
126.0,128.0,103.0,127.0,127.0,109.0,127.0,128.0,35.0,-114.0,-61.0,-128.0,127.0,127.0,-5.0,-5.0,-50.0
126.0,128.0,107.0,126.0,127.0,108.0,127.0,128.0,36.0,-113.0,-61.0,-128.0,127.0,127.0,-5.0,-5.0,-50.0
126.0,128.0,107.0,126.0,127.0,108.0,127.0,128.0,36.0,-113.0,-61.0,-128.0,127.0,127.0,-5.0,-5.0,-50.0
126.0,128.0,107.0,126.0,127.0,108.0,128.0,128.0,36.0,-113.0,-61.0,-128.0,127.0,127.0,-5.0,-5.0,-50.0
126.0,128.0,107.0,126.0,127.0,108.0,128.0,128.0,36.0,-113.0,-61.0,-128.0,127.0,127.0,-5.0,-5.0,-50.0
126.0,128.0,107.0,126.0,127.0,108.0,127.0,128.0,36.0,-113.0,-61.0,-128.0,127.0,127.0,-5.0,-5.0,-50.0
126.0,128.0,107.0,126.0,127.0,108.0,127.0,128.0,36.0,-113.0,-61.0,-128.0,127.0,127.0,-5.0,-5.0,-50.0
125.0,128.0,109.0,126.0,127.0,108.0,127.0,128.0,36.0,-113.0,-61.0,-128.0,127.0,127.0,-5.0,-5.0,-50.0
126.0,128.0,108.0,126.0,127.0,108.0,128.0,128.0,36.0,-113.0,-61.0,-128.0,127.0,127.0,-5.0,-5.0,-50.0
126.0,128.0,108.0,126.0,127.0,108.0,128.0,128.0,36.0,-113.0,-61.0,-128.0,127.0,127.0,-5.0,-5.0,-50.0
126.0,128.0,108.0,126.0,127.0,108.0,127.0,128.0,36.0,-113.0,-61.0,-128.0,127.0,127.0,-5.0,-5.0,-50.0
126.0,129.0,103.0,127.0,128.0,107.0,127.0,128.0,36.0,-112.0,-61.0,-128.0,127.0,127.0,-5.0,-5.0,-50.0
126.0,130.0,103.0,128.0,128.0,107.0,127.0,128.0,36.0,-112.0,-61.0,-128.0,127.0,127.0,-5.0,-5.0,-50.0
126.0,130.0,104.0,128.0,128.0,107.0,127.0,128.0,36.0,-112.0,-61.0,-128.0,127.0,127.0,-5.0,-5.0,-50.0
126.0,130.0,104.0,128.0,128.0,107.0,127.0,128.0,36.0,-112.0,-61.0,-128.0,127.0,127.0,-5.0,-5.0,-50.0
126.0,130.0,104.0,128.0,128.0,107.0,127.0,128.0,36.0,-112.0,-61.0,-128.0,127.0,127.0,-5.0,-5.0,-50.0
125.0,128.0,102.0,126.0,128.0,107.0,128.0,128.0,36.0,-112.0,-61.0,-128.0,127.0,127.0,-5.0,-5.0,-50.0
125.0,128.0,103.0,126.0,128.0,107.0,128.0,128.0,36.0,-112.0,-61.0,-128.0,127.0,127.0,-5.0,-5.0,-50.0
125.0,128.0,104.0,126.0,128.0,107.0,128.0,128.0,36.0,-112.0,-61.0,-128.0,127.0,127.0,-5.0,-5.0,-50.0
125.0,128.0,103.0,127.0,128.0,107.0,128.0,128.0,36.0,-112.0,-61.0,-128.0,127.0,127.0,-5.0,-5.0,-50.0
126.0,129.0,103.0,127.0,128.0,107.0,128.0,128.0,36.0,-112.0,-61.0,-128.0,127.0,127.0,-5.0,-5.0,-50.0
125.0,130.0,129.0,126.0,128.0,112.0,126.0,128.0,35.0,-111.0,-61.0,-128.0,127.0,127.0,-5.0,-5.0,-50.0
125.0,131.0,128.0,125.0,128.0,112.0,126.0,128.0,35.0,-111.0,-61.0,-128.0,127.0,127.0,-5.0,-5.0,-50.0
125.0,130.0,129.0,125.0,128.0,112.0,126.0,128.0,35.0,-111.0,-61.0,-128.0,127.0,127.0,-5.0,-5.0,-50.0
125.0,130.0,130.0,125.0,127.0,112.0,127.0,128.0,35.0,-111.0,-61.0,-128.0,127.0,127.0,-5.0,-5.0,-50.0
125.0,130.0,126.0,126.0,128.0,111.0,127.0,128.0,35.0,-111.0,-61.0,-128.0,127.0,127.0,-5.0,-5.0,-50.0
125.0,130.0,127.0,126.0,128.0,111.0,127.0,128.0,35.0,-111.0,-61.0,-128.0,127.0,127.0,-5.0,-5.0,-50.0
125.0,130.0,127.0,126.0,128.0,111.0,127.0,128.0,35.0,-111.0,-61.0,-128.0,127.0,127.0,-5.0,-5.0,-50.0
125.0,130.0,128.0,126.0,128.0,111.0,127.0,128.0,35.0,-111.0,-61.0,-128.0,127.0,127.0,-5.0,-5.0,-50.0
125.0,131.0,127.0,126.0,128.0,111.0,127.0,128.0,35.0,-111.0,-61.0,-128.0,127.0,127.0,-5.0,-5.0,-50.0
125.0,130.0,128.0,126.0,128.0,112.0,127.0,128.0,35.0,-111.0,-61.0,-128.0,127.0,127.0,-5.0,-5.0,-50.0
126.0,130.0,136.0,125.0,127.0,115.0,125.0,128.0,35.0,-110.0,-61.0,-128.0,127.0,127.0,-5.0,-5.0,-50.0
126.0,130.0,136.0,125.0,127.0,115.0,125.0,128.0,35.0,-110.0,-61.0,-128.0,127.0,127.0,-5.0,-5.0,-50.0
126.0,130.0,136.0,125.0,127.0,115.0,125.0,128.0,35.0,-110.0,-61.0,-128.0,127.0,127.0,-5.0,-5.0,-50.0
125.0,130.0,134.0,125.0,127.0,114.0,126.0,128.0,35.0,-110.0,-61.0,-128.0,127.0,127.0,-5.0,-5.0,-50.0
125.0,130.0,133.0,125.0,127.0,115.0,125.0,128.0,35.0,-110.0,-61.0,-128.0,127.0,127.0,-5.0,-5.0,-50.0
126.0,130.0,134.0,125.0,127.0,115.0,125.0,128.0,35.0,-110.0,-61.0,-128.0,127.0,127.0,-5.0,-5.0,-50.0
126.0,130.0,134.0,125.0,127.0,115.0,125.0,128.0,35.0,-110.0,-61.0,-128.0,127.0,127.0,-5.0,-5.0,-50.0
126.0,130.0,135.0,125.0,127.0,115.0,126.0,128.0,35.0,-110.0,-61.0,-128.0,127.0,127.0,-5.0,-5.0,-50.0
126.0,130.0,135.0,125.0,127.0,115.0,125.0,128.0,35.0,-110.0,-61.0,-128.0,127.0,127.0,-5.0,-5.0,-50.0
126.0,129.0,136.0,125.0,127.0,115.0,126.0,128.0,35.0,-110.0,-61.0,-128.0,127.0,127.0,-5.0,-5.0,-50.0
126.0,129.0,135.0,126.0,127.0,116.0,126.0,128.0,35.0,-110.0,-61.0,-128.0,127.0,127.0,-5.0,-5.0,-50.0
126.0,129.0,135.0,126.0,127.0,116.0,126.0,128.0,35.0,-110.0,-61.0,-128.0,127.0,127.0,-5.0,-5.0,-50.0
126.0,129.0,137.0,126.0,127.0,116.0,126.0,128.0,35.0,-110.0,-61.0,-128.0,127.0,127.0,-5.0,-5.0,-50.0
126.0,129.0,137.0,126.0,127.0,116.0,126.0,128.0,35.0,-110.0,-61.0,-128.0,127.0,127.0,-5.0,-5.0,-50.0
126.0,129.0,137.0,126.0,127.0,116.0,126.0,128.0,35.0,-110.0,-61.0,-128.0,127.0,127.0,-5.0,-5.0,-50.0
126.0,129.0,137.0,126.0,127.0,116.0,126.0,128.0,35.0,-110.0,-61.0,-128.0,127.0,127.0,-5.0,-5.0,-50.0
126.0,129.0,136.0,126.0,127.0,116.0,126.0,128.0,35.0,-110.0,-61.0,-128.0,127.0,127.0,-5.0,-5.0,-50.0
126.0,129.0,136.0,126.0,127.0,116.0,126.0,128.0,35.0,-110.0,-61.0,-128.0,127.0,127.0,-5.0,-5.0,-50.0
126.0,129.0,136.0,126.0,127.0,116.0,126.0,128.0,35.0,-110.0,-61.0,-128.0,127.0,127.0,-5.0,-5.0,-50.0
126.0,129.0,136.0,126.0,127.0,116.0,126.0,128.0,35.0,-110.0,-61.0,-128.0,127.0,127.0,-5.0,-5.0,-50.0
126.0,129.0,137.0,128.0,127.0,114.0,126.0,128.0,35.0,-109.0,-61.0,-128.0,127.0,127.0,-5.0,-5.0,-50.0
126.0,129.0,136.0,128.0,127.0,115.0,126.0,128.0,35.0,-109.0,-61.0,-128.0,127.0,127.0,-5.0,-5.0,-50.0
126.0,129.0,137.0,128.0,127.0,115.0,126.0,128.0,35.0,-109.0,-61.0,-128.0,127.0,127.0,-5.0,-5.0,-50.0
126.0,129.0,137.0,128.0,127.0,115.0,126.0,128.0,35.0,-109.0,-61.0,-128.0,127.0,127.0,-5.0,-5.0,-50.0
126.0,129.0,137.0,128.0,127.0,115.0,126.0,128.0,35.0,-109.0,-61.0,-128.0,127.0,127.0,-5.0,-5.0,-50.0
126.0,129.0,136.0,128.0,127.0,115.0,126.0,128.0,35.0,-109.0,-61.0,-128.0,127.0,127.0,-5.0,-5.0,-50.0
126.0,129.0,136.0,128.0,127.0,115.0,126.0,128.0,35.0,-109.0,-61.0,-128.0,127.0,127.0,-5.0,-5.0,-50.0
126.0,129.0,136.0,128.0,127.0,114.0,126.0,128.0,35.0,-109.0,-61.0,-128.0,127.0,127.0,-5.0,-5.0,-50.0
126.0,129.0,136.0,128.0,127.0,114.0,126.0,128.0,35.0,-109.0,-61.0,-128.0,127.0,127.0,-5.0,-5.0,-50.0
126.0,129.0,137.0,128.0,127.0,114.0,126.0,128.0,35.0,-109.0,-61.0,-128.0,127.0,127.0,-5.0,-5.0,-50.0
126.0,128.0,135.0,129.0,127.0,113.0,127.0,128.0,34.0,-108.0,-62.0,-128.0,127.0,127.0,-5.0,-5.0,-50.0
126.0,129.0,135.0,129.0,127.0,112.0,127.0,128.0,34.0,-108.0,-62.0,-128.0,127.0,127.0,-5.0,-5.0,-50.0
126.0,129.0,134.0,130.0,127.0,113.0,127.0,128.0,34.0,-108.0,-62.0,-128.0,127.0,127.0,-5.0,-5.0,-50.0
126.0,128.0,135.0,129.0,127.0,113.0,127.0,128.0,34.0,-108.0,-62.0,-128.0,127.0,127.0,-5.0,-5.0,-50.0
126.0,128.0,135.0,129.0,127.0,113.0,127.0,128.0,34.0,-108.0,-62.0,-128.0,127.0,127.0,-5.0,-5.0,-50.0
126.0,128.0,136.0,129.0,127.0,113.0,127.0,128.0,34.0,-108.0,-62.0,-128.0,127.0,127.0,-5.0,-5.0,-50.0
126.0,128.0,136.0,129.0,127.0,113.0,127.0,128.0,34.0,-108.0,-62.0,-128.0,127.0,127.0,-5.0,-5.0,-50.0
126.0,128.0,137.0,129.0,127.0,112.0,127.0,128.0,34.0,-108.0,-62.0,-128.0,127.0,127.0,-5.0,-5.0,-50.0
126.0,128.0,136.0,129.0,127.0,112.0,127.0,128.0,34.0,-108.0,-62.0,-128.0,127.0,127.0,-5.0,-5.0,-50.0
126.0,128.0,136.0,129.0,127.0,113.0,127.0,128.0,34.0,-108.0,-62.0,-128.0,127.0,127.0,-5.0,-5.0,-50.0
125.0,128.0,152.0,127.0,127.0,112.0,127.0,128.0,33.0,-107.0,-62.0,-128.0,127.0,127.0,-5.0,-5.0,-50.0
125.0,128.0,153.0,127.0,127.0,113.0,127.0,128.0,33.0,-107.0,-62.0,-128.0,127.0,127.0,-5.0,-5.0,-50.0
126.0,128.0,154.0,127.0,127.0,113.0,127.0,128.0,33.0,-107.0,-62.0,-128.0,127.0,127.0,-5.0,-5.0,-50.0
126.0,128.0,155.0,127.0,127.0,112.0,127.0,128.0,33.0,-107.0,-62.0,-128.0,127.0,127.0,-5.0,-5.0,-50.0
126.0,128.0,155.0,127.0,127.0,113.0,126.0,128.0,33.0,-107.0,-62.0,-128.0,127.0,127.0,-5.0,-5.0,-50.0
126.0,128.0,157.0,127.0,127.0,113.0,127.0,128.0,33.0,-107.0,-62.0,-128.0,127.0,127.0,-5.0,-5.0,-50.0
126.0,128.0,158.0,127.0,127.0,113.0,127.0,128.0,33.0,-107.0,-62.0,-128.0,127.0,127.0,-5.0,-5.0,-50.0
126.0,128.0,160.0,127.0,127.0,113.0,127.0,128.0,33.0,-107.0,-62.0,-128.0,127.0,127.0,-5.0,-5.0,-50.0
126.0,128.0,161.0,127.0,127.0,112.0,127.0,128.0,33.0,-107.0,-62.0,-128.0,127.0,127.0,-5.0,-5.0,-50.0
125.0,128.0,151.0,127.0,127.0,112.0,127.0,128.0,33.0,-107.0,-62.0,-128.0,127.0,127.0,-5.0,-5.0,-50.0
126.0,128.0,201.0,127.0,127.0,113.0,126.0,128.0,33.0,-108.0,-63.0,-128.0,127.0,127.0,-5.0,-5.0,-50.0
126.0,127.0,202.0,127.0,127.0,113.0,126.0,128.0,33.0,-108.0,-63.0,-128.0,127.0,127.0,-5.0,-5.0,-50.0
126.0,127.0,203.0,127.0,127.0,113.0,126.0,128.0,33.0,-108.0,-63.0,-128.0,127.0,127.0,-5.0,-5.0,-50.0
126.0,127.0,204.0,127.0,127.0,113.0,126.0,128.0,33.0,-108.0,-63.0,-128.0,127.0,127.0,-5.0,-5.0,-50.0
126.0,127.0,205.0,127.0,127.0,113.0,126.0,128.0,33.0,-108.0,-63.0,-128.0,127.0,127.0,-5.0,-5.0,-50.0
126.0,127.0,206.0,127.0,127.0,113.0,125.0,127.0,33.0,-108.0,-63.0,-128.0,127.0,127.0,-5.0,-5.0,-50.0
126.0,128.0,206.0,127.0,127.0,113.0,125.0,128.0,33.0,-108.0,-63.0,-128.0,127.0,127.0,-5.0,-5.0,-50.0
126.0,128.0,207.0,127.0,127.0,113.0,125.0,128.0,33.0,-108.0,-63.0,-128.0,127.0,127.0,-5.0,-5.0,-50.0
126.0,128.0,199.0,127.0,127.0,113.0,126.0,128.0,33.0,-108.0,-63.0,-128.0,127.0,127.0,-5.0,-5.0,-50.0
126.0,128.0,200.0,127.0,127.0,113.0,126.0,128.0,33.0,-108.0,-63.0,-128.0,127.0,127.0,-5.0,-5.0,-50.0
126.0,128.0,226.0,127.0,127.0,115.0,126.0,128.0,33.0,-107.0,-63.0,-128.0,127.0,127.0,-5.0,-5.0,-50.0
126.0,128.0,226.0,127.0,127.0,115.0,126.0,128.0,33.0,-107.0,-63.0,-128.0,127.0,127.0,-5.0,-5.0,-50.0
126.0,128.0,226.0,127.0,127.0,115.0,125.0,128.0,33.0,-107.0,-63.0,-128.0,127.0,127.0,-5.0,-5.0,-50.0
126.0,128.0,227.0,127.0,127.0,116.0,126.0,128.0,33.0,-107.0,-63.0,-128.0,127.0,127.0,-5.0,-5.0,-50.0
126.0,128.0,227.0,127.0,127.0,116.0,126.0,128.0,33.0,-107.0,-63.0,-128.0,127.0,127.0,-5.0,-5.0,-50.0
126.0,128.0,228.0,127.0,127.0,116.0,126.0,128.0,33.0,-107.0,-63.0,-128.0,127.0,127.0,-5.0,-5.0,-50.0
126.0,128.0,229.0,127.0,127.0,116.0,126.0,128.0,33.0,-107.0,-63.0,-128.0,127.0,127.0,-5.0,-5.0,-50.0
126.0,128.0,224.0,127.0,127.0,115.0,125.0,128.0,33.0,-107.0,-63.0,-128.0,127.0,127.0,-5.0,-5.0,-50.0
126.0,128.0,224.0,127.0,127.0,115.0,126.0,128.0,33.0,-107.0,-63.0,-128.0,127.0,127.0,-5.0,-5.0,-50.0
126.0,128.0,225.0,127.0,127.0,115.0,126.0,128.0,33.0,-107.0,-63.0,-128.0,127.0,127.0,-5.0,-5.0,-50.0
126.0,127.0,245.0,128.0,127.0,114.0,126.0,128.0,33.0,-106.0,-63.0,-128.0,127.0,127.0,-5.0,-5.0,-50.0
126.0,127.0,245.0,128.0,127.0,114.0,125.0,128.0,33.0,-106.0,-63.0,-128.0,127.0,127.0,-5.0,-5.0,-50.0
126.0,127.0,246.0,128.0,127.0,114.0,125.0,128.0,33.0,-106.0,-63.0,-128.0,127.0,127.0,-5.0,-5.0,-50.0
126.0,127.0,246.0,128.0,127.0,114.0,126.0,128.0,33.0,-106.0,-63.0,-128.0,127.0,127.0,-5.0,-5.0,-50.0
126.0,127.0,247.0,128.0,127.0,114.0,126.0,128.0,33.0,-106.0,-63.0,-128.0,127.0,127.0,-5.0,-5.0,-50.0
126.0,127.0,248.0,128.0,127.0,113.0,126.0,128.0,33.0,-106.0,-63.0,-128.0,127.0,127.0,-5.0,-5.0,-50.0
126.0,127.0,243.0,128.0,127.0,114.0,126.0,128.0,33.0,-106.0,-63.0,-128.0,127.0,127.0,-5.0,-5.0,-50.0
126.0,127.0,244.0,128.0,127.0,114.0,126.0,128.0,33.0,-106.0,-63.0,-128.0,127.0,127.0,-5.0,-5.0,-50.0
126.0,127.0,244.0,128.0,127.0,114.0,126.0,128.0,33.0,-106.0,-63.0,-128.0,127.0,127.0,-5.0,-5.0,-50.0
126.0,127.0,245.0,128.0,127.0,114.0,126.0,128.0,33.0,-106.0,-63.0,-128.0,127.0,127.0,-5.0,-5.0,-50.0
126.0,127.0,254.0,127.0,127.0,108.0,126.0,128.0,33.0,-105.0,-64.0,-128.0,127.0,127.0,-5.0,-5.0,-50.0
126.0,127.0,254.0,127.0,127.0,108.0,126.0,128.0,33.0,-105.0,-64.0,-128.0,127.0,127.0,-5.0,-5.0,-50.0
126.0,127.0,254.0,127.0,127.0,108.0,126.0,128.0,33.0,-105.0,-64.0,-128.0,127.0,127.0,-5.0,-5.0,-50.0
126.0,127.0,254.0,127.0,127.0,108.0,126.0,128.0,33.0,-105.0,-64.0,-128.0,127.0,127.0,-5.0,-5.0,-50.0
126.0,128.0,254.0,127.0,127.0,108.0,126.0,128.0,33.0,-105.0,-64.0,-128.0,127.0,127.0,-5.0,-5.0,-50.0
126.0,127.0,254.0,128.0,127.0,109.0,126.0,128.0,33.0,-105.0,-64.0,-128.0,127.0,127.0,-5.0,-5.0,-50.0
126.0,127.0,254.0,128.0,127.0,108.0,126.0,128.0,33.0,-105.0,-64.0,-128.0,127.0,127.0,-5.0,-5.0,-50.0
126.0,127.0,254.0,128.0,127.0,108.0,126.0,128.0,33.0,-105.0,-64.0,-128.0,127.0,127.0,-5.0,-5.0,-50.0
126.0,128.0,254.0,128.0,127.0,108.0,126.0,128.0,33.0,-105.0,-64.0,-128.0,127.0,127.0,-5.0,-5.0,-50.0
126.0,128.0,254.0,127.0,127.0,108.0,126.0,128.0,33.0,-105.0,-64.0,-128.0,127.0,127.0,-5.0,-5.0,-50.0
126.0,128.0,254.0,127.0,127.0,108.0,127.0,128.0,33.0,-105.0,-64.0,-128.0,127.0,127.0,-5.0,-5.0,-50.0
126.0,128.0,254.0,126.0,127.0,108.0,127.0,128.0,33.0,-105.0,-64.0,-128.0,127.0,127.0,-5.0,-5.0,-50.0
126.0,127.0,254.0,126.0,127.0,108.0,127.0,128.0,33.0,-105.0,-64.0,-128.0,127.0,127.0,-5.0,-5.0,-50.0
126.0,127.0,254.0,126.0,127.0,108.0,127.0,128.0,33.0,-105.0,-64.0,-128.0,127.0,127.0,-5.0,-5.0,-50.0
126.0,128.0,254.0,127.0,127.0,108.0,127.0,128.0,33.0,-105.0,-64.0,-128.0,127.0,127.0,-5.0,-5.0,-50.0
126.0,128.0,254.0,127.0,127.0,108.0,127.0,128.0,33.0,-105.0,-64.0,-128.0,127.0,127.0,-5.0,-5.0,-50.0
126.0,128.0,254.0,127.0,127.0,108.0,127.0,128.0,33.0,-105.0,-64.0,-128.0,127.0,127.0,-5.0,-5.0,-50.0
126.0,128.0,254.0,127.0,127.0,108.0,127.0,128.0,33.0,-105.0,-64.0,-128.0,127.0,127.0,-5.0,-5.0,-50.0
126.0,127.0,254.0,127.0,127.0,108.0,127.0,128.0,33.0,-105.0,-64.0,-128.0,127.0,127.0,-5.0,-5.0,-50.0
126.0,127.0,254.0,126.0,127.0,108.0,127.0,128.0,33.0,-105.0,-64.0,-128.0,127.0,127.0,-5.0,-5.0,-50.0
126.0,128.0,254.0,126.0,126.0,115.0,127.0,128.0,33.0,-105.0,-64.0,-128.0,127.0,127.0,-5.0,-5.0,-50.0
126.0,127.0,254.0,126.0,126.0,115.0,127.0,128.0,33.0,-105.0,-64.0,-128.0,127.0,127.0,-5.0,-5.0,-50.0
126.0,127.0,254.0,126.0,126.0,115.0,127.0,128.0,33.0,-105.0,-64.0,-128.0,127.0,127.0,-5.0,-5.0,-50.0
126.0,128.0,254.0,126.0,127.0,114.0,127.0,128.0,33.0,-105.0,-64.0,-128.0,127.0,127.0,-5.0,-5.0,-50.0
126.0,128.0,254.0,126.0,127.0,114.0,127.0,128.0,33.0,-105.0,-64.0,-128.0,127.0,127.0,-5.0,-5.0,-50.0
126.0,128.0,254.0,126.0,126.0,114.0,127.0,128.0,33.0,-105.0,-64.0,-128.0,127.0,127.0,-5.0,-5.0,-50.0
126.0,127.0,254.0,126.0,126.0,114.0,127.0,128.0,33.0,-105.0,-64.0,-128.0,127.0,127.0,-5.0,-5.0,-50.0
126.0,128.0,254.0,126.0,126.0,114.0,127.0,128.0,33.0,-105.0,-64.0,-128.0,127.0,127.0,-5.0,-5.0,-50.0
126.0,127.0,254.0,126.0,126.0,114.0,127.0,128.0,33.0,-105.0,-64.0,-128.0,127.0,127.0,-5.0,-5.0,-50.0
126.0,128.0,254.0,126.0,126.0,114.0,127.0,128.0,33.0,-105.0,-64.0,-128.0,127.0,127.0,-5.0,-5.0,-50.0
127.0,127.0,254.0,126.0,126.0,122.0,126.0,128.0,34.0,-105.0,-64.0,-128.0,127.0,127.0,-5.0,-5.0,-50.0
126.0,127.0,254.0,126.0,126.0,122.0,126.0,128.0,34.0,-105.0,-64.0,-128.0,127.0,127.0,-5.0,-5.0,-50.0
126.0,128.0,254.0,126.0,126.0,121.0,126.0,128.0,34.0,-105.0,-64.0,-128.0,127.0,127.0,-5.0,-5.0,-50.0
126.0,128.0,254.0,126.0,126.0,121.0,126.0,128.0,34.0,-105.0,-64.0,-128.0,127.0,127.0,-5.0,-5.0,-50.0
126.0,128.0,254.0,126.0,126.0,122.0,126.0,128.0,34.0,-105.0,-64.0,-128.0,127.0,127.0,-5.0,-5.0,-50.0
126.0,127.0,254.0,126.0,126.0,122.0,126.0,128.0,34.0,-105.0,-64.0,-128.0,127.0,127.0,-5.0,-5.0,-50.0
126.0,127.0,254.0,126.0,126.0,122.0,126.0,128.0,34.0,-105.0,-64.0,-128.0,127.0,127.0,-5.0,-5.0,-50.0
126.0,127.0,254.0,126.0,126.0,122.0,126.0,128.0,34.0,-105.0,-64.0,-128.0,127.0,127.0,-5.0,-5.0,-50.0
126.0,127.0,254.0,126.0,126.0,122.0,126.0,128.0,34.0,-105.0,-64.0,-128.0,127.0,127.0,-5.0,-5.0,-50.0
126.0,127.0,254.0,126.0,126.0,122.0,126.0,128.0,34.0,-105.0,-64.0,-128.0,127.0,127.0,-5.0,-5.0,-50.0
127.0,127.0,243.0,126.0,126.0,127.0,126.0,128.0,34.0,-105.0,-64.0,-128.0,127.0,127.0,-5.0,-5.0,-50.0
127.0,127.0,245.0,126.0,127.0,127.0,126.0,128.0,34.0,-105.0,-64.0,-128.0,127.0,127.0,-5.0,-5.0,-50.0
127.0,127.0,245.0,126.0,127.0,127.0,126.0,128.0,34.0,-105.0,-64.0,-128.0,127.0,127.0,-5.0,-5.0,-50.0
127.0,127.0,245.0,126.0,127.0,127.0,126.0,128.0,34.0,-105.0,-64.0,-128.0,127.0,127.0,-5.0,-5.0,-50.0
127.0,127.0,245.0,126.0,127.0,127.0,126.0,128.0,34.0,-105.0,-64.0,-128.0,127.0,127.0,-5.0,-5.0,-50.0
127.0,127.0,244.0,126.0,127.0,127.0,126.0,128.0,34.0,-105.0,-64.0,-128.0,127.0,127.0,-5.0,-5.0,-50.0
127.0,127.0,244.0,126.0,127.0,127.0,126.0,128.0,34.0,-105.0,-64.0,-128.0,127.0,127.0,-5.0,-5.0,-50.0
127.0,127.0,243.0,126.0,127.0,127.0,126.0,128.0,34.0,-105.0,-64.0,-128.0,127.0,127.0,-5.0,-5.0,-50.0
127.0,127.0,243.0,126.0,127.0,127.0,126.0,128.0,34.0,-105.0,-64.0,-128.0,127.0,127.0,-5.0,-5.0,-50.0
127.0,127.0,243.0,126.0,127.0,127.0,126.0,128.0,34.0,-105.0,-64.0,-128.0,127.0,127.0,-5.0,-5.0,-50.0
127.0,128.0,254.0,127.0,126.0,127.0,126.0,128.0,34.0,-104.0,-65.0,-128.0,127.0,127.0,-5.0,-5.0,-50.0
127.0,128.0,254.0,127.0,126.0,127.0,126.0,128.0,34.0,-104.0,-65.0,-128.0,127.0,127.0,-5.0,-5.0,-50.0
127.0,128.0,254.0,127.0,126.0,127.0,126.0,128.0,34.0,-104.0,-65.0,-128.0,127.0,127.0,-5.0,-5.0,-50.0
127.0,127.0,254.0,127.0,126.0,127.0,126.0,128.0,34.0,-104.0,-65.0,-128.0,127.0,127.0,-5.0,-5.0,-50.0
127.0,127.0,254.0,127.0,126.0,126.0,126.0,128.0,34.0,-104.0,-65.0,-128.0,127.0,127.0,-5.0,-5.0,-50.0
127.0,127.0,254.0,127.0,126.0,126.0,126.0,128.0,34.0,-104.0,-65.0,-128.0,127.0,127.0,-5.0,-5.0,-50.0
127.0,127.0,254.0,127.0,126.0,126.0,126.0,128.0,34.0,-104.0,-65.0,-128.0,127.0,127.0,-5.0,-5.0,-50.0
127.0,128.0,254.0,127.0,126.0,127.0,126.0,128.0,34.0,-104.0,-65.0,-128.0,127.0,127.0,-5.0,-5.0,-50.0
127.0,128.0,254.0,127.0,126.0,127.0,126.0,128.0,34.0,-104.0,-65.0,-128.0,127.0,127.0,-5.0,-5.0,-50.0
127.0,127.0,254.0,127.0,126.0,127.0,126.0,128.0,34.0,-104.0,-65.0,-128.0,127.0,127.0,-5.0,-5.0,-50.0
127.0,128.0,254.0,128.0,127.0,126.0,126.0,128.0,34.0,-102.0,-65.0,-128.0,127.0,127.0,-5.0,-5.0,-50.0
127.0,128.0,254.0,128.0,127.0,126.0,126.0,128.0,34.0,-102.0,-65.0,-128.0,127.0,127.0,-5.0,-5.0,-50.0
127.0,128.0,254.0,129.0,127.0,126.0,126.0,128.0,34.0,-102.0,-65.0,-128.0,127.0,127.0,-5.0,-5.0,-50.0
127.0,128.0,254.0,129.0,127.0,126.0,126.0,128.0,34.0,-102.0,-65.0,-128.0,127.0,127.0,-5.0,-5.0,-50.0
127.0,128.0,254.0,129.0,127.0,126.0,126.0,128.0,34.0,-102.0,-65.0,-128.0,127.0,127.0,-5.0,-5.0,-50.0
127.0,128.0,254.0,129.0,127.0,126.0,127.0,128.0,34.0,-102.0,-65.0,-128.0,127.0,127.0,-5.0,-5.0,-50.0
127.0,128.0,254.0,129.0,127.0,126.0,126.0,128.0,34.0,-102.0,-65.0,-128.0,127.0,127.0,-5.0,-5.0,-50.0
127.0,127.0,254.0,129.0,127.0,126.0,126.0,128.0,34.0,-102.0,-65.0,-128.0,127.0,127.0,-5.0,-5.0,-50.0
127.0,127.0,254.0,129.0,127.0,125.0,127.0,128.0,34.0,-102.0,-65.0,-128.0,127.0,127.0,-5.0,-5.0,-50.0
127.0,128.0,254.0,128.0,127.0,126.0,126.0,128.0,34.0,-102.0,-65.0,-128.0,127.0,127.0,-5.0,-5.0,-50.0
127.0,128.0,254.0,127.0,127.0,122.0,127.0,128.0,34.0,-102.0,-66.0,-128.0,127.0,127.0,-5.0,-5.0,-50.0
127.0,128.0,254.0,127.0,127.0,122.0,127.0,128.0,34.0,-102.0,-66.0,-128.0,127.0,127.0,-5.0,-5.0,-50.0
127.0,128.0,254.0,127.0,127.0,122.0,127.0,128.0,34.0,-102.0,-66.0,-128.0,127.0,127.0,-5.0,-5.0,-50.0
127.0,128.0,254.0,126.0,127.0,122.0,127.0,128.0,34.0,-102.0,-66.0,-128.0,127.0,127.0,-5.0,-5.0,-50.0
127.0,128.0,254.0,126.0,127.0,122.0,127.0,128.0,34.0,-102.0,-66.0,-128.0,127.0,127.0,-5.0,-5.0,-50.0
127.0,127.0,254.0,126.0,127.0,122.0,127.0,128.0,34.0,-102.0,-66.0,-128.0,127.0,127.0,-5.0,-5.0,-50.0
127.0,127.0,254.0,126.0,127.0,122.0,127.0,128.0,34.0,-102.0,-66.0,-128.0,127.0,127.0,-5.0,-5.0,-50.0
127.0,127.0,254.0,126.0,127.0,122.0,127.0,128.0,34.0,-102.0,-66.0,-128.0,127.0,127.0,-5.0,-5.0,-50.0
127.0,128.0,254.0,127.0,127.0,122.0,127.0,128.0,34.0,-102.0,-66.0,-128.0,127.0,127.0,-5.0,-5.0,-50.0
127.0,128.0,254.0,127.0,127.0,122.0,127.0,128.0,34.0,-102.0,-66.0,-128.0,127.0,127.0,-5.0,-5.0,-50.0
126.0,127.0,254.0,126.0,126.0,120.0,127.0,128.0,34.0,-102.0,-66.0,-128.0,127.0,127.0,-5.0,-5.0,-50.0
126.0,127.0,254.0,126.0,126.0,120.0,127.0,128.0,34.0,-102.0,-66.0,-128.0,127.0,127.0,-5.0,-5.0,-50.0
126.0,127.0,254.0,126.0,127.0,120.0,127.0,128.0,34.0,-102.0,-66.0,-128.0,127.0,127.0,-5.0,-5.0,-50.0
126.0,127.0,254.0,126.0,127.0,120.0,127.0,128.0,34.0,-102.0,-66.0,-128.0,127.0,127.0,-5.0,-5.0,-50.0
126.0,127.0,254.0,126.0,127.0,120.0,127.0,128.0,34.0,-102.0,-66.0,-128.0,127.0,127.0,-5.0,-5.0,-50.0
126.0,127.0,254.0,126.0,127.0,120.0,127.0,128.0,34.0,-102.0,-66.0,-128.0,127.0,127.0,-5.0,-5.0,-50.0
126.0,127.0,254.0,126.0,127.0,120.0,127.0,128.0,34.0,-102.0,-66.0,-128.0,127.0,127.0,-5.0,-5.0,-50.0
126.0,127.0,254.0,126.0,127.0,120.0,127.0,128.0,34.0,-102.0,-66.0,-128.0,127.0,127.0,-5.0,-5.0,-50.0
126.0,127.0,254.0,126.0,127.0,120.0,127.0,128.0,34.0,-102.0,-66.0,-128.0,127.0,127.0,-5.0,-5.0,-50.0
126.0,127.0,254.0,126.0,127.0,120.0,127.0,128.0,34.0,-102.0,-66.0,-128.0,127.0,127.0,-5.0,-5.0,-50.0
127.0,127.0,239.0,127.0,127.0,120.0,126.0,128.0,34.0,-102.0,-65.0,-128.0,127.0,127.0,-5.0,-5.0,-50.0
127.0,127.0,237.0,127.0,127.0,120.0,126.0,128.0,34.0,-102.0,-65.0,-128.0,127.0,127.0,-5.0,-5.0,-50.0
127.0,127.0,235.0,127.0,126.0,120.0,126.0,128.0,34.0,-102.0,-65.0,-128.0,127.0,127.0,-5.0,-5.0,-50.0
126.0,127.0,234.0,127.0,126.0,120.0,126.0,128.0,34.0,-102.0,-65.0,-128.0,127.0,127.0,-5.0,-5.0,-50.0
126.0,127.0,232.0,127.0,126.0,120.0,126.0,128.0,34.0,-102.0,-65.0,-128.0,127.0,127.0,-5.0,-5.0,-50.0
127.0,127.0,230.0,127.0,127.0,120.0,126.0,128.0,34.0,-102.0,-65.0,-128.0,127.0,127.0,-5.0,-5.0,-50.0
127.0,127.0,245.0,128.0,127.0,120.0,126.0,128.0,34.0,-102.0,-65.0,-128.0,127.0,127.0,-5.0,-5.0,-50.0
127.0,127.0,243.0,127.0,127.0,120.0,126.0,128.0,34.0,-102.0,-65.0,-128.0,127.0,127.0,-5.0,-5.0,-50.0
127.0,127.0,242.0,127.0,127.0,120.0,126.0,128.0,34.0,-102.0,-65.0,-128.0,127.0,127.0,-5.0,-5.0,-50.0
126.0,127.0,240.0,127.0,127.0,120.0,126.0,128.0,34.0,-102.0,-65.0,-128.0,127.0,127.0,-5.0,-5.0,-50.0
127.0,127.0,158.0,127.0,127.0,121.0,126.0,128.0,34.0,-103.0,-65.0,-128.0,127.0,127.0,-5.0,-5.0,-50.0
127.0,127.0,157.0,127.0,127.0,121.0,126.0,128.0,34.0,-103.0,-65.0,-128.0,127.0,127.0,-5.0,-5.0,-50.0
127.0,127.0,157.0,127.0,127.0,121.0,126.0,128.0,34.0,-103.0,-65.0,-128.0,127.0,127.0,-5.0,-5.0,-50.0
127.0,127.0,156.0,127.0,127.0,121.0,126.0,128.0,34.0,-103.0,-65.0,-128.0,127.0,127.0,-5.0,-5.0,-50.0
127.0,127.0,155.0,127.0,127.0,121.0,126.0,128.0,34.0,-103.0,-65.0,-128.0,127.0,127.0,-5.0,-5.0,-50.0
127.0,127.0,162.0,127.0,127.0,121.0,126.0,128.0,34.0,-103.0,-65.0,-128.0,127.0,127.0,-5.0,-5.0,-50.0
127.0,127.0,161.0,127.0,127.0,121.0,126.0,128.0,34.0,-103.0,-65.0,-128.0,127.0,127.0,-5.0,-5.0,-50.0
127.0,128.0,160.0,127.0,127.0,121.0,126.0,128.0,34.0,-103.0,-65.0,-128.0,127.0,127.0,-5.0,-5.0,-50.0
127.0,127.0,159.0,127.0,127.0,121.0,126.0,128.0,34.0,-103.0,-65.0,-128.0,127.0,127.0,-5.0,-5.0,-50.0
127.0,128.0,159.0,127.0,127.0,121.0,126.0,128.0,34.0,-103.0,-65.0,-128.0,127.0,127.0,-5.0,-5.0,-50.0
127.0,128.0,115.0,129.0,127.0,124.0,127.0,128.0,35.0,-102.0,-65.0,-128.0,127.0,127.0,-5.0,-5.0,-50.0
127.0,128.0,115.0,129.0,127.0,124.0,127.0,128.0,35.0,-102.0,-65.0,-128.0,127.0,127.0,-5.0,-5.0,-50.0
127.0,128.0,115.0,129.0,127.0,124.0,127.0,128.0,35.0,-102.0,-65.0,-128.0,127.0,127.0,-5.0,-5.0,-50.0
127.0,128.0,114.0,129.0,127.0,124.0,127.0,128.0,35.0,-102.0,-65.0,-128.0,127.0,127.0,-5.0,-5.0,-50.0
127.0,128.0,119.0,126.0,127.0,123.0,127.0,128.0,35.0,-102.0,-65.0,-128.0,127.0,127.0,-5.0,-5.0,-50.0
127.0,128.0,119.0,126.0,127.0,123.0,127.0,128.0,35.0,-102.0,-65.0,-128.0,127.0,127.0,-5.0,-5.0,-50.0
127.0,128.0,118.0,127.0,127.0,123.0,127.0,128.0,35.0,-102.0,-65.0,-128.0,127.0,127.0,-5.0,-5.0,-50.0
127.0,128.0,118.0,127.0,127.0,123.0,127.0,128.0,35.0,-102.0,-65.0,-128.0,127.0,127.0,-5.0,-5.0,-50.0
127.0,128.0,116.0,128.0,127.0,123.0,127.0,128.0,35.0,-102.0,-65.0,-128.0,127.0,127.0,-5.0,-5.0,-50.0
127.0,128.0,116.0,128.0,127.0,124.0,127.0,128.0,35.0,-102.0,-65.0,-128.0,127.0,127.0,-5.0,-5.0,-50.0
127.0,128.0,107.0,127.0,127.0,125.0,127.0,128.0,35.0,-101.0,-65.0,-128.0,127.0,127.0,-5.0,-5.0,-50.0
127.0,128.0,107.0,127.0,127.0,125.0,126.0,128.0,35.0,-101.0,-65.0,-128.0,127.0,127.0,-5.0,-5.0,-50.0
127.0,128.0,108.0,127.0,127.0,125.0,127.0,128.0,35.0,-101.0,-65.0,-128.0,127.0,127.0,-5.0,-5.0,-50.0
127.0,128.0,103.0,128.0,127.0,125.0,127.0,128.0,35.0,-101.0,-65.0,-128.0,127.0,127.0,-5.0,-5.0,-50.0
127.0,128.0,103.0,127.0,127.0,125.0,126.0,128.0,35.0,-101.0,-65.0,-128.0,127.0,127.0,-5.0,-5.0,-50.0
127.0,128.0,104.0,127.0,127.0,125.0,127.0,128.0,35.0,-101.0,-65.0,-128.0,127.0,127.0,-5.0,-5.0,-50.0
127.0,128.0,105.0,127.0,127.0,125.0,127.0,128.0,35.0,-101.0,-65.0,-128.0,127.0,127.0,-5.0,-5.0,-50.0
127.0,128.0,105.0,127.0,127.0,125.0,127.0,128.0,35.0,-101.0,-65.0,-128.0,127.0,127.0,-5.0,-5.0,-50.0
127.0,128.0,106.0,127.0,127.0,125.0,127.0,128.0,35.0,-101.0,-65.0,-128.0,127.0,127.0,-5.0,-5.0,-50.0
127.0,128.0,107.0,127.0,127.0,125.0,127.0,128.0,35.0,-101.0,-65.0,-128.0,127.0,127.0,-5.0,-5.0,-50.0
127.0,128.0,119.0,127.0,127.0,123.0,126.0,128.0,35.0,-101.0,-66.0,-128.0,127.0,127.0,-5.0,-5.0,-50.0
127.0,128.0,119.0,127.0,127.0,123.0,126.0,128.0,35.0,-101.0,-66.0,-128.0,127.0,127.0,-5.0,-5.0,-50.0
127.0,128.0,116.0,127.0,127.0,123.0,127.0,128.0,35.0,-101.0,-66.0,-128.0,127.0,127.0,-5.0,-5.0,-50.0
127.0,128.0,116.0,127.0,127.0,123.0,127.0,128.0,35.0,-101.0,-66.0,-128.0,127.0,127.0,-5.0,-5.0,-50.0
127.0,128.0,116.0,127.0,127.0,123.0,127.0,128.0,35.0,-101.0,-66.0,-128.0,127.0,127.0,-5.0,-5.0,-50.0
127.0,128.0,117.0,127.0,127.0,123.0,127.0,128.0,35.0,-101.0,-66.0,-128.0,127.0,127.0,-5.0,-5.0,-50.0
127.0,128.0,117.0,127.0,127.0,123.0,126.0,128.0,35.0,-101.0,-66.0,-128.0,127.0,127.0,-5.0,-5.0,-50.0
127.0,128.0,118.0,127.0,127.0,123.0,126.0,128.0,35.0,-101.0,-66.0,-128.0,127.0,127.0,-5.0,-5.0,-50.0
127.0,128.0,118.0,127.0,127.0,123.0,127.0,128.0,35.0,-101.0,-66.0,-128.0,127.0,127.0,-5.0,-5.0,-50.0
127.0,128.0,118.0,127.0,127.0,123.0,126.0,128.0,35.0,-101.0,-66.0,-128.0,127.0,127.0,-5.0,-5.0,-50.0
127.0,128.0,104.0,127.0,127.0,119.0,127.0,128.0,35.0,-100.0,-66.0,-128.0,127.0,127.0,-5.0,-5.0,-50.0
127.0,127.0,103.0,127.0,127.0,119.0,127.0,128.0,35.0,-100.0,-66.0,-128.0,127.0,127.0,-5.0,-5.0,-50.0
127.0,128.0,102.0,127.0,127.0,119.0,127.0,128.0,35.0,-100.0,-66.0,-128.0,127.0,127.0,-5.0,-5.0,-50.0
127.0,128.0,101.0,128.0,127.0,119.0,127.0,128.0,35.0,-100.0,-66.0,-128.0,127.0,127.0,-5.0,-5.0,-50.0
127.0,128.0,101.0,128.0,127.0,119.0,127.0,128.0,35.0,-100.0,-66.0,-128.0,127.0,127.0,-5.0,-5.0,-50.0
127.0,128.0,100.0,128.0,127.0,119.0,127.0,128.0,35.0,-100.0,-66.0,-128.0,127.0,127.0,-5.0,-5.0,-50.0
127.0,128.0,99.0,128.0,127.0,119.0,127.0,128.0,35.0,-100.0,-66.0,-128.0,127.0,127.0,-5.0,-5.0,-50.0
127.0,128.0,99.0,128.0,127.0,119.0,127.0,128.0,35.0,-100.0,-66.0,-128.0,127.0,127.0,-5.0,-5.0,-50.0
127.0,128.0,98.0,127.0,127.0,119.0,126.0,128.0,35.0,-100.0,-66.0,-128.0,127.0,127.0,-5.0,-5.0,-50.0
127.0,128.0,97.0,128.0,127.0,119.0,127.0,128.0,35.0,-100.0,-66.0,-128.0,127.0,127.0,-5.0,-5.0,-50.0
127.0,128.0,66.0,127.0,127.0,112.0,127.0,128.0,35.0,-100.0,-66.0,-128.0,127.0,127.0,-5.0,-5.0,-50.0
127.0,128.0,65.0,127.0,128.0,112.0,127.0,128.0,35.0,-100.0,-66.0,-128.0,127.0,127.0,-5.0,-5.0,-50.0
127.0,128.0,65.0,127.0,128.0,112.0,127.0,128.0,35.0,-100.0,-66.0,-128.0,127.0,127.0,-5.0,-5.0,-50.0
127.0,128.0,64.0,127.0,128.0,112.0,127.0,128.0,35.0,-100.0,-66.0,-128.0,127.0,127.0,-5.0,-5.0,-50.0
127.0,128.0,64.0,127.0,128.0,112.0,127.0,128.0,35.0,-100.0,-66.0,-128.0,127.0,127.0,-5.0,-5.0,-50.0
127.0,128.0,64.0,127.0,127.0,112.0,127.0,128.0,35.0,-100.0,-66.0,-128.0,127.0,127.0,-5.0,-5.0,-50.0
127.0,128.0,63.0,127.0,127.0,112.0,127.0,128.0,35.0,-100.0,-66.0,-128.0,127.0,127.0,-5.0,-5.0,-50.0
127.0,128.0,63.0,127.0,127.0,112.0,127.0,128.0,35.0,-100.0,-66.0,-128.0,127.0,127.0,-5.0,-5.0,-50.0
127.0,128.0,62.0,127.0,127.0,112.0,127.0,128.0,35.0,-100.0,-66.0,-128.0,127.0,127.0,-5.0,-5.0,-50.0
127.0,128.0,66.0,127.0,128.0,112.0,127.0,128.0,35.0,-100.0,-66.0,-128.0,127.0,127.0,-5.0,-5.0,-50.0
127.0,128.0,37.0,127.0,127.0,119.0,127.0,128.0,34.0,-100.0,-66.0,-128.0,127.0,127.0,-5.0,-5.0,-50.0
127.0,128.0,37.0,127.0,127.0,119.0,127.0,128.0,34.0,-100.0,-66.0,-128.0,127.0,127.0,-5.0,-5.0,-50.0
127.0,128.0,37.0,127.0,127.0,120.0,127.0,128.0,34.0,-100.0,-66.0,-128.0,127.0,127.0,-5.0,-5.0,-50.0
127.0,128.0,37.0,127.0,127.0,120.0,127.0,128.0,34.0,-100.0,-66.0,-128.0,127.0,127.0,-5.0,-5.0,-50.0
127.0,128.0,37.0,127.0,127.0,120.0,127.0,128.0,34.0,-100.0,-66.0,-128.0,127.0,127.0,-5.0,-5.0,-50.0
127.0,128.0,36.0,126.0,127.0,120.0,127.0,128.0,34.0,-100.0,-66.0,-128.0,127.0,127.0,-5.0,-5.0,-50.0
127.0,128.0,36.0,126.0,126.0,120.0,127.0,128.0,34.0,-100.0,-66.0,-128.0,127.0,127.0,-5.0,-5.0,-50.0
127.0,128.0,36.0,126.0,127.0,121.0,127.0,128.0,34.0,-100.0,-66.0,-128.0,127.0,127.0,-5.0,-5.0,-50.0
127.0,128.0,38.0,127.0,127.0,118.0,127.0,128.0,34.0,-100.0,-66.0,-128.0,127.0,127.0,-5.0,-5.0,-50.0
127.0,128.0,38.0,127.0,127.0,119.0,127.0,128.0,34.0,-100.0,-66.0,-128.0,127.0,127.0,-5.0,-5.0,-50.0
127.0,128.0,29.0,126.0,126.0,123.0,127.0,128.0,34.0,-100.0,-67.0,-128.0,127.0,127.0,-5.0,-5.0,-50.0
127.0,128.0,29.0,126.0,126.0,123.0,127.0,128.0,34.0,-100.0,-67.0,-128.0,127.0,127.0,-5.0,-5.0,-50.0
127.0,128.0,30.0,126.0,126.0,123.0,127.0,128.0,34.0,-100.0,-67.0,-128.0,127.0,127.0,-5.0,-5.0,-50.0
127.0,128.0,30.0,126.0,126.0,123.0,127.0,128.0,34.0,-100.0,-67.0,-128.0,127.0,127.0,-5.0,-5.0,-50.0
127.0,128.0,30.0,126.0,126.0,123.0,127.0,128.0,34.0,-100.0,-67.0,-128.0,127.0,127.0,-5.0,-5.0,-50.0
127.0,127.0,30.0,126.0,126.0,123.0,127.0,128.0,34.0,-100.0,-67.0,-128.0,127.0,127.0,-5.0,-5.0,-50.0
127.0,128.0,30.0,126.0,126.0,124.0,127.0,128.0,34.0,-100.0,-67.0,-128.0,127.0,127.0,-5.0,-5.0,-50.0
127.0,128.0,30.0,126.0,126.0,123.0,127.0,128.0,34.0,-100.0,-67.0,-128.0,127.0,127.0,-5.0,-5.0,-50.0
127.0,128.0,30.0,126.0,126.0,123.0,127.0,128.0,34.0,-100.0,-67.0,-128.0,127.0,127.0,-5.0,-5.0,-50.0
127.0,128.0,30.0,126.0,126.0,123.0,127.0,128.0,34.0,-100.0,-67.0,-128.0,127.0,127.0,-5.0,-5.0,-50.0
127.0,128.0,33.0,125.0,126.0,127.0,126.0,128.0,34.0,-100.0,-67.0,-128.0,127.0,127.0,-5.0,-5.0,-50.0
127.0,128.0,33.0,125.0,126.0,127.0,126.0,128.0,34.0,-100.0,-67.0,-128.0,127.0,127.0,-5.0,-5.0,-50.0
127.0,127.0,33.0,125.0,126.0,127.0,126.0,128.0,34.0,-100.0,-67.0,-128.0,127.0,127.0,-5.0,-5.0,-50.0
127.0,127.0,34.0,125.0,126.0,127.0,126.0,128.0,34.0,-100.0,-67.0,-128.0,127.0,127.0,-5.0,-5.0,-50.0
127.0,127.0,34.0,126.0,126.0,127.0,126.0,128.0,34.0,-100.0,-67.0,-128.0,127.0,127.0,-5.0,-5.0,-50.0
127.0,127.0,34.0,126.0,126.0,127.0,126.0,128.0,34.0,-100.0,-67.0,-128.0,127.0,127.0,-5.0,-5.0,-50.0
127.0,127.0,32.0,126.0,126.0,127.0,127.0,128.0,34.0,-100.0,-67.0,-128.0,127.0,127.0,-5.0,-5.0,-50.0
127.0,127.0,32.0,126.0,126.0,127.0,127.0,128.0,34.0,-100.0,-67.0,-128.0,127.0,127.0,-5.0,-5.0,-50.0
127.0,127.0,32.0,126.0,126.0,127.0,126.0,127.0,34.0,-100.0,-67.0,-128.0,127.0,127.0,-5.0,-5.0,-50.0
127.0,128.0,32.0,126.0,126.0,127.0,126.0,128.0,34.0,-100.0,-67.0,-128.0,127.0,127.0,-5.0,-5.0,-50.0
127.0,127.0,49.0,127.0,127.0,127.0,127.0,128.0,34.0,-100.0,-67.0,-128.0,127.0,127.0,-5.0,-5.0,-50.0
127.0,127.0,50.0,127.0,127.0,127.0,127.0,128.0,34.0,-100.0,-67.0,-128.0,127.0,127.0,-5.0,-5.0,-50.0
127.0,127.0,50.0,127.0,127.0,127.0,127.0,128.0,34.0,-100.0,-67.0,-128.0,127.0,127.0,-5.0,-5.0,-50.0
127.0,127.0,51.0,127.0,127.0,127.0,127.0,128.0,34.0,-100.0,-67.0,-128.0,127.0,127.0,-5.0,-5.0,-50.0
127.0,127.0,52.0,127.0,127.0,126.0,127.0,128.0,34.0,-100.0,-67.0,-128.0,127.0,127.0,-5.0,-5.0,-50.0
127.0,128.0,47.0,127.0,127.0,127.0,127.0,128.0,34.0,-100.0,-67.0,-128.0,127.0,127.0,-5.0,-5.0,-50.0
127.0,128.0,47.0,127.0,127.0,127.0,127.0,128.0,34.0,-100.0,-67.0,-128.0,127.0,127.0,-5.0,-5.0,-50.0
127.0,128.0,48.0,127.0,127.0,127.0,127.0,128.0,34.0,-100.0,-67.0,-128.0,127.0,127.0,-5.0,-5.0,-50.0
127.0,127.0,48.0,127.0,127.0,127.0,127.0,128.0,34.0,-100.0,-67.0,-128.0,127.0,127.0,-5.0,-5.0,-50.0
127.0,127.0,49.0,127.0,127.0,127.0,127.0,128.0,34.0,-100.0,-67.0,-128.0,127.0,127.0,-5.0,-5.0,-50.0
127.0,128.0,73.0,130.0,127.0,128.0,127.0,128.0,34.0,-99.0,-68.0,-128.0,127.0,127.0,-5.0,-5.0,-50.0
127.0,128.0,74.0,130.0,127.0,128.0,127.0,128.0,34.0,-99.0,-68.0,-128.0,127.0,127.0,-5.0,-5.0,-50.0
127.0,127.0,74.0,130.0,127.0,128.0,127.0,128.0,34.0,-99.0,-68.0,-128.0,127.0,127.0,-5.0,-5.0,-50.0
127.0,127.0,75.0,130.0,127.0,128.0,127.0,128.0,34.0,-99.0,-68.0,-128.0,127.0,127.0,-5.0,-5.0,-50.0
127.0,128.0,70.0,130.0,127.0,128.0,127.0,128.0,34.0,-99.0,-68.0,-128.0,127.0,127.0,-5.0,-5.0,-50.0
127.0,128.0,71.0,130.0,127.0,128.0,127.0,128.0,34.0,-99.0,-68.0,-128.0,127.0,127.0,-5.0,-5.0,-50.0
127.0,128.0,72.0,130.0,127.0,127.0,127.0,128.0,34.0,-99.0,-68.0,-128.0,127.0,127.0,-5.0,-5.0,-50.0
127.0,128.0,72.0,130.0,127.0,127.0,127.0,128.0,34.0,-99.0,-68.0,-128.0,127.0,127.0,-5.0,-5.0,-50.0
127.0,128.0,73.0,130.0,127.0,127.0,127.0,128.0,34.0,-99.0,-68.0,-128.0,127.0,127.0,-5.0,-5.0,-50.0
127.0,127.0,73.0,130.0,127.0,127.0,127.0,128.0,34.0,-99.0,-68.0,-128.0,127.0,127.0,-5.0,-5.0,-50.0
127.0,128.0,84.0,132.0,129.0,128.0,127.0,127.0,34.0,-99.0,-68.0,-128.0,127.0,127.0,-5.0,-5.0,-50.0
127.0,128.0,84.0,132.0,129.0,128.0,127.0,127.0,34.0,-99.0,-68.0,-128.0,127.0,127.0,-5.0,-5.0,-50.0
127.0,128.0,84.0,132.0,128.0,128.0,127.0,127.0,34.0,-99.0,-68.0,-128.0,127.0,127.0,-5.0,-5.0,-50.0
127.0,128.0,83.0,132.0,128.0,128.0,127.0,128.0,34.0,-99.0,-68.0,-128.0,127.0,127.0,-5.0,-5.0,-50.0
127.0,128.0,83.0,132.0,128.0,128.0,127.0,128.0,34.0,-99.0,-68.0,-128.0,127.0,127.0,-5.0,-5.0,-50.0
127.0,127.0,83.0,132.0,128.0,128.0,127.0,128.0,34.0,-99.0,-68.0,-128.0,127.0,127.0,-5.0,-5.0,-50.0
127.0,127.0,84.0,132.0,128.0,128.0,127.0,128.0,34.0,-99.0,-68.0,-128.0,127.0,127.0,-5.0,-5.0,-50.0
127.0,127.0,84.0,132.0,128.0,128.0,127.0,127.0,34.0,-99.0,-68.0,-128.0,127.0,127.0,-5.0,-5.0,-50.0
127.0,128.0,84.0,132.0,128.0,128.0,127.0,127.0,34.0,-99.0,-68.0,-128.0,127.0,127.0,-5.0,-5.0,-50.0
127.0,128.0,84.0,132.0,128.0,128.0,127.0,127.0,34.0,-99.0,-68.0,-128.0,127.0,127.0,-5.0,-5.0,-50.0
127.0,127.0,77.0,129.0,128.0,128.0,127.0,127.0,33.0,-98.0,-68.0,-128.0,127.0,127.0,-5.0,-5.0,-50.0
127.0,127.0,77.0,129.0,128.0,128.0,127.0,127.0,33.0,-98.0,-68.0,-128.0,127.0,127.0,-5.0,-5.0,-50.0
127.0,128.0,77.0,130.0,128.0,128.0,127.0,127.0,33.0,-98.0,-68.0,-128.0,127.0,127.0,-5.0,-5.0,-50.0
127.0,128.0,77.0,130.0,128.0,128.0,127.0,127.0,33.0,-98.0,-68.0,-128.0,127.0,127.0,-5.0,-5.0,-50.0
127.0,128.0,77.0,130.0,128.0,128.0,127.0,127.0,33.0,-98.0,-68.0,-128.0,127.0,127.0,-5.0,-5.0,-50.0
127.0,128.0,77.0,130.0,128.0,129.0,127.0,127.0,33.0,-98.0,-68.0,-128.0,127.0,127.0,-5.0,-5.0,-50.0
127.0,128.0,77.0,130.0,128.0,129.0,127.0,127.0,33.0,-98.0,-68.0,-128.0,127.0,127.0,-5.0,-5.0,-50.0
127.0,128.0,77.0,130.0,128.0,129.0,127.0,127.0,33.0,-98.0,-68.0,-128.0,127.0,127.0,-5.0,-5.0,-50.0
127.0,127.0,77.0,129.0,128.0,128.0,127.0,127.0,33.0,-98.0,-68.0,-128.0,127.0,127.0,-5.0,-5.0,-50.0
127.0,127.0,77.0,129.0,128.0,128.0,127.0,127.0,33.0,-98.0,-68.0,-128.0,127.0,127.0,-5.0,-5.0,-50.0
126.0,127.0,77.0,127.0,126.0,129.0,126.0,127.0,33.0,-98.0,-68.0,-128.0,127.0,127.0,-5.0,-5.0,-50.0
127.0,128.0,75.0,127.0,126.0,128.0,126.0,127.0,33.0,-98.0,-68.0,-128.0,127.0,127.0,-5.0,-5.0,-50.0
127.0,128.0,75.0,127.0,126.0,128.0,126.0,127.0,33.0,-98.0,-68.0,-128.0,127.0,127.0,-5.0,-5.0,-50.0
127.0,128.0,75.0,127.0,126.0,128.0,126.0,127.0,33.0,-98.0,-68.0,-128.0,127.0,127.0,-5.0,-5.0,-50.0
127.0,127.0,76.0,127.0,126.0,128.0,126.0,127.0,33.0,-98.0,-68.0,-128.0,127.0,127.0,-5.0,-5.0,-50.0
127.0,127.0,76.0,127.0,126.0,128.0,126.0,127.0,33.0,-98.0,-68.0,-128.0,127.0,127.0,-5.0,-5.0,-50.0
126.0,127.0,76.0,127.0,126.0,128.0,126.0,127.0,33.0,-98.0,-68.0,-128.0,127.0,127.0,-5.0,-5.0,-50.0
126.0,127.0,76.0,127.0,126.0,128.0,126.0,127.0,33.0,-98.0,-68.0,-128.0,127.0,127.0,-5.0,-5.0,-50.0
126.0,127.0,76.0,127.0,126.0,129.0,126.0,127.0,33.0,-98.0,-68.0,-128.0,127.0,127.0,-5.0,-5.0,-50.0
126.0,127.0,76.0,127.0,126.0,129.0,126.0,127.0,33.0,-98.0,-68.0,-128.0,127.0,127.0,-5.0,-5.0,-50.0
127.0,127.0,79.0,125.0,125.0,132.0,125.0,127.0,33.0,-99.0,-69.0,-128.0,127.0,127.0,-5.0,-5.0,-50.0
127.0,127.0,79.0,125.0,125.0,132.0,125.0,127.0,33.0,-99.0,-69.0,-128.0,127.0,127.0,-5.0,-5.0,-50.0
127.0,127.0,79.0,125.0,125.0,132.0,125.0,127.0,33.0,-99.0,-69.0,-128.0,127.0,127.0,-5.0,-5.0,-50.0
127.0,127.0,80.0,125.0,125.0,132.0,125.0,127.0,33.0,-99.0,-69.0,-128.0,127.0,127.0,-5.0,-5.0,-50.0
127.0,127.0,80.0,125.0,125.0,133.0,125.0,127.0,33.0,-99.0,-69.0,-128.0,127.0,127.0,-5.0,-5.0,-50.0
127.0,127.0,80.0,125.0,125.0,133.0,126.0,127.0,33.0,-99.0,-69.0,-128.0,127.0,127.0,-5.0,-5.0,-50.0
127.0,127.0,80.0,125.0,125.0,133.0,125.0,127.0,33.0,-99.0,-69.0,-128.0,127.0,127.0,-5.0,-5.0,-50.0
127.0,127.0,80.0,125.0,125.0,133.0,125.0,127.0,33.0,-99.0,-69.0,-128.0,127.0,127.0,-5.0,-5.0,-50.0
127.0,127.0,80.0,125.0,125.0,133.0,125.0,127.0,33.0,-99.0,-69.0,-128.0,127.0,127.0,-5.0,-5.0,-50.0
127.0,127.0,81.0,125.0,125.0,133.0,125.0,127.0,33.0,-99.0,-69.0,-128.0,127.0,127.0,-5.0,-5.0,-50.0
127.0,128.0,83.0,126.0,125.0,138.0,126.0,128.0,32.0,-99.0,-69.0,-128.0,127.0,127.0,-5.0,-5.0,-50.0
127.0,128.0,84.0,126.0,125.0,138.0,126.0,128.0,32.0,-99.0,-69.0,-128.0,127.0,127.0,-5.0,-5.0,-50.0
127.0,128.0,84.0,126.0,125.0,138.0,126.0,128.0,32.0,-99.0,-69.0,-128.0,127.0,127.0,-5.0,-5.0,-50.0
127.0,128.0,84.0,126.0,125.0,138.0,126.0,128.0,32.0,-99.0,-69.0,-128.0,127.0,127.0,-5.0,-5.0,-50.0
127.0,127.0,84.0,126.0,125.0,138.0,127.0,128.0,32.0,-99.0,-69.0,-128.0,127.0,127.0,-5.0,-5.0,-50.0
127.0,128.0,85.0,126.0,125.0,138.0,126.0,128.0,32.0,-99.0,-69.0,-128.0,127.0,127.0,-5.0,-5.0,-50.0
127.0,128.0,84.0,126.0,125.0,138.0,126.0,128.0,32.0,-99.0,-69.0,-128.0,127.0,127.0,-5.0,-5.0,-50.0
127.0,128.0,85.0,126.0,125.0,138.0,126.0,128.0,32.0,-99.0,-69.0,-128.0,127.0,127.0,-5.0,-5.0,-50.0
127.0,128.0,85.0,126.0,125.0,138.0,126.0,128.0,32.0,-99.0,-69.0,-128.0,127.0,127.0,-5.0,-5.0,-50.0
127.0,128.0,83.0,126.0,125.0,137.0,126.0,128.0,32.0,-99.0,-69.0,-128.0,127.0,127.0,-5.0,-5.0,-50.0
127.0,128.0,93.0,127.0,126.0,139.0,127.0,127.0,32.0,-98.0,-70.0,-128.0,127.0,127.0,-5.0,-5.0,-50.0
127.0,128.0,93.0,127.0,126.0,139.0,127.0,127.0,32.0,-98.0,-70.0,-128.0,127.0,127.0,-5.0,-5.0,-50.0
127.0,128.0,93.0,127.0,126.0,139.0,127.0,127.0,32.0,-98.0,-70.0,-128.0,127.0,127.0,-5.0,-5.0,-50.0
127.0,128.0,93.0,128.0,126.0,139.0,127.0,128.0,32.0,-98.0,-70.0,-128.0,127.0,127.0,-5.0,-5.0,-50.0
127.0,128.0,93.0,128.0,126.0,139.0,127.0,127.0,32.0,-98.0,-70.0,-128.0,127.0,127.0,-5.0,-5.0,-50.0
127.0,128.0,94.0,128.0,126.0,139.0,127.0,128.0,32.0,-98.0,-70.0,-128.0,127.0,127.0,-5.0,-5.0,-50.0
127.0,128.0,94.0,128.0,126.0,139.0,127.0,127.0,32.0,-98.0,-70.0,-128.0,127.0,127.0,-5.0,-5.0,-50.0
127.0,128.0,94.0,128.0,126.0,139.0,127.0,127.0,32.0,-98.0,-70.0,-128.0,127.0,127.0,-5.0,-5.0,-50.0
127.0,128.0,92.0,127.0,126.0,139.0,127.0,128.0,32.0,-98.0,-70.0,-128.0,127.0,127.0,-5.0,-5.0,-50.0
127.0,128.0,92.0,127.0,126.0,139.0,127.0,128.0,32.0,-98.0,-70.0,-128.0,127.0,127.0,-5.0,-5.0,-50.0
128.0,128.0,97.0,130.0,128.0,139.0,128.0,128.0,31.0,-98.0,-70.0,-128.0,127.0,127.0,-5.0,-5.0,-50.0
127.0,128.0,96.0,130.0,128.0,139.0,128.0,128.0,31.0,-98.0,-70.0,-128.0,127.0,127.0,-5.0,-5.0,-50.0
128.0,128.0,97.0,130.0,128.0,139.0,128.0,128.0,31.0,-98.0,-70.0,-128.0,127.0,127.0,-5.0,-5.0,-50.0
128.0,128.0,97.0,130.0,128.0,139.0,128.0,128.0,31.0,-98.0,-70.0,-128.0,127.0,127.0,-5.0,-5.0,-50.0
128.0,128.0,97.0,129.0,128.0,139.0,128.0,128.0,31.0,-98.0,-70.0,-128.0,127.0,127.0,-5.0,-5.0,-50.0
128.0,127.0,97.0,129.0,128.0,138.0,128.0,128.0,31.0,-98.0,-70.0,-128.0,127.0,127.0,-5.0,-5.0,-50.0
128.0,127.0,97.0,129.0,128.0,138.0,128.0,128.0,31.0,-98.0,-70.0,-128.0,127.0,127.0,-5.0,-5.0,-50.0
128.0,128.0,96.0,130.0,128.0,139.0,128.0,128.0,31.0,-98.0,-70.0,-128.0,127.0,127.0,-5.0,-5.0,-50.0
127.0,128.0,96.0,130.0,128.0,139.0,128.0,128.0,31.0,-98.0,-70.0,-128.0,127.0,127.0,-5.0,-5.0,-50.0
127.0,128.0,96.0,130.0,128.0,139.0,128.0,128.0,31.0,-98.0,-70.0,-128.0,127.0,127.0,-5.0,-5.0,-50.0
127.0,127.0,96.0,128.0,128.0,136.0,127.0,127.0,31.0,-97.0,-70.0,127.0,127.0,127.0,-5.0,-5.0,-50.0
127.0,127.0,96.0,128.0,128.0,136.0,127.0,127.0,31.0,-97.0,-70.0,127.0,127.0,127.0,-5.0,-5.0,-50.0
127.0,127.0,96.0,128.0,128.0,136.0,128.0,127.0,31.0,-97.0,-70.0,127.0,127.0,127.0,-5.0,-5.0,-50.0
127.0,127.0,97.0,127.0,128.0,135.0,127.0,127.0,31.0,-97.0,-70.0,127.0,127.0,127.0,-5.0,-5.0,-50.0
127.0,127.0,97.0,127.0,128.0,135.0,127.0,127.0,31.0,-97.0,-70.0,127.0,127.0,127.0,-5.0,-5.0,-50.0
127.0,127.0,97.0,127.0,128.0,135.0,127.0,127.0,31.0,-97.0,-70.0,127.0,127.0,127.0,-5.0,-5.0,-50.0
127.0,127.0,96.0,129.0,128.0,136.0,128.0,127.0,31.0,-97.0,-70.0,127.0,127.0,127.0,-5.0,-5.0,-50.0
127.0,128.0,96.0,128.0,128.0,136.0,127.0,127.0,31.0,-97.0,-70.0,127.0,127.0,127.0,-5.0,-5.0,-50.0
127.0,127.0,96.0,128.0,128.0,136.0,127.0,128.0,31.0,-97.0,-70.0,127.0,127.0,127.0,-5.0,-5.0,-50.0
127.0,127.0,96.0,128.0,128.0,136.0,128.0,128.0,31.0,-97.0,-70.0,127.0,127.0,127.0,-5.0,-5.0,-50.0
127.0,127.0,96.0,125.0,127.0,133.0,126.0,128.0,31.0,-98.0,-70.0,127.0,127.0,127.0,-5.0,-5.0,-50.0
127.0,127.0,96.0,125.0,127.0,133.0,126.0,128.0,31.0,-98.0,-70.0,127.0,127.0,127.0,-5.0,-5.0,-50.0
127.0,127.0,96.0,125.0,127.0,133.0,126.0,128.0,31.0,-98.0,-70.0,127.0,127.0,127.0,-5.0,-5.0,-50.0
127.0,127.0,97.0,125.0,127.0,133.0,126.0,127.0,31.0,-98.0,-70.0,127.0,127.0,127.0,-5.0,-5.0,-50.0
127.0,127.0,97.0,124.0,127.0,133.0,126.0,127.0,31.0,-98.0,-70.0,127.0,127.0,127.0,-5.0,-5.0,-50.0
127.0,128.0,95.0,125.0,127.0,134.0,126.0,128.0,31.0,-98.0,-70.0,127.0,127.0,127.0,-5.0,-5.0,-50.0
127.0,127.0,96.0,125.0,127.0,134.0,126.0,128.0,31.0,-98.0,-70.0,127.0,127.0,127.0,-5.0,-5.0,-50.0
127.0,127.0,96.0,125.0,127.0,133.0,126.0,128.0,31.0,-98.0,-70.0,127.0,127.0,127.0,-5.0,-5.0,-50.0
127.0,127.0,96.0,125.0,127.0,133.0,126.0,128.0,31.0,-98.0,-70.0,127.0,127.0,127.0,-5.0,-5.0,-50.0
127.0,127.0,96.0,125.0,127.0,133.0,126.0,127.0,31.0,-98.0,-70.0,127.0,127.0,127.0,-5.0,-5.0,-50.0
127.0,127.0,99.0,126.0,126.0,133.0,126.0,127.0,30.0,-98.0,-70.0,-128.0,127.0,127.0,-5.0,-5.0,-50.0
127.0,127.0,99.0,126.0,126.0,133.0,126.0,127.0,30.0,-98.0,-70.0,-128.0,127.0,127.0,-5.0,-5.0,-50.0
127.0,127.0,100.0,126.0,126.0,133.0,126.0,127.0,30.0,-98.0,-70.0,-128.0,127.0,127.0,-5.0,-5.0,-50.0
127.0,127.0,98.0,126.0,126.0,133.0,126.0,127.0,30.0,-98.0,-70.0,-128.0,127.0,127.0,-5.0,-5.0,-50.0
127.0,127.0,98.0,126.0,126.0,133.0,126.0,127.0,30.0,-98.0,-70.0,-128.0,127.0,127.0,-5.0,-5.0,-50.0
127.0,127.0,99.0,126.0,126.0,133.0,126.0,127.0,30.0,-98.0,-70.0,-128.0,127.0,127.0,-5.0,-5.0,-50.0
127.0,127.0,99.0,126.0,126.0,133.0,126.0,127.0,30.0,-98.0,-70.0,-128.0,127.0,127.0,-5.0,-5.0,-50.0
127.0,127.0,99.0,126.0,126.0,133.0,126.0,127.0,30.0,-98.0,-70.0,-128.0,127.0,127.0,-5.0,-5.0,-50.0
127.0,127.0,99.0,126.0,126.0,133.0,126.0,127.0,30.0,-98.0,-70.0,-128.0,127.0,127.0,-5.0,-5.0,-50.0
127.0,127.0,99.0,126.0,126.0,133.0,126.0,127.0,30.0,-98.0,-70.0,-128.0,127.0,127.0,-5.0,-5.0,-50.0
127.0,127.0,106.0,127.0,125.0,134.0,127.0,128.0,30.0,-98.0,-70.0,-128.0,127.0,127.0,-5.0,-5.0,-50.0
127.0,127.0,106.0,127.0,125.0,134.0,127.0,128.0,30.0,-98.0,-70.0,-128.0,127.0,127.0,-5.0,-5.0,-50.0
127.0,128.0,104.0,127.0,126.0,135.0,127.0,128.0,30.0,-98.0,-70.0,-128.0,127.0,127.0,-5.0,-5.0,-50.0
127.0,128.0,104.0,127.0,126.0,135.0,127.0,128.0,30.0,-98.0,-70.0,-128.0,127.0,127.0,-5.0,-5.0,-50.0
127.0,128.0,104.0,127.0,126.0,135.0,127.0,128.0,30.0,-98.0,-70.0,-128.0,127.0,127.0,-5.0,-5.0,-50.0
127.0,128.0,105.0,127.0,126.0,134.0,127.0,128.0,30.0,-98.0,-70.0,-128.0,127.0,127.0,-5.0,-5.0,-50.0
127.0,128.0,105.0,127.0,126.0,134.0,127.0,128.0,30.0,-98.0,-70.0,-128.0,127.0,127.0,-5.0,-5.0,-50.0
127.0,127.0,105.0,127.0,125.0,134.0,127.0,128.0,30.0,-98.0,-70.0,-128.0,127.0,127.0,-5.0,-5.0,-50.0
127.0,127.0,105.0,127.0,125.0,134.0,127.0,128.0,30.0,-98.0,-70.0,-128.0,127.0,127.0,-5.0,-5.0,-50.0
127.0,127.0,106.0,127.0,125.0,134.0,127.0,128.0,30.0,-98.0,-70.0,-128.0,127.0,127.0,-5.0,-5.0,-50.0
127.0,129.0,111.0,129.0,126.0,137.0,127.0,128.0,30.0,-98.0,-70.0,-128.0,127.0,127.0,-5.0,-5.0,-50.0
127.0,129.0,110.0,129.0,126.0,136.0,127.0,128.0,30.0,-98.0,-70.0,-128.0,127.0,127.0,-5.0,-5.0,-50.0
127.0,128.0,110.0,129.0,126.0,136.0,127.0,128.0,30.0,-98.0,-70.0,-128.0,127.0,127.0,-5.0,-5.0,-50.0
127.0,129.0,110.0,129.0,126.0,136.0,127.0,128.0,30.0,-98.0,-70.0,-128.0,127.0,127.0,-5.0,-5.0,-50.0
127.0,129.0,110.0,129.0,126.0,137.0,127.0,128.0,30.0,-98.0,-70.0,-128.0,127.0,127.0,-5.0,-5.0,-50.0
127.0,129.0,110.0,129.0,126.0,137.0,127.0,128.0,30.0,-98.0,-70.0,-128.0,127.0,127.0,-5.0,-5.0,-50.0
127.0,129.0,111.0,129.0,126.0,137.0,127.0,128.0,30.0,-98.0,-70.0,-128.0,127.0,127.0,-5.0,-5.0,-50.0
127.0,129.0,111.0,129.0,126.0,137.0,127.0,128.0,30.0,-98.0,-70.0,-128.0,127.0,127.0,-5.0,-5.0,-50.0
127.0,129.0,111.0,129.0,126.0,137.0,127.0,128.0,30.0,-98.0,-70.0,-128.0,127.0,127.0,-5.0,-5.0,-50.0
127.0,128.0,111.0,129.0,126.0,137.0,127.0,128.0,30.0,-98.0,-70.0,-128.0,127.0,127.0,-5.0,-5.0,-50.0
127.0,128.0,116.0,129.0,127.0,136.0,128.0,127.0,30.0,-98.0,-70.0,127.0,127.0,127.0,-5.0,-5.0,-50.0
127.0,128.0,116.0,129.0,127.0,137.0,128.0,127.0,30.0,-98.0,-70.0,127.0,127.0,127.0,-5.0,-5.0,-50.0
127.0,128.0,116.0,129.0,127.0,136.0,128.0,128.0,30.0,-98.0,-70.0,127.0,127.0,127.0,-5.0,-5.0,-50.0
127.0,128.0,116.0,129.0,127.0,136.0,128.0,127.0,30.0,-98.0,-70.0,127.0,127.0,127.0,-5.0,-5.0,-50.0
127.0,128.0,117.0,129.0,127.0,136.0,128.0,127.0,30.0,-98.0,-70.0,127.0,127.0,127.0,-5.0,-5.0,-50.0
127.0,128.0,117.0,129.0,127.0,136.0,128.0,127.0,30.0,-98.0,-70.0,127.0,127.0,127.0,-5.0,-5.0,-50.0
127.0,127.0,117.0,129.0,127.0,136.0,128.0,127.0,30.0,-98.0,-70.0,127.0,127.0,127.0,-5.0,-5.0,-50.0
127.0,127.0,117.0,130.0,127.0,136.0,128.0,127.0,30.0,-98.0,-70.0,127.0,127.0,127.0,-5.0,-5.0,-50.0
127.0,128.0,117.0,129.0,127.0,136.0,128.0,127.0,30.0,-98.0,-70.0,127.0,127.0,127.0,-5.0,-5.0,-50.0
127.0,128.0,116.0,130.0,127.0,137.0,127.0,127.0,30.0,-98.0,-70.0,127.0,127.0,127.0,-5.0,-5.0,-50.0
127.0,128.0,116.0,132.0,128.0,136.0,129.0,128.0,30.0,-98.0,-70.0,127.0,127.0,127.0,-5.0,-5.0,-50.0
127.0,128.0,115.0,131.0,128.0,135.0,128.0,128.0,30.0,-98.0,-70.0,127.0,127.0,127.0,-5.0,-5.0,-50.0
127.0,128.0,115.0,132.0,128.0,136.0,128.0,128.0,30.0,-98.0,-70.0,127.0,127.0,127.0,-5.0,-5.0,-50.0
127.0,128.0,115.0,132.0,128.0,136.0,128.0,128.0,30.0,-98.0,-70.0,127.0,127.0,127.0,-5.0,-5.0,-50.0
127.0,128.0,115.0,132.0,128.0,136.0,128.0,128.0,30.0,-98.0,-70.0,127.0,127.0,127.0,-5.0,-5.0,-50.0
127.0,128.0,115.0,132.0,128.0,136.0,128.0,128.0,30.0,-98.0,-70.0,127.0,127.0,127.0,-5.0,-5.0,-50.0
127.0,128.0,115.0,132.0,129.0,136.0,128.0,128.0,30.0,-98.0,-70.0,127.0,127.0,127.0,-5.0,-5.0,-50.0
127.0,128.0,115.0,132.0,129.0,136.0,128.0,128.0,30.0,-98.0,-70.0,127.0,127.0,127.0,-5.0,-5.0,-50.0
127.0,128.0,115.0,132.0,129.0,136.0,128.0,128.0,30.0,-98.0,-70.0,127.0,127.0,127.0,-5.0,-5.0,-50.0
127.0,128.0,115.0,131.0,128.0,136.0,129.0,128.0,30.0,-98.0,-70.0,127.0,127.0,127.0,-5.0,-5.0,-50.0
127.0,127.0,118.0,132.0,129.0,135.0,129.0,127.0,30.0,-98.0,-70.0,127.0,127.0,127.0,-5.0,-5.0,-50.0
127.0,127.0,118.0,132.0,129.0,135.0,129.0,127.0,30.0,-98.0,-70.0,127.0,127.0,127.0,-5.0,-5.0,-50.0
127.0,127.0,118.0,132.0,129.0,135.0,129.0,127.0,30.0,-98.0,-70.0,127.0,127.0,127.0,-5.0,-5.0,-50.0
127.0,127.0,118.0,132.0,129.0,135.0,129.0,127.0,30.0,-98.0,-70.0,127.0,127.0,127.0,-5.0,-5.0,-50.0
127.0,127.0,118.0,132.0,129.0,135.0,129.0,127.0,30.0,-98.0,-70.0,127.0,127.0,127.0,-5.0,-5.0,-50.0
127.0,127.0,118.0,132.0,129.0,135.0,129.0,127.0,30.0,-98.0,-70.0,127.0,127.0,127.0,-5.0,-5.0,-50.0
127.0,127.0,118.0,132.0,129.0,135.0,128.0,127.0,30.0,-98.0,-70.0,127.0,127.0,127.0,-5.0,-5.0,-50.0
127.0,127.0,118.0,132.0,129.0,135.0,128.0,127.0,30.0,-98.0,-70.0,127.0,127.0,127.0,-5.0,-5.0,-50.0
127.0,127.0,118.0,132.0,129.0,135.0,129.0,127.0,30.0,-98.0,-70.0,127.0,127.0,127.0,-5.0,-5.0,-50.0
127.0,127.0,118.0,132.0,129.0,135.0,129.0,127.0,30.0,-98.0,-70.0,127.0,127.0,127.0,-5.0,-5.0,-50.0
127.0,127.0,116.0,131.0,129.0,136.0,128.0,127.0,30.0,-98.0,-70.0,127.0,127.0,127.0,-5.0,-5.0,-50.0
127.0,127.0,116.0,130.0,129.0,136.0,128.0,127.0,30.0,-98.0,-70.0,127.0,127.0,127.0,-5.0,-5.0,-50.0
127.0,127.0,117.0,130.0,129.0,136.0,128.0,127.0,30.0,-98.0,-70.0,127.0,127.0,127.0,-5.0,-5.0,-50.0
127.0,126.0,117.0,130.0,129.0,136.0,128.0,127.0,30.0,-98.0,-70.0,127.0,127.0,127.0,-5.0,-5.0,-50.0
127.0,126.0,117.0,130.0,129.0,136.0,128.0,127.0,30.0,-98.0,-70.0,127.0,127.0,127.0,-5.0,-5.0,-50.0
127.0,126.0,117.0,130.0,128.0,136.0,128.0,127.0,30.0,-98.0,-70.0,127.0,127.0,127.0,-5.0,-5.0,-50.0
127.0,126.0,117.0,130.0,128.0,136.0,127.0,127.0,30.0,-98.0,-70.0,127.0,127.0,127.0,-5.0,-5.0,-50.0
126.0,128.0,115.0,131.0,129.0,137.0,127.0,127.0,30.0,-98.0,-70.0,127.0,127.0,127.0,-5.0,-5.0,-50.0
126.0,127.0,115.0,131.0,129.0,137.0,127.0,127.0,30.0,-98.0,-70.0,127.0,127.0,127.0,-5.0,-5.0,-50.0
126.0,127.0,116.0,131.0,129.0,137.0,128.0,127.0,30.0,-98.0,-70.0,127.0,127.0,127.0,-5.0,-5.0,-50.0
126.0,127.0,115.0,131.0,128.0,137.0,127.0,127.0,31.0,-99.0,-70.0,127.0,127.0,127.0,-5.0,-5.0,-50.0
126.0,127.0,115.0,131.0,128.0,137.0,127.0,127.0,31.0,-99.0,-70.0,127.0,127.0,127.0,-5.0,-5.0,-50.0
126.0,127.0,114.0,131.0,128.0,137.0,127.0,127.0,31.0,-99.0,-70.0,127.0,127.0,127.0,-5.0,-5.0,-50.0
126.0,127.0,114.0,131.0,128.0,137.0,127.0,127.0,31.0,-99.0,-70.0,127.0,127.0,127.0,-5.0,-5.0,-50.0
126.0,127.0,114.0,131.0,128.0,137.0,127.0,127.0,31.0,-99.0,-70.0,127.0,127.0,127.0,-5.0,-5.0,-50.0
126.0,127.0,114.0,131.0,128.0,137.0,127.0,127.0,31.0,-99.0,-70.0,127.0,127.0,127.0,-5.0,-5.0,-50.0
126.0,127.0,115.0,131.0,128.0,137.0,127.0,127.0,31.0,-99.0,-70.0,127.0,127.0,127.0,-5.0,-5.0,-50.0
126.0,127.0,115.0,131.0,128.0,137.0,127.0,127.0,31.0,-99.0,-70.0,127.0,127.0,127.0,-5.0,-5.0,-50.0
126.0,127.0,115.0,131.0,128.0,137.0,127.0,127.0,31.0,-99.0,-70.0,127.0,127.0,127.0,-5.0,-5.0,-50.0
126.0,127.0,115.0,131.0,128.0,137.0,127.0,127.0,31.0,-99.0,-70.0,127.0,127.0,127.0,-5.0,-5.0,-50.0
127.0,127.0,114.0,129.0,128.0,136.0,126.0,127.0,31.0,-100.0,-70.0,-128.0,127.0,127.0,-5.0,-5.0,-51.0
127.0,127.0,114.0,129.0,128.0,136.0,126.0,127.0,31.0,-100.0,-70.0,-128.0,127.0,127.0,-5.0,-5.0,-51.0
127.0,127.0,114.0,129.0,128.0,136.0,126.0,127.0,31.0,-100.0,-70.0,-128.0,127.0,127.0,-5.0,-5.0,-51.0
127.0,127.0,115.0,129.0,128.0,136.0,126.0,127.0,31.0,-100.0,-70.0,-128.0,127.0,127.0,-5.0,-5.0,-51.0
127.0,127.0,115.0,129.0,128.0,136.0,126.0,127.0,31.0,-100.0,-70.0,-128.0,127.0,127.0,-5.0,-5.0,-51.0
127.0,128.0,113.0,130.0,129.0,136.0,126.0,127.0,31.0,-100.0,-70.0,-128.0,127.0,127.0,-5.0,-5.0,-51.0
127.0,128.0,113.0,130.0,129.0,136.0,126.0,127.0,31.0,-100.0,-70.0,-128.0,127.0,127.0,-5.0,-5.0,-51.0
127.0,127.0,114.0,130.0,128.0,136.0,126.0,127.0,31.0,-100.0,-70.0,-128.0,127.0,127.0,-5.0,-5.0,-51.0
127.0,128.0,113.0,129.0,129.0,137.0,126.0,127.0,31.0,-100.0,-70.0,-128.0,127.0,127.0,-5.0,-5.0,-51.0
127.0,128.0,113.0,129.0,129.0,137.0,126.0,127.0,31.0,-100.0,-70.0,-128.0,127.0,127.0,-5.0,-5.0,-51.0
127.0,128.0,117.0,130.0,127.0,136.0,126.0,127.0,31.0,-100.0,-70.0,-128.0,127.0,127.0,-5.0,-5.0,-51.0
127.0,128.0,117.0,130.0,127.0,136.0,125.0,127.0,31.0,-100.0,-70.0,-128.0,127.0,127.0,-5.0,-5.0,-51.0
127.0,128.0,117.0,130.0,127.0,136.0,125.0,127.0,31.0,-100.0,-70.0,-128.0,127.0,127.0,-5.0,-5.0,-51.0
127.0,128.0,117.0,130.0,127.0,136.0,125.0,127.0,31.0,-100.0,-70.0,-128.0,127.0,127.0,-5.0,-5.0,-51.0
127.0,128.0,117.0,130.0,127.0,136.0,126.0,127.0,31.0,-100.0,-70.0,-128.0,127.0,127.0,-5.0,-5.0,-51.0
127.0,128.0,117.0,130.0,127.0,136.0,126.0,127.0,31.0,-100.0,-70.0,-128.0,127.0,127.0,-5.0,-5.0,-51.0
127.0,128.0,117.0,130.0,127.0,136.0,126.0,127.0,31.0,-100.0,-70.0,-128.0,127.0,127.0,-5.0,-5.0,-51.0
127.0,128.0,117.0,130.0,127.0,136.0,125.0,127.0,31.0,-100.0,-70.0,-128.0,127.0,127.0,-5.0,-5.0,-51.0
127.0,128.0,117.0,130.0,127.0,136.0,126.0,127.0,31.0,-100.0,-70.0,-128.0,127.0,127.0,-5.0,-5.0,-51.0
127.0,128.0,117.0,130.0,127.0,136.0,125.0,127.0,31.0,-100.0,-70.0,-128.0,127.0,127.0,-5.0,-5.0,-51.0
128.0,127.0,119.0,126.0,126.0,136.0,125.0,127.0,31.0,-100.0,-70.0,-128.0,127.0,127.0,-5.0,-5.0,-51.0
128.0,127.0,119.0,125.0,126.0,136.0,125.0,127.0,31.0,-100.0,-70.0,-128.0,127.0,127.0,-5.0,-5.0,-51.0
128.0,127.0,119.0,125.0,125.0,136.0,125.0,127.0,31.0,-100.0,-70.0,-128.0,127.0,127.0,-5.0,-5.0,-51.0
128.0,128.0,118.0,127.0,126.0,136.0,125.0,127.0,31.0,-100.0,-70.0,-128.0,127.0,127.0,-5.0,-5.0,-51.0
128.0,128.0,118.0,126.0,126.0,136.0,125.0,127.0,31.0,-100.0,-70.0,-128.0,127.0,127.0,-5.0,-5.0,-51.0
128.0,128.0,118.0,126.0,126.0,136.0,125.0,127.0,31.0,-100.0,-70.0,-128.0,127.0,127.0,-5.0,-5.0,-51.0
128.0,128.0,118.0,126.0,126.0,136.0,125.0,127.0,31.0,-100.0,-70.0,-128.0,127.0,127.0,-5.0,-5.0,-51.0
128.0,128.0,118.0,126.0,126.0,136.0,125.0,127.0,31.0,-100.0,-70.0,-128.0,127.0,127.0,-5.0,-5.0,-51.0
128.0,128.0,118.0,126.0,126.0,136.0,125.0,127.0,31.0,-100.0,-70.0,-128.0,127.0,127.0,-5.0,-5.0,-51.0
128.0,127.0,119.0,126.0,126.0,136.0,125.0,127.0,31.0,-100.0,-70.0,-128.0,127.0,127.0,-5.0,-5.0,-51.0
128.0,127.0,120.0,123.0,123.0,133.0,125.0,128.0,31.0,-100.0,-70.0,-128.0,127.0,127.0,-5.0,-5.0,-51.0
128.0,127.0,120.0,123.0,123.0,133.0,125.0,128.0,31.0,-100.0,-70.0,-128.0,127.0,127.0,-5.0,-5.0,-51.0
128.0,127.0,120.0,123.0,124.0,134.0,125.0,128.0,31.0,-100.0,-70.0,-128.0,127.0,127.0,-5.0,-5.0,-51.0
128.0,127.0,120.0,123.0,124.0,134.0,125.0,128.0,31.0,-100.0,-70.0,-128.0,127.0,127.0,-5.0,-5.0,-51.0
128.0,127.0,120.0,123.0,124.0,134.0,125.0,128.0,31.0,-100.0,-70.0,-128.0,127.0,127.0,-5.0,-5.0,-51.0
128.0,127.0,120.0,123.0,123.0,134.0,125.0,127.0,31.0,-100.0,-70.0,-128.0,127.0,127.0,-5.0,-5.0,-51.0
128.0,127.0,120.0,123.0,123.0,134.0,125.0,128.0,31.0,-100.0,-70.0,-128.0,127.0,127.0,-5.0,-5.0,-51.0
128.0,127.0,120.0,123.0,123.0,134.0,125.0,128.0,31.0,-100.0,-70.0,-128.0,127.0,127.0,-5.0,-5.0,-51.0
128.0,127.0,120.0,123.0,123.0,133.0,125.0,127.0,31.0,-100.0,-70.0,-128.0,127.0,127.0,-5.0,-5.0,-51.0
128.0,127.0,120.0,123.0,123.0,133.0,125.0,128.0,31.0,-100.0,-70.0,-128.0,127.0,127.0,-5.0,-5.0,-51.0
129.0,128.0,119.0,122.0,122.0,134.0,125.0,128.0,31.0,-100.0,-71.0,-128.0,127.0,127.0,-5.0,-5.0,-51.0
129.0,128.0,119.0,122.0,121.0,133.0,125.0,128.0,31.0,-100.0,-71.0,-128.0,127.0,127.0,-5.0,-5.0,-51.0
129.0,128.0,119.0,122.0,121.0,133.0,125.0,128.0,31.0,-100.0,-71.0,-128.0,127.0,127.0,-5.0,-5.0,-51.0
129.0,128.0,119.0,122.0,121.0,133.0,125.0,128.0,31.0,-100.0,-71.0,-128.0,127.0,127.0,-5.0,-5.0,-51.0
129.0,128.0,119.0,122.0,121.0,133.0,124.0,128.0,31.0,-100.0,-71.0,-128.0,127.0,127.0,-5.0,-5.0,-51.0
129.0,128.0,119.0,122.0,121.0,133.0,124.0,128.0,31.0,-100.0,-71.0,-128.0,127.0,127.0,-5.0,-5.0,-51.0
129.0,128.0,120.0,122.0,121.0,133.0,125.0,128.0,31.0,-100.0,-71.0,-128.0,127.0,127.0,-5.0,-5.0,-51.0
129.0,128.0,120.0,121.0,121.0,133.0,125.0,128.0,31.0,-100.0,-71.0,-128.0,127.0,127.0,-5.0,-5.0,-51.0
129.0,128.0,120.0,121.0,121.0,133.0,125.0,128.0,31.0,-100.0,-71.0,-128.0,127.0,127.0,-5.0,-5.0,-51.0
129.0,128.0,120.0,121.0,121.0,133.0,125.0,128.0,31.0,-100.0,-71.0,-128.0,127.0,127.0,-5.0,-5.0,-51.0
129.0,127.0,121.0,121.0,121.0,131.0,125.0,128.0,31.0,-100.0,-71.0,-128.0,127.0,127.0,-5.0,-5.0,-51.0
129.0,128.0,121.0,121.0,121.0,131.0,125.0,128.0,31.0,-100.0,-71.0,-128.0,127.0,127.0,-5.0,-5.0,-51.0
129.0,128.0,121.0,121.0,121.0,131.0,125.0,128.0,31.0,-100.0,-71.0,-128.0,127.0,127.0,-5.0,-5.0,-51.0
129.0,127.0,121.0,121.0,121.0,131.0,126.0,128.0,31.0,-100.0,-71.0,-128.0,127.0,127.0,-5.0,-5.0,-51.0
129.0,127.0,121.0,121.0,121.0,131.0,126.0,128.0,31.0,-100.0,-71.0,-128.0,127.0,127.0,-5.0,-5.0,-51.0
129.0,127.0,121.0,121.0,121.0,131.0,126.0,128.0,31.0,-100.0,-71.0,-128.0,127.0,127.0,-5.0,-5.0,-51.0
129.0,127.0,121.0,121.0,121.0,131.0,125.0,128.0,31.0,-100.0,-71.0,-128.0,127.0,127.0,-5.0,-5.0,-51.0
129.0,128.0,121.0,121.0,122.0,132.0,125.0,128.0,31.0,-100.0,-71.0,-128.0,127.0,127.0,-5.0,-5.0,-51.0
129.0,128.0,121.0,121.0,122.0,132.0,125.0,128.0,31.0,-100.0,-71.0,-128.0,127.0,127.0,-5.0,-5.0,-51.0
129.0,127.0,121.0,121.0,121.0,131.0,126.0,128.0,31.0,-100.0,-71.0,-128.0,127.0,127.0,-5.0,-5.0,-51.0
129.0,128.0,122.0,121.0,123.0,132.0,126.0,128.0,31.0,-100.0,-72.0,-128.0,127.0,127.0,-5.0,-5.0,-51.0
129.0,128.0,122.0,121.0,123.0,132.0,126.0,128.0,31.0,-100.0,-72.0,-128.0,127.0,127.0,-5.0,-5.0,-51.0
129.0,128.0,122.0,121.0,123.0,132.0,126.0,128.0,31.0,-100.0,-72.0,-128.0,127.0,127.0,-5.0,-5.0,-51.0
129.0,128.0,121.0,121.0,123.0,132.0,126.0,128.0,31.0,-100.0,-72.0,-128.0,127.0,127.0,-5.0,-5.0,-51.0
129.0,128.0,121.0,121.0,123.0,132.0,126.0,128.0,31.0,-100.0,-72.0,-128.0,127.0,127.0,-5.0,-5.0,-51.0
129.0,128.0,122.0,121.0,123.0,132.0,126.0,128.0,31.0,-100.0,-72.0,-128.0,127.0,127.0,-5.0,-5.0,-51.0
129.0,128.0,122.0,121.0,123.0,132.0,126.0,128.0,31.0,-100.0,-72.0,-128.0,127.0,127.0,-5.0,-5.0,-51.0
129.0,128.0,122.0,121.0,123.0,132.0,126.0,128.0,31.0,-100.0,-72.0,-128.0,127.0,127.0,-5.0,-5.0,-51.0
129.0,128.0,121.0,121.0,123.0,132.0,126.0,128.0,31.0,-100.0,-72.0,-128.0,127.0,127.0,-5.0,-5.0,-51.0
129.0,128.0,121.0,121.0,123.0,132.0,126.0,128.0,31.0,-100.0,-72.0,-128.0,127.0,127.0,-5.0,-5.0,-51.0
128.0,128.0,121.0,122.0,124.0,134.0,126.0,128.0,30.0,-99.0,-72.0,127.0,127.0,127.0,-5.0,-5.0,-51.0
128.0,128.0,121.0,122.0,124.0,133.0,126.0,128.0,30.0,-99.0,-72.0,127.0,127.0,127.0,-5.0,-5.0,-51.0
128.0,128.0,121.0,122.0,124.0,134.0,126.0,128.0,30.0,-99.0,-72.0,127.0,127.0,127.0,-5.0,-5.0,-51.0
128.0,128.0,121.0,122.0,124.0,134.0,126.0,128.0,30.0,-99.0,-72.0,127.0,127.0,127.0,-5.0,-5.0,-51.0
128.0,128.0,121.0,122.0,124.0,134.0,126.0,128.0,30.0,-99.0,-72.0,127.0,127.0,127.0,-5.0,-5.0,-51.0
128.0,128.0,121.0,122.0,124.0,134.0,126.0,128.0,30.0,-99.0,-72.0,127.0,127.0,127.0,-5.0,-5.0,-51.0
128.0,128.0,121.0,122.0,124.0,134.0,126.0,128.0,30.0,-99.0,-72.0,127.0,127.0,127.0,-5.0,-5.0,-51.0
129.0,128.0,121.0,122.0,124.0,133.0,126.0,128.0,30.0,-99.0,-72.0,127.0,127.0,127.0,-5.0,-5.0,-51.0
129.0,128.0,121.0,122.0,124.0,133.0,126.0,128.0,30.0,-99.0,-72.0,127.0,127.0,127.0,-5.0,-5.0,-51.0
128.0,128.0,121.0,122.0,124.0,133.0,126.0,128.0,30.0,-99.0,-72.0,127.0,127.0,127.0,-5.0,-5.0,-51.0
128.0,127.0,122.0,123.0,125.0,133.0,127.0,128.0,30.0,-99.0,-73.0,127.0,127.0,127.0,-5.0,-5.0,-51.0
128.0,127.0,122.0,123.0,125.0,133.0,127.0,128.0,30.0,-99.0,-73.0,127.0,127.0,127.0,-5.0,-5.0,-51.0
128.0,127.0,122.0,123.0,125.0,133.0,127.0,128.0,30.0,-99.0,-73.0,127.0,127.0,127.0,-5.0,-5.0,-51.0
128.0,127.0,122.0,123.0,125.0,133.0,127.0,128.0,30.0,-99.0,-73.0,127.0,127.0,127.0,-5.0,-5.0,-51.0
128.0,127.0,121.0,123.0,125.0,134.0,126.0,128.0,30.0,-99.0,-73.0,127.0,127.0,127.0,-5.0,-5.0,-51.0
128.0,127.0,121.0,123.0,125.0,134.0,126.0,128.0,30.0,-99.0,-73.0,127.0,127.0,127.0,-5.0,-5.0,-51.0
128.0,127.0,121.0,123.0,125.0,133.0,127.0,128.0,30.0,-99.0,-73.0,127.0,127.0,127.0,-5.0,-5.0,-51.0
128.0,127.0,121.0,123.0,125.0,133.0,127.0,128.0,30.0,-99.0,-73.0,127.0,127.0,127.0,-5.0,-5.0,-51.0
128.0,127.0,122.0,123.0,125.0,133.0,127.0,128.0,30.0,-99.0,-73.0,127.0,127.0,127.0,-5.0,-5.0,-51.0
128.0,127.0,122.0,123.0,125.0,133.0,127.0,128.0,30.0,-99.0,-73.0,127.0,127.0,127.0,-5.0,-5.0,-51.0
128.0,127.0,122.0,124.0,127.0,134.0,127.0,128.0,29.0,-99.0,-73.0,127.0,127.0,127.0,-5.0,-5.0,-52.0
128.0,127.0,122.0,124.0,127.0,134.0,127.0,128.0,29.0,-99.0,-73.0,127.0,127.0,127.0,-5.0,-5.0,-52.0
128.0,127.0,122.0,124.0,127.0,133.0,127.0,128.0,29.0,-99.0,-73.0,127.0,127.0,127.0,-5.0,-5.0,-52.0
128.0,127.0,122.0,124.0,127.0,134.0,127.0,128.0,29.0,-99.0,-73.0,127.0,127.0,127.0,-5.0,-5.0,-52.0
128.0,128.0,122.0,124.0,127.0,134.0,127.0,128.0,29.0,-99.0,-73.0,127.0,127.0,127.0,-5.0,-5.0,-52.0
128.0,128.0,122.0,124.0,127.0,134.0,127.0,128.0,29.0,-99.0,-73.0,127.0,127.0,127.0,-5.0,-5.0,-52.0
128.0,128.0,122.0,124.0,127.0,134.0,127.0,128.0,29.0,-99.0,-73.0,127.0,127.0,127.0,-5.0,-5.0,-52.0
128.0,128.0,122.0,124.0,127.0,134.0,127.0,128.0,29.0,-99.0,-73.0,127.0,127.0,127.0,-5.0,-5.0,-52.0
128.0,128.0,122.0,124.0,127.0,134.0,127.0,128.0,29.0,-99.0,-73.0,127.0,127.0,127.0,-5.0,-5.0,-52.0
128.0,128.0,122.0,124.0,127.0,134.0,127.0,128.0,29.0,-99.0,-73.0,127.0,127.0,127.0,-5.0,-5.0,-52.0
128.0,128.0,122.0,124.0,127.0,133.0,128.0,128.0,29.0,-99.0,-73.0,127.0,127.0,127.0,-5.0,-5.0,-52.0
128.0,128.0,122.0,124.0,127.0,133.0,128.0,128.0,29.0,-99.0,-73.0,127.0,127.0,127.0,-5.0,-5.0,-52.0
128.0,128.0,122.0,124.0,127.0,133.0,128.0,128.0,29.0,-99.0,-73.0,127.0,127.0,127.0,-5.0,-5.0,-52.0
128.0,128.0,122.0,124.0,127.0,134.0,128.0,128.0,29.0,-99.0,-73.0,127.0,127.0,127.0,-5.0,-5.0,-52.0
128.0,128.0,122.0,124.0,127.0,134.0,128.0,128.0,29.0,-99.0,-73.0,127.0,127.0,127.0,-5.0,-5.0,-52.0
128.0,128.0,122.0,124.0,127.0,133.0,128.0,128.0,29.0,-99.0,-73.0,127.0,127.0,127.0,-5.0,-5.0,-52.0
128.0,128.0,122.0,124.0,127.0,133.0,128.0,128.0,29.0,-99.0,-73.0,127.0,127.0,127.0,-5.0,-5.0,-52.0
128.0,128.0,123.0,124.0,127.0,133.0,128.0,128.0,29.0,-99.0,-73.0,127.0,127.0,127.0,-5.0,-5.0,-52.0
128.0,128.0,123.0,124.0,127.0,133.0,128.0,128.0,29.0,-99.0,-73.0,127.0,127.0,127.0,-5.0,-5.0,-52.0
128.0,128.0,122.0,124.0,127.0,133.0,128.0,128.0,29.0,-99.0,-73.0,127.0,127.0,127.0,-5.0,-5.0,-52.0
128.0,127.0,124.0,125.0,127.0,132.0,127.0,127.0,28.0,-99.0,-73.0,127.0,127.0,127.0,-5.0,-5.0,-52.0
128.0,127.0,124.0,125.0,127.0,132.0,127.0,127.0,28.0,-99.0,-73.0,127.0,127.0,127.0,-5.0,-5.0,-52.0
128.0,127.0,124.0,125.0,127.0,132.0,127.0,127.0,28.0,-99.0,-73.0,127.0,127.0,127.0,-5.0,-5.0,-52.0
128.0,127.0,123.0,124.0,127.0,132.0,128.0,128.0,28.0,-99.0,-73.0,127.0,127.0,127.0,-5.0,-5.0,-52.0
128.0,127.0,123.0,124.0,127.0,132.0,128.0,127.0,28.0,-99.0,-73.0,127.0,127.0,127.0,-5.0,-5.0,-52.0
128.0,127.0,123.0,124.0,127.0,132.0,128.0,127.0,28.0,-99.0,-73.0,127.0,127.0,127.0,-5.0,-5.0,-52.0
128.0,127.0,123.0,124.0,127.0,132.0,128.0,127.0,28.0,-99.0,-73.0,127.0,127.0,127.0,-5.0,-5.0,-52.0
128.0,127.0,123.0,124.0,127.0,132.0,128.0,127.0,28.0,-99.0,-73.0,127.0,127.0,127.0,-5.0,-5.0,-52.0
128.0,127.0,124.0,124.0,127.0,132.0,127.0,127.0,28.0,-99.0,-73.0,127.0,127.0,127.0,-5.0,-5.0,-52.0
128.0,127.0,124.0,124.0,127.0,132.0,128.0,127.0,28.0,-99.0,-73.0,127.0,127.0,127.0,-5.0,-5.0,-52.0
128.0,127.0,124.0,124.0,127.0,133.0,127.0,128.0,28.0,-99.0,-74.0,127.0,127.0,127.0,-5.0,-5.0,-52.0
128.0,127.0,124.0,124.0,127.0,133.0,127.0,127.0,28.0,-99.0,-74.0,127.0,127.0,127.0,-5.0,-5.0,-52.0
128.0,128.0,123.0,124.0,127.0,133.0,127.0,128.0,28.0,-99.0,-74.0,127.0,127.0,127.0,-5.0,-5.0,-52.0
128.0,128.0,123.0,124.0,127.0,133.0,127.0,128.0,28.0,-99.0,-74.0,127.0,127.0,127.0,-5.0,-5.0,-52.0
128.0,128.0,124.0,124.0,127.0,133.0,127.0,128.0,28.0,-99.0,-74.0,127.0,127.0,127.0,-5.0,-5.0,-52.0
128.0,128.0,124.0,124.0,127.0,133.0,127.0,128.0,28.0,-99.0,-74.0,127.0,127.0,127.0,-5.0,-5.0,-52.0
128.0,128.0,124.0,124.0,127.0,133.0,127.0,128.0,28.0,-99.0,-74.0,127.0,127.0,127.0,-5.0,-5.0,-52.0
128.0,128.0,124.0,124.0,127.0,133.0,127.0,128.0,28.0,-99.0,-74.0,127.0,127.0,127.0,-5.0,-5.0,-52.0
128.0,128.0,124.0,124.0,127.0,133.0,127.0,128.0,28.0,-99.0,-74.0,127.0,127.0,127.0,-5.0,-5.0,-52.0
128.0,127.0,124.0,124.0,127.0,133.0,127.0,128.0,28.0,-99.0,-74.0,127.0,127.0,127.0,-5.0,-5.0,-52.0
128.0,128.0,124.0,125.0,128.0,134.0,126.0,128.0,28.0,-99.0,-74.0,127.0,127.0,127.0,-5.0,-5.0,-52.0
128.0,128.0,124.0,125.0,128.0,134.0,126.0,128.0,28.0,-99.0,-74.0,127.0,127.0,127.0,-5.0,-5.0,-52.0
128.0,128.0,124.0,125.0,128.0,134.0,126.0,128.0,28.0,-99.0,-74.0,127.0,127.0,127.0,-5.0,-5.0,-52.0
128.0,128.0,124.0,125.0,128.0,134.0,126.0,128.0,28.0,-99.0,-74.0,127.0,127.0,127.0,-5.0,-5.0,-52.0
128.0,128.0,123.0,125.0,128.0,134.0,126.0,128.0,28.0,-99.0,-74.0,127.0,127.0,127.0,-5.0,-5.0,-52.0
128.0,128.0,124.0,125.0,128.0,134.0,126.0,128.0,28.0,-99.0,-74.0,127.0,127.0,127.0,-5.0,-5.0,-52.0
128.0,128.0,124.0,125.0,128.0,134.0,126.0,128.0,28.0,-99.0,-74.0,127.0,127.0,127.0,-5.0,-5.0,-52.0
128.0,128.0,123.0,125.0,128.0,134.0,126.0,128.0,28.0,-99.0,-74.0,127.0,127.0,127.0,-5.0,-5.0,-52.0
128.0,128.0,124.0,125.0,128.0,134.0,126.0,128.0,28.0,-99.0,-74.0,127.0,127.0,127.0,-5.0,-5.0,-52.0
128.0,128.0,124.0,125.0,128.0,134.0,126.0,128.0,28.0,-99.0,-74.0,127.0,127.0,127.0,-5.0,-5.0,-52.0
128.0,128.0,124.0,125.0,127.0,133.0,126.0,128.0,27.0,-99.0,-74.0,127.0,127.0,127.0,-5.0,-5.0,-52.0
128.0,128.0,124.0,125.0,127.0,133.0,126.0,128.0,27.0,-99.0,-74.0,127.0,127.0,127.0,-5.0,-5.0,-52.0
128.0,128.0,124.0,125.0,127.0,133.0,125.0,128.0,27.0,-99.0,-74.0,127.0,127.0,127.0,-5.0,-5.0,-52.0
128.0,128.0,124.0,125.0,127.0,133.0,125.0,128.0,27.0,-99.0,-74.0,127.0,127.0,127.0,-5.0,-5.0,-52.0
128.0,128.0,124.0,125.0,127.0,133.0,125.0,128.0,27.0,-99.0,-74.0,127.0,127.0,127.0,-5.0,-5.0,-52.0
128.0,128.0,124.0,125.0,127.0,133.0,125.0,128.0,27.0,-99.0,-74.0,127.0,127.0,127.0,-5.0,-5.0,-52.0
128.0,128.0,124.0,125.0,127.0,134.0,125.0,128.0,27.0,-99.0,-74.0,127.0,127.0,127.0,-5.0,-5.0,-52.0
128.0,128.0,124.0,125.0,127.0,134.0,125.0,128.0,27.0,-99.0,-74.0,127.0,127.0,127.0,-5.0,-5.0,-52.0
128.0,128.0,124.0,124.0,127.0,133.0,125.0,128.0,27.0,-99.0,-74.0,127.0,127.0,127.0,-5.0,-5.0,-52.0
128.0,128.0,124.0,124.0,127.0,134.0,125.0,128.0,27.0,-99.0,-74.0,127.0,127.0,127.0,-5.0,-5.0,-52.0
128.0,127.0,125.0,125.0,127.0,132.0,126.0,128.0,27.0,-99.0,-74.0,127.0,127.0,127.0,-5.0,-5.0,-52.0
128.0,127.0,125.0,124.0,127.0,131.0,126.0,128.0,27.0,-99.0,-74.0,127.0,127.0,127.0,-5.0,-5.0,-52.0
128.0,127.0,125.0,124.0,127.0,131.0,126.0,128.0,27.0,-99.0,-74.0,127.0,127.0,127.0,-5.0,-5.0,-52.0
128.0,127.0,125.0,124.0,127.0,131.0,126.0,128.0,27.0,-99.0,-74.0,127.0,127.0,127.0,-5.0,-5.0,-52.0
128.0,127.0,125.0,124.0,127.0,131.0,126.0,128.0,27.0,-99.0,-74.0,127.0,127.0,127.0,-5.0,-5.0,-52.0
128.0,127.0,125.0,124.0,127.0,131.0,126.0,128.0,27.0,-99.0,-74.0,127.0,127.0,127.0,-5.0,-5.0,-52.0
128.0,127.0,125.0,124.0,127.0,131.0,126.0,128.0,27.0,-99.0,-74.0,127.0,127.0,127.0,-5.0,-5.0,-52.0
128.0,127.0,125.0,124.0,127.0,131.0,126.0,128.0,27.0,-99.0,-74.0,127.0,127.0,127.0,-5.0,-5.0,-52.0
128.0,127.0,125.0,124.0,127.0,132.0,126.0,128.0,27.0,-99.0,-74.0,127.0,127.0,127.0,-5.0,-5.0,-52.0
128.0,127.0,125.0,125.0,127.0,131.0,126.0,128.0,27.0,-99.0,-74.0,127.0,127.0,127.0,-5.0,-5.0,-52.0
128.0,128.0,124.0,124.0,126.0,131.0,127.0,128.0,27.0,-99.0,-74.0,127.0,127.0,127.0,-5.0,-5.0,-52.0
128.0,128.0,124.0,124.0,126.0,131.0,127.0,128.0,27.0,-99.0,-74.0,127.0,127.0,127.0,-5.0,-5.0,-52.0
128.0,128.0,124.0,124.0,126.0,131.0,127.0,127.0,27.0,-99.0,-74.0,127.0,127.0,127.0,-5.0,-5.0,-52.0
128.0,128.0,125.0,124.0,126.0,131.0,127.0,127.0,27.0,-99.0,-74.0,127.0,127.0,127.0,-5.0,-5.0,-52.0
128.0,128.0,124.0,124.0,126.0,131.0,127.0,127.0,27.0,-99.0,-74.0,127.0,127.0,127.0,-5.0,-5.0,-52.0
128.0,128.0,124.0,124.0,126.0,131.0,127.0,127.0,27.0,-99.0,-74.0,127.0,127.0,127.0,-5.0,-5.0,-52.0
128.0,128.0,124.0,124.0,126.0,131.0,127.0,128.0,27.0,-99.0,-74.0,127.0,127.0,127.0,-5.0,-5.0,-52.0
128.0,127.0,125.0,124.0,126.0,131.0,127.0,128.0,27.0,-99.0,-74.0,127.0,127.0,127.0,-5.0,-5.0,-52.0
128.0,128.0,124.0,124.0,126.0,131.0,127.0,128.0,27.0,-99.0,-74.0,127.0,127.0,127.0,-5.0,-5.0,-52.0
128.0,128.0,124.0,124.0,126.0,131.0,127.0,128.0,27.0,-99.0,-74.0,127.0,127.0,127.0,-5.0,-5.0,-52.0
128.0,128.0,125.0,124.0,127.0,131.0,127.0,128.0,27.0,-99.0,-74.0,127.0,127.0,127.0,-5.0,-5.0,-52.0
128.0,128.0,125.0,124.0,127.0,131.0,127.0,128.0,27.0,-99.0,-74.0,127.0,127.0,127.0,-5.0,-5.0,-52.0
128.0,128.0,125.0,124.0,127.0,132.0,127.0,128.0,27.0,-99.0,-74.0,127.0,127.0,127.0,-5.0,-5.0,-52.0
128.0,128.0,125.0,124.0,127.0,131.0,127.0,128.0,27.0,-99.0,-74.0,127.0,127.0,127.0,-5.0,-5.0,-52.0
128.0,128.0,125.0,124.0,127.0,131.0,127.0,128.0,27.0,-99.0,-74.0,127.0,127.0,127.0,-5.0,-5.0,-52.0
128.0,128.0,125.0,124.0,127.0,132.0,127.0,128.0,27.0,-99.0,-74.0,127.0,127.0,127.0,-5.0,-5.0,-52.0
128.0,128.0,125.0,124.0,127.0,132.0,127.0,128.0,27.0,-99.0,-74.0,127.0,127.0,127.0,-5.0,-5.0,-52.0
128.0,128.0,125.0,125.0,127.0,131.0,127.0,128.0,27.0,-99.0,-74.0,127.0,127.0,127.0,-5.0,-5.0,-52.0
128.0,128.0,125.0,124.0,127.0,131.0,127.0,128.0,27.0,-99.0,-74.0,127.0,127.0,127.0,-5.0,-5.0,-52.0
128.0,128.0,125.0,125.0,127.0,131.0,127.0,128.0,27.0,-99.0,-74.0,127.0,127.0,127.0,-5.0,-5.0,-52.0
128.0,128.0,124.0,125.0,127.0,133.0,127.0,128.0,27.0,-99.0,-74.0,127.0,127.0,127.0,-5.0,-5.0,-52.0
128.0,128.0,124.0,125.0,127.0,133.0,127.0,128.0,27.0,-99.0,-74.0,127.0,127.0,127.0,-5.0,-5.0,-52.0
128.0,128.0,125.0,125.0,127.0,133.0,127.0,128.0,27.0,-99.0,-74.0,127.0,127.0,127.0,-5.0,-5.0,-52.0
128.0,128.0,125.0,125.0,127.0,133.0,127.0,128.0,27.0,-99.0,-74.0,127.0,127.0,127.0,-5.0,-5.0,-52.0
128.0,128.0,125.0,125.0,127.0,133.0,127.0,128.0,27.0,-99.0,-74.0,127.0,127.0,127.0,-5.0,-5.0,-52.0
128.0,128.0,125.0,125.0,127.0,133.0,127.0,128.0,27.0,-99.0,-74.0,127.0,127.0,127.0,-5.0,-5.0,-52.0
128.0,128.0,124.0,125.0,127.0,133.0,127.0,128.0,27.0,-99.0,-74.0,127.0,127.0,127.0,-5.0,-5.0,-52.0
128.0,128.0,124.0,125.0,127.0,133.0,127.0,128.0,27.0,-99.0,-74.0,127.0,127.0,127.0,-5.0,-5.0,-52.0
128.0,128.0,124.0,125.0,127.0,133.0,127.0,128.0,27.0,-99.0,-74.0,127.0,127.0,127.0,-5.0,-5.0,-52.0
128.0,128.0,124.0,125.0,127.0,133.0,127.0,128.0,27.0,-99.0,-74.0,127.0,127.0,127.0,-5.0,-5.0,-52.0
128.0,128.0,125.0,125.0,127.0,133.0,127.0,128.0,27.0,-99.0,-74.0,127.0,127.0,127.0,-5.0,-5.0,-52.0
128.0,128.0,125.0,125.0,127.0,133.0,127.0,128.0,27.0,-99.0,-74.0,127.0,127.0,127.0,-5.0,-5.0,-52.0
128.0,128.0,125.0,125.0,127.0,133.0,127.0,128.0,27.0,-99.0,-74.0,127.0,127.0,127.0,-5.0,-5.0,-52.0
128.0,128.0,125.0,125.0,127.0,133.0,127.0,128.0,27.0,-99.0,-74.0,127.0,127.0,127.0,-5.0,-5.0,-52.0
128.0,128.0,125.0,125.0,127.0,133.0,127.0,128.0,27.0,-99.0,-74.0,127.0,127.0,127.0,-5.0,-5.0,-52.0
128.0,128.0,125.0,125.0,127.0,133.0,127.0,128.0,27.0,-99.0,-74.0,127.0,127.0,127.0,-5.0,-5.0,-52.0
128.0,128.0,125.0,125.0,127.0,133.0,127.0,128.0,27.0,-99.0,-74.0,127.0,127.0,127.0,-5.0,-5.0,-52.0
128.0,128.0,125.0,125.0,127.0,133.0,127.0,128.0,27.0,-99.0,-74.0,127.0,127.0,127.0,-5.0,-5.0,-52.0
128.0,128.0,125.0,125.0,127.0,133.0,127.0,128.0,27.0,-99.0,-74.0,127.0,127.0,127.0,-5.0,-5.0,-52.0
128.0,128.0,125.0,125.0,127.0,133.0,127.0,128.0,27.0,-99.0,-74.0,127.0,127.0,127.0,-5.0,-5.0,-52.0
128.0,127.0,126.0,125.0,126.0,132.0,127.0,128.0,27.0,-99.0,-74.0,127.0,127.0,127.0,-5.0,-5.0,-52.0
128.0,128.0,126.0,125.0,126.0,133.0,127.0,128.0,27.0,-99.0,-74.0,127.0,127.0,127.0,-5.0,-5.0,-52.0
128.0,128.0,126.0,125.0,126.0,133.0,127.0,128.0,27.0,-99.0,-74.0,127.0,127.0,127.0,-5.0,-5.0,-52.0
128.0,127.0,126.0,125.0,126.0,132.0,127.0,128.0,27.0,-99.0,-74.0,127.0,127.0,127.0,-5.0,-5.0,-52.0
128.0,128.0,125.0,125.0,126.0,133.0,127.0,128.0,27.0,-99.0,-74.0,127.0,127.0,127.0,-5.0,-5.0,-52.0
128.0,128.0,125.0,125.0,126.0,133.0,127.0,128.0,27.0,-99.0,-74.0,127.0,127.0,127.0,-5.0,-5.0,-52.0
128.0,128.0,125.0,125.0,126.0,133.0,127.0,128.0,27.0,-99.0,-74.0,127.0,127.0,127.0,-5.0,-5.0,-52.0
128.0,127.0,125.0,125.0,126.0,133.0,127.0,128.0,27.0,-99.0,-74.0,127.0,127.0,127.0,-5.0,-5.0,-52.0
128.0,127.0,126.0,125.0,126.0,132.0,127.0,128.0,27.0,-99.0,-74.0,127.0,127.0,127.0,-5.0,-5.0,-52.0
128.0,127.0,126.0,125.0,126.0,132.0,127.0,128.0,27.0,-99.0,-74.0,127.0,127.0,127.0,-5.0,-5.0,-52.0
128.0,127.0,126.0,125.0,126.0,132.0,127.0,128.0,26.0,-99.0,-74.0,127.0,127.0,127.0,-5.0,-5.0,-52.0
128.0,127.0,126.0,125.0,126.0,132.0,127.0,128.0,26.0,-99.0,-74.0,127.0,127.0,127.0,-5.0,-5.0,-52.0
128.0,127.0,126.0,125.0,126.0,132.0,127.0,128.0,26.0,-99.0,-74.0,127.0,127.0,127.0,-5.0,-5.0,-52.0
128.0,128.0,125.0,125.0,126.0,133.0,127.0,128.0,26.0,-99.0,-74.0,127.0,127.0,127.0,-5.0,-5.0,-52.0
128.0,128.0,125.0,125.0,126.0,133.0,127.0,128.0,26.0,-99.0,-74.0,127.0,127.0,127.0,-5.0,-5.0,-52.0
128.0,127.0,125.0,125.0,126.0,133.0,127.0,128.0,26.0,-99.0,-74.0,127.0,127.0,127.0,-5.0,-5.0,-52.0
128.0,127.0,126.0,125.0,126.0,133.0,127.0,128.0,26.0,-99.0,-74.0,127.0,127.0,127.0,-5.0,-5.0,-52.0
128.0,127.0,126.0,125.0,126.0,132.0,127.0,128.0,26.0,-99.0,-74.0,127.0,127.0,127.0,-5.0,-5.0,-52.0
128.0,127.0,126.0,125.0,126.0,132.0,127.0,128.0,26.0,-99.0,-74.0,127.0,127.0,127.0,-5.0,-5.0,-52.0
128.0,127.0,126.0,125.0,126.0,132.0,127.0,128.0,26.0,-99.0,-74.0,127.0,127.0,127.0,-5.0,-5.0,-52.0
128.0,128.0,125.0,125.0,127.0,133.0,127.0,128.0,26.0,-99.0,-75.0,127.0,127.0,127.0,-5.0,-5.0,-52.0
128.0,127.0,125.0,125.0,127.0,132.0,127.0,128.0,26.0,-99.0,-75.0,127.0,127.0,127.0,-5.0,-5.0,-52.0
128.0,127.0,125.0,125.0,127.0,132.0,127.0,128.0,26.0,-99.0,-75.0,127.0,127.0,127.0,-5.0,-5.0,-52.0
128.0,128.0,125.0,125.0,127.0,133.0,127.0,128.0,26.0,-99.0,-75.0,127.0,127.0,127.0,-5.0,-5.0,-52.0
128.0,128.0,125.0,125.0,127.0,133.0,127.0,128.0,26.0,-99.0,-75.0,127.0,127.0,127.0,-5.0,-5.0,-52.0
128.0,127.0,125.0,125.0,127.0,132.0,127.0,128.0,26.0,-99.0,-75.0,127.0,127.0,127.0,-5.0,-5.0,-52.0
128.0,128.0,125.0,125.0,127.0,133.0,127.0,128.0,26.0,-99.0,-75.0,127.0,127.0,127.0,-5.0,-5.0,-52.0
128.0,128.0,125.0,125.0,127.0,133.0,127.0,128.0,26.0,-99.0,-75.0,127.0,127.0,127.0,-5.0,-5.0,-52.0
128.0,128.0,125.0,125.0,127.0,133.0,127.0,128.0,26.0,-99.0,-75.0,127.0,127.0,127.0,-5.0,-5.0,-52.0
128.0,128.0,125.0,125.0,127.0,133.0,127.0,128.0,26.0,-99.0,-75.0,127.0,127.0,127.0,-5.0,-5.0,-52.0
128.0,127.0,126.0,125.0,127.0,132.0,127.0,127.0,26.0,-99.0,-75.0,127.0,127.0,127.0,-5.0,-5.0,-52.0
128.0,127.0,126.0,125.0,127.0,131.0,127.0,128.0,26.0,-99.0,-75.0,127.0,127.0,127.0,-5.0,-5.0,-52.0
128.0,127.0,126.0,125.0,127.0,131.0,127.0,128.0,26.0,-99.0,-75.0,127.0,127.0,127.0,-5.0,-5.0,-52.0
128.0,127.0,126.0,125.0,127.0,131.0,127.0,128.0,26.0,-99.0,-75.0,127.0,127.0,127.0,-5.0,-5.0,-52.0
128.0,127.0,126.0,125.0,127.0,131.0,127.0,128.0,26.0,-99.0,-75.0,127.0,127.0,127.0,-5.0,-5.0,-52.0
128.0,127.0,126.0,125.0,127.0,131.0,127.0,128.0,26.0,-99.0,-75.0,127.0,127.0,127.0,-5.0,-5.0,-52.0
128.0,127.0,126.0,125.0,127.0,131.0,127.0,128.0,26.0,-99.0,-75.0,127.0,127.0,127.0,-5.0,-5.0,-52.0
128.0,127.0,126.0,125.0,127.0,131.0,127.0,127.0,26.0,-99.0,-75.0,127.0,127.0,127.0,-5.0,-5.0,-52.0
128.0,127.0,126.0,125.0,127.0,131.0,127.0,128.0,26.0,-99.0,-75.0,127.0,127.0,127.0,-5.0,-5.0,-52.0
128.0,127.0,126.0,125.0,127.0,131.0,127.0,127.0,26.0,-99.0,-75.0,127.0,127.0,127.0,-5.0,-5.0,-52.0
128.0,127.0,125.0,125.0,127.0,132.0,127.0,128.0,26.0,-99.0,-75.0,127.0,127.0,127.0,-5.0,-5.0,-52.0
128.0,128.0,125.0,125.0,127.0,132.0,127.0,128.0,26.0,-99.0,-75.0,127.0,127.0,127.0,-5.0,-5.0,-52.0
128.0,128.0,125.0,125.0,127.0,133.0,127.0,128.0,26.0,-99.0,-75.0,127.0,127.0,127.0,-5.0,-5.0,-52.0
128.0,128.0,125.0,125.0,127.0,133.0,127.0,128.0,26.0,-99.0,-75.0,127.0,127.0,127.0,-5.0,-5.0,-52.0
128.0,128.0,125.0,125.0,127.0,132.0,127.0,128.0,26.0,-99.0,-75.0,127.0,127.0,127.0,-5.0,-5.0,-52.0
128.0,127.0,126.0,125.0,127.0,132.0,127.0,128.0,26.0,-99.0,-75.0,127.0,127.0,127.0,-5.0,-5.0,-52.0
128.0,127.0,126.0,125.0,127.0,132.0,127.0,128.0,26.0,-99.0,-75.0,127.0,127.0,127.0,-5.0,-5.0,-52.0
128.0,127.0,126.0,125.0,127.0,132.0,127.0,128.0,26.0,-99.0,-75.0,127.0,127.0,127.0,-5.0,-5.0,-52.0
128.0,127.0,126.0,125.0,127.0,132.0,127.0,128.0,26.0,-99.0,-75.0,127.0,127.0,127.0,-5.0,-5.0,-52.0
128.0,127.0,126.0,125.0,127.0,132.0,127.0,128.0,26.0,-99.0,-75.0,127.0,127.0,127.0,-5.0,-5.0,-52.0
128.0,127.0,126.0,125.0,127.0,132.0,127.0,128.0,26.0,-99.0,-75.0,127.0,127.0,127.0,-5.0,-5.0,-52.0
128.0,127.0,126.0,125.0,127.0,132.0,127.0,127.0,26.0,-99.0,-75.0,127.0,127.0,127.0,-5.0,-5.0,-52.0
128.0,127.0,126.0,125.0,127.0,132.0,127.0,128.0,26.0,-99.0,-75.0,127.0,127.0,127.0,-5.0,-5.0,-52.0
128.0,127.0,126.0,125.0,127.0,132.0,127.0,127.0,26.0,-99.0,-75.0,127.0,127.0,127.0,-5.0,-5.0,-52.0
128.0,127.0,126.0,125.0,127.0,132.0,127.0,127.0,26.0,-99.0,-75.0,127.0,127.0,127.0,-5.0,-5.0,-52.0
128.0,127.0,126.0,125.0,127.0,132.0,127.0,127.0,26.0,-99.0,-75.0,127.0,127.0,127.0,-5.0,-5.0,-52.0
128.0,127.0,126.0,125.0,127.0,132.0,127.0,128.0,26.0,-99.0,-75.0,127.0,127.0,127.0,-5.0,-5.0,-52.0
128.0,127.0,126.0,125.0,127.0,132.0,127.0,127.0,26.0,-99.0,-75.0,127.0,127.0,127.0,-5.0,-5.0,-52.0
128.0,127.0,126.0,125.0,127.0,132.0,127.0,128.0,26.0,-99.0,-75.0,127.0,127.0,127.0,-5.0,-5.0,-52.0
128.0,127.0,126.0,125.0,127.0,132.0,127.0,128.0,26.0,-99.0,-75.0,127.0,127.0,127.0,-5.0,-5.0,-52.0
128.0,128.0,125.0,126.0,127.0,132.0,127.0,128.0,26.0,-99.0,-75.0,127.0,127.0,127.0,-5.0,-5.0,-52.0
128.0,128.0,125.0,126.0,127.0,132.0,127.0,128.0,26.0,-99.0,-75.0,127.0,127.0,127.0,-5.0,-5.0,-52.0
128.0,128.0,125.0,125.0,127.0,132.0,127.0,127.0,26.0,-99.0,-75.0,127.0,127.0,127.0,-5.0,-5.0,-52.0
128.0,128.0,125.0,126.0,127.0,132.0,127.0,128.0,26.0,-99.0,-75.0,127.0,127.0,127.0,-5.0,-5.0,-52.0
128.0,128.0,125.0,126.0,127.0,132.0,127.0,128.0,26.0,-99.0,-75.0,127.0,127.0,127.0,-5.0,-5.0,-52.0
128.0,128.0,126.0,126.0,127.0,132.0,127.0,128.0,26.0,-99.0,-75.0,127.0,127.0,127.0,-5.0,-5.0,-52.0
128.0,127.0,126.0,125.0,127.0,132.0,127.0,128.0,26.0,-99.0,-75.0,127.0,127.0,127.0,-5.0,-5.0,-52.0
128.0,127.0,126.0,125.0,127.0,132.0,127.0,128.0,26.0,-99.0,-75.0,127.0,127.0,127.0,-5.0,-5.0,-52.0
128.0,127.0,126.0,126.0,127.0,132.0,127.0,128.0,26.0,-99.0,-75.0,127.0,127.0,127.0,-5.0,-5.0,-52.0
128.0,128.0,125.0,125.0,127.0,132.0,127.0,128.0,26.0,-99.0,-75.0,127.0,127.0,127.0,-5.0,-5.0,-52.0
128.0,127.0,126.0,125.0,127.0,132.0,127.0,128.0,26.0,-99.0,-75.0,127.0,127.0,127.0,-5.0,-5.0,-52.0
128.0,127.0,126.0,125.0,127.0,132.0,127.0,128.0,26.0,-99.0,-75.0,127.0,127.0,127.0,-5.0,-5.0,-52.0
128.0,128.0,125.0,125.0,127.0,132.0,127.0,128.0,26.0,-99.0,-75.0,127.0,127.0,127.0,-5.0,-5.0,-52.0
128.0,128.0,126.0,125.0,127.0,132.0,127.0,128.0,26.0,-99.0,-75.0,127.0,127.0,127.0,-5.0,-5.0,-52.0
128.0,127.0,126.0,125.0,127.0,132.0,127.0,128.0,26.0,-99.0,-75.0,127.0,127.0,127.0,-5.0,-5.0,-52.0
128.0,127.0,126.0,125.0,127.0,132.0,127.0,128.0,26.0,-99.0,-75.0,127.0,127.0,127.0,-5.0,-5.0,-52.0
128.0,127.0,126.0,125.0,127.0,132.0,127.0,128.0,26.0,-99.0,-75.0,127.0,127.0,127.0,-5.0,-5.0,-52.0
128.0,128.0,125.0,125.0,127.0,132.0,127.0,128.0,26.0,-99.0,-75.0,127.0,127.0,127.0,-5.0,-5.0,-52.0
128.0,128.0,126.0,125.0,127.0,132.0,127.0,128.0,26.0,-99.0,-75.0,127.0,127.0,127.0,-5.0,-5.0,-52.0
128.0,127.0,126.0,125.0,127.0,132.0,127.0,128.0,26.0,-99.0,-75.0,127.0,127.0,127.0,-5.0,-5.0,-52.0
128.0,128.0,126.0,125.0,127.0,132.0,126.0,128.0,26.0,-99.0,-75.0,127.0,127.0,127.0,-5.0,-5.0,-52.0
128.0,128.0,126.0,125.0,127.0,132.0,126.0,128.0,26.0,-99.0,-75.0,127.0,127.0,127.0,-5.0,-5.0,-52.0
127.0,128.0,126.0,125.0,127.0,132.0,126.0,128.0,26.0,-99.0,-75.0,127.0,127.0,127.0,-5.0,-5.0,-52.0
128.0,128.0,126.0,125.0,127.0,132.0,126.0,128.0,26.0,-99.0,-75.0,127.0,127.0,127.0,-5.0,-5.0,-52.0
128.0,128.0,125.0,125.0,127.0,132.0,126.0,127.0,26.0,-99.0,-75.0,127.0,127.0,127.0,-5.0,-5.0,-52.0
128.0,128.0,126.0,125.0,127.0,132.0,126.0,128.0,26.0,-99.0,-75.0,127.0,127.0,127.0,-5.0,-5.0,-52.0
128.0,128.0,126.0,125.0,127.0,132.0,127.0,128.0,26.0,-99.0,-75.0,127.0,127.0,127.0,-5.0,-5.0,-52.0
128.0,128.0,126.0,125.0,127.0,132.0,127.0,128.0,26.0,-99.0,-75.0,127.0,127.0,127.0,-5.0,-5.0,-52.0
128.0,128.0,126.0,125.0,127.0,132.0,126.0,128.0,26.0,-99.0,-75.0,127.0,127.0,127.0,-5.0,-5.0,-52.0
128.0,128.0,126.0,125.0,127.0,132.0,126.0,128.0,26.0,-99.0,-75.0,127.0,127.0,127.0,-5.0,-5.0,-52.0
128.0,128.0,125.0,126.0,127.0,132.0,126.0,128.0,26.0,-100.0,-75.0,127.0,127.0,127.0,-5.0,-5.0,-52.0
128.0,128.0,125.0,126.0,127.0,132.0,126.0,128.0,26.0,-100.0,-75.0,127.0,127.0,127.0,-5.0,-5.0,-52.0
128.0,128.0,125.0,126.0,127.0,132.0,126.0,128.0,26.0,-100.0,-75.0,127.0,127.0,127.0,-5.0,-5.0,-52.0
128.0,128.0,125.0,126.0,127.0,132.0,126.0,128.0,26.0,-100.0,-75.0,127.0,127.0,127.0,-5.0,-5.0,-52.0
128.0,128.0,125.0,126.0,127.0,132.0,126.0,128.0,26.0,-100.0,-75.0,127.0,127.0,127.0,-5.0,-5.0,-52.0
128.0,128.0,125.0,126.0,127.0,132.0,126.0,128.0,26.0,-100.0,-75.0,127.0,127.0,127.0,-5.0,-5.0,-52.0
128.0,128.0,125.0,126.0,127.0,132.0,126.0,128.0,26.0,-100.0,-75.0,127.0,127.0,127.0,-5.0,-5.0,-52.0
127.0,128.0,125.0,126.0,127.0,132.0,126.0,128.0,26.0,-100.0,-75.0,127.0,127.0,127.0,-5.0,-5.0,-52.0
128.0,128.0,125.0,126.0,127.0,132.0,126.0,128.0,26.0,-100.0,-75.0,127.0,127.0,127.0,-5.0,-5.0,-52.0
128.0,128.0,125.0,126.0,127.0,132.0,126.0,128.0,26.0,-100.0,-75.0,127.0,127.0,127.0,-5.0,-5.0,-52.0
128.0,127.0,126.0,126.0,127.0,132.0,127.0,128.0,25.0,-100.0,-75.0,127.0,127.0,127.0,-5.0,-5.0,-52.0
128.0,127.0,126.0,126.0,127.0,131.0,127.0,128.0,25.0,-100.0,-75.0,127.0,127.0,127.0,-5.0,-5.0,-52.0
128.0,127.0,126.0,126.0,126.0,131.0,127.0,128.0,25.0,-100.0,-75.0,127.0,127.0,127.0,-5.0,-5.0,-52.0
128.0,127.0,126.0,126.0,127.0,131.0,127.0,128.0,25.0,-100.0,-75.0,127.0,127.0,127.0,-5.0,-5.0,-52.0
128.0,128.0,126.0,126.0,127.0,132.0,127.0,128.0,25.0,-100.0,-75.0,127.0,127.0,127.0,-5.0,-5.0,-52.0
128.0,127.0,126.0,126.0,127.0,131.0,127.0,128.0,25.0,-100.0,-75.0,127.0,127.0,127.0,-5.0,-5.0,-52.0
128.0,127.0,126.0,126.0,127.0,131.0,127.0,128.0,25.0,-100.0,-75.0,127.0,127.0,127.0,-5.0,-5.0,-52.0
128.0,127.0,126.0,126.0,127.0,131.0,127.0,128.0,25.0,-100.0,-75.0,127.0,127.0,127.0,-5.0,-5.0,-52.0
128.0,127.0,126.0,126.0,127.0,131.0,127.0,128.0,25.0,-100.0,-75.0,127.0,127.0,127.0,-5.0,-5.0,-52.0
128.0,127.0,126.0,126.0,127.0,131.0,127.0,127.0,25.0,-100.0,-75.0,127.0,127.0,127.0,-5.0,-5.0,-52.0
128.0,128.0,127.0,126.0,127.0,132.0,127.0,128.0,25.0,-100.0,-75.0,127.0,127.0,127.0,-5.0,-5.0,-52.0
128.0,128.0,127.0,126.0,127.0,132.0,127.0,128.0,25.0,-100.0,-75.0,127.0,127.0,127.0,-5.0,-5.0,-52.0
128.0,128.0,127.0,126.0,127.0,132.0,127.0,128.0,25.0,-100.0,-75.0,127.0,127.0,127.0,-5.0,-5.0,-52.0
128.0,128.0,126.0,126.0,127.0,132.0,127.0,128.0,25.0,-100.0,-75.0,127.0,127.0,127.0,-5.0,-5.0,-52.0
128.0,128.0,126.0,126.0,127.0,132.0,127.0,128.0,25.0,-100.0,-75.0,127.0,127.0,127.0,-5.0,-5.0,-52.0
128.0,128.0,126.0,126.0,127.0,132.0,127.0,128.0,25.0,-100.0,-75.0,127.0,127.0,127.0,-5.0,-5.0,-52.0
128.0,128.0,127.0,126.0,127.0,132.0,127.0,128.0,25.0,-100.0,-75.0,127.0,127.0,127.0,-5.0,-5.0,-52.0
128.0,128.0,127.0,126.0,127.0,132.0,127.0,128.0,25.0,-100.0,-75.0,127.0,127.0,127.0,-5.0,-5.0,-52.0
128.0,128.0,127.0,126.0,127.0,132.0,127.0,128.0,25.0,-100.0,-75.0,127.0,127.0,127.0,-5.0,-5.0,-52.0
128.0,128.0,126.0,126.0,127.0,132.0,127.0,128.0,25.0,-100.0,-75.0,127.0,127.0,127.0,-5.0,-5.0,-52.0
128.0,128.0,126.0,125.0,127.0,132.0,127.0,127.0,25.0,-99.0,-75.0,127.0,127.0,127.0,-5.0,-5.0,-52.0
128.0,128.0,126.0,126.0,127.0,132.0,127.0,128.0,25.0,-99.0,-75.0,127.0,127.0,127.0,-5.0,-5.0,-52.0
128.0,128.0,126.0,126.0,127.0,132.0,127.0,128.0,25.0,-99.0,-75.0,127.0,127.0,127.0,-5.0,-5.0,-52.0
128.0,128.0,126.0,126.0,127.0,132.0,127.0,128.0,25.0,-99.0,-75.0,127.0,127.0,127.0,-5.0,-5.0,-52.0
128.0,128.0,126.0,126.0,127.0,132.0,127.0,128.0,25.0,-99.0,-75.0,127.0,127.0,127.0,-5.0,-5.0,-52.0
128.0,127.0,126.0,126.0,127.0,132.0,127.0,128.0,25.0,-99.0,-75.0,127.0,127.0,127.0,-5.0,-5.0,-52.0
128.0,128.0,126.0,126.0,127.0,132.0,127.0,128.0,25.0,-99.0,-75.0,127.0,127.0,127.0,-5.0,-5.0,-52.0
128.0,128.0,126.0,125.0,127.0,132.0,127.0,127.0,25.0,-99.0,-75.0,127.0,127.0,127.0,-5.0,-5.0,-52.0
128.0,128.0,126.0,125.0,127.0,132.0,127.0,128.0,25.0,-99.0,-75.0,127.0,127.0,127.0,-5.0,-5.0,-52.0
128.0,128.0,126.0,125.0,127.0,132.0,127.0,128.0,25.0,-99.0,-75.0,127.0,127.0,127.0,-5.0,-5.0,-52.0
128.0,128.0,125.0,126.0,127.0,133.0,126.0,128.0,25.0,-99.0,-75.0,127.0,127.0,127.0,-5.0,-5.0,-52.0
128.0,128.0,125.0,126.0,127.0,132.0,126.0,128.0,25.0,-99.0,-75.0,127.0,127.0,127.0,-5.0,-5.0,-52.0
128.0,128.0,125.0,126.0,127.0,132.0,126.0,128.0,25.0,-99.0,-75.0,127.0,127.0,127.0,-5.0,-5.0,-52.0
128.0,128.0,125.0,126.0,127.0,132.0,126.0,128.0,25.0,-99.0,-75.0,127.0,127.0,127.0,-5.0,-5.0,-52.0
128.0,128.0,125.0,126.0,127.0,133.0,126.0,128.0,25.0,-99.0,-75.0,127.0,127.0,127.0,-5.0,-5.0,-52.0
128.0,128.0,125.0,126.0,127.0,133.0,126.0,128.0,25.0,-99.0,-75.0,127.0,127.0,127.0,-5.0,-5.0,-52.0
128.0,128.0,125.0,126.0,127.0,133.0,126.0,128.0,25.0,-99.0,-75.0,127.0,127.0,127.0,-5.0,-5.0,-52.0
128.0,128.0,125.0,126.0,127.0,133.0,126.0,128.0,25.0,-99.0,-75.0,127.0,127.0,127.0,-5.0,-5.0,-52.0
128.0,128.0,125.0,126.0,127.0,133.0,126.0,128.0,25.0,-99.0,-75.0,127.0,127.0,127.0,-5.0,-5.0,-52.0
128.0,128.0,125.0,126.0,127.0,133.0,126.0,128.0,25.0,-99.0,-75.0,127.0,127.0,127.0,-5.0,-5.0,-52.0
128.0,127.0,126.0,126.0,127.0,131.0,127.0,127.0,25.0,-99.0,-76.0,127.0,127.0,127.0,-5.0,-5.0,-52.0
128.0,127.0,126.0,126.0,127.0,132.0,127.0,127.0,25.0,-99.0,-76.0,127.0,127.0,127.0,-5.0,-5.0,-52.0
127.0,127.0,126.0,126.0,127.0,132.0,127.0,127.0,25.0,-99.0,-76.0,127.0,127.0,127.0,-5.0,-5.0,-52.0
127.0,128.0,125.0,126.0,127.0,132.0,127.0,127.0,25.0,-99.0,-76.0,127.0,127.0,127.0,-5.0,-5.0,-52.0
128.0,128.0,126.0,126.0,127.0,132.0,127.0,127.0,25.0,-99.0,-76.0,127.0,127.0,127.0,-5.0,-5.0,-52.0
128.0,128.0,126.0,126.0,127.0,132.0,127.0,127.0,25.0,-99.0,-76.0,127.0,127.0,127.0,-5.0,-5.0,-52.0
128.0,128.0,126.0,126.0,127.0,132.0,127.0,127.0,25.0,-99.0,-76.0,127.0,127.0,127.0,-5.0,-5.0,-52.0
128.0,128.0,126.0,126.0,127.0,132.0,127.0,127.0,25.0,-99.0,-76.0,127.0,127.0,127.0,-5.0,-5.0,-52.0
128.0,127.0,126.0,126.0,127.0,132.0,127.0,127.0,25.0,-99.0,-76.0,127.0,127.0,127.0,-5.0,-5.0,-52.0
128.0,127.0,126.0,126.0,127.0,132.0,127.0,127.0,25.0,-99.0,-76.0,127.0,127.0,127.0,-5.0,-5.0,-52.0
128.0,128.0,125.0,126.0,127.0,132.0,127.0,128.0,25.0,-99.0,-76.0,127.0,127.0,127.0,-5.0,-5.0,-52.0
128.0,128.0,125.0,126.0,127.0,132.0,127.0,128.0,25.0,-99.0,-76.0,127.0,127.0,127.0,-5.0,-5.0,-52.0
128.0,128.0,126.0,126.0,127.0,132.0,127.0,128.0,25.0,-99.0,-76.0,127.0,127.0,127.0,-5.0,-5.0,-52.0
128.0,128.0,126.0,126.0,127.0,132.0,127.0,128.0,25.0,-99.0,-76.0,127.0,127.0,127.0,-5.0,-5.0,-52.0
128.0,128.0,126.0,126.0,127.0,132.0,127.0,128.0,25.0,-99.0,-76.0,127.0,127.0,127.0,-5.0,-5.0,-52.0
128.0,128.0,126.0,126.0,127.0,132.0,127.0,128.0,25.0,-99.0,-76.0,127.0,127.0,127.0,-5.0,-5.0,-52.0
128.0,128.0,126.0,126.0,127.0,132.0,127.0,128.0,25.0,-99.0,-76.0,127.0,127.0,127.0,-5.0,-5.0,-52.0
128.0,128.0,126.0,126.0,127.0,132.0,127.0,128.0,25.0,-99.0,-76.0,127.0,127.0,127.0,-5.0,-5.0,-52.0
128.0,127.0,126.0,126.0,127.0,132.0,127.0,128.0,25.0,-99.0,-76.0,127.0,127.0,127.0,-5.0,-5.0,-52.0
128.0,128.0,125.0,126.0,127.0,132.0,127.0,128.0,25.0,-99.0,-76.0,127.0,127.0,127.0,-5.0,-5.0,-52.0
128.0,128.0,126.0,126.0,127.0,132.0,127.0,128.0,25.0,-100.0,-76.0,127.0,127.0,127.0,-5.0,-5.0,-52.0
128.0,128.0,126.0,126.0,127.0,132.0,127.0,128.0,25.0,-100.0,-76.0,127.0,127.0,127.0,-5.0,-5.0,-52.0
128.0,128.0,126.0,126.0,127.0,132.0,127.0,127.0,25.0,-100.0,-76.0,127.0,127.0,127.0,-5.0,-5.0,-52.0
128.0,128.0,126.0,126.0,127.0,132.0,127.0,127.0,25.0,-100.0,-76.0,127.0,127.0,127.0,-5.0,-5.0,-52.0
128.0,128.0,126.0,126.0,127.0,132.0,127.0,127.0,25.0,-100.0,-76.0,127.0,127.0,127.0,-5.0,-5.0,-52.0
128.0,128.0,126.0,126.0,127.0,132.0,127.0,127.0,25.0,-100.0,-76.0,127.0,127.0,127.0,-5.0,-5.0,-52.0
128.0,128.0,126.0,126.0,127.0,132.0,127.0,127.0,25.0,-100.0,-76.0,127.0,127.0,127.0,-5.0,-5.0,-52.0
128.0,128.0,126.0,126.0,127.0,132.0,127.0,127.0,25.0,-100.0,-76.0,127.0,127.0,127.0,-5.0,-5.0,-52.0
128.0,128.0,126.0,126.0,127.0,132.0,127.0,127.0,25.0,-100.0,-76.0,127.0,127.0,127.0,-5.0,-5.0,-52.0
128.0,128.0,126.0,126.0,127.0,132.0,127.0,128.0,25.0,-100.0,-76.0,127.0,127.0,127.0,-5.0,-5.0,-52.0
127.0,128.0,125.0,125.0,127.0,132.0,126.0,127.0,25.0,-100.0,-76.0,127.0,127.0,127.0,-5.0,-5.0,-52.0
128.0,128.0,125.0,125.0,127.0,132.0,126.0,128.0,25.0,-100.0,-76.0,127.0,127.0,127.0,-5.0,-5.0,-52.0
128.0,128.0,125.0,125.0,127.0,132.0,126.0,128.0,25.0,-100.0,-76.0,127.0,127.0,127.0,-5.0,-5.0,-52.0
128.0,128.0,125.0,125.0,127.0,132.0,127.0,128.0,25.0,-100.0,-76.0,127.0,127.0,127.0,-5.0,-5.0,-52.0
128.0,128.0,125.0,125.0,127.0,132.0,126.0,127.0,25.0,-100.0,-76.0,127.0,127.0,127.0,-5.0,-5.0,-52.0
128.0,128.0,125.0,125.0,127.0,132.0,127.0,128.0,25.0,-100.0,-76.0,127.0,127.0,127.0,-5.0,-5.0,-52.0
128.0,128.0,125.0,125.0,127.0,132.0,127.0,127.0,25.0,-100.0,-76.0,127.0,127.0,127.0,-5.0,-5.0,-52.0
127.0,128.0,125.0,125.0,127.0,132.0,126.0,128.0,25.0,-100.0,-76.0,127.0,127.0,127.0,-5.0,-5.0,-52.0
128.0,128.0,125.0,125.0,127.0,132.0,126.0,128.0,25.0,-100.0,-76.0,127.0,127.0,127.0,-5.0,-5.0,-52.0
128.0,128.0,125.0,125.0,127.0,132.0,126.0,128.0,25.0,-100.0,-76.0,127.0,127.0,127.0,-5.0,-5.0,-52.0
128.0,128.0,125.0,125.0,127.0,132.0,127.0,128.0,25.0,-100.0,-76.0,127.0,127.0,127.0,-5.0,-5.0,-52.0
128.0,128.0,125.0,125.0,127.0,132.0,127.0,128.0,25.0,-100.0,-76.0,127.0,127.0,127.0,-5.0,-5.0,-52.0
128.0,128.0,126.0,125.0,127.0,132.0,127.0,128.0,25.0,-100.0,-76.0,127.0,127.0,127.0,-5.0,-5.0,-52.0
128.0,127.0,126.0,125.0,127.0,132.0,127.0,128.0,25.0,-100.0,-76.0,127.0,127.0,127.0,-5.0,-5.0,-52.0
128.0,127.0,126.0,125.0,127.0,132.0,127.0,128.0,25.0,-100.0,-76.0,127.0,127.0,127.0,-5.0,-5.0,-52.0
128.0,128.0,125.0,125.0,127.0,132.0,127.0,128.0,25.0,-100.0,-76.0,127.0,127.0,127.0,-5.0,-5.0,-52.0
128.0,128.0,125.0,125.0,127.0,132.0,127.0,128.0,25.0,-100.0,-76.0,127.0,127.0,127.0,-5.0,-5.0,-52.0
128.0,128.0,126.0,125.0,127.0,132.0,127.0,128.0,25.0,-100.0,-76.0,127.0,127.0,127.0,-5.0,-5.0,-52.0
128.0,128.0,126.0,125.0,127.0,132.0,127.0,128.0,25.0,-100.0,-76.0,127.0,127.0,127.0,-5.0,-5.0,-52.0
128.0,128.0,125.0,125.0,127.0,132.0,127.0,128.0,25.0,-100.0,-76.0,127.0,127.0,127.0,-5.0,-5.0,-52.0
128.0,128.0,125.0,126.0,127.0,132.0,127.0,127.0,25.0,-100.0,-76.0,127.0,127.0,127.0,-5.0,-5.0,-52.0
128.0,128.0,125.0,125.0,127.0,132.0,126.0,127.0,25.0,-100.0,-76.0,127.0,127.0,127.0,-5.0,-5.0,-52.0
128.0,128.0,125.0,126.0,127.0,132.0,126.0,128.0,25.0,-100.0,-76.0,127.0,127.0,127.0,-5.0,-5.0,-52.0
128.0,128.0,125.0,126.0,127.0,132.0,127.0,128.0,25.0,-100.0,-76.0,127.0,127.0,127.0,-5.0,-5.0,-52.0
128.0,128.0,125.0,126.0,127.0,132.0,126.0,128.0,25.0,-100.0,-76.0,127.0,127.0,127.0,-5.0,-5.0,-52.0
128.0,128.0,125.0,125.0,127.0,132.0,126.0,127.0,25.0,-100.0,-76.0,127.0,127.0,127.0,-5.0,-5.0,-52.0
128.0,128.0,125.0,126.0,127.0,132.0,126.0,128.0,25.0,-100.0,-76.0,127.0,127.0,127.0,-5.0,-5.0,-52.0
128.0,128.0,125.0,126.0,127.0,132.0,126.0,128.0,25.0,-100.0,-76.0,127.0,127.0,127.0,-5.0,-5.0,-52.0
128.0,128.0,125.0,125.0,127.0,132.0,126.0,127.0,25.0,-100.0,-76.0,127.0,127.0,127.0,-5.0,-5.0,-52.0
128.0,128.0,125.0,126.0,127.0,132.0,126.0,127.0,25.0,-100.0,-76.0,127.0,127.0,127.0,-5.0,-5.0,-52.0
128.0,127.0,126.0,126.0,126.0,131.0,127.0,128.0,25.0,-100.0,-76.0,127.0,127.0,127.0,-5.0,-5.0,-52.0
127.0,127.0,126.0,126.0,126.0,131.0,127.0,128.0,25.0,-100.0,-76.0,127.0,127.0,127.0,-5.0,-5.0,-52.0
128.0,127.0,126.0,126.0,126.0,131.0,127.0,128.0,25.0,-100.0,-76.0,127.0,127.0,127.0,-5.0,-5.0,-52.0
128.0,128.0,126.0,126.0,127.0,132.0,127.0,128.0,25.0,-100.0,-76.0,127.0,127.0,127.0,-5.0,-5.0,-52.0
127.0,128.0,125.0,126.0,127.0,132.0,127.0,128.0,25.0,-100.0,-76.0,127.0,127.0,127.0,-5.0,-5.0,-52.0
128.0,128.0,125.0,126.0,127.0,132.0,127.0,128.0,25.0,-100.0,-76.0,127.0,127.0,127.0,-5.0,-5.0,-52.0
128.0,128.0,126.0,126.0,127.0,132.0,127.0,128.0,25.0,-100.0,-76.0,127.0,127.0,127.0,-5.0,-5.0,-52.0
128.0,127.0,126.0,126.0,127.0,131.0,127.0,128.0,25.0,-100.0,-76.0,127.0,127.0,127.0,-5.0,-5.0,-52.0
128.0,127.0,126.0,126.0,126.0,131.0,127.0,128.0,25.0,-100.0,-76.0,127.0,127.0,127.0,-5.0,-5.0,-52.0
128.0,127.0,126.0,126.0,126.0,131.0,127.0,128.0,25.0,-100.0,-76.0,127.0,127.0,127.0,-5.0,-5.0,-52.0
128.0,127.0,126.0,126.0,127.0,131.0,127.0,128.0,25.0,-100.0,-76.0,127.0,127.0,127.0,-5.0,-5.0,-52.0
128.0,127.0,126.0,126.0,127.0,131.0,127.0,128.0,25.0,-100.0,-76.0,127.0,127.0,127.0,-5.0,-5.0,-52.0
128.0,128.0,126.0,126.0,127.0,132.0,127.0,128.0,25.0,-100.0,-76.0,127.0,127.0,127.0,-5.0,-5.0,-52.0
128.0,128.0,126.0,126.0,127.0,132.0,127.0,128.0,25.0,-100.0,-76.0,127.0,127.0,127.0,-5.0,-5.0,-52.0
128.0,128.0,126.0,126.0,127.0,132.0,127.0,128.0,25.0,-100.0,-76.0,127.0,127.0,127.0,-5.0,-5.0,-52.0
128.0,128.0,126.0,126.0,127.0,132.0,127.0,128.0,25.0,-100.0,-76.0,127.0,127.0,127.0,-5.0,-5.0,-52.0
128.0,128.0,126.0,126.0,127.0,132.0,127.0,128.0,25.0,-100.0,-76.0,127.0,127.0,127.0,-5.0,-5.0,-52.0
128.0,128.0,126.0,126.0,127.0,132.0,127.0,128.0,25.0,-100.0,-76.0,127.0,127.0,127.0,-5.0,-5.0,-52.0
128.0,128.0,126.0,126.0,127.0,132.0,127.0,128.0,25.0,-100.0,-76.0,127.0,127.0,127.0,-5.0,-5.0,-52.0
128.0,128.0,126.0,126.0,127.0,132.0,127.0,128.0,25.0,-100.0,-76.0,127.0,127.0,127.0,-5.0,-5.0,-52.0
128.0,128.0,125.0,126.0,127.0,132.0,127.0,128.0,25.0,-100.0,-76.0,127.0,127.0,127.0,-5.0,-5.0,-52.0
128.0,128.0,125.0,126.0,127.0,131.0,127.0,128.0,25.0,-100.0,-76.0,127.0,127.0,127.0,-5.0,-5.0,-52.0
128.0,128.0,125.0,126.0,127.0,131.0,127.0,128.0,25.0,-100.0,-76.0,127.0,127.0,127.0,-5.0,-5.0,-52.0
128.0,128.0,125.0,126.0,127.0,132.0,127.0,128.0,25.0,-100.0,-76.0,127.0,127.0,127.0,-5.0,-5.0,-52.0
128.0,128.0,125.0,126.0,127.0,132.0,127.0,128.0,25.0,-100.0,-76.0,127.0,127.0,127.0,-5.0,-5.0,-52.0
128.0,128.0,125.0,126.0,127.0,132.0,127.0,128.0,25.0,-100.0,-76.0,127.0,127.0,127.0,-5.0,-5.0,-52.0
128.0,128.0,125.0,126.0,127.0,131.0,127.0,128.0,25.0,-100.0,-76.0,127.0,127.0,127.0,-5.0,-5.0,-52.0
128.0,128.0,125.0,126.0,127.0,132.0,127.0,128.0,25.0,-100.0,-76.0,127.0,127.0,127.0,-5.0,-5.0,-52.0
128.0,128.0,125.0,126.0,127.0,132.0,127.0,128.0,25.0,-100.0,-76.0,127.0,127.0,127.0,-5.0,-5.0,-52.0
128.0,128.0,125.0,126.0,127.0,132.0,127.0,128.0,25.0,-100.0,-76.0,127.0,127.0,127.0,-5.0,-5.0,-52.0
127.0,128.0,126.0,126.0,127.0,131.0,127.0,127.0,25.0,-100.0,-76.0,127.0,127.0,127.0,-5.0,-5.0,-52.0
127.0,128.0,126.0,126.0,127.0,131.0,127.0,127.0,25.0,-100.0,-76.0,127.0,127.0,127.0,-5.0,-5.0,-52.0
127.0,128.0,125.0,126.0,127.0,131.0,127.0,127.0,25.0,-100.0,-76.0,127.0,127.0,127.0,-5.0,-5.0,-52.0
127.0,128.0,125.0,126.0,127.0,131.0,127.0,128.0,25.0,-100.0,-76.0,127.0,127.0,127.0,-5.0,-5.0,-52.0
127.0,128.0,125.0,126.0,127.0,131.0,127.0,128.0,25.0,-100.0,-76.0,127.0,127.0,127.0,-5.0,-5.0,-52.0
127.0,127.0,126.0,126.0,127.0,131.0,127.0,127.0,25.0,-100.0,-76.0,127.0,127.0,127.0,-5.0,-5.0,-52.0
127.0,127.0,126.0,126.0,127.0,131.0,127.0,127.0,25.0,-100.0,-76.0,127.0,127.0,127.0,-5.0,-5.0,-52.0
128.0,127.0,126.0,126.0,127.0,131.0,127.0,128.0,25.0,-100.0,-76.0,127.0,127.0,127.0,-5.0,-5.0,-52.0
128.0,127.0,126.0,126.0,127.0,131.0,127.0,128.0,25.0,-100.0,-76.0,127.0,127.0,127.0,-5.0,-5.0,-52.0
127.0,127.0,126.0,126.0,127.0,131.0,127.0,127.0,25.0,-100.0,-76.0,127.0,127.0,127.0,-5.0,-5.0,-52.0
128.0,128.0,125.0,126.0,127.0,131.0,127.0,127.0,25.0,-100.0,-76.0,127.0,127.0,127.0,-5.0,-5.0,-52.0
128.0,128.0,125.0,126.0,127.0,132.0,127.0,127.0,25.0,-100.0,-76.0,127.0,127.0,127.0,-5.0,-5.0,-52.0
128.0,128.0,125.0,126.0,127.0,132.0,127.0,128.0,25.0,-100.0,-76.0,127.0,127.0,127.0,-5.0,-5.0,-52.0
128.0,128.0,125.0,126.0,127.0,132.0,127.0,128.0,25.0,-100.0,-76.0,127.0,127.0,127.0,-5.0,-5.0,-52.0
128.0,128.0,125.0,126.0,127.0,131.0,127.0,128.0,25.0,-100.0,-76.0,127.0,127.0,127.0,-5.0,-5.0,-52.0
128.0,128.0,125.0,126.0,127.0,131.0,127.0,128.0,25.0,-100.0,-76.0,127.0,127.0,127.0,-5.0,-5.0,-52.0
128.0,128.0,126.0,126.0,127.0,131.0,127.0,128.0,25.0,-100.0,-76.0,127.0,127.0,127.0,-5.0,-5.0,-52.0
128.0,127.0,126.0,126.0,127.0,131.0,127.0,128.0,25.0,-100.0,-76.0,127.0,127.0,127.0,-5.0,-5.0,-52.0
128.0,127.0,126.0,126.0,127.0,131.0,127.0,127.0,25.0,-100.0,-76.0,127.0,127.0,127.0,-5.0,-5.0,-52.0
128.0,128.0,125.0,126.0,127.0,131.0,127.0,127.0,25.0,-100.0,-76.0,127.0,127.0,127.0,-5.0,-5.0,-52.0
128.0,127.0,126.0,126.0,127.0,132.0,127.0,128.0,25.0,-100.0,-76.0,127.0,127.0,127.0,-5.0,-5.0,-52.0
128.0,127.0,126.0,126.0,127.0,132.0,127.0,128.0,25.0,-100.0,-76.0,127.0,127.0,127.0,-5.0,-5.0,-52.0
128.0,127.0,126.0,126.0,127.0,132.0,127.0,128.0,25.0,-100.0,-76.0,127.0,127.0,127.0,-5.0,-5.0,-52.0
128.0,127.0,126.0,126.0,127.0,131.0,127.0,128.0,25.0,-100.0,-76.0,127.0,127.0,127.0,-5.0,-5.0,-52.0
128.0,127.0,126.0,126.0,127.0,131.0,127.0,128.0,25.0,-100.0,-76.0,127.0,127.0,127.0,-5.0,-5.0,-52.0
128.0,127.0,126.0,126.0,127.0,131.0,127.0,128.0,25.0,-100.0,-76.0,127.0,127.0,127.0,-5.0,-5.0,-52.0
128.0,127.0,126.0,126.0,127.0,131.0,127.0,128.0,25.0,-100.0,-76.0,127.0,127.0,127.0,-5.0,-5.0,-52.0
128.0,127.0,127.0,126.0,126.0,131.0,127.0,128.0,25.0,-100.0,-76.0,127.0,127.0,127.0,-5.0,-5.0,-52.0
128.0,128.0,126.0,126.0,127.0,132.0,127.0,128.0,25.0,-100.0,-76.0,127.0,127.0,127.0,-5.0,-5.0,-52.0
128.0,127.0,126.0,126.0,127.0,132.0,127.0,128.0,25.0,-100.0,-76.0,127.0,127.0,127.0,-5.0,-5.0,-52.0
127.0,127.0,126.0,126.0,127.0,131.0,127.0,128.0,25.0,-100.0,-76.0,127.0,127.0,127.0,-5.0,-5.0,-52.0
127.0,127.0,126.0,126.0,127.0,131.0,127.0,128.0,25.0,-100.0,-76.0,127.0,127.0,127.0,-5.0,-5.0,-52.0
127.0,127.0,126.0,126.0,127.0,131.0,127.0,127.0,25.0,-100.0,-76.0,127.0,127.0,127.0,-5.0,-5.0,-52.0
127.0,128.0,126.0,126.0,127.0,132.0,127.0,128.0,25.0,-100.0,-76.0,127.0,127.0,127.0,-5.0,-5.0,-52.0
127.0,128.0,126.0,126.0,127.0,132.0,127.0,128.0,25.0,-100.0,-76.0,127.0,127.0,127.0,-5.0,-5.0,-52.0
127.0,128.0,126.0,126.0,127.0,132.0,127.0,128.0,25.0,-100.0,-76.0,127.0,127.0,127.0,-5.0,-5.0,-52.0
127.0,128.0,126.0,126.0,127.0,132.0,127.0,128.0,25.0,-100.0,-76.0,127.0,127.0,127.0,-5.0,-5.0,-52.0
127.0,128.0,126.0,126.0,127.0,132.0,127.0,128.0,25.0,-100.0,-76.0,127.0,127.0,127.0,-5.0,-5.0,-52.0
127.0,128.0,126.0,126.0,127.0,132.0,127.0,128.0,25.0,-100.0,-76.0,127.0,127.0,127.0,-5.0,-5.0,-52.0
127.0,127.0,126.0,126.0,127.0,131.0,127.0,128.0,25.0,-100.0,-76.0,127.0,127.0,127.0,-5.0,-5.0,-52.0
128.0,128.0,126.0,126.0,127.0,131.0,127.0,128.0,25.0,-100.0,-76.0,127.0,127.0,127.0,-5.0,-5.0,-52.0
128.0,127.0,127.0,126.0,127.0,131.0,127.0,128.0,25.0,-100.0,-76.0,127.0,127.0,127.0,-5.0,-5.0,-52.0
128.0,127.0,127.0,126.0,127.0,131.0,127.0,128.0,25.0,-100.0,-76.0,127.0,127.0,127.0,-5.0,-5.0,-52.0
128.0,127.0,127.0,126.0,127.0,131.0,127.0,128.0,25.0,-100.0,-76.0,127.0,127.0,127.0,-5.0,-5.0,-52.0
128.0,127.0,127.0,126.0,127.0,131.0,127.0,128.0,25.0,-100.0,-76.0,127.0,127.0,127.0,-5.0,-5.0,-52.0
128.0,128.0,127.0,126.0,127.0,131.0,127.0,128.0,25.0,-100.0,-76.0,127.0,127.0,127.0,-5.0,-5.0,-52.0
128.0,128.0,127.0,126.0,127.0,131.0,127.0,128.0,25.0,-100.0,-76.0,127.0,127.0,127.0,-5.0,-5.0,-52.0
127.0,128.0,127.0,126.0,127.0,131.0,127.0,128.0,25.0,-100.0,-76.0,127.0,127.0,127.0,-5.0,-5.0,-52.0
127.0,128.0,126.0,126.0,127.0,131.0,127.0,128.0,25.0,-100.0,-76.0,127.0,127.0,127.0,-5.0,-5.0,-52.0
128.0,128.0,126.0,126.0,127.0,131.0,127.0,128.0,25.0,-100.0,-76.0,127.0,127.0,127.0,-5.0,-5.0,-52.0
128.0,127.0,126.0,126.0,127.0,131.0,127.0,128.0,25.0,-100.0,-76.0,127.0,127.0,127.0,-5.0,-5.0,-52.0
128.0,127.0,126.0,126.0,127.0,131.0,127.0,128.0,25.0,-100.0,-76.0,127.0,127.0,127.0,-5.0,-5.0,-52.0
128.0,127.0,126.0,126.0,127.0,131.0,127.0,128.0,25.0,-100.0,-76.0,127.0,127.0,127.0,-5.0,-5.0,-52.0
128.0,127.0,126.0,126.0,127.0,131.0,127.0,127.0,25.0,-100.0,-76.0,127.0,127.0,127.0,-5.0,-5.0,-52.0
128.0,127.0,126.0,126.0,127.0,131.0,126.0,128.0,25.0,-100.0,-76.0,127.0,127.0,127.0,-5.0,-5.0,-52.0
128.0,127.0,126.0,126.0,127.0,131.0,127.0,128.0,25.0,-100.0,-76.0,127.0,127.0,127.0,-5.0,-5.0,-52.0
128.0,127.0,126.0,126.0,127.0,131.0,127.0,128.0,25.0,-100.0,-76.0,127.0,127.0,127.0,-5.0,-5.0,-52.0
128.0,127.0,126.0,126.0,127.0,131.0,127.0,128.0,25.0,-100.0,-76.0,127.0,127.0,127.0,-5.0,-5.0,-52.0
127.0,127.0,126.0,126.0,127.0,131.0,127.0,128.0,25.0,-100.0,-76.0,127.0,127.0,127.0,-5.0,-5.0,-52.0
128.0,127.0,126.0,126.0,127.0,131.0,127.0,128.0,25.0,-100.0,-76.0,127.0,127.0,127.0,-5.0,-5.0,-52.0
127.0,127.0,126.0,126.0,127.0,131.0,127.0,128.0,25.0,-100.0,-76.0,127.0,127.0,127.0,-5.0,-5.0,-52.0
127.0,127.0,126.0,126.0,127.0,131.0,127.0,128.0,25.0,-100.0,-76.0,127.0,127.0,127.0,-5.0,-5.0,-52.0
127.0,127.0,126.0,126.0,127.0,131.0,127.0,128.0,25.0,-100.0,-76.0,127.0,127.0,127.0,-5.0,-5.0,-52.0
127.0,127.0,126.0,126.0,127.0,131.0,126.0,128.0,25.0,-100.0,-76.0,127.0,127.0,127.0,-5.0,-5.0,-52.0
127.0,127.0,127.0,126.0,127.0,131.0,127.0,128.0,25.0,-100.0,-76.0,127.0,127.0,127.0,-5.0,-5.0,-52.0
127.0,127.0,126.0,126.0,127.0,131.0,127.0,128.0,25.0,-100.0,-76.0,127.0,127.0,127.0,-5.0,-5.0,-52.0
127.0,127.0,126.0,126.0,127.0,131.0,127.0,127.0,25.0,-100.0,-76.0,127.0,127.0,127.0,-5.0,-5.0,-52.0
127.0,127.0,126.0,126.0,127.0,131.0,126.0,128.0,25.0,-100.0,-76.0,127.0,127.0,127.0,-5.0,-5.0,-52.0
127.0,127.0,126.0,126.0,127.0,131.0,127.0,128.0,25.0,-100.0,-76.0,127.0,127.0,127.0,-5.0,-5.0,-52.0
128.0,127.0,126.0,126.0,127.0,131.0,127.0,128.0,25.0,-100.0,-76.0,127.0,127.0,127.0,-5.0,-5.0,-52.0
128.0,128.0,125.0,126.0,127.0,132.0,126.0,128.0,25.0,-100.0,-76.0,127.0,127.0,127.0,-5.0,-5.0,-52.0
128.0,127.0,125.0,126.0,127.0,132.0,126.0,128.0,25.0,-100.0,-76.0,127.0,127.0,127.0,-5.0,-5.0,-52.0
128.0,128.0,125.0,126.0,127.0,132.0,126.0,128.0,25.0,-100.0,-76.0,127.0,127.0,127.0,-5.0,-5.0,-52.0
128.0,128.0,125.0,126.0,127.0,132.0,126.0,128.0,25.0,-100.0,-76.0,127.0,127.0,127.0,-5.0,-5.0,-52.0
128.0,128.0,125.0,126.0,127.0,132.0,126.0,128.0,25.0,-100.0,-76.0,127.0,127.0,127.0,-5.0,-5.0,-52.0
128.0,128.0,125.0,126.0,127.0,132.0,126.0,128.0,25.0,-100.0,-76.0,127.0,127.0,127.0,-5.0,-5.0,-52.0
128.0,128.0,125.0,126.0,127.0,132.0,126.0,128.0,25.0,-100.0,-76.0,127.0,127.0,127.0,-5.0,-5.0,-52.0
128.0,128.0,125.0,126.0,127.0,132.0,126.0,128.0,25.0,-100.0,-76.0,127.0,127.0,127.0,-5.0,-5.0,-52.0
128.0,128.0,125.0,126.0,127.0,132.0,126.0,128.0,25.0,-100.0,-76.0,127.0,127.0,127.0,-5.0,-5.0,-52.0
128.0,128.0,125.0,126.0,127.0,132.0,126.0,128.0,25.0,-100.0,-76.0,127.0,127.0,127.0,-5.0,-5.0,-52.0
128.0,127.0,127.0,126.0,126.0,131.0,127.0,127.0,25.0,-100.0,-76.0,127.0,127.0,127.0,-5.0,-5.0,-52.0
128.0,127.0,127.0,126.0,126.0,131.0,127.0,127.0,25.0,-100.0,-76.0,127.0,127.0,127.0,-5.0,-5.0,-52.0
128.0,127.0,126.0,126.0,127.0,131.0,126.0,128.0,25.0,-100.0,-76.0,127.0,127.0,127.0,-5.0,-5.0,-52.0
128.0,127.0,126.0,126.0,127.0,132.0,127.0,128.0,25.0,-100.0,-76.0,127.0,127.0,127.0,-5.0,-5.0,-52.0
128.0,127.0,126.0,126.0,127.0,131.0,127.0,128.0,25.0,-100.0,-76.0,127.0,127.0,127.0,-5.0,-5.0,-52.0
128.0,127.0,126.0,126.0,127.0,131.0,127.0,128.0,25.0,-100.0,-76.0,127.0,127.0,127.0,-5.0,-5.0,-52.0
128.0,127.0,126.0,126.0,127.0,131.0,127.0,128.0,25.0,-100.0,-76.0,127.0,127.0,127.0,-5.0,-5.0,-52.0
128.0,127.0,127.0,126.0,127.0,131.0,127.0,128.0,25.0,-100.0,-76.0,127.0,127.0,127.0,-5.0,-5.0,-52.0
128.0,127.0,127.0,126.0,126.0,131.0,127.0,128.0,25.0,-100.0,-76.0,127.0,127.0,127.0,-5.0,-5.0,-52.0
128.0,127.0,127.0,126.0,126.0,131.0,127.0,128.0,25.0,-100.0,-76.0,127.0,127.0,127.0,-5.0,-5.0,-52.0
127.0,127.0,126.0,126.0,127.0,131.0,126.0,127.0,25.0,-100.0,-76.0,127.0,127.0,127.0,-5.0,-5.0,-52.0
127.0,127.0,127.0,126.0,126.0,131.0,127.0,127.0,25.0,-100.0,-76.0,127.0,127.0,127.0,-5.0,-5.0,-52.0
127.0,127.0,127.0,126.0,126.0,131.0,127.0,127.0,25.0,-100.0,-76.0,127.0,127.0,127.0,-5.0,-5.0,-52.0
127.0,127.0,127.0,126.0,126.0,131.0,127.0,127.0,25.0,-100.0,-76.0,127.0,127.0,127.0,-5.0,-5.0,-52.0
127.0,127.0,126.0,126.0,127.0,131.0,127.0,127.0,25.0,-100.0,-76.0,127.0,127.0,127.0,-5.0,-5.0,-52.0
127.0,127.0,126.0,126.0,127.0,131.0,127.0,127.0,25.0,-100.0,-76.0,127.0,127.0,127.0,-5.0,-5.0,-52.0
127.0,127.0,126.0,126.0,127.0,131.0,127.0,127.0,25.0,-100.0,-76.0,127.0,127.0,127.0,-5.0,-5.0,-52.0
127.0,127.0,126.0,126.0,127.0,131.0,127.0,127.0,25.0,-100.0,-76.0,127.0,127.0,127.0,-5.0,-5.0,-52.0
128.0,127.0,126.0,126.0,127.0,131.0,127.0,127.0,25.0,-100.0,-76.0,127.0,127.0,127.0,-5.0,-5.0,-52.0
127.0,127.0,126.0,126.0,127.0,131.0,127.0,127.0,25.0,-100.0,-76.0,127.0,127.0,127.0,-5.0,-5.0,-52.0
128.0,127.0,126.0,126.0,127.0,131.0,127.0,128.0,25.0,-100.0,-76.0,127.0,127.0,127.0,-5.0,-5.0,-52.0
