emg1,emg2,emg3,emg4,emg5,emg6,emg7,emg8,acc_x,acc_y,acc_z,gyro_x,gyro_y,gyro_z,angle_pitch,angle_roll,angle_yaw
127.0,127.0,127.0,126.0,126.0,128.0,127.0,129.0,-1.0,103.0,-82.0,127.0,127.0,127.0,-113.0,-85.0,106.0
127.0,127.0,127.0,127.0,126.0,128.0,126.0,130.0,-1.0,103.0,-82.0,127.0,127.0,127.0,-113.0,-85.0,106.0
127.0,127.0,127.0,127.0,126.0,129.0,126.0,130.0,-1.0,103.0,-82.0,127.0,127.0,127.0,-113.0,-85.0,106.0
127.0,127.0,127.0,127.0,126.0,128.0,126.0,130.0,-1.0,103.0,-82.0,127.0,127.0,127.0,-113.0,-85.0,106.0
127.0,127.0,127.0,127.0,126.0,128.0,126.0,130.0,-1.0,103.0,-82.0,127.0,127.0,127.0,-113.0,-85.0,106.0
127.0,127.0,127.0,127.0,126.0,128.0,126.0,130.0,-1.0,103.0,-82.0,127.0,127.0,127.0,-113.0,-85.0,106.0
127.0,127.0,127.0,127.0,126.0,128.0,126.0,130.0,-1.0,103.0,-82.0,127.0,127.0,127.0,-113.0,-85.0,106.0
127.0,127.0,127.0,127.0,126.0,129.0,126.0,130.0,-1.0,103.0,-82.0,127.0,127.0,127.0,-113.0,-85.0,106.0
127.0,127.0,127.0,127.0,126.0,129.0,125.0,130.0,-1.0,103.0,-82.0,127.0,127.0,127.0,-113.0,-85.0,106.0
127.0,127.0,127.0,127.0,126.0,128.0,127.0,129.0,-1.0,103.0,-82.0,127.0,127.0,127.0,-113.0,-85.0,106.0
127.0,127.0,127.0,127.0,126.0,128.0,127.0,130.0,-1.0,103.0,-82.0,127.0,127.0,127.0,-113.0,-85.0,106.0
127.0,127.0,127.0,127.0,126.0,128.0,126.0,130.0,-1.0,103.0,-82.0,127.0,127.0,127.0,-113.0,-85.0,106.0
127.0,127.0,127.0,127.0,126.0,128.0,126.0,130.0,-1.0,103.0,-82.0,127.0,127.0,127.0,-113.0,-85.0,106.0
127.0,127.0,127.0,127.0,127.0,129.0,126.0,130.0,-1.0,103.0,-82.0,127.0,127.0,127.0,-113.0,-85.0,106.0
127.0,127.0,127.0,127.0,127.0,129.0,126.0,130.0,-1.0,103.0,-82.0,127.0,127.0,127.0,-113.0,-85.0,106.0
127.0,127.0,127.0,127.0,127.0,129.0,126.0,130.0,-1.0,103.0,-82.0,127.0,127.0,127.0,-113.0,-85.0,106.0
127.0,127.0,127.0,127.0,126.0,129.0,125.0,131.0,-1.0,103.0,-82.0,127.0,127.0,127.0,-113.0,-85.0,106.0
127.0,127.0,127.0,127.0,126.0,129.0,125.0,131.0,-1.0,103.0,-82.0,127.0,127.0,127.0,-113.0,-85.0,106.0
127.0,127.0,127.0,127.0,127.0,128.0,127.0,130.0,-1.0,103.0,-82.0,127.0,127.0,127.0,-113.0,-85.0,106.0
127.0,127.0,127.0,127.0,126.0,128.0,127.0,130.0,-1.0,103.0,-82.0,127.0,127.0,127.0,-113.0,-85.0,106.0
127.0,127.0,127.0,127.0,126.0,129.0,126.0,130.0,-1.0,103.0,-82.0,127.0,127.0,127.0,-113.0,-85.0,106.0
127.0,127.0,127.0,127.0,127.0,129.0,126.0,130.0,-1.0,103.0,-82.0,127.0,127.0,127.0,-113.0,-85.0,106.0
127.0,127.0,127.0,127.0,127.0,129.0,126.0,130.0,-1.0,103.0,-82.0,127.0,127.0,127.0,-113.0,-85.0,106.0
126.0,127.0,127.0,126.0,127.0,128.0,126.0,130.0,-1.0,103.0,-82.0,127.0,127.0,127.0,-113.0,-85.0,106.0
126.0,127.0,127.0,126.0,127.0,128.0,126.0,130.0,-1.0,103.0,-82.0,127.0,127.0,127.0,-113.0,-85.0,106.0
126.0,127.0,127.0,126.0,127.0,128.0,127.0,130.0,-1.0,103.0,-82.0,127.0,127.0,127.0,-113.0,-85.0,106.0
126.0,127.0,127.0,126.0,127.0,128.0,127.0,130.0,-1.0,103.0,-82.0,127.0,127.0,127.0,-113.0,-85.0,106.0
127.0,127.0,127.0,126.0,126.0,129.0,126.0,131.0,-1.0,103.0,-82.0,127.0,127.0,127.0,-113.0,-85.0,106.0
127.0,127.0,127.0,126.0,126.0,129.0,126.0,131.0,-1.0,103.0,-82.0,127.0,127.0,127.0,-113.0,-85.0,106.0
127.0,127.0,127.0,126.0,126.0,129.0,126.0,131.0,-1.0,103.0,-82.0,127.0,127.0,127.0,-113.0,-85.0,106.0
127.0,127.0,127.0,126.0,126.0,129.0,126.0,131.0,-1.0,103.0,-82.0,127.0,127.0,127.0,-113.0,-85.0,106.0
127.0,127.0,127.0,126.0,126.0,129.0,126.0,131.0,-1.0,103.0,-82.0,127.0,127.0,127.0,-113.0,-85.0,106.0
126.0,127.0,127.0,126.0,127.0,128.0,127.0,131.0,-1.0,103.0,-82.0,127.0,127.0,127.0,-113.0,-85.0,106.0
126.0,127.0,127.0,126.0,126.0,128.0,126.0,130.0,-1.0,103.0,-82.0,127.0,127.0,127.0,-113.0,-85.0,106.0
126.0,127.0,127.0,126.0,127.0,128.0,126.0,130.0,-1.0,103.0,-82.0,127.0,127.0,127.0,-113.0,-85.0,106.0
126.0,127.0,127.0,126.0,127.0,128.0,126.0,130.0,-1.0,103.0,-82.0,127.0,127.0,127.0,-113.0,-85.0,106.0
127.0,127.0,126.0,126.0,126.0,128.0,126.0,130.0,-1.0,103.0,-82.0,127.0,127.0,127.0,-113.0,-85.0,106.0
127.0,127.0,126.0,126.0,126.0,128.0,126.0,130.0,-1.0,103.0,-82.0,127.0,127.0,127.0,-113.0,-85.0,106.0
127.0,127.0,127.0,126.0,126.0,128.0,126.0,130.0,-1.0,103.0,-82.0,127.0,127.0,127.0,-113.0,-85.0,106.0
127.0,127.0,127.0,126.0,126.0,128.0,126.0,130.0,-1.0,103.0,-82.0,127.0,127.0,127.0,-113.0,-85.0,106.0
127.0,127.0,127.0,126.0,126.0,128.0,126.0,130.0,-1.0,103.0,-82.0,127.0,127.0,127.0,-113.0,-85.0,106.0
126.0,127.0,127.0,126.0,126.0,128.0,126.0,130.0,-1.0,103.0,-82.0,127.0,127.0,127.0,-113.0,-85.0,106.0
126.0,127.0,127.0,126.0,126.0,128.0,126.0,130.0,-1.0,103.0,-82.0,127.0,127.0,127.0,-113.0,-85.0,106.0
126.0,127.0,127.0,126.0,127.0,128.0,127.0,129.0,-1.0,103.0,-82.0,127.0,127.0,127.0,-113.0,-85.0,106.0
126.0,127.0,127.0,126.0,127.0,128.0,127.0,129.0,-1.0,103.0,-82.0,127.0,127.0,127.0,-113.0,-85.0,106.0
127.0,127.0,126.0,126.0,126.0,129.0,126.0,130.0,-1.0,103.0,-82.0,127.0,127.0,127.0,-113.0,-85.0,106.0
127.0,127.0,127.0,126.0,126.0,128.0,126.0,129.0,-1.0,103.0,-82.0,127.0,127.0,127.0,-113.0,-85.0,106.0
126.0,127.0,127.0,126.0,126.0,128.0,126.0,129.0,-1.0,103.0,-82.0,127.0,127.0,127.0,-113.0,-85.0,106.0
126.0,127.0,127.0,126.0,126.0,128.0,126.0,129.0,-1.0,103.0,-82.0,127.0,127.0,127.0,-113.0,-85.0,106.0
126.0,127.0,127.0,126.0,126.0,128.0,126.0,129.0,-1.0,103.0,-82.0,127.0,127.0,127.0,-113.0,-85.0,106.0
126.0,127.0,127.0,126.0,126.0,128.0,126.0,129.0,-1.0,103.0,-82.0,127.0,127.0,127.0,-113.0,-85.0,106.0
126.0,127.0,127.0,126.0,126.0,128.0,126.0,129.0,-1.0,103.0,-82.0,127.0,127.0,127.0,-113.0,-85.0,106.0
126.0,127.0,127.0,126.0,127.0,128.0,126.0,129.0,-1.0,103.0,-82.0,127.0,127.0,127.0,-113.0,-85.0,106.0
126.0,127.0,127.0,127.0,127.0,128.0,126.0,128.0,-1.0,103.0,-82.0,127.0,127.0,127.0,-113.0,-85.0,106.0
126.0,127.0,127.0,127.0,127.0,128.0,127.0,128.0,-1.0,103.0,-82.0,127.0,127.0,127.0,-113.0,-85.0,106.0
126.0,127.0,127.0,127.0,127.0,128.0,127.0,128.0,-1.0,103.0,-82.0,127.0,127.0,127.0,-113.0,-85.0,106.0
126.0,127.0,127.0,127.0,127.0,128.0,127.0,128.0,-1.0,103.0,-82.0,127.0,127.0,127.0,-113.0,-85.0,106.0
126.0,127.0,127.0,127.0,127.0,128.0,127.0,128.0,-1.0,103.0,-82.0,127.0,127.0,127.0,-113.0,-85.0,106.0
126.0,127.0,127.0,127.0,127.0,128.0,127.0,128.0,-1.0,103.0,-82.0,127.0,127.0,127.0,-113.0,-85.0,106.0
126.0,127.0,127.0,127.0,127.0,128.0,127.0,128.0,-1.0,103.0,-82.0,127.0,127.0,127.0,-113.0,-85.0,106.0
126.0,127.0,127.0,127.0,127.0,128.0,127.0,128.0,-1.0,103.0,-82.0,127.0,127.0,127.0,-113.0,-85.0,106.0
126.0,127.0,127.0,127.0,127.0,128.0,127.0,128.0,-1.0,103.0,-82.0,127.0,127.0,127.0,-113.0,-85.0,106.0
126.0,127.0,127.0,127.0,127.0,128.0,127.0,128.0,-1.0,103.0,-82.0,127.0,127.0,127.0,-113.0,-85.0,106.0
126.0,127.0,127.0,126.0,126.0,128.0,126.0,128.0,-1.0,103.0,-83.0,127.0,127.0,127.0,-113.0,-85.0,106.0
126.0,127.0,127.0,126.0,126.0,128.0,126.0,128.0,-1.0,103.0,-83.0,127.0,127.0,127.0,-113.0,-85.0,106.0
126.0,127.0,127.0,126.0,127.0,128.0,126.0,128.0,-1.0,103.0,-83.0,127.0,127.0,127.0,-113.0,-85.0,106.0
126.0,127.0,127.0,127.0,127.0,128.0,126.0,128.0,-1.0,103.0,-83.0,127.0,127.0,127.0,-113.0,-85.0,106.0
126.0,127.0,127.0,127.0,127.0,128.0,126.0,128.0,-1.0,103.0,-83.0,127.0,127.0,127.0,-113.0,-85.0,106.0
126.0,127.0,127.0,127.0,126.0,128.0,125.0,128.0,-1.0,103.0,-83.0,127.0,127.0,127.0,-113.0,-85.0,106.0
126.0,127.0,127.0,127.0,126.0,129.0,125.0,128.0,-1.0,103.0,-83.0,127.0,127.0,127.0,-113.0,-85.0,106.0
126.0,127.0,127.0,127.0,126.0,128.0,125.0,128.0,-1.0,103.0,-83.0,127.0,127.0,127.0,-113.0,-85.0,106.0
126.0,127.0,127.0,127.0,127.0,128.0,125.0,128.0,-1.0,103.0,-83.0,127.0,127.0,127.0,-113.0,-85.0,106.0
126.0,127.0,127.0,127.0,127.0,128.0,125.0,128.0,-1.0,103.0,-83.0,127.0,127.0,127.0,-113.0,-85.0,106.0
127.0,127.0,127.0,127.0,126.0,128.0,126.0,127.0,-1.0,103.0,-83.0,127.0,127.0,127.0,-113.0,-85.0,106.0
127.0,127.0,127.0,127.0,127.0,128.0,126.0,127.0,-1.0,103.0,-83.0,127.0,127.0,127.0,-113.0,-85.0,106.0
127.0,127.0,127.0,127.0,126.0,128.0,126.0,127.0,-1.0,103.0,-83.0,127.0,127.0,127.0,-113.0,-85.0,106.0
127.0,127.0,127.0,127.0,127.0,128.0,126.0,127.0,-1.0,103.0,-83.0,127.0,127.0,127.0,-113.0,-85.0,106.0
127.0,127.0,127.0,127.0,126.0,128.0,126.0,127.0,-1.0,103.0,-83.0,127.0,127.0,127.0,-113.0,-85.0,106.0
127.0,127.0,127.0,127.0,126.0,129.0,125.0,127.0,-1.0,103.0,-83.0,127.0,127.0,127.0,-113.0,-85.0,106.0
127.0,127.0,127.0,127.0,126.0,129.0,125.0,127.0,-1.0,103.0,-83.0,127.0,127.0,127.0,-113.0,-85.0,106.0
127.0,127.0,127.0,127.0,127.0,129.0,125.0,127.0,-1.0,103.0,-83.0,127.0,127.0,127.0,-113.0,-85.0,106.0
127.0,127.0,127.0,127.0,127.0,129.0,125.0,127.0,-1.0,103.0,-83.0,127.0,127.0,127.0,-113.0,-85.0,106.0
127.0,127.0,127.0,127.0,126.0,129.0,126.0,127.0,-1.0,103.0,-83.0,127.0,127.0,127.0,-113.0,-85.0,106.0
127.0,127.0,127.0,126.0,126.0,128.0,126.0,127.0,-1.0,104.0,-83.0,127.0,127.0,127.0,-113.0,-85.0,106.0
127.0,127.0,127.0,126.0,126.0,128.0,126.0,127.0,-1.0,104.0,-83.0,127.0,127.0,127.0,-113.0,-85.0,106.0
127.0,127.0,127.0,127.0,126.0,128.0,126.0,127.0,-1.0,104.0,-83.0,127.0,127.0,127.0,-113.0,-85.0,106.0
126.0,127.0,127.0,127.0,126.0,128.0,125.0,127.0,-1.0,104.0,-83.0,127.0,127.0,127.0,-113.0,-85.0,106.0
127.0,127.0,127.0,127.0,126.0,129.0,125.0,128.0,-1.0,104.0,-83.0,127.0,127.0,127.0,-113.0,-85.0,106.0
127.0,127.0,127.0,127.0,126.0,129.0,125.0,128.0,-1.0,104.0,-83.0,127.0,127.0,127.0,-113.0,-85.0,106.0
127.0,127.0,127.0,127.0,126.0,129.0,125.0,128.0,-1.0,104.0,-83.0,127.0,127.0,127.0,-113.0,-85.0,106.0
127.0,127.0,127.0,127.0,126.0,129.0,125.0,128.0,-1.0,104.0,-83.0,127.0,127.0,127.0,-113.0,-85.0,106.0
127.0,127.0,127.0,126.0,126.0,128.0,126.0,128.0,-1.0,104.0,-83.0,127.0,127.0,127.0,-113.0,-85.0,106.0
127.0,127.0,127.0,126.0,126.0,128.0,126.0,127.0,-1.0,104.0,-83.0,127.0,127.0,127.0,-113.0,-85.0,106.0
127.0,127.0,127.0,126.0,126.0,128.0,127.0,128.0,-1.0,104.0,-83.0,127.0,127.0,127.0,-113.0,-85.0,106.0
127.0,127.0,127.0,126.0,126.0,128.0,127.0,128.0,-1.0,104.0,-83.0,127.0,127.0,127.0,-113.0,-85.0,106.0
127.0,127.0,127.0,126.0,126.0,128.0,126.0,128.0,-1.0,104.0,-83.0,127.0,127.0,127.0,-113.0,-85.0,106.0
127.0,127.0,127.0,126.0,126.0,129.0,126.0,128.0,-1.0,104.0,-83.0,127.0,127.0,127.0,-113.0,-85.0,106.0
127.0,127.0,127.0,127.0,126.0,129.0,126.0,128.0,-1.0,104.0,-83.0,127.0,127.0,127.0,-113.0,-85.0,106.0
127.0,127.0,127.0,127.0,126.0,129.0,126.0,128.0,-1.0,104.0,-83.0,127.0,127.0,127.0,-113.0,-85.0,106.0
127.0,127.0,127.0,127.0,127.0,129.0,126.0,128.0,-1.0,104.0,-83.0,127.0,127.0,127.0,-113.0,-85.0,106.0
127.0,127.0,127.0,126.0,126.0,128.0,127.0,128.0,-1.0,104.0,-83.0,127.0,127.0,127.0,-113.0,-85.0,106.0
127.0,127.0,127.0,126.0,126.0,128.0,126.0,128.0,-1.0,104.0,-83.0,127.0,127.0,127.0,-113.0,-85.0,106.0
127.0,127.0,127.0,126.0,126.0,128.0,127.0,128.0,-1.0,104.0,-83.0,127.0,127.0,127.0,-113.0,-85.0,106.0
127.0,127.0,127.0,127.0,126.0,128.0,127.0,127.0,-1.0,104.0,-82.0,127.0,127.0,127.0,-113.0,-85.0,106.0
127.0,127.0,127.0,127.0,126.0,128.0,127.0,128.0,-1.0,104.0,-82.0,127.0,127.0,127.0,-113.0,-85.0,106.0
127.0,127.0,127.0,127.0,126.0,129.0,126.0,128.0,-1.0,104.0,-82.0,127.0,127.0,127.0,-113.0,-85.0,106.0
127.0,127.0,127.0,127.0,126.0,129.0,126.0,128.0,-1.0,104.0,-82.0,127.0,127.0,127.0,-113.0,-85.0,106.0
127.0,127.0,127.0,127.0,126.0,129.0,126.0,128.0,-1.0,104.0,-82.0,127.0,127.0,127.0,-113.0,-85.0,106.0
127.0,127.0,127.0,127.0,126.0,129.0,126.0,128.0,-1.0,104.0,-82.0,127.0,127.0,127.0,-113.0,-85.0,106.0
127.0,127.0,127.0,127.0,126.0,129.0,126.0,127.0,-1.0,104.0,-82.0,127.0,127.0,127.0,-113.0,-85.0,106.0
127.0,127.0,127.0,127.0,126.0,129.0,126.0,128.0,-1.0,104.0,-82.0,127.0,127.0,127.0,-113.0,-85.0,106.0
127.0,127.0,127.0,127.0,126.0,128.0,127.0,127.0,-1.0,104.0,-82.0,127.0,127.0,127.0,-113.0,-85.0,106.0
127.0,127.0,127.0,127.0,126.0,128.0,127.0,128.0,-1.0,104.0,-82.0,127.0,127.0,127.0,-113.0,-85.0,106.0
127.0,127.0,127.0,127.0,127.0,128.0,126.0,128.0,-1.0,104.0,-82.0,127.0,127.0,127.0,-113.0,-85.0,106.0
127.0,127.0,127.0,127.0,127.0,128.0,126.0,128.0,-1.0,104.0,-82.0,127.0,127.0,127.0,-113.0,-85.0,106.0
127.0,127.0,127.0,127.0,127.0,128.0,126.0,128.0,-1.0,104.0,-82.0,127.0,127.0,127.0,-113.0,-85.0,106.0
127.0,127.0,127.0,127.0,127.0,128.0,126.0,128.0,-1.0,104.0,-82.0,127.0,127.0,127.0,-113.0,-85.0,106.0
127.0,127.0,127.0,127.0,127.0,128.0,126.0,128.0,-1.0,104.0,-82.0,127.0,127.0,127.0,-113.0,-85.0,106.0
127.0,127.0,127.0,127.0,126.0,128.0,126.0,128.0,-1.0,104.0,-82.0,127.0,127.0,127.0,-113.0,-85.0,106.0
127.0,127.0,127.0,127.0,126.0,128.0,126.0,128.0,-1.0,104.0,-82.0,127.0,127.0,127.0,-113.0,-85.0,106.0
127.0,127.0,127.0,127.0,126.0,128.0,126.0,128.0,-1.0,104.0,-82.0,127.0,127.0,127.0,-113.0,-85.0,106.0
127.0,127.0,127.0,127.0,127.0,128.0,126.0,128.0,-1.0,104.0,-82.0,127.0,127.0,127.0,-113.0,-85.0,106.0
127.0,127.0,127.0,127.0,127.0,128.0,126.0,128.0,-1.0,104.0,-82.0,127.0,127.0,127.0,-113.0,-85.0,106.0
127.0,127.0,127.0,127.0,127.0,128.0,126.0,128.0,-1.0,104.0,-82.0,127.0,127.0,127.0,-113.0,-85.0,106.0
127.0,127.0,127.0,127.0,127.0,128.0,126.0,128.0,-1.0,104.0,-82.0,127.0,127.0,127.0,-113.0,-85.0,106.0
127.0,127.0,127.0,127.0,127.0,128.0,126.0,128.0,-1.0,104.0,-82.0,127.0,127.0,127.0,-113.0,-85.0,106.0
127.0,127.0,127.0,127.0,127.0,129.0,126.0,128.0,-1.0,104.0,-82.0,127.0,127.0,127.0,-113.0,-85.0,106.0
127.0,127.0,127.0,126.0,127.0,127.0,127.0,128.0,-1.0,104.0,-82.0,127.0,127.0,127.0,-113.0,-85.0,106.0
127.0,127.0,127.0,126.0,127.0,128.0,126.0,128.0,-1.0,104.0,-82.0,127.0,127.0,127.0,-113.0,-85.0,106.0
127.0,127.0,127.0,126.0,127.0,128.0,126.0,128.0,-1.0,104.0,-82.0,127.0,127.0,127.0,-113.0,-85.0,106.0
127.0,127.0,127.0,126.0,126.0,128.0,126.0,128.0,-1.0,104.0,-82.0,127.0,127.0,127.0,-113.0,-85.0,106.0
127.0,127.0,127.0,126.0,127.0,128.0,126.0,128.0,-1.0,104.0,-82.0,127.0,127.0,127.0,-113.0,-85.0,106.0
127.0,127.0,127.0,127.0,127.0,128.0,126.0,128.0,-1.0,104.0,-82.0,127.0,127.0,127.0,-113.0,-85.0,106.0
127.0,127.0,127.0,126.0,127.0,128.0,126.0,128.0,-1.0,104.0,-82.0,127.0,127.0,127.0,-113.0,-85.0,106.0
127.0,127.0,127.0,126.0,127.0,128.0,126.0,128.0,-1.0,104.0,-82.0,127.0,127.0,127.0,-113.0,-85.0,106.0
127.0,127.0,127.0,126.0,127.0,128.0,126.0,128.0,-1.0,104.0,-82.0,127.0,127.0,127.0,-113.0,-85.0,106.0
127.0,127.0,126.0,126.0,126.0,128.0,126.0,128.0,-1.0,104.0,-82.0,127.0,127.0,127.0,-113.0,-85.0,106.0
127.0,127.0,127.0,126.0,126.0,128.0,126.0,128.0,-1.0,104.0,-82.0,127.0,127.0,127.0,-113.0,-85.0,106.0
127.0,127.0,127.0,126.0,126.0,128.0,126.0,128.0,-1.0,104.0,-82.0,127.0,127.0,127.0,-113.0,-85.0,106.0
127.0,127.0,127.0,126.0,126.0,128.0,126.0,128.0,-1.0,104.0,-82.0,127.0,127.0,127.0,-113.0,-85.0,106.0
127.0,127.0,127.0,126.0,126.0,128.0,126.0,128.0,-1.0,104.0,-82.0,127.0,127.0,127.0,-113.0,-85.0,106.0
127.0,127.0,127.0,126.0,126.0,128.0,126.0,128.0,-1.0,104.0,-82.0,127.0,127.0,127.0,-113.0,-85.0,106.0
127.0,127.0,127.0,126.0,127.0,128.0,126.0,128.0,-1.0,104.0,-82.0,127.0,127.0,127.0,-113.0,-85.0,106.0
126.0,127.0,127.0,126.0,127.0,128.0,126.0,128.0,-1.0,104.0,-82.0,127.0,127.0,127.0,-113.0,-85.0,106.0
126.0,127.0,127.0,126.0,127.0,128.0,126.0,128.0,-1.0,104.0,-82.0,127.0,127.0,127.0,-113.0,-85.0,106.0
127.0,127.0,127.0,126.0,126.0,128.0,126.0,128.0,-1.0,104.0,-82.0,127.0,127.0,127.0,-113.0,-85.0,106.0
127.0,127.0,127.0,126.0,126.0,128.0,126.0,128.0,-1.0,104.0,-82.0,127.0,127.0,127.0,-113.0,-85.0,106.0
127.0,127.0,127.0,126.0,126.0,128.0,126.0,128.0,-1.0,104.0,-82.0,127.0,127.0,127.0,-113.0,-85.0,106.0
127.0,127.0,127.0,126.0,127.0,128.0,126.0,128.0,-1.0,104.0,-82.0,127.0,127.0,127.0,-113.0,-85.0,106.0
127.0,127.0,127.0,126.0,127.0,128.0,126.0,128.0,-1.0,104.0,-82.0,127.0,127.0,127.0,-113.0,-85.0,106.0
127.0,127.0,127.0,126.0,127.0,128.0,126.0,128.0,-1.0,104.0,-82.0,127.0,127.0,127.0,-113.0,-85.0,106.0
126.0,127.0,127.0,126.0,127.0,128.0,126.0,128.0,-1.0,104.0,-82.0,127.0,127.0,127.0,-113.0,-85.0,106.0
126.0,127.0,127.0,126.0,127.0,128.0,126.0,128.0,-1.0,104.0,-82.0,127.0,127.0,127.0,-113.0,-85.0,106.0
127.0,127.0,127.0,127.0,127.0,128.0,126.0,128.0,-1.0,104.0,-82.0,127.0,127.0,127.0,-113.0,-85.0,106.0
127.0,127.0,127.0,127.0,126.0,129.0,126.0,128.0,-1.0,104.0,-82.0,127.0,127.0,127.0,-113.0,-85.0,106.0
127.0,127.0,127.0,127.0,126.0,128.0,126.0,128.0,-1.0,104.0,-82.0,127.0,127.0,127.0,-113.0,-85.0,106.0
127.0,127.0,127.0,127.0,126.0,128.0,126.0,128.0,-1.0,104.0,-82.0,127.0,127.0,127.0,-113.0,-85.0,106.0
127.0,127.0,127.0,127.0,126.0,128.0,126.0,128.0,-1.0,104.0,-82.0,127.0,127.0,127.0,-113.0,-85.0,106.0
127.0,127.0,127.0,127.0,127.0,128.0,126.0,128.0,-1.0,104.0,-82.0,127.0,127.0,127.0,-113.0,-85.0,106.0
127.0,127.0,127.0,127.0,126.0,128.0,126.0,128.0,-1.0,104.0,-82.0,127.0,127.0,127.0,-113.0,-85.0,106.0
126.0,127.0,127.0,127.0,127.0,128.0,126.0,128.0,-1.0,104.0,-82.0,127.0,127.0,127.0,-113.0,-85.0,106.0
126.0,127.0,127.0,127.0,127.0,128.0,126.0,128.0,-1.0,104.0,-82.0,127.0,127.0,127.0,-113.0,-85.0,106.0
126.0,127.0,127.0,127.0,127.0,128.0,126.0,128.0,-1.0,104.0,-82.0,127.0,127.0,127.0,-113.0,-85.0,106.0
127.0,127.0,127.0,127.0,126.0,128.0,126.0,128.0,-1.0,104.0,-82.0,127.0,127.0,127.0,-113.0,-85.0,106.0
127.0,127.0,127.0,127.0,126.0,128.0,126.0,128.0,-1.0,104.0,-82.0,127.0,127.0,127.0,-113.0,-85.0,106.0
127.0,128.0,127.0,127.0,126.0,129.0,126.0,128.0,-1.0,104.0,-82.0,127.0,127.0,127.0,-113.0,-85.0,106.0
127.0,127.0,127.0,127.0,126.0,128.0,126.0,128.0,-1.0,104.0,-82.0,127.0,127.0,127.0,-113.0,-85.0,106.0
127.0,127.0,127.0,127.0,126.0,128.0,126.0,128.0,-1.0,104.0,-82.0,127.0,127.0,127.0,-113.0,-85.0,106.0
127.0,127.0,127.0,127.0,126.0,128.0,126.0,128.0,-1.0,104.0,-82.0,127.0,127.0,127.0,-113.0,-85.0,106.0
127.0,127.0,127.0,127.0,127.0,128.0,126.0,128.0,-1.0,104.0,-82.0,127.0,127.0,127.0,-113.0,-85.0,106.0
127.0,127.0,127.0,127.0,127.0,128.0,126.0,128.0,-1.0,104.0,-82.0,127.0,127.0,127.0,-113.0,-85.0,106.0
127.0,127.0,127.0,127.0,127.0,128.0,126.0,128.0,-1.0,104.0,-82.0,127.0,127.0,127.0,-113.0,-85.0,106.0
127.0,127.0,127.0,127.0,127.0,128.0,126.0,128.0,-1.0,104.0,-82.0,127.0,127.0,127.0,-113.0,-85.0,106.0
127.0,127.0,127.0,127.0,126.0,128.0,126.0,128.0,-1.0,104.0,-82.0,127.0,127.0,127.0,-113.0,-85.0,106.0
127.0,127.0,127.0,127.0,126.0,128.0,126.0,128.0,-1.0,104.0,-82.0,127.0,127.0,127.0,-113.0,-85.0,106.0
126.0,127.0,127.0,127.0,126.0,128.0,126.0,128.0,-1.0,104.0,-82.0,127.0,127.0,127.0,-113.0,-85.0,106.0
126.0,127.0,127.0,127.0,126.0,128.0,126.0,128.0,-1.0,104.0,-82.0,127.0,127.0,127.0,-113.0,-85.0,106.0
126.0,127.0,127.0,127.0,126.0,128.0,126.0,128.0,-1.0,104.0,-82.0,127.0,127.0,127.0,-113.0,-85.0,106.0
126.0,127.0,127.0,127.0,126.0,128.0,126.0,128.0,-1.0,104.0,-82.0,127.0,127.0,127.0,-113.0,-85.0,106.0
126.0,127.0,127.0,127.0,126.0,128.0,126.0,128.0,-1.0,104.0,-82.0,127.0,127.0,127.0,-113.0,-85.0,106.0
126.0,127.0,127.0,127.0,127.0,128.0,126.0,128.0,-1.0,104.0,-82.0,127.0,127.0,127.0,-113.0,-85.0,106.0
126.0,127.0,127.0,127.0,127.0,128.0,126.0,128.0,-1.0,104.0,-82.0,127.0,127.0,127.0,-113.0,-85.0,106.0
127.0,127.0,127.0,127.0,126.0,128.0,126.0,128.0,-1.0,104.0,-82.0,127.0,127.0,127.0,-113.0,-85.0,106.0
127.0,127.0,127.0,127.0,126.0,128.0,126.0,130.0,-1.0,104.0,-82.0,127.0,127.0,127.0,-113.0,-85.0,106.0
127.0,127.0,127.0,127.0,126.0,128.0,126.0,130.0,-1.0,104.0,-82.0,127.0,127.0,127.0,-113.0,-85.0,106.0
127.0,127.0,127.0,126.0,126.0,128.0,126.0,130.0,-1.0,104.0,-82.0,127.0,127.0,127.0,-113.0,-85.0,106.0
127.0,127.0,127.0,126.0,126.0,128.0,126.0,130.0,-1.0,104.0,-82.0,127.0,127.0,127.0,-113.0,-85.0,106.0
127.0,127.0,127.0,126.0,126.0,128.0,126.0,130.0,-1.0,104.0,-82.0,127.0,127.0,127.0,-113.0,-85.0,106.0
127.0,127.0,127.0,126.0,126.0,128.0,126.0,130.0,-1.0,104.0,-82.0,127.0,127.0,127.0,-113.0,-85.0,106.0
127.0,127.0,127.0,126.0,126.0,128.0,126.0,130.0,-1.0,104.0,-82.0,127.0,127.0,127.0,-113.0,-85.0,106.0
127.0,127.0,127.0,127.0,126.0,129.0,126.0,130.0,-1.0,104.0,-82.0,127.0,127.0,127.0,-113.0,-85.0,106.0
127.0,127.0,127.0,127.0,126.0,128.0,126.0,130.0,-1.0,104.0,-82.0,127.0,127.0,127.0,-113.0,-85.0,106.0
127.0,127.0,127.0,127.0,126.0,128.0,126.0,130.0,-1.0,104.0,-82.0,127.0,127.0,127.0,-113.0,-85.0,106.0
127.0,127.0,127.0,126.0,126.0,128.0,126.0,131.0,-1.0,104.0,-82.0,127.0,127.0,127.0,-113.0,-85.0,106.0
127.0,127.0,127.0,126.0,127.0,128.0,126.0,131.0,-1.0,104.0,-82.0,127.0,127.0,127.0,-113.0,-85.0,106.0
127.0,127.0,127.0,126.0,127.0,128.0,126.0,131.0,-1.0,104.0,-82.0,127.0,127.0,127.0,-113.0,-85.0,106.0
127.0,127.0,127.0,126.0,127.0,128.0,126.0,131.0,-1.0,104.0,-82.0,127.0,127.0,127.0,-113.0,-85.0,106.0
127.0,127.0,127.0,126.0,127.0,128.0,126.0,131.0,-1.0,104.0,-82.0,127.0,127.0,127.0,-113.0,-85.0,106.0
127.0,127.0,127.0,126.0,127.0,128.0,126.0,131.0,-1.0,104.0,-82.0,127.0,127.0,127.0,-113.0,-85.0,106.0
127.0,127.0,127.0,126.0,126.0,129.0,126.0,131.0,-1.0,104.0,-82.0,127.0,127.0,127.0,-113.0,-85.0,106.0
127.0,127.0,127.0,126.0,126.0,129.0,126.0,131.0,-1.0,104.0,-82.0,127.0,127.0,127.0,-113.0,-85.0,106.0
127.0,127.0,127.0,126.0,126.0,129.0,126.0,131.0,-1.0,104.0,-82.0,127.0,127.0,127.0,-113.0,-85.0,106.0
127.0,127.0,127.0,126.0,126.0,128.0,126.0,131.0,-1.0,104.0,-82.0,127.0,127.0,127.0,-113.0,-85.0,106.0
127.0,127.0,127.0,127.0,126.0,128.0,127.0,131.0,-1.0,104.0,-82.0,127.0,127.0,127.0,-113.0,-85.0,106.0
127.0,127.0,127.0,127.0,126.0,128.0,127.0,131.0,-1.0,104.0,-82.0,127.0,127.0,127.0,-113.0,-85.0,106.0
127.0,127.0,127.0,127.0,126.0,128.0,127.0,131.0,-1.0,104.0,-82.0,127.0,127.0,127.0,-113.0,-85.0,106.0
127.0,127.0,127.0,127.0,126.0,128.0,126.0,131.0,-1.0,104.0,-82.0,127.0,127.0,127.0,-113.0,-85.0,106.0
127.0,127.0,127.0,127.0,126.0,128.0,126.0,131.0,-1.0,104.0,-82.0,127.0,127.0,127.0,-113.0,-85.0,106.0
127.0,127.0,127.0,127.0,127.0,127.0,127.0,130.0,-1.0,104.0,-82.0,127.0,127.0,127.0,-113.0,-85.0,106.0
127.0,127.0,127.0,127.0,126.0,127.0,127.0,130.0,-1.0,104.0,-82.0,127.0,127.0,127.0,-113.0,-85.0,106.0
127.0,127.0,127.0,127.0,126.0,128.0,127.0,131.0,-1.0,104.0,-82.0,127.0,127.0,127.0,-113.0,-85.0,106.0
127.0,127.0,127.0,127.0,126.0,128.0,127.0,131.0,-1.0,104.0,-82.0,127.0,127.0,127.0,-113.0,-85.0,106.0
127.0,127.0,127.0,127.0,126.0,128.0,127.0,131.0,-1.0,104.0,-82.0,127.0,127.0,127.0,-113.0,-85.0,106.0
127.0,127.0,127.0,127.0,126.0,128.0,126.0,131.0,-1.0,104.0,-82.0,127.0,127.0,127.0,-113.0,-85.0,106.0
127.0,127.0,127.0,127.0,127.0,128.0,126.0,131.0,-1.0,104.0,-82.0,127.0,127.0,127.0,-113.0,-85.0,106.0
127.0,127.0,127.0,127.0,126.0,128.0,126.0,131.0,-1.0,104.0,-82.0,127.0,127.0,127.0,-113.0,-85.0,106.0
127.0,127.0,127.0,127.0,126.0,129.0,126.0,131.0,-1.0,104.0,-82.0,127.0,127.0,127.0,-113.0,-85.0,106.0
127.0,127.0,127.0,126.0,126.0,127.0,127.0,130.0,-1.0,104.0,-82.0,127.0,127.0,127.0,-113.0,-85.0,106.0
126.0,127.0,127.0,126.0,126.0,128.0,127.0,130.0,-1.0,104.0,-82.0,127.0,127.0,127.0,-113.0,-85.0,106.0
127.0,127.0,127.0,126.0,126.0,128.0,126.0,131.0,-1.0,104.0,-82.0,127.0,127.0,127.0,-113.0,-85.0,106.0
127.0,127.0,127.0,127.0,126.0,128.0,126.0,131.0,-1.0,104.0,-82.0,127.0,127.0,127.0,-113.0,-85.0,106.0
127.0,127.0,127.0,127.0,126.0,128.0,126.0,131.0,-1.0,104.0,-82.0,127.0,127.0,127.0,-113.0,-85.0,106.0
127.0,127.0,127.0,127.0,126.0,128.0,126.0,131.0,-1.0,104.0,-82.0,127.0,127.0,127.0,-113.0,-85.0,106.0
127.0,127.0,127.0,126.0,127.0,129.0,127.0,131.0,-1.0,104.0,-82.0,127.0,127.0,127.0,-113.0,-85.0,106.0
127.0,127.0,126.0,126.0,127.0,129.0,127.0,131.0,-1.0,104.0,-82.0,127.0,127.0,127.0,-113.0,-85.0,106.0
127.0,127.0,126.0,126.0,126.0,129.0,126.0,132.0,-1.0,104.0,-82.0,127.0,127.0,127.0,-113.0,-85.0,106.0
127.0,127.0,127.0,126.0,127.0,127.0,128.0,130.0,-1.0,104.0,-82.0,127.0,127.0,127.0,-113.0,-85.0,106.0
127.0,127.0,127.0,126.0,127.0,128.0,128.0,130.0,-1.0,104.0,-82.0,127.0,127.0,127.0,-113.0,-85.0,106.0
127.0,127.0,127.0,126.0,127.0,128.0,127.0,131.0,-1.0,104.0,-82.0,127.0,127.0,127.0,-113.0,-85.0,106.0
127.0,127.0,126.0,126.0,127.0,129.0,127.0,131.0,-1.0,104.0,-82.0,127.0,127.0,127.0,-113.0,-85.0,106.0
127.0,127.0,126.0,126.0,127.0,129.0,127.0,131.0,-1.0,104.0,-82.0,127.0,127.0,127.0,-113.0,-85.0,106.0
127.0,127.0,127.0,126.0,127.0,129.0,127.0,131.0,-1.0,104.0,-82.0,127.0,127.0,127.0,-113.0,-85.0,106.0
127.0,127.0,127.0,126.0,127.0,129.0,127.0,131.0,-1.0,104.0,-82.0,127.0,127.0,127.0,-113.0,-85.0,106.0
127.0,127.0,126.0,127.0,127.0,129.0,129.0,132.0,-1.0,104.0,-83.0,127.0,127.0,127.0,-113.0,-85.0,106.0
127.0,127.0,126.0,127.0,126.0,129.0,129.0,132.0,-1.0,104.0,-83.0,127.0,127.0,127.0,-113.0,-85.0,106.0
127.0,127.0,126.0,126.0,127.0,129.0,129.0,132.0,-1.0,104.0,-83.0,127.0,127.0,127.0,-113.0,-85.0,106.0
127.0,127.0,126.0,126.0,127.0,129.0,129.0,132.0,-1.0,104.0,-83.0,127.0,127.0,127.0,-113.0,-85.0,106.0
127.0,127.0,126.0,126.0,127.0,130.0,129.0,133.0,-1.0,104.0,-83.0,127.0,127.0,127.0,-113.0,-85.0,106.0
128.0,127.0,126.0,126.0,127.0,130.0,129.0,133.0,-1.0,104.0,-83.0,127.0,127.0,127.0,-113.0,-85.0,106.0
128.0,127.0,126.0,126.0,127.0,130.0,129.0,134.0,-1.0,104.0,-83.0,127.0,127.0,127.0,-113.0,-85.0,106.0
127.0,127.0,126.0,126.0,127.0,130.0,129.0,133.0,-1.0,104.0,-83.0,127.0,127.0,127.0,-113.0,-85.0,106.0
127.0,127.0,126.0,126.0,127.0,129.0,129.0,133.0,-1.0,104.0,-83.0,127.0,127.0,127.0,-113.0,-85.0,106.0
127.0,127.0,126.0,127.0,127.0,129.0,129.0,133.0,-1.0,104.0,-83.0,127.0,127.0,127.0,-113.0,-85.0,106.0
128.0,127.0,127.0,130.0,128.0,127.0,132.0,126.0,-1.0,104.0,-83.0,127.0,127.0,127.0,-113.0,-85.0,106.0
127.0,127.0,126.0,129.0,128.0,127.0,131.0,125.0,-1.0,104.0,-83.0,127.0,127.0,127.0,-113.0,-85.0,106.0
127.0,127.0,126.0,129.0,128.0,127.0,131.0,125.0,-1.0,104.0,-83.0,127.0,127.0,127.0,-113.0,-85.0,106.0
127.0,127.0,126.0,129.0,128.0,127.0,131.0,125.0,-1.0,104.0,-83.0,127.0,127.0,127.0,-113.0,-85.0,106.0
127.0,127.0,126.0,129.0,128.0,128.0,131.0,126.0,-1.0,104.0,-83.0,127.0,127.0,127.0,-113.0,-85.0,106.0
127.0,127.0,126.0,130.0,128.0,128.0,132.0,126.0,-1.0,104.0,-83.0,127.0,127.0,127.0,-113.0,-85.0,106.0
127.0,127.0,127.0,130.0,128.0,127.0,132.0,126.0,-1.0,104.0,-83.0,127.0,127.0,127.0,-113.0,-85.0,106.0
127.0,127.0,127.0,130.0,128.0,127.0,132.0,125.0,-1.0,104.0,-83.0,127.0,127.0,127.0,-113.0,-85.0,106.0
127.0,127.0,127.0,130.0,128.0,127.0,132.0,125.0,-1.0,104.0,-83.0,127.0,127.0,127.0,-113.0,-85.0,106.0
127.0,127.0,127.0,130.0,128.0,127.0,132.0,125.0,-1.0,104.0,-83.0,127.0,127.0,127.0,-113.0,-85.0,106.0
130.0,128.0,125.0,140.0,124.0,119.0,171.0,127.0,-1.0,104.0,-82.0,127.0,127.0,127.0,-113.0,-85.0,106.0
129.0,128.0,125.0,140.0,123.0,119.0,172.0,127.0,-1.0,104.0,-82.0,127.0,127.0,127.0,-113.0,-85.0,106.0
129.0,128.0,125.0,141.0,122.0,118.0,173.0,127.0,-1.0,104.0,-82.0,127.0,127.0,127.0,-113.0,-85.0,106.0
129.0,128.0,124.0,141.0,122.0,117.0,174.0,127.0,-1.0,104.0,-82.0,127.0,127.0,127.0,-113.0,-85.0,106.0
129.0,128.0,125.0,142.0,121.0,116.0,176.0,127.0,-1.0,104.0,-82.0,127.0,127.0,127.0,-113.0,-85.0,106.0
129.0,128.0,125.0,143.0,121.0,115.0,177.0,126.0,-1.0,104.0,-82.0,127.0,127.0,127.0,-113.0,-85.0,106.0
129.0,128.0,125.0,143.0,121.0,114.0,179.0,126.0,-1.0,104.0,-82.0,127.0,127.0,127.0,-113.0,-85.0,106.0
129.0,128.0,125.0,144.0,121.0,113.0,181.0,126.0,-1.0,104.0,-82.0,127.0,127.0,127.0,-113.0,-85.0,106.0
129.0,128.0,126.0,145.0,122.0,112.0,183.0,126.0,-1.0,104.0,-82.0,127.0,127.0,127.0,-113.0,-85.0,106.0
129.0,128.0,126.0,146.0,122.0,112.0,185.0,126.0,-1.0,104.0,-82.0,127.0,127.0,127.0,-113.0,-85.0,106.0
132.0,128.0,126.0,140.0,126.0,107.0,254.0,129.0,-1.0,104.0,-83.0,127.0,127.0,127.0,-113.0,-85.0,106.0
133.0,128.0,126.0,139.0,126.0,107.0,254.0,129.0,-1.0,104.0,-83.0,127.0,127.0,127.0,-113.0,-85.0,106.0
133.0,128.0,126.0,138.0,127.0,108.0,254.0,130.0,-1.0,104.0,-83.0,127.0,127.0,127.0,-113.0,-85.0,106.0
133.0,128.0,126.0,137.0,127.0,109.0,254.0,131.0,-1.0,104.0,-83.0,127.0,127.0,127.0,-113.0,-85.0,106.0
133.0,128.0,126.0,136.0,127.0,110.0,254.0,132.0,-1.0,104.0,-83.0,127.0,127.0,127.0,-113.0,-85.0,106.0
134.0,128.0,126.0,136.0,128.0,111.0,254.0,133.0,-1.0,104.0,-83.0,127.0,127.0,127.0,-113.0,-85.0,106.0
134.0,128.0,126.0,135.0,128.0,111.0,254.0,133.0,-1.0,104.0,-83.0,127.0,127.0,127.0,-113.0,-85.0,106.0
134.0,128.0,127.0,135.0,128.0,112.0,254.0,133.0,-1.0,104.0,-83.0,127.0,127.0,127.0,-113.0,-85.0,106.0
134.0,128.0,127.0,135.0,127.0,112.0,254.0,132.0,-1.0,104.0,-83.0,127.0,127.0,127.0,-113.0,-85.0,106.0
132.0,128.0,126.0,141.0,125.0,106.0,254.0,128.0,-1.0,104.0,-83.0,127.0,127.0,127.0,-113.0,-85.0,106.0
131.0,128.0,132.0,134.0,120.0,95.0,254.0,125.0,-1.0,101.0,-84.0,127.0,127.0,-128.0,-113.0,-85.0,106.0
131.0,128.0,132.0,134.0,119.0,96.0,254.0,125.0,-1.0,101.0,-84.0,127.0,127.0,-128.0,-113.0,-85.0,106.0
132.0,128.0,133.0,135.0,119.0,96.0,254.0,125.0,-1.0,101.0,-84.0,127.0,127.0,-128.0,-113.0,-85.0,106.0
132.0,128.0,133.0,135.0,119.0,95.0,254.0,125.0,-1.0,101.0,-84.0,127.0,127.0,-128.0,-113.0,-85.0,106.0
132.0,128.0,133.0,136.0,119.0,95.0,254.0,124.0,-1.0,101.0,-84.0,127.0,127.0,-128.0,-113.0,-85.0,106.0
132.0,128.0,134.0,136.0,119.0,95.0,254.0,125.0,-1.0,101.0,-84.0,127.0,127.0,-128.0,-113.0,-85.0,106.0
132.0,129.0,134.0,136.0,119.0,96.0,254.0,125.0,-1.0,101.0,-84.0,127.0,127.0,-128.0,-113.0,-85.0,106.0
132.0,129.0,133.0,136.0,119.0,96.0,254.0,125.0,-1.0,101.0,-84.0,127.0,127.0,-128.0,-113.0,-85.0,106.0
131.0,128.0,132.0,133.0,120.0,96.0,254.0,125.0,-1.0,101.0,-84.0,127.0,127.0,-128.0,-113.0,-85.0,106.0
131.0,128.0,132.0,133.0,120.0,96.0,254.0,125.0,-1.0,101.0,-84.0,127.0,127.0,-128.0,-113.0,-85.0,106.0
135.0,128.0,133.0,134.0,111.0,90.0,254.0,143.0,-1.0,96.0,-86.0,-128.0,127.0,-128.0,-112.0,-85.0,106.0
135.0,128.0,133.0,134.0,112.0,90.0,254.0,143.0,-1.0,96.0,-86.0,-128.0,127.0,-128.0,-112.0,-85.0,106.0
135.0,128.0,133.0,134.0,112.0,91.0,254.0,143.0,-1.0,96.0,-86.0,-128.0,127.0,-128.0,-112.0,-85.0,106.0
136.0,128.0,133.0,134.0,112.0,92.0,254.0,144.0,-1.0,96.0,-86.0,-128.0,127.0,-128.0,-112.0,-85.0,106.0
136.0,128.0,133.0,133.0,113.0,93.0,254.0,145.0,-1.0,96.0,-86.0,-128.0,127.0,-128.0,-112.0,-85.0,106.0
136.0,129.0,134.0,133.0,113.0,93.0,254.0,146.0,-1.0,96.0,-86.0,-128.0,127.0,-128.0,-112.0,-85.0,106.0
137.0,129.0,134.0,133.0,113.0,93.0,254.0,147.0,-1.0,96.0,-86.0,-128.0,127.0,-128.0,-112.0,-85.0,106.0
135.0,128.0,132.0,135.0,111.0,89.0,254.0,142.0,-1.0,96.0,-86.0,-128.0,127.0,-128.0,-112.0,-85.0,106.0
135.0,128.0,132.0,135.0,111.0,89.0,254.0,142.0,-1.0,96.0,-86.0,-128.0,127.0,-128.0,-112.0,-85.0,106.0
135.0,128.0,132.0,135.0,111.0,89.0,254.0,143.0,-1.0,96.0,-86.0,-128.0,127.0,-128.0,-112.0,-85.0,106.0
138.0,120.0,129.0,124.0,119.0,104.0,254.0,171.0,-1.0,93.0,-87.0,-127.0,126.0,-127.0,-111.0,-85.0,106.0
138.0,120.0,129.0,125.0,119.0,104.0,254.0,172.0,-1.0,93.0,-87.0,-127.0,126.0,-127.0,-111.0,-85.0,106.0
138.0,120.0,128.0,125.0,119.0,105.0,254.0,172.0,-1.0,93.0,-87.0,-127.0,126.0,-127.0,-111.0,-85.0,106.0
138.0,120.0,128.0,126.0,120.0,106.0,254.0,173.0,-1.0,93.0,-87.0,-127.0,126.0,-127.0,-111.0,-85.0,106.0
139.0,119.0,128.0,126.0,120.0,106.0,254.0,174.0,-1.0,93.0,-87.0,-127.0,126.0,-127.0,-111.0,-85.0,106.0
139.0,119.0,127.0,127.0,120.0,106.0,254.0,174.0,-1.0,93.0,-87.0,-127.0,126.0,-127.0,-111.0,-85.0,106.0
139.0,122.0,131.0,123.0,119.0,103.0,254.0,169.0,-1.0,93.0,-87.0,-127.0,126.0,-127.0,-111.0,-85.0,106.0
139.0,121.0,130.0,123.0,119.0,104.0,254.0,170.0,-1.0,93.0,-87.0,-127.0,126.0,-127.0,-111.0,-85.0,106.0
138.0,121.0,130.0,124.0,119.0,104.0,254.0,170.0,-1.0,93.0,-87.0,-127.0,126.0,-127.0,-111.0,-85.0,106.0
138.0,121.0,130.0,124.0,119.0,104.0,254.0,171.0,-1.0,93.0,-87.0,-127.0,126.0,-127.0,-111.0,-85.0,106.0
133.0,103.0,93.0,129.0,93.0,98.0,254.0,132.0,-1.0,95.0,-89.0,-125.0,126.0,-128.0,-110.0,-85.0,106.0
133.0,103.0,93.0,126.0,92.0,97.0,254.0,132.0,-1.0,95.0,-89.0,-125.0,126.0,-128.0,-110.0,-85.0,106.0
133.0,102.0,92.0,122.0,91.0,96.0,254.0,132.0,-1.0,95.0,-89.0,-125.0,126.0,-128.0,-110.0,-85.0,106.0
133.0,102.0,92.0,119.0,89.0,95.0,254.0,132.0,-1.0,95.0,-89.0,-125.0,126.0,-128.0,-110.0,-85.0,106.0
133.0,102.0,92.0,115.0,88.0,94.0,254.0,132.0,-1.0,95.0,-89.0,-125.0,126.0,-128.0,-110.0,-85.0,106.0
134.0,104.0,95.0,143.0,100.0,101.0,254.0,134.0,-1.0,95.0,-89.0,-125.0,126.0,-128.0,-110.0,-85.0,106.0
134.0,104.0,94.0,141.0,98.0,101.0,254.0,134.0,-1.0,95.0,-89.0,-125.0,126.0,-128.0,-110.0,-85.0,106.0
134.0,104.0,94.0,138.0,97.0,100.0,254.0,134.0,-1.0,95.0,-89.0,-125.0,126.0,-128.0,-110.0,-85.0,106.0
134.0,103.0,93.0,135.0,96.0,99.0,254.0,133.0,-1.0,95.0,-89.0,-125.0,126.0,-128.0,-110.0,-85.0,106.0
133.0,103.0,93.0,132.0,95.0,98.0,254.0,133.0,-1.0,95.0,-89.0,-125.0,126.0,-128.0,-110.0,-85.0,106.0
128.0,108.0,137.0,0.0,43.0,18.0,212.0,187.0,-1.0,104.0,-88.0,-125.0,126.0,127.0,-110.0,-85.0,106.0
128.0,109.0,139.0,0.0,44.0,17.0,208.0,188.0,-1.0,104.0,-88.0,-125.0,126.0,127.0,-110.0,-85.0,106.0
129.0,110.0,140.0,0.0,44.0,16.0,204.0,188.0,-1.0,104.0,-88.0,-125.0,126.0,127.0,-110.0,-85.0,106.0
129.0,110.0,142.0,0.0,45.0,15.0,200.0,189.0,-1.0,104.0,-88.0,-125.0,126.0,127.0,-110.0,-85.0,106.0
125.0,105.0,126.0,0.0,41.0,25.0,236.0,180.0,-1.0,104.0,-88.0,-125.0,126.0,127.0,-110.0,-85.0,106.0
126.0,106.0,128.0,0.0,41.0,24.0,233.0,181.0,-1.0,104.0,-88.0,-125.0,126.0,127.0,-110.0,-85.0,106.0
126.0,106.0,130.0,0.0,41.0,23.0,229.0,182.0,-1.0,104.0,-88.0,-125.0,126.0,127.0,-110.0,-85.0,106.0
127.0,107.0,132.0,0.0,41.0,21.0,225.0,183.0,-1.0,104.0,-88.0,-125.0,126.0,127.0,-110.0,-85.0,106.0
127.0,107.0,133.0,0.0,41.0,20.0,221.0,184.0,-1.0,104.0,-88.0,-125.0,126.0,127.0,-110.0,-85.0,106.0
127.0,108.0,135.0,0.0,42.0,19.0,216.0,186.0,-1.0,104.0,-88.0,-125.0,126.0,127.0,-110.0,-85.0,106.0
138.0,127.0,168.0,166.0,120.0,61.0,51.0,201.0,-1.0,108.0,-81.0,-125.0,127.0,126.0,-111.0,-85.0,106.0
138.0,127.0,168.0,169.0,122.0,62.0,50.0,200.0,-1.0,108.0,-81.0,-125.0,127.0,126.0,-111.0,-85.0,106.0
138.0,128.0,167.0,171.0,124.0,64.0,49.0,199.0,-1.0,108.0,-81.0,-125.0,127.0,126.0,-111.0,-85.0,106.0
138.0,126.0,173.0,141.0,107.0,53.0,59.0,210.0,-1.0,108.0,-81.0,-125.0,127.0,126.0,-111.0,-85.0,106.0
138.0,126.0,173.0,145.0,109.0,55.0,57.0,209.0,-1.0,108.0,-81.0,-125.0,127.0,126.0,-111.0,-85.0,106.0
138.0,127.0,172.0,149.0,111.0,56.0,55.0,208.0,-1.0,108.0,-81.0,-125.0,127.0,126.0,-111.0,-85.0,106.0
138.0,127.0,171.0,153.0,113.0,57.0,54.0,207.0,-1.0,108.0,-81.0,-125.0,127.0,126.0,-111.0,-85.0,106.0
138.0,127.0,171.0,156.0,114.0,58.0,53.0,205.0,-1.0,108.0,-81.0,-125.0,127.0,126.0,-111.0,-85.0,106.0
138.0,127.0,170.0,160.0,116.0,59.0,52.0,204.0,-1.0,108.0,-81.0,-125.0,127.0,126.0,-111.0,-85.0,106.0
138.0,127.0,169.0,163.0,118.0,60.0,52.0,203.0,-1.0,108.0,-81.0,-125.0,127.0,126.0,-111.0,-85.0,106.0
132.0,124.0,106.0,144.0,178.0,100.0,35.0,165.0,-1.0,105.0,-73.0,-124.0,127.0,126.0,-112.0,-85.0,106.0
132.0,124.0,105.0,143.0,179.0,101.0,35.0,165.0,-1.0,105.0,-73.0,-124.0,127.0,126.0,-112.0,-85.0,106.0
134.0,126.0,117.0,156.0,173.0,99.0,35.0,164.0,-1.0,105.0,-73.0,-124.0,127.0,126.0,-112.0,-85.0,106.0
134.0,126.0,116.0,154.0,174.0,99.0,35.0,164.0,-1.0,105.0,-73.0,-124.0,127.0,126.0,-112.0,-85.0,106.0
133.0,125.0,114.0,152.0,174.0,99.0,35.0,164.0,-1.0,105.0,-73.0,-124.0,127.0,126.0,-112.0,-85.0,106.0
133.0,125.0,113.0,151.0,175.0,100.0,35.0,164.0,-1.0,105.0,-73.0,-124.0,127.0,126.0,-112.0,-85.0,106.0
133.0,125.0,111.0,149.0,175.0,100.0,35.0,164.0,-1.0,105.0,-73.0,-124.0,127.0,126.0,-112.0,-85.0,106.0
133.0,125.0,110.0,148.0,176.0,100.0,35.0,164.0,-1.0,105.0,-73.0,-124.0,127.0,126.0,-112.0,-85.0,106.0
132.0,124.0,109.0,147.0,177.0,100.0,35.0,164.0,-1.0,105.0,-73.0,-124.0,127.0,126.0,-112.0,-85.0,106.0
132.0,124.0,108.0,145.0,177.0,100.0,35.0,164.0,-1.0,105.0,-73.0,-124.0,127.0,126.0,-112.0,-85.0,106.0
128.0,124.0,85.0,100.0,166.0,103.0,40.0,191.0,-1.0,107.0,-68.0,-124.0,127.0,127.0,-113.0,-85.0,106.0
128.0,125.0,83.0,102.0,168.0,102.0,39.0,183.0,-1.0,107.0,-68.0,-124.0,127.0,127.0,-113.0,-85.0,106.0
128.0,125.0,83.0,102.0,168.0,102.0,40.0,183.0,-1.0,107.0,-68.0,-124.0,127.0,127.0,-113.0,-85.0,106.0
129.0,125.0,84.0,101.0,168.0,102.0,40.0,184.0,-1.0,107.0,-68.0,-124.0,127.0,127.0,-113.0,-85.0,106.0
129.0,125.0,84.0,101.0,167.0,102.0,40.0,185.0,-1.0,107.0,-68.0,-124.0,127.0,127.0,-113.0,-85.0,106.0
129.0,125.0,84.0,101.0,167.0,102.0,41.0,186.0,-1.0,107.0,-68.0,-124.0,127.0,127.0,-113.0,-85.0,106.0
129.0,125.0,84.0,100.0,167.0,103.0,41.0,187.0,-1.0,107.0,-68.0,-124.0,127.0,127.0,-113.0,-85.0,106.0
129.0,124.0,84.0,100.0,167.0,103.0,40.0,188.0,-1.0,107.0,-68.0,-124.0,127.0,127.0,-113.0,-85.0,106.0
128.0,124.0,84.0,100.0,166.0,103.0,40.0,189.0,-1.0,107.0,-68.0,-124.0,127.0,127.0,-113.0,-85.0,106.0
128.0,124.0,85.0,100.0,166.0,103.0,40.0,190.0,-1.0,107.0,-68.0,-124.0,127.0,127.0,-113.0,-85.0,106.0
128.0,123.0,106.0,131.0,159.0,129.0,63.0,217.0,-1.0,110.0,-69.0,-127.0,127.0,126.0,-113.0,-85.0,106.0
128.0,123.0,107.0,132.0,159.0,130.0,64.0,217.0,-1.0,110.0,-69.0,-127.0,127.0,126.0,-113.0,-85.0,106.0
128.0,123.0,107.0,133.0,159.0,131.0,65.0,217.0,-1.0,110.0,-69.0,-127.0,127.0,126.0,-113.0,-85.0,106.0
128.0,123.0,107.0,133.0,159.0,132.0,66.0,218.0,-1.0,110.0,-69.0,-127.0,127.0,126.0,-113.0,-85.0,106.0
128.0,123.0,108.0,134.0,158.0,133.0,67.0,218.0,-1.0,110.0,-69.0,-127.0,127.0,126.0,-113.0,-85.0,106.0
128.0,123.0,108.0,134.0,158.0,133.0,67.0,218.0,-1.0,110.0,-69.0,-127.0,127.0,126.0,-113.0,-85.0,106.0
128.0,123.0,108.0,135.0,158.0,134.0,68.0,218.0,-1.0,110.0,-69.0,-127.0,127.0,126.0,-113.0,-85.0,106.0
128.0,123.0,109.0,136.0,158.0,135.0,69.0,219.0,-1.0,110.0,-69.0,-127.0,127.0,126.0,-113.0,-85.0,106.0
128.0,123.0,109.0,136.0,158.0,135.0,70.0,219.0,-1.0,110.0,-69.0,-127.0,127.0,126.0,-113.0,-85.0,106.0
128.0,123.0,109.0,137.0,158.0,136.0,70.0,219.0,-1.0,110.0,-69.0,-127.0,127.0,126.0,-113.0,-85.0,106.0
127.0,123.0,113.0,150.0,145.0,138.0,88.0,221.0,-1.0,108.0,-74.0,-128.0,127.0,126.0,-113.0,-85.0,106.0
127.0,123.0,113.0,150.0,145.0,138.0,88.0,221.0,-1.0,108.0,-74.0,-128.0,127.0,126.0,-113.0,-85.0,106.0
127.0,123.0,114.0,150.0,145.0,137.0,88.0,221.0,-1.0,108.0,-74.0,-128.0,127.0,126.0,-113.0,-85.0,106.0
127.0,123.0,114.0,151.0,145.0,137.0,88.0,220.0,-1.0,108.0,-74.0,-128.0,127.0,126.0,-113.0,-85.0,106.0
127.0,123.0,114.0,151.0,144.0,136.0,88.0,220.0,-1.0,108.0,-74.0,-128.0,127.0,126.0,-113.0,-85.0,106.0
127.0,123.0,114.0,151.0,144.0,136.0,89.0,220.0,-1.0,108.0,-74.0,-128.0,127.0,126.0,-113.0,-85.0,106.0
127.0,123.0,114.0,151.0,144.0,136.0,88.0,220.0,-1.0,108.0,-74.0,-128.0,127.0,126.0,-113.0,-85.0,106.0
128.0,123.0,114.0,152.0,144.0,137.0,88.0,220.0,-1.0,108.0,-74.0,-128.0,127.0,126.0,-113.0,-85.0,106.0
128.0,123.0,115.0,152.0,144.0,137.0,88.0,220.0,-1.0,108.0,-74.0,-128.0,127.0,126.0,-113.0,-85.0,106.0
127.0,123.0,113.0,149.0,146.0,138.0,89.0,221.0,-1.0,108.0,-74.0,-128.0,127.0,126.0,-113.0,-85.0,106.0
127.0,123.0,118.0,155.0,135.0,130.0,99.0,211.0,-1.0,107.0,-80.0,-128.0,127.0,126.0,-113.0,-85.0,106.0
127.0,123.0,119.0,155.0,135.0,129.0,100.0,211.0,-1.0,107.0,-80.0,-128.0,127.0,126.0,-113.0,-85.0,106.0
127.0,123.0,119.0,155.0,135.0,129.0,100.0,211.0,-1.0,107.0,-80.0,-128.0,127.0,126.0,-113.0,-85.0,106.0
127.0,123.0,119.0,155.0,135.0,128.0,101.0,211.0,-1.0,107.0,-80.0,-128.0,127.0,126.0,-113.0,-85.0,106.0
127.0,123.0,119.0,155.0,135.0,128.0,101.0,210.0,-1.0,107.0,-80.0,-128.0,127.0,126.0,-113.0,-85.0,106.0
127.0,123.0,119.0,155.0,134.0,128.0,101.0,210.0,-1.0,107.0,-80.0,-128.0,127.0,126.0,-113.0,-85.0,106.0
127.0,123.0,119.0,155.0,134.0,128.0,101.0,211.0,-1.0,107.0,-80.0,-128.0,127.0,126.0,-113.0,-85.0,106.0
127.0,123.0,119.0,156.0,134.0,128.0,101.0,211.0,-1.0,107.0,-80.0,-128.0,127.0,126.0,-113.0,-85.0,106.0
127.0,123.0,118.0,155.0,135.0,129.0,100.0,211.0,-1.0,107.0,-80.0,-128.0,127.0,126.0,-113.0,-85.0,106.0
127.0,123.0,118.0,155.0,135.0,129.0,100.0,211.0,-1.0,107.0,-80.0,-128.0,127.0,126.0,-113.0,-85.0,106.0
128.0,125.0,125.0,153.0,129.0,122.0,109.0,200.0,-1.0,109.0,-84.0,-128.0,127.0,127.0,-113.0,-85.0,106.0
128.0,125.0,125.0,153.0,129.0,121.0,109.0,200.0,-1.0,109.0,-84.0,-128.0,127.0,127.0,-113.0,-85.0,106.0
128.0,125.0,125.0,152.0,129.0,121.0,109.0,199.0,-1.0,109.0,-84.0,-128.0,127.0,127.0,-113.0,-85.0,106.0
127.0,125.0,126.0,153.0,129.0,121.0,109.0,199.0,-1.0,109.0,-84.0,-128.0,127.0,127.0,-113.0,-85.0,106.0
128.0,125.0,125.0,152.0,129.0,121.0,109.0,198.0,-1.0,109.0,-84.0,-128.0,127.0,127.0,-113.0,-85.0,106.0
128.0,125.0,125.0,153.0,129.0,121.0,108.0,198.0,-1.0,109.0,-84.0,-128.0,127.0,127.0,-113.0,-85.0,106.0
128.0,125.0,126.0,153.0,129.0,121.0,108.0,198.0,-1.0,109.0,-84.0,-128.0,127.0,127.0,-113.0,-85.0,106.0
127.0,125.0,125.0,153.0,129.0,121.0,110.0,200.0,-1.0,109.0,-84.0,-128.0,127.0,127.0,-113.0,-85.0,106.0
127.0,125.0,125.0,153.0,129.0,121.0,109.0,200.0,-1.0,109.0,-84.0,-128.0,127.0,127.0,-113.0,-85.0,106.0
128.0,125.0,125.0,153.0,129.0,122.0,109.0,200.0,-1.0,109.0,-84.0,-128.0,127.0,127.0,-113.0,-85.0,106.0
128.0,127.0,129.0,141.0,127.0,118.0,115.0,180.0,-1.0,113.0,-85.0,127.0,127.0,127.0,-114.0,-85.0,106.0
128.0,127.0,129.0,141.0,127.0,118.0,115.0,179.0,-1.0,113.0,-85.0,127.0,127.0,127.0,-114.0,-85.0,106.0
128.0,127.0,129.0,141.0,127.0,118.0,115.0,179.0,-1.0,113.0,-85.0,127.0,127.0,127.0,-114.0,-85.0,106.0
128.0,127.0,129.0,141.0,127.0,118.0,115.0,179.0,-1.0,113.0,-85.0,127.0,127.0,127.0,-114.0,-85.0,106.0
128.0,127.0,129.0,141.0,126.0,118.0,115.0,179.0,-1.0,113.0,-85.0,127.0,127.0,127.0,-114.0,-85.0,106.0
128.0,127.0,129.0,141.0,126.0,118.0,115.0,179.0,-1.0,113.0,-85.0,127.0,127.0,127.0,-114.0,-85.0,106.0
128.0,127.0,129.0,142.0,127.0,118.0,115.0,181.0,-1.0,113.0,-85.0,127.0,127.0,127.0,-114.0,-85.0,106.0
128.0,127.0,129.0,142.0,127.0,118.0,115.0,180.0,-1.0,113.0,-85.0,127.0,127.0,127.0,-114.0,-85.0,106.0
128.0,127.0,129.0,142.0,127.0,118.0,115.0,181.0,-1.0,113.0,-85.0,127.0,127.0,127.0,-114.0,-85.0,106.0
128.0,127.0,129.0,142.0,127.0,118.0,115.0,180.0,-1.0,113.0,-85.0,127.0,127.0,127.0,-114.0,-85.0,106.0
128.0,129.0,132.0,132.0,124.0,117.0,117.0,171.0,-1.0,116.0,-85.0,127.0,127.0,127.0,-115.0,-85.0,106.0
127.0,129.0,132.0,132.0,124.0,117.0,117.0,171.0,-1.0,116.0,-85.0,127.0,127.0,127.0,-115.0,-85.0,106.0
128.0,129.0,132.0,132.0,124.0,117.0,117.0,170.0,-1.0,116.0,-85.0,127.0,127.0,127.0,-115.0,-85.0,106.0
128.0,129.0,132.0,132.0,124.0,118.0,117.0,171.0,-1.0,116.0,-85.0,127.0,127.0,127.0,-115.0,-85.0,106.0
127.0,129.0,132.0,132.0,124.0,118.0,117.0,171.0,-1.0,116.0,-85.0,127.0,127.0,127.0,-115.0,-85.0,106.0
128.0,129.0,132.0,133.0,125.0,116.0,118.0,172.0,-1.0,116.0,-85.0,127.0,127.0,127.0,-115.0,-85.0,106.0
128.0,129.0,132.0,133.0,124.0,116.0,118.0,172.0,-1.0,116.0,-85.0,127.0,127.0,127.0,-115.0,-85.0,106.0
128.0,129.0,132.0,133.0,124.0,117.0,117.0,172.0,-1.0,116.0,-85.0,127.0,127.0,127.0,-115.0,-85.0,106.0
128.0,129.0,132.0,133.0,124.0,117.0,117.0,172.0,-1.0,116.0,-85.0,127.0,127.0,127.0,-115.0,-85.0,106.0
128.0,129.0,132.0,132.0,124.0,117.0,117.0,171.0,-1.0,116.0,-85.0,127.0,127.0,127.0,-115.0,-85.0,106.0
127.0,130.0,135.0,136.0,123.0,115.0,80.0,172.0,-1.0,117.0,-84.0,126.0,127.0,127.0,-115.0,-85.0,106.0
127.0,131.0,136.0,136.0,123.0,115.0,78.0,172.0,-1.0,117.0,-84.0,126.0,127.0,127.0,-115.0,-85.0,106.0
127.0,131.0,136.0,137.0,123.0,116.0,75.0,171.0,-1.0,117.0,-84.0,126.0,127.0,127.0,-115.0,-85.0,106.0
127.0,131.0,136.0,137.0,123.0,116.0,72.0,171.0,-1.0,117.0,-84.0,126.0,127.0,127.0,-115.0,-85.0,106.0
127.0,130.0,135.0,133.0,123.0,114.0,94.0,175.0,-1.0,117.0,-84.0,126.0,127.0,127.0,-115.0,-85.0,106.0
127.0,130.0,135.0,134.0,123.0,114.0,92.0,175.0,-1.0,117.0,-84.0,126.0,127.0,127.0,-115.0,-85.0,106.0
127.0,130.0,135.0,134.0,123.0,115.0,89.0,174.0,-1.0,117.0,-84.0,126.0,127.0,127.0,-115.0,-85.0,106.0
127.0,131.0,135.0,135.0,123.0,115.0,87.0,174.0,-1.0,117.0,-84.0,126.0,127.0,127.0,-115.0,-85.0,106.0
127.0,131.0,135.0,135.0,123.0,115.0,85.0,173.0,-1.0,117.0,-84.0,126.0,127.0,127.0,-115.0,-85.0,106.0
127.0,131.0,135.0,136.0,123.0,115.0,83.0,173.0,-1.0,117.0,-84.0,126.0,127.0,127.0,-115.0,-85.0,106.0
125.0,131.0,137.0,150.0,123.0,118.0,0.0,164.0,-1.0,118.0,-83.0,126.0,127.0,127.0,-116.0,-85.0,106.0
125.0,132.0,137.0,150.0,123.0,118.0,0.0,163.0,-1.0,118.0,-83.0,126.0,127.0,127.0,-116.0,-85.0,106.0
125.0,132.0,137.0,150.0,123.0,119.0,0.0,163.0,-1.0,118.0,-83.0,126.0,127.0,127.0,-116.0,-85.0,106.0
125.0,131.0,137.0,147.0,124.0,117.0,0.0,166.0,-1.0,118.0,-83.0,126.0,127.0,127.0,-116.0,-85.0,106.0
125.0,131.0,137.0,148.0,123.0,117.0,0.0,166.0,-1.0,118.0,-83.0,126.0,127.0,127.0,-116.0,-85.0,106.0
125.0,131.0,137.0,148.0,123.0,117.0,0.0,166.0,-1.0,118.0,-83.0,126.0,127.0,127.0,-116.0,-85.0,106.0
125.0,131.0,137.0,148.0,123.0,118.0,0.0,166.0,-1.0,118.0,-83.0,126.0,127.0,127.0,-116.0,-85.0,106.0
125.0,132.0,137.0,149.0,123.0,118.0,0.0,166.0,-1.0,118.0,-83.0,126.0,127.0,127.0,-116.0,-85.0,106.0
125.0,131.0,137.0,149.0,123.0,117.0,0.0,165.0,-1.0,118.0,-83.0,126.0,127.0,127.0,-116.0,-85.0,106.0
125.0,131.0,137.0,149.0,123.0,117.0,0.0,164.0,-1.0,118.0,-83.0,126.0,127.0,127.0,-116.0,-85.0,106.0
124.0,133.0,136.0,160.0,123.0,123.0,0.0,110.0,-1.0,117.0,-82.0,125.0,127.0,127.0,-117.0,-85.0,106.0
124.0,133.0,136.0,159.0,123.0,122.0,0.0,120.0,-1.0,117.0,-82.0,125.0,127.0,127.0,-117.0,-85.0,106.0
124.0,133.0,136.0,159.0,122.0,123.0,0.0,120.0,-1.0,117.0,-82.0,125.0,127.0,127.0,-117.0,-85.0,106.0
124.0,133.0,136.0,159.0,122.0,123.0,0.0,119.0,-1.0,117.0,-82.0,125.0,127.0,127.0,-117.0,-85.0,106.0
124.0,133.0,136.0,159.0,122.0,123.0,0.0,117.0,-1.0,117.0,-82.0,125.0,127.0,127.0,-117.0,-85.0,106.0
124.0,133.0,136.0,159.0,123.0,123.0,0.0,116.0,-1.0,117.0,-82.0,125.0,127.0,127.0,-117.0,-85.0,106.0
124.0,133.0,136.0,160.0,123.0,123.0,0.0,115.0,-1.0,117.0,-82.0,125.0,127.0,127.0,-117.0,-85.0,106.0
124.0,133.0,136.0,160.0,123.0,123.0,0.0,114.0,-1.0,117.0,-82.0,125.0,127.0,127.0,-117.0,-85.0,106.0
124.0,132.0,136.0,160.0,123.0,123.0,0.0,113.0,-1.0,117.0,-82.0,125.0,127.0,127.0,-117.0,-85.0,106.0
124.0,133.0,136.0,160.0,123.0,123.0,0.0,111.0,-1.0,117.0,-82.0,125.0,127.0,127.0,-117.0,-85.0,106.0
124.0,132.0,135.0,159.0,122.0,124.0,0.0,29.0,-1.0,115.0,-81.0,125.0,127.0,127.0,-118.0,-85.0,106.0
124.0,132.0,135.0,159.0,122.0,125.0,0.0,27.0,-1.0,115.0,-81.0,125.0,127.0,127.0,-118.0,-85.0,106.0
124.0,132.0,135.0,159.0,122.0,125.0,0.0,24.0,-1.0,115.0,-81.0,125.0,127.0,127.0,-118.0,-85.0,106.0
124.0,132.0,135.0,158.0,122.0,125.0,0.0,22.0,-1.0,115.0,-81.0,125.0,127.0,127.0,-118.0,-85.0,106.0
124.0,132.0,135.0,158.0,122.0,125.0,0.0,19.0,-1.0,115.0,-81.0,125.0,127.0,127.0,-118.0,-85.0,106.0
124.0,132.0,135.0,158.0,121.0,125.0,0.0,17.0,-1.0,115.0,-81.0,125.0,127.0,127.0,-118.0,-85.0,106.0
124.0,132.0,135.0,158.0,121.0,125.0,0.0,14.0,-1.0,115.0,-81.0,125.0,127.0,127.0,-118.0,-85.0,106.0
124.0,132.0,135.0,158.0,121.0,125.0,0.0,12.0,-1.0,115.0,-81.0,125.0,127.0,127.0,-118.0,-85.0,106.0
124.0,132.0,135.0,158.0,121.0,125.0,0.0,10.0,-1.0,115.0,-81.0,125.0,127.0,127.0,-118.0,-85.0,106.0
124.0,132.0,136.0,157.0,121.0,125.0,0.0,7.0,-1.0,115.0,-81.0,125.0,127.0,127.0,-118.0,-85.0,106.0
124.0,132.0,136.0,156.0,118.0,124.0,1.0,0.0,-1.0,113.0,-79.0,125.0,127.0,127.0,-118.0,-85.0,106.0
124.0,132.0,136.0,156.0,118.0,124.0,2.0,0.0,-1.0,113.0,-79.0,125.0,127.0,127.0,-118.0,-85.0,106.0
124.0,132.0,137.0,156.0,118.0,124.0,3.0,0.0,-1.0,113.0,-79.0,125.0,127.0,127.0,-118.0,-85.0,106.0
124.0,132.0,137.0,156.0,118.0,124.0,4.0,0.0,-1.0,113.0,-79.0,125.0,127.0,127.0,-118.0,-85.0,106.0
124.0,132.0,137.0,157.0,118.0,124.0,4.0,0.0,-1.0,113.0,-79.0,125.0,127.0,127.0,-118.0,-85.0,106.0
123.0,132.0,137.0,157.0,118.0,124.0,5.0,0.0,-1.0,113.0,-79.0,125.0,127.0,127.0,-118.0,-85.0,106.0
123.0,132.0,137.0,157.0,118.0,125.0,6.0,0.0,-1.0,113.0,-79.0,125.0,127.0,127.0,-118.0,-85.0,106.0
124.0,132.0,137.0,158.0,118.0,125.0,7.0,0.0,-1.0,113.0,-79.0,125.0,127.0,127.0,-118.0,-85.0,106.0
123.0,132.0,137.0,158.0,118.0,125.0,8.0,0.0,-1.0,113.0,-79.0,125.0,127.0,127.0,-118.0,-85.0,106.0
123.0,132.0,138.0,158.0,118.0,125.0,9.0,0.0,-1.0,113.0,-79.0,125.0,127.0,127.0,-118.0,-85.0,106.0
123.0,131.0,143.0,173.0,117.0,122.0,0.0,0.0,-1.0,112.0,-77.0,125.0,127.0,127.0,-118.0,-85.0,106.0
123.0,131.0,143.0,173.0,117.0,121.0,0.0,0.0,-1.0,112.0,-77.0,125.0,127.0,127.0,-118.0,-85.0,106.0
123.0,131.0,143.0,173.0,117.0,121.0,0.0,0.0,-1.0,112.0,-77.0,125.0,127.0,127.0,-118.0,-85.0,106.0
123.0,131.0,143.0,173.0,117.0,121.0,0.0,0.0,-1.0,112.0,-77.0,125.0,127.0,127.0,-118.0,-85.0,106.0
123.0,131.0,143.0,173.0,117.0,122.0,0.0,0.0,-1.0,112.0,-77.0,125.0,127.0,127.0,-118.0,-85.0,106.0
123.0,131.0,143.0,173.0,117.0,122.0,0.0,0.0,-1.0,112.0,-77.0,125.0,127.0,127.0,-118.0,-85.0,106.0
123.0,131.0,143.0,173.0,117.0,123.0,0.0,0.0,-1.0,112.0,-77.0,125.0,127.0,127.0,-118.0,-85.0,106.0
123.0,131.0,143.0,173.0,117.0,123.0,0.0,0.0,-1.0,112.0,-77.0,125.0,127.0,127.0,-118.0,-85.0,106.0
123.0,131.0,142.0,173.0,117.0,121.0,0.0,0.0,-1.0,112.0,-77.0,125.0,127.0,127.0,-118.0,-85.0,106.0
123.0,131.0,142.0,173.0,117.0,122.0,0.0,0.0,-1.0,112.0,-77.0,125.0,127.0,127.0,-118.0,-85.0,106.0
122.0,132.0,147.0,162.0,116.0,126.0,0.0,50.0,-1.0,111.0,-76.0,125.0,127.0,127.0,-118.0,-85.0,106.0
122.0,132.0,147.0,161.0,116.0,126.0,0.0,51.0,-1.0,111.0,-76.0,125.0,127.0,127.0,-118.0,-85.0,106.0
122.0,132.0,147.0,161.0,116.0,126.0,0.0,52.0,-1.0,111.0,-76.0,125.0,127.0,127.0,-118.0,-85.0,106.0
122.0,132.0,147.0,161.0,116.0,126.0,0.0,53.0,-1.0,111.0,-76.0,125.0,127.0,127.0,-118.0,-85.0,106.0
122.0,132.0,146.0,160.0,116.0,127.0,0.0,54.0,-1.0,111.0,-76.0,125.0,127.0,127.0,-118.0,-85.0,106.0
122.0,132.0,146.0,160.0,116.0,127.0,0.0,56.0,-1.0,111.0,-76.0,125.0,127.0,127.0,-118.0,-85.0,106.0
122.0,132.0,146.0,160.0,116.0,127.0,0.0,57.0,-1.0,111.0,-76.0,125.0,127.0,127.0,-118.0,-85.0,106.0
122.0,132.0,147.0,162.0,116.0,125.0,0.0,58.0,-1.0,111.0,-76.0,125.0,127.0,127.0,-118.0,-85.0,106.0
122.0,132.0,147.0,162.0,116.0,126.0,0.0,47.0,-1.0,111.0,-76.0,125.0,127.0,127.0,-118.0,-85.0,106.0
122.0,132.0,147.0,162.0,116.0,126.0,0.0,48.0,-1.0,111.0,-76.0,125.0,127.0,127.0,-118.0,-85.0,106.0
122.0,129.0,135.0,140.0,119.0,126.0,58.0,87.0,-1.0,109.0,-74.0,124.0,127.0,127.0,-118.0,-85.0,106.0
122.0,129.0,135.0,140.0,119.0,126.0,60.0,88.0,-1.0,109.0,-74.0,124.0,127.0,127.0,-118.0,-85.0,106.0
122.0,128.0,135.0,140.0,119.0,126.0,61.0,88.0,-1.0,109.0,-74.0,124.0,127.0,127.0,-118.0,-85.0,106.0
122.0,128.0,134.0,140.0,119.0,126.0,62.0,89.0,-1.0,109.0,-74.0,124.0,127.0,127.0,-118.0,-85.0,106.0
122.0,128.0,134.0,139.0,119.0,126.0,63.0,89.0,-1.0,109.0,-74.0,124.0,127.0,127.0,-118.0,-85.0,106.0
122.0,128.0,134.0,139.0,119.0,126.0,64.0,90.0,-1.0,109.0,-74.0,124.0,127.0,127.0,-118.0,-85.0,106.0
122.0,128.0,133.0,139.0,119.0,126.0,65.0,90.0,-1.0,109.0,-74.0,124.0,127.0,127.0,-118.0,-85.0,106.0
122.0,129.0,136.0,141.0,119.0,126.0,54.0,85.0,-1.0,109.0,-74.0,124.0,127.0,127.0,-118.0,-85.0,106.0
122.0,129.0,136.0,141.0,119.0,126.0,56.0,86.0,-1.0,109.0,-74.0,124.0,127.0,127.0,-118.0,-85.0,106.0
122.0,129.0,136.0,141.0,119.0,126.0,57.0,87.0,-1.0,109.0,-74.0,124.0,127.0,127.0,-118.0,-85.0,106.0
121.0,123.0,121.0,103.0,127.0,129.0,107.0,103.0,-1.0,107.0,-72.0,124.0,127.0,127.0,-118.0,-85.0,106.0
121.0,123.0,121.0,102.0,127.0,129.0,108.0,103.0,-1.0,107.0,-72.0,124.0,127.0,127.0,-118.0,-85.0,106.0
122.0,123.0,120.0,101.0,127.0,130.0,108.0,103.0,-1.0,107.0,-72.0,124.0,127.0,127.0,-118.0,-85.0,106.0
122.0,124.0,120.0,101.0,127.0,131.0,108.0,104.0,-1.0,107.0,-72.0,124.0,127.0,127.0,-118.0,-85.0,106.0
122.0,124.0,120.0,100.0,127.0,131.0,109.0,104.0,-1.0,107.0,-72.0,124.0,127.0,127.0,-118.0,-85.0,106.0
122.0,124.0,120.0,99.0,127.0,131.0,109.0,105.0,-1.0,107.0,-72.0,124.0,127.0,127.0,-118.0,-85.0,106.0
122.0,123.0,121.0,106.0,126.0,128.0,105.0,101.0,-1.0,107.0,-72.0,124.0,127.0,127.0,-118.0,-85.0,106.0
122.0,124.0,121.0,105.0,126.0,129.0,105.0,102.0,-1.0,107.0,-72.0,124.0,127.0,127.0,-118.0,-85.0,106.0
122.0,124.0,121.0,105.0,126.0,129.0,106.0,102.0,-1.0,107.0,-72.0,124.0,127.0,127.0,-118.0,-85.0,106.0
122.0,124.0,121.0,104.0,126.0,129.0,107.0,102.0,-1.0,107.0,-72.0,124.0,127.0,127.0,-118.0,-85.0,106.0
122.0,126.0,121.0,73.0,141.0,147.0,131.0,110.0,-1.0,106.0,-71.0,124.0,127.0,127.0,-118.0,-85.0,106.0
122.0,126.0,122.0,73.0,141.0,148.0,131.0,110.0,-1.0,106.0,-71.0,124.0,127.0,127.0,-118.0,-85.0,106.0
122.0,126.0,122.0,74.0,142.0,149.0,131.0,111.0,-1.0,106.0,-71.0,124.0,127.0,127.0,-118.0,-85.0,106.0
122.0,127.0,122.0,74.0,142.0,149.0,131.0,111.0,-1.0,106.0,-71.0,124.0,127.0,127.0,-118.0,-85.0,106.0
122.0,126.0,120.0,73.0,139.0,142.0,129.0,110.0,-1.0,106.0,-71.0,124.0,127.0,127.0,-118.0,-85.0,106.0
122.0,126.0,120.0,72.0,139.0,144.0,129.0,110.0,-1.0,106.0,-71.0,124.0,127.0,127.0,-118.0,-85.0,106.0
122.0,126.0,121.0,73.0,139.0,145.0,129.0,110.0,-1.0,106.0,-71.0,124.0,127.0,127.0,-118.0,-85.0,106.0
122.0,126.0,121.0,73.0,140.0,145.0,130.0,110.0,-1.0,106.0,-71.0,124.0,127.0,127.0,-118.0,-85.0,106.0
122.0,126.0,121.0,73.0,140.0,146.0,130.0,110.0,-1.0,106.0,-71.0,124.0,127.0,127.0,-118.0,-85.0,106.0
122.0,126.0,121.0,73.0,141.0,147.0,131.0,110.0,-1.0,106.0,-71.0,124.0,127.0,127.0,-118.0,-85.0,106.0
122.0,126.0,133.0,116.0,149.0,154.0,148.0,118.0,-1.0,107.0,-71.0,125.0,126.0,127.0,-118.0,-85.0,106.0
122.0,126.0,133.0,117.0,149.0,154.0,149.0,118.0,-1.0,107.0,-71.0,125.0,126.0,127.0,-118.0,-85.0,106.0
122.0,126.0,133.0,118.0,149.0,154.0,149.0,118.0,-1.0,107.0,-71.0,125.0,126.0,127.0,-118.0,-85.0,106.0
122.0,126.0,131.0,108.0,148.0,153.0,146.0,117.0,-1.0,107.0,-71.0,125.0,126.0,127.0,-118.0,-85.0,106.0
122.0,126.0,131.0,109.0,148.0,153.0,147.0,117.0,-1.0,107.0,-71.0,125.0,126.0,127.0,-118.0,-85.0,106.0
122.0,126.0,132.0,110.0,148.0,153.0,147.0,117.0,-1.0,107.0,-71.0,125.0,126.0,127.0,-118.0,-85.0,106.0
122.0,126.0,132.0,111.0,148.0,153.0,148.0,117.0,-1.0,107.0,-71.0,125.0,126.0,127.0,-118.0,-85.0,106.0
122.0,126.0,132.0,112.0,148.0,153.0,148.0,117.0,-1.0,107.0,-71.0,125.0,126.0,127.0,-118.0,-85.0,106.0
122.0,126.0,132.0,113.0,148.0,154.0,148.0,118.0,-1.0,107.0,-71.0,125.0,126.0,127.0,-118.0,-85.0,106.0
122.0,126.0,132.0,114.0,148.0,154.0,148.0,118.0,-1.0,107.0,-71.0,125.0,126.0,127.0,-118.0,-85.0,106.0
122.0,127.0,143.0,174.0,153.0,152.0,162.0,121.0,-1.0,109.0,-73.0,125.0,126.0,127.0,-118.0,-85.0,105.0
122.0,127.0,143.0,175.0,153.0,152.0,162.0,121.0,-1.0,109.0,-73.0,125.0,126.0,127.0,-118.0,-85.0,105.0
122.0,127.0,143.0,168.0,153.0,152.0,160.0,120.0,-1.0,109.0,-73.0,125.0,126.0,127.0,-118.0,-85.0,105.0
122.0,127.0,143.0,169.0,153.0,152.0,161.0,120.0,-1.0,109.0,-73.0,125.0,126.0,127.0,-118.0,-85.0,105.0
122.0,127.0,143.0,170.0,153.0,152.0,161.0,120.0,-1.0,109.0,-73.0,125.0,126.0,127.0,-118.0,-85.0,105.0
122.0,127.0,143.0,170.0,153.0,152.0,161.0,120.0,-1.0,109.0,-73.0,125.0,126.0,127.0,-118.0,-85.0,105.0
122.0,127.0,143.0,171.0,153.0,152.0,162.0,120.0,-1.0,109.0,-73.0,125.0,126.0,127.0,-118.0,-85.0,105.0
122.0,127.0,143.0,172.0,153.0,152.0,162.0,120.0,-1.0,109.0,-73.0,125.0,126.0,127.0,-118.0,-85.0,105.0
122.0,127.0,143.0,173.0,153.0,152.0,162.0,120.0,-1.0,109.0,-73.0,125.0,126.0,127.0,-118.0,-85.0,105.0
122.0,127.0,143.0,174.0,153.0,152.0,162.0,120.0,-1.0,109.0,-73.0,125.0,126.0,127.0,-118.0,-85.0,105.0
122.0,125.0,119.0,150.0,149.0,148.0,167.0,118.0,-1.0,110.0,-75.0,125.0,127.0,127.0,-118.0,-85.0,105.0
122.0,125.0,124.0,160.0,151.0,148.0,166.0,119.0,-1.0,110.0,-75.0,125.0,127.0,127.0,-118.0,-85.0,105.0
122.0,125.0,123.0,159.0,151.0,148.0,166.0,118.0,-1.0,110.0,-75.0,125.0,127.0,127.0,-118.0,-85.0,105.0
122.0,125.0,122.0,158.0,151.0,148.0,166.0,119.0,-1.0,110.0,-75.0,125.0,127.0,127.0,-118.0,-85.0,105.0
122.0,125.0,122.0,157.0,151.0,148.0,166.0,119.0,-1.0,110.0,-75.0,125.0,127.0,127.0,-118.0,-85.0,105.0
122.0,125.0,121.0,156.0,151.0,148.0,166.0,119.0,-1.0,110.0,-75.0,125.0,127.0,127.0,-118.0,-85.0,105.0
122.0,125.0,121.0,154.0,150.0,148.0,166.0,118.0,-1.0,110.0,-75.0,125.0,127.0,127.0,-118.0,-85.0,105.0
122.0,125.0,120.0,153.0,150.0,148.0,167.0,118.0,-1.0,110.0,-75.0,125.0,127.0,127.0,-118.0,-85.0,105.0
122.0,125.0,120.0,152.0,150.0,148.0,167.0,118.0,-1.0,110.0,-75.0,125.0,127.0,127.0,-118.0,-85.0,105.0
122.0,125.0,119.0,151.0,150.0,148.0,167.0,118.0,-1.0,110.0,-75.0,125.0,127.0,127.0,-118.0,-85.0,105.0
123.0,124.0,112.0,115.0,136.0,149.0,167.0,116.0,-1.0,109.0,-77.0,125.0,127.0,127.0,-118.0,-85.0,105.0
123.0,124.0,112.0,115.0,136.0,149.0,167.0,116.0,-1.0,109.0,-77.0,125.0,127.0,127.0,-118.0,-85.0,105.0
123.0,124.0,112.0,115.0,136.0,149.0,166.0,116.0,-1.0,109.0,-77.0,125.0,127.0,127.0,-118.0,-85.0,105.0
123.0,124.0,112.0,115.0,136.0,150.0,166.0,116.0,-1.0,109.0,-77.0,125.0,127.0,127.0,-118.0,-85.0,105.0
123.0,124.0,112.0,115.0,135.0,149.0,166.0,116.0,-1.0,109.0,-77.0,125.0,127.0,127.0,-118.0,-85.0,105.0
123.0,124.0,112.0,114.0,135.0,149.0,166.0,116.0,-1.0,109.0,-77.0,125.0,127.0,127.0,-118.0,-85.0,105.0
123.0,124.0,112.0,114.0,135.0,149.0,167.0,116.0,-1.0,109.0,-77.0,125.0,127.0,127.0,-118.0,-85.0,105.0
123.0,124.0,112.0,114.0,135.0,149.0,167.0,116.0,-1.0,109.0,-77.0,125.0,127.0,127.0,-118.0,-85.0,105.0
123.0,124.0,113.0,114.0,135.0,149.0,167.0,115.0,-1.0,109.0,-77.0,125.0,127.0,127.0,-118.0,-85.0,105.0
123.0,124.0,113.0,114.0,135.0,149.0,167.0,115.0,-1.0,109.0,-77.0,125.0,127.0,127.0,-118.0,-85.0,105.0
124.0,125.0,118.0,117.0,128.0,145.0,163.0,117.0,-1.0,107.0,-78.0,126.0,127.0,127.0,-118.0,-85.0,105.0
124.0,125.0,118.0,117.0,127.0,145.0,163.0,117.0,-1.0,107.0,-78.0,126.0,127.0,127.0,-118.0,-85.0,105.0
124.0,125.0,118.0,117.0,127.0,145.0,163.0,118.0,-1.0,107.0,-78.0,126.0,127.0,127.0,-118.0,-85.0,105.0
124.0,125.0,118.0,117.0,127.0,145.0,163.0,118.0,-1.0,107.0,-78.0,126.0,127.0,127.0,-118.0,-85.0,105.0
124.0,125.0,118.0,117.0,127.0,145.0,163.0,118.0,-1.0,107.0,-78.0,126.0,127.0,127.0,-118.0,-85.0,105.0
124.0,125.0,118.0,117.0,127.0,144.0,163.0,118.0,-1.0,107.0,-78.0,126.0,127.0,127.0,-118.0,-85.0,105.0
124.0,125.0,119.0,117.0,127.0,144.0,163.0,118.0,-1.0,107.0,-78.0,126.0,127.0,127.0,-118.0,-85.0,105.0
124.0,125.0,119.0,118.0,127.0,144.0,163.0,118.0,-1.0,107.0,-78.0,126.0,127.0,127.0,-118.0,-85.0,105.0
124.0,125.0,119.0,118.0,127.0,144.0,163.0,118.0,-1.0,107.0,-78.0,126.0,127.0,127.0,-118.0,-85.0,105.0
124.0,125.0,118.0,117.0,128.0,145.0,163.0,117.0,-1.0,107.0,-78.0,126.0,127.0,127.0,-118.0,-85.0,105.0
125.0,127.0,121.0,120.0,124.0,143.0,158.0,123.0,-1.0,105.0,-80.0,126.0,127.0,127.0,-118.0,-85.0,105.0
125.0,127.0,122.0,120.0,124.0,143.0,158.0,123.0,-1.0,105.0,-80.0,126.0,127.0,127.0,-118.0,-85.0,105.0
125.0,127.0,122.0,120.0,124.0,142.0,157.0,123.0,-1.0,105.0,-80.0,126.0,127.0,127.0,-118.0,-85.0,105.0
125.0,127.0,122.0,120.0,124.0,142.0,157.0,124.0,-1.0,105.0,-80.0,126.0,127.0,127.0,-118.0,-85.0,105.0
125.0,127.0,122.0,120.0,124.0,142.0,157.0,124.0,-1.0,105.0,-80.0,126.0,127.0,127.0,-118.0,-85.0,105.0
125.0,127.0,122.0,120.0,124.0,142.0,157.0,124.0,-1.0,105.0,-80.0,126.0,127.0,127.0,-118.0,-85.0,105.0
125.0,127.0,122.0,120.0,124.0,142.0,157.0,124.0,-1.0,105.0,-80.0,126.0,127.0,127.0,-118.0,-85.0,105.0
125.0,127.0,122.0,120.0,124.0,142.0,157.0,124.0,-1.0,105.0,-80.0,126.0,127.0,127.0,-118.0,-85.0,105.0
125.0,127.0,122.0,120.0,125.0,142.0,159.0,123.0,-1.0,105.0,-80.0,126.0,127.0,127.0,-118.0,-85.0,105.0
125.0,127.0,122.0,120.0,125.0,142.0,158.0,123.0,-1.0,105.0,-80.0,126.0,127.0,127.0,-118.0,-85.0,105.0
125.0,128.0,123.0,121.0,123.0,141.0,152.0,129.0,-1.0,104.0,-80.0,127.0,127.0,127.0,-118.0,-85.0,105.0
125.0,128.0,123.0,121.0,123.0,141.0,152.0,130.0,-1.0,104.0,-80.0,127.0,127.0,127.0,-118.0,-85.0,105.0
125.0,128.0,123.0,121.0,123.0,141.0,152.0,130.0,-1.0,104.0,-80.0,127.0,127.0,127.0,-118.0,-85.0,105.0
125.0,128.0,123.0,121.0,123.0,141.0,152.0,130.0,-1.0,104.0,-80.0,127.0,127.0,127.0,-118.0,-85.0,105.0
125.0,128.0,123.0,121.0,123.0,141.0,152.0,130.0,-1.0,104.0,-80.0,127.0,127.0,127.0,-118.0,-85.0,105.0
125.0,128.0,123.0,121.0,124.0,141.0,152.0,130.0,-1.0,104.0,-80.0,127.0,127.0,127.0,-118.0,-85.0,105.0
125.0,128.0,123.0,121.0,124.0,141.0,152.0,130.0,-1.0,104.0,-80.0,127.0,127.0,127.0,-118.0,-85.0,105.0
125.0,128.0,123.0,120.0,124.0,141.0,153.0,129.0,-1.0,104.0,-80.0,127.0,127.0,127.0,-118.0,-85.0,105.0
125.0,128.0,123.0,120.0,124.0,141.0,153.0,129.0,-1.0,104.0,-80.0,127.0,127.0,127.0,-118.0,-85.0,105.0
125.0,128.0,123.0,120.0,123.0,141.0,153.0,129.0,-1.0,104.0,-80.0,127.0,127.0,127.0,-118.0,-85.0,105.0
126.0,129.0,124.0,122.0,123.0,140.0,149.0,131.0,-1.0,104.0,-81.0,127.0,127.0,127.0,-118.0,-85.0,105.0
126.0,129.0,125.0,122.0,123.0,140.0,149.0,131.0,-1.0,104.0,-81.0,127.0,127.0,127.0,-118.0,-85.0,105.0
126.0,129.0,125.0,123.0,123.0,140.0,149.0,131.0,-1.0,104.0,-81.0,127.0,127.0,127.0,-118.0,-85.0,105.0
126.0,129.0,125.0,123.0,123.0,140.0,149.0,131.0,-1.0,104.0,-81.0,127.0,127.0,127.0,-118.0,-85.0,105.0
126.0,129.0,125.0,123.0,123.0,140.0,150.0,131.0,-1.0,104.0,-81.0,127.0,127.0,127.0,-118.0,-85.0,105.0
126.0,129.0,125.0,123.0,123.0,140.0,150.0,131.0,-1.0,104.0,-81.0,127.0,127.0,127.0,-118.0,-85.0,105.0
126.0,129.0,124.0,122.0,123.0,139.0,150.0,131.0,-1.0,104.0,-81.0,127.0,127.0,127.0,-118.0,-85.0,105.0
126.0,129.0,124.0,122.0,123.0,139.0,150.0,131.0,-1.0,104.0,-81.0,127.0,127.0,127.0,-118.0,-85.0,105.0
126.0,129.0,124.0,122.0,123.0,140.0,150.0,131.0,-1.0,104.0,-81.0,127.0,127.0,127.0,-118.0,-85.0,105.0
126.0,129.0,124.0,122.0,123.0,140.0,149.0,131.0,-1.0,104.0,-81.0,127.0,127.0,127.0,-118.0,-85.0,105.0
126.0,128.0,126.0,124.0,123.0,139.0,147.0,130.0,-1.0,103.0,-80.0,127.0,127.0,127.0,-118.0,-85.0,105.0
126.0,128.0,126.0,124.0,123.0,139.0,147.0,130.0,-1.0,103.0,-80.0,127.0,127.0,127.0,-118.0,-85.0,105.0
125.0,128.0,126.0,124.0,123.0,139.0,147.0,130.0,-1.0,103.0,-80.0,127.0,127.0,127.0,-118.0,-85.0,105.0
125.0,128.0,126.0,124.0,123.0,138.0,147.0,129.0,-1.0,103.0,-80.0,127.0,127.0,127.0,-118.0,-85.0,105.0
125.0,128.0,126.0,124.0,123.0,138.0,147.0,129.0,-1.0,103.0,-80.0,127.0,127.0,127.0,-118.0,-85.0,105.0
125.0,128.0,126.0,123.0,123.0,138.0,148.0,130.0,-1.0,103.0,-80.0,127.0,127.0,127.0,-118.0,-85.0,105.0
126.0,128.0,126.0,123.0,123.0,138.0,148.0,130.0,-1.0,103.0,-80.0,127.0,127.0,127.0,-118.0,-85.0,105.0
125.0,128.0,126.0,123.0,123.0,139.0,148.0,130.0,-1.0,103.0,-80.0,127.0,127.0,127.0,-118.0,-85.0,105.0
126.0,128.0,126.0,123.0,122.0,139.0,147.0,130.0,-1.0,103.0,-80.0,127.0,127.0,127.0,-118.0,-85.0,105.0
126.0,128.0,126.0,124.0,123.0,139.0,147.0,130.0,-1.0,103.0,-80.0,127.0,127.0,127.0,-118.0,-85.0,105.0
126.0,127.0,126.0,124.0,122.0,137.0,145.0,127.0,-1.0,103.0,-80.0,127.0,127.0,127.0,-118.0,-85.0,105.0
126.0,127.0,126.0,124.0,122.0,137.0,144.0,127.0,-1.0,103.0,-80.0,127.0,127.0,127.0,-118.0,-85.0,105.0
126.0,127.0,127.0,123.0,122.0,137.0,144.0,127.0,-1.0,103.0,-80.0,127.0,127.0,127.0,-118.0,-85.0,105.0
126.0,127.0,127.0,123.0,122.0,137.0,144.0,127.0,-1.0,103.0,-80.0,127.0,127.0,127.0,-118.0,-85.0,105.0
125.0,127.0,127.0,123.0,122.0,137.0,145.0,127.0,-1.0,103.0,-80.0,127.0,127.0,127.0,-118.0,-85.0,105.0
126.0,127.0,127.0,123.0,122.0,137.0,145.0,127.0,-1.0,103.0,-80.0,127.0,127.0,127.0,-118.0,-85.0,105.0
125.0,127.0,127.0,123.0,122.0,137.0,145.0,127.0,-1.0,103.0,-80.0,127.0,127.0,127.0,-118.0,-85.0,105.0
126.0,127.0,127.0,123.0,122.0,137.0,145.0,126.0,-1.0,103.0,-80.0,127.0,127.0,127.0,-118.0,-85.0,105.0
125.0,127.0,127.0,123.0,122.0,137.0,145.0,126.0,-1.0,103.0,-80.0,127.0,127.0,127.0,-118.0,-85.0,105.0
125.0,127.0,127.0,123.0,122.0,137.0,145.0,127.0,-1.0,103.0,-80.0,127.0,127.0,127.0,-118.0,-85.0,105.0
125.0,127.0,127.0,124.0,123.0,135.0,142.0,126.0,-1.0,102.0,-79.0,127.0,127.0,127.0,-117.0,-85.0,105.0
125.0,127.0,127.0,124.0,123.0,135.0,142.0,126.0,-1.0,102.0,-79.0,127.0,127.0,127.0,-117.0,-85.0,105.0
125.0,127.0,127.0,124.0,124.0,135.0,142.0,126.0,-1.0,102.0,-79.0,127.0,127.0,127.0,-117.0,-85.0,105.0
126.0,127.0,126.0,123.0,123.0,136.0,142.0,126.0,-1.0,102.0,-79.0,127.0,127.0,127.0,-117.0,-85.0,105.0
126.0,127.0,126.0,124.0,123.0,136.0,142.0,126.0,-1.0,102.0,-79.0,127.0,127.0,127.0,-117.0,-85.0,105.0
126.0,127.0,126.0,124.0,123.0,136.0,142.0,126.0,-1.0,102.0,-79.0,127.0,127.0,127.0,-117.0,-85.0,105.0
126.0,127.0,126.0,124.0,123.0,136.0,142.0,126.0,-1.0,102.0,-79.0,127.0,127.0,127.0,-117.0,-85.0,105.0
126.0,127.0,126.0,124.0,123.0,136.0,142.0,126.0,-1.0,102.0,-79.0,127.0,127.0,127.0,-117.0,-85.0,105.0
126.0,127.0,126.0,124.0,123.0,136.0,142.0,126.0,-1.0,102.0,-79.0,127.0,127.0,127.0,-117.0,-85.0,105.0
126.0,127.0,126.0,124.0,123.0,135.0,142.0,126.0,-1.0,102.0,-79.0,127.0,127.0,127.0,-117.0,-85.0,105.0
126.0,128.0,126.0,124.0,124.0,136.0,140.0,125.0,-1.0,101.0,-79.0,127.0,127.0,127.0,-117.0,-85.0,105.0
126.0,127.0,126.0,123.0,124.0,136.0,140.0,125.0,-1.0,101.0,-79.0,127.0,127.0,127.0,-117.0,-85.0,105.0
126.0,128.0,126.0,124.0,123.0,136.0,140.0,126.0,-1.0,101.0,-79.0,127.0,127.0,127.0,-117.0,-85.0,105.0
126.0,128.0,126.0,124.0,123.0,136.0,140.0,126.0,-1.0,101.0,-79.0,127.0,127.0,127.0,-117.0,-85.0,105.0
126.0,128.0,126.0,124.0,124.0,136.0,140.0,126.0,-1.0,101.0,-79.0,127.0,127.0,127.0,-117.0,-85.0,105.0
126.0,128.0,126.0,124.0,124.0,136.0,140.0,126.0,-1.0,101.0,-79.0,127.0,127.0,127.0,-117.0,-85.0,105.0
126.0,128.0,126.0,124.0,123.0,136.0,140.0,126.0,-1.0,101.0,-79.0,127.0,127.0,127.0,-117.0,-85.0,105.0
126.0,128.0,126.0,124.0,124.0,136.0,140.0,126.0,-1.0,101.0,-79.0,127.0,127.0,127.0,-117.0,-85.0,105.0
126.0,128.0,126.0,124.0,124.0,136.0,140.0,125.0,-1.0,101.0,-79.0,127.0,127.0,127.0,-117.0,-85.0,105.0
126.0,128.0,126.0,124.0,124.0,136.0,140.0,125.0,-1.0,101.0,-79.0,127.0,127.0,127.0,-117.0,-85.0,105.0
126.0,128.0,127.0,123.0,124.0,135.0,138.0,125.0,-1.0,102.0,-78.0,127.0,127.0,127.0,-117.0,-85.0,105.0
126.0,128.0,126.0,123.0,124.0,136.0,138.0,125.0,-1.0,102.0,-78.0,127.0,127.0,127.0,-117.0,-85.0,105.0
126.0,128.0,126.0,123.0,124.0,136.0,138.0,125.0,-1.0,102.0,-78.0,127.0,127.0,127.0,-117.0,-85.0,105.0
126.0,128.0,127.0,123.0,124.0,136.0,138.0,125.0,-1.0,102.0,-78.0,127.0,127.0,127.0,-117.0,-85.0,105.0
126.0,128.0,127.0,123.0,124.0,136.0,138.0,125.0,-1.0,102.0,-78.0,127.0,127.0,127.0,-117.0,-85.0,105.0
126.0,128.0,127.0,123.0,124.0,136.0,138.0,125.0,-1.0,102.0,-78.0,127.0,127.0,127.0,-117.0,-85.0,105.0
126.0,128.0,127.0,123.0,124.0,136.0,138.0,125.0,-1.0,102.0,-78.0,127.0,127.0,127.0,-117.0,-85.0,105.0
126.0,128.0,127.0,123.0,124.0,135.0,138.0,125.0,-1.0,102.0,-78.0,127.0,127.0,127.0,-117.0,-85.0,105.0
126.0,128.0,127.0,123.0,124.0,135.0,138.0,125.0,-1.0,102.0,-78.0,127.0,127.0,127.0,-117.0,-85.0,105.0
126.0,128.0,127.0,123.0,124.0,135.0,138.0,125.0,-1.0,102.0,-78.0,127.0,127.0,127.0,-117.0,-85.0,105.0
126.0,128.0,127.0,123.0,124.0,135.0,136.0,126.0,-1.0,102.0,-78.0,127.0,127.0,127.0,-117.0,-85.0,105.0
126.0,128.0,127.0,123.0,124.0,135.0,136.0,126.0,-1.0,102.0,-78.0,127.0,127.0,127.0,-117.0,-85.0,105.0
126.0,128.0,127.0,123.0,124.0,135.0,136.0,126.0,-1.0,102.0,-78.0,127.0,127.0,127.0,-117.0,-85.0,105.0
126.0,127.0,127.0,123.0,124.0,135.0,136.0,126.0,-1.0,102.0,-78.0,127.0,127.0,127.0,-117.0,-85.0,105.0
126.0,128.0,127.0,123.0,124.0,135.0,136.0,126.0,-1.0,102.0,-78.0,127.0,127.0,127.0,-117.0,-85.0,105.0
126.0,128.0,127.0,123.0,124.0,135.0,136.0,126.0,-1.0,102.0,-78.0,127.0,127.0,127.0,-117.0,-85.0,105.0
126.0,127.0,127.0,123.0,124.0,135.0,136.0,126.0,-1.0,102.0,-78.0,127.0,127.0,127.0,-117.0,-85.0,105.0
126.0,127.0,127.0,123.0,125.0,135.0,136.0,125.0,-1.0,102.0,-78.0,127.0,127.0,127.0,-117.0,-85.0,105.0
126.0,127.0,127.0,123.0,124.0,135.0,136.0,125.0,-1.0,102.0,-78.0,127.0,127.0,127.0,-117.0,-85.0,105.0
126.0,127.0,127.0,123.0,125.0,135.0,136.0,125.0,-1.0,102.0,-78.0,127.0,127.0,127.0,-117.0,-85.0,105.0
126.0,127.0,126.0,124.0,124.0,136.0,135.0,126.0,-1.0,103.0,-78.0,127.0,127.0,127.0,-117.0,-85.0,105.0
126.0,128.0,126.0,124.0,124.0,136.0,135.0,126.0,-1.0,103.0,-78.0,127.0,127.0,127.0,-117.0,-85.0,105.0
126.0,128.0,126.0,124.0,124.0,135.0,135.0,126.0,-1.0,103.0,-78.0,127.0,127.0,127.0,-117.0,-85.0,105.0
126.0,128.0,127.0,124.0,125.0,135.0,135.0,126.0,-1.0,103.0,-78.0,127.0,127.0,127.0,-117.0,-85.0,105.0
126.0,128.0,127.0,124.0,125.0,135.0,135.0,126.0,-1.0,103.0,-78.0,127.0,127.0,127.0,-117.0,-85.0,105.0
126.0,128.0,127.0,124.0,125.0,135.0,135.0,125.0,-1.0,103.0,-78.0,127.0,127.0,127.0,-117.0,-85.0,105.0
126.0,127.0,127.0,124.0,125.0,134.0,135.0,125.0,-1.0,103.0,-78.0,127.0,127.0,127.0,-117.0,-85.0,105.0
126.0,127.0,127.0,124.0,125.0,134.0,135.0,125.0,-1.0,103.0,-78.0,127.0,127.0,127.0,-117.0,-85.0,105.0
126.0,127.0,127.0,124.0,125.0,134.0,135.0,125.0,-1.0,103.0,-78.0,127.0,127.0,127.0,-117.0,-85.0,105.0
126.0,127.0,126.0,124.0,124.0,136.0,135.0,126.0,-1.0,103.0,-78.0,127.0,127.0,127.0,-117.0,-85.0,105.0
126.0,128.0,127.0,124.0,125.0,135.0,134.0,125.0,-1.0,103.0,-78.0,127.0,127.0,127.0,-117.0,-85.0,105.0
126.0,128.0,127.0,124.0,125.0,134.0,134.0,125.0,-1.0,103.0,-78.0,127.0,127.0,127.0,-117.0,-85.0,105.0
126.0,128.0,127.0,124.0,125.0,134.0,134.0,125.0,-1.0,103.0,-78.0,127.0,127.0,127.0,-117.0,-85.0,105.0
126.0,128.0,127.0,124.0,125.0,134.0,134.0,125.0,-1.0,103.0,-78.0,127.0,127.0,127.0,-117.0,-85.0,105.0
126.0,128.0,127.0,124.0,125.0,134.0,134.0,125.0,-1.0,103.0,-78.0,127.0,127.0,127.0,-117.0,-85.0,105.0
126.0,127.0,127.0,124.0,125.0,134.0,134.0,125.0,-1.0,103.0,-78.0,127.0,127.0,127.0,-117.0,-85.0,105.0
126.0,127.0,127.0,124.0,125.0,134.0,134.0,125.0,-1.0,103.0,-78.0,127.0,127.0,127.0,-117.0,-85.0,105.0
126.0,127.0,127.0,124.0,125.0,134.0,134.0,125.0,-1.0,103.0,-78.0,127.0,127.0,127.0,-117.0,-85.0,105.0
126.0,128.0,127.0,124.0,125.0,134.0,134.0,125.0,-1.0,103.0,-78.0,127.0,127.0,127.0,-117.0,-85.0,105.0
126.0,128.0,127.0,124.0,124.0,135.0,134.0,126.0,-1.0,103.0,-78.0,127.0,127.0,127.0,-117.0,-85.0,105.0
126.0,127.0,127.0,123.0,125.0,135.0,133.0,126.0,-1.0,104.0,-78.0,127.0,127.0,127.0,-117.0,-85.0,105.0
126.0,127.0,127.0,123.0,125.0,134.0,133.0,126.0,-1.0,104.0,-78.0,127.0,127.0,127.0,-117.0,-85.0,105.0
126.0,127.0,127.0,123.0,125.0,135.0,133.0,126.0,-1.0,104.0,-78.0,127.0,127.0,127.0,-117.0,-85.0,105.0
126.0,127.0,127.0,123.0,125.0,135.0,133.0,125.0,-1.0,104.0,-78.0,127.0,127.0,127.0,-117.0,-85.0,105.0
126.0,127.0,127.0,123.0,125.0,134.0,133.0,125.0,-1.0,104.0,-78.0,127.0,127.0,127.0,-117.0,-85.0,105.0
126.0,127.0,127.0,123.0,125.0,134.0,133.0,125.0,-1.0,104.0,-78.0,127.0,127.0,127.0,-117.0,-85.0,105.0
126.0,127.0,127.0,123.0,125.0,134.0,133.0,125.0,-1.0,104.0,-78.0,127.0,127.0,127.0,-117.0,-85.0,105.0
126.0,127.0,127.0,123.0,125.0,134.0,133.0,125.0,-1.0,104.0,-78.0,127.0,127.0,127.0,-117.0,-85.0,105.0
126.0,127.0,127.0,123.0,125.0,134.0,133.0,126.0,-1.0,104.0,-78.0,127.0,127.0,127.0,-117.0,-85.0,105.0
126.0,127.0,127.0,123.0,125.0,135.0,133.0,126.0,-1.0,104.0,-78.0,127.0,127.0,127.0,-117.0,-85.0,105.0
126.0,127.0,126.0,124.0,125.0,133.0,132.0,124.0,-1.0,104.0,-77.0,127.0,127.0,127.0,-116.0,-85.0,105.0
126.0,127.0,127.0,124.0,125.0,133.0,132.0,125.0,-1.0,104.0,-77.0,127.0,127.0,127.0,-116.0,-85.0,105.0
126.0,127.0,127.0,124.0,125.0,133.0,132.0,125.0,-1.0,104.0,-77.0,127.0,127.0,127.0,-116.0,-85.0,105.0
126.0,127.0,127.0,124.0,125.0,133.0,132.0,125.0,-1.0,104.0,-77.0,127.0,127.0,127.0,-116.0,-85.0,105.0
126.0,127.0,127.0,124.0,125.0,133.0,132.0,125.0,-1.0,104.0,-77.0,127.0,127.0,127.0,-116.0,-85.0,105.0
126.0,127.0,127.0,124.0,125.0,133.0,132.0,125.0,-1.0,104.0,-77.0,127.0,127.0,127.0,-116.0,-85.0,105.0
126.0,127.0,127.0,124.0,125.0,133.0,134.0,124.0,-1.0,104.0,-77.0,127.0,127.0,127.0,-116.0,-85.0,105.0
126.0,127.0,127.0,124.0,126.0,133.0,133.0,124.0,-1.0,104.0,-77.0,127.0,127.0,127.0,-116.0,-85.0,105.0
126.0,127.0,127.0,124.0,125.0,133.0,133.0,124.0,-1.0,104.0,-77.0,127.0,127.0,127.0,-116.0,-85.0,105.0
126.0,127.0,127.0,124.0,125.0,133.0,133.0,124.0,-1.0,104.0,-77.0,127.0,127.0,127.0,-116.0,-85.0,105.0
126.0,127.0,127.0,124.0,125.0,133.0,131.0,126.0,-1.0,104.0,-77.0,127.0,127.0,127.0,-116.0,-85.0,105.0
126.0,127.0,127.0,124.0,125.0,133.0,132.0,126.0,-1.0,104.0,-77.0,127.0,127.0,127.0,-116.0,-85.0,105.0
126.0,127.0,127.0,124.0,125.0,133.0,132.0,126.0,-1.0,104.0,-77.0,127.0,127.0,127.0,-116.0,-85.0,105.0
126.0,127.0,127.0,124.0,125.0,133.0,132.0,126.0,-1.0,104.0,-77.0,127.0,127.0,127.0,-116.0,-85.0,105.0
126.0,127.0,126.0,124.0,125.0,134.0,131.0,126.0,-1.0,104.0,-77.0,127.0,127.0,127.0,-116.0,-85.0,105.0
126.0,127.0,126.0,124.0,125.0,134.0,131.0,126.0,-1.0,104.0,-77.0,127.0,127.0,127.0,-116.0,-85.0,105.0
126.0,127.0,126.0,124.0,125.0,134.0,131.0,126.0,-1.0,104.0,-77.0,127.0,127.0,127.0,-116.0,-85.0,105.0
126.0,127.0,126.0,124.0,125.0,134.0,131.0,126.0,-1.0,104.0,-77.0,127.0,127.0,127.0,-116.0,-85.0,105.0
126.0,127.0,126.0,124.0,125.0,134.0,131.0,126.0,-1.0,104.0,-77.0,127.0,127.0,127.0,-116.0,-85.0,105.0
126.0,127.0,127.0,124.0,125.0,133.0,131.0,126.0,-1.0,104.0,-77.0,127.0,127.0,127.0,-116.0,-85.0,105.0
126.0,127.0,127.0,124.0,126.0,133.0,131.0,126.0,-1.0,104.0,-78.0,127.0,127.0,127.0,-116.0,-85.0,105.0
126.0,127.0,127.0,124.0,126.0,133.0,131.0,126.0,-1.0,104.0,-78.0,127.0,127.0,127.0,-116.0,-85.0,105.0
126.0,127.0,127.0,124.0,126.0,133.0,131.0,126.0,-1.0,104.0,-78.0,127.0,127.0,127.0,-116.0,-85.0,105.0
127.0,127.0,126.0,124.0,125.0,133.0,130.0,126.0,-1.0,104.0,-78.0,127.0,127.0,127.0,-116.0,-85.0,105.0
127.0,127.0,126.0,124.0,126.0,133.0,131.0,126.0,-1.0,104.0,-78.0,127.0,127.0,127.0,-116.0,-85.0,105.0
126.0,127.0,126.0,124.0,126.0,133.0,131.0,126.0,-1.0,104.0,-78.0,127.0,127.0,127.0,-116.0,-85.0,105.0
126.0,127.0,126.0,124.0,126.0,133.0,131.0,126.0,-1.0,104.0,-78.0,127.0,127.0,127.0,-116.0,-85.0,105.0
127.0,127.0,127.0,124.0,126.0,133.0,131.0,126.0,-1.0,104.0,-78.0,127.0,127.0,127.0,-116.0,-85.0,105.0
126.0,127.0,127.0,124.0,126.0,133.0,131.0,126.0,-1.0,104.0,-78.0,127.0,127.0,127.0,-116.0,-85.0,105.0
126.0,127.0,127.0,124.0,126.0,133.0,131.0,126.0,-1.0,104.0,-78.0,127.0,127.0,127.0,-116.0,-85.0,105.0
126.0,127.0,127.0,124.0,126.0,132.0,130.0,127.0,-1.0,104.0,-78.0,127.0,127.0,127.0,-116.0,-85.0,105.0
126.0,127.0,127.0,124.0,126.0,132.0,131.0,127.0,-1.0,104.0,-78.0,127.0,127.0,127.0,-116.0,-85.0,105.0
127.0,127.0,126.0,124.0,125.0,133.0,130.0,127.0,-1.0,104.0,-78.0,127.0,127.0,127.0,-116.0,-85.0,105.0
127.0,127.0,126.0,124.0,126.0,133.0,130.0,127.0,-1.0,104.0,-78.0,127.0,127.0,127.0,-116.0,-85.0,105.0
127.0,127.0,126.0,124.0,126.0,133.0,130.0,127.0,-1.0,104.0,-78.0,127.0,127.0,127.0,-116.0,-85.0,105.0
127.0,127.0,126.0,124.0,126.0,133.0,130.0,127.0,-1.0,104.0,-78.0,127.0,127.0,127.0,-116.0,-85.0,105.0
127.0,127.0,126.0,124.0,126.0,133.0,130.0,127.0,-1.0,104.0,-78.0,127.0,127.0,127.0,-116.0,-85.0,105.0
127.0,127.0,126.0,124.0,126.0,132.0,130.0,127.0,-1.0,104.0,-78.0,127.0,127.0,127.0,-116.0,-85.0,105.0
127.0,127.0,126.0,124.0,126.0,132.0,130.0,127.0,-1.0,104.0,-78.0,127.0,127.0,127.0,-116.0,-85.0,105.0
126.0,127.0,127.0,124.0,126.0,132.0,130.0,127.0,-1.0,104.0,-78.0,127.0,127.0,127.0,-116.0,-85.0,105.0
126.0,127.0,126.0,124.0,126.0,132.0,130.0,127.0,-1.0,104.0,-79.0,127.0,127.0,127.0,-116.0,-85.0,105.0
126.0,128.0,126.0,124.0,125.0,133.0,130.0,128.0,-1.0,104.0,-79.0,127.0,127.0,127.0,-116.0,-85.0,105.0
126.0,127.0,126.0,124.0,125.0,133.0,130.0,128.0,-1.0,104.0,-79.0,127.0,127.0,127.0,-116.0,-85.0,105.0
126.0,127.0,126.0,124.0,125.0,133.0,130.0,128.0,-1.0,104.0,-79.0,127.0,127.0,127.0,-116.0,-85.0,105.0
126.0,127.0,126.0,124.0,125.0,133.0,130.0,128.0,-1.0,104.0,-79.0,127.0,127.0,127.0,-116.0,-85.0,105.0
126.0,127.0,126.0,124.0,125.0,133.0,130.0,128.0,-1.0,104.0,-79.0,127.0,127.0,127.0,-116.0,-85.0,105.0
126.0,127.0,126.0,124.0,126.0,132.0,130.0,128.0,-1.0,104.0,-79.0,127.0,127.0,127.0,-116.0,-85.0,105.0
126.0,127.0,126.0,124.0,126.0,132.0,130.0,128.0,-1.0,104.0,-79.0,127.0,127.0,127.0,-116.0,-85.0,105.0
126.0,127.0,126.0,124.0,126.0,132.0,130.0,128.0,-1.0,104.0,-79.0,127.0,127.0,127.0,-116.0,-85.0,105.0
126.0,127.0,126.0,124.0,126.0,132.0,130.0,128.0,-1.0,104.0,-79.0,127.0,127.0,127.0,-116.0,-85.0,105.0
127.0,128.0,126.0,124.0,126.0,133.0,129.0,129.0,-1.0,104.0,-79.0,127.0,127.0,127.0,-116.0,-85.0,105.0
127.0,128.0,126.0,124.0,126.0,133.0,129.0,129.0,-1.0,104.0,-79.0,127.0,127.0,127.0,-116.0,-85.0,105.0
127.0,128.0,126.0,124.0,126.0,133.0,129.0,129.0,-1.0,104.0,-79.0,127.0,127.0,127.0,-116.0,-85.0,105.0
126.0,128.0,126.0,124.0,126.0,133.0,129.0,128.0,-1.0,104.0,-79.0,127.0,127.0,127.0,-116.0,-85.0,105.0
126.0,128.0,126.0,124.0,126.0,133.0,129.0,129.0,-1.0,104.0,-79.0,127.0,127.0,127.0,-116.0,-85.0,105.0
126.0,128.0,126.0,124.0,126.0,133.0,129.0,128.0,-1.0,104.0,-79.0,127.0,127.0,127.0,-116.0,-85.0,105.0
126.0,127.0,126.0,124.0,126.0,133.0,130.0,128.0,-1.0,104.0,-79.0,127.0,127.0,127.0,-116.0,-85.0,105.0
126.0,127.0,126.0,124.0,126.0,133.0,130.0,128.0,-1.0,104.0,-79.0,127.0,127.0,127.0,-116.0,-85.0,105.0
126.0,127.0,126.0,124.0,126.0,133.0,130.0,128.0,-1.0,104.0,-79.0,127.0,127.0,127.0,-116.0,-85.0,105.0
126.0,127.0,126.0,124.0,126.0,133.0,130.0,128.0,-1.0,104.0,-79.0,127.0,127.0,127.0,-116.0,-85.0,105.0
126.0,128.0,127.0,124.0,125.0,132.0,128.0,129.0,-1.0,104.0,-79.0,127.0,127.0,127.0,-115.0,-85.0,105.0
126.0,128.0,127.0,124.0,125.0,132.0,128.0,129.0,-1.0,104.0,-79.0,127.0,127.0,127.0,-115.0,-85.0,105.0
126.0,127.0,127.0,124.0,126.0,132.0,129.0,129.0,-1.0,104.0,-79.0,127.0,127.0,127.0,-115.0,-85.0,105.0
126.0,127.0,127.0,124.0,126.0,132.0,129.0,129.0,-1.0,104.0,-79.0,127.0,127.0,127.0,-115.0,-85.0,105.0
126.0,127.0,127.0,124.0,126.0,132.0,129.0,129.0,-1.0,104.0,-79.0,127.0,127.0,127.0,-115.0,-85.0,105.0
126.0,127.0,127.0,124.0,126.0,131.0,129.0,129.0,-1.0,104.0,-79.0,127.0,127.0,127.0,-115.0,-85.0,105.0
126.0,127.0,127.0,124.0,126.0,131.0,129.0,128.0,-1.0,104.0,-79.0,127.0,127.0,127.0,-115.0,-85.0,105.0
126.0,127.0,127.0,124.0,126.0,131.0,129.0,128.0,-1.0,104.0,-79.0,127.0,127.0,127.0,-115.0,-85.0,105.0
126.0,127.0,127.0,124.0,126.0,131.0,129.0,128.0,-1.0,104.0,-79.0,127.0,127.0,127.0,-115.0,-85.0,105.0
126.0,128.0,126.0,124.0,125.0,132.0,128.0,129.0,-1.0,104.0,-79.0,127.0,127.0,127.0,-115.0,-85.0,105.0
126.0,128.0,126.0,124.0,126.0,132.0,129.0,146.0,-1.0,104.0,-80.0,127.0,127.0,127.0,-115.0,-85.0,105.0
126.0,127.0,126.0,124.0,126.0,132.0,129.0,146.0,-1.0,104.0,-80.0,127.0,127.0,127.0,-115.0,-85.0,105.0
127.0,128.0,126.0,124.0,126.0,132.0,129.0,146.0,-1.0,104.0,-80.0,127.0,127.0,127.0,-115.0,-85.0,105.0
126.0,128.0,126.0,124.0,126.0,132.0,129.0,146.0,-1.0,104.0,-80.0,127.0,127.0,127.0,-115.0,-85.0,105.0
126.0,127.0,126.0,124.0,126.0,132.0,129.0,146.0,-1.0,104.0,-80.0,127.0,127.0,127.0,-115.0,-85.0,105.0
127.0,127.0,126.0,124.0,126.0,132.0,129.0,146.0,-1.0,104.0,-80.0,127.0,127.0,127.0,-115.0,-85.0,105.0
126.0,128.0,127.0,124.0,126.0,132.0,129.0,146.0,-1.0,104.0,-80.0,127.0,127.0,127.0,-115.0,-85.0,105.0
126.0,127.0,127.0,124.0,126.0,132.0,130.0,145.0,-1.0,104.0,-80.0,127.0,127.0,127.0,-115.0,-85.0,105.0
127.0,128.0,126.0,124.0,126.0,132.0,128.0,146.0,-1.0,104.0,-80.0,127.0,127.0,127.0,-115.0,-85.0,105.0
126.0,128.0,126.0,124.0,126.0,132.0,128.0,146.0,-1.0,104.0,-80.0,127.0,127.0,127.0,-115.0,-85.0,105.0
127.0,127.0,126.0,124.0,126.0,132.0,129.0,135.0,-1.0,104.0,-80.0,127.0,127.0,127.0,-115.0,-85.0,105.0
127.0,127.0,126.0,124.0,126.0,132.0,128.0,135.0,-1.0,104.0,-80.0,127.0,127.0,127.0,-115.0,-85.0,105.0
126.0,127.0,126.0,124.0,126.0,131.0,129.0,135.0,-1.0,104.0,-80.0,127.0,127.0,127.0,-115.0,-85.0,105.0
126.0,127.0,126.0,124.0,126.0,131.0,129.0,134.0,-1.0,104.0,-80.0,127.0,127.0,127.0,-115.0,-85.0,105.0
127.0,127.0,127.0,124.0,126.0,131.0,129.0,134.0,-1.0,104.0,-80.0,127.0,127.0,127.0,-115.0,-85.0,105.0
126.0,127.0,127.0,124.0,126.0,131.0,129.0,134.0,-1.0,104.0,-80.0,127.0,127.0,127.0,-115.0,-85.0,105.0
127.0,127.0,126.0,124.0,126.0,132.0,128.0,134.0,-1.0,104.0,-80.0,127.0,127.0,127.0,-115.0,-85.0,105.0
126.0,127.0,127.0,124.0,126.0,131.0,129.0,135.0,-1.0,104.0,-80.0,127.0,127.0,127.0,-115.0,-85.0,105.0
126.0,127.0,127.0,124.0,126.0,131.0,129.0,135.0,-1.0,104.0,-80.0,127.0,127.0,127.0,-115.0,-85.0,105.0
126.0,127.0,126.0,124.0,126.0,131.0,129.0,135.0,-1.0,104.0,-80.0,127.0,127.0,127.0,-115.0,-85.0,105.0
126.0,127.0,127.0,124.0,126.0,131.0,129.0,130.0,-1.0,104.0,-80.0,127.0,127.0,127.0,-115.0,-85.0,105.0
126.0,127.0,127.0,124.0,126.0,131.0,129.0,130.0,-1.0,104.0,-80.0,127.0,127.0,127.0,-115.0,-85.0,105.0
126.0,127.0,127.0,124.0,126.0,131.0,129.0,130.0,-1.0,104.0,-80.0,127.0,127.0,127.0,-115.0,-85.0,105.0
126.0,127.0,127.0,124.0,127.0,131.0,129.0,130.0,-1.0,104.0,-80.0,127.0,127.0,127.0,-115.0,-85.0,105.0
126.0,127.0,127.0,124.0,126.0,131.0,129.0,130.0,-1.0,104.0,-80.0,127.0,127.0,127.0,-115.0,-85.0,105.0
126.0,127.0,127.0,124.0,127.0,131.0,129.0,130.0,-1.0,104.0,-80.0,127.0,127.0,127.0,-115.0,-85.0,105.0
126.0,127.0,127.0,124.0,126.0,132.0,128.0,131.0,-1.0,104.0,-80.0,127.0,127.0,127.0,-115.0,-85.0,105.0
127.0,127.0,127.0,124.0,126.0,132.0,128.0,131.0,-1.0,104.0,-80.0,127.0,127.0,127.0,-115.0,-85.0,105.0
127.0,127.0,127.0,124.0,126.0,132.0,128.0,131.0,-1.0,104.0,-80.0,127.0,127.0,127.0,-115.0,-85.0,105.0
126.0,127.0,127.0,124.0,126.0,131.0,129.0,130.0,-1.0,104.0,-80.0,127.0,127.0,127.0,-115.0,-85.0,105.0
126.0,127.0,127.0,124.0,126.0,131.0,128.0,129.0,-1.0,104.0,-80.0,127.0,127.0,127.0,-115.0,-85.0,105.0
126.0,127.0,127.0,124.0,126.0,130.0,128.0,129.0,-1.0,104.0,-80.0,127.0,127.0,127.0,-115.0,-85.0,105.0
126.0,127.0,127.0,124.0,126.0,130.0,129.0,129.0,-1.0,104.0,-80.0,127.0,127.0,127.0,-115.0,-85.0,105.0
126.0,127.0,127.0,124.0,126.0,130.0,129.0,129.0,-1.0,104.0,-80.0,127.0,127.0,127.0,-115.0,-85.0,105.0
126.0,127.0,127.0,124.0,126.0,130.0,129.0,129.0,-1.0,104.0,-80.0,127.0,127.0,127.0,-115.0,-85.0,105.0
127.0,127.0,127.0,124.0,126.0,131.0,128.0,130.0,-1.0,104.0,-80.0,127.0,127.0,127.0,-115.0,-85.0,105.0
127.0,127.0,127.0,124.0,126.0,131.0,128.0,130.0,-1.0,104.0,-80.0,127.0,127.0,127.0,-115.0,-85.0,105.0
126.0,127.0,127.0,124.0,126.0,131.0,128.0,130.0,-1.0,104.0,-80.0,127.0,127.0,127.0,-115.0,-85.0,105.0
127.0,127.0,127.0,124.0,126.0,131.0,128.0,130.0,-1.0,104.0,-80.0,127.0,127.0,127.0,-115.0,-85.0,105.0
126.0,127.0,127.0,124.0,126.0,131.0,128.0,130.0,-1.0,104.0,-80.0,127.0,127.0,127.0,-115.0,-85.0,105.0
127.0,127.0,127.0,124.0,127.0,133.0,129.0,128.0,-1.0,104.0,-80.0,127.0,127.0,127.0,-115.0,-85.0,105.0
127.0,127.0,127.0,124.0,127.0,133.0,129.0,128.0,-1.0,104.0,-80.0,127.0,127.0,127.0,-115.0,-85.0,105.0
127.0,127.0,127.0,124.0,127.0,133.0,129.0,128.0,-1.0,104.0,-80.0,127.0,127.0,127.0,-115.0,-85.0,105.0
127.0,127.0,127.0,124.0,127.0,133.0,129.0,128.0,-1.0,104.0,-80.0,127.0,127.0,127.0,-115.0,-85.0,105.0
127.0,127.0,127.0,124.0,127.0,133.0,128.0,129.0,-1.0,104.0,-80.0,127.0,127.0,127.0,-115.0,-85.0,105.0
127.0,128.0,127.0,124.0,127.0,133.0,128.0,129.0,-1.0,104.0,-80.0,127.0,127.0,127.0,-115.0,-85.0,105.0
127.0,127.0,127.0,124.0,127.0,133.0,129.0,129.0,-1.0,104.0,-80.0,127.0,127.0,127.0,-115.0,-85.0,105.0
127.0,128.0,127.0,124.0,127.0,133.0,129.0,128.0,-1.0,104.0,-80.0,127.0,127.0,127.0,-115.0,-85.0,105.0
127.0,127.0,127.0,124.0,127.0,133.0,129.0,128.0,-1.0,104.0,-80.0,127.0,127.0,127.0,-115.0,-85.0,105.0
127.0,128.0,127.0,124.0,127.0,133.0,129.0,128.0,-1.0,104.0,-80.0,127.0,127.0,127.0,-115.0,-85.0,105.0
126.0,127.0,127.0,124.0,126.0,130.0,128.0,126.0,-1.0,104.0,-79.0,127.0,127.0,127.0,-115.0,-85.0,105.0
126.0,127.0,127.0,124.0,126.0,130.0,128.0,126.0,-1.0,104.0,-79.0,127.0,127.0,127.0,-115.0,-85.0,105.0
126.0,127.0,127.0,124.0,126.0,130.0,128.0,126.0,-1.0,104.0,-79.0,127.0,127.0,127.0,-115.0,-85.0,105.0
126.0,127.0,127.0,124.0,126.0,130.0,127.0,127.0,-1.0,104.0,-79.0,127.0,127.0,127.0,-115.0,-85.0,105.0
126.0,127.0,127.0,124.0,126.0,130.0,127.0,127.0,-1.0,104.0,-79.0,127.0,127.0,127.0,-115.0,-85.0,105.0
126.0,127.0,127.0,124.0,126.0,130.0,127.0,127.0,-1.0,104.0,-79.0,127.0,127.0,127.0,-115.0,-85.0,105.0
126.0,127.0,127.0,124.0,126.0,130.0,127.0,126.0,-1.0,104.0,-79.0,127.0,127.0,127.0,-115.0,-85.0,105.0
126.0,127.0,127.0,124.0,126.0,130.0,127.0,126.0,-1.0,104.0,-79.0,127.0,127.0,127.0,-115.0,-85.0,105.0
126.0,127.0,127.0,124.0,126.0,130.0,127.0,126.0,-1.0,104.0,-79.0,127.0,127.0,127.0,-115.0,-85.0,105.0
126.0,127.0,127.0,124.0,126.0,130.0,128.0,126.0,-1.0,104.0,-79.0,127.0,127.0,127.0,-115.0,-85.0,105.0
126.0,127.0,127.0,124.0,126.0,131.0,128.0,126.0,-1.0,104.0,-79.0,127.0,127.0,127.0,-115.0,-85.0,105.0
127.0,127.0,127.0,124.0,126.0,130.0,129.0,126.0,-1.0,104.0,-79.0,127.0,127.0,127.0,-115.0,-85.0,105.0
127.0,127.0,127.0,125.0,126.0,131.0,128.0,126.0,-1.0,104.0,-79.0,127.0,127.0,127.0,-115.0,-85.0,105.0
127.0,127.0,127.0,124.0,126.0,131.0,128.0,126.0,-1.0,104.0,-79.0,127.0,127.0,127.0,-115.0,-85.0,105.0
127.0,127.0,127.0,124.0,126.0,131.0,128.0,126.0,-1.0,104.0,-79.0,127.0,127.0,127.0,-115.0,-85.0,105.0
127.0,127.0,127.0,124.0,126.0,131.0,128.0,126.0,-1.0,104.0,-79.0,127.0,127.0,127.0,-115.0,-85.0,105.0
127.0,127.0,127.0,124.0,126.0,131.0,128.0,126.0,-1.0,104.0,-79.0,127.0,127.0,127.0,-115.0,-85.0,105.0
127.0,127.0,127.0,124.0,126.0,131.0,128.0,126.0,-1.0,104.0,-79.0,127.0,127.0,127.0,-115.0,-85.0,105.0
127.0,127.0,127.0,124.0,126.0,131.0,128.0,126.0,-1.0,104.0,-79.0,127.0,127.0,127.0,-115.0,-85.0,105.0
127.0,127.0,127.0,124.0,126.0,130.0,128.0,126.0,-1.0,104.0,-79.0,127.0,127.0,127.0,-115.0,-85.0,105.0
126.0,127.0,127.0,124.0,126.0,130.0,128.0,126.0,-1.0,104.0,-79.0,127.0,127.0,127.0,-115.0,-85.0,105.0
126.0,127.0,127.0,125.0,126.0,131.0,127.0,127.0,-1.0,104.0,-79.0,127.0,127.0,127.0,-115.0,-85.0,105.0
126.0,127.0,127.0,124.0,126.0,131.0,127.0,127.0,-1.0,104.0,-79.0,127.0,127.0,127.0,-115.0,-85.0,105.0
126.0,127.0,127.0,124.0,126.0,131.0,127.0,127.0,-1.0,104.0,-79.0,127.0,127.0,127.0,-115.0,-85.0,105.0
126.0,127.0,127.0,124.0,126.0,131.0,128.0,127.0,-1.0,104.0,-79.0,127.0,127.0,127.0,-115.0,-85.0,105.0
126.0,127.0,127.0,124.0,126.0,131.0,128.0,126.0,-1.0,104.0,-79.0,127.0,127.0,127.0,-115.0,-85.0,105.0
126.0,127.0,127.0,124.0,126.0,131.0,128.0,126.0,-1.0,104.0,-79.0,127.0,127.0,127.0,-115.0,-85.0,105.0
126.0,127.0,127.0,124.0,126.0,130.0,128.0,126.0,-1.0,104.0,-79.0,127.0,127.0,127.0,-115.0,-85.0,105.0
126.0,127.0,127.0,124.0,126.0,130.0,128.0,126.0,-1.0,104.0,-79.0,127.0,127.0,127.0,-115.0,-85.0,105.0
126.0,127.0,127.0,124.0,126.0,130.0,128.0,126.0,-1.0,104.0,-79.0,127.0,127.0,127.0,-115.0,-85.0,105.0
127.0,128.0,127.0,124.0,126.0,131.0,127.0,127.0,-1.0,104.0,-79.0,127.0,127.0,127.0,-115.0,-85.0,105.0
127.0,128.0,127.0,124.0,126.0,131.0,127.0,127.0,-1.0,104.0,-79.0,127.0,127.0,127.0,-115.0,-85.0,105.0
127.0,128.0,127.0,124.0,126.0,131.0,127.0,127.0,-1.0,104.0,-79.0,127.0,127.0,127.0,-115.0,-85.0,105.0
127.0,128.0,127.0,124.0,126.0,130.0,128.0,127.0,-1.0,104.0,-79.0,127.0,127.0,127.0,-115.0,-85.0,105.0
127.0,127.0,127.0,124.0,126.0,130.0,128.0,127.0,-1.0,104.0,-79.0,127.0,127.0,127.0,-115.0,-85.0,105.0
127.0,127.0,127.0,124.0,126.0,130.0,128.0,127.0,-1.0,104.0,-79.0,127.0,127.0,127.0,-115.0,-85.0,105.0
127.0,127.0,127.0,124.0,126.0,130.0,128.0,127.0,-1.0,104.0,-79.0,127.0,127.0,127.0,-115.0,-85.0,105.0
126.0,127.0,127.0,124.0,126.0,130.0,128.0,126.0,-1.0,104.0,-79.0,127.0,127.0,127.0,-115.0,-85.0,105.0
127.0,127.0,127.0,124.0,126.0,130.0,128.0,126.0,-1.0,104.0,-79.0,127.0,127.0,127.0,-115.0,-85.0,105.0
126.0,127.0,127.0,124.0,126.0,130.0,128.0,126.0,-1.0,104.0,-79.0,127.0,127.0,127.0,-115.0,-85.0,105.0
127.0,127.0,127.0,124.0,126.0,131.0,127.0,126.0,-1.0,104.0,-79.0,127.0,127.0,127.0,-115.0,-85.0,105.0
127.0,127.0,127.0,124.0,126.0,131.0,127.0,126.0,-1.0,104.0,-79.0,127.0,127.0,127.0,-115.0,-85.0,105.0
127.0,128.0,127.0,124.0,126.0,130.0,127.0,126.0,-1.0,104.0,-79.0,127.0,127.0,127.0,-115.0,-85.0,105.0
126.0,127.0,127.0,124.0,126.0,130.0,128.0,126.0,-1.0,104.0,-79.0,127.0,127.0,127.0,-115.0,-85.0,105.0
126.0,127.0,127.0,124.0,126.0,130.0,128.0,126.0,-1.0,104.0,-79.0,127.0,127.0,127.0,-115.0,-85.0,105.0
127.0,127.0,127.0,124.0,126.0,130.0,128.0,126.0,-1.0,104.0,-79.0,127.0,127.0,127.0,-115.0,-85.0,105.0
127.0,127.0,127.0,124.0,126.0,131.0,127.0,126.0,-1.0,104.0,-79.0,127.0,127.0,127.0,-115.0,-85.0,105.0
127.0,127.0,127.0,124.0,126.0,131.0,127.0,126.0,-1.0,104.0,-79.0,127.0,127.0,127.0,-115.0,-85.0,105.0
127.0,127.0,127.0,124.0,126.0,131.0,127.0,126.0,-1.0,104.0,-79.0,127.0,127.0,127.0,-115.0,-85.0,105.0
126.0,127.0,127.0,124.0,126.0,130.0,128.0,126.0,-1.0,104.0,-79.0,127.0,127.0,127.0,-115.0,-85.0,105.0
127.0,127.0,127.0,124.0,126.0,131.0,127.0,126.0,-1.0,104.0,-79.0,127.0,127.0,127.0,-115.0,-85.0,105.0
127.0,127.0,127.0,124.0,126.0,131.0,127.0,126.0,-1.0,104.0,-79.0,127.0,127.0,127.0,-115.0,-85.0,105.0
126.0,127.0,127.0,124.0,126.0,131.0,127.0,126.0,-1.0,104.0,-79.0,127.0,127.0,127.0,-115.0,-85.0,105.0
126.0,127.0,127.0,124.0,126.0,131.0,127.0,126.0,-1.0,104.0,-79.0,127.0,127.0,127.0,-115.0,-85.0,105.0
126.0,127.0,127.0,124.0,126.0,131.0,127.0,126.0,-1.0,104.0,-79.0,127.0,127.0,127.0,-115.0,-85.0,105.0
127.0,127.0,127.0,124.0,126.0,131.0,127.0,127.0,-1.0,104.0,-79.0,127.0,127.0,127.0,-115.0,-85.0,105.0
127.0,128.0,127.0,124.0,126.0,131.0,127.0,127.0,-1.0,104.0,-79.0,127.0,127.0,127.0,-115.0,-85.0,105.0
127.0,127.0,127.0,124.0,126.0,131.0,127.0,127.0,-1.0,104.0,-79.0,127.0,127.0,127.0,-115.0,-85.0,105.0
126.0,127.0,127.0,124.0,126.0,130.0,128.0,126.0,-1.0,104.0,-79.0,127.0,127.0,127.0,-115.0,-85.0,105.0
127.0,127.0,127.0,124.0,126.0,131.0,127.0,126.0,-1.0,104.0,-79.0,127.0,127.0,127.0,-115.0,-85.0,105.0
127.0,127.0,127.0,125.0,126.0,130.0,128.0,127.0,-1.0,104.0,-79.0,127.0,127.0,127.0,-115.0,-85.0,105.0
127.0,127.0,127.0,125.0,126.0,129.0,128.0,127.0,-1.0,104.0,-79.0,127.0,127.0,127.0,-115.0,-85.0,105.0
126.0,127.0,127.0,125.0,126.0,129.0,128.0,127.0,-1.0,104.0,-79.0,127.0,127.0,127.0,-115.0,-85.0,105.0
127.0,127.0,127.0,125.0,126.0,129.0,128.0,127.0,-1.0,104.0,-79.0,127.0,127.0,127.0,-115.0,-85.0,105.0
126.0,127.0,127.0,125.0,126.0,130.0,127.0,127.0,-1.0,104.0,-79.0,127.0,127.0,127.0,-115.0,-85.0,105.0
127.0,128.0,127.0,125.0,126.0,130.0,127.0,127.0,-1.0,104.0,-79.0,127.0,127.0,127.0,-115.0,-85.0,105.0
127.0,127.0,127.0,125.0,126.0,129.0,129.0,126.0,-1.0,104.0,-79.0,127.0,127.0,127.0,-115.0,-85.0,105.0
127.0,127.0,127.0,125.0,126.0,129.0,128.0,126.0,-1.0,104.0,-79.0,127.0,127.0,127.0,-115.0,-85.0,105.0
127.0,127.0,127.0,125.0,126.0,130.0,128.0,127.0,-1.0,104.0,-79.0,127.0,127.0,127.0,-115.0,-85.0,105.0
127.0,127.0,127.0,125.0,126.0,130.0,128.0,127.0,-1.0,104.0,-79.0,127.0,127.0,127.0,-115.0,-85.0,105.0
127.0,127.0,127.0,125.0,126.0,130.0,127.0,127.0,-1.0,104.0,-80.0,127.0,127.0,127.0,-115.0,-85.0,105.0
127.0,127.0,127.0,125.0,126.0,130.0,127.0,127.0,-1.0,104.0,-80.0,127.0,127.0,127.0,-115.0,-85.0,105.0
127.0,127.0,127.0,125.0,126.0,130.0,127.0,127.0,-1.0,104.0,-80.0,127.0,127.0,127.0,-115.0,-85.0,105.0
127.0,127.0,127.0,125.0,126.0,131.0,127.0,127.0,-1.0,104.0,-80.0,127.0,127.0,127.0,-115.0,-85.0,105.0
127.0,127.0,126.0,125.0,126.0,131.0,127.0,127.0,-1.0,104.0,-80.0,127.0,127.0,127.0,-115.0,-85.0,105.0
127.0,127.0,127.0,125.0,126.0,130.0,128.0,127.0,-1.0,104.0,-80.0,127.0,127.0,127.0,-115.0,-85.0,105.0
127.0,127.0,127.0,125.0,126.0,130.0,128.0,127.0,-1.0,104.0,-80.0,127.0,127.0,127.0,-115.0,-85.0,105.0
127.0,127.0,126.0,125.0,126.0,131.0,127.0,127.0,-1.0,104.0,-80.0,127.0,127.0,127.0,-115.0,-85.0,105.0
127.0,128.0,127.0,125.0,126.0,131.0,127.0,127.0,-1.0,104.0,-80.0,127.0,127.0,127.0,-115.0,-85.0,105.0
127.0,127.0,127.0,125.0,126.0,131.0,127.0,127.0,-1.0,104.0,-80.0,127.0,127.0,127.0,-115.0,-85.0,105.0
127.0,127.0,127.0,125.0,126.0,130.0,127.0,127.0,-1.0,104.0,-80.0,127.0,127.0,127.0,-115.0,-85.0,105.0
127.0,127.0,127.0,125.0,126.0,130.0,127.0,127.0,-1.0,104.0,-80.0,127.0,127.0,127.0,-115.0,-85.0,105.0
127.0,127.0,127.0,125.0,126.0,130.0,127.0,127.0,-1.0,104.0,-80.0,127.0,127.0,127.0,-115.0,-85.0,105.0
127.0,127.0,127.0,125.0,126.0,131.0,127.0,127.0,-1.0,104.0,-80.0,127.0,127.0,127.0,-115.0,-85.0,105.0
127.0,127.0,127.0,125.0,126.0,130.0,128.0,127.0,-1.0,104.0,-80.0,127.0,127.0,127.0,-115.0,-85.0,105.0
127.0,127.0,127.0,125.0,126.0,130.0,128.0,127.0,-1.0,104.0,-80.0,127.0,127.0,127.0,-115.0,-85.0,105.0
127.0,127.0,127.0,125.0,126.0,130.0,127.0,127.0,-1.0,104.0,-80.0,127.0,127.0,127.0,-115.0,-85.0,105.0
127.0,127.0,127.0,125.0,126.0,130.0,127.0,127.0,-1.0,104.0,-80.0,127.0,127.0,127.0,-115.0,-85.0,105.0
127.0,127.0,127.0,125.0,126.0,130.0,127.0,127.0,-1.0,104.0,-80.0,127.0,127.0,127.0,-115.0,-85.0,105.0
127.0,127.0,127.0,125.0,126.0,130.0,127.0,127.0,-1.0,104.0,-80.0,127.0,127.0,127.0,-115.0,-85.0,105.0
127.0,127.0,127.0,124.0,127.0,130.0,127.0,126.0,-1.0,105.0,-80.0,127.0,127.0,127.0,-115.0,-85.0,105.0
127.0,127.0,127.0,124.0,126.0,130.0,127.0,126.0,-1.0,105.0,-80.0,127.0,127.0,127.0,-115.0,-85.0,105.0
127.0,127.0,127.0,125.0,126.0,131.0,127.0,127.0,-1.0,105.0,-80.0,127.0,127.0,127.0,-115.0,-85.0,105.0
127.0,127.0,127.0,124.0,126.0,130.0,128.0,126.0,-1.0,105.0,-80.0,127.0,127.0,127.0,-115.0,-85.0,105.0
127.0,127.0,127.0,124.0,127.0,130.0,128.0,126.0,-1.0,105.0,-80.0,127.0,127.0,127.0,-115.0,-85.0,105.0
127.0,127.0,127.0,124.0,126.0,130.0,127.0,126.0,-1.0,105.0,-80.0,127.0,127.0,127.0,-115.0,-85.0,105.0
127.0,127.0,127.0,125.0,126.0,130.0,127.0,126.0,-1.0,105.0,-80.0,127.0,127.0,127.0,-115.0,-85.0,105.0
127.0,127.0,127.0,124.0,126.0,130.0,127.0,126.0,-1.0,105.0,-80.0,127.0,127.0,127.0,-115.0,-85.0,105.0
127.0,127.0,127.0,124.0,126.0,130.0,127.0,126.0,-1.0,105.0,-80.0,127.0,127.0,127.0,-115.0,-85.0,105.0
127.0,127.0,127.0,124.0,126.0,130.0,127.0,126.0,-1.0,105.0,-80.0,127.0,127.0,127.0,-115.0,-85.0,105.0
126.0,127.0,127.0,125.0,126.0,130.0,127.0,126.0,-1.0,105.0,-80.0,127.0,127.0,127.0,-115.0,-85.0,105.0
127.0,127.0,126.0,125.0,126.0,130.0,126.0,126.0,-1.0,105.0,-80.0,127.0,127.0,127.0,-115.0,-85.0,105.0
126.0,127.0,127.0,125.0,127.0,129.0,127.0,125.0,-1.0,105.0,-80.0,127.0,127.0,127.0,-115.0,-85.0,105.0
127.0,127.0,127.0,125.0,126.0,129.0,127.0,125.0,-1.0,105.0,-80.0,127.0,127.0,127.0,-115.0,-85.0,105.0
127.0,127.0,126.0,125.0,126.0,130.0,127.0,126.0,-1.0,105.0,-80.0,127.0,127.0,127.0,-115.0,-85.0,105.0
127.0,127.0,126.0,125.0,126.0,130.0,127.0,126.0,-1.0,105.0,-80.0,127.0,127.0,127.0,-115.0,-85.0,105.0
127.0,127.0,126.0,125.0,126.0,130.0,127.0,126.0,-1.0,105.0,-80.0,127.0,127.0,127.0,-115.0,-85.0,105.0
127.0,127.0,127.0,125.0,126.0,130.0,127.0,126.0,-1.0,105.0,-80.0,127.0,127.0,127.0,-115.0,-85.0,105.0
127.0,127.0,127.0,125.0,126.0,130.0,127.0,126.0,-1.0,105.0,-80.0,127.0,127.0,127.0,-115.0,-85.0,105.0
127.0,127.0,127.0,125.0,126.0,130.0,127.0,126.0,-1.0,105.0,-80.0,127.0,127.0,127.0,-115.0,-85.0,105.0
126.0,127.0,127.0,125.0,126.0,130.0,126.0,126.0,-1.0,105.0,-80.0,127.0,127.0,127.0,-115.0,-85.0,105.0
126.0,127.0,127.0,125.0,127.0,130.0,128.0,126.0,-1.0,105.0,-80.0,127.0,127.0,127.0,-115.0,-85.0,105.0
126.0,127.0,127.0,125.0,127.0,130.0,128.0,126.0,-1.0,105.0,-80.0,127.0,127.0,127.0,-115.0,-85.0,105.0
126.0,127.0,127.0,125.0,126.0,130.0,128.0,126.0,-1.0,105.0,-80.0,127.0,127.0,127.0,-115.0,-85.0,105.0
126.0,127.0,127.0,125.0,126.0,130.0,127.0,126.0,-1.0,105.0,-80.0,127.0,127.0,127.0,-115.0,-85.0,105.0
126.0,127.0,127.0,125.0,126.0,130.0,127.0,126.0,-1.0,105.0,-80.0,127.0,127.0,127.0,-115.0,-85.0,105.0
126.0,127.0,127.0,125.0,126.0,130.0,127.0,126.0,-1.0,105.0,-80.0,127.0,127.0,127.0,-115.0,-85.0,105.0
126.0,127.0,127.0,125.0,126.0,130.0,127.0,126.0,-1.0,105.0,-80.0,127.0,127.0,127.0,-115.0,-85.0,105.0
126.0,127.0,127.0,125.0,126.0,129.0,127.0,126.0,-1.0,105.0,-80.0,127.0,127.0,127.0,-115.0,-85.0,105.0
126.0,127.0,127.0,125.0,126.0,129.0,127.0,126.0,-1.0,105.0,-80.0,127.0,127.0,127.0,-115.0,-85.0,105.0
127.0,127.0,127.0,125.0,126.0,129.0,127.0,126.0,-1.0,105.0,-80.0,127.0,127.0,127.0,-115.0,-85.0,105.0
127.0,127.0,127.0,125.0,127.0,129.0,127.0,126.0,-1.0,105.0,-80.0,127.0,127.0,127.0,-115.0,-85.0,105.0
127.0,127.0,127.0,125.0,127.0,129.0,127.0,126.0,-1.0,105.0,-80.0,127.0,127.0,127.0,-115.0,-85.0,105.0
127.0,127.0,127.0,125.0,127.0,129.0,127.0,126.0,-1.0,105.0,-80.0,127.0,127.0,127.0,-115.0,-85.0,105.0
127.0,127.0,127.0,125.0,127.0,129.0,127.0,126.0,-1.0,105.0,-80.0,127.0,127.0,127.0,-115.0,-85.0,105.0
126.0,127.0,127.0,125.0,126.0,129.0,127.0,126.0,-1.0,105.0,-80.0,127.0,127.0,127.0,-115.0,-85.0,105.0
127.0,127.0,127.0,125.0,126.0,129.0,127.0,126.0,-1.0,105.0,-80.0,127.0,127.0,127.0,-115.0,-85.0,105.0
126.0,127.0,127.0,125.0,126.0,129.0,127.0,126.0,-1.0,105.0,-80.0,127.0,127.0,127.0,-115.0,-85.0,105.0
126.0,127.0,127.0,125.0,127.0,129.0,127.0,126.0,-1.0,105.0,-80.0,127.0,127.0,127.0,-115.0,-85.0,105.0
126.0,127.0,127.0,125.0,127.0,129.0,127.0,126.0,-1.0,105.0,-80.0,127.0,127.0,127.0,-115.0,-85.0,105.0
127.0,127.0,127.0,125.0,126.0,130.0,126.0,127.0,-1.0,105.0,-80.0,127.0,127.0,127.0,-115.0,-85.0,105.0
126.0,127.0,127.0,125.0,126.0,130.0,127.0,126.0,-1.0,105.0,-80.0,127.0,127.0,127.0,-115.0,-85.0,105.0
126.0,127.0,127.0,125.0,126.0,130.0,127.0,126.0,-1.0,105.0,-80.0,127.0,127.0,127.0,-115.0,-85.0,105.0
126.0,127.0,127.0,125.0,126.0,130.0,127.0,126.0,-1.0,105.0,-80.0,127.0,127.0,127.0,-115.0,-85.0,105.0
126.0,127.0,127.0,124.0,126.0,130.0,127.0,126.0,-1.0,105.0,-80.0,127.0,127.0,127.0,-115.0,-85.0,105.0
127.0,127.0,127.0,125.0,126.0,130.0,127.0,127.0,-1.0,105.0,-80.0,127.0,127.0,127.0,-115.0,-85.0,105.0
127.0,127.0,127.0,125.0,126.0,130.0,127.0,127.0,-1.0,105.0,-80.0,127.0,127.0,127.0,-115.0,-85.0,105.0
127.0,127.0,127.0,125.0,126.0,130.0,127.0,127.0,-1.0,105.0,-80.0,127.0,127.0,127.0,-115.0,-85.0,105.0
127.0,127.0,127.0,125.0,126.0,131.0,126.0,127.0,-1.0,105.0,-80.0,127.0,127.0,127.0,-115.0,-85.0,105.0
127.0,127.0,127.0,125.0,126.0,130.0,126.0,127.0,-1.0,105.0,-80.0,127.0,127.0,127.0,-115.0,-85.0,105.0
127.0,127.0,127.0,125.0,127.0,130.0,127.0,126.0,-1.0,105.0,-80.0,127.0,127.0,127.0,-115.0,-85.0,105.0
127.0,127.0,127.0,125.0,127.0,129.0,127.0,126.0,-1.0,105.0,-80.0,127.0,127.0,127.0,-115.0,-85.0,105.0
127.0,127.0,127.0,125.0,127.0,129.0,127.0,126.0,-1.0,105.0,-80.0,127.0,127.0,127.0,-115.0,-85.0,105.0
127.0,127.0,127.0,125.0,127.0,129.0,127.0,126.0,-1.0,105.0,-80.0,127.0,127.0,127.0,-115.0,-85.0,105.0
127.0,127.0,127.0,125.0,127.0,129.0,127.0,126.0,-1.0,105.0,-80.0,127.0,127.0,127.0,-115.0,-85.0,105.0
127.0,127.0,127.0,125.0,127.0,129.0,127.0,126.0,-1.0,105.0,-80.0,127.0,127.0,127.0,-115.0,-85.0,105.0
127.0,127.0,127.0,125.0,127.0,129.0,127.0,126.0,-1.0,105.0,-80.0,127.0,127.0,127.0,-115.0,-85.0,105.0
127.0,127.0,127.0,125.0,127.0,129.0,128.0,126.0,-1.0,105.0,-80.0,127.0,127.0,127.0,-115.0,-85.0,105.0
127.0,127.0,127.0,125.0,127.0,130.0,127.0,126.0,-1.0,105.0,-80.0,127.0,127.0,127.0,-115.0,-85.0,105.0
127.0,127.0,127.0,125.0,126.0,130.0,127.0,126.0,-1.0,105.0,-80.0,127.0,127.0,127.0,-115.0,-85.0,105.0
126.0,127.0,127.0,125.0,126.0,130.0,126.0,126.0,-1.0,105.0,-80.0,127.0,127.0,127.0,-115.0,-85.0,105.0
126.0,127.0,127.0,125.0,126.0,130.0,126.0,126.0,-1.0,105.0,-80.0,127.0,127.0,127.0,-115.0,-85.0,105.0
126.0,127.0,127.0,125.0,126.0,130.0,127.0,126.0,-1.0,105.0,-80.0,127.0,127.0,127.0,-115.0,-85.0,105.0
126.0,127.0,127.0,125.0,126.0,129.0,127.0,126.0,-1.0,105.0,-80.0,127.0,127.0,127.0,-115.0,-85.0,105.0
126.0,127.0,127.0,125.0,126.0,129.0,127.0,126.0,-1.0,105.0,-80.0,127.0,127.0,127.0,-115.0,-85.0,105.0
126.0,127.0,127.0,125.0,126.0,129.0,127.0,126.0,-1.0,105.0,-80.0,127.0,127.0,127.0,-115.0,-85.0,105.0
126.0,127.0,127.0,125.0,126.0,129.0,127.0,126.0,-1.0,105.0,-80.0,127.0,127.0,127.0,-115.0,-85.0,105.0
127.0,127.0,127.0,125.0,126.0,130.0,126.0,126.0,-1.0,105.0,-80.0,127.0,127.0,127.0,-115.0,-85.0,105.0
127.0,127.0,127.0,125.0,126.0,130.0,126.0,126.0,-1.0,105.0,-80.0,127.0,127.0,127.0,-115.0,-85.0,105.0
127.0,127.0,127.0,125.0,126.0,130.0,126.0,126.0,-1.0,105.0,-80.0,127.0,127.0,127.0,-115.0,-85.0,105.0
127.0,127.0,127.0,125.0,126.0,130.0,126.0,126.0,-1.0,105.0,-81.0,127.0,127.0,127.0,-115.0,-85.0,105.0
127.0,127.0,127.0,125.0,126.0,130.0,126.0,126.0,-1.0,105.0,-81.0,127.0,127.0,127.0,-115.0,-85.0,105.0
126.0,127.0,127.0,125.0,126.0,129.0,126.0,126.0,-1.0,105.0,-81.0,127.0,127.0,127.0,-115.0,-85.0,105.0
126.0,127.0,127.0,125.0,126.0,129.0,127.0,126.0,-1.0,105.0,-81.0,127.0,127.0,127.0,-115.0,-85.0,105.0
126.0,127.0,127.0,125.0,126.0,129.0,127.0,126.0,-1.0,105.0,-81.0,127.0,127.0,127.0,-115.0,-85.0,105.0
126.0,127.0,127.0,125.0,126.0,129.0,127.0,125.0,-1.0,105.0,-81.0,127.0,127.0,127.0,-115.0,-85.0,105.0
127.0,127.0,127.0,125.0,126.0,130.0,126.0,126.0,-1.0,105.0,-81.0,127.0,127.0,127.0,-115.0,-85.0,105.0
127.0,127.0,127.0,125.0,126.0,130.0,126.0,126.0,-1.0,105.0,-81.0,127.0,127.0,127.0,-115.0,-85.0,105.0
127.0,127.0,127.0,125.0,126.0,130.0,126.0,126.0,-1.0,105.0,-81.0,127.0,127.0,127.0,-115.0,-85.0,105.0
127.0,127.0,127.0,125.0,126.0,130.0,126.0,126.0,-1.0,105.0,-81.0,127.0,127.0,127.0,-115.0,-85.0,105.0
126.0,127.0,127.0,125.0,126.0,129.0,126.0,125.0,-1.0,106.0,-81.0,127.0,127.0,127.0,-115.0,-85.0,105.0
126.0,127.0,127.0,125.0,126.0,129.0,126.0,125.0,-1.0,106.0,-81.0,127.0,127.0,127.0,-115.0,-85.0,105.0
126.0,127.0,127.0,125.0,126.0,129.0,126.0,125.0,-1.0,106.0,-81.0,127.0,127.0,127.0,-115.0,-85.0,105.0
126.0,127.0,127.0,125.0,126.0,129.0,126.0,125.0,-1.0,106.0,-81.0,127.0,127.0,127.0,-115.0,-85.0,105.0
126.0,127.0,127.0,125.0,126.0,129.0,127.0,125.0,-1.0,106.0,-81.0,127.0,127.0,127.0,-115.0,-85.0,105.0
126.0,127.0,127.0,125.0,126.0,130.0,126.0,126.0,-1.0,106.0,-81.0,127.0,127.0,127.0,-115.0,-85.0,105.0
126.0,127.0,127.0,125.0,126.0,130.0,126.0,126.0,-1.0,106.0,-81.0,127.0,127.0,127.0,-115.0,-85.0,105.0
126.0,127.0,127.0,125.0,126.0,130.0,126.0,126.0,-1.0,106.0,-81.0,127.0,127.0,127.0,-115.0,-85.0,105.0
126.0,127.0,127.0,125.0,126.0,129.0,126.0,126.0,-1.0,106.0,-81.0,127.0,127.0,127.0,-115.0,-85.0,105.0
126.0,127.0,127.0,125.0,126.0,129.0,126.0,125.0,-1.0,106.0,-81.0,127.0,127.0,127.0,-115.0,-85.0,105.0
127.0,127.0,126.0,125.0,126.0,129.0,127.0,126.0,-1.0,106.0,-81.0,127.0,127.0,127.0,-115.0,-85.0,105.0
127.0,127.0,127.0,125.0,126.0,129.0,127.0,125.0,-1.0,106.0,-81.0,127.0,127.0,127.0,-115.0,-85.0,105.0
127.0,127.0,126.0,125.0,126.0,129.0,127.0,126.0,-1.0,106.0,-81.0,127.0,127.0,127.0,-115.0,-85.0,105.0
127.0,127.0,127.0,125.0,126.0,129.0,127.0,126.0,-1.0,106.0,-81.0,127.0,127.0,127.0,-115.0,-85.0,105.0
127.0,127.0,126.0,125.0,126.0,130.0,126.0,126.0,-1.0,106.0,-81.0,127.0,127.0,127.0,-115.0,-85.0,105.0
127.0,127.0,126.0,125.0,126.0,129.0,126.0,126.0,-1.0,106.0,-81.0,127.0,127.0,127.0,-115.0,-85.0,105.0
127.0,127.0,126.0,125.0,126.0,129.0,126.0,126.0,-1.0,106.0,-81.0,127.0,127.0,127.0,-115.0,-85.0,105.0
127.0,127.0,126.0,125.0,126.0,129.0,126.0,126.0,-1.0,106.0,-81.0,127.0,127.0,127.0,-115.0,-85.0,105.0
127.0,127.0,127.0,125.0,126.0,129.0,126.0,126.0,-1.0,106.0,-81.0,127.0,127.0,127.0,-115.0,-85.0,105.0
127.0,127.0,126.0,125.0,126.0,129.0,126.0,126.0,-1.0,106.0,-81.0,127.0,127.0,127.0,-115.0,-85.0,105.0
127.0,127.0,127.0,125.0,126.0,129.0,127.0,126.0,-1.0,105.0,-81.0,127.0,127.0,127.0,-115.0,-85.0,105.0
127.0,127.0,127.0,125.0,126.0,129.0,127.0,126.0,-1.0,105.0,-81.0,127.0,127.0,127.0,-115.0,-85.0,105.0
127.0,127.0,127.0,125.0,126.0,129.0,127.0,126.0,-1.0,105.0,-81.0,127.0,127.0,127.0,-115.0,-85.0,105.0
127.0,127.0,127.0,125.0,126.0,130.0,126.0,127.0,-1.0,105.0,-81.0,127.0,127.0,127.0,-115.0,-85.0,105.0
127.0,127.0,127.0,125.0,126.0,130.0,126.0,127.0,-1.0,105.0,-81.0,127.0,127.0,127.0,-115.0,-85.0,105.0
127.0,127.0,127.0,125.0,126.0,130.0,126.0,127.0,-1.0,105.0,-81.0,127.0,127.0,127.0,-115.0,-85.0,105.0
127.0,127.0,127.0,125.0,126.0,130.0,126.0,127.0,-1.0,105.0,-81.0,127.0,127.0,127.0,-115.0,-85.0,105.0
127.0,127.0,127.0,125.0,126.0,129.0,127.0,127.0,-1.0,105.0,-81.0,127.0,127.0,127.0,-115.0,-85.0,105.0
127.0,127.0,127.0,125.0,126.0,129.0,127.0,127.0,-1.0,105.0,-81.0,127.0,127.0,127.0,-115.0,-85.0,105.0
127.0,127.0,127.0,125.0,126.0,129.0,127.0,127.0,-1.0,105.0,-81.0,127.0,127.0,127.0,-115.0,-85.0,105.0
127.0,127.0,126.0,125.0,126.0,130.0,126.0,128.0,-1.0,105.0,-81.0,127.0,127.0,127.0,-115.0,-85.0,105.0
127.0,127.0,126.0,125.0,126.0,130.0,126.0,128.0,-1.0,105.0,-81.0,127.0,127.0,127.0,-115.0,-85.0,105.0
126.0,127.0,127.0,125.0,126.0,129.0,127.0,127.0,-1.0,105.0,-81.0,127.0,127.0,127.0,-115.0,-85.0,105.0
127.0,127.0,126.0,125.0,126.0,130.0,126.0,127.0,-1.0,105.0,-81.0,127.0,127.0,127.0,-115.0,-85.0,105.0
127.0,127.0,127.0,125.0,126.0,130.0,126.0,127.0,-1.0,105.0,-81.0,127.0,127.0,127.0,-115.0,-85.0,105.0
126.0,127.0,127.0,125.0,126.0,129.0,126.0,127.0,-1.0,105.0,-81.0,127.0,127.0,127.0,-115.0,-85.0,105.0
126.0,127.0,127.0,125.0,126.0,129.0,127.0,127.0,-1.0,105.0,-81.0,127.0,127.0,127.0,-115.0,-85.0,105.0
127.0,127.0,127.0,125.0,126.0,129.0,127.0,127.0,-1.0,105.0,-81.0,127.0,127.0,127.0,-115.0,-85.0,105.0
127.0,127.0,127.0,125.0,126.0,129.0,127.0,127.0,-1.0,105.0,-81.0,127.0,127.0,127.0,-115.0,-85.0,105.0
127.0,127.0,126.0,125.0,126.0,130.0,126.0,128.0,-1.0,105.0,-81.0,127.0,127.0,127.0,-115.0,-85.0,105.0
127.0,127.0,126.0,125.0,126.0,130.0,126.0,128.0,-1.0,105.0,-82.0,127.0,127.0,127.0,-115.0,-85.0,105.0
126.0,127.0,126.0,125.0,126.0,129.0,126.0,127.0,-1.0,105.0,-82.0,127.0,127.0,127.0,-115.0,-85.0,105.0
127.0,127.0,126.0,125.0,126.0,130.0,126.0,128.0,-1.0,105.0,-82.0,127.0,127.0,127.0,-115.0,-85.0,105.0
127.0,127.0,126.0,125.0,126.0,130.0,126.0,128.0,-1.0,105.0,-82.0,127.0,127.0,127.0,-115.0,-85.0,105.0
127.0,127.0,126.0,125.0,126.0,130.0,126.0,128.0,-1.0,105.0,-82.0,127.0,127.0,127.0,-115.0,-85.0,105.0
127.0,127.0,126.0,125.0,126.0,129.0,126.0,128.0,-1.0,105.0,-82.0,127.0,127.0,127.0,-115.0,-85.0,105.0
127.0,127.0,126.0,125.0,126.0,129.0,126.0,128.0,-1.0,105.0,-82.0,127.0,127.0,127.0,-115.0,-85.0,105.0
127.0,127.0,127.0,125.0,126.0,129.0,126.0,128.0,-1.0,105.0,-82.0,127.0,127.0,127.0,-115.0,-85.0,105.0
127.0,127.0,126.0,125.0,126.0,130.0,126.0,128.0,-1.0,105.0,-82.0,127.0,127.0,127.0,-115.0,-85.0,105.0
127.0,127.0,126.0,125.0,126.0,130.0,126.0,128.0,-1.0,105.0,-82.0,127.0,127.0,127.0,-115.0,-85.0,105.0
127.0,127.0,127.0,125.0,126.0,129.0,127.0,128.0,-1.0,105.0,-82.0,127.0,127.0,127.0,-115.0,-85.0,105.0
127.0,127.0,127.0,125.0,126.0,129.0,126.0,128.0,-1.0,105.0,-82.0,127.0,127.0,127.0,-115.0,-85.0,105.0
127.0,127.0,127.0,125.0,126.0,130.0,126.0,128.0,-1.0,105.0,-82.0,127.0,127.0,127.0,-115.0,-85.0,105.0
127.0,127.0,127.0,125.0,126.0,129.0,126.0,128.0,-1.0,105.0,-82.0,127.0,127.0,127.0,-115.0,-85.0,105.0
127.0,127.0,127.0,125.0,126.0,129.0,126.0,128.0,-1.0,105.0,-82.0,127.0,127.0,127.0,-115.0,-85.0,105.0
127.0,127.0,127.0,125.0,126.0,129.0,127.0,128.0,-1.0,105.0,-82.0,127.0,127.0,127.0,-115.0,-85.0,105.0
127.0,127.0,127.0,125.0,126.0,129.0,127.0,128.0,-1.0,105.0,-82.0,127.0,127.0,127.0,-115.0,-85.0,105.0
127.0,127.0,127.0,125.0,126.0,129.0,126.0,128.0,-1.0,105.0,-82.0,127.0,127.0,127.0,-115.0,-85.0,105.0
127.0,127.0,127.0,125.0,126.0,130.0,126.0,128.0,-1.0,105.0,-82.0,127.0,127.0,127.0,-115.0,-85.0,105.0
127.0,127.0,127.0,125.0,126.0,130.0,126.0,128.0,-1.0,105.0,-82.0,127.0,127.0,127.0,-115.0,-85.0,105.0
127.0,127.0,126.0,126.0,126.0,129.0,126.0,128.0,-1.0,105.0,-82.0,127.0,127.0,127.0,-115.0,-85.0,105.0
127.0,127.0,126.0,126.0,126.0,130.0,126.0,128.0,-1.0,105.0,-82.0,127.0,127.0,127.0,-115.0,-85.0,105.0
127.0,127.0,126.0,126.0,127.0,129.0,126.0,128.0,-1.0,105.0,-82.0,127.0,127.0,127.0,-115.0,-85.0,105.0
127.0,127.0,127.0,126.0,127.0,129.0,126.0,128.0,-1.0,105.0,-82.0,127.0,127.0,127.0,-115.0,-85.0,105.0
127.0,127.0,127.0,126.0,127.0,129.0,126.0,127.0,-1.0,105.0,-82.0,127.0,127.0,127.0,-115.0,-85.0,105.0
127.0,127.0,127.0,126.0,127.0,129.0,126.0,128.0,-1.0,105.0,-82.0,127.0,127.0,127.0,-115.0,-85.0,105.0
127.0,127.0,126.0,125.0,126.0,130.0,126.0,128.0,-1.0,105.0,-82.0,127.0,127.0,127.0,-115.0,-85.0,105.0
127.0,127.0,126.0,126.0,126.0,130.0,126.0,128.0,-1.0,105.0,-82.0,127.0,127.0,127.0,-115.0,-85.0,105.0
127.0,127.0,126.0,126.0,126.0,130.0,126.0,128.0,-1.0,105.0,-82.0,127.0,127.0,127.0,-115.0,-85.0,105.0
127.0,127.0,127.0,125.0,127.0,129.0,127.0,127.0,-1.0,105.0,-82.0,127.0,127.0,127.0,-115.0,-85.0,105.0
127.0,127.0,127.0,125.0,126.0,129.0,126.0,128.0,-1.0,105.0,-83.0,127.0,127.0,127.0,-115.0,-85.0,105.0
127.0,127.0,127.0,125.0,126.0,129.0,126.0,128.0,-1.0,105.0,-83.0,127.0,127.0,127.0,-115.0,-85.0,105.0
127.0,127.0,127.0,125.0,126.0,129.0,126.0,128.0,-1.0,105.0,-83.0,127.0,127.0,127.0,-115.0,-85.0,105.0
127.0,127.0,127.0,125.0,126.0,129.0,126.0,127.0,-1.0,105.0,-83.0,127.0,127.0,127.0,-115.0,-85.0,105.0
127.0,127.0,127.0,125.0,126.0,129.0,126.0,128.0,-1.0,105.0,-83.0,127.0,127.0,127.0,-115.0,-85.0,105.0
127.0,127.0,127.0,125.0,126.0,129.0,126.0,128.0,-1.0,105.0,-83.0,127.0,127.0,127.0,-115.0,-85.0,105.0
127.0,127.0,127.0,125.0,126.0,130.0,126.0,128.0,-1.0,105.0,-83.0,127.0,127.0,127.0,-115.0,-85.0,105.0
127.0,127.0,127.0,125.0,127.0,129.0,126.0,127.0,-1.0,105.0,-83.0,127.0,127.0,127.0,-115.0,-85.0,105.0
127.0,127.0,127.0,125.0,126.0,129.0,127.0,127.0,-1.0,105.0,-83.0,127.0,127.0,127.0,-115.0,-85.0,105.0
127.0,127.0,127.0,125.0,126.0,129.0,126.0,127.0,-1.0,105.0,-83.0,127.0,127.0,127.0,-115.0,-85.0,105.0
127.0,127.0,127.0,125.0,126.0,129.0,126.0,128.0,-1.0,105.0,-83.0,127.0,127.0,127.0,-115.0,-85.0,105.0
127.0,127.0,127.0,125.0,126.0,129.0,126.0,128.0,-1.0,105.0,-83.0,127.0,127.0,127.0,-115.0,-85.0,105.0
127.0,127.0,127.0,125.0,126.0,129.0,126.0,128.0,-1.0,105.0,-83.0,127.0,127.0,127.0,-115.0,-85.0,105.0
126.0,127.0,127.0,125.0,126.0,129.0,126.0,128.0,-1.0,105.0,-83.0,127.0,127.0,127.0,-115.0,-85.0,105.0
126.0,127.0,126.0,125.0,126.0,129.0,126.0,128.0,-1.0,105.0,-83.0,127.0,127.0,127.0,-115.0,-85.0,105.0
127.0,127.0,126.0,125.0,126.0,129.0,126.0,128.0,-1.0,105.0,-83.0,127.0,127.0,127.0,-115.0,-85.0,105.0
126.0,127.0,127.0,125.0,126.0,128.0,127.0,127.0,-1.0,105.0,-83.0,127.0,127.0,127.0,-115.0,-85.0,105.0
126.0,127.0,127.0,125.0,126.0,129.0,127.0,127.0,-1.0,105.0,-83.0,127.0,127.0,127.0,-115.0,-85.0,105.0
127.0,127.0,126.0,125.0,126.0,129.0,126.0,128.0,-1.0,105.0,-83.0,127.0,127.0,127.0,-115.0,-85.0,105.0
127.0,127.0,126.0,125.0,126.0,129.0,126.0,128.0,-1.0,105.0,-83.0,127.0,127.0,127.0,-115.0,-85.0,105.0
127.0,127.0,127.0,126.0,126.0,129.0,127.0,128.0,-1.0,105.0,-83.0,127.0,127.0,127.0,-115.0,-85.0,105.0
127.0,127.0,127.0,126.0,126.0,129.0,127.0,128.0,-1.0,105.0,-83.0,127.0,127.0,127.0,-115.0,-85.0,105.0
127.0,127.0,127.0,126.0,126.0,129.0,127.0,128.0,-1.0,105.0,-83.0,127.0,127.0,127.0,-115.0,-85.0,105.0
127.0,127.0,127.0,126.0,126.0,129.0,127.0,128.0,-1.0,105.0,-83.0,127.0,127.0,127.0,-115.0,-85.0,105.0
127.0,127.0,127.0,126.0,126.0,129.0,126.0,128.0,-1.0,105.0,-83.0,127.0,127.0,127.0,-115.0,-85.0,105.0
127.0,127.0,127.0,126.0,126.0,128.0,127.0,127.0,-1.0,105.0,-83.0,127.0,127.0,127.0,-115.0,-85.0,105.0
127.0,127.0,127.0,126.0,126.0,128.0,127.0,127.0,-1.0,105.0,-83.0,127.0,127.0,127.0,-115.0,-85.0,105.0
127.0,127.0,127.0,126.0,126.0,129.0,127.0,128.0,-1.0,105.0,-83.0,127.0,127.0,127.0,-115.0,-85.0,105.0
127.0,127.0,127.0,126.0,126.0,129.0,126.0,128.0,-1.0,105.0,-83.0,127.0,127.0,127.0,-115.0,-85.0,105.0
127.0,127.0,127.0,126.0,126.0,129.0,126.0,128.0,-1.0,105.0,-83.0,127.0,127.0,127.0,-115.0,-85.0,105.0
127.0,127.0,127.0,126.0,126.0,129.0,126.0,128.0,-1.0,105.0,-83.0,127.0,127.0,127.0,-115.0,-85.0,105.0
127.0,127.0,127.0,126.0,126.0,129.0,126.0,128.0,-1.0,105.0,-83.0,127.0,127.0,127.0,-115.0,-85.0,105.0
127.0,127.0,127.0,126.0,126.0,129.0,126.0,128.0,-1.0,105.0,-83.0,127.0,127.0,127.0,-115.0,-85.0,105.0
127.0,127.0,127.0,126.0,126.0,130.0,126.0,128.0,-1.0,105.0,-83.0,127.0,127.0,127.0,-115.0,-85.0,105.0
127.0,127.0,127.0,126.0,127.0,129.0,126.0,128.0,-1.0,105.0,-83.0,127.0,127.0,127.0,-115.0,-85.0,105.0
127.0,127.0,127.0,126.0,126.0,129.0,126.0,128.0,-1.0,105.0,-83.0,127.0,127.0,127.0,-115.0,-85.0,105.0
127.0,127.0,127.0,126.0,126.0,129.0,126.0,128.0,-1.0,105.0,-83.0,127.0,127.0,127.0,-115.0,-85.0,105.0
127.0,127.0,127.0,126.0,126.0,130.0,126.0,128.0,-1.0,105.0,-83.0,127.0,127.0,127.0,-115.0,-85.0,105.0
127.0,127.0,127.0,126.0,126.0,130.0,126.0,128.0,-1.0,105.0,-83.0,127.0,127.0,127.0,-115.0,-85.0,105.0
127.0,127.0,127.0,126.0,126.0,129.0,126.0,128.0,-1.0,105.0,-83.0,127.0,127.0,127.0,-115.0,-85.0,105.0
127.0,127.0,127.0,125.0,126.0,128.0,127.0,127.0,-1.0,104.0,-83.0,127.0,127.0,127.0,-115.0,-85.0,105.0
127.0,127.0,127.0,125.0,126.0,128.0,127.0,127.0,-1.0,104.0,-83.0,127.0,127.0,127.0,-115.0,-85.0,105.0
126.0,127.0,127.0,125.0,127.0,128.0,127.0,127.0,-1.0,104.0,-83.0,127.0,127.0,127.0,-115.0,-85.0,105.0
127.0,127.0,127.0,125.0,127.0,129.0,126.0,127.0,-1.0,104.0,-83.0,127.0,127.0,127.0,-115.0,-85.0,105.0
127.0,127.0,127.0,126.0,127.0,129.0,126.0,127.0,-1.0,104.0,-83.0,127.0,127.0,127.0,-115.0,-85.0,105.0
127.0,127.0,127.0,125.0,127.0,129.0,127.0,127.0,-1.0,104.0,-83.0,127.0,127.0,127.0,-115.0,-85.0,105.0
127.0,127.0,127.0,125.0,126.0,129.0,127.0,127.0,-1.0,104.0,-83.0,127.0,127.0,127.0,-115.0,-85.0,105.0
127.0,127.0,127.0,125.0,126.0,129.0,127.0,127.0,-1.0,104.0,-83.0,127.0,127.0,127.0,-115.0,-85.0,105.0
127.0,127.0,127.0,125.0,126.0,129.0,127.0,127.0,-1.0,104.0,-83.0,127.0,127.0,127.0,-115.0,-85.0,105.0
127.0,127.0,127.0,125.0,126.0,128.0,127.0,127.0,-1.0,104.0,-83.0,127.0,127.0,127.0,-115.0,-85.0,105.0
127.0,127.0,127.0,126.0,126.0,129.0,126.0,128.0,-1.0,104.0,-82.0,127.0,127.0,127.0,-114.0,-85.0,105.0
127.0,127.0,127.0,126.0,126.0,129.0,126.0,128.0,-1.0,104.0,-82.0,127.0,127.0,127.0,-114.0,-85.0,105.0
127.0,127.0,127.0,126.0,126.0,129.0,126.0,128.0,-1.0,104.0,-82.0,127.0,127.0,127.0,-114.0,-85.0,105.0
127.0,127.0,127.0,126.0,126.0,129.0,126.0,128.0,-1.0,104.0,-82.0,127.0,127.0,127.0,-114.0,-85.0,105.0
127.0,127.0,127.0,126.0,126.0,129.0,126.0,128.0,-1.0,104.0,-82.0,127.0,127.0,127.0,-114.0,-85.0,105.0
127.0,127.0,127.0,126.0,126.0,129.0,126.0,128.0,-1.0,104.0,-82.0,127.0,127.0,127.0,-114.0,-85.0,105.0
127.0,127.0,127.0,126.0,126.0,129.0,126.0,128.0,-1.0,104.0,-82.0,127.0,127.0,127.0,-114.0,-85.0,105.0
127.0,127.0,127.0,126.0,126.0,129.0,126.0,128.0,-1.0,104.0,-82.0,127.0,127.0,127.0,-114.0,-85.0,105.0
127.0,127.0,127.0,126.0,126.0,129.0,126.0,128.0,-1.0,104.0,-82.0,127.0,127.0,127.0,-114.0,-85.0,105.0
127.0,127.0,127.0,126.0,126.0,129.0,126.0,128.0,-1.0,104.0,-82.0,127.0,127.0,127.0,-114.0,-85.0,105.0
127.0,127.0,127.0,126.0,126.0,129.0,126.0,128.0,-1.0,104.0,-82.0,127.0,127.0,127.0,-114.0,-85.0,105.0
127.0,127.0,127.0,126.0,127.0,130.0,126.0,128.0,-1.0,104.0,-82.0,127.0,127.0,127.0,-114.0,-85.0,105.0
127.0,127.0,127.0,126.0,127.0,129.0,126.0,128.0,-1.0,104.0,-82.0,127.0,127.0,127.0,-114.0,-85.0,105.0
127.0,127.0,127.0,126.0,127.0,129.0,126.0,128.0,-1.0,104.0,-82.0,127.0,127.0,127.0,-114.0,-85.0,105.0
127.0,127.0,127.0,126.0,127.0,129.0,126.0,128.0,-1.0,104.0,-82.0,127.0,127.0,127.0,-114.0,-85.0,105.0
127.0,127.0,127.0,126.0,127.0,129.0,126.0,128.0,-1.0,104.0,-82.0,127.0,127.0,127.0,-114.0,-85.0,105.0
127.0,127.0,127.0,126.0,127.0,129.0,126.0,128.0,-1.0,104.0,-82.0,127.0,127.0,127.0,-114.0,-85.0,105.0
127.0,127.0,127.0,126.0,126.0,129.0,126.0,128.0,-1.0,104.0,-82.0,127.0,127.0,127.0,-114.0,-85.0,105.0
127.0,127.0,127.0,126.0,126.0,129.0,126.0,128.0,-1.0,104.0,-82.0,127.0,127.0,127.0,-114.0,-85.0,105.0
127.0,127.0,127.0,126.0,126.0,129.0,126.0,128.0,-1.0,104.0,-82.0,127.0,127.0,127.0,-114.0,-85.0,105.0
127.0,127.0,127.0,125.0,126.0,129.0,126.0,128.0,-1.0,104.0,-82.0,127.0,127.0,127.0,-114.0,-85.0,105.0
127.0,127.0,127.0,125.0,126.0,129.0,126.0,128.0,-1.0,104.0,-82.0,127.0,127.0,127.0,-114.0,-85.0,105.0
127.0,127.0,127.0,125.0,126.0,129.0,126.0,128.0,-1.0,104.0,-82.0,127.0,127.0,127.0,-114.0,-85.0,105.0
127.0,127.0,127.0,125.0,126.0,129.0,126.0,128.0,-1.0,104.0,-82.0,127.0,127.0,127.0,-114.0,-85.0,105.0
127.0,127.0,127.0,125.0,126.0,129.0,126.0,127.0,-1.0,104.0,-82.0,127.0,127.0,127.0,-114.0,-85.0,105.0
127.0,127.0,127.0,125.0,126.0,129.0,126.0,127.0,-1.0,104.0,-82.0,127.0,127.0,127.0,-114.0,-85.0,105.0
127.0,127.0,127.0,125.0,126.0,129.0,126.0,128.0,-1.0,104.0,-82.0,127.0,127.0,127.0,-114.0,-85.0,105.0
127.0,128.0,127.0,125.0,126.0,129.0,126.0,128.0,-1.0,104.0,-82.0,127.0,127.0,127.0,-114.0,-85.0,105.0
127.0,127.0,127.0,125.0,126.0,129.0,126.0,128.0,-1.0,104.0,-82.0,127.0,127.0,127.0,-114.0,-85.0,105.0
127.0,127.0,127.0,125.0,126.0,129.0,126.0,128.0,-1.0,104.0,-82.0,127.0,127.0,127.0,-114.0,-85.0,105.0
127.0,128.0,127.0,125.0,126.0,129.0,126.0,127.0,-1.0,104.0,-81.0,127.0,127.0,127.0,-114.0,-85.0,105.0
127.0,128.0,127.0,125.0,126.0,129.0,126.0,127.0,-1.0,104.0,-81.0,127.0,127.0,127.0,-114.0,-85.0,105.0
127.0,128.0,127.0,125.0,126.0,129.0,126.0,127.0,-1.0,104.0,-81.0,127.0,127.0,127.0,-114.0,-85.0,105.0
127.0,128.0,127.0,125.0,126.0,129.0,126.0,127.0,-1.0,104.0,-81.0,127.0,127.0,127.0,-114.0,-85.0,105.0
127.0,128.0,127.0,125.0,126.0,129.0,126.0,127.0,-1.0,104.0,-81.0,127.0,127.0,127.0,-114.0,-85.0,105.0
127.0,128.0,127.0,125.0,126.0,129.0,126.0,127.0,-1.0,104.0,-81.0,127.0,127.0,127.0,-114.0,-85.0,105.0
127.0,128.0,127.0,125.0,126.0,129.0,126.0,127.0,-1.0,104.0,-81.0,127.0,127.0,127.0,-114.0,-85.0,105.0
127.0,128.0,127.0,125.0,126.0,129.0,126.0,127.0,-1.0,104.0,-81.0,127.0,127.0,127.0,-114.0,-85.0,105.0
127.0,128.0,127.0,125.0,126.0,129.0,126.0,127.0,-1.0,104.0,-81.0,127.0,127.0,127.0,-114.0,-85.0,105.0
127.0,128.0,127.0,125.0,126.0,129.0,126.0,127.0,-1.0,104.0,-81.0,127.0,127.0,127.0,-114.0,-85.0,105.0
127.0,127.0,127.0,125.0,127.0,129.0,125.0,126.0,-1.0,104.0,-81.0,127.0,127.0,127.0,-114.0,-85.0,105.0
126.0,127.0,127.0,125.0,127.0,129.0,125.0,126.0,-1.0,104.0,-81.0,127.0,127.0,127.0,-114.0,-85.0,105.0
127.0,127.0,127.0,125.0,127.0,129.0,125.0,126.0,-1.0,104.0,-81.0,127.0,127.0,127.0,-114.0,-85.0,105.0
126.0,127.0,127.0,125.0,127.0,129.0,125.0,126.0,-1.0,104.0,-81.0,127.0,127.0,127.0,-114.0,-85.0,105.0
127.0,127.0,127.0,125.0,127.0,129.0,125.0,126.0,-1.0,104.0,-81.0,127.0,127.0,127.0,-114.0,-85.0,105.0
127.0,127.0,127.0,125.0,127.0,129.0,125.0,127.0,-1.0,104.0,-81.0,127.0,127.0,127.0,-114.0,-85.0,105.0
127.0,127.0,127.0,125.0,127.0,129.0,125.0,126.0,-1.0,104.0,-81.0,127.0,127.0,127.0,-114.0,-85.0,105.0
127.0,127.0,127.0,125.0,127.0,129.0,125.0,126.0,-1.0,104.0,-81.0,127.0,127.0,127.0,-114.0,-85.0,105.0
127.0,127.0,127.0,125.0,127.0,129.0,125.0,126.0,-1.0,104.0,-81.0,127.0,127.0,127.0,-114.0,-85.0,105.0
127.0,127.0,127.0,125.0,127.0,129.0,125.0,126.0,-1.0,104.0,-81.0,127.0,127.0,127.0,-114.0,-85.0,105.0
127.0,127.0,127.0,125.0,126.0,129.0,126.0,126.0,-1.0,105.0,-81.0,127.0,127.0,127.0,-114.0,-85.0,105.0
127.0,127.0,127.0,125.0,126.0,129.0,127.0,126.0,-1.0,105.0,-81.0,127.0,127.0,127.0,-114.0,-85.0,105.0
127.0,127.0,127.0,125.0,126.0,129.0,127.0,126.0,-1.0,105.0,-81.0,127.0,127.0,127.0,-114.0,-85.0,105.0
127.0,127.0,127.0,125.0,126.0,129.0,126.0,126.0,-1.0,105.0,-81.0,127.0,127.0,127.0,-114.0,-85.0,105.0
127.0,127.0,127.0,125.0,126.0,130.0,126.0,127.0,-1.0,105.0,-81.0,127.0,127.0,127.0,-114.0,-85.0,105.0
127.0,127.0,127.0,125.0,126.0,130.0,126.0,127.0,-1.0,105.0,-81.0,127.0,127.0,127.0,-114.0,-85.0,105.0
127.0,127.0,127.0,125.0,126.0,130.0,126.0,127.0,-1.0,105.0,-81.0,127.0,127.0,127.0,-114.0,-85.0,105.0
127.0,127.0,127.0,125.0,126.0,129.0,126.0,126.0,-1.0,105.0,-81.0,127.0,127.0,127.0,-114.0,-85.0,105.0
127.0,127.0,127.0,125.0,126.0,129.0,126.0,127.0,-1.0,105.0,-81.0,127.0,127.0,127.0,-114.0,-85.0,105.0
127.0,127.0,127.0,125.0,126.0,129.0,126.0,127.0,-1.0,105.0,-81.0,127.0,127.0,127.0,-114.0,-85.0,105.0
126.0,127.0,127.0,125.0,126.0,129.0,126.0,127.0,-1.0,105.0,-81.0,127.0,127.0,127.0,-114.0,-85.0,105.0
126.0,127.0,127.0,125.0,126.0,129.0,126.0,127.0,-1.0,105.0,-81.0,127.0,127.0,127.0,-114.0,-85.0,105.0
126.0,127.0,126.0,125.0,126.0,129.0,126.0,127.0,-1.0,105.0,-81.0,127.0,127.0,127.0,-114.0,-85.0,105.0
127.0,127.0,126.0,125.0,126.0,130.0,126.0,127.0,-1.0,105.0,-81.0,127.0,127.0,127.0,-114.0,-85.0,105.0
127.0,127.0,126.0,125.0,126.0,130.0,126.0,127.0,-1.0,105.0,-81.0,127.0,127.0,127.0,-114.0,-85.0,105.0
127.0,127.0,126.0,125.0,126.0,129.0,126.0,127.0,-1.0,105.0,-81.0,127.0,127.0,127.0,-114.0,-85.0,105.0
126.0,127.0,127.0,125.0,126.0,129.0,126.0,127.0,-1.0,105.0,-81.0,127.0,127.0,127.0,-114.0,-85.0,105.0
126.0,127.0,127.0,125.0,126.0,129.0,126.0,127.0,-1.0,105.0,-81.0,127.0,127.0,127.0,-114.0,-85.0,105.0
127.0,127.0,127.0,125.0,126.0,129.0,126.0,127.0,-1.0,105.0,-81.0,127.0,127.0,127.0,-114.0,-85.0,105.0
126.0,127.0,127.0,125.0,126.0,129.0,126.0,127.0,-1.0,105.0,-81.0,127.0,127.0,127.0,-114.0,-85.0,105.0
127.0,127.0,127.0,125.0,126.0,128.0,127.0,127.0,-1.0,104.0,-81.0,127.0,127.0,127.0,-114.0,-85.0,105.0
127.0,127.0,127.0,125.0,126.0,128.0,127.0,127.0,-1.0,104.0,-81.0,127.0,127.0,127.0,-114.0,-85.0,105.0
127.0,127.0,127.0,125.0,126.0,128.0,127.0,127.0,-1.0,104.0,-81.0,127.0,127.0,127.0,-114.0,-85.0,105.0
127.0,127.0,127.0,125.0,126.0,128.0,127.0,127.0,-1.0,104.0,-81.0,127.0,127.0,127.0,-114.0,-85.0,105.0
127.0,127.0,127.0,125.0,126.0,128.0,127.0,127.0,-1.0,104.0,-81.0,127.0,127.0,127.0,-114.0,-85.0,105.0
127.0,127.0,127.0,125.0,126.0,128.0,127.0,127.0,-1.0,104.0,-81.0,127.0,127.0,127.0,-114.0,-85.0,105.0
127.0,127.0,127.0,125.0,126.0,128.0,127.0,127.0,-1.0,104.0,-81.0,127.0,127.0,127.0,-114.0,-85.0,105.0
127.0,127.0,127.0,125.0,126.0,128.0,127.0,127.0,-1.0,104.0,-81.0,127.0,127.0,127.0,-114.0,-85.0,105.0
127.0,127.0,127.0,125.0,126.0,128.0,127.0,127.0,-1.0,104.0,-81.0,127.0,127.0,127.0,-114.0,-85.0,105.0
127.0,127.0,127.0,125.0,126.0,128.0,127.0,127.0,-1.0,104.0,-81.0,127.0,127.0,127.0,-114.0,-85.0,105.0
127.0,127.0,127.0,126.0,126.0,129.0,125.0,127.0,-1.0,104.0,-81.0,127.0,127.0,127.0,-114.0,-85.0,105.0
127.0,127.0,127.0,126.0,126.0,129.0,125.0,127.0,-1.0,104.0,-81.0,127.0,127.0,127.0,-114.0,-85.0,105.0
127.0,127.0,127.0,126.0,126.0,129.0,125.0,127.0,-1.0,104.0,-81.0,127.0,127.0,127.0,-114.0,-85.0,105.0
127.0,127.0,127.0,126.0,126.0,129.0,126.0,127.0,-1.0,104.0,-81.0,127.0,127.0,127.0,-114.0,-85.0,105.0
