emg1,emg2,emg3,emg4,emg5,emg6,emg7,emg8,acc_x,acc_y,acc_z,gyro_x,gyro_y,gyro_z,angle_pitch,angle_roll,angle_yaw
128.0,127.0,127.0,126.0,127.0,124.0,127.0,128.0,21.0,-106.0,-75.0,127.0,127.0,127.0,113.0,84.0,-61.0
128.0,127.0,127.0,126.0,127.0,124.0,127.0,128.0,21.0,-106.0,-75.0,127.0,127.0,127.0,113.0,84.0,-61.0
128.0,127.0,127.0,126.0,127.0,124.0,127.0,128.0,21.0,-106.0,-75.0,127.0,127.0,127.0,113.0,84.0,-61.0
128.0,128.0,127.0,127.0,127.0,123.0,127.0,128.0,21.0,-106.0,-75.0,127.0,127.0,127.0,113.0,84.0,-61.0
128.0,127.0,127.0,127.0,127.0,123.0,127.0,128.0,21.0,-106.0,-75.0,127.0,127.0,127.0,113.0,84.0,-61.0
128.0,127.0,127.0,127.0,127.0,123.0,127.0,128.0,21.0,-106.0,-75.0,127.0,127.0,127.0,113.0,84.0,-61.0
128.0,128.0,127.0,126.0,127.0,124.0,127.0,128.0,21.0,-106.0,-75.0,127.0,127.0,127.0,113.0,84.0,-61.0
128.0,128.0,127.0,126.0,127.0,124.0,127.0,128.0,21.0,-106.0,-75.0,127.0,127.0,127.0,113.0,84.0,-61.0
129.0,128.0,127.0,126.0,127.0,124.0,127.0,128.0,21.0,-106.0,-74.0,127.0,127.0,127.0,113.0,84.0,-61.0
129.0,127.0,127.0,126.0,127.0,124.0,127.0,128.0,21.0,-106.0,-74.0,127.0,127.0,127.0,113.0,84.0,-61.0
129.0,127.0,127.0,126.0,127.0,124.0,127.0,128.0,21.0,-106.0,-74.0,127.0,127.0,127.0,113.0,84.0,-61.0
129.0,127.0,127.0,126.0,127.0,124.0,127.0,128.0,21.0,-106.0,-74.0,127.0,127.0,127.0,113.0,84.0,-61.0
129.0,127.0,127.0,126.0,127.0,123.0,127.0,128.0,21.0,-106.0,-74.0,127.0,127.0,127.0,113.0,84.0,-61.0
129.0,127.0,127.0,126.0,127.0,123.0,127.0,128.0,21.0,-106.0,-74.0,127.0,127.0,127.0,113.0,84.0,-61.0
129.0,127.0,127.0,126.0,127.0,123.0,127.0,128.0,21.0,-106.0,-74.0,127.0,127.0,127.0,113.0,84.0,-61.0
129.0,127.0,127.0,126.0,127.0,123.0,127.0,128.0,21.0,-106.0,-74.0,127.0,127.0,127.0,113.0,84.0,-61.0
129.0,128.0,127.0,126.0,127.0,124.0,127.0,128.0,21.0,-106.0,-74.0,127.0,127.0,127.0,113.0,84.0,-61.0
129.0,128.0,127.0,126.0,127.0,124.0,127.0,128.0,21.0,-106.0,-74.0,127.0,127.0,127.0,113.0,84.0,-61.0
129.0,128.0,127.0,127.0,127.0,124.0,127.0,128.0,22.0,-106.0,-74.0,127.0,127.0,127.0,113.0,84.0,-61.0
129.0,127.0,127.0,126.0,127.0,124.0,127.0,128.0,22.0,-106.0,-74.0,127.0,127.0,127.0,113.0,84.0,-61.0
129.0,127.0,127.0,127.0,127.0,123.0,127.0,128.0,22.0,-106.0,-74.0,127.0,127.0,127.0,113.0,84.0,-61.0
129.0,127.0,126.0,126.0,127.0,122.0,127.0,128.0,22.0,-106.0,-74.0,127.0,127.0,127.0,113.0,84.0,-61.0
129.0,127.0,126.0,126.0,127.0,122.0,127.0,128.0,22.0,-106.0,-74.0,127.0,127.0,127.0,113.0,84.0,-61.0
129.0,127.0,126.0,127.0,127.0,122.0,127.0,128.0,22.0,-106.0,-74.0,127.0,127.0,127.0,113.0,84.0,-61.0
129.0,127.0,126.0,126.0,127.0,122.0,127.0,128.0,22.0,-106.0,-74.0,127.0,127.0,127.0,113.0,84.0,-61.0
129.0,128.0,126.0,127.0,127.0,123.0,127.0,128.0,22.0,-106.0,-74.0,127.0,127.0,127.0,113.0,84.0,-61.0
129.0,128.0,126.0,127.0,127.0,124.0,127.0,128.0,22.0,-106.0,-74.0,127.0,127.0,127.0,113.0,84.0,-61.0
129.0,128.0,126.0,127.0,127.0,124.0,127.0,128.0,22.0,-106.0,-74.0,127.0,127.0,127.0,113.0,84.0,-61.0
129.0,127.0,126.0,126.0,127.0,124.0,127.0,128.0,22.0,-106.0,-74.0,127.0,127.0,127.0,113.0,84.0,-61.0
129.0,127.0,126.0,126.0,127.0,124.0,127.0,128.0,22.0,-106.0,-74.0,127.0,127.0,127.0,113.0,84.0,-61.0
129.0,127.0,126.0,126.0,127.0,123.0,127.0,128.0,22.0,-106.0,-74.0,127.0,127.0,127.0,113.0,84.0,-61.0
129.0,127.0,126.0,127.0,127.0,122.0,127.0,128.0,22.0,-106.0,-74.0,127.0,127.0,127.0,113.0,84.0,-61.0
129.0,127.0,126.0,126.0,127.0,122.0,127.0,128.0,22.0,-106.0,-74.0,127.0,127.0,127.0,113.0,84.0,-61.0
129.0,127.0,126.0,127.0,127.0,123.0,127.0,128.0,22.0,-106.0,-74.0,127.0,127.0,127.0,113.0,84.0,-61.0
129.0,127.0,126.0,126.0,127.0,124.0,127.0,128.0,22.0,-106.0,-74.0,127.0,127.0,127.0,113.0,84.0,-61.0
129.0,127.0,126.0,126.0,127.0,124.0,127.0,128.0,22.0,-106.0,-74.0,127.0,127.0,127.0,113.0,84.0,-61.0
129.0,127.0,126.0,127.0,127.0,124.0,127.0,128.0,22.0,-106.0,-74.0,127.0,127.0,127.0,113.0,84.0,-61.0
129.0,127.0,126.0,126.0,127.0,124.0,127.0,128.0,22.0,-106.0,-74.0,127.0,127.0,127.0,113.0,84.0,-61.0
129.0,127.0,127.0,126.0,127.0,124.0,127.0,128.0,22.0,-106.0,-74.0,127.0,127.0,127.0,113.0,84.0,-61.0
129.0,127.0,127.0,127.0,127.0,123.0,127.0,128.0,22.0,-106.0,-74.0,127.0,127.0,127.0,113.0,84.0,-61.0
129.0,127.0,127.0,127.0,127.0,123.0,127.0,128.0,22.0,-106.0,-74.0,127.0,127.0,127.0,113.0,84.0,-61.0
129.0,127.0,127.0,127.0,127.0,123.0,127.0,128.0,22.0,-106.0,-74.0,127.0,127.0,127.0,113.0,84.0,-61.0
129.0,127.0,127.0,127.0,127.0,123.0,127.0,128.0,22.0,-106.0,-74.0,127.0,127.0,127.0,113.0,84.0,-61.0
129.0,127.0,127.0,126.0,127.0,124.0,126.0,128.0,22.0,-106.0,-74.0,127.0,127.0,127.0,113.0,84.0,-61.0
129.0,127.0,127.0,126.0,127.0,124.0,126.0,128.0,22.0,-106.0,-74.0,127.0,127.0,127.0,113.0,84.0,-61.0
129.0,127.0,127.0,126.0,127.0,124.0,127.0,128.0,22.0,-106.0,-74.0,127.0,127.0,127.0,113.0,84.0,-61.0
129.0,127.0,127.0,126.0,127.0,124.0,126.0,128.0,22.0,-106.0,-74.0,127.0,127.0,127.0,113.0,84.0,-61.0
129.0,127.0,127.0,126.0,127.0,124.0,127.0,128.0,22.0,-106.0,-74.0,127.0,127.0,127.0,113.0,84.0,-61.0
129.0,127.0,127.0,127.0,127.0,123.0,127.0,128.0,22.0,-106.0,-74.0,127.0,127.0,127.0,113.0,84.0,-61.0
129.0,127.0,127.0,127.0,127.0,123.0,127.0,128.0,22.0,-106.0,-74.0,127.0,127.0,127.0,113.0,84.0,-61.0
129.0,127.0,127.0,127.0,127.0,123.0,127.0,128.0,22.0,-106.0,-74.0,127.0,127.0,127.0,113.0,84.0,-61.0
129.0,127.0,127.0,127.0,127.0,123.0,127.0,128.0,22.0,-106.0,-74.0,127.0,127.0,127.0,113.0,84.0,-61.0
128.0,127.0,127.0,127.0,127.0,123.0,127.0,128.0,22.0,-106.0,-74.0,127.0,127.0,127.0,113.0,84.0,-61.0
128.0,127.0,126.0,127.0,127.0,124.0,127.0,128.0,22.0,-106.0,-74.0,127.0,127.0,127.0,113.0,84.0,-61.0
128.0,128.0,126.0,127.0,127.0,124.0,127.0,128.0,22.0,-106.0,-74.0,127.0,127.0,127.0,113.0,84.0,-61.0
128.0,127.0,127.0,127.0,127.0,124.0,127.0,128.0,22.0,-106.0,-74.0,127.0,127.0,127.0,113.0,84.0,-61.0
128.0,127.0,127.0,127.0,127.0,124.0,127.0,128.0,22.0,-106.0,-74.0,127.0,127.0,127.0,113.0,84.0,-61.0
128.0,127.0,127.0,127.0,127.0,124.0,127.0,128.0,22.0,-106.0,-74.0,127.0,127.0,127.0,113.0,84.0,-61.0
129.0,127.0,127.0,128.0,127.0,121.0,127.0,128.0,22.0,-106.0,-74.0,127.0,127.0,127.0,113.0,84.0,-61.0
129.0,127.0,128.0,128.0,127.0,120.0,127.0,128.0,22.0,-106.0,-74.0,127.0,127.0,127.0,113.0,84.0,-61.0
129.0,127.0,127.0,128.0,127.0,121.0,127.0,128.0,22.0,-106.0,-74.0,127.0,127.0,127.0,113.0,84.0,-61.0
129.0,127.0,128.0,128.0,127.0,120.0,127.0,128.0,22.0,-106.0,-74.0,127.0,127.0,127.0,113.0,84.0,-61.0
128.0,127.0,128.0,128.0,127.0,120.0,127.0,128.0,22.0,-106.0,-74.0,127.0,127.0,127.0,113.0,84.0,-61.0
128.0,127.0,128.0,128.0,127.0,121.0,127.0,128.0,22.0,-106.0,-74.0,127.0,127.0,127.0,113.0,84.0,-61.0
128.0,127.0,127.0,128.0,127.0,121.0,127.0,128.0,22.0,-106.0,-74.0,127.0,127.0,127.0,113.0,84.0,-61.0
128.0,127.0,127.0,128.0,127.0,122.0,126.0,128.0,22.0,-106.0,-74.0,127.0,127.0,127.0,113.0,84.0,-61.0
128.0,127.0,127.0,128.0,127.0,122.0,126.0,128.0,22.0,-106.0,-74.0,127.0,127.0,127.0,113.0,84.0,-61.0
129.0,127.0,128.0,128.0,127.0,121.0,127.0,128.0,22.0,-106.0,-74.0,127.0,127.0,127.0,113.0,84.0,-61.0
128.0,128.0,123.0,124.0,127.0,124.0,127.0,127.0,22.0,-106.0,-74.0,127.0,127.0,127.0,113.0,84.0,-61.0
128.0,128.0,123.0,124.0,126.0,124.0,127.0,128.0,22.0,-106.0,-74.0,127.0,127.0,127.0,113.0,84.0,-61.0
128.0,127.0,124.0,124.0,126.0,124.0,127.0,128.0,22.0,-106.0,-74.0,127.0,127.0,127.0,113.0,84.0,-61.0
128.0,127.0,124.0,123.0,126.0,123.0,127.0,128.0,22.0,-106.0,-74.0,127.0,127.0,127.0,113.0,84.0,-61.0
128.0,127.0,124.0,123.0,126.0,124.0,127.0,128.0,22.0,-106.0,-74.0,127.0,127.0,127.0,113.0,84.0,-61.0
128.0,127.0,124.0,123.0,126.0,123.0,127.0,128.0,22.0,-106.0,-74.0,127.0,127.0,127.0,113.0,84.0,-61.0
128.0,127.0,125.0,123.0,126.0,123.0,127.0,128.0,22.0,-106.0,-74.0,127.0,127.0,127.0,113.0,84.0,-61.0
128.0,127.0,125.0,123.0,126.0,123.0,127.0,128.0,22.0,-106.0,-74.0,127.0,127.0,127.0,113.0,84.0,-61.0
128.0,127.0,124.0,124.0,127.0,122.0,127.0,127.0,22.0,-106.0,-74.0,127.0,127.0,127.0,113.0,84.0,-61.0
128.0,127.0,123.0,124.0,126.0,123.0,127.0,127.0,22.0,-106.0,-74.0,127.0,127.0,127.0,113.0,84.0,-61.0
128.0,128.0,126.0,128.0,127.0,124.0,127.0,128.0,22.0,-106.0,-75.0,127.0,127.0,127.0,113.0,84.0,-61.0
128.0,128.0,126.0,128.0,127.0,124.0,126.0,128.0,22.0,-106.0,-75.0,127.0,127.0,127.0,113.0,84.0,-61.0
128.0,128.0,126.0,128.0,127.0,125.0,126.0,128.0,22.0,-106.0,-75.0,127.0,127.0,127.0,113.0,84.0,-61.0
128.0,128.0,126.0,128.0,127.0,125.0,126.0,128.0,22.0,-106.0,-75.0,127.0,127.0,127.0,113.0,84.0,-61.0
128.0,128.0,126.0,128.0,127.0,125.0,126.0,128.0,22.0,-106.0,-75.0,127.0,127.0,127.0,113.0,84.0,-61.0
128.0,128.0,126.0,128.0,127.0,125.0,126.0,128.0,22.0,-106.0,-75.0,127.0,127.0,127.0,113.0,84.0,-61.0
128.0,128.0,126.0,128.0,127.0,125.0,126.0,128.0,22.0,-106.0,-75.0,127.0,127.0,127.0,113.0,84.0,-61.0
128.0,128.0,127.0,128.0,127.0,123.0,127.0,128.0,22.0,-106.0,-75.0,127.0,127.0,127.0,113.0,84.0,-61.0
128.0,128.0,127.0,128.0,127.0,123.0,127.0,128.0,22.0,-106.0,-75.0,127.0,127.0,127.0,113.0,84.0,-61.0
128.0,128.0,126.0,128.0,128.0,124.0,127.0,128.0,22.0,-106.0,-75.0,127.0,127.0,127.0,113.0,84.0,-61.0
128.0,128.0,126.0,127.0,127.0,122.0,127.0,128.0,22.0,-106.0,-75.0,127.0,127.0,127.0,113.0,84.0,-61.0
128.0,128.0,126.0,127.0,127.0,123.0,127.0,128.0,22.0,-106.0,-75.0,127.0,127.0,127.0,113.0,84.0,-61.0
128.0,128.0,126.0,127.0,127.0,123.0,127.0,128.0,22.0,-106.0,-75.0,127.0,127.0,127.0,113.0,84.0,-61.0
128.0,128.0,126.0,127.0,127.0,123.0,127.0,128.0,22.0,-106.0,-75.0,127.0,127.0,127.0,113.0,84.0,-61.0
128.0,128.0,126.0,126.0,127.0,123.0,127.0,128.0,22.0,-106.0,-75.0,127.0,127.0,127.0,113.0,84.0,-61.0
128.0,128.0,126.0,126.0,127.0,123.0,127.0,128.0,22.0,-106.0,-75.0,127.0,127.0,127.0,113.0,84.0,-61.0
128.0,128.0,126.0,128.0,127.0,122.0,127.0,128.0,22.0,-106.0,-75.0,127.0,127.0,127.0,113.0,84.0,-61.0
128.0,128.0,126.0,128.0,127.0,122.0,127.0,128.0,22.0,-106.0,-75.0,127.0,127.0,127.0,113.0,84.0,-61.0
128.0,128.0,126.0,128.0,127.0,122.0,127.0,128.0,22.0,-106.0,-75.0,127.0,127.0,127.0,113.0,84.0,-61.0
128.0,128.0,126.0,128.0,127.0,122.0,127.0,128.0,22.0,-106.0,-75.0,127.0,127.0,127.0,113.0,84.0,-61.0
128.0,128.0,124.0,127.0,127.0,122.0,127.0,128.0,22.0,-106.0,-75.0,127.0,127.0,127.0,113.0,84.0,-61.0
128.0,128.0,124.0,127.0,127.0,122.0,127.0,128.0,22.0,-106.0,-75.0,127.0,127.0,127.0,113.0,84.0,-61.0
128.0,128.0,124.0,127.0,127.0,123.0,127.0,128.0,22.0,-106.0,-75.0,127.0,127.0,127.0,113.0,84.0,-61.0
128.0,128.0,124.0,127.0,127.0,122.0,127.0,128.0,22.0,-106.0,-75.0,127.0,127.0,127.0,113.0,84.0,-61.0
128.0,128.0,124.0,127.0,127.0,122.0,127.0,128.0,22.0,-106.0,-75.0,127.0,127.0,127.0,113.0,84.0,-61.0
128.0,128.0,124.0,127.0,127.0,121.0,127.0,128.0,22.0,-106.0,-75.0,127.0,127.0,127.0,113.0,84.0,-61.0
128.0,128.0,124.0,127.0,127.0,121.0,127.0,128.0,22.0,-106.0,-75.0,127.0,127.0,127.0,113.0,84.0,-61.0
128.0,128.0,124.0,127.0,127.0,121.0,127.0,128.0,22.0,-106.0,-75.0,127.0,127.0,127.0,113.0,84.0,-61.0
128.0,128.0,124.0,127.0,127.0,121.0,127.0,128.0,22.0,-106.0,-75.0,127.0,127.0,127.0,113.0,84.0,-61.0
128.0,128.0,124.0,127.0,127.0,121.0,127.0,128.0,22.0,-106.0,-75.0,127.0,127.0,127.0,113.0,84.0,-61.0
128.0,128.0,124.0,128.0,127.0,124.0,126.0,128.0,22.0,-106.0,-75.0,127.0,127.0,127.0,113.0,84.0,-61.0
128.0,128.0,124.0,128.0,127.0,124.0,127.0,128.0,22.0,-106.0,-75.0,127.0,127.0,127.0,113.0,84.0,-61.0
128.0,127.0,124.0,128.0,127.0,124.0,127.0,128.0,22.0,-106.0,-75.0,127.0,127.0,127.0,113.0,84.0,-61.0
128.0,127.0,124.0,128.0,127.0,123.0,127.0,128.0,22.0,-106.0,-75.0,127.0,127.0,127.0,113.0,84.0,-61.0
128.0,128.0,124.0,128.0,127.0,122.0,127.0,128.0,22.0,-106.0,-75.0,127.0,127.0,127.0,113.0,84.0,-61.0
128.0,128.0,124.0,128.0,127.0,122.0,127.0,128.0,22.0,-106.0,-75.0,127.0,127.0,127.0,113.0,84.0,-61.0
128.0,128.0,124.0,128.0,127.0,122.0,127.0,128.0,22.0,-106.0,-75.0,127.0,127.0,127.0,113.0,84.0,-61.0
128.0,127.0,124.0,128.0,127.0,122.0,127.0,128.0,22.0,-106.0,-75.0,127.0,127.0,127.0,113.0,84.0,-61.0
128.0,127.0,124.0,128.0,127.0,122.0,127.0,128.0,22.0,-106.0,-75.0,127.0,127.0,127.0,113.0,84.0,-61.0
127.0,128.0,124.0,128.0,127.0,123.0,126.0,128.0,22.0,-106.0,-75.0,127.0,127.0,127.0,113.0,84.0,-61.0
128.0,126.0,122.0,132.0,127.0,123.0,126.0,127.0,23.0,-106.0,-75.0,127.0,127.0,127.0,113.0,84.0,-61.0
128.0,126.0,122.0,132.0,127.0,123.0,126.0,127.0,23.0,-106.0,-75.0,127.0,127.0,127.0,113.0,84.0,-61.0
128.0,126.0,121.0,132.0,127.0,122.0,126.0,127.0,23.0,-106.0,-75.0,127.0,127.0,127.0,113.0,84.0,-61.0
128.0,127.0,122.0,131.0,127.0,124.0,126.0,128.0,23.0,-106.0,-75.0,127.0,127.0,127.0,113.0,84.0,-61.0
128.0,127.0,122.0,131.0,127.0,124.0,126.0,128.0,23.0,-106.0,-75.0,127.0,127.0,127.0,113.0,84.0,-61.0
128.0,127.0,122.0,131.0,127.0,123.0,126.0,128.0,23.0,-106.0,-75.0,127.0,127.0,127.0,113.0,84.0,-61.0
128.0,127.0,122.0,132.0,127.0,123.0,126.0,128.0,23.0,-106.0,-75.0,127.0,127.0,127.0,113.0,84.0,-61.0
128.0,127.0,122.0,132.0,127.0,123.0,126.0,128.0,23.0,-106.0,-75.0,127.0,127.0,127.0,113.0,84.0,-61.0
128.0,127.0,122.0,132.0,127.0,123.0,126.0,128.0,23.0,-106.0,-75.0,127.0,127.0,127.0,113.0,84.0,-61.0
128.0,126.0,122.0,132.0,127.0,123.0,126.0,127.0,23.0,-106.0,-75.0,127.0,127.0,127.0,113.0,84.0,-61.0
128.0,127.0,125.0,134.0,127.0,125.0,127.0,128.0,23.0,-106.0,-75.0,127.0,127.0,127.0,113.0,84.0,-61.0
128.0,127.0,125.0,134.0,127.0,125.0,127.0,128.0,23.0,-106.0,-75.0,127.0,127.0,127.0,113.0,84.0,-61.0
128.0,127.0,125.0,134.0,127.0,123.0,127.0,128.0,23.0,-106.0,-75.0,127.0,127.0,127.0,113.0,84.0,-61.0
128.0,127.0,125.0,134.0,127.0,124.0,127.0,128.0,23.0,-106.0,-75.0,127.0,127.0,127.0,113.0,84.0,-61.0
128.0,127.0,125.0,134.0,127.0,123.0,127.0,128.0,23.0,-106.0,-75.0,127.0,127.0,127.0,113.0,84.0,-61.0
128.0,127.0,125.0,134.0,127.0,123.0,127.0,128.0,23.0,-106.0,-75.0,127.0,127.0,127.0,113.0,84.0,-61.0
128.0,127.0,125.0,134.0,127.0,123.0,127.0,128.0,23.0,-106.0,-75.0,127.0,127.0,127.0,113.0,84.0,-61.0
128.0,127.0,125.0,134.0,127.0,123.0,127.0,128.0,23.0,-106.0,-75.0,127.0,127.0,127.0,113.0,84.0,-61.0
128.0,127.0,125.0,134.0,127.0,125.0,127.0,128.0,23.0,-106.0,-75.0,127.0,127.0,127.0,113.0,84.0,-61.0
128.0,127.0,125.0,134.0,127.0,125.0,127.0,128.0,23.0,-106.0,-75.0,127.0,127.0,127.0,113.0,84.0,-61.0
128.0,127.0,129.0,134.0,127.0,123.0,127.0,128.0,23.0,-106.0,-75.0,127.0,127.0,127.0,113.0,84.0,-61.0
128.0,127.0,128.0,134.0,127.0,123.0,127.0,128.0,23.0,-106.0,-75.0,127.0,127.0,127.0,113.0,84.0,-61.0
128.0,127.0,128.0,134.0,127.0,123.0,127.0,128.0,23.0,-106.0,-75.0,127.0,127.0,127.0,113.0,84.0,-61.0
128.0,127.0,129.0,134.0,127.0,122.0,127.0,128.0,23.0,-106.0,-75.0,127.0,127.0,127.0,113.0,84.0,-61.0
128.0,127.0,129.0,134.0,127.0,122.0,127.0,128.0,23.0,-106.0,-75.0,127.0,127.0,127.0,113.0,84.0,-61.0
128.0,127.0,129.0,134.0,127.0,122.0,127.0,128.0,23.0,-106.0,-75.0,127.0,127.0,127.0,113.0,84.0,-61.0
128.0,127.0,129.0,134.0,127.0,122.0,127.0,128.0,23.0,-106.0,-75.0,127.0,127.0,127.0,113.0,84.0,-61.0
128.0,127.0,129.0,134.0,127.0,122.0,127.0,128.0,23.0,-106.0,-75.0,127.0,127.0,127.0,113.0,84.0,-61.0
128.0,127.0,129.0,134.0,127.0,122.0,127.0,127.0,23.0,-106.0,-75.0,127.0,127.0,127.0,113.0,84.0,-61.0
128.0,127.0,129.0,134.0,127.0,122.0,127.0,128.0,23.0,-106.0,-75.0,127.0,127.0,127.0,113.0,84.0,-61.0
128.0,127.0,129.0,135.0,127.0,123.0,126.0,128.0,23.0,-106.0,-75.0,127.0,127.0,127.0,113.0,84.0,-61.0
128.0,127.0,129.0,135.0,127.0,124.0,126.0,128.0,23.0,-106.0,-75.0,127.0,127.0,127.0,113.0,84.0,-61.0
128.0,127.0,129.0,135.0,127.0,123.0,126.0,128.0,23.0,-106.0,-75.0,127.0,127.0,127.0,113.0,84.0,-61.0
128.0,127.0,129.0,135.0,127.0,125.0,126.0,128.0,23.0,-106.0,-75.0,127.0,127.0,127.0,113.0,84.0,-61.0
128.0,127.0,129.0,135.0,127.0,125.0,126.0,128.0,23.0,-106.0,-75.0,127.0,127.0,127.0,113.0,84.0,-61.0
128.0,127.0,129.0,135.0,127.0,125.0,126.0,128.0,23.0,-106.0,-75.0,127.0,127.0,127.0,113.0,84.0,-61.0
128.0,127.0,129.0,135.0,127.0,125.0,126.0,128.0,23.0,-106.0,-75.0,127.0,127.0,127.0,113.0,84.0,-61.0
128.0,127.0,129.0,135.0,127.0,125.0,126.0,128.0,23.0,-106.0,-75.0,127.0,127.0,127.0,113.0,84.0,-61.0
128.0,127.0,129.0,135.0,127.0,125.0,126.0,128.0,23.0,-106.0,-75.0,127.0,127.0,127.0,113.0,84.0,-61.0
128.0,127.0,129.0,135.0,127.0,124.0,126.0,128.0,23.0,-106.0,-75.0,127.0,127.0,127.0,113.0,84.0,-61.0
128.0,127.0,129.0,133.0,127.0,124.0,127.0,128.0,23.0,-106.0,-74.0,127.0,127.0,127.0,113.0,84.0,-61.0
128.0,127.0,129.0,133.0,127.0,124.0,127.0,128.0,23.0,-106.0,-74.0,127.0,127.0,127.0,113.0,84.0,-61.0
128.0,127.0,128.0,133.0,127.0,125.0,126.0,128.0,23.0,-106.0,-74.0,127.0,127.0,127.0,113.0,84.0,-61.0
128.0,127.0,128.0,133.0,127.0,126.0,126.0,128.0,23.0,-106.0,-74.0,127.0,127.0,127.0,113.0,84.0,-61.0
128.0,127.0,128.0,133.0,127.0,126.0,127.0,128.0,23.0,-106.0,-74.0,127.0,127.0,127.0,113.0,84.0,-61.0
128.0,127.0,128.0,133.0,127.0,125.0,127.0,128.0,23.0,-106.0,-74.0,127.0,127.0,127.0,113.0,84.0,-61.0
128.0,127.0,128.0,133.0,127.0,125.0,127.0,128.0,23.0,-106.0,-74.0,127.0,127.0,127.0,113.0,84.0,-61.0
128.0,127.0,128.0,133.0,127.0,125.0,127.0,128.0,23.0,-106.0,-74.0,127.0,127.0,127.0,113.0,84.0,-61.0
128.0,127.0,128.0,133.0,127.0,125.0,127.0,128.0,23.0,-106.0,-74.0,127.0,127.0,127.0,113.0,84.0,-61.0
128.0,127.0,129.0,133.0,127.0,124.0,127.0,128.0,23.0,-106.0,-74.0,127.0,127.0,127.0,113.0,84.0,-61.0
128.0,127.0,128.0,131.0,127.0,124.0,127.0,127.0,23.0,-105.0,-74.0,127.0,127.0,127.0,113.0,84.0,-61.0
128.0,127.0,127.0,131.0,127.0,125.0,126.0,128.0,23.0,-105.0,-74.0,127.0,127.0,127.0,113.0,84.0,-61.0
128.0,127.0,127.0,131.0,127.0,125.0,126.0,127.0,23.0,-105.0,-74.0,127.0,127.0,127.0,113.0,84.0,-61.0
128.0,127.0,127.0,131.0,127.0,125.0,126.0,127.0,23.0,-105.0,-74.0,127.0,127.0,127.0,113.0,84.0,-61.0
128.0,127.0,127.0,131.0,127.0,125.0,126.0,128.0,23.0,-105.0,-74.0,127.0,127.0,127.0,113.0,84.0,-61.0
128.0,127.0,128.0,131.0,127.0,125.0,126.0,127.0,23.0,-105.0,-74.0,127.0,127.0,127.0,113.0,84.0,-61.0
128.0,127.0,128.0,131.0,127.0,125.0,126.0,127.0,23.0,-105.0,-74.0,127.0,127.0,127.0,113.0,84.0,-61.0
128.0,127.0,128.0,131.0,127.0,125.0,126.0,127.0,23.0,-105.0,-74.0,127.0,127.0,127.0,113.0,84.0,-61.0
128.0,127.0,128.0,131.0,127.0,124.0,127.0,127.0,23.0,-105.0,-74.0,127.0,127.0,127.0,113.0,84.0,-61.0
128.0,127.0,128.0,131.0,127.0,124.0,127.0,128.0,23.0,-105.0,-74.0,127.0,127.0,127.0,113.0,84.0,-61.0
128.0,128.0,127.0,131.0,127.0,125.0,127.0,128.0,23.0,-105.0,-74.0,127.0,127.0,127.0,113.0,84.0,-61.0
128.0,128.0,127.0,131.0,127.0,126.0,127.0,128.0,23.0,-105.0,-74.0,127.0,127.0,127.0,113.0,84.0,-61.0
128.0,127.0,127.0,131.0,127.0,126.0,127.0,128.0,23.0,-105.0,-74.0,127.0,127.0,127.0,113.0,84.0,-61.0
128.0,127.0,127.0,131.0,127.0,126.0,127.0,128.0,23.0,-105.0,-74.0,127.0,127.0,127.0,113.0,84.0,-61.0
128.0,127.0,127.0,130.0,127.0,126.0,127.0,128.0,23.0,-105.0,-74.0,127.0,127.0,127.0,113.0,84.0,-61.0
128.0,127.0,127.0,130.0,127.0,126.0,127.0,128.0,23.0,-105.0,-74.0,127.0,127.0,127.0,113.0,84.0,-61.0
128.0,127.0,127.0,130.0,127.0,125.0,127.0,128.0,23.0,-105.0,-74.0,127.0,127.0,127.0,113.0,84.0,-61.0
128.0,127.0,127.0,131.0,127.0,124.0,127.0,127.0,23.0,-105.0,-74.0,127.0,127.0,127.0,113.0,84.0,-61.0
128.0,127.0,127.0,131.0,127.0,124.0,127.0,128.0,23.0,-105.0,-74.0,127.0,127.0,127.0,113.0,84.0,-61.0
128.0,127.0,127.0,131.0,127.0,124.0,127.0,128.0,23.0,-105.0,-74.0,127.0,127.0,127.0,113.0,84.0,-61.0
128.0,128.0,127.0,129.0,127.0,128.0,127.0,128.0,23.0,-104.0,-74.0,127.0,127.0,127.0,113.0,84.0,-61.0
128.0,128.0,127.0,129.0,127.0,128.0,127.0,128.0,23.0,-104.0,-74.0,127.0,127.0,127.0,113.0,84.0,-61.0
128.0,128.0,127.0,129.0,127.0,127.0,127.0,128.0,23.0,-104.0,-74.0,127.0,127.0,127.0,113.0,84.0,-61.0
128.0,128.0,127.0,130.0,127.0,127.0,127.0,128.0,23.0,-104.0,-74.0,127.0,127.0,127.0,113.0,84.0,-61.0
128.0,128.0,127.0,130.0,127.0,127.0,127.0,128.0,23.0,-104.0,-74.0,127.0,127.0,127.0,113.0,84.0,-61.0
128.0,128.0,127.0,130.0,127.0,127.0,127.0,128.0,23.0,-104.0,-74.0,127.0,127.0,127.0,113.0,84.0,-61.0
128.0,127.0,127.0,129.0,127.0,126.0,127.0,128.0,23.0,-104.0,-74.0,127.0,127.0,127.0,113.0,84.0,-61.0
128.0,127.0,127.0,129.0,127.0,126.0,127.0,128.0,23.0,-104.0,-74.0,127.0,127.0,127.0,113.0,84.0,-61.0
128.0,127.0,127.0,129.0,127.0,126.0,127.0,128.0,23.0,-104.0,-74.0,127.0,127.0,127.0,113.0,84.0,-61.0
128.0,128.0,127.0,129.0,127.0,127.0,127.0,128.0,23.0,-104.0,-74.0,127.0,127.0,127.0,113.0,84.0,-61.0
128.0,128.0,125.0,129.0,127.0,128.0,127.0,128.0,23.0,-104.0,-75.0,127.0,127.0,127.0,113.0,84.0,-61.0
128.0,128.0,125.0,129.0,127.0,128.0,127.0,128.0,23.0,-104.0,-75.0,127.0,127.0,127.0,113.0,84.0,-61.0
128.0,128.0,125.0,129.0,127.0,128.0,127.0,128.0,23.0,-104.0,-75.0,127.0,127.0,127.0,113.0,84.0,-61.0
128.0,128.0,125.0,129.0,127.0,128.0,127.0,128.0,23.0,-104.0,-75.0,127.0,127.0,127.0,113.0,84.0,-61.0
128.0,128.0,126.0,129.0,127.0,128.0,127.0,128.0,23.0,-104.0,-75.0,127.0,127.0,127.0,113.0,84.0,-61.0
128.0,128.0,126.0,129.0,127.0,127.0,127.0,128.0,23.0,-104.0,-75.0,127.0,127.0,127.0,113.0,84.0,-61.0
128.0,128.0,126.0,129.0,127.0,127.0,127.0,128.0,23.0,-104.0,-75.0,127.0,127.0,127.0,113.0,84.0,-61.0
128.0,128.0,126.0,129.0,127.0,127.0,127.0,128.0,23.0,-104.0,-75.0,127.0,127.0,127.0,113.0,84.0,-61.0
128.0,128.0,126.0,129.0,127.0,127.0,127.0,128.0,23.0,-104.0,-75.0,127.0,127.0,127.0,113.0,84.0,-61.0
128.0,128.0,126.0,129.0,127.0,128.0,127.0,128.0,23.0,-104.0,-75.0,127.0,127.0,127.0,113.0,84.0,-61.0
128.0,128.0,126.0,129.0,127.0,128.0,126.0,128.0,24.0,-103.0,-75.0,127.0,127.0,127.0,113.0,84.0,-61.0
128.0,128.0,126.0,129.0,127.0,128.0,126.0,128.0,24.0,-103.0,-75.0,127.0,127.0,127.0,113.0,84.0,-61.0
128.0,128.0,126.0,129.0,127.0,128.0,126.0,128.0,24.0,-103.0,-75.0,127.0,127.0,127.0,113.0,84.0,-61.0
128.0,128.0,126.0,129.0,127.0,128.0,126.0,128.0,24.0,-103.0,-75.0,127.0,127.0,127.0,113.0,84.0,-61.0
128.0,128.0,126.0,129.0,127.0,127.0,126.0,128.0,24.0,-103.0,-75.0,127.0,127.0,127.0,113.0,84.0,-61.0
128.0,128.0,126.0,129.0,127.0,127.0,126.0,128.0,24.0,-103.0,-75.0,127.0,127.0,127.0,113.0,84.0,-61.0
128.0,128.0,126.0,129.0,127.0,127.0,126.0,128.0,24.0,-103.0,-75.0,127.0,127.0,127.0,113.0,84.0,-61.0
128.0,128.0,126.0,129.0,127.0,127.0,126.0,128.0,24.0,-103.0,-75.0,127.0,127.0,127.0,113.0,84.0,-61.0
128.0,128.0,126.0,129.0,127.0,128.0,126.0,128.0,24.0,-103.0,-75.0,127.0,127.0,127.0,113.0,84.0,-61.0
128.0,128.0,126.0,129.0,127.0,128.0,126.0,128.0,24.0,-103.0,-75.0,127.0,127.0,127.0,113.0,84.0,-61.0
129.0,128.0,127.0,128.0,127.0,126.0,127.0,128.0,24.0,-103.0,-74.0,127.0,127.0,127.0,113.0,84.0,-61.0
129.0,128.0,127.0,128.0,127.0,126.0,127.0,128.0,24.0,-103.0,-74.0,127.0,127.0,127.0,113.0,84.0,-61.0
129.0,128.0,127.0,128.0,127.0,126.0,127.0,128.0,24.0,-103.0,-74.0,127.0,127.0,127.0,113.0,84.0,-61.0
129.0,127.0,127.0,128.0,127.0,124.0,127.0,128.0,24.0,-103.0,-74.0,127.0,127.0,127.0,113.0,84.0,-61.0
129.0,127.0,127.0,128.0,127.0,124.0,127.0,128.0,24.0,-103.0,-74.0,127.0,127.0,127.0,113.0,84.0,-61.0
129.0,127.0,127.0,128.0,127.0,124.0,127.0,128.0,24.0,-103.0,-74.0,127.0,127.0,127.0,113.0,84.0,-61.0
129.0,127.0,126.0,128.0,127.0,124.0,127.0,128.0,24.0,-103.0,-74.0,127.0,127.0,127.0,113.0,84.0,-61.0
129.0,127.0,126.0,128.0,127.0,124.0,127.0,128.0,24.0,-103.0,-74.0,127.0,127.0,127.0,113.0,84.0,-61.0
129.0,127.0,127.0,128.0,127.0,124.0,127.0,128.0,24.0,-103.0,-74.0,127.0,127.0,127.0,113.0,84.0,-61.0
129.0,127.0,127.0,128.0,127.0,124.0,127.0,128.0,24.0,-103.0,-74.0,127.0,127.0,127.0,113.0,84.0,-61.0
129.0,127.0,126.0,128.0,127.0,125.0,127.0,128.0,25.0,-103.0,-74.0,127.0,127.0,127.0,113.0,84.0,-61.0
129.0,127.0,126.0,128.0,127.0,125.0,127.0,128.0,25.0,-103.0,-74.0,127.0,127.0,127.0,113.0,84.0,-61.0
129.0,127.0,126.0,128.0,127.0,125.0,127.0,127.0,25.0,-103.0,-74.0,127.0,127.0,127.0,113.0,84.0,-61.0
129.0,128.0,126.0,128.0,127.0,126.0,127.0,127.0,25.0,-103.0,-74.0,127.0,127.0,127.0,113.0,84.0,-61.0
129.0,128.0,126.0,128.0,127.0,127.0,127.0,128.0,25.0,-103.0,-74.0,127.0,127.0,127.0,113.0,84.0,-61.0
129.0,127.0,126.0,128.0,127.0,126.0,127.0,128.0,25.0,-103.0,-74.0,127.0,127.0,127.0,113.0,84.0,-61.0
129.0,127.0,126.0,128.0,127.0,126.0,127.0,128.0,25.0,-103.0,-74.0,127.0,127.0,127.0,113.0,84.0,-61.0
129.0,127.0,126.0,128.0,127.0,126.0,127.0,128.0,25.0,-103.0,-74.0,127.0,127.0,127.0,113.0,84.0,-61.0
129.0,127.0,126.0,128.0,127.0,126.0,127.0,128.0,25.0,-103.0,-74.0,127.0,127.0,127.0,113.0,84.0,-61.0
129.0,127.0,126.0,128.0,127.0,126.0,127.0,128.0,25.0,-103.0,-74.0,127.0,127.0,127.0,113.0,84.0,-61.0
129.0,126.0,122.0,127.0,126.0,124.0,127.0,128.0,25.0,-104.0,-74.0,127.0,127.0,127.0,113.0,84.0,-61.0
129.0,126.0,123.0,128.0,126.0,124.0,127.0,128.0,25.0,-104.0,-74.0,127.0,127.0,127.0,113.0,84.0,-61.0
129.0,127.0,123.0,128.0,127.0,125.0,127.0,128.0,25.0,-104.0,-74.0,127.0,127.0,127.0,113.0,84.0,-61.0
129.0,127.0,122.0,127.0,127.0,126.0,127.0,128.0,25.0,-104.0,-74.0,127.0,127.0,127.0,113.0,84.0,-61.0
129.0,127.0,122.0,128.0,127.0,126.0,127.0,128.0,25.0,-104.0,-74.0,127.0,127.0,127.0,113.0,84.0,-61.0
129.0,127.0,123.0,128.0,127.0,125.0,127.0,128.0,25.0,-104.0,-74.0,127.0,127.0,127.0,113.0,84.0,-61.0
129.0,127.0,122.0,128.0,127.0,125.0,127.0,128.0,25.0,-104.0,-74.0,127.0,127.0,127.0,113.0,84.0,-61.0
129.0,127.0,123.0,127.0,127.0,125.0,127.0,128.0,25.0,-104.0,-74.0,127.0,127.0,127.0,113.0,84.0,-61.0
129.0,126.0,122.0,127.0,127.0,125.0,127.0,128.0,25.0,-104.0,-74.0,127.0,127.0,127.0,113.0,84.0,-61.0
129.0,126.0,122.0,127.0,127.0,124.0,127.0,128.0,25.0,-104.0,-74.0,127.0,127.0,127.0,113.0,84.0,-61.0
128.0,126.0,113.0,127.0,126.0,124.0,128.0,127.0,25.0,-104.0,-73.0,127.0,127.0,127.0,113.0,84.0,-61.0
128.0,126.0,113.0,128.0,126.0,125.0,127.0,128.0,25.0,-104.0,-73.0,127.0,127.0,127.0,113.0,84.0,-61.0
128.0,127.0,113.0,128.0,127.0,126.0,128.0,128.0,25.0,-104.0,-73.0,127.0,127.0,127.0,113.0,84.0,-61.0
128.0,127.0,114.0,128.0,127.0,126.0,128.0,128.0,25.0,-104.0,-73.0,127.0,127.0,127.0,113.0,84.0,-61.0
128.0,127.0,113.0,129.0,127.0,125.0,128.0,128.0,25.0,-104.0,-73.0,127.0,127.0,127.0,113.0,84.0,-61.0
128.0,127.0,113.0,129.0,127.0,125.0,128.0,127.0,25.0,-104.0,-73.0,127.0,127.0,127.0,113.0,84.0,-61.0
128.0,127.0,113.0,129.0,127.0,125.0,128.0,127.0,25.0,-104.0,-73.0,127.0,127.0,127.0,113.0,84.0,-61.0
128.0,127.0,113.0,129.0,127.0,125.0,128.0,127.0,25.0,-104.0,-73.0,127.0,127.0,127.0,113.0,84.0,-61.0
128.0,127.0,113.0,130.0,127.0,124.0,128.0,127.0,25.0,-104.0,-73.0,127.0,127.0,127.0,113.0,84.0,-61.0
128.0,127.0,113.0,130.0,127.0,124.0,128.0,127.0,25.0,-104.0,-73.0,127.0,127.0,127.0,113.0,84.0,-61.0
127.0,125.0,100.0,129.0,128.0,122.0,129.0,128.0,26.0,-104.0,-73.0,127.0,127.0,127.0,113.0,84.0,-61.0
127.0,126.0,100.0,130.0,128.0,123.0,130.0,128.0,26.0,-104.0,-73.0,127.0,127.0,127.0,113.0,84.0,-61.0
127.0,126.0,100.0,131.0,128.0,123.0,130.0,128.0,26.0,-104.0,-73.0,127.0,127.0,127.0,113.0,84.0,-61.0
127.0,126.0,101.0,131.0,128.0,123.0,130.0,128.0,26.0,-104.0,-73.0,127.0,127.0,127.0,113.0,84.0,-61.0
127.0,125.0,101.0,132.0,128.0,122.0,130.0,128.0,26.0,-104.0,-73.0,127.0,127.0,127.0,113.0,84.0,-61.0
127.0,125.0,100.0,132.0,128.0,122.0,130.0,128.0,26.0,-104.0,-73.0,127.0,127.0,127.0,113.0,84.0,-61.0
126.0,125.0,99.0,133.0,128.0,122.0,130.0,127.0,26.0,-104.0,-73.0,127.0,127.0,127.0,113.0,84.0,-61.0
126.0,124.0,98.0,133.0,128.0,121.0,130.0,127.0,26.0,-104.0,-73.0,127.0,127.0,127.0,113.0,84.0,-61.0
127.0,124.0,99.0,129.0,128.0,121.0,130.0,128.0,26.0,-104.0,-73.0,127.0,127.0,127.0,113.0,84.0,-61.0
127.0,125.0,100.0,129.0,128.0,121.0,130.0,127.0,26.0,-104.0,-73.0,127.0,127.0,127.0,113.0,84.0,-61.0
119.0,116.0,23.0,152.0,132.0,118.0,133.0,127.0,26.0,-104.0,-73.0,127.0,127.0,127.0,113.0,84.0,-61.0
119.0,117.0,22.0,153.0,133.0,118.0,133.0,127.0,26.0,-104.0,-73.0,127.0,127.0,127.0,113.0,84.0,-61.0
119.0,117.0,20.0,154.0,133.0,119.0,133.0,127.0,26.0,-104.0,-73.0,127.0,127.0,127.0,113.0,84.0,-61.0
119.0,118.0,17.0,155.0,133.0,119.0,133.0,127.0,26.0,-104.0,-73.0,127.0,127.0,127.0,113.0,84.0,-61.0
119.0,119.0,14.0,156.0,134.0,120.0,133.0,127.0,26.0,-104.0,-73.0,127.0,127.0,127.0,113.0,84.0,-61.0
119.0,119.0,11.0,156.0,134.0,120.0,133.0,127.0,26.0,-104.0,-73.0,127.0,127.0,127.0,113.0,84.0,-61.0
119.0,120.0,8.0,157.0,134.0,120.0,132.0,126.0,26.0,-104.0,-73.0,127.0,127.0,127.0,113.0,84.0,-61.0
120.0,115.0,30.0,150.0,130.0,117.0,133.0,127.0,26.0,-104.0,-73.0,127.0,127.0,127.0,113.0,84.0,-61.0
119.0,115.0,27.0,151.0,131.0,116.0,133.0,127.0,26.0,-104.0,-73.0,127.0,127.0,127.0,113.0,84.0,-61.0
119.0,116.0,25.0,151.0,131.0,117.0,133.0,127.0,26.0,-104.0,-73.0,127.0,127.0,127.0,113.0,84.0,-61.0
111.0,121.0,0.0,187.0,140.0,76.0,136.0,124.0,27.0,-104.0,-73.0,127.0,127.0,127.0,113.0,84.0,-61.0
110.0,121.0,0.0,187.0,140.0,74.0,136.0,123.0,27.0,-104.0,-73.0,127.0,127.0,127.0,113.0,84.0,-61.0
110.0,121.0,0.0,188.0,140.0,72.0,136.0,123.0,27.0,-104.0,-73.0,127.0,127.0,127.0,113.0,84.0,-61.0
110.0,121.0,0.0,188.0,139.0,70.0,136.0,123.0,27.0,-104.0,-73.0,127.0,127.0,127.0,113.0,84.0,-61.0
109.0,120.0,0.0,189.0,140.0,68.0,136.0,123.0,27.0,-104.0,-73.0,127.0,127.0,127.0,113.0,84.0,-61.0
109.0,120.0,0.0,189.0,140.0,66.0,136.0,123.0,27.0,-104.0,-73.0,127.0,127.0,127.0,113.0,84.0,-61.0
112.0,121.0,0.0,184.0,140.0,82.0,136.0,124.0,27.0,-104.0,-73.0,127.0,127.0,127.0,113.0,84.0,-61.0
112.0,121.0,0.0,185.0,140.0,80.0,136.0,124.0,27.0,-104.0,-73.0,127.0,127.0,127.0,113.0,84.0,-61.0
111.0,121.0,0.0,185.0,140.0,79.0,136.0,124.0,27.0,-104.0,-73.0,127.0,127.0,127.0,113.0,84.0,-61.0
111.0,121.0,0.0,186.0,140.0,78.0,136.0,124.0,27.0,-104.0,-73.0,127.0,127.0,127.0,113.0,84.0,-61.0
102.0,124.0,0.0,213.0,153.0,0.0,145.0,123.0,27.0,-103.0,-73.0,127.0,127.0,127.0,113.0,84.0,-61.0
102.0,125.0,0.0,214.0,153.0,0.0,146.0,123.0,27.0,-103.0,-73.0,127.0,127.0,127.0,113.0,84.0,-61.0
102.0,125.0,0.0,215.0,153.0,0.0,146.0,123.0,27.0,-103.0,-73.0,127.0,127.0,127.0,113.0,84.0,-61.0
102.0,126.0,0.0,215.0,152.0,0.0,146.0,122.0,27.0,-103.0,-73.0,127.0,127.0,127.0,113.0,84.0,-61.0
102.0,126.0,0.0,216.0,152.0,0.0,146.0,122.0,27.0,-103.0,-73.0,127.0,127.0,127.0,113.0,84.0,-61.0
103.0,123.0,0.0,209.0,151.0,0.0,144.0,123.0,27.0,-103.0,-73.0,127.0,127.0,127.0,113.0,84.0,-61.0
103.0,123.0,0.0,210.0,152.0,0.0,145.0,123.0,27.0,-103.0,-73.0,127.0,127.0,127.0,113.0,84.0,-61.0
102.0,123.0,0.0,211.0,152.0,0.0,145.0,123.0,27.0,-103.0,-73.0,127.0,127.0,127.0,113.0,84.0,-61.0
103.0,124.0,0.0,211.0,153.0,0.0,145.0,123.0,27.0,-103.0,-73.0,127.0,127.0,127.0,113.0,84.0,-61.0
102.0,124.0,0.0,212.0,153.0,0.0,145.0,123.0,27.0,-103.0,-73.0,127.0,127.0,127.0,113.0,84.0,-61.0
80.0,118.0,0.0,236.0,158.0,0.0,155.0,119.0,27.0,-102.0,-73.0,127.0,127.0,-128.0,113.0,85.0,-60.0
79.0,119.0,0.0,237.0,159.0,0.0,155.0,119.0,27.0,-102.0,-73.0,127.0,127.0,-128.0,113.0,85.0,-60.0
78.0,119.0,0.0,237.0,159.0,0.0,154.0,119.0,27.0,-102.0,-73.0,127.0,127.0,-128.0,113.0,85.0,-60.0
78.0,119.0,0.0,238.0,159.0,0.0,154.0,119.0,27.0,-102.0,-73.0,127.0,127.0,-128.0,113.0,85.0,-60.0
84.0,116.0,0.0,231.0,157.0,0.0,159.0,119.0,27.0,-102.0,-73.0,127.0,127.0,-128.0,113.0,85.0,-60.0
83.0,115.0,0.0,232.0,157.0,0.0,159.0,119.0,27.0,-102.0,-73.0,127.0,127.0,-128.0,113.0,85.0,-60.0
82.0,115.0,0.0,232.0,157.0,0.0,158.0,119.0,27.0,-102.0,-73.0,127.0,127.0,-128.0,113.0,85.0,-60.0
82.0,115.0,0.0,233.0,157.0,0.0,158.0,119.0,27.0,-102.0,-73.0,127.0,127.0,-128.0,113.0,85.0,-60.0
81.0,116.0,0.0,234.0,158.0,0.0,157.0,119.0,27.0,-102.0,-73.0,127.0,127.0,-128.0,113.0,85.0,-60.0
80.0,117.0,0.0,235.0,158.0,0.0,156.0,119.0,27.0,-102.0,-73.0,127.0,127.0,-128.0,113.0,85.0,-60.0
50.0,113.0,0.0,254.0,192.0,0.0,108.0,121.0,27.0,-101.0,-74.0,126.0,127.0,-128.0,113.0,85.0,-60.0
50.0,113.0,0.0,254.0,193.0,0.0,108.0,122.0,27.0,-101.0,-74.0,126.0,127.0,-128.0,113.0,85.0,-60.0
50.0,113.0,0.0,254.0,195.0,0.0,109.0,122.0,27.0,-101.0,-74.0,126.0,127.0,-128.0,113.0,85.0,-60.0
53.0,112.0,0.0,254.0,183.0,0.0,109.0,120.0,27.0,-101.0,-74.0,126.0,127.0,-128.0,113.0,85.0,-60.0
53.0,112.0,0.0,254.0,185.0,0.0,108.0,120.0,27.0,-101.0,-74.0,126.0,127.0,-128.0,113.0,85.0,-60.0
52.0,113.0,0.0,254.0,186.0,0.0,108.0,120.0,27.0,-101.0,-74.0,126.0,127.0,-128.0,113.0,85.0,-60.0
52.0,113.0,0.0,254.0,187.0,0.0,108.0,121.0,27.0,-101.0,-74.0,126.0,127.0,-128.0,113.0,85.0,-60.0
51.0,113.0,0.0,254.0,188.0,0.0,108.0,121.0,27.0,-101.0,-74.0,126.0,127.0,-128.0,113.0,85.0,-60.0
51.0,113.0,0.0,254.0,189.0,0.0,108.0,121.0,27.0,-101.0,-74.0,126.0,127.0,-128.0,113.0,85.0,-60.0
51.0,113.0,0.0,254.0,191.0,0.0,108.0,121.0,27.0,-101.0,-74.0,126.0,127.0,-128.0,113.0,85.0,-60.0
60.0,140.0,0.0,254.0,241.0,254.0,155.0,128.0,25.0,-99.0,-76.0,125.0,127.0,-128.0,112.0,85.0,-60.0
60.0,140.0,0.0,254.0,241.0,254.0,155.0,128.0,25.0,-99.0,-76.0,125.0,127.0,-128.0,112.0,85.0,-60.0
55.0,142.0,0.0,254.0,241.0,249.0,154.0,128.0,25.0,-99.0,-76.0,125.0,127.0,-128.0,112.0,85.0,-60.0
55.0,143.0,0.0,254.0,241.0,254.0,154.0,128.0,25.0,-99.0,-76.0,125.0,127.0,-128.0,112.0,85.0,-60.0
56.0,143.0,0.0,254.0,241.0,254.0,154.0,128.0,25.0,-99.0,-76.0,125.0,127.0,-128.0,112.0,85.0,-60.0
57.0,143.0,0.0,254.0,241.0,254.0,154.0,128.0,25.0,-99.0,-76.0,125.0,127.0,-128.0,112.0,85.0,-60.0
57.0,142.0,0.0,254.0,241.0,254.0,155.0,128.0,25.0,-99.0,-76.0,125.0,127.0,-128.0,112.0,85.0,-60.0
58.0,142.0,0.0,254.0,241.0,254.0,155.0,128.0,25.0,-99.0,-76.0,125.0,127.0,-128.0,112.0,85.0,-60.0
59.0,141.0,0.0,254.0,241.0,254.0,155.0,128.0,25.0,-99.0,-76.0,125.0,127.0,-128.0,112.0,85.0,-60.0
59.0,140.0,0.0,254.0,241.0,254.0,155.0,128.0,25.0,-99.0,-76.0,125.0,127.0,-128.0,112.0,85.0,-60.0
77.0,208.0,254.0,254.0,215.0,254.0,145.0,123.0,25.0,-98.0,-76.0,124.0,127.0,-128.0,112.0,85.0,-59.0
76.0,191.0,254.0,254.0,221.0,254.0,145.0,124.0,25.0,-98.0,-76.0,124.0,127.0,-128.0,112.0,85.0,-59.0
76.0,193.0,254.0,254.0,221.0,254.0,146.0,124.0,25.0,-98.0,-76.0,124.0,127.0,-128.0,112.0,85.0,-59.0
77.0,195.0,254.0,254.0,220.0,254.0,146.0,124.0,25.0,-98.0,-76.0,124.0,127.0,-128.0,112.0,85.0,-59.0
77.0,197.0,254.0,254.0,220.0,254.0,146.0,124.0,25.0,-98.0,-76.0,124.0,127.0,-128.0,112.0,85.0,-59.0
77.0,199.0,254.0,254.0,220.0,254.0,146.0,124.0,25.0,-98.0,-76.0,124.0,127.0,-128.0,112.0,85.0,-59.0
77.0,202.0,254.0,254.0,219.0,254.0,146.0,124.0,25.0,-98.0,-76.0,124.0,127.0,-128.0,112.0,85.0,-59.0
77.0,204.0,254.0,254.0,218.0,254.0,146.0,124.0,25.0,-98.0,-76.0,124.0,127.0,-128.0,112.0,85.0,-59.0
77.0,206.0,254.0,254.0,217.0,254.0,145.0,123.0,25.0,-98.0,-76.0,124.0,127.0,-128.0,112.0,85.0,-59.0
77.0,207.0,254.0,254.0,216.0,254.0,145.0,123.0,25.0,-98.0,-76.0,124.0,127.0,-128.0,112.0,85.0,-59.0
64.0,189.0,254.0,254.0,157.0,254.0,107.0,119.0,26.0,-99.0,-75.0,123.0,127.0,-128.0,112.0,85.0,-59.0
65.0,190.0,254.0,254.0,156.0,254.0,106.0,119.0,26.0,-99.0,-75.0,123.0,127.0,-128.0,112.0,85.0,-59.0
65.0,189.0,254.0,254.0,154.0,254.0,104.0,119.0,26.0,-99.0,-75.0,123.0,127.0,-128.0,112.0,85.0,-59.0
65.0,189.0,254.0,254.0,152.0,254.0,103.0,119.0,26.0,-99.0,-75.0,123.0,127.0,-128.0,112.0,85.0,-59.0
65.0,189.0,254.0,254.0,150.0,254.0,101.0,119.0,26.0,-99.0,-75.0,123.0,127.0,-128.0,112.0,85.0,-59.0
65.0,188.0,254.0,254.0,148.0,254.0,100.0,119.0,26.0,-99.0,-75.0,123.0,127.0,-128.0,112.0,85.0,-59.0
65.0,188.0,254.0,254.0,145.0,254.0,98.0,119.0,26.0,-99.0,-75.0,123.0,127.0,-128.0,112.0,85.0,-59.0
65.0,187.0,254.0,254.0,143.0,254.0,97.0,118.0,26.0,-99.0,-75.0,123.0,127.0,-128.0,112.0,85.0,-59.0
66.0,186.0,254.0,254.0,141.0,254.0,96.0,118.0,26.0,-99.0,-75.0,123.0,127.0,-128.0,112.0,85.0,-59.0
66.0,185.0,254.0,254.0,139.0,254.0,95.0,118.0,26.0,-99.0,-75.0,123.0,127.0,-128.0,112.0,85.0,-59.0
74.0,106.0,208.0,254.0,82.0,254.0,67.0,117.0,25.0,-100.0,-74.0,122.0,127.0,-128.0,112.0,85.0,-59.0
74.0,104.0,206.0,254.0,81.0,254.0,68.0,117.0,25.0,-100.0,-74.0,122.0,127.0,-128.0,112.0,85.0,-59.0
74.0,102.0,204.0,254.0,80.0,254.0,69.0,117.0,25.0,-100.0,-74.0,122.0,127.0,-128.0,112.0,85.0,-59.0
74.0,100.0,202.0,254.0,80.0,254.0,69.0,117.0,25.0,-100.0,-74.0,122.0,127.0,-128.0,112.0,85.0,-59.0
74.0,98.0,200.0,254.0,80.0,254.0,70.0,117.0,25.0,-100.0,-74.0,122.0,127.0,-128.0,112.0,85.0,-59.0
74.0,96.0,198.0,254.0,80.0,254.0,70.0,117.0,25.0,-100.0,-74.0,122.0,127.0,-128.0,112.0,85.0,-59.0
74.0,94.0,196.0,254.0,79.0,254.0,71.0,117.0,25.0,-100.0,-74.0,122.0,127.0,-128.0,112.0,85.0,-59.0
74.0,93.0,194.0,254.0,79.0,254.0,72.0,117.0,25.0,-100.0,-74.0,122.0,127.0,-128.0,112.0,85.0,-59.0
74.0,91.0,192.0,254.0,79.0,254.0,72.0,117.0,25.0,-100.0,-74.0,122.0,127.0,-128.0,112.0,85.0,-59.0
74.0,108.0,210.0,254.0,82.0,254.0,67.0,117.0,25.0,-100.0,-74.0,122.0,127.0,-128.0,112.0,85.0,-59.0
94.0,77.0,181.0,254.0,66.0,254.0,109.0,122.0,25.0,-101.0,-72.0,121.0,127.0,-128.0,112.0,85.0,-59.0
95.0,78.0,181.0,254.0,67.0,254.0,110.0,122.0,25.0,-101.0,-72.0,121.0,127.0,-128.0,112.0,85.0,-59.0
96.0,79.0,182.0,254.0,67.0,254.0,111.0,122.0,25.0,-101.0,-72.0,121.0,127.0,-128.0,112.0,85.0,-59.0
97.0,80.0,183.0,254.0,67.0,254.0,113.0,122.0,25.0,-101.0,-72.0,121.0,127.0,-128.0,112.0,85.0,-59.0
98.0,81.0,184.0,254.0,67.0,254.0,114.0,122.0,25.0,-101.0,-72.0,121.0,127.0,-128.0,112.0,85.0,-59.0
99.0,82.0,186.0,254.0,67.0,254.0,115.0,123.0,25.0,-101.0,-72.0,121.0,127.0,-128.0,112.0,85.0,-59.0
100.0,83.0,188.0,254.0,67.0,254.0,117.0,123.0,25.0,-101.0,-72.0,121.0,127.0,-128.0,112.0,85.0,-59.0
101.0,84.0,190.0,254.0,67.0,254.0,118.0,123.0,25.0,-101.0,-72.0,121.0,127.0,-128.0,112.0,85.0,-59.0
92.0,75.0,180.0,254.0,67.0,254.0,107.0,122.0,25.0,-101.0,-72.0,121.0,127.0,-128.0,112.0,85.0,-59.0
93.0,76.0,180.0,254.0,67.0,254.0,108.0,122.0,25.0,-101.0,-72.0,121.0,127.0,-128.0,112.0,85.0,-59.0
128.0,166.0,254.0,254.0,83.0,254.0,167.0,130.0,25.0,-104.0,-71.0,122.0,127.0,-128.0,112.0,85.0,-59.0
129.0,167.0,254.0,254.0,83.0,254.0,167.0,130.0,25.0,-104.0,-71.0,122.0,127.0,-128.0,112.0,85.0,-59.0
129.0,168.0,254.0,254.0,83.0,254.0,167.0,130.0,25.0,-104.0,-71.0,122.0,127.0,-128.0,112.0,85.0,-59.0
129.0,169.0,254.0,254.0,83.0,254.0,167.0,129.0,25.0,-104.0,-71.0,122.0,127.0,-128.0,112.0,85.0,-59.0
129.0,170.0,254.0,254.0,83.0,254.0,167.0,129.0,25.0,-104.0,-71.0,122.0,127.0,-128.0,112.0,85.0,-59.0
129.0,171.0,253.0,254.0,83.0,254.0,167.0,129.0,25.0,-104.0,-71.0,122.0,127.0,-128.0,112.0,85.0,-59.0
129.0,172.0,253.0,254.0,83.0,254.0,167.0,129.0,25.0,-104.0,-71.0,122.0,127.0,-128.0,112.0,85.0,-59.0
128.0,162.0,254.0,254.0,83.0,254.0,166.0,129.0,25.0,-104.0,-71.0,122.0,127.0,-128.0,112.0,85.0,-59.0
128.0,164.0,254.0,254.0,83.0,254.0,167.0,130.0,25.0,-104.0,-71.0,122.0,127.0,-128.0,112.0,85.0,-59.0
128.0,165.0,254.0,254.0,83.0,254.0,167.0,130.0,25.0,-104.0,-71.0,122.0,127.0,-128.0,112.0,85.0,-59.0
126.0,183.0,253.0,254.0,78.0,254.0,130.0,127.0,27.0,-107.0,-71.0,123.0,127.0,127.0,112.0,85.0,-59.0
126.0,182.0,253.0,254.0,78.0,254.0,128.0,127.0,27.0,-107.0,-71.0,123.0,127.0,127.0,112.0,85.0,-59.0
126.0,181.0,253.0,254.0,78.0,254.0,127.0,127.0,27.0,-107.0,-71.0,123.0,127.0,127.0,112.0,85.0,-59.0
126.0,180.0,253.0,254.0,79.0,254.0,125.0,127.0,27.0,-107.0,-71.0,123.0,127.0,127.0,112.0,85.0,-59.0
126.0,179.0,253.0,254.0,78.0,254.0,123.0,127.0,27.0,-107.0,-71.0,123.0,127.0,127.0,112.0,85.0,-59.0
126.0,178.0,253.0,254.0,78.0,254.0,121.0,127.0,27.0,-107.0,-71.0,123.0,127.0,127.0,112.0,85.0,-59.0
127.0,187.0,251.0,254.0,79.0,254.0,136.0,127.0,27.0,-107.0,-71.0,123.0,127.0,127.0,112.0,85.0,-59.0
127.0,187.0,251.0,254.0,79.0,254.0,134.0,127.0,27.0,-107.0,-71.0,123.0,127.0,127.0,112.0,85.0,-59.0
126.0,186.0,251.0,254.0,79.0,254.0,133.0,127.0,27.0,-107.0,-71.0,123.0,127.0,127.0,112.0,85.0,-59.0
126.0,185.0,252.0,254.0,78.0,254.0,131.0,127.0,27.0,-107.0,-71.0,123.0,127.0,127.0,112.0,85.0,-59.0
119.0,109.0,190.0,240.0,83.0,254.0,80.0,123.0,26.0,-108.0,-72.0,123.0,127.0,127.0,112.0,85.0,-59.0
119.0,108.0,188.0,238.0,83.0,254.0,80.0,123.0,26.0,-108.0,-72.0,123.0,127.0,127.0,112.0,85.0,-59.0
119.0,107.0,186.0,236.0,84.0,254.0,81.0,123.0,26.0,-108.0,-72.0,123.0,127.0,127.0,112.0,85.0,-59.0
119.0,107.0,184.0,233.0,84.0,254.0,81.0,123.0,26.0,-108.0,-72.0,123.0,127.0,127.0,112.0,85.0,-59.0
119.0,106.0,183.0,230.0,85.0,254.0,81.0,123.0,26.0,-108.0,-72.0,123.0,127.0,127.0,112.0,85.0,-59.0
120.0,112.0,200.0,250.0,81.0,254.0,79.0,123.0,26.0,-108.0,-72.0,123.0,127.0,127.0,112.0,85.0,-59.0
120.0,111.0,198.0,248.0,82.0,254.0,80.0,123.0,26.0,-108.0,-72.0,123.0,127.0,127.0,112.0,85.0,-59.0
120.0,110.0,197.0,246.0,82.0,254.0,80.0,123.0,26.0,-108.0,-72.0,123.0,127.0,127.0,112.0,85.0,-59.0
120.0,109.0,195.0,245.0,82.0,254.0,80.0,123.0,26.0,-108.0,-72.0,123.0,127.0,127.0,112.0,85.0,-59.0
120.0,109.0,192.0,242.0,83.0,254.0,80.0,123.0,26.0,-108.0,-72.0,123.0,127.0,127.0,112.0,85.0,-59.0
120.0,95.0,148.0,130.0,94.0,254.0,112.0,125.0,25.0,-108.0,-72.0,124.0,127.0,127.0,112.0,85.0,-59.0
120.0,95.0,147.0,128.0,95.0,254.0,113.0,125.0,25.0,-108.0,-72.0,124.0,127.0,127.0,112.0,85.0,-59.0
120.0,95.0,147.0,127.0,95.0,254.0,113.0,125.0,25.0,-108.0,-72.0,124.0,127.0,127.0,112.0,85.0,-59.0
121.0,95.0,147.0,126.0,95.0,254.0,114.0,125.0,25.0,-108.0,-72.0,124.0,127.0,127.0,112.0,85.0,-59.0
120.0,93.0,152.0,138.0,93.0,254.0,108.0,124.0,25.0,-108.0,-72.0,124.0,127.0,127.0,112.0,85.0,-59.0
120.0,93.0,151.0,137.0,93.0,254.0,108.0,125.0,25.0,-108.0,-72.0,124.0,127.0,127.0,112.0,85.0,-59.0
120.0,93.0,150.0,136.0,94.0,254.0,109.0,125.0,25.0,-108.0,-72.0,124.0,127.0,127.0,112.0,85.0,-59.0
120.0,94.0,150.0,135.0,94.0,254.0,110.0,125.0,25.0,-108.0,-72.0,124.0,127.0,127.0,112.0,85.0,-59.0
120.0,94.0,149.0,133.0,94.0,254.0,110.0,125.0,25.0,-108.0,-72.0,124.0,127.0,127.0,112.0,85.0,-59.0
120.0,94.0,148.0,132.0,94.0,254.0,111.0,125.0,25.0,-108.0,-72.0,124.0,127.0,127.0,112.0,85.0,-59.0
124.0,110.0,130.0,101.0,104.0,254.0,134.0,127.0,24.0,-110.0,-72.0,124.0,127.0,127.0,113.0,85.0,-59.0
124.0,110.0,131.0,101.0,104.0,254.0,135.0,127.0,24.0,-110.0,-72.0,124.0,127.0,127.0,113.0,85.0,-59.0
124.0,110.0,131.0,101.0,104.0,254.0,135.0,127.0,24.0,-110.0,-72.0,124.0,127.0,127.0,113.0,85.0,-59.0
124.0,108.0,133.0,103.0,103.0,254.0,132.0,127.0,24.0,-110.0,-72.0,124.0,127.0,127.0,113.0,85.0,-59.0
124.0,108.0,132.0,103.0,103.0,254.0,132.0,127.0,24.0,-110.0,-72.0,124.0,127.0,127.0,113.0,85.0,-59.0
124.0,109.0,132.0,102.0,103.0,254.0,133.0,127.0,24.0,-110.0,-72.0,124.0,127.0,127.0,113.0,85.0,-59.0
124.0,109.0,131.0,102.0,103.0,254.0,133.0,127.0,24.0,-110.0,-72.0,124.0,127.0,127.0,113.0,85.0,-59.0
124.0,109.0,131.0,102.0,104.0,254.0,133.0,127.0,24.0,-110.0,-72.0,124.0,127.0,127.0,113.0,85.0,-59.0
124.0,110.0,130.0,102.0,104.0,254.0,133.0,127.0,24.0,-110.0,-72.0,124.0,127.0,127.0,113.0,85.0,-59.0
124.0,110.0,130.0,101.0,104.0,254.0,134.0,127.0,24.0,-110.0,-72.0,124.0,127.0,127.0,113.0,85.0,-59.0
124.0,120.0,143.0,118.0,112.0,254.0,135.0,127.0,25.0,-112.0,-72.0,125.0,127.0,127.0,113.0,85.0,-59.0
124.0,120.0,142.0,119.0,112.0,254.0,135.0,127.0,25.0,-112.0,-72.0,125.0,127.0,127.0,113.0,85.0,-59.0
124.0,122.0,145.0,114.0,110.0,254.0,136.0,127.0,25.0,-112.0,-72.0,125.0,127.0,127.0,113.0,85.0,-59.0
124.0,122.0,145.0,114.0,110.0,254.0,136.0,127.0,25.0,-112.0,-72.0,125.0,127.0,127.0,113.0,85.0,-59.0
124.0,121.0,144.0,115.0,111.0,254.0,136.0,127.0,25.0,-112.0,-72.0,125.0,127.0,127.0,113.0,85.0,-59.0
124.0,121.0,144.0,115.0,111.0,254.0,135.0,127.0,25.0,-112.0,-72.0,125.0,127.0,127.0,113.0,85.0,-59.0
124.0,121.0,143.0,116.0,111.0,254.0,135.0,127.0,25.0,-112.0,-72.0,125.0,127.0,127.0,113.0,85.0,-59.0
124.0,121.0,143.0,116.0,111.0,254.0,135.0,127.0,25.0,-112.0,-72.0,125.0,127.0,127.0,113.0,85.0,-59.0
124.0,120.0,143.0,117.0,112.0,254.0,135.0,127.0,25.0,-112.0,-72.0,125.0,127.0,127.0,113.0,85.0,-59.0
124.0,120.0,143.0,117.0,112.0,254.0,135.0,127.0,25.0,-112.0,-72.0,125.0,127.0,127.0,113.0,85.0,-59.0
124.0,105.0,117.0,121.0,117.0,254.0,126.0,126.0,25.0,-113.0,-71.0,125.0,127.0,127.0,114.0,85.0,-59.0
124.0,108.0,123.0,125.0,117.0,254.0,127.0,126.0,25.0,-113.0,-71.0,125.0,127.0,127.0,114.0,85.0,-59.0
124.0,108.0,122.0,125.0,117.0,254.0,127.0,126.0,25.0,-113.0,-71.0,125.0,127.0,127.0,114.0,85.0,-59.0
124.0,108.0,121.0,125.0,117.0,254.0,127.0,126.0,25.0,-113.0,-71.0,125.0,127.0,127.0,114.0,85.0,-59.0
124.0,108.0,120.0,125.0,117.0,254.0,127.0,126.0,25.0,-113.0,-71.0,125.0,127.0,127.0,114.0,85.0,-59.0
123.0,108.0,119.0,124.0,117.0,254.0,127.0,126.0,25.0,-113.0,-71.0,125.0,127.0,127.0,114.0,85.0,-59.0
123.0,107.0,118.0,124.0,118.0,254.0,126.0,126.0,25.0,-113.0,-71.0,125.0,127.0,127.0,114.0,85.0,-59.0
123.0,107.0,118.0,123.0,117.0,254.0,126.0,126.0,25.0,-113.0,-71.0,125.0,127.0,127.0,114.0,85.0,-59.0
123.0,106.0,118.0,122.0,117.0,254.0,126.0,126.0,25.0,-113.0,-71.0,125.0,127.0,127.0,114.0,85.0,-59.0
124.0,105.0,118.0,121.0,117.0,254.0,127.0,126.0,25.0,-113.0,-71.0,125.0,127.0,127.0,114.0,85.0,-59.0
122.0,98.0,124.0,115.0,117.0,254.0,122.0,125.0,26.0,-113.0,-71.0,125.0,127.0,127.0,115.0,85.0,-59.0
122.0,98.0,124.0,115.0,117.0,254.0,123.0,125.0,26.0,-113.0,-71.0,125.0,127.0,127.0,115.0,85.0,-59.0
122.0,98.0,125.0,115.0,117.0,254.0,123.0,125.0,26.0,-113.0,-71.0,125.0,127.0,127.0,115.0,85.0,-59.0
122.0,98.0,125.0,115.0,117.0,254.0,123.0,126.0,26.0,-113.0,-71.0,125.0,127.0,127.0,115.0,85.0,-59.0
122.0,98.0,125.0,114.0,117.0,254.0,123.0,125.0,26.0,-113.0,-71.0,125.0,127.0,127.0,115.0,85.0,-59.0
122.0,98.0,125.0,115.0,117.0,254.0,123.0,126.0,26.0,-113.0,-71.0,125.0,127.0,127.0,115.0,85.0,-59.0
122.0,98.0,125.0,115.0,117.0,254.0,123.0,126.0,26.0,-113.0,-71.0,125.0,127.0,127.0,115.0,85.0,-59.0
122.0,98.0,125.0,115.0,117.0,254.0,123.0,126.0,26.0,-113.0,-71.0,125.0,127.0,127.0,115.0,85.0,-59.0
122.0,98.0,126.0,115.0,117.0,254.0,123.0,126.0,26.0,-113.0,-71.0,125.0,127.0,127.0,115.0,85.0,-59.0
122.0,98.0,126.0,115.0,117.0,254.0,123.0,126.0,26.0,-113.0,-71.0,125.0,127.0,127.0,115.0,85.0,-59.0
121.0,94.0,114.0,113.0,122.0,254.0,131.0,126.0,26.0,-113.0,-71.0,126.0,127.0,127.0,115.0,85.0,-59.0
121.0,94.0,114.0,113.0,122.0,254.0,131.0,126.0,26.0,-113.0,-71.0,126.0,127.0,127.0,115.0,85.0,-59.0
121.0,94.0,113.0,113.0,123.0,254.0,131.0,126.0,26.0,-113.0,-71.0,126.0,127.0,127.0,115.0,85.0,-59.0
121.0,94.0,112.0,114.0,123.0,254.0,131.0,126.0,26.0,-113.0,-71.0,126.0,127.0,127.0,115.0,85.0,-59.0
121.0,95.0,110.0,114.0,123.0,254.0,131.0,126.0,26.0,-113.0,-71.0,126.0,127.0,127.0,115.0,85.0,-59.0
121.0,95.0,110.0,114.0,123.0,254.0,131.0,126.0,26.0,-113.0,-71.0,126.0,127.0,127.0,115.0,85.0,-59.0
121.0,94.0,109.0,114.0,123.0,254.0,132.0,126.0,26.0,-113.0,-71.0,126.0,127.0,127.0,115.0,85.0,-59.0
121.0,94.0,109.0,114.0,123.0,254.0,132.0,126.0,26.0,-113.0,-71.0,126.0,127.0,127.0,115.0,85.0,-59.0
121.0,94.0,108.0,114.0,123.0,254.0,132.0,126.0,26.0,-113.0,-71.0,126.0,127.0,127.0,115.0,85.0,-59.0
121.0,94.0,115.0,113.0,122.0,254.0,131.0,126.0,26.0,-113.0,-71.0,126.0,127.0,127.0,115.0,85.0,-59.0
122.0,93.0,112.0,114.0,124.0,254.0,135.0,127.0,26.0,-113.0,-70.0,126.0,127.0,127.0,116.0,85.0,-59.0
122.0,94.0,112.0,114.0,124.0,254.0,135.0,127.0,26.0,-113.0,-70.0,126.0,127.0,127.0,116.0,85.0,-59.0
122.0,94.0,112.0,115.0,123.0,254.0,135.0,127.0,26.0,-113.0,-70.0,126.0,127.0,127.0,116.0,85.0,-59.0
122.0,95.0,112.0,115.0,123.0,254.0,135.0,127.0,26.0,-113.0,-70.0,126.0,127.0,127.0,116.0,85.0,-59.0
123.0,95.0,112.0,116.0,123.0,254.0,135.0,127.0,26.0,-113.0,-70.0,126.0,127.0,127.0,116.0,85.0,-59.0
123.0,95.0,112.0,116.0,123.0,254.0,135.0,127.0,26.0,-113.0,-70.0,126.0,127.0,127.0,116.0,85.0,-59.0
122.0,96.0,111.0,116.0,123.0,254.0,135.0,127.0,26.0,-113.0,-70.0,126.0,127.0,127.0,116.0,85.0,-59.0
122.0,97.0,111.0,116.0,124.0,254.0,135.0,127.0,26.0,-113.0,-70.0,126.0,127.0,127.0,116.0,85.0,-59.0
122.0,92.0,111.0,112.0,124.0,254.0,135.0,127.0,26.0,-113.0,-70.0,126.0,127.0,127.0,116.0,85.0,-59.0
122.0,93.0,111.0,113.0,124.0,254.0,135.0,127.0,26.0,-113.0,-70.0,126.0,127.0,127.0,116.0,85.0,-59.0
123.0,104.0,125.0,118.0,128.0,254.0,136.0,128.0,26.0,-114.0,-70.0,126.0,127.0,127.0,116.0,85.0,-59.0
124.0,104.0,126.0,118.0,129.0,254.0,136.0,128.0,26.0,-114.0,-70.0,126.0,127.0,127.0,116.0,85.0,-59.0
124.0,104.0,126.0,119.0,129.0,254.0,136.0,128.0,26.0,-114.0,-70.0,126.0,127.0,127.0,116.0,85.0,-59.0
124.0,104.0,126.0,119.0,129.0,254.0,136.0,128.0,26.0,-114.0,-70.0,126.0,127.0,127.0,116.0,85.0,-59.0
124.0,105.0,125.0,118.0,129.0,254.0,136.0,128.0,26.0,-114.0,-70.0,126.0,127.0,127.0,116.0,85.0,-59.0
124.0,105.0,125.0,118.0,129.0,254.0,136.0,128.0,26.0,-114.0,-70.0,126.0,127.0,127.0,116.0,85.0,-59.0
124.0,105.0,126.0,118.0,128.0,254.0,136.0,128.0,26.0,-114.0,-70.0,126.0,127.0,127.0,116.0,85.0,-59.0
123.0,104.0,124.0,117.0,127.0,254.0,135.0,128.0,26.0,-114.0,-70.0,126.0,127.0,127.0,116.0,85.0,-59.0
123.0,104.0,125.0,117.0,127.0,254.0,136.0,128.0,26.0,-114.0,-70.0,126.0,127.0,127.0,116.0,85.0,-59.0
123.0,104.0,125.0,118.0,128.0,254.0,136.0,128.0,26.0,-114.0,-70.0,126.0,127.0,127.0,116.0,85.0,-59.0
123.0,111.0,129.0,123.0,128.0,254.0,132.0,127.0,25.0,-114.0,-70.0,126.0,127.0,127.0,116.0,85.0,-59.0
123.0,111.0,130.0,124.0,128.0,254.0,133.0,127.0,25.0,-114.0,-70.0,126.0,127.0,127.0,116.0,85.0,-59.0
123.0,111.0,130.0,124.0,128.0,254.0,132.0,127.0,25.0,-114.0,-70.0,126.0,127.0,127.0,116.0,85.0,-59.0
123.0,111.0,130.0,125.0,128.0,254.0,133.0,127.0,25.0,-114.0,-70.0,126.0,127.0,127.0,116.0,85.0,-59.0
123.0,111.0,130.0,125.0,128.0,254.0,133.0,127.0,25.0,-114.0,-70.0,126.0,127.0,127.0,116.0,85.0,-59.0
123.0,111.0,131.0,125.0,128.0,254.0,133.0,127.0,25.0,-114.0,-70.0,126.0,127.0,127.0,116.0,85.0,-59.0
123.0,109.0,130.0,121.0,128.0,254.0,133.0,127.0,25.0,-114.0,-70.0,126.0,127.0,127.0,116.0,85.0,-59.0
123.0,109.0,130.0,121.0,128.0,254.0,133.0,127.0,25.0,-114.0,-70.0,126.0,127.0,127.0,116.0,85.0,-59.0
123.0,110.0,130.0,122.0,128.0,254.0,132.0,127.0,25.0,-114.0,-70.0,126.0,127.0,127.0,116.0,85.0,-59.0
123.0,111.0,129.0,123.0,128.0,254.0,132.0,127.0,25.0,-114.0,-70.0,126.0,127.0,127.0,116.0,85.0,-59.0
124.0,111.0,133.0,128.0,131.0,254.0,137.0,128.0,25.0,-113.0,-70.0,126.0,127.0,127.0,117.0,85.0,-59.0
124.0,111.0,133.0,128.0,131.0,254.0,137.0,128.0,25.0,-113.0,-70.0,126.0,127.0,127.0,117.0,85.0,-59.0
124.0,112.0,133.0,128.0,131.0,254.0,137.0,128.0,25.0,-113.0,-70.0,126.0,127.0,127.0,117.0,85.0,-59.0
124.0,112.0,133.0,129.0,132.0,254.0,137.0,128.0,25.0,-113.0,-70.0,126.0,127.0,127.0,117.0,85.0,-59.0
124.0,112.0,132.0,129.0,132.0,254.0,138.0,128.0,25.0,-113.0,-70.0,126.0,127.0,127.0,117.0,85.0,-59.0
124.0,113.0,134.0,128.0,131.0,254.0,136.0,128.0,25.0,-113.0,-70.0,126.0,127.0,127.0,117.0,85.0,-59.0
124.0,112.0,134.0,128.0,131.0,254.0,136.0,128.0,25.0,-113.0,-70.0,126.0,127.0,127.0,117.0,85.0,-59.0
124.0,112.0,134.0,128.0,131.0,254.0,137.0,128.0,25.0,-113.0,-70.0,126.0,127.0,127.0,117.0,85.0,-59.0
124.0,112.0,134.0,128.0,131.0,254.0,137.0,128.0,25.0,-113.0,-70.0,126.0,127.0,127.0,117.0,85.0,-59.0
124.0,112.0,134.0,128.0,131.0,254.0,137.0,128.0,25.0,-113.0,-70.0,126.0,127.0,127.0,117.0,85.0,-59.0
124.0,115.0,133.0,139.0,131.0,254.0,143.0,128.0,25.0,-113.0,-69.0,126.0,127.0,127.0,117.0,85.0,-59.0
125.0,115.0,133.0,139.0,130.0,254.0,143.0,128.0,25.0,-113.0,-69.0,126.0,127.0,127.0,117.0,85.0,-59.0
125.0,114.0,133.0,139.0,130.0,253.0,143.0,128.0,25.0,-113.0,-69.0,126.0,127.0,127.0,117.0,85.0,-59.0
124.0,114.0,133.0,139.0,130.0,253.0,143.0,128.0,25.0,-113.0,-69.0,126.0,127.0,127.0,117.0,85.0,-59.0
124.0,114.0,135.0,139.0,130.0,254.0,142.0,127.0,25.0,-113.0,-69.0,126.0,127.0,127.0,117.0,85.0,-59.0
124.0,114.0,134.0,139.0,130.0,254.0,142.0,127.0,25.0,-113.0,-69.0,126.0,127.0,127.0,117.0,85.0,-59.0
124.0,114.0,134.0,140.0,130.0,254.0,142.0,127.0,25.0,-113.0,-69.0,126.0,127.0,127.0,117.0,85.0,-59.0
124.0,115.0,133.0,140.0,130.0,254.0,142.0,128.0,25.0,-113.0,-69.0,126.0,127.0,127.0,117.0,85.0,-59.0
124.0,115.0,133.0,140.0,130.0,254.0,142.0,128.0,25.0,-113.0,-69.0,126.0,127.0,127.0,117.0,85.0,-59.0
124.0,115.0,133.0,140.0,131.0,254.0,143.0,128.0,25.0,-113.0,-69.0,126.0,127.0,127.0,117.0,85.0,-59.0
124.0,117.0,135.0,143.0,129.0,247.0,144.0,128.0,25.0,-114.0,-69.0,126.0,127.0,127.0,118.0,85.0,-59.0
124.0,117.0,135.0,143.0,129.0,247.0,144.0,128.0,25.0,-114.0,-69.0,126.0,127.0,127.0,118.0,85.0,-59.0
124.0,118.0,135.0,143.0,129.0,247.0,144.0,128.0,25.0,-114.0,-69.0,126.0,127.0,127.0,118.0,85.0,-59.0
124.0,115.0,136.0,143.0,129.0,248.0,144.0,128.0,25.0,-114.0,-69.0,126.0,127.0,127.0,118.0,85.0,-59.0
124.0,115.0,136.0,143.0,129.0,248.0,144.0,128.0,25.0,-114.0,-69.0,126.0,127.0,127.0,118.0,85.0,-59.0
124.0,115.0,137.0,143.0,129.0,248.0,144.0,128.0,25.0,-114.0,-69.0,126.0,127.0,127.0,118.0,85.0,-59.0
124.0,116.0,136.0,143.0,130.0,248.0,144.0,128.0,25.0,-114.0,-69.0,126.0,127.0,127.0,118.0,85.0,-59.0
124.0,116.0,136.0,143.0,130.0,248.0,144.0,128.0,25.0,-114.0,-69.0,126.0,127.0,127.0,118.0,85.0,-59.0
124.0,116.0,135.0,143.0,130.0,248.0,144.0,128.0,25.0,-114.0,-69.0,126.0,127.0,127.0,118.0,85.0,-59.0
124.0,117.0,135.0,143.0,129.0,247.0,144.0,128.0,25.0,-114.0,-69.0,126.0,127.0,127.0,118.0,85.0,-59.0
123.0,120.0,138.0,136.0,127.0,232.0,130.0,128.0,25.0,-114.0,-69.0,127.0,127.0,127.0,118.0,85.0,-59.0
123.0,120.0,138.0,136.0,126.0,231.0,130.0,128.0,25.0,-114.0,-69.0,127.0,127.0,127.0,118.0,85.0,-59.0
123.0,119.0,138.0,135.0,126.0,236.0,133.0,127.0,25.0,-114.0,-69.0,127.0,127.0,127.0,118.0,85.0,-59.0
123.0,119.0,138.0,135.0,126.0,236.0,133.0,128.0,25.0,-114.0,-69.0,127.0,127.0,127.0,118.0,85.0,-59.0
123.0,119.0,139.0,135.0,126.0,235.0,132.0,127.0,25.0,-114.0,-69.0,127.0,127.0,127.0,118.0,85.0,-59.0
123.0,119.0,139.0,136.0,126.0,235.0,132.0,128.0,25.0,-114.0,-69.0,127.0,127.0,127.0,118.0,85.0,-59.0
123.0,119.0,139.0,136.0,126.0,234.0,131.0,128.0,25.0,-114.0,-69.0,127.0,127.0,127.0,118.0,85.0,-59.0
123.0,119.0,138.0,136.0,126.0,234.0,131.0,128.0,25.0,-114.0,-69.0,127.0,127.0,127.0,118.0,85.0,-59.0
123.0,119.0,138.0,136.0,126.0,233.0,131.0,128.0,25.0,-114.0,-69.0,127.0,127.0,127.0,118.0,85.0,-59.0
123.0,120.0,138.0,136.0,126.0,233.0,131.0,128.0,25.0,-114.0,-69.0,127.0,127.0,127.0,118.0,85.0,-59.0
123.0,119.0,131.0,127.0,122.0,197.0,121.0,127.0,25.0,-114.0,-69.0,127.0,127.0,127.0,118.0,85.0,-59.0
123.0,121.0,133.0,129.0,121.0,201.0,122.0,127.0,25.0,-114.0,-69.0,127.0,127.0,127.0,118.0,85.0,-59.0
123.0,121.0,132.0,129.0,121.0,200.0,122.0,127.0,25.0,-114.0,-69.0,127.0,127.0,127.0,118.0,85.0,-59.0
123.0,121.0,132.0,128.0,121.0,200.0,122.0,127.0,25.0,-114.0,-69.0,127.0,127.0,127.0,118.0,85.0,-59.0
123.0,121.0,131.0,128.0,121.0,199.0,121.0,127.0,25.0,-114.0,-69.0,127.0,127.0,127.0,118.0,85.0,-59.0
123.0,121.0,131.0,128.0,121.0,199.0,121.0,127.0,25.0,-114.0,-69.0,127.0,127.0,127.0,118.0,85.0,-59.0
123.0,120.0,131.0,127.0,121.0,199.0,121.0,127.0,25.0,-114.0,-69.0,127.0,127.0,127.0,118.0,85.0,-59.0
123.0,120.0,131.0,127.0,121.0,198.0,121.0,127.0,25.0,-114.0,-69.0,127.0,127.0,127.0,118.0,85.0,-59.0
123.0,120.0,131.0,127.0,121.0,198.0,121.0,127.0,25.0,-114.0,-69.0,127.0,127.0,127.0,118.0,85.0,-59.0
123.0,120.0,131.0,127.0,122.0,198.0,121.0,127.0,25.0,-114.0,-69.0,127.0,127.0,127.0,118.0,85.0,-59.0
124.0,118.0,128.0,129.0,122.0,186.0,117.0,127.0,25.0,-114.0,-69.0,127.0,127.0,127.0,118.0,85.0,-59.0
124.0,118.0,129.0,129.0,122.0,186.0,117.0,127.0,25.0,-114.0,-69.0,127.0,127.0,127.0,118.0,85.0,-59.0
124.0,119.0,129.0,129.0,122.0,186.0,117.0,128.0,25.0,-114.0,-69.0,127.0,127.0,127.0,118.0,85.0,-59.0
124.0,119.0,129.0,129.0,122.0,186.0,117.0,128.0,25.0,-114.0,-69.0,127.0,127.0,127.0,118.0,85.0,-59.0
124.0,119.0,129.0,129.0,122.0,186.0,117.0,128.0,25.0,-114.0,-69.0,127.0,127.0,127.0,118.0,85.0,-59.0
124.0,119.0,128.0,129.0,123.0,186.0,116.0,128.0,25.0,-114.0,-69.0,127.0,127.0,127.0,118.0,85.0,-59.0
124.0,119.0,127.0,129.0,123.0,185.0,116.0,128.0,25.0,-114.0,-69.0,127.0,127.0,127.0,118.0,85.0,-59.0
124.0,120.0,126.0,129.0,123.0,185.0,116.0,128.0,25.0,-114.0,-69.0,127.0,127.0,127.0,118.0,85.0,-59.0
124.0,120.0,125.0,128.0,123.0,185.0,116.0,128.0,25.0,-114.0,-69.0,127.0,127.0,127.0,118.0,85.0,-59.0
124.0,119.0,125.0,128.0,123.0,185.0,116.0,127.0,25.0,-114.0,-69.0,127.0,127.0,127.0,118.0,85.0,-59.0
124.0,119.0,126.0,121.0,126.0,195.0,114.0,127.0,25.0,-114.0,-69.0,127.0,127.0,127.0,118.0,85.0,-59.0
124.0,119.0,126.0,121.0,126.0,195.0,115.0,127.0,25.0,-114.0,-69.0,127.0,127.0,127.0,118.0,85.0,-59.0
124.0,118.0,126.0,121.0,126.0,195.0,115.0,127.0,25.0,-114.0,-69.0,127.0,127.0,127.0,118.0,85.0,-59.0
124.0,118.0,127.0,121.0,126.0,195.0,115.0,127.0,25.0,-114.0,-69.0,127.0,127.0,127.0,118.0,85.0,-59.0
124.0,118.0,127.0,121.0,126.0,196.0,115.0,127.0,25.0,-114.0,-69.0,127.0,127.0,127.0,118.0,85.0,-59.0
124.0,118.0,127.0,122.0,126.0,196.0,115.0,127.0,25.0,-114.0,-69.0,127.0,127.0,127.0,118.0,85.0,-59.0
124.0,118.0,128.0,122.0,126.0,196.0,115.0,127.0,25.0,-114.0,-69.0,127.0,127.0,127.0,118.0,85.0,-59.0
124.0,118.0,127.0,123.0,126.0,196.0,115.0,127.0,25.0,-114.0,-69.0,127.0,127.0,127.0,118.0,85.0,-59.0
124.0,118.0,127.0,124.0,126.0,196.0,115.0,127.0,25.0,-114.0,-69.0,127.0,127.0,127.0,118.0,85.0,-59.0
124.0,118.0,127.0,121.0,126.0,195.0,114.0,127.0,25.0,-114.0,-69.0,127.0,127.0,127.0,118.0,85.0,-59.0
124.0,122.0,127.0,130.0,129.0,212.0,124.0,128.0,25.0,-114.0,-69.0,127.0,127.0,127.0,119.0,85.0,-59.0
124.0,122.0,126.0,130.0,129.0,213.0,124.0,128.0,25.0,-114.0,-69.0,127.0,127.0,127.0,119.0,85.0,-59.0
124.0,122.0,126.0,130.0,129.0,213.0,124.0,128.0,25.0,-114.0,-69.0,127.0,127.0,127.0,119.0,85.0,-59.0
124.0,122.0,126.0,130.0,129.0,213.0,124.0,128.0,25.0,-114.0,-69.0,127.0,127.0,127.0,119.0,85.0,-59.0
124.0,122.0,125.0,129.0,128.0,213.0,124.0,128.0,25.0,-114.0,-69.0,127.0,127.0,127.0,119.0,85.0,-59.0
124.0,122.0,125.0,129.0,128.0,213.0,124.0,128.0,25.0,-114.0,-69.0,127.0,127.0,127.0,119.0,85.0,-59.0
124.0,122.0,125.0,128.0,128.0,213.0,124.0,128.0,25.0,-114.0,-69.0,127.0,127.0,127.0,119.0,85.0,-59.0
124.0,122.0,125.0,128.0,128.0,213.0,124.0,127.0,25.0,-114.0,-69.0,127.0,127.0,127.0,119.0,85.0,-59.0
125.0,121.0,128.0,130.0,130.0,212.0,123.0,128.0,25.0,-114.0,-69.0,127.0,127.0,127.0,119.0,85.0,-59.0
125.0,122.0,127.0,131.0,130.0,212.0,123.0,128.0,25.0,-114.0,-69.0,127.0,127.0,127.0,119.0,85.0,-59.0
125.0,124.0,127.0,137.0,133.0,209.0,132.0,128.0,26.0,-115.0,-69.0,127.0,127.0,127.0,119.0,85.0,-59.0
125.0,123.0,128.0,138.0,133.0,209.0,132.0,128.0,26.0,-115.0,-69.0,127.0,127.0,127.0,119.0,85.0,-59.0
125.0,123.0,128.0,138.0,133.0,208.0,132.0,128.0,26.0,-115.0,-69.0,127.0,127.0,127.0,119.0,85.0,-59.0
125.0,123.0,127.0,138.0,133.0,208.0,132.0,128.0,26.0,-115.0,-69.0,127.0,127.0,127.0,119.0,85.0,-59.0
125.0,123.0,127.0,138.0,133.0,208.0,133.0,128.0,26.0,-115.0,-69.0,127.0,127.0,127.0,119.0,85.0,-59.0
125.0,123.0,127.0,138.0,133.0,208.0,133.0,128.0,26.0,-115.0,-69.0,127.0,127.0,127.0,119.0,85.0,-59.0
125.0,123.0,127.0,138.0,133.0,207.0,133.0,128.0,26.0,-115.0,-69.0,127.0,127.0,127.0,119.0,85.0,-59.0
124.0,123.0,126.0,137.0,132.0,209.0,131.0,128.0,26.0,-115.0,-69.0,127.0,127.0,127.0,119.0,85.0,-59.0
125.0,124.0,126.0,137.0,132.0,209.0,131.0,128.0,26.0,-115.0,-69.0,127.0,127.0,127.0,119.0,85.0,-59.0
125.0,124.0,127.0,137.0,132.0,209.0,131.0,128.0,26.0,-115.0,-69.0,127.0,127.0,127.0,119.0,85.0,-59.0
124.0,122.0,129.0,137.0,131.0,194.0,131.0,127.0,26.0,-115.0,-69.0,127.0,127.0,127.0,120.0,85.0,-59.0
125.0,122.0,129.0,137.0,131.0,193.0,131.0,127.0,26.0,-115.0,-69.0,127.0,127.0,127.0,120.0,85.0,-59.0
125.0,122.0,130.0,137.0,131.0,193.0,131.0,128.0,26.0,-115.0,-69.0,127.0,127.0,127.0,120.0,85.0,-59.0
125.0,122.0,131.0,138.0,131.0,193.0,131.0,128.0,26.0,-115.0,-69.0,127.0,127.0,127.0,120.0,85.0,-59.0
125.0,121.0,131.0,138.0,131.0,193.0,131.0,128.0,26.0,-115.0,-69.0,127.0,127.0,127.0,120.0,85.0,-59.0
125.0,121.0,132.0,138.0,131.0,193.0,131.0,127.0,26.0,-115.0,-69.0,127.0,127.0,127.0,120.0,85.0,-59.0
124.0,123.0,129.0,137.0,130.0,194.0,131.0,127.0,26.0,-115.0,-69.0,127.0,127.0,127.0,120.0,85.0,-59.0
124.0,123.0,128.0,137.0,131.0,194.0,131.0,127.0,26.0,-115.0,-69.0,127.0,127.0,127.0,120.0,85.0,-59.0
124.0,123.0,128.0,137.0,131.0,194.0,131.0,127.0,26.0,-115.0,-69.0,127.0,127.0,127.0,120.0,85.0,-59.0
124.0,123.0,128.0,137.0,131.0,194.0,131.0,127.0,26.0,-115.0,-69.0,127.0,127.0,127.0,120.0,85.0,-59.0
125.0,120.0,128.0,128.0,129.0,186.0,128.0,127.0,26.0,-115.0,-69.0,127.0,127.0,127.0,120.0,85.0,-59.0
125.0,120.0,128.0,129.0,129.0,186.0,128.0,127.0,26.0,-115.0,-69.0,127.0,127.0,127.0,120.0,85.0,-59.0
125.0,119.0,129.0,129.0,129.0,186.0,128.0,127.0,26.0,-115.0,-69.0,127.0,127.0,127.0,120.0,85.0,-59.0
125.0,119.0,129.0,129.0,129.0,185.0,128.0,127.0,26.0,-115.0,-69.0,127.0,127.0,127.0,120.0,85.0,-59.0
125.0,119.0,129.0,129.0,129.0,185.0,128.0,127.0,26.0,-115.0,-69.0,127.0,127.0,127.0,120.0,85.0,-59.0
125.0,119.0,130.0,127.0,129.0,186.0,128.0,127.0,26.0,-115.0,-69.0,127.0,127.0,127.0,120.0,85.0,-59.0
125.0,119.0,129.0,127.0,129.0,186.0,128.0,127.0,26.0,-115.0,-69.0,127.0,127.0,127.0,120.0,85.0,-59.0
125.0,120.0,129.0,127.0,129.0,186.0,128.0,127.0,26.0,-115.0,-69.0,127.0,127.0,127.0,120.0,85.0,-59.0
125.0,120.0,128.0,127.0,129.0,186.0,128.0,127.0,26.0,-115.0,-69.0,127.0,127.0,127.0,120.0,85.0,-59.0
125.0,120.0,128.0,128.0,129.0,186.0,128.0,127.0,26.0,-115.0,-69.0,127.0,127.0,127.0,120.0,85.0,-59.0
125.0,119.0,129.0,119.0,124.0,173.0,126.0,127.0,26.0,-114.0,-69.0,127.0,127.0,127.0,120.0,85.0,-59.0
125.0,119.0,129.0,119.0,124.0,173.0,126.0,127.0,26.0,-114.0,-69.0,127.0,127.0,127.0,120.0,85.0,-59.0
125.0,119.0,129.0,119.0,124.0,173.0,126.0,127.0,26.0,-114.0,-69.0,127.0,127.0,127.0,120.0,85.0,-59.0
125.0,119.0,128.0,119.0,124.0,173.0,126.0,127.0,26.0,-114.0,-69.0,127.0,127.0,127.0,120.0,85.0,-59.0
125.0,118.0,130.0,119.0,124.0,175.0,126.0,127.0,26.0,-114.0,-69.0,127.0,127.0,127.0,120.0,85.0,-59.0
125.0,118.0,130.0,119.0,124.0,174.0,126.0,127.0,26.0,-114.0,-69.0,127.0,127.0,127.0,120.0,85.0,-59.0
125.0,119.0,129.0,119.0,124.0,174.0,126.0,127.0,26.0,-114.0,-69.0,127.0,127.0,127.0,120.0,85.0,-59.0
125.0,119.0,129.0,119.0,124.0,174.0,126.0,127.0,26.0,-114.0,-69.0,127.0,127.0,127.0,120.0,85.0,-59.0
125.0,119.0,129.0,119.0,124.0,174.0,126.0,127.0,26.0,-114.0,-69.0,127.0,127.0,127.0,120.0,85.0,-59.0
125.0,119.0,129.0,119.0,124.0,174.0,126.0,127.0,26.0,-114.0,-69.0,127.0,127.0,127.0,120.0,85.0,-59.0
125.0,124.0,125.0,118.0,125.0,169.0,127.0,127.0,25.0,-114.0,-69.0,127.0,127.0,127.0,120.0,85.0,-59.0
125.0,123.0,126.0,118.0,125.0,169.0,127.0,127.0,25.0,-114.0,-69.0,127.0,127.0,127.0,120.0,85.0,-59.0
125.0,123.0,126.0,119.0,125.0,169.0,127.0,127.0,25.0,-114.0,-69.0,127.0,127.0,127.0,120.0,85.0,-59.0
125.0,123.0,128.0,115.0,125.0,169.0,127.0,127.0,25.0,-114.0,-69.0,127.0,127.0,127.0,120.0,85.0,-59.0
125.0,123.0,128.0,115.0,125.0,169.0,127.0,127.0,25.0,-114.0,-69.0,127.0,127.0,127.0,120.0,85.0,-59.0
125.0,123.0,127.0,115.0,125.0,169.0,127.0,127.0,25.0,-114.0,-69.0,127.0,127.0,127.0,120.0,85.0,-59.0
125.0,123.0,126.0,116.0,125.0,169.0,127.0,127.0,25.0,-114.0,-69.0,127.0,127.0,127.0,120.0,85.0,-59.0
125.0,124.0,126.0,116.0,125.0,169.0,127.0,127.0,25.0,-114.0,-69.0,127.0,127.0,127.0,120.0,85.0,-59.0
125.0,124.0,125.0,117.0,125.0,169.0,127.0,127.0,25.0,-114.0,-69.0,127.0,127.0,127.0,120.0,85.0,-59.0
125.0,124.0,125.0,117.0,125.0,169.0,127.0,127.0,25.0,-114.0,-69.0,127.0,127.0,127.0,120.0,85.0,-59.0
126.0,124.0,128.0,121.0,127.0,178.0,127.0,127.0,25.0,-115.0,-69.0,127.0,127.0,127.0,120.0,85.0,-59.0
125.0,123.0,130.0,122.0,127.0,176.0,127.0,127.0,25.0,-115.0,-69.0,127.0,127.0,127.0,120.0,85.0,-59.0
125.0,123.0,130.0,122.0,126.0,176.0,127.0,127.0,25.0,-115.0,-69.0,127.0,127.0,127.0,120.0,85.0,-59.0
125.0,123.0,129.0,121.0,126.0,176.0,127.0,127.0,25.0,-115.0,-69.0,127.0,127.0,127.0,120.0,85.0,-59.0
125.0,123.0,130.0,121.0,126.0,177.0,127.0,127.0,25.0,-115.0,-69.0,127.0,127.0,127.0,120.0,85.0,-59.0
125.0,122.0,131.0,121.0,126.0,177.0,127.0,127.0,25.0,-115.0,-69.0,127.0,127.0,127.0,120.0,85.0,-59.0
125.0,122.0,131.0,120.0,126.0,177.0,127.0,127.0,25.0,-115.0,-69.0,127.0,127.0,127.0,120.0,85.0,-59.0
125.0,123.0,130.0,120.0,126.0,177.0,127.0,127.0,25.0,-115.0,-69.0,127.0,127.0,127.0,120.0,85.0,-59.0
125.0,123.0,129.0,120.0,126.0,178.0,127.0,127.0,25.0,-115.0,-69.0,127.0,127.0,127.0,120.0,85.0,-59.0
125.0,124.0,129.0,120.0,126.0,178.0,127.0,127.0,25.0,-115.0,-69.0,127.0,127.0,127.0,120.0,85.0,-59.0
126.0,125.0,128.0,124.0,127.0,186.0,128.0,128.0,25.0,-115.0,-69.0,127.0,127.0,127.0,120.0,85.0,-59.0
125.0,125.0,128.0,124.0,127.0,186.0,128.0,128.0,25.0,-115.0,-69.0,127.0,127.0,127.0,120.0,85.0,-59.0
125.0,125.0,128.0,124.0,127.0,186.0,128.0,128.0,25.0,-115.0,-69.0,127.0,127.0,127.0,120.0,85.0,-59.0
125.0,124.0,128.0,123.0,127.0,186.0,128.0,128.0,25.0,-115.0,-69.0,127.0,127.0,127.0,120.0,85.0,-59.0
125.0,124.0,128.0,123.0,127.0,186.0,128.0,128.0,25.0,-115.0,-69.0,127.0,127.0,127.0,120.0,85.0,-59.0
125.0,125.0,128.0,124.0,127.0,186.0,128.0,128.0,25.0,-115.0,-69.0,127.0,127.0,127.0,120.0,85.0,-59.0
125.0,125.0,128.0,124.0,127.0,187.0,128.0,128.0,25.0,-115.0,-69.0,127.0,127.0,127.0,120.0,85.0,-59.0
125.0,125.0,128.0,125.0,127.0,187.0,128.0,127.0,25.0,-115.0,-69.0,127.0,127.0,127.0,120.0,85.0,-59.0
125.0,125.0,128.0,126.0,128.0,187.0,128.0,128.0,25.0,-115.0,-69.0,127.0,127.0,127.0,120.0,85.0,-59.0
125.0,125.0,128.0,126.0,127.0,187.0,128.0,127.0,25.0,-115.0,-69.0,127.0,127.0,127.0,120.0,85.0,-59.0
125.0,126.0,125.0,126.0,127.0,188.0,126.0,128.0,25.0,-115.0,-69.0,127.0,127.0,127.0,120.0,85.0,-59.0
125.0,126.0,125.0,126.0,127.0,188.0,126.0,128.0,25.0,-115.0,-69.0,127.0,127.0,127.0,120.0,85.0,-59.0
125.0,126.0,125.0,126.0,127.0,188.0,126.0,128.0,25.0,-115.0,-69.0,127.0,127.0,127.0,120.0,85.0,-59.0
125.0,126.0,125.0,126.0,127.0,188.0,127.0,128.0,25.0,-115.0,-69.0,127.0,127.0,127.0,120.0,85.0,-59.0
125.0,126.0,124.0,126.0,127.0,188.0,127.0,128.0,25.0,-115.0,-69.0,127.0,127.0,127.0,120.0,85.0,-59.0
125.0,126.0,124.0,126.0,127.0,188.0,127.0,128.0,25.0,-115.0,-69.0,127.0,127.0,127.0,120.0,85.0,-59.0
125.0,126.0,124.0,126.0,127.0,188.0,127.0,127.0,25.0,-115.0,-69.0,127.0,127.0,127.0,120.0,85.0,-59.0
125.0,126.0,124.0,126.0,127.0,188.0,127.0,127.0,25.0,-115.0,-69.0,127.0,127.0,127.0,120.0,85.0,-59.0
125.0,126.0,125.0,126.0,127.0,188.0,127.0,127.0,25.0,-115.0,-69.0,127.0,127.0,127.0,120.0,85.0,-59.0
125.0,125.0,125.0,126.0,127.0,188.0,127.0,128.0,25.0,-115.0,-69.0,127.0,127.0,127.0,120.0,85.0,-59.0
125.0,127.0,127.0,125.0,127.0,190.0,128.0,128.0,25.0,-115.0,-69.0,127.0,127.0,127.0,120.0,85.0,-59.0
125.0,127.0,127.0,125.0,127.0,190.0,128.0,128.0,25.0,-115.0,-69.0,127.0,127.0,127.0,120.0,85.0,-59.0
126.0,127.0,127.0,125.0,127.0,190.0,128.0,128.0,25.0,-115.0,-69.0,127.0,127.0,127.0,120.0,85.0,-59.0
125.0,127.0,127.0,125.0,127.0,190.0,128.0,128.0,25.0,-115.0,-69.0,127.0,127.0,127.0,120.0,85.0,-59.0
125.0,127.0,126.0,125.0,127.0,190.0,128.0,128.0,25.0,-115.0,-69.0,127.0,127.0,127.0,120.0,85.0,-59.0
125.0,127.0,126.0,125.0,127.0,190.0,128.0,128.0,25.0,-115.0,-69.0,127.0,127.0,127.0,120.0,85.0,-59.0
125.0,127.0,125.0,124.0,127.0,190.0,128.0,128.0,25.0,-115.0,-69.0,127.0,127.0,127.0,120.0,85.0,-59.0
125.0,128.0,125.0,124.0,127.0,190.0,128.0,128.0,25.0,-115.0,-69.0,127.0,127.0,127.0,120.0,85.0,-59.0
125.0,127.0,127.0,124.0,127.0,190.0,128.0,128.0,25.0,-115.0,-69.0,127.0,127.0,127.0,120.0,85.0,-59.0
125.0,127.0,127.0,124.0,127.0,190.0,128.0,128.0,25.0,-115.0,-69.0,127.0,127.0,127.0,120.0,85.0,-59.0
124.0,128.0,128.0,127.0,127.0,199.0,127.0,128.0,25.0,-115.0,-68.0,127.0,127.0,127.0,121.0,85.0,-59.0
124.0,128.0,128.0,127.0,127.0,199.0,127.0,128.0,25.0,-115.0,-68.0,127.0,127.0,127.0,121.0,85.0,-59.0
124.0,128.0,128.0,127.0,127.0,199.0,127.0,128.0,25.0,-115.0,-68.0,127.0,127.0,127.0,121.0,85.0,-59.0
124.0,127.0,128.0,127.0,127.0,199.0,128.0,128.0,25.0,-115.0,-68.0,127.0,127.0,127.0,121.0,85.0,-59.0
124.0,127.0,128.0,127.0,127.0,199.0,128.0,128.0,25.0,-115.0,-68.0,127.0,127.0,127.0,121.0,85.0,-59.0
124.0,127.0,128.0,127.0,127.0,199.0,128.0,128.0,25.0,-115.0,-68.0,127.0,127.0,127.0,121.0,85.0,-59.0
125.0,127.0,129.0,127.0,127.0,199.0,128.0,128.0,25.0,-115.0,-68.0,127.0,127.0,127.0,121.0,85.0,-59.0
124.0,128.0,128.0,126.0,127.0,199.0,128.0,128.0,25.0,-115.0,-68.0,127.0,127.0,127.0,121.0,85.0,-59.0
124.0,128.0,128.0,126.0,127.0,199.0,127.0,128.0,25.0,-115.0,-68.0,127.0,127.0,127.0,121.0,85.0,-59.0
124.0,128.0,128.0,126.0,127.0,199.0,127.0,128.0,25.0,-115.0,-68.0,127.0,127.0,127.0,121.0,85.0,-59.0
124.0,128.0,126.0,125.0,127.0,184.0,127.0,127.0,25.0,-115.0,-68.0,127.0,127.0,127.0,121.0,85.0,-59.0
124.0,128.0,125.0,125.0,127.0,184.0,127.0,128.0,25.0,-115.0,-68.0,127.0,127.0,127.0,121.0,85.0,-59.0
124.0,128.0,125.0,125.0,127.0,184.0,127.0,128.0,25.0,-115.0,-68.0,127.0,127.0,127.0,121.0,85.0,-59.0
124.0,128.0,125.0,125.0,127.0,183.0,127.0,128.0,25.0,-115.0,-68.0,127.0,127.0,127.0,121.0,85.0,-59.0
124.0,128.0,125.0,124.0,127.0,183.0,127.0,128.0,25.0,-115.0,-68.0,127.0,127.0,127.0,121.0,85.0,-59.0
124.0,128.0,125.0,124.0,127.0,183.0,127.0,128.0,25.0,-115.0,-68.0,127.0,127.0,127.0,121.0,85.0,-59.0
124.0,127.0,125.0,123.0,127.0,183.0,127.0,128.0,25.0,-115.0,-68.0,127.0,127.0,127.0,121.0,85.0,-59.0
124.0,127.0,127.0,124.0,126.0,185.0,127.0,128.0,25.0,-115.0,-68.0,127.0,127.0,127.0,121.0,85.0,-59.0
124.0,127.0,126.0,124.0,126.0,185.0,127.0,128.0,25.0,-115.0,-68.0,127.0,127.0,127.0,121.0,85.0,-59.0
124.0,127.0,126.0,125.0,127.0,185.0,127.0,128.0,25.0,-115.0,-68.0,127.0,127.0,127.0,121.0,85.0,-59.0
125.0,125.0,136.0,129.0,127.0,169.0,127.0,128.0,25.0,-115.0,-69.0,127.0,127.0,127.0,121.0,85.0,-59.0
125.0,125.0,136.0,130.0,127.0,169.0,127.0,128.0,25.0,-115.0,-69.0,127.0,127.0,127.0,121.0,85.0,-59.0
125.0,125.0,135.0,130.0,127.0,169.0,127.0,128.0,25.0,-115.0,-69.0,127.0,127.0,127.0,121.0,85.0,-59.0
125.0,126.0,135.0,129.0,127.0,168.0,127.0,128.0,25.0,-115.0,-69.0,127.0,127.0,127.0,121.0,85.0,-59.0
125.0,126.0,134.0,129.0,127.0,168.0,127.0,128.0,25.0,-115.0,-69.0,127.0,127.0,127.0,121.0,85.0,-59.0
125.0,126.0,135.0,129.0,126.0,168.0,127.0,128.0,25.0,-115.0,-69.0,127.0,127.0,127.0,121.0,85.0,-59.0
125.0,125.0,135.0,129.0,127.0,170.0,126.0,128.0,25.0,-115.0,-69.0,127.0,127.0,127.0,121.0,85.0,-59.0
125.0,125.0,135.0,129.0,127.0,169.0,126.0,128.0,25.0,-115.0,-69.0,127.0,127.0,127.0,121.0,85.0,-59.0
125.0,125.0,135.0,129.0,127.0,169.0,127.0,128.0,25.0,-115.0,-69.0,127.0,127.0,127.0,121.0,85.0,-59.0
125.0,125.0,135.0,129.0,127.0,169.0,127.0,128.0,25.0,-115.0,-69.0,127.0,127.0,127.0,121.0,85.0,-59.0
125.0,126.0,136.0,132.0,127.0,168.0,127.0,128.0,25.0,-115.0,-69.0,127.0,127.0,127.0,121.0,85.0,-59.0
125.0,126.0,136.0,132.0,127.0,168.0,127.0,128.0,25.0,-115.0,-69.0,127.0,127.0,127.0,121.0,85.0,-59.0
125.0,126.0,136.0,132.0,127.0,168.0,127.0,128.0,25.0,-115.0,-69.0,127.0,127.0,127.0,121.0,85.0,-59.0
125.0,125.0,137.0,132.0,127.0,168.0,127.0,128.0,25.0,-115.0,-69.0,127.0,127.0,127.0,121.0,85.0,-59.0
125.0,125.0,137.0,132.0,127.0,168.0,128.0,128.0,25.0,-115.0,-69.0,127.0,127.0,127.0,121.0,85.0,-59.0
125.0,126.0,135.0,131.0,127.0,167.0,126.0,128.0,25.0,-115.0,-69.0,127.0,127.0,127.0,121.0,85.0,-59.0
125.0,126.0,135.0,131.0,127.0,167.0,127.0,128.0,25.0,-115.0,-69.0,127.0,127.0,127.0,121.0,85.0,-59.0
125.0,126.0,136.0,132.0,127.0,167.0,127.0,128.0,25.0,-115.0,-69.0,127.0,127.0,127.0,121.0,85.0,-59.0
125.0,126.0,136.0,132.0,127.0,167.0,127.0,128.0,25.0,-115.0,-69.0,127.0,127.0,127.0,121.0,85.0,-59.0
125.0,126.0,136.0,132.0,127.0,167.0,127.0,128.0,25.0,-115.0,-69.0,127.0,127.0,127.0,121.0,85.0,-59.0
126.0,124.0,137.0,127.0,129.0,178.0,129.0,128.0,26.0,-115.0,-68.0,127.0,127.0,127.0,121.0,85.0,-59.0
126.0,125.0,136.0,127.0,129.0,178.0,129.0,128.0,26.0,-115.0,-68.0,127.0,127.0,127.0,121.0,85.0,-59.0
126.0,125.0,136.0,127.0,129.0,178.0,129.0,128.0,26.0,-115.0,-68.0,127.0,127.0,127.0,121.0,85.0,-59.0
126.0,125.0,135.0,126.0,129.0,178.0,129.0,128.0,26.0,-115.0,-68.0,127.0,127.0,127.0,121.0,85.0,-59.0
125.0,124.0,140.0,127.0,128.0,177.0,129.0,128.0,26.0,-115.0,-68.0,127.0,127.0,127.0,121.0,85.0,-59.0
125.0,124.0,140.0,127.0,128.0,177.0,129.0,128.0,26.0,-115.0,-68.0,127.0,127.0,127.0,121.0,85.0,-59.0
125.0,124.0,140.0,127.0,128.0,178.0,129.0,128.0,26.0,-115.0,-68.0,127.0,127.0,127.0,121.0,85.0,-59.0
125.0,125.0,140.0,127.0,128.0,178.0,129.0,128.0,26.0,-115.0,-68.0,127.0,127.0,127.0,121.0,85.0,-59.0
126.0,125.0,139.0,127.0,129.0,178.0,129.0,128.0,26.0,-115.0,-68.0,127.0,127.0,127.0,121.0,85.0,-59.0
126.0,124.0,139.0,127.0,129.0,178.0,129.0,128.0,26.0,-115.0,-68.0,127.0,127.0,127.0,121.0,85.0,-59.0
125.0,125.0,124.0,126.0,126.0,161.0,127.0,127.0,26.0,-115.0,-69.0,127.0,127.0,127.0,121.0,85.0,-59.0
125.0,125.0,123.0,126.0,126.0,161.0,127.0,128.0,26.0,-115.0,-69.0,127.0,127.0,127.0,121.0,85.0,-59.0
125.0,125.0,123.0,126.0,126.0,160.0,127.0,127.0,26.0,-115.0,-69.0,127.0,127.0,127.0,121.0,85.0,-59.0
125.0,125.0,124.0,126.0,126.0,163.0,127.0,127.0,26.0,-115.0,-69.0,127.0,127.0,127.0,121.0,85.0,-59.0
125.0,125.0,124.0,126.0,126.0,163.0,127.0,127.0,26.0,-115.0,-69.0,127.0,127.0,127.0,121.0,85.0,-59.0
125.0,125.0,124.0,126.0,126.0,163.0,127.0,127.0,26.0,-115.0,-69.0,127.0,127.0,127.0,121.0,85.0,-59.0
125.0,125.0,124.0,126.0,126.0,162.0,127.0,127.0,26.0,-115.0,-69.0,127.0,127.0,127.0,121.0,85.0,-59.0
125.0,125.0,124.0,126.0,126.0,162.0,127.0,127.0,26.0,-115.0,-69.0,127.0,127.0,127.0,121.0,85.0,-59.0
125.0,125.0,124.0,126.0,126.0,162.0,127.0,127.0,26.0,-115.0,-69.0,127.0,127.0,127.0,121.0,85.0,-59.0
125.0,125.0,124.0,126.0,126.0,161.0,127.0,127.0,26.0,-115.0,-69.0,127.0,127.0,127.0,121.0,85.0,-59.0
126.0,126.0,120.0,123.0,125.0,153.0,125.0,128.0,25.0,-114.0,-69.0,127.0,127.0,127.0,121.0,85.0,-59.0
126.0,124.0,125.0,123.0,125.0,153.0,126.0,128.0,25.0,-114.0,-69.0,127.0,127.0,127.0,121.0,85.0,-59.0
126.0,124.0,124.0,123.0,126.0,153.0,126.0,128.0,25.0,-114.0,-69.0,127.0,127.0,127.0,121.0,85.0,-59.0
126.0,124.0,124.0,123.0,126.0,153.0,126.0,128.0,25.0,-114.0,-69.0,127.0,127.0,127.0,121.0,85.0,-59.0
126.0,125.0,123.0,123.0,126.0,153.0,126.0,128.0,25.0,-114.0,-69.0,127.0,127.0,127.0,121.0,85.0,-59.0
126.0,125.0,122.0,123.0,126.0,153.0,126.0,128.0,25.0,-114.0,-69.0,127.0,127.0,127.0,121.0,85.0,-59.0
126.0,125.0,122.0,123.0,126.0,153.0,126.0,128.0,25.0,-114.0,-69.0,127.0,127.0,127.0,121.0,85.0,-59.0
126.0,125.0,121.0,123.0,125.0,153.0,126.0,128.0,25.0,-114.0,-69.0,127.0,127.0,127.0,121.0,85.0,-59.0
126.0,125.0,121.0,123.0,125.0,153.0,126.0,128.0,25.0,-114.0,-69.0,127.0,127.0,127.0,121.0,85.0,-59.0
126.0,125.0,120.0,123.0,125.0,153.0,126.0,128.0,25.0,-114.0,-69.0,127.0,127.0,127.0,121.0,85.0,-59.0
126.0,124.0,129.0,125.0,125.0,161.0,126.0,128.0,25.0,-114.0,-69.0,127.0,127.0,127.0,121.0,85.0,-59.0
126.0,125.0,126.0,125.0,125.0,159.0,125.0,128.0,25.0,-114.0,-69.0,127.0,127.0,127.0,121.0,85.0,-59.0
126.0,125.0,127.0,125.0,125.0,159.0,125.0,128.0,25.0,-114.0,-69.0,127.0,127.0,127.0,121.0,85.0,-59.0
126.0,124.0,128.0,125.0,125.0,159.0,126.0,128.0,25.0,-114.0,-69.0,127.0,127.0,127.0,121.0,85.0,-59.0
126.0,124.0,128.0,124.0,125.0,160.0,126.0,128.0,25.0,-114.0,-69.0,127.0,127.0,127.0,121.0,85.0,-59.0
126.0,124.0,128.0,125.0,125.0,160.0,126.0,128.0,25.0,-114.0,-69.0,127.0,127.0,127.0,121.0,85.0,-59.0
126.0,124.0,129.0,125.0,126.0,160.0,126.0,128.0,25.0,-114.0,-69.0,127.0,127.0,127.0,121.0,85.0,-59.0
126.0,124.0,129.0,125.0,126.0,160.0,126.0,128.0,25.0,-114.0,-69.0,127.0,127.0,127.0,121.0,85.0,-59.0
126.0,124.0,129.0,125.0,126.0,161.0,126.0,128.0,25.0,-114.0,-69.0,127.0,127.0,127.0,121.0,85.0,-59.0
126.0,124.0,129.0,125.0,125.0,161.0,126.0,128.0,25.0,-114.0,-69.0,127.0,127.0,127.0,121.0,85.0,-59.0
125.0,126.0,128.0,126.0,127.0,165.0,126.0,128.0,25.0,-114.0,-69.0,127.0,127.0,127.0,121.0,85.0,-59.0
125.0,126.0,128.0,126.0,127.0,165.0,126.0,128.0,25.0,-114.0,-69.0,127.0,127.0,127.0,121.0,85.0,-59.0
125.0,126.0,127.0,126.0,126.0,165.0,126.0,128.0,25.0,-114.0,-69.0,127.0,127.0,127.0,121.0,85.0,-59.0
125.0,126.0,127.0,126.0,127.0,165.0,126.0,128.0,25.0,-114.0,-69.0,127.0,127.0,127.0,121.0,85.0,-59.0
125.0,126.0,127.0,126.0,126.0,165.0,126.0,128.0,25.0,-114.0,-69.0,127.0,127.0,127.0,121.0,85.0,-59.0
125.0,126.0,127.0,126.0,126.0,165.0,126.0,128.0,25.0,-114.0,-69.0,127.0,127.0,127.0,121.0,85.0,-59.0
125.0,126.0,127.0,126.0,126.0,165.0,126.0,128.0,25.0,-114.0,-69.0,127.0,127.0,127.0,121.0,85.0,-59.0
125.0,126.0,128.0,126.0,126.0,165.0,127.0,128.0,25.0,-114.0,-69.0,127.0,127.0,127.0,121.0,85.0,-59.0
125.0,125.0,128.0,126.0,126.0,165.0,127.0,128.0,25.0,-114.0,-69.0,127.0,127.0,127.0,121.0,85.0,-59.0
125.0,125.0,128.0,126.0,126.0,165.0,127.0,128.0,25.0,-114.0,-69.0,127.0,127.0,127.0,121.0,85.0,-59.0
125.0,124.0,127.0,124.0,126.0,162.0,127.0,128.0,24.0,-114.0,-69.0,127.0,127.0,127.0,121.0,85.0,-58.0
125.0,124.0,127.0,124.0,126.0,162.0,127.0,128.0,24.0,-114.0,-69.0,127.0,127.0,127.0,121.0,85.0,-58.0
125.0,124.0,127.0,124.0,126.0,162.0,127.0,128.0,24.0,-114.0,-69.0,127.0,127.0,127.0,121.0,85.0,-58.0
125.0,124.0,127.0,124.0,126.0,163.0,127.0,128.0,24.0,-114.0,-69.0,127.0,127.0,127.0,121.0,85.0,-58.0
125.0,124.0,127.0,124.0,126.0,163.0,127.0,128.0,24.0,-114.0,-69.0,127.0,127.0,127.0,121.0,85.0,-58.0
125.0,125.0,127.0,125.0,126.0,163.0,127.0,128.0,24.0,-114.0,-69.0,127.0,127.0,127.0,121.0,85.0,-58.0
125.0,125.0,127.0,125.0,127.0,163.0,127.0,128.0,24.0,-114.0,-69.0,127.0,127.0,127.0,121.0,85.0,-58.0
125.0,125.0,126.0,125.0,127.0,163.0,127.0,128.0,24.0,-114.0,-69.0,127.0,127.0,127.0,121.0,85.0,-58.0
125.0,125.0,126.0,126.0,127.0,162.0,127.0,128.0,24.0,-114.0,-69.0,127.0,127.0,127.0,121.0,85.0,-58.0
125.0,125.0,128.0,124.0,126.0,162.0,127.0,128.0,24.0,-114.0,-69.0,127.0,127.0,127.0,121.0,85.0,-58.0
125.0,126.0,122.0,125.0,126.0,161.0,127.0,128.0,24.0,-114.0,-70.0,127.0,127.0,127.0,121.0,85.0,-58.0
125.0,126.0,122.0,124.0,126.0,161.0,127.0,128.0,24.0,-114.0,-70.0,127.0,127.0,127.0,121.0,85.0,-58.0
125.0,125.0,122.0,124.0,126.0,161.0,127.0,128.0,24.0,-114.0,-70.0,127.0,127.0,127.0,121.0,85.0,-58.0
124.0,125.0,122.0,123.0,126.0,161.0,127.0,128.0,24.0,-114.0,-70.0,127.0,127.0,127.0,121.0,85.0,-58.0
124.0,125.0,123.0,123.0,126.0,162.0,128.0,128.0,24.0,-114.0,-70.0,127.0,127.0,127.0,121.0,85.0,-58.0
125.0,125.0,123.0,123.0,126.0,162.0,128.0,128.0,24.0,-114.0,-70.0,127.0,127.0,127.0,121.0,85.0,-58.0
125.0,125.0,124.0,124.0,126.0,162.0,128.0,128.0,24.0,-114.0,-70.0,127.0,127.0,127.0,121.0,85.0,-58.0
125.0,125.0,124.0,125.0,127.0,162.0,127.0,128.0,24.0,-114.0,-70.0,127.0,127.0,127.0,121.0,85.0,-58.0
125.0,126.0,122.0,125.0,126.0,161.0,127.0,128.0,24.0,-114.0,-70.0,127.0,127.0,127.0,121.0,85.0,-58.0
125.0,126.0,122.0,125.0,126.0,161.0,127.0,128.0,24.0,-114.0,-70.0,127.0,127.0,127.0,121.0,85.0,-58.0
125.0,127.0,123.0,128.0,127.0,164.0,127.0,128.0,24.0,-115.0,-70.0,127.0,127.0,127.0,121.0,85.0,-58.0
125.0,127.0,123.0,128.0,127.0,164.0,127.0,128.0,24.0,-115.0,-70.0,127.0,127.0,127.0,121.0,85.0,-58.0
125.0,127.0,123.0,127.0,127.0,164.0,127.0,128.0,24.0,-115.0,-70.0,127.0,127.0,127.0,121.0,85.0,-58.0
125.0,127.0,122.0,127.0,127.0,164.0,127.0,128.0,24.0,-115.0,-70.0,127.0,127.0,127.0,121.0,85.0,-58.0
125.0,127.0,122.0,127.0,127.0,164.0,127.0,128.0,24.0,-115.0,-70.0,127.0,127.0,127.0,121.0,85.0,-58.0
125.0,127.0,122.0,127.0,127.0,164.0,127.0,128.0,24.0,-115.0,-70.0,127.0,127.0,127.0,121.0,85.0,-58.0
125.0,127.0,122.0,126.0,127.0,164.0,128.0,128.0,24.0,-115.0,-70.0,127.0,127.0,127.0,121.0,85.0,-58.0
125.0,127.0,123.0,128.0,128.0,163.0,127.0,128.0,24.0,-115.0,-70.0,127.0,127.0,127.0,121.0,85.0,-58.0
125.0,127.0,123.0,128.0,128.0,163.0,127.0,128.0,24.0,-115.0,-70.0,127.0,127.0,127.0,121.0,85.0,-58.0
125.0,127.0,123.0,128.0,128.0,163.0,127.0,128.0,24.0,-115.0,-70.0,127.0,127.0,127.0,121.0,85.0,-58.0
125.0,126.0,126.0,126.0,127.0,172.0,127.0,128.0,25.0,-115.0,-70.0,127.0,127.0,127.0,121.0,85.0,-58.0
125.0,126.0,126.0,126.0,127.0,173.0,127.0,128.0,25.0,-115.0,-70.0,127.0,127.0,127.0,121.0,85.0,-58.0
125.0,127.0,126.0,127.0,128.0,173.0,127.0,128.0,25.0,-115.0,-70.0,127.0,127.0,127.0,121.0,85.0,-58.0
125.0,127.0,125.0,127.0,128.0,173.0,127.0,128.0,25.0,-115.0,-70.0,127.0,127.0,127.0,121.0,85.0,-58.0
125.0,128.0,124.0,126.0,128.0,173.0,127.0,128.0,25.0,-115.0,-70.0,127.0,127.0,127.0,121.0,85.0,-58.0
125.0,128.0,123.0,127.0,128.0,173.0,127.0,128.0,25.0,-115.0,-70.0,127.0,127.0,127.0,121.0,85.0,-58.0
125.0,125.0,127.0,126.0,127.0,172.0,127.0,127.0,25.0,-115.0,-70.0,127.0,127.0,127.0,121.0,85.0,-58.0
125.0,125.0,126.0,125.0,127.0,172.0,127.0,127.0,25.0,-115.0,-70.0,127.0,127.0,127.0,121.0,85.0,-58.0
125.0,126.0,126.0,125.0,127.0,172.0,127.0,127.0,25.0,-115.0,-70.0,127.0,127.0,127.0,121.0,85.0,-58.0
125.0,126.0,126.0,125.0,127.0,172.0,127.0,128.0,25.0,-115.0,-70.0,127.0,127.0,127.0,121.0,85.0,-58.0
125.0,126.0,123.0,126.0,126.0,176.0,127.0,127.0,25.0,-115.0,-70.0,127.0,127.0,127.0,121.0,85.0,-58.0
125.0,126.0,123.0,126.0,126.0,176.0,127.0,127.0,25.0,-115.0,-70.0,127.0,127.0,127.0,121.0,85.0,-58.0
125.0,126.0,122.0,126.0,126.0,176.0,127.0,127.0,25.0,-115.0,-70.0,127.0,127.0,127.0,121.0,85.0,-58.0
125.0,127.0,121.0,126.0,126.0,176.0,127.0,127.0,25.0,-115.0,-70.0,127.0,127.0,127.0,121.0,85.0,-58.0
126.0,127.0,121.0,126.0,127.0,176.0,127.0,127.0,25.0,-115.0,-70.0,127.0,127.0,127.0,121.0,85.0,-58.0
125.0,125.0,126.0,126.0,126.0,176.0,127.0,127.0,25.0,-115.0,-70.0,127.0,127.0,127.0,121.0,85.0,-58.0
125.0,125.0,126.0,126.0,126.0,176.0,127.0,127.0,25.0,-115.0,-70.0,127.0,127.0,127.0,121.0,85.0,-58.0
125.0,126.0,125.0,125.0,126.0,176.0,127.0,127.0,25.0,-115.0,-70.0,127.0,127.0,127.0,121.0,85.0,-58.0
125.0,126.0,124.0,126.0,126.0,176.0,127.0,127.0,25.0,-115.0,-70.0,127.0,127.0,127.0,121.0,85.0,-58.0
125.0,126.0,124.0,126.0,126.0,176.0,127.0,127.0,25.0,-115.0,-70.0,127.0,127.0,127.0,121.0,85.0,-58.0
127.0,126.0,124.0,126.0,126.0,177.0,127.0,128.0,25.0,-114.0,-70.0,127.0,127.0,127.0,121.0,85.0,-58.0
127.0,126.0,124.0,125.0,126.0,177.0,127.0,128.0,25.0,-114.0,-70.0,127.0,127.0,127.0,121.0,85.0,-58.0
127.0,126.0,123.0,125.0,126.0,177.0,127.0,128.0,25.0,-114.0,-70.0,127.0,127.0,127.0,121.0,85.0,-58.0
126.0,126.0,123.0,125.0,127.0,177.0,127.0,128.0,25.0,-114.0,-70.0,127.0,127.0,127.0,121.0,85.0,-58.0
127.0,125.0,126.0,126.0,126.0,177.0,127.0,128.0,25.0,-114.0,-70.0,127.0,127.0,127.0,121.0,85.0,-58.0
127.0,125.0,126.0,125.0,126.0,177.0,127.0,128.0,25.0,-114.0,-70.0,127.0,127.0,127.0,121.0,85.0,-58.0
126.0,126.0,125.0,125.0,126.0,177.0,127.0,128.0,25.0,-114.0,-70.0,127.0,127.0,127.0,121.0,85.0,-58.0
126.0,126.0,125.0,125.0,126.0,177.0,127.0,128.0,25.0,-114.0,-70.0,127.0,127.0,127.0,121.0,85.0,-58.0
126.0,126.0,124.0,125.0,126.0,177.0,127.0,128.0,25.0,-114.0,-70.0,127.0,127.0,127.0,121.0,85.0,-58.0
127.0,126.0,124.0,126.0,126.0,177.0,127.0,128.0,25.0,-114.0,-70.0,127.0,127.0,127.0,121.0,85.0,-58.0
126.0,125.0,127.0,125.0,126.0,182.0,126.0,128.0,25.0,-114.0,-70.0,127.0,127.0,127.0,121.0,85.0,-58.0
126.0,125.0,126.0,125.0,126.0,182.0,126.0,128.0,25.0,-114.0,-70.0,127.0,127.0,127.0,121.0,85.0,-58.0
126.0,126.0,125.0,125.0,126.0,182.0,126.0,128.0,25.0,-114.0,-70.0,127.0,127.0,127.0,121.0,85.0,-58.0
127.0,123.0,131.0,125.0,126.0,182.0,127.0,128.0,25.0,-114.0,-70.0,127.0,127.0,127.0,121.0,85.0,-58.0
127.0,123.0,131.0,125.0,126.0,182.0,127.0,128.0,25.0,-114.0,-70.0,127.0,127.0,127.0,121.0,85.0,-58.0
126.0,124.0,130.0,125.0,126.0,182.0,127.0,128.0,25.0,-114.0,-70.0,127.0,127.0,127.0,121.0,85.0,-58.0
127.0,125.0,129.0,125.0,126.0,182.0,127.0,128.0,25.0,-114.0,-70.0,127.0,127.0,127.0,121.0,85.0,-58.0
126.0,125.0,128.0,126.0,126.0,182.0,126.0,128.0,25.0,-114.0,-70.0,127.0,127.0,127.0,121.0,85.0,-58.0
126.0,125.0,128.0,126.0,126.0,182.0,127.0,128.0,25.0,-114.0,-70.0,127.0,127.0,127.0,121.0,85.0,-58.0
126.0,125.0,128.0,125.0,126.0,182.0,126.0,128.0,25.0,-114.0,-70.0,127.0,127.0,127.0,121.0,85.0,-58.0
127.0,126.0,127.0,126.0,127.0,185.0,127.0,128.0,25.0,-114.0,-70.0,127.0,127.0,127.0,121.0,85.0,-58.0
127.0,126.0,126.0,126.0,127.0,185.0,127.0,128.0,25.0,-114.0,-70.0,127.0,127.0,127.0,121.0,85.0,-58.0
127.0,125.0,129.0,126.0,126.0,185.0,127.0,128.0,25.0,-114.0,-70.0,127.0,127.0,127.0,121.0,85.0,-58.0
127.0,125.0,128.0,126.0,126.0,185.0,127.0,128.0,25.0,-114.0,-70.0,127.0,127.0,127.0,121.0,85.0,-58.0
127.0,126.0,128.0,126.0,127.0,185.0,127.0,128.0,25.0,-114.0,-70.0,127.0,127.0,127.0,121.0,85.0,-58.0
127.0,126.0,127.0,126.0,127.0,185.0,127.0,128.0,25.0,-114.0,-70.0,127.0,127.0,127.0,121.0,85.0,-58.0
127.0,126.0,127.0,126.0,127.0,185.0,127.0,128.0,25.0,-114.0,-70.0,127.0,127.0,127.0,121.0,85.0,-58.0
127.0,126.0,127.0,126.0,127.0,185.0,127.0,128.0,25.0,-114.0,-70.0,127.0,127.0,127.0,121.0,85.0,-58.0
127.0,125.0,127.0,126.0,127.0,185.0,127.0,128.0,25.0,-114.0,-70.0,127.0,127.0,127.0,121.0,85.0,-58.0
127.0,125.0,127.0,126.0,127.0,185.0,127.0,128.0,25.0,-114.0,-70.0,127.0,127.0,127.0,121.0,85.0,-58.0
126.0,125.0,127.0,122.0,125.0,187.0,126.0,127.0,25.0,-114.0,-70.0,127.0,127.0,127.0,121.0,85.0,-58.0
126.0,125.0,127.0,122.0,125.0,186.0,125.0,127.0,25.0,-114.0,-70.0,127.0,127.0,127.0,121.0,85.0,-58.0
126.0,125.0,127.0,121.0,125.0,186.0,125.0,127.0,25.0,-114.0,-70.0,127.0,127.0,127.0,121.0,85.0,-58.0
126.0,125.0,127.0,121.0,124.0,186.0,126.0,127.0,25.0,-114.0,-70.0,127.0,127.0,127.0,121.0,85.0,-58.0
126.0,125.0,127.0,121.0,124.0,186.0,126.0,127.0,25.0,-114.0,-70.0,127.0,127.0,127.0,121.0,85.0,-58.0
126.0,125.0,127.0,121.0,125.0,186.0,126.0,127.0,25.0,-114.0,-70.0,127.0,127.0,127.0,121.0,85.0,-58.0
126.0,125.0,126.0,121.0,125.0,186.0,126.0,127.0,25.0,-114.0,-70.0,127.0,127.0,127.0,121.0,85.0,-58.0
126.0,125.0,126.0,122.0,125.0,187.0,126.0,127.0,25.0,-114.0,-70.0,127.0,127.0,127.0,121.0,85.0,-58.0
126.0,125.0,126.0,122.0,125.0,187.0,126.0,127.0,25.0,-114.0,-70.0,127.0,127.0,127.0,121.0,85.0,-58.0
126.0,125.0,125.0,123.0,125.0,187.0,126.0,127.0,25.0,-114.0,-70.0,127.0,127.0,127.0,121.0,85.0,-58.0
127.0,125.0,128.0,125.0,127.0,186.0,125.0,128.0,25.0,-114.0,-69.0,127.0,127.0,127.0,121.0,85.0,-58.0
127.0,125.0,128.0,125.0,127.0,186.0,125.0,128.0,25.0,-114.0,-69.0,127.0,127.0,127.0,121.0,85.0,-58.0
127.0,125.0,128.0,126.0,127.0,186.0,126.0,128.0,25.0,-114.0,-69.0,127.0,127.0,127.0,121.0,85.0,-58.0
127.0,125.0,128.0,126.0,127.0,186.0,126.0,128.0,25.0,-114.0,-69.0,127.0,127.0,127.0,121.0,85.0,-58.0
127.0,125.0,127.0,126.0,127.0,186.0,126.0,128.0,25.0,-114.0,-69.0,127.0,127.0,127.0,121.0,85.0,-58.0
127.0,125.0,127.0,126.0,127.0,186.0,126.0,128.0,25.0,-114.0,-69.0,127.0,127.0,127.0,121.0,85.0,-58.0
127.0,125.0,127.0,126.0,127.0,186.0,126.0,128.0,25.0,-114.0,-69.0,127.0,127.0,127.0,121.0,85.0,-58.0
127.0,125.0,127.0,126.0,127.0,186.0,126.0,128.0,25.0,-114.0,-69.0,127.0,127.0,127.0,121.0,85.0,-58.0
127.0,125.0,127.0,126.0,127.0,186.0,126.0,128.0,25.0,-114.0,-69.0,127.0,127.0,127.0,121.0,85.0,-58.0
127.0,125.0,127.0,126.0,127.0,186.0,126.0,128.0,25.0,-114.0,-69.0,127.0,127.0,127.0,121.0,85.0,-58.0
127.0,122.0,134.0,124.0,127.0,187.0,126.0,128.0,25.0,-114.0,-69.0,127.0,127.0,127.0,121.0,85.0,-58.0
127.0,122.0,135.0,125.0,128.0,187.0,126.0,128.0,25.0,-114.0,-69.0,127.0,127.0,127.0,121.0,85.0,-58.0
127.0,122.0,136.0,125.0,128.0,187.0,126.0,128.0,25.0,-114.0,-69.0,127.0,127.0,127.0,121.0,85.0,-58.0
127.0,122.0,135.0,125.0,128.0,187.0,126.0,129.0,25.0,-114.0,-69.0,127.0,127.0,127.0,121.0,85.0,-58.0
127.0,122.0,135.0,125.0,128.0,187.0,126.0,129.0,25.0,-114.0,-69.0,127.0,127.0,127.0,121.0,85.0,-58.0
127.0,122.0,135.0,125.0,128.0,187.0,126.0,129.0,25.0,-114.0,-69.0,127.0,127.0,127.0,121.0,85.0,-58.0
127.0,123.0,135.0,125.0,128.0,187.0,126.0,128.0,25.0,-114.0,-69.0,127.0,127.0,127.0,121.0,85.0,-58.0
127.0,123.0,134.0,125.0,127.0,187.0,126.0,128.0,25.0,-114.0,-69.0,127.0,127.0,127.0,121.0,85.0,-58.0
127.0,124.0,133.0,125.0,127.0,187.0,126.0,128.0,25.0,-114.0,-69.0,127.0,127.0,127.0,121.0,85.0,-58.0
126.0,122.0,133.0,123.0,127.0,186.0,126.0,128.0,25.0,-114.0,-69.0,127.0,127.0,127.0,121.0,85.0,-58.0
126.0,126.0,127.0,125.0,127.0,186.0,125.0,128.0,25.0,-114.0,-69.0,127.0,127.0,127.0,121.0,85.0,-58.0
126.0,126.0,127.0,125.0,127.0,186.0,125.0,128.0,25.0,-114.0,-69.0,127.0,127.0,127.0,121.0,85.0,-58.0
126.0,126.0,127.0,125.0,127.0,186.0,125.0,128.0,25.0,-114.0,-69.0,127.0,127.0,127.0,121.0,85.0,-58.0
126.0,126.0,127.0,126.0,127.0,186.0,126.0,128.0,25.0,-114.0,-69.0,127.0,127.0,127.0,121.0,85.0,-58.0
126.0,125.0,128.0,126.0,127.0,186.0,126.0,128.0,25.0,-114.0,-69.0,127.0,127.0,127.0,121.0,85.0,-58.0
126.0,125.0,128.0,125.0,127.0,186.0,126.0,128.0,25.0,-114.0,-69.0,127.0,127.0,127.0,121.0,85.0,-58.0
126.0,125.0,128.0,126.0,127.0,186.0,126.0,128.0,25.0,-114.0,-69.0,127.0,127.0,127.0,121.0,85.0,-58.0
126.0,125.0,128.0,126.0,127.0,186.0,126.0,128.0,25.0,-114.0,-69.0,127.0,127.0,127.0,121.0,85.0,-58.0
126.0,126.0,128.0,125.0,126.0,186.0,125.0,128.0,25.0,-114.0,-69.0,127.0,127.0,127.0,121.0,85.0,-58.0
126.0,126.0,128.0,125.0,127.0,186.0,125.0,128.0,25.0,-114.0,-69.0,127.0,127.0,127.0,121.0,85.0,-58.0
126.0,125.0,130.0,125.0,127.0,186.0,126.0,128.0,25.0,-115.0,-69.0,127.0,127.0,127.0,121.0,85.0,-58.0
126.0,125.0,129.0,125.0,127.0,186.0,126.0,128.0,25.0,-115.0,-69.0,127.0,127.0,127.0,121.0,85.0,-58.0
126.0,125.0,129.0,125.0,127.0,186.0,126.0,128.0,25.0,-115.0,-69.0,127.0,127.0,127.0,121.0,85.0,-58.0
126.0,125.0,128.0,125.0,127.0,186.0,127.0,128.0,25.0,-115.0,-69.0,127.0,127.0,127.0,121.0,85.0,-58.0
126.0,125.0,128.0,125.0,127.0,187.0,127.0,128.0,25.0,-115.0,-69.0,127.0,127.0,127.0,121.0,85.0,-58.0
126.0,126.0,127.0,126.0,127.0,186.0,127.0,128.0,25.0,-115.0,-69.0,127.0,127.0,127.0,121.0,85.0,-58.0
126.0,126.0,127.0,126.0,127.0,186.0,126.0,128.0,25.0,-115.0,-69.0,127.0,127.0,127.0,121.0,85.0,-58.0
126.0,125.0,130.0,125.0,127.0,186.0,126.0,128.0,25.0,-115.0,-69.0,127.0,127.0,127.0,121.0,85.0,-58.0
126.0,125.0,130.0,125.0,127.0,186.0,126.0,128.0,25.0,-115.0,-69.0,127.0,127.0,127.0,121.0,85.0,-58.0
126.0,125.0,130.0,125.0,127.0,186.0,126.0,128.0,25.0,-115.0,-69.0,127.0,127.0,127.0,121.0,85.0,-58.0
126.0,126.0,124.0,127.0,126.0,185.0,126.0,128.0,25.0,-115.0,-69.0,127.0,127.0,127.0,121.0,85.0,-58.0
126.0,126.0,123.0,127.0,126.0,185.0,126.0,128.0,25.0,-115.0,-69.0,127.0,127.0,127.0,121.0,85.0,-58.0
126.0,126.0,123.0,127.0,126.0,185.0,127.0,128.0,25.0,-115.0,-69.0,127.0,127.0,127.0,121.0,85.0,-58.0
126.0,126.0,123.0,127.0,126.0,185.0,127.0,128.0,25.0,-115.0,-69.0,127.0,127.0,127.0,121.0,85.0,-58.0
126.0,126.0,123.0,127.0,126.0,185.0,127.0,128.0,25.0,-115.0,-69.0,127.0,127.0,127.0,121.0,85.0,-58.0
126.0,126.0,123.0,127.0,126.0,185.0,127.0,128.0,25.0,-115.0,-69.0,127.0,127.0,127.0,121.0,85.0,-58.0
126.0,126.0,125.0,127.0,127.0,186.0,127.0,128.0,25.0,-115.0,-69.0,127.0,127.0,127.0,121.0,85.0,-58.0
126.0,126.0,125.0,127.0,127.0,186.0,126.0,128.0,25.0,-115.0,-69.0,127.0,127.0,127.0,121.0,85.0,-58.0
126.0,126.0,124.0,127.0,127.0,185.0,126.0,128.0,25.0,-115.0,-69.0,127.0,127.0,127.0,121.0,85.0,-58.0
126.0,126.0,124.0,127.0,127.0,185.0,127.0,128.0,25.0,-115.0,-69.0,127.0,127.0,127.0,121.0,85.0,-58.0
126.0,126.0,123.0,127.0,127.0,185.0,126.0,128.0,25.0,-114.0,-69.0,127.0,127.0,127.0,121.0,85.0,-58.0
126.0,126.0,124.0,127.0,127.0,185.0,127.0,128.0,25.0,-114.0,-69.0,127.0,127.0,127.0,121.0,85.0,-58.0
126.0,126.0,124.0,127.0,127.0,185.0,127.0,128.0,25.0,-114.0,-69.0,127.0,127.0,127.0,121.0,85.0,-58.0
126.0,126.0,124.0,127.0,127.0,185.0,127.0,128.0,25.0,-114.0,-69.0,127.0,127.0,127.0,121.0,85.0,-58.0
126.0,125.0,124.0,127.0,127.0,185.0,127.0,128.0,25.0,-114.0,-69.0,127.0,127.0,127.0,121.0,85.0,-58.0
126.0,126.0,124.0,126.0,127.0,185.0,126.0,128.0,25.0,-114.0,-69.0,127.0,127.0,127.0,121.0,85.0,-58.0
126.0,126.0,124.0,126.0,127.0,185.0,126.0,128.0,25.0,-114.0,-69.0,127.0,127.0,127.0,121.0,85.0,-58.0
126.0,126.0,124.0,126.0,127.0,185.0,126.0,128.0,25.0,-114.0,-69.0,127.0,127.0,127.0,121.0,85.0,-58.0
126.0,126.0,124.0,126.0,127.0,185.0,126.0,128.0,25.0,-114.0,-69.0,127.0,127.0,127.0,121.0,85.0,-58.0
126.0,126.0,124.0,127.0,127.0,185.0,126.0,128.0,25.0,-114.0,-69.0,127.0,127.0,127.0,121.0,85.0,-58.0
126.0,126.0,125.0,127.0,127.0,183.0,126.0,128.0,25.0,-114.0,-69.0,127.0,127.0,127.0,121.0,85.0,-58.0
126.0,126.0,125.0,127.0,127.0,182.0,126.0,128.0,25.0,-114.0,-69.0,127.0,127.0,127.0,121.0,85.0,-58.0
126.0,126.0,125.0,127.0,127.0,182.0,126.0,128.0,25.0,-114.0,-69.0,127.0,127.0,127.0,121.0,85.0,-58.0
126.0,125.0,125.0,127.0,127.0,183.0,126.0,128.0,25.0,-114.0,-69.0,127.0,127.0,127.0,121.0,85.0,-58.0
126.0,126.0,125.0,127.0,127.0,183.0,126.0,128.0,25.0,-114.0,-69.0,127.0,127.0,127.0,121.0,85.0,-58.0
126.0,126.0,124.0,127.0,127.0,183.0,126.0,128.0,25.0,-114.0,-69.0,127.0,127.0,127.0,121.0,85.0,-58.0
126.0,126.0,124.0,127.0,127.0,183.0,126.0,128.0,25.0,-114.0,-69.0,127.0,127.0,127.0,121.0,85.0,-58.0
126.0,126.0,124.0,127.0,127.0,183.0,126.0,128.0,25.0,-114.0,-69.0,127.0,127.0,127.0,121.0,85.0,-58.0
126.0,126.0,124.0,127.0,127.0,183.0,126.0,128.0,25.0,-114.0,-69.0,127.0,127.0,127.0,121.0,85.0,-58.0
126.0,126.0,124.0,127.0,127.0,182.0,126.0,128.0,25.0,-114.0,-69.0,127.0,127.0,127.0,121.0,85.0,-58.0
126.0,126.0,128.0,129.0,127.0,180.0,126.0,128.0,25.0,-114.0,-69.0,127.0,127.0,127.0,121.0,85.0,-58.0
126.0,126.0,128.0,129.0,127.0,180.0,126.0,128.0,25.0,-114.0,-69.0,127.0,127.0,127.0,121.0,85.0,-58.0
126.0,126.0,128.0,129.0,127.0,180.0,126.0,128.0,25.0,-114.0,-69.0,127.0,127.0,127.0,121.0,85.0,-58.0
126.0,125.0,130.0,129.0,127.0,181.0,126.0,128.0,25.0,-114.0,-69.0,127.0,127.0,127.0,121.0,85.0,-58.0
126.0,125.0,129.0,129.0,127.0,181.0,126.0,128.0,25.0,-114.0,-69.0,127.0,127.0,127.0,121.0,85.0,-58.0
126.0,125.0,129.0,129.0,127.0,181.0,126.0,128.0,25.0,-114.0,-69.0,127.0,127.0,127.0,121.0,85.0,-58.0
126.0,125.0,129.0,129.0,127.0,180.0,126.0,128.0,25.0,-114.0,-69.0,127.0,127.0,127.0,121.0,85.0,-58.0
126.0,126.0,128.0,129.0,127.0,180.0,126.0,128.0,25.0,-114.0,-69.0,127.0,127.0,127.0,121.0,85.0,-58.0
126.0,126.0,128.0,129.0,127.0,180.0,126.0,128.0,25.0,-114.0,-69.0,127.0,127.0,127.0,121.0,85.0,-58.0
126.0,126.0,128.0,129.0,127.0,180.0,126.0,128.0,25.0,-114.0,-69.0,127.0,127.0,127.0,121.0,85.0,-58.0
126.0,125.0,129.0,131.0,127.0,178.0,124.0,128.0,25.0,-115.0,-69.0,127.0,127.0,127.0,121.0,85.0,-58.0
126.0,125.0,129.0,131.0,127.0,178.0,124.0,128.0,25.0,-115.0,-69.0,127.0,127.0,127.0,121.0,85.0,-58.0
126.0,124.0,131.0,131.0,127.0,178.0,124.0,128.0,25.0,-115.0,-69.0,127.0,127.0,127.0,121.0,85.0,-58.0
126.0,124.0,131.0,131.0,127.0,178.0,124.0,128.0,25.0,-115.0,-69.0,127.0,127.0,127.0,121.0,85.0,-58.0
126.0,124.0,131.0,131.0,127.0,178.0,124.0,128.0,25.0,-115.0,-69.0,127.0,127.0,127.0,121.0,85.0,-58.0
126.0,124.0,131.0,131.0,127.0,178.0,124.0,128.0,25.0,-115.0,-69.0,127.0,127.0,127.0,121.0,85.0,-58.0
126.0,125.0,130.0,131.0,127.0,178.0,124.0,128.0,25.0,-115.0,-69.0,127.0,127.0,127.0,121.0,85.0,-58.0
126.0,125.0,129.0,131.0,127.0,178.0,124.0,128.0,25.0,-115.0,-69.0,127.0,127.0,127.0,121.0,85.0,-58.0
126.0,125.0,129.0,131.0,127.0,178.0,124.0,128.0,25.0,-115.0,-69.0,127.0,127.0,127.0,121.0,85.0,-58.0
126.0,125.0,129.0,131.0,127.0,178.0,124.0,128.0,25.0,-115.0,-69.0,127.0,127.0,127.0,121.0,85.0,-58.0
126.0,125.0,138.0,131.0,127.0,167.0,122.0,128.0,25.0,-115.0,-69.0,-128.0,127.0,127.0,121.0,85.0,-58.0
126.0,125.0,138.0,131.0,127.0,167.0,122.0,128.0,25.0,-115.0,-69.0,-128.0,127.0,127.0,121.0,85.0,-58.0
126.0,124.0,138.0,131.0,127.0,167.0,122.0,128.0,25.0,-115.0,-69.0,-128.0,127.0,127.0,121.0,85.0,-58.0
126.0,125.0,138.0,131.0,128.0,166.0,122.0,128.0,25.0,-115.0,-69.0,-128.0,127.0,127.0,121.0,85.0,-58.0
126.0,125.0,137.0,131.0,128.0,166.0,122.0,128.0,25.0,-115.0,-69.0,-128.0,127.0,127.0,121.0,85.0,-58.0
126.0,125.0,137.0,131.0,128.0,166.0,121.0,128.0,25.0,-115.0,-69.0,-128.0,127.0,127.0,121.0,85.0,-58.0
126.0,125.0,137.0,131.0,128.0,166.0,121.0,128.0,25.0,-115.0,-69.0,-128.0,127.0,127.0,121.0,85.0,-58.0
126.0,125.0,136.0,131.0,128.0,165.0,121.0,128.0,25.0,-115.0,-69.0,-128.0,127.0,127.0,121.0,85.0,-58.0
126.0,125.0,136.0,131.0,128.0,165.0,121.0,128.0,25.0,-115.0,-69.0,-128.0,127.0,127.0,121.0,85.0,-58.0
126.0,125.0,136.0,131.0,128.0,165.0,122.0,128.0,25.0,-115.0,-69.0,-128.0,127.0,127.0,121.0,85.0,-58.0
125.0,124.0,138.0,130.0,129.0,149.0,121.0,128.0,24.0,-115.0,-70.0,-128.0,127.0,127.0,121.0,85.0,-58.0
126.0,124.0,138.0,130.0,129.0,149.0,121.0,128.0,24.0,-115.0,-70.0,-128.0,127.0,127.0,121.0,85.0,-58.0
126.0,124.0,138.0,131.0,129.0,149.0,121.0,128.0,24.0,-115.0,-70.0,-128.0,127.0,127.0,121.0,85.0,-58.0
126.0,124.0,138.0,131.0,129.0,148.0,121.0,128.0,24.0,-115.0,-70.0,-128.0,127.0,127.0,121.0,85.0,-58.0
126.0,124.0,137.0,131.0,129.0,148.0,122.0,128.0,24.0,-115.0,-70.0,-128.0,127.0,127.0,121.0,85.0,-58.0
125.0,124.0,137.0,131.0,129.0,148.0,122.0,128.0,24.0,-115.0,-70.0,-128.0,127.0,127.0,121.0,85.0,-58.0
125.0,125.0,137.0,131.0,129.0,147.0,122.0,128.0,24.0,-115.0,-70.0,-128.0,127.0,127.0,121.0,85.0,-58.0
125.0,125.0,137.0,131.0,129.0,147.0,122.0,128.0,24.0,-115.0,-70.0,-128.0,127.0,127.0,121.0,85.0,-58.0
125.0,125.0,136.0,132.0,129.0,146.0,122.0,128.0,24.0,-115.0,-70.0,-128.0,127.0,127.0,121.0,85.0,-58.0
126.0,126.0,136.0,132.0,129.0,146.0,122.0,128.0,24.0,-115.0,-70.0,-128.0,127.0,127.0,121.0,85.0,-58.0
126.0,124.0,135.0,130.0,130.0,135.0,124.0,128.0,24.0,-115.0,-70.0,-128.0,127.0,127.0,121.0,85.0,-58.0
126.0,125.0,134.0,131.0,130.0,135.0,124.0,128.0,24.0,-115.0,-70.0,-128.0,127.0,127.0,121.0,85.0,-58.0
126.0,125.0,134.0,131.0,130.0,134.0,124.0,128.0,24.0,-115.0,-70.0,-128.0,127.0,127.0,121.0,85.0,-58.0
126.0,125.0,134.0,130.0,130.0,134.0,124.0,128.0,24.0,-115.0,-70.0,-128.0,127.0,127.0,121.0,85.0,-58.0
126.0,125.0,133.0,130.0,130.0,134.0,124.0,128.0,24.0,-115.0,-70.0,-128.0,127.0,127.0,121.0,85.0,-58.0
126.0,125.0,133.0,130.0,129.0,134.0,123.0,128.0,24.0,-115.0,-70.0,-128.0,127.0,127.0,121.0,85.0,-58.0
126.0,125.0,133.0,130.0,129.0,134.0,123.0,128.0,24.0,-115.0,-70.0,-128.0,127.0,127.0,121.0,85.0,-58.0
126.0,125.0,133.0,130.0,129.0,133.0,123.0,128.0,24.0,-115.0,-70.0,-128.0,127.0,127.0,121.0,85.0,-58.0
126.0,125.0,133.0,130.0,129.0,133.0,123.0,128.0,24.0,-115.0,-70.0,-128.0,127.0,127.0,121.0,85.0,-58.0
126.0,124.0,135.0,130.0,130.0,135.0,124.0,128.0,24.0,-115.0,-70.0,-128.0,127.0,127.0,121.0,85.0,-58.0
126.0,125.0,128.0,128.0,128.0,123.0,118.0,128.0,25.0,-115.0,-70.0,-128.0,127.0,127.0,121.0,85.0,-58.0
126.0,125.0,127.0,128.0,128.0,123.0,118.0,128.0,25.0,-115.0,-70.0,-128.0,127.0,127.0,121.0,85.0,-58.0
126.0,125.0,127.0,128.0,128.0,124.0,118.0,128.0,25.0,-115.0,-70.0,-128.0,127.0,127.0,121.0,85.0,-58.0
126.0,125.0,126.0,128.0,128.0,124.0,118.0,128.0,25.0,-115.0,-70.0,-128.0,127.0,127.0,121.0,85.0,-58.0
126.0,126.0,125.0,128.0,128.0,124.0,118.0,128.0,25.0,-115.0,-70.0,-128.0,127.0,127.0,121.0,85.0,-58.0
126.0,125.0,125.0,128.0,128.0,124.0,118.0,128.0,25.0,-115.0,-70.0,-128.0,127.0,127.0,121.0,85.0,-58.0
126.0,125.0,125.0,128.0,128.0,124.0,118.0,128.0,25.0,-115.0,-70.0,-128.0,127.0,127.0,121.0,85.0,-58.0
126.0,125.0,128.0,128.0,128.0,123.0,118.0,128.0,25.0,-115.0,-70.0,-128.0,127.0,127.0,121.0,85.0,-58.0
126.0,125.0,128.0,128.0,128.0,123.0,118.0,128.0,25.0,-115.0,-70.0,-128.0,127.0,127.0,121.0,85.0,-58.0
126.0,125.0,128.0,128.0,128.0,123.0,118.0,128.0,25.0,-115.0,-70.0,-128.0,127.0,127.0,121.0,85.0,-58.0
126.0,126.0,112.0,127.0,128.0,133.0,116.0,128.0,25.0,-114.0,-70.0,-127.0,127.0,127.0,121.0,85.0,-58.0
127.0,126.0,111.0,127.0,128.0,133.0,116.0,128.0,25.0,-114.0,-70.0,-127.0,127.0,127.0,121.0,85.0,-58.0
127.0,126.0,111.0,127.0,128.0,133.0,117.0,128.0,25.0,-114.0,-70.0,-127.0,127.0,127.0,121.0,85.0,-58.0
126.0,126.0,111.0,127.0,128.0,133.0,117.0,128.0,25.0,-114.0,-70.0,-127.0,127.0,127.0,121.0,85.0,-58.0
127.0,126.0,110.0,127.0,128.0,133.0,117.0,128.0,25.0,-114.0,-70.0,-127.0,127.0,127.0,121.0,85.0,-58.0
127.0,126.0,110.0,127.0,128.0,133.0,117.0,128.0,25.0,-114.0,-70.0,-127.0,127.0,127.0,121.0,85.0,-58.0
127.0,126.0,113.0,127.0,128.0,132.0,116.0,128.0,25.0,-114.0,-70.0,-127.0,127.0,127.0,121.0,85.0,-58.0
127.0,126.0,113.0,127.0,128.0,133.0,116.0,128.0,25.0,-114.0,-70.0,-127.0,127.0,127.0,121.0,85.0,-58.0
127.0,126.0,113.0,127.0,128.0,133.0,116.0,128.0,25.0,-114.0,-70.0,-127.0,127.0,127.0,121.0,85.0,-58.0
127.0,126.0,112.0,127.0,128.0,133.0,116.0,128.0,25.0,-114.0,-70.0,-127.0,127.0,127.0,121.0,85.0,-58.0
127.0,126.0,117.0,128.0,130.0,129.0,117.0,128.0,26.0,-113.0,-69.0,-127.0,127.0,127.0,121.0,85.0,-58.0
127.0,126.0,117.0,128.0,130.0,129.0,117.0,128.0,26.0,-113.0,-69.0,-127.0,127.0,127.0,121.0,85.0,-58.0
127.0,126.0,117.0,128.0,130.0,129.0,117.0,128.0,26.0,-113.0,-69.0,-127.0,127.0,127.0,121.0,85.0,-58.0
127.0,126.0,117.0,128.0,130.0,129.0,117.0,128.0,26.0,-113.0,-69.0,-127.0,127.0,127.0,121.0,85.0,-58.0
127.0,126.0,118.0,128.0,130.0,129.0,117.0,128.0,26.0,-113.0,-69.0,-127.0,127.0,127.0,121.0,85.0,-58.0
127.0,126.0,115.0,128.0,130.0,130.0,116.0,128.0,26.0,-113.0,-69.0,-127.0,127.0,127.0,121.0,85.0,-58.0
127.0,126.0,116.0,128.0,130.0,130.0,116.0,128.0,26.0,-113.0,-69.0,-127.0,127.0,127.0,121.0,85.0,-58.0
127.0,126.0,116.0,128.0,130.0,130.0,116.0,128.0,26.0,-113.0,-69.0,-127.0,127.0,127.0,121.0,85.0,-58.0
127.0,126.0,116.0,128.0,130.0,130.0,116.0,128.0,26.0,-113.0,-69.0,-127.0,127.0,127.0,121.0,85.0,-58.0
127.0,126.0,116.0,128.0,130.0,130.0,117.0,128.0,26.0,-113.0,-69.0,-127.0,127.0,127.0,121.0,85.0,-58.0
126.0,128.0,125.0,130.0,132.0,127.0,119.0,128.0,26.0,-112.0,-69.0,-128.0,127.0,127.0,121.0,85.0,-58.0
126.0,128.0,125.0,131.0,132.0,127.0,119.0,128.0,26.0,-112.0,-69.0,-128.0,127.0,127.0,121.0,85.0,-58.0
126.0,128.0,125.0,131.0,132.0,127.0,119.0,128.0,26.0,-112.0,-69.0,-128.0,127.0,127.0,121.0,85.0,-58.0
126.0,128.0,125.0,131.0,132.0,127.0,119.0,128.0,26.0,-112.0,-69.0,-128.0,127.0,127.0,121.0,85.0,-58.0
126.0,128.0,124.0,130.0,131.0,127.0,118.0,128.0,26.0,-112.0,-69.0,-128.0,127.0,127.0,121.0,85.0,-58.0
126.0,128.0,124.0,130.0,131.0,127.0,118.0,128.0,26.0,-112.0,-69.0,-128.0,127.0,127.0,121.0,85.0,-58.0
126.0,128.0,124.0,130.0,131.0,127.0,118.0,128.0,26.0,-112.0,-69.0,-128.0,127.0,127.0,121.0,85.0,-58.0
126.0,128.0,124.0,130.0,132.0,127.0,118.0,128.0,26.0,-112.0,-69.0,-128.0,127.0,127.0,121.0,85.0,-58.0
126.0,128.0,124.0,130.0,132.0,127.0,118.0,128.0,26.0,-112.0,-69.0,-128.0,127.0,127.0,121.0,85.0,-58.0
126.0,128.0,124.0,130.0,132.0,127.0,118.0,128.0,26.0,-112.0,-69.0,-128.0,127.0,127.0,121.0,85.0,-58.0
126.0,128.0,128.0,130.0,131.0,127.0,122.0,128.0,27.0,-111.0,-69.0,-128.0,127.0,127.0,121.0,85.0,-58.0
126.0,129.0,127.0,130.0,131.0,127.0,122.0,128.0,27.0,-111.0,-69.0,-128.0,127.0,127.0,121.0,85.0,-58.0
126.0,129.0,127.0,130.0,131.0,127.0,122.0,128.0,27.0,-111.0,-69.0,-128.0,127.0,127.0,121.0,85.0,-58.0
126.0,128.0,128.0,130.0,132.0,127.0,121.0,128.0,27.0,-111.0,-69.0,-128.0,127.0,127.0,121.0,85.0,-58.0
126.0,129.0,128.0,130.0,132.0,127.0,121.0,128.0,27.0,-111.0,-69.0,-128.0,127.0,127.0,121.0,85.0,-58.0
126.0,129.0,128.0,130.0,132.0,127.0,121.0,128.0,27.0,-111.0,-69.0,-128.0,127.0,127.0,121.0,85.0,-58.0
126.0,129.0,128.0,130.0,132.0,127.0,121.0,128.0,27.0,-111.0,-69.0,-128.0,127.0,127.0,121.0,85.0,-58.0
126.0,129.0,128.0,130.0,131.0,127.0,121.0,128.0,27.0,-111.0,-69.0,-128.0,127.0,127.0,121.0,85.0,-58.0
126.0,129.0,128.0,130.0,132.0,127.0,121.0,128.0,27.0,-111.0,-69.0,-128.0,127.0,127.0,121.0,85.0,-58.0
126.0,129.0,128.0,130.0,131.0,127.0,122.0,128.0,27.0,-111.0,-69.0,-128.0,127.0,127.0,121.0,85.0,-58.0
127.0,130.0,128.0,131.0,132.0,121.0,122.0,128.0,27.0,-111.0,-69.0,-128.0,127.0,127.0,121.0,85.0,-58.0
127.0,130.0,128.0,131.0,132.0,121.0,122.0,128.0,27.0,-111.0,-69.0,-128.0,127.0,127.0,121.0,85.0,-58.0
127.0,129.0,129.0,131.0,132.0,122.0,121.0,128.0,27.0,-111.0,-69.0,-128.0,127.0,127.0,121.0,85.0,-58.0
127.0,130.0,129.0,131.0,132.0,122.0,121.0,128.0,27.0,-111.0,-69.0,-128.0,127.0,127.0,121.0,85.0,-58.0
127.0,130.0,129.0,131.0,132.0,121.0,122.0,128.0,27.0,-111.0,-69.0,-128.0,127.0,127.0,121.0,85.0,-58.0
127.0,130.0,128.0,131.0,132.0,121.0,121.0,128.0,27.0,-111.0,-69.0,-128.0,127.0,127.0,121.0,85.0,-58.0
127.0,130.0,128.0,131.0,132.0,122.0,121.0,128.0,27.0,-111.0,-69.0,-128.0,127.0,127.0,121.0,85.0,-58.0
127.0,130.0,128.0,131.0,132.0,121.0,122.0,128.0,27.0,-111.0,-69.0,-128.0,127.0,127.0,121.0,85.0,-58.0
127.0,130.0,128.0,131.0,132.0,121.0,122.0,128.0,27.0,-111.0,-69.0,-128.0,127.0,127.0,121.0,85.0,-58.0
127.0,130.0,128.0,131.0,132.0,121.0,122.0,128.0,27.0,-111.0,-69.0,-128.0,127.0,127.0,121.0,85.0,-58.0
128.0,128.0,129.0,129.0,131.0,150.0,124.0,128.0,28.0,-112.0,-69.0,-128.0,127.0,127.0,121.0,85.0,-58.0
128.0,127.0,131.0,130.0,131.0,142.0,124.0,128.0,28.0,-112.0,-69.0,-128.0,127.0,127.0,121.0,85.0,-58.0
128.0,127.0,131.0,130.0,131.0,143.0,124.0,128.0,28.0,-112.0,-69.0,-128.0,127.0,127.0,121.0,85.0,-58.0
128.0,128.0,131.0,130.0,131.0,144.0,124.0,128.0,28.0,-112.0,-69.0,-128.0,127.0,127.0,121.0,85.0,-58.0
128.0,128.0,131.0,130.0,131.0,144.0,124.0,128.0,28.0,-112.0,-69.0,-128.0,127.0,127.0,121.0,85.0,-58.0
128.0,128.0,131.0,129.0,131.0,145.0,124.0,128.0,28.0,-112.0,-69.0,-128.0,127.0,127.0,121.0,85.0,-58.0
128.0,128.0,130.0,129.0,131.0,146.0,124.0,128.0,28.0,-112.0,-69.0,-128.0,127.0,127.0,121.0,85.0,-58.0
128.0,128.0,130.0,129.0,131.0,147.0,124.0,128.0,28.0,-112.0,-69.0,-128.0,127.0,127.0,121.0,85.0,-58.0
128.0,128.0,129.0,129.0,131.0,148.0,124.0,128.0,28.0,-112.0,-69.0,-128.0,127.0,127.0,121.0,85.0,-58.0
128.0,128.0,129.0,129.0,131.0,149.0,124.0,128.0,28.0,-112.0,-69.0,-128.0,127.0,127.0,121.0,85.0,-58.0
128.0,127.0,131.0,127.0,129.0,174.0,122.0,128.0,27.0,-111.0,-69.0,-127.0,127.0,127.0,121.0,85.0,-58.0
128.0,127.0,131.0,127.0,129.0,175.0,122.0,128.0,27.0,-111.0,-69.0,-127.0,127.0,127.0,121.0,85.0,-58.0
128.0,127.0,130.0,127.0,129.0,175.0,122.0,128.0,27.0,-111.0,-69.0,-127.0,127.0,127.0,121.0,85.0,-58.0
128.0,127.0,130.0,127.0,129.0,176.0,122.0,128.0,27.0,-111.0,-69.0,-127.0,127.0,127.0,121.0,85.0,-58.0
128.0,127.0,130.0,127.0,129.0,176.0,122.0,128.0,27.0,-111.0,-69.0,-127.0,127.0,127.0,121.0,85.0,-58.0
128.0,127.0,130.0,127.0,129.0,176.0,122.0,128.0,27.0,-111.0,-69.0,-127.0,127.0,127.0,121.0,85.0,-58.0
128.0,127.0,130.0,127.0,129.0,177.0,122.0,128.0,27.0,-111.0,-69.0,-127.0,127.0,127.0,121.0,85.0,-58.0
128.0,127.0,130.0,127.0,129.0,177.0,122.0,128.0,27.0,-111.0,-69.0,-127.0,127.0,127.0,121.0,85.0,-58.0
128.0,127.0,130.0,127.0,129.0,177.0,122.0,128.0,27.0,-111.0,-69.0,-127.0,127.0,127.0,121.0,85.0,-58.0
128.0,127.0,129.0,127.0,129.0,178.0,122.0,128.0,27.0,-111.0,-69.0,-127.0,127.0,127.0,121.0,85.0,-58.0
129.0,127.0,132.0,126.0,128.0,185.0,123.0,128.0,27.0,-110.0,-69.0,-127.0,127.0,127.0,121.0,85.0,-58.0
129.0,127.0,131.0,126.0,128.0,185.0,124.0,128.0,27.0,-110.0,-69.0,-127.0,127.0,127.0,121.0,85.0,-58.0
129.0,127.0,131.0,126.0,128.0,185.0,124.0,128.0,27.0,-110.0,-69.0,-127.0,127.0,127.0,121.0,85.0,-58.0
129.0,127.0,131.0,126.0,128.0,185.0,124.0,128.0,27.0,-110.0,-69.0,-127.0,127.0,127.0,121.0,85.0,-58.0
129.0,127.0,131.0,126.0,128.0,185.0,124.0,128.0,27.0,-110.0,-69.0,-127.0,127.0,127.0,121.0,85.0,-58.0
129.0,127.0,131.0,126.0,128.0,185.0,124.0,128.0,27.0,-110.0,-69.0,-127.0,127.0,127.0,121.0,85.0,-58.0
129.0,127.0,131.0,126.0,128.0,185.0,125.0,128.0,27.0,-110.0,-69.0,-127.0,127.0,127.0,121.0,85.0,-58.0
129.0,127.0,131.0,126.0,128.0,185.0,125.0,128.0,27.0,-110.0,-69.0,-127.0,127.0,127.0,121.0,85.0,-58.0
129.0,127.0,131.0,127.0,128.0,185.0,125.0,128.0,27.0,-110.0,-69.0,-127.0,127.0,127.0,121.0,85.0,-58.0
129.0,126.0,132.0,126.0,128.0,184.0,124.0,128.0,27.0,-110.0,-69.0,-127.0,127.0,127.0,121.0,85.0,-58.0
129.0,127.0,140.0,127.0,127.0,178.0,127.0,128.0,27.0,-109.0,-69.0,-127.0,127.0,127.0,120.0,85.0,-58.0
129.0,127.0,140.0,126.0,127.0,178.0,127.0,128.0,27.0,-109.0,-69.0,-127.0,127.0,127.0,120.0,85.0,-58.0
129.0,127.0,140.0,127.0,127.0,178.0,127.0,128.0,27.0,-109.0,-69.0,-127.0,127.0,127.0,120.0,85.0,-58.0
129.0,127.0,140.0,127.0,127.0,178.0,127.0,128.0,27.0,-109.0,-69.0,-127.0,127.0,127.0,120.0,85.0,-58.0
129.0,127.0,140.0,127.0,127.0,178.0,127.0,128.0,27.0,-109.0,-69.0,-127.0,127.0,127.0,120.0,85.0,-58.0
129.0,127.0,140.0,127.0,127.0,178.0,127.0,128.0,27.0,-109.0,-69.0,-127.0,127.0,127.0,120.0,85.0,-58.0
129.0,127.0,140.0,127.0,126.0,177.0,127.0,128.0,27.0,-109.0,-69.0,-127.0,127.0,127.0,120.0,85.0,-58.0
129.0,127.0,140.0,127.0,126.0,177.0,127.0,128.0,27.0,-109.0,-69.0,-127.0,127.0,127.0,120.0,85.0,-58.0
129.0,127.0,141.0,127.0,127.0,178.0,127.0,128.0,27.0,-109.0,-69.0,-127.0,127.0,127.0,120.0,85.0,-58.0
129.0,127.0,140.0,127.0,127.0,178.0,127.0,128.0,27.0,-109.0,-69.0,-127.0,127.0,127.0,120.0,85.0,-58.0
129.0,127.0,140.0,128.0,128.0,185.0,129.0,128.0,26.0,-107.0,-69.0,-128.0,127.0,127.0,120.0,85.0,-58.0
129.0,127.0,140.0,128.0,128.0,185.0,129.0,128.0,26.0,-107.0,-69.0,-128.0,127.0,127.0,120.0,85.0,-58.0
129.0,127.0,139.0,128.0,128.0,186.0,129.0,128.0,26.0,-107.0,-69.0,-128.0,127.0,127.0,120.0,85.0,-58.0
129.0,127.0,139.0,128.0,128.0,186.0,129.0,128.0,26.0,-107.0,-69.0,-128.0,127.0,127.0,120.0,85.0,-58.0
129.0,127.0,139.0,128.0,128.0,186.0,129.0,128.0,26.0,-107.0,-69.0,-128.0,127.0,127.0,120.0,85.0,-58.0
129.0,127.0,139.0,128.0,128.0,186.0,130.0,128.0,26.0,-107.0,-69.0,-128.0,127.0,127.0,120.0,85.0,-58.0
129.0,127.0,138.0,128.0,128.0,186.0,130.0,128.0,26.0,-107.0,-69.0,-128.0,127.0,127.0,120.0,85.0,-58.0
129.0,127.0,141.0,128.0,128.0,184.0,129.0,128.0,26.0,-107.0,-69.0,-128.0,127.0,127.0,120.0,85.0,-58.0
129.0,127.0,140.0,128.0,128.0,185.0,129.0,128.0,26.0,-107.0,-69.0,-128.0,127.0,127.0,120.0,85.0,-58.0
129.0,127.0,140.0,128.0,128.0,185.0,129.0,128.0,26.0,-107.0,-69.0,-128.0,127.0,127.0,120.0,85.0,-58.0
129.0,128.0,133.0,128.0,127.0,189.0,129.0,128.0,26.0,-106.0,-70.0,-128.0,127.0,127.0,119.0,85.0,-58.0
129.0,128.0,133.0,128.0,127.0,189.0,129.0,128.0,26.0,-106.0,-70.0,-128.0,127.0,127.0,119.0,85.0,-58.0
129.0,128.0,133.0,128.0,128.0,189.0,129.0,128.0,26.0,-106.0,-70.0,-128.0,127.0,127.0,119.0,85.0,-58.0
129.0,128.0,133.0,128.0,128.0,189.0,129.0,128.0,26.0,-106.0,-70.0,-128.0,127.0,127.0,119.0,85.0,-58.0
129.0,128.0,133.0,128.0,128.0,189.0,129.0,128.0,26.0,-106.0,-70.0,-128.0,127.0,127.0,119.0,85.0,-58.0
129.0,128.0,133.0,128.0,128.0,189.0,129.0,128.0,26.0,-106.0,-70.0,-128.0,127.0,127.0,119.0,85.0,-58.0
129.0,128.0,135.0,128.0,127.0,189.0,129.0,128.0,26.0,-106.0,-70.0,-128.0,127.0,127.0,119.0,85.0,-58.0
129.0,128.0,134.0,128.0,127.0,189.0,129.0,128.0,26.0,-106.0,-70.0,-128.0,127.0,127.0,119.0,85.0,-58.0
129.0,128.0,134.0,128.0,127.0,189.0,129.0,128.0,26.0,-106.0,-70.0,-128.0,127.0,127.0,119.0,85.0,-58.0
129.0,128.0,133.0,128.0,127.0,189.0,129.0,128.0,26.0,-106.0,-70.0,-128.0,127.0,127.0,119.0,85.0,-58.0
129.0,128.0,136.0,128.0,127.0,224.0,128.0,128.0,26.0,-106.0,-70.0,-128.0,127.0,127.0,119.0,85.0,-58.0
129.0,128.0,136.0,128.0,127.0,224.0,128.0,128.0,26.0,-106.0,-70.0,-128.0,127.0,127.0,119.0,85.0,-58.0
129.0,128.0,137.0,128.0,127.0,225.0,128.0,128.0,26.0,-106.0,-70.0,-128.0,127.0,127.0,119.0,85.0,-58.0
129.0,128.0,137.0,128.0,127.0,226.0,128.0,128.0,26.0,-106.0,-70.0,-128.0,127.0,127.0,119.0,85.0,-58.0
129.0,128.0,137.0,128.0,127.0,226.0,129.0,128.0,26.0,-106.0,-70.0,-128.0,127.0,127.0,119.0,85.0,-58.0
129.0,128.0,137.0,128.0,127.0,219.0,128.0,128.0,26.0,-106.0,-70.0,-128.0,127.0,127.0,119.0,85.0,-58.0
129.0,128.0,136.0,128.0,127.0,220.0,128.0,128.0,26.0,-106.0,-70.0,-128.0,127.0,127.0,119.0,85.0,-58.0
129.0,128.0,136.0,128.0,127.0,221.0,128.0,128.0,26.0,-106.0,-70.0,-128.0,127.0,127.0,119.0,85.0,-58.0
129.0,128.0,136.0,128.0,127.0,222.0,128.0,128.0,26.0,-106.0,-70.0,-128.0,127.0,127.0,119.0,85.0,-58.0
129.0,128.0,136.0,128.0,127.0,223.0,128.0,128.0,26.0,-106.0,-70.0,-128.0,127.0,127.0,119.0,85.0,-58.0
129.0,128.0,135.0,128.0,127.0,254.0,128.0,128.0,25.0,-106.0,-70.0,-128.0,127.0,127.0,118.0,85.0,-58.0
129.0,128.0,135.0,128.0,127.0,254.0,128.0,127.0,25.0,-106.0,-70.0,-128.0,127.0,127.0,118.0,85.0,-58.0
129.0,128.0,136.0,128.0,127.0,254.0,128.0,128.0,25.0,-106.0,-70.0,-128.0,127.0,127.0,118.0,85.0,-58.0
129.0,128.0,136.0,128.0,127.0,254.0,128.0,127.0,25.0,-106.0,-70.0,-128.0,127.0,127.0,118.0,85.0,-58.0
129.0,127.0,136.0,128.0,127.0,254.0,128.0,127.0,25.0,-106.0,-70.0,-128.0,127.0,127.0,118.0,85.0,-58.0
129.0,127.0,136.0,128.0,127.0,254.0,128.0,127.0,25.0,-106.0,-70.0,-128.0,127.0,127.0,118.0,85.0,-58.0
129.0,128.0,135.0,128.0,127.0,254.0,128.0,127.0,25.0,-106.0,-70.0,-128.0,127.0,127.0,118.0,85.0,-58.0
129.0,128.0,135.0,128.0,127.0,254.0,128.0,127.0,25.0,-106.0,-70.0,-128.0,127.0,127.0,118.0,85.0,-58.0
129.0,128.0,135.0,128.0,127.0,254.0,128.0,127.0,25.0,-106.0,-70.0,-128.0,127.0,127.0,118.0,85.0,-58.0
129.0,128.0,135.0,128.0,127.0,254.0,128.0,127.0,25.0,-106.0,-70.0,-128.0,127.0,127.0,118.0,85.0,-58.0
129.0,128.0,147.0,128.0,128.0,254.0,127.0,128.0,25.0,-107.0,-71.0,-128.0,127.0,127.0,118.0,85.0,-58.0
129.0,127.0,147.0,128.0,128.0,254.0,127.0,128.0,25.0,-107.0,-71.0,-128.0,127.0,127.0,118.0,85.0,-58.0
129.0,128.0,147.0,128.0,128.0,254.0,127.0,128.0,25.0,-107.0,-71.0,-128.0,127.0,127.0,118.0,85.0,-58.0
129.0,127.0,146.0,128.0,127.0,254.0,127.0,128.0,25.0,-107.0,-71.0,-128.0,127.0,127.0,118.0,85.0,-58.0
129.0,127.0,147.0,128.0,127.0,254.0,127.0,128.0,25.0,-107.0,-71.0,-128.0,127.0,127.0,118.0,85.0,-58.0
129.0,127.0,147.0,128.0,127.0,254.0,128.0,128.0,25.0,-107.0,-71.0,-128.0,127.0,127.0,118.0,85.0,-58.0
129.0,127.0,147.0,128.0,128.0,254.0,127.0,128.0,25.0,-107.0,-71.0,-128.0,127.0,127.0,118.0,85.0,-58.0
129.0,127.0,147.0,128.0,128.0,254.0,127.0,128.0,25.0,-107.0,-71.0,-128.0,127.0,127.0,118.0,85.0,-58.0
129.0,127.0,147.0,128.0,128.0,254.0,127.0,128.0,25.0,-107.0,-71.0,-128.0,127.0,127.0,118.0,85.0,-58.0
129.0,128.0,147.0,128.0,128.0,254.0,127.0,128.0,25.0,-107.0,-71.0,-128.0,127.0,127.0,118.0,85.0,-58.0
130.0,128.0,158.0,128.0,127.0,143.0,128.0,128.0,25.0,-106.0,-71.0,-128.0,127.0,127.0,118.0,85.0,-58.0
130.0,128.0,158.0,128.0,127.0,141.0,128.0,128.0,25.0,-106.0,-71.0,-128.0,127.0,127.0,118.0,85.0,-58.0
130.0,128.0,157.0,128.0,128.0,167.0,128.0,128.0,25.0,-106.0,-71.0,-128.0,127.0,127.0,118.0,85.0,-58.0
130.0,128.0,157.0,128.0,128.0,164.0,128.0,128.0,25.0,-106.0,-71.0,-128.0,127.0,127.0,118.0,85.0,-58.0
130.0,128.0,157.0,128.0,127.0,161.0,128.0,128.0,25.0,-106.0,-71.0,-128.0,127.0,127.0,118.0,85.0,-58.0
129.0,128.0,157.0,128.0,127.0,158.0,128.0,128.0,25.0,-106.0,-71.0,-128.0,127.0,127.0,118.0,85.0,-58.0
130.0,128.0,157.0,128.0,127.0,155.0,128.0,128.0,25.0,-106.0,-71.0,-128.0,127.0,127.0,118.0,85.0,-58.0
130.0,128.0,158.0,128.0,127.0,152.0,128.0,128.0,25.0,-106.0,-71.0,-128.0,127.0,127.0,118.0,85.0,-58.0
129.0,128.0,158.0,128.0,127.0,149.0,128.0,128.0,25.0,-106.0,-71.0,-128.0,127.0,127.0,118.0,85.0,-58.0
130.0,128.0,158.0,128.0,127.0,146.0,128.0,128.0,25.0,-106.0,-71.0,-128.0,127.0,127.0,118.0,85.0,-58.0
130.0,128.0,152.0,127.0,127.0,63.0,129.0,128.0,25.0,-105.0,-72.0,-128.0,127.0,127.0,118.0,85.0,-58.0
130.0,128.0,154.0,126.0,127.0,73.0,128.0,128.0,25.0,-105.0,-72.0,-128.0,127.0,127.0,118.0,85.0,-58.0
130.0,128.0,153.0,126.0,127.0,72.0,128.0,128.0,25.0,-105.0,-72.0,-128.0,127.0,127.0,118.0,85.0,-58.0
130.0,128.0,153.0,126.0,127.0,71.0,128.0,128.0,25.0,-105.0,-72.0,-128.0,127.0,127.0,118.0,85.0,-58.0
130.0,128.0,153.0,126.0,127.0,70.0,128.0,128.0,25.0,-105.0,-72.0,-128.0,127.0,127.0,118.0,85.0,-58.0
130.0,128.0,153.0,126.0,127.0,69.0,128.0,128.0,25.0,-105.0,-72.0,-128.0,127.0,127.0,118.0,85.0,-58.0
130.0,128.0,152.0,126.0,127.0,67.0,128.0,128.0,25.0,-105.0,-72.0,-128.0,127.0,127.0,118.0,85.0,-58.0
130.0,128.0,152.0,126.0,127.0,66.0,128.0,128.0,25.0,-105.0,-72.0,-128.0,127.0,127.0,118.0,85.0,-58.0
130.0,128.0,152.0,126.0,127.0,65.0,129.0,128.0,25.0,-105.0,-72.0,-128.0,127.0,127.0,118.0,85.0,-58.0
130.0,128.0,152.0,126.0,127.0,64.0,129.0,128.0,25.0,-105.0,-72.0,-128.0,127.0,127.0,118.0,85.0,-58.0
130.0,128.0,144.0,126.0,126.0,53.0,127.0,128.0,26.0,-105.0,-71.0,-128.0,127.0,127.0,117.0,85.0,-58.0
130.0,128.0,143.0,126.0,126.0,53.0,127.0,128.0,26.0,-105.0,-71.0,-128.0,127.0,127.0,117.0,85.0,-58.0
130.0,128.0,143.0,126.0,126.0,53.0,127.0,128.0,26.0,-105.0,-71.0,-128.0,127.0,127.0,117.0,85.0,-58.0
129.0,128.0,143.0,126.0,126.0,53.0,127.0,128.0,26.0,-105.0,-71.0,-128.0,127.0,127.0,117.0,85.0,-58.0
129.0,128.0,143.0,126.0,126.0,53.0,127.0,128.0,26.0,-105.0,-71.0,-128.0,127.0,127.0,117.0,85.0,-58.0
129.0,128.0,143.0,126.0,126.0,53.0,127.0,128.0,26.0,-105.0,-71.0,-128.0,127.0,127.0,117.0,85.0,-58.0
129.0,128.0,142.0,126.0,126.0,52.0,127.0,128.0,26.0,-105.0,-71.0,-128.0,127.0,127.0,117.0,85.0,-58.0
129.0,128.0,142.0,126.0,126.0,52.0,128.0,128.0,26.0,-105.0,-71.0,-128.0,127.0,127.0,117.0,85.0,-58.0
129.0,128.0,142.0,126.0,126.0,52.0,128.0,128.0,26.0,-105.0,-71.0,-128.0,127.0,127.0,117.0,85.0,-58.0
129.0,128.0,142.0,126.0,126.0,52.0,128.0,128.0,26.0,-105.0,-71.0,-128.0,127.0,127.0,117.0,85.0,-58.0
129.0,128.0,141.0,127.0,126.0,59.0,128.0,128.0,26.0,-105.0,-71.0,-128.0,127.0,127.0,117.0,85.0,-58.0
129.0,128.0,141.0,127.0,126.0,59.0,128.0,128.0,26.0,-105.0,-71.0,-128.0,127.0,127.0,117.0,85.0,-58.0
129.0,128.0,141.0,127.0,126.0,59.0,128.0,128.0,26.0,-105.0,-71.0,-128.0,127.0,127.0,117.0,85.0,-58.0
129.0,128.0,141.0,127.0,126.0,59.0,128.0,128.0,26.0,-105.0,-71.0,-128.0,127.0,127.0,117.0,85.0,-58.0
129.0,128.0,141.0,127.0,126.0,59.0,128.0,128.0,26.0,-105.0,-71.0,-128.0,127.0,127.0,117.0,85.0,-58.0
129.0,128.0,141.0,127.0,126.0,59.0,128.0,128.0,26.0,-105.0,-71.0,-128.0,127.0,127.0,117.0,85.0,-58.0
129.0,128.0,141.0,127.0,126.0,59.0,128.0,128.0,26.0,-105.0,-71.0,-128.0,127.0,127.0,117.0,85.0,-58.0
129.0,127.0,142.0,127.0,126.0,59.0,128.0,128.0,26.0,-105.0,-71.0,-128.0,127.0,127.0,117.0,85.0,-58.0
129.0,127.0,142.0,127.0,126.0,59.0,128.0,128.0,26.0,-105.0,-71.0,-128.0,127.0,127.0,117.0,85.0,-58.0
129.0,128.0,141.0,126.0,126.0,59.0,128.0,128.0,26.0,-105.0,-71.0,-128.0,127.0,127.0,117.0,85.0,-58.0
129.0,127.0,151.0,127.0,126.0,64.0,128.0,128.0,27.0,-105.0,-71.0,-128.0,127.0,127.0,116.0,86.0,-58.0
129.0,127.0,151.0,127.0,126.0,64.0,128.0,128.0,27.0,-105.0,-71.0,-128.0,127.0,127.0,116.0,86.0,-58.0
129.0,127.0,151.0,127.0,126.0,64.0,128.0,128.0,27.0,-105.0,-71.0,-128.0,127.0,127.0,116.0,86.0,-58.0
129.0,127.0,152.0,127.0,127.0,64.0,128.0,128.0,27.0,-105.0,-71.0,-128.0,127.0,127.0,116.0,86.0,-58.0
129.0,127.0,152.0,127.0,126.0,64.0,128.0,128.0,27.0,-105.0,-71.0,-128.0,127.0,127.0,116.0,86.0,-58.0
129.0,127.0,153.0,127.0,127.0,63.0,128.0,128.0,27.0,-105.0,-71.0,-128.0,127.0,127.0,116.0,86.0,-58.0
129.0,127.0,153.0,127.0,127.0,63.0,128.0,128.0,27.0,-105.0,-71.0,-128.0,127.0,127.0,116.0,86.0,-58.0
129.0,127.0,154.0,128.0,127.0,63.0,129.0,128.0,27.0,-105.0,-71.0,-128.0,127.0,127.0,116.0,86.0,-58.0
128.0,127.0,150.0,127.0,126.0,64.0,128.0,128.0,27.0,-105.0,-71.0,-128.0,127.0,127.0,116.0,86.0,-58.0
129.0,127.0,150.0,127.0,126.0,64.0,128.0,128.0,27.0,-105.0,-71.0,-128.0,127.0,127.0,116.0,86.0,-58.0
129.0,128.0,158.0,129.0,128.0,63.0,128.0,128.0,27.0,-105.0,-70.0,127.0,127.0,127.0,116.0,86.0,-58.0
129.0,128.0,157.0,129.0,128.0,63.0,128.0,128.0,27.0,-105.0,-70.0,127.0,127.0,127.0,116.0,86.0,-58.0
129.0,128.0,157.0,129.0,128.0,63.0,128.0,128.0,27.0,-105.0,-70.0,127.0,127.0,127.0,116.0,86.0,-58.0
129.0,128.0,157.0,129.0,128.0,62.0,128.0,128.0,27.0,-105.0,-70.0,127.0,127.0,127.0,116.0,86.0,-58.0
129.0,128.0,157.0,129.0,128.0,62.0,128.0,128.0,27.0,-105.0,-70.0,127.0,127.0,127.0,116.0,86.0,-58.0
129.0,128.0,157.0,129.0,128.0,62.0,129.0,128.0,27.0,-105.0,-70.0,127.0,127.0,127.0,116.0,86.0,-58.0
129.0,128.0,157.0,129.0,128.0,61.0,129.0,128.0,27.0,-105.0,-70.0,127.0,127.0,127.0,116.0,86.0,-58.0
129.0,128.0,159.0,129.0,128.0,63.0,128.0,128.0,27.0,-105.0,-70.0,127.0,127.0,127.0,116.0,86.0,-58.0
129.0,128.0,158.0,129.0,128.0,63.0,128.0,128.0,27.0,-105.0,-70.0,127.0,127.0,127.0,116.0,86.0,-58.0
129.0,128.0,158.0,129.0,128.0,63.0,128.0,128.0,27.0,-105.0,-70.0,127.0,127.0,127.0,116.0,86.0,-58.0
129.0,128.0,155.0,127.0,127.0,61.0,128.0,128.0,27.0,-105.0,-70.0,127.0,127.0,127.0,116.0,86.0,-58.0
129.0,128.0,155.0,127.0,127.0,61.0,128.0,128.0,27.0,-105.0,-70.0,127.0,127.0,127.0,116.0,86.0,-58.0
129.0,128.0,155.0,127.0,127.0,61.0,128.0,128.0,27.0,-105.0,-70.0,127.0,127.0,127.0,116.0,86.0,-58.0
129.0,128.0,155.0,127.0,127.0,60.0,128.0,128.0,27.0,-105.0,-70.0,127.0,127.0,127.0,116.0,86.0,-58.0
129.0,128.0,155.0,127.0,127.0,60.0,128.0,128.0,27.0,-105.0,-70.0,127.0,127.0,127.0,116.0,86.0,-58.0
129.0,128.0,154.0,127.0,127.0,60.0,128.0,128.0,27.0,-105.0,-70.0,127.0,127.0,127.0,116.0,86.0,-58.0
129.0,128.0,155.0,128.0,127.0,61.0,128.0,128.0,27.0,-105.0,-70.0,127.0,127.0,127.0,116.0,86.0,-58.0
129.0,128.0,155.0,127.0,127.0,61.0,128.0,128.0,27.0,-105.0,-70.0,127.0,127.0,127.0,116.0,86.0,-58.0
129.0,128.0,155.0,127.0,127.0,61.0,128.0,128.0,27.0,-105.0,-70.0,127.0,127.0,127.0,116.0,86.0,-58.0
129.0,128.0,155.0,127.0,127.0,61.0,128.0,128.0,27.0,-105.0,-70.0,127.0,127.0,127.0,116.0,86.0,-58.0
129.0,127.0,155.0,126.0,125.0,65.0,127.0,128.0,28.0,-106.0,-70.0,127.0,127.0,127.0,116.0,86.0,-58.0
129.0,127.0,155.0,126.0,125.0,65.0,127.0,128.0,28.0,-106.0,-70.0,127.0,127.0,127.0,116.0,86.0,-58.0
129.0,127.0,155.0,126.0,125.0,65.0,127.0,128.0,28.0,-106.0,-70.0,127.0,127.0,127.0,116.0,86.0,-58.0
129.0,127.0,155.0,126.0,125.0,65.0,127.0,128.0,28.0,-106.0,-70.0,127.0,127.0,127.0,116.0,86.0,-58.0
129.0,127.0,155.0,126.0,125.0,66.0,127.0,128.0,28.0,-106.0,-70.0,127.0,127.0,127.0,116.0,86.0,-58.0
129.0,126.0,157.0,126.0,125.0,63.0,127.0,128.0,28.0,-106.0,-70.0,127.0,127.0,127.0,116.0,86.0,-58.0
129.0,126.0,156.0,126.0,125.0,63.0,127.0,128.0,28.0,-106.0,-70.0,127.0,127.0,127.0,116.0,86.0,-58.0
129.0,126.0,156.0,126.0,125.0,63.0,127.0,128.0,28.0,-106.0,-70.0,127.0,127.0,127.0,116.0,86.0,-58.0
129.0,127.0,155.0,126.0,125.0,65.0,127.0,128.0,28.0,-106.0,-70.0,127.0,127.0,127.0,116.0,86.0,-58.0
129.0,127.0,155.0,126.0,125.0,65.0,127.0,128.0,28.0,-106.0,-70.0,127.0,127.0,127.0,116.0,86.0,-58.0
