emg1,emg2,emg3,emg4,emg5,emg6,emg7,emg8,acc_x,acc_y,acc_z,gyro_x,gyro_y,gyro_z,angle_pitch,angle_roll,angle_yaw
129.0,128.0,124.0,120.0,126.0,147.0,126.0,129.0,35.0,-109.0,-61.0,127.0,127.0,127.0,117.0,92.0,-57.0
129.0,127.0,126.0,120.0,126.0,145.0,127.0,128.0,35.0,-109.0,-61.0,127.0,127.0,127.0,117.0,92.0,-57.0
129.0,127.0,125.0,120.0,126.0,146.0,127.0,128.0,35.0,-109.0,-61.0,127.0,127.0,127.0,117.0,92.0,-57.0
129.0,127.0,125.0,120.0,126.0,146.0,127.0,128.0,35.0,-109.0,-61.0,127.0,127.0,127.0,117.0,92.0,-57.0
129.0,127.0,126.0,120.0,126.0,146.0,127.0,128.0,35.0,-108.0,-61.0,127.0,127.0,127.0,117.0,92.0,-57.0
129.0,127.0,126.0,120.0,126.0,146.0,127.0,128.0,35.0,-108.0,-61.0,127.0,127.0,127.0,117.0,92.0,-57.0
129.0,127.0,126.0,120.0,126.0,145.0,127.0,128.0,35.0,-108.0,-61.0,127.0,127.0,127.0,117.0,92.0,-57.0
129.0,127.0,126.0,120.0,126.0,145.0,127.0,128.0,35.0,-108.0,-61.0,127.0,127.0,127.0,117.0,92.0,-57.0
129.0,127.0,126.0,121.0,126.0,145.0,127.0,128.0,35.0,-108.0,-61.0,127.0,127.0,127.0,117.0,92.0,-57.0
129.0,127.0,126.0,120.0,126.0,145.0,127.0,128.0,35.0,-108.0,-61.0,127.0,127.0,127.0,117.0,92.0,-57.0
129.0,126.0,126.0,120.0,126.0,146.0,127.0,128.0,35.0,-108.0,-61.0,127.0,127.0,127.0,117.0,92.0,-57.0
129.0,126.0,126.0,120.0,126.0,146.0,127.0,128.0,35.0,-108.0,-61.0,127.0,127.0,127.0,117.0,92.0,-57.0
129.0,126.0,126.0,120.0,126.0,146.0,127.0,128.0,35.0,-108.0,-61.0,127.0,127.0,127.0,117.0,92.0,-57.0
129.0,127.0,126.0,120.0,126.0,146.0,127.0,128.0,35.0,-108.0,-61.0,127.0,127.0,127.0,117.0,92.0,-57.0
129.0,127.0,125.0,121.0,126.0,145.0,127.0,128.0,35.0,-109.0,-61.0,127.0,127.0,127.0,117.0,92.0,-57.0
129.0,127.0,125.0,121.0,126.0,146.0,127.0,128.0,35.0,-109.0,-61.0,127.0,127.0,127.0,117.0,92.0,-57.0
129.0,127.0,125.0,121.0,126.0,146.0,127.0,128.0,35.0,-109.0,-61.0,127.0,127.0,127.0,117.0,92.0,-57.0
129.0,127.0,124.0,121.0,126.0,146.0,127.0,128.0,35.0,-109.0,-61.0,127.0,127.0,127.0,117.0,92.0,-57.0
129.0,127.0,125.0,121.0,126.0,146.0,127.0,128.0,35.0,-109.0,-61.0,127.0,127.0,127.0,117.0,92.0,-57.0
129.0,127.0,125.0,121.0,126.0,146.0,126.0,128.0,35.0,-109.0,-61.0,127.0,127.0,127.0,117.0,92.0,-57.0
129.0,127.0,125.0,121.0,126.0,146.0,127.0,128.0,35.0,-109.0,-61.0,127.0,127.0,127.0,117.0,92.0,-57.0
129.0,127.0,125.0,121.0,126.0,146.0,127.0,128.0,35.0,-109.0,-61.0,127.0,127.0,127.0,117.0,92.0,-57.0
129.0,127.0,125.0,121.0,126.0,146.0,127.0,128.0,35.0,-109.0,-61.0,127.0,127.0,127.0,117.0,92.0,-57.0
129.0,127.0,125.0,121.0,126.0,145.0,127.0,128.0,35.0,-109.0,-61.0,127.0,127.0,127.0,117.0,92.0,-57.0
129.0,127.0,125.0,122.0,127.0,147.0,126.0,128.0,34.0,-109.0,-62.0,127.0,127.0,127.0,116.0,92.0,-57.0
129.0,127.0,125.0,122.0,127.0,147.0,126.0,128.0,34.0,-109.0,-62.0,127.0,127.0,127.0,116.0,92.0,-57.0
129.0,127.0,125.0,122.0,127.0,147.0,126.0,129.0,34.0,-109.0,-62.0,127.0,127.0,127.0,116.0,92.0,-57.0
129.0,127.0,125.0,122.0,127.0,147.0,127.0,128.0,34.0,-109.0,-62.0,127.0,127.0,127.0,116.0,92.0,-57.0
129.0,127.0,127.0,121.0,127.0,146.0,126.0,128.0,34.0,-109.0,-62.0,127.0,127.0,127.0,116.0,92.0,-57.0
129.0,127.0,126.0,121.0,127.0,147.0,126.0,129.0,34.0,-109.0,-62.0,127.0,127.0,127.0,116.0,92.0,-57.0
129.0,127.0,126.0,121.0,127.0,146.0,126.0,128.0,34.0,-109.0,-62.0,127.0,127.0,127.0,116.0,92.0,-57.0
129.0,127.0,126.0,121.0,127.0,146.0,126.0,128.0,34.0,-109.0,-62.0,127.0,127.0,127.0,116.0,92.0,-57.0
129.0,127.0,126.0,121.0,127.0,146.0,127.0,128.0,34.0,-109.0,-62.0,127.0,127.0,127.0,116.0,92.0,-57.0
129.0,127.0,126.0,122.0,127.0,146.0,126.0,128.0,34.0,-109.0,-62.0,127.0,127.0,127.0,116.0,92.0,-57.0
129.0,127.0,125.0,121.0,127.0,147.0,127.0,129.0,34.0,-109.0,-62.0,127.0,127.0,127.0,116.0,92.0,-57.0
129.0,127.0,125.0,121.0,127.0,147.0,127.0,129.0,34.0,-109.0,-62.0,127.0,127.0,127.0,116.0,92.0,-57.0
129.0,127.0,125.0,121.0,127.0,147.0,127.0,129.0,34.0,-109.0,-62.0,127.0,127.0,127.0,116.0,92.0,-57.0
129.0,127.0,127.0,121.0,127.0,147.0,126.0,129.0,34.0,-109.0,-62.0,127.0,127.0,127.0,116.0,92.0,-57.0
129.0,127.0,126.0,121.0,127.0,147.0,127.0,129.0,34.0,-109.0,-62.0,127.0,127.0,127.0,116.0,92.0,-57.0
129.0,127.0,126.0,121.0,127.0,147.0,127.0,129.0,34.0,-109.0,-62.0,127.0,127.0,127.0,116.0,92.0,-57.0
129.0,127.0,126.0,121.0,127.0,147.0,127.0,129.0,34.0,-109.0,-62.0,127.0,127.0,127.0,116.0,92.0,-57.0
129.0,127.0,126.0,121.0,127.0,146.0,127.0,128.0,34.0,-109.0,-62.0,127.0,127.0,127.0,116.0,92.0,-57.0
129.0,127.0,126.0,121.0,127.0,146.0,127.0,129.0,34.0,-109.0,-62.0,127.0,127.0,127.0,116.0,92.0,-57.0
129.0,127.0,126.0,121.0,127.0,147.0,127.0,129.0,34.0,-109.0,-62.0,127.0,127.0,127.0,116.0,92.0,-57.0
129.0,127.0,125.0,122.0,127.0,146.0,127.0,129.0,33.0,-109.0,-62.0,127.0,127.0,127.0,116.0,92.0,-57.0
129.0,127.0,125.0,122.0,127.0,146.0,127.0,129.0,33.0,-109.0,-62.0,127.0,127.0,127.0,116.0,92.0,-57.0
129.0,127.0,127.0,122.0,127.0,147.0,127.0,129.0,33.0,-109.0,-62.0,127.0,127.0,127.0,116.0,92.0,-57.0
129.0,127.0,126.0,122.0,127.0,147.0,127.0,129.0,33.0,-109.0,-62.0,127.0,127.0,127.0,116.0,92.0,-57.0
129.0,127.0,126.0,122.0,127.0,147.0,127.0,129.0,33.0,-109.0,-62.0,127.0,127.0,127.0,116.0,92.0,-57.0
129.0,127.0,126.0,122.0,127.0,146.0,127.0,129.0,33.0,-109.0,-62.0,127.0,127.0,127.0,116.0,92.0,-57.0
129.0,127.0,126.0,122.0,127.0,146.0,127.0,129.0,33.0,-109.0,-62.0,127.0,127.0,127.0,116.0,92.0,-57.0
129.0,127.0,126.0,122.0,127.0,146.0,127.0,129.0,33.0,-109.0,-62.0,127.0,127.0,127.0,116.0,92.0,-57.0
129.0,127.0,126.0,122.0,127.0,146.0,127.0,129.0,33.0,-109.0,-62.0,127.0,127.0,127.0,116.0,92.0,-57.0
129.0,127.0,125.0,122.0,128.0,147.0,127.0,129.0,33.0,-109.0,-62.0,127.0,127.0,127.0,116.0,92.0,-57.0
129.0,127.0,127.0,122.0,127.0,145.0,126.0,129.0,33.0,-109.0,-63.0,127.0,127.0,127.0,116.0,92.0,-57.0
129.0,126.0,128.0,121.0,127.0,144.0,126.0,129.0,33.0,-109.0,-63.0,127.0,127.0,127.0,116.0,92.0,-57.0
130.0,126.0,128.0,122.0,127.0,145.0,126.0,129.0,33.0,-109.0,-63.0,127.0,127.0,127.0,116.0,92.0,-57.0
129.0,126.0,128.0,122.0,127.0,145.0,126.0,129.0,33.0,-109.0,-63.0,127.0,127.0,127.0,116.0,92.0,-57.0
129.0,126.0,128.0,122.0,127.0,145.0,126.0,129.0,33.0,-109.0,-63.0,127.0,127.0,127.0,116.0,92.0,-57.0
129.0,126.0,128.0,122.0,127.0,144.0,127.0,129.0,33.0,-109.0,-63.0,127.0,127.0,127.0,116.0,92.0,-57.0
129.0,126.0,127.0,122.0,127.0,144.0,127.0,129.0,33.0,-109.0,-63.0,127.0,127.0,127.0,116.0,92.0,-57.0
129.0,126.0,127.0,122.0,127.0,144.0,126.0,129.0,33.0,-109.0,-63.0,127.0,127.0,127.0,116.0,92.0,-57.0
129.0,127.0,127.0,122.0,127.0,145.0,126.0,129.0,33.0,-109.0,-63.0,127.0,127.0,127.0,116.0,92.0,-57.0
129.0,127.0,127.0,122.0,127.0,145.0,126.0,129.0,33.0,-109.0,-63.0,127.0,127.0,127.0,116.0,92.0,-57.0
129.0,126.0,129.0,122.0,127.0,144.0,126.0,128.0,32.0,-109.0,-64.0,-128.0,127.0,127.0,116.0,92.0,-57.0
129.0,126.0,128.0,122.0,127.0,145.0,126.0,129.0,32.0,-109.0,-64.0,-128.0,127.0,127.0,116.0,92.0,-57.0
129.0,126.0,128.0,122.0,127.0,145.0,127.0,129.0,32.0,-109.0,-64.0,-128.0,127.0,127.0,116.0,92.0,-57.0
129.0,126.0,128.0,122.0,127.0,145.0,127.0,129.0,32.0,-109.0,-64.0,-128.0,127.0,127.0,116.0,92.0,-57.0
129.0,126.0,128.0,122.0,127.0,144.0,127.0,129.0,32.0,-109.0,-64.0,-128.0,127.0,127.0,116.0,92.0,-57.0
128.0,126.0,128.0,122.0,127.0,144.0,127.0,129.0,32.0,-109.0,-64.0,-128.0,127.0,127.0,116.0,92.0,-57.0
128.0,126.0,128.0,122.0,127.0,144.0,127.0,129.0,32.0,-109.0,-64.0,-128.0,127.0,127.0,116.0,92.0,-57.0
128.0,127.0,127.0,122.0,127.0,145.0,127.0,129.0,32.0,-109.0,-64.0,-128.0,127.0,127.0,116.0,92.0,-57.0
128.0,127.0,127.0,122.0,127.0,145.0,127.0,129.0,32.0,-109.0,-64.0,-128.0,127.0,127.0,116.0,92.0,-57.0
129.0,127.0,127.0,122.0,127.0,145.0,127.0,129.0,32.0,-109.0,-64.0,-128.0,127.0,127.0,116.0,92.0,-57.0
129.0,126.0,128.0,122.0,126.0,146.0,126.0,128.0,31.0,-109.0,-65.0,-128.0,127.0,127.0,116.0,92.0,-57.0
129.0,126.0,128.0,122.0,126.0,146.0,126.0,129.0,31.0,-109.0,-65.0,-128.0,127.0,127.0,116.0,92.0,-57.0
129.0,126.0,128.0,122.0,126.0,146.0,127.0,129.0,31.0,-109.0,-65.0,-128.0,127.0,127.0,116.0,92.0,-57.0
129.0,126.0,128.0,122.0,126.0,145.0,127.0,129.0,31.0,-109.0,-65.0,-128.0,127.0,127.0,116.0,92.0,-57.0
129.0,126.0,127.0,122.0,126.0,145.0,127.0,129.0,31.0,-109.0,-65.0,-128.0,127.0,127.0,116.0,92.0,-57.0
129.0,126.0,127.0,122.0,126.0,145.0,127.0,129.0,31.0,-109.0,-65.0,-128.0,127.0,127.0,116.0,92.0,-57.0
129.0,126.0,127.0,122.0,126.0,146.0,126.0,129.0,31.0,-109.0,-65.0,-128.0,127.0,127.0,116.0,92.0,-57.0
129.0,126.0,126.0,122.0,126.0,146.0,127.0,129.0,31.0,-109.0,-65.0,-128.0,127.0,127.0,116.0,92.0,-57.0
129.0,126.0,127.0,122.0,126.0,146.0,127.0,129.0,31.0,-109.0,-65.0,-128.0,127.0,127.0,116.0,92.0,-57.0
129.0,126.0,129.0,121.0,126.0,145.0,126.0,128.0,31.0,-109.0,-65.0,-128.0,127.0,127.0,116.0,92.0,-57.0
129.0,126.0,128.0,122.0,126.0,145.0,126.0,128.0,30.0,-109.0,-66.0,-128.0,127.0,127.0,116.0,92.0,-58.0
129.0,126.0,128.0,122.0,126.0,145.0,126.0,128.0,30.0,-109.0,-66.0,-128.0,127.0,127.0,116.0,92.0,-58.0
129.0,126.0,127.0,122.0,126.0,144.0,126.0,128.0,30.0,-109.0,-66.0,-128.0,127.0,127.0,116.0,92.0,-58.0
129.0,126.0,127.0,122.0,126.0,144.0,126.0,128.0,30.0,-109.0,-66.0,-128.0,127.0,127.0,116.0,92.0,-58.0
129.0,126.0,127.0,122.0,126.0,144.0,126.0,128.0,30.0,-109.0,-66.0,-128.0,127.0,127.0,116.0,92.0,-58.0
129.0,126.0,127.0,122.0,126.0,144.0,126.0,128.0,30.0,-109.0,-66.0,-128.0,127.0,127.0,116.0,92.0,-58.0
129.0,126.0,127.0,122.0,126.0,144.0,126.0,128.0,30.0,-109.0,-66.0,-128.0,127.0,127.0,116.0,92.0,-58.0
129.0,126.0,127.0,122.0,126.0,144.0,127.0,128.0,30.0,-109.0,-66.0,-128.0,127.0,127.0,116.0,92.0,-58.0
129.0,126.0,128.0,121.0,126.0,145.0,126.0,128.0,30.0,-109.0,-66.0,-128.0,127.0,127.0,116.0,92.0,-58.0
129.0,126.0,128.0,122.0,126.0,145.0,126.0,128.0,30.0,-109.0,-66.0,-128.0,127.0,127.0,116.0,92.0,-58.0
129.0,127.0,124.0,122.0,127.0,144.0,127.0,128.0,30.0,-108.0,-67.0,127.0,127.0,127.0,116.0,92.0,-58.0
128.0,127.0,124.0,122.0,127.0,145.0,127.0,128.0,30.0,-108.0,-67.0,127.0,127.0,127.0,116.0,92.0,-58.0
129.0,127.0,123.0,122.0,127.0,145.0,127.0,128.0,30.0,-108.0,-67.0,127.0,127.0,127.0,116.0,92.0,-58.0
129.0,127.0,123.0,122.0,127.0,145.0,127.0,128.0,30.0,-108.0,-67.0,127.0,127.0,127.0,116.0,92.0,-58.0
129.0,127.0,123.0,122.0,127.0,144.0,127.0,128.0,30.0,-108.0,-67.0,127.0,127.0,127.0,116.0,92.0,-58.0
129.0,127.0,123.0,122.0,127.0,144.0,127.0,128.0,30.0,-108.0,-67.0,127.0,127.0,127.0,116.0,92.0,-58.0
129.0,127.0,123.0,122.0,127.0,144.0,127.0,128.0,30.0,-108.0,-67.0,127.0,127.0,127.0,116.0,92.0,-58.0
129.0,127.0,124.0,122.0,127.0,145.0,126.0,128.0,30.0,-108.0,-67.0,127.0,127.0,127.0,116.0,92.0,-58.0
129.0,127.0,124.0,122.0,127.0,145.0,127.0,128.0,30.0,-108.0,-67.0,127.0,127.0,127.0,116.0,92.0,-58.0
129.0,127.0,124.0,122.0,127.0,144.0,127.0,128.0,30.0,-108.0,-67.0,127.0,127.0,127.0,116.0,92.0,-58.0
128.0,127.0,125.0,122.0,127.0,143.0,127.0,128.0,29.0,-108.0,-68.0,127.0,127.0,127.0,116.0,92.0,-58.0
128.0,128.0,124.0,123.0,127.0,144.0,127.0,128.0,29.0,-108.0,-68.0,127.0,127.0,127.0,116.0,92.0,-58.0
128.0,128.0,124.0,123.0,127.0,144.0,127.0,128.0,29.0,-108.0,-68.0,127.0,127.0,127.0,116.0,92.0,-58.0
128.0,128.0,124.0,123.0,127.0,144.0,127.0,128.0,29.0,-108.0,-68.0,127.0,127.0,127.0,116.0,92.0,-58.0
128.0,128.0,124.0,123.0,127.0,144.0,127.0,128.0,29.0,-108.0,-68.0,127.0,127.0,127.0,116.0,92.0,-58.0
128.0,128.0,124.0,123.0,127.0,144.0,127.0,128.0,29.0,-108.0,-68.0,127.0,127.0,127.0,116.0,92.0,-58.0
129.0,127.0,125.0,122.0,127.0,144.0,127.0,128.0,29.0,-108.0,-68.0,127.0,127.0,127.0,116.0,92.0,-58.0
129.0,127.0,125.0,122.0,127.0,143.0,127.0,128.0,29.0,-108.0,-68.0,127.0,127.0,127.0,116.0,92.0,-58.0
129.0,127.0,125.0,122.0,127.0,143.0,127.0,128.0,29.0,-108.0,-68.0,127.0,127.0,127.0,116.0,92.0,-58.0
129.0,127.0,125.0,122.0,127.0,143.0,127.0,128.0,29.0,-108.0,-68.0,127.0,127.0,127.0,116.0,92.0,-58.0
128.0,128.0,124.0,122.0,127.0,144.0,127.0,128.0,29.0,-108.0,-70.0,127.0,127.0,127.0,116.0,92.0,-58.0
128.0,128.0,124.0,122.0,127.0,144.0,127.0,128.0,29.0,-108.0,-70.0,127.0,127.0,127.0,116.0,92.0,-58.0
128.0,128.0,124.0,122.0,127.0,143.0,127.0,128.0,29.0,-108.0,-70.0,127.0,127.0,127.0,116.0,92.0,-58.0
128.0,128.0,124.0,122.0,127.0,143.0,127.0,128.0,29.0,-108.0,-70.0,127.0,127.0,127.0,116.0,92.0,-58.0
128.0,128.0,124.0,122.0,127.0,143.0,127.0,128.0,29.0,-108.0,-70.0,127.0,127.0,127.0,116.0,92.0,-58.0
128.0,127.0,125.0,122.0,126.0,143.0,127.0,128.0,29.0,-108.0,-70.0,127.0,127.0,127.0,116.0,92.0,-58.0
128.0,127.0,125.0,122.0,126.0,143.0,127.0,128.0,29.0,-108.0,-70.0,127.0,127.0,127.0,116.0,92.0,-58.0
128.0,127.0,125.0,122.0,126.0,143.0,127.0,128.0,29.0,-108.0,-70.0,127.0,127.0,127.0,116.0,92.0,-58.0
128.0,127.0,125.0,122.0,126.0,143.0,127.0,128.0,29.0,-108.0,-70.0,127.0,127.0,127.0,116.0,92.0,-58.0
128.0,127.0,125.0,122.0,126.0,143.0,127.0,128.0,29.0,-108.0,-70.0,127.0,127.0,127.0,116.0,92.0,-58.0
128.0,127.0,125.0,123.0,127.0,144.0,127.0,128.0,30.0,-109.0,-71.0,127.0,127.0,127.0,116.0,92.0,-58.0
128.0,127.0,125.0,123.0,127.0,144.0,127.0,128.0,30.0,-109.0,-71.0,127.0,127.0,127.0,116.0,92.0,-58.0
128.0,127.0,125.0,123.0,127.0,143.0,127.0,128.0,30.0,-109.0,-71.0,127.0,127.0,127.0,116.0,92.0,-58.0
128.0,127.0,125.0,123.0,127.0,143.0,127.0,128.0,30.0,-109.0,-71.0,127.0,127.0,127.0,116.0,92.0,-58.0
128.0,127.0,126.0,122.0,127.0,144.0,127.0,128.0,30.0,-109.0,-71.0,127.0,127.0,127.0,116.0,92.0,-58.0
128.0,126.0,126.0,122.0,127.0,143.0,127.0,128.0,30.0,-109.0,-71.0,127.0,127.0,127.0,116.0,92.0,-58.0
128.0,126.0,126.0,122.0,127.0,143.0,127.0,128.0,30.0,-109.0,-71.0,127.0,127.0,127.0,116.0,92.0,-58.0
128.0,127.0,126.0,123.0,127.0,143.0,127.0,128.0,30.0,-109.0,-71.0,127.0,127.0,127.0,116.0,92.0,-58.0
128.0,127.0,126.0,122.0,127.0,143.0,127.0,128.0,30.0,-109.0,-71.0,127.0,127.0,127.0,116.0,92.0,-58.0
128.0,127.0,125.0,123.0,127.0,144.0,127.0,128.0,30.0,-109.0,-71.0,127.0,127.0,127.0,116.0,92.0,-58.0
128.0,127.0,125.0,123.0,127.0,143.0,127.0,128.0,31.0,-109.0,-71.0,127.0,127.0,127.0,116.0,91.0,-58.0
128.0,127.0,125.0,123.0,127.0,143.0,127.0,128.0,31.0,-109.0,-71.0,127.0,127.0,127.0,116.0,91.0,-58.0
128.0,127.0,125.0,123.0,127.0,143.0,127.0,128.0,31.0,-109.0,-71.0,127.0,127.0,127.0,116.0,91.0,-58.0
128.0,127.0,127.0,122.0,127.0,143.0,126.0,128.0,31.0,-109.0,-71.0,127.0,127.0,127.0,116.0,91.0,-58.0
128.0,126.0,127.0,122.0,127.0,143.0,126.0,128.0,31.0,-109.0,-71.0,127.0,127.0,127.0,116.0,91.0,-58.0
128.0,126.0,127.0,122.0,127.0,143.0,127.0,128.0,31.0,-109.0,-71.0,127.0,127.0,127.0,116.0,91.0,-58.0
128.0,126.0,126.0,122.0,127.0,143.0,127.0,128.0,31.0,-109.0,-71.0,127.0,127.0,127.0,116.0,91.0,-58.0
128.0,126.0,126.0,122.0,127.0,143.0,127.0,128.0,31.0,-109.0,-71.0,127.0,127.0,127.0,116.0,91.0,-58.0
128.0,127.0,126.0,122.0,127.0,143.0,126.0,128.0,31.0,-109.0,-71.0,127.0,127.0,127.0,116.0,91.0,-58.0
128.0,127.0,125.0,123.0,127.0,143.0,127.0,128.0,31.0,-109.0,-71.0,127.0,127.0,127.0,116.0,91.0,-58.0
128.0,127.0,125.0,123.0,127.0,142.0,127.0,128.0,31.0,-109.0,-72.0,127.0,127.0,127.0,116.0,91.0,-58.0
128.0,126.0,127.0,122.0,127.0,142.0,126.0,128.0,31.0,-109.0,-72.0,127.0,127.0,127.0,116.0,91.0,-58.0
128.0,126.0,127.0,122.0,127.0,142.0,126.0,128.0,31.0,-109.0,-72.0,127.0,127.0,127.0,116.0,91.0,-58.0
128.0,126.0,126.0,122.0,127.0,142.0,126.0,128.0,31.0,-109.0,-72.0,127.0,127.0,127.0,116.0,91.0,-58.0
128.0,126.0,126.0,122.0,127.0,142.0,127.0,128.0,31.0,-109.0,-72.0,127.0,127.0,127.0,116.0,91.0,-58.0
128.0,126.0,126.0,123.0,127.0,142.0,127.0,128.0,31.0,-109.0,-72.0,127.0,127.0,127.0,116.0,91.0,-58.0
128.0,126.0,126.0,123.0,127.0,142.0,127.0,128.0,31.0,-109.0,-72.0,127.0,127.0,127.0,116.0,91.0,-58.0
128.0,127.0,125.0,123.0,127.0,142.0,127.0,128.0,31.0,-109.0,-72.0,127.0,127.0,127.0,116.0,91.0,-58.0
128.0,127.0,125.0,123.0,127.0,142.0,127.0,128.0,31.0,-109.0,-72.0,127.0,127.0,127.0,116.0,91.0,-58.0
128.0,127.0,125.0,123.0,127.0,142.0,127.0,128.0,31.0,-109.0,-72.0,127.0,127.0,127.0,116.0,91.0,-58.0
128.0,127.0,126.0,123.0,127.0,142.0,126.0,128.0,32.0,-109.0,-73.0,127.0,127.0,127.0,116.0,91.0,-58.0
128.0,127.0,126.0,123.0,127.0,142.0,126.0,128.0,32.0,-109.0,-73.0,127.0,127.0,127.0,116.0,91.0,-58.0
128.0,127.0,126.0,123.0,127.0,141.0,127.0,128.0,32.0,-109.0,-73.0,127.0,127.0,127.0,116.0,91.0,-58.0
128.0,127.0,126.0,123.0,127.0,141.0,127.0,128.0,32.0,-109.0,-73.0,127.0,127.0,127.0,116.0,91.0,-58.0
128.0,127.0,125.0,123.0,127.0,141.0,127.0,128.0,32.0,-109.0,-73.0,127.0,127.0,127.0,116.0,91.0,-58.0
128.0,127.0,125.0,123.0,127.0,141.0,127.0,128.0,32.0,-109.0,-73.0,127.0,127.0,127.0,116.0,91.0,-58.0
128.0,127.0,125.0,123.0,127.0,141.0,127.0,128.0,32.0,-109.0,-73.0,127.0,127.0,127.0,116.0,91.0,-58.0
128.0,127.0,125.0,123.0,127.0,142.0,127.0,128.0,32.0,-109.0,-73.0,127.0,127.0,127.0,116.0,91.0,-58.0
128.0,127.0,125.0,123.0,127.0,142.0,127.0,128.0,32.0,-109.0,-73.0,127.0,127.0,127.0,116.0,91.0,-58.0
128.0,127.0,125.0,123.0,127.0,142.0,127.0,128.0,32.0,-109.0,-73.0,127.0,127.0,127.0,116.0,91.0,-58.0
128.0,126.0,127.0,123.0,127.0,141.0,127.0,128.0,33.0,-110.0,-73.0,127.0,127.0,127.0,116.0,90.0,-58.0
128.0,126.0,127.0,123.0,127.0,141.0,127.0,128.0,33.0,-110.0,-73.0,127.0,127.0,127.0,116.0,90.0,-58.0
128.0,126.0,127.0,123.0,127.0,141.0,127.0,128.0,33.0,-110.0,-73.0,127.0,127.0,127.0,116.0,90.0,-58.0
128.0,126.0,127.0,123.0,127.0,141.0,127.0,128.0,33.0,-110.0,-73.0,127.0,127.0,127.0,116.0,90.0,-58.0
128.0,126.0,127.0,123.0,127.0,141.0,127.0,128.0,33.0,-110.0,-73.0,127.0,127.0,127.0,116.0,90.0,-58.0
128.0,126.0,127.0,123.0,127.0,141.0,127.0,128.0,33.0,-110.0,-73.0,127.0,127.0,127.0,116.0,90.0,-58.0
128.0,126.0,127.0,123.0,127.0,141.0,127.0,128.0,33.0,-110.0,-73.0,127.0,127.0,127.0,116.0,90.0,-58.0
128.0,127.0,127.0,123.0,127.0,141.0,127.0,128.0,33.0,-110.0,-73.0,127.0,127.0,127.0,116.0,90.0,-58.0
128.0,127.0,126.0,123.0,127.0,141.0,127.0,128.0,33.0,-110.0,-73.0,127.0,127.0,127.0,116.0,90.0,-58.0
128.0,127.0,126.0,123.0,127.0,142.0,127.0,128.0,33.0,-110.0,-73.0,127.0,127.0,127.0,116.0,90.0,-58.0
127.0,126.0,127.0,122.0,127.0,143.0,127.0,128.0,35.0,-111.0,-73.0,127.0,127.0,127.0,116.0,90.0,-58.0
127.0,126.0,127.0,122.0,127.0,143.0,127.0,128.0,35.0,-111.0,-73.0,127.0,127.0,127.0,116.0,90.0,-58.0
127.0,127.0,127.0,122.0,127.0,143.0,127.0,128.0,35.0,-111.0,-73.0,127.0,127.0,127.0,116.0,90.0,-58.0
127.0,127.0,127.0,123.0,127.0,143.0,127.0,128.0,35.0,-111.0,-73.0,127.0,127.0,127.0,116.0,90.0,-58.0
127.0,127.0,127.0,123.0,127.0,143.0,127.0,128.0,35.0,-111.0,-73.0,127.0,127.0,127.0,116.0,90.0,-58.0
127.0,126.0,126.0,123.0,127.0,143.0,127.0,128.0,35.0,-111.0,-73.0,127.0,127.0,127.0,116.0,90.0,-58.0
127.0,127.0,126.0,123.0,127.0,143.0,127.0,128.0,35.0,-111.0,-73.0,127.0,127.0,127.0,116.0,90.0,-58.0
127.0,127.0,126.0,123.0,127.0,143.0,127.0,128.0,35.0,-111.0,-73.0,127.0,127.0,127.0,116.0,90.0,-58.0
127.0,126.0,128.0,122.0,127.0,143.0,127.0,128.0,35.0,-111.0,-73.0,127.0,127.0,127.0,116.0,90.0,-58.0
127.0,126.0,127.0,122.0,127.0,143.0,127.0,128.0,35.0,-111.0,-73.0,127.0,127.0,127.0,116.0,90.0,-58.0
127.0,126.0,128.0,122.0,126.0,143.0,126.0,128.0,36.0,-112.0,-73.0,127.0,127.0,127.0,116.0,90.0,-58.0
127.0,126.0,128.0,122.0,127.0,144.0,126.0,128.0,36.0,-112.0,-73.0,127.0,127.0,127.0,116.0,90.0,-58.0
127.0,126.0,128.0,122.0,127.0,144.0,126.0,128.0,36.0,-112.0,-73.0,127.0,127.0,127.0,116.0,90.0,-58.0
127.0,126.0,127.0,122.0,126.0,144.0,126.0,128.0,36.0,-112.0,-73.0,127.0,127.0,127.0,116.0,90.0,-58.0
127.0,126.0,127.0,122.0,126.0,144.0,126.0,128.0,36.0,-112.0,-73.0,127.0,127.0,127.0,116.0,90.0,-58.0
127.0,126.0,127.0,122.0,126.0,144.0,126.0,128.0,36.0,-112.0,-73.0,127.0,127.0,127.0,116.0,90.0,-58.0
127.0,126.0,127.0,123.0,126.0,143.0,126.0,128.0,36.0,-112.0,-73.0,127.0,127.0,127.0,116.0,90.0,-58.0
127.0,125.0,129.0,122.0,127.0,143.0,126.0,128.0,36.0,-112.0,-73.0,127.0,127.0,127.0,116.0,90.0,-58.0
127.0,125.0,129.0,122.0,126.0,143.0,126.0,128.0,36.0,-112.0,-73.0,127.0,127.0,127.0,116.0,90.0,-58.0
127.0,125.0,128.0,122.0,126.0,143.0,126.0,128.0,36.0,-112.0,-73.0,127.0,127.0,127.0,116.0,90.0,-58.0
128.0,126.0,127.0,123.0,126.0,144.0,126.0,128.0,36.0,-112.0,-73.0,127.0,127.0,127.0,116.0,90.0,-58.0
128.0,126.0,127.0,123.0,126.0,144.0,126.0,128.0,36.0,-112.0,-73.0,127.0,127.0,127.0,116.0,90.0,-58.0
128.0,126.0,127.0,123.0,126.0,144.0,126.0,128.0,36.0,-112.0,-73.0,127.0,127.0,127.0,116.0,90.0,-58.0
128.0,126.0,127.0,123.0,126.0,144.0,126.0,128.0,36.0,-112.0,-73.0,127.0,127.0,127.0,116.0,90.0,-58.0
128.0,126.0,127.0,123.0,126.0,144.0,126.0,128.0,36.0,-112.0,-73.0,127.0,127.0,127.0,116.0,90.0,-58.0
128.0,126.0,127.0,123.0,126.0,144.0,126.0,128.0,36.0,-112.0,-73.0,127.0,127.0,127.0,116.0,90.0,-58.0
128.0,126.0,127.0,123.0,126.0,143.0,126.0,128.0,36.0,-112.0,-73.0,127.0,127.0,127.0,116.0,90.0,-58.0
128.0,126.0,128.0,123.0,126.0,144.0,126.0,128.0,36.0,-112.0,-73.0,127.0,127.0,127.0,116.0,90.0,-58.0
128.0,126.0,128.0,123.0,126.0,144.0,126.0,128.0,36.0,-112.0,-73.0,127.0,127.0,127.0,116.0,90.0,-58.0
128.0,126.0,128.0,123.0,126.0,144.0,126.0,128.0,36.0,-112.0,-73.0,127.0,127.0,127.0,116.0,90.0,-58.0
128.0,127.0,126.0,123.0,126.0,144.0,126.0,128.0,36.0,-113.0,-72.0,127.0,127.0,127.0,116.0,89.0,-58.0
128.0,126.0,126.0,123.0,126.0,144.0,126.0,128.0,36.0,-113.0,-72.0,127.0,127.0,127.0,116.0,89.0,-58.0
128.0,127.0,125.0,123.0,126.0,144.0,126.0,128.0,36.0,-113.0,-72.0,127.0,127.0,127.0,116.0,89.0,-58.0
128.0,127.0,125.0,123.0,126.0,144.0,126.0,128.0,36.0,-113.0,-72.0,127.0,127.0,127.0,116.0,89.0,-58.0
128.0,127.0,125.0,123.0,126.0,144.0,126.0,128.0,36.0,-113.0,-72.0,127.0,127.0,127.0,116.0,89.0,-58.0
128.0,127.0,125.0,123.0,126.0,143.0,126.0,128.0,36.0,-113.0,-72.0,127.0,127.0,127.0,116.0,89.0,-58.0
128.0,126.0,127.0,123.0,126.0,144.0,126.0,128.0,36.0,-113.0,-72.0,127.0,127.0,127.0,116.0,89.0,-58.0
128.0,126.0,127.0,123.0,126.0,144.0,126.0,128.0,36.0,-113.0,-72.0,127.0,127.0,127.0,116.0,89.0,-58.0
128.0,126.0,127.0,123.0,126.0,144.0,126.0,128.0,36.0,-113.0,-72.0,127.0,127.0,127.0,116.0,89.0,-58.0
128.0,126.0,126.0,123.0,126.0,144.0,126.0,128.0,36.0,-113.0,-72.0,127.0,127.0,127.0,116.0,89.0,-58.0
128.0,127.0,124.0,123.0,127.0,143.0,126.0,128.0,36.0,-113.0,-72.0,127.0,127.0,127.0,116.0,89.0,-58.0
128.0,127.0,124.0,123.0,127.0,143.0,126.0,128.0,36.0,-113.0,-72.0,127.0,127.0,127.0,116.0,89.0,-58.0
128.0,127.0,124.0,123.0,127.0,142.0,126.0,128.0,36.0,-113.0,-72.0,127.0,127.0,127.0,116.0,89.0,-58.0
128.0,127.0,124.0,124.0,127.0,142.0,126.0,128.0,36.0,-113.0,-72.0,127.0,127.0,127.0,116.0,89.0,-58.0
128.0,127.0,125.0,123.0,127.0,143.0,126.0,128.0,36.0,-113.0,-72.0,127.0,127.0,127.0,116.0,89.0,-58.0
128.0,126.0,125.0,123.0,127.0,143.0,126.0,128.0,36.0,-113.0,-72.0,127.0,127.0,127.0,116.0,89.0,-58.0
128.0,126.0,125.0,123.0,127.0,143.0,126.0,128.0,36.0,-113.0,-72.0,127.0,127.0,127.0,116.0,89.0,-58.0
128.0,126.0,125.0,123.0,127.0,142.0,126.0,128.0,36.0,-113.0,-72.0,127.0,127.0,127.0,116.0,89.0,-58.0
128.0,127.0,125.0,123.0,127.0,143.0,126.0,128.0,36.0,-113.0,-72.0,127.0,127.0,127.0,116.0,89.0,-58.0
128.0,127.0,124.0,123.0,127.0,143.0,126.0,128.0,36.0,-113.0,-72.0,127.0,127.0,127.0,116.0,89.0,-58.0
128.0,127.0,126.0,124.0,127.0,141.0,127.0,128.0,35.0,-113.0,-71.0,127.0,127.0,127.0,116.0,89.0,-58.0
128.0,127.0,126.0,124.0,127.0,141.0,127.0,128.0,35.0,-113.0,-71.0,127.0,127.0,127.0,116.0,89.0,-58.0
128.0,127.0,126.0,124.0,127.0,141.0,127.0,128.0,35.0,-113.0,-71.0,127.0,127.0,127.0,116.0,89.0,-58.0
128.0,126.0,127.0,123.0,127.0,142.0,127.0,128.0,35.0,-113.0,-71.0,127.0,127.0,127.0,116.0,89.0,-58.0
128.0,126.0,127.0,123.0,127.0,142.0,127.0,128.0,35.0,-113.0,-71.0,127.0,127.0,127.0,116.0,89.0,-58.0
128.0,126.0,127.0,123.0,127.0,141.0,127.0,128.0,35.0,-113.0,-71.0,127.0,127.0,127.0,116.0,89.0,-58.0
128.0,126.0,127.0,124.0,127.0,141.0,127.0,128.0,35.0,-113.0,-71.0,127.0,127.0,127.0,116.0,89.0,-58.0
128.0,126.0,126.0,123.0,127.0,141.0,127.0,128.0,35.0,-113.0,-71.0,127.0,127.0,127.0,116.0,89.0,-58.0
128.0,127.0,126.0,124.0,127.0,142.0,127.0,128.0,35.0,-113.0,-71.0,127.0,127.0,127.0,116.0,89.0,-58.0
128.0,127.0,126.0,124.0,127.0,142.0,127.0,128.0,35.0,-113.0,-71.0,127.0,127.0,127.0,116.0,89.0,-58.0
126.0,126.0,126.0,123.0,127.0,141.0,126.0,128.0,33.0,-114.0,-71.0,127.0,127.0,127.0,116.0,89.0,-58.0
126.0,126.0,126.0,123.0,127.0,141.0,126.0,128.0,33.0,-114.0,-71.0,127.0,127.0,127.0,116.0,89.0,-58.0
127.0,125.0,127.0,123.0,127.0,140.0,126.0,128.0,33.0,-114.0,-71.0,127.0,127.0,127.0,116.0,89.0,-58.0
127.0,125.0,127.0,123.0,127.0,140.0,126.0,128.0,33.0,-114.0,-71.0,127.0,127.0,127.0,116.0,89.0,-58.0
127.0,125.0,127.0,123.0,127.0,140.0,126.0,128.0,33.0,-114.0,-71.0,127.0,127.0,127.0,116.0,89.0,-58.0
127.0,125.0,127.0,123.0,127.0,140.0,126.0,128.0,33.0,-114.0,-71.0,127.0,127.0,127.0,116.0,89.0,-58.0
126.0,125.0,127.0,123.0,127.0,140.0,126.0,128.0,33.0,-114.0,-71.0,127.0,127.0,127.0,116.0,89.0,-58.0
126.0,126.0,126.0,123.0,127.0,140.0,126.0,128.0,33.0,-114.0,-71.0,127.0,127.0,127.0,116.0,89.0,-58.0
127.0,126.0,126.0,123.0,127.0,140.0,126.0,128.0,33.0,-114.0,-71.0,127.0,127.0,127.0,116.0,89.0,-58.0
126.0,126.0,126.0,123.0,127.0,140.0,126.0,128.0,33.0,-114.0,-71.0,127.0,127.0,127.0,116.0,89.0,-58.0
127.0,127.0,124.0,124.0,127.0,145.0,127.0,128.0,31.0,-114.0,-72.0,127.0,127.0,127.0,116.0,89.0,-58.0
127.0,126.0,125.0,123.0,127.0,146.0,126.0,128.0,31.0,-114.0,-72.0,127.0,127.0,127.0,116.0,89.0,-58.0
126.0,127.0,125.0,123.0,127.0,146.0,126.0,128.0,31.0,-114.0,-72.0,127.0,127.0,127.0,116.0,89.0,-58.0
126.0,127.0,124.0,123.0,127.0,146.0,126.0,128.0,31.0,-114.0,-72.0,127.0,127.0,127.0,116.0,89.0,-58.0
126.0,127.0,124.0,123.0,127.0,146.0,127.0,128.0,31.0,-114.0,-72.0,127.0,127.0,127.0,116.0,89.0,-58.0
127.0,127.0,124.0,124.0,127.0,146.0,127.0,128.0,31.0,-114.0,-72.0,127.0,127.0,127.0,116.0,89.0,-58.0
127.0,127.0,124.0,124.0,127.0,146.0,127.0,128.0,31.0,-114.0,-72.0,127.0,127.0,127.0,116.0,89.0,-58.0
127.0,127.0,124.0,124.0,127.0,146.0,127.0,128.0,31.0,-114.0,-72.0,127.0,127.0,127.0,116.0,89.0,-58.0
127.0,127.0,124.0,124.0,127.0,145.0,127.0,128.0,31.0,-114.0,-72.0,127.0,127.0,127.0,116.0,89.0,-58.0
127.0,127.0,124.0,124.0,127.0,145.0,127.0,128.0,31.0,-114.0,-72.0,127.0,127.0,127.0,116.0,89.0,-58.0
127.0,127.0,125.0,123.0,127.0,150.0,126.0,128.0,29.0,-114.0,-73.0,127.0,127.0,127.0,116.0,89.0,-58.0
127.0,127.0,125.0,123.0,127.0,150.0,126.0,128.0,29.0,-114.0,-73.0,127.0,127.0,127.0,116.0,89.0,-58.0
127.0,127.0,124.0,123.0,127.0,150.0,127.0,128.0,29.0,-114.0,-73.0,127.0,127.0,127.0,116.0,89.0,-58.0
127.0,127.0,124.0,123.0,127.0,150.0,127.0,128.0,29.0,-114.0,-73.0,127.0,127.0,127.0,116.0,89.0,-58.0
127.0,127.0,124.0,123.0,127.0,150.0,127.0,128.0,29.0,-114.0,-73.0,127.0,127.0,127.0,116.0,89.0,-58.0
127.0,127.0,124.0,124.0,127.0,149.0,127.0,128.0,29.0,-114.0,-73.0,127.0,127.0,127.0,116.0,89.0,-58.0
127.0,127.0,124.0,124.0,127.0,149.0,127.0,128.0,29.0,-114.0,-73.0,127.0,127.0,127.0,116.0,89.0,-58.0
127.0,127.0,124.0,124.0,127.0,149.0,127.0,128.0,29.0,-114.0,-73.0,127.0,127.0,127.0,116.0,89.0,-58.0
127.0,127.0,124.0,124.0,127.0,149.0,127.0,128.0,29.0,-114.0,-73.0,127.0,127.0,127.0,116.0,89.0,-58.0
127.0,127.0,124.0,124.0,127.0,149.0,127.0,128.0,29.0,-114.0,-73.0,127.0,127.0,127.0,116.0,89.0,-58.0
128.0,127.0,126.0,123.0,127.0,152.0,126.0,128.0,27.0,-113.0,-74.0,127.0,127.0,127.0,116.0,89.0,-58.0
128.0,127.0,125.0,123.0,127.0,152.0,126.0,128.0,27.0,-113.0,-74.0,127.0,127.0,127.0,116.0,89.0,-58.0
128.0,127.0,125.0,124.0,127.0,152.0,127.0,128.0,27.0,-113.0,-74.0,127.0,127.0,127.0,116.0,89.0,-58.0
127.0,127.0,125.0,124.0,127.0,152.0,127.0,128.0,27.0,-113.0,-74.0,127.0,127.0,127.0,116.0,89.0,-58.0
128.0,127.0,125.0,124.0,127.0,152.0,127.0,128.0,27.0,-113.0,-74.0,127.0,127.0,127.0,116.0,89.0,-58.0
127.0,127.0,125.0,124.0,127.0,151.0,127.0,128.0,27.0,-113.0,-74.0,127.0,127.0,127.0,116.0,89.0,-58.0
127.0,127.0,125.0,124.0,127.0,151.0,127.0,128.0,27.0,-113.0,-74.0,127.0,127.0,127.0,116.0,89.0,-58.0
127.0,127.0,125.0,124.0,127.0,151.0,127.0,128.0,27.0,-113.0,-74.0,127.0,127.0,127.0,116.0,89.0,-58.0
127.0,127.0,125.0,124.0,127.0,151.0,127.0,128.0,27.0,-113.0,-74.0,127.0,127.0,127.0,116.0,89.0,-58.0
128.0,127.0,126.0,123.0,127.0,152.0,126.0,128.0,27.0,-113.0,-74.0,127.0,127.0,127.0,116.0,89.0,-58.0
127.0,127.0,125.0,124.0,127.0,152.0,127.0,128.0,25.0,-113.0,-74.0,127.0,127.0,127.0,116.0,88.0,-58.0
126.0,127.0,125.0,124.0,127.0,152.0,127.0,128.0,25.0,-113.0,-74.0,127.0,127.0,127.0,116.0,88.0,-58.0
127.0,127.0,125.0,124.0,127.0,152.0,127.0,128.0,25.0,-113.0,-74.0,127.0,127.0,127.0,116.0,88.0,-58.0
127.0,127.0,125.0,124.0,127.0,152.0,127.0,128.0,25.0,-113.0,-74.0,127.0,127.0,127.0,116.0,88.0,-58.0
127.0,127.0,125.0,124.0,127.0,151.0,127.0,128.0,25.0,-113.0,-74.0,127.0,127.0,127.0,116.0,88.0,-58.0
127.0,127.0,125.0,124.0,127.0,151.0,127.0,128.0,25.0,-113.0,-74.0,127.0,127.0,127.0,116.0,88.0,-58.0
127.0,127.0,125.0,124.0,127.0,151.0,127.0,128.0,25.0,-113.0,-74.0,127.0,127.0,127.0,116.0,88.0,-58.0
127.0,127.0,124.0,124.0,127.0,151.0,127.0,128.0,25.0,-113.0,-74.0,127.0,127.0,127.0,116.0,88.0,-58.0
126.0,127.0,125.0,123.0,127.0,153.0,127.0,128.0,25.0,-113.0,-74.0,127.0,127.0,127.0,116.0,88.0,-58.0
126.0,127.0,125.0,124.0,127.0,152.0,127.0,128.0,25.0,-113.0,-74.0,127.0,127.0,127.0,116.0,88.0,-58.0
127.0,127.0,124.0,124.0,127.0,153.0,127.0,128.0,23.0,-113.0,-75.0,127.0,127.0,127.0,116.0,88.0,-59.0
127.0,127.0,124.0,124.0,127.0,153.0,127.0,128.0,23.0,-113.0,-75.0,127.0,127.0,127.0,116.0,88.0,-59.0
127.0,127.0,124.0,124.0,127.0,153.0,127.0,128.0,23.0,-113.0,-75.0,127.0,127.0,127.0,116.0,88.0,-59.0
127.0,127.0,124.0,124.0,127.0,153.0,127.0,128.0,23.0,-113.0,-75.0,127.0,127.0,127.0,116.0,88.0,-59.0
127.0,127.0,123.0,124.0,127.0,152.0,127.0,128.0,23.0,-113.0,-75.0,127.0,127.0,127.0,116.0,88.0,-59.0
127.0,127.0,123.0,124.0,127.0,152.0,127.0,128.0,23.0,-113.0,-75.0,127.0,127.0,127.0,116.0,88.0,-59.0
127.0,127.0,123.0,124.0,127.0,152.0,127.0,128.0,23.0,-113.0,-75.0,127.0,127.0,127.0,116.0,88.0,-59.0
127.0,127.0,124.0,124.0,127.0,153.0,127.0,128.0,23.0,-113.0,-75.0,127.0,127.0,127.0,116.0,88.0,-59.0
127.0,127.0,124.0,124.0,127.0,153.0,127.0,128.0,23.0,-113.0,-75.0,127.0,127.0,127.0,116.0,88.0,-59.0
127.0,127.0,124.0,124.0,127.0,153.0,127.0,128.0,23.0,-113.0,-75.0,127.0,127.0,127.0,116.0,88.0,-59.0
128.0,127.0,123.0,124.0,127.0,153.0,127.0,128.0,22.0,-112.0,-75.0,127.0,127.0,127.0,116.0,87.0,-59.0
128.0,127.0,123.0,124.0,127.0,153.0,127.0,128.0,22.0,-112.0,-75.0,127.0,127.0,127.0,116.0,87.0,-59.0
128.0,127.0,123.0,124.0,127.0,153.0,127.0,128.0,22.0,-112.0,-75.0,127.0,127.0,127.0,116.0,87.0,-59.0
128.0,127.0,123.0,124.0,127.0,152.0,127.0,128.0,22.0,-112.0,-75.0,127.0,127.0,127.0,116.0,87.0,-59.0
128.0,127.0,123.0,124.0,127.0,152.0,127.0,128.0,22.0,-112.0,-75.0,127.0,127.0,127.0,116.0,87.0,-59.0
128.0,127.0,123.0,124.0,127.0,152.0,127.0,128.0,22.0,-112.0,-75.0,127.0,127.0,127.0,116.0,87.0,-59.0
128.0,127.0,123.0,124.0,127.0,154.0,127.0,128.0,22.0,-112.0,-75.0,127.0,127.0,127.0,116.0,87.0,-59.0
128.0,127.0,123.0,124.0,127.0,154.0,127.0,128.0,22.0,-112.0,-75.0,127.0,127.0,127.0,116.0,87.0,-59.0
128.0,127.0,123.0,124.0,127.0,153.0,127.0,128.0,22.0,-112.0,-75.0,127.0,127.0,127.0,116.0,87.0,-59.0
128.0,127.0,123.0,124.0,127.0,153.0,127.0,128.0,22.0,-112.0,-75.0,127.0,127.0,127.0,116.0,87.0,-59.0
129.0,127.0,125.0,124.0,127.0,152.0,127.0,128.0,21.0,-112.0,-75.0,127.0,127.0,127.0,116.0,87.0,-59.0
129.0,127.0,125.0,124.0,127.0,152.0,127.0,128.0,21.0,-112.0,-75.0,127.0,127.0,127.0,116.0,87.0,-59.0
129.0,127.0,125.0,124.0,127.0,152.0,127.0,128.0,21.0,-112.0,-75.0,127.0,127.0,127.0,116.0,87.0,-59.0
129.0,127.0,125.0,124.0,127.0,152.0,127.0,128.0,21.0,-112.0,-75.0,127.0,127.0,127.0,116.0,87.0,-59.0
129.0,127.0,125.0,124.0,127.0,151.0,127.0,128.0,21.0,-112.0,-75.0,127.0,127.0,127.0,116.0,87.0,-59.0
128.0,127.0,126.0,124.0,127.0,153.0,126.0,128.0,21.0,-112.0,-75.0,127.0,127.0,127.0,116.0,87.0,-59.0
128.0,127.0,126.0,124.0,127.0,153.0,126.0,128.0,21.0,-112.0,-75.0,127.0,127.0,127.0,116.0,87.0,-59.0
129.0,127.0,126.0,124.0,127.0,153.0,127.0,128.0,21.0,-112.0,-75.0,127.0,127.0,127.0,116.0,87.0,-59.0
129.0,127.0,126.0,124.0,127.0,153.0,127.0,128.0,21.0,-112.0,-75.0,127.0,127.0,127.0,116.0,87.0,-59.0
128.0,127.0,125.0,124.0,127.0,153.0,127.0,128.0,21.0,-112.0,-75.0,127.0,127.0,127.0,116.0,87.0,-59.0
129.0,127.0,126.0,124.0,127.0,150.0,127.0,128.0,20.0,-112.0,-75.0,127.0,127.0,127.0,116.0,87.0,-59.0
129.0,127.0,126.0,124.0,127.0,150.0,127.0,128.0,20.0,-112.0,-75.0,127.0,127.0,127.0,116.0,87.0,-59.0
129.0,127.0,126.0,124.0,127.0,150.0,127.0,128.0,20.0,-112.0,-75.0,127.0,127.0,127.0,116.0,87.0,-59.0
129.0,127.0,126.0,124.0,127.0,149.0,127.0,128.0,20.0,-112.0,-75.0,127.0,127.0,127.0,116.0,87.0,-59.0
129.0,127.0,127.0,124.0,127.0,152.0,127.0,128.0,20.0,-112.0,-75.0,127.0,127.0,127.0,116.0,87.0,-59.0
129.0,127.0,127.0,124.0,127.0,152.0,127.0,128.0,20.0,-112.0,-75.0,127.0,127.0,127.0,116.0,87.0,-59.0
129.0,127.0,127.0,124.0,127.0,151.0,127.0,128.0,20.0,-112.0,-75.0,127.0,127.0,127.0,116.0,87.0,-59.0
129.0,127.0,126.0,124.0,127.0,151.0,127.0,128.0,20.0,-112.0,-75.0,127.0,127.0,127.0,116.0,87.0,-59.0
129.0,127.0,126.0,124.0,127.0,151.0,127.0,128.0,20.0,-112.0,-75.0,127.0,127.0,127.0,116.0,87.0,-59.0
129.0,127.0,126.0,124.0,127.0,151.0,127.0,128.0,20.0,-112.0,-75.0,127.0,127.0,127.0,116.0,87.0,-59.0
128.0,127.0,126.0,125.0,127.0,147.0,128.0,128.0,19.0,-113.0,-74.0,127.0,127.0,127.0,116.0,87.0,-59.0
128.0,127.0,126.0,125.0,127.0,147.0,128.0,128.0,19.0,-113.0,-74.0,127.0,127.0,127.0,116.0,87.0,-59.0
128.0,128.0,125.0,125.0,127.0,148.0,128.0,128.0,19.0,-113.0,-74.0,127.0,127.0,127.0,116.0,87.0,-59.0
128.0,127.0,128.0,125.0,127.0,147.0,128.0,128.0,19.0,-113.0,-74.0,127.0,127.0,127.0,116.0,87.0,-59.0
128.0,127.0,127.0,125.0,127.0,147.0,128.0,128.0,19.0,-113.0,-74.0,127.0,127.0,127.0,116.0,87.0,-59.0
128.0,127.0,127.0,125.0,127.0,147.0,127.0,128.0,19.0,-113.0,-74.0,127.0,127.0,127.0,116.0,87.0,-59.0
128.0,127.0,126.0,125.0,127.0,148.0,127.0,128.0,19.0,-113.0,-74.0,127.0,127.0,127.0,116.0,87.0,-59.0
128.0,127.0,126.0,125.0,127.0,148.0,127.0,128.0,19.0,-113.0,-74.0,127.0,127.0,127.0,116.0,87.0,-59.0
128.0,127.0,126.0,125.0,127.0,148.0,128.0,128.0,19.0,-113.0,-74.0,127.0,127.0,127.0,116.0,87.0,-59.0
128.0,127.0,126.0,125.0,127.0,147.0,128.0,128.0,19.0,-113.0,-74.0,127.0,127.0,127.0,116.0,87.0,-59.0
128.0,126.0,126.0,124.0,127.0,148.0,127.0,128.0,17.0,-113.0,-74.0,127.0,127.0,127.0,116.0,87.0,-60.0
128.0,126.0,126.0,124.0,127.0,147.0,127.0,128.0,17.0,-113.0,-74.0,127.0,127.0,127.0,116.0,87.0,-60.0
128.0,126.0,127.0,124.0,127.0,148.0,127.0,128.0,17.0,-113.0,-74.0,127.0,127.0,127.0,116.0,87.0,-60.0
128.0,126.0,127.0,124.0,127.0,148.0,127.0,128.0,17.0,-113.0,-74.0,127.0,127.0,127.0,116.0,87.0,-60.0
128.0,126.0,127.0,124.0,127.0,148.0,127.0,128.0,17.0,-113.0,-74.0,127.0,127.0,127.0,116.0,87.0,-60.0
128.0,126.0,127.0,124.0,127.0,148.0,127.0,128.0,17.0,-113.0,-74.0,127.0,127.0,127.0,116.0,87.0,-60.0
128.0,126.0,127.0,124.0,127.0,148.0,127.0,128.0,17.0,-113.0,-74.0,127.0,127.0,127.0,116.0,87.0,-60.0
128.0,126.0,127.0,124.0,127.0,148.0,127.0,128.0,17.0,-113.0,-74.0,127.0,127.0,127.0,116.0,87.0,-60.0
128.0,126.0,127.0,124.0,127.0,148.0,127.0,128.0,17.0,-113.0,-74.0,127.0,127.0,127.0,116.0,87.0,-60.0
128.0,126.0,127.0,124.0,127.0,148.0,127.0,128.0,17.0,-113.0,-74.0,127.0,127.0,127.0,116.0,87.0,-60.0
128.0,126.0,126.0,124.0,126.0,155.0,127.0,128.0,15.0,-113.0,-74.0,127.0,127.0,127.0,116.0,87.0,-60.0
128.0,126.0,127.0,124.0,127.0,155.0,126.0,128.0,15.0,-113.0,-74.0,127.0,127.0,127.0,116.0,87.0,-60.0
128.0,126.0,126.0,124.0,127.0,156.0,126.0,128.0,15.0,-113.0,-74.0,127.0,127.0,127.0,116.0,87.0,-60.0
128.0,126.0,126.0,124.0,127.0,156.0,127.0,128.0,15.0,-113.0,-74.0,127.0,127.0,127.0,116.0,87.0,-60.0
128.0,126.0,127.0,124.0,127.0,155.0,127.0,128.0,15.0,-113.0,-74.0,127.0,127.0,127.0,116.0,87.0,-60.0
128.0,126.0,126.0,124.0,126.0,155.0,127.0,128.0,15.0,-113.0,-74.0,127.0,127.0,127.0,116.0,87.0,-60.0
128.0,126.0,126.0,124.0,127.0,155.0,127.0,128.0,15.0,-113.0,-74.0,127.0,127.0,127.0,116.0,87.0,-60.0
128.0,126.0,126.0,124.0,126.0,155.0,127.0,128.0,15.0,-113.0,-74.0,127.0,127.0,127.0,116.0,87.0,-60.0
128.0,126.0,126.0,124.0,126.0,155.0,127.0,128.0,15.0,-113.0,-74.0,127.0,127.0,127.0,116.0,87.0,-60.0
128.0,126.0,126.0,124.0,126.0,155.0,127.0,128.0,15.0,-113.0,-74.0,127.0,127.0,127.0,116.0,87.0,-60.0
128.0,126.0,127.0,124.0,126.0,161.0,126.0,128.0,14.0,-112.0,-74.0,127.0,127.0,127.0,116.0,87.0,-60.0
128.0,126.0,127.0,124.0,126.0,160.0,126.0,128.0,14.0,-112.0,-74.0,127.0,127.0,127.0,116.0,87.0,-60.0
128.0,126.0,127.0,124.0,126.0,160.0,126.0,128.0,14.0,-112.0,-74.0,127.0,127.0,127.0,116.0,87.0,-60.0
128.0,126.0,127.0,124.0,126.0,160.0,126.0,128.0,14.0,-112.0,-74.0,127.0,127.0,127.0,116.0,87.0,-60.0
128.0,126.0,127.0,124.0,127.0,160.0,126.0,128.0,14.0,-112.0,-74.0,127.0,127.0,127.0,116.0,87.0,-60.0
128.0,126.0,127.0,124.0,127.0,160.0,126.0,128.0,14.0,-112.0,-74.0,127.0,127.0,127.0,116.0,87.0,-60.0
128.0,126.0,127.0,124.0,127.0,160.0,126.0,128.0,14.0,-112.0,-74.0,127.0,127.0,127.0,116.0,87.0,-60.0
128.0,126.0,127.0,124.0,126.0,159.0,126.0,128.0,14.0,-112.0,-74.0,127.0,127.0,127.0,116.0,87.0,-60.0
128.0,126.0,126.0,124.0,127.0,159.0,126.0,128.0,14.0,-112.0,-74.0,127.0,127.0,127.0,116.0,87.0,-60.0
128.0,126.0,126.0,124.0,126.0,159.0,127.0,128.0,14.0,-112.0,-74.0,127.0,127.0,127.0,116.0,87.0,-60.0
128.0,126.0,127.0,125.0,127.0,161.0,126.0,128.0,14.0,-112.0,-75.0,127.0,127.0,126.0,116.0,87.0,-60.0
128.0,126.0,127.0,125.0,127.0,161.0,126.0,128.0,14.0,-112.0,-75.0,127.0,127.0,126.0,116.0,87.0,-60.0
128.0,126.0,127.0,125.0,127.0,161.0,126.0,128.0,14.0,-112.0,-75.0,127.0,127.0,126.0,116.0,87.0,-60.0
128.0,126.0,127.0,125.0,127.0,161.0,126.0,128.0,14.0,-112.0,-75.0,127.0,127.0,126.0,116.0,87.0,-60.0
128.0,126.0,127.0,125.0,127.0,160.0,126.0,128.0,14.0,-112.0,-75.0,127.0,127.0,126.0,116.0,87.0,-60.0
128.0,126.0,127.0,125.0,127.0,160.0,127.0,128.0,14.0,-112.0,-75.0,127.0,127.0,126.0,116.0,87.0,-60.0
128.0,126.0,127.0,125.0,127.0,160.0,127.0,128.0,14.0,-112.0,-75.0,127.0,127.0,126.0,116.0,87.0,-60.0
128.0,126.0,127.0,125.0,127.0,160.0,127.0,128.0,14.0,-112.0,-75.0,127.0,127.0,126.0,116.0,87.0,-60.0
128.0,126.0,127.0,125.0,126.0,159.0,127.0,128.0,14.0,-112.0,-75.0,127.0,127.0,126.0,116.0,87.0,-60.0
128.0,126.0,127.0,125.0,127.0,161.0,126.0,128.0,14.0,-112.0,-75.0,127.0,127.0,126.0,116.0,87.0,-60.0
128.0,126.0,129.0,125.0,127.0,159.0,126.0,128.0,14.0,-111.0,-75.0,127.0,127.0,126.0,116.0,86.0,-60.0
128.0,126.0,129.0,125.0,127.0,159.0,126.0,128.0,14.0,-111.0,-75.0,127.0,127.0,126.0,116.0,86.0,-60.0
128.0,126.0,129.0,125.0,127.0,159.0,126.0,128.0,14.0,-111.0,-75.0,127.0,127.0,126.0,116.0,86.0,-60.0
128.0,126.0,129.0,125.0,127.0,158.0,126.0,128.0,14.0,-111.0,-75.0,127.0,127.0,126.0,116.0,86.0,-60.0
128.0,126.0,129.0,125.0,127.0,158.0,126.0,128.0,14.0,-111.0,-75.0,127.0,127.0,126.0,116.0,86.0,-60.0
128.0,126.0,129.0,125.0,127.0,158.0,126.0,128.0,14.0,-111.0,-75.0,127.0,127.0,126.0,116.0,86.0,-60.0
128.0,126.0,129.0,125.0,127.0,158.0,126.0,128.0,14.0,-111.0,-75.0,127.0,127.0,126.0,116.0,86.0,-60.0
128.0,126.0,129.0,125.0,127.0,157.0,126.0,128.0,14.0,-111.0,-75.0,127.0,127.0,126.0,116.0,86.0,-60.0
128.0,126.0,129.0,125.0,127.0,160.0,126.0,128.0,14.0,-111.0,-75.0,127.0,127.0,126.0,116.0,86.0,-60.0
128.0,126.0,129.0,125.0,127.0,159.0,126.0,128.0,14.0,-111.0,-75.0,127.0,127.0,126.0,116.0,86.0,-60.0
128.0,126.0,127.0,125.0,127.0,155.0,126.0,128.0,15.0,-111.0,-76.0,127.0,127.0,126.0,116.0,86.0,-60.0
128.0,126.0,128.0,125.0,127.0,155.0,126.0,128.0,15.0,-111.0,-76.0,127.0,127.0,126.0,116.0,86.0,-60.0
128.0,126.0,127.0,125.0,127.0,155.0,126.0,128.0,15.0,-111.0,-76.0,127.0,127.0,126.0,116.0,86.0,-60.0
128.0,126.0,127.0,125.0,127.0,154.0,126.0,128.0,15.0,-111.0,-76.0,127.0,127.0,126.0,116.0,86.0,-60.0
128.0,126.0,127.0,125.0,127.0,154.0,126.0,128.0,15.0,-111.0,-76.0,127.0,127.0,126.0,116.0,86.0,-60.0
128.0,126.0,127.0,125.0,127.0,153.0,126.0,128.0,15.0,-111.0,-76.0,127.0,127.0,126.0,116.0,86.0,-60.0
128.0,126.0,127.0,126.0,127.0,153.0,126.0,128.0,15.0,-111.0,-76.0,127.0,127.0,126.0,116.0,86.0,-60.0
128.0,126.0,128.0,125.0,127.0,156.0,126.0,128.0,15.0,-111.0,-76.0,127.0,127.0,126.0,116.0,86.0,-60.0
128.0,126.0,128.0,125.0,127.0,156.0,126.0,128.0,15.0,-111.0,-76.0,127.0,127.0,126.0,116.0,86.0,-60.0
128.0,126.0,127.0,125.0,127.0,156.0,126.0,128.0,15.0,-111.0,-76.0,127.0,127.0,126.0,116.0,86.0,-60.0
128.0,126.0,126.0,126.0,128.0,150.0,126.0,128.0,16.0,-111.0,-77.0,127.0,127.0,126.0,116.0,86.0,-60.0
128.0,126.0,126.0,126.0,128.0,150.0,126.0,128.0,16.0,-111.0,-77.0,127.0,127.0,126.0,116.0,86.0,-60.0
128.0,127.0,126.0,126.0,128.0,149.0,127.0,128.0,16.0,-111.0,-77.0,127.0,127.0,126.0,116.0,86.0,-60.0
128.0,127.0,126.0,126.0,128.0,149.0,127.0,128.0,16.0,-111.0,-77.0,127.0,127.0,126.0,116.0,86.0,-60.0
128.0,127.0,126.0,126.0,128.0,149.0,127.0,128.0,16.0,-111.0,-77.0,127.0,127.0,126.0,116.0,86.0,-60.0
128.0,127.0,126.0,126.0,128.0,148.0,127.0,128.0,16.0,-111.0,-77.0,127.0,127.0,126.0,116.0,86.0,-60.0
128.0,126.0,127.0,125.0,128.0,151.0,126.0,128.0,16.0,-111.0,-77.0,127.0,127.0,126.0,116.0,86.0,-60.0
128.0,126.0,127.0,125.0,128.0,151.0,126.0,128.0,16.0,-111.0,-77.0,127.0,127.0,126.0,116.0,86.0,-60.0
128.0,126.0,126.0,125.0,128.0,151.0,126.0,128.0,16.0,-111.0,-77.0,127.0,127.0,126.0,116.0,86.0,-60.0
128.0,126.0,126.0,126.0,128.0,150.0,126.0,128.0,16.0,-111.0,-77.0,127.0,127.0,126.0,116.0,86.0,-60.0
128.0,127.0,124.0,126.0,128.0,144.0,127.0,128.0,17.0,-111.0,-77.0,127.0,127.0,126.0,116.0,86.0,-60.0
128.0,127.0,124.0,126.0,128.0,144.0,127.0,128.0,17.0,-111.0,-77.0,127.0,127.0,126.0,116.0,86.0,-60.0
128.0,128.0,123.0,126.0,128.0,145.0,127.0,128.0,17.0,-111.0,-77.0,127.0,127.0,126.0,116.0,86.0,-60.0
128.0,128.0,123.0,126.0,128.0,145.0,127.0,128.0,17.0,-111.0,-77.0,127.0,127.0,126.0,116.0,86.0,-60.0
128.0,128.0,123.0,127.0,128.0,145.0,127.0,128.0,17.0,-111.0,-77.0,127.0,127.0,126.0,116.0,86.0,-60.0
128.0,127.0,125.0,126.0,128.0,144.0,127.0,128.0,17.0,-111.0,-77.0,127.0,127.0,126.0,116.0,86.0,-60.0
128.0,127.0,124.0,126.0,128.0,145.0,127.0,128.0,17.0,-111.0,-77.0,127.0,127.0,126.0,116.0,86.0,-60.0
128.0,127.0,124.0,126.0,128.0,145.0,127.0,128.0,17.0,-111.0,-77.0,127.0,127.0,126.0,116.0,86.0,-60.0
128.0,127.0,124.0,126.0,128.0,145.0,127.0,128.0,17.0,-111.0,-77.0,127.0,127.0,126.0,116.0,86.0,-60.0
128.0,127.0,124.0,126.0,128.0,145.0,127.0,128.0,17.0,-111.0,-77.0,127.0,127.0,126.0,116.0,86.0,-60.0
128.0,128.0,124.0,126.0,127.0,143.0,127.0,128.0,18.0,-111.0,-77.0,127.0,127.0,126.0,116.0,85.0,-60.0
128.0,128.0,124.0,126.0,127.0,143.0,127.0,128.0,18.0,-111.0,-77.0,127.0,127.0,126.0,116.0,85.0,-60.0
128.0,128.0,123.0,126.0,127.0,144.0,127.0,128.0,18.0,-111.0,-77.0,127.0,127.0,126.0,116.0,85.0,-60.0
128.0,128.0,123.0,126.0,127.0,143.0,127.0,128.0,18.0,-111.0,-77.0,127.0,127.0,126.0,116.0,85.0,-60.0
128.0,127.0,125.0,126.0,127.0,143.0,127.0,128.0,18.0,-111.0,-77.0,127.0,127.0,126.0,116.0,85.0,-60.0
128.0,128.0,125.0,126.0,127.0,143.0,127.0,128.0,18.0,-111.0,-77.0,127.0,127.0,126.0,116.0,85.0,-60.0
128.0,128.0,124.0,126.0,127.0,144.0,127.0,128.0,18.0,-111.0,-77.0,127.0,127.0,126.0,116.0,85.0,-60.0
128.0,128.0,124.0,126.0,127.0,143.0,127.0,128.0,18.0,-111.0,-77.0,127.0,127.0,126.0,116.0,85.0,-60.0
128.0,128.0,124.0,126.0,127.0,143.0,127.0,128.0,18.0,-111.0,-77.0,127.0,127.0,126.0,116.0,85.0,-60.0
128.0,128.0,124.0,126.0,127.0,143.0,127.0,128.0,18.0,-111.0,-77.0,127.0,127.0,126.0,116.0,85.0,-60.0
127.0,128.0,123.0,126.0,127.0,142.0,127.0,128.0,18.0,-112.0,-76.0,127.0,127.0,127.0,116.0,85.0,-61.0
127.0,129.0,122.0,126.0,127.0,143.0,127.0,128.0,18.0,-112.0,-76.0,127.0,127.0,127.0,116.0,85.0,-61.0
127.0,129.0,122.0,126.0,127.0,143.0,127.0,128.0,18.0,-112.0,-76.0,127.0,127.0,127.0,116.0,85.0,-61.0
127.0,128.0,124.0,126.0,126.0,142.0,127.0,128.0,18.0,-112.0,-76.0,127.0,127.0,127.0,116.0,85.0,-61.0
127.0,128.0,124.0,126.0,126.0,143.0,127.0,128.0,18.0,-112.0,-76.0,127.0,127.0,127.0,116.0,85.0,-61.0
127.0,128.0,123.0,126.0,127.0,143.0,127.0,128.0,18.0,-112.0,-76.0,127.0,127.0,127.0,116.0,85.0,-61.0
127.0,128.0,123.0,126.0,127.0,143.0,127.0,128.0,18.0,-112.0,-76.0,127.0,127.0,127.0,116.0,85.0,-61.0
127.0,128.0,123.0,126.0,127.0,142.0,127.0,128.0,18.0,-112.0,-76.0,127.0,127.0,127.0,116.0,85.0,-61.0
127.0,128.0,123.0,126.0,127.0,142.0,127.0,128.0,18.0,-112.0,-76.0,127.0,127.0,127.0,116.0,85.0,-61.0
127.0,128.0,123.0,126.0,126.0,142.0,127.0,128.0,18.0,-112.0,-76.0,127.0,127.0,127.0,116.0,85.0,-61.0
127.0,128.0,124.0,126.0,126.0,144.0,126.0,128.0,19.0,-114.0,-76.0,127.0,127.0,127.0,116.0,85.0,-61.0
127.0,128.0,124.0,126.0,126.0,144.0,126.0,128.0,19.0,-114.0,-76.0,127.0,127.0,127.0,116.0,85.0,-61.0
127.0,127.0,126.0,125.0,126.0,143.0,126.0,128.0,19.0,-114.0,-76.0,127.0,127.0,127.0,116.0,85.0,-61.0
127.0,127.0,125.0,125.0,126.0,143.0,126.0,128.0,19.0,-114.0,-76.0,127.0,127.0,127.0,116.0,85.0,-61.0
127.0,128.0,125.0,125.0,126.0,144.0,126.0,128.0,19.0,-114.0,-76.0,127.0,127.0,127.0,116.0,85.0,-61.0
127.0,127.0,125.0,125.0,126.0,143.0,126.0,128.0,19.0,-114.0,-76.0,127.0,127.0,127.0,116.0,85.0,-61.0
127.0,127.0,125.0,125.0,126.0,143.0,126.0,128.0,19.0,-114.0,-76.0,127.0,127.0,127.0,116.0,85.0,-61.0
127.0,127.0,125.0,125.0,126.0,143.0,127.0,128.0,19.0,-114.0,-76.0,127.0,127.0,127.0,116.0,85.0,-61.0
127.0,127.0,125.0,125.0,126.0,143.0,127.0,128.0,19.0,-114.0,-76.0,127.0,127.0,127.0,116.0,85.0,-61.0
127.0,128.0,125.0,125.0,126.0,143.0,126.0,128.0,19.0,-114.0,-76.0,127.0,127.0,127.0,116.0,85.0,-61.0
127.0,127.0,125.0,125.0,126.0,144.0,126.0,128.0,19.0,-115.0,-75.0,127.0,127.0,127.0,116.0,85.0,-61.0
128.0,126.0,127.0,125.0,126.0,143.0,126.0,128.0,19.0,-115.0,-75.0,127.0,127.0,127.0,116.0,85.0,-61.0
128.0,127.0,126.0,125.0,126.0,143.0,126.0,128.0,19.0,-115.0,-75.0,127.0,127.0,127.0,116.0,85.0,-61.0
128.0,127.0,126.0,125.0,126.0,144.0,126.0,128.0,19.0,-115.0,-75.0,127.0,127.0,127.0,116.0,85.0,-61.0
128.0,127.0,126.0,125.0,126.0,144.0,126.0,128.0,19.0,-115.0,-75.0,127.0,127.0,127.0,116.0,85.0,-61.0
128.0,127.0,126.0,125.0,126.0,143.0,126.0,128.0,19.0,-115.0,-75.0,127.0,127.0,127.0,116.0,85.0,-61.0
128.0,127.0,126.0,125.0,126.0,143.0,126.0,128.0,19.0,-115.0,-75.0,127.0,127.0,127.0,116.0,85.0,-61.0
128.0,127.0,126.0,125.0,126.0,143.0,126.0,128.0,19.0,-115.0,-75.0,127.0,127.0,127.0,116.0,85.0,-61.0
127.0,127.0,125.0,125.0,126.0,143.0,126.0,128.0,19.0,-115.0,-75.0,127.0,127.0,127.0,116.0,85.0,-61.0
127.0,127.0,125.0,125.0,126.0,144.0,126.0,128.0,19.0,-115.0,-75.0,127.0,127.0,127.0,116.0,85.0,-61.0
127.0,126.0,127.0,125.0,126.0,143.0,126.0,128.0,20.0,-116.0,-75.0,127.0,127.0,127.0,116.0,85.0,-61.0
127.0,126.0,127.0,125.0,126.0,143.0,126.0,128.0,20.0,-116.0,-75.0,127.0,127.0,127.0,116.0,85.0,-61.0
127.0,126.0,126.0,125.0,126.0,144.0,126.0,128.0,20.0,-116.0,-75.0,127.0,127.0,127.0,116.0,85.0,-61.0
127.0,127.0,126.0,125.0,126.0,144.0,126.0,128.0,20.0,-116.0,-75.0,127.0,127.0,127.0,116.0,85.0,-61.0
127.0,126.0,126.0,125.0,126.0,144.0,126.0,128.0,20.0,-116.0,-75.0,127.0,127.0,127.0,116.0,85.0,-61.0
128.0,126.0,126.0,125.0,126.0,143.0,126.0,128.0,20.0,-116.0,-75.0,127.0,127.0,127.0,116.0,85.0,-61.0
127.0,126.0,126.0,125.0,126.0,143.0,126.0,128.0,20.0,-116.0,-75.0,127.0,127.0,127.0,116.0,85.0,-61.0
127.0,126.0,126.0,125.0,126.0,143.0,126.0,128.0,20.0,-116.0,-75.0,127.0,127.0,127.0,116.0,85.0,-61.0
127.0,127.0,126.0,125.0,126.0,144.0,126.0,128.0,20.0,-116.0,-75.0,127.0,127.0,127.0,116.0,85.0,-61.0
127.0,127.0,126.0,125.0,126.0,144.0,126.0,128.0,20.0,-116.0,-75.0,127.0,127.0,127.0,116.0,85.0,-61.0
128.0,126.0,128.0,125.0,126.0,143.0,126.0,128.0,20.0,-116.0,-75.0,127.0,127.0,127.0,116.0,85.0,-61.0
128.0,126.0,128.0,125.0,126.0,144.0,126.0,128.0,20.0,-116.0,-75.0,127.0,127.0,127.0,116.0,85.0,-61.0
128.0,126.0,128.0,125.0,126.0,144.0,126.0,128.0,20.0,-116.0,-75.0,127.0,127.0,127.0,116.0,85.0,-61.0
128.0,126.0,128.0,125.0,126.0,144.0,126.0,128.0,20.0,-116.0,-75.0,127.0,127.0,127.0,116.0,85.0,-61.0
128.0,126.0,128.0,125.0,126.0,143.0,126.0,128.0,20.0,-116.0,-75.0,127.0,127.0,127.0,116.0,85.0,-61.0
128.0,126.0,128.0,125.0,126.0,143.0,126.0,128.0,20.0,-116.0,-75.0,127.0,127.0,127.0,116.0,85.0,-61.0
128.0,126.0,128.0,125.0,126.0,143.0,126.0,128.0,20.0,-116.0,-75.0,127.0,127.0,127.0,116.0,85.0,-61.0
128.0,127.0,127.0,125.0,126.0,144.0,126.0,128.0,20.0,-116.0,-75.0,127.0,127.0,127.0,116.0,85.0,-61.0
128.0,127.0,127.0,125.0,126.0,144.0,126.0,128.0,20.0,-116.0,-75.0,127.0,127.0,127.0,116.0,85.0,-61.0
128.0,126.0,129.0,125.0,126.0,143.0,126.0,128.0,20.0,-116.0,-75.0,127.0,127.0,127.0,116.0,85.0,-61.0
128.0,126.0,128.0,125.0,126.0,143.0,126.0,128.0,20.0,-117.0,-75.0,127.0,127.0,127.0,116.0,85.0,-61.0
128.0,126.0,128.0,125.0,126.0,144.0,126.0,128.0,20.0,-117.0,-75.0,127.0,127.0,127.0,116.0,85.0,-61.0
128.0,126.0,128.0,125.0,126.0,143.0,126.0,128.0,20.0,-117.0,-75.0,127.0,127.0,127.0,116.0,85.0,-61.0
128.0,126.0,128.0,125.0,126.0,143.0,126.0,128.0,20.0,-117.0,-75.0,127.0,127.0,127.0,116.0,85.0,-61.0
128.0,126.0,128.0,125.0,126.0,143.0,126.0,128.0,20.0,-117.0,-75.0,127.0,127.0,127.0,116.0,85.0,-61.0
128.0,126.0,128.0,125.0,126.0,143.0,126.0,128.0,20.0,-117.0,-75.0,127.0,127.0,127.0,116.0,85.0,-61.0
128.0,126.0,127.0,125.0,126.0,143.0,126.0,128.0,20.0,-117.0,-75.0,127.0,127.0,127.0,116.0,85.0,-61.0
128.0,127.0,127.0,125.0,126.0,144.0,126.0,128.0,20.0,-117.0,-75.0,127.0,127.0,127.0,116.0,85.0,-61.0
128.0,126.0,129.0,125.0,126.0,143.0,126.0,128.0,20.0,-117.0,-75.0,127.0,127.0,127.0,116.0,85.0,-61.0
128.0,126.0,129.0,125.0,126.0,143.0,126.0,128.0,20.0,-117.0,-75.0,127.0,127.0,127.0,116.0,85.0,-61.0
128.0,126.0,128.0,125.0,127.0,144.0,127.0,128.0,19.0,-118.0,-75.0,127.0,127.0,127.0,116.0,85.0,-61.0
128.0,126.0,128.0,125.0,127.0,144.0,127.0,128.0,19.0,-118.0,-75.0,127.0,127.0,127.0,116.0,85.0,-61.0
128.0,126.0,128.0,125.0,127.0,143.0,127.0,128.0,19.0,-118.0,-75.0,127.0,127.0,127.0,116.0,85.0,-61.0
128.0,126.0,128.0,125.0,127.0,143.0,127.0,128.0,19.0,-118.0,-75.0,127.0,127.0,127.0,116.0,85.0,-61.0
128.0,126.0,128.0,125.0,127.0,143.0,127.0,128.0,19.0,-118.0,-75.0,127.0,127.0,127.0,116.0,85.0,-61.0
128.0,126.0,128.0,125.0,127.0,143.0,127.0,128.0,19.0,-118.0,-75.0,127.0,127.0,127.0,116.0,85.0,-61.0
128.0,126.0,128.0,125.0,127.0,143.0,127.0,128.0,19.0,-118.0,-75.0,127.0,127.0,127.0,116.0,85.0,-61.0
128.0,126.0,128.0,125.0,127.0,144.0,127.0,128.0,19.0,-118.0,-75.0,127.0,127.0,127.0,116.0,85.0,-61.0
128.0,126.0,128.0,125.0,127.0,144.0,127.0,128.0,19.0,-118.0,-75.0,127.0,127.0,127.0,116.0,85.0,-61.0
128.0,126.0,128.0,125.0,127.0,144.0,127.0,128.0,19.0,-118.0,-75.0,127.0,127.0,127.0,116.0,85.0,-61.0
128.0,126.0,128.0,125.0,127.0,144.0,127.0,128.0,17.0,-119.0,-75.0,127.0,127.0,127.0,117.0,85.0,-61.0
127.0,126.0,128.0,125.0,127.0,144.0,127.0,128.0,17.0,-119.0,-75.0,127.0,127.0,127.0,117.0,85.0,-61.0
127.0,127.0,128.0,125.0,127.0,144.0,127.0,128.0,17.0,-119.0,-75.0,127.0,127.0,127.0,117.0,85.0,-61.0
127.0,127.0,127.0,125.0,127.0,144.0,127.0,128.0,17.0,-119.0,-75.0,127.0,127.0,127.0,117.0,85.0,-61.0
128.0,126.0,127.0,125.0,127.0,144.0,127.0,128.0,17.0,-119.0,-75.0,127.0,127.0,127.0,117.0,85.0,-61.0
128.0,126.0,127.0,125.0,127.0,144.0,127.0,128.0,17.0,-119.0,-75.0,127.0,127.0,127.0,117.0,85.0,-61.0
128.0,126.0,128.0,125.0,127.0,144.0,127.0,128.0,17.0,-119.0,-75.0,127.0,127.0,127.0,117.0,85.0,-61.0
128.0,126.0,128.0,125.0,127.0,144.0,127.0,128.0,17.0,-119.0,-75.0,127.0,127.0,127.0,117.0,85.0,-61.0
128.0,126.0,128.0,125.0,127.0,144.0,127.0,128.0,17.0,-119.0,-75.0,127.0,127.0,127.0,117.0,85.0,-61.0
128.0,126.0,128.0,125.0,127.0,144.0,127.0,128.0,17.0,-119.0,-75.0,127.0,127.0,127.0,117.0,85.0,-61.0
127.0,126.0,128.0,125.0,127.0,143.0,127.0,127.0,15.0,-120.0,-75.0,127.0,127.0,127.0,117.0,84.0,-61.0
127.0,126.0,128.0,125.0,127.0,143.0,127.0,127.0,15.0,-120.0,-75.0,127.0,127.0,127.0,117.0,84.0,-61.0
127.0,126.0,128.0,125.0,127.0,143.0,127.0,127.0,15.0,-120.0,-75.0,127.0,127.0,127.0,117.0,84.0,-61.0
127.0,126.0,128.0,125.0,127.0,143.0,127.0,127.0,15.0,-120.0,-75.0,127.0,127.0,127.0,117.0,84.0,-61.0
127.0,126.0,127.0,125.0,127.0,143.0,127.0,127.0,15.0,-120.0,-75.0,127.0,127.0,127.0,117.0,84.0,-61.0
127.0,126.0,129.0,125.0,127.0,143.0,127.0,127.0,15.0,-120.0,-75.0,127.0,127.0,127.0,117.0,84.0,-61.0
127.0,126.0,129.0,125.0,127.0,143.0,126.0,127.0,15.0,-120.0,-75.0,127.0,127.0,127.0,117.0,84.0,-61.0
127.0,126.0,128.0,125.0,127.0,143.0,127.0,127.0,15.0,-120.0,-75.0,127.0,127.0,127.0,117.0,84.0,-61.0
127.0,126.0,128.0,125.0,127.0,143.0,126.0,127.0,15.0,-120.0,-75.0,127.0,127.0,127.0,117.0,84.0,-61.0
127.0,126.0,128.0,125.0,127.0,143.0,127.0,127.0,15.0,-120.0,-75.0,127.0,127.0,127.0,117.0,84.0,-61.0
127.0,126.0,126.0,125.0,127.0,146.0,126.0,128.0,13.0,-120.0,-75.0,127.0,127.0,127.0,118.0,84.0,-61.0
127.0,126.0,126.0,125.0,127.0,146.0,126.0,128.0,13.0,-120.0,-75.0,127.0,127.0,127.0,118.0,84.0,-61.0
127.0,126.0,126.0,125.0,127.0,145.0,126.0,128.0,13.0,-120.0,-75.0,127.0,127.0,127.0,118.0,84.0,-61.0
127.0,126.0,126.0,125.0,127.0,145.0,126.0,128.0,13.0,-120.0,-75.0,127.0,127.0,127.0,118.0,84.0,-61.0
127.0,126.0,126.0,125.0,127.0,147.0,126.0,128.0,13.0,-120.0,-75.0,127.0,127.0,127.0,118.0,84.0,-61.0
127.0,126.0,126.0,125.0,127.0,147.0,126.0,128.0,13.0,-120.0,-75.0,127.0,127.0,127.0,118.0,84.0,-61.0
127.0,126.0,126.0,125.0,127.0,147.0,126.0,128.0,13.0,-120.0,-75.0,127.0,127.0,127.0,118.0,84.0,-61.0
127.0,126.0,126.0,125.0,127.0,147.0,126.0,128.0,13.0,-120.0,-75.0,127.0,127.0,127.0,118.0,84.0,-61.0
127.0,126.0,126.0,125.0,127.0,146.0,126.0,128.0,13.0,-120.0,-75.0,127.0,127.0,127.0,118.0,84.0,-61.0
127.0,126.0,126.0,125.0,127.0,146.0,126.0,128.0,13.0,-120.0,-75.0,127.0,127.0,127.0,118.0,84.0,-61.0
127.0,126.0,126.0,124.0,126.0,148.0,126.0,128.0,11.0,-120.0,-76.0,127.0,127.0,127.0,118.0,84.0,-61.0
127.0,126.0,126.0,124.0,126.0,147.0,126.0,128.0,11.0,-120.0,-76.0,127.0,127.0,127.0,118.0,84.0,-61.0
127.0,126.0,126.0,124.0,126.0,147.0,126.0,128.0,11.0,-120.0,-76.0,127.0,127.0,127.0,118.0,84.0,-61.0
127.0,126.0,127.0,124.0,126.0,148.0,125.0,128.0,11.0,-120.0,-76.0,127.0,127.0,127.0,118.0,84.0,-61.0
127.0,126.0,126.0,124.0,126.0,148.0,125.0,128.0,11.0,-120.0,-76.0,127.0,127.0,127.0,118.0,84.0,-61.0
127.0,126.0,127.0,124.0,126.0,148.0,125.0,128.0,11.0,-120.0,-76.0,127.0,127.0,127.0,118.0,84.0,-61.0
127.0,126.0,126.0,124.0,126.0,148.0,126.0,128.0,11.0,-120.0,-76.0,127.0,127.0,127.0,118.0,84.0,-61.0
127.0,126.0,126.0,124.0,126.0,148.0,126.0,128.0,11.0,-120.0,-76.0,127.0,127.0,127.0,118.0,84.0,-61.0
127.0,126.0,126.0,124.0,126.0,148.0,126.0,128.0,11.0,-120.0,-76.0,127.0,127.0,127.0,118.0,84.0,-61.0
127.0,126.0,126.0,124.0,126.0,148.0,126.0,128.0,11.0,-120.0,-76.0,127.0,127.0,127.0,118.0,84.0,-61.0
127.0,126.0,125.0,124.0,126.0,148.0,126.0,128.0,10.0,-120.0,-78.0,127.0,127.0,127.0,118.0,84.0,-61.0
127.0,126.0,125.0,125.0,126.0,147.0,126.0,128.0,10.0,-120.0,-78.0,127.0,127.0,127.0,118.0,84.0,-61.0
127.0,126.0,125.0,124.0,126.0,149.0,125.0,128.0,10.0,-120.0,-78.0,127.0,127.0,127.0,118.0,84.0,-61.0
127.0,126.0,125.0,124.0,126.0,149.0,126.0,128.0,10.0,-120.0,-78.0,127.0,127.0,127.0,118.0,84.0,-61.0
127.0,126.0,125.0,124.0,126.0,149.0,126.0,128.0,10.0,-120.0,-78.0,127.0,127.0,127.0,118.0,84.0,-61.0
127.0,126.0,125.0,124.0,126.0,149.0,126.0,128.0,10.0,-120.0,-78.0,127.0,127.0,127.0,118.0,84.0,-61.0
127.0,126.0,125.0,124.0,126.0,148.0,126.0,128.0,10.0,-120.0,-78.0,127.0,127.0,127.0,118.0,84.0,-61.0
127.0,126.0,125.0,124.0,126.0,148.0,126.0,128.0,10.0,-120.0,-78.0,127.0,127.0,127.0,118.0,84.0,-61.0
127.0,126.0,125.0,124.0,126.0,148.0,126.0,128.0,10.0,-120.0,-78.0,127.0,127.0,127.0,118.0,84.0,-61.0
127.0,126.0,125.0,124.0,126.0,148.0,126.0,128.0,10.0,-120.0,-78.0,127.0,127.0,127.0,118.0,84.0,-61.0
127.0,126.0,126.0,125.0,126.0,146.0,126.0,128.0,10.0,-120.0,-79.0,127.0,127.0,127.0,118.0,84.0,-61.0
127.0,126.0,126.0,124.0,126.0,147.0,126.0,128.0,10.0,-120.0,-79.0,127.0,127.0,127.0,118.0,84.0,-61.0
127.0,126.0,126.0,124.0,126.0,148.0,126.0,128.0,10.0,-120.0,-79.0,127.0,127.0,127.0,118.0,84.0,-61.0
127.0,126.0,126.0,124.0,126.0,147.0,126.0,128.0,10.0,-120.0,-79.0,127.0,127.0,127.0,118.0,84.0,-61.0
127.0,126.0,126.0,124.0,127.0,147.0,126.0,128.0,10.0,-120.0,-79.0,127.0,127.0,127.0,118.0,84.0,-61.0
127.0,126.0,126.0,124.0,126.0,147.0,126.0,128.0,10.0,-120.0,-79.0,127.0,127.0,127.0,118.0,84.0,-61.0
127.0,126.0,126.0,125.0,126.0,147.0,126.0,128.0,10.0,-120.0,-79.0,127.0,127.0,127.0,118.0,84.0,-61.0
127.0,126.0,126.0,125.0,126.0,146.0,126.0,128.0,10.0,-120.0,-79.0,127.0,127.0,127.0,118.0,84.0,-61.0
127.0,126.0,126.0,125.0,126.0,146.0,126.0,128.0,10.0,-120.0,-79.0,127.0,127.0,127.0,118.0,84.0,-61.0
127.0,126.0,126.0,125.0,126.0,146.0,126.0,128.0,10.0,-120.0,-79.0,127.0,127.0,127.0,118.0,84.0,-61.0
127.0,126.0,127.0,124.0,126.0,145.0,126.0,128.0,10.0,-120.0,-80.0,127.0,127.0,127.0,118.0,84.0,-61.0
127.0,127.0,127.0,124.0,127.0,146.0,126.0,128.0,10.0,-120.0,-80.0,127.0,127.0,127.0,118.0,84.0,-61.0
127.0,127.0,127.0,124.0,127.0,145.0,126.0,128.0,10.0,-120.0,-80.0,127.0,127.0,127.0,118.0,84.0,-61.0
127.0,127.0,127.0,124.0,127.0,145.0,126.0,128.0,10.0,-120.0,-80.0,127.0,127.0,127.0,118.0,84.0,-61.0
127.0,127.0,127.0,124.0,127.0,145.0,126.0,128.0,10.0,-120.0,-80.0,127.0,127.0,127.0,118.0,84.0,-61.0
127.0,127.0,127.0,124.0,127.0,145.0,126.0,128.0,10.0,-120.0,-80.0,127.0,127.0,127.0,118.0,84.0,-61.0
127.0,127.0,127.0,124.0,127.0,145.0,127.0,128.0,10.0,-120.0,-80.0,127.0,127.0,127.0,118.0,84.0,-61.0
127.0,127.0,127.0,124.0,127.0,144.0,127.0,128.0,10.0,-120.0,-80.0,127.0,127.0,127.0,118.0,84.0,-61.0
127.0,127.0,127.0,124.0,127.0,144.0,127.0,128.0,10.0,-120.0,-80.0,127.0,127.0,127.0,118.0,84.0,-61.0
127.0,127.0,127.0,124.0,127.0,144.0,127.0,128.0,10.0,-120.0,-80.0,127.0,127.0,127.0,118.0,84.0,-61.0
127.0,126.0,127.0,124.0,127.0,145.0,126.0,128.0,11.0,-121.0,-81.0,127.0,127.0,127.0,118.0,83.0,-61.0
127.0,126.0,127.0,124.0,127.0,145.0,126.0,128.0,11.0,-121.0,-81.0,127.0,127.0,127.0,118.0,83.0,-61.0
127.0,126.0,127.0,124.0,127.0,144.0,126.0,128.0,11.0,-121.0,-81.0,127.0,127.0,127.0,118.0,83.0,-61.0
127.0,126.0,127.0,124.0,127.0,144.0,126.0,128.0,11.0,-121.0,-81.0,127.0,127.0,127.0,118.0,83.0,-61.0
127.0,126.0,127.0,124.0,127.0,144.0,127.0,128.0,11.0,-121.0,-81.0,127.0,127.0,127.0,118.0,83.0,-61.0
127.0,126.0,127.0,124.0,127.0,143.0,127.0,128.0,11.0,-121.0,-81.0,127.0,127.0,127.0,118.0,83.0,-61.0
127.0,126.0,127.0,124.0,127.0,143.0,127.0,128.0,11.0,-121.0,-81.0,127.0,127.0,127.0,118.0,83.0,-61.0
127.0,126.0,127.0,124.0,127.0,143.0,127.0,128.0,11.0,-121.0,-81.0,127.0,127.0,127.0,118.0,83.0,-61.0
127.0,126.0,127.0,125.0,127.0,143.0,127.0,128.0,11.0,-121.0,-81.0,127.0,127.0,127.0,118.0,83.0,-61.0
127.0,127.0,127.0,124.0,127.0,145.0,126.0,128.0,11.0,-121.0,-81.0,127.0,127.0,127.0,118.0,83.0,-61.0
127.0,127.0,127.0,124.0,127.0,143.0,126.0,128.0,11.0,-121.0,-81.0,127.0,127.0,127.0,119.0,83.0,-61.0
127.0,127.0,127.0,124.0,127.0,143.0,126.0,128.0,11.0,-121.0,-81.0,127.0,127.0,127.0,119.0,83.0,-61.0
127.0,127.0,127.0,125.0,127.0,143.0,126.0,128.0,11.0,-121.0,-81.0,127.0,127.0,127.0,119.0,83.0,-61.0
127.0,127.0,127.0,125.0,127.0,143.0,126.0,128.0,11.0,-121.0,-81.0,127.0,127.0,127.0,119.0,83.0,-61.0
127.0,127.0,127.0,125.0,127.0,143.0,126.0,128.0,11.0,-121.0,-81.0,127.0,127.0,127.0,119.0,83.0,-61.0
127.0,127.0,127.0,125.0,127.0,142.0,126.0,128.0,11.0,-121.0,-81.0,127.0,127.0,127.0,119.0,83.0,-61.0
127.0,127.0,126.0,125.0,127.0,142.0,127.0,128.0,11.0,-121.0,-81.0,127.0,127.0,127.0,119.0,83.0,-61.0
127.0,127.0,126.0,125.0,127.0,142.0,127.0,128.0,11.0,-121.0,-81.0,127.0,127.0,127.0,119.0,83.0,-61.0
127.0,127.0,127.0,124.0,127.0,144.0,126.0,128.0,11.0,-121.0,-81.0,127.0,127.0,127.0,119.0,83.0,-61.0
127.0,127.0,127.0,124.0,127.0,143.0,126.0,128.0,11.0,-121.0,-81.0,127.0,127.0,127.0,119.0,83.0,-61.0
127.0,127.0,125.0,125.0,127.0,143.0,127.0,128.0,12.0,-122.0,-81.0,127.0,127.0,127.0,119.0,83.0,-61.0
127.0,127.0,125.0,125.0,127.0,142.0,127.0,128.0,12.0,-122.0,-81.0,127.0,127.0,127.0,119.0,83.0,-61.0
127.0,127.0,125.0,125.0,127.0,142.0,127.0,128.0,12.0,-122.0,-81.0,127.0,127.0,127.0,119.0,83.0,-61.0
127.0,127.0,125.0,125.0,127.0,142.0,127.0,128.0,12.0,-122.0,-81.0,127.0,127.0,127.0,119.0,83.0,-61.0
127.0,127.0,125.0,125.0,127.0,142.0,127.0,128.0,12.0,-122.0,-81.0,127.0,127.0,127.0,119.0,83.0,-61.0
127.0,127.0,125.0,125.0,127.0,141.0,127.0,128.0,12.0,-122.0,-81.0,127.0,127.0,127.0,119.0,83.0,-61.0
127.0,127.0,125.0,125.0,127.0,141.0,127.0,128.0,12.0,-122.0,-81.0,127.0,127.0,127.0,119.0,83.0,-61.0
127.0,127.0,125.0,125.0,127.0,143.0,127.0,128.0,12.0,-122.0,-81.0,127.0,127.0,127.0,119.0,83.0,-61.0
127.0,127.0,125.0,125.0,127.0,143.0,127.0,128.0,12.0,-122.0,-81.0,127.0,127.0,127.0,119.0,83.0,-61.0
127.0,127.0,125.0,125.0,127.0,143.0,127.0,128.0,12.0,-122.0,-81.0,127.0,127.0,127.0,119.0,83.0,-61.0
127.0,127.0,123.0,125.0,127.0,142.0,127.0,128.0,12.0,-122.0,-80.0,127.0,127.0,127.0,120.0,83.0,-61.0
127.0,128.0,122.0,125.0,127.0,142.0,127.0,128.0,12.0,-122.0,-80.0,127.0,127.0,127.0,120.0,83.0,-61.0
127.0,128.0,122.0,125.0,127.0,142.0,127.0,128.0,12.0,-122.0,-80.0,127.0,127.0,127.0,120.0,83.0,-61.0
127.0,128.0,122.0,126.0,127.0,141.0,127.0,128.0,12.0,-122.0,-80.0,127.0,127.0,127.0,120.0,83.0,-61.0
127.0,128.0,122.0,126.0,127.0,141.0,127.0,128.0,12.0,-122.0,-80.0,127.0,127.0,127.0,120.0,83.0,-61.0
127.0,128.0,122.0,126.0,127.0,141.0,127.0,128.0,12.0,-122.0,-80.0,127.0,127.0,127.0,120.0,83.0,-61.0
127.0,127.0,123.0,125.0,127.0,141.0,127.0,128.0,12.0,-122.0,-80.0,127.0,127.0,127.0,120.0,83.0,-61.0
127.0,127.0,123.0,125.0,127.0,141.0,127.0,128.0,12.0,-122.0,-80.0,127.0,127.0,127.0,120.0,83.0,-61.0
127.0,127.0,123.0,125.0,127.0,141.0,127.0,128.0,12.0,-122.0,-80.0,127.0,127.0,127.0,120.0,83.0,-61.0
127.0,127.0,123.0,125.0,127.0,141.0,127.0,128.0,12.0,-122.0,-80.0,127.0,127.0,127.0,120.0,83.0,-61.0
127.0,127.0,125.0,125.0,127.0,141.0,127.0,128.0,12.0,-122.0,-80.0,127.0,127.0,127.0,120.0,83.0,-61.0
127.0,127.0,125.0,125.0,127.0,141.0,127.0,128.0,12.0,-122.0,-80.0,127.0,127.0,127.0,120.0,83.0,-61.0
127.0,127.0,125.0,125.0,127.0,141.0,127.0,128.0,12.0,-122.0,-80.0,127.0,127.0,127.0,120.0,83.0,-61.0
127.0,127.0,125.0,125.0,127.0,140.0,127.0,128.0,12.0,-122.0,-80.0,127.0,127.0,127.0,120.0,83.0,-61.0
127.0,127.0,125.0,125.0,127.0,140.0,127.0,127.0,12.0,-122.0,-80.0,127.0,127.0,127.0,120.0,83.0,-61.0
127.0,127.0,125.0,125.0,127.0,142.0,127.0,128.0,12.0,-122.0,-80.0,127.0,127.0,127.0,120.0,83.0,-61.0
127.0,127.0,125.0,125.0,127.0,142.0,127.0,128.0,12.0,-122.0,-80.0,127.0,127.0,127.0,120.0,83.0,-61.0
127.0,127.0,125.0,125.0,127.0,142.0,127.0,128.0,12.0,-122.0,-80.0,127.0,127.0,127.0,120.0,83.0,-61.0
127.0,127.0,125.0,125.0,127.0,142.0,127.0,128.0,12.0,-122.0,-80.0,127.0,127.0,127.0,120.0,83.0,-61.0
127.0,127.0,125.0,125.0,127.0,141.0,127.0,128.0,12.0,-122.0,-80.0,127.0,127.0,127.0,120.0,83.0,-61.0
127.0,127.0,128.0,125.0,127.0,142.0,127.0,128.0,11.0,-123.0,-80.0,127.0,127.0,127.0,120.0,83.0,-61.0
127.0,127.0,128.0,125.0,127.0,142.0,127.0,128.0,11.0,-123.0,-80.0,127.0,127.0,127.0,120.0,83.0,-61.0
127.0,127.0,128.0,125.0,127.0,142.0,127.0,128.0,11.0,-123.0,-80.0,127.0,127.0,127.0,120.0,83.0,-61.0
127.0,127.0,128.0,125.0,127.0,141.0,127.0,128.0,11.0,-123.0,-80.0,127.0,127.0,127.0,120.0,83.0,-61.0
127.0,127.0,127.0,125.0,127.0,143.0,127.0,128.0,11.0,-123.0,-80.0,127.0,127.0,127.0,120.0,83.0,-61.0
127.0,127.0,127.0,125.0,127.0,143.0,127.0,128.0,11.0,-123.0,-80.0,127.0,127.0,127.0,120.0,83.0,-61.0
127.0,127.0,127.0,125.0,127.0,143.0,127.0,128.0,11.0,-123.0,-80.0,127.0,127.0,127.0,120.0,83.0,-61.0
127.0,127.0,127.0,125.0,127.0,143.0,127.0,128.0,11.0,-123.0,-80.0,127.0,127.0,127.0,120.0,83.0,-61.0
127.0,127.0,128.0,125.0,127.0,143.0,127.0,128.0,11.0,-123.0,-80.0,127.0,127.0,127.0,120.0,83.0,-61.0
127.0,127.0,128.0,125.0,127.0,142.0,127.0,128.0,11.0,-123.0,-80.0,127.0,127.0,127.0,120.0,83.0,-61.0
127.0,127.0,128.0,125.0,126.0,142.0,127.0,128.0,11.0,-123.0,-80.0,127.0,127.0,127.0,120.0,82.0,-61.0
127.0,127.0,128.0,125.0,127.0,142.0,127.0,128.0,11.0,-123.0,-80.0,127.0,127.0,127.0,120.0,82.0,-61.0
127.0,127.0,128.0,125.0,127.0,142.0,127.0,128.0,11.0,-123.0,-80.0,127.0,127.0,127.0,120.0,82.0,-61.0
127.0,127.0,128.0,124.0,127.0,144.0,126.0,128.0,11.0,-123.0,-80.0,127.0,127.0,127.0,120.0,82.0,-61.0
127.0,127.0,128.0,125.0,127.0,143.0,127.0,128.0,11.0,-123.0,-80.0,127.0,127.0,127.0,120.0,82.0,-61.0
127.0,127.0,128.0,125.0,127.0,143.0,127.0,128.0,11.0,-123.0,-80.0,127.0,127.0,127.0,120.0,82.0,-61.0
127.0,127.0,128.0,125.0,127.0,143.0,127.0,128.0,11.0,-123.0,-80.0,127.0,127.0,127.0,120.0,82.0,-61.0
127.0,127.0,128.0,125.0,127.0,143.0,127.0,128.0,11.0,-123.0,-80.0,127.0,127.0,127.0,120.0,82.0,-61.0
127.0,127.0,128.0,125.0,127.0,143.0,127.0,128.0,11.0,-123.0,-80.0,127.0,127.0,127.0,120.0,82.0,-61.0
127.0,127.0,128.0,125.0,127.0,143.0,127.0,128.0,11.0,-123.0,-80.0,127.0,127.0,127.0,120.0,82.0,-61.0
127.0,126.0,128.0,125.0,126.0,144.0,127.0,128.0,10.0,-124.0,-80.0,127.0,127.0,127.0,121.0,82.0,-61.0
127.0,126.0,128.0,125.0,126.0,144.0,127.0,128.0,10.0,-124.0,-80.0,127.0,127.0,127.0,121.0,82.0,-61.0
127.0,127.0,128.0,125.0,126.0,145.0,127.0,128.0,10.0,-124.0,-80.0,127.0,127.0,127.0,121.0,82.0,-61.0
127.0,127.0,128.0,125.0,126.0,145.0,127.0,128.0,10.0,-124.0,-80.0,127.0,127.0,127.0,121.0,82.0,-61.0
127.0,127.0,128.0,125.0,126.0,145.0,127.0,128.0,10.0,-124.0,-80.0,127.0,127.0,127.0,121.0,82.0,-61.0
127.0,127.0,128.0,125.0,126.0,145.0,127.0,128.0,10.0,-124.0,-80.0,127.0,127.0,127.0,121.0,82.0,-61.0
127.0,127.0,128.0,125.0,126.0,145.0,127.0,128.0,10.0,-124.0,-80.0,127.0,127.0,127.0,121.0,82.0,-61.0
127.0,127.0,128.0,125.0,126.0,145.0,127.0,128.0,10.0,-124.0,-80.0,127.0,127.0,127.0,121.0,82.0,-61.0
127.0,127.0,128.0,125.0,126.0,145.0,127.0,128.0,10.0,-124.0,-80.0,127.0,127.0,127.0,121.0,82.0,-61.0
127.0,126.0,128.0,125.0,126.0,144.0,127.0,128.0,10.0,-124.0,-80.0,127.0,127.0,127.0,121.0,82.0,-61.0
127.0,127.0,127.0,125.0,127.0,146.0,127.0,128.0,9.0,-123.0,-80.0,127.0,127.0,127.0,121.0,82.0,-61.0
127.0,126.0,128.0,125.0,126.0,145.0,127.0,128.0,9.0,-123.0,-80.0,127.0,127.0,127.0,121.0,82.0,-61.0
127.0,126.0,128.0,125.0,126.0,145.0,127.0,128.0,9.0,-123.0,-80.0,127.0,127.0,127.0,121.0,82.0,-61.0
127.0,126.0,128.0,125.0,126.0,146.0,127.0,128.0,9.0,-123.0,-80.0,127.0,127.0,127.0,121.0,82.0,-61.0
127.0,126.0,128.0,125.0,126.0,146.0,127.0,128.0,9.0,-123.0,-80.0,127.0,127.0,127.0,121.0,82.0,-61.0
127.0,126.0,128.0,125.0,126.0,146.0,127.0,128.0,9.0,-123.0,-80.0,127.0,127.0,127.0,121.0,82.0,-61.0
127.0,126.0,128.0,125.0,126.0,145.0,127.0,128.0,9.0,-123.0,-80.0,127.0,127.0,127.0,121.0,82.0,-61.0
127.0,126.0,128.0,125.0,126.0,145.0,127.0,128.0,9.0,-123.0,-80.0,127.0,127.0,127.0,121.0,82.0,-61.0
127.0,126.0,128.0,125.0,126.0,145.0,127.0,128.0,9.0,-123.0,-80.0,127.0,127.0,127.0,121.0,82.0,-61.0
127.0,127.0,127.0,125.0,126.0,145.0,127.0,128.0,9.0,-123.0,-80.0,127.0,127.0,127.0,121.0,82.0,-61.0
127.0,126.0,128.0,125.0,126.0,144.0,127.0,128.0,8.0,-123.0,-80.0,127.0,127.0,127.0,121.0,82.0,-61.0
127.0,126.0,128.0,125.0,126.0,144.0,127.0,128.0,8.0,-123.0,-80.0,127.0,127.0,127.0,121.0,82.0,-61.0
127.0,127.0,127.0,125.0,127.0,145.0,127.0,128.0,8.0,-123.0,-80.0,127.0,127.0,127.0,121.0,82.0,-61.0
127.0,127.0,127.0,125.0,127.0,145.0,127.0,128.0,8.0,-123.0,-80.0,127.0,127.0,127.0,121.0,82.0,-61.0
127.0,127.0,127.0,125.0,127.0,145.0,127.0,128.0,8.0,-123.0,-80.0,127.0,127.0,127.0,121.0,82.0,-61.0
127.0,127.0,127.0,125.0,127.0,145.0,127.0,128.0,8.0,-123.0,-80.0,127.0,127.0,127.0,121.0,82.0,-61.0
127.0,127.0,127.0,125.0,127.0,145.0,127.0,128.0,8.0,-123.0,-80.0,127.0,127.0,127.0,121.0,82.0,-61.0
127.0,127.0,127.0,125.0,127.0,145.0,127.0,128.0,8.0,-123.0,-80.0,127.0,127.0,127.0,121.0,82.0,-61.0
127.0,127.0,126.0,125.0,127.0,145.0,127.0,128.0,8.0,-123.0,-80.0,127.0,127.0,127.0,121.0,82.0,-61.0
127.0,127.0,126.0,125.0,127.0,145.0,127.0,128.0,8.0,-123.0,-80.0,127.0,127.0,127.0,121.0,82.0,-61.0
127.0,126.0,127.0,125.0,126.0,143.0,127.0,128.0,7.0,-122.0,-79.0,127.0,127.0,127.0,121.0,82.0,-61.0
127.0,126.0,126.0,125.0,126.0,144.0,126.0,128.0,7.0,-122.0,-79.0,127.0,127.0,127.0,121.0,82.0,-61.0
127.0,127.0,126.0,125.0,127.0,144.0,126.0,128.0,7.0,-122.0,-79.0,127.0,127.0,127.0,121.0,82.0,-61.0
127.0,127.0,126.0,125.0,127.0,144.0,127.0,128.0,7.0,-122.0,-79.0,127.0,127.0,127.0,121.0,82.0,-61.0
127.0,127.0,126.0,125.0,127.0,144.0,127.0,128.0,7.0,-122.0,-79.0,127.0,127.0,127.0,121.0,82.0,-61.0
127.0,127.0,126.0,125.0,126.0,144.0,127.0,128.0,7.0,-122.0,-79.0,127.0,127.0,127.0,121.0,82.0,-61.0
127.0,127.0,126.0,125.0,126.0,144.0,127.0,128.0,7.0,-122.0,-79.0,127.0,127.0,127.0,121.0,82.0,-61.0
127.0,127.0,126.0,125.0,126.0,144.0,127.0,128.0,7.0,-122.0,-79.0,127.0,127.0,127.0,121.0,82.0,-61.0
127.0,127.0,125.0,125.0,127.0,145.0,126.0,128.0,7.0,-122.0,-79.0,127.0,127.0,127.0,121.0,82.0,-61.0
127.0,126.0,127.0,125.0,126.0,143.0,127.0,128.0,7.0,-122.0,-79.0,127.0,127.0,127.0,121.0,82.0,-61.0
127.0,127.0,126.0,125.0,127.0,145.0,126.0,128.0,7.0,-122.0,-79.0,127.0,126.0,127.0,121.0,82.0,-61.0
127.0,126.0,126.0,125.0,127.0,145.0,126.0,128.0,7.0,-122.0,-79.0,127.0,126.0,127.0,121.0,82.0,-61.0
127.0,126.0,126.0,125.0,127.0,145.0,126.0,128.0,7.0,-122.0,-79.0,127.0,126.0,127.0,121.0,82.0,-61.0
127.0,126.0,126.0,125.0,127.0,144.0,127.0,128.0,7.0,-122.0,-79.0,127.0,126.0,127.0,121.0,82.0,-61.0
127.0,126.0,126.0,125.0,127.0,144.0,127.0,128.0,7.0,-122.0,-79.0,127.0,126.0,127.0,121.0,82.0,-61.0
127.0,126.0,126.0,125.0,127.0,144.0,127.0,128.0,7.0,-122.0,-79.0,127.0,126.0,127.0,121.0,82.0,-61.0
127.0,126.0,126.0,125.0,127.0,144.0,127.0,128.0,7.0,-122.0,-79.0,127.0,126.0,127.0,121.0,82.0,-61.0
127.0,126.0,126.0,125.0,127.0,143.0,127.0,128.0,7.0,-122.0,-79.0,127.0,126.0,127.0,121.0,82.0,-61.0
127.0,127.0,126.0,125.0,127.0,145.0,126.0,128.0,7.0,-122.0,-79.0,127.0,126.0,127.0,121.0,82.0,-61.0
127.0,127.0,126.0,125.0,127.0,145.0,126.0,128.0,7.0,-122.0,-79.0,127.0,126.0,127.0,121.0,82.0,-61.0
127.0,127.0,127.0,125.0,127.0,145.0,127.0,128.0,7.0,-121.0,-79.0,127.0,126.0,127.0,121.0,82.0,-61.0
127.0,127.0,127.0,125.0,127.0,145.0,127.0,128.0,7.0,-121.0,-79.0,127.0,126.0,127.0,121.0,82.0,-61.0
127.0,127.0,127.0,125.0,127.0,145.0,127.0,128.0,7.0,-121.0,-79.0,127.0,126.0,127.0,121.0,82.0,-61.0
127.0,127.0,127.0,125.0,127.0,144.0,127.0,128.0,7.0,-121.0,-79.0,127.0,126.0,127.0,121.0,82.0,-61.0
127.0,127.0,127.0,125.0,127.0,144.0,127.0,128.0,7.0,-121.0,-79.0,127.0,126.0,127.0,121.0,82.0,-61.0
127.0,127.0,127.0,125.0,127.0,144.0,127.0,128.0,7.0,-121.0,-79.0,127.0,126.0,127.0,121.0,82.0,-61.0
127.0,127.0,127.0,125.0,127.0,144.0,127.0,128.0,7.0,-121.0,-79.0,127.0,126.0,127.0,121.0,82.0,-61.0
127.0,127.0,127.0,125.0,127.0,146.0,127.0,128.0,7.0,-121.0,-79.0,127.0,126.0,127.0,121.0,82.0,-61.0
127.0,127.0,127.0,125.0,127.0,146.0,127.0,128.0,7.0,-121.0,-79.0,127.0,126.0,127.0,121.0,82.0,-61.0
127.0,127.0,127.0,125.0,127.0,145.0,127.0,128.0,7.0,-121.0,-79.0,127.0,126.0,127.0,121.0,82.0,-61.0
127.0,126.0,127.0,125.0,127.0,143.0,127.0,128.0,7.0,-121.0,-78.0,127.0,126.0,127.0,121.0,82.0,-61.0
126.0,126.0,127.0,125.0,127.0,143.0,127.0,128.0,7.0,-121.0,-78.0,127.0,126.0,127.0,121.0,82.0,-61.0
127.0,126.0,127.0,125.0,127.0,143.0,127.0,128.0,7.0,-121.0,-78.0,127.0,126.0,127.0,121.0,82.0,-61.0
126.0,126.0,127.0,125.0,127.0,143.0,127.0,128.0,7.0,-121.0,-78.0,127.0,126.0,127.0,121.0,82.0,-61.0
127.0,126.0,127.0,125.0,127.0,143.0,127.0,128.0,7.0,-121.0,-78.0,127.0,126.0,127.0,121.0,82.0,-61.0
127.0,127.0,126.0,125.0,127.0,144.0,127.0,128.0,7.0,-121.0,-78.0,127.0,126.0,127.0,121.0,82.0,-61.0
127.0,127.0,127.0,125.0,127.0,144.0,127.0,128.0,7.0,-121.0,-78.0,127.0,126.0,127.0,121.0,82.0,-61.0
127.0,127.0,126.0,125.0,127.0,144.0,127.0,128.0,7.0,-121.0,-78.0,127.0,126.0,127.0,121.0,82.0,-61.0
127.0,127.0,126.0,125.0,127.0,144.0,127.0,128.0,7.0,-121.0,-78.0,127.0,126.0,127.0,121.0,82.0,-61.0
127.0,126.0,127.0,125.0,127.0,144.0,127.0,128.0,7.0,-121.0,-78.0,127.0,126.0,127.0,121.0,82.0,-61.0
127.0,127.0,127.0,126.0,127.0,142.0,127.0,128.0,8.0,-121.0,-77.0,127.0,126.0,127.0,122.0,82.0,-61.0
127.0,127.0,127.0,126.0,127.0,142.0,127.0,128.0,8.0,-121.0,-77.0,127.0,126.0,127.0,122.0,82.0,-61.0
127.0,127.0,127.0,126.0,127.0,142.0,127.0,128.0,8.0,-121.0,-77.0,127.0,126.0,127.0,122.0,82.0,-61.0
127.0,127.0,127.0,126.0,127.0,142.0,127.0,128.0,8.0,-121.0,-77.0,127.0,126.0,127.0,122.0,82.0,-61.0
127.0,127.0,127.0,126.0,127.0,141.0,127.0,128.0,8.0,-121.0,-77.0,127.0,126.0,127.0,122.0,82.0,-61.0
127.0,127.0,127.0,126.0,127.0,143.0,127.0,128.0,8.0,-121.0,-77.0,127.0,126.0,127.0,122.0,82.0,-61.0
127.0,127.0,127.0,126.0,127.0,143.0,127.0,128.0,8.0,-121.0,-77.0,127.0,126.0,127.0,122.0,82.0,-61.0
127.0,127.0,127.0,126.0,127.0,143.0,127.0,128.0,8.0,-121.0,-77.0,127.0,126.0,127.0,122.0,82.0,-61.0
127.0,127.0,127.0,126.0,127.0,143.0,127.0,128.0,8.0,-121.0,-77.0,127.0,126.0,127.0,122.0,82.0,-61.0
127.0,127.0,127.0,126.0,127.0,142.0,127.0,128.0,8.0,-121.0,-77.0,127.0,126.0,127.0,122.0,82.0,-61.0
126.0,127.0,127.0,126.0,127.0,142.0,127.0,128.0,8.0,-121.0,-77.0,127.0,126.0,127.0,122.0,82.0,-61.0
126.0,127.0,127.0,126.0,127.0,141.0,127.0,128.0,8.0,-121.0,-77.0,127.0,126.0,127.0,122.0,82.0,-61.0
126.0,127.0,127.0,126.0,127.0,141.0,127.0,128.0,8.0,-121.0,-77.0,127.0,126.0,127.0,122.0,82.0,-61.0
126.0,127.0,127.0,126.0,127.0,141.0,127.0,128.0,8.0,-121.0,-77.0,127.0,126.0,127.0,122.0,82.0,-61.0
126.0,127.0,126.0,126.0,127.0,143.0,127.0,128.0,8.0,-121.0,-77.0,127.0,126.0,127.0,122.0,82.0,-61.0
126.0,127.0,126.0,126.0,127.0,143.0,127.0,128.0,8.0,-121.0,-77.0,127.0,126.0,127.0,122.0,82.0,-61.0
126.0,127.0,126.0,126.0,127.0,143.0,127.0,128.0,8.0,-121.0,-77.0,127.0,126.0,127.0,122.0,82.0,-61.0
126.0,127.0,127.0,126.0,127.0,142.0,127.0,128.0,8.0,-121.0,-77.0,127.0,126.0,127.0,122.0,82.0,-61.0
126.0,127.0,127.0,126.0,127.0,142.0,127.0,128.0,8.0,-121.0,-77.0,127.0,126.0,127.0,122.0,82.0,-61.0
126.0,127.0,127.0,126.0,127.0,142.0,127.0,128.0,8.0,-121.0,-77.0,127.0,126.0,127.0,122.0,82.0,-61.0
127.0,127.0,127.0,126.0,127.0,142.0,126.0,128.0,9.0,-121.0,-76.0,127.0,127.0,-128.0,122.0,82.0,-61.0
127.0,127.0,127.0,126.0,127.0,142.0,126.0,128.0,9.0,-121.0,-76.0,127.0,127.0,-128.0,122.0,82.0,-61.0
127.0,127.0,127.0,126.0,127.0,141.0,126.0,128.0,9.0,-121.0,-76.0,127.0,127.0,-128.0,122.0,82.0,-61.0
127.0,126.0,128.0,126.0,127.0,141.0,126.0,128.0,9.0,-121.0,-76.0,127.0,127.0,-128.0,122.0,82.0,-61.0
127.0,127.0,128.0,126.0,127.0,141.0,126.0,128.0,9.0,-121.0,-76.0,127.0,127.0,-128.0,122.0,82.0,-61.0
127.0,127.0,128.0,126.0,127.0,141.0,126.0,128.0,9.0,-121.0,-76.0,127.0,127.0,-128.0,122.0,82.0,-61.0
127.0,127.0,128.0,126.0,127.0,141.0,126.0,128.0,9.0,-121.0,-76.0,127.0,127.0,-128.0,122.0,82.0,-61.0
127.0,126.0,128.0,126.0,127.0,141.0,126.0,128.0,9.0,-121.0,-76.0,127.0,127.0,-128.0,122.0,82.0,-61.0
127.0,126.0,128.0,126.0,127.0,141.0,126.0,128.0,9.0,-121.0,-76.0,127.0,127.0,-128.0,122.0,82.0,-61.0
127.0,127.0,128.0,126.0,127.0,141.0,126.0,128.0,9.0,-121.0,-76.0,127.0,127.0,-128.0,122.0,82.0,-61.0
127.0,126.0,128.0,126.0,127.0,143.0,126.0,128.0,9.0,-120.0,-75.0,127.0,127.0,-128.0,122.0,82.0,-61.0
127.0,126.0,128.0,126.0,127.0,142.0,126.0,128.0,9.0,-120.0,-75.0,127.0,127.0,-128.0,122.0,82.0,-61.0
127.0,126.0,129.0,125.0,127.0,141.0,126.0,128.0,9.0,-120.0,-75.0,127.0,127.0,-128.0,122.0,82.0,-61.0
127.0,126.0,129.0,125.0,127.0,142.0,126.0,128.0,9.0,-120.0,-75.0,127.0,127.0,-128.0,122.0,82.0,-61.0
127.0,126.0,128.0,125.0,127.0,142.0,126.0,128.0,9.0,-120.0,-75.0,127.0,127.0,-128.0,122.0,82.0,-61.0
127.0,126.0,128.0,125.0,127.0,142.0,126.0,128.0,9.0,-120.0,-75.0,127.0,127.0,-128.0,122.0,82.0,-61.0
127.0,126.0,128.0,125.0,127.0,142.0,126.0,128.0,9.0,-120.0,-75.0,127.0,127.0,-128.0,122.0,82.0,-61.0
127.0,126.0,128.0,126.0,127.0,142.0,126.0,128.0,9.0,-120.0,-75.0,127.0,127.0,-128.0,122.0,82.0,-61.0
127.0,126.0,128.0,126.0,127.0,142.0,126.0,128.0,9.0,-120.0,-75.0,127.0,127.0,-128.0,122.0,82.0,-61.0
127.0,126.0,128.0,126.0,127.0,142.0,126.0,128.0,9.0,-120.0,-75.0,127.0,127.0,-128.0,122.0,82.0,-61.0
127.0,126.0,127.0,126.0,127.0,143.0,126.0,128.0,9.0,-120.0,-74.0,127.0,127.0,-128.0,122.0,82.0,-61.0
127.0,125.0,128.0,125.0,126.0,141.0,126.0,128.0,9.0,-120.0,-74.0,127.0,127.0,-128.0,122.0,82.0,-61.0
127.0,126.0,128.0,125.0,127.0,143.0,126.0,128.0,9.0,-120.0,-74.0,127.0,127.0,-128.0,122.0,82.0,-61.0
127.0,126.0,128.0,125.0,127.0,143.0,126.0,128.0,9.0,-120.0,-74.0,127.0,127.0,-128.0,122.0,82.0,-61.0
127.0,126.0,128.0,125.0,127.0,142.0,126.0,128.0,9.0,-120.0,-74.0,127.0,127.0,-128.0,122.0,82.0,-61.0
127.0,126.0,128.0,125.0,127.0,142.0,126.0,128.0,9.0,-120.0,-74.0,127.0,127.0,-128.0,122.0,82.0,-61.0
127.0,126.0,128.0,125.0,127.0,142.0,126.0,128.0,9.0,-120.0,-74.0,127.0,127.0,-128.0,122.0,82.0,-61.0
127.0,126.0,128.0,125.0,127.0,142.0,126.0,128.0,9.0,-120.0,-74.0,127.0,127.0,-128.0,122.0,82.0,-61.0
127.0,126.0,127.0,125.0,127.0,143.0,126.0,128.0,9.0,-120.0,-74.0,127.0,127.0,-128.0,122.0,82.0,-61.0
127.0,126.0,127.0,126.0,127.0,143.0,126.0,128.0,9.0,-120.0,-74.0,127.0,127.0,-128.0,122.0,82.0,-61.0
127.0,125.0,130.0,125.0,126.0,142.0,125.0,128.0,9.0,-119.0,-73.0,127.0,127.0,-128.0,122.0,82.0,-61.0
127.0,125.0,129.0,125.0,126.0,143.0,125.0,128.0,9.0,-119.0,-73.0,127.0,127.0,-128.0,122.0,82.0,-61.0
127.0,125.0,129.0,125.0,127.0,143.0,125.0,128.0,9.0,-119.0,-73.0,127.0,127.0,-128.0,122.0,82.0,-61.0
127.0,125.0,129.0,125.0,127.0,143.0,126.0,128.0,9.0,-119.0,-73.0,127.0,127.0,-128.0,122.0,82.0,-61.0
127.0,125.0,129.0,125.0,126.0,142.0,126.0,128.0,9.0,-119.0,-73.0,127.0,127.0,-128.0,122.0,82.0,-61.0
127.0,125.0,129.0,125.0,126.0,142.0,126.0,128.0,9.0,-119.0,-73.0,127.0,127.0,-128.0,122.0,82.0,-61.0
127.0,125.0,129.0,125.0,126.0,142.0,126.0,128.0,9.0,-119.0,-73.0,127.0,127.0,-128.0,122.0,82.0,-61.0
127.0,126.0,128.0,125.0,127.0,143.0,125.0,128.0,9.0,-119.0,-73.0,127.0,127.0,-128.0,122.0,82.0,-61.0
127.0,126.0,128.0,125.0,127.0,143.0,126.0,128.0,9.0,-119.0,-73.0,127.0,127.0,-128.0,122.0,82.0,-61.0
127.0,126.0,128.0,125.0,127.0,143.0,126.0,128.0,9.0,-119.0,-73.0,127.0,127.0,-128.0,122.0,82.0,-61.0
127.0,125.0,129.0,125.0,126.0,142.0,126.0,128.0,9.0,-118.0,-73.0,127.0,127.0,-128.0,122.0,82.0,-60.0
127.0,125.0,129.0,125.0,126.0,142.0,126.0,128.0,9.0,-118.0,-73.0,127.0,127.0,-128.0,122.0,82.0,-60.0
127.0,125.0,129.0,125.0,126.0,142.0,126.0,128.0,9.0,-118.0,-73.0,127.0,127.0,-128.0,122.0,82.0,-60.0
127.0,125.0,129.0,125.0,126.0,142.0,126.0,128.0,9.0,-118.0,-73.0,127.0,127.0,-128.0,122.0,82.0,-60.0
127.0,125.0,129.0,125.0,126.0,142.0,126.0,128.0,9.0,-118.0,-73.0,127.0,127.0,-128.0,122.0,82.0,-60.0
127.0,125.0,129.0,125.0,126.0,142.0,126.0,128.0,9.0,-118.0,-73.0,127.0,127.0,-128.0,122.0,82.0,-60.0
127.0,125.0,129.0,125.0,126.0,142.0,126.0,128.0,9.0,-118.0,-73.0,127.0,127.0,-128.0,122.0,82.0,-60.0
127.0,126.0,129.0,125.0,126.0,143.0,126.0,128.0,9.0,-118.0,-73.0,127.0,127.0,-128.0,122.0,82.0,-60.0
127.0,126.0,128.0,125.0,126.0,143.0,126.0,128.0,9.0,-118.0,-73.0,127.0,127.0,-128.0,122.0,82.0,-60.0
127.0,125.0,130.0,125.0,126.0,141.0,126.0,128.0,9.0,-118.0,-73.0,127.0,127.0,-128.0,122.0,82.0,-60.0
127.0,126.0,128.0,125.0,127.0,140.0,127.0,128.0,9.0,-117.0,-73.0,127.0,127.0,-128.0,122.0,82.0,-60.0
127.0,126.0,128.0,125.0,127.0,140.0,127.0,128.0,9.0,-117.0,-73.0,127.0,127.0,-128.0,122.0,82.0,-60.0
127.0,126.0,128.0,125.0,127.0,140.0,127.0,128.0,9.0,-117.0,-73.0,127.0,127.0,-128.0,122.0,82.0,-60.0
127.0,126.0,128.0,125.0,127.0,139.0,127.0,128.0,9.0,-117.0,-73.0,127.0,127.0,-128.0,122.0,82.0,-60.0
127.0,126.0,128.0,125.0,127.0,139.0,127.0,128.0,9.0,-117.0,-73.0,127.0,127.0,-128.0,122.0,82.0,-60.0
127.0,126.0,128.0,125.0,127.0,140.0,127.0,128.0,9.0,-117.0,-73.0,127.0,127.0,-128.0,122.0,82.0,-60.0
127.0,126.0,127.0,125.0,127.0,140.0,127.0,128.0,9.0,-117.0,-73.0,127.0,127.0,-128.0,122.0,82.0,-60.0
127.0,125.0,129.0,125.0,126.0,139.0,127.0,128.0,9.0,-117.0,-73.0,127.0,127.0,-128.0,122.0,82.0,-60.0
127.0,125.0,129.0,125.0,126.0,139.0,127.0,128.0,9.0,-117.0,-73.0,127.0,127.0,-128.0,122.0,82.0,-60.0
127.0,126.0,128.0,125.0,127.0,140.0,127.0,128.0,9.0,-117.0,-73.0,127.0,127.0,-128.0,122.0,82.0,-60.0
127.0,126.0,126.0,126.0,127.0,138.0,127.0,128.0,10.0,-116.0,-74.0,127.0,127.0,-128.0,122.0,82.0,-60.0
127.0,126.0,126.0,126.0,127.0,138.0,127.0,128.0,10.0,-116.0,-74.0,127.0,127.0,-128.0,122.0,82.0,-60.0
126.0,126.0,126.0,126.0,127.0,138.0,127.0,128.0,10.0,-116.0,-74.0,127.0,127.0,-128.0,122.0,82.0,-60.0
126.0,126.0,126.0,126.0,127.0,138.0,127.0,128.0,10.0,-116.0,-74.0,127.0,127.0,-128.0,122.0,82.0,-60.0
126.0,127.0,126.0,126.0,127.0,138.0,127.0,128.0,10.0,-116.0,-74.0,127.0,127.0,-128.0,122.0,82.0,-60.0
126.0,127.0,125.0,126.0,127.0,138.0,127.0,128.0,10.0,-116.0,-74.0,127.0,127.0,-128.0,122.0,82.0,-60.0
126.0,126.0,127.0,126.0,126.0,137.0,127.0,128.0,10.0,-116.0,-74.0,127.0,127.0,-128.0,122.0,82.0,-60.0
127.0,126.0,127.0,126.0,127.0,137.0,127.0,128.0,10.0,-116.0,-74.0,127.0,127.0,-128.0,122.0,82.0,-60.0
126.0,126.0,127.0,126.0,127.0,138.0,127.0,128.0,10.0,-116.0,-74.0,127.0,127.0,-128.0,122.0,82.0,-60.0
126.0,126.0,126.0,126.0,127.0,138.0,127.0,128.0,10.0,-116.0,-74.0,127.0,127.0,-128.0,122.0,82.0,-60.0
125.0,126.0,126.0,126.0,127.0,137.0,127.0,128.0,11.0,-116.0,-74.0,127.0,127.0,-128.0,122.0,82.0,-60.0
125.0,126.0,126.0,126.0,127.0,137.0,127.0,128.0,11.0,-116.0,-74.0,127.0,127.0,-128.0,122.0,82.0,-60.0
125.0,126.0,126.0,126.0,127.0,137.0,127.0,128.0,11.0,-116.0,-74.0,127.0,127.0,-128.0,122.0,82.0,-60.0
125.0,126.0,126.0,126.0,127.0,137.0,127.0,128.0,11.0,-116.0,-74.0,127.0,127.0,-128.0,122.0,82.0,-60.0
125.0,127.0,125.0,126.0,127.0,138.0,127.0,128.0,11.0,-116.0,-74.0,127.0,127.0,-128.0,122.0,82.0,-60.0
125.0,125.0,127.0,126.0,127.0,136.0,127.0,128.0,11.0,-116.0,-74.0,127.0,127.0,-128.0,122.0,82.0,-60.0
125.0,125.0,127.0,126.0,127.0,136.0,127.0,128.0,11.0,-116.0,-74.0,127.0,127.0,-128.0,122.0,82.0,-60.0
125.0,126.0,127.0,126.0,127.0,137.0,127.0,128.0,11.0,-116.0,-74.0,127.0,127.0,-128.0,122.0,82.0,-60.0
125.0,126.0,126.0,126.0,127.0,138.0,127.0,128.0,11.0,-116.0,-74.0,127.0,127.0,-128.0,122.0,82.0,-60.0
125.0,126.0,126.0,126.0,127.0,138.0,127.0,128.0,11.0,-116.0,-74.0,127.0,127.0,-128.0,122.0,82.0,-60.0
126.0,126.0,126.0,126.0,126.0,135.0,127.0,128.0,13.0,-116.0,-73.0,-128.0,127.0,-128.0,122.0,82.0,-59.0
126.0,126.0,126.0,126.0,127.0,135.0,127.0,128.0,13.0,-116.0,-73.0,-128.0,127.0,-128.0,122.0,82.0,-59.0
126.0,126.0,126.0,126.0,127.0,135.0,127.0,128.0,13.0,-116.0,-73.0,-128.0,127.0,-128.0,122.0,82.0,-59.0
126.0,126.0,126.0,126.0,127.0,135.0,127.0,128.0,13.0,-116.0,-73.0,-128.0,127.0,-128.0,122.0,82.0,-59.0
126.0,126.0,126.0,126.0,127.0,135.0,127.0,128.0,13.0,-116.0,-73.0,-128.0,127.0,-128.0,122.0,82.0,-59.0
126.0,126.0,126.0,126.0,127.0,135.0,127.0,128.0,13.0,-116.0,-73.0,-128.0,127.0,-128.0,122.0,82.0,-59.0
126.0,126.0,126.0,126.0,127.0,135.0,127.0,128.0,13.0,-116.0,-73.0,-128.0,127.0,-128.0,122.0,82.0,-59.0
126.0,126.0,126.0,126.0,127.0,135.0,127.0,128.0,13.0,-116.0,-73.0,-128.0,127.0,-128.0,122.0,82.0,-59.0
126.0,126.0,126.0,126.0,127.0,135.0,127.0,128.0,13.0,-116.0,-73.0,-128.0,127.0,-128.0,122.0,82.0,-59.0
126.0,126.0,126.0,126.0,127.0,135.0,127.0,128.0,13.0,-116.0,-73.0,-128.0,127.0,-128.0,122.0,82.0,-59.0
127.0,127.0,125.0,126.0,127.0,138.0,126.0,128.0,15.0,-115.0,-73.0,-128.0,127.0,-128.0,122.0,82.0,-59.0
127.0,127.0,126.0,127.0,127.0,138.0,126.0,128.0,15.0,-115.0,-73.0,-128.0,127.0,-128.0,122.0,82.0,-59.0
127.0,127.0,125.0,127.0,127.0,139.0,126.0,128.0,15.0,-115.0,-73.0,-128.0,127.0,-128.0,122.0,82.0,-59.0
127.0,126.0,126.0,126.0,127.0,138.0,126.0,128.0,15.0,-115.0,-73.0,-128.0,127.0,-128.0,122.0,82.0,-59.0
127.0,126.0,126.0,126.0,127.0,138.0,126.0,128.0,15.0,-115.0,-73.0,-128.0,127.0,-128.0,122.0,82.0,-59.0
127.0,126.0,126.0,126.0,127.0,138.0,126.0,128.0,15.0,-115.0,-73.0,-128.0,127.0,-128.0,122.0,82.0,-59.0
127.0,126.0,126.0,126.0,126.0,138.0,126.0,128.0,15.0,-115.0,-73.0,-128.0,127.0,-128.0,122.0,82.0,-59.0
127.0,126.0,126.0,126.0,126.0,138.0,126.0,128.0,15.0,-115.0,-73.0,-128.0,127.0,-128.0,122.0,82.0,-59.0
127.0,126.0,126.0,126.0,126.0,138.0,126.0,128.0,15.0,-115.0,-73.0,-128.0,127.0,-128.0,122.0,82.0,-59.0
127.0,127.0,125.0,126.0,127.0,138.0,126.0,128.0,15.0,-115.0,-73.0,-128.0,127.0,-128.0,122.0,82.0,-59.0
127.0,126.0,126.0,126.0,127.0,139.0,127.0,128.0,17.0,-114.0,-73.0,127.0,127.0,-128.0,122.0,82.0,-58.0
127.0,126.0,126.0,126.0,127.0,139.0,127.0,128.0,17.0,-114.0,-73.0,127.0,127.0,-128.0,122.0,82.0,-58.0
127.0,126.0,127.0,126.0,126.0,138.0,127.0,128.0,17.0,-114.0,-73.0,127.0,127.0,-128.0,122.0,82.0,-58.0
127.0,126.0,127.0,126.0,127.0,138.0,127.0,128.0,17.0,-114.0,-73.0,127.0,127.0,-128.0,122.0,82.0,-58.0
127.0,126.0,127.0,126.0,126.0,138.0,127.0,128.0,17.0,-114.0,-73.0,127.0,127.0,-128.0,122.0,82.0,-58.0
127.0,126.0,126.0,126.0,127.0,139.0,127.0,128.0,17.0,-114.0,-73.0,127.0,127.0,-128.0,122.0,82.0,-58.0
127.0,126.0,126.0,126.0,127.0,139.0,127.0,128.0,17.0,-114.0,-73.0,127.0,127.0,-128.0,122.0,82.0,-58.0
127.0,126.0,126.0,126.0,127.0,139.0,127.0,128.0,17.0,-114.0,-73.0,127.0,127.0,-128.0,122.0,82.0,-58.0
127.0,126.0,126.0,126.0,127.0,139.0,127.0,128.0,17.0,-114.0,-73.0,127.0,127.0,-128.0,122.0,82.0,-58.0
127.0,126.0,126.0,126.0,127.0,139.0,127.0,128.0,17.0,-114.0,-73.0,127.0,127.0,-128.0,122.0,82.0,-58.0
127.0,126.0,125.0,127.0,127.0,140.0,127.0,128.0,19.0,-113.0,-73.0,127.0,127.0,-128.0,122.0,82.0,-58.0
127.0,126.0,127.0,126.0,127.0,139.0,127.0,128.0,19.0,-113.0,-73.0,127.0,127.0,-128.0,122.0,82.0,-58.0
127.0,126.0,126.0,126.0,127.0,139.0,127.0,128.0,19.0,-113.0,-73.0,127.0,127.0,-128.0,122.0,82.0,-58.0
127.0,126.0,126.0,126.0,127.0,139.0,127.0,128.0,19.0,-113.0,-73.0,127.0,127.0,-128.0,122.0,82.0,-58.0
127.0,126.0,126.0,126.0,127.0,140.0,127.0,128.0,19.0,-113.0,-73.0,127.0,127.0,-128.0,122.0,82.0,-58.0
127.0,127.0,126.0,126.0,127.0,140.0,127.0,128.0,19.0,-113.0,-73.0,127.0,127.0,-128.0,122.0,82.0,-58.0
127.0,127.0,126.0,127.0,127.0,140.0,127.0,128.0,19.0,-113.0,-73.0,127.0,127.0,-128.0,122.0,82.0,-58.0
127.0,126.0,126.0,127.0,127.0,140.0,127.0,128.0,19.0,-113.0,-73.0,127.0,127.0,-128.0,122.0,82.0,-58.0
127.0,126.0,126.0,127.0,127.0,140.0,127.0,128.0,19.0,-113.0,-73.0,127.0,127.0,-128.0,122.0,82.0,-58.0
127.0,126.0,126.0,127.0,127.0,140.0,127.0,128.0,19.0,-113.0,-73.0,127.0,127.0,-128.0,122.0,82.0,-58.0
127.0,126.0,127.0,126.0,126.0,141.0,127.0,129.0,22.0,-113.0,-73.0,127.0,127.0,-127.0,122.0,82.0,-58.0
127.0,126.0,127.0,126.0,126.0,141.0,127.0,129.0,22.0,-113.0,-73.0,127.0,127.0,-127.0,122.0,82.0,-58.0
127.0,126.0,127.0,126.0,126.0,141.0,127.0,129.0,22.0,-113.0,-73.0,127.0,127.0,-127.0,122.0,82.0,-58.0
127.0,126.0,127.0,126.0,126.0,141.0,127.0,129.0,22.0,-113.0,-73.0,127.0,127.0,-127.0,122.0,82.0,-58.0
127.0,125.0,127.0,126.0,126.0,141.0,127.0,128.0,22.0,-113.0,-73.0,127.0,127.0,-127.0,122.0,82.0,-58.0
127.0,126.0,127.0,126.0,126.0,141.0,127.0,129.0,22.0,-113.0,-73.0,127.0,127.0,-127.0,122.0,82.0,-58.0
127.0,126.0,128.0,126.0,126.0,140.0,127.0,128.0,22.0,-113.0,-73.0,127.0,127.0,-127.0,122.0,82.0,-58.0
127.0,126.0,128.0,126.0,126.0,140.0,127.0,128.0,22.0,-113.0,-73.0,127.0,127.0,-127.0,122.0,82.0,-58.0
127.0,126.0,128.0,126.0,127.0,140.0,128.0,129.0,22.0,-113.0,-73.0,127.0,127.0,-127.0,122.0,82.0,-58.0
127.0,126.0,128.0,126.0,127.0,140.0,128.0,129.0,22.0,-113.0,-73.0,127.0,127.0,-127.0,122.0,82.0,-58.0
127.0,125.0,127.0,126.0,126.0,140.0,127.0,129.0,23.0,-113.0,-73.0,127.0,127.0,-127.0,122.0,82.0,-58.0
127.0,125.0,127.0,126.0,126.0,140.0,127.0,129.0,23.0,-113.0,-73.0,127.0,127.0,-127.0,122.0,82.0,-58.0
127.0,125.0,127.0,126.0,126.0,140.0,127.0,129.0,23.0,-113.0,-73.0,127.0,127.0,-127.0,122.0,82.0,-58.0
127.0,125.0,127.0,126.0,126.0,140.0,127.0,129.0,23.0,-113.0,-73.0,127.0,127.0,-127.0,122.0,82.0,-58.0
127.0,125.0,127.0,126.0,126.0,140.0,127.0,129.0,23.0,-113.0,-73.0,127.0,127.0,-127.0,122.0,82.0,-58.0
127.0,124.0,127.0,126.0,126.0,139.0,127.0,129.0,23.0,-113.0,-73.0,127.0,127.0,-127.0,122.0,82.0,-58.0
127.0,124.0,127.0,126.0,126.0,139.0,127.0,129.0,23.0,-113.0,-73.0,127.0,127.0,-127.0,122.0,82.0,-58.0
126.0,124.0,127.0,126.0,126.0,139.0,127.0,129.0,23.0,-113.0,-73.0,127.0,127.0,-127.0,122.0,82.0,-58.0
126.0,124.0,127.0,126.0,126.0,139.0,127.0,129.0,23.0,-113.0,-73.0,127.0,127.0,-127.0,122.0,82.0,-58.0
127.0,125.0,127.0,126.0,126.0,140.0,127.0,129.0,23.0,-113.0,-73.0,127.0,127.0,-127.0,122.0,82.0,-58.0
127.0,124.0,123.0,126.0,126.0,146.0,126.0,129.0,24.0,-112.0,-74.0,-128.0,127.0,-128.0,122.0,82.0,-57.0
127.0,124.0,123.0,126.0,126.0,146.0,126.0,129.0,24.0,-112.0,-74.0,-128.0,127.0,-128.0,122.0,82.0,-57.0
127.0,124.0,123.0,126.0,126.0,145.0,126.0,129.0,24.0,-112.0,-74.0,-128.0,127.0,-128.0,122.0,82.0,-57.0
127.0,124.0,123.0,126.0,126.0,145.0,126.0,129.0,24.0,-112.0,-74.0,-128.0,127.0,-128.0,122.0,82.0,-57.0
127.0,124.0,122.0,126.0,126.0,145.0,127.0,129.0,24.0,-112.0,-74.0,-128.0,127.0,-128.0,122.0,82.0,-57.0
127.0,124.0,122.0,126.0,126.0,145.0,127.0,129.0,24.0,-112.0,-74.0,-128.0,127.0,-128.0,122.0,82.0,-57.0
127.0,124.0,122.0,126.0,126.0,145.0,127.0,129.0,24.0,-112.0,-74.0,-128.0,127.0,-128.0,122.0,82.0,-57.0
127.0,124.0,122.0,126.0,126.0,145.0,127.0,129.0,24.0,-112.0,-74.0,-128.0,127.0,-128.0,122.0,82.0,-57.0
127.0,124.0,123.0,126.0,127.0,146.0,126.0,129.0,24.0,-112.0,-74.0,-128.0,127.0,-128.0,122.0,82.0,-57.0
127.0,124.0,123.0,126.0,126.0,146.0,126.0,129.0,24.0,-112.0,-74.0,-128.0,127.0,-128.0,122.0,82.0,-57.0
127.0,124.0,122.0,126.0,127.0,151.0,126.0,129.0,24.0,-110.0,-74.0,-128.0,127.0,-128.0,121.0,82.0,-57.0
127.0,124.0,123.0,126.0,127.0,151.0,126.0,129.0,24.0,-110.0,-74.0,-128.0,127.0,-128.0,121.0,82.0,-57.0
127.0,124.0,123.0,126.0,127.0,151.0,126.0,129.0,24.0,-110.0,-74.0,-128.0,127.0,-128.0,121.0,82.0,-57.0
127.0,124.0,123.0,126.0,127.0,151.0,126.0,129.0,24.0,-110.0,-74.0,-128.0,127.0,-128.0,121.0,82.0,-57.0
127.0,124.0,123.0,126.0,127.0,151.0,126.0,129.0,24.0,-110.0,-74.0,-128.0,127.0,-128.0,121.0,82.0,-57.0
127.0,124.0,123.0,126.0,127.0,151.0,126.0,129.0,24.0,-110.0,-74.0,-128.0,127.0,-128.0,121.0,82.0,-57.0
127.0,124.0,123.0,127.0,127.0,150.0,126.0,129.0,24.0,-110.0,-74.0,-128.0,127.0,-128.0,121.0,82.0,-57.0
127.0,124.0,122.0,126.0,127.0,151.0,126.0,129.0,24.0,-110.0,-74.0,-128.0,127.0,-128.0,121.0,82.0,-57.0
127.0,124.0,122.0,126.0,127.0,151.0,126.0,129.0,24.0,-110.0,-74.0,-128.0,127.0,-128.0,121.0,82.0,-57.0
127.0,124.0,122.0,126.0,127.0,151.0,126.0,129.0,24.0,-110.0,-74.0,-128.0,127.0,-128.0,121.0,82.0,-57.0
128.0,125.0,126.0,127.0,127.0,151.0,126.0,129.0,23.0,-108.0,-75.0,-128.0,127.0,-128.0,120.0,82.0,-56.0
127.0,125.0,126.0,127.0,127.0,151.0,126.0,129.0,23.0,-108.0,-75.0,-128.0,127.0,-128.0,120.0,82.0,-56.0
127.0,125.0,126.0,127.0,127.0,151.0,126.0,129.0,23.0,-108.0,-75.0,-128.0,127.0,-128.0,120.0,82.0,-56.0
127.0,125.0,126.0,127.0,127.0,152.0,125.0,129.0,23.0,-108.0,-75.0,-128.0,127.0,-128.0,120.0,82.0,-56.0
127.0,126.0,126.0,127.0,127.0,152.0,126.0,129.0,23.0,-108.0,-75.0,-128.0,127.0,-128.0,120.0,82.0,-56.0
127.0,125.0,126.0,127.0,127.0,152.0,126.0,129.0,23.0,-108.0,-75.0,-128.0,127.0,-128.0,120.0,82.0,-56.0
127.0,124.0,126.0,127.0,127.0,151.0,126.0,129.0,23.0,-108.0,-75.0,-128.0,127.0,-128.0,120.0,82.0,-56.0
127.0,125.0,126.0,127.0,127.0,152.0,125.0,129.0,23.0,-108.0,-75.0,-128.0,127.0,-128.0,120.0,82.0,-56.0
127.0,125.0,126.0,127.0,127.0,152.0,126.0,129.0,23.0,-108.0,-75.0,-128.0,127.0,-128.0,120.0,82.0,-56.0
127.0,125.0,126.0,127.0,127.0,152.0,126.0,129.0,23.0,-108.0,-75.0,-128.0,127.0,-128.0,120.0,82.0,-56.0
127.0,125.0,128.0,128.0,126.0,149.0,126.0,129.0,23.0,-107.0,-76.0,-128.0,127.0,-128.0,120.0,82.0,-56.0
127.0,125.0,128.0,128.0,126.0,149.0,126.0,129.0,23.0,-107.0,-76.0,-128.0,127.0,-128.0,120.0,82.0,-56.0
127.0,126.0,128.0,128.0,126.0,150.0,126.0,129.0,23.0,-107.0,-76.0,-128.0,127.0,-128.0,120.0,82.0,-56.0
127.0,126.0,128.0,128.0,126.0,150.0,126.0,129.0,23.0,-107.0,-76.0,-128.0,127.0,-128.0,120.0,82.0,-56.0
127.0,126.0,128.0,128.0,126.0,149.0,126.0,129.0,23.0,-107.0,-76.0,-128.0,127.0,-128.0,120.0,82.0,-56.0
127.0,125.0,128.0,128.0,126.0,148.0,126.0,128.0,23.0,-107.0,-76.0,-128.0,127.0,-128.0,120.0,82.0,-56.0
127.0,125.0,128.0,128.0,126.0,149.0,126.0,129.0,23.0,-107.0,-76.0,-128.0,127.0,-128.0,120.0,82.0,-56.0
127.0,125.0,128.0,128.0,126.0,149.0,126.0,129.0,23.0,-107.0,-76.0,-128.0,127.0,-128.0,120.0,82.0,-56.0
127.0,125.0,128.0,128.0,126.0,149.0,126.0,129.0,23.0,-107.0,-76.0,-128.0,127.0,-128.0,120.0,82.0,-56.0
127.0,125.0,128.0,128.0,126.0,149.0,126.0,129.0,23.0,-107.0,-76.0,-128.0,127.0,-128.0,120.0,82.0,-56.0
126.0,124.0,130.0,129.0,127.0,148.0,126.0,129.0,22.0,-105.0,-77.0,-128.0,127.0,-128.0,119.0,82.0,-56.0
126.0,124.0,129.0,129.0,127.0,148.0,126.0,129.0,22.0,-105.0,-77.0,-128.0,127.0,-128.0,119.0,82.0,-56.0
126.0,125.0,129.0,129.0,127.0,149.0,126.0,129.0,22.0,-105.0,-77.0,-128.0,127.0,-128.0,119.0,82.0,-56.0
126.0,125.0,129.0,129.0,127.0,149.0,126.0,129.0,22.0,-105.0,-77.0,-128.0,127.0,-128.0,119.0,82.0,-56.0
127.0,124.0,130.0,128.0,127.0,147.0,126.0,129.0,22.0,-105.0,-77.0,-128.0,127.0,-128.0,119.0,82.0,-56.0
127.0,124.0,130.0,128.0,127.0,148.0,126.0,129.0,22.0,-105.0,-77.0,-128.0,127.0,-128.0,119.0,82.0,-56.0
127.0,124.0,130.0,128.0,127.0,149.0,126.0,129.0,22.0,-105.0,-77.0,-128.0,127.0,-128.0,119.0,82.0,-56.0
126.0,124.0,130.0,128.0,127.0,148.0,126.0,129.0,22.0,-105.0,-77.0,-128.0,127.0,-128.0,119.0,82.0,-56.0
127.0,124.0,130.0,129.0,127.0,148.0,126.0,129.0,22.0,-105.0,-77.0,-128.0,127.0,-128.0,119.0,82.0,-56.0
126.0,124.0,130.0,128.0,127.0,148.0,126.0,129.0,22.0,-105.0,-77.0,-128.0,127.0,-128.0,119.0,82.0,-56.0
126.0,124.0,128.0,129.0,127.0,144.0,126.0,129.0,21.0,-104.0,-78.0,-128.0,127.0,-128.0,118.0,82.0,-56.0
126.0,124.0,128.0,129.0,127.0,144.0,126.0,129.0,21.0,-104.0,-78.0,-128.0,127.0,-128.0,118.0,82.0,-56.0
126.0,124.0,128.0,129.0,127.0,144.0,126.0,129.0,21.0,-104.0,-78.0,-128.0,127.0,-128.0,118.0,82.0,-56.0
126.0,124.0,128.0,129.0,127.0,146.0,126.0,129.0,21.0,-104.0,-78.0,-128.0,127.0,-128.0,118.0,82.0,-56.0
126.0,124.0,128.0,129.0,127.0,146.0,126.0,129.0,21.0,-104.0,-78.0,-128.0,127.0,-128.0,118.0,82.0,-56.0
126.0,124.0,128.0,129.0,128.0,146.0,126.0,129.0,21.0,-104.0,-78.0,-128.0,127.0,-128.0,118.0,82.0,-56.0
126.0,124.0,128.0,129.0,127.0,146.0,126.0,129.0,21.0,-104.0,-78.0,-128.0,127.0,-128.0,118.0,82.0,-56.0
126.0,124.0,128.0,129.0,127.0,145.0,126.0,129.0,21.0,-104.0,-78.0,-128.0,127.0,-128.0,118.0,82.0,-56.0
126.0,124.0,128.0,129.0,127.0,145.0,126.0,129.0,21.0,-104.0,-78.0,-128.0,127.0,-128.0,118.0,82.0,-56.0
126.0,124.0,128.0,129.0,127.0,145.0,126.0,129.0,21.0,-104.0,-78.0,-128.0,127.0,-128.0,118.0,82.0,-56.0
126.0,124.0,125.0,129.0,127.0,138.0,125.0,128.0,21.0,-102.0,-79.0,-128.0,126.0,-128.0,118.0,82.0,-55.0
126.0,125.0,125.0,129.0,127.0,138.0,125.0,128.0,21.0,-102.0,-79.0,-128.0,126.0,-128.0,118.0,82.0,-55.0
125.0,124.0,125.0,128.0,127.0,141.0,125.0,128.0,21.0,-102.0,-79.0,-128.0,126.0,-128.0,118.0,82.0,-55.0
125.0,124.0,125.0,129.0,127.0,140.0,125.0,128.0,21.0,-102.0,-79.0,-128.0,126.0,-128.0,118.0,82.0,-55.0
125.0,124.0,125.0,128.0,127.0,140.0,125.0,128.0,21.0,-102.0,-79.0,-128.0,126.0,-128.0,118.0,82.0,-55.0
125.0,124.0,125.0,128.0,127.0,140.0,125.0,128.0,21.0,-102.0,-79.0,-128.0,126.0,-128.0,118.0,82.0,-55.0
126.0,124.0,125.0,128.0,127.0,140.0,125.0,128.0,21.0,-102.0,-79.0,-128.0,126.0,-128.0,118.0,82.0,-55.0
125.0,124.0,125.0,129.0,127.0,139.0,125.0,128.0,21.0,-102.0,-79.0,-128.0,126.0,-128.0,118.0,82.0,-55.0
126.0,124.0,125.0,129.0,127.0,139.0,125.0,128.0,21.0,-102.0,-79.0,-128.0,126.0,-128.0,118.0,82.0,-55.0
126.0,124.0,125.0,129.0,127.0,139.0,125.0,128.0,21.0,-102.0,-79.0,-128.0,126.0,-128.0,118.0,82.0,-55.0
127.0,124.0,126.0,128.0,127.0,132.0,126.0,128.0,21.0,-100.0,-80.0,-128.0,126.0,-128.0,117.0,82.0,-55.0
127.0,124.0,125.0,128.0,127.0,135.0,125.0,128.0,21.0,-100.0,-80.0,-128.0,126.0,-128.0,117.0,82.0,-55.0
127.0,124.0,125.0,128.0,127.0,134.0,125.0,128.0,21.0,-100.0,-80.0,-128.0,126.0,-128.0,117.0,82.0,-55.0
127.0,124.0,125.0,128.0,127.0,134.0,125.0,128.0,21.0,-100.0,-80.0,-128.0,126.0,-128.0,117.0,82.0,-55.0
127.0,124.0,125.0,128.0,127.0,134.0,125.0,128.0,21.0,-100.0,-80.0,-128.0,126.0,-128.0,117.0,82.0,-55.0
127.0,124.0,126.0,128.0,127.0,134.0,125.0,128.0,21.0,-100.0,-80.0,-128.0,126.0,-128.0,117.0,82.0,-55.0
127.0,124.0,126.0,128.0,127.0,133.0,125.0,128.0,21.0,-100.0,-80.0,-128.0,126.0,-128.0,117.0,82.0,-55.0
127.0,124.0,126.0,128.0,127.0,133.0,125.0,128.0,21.0,-100.0,-80.0,-128.0,126.0,-128.0,117.0,82.0,-55.0
127.0,124.0,126.0,128.0,127.0,133.0,126.0,128.0,21.0,-100.0,-80.0,-128.0,126.0,-128.0,117.0,82.0,-55.0
127.0,124.0,126.0,128.0,127.0,133.0,126.0,128.0,21.0,-100.0,-80.0,-128.0,126.0,-128.0,117.0,82.0,-55.0
127.0,125.0,125.0,129.0,127.0,130.0,126.0,128.0,22.0,-99.0,-80.0,-128.0,126.0,-128.0,116.0,82.0,-55.0
127.0,124.0,125.0,129.0,127.0,130.0,126.0,128.0,22.0,-99.0,-80.0,-128.0,126.0,-128.0,116.0,82.0,-55.0
127.0,125.0,125.0,129.0,127.0,129.0,126.0,128.0,22.0,-99.0,-80.0,-128.0,126.0,-128.0,116.0,82.0,-55.0
127.0,125.0,125.0,129.0,127.0,129.0,126.0,128.0,22.0,-99.0,-80.0,-128.0,126.0,-128.0,116.0,82.0,-55.0
127.0,125.0,125.0,129.0,127.0,129.0,126.0,128.0,22.0,-99.0,-80.0,-128.0,126.0,-128.0,116.0,82.0,-55.0
127.0,124.0,125.0,129.0,127.0,129.0,126.0,128.0,22.0,-99.0,-80.0,-128.0,126.0,-128.0,116.0,82.0,-55.0
127.0,125.0,125.0,129.0,127.0,129.0,126.0,128.0,22.0,-99.0,-80.0,-128.0,126.0,-128.0,116.0,82.0,-55.0
127.0,125.0,125.0,129.0,127.0,128.0,126.0,128.0,22.0,-99.0,-80.0,-128.0,126.0,-128.0,116.0,82.0,-55.0
127.0,125.0,125.0,129.0,127.0,128.0,126.0,128.0,22.0,-99.0,-80.0,-128.0,126.0,-128.0,116.0,82.0,-55.0
127.0,125.0,125.0,129.0,127.0,128.0,126.0,128.0,22.0,-99.0,-80.0,-128.0,126.0,-128.0,116.0,82.0,-55.0
127.0,125.0,127.0,128.0,127.0,124.0,126.0,128.0,24.0,-97.0,-80.0,-128.0,126.0,-128.0,116.0,82.0,-55.0
127.0,125.0,127.0,128.0,127.0,124.0,126.0,128.0,24.0,-97.0,-80.0,-128.0,126.0,-128.0,116.0,82.0,-55.0
127.0,125.0,127.0,128.0,127.0,124.0,126.0,128.0,24.0,-97.0,-80.0,-128.0,126.0,-128.0,116.0,82.0,-55.0
127.0,125.0,127.0,128.0,127.0,124.0,126.0,128.0,24.0,-97.0,-80.0,-128.0,126.0,-128.0,116.0,82.0,-55.0
127.0,125.0,127.0,128.0,127.0,123.0,126.0,128.0,24.0,-97.0,-80.0,-128.0,126.0,-128.0,116.0,82.0,-55.0
127.0,125.0,127.0,128.0,127.0,123.0,126.0,128.0,24.0,-97.0,-80.0,-128.0,126.0,-128.0,116.0,82.0,-55.0
127.0,125.0,127.0,128.0,127.0,123.0,126.0,128.0,24.0,-97.0,-80.0,-128.0,126.0,-128.0,116.0,82.0,-55.0
127.0,125.0,127.0,128.0,127.0,122.0,126.0,128.0,24.0,-97.0,-80.0,-128.0,126.0,-128.0,116.0,82.0,-55.0
127.0,125.0,127.0,128.0,127.0,122.0,126.0,127.0,24.0,-97.0,-80.0,-128.0,126.0,-128.0,116.0,82.0,-55.0
127.0,125.0,127.0,128.0,127.0,124.0,126.0,128.0,24.0,-97.0,-80.0,-128.0,126.0,-128.0,116.0,82.0,-55.0
127.0,125.0,130.0,128.0,126.0,121.0,126.0,127.0,25.0,-96.0,-79.0,-128.0,126.0,-128.0,115.0,83.0,-55.0
127.0,125.0,130.0,129.0,127.0,121.0,126.0,127.0,25.0,-96.0,-79.0,-128.0,126.0,-128.0,115.0,83.0,-55.0
127.0,125.0,131.0,129.0,127.0,121.0,126.0,127.0,25.0,-96.0,-79.0,-128.0,126.0,-128.0,115.0,83.0,-55.0
127.0,125.0,131.0,129.0,127.0,120.0,126.0,127.0,25.0,-96.0,-79.0,-128.0,126.0,-128.0,115.0,83.0,-55.0
127.0,125.0,131.0,129.0,127.0,121.0,126.0,127.0,25.0,-96.0,-79.0,-128.0,126.0,-128.0,115.0,83.0,-55.0
127.0,125.0,131.0,129.0,127.0,120.0,126.0,127.0,25.0,-96.0,-79.0,-128.0,126.0,-128.0,115.0,83.0,-55.0
127.0,125.0,130.0,129.0,127.0,121.0,126.0,127.0,25.0,-96.0,-79.0,-128.0,126.0,-128.0,115.0,83.0,-55.0
127.0,124.0,130.0,128.0,126.0,120.0,126.0,127.0,25.0,-96.0,-79.0,-128.0,126.0,-128.0,115.0,83.0,-55.0
127.0,124.0,131.0,128.0,126.0,120.0,126.0,127.0,25.0,-96.0,-79.0,-128.0,126.0,-128.0,115.0,83.0,-55.0
127.0,125.0,130.0,128.0,126.0,120.0,126.0,127.0,25.0,-96.0,-79.0,-128.0,126.0,-128.0,115.0,83.0,-55.0
127.0,124.0,133.0,128.0,126.0,120.0,126.0,127.0,27.0,-95.0,-79.0,127.0,126.0,-128.0,114.0,83.0,-55.0
127.0,124.0,133.0,128.0,126.0,120.0,126.0,127.0,27.0,-95.0,-79.0,127.0,126.0,-128.0,114.0,83.0,-55.0
127.0,124.0,133.0,128.0,126.0,120.0,126.0,127.0,27.0,-95.0,-79.0,127.0,126.0,-128.0,114.0,83.0,-55.0
127.0,124.0,133.0,128.0,126.0,119.0,126.0,127.0,27.0,-95.0,-79.0,127.0,126.0,-128.0,114.0,83.0,-55.0
127.0,125.0,133.0,128.0,126.0,119.0,126.0,127.0,27.0,-95.0,-79.0,127.0,126.0,-128.0,114.0,83.0,-55.0
127.0,125.0,133.0,128.0,127.0,120.0,126.0,127.0,27.0,-95.0,-79.0,127.0,126.0,-128.0,114.0,83.0,-55.0
127.0,124.0,133.0,128.0,126.0,119.0,126.0,127.0,27.0,-95.0,-79.0,127.0,126.0,-128.0,114.0,83.0,-55.0
127.0,124.0,133.0,128.0,126.0,119.0,126.0,127.0,27.0,-95.0,-79.0,127.0,126.0,-128.0,114.0,83.0,-55.0
127.0,124.0,133.0,128.0,126.0,119.0,126.0,127.0,27.0,-95.0,-79.0,127.0,126.0,-128.0,114.0,83.0,-55.0
127.0,124.0,133.0,128.0,126.0,120.0,126.0,127.0,27.0,-95.0,-79.0,127.0,126.0,-128.0,114.0,83.0,-55.0
127.0,124.0,134.0,128.0,126.0,119.0,125.0,127.0,29.0,-95.0,-78.0,127.0,126.0,-128.0,113.0,84.0,-55.0
127.0,124.0,134.0,128.0,126.0,119.0,125.0,127.0,29.0,-95.0,-78.0,127.0,126.0,-128.0,113.0,84.0,-55.0
127.0,124.0,134.0,128.0,126.0,119.0,125.0,127.0,29.0,-95.0,-78.0,127.0,126.0,-128.0,113.0,84.0,-55.0
127.0,124.0,134.0,128.0,126.0,119.0,125.0,127.0,29.0,-95.0,-78.0,127.0,126.0,-128.0,113.0,84.0,-55.0
127.0,124.0,133.0,128.0,126.0,120.0,125.0,127.0,29.0,-95.0,-78.0,127.0,126.0,-128.0,113.0,84.0,-55.0
127.0,124.0,135.0,128.0,126.0,118.0,125.0,127.0,29.0,-95.0,-78.0,127.0,126.0,-128.0,113.0,84.0,-55.0
127.0,124.0,135.0,128.0,126.0,118.0,125.0,127.0,29.0,-95.0,-78.0,127.0,126.0,-128.0,113.0,84.0,-55.0
127.0,124.0,135.0,128.0,126.0,118.0,125.0,127.0,29.0,-95.0,-78.0,127.0,126.0,-128.0,113.0,84.0,-55.0
127.0,124.0,134.0,128.0,126.0,119.0,125.0,127.0,29.0,-95.0,-78.0,127.0,126.0,-128.0,113.0,84.0,-55.0
127.0,124.0,134.0,128.0,126.0,120.0,125.0,127.0,29.0,-95.0,-78.0,127.0,126.0,-128.0,113.0,84.0,-55.0
127.0,124.0,132.0,127.0,126.0,122.0,126.0,127.0,32.0,-94.0,-77.0,127.0,126.0,-128.0,113.0,84.0,-55.0
127.0,124.0,132.0,127.0,126.0,122.0,126.0,127.0,32.0,-94.0,-77.0,127.0,126.0,-128.0,113.0,84.0,-55.0
127.0,124.0,132.0,127.0,126.0,122.0,126.0,127.0,32.0,-94.0,-77.0,127.0,126.0,-128.0,113.0,84.0,-55.0
127.0,124.0,131.0,127.0,126.0,123.0,126.0,127.0,32.0,-94.0,-77.0,127.0,126.0,-128.0,113.0,84.0,-55.0
127.0,123.0,132.0,127.0,126.0,121.0,126.0,127.0,32.0,-94.0,-77.0,127.0,126.0,-128.0,113.0,84.0,-55.0
127.0,123.0,132.0,127.0,126.0,121.0,126.0,127.0,32.0,-94.0,-77.0,127.0,126.0,-128.0,113.0,84.0,-55.0
127.0,123.0,132.0,127.0,126.0,121.0,126.0,127.0,32.0,-94.0,-77.0,127.0,126.0,-128.0,113.0,84.0,-55.0
127.0,124.0,132.0,127.0,126.0,122.0,125.0,127.0,32.0,-94.0,-77.0,127.0,126.0,-128.0,113.0,84.0,-55.0
127.0,124.0,132.0,127.0,126.0,123.0,126.0,127.0,32.0,-94.0,-77.0,127.0,126.0,-128.0,113.0,84.0,-55.0
127.0,124.0,132.0,127.0,126.0,123.0,126.0,127.0,32.0,-94.0,-77.0,127.0,126.0,-128.0,113.0,84.0,-55.0
127.0,124.0,132.0,126.0,126.0,126.0,126.0,127.0,34.0,-93.0,-76.0,127.0,126.0,-128.0,112.0,84.0,-55.0
127.0,124.0,132.0,126.0,126.0,126.0,126.0,127.0,34.0,-93.0,-76.0,127.0,126.0,-128.0,112.0,84.0,-55.0
127.0,124.0,132.0,126.0,126.0,126.0,126.0,127.0,34.0,-93.0,-76.0,127.0,126.0,-128.0,112.0,84.0,-55.0
127.0,123.0,133.0,126.0,126.0,124.0,126.0,127.0,34.0,-93.0,-76.0,127.0,126.0,-128.0,112.0,84.0,-55.0
127.0,123.0,132.0,126.0,126.0,125.0,126.0,127.0,34.0,-93.0,-76.0,127.0,126.0,-128.0,112.0,84.0,-55.0
127.0,123.0,133.0,126.0,126.0,125.0,126.0,127.0,34.0,-93.0,-76.0,127.0,126.0,-128.0,112.0,84.0,-55.0
127.0,124.0,132.0,126.0,126.0,126.0,126.0,127.0,34.0,-93.0,-76.0,127.0,126.0,-128.0,112.0,84.0,-55.0
127.0,124.0,132.0,126.0,126.0,126.0,126.0,127.0,34.0,-93.0,-76.0,127.0,126.0,-128.0,112.0,84.0,-55.0
127.0,124.0,132.0,126.0,126.0,126.0,126.0,127.0,34.0,-93.0,-76.0,127.0,126.0,-128.0,112.0,84.0,-55.0
127.0,124.0,132.0,126.0,126.0,126.0,126.0,127.0,34.0,-93.0,-76.0,127.0,126.0,-128.0,112.0,84.0,-55.0
128.0,124.0,131.0,127.0,126.0,127.0,126.0,127.0,36.0,-92.0,-76.0,127.0,126.0,-128.0,111.0,84.0,-55.0
128.0,124.0,131.0,127.0,126.0,127.0,126.0,127.0,36.0,-92.0,-76.0,127.0,126.0,-128.0,111.0,84.0,-55.0
128.0,124.0,131.0,127.0,127.0,128.0,126.0,127.0,36.0,-92.0,-76.0,127.0,126.0,-128.0,111.0,84.0,-55.0
128.0,124.0,131.0,127.0,126.0,128.0,126.0,127.0,36.0,-92.0,-76.0,127.0,126.0,-128.0,111.0,84.0,-55.0
128.0,124.0,131.0,127.0,127.0,128.0,126.0,127.0,36.0,-92.0,-76.0,127.0,126.0,-128.0,111.0,84.0,-55.0
128.0,124.0,131.0,127.0,126.0,128.0,126.0,127.0,36.0,-92.0,-76.0,127.0,126.0,-128.0,111.0,84.0,-55.0
128.0,124.0,131.0,127.0,126.0,128.0,126.0,127.0,36.0,-92.0,-76.0,127.0,126.0,-128.0,111.0,84.0,-55.0
128.0,124.0,131.0,127.0,126.0,128.0,126.0,127.0,36.0,-92.0,-76.0,127.0,126.0,-128.0,111.0,84.0,-55.0
128.0,124.0,131.0,127.0,126.0,127.0,126.0,127.0,36.0,-92.0,-76.0,127.0,126.0,-128.0,111.0,84.0,-55.0
128.0,124.0,131.0,127.0,126.0,127.0,126.0,127.0,36.0,-92.0,-76.0,127.0,126.0,-128.0,111.0,84.0,-55.0
128.0,125.0,130.0,127.0,127.0,128.0,127.0,127.0,38.0,-90.0,-75.0,127.0,127.0,-128.0,111.0,85.0,-54.0
128.0,125.0,130.0,127.0,127.0,129.0,126.0,127.0,38.0,-90.0,-75.0,127.0,127.0,-128.0,111.0,85.0,-54.0
128.0,125.0,130.0,127.0,127.0,129.0,126.0,127.0,38.0,-90.0,-75.0,127.0,127.0,-128.0,111.0,85.0,-54.0
128.0,125.0,130.0,127.0,127.0,129.0,127.0,127.0,38.0,-90.0,-75.0,127.0,127.0,-128.0,111.0,85.0,-54.0
128.0,125.0,130.0,127.0,127.0,129.0,127.0,127.0,38.0,-90.0,-75.0,127.0,127.0,-128.0,111.0,85.0,-54.0
128.0,125.0,130.0,127.0,127.0,129.0,127.0,127.0,38.0,-90.0,-75.0,127.0,127.0,-128.0,111.0,85.0,-54.0
128.0,125.0,130.0,127.0,127.0,129.0,127.0,127.0,38.0,-90.0,-75.0,127.0,127.0,-128.0,111.0,85.0,-54.0
128.0,125.0,130.0,127.0,127.0,129.0,127.0,127.0,38.0,-90.0,-75.0,127.0,127.0,-128.0,111.0,85.0,-54.0
128.0,125.0,130.0,127.0,126.0,128.0,127.0,127.0,38.0,-90.0,-75.0,127.0,127.0,-128.0,111.0,85.0,-54.0
128.0,125.0,130.0,127.0,127.0,128.0,127.0,127.0,38.0,-90.0,-75.0,127.0,127.0,-128.0,111.0,85.0,-54.0
128.0,125.0,128.0,127.0,126.0,130.0,127.0,127.0,39.0,-89.0,-75.0,127.0,127.0,-128.0,110.0,85.0,-54.0
128.0,125.0,128.0,127.0,126.0,130.0,127.0,127.0,39.0,-89.0,-75.0,127.0,127.0,-128.0,110.0,85.0,-54.0
128.0,125.0,128.0,127.0,126.0,130.0,127.0,127.0,39.0,-89.0,-75.0,127.0,127.0,-128.0,110.0,85.0,-54.0
128.0,125.0,128.0,127.0,126.0,130.0,127.0,127.0,39.0,-89.0,-75.0,127.0,127.0,-128.0,110.0,85.0,-54.0
128.0,125.0,128.0,127.0,126.0,129.0,127.0,127.0,39.0,-89.0,-75.0,127.0,127.0,-128.0,110.0,85.0,-54.0
128.0,125.0,128.0,127.0,126.0,129.0,127.0,127.0,39.0,-89.0,-75.0,127.0,127.0,-128.0,110.0,85.0,-54.0
128.0,125.0,128.0,127.0,126.0,129.0,127.0,127.0,39.0,-89.0,-75.0,127.0,127.0,-128.0,110.0,85.0,-54.0
128.0,125.0,129.0,127.0,126.0,129.0,127.0,127.0,39.0,-89.0,-75.0,127.0,127.0,-128.0,110.0,85.0,-54.0
128.0,125.0,128.0,127.0,126.0,129.0,127.0,127.0,39.0,-89.0,-75.0,127.0,127.0,-128.0,110.0,85.0,-54.0
128.0,125.0,128.0,127.0,126.0,129.0,127.0,127.0,39.0,-89.0,-75.0,127.0,127.0,-128.0,110.0,85.0,-54.0
128.0,125.0,129.0,127.0,126.0,129.0,126.0,127.0,40.0,-89.0,-75.0,127.0,127.0,127.0,109.0,86.0,-54.0
128.0,125.0,129.0,127.0,126.0,129.0,126.0,127.0,40.0,-89.0,-75.0,127.0,127.0,127.0,109.0,86.0,-54.0
128.0,125.0,129.0,127.0,126.0,129.0,127.0,127.0,40.0,-89.0,-75.0,127.0,127.0,127.0,109.0,86.0,-54.0
128.0,125.0,129.0,127.0,126.0,129.0,127.0,127.0,40.0,-89.0,-75.0,127.0,127.0,127.0,109.0,86.0,-54.0
128.0,125.0,129.0,127.0,126.0,129.0,127.0,127.0,40.0,-89.0,-75.0,127.0,127.0,127.0,109.0,86.0,-54.0
128.0,125.0,129.0,127.0,126.0,129.0,126.0,127.0,40.0,-89.0,-75.0,127.0,127.0,127.0,109.0,86.0,-54.0
128.0,125.0,129.0,127.0,126.0,130.0,126.0,127.0,40.0,-89.0,-75.0,127.0,127.0,127.0,109.0,86.0,-54.0
128.0,125.0,129.0,127.0,126.0,130.0,126.0,127.0,40.0,-89.0,-75.0,127.0,127.0,127.0,109.0,86.0,-54.0
128.0,125.0,129.0,127.0,126.0,129.0,126.0,127.0,40.0,-89.0,-75.0,127.0,127.0,127.0,109.0,86.0,-54.0
128.0,125.0,129.0,127.0,126.0,129.0,126.0,127.0,40.0,-89.0,-75.0,127.0,127.0,127.0,109.0,86.0,-54.0
128.0,125.0,127.0,126.0,126.0,128.0,126.0,127.0,41.0,-88.0,-75.0,127.0,127.0,127.0,108.0,86.0,-54.0
128.0,124.0,127.0,126.0,126.0,128.0,126.0,127.0,41.0,-88.0,-75.0,127.0,127.0,127.0,108.0,86.0,-54.0
128.0,124.0,128.0,126.0,126.0,128.0,126.0,127.0,41.0,-88.0,-75.0,127.0,127.0,127.0,108.0,86.0,-54.0
128.0,124.0,128.0,126.0,126.0,128.0,126.0,127.0,41.0,-88.0,-75.0,127.0,127.0,127.0,108.0,86.0,-54.0
128.0,124.0,127.0,126.0,126.0,128.0,126.0,127.0,41.0,-88.0,-75.0,127.0,127.0,127.0,108.0,86.0,-54.0
128.0,125.0,127.0,126.0,127.0,129.0,126.0,127.0,41.0,-88.0,-75.0,127.0,127.0,127.0,108.0,86.0,-54.0
128.0,125.0,127.0,126.0,127.0,129.0,126.0,127.0,41.0,-88.0,-75.0,127.0,127.0,127.0,108.0,86.0,-54.0
128.0,125.0,127.0,126.0,127.0,129.0,126.0,127.0,41.0,-88.0,-75.0,127.0,127.0,127.0,108.0,86.0,-54.0
128.0,124.0,127.0,126.0,126.0,128.0,126.0,127.0,41.0,-88.0,-75.0,127.0,127.0,127.0,108.0,86.0,-54.0
128.0,125.0,127.0,126.0,126.0,128.0,126.0,127.0,41.0,-88.0,-75.0,127.0,127.0,127.0,108.0,86.0,-54.0
128.0,124.0,128.0,126.0,126.0,130.0,126.0,127.0,43.0,-87.0,-75.0,127.0,127.0,127.0,108.0,86.0,-54.0
128.0,124.0,128.0,126.0,126.0,129.0,126.0,127.0,43.0,-87.0,-75.0,127.0,127.0,127.0,108.0,86.0,-54.0
128.0,124.0,128.0,126.0,126.0,130.0,126.0,127.0,43.0,-87.0,-75.0,127.0,127.0,127.0,108.0,86.0,-54.0
128.0,124.0,128.0,126.0,126.0,129.0,126.0,127.0,43.0,-87.0,-75.0,127.0,127.0,127.0,108.0,86.0,-54.0
128.0,124.0,128.0,126.0,126.0,130.0,126.0,127.0,43.0,-87.0,-75.0,127.0,127.0,127.0,108.0,86.0,-54.0
128.0,125.0,128.0,126.0,127.0,131.0,126.0,127.0,43.0,-87.0,-75.0,127.0,127.0,127.0,108.0,86.0,-54.0
128.0,124.0,128.0,126.0,126.0,130.0,126.0,127.0,43.0,-87.0,-75.0,127.0,127.0,127.0,108.0,86.0,-54.0
128.0,124.0,128.0,126.0,126.0,129.0,126.0,127.0,43.0,-87.0,-75.0,127.0,127.0,127.0,108.0,86.0,-54.0
128.0,124.0,128.0,126.0,126.0,130.0,126.0,127.0,43.0,-87.0,-75.0,127.0,127.0,127.0,108.0,86.0,-54.0
128.0,124.0,128.0,126.0,126.0,130.0,126.0,127.0,43.0,-87.0,-75.0,127.0,127.0,127.0,108.0,86.0,-54.0
128.0,124.0,129.0,126.0,127.0,131.0,126.0,127.0,44.0,-87.0,-75.0,127.0,127.0,127.0,107.0,87.0,-54.0
128.0,124.0,129.0,126.0,127.0,131.0,126.0,127.0,44.0,-87.0,-75.0,127.0,127.0,127.0,107.0,87.0,-54.0
128.0,124.0,129.0,126.0,127.0,131.0,126.0,127.0,44.0,-87.0,-75.0,127.0,127.0,127.0,107.0,87.0,-54.0
128.0,124.0,128.0,126.0,127.0,132.0,126.0,127.0,44.0,-87.0,-75.0,127.0,127.0,127.0,107.0,87.0,-54.0
128.0,124.0,128.0,126.0,127.0,132.0,126.0,127.0,44.0,-87.0,-75.0,127.0,127.0,127.0,107.0,87.0,-54.0
128.0,124.0,128.0,126.0,127.0,132.0,126.0,127.0,44.0,-87.0,-75.0,127.0,127.0,127.0,107.0,87.0,-54.0
128.0,124.0,129.0,126.0,126.0,130.0,126.0,127.0,44.0,-87.0,-75.0,127.0,127.0,127.0,107.0,87.0,-54.0
128.0,124.0,129.0,126.0,127.0,131.0,126.0,127.0,44.0,-87.0,-75.0,127.0,127.0,127.0,107.0,87.0,-54.0
128.0,124.0,129.0,126.0,127.0,131.0,126.0,127.0,44.0,-87.0,-75.0,127.0,127.0,127.0,107.0,87.0,-54.0
128.0,124.0,129.0,126.0,127.0,131.0,126.0,127.0,44.0,-87.0,-75.0,127.0,127.0,127.0,107.0,87.0,-54.0
128.0,125.0,127.0,126.0,127.0,132.0,126.0,127.0,45.0,-86.0,-75.0,127.0,127.0,127.0,106.0,87.0,-54.0
128.0,125.0,127.0,126.0,127.0,132.0,126.0,127.0,45.0,-86.0,-75.0,127.0,127.0,127.0,106.0,87.0,-54.0
128.0,125.0,127.0,127.0,127.0,132.0,126.0,127.0,45.0,-86.0,-75.0,127.0,127.0,127.0,106.0,87.0,-54.0
128.0,125.0,127.0,127.0,127.0,132.0,126.0,127.0,45.0,-86.0,-75.0,127.0,127.0,127.0,106.0,87.0,-54.0
128.0,125.0,127.0,127.0,127.0,132.0,126.0,127.0,45.0,-86.0,-75.0,127.0,127.0,127.0,106.0,87.0,-54.0
128.0,124.0,128.0,126.0,127.0,130.0,126.0,127.0,45.0,-86.0,-75.0,127.0,127.0,127.0,106.0,87.0,-54.0
128.0,125.0,127.0,126.0,127.0,132.0,126.0,127.0,45.0,-86.0,-75.0,127.0,127.0,127.0,106.0,87.0,-54.0
128.0,125.0,127.0,126.0,127.0,132.0,126.0,127.0,45.0,-86.0,-75.0,127.0,127.0,127.0,106.0,87.0,-54.0
128.0,125.0,127.0,126.0,127.0,132.0,126.0,127.0,45.0,-86.0,-75.0,127.0,127.0,127.0,106.0,87.0,-54.0
128.0,125.0,127.0,126.0,127.0,131.0,126.0,127.0,45.0,-86.0,-75.0,127.0,127.0,127.0,106.0,87.0,-54.0
127.0,125.0,127.0,126.0,126.0,132.0,126.0,127.0,46.0,-86.0,-75.0,127.0,127.0,127.0,106.0,87.0,-54.0
127.0,125.0,127.0,126.0,126.0,133.0,126.0,127.0,46.0,-86.0,-75.0,127.0,127.0,127.0,106.0,87.0,-54.0
127.0,125.0,127.0,126.0,127.0,133.0,126.0,127.0,46.0,-86.0,-75.0,127.0,127.0,127.0,106.0,87.0,-54.0
127.0,125.0,127.0,126.0,127.0,133.0,126.0,127.0,46.0,-86.0,-75.0,127.0,127.0,127.0,106.0,87.0,-54.0
127.0,125.0,127.0,126.0,126.0,131.0,126.0,127.0,46.0,-86.0,-75.0,127.0,127.0,127.0,106.0,87.0,-54.0
127.0,125.0,127.0,126.0,126.0,132.0,126.0,127.0,46.0,-86.0,-75.0,127.0,127.0,127.0,106.0,87.0,-54.0
127.0,125.0,127.0,126.0,126.0,133.0,126.0,127.0,46.0,-86.0,-75.0,127.0,127.0,127.0,106.0,87.0,-54.0
127.0,125.0,127.0,126.0,126.0,132.0,126.0,127.0,46.0,-86.0,-75.0,127.0,127.0,127.0,106.0,87.0,-54.0
127.0,125.0,127.0,126.0,126.0,132.0,126.0,127.0,46.0,-86.0,-75.0,127.0,127.0,127.0,106.0,87.0,-54.0
127.0,125.0,127.0,126.0,126.0,132.0,126.0,127.0,46.0,-86.0,-75.0,127.0,127.0,127.0,106.0,87.0,-54.0
127.0,124.0,127.0,126.0,127.0,133.0,126.0,127.0,47.0,-86.0,-75.0,127.0,127.0,127.0,105.0,87.0,-54.0
127.0,125.0,127.0,126.0,127.0,134.0,126.0,127.0,47.0,-86.0,-75.0,127.0,127.0,127.0,105.0,87.0,-54.0
127.0,125.0,127.0,126.0,127.0,134.0,126.0,127.0,47.0,-86.0,-75.0,127.0,127.0,127.0,105.0,87.0,-54.0
128.0,124.0,127.0,126.0,126.0,132.0,126.0,127.0,47.0,-86.0,-75.0,127.0,127.0,127.0,105.0,87.0,-54.0
128.0,124.0,127.0,126.0,126.0,133.0,126.0,127.0,47.0,-86.0,-75.0,127.0,127.0,127.0,105.0,87.0,-54.0
128.0,125.0,127.0,126.0,126.0,133.0,126.0,127.0,47.0,-86.0,-75.0,127.0,127.0,127.0,105.0,87.0,-54.0
128.0,125.0,127.0,126.0,126.0,133.0,126.0,127.0,47.0,-86.0,-75.0,127.0,127.0,127.0,105.0,87.0,-54.0
128.0,124.0,127.0,126.0,126.0,133.0,126.0,127.0,47.0,-86.0,-75.0,127.0,127.0,127.0,105.0,87.0,-54.0
128.0,124.0,127.0,126.0,126.0,133.0,126.0,127.0,47.0,-86.0,-75.0,127.0,127.0,127.0,105.0,87.0,-54.0
128.0,124.0,127.0,126.0,126.0,133.0,126.0,127.0,47.0,-86.0,-75.0,127.0,127.0,127.0,105.0,87.0,-54.0
127.0,126.0,125.0,127.0,127.0,134.0,127.0,127.0,48.0,-86.0,-75.0,127.0,127.0,127.0,104.0,87.0,-54.0
127.0,125.0,126.0,127.0,127.0,132.0,127.0,127.0,48.0,-86.0,-75.0,127.0,127.0,127.0,104.0,87.0,-54.0
127.0,125.0,126.0,127.0,127.0,133.0,127.0,127.0,48.0,-86.0,-75.0,127.0,127.0,127.0,104.0,87.0,-54.0
127.0,125.0,125.0,127.0,127.0,133.0,127.0,127.0,48.0,-86.0,-75.0,127.0,127.0,127.0,104.0,87.0,-54.0
127.0,126.0,125.0,127.0,127.0,134.0,127.0,127.0,48.0,-86.0,-75.0,127.0,127.0,127.0,104.0,87.0,-54.0
127.0,126.0,125.0,127.0,127.0,134.0,127.0,127.0,48.0,-86.0,-75.0,127.0,127.0,127.0,104.0,87.0,-54.0
127.0,126.0,126.0,127.0,127.0,134.0,127.0,127.0,48.0,-86.0,-75.0,127.0,127.0,127.0,104.0,87.0,-54.0
127.0,126.0,126.0,127.0,127.0,134.0,127.0,127.0,48.0,-86.0,-75.0,127.0,127.0,127.0,104.0,87.0,-54.0
127.0,126.0,126.0,127.0,127.0,134.0,127.0,127.0,48.0,-86.0,-75.0,127.0,127.0,127.0,104.0,87.0,-54.0
127.0,126.0,126.0,126.0,127.0,134.0,127.0,127.0,48.0,-86.0,-75.0,127.0,127.0,127.0,104.0,87.0,-54.0
127.0,125.0,127.0,126.0,126.0,133.0,127.0,127.0,48.0,-86.0,-75.0,127.0,127.0,127.0,104.0,88.0,-54.0
127.0,125.0,127.0,126.0,126.0,133.0,127.0,127.0,48.0,-86.0,-75.0,127.0,127.0,127.0,104.0,88.0,-54.0
127.0,124.0,128.0,126.0,126.0,133.0,127.0,127.0,48.0,-86.0,-75.0,127.0,127.0,127.0,104.0,88.0,-54.0
127.0,124.0,128.0,126.0,126.0,133.0,127.0,127.0,48.0,-86.0,-75.0,127.0,127.0,127.0,104.0,88.0,-54.0
127.0,124.0,128.0,126.0,126.0,133.0,127.0,127.0,48.0,-86.0,-75.0,127.0,127.0,127.0,104.0,88.0,-54.0
127.0,124.0,128.0,126.0,126.0,133.0,127.0,127.0,48.0,-86.0,-75.0,127.0,127.0,127.0,104.0,88.0,-54.0
127.0,124.0,128.0,126.0,126.0,133.0,127.0,127.0,48.0,-86.0,-75.0,127.0,127.0,127.0,104.0,88.0,-54.0
128.0,124.0,128.0,126.0,126.0,133.0,127.0,127.0,48.0,-86.0,-75.0,127.0,127.0,127.0,104.0,88.0,-54.0
128.0,124.0,128.0,126.0,126.0,133.0,127.0,127.0,48.0,-86.0,-75.0,127.0,127.0,127.0,104.0,88.0,-54.0
128.0,124.0,128.0,126.0,126.0,133.0,127.0,127.0,48.0,-86.0,-75.0,127.0,127.0,127.0,104.0,88.0,-54.0
128.0,125.0,128.0,126.0,126.0,134.0,127.0,128.0,47.0,-86.0,-75.0,127.0,127.0,127.0,104.0,88.0,-54.0
128.0,124.0,128.0,126.0,126.0,134.0,127.0,128.0,47.0,-86.0,-75.0,127.0,127.0,127.0,104.0,88.0,-54.0
128.0,124.0,129.0,126.0,126.0,134.0,127.0,128.0,47.0,-86.0,-75.0,127.0,127.0,127.0,104.0,88.0,-54.0
128.0,124.0,129.0,126.0,126.0,134.0,127.0,128.0,47.0,-86.0,-75.0,127.0,127.0,127.0,104.0,88.0,-54.0
128.0,124.0,128.0,126.0,126.0,134.0,126.0,128.0,47.0,-86.0,-75.0,127.0,127.0,127.0,104.0,88.0,-54.0
128.0,125.0,128.0,126.0,126.0,135.0,126.0,128.0,47.0,-86.0,-75.0,127.0,127.0,127.0,104.0,88.0,-54.0
128.0,124.0,128.0,126.0,126.0,135.0,126.0,128.0,47.0,-86.0,-75.0,127.0,127.0,127.0,104.0,88.0,-54.0
128.0,124.0,128.0,126.0,126.0,135.0,127.0,128.0,47.0,-86.0,-75.0,127.0,127.0,127.0,104.0,88.0,-54.0
128.0,124.0,128.0,126.0,126.0,134.0,127.0,128.0,47.0,-86.0,-75.0,127.0,127.0,127.0,104.0,88.0,-54.0
128.0,125.0,128.0,126.0,126.0,134.0,126.0,128.0,47.0,-86.0,-75.0,127.0,127.0,127.0,104.0,88.0,-54.0
128.0,125.0,128.0,127.0,127.0,133.0,127.0,128.0,47.0,-86.0,-76.0,127.0,127.0,127.0,104.0,88.0,-54.0
128.0,125.0,128.0,127.0,126.0,133.0,127.0,128.0,47.0,-86.0,-76.0,127.0,127.0,127.0,104.0,88.0,-54.0
128.0,125.0,128.0,126.0,126.0,133.0,127.0,128.0,47.0,-86.0,-76.0,127.0,127.0,127.0,104.0,88.0,-54.0
128.0,125.0,128.0,126.0,126.0,133.0,127.0,128.0,47.0,-86.0,-76.0,127.0,127.0,127.0,104.0,88.0,-54.0
128.0,125.0,128.0,126.0,127.0,134.0,127.0,128.0,47.0,-86.0,-76.0,127.0,127.0,127.0,104.0,88.0,-54.0
128.0,125.0,128.0,126.0,127.0,134.0,127.0,128.0,47.0,-86.0,-76.0,127.0,127.0,127.0,104.0,88.0,-54.0
128.0,125.0,128.0,126.0,127.0,134.0,127.0,128.0,47.0,-86.0,-76.0,127.0,127.0,127.0,104.0,88.0,-54.0
128.0,125.0,128.0,126.0,126.0,134.0,127.0,128.0,47.0,-86.0,-76.0,127.0,127.0,127.0,104.0,88.0,-54.0
128.0,125.0,128.0,127.0,127.0,134.0,127.0,128.0,47.0,-86.0,-76.0,127.0,127.0,127.0,104.0,88.0,-54.0
128.0,125.0,128.0,127.0,127.0,134.0,127.0,128.0,47.0,-86.0,-76.0,127.0,127.0,127.0,104.0,88.0,-54.0
127.0,125.0,127.0,126.0,126.0,131.0,127.0,128.0,46.0,-86.0,-76.0,127.0,127.0,127.0,103.0,88.0,-54.0
127.0,125.0,127.0,126.0,126.0,131.0,127.0,128.0,46.0,-86.0,-76.0,127.0,127.0,127.0,103.0,88.0,-54.0
127.0,126.0,127.0,126.0,126.0,131.0,127.0,128.0,46.0,-86.0,-76.0,127.0,127.0,127.0,103.0,88.0,-54.0
127.0,126.0,127.0,126.0,127.0,132.0,127.0,128.0,46.0,-86.0,-76.0,127.0,127.0,127.0,103.0,88.0,-54.0
128.0,127.0,127.0,126.0,127.0,132.0,127.0,128.0,46.0,-86.0,-76.0,127.0,127.0,127.0,103.0,88.0,-54.0
128.0,127.0,127.0,126.0,127.0,132.0,127.0,128.0,46.0,-86.0,-76.0,127.0,127.0,127.0,103.0,88.0,-54.0
127.0,127.0,127.0,126.0,127.0,132.0,127.0,128.0,46.0,-86.0,-76.0,127.0,127.0,127.0,103.0,88.0,-54.0
127.0,125.0,127.0,126.0,127.0,132.0,127.0,128.0,46.0,-86.0,-76.0,127.0,127.0,127.0,103.0,88.0,-54.0
128.0,125.0,127.0,126.0,127.0,132.0,127.0,128.0,46.0,-86.0,-76.0,127.0,127.0,127.0,103.0,88.0,-54.0
127.0,125.0,127.0,126.0,127.0,131.0,127.0,128.0,46.0,-86.0,-76.0,127.0,127.0,127.0,103.0,88.0,-54.0
127.0,125.0,126.0,127.0,127.0,132.0,128.0,128.0,45.0,-87.0,-77.0,127.0,127.0,127.0,103.0,88.0,-54.0
127.0,125.0,126.0,127.0,127.0,132.0,128.0,128.0,45.0,-87.0,-77.0,127.0,127.0,127.0,103.0,88.0,-54.0
127.0,126.0,126.0,127.0,127.0,133.0,127.0,128.0,45.0,-87.0,-77.0,127.0,127.0,127.0,103.0,88.0,-54.0
127.0,126.0,126.0,127.0,127.0,133.0,127.0,128.0,45.0,-87.0,-77.0,127.0,127.0,127.0,103.0,88.0,-54.0
127.0,126.0,126.0,127.0,127.0,133.0,128.0,128.0,45.0,-87.0,-77.0,127.0,127.0,127.0,103.0,88.0,-54.0
127.0,126.0,126.0,127.0,127.0,132.0,128.0,128.0,45.0,-87.0,-77.0,127.0,127.0,127.0,103.0,88.0,-54.0
127.0,126.0,125.0,127.0,127.0,132.0,128.0,128.0,45.0,-87.0,-77.0,127.0,127.0,127.0,103.0,88.0,-54.0
127.0,126.0,126.0,127.0,127.0,132.0,128.0,128.0,45.0,-87.0,-77.0,127.0,127.0,127.0,103.0,88.0,-54.0
127.0,126.0,126.0,127.0,127.0,132.0,128.0,128.0,45.0,-87.0,-77.0,127.0,127.0,127.0,103.0,88.0,-54.0
127.0,125.0,126.0,127.0,127.0,132.0,128.0,128.0,45.0,-87.0,-77.0,127.0,127.0,127.0,103.0,88.0,-54.0
127.0,126.0,124.0,127.0,127.0,132.0,128.0,128.0,44.0,-87.0,-77.0,127.0,127.0,126.0,102.0,88.0,-54.0
127.0,126.0,124.0,127.0,127.0,133.0,128.0,128.0,44.0,-87.0,-77.0,127.0,127.0,126.0,102.0,88.0,-54.0
127.0,126.0,124.0,127.0,127.0,133.0,128.0,128.0,44.0,-87.0,-77.0,127.0,127.0,126.0,102.0,88.0,-54.0
127.0,126.0,124.0,127.0,127.0,133.0,128.0,128.0,44.0,-87.0,-77.0,127.0,127.0,126.0,102.0,88.0,-54.0
127.0,126.0,124.0,127.0,127.0,133.0,128.0,128.0,44.0,-87.0,-77.0,127.0,127.0,126.0,102.0,88.0,-54.0
127.0,126.0,124.0,128.0,127.0,132.0,128.0,128.0,44.0,-87.0,-77.0,127.0,127.0,126.0,102.0,88.0,-54.0
127.0,126.0,124.0,128.0,127.0,133.0,128.0,128.0,44.0,-87.0,-77.0,127.0,127.0,126.0,102.0,88.0,-54.0
127.0,126.0,124.0,127.0,127.0,133.0,128.0,128.0,44.0,-87.0,-77.0,127.0,127.0,126.0,102.0,88.0,-54.0
127.0,126.0,124.0,127.0,127.0,132.0,128.0,128.0,44.0,-87.0,-77.0,127.0,127.0,126.0,102.0,88.0,-54.0
127.0,126.0,124.0,127.0,127.0,132.0,128.0,128.0,44.0,-87.0,-77.0,127.0,127.0,126.0,102.0,88.0,-54.0
127.0,126.0,126.0,127.0,127.0,134.0,127.0,128.0,43.0,-88.0,-77.0,127.0,127.0,126.0,102.0,88.0,-54.0
127.0,126.0,126.0,127.0,127.0,135.0,127.0,128.0,43.0,-88.0,-77.0,127.0,127.0,126.0,102.0,88.0,-54.0
