emg1,emg2,emg3,emg4,emg5,emg6,emg7,emg8,acc_x,acc_y,acc_z,gyro_x,gyro_y,gyro_z,angle_pitch,angle_roll,angle_yaw
127.0,127.0,127.0,127.0,126.0,128.0,126.0,127.0,-1.0,109.0,-85.0,127.0,127.0,127.0,-116.0,-84.0,98.0
126.0,127.0,127.0,127.0,126.0,128.0,126.0,127.0,-1.0,109.0,-85.0,127.0,127.0,127.0,-116.0,-84.0,98.0
127.0,127.0,127.0,127.0,126.0,128.0,126.0,127.0,-1.0,109.0,-85.0,127.0,127.0,127.0,-116.0,-84.0,98.0
127.0,127.0,127.0,127.0,126.0,128.0,126.0,127.0,-1.0,109.0,-85.0,127.0,127.0,127.0,-116.0,-84.0,98.0
127.0,127.0,127.0,127.0,126.0,128.0,126.0,127.0,-1.0,109.0,-85.0,127.0,127.0,127.0,-116.0,-84.0,98.0
127.0,127.0,127.0,127.0,126.0,128.0,126.0,127.0,-1.0,109.0,-85.0,127.0,127.0,127.0,-116.0,-84.0,98.0
127.0,127.0,127.0,127.0,126.0,128.0,126.0,127.0,-1.0,109.0,-85.0,127.0,127.0,127.0,-116.0,-84.0,98.0
127.0,127.0,127.0,127.0,126.0,128.0,126.0,127.0,-1.0,109.0,-85.0,127.0,127.0,127.0,-116.0,-84.0,98.0
127.0,127.0,127.0,127.0,126.0,128.0,126.0,127.0,-1.0,109.0,-85.0,127.0,127.0,127.0,-116.0,-84.0,98.0
127.0,127.0,127.0,127.0,126.0,128.0,126.0,127.0,-1.0,109.0,-85.0,127.0,127.0,127.0,-116.0,-84.0,98.0
127.0,127.0,127.0,127.0,126.0,128.0,126.0,127.0,-1.0,109.0,-85.0,127.0,127.0,127.0,-116.0,-84.0,98.0
127.0,127.0,127.0,127.0,126.0,128.0,126.0,127.0,-1.0,109.0,-85.0,127.0,127.0,127.0,-116.0,-84.0,98.0
127.0,127.0,127.0,127.0,126.0,128.0,126.0,128.0,-1.0,109.0,-85.0,127.0,127.0,127.0,-116.0,-84.0,98.0
127.0,127.0,127.0,127.0,126.0,128.0,126.0,128.0,-1.0,109.0,-85.0,127.0,127.0,127.0,-116.0,-84.0,98.0
127.0,127.0,127.0,127.0,126.0,128.0,126.0,128.0,-1.0,109.0,-85.0,127.0,127.0,127.0,-116.0,-84.0,98.0
127.0,127.0,127.0,127.0,126.0,128.0,126.0,128.0,-1.0,109.0,-85.0,127.0,127.0,127.0,-116.0,-84.0,98.0
127.0,127.0,127.0,127.0,126.0,128.0,126.0,128.0,-1.0,109.0,-85.0,127.0,127.0,127.0,-116.0,-84.0,98.0
127.0,127.0,127.0,127.0,126.0,128.0,126.0,127.0,-1.0,109.0,-85.0,127.0,127.0,127.0,-116.0,-84.0,98.0
127.0,127.0,127.0,127.0,126.0,128.0,126.0,127.0,-1.0,109.0,-85.0,127.0,127.0,127.0,-116.0,-84.0,98.0
127.0,127.0,127.0,127.0,126.0,128.0,126.0,127.0,-1.0,109.0,-85.0,127.0,127.0,127.0,-116.0,-84.0,98.0
127.0,127.0,127.0,127.0,126.0,128.0,126.0,127.0,-1.0,109.0,-85.0,127.0,127.0,127.0,-116.0,-84.0,98.0
127.0,127.0,127.0,127.0,126.0,128.0,126.0,128.0,-1.0,109.0,-85.0,127.0,127.0,127.0,-116.0,-84.0,98.0
127.0,127.0,127.0,127.0,126.0,128.0,126.0,128.0,-1.0,109.0,-85.0,127.0,127.0,127.0,-116.0,-84.0,98.0
127.0,127.0,127.0,127.0,126.0,128.0,125.0,127.0,-1.0,109.0,-85.0,127.0,127.0,127.0,-116.0,-84.0,98.0
127.0,127.0,127.0,127.0,126.0,128.0,126.0,127.0,-1.0,109.0,-85.0,127.0,127.0,127.0,-116.0,-84.0,98.0
127.0,127.0,127.0,127.0,126.0,128.0,126.0,127.0,-1.0,109.0,-85.0,127.0,127.0,127.0,-116.0,-84.0,98.0
127.0,127.0,127.0,127.0,126.0,128.0,126.0,127.0,-1.0,109.0,-85.0,127.0,127.0,127.0,-116.0,-84.0,98.0
127.0,127.0,127.0,127.0,126.0,128.0,126.0,127.0,-1.0,109.0,-85.0,127.0,127.0,127.0,-116.0,-84.0,98.0
127.0,127.0,127.0,127.0,127.0,128.0,126.0,127.0,-1.0,109.0,-85.0,127.0,127.0,127.0,-116.0,-84.0,98.0
127.0,127.0,127.0,127.0,126.0,128.0,126.0,127.0,-1.0,109.0,-85.0,127.0,127.0,127.0,-116.0,-84.0,98.0
127.0,127.0,127.0,127.0,126.0,128.0,126.0,128.0,-1.0,109.0,-85.0,127.0,127.0,127.0,-116.0,-84.0,98.0
127.0,127.0,127.0,127.0,126.0,128.0,126.0,128.0,-1.0,109.0,-85.0,127.0,127.0,127.0,-116.0,-84.0,98.0
127.0,127.0,127.0,127.0,126.0,128.0,126.0,128.0,-1.0,109.0,-85.0,127.0,127.0,127.0,-116.0,-84.0,98.0
127.0,127.0,127.0,127.0,126.0,128.0,126.0,128.0,-1.0,109.0,-85.0,127.0,127.0,127.0,-116.0,-84.0,98.0
127.0,127.0,127.0,127.0,126.0,128.0,126.0,128.0,-1.0,109.0,-85.0,127.0,127.0,127.0,-116.0,-84.0,98.0
127.0,127.0,127.0,127.0,126.0,128.0,126.0,128.0,-1.0,109.0,-85.0,127.0,127.0,127.0,-116.0,-84.0,98.0
127.0,127.0,127.0,127.0,126.0,128.0,126.0,128.0,-1.0,109.0,-85.0,127.0,127.0,127.0,-116.0,-84.0,98.0
127.0,127.0,127.0,127.0,127.0,128.0,126.0,127.0,-1.0,109.0,-85.0,127.0,127.0,127.0,-116.0,-84.0,98.0
127.0,127.0,127.0,127.0,126.0,128.0,126.0,127.0,-1.0,109.0,-85.0,127.0,127.0,127.0,-116.0,-84.0,98.0
127.0,127.0,127.0,127.0,126.0,128.0,126.0,127.0,-1.0,109.0,-85.0,127.0,127.0,127.0,-116.0,-84.0,98.0
127.0,127.0,127.0,127.0,126.0,128.0,126.0,128.0,-1.0,109.0,-85.0,127.0,127.0,127.0,-116.0,-84.0,98.0
127.0,127.0,127.0,127.0,126.0,128.0,126.0,128.0,-1.0,109.0,-85.0,127.0,127.0,127.0,-116.0,-84.0,98.0
127.0,127.0,127.0,127.0,126.0,128.0,126.0,128.0,-1.0,109.0,-85.0,127.0,127.0,127.0,-116.0,-84.0,98.0
127.0,127.0,127.0,127.0,126.0,128.0,126.0,128.0,-1.0,109.0,-85.0,127.0,127.0,127.0,-116.0,-84.0,98.0
127.0,127.0,127.0,127.0,126.0,128.0,126.0,128.0,-1.0,109.0,-85.0,127.0,127.0,127.0,-116.0,-84.0,98.0
127.0,127.0,127.0,127.0,127.0,128.0,126.0,128.0,-1.0,109.0,-85.0,127.0,127.0,127.0,-116.0,-84.0,98.0
127.0,127.0,127.0,127.0,127.0,128.0,126.0,127.0,-1.0,109.0,-85.0,127.0,127.0,127.0,-116.0,-84.0,98.0
127.0,127.0,127.0,127.0,127.0,127.0,127.0,127.0,-1.0,109.0,-85.0,127.0,127.0,127.0,-116.0,-84.0,98.0
127.0,127.0,127.0,127.0,127.0,127.0,127.0,127.0,-1.0,109.0,-85.0,127.0,127.0,127.0,-116.0,-84.0,98.0
126.0,127.0,127.0,127.0,127.0,127.0,127.0,127.0,-1.0,109.0,-85.0,127.0,127.0,127.0,-116.0,-84.0,98.0
126.0,127.0,127.0,127.0,126.0,127.0,127.0,127.0,-1.0,109.0,-85.0,127.0,127.0,127.0,-116.0,-84.0,98.0
126.0,127.0,127.0,127.0,126.0,128.0,126.0,127.0,-1.0,109.0,-85.0,127.0,127.0,127.0,-116.0,-84.0,98.0
127.0,127.0,126.0,127.0,126.0,128.0,126.0,127.0,-1.0,109.0,-85.0,127.0,127.0,127.0,-116.0,-84.0,98.0
127.0,127.0,127.0,127.0,126.0,128.0,126.0,127.0,-1.0,109.0,-85.0,127.0,127.0,127.0,-116.0,-84.0,98.0
126.0,127.0,127.0,127.0,126.0,128.0,126.0,127.0,-1.0,109.0,-85.0,127.0,127.0,127.0,-116.0,-84.0,98.0
127.0,127.0,127.0,127.0,126.0,128.0,126.0,127.0,-1.0,109.0,-85.0,127.0,127.0,127.0,-116.0,-84.0,98.0
126.0,127.0,127.0,127.0,126.0,128.0,126.0,127.0,-1.0,109.0,-85.0,127.0,127.0,127.0,-116.0,-84.0,98.0
127.0,127.0,127.0,127.0,126.0,128.0,126.0,128.0,-1.0,109.0,-85.0,127.0,127.0,127.0,-116.0,-84.0,98.0
127.0,127.0,127.0,127.0,126.0,128.0,126.0,128.0,-1.0,109.0,-85.0,127.0,127.0,127.0,-116.0,-84.0,98.0
127.0,127.0,127.0,127.0,126.0,128.0,126.0,128.0,-1.0,109.0,-85.0,127.0,127.0,127.0,-116.0,-84.0,98.0
127.0,127.0,127.0,127.0,126.0,128.0,126.0,127.0,-1.0,109.0,-85.0,127.0,127.0,127.0,-116.0,-84.0,98.0
127.0,127.0,127.0,127.0,126.0,128.0,126.0,127.0,-1.0,109.0,-85.0,127.0,127.0,127.0,-116.0,-84.0,98.0
127.0,127.0,127.0,127.0,126.0,128.0,126.0,127.0,-1.0,109.0,-85.0,127.0,127.0,127.0,-116.0,-84.0,98.0
127.0,127.0,127.0,127.0,126.0,127.0,126.0,127.0,-1.0,109.0,-85.0,127.0,127.0,127.0,-116.0,-84.0,98.0
127.0,127.0,127.0,127.0,126.0,127.0,126.0,127.0,-1.0,109.0,-85.0,127.0,127.0,127.0,-116.0,-84.0,98.0
127.0,127.0,127.0,127.0,126.0,127.0,126.0,127.0,-1.0,109.0,-85.0,127.0,127.0,127.0,-116.0,-84.0,98.0
127.0,127.0,127.0,127.0,126.0,128.0,126.0,128.0,-1.0,109.0,-85.0,127.0,127.0,127.0,-116.0,-84.0,98.0
127.0,127.0,127.0,127.0,126.0,128.0,126.0,128.0,-1.0,109.0,-85.0,127.0,127.0,127.0,-116.0,-84.0,98.0
127.0,127.0,127.0,127.0,126.0,128.0,126.0,128.0,-1.0,109.0,-85.0,127.0,127.0,127.0,-116.0,-84.0,98.0
127.0,127.0,127.0,127.0,126.0,128.0,126.0,127.0,-1.0,109.0,-85.0,127.0,127.0,127.0,-116.0,-84.0,98.0
127.0,127.0,127.0,127.0,126.0,128.0,126.0,127.0,-1.0,109.0,-85.0,127.0,127.0,127.0,-116.0,-84.0,98.0
127.0,127.0,127.0,127.0,126.0,128.0,126.0,127.0,-1.0,109.0,-85.0,127.0,127.0,127.0,-116.0,-84.0,98.0
127.0,127.0,127.0,127.0,126.0,128.0,126.0,127.0,-1.0,109.0,-85.0,127.0,127.0,127.0,-116.0,-84.0,98.0
127.0,127.0,127.0,127.0,126.0,128.0,126.0,127.0,-1.0,109.0,-85.0,127.0,127.0,127.0,-116.0,-84.0,98.0
127.0,127.0,127.0,127.0,126.0,128.0,126.0,127.0,-1.0,109.0,-85.0,127.0,127.0,127.0,-116.0,-84.0,98.0
127.0,127.0,127.0,127.0,126.0,129.0,126.0,128.0,-1.0,109.0,-85.0,127.0,127.0,127.0,-116.0,-84.0,98.0
127.0,127.0,127.0,127.0,126.0,128.0,126.0,128.0,-1.0,109.0,-85.0,127.0,127.0,127.0,-116.0,-84.0,98.0
127.0,127.0,127.0,127.0,126.0,128.0,126.0,127.0,-1.0,109.0,-85.0,127.0,127.0,127.0,-116.0,-84.0,98.0
127.0,127.0,127.0,127.0,126.0,128.0,126.0,127.0,-1.0,109.0,-85.0,127.0,127.0,127.0,-116.0,-84.0,98.0
127.0,127.0,127.0,127.0,126.0,128.0,126.0,127.0,-1.0,109.0,-85.0,127.0,127.0,127.0,-116.0,-84.0,98.0
126.0,127.0,127.0,127.0,126.0,128.0,126.0,127.0,-1.0,109.0,-85.0,127.0,127.0,127.0,-116.0,-84.0,98.0
126.0,127.0,127.0,127.0,126.0,128.0,126.0,127.0,-1.0,109.0,-85.0,127.0,127.0,127.0,-116.0,-84.0,98.0
126.0,127.0,127.0,127.0,127.0,128.0,126.0,127.0,-1.0,109.0,-85.0,127.0,127.0,127.0,-116.0,-84.0,98.0
126.0,127.0,127.0,127.0,127.0,128.0,126.0,127.0,-1.0,109.0,-85.0,127.0,127.0,127.0,-116.0,-84.0,98.0
127.0,127.0,126.0,127.0,126.0,128.0,126.0,128.0,-1.0,109.0,-85.0,127.0,127.0,127.0,-116.0,-84.0,98.0
127.0,127.0,127.0,127.0,126.0,128.0,126.0,127.0,-1.0,109.0,-85.0,127.0,127.0,127.0,-116.0,-84.0,98.0
127.0,127.0,127.0,127.0,126.0,128.0,126.0,127.0,-1.0,109.0,-85.0,127.0,127.0,127.0,-116.0,-84.0,98.0
127.0,127.0,127.0,127.0,126.0,128.0,126.0,128.0,-1.0,109.0,-85.0,127.0,127.0,127.0,-116.0,-84.0,98.0
127.0,127.0,127.0,127.0,126.0,128.0,126.0,128.0,-1.0,109.0,-85.0,127.0,127.0,127.0,-116.0,-84.0,98.0
127.0,127.0,127.0,127.0,126.0,129.0,125.0,128.0,-1.0,109.0,-85.0,127.0,127.0,127.0,-116.0,-84.0,98.0
127.0,127.0,127.0,127.0,126.0,129.0,126.0,128.0,-1.0,109.0,-85.0,127.0,127.0,127.0,-116.0,-84.0,98.0
127.0,127.0,127.0,127.0,126.0,128.0,126.0,128.0,-1.0,109.0,-85.0,127.0,127.0,127.0,-116.0,-84.0,98.0
127.0,127.0,127.0,127.0,126.0,128.0,126.0,128.0,-1.0,109.0,-85.0,127.0,127.0,127.0,-116.0,-84.0,98.0
127.0,127.0,127.0,127.0,126.0,128.0,126.0,128.0,-1.0,109.0,-85.0,127.0,127.0,127.0,-116.0,-84.0,98.0
127.0,127.0,127.0,127.0,126.0,128.0,126.0,128.0,-1.0,109.0,-85.0,127.0,127.0,127.0,-116.0,-84.0,98.0
127.0,127.0,127.0,127.0,126.0,128.0,126.0,128.0,-1.0,109.0,-85.0,127.0,127.0,127.0,-116.0,-84.0,98.0
127.0,127.0,127.0,127.0,126.0,129.0,126.0,128.0,-1.0,109.0,-85.0,127.0,127.0,127.0,-116.0,-84.0,98.0
127.0,127.0,127.0,127.0,126.0,128.0,126.0,127.0,-1.0,109.0,-85.0,127.0,127.0,127.0,-116.0,-84.0,98.0
127.0,127.0,127.0,127.0,126.0,127.0,126.0,127.0,-1.0,109.0,-85.0,127.0,127.0,127.0,-116.0,-84.0,98.0
127.0,127.0,127.0,127.0,126.0,127.0,126.0,127.0,-1.0,109.0,-85.0,127.0,127.0,127.0,-116.0,-84.0,98.0
127.0,127.0,127.0,127.0,126.0,127.0,126.0,127.0,-1.0,109.0,-85.0,127.0,127.0,127.0,-116.0,-84.0,98.0
127.0,127.0,127.0,127.0,126.0,128.0,126.0,127.0,-1.0,109.0,-85.0,127.0,127.0,127.0,-116.0,-84.0,98.0
127.0,127.0,127.0,127.0,127.0,127.0,127.0,126.0,-1.0,109.0,-85.0,127.0,127.0,127.0,-116.0,-84.0,98.0
127.0,127.0,127.0,127.0,126.0,127.0,127.0,127.0,-1.0,109.0,-85.0,127.0,127.0,127.0,-116.0,-84.0,98.0
127.0,127.0,127.0,127.0,126.0,127.0,127.0,127.0,-1.0,109.0,-85.0,127.0,127.0,127.0,-116.0,-84.0,98.0
127.0,127.0,127.0,127.0,126.0,128.0,126.0,127.0,-1.0,109.0,-85.0,127.0,127.0,127.0,-116.0,-84.0,98.0
127.0,127.0,127.0,127.0,126.0,128.0,126.0,127.0,-1.0,109.0,-85.0,127.0,127.0,127.0,-116.0,-84.0,98.0
127.0,127.0,127.0,127.0,126.0,128.0,126.0,127.0,-1.0,109.0,-85.0,127.0,127.0,127.0,-116.0,-84.0,98.0
127.0,127.0,127.0,127.0,126.0,128.0,126.0,127.0,-1.0,109.0,-85.0,127.0,127.0,127.0,-116.0,-84.0,98.0
127.0,127.0,127.0,127.0,126.0,127.0,126.0,127.0,-1.0,109.0,-85.0,127.0,127.0,127.0,-116.0,-84.0,98.0
126.0,127.0,127.0,127.0,127.0,127.0,126.0,127.0,-1.0,109.0,-85.0,127.0,127.0,127.0,-116.0,-84.0,98.0
127.0,127.0,127.0,127.0,127.0,127.0,127.0,127.0,-1.0,109.0,-85.0,127.0,127.0,127.0,-116.0,-84.0,98.0
127.0,127.0,127.0,127.0,127.0,127.0,127.0,127.0,-1.0,109.0,-85.0,127.0,127.0,127.0,-116.0,-84.0,98.0
127.0,127.0,127.0,127.0,126.0,127.0,126.0,127.0,-1.0,109.0,-85.0,127.0,127.0,127.0,-116.0,-84.0,98.0
127.0,127.0,127.0,127.0,126.0,128.0,126.0,127.0,-1.0,109.0,-85.0,127.0,127.0,127.0,-116.0,-84.0,98.0
127.0,127.0,127.0,127.0,126.0,128.0,126.0,127.0,-1.0,109.0,-85.0,127.0,127.0,127.0,-116.0,-84.0,98.0
127.0,127.0,127.0,127.0,126.0,128.0,126.0,127.0,-1.0,109.0,-85.0,127.0,127.0,127.0,-116.0,-84.0,98.0
127.0,127.0,127.0,127.0,126.0,127.0,126.0,127.0,-1.0,109.0,-85.0,127.0,127.0,127.0,-116.0,-84.0,98.0
127.0,127.0,127.0,127.0,127.0,127.0,126.0,127.0,-1.0,109.0,-85.0,127.0,127.0,127.0,-116.0,-84.0,98.0
127.0,127.0,127.0,127.0,126.0,128.0,126.0,127.0,-1.0,109.0,-85.0,127.0,127.0,127.0,-116.0,-84.0,98.0
126.0,127.0,127.0,127.0,127.0,127.0,127.0,127.0,-1.0,109.0,-85.0,127.0,127.0,127.0,-116.0,-84.0,98.0
126.0,127.0,127.0,127.0,127.0,127.0,127.0,127.0,-1.0,109.0,-85.0,127.0,127.0,127.0,-116.0,-84.0,98.0
126.0,127.0,127.0,127.0,127.0,127.0,127.0,127.0,-1.0,109.0,-85.0,127.0,127.0,127.0,-116.0,-84.0,98.0
127.0,127.0,127.0,127.0,126.0,128.0,126.0,127.0,-1.0,109.0,-85.0,127.0,127.0,127.0,-116.0,-84.0,98.0
127.0,127.0,127.0,127.0,126.0,128.0,126.0,127.0,-1.0,109.0,-85.0,127.0,127.0,127.0,-116.0,-84.0,98.0
127.0,127.0,127.0,127.0,126.0,128.0,126.0,127.0,-1.0,109.0,-85.0,127.0,127.0,127.0,-116.0,-84.0,98.0
127.0,127.0,127.0,127.0,126.0,128.0,126.0,127.0,-1.0,109.0,-85.0,127.0,127.0,127.0,-116.0,-84.0,98.0
126.0,127.0,127.0,127.0,126.0,127.0,126.0,127.0,-1.0,109.0,-85.0,127.0,127.0,127.0,-116.0,-84.0,98.0
126.0,127.0,127.0,127.0,126.0,127.0,127.0,127.0,-1.0,109.0,-85.0,127.0,127.0,127.0,-116.0,-84.0,98.0
127.0,127.0,127.0,127.0,126.0,128.0,126.0,128.0,-1.0,109.0,-85.0,127.0,127.0,127.0,-116.0,-84.0,98.0
127.0,127.0,127.0,127.0,126.0,128.0,126.0,128.0,-1.0,109.0,-85.0,127.0,127.0,127.0,-116.0,-84.0,98.0
127.0,127.0,127.0,127.0,126.0,128.0,126.0,128.0,-1.0,109.0,-85.0,127.0,127.0,127.0,-116.0,-84.0,98.0
127.0,127.0,127.0,127.0,126.0,128.0,126.0,127.0,-1.0,109.0,-85.0,127.0,127.0,127.0,-116.0,-84.0,98.0
127.0,127.0,127.0,127.0,126.0,128.0,126.0,127.0,-1.0,109.0,-85.0,127.0,127.0,127.0,-116.0,-84.0,98.0
127.0,127.0,127.0,127.0,126.0,128.0,126.0,127.0,-1.0,109.0,-85.0,127.0,127.0,127.0,-116.0,-84.0,98.0
127.0,127.0,127.0,127.0,126.0,128.0,126.0,127.0,-1.0,109.0,-85.0,127.0,127.0,127.0,-116.0,-84.0,98.0
127.0,127.0,127.0,127.0,126.0,128.0,126.0,127.0,-1.0,109.0,-85.0,127.0,127.0,127.0,-116.0,-84.0,98.0
127.0,127.0,127.0,127.0,126.0,127.0,127.0,127.0,-1.0,109.0,-85.0,127.0,127.0,127.0,-116.0,-84.0,98.0
127.0,127.0,127.0,127.0,126.0,127.0,127.0,127.0,-1.0,109.0,-85.0,127.0,127.0,127.0,-116.0,-84.0,98.0
127.0,127.0,127.0,127.0,126.0,127.0,127.0,127.0,-1.0,109.0,-85.0,127.0,127.0,127.0,-116.0,-84.0,98.0
127.0,127.0,127.0,127.0,126.0,127.0,127.0,127.0,-1.0,109.0,-85.0,127.0,127.0,127.0,-116.0,-84.0,98.0
127.0,127.0,127.0,127.0,126.0,127.0,127.0,127.0,-1.0,109.0,-85.0,127.0,127.0,127.0,-116.0,-84.0,98.0
127.0,127.0,127.0,127.0,126.0,127.0,127.0,127.0,-1.0,109.0,-85.0,127.0,127.0,127.0,-116.0,-84.0,98.0
127.0,127.0,127.0,127.0,126.0,127.0,127.0,127.0,-1.0,109.0,-85.0,127.0,127.0,127.0,-116.0,-84.0,98.0
127.0,127.0,127.0,127.0,126.0,127.0,127.0,127.0,-1.0,109.0,-85.0,127.0,127.0,127.0,-116.0,-84.0,98.0
127.0,127.0,127.0,127.0,126.0,127.0,127.0,127.0,-1.0,109.0,-85.0,127.0,127.0,127.0,-116.0,-84.0,98.0
127.0,127.0,127.0,127.0,126.0,127.0,127.0,127.0,-1.0,109.0,-85.0,127.0,127.0,127.0,-116.0,-84.0,98.0
127.0,127.0,127.0,127.0,126.0,128.0,126.0,128.0,-1.0,109.0,-85.0,127.0,127.0,127.0,-116.0,-84.0,98.0
127.0,127.0,127.0,127.0,126.0,128.0,126.0,127.0,-1.0,109.0,-85.0,127.0,127.0,127.0,-116.0,-84.0,98.0
127.0,127.0,127.0,127.0,126.0,128.0,126.0,127.0,-1.0,109.0,-85.0,127.0,127.0,127.0,-116.0,-84.0,98.0
127.0,127.0,127.0,127.0,126.0,128.0,127.0,127.0,-1.0,109.0,-85.0,127.0,127.0,127.0,-116.0,-84.0,98.0
127.0,127.0,127.0,127.0,126.0,128.0,127.0,127.0,-1.0,109.0,-85.0,127.0,127.0,127.0,-116.0,-84.0,98.0
127.0,127.0,127.0,127.0,126.0,128.0,127.0,127.0,-1.0,109.0,-85.0,127.0,127.0,127.0,-116.0,-84.0,98.0
127.0,127.0,127.0,127.0,126.0,127.0,127.0,127.0,-1.0,109.0,-85.0,127.0,127.0,127.0,-116.0,-84.0,98.0
127.0,127.0,127.0,127.0,126.0,127.0,127.0,127.0,-1.0,109.0,-85.0,127.0,127.0,127.0,-116.0,-84.0,98.0
127.0,127.0,127.0,127.0,126.0,127.0,127.0,127.0,-1.0,109.0,-85.0,127.0,127.0,127.0,-116.0,-84.0,98.0
127.0,127.0,127.0,127.0,126.0,127.0,127.0,127.0,-1.0,109.0,-85.0,127.0,127.0,127.0,-116.0,-84.0,98.0
127.0,127.0,127.0,127.0,126.0,128.0,126.0,127.0,-1.0,109.0,-85.0,127.0,127.0,127.0,-116.0,-84.0,98.0
127.0,127.0,127.0,127.0,126.0,128.0,126.0,127.0,-1.0,109.0,-85.0,127.0,127.0,127.0,-116.0,-84.0,98.0
127.0,127.0,127.0,127.0,127.0,128.0,126.0,127.0,-1.0,109.0,-85.0,127.0,127.0,127.0,-116.0,-84.0,98.0
127.0,127.0,127.0,127.0,127.0,128.0,126.0,127.0,-1.0,109.0,-85.0,127.0,127.0,127.0,-116.0,-84.0,98.0
127.0,127.0,127.0,127.0,127.0,128.0,126.0,127.0,-1.0,109.0,-85.0,127.0,127.0,127.0,-116.0,-84.0,98.0
127.0,127.0,127.0,127.0,127.0,128.0,126.0,127.0,-1.0,109.0,-85.0,127.0,127.0,127.0,-116.0,-84.0,98.0
127.0,127.0,127.0,127.0,127.0,128.0,126.0,127.0,-1.0,109.0,-85.0,127.0,127.0,127.0,-116.0,-84.0,98.0
127.0,127.0,127.0,127.0,127.0,128.0,126.0,127.0,-1.0,109.0,-85.0,127.0,127.0,127.0,-116.0,-84.0,98.0
127.0,127.0,127.0,127.0,127.0,128.0,126.0,127.0,-1.0,109.0,-85.0,127.0,127.0,127.0,-116.0,-84.0,98.0
127.0,127.0,127.0,127.0,126.0,128.0,126.0,127.0,-1.0,109.0,-85.0,127.0,127.0,127.0,-116.0,-84.0,98.0
127.0,127.0,127.0,127.0,126.0,128.0,126.0,127.0,-1.0,109.0,-85.0,127.0,127.0,127.0,-116.0,-84.0,98.0
127.0,127.0,127.0,127.0,126.0,128.0,126.0,127.0,-1.0,109.0,-85.0,127.0,127.0,127.0,-116.0,-84.0,98.0
127.0,127.0,127.0,127.0,126.0,128.0,126.0,127.0,-1.0,109.0,-85.0,127.0,127.0,127.0,-116.0,-84.0,98.0
127.0,127.0,127.0,127.0,126.0,128.0,126.0,127.0,-1.0,109.0,-85.0,127.0,127.0,127.0,-116.0,-84.0,98.0
126.0,127.0,127.0,127.0,126.0,128.0,126.0,127.0,-1.0,109.0,-85.0,127.0,127.0,127.0,-116.0,-84.0,98.0
126.0,127.0,127.0,127.0,126.0,128.0,126.0,127.0,-1.0,109.0,-85.0,127.0,127.0,127.0,-116.0,-84.0,98.0
126.0,127.0,127.0,127.0,126.0,127.0,126.0,127.0,-1.0,109.0,-85.0,127.0,127.0,127.0,-116.0,-84.0,98.0
126.0,127.0,127.0,127.0,126.0,127.0,126.0,127.0,-1.0,109.0,-85.0,127.0,127.0,127.0,-116.0,-84.0,98.0
127.0,127.0,127.0,127.0,126.0,128.0,125.0,127.0,-1.0,109.0,-85.0,127.0,127.0,127.0,-116.0,-84.0,98.0
127.0,127.0,127.0,127.0,126.0,128.0,126.0,127.0,-1.0,109.0,-85.0,127.0,127.0,127.0,-116.0,-84.0,98.0
127.0,127.0,127.0,127.0,126.0,128.0,126.0,127.0,-1.0,109.0,-85.0,127.0,127.0,127.0,-116.0,-84.0,98.0
127.0,127.0,127.0,127.0,126.0,128.0,126.0,127.0,-1.0,109.0,-85.0,127.0,127.0,127.0,-116.0,-84.0,98.0
127.0,127.0,127.0,127.0,126.0,128.0,126.0,127.0,-1.0,109.0,-85.0,127.0,127.0,127.0,-116.0,-84.0,98.0
127.0,127.0,127.0,127.0,126.0,128.0,126.0,127.0,-1.0,109.0,-85.0,127.0,127.0,127.0,-116.0,-84.0,98.0
127.0,127.0,127.0,127.0,126.0,128.0,126.0,127.0,-1.0,109.0,-85.0,127.0,127.0,127.0,-116.0,-84.0,98.0
127.0,127.0,127.0,127.0,126.0,128.0,126.0,127.0,-1.0,109.0,-85.0,127.0,127.0,127.0,-116.0,-84.0,98.0
127.0,127.0,127.0,127.0,126.0,128.0,126.0,127.0,-1.0,109.0,-85.0,127.0,127.0,127.0,-116.0,-84.0,98.0
127.0,127.0,127.0,127.0,126.0,128.0,125.0,127.0,-1.0,109.0,-85.0,127.0,127.0,127.0,-116.0,-84.0,98.0
127.0,127.0,127.0,127.0,126.0,128.0,126.0,127.0,-1.0,109.0,-85.0,127.0,127.0,127.0,-116.0,-84.0,98.0
127.0,127.0,127.0,127.0,126.0,128.0,126.0,127.0,-1.0,109.0,-85.0,127.0,127.0,127.0,-116.0,-84.0,98.0
127.0,127.0,127.0,127.0,126.0,128.0,126.0,127.0,-1.0,109.0,-85.0,127.0,127.0,127.0,-116.0,-84.0,98.0
127.0,127.0,127.0,127.0,126.0,128.0,126.0,127.0,-1.0,109.0,-85.0,127.0,127.0,127.0,-116.0,-84.0,98.0
127.0,127.0,127.0,127.0,126.0,128.0,126.0,127.0,-1.0,109.0,-85.0,127.0,127.0,127.0,-116.0,-84.0,98.0
127.0,127.0,127.0,127.0,127.0,127.0,127.0,127.0,-1.0,109.0,-85.0,127.0,127.0,127.0,-116.0,-84.0,98.0
127.0,127.0,127.0,127.0,127.0,127.0,127.0,127.0,-1.0,109.0,-85.0,127.0,127.0,127.0,-116.0,-84.0,98.0
127.0,127.0,127.0,127.0,127.0,127.0,127.0,127.0,-1.0,109.0,-85.0,127.0,127.0,127.0,-116.0,-84.0,98.0
127.0,127.0,127.0,127.0,126.0,128.0,126.0,127.0,-1.0,109.0,-85.0,127.0,127.0,127.0,-116.0,-84.0,98.0
127.0,127.0,127.0,127.0,126.0,128.0,126.0,127.0,-1.0,109.0,-85.0,127.0,127.0,127.0,-116.0,-84.0,98.0
127.0,127.0,127.0,127.0,126.0,128.0,126.0,127.0,-1.0,109.0,-85.0,127.0,127.0,127.0,-116.0,-84.0,98.0
127.0,127.0,127.0,127.0,126.0,128.0,126.0,127.0,-1.0,109.0,-85.0,127.0,127.0,127.0,-116.0,-84.0,98.0
127.0,127.0,127.0,127.0,126.0,128.0,126.0,127.0,-1.0,109.0,-85.0,127.0,127.0,127.0,-116.0,-84.0,98.0
127.0,127.0,127.0,127.0,126.0,128.0,126.0,127.0,-1.0,109.0,-85.0,127.0,127.0,127.0,-116.0,-84.0,98.0
127.0,127.0,127.0,127.0,126.0,128.0,126.0,127.0,-1.0,109.0,-85.0,127.0,127.0,127.0,-116.0,-84.0,98.0
127.0,127.0,127.0,127.0,126.0,128.0,126.0,127.0,-1.0,109.0,-85.0,127.0,127.0,127.0,-116.0,-84.0,98.0
127.0,127.0,127.0,127.0,126.0,128.0,126.0,127.0,-1.0,109.0,-85.0,127.0,127.0,127.0,-116.0,-84.0,98.0
127.0,127.0,127.0,127.0,126.0,128.0,126.0,128.0,-1.0,109.0,-85.0,127.0,127.0,127.0,-116.0,-84.0,98.0
127.0,127.0,127.0,127.0,126.0,128.0,126.0,127.0,-1.0,109.0,-85.0,127.0,127.0,127.0,-116.0,-84.0,98.0
127.0,127.0,127.0,127.0,126.0,128.0,126.0,127.0,-1.0,109.0,-85.0,127.0,127.0,127.0,-116.0,-84.0,98.0
127.0,127.0,127.0,127.0,126.0,128.0,126.0,127.0,-1.0,109.0,-85.0,127.0,127.0,127.0,-116.0,-84.0,98.0
127.0,127.0,127.0,127.0,126.0,128.0,126.0,127.0,-1.0,109.0,-85.0,127.0,127.0,127.0,-116.0,-84.0,98.0
127.0,127.0,127.0,127.0,126.0,128.0,126.0,127.0,-1.0,109.0,-85.0,127.0,127.0,127.0,-116.0,-84.0,98.0
127.0,127.0,127.0,127.0,126.0,128.0,126.0,127.0,-1.0,109.0,-85.0,127.0,127.0,127.0,-116.0,-84.0,98.0
127.0,127.0,127.0,127.0,126.0,128.0,126.0,127.0,-1.0,109.0,-85.0,127.0,127.0,127.0,-116.0,-84.0,98.0
127.0,127.0,127.0,127.0,126.0,128.0,126.0,127.0,-1.0,109.0,-85.0,127.0,127.0,127.0,-116.0,-84.0,98.0
127.0,127.0,127.0,127.0,126.0,127.0,127.0,127.0,-1.0,109.0,-85.0,127.0,127.0,127.0,-116.0,-84.0,98.0
127.0,127.0,127.0,127.0,126.0,127.0,126.0,127.0,-1.0,109.0,-85.0,127.0,127.0,127.0,-116.0,-84.0,98.0
127.0,127.0,127.0,127.0,126.0,128.0,126.0,127.0,-1.0,109.0,-85.0,127.0,127.0,127.0,-116.0,-84.0,98.0
127.0,127.0,127.0,127.0,126.0,128.0,126.0,127.0,-1.0,109.0,-85.0,127.0,127.0,127.0,-116.0,-84.0,98.0
127.0,127.0,127.0,127.0,126.0,128.0,126.0,127.0,-1.0,109.0,-85.0,127.0,127.0,127.0,-116.0,-84.0,98.0
127.0,127.0,127.0,127.0,126.0,128.0,126.0,127.0,-1.0,109.0,-85.0,127.0,127.0,127.0,-116.0,-84.0,98.0
127.0,127.0,127.0,127.0,126.0,128.0,126.0,127.0,-1.0,109.0,-85.0,127.0,127.0,127.0,-116.0,-84.0,98.0
127.0,127.0,127.0,127.0,126.0,128.0,126.0,127.0,-1.0,109.0,-85.0,127.0,127.0,127.0,-116.0,-84.0,98.0
127.0,127.0,127.0,127.0,126.0,129.0,125.0,127.0,-1.0,109.0,-85.0,127.0,127.0,127.0,-116.0,-84.0,98.0
127.0,127.0,127.0,127.0,127.0,128.0,126.0,127.0,-1.0,109.0,-85.0,127.0,127.0,127.0,-116.0,-84.0,98.0
127.0,127.0,127.0,127.0,127.0,128.0,126.0,127.0,-1.0,109.0,-85.0,127.0,127.0,127.0,-116.0,-84.0,98.0
127.0,127.0,127.0,127.0,126.0,128.0,126.0,127.0,-1.0,109.0,-85.0,127.0,127.0,127.0,-116.0,-84.0,98.0
127.0,127.0,127.0,127.0,126.0,128.0,126.0,127.0,-1.0,109.0,-85.0,127.0,127.0,127.0,-116.0,-84.0,98.0
127.0,127.0,127.0,127.0,126.0,128.0,126.0,127.0,-1.0,109.0,-85.0,127.0,127.0,127.0,-116.0,-84.0,98.0
127.0,127.0,127.0,127.0,126.0,128.0,126.0,127.0,-1.0,109.0,-85.0,127.0,127.0,127.0,-116.0,-84.0,98.0
127.0,127.0,127.0,127.0,126.0,128.0,126.0,127.0,-1.0,109.0,-85.0,127.0,127.0,127.0,-116.0,-84.0,98.0
127.0,127.0,127.0,127.0,126.0,128.0,126.0,127.0,-1.0,109.0,-85.0,127.0,127.0,127.0,-116.0,-84.0,98.0
127.0,127.0,127.0,127.0,126.0,129.0,126.0,128.0,-1.0,109.0,-85.0,127.0,127.0,127.0,-116.0,-84.0,98.0
126.0,127.0,127.0,127.0,126.0,128.0,126.0,127.0,-1.0,109.0,-85.0,127.0,127.0,127.0,-116.0,-84.0,98.0
127.0,127.0,127.0,127.0,126.0,128.0,126.0,127.0,-1.0,109.0,-85.0,127.0,127.0,127.0,-116.0,-84.0,98.0
127.0,127.0,127.0,127.0,126.0,128.0,126.0,127.0,-1.0,109.0,-85.0,127.0,127.0,127.0,-116.0,-84.0,98.0
127.0,127.0,127.0,127.0,126.0,128.0,126.0,127.0,-1.0,109.0,-85.0,127.0,127.0,127.0,-116.0,-84.0,98.0
127.0,127.0,127.0,127.0,126.0,128.0,126.0,127.0,-1.0,109.0,-85.0,127.0,127.0,127.0,-116.0,-84.0,98.0
127.0,127.0,127.0,127.0,126.0,128.0,126.0,127.0,-1.0,109.0,-85.0,127.0,127.0,127.0,-116.0,-84.0,98.0
127.0,127.0,127.0,127.0,126.0,128.0,126.0,127.0,-1.0,109.0,-85.0,127.0,127.0,127.0,-116.0,-84.0,98.0
127.0,127.0,127.0,127.0,126.0,128.0,126.0,127.0,-1.0,109.0,-85.0,127.0,127.0,127.0,-116.0,-84.0,98.0
127.0,127.0,126.0,126.0,127.0,129.0,126.0,128.0,-1.0,109.0,-85.0,127.0,127.0,127.0,-116.0,-84.0,98.0
127.0,127.0,127.0,127.0,127.0,128.0,127.0,128.0,-1.0,109.0,-85.0,127.0,127.0,127.0,-116.0,-84.0,98.0
127.0,127.0,127.0,127.0,127.0,128.0,127.0,128.0,-1.0,109.0,-85.0,127.0,127.0,127.0,-116.0,-84.0,98.0
127.0,127.0,126.0,126.0,127.0,129.0,126.0,128.0,-1.0,109.0,-85.0,127.0,127.0,127.0,-116.0,-84.0,98.0
127.0,127.0,126.0,126.0,127.0,129.0,126.0,128.0,-1.0,109.0,-85.0,127.0,127.0,127.0,-116.0,-84.0,98.0
127.0,127.0,126.0,126.0,127.0,129.0,126.0,128.0,-1.0,109.0,-85.0,127.0,127.0,127.0,-116.0,-84.0,98.0
127.0,127.0,126.0,126.0,127.0,129.0,126.0,128.0,-1.0,109.0,-85.0,127.0,127.0,127.0,-116.0,-84.0,98.0
127.0,127.0,126.0,126.0,127.0,129.0,126.0,128.0,-1.0,109.0,-85.0,127.0,127.0,127.0,-116.0,-84.0,98.0
127.0,127.0,126.0,126.0,127.0,129.0,126.0,128.0,-1.0,109.0,-85.0,127.0,127.0,127.0,-116.0,-84.0,98.0
127.0,127.0,126.0,126.0,127.0,129.0,126.0,128.0,-1.0,109.0,-85.0,127.0,127.0,127.0,-116.0,-84.0,98.0
127.0,127.0,126.0,125.0,126.0,126.0,135.0,123.0,-1.0,109.0,-85.0,127.0,127.0,127.0,-116.0,-84.0,98.0
127.0,127.0,126.0,126.0,126.0,126.0,133.0,125.0,-1.0,109.0,-85.0,127.0,127.0,127.0,-116.0,-84.0,98.0
127.0,127.0,126.0,125.0,126.0,126.0,133.0,125.0,-1.0,109.0,-85.0,127.0,127.0,127.0,-116.0,-84.0,98.0
127.0,127.0,126.0,125.0,126.0,127.0,133.0,125.0,-1.0,109.0,-85.0,127.0,127.0,127.0,-116.0,-84.0,98.0
127.0,127.0,126.0,125.0,126.0,127.0,134.0,125.0,-1.0,109.0,-85.0,127.0,127.0,127.0,-116.0,-84.0,98.0
127.0,127.0,126.0,125.0,126.0,127.0,134.0,125.0,-1.0,109.0,-85.0,127.0,127.0,127.0,-116.0,-84.0,98.0
127.0,127.0,126.0,125.0,126.0,126.0,134.0,124.0,-1.0,109.0,-85.0,127.0,127.0,127.0,-116.0,-84.0,98.0
127.0,127.0,126.0,125.0,126.0,126.0,135.0,124.0,-1.0,109.0,-85.0,127.0,127.0,127.0,-116.0,-84.0,98.0
127.0,127.0,126.0,125.0,126.0,126.0,135.0,123.0,-1.0,109.0,-85.0,127.0,127.0,127.0,-116.0,-84.0,98.0
127.0,127.0,126.0,125.0,126.0,127.0,135.0,124.0,-1.0,109.0,-85.0,127.0,127.0,127.0,-116.0,-84.0,98.0
127.0,127.0,128.0,125.0,126.0,114.0,165.0,113.0,-1.0,109.0,-85.0,127.0,127.0,127.0,-116.0,-84.0,98.0
126.0,127.0,128.0,125.0,125.0,114.0,166.0,113.0,-1.0,109.0,-85.0,127.0,127.0,127.0,-116.0,-84.0,98.0
126.0,128.0,127.0,125.0,125.0,114.0,166.0,113.0,-1.0,109.0,-85.0,127.0,127.0,127.0,-116.0,-84.0,98.0
126.0,128.0,128.0,125.0,124.0,113.0,167.0,113.0,-1.0,109.0,-85.0,127.0,127.0,127.0,-116.0,-84.0,98.0
126.0,128.0,128.0,125.0,124.0,113.0,168.0,113.0,-1.0,109.0,-85.0,127.0,127.0,127.0,-116.0,-84.0,98.0
126.0,128.0,128.0,124.0,124.0,112.0,169.0,113.0,-1.0,109.0,-85.0,127.0,127.0,127.0,-116.0,-84.0,98.0
126.0,128.0,127.0,124.0,124.0,112.0,170.0,113.0,-1.0,109.0,-85.0,127.0,127.0,127.0,-116.0,-84.0,98.0
126.0,128.0,127.0,124.0,124.0,112.0,171.0,114.0,-1.0,109.0,-85.0,127.0,127.0,127.0,-116.0,-84.0,98.0
126.0,128.0,127.0,124.0,125.0,113.0,172.0,114.0,-1.0,109.0,-85.0,127.0,127.0,127.0,-116.0,-84.0,98.0
126.0,128.0,127.0,124.0,125.0,113.0,173.0,114.0,-1.0,109.0,-85.0,127.0,127.0,127.0,-116.0,-84.0,98.0
128.0,130.0,130.0,121.0,125.0,110.0,254.0,105.0,-1.0,109.0,-85.0,127.0,127.0,127.0,-116.0,-84.0,98.0
128.0,130.0,130.0,121.0,125.0,110.0,254.0,105.0,-1.0,109.0,-85.0,127.0,127.0,127.0,-116.0,-84.0,98.0
128.0,130.0,130.0,122.0,125.0,109.0,254.0,105.0,-1.0,109.0,-85.0,127.0,127.0,127.0,-116.0,-84.0,98.0
128.0,130.0,130.0,122.0,125.0,108.0,254.0,104.0,-1.0,109.0,-85.0,127.0,127.0,127.0,-116.0,-84.0,98.0
128.0,130.0,131.0,122.0,126.0,107.0,254.0,104.0,-1.0,109.0,-85.0,127.0,127.0,127.0,-116.0,-84.0,98.0
128.0,130.0,131.0,123.0,126.0,107.0,254.0,103.0,-1.0,109.0,-85.0,127.0,127.0,127.0,-116.0,-84.0,98.0
128.0,130.0,131.0,123.0,126.0,106.0,254.0,102.0,-1.0,109.0,-85.0,127.0,127.0,127.0,-116.0,-84.0,98.0
129.0,130.0,131.0,123.0,126.0,106.0,254.0,102.0,-1.0,109.0,-85.0,127.0,127.0,127.0,-116.0,-84.0,98.0
129.0,130.0,131.0,123.0,126.0,105.0,254.0,102.0,-1.0,109.0,-85.0,127.0,127.0,127.0,-116.0,-84.0,98.0
128.0,130.0,129.0,121.0,124.0,110.0,254.0,106.0,-1.0,109.0,-85.0,127.0,127.0,127.0,-116.0,-84.0,98.0
130.0,129.0,140.0,149.0,128.0,99.0,254.0,87.0,-1.0,109.0,-84.0,127.0,127.0,127.0,-116.0,-84.0,98.0
130.0,129.0,140.0,150.0,128.0,100.0,254.0,87.0,-1.0,109.0,-84.0,127.0,127.0,127.0,-116.0,-84.0,98.0
130.0,129.0,140.0,151.0,129.0,101.0,254.0,87.0,-1.0,109.0,-84.0,127.0,127.0,127.0,-116.0,-84.0,98.0
130.0,129.0,140.0,152.0,129.0,102.0,254.0,88.0,-1.0,109.0,-84.0,127.0,127.0,127.0,-116.0,-84.0,98.0
130.0,129.0,140.0,153.0,129.0,103.0,254.0,88.0,-1.0,109.0,-84.0,127.0,127.0,127.0,-116.0,-84.0,98.0
130.0,129.0,140.0,153.0,129.0,104.0,254.0,88.0,-1.0,109.0,-84.0,127.0,127.0,127.0,-116.0,-84.0,98.0
130.0,129.0,140.0,154.0,129.0,105.0,254.0,89.0,-1.0,109.0,-84.0,127.0,127.0,127.0,-116.0,-84.0,98.0
131.0,129.0,140.0,154.0,130.0,106.0,254.0,90.0,-1.0,109.0,-84.0,127.0,127.0,127.0,-116.0,-84.0,98.0
130.0,129.0,141.0,147.0,128.0,97.0,254.0,86.0,-1.0,109.0,-84.0,127.0,127.0,127.0,-116.0,-84.0,98.0
130.0,129.0,141.0,148.0,128.0,98.0,254.0,86.0,-1.0,109.0,-84.0,127.0,127.0,127.0,-116.0,-84.0,98.0
132.0,128.0,136.0,119.0,105.0,82.0,254.0,109.0,-1.0,108.0,-82.0,127.0,126.0,-128.0,-116.0,-84.0,98.0
132.0,128.0,136.0,117.0,105.0,81.0,254.0,110.0,-1.0,108.0,-82.0,127.0,126.0,-128.0,-116.0,-84.0,98.0
132.0,128.0,136.0,116.0,104.0,80.0,254.0,110.0,-1.0,108.0,-82.0,127.0,126.0,-128.0,-116.0,-84.0,98.0
132.0,127.0,136.0,115.0,104.0,80.0,254.0,110.0,-1.0,108.0,-82.0,127.0,126.0,-128.0,-116.0,-84.0,98.0
132.0,127.0,135.0,113.0,104.0,80.0,254.0,110.0,-1.0,108.0,-82.0,127.0,126.0,-128.0,-116.0,-84.0,98.0
131.0,127.0,135.0,112.0,104.0,80.0,254.0,111.0,-1.0,108.0,-82.0,127.0,126.0,-128.0,-116.0,-84.0,98.0
131.0,127.0,135.0,111.0,104.0,80.0,254.0,111.0,-1.0,108.0,-82.0,127.0,126.0,-128.0,-116.0,-84.0,98.0
132.0,128.0,136.0,122.0,106.0,81.0,254.0,108.0,-1.0,108.0,-82.0,127.0,126.0,-128.0,-116.0,-84.0,98.0
132.0,128.0,136.0,121.0,106.0,82.0,254.0,108.0,-1.0,108.0,-82.0,127.0,126.0,-128.0,-116.0,-84.0,98.0
132.0,128.0,136.0,120.0,106.0,82.0,254.0,109.0,-1.0,108.0,-82.0,127.0,126.0,-128.0,-116.0,-84.0,98.0
135.0,120.0,131.0,75.0,119.0,102.0,254.0,149.0,-1.0,105.0,-84.0,-128.0,126.0,-127.0,-116.0,-84.0,98.0
135.0,120.0,131.0,74.0,120.0,103.0,254.0,150.0,-1.0,105.0,-84.0,-128.0,126.0,-127.0,-116.0,-84.0,98.0
135.0,120.0,131.0,73.0,120.0,104.0,254.0,152.0,-1.0,105.0,-84.0,-128.0,126.0,-127.0,-116.0,-84.0,98.0
135.0,120.0,130.0,73.0,120.0,104.0,254.0,153.0,-1.0,105.0,-84.0,-128.0,126.0,-127.0,-116.0,-84.0,98.0
135.0,120.0,130.0,73.0,121.0,104.0,254.0,153.0,-1.0,105.0,-84.0,-128.0,126.0,-127.0,-116.0,-84.0,98.0
135.0,120.0,131.0,73.0,121.0,104.0,254.0,154.0,-1.0,105.0,-84.0,-128.0,126.0,-127.0,-116.0,-84.0,98.0
135.0,121.0,132.0,79.0,117.0,97.0,254.0,145.0,-1.0,105.0,-84.0,-128.0,126.0,-127.0,-116.0,-84.0,98.0
135.0,121.0,132.0,78.0,117.0,98.0,254.0,146.0,-1.0,105.0,-84.0,-128.0,126.0,-127.0,-116.0,-84.0,98.0
135.0,120.0,132.0,77.0,118.0,100.0,254.0,147.0,-1.0,105.0,-84.0,-128.0,126.0,-127.0,-116.0,-84.0,98.0
135.0,120.0,131.0,76.0,118.0,101.0,254.0,148.0,-1.0,105.0,-84.0,-128.0,126.0,-127.0,-116.0,-84.0,98.0
132.0,114.0,119.0,110.0,111.0,111.0,254.0,171.0,-1.0,100.0,-90.0,-126.0,126.0,-127.0,-115.0,-84.0,98.0
132.0,114.0,118.0,111.0,110.0,111.0,254.0,172.0,-1.0,100.0,-90.0,-126.0,126.0,-127.0,-115.0,-84.0,98.0
132.0,114.0,118.0,112.0,110.0,111.0,254.0,172.0,-1.0,100.0,-90.0,-126.0,126.0,-127.0,-115.0,-84.0,98.0
132.0,114.0,117.0,113.0,109.0,110.0,254.0,172.0,-1.0,100.0,-90.0,-126.0,126.0,-127.0,-115.0,-84.0,98.0
132.0,115.0,120.0,100.0,115.0,113.0,254.0,170.0,-1.0,100.0,-90.0,-126.0,126.0,-127.0,-115.0,-84.0,98.0
132.0,115.0,120.0,102.0,114.0,113.0,254.0,170.0,-1.0,100.0,-90.0,-126.0,126.0,-127.0,-115.0,-84.0,98.0
132.0,114.0,120.0,104.0,114.0,112.0,254.0,170.0,-1.0,100.0,-90.0,-126.0,126.0,-127.0,-115.0,-84.0,98.0
132.0,114.0,120.0,106.0,113.0,112.0,254.0,170.0,-1.0,100.0,-90.0,-126.0,126.0,-127.0,-115.0,-84.0,98.0
132.0,114.0,120.0,107.0,112.0,111.0,254.0,170.0,-1.0,100.0,-90.0,-126.0,126.0,-127.0,-115.0,-84.0,98.0
132.0,114.0,120.0,109.0,112.0,111.0,254.0,171.0,-1.0,100.0,-90.0,-126.0,126.0,-127.0,-115.0,-84.0,98.0
128.0,109.0,106.0,38.0,62.0,47.0,249.0,196.0,-1.0,100.0,-95.0,-125.0,126.0,-128.0,-115.0,-84.0,98.0
128.0,109.0,107.0,37.0,61.0,46.0,247.0,196.0,-1.0,100.0,-95.0,-125.0,126.0,-128.0,-115.0,-84.0,98.0
128.0,109.0,108.0,36.0,61.0,45.0,245.0,197.0,-1.0,100.0,-95.0,-125.0,126.0,-128.0,-115.0,-84.0,98.0
127.0,109.0,103.0,51.0,68.0,56.0,254.0,190.0,-1.0,100.0,-95.0,-125.0,126.0,-128.0,-115.0,-84.0,98.0
128.0,109.0,103.0,49.0,67.0,55.0,254.0,191.0,-1.0,100.0,-95.0,-125.0,126.0,-128.0,-115.0,-84.0,98.0
128.0,109.0,104.0,46.0,66.0,54.0,254.0,192.0,-1.0,100.0,-95.0,-125.0,126.0,-128.0,-115.0,-84.0,98.0
128.0,109.0,104.0,44.0,65.0,52.0,254.0,193.0,-1.0,100.0,-95.0,-125.0,126.0,-128.0,-115.0,-84.0,98.0
128.0,109.0,105.0,42.0,64.0,50.0,254.0,193.0,-1.0,100.0,-95.0,-125.0,126.0,-128.0,-115.0,-84.0,98.0
128.0,109.0,105.0,40.0,63.0,49.0,253.0,194.0,-1.0,100.0,-95.0,-125.0,126.0,-128.0,-115.0,-84.0,98.0
128.0,109.0,106.0,39.0,62.0,48.0,252.0,195.0,-1.0,100.0,-95.0,-125.0,126.0,-128.0,-115.0,-84.0,98.0
134.0,122.0,161.0,127.0,97.0,62.0,84.0,216.0,-1.0,104.0,-92.0,-125.0,126.0,127.0,-114.0,-84.0,98.0
134.0,122.0,162.0,129.0,97.0,62.0,82.0,216.0,-1.0,104.0,-92.0,-125.0,126.0,127.0,-114.0,-84.0,98.0
133.0,120.0,158.0,108.0,91.0,55.0,103.0,214.0,-1.0,104.0,-92.0,-125.0,126.0,127.0,-114.0,-84.0,98.0
134.0,120.0,158.0,111.0,92.0,57.0,100.0,214.0,-1.0,104.0,-92.0,-125.0,126.0,127.0,-114.0,-84.0,98.0
134.0,121.0,159.0,113.0,92.0,57.0,98.0,215.0,-1.0,104.0,-92.0,-125.0,126.0,127.0,-114.0,-84.0,98.0
134.0,121.0,159.0,115.0,93.0,58.0,96.0,215.0,-1.0,104.0,-92.0,-125.0,126.0,127.0,-114.0,-84.0,98.0
134.0,121.0,160.0,118.0,94.0,58.0,94.0,215.0,-1.0,104.0,-92.0,-125.0,126.0,127.0,-114.0,-84.0,98.0
134.0,121.0,160.0,120.0,94.0,59.0,92.0,215.0,-1.0,104.0,-92.0,-125.0,126.0,127.0,-114.0,-84.0,98.0
133.0,121.0,161.0,122.0,95.0,60.0,89.0,215.0,-1.0,104.0,-92.0,-125.0,126.0,127.0,-114.0,-84.0,98.0
134.0,122.0,161.0,124.0,96.0,61.0,86.0,216.0,-1.0,104.0,-92.0,-125.0,126.0,127.0,-114.0,-84.0,98.0
130.0,124.0,106.0,152.0,162.0,99.0,42.0,217.0,-1.0,103.0,-85.0,-124.0,127.0,127.0,-113.0,-84.0,98.0
130.0,124.0,116.0,157.0,150.0,93.0,47.0,218.0,-1.0,103.0,-85.0,-124.0,127.0,127.0,-113.0,-84.0,98.0
130.0,124.0,115.0,156.0,151.0,94.0,45.0,218.0,-1.0,103.0,-85.0,-124.0,127.0,127.0,-113.0,-84.0,98.0
130.0,124.0,113.0,156.0,153.0,95.0,45.0,218.0,-1.0,103.0,-85.0,-124.0,127.0,127.0,-113.0,-84.0,98.0
130.0,124.0,112.0,155.0,154.0,95.0,45.0,218.0,-1.0,103.0,-85.0,-124.0,127.0,127.0,-113.0,-84.0,98.0
130.0,124.0,111.0,155.0,156.0,95.0,45.0,218.0,-1.0,103.0,-85.0,-124.0,127.0,127.0,-113.0,-84.0,98.0
130.0,124.0,110.0,154.0,157.0,96.0,44.0,217.0,-1.0,103.0,-85.0,-124.0,127.0,127.0,-113.0,-84.0,98.0
130.0,124.0,109.0,153.0,158.0,97.0,44.0,217.0,-1.0,103.0,-85.0,-124.0,127.0,127.0,-113.0,-84.0,98.0
130.0,124.0,108.0,153.0,159.0,98.0,43.0,217.0,-1.0,103.0,-85.0,-124.0,127.0,127.0,-113.0,-84.0,98.0
130.0,124.0,107.0,153.0,161.0,98.0,42.0,217.0,-1.0,103.0,-85.0,-124.0,127.0,127.0,-113.0,-84.0,98.0
128.0,126.0,90.0,135.0,170.0,108.0,45.0,194.0,-1.0,103.0,-78.0,-124.0,127.0,127.0,-113.0,-84.0,98.0
128.0,126.0,90.0,134.0,169.0,109.0,43.0,194.0,-1.0,103.0,-78.0,-124.0,127.0,127.0,-113.0,-84.0,98.0
127.0,126.0,90.0,134.0,169.0,109.0,43.0,193.0,-1.0,103.0,-78.0,-124.0,127.0,127.0,-113.0,-84.0,98.0
127.0,126.0,90.0,134.0,168.0,108.0,44.0,192.0,-1.0,103.0,-78.0,-124.0,127.0,127.0,-113.0,-84.0,98.0
127.0,126.0,90.0,134.0,168.0,108.0,45.0,191.0,-1.0,103.0,-78.0,-124.0,127.0,127.0,-113.0,-84.0,98.0
127.0,127.0,90.0,134.0,167.0,107.0,46.0,190.0,-1.0,103.0,-78.0,-124.0,127.0,127.0,-113.0,-84.0,98.0
127.0,127.0,90.0,134.0,167.0,107.0,46.0,189.0,-1.0,103.0,-78.0,-124.0,127.0,127.0,-113.0,-84.0,98.0
127.0,127.0,90.0,134.0,166.0,107.0,46.0,189.0,-1.0,103.0,-78.0,-124.0,127.0,127.0,-113.0,-84.0,98.0
127.0,127.0,90.0,135.0,166.0,107.0,46.0,189.0,-1.0,103.0,-78.0,-124.0,127.0,127.0,-113.0,-84.0,98.0
128.0,127.0,90.0,135.0,165.0,107.0,46.0,188.0,-1.0,103.0,-78.0,-124.0,127.0,127.0,-113.0,-84.0,98.0
127.0,130.0,104.0,142.0,154.0,125.0,59.0,179.0,-1.0,105.0,-77.0,-126.0,127.0,127.0,-113.0,-84.0,98.0
127.0,130.0,105.0,142.0,154.0,126.0,59.0,179.0,-1.0,105.0,-77.0,-126.0,127.0,127.0,-113.0,-84.0,98.0
127.0,130.0,105.0,143.0,154.0,126.0,60.0,179.0,-1.0,105.0,-77.0,-126.0,127.0,127.0,-113.0,-84.0,98.0
127.0,130.0,106.0,143.0,154.0,127.0,60.0,179.0,-1.0,105.0,-77.0,-126.0,127.0,127.0,-113.0,-84.0,98.0
127.0,130.0,106.0,143.0,154.0,127.0,61.0,179.0,-1.0,105.0,-77.0,-126.0,127.0,127.0,-113.0,-84.0,98.0
127.0,130.0,107.0,144.0,153.0,128.0,61.0,178.0,-1.0,105.0,-77.0,-126.0,127.0,127.0,-113.0,-84.0,98.0
127.0,130.0,107.0,144.0,153.0,129.0,61.0,179.0,-1.0,105.0,-77.0,-126.0,127.0,127.0,-113.0,-84.0,98.0
127.0,130.0,108.0,145.0,153.0,130.0,61.0,179.0,-1.0,105.0,-77.0,-126.0,127.0,127.0,-113.0,-84.0,98.0
127.0,130.0,108.0,145.0,153.0,131.0,62.0,179.0,-1.0,105.0,-77.0,-126.0,127.0,127.0,-113.0,-84.0,98.0
127.0,130.0,104.0,142.0,155.0,124.0,60.0,179.0,-1.0,105.0,-77.0,-126.0,127.0,127.0,-113.0,-84.0,98.0
127.0,127.0,116.0,144.0,144.0,140.0,78.0,181.0,-1.0,105.0,-80.0,-127.0,127.0,127.0,-113.0,-84.0,98.0
127.0,127.0,116.0,144.0,144.0,139.0,78.0,181.0,-1.0,105.0,-80.0,-127.0,127.0,127.0,-113.0,-84.0,98.0
127.0,127.0,116.0,144.0,143.0,139.0,79.0,181.0,-1.0,105.0,-80.0,-127.0,127.0,127.0,-113.0,-84.0,98.0
127.0,127.0,116.0,143.0,143.0,139.0,79.0,181.0,-1.0,105.0,-80.0,-127.0,127.0,127.0,-113.0,-84.0,98.0
127.0,127.0,116.0,143.0,143.0,138.0,79.0,181.0,-1.0,105.0,-80.0,-127.0,127.0,127.0,-113.0,-84.0,98.0
127.0,126.0,116.0,143.0,143.0,138.0,79.0,181.0,-1.0,105.0,-80.0,-127.0,127.0,127.0,-113.0,-84.0,98.0
127.0,126.0,116.0,143.0,143.0,138.0,80.0,181.0,-1.0,105.0,-80.0,-127.0,127.0,127.0,-113.0,-84.0,98.0
127.0,126.0,116.0,143.0,142.0,137.0,80.0,181.0,-1.0,105.0,-80.0,-127.0,127.0,127.0,-113.0,-84.0,98.0
127.0,127.0,116.0,145.0,144.0,140.0,77.0,181.0,-1.0,105.0,-80.0,-127.0,127.0,127.0,-113.0,-84.0,98.0
127.0,127.0,116.0,145.0,144.0,140.0,78.0,181.0,-1.0,105.0,-80.0,-127.0,127.0,127.0,-113.0,-84.0,98.0
127.0,124.0,115.0,142.0,135.0,132.0,87.0,180.0,-1.0,105.0,-84.0,-128.0,127.0,127.0,-113.0,-84.0,98.0
127.0,124.0,115.0,142.0,135.0,132.0,87.0,180.0,-1.0,105.0,-84.0,-128.0,127.0,127.0,-113.0,-84.0,98.0
127.0,124.0,114.0,142.0,135.0,132.0,87.0,181.0,-1.0,105.0,-84.0,-128.0,127.0,127.0,-113.0,-84.0,98.0
127.0,124.0,114.0,142.0,135.0,132.0,87.0,181.0,-1.0,105.0,-84.0,-128.0,127.0,127.0,-113.0,-84.0,98.0
127.0,124.0,114.0,142.0,134.0,132.0,88.0,180.0,-1.0,105.0,-84.0,-128.0,127.0,127.0,-113.0,-84.0,98.0
127.0,124.0,114.0,142.0,134.0,131.0,88.0,180.0,-1.0,105.0,-84.0,-128.0,127.0,127.0,-113.0,-84.0,98.0
127.0,124.0,114.0,142.0,134.0,131.0,89.0,180.0,-1.0,105.0,-84.0,-128.0,127.0,127.0,-113.0,-84.0,98.0
127.0,124.0,115.0,141.0,136.0,133.0,86.0,180.0,-1.0,105.0,-84.0,-128.0,127.0,127.0,-113.0,-84.0,98.0
127.0,124.0,115.0,141.0,135.0,132.0,87.0,180.0,-1.0,105.0,-84.0,-128.0,127.0,127.0,-113.0,-84.0,98.0
127.0,124.0,115.0,141.0,135.0,132.0,87.0,180.0,-1.0,105.0,-84.0,-128.0,127.0,127.0,-113.0,-84.0,98.0
127.0,123.0,121.0,143.0,130.0,124.0,99.0,175.0,-1.0,109.0,-88.0,-128.0,127.0,127.0,-113.0,-84.0,98.0
127.0,123.0,121.0,143.0,130.0,124.0,98.0,175.0,-1.0,109.0,-88.0,-128.0,127.0,127.0,-113.0,-84.0,98.0
127.0,123.0,121.0,143.0,130.0,124.0,98.0,175.0,-1.0,109.0,-88.0,-128.0,127.0,127.0,-113.0,-84.0,98.0
127.0,123.0,121.0,143.0,130.0,124.0,98.0,175.0,-1.0,109.0,-88.0,-128.0,127.0,127.0,-113.0,-84.0,98.0
127.0,123.0,121.0,143.0,130.0,124.0,99.0,175.0,-1.0,109.0,-88.0,-128.0,127.0,127.0,-113.0,-84.0,98.0
127.0,123.0,121.0,143.0,130.0,124.0,99.0,175.0,-1.0,109.0,-88.0,-128.0,127.0,127.0,-113.0,-84.0,98.0
127.0,123.0,120.0,143.0,130.0,125.0,98.0,176.0,-1.0,109.0,-88.0,-128.0,127.0,127.0,-113.0,-84.0,98.0
127.0,123.0,120.0,143.0,131.0,124.0,98.0,176.0,-1.0,109.0,-88.0,-128.0,127.0,127.0,-113.0,-84.0,98.0
127.0,123.0,120.0,143.0,130.0,124.0,98.0,175.0,-1.0,109.0,-88.0,-128.0,127.0,127.0,-113.0,-84.0,98.0
127.0,123.0,121.0,143.0,130.0,124.0,98.0,175.0,-1.0,109.0,-88.0,-128.0,127.0,127.0,-113.0,-84.0,98.0
127.0,123.0,127.0,142.0,127.0,121.0,105.0,169.0,-1.0,113.0,-89.0,-128.0,127.0,127.0,-114.0,-84.0,98.0
127.0,123.0,127.0,142.0,127.0,121.0,105.0,169.0,-1.0,113.0,-89.0,-128.0,127.0,127.0,-114.0,-84.0,98.0
127.0,123.0,127.0,142.0,127.0,121.0,105.0,168.0,-1.0,113.0,-89.0,-128.0,127.0,127.0,-114.0,-84.0,98.0
127.0,123.0,127.0,142.0,127.0,121.0,105.0,168.0,-1.0,113.0,-89.0,-128.0,127.0,127.0,-114.0,-84.0,98.0
127.0,123.0,127.0,142.0,127.0,121.0,106.0,168.0,-1.0,113.0,-89.0,-128.0,127.0,127.0,-114.0,-84.0,98.0
127.0,123.0,127.0,142.0,128.0,121.0,105.0,169.0,-1.0,113.0,-89.0,-128.0,127.0,127.0,-114.0,-84.0,98.0
127.0,123.0,127.0,142.0,128.0,121.0,105.0,169.0,-1.0,113.0,-89.0,-128.0,127.0,127.0,-114.0,-84.0,98.0
127.0,123.0,127.0,142.0,128.0,121.0,105.0,169.0,-1.0,113.0,-89.0,-128.0,127.0,127.0,-114.0,-84.0,98.0
127.0,123.0,127.0,142.0,128.0,121.0,105.0,169.0,-1.0,113.0,-89.0,-128.0,127.0,127.0,-114.0,-84.0,98.0
127.0,123.0,127.0,142.0,128.0,121.0,106.0,168.0,-1.0,113.0,-89.0,-128.0,127.0,127.0,-114.0,-84.0,98.0
127.0,124.0,129.0,139.0,125.0,121.0,112.0,167.0,-1.0,115.0,-90.0,127.0,127.0,127.0,-115.0,-84.0,98.0
127.0,124.0,129.0,139.0,126.0,121.0,112.0,167.0,-1.0,115.0,-90.0,127.0,127.0,127.0,-115.0,-84.0,98.0
127.0,124.0,129.0,139.0,126.0,121.0,112.0,166.0,-1.0,115.0,-90.0,127.0,127.0,127.0,-115.0,-84.0,98.0
127.0,124.0,129.0,139.0,126.0,121.0,113.0,166.0,-1.0,115.0,-90.0,127.0,127.0,127.0,-115.0,-84.0,98.0
127.0,123.0,129.0,139.0,126.0,121.0,110.0,166.0,-1.0,115.0,-90.0,127.0,127.0,127.0,-115.0,-84.0,98.0
127.0,123.0,129.0,139.0,126.0,121.0,111.0,166.0,-1.0,115.0,-90.0,127.0,127.0,127.0,-115.0,-84.0,98.0
127.0,123.0,129.0,139.0,126.0,121.0,111.0,166.0,-1.0,115.0,-90.0,127.0,127.0,127.0,-115.0,-84.0,98.0
127.0,123.0,129.0,139.0,126.0,121.0,112.0,166.0,-1.0,115.0,-90.0,127.0,127.0,127.0,-115.0,-84.0,98.0
127.0,123.0,129.0,139.0,126.0,121.0,112.0,166.0,-1.0,115.0,-90.0,127.0,127.0,127.0,-115.0,-84.0,98.0
127.0,123.0,129.0,139.0,125.0,121.0,112.0,167.0,-1.0,115.0,-90.0,127.0,127.0,127.0,-115.0,-84.0,98.0
127.0,125.0,129.0,139.0,124.0,121.0,117.0,159.0,-1.0,116.0,-89.0,127.0,127.0,127.0,-115.0,-84.0,98.0
127.0,125.0,129.0,139.0,124.0,121.0,117.0,158.0,-1.0,116.0,-89.0,127.0,127.0,127.0,-115.0,-84.0,98.0
127.0,125.0,129.0,139.0,124.0,120.0,117.0,158.0,-1.0,116.0,-89.0,127.0,127.0,127.0,-115.0,-84.0,98.0
127.0,124.0,129.0,139.0,124.0,120.0,116.0,160.0,-1.0,116.0,-89.0,127.0,127.0,127.0,-115.0,-84.0,98.0
127.0,124.0,129.0,139.0,124.0,120.0,116.0,160.0,-1.0,116.0,-89.0,127.0,127.0,127.0,-115.0,-84.0,98.0
127.0,124.0,129.0,139.0,124.0,120.0,117.0,159.0,-1.0,116.0,-89.0,127.0,127.0,127.0,-115.0,-84.0,98.0
127.0,124.0,129.0,139.0,124.0,120.0,117.0,159.0,-1.0,116.0,-89.0,127.0,127.0,127.0,-115.0,-84.0,98.0
127.0,125.0,129.0,139.0,124.0,121.0,117.0,159.0,-1.0,116.0,-89.0,127.0,127.0,127.0,-115.0,-84.0,98.0
127.0,125.0,129.0,139.0,124.0,121.0,117.0,159.0,-1.0,116.0,-89.0,127.0,127.0,127.0,-115.0,-84.0,98.0
127.0,125.0,129.0,139.0,124.0,121.0,117.0,159.0,-1.0,116.0,-89.0,127.0,127.0,127.0,-115.0,-84.0,98.0
127.0,128.0,133.0,142.0,123.0,118.0,76.0,149.0,-1.0,118.0,-89.0,127.0,127.0,127.0,-116.0,-84.0,98.0
127.0,128.0,133.0,143.0,123.0,118.0,74.0,149.0,-1.0,118.0,-89.0,127.0,127.0,127.0,-116.0,-84.0,98.0
127.0,128.0,132.0,142.0,124.0,120.0,97.0,151.0,-1.0,118.0,-89.0,127.0,127.0,127.0,-116.0,-84.0,98.0
127.0,128.0,133.0,142.0,124.0,120.0,95.0,150.0,-1.0,118.0,-89.0,127.0,127.0,127.0,-116.0,-84.0,98.0
127.0,128.0,133.0,142.0,124.0,119.0,93.0,150.0,-1.0,118.0,-89.0,127.0,127.0,127.0,-116.0,-84.0,98.0
127.0,128.0,133.0,142.0,124.0,119.0,91.0,150.0,-1.0,118.0,-89.0,127.0,127.0,127.0,-116.0,-84.0,98.0
127.0,128.0,133.0,142.0,124.0,119.0,88.0,149.0,-1.0,118.0,-89.0,127.0,127.0,127.0,-116.0,-84.0,98.0
127.0,128.0,133.0,142.0,123.0,119.0,85.0,149.0,-1.0,118.0,-89.0,127.0,127.0,127.0,-116.0,-84.0,98.0
127.0,128.0,133.0,142.0,123.0,119.0,82.0,149.0,-1.0,118.0,-89.0,127.0,127.0,127.0,-116.0,-84.0,98.0
127.0,128.0,133.0,142.0,123.0,119.0,79.0,149.0,-1.0,118.0,-89.0,127.0,127.0,127.0,-116.0,-84.0,98.0
127.0,130.0,137.0,150.0,125.0,120.0,0.0,143.0,-1.0,119.0,-88.0,126.0,127.0,127.0,-117.0,-84.0,98.0
127.0,130.0,137.0,149.0,125.0,120.0,0.0,140.0,-1.0,119.0,-88.0,126.0,127.0,127.0,-117.0,-84.0,98.0
127.0,130.0,137.0,149.0,125.0,120.0,0.0,140.0,-1.0,119.0,-88.0,126.0,127.0,127.0,-117.0,-84.0,98.0
127.0,130.0,137.0,149.0,125.0,120.0,0.0,140.0,-1.0,119.0,-88.0,126.0,127.0,127.0,-117.0,-84.0,98.0
127.0,130.0,137.0,149.0,125.0,120.0,0.0,141.0,-1.0,119.0,-88.0,126.0,127.0,127.0,-117.0,-84.0,98.0
127.0,130.0,137.0,150.0,125.0,120.0,0.0,141.0,-1.0,119.0,-88.0,126.0,127.0,127.0,-117.0,-84.0,98.0
127.0,130.0,137.0,150.0,125.0,120.0,0.0,142.0,-1.0,119.0,-88.0,126.0,127.0,127.0,-117.0,-84.0,98.0
127.0,130.0,137.0,150.0,125.0,120.0,0.0,142.0,-1.0,119.0,-88.0,126.0,127.0,127.0,-117.0,-84.0,98.0
127.0,130.0,137.0,150.0,125.0,120.0,0.0,143.0,-1.0,119.0,-88.0,126.0,127.0,127.0,-117.0,-84.0,98.0
127.0,130.0,137.0,150.0,125.0,120.0,0.0,143.0,-1.0,119.0,-88.0,126.0,127.0,127.0,-117.0,-84.0,98.0
127.0,129.0,139.0,154.0,125.0,121.0,0.0,126.0,-1.0,118.0,-87.0,126.0,127.0,127.0,-118.0,-84.0,98.0
127.0,130.0,138.0,154.0,125.0,121.0,0.0,126.0,-1.0,118.0,-87.0,126.0,127.0,127.0,-118.0,-84.0,98.0
127.0,130.0,138.0,154.0,125.0,121.0,0.0,125.0,-1.0,118.0,-87.0,126.0,127.0,127.0,-118.0,-84.0,98.0
127.0,130.0,138.0,154.0,125.0,121.0,0.0,125.0,-1.0,118.0,-87.0,126.0,127.0,127.0,-118.0,-84.0,98.0
127.0,130.0,138.0,154.0,125.0,122.0,0.0,124.0,-1.0,118.0,-87.0,126.0,127.0,127.0,-118.0,-84.0,98.0
127.0,130.0,138.0,154.0,125.0,122.0,0.0,124.0,-1.0,118.0,-87.0,126.0,127.0,127.0,-118.0,-84.0,98.0
127.0,130.0,138.0,154.0,125.0,122.0,0.0,123.0,-1.0,118.0,-87.0,126.0,127.0,127.0,-118.0,-84.0,98.0
127.0,130.0,138.0,154.0,125.0,122.0,0.0,123.0,-1.0,118.0,-87.0,126.0,127.0,127.0,-118.0,-84.0,98.0
127.0,130.0,138.0,155.0,125.0,122.0,0.0,122.0,-1.0,118.0,-87.0,126.0,127.0,127.0,-118.0,-84.0,98.0
127.0,130.0,138.0,155.0,125.0,123.0,0.0,122.0,-1.0,118.0,-87.0,126.0,127.0,127.0,-118.0,-84.0,98.0
126.0,129.0,136.0,154.0,126.0,127.0,0.0,94.0,-1.0,117.0,-86.0,126.0,127.0,127.0,-118.0,-84.0,98.0
126.0,129.0,136.0,153.0,126.0,127.0,0.0,93.0,-1.0,117.0,-86.0,126.0,127.0,127.0,-118.0,-84.0,98.0
126.0,129.0,136.0,153.0,125.0,127.0,0.0,93.0,-1.0,117.0,-86.0,126.0,127.0,127.0,-118.0,-84.0,98.0
126.0,129.0,136.0,153.0,126.0,127.0,0.0,93.0,-1.0,117.0,-86.0,126.0,127.0,127.0,-118.0,-84.0,98.0
126.0,129.0,136.0,153.0,125.0,127.0,0.0,93.0,-1.0,117.0,-86.0,126.0,127.0,127.0,-118.0,-84.0,98.0
126.0,129.0,136.0,153.0,125.0,127.0,0.0,92.0,-1.0,117.0,-86.0,126.0,127.0,127.0,-118.0,-84.0,98.0
126.0,129.0,136.0,153.0,125.0,127.0,0.0,92.0,-1.0,117.0,-86.0,126.0,127.0,127.0,-118.0,-84.0,98.0
126.0,129.0,136.0,153.0,125.0,127.0,0.0,92.0,-1.0,117.0,-86.0,126.0,127.0,127.0,-118.0,-84.0,98.0
126.0,129.0,136.0,152.0,125.0,126.0,0.0,91.0,-1.0,117.0,-86.0,126.0,127.0,127.0,-118.0,-84.0,98.0
126.0,129.0,136.0,154.0,126.0,128.0,0.0,94.0,-1.0,117.0,-86.0,126.0,127.0,127.0,-118.0,-84.0,98.0
126.0,129.0,135.0,148.0,125.0,129.0,1.0,51.0,-1.0,116.0,-85.0,125.0,127.0,127.0,-118.0,-84.0,98.0
126.0,129.0,135.0,148.0,125.0,130.0,1.0,50.0,-1.0,116.0,-85.0,125.0,127.0,127.0,-118.0,-84.0,98.0
126.0,129.0,135.0,148.0,125.0,130.0,2.0,50.0,-1.0,116.0,-85.0,125.0,127.0,127.0,-118.0,-84.0,98.0
126.0,129.0,135.0,148.0,125.0,130.0,3.0,49.0,-1.0,116.0,-85.0,125.0,127.0,127.0,-118.0,-84.0,98.0
126.0,129.0,135.0,148.0,125.0,129.0,5.0,48.0,-1.0,116.0,-85.0,125.0,127.0,127.0,-118.0,-84.0,98.0
126.0,129.0,135.0,148.0,125.0,129.0,6.0,47.0,-1.0,116.0,-85.0,125.0,127.0,127.0,-118.0,-84.0,98.0
126.0,129.0,135.0,147.0,125.0,129.0,7.0,47.0,-1.0,116.0,-85.0,125.0,127.0,127.0,-118.0,-84.0,98.0
126.0,129.0,135.0,147.0,125.0,129.0,8.0,46.0,-1.0,116.0,-85.0,125.0,127.0,127.0,-118.0,-84.0,98.0
126.0,129.0,135.0,148.0,125.0,129.0,0.0,52.0,-1.0,116.0,-85.0,125.0,127.0,127.0,-118.0,-84.0,98.0
126.0,129.0,135.0,148.0,125.0,129.0,1.0,52.0,-1.0,116.0,-85.0,125.0,127.0,127.0,-118.0,-84.0,98.0
126.0,129.0,133.0,147.0,124.0,129.0,54.0,31.0,-1.0,115.0,-83.0,125.0,127.0,127.0,-118.0,-84.0,98.0
126.0,129.0,133.0,148.0,124.0,129.0,54.0,31.0,-1.0,115.0,-83.0,125.0,127.0,127.0,-118.0,-84.0,98.0
126.0,129.0,133.0,148.0,125.0,129.0,54.0,31.0,-1.0,115.0,-83.0,125.0,127.0,127.0,-118.0,-84.0,98.0
126.0,129.0,133.0,148.0,124.0,129.0,54.0,31.0,-1.0,115.0,-83.0,125.0,127.0,127.0,-118.0,-84.0,98.0
126.0,129.0,133.0,148.0,124.0,129.0,53.0,31.0,-1.0,115.0,-83.0,125.0,127.0,127.0,-118.0,-84.0,98.0
126.0,129.0,133.0,149.0,124.0,129.0,53.0,31.0,-1.0,115.0,-83.0,125.0,127.0,127.0,-118.0,-84.0,98.0
126.0,129.0,133.0,149.0,125.0,129.0,53.0,30.0,-1.0,115.0,-83.0,125.0,127.0,127.0,-118.0,-84.0,98.0
125.0,129.0,134.0,147.0,125.0,129.0,54.0,31.0,-1.0,115.0,-83.0,125.0,127.0,127.0,-118.0,-84.0,98.0
125.0,129.0,134.0,147.0,125.0,129.0,54.0,31.0,-1.0,115.0,-83.0,125.0,127.0,127.0,-118.0,-84.0,98.0
125.0,129.0,134.0,147.0,125.0,129.0,55.0,31.0,-1.0,115.0,-83.0,125.0,127.0,127.0,-118.0,-84.0,98.0
124.0,128.0,132.0,153.0,122.0,127.0,27.0,44.0,-1.0,114.0,-83.0,125.0,127.0,127.0,-118.0,-84.0,98.0
124.0,128.0,131.0,153.0,122.0,127.0,27.0,45.0,-1.0,114.0,-83.0,125.0,127.0,127.0,-118.0,-84.0,98.0
124.0,129.0,131.0,153.0,121.0,127.0,26.0,45.0,-1.0,114.0,-83.0,125.0,127.0,127.0,-118.0,-84.0,98.0
124.0,129.0,131.0,153.0,121.0,128.0,26.0,46.0,-1.0,114.0,-83.0,125.0,127.0,127.0,-118.0,-84.0,98.0
124.0,129.0,131.0,153.0,121.0,128.0,25.0,47.0,-1.0,114.0,-83.0,125.0,127.0,127.0,-118.0,-84.0,98.0
124.0,129.0,131.0,153.0,121.0,127.0,25.0,47.0,-1.0,114.0,-83.0,125.0,127.0,127.0,-118.0,-84.0,98.0
124.0,128.0,132.0,154.0,122.0,128.0,28.0,42.0,-1.0,114.0,-83.0,125.0,127.0,127.0,-118.0,-84.0,98.0
124.0,128.0,132.0,153.0,122.0,128.0,28.0,43.0,-1.0,114.0,-83.0,125.0,127.0,127.0,-118.0,-84.0,98.0
124.0,128.0,132.0,153.0,122.0,128.0,28.0,43.0,-1.0,114.0,-83.0,125.0,127.0,127.0,-118.0,-84.0,98.0
124.0,128.0,132.0,153.0,122.0,127.0,27.0,44.0,-1.0,114.0,-83.0,125.0,127.0,127.0,-118.0,-84.0,98.0
124.0,129.0,132.0,154.0,121.0,123.0,25.0,71.0,-1.0,113.0,-82.0,125.0,127.0,127.0,-118.0,-84.0,98.0
124.0,129.0,132.0,154.0,121.0,122.0,26.0,71.0,-1.0,113.0,-82.0,125.0,127.0,127.0,-118.0,-84.0,98.0
124.0,129.0,132.0,154.0,121.0,123.0,26.0,72.0,-1.0,113.0,-82.0,125.0,127.0,127.0,-118.0,-84.0,98.0
124.0,129.0,132.0,154.0,121.0,123.0,26.0,72.0,-1.0,113.0,-82.0,125.0,127.0,127.0,-118.0,-84.0,98.0
124.0,129.0,132.0,154.0,121.0,122.0,27.0,72.0,-1.0,113.0,-82.0,125.0,127.0,127.0,-118.0,-84.0,98.0
124.0,128.0,132.0,153.0,121.0,124.0,24.0,68.0,-1.0,113.0,-82.0,125.0,127.0,127.0,-118.0,-84.0,98.0
124.0,128.0,132.0,153.0,121.0,124.0,24.0,69.0,-1.0,113.0,-82.0,125.0,127.0,127.0,-118.0,-84.0,98.0
124.0,128.0,132.0,153.0,121.0,124.0,24.0,69.0,-1.0,113.0,-82.0,125.0,127.0,127.0,-118.0,-84.0,98.0
124.0,129.0,132.0,153.0,121.0,123.0,25.0,70.0,-1.0,113.0,-82.0,125.0,127.0,127.0,-118.0,-84.0,98.0
124.0,129.0,132.0,153.0,121.0,123.0,25.0,70.0,-1.0,113.0,-82.0,125.0,127.0,127.0,-118.0,-84.0,98.0
124.0,129.0,134.0,152.0,121.0,122.0,69.0,89.0,-1.0,113.0,-82.0,125.0,127.0,127.0,-118.0,-84.0,98.0
124.0,129.0,134.0,152.0,121.0,123.0,70.0,89.0,-1.0,113.0,-82.0,125.0,127.0,127.0,-118.0,-84.0,98.0
124.0,129.0,134.0,151.0,121.0,123.0,70.0,90.0,-1.0,113.0,-82.0,125.0,127.0,127.0,-118.0,-84.0,98.0
124.0,129.0,135.0,151.0,121.0,123.0,71.0,90.0,-1.0,113.0,-82.0,125.0,127.0,127.0,-118.0,-84.0,98.0
124.0,128.0,134.0,154.0,121.0,122.0,63.0,87.0,-1.0,113.0,-82.0,125.0,127.0,127.0,-118.0,-84.0,98.0
124.0,129.0,134.0,153.0,121.0,122.0,64.0,87.0,-1.0,113.0,-82.0,125.0,127.0,127.0,-118.0,-84.0,98.0
124.0,129.0,134.0,153.0,121.0,122.0,65.0,88.0,-1.0,113.0,-82.0,125.0,127.0,127.0,-118.0,-84.0,98.0
124.0,129.0,134.0,153.0,121.0,122.0,66.0,88.0,-1.0,113.0,-82.0,125.0,127.0,127.0,-118.0,-84.0,98.0
124.0,129.0,134.0,152.0,121.0,122.0,67.0,88.0,-1.0,113.0,-82.0,125.0,127.0,127.0,-118.0,-84.0,98.0
124.0,129.0,135.0,152.0,121.0,122.0,68.0,88.0,-1.0,113.0,-82.0,125.0,127.0,127.0,-118.0,-84.0,98.0
124.0,129.0,134.0,130.0,124.0,124.0,95.0,101.0,-1.0,111.0,-81.0,125.0,127.0,127.0,-118.0,-84.0,98.0
124.0,129.0,135.0,129.0,124.0,124.0,96.0,102.0,-1.0,111.0,-81.0,125.0,127.0,127.0,-118.0,-84.0,98.0
124.0,129.0,135.0,128.0,124.0,124.0,96.0,102.0,-1.0,111.0,-81.0,125.0,127.0,127.0,-118.0,-84.0,98.0
124.0,129.0,135.0,134.0,124.0,123.0,91.0,100.0,-1.0,111.0,-81.0,125.0,127.0,127.0,-118.0,-84.0,98.0
124.0,129.0,134.0,134.0,124.0,123.0,91.0,100.0,-1.0,111.0,-81.0,125.0,127.0,127.0,-118.0,-84.0,98.0
124.0,129.0,134.0,133.0,124.0,124.0,92.0,101.0,-1.0,111.0,-81.0,125.0,127.0,127.0,-118.0,-84.0,98.0
124.0,129.0,134.0,133.0,124.0,124.0,93.0,101.0,-1.0,111.0,-81.0,125.0,127.0,127.0,-118.0,-84.0,98.0
124.0,129.0,135.0,132.0,124.0,123.0,94.0,101.0,-1.0,111.0,-81.0,125.0,127.0,127.0,-118.0,-84.0,98.0
124.0,129.0,135.0,131.0,124.0,124.0,94.0,101.0,-1.0,111.0,-81.0,125.0,127.0,127.0,-118.0,-84.0,98.0
124.0,129.0,135.0,130.0,124.0,124.0,95.0,101.0,-1.0,111.0,-81.0,125.0,127.0,127.0,-118.0,-84.0,98.0
123.0,128.0,135.0,93.0,128.0,134.0,130.0,105.0,-1.0,109.0,-80.0,125.0,127.0,126.0,-118.0,-84.0,97.0
123.0,128.0,134.0,92.0,128.0,134.0,130.0,105.0,-1.0,109.0,-80.0,125.0,127.0,126.0,-118.0,-84.0,97.0
123.0,128.0,136.0,98.0,127.0,131.0,124.0,104.0,-1.0,109.0,-80.0,125.0,127.0,126.0,-118.0,-84.0,97.0
123.0,128.0,136.0,97.0,127.0,132.0,125.0,104.0,-1.0,109.0,-80.0,125.0,127.0,126.0,-118.0,-84.0,97.0
123.0,128.0,136.0,96.0,127.0,132.0,126.0,104.0,-1.0,109.0,-80.0,125.0,127.0,126.0,-118.0,-84.0,97.0
123.0,128.0,135.0,96.0,127.0,132.0,127.0,104.0,-1.0,109.0,-80.0,125.0,127.0,126.0,-118.0,-84.0,97.0
123.0,128.0,135.0,95.0,127.0,133.0,127.0,104.0,-1.0,109.0,-80.0,125.0,127.0,126.0,-118.0,-84.0,97.0
123.0,128.0,135.0,95.0,127.0,133.0,128.0,105.0,-1.0,109.0,-80.0,125.0,127.0,126.0,-118.0,-84.0,97.0
123.0,128.0,135.0,94.0,128.0,133.0,128.0,105.0,-1.0,109.0,-80.0,125.0,127.0,126.0,-118.0,-84.0,97.0
123.0,128.0,135.0,93.0,128.0,134.0,129.0,105.0,-1.0,109.0,-80.0,125.0,127.0,126.0,-118.0,-84.0,97.0
123.0,128.0,131.0,79.0,135.0,140.0,151.0,111.0,-1.0,108.0,-79.0,125.0,127.0,126.0,-118.0,-84.0,97.0
123.0,128.0,131.0,78.0,135.0,140.0,147.0,111.0,-1.0,108.0,-79.0,125.0,127.0,126.0,-118.0,-84.0,97.0
123.0,128.0,131.0,78.0,135.0,140.0,148.0,111.0,-1.0,108.0,-79.0,125.0,127.0,126.0,-118.0,-84.0,97.0
123.0,128.0,131.0,78.0,135.0,140.0,148.0,111.0,-1.0,108.0,-79.0,125.0,127.0,126.0,-118.0,-84.0,97.0
123.0,128.0,131.0,78.0,135.0,140.0,149.0,111.0,-1.0,108.0,-79.0,125.0,127.0,126.0,-118.0,-84.0,97.0
123.0,128.0,131.0,78.0,135.0,141.0,149.0,111.0,-1.0,108.0,-79.0,125.0,127.0,126.0,-118.0,-84.0,97.0
123.0,128.0,131.0,79.0,135.0,141.0,149.0,111.0,-1.0,108.0,-79.0,125.0,127.0,126.0,-118.0,-84.0,97.0
123.0,128.0,131.0,79.0,135.0,140.0,149.0,111.0,-1.0,108.0,-79.0,125.0,127.0,126.0,-118.0,-84.0,97.0
123.0,128.0,131.0,79.0,135.0,140.0,150.0,111.0,-1.0,108.0,-79.0,125.0,127.0,126.0,-118.0,-84.0,97.0
123.0,128.0,131.0,79.0,135.0,140.0,150.0,111.0,-1.0,108.0,-79.0,125.0,127.0,126.0,-118.0,-84.0,97.0
124.0,128.0,126.0,85.0,140.0,141.0,160.0,112.0,-1.0,108.0,-80.0,125.0,127.0,126.0,-118.0,-84.0,97.0
124.0,128.0,126.0,85.0,140.0,141.0,160.0,112.0,-1.0,108.0,-80.0,125.0,127.0,126.0,-118.0,-84.0,97.0
124.0,128.0,126.0,85.0,140.0,141.0,160.0,112.0,-1.0,108.0,-80.0,125.0,127.0,126.0,-118.0,-84.0,97.0
124.0,128.0,125.0,85.0,140.0,141.0,161.0,112.0,-1.0,108.0,-80.0,125.0,127.0,126.0,-118.0,-84.0,97.0
124.0,128.0,125.0,85.0,140.0,141.0,160.0,113.0,-1.0,108.0,-80.0,125.0,127.0,126.0,-118.0,-84.0,97.0
124.0,128.0,125.0,86.0,140.0,142.0,160.0,113.0,-1.0,108.0,-80.0,125.0,127.0,126.0,-118.0,-84.0,97.0
124.0,128.0,125.0,86.0,141.0,142.0,160.0,113.0,-1.0,108.0,-80.0,125.0,127.0,126.0,-118.0,-84.0,97.0
124.0,128.0,124.0,86.0,141.0,142.0,161.0,113.0,-1.0,108.0,-80.0,125.0,127.0,126.0,-118.0,-84.0,97.0
124.0,128.0,124.0,86.0,141.0,142.0,161.0,113.0,-1.0,108.0,-80.0,125.0,127.0,126.0,-118.0,-84.0,97.0
124.0,128.0,124.0,86.0,141.0,142.0,161.0,113.0,-1.0,108.0,-80.0,125.0,127.0,126.0,-118.0,-84.0,97.0
124.0,128.0,123.0,105.0,146.0,149.0,166.0,116.0,-1.0,108.0,-80.0,125.0,127.0,126.0,-118.0,-84.0,97.0
124.0,128.0,123.0,106.0,146.0,149.0,166.0,117.0,-1.0,108.0,-80.0,125.0,127.0,126.0,-118.0,-84.0,97.0
124.0,128.0,123.0,107.0,147.0,149.0,166.0,117.0,-1.0,108.0,-80.0,125.0,127.0,126.0,-118.0,-84.0,97.0
124.0,128.0,123.0,108.0,146.0,149.0,165.0,117.0,-1.0,108.0,-80.0,125.0,127.0,126.0,-118.0,-84.0,97.0
124.0,128.0,123.0,109.0,147.0,149.0,165.0,117.0,-1.0,108.0,-80.0,125.0,127.0,126.0,-118.0,-84.0,97.0
124.0,128.0,123.0,110.0,147.0,149.0,165.0,117.0,-1.0,108.0,-80.0,125.0,127.0,126.0,-118.0,-84.0,97.0
124.0,128.0,123.0,111.0,147.0,149.0,166.0,117.0,-1.0,108.0,-80.0,125.0,127.0,126.0,-118.0,-84.0,97.0
124.0,128.0,123.0,112.0,147.0,149.0,166.0,117.0,-1.0,108.0,-80.0,125.0,127.0,126.0,-118.0,-84.0,97.0
124.0,128.0,123.0,113.0,147.0,149.0,166.0,117.0,-1.0,108.0,-80.0,125.0,127.0,126.0,-118.0,-84.0,97.0
124.0,128.0,123.0,104.0,146.0,149.0,165.0,116.0,-1.0,108.0,-80.0,125.0,127.0,126.0,-118.0,-84.0,97.0
124.0,127.0,123.0,152.0,147.0,152.0,169.0,123.0,-1.0,108.0,-81.0,125.0,127.0,126.0,-118.0,-84.0,97.0
124.0,127.0,123.0,152.0,147.0,152.0,170.0,123.0,-1.0,108.0,-81.0,125.0,127.0,126.0,-118.0,-84.0,97.0
124.0,127.0,123.0,152.0,146.0,152.0,169.0,123.0,-1.0,108.0,-81.0,125.0,127.0,126.0,-118.0,-84.0,97.0
124.0,127.0,123.0,152.0,146.0,153.0,169.0,124.0,-1.0,108.0,-81.0,125.0,127.0,126.0,-118.0,-84.0,97.0
124.0,127.0,123.0,152.0,146.0,152.0,169.0,124.0,-1.0,108.0,-81.0,125.0,127.0,126.0,-118.0,-84.0,97.0
124.0,127.0,123.0,152.0,146.0,152.0,169.0,124.0,-1.0,108.0,-81.0,125.0,127.0,126.0,-118.0,-84.0,97.0
124.0,127.0,123.0,152.0,146.0,152.0,170.0,124.0,-1.0,108.0,-81.0,125.0,127.0,126.0,-118.0,-84.0,97.0
124.0,127.0,123.0,152.0,146.0,152.0,169.0,124.0,-1.0,108.0,-81.0,125.0,127.0,126.0,-118.0,-84.0,97.0
124.0,127.0,123.0,151.0,147.0,152.0,169.0,123.0,-1.0,108.0,-81.0,125.0,127.0,126.0,-118.0,-84.0,97.0
124.0,127.0,123.0,151.0,147.0,152.0,169.0,123.0,-1.0,108.0,-81.0,125.0,127.0,126.0,-118.0,-84.0,97.0
125.0,126.0,121.0,138.0,138.0,150.0,168.0,124.0,-1.0,107.0,-81.0,125.0,127.0,126.0,-118.0,-84.0,96.0
125.0,126.0,121.0,137.0,137.0,150.0,168.0,124.0,-1.0,107.0,-81.0,125.0,127.0,126.0,-118.0,-84.0,96.0
125.0,126.0,121.0,137.0,137.0,150.0,167.0,124.0,-1.0,107.0,-81.0,125.0,127.0,126.0,-118.0,-84.0,96.0
125.0,126.0,121.0,137.0,137.0,150.0,167.0,124.0,-1.0,107.0,-81.0,125.0,127.0,126.0,-118.0,-84.0,96.0
125.0,126.0,121.0,137.0,136.0,149.0,167.0,124.0,-1.0,107.0,-81.0,125.0,127.0,126.0,-118.0,-84.0,96.0
125.0,126.0,121.0,136.0,136.0,149.0,167.0,124.0,-1.0,107.0,-81.0,125.0,127.0,126.0,-118.0,-84.0,96.0
125.0,126.0,121.0,139.0,139.0,150.0,168.0,124.0,-1.0,107.0,-81.0,125.0,127.0,126.0,-118.0,-84.0,96.0
125.0,126.0,121.0,139.0,138.0,150.0,168.0,124.0,-1.0,107.0,-81.0,125.0,127.0,126.0,-118.0,-84.0,96.0
125.0,126.0,121.0,138.0,138.0,150.0,168.0,124.0,-1.0,107.0,-81.0,125.0,127.0,126.0,-118.0,-84.0,96.0
125.0,126.0,121.0,138.0,138.0,150.0,168.0,124.0,-1.0,107.0,-81.0,125.0,127.0,126.0,-118.0,-84.0,96.0
125.0,126.0,123.0,129.0,128.0,144.0,164.0,123.0,-1.0,106.0,-82.0,126.0,127.0,127.0,-118.0,-84.0,96.0
125.0,126.0,123.0,129.0,128.0,144.0,163.0,124.0,-1.0,106.0,-82.0,126.0,127.0,127.0,-118.0,-84.0,96.0
125.0,126.0,123.0,129.0,127.0,144.0,163.0,124.0,-1.0,106.0,-82.0,126.0,127.0,127.0,-118.0,-84.0,96.0
125.0,126.0,123.0,129.0,127.0,144.0,163.0,124.0,-1.0,106.0,-82.0,126.0,127.0,127.0,-118.0,-84.0,96.0
125.0,127.0,123.0,128.0,127.0,144.0,163.0,124.0,-1.0,106.0,-82.0,126.0,127.0,127.0,-118.0,-84.0,96.0
125.0,126.0,123.0,129.0,129.0,144.0,164.0,123.0,-1.0,106.0,-82.0,126.0,127.0,127.0,-118.0,-84.0,96.0
125.0,126.0,123.0,129.0,128.0,144.0,164.0,123.0,-1.0,106.0,-82.0,126.0,127.0,127.0,-118.0,-84.0,96.0
125.0,126.0,123.0,129.0,128.0,144.0,164.0,123.0,-1.0,106.0,-82.0,126.0,127.0,127.0,-118.0,-84.0,96.0
125.0,126.0,123.0,129.0,128.0,144.0,164.0,123.0,-1.0,106.0,-82.0,126.0,127.0,127.0,-118.0,-84.0,96.0
125.0,126.0,123.0,129.0,128.0,144.0,164.0,123.0,-1.0,106.0,-82.0,126.0,127.0,127.0,-118.0,-84.0,96.0
125.0,127.0,125.0,126.0,125.0,140.0,159.0,125.0,-1.0,106.0,-82.0,126.0,127.0,127.0,-118.0,-84.0,96.0
125.0,127.0,125.0,126.0,124.0,140.0,158.0,125.0,-1.0,106.0,-82.0,126.0,127.0,127.0,-118.0,-84.0,96.0
126.0,127.0,125.0,126.0,124.0,140.0,158.0,125.0,-1.0,106.0,-82.0,126.0,127.0,127.0,-118.0,-84.0,96.0
126.0,127.0,125.0,126.0,124.0,140.0,158.0,125.0,-1.0,106.0,-82.0,126.0,127.0,127.0,-118.0,-84.0,96.0
125.0,127.0,125.0,126.0,125.0,140.0,159.0,124.0,-1.0,106.0,-82.0,126.0,127.0,127.0,-118.0,-84.0,96.0
125.0,127.0,125.0,126.0,125.0,140.0,159.0,125.0,-1.0,106.0,-82.0,126.0,127.0,127.0,-118.0,-84.0,96.0
125.0,127.0,125.0,126.0,125.0,140.0,159.0,125.0,-1.0,106.0,-82.0,126.0,127.0,127.0,-118.0,-84.0,96.0
125.0,127.0,125.0,126.0,125.0,140.0,158.0,125.0,-1.0,106.0,-82.0,126.0,127.0,127.0,-118.0,-84.0,96.0
125.0,127.0,125.0,126.0,125.0,140.0,158.0,125.0,-1.0,106.0,-82.0,126.0,127.0,127.0,-118.0,-84.0,96.0
125.0,127.0,125.0,126.0,125.0,140.0,159.0,125.0,-1.0,106.0,-82.0,126.0,127.0,127.0,-118.0,-84.0,96.0
126.0,127.0,126.0,125.0,123.0,139.0,154.0,127.0,-1.0,106.0,-83.0,127.0,127.0,127.0,-118.0,-84.0,96.0
126.0,127.0,126.0,125.0,123.0,138.0,154.0,127.0,-1.0,106.0,-83.0,127.0,127.0,127.0,-118.0,-84.0,96.0
126.0,127.0,126.0,125.0,123.0,138.0,154.0,127.0,-1.0,106.0,-83.0,127.0,127.0,127.0,-118.0,-84.0,96.0
126.0,127.0,126.0,125.0,123.0,139.0,154.0,127.0,-1.0,106.0,-83.0,127.0,127.0,127.0,-118.0,-84.0,96.0
126.0,127.0,126.0,125.0,123.0,139.0,154.0,127.0,-1.0,106.0,-83.0,127.0,127.0,127.0,-118.0,-84.0,96.0
126.0,127.0,126.0,125.0,123.0,139.0,154.0,127.0,-1.0,106.0,-83.0,127.0,127.0,127.0,-118.0,-84.0,96.0
126.0,127.0,126.0,125.0,123.0,139.0,154.0,127.0,-1.0,106.0,-83.0,127.0,127.0,127.0,-118.0,-84.0,96.0
126.0,127.0,126.0,125.0,123.0,139.0,154.0,127.0,-1.0,106.0,-83.0,127.0,127.0,127.0,-118.0,-84.0,96.0
126.0,127.0,126.0,125.0,123.0,139.0,154.0,127.0,-1.0,106.0,-83.0,127.0,127.0,127.0,-118.0,-84.0,96.0
126.0,127.0,126.0,125.0,123.0,139.0,154.0,127.0,-1.0,106.0,-83.0,127.0,127.0,127.0,-118.0,-84.0,96.0
126.0,128.0,126.0,124.0,123.0,138.0,149.0,130.0,-1.0,106.0,-83.0,127.0,127.0,127.0,-118.0,-84.0,96.0
126.0,128.0,126.0,124.0,123.0,138.0,149.0,130.0,-1.0,106.0,-83.0,127.0,127.0,127.0,-118.0,-84.0,96.0
126.0,128.0,126.0,124.0,123.0,138.0,149.0,130.0,-1.0,106.0,-83.0,127.0,127.0,127.0,-118.0,-84.0,96.0
126.0,128.0,126.0,124.0,123.0,138.0,149.0,130.0,-1.0,106.0,-83.0,127.0,127.0,127.0,-118.0,-84.0,96.0
126.0,128.0,126.0,124.0,123.0,138.0,149.0,129.0,-1.0,106.0,-83.0,127.0,127.0,127.0,-118.0,-84.0,96.0
126.0,128.0,126.0,124.0,123.0,138.0,149.0,129.0,-1.0,106.0,-83.0,127.0,127.0,127.0,-118.0,-84.0,96.0
126.0,128.0,126.0,124.0,123.0,138.0,149.0,129.0,-1.0,106.0,-83.0,127.0,127.0,127.0,-118.0,-84.0,96.0
126.0,128.0,126.0,124.0,123.0,138.0,149.0,129.0,-1.0,106.0,-83.0,127.0,127.0,127.0,-118.0,-84.0,96.0
126.0,128.0,126.0,124.0,123.0,138.0,149.0,130.0,-1.0,106.0,-83.0,127.0,127.0,127.0,-118.0,-84.0,96.0
126.0,128.0,126.0,124.0,123.0,138.0,149.0,130.0,-1.0,106.0,-83.0,127.0,127.0,127.0,-118.0,-84.0,96.0
126.0,128.0,126.0,124.0,123.0,137.0,146.0,130.0,-1.0,106.0,-83.0,127.0,127.0,127.0,-118.0,-84.0,96.0
126.0,128.0,126.0,124.0,123.0,137.0,146.0,130.0,-1.0,106.0,-83.0,127.0,127.0,127.0,-118.0,-84.0,96.0
126.0,128.0,126.0,124.0,123.0,137.0,146.0,130.0,-1.0,106.0,-83.0,127.0,127.0,127.0,-118.0,-84.0,96.0
126.0,128.0,126.0,124.0,123.0,137.0,146.0,130.0,-1.0,106.0,-83.0,127.0,127.0,127.0,-118.0,-84.0,96.0
126.0,128.0,126.0,124.0,123.0,137.0,146.0,129.0,-1.0,106.0,-83.0,127.0,127.0,127.0,-118.0,-84.0,96.0
126.0,128.0,126.0,124.0,123.0,137.0,146.0,129.0,-1.0,106.0,-83.0,127.0,127.0,127.0,-118.0,-84.0,96.0
126.0,128.0,126.0,124.0,123.0,137.0,146.0,129.0,-1.0,106.0,-83.0,127.0,127.0,127.0,-118.0,-84.0,96.0
126.0,128.0,125.0,124.0,122.0,137.0,146.0,130.0,-1.0,106.0,-83.0,127.0,127.0,127.0,-118.0,-84.0,96.0
126.0,128.0,126.0,124.0,122.0,137.0,145.0,130.0,-1.0,106.0,-83.0,127.0,127.0,127.0,-118.0,-84.0,96.0
126.0,128.0,126.0,124.0,123.0,137.0,145.0,130.0,-1.0,106.0,-83.0,127.0,127.0,127.0,-118.0,-84.0,96.0
126.0,128.0,126.0,124.0,123.0,136.0,143.0,129.0,-1.0,106.0,-82.0,127.0,127.0,127.0,-118.0,-84.0,96.0
126.0,128.0,126.0,124.0,123.0,136.0,143.0,129.0,-1.0,106.0,-82.0,127.0,127.0,127.0,-118.0,-84.0,96.0
126.0,128.0,126.0,124.0,123.0,136.0,143.0,129.0,-1.0,106.0,-82.0,127.0,127.0,127.0,-118.0,-84.0,96.0
126.0,128.0,126.0,124.0,123.0,136.0,143.0,129.0,-1.0,106.0,-82.0,127.0,127.0,127.0,-118.0,-84.0,96.0
126.0,128.0,126.0,124.0,123.0,136.0,143.0,129.0,-1.0,106.0,-82.0,127.0,127.0,127.0,-118.0,-84.0,96.0
126.0,128.0,126.0,124.0,123.0,136.0,143.0,129.0,-1.0,106.0,-82.0,127.0,127.0,127.0,-118.0,-84.0,96.0
126.0,128.0,126.0,124.0,123.0,136.0,143.0,129.0,-1.0,106.0,-82.0,127.0,127.0,127.0,-118.0,-84.0,96.0
126.0,128.0,126.0,124.0,123.0,136.0,143.0,129.0,-1.0,106.0,-82.0,127.0,127.0,127.0,-118.0,-84.0,96.0
126.0,128.0,126.0,124.0,123.0,136.0,143.0,129.0,-1.0,106.0,-82.0,127.0,127.0,127.0,-118.0,-84.0,96.0
126.0,128.0,126.0,124.0,123.0,136.0,143.0,129.0,-1.0,106.0,-82.0,127.0,127.0,127.0,-118.0,-84.0,96.0
126.0,127.0,127.0,124.0,123.0,136.0,140.0,129.0,-1.0,106.0,-82.0,127.0,127.0,127.0,-117.0,-84.0,96.0
126.0,127.0,127.0,124.0,124.0,135.0,140.0,128.0,-1.0,106.0,-82.0,127.0,127.0,127.0,-117.0,-84.0,96.0
126.0,127.0,127.0,124.0,124.0,135.0,140.0,128.0,-1.0,106.0,-82.0,127.0,127.0,127.0,-117.0,-84.0,96.0
126.0,127.0,127.0,124.0,124.0,135.0,140.0,128.0,-1.0,106.0,-82.0,127.0,127.0,127.0,-117.0,-84.0,96.0
126.0,127.0,127.0,124.0,124.0,135.0,140.0,128.0,-1.0,106.0,-82.0,127.0,127.0,127.0,-117.0,-84.0,96.0
126.0,127.0,127.0,124.0,123.0,135.0,140.0,128.0,-1.0,106.0,-82.0,127.0,127.0,127.0,-117.0,-84.0,96.0
126.0,128.0,126.0,124.0,123.0,136.0,140.0,129.0,-1.0,106.0,-82.0,127.0,127.0,127.0,-117.0,-84.0,96.0
126.0,128.0,127.0,124.0,123.0,135.0,140.0,129.0,-1.0,106.0,-82.0,127.0,127.0,127.0,-117.0,-84.0,96.0
126.0,128.0,127.0,124.0,123.0,135.0,140.0,128.0,-1.0,106.0,-82.0,127.0,127.0,127.0,-117.0,-84.0,96.0
126.0,128.0,126.0,124.0,123.0,135.0,140.0,128.0,-1.0,106.0,-82.0,127.0,127.0,127.0,-117.0,-84.0,96.0
126.0,127.0,127.0,124.0,124.0,135.0,138.0,128.0,-1.0,106.0,-82.0,127.0,127.0,127.0,-117.0,-84.0,96.0
126.0,127.0,127.0,124.0,124.0,135.0,138.0,128.0,-1.0,106.0,-82.0,127.0,127.0,127.0,-117.0,-84.0,96.0
126.0,127.0,127.0,124.0,124.0,135.0,138.0,128.0,-1.0,106.0,-82.0,127.0,127.0,127.0,-117.0,-84.0,96.0
126.0,128.0,127.0,124.0,124.0,135.0,138.0,128.0,-1.0,106.0,-82.0,127.0,127.0,127.0,-117.0,-84.0,96.0
126.0,127.0,127.0,124.0,124.0,135.0,138.0,128.0,-1.0,106.0,-82.0,127.0,127.0,127.0,-117.0,-84.0,96.0
126.0,128.0,126.0,124.0,124.0,135.0,138.0,128.0,-1.0,106.0,-82.0,127.0,127.0,127.0,-117.0,-84.0,96.0
126.0,128.0,127.0,124.0,124.0,135.0,138.0,128.0,-1.0,106.0,-82.0,127.0,127.0,127.0,-117.0,-84.0,96.0
126.0,128.0,127.0,124.0,124.0,135.0,138.0,128.0,-1.0,106.0,-82.0,127.0,127.0,127.0,-117.0,-84.0,96.0
126.0,127.0,127.0,124.0,124.0,135.0,138.0,128.0,-1.0,106.0,-82.0,127.0,127.0,127.0,-117.0,-84.0,96.0
126.0,127.0,127.0,124.0,124.0,135.0,138.0,128.0,-1.0,106.0,-82.0,127.0,127.0,127.0,-117.0,-84.0,96.0
126.0,127.0,127.0,123.0,124.0,134.0,138.0,128.0,-1.0,107.0,-82.0,127.0,127.0,127.0,-117.0,-84.0,96.0
126.0,127.0,127.0,123.0,124.0,134.0,138.0,128.0,-1.0,107.0,-82.0,127.0,127.0,127.0,-117.0,-84.0,96.0
126.0,127.0,127.0,123.0,124.0,134.0,138.0,128.0,-1.0,107.0,-82.0,127.0,127.0,127.0,-117.0,-84.0,96.0
126.0,127.0,127.0,123.0,124.0,134.0,138.0,128.0,-1.0,107.0,-82.0,127.0,127.0,127.0,-117.0,-84.0,96.0
126.0,128.0,127.0,124.0,124.0,134.0,137.0,128.0,-1.0,107.0,-82.0,127.0,127.0,127.0,-117.0,-84.0,96.0
126.0,128.0,127.0,123.0,124.0,134.0,137.0,128.0,-1.0,107.0,-82.0,127.0,127.0,127.0,-117.0,-84.0,96.0
126.0,128.0,127.0,124.0,124.0,134.0,137.0,128.0,-1.0,107.0,-82.0,127.0,127.0,127.0,-117.0,-84.0,96.0
126.0,127.0,127.0,123.0,124.0,134.0,138.0,128.0,-1.0,107.0,-82.0,127.0,127.0,127.0,-117.0,-84.0,96.0
126.0,127.0,127.0,124.0,124.0,134.0,137.0,128.0,-1.0,107.0,-82.0,127.0,127.0,127.0,-117.0,-84.0,96.0
126.0,127.0,127.0,124.0,124.0,134.0,138.0,128.0,-1.0,107.0,-82.0,127.0,127.0,127.0,-117.0,-84.0,96.0
126.0,127.0,127.0,123.0,124.0,133.0,136.0,128.0,-1.0,107.0,-82.0,127.0,127.0,127.0,-117.0,-84.0,96.0
126.0,127.0,127.0,123.0,124.0,134.0,136.0,128.0,-1.0,107.0,-82.0,127.0,127.0,127.0,-117.0,-84.0,96.0
126.0,127.0,127.0,123.0,124.0,134.0,136.0,128.0,-1.0,107.0,-82.0,127.0,127.0,127.0,-117.0,-84.0,96.0
126.0,127.0,127.0,123.0,124.0,134.0,136.0,128.0,-1.0,107.0,-82.0,127.0,127.0,127.0,-117.0,-84.0,96.0
126.0,127.0,127.0,124.0,124.0,134.0,136.0,128.0,-1.0,107.0,-82.0,127.0,127.0,127.0,-117.0,-84.0,96.0
126.0,128.0,127.0,124.0,124.0,134.0,136.0,128.0,-1.0,107.0,-82.0,127.0,127.0,127.0,-117.0,-84.0,96.0
126.0,127.0,127.0,124.0,124.0,133.0,136.0,128.0,-1.0,107.0,-82.0,127.0,127.0,127.0,-117.0,-84.0,96.0
126.0,127.0,127.0,124.0,124.0,134.0,136.0,128.0,-1.0,107.0,-82.0,127.0,127.0,127.0,-117.0,-84.0,96.0
126.0,127.0,127.0,124.0,124.0,134.0,136.0,128.0,-1.0,107.0,-82.0,127.0,127.0,127.0,-117.0,-84.0,96.0
126.0,127.0,127.0,124.0,124.0,134.0,136.0,128.0,-1.0,107.0,-82.0,127.0,127.0,127.0,-117.0,-84.0,96.0
126.0,127.0,127.0,124.0,125.0,133.0,135.0,128.0,-1.0,107.0,-82.0,127.0,127.0,127.0,-117.0,-84.0,96.0
126.0,127.0,127.0,124.0,125.0,133.0,135.0,127.0,-1.0,107.0,-82.0,127.0,127.0,127.0,-117.0,-84.0,96.0
126.0,127.0,127.0,123.0,125.0,133.0,135.0,127.0,-1.0,107.0,-82.0,127.0,127.0,127.0,-117.0,-84.0,96.0
126.0,127.0,127.0,123.0,125.0,133.0,135.0,127.0,-1.0,107.0,-82.0,127.0,127.0,127.0,-117.0,-84.0,96.0
126.0,127.0,127.0,123.0,125.0,133.0,135.0,127.0,-1.0,107.0,-82.0,127.0,127.0,127.0,-117.0,-84.0,96.0
126.0,127.0,127.0,124.0,125.0,133.0,135.0,128.0,-1.0,107.0,-82.0,127.0,127.0,127.0,-117.0,-84.0,96.0
126.0,127.0,127.0,124.0,125.0,133.0,135.0,128.0,-1.0,107.0,-82.0,127.0,127.0,127.0,-117.0,-84.0,96.0
126.0,127.0,127.0,124.0,125.0,133.0,135.0,128.0,-1.0,107.0,-82.0,127.0,127.0,127.0,-117.0,-84.0,96.0
126.0,127.0,127.0,124.0,125.0,133.0,135.0,128.0,-1.0,107.0,-82.0,127.0,127.0,127.0,-117.0,-84.0,96.0
126.0,127.0,127.0,124.0,125.0,133.0,135.0,127.0,-1.0,107.0,-82.0,127.0,127.0,127.0,-117.0,-84.0,96.0
126.0,127.0,127.0,124.0,125.0,133.0,132.0,129.0,-1.0,108.0,-82.0,127.0,127.0,127.0,-117.0,-84.0,96.0
126.0,127.0,127.0,124.0,125.0,133.0,132.0,129.0,-1.0,108.0,-82.0,127.0,127.0,127.0,-117.0,-84.0,96.0
126.0,127.0,127.0,124.0,125.0,133.0,132.0,129.0,-1.0,108.0,-82.0,127.0,127.0,127.0,-117.0,-84.0,96.0
126.0,127.0,127.0,124.0,125.0,133.0,132.0,129.0,-1.0,108.0,-82.0,127.0,127.0,127.0,-117.0,-84.0,96.0
126.0,127.0,127.0,124.0,125.0,133.0,133.0,129.0,-1.0,108.0,-82.0,127.0,127.0,127.0,-117.0,-84.0,96.0
126.0,127.0,127.0,124.0,125.0,133.0,133.0,129.0,-1.0,108.0,-82.0,127.0,127.0,127.0,-117.0,-84.0,96.0
126.0,127.0,127.0,124.0,125.0,133.0,133.0,129.0,-1.0,108.0,-82.0,127.0,127.0,127.0,-117.0,-84.0,96.0
126.0,127.0,127.0,124.0,125.0,133.0,133.0,129.0,-1.0,108.0,-82.0,127.0,127.0,127.0,-117.0,-84.0,96.0
126.0,127.0,126.0,124.0,125.0,133.0,132.0,129.0,-1.0,108.0,-82.0,127.0,127.0,127.0,-117.0,-84.0,96.0
126.0,127.0,126.0,124.0,125.0,133.0,132.0,129.0,-1.0,108.0,-82.0,127.0,127.0,127.0,-117.0,-84.0,96.0
126.0,127.0,127.0,124.0,125.0,134.0,132.0,129.0,-1.0,108.0,-82.0,127.0,127.0,127.0,-117.0,-84.0,96.0
127.0,127.0,127.0,124.0,125.0,133.0,132.0,129.0,-1.0,108.0,-82.0,127.0,127.0,127.0,-117.0,-84.0,96.0
126.0,127.0,127.0,124.0,125.0,133.0,132.0,129.0,-1.0,108.0,-82.0,127.0,127.0,127.0,-117.0,-84.0,96.0
126.0,127.0,127.0,124.0,125.0,134.0,132.0,129.0,-1.0,108.0,-82.0,127.0,127.0,127.0,-117.0,-84.0,96.0
126.0,127.0,127.0,124.0,125.0,134.0,132.0,129.0,-1.0,108.0,-82.0,127.0,127.0,127.0,-117.0,-84.0,96.0
126.0,127.0,127.0,124.0,125.0,134.0,132.0,129.0,-1.0,108.0,-82.0,127.0,127.0,127.0,-117.0,-84.0,96.0
126.0,127.0,127.0,124.0,125.0,133.0,132.0,129.0,-1.0,108.0,-82.0,127.0,127.0,127.0,-117.0,-84.0,96.0
126.0,127.0,127.0,124.0,125.0,134.0,132.0,129.0,-1.0,108.0,-82.0,127.0,127.0,127.0,-117.0,-84.0,96.0
126.0,127.0,127.0,124.0,125.0,134.0,132.0,129.0,-1.0,108.0,-82.0,127.0,127.0,127.0,-117.0,-84.0,96.0
126.0,127.0,127.0,124.0,125.0,134.0,132.0,129.0,-1.0,108.0,-82.0,127.0,127.0,127.0,-117.0,-84.0,96.0
126.0,127.0,126.0,124.0,125.0,133.0,131.0,128.0,-1.0,109.0,-82.0,127.0,127.0,127.0,-117.0,-84.0,96.0
126.0,127.0,126.0,124.0,125.0,133.0,131.0,128.0,-1.0,109.0,-82.0,127.0,127.0,127.0,-117.0,-84.0,96.0
126.0,127.0,127.0,124.0,125.0,133.0,131.0,129.0,-1.0,109.0,-82.0,127.0,127.0,127.0,-117.0,-84.0,96.0
126.0,127.0,127.0,124.0,125.0,133.0,131.0,128.0,-1.0,109.0,-82.0,127.0,127.0,127.0,-117.0,-84.0,96.0
126.0,127.0,127.0,124.0,125.0,133.0,131.0,128.0,-1.0,109.0,-82.0,127.0,127.0,127.0,-117.0,-84.0,96.0
126.0,127.0,127.0,124.0,125.0,133.0,131.0,128.0,-1.0,109.0,-82.0,127.0,127.0,127.0,-117.0,-84.0,96.0
126.0,127.0,126.0,124.0,125.0,133.0,131.0,128.0,-1.0,109.0,-82.0,127.0,127.0,127.0,-117.0,-84.0,96.0
126.0,127.0,126.0,124.0,125.0,133.0,130.0,129.0,-1.0,109.0,-82.0,127.0,127.0,127.0,-117.0,-84.0,96.0
126.0,127.0,126.0,124.0,125.0,133.0,130.0,129.0,-1.0,109.0,-82.0,127.0,127.0,127.0,-117.0,-84.0,96.0
126.0,127.0,126.0,124.0,125.0,133.0,131.0,129.0,-1.0,109.0,-82.0,127.0,127.0,127.0,-117.0,-84.0,96.0
126.0,127.0,127.0,124.0,125.0,132.0,131.0,128.0,-1.0,109.0,-82.0,127.0,127.0,127.0,-117.0,-84.0,96.0
126.0,127.0,127.0,124.0,125.0,133.0,131.0,128.0,-1.0,109.0,-82.0,127.0,127.0,127.0,-117.0,-84.0,96.0
126.0,127.0,127.0,124.0,126.0,132.0,131.0,128.0,-1.0,109.0,-82.0,127.0,127.0,127.0,-117.0,-84.0,96.0
126.0,127.0,127.0,124.0,126.0,132.0,131.0,128.0,-1.0,109.0,-82.0,127.0,127.0,127.0,-117.0,-84.0,96.0
126.0,127.0,127.0,124.0,126.0,132.0,131.0,128.0,-1.0,109.0,-82.0,127.0,127.0,127.0,-117.0,-84.0,96.0
126.0,127.0,127.0,124.0,125.0,132.0,131.0,128.0,-1.0,109.0,-82.0,127.0,127.0,127.0,-117.0,-84.0,96.0
126.0,127.0,127.0,124.0,125.0,133.0,131.0,129.0,-1.0,109.0,-82.0,127.0,127.0,127.0,-117.0,-84.0,96.0
126.0,127.0,127.0,124.0,125.0,133.0,131.0,129.0,-1.0,109.0,-82.0,127.0,127.0,127.0,-117.0,-84.0,96.0
126.0,127.0,127.0,124.0,125.0,133.0,131.0,129.0,-1.0,109.0,-82.0,127.0,127.0,127.0,-117.0,-84.0,96.0
126.0,127.0,127.0,124.0,125.0,132.0,131.0,129.0,-1.0,109.0,-82.0,127.0,127.0,127.0,-117.0,-84.0,96.0
126.0,127.0,126.0,124.0,125.0,132.0,130.0,129.0,-1.0,109.0,-83.0,127.0,127.0,127.0,-117.0,-84.0,96.0
126.0,127.0,126.0,124.0,126.0,132.0,130.0,128.0,-1.0,109.0,-83.0,127.0,127.0,127.0,-117.0,-84.0,96.0
126.0,127.0,127.0,124.0,126.0,132.0,130.0,128.0,-1.0,109.0,-83.0,127.0,127.0,127.0,-117.0,-84.0,96.0
126.0,127.0,126.0,124.0,126.0,132.0,130.0,128.0,-1.0,109.0,-83.0,127.0,127.0,127.0,-117.0,-84.0,96.0
126.0,127.0,126.0,124.0,125.0,132.0,130.0,128.0,-1.0,109.0,-83.0,127.0,127.0,127.0,-117.0,-84.0,96.0
126.0,127.0,126.0,124.0,125.0,132.0,130.0,128.0,-1.0,109.0,-83.0,127.0,127.0,127.0,-117.0,-84.0,96.0
126.0,127.0,126.0,124.0,125.0,132.0,130.0,129.0,-1.0,109.0,-83.0,127.0,127.0,127.0,-117.0,-84.0,96.0
126.0,127.0,126.0,124.0,125.0,132.0,130.0,128.0,-1.0,109.0,-83.0,127.0,127.0,127.0,-117.0,-84.0,96.0
126.0,127.0,126.0,124.0,126.0,132.0,130.0,128.0,-1.0,109.0,-83.0,127.0,127.0,127.0,-117.0,-84.0,96.0
126.0,127.0,126.0,124.0,126.0,132.0,130.0,128.0,-1.0,109.0,-83.0,127.0,127.0,127.0,-117.0,-84.0,96.0
126.0,127.0,127.0,124.0,126.0,132.0,130.0,129.0,-1.0,109.0,-83.0,127.0,127.0,127.0,-117.0,-84.0,96.0
126.0,127.0,127.0,124.0,126.0,132.0,130.0,129.0,-1.0,109.0,-83.0,127.0,127.0,127.0,-117.0,-84.0,96.0
126.0,127.0,127.0,124.0,126.0,132.0,130.0,129.0,-1.0,109.0,-83.0,127.0,127.0,127.0,-117.0,-84.0,96.0
126.0,127.0,127.0,124.0,126.0,132.0,130.0,129.0,-1.0,109.0,-83.0,127.0,127.0,127.0,-117.0,-84.0,96.0
126.0,127.0,127.0,124.0,126.0,133.0,129.0,129.0,-1.0,109.0,-83.0,127.0,127.0,127.0,-117.0,-84.0,96.0
126.0,127.0,127.0,124.0,126.0,133.0,129.0,129.0,-1.0,109.0,-83.0,127.0,127.0,127.0,-117.0,-84.0,96.0
126.0,127.0,127.0,124.0,126.0,132.0,130.0,129.0,-1.0,109.0,-83.0,127.0,127.0,127.0,-117.0,-84.0,96.0
126.0,127.0,127.0,124.0,126.0,132.0,130.0,129.0,-1.0,109.0,-83.0,127.0,127.0,127.0,-117.0,-84.0,96.0
126.0,127.0,127.0,124.0,126.0,132.0,130.0,129.0,-1.0,109.0,-83.0,127.0,127.0,127.0,-117.0,-84.0,96.0
126.0,127.0,127.0,124.0,126.0,133.0,129.0,129.0,-1.0,109.0,-83.0,127.0,127.0,127.0,-117.0,-84.0,96.0
127.0,127.0,127.0,124.0,126.0,132.0,129.0,129.0,-1.0,109.0,-83.0,127.0,127.0,127.0,-117.0,-84.0,96.0
127.0,127.0,127.0,124.0,126.0,132.0,130.0,129.0,-1.0,109.0,-83.0,127.0,127.0,127.0,-117.0,-84.0,96.0
127.0,127.0,127.0,124.0,126.0,132.0,130.0,129.0,-1.0,109.0,-83.0,127.0,127.0,127.0,-117.0,-84.0,96.0
127.0,127.0,127.0,124.0,126.0,133.0,129.0,129.0,-1.0,109.0,-83.0,127.0,127.0,127.0,-117.0,-84.0,96.0
127.0,127.0,127.0,124.0,126.0,133.0,129.0,129.0,-1.0,109.0,-83.0,127.0,127.0,127.0,-117.0,-84.0,96.0
127.0,127.0,127.0,124.0,126.0,133.0,129.0,129.0,-1.0,109.0,-83.0,127.0,127.0,127.0,-117.0,-84.0,96.0
127.0,127.0,127.0,124.0,126.0,133.0,130.0,129.0,-1.0,109.0,-83.0,127.0,127.0,127.0,-117.0,-84.0,96.0
127.0,127.0,127.0,124.0,126.0,133.0,130.0,129.0,-1.0,109.0,-83.0,127.0,127.0,127.0,-117.0,-84.0,96.0
127.0,127.0,127.0,124.0,126.0,132.0,129.0,129.0,-1.0,109.0,-83.0,127.0,127.0,127.0,-117.0,-84.0,96.0
127.0,127.0,127.0,124.0,126.0,132.0,129.0,129.0,-1.0,109.0,-83.0,127.0,127.0,127.0,-117.0,-84.0,96.0
126.0,126.0,127.0,124.0,126.0,131.0,129.0,128.0,-1.0,109.0,-83.0,127.0,127.0,127.0,-117.0,-84.0,96.0
126.0,127.0,127.0,124.0,126.0,131.0,129.0,128.0,-1.0,109.0,-83.0,127.0,127.0,127.0,-117.0,-84.0,96.0
126.0,126.0,127.0,124.0,126.0,131.0,129.0,128.0,-1.0,109.0,-83.0,127.0,127.0,127.0,-117.0,-84.0,96.0
126.0,127.0,127.0,124.0,126.0,131.0,129.0,128.0,-1.0,109.0,-83.0,127.0,127.0,127.0,-117.0,-84.0,96.0
126.0,127.0,127.0,124.0,126.0,131.0,129.0,128.0,-1.0,109.0,-83.0,127.0,127.0,127.0,-117.0,-84.0,96.0
126.0,127.0,127.0,124.0,126.0,131.0,129.0,128.0,-1.0,109.0,-83.0,127.0,127.0,127.0,-117.0,-84.0,96.0
126.0,127.0,127.0,124.0,126.0,132.0,129.0,128.0,-1.0,109.0,-83.0,127.0,127.0,127.0,-117.0,-84.0,96.0
126.0,126.0,127.0,124.0,126.0,131.0,129.0,128.0,-1.0,109.0,-83.0,127.0,127.0,127.0,-117.0,-84.0,96.0
126.0,126.0,127.0,124.0,126.0,131.0,129.0,128.0,-1.0,109.0,-83.0,127.0,127.0,127.0,-117.0,-84.0,96.0
126.0,126.0,127.0,124.0,126.0,131.0,129.0,128.0,-1.0,109.0,-83.0,127.0,127.0,127.0,-117.0,-84.0,96.0
127.0,127.0,127.0,124.0,126.0,131.0,128.0,129.0,-1.0,109.0,-83.0,127.0,127.0,127.0,-117.0,-84.0,96.0
127.0,127.0,127.0,124.0,126.0,131.0,128.0,129.0,-1.0,109.0,-83.0,127.0,127.0,127.0,-117.0,-84.0,96.0
127.0,127.0,127.0,124.0,126.0,131.0,129.0,129.0,-1.0,109.0,-83.0,127.0,127.0,127.0,-117.0,-84.0,96.0
127.0,127.0,127.0,124.0,126.0,131.0,129.0,129.0,-1.0,109.0,-83.0,127.0,127.0,127.0,-117.0,-84.0,96.0
127.0,127.0,127.0,124.0,126.0,131.0,129.0,129.0,-1.0,109.0,-83.0,127.0,127.0,127.0,-117.0,-84.0,96.0
127.0,127.0,127.0,124.0,126.0,131.0,129.0,129.0,-1.0,109.0,-83.0,127.0,127.0,127.0,-117.0,-84.0,96.0
127.0,127.0,127.0,124.0,126.0,131.0,129.0,129.0,-1.0,109.0,-83.0,127.0,127.0,127.0,-117.0,-84.0,96.0
126.0,127.0,127.0,124.0,126.0,131.0,129.0,129.0,-1.0,109.0,-83.0,127.0,127.0,127.0,-117.0,-84.0,96.0
126.0,127.0,127.0,124.0,126.0,131.0,128.0,129.0,-1.0,109.0,-83.0,127.0,127.0,127.0,-117.0,-84.0,96.0
127.0,127.0,127.0,124.0,126.0,131.0,128.0,129.0,-1.0,109.0,-83.0,127.0,127.0,127.0,-117.0,-84.0,96.0
127.0,127.0,127.0,124.0,126.0,132.0,128.0,129.0,-1.0,109.0,-83.0,127.0,127.0,127.0,-117.0,-84.0,96.0
127.0,127.0,127.0,124.0,126.0,132.0,128.0,129.0,-1.0,109.0,-83.0,127.0,127.0,127.0,-117.0,-84.0,96.0
127.0,127.0,127.0,124.0,126.0,132.0,128.0,129.0,-1.0,109.0,-83.0,127.0,127.0,127.0,-117.0,-84.0,96.0
127.0,127.0,127.0,124.0,126.0,131.0,129.0,129.0,-1.0,109.0,-83.0,127.0,127.0,127.0,-117.0,-84.0,96.0
126.0,127.0,127.0,124.0,126.0,131.0,129.0,129.0,-1.0,109.0,-83.0,127.0,127.0,127.0,-117.0,-84.0,96.0
127.0,127.0,127.0,124.0,126.0,131.0,128.0,129.0,-1.0,109.0,-83.0,127.0,127.0,127.0,-117.0,-84.0,96.0
127.0,127.0,127.0,124.0,126.0,131.0,128.0,129.0,-1.0,109.0,-83.0,127.0,127.0,127.0,-117.0,-84.0,96.0
126.0,127.0,127.0,124.0,126.0,131.0,128.0,130.0,-1.0,109.0,-83.0,127.0,127.0,127.0,-117.0,-84.0,96.0
127.0,127.0,127.0,124.0,126.0,132.0,128.0,130.0,-1.0,109.0,-83.0,127.0,127.0,127.0,-117.0,-84.0,96.0
127.0,127.0,127.0,124.0,126.0,132.0,128.0,130.0,-1.0,109.0,-83.0,127.0,127.0,127.0,-117.0,-84.0,96.0
126.0,127.0,127.0,124.0,126.0,131.0,128.0,129.0,-1.0,109.0,-83.0,127.0,127.0,127.0,-117.0,-84.0,96.0
126.0,127.0,127.0,124.0,126.0,131.0,128.0,129.0,-1.0,109.0,-83.0,127.0,127.0,127.0,-117.0,-84.0,96.0
126.0,127.0,127.0,124.0,126.0,131.0,128.0,129.0,-1.0,109.0,-83.0,127.0,127.0,127.0,-117.0,-84.0,96.0
126.0,127.0,127.0,124.0,126.0,130.0,128.0,128.0,-1.0,109.0,-83.0,127.0,127.0,127.0,-117.0,-84.0,96.0
126.0,127.0,127.0,125.0,126.0,131.0,129.0,129.0,-1.0,109.0,-83.0,127.0,127.0,127.0,-117.0,-84.0,96.0
126.0,127.0,127.0,125.0,126.0,131.0,129.0,129.0,-1.0,109.0,-83.0,127.0,127.0,127.0,-117.0,-84.0,96.0
126.0,127.0,127.0,124.0,126.0,131.0,128.0,129.0,-1.0,109.0,-83.0,127.0,127.0,127.0,-117.0,-84.0,96.0
126.0,127.0,127.0,125.0,126.0,131.0,128.0,129.0,-1.0,109.0,-83.0,127.0,127.0,127.0,-117.0,-84.0,96.0
126.0,127.0,127.0,125.0,126.0,131.0,128.0,129.0,-1.0,109.0,-83.0,127.0,127.0,127.0,-117.0,-84.0,96.0
126.0,127.0,127.0,124.0,126.0,131.0,128.0,129.0,-1.0,109.0,-83.0,127.0,127.0,127.0,-117.0,-84.0,96.0
126.0,127.0,127.0,125.0,126.0,131.0,127.0,129.0,-1.0,109.0,-83.0,127.0,127.0,127.0,-117.0,-84.0,96.0
126.0,127.0,127.0,125.0,126.0,131.0,127.0,129.0,-1.0,109.0,-83.0,127.0,127.0,127.0,-117.0,-84.0,96.0
127.0,127.0,127.0,124.0,126.0,131.0,128.0,128.0,-1.0,109.0,-83.0,127.0,127.0,127.0,-117.0,-84.0,96.0
126.0,127.0,127.0,125.0,126.0,131.0,128.0,128.0,-1.0,109.0,-83.0,127.0,127.0,127.0,-117.0,-84.0,96.0
126.0,127.0,127.0,125.0,126.0,131.0,128.0,128.0,-1.0,109.0,-83.0,127.0,127.0,127.0,-117.0,-84.0,96.0
126.0,127.0,127.0,125.0,126.0,131.0,127.0,128.0,-1.0,109.0,-83.0,127.0,127.0,127.0,-117.0,-84.0,96.0
126.0,127.0,127.0,125.0,126.0,131.0,127.0,129.0,-1.0,109.0,-83.0,127.0,127.0,127.0,-117.0,-84.0,96.0
127.0,127.0,127.0,125.0,126.0,131.0,127.0,129.0,-1.0,109.0,-83.0,127.0,127.0,127.0,-117.0,-84.0,96.0
127.0,127.0,127.0,125.0,126.0,131.0,127.0,129.0,-1.0,109.0,-83.0,127.0,127.0,127.0,-117.0,-84.0,96.0
127.0,127.0,127.0,125.0,126.0,131.0,127.0,129.0,-1.0,109.0,-83.0,127.0,127.0,127.0,-117.0,-84.0,96.0
127.0,127.0,127.0,125.0,126.0,131.0,127.0,128.0,-1.0,109.0,-82.0,127.0,127.0,127.0,-117.0,-84.0,96.0
127.0,127.0,127.0,125.0,126.0,131.0,127.0,128.0,-1.0,109.0,-82.0,127.0,127.0,127.0,-117.0,-84.0,96.0
126.0,127.0,127.0,125.0,126.0,131.0,127.0,128.0,-1.0,109.0,-82.0,127.0,127.0,127.0,-117.0,-84.0,96.0
126.0,127.0,127.0,125.0,126.0,131.0,127.0,128.0,-1.0,109.0,-82.0,127.0,127.0,127.0,-117.0,-84.0,96.0
126.0,127.0,127.0,125.0,126.0,131.0,127.0,128.0,-1.0,109.0,-82.0,127.0,127.0,127.0,-117.0,-84.0,96.0
127.0,127.0,127.0,125.0,126.0,131.0,127.0,129.0,-1.0,109.0,-82.0,127.0,127.0,127.0,-117.0,-84.0,96.0
127.0,127.0,127.0,125.0,126.0,131.0,127.0,129.0,-1.0,109.0,-82.0,127.0,127.0,127.0,-117.0,-84.0,96.0
127.0,127.0,127.0,125.0,126.0,131.0,127.0,129.0,-1.0,109.0,-82.0,127.0,127.0,127.0,-117.0,-84.0,96.0
127.0,127.0,127.0,125.0,126.0,131.0,127.0,129.0,-1.0,109.0,-82.0,127.0,127.0,127.0,-117.0,-84.0,96.0
127.0,127.0,127.0,125.0,126.0,131.0,127.0,129.0,-1.0,109.0,-82.0,127.0,127.0,127.0,-117.0,-84.0,96.0
127.0,127.0,127.0,125.0,126.0,131.0,127.0,128.0,-1.0,109.0,-82.0,127.0,127.0,127.0,-117.0,-84.0,96.0
127.0,127.0,127.0,125.0,126.0,131.0,127.0,129.0,-1.0,109.0,-82.0,127.0,127.0,127.0,-117.0,-84.0,96.0
126.0,127.0,127.0,125.0,126.0,131.0,127.0,128.0,-1.0,109.0,-82.0,127.0,127.0,127.0,-117.0,-84.0,96.0
127.0,127.0,127.0,125.0,126.0,131.0,127.0,128.0,-1.0,109.0,-82.0,127.0,127.0,127.0,-117.0,-84.0,96.0
127.0,127.0,127.0,125.0,126.0,131.0,127.0,129.0,-1.0,109.0,-82.0,127.0,127.0,127.0,-117.0,-84.0,96.0
127.0,127.0,127.0,125.0,126.0,131.0,127.0,129.0,-1.0,109.0,-82.0,127.0,127.0,127.0,-117.0,-84.0,96.0
127.0,127.0,127.0,125.0,126.0,131.0,127.0,129.0,-1.0,109.0,-82.0,127.0,127.0,127.0,-117.0,-84.0,96.0
127.0,127.0,127.0,125.0,126.0,131.0,127.0,129.0,-1.0,109.0,-82.0,127.0,127.0,127.0,-117.0,-84.0,96.0
127.0,127.0,127.0,125.0,126.0,131.0,127.0,129.0,-1.0,109.0,-82.0,127.0,127.0,127.0,-117.0,-84.0,96.0
127.0,127.0,127.0,125.0,126.0,131.0,127.0,129.0,-1.0,109.0,-82.0,127.0,127.0,127.0,-117.0,-84.0,96.0
126.0,127.0,127.0,125.0,126.0,131.0,127.0,128.0,-1.0,108.0,-82.0,127.0,127.0,127.0,-117.0,-84.0,96.0
126.0,127.0,127.0,125.0,126.0,131.0,127.0,128.0,-1.0,108.0,-82.0,127.0,127.0,127.0,-117.0,-84.0,96.0
126.0,127.0,127.0,125.0,126.0,131.0,127.0,128.0,-1.0,108.0,-82.0,127.0,127.0,127.0,-117.0,-84.0,96.0
126.0,127.0,127.0,125.0,126.0,131.0,127.0,129.0,-1.0,108.0,-82.0,127.0,127.0,127.0,-117.0,-84.0,96.0
126.0,127.0,127.0,125.0,126.0,132.0,127.0,129.0,-1.0,108.0,-82.0,127.0,127.0,127.0,-117.0,-84.0,96.0
126.0,127.0,127.0,125.0,126.0,132.0,127.0,129.0,-1.0,108.0,-82.0,127.0,127.0,127.0,-117.0,-84.0,96.0
126.0,127.0,127.0,125.0,126.0,132.0,127.0,129.0,-1.0,108.0,-82.0,127.0,127.0,127.0,-117.0,-84.0,96.0
126.0,127.0,127.0,125.0,126.0,131.0,127.0,129.0,-1.0,108.0,-82.0,127.0,127.0,127.0,-117.0,-84.0,96.0
126.0,127.0,127.0,125.0,126.0,132.0,127.0,129.0,-1.0,108.0,-82.0,127.0,127.0,127.0,-117.0,-84.0,96.0
126.0,127.0,127.0,125.0,126.0,131.0,127.0,129.0,-1.0,108.0,-82.0,127.0,127.0,127.0,-117.0,-84.0,96.0
126.0,127.0,127.0,125.0,127.0,129.0,127.0,128.0,-1.0,108.0,-82.0,127.0,127.0,127.0,-117.0,-84.0,96.0
126.0,127.0,127.0,125.0,127.0,130.0,128.0,128.0,-1.0,108.0,-82.0,127.0,127.0,127.0,-117.0,-84.0,96.0
126.0,127.0,127.0,125.0,127.0,130.0,128.0,128.0,-1.0,108.0,-82.0,127.0,127.0,127.0,-117.0,-84.0,96.0
126.0,127.0,127.0,124.0,127.0,129.0,128.0,128.0,-1.0,108.0,-82.0,127.0,127.0,127.0,-117.0,-84.0,96.0
126.0,127.0,127.0,125.0,127.0,130.0,128.0,128.0,-1.0,108.0,-82.0,127.0,127.0,127.0,-117.0,-84.0,96.0
126.0,127.0,127.0,124.0,126.0,130.0,128.0,128.0,-1.0,108.0,-82.0,127.0,127.0,127.0,-117.0,-84.0,96.0
126.0,127.0,127.0,125.0,126.0,130.0,127.0,129.0,-1.0,108.0,-82.0,127.0,127.0,127.0,-117.0,-84.0,96.0
126.0,127.0,127.0,125.0,126.0,130.0,127.0,129.0,-1.0,108.0,-82.0,127.0,127.0,127.0,-117.0,-84.0,96.0
126.0,127.0,127.0,125.0,126.0,130.0,128.0,129.0,-1.0,108.0,-82.0,127.0,127.0,127.0,-117.0,-84.0,96.0
126.0,127.0,127.0,125.0,127.0,129.0,127.0,128.0,-1.0,108.0,-82.0,127.0,127.0,127.0,-117.0,-84.0,96.0
127.0,127.0,127.0,125.0,126.0,131.0,126.0,129.0,-1.0,108.0,-82.0,127.0,127.0,127.0,-117.0,-84.0,96.0
127.0,127.0,127.0,125.0,126.0,131.0,126.0,129.0,-1.0,108.0,-82.0,127.0,127.0,127.0,-117.0,-84.0,96.0
126.0,127.0,127.0,125.0,126.0,131.0,126.0,129.0,-1.0,108.0,-82.0,127.0,127.0,127.0,-117.0,-84.0,96.0
126.0,127.0,127.0,125.0,126.0,131.0,126.0,129.0,-1.0,108.0,-82.0,127.0,127.0,127.0,-117.0,-84.0,96.0
127.0,127.0,127.0,125.0,126.0,131.0,127.0,129.0,-1.0,108.0,-82.0,127.0,127.0,127.0,-117.0,-84.0,96.0
126.0,127.0,127.0,125.0,126.0,130.0,127.0,129.0,-1.0,108.0,-82.0,127.0,127.0,127.0,-117.0,-84.0,96.0
126.0,127.0,127.0,125.0,126.0,130.0,127.0,129.0,-1.0,108.0,-82.0,127.0,127.0,127.0,-117.0,-84.0,96.0
127.0,127.0,127.0,124.0,126.0,130.0,127.0,129.0,-1.0,108.0,-82.0,127.0,127.0,127.0,-117.0,-84.0,96.0
126.0,127.0,127.0,125.0,126.0,130.0,126.0,129.0,-1.0,108.0,-82.0,127.0,127.0,127.0,-117.0,-84.0,96.0
126.0,127.0,127.0,125.0,126.0,131.0,126.0,129.0,-1.0,108.0,-82.0,127.0,127.0,127.0,-117.0,-84.0,96.0
127.0,127.0,127.0,125.0,126.0,131.0,126.0,129.0,-1.0,108.0,-82.0,127.0,127.0,127.0,-117.0,-84.0,96.0
127.0,127.0,127.0,125.0,126.0,131.0,125.0,130.0,-1.0,108.0,-82.0,127.0,127.0,127.0,-117.0,-84.0,96.0
127.0,127.0,127.0,125.0,126.0,131.0,125.0,130.0,-1.0,108.0,-82.0,127.0,127.0,127.0,-117.0,-84.0,96.0
126.0,127.0,127.0,125.0,126.0,131.0,126.0,129.0,-1.0,108.0,-82.0,127.0,127.0,127.0,-117.0,-84.0,96.0
127.0,128.0,127.0,125.0,126.0,131.0,125.0,130.0,-1.0,108.0,-82.0,127.0,127.0,127.0,-117.0,-84.0,96.0
127.0,128.0,127.0,125.0,126.0,131.0,125.0,130.0,-1.0,108.0,-82.0,127.0,127.0,127.0,-117.0,-84.0,96.0
127.0,128.0,127.0,125.0,126.0,131.0,126.0,130.0,-1.0,108.0,-82.0,127.0,127.0,127.0,-117.0,-84.0,96.0
126.0,127.0,127.0,125.0,126.0,130.0,126.0,129.0,-1.0,108.0,-82.0,127.0,127.0,127.0,-117.0,-84.0,96.0
127.0,127.0,127.0,125.0,126.0,131.0,126.0,129.0,-1.0,108.0,-82.0,127.0,127.0,127.0,-117.0,-84.0,96.0
127.0,127.0,127.0,125.0,126.0,131.0,126.0,129.0,-1.0,108.0,-82.0,127.0,127.0,127.0,-117.0,-84.0,96.0
127.0,128.0,127.0,125.0,127.0,130.0,127.0,129.0,-1.0,108.0,-82.0,127.0,127.0,127.0,-117.0,-84.0,96.0
127.0,128.0,127.0,125.0,127.0,130.0,127.0,129.0,-1.0,108.0,-82.0,127.0,127.0,127.0,-117.0,-84.0,96.0
127.0,128.0,127.0,125.0,127.0,130.0,127.0,129.0,-1.0,108.0,-82.0,127.0,127.0,127.0,-117.0,-84.0,96.0
127.0,128.0,127.0,125.0,126.0,130.0,127.0,129.0,-1.0,108.0,-82.0,127.0,127.0,127.0,-117.0,-84.0,96.0
127.0,128.0,127.0,125.0,126.0,131.0,127.0,129.0,-1.0,108.0,-82.0,127.0,127.0,127.0,-117.0,-84.0,96.0
127.0,128.0,127.0,125.0,126.0,130.0,127.0,129.0,-1.0,108.0,-82.0,127.0,127.0,127.0,-117.0,-84.0,96.0
126.0,127.0,127.0,125.0,127.0,130.0,127.0,128.0,-1.0,108.0,-82.0,127.0,127.0,127.0,-117.0,-84.0,96.0
127.0,128.0,127.0,125.0,126.0,130.0,127.0,129.0,-1.0,108.0,-82.0,127.0,127.0,127.0,-117.0,-84.0,96.0
127.0,128.0,127.0,125.0,127.0,130.0,127.0,129.0,-1.0,108.0,-82.0,127.0,127.0,127.0,-117.0,-84.0,96.0
127.0,128.0,127.0,125.0,127.0,130.0,127.0,129.0,-1.0,108.0,-82.0,127.0,127.0,127.0,-117.0,-84.0,96.0
126.0,127.0,127.0,125.0,126.0,129.0,126.0,128.0,-1.0,108.0,-82.0,127.0,127.0,127.0,-117.0,-84.0,96.0
126.0,127.0,127.0,125.0,126.0,130.0,126.0,128.0,-1.0,108.0,-82.0,127.0,127.0,127.0,-117.0,-84.0,96.0
126.0,127.0,126.0,125.0,126.0,130.0,126.0,129.0,-1.0,108.0,-82.0,127.0,127.0,127.0,-117.0,-84.0,96.0
127.0,127.0,126.0,125.0,126.0,130.0,126.0,129.0,-1.0,108.0,-82.0,127.0,127.0,127.0,-117.0,-84.0,96.0
127.0,127.0,126.0,125.0,126.0,130.0,126.0,129.0,-1.0,108.0,-82.0,127.0,127.0,127.0,-117.0,-84.0,96.0
126.0,127.0,127.0,125.0,126.0,129.0,127.0,128.0,-1.0,108.0,-82.0,127.0,127.0,127.0,-117.0,-84.0,96.0
126.0,127.0,127.0,125.0,126.0,130.0,126.0,128.0,-1.0,108.0,-82.0,127.0,127.0,127.0,-117.0,-84.0,96.0
126.0,127.0,127.0,125.0,126.0,130.0,126.0,129.0,-1.0,108.0,-82.0,127.0,127.0,127.0,-117.0,-84.0,96.0
126.0,127.0,127.0,125.0,126.0,130.0,126.0,128.0,-1.0,108.0,-82.0,127.0,127.0,127.0,-117.0,-84.0,96.0
126.0,127.0,127.0,125.0,126.0,130.0,126.0,128.0,-1.0,108.0,-82.0,127.0,127.0,127.0,-117.0,-84.0,96.0
127.0,127.0,127.0,125.0,126.0,130.0,127.0,129.0,-1.0,108.0,-82.0,127.0,127.0,127.0,-117.0,-84.0,96.0
127.0,127.0,127.0,125.0,126.0,130.0,126.0,129.0,-1.0,108.0,-82.0,127.0,127.0,127.0,-117.0,-84.0,96.0
127.0,127.0,127.0,125.0,126.0,130.0,126.0,129.0,-1.0,108.0,-82.0,127.0,127.0,127.0,-117.0,-84.0,96.0
127.0,127.0,127.0,125.0,126.0,130.0,126.0,129.0,-1.0,108.0,-82.0,127.0,127.0,127.0,-117.0,-84.0,96.0
127.0,127.0,127.0,125.0,126.0,129.0,127.0,128.0,-1.0,108.0,-82.0,127.0,127.0,127.0,-117.0,-84.0,96.0
127.0,127.0,127.0,125.0,126.0,130.0,126.0,128.0,-1.0,108.0,-82.0,127.0,127.0,127.0,-117.0,-84.0,96.0
127.0,127.0,127.0,125.0,126.0,130.0,126.0,129.0,-1.0,108.0,-82.0,127.0,127.0,127.0,-117.0,-84.0,96.0
127.0,127.0,127.0,125.0,126.0,130.0,126.0,129.0,-1.0,108.0,-82.0,127.0,127.0,127.0,-117.0,-84.0,96.0
127.0,127.0,127.0,125.0,126.0,130.0,126.0,129.0,-1.0,108.0,-82.0,127.0,127.0,127.0,-117.0,-84.0,96.0
127.0,127.0,127.0,125.0,126.0,130.0,127.0,128.0,-1.0,108.0,-82.0,127.0,127.0,127.0,-117.0,-84.0,96.0
127.0,127.0,127.0,125.0,126.0,130.0,127.0,128.0,-1.0,108.0,-82.0,127.0,127.0,127.0,-117.0,-84.0,96.0
127.0,127.0,127.0,125.0,127.0,129.0,127.0,128.0,-1.0,108.0,-82.0,127.0,127.0,127.0,-117.0,-84.0,96.0
127.0,127.0,127.0,125.0,126.0,129.0,127.0,128.0,-1.0,108.0,-82.0,127.0,127.0,127.0,-117.0,-84.0,96.0
127.0,127.0,127.0,125.0,126.0,130.0,126.0,129.0,-1.0,108.0,-82.0,127.0,127.0,127.0,-117.0,-84.0,96.0
127.0,127.0,127.0,125.0,126.0,130.0,126.0,129.0,-1.0,108.0,-82.0,127.0,127.0,127.0,-117.0,-84.0,96.0
127.0,127.0,127.0,125.0,126.0,130.0,126.0,128.0,-1.0,108.0,-82.0,127.0,127.0,127.0,-117.0,-84.0,96.0
127.0,127.0,127.0,125.0,126.0,130.0,126.0,128.0,-1.0,108.0,-82.0,127.0,127.0,127.0,-117.0,-84.0,96.0
127.0,127.0,127.0,125.0,126.0,130.0,126.0,128.0,-1.0,108.0,-82.0,127.0,127.0,127.0,-117.0,-84.0,96.0
127.0,127.0,127.0,125.0,126.0,130.0,126.0,128.0,-1.0,108.0,-82.0,127.0,127.0,127.0,-117.0,-84.0,96.0
127.0,127.0,127.0,125.0,126.0,130.0,126.0,128.0,-1.0,108.0,-82.0,127.0,127.0,127.0,-117.0,-84.0,96.0
127.0,127.0,127.0,125.0,126.0,130.0,126.0,128.0,-1.0,108.0,-82.0,127.0,127.0,127.0,-117.0,-84.0,96.0
127.0,127.0,127.0,125.0,126.0,130.0,126.0,128.0,-1.0,108.0,-82.0,127.0,127.0,127.0,-117.0,-84.0,96.0
127.0,127.0,127.0,125.0,126.0,130.0,125.0,129.0,-1.0,108.0,-82.0,127.0,127.0,127.0,-117.0,-84.0,96.0
127.0,127.0,127.0,125.0,126.0,130.0,125.0,128.0,-1.0,108.0,-82.0,127.0,127.0,127.0,-117.0,-84.0,96.0
127.0,127.0,127.0,125.0,126.0,130.0,125.0,128.0,-1.0,108.0,-82.0,127.0,127.0,127.0,-117.0,-84.0,96.0
127.0,127.0,127.0,125.0,126.0,130.0,125.0,128.0,-1.0,108.0,-82.0,127.0,127.0,127.0,-117.0,-84.0,96.0
127.0,127.0,127.0,125.0,126.0,130.0,126.0,128.0,-1.0,108.0,-82.0,127.0,127.0,127.0,-117.0,-84.0,96.0
127.0,127.0,127.0,125.0,126.0,130.0,126.0,128.0,-1.0,108.0,-82.0,127.0,127.0,127.0,-117.0,-84.0,96.0
127.0,127.0,127.0,125.0,126.0,130.0,126.0,128.0,-1.0,108.0,-82.0,127.0,127.0,127.0,-117.0,-84.0,96.0
127.0,127.0,127.0,125.0,126.0,130.0,126.0,128.0,-1.0,108.0,-82.0,127.0,127.0,127.0,-117.0,-84.0,96.0
127.0,127.0,127.0,125.0,126.0,130.0,126.0,129.0,-1.0,108.0,-82.0,127.0,127.0,127.0,-117.0,-84.0,96.0
126.0,127.0,127.0,125.0,126.0,129.0,126.0,128.0,-1.0,108.0,-82.0,127.0,127.0,127.0,-117.0,-84.0,96.0
126.0,127.0,127.0,125.0,126.0,129.0,126.0,128.0,-1.0,108.0,-82.0,127.0,127.0,127.0,-117.0,-84.0,96.0
126.0,127.0,127.0,125.0,126.0,130.0,126.0,128.0,-1.0,108.0,-82.0,127.0,127.0,127.0,-117.0,-84.0,96.0
126.0,127.0,127.0,125.0,126.0,130.0,126.0,128.0,-1.0,108.0,-82.0,127.0,127.0,127.0,-117.0,-84.0,96.0
127.0,127.0,127.0,125.0,126.0,130.0,126.0,128.0,-1.0,108.0,-82.0,127.0,127.0,127.0,-117.0,-84.0,96.0
127.0,127.0,127.0,125.0,126.0,130.0,126.0,128.0,-1.0,108.0,-82.0,127.0,127.0,127.0,-117.0,-84.0,96.0
127.0,127.0,127.0,125.0,126.0,130.0,126.0,128.0,-1.0,108.0,-82.0,127.0,127.0,127.0,-117.0,-84.0,96.0
126.0,127.0,127.0,125.0,126.0,130.0,126.0,128.0,-1.0,108.0,-82.0,127.0,127.0,127.0,-117.0,-84.0,96.0
127.0,127.0,127.0,125.0,126.0,130.0,126.0,128.0,-1.0,108.0,-82.0,127.0,127.0,127.0,-117.0,-84.0,96.0
127.0,127.0,127.0,125.0,127.0,129.0,126.0,128.0,-1.0,108.0,-82.0,127.0,127.0,127.0,-117.0,-84.0,96.0
127.0,127.0,127.0,125.0,126.0,129.0,126.0,128.0,-1.0,108.0,-82.0,127.0,127.0,127.0,-117.0,-84.0,96.0
127.0,127.0,127.0,125.0,126.0,130.0,126.0,128.0,-1.0,108.0,-82.0,127.0,127.0,127.0,-117.0,-84.0,96.0
127.0,127.0,127.0,125.0,126.0,130.0,126.0,128.0,-1.0,108.0,-82.0,127.0,127.0,127.0,-117.0,-84.0,96.0
127.0,127.0,127.0,125.0,126.0,130.0,126.0,128.0,-1.0,108.0,-82.0,127.0,127.0,127.0,-117.0,-84.0,96.0
127.0,127.0,127.0,125.0,126.0,130.0,126.0,128.0,-1.0,108.0,-82.0,127.0,127.0,127.0,-117.0,-84.0,96.0
127.0,127.0,127.0,125.0,126.0,129.0,126.0,128.0,-1.0,108.0,-82.0,127.0,127.0,127.0,-117.0,-84.0,96.0
127.0,127.0,127.0,125.0,126.0,129.0,126.0,128.0,-1.0,108.0,-82.0,127.0,127.0,127.0,-117.0,-84.0,96.0
127.0,127.0,127.0,125.0,126.0,130.0,126.0,128.0,-1.0,108.0,-82.0,127.0,127.0,127.0,-117.0,-84.0,96.0
127.0,127.0,127.0,125.0,126.0,130.0,126.0,129.0,-1.0,108.0,-82.0,127.0,127.0,127.0,-117.0,-84.0,96.0
127.0,127.0,127.0,125.0,127.0,129.0,127.0,128.0,-1.0,109.0,-82.0,127.0,127.0,127.0,-117.0,-84.0,96.0
127.0,127.0,127.0,125.0,127.0,130.0,126.0,128.0,-1.0,109.0,-82.0,127.0,127.0,127.0,-117.0,-84.0,96.0
127.0,127.0,127.0,125.0,127.0,130.0,126.0,129.0,-1.0,109.0,-82.0,127.0,127.0,127.0,-117.0,-84.0,96.0
127.0,127.0,127.0,125.0,127.0,130.0,126.0,128.0,-1.0,109.0,-82.0,127.0,127.0,127.0,-117.0,-84.0,96.0
127.0,127.0,127.0,125.0,127.0,130.0,126.0,128.0,-1.0,109.0,-82.0,127.0,127.0,127.0,-117.0,-84.0,96.0
127.0,127.0,127.0,125.0,127.0,130.0,127.0,128.0,-1.0,109.0,-82.0,127.0,127.0,127.0,-117.0,-84.0,96.0
127.0,127.0,127.0,125.0,127.0,130.0,127.0,128.0,-1.0,109.0,-82.0,127.0,127.0,127.0,-117.0,-84.0,96.0
127.0,127.0,127.0,125.0,126.0,130.0,126.0,128.0,-1.0,109.0,-82.0,127.0,127.0,127.0,-117.0,-84.0,96.0
127.0,127.0,127.0,125.0,126.0,130.0,126.0,129.0,-1.0,109.0,-82.0,127.0,127.0,127.0,-117.0,-84.0,96.0
127.0,127.0,127.0,125.0,127.0,129.0,127.0,128.0,-1.0,109.0,-82.0,127.0,127.0,127.0,-117.0,-84.0,96.0
127.0,127.0,127.0,125.0,126.0,130.0,127.0,128.0,-1.0,109.0,-82.0,127.0,127.0,127.0,-117.0,-84.0,96.0
127.0,127.0,127.0,125.0,126.0,130.0,126.0,128.0,-1.0,109.0,-82.0,127.0,127.0,127.0,-117.0,-84.0,96.0
127.0,127.0,127.0,125.0,126.0,130.0,126.0,128.0,-1.0,109.0,-82.0,127.0,127.0,127.0,-117.0,-84.0,96.0
127.0,127.0,127.0,125.0,126.0,130.0,126.0,128.0,-1.0,109.0,-82.0,127.0,127.0,127.0,-117.0,-84.0,96.0
127.0,127.0,127.0,125.0,126.0,130.0,127.0,128.0,-1.0,109.0,-82.0,127.0,127.0,127.0,-117.0,-84.0,96.0
127.0,127.0,127.0,125.0,126.0,130.0,127.0,128.0,-1.0,109.0,-82.0,127.0,127.0,127.0,-117.0,-84.0,96.0
127.0,127.0,127.0,125.0,126.0,130.0,126.0,128.0,-1.0,109.0,-82.0,127.0,127.0,127.0,-117.0,-84.0,96.0
127.0,127.0,127.0,125.0,126.0,130.0,126.0,128.0,-1.0,109.0,-82.0,127.0,127.0,127.0,-117.0,-84.0,96.0
127.0,127.0,127.0,125.0,127.0,129.0,127.0,128.0,-1.0,109.0,-82.0,127.0,127.0,127.0,-117.0,-84.0,96.0
127.0,127.0,127.0,125.0,127.0,129.0,127.0,128.0,-1.0,109.0,-82.0,127.0,127.0,127.0,-117.0,-84.0,96.0
127.0,127.0,127.0,125.0,127.0,130.0,126.0,128.0,-1.0,109.0,-83.0,127.0,127.0,127.0,-117.0,-84.0,96.0
127.0,127.0,127.0,125.0,127.0,130.0,126.0,128.0,-1.0,109.0,-83.0,127.0,127.0,127.0,-117.0,-84.0,96.0
127.0,127.0,127.0,125.0,127.0,129.0,126.0,128.0,-1.0,109.0,-83.0,127.0,127.0,127.0,-117.0,-84.0,96.0
127.0,127.0,127.0,125.0,127.0,129.0,127.0,128.0,-1.0,109.0,-83.0,127.0,127.0,127.0,-117.0,-84.0,96.0
127.0,127.0,127.0,125.0,127.0,129.0,127.0,128.0,-1.0,109.0,-83.0,127.0,127.0,127.0,-117.0,-84.0,96.0
127.0,127.0,127.0,125.0,127.0,129.0,127.0,128.0,-1.0,109.0,-83.0,127.0,127.0,127.0,-117.0,-84.0,96.0
127.0,127.0,127.0,125.0,127.0,129.0,127.0,128.0,-1.0,109.0,-83.0,127.0,127.0,127.0,-117.0,-84.0,96.0
127.0,127.0,127.0,125.0,126.0,130.0,126.0,129.0,-1.0,109.0,-83.0,127.0,127.0,127.0,-117.0,-84.0,96.0
127.0,127.0,127.0,125.0,126.0,130.0,126.0,129.0,-1.0,109.0,-83.0,127.0,127.0,127.0,-117.0,-84.0,96.0
127.0,127.0,127.0,125.0,127.0,130.0,126.0,129.0,-1.0,109.0,-83.0,127.0,127.0,127.0,-117.0,-84.0,96.0
127.0,127.0,127.0,125.0,126.0,130.0,125.0,129.0,-1.0,109.0,-83.0,127.0,127.0,127.0,-117.0,-84.0,96.0
127.0,127.0,127.0,125.0,126.0,130.0,126.0,129.0,-1.0,109.0,-83.0,127.0,127.0,127.0,-117.0,-84.0,96.0
127.0,127.0,127.0,125.0,126.0,129.0,126.0,128.0,-1.0,109.0,-83.0,127.0,127.0,127.0,-117.0,-84.0,96.0
127.0,127.0,127.0,125.0,126.0,129.0,126.0,128.0,-1.0,109.0,-83.0,127.0,127.0,127.0,-117.0,-84.0,96.0
127.0,127.0,127.0,125.0,126.0,129.0,126.0,128.0,-1.0,109.0,-83.0,127.0,127.0,127.0,-117.0,-84.0,96.0
127.0,127.0,127.0,125.0,126.0,129.0,126.0,128.0,-1.0,109.0,-83.0,127.0,127.0,127.0,-117.0,-84.0,96.0
127.0,127.0,127.0,125.0,126.0,130.0,125.0,129.0,-1.0,109.0,-83.0,127.0,127.0,127.0,-117.0,-84.0,96.0
127.0,127.0,127.0,126.0,126.0,130.0,125.0,129.0,-1.0,109.0,-83.0,127.0,127.0,127.0,-117.0,-84.0,96.0
127.0,127.0,127.0,126.0,126.0,130.0,125.0,129.0,-1.0,109.0,-83.0,127.0,127.0,127.0,-117.0,-84.0,96.0
127.0,127.0,127.0,125.0,126.0,130.0,125.0,129.0,-1.0,109.0,-83.0,127.0,127.0,127.0,-117.0,-84.0,96.0
127.0,127.0,127.0,125.0,127.0,129.0,126.0,128.0,-1.0,109.0,-83.0,127.0,127.0,127.0,-117.0,-84.0,96.0
127.0,127.0,127.0,125.0,127.0,129.0,126.0,128.0,-1.0,109.0,-83.0,127.0,127.0,127.0,-117.0,-84.0,96.0
127.0,127.0,127.0,125.0,127.0,129.0,126.0,128.0,-1.0,109.0,-83.0,127.0,127.0,127.0,-117.0,-84.0,96.0
127.0,127.0,127.0,125.0,127.0,129.0,127.0,128.0,-1.0,109.0,-83.0,127.0,127.0,127.0,-117.0,-84.0,96.0
127.0,127.0,127.0,125.0,127.0,129.0,127.0,128.0,-1.0,109.0,-83.0,127.0,127.0,127.0,-117.0,-84.0,96.0
127.0,127.0,127.0,126.0,126.0,130.0,126.0,129.0,-1.0,109.0,-83.0,127.0,127.0,127.0,-117.0,-84.0,96.0
127.0,127.0,127.0,125.0,126.0,130.0,126.0,129.0,-1.0,109.0,-83.0,127.0,127.0,127.0,-117.0,-84.0,96.0
127.0,127.0,127.0,125.0,126.0,130.0,126.0,129.0,-1.0,109.0,-83.0,127.0,127.0,127.0,-117.0,-84.0,96.0
127.0,127.0,127.0,125.0,126.0,130.0,126.0,129.0,-1.0,109.0,-83.0,127.0,127.0,127.0,-117.0,-84.0,96.0
127.0,127.0,127.0,125.0,126.0,130.0,126.0,128.0,-1.0,109.0,-83.0,127.0,127.0,127.0,-117.0,-84.0,96.0
127.0,127.0,127.0,125.0,127.0,129.0,126.0,128.0,-1.0,109.0,-83.0,127.0,127.0,127.0,-117.0,-84.0,96.0
127.0,127.0,127.0,125.0,127.0,129.0,126.0,128.0,-1.0,109.0,-83.0,127.0,127.0,127.0,-117.0,-84.0,96.0
127.0,127.0,127.0,125.0,127.0,129.0,126.0,128.0,-1.0,109.0,-83.0,127.0,127.0,127.0,-117.0,-84.0,96.0
127.0,127.0,127.0,125.0,127.0,129.0,126.0,128.0,-1.0,109.0,-83.0,127.0,127.0,127.0,-117.0,-84.0,96.0
127.0,127.0,127.0,126.0,126.0,130.0,126.0,129.0,-1.0,109.0,-83.0,127.0,127.0,127.0,-117.0,-84.0,96.0
127.0,127.0,127.0,125.0,126.0,130.0,126.0,129.0,-1.0,109.0,-83.0,127.0,127.0,127.0,-117.0,-84.0,96.0
127.0,127.0,127.0,125.0,126.0,130.0,126.0,129.0,-1.0,109.0,-83.0,127.0,127.0,127.0,-117.0,-84.0,96.0
127.0,127.0,127.0,125.0,127.0,130.0,126.0,128.0,-1.0,109.0,-83.0,127.0,127.0,127.0,-117.0,-84.0,96.0
127.0,127.0,127.0,125.0,127.0,129.0,126.0,128.0,-1.0,109.0,-83.0,127.0,127.0,127.0,-117.0,-84.0,96.0
127.0,127.0,127.0,125.0,127.0,129.0,126.0,128.0,-1.0,109.0,-83.0,127.0,127.0,127.0,-117.0,-84.0,96.0
127.0,127.0,127.0,126.0,126.0,129.0,126.0,128.0,-1.0,109.0,-83.0,127.0,127.0,127.0,-117.0,-84.0,96.0
127.0,127.0,127.0,126.0,126.0,129.0,126.0,128.0,-1.0,109.0,-83.0,127.0,127.0,127.0,-117.0,-84.0,96.0
127.0,127.0,127.0,126.0,126.0,129.0,126.0,128.0,-1.0,109.0,-83.0,127.0,127.0,127.0,-117.0,-84.0,96.0
127.0,127.0,127.0,126.0,126.0,129.0,126.0,127.0,-1.0,109.0,-83.0,127.0,127.0,127.0,-117.0,-84.0,96.0
127.0,127.0,127.0,126.0,126.0,129.0,126.0,128.0,-1.0,109.0,-83.0,127.0,127.0,127.0,-117.0,-84.0,96.0
127.0,127.0,127.0,126.0,126.0,129.0,126.0,128.0,-1.0,109.0,-83.0,127.0,127.0,127.0,-117.0,-84.0,96.0
127.0,127.0,127.0,126.0,126.0,129.0,126.0,127.0,-1.0,109.0,-83.0,127.0,127.0,127.0,-117.0,-84.0,96.0
127.0,127.0,127.0,126.0,127.0,129.0,126.0,127.0,-1.0,109.0,-83.0,127.0,127.0,127.0,-117.0,-84.0,96.0
127.0,127.0,127.0,126.0,126.0,129.0,126.0,127.0,-1.0,109.0,-83.0,127.0,127.0,127.0,-117.0,-84.0,96.0
127.0,127.0,127.0,125.0,126.0,129.0,126.0,127.0,-1.0,109.0,-83.0,127.0,127.0,127.0,-117.0,-84.0,96.0
127.0,127.0,127.0,125.0,126.0,130.0,125.0,128.0,-1.0,109.0,-83.0,127.0,127.0,127.0,-117.0,-84.0,96.0
127.0,127.0,127.0,125.0,126.0,130.0,125.0,128.0,-1.0,109.0,-83.0,127.0,127.0,127.0,-117.0,-84.0,96.0
127.0,127.0,127.0,125.0,126.0,129.0,126.0,127.0,-1.0,109.0,-83.0,127.0,127.0,127.0,-117.0,-84.0,96.0
127.0,127.0,127.0,126.0,126.0,130.0,126.0,128.0,-1.0,109.0,-83.0,127.0,127.0,127.0,-117.0,-84.0,96.0
127.0,127.0,127.0,126.0,126.0,130.0,126.0,128.0,-1.0,109.0,-83.0,127.0,127.0,127.0,-117.0,-84.0,96.0
127.0,127.0,127.0,125.0,126.0,130.0,126.0,128.0,-1.0,109.0,-83.0,127.0,127.0,127.0,-117.0,-84.0,96.0
126.0,127.0,127.0,125.0,126.0,129.0,126.0,128.0,-1.0,109.0,-83.0,127.0,127.0,127.0,-117.0,-84.0,96.0
127.0,127.0,127.0,125.0,126.0,129.0,126.0,128.0,-1.0,109.0,-83.0,127.0,127.0,127.0,-117.0,-84.0,96.0
126.0,127.0,127.0,125.0,126.0,129.0,126.0,128.0,-1.0,109.0,-83.0,127.0,127.0,127.0,-117.0,-84.0,96.0
127.0,127.0,127.0,125.0,126.0,130.0,125.0,128.0,-1.0,109.0,-83.0,127.0,127.0,127.0,-117.0,-84.0,96.0
126.0,127.0,127.0,126.0,126.0,130.0,125.0,129.0,-1.0,109.0,-83.0,127.0,127.0,127.0,-117.0,-84.0,96.0
126.0,127.0,127.0,125.0,127.0,129.0,126.0,128.0,-1.0,109.0,-83.0,127.0,127.0,127.0,-117.0,-84.0,96.0
127.0,127.0,127.0,126.0,126.0,130.0,125.0,129.0,-1.0,109.0,-83.0,127.0,127.0,127.0,-117.0,-84.0,96.0
127.0,127.0,127.0,126.0,126.0,130.0,125.0,129.0,-1.0,109.0,-83.0,127.0,127.0,127.0,-117.0,-84.0,96.0
126.0,127.0,127.0,126.0,126.0,130.0,126.0,128.0,-1.0,109.0,-83.0,127.0,127.0,127.0,-117.0,-84.0,96.0
126.0,127.0,127.0,126.0,126.0,129.0,126.0,128.0,-1.0,109.0,-83.0,127.0,127.0,127.0,-117.0,-84.0,96.0
126.0,127.0,127.0,126.0,126.0,129.0,126.0,128.0,-1.0,109.0,-83.0,127.0,127.0,127.0,-117.0,-84.0,96.0
126.0,127.0,127.0,126.0,126.0,129.0,126.0,128.0,-1.0,109.0,-83.0,127.0,127.0,127.0,-117.0,-84.0,96.0
126.0,127.0,126.0,126.0,126.0,130.0,125.0,129.0,-1.0,109.0,-83.0,127.0,127.0,127.0,-117.0,-84.0,96.0
126.0,127.0,126.0,126.0,126.0,130.0,125.0,129.0,-1.0,109.0,-83.0,127.0,127.0,127.0,-117.0,-84.0,96.0
126.0,127.0,127.0,125.0,126.0,129.0,126.0,128.0,-1.0,109.0,-83.0,127.0,127.0,127.0,-117.0,-84.0,96.0
127.0,127.0,127.0,126.0,126.0,129.0,125.0,128.0,-1.0,109.0,-83.0,127.0,127.0,127.0,-117.0,-84.0,96.0
127.0,127.0,127.0,126.0,126.0,129.0,125.0,128.0,-1.0,109.0,-83.0,127.0,127.0,127.0,-117.0,-84.0,96.0
127.0,127.0,127.0,126.0,126.0,129.0,125.0,128.0,-1.0,109.0,-83.0,127.0,127.0,127.0,-117.0,-84.0,96.0
127.0,127.0,127.0,126.0,126.0,129.0,126.0,128.0,-1.0,109.0,-83.0,127.0,127.0,127.0,-117.0,-84.0,96.0
127.0,127.0,127.0,126.0,126.0,129.0,126.0,128.0,-1.0,109.0,-83.0,127.0,127.0,127.0,-117.0,-84.0,96.0
127.0,127.0,127.0,125.0,126.0,129.0,126.0,128.0,-1.0,109.0,-83.0,127.0,127.0,127.0,-117.0,-84.0,96.0
127.0,127.0,127.0,125.0,126.0,129.0,125.0,128.0,-1.0,109.0,-83.0,127.0,127.0,127.0,-117.0,-84.0,96.0
127.0,127.0,127.0,125.0,126.0,129.0,125.0,129.0,-1.0,109.0,-83.0,127.0,127.0,127.0,-117.0,-84.0,96.0
127.0,127.0,127.0,126.0,126.0,129.0,125.0,129.0,-1.0,109.0,-83.0,127.0,127.0,127.0,-117.0,-84.0,96.0
127.0,127.0,127.0,126.0,126.0,129.0,125.0,128.0,-1.0,109.0,-83.0,127.0,127.0,127.0,-117.0,-84.0,96.0
127.0,127.0,127.0,126.0,126.0,129.0,125.0,128.0,-1.0,109.0,-83.0,127.0,127.0,127.0,-117.0,-84.0,96.0
126.0,127.0,127.0,126.0,127.0,129.0,125.0,128.0,-1.0,109.0,-83.0,127.0,127.0,127.0,-117.0,-84.0,96.0
127.0,127.0,127.0,126.0,127.0,129.0,126.0,128.0,-1.0,109.0,-83.0,127.0,127.0,127.0,-117.0,-84.0,96.0
127.0,127.0,127.0,126.0,127.0,129.0,126.0,128.0,-1.0,109.0,-83.0,127.0,127.0,127.0,-117.0,-84.0,96.0
127.0,127.0,127.0,126.0,127.0,129.0,126.0,128.0,-1.0,109.0,-83.0,127.0,127.0,127.0,-117.0,-84.0,96.0
127.0,127.0,127.0,126.0,126.0,129.0,125.0,128.0,-1.0,109.0,-83.0,127.0,127.0,127.0,-117.0,-84.0,96.0
127.0,127.0,127.0,126.0,126.0,129.0,125.0,128.0,-1.0,109.0,-83.0,127.0,127.0,127.0,-117.0,-84.0,96.0
127.0,127.0,127.0,126.0,126.0,129.0,125.0,128.0,-1.0,109.0,-83.0,127.0,127.0,127.0,-117.0,-84.0,96.0
127.0,127.0,127.0,126.0,127.0,129.0,126.0,128.0,-1.0,109.0,-83.0,127.0,127.0,127.0,-117.0,-84.0,96.0
127.0,127.0,127.0,126.0,126.0,129.0,125.0,129.0,-1.0,109.0,-83.0,127.0,127.0,127.0,-117.0,-84.0,96.0
127.0,127.0,127.0,126.0,127.0,129.0,125.0,129.0,-1.0,109.0,-83.0,127.0,127.0,127.0,-117.0,-84.0,96.0
127.0,127.0,127.0,126.0,127.0,129.0,126.0,129.0,-1.0,109.0,-83.0,127.0,127.0,127.0,-117.0,-84.0,96.0
127.0,127.0,127.0,126.0,127.0,129.0,126.0,129.0,-1.0,109.0,-83.0,127.0,127.0,127.0,-117.0,-84.0,96.0
127.0,127.0,127.0,126.0,127.0,129.0,126.0,129.0,-1.0,109.0,-83.0,127.0,127.0,127.0,-117.0,-84.0,96.0
127.0,127.0,127.0,126.0,126.0,129.0,125.0,129.0,-1.0,109.0,-83.0,127.0,127.0,127.0,-117.0,-84.0,96.0
127.0,127.0,127.0,126.0,126.0,129.0,125.0,129.0,-1.0,109.0,-83.0,127.0,127.0,127.0,-117.0,-84.0,96.0
127.0,127.0,127.0,126.0,126.0,129.0,125.0,129.0,-1.0,109.0,-83.0,127.0,127.0,127.0,-117.0,-84.0,96.0
127.0,127.0,127.0,125.0,127.0,129.0,126.0,128.0,-1.0,109.0,-83.0,127.0,127.0,127.0,-117.0,-84.0,96.0
127.0,127.0,127.0,126.0,126.0,129.0,126.0,129.0,-1.0,109.0,-83.0,127.0,127.0,127.0,-117.0,-84.0,96.0
127.0,127.0,127.0,126.0,126.0,129.0,125.0,129.0,-1.0,109.0,-83.0,127.0,127.0,127.0,-117.0,-84.0,96.0
127.0,127.0,127.0,126.0,126.0,129.0,125.0,129.0,-1.0,109.0,-83.0,127.0,127.0,127.0,-117.0,-84.0,96.0
127.0,127.0,127.0,126.0,126.0,129.0,125.0,129.0,-1.0,109.0,-83.0,127.0,127.0,127.0,-117.0,-84.0,96.0
127.0,127.0,127.0,126.0,126.0,129.0,125.0,129.0,-1.0,109.0,-83.0,127.0,127.0,127.0,-117.0,-84.0,96.0
127.0,127.0,127.0,126.0,126.0,129.0,125.0,129.0,-1.0,109.0,-83.0,127.0,127.0,127.0,-117.0,-84.0,96.0
127.0,127.0,127.0,126.0,126.0,130.0,125.0,129.0,-1.0,109.0,-83.0,127.0,127.0,127.0,-117.0,-84.0,96.0
127.0,127.0,127.0,126.0,126.0,129.0,125.0,130.0,-1.0,109.0,-83.0,127.0,127.0,127.0,-117.0,-84.0,96.0
127.0,127.0,127.0,126.0,127.0,129.0,126.0,129.0,-1.0,109.0,-83.0,127.0,127.0,127.0,-117.0,-84.0,96.0
127.0,127.0,127.0,126.0,126.0,129.0,125.0,129.0,-1.0,109.0,-83.0,127.0,127.0,127.0,-117.0,-84.0,96.0
127.0,127.0,127.0,126.0,126.0,129.0,125.0,129.0,-1.0,109.0,-83.0,127.0,127.0,127.0,-117.0,-84.0,96.0
127.0,127.0,127.0,126.0,126.0,129.0,125.0,129.0,-1.0,108.0,-83.0,127.0,127.0,127.0,-117.0,-84.0,96.0
127.0,127.0,127.0,126.0,126.0,129.0,126.0,129.0,-1.0,108.0,-83.0,127.0,127.0,127.0,-117.0,-84.0,96.0
127.0,127.0,127.0,126.0,126.0,129.0,126.0,129.0,-1.0,108.0,-83.0,127.0,127.0,127.0,-117.0,-84.0,96.0
127.0,127.0,127.0,126.0,126.0,129.0,126.0,129.0,-1.0,108.0,-83.0,127.0,127.0,127.0,-117.0,-84.0,96.0
127.0,127.0,127.0,126.0,126.0,129.0,125.0,129.0,-1.0,108.0,-83.0,127.0,127.0,127.0,-117.0,-84.0,96.0
127.0,127.0,127.0,126.0,126.0,130.0,125.0,129.0,-1.0,108.0,-83.0,127.0,127.0,127.0,-117.0,-84.0,96.0
127.0,127.0,127.0,126.0,127.0,129.0,126.0,128.0,-1.0,108.0,-83.0,127.0,127.0,127.0,-117.0,-84.0,96.0
127.0,127.0,127.0,126.0,126.0,129.0,126.0,129.0,-1.0,108.0,-83.0,127.0,127.0,127.0,-117.0,-84.0,96.0
127.0,127.0,127.0,126.0,126.0,129.0,125.0,129.0,-1.0,108.0,-83.0,127.0,127.0,127.0,-117.0,-84.0,96.0
127.0,127.0,127.0,126.0,126.0,129.0,125.0,129.0,-1.0,108.0,-83.0,127.0,127.0,127.0,-117.0,-84.0,96.0
127.0,127.0,127.0,126.0,127.0,128.0,127.0,128.0,-1.0,108.0,-83.0,127.0,127.0,127.0,-117.0,-84.0,96.0
127.0,127.0,127.0,126.0,126.0,128.0,127.0,128.0,-1.0,108.0,-83.0,127.0,127.0,127.0,-117.0,-84.0,96.0
127.0,127.0,127.0,126.0,126.0,128.0,127.0,128.0,-1.0,108.0,-83.0,127.0,127.0,127.0,-117.0,-84.0,96.0
127.0,127.0,127.0,126.0,126.0,128.0,127.0,128.0,-1.0,108.0,-83.0,127.0,127.0,127.0,-117.0,-84.0,96.0
127.0,127.0,127.0,125.0,126.0,128.0,127.0,128.0,-1.0,108.0,-83.0,127.0,127.0,127.0,-117.0,-84.0,96.0
127.0,127.0,127.0,126.0,127.0,129.0,127.0,129.0,-1.0,108.0,-83.0,127.0,127.0,127.0,-117.0,-84.0,96.0
127.0,127.0,127.0,126.0,127.0,129.0,127.0,128.0,-1.0,108.0,-83.0,127.0,127.0,127.0,-117.0,-84.0,96.0
127.0,127.0,127.0,126.0,127.0,128.0,127.0,128.0,-1.0,108.0,-83.0,127.0,127.0,127.0,-117.0,-84.0,96.0
127.0,127.0,127.0,126.0,127.0,128.0,127.0,128.0,-1.0,108.0,-83.0,127.0,127.0,127.0,-117.0,-84.0,96.0
127.0,127.0,127.0,125.0,127.0,128.0,127.0,128.0,-1.0,108.0,-83.0,127.0,127.0,127.0,-117.0,-84.0,96.0
127.0,127.0,127.0,126.0,126.0,129.0,126.0,129.0,-1.0,108.0,-83.0,127.0,127.0,127.0,-117.0,-84.0,96.0
127.0,127.0,127.0,126.0,126.0,129.0,126.0,129.0,-1.0,108.0,-83.0,127.0,127.0,127.0,-117.0,-84.0,96.0
127.0,127.0,127.0,126.0,126.0,129.0,126.0,129.0,-1.0,108.0,-83.0,127.0,127.0,127.0,-117.0,-84.0,96.0
127.0,127.0,127.0,126.0,126.0,129.0,126.0,129.0,-1.0,108.0,-83.0,127.0,127.0,127.0,-117.0,-84.0,96.0
127.0,127.0,127.0,126.0,126.0,129.0,126.0,129.0,-1.0,108.0,-83.0,127.0,127.0,127.0,-117.0,-84.0,96.0
127.0,127.0,127.0,126.0,126.0,129.0,126.0,129.0,-1.0,108.0,-83.0,127.0,127.0,127.0,-117.0,-84.0,96.0
127.0,127.0,127.0,126.0,126.0,129.0,126.0,129.0,-1.0,108.0,-83.0,127.0,127.0,127.0,-117.0,-84.0,96.0
127.0,127.0,127.0,126.0,126.0,129.0,126.0,129.0,-1.0,108.0,-83.0,127.0,127.0,127.0,-117.0,-84.0,96.0
127.0,127.0,127.0,126.0,126.0,129.0,127.0,129.0,-1.0,108.0,-83.0,127.0,127.0,127.0,-117.0,-84.0,96.0
127.0,127.0,127.0,126.0,126.0,129.0,126.0,129.0,-1.0,108.0,-83.0,127.0,127.0,127.0,-117.0,-84.0,96.0
126.0,127.0,127.0,126.0,126.0,129.0,126.0,129.0,-1.0,108.0,-83.0,127.0,127.0,127.0,-117.0,-84.0,96.0
127.0,127.0,127.0,126.0,126.0,129.0,126.0,129.0,-1.0,108.0,-83.0,127.0,127.0,127.0,-117.0,-84.0,96.0
127.0,127.0,127.0,126.0,126.0,129.0,126.0,129.0,-1.0,108.0,-83.0,127.0,127.0,127.0,-117.0,-84.0,96.0
126.0,127.0,127.0,126.0,126.0,129.0,126.0,129.0,-1.0,108.0,-83.0,127.0,127.0,127.0,-117.0,-84.0,96.0
126.0,127.0,127.0,126.0,126.0,129.0,126.0,128.0,-1.0,108.0,-83.0,127.0,127.0,127.0,-117.0,-84.0,96.0
126.0,127.0,127.0,126.0,126.0,129.0,126.0,128.0,-1.0,108.0,-83.0,127.0,127.0,127.0,-117.0,-84.0,96.0
126.0,127.0,127.0,126.0,126.0,129.0,126.0,128.0,-1.0,108.0,-83.0,127.0,127.0,127.0,-117.0,-84.0,96.0
126.0,127.0,127.0,125.0,126.0,129.0,126.0,128.0,-1.0,108.0,-83.0,127.0,127.0,127.0,-117.0,-84.0,96.0
126.0,127.0,127.0,126.0,126.0,129.0,126.0,129.0,-1.0,108.0,-83.0,127.0,127.0,127.0,-117.0,-84.0,96.0
127.0,127.0,127.0,126.0,126.0,129.0,126.0,129.0,-1.0,108.0,-83.0,127.0,127.0,127.0,-117.0,-84.0,96.0
126.0,127.0,127.0,126.0,126.0,129.0,126.0,129.0,-1.0,108.0,-83.0,127.0,127.0,127.0,-117.0,-84.0,96.0
126.0,127.0,127.0,126.0,126.0,129.0,126.0,129.0,-1.0,108.0,-83.0,127.0,127.0,127.0,-117.0,-84.0,96.0
126.0,127.0,127.0,126.0,126.0,129.0,126.0,128.0,-1.0,108.0,-83.0,127.0,127.0,127.0,-117.0,-84.0,96.0
126.0,127.0,127.0,126.0,126.0,129.0,126.0,128.0,-1.0,108.0,-83.0,127.0,127.0,127.0,-117.0,-84.0,96.0
126.0,127.0,127.0,126.0,126.0,129.0,126.0,128.0,-1.0,108.0,-83.0,127.0,127.0,127.0,-117.0,-84.0,96.0
126.0,127.0,127.0,126.0,126.0,129.0,126.0,128.0,-1.0,108.0,-83.0,127.0,127.0,127.0,-117.0,-84.0,96.0
126.0,127.0,127.0,126.0,126.0,129.0,126.0,128.0,-1.0,108.0,-83.0,127.0,127.0,127.0,-117.0,-84.0,96.0
126.0,127.0,127.0,126.0,126.0,129.0,126.0,128.0,-1.0,108.0,-83.0,127.0,127.0,127.0,-117.0,-84.0,96.0
126.0,127.0,127.0,126.0,126.0,129.0,125.0,129.0,-1.0,108.0,-83.0,127.0,127.0,127.0,-117.0,-84.0,96.0
126.0,127.0,127.0,126.0,126.0,129.0,125.0,129.0,-1.0,108.0,-83.0,127.0,127.0,127.0,-117.0,-84.0,96.0
127.0,127.0,127.0,126.0,126.0,129.0,126.0,129.0,-1.0,108.0,-83.0,127.0,127.0,127.0,-117.0,-84.0,96.0
126.0,127.0,127.0,126.0,126.0,129.0,126.0,129.0,-1.0,108.0,-83.0,127.0,127.0,127.0,-117.0,-84.0,96.0
126.0,127.0,127.0,126.0,126.0,129.0,126.0,129.0,-1.0,108.0,-83.0,127.0,127.0,127.0,-117.0,-84.0,96.0
126.0,127.0,127.0,126.0,126.0,129.0,126.0,129.0,-1.0,108.0,-83.0,127.0,127.0,127.0,-117.0,-84.0,96.0
127.0,127.0,127.0,126.0,126.0,129.0,126.0,129.0,-1.0,108.0,-83.0,127.0,127.0,127.0,-117.0,-84.0,96.0
126.0,127.0,127.0,126.0,126.0,129.0,126.0,129.0,-1.0,108.0,-83.0,127.0,127.0,127.0,-117.0,-84.0,96.0
127.0,127.0,127.0,126.0,126.0,129.0,126.0,129.0,-1.0,108.0,-83.0,127.0,127.0,127.0,-117.0,-84.0,96.0
127.0,127.0,127.0,126.0,126.0,130.0,126.0,129.0,-1.0,108.0,-83.0,127.0,127.0,127.0,-117.0,-84.0,96.0
127.0,127.0,127.0,126.0,126.0,130.0,126.0,129.0,-1.0,108.0,-83.0,127.0,127.0,127.0,-117.0,-84.0,96.0
127.0,127.0,127.0,126.0,126.0,130.0,126.0,129.0,-1.0,108.0,-83.0,127.0,127.0,127.0,-117.0,-84.0,96.0
127.0,127.0,127.0,126.0,126.0,129.0,125.0,129.0,-1.0,108.0,-83.0,127.0,127.0,127.0,-117.0,-84.0,96.0
127.0,127.0,127.0,126.0,126.0,129.0,125.0,129.0,-1.0,108.0,-83.0,127.0,127.0,127.0,-117.0,-84.0,96.0
127.0,127.0,127.0,126.0,127.0,129.0,125.0,129.0,-1.0,108.0,-83.0,127.0,127.0,127.0,-117.0,-84.0,96.0
127.0,127.0,127.0,126.0,127.0,129.0,126.0,129.0,-1.0,108.0,-83.0,127.0,127.0,127.0,-117.0,-84.0,96.0
127.0,127.0,127.0,126.0,127.0,129.0,125.0,129.0,-1.0,108.0,-83.0,127.0,127.0,127.0,-117.0,-84.0,96.0
127.0,127.0,127.0,126.0,127.0,129.0,125.0,128.0,-1.0,108.0,-83.0,127.0,127.0,127.0,-117.0,-84.0,96.0
127.0,127.0,127.0,126.0,126.0,129.0,125.0,129.0,-1.0,108.0,-83.0,127.0,127.0,127.0,-117.0,-84.0,96.0
127.0,127.0,127.0,126.0,126.0,129.0,125.0,129.0,-1.0,108.0,-83.0,127.0,127.0,127.0,-117.0,-84.0,96.0
127.0,127.0,127.0,126.0,127.0,129.0,125.0,129.0,-1.0,108.0,-83.0,127.0,127.0,127.0,-117.0,-84.0,96.0
127.0,127.0,127.0,126.0,127.0,129.0,125.0,129.0,-1.0,108.0,-83.0,127.0,127.0,127.0,-117.0,-84.0,96.0
127.0,127.0,127.0,126.0,127.0,129.0,126.0,129.0,-1.0,108.0,-83.0,127.0,127.0,127.0,-117.0,-84.0,96.0
127.0,127.0,127.0,126.0,127.0,129.0,126.0,129.0,-1.0,108.0,-83.0,127.0,127.0,127.0,-117.0,-84.0,96.0
127.0,127.0,127.0,126.0,127.0,129.0,126.0,129.0,-1.0,108.0,-83.0,127.0,127.0,127.0,-117.0,-84.0,96.0
127.0,127.0,127.0,126.0,127.0,129.0,126.0,129.0,-1.0,108.0,-83.0,127.0,127.0,127.0,-117.0,-84.0,96.0
127.0,127.0,127.0,126.0,127.0,129.0,126.0,129.0,-1.0,108.0,-83.0,127.0,127.0,127.0,-117.0,-84.0,96.0
127.0,127.0,127.0,126.0,126.0,129.0,125.0,129.0,-1.0,108.0,-83.0,127.0,127.0,127.0,-117.0,-84.0,96.0
127.0,127.0,127.0,126.0,126.0,129.0,125.0,129.0,-1.0,108.0,-83.0,127.0,127.0,127.0,-117.0,-84.0,96.0
127.0,127.0,127.0,126.0,127.0,129.0,125.0,129.0,-1.0,108.0,-83.0,127.0,127.0,127.0,-117.0,-84.0,96.0
127.0,127.0,127.0,126.0,127.0,129.0,125.0,129.0,-1.0,108.0,-83.0,127.0,127.0,127.0,-117.0,-84.0,96.0
127.0,127.0,127.0,126.0,127.0,129.0,126.0,129.0,-1.0,108.0,-83.0,127.0,127.0,127.0,-117.0,-84.0,96.0
127.0,127.0,127.0,126.0,127.0,129.0,126.0,129.0,-1.0,108.0,-83.0,127.0,127.0,127.0,-117.0,-84.0,96.0
127.0,127.0,127.0,126.0,127.0,129.0,126.0,129.0,-1.0,108.0,-83.0,127.0,127.0,127.0,-117.0,-84.0,96.0
127.0,127.0,127.0,126.0,127.0,129.0,126.0,129.0,-1.0,108.0,-83.0,127.0,127.0,127.0,-117.0,-84.0,96.0
127.0,127.0,127.0,126.0,127.0,129.0,126.0,128.0,-1.0,108.0,-83.0,127.0,127.0,127.0,-117.0,-84.0,96.0
127.0,127.0,127.0,126.0,127.0,130.0,125.0,129.0,-1.0,108.0,-83.0,127.0,127.0,127.0,-117.0,-84.0,96.0
127.0,127.0,127.0,126.0,127.0,130.0,125.0,129.0,-1.0,108.0,-83.0,127.0,127.0,127.0,-117.0,-84.0,96.0
127.0,127.0,127.0,126.0,127.0,130.0,125.0,129.0,-1.0,108.0,-83.0,127.0,127.0,127.0,-117.0,-84.0,96.0
127.0,127.0,127.0,126.0,127.0,129.0,126.0,129.0,-1.0,108.0,-83.0,127.0,127.0,127.0,-117.0,-84.0,96.0
127.0,127.0,127.0,126.0,126.0,129.0,126.0,129.0,-1.0,108.0,-83.0,127.0,127.0,127.0,-117.0,-84.0,96.0
127.0,127.0,127.0,126.0,126.0,129.0,126.0,129.0,-1.0,108.0,-83.0,127.0,127.0,127.0,-117.0,-84.0,96.0
126.0,126.0,127.0,126.0,126.0,128.0,126.0,128.0,-1.0,108.0,-84.0,127.0,127.0,127.0,-117.0,-84.0,96.0
126.0,126.0,127.0,126.0,126.0,128.0,126.0,128.0,-1.0,108.0,-84.0,127.0,127.0,127.0,-117.0,-84.0,96.0
126.0,126.0,127.0,126.0,126.0,128.0,126.0,128.0,-1.0,108.0,-84.0,127.0,127.0,127.0,-117.0,-84.0,96.0
126.0,127.0,127.0,126.0,126.0,128.0,126.0,128.0,-1.0,108.0,-84.0,127.0,127.0,127.0,-117.0,-84.0,96.0
127.0,126.0,127.0,126.0,126.0,128.0,126.0,128.0,-1.0,108.0,-84.0,127.0,127.0,127.0,-117.0,-84.0,96.0
127.0,127.0,127.0,126.0,126.0,128.0,126.0,128.0,-1.0,108.0,-84.0,127.0,127.0,127.0,-117.0,-84.0,96.0
127.0,127.0,127.0,126.0,126.0,128.0,126.0,128.0,-1.0,108.0,-84.0,127.0,127.0,127.0,-117.0,-84.0,96.0
126.0,126.0,127.0,126.0,126.0,128.0,126.0,128.0,-1.0,108.0,-84.0,127.0,127.0,127.0,-117.0,-84.0,96.0
126.0,126.0,127.0,126.0,126.0,128.0,126.0,128.0,-1.0,108.0,-84.0,127.0,127.0,127.0,-117.0,-84.0,96.0
126.0,127.0,127.0,126.0,126.0,128.0,126.0,128.0,-1.0,108.0,-84.0,127.0,127.0,127.0,-117.0,-84.0,96.0
126.0,127.0,127.0,126.0,126.0,129.0,125.0,129.0,-1.0,108.0,-84.0,127.0,127.0,127.0,-117.0,-84.0,96.0
126.0,127.0,127.0,126.0,126.0,129.0,125.0,129.0,-1.0,108.0,-84.0,127.0,127.0,127.0,-117.0,-84.0,96.0
126.0,127.0,127.0,126.0,126.0,129.0,125.0,129.0,-1.0,108.0,-84.0,127.0,127.0,127.0,-117.0,-84.0,96.0
126.0,127.0,127.0,126.0,127.0,129.0,126.0,129.0,-1.0,108.0,-84.0,127.0,127.0,127.0,-117.0,-84.0,96.0
126.0,127.0,127.0,126.0,127.0,129.0,126.0,129.0,-1.0,108.0,-84.0,127.0,127.0,127.0,-117.0,-84.0,96.0
126.0,127.0,127.0,126.0,127.0,129.0,126.0,129.0,-1.0,108.0,-84.0,127.0,127.0,127.0,-117.0,-84.0,96.0
126.0,126.0,127.0,126.0,126.0,128.0,126.0,129.0,-1.0,108.0,-84.0,127.0,127.0,127.0,-117.0,-84.0,96.0
126.0,127.0,127.0,126.0,126.0,128.0,126.0,129.0,-1.0,108.0,-84.0,127.0,127.0,127.0,-117.0,-84.0,96.0
126.0,127.0,127.0,126.0,126.0,129.0,126.0,129.0,-1.0,108.0,-84.0,127.0,127.0,127.0,-117.0,-84.0,96.0
126.0,127.0,127.0,126.0,126.0,129.0,126.0,129.0,-1.0,108.0,-84.0,127.0,127.0,127.0,-117.0,-84.0,96.0
126.0,127.0,127.0,126.0,126.0,129.0,125.0,129.0,-1.0,108.0,-84.0,127.0,127.0,127.0,-117.0,-84.0,96.0
126.0,127.0,127.0,126.0,126.0,129.0,125.0,129.0,-1.0,108.0,-84.0,127.0,127.0,127.0,-117.0,-84.0,96.0
