emg1,emg2,emg3,emg4,emg5,emg6,emg7,emg8,acc_x,acc_y,acc_z,gyro_x,gyro_y,gyro_z,angle_pitch,angle_roll,angle_yaw
127.0,127.0,127.0,126.0,127.0,131.0,126.0,128.0,21.0,-103.0,-77.0,127.0,127.0,127.0,112.0,85.0,-58.0
127.0,127.0,127.0,126.0,127.0,131.0,126.0,128.0,21.0,-103.0,-77.0,127.0,127.0,127.0,112.0,85.0,-58.0
127.0,127.0,127.0,127.0,127.0,131.0,127.0,128.0,21.0,-103.0,-77.0,127.0,127.0,127.0,112.0,85.0,-58.0
127.0,127.0,127.0,127.0,127.0,130.0,127.0,128.0,21.0,-103.0,-77.0,127.0,127.0,127.0,112.0,85.0,-58.0
127.0,126.0,128.0,126.0,127.0,131.0,126.0,128.0,21.0,-103.0,-77.0,127.0,127.0,127.0,112.0,85.0,-58.0
127.0,126.0,128.0,126.0,127.0,131.0,126.0,128.0,21.0,-103.0,-77.0,127.0,127.0,127.0,112.0,85.0,-58.0
127.0,126.0,128.0,126.0,127.0,131.0,126.0,128.0,21.0,-103.0,-77.0,127.0,127.0,127.0,112.0,85.0,-58.0
127.0,127.0,128.0,126.0,127.0,131.0,126.0,128.0,21.0,-103.0,-77.0,127.0,127.0,127.0,112.0,85.0,-58.0
127.0,127.0,127.0,126.0,127.0,131.0,126.0,128.0,21.0,-103.0,-77.0,127.0,127.0,127.0,112.0,85.0,-58.0
126.0,127.0,127.0,126.0,127.0,131.0,126.0,128.0,21.0,-103.0,-77.0,127.0,127.0,127.0,112.0,85.0,-58.0
126.0,127.0,127.0,127.0,127.0,131.0,126.0,128.0,21.0,-103.0,-77.0,127.0,127.0,127.0,112.0,85.0,-58.0
126.0,127.0,126.0,127.0,127.0,131.0,126.0,128.0,21.0,-103.0,-77.0,127.0,127.0,127.0,112.0,85.0,-58.0
126.0,127.0,126.0,127.0,127.0,131.0,127.0,128.0,21.0,-103.0,-77.0,127.0,127.0,127.0,112.0,85.0,-58.0
127.0,126.0,128.0,126.0,126.0,130.0,126.0,128.0,21.0,-103.0,-77.0,127.0,127.0,127.0,112.0,85.0,-58.0
127.0,126.0,128.0,126.0,126.0,130.0,126.0,128.0,21.0,-103.0,-77.0,127.0,127.0,127.0,112.0,85.0,-58.0
127.0,126.0,128.0,126.0,126.0,130.0,126.0,128.0,21.0,-103.0,-77.0,127.0,127.0,127.0,112.0,85.0,-58.0
127.0,126.0,128.0,126.0,127.0,131.0,126.0,128.0,21.0,-103.0,-77.0,127.0,127.0,127.0,112.0,85.0,-58.0
127.0,127.0,127.0,126.0,127.0,131.0,126.0,128.0,21.0,-103.0,-77.0,127.0,127.0,127.0,112.0,85.0,-58.0
127.0,127.0,127.0,126.0,127.0,131.0,126.0,128.0,21.0,-103.0,-77.0,127.0,127.0,127.0,112.0,85.0,-58.0
127.0,126.0,127.0,126.0,127.0,128.0,127.0,128.0,22.0,-103.0,-77.0,127.0,127.0,127.0,112.0,85.0,-58.0
127.0,127.0,127.0,127.0,127.0,129.0,127.0,128.0,22.0,-103.0,-77.0,127.0,127.0,127.0,112.0,85.0,-58.0
126.0,127.0,127.0,127.0,127.0,129.0,127.0,128.0,22.0,-103.0,-77.0,127.0,127.0,127.0,112.0,85.0,-58.0
127.0,126.0,128.0,126.0,127.0,129.0,126.0,128.0,22.0,-103.0,-77.0,127.0,127.0,127.0,112.0,85.0,-58.0
127.0,126.0,128.0,126.0,127.0,129.0,126.0,128.0,22.0,-103.0,-77.0,127.0,127.0,127.0,112.0,85.0,-58.0
127.0,126.0,128.0,126.0,127.0,129.0,126.0,128.0,22.0,-103.0,-77.0,127.0,127.0,127.0,112.0,85.0,-58.0
127.0,126.0,128.0,126.0,127.0,129.0,126.0,128.0,22.0,-103.0,-77.0,127.0,127.0,127.0,112.0,85.0,-58.0
127.0,126.0,128.0,126.0,127.0,129.0,126.0,128.0,22.0,-103.0,-77.0,127.0,127.0,127.0,112.0,85.0,-58.0
127.0,126.0,128.0,126.0,127.0,129.0,126.0,128.0,22.0,-103.0,-77.0,127.0,127.0,127.0,112.0,85.0,-58.0
127.0,126.0,127.0,126.0,127.0,129.0,127.0,128.0,22.0,-103.0,-77.0,127.0,127.0,127.0,112.0,85.0,-58.0
127.0,127.0,126.0,127.0,127.0,130.0,127.0,128.0,22.0,-103.0,-77.0,127.0,127.0,127.0,112.0,85.0,-58.0
127.0,127.0,126.0,127.0,127.0,130.0,127.0,128.0,22.0,-103.0,-77.0,127.0,127.0,127.0,112.0,85.0,-58.0
127.0,126.0,127.0,126.0,127.0,130.0,126.0,128.0,22.0,-103.0,-77.0,127.0,127.0,127.0,112.0,85.0,-58.0
127.0,126.0,127.0,126.0,127.0,130.0,126.0,128.0,22.0,-103.0,-77.0,127.0,127.0,127.0,112.0,85.0,-58.0
127.0,126.0,127.0,126.0,127.0,130.0,126.0,128.0,22.0,-103.0,-77.0,127.0,127.0,127.0,112.0,85.0,-58.0
126.0,126.0,127.0,126.0,127.0,130.0,126.0,128.0,22.0,-103.0,-77.0,127.0,127.0,127.0,112.0,85.0,-58.0
127.0,127.0,127.0,126.0,127.0,131.0,126.0,128.0,22.0,-103.0,-77.0,127.0,127.0,127.0,112.0,85.0,-58.0
127.0,127.0,127.0,127.0,127.0,130.0,127.0,128.0,22.0,-103.0,-77.0,127.0,127.0,127.0,112.0,85.0,-58.0
127.0,127.0,127.0,127.0,127.0,130.0,127.0,128.0,22.0,-103.0,-77.0,127.0,127.0,127.0,112.0,85.0,-58.0
127.0,127.0,126.0,127.0,127.0,130.0,127.0,128.0,22.0,-103.0,-77.0,127.0,127.0,127.0,112.0,85.0,-58.0
127.0,127.0,127.0,126.0,127.0,130.0,126.0,128.0,23.0,-103.0,-77.0,127.0,127.0,127.0,112.0,85.0,-58.0
127.0,126.0,128.0,126.0,126.0,130.0,126.0,128.0,23.0,-103.0,-77.0,127.0,127.0,127.0,112.0,85.0,-58.0
127.0,126.0,128.0,126.0,126.0,130.0,126.0,128.0,23.0,-103.0,-77.0,127.0,127.0,127.0,112.0,85.0,-58.0
127.0,126.0,128.0,126.0,126.0,130.0,126.0,128.0,23.0,-103.0,-77.0,127.0,127.0,127.0,112.0,85.0,-58.0
127.0,126.0,127.0,126.0,126.0,130.0,126.0,128.0,23.0,-103.0,-77.0,127.0,127.0,127.0,112.0,85.0,-58.0
127.0,127.0,127.0,126.0,127.0,131.0,126.0,128.0,23.0,-103.0,-77.0,127.0,127.0,127.0,112.0,85.0,-58.0
127.0,127.0,127.0,126.0,127.0,131.0,126.0,128.0,23.0,-103.0,-77.0,127.0,127.0,127.0,112.0,85.0,-58.0
127.0,127.0,127.0,126.0,127.0,131.0,126.0,128.0,23.0,-103.0,-77.0,127.0,127.0,127.0,112.0,85.0,-58.0
127.0,127.0,127.0,126.0,127.0,130.0,126.0,128.0,23.0,-103.0,-77.0,127.0,127.0,127.0,112.0,85.0,-58.0
126.0,127.0,127.0,126.0,127.0,130.0,126.0,128.0,23.0,-103.0,-77.0,127.0,127.0,127.0,112.0,85.0,-58.0
127.0,126.0,129.0,126.0,127.0,131.0,126.0,128.0,23.0,-104.0,-77.0,127.0,127.0,127.0,112.0,85.0,-58.0
127.0,126.0,129.0,126.0,127.0,130.0,126.0,128.0,23.0,-104.0,-77.0,127.0,127.0,127.0,112.0,85.0,-58.0
127.0,126.0,129.0,126.0,127.0,130.0,126.0,128.0,23.0,-104.0,-77.0,127.0,127.0,127.0,112.0,85.0,-58.0
127.0,126.0,128.0,126.0,127.0,131.0,126.0,128.0,23.0,-104.0,-77.0,127.0,127.0,127.0,112.0,85.0,-58.0
127.0,127.0,128.0,126.0,127.0,131.0,126.0,128.0,23.0,-104.0,-77.0,127.0,127.0,127.0,112.0,85.0,-58.0
127.0,127.0,128.0,126.0,127.0,131.0,126.0,128.0,23.0,-104.0,-77.0,127.0,127.0,127.0,112.0,85.0,-58.0
127.0,127.0,128.0,126.0,127.0,131.0,126.0,128.0,23.0,-104.0,-77.0,127.0,127.0,127.0,112.0,85.0,-58.0
127.0,127.0,127.0,127.0,127.0,131.0,126.0,128.0,23.0,-104.0,-77.0,127.0,127.0,127.0,112.0,85.0,-58.0
127.0,127.0,127.0,127.0,127.0,131.0,126.0,128.0,23.0,-104.0,-77.0,127.0,127.0,127.0,112.0,85.0,-58.0
127.0,127.0,127.0,127.0,127.0,130.0,127.0,128.0,23.0,-104.0,-77.0,127.0,127.0,127.0,112.0,85.0,-58.0
127.0,126.0,128.0,126.0,126.0,131.0,126.0,128.0,24.0,-104.0,-76.0,127.0,127.0,127.0,112.0,85.0,-58.0
127.0,126.0,128.0,126.0,127.0,131.0,126.0,128.0,24.0,-104.0,-76.0,127.0,127.0,127.0,112.0,85.0,-58.0
127.0,126.0,128.0,126.0,127.0,131.0,126.0,128.0,24.0,-104.0,-76.0,127.0,127.0,127.0,112.0,85.0,-58.0
127.0,127.0,128.0,126.0,127.0,132.0,126.0,128.0,24.0,-104.0,-76.0,127.0,127.0,127.0,112.0,85.0,-58.0
127.0,127.0,127.0,127.0,127.0,132.0,126.0,128.0,24.0,-104.0,-76.0,127.0,127.0,127.0,112.0,85.0,-58.0
127.0,127.0,127.0,127.0,127.0,131.0,126.0,128.0,24.0,-104.0,-76.0,127.0,127.0,127.0,112.0,85.0,-58.0
127.0,127.0,127.0,127.0,127.0,132.0,126.0,128.0,24.0,-104.0,-76.0,127.0,127.0,127.0,112.0,85.0,-58.0
127.0,127.0,127.0,127.0,127.0,132.0,126.0,128.0,24.0,-104.0,-76.0,127.0,127.0,127.0,112.0,85.0,-58.0
127.0,127.0,127.0,127.0,127.0,131.0,126.0,128.0,24.0,-104.0,-76.0,127.0,127.0,127.0,112.0,85.0,-58.0
127.0,126.0,128.0,126.0,126.0,131.0,126.0,128.0,24.0,-104.0,-76.0,127.0,127.0,127.0,112.0,85.0,-58.0
127.0,126.0,128.0,126.0,127.0,131.0,126.0,128.0,24.0,-104.0,-76.0,127.0,127.0,127.0,112.0,85.0,-58.0
127.0,126.0,128.0,126.0,127.0,130.0,126.0,128.0,24.0,-104.0,-76.0,127.0,127.0,127.0,112.0,85.0,-58.0
127.0,126.0,128.0,127.0,127.0,130.0,126.0,128.0,24.0,-104.0,-76.0,127.0,127.0,127.0,112.0,85.0,-58.0
127.0,126.0,128.0,127.0,127.0,130.0,126.0,128.0,24.0,-104.0,-76.0,127.0,127.0,127.0,112.0,85.0,-58.0
127.0,126.0,128.0,127.0,127.0,130.0,126.0,128.0,24.0,-104.0,-76.0,127.0,127.0,127.0,112.0,85.0,-58.0
127.0,126.0,128.0,127.0,127.0,129.0,127.0,128.0,24.0,-104.0,-76.0,127.0,127.0,127.0,112.0,85.0,-58.0
127.0,126.0,128.0,127.0,127.0,129.0,127.0,128.0,24.0,-104.0,-76.0,127.0,127.0,127.0,112.0,85.0,-58.0
127.0,127.0,128.0,127.0,127.0,129.0,127.0,128.0,24.0,-104.0,-76.0,127.0,127.0,127.0,112.0,85.0,-58.0
127.0,126.0,128.0,126.0,127.0,131.0,126.0,128.0,24.0,-104.0,-76.0,127.0,127.0,127.0,112.0,85.0,-58.0
127.0,126.0,128.0,126.0,127.0,131.0,126.0,128.0,24.0,-104.0,-76.0,127.0,127.0,127.0,112.0,85.0,-58.0
127.0,126.0,128.0,126.0,126.0,131.0,126.0,128.0,24.0,-104.0,-76.0,127.0,127.0,127.0,112.0,85.0,-58.0
127.0,126.0,128.0,126.0,127.0,130.0,126.0,128.0,24.0,-104.0,-76.0,127.0,127.0,127.0,112.0,85.0,-58.0
127.0,126.0,128.0,126.0,127.0,130.0,126.0,128.0,24.0,-104.0,-76.0,127.0,127.0,127.0,112.0,85.0,-58.0
127.0,126.0,128.0,127.0,127.0,130.0,126.0,128.0,24.0,-104.0,-76.0,127.0,127.0,127.0,112.0,85.0,-58.0
127.0,126.0,128.0,127.0,127.0,130.0,126.0,128.0,24.0,-104.0,-76.0,127.0,127.0,127.0,112.0,85.0,-58.0
127.0,126.0,128.0,127.0,127.0,130.0,126.0,128.0,24.0,-104.0,-76.0,127.0,127.0,127.0,112.0,85.0,-58.0
127.0,126.0,127.0,127.0,127.0,129.0,127.0,128.0,24.0,-104.0,-76.0,127.0,127.0,127.0,112.0,85.0,-58.0
127.0,126.0,128.0,126.0,127.0,131.0,126.0,128.0,24.0,-104.0,-76.0,127.0,127.0,127.0,112.0,85.0,-58.0
127.0,126.0,128.0,126.0,127.0,131.0,126.0,128.0,24.0,-104.0,-76.0,127.0,127.0,127.0,112.0,85.0,-58.0
127.0,126.0,128.0,126.0,127.0,131.0,126.0,128.0,24.0,-104.0,-76.0,127.0,127.0,127.0,112.0,85.0,-58.0
127.0,126.0,128.0,126.0,127.0,131.0,126.0,128.0,23.0,-104.0,-76.0,127.0,127.0,127.0,112.0,85.0,-58.0
127.0,126.0,128.0,126.0,127.0,131.0,126.0,128.0,23.0,-104.0,-76.0,127.0,127.0,127.0,112.0,85.0,-58.0
127.0,126.0,128.0,126.0,127.0,131.0,126.0,128.0,23.0,-104.0,-76.0,127.0,127.0,127.0,112.0,85.0,-58.0
127.0,126.0,128.0,127.0,127.0,130.0,126.0,128.0,23.0,-104.0,-76.0,127.0,127.0,127.0,112.0,85.0,-58.0
127.0,126.0,128.0,127.0,127.0,130.0,126.0,128.0,23.0,-104.0,-76.0,127.0,127.0,127.0,112.0,85.0,-58.0
127.0,126.0,127.0,127.0,127.0,130.0,126.0,128.0,23.0,-104.0,-76.0,127.0,127.0,127.0,112.0,85.0,-58.0
127.0,126.0,128.0,126.0,127.0,132.0,126.0,128.0,23.0,-104.0,-76.0,127.0,127.0,127.0,112.0,85.0,-58.0
127.0,126.0,128.0,126.0,127.0,132.0,126.0,128.0,23.0,-104.0,-76.0,127.0,127.0,127.0,112.0,85.0,-58.0
127.0,126.0,128.0,126.0,127.0,132.0,126.0,128.0,23.0,-104.0,-76.0,127.0,127.0,127.0,112.0,85.0,-58.0
127.0,126.0,128.0,126.0,127.0,132.0,126.0,128.0,23.0,-104.0,-76.0,127.0,127.0,127.0,112.0,85.0,-58.0
127.0,126.0,128.0,126.0,127.0,131.0,126.0,128.0,23.0,-104.0,-76.0,127.0,127.0,127.0,112.0,85.0,-58.0
127.0,126.0,128.0,126.0,127.0,131.0,126.0,128.0,23.0,-104.0,-76.0,127.0,127.0,127.0,112.0,85.0,-58.0
127.0,126.0,128.0,126.0,127.0,131.0,126.0,128.0,23.0,-104.0,-76.0,127.0,127.0,127.0,112.0,85.0,-58.0
127.0,127.0,127.0,126.0,127.0,132.0,126.0,128.0,23.0,-104.0,-76.0,127.0,127.0,127.0,112.0,85.0,-58.0
127.0,127.0,127.0,126.0,127.0,132.0,126.0,128.0,23.0,-104.0,-76.0,127.0,127.0,127.0,112.0,85.0,-58.0
127.0,125.0,129.0,126.0,127.0,131.0,126.0,128.0,23.0,-104.0,-76.0,127.0,127.0,127.0,112.0,85.0,-58.0
127.0,126.0,129.0,126.0,127.0,132.0,126.0,128.0,23.0,-104.0,-76.0,127.0,127.0,127.0,112.0,85.0,-58.0
127.0,126.0,129.0,126.0,127.0,132.0,126.0,128.0,23.0,-104.0,-76.0,127.0,127.0,127.0,112.0,85.0,-58.0
127.0,126.0,129.0,126.0,127.0,132.0,126.0,128.0,23.0,-104.0,-76.0,127.0,127.0,127.0,112.0,85.0,-58.0
127.0,126.0,129.0,126.0,127.0,131.0,126.0,128.0,23.0,-104.0,-76.0,127.0,127.0,127.0,112.0,85.0,-58.0
127.0,126.0,128.0,126.0,127.0,131.0,126.0,128.0,22.0,-104.0,-76.0,127.0,127.0,127.0,112.0,85.0,-58.0
127.0,126.0,128.0,126.0,127.0,131.0,126.0,128.0,22.0,-104.0,-76.0,127.0,127.0,127.0,112.0,85.0,-58.0
127.0,127.0,127.0,126.0,127.0,131.0,126.0,128.0,22.0,-104.0,-76.0,127.0,127.0,127.0,112.0,85.0,-58.0
127.0,127.0,127.0,126.0,127.0,131.0,126.0,128.0,22.0,-104.0,-76.0,127.0,127.0,127.0,112.0,85.0,-58.0
127.0,125.0,129.0,126.0,126.0,130.0,126.0,128.0,22.0,-104.0,-76.0,127.0,127.0,127.0,112.0,85.0,-58.0
127.0,126.0,129.0,126.0,126.0,131.0,126.0,128.0,22.0,-104.0,-76.0,127.0,127.0,127.0,112.0,85.0,-58.0
127.0,126.0,128.0,126.0,126.0,131.0,126.0,128.0,22.0,-104.0,-76.0,127.0,127.0,127.0,112.0,85.0,-58.0
127.0,126.0,128.0,126.0,126.0,131.0,126.0,128.0,22.0,-104.0,-76.0,127.0,127.0,127.0,112.0,85.0,-58.0
127.0,126.0,128.0,126.0,126.0,131.0,126.0,128.0,22.0,-104.0,-76.0,127.0,127.0,127.0,112.0,85.0,-58.0
127.0,126.0,128.0,126.0,126.0,131.0,126.0,128.0,22.0,-104.0,-76.0,127.0,127.0,127.0,112.0,85.0,-58.0
127.0,126.0,128.0,126.0,127.0,130.0,126.0,128.0,23.0,-103.0,-76.0,127.0,127.0,127.0,112.0,85.0,-58.0
127.0,127.0,127.0,126.0,127.0,131.0,127.0,128.0,23.0,-103.0,-76.0,127.0,127.0,127.0,112.0,85.0,-58.0
127.0,127.0,127.0,126.0,127.0,131.0,127.0,128.0,23.0,-103.0,-76.0,127.0,127.0,127.0,112.0,85.0,-58.0
127.0,125.0,129.0,126.0,126.0,130.0,126.0,128.0,23.0,-103.0,-76.0,127.0,127.0,127.0,112.0,85.0,-58.0
127.0,126.0,129.0,126.0,126.0,131.0,126.0,128.0,23.0,-103.0,-76.0,127.0,127.0,127.0,112.0,85.0,-58.0
127.0,126.0,128.0,126.0,126.0,131.0,126.0,128.0,23.0,-103.0,-76.0,127.0,127.0,127.0,112.0,85.0,-58.0
127.0,126.0,128.0,126.0,127.0,131.0,126.0,128.0,23.0,-103.0,-76.0,127.0,127.0,127.0,112.0,85.0,-58.0
127.0,126.0,128.0,126.0,126.0,131.0,126.0,128.0,23.0,-103.0,-76.0,127.0,127.0,127.0,112.0,85.0,-58.0
127.0,126.0,128.0,126.0,126.0,130.0,126.0,128.0,23.0,-103.0,-76.0,127.0,127.0,127.0,112.0,85.0,-58.0
127.0,126.0,128.0,126.0,127.0,130.0,126.0,128.0,23.0,-103.0,-76.0,127.0,127.0,127.0,112.0,85.0,-58.0
127.0,127.0,127.0,127.0,127.0,131.0,126.0,128.0,23.0,-103.0,-76.0,127.0,127.0,127.0,112.0,85.0,-58.0
127.0,127.0,127.0,127.0,127.0,131.0,126.0,128.0,23.0,-103.0,-76.0,127.0,127.0,127.0,112.0,85.0,-58.0
127.0,125.0,129.0,126.0,126.0,130.0,126.0,128.0,23.0,-103.0,-76.0,127.0,127.0,127.0,112.0,85.0,-58.0
127.0,125.0,128.0,126.0,126.0,130.0,126.0,128.0,23.0,-103.0,-76.0,127.0,127.0,127.0,112.0,85.0,-58.0
127.0,126.0,128.0,126.0,126.0,131.0,126.0,128.0,23.0,-103.0,-76.0,127.0,127.0,127.0,112.0,85.0,-58.0
127.0,126.0,128.0,126.0,127.0,131.0,126.0,128.0,23.0,-103.0,-76.0,127.0,127.0,127.0,112.0,85.0,-58.0
127.0,126.0,128.0,126.0,126.0,131.0,126.0,128.0,23.0,-103.0,-76.0,127.0,127.0,127.0,112.0,85.0,-58.0
127.0,126.0,128.0,126.0,126.0,130.0,126.0,128.0,23.0,-103.0,-76.0,127.0,127.0,127.0,112.0,85.0,-58.0
127.0,126.0,128.0,126.0,126.0,130.0,126.0,128.0,23.0,-103.0,-76.0,127.0,127.0,127.0,112.0,85.0,-58.0
127.0,126.0,127.0,126.0,126.0,130.0,126.0,128.0,23.0,-103.0,-76.0,127.0,127.0,127.0,112.0,85.0,-58.0
127.0,127.0,127.0,127.0,127.0,131.0,126.0,128.0,23.0,-103.0,-76.0,127.0,127.0,127.0,112.0,85.0,-58.0
127.0,125.0,129.0,126.0,126.0,130.0,126.0,128.0,23.0,-103.0,-76.0,127.0,127.0,127.0,112.0,85.0,-58.0
127.0,125.0,128.0,126.0,126.0,130.0,126.0,128.0,23.0,-103.0,-76.0,127.0,127.0,127.0,112.0,85.0,-58.0
127.0,126.0,128.0,126.0,126.0,131.0,126.0,128.0,23.0,-103.0,-76.0,127.0,127.0,127.0,112.0,85.0,-58.0
127.0,126.0,128.0,126.0,127.0,131.0,126.0,128.0,23.0,-103.0,-76.0,127.0,127.0,127.0,112.0,85.0,-58.0
127.0,126.0,128.0,126.0,126.0,131.0,126.0,128.0,23.0,-103.0,-76.0,127.0,127.0,127.0,112.0,85.0,-58.0
127.0,126.0,128.0,126.0,127.0,130.0,126.0,128.0,23.0,-103.0,-76.0,127.0,127.0,127.0,112.0,85.0,-58.0
127.0,126.0,128.0,126.0,127.0,130.0,126.0,128.0,23.0,-103.0,-76.0,127.0,127.0,127.0,112.0,85.0,-58.0
127.0,126.0,127.0,126.0,127.0,130.0,126.0,128.0,23.0,-103.0,-76.0,127.0,127.0,127.0,112.0,85.0,-58.0
127.0,127.0,127.0,127.0,127.0,131.0,126.0,128.0,23.0,-103.0,-76.0,127.0,127.0,127.0,112.0,85.0,-58.0
127.0,125.0,128.0,126.0,126.0,130.0,126.0,128.0,24.0,-103.0,-76.0,127.0,127.0,127.0,112.0,85.0,-58.0
127.0,126.0,128.0,126.0,126.0,130.0,126.0,128.0,24.0,-103.0,-76.0,127.0,127.0,127.0,112.0,85.0,-58.0
127.0,126.0,128.0,126.0,126.0,131.0,126.0,128.0,24.0,-103.0,-76.0,127.0,127.0,127.0,112.0,85.0,-58.0
127.0,126.0,127.0,126.0,126.0,131.0,126.0,128.0,24.0,-103.0,-76.0,127.0,127.0,127.0,112.0,85.0,-58.0
127.0,126.0,128.0,126.0,126.0,130.0,126.0,128.0,24.0,-103.0,-76.0,127.0,127.0,127.0,112.0,85.0,-58.0
127.0,126.0,127.0,126.0,126.0,130.0,126.0,128.0,24.0,-103.0,-76.0,127.0,127.0,127.0,112.0,85.0,-58.0
127.0,126.0,127.0,126.0,126.0,130.0,126.0,128.0,24.0,-103.0,-76.0,127.0,127.0,127.0,112.0,85.0,-58.0
127.0,126.0,127.0,126.0,126.0,130.0,126.0,128.0,24.0,-103.0,-76.0,127.0,127.0,127.0,112.0,85.0,-58.0
127.0,127.0,127.0,126.0,127.0,131.0,126.0,128.0,24.0,-103.0,-76.0,127.0,127.0,127.0,112.0,85.0,-58.0
127.0,127.0,126.0,126.0,127.0,131.0,126.0,128.0,24.0,-103.0,-76.0,127.0,127.0,127.0,112.0,85.0,-58.0
127.0,126.0,128.0,126.0,126.0,131.0,126.0,128.0,24.0,-104.0,-76.0,127.0,127.0,127.0,112.0,85.0,-58.0
127.0,126.0,128.0,126.0,127.0,131.0,126.0,128.0,24.0,-104.0,-76.0,127.0,127.0,127.0,112.0,85.0,-58.0
127.0,126.0,127.0,126.0,127.0,131.0,126.0,128.0,24.0,-104.0,-76.0,127.0,127.0,127.0,112.0,85.0,-58.0
127.0,126.0,127.0,126.0,127.0,131.0,126.0,128.0,24.0,-104.0,-76.0,127.0,127.0,127.0,112.0,85.0,-58.0
127.0,126.0,127.0,126.0,127.0,131.0,126.0,128.0,24.0,-104.0,-76.0,127.0,127.0,127.0,112.0,85.0,-58.0
127.0,126.0,127.0,126.0,127.0,131.0,126.0,128.0,24.0,-104.0,-76.0,127.0,127.0,127.0,112.0,85.0,-58.0
127.0,126.0,127.0,127.0,127.0,131.0,126.0,128.0,24.0,-104.0,-76.0,127.0,127.0,127.0,112.0,85.0,-58.0
127.0,127.0,127.0,127.0,127.0,131.0,126.0,128.0,24.0,-104.0,-76.0,127.0,127.0,127.0,112.0,85.0,-58.0
127.0,125.0,128.0,126.0,126.0,130.0,126.0,128.0,24.0,-104.0,-76.0,127.0,127.0,127.0,112.0,85.0,-58.0
127.0,126.0,128.0,126.0,127.0,130.0,126.0,128.0,24.0,-104.0,-76.0,127.0,127.0,127.0,112.0,85.0,-58.0
127.0,126.0,127.0,126.0,127.0,131.0,126.0,128.0,24.0,-104.0,-75.0,127.0,127.0,127.0,112.0,85.0,-58.0
127.0,126.0,127.0,126.0,127.0,131.0,126.0,128.0,24.0,-104.0,-75.0,127.0,127.0,127.0,112.0,85.0,-58.0
127.0,126.0,127.0,126.0,127.0,131.0,126.0,128.0,24.0,-104.0,-75.0,127.0,127.0,127.0,112.0,85.0,-58.0
127.0,126.0,127.0,126.0,127.0,131.0,126.0,128.0,24.0,-104.0,-75.0,127.0,127.0,127.0,112.0,85.0,-58.0
127.0,126.0,127.0,126.0,127.0,131.0,126.0,128.0,24.0,-104.0,-75.0,127.0,127.0,127.0,112.0,85.0,-58.0
127.0,126.0,127.0,127.0,127.0,131.0,126.0,128.0,24.0,-104.0,-75.0,127.0,127.0,127.0,112.0,85.0,-58.0
127.0,127.0,127.0,127.0,127.0,130.0,127.0,128.0,24.0,-104.0,-75.0,127.0,127.0,127.0,112.0,85.0,-58.0
127.0,126.0,128.0,126.0,127.0,130.0,126.0,128.0,24.0,-104.0,-75.0,127.0,127.0,127.0,112.0,85.0,-58.0
127.0,126.0,128.0,126.0,127.0,130.0,126.0,128.0,24.0,-104.0,-75.0,127.0,127.0,127.0,112.0,85.0,-58.0
127.0,126.0,128.0,126.0,127.0,130.0,126.0,128.0,24.0,-104.0,-75.0,127.0,127.0,127.0,112.0,85.0,-58.0
127.0,126.0,125.0,126.0,126.0,130.0,126.0,128.0,24.0,-104.0,-75.0,127.0,127.0,127.0,112.0,85.0,-58.0
127.0,126.0,125.0,126.0,126.0,129.0,126.0,128.0,24.0,-104.0,-75.0,127.0,127.0,127.0,112.0,85.0,-58.0
127.0,126.0,125.0,126.0,126.0,129.0,126.0,128.0,24.0,-104.0,-75.0,127.0,127.0,127.0,112.0,85.0,-58.0
127.0,126.0,125.0,127.0,126.0,129.0,126.0,128.0,24.0,-104.0,-75.0,127.0,127.0,127.0,112.0,85.0,-58.0
127.0,126.0,125.0,127.0,126.0,129.0,126.0,128.0,24.0,-104.0,-75.0,127.0,127.0,127.0,112.0,85.0,-58.0
127.0,126.0,125.0,127.0,126.0,129.0,126.0,128.0,24.0,-104.0,-75.0,127.0,127.0,127.0,112.0,85.0,-58.0
127.0,125.0,126.0,126.0,126.0,130.0,126.0,128.0,24.0,-104.0,-75.0,127.0,127.0,127.0,112.0,85.0,-58.0
127.0,125.0,126.0,126.0,126.0,130.0,126.0,128.0,24.0,-104.0,-75.0,127.0,127.0,127.0,112.0,85.0,-58.0
127.0,125.0,126.0,126.0,126.0,130.0,126.0,128.0,24.0,-104.0,-75.0,127.0,127.0,127.0,112.0,85.0,-58.0
127.0,125.0,126.0,126.0,126.0,130.0,126.0,128.0,24.0,-104.0,-75.0,127.0,127.0,127.0,112.0,85.0,-58.0
127.0,126.0,124.0,126.0,126.0,130.0,126.0,128.0,24.0,-104.0,-75.0,127.0,127.0,127.0,112.0,85.0,-58.0
127.0,126.0,123.0,126.0,126.0,131.0,126.0,128.0,24.0,-104.0,-75.0,127.0,127.0,127.0,112.0,85.0,-58.0
127.0,127.0,123.0,126.0,126.0,131.0,126.0,128.0,24.0,-104.0,-75.0,127.0,127.0,127.0,112.0,85.0,-58.0
127.0,127.0,123.0,126.0,126.0,131.0,126.0,128.0,24.0,-104.0,-75.0,127.0,127.0,127.0,112.0,85.0,-58.0
127.0,127.0,123.0,126.0,127.0,131.0,126.0,128.0,24.0,-104.0,-75.0,127.0,127.0,127.0,112.0,85.0,-58.0
127.0,126.0,124.0,126.0,126.0,131.0,126.0,128.0,24.0,-104.0,-75.0,127.0,127.0,127.0,112.0,85.0,-58.0
127.0,126.0,124.0,126.0,126.0,131.0,126.0,128.0,24.0,-104.0,-75.0,127.0,127.0,127.0,112.0,85.0,-58.0
127.0,126.0,124.0,126.0,126.0,131.0,126.0,128.0,24.0,-104.0,-75.0,127.0,127.0,127.0,112.0,85.0,-58.0
127.0,126.0,124.0,126.0,126.0,131.0,126.0,128.0,24.0,-104.0,-75.0,127.0,127.0,127.0,112.0,85.0,-58.0
127.0,126.0,124.0,126.0,126.0,131.0,126.0,128.0,24.0,-104.0,-75.0,127.0,127.0,127.0,112.0,85.0,-58.0
127.0,126.0,128.0,126.0,127.0,131.0,126.0,128.0,24.0,-104.0,-75.0,127.0,127.0,127.0,112.0,85.0,-58.0
127.0,127.0,127.0,126.0,127.0,132.0,126.0,128.0,24.0,-104.0,-75.0,127.0,127.0,127.0,112.0,85.0,-58.0
127.0,127.0,127.0,126.0,127.0,132.0,126.0,128.0,24.0,-104.0,-75.0,127.0,127.0,127.0,112.0,85.0,-58.0
127.0,127.0,127.0,127.0,127.0,131.0,126.0,128.0,24.0,-104.0,-75.0,127.0,127.0,127.0,112.0,85.0,-58.0
127.0,126.0,128.0,126.0,127.0,131.0,126.0,128.0,24.0,-104.0,-75.0,127.0,127.0,127.0,112.0,85.0,-58.0
127.0,126.0,128.0,126.0,127.0,131.0,126.0,128.0,24.0,-104.0,-75.0,127.0,127.0,127.0,112.0,85.0,-58.0
127.0,126.0,128.0,126.0,127.0,131.0,126.0,128.0,24.0,-104.0,-75.0,127.0,127.0,127.0,112.0,85.0,-58.0
127.0,126.0,128.0,126.0,127.0,131.0,126.0,128.0,24.0,-104.0,-75.0,127.0,127.0,127.0,112.0,85.0,-58.0
127.0,126.0,128.0,126.0,127.0,131.0,126.0,128.0,24.0,-104.0,-75.0,127.0,127.0,127.0,112.0,85.0,-58.0
127.0,126.0,128.0,126.0,127.0,131.0,126.0,128.0,24.0,-104.0,-75.0,127.0,127.0,127.0,112.0,85.0,-58.0
127.0,127.0,128.0,126.0,127.0,131.0,126.0,128.0,24.0,-104.0,-75.0,127.0,127.0,127.0,112.0,85.0,-58.0
127.0,127.0,128.0,126.0,127.0,131.0,126.0,128.0,24.0,-104.0,-75.0,127.0,127.0,127.0,112.0,85.0,-58.0
127.0,127.0,128.0,126.0,127.0,131.0,126.0,128.0,24.0,-104.0,-75.0,127.0,127.0,127.0,112.0,85.0,-58.0
127.0,126.0,129.0,126.0,126.0,131.0,126.0,128.0,24.0,-104.0,-75.0,127.0,127.0,127.0,112.0,85.0,-58.0
127.0,126.0,129.0,126.0,126.0,131.0,126.0,128.0,24.0,-104.0,-75.0,127.0,127.0,127.0,112.0,85.0,-58.0
127.0,126.0,129.0,126.0,126.0,131.0,126.0,128.0,24.0,-104.0,-75.0,127.0,127.0,127.0,112.0,85.0,-58.0
127.0,126.0,129.0,126.0,126.0,131.0,126.0,128.0,24.0,-104.0,-75.0,127.0,127.0,127.0,112.0,85.0,-58.0
127.0,126.0,129.0,126.0,126.0,130.0,126.0,128.0,24.0,-104.0,-75.0,127.0,127.0,127.0,112.0,85.0,-58.0
127.0,126.0,129.0,126.0,126.0,130.0,126.0,128.0,24.0,-104.0,-75.0,127.0,127.0,127.0,112.0,85.0,-58.0
127.0,126.0,129.0,126.0,126.0,131.0,126.0,128.0,24.0,-104.0,-75.0,127.0,127.0,127.0,112.0,85.0,-58.0
126.0,127.0,127.0,127.0,127.0,131.0,126.0,128.0,24.0,-104.0,-75.0,127.0,127.0,127.0,112.0,85.0,-58.0
127.0,127.0,127.0,127.0,127.0,131.0,126.0,128.0,24.0,-104.0,-75.0,127.0,127.0,127.0,112.0,85.0,-58.0
127.0,126.0,128.0,126.0,126.0,131.0,126.0,128.0,24.0,-104.0,-75.0,127.0,127.0,127.0,112.0,85.0,-58.0
127.0,126.0,128.0,126.0,126.0,131.0,126.0,128.0,24.0,-104.0,-75.0,127.0,127.0,127.0,112.0,85.0,-58.0
127.0,126.0,128.0,126.0,127.0,131.0,126.0,128.0,24.0,-104.0,-75.0,127.0,127.0,127.0,112.0,85.0,-58.0
127.0,126.0,128.0,126.0,126.0,131.0,126.0,128.0,24.0,-104.0,-75.0,127.0,127.0,127.0,112.0,85.0,-58.0
127.0,126.0,128.0,126.0,126.0,131.0,126.0,128.0,24.0,-104.0,-75.0,127.0,127.0,127.0,112.0,85.0,-58.0
127.0,126.0,128.0,126.0,126.0,131.0,126.0,128.0,24.0,-104.0,-75.0,127.0,127.0,127.0,112.0,85.0,-58.0
127.0,126.0,127.0,126.0,126.0,131.0,126.0,128.0,24.0,-104.0,-75.0,127.0,127.0,127.0,112.0,85.0,-58.0
127.0,127.0,127.0,127.0,127.0,131.0,126.0,128.0,24.0,-104.0,-75.0,127.0,127.0,127.0,112.0,85.0,-58.0
127.0,127.0,127.0,127.0,127.0,131.0,126.0,128.0,23.0,-104.0,-76.0,127.0,127.0,127.0,112.0,85.0,-58.0
127.0,126.0,128.0,126.0,126.0,130.0,126.0,128.0,23.0,-104.0,-76.0,127.0,127.0,127.0,112.0,85.0,-58.0
127.0,126.0,128.0,126.0,127.0,131.0,126.0,128.0,23.0,-104.0,-76.0,127.0,127.0,127.0,112.0,85.0,-58.0
127.0,126.0,128.0,126.0,127.0,131.0,126.0,128.0,23.0,-104.0,-76.0,127.0,127.0,127.0,112.0,85.0,-58.0
127.0,126.0,128.0,126.0,127.0,131.0,126.0,128.0,23.0,-104.0,-76.0,127.0,127.0,127.0,112.0,85.0,-58.0
127.0,126.0,128.0,126.0,127.0,131.0,126.0,128.0,23.0,-104.0,-76.0,127.0,127.0,127.0,112.0,85.0,-58.0
127.0,126.0,128.0,126.0,127.0,131.0,126.0,128.0,23.0,-104.0,-76.0,127.0,127.0,127.0,112.0,85.0,-58.0
127.0,126.0,128.0,126.0,127.0,131.0,126.0,128.0,23.0,-104.0,-76.0,127.0,127.0,127.0,112.0,85.0,-58.0
127.0,127.0,127.0,127.0,127.0,132.0,126.0,128.0,23.0,-104.0,-76.0,127.0,127.0,127.0,112.0,85.0,-58.0
127.0,127.0,127.0,127.0,127.0,132.0,126.0,128.0,23.0,-104.0,-76.0,127.0,127.0,127.0,112.0,85.0,-58.0
127.0,126.0,128.0,126.0,126.0,130.0,126.0,128.0,23.0,-104.0,-76.0,127.0,127.0,127.0,112.0,85.0,-58.0
127.0,126.0,127.0,126.0,127.0,131.0,126.0,128.0,23.0,-104.0,-76.0,127.0,127.0,127.0,112.0,85.0,-58.0
127.0,126.0,127.0,126.0,127.0,131.0,126.0,128.0,23.0,-104.0,-76.0,127.0,127.0,127.0,112.0,85.0,-58.0
127.0,126.0,127.0,126.0,127.0,131.0,126.0,128.0,23.0,-104.0,-76.0,127.0,127.0,127.0,112.0,85.0,-58.0
127.0,126.0,127.0,126.0,127.0,131.0,126.0,128.0,23.0,-104.0,-76.0,127.0,127.0,127.0,112.0,85.0,-58.0
127.0,126.0,127.0,126.0,127.0,131.0,126.0,128.0,23.0,-104.0,-76.0,127.0,127.0,127.0,112.0,85.0,-58.0
127.0,126.0,126.0,126.0,126.0,130.0,126.0,128.0,23.0,-104.0,-76.0,127.0,127.0,127.0,112.0,85.0,-58.0
127.0,126.0,126.0,126.0,127.0,131.0,126.0,128.0,23.0,-104.0,-76.0,127.0,127.0,127.0,112.0,85.0,-58.0
127.0,126.0,126.0,126.0,127.0,131.0,127.0,128.0,23.0,-104.0,-76.0,127.0,127.0,127.0,112.0,85.0,-58.0
127.0,126.0,126.0,126.0,127.0,131.0,127.0,128.0,23.0,-104.0,-76.0,127.0,127.0,127.0,112.0,85.0,-58.0
127.0,124.0,106.0,125.0,126.0,131.0,126.0,128.0,23.0,-104.0,-75.0,127.0,127.0,127.0,112.0,85.0,-58.0
126.0,123.0,105.0,125.0,126.0,131.0,126.0,128.0,23.0,-104.0,-75.0,127.0,127.0,127.0,112.0,85.0,-58.0
126.0,123.0,105.0,125.0,126.0,130.0,126.0,128.0,23.0,-104.0,-75.0,127.0,127.0,127.0,112.0,85.0,-58.0
126.0,123.0,105.0,125.0,126.0,130.0,126.0,128.0,23.0,-104.0,-75.0,127.0,127.0,127.0,112.0,85.0,-58.0
126.0,123.0,104.0,125.0,126.0,130.0,126.0,128.0,23.0,-104.0,-75.0,127.0,127.0,127.0,112.0,85.0,-58.0
126.0,124.0,104.0,125.0,126.0,130.0,126.0,128.0,23.0,-104.0,-75.0,127.0,127.0,127.0,112.0,85.0,-58.0
126.0,124.0,104.0,125.0,126.0,131.0,126.0,128.0,23.0,-104.0,-75.0,127.0,127.0,127.0,112.0,85.0,-58.0
126.0,125.0,104.0,126.0,126.0,131.0,126.0,128.0,23.0,-104.0,-75.0,127.0,127.0,127.0,112.0,85.0,-58.0
126.0,125.0,104.0,126.0,126.0,131.0,127.0,128.0,23.0,-104.0,-75.0,127.0,127.0,127.0,112.0,85.0,-58.0
127.0,124.0,106.0,125.0,126.0,130.0,126.0,128.0,23.0,-104.0,-75.0,127.0,127.0,127.0,112.0,85.0,-58.0
126.0,123.0,88.0,125.0,126.0,129.0,127.0,128.0,22.0,-104.0,-75.0,127.0,127.0,127.0,112.0,85.0,-58.0
126.0,122.0,87.0,125.0,126.0,128.0,127.0,127.0,22.0,-104.0,-75.0,127.0,127.0,127.0,112.0,85.0,-58.0
126.0,122.0,86.0,125.0,126.0,128.0,126.0,127.0,22.0,-104.0,-75.0,127.0,127.0,127.0,112.0,85.0,-58.0
126.0,122.0,85.0,125.0,126.0,128.0,126.0,127.0,22.0,-104.0,-75.0,127.0,127.0,127.0,112.0,85.0,-58.0
125.0,121.0,84.0,125.0,126.0,128.0,126.0,127.0,22.0,-104.0,-75.0,127.0,127.0,127.0,112.0,85.0,-58.0
125.0,121.0,83.0,126.0,126.0,128.0,126.0,127.0,22.0,-104.0,-75.0,127.0,127.0,127.0,112.0,85.0,-58.0
125.0,121.0,82.0,126.0,126.0,128.0,127.0,127.0,22.0,-104.0,-75.0,127.0,127.0,127.0,112.0,85.0,-58.0
125.0,122.0,82.0,126.0,126.0,128.0,127.0,127.0,22.0,-104.0,-75.0,127.0,127.0,127.0,112.0,85.0,-58.0
127.0,124.0,90.0,125.0,126.0,129.0,127.0,128.0,22.0,-104.0,-75.0,127.0,127.0,127.0,112.0,85.0,-58.0
126.0,124.0,89.0,125.0,126.0,129.0,127.0,128.0,22.0,-104.0,-75.0,127.0,127.0,127.0,112.0,85.0,-58.0
124.0,122.0,30.0,128.0,126.0,128.0,129.0,128.0,22.0,-104.0,-75.0,127.0,127.0,127.0,112.0,85.0,-58.0
124.0,122.0,24.0,130.0,127.0,128.0,129.0,128.0,22.0,-104.0,-75.0,127.0,127.0,127.0,112.0,85.0,-58.0
124.0,122.0,19.0,132.0,127.0,129.0,129.0,128.0,22.0,-104.0,-75.0,127.0,127.0,127.0,112.0,85.0,-58.0
124.0,122.0,14.0,134.0,128.0,129.0,129.0,128.0,22.0,-104.0,-75.0,127.0,127.0,127.0,112.0,85.0,-58.0
123.0,122.0,8.0,136.0,128.0,129.0,130.0,128.0,22.0,-104.0,-75.0,127.0,127.0,127.0,112.0,85.0,-58.0
123.0,122.0,2.0,139.0,129.0,128.0,130.0,128.0,22.0,-104.0,-75.0,127.0,127.0,127.0,112.0,85.0,-58.0
123.0,122.0,0.0,141.0,129.0,128.0,130.0,128.0,22.0,-104.0,-75.0,127.0,127.0,127.0,112.0,85.0,-58.0
125.0,123.0,42.0,125.0,125.0,128.0,129.0,128.0,22.0,-104.0,-75.0,127.0,127.0,127.0,112.0,85.0,-58.0
125.0,123.0,38.0,125.0,126.0,128.0,129.0,128.0,22.0,-104.0,-75.0,127.0,127.0,127.0,112.0,85.0,-58.0
125.0,122.0,34.0,127.0,126.0,128.0,129.0,128.0,22.0,-104.0,-75.0,127.0,127.0,127.0,112.0,85.0,-58.0
117.0,125.0,0.0,172.0,132.0,130.0,134.0,127.0,21.0,-104.0,-76.0,127.0,127.0,127.0,112.0,85.0,-58.0
117.0,126.0,0.0,172.0,133.0,130.0,134.0,127.0,21.0,-104.0,-76.0,127.0,127.0,127.0,112.0,85.0,-58.0
117.0,126.0,0.0,173.0,134.0,130.0,134.0,127.0,21.0,-104.0,-76.0,127.0,127.0,127.0,112.0,85.0,-58.0
117.0,126.0,0.0,174.0,134.0,129.0,135.0,127.0,21.0,-104.0,-76.0,127.0,127.0,127.0,112.0,85.0,-58.0
117.0,126.0,0.0,175.0,135.0,129.0,135.0,127.0,21.0,-104.0,-76.0,127.0,127.0,127.0,112.0,85.0,-58.0
117.0,126.0,0.0,177.0,135.0,129.0,135.0,127.0,21.0,-104.0,-76.0,127.0,127.0,127.0,112.0,85.0,-58.0
118.0,126.0,0.0,169.0,131.0,130.0,133.0,127.0,21.0,-104.0,-76.0,127.0,127.0,127.0,112.0,85.0,-58.0
118.0,126.0,0.0,170.0,131.0,130.0,133.0,127.0,21.0,-104.0,-76.0,127.0,127.0,127.0,112.0,85.0,-58.0
118.0,125.0,0.0,171.0,132.0,130.0,133.0,127.0,21.0,-104.0,-76.0,127.0,127.0,127.0,112.0,85.0,-58.0
118.0,125.0,0.0,171.0,132.0,129.0,134.0,127.0,21.0,-104.0,-76.0,127.0,127.0,127.0,112.0,85.0,-58.0
115.0,122.0,0.0,197.0,144.0,94.0,131.0,126.0,22.0,-102.0,-76.0,127.0,126.0,127.0,112.0,85.0,-58.0
115.0,122.0,0.0,198.0,144.0,93.0,131.0,126.0,22.0,-102.0,-76.0,127.0,126.0,127.0,112.0,85.0,-58.0
115.0,123.0,0.0,199.0,144.0,92.0,130.0,126.0,22.0,-102.0,-76.0,127.0,126.0,127.0,112.0,85.0,-58.0
116.0,124.0,0.0,200.0,145.0,91.0,130.0,126.0,22.0,-102.0,-76.0,127.0,126.0,127.0,112.0,85.0,-58.0
115.0,125.0,0.0,201.0,145.0,89.0,129.0,126.0,22.0,-102.0,-76.0,127.0,126.0,127.0,112.0,85.0,-58.0
116.0,123.0,0.0,196.0,143.0,101.0,133.0,126.0,22.0,-102.0,-76.0,127.0,126.0,127.0,112.0,85.0,-58.0
116.0,122.0,0.0,195.0,143.0,99.0,133.0,126.0,22.0,-102.0,-76.0,127.0,126.0,127.0,112.0,85.0,-58.0
116.0,121.0,0.0,195.0,143.0,98.0,132.0,126.0,22.0,-102.0,-76.0,127.0,126.0,127.0,112.0,85.0,-58.0
115.0,121.0,0.0,195.0,143.0,96.0,132.0,126.0,22.0,-102.0,-76.0,127.0,126.0,127.0,112.0,85.0,-58.0
115.0,121.0,0.0,196.0,143.0,95.0,132.0,126.0,22.0,-102.0,-76.0,127.0,126.0,127.0,112.0,85.0,-58.0
108.0,128.0,0.0,226.0,142.0,66.0,118.0,120.0,25.0,-101.0,-75.0,127.0,127.0,-128.0,112.0,85.0,-58.0
108.0,128.0,0.0,227.0,141.0,67.0,117.0,119.0,25.0,-101.0,-75.0,127.0,127.0,-128.0,112.0,85.0,-58.0
107.0,129.0,0.0,227.0,141.0,67.0,117.0,119.0,25.0,-101.0,-75.0,127.0,127.0,-128.0,112.0,85.0,-58.0
107.0,130.0,0.0,228.0,141.0,68.0,117.0,119.0,25.0,-101.0,-75.0,127.0,127.0,-128.0,112.0,85.0,-58.0
110.0,126.0,0.0,224.0,144.0,61.0,120.0,121.0,25.0,-101.0,-75.0,127.0,127.0,-128.0,112.0,85.0,-58.0
110.0,126.0,0.0,224.0,144.0,61.0,119.0,121.0,25.0,-101.0,-75.0,127.0,127.0,-128.0,112.0,85.0,-58.0
110.0,126.0,0.0,224.0,143.0,62.0,119.0,121.0,25.0,-101.0,-75.0,127.0,127.0,-128.0,112.0,85.0,-58.0
109.0,127.0,0.0,225.0,143.0,62.0,119.0,120.0,25.0,-101.0,-75.0,127.0,127.0,-128.0,112.0,85.0,-58.0
109.0,127.0,0.0,225.0,142.0,63.0,118.0,120.0,25.0,-101.0,-75.0,127.0,127.0,-128.0,112.0,85.0,-58.0
108.0,127.0,0.0,225.0,142.0,65.0,118.0,120.0,25.0,-101.0,-75.0,127.0,127.0,-128.0,112.0,85.0,-58.0
93.0,123.0,0.0,225.0,152.0,157.0,128.0,118.0,29.0,-98.0,-77.0,126.0,127.0,-127.0,111.0,85.0,-57.0
93.0,122.0,0.0,224.0,152.0,158.0,129.0,119.0,29.0,-98.0,-77.0,126.0,127.0,-127.0,111.0,85.0,-57.0
94.0,125.0,0.0,230.0,148.0,144.0,126.0,118.0,29.0,-98.0,-77.0,126.0,127.0,-127.0,111.0,85.0,-57.0
94.0,124.0,0.0,229.0,149.0,146.0,126.0,118.0,29.0,-98.0,-77.0,126.0,127.0,-127.0,111.0,85.0,-57.0
94.0,124.0,0.0,229.0,149.0,148.0,126.0,118.0,29.0,-98.0,-77.0,126.0,127.0,-127.0,111.0,85.0,-57.0
93.0,123.0,0.0,228.0,149.0,149.0,126.0,118.0,29.0,-98.0,-77.0,126.0,127.0,-127.0,111.0,85.0,-57.0
93.0,123.0,0.0,228.0,150.0,151.0,126.0,118.0,29.0,-98.0,-77.0,126.0,127.0,-127.0,111.0,85.0,-57.0
93.0,123.0,0.0,227.0,150.0,152.0,127.0,118.0,29.0,-98.0,-77.0,126.0,127.0,-127.0,111.0,85.0,-57.0
93.0,123.0,0.0,227.0,151.0,155.0,127.0,118.0,29.0,-98.0,-77.0,126.0,127.0,-127.0,111.0,85.0,-57.0
93.0,123.0,0.0,226.0,151.0,156.0,127.0,118.0,29.0,-98.0,-77.0,126.0,127.0,-127.0,111.0,85.0,-57.0
103.0,120.0,0.0,179.0,161.0,100.0,127.0,124.0,29.0,-95.0,-79.0,124.0,-128.0,-127.0,111.0,85.0,-56.0
100.0,118.0,0.0,183.0,163.0,121.0,127.0,123.0,29.0,-95.0,-79.0,124.0,-128.0,-127.0,111.0,85.0,-56.0
101.0,118.0,0.0,182.0,163.0,119.0,127.0,123.0,29.0,-95.0,-79.0,124.0,-128.0,-127.0,111.0,85.0,-56.0
101.0,118.0,0.0,182.0,162.0,117.0,127.0,123.0,29.0,-95.0,-79.0,124.0,-128.0,-127.0,111.0,85.0,-56.0
101.0,118.0,0.0,181.0,162.0,114.0,127.0,123.0,29.0,-95.0,-79.0,124.0,-128.0,-127.0,111.0,85.0,-56.0
102.0,118.0,0.0,180.0,162.0,112.0,127.0,123.0,29.0,-95.0,-79.0,124.0,-128.0,-127.0,111.0,85.0,-56.0
102.0,119.0,0.0,180.0,162.0,110.0,127.0,123.0,29.0,-95.0,-79.0,124.0,-128.0,-127.0,111.0,85.0,-56.0
102.0,119.0,0.0,179.0,161.0,108.0,127.0,124.0,29.0,-95.0,-79.0,124.0,-128.0,-127.0,111.0,85.0,-56.0
102.0,119.0,0.0,179.0,161.0,105.0,127.0,124.0,29.0,-95.0,-79.0,124.0,-128.0,-127.0,111.0,85.0,-56.0
103.0,119.0,0.0,179.0,161.0,102.0,127.0,124.0,29.0,-95.0,-79.0,124.0,-128.0,-127.0,111.0,85.0,-56.0
116.0,133.0,0.0,218.0,145.0,25.0,138.0,127.0,24.0,-96.0,-81.0,123.0,-128.0,-128.0,110.0,85.0,-55.0
116.0,134.0,0.0,220.0,145.0,25.0,139.0,127.0,24.0,-96.0,-81.0,123.0,-128.0,-128.0,110.0,85.0,-55.0
117.0,134.0,0.0,222.0,144.0,24.0,139.0,127.0,24.0,-96.0,-81.0,123.0,-128.0,-128.0,110.0,85.0,-55.0
117.0,134.0,0.0,224.0,144.0,23.0,139.0,127.0,24.0,-96.0,-81.0,123.0,-128.0,-128.0,110.0,85.0,-55.0
117.0,134.0,0.0,225.0,144.0,23.0,139.0,127.0,24.0,-96.0,-81.0,123.0,-128.0,-128.0,110.0,85.0,-55.0
117.0,134.0,0.0,227.0,143.0,23.0,139.0,127.0,24.0,-96.0,-81.0,123.0,-128.0,-128.0,110.0,85.0,-55.0
118.0,134.0,0.0,229.0,143.0,23.0,139.0,127.0,24.0,-96.0,-81.0,123.0,-128.0,-128.0,110.0,85.0,-55.0
118.0,134.0,0.0,230.0,143.0,22.0,139.0,127.0,24.0,-96.0,-81.0,123.0,-128.0,-128.0,110.0,85.0,-55.0
118.0,134.0,0.0,232.0,142.0,22.0,139.0,127.0,24.0,-96.0,-81.0,123.0,-128.0,-128.0,110.0,85.0,-55.0
118.0,134.0,0.0,233.0,142.0,21.0,139.0,127.0,24.0,-96.0,-81.0,123.0,-128.0,-128.0,110.0,85.0,-55.0
110.0,120.0,1.0,226.0,122.0,33.0,120.0,123.0,21.0,-100.0,-80.0,122.0,-128.0,-128.0,110.0,85.0,-55.0
110.0,120.0,2.0,224.0,121.0,33.0,119.0,123.0,21.0,-100.0,-80.0,122.0,-128.0,-128.0,110.0,85.0,-55.0
109.0,119.0,4.0,222.0,120.0,33.0,118.0,123.0,21.0,-100.0,-80.0,122.0,-128.0,-128.0,110.0,85.0,-55.0
109.0,119.0,7.0,220.0,119.0,34.0,118.0,123.0,21.0,-100.0,-80.0,122.0,-128.0,-128.0,110.0,85.0,-55.0
109.0,118.0,9.0,219.0,119.0,34.0,117.0,123.0,21.0,-100.0,-80.0,122.0,-128.0,-128.0,110.0,85.0,-55.0
109.0,118.0,12.0,217.0,118.0,35.0,117.0,123.0,21.0,-100.0,-80.0,122.0,-128.0,-128.0,110.0,85.0,-55.0
109.0,117.0,15.0,216.0,118.0,35.0,116.0,123.0,21.0,-100.0,-80.0,122.0,-128.0,-128.0,110.0,85.0,-55.0
108.0,117.0,18.0,215.0,117.0,35.0,116.0,123.0,21.0,-100.0,-80.0,122.0,-128.0,-128.0,110.0,85.0,-55.0
108.0,117.0,20.0,214.0,117.0,36.0,115.0,123.0,21.0,-100.0,-80.0,122.0,-128.0,-128.0,110.0,85.0,-55.0
110.0,121.0,0.0,228.0,123.0,32.0,120.0,124.0,21.0,-100.0,-80.0,122.0,-128.0,-128.0,110.0,85.0,-55.0
99.0,109.0,198.0,151.0,96.0,33.0,113.0,123.0,20.0,-101.0,-77.0,122.0,127.0,127.0,110.0,85.0,-55.0
98.0,110.0,199.0,149.0,96.0,33.0,114.0,123.0,20.0,-101.0,-77.0,122.0,127.0,127.0,110.0,85.0,-55.0
98.0,110.0,201.0,148.0,95.0,34.0,114.0,123.0,20.0,-101.0,-77.0,122.0,127.0,127.0,110.0,85.0,-55.0
98.0,110.0,203.0,147.0,95.0,34.0,114.0,123.0,20.0,-101.0,-77.0,122.0,127.0,127.0,110.0,85.0,-55.0
98.0,110.0,205.0,145.0,95.0,34.0,115.0,123.0,20.0,-101.0,-77.0,122.0,127.0,127.0,110.0,85.0,-55.0
99.0,111.0,207.0,144.0,94.0,34.0,115.0,123.0,20.0,-101.0,-77.0,122.0,127.0,127.0,110.0,85.0,-55.0
99.0,111.0,209.0,142.0,94.0,34.0,116.0,123.0,20.0,-101.0,-77.0,122.0,127.0,127.0,110.0,85.0,-55.0
99.0,111.0,211.0,141.0,94.0,34.0,116.0,123.0,20.0,-101.0,-77.0,122.0,127.0,127.0,110.0,85.0,-55.0
99.0,108.0,195.0,153.0,97.0,33.0,113.0,123.0,20.0,-101.0,-77.0,122.0,127.0,127.0,110.0,85.0,-55.0
99.0,109.0,196.0,152.0,96.0,33.0,113.0,123.0,20.0,-101.0,-77.0,122.0,127.0,127.0,110.0,85.0,-55.0
116.0,122.0,254.0,120.0,94.0,64.0,128.0,128.0,22.0,-101.0,-74.0,122.0,127.0,127.0,110.0,85.0,-55.0
116.0,122.0,254.0,120.0,94.0,64.0,128.0,128.0,22.0,-101.0,-74.0,122.0,127.0,127.0,110.0,85.0,-55.0
116.0,122.0,254.0,120.0,94.0,65.0,129.0,128.0,22.0,-101.0,-74.0,122.0,127.0,127.0,110.0,85.0,-55.0
117.0,123.0,254.0,120.0,94.0,66.0,129.0,128.0,22.0,-101.0,-74.0,122.0,127.0,127.0,110.0,85.0,-55.0
117.0,123.0,254.0,120.0,93.0,66.0,129.0,128.0,22.0,-101.0,-74.0,122.0,127.0,127.0,110.0,85.0,-55.0
117.0,123.0,254.0,120.0,94.0,67.0,129.0,127.0,22.0,-101.0,-74.0,122.0,127.0,127.0,110.0,85.0,-55.0
117.0,123.0,254.0,120.0,93.0,67.0,129.0,127.0,22.0,-101.0,-74.0,122.0,127.0,127.0,110.0,85.0,-55.0
115.0,120.0,254.0,119.0,93.0,61.0,128.0,127.0,22.0,-101.0,-74.0,122.0,127.0,127.0,110.0,85.0,-55.0
115.0,121.0,254.0,120.0,93.0,62.0,128.0,127.0,22.0,-101.0,-74.0,122.0,127.0,127.0,110.0,85.0,-55.0
116.0,121.0,254.0,120.0,94.0,63.0,128.0,127.0,22.0,-101.0,-74.0,122.0,127.0,127.0,110.0,85.0,-55.0
123.0,124.0,254.0,124.0,103.0,88.0,134.0,128.0,24.0,-105.0,-73.0,123.0,127.0,127.0,110.0,85.0,-55.0
123.0,124.0,254.0,123.0,103.0,88.0,134.0,128.0,24.0,-105.0,-73.0,123.0,127.0,127.0,110.0,85.0,-55.0
123.0,124.0,254.0,123.0,103.0,88.0,134.0,128.0,24.0,-105.0,-73.0,123.0,127.0,127.0,110.0,85.0,-55.0
123.0,124.0,254.0,123.0,103.0,88.0,134.0,128.0,24.0,-105.0,-73.0,123.0,127.0,127.0,110.0,85.0,-55.0
123.0,124.0,254.0,123.0,103.0,88.0,134.0,128.0,24.0,-105.0,-73.0,123.0,127.0,127.0,110.0,85.0,-55.0
123.0,124.0,254.0,123.0,103.0,89.0,134.0,128.0,24.0,-105.0,-73.0,123.0,127.0,127.0,110.0,85.0,-55.0
123.0,124.0,254.0,124.0,102.0,87.0,134.0,128.0,24.0,-105.0,-73.0,123.0,127.0,127.0,110.0,85.0,-55.0
123.0,124.0,254.0,124.0,102.0,87.0,134.0,128.0,24.0,-105.0,-73.0,123.0,127.0,127.0,110.0,85.0,-55.0
123.0,124.0,254.0,124.0,102.0,87.0,134.0,128.0,24.0,-105.0,-73.0,123.0,127.0,127.0,110.0,85.0,-55.0
123.0,124.0,254.0,124.0,102.0,87.0,134.0,128.0,24.0,-105.0,-73.0,123.0,127.0,127.0,110.0,85.0,-55.0
124.0,124.0,254.0,108.0,106.0,88.0,126.0,128.0,25.0,-108.0,-74.0,124.0,127.0,127.0,111.0,85.0,-55.0
124.0,124.0,254.0,108.0,105.0,88.0,126.0,128.0,25.0,-108.0,-74.0,124.0,127.0,127.0,111.0,85.0,-55.0
124.0,124.0,254.0,108.0,105.0,88.0,126.0,128.0,25.0,-108.0,-74.0,124.0,127.0,127.0,111.0,85.0,-55.0
124.0,124.0,254.0,108.0,105.0,88.0,126.0,128.0,25.0,-108.0,-74.0,124.0,127.0,127.0,111.0,85.0,-55.0
124.0,123.0,254.0,108.0,106.0,88.0,126.0,128.0,25.0,-108.0,-74.0,124.0,127.0,127.0,111.0,85.0,-55.0
125.0,123.0,254.0,109.0,106.0,89.0,128.0,129.0,25.0,-108.0,-74.0,124.0,127.0,127.0,111.0,85.0,-55.0
125.0,123.0,254.0,109.0,106.0,89.0,127.0,129.0,25.0,-108.0,-74.0,124.0,127.0,127.0,111.0,85.0,-55.0
125.0,123.0,254.0,109.0,106.0,89.0,127.0,129.0,25.0,-108.0,-74.0,124.0,127.0,127.0,111.0,85.0,-55.0
125.0,123.0,254.0,109.0,106.0,89.0,127.0,129.0,25.0,-108.0,-74.0,124.0,127.0,127.0,111.0,85.0,-55.0
125.0,124.0,254.0,109.0,106.0,89.0,127.0,129.0,25.0,-108.0,-74.0,124.0,127.0,127.0,111.0,85.0,-55.0
123.0,120.0,207.0,104.0,114.0,89.0,126.0,127.0,25.0,-109.0,-75.0,125.0,127.0,127.0,111.0,85.0,-55.0
123.0,120.0,207.0,105.0,115.0,89.0,126.0,127.0,25.0,-109.0,-75.0,125.0,127.0,127.0,111.0,85.0,-55.0
123.0,120.0,207.0,106.0,116.0,89.0,126.0,127.0,25.0,-109.0,-75.0,125.0,127.0,127.0,111.0,85.0,-55.0
123.0,121.0,205.0,107.0,116.0,89.0,126.0,127.0,25.0,-109.0,-75.0,125.0,127.0,127.0,111.0,85.0,-55.0
123.0,121.0,212.0,107.0,114.0,88.0,125.0,127.0,25.0,-109.0,-75.0,125.0,127.0,127.0,111.0,85.0,-55.0
123.0,121.0,211.0,107.0,114.0,88.0,125.0,127.0,25.0,-109.0,-75.0,125.0,127.0,127.0,111.0,85.0,-55.0
123.0,121.0,210.0,106.0,114.0,88.0,125.0,127.0,25.0,-109.0,-75.0,125.0,127.0,127.0,111.0,85.0,-55.0
123.0,120.0,209.0,105.0,114.0,88.0,125.0,127.0,25.0,-109.0,-75.0,125.0,127.0,127.0,111.0,85.0,-55.0
123.0,120.0,208.0,104.0,114.0,89.0,126.0,127.0,25.0,-109.0,-75.0,125.0,127.0,127.0,111.0,85.0,-55.0
123.0,120.0,207.0,104.0,114.0,89.0,126.0,127.0,25.0,-109.0,-75.0,125.0,127.0,127.0,111.0,85.0,-55.0
122.0,122.0,162.0,113.0,121.0,101.0,127.0,127.0,25.0,-110.0,-75.0,125.0,127.0,127.0,112.0,85.0,-55.0
122.0,122.0,161.0,113.0,121.0,101.0,127.0,127.0,25.0,-110.0,-75.0,125.0,127.0,127.0,112.0,85.0,-55.0
122.0,122.0,160.0,113.0,121.0,101.0,127.0,127.0,25.0,-110.0,-75.0,125.0,127.0,127.0,112.0,85.0,-55.0
122.0,121.0,167.0,112.0,119.0,98.0,127.0,127.0,25.0,-110.0,-75.0,125.0,127.0,127.0,112.0,85.0,-55.0
122.0,121.0,167.0,112.0,119.0,98.0,127.0,127.0,25.0,-110.0,-75.0,125.0,127.0,127.0,112.0,85.0,-55.0
122.0,121.0,167.0,112.0,119.0,99.0,127.0,127.0,25.0,-110.0,-75.0,125.0,127.0,127.0,112.0,85.0,-55.0
122.0,121.0,166.0,112.0,120.0,99.0,127.0,127.0,25.0,-110.0,-75.0,125.0,127.0,127.0,112.0,85.0,-55.0
122.0,121.0,165.0,112.0,120.0,100.0,127.0,127.0,25.0,-110.0,-75.0,125.0,127.0,127.0,112.0,85.0,-55.0
122.0,122.0,164.0,112.0,120.0,100.0,127.0,127.0,25.0,-110.0,-75.0,125.0,127.0,127.0,112.0,85.0,-55.0
122.0,122.0,163.0,112.0,120.0,100.0,127.0,127.0,25.0,-110.0,-75.0,125.0,127.0,127.0,112.0,85.0,-55.0
123.0,123.0,154.0,117.0,124.0,113.0,128.0,128.0,27.0,-112.0,-74.0,125.0,127.0,127.0,113.0,85.0,-55.0
123.0,123.0,154.0,117.0,124.0,113.0,128.0,128.0,27.0,-112.0,-74.0,125.0,127.0,127.0,113.0,85.0,-55.0
122.0,123.0,153.0,116.0,123.0,111.0,127.0,127.0,27.0,-112.0,-74.0,125.0,127.0,127.0,113.0,85.0,-55.0
122.0,123.0,153.0,116.0,124.0,111.0,127.0,127.0,27.0,-112.0,-74.0,125.0,127.0,127.0,113.0,85.0,-55.0
122.0,123.0,154.0,117.0,124.0,111.0,128.0,127.0,27.0,-112.0,-74.0,125.0,127.0,127.0,113.0,85.0,-55.0
122.0,122.0,154.0,117.0,124.0,112.0,128.0,127.0,27.0,-112.0,-74.0,125.0,127.0,127.0,113.0,85.0,-55.0
123.0,123.0,154.0,117.0,124.0,112.0,128.0,127.0,27.0,-112.0,-74.0,125.0,127.0,127.0,113.0,85.0,-55.0
123.0,123.0,154.0,117.0,124.0,112.0,128.0,127.0,27.0,-112.0,-74.0,125.0,127.0,127.0,113.0,85.0,-55.0
123.0,122.0,154.0,117.0,124.0,113.0,128.0,128.0,27.0,-112.0,-74.0,125.0,127.0,127.0,113.0,85.0,-55.0
123.0,122.0,154.0,117.0,124.0,113.0,128.0,128.0,27.0,-112.0,-74.0,125.0,127.0,127.0,113.0,85.0,-55.0
124.0,120.0,162.0,119.0,125.0,119.0,127.0,128.0,27.0,-115.0,-72.0,125.0,127.0,127.0,113.0,85.0,-55.0
124.0,121.0,160.0,119.0,125.0,117.0,128.0,128.0,27.0,-115.0,-72.0,125.0,127.0,127.0,113.0,85.0,-55.0
124.0,121.0,160.0,119.0,125.0,118.0,128.0,128.0,27.0,-115.0,-72.0,125.0,127.0,127.0,113.0,85.0,-55.0
124.0,121.0,160.0,119.0,125.0,118.0,127.0,128.0,27.0,-115.0,-72.0,125.0,127.0,127.0,113.0,85.0,-55.0
124.0,120.0,160.0,119.0,125.0,118.0,127.0,127.0,27.0,-115.0,-72.0,125.0,127.0,127.0,113.0,85.0,-55.0
124.0,120.0,160.0,119.0,125.0,118.0,127.0,128.0,27.0,-115.0,-72.0,125.0,127.0,127.0,113.0,85.0,-55.0
124.0,120.0,161.0,119.0,125.0,118.0,127.0,128.0,27.0,-115.0,-72.0,125.0,127.0,127.0,113.0,85.0,-55.0
124.0,120.0,161.0,119.0,125.0,118.0,127.0,128.0,27.0,-115.0,-72.0,125.0,127.0,127.0,113.0,85.0,-55.0
124.0,120.0,161.0,119.0,125.0,118.0,127.0,128.0,27.0,-115.0,-72.0,125.0,127.0,127.0,113.0,85.0,-55.0
124.0,120.0,161.0,119.0,125.0,119.0,127.0,128.0,27.0,-115.0,-72.0,125.0,127.0,127.0,113.0,85.0,-55.0
125.0,120.0,166.0,118.0,123.0,117.0,126.0,127.0,26.0,-114.0,-71.0,125.0,127.0,127.0,114.0,85.0,-55.0
125.0,120.0,164.0,119.0,124.0,117.0,125.0,127.0,26.0,-114.0,-71.0,125.0,127.0,127.0,114.0,85.0,-55.0
125.0,121.0,163.0,119.0,124.0,117.0,125.0,127.0,26.0,-114.0,-71.0,125.0,127.0,127.0,114.0,85.0,-55.0
125.0,121.0,163.0,119.0,124.0,117.0,125.0,127.0,26.0,-114.0,-71.0,125.0,127.0,127.0,114.0,85.0,-55.0
125.0,121.0,162.0,120.0,124.0,117.0,125.0,127.0,26.0,-114.0,-71.0,125.0,127.0,127.0,114.0,85.0,-55.0
125.0,121.0,162.0,120.0,124.0,117.0,125.0,127.0,26.0,-114.0,-71.0,125.0,127.0,127.0,114.0,85.0,-55.0
125.0,122.0,162.0,120.0,124.0,117.0,125.0,127.0,26.0,-114.0,-71.0,125.0,127.0,127.0,114.0,85.0,-55.0
125.0,122.0,163.0,120.0,124.0,117.0,125.0,127.0,26.0,-114.0,-71.0,125.0,127.0,127.0,114.0,85.0,-55.0
125.0,122.0,163.0,121.0,124.0,116.0,126.0,127.0,26.0,-114.0,-71.0,125.0,127.0,127.0,114.0,85.0,-55.0
125.0,122.0,163.0,121.0,124.0,116.0,126.0,127.0,26.0,-114.0,-71.0,125.0,127.0,127.0,114.0,85.0,-55.0
125.0,121.0,160.0,119.0,125.0,118.0,126.0,128.0,25.0,-113.0,-71.0,126.0,127.0,127.0,115.0,85.0,-55.0
125.0,121.0,161.0,119.0,125.0,119.0,126.0,128.0,25.0,-113.0,-71.0,126.0,127.0,127.0,115.0,85.0,-55.0
125.0,121.0,161.0,118.0,125.0,119.0,126.0,128.0,25.0,-113.0,-71.0,126.0,127.0,127.0,115.0,85.0,-55.0
125.0,121.0,162.0,118.0,125.0,119.0,126.0,128.0,25.0,-113.0,-71.0,126.0,127.0,127.0,115.0,85.0,-55.0
125.0,121.0,162.0,118.0,125.0,119.0,126.0,128.0,25.0,-113.0,-71.0,126.0,127.0,127.0,115.0,85.0,-55.0
125.0,121.0,162.0,118.0,125.0,118.0,126.0,128.0,25.0,-113.0,-71.0,126.0,127.0,127.0,115.0,85.0,-55.0
125.0,122.0,162.0,118.0,124.0,118.0,126.0,128.0,25.0,-113.0,-71.0,126.0,127.0,127.0,115.0,85.0,-55.0
125.0,122.0,161.0,119.0,125.0,118.0,126.0,128.0,25.0,-113.0,-71.0,126.0,127.0,127.0,115.0,85.0,-55.0
125.0,123.0,160.0,119.0,125.0,118.0,126.0,128.0,25.0,-113.0,-71.0,126.0,127.0,127.0,115.0,85.0,-55.0
125.0,121.0,161.0,119.0,125.0,118.0,126.0,128.0,25.0,-113.0,-71.0,126.0,127.0,127.0,115.0,85.0,-55.0
124.0,123.0,156.0,125.0,127.0,122.0,127.0,128.0,25.0,-112.0,-70.0,126.0,127.0,127.0,115.0,85.0,-55.0
124.0,123.0,157.0,125.0,127.0,122.0,127.0,128.0,25.0,-112.0,-70.0,126.0,127.0,127.0,115.0,85.0,-55.0
124.0,123.0,157.0,125.0,127.0,122.0,127.0,128.0,25.0,-112.0,-70.0,126.0,127.0,127.0,115.0,85.0,-55.0
124.0,123.0,158.0,124.0,127.0,122.0,127.0,128.0,25.0,-112.0,-70.0,126.0,127.0,127.0,115.0,85.0,-55.0
124.0,123.0,157.0,124.0,127.0,122.0,127.0,128.0,25.0,-112.0,-70.0,126.0,127.0,127.0,115.0,85.0,-55.0
124.0,123.0,157.0,124.0,127.0,121.0,127.0,128.0,25.0,-112.0,-70.0,126.0,127.0,127.0,115.0,85.0,-55.0
124.0,123.0,157.0,124.0,127.0,121.0,127.0,128.0,25.0,-112.0,-70.0,126.0,127.0,127.0,115.0,85.0,-55.0
124.0,123.0,156.0,124.0,127.0,121.0,127.0,127.0,25.0,-112.0,-70.0,126.0,127.0,127.0,115.0,85.0,-55.0
124.0,123.0,156.0,125.0,126.0,121.0,127.0,127.0,25.0,-112.0,-70.0,126.0,127.0,127.0,115.0,85.0,-55.0
124.0,123.0,156.0,125.0,127.0,121.0,127.0,127.0,25.0,-112.0,-70.0,126.0,127.0,127.0,115.0,85.0,-55.0
125.0,124.0,150.0,123.0,128.0,122.0,126.0,128.0,24.0,-111.0,-70.0,126.0,127.0,127.0,115.0,85.0,-55.0
125.0,124.0,150.0,123.0,127.0,122.0,126.0,128.0,24.0,-111.0,-70.0,126.0,127.0,127.0,115.0,85.0,-55.0
125.0,125.0,149.0,123.0,127.0,122.0,125.0,128.0,24.0,-111.0,-70.0,126.0,127.0,127.0,115.0,85.0,-55.0
125.0,125.0,149.0,123.0,127.0,122.0,125.0,128.0,24.0,-111.0,-70.0,126.0,127.0,127.0,115.0,85.0,-55.0
125.0,125.0,149.0,123.0,127.0,121.0,125.0,128.0,24.0,-111.0,-70.0,126.0,127.0,127.0,115.0,85.0,-55.0
125.0,125.0,149.0,123.0,127.0,121.0,125.0,128.0,24.0,-111.0,-70.0,126.0,127.0,127.0,115.0,85.0,-55.0
125.0,125.0,149.0,123.0,127.0,121.0,125.0,128.0,24.0,-111.0,-70.0,126.0,127.0,127.0,115.0,85.0,-55.0
125.0,124.0,151.0,123.0,128.0,122.0,126.0,128.0,24.0,-111.0,-70.0,126.0,127.0,127.0,115.0,85.0,-55.0
125.0,124.0,151.0,123.0,128.0,122.0,126.0,128.0,24.0,-111.0,-70.0,126.0,127.0,127.0,115.0,85.0,-55.0
125.0,124.0,150.0,124.0,128.0,122.0,126.0,128.0,24.0,-111.0,-70.0,126.0,127.0,127.0,115.0,85.0,-55.0
125.0,123.0,149.0,122.0,126.0,120.0,125.0,128.0,23.0,-110.0,-71.0,127.0,127.0,127.0,115.0,85.0,-55.0
125.0,123.0,150.0,121.0,126.0,120.0,125.0,128.0,23.0,-110.0,-71.0,127.0,127.0,127.0,115.0,85.0,-55.0
125.0,123.0,150.0,121.0,126.0,120.0,125.0,128.0,23.0,-110.0,-71.0,127.0,127.0,127.0,115.0,85.0,-55.0
125.0,123.0,150.0,121.0,127.0,119.0,126.0,128.0,23.0,-110.0,-71.0,127.0,127.0,127.0,115.0,85.0,-55.0
125.0,124.0,150.0,121.0,127.0,120.0,125.0,128.0,23.0,-110.0,-71.0,127.0,127.0,127.0,115.0,85.0,-55.0
125.0,124.0,149.0,122.0,127.0,120.0,125.0,128.0,23.0,-110.0,-71.0,127.0,127.0,127.0,115.0,85.0,-55.0
125.0,123.0,148.0,122.0,126.0,119.0,125.0,128.0,23.0,-110.0,-71.0,127.0,127.0,127.0,115.0,85.0,-55.0
125.0,123.0,149.0,122.0,126.0,119.0,125.0,128.0,23.0,-110.0,-71.0,127.0,127.0,127.0,115.0,85.0,-55.0
125.0,123.0,149.0,122.0,126.0,120.0,125.0,128.0,23.0,-110.0,-71.0,127.0,127.0,127.0,115.0,85.0,-55.0
125.0,123.0,149.0,122.0,126.0,120.0,125.0,128.0,23.0,-110.0,-71.0,127.0,127.0,127.0,115.0,85.0,-55.0
125.0,125.0,147.0,124.0,127.0,120.0,125.0,128.0,22.0,-109.0,-71.0,126.0,127.0,127.0,115.0,85.0,-55.0
125.0,125.0,147.0,124.0,128.0,120.0,125.0,128.0,22.0,-109.0,-71.0,126.0,127.0,127.0,115.0,85.0,-55.0
125.0,125.0,147.0,124.0,128.0,121.0,125.0,128.0,22.0,-109.0,-71.0,126.0,127.0,127.0,115.0,85.0,-55.0
125.0,125.0,146.0,124.0,128.0,121.0,125.0,128.0,22.0,-109.0,-71.0,126.0,127.0,127.0,115.0,85.0,-55.0
125.0,126.0,145.0,124.0,128.0,121.0,125.0,128.0,22.0,-109.0,-71.0,126.0,127.0,127.0,115.0,85.0,-55.0
125.0,125.0,146.0,125.0,127.0,120.0,125.0,127.0,22.0,-109.0,-71.0,126.0,127.0,127.0,115.0,85.0,-55.0
125.0,125.0,146.0,125.0,127.0,120.0,125.0,127.0,22.0,-109.0,-71.0,126.0,127.0,127.0,115.0,85.0,-55.0
125.0,125.0,146.0,125.0,127.0,120.0,125.0,128.0,22.0,-109.0,-71.0,126.0,127.0,127.0,115.0,85.0,-55.0
125.0,125.0,146.0,125.0,127.0,120.0,125.0,128.0,22.0,-109.0,-71.0,126.0,127.0,127.0,115.0,85.0,-55.0
125.0,125.0,147.0,125.0,127.0,120.0,125.0,128.0,22.0,-109.0,-71.0,126.0,127.0,127.0,115.0,85.0,-55.0
125.0,124.0,145.0,123.0,127.0,123.0,126.0,128.0,23.0,-109.0,-71.0,126.0,127.0,127.0,116.0,85.0,-55.0
125.0,124.0,145.0,123.0,127.0,123.0,126.0,128.0,23.0,-109.0,-71.0,126.0,127.0,127.0,116.0,85.0,-55.0
125.0,124.0,145.0,124.0,127.0,123.0,126.0,128.0,23.0,-109.0,-71.0,126.0,127.0,127.0,116.0,85.0,-55.0
125.0,125.0,144.0,124.0,127.0,124.0,126.0,128.0,23.0,-109.0,-71.0,126.0,127.0,127.0,116.0,85.0,-55.0
125.0,124.0,143.0,123.0,127.0,123.0,126.0,128.0,23.0,-109.0,-71.0,126.0,127.0,127.0,116.0,85.0,-55.0
125.0,124.0,144.0,123.0,127.0,123.0,126.0,128.0,23.0,-109.0,-71.0,126.0,127.0,127.0,116.0,85.0,-55.0
125.0,124.0,144.0,123.0,127.0,123.0,126.0,128.0,23.0,-109.0,-71.0,126.0,127.0,127.0,116.0,85.0,-55.0
125.0,124.0,144.0,123.0,127.0,123.0,126.0,128.0,23.0,-109.0,-71.0,126.0,127.0,127.0,116.0,85.0,-55.0
125.0,124.0,145.0,123.0,127.0,123.0,126.0,128.0,23.0,-109.0,-71.0,126.0,127.0,127.0,116.0,85.0,-55.0
125.0,124.0,145.0,123.0,127.0,123.0,126.0,128.0,23.0,-109.0,-71.0,126.0,127.0,127.0,116.0,85.0,-55.0
125.0,124.0,143.0,124.0,127.0,122.0,126.0,128.0,24.0,-110.0,-71.0,127.0,127.0,127.0,116.0,85.0,-55.0
125.0,124.0,143.0,124.0,127.0,122.0,126.0,127.0,24.0,-110.0,-71.0,127.0,127.0,127.0,116.0,85.0,-55.0
125.0,124.0,143.0,124.0,127.0,122.0,126.0,127.0,24.0,-110.0,-71.0,127.0,127.0,127.0,116.0,85.0,-55.0
125.0,123.0,142.0,124.0,127.0,123.0,126.0,127.0,24.0,-110.0,-71.0,127.0,127.0,127.0,116.0,85.0,-55.0
125.0,123.0,142.0,124.0,127.0,123.0,126.0,127.0,24.0,-110.0,-71.0,127.0,127.0,127.0,116.0,85.0,-55.0
125.0,123.0,142.0,124.0,127.0,123.0,126.0,127.0,24.0,-110.0,-71.0,127.0,127.0,127.0,116.0,85.0,-55.0
125.0,123.0,143.0,124.0,127.0,122.0,126.0,127.0,24.0,-110.0,-71.0,127.0,127.0,127.0,116.0,85.0,-55.0
125.0,124.0,143.0,124.0,127.0,122.0,126.0,127.0,24.0,-110.0,-71.0,127.0,127.0,127.0,116.0,85.0,-55.0
125.0,124.0,143.0,124.0,127.0,122.0,126.0,127.0,24.0,-110.0,-71.0,127.0,127.0,127.0,116.0,85.0,-55.0
125.0,124.0,143.0,124.0,127.0,122.0,126.0,127.0,24.0,-110.0,-71.0,127.0,127.0,127.0,116.0,85.0,-55.0
125.0,124.0,143.0,124.0,127.0,121.0,125.0,128.0,24.0,-111.0,-71.0,127.0,127.0,127.0,116.0,85.0,-55.0
125.0,124.0,142.0,124.0,127.0,121.0,125.0,128.0,24.0,-111.0,-71.0,127.0,127.0,127.0,116.0,85.0,-55.0
125.0,123.0,143.0,124.0,127.0,121.0,125.0,128.0,24.0,-111.0,-71.0,127.0,127.0,127.0,116.0,85.0,-55.0
125.0,123.0,144.0,124.0,127.0,121.0,125.0,128.0,24.0,-111.0,-71.0,127.0,127.0,127.0,116.0,85.0,-55.0
125.0,124.0,144.0,124.0,127.0,121.0,125.0,128.0,24.0,-111.0,-71.0,127.0,127.0,127.0,116.0,85.0,-55.0
125.0,124.0,144.0,124.0,127.0,121.0,125.0,128.0,24.0,-111.0,-71.0,127.0,127.0,127.0,116.0,85.0,-55.0
125.0,124.0,144.0,124.0,127.0,121.0,125.0,128.0,24.0,-111.0,-71.0,127.0,127.0,127.0,116.0,85.0,-55.0
126.0,124.0,144.0,124.0,127.0,121.0,125.0,128.0,24.0,-111.0,-71.0,127.0,127.0,127.0,116.0,85.0,-55.0
126.0,124.0,144.0,124.0,127.0,121.0,125.0,128.0,24.0,-111.0,-71.0,127.0,127.0,127.0,116.0,85.0,-55.0
126.0,124.0,143.0,124.0,127.0,121.0,125.0,128.0,24.0,-111.0,-71.0,127.0,127.0,127.0,116.0,85.0,-55.0
125.0,125.0,138.0,124.0,127.0,122.0,125.0,128.0,23.0,-110.0,-71.0,127.0,127.0,127.0,116.0,85.0,-55.0
125.0,123.0,142.0,122.0,127.0,122.0,125.0,127.0,23.0,-110.0,-71.0,127.0,127.0,127.0,116.0,85.0,-55.0
125.0,123.0,143.0,122.0,127.0,122.0,125.0,127.0,23.0,-110.0,-71.0,127.0,127.0,127.0,116.0,85.0,-55.0
125.0,123.0,143.0,122.0,127.0,122.0,125.0,127.0,23.0,-110.0,-71.0,127.0,127.0,127.0,116.0,85.0,-55.0
125.0,123.0,142.0,123.0,127.0,122.0,125.0,128.0,23.0,-110.0,-71.0,127.0,127.0,127.0,116.0,85.0,-55.0
125.0,124.0,142.0,123.0,127.0,122.0,125.0,128.0,23.0,-110.0,-71.0,127.0,127.0,127.0,116.0,85.0,-55.0
125.0,124.0,141.0,124.0,127.0,122.0,125.0,128.0,23.0,-110.0,-71.0,127.0,127.0,127.0,116.0,85.0,-55.0
125.0,124.0,141.0,124.0,127.0,122.0,125.0,128.0,23.0,-110.0,-71.0,127.0,127.0,127.0,116.0,85.0,-55.0
125.0,124.0,140.0,124.0,127.0,122.0,125.0,128.0,23.0,-110.0,-71.0,127.0,127.0,127.0,116.0,85.0,-55.0
125.0,124.0,140.0,124.0,127.0,122.0,125.0,128.0,23.0,-110.0,-71.0,127.0,127.0,127.0,116.0,85.0,-55.0
125.0,125.0,135.0,126.0,127.0,124.0,125.0,128.0,24.0,-111.0,-70.0,127.0,127.0,127.0,117.0,85.0,-55.0
125.0,125.0,136.0,126.0,127.0,124.0,125.0,128.0,24.0,-111.0,-70.0,127.0,127.0,127.0,117.0,85.0,-55.0
125.0,124.0,136.0,125.0,127.0,124.0,125.0,128.0,24.0,-111.0,-70.0,127.0,127.0,127.0,117.0,85.0,-55.0
125.0,124.0,137.0,125.0,127.0,124.0,126.0,128.0,24.0,-111.0,-70.0,127.0,127.0,127.0,117.0,85.0,-55.0
125.0,124.0,137.0,125.0,127.0,124.0,126.0,128.0,24.0,-111.0,-70.0,127.0,127.0,127.0,117.0,85.0,-55.0
124.0,123.0,138.0,125.0,127.0,124.0,126.0,128.0,24.0,-111.0,-70.0,127.0,127.0,127.0,117.0,85.0,-55.0
124.0,123.0,139.0,124.0,127.0,124.0,126.0,127.0,24.0,-111.0,-70.0,127.0,127.0,127.0,117.0,85.0,-55.0
124.0,123.0,139.0,124.0,127.0,124.0,126.0,127.0,24.0,-111.0,-70.0,127.0,127.0,127.0,117.0,85.0,-55.0
124.0,123.0,140.0,124.0,127.0,124.0,126.0,127.0,24.0,-111.0,-70.0,127.0,127.0,127.0,117.0,85.0,-55.0
125.0,123.0,140.0,124.0,127.0,124.0,126.0,127.0,24.0,-111.0,-70.0,127.0,127.0,127.0,117.0,85.0,-55.0
125.0,125.0,136.0,123.0,127.0,126.0,126.0,128.0,25.0,-113.0,-70.0,127.0,127.0,127.0,117.0,85.0,-55.0
125.0,125.0,136.0,123.0,127.0,126.0,126.0,128.0,25.0,-113.0,-70.0,127.0,127.0,127.0,117.0,85.0,-55.0
125.0,124.0,137.0,124.0,127.0,125.0,126.0,128.0,25.0,-113.0,-70.0,127.0,127.0,127.0,117.0,85.0,-55.0
125.0,125.0,138.0,124.0,127.0,125.0,126.0,128.0,25.0,-113.0,-70.0,127.0,127.0,127.0,117.0,85.0,-55.0
125.0,125.0,139.0,125.0,127.0,125.0,126.0,128.0,25.0,-113.0,-70.0,127.0,127.0,127.0,117.0,85.0,-55.0
125.0,124.0,139.0,125.0,127.0,125.0,126.0,128.0,25.0,-113.0,-70.0,127.0,127.0,127.0,117.0,85.0,-55.0
125.0,124.0,140.0,125.0,127.0,125.0,126.0,128.0,25.0,-113.0,-70.0,127.0,127.0,127.0,117.0,85.0,-55.0
125.0,124.0,140.0,124.0,127.0,125.0,126.0,128.0,25.0,-113.0,-70.0,127.0,127.0,127.0,117.0,85.0,-55.0
125.0,123.0,141.0,124.0,126.0,125.0,126.0,128.0,25.0,-113.0,-70.0,127.0,127.0,127.0,117.0,85.0,-55.0
125.0,125.0,136.0,124.0,127.0,126.0,126.0,128.0,25.0,-113.0,-70.0,127.0,127.0,127.0,117.0,85.0,-55.0
126.0,125.0,138.0,125.0,128.0,126.0,126.0,129.0,25.0,-113.0,-70.0,127.0,127.0,127.0,118.0,85.0,-55.0
126.0,125.0,138.0,125.0,128.0,125.0,126.0,128.0,25.0,-113.0,-70.0,127.0,127.0,127.0,118.0,85.0,-55.0
126.0,125.0,138.0,125.0,128.0,125.0,126.0,128.0,25.0,-113.0,-70.0,127.0,127.0,127.0,118.0,85.0,-55.0
126.0,125.0,137.0,125.0,127.0,125.0,126.0,128.0,25.0,-113.0,-70.0,127.0,127.0,127.0,118.0,85.0,-55.0
126.0,125.0,137.0,125.0,127.0,125.0,126.0,128.0,25.0,-113.0,-70.0,127.0,127.0,127.0,118.0,85.0,-55.0
125.0,125.0,137.0,125.0,127.0,125.0,126.0,128.0,25.0,-113.0,-70.0,127.0,127.0,127.0,118.0,85.0,-55.0
125.0,125.0,137.0,125.0,127.0,125.0,126.0,128.0,25.0,-113.0,-70.0,127.0,127.0,127.0,118.0,85.0,-55.0
125.0,124.0,137.0,124.0,127.0,125.0,126.0,128.0,25.0,-113.0,-70.0,127.0,127.0,127.0,118.0,85.0,-55.0
126.0,125.0,137.0,125.0,128.0,126.0,127.0,129.0,25.0,-113.0,-70.0,127.0,127.0,127.0,118.0,85.0,-55.0
126.0,125.0,138.0,125.0,128.0,126.0,127.0,129.0,25.0,-113.0,-70.0,127.0,127.0,127.0,118.0,85.0,-55.0
126.0,125.0,136.0,124.0,127.0,125.0,126.0,128.0,25.0,-113.0,-70.0,127.0,127.0,127.0,118.0,85.0,-55.0
126.0,125.0,136.0,124.0,127.0,125.0,126.0,128.0,25.0,-113.0,-70.0,127.0,127.0,127.0,118.0,85.0,-55.0
126.0,125.0,137.0,124.0,127.0,125.0,126.0,128.0,25.0,-113.0,-70.0,127.0,127.0,127.0,118.0,85.0,-55.0
126.0,125.0,138.0,125.0,127.0,126.0,126.0,128.0,25.0,-113.0,-70.0,127.0,127.0,127.0,118.0,85.0,-55.0
126.0,124.0,138.0,125.0,128.0,126.0,126.0,128.0,25.0,-113.0,-70.0,127.0,127.0,127.0,118.0,85.0,-55.0
126.0,124.0,138.0,125.0,128.0,126.0,126.0,128.0,25.0,-113.0,-70.0,127.0,127.0,127.0,118.0,85.0,-55.0
126.0,124.0,138.0,125.0,128.0,126.0,126.0,128.0,25.0,-113.0,-70.0,127.0,127.0,127.0,118.0,85.0,-55.0
125.0,125.0,133.0,125.0,127.0,125.0,125.0,128.0,25.0,-113.0,-70.0,127.0,127.0,127.0,118.0,85.0,-55.0
126.0,125.0,134.0,124.0,127.0,125.0,125.0,128.0,25.0,-113.0,-70.0,127.0,127.0,127.0,118.0,85.0,-55.0
126.0,125.0,135.0,124.0,127.0,125.0,125.0,128.0,25.0,-113.0,-70.0,127.0,127.0,127.0,118.0,85.0,-55.0
126.0,124.0,138.0,124.0,126.0,126.0,126.0,128.0,25.0,-113.0,-70.0,127.0,127.0,127.0,118.0,85.0,-55.0
126.0,125.0,137.0,124.0,126.0,126.0,126.0,128.0,25.0,-113.0,-70.0,127.0,127.0,127.0,118.0,85.0,-55.0
125.0,125.0,136.0,124.0,126.0,126.0,126.0,128.0,25.0,-113.0,-70.0,127.0,127.0,127.0,118.0,85.0,-55.0
125.0,125.0,135.0,124.0,126.0,126.0,125.0,128.0,25.0,-113.0,-70.0,127.0,127.0,127.0,118.0,85.0,-55.0
125.0,125.0,135.0,124.0,126.0,126.0,125.0,127.0,25.0,-113.0,-70.0,127.0,127.0,127.0,118.0,85.0,-55.0
125.0,126.0,134.0,124.0,126.0,126.0,125.0,127.0,25.0,-113.0,-70.0,127.0,127.0,127.0,118.0,85.0,-55.0
126.0,122.0,139.0,123.0,127.0,127.0,127.0,129.0,25.0,-113.0,-70.0,127.0,127.0,127.0,118.0,85.0,-55.0
126.0,123.0,140.0,123.0,127.0,127.0,127.0,128.0,25.0,-113.0,-70.0,127.0,127.0,127.0,118.0,85.0,-55.0
126.0,123.0,140.0,124.0,127.0,127.0,127.0,128.0,25.0,-113.0,-70.0,127.0,127.0,127.0,118.0,85.0,-55.0
126.0,124.0,139.0,124.0,127.0,127.0,127.0,128.0,25.0,-113.0,-70.0,127.0,127.0,127.0,118.0,85.0,-55.0
125.0,124.0,135.0,124.0,126.0,126.0,126.0,127.0,25.0,-114.0,-70.0,127.0,127.0,127.0,118.0,85.0,-55.0
125.0,125.0,135.0,124.0,126.0,126.0,126.0,127.0,25.0,-114.0,-70.0,127.0,127.0,127.0,118.0,85.0,-55.0
125.0,125.0,134.0,125.0,126.0,126.0,126.0,127.0,25.0,-114.0,-70.0,127.0,127.0,127.0,118.0,85.0,-55.0
125.0,125.0,133.0,125.0,126.0,127.0,126.0,128.0,25.0,-114.0,-70.0,127.0,127.0,127.0,118.0,85.0,-55.0
125.0,126.0,133.0,125.0,126.0,127.0,126.0,128.0,25.0,-114.0,-70.0,127.0,127.0,127.0,118.0,85.0,-55.0
125.0,125.0,136.0,123.0,126.0,127.0,126.0,128.0,25.0,-114.0,-70.0,127.0,127.0,127.0,118.0,85.0,-55.0
125.0,125.0,135.0,123.0,126.0,127.0,126.0,128.0,25.0,-114.0,-70.0,127.0,127.0,127.0,118.0,85.0,-55.0
125.0,125.0,135.0,123.0,126.0,127.0,126.0,128.0,25.0,-114.0,-70.0,127.0,127.0,127.0,118.0,85.0,-55.0
125.0,125.0,136.0,123.0,126.0,127.0,126.0,127.0,25.0,-114.0,-70.0,127.0,127.0,127.0,118.0,85.0,-55.0
125.0,124.0,136.0,124.0,126.0,127.0,126.0,127.0,25.0,-114.0,-70.0,127.0,127.0,127.0,118.0,85.0,-55.0
126.0,124.0,137.0,126.0,127.0,127.0,126.0,128.0,25.0,-114.0,-70.0,127.0,127.0,127.0,118.0,85.0,-55.0
126.0,124.0,137.0,126.0,127.0,127.0,126.0,128.0,25.0,-114.0,-70.0,127.0,127.0,127.0,118.0,85.0,-55.0
126.0,124.0,137.0,126.0,127.0,127.0,126.0,128.0,25.0,-114.0,-70.0,127.0,127.0,127.0,118.0,85.0,-55.0
126.0,124.0,137.0,126.0,127.0,127.0,126.0,128.0,25.0,-114.0,-70.0,127.0,127.0,127.0,118.0,85.0,-55.0
126.0,124.0,136.0,126.0,127.0,127.0,126.0,128.0,25.0,-114.0,-70.0,127.0,127.0,127.0,118.0,85.0,-55.0
126.0,124.0,135.0,126.0,127.0,127.0,126.0,128.0,25.0,-114.0,-70.0,127.0,127.0,127.0,118.0,85.0,-55.0
126.0,124.0,135.0,126.0,127.0,127.0,126.0,128.0,25.0,-114.0,-70.0,127.0,127.0,127.0,118.0,85.0,-55.0
126.0,124.0,135.0,126.0,127.0,127.0,126.0,128.0,25.0,-114.0,-70.0,127.0,127.0,127.0,118.0,85.0,-55.0
126.0,124.0,136.0,126.0,127.0,127.0,126.0,128.0,25.0,-114.0,-70.0,127.0,127.0,127.0,118.0,85.0,-55.0
126.0,124.0,137.0,126.0,127.0,127.0,126.0,128.0,25.0,-114.0,-70.0,127.0,127.0,127.0,118.0,85.0,-55.0
126.0,124.0,136.0,125.0,127.0,124.0,125.0,128.0,24.0,-113.0,-70.0,127.0,127.0,127.0,118.0,85.0,-55.0
126.0,124.0,135.0,125.0,127.0,124.0,125.0,128.0,24.0,-113.0,-70.0,127.0,127.0,127.0,118.0,85.0,-55.0
126.0,124.0,135.0,125.0,127.0,124.0,125.0,128.0,24.0,-113.0,-70.0,127.0,127.0,127.0,118.0,85.0,-55.0
126.0,124.0,135.0,125.0,127.0,124.0,125.0,128.0,24.0,-113.0,-70.0,127.0,127.0,127.0,118.0,85.0,-55.0
126.0,124.0,135.0,125.0,127.0,124.0,125.0,128.0,24.0,-113.0,-70.0,127.0,127.0,127.0,118.0,85.0,-55.0
126.0,124.0,135.0,125.0,127.0,124.0,125.0,128.0,24.0,-113.0,-70.0,127.0,127.0,127.0,118.0,85.0,-55.0
126.0,124.0,135.0,125.0,127.0,124.0,125.0,128.0,24.0,-113.0,-70.0,127.0,127.0,127.0,118.0,85.0,-55.0
126.0,124.0,136.0,125.0,127.0,124.0,125.0,128.0,24.0,-113.0,-70.0,127.0,127.0,127.0,118.0,85.0,-55.0
126.0,124.0,136.0,125.0,127.0,124.0,125.0,128.0,24.0,-113.0,-70.0,127.0,127.0,127.0,118.0,85.0,-55.0
126.0,124.0,136.0,125.0,127.0,124.0,125.0,128.0,24.0,-113.0,-70.0,127.0,127.0,127.0,118.0,85.0,-55.0
126.0,125.0,134.0,126.0,127.0,125.0,126.0,128.0,23.0,-112.0,-71.0,127.0,127.0,127.0,118.0,85.0,-55.0
125.0,126.0,134.0,126.0,127.0,125.0,126.0,128.0,23.0,-112.0,-71.0,127.0,127.0,127.0,118.0,85.0,-55.0
126.0,125.0,135.0,127.0,127.0,125.0,126.0,128.0,23.0,-112.0,-71.0,127.0,127.0,127.0,118.0,85.0,-55.0
126.0,126.0,135.0,126.0,127.0,125.0,126.0,128.0,23.0,-112.0,-71.0,127.0,127.0,127.0,118.0,85.0,-55.0
126.0,126.0,135.0,126.0,127.0,125.0,126.0,128.0,23.0,-112.0,-71.0,127.0,127.0,127.0,118.0,85.0,-55.0
126.0,125.0,135.0,126.0,127.0,125.0,126.0,128.0,23.0,-112.0,-71.0,127.0,127.0,127.0,118.0,85.0,-55.0
126.0,125.0,135.0,126.0,127.0,125.0,126.0,128.0,23.0,-112.0,-71.0,127.0,127.0,127.0,118.0,85.0,-55.0
126.0,125.0,136.0,126.0,127.0,125.0,126.0,128.0,23.0,-112.0,-71.0,127.0,127.0,127.0,118.0,85.0,-55.0
126.0,125.0,135.0,126.0,127.0,125.0,126.0,128.0,23.0,-112.0,-71.0,127.0,127.0,127.0,118.0,85.0,-55.0
125.0,125.0,135.0,126.0,127.0,125.0,126.0,128.0,23.0,-112.0,-71.0,127.0,127.0,127.0,118.0,85.0,-55.0
125.0,126.0,131.0,125.0,126.0,126.0,126.0,128.0,24.0,-112.0,-71.0,127.0,127.0,127.0,118.0,85.0,-55.0
125.0,126.0,132.0,126.0,126.0,126.0,125.0,127.0,24.0,-112.0,-71.0,127.0,127.0,127.0,118.0,85.0,-55.0
125.0,126.0,132.0,126.0,126.0,126.0,125.0,128.0,24.0,-112.0,-71.0,127.0,127.0,127.0,118.0,85.0,-55.0
125.0,126.0,131.0,126.0,126.0,126.0,125.0,128.0,24.0,-112.0,-71.0,127.0,127.0,127.0,118.0,85.0,-55.0
125.0,126.0,131.0,126.0,126.0,126.0,125.0,128.0,24.0,-112.0,-71.0,127.0,127.0,127.0,118.0,85.0,-55.0
125.0,126.0,132.0,126.0,126.0,126.0,125.0,128.0,24.0,-112.0,-71.0,127.0,127.0,127.0,118.0,85.0,-55.0
125.0,125.0,132.0,126.0,126.0,126.0,125.0,128.0,24.0,-112.0,-71.0,127.0,127.0,127.0,118.0,85.0,-55.0
125.0,125.0,132.0,126.0,126.0,126.0,126.0,128.0,24.0,-112.0,-71.0,127.0,127.0,127.0,118.0,85.0,-55.0
125.0,125.0,132.0,126.0,126.0,126.0,125.0,128.0,24.0,-112.0,-71.0,127.0,127.0,127.0,118.0,85.0,-55.0
125.0,126.0,131.0,125.0,126.0,126.0,125.0,128.0,24.0,-112.0,-71.0,127.0,127.0,127.0,118.0,85.0,-55.0
125.0,125.0,130.0,125.0,126.0,127.0,126.0,128.0,24.0,-113.0,-71.0,127.0,127.0,127.0,119.0,85.0,-55.0
125.0,126.0,130.0,125.0,126.0,127.0,126.0,128.0,24.0,-113.0,-71.0,127.0,127.0,127.0,119.0,85.0,-55.0
125.0,126.0,130.0,125.0,126.0,128.0,126.0,128.0,24.0,-113.0,-71.0,127.0,127.0,127.0,119.0,85.0,-55.0
125.0,126.0,130.0,125.0,126.0,128.0,126.0,128.0,24.0,-113.0,-71.0,127.0,127.0,127.0,119.0,85.0,-55.0
125.0,126.0,131.0,125.0,126.0,128.0,126.0,128.0,24.0,-113.0,-71.0,127.0,127.0,127.0,119.0,85.0,-55.0
126.0,125.0,131.0,125.0,126.0,128.0,126.0,128.0,24.0,-113.0,-71.0,127.0,127.0,127.0,119.0,85.0,-55.0
125.0,125.0,131.0,125.0,126.0,127.0,126.0,128.0,24.0,-113.0,-71.0,127.0,127.0,127.0,119.0,85.0,-55.0
125.0,125.0,132.0,125.0,126.0,127.0,126.0,128.0,24.0,-113.0,-71.0,127.0,127.0,127.0,119.0,85.0,-55.0
125.0,126.0,131.0,125.0,126.0,128.0,126.0,128.0,24.0,-113.0,-71.0,127.0,127.0,127.0,119.0,85.0,-55.0
125.0,126.0,131.0,125.0,126.0,128.0,126.0,128.0,24.0,-113.0,-71.0,127.0,127.0,127.0,119.0,85.0,-55.0
125.0,124.0,132.0,126.0,127.0,126.0,126.0,127.0,24.0,-114.0,-71.0,127.0,127.0,127.0,119.0,85.0,-55.0
125.0,125.0,132.0,126.0,127.0,127.0,126.0,128.0,24.0,-114.0,-71.0,127.0,127.0,127.0,119.0,85.0,-55.0
125.0,125.0,132.0,126.0,127.0,127.0,126.0,128.0,24.0,-114.0,-71.0,127.0,127.0,127.0,119.0,85.0,-55.0
125.0,124.0,133.0,126.0,127.0,127.0,126.0,128.0,24.0,-114.0,-71.0,127.0,127.0,127.0,119.0,85.0,-55.0
125.0,125.0,134.0,126.0,127.0,127.0,126.0,128.0,24.0,-114.0,-71.0,127.0,127.0,127.0,119.0,85.0,-55.0
126.0,124.0,134.0,126.0,127.0,127.0,126.0,128.0,24.0,-114.0,-71.0,127.0,127.0,127.0,119.0,85.0,-55.0
126.0,124.0,134.0,126.0,127.0,127.0,126.0,128.0,24.0,-114.0,-71.0,127.0,127.0,127.0,119.0,85.0,-55.0
125.0,125.0,134.0,125.0,127.0,127.0,126.0,128.0,24.0,-114.0,-71.0,127.0,127.0,127.0,119.0,85.0,-55.0
126.0,125.0,134.0,125.0,127.0,127.0,126.0,128.0,24.0,-114.0,-71.0,127.0,127.0,127.0,119.0,85.0,-55.0
125.0,124.0,131.0,126.0,127.0,126.0,126.0,128.0,24.0,-114.0,-71.0,127.0,127.0,127.0,119.0,85.0,-55.0
125.0,125.0,131.0,126.0,127.0,126.0,126.0,128.0,23.0,-113.0,-71.0,127.0,127.0,127.0,119.0,85.0,-55.0
125.0,125.0,131.0,126.0,127.0,127.0,126.0,128.0,23.0,-113.0,-71.0,127.0,127.0,127.0,119.0,85.0,-55.0
126.0,125.0,132.0,126.0,127.0,127.0,126.0,128.0,23.0,-113.0,-71.0,127.0,127.0,127.0,119.0,85.0,-55.0
125.0,125.0,133.0,126.0,127.0,127.0,126.0,128.0,23.0,-113.0,-71.0,127.0,127.0,127.0,119.0,85.0,-55.0
126.0,124.0,133.0,126.0,127.0,127.0,126.0,128.0,23.0,-113.0,-71.0,127.0,127.0,127.0,119.0,85.0,-55.0
125.0,124.0,134.0,126.0,127.0,126.0,126.0,128.0,23.0,-113.0,-71.0,127.0,127.0,127.0,119.0,85.0,-55.0
125.0,124.0,133.0,126.0,127.0,126.0,126.0,128.0,23.0,-113.0,-71.0,127.0,127.0,127.0,119.0,85.0,-55.0
125.0,125.0,132.0,126.0,127.0,127.0,125.0,128.0,23.0,-113.0,-71.0,127.0,127.0,127.0,119.0,85.0,-55.0
126.0,125.0,131.0,127.0,127.0,126.0,126.0,128.0,23.0,-113.0,-71.0,127.0,127.0,127.0,119.0,85.0,-55.0
126.0,125.0,131.0,127.0,127.0,126.0,126.0,128.0,23.0,-113.0,-71.0,127.0,127.0,127.0,119.0,85.0,-55.0
125.0,124.0,133.0,126.0,126.0,126.0,126.0,127.0,23.0,-113.0,-70.0,127.0,127.0,127.0,119.0,85.0,-55.0
125.0,124.0,133.0,126.0,126.0,126.0,126.0,127.0,23.0,-113.0,-70.0,127.0,127.0,127.0,119.0,85.0,-55.0
125.0,125.0,133.0,126.0,126.0,126.0,126.0,127.0,23.0,-113.0,-70.0,127.0,127.0,127.0,119.0,85.0,-55.0
125.0,125.0,133.0,126.0,126.0,126.0,126.0,127.0,23.0,-113.0,-70.0,127.0,127.0,127.0,119.0,85.0,-55.0
125.0,124.0,133.0,126.0,126.0,126.0,126.0,127.0,23.0,-113.0,-70.0,127.0,127.0,127.0,119.0,85.0,-55.0
125.0,125.0,133.0,126.0,126.0,126.0,126.0,127.0,23.0,-113.0,-70.0,127.0,127.0,127.0,119.0,85.0,-55.0
125.0,125.0,133.0,126.0,126.0,126.0,126.0,127.0,23.0,-113.0,-70.0,127.0,127.0,127.0,119.0,85.0,-55.0
125.0,125.0,131.0,126.0,126.0,126.0,126.0,127.0,23.0,-113.0,-70.0,127.0,127.0,127.0,119.0,85.0,-55.0
125.0,125.0,132.0,126.0,126.0,126.0,126.0,127.0,23.0,-113.0,-70.0,127.0,127.0,127.0,119.0,85.0,-55.0
125.0,124.0,133.0,126.0,126.0,126.0,126.0,127.0,23.0,-113.0,-70.0,127.0,127.0,127.0,119.0,85.0,-55.0
126.0,125.0,129.0,124.0,126.0,127.0,126.0,128.0,24.0,-114.0,-70.0,127.0,127.0,127.0,120.0,85.0,-55.0
126.0,125.0,129.0,124.0,126.0,127.0,126.0,128.0,24.0,-114.0,-70.0,127.0,127.0,127.0,120.0,85.0,-55.0
126.0,125.0,129.0,124.0,126.0,127.0,126.0,128.0,24.0,-114.0,-70.0,127.0,127.0,127.0,120.0,85.0,-55.0
126.0,125.0,130.0,124.0,126.0,127.0,126.0,128.0,24.0,-114.0,-70.0,127.0,127.0,127.0,120.0,85.0,-55.0
126.0,125.0,130.0,125.0,127.0,127.0,126.0,128.0,24.0,-114.0,-70.0,127.0,127.0,127.0,120.0,85.0,-55.0
126.0,125.0,131.0,125.0,127.0,127.0,126.0,128.0,24.0,-114.0,-70.0,127.0,127.0,127.0,120.0,85.0,-55.0
126.0,126.0,127.0,124.0,126.0,127.0,126.0,128.0,24.0,-114.0,-70.0,127.0,127.0,127.0,120.0,85.0,-55.0
126.0,126.0,127.0,124.0,126.0,127.0,126.0,128.0,24.0,-114.0,-70.0,127.0,127.0,127.0,120.0,85.0,-55.0
126.0,126.0,128.0,124.0,126.0,127.0,126.0,128.0,24.0,-114.0,-70.0,127.0,127.0,127.0,120.0,85.0,-55.0
126.0,125.0,129.0,124.0,126.0,127.0,126.0,128.0,24.0,-114.0,-70.0,127.0,127.0,127.0,120.0,85.0,-55.0
126.0,124.0,134.0,125.0,127.0,127.0,126.0,128.0,24.0,-114.0,-70.0,127.0,127.0,127.0,120.0,85.0,-55.0
126.0,124.0,135.0,125.0,127.0,127.0,126.0,128.0,24.0,-114.0,-70.0,127.0,127.0,127.0,120.0,85.0,-55.0
126.0,124.0,135.0,126.0,127.0,127.0,126.0,128.0,24.0,-114.0,-70.0,127.0,127.0,127.0,120.0,85.0,-55.0
126.0,124.0,135.0,126.0,127.0,127.0,126.0,128.0,24.0,-114.0,-70.0,127.0,127.0,127.0,120.0,85.0,-55.0
126.0,124.0,135.0,126.0,127.0,127.0,126.0,128.0,24.0,-114.0,-70.0,127.0,127.0,127.0,120.0,85.0,-55.0
126.0,125.0,131.0,125.0,126.0,127.0,126.0,128.0,24.0,-114.0,-70.0,127.0,127.0,127.0,120.0,85.0,-55.0
126.0,125.0,132.0,125.0,126.0,127.0,126.0,128.0,24.0,-114.0,-70.0,127.0,127.0,127.0,120.0,85.0,-55.0
126.0,124.0,133.0,125.0,126.0,127.0,126.0,128.0,24.0,-114.0,-70.0,127.0,127.0,127.0,120.0,85.0,-55.0
126.0,124.0,133.0,125.0,126.0,127.0,126.0,128.0,24.0,-114.0,-70.0,127.0,127.0,127.0,120.0,85.0,-55.0
126.0,124.0,134.0,125.0,127.0,127.0,126.0,128.0,24.0,-114.0,-70.0,127.0,127.0,127.0,120.0,85.0,-55.0
126.0,126.0,133.0,127.0,127.0,127.0,126.0,128.0,24.0,-114.0,-70.0,127.0,127.0,127.0,120.0,85.0,-55.0
126.0,126.0,133.0,127.0,127.0,127.0,126.0,128.0,24.0,-114.0,-70.0,127.0,127.0,127.0,120.0,85.0,-55.0
126.0,126.0,133.0,127.0,127.0,127.0,126.0,128.0,24.0,-114.0,-70.0,127.0,127.0,127.0,120.0,85.0,-55.0
126.0,125.0,133.0,127.0,127.0,127.0,126.0,128.0,24.0,-114.0,-70.0,127.0,127.0,127.0,120.0,85.0,-55.0
125.0,126.0,131.0,126.0,127.0,127.0,126.0,128.0,24.0,-114.0,-70.0,127.0,127.0,127.0,120.0,85.0,-55.0
126.0,125.0,132.0,126.0,127.0,127.0,126.0,128.0,24.0,-114.0,-70.0,127.0,127.0,127.0,120.0,85.0,-55.0
126.0,125.0,132.0,127.0,127.0,127.0,126.0,128.0,24.0,-114.0,-70.0,127.0,127.0,127.0,120.0,85.0,-55.0
126.0,125.0,133.0,127.0,127.0,127.0,126.0,128.0,24.0,-114.0,-70.0,127.0,127.0,127.0,120.0,85.0,-55.0
126.0,125.0,133.0,127.0,127.0,127.0,126.0,128.0,24.0,-114.0,-70.0,127.0,127.0,127.0,120.0,85.0,-55.0
126.0,125.0,133.0,127.0,127.0,127.0,126.0,128.0,24.0,-114.0,-70.0,127.0,127.0,127.0,120.0,85.0,-55.0
126.0,125.0,131.0,126.0,127.0,128.0,126.0,128.0,24.0,-114.0,-70.0,127.0,127.0,127.0,120.0,85.0,-55.0
126.0,125.0,132.0,126.0,127.0,128.0,126.0,128.0,24.0,-114.0,-70.0,127.0,127.0,127.0,120.0,85.0,-55.0
126.0,125.0,132.0,126.0,127.0,128.0,126.0,128.0,24.0,-114.0,-70.0,127.0,127.0,127.0,120.0,85.0,-55.0
125.0,126.0,129.0,126.0,127.0,127.0,126.0,128.0,24.0,-114.0,-70.0,127.0,127.0,127.0,120.0,85.0,-55.0
125.0,126.0,129.0,126.0,127.0,127.0,126.0,128.0,24.0,-114.0,-70.0,127.0,127.0,127.0,120.0,85.0,-55.0
125.0,125.0,130.0,126.0,127.0,127.0,126.0,128.0,24.0,-114.0,-70.0,127.0,127.0,127.0,120.0,85.0,-55.0
126.0,125.0,131.0,126.0,127.0,127.0,126.0,128.0,24.0,-114.0,-70.0,127.0,127.0,127.0,120.0,85.0,-55.0
126.0,125.0,131.0,126.0,127.0,127.0,126.0,128.0,24.0,-114.0,-70.0,127.0,127.0,127.0,120.0,85.0,-55.0
126.0,125.0,131.0,126.0,127.0,128.0,126.0,128.0,24.0,-114.0,-70.0,127.0,127.0,127.0,120.0,85.0,-55.0
126.0,125.0,131.0,126.0,127.0,128.0,126.0,128.0,24.0,-114.0,-70.0,127.0,127.0,127.0,120.0,85.0,-55.0
125.0,125.0,130.0,126.0,126.0,128.0,126.0,128.0,24.0,-115.0,-70.0,127.0,127.0,127.0,120.0,85.0,-55.0
125.0,125.0,131.0,126.0,126.0,128.0,126.0,128.0,24.0,-115.0,-70.0,127.0,127.0,127.0,120.0,85.0,-55.0
125.0,126.0,127.0,127.0,126.0,127.0,126.0,128.0,24.0,-115.0,-70.0,127.0,127.0,127.0,120.0,85.0,-55.0
125.0,126.0,127.0,127.0,126.0,128.0,126.0,128.0,24.0,-115.0,-70.0,127.0,127.0,127.0,120.0,85.0,-55.0
125.0,126.0,128.0,127.0,126.0,128.0,126.0,128.0,24.0,-115.0,-70.0,127.0,127.0,127.0,120.0,85.0,-55.0
125.0,125.0,129.0,126.0,126.0,128.0,126.0,128.0,24.0,-115.0,-70.0,127.0,127.0,127.0,120.0,85.0,-55.0
126.0,125.0,129.0,126.0,126.0,128.0,126.0,128.0,24.0,-115.0,-70.0,127.0,127.0,127.0,120.0,85.0,-55.0
125.0,125.0,130.0,126.0,126.0,128.0,126.0,128.0,24.0,-115.0,-70.0,127.0,127.0,127.0,120.0,85.0,-55.0
125.0,125.0,130.0,126.0,126.0,128.0,126.0,128.0,24.0,-115.0,-70.0,127.0,127.0,127.0,120.0,85.0,-55.0
126.0,125.0,130.0,126.0,126.0,128.0,126.0,128.0,24.0,-115.0,-70.0,127.0,127.0,127.0,120.0,85.0,-55.0
126.0,125.0,132.0,126.0,126.0,127.0,126.0,128.0,24.0,-115.0,-70.0,127.0,127.0,127.0,120.0,85.0,-55.0
126.0,126.0,129.0,127.0,127.0,128.0,126.0,128.0,24.0,-115.0,-70.0,127.0,127.0,127.0,120.0,85.0,-55.0
126.0,126.0,129.0,127.0,127.0,128.0,126.0,128.0,24.0,-115.0,-70.0,127.0,127.0,127.0,120.0,85.0,-55.0
126.0,126.0,130.0,127.0,127.0,128.0,126.0,128.0,24.0,-115.0,-70.0,127.0,127.0,127.0,120.0,85.0,-55.0
126.0,125.0,130.0,127.0,127.0,128.0,126.0,128.0,24.0,-115.0,-70.0,127.0,127.0,127.0,120.0,85.0,-55.0
126.0,125.0,131.0,127.0,127.0,128.0,126.0,128.0,24.0,-115.0,-70.0,127.0,127.0,127.0,120.0,85.0,-55.0
126.0,125.0,131.0,127.0,126.0,128.0,126.0,128.0,24.0,-115.0,-70.0,127.0,127.0,127.0,120.0,85.0,-55.0
126.0,125.0,131.0,126.0,126.0,127.0,126.0,128.0,24.0,-115.0,-70.0,127.0,127.0,127.0,120.0,85.0,-55.0
126.0,125.0,131.0,126.0,126.0,128.0,126.0,128.0,24.0,-115.0,-70.0,127.0,127.0,127.0,120.0,85.0,-55.0
126.0,125.0,131.0,126.0,126.0,128.0,126.0,128.0,24.0,-115.0,-70.0,127.0,127.0,127.0,120.0,85.0,-55.0
125.0,126.0,126.0,126.0,125.0,127.0,125.0,127.0,24.0,-115.0,-70.0,127.0,127.0,127.0,120.0,85.0,-55.0
125.0,126.0,126.0,126.0,126.0,128.0,125.0,127.0,24.0,-115.0,-70.0,127.0,127.0,127.0,120.0,85.0,-55.0
125.0,126.0,127.0,126.0,126.0,128.0,125.0,127.0,24.0,-115.0,-70.0,127.0,127.0,127.0,120.0,85.0,-55.0
125.0,125.0,128.0,126.0,126.0,128.0,125.0,127.0,24.0,-115.0,-70.0,127.0,127.0,127.0,120.0,85.0,-55.0
125.0,125.0,129.0,127.0,126.0,128.0,125.0,127.0,24.0,-115.0,-70.0,127.0,127.0,127.0,120.0,85.0,-55.0
126.0,125.0,129.0,127.0,126.0,128.0,125.0,127.0,24.0,-115.0,-70.0,127.0,127.0,127.0,120.0,85.0,-55.0
126.0,125.0,129.0,127.0,126.0,128.0,125.0,127.0,24.0,-115.0,-70.0,127.0,127.0,127.0,120.0,85.0,-55.0
126.0,126.0,129.0,127.0,126.0,128.0,125.0,127.0,24.0,-115.0,-70.0,127.0,127.0,127.0,120.0,85.0,-55.0
126.0,126.0,130.0,127.0,126.0,128.0,126.0,127.0,24.0,-115.0,-70.0,127.0,127.0,127.0,120.0,85.0,-55.0
126.0,125.0,130.0,127.0,126.0,128.0,126.0,127.0,24.0,-115.0,-70.0,127.0,127.0,127.0,120.0,85.0,-55.0
126.0,125.0,131.0,126.0,127.0,128.0,126.0,128.0,23.0,-115.0,-70.0,127.0,127.0,127.0,120.0,85.0,-55.0
126.0,125.0,131.0,126.0,127.0,128.0,126.0,128.0,23.0,-115.0,-70.0,127.0,127.0,127.0,120.0,85.0,-55.0
126.0,125.0,132.0,126.0,127.0,128.0,126.0,128.0,23.0,-115.0,-70.0,127.0,127.0,127.0,120.0,85.0,-55.0
126.0,125.0,132.0,126.0,127.0,128.0,126.0,128.0,23.0,-115.0,-70.0,127.0,127.0,127.0,120.0,85.0,-55.0
126.0,125.0,132.0,126.0,127.0,128.0,126.0,128.0,23.0,-115.0,-70.0,127.0,127.0,127.0,120.0,85.0,-55.0
126.0,125.0,132.0,126.0,127.0,128.0,126.0,128.0,23.0,-115.0,-70.0,127.0,127.0,127.0,120.0,85.0,-55.0
126.0,125.0,133.0,126.0,127.0,128.0,126.0,128.0,23.0,-115.0,-70.0,127.0,127.0,127.0,120.0,85.0,-55.0
126.0,125.0,133.0,127.0,127.0,128.0,126.0,128.0,23.0,-115.0,-70.0,127.0,127.0,127.0,120.0,85.0,-55.0
126.0,125.0,132.0,127.0,127.0,128.0,126.0,128.0,23.0,-115.0,-70.0,127.0,127.0,127.0,120.0,85.0,-55.0
126.0,125.0,131.0,126.0,127.0,128.0,126.0,128.0,23.0,-115.0,-70.0,127.0,127.0,127.0,120.0,85.0,-55.0
126.0,125.0,133.0,127.0,127.0,128.0,126.0,128.0,23.0,-115.0,-71.0,127.0,127.0,127.0,120.0,85.0,-55.0
126.0,125.0,133.0,127.0,127.0,128.0,126.0,128.0,23.0,-115.0,-71.0,127.0,127.0,127.0,120.0,85.0,-55.0
126.0,125.0,132.0,127.0,127.0,128.0,126.0,128.0,23.0,-115.0,-71.0,127.0,127.0,127.0,120.0,85.0,-55.0
126.0,125.0,132.0,126.0,127.0,128.0,126.0,128.0,23.0,-115.0,-71.0,127.0,127.0,127.0,120.0,85.0,-55.0
126.0,125.0,132.0,126.0,127.0,128.0,126.0,128.0,23.0,-115.0,-71.0,127.0,127.0,127.0,120.0,85.0,-55.0
126.0,125.0,133.0,126.0,127.0,128.0,126.0,128.0,23.0,-115.0,-71.0,127.0,127.0,127.0,120.0,85.0,-55.0
126.0,125.0,133.0,126.0,127.0,128.0,126.0,128.0,23.0,-115.0,-71.0,127.0,127.0,127.0,120.0,85.0,-55.0
126.0,125.0,133.0,127.0,127.0,128.0,126.0,128.0,23.0,-115.0,-71.0,127.0,127.0,127.0,120.0,85.0,-55.0
126.0,125.0,132.0,127.0,127.0,128.0,126.0,128.0,23.0,-115.0,-71.0,127.0,127.0,127.0,120.0,85.0,-55.0
126.0,125.0,132.0,127.0,127.0,128.0,126.0,128.0,23.0,-115.0,-71.0,127.0,127.0,127.0,120.0,85.0,-55.0
126.0,126.0,128.0,126.0,126.0,127.0,126.0,128.0,24.0,-114.0,-71.0,127.0,127.0,127.0,120.0,85.0,-55.0
126.0,126.0,128.0,126.0,127.0,127.0,126.0,128.0,24.0,-114.0,-71.0,127.0,127.0,127.0,120.0,85.0,-55.0
126.0,126.0,128.0,126.0,126.0,128.0,126.0,128.0,24.0,-114.0,-71.0,127.0,127.0,127.0,120.0,85.0,-55.0
126.0,126.0,129.0,126.0,126.0,128.0,126.0,128.0,24.0,-114.0,-71.0,127.0,127.0,127.0,120.0,85.0,-55.0
126.0,125.0,129.0,126.0,126.0,127.0,126.0,128.0,24.0,-114.0,-71.0,127.0,127.0,127.0,120.0,85.0,-55.0
126.0,125.0,129.0,125.0,126.0,127.0,126.0,128.0,24.0,-114.0,-71.0,127.0,127.0,127.0,120.0,85.0,-55.0
126.0,125.0,129.0,125.0,126.0,128.0,126.0,128.0,24.0,-114.0,-71.0,127.0,127.0,127.0,120.0,85.0,-55.0
126.0,126.0,127.0,127.0,127.0,128.0,126.0,128.0,24.0,-114.0,-71.0,127.0,127.0,127.0,120.0,85.0,-55.0
126.0,126.0,128.0,127.0,127.0,127.0,126.0,128.0,24.0,-114.0,-71.0,127.0,127.0,127.0,120.0,85.0,-55.0
126.0,126.0,128.0,126.0,127.0,127.0,126.0,128.0,24.0,-114.0,-71.0,127.0,127.0,127.0,120.0,85.0,-55.0
126.0,126.0,129.0,127.0,127.0,128.0,126.0,128.0,24.0,-114.0,-71.0,127.0,127.0,127.0,120.0,85.0,-55.0
126.0,126.0,129.0,126.0,127.0,128.0,126.0,128.0,24.0,-114.0,-71.0,127.0,127.0,127.0,120.0,85.0,-55.0
126.0,126.0,129.0,126.0,126.0,128.0,126.0,128.0,24.0,-114.0,-71.0,127.0,127.0,127.0,120.0,85.0,-55.0
126.0,126.0,130.0,126.0,126.0,128.0,126.0,128.0,24.0,-114.0,-71.0,127.0,127.0,127.0,120.0,85.0,-55.0
126.0,125.0,130.0,126.0,126.0,128.0,126.0,128.0,24.0,-114.0,-71.0,127.0,127.0,127.0,120.0,85.0,-55.0
126.0,125.0,131.0,126.0,126.0,128.0,126.0,128.0,24.0,-114.0,-71.0,127.0,127.0,127.0,120.0,85.0,-55.0
126.0,126.0,127.0,127.0,127.0,128.0,126.0,128.0,24.0,-114.0,-71.0,127.0,127.0,127.0,120.0,85.0,-55.0
126.0,126.0,127.0,127.0,127.0,128.0,126.0,128.0,24.0,-114.0,-71.0,127.0,127.0,127.0,120.0,85.0,-55.0
126.0,126.0,128.0,127.0,127.0,128.0,126.0,128.0,24.0,-114.0,-71.0,127.0,127.0,127.0,120.0,85.0,-55.0
126.0,126.0,129.0,127.0,127.0,128.0,126.0,128.0,24.0,-114.0,-71.0,127.0,127.0,127.0,120.0,85.0,-55.0
126.0,125.0,132.0,126.0,127.0,129.0,126.0,128.0,24.0,-114.0,-71.0,127.0,127.0,127.0,120.0,85.0,-55.0
126.0,125.0,132.0,126.0,127.0,129.0,126.0,128.0,24.0,-114.0,-71.0,127.0,127.0,127.0,120.0,85.0,-55.0
126.0,125.0,132.0,126.0,127.0,129.0,126.0,128.0,24.0,-114.0,-71.0,127.0,127.0,127.0,120.0,85.0,-55.0
126.0,125.0,131.0,126.0,127.0,128.0,126.0,128.0,24.0,-114.0,-71.0,127.0,127.0,127.0,120.0,85.0,-55.0
126.0,125.0,131.0,126.0,127.0,128.0,126.0,128.0,24.0,-114.0,-71.0,127.0,127.0,127.0,120.0,85.0,-55.0
126.0,126.0,127.0,126.0,127.0,128.0,127.0,128.0,24.0,-114.0,-71.0,127.0,127.0,127.0,120.0,85.0,-55.0
126.0,125.0,129.0,125.0,127.0,128.0,127.0,128.0,24.0,-114.0,-71.0,127.0,127.0,127.0,120.0,85.0,-55.0
126.0,125.0,130.0,125.0,127.0,128.0,127.0,128.0,24.0,-114.0,-71.0,127.0,127.0,127.0,120.0,85.0,-55.0
126.0,125.0,131.0,125.0,127.0,128.0,127.0,128.0,24.0,-114.0,-71.0,127.0,127.0,127.0,120.0,85.0,-55.0
126.0,125.0,132.0,125.0,127.0,128.0,127.0,128.0,24.0,-114.0,-71.0,127.0,127.0,127.0,120.0,85.0,-55.0
126.0,125.0,129.0,126.0,126.0,128.0,126.0,128.0,24.0,-113.0,-71.0,127.0,127.0,127.0,120.0,85.0,-55.0
126.0,125.0,129.0,126.0,126.0,128.0,126.0,128.0,24.0,-113.0,-71.0,127.0,127.0,127.0,120.0,85.0,-55.0
126.0,125.0,130.0,126.0,126.0,128.0,126.0,128.0,24.0,-113.0,-71.0,127.0,127.0,127.0,120.0,85.0,-55.0
126.0,125.0,131.0,126.0,126.0,128.0,126.0,128.0,24.0,-113.0,-71.0,127.0,127.0,127.0,120.0,85.0,-55.0
126.0,125.0,126.0,127.0,127.0,128.0,126.0,128.0,24.0,-113.0,-71.0,127.0,127.0,127.0,120.0,85.0,-55.0
126.0,125.0,127.0,127.0,127.0,128.0,126.0,128.0,24.0,-113.0,-71.0,127.0,127.0,127.0,120.0,85.0,-55.0
126.0,125.0,128.0,126.0,126.0,128.0,126.0,128.0,24.0,-113.0,-71.0,127.0,127.0,127.0,120.0,85.0,-55.0
126.0,125.0,128.0,126.0,126.0,128.0,126.0,128.0,24.0,-113.0,-71.0,127.0,127.0,127.0,120.0,85.0,-55.0
126.0,125.0,129.0,126.0,126.0,128.0,126.0,128.0,24.0,-113.0,-71.0,127.0,127.0,127.0,120.0,85.0,-55.0
126.0,125.0,128.0,126.0,126.0,128.0,126.0,128.0,24.0,-113.0,-71.0,127.0,127.0,127.0,120.0,85.0,-55.0
126.0,125.0,128.0,126.0,126.0,127.0,126.0,128.0,23.0,-113.0,-71.0,127.0,127.0,127.0,120.0,85.0,-55.0
126.0,125.0,128.0,126.0,126.0,127.0,126.0,128.0,23.0,-113.0,-71.0,127.0,127.0,127.0,120.0,85.0,-55.0
126.0,125.0,129.0,125.0,126.0,127.0,126.0,128.0,23.0,-113.0,-71.0,127.0,127.0,127.0,120.0,85.0,-55.0
126.0,126.0,126.0,127.0,127.0,127.0,126.0,128.0,23.0,-113.0,-71.0,127.0,127.0,127.0,120.0,85.0,-55.0
126.0,126.0,127.0,127.0,127.0,127.0,126.0,128.0,23.0,-113.0,-71.0,127.0,127.0,127.0,120.0,85.0,-55.0
126.0,126.0,127.0,127.0,126.0,127.0,126.0,128.0,23.0,-113.0,-71.0,127.0,127.0,127.0,120.0,85.0,-55.0
126.0,126.0,127.0,126.0,126.0,127.0,126.0,128.0,23.0,-113.0,-71.0,127.0,127.0,127.0,120.0,85.0,-55.0
126.0,125.0,128.0,126.0,126.0,127.0,126.0,128.0,23.0,-113.0,-71.0,127.0,127.0,127.0,120.0,85.0,-55.0
126.0,126.0,127.0,126.0,126.0,127.0,126.0,128.0,23.0,-113.0,-71.0,127.0,127.0,127.0,120.0,85.0,-55.0
126.0,126.0,127.0,126.0,126.0,127.0,126.0,128.0,23.0,-113.0,-71.0,127.0,127.0,127.0,120.0,85.0,-55.0
126.0,125.0,129.0,126.0,127.0,128.0,126.0,128.0,22.0,-113.0,-71.0,127.0,127.0,127.0,120.0,85.0,-55.0
126.0,125.0,130.0,126.0,127.0,128.0,126.0,128.0,22.0,-113.0,-71.0,127.0,127.0,127.0,120.0,85.0,-55.0
126.0,126.0,126.0,127.0,127.0,128.0,126.0,128.0,22.0,-113.0,-71.0,127.0,127.0,127.0,120.0,85.0,-55.0
126.0,126.0,127.0,127.0,127.0,128.0,126.0,128.0,22.0,-113.0,-71.0,127.0,127.0,127.0,120.0,85.0,-55.0
126.0,126.0,127.0,127.0,127.0,128.0,126.0,128.0,22.0,-113.0,-71.0,127.0,127.0,127.0,120.0,85.0,-55.0
126.0,125.0,128.0,127.0,127.0,128.0,126.0,128.0,22.0,-113.0,-71.0,127.0,127.0,127.0,120.0,85.0,-55.0
126.0,125.0,129.0,126.0,127.0,128.0,126.0,128.0,22.0,-113.0,-71.0,127.0,127.0,127.0,120.0,85.0,-55.0
126.0,125.0,128.0,126.0,127.0,128.0,126.0,128.0,22.0,-113.0,-71.0,127.0,127.0,127.0,120.0,85.0,-55.0
126.0,125.0,128.0,126.0,127.0,128.0,126.0,128.0,22.0,-113.0,-71.0,127.0,127.0,127.0,120.0,85.0,-55.0
126.0,125.0,129.0,126.0,127.0,128.0,126.0,128.0,22.0,-113.0,-71.0,127.0,127.0,127.0,120.0,85.0,-55.0
126.0,125.0,130.0,127.0,127.0,128.0,126.0,128.0,22.0,-113.0,-71.0,127.0,127.0,127.0,120.0,85.0,-55.0
126.0,126.0,126.0,127.0,127.0,127.0,126.0,128.0,22.0,-113.0,-71.0,127.0,127.0,127.0,120.0,85.0,-55.0
126.0,126.0,127.0,127.0,127.0,127.0,126.0,128.0,22.0,-113.0,-71.0,127.0,127.0,127.0,120.0,85.0,-55.0
126.0,126.0,128.0,127.0,127.0,127.0,126.0,128.0,22.0,-113.0,-71.0,127.0,127.0,127.0,120.0,85.0,-55.0
126.0,126.0,128.0,127.0,127.0,127.0,126.0,128.0,22.0,-113.0,-71.0,127.0,127.0,127.0,120.0,85.0,-55.0
126.0,125.0,129.0,127.0,127.0,127.0,126.0,128.0,22.0,-113.0,-71.0,127.0,127.0,127.0,120.0,85.0,-55.0
126.0,125.0,130.0,127.0,127.0,127.0,126.0,128.0,22.0,-113.0,-71.0,127.0,127.0,127.0,120.0,85.0,-55.0
126.0,125.0,130.0,127.0,127.0,127.0,126.0,128.0,22.0,-113.0,-71.0,127.0,127.0,127.0,120.0,85.0,-55.0
126.0,125.0,130.0,127.0,127.0,127.0,126.0,128.0,22.0,-113.0,-71.0,127.0,127.0,127.0,120.0,85.0,-55.0
126.0,125.0,130.0,127.0,127.0,127.0,126.0,128.0,22.0,-113.0,-71.0,127.0,127.0,127.0,120.0,85.0,-55.0
125.0,126.0,127.0,128.0,127.0,128.0,127.0,128.0,23.0,-114.0,-71.0,127.0,127.0,127.0,120.0,85.0,-55.0
125.0,126.0,127.0,128.0,127.0,128.0,126.0,128.0,23.0,-114.0,-71.0,127.0,127.0,127.0,120.0,85.0,-55.0
125.0,126.0,127.0,127.0,127.0,129.0,126.0,128.0,23.0,-114.0,-71.0,127.0,127.0,127.0,120.0,85.0,-55.0
125.0,126.0,128.0,127.0,127.0,129.0,126.0,128.0,23.0,-114.0,-71.0,127.0,127.0,127.0,120.0,85.0,-55.0
126.0,126.0,128.0,127.0,127.0,129.0,126.0,128.0,23.0,-114.0,-71.0,127.0,127.0,127.0,120.0,85.0,-55.0
126.0,126.0,129.0,127.0,127.0,129.0,126.0,128.0,23.0,-114.0,-71.0,127.0,127.0,127.0,120.0,85.0,-55.0
126.0,125.0,130.0,127.0,127.0,128.0,126.0,128.0,23.0,-114.0,-71.0,127.0,127.0,127.0,120.0,85.0,-55.0
126.0,126.0,130.0,127.0,127.0,128.0,126.0,128.0,23.0,-114.0,-71.0,127.0,127.0,127.0,120.0,85.0,-55.0
126.0,125.0,130.0,127.0,127.0,128.0,126.0,128.0,23.0,-114.0,-71.0,127.0,127.0,127.0,120.0,85.0,-55.0
126.0,125.0,131.0,127.0,126.0,128.0,126.0,128.0,23.0,-114.0,-71.0,127.0,127.0,127.0,120.0,85.0,-55.0
126.0,126.0,128.0,128.0,127.0,128.0,126.0,128.0,23.0,-114.0,-70.0,127.0,127.0,127.0,120.0,85.0,-55.0
126.0,126.0,129.0,127.0,127.0,128.0,126.0,128.0,23.0,-114.0,-70.0,127.0,127.0,127.0,120.0,85.0,-55.0
126.0,126.0,129.0,127.0,127.0,128.0,126.0,128.0,23.0,-114.0,-70.0,127.0,127.0,127.0,120.0,85.0,-55.0
126.0,126.0,130.0,127.0,127.0,128.0,126.0,128.0,23.0,-114.0,-70.0,127.0,127.0,127.0,120.0,85.0,-55.0
126.0,125.0,131.0,127.0,127.0,128.0,126.0,128.0,23.0,-114.0,-70.0,127.0,127.0,127.0,120.0,85.0,-55.0
126.0,125.0,131.0,127.0,127.0,128.0,126.0,128.0,23.0,-114.0,-70.0,127.0,127.0,127.0,120.0,85.0,-55.0
126.0,125.0,132.0,127.0,127.0,128.0,126.0,128.0,23.0,-114.0,-70.0,127.0,127.0,127.0,120.0,85.0,-55.0
126.0,125.0,132.0,127.0,127.0,128.0,126.0,128.0,23.0,-114.0,-70.0,127.0,127.0,127.0,120.0,85.0,-55.0
126.0,125.0,133.0,127.0,127.0,128.0,126.0,128.0,23.0,-114.0,-70.0,127.0,127.0,127.0,120.0,85.0,-55.0
126.0,126.0,128.0,128.0,127.0,128.0,126.0,128.0,23.0,-114.0,-70.0,127.0,127.0,127.0,120.0,85.0,-55.0
126.0,125.0,130.0,127.0,127.0,128.0,126.0,128.0,24.0,-115.0,-70.0,127.0,127.0,127.0,120.0,85.0,-55.0
126.0,126.0,130.0,127.0,127.0,129.0,126.0,128.0,24.0,-115.0,-70.0,127.0,127.0,127.0,120.0,85.0,-55.0
126.0,125.0,131.0,127.0,127.0,129.0,126.0,128.0,24.0,-115.0,-70.0,127.0,127.0,127.0,120.0,85.0,-55.0
126.0,125.0,132.0,127.0,127.0,129.0,126.0,128.0,24.0,-115.0,-70.0,127.0,127.0,127.0,120.0,85.0,-55.0
126.0,125.0,132.0,127.0,127.0,129.0,126.0,128.0,24.0,-115.0,-70.0,127.0,127.0,127.0,120.0,85.0,-55.0
126.0,125.0,133.0,127.0,127.0,129.0,126.0,128.0,24.0,-115.0,-70.0,127.0,127.0,127.0,120.0,85.0,-55.0
126.0,125.0,133.0,127.0,127.0,129.0,126.0,128.0,24.0,-115.0,-70.0,127.0,127.0,127.0,120.0,85.0,-55.0
126.0,125.0,134.0,127.0,127.0,129.0,126.0,128.0,24.0,-115.0,-70.0,127.0,127.0,127.0,120.0,85.0,-55.0
126.0,126.0,129.0,128.0,127.0,128.0,126.0,128.0,24.0,-115.0,-70.0,127.0,127.0,127.0,120.0,85.0,-55.0
126.0,126.0,129.0,127.0,127.0,129.0,126.0,128.0,24.0,-115.0,-70.0,127.0,127.0,127.0,120.0,85.0,-55.0
125.0,126.0,127.0,127.0,126.0,129.0,126.0,128.0,25.0,-115.0,-70.0,127.0,127.0,127.0,120.0,85.0,-55.0
126.0,126.0,128.0,127.0,126.0,129.0,126.0,128.0,25.0,-115.0,-70.0,127.0,127.0,127.0,120.0,85.0,-55.0
126.0,126.0,128.0,127.0,126.0,128.0,126.0,128.0,25.0,-115.0,-70.0,127.0,127.0,127.0,120.0,85.0,-55.0
126.0,126.0,129.0,127.0,126.0,129.0,126.0,128.0,25.0,-115.0,-70.0,127.0,127.0,127.0,120.0,85.0,-55.0
126.0,126.0,130.0,127.0,126.0,129.0,126.0,128.0,25.0,-115.0,-70.0,127.0,127.0,127.0,120.0,85.0,-55.0
126.0,125.0,130.0,127.0,126.0,128.0,126.0,128.0,25.0,-115.0,-70.0,127.0,127.0,127.0,120.0,85.0,-55.0
126.0,125.0,131.0,127.0,126.0,128.0,126.0,128.0,25.0,-115.0,-70.0,127.0,127.0,127.0,120.0,85.0,-55.0
125.0,126.0,126.0,127.0,126.0,128.0,126.0,128.0,25.0,-115.0,-70.0,127.0,127.0,127.0,120.0,85.0,-55.0
125.0,126.0,127.0,127.0,126.0,128.0,126.0,128.0,25.0,-115.0,-70.0,127.0,127.0,127.0,120.0,85.0,-55.0
125.0,126.0,127.0,127.0,126.0,128.0,126.0,128.0,25.0,-115.0,-70.0,127.0,127.0,127.0,120.0,85.0,-55.0
126.0,126.0,127.0,127.0,127.0,128.0,126.0,128.0,25.0,-115.0,-70.0,127.0,127.0,127.0,120.0,85.0,-55.0
126.0,126.0,128.0,127.0,127.0,128.0,126.0,128.0,25.0,-115.0,-70.0,127.0,127.0,127.0,120.0,85.0,-55.0
126.0,126.0,128.0,127.0,127.0,128.0,126.0,128.0,25.0,-115.0,-70.0,127.0,127.0,127.0,120.0,85.0,-55.0
126.0,126.0,128.0,127.0,127.0,128.0,126.0,128.0,25.0,-115.0,-70.0,127.0,127.0,127.0,120.0,85.0,-55.0
126.0,126.0,128.0,127.0,127.0,128.0,126.0,128.0,25.0,-115.0,-70.0,127.0,127.0,127.0,120.0,85.0,-55.0
126.0,126.0,129.0,127.0,127.0,128.0,126.0,128.0,25.0,-115.0,-70.0,127.0,127.0,127.0,120.0,85.0,-55.0
126.0,126.0,127.0,127.0,127.0,128.0,126.0,128.0,25.0,-115.0,-70.0,127.0,127.0,127.0,120.0,85.0,-55.0
126.0,126.0,127.0,127.0,127.0,128.0,126.0,128.0,25.0,-115.0,-70.0,127.0,127.0,127.0,120.0,85.0,-55.0
126.0,126.0,128.0,127.0,127.0,128.0,126.0,128.0,25.0,-115.0,-70.0,127.0,127.0,127.0,120.0,85.0,-55.0
126.0,126.0,127.0,127.0,127.0,128.0,126.0,128.0,25.0,-115.0,-70.0,127.0,127.0,127.0,120.0,85.0,-55.0
126.0,126.0,128.0,127.0,127.0,128.0,126.0,128.0,24.0,-115.0,-70.0,127.0,127.0,127.0,120.0,85.0,-55.0
126.0,126.0,129.0,127.0,127.0,128.0,126.0,128.0,24.0,-115.0,-70.0,127.0,127.0,127.0,120.0,85.0,-55.0
126.0,126.0,129.0,127.0,127.0,128.0,126.0,128.0,24.0,-115.0,-70.0,127.0,127.0,127.0,120.0,85.0,-55.0
126.0,125.0,130.0,127.0,127.0,128.0,126.0,128.0,24.0,-115.0,-70.0,127.0,127.0,127.0,120.0,85.0,-55.0
126.0,125.0,130.0,127.0,127.0,128.0,126.0,128.0,24.0,-115.0,-70.0,127.0,127.0,127.0,120.0,85.0,-55.0
126.0,126.0,127.0,127.0,127.0,128.0,126.0,128.0,24.0,-115.0,-70.0,127.0,127.0,127.0,120.0,85.0,-55.0
126.0,126.0,127.0,127.0,127.0,128.0,126.0,128.0,24.0,-115.0,-70.0,127.0,127.0,127.0,120.0,85.0,-55.0
126.0,126.0,128.0,127.0,127.0,128.0,126.0,128.0,24.0,-115.0,-70.0,127.0,127.0,127.0,120.0,85.0,-55.0
126.0,126.0,128.0,127.0,127.0,128.0,126.0,128.0,24.0,-115.0,-70.0,127.0,127.0,127.0,120.0,85.0,-55.0
126.0,126.0,128.0,127.0,127.0,128.0,126.0,128.0,24.0,-115.0,-70.0,127.0,127.0,127.0,120.0,85.0,-55.0
126.0,126.0,128.0,127.0,127.0,128.0,126.0,128.0,24.0,-115.0,-70.0,127.0,127.0,127.0,120.0,85.0,-55.0
126.0,125.0,129.0,127.0,127.0,128.0,126.0,128.0,24.0,-115.0,-70.0,127.0,127.0,127.0,120.0,85.0,-55.0
126.0,125.0,129.0,127.0,127.0,128.0,126.0,128.0,24.0,-115.0,-70.0,127.0,127.0,127.0,120.0,85.0,-55.0
126.0,126.0,129.0,127.0,126.0,128.0,126.0,128.0,24.0,-115.0,-70.0,127.0,127.0,127.0,120.0,85.0,-55.0
126.0,127.0,126.0,128.0,127.0,128.0,127.0,128.0,24.0,-115.0,-70.0,127.0,127.0,127.0,120.0,85.0,-55.0
126.0,126.0,127.0,128.0,127.0,128.0,127.0,128.0,24.0,-115.0,-70.0,127.0,127.0,127.0,120.0,85.0,-55.0
126.0,126.0,127.0,128.0,127.0,128.0,127.0,128.0,24.0,-115.0,-70.0,127.0,127.0,127.0,120.0,85.0,-55.0
126.0,126.0,127.0,128.0,127.0,128.0,126.0,128.0,24.0,-115.0,-70.0,127.0,127.0,127.0,120.0,85.0,-55.0
126.0,126.0,128.0,128.0,127.0,128.0,126.0,128.0,24.0,-115.0,-70.0,127.0,127.0,127.0,120.0,85.0,-55.0
126.0,126.0,128.0,128.0,127.0,128.0,126.0,128.0,24.0,-115.0,-70.0,127.0,127.0,127.0,120.0,85.0,-55.0
126.0,125.0,130.0,126.0,126.0,128.0,126.0,128.0,24.0,-115.0,-70.0,127.0,127.0,127.0,120.0,85.0,-55.0
126.0,125.0,131.0,126.0,126.0,128.0,126.0,128.0,24.0,-115.0,-70.0,127.0,127.0,127.0,120.0,85.0,-55.0
126.0,125.0,131.0,126.0,126.0,128.0,126.0,128.0,24.0,-115.0,-70.0,127.0,127.0,127.0,120.0,85.0,-55.0
126.0,126.0,127.0,126.0,126.0,128.0,126.0,127.0,24.0,-115.0,-70.0,127.0,127.0,127.0,120.0,85.0,-55.0
126.0,126.0,128.0,126.0,126.0,128.0,126.0,127.0,24.0,-115.0,-70.0,127.0,127.0,127.0,120.0,85.0,-55.0
126.0,126.0,128.0,126.0,126.0,128.0,126.0,127.0,24.0,-115.0,-70.0,127.0,127.0,127.0,120.0,85.0,-55.0
126.0,125.0,129.0,126.0,126.0,128.0,126.0,127.0,24.0,-115.0,-70.0,127.0,127.0,127.0,120.0,85.0,-55.0
126.0,125.0,130.0,126.0,126.0,128.0,126.0,127.0,24.0,-115.0,-70.0,127.0,127.0,127.0,120.0,85.0,-55.0
126.0,125.0,130.0,126.0,126.0,128.0,126.0,127.0,24.0,-115.0,-70.0,127.0,127.0,127.0,120.0,85.0,-55.0
126.0,125.0,131.0,126.0,126.0,128.0,126.0,127.0,24.0,-115.0,-70.0,127.0,127.0,127.0,120.0,85.0,-55.0
126.0,125.0,130.0,127.0,127.0,128.0,126.0,128.0,23.0,-115.0,-70.0,127.0,127.0,127.0,120.0,85.0,-55.0
126.0,125.0,131.0,127.0,127.0,128.0,126.0,128.0,23.0,-115.0,-70.0,127.0,127.0,127.0,120.0,85.0,-55.0
126.0,126.0,127.0,127.0,127.0,128.0,126.0,128.0,23.0,-115.0,-70.0,127.0,127.0,127.0,120.0,85.0,-55.0
126.0,127.0,126.0,127.0,127.0,128.0,126.0,128.0,23.0,-115.0,-70.0,127.0,127.0,127.0,120.0,85.0,-55.0
126.0,126.0,127.0,127.0,127.0,128.0,126.0,128.0,23.0,-115.0,-70.0,127.0,127.0,127.0,120.0,85.0,-55.0
126.0,126.0,128.0,127.0,127.0,128.0,126.0,128.0,23.0,-115.0,-70.0,127.0,127.0,127.0,120.0,85.0,-55.0
126.0,126.0,128.0,127.0,127.0,128.0,126.0,128.0,23.0,-115.0,-70.0,127.0,127.0,127.0,120.0,85.0,-55.0
126.0,126.0,129.0,127.0,127.0,128.0,126.0,128.0,23.0,-115.0,-70.0,127.0,127.0,127.0,120.0,85.0,-55.0
126.0,126.0,129.0,127.0,127.0,128.0,126.0,128.0,23.0,-115.0,-70.0,127.0,127.0,127.0,120.0,85.0,-55.0
126.0,125.0,130.0,127.0,127.0,128.0,126.0,128.0,23.0,-115.0,-70.0,127.0,127.0,127.0,120.0,85.0,-55.0
127.0,125.0,131.0,126.0,127.0,125.0,126.0,128.0,23.0,-114.0,-70.0,127.0,127.0,127.0,120.0,85.0,-55.0
127.0,127.0,127.0,127.0,127.0,126.0,126.0,128.0,23.0,-114.0,-70.0,127.0,127.0,127.0,120.0,85.0,-55.0
127.0,127.0,127.0,127.0,127.0,126.0,126.0,128.0,23.0,-114.0,-70.0,127.0,127.0,127.0,120.0,85.0,-55.0
126.0,127.0,127.0,127.0,127.0,126.0,126.0,128.0,23.0,-114.0,-70.0,127.0,127.0,127.0,120.0,85.0,-55.0
127.0,126.0,128.0,127.0,127.0,126.0,126.0,128.0,23.0,-114.0,-70.0,127.0,127.0,127.0,120.0,85.0,-55.0
127.0,126.0,128.0,127.0,127.0,126.0,126.0,128.0,23.0,-114.0,-70.0,127.0,127.0,127.0,120.0,85.0,-55.0
127.0,125.0,129.0,126.0,127.0,126.0,126.0,128.0,23.0,-114.0,-70.0,127.0,127.0,127.0,120.0,85.0,-55.0
127.0,125.0,129.0,126.0,127.0,126.0,126.0,128.0,23.0,-114.0,-70.0,127.0,127.0,127.0,120.0,85.0,-55.0
127.0,125.0,130.0,126.0,127.0,126.0,126.0,128.0,23.0,-114.0,-70.0,127.0,127.0,127.0,120.0,85.0,-55.0
127.0,125.0,131.0,126.0,127.0,125.0,126.0,128.0,23.0,-114.0,-70.0,127.0,127.0,127.0,120.0,85.0,-55.0
126.0,126.0,126.0,126.0,127.0,125.0,127.0,128.0,23.0,-114.0,-70.0,127.0,127.0,127.0,120.0,85.0,-55.0
126.0,127.0,125.0,126.0,127.0,125.0,127.0,128.0,23.0,-114.0,-70.0,127.0,127.0,127.0,120.0,85.0,-55.0
126.0,127.0,125.0,126.0,127.0,125.0,126.0,128.0,23.0,-114.0,-70.0,127.0,127.0,127.0,120.0,85.0,-55.0
126.0,126.0,126.0,126.0,127.0,125.0,127.0,128.0,23.0,-114.0,-70.0,127.0,127.0,127.0,120.0,85.0,-55.0
126.0,126.0,127.0,126.0,127.0,125.0,127.0,128.0,23.0,-114.0,-70.0,127.0,127.0,127.0,120.0,85.0,-55.0
126.0,126.0,127.0,125.0,127.0,125.0,126.0,128.0,23.0,-114.0,-70.0,127.0,127.0,127.0,120.0,85.0,-55.0
126.0,126.0,128.0,125.0,127.0,125.0,127.0,128.0,23.0,-114.0,-70.0,127.0,127.0,127.0,120.0,85.0,-55.0
126.0,125.0,128.0,125.0,127.0,125.0,126.0,128.0,23.0,-114.0,-70.0,127.0,127.0,127.0,120.0,85.0,-55.0
126.0,125.0,129.0,125.0,127.0,125.0,126.0,128.0,23.0,-114.0,-70.0,127.0,127.0,127.0,120.0,85.0,-55.0
126.0,125.0,130.0,125.0,126.0,125.0,126.0,128.0,23.0,-114.0,-70.0,127.0,127.0,127.0,120.0,85.0,-55.0
126.0,127.0,123.0,129.0,127.0,126.0,127.0,128.0,23.0,-114.0,-70.0,127.0,127.0,127.0,120.0,85.0,-55.0
126.0,127.0,123.0,129.0,127.0,126.0,126.0,128.0,23.0,-114.0,-70.0,127.0,127.0,127.0,120.0,85.0,-55.0
126.0,126.0,123.0,129.0,127.0,126.0,127.0,128.0,23.0,-114.0,-70.0,127.0,127.0,127.0,120.0,85.0,-55.0
126.0,126.0,124.0,128.0,127.0,126.0,126.0,128.0,23.0,-114.0,-70.0,127.0,127.0,127.0,120.0,85.0,-55.0
126.0,126.0,125.0,128.0,127.0,126.0,126.0,128.0,23.0,-114.0,-70.0,127.0,127.0,127.0,120.0,85.0,-55.0
126.0,126.0,126.0,128.0,127.0,126.0,126.0,128.0,23.0,-114.0,-70.0,127.0,127.0,127.0,120.0,85.0,-55.0
126.0,126.0,126.0,128.0,127.0,126.0,126.0,128.0,23.0,-114.0,-70.0,127.0,127.0,127.0,120.0,85.0,-55.0
126.0,125.0,127.0,128.0,127.0,126.0,126.0,128.0,23.0,-114.0,-70.0,127.0,127.0,127.0,120.0,85.0,-55.0
126.0,125.0,128.0,128.0,127.0,126.0,126.0,128.0,23.0,-114.0,-70.0,127.0,127.0,127.0,120.0,85.0,-55.0
126.0,127.0,123.0,129.0,127.0,126.0,127.0,128.0,23.0,-114.0,-70.0,127.0,127.0,127.0,120.0,85.0,-55.0
126.0,126.0,125.0,127.0,127.0,125.0,126.0,128.0,23.0,-114.0,-70.0,127.0,127.0,127.0,120.0,85.0,-55.0
126.0,126.0,126.0,127.0,127.0,125.0,126.0,128.0,23.0,-114.0,-70.0,127.0,127.0,127.0,120.0,85.0,-55.0
126.0,126.0,127.0,127.0,127.0,125.0,126.0,128.0,23.0,-114.0,-70.0,127.0,127.0,127.0,120.0,85.0,-55.0
126.0,126.0,128.0,127.0,127.0,125.0,126.0,128.0,23.0,-114.0,-70.0,127.0,127.0,127.0,120.0,85.0,-55.0
126.0,126.0,128.0,127.0,127.0,125.0,126.0,128.0,23.0,-114.0,-70.0,127.0,127.0,127.0,120.0,85.0,-55.0
126.0,125.0,129.0,127.0,127.0,125.0,126.0,128.0,23.0,-114.0,-70.0,127.0,127.0,127.0,120.0,85.0,-55.0
126.0,125.0,129.0,127.0,127.0,125.0,126.0,128.0,23.0,-114.0,-70.0,127.0,127.0,127.0,120.0,85.0,-55.0
126.0,125.0,130.0,127.0,127.0,124.0,126.0,128.0,23.0,-114.0,-70.0,127.0,127.0,127.0,120.0,85.0,-55.0
126.0,126.0,124.0,127.0,127.0,125.0,126.0,128.0,23.0,-114.0,-70.0,127.0,127.0,127.0,120.0,85.0,-55.0
126.0,126.0,125.0,127.0,127.0,125.0,126.0,128.0,23.0,-114.0,-70.0,127.0,127.0,127.0,120.0,85.0,-55.0
126.0,126.0,127.0,127.0,127.0,124.0,126.0,128.0,24.0,-114.0,-70.0,127.0,127.0,127.0,120.0,85.0,-55.0
126.0,126.0,127.0,127.0,127.0,124.0,126.0,128.0,24.0,-114.0,-70.0,127.0,127.0,127.0,120.0,85.0,-55.0
126.0,126.0,128.0,127.0,127.0,124.0,126.0,128.0,24.0,-114.0,-70.0,127.0,127.0,127.0,120.0,85.0,-55.0
126.0,126.0,128.0,127.0,127.0,124.0,126.0,128.0,24.0,-114.0,-70.0,127.0,127.0,127.0,120.0,85.0,-55.0
126.0,126.0,129.0,127.0,127.0,124.0,126.0,128.0,24.0,-114.0,-70.0,127.0,127.0,127.0,120.0,85.0,-55.0
126.0,125.0,130.0,127.0,126.0,124.0,126.0,128.0,24.0,-114.0,-70.0,127.0,127.0,127.0,120.0,85.0,-55.0
126.0,125.0,130.0,126.0,126.0,124.0,126.0,128.0,24.0,-114.0,-70.0,127.0,127.0,127.0,120.0,85.0,-55.0
126.0,127.0,126.0,127.0,127.0,124.0,127.0,128.0,24.0,-114.0,-70.0,127.0,127.0,127.0,120.0,85.0,-55.0
126.0,126.0,126.0,127.0,127.0,124.0,126.0,128.0,24.0,-114.0,-70.0,127.0,127.0,127.0,120.0,85.0,-55.0
126.0,126.0,126.0,127.0,127.0,124.0,126.0,128.0,24.0,-114.0,-70.0,127.0,127.0,127.0,120.0,85.0,-55.0
126.0,126.0,127.0,127.0,127.0,126.0,126.0,128.0,24.0,-114.0,-69.0,127.0,127.0,127.0,120.0,85.0,-55.0
125.0,126.0,128.0,127.0,127.0,126.0,126.0,128.0,24.0,-114.0,-69.0,127.0,127.0,127.0,120.0,85.0,-55.0
125.0,126.0,128.0,127.0,127.0,126.0,126.0,128.0,24.0,-114.0,-69.0,127.0,127.0,127.0,120.0,85.0,-55.0
126.0,126.0,129.0,127.0,126.0,126.0,126.0,128.0,24.0,-114.0,-69.0,127.0,127.0,127.0,120.0,85.0,-55.0
126.0,125.0,130.0,126.0,126.0,126.0,126.0,128.0,24.0,-114.0,-69.0,127.0,127.0,127.0,120.0,85.0,-55.0
126.0,125.0,131.0,126.0,126.0,126.0,127.0,128.0,24.0,-114.0,-69.0,127.0,127.0,127.0,120.0,85.0,-55.0
126.0,126.0,126.0,128.0,127.0,125.0,127.0,128.0,24.0,-114.0,-69.0,127.0,127.0,127.0,120.0,85.0,-55.0
126.0,126.0,126.0,128.0,127.0,125.0,126.0,128.0,24.0,-114.0,-69.0,127.0,127.0,127.0,120.0,85.0,-55.0
125.0,126.0,126.0,128.0,127.0,126.0,126.0,128.0,24.0,-114.0,-69.0,127.0,127.0,127.0,120.0,85.0,-55.0
126.0,126.0,126.0,127.0,127.0,126.0,126.0,128.0,24.0,-114.0,-69.0,127.0,127.0,127.0,120.0,85.0,-55.0
125.0,126.0,128.0,127.0,126.0,127.0,126.0,128.0,25.0,-115.0,-69.0,127.0,127.0,127.0,120.0,85.0,-55.0
125.0,126.0,128.0,127.0,126.0,127.0,126.0,128.0,25.0,-115.0,-69.0,127.0,127.0,127.0,120.0,85.0,-55.0
125.0,126.0,129.0,127.0,126.0,127.0,126.0,128.0,25.0,-115.0,-69.0,127.0,127.0,127.0,120.0,85.0,-55.0
126.0,125.0,130.0,127.0,126.0,127.0,126.0,128.0,25.0,-115.0,-69.0,127.0,127.0,127.0,120.0,85.0,-55.0
125.0,125.0,130.0,127.0,126.0,127.0,126.0,128.0,25.0,-115.0,-69.0,127.0,127.0,127.0,120.0,85.0,-55.0
125.0,127.0,126.0,127.0,127.0,126.0,126.0,128.0,25.0,-115.0,-69.0,127.0,127.0,127.0,120.0,85.0,-55.0
125.0,127.0,126.0,128.0,127.0,126.0,126.0,128.0,25.0,-115.0,-69.0,127.0,127.0,127.0,120.0,85.0,-55.0
125.0,126.0,127.0,128.0,127.0,126.0,126.0,128.0,25.0,-115.0,-69.0,127.0,127.0,127.0,120.0,85.0,-55.0
126.0,126.0,128.0,127.0,126.0,126.0,126.0,128.0,25.0,-115.0,-69.0,127.0,127.0,127.0,120.0,85.0,-55.0
125.0,126.0,128.0,127.0,126.0,126.0,126.0,128.0,25.0,-115.0,-69.0,127.0,127.0,127.0,120.0,85.0,-55.0
126.0,126.0,130.0,127.0,127.0,127.0,126.0,128.0,26.0,-115.0,-69.0,127.0,127.0,127.0,120.0,85.0,-55.0
126.0,125.0,130.0,127.0,127.0,127.0,126.0,128.0,26.0,-115.0,-69.0,127.0,127.0,127.0,120.0,85.0,-55.0
126.0,125.0,131.0,127.0,127.0,127.0,126.0,128.0,26.0,-115.0,-69.0,127.0,127.0,127.0,120.0,85.0,-55.0
126.0,125.0,131.0,127.0,127.0,127.0,126.0,128.0,26.0,-115.0,-69.0,127.0,127.0,127.0,120.0,85.0,-55.0
126.0,127.0,126.0,128.0,127.0,127.0,126.0,128.0,26.0,-115.0,-69.0,127.0,127.0,127.0,120.0,85.0,-55.0
126.0,127.0,127.0,128.0,127.0,127.0,126.0,128.0,26.0,-115.0,-69.0,127.0,127.0,127.0,120.0,85.0,-55.0
126.0,127.0,127.0,128.0,127.0,127.0,126.0,128.0,26.0,-115.0,-69.0,127.0,127.0,127.0,120.0,85.0,-55.0
126.0,126.0,128.0,128.0,127.0,127.0,126.0,128.0,26.0,-115.0,-69.0,127.0,127.0,127.0,120.0,85.0,-55.0
126.0,126.0,128.0,128.0,127.0,127.0,126.0,128.0,26.0,-115.0,-69.0,127.0,127.0,127.0,120.0,85.0,-55.0
126.0,126.0,129.0,128.0,127.0,127.0,126.0,128.0,26.0,-115.0,-69.0,127.0,127.0,127.0,120.0,85.0,-55.0
126.0,126.0,129.0,127.0,126.0,127.0,126.0,128.0,26.0,-115.0,-69.0,127.0,127.0,127.0,120.0,85.0,-55.0
126.0,125.0,129.0,127.0,126.0,127.0,126.0,128.0,26.0,-115.0,-69.0,127.0,127.0,127.0,120.0,85.0,-55.0
126.0,125.0,130.0,127.0,126.0,126.0,126.0,128.0,26.0,-115.0,-69.0,127.0,127.0,127.0,120.0,85.0,-55.0
126.0,127.0,125.0,128.0,127.0,127.0,127.0,128.0,26.0,-115.0,-69.0,127.0,127.0,127.0,120.0,85.0,-55.0
126.0,127.0,125.0,128.0,127.0,127.0,127.0,128.0,26.0,-115.0,-69.0,127.0,127.0,127.0,120.0,85.0,-55.0
126.0,127.0,126.0,128.0,127.0,127.0,126.0,128.0,26.0,-115.0,-69.0,127.0,127.0,127.0,120.0,85.0,-55.0
126.0,127.0,126.0,128.0,127.0,127.0,126.0,128.0,26.0,-115.0,-69.0,127.0,127.0,127.0,120.0,85.0,-55.0
126.0,126.0,127.0,127.0,127.0,127.0,126.0,128.0,26.0,-115.0,-69.0,127.0,127.0,127.0,120.0,85.0,-55.0
126.0,126.0,128.0,127.0,126.0,127.0,126.0,128.0,26.0,-115.0,-69.0,127.0,127.0,127.0,120.0,85.0,-55.0
126.0,126.0,128.0,127.0,126.0,127.0,126.0,128.0,26.0,-115.0,-69.0,127.0,127.0,127.0,120.0,85.0,-55.0
126.0,125.0,131.0,127.0,127.0,127.0,126.0,128.0,26.0,-115.0,-69.0,127.0,127.0,127.0,120.0,85.0,-55.0
126.0,125.0,132.0,127.0,127.0,127.0,127.0,128.0,26.0,-115.0,-69.0,127.0,127.0,127.0,120.0,85.0,-55.0
126.0,127.0,126.0,127.0,126.0,127.0,126.0,128.0,26.0,-115.0,-69.0,127.0,127.0,127.0,120.0,85.0,-55.0
126.0,127.0,127.0,127.0,127.0,127.0,126.0,128.0,26.0,-115.0,-69.0,127.0,127.0,127.0,120.0,85.0,-55.0
126.0,127.0,127.0,127.0,127.0,127.0,126.0,128.0,26.0,-115.0,-69.0,127.0,127.0,127.0,120.0,85.0,-55.0
126.0,126.0,128.0,127.0,127.0,127.0,126.0,128.0,26.0,-115.0,-69.0,127.0,127.0,127.0,120.0,85.0,-55.0
126.0,126.0,128.0,127.0,127.0,127.0,126.0,128.0,26.0,-115.0,-69.0,127.0,127.0,127.0,120.0,85.0,-55.0
126.0,126.0,129.0,127.0,127.0,127.0,126.0,128.0,26.0,-115.0,-69.0,127.0,127.0,127.0,120.0,85.0,-55.0
126.0,126.0,129.0,127.0,127.0,127.0,126.0,128.0,26.0,-115.0,-69.0,127.0,127.0,127.0,120.0,85.0,-55.0
126.0,125.0,130.0,127.0,127.0,127.0,126.0,128.0,26.0,-115.0,-69.0,127.0,127.0,127.0,120.0,85.0,-55.0
126.0,125.0,130.0,127.0,126.0,127.0,126.0,128.0,26.0,-115.0,-69.0,127.0,127.0,127.0,120.0,85.0,-55.0
126.0,127.0,125.0,128.0,127.0,127.0,127.0,128.0,26.0,-115.0,-69.0,127.0,127.0,127.0,120.0,85.0,-55.0
126.0,127.0,126.0,128.0,127.0,127.0,126.0,128.0,26.0,-115.0,-69.0,127.0,127.0,127.0,120.0,85.0,-55.0
126.0,126.0,126.0,128.0,127.0,127.0,126.0,128.0,26.0,-115.0,-69.0,127.0,127.0,127.0,120.0,85.0,-55.0
126.0,126.0,127.0,128.0,127.0,127.0,126.0,128.0,26.0,-115.0,-69.0,127.0,127.0,127.0,120.0,85.0,-55.0
126.0,126.0,127.0,128.0,127.0,127.0,126.0,128.0,26.0,-115.0,-69.0,127.0,127.0,127.0,120.0,85.0,-55.0
126.0,126.0,127.0,128.0,126.0,127.0,126.0,128.0,26.0,-115.0,-69.0,127.0,127.0,127.0,120.0,85.0,-55.0
126.0,126.0,128.0,127.0,126.0,127.0,126.0,128.0,26.0,-115.0,-69.0,127.0,127.0,127.0,120.0,85.0,-55.0
126.0,125.0,129.0,127.0,126.0,127.0,126.0,128.0,26.0,-115.0,-69.0,127.0,127.0,127.0,120.0,85.0,-55.0
126.0,125.0,130.0,127.0,126.0,127.0,126.0,128.0,26.0,-115.0,-69.0,127.0,127.0,127.0,120.0,85.0,-55.0
126.0,127.0,124.0,128.0,127.0,128.0,126.0,128.0,25.0,-115.0,-69.0,127.0,127.0,127.0,120.0,85.0,-55.0
126.0,127.0,125.0,128.0,127.0,128.0,126.0,128.0,25.0,-115.0,-69.0,127.0,127.0,127.0,120.0,85.0,-55.0
126.0,127.0,126.0,127.0,127.0,128.0,126.0,128.0,25.0,-115.0,-69.0,127.0,127.0,127.0,120.0,85.0,-55.0
126.0,126.0,127.0,127.0,127.0,128.0,127.0,128.0,25.0,-115.0,-69.0,127.0,127.0,127.0,120.0,85.0,-55.0
126.0,126.0,127.0,127.0,127.0,128.0,126.0,128.0,25.0,-115.0,-69.0,127.0,127.0,127.0,120.0,85.0,-55.0
126.0,126.0,128.0,127.0,127.0,128.0,126.0,128.0,25.0,-115.0,-69.0,127.0,127.0,127.0,120.0,85.0,-55.0
126.0,126.0,129.0,127.0,127.0,128.0,126.0,128.0,25.0,-115.0,-69.0,127.0,127.0,127.0,120.0,85.0,-55.0
126.0,126.0,129.0,127.0,127.0,128.0,126.0,128.0,25.0,-115.0,-69.0,127.0,127.0,127.0,120.0,85.0,-55.0
126.0,125.0,130.0,127.0,127.0,128.0,126.0,128.0,25.0,-115.0,-69.0,127.0,127.0,127.0,120.0,85.0,-55.0
126.0,125.0,130.0,127.0,126.0,127.0,126.0,128.0,25.0,-115.0,-69.0,127.0,127.0,127.0,120.0,85.0,-55.0
126.0,127.0,124.0,128.0,127.0,127.0,127.0,128.0,25.0,-115.0,-69.0,127.0,127.0,127.0,120.0,85.0,-55.0
126.0,127.0,125.0,128.0,127.0,128.0,127.0,128.0,25.0,-115.0,-69.0,127.0,127.0,127.0,120.0,85.0,-55.0
126.0,126.0,125.0,128.0,127.0,127.0,127.0,128.0,25.0,-115.0,-69.0,127.0,127.0,127.0,120.0,85.0,-55.0
126.0,126.0,126.0,127.0,127.0,127.0,127.0,128.0,25.0,-115.0,-69.0,127.0,127.0,127.0,120.0,85.0,-55.0
126.0,126.0,127.0,127.0,127.0,127.0,126.0,128.0,25.0,-115.0,-69.0,127.0,127.0,127.0,120.0,85.0,-55.0
126.0,126.0,128.0,127.0,127.0,127.0,126.0,128.0,25.0,-115.0,-69.0,127.0,127.0,127.0,120.0,85.0,-55.0
126.0,125.0,128.0,127.0,126.0,127.0,126.0,128.0,25.0,-115.0,-69.0,127.0,127.0,127.0,120.0,85.0,-55.0
126.0,125.0,129.0,127.0,126.0,127.0,126.0,128.0,25.0,-115.0,-69.0,127.0,127.0,127.0,120.0,85.0,-55.0
126.0,125.0,129.0,127.0,126.0,127.0,126.0,128.0,25.0,-115.0,-69.0,127.0,127.0,127.0,120.0,85.0,-55.0
126.0,127.0,124.0,128.0,127.0,127.0,127.0,128.0,25.0,-115.0,-69.0,127.0,127.0,127.0,120.0,85.0,-55.0
126.0,127.0,124.0,128.0,127.0,127.0,126.0,128.0,25.0,-115.0,-70.0,127.0,127.0,127.0,120.0,85.0,-55.0
126.0,126.0,125.0,127.0,127.0,127.0,126.0,128.0,25.0,-115.0,-70.0,127.0,127.0,127.0,120.0,85.0,-55.0
126.0,126.0,126.0,127.0,127.0,127.0,126.0,128.0,25.0,-115.0,-70.0,127.0,127.0,127.0,120.0,85.0,-55.0
126.0,126.0,126.0,127.0,127.0,127.0,126.0,128.0,25.0,-115.0,-70.0,127.0,127.0,127.0,120.0,85.0,-55.0
126.0,126.0,127.0,127.0,127.0,127.0,126.0,128.0,25.0,-115.0,-70.0,127.0,127.0,127.0,120.0,85.0,-55.0
126.0,125.0,128.0,127.0,127.0,127.0,126.0,128.0,25.0,-115.0,-70.0,127.0,127.0,127.0,120.0,85.0,-55.0
126.0,125.0,128.0,127.0,127.0,127.0,126.0,128.0,25.0,-115.0,-70.0,127.0,127.0,127.0,120.0,85.0,-55.0
126.0,125.0,129.0,127.0,127.0,127.0,126.0,128.0,25.0,-115.0,-70.0,127.0,127.0,127.0,120.0,85.0,-55.0
126.0,127.0,123.0,128.0,127.0,127.0,126.0,128.0,25.0,-115.0,-70.0,127.0,127.0,127.0,120.0,85.0,-55.0
126.0,127.0,124.0,128.0,127.0,127.0,126.0,128.0,25.0,-115.0,-70.0,127.0,127.0,127.0,120.0,85.0,-55.0
126.0,126.0,126.0,127.0,127.0,127.0,127.0,128.0,24.0,-114.0,-70.0,127.0,127.0,127.0,120.0,85.0,-55.0
126.0,126.0,127.0,127.0,126.0,127.0,126.0,128.0,24.0,-114.0,-70.0,127.0,127.0,127.0,120.0,85.0,-55.0
126.0,126.0,127.0,127.0,126.0,127.0,126.0,128.0,24.0,-114.0,-70.0,127.0,127.0,127.0,120.0,85.0,-55.0
126.0,126.0,128.0,127.0,126.0,127.0,126.0,128.0,24.0,-114.0,-70.0,127.0,127.0,127.0,120.0,85.0,-55.0
126.0,126.0,129.0,127.0,126.0,127.0,126.0,128.0,24.0,-114.0,-70.0,127.0,127.0,127.0,120.0,85.0,-55.0
126.0,125.0,129.0,126.0,126.0,127.0,126.0,128.0,24.0,-114.0,-70.0,127.0,127.0,127.0,120.0,85.0,-55.0
126.0,125.0,130.0,126.0,126.0,127.0,126.0,128.0,24.0,-114.0,-70.0,127.0,127.0,127.0,120.0,85.0,-55.0
126.0,127.0,124.0,127.0,127.0,127.0,127.0,128.0,24.0,-114.0,-70.0,127.0,127.0,127.0,120.0,85.0,-55.0
126.0,127.0,124.0,127.0,127.0,127.0,127.0,128.0,24.0,-114.0,-70.0,127.0,127.0,127.0,120.0,85.0,-55.0
126.0,126.0,125.0,127.0,127.0,127.0,127.0,128.0,24.0,-114.0,-70.0,127.0,127.0,127.0,120.0,85.0,-55.0
126.0,126.0,129.0,128.0,126.0,125.0,126.0,128.0,24.0,-114.0,-70.0,127.0,127.0,127.0,120.0,85.0,-55.0
126.0,126.0,129.0,128.0,126.0,125.0,126.0,128.0,24.0,-114.0,-70.0,127.0,127.0,127.0,120.0,85.0,-55.0
126.0,125.0,130.0,128.0,126.0,125.0,126.0,128.0,24.0,-114.0,-70.0,127.0,127.0,127.0,120.0,85.0,-55.0
126.0,125.0,131.0,128.0,126.0,125.0,126.0,128.0,24.0,-114.0,-70.0,127.0,127.0,127.0,120.0,85.0,-55.0
126.0,125.0,131.0,127.0,126.0,125.0,126.0,128.0,24.0,-114.0,-70.0,127.0,127.0,127.0,120.0,85.0,-55.0
126.0,125.0,131.0,127.0,126.0,125.0,126.0,128.0,24.0,-114.0,-70.0,127.0,127.0,127.0,120.0,85.0,-55.0
126.0,127.0,126.0,127.0,126.0,125.0,127.0,128.0,24.0,-114.0,-70.0,127.0,127.0,127.0,120.0,85.0,-55.0
126.0,126.0,127.0,128.0,126.0,125.0,126.0,128.0,24.0,-114.0,-70.0,127.0,127.0,127.0,120.0,85.0,-55.0
126.0,126.0,127.0,128.0,126.0,125.0,126.0,128.0,24.0,-114.0,-70.0,127.0,127.0,127.0,120.0,85.0,-55.0
126.0,126.0,128.0,128.0,126.0,125.0,126.0,128.0,24.0,-114.0,-70.0,127.0,127.0,127.0,120.0,85.0,-55.0
126.0,126.0,128.0,128.0,126.0,124.0,126.0,128.0,23.0,-114.0,-70.0,127.0,127.0,127.0,120.0,85.0,-55.0
126.0,125.0,129.0,127.0,126.0,124.0,126.0,128.0,23.0,-114.0,-70.0,127.0,127.0,127.0,120.0,85.0,-55.0
126.0,126.0,129.0,127.0,126.0,124.0,126.0,128.0,23.0,-114.0,-70.0,127.0,127.0,127.0,120.0,85.0,-55.0
126.0,126.0,129.0,127.0,126.0,124.0,126.0,128.0,23.0,-114.0,-70.0,127.0,127.0,127.0,120.0,85.0,-55.0
126.0,126.0,130.0,127.0,126.0,124.0,126.0,128.0,23.0,-114.0,-70.0,127.0,127.0,127.0,120.0,85.0,-55.0
126.0,126.0,126.0,128.0,126.0,124.0,126.0,128.0,23.0,-114.0,-70.0,127.0,127.0,127.0,120.0,85.0,-55.0
126.0,127.0,126.0,128.0,127.0,124.0,126.0,128.0,23.0,-114.0,-70.0,127.0,127.0,127.0,120.0,85.0,-55.0
126.0,126.0,126.0,128.0,127.0,124.0,126.0,128.0,23.0,-114.0,-70.0,127.0,127.0,127.0,120.0,85.0,-55.0
126.0,126.0,127.0,128.0,126.0,124.0,126.0,128.0,23.0,-114.0,-70.0,127.0,127.0,127.0,120.0,85.0,-55.0
126.0,126.0,128.0,128.0,126.0,124.0,126.0,128.0,23.0,-114.0,-70.0,127.0,127.0,127.0,120.0,85.0,-55.0
126.0,126.0,129.0,127.0,127.0,119.0,126.0,128.0,23.0,-114.0,-70.0,127.0,127.0,127.0,120.0,85.0,-55.0
126.0,126.0,129.0,127.0,127.0,119.0,126.0,128.0,23.0,-114.0,-70.0,127.0,127.0,127.0,120.0,85.0,-55.0
126.0,126.0,130.0,127.0,127.0,120.0,126.0,128.0,23.0,-114.0,-70.0,127.0,127.0,127.0,120.0,85.0,-55.0
126.0,126.0,130.0,127.0,127.0,120.0,126.0,128.0,23.0,-114.0,-70.0,127.0,127.0,127.0,120.0,85.0,-55.0
126.0,126.0,127.0,128.0,127.0,119.0,126.0,128.0,23.0,-114.0,-70.0,127.0,127.0,127.0,120.0,85.0,-55.0
126.0,127.0,126.0,128.0,127.0,120.0,126.0,128.0,23.0,-114.0,-70.0,127.0,127.0,127.0,120.0,85.0,-55.0
126.0,126.0,127.0,128.0,127.0,120.0,126.0,128.0,23.0,-114.0,-70.0,127.0,127.0,127.0,120.0,85.0,-55.0
126.0,126.0,127.0,128.0,127.0,120.0,126.0,128.0,23.0,-114.0,-70.0,127.0,127.0,127.0,120.0,85.0,-55.0
126.0,126.0,128.0,128.0,127.0,119.0,126.0,128.0,23.0,-114.0,-70.0,127.0,127.0,127.0,120.0,85.0,-55.0
126.0,126.0,129.0,127.0,127.0,119.0,126.0,128.0,23.0,-114.0,-70.0,127.0,127.0,127.0,120.0,85.0,-55.0
126.0,126.0,130.0,128.0,127.0,116.0,126.0,128.0,23.0,-114.0,-70.0,127.0,127.0,127.0,120.0,85.0,-55.0
126.0,126.0,130.0,128.0,127.0,116.0,126.0,128.0,23.0,-114.0,-70.0,127.0,127.0,127.0,120.0,85.0,-55.0
126.0,126.0,131.0,127.0,127.0,116.0,126.0,128.0,23.0,-114.0,-70.0,127.0,127.0,127.0,120.0,85.0,-55.0
126.0,127.0,127.0,128.0,127.0,116.0,127.0,128.0,23.0,-114.0,-70.0,127.0,127.0,127.0,120.0,85.0,-55.0
126.0,127.0,127.0,128.0,127.0,116.0,126.0,128.0,23.0,-114.0,-70.0,127.0,127.0,127.0,120.0,85.0,-55.0
126.0,127.0,127.0,128.0,128.0,116.0,126.0,128.0,23.0,-114.0,-70.0,127.0,127.0,127.0,120.0,85.0,-55.0
126.0,127.0,127.0,128.0,127.0,116.0,126.0,128.0,23.0,-114.0,-70.0,127.0,127.0,127.0,120.0,85.0,-55.0
126.0,126.0,128.0,128.0,127.0,116.0,126.0,128.0,23.0,-114.0,-70.0,127.0,127.0,127.0,120.0,85.0,-55.0
126.0,126.0,129.0,128.0,127.0,116.0,126.0,128.0,23.0,-114.0,-70.0,127.0,127.0,127.0,120.0,85.0,-55.0
126.0,126.0,130.0,128.0,127.0,116.0,126.0,128.0,23.0,-114.0,-70.0,127.0,127.0,127.0,120.0,85.0,-55.0
126.0,126.0,135.0,129.0,127.0,98.0,124.0,128.0,23.0,-114.0,-70.0,127.0,127.0,127.0,120.0,85.0,-55.0
126.0,126.0,136.0,129.0,127.0,98.0,124.0,128.0,23.0,-114.0,-70.0,127.0,127.0,127.0,120.0,85.0,-55.0
126.0,127.0,132.0,128.0,127.0,101.0,126.0,128.0,23.0,-114.0,-70.0,127.0,127.0,127.0,120.0,85.0,-55.0
126.0,127.0,132.0,128.0,127.0,101.0,125.0,128.0,23.0,-114.0,-70.0,127.0,127.0,127.0,120.0,85.0,-55.0
126.0,127.0,132.0,128.0,127.0,100.0,125.0,128.0,23.0,-114.0,-70.0,127.0,127.0,127.0,120.0,85.0,-55.0
126.0,127.0,132.0,128.0,127.0,100.0,125.0,128.0,23.0,-114.0,-70.0,127.0,127.0,127.0,120.0,85.0,-55.0
126.0,126.0,133.0,129.0,127.0,99.0,125.0,128.0,23.0,-114.0,-70.0,127.0,127.0,127.0,120.0,85.0,-55.0
126.0,126.0,134.0,129.0,127.0,99.0,125.0,128.0,23.0,-114.0,-70.0,127.0,127.0,127.0,120.0,85.0,-55.0
126.0,126.0,135.0,129.0,127.0,98.0,124.0,128.0,23.0,-114.0,-70.0,127.0,127.0,127.0,120.0,85.0,-55.0
126.0,125.0,135.0,129.0,127.0,98.0,124.0,128.0,23.0,-114.0,-70.0,127.0,127.0,127.0,120.0,85.0,-55.0
126.0,126.0,135.0,129.0,128.0,80.0,121.0,128.0,23.0,-114.0,-71.0,127.0,127.0,127.0,120.0,85.0,-55.0
126.0,126.0,132.0,129.0,127.0,80.0,122.0,128.0,23.0,-114.0,-71.0,127.0,127.0,127.0,120.0,85.0,-55.0
126.0,126.0,132.0,129.0,127.0,80.0,122.0,128.0,23.0,-114.0,-71.0,127.0,127.0,127.0,120.0,85.0,-55.0
126.0,126.0,132.0,129.0,127.0,80.0,122.0,128.0,23.0,-114.0,-71.0,127.0,127.0,127.0,120.0,85.0,-55.0
126.0,126.0,132.0,129.0,127.0,80.0,122.0,128.0,23.0,-114.0,-71.0,127.0,127.0,127.0,120.0,85.0,-55.0
126.0,126.0,133.0,129.0,127.0,80.0,122.0,128.0,23.0,-114.0,-71.0,127.0,127.0,127.0,120.0,85.0,-55.0
126.0,126.0,134.0,129.0,127.0,80.0,122.0,128.0,23.0,-114.0,-71.0,127.0,127.0,127.0,120.0,85.0,-55.0
126.0,126.0,134.0,129.0,128.0,80.0,122.0,128.0,23.0,-114.0,-71.0,127.0,127.0,127.0,120.0,85.0,-55.0
126.0,126.0,135.0,129.0,127.0,80.0,121.0,128.0,23.0,-114.0,-71.0,127.0,127.0,127.0,120.0,85.0,-55.0
126.0,126.0,135.0,129.0,127.0,80.0,122.0,128.0,23.0,-114.0,-71.0,127.0,127.0,127.0,120.0,85.0,-55.0
126.0,126.0,129.0,130.0,128.0,80.0,122.0,128.0,23.0,-114.0,-71.0,127.0,127.0,127.0,120.0,85.0,-55.0
126.0,127.0,129.0,130.0,128.0,80.0,122.0,128.0,23.0,-114.0,-71.0,127.0,127.0,127.0,120.0,85.0,-55.0
126.0,127.0,129.0,130.0,129.0,80.0,122.0,128.0,23.0,-114.0,-71.0,127.0,127.0,127.0,120.0,85.0,-55.0
126.0,127.0,129.0,130.0,128.0,80.0,123.0,128.0,23.0,-114.0,-71.0,127.0,127.0,127.0,120.0,85.0,-55.0
126.0,127.0,130.0,129.0,128.0,80.0,123.0,128.0,23.0,-114.0,-71.0,127.0,127.0,127.0,120.0,85.0,-55.0
126.0,126.0,130.0,129.0,128.0,80.0,123.0,128.0,23.0,-114.0,-71.0,127.0,127.0,127.0,120.0,85.0,-55.0
126.0,126.0,130.0,129.0,128.0,81.0,123.0,128.0,23.0,-114.0,-71.0,127.0,127.0,127.0,120.0,85.0,-55.0
126.0,126.0,131.0,129.0,128.0,81.0,123.0,128.0,23.0,-114.0,-71.0,127.0,127.0,127.0,120.0,85.0,-55.0
126.0,126.0,130.0,129.0,128.0,81.0,122.0,128.0,23.0,-114.0,-71.0,127.0,127.0,127.0,120.0,85.0,-55.0
126.0,126.0,130.0,129.0,128.0,81.0,122.0,128.0,23.0,-114.0,-71.0,127.0,127.0,127.0,120.0,85.0,-55.0
126.0,127.0,131.0,129.0,128.0,83.0,124.0,128.0,24.0,-114.0,-71.0,127.0,127.0,127.0,120.0,85.0,-55.0
126.0,126.0,131.0,129.0,128.0,83.0,124.0,128.0,24.0,-114.0,-71.0,127.0,127.0,127.0,120.0,85.0,-55.0
126.0,126.0,132.0,129.0,128.0,83.0,124.0,128.0,24.0,-114.0,-71.0,127.0,127.0,127.0,120.0,85.0,-55.0
126.0,126.0,133.0,129.0,128.0,83.0,124.0,128.0,24.0,-114.0,-71.0,127.0,127.0,127.0,120.0,85.0,-55.0
126.0,126.0,134.0,129.0,127.0,83.0,124.0,128.0,24.0,-114.0,-71.0,127.0,127.0,127.0,120.0,85.0,-55.0
126.0,126.0,134.0,129.0,127.0,83.0,124.0,128.0,24.0,-114.0,-71.0,127.0,127.0,127.0,120.0,85.0,-55.0
126.0,126.0,135.0,129.0,127.0,83.0,124.0,128.0,24.0,-114.0,-71.0,127.0,127.0,127.0,120.0,85.0,-55.0
126.0,126.0,136.0,129.0,127.0,84.0,124.0,128.0,24.0,-114.0,-71.0,127.0,127.0,127.0,120.0,85.0,-55.0
126.0,126.0,136.0,129.0,127.0,84.0,124.0,128.0,24.0,-114.0,-71.0,127.0,127.0,127.0,120.0,85.0,-55.0
126.0,127.0,130.0,129.0,128.0,83.0,124.0,128.0,24.0,-114.0,-71.0,127.0,127.0,127.0,120.0,85.0,-55.0
126.0,127.0,139.0,131.0,128.0,86.0,124.0,128.0,25.0,-114.0,-70.0,-128.0,127.0,127.0,120.0,85.0,-55.0
126.0,127.0,139.0,130.0,128.0,86.0,124.0,128.0,25.0,-114.0,-70.0,-128.0,127.0,127.0,120.0,85.0,-55.0
126.0,127.0,140.0,130.0,128.0,86.0,124.0,128.0,25.0,-114.0,-70.0,-128.0,127.0,127.0,120.0,85.0,-55.0
126.0,127.0,140.0,130.0,128.0,86.0,124.0,128.0,25.0,-114.0,-70.0,-128.0,127.0,127.0,120.0,85.0,-55.0
126.0,127.0,141.0,130.0,128.0,86.0,124.0,128.0,25.0,-114.0,-70.0,-128.0,127.0,127.0,120.0,85.0,-55.0
126.0,127.0,141.0,130.0,128.0,86.0,124.0,128.0,25.0,-114.0,-70.0,-128.0,127.0,127.0,120.0,85.0,-55.0
126.0,127.0,142.0,130.0,128.0,86.0,124.0,128.0,25.0,-114.0,-70.0,-128.0,127.0,127.0,120.0,85.0,-55.0
126.0,126.0,143.0,130.0,128.0,86.0,124.0,128.0,25.0,-114.0,-70.0,-128.0,127.0,127.0,120.0,85.0,-55.0
126.0,128.0,137.0,131.0,128.0,86.0,124.0,128.0,25.0,-114.0,-70.0,-128.0,127.0,127.0,120.0,85.0,-55.0
126.0,127.0,138.0,131.0,128.0,86.0,124.0,128.0,25.0,-114.0,-70.0,-128.0,127.0,127.0,120.0,85.0,-55.0
126.0,127.0,141.0,129.0,127.0,91.0,125.0,128.0,25.0,-114.0,-70.0,-128.0,127.0,127.0,120.0,85.0,-55.0
126.0,127.0,141.0,129.0,127.0,91.0,125.0,128.0,25.0,-114.0,-70.0,-128.0,127.0,127.0,120.0,85.0,-55.0
126.0,127.0,141.0,129.0,127.0,92.0,125.0,128.0,25.0,-114.0,-70.0,-128.0,127.0,127.0,120.0,85.0,-55.0
126.0,127.0,142.0,129.0,127.0,92.0,125.0,128.0,25.0,-114.0,-70.0,-128.0,127.0,127.0,120.0,85.0,-55.0
126.0,127.0,142.0,129.0,127.0,92.0,125.0,128.0,25.0,-114.0,-70.0,-128.0,127.0,127.0,120.0,85.0,-55.0
126.0,126.0,143.0,129.0,127.0,92.0,125.0,128.0,25.0,-114.0,-70.0,-128.0,127.0,127.0,120.0,85.0,-55.0
126.0,126.0,143.0,129.0,127.0,92.0,125.0,128.0,25.0,-114.0,-70.0,-128.0,127.0,127.0,120.0,85.0,-55.0
126.0,127.0,140.0,129.0,127.0,91.0,125.0,128.0,25.0,-114.0,-70.0,-128.0,127.0,127.0,120.0,85.0,-55.0
126.0,127.0,140.0,129.0,127.0,91.0,125.0,128.0,25.0,-114.0,-70.0,-128.0,127.0,127.0,120.0,85.0,-55.0
126.0,127.0,141.0,129.0,127.0,91.0,125.0,128.0,25.0,-114.0,-70.0,-128.0,127.0,127.0,120.0,85.0,-55.0
126.0,127.0,140.0,129.0,127.0,95.0,125.0,128.0,25.0,-114.0,-70.0,-128.0,127.0,127.0,120.0,85.0,-55.0
126.0,127.0,141.0,129.0,127.0,95.0,125.0,128.0,25.0,-114.0,-70.0,-128.0,127.0,127.0,120.0,85.0,-55.0
126.0,127.0,141.0,129.0,127.0,95.0,125.0,128.0,25.0,-114.0,-70.0,-128.0,127.0,127.0,120.0,85.0,-55.0
126.0,127.0,141.0,129.0,127.0,95.0,125.0,128.0,25.0,-114.0,-70.0,-128.0,127.0,127.0,120.0,85.0,-55.0
126.0,126.0,142.0,129.0,127.0,95.0,125.0,128.0,25.0,-114.0,-70.0,-128.0,127.0,127.0,120.0,85.0,-55.0
126.0,126.0,142.0,129.0,127.0,95.0,125.0,128.0,25.0,-114.0,-70.0,-128.0,127.0,127.0,120.0,85.0,-55.0
126.0,128.0,139.0,130.0,128.0,94.0,125.0,128.0,25.0,-114.0,-70.0,-128.0,127.0,127.0,120.0,85.0,-55.0
126.0,127.0,139.0,130.0,128.0,95.0,125.0,128.0,25.0,-114.0,-70.0,-128.0,127.0,127.0,120.0,85.0,-55.0
126.0,127.0,139.0,129.0,127.0,95.0,125.0,128.0,25.0,-114.0,-70.0,-128.0,127.0,127.0,120.0,85.0,-55.0
126.0,127.0,140.0,129.0,127.0,94.0,125.0,128.0,25.0,-114.0,-70.0,-128.0,127.0,127.0,120.0,85.0,-55.0
126.0,127.0,141.0,130.0,128.0,98.0,123.0,128.0,25.0,-114.0,-70.0,-128.0,127.0,127.0,120.0,85.0,-55.0
126.0,127.0,141.0,130.0,128.0,98.0,123.0,128.0,25.0,-114.0,-70.0,-128.0,127.0,127.0,120.0,85.0,-55.0
126.0,127.0,142.0,130.0,128.0,98.0,123.0,128.0,25.0,-114.0,-70.0,-128.0,127.0,127.0,120.0,85.0,-55.0
126.0,127.0,143.0,130.0,128.0,99.0,123.0,128.0,25.0,-114.0,-70.0,-128.0,127.0,127.0,120.0,85.0,-55.0
126.0,127.0,143.0,130.0,128.0,99.0,123.0,128.0,25.0,-114.0,-70.0,-128.0,127.0,127.0,120.0,85.0,-55.0
126.0,128.0,139.0,130.0,128.0,97.0,124.0,128.0,25.0,-114.0,-70.0,-128.0,127.0,127.0,120.0,85.0,-55.0
126.0,128.0,140.0,130.0,128.0,97.0,124.0,128.0,25.0,-114.0,-70.0,-128.0,127.0,127.0,120.0,85.0,-55.0
126.0,127.0,140.0,130.0,128.0,97.0,124.0,128.0,25.0,-114.0,-70.0,-128.0,127.0,127.0,120.0,85.0,-55.0
126.0,127.0,141.0,130.0,128.0,97.0,124.0,128.0,25.0,-114.0,-70.0,-128.0,127.0,127.0,120.0,85.0,-55.0
126.0,127.0,141.0,130.0,128.0,97.0,124.0,128.0,25.0,-114.0,-70.0,-128.0,127.0,127.0,120.0,85.0,-55.0
