emg1,emg2,emg3,emg4,emg5,emg6,emg7,emg8,acc_x,acc_y,acc_z,gyro_x,gyro_y,gyro_z,angle_pitch,angle_roll,angle_yaw
126.0,126.0,130.0,127.0,128.0,119.0,127.0,128.0,32.0,-113.0,-65.0,127.0,127.0,127.0,-5.0,-5.0,-53.0
126.0,126.0,130.0,127.0,128.0,121.0,126.0,128.0,32.0,-113.0,-65.0,127.0,127.0,127.0,-5.0,-5.0,-53.0
126.0,126.0,130.0,127.0,128.0,121.0,126.0,128.0,32.0,-113.0,-65.0,127.0,127.0,127.0,-5.0,-5.0,-53.0
126.0,125.0,131.0,127.0,128.0,121.0,126.0,128.0,32.0,-113.0,-65.0,127.0,127.0,127.0,-5.0,-5.0,-53.0
126.0,125.0,132.0,127.0,127.0,121.0,126.0,128.0,32.0,-113.0,-65.0,127.0,127.0,127.0,-5.0,-5.0,-53.0
126.0,125.0,132.0,127.0,127.0,121.0,126.0,128.0,32.0,-113.0,-65.0,127.0,127.0,127.0,-5.0,-5.0,-53.0
126.0,125.0,132.0,127.0,127.0,121.0,126.0,128.0,32.0,-113.0,-65.0,127.0,127.0,127.0,-5.0,-5.0,-53.0
126.0,125.0,133.0,127.0,127.0,121.0,126.0,128.0,32.0,-113.0,-65.0,127.0,127.0,127.0,-5.0,-5.0,-53.0
125.0,125.0,133.0,127.0,127.0,121.0,126.0,128.0,32.0,-113.0,-65.0,127.0,127.0,127.0,-5.0,-5.0,-53.0
126.0,126.0,130.0,127.0,128.0,121.0,126.0,128.0,32.0,-113.0,-65.0,127.0,127.0,127.0,-5.0,-5.0,-53.0
126.0,126.0,131.0,127.0,128.0,121.0,126.0,128.0,32.0,-113.0,-65.0,127.0,127.0,127.0,-5.0,-5.0,-53.0
126.0,125.0,132.0,127.0,128.0,121.0,126.0,128.0,33.0,-114.0,-64.0,127.0,127.0,127.0,-5.0,-5.0,-53.0
126.0,125.0,131.0,127.0,127.0,121.0,126.0,128.0,33.0,-114.0,-64.0,127.0,127.0,127.0,-5.0,-5.0,-53.0
126.0,125.0,131.0,127.0,128.0,121.0,126.0,128.0,33.0,-114.0,-64.0,127.0,127.0,127.0,-5.0,-5.0,-53.0
126.0,126.0,130.0,127.0,128.0,121.0,126.0,128.0,33.0,-114.0,-64.0,127.0,127.0,127.0,-5.0,-5.0,-53.0
126.0,126.0,130.0,127.0,128.0,121.0,126.0,128.0,33.0,-114.0,-64.0,127.0,127.0,127.0,-5.0,-5.0,-53.0
126.0,125.0,130.0,127.0,128.0,121.0,126.0,128.0,33.0,-114.0,-64.0,127.0,127.0,127.0,-5.0,-5.0,-53.0
126.0,125.0,130.0,127.0,128.0,121.0,126.0,128.0,33.0,-114.0,-64.0,127.0,127.0,127.0,-5.0,-5.0,-53.0
126.0,125.0,132.0,127.0,128.0,121.0,126.0,128.0,33.0,-114.0,-64.0,127.0,127.0,127.0,-5.0,-5.0,-53.0
126.0,125.0,132.0,127.0,128.0,122.0,126.0,128.0,33.0,-114.0,-64.0,127.0,127.0,127.0,-5.0,-5.0,-53.0
126.0,125.0,132.0,127.0,128.0,121.0,126.0,128.0,33.0,-114.0,-64.0,127.0,127.0,127.0,-5.0,-5.0,-53.0
126.0,125.0,130.0,127.0,127.0,120.0,127.0,128.0,32.0,-114.0,-64.0,127.0,127.0,127.0,-5.0,-5.0,-53.0
126.0,125.0,130.0,127.0,127.0,120.0,127.0,128.0,32.0,-114.0,-64.0,127.0,127.0,127.0,-5.0,-5.0,-53.0
126.0,125.0,131.0,127.0,127.0,120.0,127.0,128.0,32.0,-114.0,-64.0,127.0,127.0,127.0,-5.0,-5.0,-53.0
126.0,125.0,131.0,127.0,127.0,120.0,127.0,128.0,32.0,-114.0,-64.0,127.0,127.0,127.0,-5.0,-5.0,-53.0
126.0,124.0,131.0,126.0,127.0,120.0,127.0,128.0,32.0,-114.0,-64.0,127.0,127.0,127.0,-5.0,-5.0,-53.0
126.0,124.0,131.0,126.0,127.0,120.0,127.0,128.0,32.0,-114.0,-64.0,127.0,127.0,127.0,-5.0,-5.0,-53.0
126.0,126.0,129.0,127.0,127.0,120.0,127.0,128.0,32.0,-114.0,-64.0,127.0,127.0,127.0,-5.0,-5.0,-53.0
126.0,126.0,129.0,127.0,127.0,120.0,127.0,128.0,32.0,-114.0,-64.0,127.0,127.0,127.0,-5.0,-5.0,-53.0
126.0,125.0,129.0,127.0,127.0,120.0,127.0,128.0,32.0,-114.0,-64.0,127.0,127.0,127.0,-5.0,-5.0,-53.0
126.0,125.0,130.0,127.0,127.0,120.0,127.0,128.0,32.0,-114.0,-64.0,127.0,127.0,127.0,-5.0,-5.0,-53.0
126.0,126.0,127.0,127.0,128.0,118.0,127.0,128.0,32.0,-114.0,-64.0,127.0,127.0,127.0,-5.0,-5.0,-53.0
126.0,125.0,128.0,127.0,127.0,118.0,127.0,128.0,32.0,-114.0,-64.0,127.0,127.0,127.0,-5.0,-5.0,-53.0
126.0,125.0,128.0,127.0,127.0,117.0,127.0,128.0,32.0,-114.0,-64.0,127.0,127.0,127.0,-5.0,-5.0,-53.0
126.0,125.0,128.0,127.0,127.0,117.0,127.0,128.0,32.0,-114.0,-64.0,127.0,127.0,127.0,-5.0,-5.0,-53.0
126.0,125.0,129.0,127.0,127.0,117.0,127.0,128.0,32.0,-114.0,-64.0,127.0,127.0,127.0,-5.0,-5.0,-53.0
126.0,126.0,127.0,127.0,128.0,118.0,127.0,128.0,32.0,-114.0,-64.0,127.0,127.0,127.0,-5.0,-5.0,-53.0
126.0,126.0,127.0,127.0,128.0,118.0,127.0,128.0,32.0,-114.0,-64.0,127.0,127.0,127.0,-5.0,-5.0,-53.0
126.0,126.0,127.0,127.0,128.0,118.0,127.0,128.0,32.0,-114.0,-64.0,127.0,127.0,127.0,-5.0,-5.0,-53.0
126.0,126.0,127.0,127.0,128.0,118.0,126.0,128.0,32.0,-114.0,-64.0,127.0,127.0,127.0,-5.0,-5.0,-53.0
126.0,126.0,127.0,127.0,128.0,118.0,126.0,128.0,32.0,-114.0,-64.0,127.0,127.0,127.0,-5.0,-5.0,-53.0
126.0,125.0,126.0,127.0,128.0,117.0,127.0,128.0,31.0,-114.0,-64.0,127.0,127.0,127.0,-5.0,-5.0,-53.0
126.0,125.0,126.0,127.0,127.0,117.0,127.0,128.0,31.0,-114.0,-64.0,127.0,127.0,127.0,-5.0,-5.0,-53.0
126.0,125.0,127.0,127.0,127.0,117.0,126.0,128.0,31.0,-114.0,-64.0,127.0,127.0,127.0,-5.0,-5.0,-53.0
126.0,125.0,126.0,127.0,127.0,116.0,126.0,128.0,31.0,-114.0,-64.0,127.0,127.0,127.0,-5.0,-5.0,-53.0
126.0,125.0,125.0,127.0,128.0,117.0,127.0,128.0,31.0,-114.0,-64.0,127.0,127.0,127.0,-5.0,-5.0,-53.0
126.0,125.0,125.0,128.0,128.0,117.0,127.0,128.0,31.0,-114.0,-64.0,127.0,127.0,127.0,-5.0,-5.0,-53.0
126.0,125.0,125.0,128.0,128.0,117.0,127.0,128.0,31.0,-114.0,-64.0,127.0,127.0,127.0,-5.0,-5.0,-53.0
126.0,126.0,125.0,128.0,128.0,117.0,126.0,128.0,31.0,-114.0,-64.0,127.0,127.0,127.0,-5.0,-5.0,-53.0
126.0,126.0,125.0,128.0,128.0,117.0,126.0,128.0,31.0,-114.0,-64.0,127.0,127.0,127.0,-5.0,-5.0,-53.0
126.0,125.0,126.0,128.0,128.0,117.0,127.0,128.0,31.0,-114.0,-64.0,127.0,127.0,127.0,-5.0,-5.0,-53.0
125.0,125.0,116.0,129.0,127.0,117.0,127.0,128.0,32.0,-114.0,-64.0,127.0,127.0,127.0,-5.0,-5.0,-53.0
126.0,125.0,116.0,129.0,127.0,117.0,127.0,128.0,32.0,-114.0,-64.0,127.0,127.0,127.0,-5.0,-5.0,-53.0
125.0,125.0,116.0,129.0,128.0,117.0,127.0,128.0,32.0,-114.0,-64.0,127.0,127.0,127.0,-5.0,-5.0,-53.0
125.0,125.0,119.0,129.0,127.0,117.0,127.0,128.0,32.0,-114.0,-64.0,127.0,127.0,127.0,-5.0,-5.0,-53.0
126.0,125.0,119.0,129.0,127.0,117.0,127.0,128.0,32.0,-114.0,-64.0,127.0,127.0,127.0,-5.0,-5.0,-53.0
126.0,125.0,119.0,129.0,127.0,117.0,127.0,128.0,32.0,-114.0,-64.0,127.0,127.0,127.0,-5.0,-5.0,-53.0
125.0,125.0,118.0,129.0,127.0,117.0,127.0,128.0,32.0,-114.0,-64.0,127.0,127.0,127.0,-5.0,-5.0,-53.0
126.0,125.0,118.0,129.0,127.0,117.0,127.0,128.0,32.0,-114.0,-64.0,127.0,127.0,127.0,-5.0,-5.0,-53.0
125.0,125.0,118.0,129.0,127.0,117.0,127.0,128.0,32.0,-114.0,-64.0,127.0,127.0,127.0,-5.0,-5.0,-53.0
125.0,125.0,117.0,129.0,127.0,117.0,127.0,128.0,32.0,-114.0,-64.0,127.0,127.0,127.0,-5.0,-5.0,-53.0
125.0,126.0,115.0,128.0,128.0,116.0,127.0,128.0,32.0,-115.0,-64.0,127.0,127.0,127.0,-5.0,-5.0,-53.0
125.0,126.0,115.0,128.0,128.0,116.0,127.0,128.0,32.0,-115.0,-64.0,127.0,127.0,127.0,-5.0,-5.0,-53.0
125.0,125.0,116.0,128.0,128.0,117.0,128.0,128.0,32.0,-115.0,-64.0,127.0,127.0,127.0,-5.0,-5.0,-53.0
125.0,125.0,116.0,128.0,128.0,117.0,128.0,128.0,32.0,-115.0,-64.0,127.0,127.0,127.0,-5.0,-5.0,-53.0
125.0,125.0,116.0,128.0,128.0,117.0,128.0,128.0,32.0,-115.0,-64.0,127.0,127.0,127.0,-5.0,-5.0,-53.0
125.0,125.0,116.0,128.0,128.0,116.0,128.0,128.0,32.0,-115.0,-64.0,127.0,127.0,127.0,-5.0,-5.0,-53.0
125.0,125.0,115.0,128.0,128.0,116.0,127.0,128.0,32.0,-115.0,-64.0,127.0,127.0,127.0,-5.0,-5.0,-53.0
125.0,126.0,115.0,128.0,128.0,116.0,127.0,128.0,32.0,-115.0,-64.0,127.0,127.0,127.0,-5.0,-5.0,-53.0
125.0,126.0,115.0,128.0,128.0,116.0,127.0,128.0,32.0,-115.0,-64.0,127.0,127.0,127.0,-5.0,-5.0,-53.0
125.0,126.0,115.0,128.0,128.0,116.0,127.0,128.0,32.0,-115.0,-64.0,127.0,127.0,127.0,-5.0,-5.0,-53.0
125.0,126.0,124.0,126.0,128.0,111.0,127.0,128.0,32.0,-115.0,-64.0,127.0,127.0,127.0,-5.0,-5.0,-53.0
125.0,126.0,124.0,127.0,128.0,112.0,127.0,128.0,32.0,-115.0,-64.0,127.0,127.0,127.0,-5.0,-5.0,-53.0
125.0,126.0,124.0,127.0,128.0,112.0,127.0,128.0,32.0,-115.0,-64.0,127.0,127.0,127.0,-5.0,-5.0,-53.0
125.0,126.0,124.0,127.0,128.0,112.0,127.0,128.0,32.0,-115.0,-64.0,127.0,127.0,127.0,-5.0,-5.0,-53.0
125.0,126.0,124.0,127.0,128.0,112.0,127.0,128.0,32.0,-115.0,-64.0,127.0,127.0,127.0,-5.0,-5.0,-53.0
125.0,126.0,125.0,127.0,128.0,112.0,127.0,128.0,32.0,-115.0,-64.0,127.0,127.0,127.0,-5.0,-5.0,-53.0
125.0,126.0,125.0,127.0,128.0,111.0,127.0,128.0,32.0,-115.0,-64.0,127.0,127.0,127.0,-5.0,-5.0,-53.0
125.0,126.0,125.0,127.0,128.0,111.0,127.0,128.0,32.0,-115.0,-64.0,127.0,127.0,127.0,-5.0,-5.0,-53.0
125.0,126.0,124.0,127.0,128.0,111.0,127.0,128.0,32.0,-115.0,-64.0,127.0,127.0,127.0,-5.0,-5.0,-53.0
125.0,126.0,124.0,127.0,128.0,111.0,127.0,128.0,32.0,-115.0,-64.0,127.0,127.0,127.0,-5.0,-5.0,-53.0
125.0,126.0,115.0,128.0,128.0,108.0,127.0,128.0,32.0,-113.0,-64.0,127.0,127.0,127.0,-5.0,-5.0,-53.0
125.0,127.0,114.0,128.0,128.0,108.0,127.0,128.0,32.0,-113.0,-64.0,127.0,127.0,127.0,-5.0,-5.0,-53.0
125.0,126.0,114.0,128.0,128.0,108.0,127.0,128.0,32.0,-113.0,-64.0,127.0,127.0,127.0,-5.0,-5.0,-53.0
125.0,126.0,114.0,128.0,128.0,107.0,127.0,128.0,32.0,-113.0,-64.0,127.0,127.0,127.0,-5.0,-5.0,-53.0
125.0,127.0,113.0,128.0,128.0,108.0,127.0,128.0,32.0,-113.0,-64.0,127.0,127.0,127.0,-5.0,-5.0,-53.0
125.0,126.0,113.0,128.0,128.0,107.0,127.0,128.0,32.0,-113.0,-64.0,127.0,127.0,127.0,-5.0,-5.0,-53.0
125.0,126.0,113.0,128.0,128.0,107.0,127.0,128.0,32.0,-113.0,-64.0,127.0,127.0,127.0,-5.0,-5.0,-53.0
125.0,126.0,113.0,128.0,128.0,107.0,127.0,128.0,32.0,-113.0,-64.0,127.0,127.0,127.0,-5.0,-5.0,-53.0
125.0,126.0,113.0,128.0,128.0,107.0,127.0,128.0,32.0,-113.0,-64.0,127.0,127.0,127.0,-5.0,-5.0,-53.0
125.0,126.0,113.0,129.0,128.0,107.0,127.0,128.0,32.0,-113.0,-64.0,127.0,127.0,127.0,-5.0,-5.0,-53.0
125.0,126.0,111.0,127.0,128.0,107.0,126.0,128.0,31.0,-112.0,-64.0,127.0,127.0,127.0,-5.0,-5.0,-53.0
125.0,126.0,111.0,127.0,128.0,107.0,126.0,128.0,31.0,-112.0,-64.0,127.0,127.0,127.0,-5.0,-5.0,-53.0
125.0,126.0,111.0,127.0,128.0,107.0,126.0,128.0,31.0,-112.0,-64.0,127.0,127.0,127.0,-5.0,-5.0,-53.0
125.0,127.0,111.0,127.0,128.0,107.0,126.0,128.0,31.0,-112.0,-64.0,127.0,127.0,127.0,-5.0,-5.0,-53.0
125.0,126.0,111.0,127.0,128.0,107.0,126.0,128.0,31.0,-112.0,-64.0,127.0,127.0,127.0,-5.0,-5.0,-53.0
125.0,126.0,111.0,126.0,128.0,107.0,126.0,128.0,31.0,-112.0,-64.0,127.0,127.0,127.0,-5.0,-5.0,-53.0
125.0,126.0,111.0,126.0,128.0,107.0,126.0,128.0,31.0,-112.0,-64.0,127.0,127.0,127.0,-5.0,-5.0,-53.0
125.0,126.0,112.0,126.0,128.0,107.0,126.0,128.0,31.0,-112.0,-64.0,127.0,127.0,127.0,-5.0,-5.0,-53.0
125.0,127.0,112.0,126.0,128.0,107.0,126.0,128.0,31.0,-112.0,-64.0,127.0,127.0,127.0,-5.0,-5.0,-53.0
125.0,126.0,110.0,127.0,128.0,107.0,126.0,128.0,31.0,-112.0,-64.0,127.0,127.0,127.0,-5.0,-5.0,-53.0
125.0,126.0,124.0,127.0,128.0,112.0,127.0,128.0,32.0,-112.0,-63.0,-128.0,127.0,127.0,-5.0,-5.0,-53.0
125.0,126.0,125.0,127.0,128.0,112.0,127.0,128.0,32.0,-112.0,-63.0,-128.0,127.0,127.0,-5.0,-5.0,-53.0
125.0,126.0,124.0,127.0,128.0,112.0,127.0,128.0,32.0,-112.0,-63.0,-128.0,127.0,127.0,-5.0,-5.0,-53.0
125.0,126.0,124.0,127.0,128.0,112.0,127.0,128.0,32.0,-112.0,-63.0,-128.0,127.0,127.0,-5.0,-5.0,-53.0
125.0,126.0,125.0,127.0,128.0,112.0,127.0,128.0,32.0,-112.0,-63.0,-128.0,127.0,127.0,-5.0,-5.0,-53.0
125.0,126.0,126.0,127.0,128.0,112.0,127.0,128.0,32.0,-112.0,-63.0,-128.0,127.0,127.0,-5.0,-5.0,-53.0
125.0,126.0,126.0,127.0,128.0,112.0,127.0,128.0,32.0,-112.0,-63.0,-128.0,127.0,127.0,-5.0,-5.0,-53.0
125.0,126.0,126.0,127.0,127.0,112.0,127.0,128.0,32.0,-112.0,-63.0,-128.0,127.0,127.0,-5.0,-5.0,-53.0
125.0,126.0,123.0,127.0,128.0,111.0,127.0,128.0,32.0,-112.0,-63.0,-128.0,127.0,127.0,-5.0,-5.0,-53.0
125.0,126.0,124.0,127.0,128.0,112.0,127.0,128.0,32.0,-112.0,-63.0,-128.0,127.0,127.0,-5.0,-5.0,-53.0
126.0,126.0,130.0,127.0,127.0,113.0,127.0,128.0,32.0,-112.0,-63.0,-128.0,127.0,127.0,-5.0,-5.0,-53.0
125.0,127.0,130.0,127.0,127.0,113.0,127.0,128.0,32.0,-112.0,-63.0,-128.0,127.0,127.0,-5.0,-5.0,-53.0
126.0,126.0,130.0,127.0,127.0,113.0,127.0,128.0,32.0,-112.0,-63.0,-128.0,127.0,127.0,-5.0,-5.0,-53.0
125.0,126.0,131.0,127.0,127.0,113.0,127.0,128.0,32.0,-112.0,-63.0,-128.0,127.0,127.0,-5.0,-5.0,-53.0
125.0,126.0,131.0,127.0,127.0,113.0,127.0,128.0,32.0,-112.0,-63.0,-128.0,127.0,127.0,-5.0,-5.0,-53.0
126.0,126.0,132.0,127.0,127.0,113.0,127.0,128.0,32.0,-112.0,-63.0,-128.0,127.0,127.0,-5.0,-5.0,-53.0
126.0,126.0,132.0,127.0,127.0,113.0,127.0,128.0,32.0,-112.0,-63.0,-128.0,127.0,127.0,-5.0,-5.0,-53.0
125.0,127.0,129.0,127.0,127.0,113.0,127.0,128.0,32.0,-112.0,-63.0,-128.0,127.0,127.0,-5.0,-5.0,-53.0
126.0,127.0,130.0,127.0,128.0,113.0,127.0,128.0,32.0,-112.0,-63.0,-128.0,127.0,127.0,-5.0,-5.0,-53.0
126.0,127.0,130.0,127.0,127.0,113.0,127.0,128.0,32.0,-112.0,-63.0,-128.0,127.0,127.0,-5.0,-5.0,-53.0
125.0,126.0,129.0,128.0,128.0,109.0,127.0,128.0,32.0,-112.0,-63.0,-128.0,127.0,127.0,-5.0,-5.0,-53.0
125.0,126.0,130.0,128.0,128.0,109.0,127.0,128.0,32.0,-112.0,-63.0,-128.0,127.0,127.0,-5.0,-5.0,-53.0
125.0,126.0,130.0,128.0,128.0,109.0,127.0,128.0,32.0,-112.0,-63.0,-128.0,127.0,127.0,-5.0,-5.0,-53.0
125.0,126.0,131.0,128.0,128.0,109.0,127.0,128.0,32.0,-112.0,-63.0,-128.0,127.0,127.0,-5.0,-5.0,-53.0
125.0,126.0,131.0,128.0,128.0,109.0,128.0,128.0,32.0,-112.0,-63.0,-128.0,127.0,127.0,-5.0,-5.0,-53.0
125.0,126.0,131.0,128.0,128.0,109.0,127.0,128.0,32.0,-112.0,-63.0,-128.0,127.0,127.0,-5.0,-5.0,-53.0
125.0,126.0,128.0,128.0,128.0,109.0,127.0,128.0,32.0,-112.0,-63.0,-128.0,127.0,127.0,-5.0,-5.0,-53.0
125.0,126.0,128.0,128.0,128.0,109.0,127.0,128.0,32.0,-112.0,-63.0,-128.0,127.0,127.0,-5.0,-5.0,-53.0
125.0,127.0,128.0,128.0,128.0,109.0,127.0,128.0,32.0,-112.0,-63.0,-128.0,127.0,127.0,-5.0,-5.0,-53.0
125.0,126.0,128.0,128.0,128.0,109.0,127.0,128.0,32.0,-112.0,-63.0,-128.0,127.0,127.0,-5.0,-5.0,-53.0
126.0,126.0,130.0,127.0,128.0,110.0,127.0,128.0,31.0,-112.0,-63.0,-128.0,127.0,127.0,-5.0,-5.0,-53.0
126.0,125.0,131.0,127.0,128.0,110.0,127.0,128.0,31.0,-112.0,-63.0,-128.0,127.0,127.0,-5.0,-5.0,-53.0
126.0,126.0,131.0,127.0,128.0,110.0,127.0,128.0,31.0,-112.0,-63.0,-128.0,127.0,127.0,-5.0,-5.0,-53.0
126.0,126.0,130.0,127.0,128.0,110.0,127.0,128.0,31.0,-112.0,-63.0,-128.0,127.0,127.0,-5.0,-5.0,-53.0
126.0,126.0,131.0,127.0,128.0,110.0,127.0,128.0,31.0,-112.0,-63.0,-128.0,127.0,127.0,-5.0,-5.0,-53.0
126.0,126.0,129.0,128.0,128.0,110.0,127.0,128.0,31.0,-112.0,-63.0,-128.0,127.0,127.0,-5.0,-5.0,-53.0
126.0,126.0,129.0,127.0,128.0,110.0,127.0,128.0,31.0,-112.0,-63.0,-128.0,127.0,127.0,-5.0,-5.0,-53.0
126.0,126.0,130.0,127.0,128.0,110.0,127.0,128.0,31.0,-112.0,-63.0,-128.0,127.0,127.0,-5.0,-5.0,-53.0
126.0,126.0,130.0,127.0,128.0,110.0,127.0,128.0,31.0,-112.0,-63.0,-128.0,127.0,127.0,-5.0,-5.0,-53.0
126.0,126.0,130.0,127.0,128.0,110.0,127.0,128.0,31.0,-112.0,-63.0,-128.0,127.0,127.0,-5.0,-5.0,-53.0
125.0,127.0,132.0,128.0,128.0,111.0,127.0,128.0,31.0,-111.0,-63.0,-128.0,127.0,127.0,-5.0,-5.0,-53.0
125.0,127.0,132.0,128.0,127.0,111.0,126.0,128.0,31.0,-111.0,-63.0,-128.0,127.0,127.0,-5.0,-5.0,-53.0
125.0,127.0,132.0,128.0,127.0,111.0,126.0,128.0,31.0,-111.0,-63.0,-128.0,127.0,127.0,-5.0,-5.0,-53.0
125.0,127.0,132.0,128.0,127.0,111.0,126.0,128.0,31.0,-111.0,-63.0,-128.0,127.0,127.0,-5.0,-5.0,-53.0
125.0,127.0,131.0,129.0,127.0,110.0,126.0,128.0,31.0,-111.0,-63.0,-128.0,127.0,127.0,-5.0,-5.0,-53.0
125.0,127.0,131.0,128.0,128.0,110.0,126.0,128.0,31.0,-111.0,-63.0,-128.0,127.0,127.0,-5.0,-5.0,-53.0
125.0,128.0,131.0,128.0,128.0,111.0,126.0,128.0,31.0,-111.0,-63.0,-128.0,127.0,127.0,-5.0,-5.0,-53.0
125.0,128.0,131.0,128.0,128.0,111.0,127.0,128.0,31.0,-111.0,-63.0,-128.0,127.0,127.0,-5.0,-5.0,-53.0
125.0,127.0,131.0,128.0,128.0,111.0,127.0,128.0,31.0,-111.0,-63.0,-128.0,127.0,127.0,-5.0,-5.0,-53.0
125.0,127.0,132.0,128.0,128.0,111.0,127.0,128.0,31.0,-111.0,-63.0,-128.0,127.0,127.0,-5.0,-5.0,-53.0
126.0,128.0,132.0,125.0,127.0,115.0,126.0,128.0,32.0,-112.0,-63.0,-128.0,127.0,127.0,-5.0,-5.0,-53.0
126.0,128.0,131.0,125.0,127.0,115.0,126.0,128.0,32.0,-112.0,-63.0,-128.0,127.0,127.0,-5.0,-5.0,-53.0
126.0,128.0,131.0,125.0,127.0,115.0,126.0,128.0,32.0,-112.0,-63.0,-128.0,127.0,127.0,-5.0,-5.0,-53.0
126.0,128.0,131.0,126.0,127.0,114.0,126.0,128.0,32.0,-112.0,-63.0,-128.0,127.0,127.0,-5.0,-5.0,-53.0
126.0,128.0,131.0,126.0,127.0,114.0,126.0,128.0,32.0,-112.0,-63.0,-128.0,127.0,127.0,-5.0,-5.0,-53.0
126.0,128.0,132.0,126.0,127.0,114.0,126.0,128.0,32.0,-112.0,-63.0,-128.0,127.0,127.0,-5.0,-5.0,-53.0
126.0,128.0,132.0,126.0,127.0,114.0,126.0,128.0,32.0,-112.0,-63.0,-128.0,127.0,127.0,-5.0,-5.0,-53.0
126.0,128.0,132.0,125.0,127.0,114.0,126.0,128.0,32.0,-112.0,-63.0,-128.0,127.0,127.0,-5.0,-5.0,-53.0
126.0,128.0,132.0,125.0,127.0,115.0,126.0,128.0,32.0,-112.0,-63.0,-128.0,127.0,127.0,-5.0,-5.0,-53.0
126.0,128.0,132.0,125.0,127.0,115.0,126.0,128.0,32.0,-112.0,-63.0,-128.0,127.0,127.0,-5.0,-5.0,-53.0
126.0,128.0,133.0,126.0,127.0,117.0,125.0,128.0,32.0,-112.0,-63.0,-128.0,127.0,127.0,-5.0,-5.0,-53.0
126.0,128.0,133.0,126.0,127.0,118.0,125.0,128.0,32.0,-112.0,-63.0,-128.0,127.0,127.0,-5.0,-5.0,-53.0
126.0,128.0,134.0,126.0,127.0,117.0,126.0,128.0,32.0,-112.0,-63.0,-128.0,127.0,127.0,-5.0,-5.0,-53.0
126.0,128.0,134.0,126.0,127.0,117.0,125.0,128.0,32.0,-112.0,-63.0,-128.0,127.0,127.0,-5.0,-5.0,-53.0
126.0,128.0,133.0,126.0,127.0,117.0,125.0,128.0,32.0,-112.0,-63.0,-128.0,127.0,127.0,-5.0,-5.0,-53.0
126.0,128.0,133.0,126.0,127.0,117.0,125.0,128.0,32.0,-112.0,-63.0,-128.0,127.0,127.0,-5.0,-5.0,-53.0
126.0,128.0,133.0,126.0,127.0,117.0,125.0,128.0,32.0,-112.0,-63.0,-128.0,127.0,127.0,-5.0,-5.0,-53.0
126.0,128.0,134.0,126.0,127.0,117.0,125.0,128.0,32.0,-112.0,-63.0,-128.0,127.0,127.0,-5.0,-5.0,-53.0
126.0,128.0,134.0,126.0,127.0,118.0,125.0,128.0,32.0,-112.0,-63.0,-128.0,127.0,127.0,-5.0,-5.0,-53.0
126.0,128.0,134.0,126.0,127.0,118.0,125.0,128.0,32.0,-112.0,-63.0,-128.0,127.0,127.0,-5.0,-5.0,-53.0
126.0,127.0,132.0,127.0,128.0,118.0,126.0,128.0,33.0,-112.0,-63.0,-128.0,127.0,127.0,-5.0,-5.0,-53.0
126.0,127.0,133.0,127.0,127.0,118.0,126.0,128.0,33.0,-112.0,-63.0,-128.0,127.0,127.0,-5.0,-5.0,-53.0
126.0,127.0,133.0,127.0,127.0,118.0,126.0,128.0,33.0,-112.0,-63.0,-128.0,127.0,127.0,-5.0,-5.0,-53.0
126.0,127.0,132.0,127.0,127.0,118.0,126.0,128.0,33.0,-112.0,-63.0,-128.0,127.0,127.0,-5.0,-5.0,-53.0
126.0,127.0,132.0,127.0,128.0,118.0,126.0,128.0,33.0,-112.0,-63.0,-128.0,127.0,127.0,-5.0,-5.0,-53.0
126.0,127.0,132.0,127.0,127.0,118.0,126.0,128.0,33.0,-112.0,-63.0,-128.0,127.0,127.0,-5.0,-5.0,-53.0
126.0,127.0,132.0,127.0,128.0,118.0,127.0,128.0,33.0,-112.0,-63.0,-128.0,127.0,127.0,-5.0,-5.0,-53.0
126.0,127.0,133.0,127.0,127.0,118.0,127.0,128.0,33.0,-112.0,-63.0,-128.0,127.0,127.0,-5.0,-5.0,-53.0
126.0,127.0,133.0,127.0,127.0,118.0,127.0,128.0,33.0,-112.0,-63.0,-128.0,127.0,127.0,-5.0,-5.0,-53.0
126.0,127.0,132.0,127.0,128.0,118.0,126.0,128.0,33.0,-112.0,-63.0,-128.0,127.0,127.0,-5.0,-5.0,-53.0
126.0,127.0,125.0,129.0,128.0,117.0,127.0,128.0,32.0,-111.0,-63.0,-128.0,127.0,127.0,-5.0,-5.0,-53.0
126.0,127.0,126.0,129.0,128.0,117.0,127.0,128.0,32.0,-111.0,-63.0,-128.0,127.0,127.0,-5.0,-5.0,-53.0
126.0,127.0,126.0,129.0,128.0,117.0,127.0,128.0,32.0,-111.0,-63.0,-128.0,127.0,127.0,-5.0,-5.0,-53.0
126.0,127.0,127.0,129.0,128.0,116.0,127.0,128.0,32.0,-111.0,-63.0,-128.0,127.0,127.0,-5.0,-5.0,-53.0
126.0,127.0,127.0,130.0,128.0,116.0,127.0,128.0,32.0,-111.0,-63.0,-128.0,127.0,127.0,-5.0,-5.0,-53.0
126.0,127.0,128.0,130.0,128.0,116.0,127.0,128.0,32.0,-111.0,-63.0,-128.0,127.0,127.0,-5.0,-5.0,-53.0
126.0,127.0,129.0,130.0,127.0,116.0,127.0,128.0,32.0,-111.0,-63.0,-128.0,127.0,127.0,-5.0,-5.0,-53.0
126.0,127.0,129.0,130.0,127.0,116.0,127.0,128.0,32.0,-111.0,-63.0,-128.0,127.0,127.0,-5.0,-5.0,-53.0
126.0,127.0,129.0,129.0,127.0,116.0,127.0,128.0,32.0,-111.0,-63.0,-128.0,127.0,127.0,-5.0,-5.0,-53.0
126.0,127.0,128.0,130.0,128.0,116.0,127.0,128.0,32.0,-111.0,-63.0,-128.0,127.0,127.0,-5.0,-5.0,-53.0
126.0,127.0,126.0,131.0,127.0,116.0,127.0,128.0,32.0,-110.0,-63.0,-128.0,127.0,127.0,-5.0,-5.0,-53.0
126.0,127.0,126.0,130.0,127.0,116.0,128.0,128.0,32.0,-110.0,-63.0,-128.0,127.0,127.0,-5.0,-5.0,-53.0
126.0,127.0,126.0,130.0,127.0,116.0,128.0,128.0,32.0,-110.0,-63.0,-128.0,127.0,127.0,-5.0,-5.0,-53.0
126.0,127.0,126.0,130.0,127.0,117.0,128.0,128.0,32.0,-110.0,-63.0,-128.0,127.0,127.0,-5.0,-5.0,-53.0
126.0,127.0,127.0,130.0,127.0,117.0,128.0,128.0,32.0,-110.0,-63.0,-128.0,127.0,127.0,-5.0,-5.0,-53.0
126.0,127.0,127.0,130.0,127.0,117.0,127.0,128.0,32.0,-110.0,-63.0,-128.0,127.0,127.0,-5.0,-5.0,-53.0
126.0,127.0,127.0,130.0,127.0,117.0,127.0,128.0,32.0,-110.0,-63.0,-128.0,127.0,127.0,-5.0,-5.0,-53.0
126.0,127.0,127.0,130.0,127.0,117.0,127.0,128.0,32.0,-110.0,-63.0,-128.0,127.0,127.0,-5.0,-5.0,-53.0
126.0,127.0,126.0,130.0,127.0,117.0,127.0,128.0,32.0,-110.0,-63.0,-128.0,127.0,127.0,-5.0,-5.0,-53.0
126.0,127.0,126.0,130.0,127.0,116.0,127.0,128.0,32.0,-110.0,-63.0,-128.0,127.0,127.0,-5.0,-5.0,-53.0
126.0,127.0,127.0,125.0,127.0,118.0,127.0,128.0,32.0,-110.0,-63.0,-128.0,127.0,127.0,-5.0,-5.0,-53.0
126.0,128.0,126.0,124.0,127.0,118.0,127.0,128.0,32.0,-110.0,-63.0,-128.0,127.0,127.0,-5.0,-5.0,-53.0
126.0,127.0,126.0,124.0,127.0,119.0,128.0,128.0,32.0,-110.0,-63.0,-128.0,127.0,127.0,-5.0,-5.0,-53.0
126.0,127.0,127.0,124.0,126.0,119.0,128.0,128.0,32.0,-110.0,-63.0,-128.0,127.0,127.0,-5.0,-5.0,-53.0
126.0,127.0,128.0,124.0,126.0,118.0,128.0,128.0,32.0,-110.0,-63.0,-128.0,127.0,127.0,-5.0,-5.0,-53.0
126.0,127.0,129.0,124.0,126.0,118.0,128.0,128.0,32.0,-110.0,-63.0,-128.0,127.0,127.0,-5.0,-5.0,-53.0
126.0,127.0,129.0,124.0,126.0,118.0,127.0,128.0,32.0,-110.0,-63.0,-128.0,127.0,127.0,-5.0,-5.0,-53.0
126.0,127.0,128.0,124.0,127.0,118.0,127.0,128.0,32.0,-110.0,-63.0,-128.0,127.0,127.0,-5.0,-5.0,-53.0
126.0,128.0,126.0,125.0,127.0,118.0,127.0,128.0,32.0,-110.0,-63.0,-128.0,127.0,127.0,-5.0,-5.0,-53.0
126.0,128.0,126.0,125.0,127.0,118.0,127.0,128.0,32.0,-110.0,-63.0,-128.0,127.0,127.0,-5.0,-5.0,-53.0
126.0,127.0,134.0,126.0,127.0,119.0,127.0,128.0,32.0,-111.0,-63.0,-128.0,127.0,127.0,-5.0,-5.0,-53.0
126.0,127.0,134.0,126.0,127.0,119.0,127.0,128.0,32.0,-111.0,-63.0,-128.0,127.0,127.0,-5.0,-5.0,-53.0
126.0,127.0,135.0,126.0,127.0,119.0,127.0,128.0,32.0,-111.0,-63.0,-128.0,127.0,127.0,-5.0,-5.0,-53.0
126.0,127.0,134.0,126.0,127.0,119.0,127.0,128.0,32.0,-111.0,-63.0,-128.0,127.0,127.0,-5.0,-5.0,-53.0
126.0,127.0,134.0,126.0,127.0,120.0,127.0,128.0,32.0,-111.0,-63.0,-128.0,127.0,127.0,-5.0,-5.0,-53.0
126.0,127.0,135.0,126.0,127.0,120.0,127.0,128.0,32.0,-111.0,-63.0,-128.0,127.0,127.0,-5.0,-5.0,-53.0
126.0,127.0,134.0,126.0,127.0,120.0,127.0,128.0,32.0,-111.0,-63.0,-128.0,127.0,127.0,-5.0,-5.0,-53.0
126.0,127.0,133.0,126.0,127.0,119.0,127.0,128.0,32.0,-111.0,-63.0,-128.0,127.0,127.0,-5.0,-5.0,-53.0
126.0,127.0,133.0,126.0,127.0,119.0,127.0,128.0,32.0,-111.0,-63.0,-128.0,127.0,127.0,-5.0,-5.0,-53.0
126.0,127.0,134.0,126.0,127.0,119.0,127.0,128.0,32.0,-111.0,-63.0,-128.0,127.0,127.0,-5.0,-5.0,-53.0
126.0,127.0,138.0,126.0,127.0,122.0,127.0,128.0,33.0,-111.0,-63.0,-128.0,127.0,127.0,-5.0,-5.0,-53.0
126.0,127.0,138.0,126.0,127.0,122.0,127.0,128.0,33.0,-111.0,-63.0,-128.0,127.0,127.0,-5.0,-5.0,-53.0
126.0,127.0,138.0,126.0,127.0,122.0,127.0,128.0,33.0,-111.0,-63.0,-128.0,127.0,127.0,-5.0,-5.0,-53.0
126.0,127.0,138.0,126.0,127.0,122.0,127.0,128.0,33.0,-111.0,-63.0,-128.0,127.0,127.0,-5.0,-5.0,-53.0
126.0,127.0,138.0,126.0,127.0,122.0,127.0,128.0,33.0,-111.0,-63.0,-128.0,127.0,127.0,-5.0,-5.0,-53.0
126.0,127.0,138.0,126.0,127.0,122.0,127.0,128.0,33.0,-111.0,-63.0,-128.0,127.0,127.0,-5.0,-5.0,-53.0
126.0,127.0,138.0,126.0,127.0,121.0,127.0,128.0,33.0,-111.0,-63.0,-128.0,127.0,127.0,-5.0,-5.0,-53.0
126.0,127.0,138.0,125.0,127.0,122.0,127.0,128.0,33.0,-111.0,-63.0,-128.0,127.0,127.0,-5.0,-5.0,-53.0
126.0,126.0,139.0,125.0,127.0,121.0,127.0,128.0,33.0,-111.0,-63.0,-128.0,127.0,127.0,-5.0,-5.0,-53.0
126.0,127.0,138.0,125.0,127.0,122.0,127.0,128.0,33.0,-111.0,-63.0,-128.0,127.0,127.0,-5.0,-5.0,-53.0
126.0,127.0,147.0,128.0,127.0,122.0,128.0,128.0,32.0,-110.0,-63.0,-128.0,127.0,127.0,-5.0,-5.0,-53.0
126.0,127.0,148.0,128.0,127.0,122.0,128.0,128.0,32.0,-110.0,-63.0,-128.0,127.0,127.0,-5.0,-5.0,-53.0
126.0,127.0,149.0,128.0,127.0,122.0,128.0,128.0,32.0,-110.0,-63.0,-128.0,127.0,127.0,-5.0,-5.0,-53.0
126.0,127.0,149.0,128.0,127.0,122.0,128.0,128.0,32.0,-110.0,-63.0,-128.0,127.0,127.0,-5.0,-5.0,-53.0
126.0,127.0,149.0,128.0,127.0,122.0,128.0,128.0,32.0,-110.0,-63.0,-128.0,127.0,127.0,-5.0,-5.0,-53.0
126.0,127.0,143.0,128.0,127.0,122.0,127.0,128.0,32.0,-110.0,-63.0,-128.0,127.0,127.0,-5.0,-5.0,-53.0
126.0,127.0,144.0,128.0,127.0,122.0,127.0,128.0,32.0,-110.0,-63.0,-128.0,127.0,127.0,-5.0,-5.0,-53.0
126.0,127.0,144.0,128.0,127.0,122.0,127.0,128.0,32.0,-110.0,-63.0,-128.0,127.0,127.0,-5.0,-5.0,-53.0
126.0,127.0,145.0,128.0,127.0,122.0,128.0,128.0,32.0,-110.0,-63.0,-128.0,127.0,127.0,-5.0,-5.0,-53.0
126.0,127.0,146.0,128.0,127.0,122.0,128.0,128.0,32.0,-110.0,-63.0,-128.0,127.0,127.0,-5.0,-5.0,-53.0
126.0,128.0,166.0,130.0,127.0,119.0,127.0,128.0,31.0,-109.0,-63.0,-128.0,127.0,127.0,-5.0,-5.0,-53.0
126.0,128.0,165.0,130.0,127.0,120.0,127.0,128.0,31.0,-109.0,-63.0,-128.0,127.0,127.0,-5.0,-5.0,-53.0
126.0,128.0,166.0,130.0,127.0,120.0,127.0,128.0,31.0,-109.0,-63.0,-128.0,127.0,127.0,-5.0,-5.0,-53.0
126.0,128.0,166.0,130.0,127.0,120.0,127.0,128.0,31.0,-109.0,-63.0,-128.0,127.0,127.0,-5.0,-5.0,-53.0
126.0,127.0,167.0,129.0,127.0,119.0,128.0,128.0,31.0,-109.0,-63.0,-128.0,127.0,127.0,-5.0,-5.0,-53.0
126.0,127.0,167.0,130.0,127.0,119.0,128.0,128.0,31.0,-109.0,-63.0,-128.0,127.0,127.0,-5.0,-5.0,-53.0
126.0,127.0,167.0,130.0,127.0,119.0,128.0,128.0,31.0,-109.0,-63.0,-128.0,127.0,127.0,-5.0,-5.0,-53.0
126.0,127.0,166.0,129.0,127.0,119.0,127.0,128.0,31.0,-109.0,-63.0,-128.0,127.0,127.0,-5.0,-5.0,-53.0
126.0,128.0,166.0,130.0,127.0,119.0,127.0,128.0,31.0,-109.0,-63.0,-128.0,127.0,127.0,-5.0,-5.0,-53.0
126.0,128.0,166.0,130.0,127.0,119.0,127.0,128.0,31.0,-109.0,-63.0,-128.0,127.0,127.0,-5.0,-5.0,-53.0
126.0,127.0,180.0,129.0,127.0,119.0,128.0,128.0,30.0,-108.0,-63.0,-128.0,127.0,127.0,-5.0,-5.0,-53.0
126.0,127.0,181.0,129.0,127.0,119.0,128.0,128.0,30.0,-108.0,-63.0,-128.0,127.0,127.0,-5.0,-5.0,-53.0
126.0,127.0,181.0,129.0,127.0,119.0,128.0,128.0,30.0,-108.0,-63.0,-128.0,127.0,127.0,-5.0,-5.0,-53.0
126.0,127.0,177.0,129.0,127.0,120.0,128.0,128.0,30.0,-108.0,-63.0,-128.0,127.0,127.0,-5.0,-5.0,-53.0
126.0,127.0,177.0,129.0,127.0,119.0,128.0,128.0,30.0,-108.0,-63.0,-128.0,127.0,127.0,-5.0,-5.0,-53.0
126.0,127.0,178.0,129.0,127.0,120.0,128.0,128.0,30.0,-108.0,-63.0,-128.0,127.0,127.0,-5.0,-5.0,-53.0
126.0,127.0,178.0,129.0,127.0,119.0,128.0,128.0,30.0,-108.0,-63.0,-128.0,127.0,127.0,-5.0,-5.0,-53.0
126.0,128.0,178.0,129.0,127.0,120.0,128.0,128.0,30.0,-108.0,-63.0,-128.0,127.0,127.0,-5.0,-5.0,-53.0
126.0,127.0,179.0,129.0,127.0,120.0,128.0,128.0,30.0,-108.0,-63.0,-128.0,127.0,127.0,-5.0,-5.0,-53.0
126.0,127.0,179.0,129.0,127.0,119.0,128.0,128.0,30.0,-108.0,-63.0,-128.0,127.0,127.0,-5.0,-5.0,-53.0
126.0,128.0,194.0,128.0,127.0,118.0,127.0,128.0,29.0,-108.0,-63.0,-128.0,127.0,127.0,-5.0,-5.0,-53.0
126.0,128.0,194.0,128.0,127.0,118.0,127.0,128.0,29.0,-108.0,-63.0,-128.0,127.0,127.0,-5.0,-5.0,-53.0
126.0,127.0,194.0,128.0,127.0,118.0,127.0,128.0,29.0,-108.0,-63.0,-128.0,127.0,127.0,-5.0,-5.0,-53.0
126.0,127.0,194.0,128.0,127.0,118.0,127.0,128.0,29.0,-108.0,-63.0,-128.0,127.0,127.0,-5.0,-5.0,-53.0
126.0,127.0,194.0,128.0,127.0,118.0,127.0,128.0,29.0,-108.0,-63.0,-128.0,127.0,127.0,-5.0,-5.0,-53.0
126.0,127.0,194.0,128.0,127.0,118.0,127.0,128.0,29.0,-108.0,-63.0,-128.0,127.0,127.0,-5.0,-5.0,-53.0
126.0,128.0,194.0,128.0,127.0,118.0,127.0,128.0,29.0,-108.0,-63.0,-128.0,127.0,127.0,-5.0,-5.0,-53.0
126.0,128.0,194.0,128.0,127.0,118.0,127.0,128.0,29.0,-108.0,-63.0,-128.0,127.0,127.0,-5.0,-5.0,-53.0
126.0,128.0,194.0,128.0,127.0,118.0,127.0,128.0,29.0,-108.0,-63.0,-128.0,127.0,127.0,-5.0,-5.0,-53.0
126.0,128.0,194.0,128.0,127.0,118.0,127.0,128.0,29.0,-108.0,-63.0,-128.0,127.0,127.0,-5.0,-5.0,-53.0
126.0,128.0,194.0,128.0,127.0,119.0,127.0,128.0,29.0,-108.0,-63.0,-128.0,127.0,127.0,-5.0,-5.0,-53.0
126.0,128.0,193.0,128.0,127.0,118.0,127.0,128.0,29.0,-108.0,-63.0,-128.0,127.0,127.0,-5.0,-5.0,-53.0
126.0,128.0,192.0,128.0,127.0,119.0,127.0,128.0,29.0,-108.0,-63.0,-128.0,127.0,127.0,-5.0,-5.0,-53.0
126.0,128.0,193.0,128.0,127.0,119.0,127.0,128.0,29.0,-108.0,-63.0,-128.0,127.0,127.0,-5.0,-5.0,-53.0
126.0,128.0,193.0,128.0,127.0,119.0,127.0,128.0,29.0,-108.0,-63.0,-128.0,127.0,127.0,-5.0,-5.0,-53.0
126.0,128.0,193.0,128.0,127.0,119.0,127.0,128.0,29.0,-108.0,-63.0,-128.0,127.0,127.0,-5.0,-5.0,-53.0
126.0,128.0,194.0,128.0,127.0,119.0,127.0,128.0,29.0,-108.0,-63.0,-128.0,127.0,127.0,-5.0,-5.0,-53.0
126.0,128.0,194.0,128.0,127.0,119.0,127.0,128.0,29.0,-108.0,-63.0,-128.0,127.0,127.0,-5.0,-5.0,-53.0
126.0,128.0,193.0,128.0,127.0,119.0,127.0,128.0,29.0,-108.0,-63.0,-128.0,127.0,127.0,-5.0,-5.0,-53.0
126.0,128.0,194.0,128.0,127.0,119.0,127.0,128.0,29.0,-108.0,-63.0,-128.0,127.0,127.0,-5.0,-5.0,-53.0
126.0,128.0,203.0,128.0,127.0,121.0,127.0,128.0,29.0,-108.0,-63.0,-128.0,127.0,127.0,-5.0,-5.0,-53.0
126.0,128.0,203.0,128.0,127.0,121.0,127.0,128.0,29.0,-108.0,-63.0,-128.0,127.0,127.0,-5.0,-5.0,-53.0
126.0,128.0,203.0,128.0,127.0,121.0,127.0,128.0,29.0,-108.0,-63.0,-128.0,127.0,127.0,-5.0,-5.0,-53.0
126.0,128.0,203.0,128.0,127.0,121.0,127.0,128.0,29.0,-108.0,-63.0,-128.0,127.0,127.0,-5.0,-5.0,-53.0
126.0,128.0,204.0,128.0,127.0,120.0,127.0,128.0,29.0,-108.0,-63.0,-128.0,127.0,127.0,-5.0,-5.0,-53.0
126.0,128.0,204.0,128.0,127.0,120.0,127.0,128.0,29.0,-108.0,-63.0,-128.0,127.0,127.0,-5.0,-5.0,-53.0
126.0,128.0,204.0,128.0,127.0,120.0,127.0,128.0,29.0,-108.0,-63.0,-128.0,127.0,127.0,-5.0,-5.0,-53.0
126.0,128.0,204.0,129.0,127.0,120.0,127.0,128.0,29.0,-108.0,-63.0,-128.0,127.0,127.0,-5.0,-5.0,-53.0
126.0,128.0,204.0,129.0,127.0,120.0,127.0,128.0,29.0,-108.0,-63.0,-128.0,127.0,127.0,-5.0,-5.0,-53.0
126.0,128.0,205.0,129.0,127.0,120.0,127.0,128.0,29.0,-108.0,-63.0,-128.0,127.0,127.0,-5.0,-5.0,-53.0
126.0,128.0,213.0,129.0,127.0,118.0,127.0,128.0,28.0,-107.0,-63.0,-128.0,127.0,127.0,-5.0,-5.0,-53.0
126.0,128.0,213.0,129.0,127.0,119.0,127.0,128.0,28.0,-107.0,-63.0,-128.0,127.0,127.0,-5.0,-5.0,-53.0
126.0,128.0,212.0,129.0,127.0,119.0,127.0,128.0,28.0,-107.0,-63.0,-128.0,127.0,127.0,-5.0,-5.0,-53.0
126.0,128.0,212.0,129.0,127.0,118.0,127.0,128.0,28.0,-107.0,-63.0,-128.0,127.0,127.0,-5.0,-5.0,-53.0
126.0,128.0,212.0,129.0,127.0,118.0,127.0,128.0,28.0,-107.0,-63.0,-128.0,127.0,127.0,-5.0,-5.0,-53.0
126.0,128.0,212.0,129.0,127.0,119.0,127.0,128.0,28.0,-107.0,-63.0,-128.0,127.0,127.0,-5.0,-5.0,-53.0
126.0,127.0,212.0,129.0,127.0,119.0,127.0,128.0,28.0,-107.0,-63.0,-128.0,127.0,127.0,-5.0,-5.0,-53.0
126.0,127.0,211.0,129.0,127.0,119.0,127.0,128.0,28.0,-107.0,-63.0,-128.0,127.0,127.0,-5.0,-5.0,-53.0
126.0,127.0,211.0,129.0,127.0,119.0,127.0,128.0,28.0,-107.0,-63.0,-128.0,127.0,127.0,-5.0,-5.0,-53.0
126.0,128.0,214.0,129.0,127.0,118.0,127.0,128.0,28.0,-107.0,-63.0,-128.0,127.0,127.0,-5.0,-5.0,-53.0
126.0,129.0,194.0,128.0,127.0,122.0,127.0,128.0,28.0,-106.0,-64.0,-128.0,127.0,127.0,-5.0,-5.0,-53.0
126.0,128.0,195.0,128.0,127.0,122.0,128.0,128.0,28.0,-106.0,-64.0,-128.0,127.0,127.0,-5.0,-5.0,-53.0
126.0,128.0,195.0,127.0,127.0,122.0,128.0,128.0,28.0,-106.0,-64.0,-128.0,127.0,127.0,-5.0,-5.0,-53.0
126.0,128.0,196.0,127.0,127.0,122.0,128.0,128.0,28.0,-106.0,-64.0,-128.0,127.0,127.0,-5.0,-5.0,-53.0
126.0,128.0,196.0,127.0,127.0,122.0,128.0,128.0,28.0,-106.0,-64.0,-128.0,127.0,127.0,-5.0,-5.0,-53.0
126.0,128.0,197.0,127.0,127.0,122.0,128.0,128.0,28.0,-106.0,-64.0,-128.0,127.0,127.0,-5.0,-5.0,-53.0
126.0,128.0,197.0,127.0,127.0,122.0,128.0,128.0,28.0,-106.0,-64.0,-128.0,127.0,127.0,-5.0,-5.0,-53.0
126.0,128.0,198.0,127.0,127.0,122.0,128.0,128.0,28.0,-106.0,-64.0,-128.0,127.0,127.0,-5.0,-5.0,-53.0
126.0,129.0,195.0,128.0,127.0,122.0,128.0,128.0,28.0,-106.0,-64.0,-128.0,127.0,127.0,-5.0,-5.0,-53.0
126.0,129.0,195.0,128.0,127.0,122.0,127.0,128.0,28.0,-106.0,-64.0,-128.0,127.0,127.0,-5.0,-5.0,-53.0
126.0,128.0,208.0,126.0,126.0,121.0,127.0,128.0,28.0,-105.0,-64.0,-128.0,127.0,127.0,-5.0,-5.0,-53.0
126.0,128.0,207.0,126.0,126.0,121.0,127.0,128.0,28.0,-105.0,-64.0,-128.0,127.0,127.0,-5.0,-5.0,-53.0
126.0,128.0,206.0,126.0,127.0,121.0,127.0,128.0,28.0,-105.0,-64.0,-128.0,127.0,127.0,-5.0,-5.0,-53.0
126.0,129.0,206.0,126.0,127.0,121.0,127.0,128.0,28.0,-105.0,-64.0,-128.0,127.0,127.0,-5.0,-5.0,-53.0
126.0,128.0,206.0,126.0,126.0,121.0,127.0,128.0,28.0,-105.0,-64.0,-128.0,127.0,127.0,-5.0,-5.0,-53.0
126.0,129.0,205.0,126.0,127.0,122.0,127.0,128.0,28.0,-105.0,-64.0,-128.0,127.0,127.0,-5.0,-5.0,-53.0
126.0,129.0,205.0,126.0,127.0,122.0,127.0,128.0,28.0,-105.0,-64.0,-128.0,127.0,127.0,-5.0,-5.0,-53.0
126.0,128.0,208.0,126.0,127.0,121.0,127.0,128.0,28.0,-105.0,-64.0,-128.0,127.0,127.0,-5.0,-5.0,-53.0
126.0,128.0,208.0,126.0,126.0,121.0,127.0,128.0,28.0,-105.0,-64.0,-128.0,127.0,127.0,-5.0,-5.0,-53.0
126.0,128.0,208.0,126.0,126.0,121.0,127.0,128.0,28.0,-105.0,-64.0,-128.0,127.0,127.0,-5.0,-5.0,-53.0
126.0,128.0,192.0,126.0,126.0,119.0,127.0,128.0,28.0,-105.0,-64.0,127.0,127.0,127.0,-5.0,-5.0,-53.0
126.0,128.0,192.0,126.0,126.0,119.0,127.0,128.0,28.0,-105.0,-64.0,127.0,127.0,127.0,-5.0,-5.0,-53.0
126.0,128.0,191.0,127.0,126.0,119.0,127.0,128.0,28.0,-105.0,-64.0,127.0,127.0,127.0,-5.0,-5.0,-53.0
126.0,128.0,191.0,126.0,126.0,119.0,127.0,128.0,28.0,-105.0,-64.0,127.0,127.0,127.0,-5.0,-5.0,-53.0
126.0,128.0,190.0,127.0,126.0,119.0,127.0,128.0,28.0,-105.0,-64.0,127.0,127.0,127.0,-5.0,-5.0,-53.0
126.0,128.0,189.0,127.0,127.0,119.0,127.0,128.0,28.0,-105.0,-64.0,127.0,127.0,127.0,-5.0,-5.0,-53.0
126.0,128.0,194.0,126.0,126.0,119.0,127.0,128.0,28.0,-105.0,-64.0,127.0,127.0,127.0,-5.0,-5.0,-53.0
126.0,128.0,194.0,126.0,126.0,118.0,127.0,128.0,28.0,-105.0,-64.0,127.0,127.0,127.0,-5.0,-5.0,-53.0
126.0,128.0,192.0,126.0,126.0,119.0,127.0,128.0,28.0,-105.0,-64.0,127.0,127.0,127.0,-5.0,-5.0,-53.0
126.0,128.0,192.0,126.0,126.0,119.0,127.0,128.0,28.0,-105.0,-64.0,127.0,127.0,127.0,-5.0,-5.0,-53.0
126.0,129.0,198.0,128.0,127.0,121.0,127.0,128.0,28.0,-104.0,-64.0,127.0,127.0,127.0,-5.0,-5.0,-53.0
126.0,129.0,199.0,128.0,127.0,121.0,127.0,128.0,28.0,-104.0,-64.0,127.0,127.0,127.0,-5.0,-5.0,-53.0
126.0,129.0,201.0,128.0,127.0,121.0,127.0,128.0,28.0,-104.0,-64.0,127.0,127.0,127.0,-5.0,-5.0,-53.0
126.0,129.0,203.0,128.0,127.0,121.0,127.0,128.0,28.0,-104.0,-64.0,127.0,127.0,127.0,-5.0,-5.0,-53.0
126.0,129.0,204.0,128.0,127.0,121.0,127.0,128.0,28.0,-104.0,-64.0,127.0,127.0,127.0,-5.0,-5.0,-53.0
126.0,129.0,195.0,128.0,127.0,120.0,127.0,128.0,28.0,-104.0,-64.0,127.0,127.0,127.0,-5.0,-5.0,-53.0
126.0,129.0,196.0,128.0,127.0,120.0,127.0,128.0,28.0,-104.0,-64.0,127.0,127.0,127.0,-5.0,-5.0,-53.0
126.0,129.0,196.0,128.0,127.0,121.0,127.0,128.0,28.0,-104.0,-64.0,127.0,127.0,127.0,-5.0,-5.0,-53.0
126.0,129.0,197.0,128.0,127.0,121.0,127.0,128.0,28.0,-104.0,-64.0,127.0,127.0,127.0,-5.0,-5.0,-53.0
126.0,129.0,198.0,128.0,127.0,121.0,127.0,128.0,28.0,-104.0,-64.0,127.0,127.0,127.0,-5.0,-5.0,-53.0
126.0,130.0,254.0,130.0,128.0,121.0,127.0,128.0,28.0,-104.0,-65.0,127.0,127.0,127.0,-5.0,-5.0,-53.0
126.0,130.0,254.0,130.0,127.0,121.0,127.0,128.0,28.0,-104.0,-65.0,127.0,127.0,127.0,-5.0,-5.0,-53.0
126.0,129.0,254.0,130.0,127.0,121.0,128.0,128.0,28.0,-104.0,-65.0,127.0,127.0,127.0,-5.0,-5.0,-53.0
126.0,129.0,254.0,130.0,127.0,121.0,128.0,128.0,28.0,-104.0,-65.0,127.0,127.0,127.0,-5.0,-5.0,-53.0
126.0,130.0,254.0,130.0,128.0,121.0,127.0,128.0,28.0,-104.0,-65.0,127.0,127.0,127.0,-5.0,-5.0,-53.0
126.0,130.0,254.0,130.0,127.0,121.0,127.0,128.0,28.0,-104.0,-65.0,127.0,127.0,127.0,-5.0,-5.0,-53.0
126.0,130.0,254.0,130.0,128.0,121.0,127.0,128.0,28.0,-104.0,-65.0,127.0,127.0,127.0,-5.0,-5.0,-53.0
126.0,130.0,254.0,130.0,128.0,121.0,127.0,128.0,28.0,-104.0,-65.0,127.0,127.0,127.0,-5.0,-5.0,-53.0
126.0,130.0,254.0,130.0,127.0,121.0,127.0,128.0,28.0,-104.0,-65.0,127.0,127.0,127.0,-5.0,-5.0,-53.0
126.0,130.0,254.0,130.0,128.0,121.0,127.0,128.0,28.0,-104.0,-65.0,127.0,127.0,127.0,-5.0,-5.0,-53.0
126.0,129.0,254.0,132.0,127.0,119.0,127.0,128.0,28.0,-103.0,-65.0,127.0,127.0,127.0,-5.0,-5.0,-53.0
126.0,129.0,254.0,132.0,127.0,119.0,127.0,128.0,28.0,-103.0,-65.0,127.0,127.0,127.0,-5.0,-5.0,-53.0
126.0,129.0,254.0,132.0,127.0,119.0,127.0,128.0,28.0,-103.0,-65.0,127.0,127.0,127.0,-5.0,-5.0,-53.0
126.0,130.0,254.0,132.0,127.0,119.0,127.0,128.0,28.0,-103.0,-65.0,127.0,127.0,127.0,-5.0,-5.0,-53.0
126.0,129.0,254.0,132.0,127.0,119.0,128.0,128.0,28.0,-103.0,-65.0,127.0,127.0,127.0,-5.0,-5.0,-53.0
126.0,130.0,254.0,132.0,127.0,119.0,127.0,128.0,28.0,-103.0,-65.0,127.0,127.0,127.0,-5.0,-5.0,-53.0
126.0,129.0,254.0,132.0,127.0,119.0,127.0,128.0,28.0,-103.0,-65.0,127.0,127.0,127.0,-5.0,-5.0,-53.0
126.0,129.0,254.0,132.0,127.0,119.0,127.0,128.0,28.0,-103.0,-65.0,127.0,127.0,127.0,-5.0,-5.0,-53.0
126.0,130.0,254.0,132.0,127.0,119.0,127.0,128.0,28.0,-103.0,-65.0,127.0,127.0,127.0,-5.0,-5.0,-53.0
126.0,130.0,254.0,132.0,127.0,119.0,127.0,128.0,28.0,-103.0,-65.0,127.0,127.0,127.0,-5.0,-5.0,-53.0
126.0,129.0,254.0,132.0,127.0,116.0,128.0,128.0,29.0,-102.0,-66.0,127.0,127.0,127.0,-5.0,-5.0,-53.0
126.0,130.0,254.0,132.0,127.0,116.0,128.0,128.0,29.0,-102.0,-66.0,127.0,127.0,127.0,-5.0,-5.0,-53.0
126.0,129.0,254.0,132.0,127.0,117.0,128.0,128.0,29.0,-102.0,-66.0,127.0,127.0,127.0,-5.0,-5.0,-53.0
126.0,129.0,254.0,132.0,127.0,116.0,128.0,128.0,29.0,-102.0,-66.0,127.0,127.0,127.0,-5.0,-5.0,-53.0
126.0,129.0,254.0,132.0,127.0,116.0,128.0,128.0,29.0,-102.0,-66.0,127.0,127.0,127.0,-5.0,-5.0,-53.0
126.0,129.0,254.0,132.0,127.0,116.0,128.0,128.0,29.0,-102.0,-66.0,127.0,127.0,127.0,-5.0,-5.0,-53.0
126.0,129.0,254.0,132.0,127.0,116.0,128.0,128.0,29.0,-102.0,-66.0,127.0,127.0,127.0,-5.0,-5.0,-53.0
126.0,129.0,254.0,132.0,127.0,116.0,128.0,128.0,29.0,-102.0,-66.0,127.0,127.0,127.0,-5.0,-5.0,-53.0
126.0,129.0,254.0,132.0,127.0,116.0,128.0,128.0,29.0,-102.0,-66.0,127.0,127.0,127.0,-5.0,-5.0,-53.0
126.0,129.0,254.0,132.0,127.0,116.0,128.0,128.0,29.0,-102.0,-66.0,127.0,127.0,127.0,-5.0,-5.0,-53.0
127.0,129.0,254.0,131.0,127.0,114.0,127.0,127.0,29.0,-102.0,-66.0,127.0,127.0,127.0,-5.0,-5.0,-53.0
127.0,129.0,254.0,131.0,127.0,114.0,127.0,128.0,29.0,-102.0,-66.0,127.0,127.0,127.0,-5.0,-5.0,-53.0
127.0,129.0,254.0,131.0,127.0,114.0,127.0,128.0,29.0,-102.0,-66.0,127.0,127.0,127.0,-5.0,-5.0,-53.0
127.0,129.0,254.0,131.0,127.0,114.0,127.0,127.0,29.0,-102.0,-66.0,127.0,127.0,127.0,-5.0,-5.0,-53.0
127.0,129.0,254.0,131.0,127.0,114.0,127.0,128.0,29.0,-102.0,-66.0,127.0,127.0,127.0,-5.0,-5.0,-53.0
127.0,129.0,254.0,131.0,127.0,114.0,127.0,127.0,29.0,-102.0,-66.0,127.0,127.0,127.0,-5.0,-5.0,-53.0
127.0,129.0,254.0,131.0,127.0,114.0,127.0,127.0,29.0,-102.0,-66.0,127.0,127.0,127.0,-5.0,-5.0,-53.0
127.0,129.0,254.0,131.0,127.0,114.0,127.0,127.0,29.0,-102.0,-66.0,127.0,127.0,127.0,-5.0,-5.0,-53.0
127.0,129.0,254.0,131.0,127.0,114.0,127.0,127.0,29.0,-102.0,-66.0,127.0,127.0,127.0,-5.0,-5.0,-53.0
127.0,129.0,254.0,131.0,127.0,114.0,127.0,127.0,29.0,-102.0,-66.0,127.0,127.0,127.0,-5.0,-5.0,-53.0
126.0,129.0,254.0,131.0,128.0,115.0,126.0,128.0,30.0,-102.0,-66.0,127.0,127.0,127.0,-5.0,-5.0,-53.0
126.0,129.0,254.0,130.0,128.0,115.0,126.0,128.0,30.0,-102.0,-66.0,127.0,127.0,127.0,-5.0,-5.0,-53.0
126.0,129.0,254.0,130.0,128.0,115.0,126.0,128.0,30.0,-102.0,-66.0,127.0,127.0,127.0,-5.0,-5.0,-53.0
126.0,129.0,254.0,130.0,128.0,115.0,126.0,128.0,30.0,-102.0,-66.0,127.0,127.0,127.0,-5.0,-5.0,-53.0
126.0,129.0,254.0,130.0,128.0,115.0,126.0,128.0,30.0,-102.0,-66.0,127.0,127.0,127.0,-5.0,-5.0,-53.0
126.0,129.0,254.0,130.0,128.0,115.0,126.0,128.0,30.0,-102.0,-66.0,127.0,127.0,127.0,-5.0,-5.0,-53.0
126.0,129.0,254.0,130.0,128.0,115.0,126.0,128.0,30.0,-102.0,-66.0,127.0,127.0,127.0,-5.0,-5.0,-53.0
126.0,129.0,254.0,130.0,128.0,115.0,126.0,128.0,30.0,-102.0,-66.0,127.0,127.0,127.0,-5.0,-5.0,-53.0
126.0,129.0,254.0,130.0,128.0,115.0,126.0,128.0,30.0,-102.0,-66.0,127.0,127.0,127.0,-5.0,-5.0,-53.0
126.0,129.0,254.0,130.0,128.0,115.0,126.0,128.0,30.0,-102.0,-66.0,127.0,127.0,127.0,-5.0,-5.0,-53.0
127.0,129.0,254.0,135.0,129.0,117.0,126.0,128.0,31.0,-102.0,-66.0,127.0,127.0,127.0,-5.0,-5.0,-53.0
127.0,129.0,254.0,135.0,129.0,117.0,126.0,128.0,31.0,-102.0,-66.0,127.0,127.0,127.0,-5.0,-5.0,-53.0
126.0,130.0,254.0,135.0,129.0,117.0,126.0,128.0,31.0,-102.0,-66.0,127.0,127.0,127.0,-5.0,-5.0,-53.0
127.0,130.0,254.0,135.0,129.0,117.0,126.0,128.0,31.0,-102.0,-66.0,127.0,127.0,127.0,-5.0,-5.0,-53.0
127.0,130.0,254.0,135.0,129.0,117.0,126.0,128.0,31.0,-102.0,-66.0,127.0,127.0,127.0,-5.0,-5.0,-53.0
127.0,130.0,254.0,135.0,129.0,117.0,126.0,128.0,31.0,-102.0,-66.0,127.0,127.0,127.0,-5.0,-5.0,-53.0
127.0,130.0,254.0,135.0,129.0,117.0,126.0,128.0,31.0,-102.0,-66.0,127.0,127.0,127.0,-5.0,-5.0,-53.0
127.0,130.0,254.0,135.0,129.0,117.0,126.0,128.0,31.0,-102.0,-66.0,127.0,127.0,127.0,-5.0,-5.0,-53.0
127.0,129.0,254.0,136.0,129.0,117.0,126.0,128.0,31.0,-102.0,-66.0,127.0,127.0,127.0,-5.0,-5.0,-53.0
126.0,129.0,254.0,135.0,129.0,117.0,126.0,128.0,31.0,-102.0,-66.0,127.0,127.0,127.0,-5.0,-5.0,-53.0
127.0,128.0,254.0,143.0,131.0,117.0,128.0,128.0,31.0,-102.0,-66.0,127.0,126.0,127.0,-5.0,-5.0,-53.0
127.0,129.0,254.0,143.0,131.0,117.0,127.0,128.0,31.0,-102.0,-66.0,127.0,126.0,127.0,-5.0,-5.0,-53.0
127.0,129.0,254.0,143.0,131.0,117.0,127.0,128.0,31.0,-102.0,-66.0,127.0,126.0,127.0,-5.0,-5.0,-53.0
127.0,128.0,254.0,143.0,131.0,117.0,127.0,128.0,31.0,-102.0,-66.0,127.0,126.0,127.0,-5.0,-5.0,-53.0
127.0,128.0,254.0,144.0,131.0,117.0,127.0,128.0,31.0,-102.0,-66.0,127.0,126.0,127.0,-5.0,-5.0,-53.0
127.0,128.0,254.0,144.0,131.0,117.0,127.0,128.0,31.0,-102.0,-66.0,127.0,126.0,127.0,-5.0,-5.0,-53.0
127.0,128.0,254.0,144.0,131.0,117.0,127.0,128.0,31.0,-102.0,-66.0,127.0,126.0,127.0,-5.0,-5.0,-53.0
126.0,128.0,254.0,144.0,131.0,117.0,127.0,128.0,31.0,-102.0,-66.0,127.0,126.0,127.0,-5.0,-5.0,-53.0
127.0,128.0,254.0,142.0,131.0,117.0,128.0,128.0,31.0,-102.0,-66.0,127.0,126.0,127.0,-5.0,-5.0,-53.0
127.0,128.0,254.0,142.0,131.0,117.0,128.0,128.0,31.0,-102.0,-66.0,127.0,126.0,127.0,-5.0,-5.0,-53.0
126.0,128.0,203.0,152.0,133.0,119.0,127.0,127.0,32.0,-102.0,-67.0,-128.0,126.0,127.0,-5.0,-5.0,-53.0
126.0,128.0,200.0,152.0,133.0,119.0,127.0,127.0,32.0,-102.0,-67.0,-128.0,126.0,127.0,-5.0,-5.0,-53.0
126.0,128.0,196.0,152.0,133.0,119.0,127.0,127.0,32.0,-102.0,-67.0,-128.0,126.0,127.0,-5.0,-5.0,-53.0
126.0,128.0,192.0,152.0,133.0,119.0,127.0,127.0,32.0,-102.0,-67.0,-128.0,126.0,127.0,-5.0,-5.0,-53.0
126.0,128.0,189.0,152.0,133.0,119.0,127.0,127.0,32.0,-102.0,-67.0,-128.0,126.0,127.0,-5.0,-5.0,-53.0
126.0,128.0,186.0,151.0,133.0,119.0,127.0,127.0,32.0,-102.0,-67.0,-128.0,126.0,127.0,-5.0,-5.0,-53.0
126.0,128.0,182.0,151.0,133.0,119.0,127.0,127.0,32.0,-102.0,-67.0,-128.0,126.0,127.0,-5.0,-5.0,-53.0
126.0,128.0,212.0,152.0,133.0,119.0,127.0,127.0,32.0,-102.0,-67.0,-128.0,126.0,127.0,-5.0,-5.0,-53.0
126.0,128.0,209.0,152.0,133.0,119.0,127.0,127.0,32.0,-102.0,-67.0,-128.0,126.0,127.0,-5.0,-5.0,-53.0
126.0,128.0,206.0,152.0,133.0,119.0,127.0,127.0,32.0,-102.0,-67.0,-128.0,126.0,127.0,-5.0,-5.0,-53.0
125.0,127.0,58.0,150.0,140.0,123.0,129.0,126.0,34.0,-102.0,-67.0,-128.0,126.0,126.0,-5.0,-5.0,-53.0
125.0,127.0,57.0,150.0,140.0,123.0,129.0,126.0,34.0,-102.0,-67.0,-128.0,126.0,126.0,-5.0,-5.0,-53.0
125.0,127.0,55.0,150.0,140.0,123.0,129.0,126.0,34.0,-102.0,-67.0,-128.0,126.0,126.0,-5.0,-5.0,-53.0
125.0,127.0,53.0,151.0,140.0,123.0,129.0,126.0,34.0,-102.0,-67.0,-128.0,126.0,126.0,-5.0,-5.0,-53.0
125.0,127.0,51.0,151.0,140.0,123.0,129.0,126.0,34.0,-102.0,-67.0,-128.0,126.0,126.0,-5.0,-5.0,-53.0
125.0,127.0,49.0,151.0,140.0,123.0,129.0,126.0,34.0,-102.0,-67.0,-128.0,126.0,126.0,-5.0,-5.0,-53.0
125.0,126.0,67.0,149.0,139.0,122.0,129.0,126.0,34.0,-102.0,-67.0,-128.0,126.0,126.0,-5.0,-5.0,-53.0
125.0,126.0,64.0,149.0,139.0,122.0,129.0,126.0,34.0,-102.0,-67.0,-128.0,126.0,126.0,-5.0,-5.0,-53.0
125.0,126.0,63.0,149.0,139.0,122.0,129.0,126.0,34.0,-102.0,-67.0,-128.0,126.0,126.0,-5.0,-5.0,-53.0
125.0,127.0,60.0,150.0,140.0,123.0,129.0,126.0,34.0,-102.0,-67.0,-128.0,126.0,126.0,-5.0,-5.0,-53.0
125.0,127.0,0.0,160.0,143.0,124.0,129.0,125.0,35.0,-102.0,-66.0,-128.0,126.0,126.0,-5.0,-5.0,-53.0
125.0,127.0,0.0,160.0,143.0,124.0,129.0,125.0,35.0,-102.0,-66.0,-128.0,126.0,126.0,-5.0,-5.0,-53.0
125.0,127.0,0.0,160.0,144.0,124.0,129.0,125.0,35.0,-102.0,-66.0,-128.0,126.0,126.0,-5.0,-5.0,-53.0
125.0,127.0,0.0,160.0,144.0,125.0,129.0,125.0,35.0,-102.0,-66.0,-128.0,126.0,126.0,-5.0,-5.0,-53.0
125.0,127.0,0.0,160.0,144.0,125.0,128.0,125.0,35.0,-102.0,-66.0,-128.0,126.0,126.0,-5.0,-5.0,-53.0
125.0,127.0,2.0,159.0,143.0,123.0,130.0,125.0,35.0,-102.0,-66.0,-128.0,126.0,126.0,-5.0,-5.0,-53.0
125.0,127.0,1.0,159.0,143.0,123.0,130.0,125.0,35.0,-102.0,-66.0,-128.0,126.0,126.0,-5.0,-5.0,-53.0
125.0,127.0,0.0,159.0,143.0,123.0,130.0,125.0,35.0,-102.0,-66.0,-128.0,126.0,126.0,-5.0,-5.0,-53.0
125.0,127.0,0.0,159.0,143.0,124.0,129.0,125.0,35.0,-102.0,-66.0,-128.0,126.0,126.0,-5.0,-5.0,-53.0
125.0,127.0,0.0,159.0,143.0,124.0,129.0,125.0,35.0,-102.0,-66.0,-128.0,126.0,126.0,-5.0,-5.0,-53.0
124.0,126.0,0.0,137.0,139.0,135.0,127.0,126.0,37.0,-103.0,-66.0,-128.0,127.0,126.0,-5.0,-5.0,-53.0
124.0,126.0,0.0,136.0,139.0,135.0,127.0,126.0,37.0,-103.0,-66.0,-128.0,127.0,126.0,-5.0,-5.0,-53.0
124.0,126.0,0.0,135.0,138.0,135.0,127.0,126.0,37.0,-103.0,-66.0,-128.0,127.0,126.0,-5.0,-5.0,-53.0
124.0,126.0,0.0,135.0,138.0,136.0,127.0,126.0,37.0,-103.0,-66.0,-128.0,127.0,126.0,-5.0,-5.0,-53.0
124.0,126.0,0.0,140.0,141.0,134.0,127.0,125.0,37.0,-103.0,-66.0,-128.0,127.0,126.0,-5.0,-5.0,-53.0
124.0,126.0,0.0,139.0,141.0,134.0,127.0,126.0,37.0,-103.0,-66.0,-128.0,127.0,126.0,-5.0,-5.0,-53.0
124.0,126.0,0.0,139.0,141.0,135.0,128.0,126.0,37.0,-103.0,-66.0,-128.0,127.0,126.0,-5.0,-5.0,-53.0
124.0,126.0,0.0,138.0,140.0,135.0,127.0,126.0,37.0,-103.0,-66.0,-128.0,127.0,126.0,-5.0,-5.0,-53.0
124.0,126.0,0.0,138.0,140.0,135.0,127.0,126.0,37.0,-103.0,-66.0,-128.0,127.0,126.0,-5.0,-5.0,-53.0
124.0,126.0,0.0,137.0,139.0,135.0,127.0,126.0,37.0,-103.0,-66.0,-128.0,127.0,126.0,-5.0,-5.0,-53.0
124.0,128.0,0.0,116.0,121.0,136.0,123.0,126.0,38.0,-104.0,-66.0,-128.0,127.0,126.0,-5.0,-5.0,-53.0
124.0,127.0,0.0,115.0,120.0,136.0,123.0,126.0,38.0,-104.0,-66.0,-128.0,127.0,126.0,-5.0,-5.0,-53.0
125.0,127.0,0.0,115.0,120.0,135.0,123.0,126.0,38.0,-104.0,-66.0,-128.0,127.0,126.0,-5.0,-5.0,-53.0
124.0,128.0,0.0,118.0,124.0,137.0,124.0,125.0,38.0,-104.0,-66.0,-128.0,127.0,126.0,-5.0,-5.0,-53.0
124.0,128.0,0.0,117.0,123.0,137.0,124.0,125.0,38.0,-104.0,-66.0,-128.0,127.0,126.0,-5.0,-5.0,-53.0
124.0,128.0,0.0,117.0,123.0,137.0,124.0,125.0,38.0,-104.0,-66.0,-128.0,127.0,126.0,-5.0,-5.0,-53.0
124.0,128.0,0.0,117.0,123.0,137.0,123.0,126.0,38.0,-104.0,-66.0,-128.0,127.0,126.0,-5.0,-5.0,-53.0
124.0,128.0,0.0,116.0,122.0,137.0,123.0,126.0,38.0,-104.0,-66.0,-128.0,127.0,126.0,-5.0,-5.0,-53.0
124.0,128.0,0.0,116.0,122.0,136.0,123.0,126.0,38.0,-104.0,-66.0,-128.0,127.0,126.0,-5.0,-5.0,-53.0
124.0,128.0,0.0,116.0,121.0,136.0,123.0,126.0,38.0,-104.0,-66.0,-128.0,127.0,126.0,-5.0,-5.0,-53.0
129.0,126.0,0.0,110.0,106.0,122.0,121.0,128.0,40.0,-105.0,-66.0,-127.0,127.0,126.0,-5.0,-5.0,-53.0
129.0,126.0,0.0,110.0,106.0,122.0,121.0,128.0,40.0,-105.0,-66.0,-127.0,127.0,126.0,-5.0,-5.0,-53.0
128.0,126.0,0.0,110.0,107.0,124.0,121.0,128.0,40.0,-105.0,-66.0,-127.0,127.0,126.0,-5.0,-5.0,-53.0
128.0,126.0,0.0,110.0,107.0,123.0,121.0,127.0,40.0,-105.0,-66.0,-127.0,127.0,126.0,-5.0,-5.0,-53.0
128.0,126.0,0.0,110.0,107.0,123.0,121.0,128.0,40.0,-105.0,-66.0,-127.0,127.0,126.0,-5.0,-5.0,-53.0
128.0,126.0,0.0,110.0,107.0,123.0,121.0,128.0,40.0,-105.0,-66.0,-127.0,127.0,126.0,-5.0,-5.0,-53.0
128.0,126.0,0.0,110.0,107.0,123.0,121.0,127.0,40.0,-105.0,-66.0,-127.0,127.0,126.0,-5.0,-5.0,-53.0
129.0,126.0,0.0,110.0,106.0,123.0,121.0,127.0,40.0,-105.0,-66.0,-127.0,127.0,126.0,-5.0,-5.0,-53.0
129.0,126.0,0.0,110.0,106.0,122.0,121.0,128.0,40.0,-105.0,-66.0,-127.0,127.0,126.0,-5.0,-5.0,-53.0
129.0,126.0,0.0,110.0,106.0,122.0,121.0,128.0,40.0,-105.0,-66.0,-127.0,127.0,126.0,-5.0,-5.0,-53.0
133.0,128.0,6.0,112.0,106.0,114.0,122.0,129.0,40.0,-105.0,-67.0,-127.0,127.0,126.0,-5.0,-5.0,-53.0
133.0,127.0,1.0,111.0,105.0,116.0,121.0,129.0,40.0,-105.0,-67.0,-127.0,127.0,126.0,-5.0,-5.0,-53.0
133.0,128.0,1.0,111.0,106.0,116.0,121.0,129.0,40.0,-105.0,-67.0,-127.0,127.0,126.0,-5.0,-5.0,-53.0
133.0,128.0,2.0,111.0,106.0,116.0,121.0,129.0,40.0,-105.0,-67.0,-127.0,127.0,126.0,-5.0,-5.0,-53.0
133.0,128.0,2.0,112.0,106.0,115.0,121.0,129.0,40.0,-105.0,-67.0,-127.0,127.0,126.0,-5.0,-5.0,-53.0
133.0,127.0,3.0,112.0,106.0,115.0,121.0,129.0,40.0,-105.0,-67.0,-127.0,127.0,126.0,-5.0,-5.0,-53.0
133.0,127.0,4.0,112.0,106.0,115.0,121.0,129.0,40.0,-105.0,-67.0,-127.0,127.0,126.0,-5.0,-5.0,-53.0
133.0,127.0,4.0,112.0,106.0,114.0,122.0,129.0,40.0,-105.0,-67.0,-127.0,127.0,126.0,-5.0,-5.0,-53.0
133.0,128.0,5.0,112.0,106.0,114.0,121.0,128.0,40.0,-105.0,-67.0,-127.0,127.0,126.0,-5.0,-5.0,-53.0
133.0,128.0,5.0,112.0,106.0,114.0,122.0,129.0,40.0,-105.0,-67.0,-127.0,127.0,126.0,-5.0,-5.0,-53.0
131.0,128.0,28.0,115.0,109.0,113.0,123.0,129.0,40.0,-104.0,-68.0,-128.0,127.0,126.0,-5.0,-5.0,-54.0
131.0,128.0,29.0,115.0,109.0,113.0,123.0,129.0,40.0,-104.0,-68.0,-128.0,127.0,126.0,-5.0,-5.0,-54.0
130.0,128.0,29.0,115.0,109.0,114.0,123.0,129.0,40.0,-104.0,-68.0,-128.0,127.0,126.0,-5.0,-5.0,-54.0
130.0,128.0,30.0,115.0,109.0,114.0,123.0,129.0,40.0,-104.0,-68.0,-128.0,127.0,126.0,-5.0,-5.0,-54.0
130.0,128.0,30.0,115.0,109.0,114.0,123.0,128.0,40.0,-104.0,-68.0,-128.0,127.0,126.0,-5.0,-5.0,-54.0
130.0,128.0,30.0,116.0,110.0,114.0,123.0,128.0,40.0,-104.0,-68.0,-128.0,127.0,126.0,-5.0,-5.0,-54.0
130.0,128.0,31.0,115.0,110.0,115.0,123.0,128.0,40.0,-104.0,-68.0,-128.0,127.0,126.0,-5.0,-5.0,-54.0
130.0,128.0,31.0,115.0,110.0,115.0,123.0,128.0,40.0,-104.0,-68.0,-128.0,127.0,126.0,-5.0,-5.0,-54.0
130.0,128.0,32.0,115.0,109.0,115.0,123.0,128.0,40.0,-104.0,-68.0,-128.0,127.0,126.0,-5.0,-5.0,-54.0
130.0,128.0,32.0,115.0,110.0,115.0,123.0,128.0,40.0,-104.0,-68.0,-128.0,127.0,126.0,-5.0,-5.0,-54.0
128.0,128.0,44.0,118.0,115.0,129.0,124.0,128.0,40.0,-103.0,-69.0,-128.0,127.0,126.0,-5.0,-5.0,-54.0
128.0,128.0,44.0,118.0,116.0,129.0,124.0,128.0,40.0,-103.0,-69.0,-128.0,127.0,126.0,-5.0,-5.0,-54.0
128.0,128.0,45.0,118.0,116.0,129.0,124.0,128.0,40.0,-103.0,-69.0,-128.0,127.0,126.0,-5.0,-5.0,-54.0
128.0,128.0,44.0,118.0,116.0,129.0,124.0,128.0,40.0,-103.0,-69.0,-128.0,127.0,126.0,-5.0,-5.0,-54.0
128.0,128.0,45.0,118.0,116.0,130.0,124.0,128.0,40.0,-103.0,-69.0,-128.0,127.0,126.0,-5.0,-5.0,-54.0
128.0,128.0,45.0,118.0,116.0,130.0,124.0,128.0,40.0,-103.0,-69.0,-128.0,127.0,126.0,-5.0,-5.0,-54.0
128.0,128.0,46.0,118.0,116.0,130.0,124.0,128.0,40.0,-103.0,-69.0,-128.0,127.0,126.0,-5.0,-5.0,-54.0
128.0,128.0,46.0,118.0,116.0,130.0,124.0,128.0,40.0,-103.0,-69.0,-128.0,127.0,126.0,-5.0,-5.0,-54.0
128.0,128.0,47.0,118.0,116.0,130.0,124.0,128.0,40.0,-103.0,-69.0,-128.0,127.0,126.0,-5.0,-5.0,-54.0
128.0,128.0,44.0,118.0,115.0,129.0,124.0,128.0,40.0,-103.0,-69.0,-128.0,127.0,126.0,-5.0,-5.0,-54.0
128.0,128.0,56.0,120.0,122.0,138.0,126.0,128.0,40.0,-102.0,-70.0,127.0,127.0,127.0,-5.0,-5.0,-54.0
128.0,128.0,56.0,120.0,122.0,138.0,126.0,128.0,40.0,-102.0,-70.0,127.0,127.0,127.0,-5.0,-5.0,-54.0
129.0,128.0,57.0,120.0,122.0,138.0,126.0,128.0,40.0,-102.0,-70.0,127.0,127.0,127.0,-5.0,-5.0,-54.0
129.0,128.0,57.0,120.0,122.0,138.0,126.0,128.0,40.0,-102.0,-70.0,127.0,127.0,127.0,-5.0,-5.0,-54.0
129.0,128.0,57.0,120.0,122.0,138.0,127.0,128.0,40.0,-102.0,-70.0,127.0,127.0,127.0,-5.0,-5.0,-54.0
129.0,128.0,57.0,120.0,122.0,138.0,127.0,128.0,40.0,-102.0,-70.0,127.0,127.0,127.0,-5.0,-5.0,-54.0
129.0,128.0,58.0,120.0,122.0,138.0,127.0,129.0,40.0,-102.0,-70.0,127.0,127.0,127.0,-5.0,-5.0,-54.0
128.0,128.0,58.0,120.0,122.0,138.0,127.0,128.0,40.0,-102.0,-70.0,127.0,127.0,127.0,-5.0,-5.0,-54.0
128.0,128.0,55.0,120.0,121.0,138.0,126.0,128.0,40.0,-102.0,-70.0,127.0,127.0,127.0,-5.0,-5.0,-54.0
128.0,128.0,56.0,120.0,122.0,138.0,126.0,128.0,40.0,-102.0,-70.0,127.0,127.0,127.0,-5.0,-5.0,-54.0
128.0,128.0,68.0,120.0,125.0,137.0,128.0,129.0,39.0,-102.0,-70.0,126.0,127.0,127.0,-5.0,-5.0,-54.0
128.0,128.0,68.0,120.0,125.0,137.0,128.0,129.0,39.0,-102.0,-70.0,126.0,127.0,127.0,-5.0,-5.0,-54.0
128.0,128.0,69.0,120.0,126.0,137.0,128.0,129.0,39.0,-102.0,-70.0,126.0,127.0,127.0,-5.0,-5.0,-54.0
128.0,128.0,69.0,120.0,126.0,137.0,128.0,129.0,39.0,-102.0,-70.0,126.0,127.0,127.0,-5.0,-5.0,-54.0
128.0,128.0,69.0,120.0,126.0,137.0,128.0,129.0,39.0,-102.0,-70.0,126.0,127.0,127.0,-5.0,-5.0,-54.0
128.0,128.0,69.0,120.0,126.0,137.0,128.0,129.0,39.0,-102.0,-70.0,126.0,127.0,127.0,-5.0,-5.0,-54.0
128.0,128.0,67.0,120.0,125.0,137.0,127.0,129.0,39.0,-102.0,-70.0,126.0,127.0,127.0,-5.0,-5.0,-54.0
128.0,128.0,67.0,120.0,125.0,137.0,128.0,129.0,39.0,-102.0,-70.0,126.0,127.0,127.0,-5.0,-5.0,-54.0
128.0,128.0,67.0,120.0,125.0,137.0,128.0,129.0,39.0,-102.0,-70.0,126.0,127.0,127.0,-5.0,-5.0,-54.0
128.0,128.0,68.0,120.0,125.0,137.0,128.0,129.0,39.0,-102.0,-70.0,126.0,127.0,127.0,-5.0,-5.0,-54.0
128.0,128.0,80.0,121.0,130.0,138.0,133.0,129.0,38.0,-103.0,-69.0,126.0,126.0,127.0,-5.0,-5.0,-54.0
128.0,128.0,81.0,121.0,130.0,138.0,133.0,129.0,38.0,-103.0,-69.0,126.0,126.0,127.0,-5.0,-5.0,-54.0
128.0,128.0,81.0,121.0,130.0,138.0,133.0,130.0,38.0,-103.0,-69.0,126.0,126.0,127.0,-5.0,-5.0,-54.0
128.0,128.0,81.0,121.0,130.0,138.0,133.0,130.0,38.0,-103.0,-69.0,126.0,126.0,127.0,-5.0,-5.0,-54.0
128.0,128.0,81.0,121.0,130.0,138.0,133.0,130.0,38.0,-103.0,-69.0,126.0,126.0,127.0,-5.0,-5.0,-54.0
128.0,128.0,80.0,121.0,129.0,137.0,132.0,129.0,38.0,-103.0,-69.0,126.0,126.0,127.0,-5.0,-5.0,-54.0
128.0,128.0,80.0,121.0,129.0,137.0,132.0,129.0,38.0,-103.0,-69.0,126.0,126.0,127.0,-5.0,-5.0,-54.0
128.0,128.0,80.0,121.0,129.0,137.0,132.0,129.0,38.0,-103.0,-69.0,126.0,126.0,127.0,-5.0,-5.0,-54.0
128.0,128.0,80.0,121.0,130.0,138.0,132.0,129.0,38.0,-103.0,-69.0,126.0,126.0,127.0,-5.0,-5.0,-54.0
128.0,128.0,80.0,121.0,130.0,138.0,132.0,129.0,38.0,-103.0,-69.0,126.0,126.0,127.0,-5.0,-5.0,-54.0
127.0,129.0,87.0,123.0,134.0,139.0,136.0,130.0,38.0,-104.0,-69.0,126.0,126.0,127.0,-5.0,-5.0,-54.0
127.0,129.0,86.0,123.0,134.0,139.0,136.0,130.0,38.0,-104.0,-69.0,126.0,126.0,127.0,-5.0,-5.0,-54.0
127.0,129.0,87.0,123.0,134.0,139.0,136.0,130.0,38.0,-104.0,-69.0,126.0,126.0,127.0,-5.0,-5.0,-54.0
127.0,129.0,86.0,123.0,134.0,139.0,136.0,130.0,38.0,-104.0,-69.0,126.0,126.0,127.0,-5.0,-5.0,-54.0
127.0,128.0,86.0,123.0,133.0,139.0,136.0,130.0,38.0,-104.0,-69.0,126.0,126.0,127.0,-5.0,-5.0,-54.0
127.0,128.0,86.0,123.0,133.0,139.0,136.0,130.0,38.0,-104.0,-69.0,126.0,126.0,127.0,-5.0,-5.0,-54.0
127.0,128.0,86.0,123.0,134.0,139.0,136.0,130.0,38.0,-104.0,-69.0,126.0,126.0,127.0,-5.0,-5.0,-54.0
127.0,128.0,87.0,123.0,134.0,139.0,136.0,130.0,38.0,-104.0,-69.0,126.0,126.0,127.0,-5.0,-5.0,-54.0
127.0,128.0,86.0,123.0,134.0,139.0,136.0,130.0,38.0,-104.0,-69.0,126.0,126.0,127.0,-5.0,-5.0,-54.0
128.0,128.0,87.0,123.0,134.0,139.0,136.0,130.0,38.0,-104.0,-69.0,126.0,126.0,127.0,-5.0,-5.0,-54.0
127.0,131.0,86.0,128.0,138.0,141.0,132.0,129.0,37.0,-105.0,-68.0,126.0,126.0,127.0,-5.0,-5.0,-54.0
127.0,131.0,86.0,128.0,138.0,141.0,132.0,129.0,37.0,-105.0,-68.0,126.0,126.0,127.0,-5.0,-5.0,-54.0
127.0,131.0,86.0,127.0,138.0,141.0,132.0,129.0,37.0,-105.0,-68.0,126.0,126.0,127.0,-5.0,-5.0,-54.0
127.0,130.0,86.0,127.0,138.0,143.0,133.0,129.0,37.0,-105.0,-68.0,126.0,126.0,127.0,-5.0,-5.0,-54.0
127.0,130.0,86.0,127.0,138.0,142.0,133.0,129.0,37.0,-105.0,-68.0,126.0,126.0,127.0,-5.0,-5.0,-54.0
127.0,130.0,86.0,127.0,138.0,142.0,133.0,129.0,37.0,-105.0,-68.0,126.0,126.0,127.0,-5.0,-5.0,-54.0
127.0,131.0,86.0,127.0,138.0,142.0,132.0,129.0,37.0,-105.0,-68.0,126.0,126.0,127.0,-5.0,-5.0,-54.0
127.0,131.0,86.0,127.0,138.0,142.0,132.0,129.0,37.0,-105.0,-68.0,126.0,126.0,127.0,-5.0,-5.0,-54.0
127.0,130.0,86.0,127.0,138.0,141.0,133.0,129.0,37.0,-105.0,-68.0,126.0,126.0,127.0,-5.0,-5.0,-54.0
127.0,131.0,86.0,127.0,138.0,141.0,132.0,129.0,37.0,-105.0,-68.0,126.0,126.0,127.0,-5.0,-5.0,-54.0
120.0,130.0,92.0,130.0,138.0,147.0,128.0,128.0,36.0,-105.0,-66.0,126.0,126.0,127.0,-5.0,-5.0,-54.0
119.0,130.0,92.0,130.0,138.0,147.0,128.0,128.0,36.0,-105.0,-66.0,126.0,126.0,127.0,-5.0,-5.0,-54.0
122.0,130.0,90.0,129.0,139.0,148.0,129.0,128.0,36.0,-105.0,-66.0,126.0,126.0,127.0,-5.0,-5.0,-54.0
122.0,130.0,90.0,129.0,139.0,148.0,129.0,128.0,36.0,-105.0,-66.0,126.0,126.0,127.0,-5.0,-5.0,-54.0
122.0,130.0,90.0,129.0,139.0,148.0,129.0,128.0,36.0,-105.0,-66.0,126.0,126.0,127.0,-5.0,-5.0,-54.0
121.0,130.0,90.0,129.0,139.0,148.0,129.0,128.0,36.0,-105.0,-66.0,126.0,126.0,127.0,-5.0,-5.0,-54.0
121.0,130.0,91.0,129.0,139.0,148.0,129.0,128.0,36.0,-105.0,-66.0,126.0,126.0,127.0,-5.0,-5.0,-54.0
121.0,130.0,91.0,129.0,139.0,147.0,129.0,128.0,36.0,-105.0,-66.0,126.0,126.0,127.0,-5.0,-5.0,-54.0
120.0,130.0,91.0,129.0,139.0,147.0,129.0,128.0,36.0,-105.0,-66.0,126.0,126.0,127.0,-5.0,-5.0,-54.0
120.0,130.0,91.0,130.0,139.0,147.0,128.0,128.0,36.0,-105.0,-66.0,126.0,126.0,127.0,-5.0,-5.0,-54.0
122.0,128.0,108.0,127.0,123.0,144.0,113.0,127.0,35.0,-104.0,-65.0,126.0,126.0,127.0,-5.0,-5.0,-54.0
122.0,128.0,108.0,127.0,123.0,145.0,113.0,127.0,35.0,-104.0,-65.0,126.0,126.0,127.0,-5.0,-5.0,-54.0
120.0,127.0,107.0,127.0,122.0,145.0,114.0,126.0,35.0,-104.0,-65.0,126.0,126.0,127.0,-5.0,-5.0,-54.0
120.0,127.0,108.0,127.0,122.0,145.0,114.0,126.0,35.0,-104.0,-65.0,126.0,126.0,127.0,-5.0,-5.0,-54.0
120.0,127.0,108.0,127.0,122.0,145.0,114.0,127.0,35.0,-104.0,-65.0,126.0,126.0,127.0,-5.0,-5.0,-54.0
121.0,127.0,108.0,127.0,122.0,145.0,114.0,126.0,35.0,-104.0,-65.0,126.0,126.0,127.0,-5.0,-5.0,-54.0
121.0,127.0,108.0,127.0,122.0,145.0,114.0,127.0,35.0,-104.0,-65.0,126.0,126.0,127.0,-5.0,-5.0,-54.0
121.0,127.0,108.0,127.0,122.0,145.0,113.0,126.0,35.0,-104.0,-65.0,126.0,126.0,127.0,-5.0,-5.0,-54.0
121.0,128.0,108.0,127.0,122.0,145.0,113.0,126.0,35.0,-104.0,-65.0,126.0,126.0,127.0,-5.0,-5.0,-54.0
122.0,128.0,108.0,127.0,123.0,145.0,113.0,127.0,35.0,-104.0,-65.0,126.0,126.0,127.0,-5.0,-5.0,-54.0
129.0,130.0,115.0,124.0,123.0,124.0,115.0,127.0,34.0,-106.0,-64.0,126.0,126.0,127.0,-5.0,-5.0,-54.0
129.0,130.0,115.0,124.0,123.0,123.0,115.0,127.0,34.0,-106.0,-64.0,126.0,126.0,127.0,-5.0,-5.0,-54.0
129.0,130.0,115.0,124.0,123.0,123.0,115.0,127.0,34.0,-106.0,-64.0,126.0,126.0,127.0,-5.0,-5.0,-54.0
129.0,130.0,115.0,124.0,123.0,123.0,115.0,127.0,34.0,-106.0,-64.0,126.0,126.0,127.0,-5.0,-5.0,-54.0
129.0,130.0,115.0,124.0,123.0,123.0,116.0,127.0,34.0,-106.0,-64.0,126.0,126.0,127.0,-5.0,-5.0,-54.0
129.0,130.0,115.0,124.0,123.0,123.0,116.0,127.0,34.0,-106.0,-64.0,126.0,126.0,127.0,-5.0,-5.0,-54.0
129.0,130.0,115.0,124.0,122.0,123.0,116.0,127.0,34.0,-106.0,-64.0,126.0,126.0,127.0,-5.0,-5.0,-54.0
129.0,130.0,115.0,124.0,122.0,123.0,117.0,127.0,34.0,-106.0,-64.0,126.0,126.0,127.0,-5.0,-5.0,-54.0
129.0,130.0,115.0,124.0,122.0,123.0,117.0,127.0,34.0,-106.0,-64.0,126.0,126.0,127.0,-5.0,-5.0,-54.0
129.0,130.0,115.0,124.0,122.0,123.0,117.0,127.0,34.0,-106.0,-64.0,126.0,126.0,127.0,-5.0,-5.0,-54.0
132.0,130.0,112.0,121.0,124.0,146.0,137.0,127.0,34.0,-108.0,-63.0,127.0,125.0,126.0,-5.0,-5.0,-55.0
132.0,130.0,112.0,121.0,124.0,147.0,137.0,127.0,34.0,-108.0,-63.0,127.0,125.0,126.0,-5.0,-5.0,-55.0
132.0,130.0,112.0,121.0,124.0,148.0,138.0,127.0,34.0,-108.0,-63.0,127.0,125.0,126.0,-5.0,-5.0,-55.0
132.0,130.0,112.0,121.0,125.0,149.0,138.0,127.0,34.0,-108.0,-63.0,127.0,125.0,126.0,-5.0,-5.0,-55.0
132.0,130.0,112.0,121.0,125.0,149.0,138.0,127.0,34.0,-108.0,-63.0,127.0,125.0,126.0,-5.0,-5.0,-55.0
132.0,130.0,112.0,121.0,125.0,150.0,138.0,127.0,34.0,-108.0,-63.0,127.0,125.0,126.0,-5.0,-5.0,-55.0
132.0,130.0,112.0,121.0,125.0,151.0,138.0,127.0,34.0,-108.0,-63.0,127.0,125.0,126.0,-5.0,-5.0,-55.0
133.0,130.0,112.0,121.0,125.0,151.0,138.0,126.0,34.0,-108.0,-63.0,127.0,125.0,126.0,-5.0,-5.0,-55.0
133.0,130.0,112.0,122.0,125.0,152.0,138.0,127.0,34.0,-108.0,-63.0,127.0,125.0,126.0,-5.0,-5.0,-55.0
132.0,130.0,112.0,121.0,124.0,145.0,137.0,127.0,34.0,-108.0,-63.0,127.0,125.0,126.0,-5.0,-5.0,-55.0
134.0,130.0,110.0,123.0,129.0,155.0,129.0,126.0,33.0,-108.0,-62.0,127.0,125.0,126.0,-5.0,-5.0,-55.0
134.0,130.0,110.0,123.0,129.0,154.0,129.0,126.0,33.0,-108.0,-62.0,127.0,125.0,126.0,-5.0,-5.0,-55.0
134.0,130.0,110.0,123.0,129.0,154.0,129.0,126.0,33.0,-108.0,-62.0,127.0,125.0,126.0,-5.0,-5.0,-55.0
134.0,130.0,110.0,123.0,129.0,154.0,129.0,126.0,33.0,-108.0,-62.0,127.0,125.0,126.0,-5.0,-5.0,-55.0
134.0,130.0,110.0,123.0,129.0,153.0,129.0,126.0,33.0,-108.0,-62.0,127.0,125.0,126.0,-5.0,-5.0,-55.0
134.0,131.0,109.0,123.0,129.0,153.0,128.0,126.0,33.0,-108.0,-62.0,127.0,125.0,126.0,-5.0,-5.0,-55.0
133.0,131.0,109.0,123.0,129.0,153.0,128.0,126.0,33.0,-108.0,-62.0,127.0,125.0,126.0,-5.0,-5.0,-55.0
133.0,131.0,109.0,123.0,129.0,152.0,128.0,126.0,33.0,-108.0,-62.0,127.0,125.0,126.0,-5.0,-5.0,-55.0
134.0,130.0,111.0,122.0,129.0,155.0,130.0,126.0,33.0,-108.0,-62.0,127.0,125.0,126.0,-5.0,-5.0,-55.0
134.0,131.0,110.0,123.0,129.0,155.0,130.0,126.0,33.0,-108.0,-62.0,127.0,125.0,126.0,-5.0,-5.0,-55.0
131.0,130.0,106.0,123.0,127.0,141.0,126.0,128.0,32.0,-108.0,-60.0,127.0,125.0,126.0,-5.0,-5.0,-55.0
131.0,130.0,106.0,123.0,127.0,140.0,126.0,128.0,32.0,-108.0,-60.0,127.0,125.0,126.0,-5.0,-5.0,-55.0
131.0,130.0,106.0,123.0,127.0,140.0,125.0,128.0,32.0,-108.0,-60.0,127.0,125.0,126.0,-5.0,-5.0,-55.0
131.0,130.0,106.0,123.0,127.0,140.0,125.0,128.0,32.0,-108.0,-60.0,127.0,125.0,126.0,-5.0,-5.0,-55.0
131.0,130.0,106.0,123.0,127.0,140.0,125.0,128.0,32.0,-108.0,-60.0,127.0,125.0,126.0,-5.0,-5.0,-55.0
131.0,130.0,106.0,123.0,127.0,140.0,125.0,128.0,32.0,-108.0,-60.0,127.0,125.0,126.0,-5.0,-5.0,-55.0
131.0,130.0,106.0,123.0,127.0,140.0,125.0,128.0,32.0,-108.0,-60.0,127.0,125.0,126.0,-5.0,-5.0,-55.0
131.0,130.0,107.0,123.0,127.0,141.0,126.0,128.0,32.0,-108.0,-60.0,127.0,125.0,126.0,-5.0,-5.0,-55.0
131.0,130.0,106.0,123.0,127.0,141.0,125.0,128.0,32.0,-108.0,-60.0,127.0,125.0,126.0,-5.0,-5.0,-55.0
131.0,130.0,106.0,123.0,127.0,141.0,125.0,128.0,32.0,-108.0,-60.0,127.0,125.0,126.0,-5.0,-5.0,-55.0
132.0,131.0,90.0,123.0,125.0,134.0,124.0,129.0,32.0,-107.0,-59.0,127.0,125.0,126.0,-5.0,-5.0,-55.0
132.0,131.0,90.0,123.0,125.0,134.0,124.0,129.0,32.0,-107.0,-59.0,127.0,125.0,126.0,-5.0,-5.0,-55.0
132.0,131.0,90.0,123.0,125.0,134.0,125.0,129.0,32.0,-107.0,-59.0,127.0,125.0,126.0,-5.0,-5.0,-55.0
132.0,131.0,90.0,123.0,125.0,134.0,124.0,129.0,32.0,-107.0,-59.0,127.0,125.0,126.0,-5.0,-5.0,-55.0
132.0,131.0,89.0,123.0,125.0,134.0,124.0,129.0,32.0,-107.0,-59.0,127.0,125.0,126.0,-5.0,-5.0,-55.0
132.0,131.0,89.0,123.0,125.0,134.0,125.0,129.0,32.0,-107.0,-59.0,127.0,125.0,126.0,-5.0,-5.0,-55.0
132.0,130.0,91.0,123.0,125.0,134.0,125.0,129.0,32.0,-107.0,-59.0,127.0,125.0,126.0,-5.0,-5.0,-55.0
132.0,130.0,91.0,123.0,125.0,134.0,125.0,129.0,32.0,-107.0,-59.0,127.0,125.0,126.0,-5.0,-5.0,-55.0
132.0,130.0,90.0,123.0,125.0,134.0,124.0,129.0,32.0,-107.0,-59.0,127.0,125.0,126.0,-5.0,-5.0,-55.0
132.0,130.0,90.0,123.0,125.0,134.0,125.0,129.0,32.0,-107.0,-59.0,127.0,125.0,126.0,-5.0,-5.0,-55.0
131.0,131.0,84.0,123.0,123.0,133.0,126.0,129.0,34.0,-107.0,-58.0,126.0,125.0,127.0,-5.0,-5.0,-55.0
131.0,131.0,84.0,123.0,123.0,133.0,126.0,129.0,34.0,-107.0,-58.0,126.0,125.0,127.0,-5.0,-5.0,-55.0
131.0,131.0,85.0,124.0,123.0,133.0,127.0,129.0,34.0,-107.0,-58.0,126.0,125.0,127.0,-5.0,-5.0,-55.0
131.0,131.0,85.0,124.0,123.0,133.0,127.0,129.0,34.0,-107.0,-58.0,126.0,125.0,127.0,-5.0,-5.0,-55.0
131.0,131.0,85.0,124.0,123.0,133.0,127.0,129.0,34.0,-107.0,-58.0,126.0,125.0,127.0,-5.0,-5.0,-55.0
131.0,131.0,84.0,123.0,123.0,133.0,126.0,129.0,34.0,-107.0,-58.0,126.0,125.0,127.0,-5.0,-5.0,-55.0
131.0,131.0,84.0,123.0,123.0,133.0,126.0,129.0,34.0,-107.0,-58.0,126.0,125.0,127.0,-5.0,-5.0,-55.0
131.0,131.0,84.0,123.0,123.0,134.0,126.0,129.0,34.0,-107.0,-58.0,126.0,125.0,127.0,-5.0,-5.0,-55.0
131.0,131.0,84.0,123.0,123.0,134.0,126.0,129.0,34.0,-107.0,-58.0,126.0,125.0,127.0,-5.0,-5.0,-55.0
131.0,131.0,84.0,123.0,123.0,134.0,126.0,129.0,34.0,-107.0,-58.0,126.0,125.0,127.0,-5.0,-5.0,-55.0
131.0,130.0,108.0,123.0,121.0,132.0,127.0,129.0,38.0,-108.0,-56.0,126.0,125.0,127.0,-5.0,-5.0,-55.0
131.0,130.0,108.0,123.0,121.0,132.0,126.0,129.0,38.0,-108.0,-56.0,126.0,125.0,127.0,-5.0,-5.0,-55.0
131.0,130.0,108.0,123.0,121.0,132.0,126.0,129.0,38.0,-108.0,-56.0,126.0,125.0,127.0,-5.0,-5.0,-55.0
131.0,130.0,109.0,123.0,121.0,132.0,126.0,129.0,38.0,-108.0,-56.0,126.0,125.0,127.0,-5.0,-5.0,-55.0
131.0,130.0,105.0,123.0,121.0,132.0,127.0,129.0,38.0,-108.0,-56.0,126.0,125.0,127.0,-5.0,-5.0,-55.0
131.0,130.0,105.0,123.0,121.0,132.0,127.0,129.0,38.0,-108.0,-56.0,126.0,125.0,127.0,-5.0,-5.0,-55.0
131.0,130.0,106.0,123.0,121.0,132.0,127.0,129.0,38.0,-108.0,-56.0,126.0,125.0,127.0,-5.0,-5.0,-55.0
131.0,130.0,106.0,123.0,121.0,132.0,127.0,129.0,38.0,-108.0,-56.0,126.0,125.0,127.0,-5.0,-5.0,-55.0
131.0,130.0,107.0,123.0,121.0,132.0,126.0,129.0,38.0,-108.0,-56.0,126.0,125.0,127.0,-5.0,-5.0,-55.0
131.0,130.0,107.0,123.0,121.0,132.0,127.0,129.0,38.0,-108.0,-56.0,126.0,125.0,127.0,-5.0,-5.0,-55.0
129.0,127.0,126.0,122.0,122.0,135.0,126.0,125.0,42.0,-109.0,-54.0,126.0,125.0,127.0,-5.0,-5.0,-55.0
129.0,127.0,126.0,122.0,122.0,135.0,126.0,124.0,42.0,-109.0,-54.0,126.0,125.0,127.0,-5.0,-5.0,-55.0
129.0,127.0,126.0,122.0,122.0,135.0,126.0,124.0,42.0,-109.0,-54.0,126.0,125.0,127.0,-5.0,-5.0,-55.0
129.0,127.0,126.0,122.0,121.0,134.0,127.0,125.0,42.0,-109.0,-54.0,126.0,125.0,127.0,-5.0,-5.0,-55.0
129.0,127.0,126.0,122.0,122.0,134.0,126.0,125.0,42.0,-109.0,-54.0,126.0,125.0,127.0,-5.0,-5.0,-55.0
129.0,127.0,126.0,122.0,122.0,134.0,126.0,125.0,42.0,-109.0,-54.0,126.0,125.0,127.0,-5.0,-5.0,-55.0
129.0,127.0,126.0,122.0,122.0,134.0,126.0,125.0,42.0,-109.0,-54.0,126.0,125.0,127.0,-5.0,-5.0,-55.0
129.0,127.0,126.0,122.0,122.0,134.0,126.0,125.0,42.0,-109.0,-54.0,126.0,125.0,127.0,-5.0,-5.0,-55.0
129.0,127.0,126.0,122.0,122.0,135.0,126.0,125.0,42.0,-109.0,-54.0,126.0,125.0,127.0,-5.0,-5.0,-55.0
129.0,127.0,126.0,122.0,122.0,135.0,126.0,125.0,42.0,-109.0,-54.0,126.0,125.0,127.0,-5.0,-5.0,-55.0
128.0,125.0,106.0,122.0,126.0,144.0,123.0,125.0,47.0,-111.0,-51.0,126.0,125.0,127.0,-5.0,-5.0,-55.0
128.0,125.0,106.0,122.0,126.0,144.0,123.0,125.0,47.0,-111.0,-51.0,126.0,125.0,127.0,-5.0,-5.0,-55.0
128.0,126.0,108.0,122.0,125.0,142.0,123.0,124.0,47.0,-111.0,-51.0,126.0,125.0,127.0,-5.0,-5.0,-55.0
128.0,125.0,108.0,122.0,125.0,142.0,123.0,124.0,47.0,-111.0,-51.0,126.0,125.0,127.0,-5.0,-5.0,-55.0
128.0,125.0,108.0,122.0,126.0,142.0,123.0,124.0,47.0,-111.0,-51.0,126.0,125.0,127.0,-5.0,-5.0,-55.0
128.0,125.0,107.0,122.0,126.0,143.0,123.0,125.0,47.0,-111.0,-51.0,126.0,125.0,127.0,-5.0,-5.0,-55.0
128.0,125.0,107.0,122.0,126.0,143.0,123.0,125.0,47.0,-111.0,-51.0,126.0,125.0,127.0,-5.0,-5.0,-55.0
128.0,125.0,107.0,122.0,126.0,143.0,123.0,125.0,47.0,-111.0,-51.0,126.0,125.0,127.0,-5.0,-5.0,-55.0
128.0,125.0,107.0,122.0,126.0,143.0,123.0,125.0,47.0,-111.0,-51.0,126.0,125.0,127.0,-5.0,-5.0,-55.0
128.0,125.0,107.0,122.0,126.0,143.0,123.0,125.0,47.0,-111.0,-51.0,126.0,125.0,127.0,-5.0,-5.0,-55.0
127.0,126.0,90.0,123.0,129.0,150.0,124.0,126.0,52.0,-113.0,-48.0,126.0,125.0,127.0,-5.0,-5.0,-55.0
127.0,126.0,95.0,123.0,128.0,149.0,123.0,126.0,52.0,-113.0,-48.0,126.0,125.0,127.0,-5.0,-5.0,-55.0
127.0,125.0,95.0,123.0,129.0,149.0,123.0,126.0,52.0,-113.0,-48.0,126.0,125.0,127.0,-5.0,-5.0,-55.0
127.0,126.0,94.0,123.0,129.0,150.0,123.0,126.0,52.0,-113.0,-48.0,126.0,125.0,127.0,-5.0,-5.0,-55.0
127.0,126.0,93.0,123.0,129.0,150.0,124.0,126.0,52.0,-113.0,-48.0,126.0,125.0,127.0,-5.0,-5.0,-55.0
127.0,126.0,92.0,123.0,129.0,150.0,124.0,126.0,52.0,-113.0,-48.0,126.0,125.0,127.0,-5.0,-5.0,-55.0
127.0,126.0,92.0,123.0,129.0,150.0,124.0,126.0,52.0,-113.0,-48.0,126.0,125.0,127.0,-5.0,-5.0,-55.0
127.0,126.0,91.0,123.0,129.0,150.0,124.0,126.0,52.0,-113.0,-48.0,126.0,125.0,127.0,-5.0,-5.0,-55.0
127.0,126.0,91.0,123.0,129.0,150.0,124.0,126.0,52.0,-113.0,-48.0,126.0,125.0,127.0,-5.0,-5.0,-55.0
127.0,126.0,90.0,123.0,129.0,150.0,124.0,126.0,52.0,-113.0,-48.0,126.0,125.0,127.0,-5.0,-5.0,-55.0
128.0,126.0,72.0,124.0,130.0,151.0,125.0,127.0,58.0,-114.0,-45.0,126.0,125.0,127.0,-5.0,-5.0,-55.0
128.0,126.0,72.0,123.0,130.0,151.0,125.0,127.0,58.0,-114.0,-45.0,126.0,125.0,127.0,-5.0,-5.0,-55.0
128.0,126.0,71.0,123.0,130.0,152.0,125.0,127.0,58.0,-114.0,-45.0,126.0,125.0,127.0,-5.0,-5.0,-55.0
128.0,126.0,72.0,123.0,130.0,152.0,125.0,128.0,58.0,-114.0,-45.0,126.0,125.0,127.0,-5.0,-5.0,-55.0
128.0,127.0,72.0,123.0,130.0,152.0,125.0,128.0,58.0,-114.0,-45.0,126.0,125.0,127.0,-5.0,-5.0,-55.0
128.0,126.0,72.0,123.0,130.0,152.0,125.0,128.0,58.0,-114.0,-45.0,126.0,125.0,127.0,-5.0,-5.0,-55.0
128.0,126.0,73.0,123.0,130.0,152.0,125.0,128.0,58.0,-114.0,-45.0,126.0,125.0,127.0,-5.0,-5.0,-55.0
128.0,126.0,74.0,124.0,130.0,151.0,125.0,128.0,58.0,-114.0,-45.0,126.0,125.0,127.0,-5.0,-5.0,-55.0
128.0,126.0,74.0,123.0,130.0,152.0,125.0,128.0,58.0,-114.0,-45.0,126.0,125.0,127.0,-5.0,-5.0,-55.0
128.0,127.0,74.0,123.0,130.0,152.0,125.0,128.0,58.0,-114.0,-45.0,126.0,125.0,127.0,-5.0,-5.0,-55.0
127.0,126.0,109.0,123.0,128.0,147.0,131.0,129.0,62.0,-115.0,-43.0,126.0,125.0,127.0,-5.0,-5.0,-55.0
127.0,126.0,110.0,123.0,128.0,146.0,131.0,129.0,62.0,-115.0,-43.0,126.0,125.0,127.0,-5.0,-5.0,-55.0
127.0,126.0,111.0,123.0,128.0,146.0,131.0,129.0,62.0,-115.0,-43.0,126.0,125.0,127.0,-5.0,-5.0,-55.0
127.0,126.0,112.0,123.0,127.0,146.0,131.0,129.0,62.0,-115.0,-43.0,126.0,125.0,127.0,-5.0,-5.0,-55.0
128.0,126.0,113.0,123.0,127.0,146.0,131.0,129.0,62.0,-115.0,-43.0,126.0,125.0,127.0,-5.0,-5.0,-55.0
127.0,126.0,114.0,123.0,127.0,146.0,131.0,129.0,62.0,-115.0,-43.0,126.0,125.0,127.0,-5.0,-5.0,-55.0
128.0,126.0,115.0,123.0,127.0,146.0,132.0,129.0,62.0,-115.0,-43.0,126.0,125.0,127.0,-5.0,-5.0,-55.0
127.0,126.0,116.0,123.0,127.0,145.0,132.0,129.0,62.0,-115.0,-43.0,126.0,125.0,127.0,-5.0,-5.0,-55.0
127.0,126.0,117.0,123.0,127.0,146.0,132.0,129.0,62.0,-115.0,-43.0,126.0,125.0,127.0,-5.0,-5.0,-55.0
127.0,126.0,108.0,123.0,128.0,147.0,131.0,129.0,62.0,-115.0,-43.0,126.0,125.0,127.0,-5.0,-5.0,-55.0
127.0,127.0,132.0,123.0,125.0,143.0,125.0,128.0,66.0,-117.0,-40.0,126.0,125.0,127.0,-5.0,-5.0,-55.0
128.0,127.0,132.0,123.0,125.0,144.0,125.0,128.0,66.0,-117.0,-40.0,126.0,125.0,127.0,-5.0,-5.0,-55.0
127.0,127.0,133.0,123.0,125.0,143.0,125.0,128.0,66.0,-117.0,-40.0,126.0,125.0,127.0,-5.0,-5.0,-55.0
128.0,127.0,133.0,123.0,125.0,143.0,125.0,128.0,66.0,-117.0,-40.0,126.0,125.0,127.0,-5.0,-5.0,-55.0
127.0,127.0,134.0,123.0,125.0,143.0,125.0,128.0,66.0,-117.0,-40.0,126.0,125.0,127.0,-5.0,-5.0,-55.0
127.0,127.0,135.0,123.0,126.0,142.0,125.0,128.0,66.0,-117.0,-40.0,126.0,125.0,127.0,-5.0,-5.0,-55.0
127.0,127.0,135.0,123.0,126.0,142.0,125.0,128.0,66.0,-117.0,-40.0,126.0,125.0,127.0,-5.0,-5.0,-55.0
127.0,127.0,135.0,123.0,126.0,142.0,125.0,128.0,66.0,-117.0,-40.0,126.0,125.0,127.0,-5.0,-5.0,-55.0
127.0,127.0,131.0,123.0,125.0,144.0,126.0,128.0,66.0,-117.0,-40.0,126.0,125.0,127.0,-5.0,-5.0,-55.0
128.0,127.0,132.0,123.0,125.0,144.0,126.0,128.0,66.0,-117.0,-40.0,126.0,125.0,127.0,-5.0,-5.0,-55.0
127.0,126.0,151.0,123.0,126.0,138.0,126.0,129.0,68.0,-119.0,-37.0,126.0,125.0,127.0,-5.0,-5.0,-55.0
127.0,126.0,151.0,123.0,126.0,138.0,126.0,129.0,68.0,-119.0,-37.0,126.0,125.0,127.0,-5.0,-5.0,-55.0
127.0,126.0,151.0,123.0,126.0,138.0,126.0,129.0,68.0,-119.0,-37.0,126.0,125.0,127.0,-5.0,-5.0,-55.0
127.0,126.0,151.0,123.0,126.0,138.0,126.0,129.0,68.0,-119.0,-37.0,126.0,125.0,127.0,-5.0,-5.0,-55.0
127.0,126.0,150.0,123.0,125.0,138.0,126.0,129.0,68.0,-119.0,-37.0,126.0,125.0,127.0,-5.0,-5.0,-55.0
127.0,126.0,150.0,123.0,125.0,138.0,127.0,129.0,68.0,-119.0,-37.0,126.0,125.0,127.0,-5.0,-5.0,-55.0
127.0,126.0,150.0,123.0,125.0,138.0,127.0,129.0,68.0,-119.0,-37.0,126.0,125.0,127.0,-5.0,-5.0,-55.0
127.0,126.0,150.0,123.0,126.0,138.0,125.0,129.0,68.0,-119.0,-37.0,126.0,125.0,127.0,-5.0,-5.0,-55.0
127.0,126.0,150.0,123.0,126.0,138.0,125.0,129.0,68.0,-119.0,-37.0,126.0,125.0,127.0,-5.0,-5.0,-55.0
127.0,126.0,150.0,123.0,126.0,138.0,125.0,129.0,68.0,-119.0,-37.0,126.0,125.0,127.0,-5.0,-5.0,-55.0
128.0,126.0,140.0,122.0,124.0,133.0,128.0,129.0,69.0,-120.0,-34.0,126.0,125.0,127.0,-5.0,-5.0,-55.0
128.0,126.0,140.0,122.0,124.0,133.0,128.0,129.0,69.0,-120.0,-34.0,126.0,125.0,127.0,-5.0,-5.0,-55.0
128.0,126.0,139.0,122.0,124.0,133.0,128.0,129.0,69.0,-120.0,-34.0,126.0,125.0,127.0,-5.0,-5.0,-55.0
128.0,126.0,139.0,122.0,124.0,133.0,127.0,129.0,69.0,-120.0,-34.0,126.0,125.0,127.0,-5.0,-5.0,-55.0
128.0,126.0,139.0,122.0,124.0,133.0,127.0,129.0,69.0,-120.0,-34.0,126.0,125.0,127.0,-5.0,-5.0,-55.0
128.0,126.0,138.0,122.0,124.0,133.0,127.0,129.0,69.0,-120.0,-34.0,126.0,125.0,127.0,-5.0,-5.0,-55.0
128.0,126.0,141.0,122.0,124.0,134.0,128.0,129.0,69.0,-120.0,-34.0,126.0,125.0,127.0,-5.0,-5.0,-55.0
128.0,126.0,141.0,122.0,124.0,134.0,128.0,129.0,69.0,-120.0,-34.0,126.0,125.0,127.0,-5.0,-5.0,-55.0
128.0,126.0,141.0,122.0,124.0,134.0,128.0,129.0,69.0,-120.0,-34.0,126.0,125.0,127.0,-5.0,-5.0,-55.0
128.0,126.0,141.0,122.0,124.0,134.0,128.0,129.0,69.0,-120.0,-34.0,126.0,125.0,127.0,-5.0,-5.0,-55.0
128.0,126.0,142.0,122.0,124.0,125.0,124.0,129.0,70.0,-121.0,-32.0,126.0,126.0,127.0,-5.0,-5.0,-55.0
128.0,126.0,143.0,122.0,124.0,124.0,124.0,129.0,70.0,-121.0,-32.0,126.0,126.0,127.0,-5.0,-5.0,-55.0
128.0,126.0,143.0,122.0,124.0,124.0,124.0,129.0,70.0,-121.0,-32.0,126.0,126.0,127.0,-5.0,-5.0,-55.0
128.0,126.0,143.0,122.0,124.0,124.0,124.0,129.0,70.0,-121.0,-32.0,126.0,126.0,127.0,-5.0,-5.0,-55.0
128.0,126.0,144.0,122.0,124.0,124.0,124.0,129.0,70.0,-121.0,-32.0,126.0,126.0,127.0,-5.0,-5.0,-55.0
128.0,126.0,141.0,122.0,124.0,125.0,124.0,129.0,70.0,-121.0,-32.0,126.0,126.0,127.0,-5.0,-5.0,-55.0
128.0,126.0,141.0,122.0,124.0,125.0,124.0,129.0,70.0,-121.0,-32.0,126.0,126.0,127.0,-5.0,-5.0,-55.0
128.0,126.0,141.0,122.0,124.0,125.0,124.0,129.0,70.0,-121.0,-32.0,126.0,126.0,127.0,-5.0,-5.0,-55.0
128.0,126.0,142.0,122.0,124.0,125.0,124.0,129.0,70.0,-121.0,-32.0,126.0,126.0,127.0,-5.0,-5.0,-55.0
128.0,126.0,142.0,122.0,124.0,125.0,124.0,129.0,70.0,-121.0,-32.0,126.0,126.0,127.0,-5.0,-5.0,-55.0
128.0,127.0,151.0,123.0,123.0,116.0,125.0,129.0,71.0,-122.0,-31.0,126.0,126.0,127.0,-5.0,-5.0,-55.0
128.0,127.0,151.0,123.0,123.0,116.0,125.0,129.0,71.0,-122.0,-31.0,126.0,126.0,127.0,-5.0,-5.0,-55.0
128.0,127.0,151.0,123.0,123.0,115.0,125.0,129.0,71.0,-122.0,-31.0,126.0,126.0,127.0,-5.0,-5.0,-55.0
128.0,127.0,151.0,123.0,123.0,115.0,125.0,129.0,71.0,-122.0,-31.0,126.0,126.0,127.0,-5.0,-5.0,-55.0
128.0,127.0,151.0,122.0,123.0,117.0,125.0,129.0,71.0,-122.0,-31.0,126.0,126.0,127.0,-5.0,-5.0,-55.0
128.0,127.0,151.0,122.0,123.0,117.0,125.0,130.0,71.0,-122.0,-31.0,126.0,126.0,127.0,-5.0,-5.0,-55.0
128.0,127.0,151.0,122.0,123.0,117.0,125.0,130.0,71.0,-122.0,-31.0,126.0,126.0,127.0,-5.0,-5.0,-55.0
128.0,127.0,151.0,122.0,123.0,116.0,125.0,129.0,71.0,-122.0,-31.0,126.0,126.0,127.0,-5.0,-5.0,-55.0
128.0,127.0,151.0,122.0,123.0,116.0,125.0,129.0,71.0,-122.0,-31.0,126.0,126.0,127.0,-5.0,-5.0,-55.0
128.0,127.0,151.0,122.0,123.0,116.0,125.0,129.0,71.0,-122.0,-31.0,126.0,126.0,127.0,-5.0,-5.0,-55.0
128.0,127.0,156.0,123.0,122.0,112.0,125.0,129.0,71.0,-122.0,-31.0,126.0,126.0,127.0,-5.0,-5.0,-55.0
128.0,127.0,156.0,123.0,122.0,112.0,125.0,129.0,71.0,-122.0,-31.0,126.0,126.0,127.0,-5.0,-5.0,-55.0
128.0,127.0,156.0,123.0,122.0,112.0,125.0,129.0,71.0,-122.0,-31.0,126.0,126.0,127.0,-5.0,-5.0,-55.0
128.0,127.0,155.0,123.0,123.0,112.0,124.0,129.0,71.0,-122.0,-31.0,126.0,126.0,127.0,-5.0,-5.0,-55.0
128.0,127.0,155.0,123.0,123.0,112.0,125.0,129.0,71.0,-122.0,-31.0,126.0,126.0,127.0,-5.0,-5.0,-55.0
128.0,127.0,155.0,123.0,122.0,112.0,125.0,129.0,71.0,-122.0,-31.0,126.0,126.0,127.0,-5.0,-5.0,-55.0
128.0,127.0,155.0,123.0,122.0,112.0,125.0,129.0,71.0,-122.0,-31.0,126.0,126.0,127.0,-5.0,-5.0,-55.0
128.0,127.0,155.0,123.0,122.0,112.0,125.0,129.0,71.0,-122.0,-31.0,126.0,126.0,127.0,-5.0,-5.0,-55.0
128.0,127.0,155.0,123.0,122.0,112.0,125.0,129.0,71.0,-122.0,-31.0,126.0,126.0,127.0,-5.0,-5.0,-55.0
128.0,127.0,156.0,123.0,122.0,112.0,125.0,129.0,71.0,-122.0,-31.0,126.0,126.0,127.0,-5.0,-5.0,-55.0
128.0,127.0,154.0,123.0,123.0,115.0,126.0,129.0,72.0,-123.0,-31.0,126.0,126.0,127.0,-5.0,-5.0,-55.0
128.0,126.0,154.0,123.0,123.0,115.0,126.0,129.0,72.0,-123.0,-31.0,126.0,126.0,127.0,-5.0,-5.0,-55.0
128.0,127.0,155.0,123.0,123.0,114.0,126.0,129.0,72.0,-123.0,-31.0,126.0,126.0,127.0,-5.0,-5.0,-55.0
128.0,127.0,155.0,123.0,123.0,114.0,126.0,129.0,72.0,-123.0,-31.0,126.0,126.0,127.0,-5.0,-5.0,-55.0
128.0,127.0,155.0,123.0,123.0,114.0,126.0,129.0,72.0,-123.0,-31.0,126.0,126.0,127.0,-5.0,-5.0,-55.0
128.0,127.0,155.0,123.0,123.0,114.0,126.0,129.0,72.0,-123.0,-31.0,126.0,126.0,127.0,-5.0,-5.0,-55.0
128.0,126.0,155.0,123.0,123.0,114.0,126.0,129.0,72.0,-123.0,-31.0,126.0,126.0,127.0,-5.0,-5.0,-55.0
128.0,126.0,155.0,123.0,123.0,114.0,126.0,129.0,72.0,-123.0,-31.0,126.0,126.0,127.0,-5.0,-5.0,-55.0
128.0,126.0,154.0,123.0,123.0,114.0,126.0,129.0,72.0,-123.0,-31.0,126.0,126.0,127.0,-5.0,-5.0,-55.0
128.0,127.0,154.0,123.0,123.0,114.0,126.0,129.0,72.0,-123.0,-31.0,126.0,126.0,127.0,-5.0,-5.0,-55.0
128.0,127.0,143.0,124.0,125.0,121.0,127.0,129.0,72.0,-123.0,-32.0,125.0,126.0,127.0,-5.0,-5.0,-55.0
128.0,127.0,145.0,124.0,125.0,120.0,127.0,129.0,72.0,-123.0,-32.0,125.0,126.0,127.0,-5.0,-5.0,-55.0
128.0,127.0,144.0,124.0,125.0,120.0,127.0,129.0,72.0,-123.0,-32.0,125.0,126.0,127.0,-5.0,-5.0,-55.0
128.0,127.0,144.0,124.0,125.0,120.0,127.0,129.0,72.0,-123.0,-32.0,125.0,126.0,127.0,-5.0,-5.0,-55.0
128.0,127.0,144.0,124.0,125.0,120.0,127.0,129.0,72.0,-123.0,-32.0,125.0,126.0,127.0,-5.0,-5.0,-55.0
128.0,127.0,144.0,124.0,125.0,120.0,127.0,129.0,72.0,-123.0,-32.0,125.0,126.0,127.0,-5.0,-5.0,-55.0
128.0,127.0,144.0,124.0,125.0,121.0,127.0,129.0,72.0,-123.0,-32.0,125.0,126.0,127.0,-5.0,-5.0,-55.0
128.0,127.0,144.0,124.0,125.0,121.0,127.0,129.0,72.0,-123.0,-32.0,125.0,126.0,127.0,-5.0,-5.0,-55.0
128.0,127.0,143.0,124.0,125.0,121.0,127.0,129.0,72.0,-123.0,-32.0,125.0,126.0,127.0,-5.0,-5.0,-55.0
128.0,127.0,143.0,124.0,125.0,121.0,127.0,129.0,72.0,-123.0,-32.0,125.0,126.0,127.0,-5.0,-5.0,-55.0
128.0,127.0,139.0,124.0,126.0,125.0,127.0,129.0,73.0,-123.0,-33.0,125.0,126.0,127.0,-5.0,-5.0,-55.0
128.0,127.0,139.0,124.0,126.0,125.0,127.0,129.0,73.0,-123.0,-33.0,125.0,126.0,127.0,-5.0,-5.0,-55.0
128.0,127.0,139.0,124.0,127.0,125.0,127.0,129.0,73.0,-123.0,-33.0,125.0,126.0,127.0,-5.0,-5.0,-55.0
128.0,126.0,138.0,124.0,127.0,125.0,127.0,129.0,73.0,-123.0,-33.0,125.0,126.0,127.0,-5.0,-5.0,-55.0
128.0,127.0,138.0,124.0,127.0,125.0,127.0,129.0,73.0,-123.0,-33.0,125.0,126.0,127.0,-5.0,-5.0,-55.0
128.0,127.0,138.0,124.0,127.0,125.0,127.0,129.0,73.0,-123.0,-33.0,125.0,126.0,127.0,-5.0,-5.0,-55.0
128.0,127.0,138.0,124.0,127.0,125.0,127.0,129.0,73.0,-123.0,-33.0,125.0,126.0,127.0,-5.0,-5.0,-55.0
128.0,127.0,138.0,124.0,127.0,125.0,127.0,129.0,73.0,-123.0,-33.0,125.0,126.0,127.0,-5.0,-5.0,-55.0
128.0,127.0,138.0,124.0,127.0,125.0,127.0,129.0,73.0,-123.0,-33.0,125.0,126.0,127.0,-5.0,-5.0,-55.0
128.0,127.0,138.0,124.0,127.0,125.0,127.0,129.0,73.0,-123.0,-33.0,125.0,126.0,127.0,-5.0,-5.0,-55.0
128.0,128.0,133.0,124.0,128.0,127.0,127.0,129.0,73.0,-124.0,-34.0,125.0,126.0,127.0,-5.0,-5.0,-55.0
128.0,128.0,133.0,124.0,128.0,127.0,127.0,129.0,73.0,-124.0,-34.0,125.0,126.0,127.0,-5.0,-5.0,-55.0
128.0,128.0,133.0,124.0,128.0,127.0,127.0,129.0,73.0,-124.0,-34.0,125.0,126.0,127.0,-5.0,-5.0,-55.0
128.0,128.0,133.0,124.0,128.0,127.0,127.0,129.0,73.0,-124.0,-34.0,125.0,126.0,127.0,-5.0,-5.0,-55.0
128.0,128.0,133.0,124.0,128.0,127.0,127.0,129.0,73.0,-124.0,-34.0,125.0,126.0,127.0,-5.0,-5.0,-55.0
128.0,128.0,133.0,124.0,128.0,127.0,127.0,129.0,73.0,-124.0,-34.0,125.0,126.0,127.0,-5.0,-5.0,-55.0
128.0,128.0,133.0,124.0,128.0,127.0,127.0,129.0,73.0,-124.0,-34.0,125.0,126.0,127.0,-5.0,-5.0,-55.0
128.0,128.0,132.0,124.0,128.0,128.0,127.0,129.0,73.0,-124.0,-34.0,125.0,126.0,127.0,-5.0,-5.0,-55.0
128.0,128.0,133.0,124.0,128.0,128.0,128.0,129.0,73.0,-124.0,-34.0,125.0,126.0,127.0,-5.0,-5.0,-55.0
128.0,128.0,133.0,124.0,128.0,127.0,127.0,129.0,73.0,-124.0,-34.0,125.0,126.0,127.0,-5.0,-5.0,-55.0
128.0,127.0,132.0,124.0,128.0,127.0,127.0,128.0,73.0,-125.0,-35.0,125.0,126.0,127.0,-5.0,-5.0,-55.0
128.0,127.0,132.0,124.0,128.0,127.0,127.0,128.0,73.0,-125.0,-35.0,125.0,126.0,127.0,-5.0,-5.0,-55.0
128.0,128.0,132.0,124.0,128.0,127.0,127.0,128.0,73.0,-125.0,-35.0,125.0,126.0,127.0,-5.0,-5.0,-55.0
128.0,128.0,131.0,124.0,128.0,128.0,127.0,128.0,73.0,-125.0,-35.0,125.0,126.0,127.0,-5.0,-5.0,-55.0
128.0,128.0,131.0,124.0,128.0,128.0,127.0,128.0,73.0,-125.0,-35.0,125.0,126.0,127.0,-5.0,-5.0,-55.0
128.0,128.0,131.0,124.0,128.0,128.0,127.0,128.0,73.0,-125.0,-35.0,125.0,126.0,127.0,-5.0,-5.0,-55.0
128.0,127.0,131.0,124.0,128.0,127.0,127.0,128.0,73.0,-125.0,-35.0,125.0,126.0,127.0,-5.0,-5.0,-55.0
128.0,127.0,131.0,124.0,128.0,128.0,127.0,128.0,73.0,-125.0,-35.0,125.0,126.0,127.0,-5.0,-5.0,-55.0
128.0,127.0,132.0,124.0,128.0,127.0,127.0,128.0,73.0,-125.0,-35.0,125.0,126.0,127.0,-5.0,-5.0,-55.0
128.0,127.0,132.0,124.0,128.0,127.0,127.0,128.0,73.0,-125.0,-35.0,125.0,126.0,127.0,-5.0,-5.0,-55.0
128.0,128.0,125.0,125.0,129.0,128.0,127.0,128.0,73.0,-126.0,-35.0,126.0,126.0,127.0,-5.0,-5.0,-55.0
128.0,128.0,125.0,124.0,129.0,128.0,127.0,128.0,73.0,-126.0,-35.0,126.0,126.0,127.0,-5.0,-5.0,-55.0
128.0,128.0,124.0,125.0,129.0,128.0,127.0,128.0,73.0,-126.0,-35.0,126.0,126.0,127.0,-5.0,-5.0,-55.0
128.0,128.0,124.0,125.0,129.0,128.0,127.0,128.0,73.0,-126.0,-35.0,126.0,126.0,127.0,-5.0,-5.0,-55.0
128.0,128.0,124.0,125.0,128.0,128.0,127.0,128.0,73.0,-126.0,-35.0,126.0,126.0,127.0,-5.0,-5.0,-55.0
128.0,128.0,124.0,125.0,128.0,128.0,127.0,128.0,73.0,-126.0,-35.0,126.0,126.0,127.0,-5.0,-5.0,-55.0
128.0,128.0,124.0,125.0,128.0,128.0,127.0,128.0,73.0,-126.0,-35.0,126.0,126.0,127.0,-5.0,-5.0,-55.0
128.0,128.0,126.0,125.0,129.0,127.0,127.0,128.0,73.0,-126.0,-35.0,126.0,126.0,127.0,-5.0,-5.0,-55.0
128.0,128.0,126.0,124.0,129.0,127.0,127.0,128.0,73.0,-126.0,-35.0,126.0,126.0,127.0,-5.0,-5.0,-55.0
128.0,128.0,125.0,125.0,129.0,128.0,127.0,128.0,73.0,-126.0,-35.0,126.0,126.0,127.0,-5.0,-5.0,-55.0
128.0,129.0,123.0,125.0,129.0,128.0,128.0,128.0,73.0,-127.0,-35.0,126.0,126.0,127.0,-5.0,-5.0,-55.0
128.0,129.0,124.0,125.0,129.0,128.0,128.0,128.0,73.0,-127.0,-35.0,126.0,126.0,127.0,-5.0,-5.0,-55.0
128.0,129.0,124.0,125.0,129.0,128.0,128.0,128.0,73.0,-127.0,-35.0,126.0,126.0,127.0,-5.0,-5.0,-55.0
128.0,129.0,123.0,125.0,129.0,128.0,128.0,128.0,73.0,-127.0,-35.0,126.0,126.0,127.0,-5.0,-5.0,-55.0
128.0,129.0,123.0,125.0,129.0,129.0,128.0,128.0,73.0,-127.0,-35.0,126.0,126.0,127.0,-5.0,-5.0,-55.0
128.0,129.0,123.0,125.0,129.0,129.0,128.0,128.0,73.0,-127.0,-35.0,126.0,126.0,127.0,-5.0,-5.0,-55.0
128.0,129.0,124.0,125.0,129.0,128.0,128.0,128.0,73.0,-127.0,-35.0,126.0,126.0,127.0,-5.0,-5.0,-55.0
128.0,129.0,123.0,125.0,129.0,128.0,127.0,128.0,73.0,-127.0,-35.0,126.0,126.0,127.0,-5.0,-5.0,-55.0
128.0,129.0,123.0,125.0,129.0,129.0,128.0,128.0,73.0,-127.0,-35.0,126.0,126.0,127.0,-5.0,-5.0,-55.0
128.0,129.0,123.0,125.0,129.0,129.0,128.0,128.0,73.0,-127.0,-35.0,126.0,126.0,127.0,-5.0,-5.0,-55.0
128.0,129.0,122.0,126.0,128.0,129.0,127.0,127.0,73.0,-128.0,-36.0,126.0,126.0,127.0,-5.0,-5.0,-55.0
128.0,128.0,122.0,126.0,128.0,129.0,127.0,127.0,73.0,-128.0,-36.0,126.0,126.0,127.0,-5.0,-5.0,-55.0
128.0,129.0,122.0,126.0,128.0,129.0,127.0,127.0,73.0,-128.0,-36.0,126.0,126.0,127.0,-5.0,-5.0,-55.0
127.0,129.0,122.0,126.0,128.0,129.0,127.0,127.0,73.0,-128.0,-36.0,126.0,126.0,127.0,-5.0,-5.0,-55.0
127.0,128.0,123.0,126.0,128.0,129.0,127.0,127.0,73.0,-128.0,-36.0,126.0,126.0,127.0,-5.0,-5.0,-55.0
127.0,128.0,123.0,126.0,128.0,128.0,127.0,127.0,73.0,-128.0,-36.0,126.0,126.0,127.0,-5.0,-5.0,-55.0
127.0,128.0,122.0,126.0,128.0,129.0,127.0,127.0,73.0,-128.0,-36.0,126.0,126.0,127.0,-5.0,-5.0,-55.0
127.0,128.0,122.0,126.0,128.0,129.0,127.0,127.0,73.0,-128.0,-36.0,126.0,126.0,127.0,-5.0,-5.0,-55.0
128.0,128.0,123.0,126.0,128.0,129.0,127.0,127.0,73.0,-128.0,-36.0,126.0,126.0,127.0,-5.0,-5.0,-55.0
128.0,128.0,122.0,126.0,128.0,129.0,127.0,127.0,73.0,-128.0,-36.0,126.0,126.0,127.0,-5.0,-5.0,-55.0
128.0,128.0,123.0,125.0,128.0,130.0,127.0,128.0,73.0,-128.0,-36.0,126.0,126.0,127.0,-5.0,-5.0,-55.0
128.0,128.0,124.0,125.0,128.0,130.0,127.0,128.0,73.0,-128.0,-36.0,126.0,126.0,127.0,-5.0,-5.0,-55.0
128.0,128.0,124.0,125.0,128.0,130.0,127.0,127.0,73.0,-128.0,-36.0,126.0,126.0,127.0,-5.0,-5.0,-55.0
128.0,128.0,124.0,125.0,128.0,129.0,127.0,127.0,73.0,-128.0,-36.0,126.0,126.0,127.0,-5.0,-5.0,-55.0
128.0,128.0,124.0,125.0,128.0,129.0,127.0,127.0,73.0,-128.0,-36.0,126.0,126.0,127.0,-5.0,-5.0,-55.0
128.0,128.0,124.0,125.0,128.0,129.0,127.0,127.0,73.0,-128.0,-36.0,126.0,126.0,127.0,-5.0,-5.0,-55.0
128.0,128.0,124.0,125.0,128.0,129.0,127.0,127.0,73.0,-128.0,-36.0,126.0,126.0,127.0,-5.0,-5.0,-55.0
128.0,128.0,124.0,125.0,128.0,130.0,127.0,127.0,73.0,-128.0,-36.0,126.0,126.0,127.0,-5.0,-5.0,-55.0
128.0,128.0,123.0,125.0,128.0,130.0,127.0,127.0,73.0,-128.0,-36.0,126.0,126.0,127.0,-5.0,-5.0,-55.0
128.0,128.0,123.0,125.0,128.0,130.0,127.0,127.0,73.0,-128.0,-36.0,126.0,126.0,127.0,-5.0,-5.0,-55.0
127.0,127.0,124.0,125.0,127.0,131.0,127.0,128.0,73.0,-128.0,-36.0,126.0,127.0,127.0,-5.0,-5.0,-55.0
128.0,128.0,124.0,125.0,127.0,131.0,127.0,128.0,73.0,-128.0,-36.0,126.0,127.0,127.0,-5.0,-5.0,-55.0
127.0,128.0,124.0,125.0,127.0,131.0,127.0,128.0,73.0,-128.0,-36.0,126.0,127.0,127.0,-5.0,-5.0,-55.0
128.0,128.0,124.0,125.0,127.0,131.0,127.0,128.0,73.0,-128.0,-36.0,126.0,127.0,127.0,-5.0,-5.0,-55.0
127.0,127.0,124.0,125.0,127.0,131.0,127.0,128.0,73.0,-128.0,-36.0,126.0,127.0,127.0,-5.0,-5.0,-55.0
127.0,127.0,124.0,125.0,127.0,131.0,127.0,128.0,73.0,-128.0,-36.0,126.0,127.0,127.0,-5.0,-5.0,-55.0
128.0,127.0,124.0,125.0,127.0,130.0,127.0,128.0,73.0,-128.0,-36.0,126.0,127.0,127.0,-5.0,-5.0,-55.0
127.0,127.0,124.0,125.0,127.0,131.0,127.0,127.0,73.0,-128.0,-36.0,126.0,127.0,127.0,-5.0,-5.0,-55.0
127.0,128.0,124.0,125.0,127.0,131.0,127.0,128.0,73.0,-128.0,-36.0,126.0,127.0,127.0,-5.0,-5.0,-55.0
128.0,127.0,124.0,125.0,127.0,131.0,127.0,128.0,73.0,-128.0,-36.0,126.0,127.0,127.0,-5.0,-5.0,-55.0
128.0,128.0,123.0,125.0,128.0,131.0,127.0,128.0,73.0,127.0,-36.0,126.0,127.0,127.0,-5.0,-5.0,-55.0
127.0,128.0,123.0,125.0,127.0,131.0,127.0,128.0,73.0,127.0,-36.0,126.0,127.0,127.0,-5.0,-5.0,-55.0
127.0,128.0,124.0,125.0,127.0,131.0,127.0,128.0,73.0,127.0,-36.0,126.0,127.0,127.0,-5.0,-5.0,-55.0
127.0,128.0,123.0,125.0,128.0,131.0,127.0,128.0,73.0,127.0,-36.0,126.0,127.0,127.0,-5.0,-5.0,-55.0
127.0,128.0,123.0,125.0,128.0,131.0,127.0,128.0,73.0,127.0,-36.0,126.0,127.0,127.0,-5.0,-5.0,-55.0
128.0,128.0,123.0,125.0,128.0,131.0,127.0,128.0,73.0,127.0,-36.0,126.0,127.0,127.0,-5.0,-5.0,-55.0
127.0,128.0,123.0,125.0,128.0,131.0,127.0,128.0,73.0,127.0,-36.0,126.0,127.0,127.0,-5.0,-5.0,-55.0
128.0,128.0,123.0,125.0,128.0,131.0,127.0,128.0,73.0,127.0,-36.0,126.0,127.0,127.0,-5.0,-5.0,-55.0
128.0,128.0,123.0,125.0,128.0,131.0,127.0,128.0,73.0,127.0,-36.0,126.0,127.0,127.0,-5.0,-5.0,-55.0
128.0,128.0,123.0,125.0,128.0,131.0,127.0,128.0,73.0,127.0,-36.0,126.0,127.0,127.0,-5.0,-5.0,-55.0
127.0,128.0,123.0,125.0,127.0,131.0,127.0,127.0,73.0,127.0,-36.0,126.0,127.0,127.0,-5.0,-5.0,-55.0
127.0,128.0,123.0,125.0,127.0,131.0,127.0,127.0,73.0,127.0,-36.0,126.0,127.0,127.0,-5.0,-5.0,-55.0
127.0,128.0,123.0,125.0,127.0,131.0,127.0,127.0,73.0,127.0,-36.0,126.0,127.0,127.0,-5.0,-5.0,-55.0
127.0,128.0,123.0,125.0,127.0,131.0,127.0,127.0,73.0,127.0,-36.0,126.0,127.0,127.0,-5.0,-5.0,-55.0
127.0,128.0,123.0,125.0,127.0,131.0,127.0,127.0,73.0,127.0,-36.0,126.0,127.0,127.0,-5.0,-5.0,-55.0
127.0,128.0,123.0,125.0,127.0,131.0,127.0,126.0,73.0,127.0,-36.0,126.0,127.0,127.0,-5.0,-5.0,-55.0
127.0,128.0,123.0,125.0,127.0,131.0,127.0,127.0,73.0,127.0,-36.0,126.0,127.0,127.0,-5.0,-5.0,-55.0
127.0,128.0,122.0,125.0,127.0,131.0,127.0,127.0,73.0,127.0,-36.0,126.0,127.0,127.0,-5.0,-5.0,-55.0
127.0,128.0,123.0,125.0,127.0,131.0,127.0,127.0,73.0,127.0,-36.0,126.0,127.0,127.0,-5.0,-5.0,-55.0
127.0,128.0,123.0,125.0,127.0,131.0,127.0,127.0,73.0,127.0,-36.0,126.0,127.0,127.0,-5.0,-5.0,-55.0
127.0,128.0,122.0,126.0,128.0,132.0,127.0,128.0,73.0,127.0,-36.0,127.0,127.0,127.0,-5.0,-5.0,-55.0
127.0,128.0,122.0,126.0,127.0,132.0,127.0,128.0,73.0,127.0,-36.0,127.0,127.0,127.0,-5.0,-5.0,-55.0
127.0,128.0,122.0,126.0,128.0,131.0,127.0,128.0,73.0,127.0,-36.0,127.0,127.0,127.0,-5.0,-5.0,-55.0
127.0,128.0,122.0,126.0,127.0,131.0,127.0,128.0,73.0,127.0,-36.0,127.0,127.0,127.0,-5.0,-5.0,-55.0
127.0,128.0,122.0,126.0,127.0,131.0,127.0,128.0,73.0,127.0,-36.0,127.0,127.0,127.0,-5.0,-5.0,-55.0
127.0,128.0,122.0,126.0,127.0,132.0,127.0,128.0,73.0,127.0,-36.0,127.0,127.0,127.0,-5.0,-5.0,-55.0
127.0,128.0,122.0,126.0,127.0,132.0,127.0,128.0,73.0,127.0,-36.0,127.0,127.0,127.0,-5.0,-5.0,-55.0
127.0,128.0,122.0,126.0,127.0,132.0,127.0,128.0,73.0,127.0,-36.0,127.0,127.0,127.0,-5.0,-5.0,-55.0
127.0,128.0,121.0,126.0,127.0,132.0,127.0,128.0,73.0,127.0,-36.0,127.0,127.0,127.0,-5.0,-5.0,-55.0
127.0,128.0,122.0,126.0,128.0,132.0,127.0,128.0,73.0,127.0,-36.0,127.0,127.0,127.0,-5.0,-5.0,-55.0
127.0,128.0,123.0,126.0,127.0,131.0,127.0,128.0,73.0,127.0,-36.0,127.0,127.0,127.0,-5.0,-5.0,-55.0
127.0,128.0,122.0,126.0,127.0,131.0,127.0,128.0,73.0,127.0,-36.0,127.0,127.0,127.0,-5.0,-5.0,-55.0
127.0,128.0,122.0,126.0,127.0,131.0,127.0,128.0,73.0,127.0,-36.0,127.0,127.0,127.0,-5.0,-5.0,-55.0
127.0,128.0,122.0,126.0,127.0,131.0,127.0,128.0,73.0,127.0,-36.0,127.0,127.0,127.0,-5.0,-5.0,-55.0
127.0,128.0,122.0,126.0,127.0,131.0,127.0,128.0,73.0,127.0,-36.0,127.0,127.0,127.0,-5.0,-5.0,-55.0
127.0,128.0,122.0,126.0,127.0,131.0,127.0,128.0,73.0,127.0,-36.0,127.0,127.0,127.0,-5.0,-5.0,-55.0
127.0,128.0,122.0,126.0,127.0,131.0,127.0,128.0,73.0,127.0,-36.0,127.0,127.0,127.0,-5.0,-5.0,-55.0
127.0,128.0,123.0,126.0,127.0,131.0,127.0,128.0,73.0,127.0,-36.0,127.0,127.0,127.0,-5.0,-5.0,-55.0
127.0,128.0,123.0,126.0,127.0,131.0,127.0,128.0,73.0,127.0,-36.0,127.0,127.0,127.0,-5.0,-5.0,-55.0
127.0,128.0,123.0,126.0,127.0,131.0,127.0,128.0,73.0,127.0,-36.0,127.0,127.0,127.0,-5.0,-5.0,-55.0
127.0,128.0,124.0,125.0,127.0,131.0,127.0,129.0,74.0,127.0,-36.0,127.0,127.0,127.0,-5.0,-5.0,-55.0
127.0,128.0,124.0,125.0,127.0,131.0,127.0,129.0,74.0,127.0,-36.0,127.0,127.0,127.0,-5.0,-5.0,-55.0
127.0,128.0,124.0,126.0,127.0,131.0,127.0,129.0,74.0,127.0,-36.0,127.0,127.0,127.0,-5.0,-5.0,-55.0
127.0,128.0,124.0,125.0,127.0,131.0,127.0,129.0,74.0,127.0,-36.0,127.0,127.0,127.0,-5.0,-5.0,-55.0
127.0,127.0,125.0,125.0,127.0,131.0,127.0,129.0,74.0,127.0,-36.0,127.0,127.0,127.0,-5.0,-5.0,-55.0
127.0,127.0,125.0,125.0,127.0,131.0,127.0,129.0,74.0,127.0,-36.0,127.0,127.0,127.0,-5.0,-5.0,-55.0
127.0,128.0,124.0,125.0,127.0,131.0,127.0,129.0,74.0,127.0,-36.0,127.0,127.0,127.0,-5.0,-5.0,-55.0
127.0,128.0,124.0,125.0,127.0,131.0,127.0,129.0,74.0,127.0,-36.0,127.0,127.0,127.0,-5.0,-5.0,-55.0
127.0,128.0,124.0,125.0,127.0,131.0,127.0,129.0,74.0,127.0,-36.0,127.0,127.0,127.0,-5.0,-5.0,-55.0
127.0,128.0,124.0,125.0,127.0,131.0,127.0,129.0,74.0,127.0,-36.0,127.0,127.0,127.0,-5.0,-5.0,-55.0
127.0,128.0,126.0,126.0,127.0,126.0,127.0,128.0,71.0,127.0,-34.0,127.0,127.0,127.0,-5.0,-5.0,-55.0
127.0,128.0,126.0,126.0,127.0,126.0,127.0,128.0,71.0,127.0,-34.0,127.0,127.0,127.0,-5.0,-5.0,-55.0
127.0,128.0,127.0,126.0,127.0,126.0,127.0,128.0,71.0,127.0,-34.0,127.0,127.0,127.0,-5.0,-5.0,-55.0
127.0,128.0,126.0,126.0,127.0,126.0,127.0,128.0,71.0,127.0,-34.0,127.0,127.0,127.0,-5.0,-5.0,-55.0
127.0,128.0,126.0,126.0,127.0,126.0,127.0,128.0,71.0,127.0,-34.0,127.0,127.0,127.0,-5.0,-5.0,-55.0
127.0,128.0,126.0,126.0,127.0,126.0,127.0,128.0,71.0,127.0,-34.0,127.0,127.0,127.0,-5.0,-5.0,-55.0
127.0,128.0,126.0,126.0,127.0,126.0,127.0,128.0,71.0,127.0,-34.0,127.0,127.0,127.0,-5.0,-5.0,-55.0
127.0,128.0,126.0,126.0,127.0,126.0,127.0,128.0,71.0,127.0,-34.0,127.0,127.0,127.0,-5.0,-5.0,-55.0
127.0,128.0,126.0,126.0,127.0,126.0,127.0,128.0,71.0,127.0,-34.0,127.0,127.0,127.0,-5.0,-5.0,-55.0
127.0,128.0,126.0,126.0,127.0,126.0,127.0,128.0,71.0,127.0,-34.0,127.0,127.0,127.0,-5.0,-5.0,-55.0
127.0,128.0,126.0,126.0,127.0,128.0,127.0,128.0,71.0,-128.0,-34.0,127.0,127.0,127.0,-5.0,-5.0,-55.0
127.0,128.0,126.0,126.0,127.0,128.0,127.0,128.0,71.0,-128.0,-34.0,127.0,127.0,127.0,-5.0,-5.0,-55.0
127.0,129.0,126.0,126.0,127.0,128.0,127.0,128.0,71.0,-128.0,-34.0,127.0,127.0,127.0,-5.0,-5.0,-55.0
127.0,129.0,126.0,126.0,127.0,128.0,127.0,128.0,71.0,-128.0,-34.0,127.0,127.0,127.0,-5.0,-5.0,-55.0
127.0,128.0,126.0,126.0,127.0,128.0,127.0,128.0,71.0,-128.0,-34.0,127.0,127.0,127.0,-5.0,-5.0,-55.0
127.0,129.0,126.0,126.0,127.0,128.0,127.0,128.0,71.0,-128.0,-34.0,127.0,127.0,127.0,-5.0,-5.0,-55.0
127.0,129.0,126.0,126.0,127.0,128.0,127.0,128.0,71.0,-128.0,-34.0,127.0,127.0,127.0,-5.0,-5.0,-55.0
127.0,128.0,126.0,126.0,127.0,128.0,127.0,128.0,71.0,-128.0,-34.0,127.0,127.0,127.0,-5.0,-5.0,-55.0
127.0,128.0,126.0,126.0,127.0,128.0,127.0,128.0,71.0,-128.0,-34.0,127.0,127.0,127.0,-5.0,-5.0,-55.0
127.0,129.0,126.0,126.0,127.0,128.0,127.0,128.0,71.0,-128.0,-34.0,127.0,127.0,127.0,-5.0,-5.0,-55.0
126.0,127.0,129.0,126.0,126.0,129.0,127.0,128.0,70.0,-127.0,-34.0,127.0,127.0,127.0,-5.0,-5.0,-55.0
126.0,127.0,129.0,126.0,126.0,129.0,127.0,128.0,70.0,-127.0,-34.0,127.0,127.0,127.0,-5.0,-5.0,-55.0
126.0,127.0,129.0,126.0,126.0,129.0,127.0,128.0,70.0,-127.0,-34.0,127.0,127.0,127.0,-5.0,-5.0,-55.0
126.0,127.0,129.0,126.0,126.0,129.0,127.0,128.0,70.0,-127.0,-34.0,127.0,127.0,127.0,-5.0,-5.0,-55.0
126.0,127.0,129.0,126.0,126.0,129.0,127.0,128.0,70.0,-127.0,-34.0,127.0,127.0,127.0,-5.0,-5.0,-55.0
126.0,127.0,129.0,126.0,126.0,129.0,127.0,128.0,70.0,-127.0,-34.0,127.0,127.0,127.0,-5.0,-5.0,-55.0
126.0,127.0,129.0,126.0,126.0,129.0,127.0,128.0,70.0,-127.0,-34.0,127.0,127.0,127.0,-5.0,-5.0,-55.0
126.0,127.0,129.0,126.0,126.0,130.0,127.0,128.0,70.0,-127.0,-34.0,127.0,127.0,127.0,-5.0,-5.0,-55.0
126.0,127.0,129.0,126.0,126.0,130.0,127.0,128.0,70.0,-127.0,-34.0,127.0,127.0,127.0,-5.0,-5.0,-55.0
126.0,127.0,128.0,126.0,126.0,130.0,127.0,128.0,70.0,-127.0,-34.0,127.0,127.0,127.0,-5.0,-5.0,-55.0
126.0,127.0,126.0,126.0,126.0,134.0,127.0,128.0,69.0,-126.0,-35.0,127.0,127.0,127.0,-5.0,-5.0,-55.0
126.0,127.0,125.0,126.0,126.0,134.0,127.0,128.0,69.0,-126.0,-35.0,127.0,127.0,127.0,-5.0,-5.0,-55.0
126.0,127.0,126.0,126.0,126.0,134.0,127.0,128.0,69.0,-126.0,-35.0,127.0,127.0,127.0,-5.0,-5.0,-55.0
126.0,127.0,126.0,126.0,126.0,134.0,127.0,128.0,69.0,-126.0,-35.0,127.0,127.0,127.0,-5.0,-5.0,-55.0
126.0,127.0,126.0,126.0,126.0,134.0,127.0,128.0,69.0,-126.0,-35.0,127.0,127.0,127.0,-5.0,-5.0,-55.0
126.0,127.0,126.0,126.0,126.0,134.0,127.0,128.0,69.0,-126.0,-35.0,127.0,127.0,127.0,-5.0,-5.0,-55.0
126.0,127.0,126.0,126.0,126.0,134.0,127.0,128.0,69.0,-126.0,-35.0,127.0,127.0,127.0,-5.0,-5.0,-55.0
126.0,127.0,126.0,126.0,126.0,134.0,127.0,128.0,69.0,-126.0,-35.0,127.0,127.0,127.0,-5.0,-5.0,-55.0
126.0,127.0,126.0,126.0,126.0,134.0,127.0,128.0,69.0,-126.0,-35.0,127.0,127.0,127.0,-5.0,-5.0,-55.0
126.0,127.0,126.0,126.0,126.0,134.0,127.0,128.0,69.0,-126.0,-35.0,127.0,127.0,127.0,-5.0,-5.0,-55.0
126.0,127.0,126.0,126.0,126.0,134.0,127.0,129.0,69.0,-126.0,-35.0,127.0,127.0,127.0,-5.0,-5.0,-55.0
126.0,127.0,126.0,126.0,126.0,134.0,127.0,129.0,69.0,-126.0,-35.0,127.0,127.0,127.0,-5.0,-5.0,-55.0
127.0,127.0,126.0,126.0,126.0,134.0,127.0,129.0,69.0,-126.0,-35.0,127.0,127.0,127.0,-5.0,-5.0,-55.0
126.0,127.0,125.0,126.0,126.0,134.0,127.0,129.0,69.0,-126.0,-35.0,127.0,127.0,127.0,-5.0,-5.0,-55.0
127.0,127.0,125.0,126.0,126.0,134.0,127.0,129.0,69.0,-126.0,-35.0,127.0,127.0,127.0,-5.0,-5.0,-55.0
127.0,127.0,125.0,126.0,126.0,134.0,127.0,129.0,69.0,-126.0,-35.0,127.0,127.0,127.0,-5.0,-5.0,-55.0
127.0,127.0,125.0,126.0,126.0,134.0,127.0,129.0,69.0,-126.0,-35.0,127.0,127.0,127.0,-5.0,-5.0,-55.0
127.0,127.0,125.0,126.0,126.0,134.0,127.0,129.0,69.0,-126.0,-35.0,127.0,127.0,127.0,-5.0,-5.0,-55.0
126.0,127.0,125.0,126.0,126.0,134.0,127.0,129.0,69.0,-126.0,-35.0,127.0,127.0,127.0,-5.0,-5.0,-55.0
126.0,127.0,125.0,126.0,126.0,134.0,127.0,129.0,69.0,-126.0,-35.0,127.0,127.0,127.0,-5.0,-5.0,-55.0
127.0,127.0,125.0,126.0,126.0,133.0,127.0,129.0,69.0,-125.0,-35.0,127.0,127.0,127.0,-5.0,-5.0,-55.0
127.0,127.0,125.0,126.0,126.0,133.0,127.0,129.0,69.0,-125.0,-35.0,127.0,127.0,127.0,-5.0,-5.0,-55.0
127.0,127.0,124.0,126.0,126.0,133.0,126.0,128.0,69.0,-125.0,-35.0,127.0,127.0,127.0,-5.0,-5.0,-55.0
127.0,127.0,124.0,126.0,126.0,133.0,127.0,129.0,69.0,-125.0,-35.0,127.0,127.0,127.0,-5.0,-5.0,-55.0
127.0,127.0,125.0,126.0,126.0,133.0,127.0,129.0,69.0,-125.0,-35.0,127.0,127.0,127.0,-5.0,-5.0,-55.0
127.0,127.0,125.0,126.0,126.0,133.0,127.0,129.0,69.0,-125.0,-35.0,127.0,127.0,127.0,-5.0,-5.0,-55.0
127.0,127.0,125.0,126.0,126.0,133.0,127.0,129.0,69.0,-125.0,-35.0,127.0,127.0,127.0,-5.0,-5.0,-55.0
127.0,127.0,124.0,126.0,126.0,134.0,127.0,129.0,69.0,-125.0,-35.0,127.0,127.0,127.0,-5.0,-5.0,-55.0
127.0,127.0,124.0,126.0,126.0,133.0,127.0,129.0,69.0,-125.0,-35.0,127.0,127.0,127.0,-5.0,-5.0,-55.0
127.0,127.0,125.0,126.0,126.0,133.0,127.0,129.0,69.0,-125.0,-35.0,127.0,127.0,127.0,-5.0,-5.0,-55.0
127.0,127.0,126.0,126.0,127.0,133.0,126.0,128.0,69.0,-125.0,-35.0,127.0,127.0,127.0,-5.0,-5.0,-55.0
127.0,127.0,126.0,126.0,127.0,133.0,126.0,128.0,69.0,-125.0,-35.0,127.0,127.0,127.0,-5.0,-5.0,-55.0
127.0,127.0,126.0,126.0,127.0,133.0,126.0,128.0,69.0,-125.0,-35.0,127.0,127.0,127.0,-5.0,-5.0,-55.0
127.0,127.0,127.0,126.0,127.0,133.0,126.0,128.0,69.0,-125.0,-35.0,127.0,127.0,127.0,-5.0,-5.0,-55.0
127.0,127.0,127.0,126.0,127.0,132.0,127.0,128.0,69.0,-125.0,-35.0,127.0,127.0,127.0,-5.0,-5.0,-55.0
127.0,127.0,127.0,126.0,127.0,132.0,127.0,128.0,69.0,-125.0,-35.0,127.0,127.0,127.0,-5.0,-5.0,-55.0
127.0,127.0,126.0,125.0,127.0,132.0,126.0,128.0,69.0,-125.0,-35.0,127.0,127.0,127.0,-5.0,-5.0,-55.0
127.0,127.0,126.0,126.0,127.0,133.0,126.0,128.0,69.0,-125.0,-35.0,127.0,127.0,127.0,-5.0,-5.0,-55.0
127.0,127.0,126.0,126.0,127.0,133.0,126.0,128.0,69.0,-125.0,-35.0,127.0,127.0,127.0,-5.0,-5.0,-55.0
127.0,127.0,126.0,126.0,127.0,133.0,126.0,128.0,69.0,-125.0,-35.0,127.0,127.0,127.0,-5.0,-5.0,-55.0
127.0,127.0,127.0,126.0,127.0,132.0,126.0,128.0,69.0,-125.0,-34.0,127.0,127.0,127.0,-5.0,-5.0,-55.0
127.0,127.0,127.0,126.0,127.0,131.0,126.0,128.0,69.0,-125.0,-34.0,127.0,127.0,127.0,-5.0,-5.0,-55.0
127.0,127.0,127.0,126.0,127.0,131.0,126.0,128.0,69.0,-125.0,-34.0,127.0,127.0,127.0,-5.0,-5.0,-55.0
127.0,127.0,127.0,126.0,127.0,131.0,126.0,128.0,69.0,-125.0,-34.0,127.0,127.0,127.0,-5.0,-5.0,-55.0
127.0,127.0,127.0,126.0,127.0,131.0,127.0,128.0,69.0,-125.0,-34.0,127.0,127.0,127.0,-5.0,-5.0,-55.0
127.0,127.0,127.0,126.0,127.0,132.0,126.0,128.0,69.0,-125.0,-34.0,127.0,127.0,127.0,-5.0,-5.0,-55.0
127.0,127.0,127.0,126.0,127.0,132.0,126.0,128.0,69.0,-125.0,-34.0,127.0,127.0,127.0,-5.0,-5.0,-55.0
127.0,127.0,127.0,126.0,127.0,132.0,126.0,128.0,69.0,-125.0,-34.0,127.0,127.0,127.0,-5.0,-5.0,-55.0
127.0,127.0,127.0,126.0,127.0,132.0,126.0,128.0,69.0,-125.0,-34.0,127.0,127.0,127.0,-5.0,-5.0,-55.0
127.0,127.0,127.0,126.0,127.0,132.0,126.0,128.0,69.0,-125.0,-34.0,127.0,127.0,127.0,-5.0,-5.0,-55.0
127.0,126.0,129.0,126.0,126.0,130.0,126.0,128.0,70.0,-125.0,-35.0,127.0,127.0,127.0,-5.0,-5.0,-55.0
127.0,126.0,128.0,126.0,126.0,130.0,126.0,128.0,70.0,-125.0,-35.0,127.0,127.0,127.0,-5.0,-5.0,-55.0
127.0,126.0,128.0,126.0,126.0,131.0,126.0,128.0,70.0,-125.0,-35.0,127.0,127.0,127.0,-5.0,-5.0,-55.0
127.0,126.0,128.0,126.0,126.0,130.0,126.0,128.0,70.0,-125.0,-35.0,127.0,127.0,127.0,-5.0,-5.0,-55.0
127.0,126.0,128.0,126.0,126.0,131.0,126.0,128.0,70.0,-125.0,-35.0,127.0,127.0,127.0,-5.0,-5.0,-55.0
127.0,126.0,128.0,126.0,126.0,131.0,126.0,128.0,70.0,-125.0,-35.0,127.0,127.0,127.0,-5.0,-5.0,-55.0
127.0,126.0,128.0,126.0,126.0,130.0,126.0,128.0,70.0,-125.0,-35.0,127.0,127.0,127.0,-5.0,-5.0,-55.0
127.0,126.0,128.0,126.0,126.0,130.0,126.0,128.0,70.0,-125.0,-35.0,127.0,127.0,127.0,-5.0,-5.0,-55.0
127.0,126.0,128.0,126.0,126.0,130.0,126.0,128.0,70.0,-125.0,-35.0,127.0,127.0,127.0,-5.0,-5.0,-55.0
127.0,127.0,128.0,126.0,126.0,130.0,126.0,128.0,70.0,-125.0,-35.0,127.0,127.0,127.0,-5.0,-5.0,-55.0
127.0,128.0,125.0,126.0,127.0,132.0,126.0,128.0,70.0,-125.0,-36.0,127.0,127.0,127.0,-5.0,-5.0,-55.0
127.0,128.0,125.0,126.0,127.0,132.0,126.0,128.0,70.0,-125.0,-36.0,127.0,127.0,127.0,-5.0,-5.0,-55.0
127.0,128.0,125.0,126.0,127.0,131.0,126.0,128.0,70.0,-125.0,-36.0,127.0,127.0,127.0,-5.0,-5.0,-55.0
127.0,128.0,125.0,126.0,127.0,131.0,126.0,128.0,70.0,-125.0,-36.0,127.0,127.0,127.0,-5.0,-5.0,-55.0
127.0,128.0,125.0,126.0,127.0,131.0,126.0,128.0,70.0,-125.0,-36.0,127.0,127.0,127.0,-5.0,-5.0,-55.0
127.0,127.0,125.0,126.0,127.0,131.0,126.0,128.0,70.0,-125.0,-36.0,127.0,127.0,127.0,-5.0,-5.0,-55.0
127.0,127.0,126.0,126.0,127.0,131.0,126.0,128.0,70.0,-125.0,-36.0,127.0,127.0,127.0,-5.0,-5.0,-55.0
127.0,127.0,126.0,126.0,127.0,131.0,126.0,128.0,70.0,-125.0,-36.0,127.0,127.0,127.0,-5.0,-5.0,-55.0
127.0,127.0,126.0,126.0,127.0,131.0,126.0,128.0,70.0,-125.0,-36.0,127.0,127.0,127.0,-5.0,-5.0,-55.0
127.0,128.0,125.0,126.0,127.0,132.0,126.0,128.0,70.0,-125.0,-36.0,127.0,127.0,127.0,-5.0,-5.0,-55.0
127.0,128.0,124.0,126.0,127.0,132.0,126.0,128.0,70.0,-125.0,-36.0,127.0,127.0,127.0,-5.0,-5.0,-55.0
127.0,128.0,124.0,126.0,127.0,132.0,126.0,128.0,70.0,-125.0,-36.0,127.0,127.0,127.0,-5.0,-5.0,-55.0
127.0,128.0,124.0,126.0,127.0,132.0,126.0,128.0,70.0,-125.0,-36.0,127.0,127.0,127.0,-5.0,-5.0,-55.0
127.0,128.0,124.0,126.0,127.0,132.0,126.0,128.0,70.0,-125.0,-36.0,127.0,127.0,127.0,-5.0,-5.0,-55.0
127.0,128.0,124.0,126.0,127.0,132.0,127.0,128.0,70.0,-125.0,-36.0,127.0,127.0,127.0,-5.0,-5.0,-55.0
127.0,127.0,125.0,126.0,127.0,132.0,127.0,128.0,70.0,-125.0,-36.0,127.0,127.0,127.0,-5.0,-5.0,-55.0
127.0,127.0,125.0,126.0,127.0,132.0,127.0,128.0,70.0,-125.0,-36.0,127.0,127.0,127.0,-5.0,-5.0,-55.0
127.0,127.0,125.0,126.0,127.0,131.0,127.0,128.0,70.0,-125.0,-36.0,127.0,127.0,127.0,-5.0,-5.0,-55.0
127.0,128.0,124.0,126.0,127.0,132.0,126.0,128.0,70.0,-125.0,-36.0,127.0,127.0,127.0,-5.0,-5.0,-55.0
127.0,128.0,124.0,126.0,127.0,132.0,126.0,128.0,70.0,-125.0,-36.0,127.0,127.0,127.0,-5.0,-5.0,-55.0
127.0,127.0,125.0,127.0,127.0,131.0,127.0,128.0,70.0,-126.0,-37.0,127.0,127.0,127.0,-5.0,-5.0,-55.0
127.0,127.0,125.0,127.0,127.0,131.0,127.0,128.0,70.0,-126.0,-37.0,127.0,127.0,127.0,-5.0,-5.0,-55.0
127.0,127.0,125.0,127.0,127.0,131.0,127.0,128.0,70.0,-126.0,-37.0,127.0,127.0,127.0,-5.0,-5.0,-55.0
127.0,127.0,125.0,127.0,127.0,131.0,127.0,128.0,70.0,-126.0,-37.0,127.0,127.0,127.0,-5.0,-5.0,-55.0
127.0,127.0,125.0,127.0,127.0,131.0,127.0,128.0,70.0,-126.0,-37.0,127.0,127.0,127.0,-5.0,-5.0,-55.0
127.0,127.0,125.0,127.0,127.0,131.0,127.0,128.0,70.0,-126.0,-37.0,127.0,127.0,127.0,-5.0,-5.0,-55.0
127.0,127.0,125.0,127.0,127.0,131.0,127.0,128.0,70.0,-126.0,-37.0,127.0,127.0,127.0,-5.0,-5.0,-55.0
127.0,127.0,125.0,126.0,127.0,131.0,127.0,128.0,70.0,-126.0,-37.0,127.0,127.0,127.0,-5.0,-5.0,-55.0
127.0,127.0,125.0,127.0,127.0,131.0,127.0,128.0,70.0,-126.0,-37.0,127.0,127.0,127.0,-5.0,-5.0,-55.0
127.0,127.0,125.0,127.0,127.0,131.0,127.0,128.0,70.0,-126.0,-37.0,127.0,127.0,127.0,-5.0,-5.0,-55.0
127.0,127.0,125.0,126.0,127.0,131.0,126.0,128.0,70.0,-126.0,-37.0,126.0,127.0,127.0,-5.0,-5.0,-55.0
127.0,128.0,125.0,126.0,127.0,131.0,126.0,128.0,70.0,-126.0,-37.0,126.0,127.0,127.0,-5.0,-5.0,-55.0
127.0,127.0,125.0,126.0,127.0,131.0,126.0,128.0,70.0,-126.0,-37.0,126.0,127.0,127.0,-5.0,-5.0,-55.0
127.0,128.0,124.0,126.0,127.0,131.0,126.0,128.0,70.0,-126.0,-37.0,126.0,127.0,127.0,-5.0,-5.0,-55.0
127.0,128.0,124.0,126.0,127.0,131.0,126.0,128.0,70.0,-126.0,-37.0,126.0,127.0,127.0,-5.0,-5.0,-55.0
127.0,128.0,124.0,126.0,127.0,131.0,126.0,128.0,70.0,-126.0,-37.0,126.0,127.0,127.0,-5.0,-5.0,-55.0
127.0,127.0,125.0,126.0,127.0,131.0,126.0,128.0,70.0,-126.0,-37.0,126.0,127.0,127.0,-5.0,-5.0,-55.0
127.0,127.0,125.0,126.0,127.0,131.0,126.0,128.0,70.0,-126.0,-37.0,126.0,127.0,127.0,-5.0,-5.0,-55.0
127.0,128.0,125.0,126.0,127.0,131.0,126.0,128.0,70.0,-126.0,-37.0,126.0,127.0,127.0,-5.0,-5.0,-55.0
127.0,128.0,125.0,126.0,127.0,131.0,126.0,128.0,70.0,-126.0,-37.0,126.0,127.0,127.0,-5.0,-5.0,-55.0
127.0,128.0,124.0,126.0,127.0,131.0,127.0,128.0,69.0,-126.0,-37.0,126.0,127.0,127.0,-5.0,-5.0,-55.0
127.0,128.0,124.0,126.0,127.0,131.0,127.0,128.0,69.0,-126.0,-37.0,126.0,127.0,127.0,-5.0,-5.0,-55.0
127.0,128.0,125.0,126.0,127.0,131.0,127.0,128.0,69.0,-126.0,-37.0,126.0,127.0,127.0,-5.0,-5.0,-55.0
127.0,128.0,125.0,126.0,127.0,131.0,127.0,128.0,69.0,-126.0,-37.0,126.0,127.0,127.0,-5.0,-5.0,-55.0
127.0,128.0,125.0,126.0,127.0,131.0,127.0,128.0,69.0,-126.0,-37.0,126.0,127.0,127.0,-5.0,-5.0,-55.0
127.0,128.0,125.0,126.0,127.0,131.0,127.0,128.0,69.0,-126.0,-37.0,126.0,127.0,127.0,-5.0,-5.0,-55.0
127.0,128.0,125.0,126.0,127.0,131.0,127.0,128.0,69.0,-126.0,-37.0,126.0,127.0,127.0,-5.0,-5.0,-55.0
127.0,128.0,125.0,126.0,127.0,131.0,127.0,128.0,69.0,-126.0,-37.0,126.0,127.0,127.0,-5.0,-5.0,-55.0
127.0,128.0,125.0,126.0,127.0,131.0,127.0,128.0,69.0,-126.0,-37.0,126.0,127.0,127.0,-5.0,-5.0,-55.0
127.0,128.0,124.0,126.0,127.0,131.0,127.0,128.0,69.0,-126.0,-37.0,126.0,127.0,127.0,-5.0,-5.0,-55.0
126.0,127.0,125.0,126.0,127.0,130.0,126.0,128.0,69.0,-127.0,-37.0,126.0,127.0,127.0,-5.0,-5.0,-55.0
127.0,127.0,125.0,126.0,127.0,130.0,126.0,127.0,69.0,-127.0,-37.0,126.0,127.0,127.0,-5.0,-5.0,-55.0
127.0,127.0,125.0,126.0,127.0,130.0,126.0,128.0,69.0,-127.0,-37.0,126.0,127.0,127.0,-5.0,-5.0,-55.0
127.0,127.0,125.0,126.0,127.0,130.0,126.0,127.0,69.0,-127.0,-37.0,126.0,127.0,127.0,-5.0,-5.0,-55.0
126.0,128.0,125.0,126.0,127.0,131.0,126.0,128.0,69.0,-127.0,-37.0,126.0,127.0,127.0,-5.0,-5.0,-55.0
126.0,128.0,125.0,126.0,127.0,131.0,126.0,128.0,69.0,-127.0,-37.0,126.0,127.0,127.0,-5.0,-5.0,-55.0
126.0,128.0,125.0,126.0,127.0,130.0,126.0,128.0,69.0,-127.0,-37.0,126.0,127.0,127.0,-5.0,-5.0,-55.0
126.0,128.0,125.0,126.0,127.0,130.0,126.0,128.0,69.0,-127.0,-37.0,126.0,127.0,127.0,-5.0,-5.0,-55.0
126.0,127.0,125.0,126.0,127.0,130.0,126.0,128.0,69.0,-127.0,-37.0,126.0,127.0,127.0,-5.0,-5.0,-55.0
126.0,127.0,125.0,126.0,127.0,130.0,126.0,128.0,69.0,-127.0,-37.0,126.0,127.0,127.0,-5.0,-5.0,-55.0
127.0,127.0,123.0,126.0,127.0,130.0,126.0,127.0,69.0,-128.0,-37.0,127.0,127.0,127.0,-5.0,-5.0,-55.0
127.0,127.0,123.0,126.0,127.0,130.0,126.0,127.0,69.0,-128.0,-37.0,127.0,127.0,127.0,-5.0,-5.0,-55.0
126.0,127.0,123.0,126.0,127.0,130.0,126.0,128.0,69.0,-128.0,-37.0,127.0,127.0,127.0,-5.0,-5.0,-55.0
127.0,127.0,123.0,126.0,127.0,131.0,126.0,128.0,69.0,-128.0,-37.0,127.0,127.0,127.0,-5.0,-5.0,-55.0
127.0,127.0,123.0,126.0,127.0,130.0,126.0,127.0,69.0,-128.0,-37.0,127.0,127.0,127.0,-5.0,-5.0,-55.0
127.0,127.0,123.0,126.0,127.0,130.0,126.0,127.0,69.0,-128.0,-37.0,127.0,127.0,127.0,-5.0,-5.0,-55.0
127.0,127.0,123.0,126.0,127.0,130.0,126.0,127.0,69.0,-128.0,-37.0,127.0,127.0,127.0,-5.0,-5.0,-55.0
127.0,127.0,123.0,126.0,127.0,130.0,126.0,127.0,69.0,-128.0,-37.0,127.0,127.0,127.0,-5.0,-5.0,-55.0
127.0,127.0,123.0,126.0,127.0,130.0,126.0,127.0,69.0,-128.0,-37.0,127.0,127.0,127.0,-5.0,-5.0,-55.0
127.0,127.0,123.0,126.0,127.0,130.0,126.0,127.0,69.0,-128.0,-37.0,127.0,127.0,127.0,-5.0,-5.0,-55.0
127.0,128.0,121.0,126.0,128.0,130.0,126.0,128.0,69.0,-128.0,-37.0,127.0,127.0,127.0,-5.0,-5.0,-55.0
127.0,128.0,121.0,126.0,127.0,130.0,126.0,128.0,69.0,-128.0,-37.0,127.0,127.0,127.0,-5.0,-5.0,-55.0
127.0,128.0,121.0,126.0,127.0,130.0,126.0,128.0,69.0,-128.0,-37.0,127.0,127.0,127.0,-5.0,-5.0,-55.0
127.0,127.0,121.0,126.0,128.0,130.0,126.0,128.0,69.0,-128.0,-37.0,127.0,127.0,127.0,-5.0,-5.0,-55.0
127.0,128.0,121.0,126.0,128.0,131.0,126.0,128.0,69.0,-128.0,-37.0,127.0,127.0,127.0,-5.0,-5.0,-55.0
127.0,128.0,121.0,126.0,128.0,130.0,126.0,128.0,69.0,-128.0,-37.0,127.0,127.0,127.0,-5.0,-5.0,-55.0
127.0,128.0,121.0,126.0,127.0,130.0,126.0,128.0,69.0,-128.0,-37.0,127.0,127.0,127.0,-5.0,-5.0,-55.0
127.0,127.0,121.0,126.0,128.0,130.0,126.0,128.0,69.0,-128.0,-37.0,127.0,127.0,127.0,-5.0,-5.0,-55.0
127.0,127.0,121.0,126.0,127.0,130.0,126.0,128.0,69.0,-128.0,-37.0,127.0,127.0,127.0,-5.0,-5.0,-55.0
127.0,127.0,122.0,126.0,127.0,130.0,126.0,128.0,69.0,-128.0,-37.0,127.0,127.0,127.0,-5.0,-5.0,-55.0
127.0,127.0,127.0,126.0,127.0,130.0,127.0,128.0,70.0,-128.0,-37.0,127.0,127.0,127.0,-5.0,-5.0,-55.0
127.0,128.0,125.0,126.0,127.0,130.0,126.0,128.0,70.0,-128.0,-37.0,127.0,127.0,127.0,-5.0,-5.0,-55.0
127.0,127.0,126.0,126.0,127.0,130.0,126.0,128.0,70.0,-128.0,-37.0,127.0,127.0,127.0,-5.0,-5.0,-55.0
127.0,127.0,126.0,126.0,127.0,130.0,126.0,128.0,70.0,-128.0,-37.0,127.0,127.0,127.0,-5.0,-5.0,-55.0
127.0,127.0,126.0,126.0,127.0,130.0,126.0,128.0,70.0,-128.0,-37.0,127.0,127.0,127.0,-5.0,-5.0,-55.0
127.0,127.0,126.0,126.0,127.0,130.0,126.0,128.0,70.0,-128.0,-37.0,127.0,127.0,127.0,-5.0,-5.0,-55.0
127.0,128.0,126.0,126.0,127.0,130.0,126.0,128.0,70.0,-128.0,-37.0,127.0,127.0,127.0,-5.0,-5.0,-55.0
127.0,128.0,126.0,126.0,127.0,130.0,126.0,128.0,70.0,-128.0,-37.0,127.0,127.0,127.0,-5.0,-5.0,-55.0
127.0,127.0,126.0,126.0,127.0,130.0,126.0,128.0,70.0,-128.0,-37.0,127.0,127.0,127.0,-5.0,-5.0,-55.0
127.0,127.0,126.0,126.0,127.0,130.0,126.0,128.0,70.0,-128.0,-37.0,127.0,127.0,127.0,-5.0,-5.0,-55.0
127.0,127.0,127.0,126.0,126.0,129.0,126.0,128.0,69.0,-128.0,-36.0,127.0,127.0,127.0,-5.0,-5.0,-55.0
127.0,127.0,127.0,126.0,126.0,129.0,126.0,128.0,69.0,-128.0,-36.0,127.0,127.0,127.0,-5.0,-5.0,-55.0
127.0,127.0,127.0,126.0,126.0,129.0,126.0,128.0,69.0,-128.0,-36.0,127.0,127.0,127.0,-5.0,-5.0,-55.0
127.0,127.0,127.0,126.0,126.0,129.0,126.0,128.0,69.0,-128.0,-36.0,127.0,127.0,127.0,-5.0,-5.0,-55.0
127.0,127.0,127.0,126.0,126.0,129.0,126.0,128.0,69.0,-128.0,-36.0,127.0,127.0,127.0,-5.0,-5.0,-55.0
127.0,127.0,127.0,126.0,126.0,129.0,126.0,127.0,69.0,-128.0,-36.0,127.0,127.0,127.0,-5.0,-5.0,-55.0
127.0,127.0,127.0,126.0,126.0,129.0,126.0,128.0,69.0,-128.0,-36.0,127.0,127.0,127.0,-5.0,-5.0,-55.0
127.0,127.0,127.0,126.0,126.0,129.0,126.0,128.0,69.0,-128.0,-36.0,127.0,127.0,127.0,-5.0,-5.0,-55.0
127.0,127.0,127.0,126.0,126.0,129.0,126.0,128.0,69.0,-128.0,-36.0,127.0,127.0,127.0,-5.0,-5.0,-55.0
127.0,127.0,127.0,126.0,126.0,129.0,126.0,128.0,69.0,-128.0,-36.0,127.0,127.0,127.0,-5.0,-5.0,-55.0
127.0,127.0,125.0,126.0,127.0,130.0,126.0,127.0,69.0,-128.0,-35.0,127.0,127.0,127.0,-5.0,-5.0,-55.0
127.0,127.0,125.0,126.0,127.0,130.0,126.0,127.0,69.0,-128.0,-35.0,127.0,127.0,127.0,-5.0,-5.0,-55.0
127.0,126.0,125.0,126.0,127.0,130.0,126.0,127.0,69.0,-128.0,-35.0,127.0,127.0,127.0,-5.0,-5.0,-55.0
127.0,127.0,125.0,126.0,127.0,130.0,126.0,127.0,69.0,-128.0,-35.0,127.0,127.0,127.0,-5.0,-5.0,-55.0
127.0,127.0,124.0,126.0,127.0,130.0,126.0,127.0,69.0,-128.0,-35.0,127.0,127.0,127.0,-5.0,-5.0,-55.0
127.0,127.0,123.0,126.0,127.0,131.0,126.0,127.0,69.0,-128.0,-35.0,127.0,127.0,127.0,-5.0,-5.0,-55.0
127.0,127.0,123.0,126.0,127.0,131.0,126.0,127.0,69.0,-128.0,-35.0,127.0,127.0,127.0,-5.0,-5.0,-55.0
127.0,127.0,123.0,126.0,127.0,131.0,126.0,127.0,69.0,-128.0,-35.0,127.0,127.0,127.0,-5.0,-5.0,-55.0
127.0,127.0,122.0,126.0,127.0,131.0,126.0,127.0,69.0,-128.0,-35.0,127.0,127.0,127.0,-5.0,-5.0,-55.0
127.0,127.0,126.0,126.0,126.0,130.0,126.0,127.0,69.0,-128.0,-35.0,127.0,127.0,127.0,-5.0,-5.0,-55.0
127.0,127.0,112.0,126.0,127.0,132.0,126.0,128.0,69.0,-128.0,-35.0,127.0,127.0,127.0,-5.0,-5.0,-55.0
127.0,127.0,112.0,126.0,127.0,132.0,126.0,128.0,69.0,-128.0,-35.0,127.0,127.0,127.0,-5.0,-5.0,-55.0
127.0,127.0,112.0,126.0,127.0,132.0,127.0,128.0,69.0,-128.0,-35.0,127.0,127.0,127.0,-5.0,-5.0,-55.0
127.0,127.0,112.0,126.0,127.0,132.0,127.0,128.0,69.0,-128.0,-35.0,127.0,127.0,127.0,-5.0,-5.0,-55.0
127.0,127.0,112.0,126.0,127.0,132.0,127.0,128.0,69.0,-128.0,-35.0,127.0,127.0,127.0,-5.0,-5.0,-55.0
127.0,127.0,112.0,126.0,127.0,132.0,127.0,128.0,69.0,-128.0,-35.0,127.0,127.0,127.0,-5.0,-5.0,-55.0
127.0,127.0,112.0,126.0,127.0,132.0,127.0,128.0,69.0,-128.0,-35.0,127.0,127.0,127.0,-5.0,-5.0,-55.0
127.0,127.0,112.0,126.0,127.0,132.0,127.0,128.0,69.0,-128.0,-35.0,127.0,127.0,127.0,-5.0,-5.0,-55.0
127.0,127.0,112.0,126.0,127.0,132.0,126.0,128.0,69.0,-128.0,-35.0,127.0,127.0,127.0,-5.0,-5.0,-55.0
127.0,127.0,112.0,126.0,127.0,132.0,127.0,128.0,69.0,-128.0,-35.0,127.0,127.0,127.0,-5.0,-5.0,-55.0
127.0,127.0,114.0,126.0,127.0,133.0,127.0,128.0,69.0,-128.0,-35.0,127.0,127.0,127.0,-5.0,-5.0,-55.0
127.0,127.0,114.0,126.0,127.0,133.0,127.0,128.0,69.0,-128.0,-35.0,127.0,127.0,127.0,-5.0,-5.0,-55.0
127.0,127.0,115.0,126.0,127.0,133.0,127.0,128.0,69.0,-128.0,-35.0,127.0,127.0,127.0,-5.0,-5.0,-55.0
127.0,127.0,116.0,126.0,127.0,133.0,127.0,128.0,69.0,-128.0,-35.0,127.0,127.0,127.0,-5.0,-5.0,-55.0
127.0,127.0,116.0,126.0,127.0,133.0,127.0,128.0,69.0,-128.0,-35.0,127.0,127.0,127.0,-5.0,-5.0,-55.0
127.0,127.0,117.0,126.0,127.0,133.0,127.0,128.0,69.0,-128.0,-35.0,127.0,127.0,127.0,-5.0,-5.0,-55.0
127.0,127.0,117.0,126.0,127.0,133.0,127.0,128.0,69.0,-128.0,-35.0,127.0,127.0,127.0,-5.0,-5.0,-55.0
127.0,127.0,114.0,126.0,127.0,133.0,127.0,128.0,69.0,-128.0,-35.0,127.0,127.0,127.0,-5.0,-5.0,-55.0
127.0,127.0,114.0,126.0,127.0,133.0,127.0,128.0,69.0,-128.0,-35.0,127.0,127.0,127.0,-5.0,-5.0,-55.0
127.0,127.0,114.0,126.0,127.0,133.0,127.0,128.0,69.0,-128.0,-35.0,127.0,127.0,127.0,-5.0,-5.0,-55.0
127.0,127.0,133.0,126.0,126.0,130.0,125.0,128.0,70.0,-128.0,-35.0,127.0,127.0,127.0,-5.0,-5.0,-55.0
127.0,126.0,134.0,126.0,125.0,130.0,126.0,128.0,70.0,-128.0,-35.0,127.0,127.0,127.0,-5.0,-5.0,-55.0
127.0,126.0,134.0,126.0,125.0,130.0,126.0,128.0,70.0,-128.0,-35.0,127.0,127.0,127.0,-5.0,-5.0,-55.0
127.0,126.0,134.0,126.0,125.0,130.0,126.0,128.0,70.0,-128.0,-35.0,127.0,127.0,127.0,-5.0,-5.0,-55.0
127.0,126.0,135.0,126.0,125.0,129.0,126.0,128.0,70.0,-128.0,-35.0,127.0,127.0,127.0,-5.0,-5.0,-55.0
127.0,126.0,134.0,126.0,125.0,129.0,125.0,128.0,70.0,-128.0,-35.0,127.0,127.0,127.0,-5.0,-5.0,-55.0
127.0,126.0,133.0,126.0,126.0,130.0,126.0,128.0,70.0,-128.0,-35.0,127.0,127.0,127.0,-5.0,-5.0,-55.0
127.0,126.0,133.0,126.0,126.0,130.0,126.0,128.0,70.0,-128.0,-35.0,127.0,127.0,127.0,-5.0,-5.0,-55.0
127.0,126.0,133.0,126.0,126.0,130.0,126.0,128.0,70.0,-128.0,-35.0,127.0,127.0,127.0,-5.0,-5.0,-55.0
127.0,127.0,133.0,126.0,126.0,130.0,125.0,128.0,70.0,-128.0,-35.0,127.0,127.0,127.0,-5.0,-5.0,-55.0
126.0,126.0,140.0,126.0,125.0,127.0,124.0,128.0,70.0,-128.0,-35.0,127.0,127.0,127.0,-5.0,-5.0,-55.0
126.0,127.0,140.0,126.0,125.0,127.0,123.0,128.0,70.0,-128.0,-35.0,127.0,127.0,127.0,-5.0,-5.0,-55.0
127.0,127.0,140.0,126.0,125.0,128.0,123.0,128.0,70.0,-128.0,-35.0,127.0,127.0,127.0,-5.0,-5.0,-55.0
127.0,127.0,140.0,126.0,125.0,128.0,123.0,128.0,70.0,-128.0,-35.0,127.0,127.0,127.0,-5.0,-5.0,-55.0
127.0,127.0,140.0,126.0,125.0,127.0,124.0,128.0,70.0,-128.0,-35.0,127.0,127.0,127.0,-5.0,-5.0,-55.0
126.0,127.0,140.0,126.0,125.0,128.0,123.0,128.0,70.0,-128.0,-35.0,127.0,127.0,127.0,-5.0,-5.0,-55.0
126.0,126.0,140.0,126.0,125.0,128.0,124.0,128.0,70.0,-128.0,-35.0,127.0,127.0,127.0,-5.0,-5.0,-55.0
127.0,126.0,140.0,126.0,125.0,128.0,124.0,128.0,70.0,-128.0,-35.0,127.0,127.0,127.0,-5.0,-5.0,-55.0
127.0,126.0,140.0,126.0,125.0,127.0,124.0,128.0,70.0,-128.0,-35.0,127.0,127.0,127.0,-5.0,-5.0,-55.0
127.0,126.0,140.0,126.0,125.0,127.0,124.0,128.0,70.0,-128.0,-35.0,127.0,127.0,127.0,-5.0,-5.0,-55.0
127.0,127.0,133.0,126.0,127.0,129.0,125.0,128.0,71.0,127.0,-35.0,127.0,127.0,127.0,-5.0,-5.0,-55.0
127.0,127.0,133.0,126.0,127.0,129.0,125.0,128.0,71.0,127.0,-35.0,127.0,127.0,127.0,-5.0,-5.0,-55.0
127.0,127.0,133.0,126.0,127.0,129.0,125.0,128.0,71.0,127.0,-35.0,127.0,127.0,127.0,-5.0,-5.0,-55.0
127.0,127.0,133.0,126.0,126.0,129.0,125.0,128.0,71.0,127.0,-35.0,127.0,127.0,127.0,-5.0,-5.0,-55.0
127.0,127.0,134.0,126.0,126.0,128.0,124.0,128.0,71.0,127.0,-35.0,127.0,127.0,127.0,-5.0,-5.0,-55.0
127.0,127.0,134.0,126.0,126.0,128.0,124.0,128.0,71.0,127.0,-35.0,127.0,127.0,127.0,-5.0,-5.0,-55.0
127.0,127.0,134.0,126.0,126.0,128.0,124.0,128.0,71.0,127.0,-35.0,127.0,127.0,127.0,-5.0,-5.0,-55.0
127.0,127.0,134.0,126.0,126.0,129.0,124.0,128.0,71.0,127.0,-35.0,127.0,127.0,127.0,-5.0,-5.0,-55.0
127.0,127.0,133.0,126.0,127.0,129.0,125.0,128.0,71.0,127.0,-35.0,127.0,127.0,127.0,-5.0,-5.0,-55.0
127.0,127.0,133.0,126.0,127.0,129.0,125.0,128.0,71.0,127.0,-35.0,127.0,127.0,127.0,-5.0,-5.0,-55.0
127.0,127.0,132.0,126.0,127.0,130.0,128.0,127.0,71.0,127.0,-35.0,127.0,127.0,127.0,-5.0,-5.0,-55.0
127.0,128.0,132.0,126.0,127.0,130.0,128.0,127.0,71.0,127.0,-35.0,127.0,127.0,127.0,-5.0,-5.0,-55.0
127.0,127.0,132.0,126.0,126.0,130.0,128.0,127.0,71.0,127.0,-35.0,127.0,127.0,127.0,-5.0,-5.0,-55.0
127.0,127.0,132.0,126.0,127.0,130.0,128.0,127.0,71.0,127.0,-35.0,127.0,127.0,127.0,-5.0,-5.0,-55.0
127.0,127.0,132.0,126.0,127.0,130.0,128.0,127.0,71.0,127.0,-35.0,127.0,127.0,127.0,-5.0,-5.0,-55.0
127.0,127.0,132.0,126.0,126.0,130.0,128.0,127.0,71.0,127.0,-35.0,127.0,127.0,127.0,-5.0,-5.0,-55.0
127.0,127.0,132.0,126.0,126.0,130.0,128.0,127.0,71.0,127.0,-35.0,127.0,127.0,127.0,-5.0,-5.0,-55.0
127.0,127.0,132.0,126.0,126.0,130.0,128.0,127.0,71.0,127.0,-35.0,127.0,127.0,127.0,-5.0,-5.0,-55.0
127.0,127.0,132.0,126.0,126.0,130.0,128.0,128.0,71.0,127.0,-35.0,127.0,127.0,127.0,-5.0,-5.0,-55.0
127.0,127.0,132.0,126.0,126.0,130.0,128.0,127.0,71.0,127.0,-35.0,127.0,127.0,127.0,-5.0,-5.0,-55.0
127.0,127.0,133.0,126.0,127.0,130.0,128.0,127.0,71.0,127.0,-35.0,127.0,127.0,127.0,-5.0,-5.0,-55.0
127.0,127.0,133.0,126.0,127.0,130.0,128.0,127.0,71.0,127.0,-35.0,127.0,127.0,127.0,-5.0,-5.0,-55.0
127.0,127.0,133.0,126.0,126.0,130.0,128.0,127.0,71.0,127.0,-35.0,127.0,127.0,127.0,-5.0,-5.0,-55.0
127.0,127.0,133.0,126.0,126.0,130.0,128.0,127.0,71.0,127.0,-35.0,127.0,127.0,127.0,-5.0,-5.0,-55.0
127.0,127.0,133.0,126.0,126.0,130.0,128.0,127.0,71.0,127.0,-35.0,127.0,127.0,127.0,-5.0,-5.0,-55.0
127.0,127.0,133.0,126.0,126.0,130.0,128.0,127.0,71.0,127.0,-35.0,127.0,127.0,127.0,-5.0,-5.0,-55.0
127.0,127.0,133.0,126.0,127.0,130.0,128.0,127.0,71.0,127.0,-35.0,127.0,127.0,127.0,-5.0,-5.0,-55.0
127.0,127.0,133.0,126.0,127.0,130.0,128.0,127.0,71.0,127.0,-35.0,127.0,127.0,127.0,-5.0,-5.0,-55.0
127.0,127.0,133.0,126.0,127.0,130.0,128.0,127.0,71.0,127.0,-35.0,127.0,127.0,127.0,-5.0,-5.0,-55.0
127.0,127.0,133.0,126.0,127.0,130.0,128.0,127.0,71.0,127.0,-35.0,127.0,127.0,127.0,-5.0,-5.0,-55.0
126.0,128.0,128.0,126.0,127.0,131.0,127.0,128.0,71.0,127.0,-35.0,127.0,127.0,127.0,-5.0,-5.0,-55.0
126.0,128.0,128.0,126.0,127.0,131.0,127.0,127.0,71.0,127.0,-35.0,127.0,127.0,127.0,-5.0,-5.0,-55.0
126.0,128.0,128.0,126.0,127.0,131.0,127.0,127.0,71.0,127.0,-35.0,127.0,127.0,127.0,-5.0,-5.0,-55.0
126.0,128.0,128.0,126.0,127.0,131.0,127.0,127.0,71.0,127.0,-35.0,127.0,127.0,127.0,-5.0,-5.0,-55.0
126.0,128.0,128.0,126.0,127.0,131.0,127.0,127.0,71.0,127.0,-35.0,127.0,127.0,127.0,-5.0,-5.0,-55.0
126.0,128.0,128.0,126.0,127.0,131.0,127.0,127.0,71.0,127.0,-35.0,127.0,127.0,127.0,-5.0,-5.0,-55.0
126.0,128.0,128.0,126.0,127.0,131.0,127.0,128.0,71.0,127.0,-35.0,127.0,127.0,127.0,-5.0,-5.0,-55.0
126.0,128.0,128.0,126.0,127.0,131.0,127.0,127.0,71.0,127.0,-35.0,127.0,127.0,127.0,-5.0,-5.0,-55.0
126.0,128.0,128.0,126.0,127.0,131.0,127.0,128.0,71.0,127.0,-35.0,127.0,127.0,127.0,-5.0,-5.0,-55.0
126.0,128.0,128.0,126.0,127.0,131.0,127.0,128.0,71.0,127.0,-35.0,127.0,127.0,127.0,-5.0,-5.0,-55.0
126.0,127.0,128.0,126.0,127.0,130.0,127.0,128.0,71.0,126.0,-36.0,127.0,127.0,127.0,-5.0,-5.0,-55.0
126.0,127.0,128.0,126.0,127.0,130.0,127.0,128.0,71.0,126.0,-36.0,127.0,127.0,127.0,-5.0,-5.0,-55.0
126.0,127.0,128.0,126.0,127.0,130.0,127.0,127.0,71.0,126.0,-36.0,127.0,127.0,127.0,-5.0,-5.0,-55.0
126.0,127.0,128.0,126.0,127.0,130.0,127.0,127.0,71.0,126.0,-36.0,127.0,127.0,127.0,-5.0,-5.0,-55.0
126.0,127.0,128.0,126.0,127.0,130.0,127.0,128.0,71.0,126.0,-36.0,127.0,127.0,127.0,-5.0,-5.0,-55.0
126.0,127.0,128.0,126.0,127.0,130.0,127.0,128.0,71.0,126.0,-36.0,127.0,127.0,127.0,-5.0,-5.0,-55.0
126.0,127.0,128.0,126.0,127.0,130.0,127.0,128.0,71.0,126.0,-36.0,127.0,127.0,127.0,-5.0,-5.0,-55.0
126.0,127.0,128.0,126.0,127.0,130.0,127.0,128.0,71.0,126.0,-36.0,127.0,127.0,127.0,-5.0,-5.0,-55.0
126.0,127.0,128.0,126.0,127.0,130.0,127.0,127.0,71.0,126.0,-36.0,127.0,127.0,127.0,-5.0,-5.0,-55.0
126.0,127.0,128.0,126.0,127.0,130.0,127.0,127.0,71.0,126.0,-36.0,127.0,127.0,127.0,-5.0,-5.0,-55.0
126.0,127.0,128.0,126.0,127.0,129.0,127.0,127.0,71.0,126.0,-36.0,127.0,127.0,127.0,-5.0,-5.0,-55.0
126.0,127.0,128.0,126.0,127.0,129.0,127.0,127.0,71.0,126.0,-36.0,127.0,127.0,127.0,-5.0,-5.0,-55.0
126.0,127.0,128.0,126.0,127.0,129.0,127.0,127.0,71.0,126.0,-36.0,127.0,127.0,127.0,-5.0,-5.0,-55.0
126.0,127.0,127.0,126.0,127.0,130.0,127.0,127.0,71.0,126.0,-36.0,127.0,127.0,127.0,-5.0,-5.0,-55.0
126.0,127.0,127.0,126.0,127.0,130.0,127.0,127.0,71.0,126.0,-36.0,127.0,127.0,127.0,-5.0,-5.0,-55.0
126.0,127.0,127.0,126.0,127.0,130.0,127.0,127.0,71.0,126.0,-36.0,127.0,127.0,127.0,-5.0,-5.0,-55.0
126.0,127.0,127.0,126.0,127.0,130.0,127.0,127.0,71.0,126.0,-36.0,127.0,127.0,127.0,-5.0,-5.0,-55.0
127.0,127.0,127.0,126.0,127.0,129.0,127.0,127.0,71.0,126.0,-36.0,127.0,127.0,127.0,-5.0,-5.0,-55.0
