emg1,emg2,emg3,emg4,emg5,emg6,emg7,emg8,acc_x,acc_y,acc_z,gyro_x,gyro_y,gyro_z,angle_pitch,angle_roll,angle_yaw
127.0,127.0,127.0,128.0,127.0,128.0,126.0,128.0,-1.0,109.0,-80.0,127.0,127.0,127.0,-118.0,-84.0,106.0
127.0,127.0,127.0,127.0,127.0,128.0,126.0,128.0,-1.0,109.0,-80.0,127.0,127.0,127.0,-118.0,-84.0,106.0
127.0,127.0,127.0,127.0,127.0,127.0,126.0,128.0,-1.0,109.0,-80.0,127.0,127.0,127.0,-118.0,-84.0,106.0
127.0,127.0,127.0,127.0,127.0,127.0,126.0,128.0,-1.0,109.0,-80.0,127.0,127.0,127.0,-118.0,-84.0,106.0
127.0,127.0,127.0,127.0,127.0,127.0,126.0,128.0,-1.0,109.0,-80.0,127.0,127.0,127.0,-118.0,-84.0,106.0
127.0,127.0,127.0,128.0,126.0,128.0,126.0,129.0,-1.0,109.0,-80.0,127.0,127.0,127.0,-118.0,-84.0,106.0
127.0,127.0,127.0,128.0,127.0,128.0,126.0,129.0,-1.0,109.0,-80.0,127.0,127.0,127.0,-118.0,-84.0,106.0
127.0,127.0,127.0,127.0,126.0,128.0,126.0,129.0,-1.0,109.0,-80.0,127.0,127.0,127.0,-118.0,-84.0,106.0
127.0,127.0,127.0,127.0,126.0,128.0,126.0,128.0,-1.0,109.0,-80.0,127.0,127.0,127.0,-118.0,-84.0,106.0
127.0,127.0,127.0,127.0,126.0,128.0,126.0,128.0,-1.0,109.0,-80.0,127.0,127.0,127.0,-118.0,-84.0,106.0
127.0,127.0,127.0,127.0,126.0,128.0,126.0,128.0,-1.0,109.0,-80.0,127.0,127.0,127.0,-118.0,-84.0,106.0
127.0,127.0,127.0,127.0,126.0,128.0,126.0,128.0,-1.0,109.0,-80.0,127.0,127.0,127.0,-118.0,-84.0,106.0
127.0,127.0,127.0,127.0,126.0,127.0,126.0,128.0,-1.0,109.0,-80.0,127.0,127.0,127.0,-118.0,-84.0,106.0
127.0,127.0,127.0,127.0,126.0,127.0,126.0,128.0,-1.0,109.0,-80.0,127.0,127.0,127.0,-118.0,-84.0,106.0
127.0,127.0,127.0,128.0,126.0,129.0,126.0,129.0,-1.0,109.0,-80.0,127.0,127.0,127.0,-118.0,-84.0,106.0
127.0,127.0,127.0,127.0,126.0,129.0,126.0,129.0,-1.0,109.0,-80.0,127.0,127.0,127.0,-118.0,-84.0,106.0
127.0,127.0,127.0,127.0,126.0,129.0,126.0,129.0,-1.0,109.0,-80.0,127.0,127.0,127.0,-118.0,-84.0,106.0
127.0,127.0,127.0,127.0,126.0,128.0,126.0,128.0,-1.0,110.0,-79.0,127.0,127.0,127.0,-118.0,-84.0,106.0
127.0,127.0,127.0,127.0,127.0,128.0,126.0,128.0,-1.0,110.0,-79.0,127.0,127.0,127.0,-118.0,-84.0,106.0
127.0,127.0,127.0,127.0,126.0,128.0,126.0,128.0,-1.0,110.0,-79.0,127.0,127.0,127.0,-118.0,-84.0,106.0
127.0,127.0,127.0,127.0,126.0,128.0,126.0,128.0,-1.0,110.0,-79.0,127.0,127.0,127.0,-118.0,-84.0,106.0
127.0,127.0,127.0,127.0,126.0,128.0,126.0,128.0,-1.0,110.0,-79.0,127.0,127.0,127.0,-118.0,-84.0,106.0
127.0,127.0,127.0,127.0,126.0,129.0,126.0,128.0,-1.0,110.0,-79.0,127.0,127.0,127.0,-118.0,-84.0,106.0
127.0,127.0,127.0,127.0,127.0,128.0,126.0,128.0,-1.0,110.0,-79.0,127.0,127.0,127.0,-118.0,-84.0,106.0
127.0,127.0,127.0,127.0,127.0,128.0,126.0,127.0,-1.0,110.0,-79.0,127.0,127.0,127.0,-118.0,-84.0,106.0
127.0,127.0,127.0,127.0,126.0,128.0,126.0,128.0,-1.0,110.0,-79.0,127.0,127.0,127.0,-118.0,-84.0,106.0
127.0,127.0,127.0,127.0,126.0,128.0,126.0,128.0,-1.0,110.0,-79.0,127.0,127.0,127.0,-118.0,-84.0,106.0
126.0,127.0,127.0,127.0,127.0,128.0,125.0,128.0,-1.0,110.0,-79.0,127.0,127.0,127.0,-118.0,-84.0,106.0
127.0,127.0,127.0,127.0,127.0,127.0,126.0,127.0,-1.0,110.0,-79.0,127.0,127.0,127.0,-118.0,-84.0,106.0
127.0,127.0,127.0,127.0,127.0,128.0,126.0,128.0,-1.0,110.0,-79.0,127.0,127.0,127.0,-118.0,-84.0,106.0
127.0,127.0,127.0,127.0,127.0,128.0,126.0,128.0,-1.0,110.0,-79.0,127.0,127.0,127.0,-118.0,-84.0,106.0
127.0,127.0,127.0,127.0,126.0,128.0,125.0,128.0,-1.0,110.0,-79.0,127.0,127.0,127.0,-118.0,-84.0,106.0
126.0,127.0,127.0,127.0,127.0,127.0,126.0,127.0,-1.0,110.0,-79.0,127.0,127.0,127.0,-118.0,-84.0,106.0
126.0,127.0,127.0,127.0,127.0,127.0,126.0,127.0,-1.0,110.0,-79.0,127.0,127.0,127.0,-118.0,-84.0,106.0
126.0,127.0,127.0,127.0,127.0,128.0,126.0,128.0,-1.0,110.0,-79.0,127.0,127.0,127.0,-118.0,-84.0,106.0
127.0,127.0,127.0,127.0,127.0,128.0,125.0,128.0,-1.0,110.0,-79.0,127.0,127.0,127.0,-118.0,-84.0,106.0
127.0,127.0,127.0,127.0,127.0,128.0,125.0,128.0,-1.0,110.0,-79.0,127.0,127.0,127.0,-118.0,-84.0,106.0
127.0,127.0,127.0,127.0,127.0,128.0,126.0,128.0,-1.0,110.0,-79.0,127.0,127.0,127.0,-118.0,-84.0,106.0
127.0,127.0,127.0,127.0,127.0,128.0,126.0,128.0,-1.0,110.0,-79.0,127.0,127.0,127.0,-118.0,-84.0,106.0
127.0,127.0,127.0,127.0,127.0,128.0,126.0,128.0,-1.0,110.0,-79.0,127.0,127.0,127.0,-118.0,-84.0,106.0
127.0,127.0,127.0,127.0,126.0,129.0,125.0,128.0,-1.0,110.0,-79.0,127.0,127.0,127.0,-118.0,-84.0,106.0
126.0,127.0,127.0,127.0,127.0,128.0,126.0,127.0,-1.0,110.0,-79.0,127.0,127.0,127.0,-118.0,-84.0,106.0
127.0,127.0,127.0,127.0,127.0,128.0,126.0,128.0,-1.0,110.0,-79.0,127.0,127.0,127.0,-118.0,-84.0,106.0
127.0,127.0,127.0,127.0,127.0,128.0,126.0,128.0,-1.0,110.0,-79.0,127.0,127.0,127.0,-118.0,-84.0,106.0
127.0,127.0,127.0,127.0,126.0,129.0,126.0,128.0,-1.0,110.0,-79.0,127.0,127.0,127.0,-118.0,-84.0,106.0
127.0,127.0,127.0,127.0,126.0,129.0,126.0,128.0,-1.0,110.0,-79.0,127.0,127.0,127.0,-118.0,-84.0,106.0
127.0,127.0,127.0,127.0,127.0,128.0,126.0,128.0,-1.0,110.0,-79.0,127.0,127.0,127.0,-118.0,-84.0,106.0
127.0,127.0,127.0,127.0,127.0,128.0,126.0,128.0,-1.0,110.0,-79.0,127.0,127.0,127.0,-118.0,-84.0,106.0
127.0,127.0,127.0,127.0,126.0,128.0,126.0,128.0,-1.0,110.0,-79.0,127.0,127.0,127.0,-118.0,-84.0,106.0
127.0,127.0,126.0,127.0,126.0,128.0,125.0,128.0,-1.0,110.0,-79.0,127.0,127.0,127.0,-118.0,-84.0,106.0
127.0,127.0,127.0,127.0,127.0,127.0,127.0,128.0,-1.0,110.0,-79.0,127.0,127.0,127.0,-118.0,-84.0,106.0
127.0,127.0,127.0,127.0,127.0,127.0,127.0,128.0,-1.0,110.0,-79.0,127.0,127.0,127.0,-118.0,-84.0,106.0
126.0,127.0,127.0,127.0,127.0,128.0,126.0,128.0,-1.0,110.0,-79.0,127.0,127.0,127.0,-118.0,-84.0,106.0
127.0,127.0,127.0,127.0,127.0,128.0,126.0,128.0,-1.0,110.0,-79.0,127.0,127.0,127.0,-118.0,-84.0,106.0
127.0,127.0,127.0,127.0,126.0,128.0,126.0,128.0,-1.0,110.0,-79.0,127.0,127.0,127.0,-118.0,-84.0,106.0
127.0,127.0,127.0,127.0,127.0,128.0,126.0,128.0,-1.0,110.0,-79.0,127.0,127.0,127.0,-118.0,-84.0,106.0
127.0,127.0,127.0,127.0,127.0,128.0,126.0,128.0,-1.0,110.0,-79.0,127.0,127.0,127.0,-118.0,-84.0,106.0
127.0,127.0,127.0,127.0,127.0,128.0,126.0,128.0,-1.0,110.0,-79.0,127.0,127.0,127.0,-118.0,-84.0,106.0
127.0,127.0,127.0,127.0,126.0,128.0,125.0,128.0,-1.0,110.0,-79.0,127.0,127.0,127.0,-118.0,-84.0,106.0
126.0,127.0,127.0,127.0,127.0,127.0,126.0,128.0,-1.0,110.0,-79.0,127.0,127.0,127.0,-118.0,-84.0,106.0
126.0,127.0,127.0,127.0,127.0,128.0,126.0,128.0,-1.0,110.0,-79.0,127.0,127.0,127.0,-118.0,-84.0,106.0
126.0,127.0,127.0,127.0,127.0,128.0,125.0,128.0,-1.0,110.0,-79.0,127.0,127.0,127.0,-118.0,-84.0,106.0
126.0,127.0,127.0,127.0,126.0,128.0,125.0,128.0,-1.0,110.0,-79.0,127.0,127.0,127.0,-118.0,-84.0,106.0
127.0,127.0,127.0,127.0,126.0,128.0,125.0,128.0,-1.0,110.0,-79.0,127.0,127.0,127.0,-118.0,-84.0,106.0
127.0,127.0,127.0,127.0,127.0,128.0,125.0,128.0,-1.0,110.0,-79.0,127.0,127.0,127.0,-118.0,-84.0,106.0
127.0,127.0,127.0,127.0,127.0,128.0,126.0,128.0,-1.0,110.0,-79.0,127.0,127.0,127.0,-118.0,-84.0,106.0
127.0,127.0,127.0,127.0,126.0,128.0,126.0,128.0,-1.0,110.0,-79.0,127.0,127.0,127.0,-118.0,-84.0,106.0
127.0,127.0,127.0,127.0,126.0,128.0,125.0,128.0,-1.0,110.0,-79.0,127.0,127.0,127.0,-118.0,-84.0,106.0
127.0,127.0,127.0,127.0,127.0,128.0,126.0,128.0,-1.0,110.0,-79.0,127.0,127.0,127.0,-118.0,-84.0,106.0
127.0,127.0,127.0,127.0,127.0,128.0,126.0,128.0,-1.0,110.0,-79.0,127.0,127.0,127.0,-118.0,-84.0,106.0
127.0,127.0,127.0,127.0,127.0,128.0,126.0,128.0,-1.0,110.0,-79.0,127.0,127.0,127.0,-118.0,-84.0,106.0
127.0,127.0,127.0,127.0,127.0,128.0,126.0,128.0,-1.0,110.0,-79.0,127.0,127.0,127.0,-118.0,-84.0,106.0
127.0,127.0,127.0,127.0,127.0,129.0,126.0,128.0,-1.0,110.0,-79.0,127.0,127.0,127.0,-118.0,-84.0,106.0
127.0,127.0,127.0,127.0,127.0,128.0,126.0,128.0,-1.0,110.0,-79.0,127.0,127.0,127.0,-118.0,-84.0,106.0
127.0,127.0,127.0,127.0,127.0,128.0,126.0,128.0,-1.0,110.0,-79.0,127.0,127.0,127.0,-118.0,-84.0,106.0
127.0,127.0,127.0,127.0,127.0,128.0,126.0,128.0,-1.0,110.0,-79.0,127.0,127.0,127.0,-118.0,-84.0,106.0
127.0,127.0,127.0,127.0,127.0,128.0,126.0,128.0,-1.0,110.0,-79.0,127.0,127.0,127.0,-118.0,-84.0,106.0
127.0,127.0,127.0,127.0,127.0,128.0,125.0,128.0,-1.0,110.0,-79.0,127.0,127.0,127.0,-118.0,-84.0,106.0
127.0,127.0,127.0,127.0,127.0,128.0,125.0,128.0,-1.0,110.0,-79.0,127.0,127.0,127.0,-118.0,-84.0,106.0
127.0,127.0,127.0,127.0,127.0,128.0,126.0,128.0,-1.0,110.0,-79.0,127.0,127.0,127.0,-118.0,-84.0,106.0
127.0,127.0,127.0,127.0,127.0,127.0,126.0,128.0,-1.0,110.0,-79.0,127.0,127.0,127.0,-118.0,-84.0,106.0
127.0,127.0,127.0,127.0,127.0,127.0,126.0,128.0,-1.0,110.0,-79.0,127.0,127.0,127.0,-118.0,-84.0,106.0
127.0,127.0,127.0,127.0,127.0,127.0,126.0,128.0,-1.0,110.0,-79.0,127.0,127.0,127.0,-118.0,-84.0,106.0
127.0,127.0,127.0,127.0,127.0,127.0,126.0,128.0,-1.0,110.0,-79.0,127.0,127.0,127.0,-118.0,-84.0,106.0
127.0,127.0,127.0,127.0,127.0,127.0,126.0,128.0,-1.0,110.0,-79.0,127.0,127.0,127.0,-118.0,-84.0,106.0
127.0,127.0,127.0,127.0,127.0,127.0,126.0,128.0,-1.0,110.0,-79.0,127.0,127.0,127.0,-118.0,-84.0,106.0
127.0,127.0,127.0,127.0,127.0,127.0,126.0,128.0,-1.0,110.0,-79.0,127.0,127.0,127.0,-118.0,-84.0,106.0
127.0,127.0,127.0,127.0,126.0,128.0,126.0,128.0,-1.0,110.0,-80.0,127.0,127.0,127.0,-118.0,-84.0,106.0
127.0,127.0,127.0,127.0,126.0,128.0,126.0,128.0,-1.0,110.0,-80.0,127.0,127.0,127.0,-118.0,-84.0,106.0
127.0,127.0,127.0,127.0,126.0,128.0,126.0,128.0,-1.0,110.0,-80.0,127.0,127.0,127.0,-118.0,-84.0,106.0
127.0,127.0,127.0,127.0,126.0,128.0,126.0,128.0,-1.0,110.0,-80.0,127.0,127.0,127.0,-118.0,-84.0,106.0
127.0,127.0,127.0,127.0,126.0,128.0,126.0,128.0,-1.0,110.0,-80.0,127.0,127.0,127.0,-118.0,-84.0,106.0
127.0,127.0,127.0,127.0,127.0,128.0,126.0,128.0,-1.0,110.0,-80.0,127.0,127.0,127.0,-118.0,-84.0,106.0
127.0,127.0,127.0,127.0,127.0,128.0,126.0,128.0,-1.0,110.0,-80.0,127.0,127.0,127.0,-118.0,-84.0,106.0
127.0,127.0,127.0,127.0,127.0,128.0,126.0,128.0,-1.0,110.0,-80.0,127.0,127.0,127.0,-118.0,-84.0,106.0
127.0,127.0,127.0,127.0,127.0,128.0,126.0,128.0,-1.0,110.0,-80.0,127.0,127.0,127.0,-118.0,-84.0,106.0
127.0,127.0,127.0,127.0,126.0,128.0,126.0,128.0,-1.0,110.0,-80.0,127.0,127.0,127.0,-118.0,-84.0,106.0
127.0,127.0,127.0,127.0,127.0,128.0,126.0,128.0,-1.0,110.0,-80.0,127.0,127.0,127.0,-118.0,-84.0,106.0
127.0,127.0,127.0,127.0,127.0,128.0,126.0,128.0,-1.0,110.0,-80.0,127.0,127.0,127.0,-118.0,-84.0,106.0
127.0,127.0,127.0,127.0,127.0,128.0,126.0,128.0,-1.0,110.0,-80.0,127.0,127.0,127.0,-118.0,-84.0,106.0
127.0,127.0,127.0,127.0,127.0,128.0,126.0,128.0,-1.0,110.0,-80.0,127.0,127.0,127.0,-118.0,-84.0,106.0
127.0,127.0,127.0,127.0,126.0,128.0,126.0,128.0,-1.0,110.0,-80.0,127.0,127.0,127.0,-118.0,-84.0,106.0
127.0,127.0,127.0,127.0,126.0,129.0,125.0,128.0,-1.0,110.0,-80.0,127.0,127.0,127.0,-118.0,-84.0,106.0
127.0,127.0,127.0,127.0,126.0,129.0,125.0,128.0,-1.0,110.0,-80.0,127.0,127.0,127.0,-118.0,-84.0,106.0
127.0,127.0,127.0,127.0,126.0,128.0,125.0,128.0,-1.0,110.0,-80.0,127.0,127.0,127.0,-118.0,-84.0,106.0
127.0,127.0,127.0,127.0,127.0,128.0,126.0,128.0,-1.0,110.0,-80.0,127.0,127.0,127.0,-118.0,-84.0,106.0
127.0,127.0,127.0,127.0,127.0,128.0,126.0,128.0,-1.0,110.0,-80.0,127.0,127.0,127.0,-118.0,-84.0,106.0
126.0,127.0,127.0,127.0,127.0,128.0,126.0,128.0,-1.0,110.0,-80.0,127.0,127.0,127.0,-118.0,-84.0,106.0
126.0,127.0,127.0,127.0,127.0,128.0,126.0,128.0,-1.0,110.0,-80.0,127.0,127.0,127.0,-118.0,-84.0,106.0
127.0,127.0,127.0,127.0,127.0,128.0,126.0,128.0,-1.0,110.0,-80.0,127.0,127.0,127.0,-118.0,-84.0,106.0
127.0,127.0,127.0,127.0,126.0,128.0,126.0,128.0,-1.0,110.0,-80.0,127.0,127.0,127.0,-118.0,-84.0,106.0
127.0,127.0,127.0,127.0,126.0,128.0,126.0,128.0,-1.0,110.0,-80.0,127.0,127.0,127.0,-118.0,-84.0,106.0
127.0,127.0,127.0,127.0,126.0,128.0,126.0,128.0,-1.0,110.0,-80.0,127.0,127.0,127.0,-118.0,-84.0,106.0
127.0,127.0,127.0,127.0,126.0,128.0,126.0,128.0,-1.0,110.0,-80.0,127.0,127.0,127.0,-118.0,-84.0,106.0
127.0,127.0,127.0,127.0,127.0,128.0,126.0,128.0,-1.0,110.0,-80.0,127.0,127.0,127.0,-118.0,-84.0,106.0
127.0,127.0,127.0,127.0,126.0,128.0,126.0,128.0,-1.0,110.0,-80.0,127.0,127.0,127.0,-118.0,-84.0,106.0
127.0,127.0,127.0,127.0,126.0,128.0,126.0,128.0,-1.0,110.0,-80.0,127.0,127.0,127.0,-118.0,-84.0,106.0
127.0,127.0,127.0,127.0,127.0,128.0,126.0,128.0,-1.0,109.0,-81.0,127.0,127.0,127.0,-118.0,-84.0,106.0
127.0,127.0,127.0,127.0,127.0,128.0,126.0,128.0,-1.0,109.0,-81.0,127.0,127.0,127.0,-118.0,-84.0,106.0
127.0,127.0,127.0,127.0,127.0,128.0,126.0,128.0,-1.0,109.0,-81.0,127.0,127.0,127.0,-118.0,-84.0,106.0
127.0,127.0,127.0,127.0,126.0,128.0,126.0,128.0,-1.0,109.0,-81.0,127.0,127.0,127.0,-118.0,-84.0,106.0
127.0,127.0,127.0,127.0,126.0,128.0,126.0,128.0,-1.0,109.0,-81.0,127.0,127.0,127.0,-118.0,-84.0,106.0
127.0,127.0,127.0,127.0,127.0,128.0,126.0,128.0,-1.0,109.0,-81.0,127.0,127.0,127.0,-118.0,-84.0,106.0
127.0,127.0,127.0,127.0,127.0,127.0,126.0,128.0,-1.0,109.0,-81.0,127.0,127.0,127.0,-118.0,-84.0,106.0
127.0,127.0,127.0,127.0,126.0,128.0,126.0,128.0,-1.0,109.0,-81.0,127.0,127.0,127.0,-118.0,-84.0,106.0
127.0,127.0,127.0,127.0,126.0,128.0,126.0,128.0,-1.0,109.0,-81.0,127.0,127.0,127.0,-118.0,-84.0,106.0
127.0,127.0,127.0,127.0,127.0,128.0,126.0,128.0,-1.0,109.0,-81.0,127.0,127.0,127.0,-118.0,-84.0,106.0
126.0,127.0,127.0,127.0,127.0,128.0,125.0,128.0,-1.0,109.0,-81.0,127.0,127.0,127.0,-118.0,-84.0,106.0
126.0,127.0,127.0,127.0,127.0,128.0,125.0,128.0,-1.0,109.0,-81.0,127.0,127.0,127.0,-118.0,-84.0,106.0
126.0,127.0,127.0,127.0,126.0,128.0,125.0,128.0,-1.0,109.0,-81.0,127.0,127.0,127.0,-118.0,-84.0,106.0
127.0,127.0,127.0,127.0,126.0,128.0,125.0,128.0,-1.0,109.0,-81.0,127.0,127.0,127.0,-118.0,-84.0,106.0
127.0,127.0,127.0,127.0,126.0,128.0,125.0,128.0,-1.0,109.0,-81.0,127.0,127.0,127.0,-118.0,-84.0,106.0
126.0,127.0,127.0,127.0,127.0,127.0,126.0,128.0,-1.0,109.0,-81.0,127.0,127.0,127.0,-118.0,-84.0,106.0
126.0,127.0,127.0,127.0,126.0,128.0,125.0,128.0,-1.0,109.0,-81.0,127.0,127.0,127.0,-118.0,-84.0,106.0
126.0,127.0,127.0,127.0,126.0,128.0,125.0,128.0,-1.0,109.0,-81.0,127.0,127.0,127.0,-118.0,-84.0,106.0
126.0,127.0,127.0,127.0,126.0,128.0,125.0,128.0,-1.0,109.0,-81.0,127.0,127.0,127.0,-118.0,-84.0,106.0
126.0,127.0,127.0,127.0,127.0,128.0,125.0,128.0,-1.0,109.0,-81.0,127.0,127.0,127.0,-118.0,-84.0,106.0
127.0,127.0,127.0,127.0,127.0,129.0,126.0,128.0,-1.0,109.0,-81.0,127.0,127.0,127.0,-118.0,-84.0,106.0
127.0,127.0,127.0,127.0,127.0,129.0,126.0,129.0,-1.0,109.0,-81.0,127.0,127.0,127.0,-118.0,-84.0,106.0
127.0,127.0,127.0,127.0,126.0,129.0,126.0,129.0,-1.0,109.0,-81.0,127.0,127.0,127.0,-118.0,-84.0,106.0
127.0,127.0,127.0,127.0,127.0,129.0,126.0,129.0,-1.0,109.0,-81.0,127.0,127.0,127.0,-118.0,-84.0,106.0
126.0,127.0,127.0,127.0,127.0,128.0,126.0,128.0,-1.0,109.0,-81.0,127.0,127.0,127.0,-118.0,-84.0,106.0
126.0,127.0,127.0,127.0,126.0,129.0,126.0,128.0,-1.0,109.0,-81.0,127.0,127.0,127.0,-118.0,-84.0,106.0
126.0,127.0,127.0,127.0,127.0,129.0,126.0,129.0,-1.0,109.0,-81.0,127.0,127.0,127.0,-118.0,-84.0,106.0
127.0,127.0,127.0,127.0,127.0,129.0,126.0,129.0,-1.0,109.0,-81.0,127.0,127.0,127.0,-118.0,-84.0,106.0
127.0,127.0,127.0,127.0,127.0,129.0,126.0,129.0,-1.0,109.0,-81.0,127.0,127.0,127.0,-118.0,-84.0,106.0
127.0,127.0,127.0,127.0,127.0,129.0,126.0,128.0,-1.0,109.0,-81.0,127.0,127.0,127.0,-118.0,-84.0,106.0
127.0,127.0,127.0,127.0,126.0,128.0,125.0,128.0,-1.0,109.0,-81.0,127.0,127.0,127.0,-118.0,-84.0,106.0
127.0,127.0,127.0,127.0,126.0,128.0,125.0,129.0,-1.0,109.0,-81.0,127.0,127.0,127.0,-118.0,-84.0,106.0
127.0,127.0,127.0,127.0,126.0,128.0,125.0,128.0,-1.0,109.0,-81.0,127.0,127.0,127.0,-118.0,-84.0,106.0
126.0,127.0,127.0,127.0,126.0,127.0,126.0,128.0,-1.0,109.0,-81.0,127.0,127.0,127.0,-118.0,-84.0,106.0
126.0,127.0,127.0,127.0,126.0,127.0,126.0,128.0,-1.0,109.0,-81.0,127.0,127.0,127.0,-118.0,-84.0,106.0
126.0,127.0,127.0,127.0,126.0,128.0,125.0,128.0,-1.0,109.0,-81.0,127.0,127.0,127.0,-118.0,-84.0,106.0
126.0,127.0,127.0,127.0,126.0,128.0,125.0,128.0,-1.0,109.0,-81.0,127.0,127.0,127.0,-118.0,-84.0,106.0
126.0,127.0,127.0,127.0,126.0,128.0,125.0,128.0,-1.0,109.0,-81.0,127.0,127.0,127.0,-118.0,-84.0,106.0
127.0,127.0,127.0,127.0,126.0,128.0,125.0,128.0,-1.0,109.0,-81.0,127.0,127.0,127.0,-118.0,-84.0,106.0
127.0,127.0,127.0,127.0,126.0,128.0,125.0,128.0,-1.0,109.0,-81.0,127.0,127.0,127.0,-118.0,-84.0,106.0
127.0,127.0,127.0,128.0,127.0,129.0,125.0,128.0,-1.0,109.0,-81.0,127.0,127.0,127.0,-118.0,-84.0,106.0
127.0,127.0,127.0,128.0,127.0,128.0,124.0,128.0,-1.0,109.0,-81.0,127.0,127.0,127.0,-118.0,-84.0,106.0
127.0,127.0,127.0,127.0,127.0,128.0,126.0,128.0,-1.0,109.0,-81.0,127.0,127.0,127.0,-118.0,-84.0,106.0
127.0,127.0,127.0,127.0,127.0,128.0,126.0,128.0,-1.0,109.0,-81.0,127.0,127.0,127.0,-118.0,-84.0,106.0
127.0,127.0,127.0,128.0,127.0,128.0,125.0,128.0,-1.0,109.0,-81.0,127.0,127.0,127.0,-118.0,-84.0,106.0
127.0,127.0,127.0,128.0,127.0,129.0,125.0,128.0,-1.0,109.0,-81.0,127.0,127.0,127.0,-118.0,-84.0,106.0
127.0,127.0,127.0,128.0,127.0,128.0,125.0,128.0,-1.0,109.0,-81.0,127.0,127.0,127.0,-118.0,-84.0,106.0
127.0,127.0,127.0,128.0,127.0,128.0,125.0,128.0,-1.0,109.0,-81.0,127.0,127.0,127.0,-118.0,-84.0,106.0
127.0,127.0,127.0,128.0,127.0,128.0,125.0,128.0,-1.0,109.0,-81.0,127.0,127.0,127.0,-118.0,-84.0,106.0
127.0,127.0,127.0,128.0,127.0,128.0,125.0,128.0,-1.0,109.0,-81.0,127.0,127.0,127.0,-118.0,-84.0,106.0
127.0,127.0,127.0,128.0,126.0,128.0,125.0,128.0,-1.0,109.0,-81.0,127.0,127.0,127.0,-118.0,-84.0,106.0
126.0,127.0,127.0,128.0,127.0,128.0,126.0,128.0,-1.0,109.0,-81.0,127.0,127.0,127.0,-118.0,-84.0,106.0
126.0,127.0,127.0,128.0,127.0,128.0,126.0,128.0,-1.0,109.0,-81.0,127.0,127.0,127.0,-118.0,-84.0,106.0
126.0,127.0,127.0,128.0,126.0,128.0,126.0,128.0,-1.0,109.0,-81.0,127.0,127.0,127.0,-118.0,-84.0,106.0
127.0,127.0,127.0,128.0,126.0,128.0,126.0,128.0,-1.0,109.0,-81.0,127.0,127.0,127.0,-118.0,-84.0,106.0
126.0,127.0,127.0,128.0,127.0,128.0,126.0,128.0,-1.0,109.0,-81.0,127.0,127.0,127.0,-118.0,-84.0,106.0
126.0,127.0,127.0,128.0,127.0,128.0,126.0,128.0,-1.0,109.0,-81.0,127.0,127.0,127.0,-118.0,-84.0,106.0
126.0,127.0,127.0,128.0,127.0,128.0,126.0,128.0,-1.0,109.0,-81.0,127.0,127.0,127.0,-118.0,-84.0,106.0
126.0,127.0,127.0,128.0,127.0,128.0,126.0,128.0,-1.0,109.0,-81.0,127.0,127.0,127.0,-118.0,-84.0,106.0
127.0,127.0,127.0,128.0,126.0,128.0,125.0,128.0,-1.0,109.0,-81.0,127.0,127.0,127.0,-118.0,-84.0,106.0
126.0,127.0,127.0,127.0,127.0,128.0,127.0,128.0,-1.0,109.0,-81.0,127.0,127.0,127.0,-118.0,-84.0,106.0
126.0,127.0,127.0,127.0,127.0,128.0,127.0,128.0,-1.0,109.0,-81.0,127.0,127.0,127.0,-118.0,-84.0,106.0
126.0,127.0,127.0,127.0,127.0,127.0,127.0,128.0,-1.0,109.0,-81.0,127.0,127.0,127.0,-118.0,-84.0,106.0
126.0,127.0,127.0,127.0,127.0,127.0,127.0,128.0,-1.0,109.0,-81.0,127.0,127.0,127.0,-118.0,-84.0,106.0
126.0,127.0,127.0,127.0,127.0,127.0,127.0,128.0,-1.0,109.0,-81.0,127.0,127.0,127.0,-118.0,-84.0,106.0
126.0,127.0,127.0,127.0,127.0,127.0,127.0,128.0,-1.0,109.0,-81.0,127.0,127.0,127.0,-118.0,-84.0,106.0
126.0,127.0,127.0,127.0,127.0,127.0,127.0,128.0,-1.0,109.0,-81.0,127.0,127.0,127.0,-118.0,-84.0,106.0
126.0,127.0,127.0,127.0,127.0,127.0,127.0,128.0,-1.0,109.0,-81.0,127.0,127.0,127.0,-118.0,-84.0,106.0
126.0,127.0,127.0,127.0,127.0,127.0,126.0,128.0,-1.0,109.0,-81.0,127.0,127.0,127.0,-118.0,-84.0,106.0
126.0,127.0,127.0,127.0,127.0,127.0,126.0,128.0,-1.0,109.0,-81.0,127.0,127.0,127.0,-118.0,-84.0,106.0
127.0,127.0,127.0,128.0,127.0,128.0,126.0,128.0,-1.0,109.0,-81.0,127.0,127.0,127.0,-118.0,-84.0,106.0
127.0,127.0,127.0,128.0,127.0,127.0,126.0,128.0,-1.0,109.0,-81.0,127.0,127.0,127.0,-118.0,-84.0,106.0
127.0,127.0,127.0,128.0,127.0,127.0,126.0,128.0,-1.0,109.0,-81.0,127.0,127.0,127.0,-118.0,-84.0,106.0
127.0,127.0,127.0,127.0,127.0,127.0,126.0,128.0,-1.0,109.0,-81.0,127.0,127.0,127.0,-118.0,-84.0,106.0
127.0,127.0,127.0,128.0,127.0,128.0,126.0,128.0,-1.0,109.0,-81.0,127.0,127.0,127.0,-118.0,-84.0,106.0
127.0,127.0,127.0,128.0,127.0,128.0,126.0,128.0,-1.0,109.0,-81.0,127.0,127.0,127.0,-118.0,-84.0,106.0
127.0,128.0,127.0,128.0,127.0,128.0,126.0,128.0,-1.0,109.0,-81.0,127.0,127.0,127.0,-118.0,-84.0,106.0
127.0,127.0,127.0,128.0,127.0,128.0,126.0,128.0,-1.0,109.0,-81.0,127.0,127.0,127.0,-118.0,-84.0,106.0
127.0,127.0,127.0,128.0,127.0,127.0,126.0,128.0,-1.0,109.0,-81.0,127.0,127.0,127.0,-118.0,-84.0,106.0
127.0,127.0,127.0,128.0,127.0,128.0,126.0,128.0,-1.0,109.0,-81.0,127.0,127.0,127.0,-118.0,-84.0,106.0
127.0,127.0,127.0,127.0,126.0,128.0,125.0,128.0,-1.0,109.0,-81.0,127.0,127.0,127.0,-118.0,-84.0,106.0
127.0,127.0,127.0,127.0,126.0,128.0,125.0,128.0,-1.0,109.0,-81.0,127.0,127.0,127.0,-118.0,-84.0,106.0
127.0,127.0,127.0,127.0,127.0,128.0,125.0,128.0,-1.0,109.0,-81.0,127.0,127.0,127.0,-118.0,-84.0,106.0
127.0,127.0,127.0,127.0,126.0,128.0,125.0,128.0,-1.0,109.0,-81.0,127.0,127.0,127.0,-118.0,-84.0,106.0
127.0,127.0,127.0,127.0,126.0,129.0,125.0,128.0,-1.0,109.0,-81.0,127.0,127.0,127.0,-118.0,-84.0,106.0
127.0,127.0,127.0,127.0,126.0,129.0,125.0,128.0,-1.0,109.0,-81.0,127.0,127.0,127.0,-118.0,-84.0,106.0
127.0,127.0,127.0,127.0,126.0,128.0,125.0,128.0,-1.0,109.0,-81.0,127.0,127.0,127.0,-118.0,-84.0,106.0
127.0,127.0,127.0,127.0,126.0,128.0,125.0,128.0,-1.0,109.0,-81.0,127.0,127.0,127.0,-118.0,-84.0,106.0
127.0,127.0,127.0,127.0,126.0,128.0,125.0,128.0,-1.0,109.0,-81.0,127.0,127.0,127.0,-118.0,-84.0,106.0
127.0,127.0,127.0,127.0,126.0,128.0,125.0,128.0,-1.0,109.0,-81.0,127.0,127.0,127.0,-118.0,-84.0,106.0
127.0,127.0,127.0,127.0,127.0,128.0,125.0,128.0,-1.0,109.0,-81.0,127.0,127.0,127.0,-118.0,-84.0,106.0
127.0,127.0,127.0,128.0,127.0,128.0,125.0,128.0,-1.0,109.0,-81.0,127.0,127.0,127.0,-118.0,-84.0,106.0
127.0,127.0,127.0,128.0,126.0,128.0,125.0,128.0,-1.0,109.0,-81.0,127.0,127.0,127.0,-118.0,-84.0,106.0
127.0,128.0,127.0,128.0,126.0,128.0,125.0,129.0,-1.0,109.0,-81.0,127.0,127.0,127.0,-118.0,-84.0,106.0
127.0,127.0,127.0,128.0,126.0,128.0,125.0,129.0,-1.0,109.0,-81.0,127.0,127.0,127.0,-118.0,-84.0,106.0
127.0,128.0,127.0,128.0,126.0,128.0,125.0,129.0,-1.0,109.0,-81.0,127.0,127.0,127.0,-118.0,-84.0,106.0
127.0,127.0,127.0,128.0,126.0,128.0,125.0,129.0,-1.0,109.0,-81.0,127.0,127.0,127.0,-118.0,-84.0,106.0
127.0,127.0,127.0,127.0,126.0,128.0,125.0,128.0,-1.0,109.0,-81.0,127.0,127.0,127.0,-118.0,-84.0,106.0
127.0,127.0,127.0,127.0,127.0,128.0,125.0,128.0,-1.0,109.0,-81.0,127.0,127.0,127.0,-118.0,-84.0,106.0
127.0,127.0,127.0,127.0,127.0,128.0,125.0,128.0,-1.0,109.0,-81.0,127.0,127.0,127.0,-118.0,-84.0,106.0
126.0,127.0,127.0,127.0,127.0,128.0,125.0,128.0,-1.0,109.0,-81.0,127.0,127.0,127.0,-118.0,-84.0,106.0
126.0,127.0,127.0,127.0,127.0,128.0,125.0,128.0,-1.0,109.0,-81.0,127.0,127.0,127.0,-118.0,-84.0,106.0
126.0,127.0,127.0,127.0,126.0,128.0,125.0,128.0,-1.0,109.0,-81.0,127.0,127.0,127.0,-118.0,-84.0,106.0
127.0,127.0,127.0,128.0,126.0,128.0,125.0,128.0,-1.0,109.0,-81.0,127.0,127.0,127.0,-118.0,-84.0,106.0
127.0,127.0,127.0,127.0,126.0,128.0,125.0,128.0,-1.0,109.0,-81.0,127.0,127.0,127.0,-118.0,-84.0,106.0
127.0,127.0,127.0,127.0,126.0,128.0,125.0,128.0,-1.0,109.0,-81.0,127.0,127.0,127.0,-118.0,-84.0,106.0
126.0,127.0,127.0,127.0,126.0,128.0,125.0,128.0,-1.0,109.0,-81.0,127.0,127.0,127.0,-118.0,-84.0,106.0
126.0,127.0,127.0,127.0,126.0,128.0,125.0,128.0,-1.0,109.0,-81.0,127.0,127.0,127.0,-118.0,-84.0,106.0
126.0,127.0,127.0,127.0,126.0,128.0,125.0,128.0,-1.0,109.0,-81.0,127.0,127.0,127.0,-118.0,-84.0,106.0
126.0,127.0,127.0,127.0,127.0,128.0,125.0,128.0,-1.0,109.0,-81.0,127.0,127.0,127.0,-118.0,-84.0,106.0
126.0,127.0,127.0,127.0,127.0,128.0,126.0,128.0,-1.0,109.0,-81.0,127.0,127.0,127.0,-118.0,-84.0,106.0
126.0,128.0,127.0,127.0,126.0,128.0,126.0,128.0,-1.0,109.0,-81.0,127.0,127.0,127.0,-118.0,-84.0,106.0
127.0,128.0,127.0,127.0,126.0,128.0,126.0,128.0,-1.0,109.0,-81.0,127.0,127.0,127.0,-118.0,-84.0,106.0
126.0,128.0,127.0,127.0,126.0,128.0,126.0,128.0,-1.0,109.0,-81.0,127.0,127.0,127.0,-118.0,-84.0,106.0
127.0,128.0,127.0,127.0,126.0,129.0,125.0,129.0,-1.0,109.0,-81.0,127.0,127.0,127.0,-118.0,-84.0,106.0
127.0,128.0,127.0,127.0,127.0,128.0,126.0,128.0,-1.0,109.0,-81.0,127.0,127.0,127.0,-118.0,-84.0,106.0
126.0,128.0,127.0,127.0,127.0,128.0,126.0,128.0,-1.0,109.0,-81.0,127.0,127.0,127.0,-118.0,-84.0,106.0
126.0,128.0,127.0,127.0,127.0,128.0,126.0,128.0,-1.0,109.0,-81.0,127.0,127.0,127.0,-118.0,-84.0,106.0
126.0,128.0,127.0,127.0,127.0,128.0,126.0,128.0,-1.0,109.0,-81.0,127.0,127.0,127.0,-118.0,-84.0,106.0
126.0,128.0,127.0,127.0,127.0,128.0,126.0,128.0,-1.0,109.0,-81.0,127.0,127.0,127.0,-118.0,-84.0,106.0
127.0,128.0,127.0,128.0,127.0,129.0,125.0,128.0,-1.0,109.0,-81.0,127.0,127.0,127.0,-118.0,-84.0,106.0
127.0,128.0,127.0,128.0,127.0,129.0,125.0,128.0,-1.0,109.0,-81.0,127.0,127.0,127.0,-118.0,-84.0,106.0
127.0,128.0,127.0,128.0,127.0,128.0,125.0,128.0,-1.0,109.0,-81.0,127.0,127.0,127.0,-118.0,-84.0,106.0
127.0,128.0,127.0,128.0,127.0,128.0,125.0,128.0,-1.0,109.0,-81.0,127.0,127.0,127.0,-118.0,-84.0,106.0
127.0,128.0,127.0,128.0,127.0,130.0,125.0,129.0,-1.0,109.0,-81.0,127.0,127.0,127.0,-118.0,-84.0,106.0
127.0,128.0,127.0,128.0,127.0,130.0,125.0,129.0,-1.0,109.0,-81.0,127.0,127.0,127.0,-118.0,-84.0,106.0
127.0,128.0,127.0,128.0,127.0,130.0,125.0,129.0,-1.0,109.0,-81.0,127.0,127.0,127.0,-118.0,-84.0,106.0
127.0,128.0,127.0,128.0,127.0,130.0,125.0,129.0,-1.0,109.0,-81.0,127.0,127.0,127.0,-118.0,-84.0,106.0
127.0,128.0,127.0,128.0,127.0,129.0,125.0,129.0,-1.0,109.0,-81.0,127.0,127.0,127.0,-118.0,-84.0,106.0
127.0,128.0,127.0,128.0,127.0,129.0,125.0,129.0,-1.0,109.0,-81.0,127.0,127.0,127.0,-118.0,-84.0,106.0
128.0,128.0,128.0,129.0,127.0,128.0,124.0,129.0,-1.0,109.0,-81.0,127.0,127.0,127.0,-118.0,-84.0,106.0
128.0,128.0,128.0,129.0,127.0,128.0,124.0,129.0,-1.0,109.0,-81.0,127.0,127.0,127.0,-118.0,-84.0,106.0
128.0,128.0,128.0,129.0,128.0,128.0,125.0,129.0,-1.0,109.0,-81.0,127.0,127.0,127.0,-118.0,-84.0,106.0
127.0,128.0,128.0,129.0,127.0,129.0,124.0,129.0,-1.0,109.0,-81.0,127.0,127.0,127.0,-118.0,-84.0,106.0
127.0,128.0,128.0,129.0,127.0,129.0,124.0,129.0,-1.0,109.0,-81.0,127.0,127.0,127.0,-118.0,-84.0,106.0
127.0,128.0,128.0,129.0,127.0,129.0,124.0,129.0,-1.0,109.0,-81.0,127.0,127.0,127.0,-118.0,-84.0,106.0
127.0,128.0,128.0,129.0,127.0,129.0,124.0,129.0,-1.0,109.0,-81.0,127.0,127.0,127.0,-118.0,-84.0,106.0
127.0,128.0,128.0,129.0,127.0,129.0,124.0,129.0,-1.0,109.0,-81.0,127.0,127.0,127.0,-118.0,-84.0,106.0
128.0,128.0,128.0,129.0,127.0,129.0,124.0,129.0,-1.0,109.0,-81.0,127.0,127.0,127.0,-118.0,-84.0,106.0
128.0,128.0,128.0,129.0,127.0,128.0,124.0,129.0,-1.0,109.0,-81.0,127.0,127.0,127.0,-118.0,-84.0,106.0
128.0,136.0,129.0,129.0,127.0,126.0,128.0,127.0,-1.0,109.0,-81.0,127.0,127.0,127.0,-118.0,-84.0,106.0
128.0,136.0,128.0,129.0,126.0,126.0,128.0,127.0,-1.0,109.0,-81.0,127.0,127.0,127.0,-118.0,-84.0,106.0
129.0,136.0,130.0,129.0,127.0,126.0,127.0,130.0,-1.0,109.0,-81.0,127.0,127.0,127.0,-118.0,-84.0,106.0
129.0,136.0,130.0,129.0,127.0,126.0,127.0,130.0,-1.0,109.0,-81.0,127.0,127.0,127.0,-118.0,-84.0,106.0
129.0,137.0,130.0,129.0,127.0,126.0,127.0,129.0,-1.0,109.0,-81.0,127.0,127.0,127.0,-118.0,-84.0,106.0
129.0,137.0,129.0,129.0,126.0,126.0,127.0,129.0,-1.0,109.0,-81.0,127.0,127.0,127.0,-118.0,-84.0,106.0
129.0,137.0,129.0,129.0,126.0,126.0,127.0,128.0,-1.0,109.0,-81.0,127.0,127.0,127.0,-118.0,-84.0,106.0
129.0,137.0,129.0,129.0,126.0,126.0,127.0,128.0,-1.0,109.0,-81.0,127.0,127.0,127.0,-118.0,-84.0,106.0
129.0,137.0,129.0,129.0,126.0,126.0,127.0,128.0,-1.0,109.0,-81.0,127.0,127.0,127.0,-118.0,-84.0,106.0
129.0,137.0,129.0,129.0,126.0,126.0,128.0,127.0,-1.0,109.0,-81.0,127.0,127.0,127.0,-118.0,-84.0,106.0
129.0,122.0,126.0,132.0,125.0,124.0,125.0,128.0,-1.0,109.0,-81.0,127.0,127.0,127.0,-118.0,-84.0,106.0
129.0,121.0,125.0,131.0,126.0,124.0,122.0,125.0,-1.0,109.0,-81.0,127.0,127.0,127.0,-118.0,-84.0,106.0
130.0,121.0,125.0,131.0,126.0,124.0,122.0,125.0,-1.0,109.0,-81.0,127.0,127.0,127.0,-118.0,-84.0,106.0
130.0,121.0,125.0,131.0,126.0,125.0,123.0,125.0,-1.0,109.0,-81.0,127.0,127.0,127.0,-118.0,-84.0,106.0
130.0,121.0,125.0,131.0,126.0,125.0,123.0,125.0,-1.0,109.0,-81.0,127.0,127.0,127.0,-118.0,-84.0,106.0
130.0,121.0,125.0,131.0,126.0,125.0,123.0,126.0,-1.0,109.0,-81.0,127.0,127.0,127.0,-118.0,-84.0,106.0
130.0,121.0,125.0,131.0,126.0,125.0,123.0,126.0,-1.0,109.0,-81.0,127.0,127.0,127.0,-118.0,-84.0,106.0
130.0,121.0,125.0,131.0,126.0,125.0,124.0,126.0,-1.0,109.0,-81.0,127.0,127.0,127.0,-118.0,-84.0,106.0
130.0,121.0,125.0,131.0,126.0,125.0,124.0,127.0,-1.0,109.0,-81.0,127.0,127.0,127.0,-118.0,-84.0,106.0
129.0,121.0,125.0,131.0,125.0,124.0,125.0,127.0,-1.0,109.0,-81.0,127.0,127.0,127.0,-118.0,-84.0,106.0
124.0,113.0,125.0,135.0,126.0,118.0,140.0,122.0,-1.0,109.0,-82.0,127.0,127.0,127.0,-118.0,-84.0,106.0
124.0,113.0,125.0,135.0,126.0,118.0,139.0,122.0,-1.0,109.0,-82.0,127.0,127.0,127.0,-118.0,-84.0,106.0
125.0,112.0,125.0,135.0,126.0,118.0,138.0,122.0,-1.0,109.0,-82.0,127.0,127.0,127.0,-118.0,-84.0,106.0
125.0,112.0,124.0,135.0,125.0,117.0,137.0,121.0,-1.0,109.0,-82.0,127.0,127.0,127.0,-118.0,-84.0,106.0
126.0,112.0,124.0,135.0,125.0,118.0,136.0,122.0,-1.0,109.0,-82.0,127.0,127.0,127.0,-118.0,-84.0,106.0
126.0,113.0,124.0,135.0,125.0,118.0,136.0,122.0,-1.0,109.0,-82.0,127.0,127.0,127.0,-118.0,-84.0,106.0
126.0,113.0,124.0,135.0,125.0,117.0,136.0,122.0,-1.0,109.0,-82.0,127.0,127.0,127.0,-118.0,-84.0,106.0
126.0,113.0,124.0,135.0,125.0,117.0,137.0,122.0,-1.0,109.0,-82.0,127.0,127.0,127.0,-118.0,-84.0,106.0
126.0,114.0,124.0,135.0,125.0,117.0,137.0,122.0,-1.0,109.0,-82.0,127.0,127.0,127.0,-118.0,-84.0,106.0
126.0,115.0,124.0,135.0,125.0,117.0,137.0,122.0,-1.0,109.0,-82.0,127.0,127.0,127.0,-118.0,-84.0,106.0
137.0,103.0,122.0,134.0,121.0,108.0,123.0,126.0,-1.0,110.0,-83.0,127.0,127.0,127.0,-118.0,-84.0,106.0
136.0,103.0,122.0,134.0,121.0,108.0,122.0,124.0,-1.0,110.0,-83.0,127.0,127.0,127.0,-118.0,-84.0,106.0
134.0,103.0,122.0,133.0,120.0,108.0,122.0,121.0,-1.0,110.0,-83.0,127.0,127.0,127.0,-118.0,-84.0,106.0
132.0,102.0,121.0,133.0,120.0,108.0,121.0,117.0,-1.0,110.0,-83.0,127.0,127.0,127.0,-118.0,-84.0,106.0
130.0,101.0,121.0,133.0,120.0,108.0,121.0,113.0,-1.0,110.0,-83.0,127.0,127.0,127.0,-118.0,-84.0,106.0
127.0,100.0,120.0,132.0,120.0,108.0,120.0,108.0,-1.0,110.0,-83.0,127.0,127.0,127.0,-118.0,-84.0,106.0
124.0,100.0,120.0,132.0,119.0,108.0,118.0,104.0,-1.0,110.0,-83.0,127.0,127.0,127.0,-118.0,-84.0,106.0
122.0,99.0,119.0,132.0,119.0,107.0,116.0,101.0,-1.0,110.0,-83.0,127.0,127.0,127.0,-118.0,-84.0,106.0
121.0,99.0,118.0,131.0,119.0,107.0,115.0,99.0,-1.0,110.0,-83.0,127.0,127.0,127.0,-118.0,-84.0,106.0
137.0,104.0,122.0,134.0,121.0,108.0,123.0,127.0,-1.0,110.0,-83.0,127.0,127.0,127.0,-118.0,-84.0,106.0
141.0,112.0,122.0,130.0,119.0,106.0,93.0,107.0,-1.0,111.0,-83.0,126.0,127.0,127.0,-118.0,-84.0,106.0
141.0,114.0,122.0,129.0,119.0,106.0,93.0,108.0,-1.0,111.0,-83.0,126.0,127.0,127.0,-118.0,-84.0,106.0
141.0,116.0,122.0,129.0,119.0,106.0,93.0,108.0,-1.0,111.0,-83.0,126.0,127.0,127.0,-118.0,-84.0,106.0
141.0,118.0,122.0,129.0,119.0,106.0,93.0,109.0,-1.0,111.0,-83.0,126.0,127.0,127.0,-118.0,-84.0,106.0
141.0,120.0,122.0,129.0,119.0,106.0,93.0,110.0,-1.0,111.0,-83.0,126.0,127.0,127.0,-118.0,-84.0,106.0
141.0,121.0,122.0,129.0,119.0,106.0,92.0,110.0,-1.0,111.0,-83.0,126.0,127.0,127.0,-118.0,-84.0,106.0
142.0,123.0,122.0,129.0,119.0,107.0,92.0,111.0,-1.0,111.0,-83.0,126.0,127.0,127.0,-118.0,-84.0,106.0
142.0,125.0,122.0,129.0,119.0,107.0,92.0,112.0,-1.0,111.0,-83.0,126.0,127.0,127.0,-118.0,-84.0,106.0
140.0,108.0,122.0,130.0,119.0,106.0,94.0,107.0,-1.0,111.0,-83.0,126.0,127.0,127.0,-118.0,-84.0,106.0
141.0,110.0,122.0,130.0,119.0,106.0,94.0,107.0,-1.0,111.0,-83.0,126.0,127.0,127.0,-118.0,-84.0,106.0
131.0,119.0,129.0,131.0,121.0,107.0,99.0,126.0,-1.0,112.0,-84.0,126.0,127.0,127.0,-118.0,-84.0,106.0
131.0,120.0,129.0,131.0,121.0,107.0,100.0,126.0,-1.0,112.0,-84.0,126.0,127.0,127.0,-118.0,-84.0,106.0
132.0,120.0,129.0,131.0,122.0,107.0,101.0,127.0,-1.0,112.0,-84.0,126.0,127.0,127.0,-118.0,-84.0,106.0
132.0,121.0,128.0,131.0,122.0,107.0,102.0,127.0,-1.0,112.0,-84.0,126.0,127.0,127.0,-118.0,-84.0,106.0
132.0,121.0,128.0,131.0,121.0,107.0,102.0,127.0,-1.0,112.0,-84.0,126.0,127.0,127.0,-118.0,-84.0,106.0
133.0,121.0,127.0,131.0,121.0,107.0,102.0,128.0,-1.0,112.0,-84.0,126.0,127.0,127.0,-118.0,-84.0,106.0
134.0,120.0,127.0,131.0,121.0,107.0,103.0,129.0,-1.0,112.0,-84.0,126.0,127.0,127.0,-118.0,-84.0,106.0
130.0,116.0,127.0,130.0,121.0,106.0,98.0,123.0,-1.0,112.0,-84.0,126.0,127.0,127.0,-118.0,-84.0,106.0
130.0,117.0,128.0,130.0,121.0,106.0,98.0,124.0,-1.0,112.0,-84.0,126.0,127.0,127.0,-118.0,-84.0,106.0
131.0,118.0,128.0,130.0,121.0,107.0,99.0,125.0,-1.0,112.0,-84.0,126.0,127.0,127.0,-118.0,-84.0,106.0
131.0,131.0,129.0,133.0,122.0,99.0,125.0,133.0,-1.0,112.0,-85.0,126.0,127.0,127.0,-118.0,-84.0,106.0
130.0,130.0,129.0,133.0,122.0,99.0,126.0,133.0,-1.0,112.0,-85.0,126.0,127.0,127.0,-118.0,-84.0,106.0
130.0,129.0,129.0,133.0,122.0,99.0,126.0,133.0,-1.0,112.0,-85.0,126.0,127.0,127.0,-118.0,-84.0,106.0
129.0,128.0,129.0,133.0,122.0,99.0,125.0,134.0,-1.0,112.0,-85.0,126.0,127.0,127.0,-118.0,-84.0,106.0
128.0,127.0,129.0,133.0,122.0,99.0,125.0,134.0,-1.0,112.0,-85.0,126.0,127.0,127.0,-118.0,-84.0,106.0
128.0,127.0,129.0,133.0,122.0,99.0,124.0,134.0,-1.0,112.0,-85.0,126.0,127.0,127.0,-118.0,-84.0,106.0
133.0,132.0,129.0,132.0,121.0,98.0,121.0,134.0,-1.0,112.0,-85.0,126.0,127.0,127.0,-118.0,-84.0,106.0
132.0,132.0,129.0,132.0,121.0,98.0,121.0,133.0,-1.0,112.0,-85.0,126.0,127.0,127.0,-118.0,-84.0,106.0
132.0,132.0,129.0,133.0,121.0,99.0,122.0,133.0,-1.0,112.0,-85.0,126.0,127.0,127.0,-118.0,-84.0,106.0
132.0,131.0,129.0,133.0,121.0,99.0,124.0,133.0,-1.0,112.0,-85.0,126.0,127.0,127.0,-118.0,-84.0,106.0
128.0,137.0,127.0,132.0,126.0,108.0,126.0,139.0,-1.0,110.0,-85.0,126.0,127.0,127.0,-118.0,-84.0,106.0
128.0,135.0,127.0,132.0,126.0,108.0,127.0,139.0,-1.0,110.0,-85.0,126.0,127.0,127.0,-118.0,-84.0,106.0
128.0,133.0,127.0,132.0,126.0,109.0,128.0,139.0,-1.0,110.0,-85.0,126.0,127.0,127.0,-118.0,-84.0,106.0
128.0,132.0,127.0,132.0,126.0,110.0,128.0,140.0,-1.0,110.0,-85.0,126.0,127.0,127.0,-118.0,-84.0,106.0
128.0,132.0,127.0,133.0,126.0,110.0,128.0,140.0,-1.0,110.0,-85.0,126.0,127.0,127.0,-118.0,-84.0,106.0
130.0,146.0,129.0,132.0,127.0,109.0,126.0,141.0,-1.0,110.0,-85.0,126.0,127.0,127.0,-118.0,-84.0,106.0
130.0,146.0,129.0,132.0,127.0,109.0,126.0,141.0,-1.0,110.0,-85.0,126.0,127.0,127.0,-118.0,-84.0,106.0
130.0,144.0,128.0,132.0,127.0,109.0,125.0,140.0,-1.0,110.0,-85.0,126.0,127.0,127.0,-118.0,-84.0,106.0
130.0,142.0,128.0,132.0,127.0,109.0,125.0,140.0,-1.0,110.0,-85.0,126.0,127.0,127.0,-118.0,-84.0,106.0
129.0,140.0,128.0,132.0,126.0,109.0,126.0,140.0,-1.0,110.0,-85.0,126.0,127.0,127.0,-118.0,-84.0,106.0
126.0,134.0,131.0,135.0,128.0,122.0,125.0,135.0,-1.0,106.0,-82.0,126.0,127.0,127.0,-117.0,-84.0,106.0
126.0,132.0,131.0,136.0,128.0,122.0,126.0,135.0,-1.0,106.0,-82.0,126.0,127.0,127.0,-117.0,-84.0,106.0
127.0,131.0,131.0,136.0,129.0,122.0,127.0,136.0,-1.0,106.0,-82.0,126.0,127.0,127.0,-117.0,-84.0,106.0
128.0,130.0,131.0,136.0,129.0,122.0,127.0,136.0,-1.0,106.0,-82.0,126.0,127.0,127.0,-117.0,-84.0,106.0
128.0,145.0,132.0,136.0,129.0,122.0,124.0,135.0,-1.0,106.0,-82.0,126.0,127.0,127.0,-117.0,-84.0,106.0
127.0,143.0,131.0,136.0,129.0,122.0,124.0,135.0,-1.0,106.0,-82.0,126.0,127.0,127.0,-117.0,-84.0,106.0
127.0,141.0,131.0,135.0,129.0,122.0,124.0,135.0,-1.0,106.0,-82.0,126.0,127.0,127.0,-117.0,-84.0,106.0
126.0,139.0,130.0,135.0,128.0,122.0,123.0,135.0,-1.0,106.0,-82.0,126.0,127.0,127.0,-117.0,-84.0,106.0
126.0,137.0,130.0,135.0,128.0,121.0,123.0,135.0,-1.0,106.0,-82.0,126.0,127.0,127.0,-117.0,-84.0,106.0
125.0,135.0,131.0,135.0,128.0,121.0,124.0,135.0,-1.0,106.0,-82.0,126.0,127.0,127.0,-117.0,-84.0,106.0
127.0,126.0,131.0,134.0,130.0,125.0,121.0,135.0,-1.0,102.0,-79.0,126.0,127.0,-128.0,-116.0,-84.0,106.0
127.0,127.0,131.0,134.0,130.0,125.0,121.0,134.0,-1.0,102.0,-79.0,126.0,127.0,-128.0,-116.0,-84.0,106.0
126.0,121.0,129.0,134.0,129.0,125.0,122.0,137.0,-1.0,102.0,-79.0,126.0,127.0,-128.0,-116.0,-84.0,106.0
127.0,121.0,130.0,134.0,130.0,125.0,122.0,137.0,-1.0,102.0,-79.0,126.0,127.0,-128.0,-116.0,-84.0,106.0
127.0,121.0,130.0,134.0,130.0,125.0,122.0,136.0,-1.0,102.0,-79.0,126.0,127.0,-128.0,-116.0,-84.0,106.0
127.0,122.0,130.0,134.0,130.0,125.0,122.0,135.0,-1.0,102.0,-79.0,126.0,127.0,-128.0,-116.0,-84.0,106.0
128.0,122.0,130.0,134.0,130.0,125.0,122.0,135.0,-1.0,102.0,-79.0,126.0,127.0,-128.0,-116.0,-84.0,106.0
128.0,122.0,130.0,134.0,130.0,125.0,121.0,135.0,-1.0,102.0,-79.0,126.0,127.0,-128.0,-116.0,-84.0,106.0
128.0,123.0,130.0,134.0,129.0,125.0,121.0,135.0,-1.0,102.0,-79.0,126.0,127.0,-128.0,-116.0,-84.0,106.0
127.0,124.0,131.0,134.0,130.0,125.0,121.0,135.0,-1.0,102.0,-79.0,126.0,127.0,-128.0,-116.0,-84.0,106.0
126.0,123.0,130.0,133.0,130.0,124.0,121.0,133.0,-1.0,101.0,-77.0,126.0,127.0,127.0,-116.0,-84.0,106.0
127.0,124.0,130.0,133.0,130.0,124.0,121.0,133.0,-1.0,101.0,-77.0,126.0,127.0,127.0,-116.0,-84.0,106.0
123.0,124.0,130.0,132.0,129.0,123.0,120.0,133.0,-1.0,101.0,-77.0,126.0,127.0,127.0,-116.0,-84.0,106.0
123.0,124.0,129.0,132.0,130.0,123.0,120.0,132.0,-1.0,101.0,-77.0,126.0,127.0,127.0,-116.0,-84.0,106.0
123.0,123.0,129.0,132.0,130.0,123.0,120.0,132.0,-1.0,101.0,-77.0,126.0,127.0,127.0,-116.0,-84.0,106.0
123.0,123.0,129.0,132.0,129.0,123.0,120.0,132.0,-1.0,101.0,-77.0,126.0,127.0,127.0,-116.0,-84.0,106.0
123.0,122.0,129.0,132.0,130.0,123.0,120.0,132.0,-1.0,101.0,-77.0,126.0,127.0,127.0,-116.0,-84.0,106.0
124.0,123.0,129.0,132.0,129.0,124.0,120.0,132.0,-1.0,101.0,-77.0,126.0,127.0,127.0,-116.0,-84.0,106.0
125.0,123.0,129.0,133.0,130.0,124.0,120.0,133.0,-1.0,101.0,-77.0,126.0,127.0,127.0,-116.0,-84.0,106.0
125.0,123.0,130.0,133.0,130.0,124.0,121.0,133.0,-1.0,101.0,-77.0,126.0,127.0,127.0,-116.0,-84.0,106.0
123.0,126.0,127.0,131.0,129.0,124.0,122.0,130.0,-1.0,104.0,-78.0,126.0,127.0,127.0,-116.0,-84.0,106.0
123.0,126.0,127.0,131.0,129.0,124.0,124.0,129.0,-1.0,104.0,-78.0,126.0,127.0,127.0,-116.0,-84.0,106.0
124.0,126.0,127.0,131.0,129.0,124.0,124.0,129.0,-1.0,104.0,-78.0,126.0,127.0,127.0,-116.0,-84.0,106.0
124.0,127.0,127.0,131.0,129.0,124.0,124.0,130.0,-1.0,104.0,-78.0,126.0,127.0,127.0,-116.0,-84.0,106.0
124.0,127.0,127.0,131.0,129.0,124.0,123.0,130.0,-1.0,104.0,-78.0,126.0,127.0,127.0,-116.0,-84.0,106.0
125.0,127.0,128.0,131.0,129.0,124.0,122.0,130.0,-1.0,104.0,-78.0,126.0,127.0,127.0,-116.0,-84.0,106.0
125.0,127.0,127.0,131.0,129.0,124.0,122.0,130.0,-1.0,104.0,-78.0,126.0,127.0,127.0,-116.0,-84.0,106.0
125.0,128.0,127.0,131.0,129.0,124.0,121.0,130.0,-1.0,104.0,-78.0,126.0,127.0,127.0,-116.0,-84.0,106.0
125.0,127.0,127.0,131.0,129.0,124.0,121.0,130.0,-1.0,104.0,-78.0,126.0,127.0,127.0,-116.0,-84.0,106.0
125.0,127.0,127.0,131.0,129.0,124.0,122.0,130.0,-1.0,104.0,-78.0,126.0,127.0,127.0,-116.0,-84.0,106.0
125.0,127.0,128.0,128.0,128.0,123.0,125.0,127.0,-1.0,106.0,-80.0,126.0,127.0,127.0,-116.0,-84.0,106.0
125.0,127.0,128.0,128.0,128.0,123.0,126.0,127.0,-1.0,106.0,-80.0,126.0,127.0,127.0,-116.0,-84.0,106.0
125.0,128.0,128.0,128.0,128.0,123.0,126.0,127.0,-1.0,106.0,-80.0,126.0,127.0,127.0,-116.0,-84.0,106.0
125.0,128.0,128.0,128.0,128.0,123.0,126.0,127.0,-1.0,106.0,-80.0,126.0,127.0,127.0,-116.0,-84.0,106.0
125.0,129.0,128.0,128.0,128.0,123.0,126.0,128.0,-1.0,106.0,-80.0,126.0,127.0,127.0,-116.0,-84.0,106.0
125.0,129.0,128.0,128.0,128.0,123.0,126.0,128.0,-1.0,106.0,-80.0,126.0,127.0,127.0,-116.0,-84.0,106.0
125.0,129.0,128.0,128.0,128.0,123.0,126.0,129.0,-1.0,106.0,-80.0,126.0,127.0,127.0,-116.0,-84.0,106.0
125.0,129.0,128.0,128.0,128.0,124.0,125.0,129.0,-1.0,106.0,-80.0,126.0,127.0,127.0,-116.0,-84.0,106.0
125.0,129.0,128.0,128.0,128.0,124.0,125.0,129.0,-1.0,106.0,-80.0,126.0,127.0,127.0,-116.0,-84.0,106.0
125.0,129.0,128.0,128.0,128.0,124.0,125.0,129.0,-1.0,106.0,-80.0,126.0,127.0,127.0,-116.0,-84.0,106.0
125.0,129.0,128.0,128.0,128.0,122.0,127.0,128.0,-1.0,106.0,-82.0,127.0,127.0,127.0,-116.0,-84.0,106.0
125.0,129.0,128.0,128.0,128.0,122.0,127.0,128.0,-1.0,106.0,-82.0,127.0,127.0,127.0,-116.0,-84.0,106.0
125.0,130.0,128.0,128.0,128.0,122.0,127.0,128.0,-1.0,106.0,-82.0,127.0,127.0,127.0,-116.0,-84.0,106.0
125.0,130.0,128.0,128.0,128.0,122.0,126.0,128.0,-1.0,106.0,-82.0,127.0,127.0,127.0,-116.0,-84.0,106.0
125.0,130.0,128.0,128.0,128.0,123.0,126.0,128.0,-1.0,106.0,-82.0,127.0,127.0,127.0,-116.0,-84.0,106.0
125.0,130.0,127.0,128.0,128.0,123.0,125.0,128.0,-1.0,106.0,-82.0,127.0,127.0,127.0,-116.0,-84.0,106.0
125.0,129.0,127.0,128.0,128.0,123.0,125.0,128.0,-1.0,106.0,-82.0,127.0,127.0,127.0,-116.0,-84.0,106.0
125.0,128.0,127.0,128.0,128.0,123.0,125.0,128.0,-1.0,106.0,-82.0,127.0,127.0,127.0,-116.0,-84.0,106.0
125.0,129.0,127.0,128.0,128.0,122.0,127.0,127.0,-1.0,106.0,-82.0,127.0,127.0,127.0,-116.0,-84.0,106.0
125.0,129.0,128.0,128.0,128.0,122.0,127.0,127.0,-1.0,106.0,-82.0,127.0,127.0,127.0,-116.0,-84.0,106.0
127.0,131.0,127.0,127.0,128.0,124.0,126.0,130.0,-1.0,105.0,-83.0,127.0,127.0,127.0,-116.0,-84.0,106.0
127.0,131.0,127.0,127.0,127.0,124.0,126.0,131.0,-1.0,105.0,-83.0,127.0,127.0,127.0,-116.0,-84.0,106.0
127.0,131.0,127.0,127.0,127.0,124.0,127.0,131.0,-1.0,105.0,-83.0,127.0,127.0,127.0,-116.0,-84.0,106.0
127.0,132.0,126.0,127.0,127.0,124.0,126.0,131.0,-1.0,105.0,-83.0,127.0,127.0,127.0,-116.0,-84.0,106.0
127.0,132.0,126.0,127.0,127.0,124.0,126.0,131.0,-1.0,105.0,-83.0,127.0,127.0,127.0,-116.0,-84.0,106.0
127.0,132.0,126.0,127.0,127.0,124.0,126.0,131.0,-1.0,105.0,-83.0,127.0,127.0,127.0,-116.0,-84.0,106.0
127.0,131.0,126.0,127.0,127.0,124.0,126.0,131.0,-1.0,105.0,-83.0,127.0,127.0,127.0,-116.0,-84.0,106.0
127.0,130.0,127.0,127.0,127.0,124.0,127.0,130.0,-1.0,105.0,-83.0,127.0,127.0,127.0,-116.0,-84.0,106.0
126.0,130.0,127.0,127.0,128.0,124.0,126.0,130.0,-1.0,105.0,-83.0,127.0,127.0,127.0,-116.0,-84.0,106.0
127.0,130.0,127.0,127.0,127.0,124.0,126.0,130.0,-1.0,105.0,-83.0,127.0,127.0,127.0,-116.0,-84.0,106.0
126.0,125.0,127.0,128.0,127.0,125.0,126.0,131.0,-1.0,105.0,-84.0,127.0,127.0,127.0,-115.0,-84.0,106.0
126.0,125.0,127.0,128.0,127.0,125.0,127.0,131.0,-1.0,105.0,-84.0,127.0,127.0,127.0,-115.0,-84.0,106.0
127.0,124.0,127.0,127.0,127.0,125.0,127.0,131.0,-1.0,105.0,-84.0,127.0,127.0,127.0,-115.0,-84.0,106.0
127.0,124.0,126.0,128.0,127.0,126.0,127.0,131.0,-1.0,105.0,-84.0,127.0,127.0,127.0,-115.0,-84.0,106.0
127.0,123.0,126.0,127.0,127.0,126.0,127.0,132.0,-1.0,105.0,-84.0,127.0,127.0,127.0,-115.0,-84.0,106.0
127.0,123.0,126.0,127.0,127.0,126.0,127.0,132.0,-1.0,105.0,-84.0,127.0,127.0,127.0,-115.0,-84.0,106.0
124.0,125.0,127.0,128.0,127.0,125.0,126.0,131.0,-1.0,105.0,-84.0,127.0,127.0,127.0,-115.0,-84.0,106.0
125.0,125.0,127.0,128.0,127.0,125.0,126.0,131.0,-1.0,105.0,-84.0,127.0,127.0,127.0,-115.0,-84.0,106.0
125.0,125.0,127.0,128.0,127.0,125.0,126.0,131.0,-1.0,105.0,-84.0,127.0,127.0,127.0,-115.0,-84.0,106.0
125.0,125.0,127.0,128.0,127.0,125.0,126.0,131.0,-1.0,105.0,-84.0,127.0,127.0,127.0,-115.0,-84.0,106.0
127.0,127.0,126.0,128.0,128.0,124.0,127.0,134.0,-1.0,104.0,-84.0,127.0,127.0,127.0,-115.0,-84.0,106.0
126.0,126.0,126.0,128.0,128.0,124.0,128.0,133.0,-1.0,104.0,-84.0,127.0,127.0,127.0,-115.0,-84.0,106.0
126.0,125.0,126.0,127.0,128.0,124.0,128.0,132.0,-1.0,104.0,-84.0,127.0,127.0,127.0,-115.0,-84.0,106.0
126.0,124.0,125.0,127.0,128.0,124.0,128.0,132.0,-1.0,104.0,-84.0,127.0,127.0,127.0,-115.0,-84.0,106.0
126.0,124.0,125.0,128.0,128.0,125.0,128.0,132.0,-1.0,104.0,-84.0,127.0,127.0,127.0,-115.0,-84.0,106.0
128.0,131.0,127.0,128.0,128.0,125.0,127.0,132.0,-1.0,104.0,-84.0,127.0,127.0,127.0,-115.0,-84.0,106.0
128.0,130.0,127.0,128.0,128.0,125.0,127.0,133.0,-1.0,104.0,-84.0,127.0,127.0,127.0,-115.0,-84.0,106.0
128.0,129.0,127.0,128.0,128.0,125.0,127.0,134.0,-1.0,104.0,-84.0,127.0,127.0,127.0,-115.0,-84.0,106.0
128.0,129.0,127.0,128.0,128.0,124.0,127.0,134.0,-1.0,104.0,-84.0,127.0,127.0,127.0,-115.0,-84.0,106.0
127.0,128.0,126.0,128.0,128.0,124.0,127.0,134.0,-1.0,104.0,-84.0,127.0,127.0,127.0,-115.0,-84.0,106.0
127.0,138.0,128.0,127.0,127.0,126.0,125.0,130.0,-1.0,104.0,-85.0,127.0,127.0,127.0,-115.0,-84.0,106.0
126.0,136.0,128.0,127.0,127.0,126.0,125.0,130.0,-1.0,104.0,-85.0,127.0,127.0,127.0,-115.0,-84.0,106.0
126.0,134.0,127.0,127.0,127.0,126.0,126.0,130.0,-1.0,104.0,-85.0,127.0,127.0,127.0,-115.0,-84.0,106.0
126.0,132.0,127.0,128.0,127.0,126.0,126.0,131.0,-1.0,104.0,-85.0,127.0,127.0,127.0,-115.0,-84.0,106.0
127.0,138.0,128.0,128.0,127.0,126.0,127.0,130.0,-1.0,104.0,-85.0,127.0,127.0,127.0,-115.0,-84.0,106.0
127.0,138.0,129.0,128.0,127.0,125.0,126.0,130.0,-1.0,104.0,-85.0,127.0,127.0,127.0,-115.0,-84.0,106.0
127.0,139.0,129.0,128.0,127.0,125.0,126.0,130.0,-1.0,104.0,-85.0,127.0,127.0,127.0,-115.0,-84.0,106.0
127.0,139.0,128.0,128.0,127.0,126.0,126.0,130.0,-1.0,104.0,-85.0,127.0,127.0,127.0,-115.0,-84.0,106.0
127.0,139.0,128.0,128.0,127.0,126.0,126.0,130.0,-1.0,104.0,-85.0,127.0,127.0,127.0,-115.0,-84.0,106.0
127.0,138.0,128.0,128.0,127.0,126.0,125.0,130.0,-1.0,104.0,-85.0,127.0,127.0,127.0,-115.0,-84.0,106.0
126.0,127.0,127.0,127.0,127.0,127.0,128.0,129.0,-1.0,104.0,-85.0,127.0,127.0,127.0,-115.0,-84.0,106.0
125.0,127.0,127.0,127.0,127.0,127.0,127.0,128.0,-1.0,104.0,-85.0,127.0,127.0,127.0,-115.0,-84.0,106.0
125.0,127.0,127.0,127.0,127.0,127.0,127.0,128.0,-1.0,104.0,-85.0,127.0,127.0,127.0,-115.0,-84.0,106.0
127.0,126.0,127.0,127.0,128.0,126.0,128.0,132.0,-1.0,104.0,-85.0,127.0,127.0,127.0,-115.0,-84.0,106.0
127.0,127.0,127.0,127.0,127.0,126.0,128.0,132.0,-1.0,104.0,-85.0,127.0,127.0,127.0,-115.0,-84.0,106.0
127.0,127.0,127.0,127.0,127.0,126.0,128.0,131.0,-1.0,104.0,-85.0,127.0,127.0,127.0,-115.0,-84.0,106.0
127.0,127.0,127.0,127.0,127.0,126.0,128.0,131.0,-1.0,104.0,-85.0,127.0,127.0,127.0,-115.0,-84.0,106.0
127.0,128.0,127.0,127.0,127.0,127.0,128.0,131.0,-1.0,104.0,-85.0,127.0,127.0,127.0,-115.0,-84.0,106.0
127.0,128.0,127.0,127.0,127.0,127.0,128.0,130.0,-1.0,104.0,-85.0,127.0,127.0,127.0,-115.0,-84.0,106.0
126.0,128.0,127.0,127.0,127.0,127.0,128.0,130.0,-1.0,104.0,-85.0,127.0,127.0,127.0,-115.0,-84.0,106.0
126.0,127.0,127.0,127.0,127.0,127.0,129.0,128.0,-1.0,104.0,-85.0,127.0,127.0,127.0,-115.0,-84.0,106.0
127.0,128.0,127.0,127.0,127.0,127.0,129.0,128.0,-1.0,104.0,-85.0,127.0,127.0,127.0,-115.0,-84.0,106.0
125.0,127.0,127.0,127.0,127.0,127.0,128.0,128.0,-1.0,104.0,-85.0,127.0,127.0,127.0,-115.0,-84.0,106.0
125.0,127.0,127.0,127.0,127.0,127.0,128.0,128.0,-1.0,104.0,-85.0,127.0,127.0,127.0,-115.0,-84.0,106.0
125.0,127.0,127.0,127.0,127.0,127.0,128.0,128.0,-1.0,104.0,-85.0,127.0,127.0,127.0,-115.0,-84.0,106.0
126.0,127.0,126.0,127.0,127.0,127.0,129.0,127.0,-1.0,104.0,-85.0,127.0,127.0,127.0,-115.0,-84.0,106.0
126.0,127.0,126.0,127.0,127.0,127.0,128.0,127.0,-1.0,104.0,-85.0,127.0,127.0,127.0,-115.0,-84.0,106.0
126.0,127.0,126.0,127.0,127.0,127.0,128.0,127.0,-1.0,104.0,-85.0,127.0,127.0,127.0,-115.0,-84.0,106.0
126.0,128.0,126.0,127.0,127.0,127.0,129.0,128.0,-1.0,104.0,-85.0,127.0,127.0,127.0,-115.0,-84.0,106.0
126.0,128.0,127.0,127.0,127.0,127.0,129.0,128.0,-1.0,104.0,-85.0,127.0,127.0,127.0,-115.0,-84.0,106.0
126.0,129.0,127.0,128.0,127.0,126.0,126.0,128.0,-1.0,104.0,-84.0,127.0,127.0,127.0,-115.0,-84.0,106.0
126.0,128.0,127.0,128.0,127.0,126.0,127.0,128.0,-1.0,104.0,-84.0,127.0,127.0,127.0,-115.0,-84.0,106.0
126.0,128.0,127.0,128.0,127.0,126.0,127.0,128.0,-1.0,104.0,-84.0,127.0,127.0,127.0,-115.0,-84.0,106.0
126.0,128.0,128.0,128.0,127.0,126.0,127.0,128.0,-1.0,104.0,-84.0,127.0,127.0,127.0,-115.0,-84.0,106.0
126.0,128.0,128.0,128.0,127.0,126.0,126.0,128.0,-1.0,104.0,-84.0,127.0,127.0,127.0,-115.0,-84.0,106.0
126.0,128.0,127.0,128.0,127.0,127.0,126.0,128.0,-1.0,104.0,-84.0,127.0,127.0,127.0,-115.0,-84.0,106.0
126.0,128.0,127.0,128.0,127.0,127.0,126.0,128.0,-1.0,104.0,-84.0,127.0,127.0,127.0,-115.0,-84.0,106.0
126.0,128.0,127.0,128.0,127.0,127.0,126.0,128.0,-1.0,104.0,-84.0,127.0,127.0,127.0,-115.0,-84.0,106.0
126.0,129.0,127.0,128.0,127.0,126.0,126.0,128.0,-1.0,104.0,-84.0,127.0,127.0,127.0,-115.0,-84.0,106.0
126.0,129.0,127.0,128.0,127.0,126.0,126.0,128.0,-1.0,104.0,-84.0,127.0,127.0,127.0,-115.0,-84.0,106.0
126.0,127.0,127.0,127.0,127.0,126.0,127.0,128.0,-1.0,105.0,-84.0,127.0,127.0,127.0,-114.0,-84.0,106.0
126.0,126.0,127.0,127.0,127.0,125.0,127.0,128.0,-1.0,105.0,-84.0,127.0,127.0,127.0,-114.0,-84.0,106.0
126.0,125.0,127.0,127.0,127.0,125.0,126.0,128.0,-1.0,105.0,-84.0,127.0,127.0,127.0,-114.0,-84.0,106.0
126.0,125.0,127.0,127.0,127.0,125.0,126.0,128.0,-1.0,105.0,-84.0,127.0,127.0,127.0,-114.0,-84.0,106.0
126.0,125.0,127.0,127.0,127.0,126.0,126.0,128.0,-1.0,105.0,-84.0,127.0,127.0,127.0,-114.0,-84.0,106.0
126.0,124.0,127.0,127.0,127.0,126.0,126.0,128.0,-1.0,105.0,-84.0,127.0,127.0,127.0,-114.0,-84.0,106.0
126.0,124.0,127.0,127.0,127.0,126.0,126.0,128.0,-1.0,105.0,-84.0,127.0,127.0,127.0,-114.0,-84.0,106.0
126.0,124.0,127.0,127.0,127.0,126.0,126.0,128.0,-1.0,105.0,-84.0,127.0,127.0,127.0,-114.0,-84.0,106.0
126.0,124.0,127.0,127.0,127.0,126.0,126.0,128.0,-1.0,105.0,-84.0,127.0,127.0,127.0,-114.0,-84.0,106.0
126.0,124.0,127.0,127.0,127.0,126.0,126.0,128.0,-1.0,105.0,-84.0,127.0,127.0,127.0,-114.0,-84.0,106.0
127.0,131.0,127.0,127.0,127.0,126.0,127.0,128.0,-1.0,105.0,-83.0,127.0,127.0,127.0,-114.0,-84.0,106.0
127.0,131.0,127.0,127.0,127.0,126.0,127.0,128.0,-1.0,105.0,-83.0,127.0,127.0,127.0,-114.0,-84.0,106.0
127.0,131.0,127.0,127.0,127.0,126.0,127.0,128.0,-1.0,105.0,-83.0,127.0,127.0,127.0,-114.0,-84.0,106.0
127.0,130.0,127.0,127.0,127.0,126.0,127.0,128.0,-1.0,105.0,-83.0,127.0,127.0,127.0,-114.0,-84.0,106.0
126.0,130.0,127.0,127.0,127.0,126.0,127.0,128.0,-1.0,105.0,-83.0,127.0,127.0,127.0,-114.0,-84.0,106.0
126.0,129.0,127.0,127.0,127.0,126.0,127.0,128.0,-1.0,105.0,-83.0,127.0,127.0,127.0,-114.0,-84.0,106.0
126.0,129.0,128.0,127.0,127.0,126.0,128.0,128.0,-1.0,105.0,-83.0,127.0,127.0,127.0,-114.0,-84.0,106.0
126.0,128.0,128.0,127.0,127.0,126.0,128.0,128.0,-1.0,105.0,-83.0,127.0,127.0,127.0,-114.0,-84.0,106.0
126.0,128.0,128.0,127.0,127.0,126.0,128.0,128.0,-1.0,105.0,-83.0,127.0,127.0,127.0,-114.0,-84.0,106.0
127.0,131.0,127.0,127.0,127.0,126.0,127.0,128.0,-1.0,105.0,-83.0,127.0,127.0,127.0,-114.0,-84.0,106.0
124.0,128.0,127.0,128.0,127.0,127.0,126.0,127.0,-1.0,105.0,-83.0,127.0,127.0,127.0,-114.0,-84.0,106.0
124.0,128.0,127.0,128.0,127.0,127.0,126.0,127.0,-1.0,105.0,-83.0,127.0,127.0,127.0,-114.0,-84.0,106.0
124.0,127.0,127.0,127.0,127.0,127.0,126.0,127.0,-1.0,105.0,-83.0,127.0,127.0,127.0,-114.0,-84.0,106.0
124.0,126.0,127.0,127.0,127.0,126.0,126.0,126.0,-1.0,105.0,-83.0,127.0,127.0,127.0,-114.0,-84.0,106.0
124.0,126.0,127.0,127.0,127.0,126.0,126.0,126.0,-1.0,105.0,-83.0,127.0,127.0,127.0,-114.0,-84.0,106.0
124.0,126.0,127.0,127.0,127.0,126.0,126.0,126.0,-1.0,105.0,-83.0,127.0,127.0,127.0,-114.0,-84.0,106.0
124.0,126.0,127.0,127.0,127.0,126.0,126.0,126.0,-1.0,105.0,-83.0,127.0,127.0,127.0,-114.0,-84.0,106.0
125.0,125.0,127.0,127.0,127.0,126.0,126.0,127.0,-1.0,105.0,-83.0,127.0,127.0,127.0,-114.0,-84.0,106.0
125.0,129.0,127.0,128.0,127.0,127.0,126.0,128.0,-1.0,105.0,-83.0,127.0,127.0,127.0,-114.0,-84.0,106.0
124.0,129.0,127.0,128.0,127.0,127.0,126.0,128.0,-1.0,105.0,-83.0,127.0,127.0,127.0,-114.0,-84.0,106.0
126.0,128.0,127.0,128.0,127.0,127.0,136.0,127.0,-1.0,105.0,-83.0,127.0,127.0,127.0,-114.0,-84.0,106.0
126.0,128.0,128.0,128.0,127.0,127.0,136.0,127.0,-1.0,105.0,-83.0,127.0,127.0,127.0,-114.0,-84.0,106.0
126.0,128.0,128.0,128.0,127.0,127.0,136.0,127.0,-1.0,105.0,-83.0,127.0,127.0,127.0,-114.0,-84.0,106.0
126.0,128.0,128.0,128.0,127.0,127.0,136.0,127.0,-1.0,105.0,-83.0,127.0,127.0,127.0,-114.0,-84.0,106.0
126.0,128.0,128.0,128.0,127.0,127.0,136.0,127.0,-1.0,105.0,-83.0,127.0,127.0,127.0,-114.0,-84.0,106.0
126.0,128.0,128.0,128.0,127.0,127.0,136.0,128.0,-1.0,105.0,-83.0,127.0,127.0,127.0,-114.0,-84.0,106.0
126.0,128.0,128.0,128.0,127.0,127.0,136.0,127.0,-1.0,105.0,-83.0,127.0,127.0,127.0,-114.0,-84.0,106.0
126.0,127.0,128.0,127.0,127.0,126.0,136.0,127.0,-1.0,105.0,-83.0,127.0,127.0,127.0,-114.0,-84.0,106.0
126.0,128.0,127.0,127.0,127.0,126.0,136.0,127.0,-1.0,105.0,-83.0,127.0,127.0,127.0,-114.0,-84.0,106.0
126.0,128.0,127.0,127.0,127.0,127.0,136.0,127.0,-1.0,105.0,-83.0,127.0,127.0,127.0,-114.0,-84.0,106.0
126.0,127.0,128.0,128.0,127.0,127.0,136.0,126.0,-1.0,105.0,-83.0,127.0,127.0,127.0,-114.0,-84.0,106.0
126.0,127.0,128.0,128.0,127.0,127.0,136.0,126.0,-1.0,105.0,-83.0,127.0,127.0,127.0,-114.0,-84.0,106.0
126.0,127.0,128.0,128.0,127.0,127.0,136.0,126.0,-1.0,105.0,-83.0,127.0,127.0,127.0,-114.0,-84.0,106.0
126.0,127.0,128.0,128.0,127.0,127.0,136.0,127.0,-1.0,105.0,-83.0,127.0,127.0,127.0,-114.0,-84.0,106.0
126.0,127.0,128.0,128.0,127.0,128.0,136.0,127.0,-1.0,105.0,-83.0,127.0,127.0,127.0,-114.0,-84.0,106.0
126.0,127.0,128.0,128.0,127.0,128.0,136.0,127.0,-1.0,105.0,-83.0,127.0,127.0,127.0,-114.0,-84.0,106.0
126.0,127.0,128.0,128.0,127.0,127.0,137.0,126.0,-1.0,105.0,-83.0,127.0,127.0,127.0,-114.0,-84.0,106.0
126.0,127.0,128.0,128.0,127.0,127.0,137.0,126.0,-1.0,105.0,-83.0,127.0,127.0,127.0,-114.0,-84.0,106.0
126.0,127.0,128.0,128.0,127.0,127.0,137.0,127.0,-1.0,105.0,-83.0,127.0,127.0,127.0,-114.0,-84.0,106.0
126.0,127.0,128.0,128.0,127.0,127.0,136.0,127.0,-1.0,105.0,-83.0,127.0,127.0,127.0,-114.0,-84.0,106.0
125.0,127.0,128.0,128.0,127.0,127.0,135.0,126.0,-1.0,105.0,-82.0,127.0,127.0,127.0,-114.0,-84.0,106.0
125.0,126.0,128.0,128.0,127.0,127.0,135.0,126.0,-1.0,105.0,-82.0,127.0,127.0,127.0,-114.0,-84.0,106.0
125.0,126.0,128.0,128.0,127.0,128.0,135.0,126.0,-1.0,105.0,-82.0,127.0,127.0,127.0,-114.0,-84.0,106.0
125.0,127.0,128.0,128.0,127.0,128.0,134.0,126.0,-1.0,105.0,-82.0,127.0,127.0,127.0,-114.0,-84.0,106.0
125.0,127.0,128.0,128.0,127.0,126.0,136.0,126.0,-1.0,105.0,-82.0,127.0,127.0,127.0,-114.0,-84.0,106.0
125.0,127.0,128.0,128.0,127.0,127.0,136.0,126.0,-1.0,105.0,-82.0,127.0,127.0,127.0,-114.0,-84.0,106.0
125.0,127.0,128.0,128.0,127.0,127.0,136.0,126.0,-1.0,105.0,-82.0,127.0,127.0,127.0,-114.0,-84.0,106.0
126.0,127.0,128.0,128.0,127.0,127.0,135.0,126.0,-1.0,105.0,-82.0,127.0,127.0,127.0,-114.0,-84.0,106.0
125.0,127.0,128.0,128.0,127.0,127.0,135.0,126.0,-1.0,105.0,-82.0,127.0,127.0,127.0,-114.0,-84.0,106.0
125.0,127.0,128.0,128.0,127.0,127.0,135.0,126.0,-1.0,105.0,-82.0,127.0,127.0,127.0,-114.0,-84.0,106.0
125.0,126.0,128.0,128.0,127.0,127.0,134.0,125.0,-1.0,104.0,-82.0,127.0,127.0,127.0,-114.0,-84.0,106.0
125.0,126.0,128.0,128.0,127.0,127.0,134.0,125.0,-1.0,104.0,-82.0,127.0,127.0,127.0,-114.0,-84.0,106.0
125.0,126.0,128.0,128.0,127.0,128.0,133.0,125.0,-1.0,104.0,-82.0,127.0,127.0,127.0,-114.0,-84.0,106.0
125.0,126.0,128.0,128.0,127.0,126.0,135.0,125.0,-1.0,104.0,-82.0,127.0,127.0,127.0,-114.0,-84.0,106.0
125.0,126.0,128.0,128.0,127.0,126.0,135.0,125.0,-1.0,104.0,-82.0,127.0,127.0,127.0,-114.0,-84.0,106.0
125.0,126.0,128.0,128.0,127.0,127.0,135.0,125.0,-1.0,104.0,-82.0,127.0,127.0,127.0,-114.0,-84.0,106.0
125.0,126.0,128.0,128.0,127.0,127.0,134.0,125.0,-1.0,104.0,-82.0,127.0,127.0,127.0,-114.0,-84.0,106.0
125.0,126.0,128.0,128.0,127.0,127.0,134.0,125.0,-1.0,104.0,-82.0,127.0,127.0,127.0,-114.0,-84.0,106.0
125.0,126.0,128.0,128.0,127.0,127.0,134.0,125.0,-1.0,104.0,-82.0,127.0,127.0,127.0,-114.0,-84.0,106.0
125.0,126.0,128.0,128.0,127.0,127.0,134.0,125.0,-1.0,104.0,-82.0,127.0,127.0,127.0,-114.0,-84.0,106.0
125.0,126.0,128.0,128.0,127.0,129.0,130.0,125.0,-1.0,104.0,-82.0,127.0,127.0,127.0,-114.0,-84.0,106.0
125.0,126.0,128.0,128.0,127.0,130.0,129.0,125.0,-1.0,104.0,-82.0,127.0,127.0,127.0,-114.0,-84.0,106.0
125.0,126.0,128.0,127.0,127.0,127.0,131.0,125.0,-1.0,104.0,-82.0,127.0,127.0,127.0,-114.0,-84.0,106.0
125.0,126.0,128.0,127.0,127.0,127.0,130.0,125.0,-1.0,104.0,-82.0,127.0,127.0,127.0,-114.0,-84.0,106.0
125.0,126.0,128.0,128.0,127.0,127.0,130.0,125.0,-1.0,104.0,-82.0,127.0,127.0,127.0,-114.0,-84.0,106.0
125.0,126.0,128.0,128.0,127.0,128.0,130.0,125.0,-1.0,104.0,-82.0,127.0,127.0,127.0,-114.0,-84.0,106.0
125.0,126.0,128.0,128.0,127.0,129.0,129.0,125.0,-1.0,104.0,-82.0,127.0,127.0,127.0,-114.0,-84.0,106.0
125.0,126.0,128.0,128.0,127.0,129.0,129.0,125.0,-1.0,104.0,-82.0,127.0,127.0,127.0,-114.0,-84.0,106.0
125.0,126.0,128.0,128.0,127.0,129.0,130.0,125.0,-1.0,104.0,-82.0,127.0,127.0,127.0,-114.0,-84.0,106.0
125.0,126.0,128.0,128.0,127.0,129.0,130.0,125.0,-1.0,104.0,-82.0,127.0,127.0,127.0,-114.0,-84.0,106.0
125.0,124.0,127.0,127.0,126.0,126.0,132.0,123.0,-1.0,104.0,-82.0,127.0,127.0,127.0,-114.0,-84.0,106.0
124.0,124.0,127.0,127.0,127.0,123.0,133.0,123.0,-1.0,104.0,-82.0,127.0,127.0,127.0,-114.0,-84.0,106.0
125.0,124.0,127.0,127.0,127.0,123.0,133.0,123.0,-1.0,104.0,-82.0,127.0,127.0,127.0,-114.0,-84.0,106.0
125.0,124.0,127.0,127.0,127.0,123.0,133.0,123.0,-1.0,104.0,-82.0,127.0,127.0,127.0,-114.0,-84.0,106.0
125.0,125.0,127.0,127.0,126.0,124.0,133.0,123.0,-1.0,104.0,-82.0,127.0,127.0,127.0,-114.0,-84.0,106.0
125.0,125.0,127.0,127.0,126.0,124.0,133.0,123.0,-1.0,104.0,-82.0,127.0,127.0,127.0,-114.0,-84.0,106.0
125.0,125.0,127.0,127.0,126.0,125.0,133.0,123.0,-1.0,104.0,-82.0,127.0,127.0,127.0,-114.0,-84.0,106.0
125.0,125.0,127.0,127.0,126.0,125.0,133.0,123.0,-1.0,104.0,-82.0,127.0,127.0,127.0,-114.0,-84.0,106.0
125.0,125.0,127.0,127.0,126.0,125.0,133.0,123.0,-1.0,104.0,-82.0,127.0,127.0,127.0,-114.0,-84.0,106.0
125.0,124.0,127.0,127.0,126.0,126.0,132.0,123.0,-1.0,104.0,-82.0,127.0,127.0,127.0,-114.0,-84.0,106.0
126.0,124.0,127.0,127.0,127.0,128.0,134.0,122.0,-1.0,104.0,-82.0,127.0,127.0,127.0,-114.0,-84.0,106.0
126.0,124.0,127.0,127.0,127.0,128.0,134.0,122.0,-1.0,104.0,-82.0,127.0,127.0,127.0,-114.0,-84.0,106.0
126.0,124.0,127.0,127.0,127.0,129.0,134.0,123.0,-1.0,104.0,-82.0,127.0,127.0,127.0,-114.0,-84.0,106.0
126.0,124.0,127.0,127.0,127.0,129.0,134.0,122.0,-1.0,104.0,-82.0,127.0,127.0,127.0,-114.0,-84.0,106.0
126.0,124.0,127.0,127.0,127.0,129.0,134.0,122.0,-1.0,104.0,-82.0,127.0,127.0,127.0,-114.0,-84.0,106.0
126.0,124.0,127.0,127.0,127.0,128.0,134.0,122.0,-1.0,104.0,-82.0,127.0,127.0,127.0,-114.0,-84.0,106.0
126.0,124.0,127.0,127.0,127.0,128.0,134.0,122.0,-1.0,104.0,-82.0,127.0,127.0,127.0,-114.0,-84.0,106.0
126.0,124.0,127.0,127.0,127.0,128.0,134.0,122.0,-1.0,104.0,-82.0,127.0,127.0,127.0,-114.0,-84.0,106.0
126.0,124.0,127.0,127.0,127.0,128.0,134.0,122.0,-1.0,104.0,-82.0,127.0,127.0,127.0,-114.0,-84.0,106.0
126.0,124.0,127.0,127.0,127.0,127.0,134.0,122.0,-1.0,104.0,-82.0,127.0,127.0,127.0,-114.0,-84.0,106.0
125.0,124.0,126.0,127.0,127.0,130.0,122.0,124.0,-1.0,104.0,-82.0,127.0,127.0,127.0,-114.0,-84.0,106.0
125.0,125.0,126.0,127.0,127.0,130.0,122.0,124.0,-1.0,104.0,-82.0,127.0,127.0,127.0,-114.0,-84.0,106.0
125.0,124.0,126.0,127.0,127.0,131.0,122.0,124.0,-1.0,104.0,-82.0,127.0,127.0,127.0,-114.0,-84.0,106.0
125.0,124.0,127.0,127.0,127.0,131.0,122.0,124.0,-1.0,104.0,-82.0,127.0,127.0,127.0,-114.0,-84.0,106.0
125.0,124.0,127.0,127.0,127.0,132.0,122.0,124.0,-1.0,104.0,-82.0,127.0,127.0,127.0,-114.0,-84.0,106.0
125.0,124.0,127.0,127.0,128.0,132.0,122.0,124.0,-1.0,104.0,-82.0,127.0,127.0,127.0,-114.0,-84.0,106.0
125.0,124.0,127.0,127.0,128.0,132.0,121.0,124.0,-1.0,104.0,-82.0,127.0,127.0,127.0,-114.0,-84.0,106.0
125.0,124.0,127.0,127.0,128.0,132.0,121.0,124.0,-1.0,104.0,-82.0,127.0,127.0,127.0,-114.0,-84.0,106.0
125.0,124.0,127.0,127.0,128.0,132.0,121.0,124.0,-1.0,104.0,-82.0,127.0,127.0,127.0,-114.0,-84.0,106.0
125.0,124.0,126.0,126.0,126.0,129.0,123.0,124.0,-1.0,104.0,-82.0,127.0,127.0,127.0,-114.0,-84.0,106.0
124.0,125.0,126.0,126.0,126.0,126.0,116.0,125.0,-1.0,105.0,-82.0,127.0,127.0,127.0,-114.0,-84.0,106.0
124.0,125.0,126.0,126.0,126.0,126.0,116.0,126.0,-1.0,105.0,-82.0,127.0,127.0,127.0,-114.0,-84.0,106.0
124.0,125.0,126.0,126.0,126.0,127.0,116.0,126.0,-1.0,105.0,-82.0,127.0,127.0,127.0,-114.0,-84.0,106.0
124.0,125.0,126.0,126.0,126.0,127.0,116.0,126.0,-1.0,105.0,-82.0,127.0,127.0,127.0,-114.0,-84.0,106.0
124.0,125.0,126.0,126.0,126.0,127.0,116.0,126.0,-1.0,105.0,-82.0,127.0,127.0,127.0,-114.0,-84.0,106.0
124.0,125.0,126.0,126.0,126.0,127.0,116.0,126.0,-1.0,105.0,-82.0,127.0,127.0,127.0,-114.0,-84.0,106.0
124.0,125.0,126.0,126.0,126.0,128.0,116.0,126.0,-1.0,105.0,-82.0,127.0,127.0,127.0,-114.0,-84.0,106.0
124.0,125.0,126.0,126.0,127.0,128.0,117.0,126.0,-1.0,105.0,-82.0,127.0,127.0,127.0,-114.0,-84.0,106.0
124.0,125.0,126.0,126.0,126.0,126.0,116.0,125.0,-1.0,105.0,-82.0,127.0,127.0,127.0,-114.0,-84.0,106.0
124.0,125.0,126.0,126.0,126.0,126.0,116.0,125.0,-1.0,105.0,-82.0,127.0,127.0,127.0,-114.0,-84.0,106.0
124.0,126.0,127.0,126.0,127.0,131.0,117.0,127.0,-1.0,105.0,-82.0,127.0,127.0,127.0,-114.0,-84.0,106.0
124.0,126.0,127.0,126.0,127.0,130.0,117.0,127.0,-1.0,105.0,-82.0,127.0,127.0,127.0,-114.0,-84.0,106.0
124.0,126.0,127.0,126.0,127.0,130.0,117.0,127.0,-1.0,105.0,-82.0,127.0,127.0,127.0,-114.0,-84.0,106.0
124.0,126.0,127.0,126.0,127.0,130.0,117.0,127.0,-1.0,105.0,-82.0,127.0,127.0,127.0,-114.0,-84.0,106.0
124.0,126.0,127.0,126.0,127.0,129.0,117.0,127.0,-1.0,105.0,-82.0,127.0,127.0,127.0,-114.0,-84.0,106.0
124.0,126.0,127.0,126.0,127.0,129.0,117.0,127.0,-1.0,105.0,-82.0,127.0,127.0,127.0,-114.0,-84.0,106.0
124.0,126.0,127.0,126.0,127.0,128.0,117.0,127.0,-1.0,105.0,-82.0,127.0,127.0,127.0,-114.0,-84.0,106.0
124.0,126.0,126.0,126.0,127.0,130.0,117.0,127.0,-1.0,105.0,-82.0,127.0,127.0,127.0,-114.0,-84.0,106.0
124.0,126.0,126.0,126.0,127.0,131.0,117.0,127.0,-1.0,105.0,-82.0,127.0,127.0,127.0,-114.0,-84.0,106.0
124.0,126.0,127.0,126.0,127.0,131.0,117.0,127.0,-1.0,105.0,-82.0,127.0,127.0,127.0,-114.0,-84.0,106.0
124.0,127.0,126.0,126.0,126.0,127.0,119.0,127.0,-1.0,106.0,-82.0,127.0,127.0,127.0,-114.0,-84.0,106.0
124.0,127.0,126.0,126.0,126.0,126.0,119.0,127.0,-1.0,106.0,-82.0,127.0,127.0,127.0,-114.0,-84.0,106.0
124.0,127.0,126.0,126.0,126.0,126.0,119.0,127.0,-1.0,106.0,-82.0,127.0,127.0,127.0,-114.0,-84.0,106.0
124.0,127.0,126.0,126.0,127.0,126.0,120.0,127.0,-1.0,106.0,-82.0,127.0,127.0,127.0,-114.0,-84.0,106.0
124.0,127.0,126.0,126.0,127.0,127.0,120.0,127.0,-1.0,106.0,-82.0,127.0,127.0,127.0,-114.0,-84.0,106.0
124.0,127.0,126.0,126.0,127.0,127.0,120.0,127.0,-1.0,106.0,-82.0,127.0,127.0,127.0,-114.0,-84.0,106.0
124.0,127.0,126.0,126.0,126.0,126.0,119.0,127.0,-1.0,106.0,-82.0,127.0,127.0,127.0,-114.0,-84.0,106.0
124.0,127.0,126.0,126.0,126.0,127.0,119.0,127.0,-1.0,106.0,-82.0,127.0,127.0,127.0,-114.0,-84.0,106.0
124.0,127.0,126.0,126.0,126.0,127.0,119.0,127.0,-1.0,106.0,-82.0,127.0,127.0,127.0,-114.0,-84.0,106.0
124.0,127.0,126.0,126.0,126.0,127.0,119.0,127.0,-1.0,106.0,-82.0,127.0,127.0,127.0,-114.0,-84.0,106.0
122.0,127.0,126.0,127.0,127.0,129.0,120.0,128.0,-1.0,106.0,-82.0,127.0,127.0,127.0,-114.0,-84.0,106.0
122.0,127.0,126.0,127.0,127.0,130.0,120.0,128.0,-1.0,106.0,-82.0,127.0,127.0,127.0,-114.0,-84.0,106.0
122.0,127.0,126.0,127.0,127.0,130.0,120.0,127.0,-1.0,106.0,-82.0,127.0,127.0,127.0,-114.0,-84.0,106.0
122.0,127.0,126.0,127.0,127.0,130.0,120.0,127.0,-1.0,106.0,-82.0,127.0,127.0,127.0,-114.0,-84.0,106.0
122.0,127.0,126.0,127.0,127.0,130.0,120.0,127.0,-1.0,106.0,-82.0,127.0,127.0,127.0,-114.0,-84.0,106.0
123.0,127.0,126.0,127.0,127.0,128.0,120.0,128.0,-1.0,106.0,-82.0,127.0,127.0,127.0,-114.0,-84.0,106.0
123.0,127.0,126.0,127.0,127.0,129.0,120.0,128.0,-1.0,106.0,-82.0,127.0,127.0,127.0,-114.0,-84.0,106.0
123.0,127.0,126.0,127.0,127.0,129.0,120.0,128.0,-1.0,106.0,-82.0,127.0,127.0,127.0,-114.0,-84.0,106.0
122.0,127.0,126.0,127.0,127.0,129.0,120.0,128.0,-1.0,106.0,-82.0,127.0,127.0,127.0,-114.0,-84.0,106.0
122.0,127.0,126.0,127.0,127.0,129.0,120.0,128.0,-1.0,106.0,-82.0,127.0,127.0,127.0,-114.0,-84.0,106.0
122.0,127.0,127.0,127.0,128.0,131.0,124.0,130.0,-1.0,106.0,-81.0,127.0,127.0,127.0,-114.0,-84.0,106.0
122.0,127.0,127.0,127.0,128.0,131.0,124.0,130.0,-1.0,106.0,-81.0,127.0,127.0,127.0,-114.0,-84.0,106.0
122.0,127.0,127.0,127.0,128.0,131.0,124.0,130.0,-1.0,106.0,-81.0,127.0,127.0,127.0,-114.0,-84.0,106.0
122.0,127.0,127.0,127.0,128.0,131.0,124.0,131.0,-1.0,106.0,-81.0,127.0,127.0,127.0,-114.0,-84.0,106.0
122.0,127.0,127.0,127.0,128.0,131.0,125.0,130.0,-1.0,106.0,-81.0,127.0,127.0,127.0,-114.0,-84.0,106.0
122.0,127.0,127.0,127.0,128.0,131.0,124.0,130.0,-1.0,106.0,-81.0,127.0,127.0,127.0,-114.0,-84.0,106.0
122.0,127.0,127.0,127.0,128.0,131.0,124.0,130.0,-1.0,106.0,-81.0,127.0,127.0,127.0,-114.0,-84.0,106.0
122.0,127.0,127.0,127.0,128.0,131.0,124.0,130.0,-1.0,106.0,-81.0,127.0,127.0,127.0,-114.0,-84.0,106.0
122.0,127.0,127.0,127.0,128.0,131.0,124.0,130.0,-1.0,106.0,-81.0,127.0,127.0,127.0,-114.0,-84.0,106.0
122.0,127.0,127.0,127.0,128.0,131.0,124.0,130.0,-1.0,106.0,-81.0,127.0,127.0,127.0,-114.0,-84.0,106.0
123.0,129.0,128.0,128.0,128.0,131.0,133.0,132.0,-1.0,105.0,-81.0,127.0,127.0,127.0,-114.0,-84.0,106.0
123.0,129.0,128.0,128.0,128.0,131.0,133.0,132.0,-1.0,105.0,-81.0,127.0,127.0,127.0,-114.0,-84.0,106.0
123.0,129.0,128.0,128.0,128.0,132.0,134.0,132.0,-1.0,105.0,-81.0,127.0,127.0,127.0,-114.0,-84.0,106.0
123.0,129.0,128.0,128.0,128.0,131.0,133.0,132.0,-1.0,105.0,-81.0,127.0,127.0,127.0,-114.0,-84.0,106.0
123.0,129.0,127.0,128.0,128.0,131.0,133.0,132.0,-1.0,105.0,-81.0,127.0,127.0,127.0,-114.0,-84.0,106.0
123.0,129.0,128.0,128.0,128.0,131.0,133.0,132.0,-1.0,105.0,-81.0,127.0,127.0,127.0,-114.0,-84.0,106.0
123.0,129.0,128.0,128.0,128.0,131.0,133.0,132.0,-1.0,105.0,-81.0,127.0,127.0,127.0,-114.0,-84.0,106.0
123.0,129.0,128.0,128.0,128.0,131.0,133.0,132.0,-1.0,105.0,-81.0,127.0,127.0,127.0,-114.0,-84.0,106.0
123.0,129.0,128.0,128.0,128.0,132.0,133.0,132.0,-1.0,105.0,-81.0,127.0,127.0,127.0,-114.0,-84.0,106.0
123.0,129.0,128.0,128.0,128.0,131.0,133.0,132.0,-1.0,105.0,-81.0,127.0,127.0,127.0,-114.0,-84.0,106.0
125.0,130.0,129.0,129.0,128.0,135.0,135.0,133.0,-1.0,105.0,-81.0,127.0,127.0,127.0,-114.0,-84.0,106.0
125.0,130.0,129.0,129.0,128.0,135.0,135.0,133.0,-1.0,105.0,-81.0,127.0,127.0,127.0,-114.0,-84.0,106.0
125.0,130.0,128.0,128.0,128.0,134.0,136.0,133.0,-1.0,105.0,-81.0,127.0,127.0,127.0,-114.0,-84.0,106.0
125.0,131.0,128.0,129.0,128.0,134.0,136.0,133.0,-1.0,105.0,-81.0,127.0,127.0,127.0,-114.0,-84.0,106.0
125.0,131.0,128.0,129.0,128.0,135.0,136.0,134.0,-1.0,105.0,-81.0,127.0,127.0,127.0,-114.0,-84.0,106.0
125.0,131.0,128.0,129.0,128.0,135.0,136.0,134.0,-1.0,105.0,-81.0,127.0,127.0,127.0,-114.0,-84.0,106.0
125.0,131.0,129.0,129.0,128.0,135.0,136.0,134.0,-1.0,105.0,-81.0,127.0,127.0,127.0,-114.0,-84.0,106.0
125.0,131.0,129.0,129.0,128.0,135.0,136.0,134.0,-1.0,105.0,-81.0,127.0,127.0,127.0,-114.0,-84.0,106.0
125.0,131.0,129.0,129.0,128.0,135.0,136.0,134.0,-1.0,105.0,-81.0,127.0,127.0,127.0,-114.0,-84.0,106.0
125.0,131.0,129.0,129.0,128.0,135.0,135.0,134.0,-1.0,105.0,-81.0,127.0,127.0,127.0,-114.0,-84.0,106.0
126.0,131.0,128.0,127.0,128.0,136.0,128.0,133.0,-1.0,105.0,-81.0,127.0,127.0,127.0,-114.0,-84.0,106.0
126.0,131.0,128.0,127.0,128.0,135.0,129.0,133.0,-1.0,105.0,-81.0,127.0,127.0,127.0,-114.0,-84.0,106.0
126.0,131.0,128.0,127.0,128.0,135.0,128.0,133.0,-1.0,105.0,-81.0,127.0,127.0,127.0,-114.0,-84.0,106.0
126.0,131.0,127.0,127.0,128.0,135.0,128.0,134.0,-1.0,105.0,-81.0,127.0,127.0,127.0,-114.0,-84.0,106.0
126.0,131.0,128.0,127.0,128.0,136.0,128.0,133.0,-1.0,105.0,-81.0,127.0,127.0,127.0,-114.0,-84.0,106.0
126.0,131.0,128.0,127.0,128.0,136.0,128.0,134.0,-1.0,105.0,-81.0,127.0,127.0,127.0,-114.0,-84.0,106.0
126.0,131.0,128.0,127.0,128.0,136.0,128.0,134.0,-1.0,105.0,-81.0,127.0,127.0,127.0,-114.0,-84.0,106.0
126.0,131.0,128.0,127.0,128.0,136.0,128.0,133.0,-1.0,105.0,-81.0,127.0,127.0,127.0,-114.0,-84.0,106.0
126.0,131.0,128.0,127.0,128.0,136.0,128.0,133.0,-1.0,105.0,-81.0,127.0,127.0,127.0,-114.0,-84.0,106.0
126.0,131.0,128.0,127.0,128.0,136.0,128.0,133.0,-1.0,105.0,-81.0,127.0,127.0,127.0,-114.0,-84.0,106.0
126.0,131.0,127.0,126.0,127.0,133.0,126.0,132.0,-1.0,106.0,-81.0,127.0,127.0,127.0,-114.0,-84.0,106.0
126.0,131.0,127.0,126.0,127.0,133.0,126.0,132.0,-1.0,106.0,-81.0,127.0,127.0,127.0,-114.0,-84.0,106.0
126.0,131.0,127.0,126.0,127.0,133.0,126.0,132.0,-1.0,106.0,-81.0,127.0,127.0,127.0,-114.0,-84.0,106.0
126.0,131.0,127.0,126.0,127.0,133.0,126.0,132.0,-1.0,106.0,-81.0,127.0,127.0,127.0,-114.0,-84.0,106.0
126.0,131.0,127.0,126.0,127.0,133.0,126.0,132.0,-1.0,106.0,-81.0,127.0,127.0,127.0,-114.0,-84.0,106.0
126.0,131.0,127.0,126.0,127.0,134.0,125.0,132.0,-1.0,106.0,-81.0,127.0,127.0,127.0,-114.0,-84.0,106.0
126.0,131.0,127.0,126.0,127.0,134.0,125.0,132.0,-1.0,106.0,-81.0,127.0,127.0,127.0,-114.0,-84.0,106.0
126.0,131.0,127.0,126.0,127.0,134.0,125.0,132.0,-1.0,106.0,-81.0,127.0,127.0,127.0,-114.0,-84.0,106.0
126.0,131.0,127.0,126.0,127.0,134.0,125.0,132.0,-1.0,106.0,-81.0,127.0,127.0,127.0,-114.0,-84.0,106.0
126.0,131.0,127.0,126.0,127.0,134.0,125.0,132.0,-1.0,106.0,-81.0,127.0,127.0,127.0,-114.0,-84.0,106.0
126.0,130.0,127.0,125.0,127.0,134.0,128.0,131.0,-1.0,107.0,-81.0,127.0,127.0,127.0,-114.0,-84.0,106.0
126.0,130.0,127.0,125.0,127.0,133.0,128.0,131.0,-1.0,107.0,-81.0,127.0,127.0,127.0,-114.0,-84.0,106.0
127.0,130.0,127.0,125.0,127.0,133.0,128.0,131.0,-1.0,107.0,-81.0,127.0,127.0,127.0,-114.0,-84.0,106.0
126.0,130.0,127.0,125.0,127.0,133.0,128.0,131.0,-1.0,107.0,-81.0,127.0,127.0,127.0,-114.0,-84.0,106.0
126.0,130.0,127.0,125.0,127.0,134.0,128.0,131.0,-1.0,107.0,-81.0,127.0,127.0,127.0,-114.0,-84.0,106.0
127.0,131.0,127.0,126.0,127.0,134.0,128.0,132.0,-1.0,107.0,-81.0,127.0,127.0,127.0,-114.0,-84.0,106.0
127.0,130.0,127.0,125.0,127.0,134.0,128.0,131.0,-1.0,107.0,-81.0,127.0,127.0,127.0,-114.0,-84.0,106.0
126.0,130.0,127.0,125.0,127.0,134.0,128.0,131.0,-1.0,107.0,-81.0,127.0,127.0,127.0,-114.0,-84.0,106.0
127.0,130.0,127.0,126.0,127.0,134.0,128.0,131.0,-1.0,107.0,-81.0,127.0,127.0,127.0,-114.0,-84.0,106.0
126.0,131.0,126.0,125.0,127.0,134.0,128.0,131.0,-1.0,107.0,-81.0,127.0,127.0,127.0,-114.0,-84.0,106.0
127.0,130.0,127.0,126.0,127.0,133.0,130.0,130.0,-1.0,108.0,-82.0,127.0,127.0,127.0,-114.0,-84.0,106.0
127.0,130.0,127.0,126.0,127.0,133.0,130.0,130.0,-1.0,108.0,-82.0,127.0,127.0,127.0,-114.0,-84.0,106.0
127.0,130.0,127.0,126.0,127.0,133.0,130.0,130.0,-1.0,108.0,-82.0,127.0,127.0,127.0,-114.0,-84.0,106.0
127.0,130.0,127.0,126.0,127.0,134.0,130.0,130.0,-1.0,108.0,-82.0,127.0,127.0,127.0,-114.0,-84.0,106.0
127.0,130.0,127.0,126.0,127.0,134.0,130.0,130.0,-1.0,108.0,-82.0,127.0,127.0,127.0,-114.0,-84.0,106.0
127.0,130.0,127.0,126.0,127.0,134.0,130.0,130.0,-1.0,108.0,-82.0,127.0,127.0,127.0,-114.0,-84.0,106.0
127.0,130.0,127.0,126.0,127.0,134.0,130.0,130.0,-1.0,108.0,-82.0,127.0,127.0,127.0,-114.0,-84.0,106.0
127.0,130.0,127.0,126.0,127.0,134.0,130.0,130.0,-1.0,108.0,-82.0,127.0,127.0,127.0,-114.0,-84.0,106.0
127.0,130.0,127.0,126.0,127.0,134.0,130.0,130.0,-1.0,108.0,-82.0,127.0,127.0,127.0,-114.0,-84.0,106.0
127.0,130.0,127.0,126.0,127.0,133.0,130.0,130.0,-1.0,108.0,-82.0,127.0,127.0,127.0,-114.0,-84.0,106.0
126.0,129.0,127.0,126.0,126.0,133.0,130.0,129.0,-1.0,109.0,-83.0,127.0,127.0,127.0,-114.0,-84.0,106.0
127.0,129.0,127.0,126.0,126.0,133.0,130.0,129.0,-1.0,109.0,-83.0,127.0,127.0,127.0,-114.0,-84.0,106.0
126.0,129.0,127.0,126.0,126.0,133.0,130.0,129.0,-1.0,109.0,-83.0,127.0,127.0,127.0,-114.0,-84.0,106.0
127.0,129.0,127.0,126.0,126.0,133.0,130.0,130.0,-1.0,109.0,-83.0,127.0,127.0,127.0,-114.0,-84.0,106.0
127.0,129.0,127.0,126.0,126.0,133.0,130.0,130.0,-1.0,109.0,-83.0,127.0,127.0,127.0,-114.0,-84.0,106.0
127.0,129.0,127.0,126.0,126.0,133.0,130.0,130.0,-1.0,109.0,-83.0,127.0,127.0,127.0,-114.0,-84.0,106.0
126.0,129.0,127.0,126.0,126.0,133.0,130.0,129.0,-1.0,109.0,-83.0,127.0,127.0,127.0,-114.0,-84.0,106.0
127.0,129.0,127.0,126.0,126.0,133.0,130.0,129.0,-1.0,109.0,-83.0,127.0,127.0,127.0,-114.0,-84.0,106.0
126.0,129.0,127.0,126.0,126.0,133.0,130.0,129.0,-1.0,109.0,-83.0,127.0,127.0,127.0,-114.0,-84.0,106.0
126.0,129.0,127.0,126.0,126.0,133.0,130.0,129.0,-1.0,109.0,-83.0,127.0,127.0,127.0,-114.0,-84.0,106.0
126.0,129.0,127.0,126.0,126.0,133.0,127.0,129.0,-1.0,109.0,-84.0,127.0,127.0,127.0,-114.0,-84.0,106.0
126.0,129.0,127.0,126.0,126.0,133.0,127.0,129.0,-1.0,109.0,-84.0,127.0,127.0,127.0,-114.0,-84.0,106.0
126.0,129.0,127.0,126.0,126.0,133.0,127.0,129.0,-1.0,109.0,-84.0,127.0,127.0,127.0,-114.0,-84.0,106.0
126.0,129.0,127.0,126.0,126.0,133.0,126.0,129.0,-1.0,109.0,-84.0,127.0,127.0,127.0,-114.0,-84.0,106.0
126.0,129.0,127.0,126.0,126.0,133.0,126.0,129.0,-1.0,109.0,-84.0,127.0,127.0,127.0,-114.0,-84.0,106.0
126.0,129.0,127.0,126.0,126.0,133.0,126.0,129.0,-1.0,109.0,-84.0,127.0,127.0,127.0,-114.0,-84.0,106.0
126.0,129.0,127.0,126.0,126.0,133.0,128.0,129.0,-1.0,109.0,-84.0,127.0,127.0,127.0,-114.0,-84.0,106.0
126.0,129.0,127.0,126.0,126.0,133.0,128.0,129.0,-1.0,109.0,-84.0,127.0,127.0,127.0,-114.0,-84.0,106.0
126.0,129.0,127.0,126.0,126.0,133.0,127.0,129.0,-1.0,109.0,-84.0,127.0,127.0,127.0,-114.0,-84.0,106.0
126.0,129.0,127.0,126.0,126.0,133.0,127.0,129.0,-1.0,109.0,-84.0,127.0,127.0,127.0,-114.0,-84.0,106.0
126.0,129.0,126.0,126.0,126.0,132.0,125.0,129.0,-1.0,109.0,-84.0,127.0,127.0,127.0,-114.0,-84.0,106.0
126.0,129.0,126.0,126.0,126.0,133.0,125.0,129.0,-1.0,109.0,-84.0,127.0,127.0,127.0,-114.0,-84.0,106.0
126.0,129.0,127.0,126.0,126.0,133.0,125.0,129.0,-1.0,109.0,-84.0,127.0,127.0,127.0,-114.0,-84.0,106.0
126.0,129.0,127.0,126.0,126.0,132.0,125.0,129.0,-1.0,109.0,-84.0,127.0,127.0,127.0,-114.0,-84.0,106.0
126.0,129.0,127.0,126.0,126.0,132.0,125.0,129.0,-1.0,109.0,-84.0,127.0,127.0,127.0,-114.0,-84.0,106.0
126.0,129.0,126.0,126.0,126.0,133.0,126.0,129.0,-1.0,109.0,-84.0,127.0,127.0,127.0,-114.0,-84.0,106.0
126.0,129.0,126.0,126.0,126.0,133.0,126.0,129.0,-1.0,109.0,-84.0,127.0,127.0,127.0,-114.0,-84.0,106.0
126.0,129.0,126.0,126.0,126.0,132.0,126.0,129.0,-1.0,109.0,-84.0,127.0,127.0,127.0,-114.0,-84.0,106.0
126.0,129.0,127.0,126.0,126.0,132.0,126.0,129.0,-1.0,109.0,-84.0,127.0,127.0,127.0,-114.0,-84.0,106.0
126.0,129.0,127.0,126.0,126.0,132.0,126.0,129.0,-1.0,109.0,-84.0,127.0,127.0,127.0,-114.0,-84.0,106.0
126.0,130.0,127.0,126.0,126.0,132.0,128.0,129.0,-1.0,109.0,-84.0,127.0,127.0,127.0,-114.0,-84.0,106.0
126.0,130.0,127.0,126.0,126.0,132.0,128.0,129.0,-1.0,109.0,-84.0,127.0,127.0,127.0,-114.0,-84.0,106.0
126.0,129.0,127.0,126.0,126.0,132.0,128.0,129.0,-1.0,109.0,-84.0,127.0,127.0,127.0,-114.0,-84.0,106.0
127.0,129.0,127.0,126.0,126.0,132.0,128.0,129.0,-1.0,109.0,-84.0,127.0,127.0,127.0,-114.0,-84.0,106.0
127.0,129.0,127.0,126.0,126.0,132.0,127.0,129.0,-1.0,109.0,-84.0,127.0,127.0,127.0,-114.0,-84.0,106.0
127.0,130.0,127.0,126.0,126.0,132.0,127.0,129.0,-1.0,109.0,-84.0,127.0,127.0,127.0,-114.0,-84.0,106.0
126.0,129.0,127.0,126.0,126.0,132.0,127.0,129.0,-1.0,109.0,-84.0,127.0,127.0,127.0,-114.0,-84.0,106.0
126.0,129.0,127.0,126.0,126.0,132.0,127.0,128.0,-1.0,109.0,-84.0,127.0,127.0,127.0,-114.0,-84.0,106.0
126.0,129.0,127.0,126.0,126.0,132.0,128.0,128.0,-1.0,109.0,-84.0,127.0,127.0,127.0,-114.0,-84.0,106.0
126.0,129.0,127.0,126.0,126.0,132.0,128.0,129.0,-1.0,109.0,-84.0,127.0,127.0,127.0,-114.0,-84.0,106.0
127.0,129.0,127.0,126.0,126.0,131.0,128.0,129.0,-1.0,109.0,-83.0,127.0,127.0,127.0,-114.0,-84.0,106.0
127.0,129.0,127.0,126.0,126.0,131.0,128.0,129.0,-1.0,109.0,-83.0,127.0,127.0,127.0,-114.0,-84.0,106.0
127.0,129.0,127.0,126.0,126.0,131.0,128.0,129.0,-1.0,109.0,-83.0,127.0,127.0,127.0,-114.0,-84.0,106.0
127.0,129.0,126.0,126.0,126.0,132.0,129.0,129.0,-1.0,109.0,-83.0,127.0,127.0,127.0,-114.0,-84.0,106.0
127.0,129.0,126.0,126.0,126.0,132.0,129.0,129.0,-1.0,109.0,-83.0,127.0,127.0,127.0,-114.0,-84.0,106.0
127.0,129.0,127.0,126.0,126.0,132.0,129.0,129.0,-1.0,109.0,-83.0,127.0,127.0,127.0,-114.0,-84.0,106.0
126.0,129.0,127.0,126.0,126.0,132.0,129.0,129.0,-1.0,109.0,-83.0,127.0,127.0,127.0,-114.0,-84.0,106.0
126.0,129.0,127.0,126.0,126.0,131.0,129.0,129.0,-1.0,109.0,-83.0,127.0,127.0,127.0,-114.0,-84.0,106.0
126.0,129.0,127.0,126.0,126.0,131.0,128.0,129.0,-1.0,109.0,-83.0,127.0,127.0,127.0,-114.0,-84.0,106.0
127.0,129.0,126.0,126.0,126.0,131.0,128.0,129.0,-1.0,109.0,-83.0,127.0,127.0,127.0,-114.0,-84.0,106.0
126.0,128.0,127.0,126.0,126.0,130.0,125.0,128.0,-1.0,109.0,-83.0,127.0,127.0,127.0,-114.0,-84.0,106.0
126.0,128.0,127.0,126.0,126.0,131.0,125.0,128.0,-1.0,109.0,-83.0,127.0,127.0,127.0,-114.0,-84.0,106.0
126.0,129.0,127.0,126.0,126.0,130.0,125.0,128.0,-1.0,109.0,-83.0,127.0,127.0,127.0,-114.0,-84.0,106.0
126.0,128.0,127.0,126.0,126.0,130.0,125.0,128.0,-1.0,109.0,-83.0,127.0,127.0,127.0,-114.0,-84.0,106.0
126.0,129.0,127.0,126.0,126.0,130.0,125.0,128.0,-1.0,109.0,-83.0,127.0,127.0,127.0,-114.0,-84.0,106.0
126.0,129.0,127.0,126.0,126.0,130.0,125.0,128.0,-1.0,109.0,-83.0,127.0,127.0,127.0,-114.0,-84.0,106.0
126.0,128.0,127.0,126.0,126.0,130.0,125.0,128.0,-1.0,109.0,-83.0,127.0,127.0,127.0,-114.0,-84.0,106.0
126.0,128.0,127.0,126.0,126.0,130.0,125.0,128.0,-1.0,109.0,-83.0,127.0,127.0,127.0,-114.0,-84.0,106.0
126.0,128.0,127.0,126.0,126.0,130.0,125.0,128.0,-1.0,109.0,-83.0,127.0,127.0,127.0,-114.0,-84.0,106.0
126.0,128.0,127.0,126.0,126.0,130.0,125.0,128.0,-1.0,109.0,-83.0,127.0,127.0,127.0,-114.0,-84.0,106.0
127.0,128.0,127.0,126.0,126.0,131.0,123.0,128.0,-1.0,109.0,-82.0,127.0,127.0,127.0,-114.0,-84.0,106.0
127.0,128.0,127.0,126.0,126.0,130.0,124.0,128.0,-1.0,109.0,-82.0,127.0,127.0,127.0,-114.0,-84.0,106.0
127.0,128.0,127.0,126.0,126.0,130.0,124.0,128.0,-1.0,109.0,-82.0,127.0,127.0,127.0,-114.0,-84.0,106.0
127.0,128.0,127.0,126.0,126.0,130.0,124.0,128.0,-1.0,109.0,-82.0,127.0,127.0,127.0,-114.0,-84.0,106.0
127.0,128.0,127.0,126.0,126.0,130.0,124.0,128.0,-1.0,109.0,-82.0,127.0,127.0,127.0,-114.0,-84.0,106.0
127.0,128.0,127.0,126.0,126.0,131.0,123.0,128.0,-1.0,109.0,-82.0,127.0,127.0,127.0,-114.0,-84.0,106.0
127.0,128.0,127.0,126.0,126.0,131.0,123.0,128.0,-1.0,109.0,-82.0,127.0,127.0,127.0,-114.0,-84.0,106.0
127.0,128.0,127.0,126.0,126.0,131.0,123.0,128.0,-1.0,109.0,-82.0,127.0,127.0,127.0,-114.0,-84.0,106.0
127.0,128.0,127.0,126.0,126.0,131.0,123.0,128.0,-1.0,109.0,-82.0,127.0,127.0,127.0,-114.0,-84.0,106.0
127.0,128.0,127.0,126.0,126.0,131.0,123.0,128.0,-1.0,109.0,-82.0,127.0,127.0,127.0,-114.0,-84.0,106.0
127.0,128.0,127.0,126.0,126.0,131.0,124.0,129.0,-1.0,109.0,-82.0,127.0,127.0,127.0,-114.0,-84.0,106.0
126.0,128.0,127.0,126.0,126.0,131.0,124.0,129.0,-1.0,109.0,-82.0,127.0,127.0,127.0,-114.0,-84.0,106.0
127.0,128.0,127.0,126.0,126.0,131.0,124.0,129.0,-1.0,109.0,-82.0,127.0,127.0,127.0,-114.0,-84.0,106.0
127.0,128.0,127.0,126.0,126.0,131.0,124.0,129.0,-1.0,109.0,-82.0,127.0,127.0,127.0,-114.0,-84.0,106.0
127.0,128.0,127.0,126.0,126.0,131.0,123.0,129.0,-1.0,109.0,-82.0,127.0,127.0,127.0,-114.0,-84.0,106.0
127.0,128.0,127.0,126.0,126.0,131.0,123.0,129.0,-1.0,109.0,-82.0,127.0,127.0,127.0,-114.0,-84.0,106.0
127.0,128.0,127.0,126.0,126.0,131.0,124.0,129.0,-1.0,109.0,-82.0,127.0,127.0,127.0,-114.0,-84.0,106.0
127.0,128.0,127.0,126.0,126.0,131.0,124.0,129.0,-1.0,109.0,-82.0,127.0,127.0,127.0,-114.0,-84.0,106.0
127.0,128.0,127.0,126.0,126.0,131.0,124.0,129.0,-1.0,109.0,-82.0,127.0,127.0,127.0,-114.0,-84.0,106.0
127.0,128.0,127.0,126.0,126.0,131.0,124.0,129.0,-1.0,109.0,-82.0,127.0,127.0,127.0,-114.0,-84.0,106.0
126.0,128.0,127.0,126.0,126.0,130.0,124.0,129.0,-1.0,109.0,-82.0,127.0,127.0,127.0,-114.0,-84.0,106.0
126.0,128.0,127.0,126.0,126.0,130.0,124.0,129.0,-1.0,109.0,-82.0,127.0,127.0,127.0,-114.0,-84.0,106.0
126.0,128.0,127.0,126.0,126.0,130.0,123.0,129.0,-1.0,109.0,-82.0,127.0,127.0,127.0,-114.0,-84.0,106.0
126.0,128.0,127.0,126.0,126.0,131.0,123.0,129.0,-1.0,109.0,-82.0,127.0,127.0,127.0,-114.0,-84.0,106.0
126.0,128.0,127.0,126.0,126.0,131.0,123.0,129.0,-1.0,109.0,-82.0,127.0,127.0,127.0,-114.0,-84.0,106.0
126.0,128.0,127.0,126.0,126.0,131.0,123.0,129.0,-1.0,109.0,-82.0,127.0,127.0,127.0,-114.0,-84.0,106.0
126.0,128.0,127.0,126.0,126.0,131.0,123.0,129.0,-1.0,109.0,-82.0,127.0,127.0,127.0,-114.0,-84.0,106.0
126.0,128.0,127.0,126.0,126.0,131.0,123.0,129.0,-1.0,109.0,-82.0,127.0,127.0,127.0,-114.0,-84.0,106.0
126.0,128.0,127.0,126.0,126.0,131.0,123.0,129.0,-1.0,109.0,-82.0,127.0,127.0,127.0,-114.0,-84.0,106.0
126.0,128.0,127.0,126.0,126.0,130.0,124.0,129.0,-1.0,109.0,-82.0,127.0,127.0,127.0,-114.0,-84.0,106.0
126.0,128.0,127.0,126.0,126.0,129.0,124.0,129.0,-1.0,109.0,-82.0,127.0,127.0,127.0,-114.0,-84.0,106.0
126.0,128.0,127.0,126.0,126.0,129.0,124.0,129.0,-1.0,109.0,-82.0,127.0,127.0,127.0,-114.0,-84.0,106.0
127.0,128.0,127.0,126.0,126.0,130.0,124.0,129.0,-1.0,109.0,-82.0,127.0,127.0,127.0,-114.0,-84.0,106.0
127.0,128.0,127.0,126.0,126.0,130.0,123.0,129.0,-1.0,109.0,-82.0,127.0,127.0,127.0,-114.0,-84.0,106.0
127.0,128.0,127.0,126.0,126.0,130.0,123.0,129.0,-1.0,109.0,-82.0,127.0,127.0,127.0,-114.0,-84.0,106.0
127.0,128.0,127.0,126.0,126.0,130.0,123.0,129.0,-1.0,109.0,-82.0,127.0,127.0,127.0,-114.0,-84.0,106.0
127.0,128.0,127.0,126.0,126.0,130.0,123.0,129.0,-1.0,109.0,-82.0,127.0,127.0,127.0,-114.0,-84.0,106.0
127.0,128.0,127.0,126.0,126.0,130.0,123.0,129.0,-1.0,109.0,-82.0,127.0,127.0,127.0,-114.0,-84.0,106.0
127.0,128.0,127.0,126.0,126.0,129.0,124.0,129.0,-1.0,109.0,-82.0,127.0,127.0,127.0,-114.0,-84.0,106.0
127.0,128.0,127.0,126.0,126.0,129.0,124.0,129.0,-1.0,109.0,-82.0,127.0,127.0,127.0,-114.0,-84.0,106.0
127.0,128.0,127.0,126.0,126.0,130.0,124.0,129.0,-1.0,109.0,-82.0,127.0,127.0,127.0,-114.0,-84.0,106.0
127.0,128.0,127.0,126.0,126.0,131.0,124.0,129.0,-1.0,109.0,-82.0,127.0,127.0,127.0,-114.0,-84.0,106.0
127.0,128.0,127.0,126.0,126.0,131.0,124.0,129.0,-1.0,109.0,-82.0,127.0,127.0,127.0,-114.0,-84.0,106.0
127.0,128.0,127.0,126.0,126.0,131.0,124.0,129.0,-1.0,109.0,-82.0,127.0,127.0,127.0,-114.0,-84.0,106.0
127.0,128.0,127.0,126.0,126.0,131.0,124.0,129.0,-1.0,109.0,-82.0,127.0,127.0,127.0,-114.0,-84.0,106.0
127.0,128.0,127.0,126.0,126.0,131.0,124.0,129.0,-1.0,109.0,-82.0,127.0,127.0,127.0,-114.0,-84.0,106.0
127.0,128.0,127.0,126.0,126.0,131.0,124.0,129.0,-1.0,109.0,-82.0,127.0,127.0,127.0,-114.0,-84.0,106.0
127.0,128.0,127.0,126.0,126.0,130.0,124.0,129.0,-1.0,109.0,-82.0,127.0,127.0,127.0,-114.0,-84.0,106.0
127.0,128.0,127.0,126.0,126.0,130.0,125.0,129.0,-1.0,109.0,-82.0,127.0,127.0,127.0,-114.0,-84.0,106.0
127.0,128.0,127.0,126.0,126.0,130.0,124.0,129.0,-1.0,109.0,-82.0,127.0,127.0,127.0,-114.0,-84.0,106.0
127.0,128.0,127.0,126.0,126.0,130.0,125.0,129.0,-1.0,109.0,-82.0,127.0,127.0,127.0,-114.0,-84.0,106.0
127.0,128.0,127.0,126.0,126.0,131.0,125.0,129.0,-1.0,109.0,-82.0,127.0,127.0,127.0,-114.0,-84.0,106.0
127.0,128.0,127.0,126.0,126.0,131.0,125.0,129.0,-1.0,109.0,-82.0,127.0,127.0,127.0,-114.0,-84.0,106.0
127.0,128.0,127.0,126.0,126.0,131.0,125.0,129.0,-1.0,109.0,-82.0,127.0,127.0,127.0,-114.0,-84.0,106.0
127.0,128.0,127.0,126.0,126.0,130.0,125.0,129.0,-1.0,109.0,-82.0,127.0,127.0,127.0,-114.0,-84.0,106.0
127.0,128.0,127.0,126.0,126.0,130.0,125.0,129.0,-1.0,109.0,-82.0,127.0,127.0,127.0,-114.0,-84.0,106.0
127.0,128.0,127.0,126.0,126.0,130.0,125.0,129.0,-1.0,109.0,-82.0,127.0,127.0,127.0,-114.0,-84.0,106.0
127.0,128.0,127.0,126.0,126.0,130.0,125.0,129.0,-1.0,109.0,-82.0,127.0,127.0,127.0,-114.0,-84.0,106.0
127.0,128.0,127.0,126.0,126.0,130.0,125.0,129.0,-1.0,109.0,-82.0,127.0,127.0,127.0,-114.0,-84.0,106.0
127.0,128.0,127.0,126.0,126.0,130.0,125.0,129.0,-1.0,109.0,-82.0,127.0,127.0,127.0,-114.0,-84.0,106.0
127.0,128.0,127.0,126.0,126.0,131.0,125.0,129.0,-1.0,109.0,-82.0,127.0,127.0,127.0,-114.0,-84.0,106.0
127.0,128.0,127.0,126.0,127.0,131.0,125.0,129.0,-1.0,109.0,-82.0,127.0,127.0,127.0,-114.0,-84.0,106.0
127.0,128.0,127.0,126.0,127.0,131.0,125.0,129.0,-1.0,109.0,-82.0,127.0,127.0,127.0,-114.0,-84.0,106.0
127.0,128.0,127.0,126.0,127.0,131.0,125.0,129.0,-1.0,109.0,-82.0,127.0,127.0,127.0,-114.0,-84.0,106.0
127.0,128.0,127.0,126.0,127.0,131.0,125.0,129.0,-1.0,109.0,-82.0,127.0,127.0,127.0,-114.0,-84.0,106.0
127.0,128.0,127.0,126.0,126.0,131.0,126.0,129.0,-1.0,109.0,-82.0,127.0,127.0,127.0,-114.0,-84.0,106.0
127.0,128.0,127.0,126.0,127.0,131.0,126.0,129.0,-1.0,109.0,-82.0,127.0,127.0,127.0,-114.0,-84.0,106.0
127.0,128.0,127.0,126.0,127.0,131.0,126.0,129.0,-1.0,109.0,-82.0,127.0,127.0,127.0,-114.0,-84.0,106.0
127.0,128.0,127.0,126.0,127.0,131.0,126.0,129.0,-1.0,109.0,-82.0,127.0,127.0,127.0,-114.0,-84.0,106.0
127.0,128.0,127.0,126.0,126.0,131.0,126.0,129.0,-1.0,109.0,-82.0,127.0,127.0,127.0,-114.0,-84.0,106.0
127.0,128.0,127.0,126.0,126.0,129.0,125.0,129.0,-1.0,109.0,-82.0,127.0,127.0,127.0,-114.0,-84.0,106.0
127.0,128.0,127.0,126.0,126.0,129.0,124.0,129.0,-1.0,109.0,-82.0,127.0,127.0,127.0,-114.0,-84.0,106.0
127.0,128.0,127.0,126.0,126.0,129.0,124.0,129.0,-1.0,109.0,-82.0,127.0,127.0,127.0,-114.0,-84.0,106.0
127.0,128.0,127.0,126.0,126.0,129.0,124.0,129.0,-1.0,109.0,-82.0,127.0,127.0,127.0,-114.0,-84.0,106.0
127.0,128.0,127.0,126.0,126.0,129.0,125.0,129.0,-1.0,109.0,-82.0,127.0,127.0,127.0,-114.0,-84.0,106.0
127.0,128.0,127.0,126.0,126.0,129.0,125.0,129.0,-1.0,109.0,-82.0,127.0,127.0,127.0,-114.0,-84.0,106.0
127.0,128.0,127.0,126.0,126.0,129.0,125.0,129.0,-1.0,109.0,-82.0,127.0,127.0,127.0,-114.0,-84.0,106.0
127.0,128.0,127.0,126.0,126.0,129.0,125.0,129.0,-1.0,109.0,-82.0,127.0,127.0,127.0,-114.0,-84.0,106.0
127.0,128.0,127.0,126.0,126.0,129.0,125.0,129.0,-1.0,109.0,-82.0,127.0,127.0,127.0,-114.0,-84.0,106.0
127.0,128.0,127.0,126.0,126.0,129.0,125.0,129.0,-1.0,109.0,-82.0,127.0,127.0,127.0,-114.0,-84.0,106.0
127.0,128.0,127.0,127.0,126.0,130.0,125.0,129.0,-1.0,109.0,-82.0,127.0,127.0,127.0,-114.0,-84.0,106.0
127.0,128.0,127.0,127.0,127.0,129.0,125.0,129.0,-1.0,109.0,-82.0,127.0,127.0,127.0,-114.0,-84.0,106.0
127.0,128.0,127.0,127.0,126.0,129.0,125.0,129.0,-1.0,109.0,-82.0,127.0,127.0,127.0,-114.0,-84.0,106.0
127.0,128.0,127.0,126.0,126.0,129.0,126.0,129.0,-1.0,109.0,-82.0,127.0,127.0,127.0,-114.0,-84.0,106.0
127.0,128.0,127.0,126.0,126.0,129.0,126.0,129.0,-1.0,109.0,-82.0,127.0,127.0,127.0,-114.0,-84.0,106.0
127.0,128.0,127.0,126.0,126.0,130.0,125.0,129.0,-1.0,109.0,-82.0,127.0,127.0,127.0,-114.0,-84.0,106.0
127.0,128.0,127.0,126.0,126.0,130.0,125.0,129.0,-1.0,109.0,-82.0,127.0,127.0,127.0,-114.0,-84.0,106.0
127.0,128.0,127.0,126.0,126.0,130.0,125.0,129.0,-1.0,109.0,-82.0,127.0,127.0,127.0,-114.0,-84.0,106.0
127.0,128.0,127.0,126.0,126.0,130.0,125.0,129.0,-1.0,109.0,-82.0,127.0,127.0,127.0,-114.0,-84.0,106.0
127.0,128.0,127.0,127.0,126.0,130.0,125.0,129.0,-1.0,109.0,-82.0,127.0,127.0,127.0,-114.0,-84.0,106.0
126.0,128.0,127.0,126.0,126.0,129.0,125.0,128.0,-1.0,109.0,-81.0,127.0,127.0,127.0,-114.0,-84.0,106.0
126.0,128.0,127.0,126.0,126.0,129.0,125.0,128.0,-1.0,109.0,-81.0,127.0,127.0,127.0,-114.0,-84.0,106.0
126.0,128.0,127.0,126.0,126.0,129.0,125.0,128.0,-1.0,109.0,-81.0,127.0,127.0,127.0,-114.0,-84.0,106.0
126.0,128.0,127.0,126.0,126.0,129.0,125.0,128.0,-1.0,109.0,-81.0,127.0,127.0,127.0,-114.0,-84.0,106.0
126.0,128.0,127.0,126.0,126.0,129.0,125.0,128.0,-1.0,109.0,-81.0,127.0,127.0,127.0,-114.0,-84.0,106.0
126.0,128.0,127.0,126.0,126.0,129.0,125.0,128.0,-1.0,109.0,-81.0,127.0,127.0,127.0,-114.0,-84.0,106.0
126.0,128.0,127.0,126.0,126.0,129.0,125.0,128.0,-1.0,109.0,-81.0,127.0,127.0,127.0,-114.0,-84.0,106.0
126.0,128.0,127.0,126.0,126.0,129.0,125.0,128.0,-1.0,109.0,-81.0,127.0,127.0,127.0,-114.0,-84.0,106.0
126.0,128.0,127.0,126.0,126.0,129.0,125.0,128.0,-1.0,109.0,-81.0,127.0,127.0,127.0,-114.0,-84.0,106.0
126.0,128.0,127.0,126.0,126.0,129.0,125.0,128.0,-1.0,109.0,-81.0,127.0,127.0,127.0,-114.0,-84.0,106.0
127.0,127.0,127.0,127.0,126.0,129.0,124.0,129.0,-1.0,109.0,-81.0,127.0,127.0,127.0,-114.0,-84.0,106.0
127.0,128.0,127.0,127.0,126.0,129.0,125.0,129.0,-1.0,109.0,-81.0,127.0,127.0,127.0,-114.0,-84.0,106.0
127.0,128.0,127.0,127.0,126.0,129.0,125.0,129.0,-1.0,109.0,-81.0,127.0,127.0,127.0,-114.0,-84.0,106.0
127.0,128.0,127.0,127.0,126.0,129.0,124.0,129.0,-1.0,109.0,-81.0,127.0,127.0,127.0,-114.0,-84.0,106.0
127.0,128.0,127.0,127.0,126.0,130.0,124.0,129.0,-1.0,109.0,-81.0,127.0,127.0,127.0,-114.0,-84.0,106.0
127.0,128.0,127.0,127.0,126.0,130.0,124.0,129.0,-1.0,109.0,-81.0,127.0,127.0,127.0,-114.0,-84.0,106.0
127.0,128.0,127.0,127.0,126.0,130.0,124.0,129.0,-1.0,109.0,-81.0,127.0,127.0,127.0,-114.0,-84.0,106.0
127.0,128.0,127.0,127.0,126.0,130.0,124.0,129.0,-1.0,109.0,-81.0,127.0,127.0,127.0,-114.0,-84.0,106.0
127.0,128.0,127.0,127.0,126.0,130.0,124.0,129.0,-1.0,109.0,-81.0,127.0,127.0,127.0,-114.0,-84.0,106.0
127.0,128.0,127.0,127.0,126.0,129.0,124.0,129.0,-1.0,109.0,-81.0,127.0,127.0,127.0,-114.0,-84.0,106.0
127.0,128.0,127.0,126.0,126.0,129.0,126.0,129.0,-1.0,109.0,-81.0,127.0,127.0,127.0,-114.0,-84.0,106.0
127.0,128.0,127.0,126.0,126.0,129.0,126.0,129.0,-1.0,109.0,-81.0,127.0,127.0,127.0,-114.0,-84.0,106.0
127.0,128.0,127.0,126.0,126.0,130.0,125.0,129.0,-1.0,109.0,-81.0,127.0,127.0,127.0,-114.0,-84.0,106.0
127.0,128.0,127.0,126.0,126.0,130.0,125.0,129.0,-1.0,109.0,-81.0,127.0,127.0,127.0,-114.0,-84.0,106.0
127.0,128.0,127.0,126.0,126.0,130.0,125.0,129.0,-1.0,109.0,-81.0,127.0,127.0,127.0,-114.0,-84.0,106.0
127.0,128.0,127.0,126.0,126.0,130.0,125.0,129.0,-1.0,109.0,-81.0,127.0,127.0,127.0,-114.0,-84.0,106.0
127.0,128.0,127.0,126.0,127.0,130.0,125.0,129.0,-1.0,109.0,-81.0,127.0,127.0,127.0,-114.0,-84.0,106.0
127.0,128.0,127.0,126.0,127.0,130.0,125.0,129.0,-1.0,109.0,-81.0,127.0,127.0,127.0,-114.0,-84.0,106.0
127.0,128.0,127.0,126.0,127.0,130.0,125.0,129.0,-1.0,109.0,-81.0,127.0,127.0,127.0,-114.0,-84.0,106.0
127.0,128.0,127.0,126.0,127.0,130.0,125.0,129.0,-1.0,109.0,-81.0,127.0,127.0,127.0,-114.0,-84.0,106.0
127.0,128.0,127.0,127.0,126.0,129.0,126.0,129.0,-1.0,109.0,-82.0,127.0,127.0,127.0,-114.0,-84.0,106.0
127.0,128.0,127.0,126.0,126.0,129.0,126.0,128.0,-1.0,109.0,-82.0,127.0,127.0,127.0,-114.0,-84.0,106.0
127.0,128.0,126.0,127.0,126.0,130.0,125.0,129.0,-1.0,109.0,-82.0,127.0,127.0,127.0,-114.0,-84.0,106.0
127.0,128.0,127.0,127.0,126.0,130.0,125.0,129.0,-1.0,109.0,-82.0,127.0,127.0,127.0,-114.0,-84.0,106.0
127.0,128.0,127.0,127.0,126.0,130.0,125.0,129.0,-1.0,109.0,-82.0,127.0,127.0,127.0,-114.0,-84.0,106.0
127.0,128.0,127.0,127.0,126.0,130.0,125.0,129.0,-1.0,109.0,-82.0,127.0,127.0,127.0,-114.0,-84.0,106.0
127.0,128.0,127.0,127.0,126.0,130.0,125.0,129.0,-1.0,109.0,-82.0,127.0,127.0,127.0,-114.0,-84.0,106.0
127.0,128.0,127.0,127.0,127.0,130.0,125.0,129.0,-1.0,109.0,-82.0,127.0,127.0,127.0,-114.0,-84.0,106.0
127.0,128.0,127.0,127.0,127.0,129.0,126.0,129.0,-1.0,109.0,-82.0,127.0,127.0,127.0,-114.0,-84.0,106.0
127.0,128.0,127.0,127.0,126.0,129.0,126.0,128.0,-1.0,109.0,-82.0,127.0,127.0,127.0,-114.0,-84.0,106.0
127.0,128.0,127.0,127.0,126.0,129.0,127.0,129.0,-1.0,109.0,-82.0,127.0,127.0,127.0,-114.0,-84.0,106.0
127.0,128.0,127.0,127.0,126.0,130.0,126.0,129.0,-1.0,109.0,-82.0,127.0,127.0,127.0,-114.0,-84.0,106.0
127.0,128.0,127.0,127.0,126.0,130.0,126.0,129.0,-1.0,109.0,-82.0,127.0,127.0,127.0,-114.0,-84.0,106.0
127.0,128.0,127.0,127.0,126.0,130.0,126.0,129.0,-1.0,109.0,-82.0,127.0,127.0,127.0,-114.0,-84.0,106.0
127.0,128.0,127.0,127.0,126.0,129.0,126.0,129.0,-1.0,109.0,-82.0,127.0,127.0,127.0,-114.0,-84.0,106.0
127.0,128.0,127.0,127.0,126.0,129.0,126.0,129.0,-1.0,109.0,-82.0,127.0,127.0,127.0,-114.0,-84.0,106.0
127.0,128.0,127.0,127.0,126.0,129.0,126.0,129.0,-1.0,109.0,-82.0,127.0,127.0,127.0,-114.0,-84.0,106.0
127.0,128.0,127.0,127.0,127.0,129.0,126.0,129.0,-1.0,109.0,-82.0,127.0,127.0,127.0,-114.0,-84.0,106.0
127.0,128.0,127.0,127.0,126.0,129.0,127.0,129.0,-1.0,109.0,-82.0,127.0,127.0,127.0,-114.0,-84.0,106.0
127.0,128.0,127.0,127.0,126.0,129.0,127.0,129.0,-1.0,109.0,-82.0,127.0,127.0,127.0,-114.0,-84.0,106.0
127.0,128.0,126.0,126.0,126.0,129.0,126.0,129.0,-1.0,109.0,-82.0,127.0,127.0,127.0,-115.0,-84.0,106.0
127.0,128.0,126.0,126.0,126.0,129.0,126.0,129.0,-1.0,109.0,-82.0,127.0,127.0,127.0,-115.0,-84.0,106.0
127.0,128.0,126.0,126.0,126.0,129.0,126.0,129.0,-1.0,109.0,-82.0,127.0,127.0,127.0,-115.0,-84.0,106.0
126.0,128.0,126.0,126.0,126.0,129.0,126.0,129.0,-1.0,109.0,-82.0,127.0,127.0,127.0,-115.0,-84.0,106.0
127.0,128.0,127.0,126.0,126.0,129.0,126.0,128.0,-1.0,109.0,-82.0,127.0,127.0,127.0,-115.0,-84.0,106.0
127.0,128.0,127.0,126.0,126.0,129.0,126.0,128.0,-1.0,109.0,-82.0,127.0,127.0,127.0,-115.0,-84.0,106.0
126.0,128.0,127.0,126.0,126.0,129.0,126.0,128.0,-1.0,109.0,-82.0,127.0,127.0,127.0,-115.0,-84.0,106.0
127.0,128.0,127.0,126.0,126.0,129.0,127.0,128.0,-1.0,109.0,-82.0,127.0,127.0,127.0,-115.0,-84.0,106.0
127.0,128.0,127.0,126.0,126.0,129.0,126.0,128.0,-1.0,109.0,-82.0,127.0,127.0,127.0,-115.0,-84.0,106.0
127.0,128.0,126.0,126.0,126.0,129.0,126.0,128.0,-1.0,109.0,-82.0,127.0,127.0,127.0,-115.0,-84.0,106.0
127.0,128.0,127.0,126.0,127.0,128.0,128.0,128.0,-1.0,109.0,-82.0,127.0,127.0,127.0,-115.0,-84.0,106.0
127.0,128.0,127.0,126.0,127.0,128.0,128.0,128.0,-1.0,109.0,-82.0,127.0,127.0,127.0,-115.0,-84.0,106.0
127.0,128.0,127.0,126.0,127.0,129.0,127.0,128.0,-1.0,109.0,-82.0,127.0,127.0,127.0,-115.0,-84.0,106.0
127.0,128.0,127.0,126.0,127.0,129.0,127.0,129.0,-1.0,109.0,-82.0,127.0,127.0,127.0,-115.0,-84.0,106.0
127.0,128.0,127.0,126.0,127.0,129.0,127.0,129.0,-1.0,109.0,-82.0,127.0,127.0,127.0,-115.0,-84.0,106.0
127.0,128.0,127.0,126.0,127.0,129.0,127.0,128.0,-1.0,109.0,-82.0,127.0,127.0,127.0,-115.0,-84.0,106.0
127.0,128.0,127.0,126.0,127.0,128.0,128.0,128.0,-1.0,109.0,-82.0,127.0,127.0,127.0,-115.0,-84.0,106.0
127.0,128.0,127.0,126.0,127.0,128.0,128.0,128.0,-1.0,109.0,-82.0,127.0,127.0,127.0,-115.0,-84.0,106.0
127.0,128.0,127.0,126.0,127.0,128.0,128.0,128.0,-1.0,109.0,-82.0,127.0,127.0,127.0,-115.0,-84.0,106.0
127.0,128.0,127.0,126.0,127.0,128.0,128.0,128.0,-1.0,109.0,-82.0,127.0,127.0,127.0,-115.0,-84.0,106.0
127.0,127.0,127.0,127.0,127.0,129.0,128.0,128.0,-1.0,109.0,-82.0,127.0,127.0,127.0,-115.0,-84.0,106.0
127.0,128.0,127.0,127.0,127.0,129.0,128.0,128.0,-1.0,109.0,-82.0,127.0,127.0,127.0,-115.0,-84.0,106.0
127.0,127.0,127.0,127.0,127.0,129.0,128.0,128.0,-1.0,109.0,-82.0,127.0,127.0,127.0,-115.0,-84.0,106.0
127.0,127.0,127.0,127.0,127.0,129.0,128.0,128.0,-1.0,109.0,-82.0,127.0,127.0,127.0,-115.0,-84.0,106.0
127.0,127.0,127.0,127.0,127.0,129.0,128.0,128.0,-1.0,109.0,-82.0,127.0,127.0,127.0,-115.0,-84.0,106.0
127.0,128.0,127.0,126.0,126.0,129.0,128.0,128.0,-1.0,109.0,-82.0,127.0,127.0,127.0,-115.0,-84.0,106.0
127.0,128.0,127.0,127.0,126.0,129.0,128.0,128.0,-1.0,109.0,-82.0,127.0,127.0,127.0,-115.0,-84.0,106.0
127.0,128.0,127.0,127.0,126.0,129.0,128.0,128.0,-1.0,109.0,-82.0,127.0,127.0,127.0,-115.0,-84.0,106.0
127.0,128.0,127.0,126.0,126.0,129.0,128.0,128.0,-1.0,109.0,-82.0,127.0,127.0,127.0,-115.0,-84.0,106.0
127.0,128.0,127.0,127.0,127.0,129.0,128.0,128.0,-1.0,109.0,-82.0,127.0,127.0,127.0,-115.0,-84.0,106.0
127.0,128.0,127.0,126.0,126.0,129.0,128.0,128.0,-1.0,109.0,-83.0,127.0,127.0,127.0,-115.0,-84.0,106.0
127.0,127.0,127.0,126.0,126.0,129.0,128.0,128.0,-1.0,109.0,-83.0,127.0,127.0,127.0,-115.0,-84.0,106.0
127.0,127.0,127.0,126.0,126.0,129.0,128.0,128.0,-1.0,109.0,-83.0,127.0,127.0,127.0,-115.0,-84.0,106.0
127.0,127.0,127.0,126.0,126.0,129.0,128.0,128.0,-1.0,109.0,-83.0,127.0,127.0,127.0,-115.0,-84.0,106.0
127.0,128.0,127.0,126.0,126.0,129.0,128.0,128.0,-1.0,109.0,-83.0,127.0,127.0,127.0,-115.0,-84.0,106.0
127.0,128.0,127.0,126.0,126.0,130.0,128.0,128.0,-1.0,109.0,-83.0,127.0,127.0,127.0,-115.0,-84.0,106.0
127.0,128.0,127.0,126.0,126.0,130.0,128.0,128.0,-1.0,109.0,-83.0,127.0,127.0,127.0,-115.0,-84.0,106.0
127.0,128.0,127.0,126.0,126.0,129.0,128.0,128.0,-1.0,109.0,-83.0,127.0,127.0,127.0,-115.0,-84.0,106.0
127.0,128.0,127.0,126.0,126.0,129.0,128.0,128.0,-1.0,109.0,-83.0,127.0,127.0,127.0,-115.0,-84.0,106.0
127.0,128.0,127.0,126.0,126.0,130.0,128.0,128.0,-1.0,109.0,-83.0,127.0,127.0,127.0,-115.0,-84.0,106.0
127.0,128.0,127.0,127.0,126.0,129.0,130.0,129.0,-1.0,109.0,-83.0,127.0,127.0,127.0,-115.0,-84.0,106.0
127.0,128.0,127.0,127.0,126.0,129.0,130.0,129.0,-1.0,109.0,-83.0,127.0,127.0,127.0,-115.0,-84.0,106.0
127.0,128.0,127.0,127.0,126.0,129.0,130.0,129.0,-1.0,109.0,-83.0,127.0,127.0,127.0,-115.0,-84.0,106.0
127.0,128.0,127.0,126.0,126.0,129.0,129.0,129.0,-1.0,109.0,-83.0,127.0,127.0,127.0,-115.0,-84.0,106.0
127.0,128.0,126.0,127.0,126.0,129.0,129.0,129.0,-1.0,109.0,-83.0,127.0,127.0,127.0,-115.0,-84.0,106.0
127.0,128.0,127.0,127.0,126.0,129.0,129.0,129.0,-1.0,109.0,-83.0,127.0,127.0,127.0,-115.0,-84.0,106.0
127.0,128.0,127.0,127.0,126.0,129.0,129.0,129.0,-1.0,109.0,-83.0,127.0,127.0,127.0,-115.0,-84.0,106.0
127.0,128.0,127.0,127.0,126.0,129.0,129.0,129.0,-1.0,109.0,-83.0,127.0,127.0,127.0,-115.0,-84.0,106.0
127.0,128.0,127.0,127.0,126.0,129.0,129.0,129.0,-1.0,109.0,-83.0,127.0,127.0,127.0,-115.0,-84.0,106.0
127.0,128.0,127.0,127.0,126.0,129.0,129.0,129.0,-1.0,109.0,-83.0,127.0,127.0,127.0,-115.0,-84.0,106.0
127.0,128.0,127.0,127.0,127.0,129.0,131.0,129.0,-1.0,109.0,-83.0,127.0,127.0,127.0,-115.0,-84.0,106.0
127.0,128.0,127.0,127.0,127.0,129.0,131.0,129.0,-1.0,109.0,-83.0,127.0,127.0,127.0,-115.0,-84.0,106.0
127.0,128.0,127.0,126.0,126.0,129.0,131.0,129.0,-1.0,109.0,-83.0,127.0,127.0,127.0,-115.0,-84.0,106.0
127.0,128.0,127.0,126.0,126.0,129.0,131.0,129.0,-1.0,109.0,-83.0,127.0,127.0,127.0,-115.0,-84.0,106.0
127.0,128.0,127.0,127.0,126.0,129.0,131.0,129.0,-1.0,109.0,-83.0,127.0,127.0,127.0,-115.0,-84.0,106.0
127.0,128.0,127.0,127.0,126.0,129.0,131.0,129.0,-1.0,109.0,-83.0,127.0,127.0,127.0,-115.0,-84.0,106.0
127.0,128.0,127.0,127.0,126.0,129.0,131.0,129.0,-1.0,109.0,-83.0,127.0,127.0,127.0,-115.0,-84.0,106.0
127.0,128.0,127.0,127.0,126.0,129.0,131.0,129.0,-1.0,109.0,-83.0,127.0,127.0,127.0,-115.0,-84.0,106.0
127.0,128.0,127.0,127.0,127.0,129.0,131.0,129.0,-1.0,109.0,-83.0,127.0,127.0,127.0,-115.0,-84.0,106.0
127.0,128.0,127.0,127.0,127.0,129.0,131.0,129.0,-1.0,109.0,-83.0,127.0,127.0,127.0,-115.0,-84.0,106.0
127.0,127.0,127.0,126.0,126.0,129.0,130.0,129.0,-1.0,109.0,-83.0,127.0,127.0,127.0,-115.0,-84.0,106.0
127.0,128.0,127.0,126.0,126.0,128.0,130.0,129.0,-1.0,109.0,-83.0,127.0,127.0,127.0,-115.0,-84.0,106.0
127.0,128.0,127.0,126.0,126.0,129.0,130.0,129.0,-1.0,109.0,-83.0,127.0,127.0,127.0,-115.0,-84.0,106.0
127.0,128.0,127.0,126.0,126.0,129.0,130.0,129.0,-1.0,109.0,-83.0,127.0,127.0,127.0,-115.0,-84.0,106.0
127.0,128.0,127.0,126.0,126.0,129.0,130.0,129.0,-1.0,109.0,-83.0,127.0,127.0,127.0,-115.0,-84.0,106.0
127.0,128.0,127.0,126.0,126.0,129.0,130.0,129.0,-1.0,109.0,-83.0,127.0,127.0,127.0,-115.0,-84.0,106.0
127.0,128.0,127.0,126.0,126.0,129.0,130.0,129.0,-1.0,109.0,-83.0,127.0,127.0,127.0,-115.0,-84.0,106.0
127.0,128.0,127.0,126.0,126.0,129.0,130.0,129.0,-1.0,109.0,-83.0,127.0,127.0,127.0,-115.0,-84.0,106.0
127.0,127.0,127.0,126.0,126.0,129.0,130.0,129.0,-1.0,109.0,-83.0,127.0,127.0,127.0,-115.0,-84.0,106.0
127.0,127.0,127.0,126.0,126.0,129.0,130.0,129.0,-1.0,109.0,-83.0,127.0,127.0,127.0,-115.0,-84.0,106.0
127.0,127.0,127.0,126.0,126.0,129.0,128.0,128.0,-1.0,109.0,-83.0,127.0,127.0,127.0,-115.0,-84.0,106.0
127.0,128.0,127.0,126.0,126.0,129.0,128.0,128.0,-1.0,109.0,-83.0,127.0,127.0,127.0,-115.0,-84.0,106.0
127.0,128.0,127.0,126.0,126.0,129.0,127.0,128.0,-1.0,109.0,-83.0,127.0,127.0,127.0,-115.0,-84.0,106.0
127.0,128.0,127.0,127.0,126.0,130.0,127.0,128.0,-1.0,109.0,-83.0,127.0,127.0,127.0,-115.0,-84.0,106.0
127.0,127.0,127.0,127.0,126.0,129.0,127.0,128.0,-1.0,109.0,-83.0,127.0,127.0,127.0,-115.0,-84.0,106.0
127.0,127.0,127.0,127.0,126.0,129.0,127.0,128.0,-1.0,109.0,-83.0,127.0,127.0,127.0,-115.0,-84.0,106.0
127.0,127.0,127.0,127.0,126.0,130.0,127.0,128.0,-1.0,109.0,-83.0,127.0,127.0,127.0,-115.0,-84.0,106.0
127.0,127.0,127.0,127.0,126.0,129.0,127.0,128.0,-1.0,109.0,-83.0,127.0,127.0,127.0,-115.0,-84.0,106.0
127.0,127.0,127.0,127.0,127.0,129.0,127.0,128.0,-1.0,109.0,-83.0,127.0,127.0,127.0,-115.0,-84.0,106.0
127.0,127.0,127.0,127.0,126.0,129.0,127.0,128.0,-1.0,109.0,-83.0,127.0,127.0,127.0,-115.0,-84.0,106.0
127.0,128.0,126.0,126.0,126.0,129.0,125.0,128.0,-1.0,109.0,-83.0,127.0,127.0,127.0,-115.0,-84.0,106.0
127.0,128.0,126.0,126.0,126.0,129.0,124.0,128.0,-1.0,109.0,-83.0,127.0,127.0,127.0,-115.0,-84.0,106.0
127.0,128.0,126.0,126.0,126.0,129.0,124.0,128.0,-1.0,109.0,-83.0,127.0,127.0,127.0,-115.0,-84.0,106.0
127.0,128.0,126.0,126.0,126.0,129.0,124.0,128.0,-1.0,109.0,-83.0,127.0,127.0,127.0,-115.0,-84.0,106.0
127.0,128.0,126.0,126.0,126.0,129.0,124.0,128.0,-1.0,109.0,-83.0,127.0,127.0,127.0,-115.0,-84.0,106.0
127.0,128.0,127.0,126.0,126.0,129.0,124.0,128.0,-1.0,109.0,-83.0,127.0,127.0,127.0,-115.0,-84.0,106.0
127.0,128.0,127.0,126.0,126.0,129.0,124.0,128.0,-1.0,109.0,-83.0,127.0,127.0,127.0,-115.0,-84.0,106.0
127.0,128.0,127.0,126.0,126.0,129.0,124.0,128.0,-1.0,109.0,-83.0,127.0,127.0,127.0,-115.0,-84.0,106.0
127.0,128.0,127.0,126.0,126.0,129.0,124.0,128.0,-1.0,109.0,-83.0,127.0,127.0,127.0,-115.0,-84.0,106.0
127.0,128.0,126.0,126.0,126.0,129.0,125.0,128.0,-1.0,109.0,-83.0,127.0,127.0,127.0,-115.0,-84.0,106.0
127.0,128.0,127.0,127.0,127.0,129.0,124.0,128.0,-1.0,109.0,-83.0,127.0,127.0,127.0,-115.0,-84.0,106.0
127.0,128.0,127.0,127.0,127.0,129.0,124.0,128.0,-1.0,109.0,-83.0,127.0,127.0,127.0,-115.0,-84.0,106.0
127.0,128.0,127.0,127.0,127.0,129.0,124.0,128.0,-1.0,109.0,-83.0,127.0,127.0,127.0,-115.0,-84.0,106.0
127.0,128.0,127.0,126.0,127.0,129.0,124.0,128.0,-1.0,109.0,-83.0,127.0,127.0,127.0,-115.0,-84.0,106.0
127.0,128.0,127.0,126.0,127.0,129.0,124.0,128.0,-1.0,109.0,-83.0,127.0,127.0,127.0,-115.0,-84.0,106.0
127.0,128.0,127.0,126.0,127.0,128.0,124.0,128.0,-1.0,109.0,-83.0,127.0,127.0,127.0,-115.0,-84.0,106.0
127.0,128.0,127.0,126.0,127.0,128.0,124.0,128.0,-1.0,109.0,-83.0,127.0,127.0,127.0,-115.0,-84.0,106.0
127.0,128.0,127.0,126.0,127.0,128.0,124.0,128.0,-1.0,109.0,-83.0,127.0,127.0,127.0,-115.0,-84.0,106.0
127.0,128.0,127.0,127.0,126.0,129.0,124.0,129.0,-1.0,109.0,-83.0,127.0,127.0,127.0,-115.0,-84.0,106.0
127.0,128.0,127.0,127.0,127.0,129.0,124.0,128.0,-1.0,109.0,-83.0,127.0,127.0,127.0,-115.0,-84.0,106.0
127.0,128.0,127.0,127.0,126.0,129.0,125.0,128.0,-1.0,109.0,-82.0,127.0,127.0,127.0,-115.0,-84.0,106.0
127.0,128.0,127.0,127.0,127.0,129.0,125.0,128.0,-1.0,109.0,-82.0,127.0,127.0,127.0,-115.0,-84.0,106.0
127.0,128.0,127.0,127.0,127.0,129.0,125.0,128.0,-1.0,109.0,-82.0,127.0,127.0,127.0,-115.0,-84.0,106.0
127.0,128.0,127.0,127.0,127.0,129.0,125.0,128.0,-1.0,109.0,-82.0,127.0,127.0,127.0,-115.0,-84.0,106.0
127.0,128.0,127.0,127.0,127.0,128.0,125.0,128.0,-1.0,109.0,-82.0,127.0,127.0,127.0,-115.0,-84.0,106.0
127.0,128.0,127.0,127.0,127.0,128.0,125.0,128.0,-1.0,109.0,-82.0,127.0,127.0,127.0,-115.0,-84.0,106.0
127.0,127.0,127.0,127.0,127.0,128.0,125.0,128.0,-1.0,109.0,-82.0,127.0,127.0,127.0,-115.0,-84.0,106.0
127.0,128.0,127.0,127.0,126.0,129.0,125.0,128.0,-1.0,109.0,-82.0,127.0,127.0,127.0,-115.0,-84.0,106.0
127.0,128.0,127.0,127.0,126.0,129.0,125.0,128.0,-1.0,109.0,-82.0,127.0,127.0,127.0,-115.0,-84.0,106.0
127.0,128.0,127.0,127.0,126.0,129.0,125.0,128.0,-1.0,109.0,-82.0,127.0,127.0,127.0,-115.0,-84.0,106.0
127.0,128.0,127.0,126.0,127.0,129.0,126.0,128.0,-1.0,109.0,-82.0,127.0,127.0,127.0,-115.0,-84.0,106.0
127.0,128.0,127.0,126.0,127.0,129.0,126.0,128.0,-1.0,109.0,-82.0,127.0,127.0,127.0,-115.0,-84.0,106.0
127.0,128.0,127.0,126.0,127.0,129.0,126.0,128.0,-1.0,109.0,-82.0,127.0,127.0,127.0,-115.0,-84.0,106.0
127.0,128.0,127.0,126.0,127.0,129.0,126.0,128.0,-1.0,109.0,-82.0,127.0,127.0,127.0,-115.0,-84.0,106.0
127.0,128.0,127.0,126.0,127.0,129.0,126.0,128.0,-1.0,109.0,-82.0,127.0,127.0,127.0,-115.0,-84.0,106.0
127.0,127.0,127.0,126.0,127.0,129.0,126.0,128.0,-1.0,109.0,-82.0,127.0,127.0,127.0,-115.0,-84.0,106.0
127.0,128.0,127.0,126.0,126.0,129.0,125.0,128.0,-1.0,109.0,-82.0,127.0,127.0,127.0,-115.0,-84.0,106.0
127.0,128.0,127.0,126.0,126.0,129.0,125.0,128.0,-1.0,109.0,-82.0,127.0,127.0,127.0,-115.0,-84.0,106.0
127.0,128.0,127.0,126.0,127.0,129.0,126.0,128.0,-1.0,109.0,-82.0,127.0,127.0,127.0,-115.0,-84.0,106.0
127.0,128.0,127.0,126.0,127.0,129.0,126.0,128.0,-1.0,109.0,-82.0,127.0,127.0,127.0,-115.0,-84.0,106.0
127.0,127.0,127.0,126.0,126.0,129.0,127.0,128.0,-1.0,109.0,-82.0,127.0,127.0,127.0,-115.0,-84.0,106.0
127.0,127.0,127.0,126.0,127.0,128.0,127.0,128.0,-1.0,109.0,-82.0,127.0,127.0,127.0,-115.0,-84.0,106.0
127.0,127.0,127.0,126.0,127.0,129.0,127.0,128.0,-1.0,109.0,-82.0,127.0,127.0,127.0,-115.0,-84.0,106.0
127.0,127.0,127.0,126.0,127.0,128.0,127.0,128.0,-1.0,109.0,-82.0,127.0,127.0,127.0,-115.0,-84.0,106.0
127.0,127.0,127.0,126.0,127.0,128.0,127.0,128.0,-1.0,109.0,-82.0,127.0,127.0,127.0,-115.0,-84.0,106.0
127.0,128.0,127.0,126.0,126.0,129.0,126.0,128.0,-1.0,109.0,-82.0,127.0,127.0,127.0,-115.0,-84.0,106.0
127.0,128.0,127.0,126.0,126.0,129.0,126.0,128.0,-1.0,109.0,-82.0,127.0,127.0,127.0,-115.0,-84.0,106.0
127.0,127.0,127.0,126.0,126.0,129.0,126.0,128.0,-1.0,109.0,-82.0,127.0,127.0,127.0,-115.0,-84.0,106.0
127.0,127.0,127.0,126.0,126.0,129.0,126.0,128.0,-1.0,109.0,-82.0,127.0,127.0,127.0,-115.0,-84.0,106.0
127.0,127.0,127.0,126.0,126.0,129.0,126.0,128.0,-1.0,109.0,-82.0,127.0,127.0,127.0,-115.0,-84.0,106.0
127.0,127.0,127.0,126.0,126.0,129.0,128.0,128.0,-1.0,109.0,-82.0,127.0,127.0,127.0,-115.0,-84.0,106.0
127.0,127.0,127.0,126.0,126.0,128.0,128.0,128.0,-1.0,109.0,-82.0,127.0,127.0,127.0,-115.0,-84.0,106.0
127.0,127.0,127.0,126.0,126.0,128.0,128.0,128.0,-1.0,109.0,-82.0,127.0,127.0,127.0,-115.0,-84.0,106.0
127.0,127.0,127.0,126.0,126.0,128.0,128.0,128.0,-1.0,109.0,-82.0,127.0,127.0,127.0,-115.0,-84.0,106.0
127.0,128.0,126.0,126.0,126.0,129.0,127.0,128.0,-1.0,109.0,-82.0,127.0,127.0,127.0,-115.0,-84.0,106.0
127.0,128.0,126.0,126.0,126.0,129.0,127.0,128.0,-1.0,109.0,-82.0,127.0,127.0,127.0,-115.0,-84.0,106.0
127.0,128.0,127.0,126.0,126.0,129.0,127.0,128.0,-1.0,109.0,-82.0,127.0,127.0,127.0,-115.0,-84.0,106.0
127.0,127.0,127.0,126.0,126.0,129.0,127.0,128.0,-1.0,109.0,-82.0,127.0,127.0,127.0,-115.0,-84.0,106.0
127.0,127.0,127.0,126.0,126.0,129.0,128.0,128.0,-1.0,109.0,-82.0,127.0,127.0,127.0,-115.0,-84.0,106.0
127.0,127.0,127.0,126.0,126.0,129.0,128.0,128.0,-1.0,109.0,-82.0,127.0,127.0,127.0,-115.0,-84.0,106.0
127.0,127.0,127.0,127.0,126.0,129.0,129.0,128.0,-1.0,109.0,-82.0,127.0,127.0,127.0,-115.0,-84.0,106.0
127.0,127.0,127.0,127.0,126.0,128.0,129.0,128.0,-1.0,109.0,-82.0,127.0,127.0,127.0,-115.0,-84.0,106.0
127.0,127.0,127.0,127.0,126.0,128.0,129.0,128.0,-1.0,109.0,-82.0,127.0,127.0,127.0,-115.0,-84.0,106.0
127.0,128.0,127.0,127.0,126.0,129.0,129.0,129.0,-1.0,109.0,-82.0,127.0,127.0,127.0,-115.0,-84.0,106.0
127.0,128.0,127.0,127.0,126.0,129.0,129.0,129.0,-1.0,109.0,-82.0,127.0,127.0,127.0,-115.0,-84.0,106.0
127.0,128.0,127.0,127.0,126.0,129.0,129.0,129.0,-1.0,109.0,-82.0,127.0,127.0,127.0,-115.0,-84.0,106.0
127.0,127.0,127.0,127.0,126.0,129.0,129.0,128.0,-1.0,109.0,-82.0,127.0,127.0,127.0,-115.0,-84.0,106.0
127.0,127.0,127.0,127.0,126.0,129.0,129.0,128.0,-1.0,109.0,-82.0,127.0,127.0,127.0,-115.0,-84.0,106.0
127.0,127.0,127.0,127.0,126.0,129.0,129.0,128.0,-1.0,109.0,-82.0,127.0,127.0,127.0,-115.0,-84.0,106.0
127.0,127.0,127.0,127.0,126.0,129.0,129.0,128.0,-1.0,109.0,-82.0,127.0,127.0,127.0,-115.0,-84.0,106.0
127.0,127.0,127.0,127.0,127.0,128.0,128.0,128.0,-1.0,109.0,-82.0,127.0,127.0,127.0,-115.0,-84.0,106.0
127.0,127.0,127.0,127.0,127.0,128.0,128.0,128.0,-1.0,109.0,-82.0,127.0,127.0,127.0,-115.0,-84.0,106.0
127.0,127.0,126.0,127.0,126.0,129.0,128.0,128.0,-1.0,109.0,-82.0,127.0,127.0,127.0,-115.0,-84.0,106.0
127.0,128.0,126.0,127.0,126.0,129.0,128.0,128.0,-1.0,109.0,-82.0,127.0,127.0,127.0,-115.0,-84.0,106.0
127.0,127.0,126.0,127.0,126.0,129.0,128.0,128.0,-1.0,109.0,-82.0,127.0,127.0,127.0,-115.0,-84.0,106.0
127.0,127.0,127.0,127.0,126.0,129.0,128.0,128.0,-1.0,109.0,-82.0,127.0,127.0,127.0,-115.0,-84.0,106.0
127.0,127.0,127.0,127.0,127.0,129.0,128.0,128.0,-1.0,109.0,-82.0,127.0,127.0,127.0,-115.0,-84.0,106.0
127.0,127.0,127.0,127.0,127.0,129.0,128.0,128.0,-1.0,109.0,-82.0,127.0,127.0,127.0,-115.0,-84.0,106.0
127.0,127.0,127.0,127.0,127.0,128.0,128.0,128.0,-1.0,109.0,-82.0,127.0,127.0,127.0,-115.0,-84.0,106.0
127.0,127.0,127.0,127.0,127.0,128.0,128.0,128.0,-1.0,109.0,-82.0,127.0,127.0,127.0,-115.0,-84.0,106.0
127.0,127.0,127.0,127.0,126.0,128.0,127.0,128.0,-1.0,109.0,-82.0,127.0,127.0,127.0,-115.0,-84.0,106.0
127.0,128.0,127.0,127.0,126.0,128.0,127.0,128.0,-1.0,109.0,-82.0,127.0,127.0,127.0,-115.0,-84.0,106.0
127.0,128.0,127.0,127.0,126.0,129.0,127.0,128.0,-1.0,109.0,-82.0,127.0,127.0,127.0,-115.0,-84.0,106.0
127.0,128.0,127.0,127.0,126.0,129.0,127.0,128.0,-1.0,109.0,-82.0,127.0,127.0,127.0,-115.0,-84.0,106.0
127.0,128.0,127.0,127.0,126.0,128.0,127.0,128.0,-1.0,109.0,-82.0,127.0,127.0,127.0,-115.0,-84.0,106.0
127.0,128.0,127.0,127.0,126.0,128.0,127.0,128.0,-1.0,109.0,-82.0,127.0,127.0,127.0,-115.0,-84.0,106.0
127.0,128.0,127.0,127.0,126.0,128.0,127.0,128.0,-1.0,109.0,-82.0,127.0,127.0,127.0,-115.0,-84.0,106.0
127.0,128.0,127.0,127.0,126.0,128.0,127.0,128.0,-1.0,109.0,-82.0,127.0,127.0,127.0,-115.0,-84.0,106.0
127.0,127.0,127.0,127.0,126.0,128.0,127.0,128.0,-1.0,109.0,-82.0,127.0,127.0,127.0,-115.0,-84.0,106.0
127.0,127.0,127.0,127.0,126.0,128.0,127.0,128.0,-1.0,109.0,-82.0,127.0,127.0,127.0,-115.0,-84.0,106.0
127.0,127.0,127.0,126.0,126.0,127.0,126.0,128.0,-1.0,109.0,-82.0,127.0,127.0,127.0,-115.0,-84.0,106.0
127.0,127.0,127.0,126.0,126.0,127.0,126.0,128.0,-1.0,109.0,-82.0,127.0,127.0,127.0,-115.0,-84.0,106.0
127.0,127.0,127.0,126.0,126.0,127.0,125.0,128.0,-1.0,109.0,-82.0,127.0,127.0,127.0,-115.0,-84.0,106.0
127.0,127.0,127.0,126.0,126.0,128.0,125.0,128.0,-1.0,109.0,-82.0,127.0,127.0,127.0,-115.0,-84.0,106.0
127.0,127.0,127.0,126.0,126.0,128.0,125.0,128.0,-1.0,109.0,-82.0,127.0,127.0,127.0,-115.0,-84.0,106.0
127.0,127.0,127.0,126.0,126.0,128.0,125.0,128.0,-1.0,109.0,-82.0,127.0,127.0,127.0,-115.0,-84.0,106.0
127.0,127.0,127.0,126.0,126.0,128.0,125.0,128.0,-1.0,109.0,-82.0,127.0,127.0,127.0,-115.0,-84.0,106.0
127.0,127.0,127.0,126.0,126.0,128.0,125.0,128.0,-1.0,109.0,-82.0,127.0,127.0,127.0,-115.0,-84.0,106.0
127.0,127.0,127.0,126.0,126.0,128.0,125.0,128.0,-1.0,109.0,-82.0,127.0,127.0,127.0,-115.0,-84.0,106.0
127.0,127.0,127.0,126.0,126.0,128.0,125.0,128.0,-1.0,109.0,-82.0,127.0,127.0,127.0,-115.0,-84.0,106.0
127.0,128.0,127.0,127.0,126.0,128.0,125.0,128.0,-1.0,109.0,-82.0,127.0,127.0,127.0,-115.0,-84.0,106.0
127.0,128.0,127.0,127.0,126.0,128.0,125.0,128.0,-1.0,109.0,-82.0,127.0,127.0,127.0,-115.0,-84.0,106.0
127.0,127.0,127.0,127.0,126.0,128.0,125.0,128.0,-1.0,109.0,-82.0,127.0,127.0,127.0,-115.0,-84.0,106.0
127.0,127.0,127.0,127.0,126.0,128.0,125.0,128.0,-1.0,109.0,-82.0,127.0,127.0,127.0,-115.0,-84.0,106.0
127.0,127.0,127.0,127.0,127.0,128.0,126.0,128.0,-1.0,109.0,-82.0,127.0,127.0,127.0,-115.0,-84.0,106.0
127.0,127.0,127.0,127.0,127.0,128.0,126.0,128.0,-1.0,109.0,-82.0,127.0,127.0,127.0,-115.0,-84.0,106.0
127.0,127.0,127.0,127.0,127.0,128.0,126.0,128.0,-1.0,109.0,-82.0,127.0,127.0,127.0,-115.0,-84.0,106.0
127.0,127.0,127.0,127.0,127.0,128.0,126.0,128.0,-1.0,109.0,-82.0,127.0,127.0,127.0,-115.0,-84.0,106.0
127.0,127.0,127.0,127.0,127.0,128.0,126.0,128.0,-1.0,109.0,-82.0,127.0,127.0,127.0,-115.0,-84.0,106.0
127.0,128.0,127.0,127.0,126.0,128.0,125.0,128.0,-1.0,109.0,-82.0,127.0,127.0,127.0,-115.0,-84.0,106.0
127.0,128.0,127.0,127.0,126.0,128.0,126.0,128.0,-1.0,109.0,-82.0,127.0,127.0,127.0,-115.0,-84.0,106.0
127.0,128.0,127.0,127.0,126.0,128.0,126.0,128.0,-1.0,109.0,-82.0,127.0,127.0,127.0,-115.0,-84.0,106.0
127.0,127.0,127.0,127.0,126.0,128.0,126.0,128.0,-1.0,109.0,-82.0,127.0,127.0,127.0,-115.0,-84.0,106.0
127.0,127.0,127.0,127.0,127.0,128.0,126.0,128.0,-1.0,109.0,-82.0,127.0,127.0,127.0,-115.0,-84.0,106.0
127.0,127.0,127.0,127.0,127.0,128.0,126.0,128.0,-1.0,109.0,-82.0,127.0,127.0,127.0,-115.0,-84.0,106.0
127.0,127.0,127.0,127.0,127.0,128.0,126.0,128.0,-1.0,109.0,-82.0,127.0,127.0,127.0,-115.0,-84.0,106.0
127.0,127.0,127.0,127.0,127.0,128.0,126.0,128.0,-1.0,109.0,-82.0,127.0,127.0,127.0,-115.0,-84.0,106.0
127.0,127.0,127.0,127.0,127.0,128.0,126.0,128.0,-1.0,109.0,-82.0,127.0,127.0,127.0,-115.0,-84.0,106.0
127.0,128.0,127.0,127.0,126.0,128.0,126.0,128.0,-1.0,109.0,-82.0,127.0,127.0,127.0,-115.0,-84.0,106.0
127.0,128.0,127.0,127.0,126.0,128.0,126.0,128.0,-1.0,109.0,-82.0,127.0,127.0,127.0,-115.0,-84.0,106.0
127.0,127.0,127.0,127.0,126.0,128.0,125.0,128.0,-1.0,109.0,-82.0,127.0,127.0,127.0,-115.0,-84.0,106.0
127.0,127.0,127.0,127.0,127.0,128.0,125.0,128.0,-1.0,109.0,-82.0,127.0,127.0,127.0,-115.0,-84.0,106.0
127.0,127.0,127.0,127.0,127.0,128.0,125.0,128.0,-1.0,109.0,-82.0,127.0,127.0,127.0,-115.0,-84.0,106.0
127.0,127.0,127.0,127.0,127.0,128.0,125.0,128.0,-1.0,109.0,-82.0,127.0,127.0,127.0,-115.0,-84.0,106.0
127.0,127.0,127.0,127.0,127.0,128.0,125.0,128.0,-1.0,109.0,-82.0,127.0,127.0,127.0,-115.0,-84.0,106.0
127.0,127.0,127.0,127.0,127.0,128.0,125.0,128.0,-1.0,109.0,-82.0,127.0,127.0,127.0,-115.0,-84.0,106.0
127.0,127.0,127.0,127.0,127.0,128.0,125.0,128.0,-1.0,109.0,-82.0,127.0,127.0,127.0,-115.0,-84.0,106.0
127.0,128.0,127.0,127.0,126.0,128.0,125.0,128.0,-1.0,109.0,-82.0,127.0,127.0,127.0,-115.0,-84.0,106.0
127.0,128.0,127.0,127.0,126.0,128.0,125.0,128.0,-1.0,109.0,-82.0,127.0,127.0,127.0,-115.0,-84.0,106.0
127.0,128.0,127.0,127.0,126.0,128.0,125.0,128.0,-1.0,109.0,-82.0,127.0,127.0,127.0,-115.0,-84.0,106.0
127.0,127.0,127.0,127.0,127.0,128.0,126.0,128.0,-1.0,109.0,-82.0,127.0,127.0,127.0,-115.0,-84.0,106.0
127.0,127.0,127.0,127.0,127.0,128.0,126.0,128.0,-1.0,109.0,-82.0,127.0,127.0,127.0,-115.0,-84.0,106.0
127.0,127.0,127.0,127.0,127.0,128.0,126.0,128.0,-1.0,109.0,-82.0,127.0,127.0,127.0,-115.0,-84.0,106.0
127.0,127.0,127.0,127.0,127.0,128.0,126.0,128.0,-1.0,109.0,-82.0,127.0,127.0,127.0,-115.0,-84.0,106.0
127.0,127.0,127.0,127.0,127.0,128.0,126.0,128.0,-1.0,109.0,-82.0,127.0,127.0,127.0,-115.0,-84.0,106.0
127.0,127.0,127.0,127.0,127.0,128.0,126.0,128.0,-1.0,109.0,-82.0,127.0,127.0,127.0,-115.0,-84.0,106.0
127.0,127.0,127.0,127.0,126.0,128.0,126.0,128.0,-1.0,109.0,-82.0,127.0,127.0,127.0,-115.0,-84.0,106.0
127.0,127.0,127.0,127.0,126.0,128.0,126.0,128.0,-1.0,109.0,-82.0,127.0,127.0,127.0,-115.0,-84.0,106.0
127.0,127.0,127.0,127.0,126.0,128.0,126.0,128.0,-1.0,109.0,-82.0,127.0,127.0,127.0,-115.0,-84.0,106.0
127.0,127.0,127.0,127.0,126.0,128.0,126.0,128.0,-1.0,109.0,-82.0,127.0,127.0,127.0,-115.0,-84.0,106.0
127.0,127.0,127.0,127.0,126.0,128.0,126.0,128.0,-1.0,109.0,-82.0,127.0,127.0,127.0,-115.0,-84.0,106.0
127.0,127.0,127.0,127.0,126.0,128.0,126.0,128.0,-1.0,109.0,-82.0,127.0,127.0,127.0,-115.0,-84.0,106.0
127.0,127.0,127.0,127.0,126.0,128.0,126.0,128.0,-1.0,109.0,-82.0,127.0,127.0,127.0,-115.0,-84.0,106.0
127.0,127.0,127.0,127.0,126.0,128.0,126.0,128.0,-1.0,109.0,-82.0,127.0,127.0,127.0,-115.0,-84.0,106.0
127.0,127.0,127.0,127.0,126.0,128.0,126.0,128.0,-1.0,109.0,-82.0,127.0,127.0,127.0,-115.0,-84.0,106.0
127.0,127.0,127.0,127.0,126.0,128.0,126.0,128.0,-1.0,109.0,-82.0,127.0,127.0,127.0,-115.0,-84.0,106.0
127.0,127.0,127.0,127.0,126.0,128.0,126.0,128.0,-1.0,109.0,-82.0,127.0,127.0,127.0,-115.0,-84.0,106.0
127.0,127.0,127.0,127.0,126.0,128.0,125.0,128.0,-1.0,109.0,-82.0,127.0,127.0,127.0,-115.0,-84.0,106.0
127.0,127.0,127.0,127.0,126.0,128.0,126.0,128.0,-1.0,109.0,-82.0,127.0,127.0,127.0,-115.0,-84.0,106.0
127.0,127.0,127.0,127.0,126.0,128.0,126.0,128.0,-1.0,109.0,-82.0,127.0,127.0,127.0,-115.0,-84.0,106.0
127.0,127.0,127.0,127.0,127.0,127.0,126.0,128.0,-1.0,109.0,-82.0,127.0,127.0,127.0,-115.0,-84.0,106.0
127.0,127.0,127.0,127.0,127.0,127.0,126.0,128.0,-1.0,109.0,-82.0,127.0,127.0,127.0,-115.0,-84.0,106.0
127.0,127.0,127.0,126.0,127.0,127.0,126.0,128.0,-1.0,109.0,-82.0,127.0,127.0,127.0,-115.0,-84.0,106.0
127.0,127.0,127.0,126.0,127.0,127.0,126.0,128.0,-1.0,109.0,-82.0,127.0,127.0,127.0,-115.0,-84.0,106.0
127.0,128.0,127.0,127.0,126.0,128.0,126.0,129.0,-1.0,109.0,-82.0,127.0,127.0,127.0,-115.0,-84.0,106.0
127.0,128.0,127.0,127.0,126.0,128.0,126.0,129.0,-1.0,109.0,-82.0,127.0,127.0,127.0,-115.0,-84.0,106.0
127.0,128.0,127.0,127.0,126.0,128.0,126.0,129.0,-1.0,109.0,-82.0,127.0,127.0,127.0,-115.0,-84.0,106.0
127.0,128.0,127.0,127.0,126.0,128.0,126.0,129.0,-1.0,109.0,-82.0,127.0,127.0,127.0,-115.0,-84.0,106.0
127.0,127.0,127.0,127.0,126.0,128.0,126.0,129.0,-1.0,109.0,-82.0,127.0,127.0,127.0,-115.0,-84.0,106.0
127.0,128.0,127.0,127.0,127.0,127.0,126.0,128.0,-1.0,109.0,-82.0,127.0,127.0,127.0,-115.0,-84.0,106.0
127.0,127.0,127.0,126.0,127.0,128.0,126.0,128.0,-1.0,109.0,-83.0,127.0,127.0,127.0,-115.0,-84.0,106.0
127.0,127.0,127.0,126.0,127.0,128.0,127.0,128.0,-1.0,109.0,-83.0,127.0,127.0,127.0,-115.0,-84.0,106.0
127.0,127.0,127.0,126.0,126.0,128.0,127.0,128.0,-1.0,109.0,-83.0,127.0,127.0,127.0,-115.0,-84.0,106.0
127.0,128.0,127.0,126.0,126.0,129.0,126.0,128.0,-1.0,109.0,-83.0,127.0,127.0,127.0,-115.0,-84.0,106.0
127.0,128.0,127.0,127.0,126.0,128.0,126.0,128.0,-1.0,109.0,-83.0,127.0,127.0,127.0,-115.0,-84.0,106.0
127.0,127.0,127.0,126.0,126.0,128.0,126.0,128.0,-1.0,109.0,-83.0,127.0,127.0,127.0,-115.0,-84.0,106.0
127.0,127.0,127.0,126.0,126.0,129.0,126.0,128.0,-1.0,109.0,-83.0,127.0,127.0,127.0,-115.0,-84.0,106.0
127.0,127.0,127.0,126.0,126.0,128.0,126.0,128.0,-1.0,109.0,-83.0,127.0,127.0,127.0,-115.0,-84.0,106.0
127.0,127.0,127.0,126.0,126.0,128.0,126.0,128.0,-1.0,109.0,-83.0,127.0,127.0,127.0,-115.0,-84.0,106.0
127.0,127.0,127.0,126.0,126.0,128.0,126.0,128.0,-1.0,109.0,-83.0,127.0,127.0,127.0,-115.0,-84.0,106.0
127.0,128.0,127.0,127.0,126.0,129.0,125.0,128.0,-1.0,109.0,-83.0,127.0,127.0,127.0,-115.0,-84.0,106.0
127.0,128.0,127.0,127.0,126.0,129.0,125.0,128.0,-1.0,109.0,-83.0,127.0,127.0,127.0,-115.0,-84.0,106.0
127.0,127.0,127.0,127.0,126.0,128.0,126.0,128.0,-1.0,109.0,-83.0,127.0,127.0,127.0,-115.0,-84.0,106.0
127.0,127.0,127.0,126.0,126.0,128.0,126.0,128.0,-1.0,109.0,-83.0,127.0,127.0,127.0,-115.0,-84.0,106.0
127.0,127.0,127.0,127.0,126.0,128.0,126.0,128.0,-1.0,109.0,-83.0,127.0,127.0,127.0,-115.0,-84.0,106.0
127.0,127.0,127.0,127.0,126.0,128.0,126.0,128.0,-1.0,109.0,-83.0,127.0,127.0,127.0,-115.0,-84.0,106.0
127.0,128.0,127.0,127.0,126.0,128.0,126.0,128.0,-1.0,109.0,-83.0,127.0,127.0,127.0,-115.0,-84.0,106.0
127.0,127.0,127.0,127.0,126.0,128.0,126.0,128.0,-1.0,109.0,-83.0,127.0,127.0,127.0,-115.0,-84.0,106.0
127.0,127.0,127.0,127.0,126.0,128.0,126.0,128.0,-1.0,109.0,-83.0,127.0,127.0,127.0,-115.0,-84.0,106.0
127.0,127.0,127.0,127.0,126.0,128.0,126.0,128.0,-1.0,109.0,-83.0,127.0,127.0,127.0,-115.0,-84.0,106.0
127.0,128.0,126.0,127.0,126.0,129.0,124.0,128.0,-1.0,109.0,-83.0,127.0,127.0,127.0,-115.0,-84.0,106.0
127.0,127.0,127.0,127.0,126.0,128.0,125.0,128.0,-1.0,109.0,-83.0,127.0,127.0,127.0,-115.0,-84.0,106.0
127.0,127.0,126.0,127.0,126.0,128.0,125.0,128.0,-1.0,109.0,-83.0,127.0,127.0,127.0,-115.0,-84.0,106.0
127.0,128.0,126.0,127.0,126.0,128.0,125.0,128.0,-1.0,109.0,-83.0,127.0,127.0,127.0,-115.0,-84.0,106.0
127.0,128.0,126.0,127.0,126.0,128.0,125.0,128.0,-1.0,109.0,-83.0,127.0,127.0,127.0,-115.0,-84.0,106.0
127.0,127.0,126.0,127.0,126.0,128.0,125.0,128.0,-1.0,109.0,-83.0,127.0,127.0,127.0,-115.0,-84.0,106.0
127.0,127.0,127.0,127.0,126.0,128.0,125.0,128.0,-1.0,109.0,-83.0,127.0,127.0,127.0,-115.0,-84.0,106.0
127.0,128.0,127.0,127.0,126.0,128.0,125.0,128.0,-1.0,109.0,-83.0,127.0,127.0,127.0,-115.0,-84.0,106.0
127.0,127.0,127.0,127.0,126.0,128.0,125.0,128.0,-1.0,109.0,-83.0,127.0,127.0,127.0,-115.0,-84.0,106.0
127.0,128.0,126.0,127.0,126.0,129.0,125.0,128.0,-1.0,109.0,-83.0,127.0,127.0,127.0,-115.0,-84.0,106.0
127.0,127.0,127.0,127.0,127.0,127.0,126.0,128.0,-1.0,109.0,-82.0,127.0,127.0,127.0,-115.0,-84.0,106.0
127.0,127.0,127.0,127.0,127.0,128.0,126.0,128.0,-1.0,109.0,-82.0,127.0,127.0,127.0,-115.0,-84.0,106.0
127.0,127.0,126.0,127.0,126.0,128.0,125.0,128.0,-1.0,109.0,-82.0,127.0,127.0,127.0,-115.0,-84.0,106.0
127.0,127.0,126.0,127.0,126.0,128.0,125.0,128.0,-1.0,109.0,-82.0,127.0,127.0,127.0,-115.0,-84.0,106.0
127.0,127.0,127.0,127.0,127.0,128.0,125.0,128.0,-1.0,109.0,-82.0,127.0,127.0,127.0,-115.0,-84.0,106.0
127.0,127.0,127.0,127.0,127.0,128.0,125.0,128.0,-1.0,109.0,-82.0,127.0,127.0,127.0,-115.0,-84.0,106.0
127.0,127.0,127.0,127.0,127.0,128.0,125.0,128.0,-1.0,109.0,-82.0,127.0,127.0,127.0,-115.0,-84.0,106.0
127.0,127.0,127.0,127.0,127.0,128.0,125.0,128.0,-1.0,109.0,-82.0,127.0,127.0,127.0,-115.0,-84.0,106.0
127.0,127.0,127.0,127.0,126.0,128.0,125.0,128.0,-1.0,109.0,-82.0,127.0,127.0,127.0,-115.0,-84.0,106.0
127.0,127.0,127.0,127.0,126.0,128.0,125.0,128.0,-1.0,109.0,-82.0,127.0,127.0,127.0,-115.0,-84.0,106.0
127.0,127.0,127.0,127.0,126.0,128.0,126.0,128.0,-1.0,109.0,-82.0,127.0,127.0,127.0,-115.0,-84.0,106.0
127.0,127.0,127.0,127.0,126.0,128.0,125.0,128.0,-1.0,109.0,-82.0,127.0,127.0,127.0,-115.0,-84.0,106.0
127.0,127.0,127.0,127.0,126.0,129.0,125.0,128.0,-1.0,109.0,-82.0,127.0,127.0,127.0,-115.0,-84.0,106.0
127.0,127.0,127.0,127.0,126.0,129.0,125.0,128.0,-1.0,109.0,-82.0,127.0,127.0,127.0,-115.0,-84.0,106.0
127.0,127.0,127.0,127.0,127.0,128.0,126.0,128.0,-1.0,109.0,-82.0,127.0,127.0,127.0,-115.0,-84.0,106.0
127.0,127.0,127.0,127.0,127.0,128.0,126.0,128.0,-1.0,109.0,-82.0,127.0,127.0,127.0,-115.0,-84.0,106.0
127.0,127.0,127.0,127.0,127.0,128.0,126.0,128.0,-1.0,109.0,-82.0,127.0,127.0,127.0,-115.0,-84.0,106.0
127.0,127.0,127.0,127.0,126.0,129.0,125.0,128.0,-1.0,109.0,-82.0,127.0,127.0,127.0,-115.0,-84.0,106.0
