emg1,emg2,emg3,emg4,emg5,emg6,emg7,emg8,acc_x,acc_y,acc_z,gyro_x,gyro_y,gyro_z,angle_pitch,angle_roll,angle_yaw
127.0,128.0,127.0,127.0,126.0,130.0,125.0,128.0,-1.0,110.0,-68.0,127.0,127.0,127.0,-120.0,-89.0,112.0
127.0,128.0,127.0,127.0,126.0,130.0,125.0,128.0,-1.0,110.0,-68.0,127.0,127.0,127.0,-120.0,-89.0,112.0
127.0,128.0,127.0,127.0,126.0,130.0,125.0,128.0,-1.0,110.0,-68.0,127.0,127.0,127.0,-120.0,-89.0,112.0
127.0,128.0,127.0,127.0,126.0,131.0,125.0,128.0,-1.0,110.0,-68.0,127.0,127.0,127.0,-120.0,-89.0,112.0
127.0,128.0,127.0,127.0,126.0,131.0,125.0,128.0,-1.0,110.0,-68.0,127.0,127.0,127.0,-120.0,-89.0,112.0
127.0,128.0,127.0,127.0,126.0,131.0,125.0,128.0,-1.0,110.0,-68.0,127.0,127.0,127.0,-120.0,-89.0,112.0
127.0,128.0,127.0,127.0,127.0,130.0,125.0,128.0,-1.0,110.0,-68.0,127.0,127.0,127.0,-120.0,-89.0,112.0
127.0,127.0,127.0,127.0,126.0,130.0,125.0,128.0,-1.0,110.0,-68.0,127.0,127.0,127.0,-120.0,-89.0,112.0
127.0,127.0,127.0,127.0,127.0,129.0,126.0,127.0,-1.0,110.0,-68.0,127.0,127.0,127.0,-120.0,-89.0,112.0
127.0,127.0,127.0,127.0,127.0,129.0,126.0,127.0,-1.0,110.0,-68.0,127.0,127.0,127.0,-120.0,-89.0,112.0
127.0,127.0,127.0,127.0,127.0,129.0,126.0,127.0,-1.0,110.0,-68.0,127.0,127.0,127.0,-120.0,-89.0,112.0
127.0,127.0,127.0,127.0,127.0,129.0,126.0,127.0,-1.0,110.0,-68.0,127.0,127.0,127.0,-120.0,-89.0,112.0
127.0,127.0,127.0,127.0,127.0,129.0,125.0,127.0,-1.0,110.0,-68.0,127.0,127.0,127.0,-120.0,-89.0,112.0
127.0,127.0,127.0,127.0,127.0,129.0,125.0,127.0,-1.0,110.0,-68.0,127.0,127.0,127.0,-120.0,-89.0,112.0
127.0,127.0,127.0,127.0,126.0,129.0,125.0,127.0,-1.0,110.0,-68.0,127.0,127.0,127.0,-120.0,-89.0,112.0
127.0,127.0,127.0,127.0,126.0,130.0,125.0,128.0,-1.0,110.0,-68.0,127.0,127.0,127.0,-120.0,-89.0,112.0
127.0,127.0,127.0,127.0,126.0,130.0,125.0,128.0,-1.0,110.0,-68.0,127.0,127.0,127.0,-120.0,-89.0,112.0
127.0,127.0,127.0,127.0,126.0,130.0,125.0,128.0,-1.0,110.0,-68.0,127.0,127.0,127.0,-120.0,-89.0,112.0
127.0,127.0,127.0,127.0,126.0,130.0,125.0,128.0,-1.0,110.0,-68.0,127.0,127.0,127.0,-120.0,-89.0,112.0
127.0,127.0,127.0,127.0,126.0,130.0,124.0,128.0,-1.0,110.0,-68.0,127.0,127.0,127.0,-120.0,-89.0,112.0
127.0,127.0,127.0,127.0,126.0,130.0,124.0,128.0,-1.0,110.0,-68.0,127.0,127.0,127.0,-120.0,-89.0,112.0
127.0,127.0,127.0,127.0,126.0,130.0,124.0,128.0,-1.0,110.0,-68.0,127.0,127.0,127.0,-120.0,-89.0,112.0
127.0,127.0,127.0,127.0,126.0,130.0,124.0,128.0,-1.0,110.0,-68.0,127.0,127.0,127.0,-120.0,-89.0,112.0
127.0,127.0,127.0,127.0,126.0,130.0,124.0,128.0,-1.0,110.0,-68.0,127.0,127.0,127.0,-120.0,-89.0,112.0
127.0,127.0,127.0,127.0,126.0,129.0,124.0,128.0,-1.0,110.0,-68.0,127.0,127.0,127.0,-120.0,-89.0,112.0
127.0,127.0,127.0,127.0,126.0,129.0,124.0,128.0,-1.0,110.0,-68.0,127.0,127.0,127.0,-120.0,-89.0,112.0
127.0,127.0,127.0,127.0,126.0,129.0,124.0,127.0,-1.0,110.0,-68.0,127.0,127.0,127.0,-120.0,-89.0,112.0
127.0,127.0,127.0,126.0,126.0,131.0,124.0,127.0,-1.0,110.0,-68.0,127.0,127.0,127.0,-120.0,-89.0,112.0
127.0,127.0,127.0,126.0,127.0,131.0,124.0,128.0,-1.0,110.0,-68.0,127.0,127.0,127.0,-120.0,-89.0,112.0
127.0,127.0,127.0,126.0,127.0,131.0,124.0,128.0,-1.0,110.0,-68.0,127.0,127.0,127.0,-120.0,-89.0,112.0
127.0,128.0,127.0,127.0,127.0,131.0,124.0,128.0,-1.0,110.0,-68.0,127.0,127.0,127.0,-120.0,-89.0,112.0
127.0,127.0,127.0,127.0,127.0,131.0,124.0,128.0,-1.0,110.0,-68.0,127.0,127.0,127.0,-120.0,-89.0,112.0
127.0,127.0,127.0,127.0,127.0,131.0,124.0,128.0,-1.0,110.0,-68.0,127.0,127.0,127.0,-120.0,-89.0,112.0
127.0,127.0,127.0,127.0,127.0,131.0,124.0,128.0,-1.0,110.0,-68.0,127.0,127.0,127.0,-120.0,-89.0,112.0
127.0,127.0,127.0,127.0,127.0,131.0,124.0,128.0,-1.0,110.0,-68.0,127.0,127.0,127.0,-120.0,-89.0,112.0
127.0,127.0,127.0,127.0,127.0,131.0,124.0,128.0,-1.0,110.0,-68.0,127.0,127.0,127.0,-120.0,-89.0,112.0
127.0,127.0,127.0,126.0,126.0,130.0,125.0,127.0,-1.0,110.0,-68.0,127.0,127.0,127.0,-120.0,-89.0,112.0
127.0,127.0,127.0,126.0,127.0,130.0,125.0,127.0,-1.0,110.0,-68.0,127.0,127.0,127.0,-120.0,-89.0,112.0
127.0,127.0,127.0,126.0,127.0,130.0,125.0,127.0,-1.0,110.0,-68.0,127.0,127.0,127.0,-120.0,-89.0,112.0
127.0,127.0,127.0,126.0,127.0,130.0,125.0,128.0,-1.0,110.0,-68.0,127.0,127.0,127.0,-120.0,-89.0,112.0
127.0,127.0,127.0,126.0,127.0,130.0,125.0,128.0,-1.0,110.0,-68.0,127.0,127.0,127.0,-120.0,-89.0,112.0
127.0,127.0,127.0,126.0,127.0,130.0,124.0,128.0,-1.0,110.0,-68.0,127.0,127.0,127.0,-120.0,-89.0,112.0
127.0,127.0,127.0,126.0,127.0,131.0,124.0,128.0,-1.0,110.0,-68.0,127.0,127.0,127.0,-120.0,-89.0,112.0
127.0,127.0,127.0,127.0,127.0,131.0,124.0,128.0,-1.0,110.0,-68.0,127.0,127.0,127.0,-120.0,-89.0,112.0
127.0,127.0,127.0,127.0,127.0,131.0,124.0,128.0,-1.0,110.0,-68.0,127.0,127.0,127.0,-120.0,-89.0,112.0
127.0,127.0,127.0,126.0,127.0,130.0,125.0,128.0,-1.0,110.0,-68.0,127.0,127.0,127.0,-120.0,-89.0,112.0
127.0,127.0,127.0,126.0,127.0,129.0,125.0,127.0,-1.0,110.0,-68.0,127.0,127.0,127.0,-120.0,-89.0,112.0
127.0,127.0,127.0,127.0,127.0,130.0,125.0,127.0,-1.0,110.0,-67.0,127.0,127.0,127.0,-120.0,-89.0,112.0
127.0,127.0,127.0,127.0,127.0,130.0,125.0,127.0,-1.0,110.0,-67.0,127.0,127.0,127.0,-120.0,-89.0,112.0
127.0,127.0,127.0,126.0,127.0,130.0,125.0,127.0,-1.0,110.0,-67.0,127.0,127.0,127.0,-120.0,-89.0,112.0
127.0,127.0,127.0,127.0,127.0,130.0,125.0,127.0,-1.0,110.0,-67.0,127.0,127.0,127.0,-120.0,-89.0,112.0
127.0,127.0,127.0,127.0,127.0,130.0,124.0,127.0,-1.0,110.0,-67.0,127.0,127.0,127.0,-120.0,-89.0,112.0
127.0,127.0,127.0,127.0,127.0,131.0,124.0,127.0,-1.0,110.0,-67.0,127.0,127.0,127.0,-120.0,-89.0,112.0
127.0,127.0,127.0,127.0,127.0,131.0,124.0,128.0,-1.0,110.0,-67.0,127.0,127.0,127.0,-120.0,-89.0,112.0
127.0,127.0,127.0,126.0,127.0,129.0,125.0,127.0,-1.0,110.0,-67.0,127.0,127.0,127.0,-120.0,-89.0,112.0
127.0,127.0,127.0,127.0,126.0,130.0,125.0,127.0,-1.0,110.0,-67.0,127.0,127.0,127.0,-120.0,-89.0,112.0
127.0,127.0,127.0,127.0,126.0,130.0,125.0,127.0,-1.0,110.0,-67.0,127.0,127.0,127.0,-120.0,-89.0,112.0
127.0,127.0,127.0,126.0,127.0,131.0,125.0,128.0,-1.0,109.0,-67.0,127.0,127.0,127.0,-120.0,-89.0,112.0
127.0,127.0,127.0,126.0,127.0,130.0,125.0,128.0,-1.0,109.0,-67.0,127.0,127.0,127.0,-120.0,-89.0,112.0
127.0,127.0,127.0,126.0,127.0,130.0,125.0,128.0,-1.0,109.0,-67.0,127.0,127.0,127.0,-120.0,-89.0,112.0
127.0,127.0,127.0,126.0,127.0,131.0,125.0,128.0,-1.0,109.0,-67.0,127.0,127.0,127.0,-120.0,-89.0,112.0
127.0,127.0,127.0,126.0,127.0,131.0,125.0,128.0,-1.0,109.0,-67.0,127.0,127.0,127.0,-120.0,-89.0,112.0
127.0,127.0,127.0,126.0,127.0,131.0,125.0,128.0,-1.0,109.0,-67.0,127.0,127.0,127.0,-120.0,-89.0,112.0
127.0,127.0,127.0,126.0,127.0,130.0,126.0,127.0,-1.0,109.0,-67.0,127.0,127.0,127.0,-120.0,-89.0,112.0
127.0,127.0,127.0,126.0,127.0,130.0,125.0,128.0,-1.0,109.0,-67.0,127.0,127.0,127.0,-120.0,-89.0,112.0
127.0,127.0,127.0,126.0,127.0,131.0,125.0,128.0,-1.0,109.0,-67.0,127.0,127.0,127.0,-120.0,-89.0,112.0
127.0,127.0,127.0,126.0,127.0,131.0,125.0,128.0,-1.0,109.0,-67.0,127.0,127.0,127.0,-120.0,-89.0,112.0
127.0,127.0,127.0,126.0,127.0,130.0,126.0,127.0,-1.0,109.0,-66.0,127.0,127.0,127.0,-120.0,-89.0,112.0
127.0,127.0,127.0,126.0,127.0,130.0,126.0,127.0,-1.0,109.0,-66.0,127.0,127.0,127.0,-120.0,-89.0,112.0
127.0,127.0,127.0,126.0,127.0,130.0,125.0,127.0,-1.0,109.0,-66.0,127.0,127.0,127.0,-120.0,-89.0,112.0
127.0,127.0,127.0,126.0,126.0,131.0,125.0,128.0,-1.0,109.0,-66.0,127.0,127.0,127.0,-120.0,-89.0,112.0
127.0,127.0,127.0,126.0,127.0,131.0,125.0,128.0,-1.0,109.0,-66.0,127.0,127.0,127.0,-120.0,-89.0,112.0
127.0,127.0,127.0,126.0,127.0,130.0,126.0,127.0,-1.0,109.0,-66.0,127.0,127.0,127.0,-120.0,-89.0,112.0
127.0,127.0,127.0,126.0,127.0,130.0,126.0,127.0,-1.0,109.0,-66.0,127.0,127.0,127.0,-120.0,-89.0,112.0
127.0,127.0,127.0,126.0,127.0,130.0,126.0,128.0,-1.0,109.0,-66.0,127.0,127.0,127.0,-120.0,-89.0,112.0
127.0,127.0,127.0,126.0,127.0,130.0,126.0,128.0,-1.0,109.0,-66.0,127.0,127.0,127.0,-120.0,-89.0,112.0
127.0,127.0,127.0,126.0,127.0,130.0,126.0,128.0,-1.0,109.0,-66.0,127.0,127.0,127.0,-120.0,-89.0,112.0
127.0,127.0,127.0,126.0,127.0,129.0,126.0,127.0,-1.0,109.0,-66.0,127.0,127.0,127.0,-120.0,-89.0,112.0
127.0,127.0,127.0,126.0,127.0,129.0,126.0,127.0,-1.0,109.0,-66.0,127.0,127.0,127.0,-120.0,-89.0,112.0
127.0,127.0,127.0,126.0,126.0,130.0,125.0,128.0,-1.0,109.0,-66.0,127.0,127.0,127.0,-120.0,-89.0,112.0
127.0,127.0,127.0,126.0,127.0,130.0,125.0,128.0,-1.0,109.0,-66.0,127.0,127.0,127.0,-120.0,-89.0,112.0
127.0,127.0,127.0,126.0,127.0,129.0,127.0,127.0,-1.0,109.0,-66.0,127.0,127.0,127.0,-120.0,-89.0,112.0
127.0,127.0,127.0,126.0,126.0,129.0,126.0,127.0,-1.0,109.0,-66.0,127.0,127.0,127.0,-120.0,-89.0,112.0
127.0,127.0,127.0,126.0,126.0,130.0,126.0,128.0,-1.0,109.0,-66.0,127.0,127.0,127.0,-120.0,-89.0,112.0
127.0,127.0,127.0,126.0,126.0,130.0,126.0,128.0,-1.0,109.0,-66.0,127.0,127.0,127.0,-120.0,-89.0,112.0
127.0,127.0,127.0,126.0,126.0,129.0,126.0,127.0,-1.0,109.0,-66.0,127.0,127.0,127.0,-120.0,-89.0,112.0
127.0,127.0,127.0,126.0,127.0,129.0,126.0,127.0,-1.0,109.0,-66.0,127.0,127.0,127.0,-120.0,-89.0,112.0
127.0,127.0,127.0,126.0,127.0,129.0,126.0,127.0,-1.0,110.0,-66.0,127.0,127.0,127.0,-120.0,-89.0,112.0
127.0,127.0,127.0,126.0,127.0,129.0,126.0,127.0,-1.0,110.0,-66.0,127.0,127.0,127.0,-120.0,-89.0,112.0
127.0,127.0,127.0,126.0,127.0,129.0,126.0,127.0,-1.0,110.0,-66.0,127.0,127.0,127.0,-120.0,-89.0,112.0
127.0,127.0,127.0,126.0,127.0,129.0,126.0,127.0,-1.0,110.0,-66.0,127.0,127.0,127.0,-120.0,-89.0,112.0
127.0,127.0,127.0,126.0,127.0,129.0,126.0,127.0,-1.0,110.0,-66.0,127.0,127.0,127.0,-120.0,-89.0,112.0
127.0,127.0,127.0,126.0,127.0,129.0,126.0,127.0,-1.0,110.0,-66.0,127.0,127.0,127.0,-120.0,-89.0,112.0
127.0,127.0,127.0,126.0,127.0,129.0,126.0,127.0,-1.0,110.0,-66.0,127.0,127.0,127.0,-120.0,-89.0,112.0
127.0,127.0,127.0,126.0,127.0,129.0,126.0,127.0,-1.0,110.0,-66.0,127.0,127.0,127.0,-120.0,-89.0,112.0
127.0,127.0,127.0,126.0,127.0,129.0,126.0,127.0,-1.0,110.0,-66.0,127.0,127.0,127.0,-120.0,-89.0,112.0
127.0,127.0,127.0,126.0,127.0,129.0,126.0,127.0,-1.0,110.0,-66.0,127.0,127.0,127.0,-120.0,-89.0,112.0
127.0,127.0,127.0,126.0,126.0,130.0,126.0,127.0,-1.0,110.0,-66.0,127.0,127.0,127.0,-120.0,-89.0,112.0
128.0,127.0,127.0,126.0,126.0,131.0,126.0,128.0,-1.0,110.0,-66.0,127.0,127.0,127.0,-120.0,-89.0,112.0
127.0,127.0,127.0,126.0,126.0,129.0,127.0,127.0,-1.0,110.0,-66.0,127.0,127.0,127.0,-120.0,-89.0,112.0
127.0,127.0,127.0,126.0,127.0,129.0,127.0,127.0,-1.0,110.0,-66.0,127.0,127.0,127.0,-120.0,-89.0,112.0
127.0,127.0,127.0,126.0,127.0,129.0,127.0,127.0,-1.0,110.0,-66.0,127.0,127.0,127.0,-120.0,-89.0,112.0
127.0,127.0,127.0,126.0,127.0,129.0,127.0,127.0,-1.0,110.0,-66.0,127.0,127.0,127.0,-120.0,-89.0,112.0
127.0,127.0,127.0,126.0,127.0,129.0,127.0,127.0,-1.0,110.0,-66.0,127.0,127.0,127.0,-120.0,-89.0,112.0
127.0,127.0,127.0,126.0,126.0,130.0,127.0,127.0,-1.0,110.0,-66.0,127.0,127.0,127.0,-120.0,-89.0,112.0
127.0,127.0,127.0,126.0,126.0,130.0,126.0,127.0,-1.0,110.0,-66.0,127.0,127.0,127.0,-120.0,-89.0,112.0
127.0,127.0,127.0,126.0,127.0,130.0,126.0,127.0,-1.0,110.0,-66.0,127.0,127.0,127.0,-120.0,-89.0,112.0
127.0,127.0,127.0,126.0,126.0,131.0,126.0,127.0,-1.0,110.0,-66.0,127.0,127.0,127.0,-120.0,-89.0,112.0
127.0,127.0,127.0,126.0,127.0,129.0,127.0,127.0,-1.0,110.0,-66.0,127.0,127.0,127.0,-120.0,-89.0,112.0
127.0,127.0,127.0,126.0,127.0,129.0,127.0,127.0,-1.0,110.0,-66.0,127.0,127.0,127.0,-120.0,-89.0,112.0
127.0,127.0,127.0,126.0,126.0,130.0,127.0,127.0,-1.0,110.0,-66.0,127.0,127.0,127.0,-120.0,-89.0,112.0
127.0,127.0,127.0,126.0,126.0,130.0,127.0,127.0,-1.0,110.0,-66.0,127.0,127.0,127.0,-120.0,-89.0,112.0
127.0,127.0,127.0,126.0,126.0,130.0,127.0,127.0,-1.0,110.0,-66.0,127.0,127.0,127.0,-120.0,-89.0,112.0
127.0,127.0,127.0,126.0,127.0,130.0,127.0,127.0,-1.0,110.0,-66.0,127.0,127.0,127.0,-120.0,-89.0,112.0
127.0,127.0,127.0,126.0,126.0,130.0,127.0,127.0,-1.0,110.0,-66.0,127.0,127.0,127.0,-120.0,-89.0,112.0
127.0,127.0,127.0,126.0,127.0,130.0,127.0,127.0,-1.0,110.0,-66.0,127.0,127.0,127.0,-120.0,-89.0,112.0
127.0,127.0,127.0,126.0,126.0,130.0,127.0,127.0,-1.0,110.0,-66.0,127.0,127.0,127.0,-120.0,-89.0,112.0
127.0,127.0,127.0,127.0,126.0,130.0,128.0,127.0,-1.0,110.0,-66.0,127.0,127.0,127.0,-120.0,-89.0,112.0
127.0,127.0,127.0,127.0,126.0,130.0,128.0,127.0,-1.0,110.0,-66.0,127.0,127.0,127.0,-120.0,-89.0,112.0
127.0,127.0,127.0,127.0,126.0,130.0,127.0,127.0,-1.0,110.0,-66.0,127.0,127.0,127.0,-120.0,-89.0,112.0
127.0,127.0,127.0,127.0,126.0,131.0,127.0,128.0,-1.0,110.0,-66.0,127.0,127.0,127.0,-120.0,-89.0,112.0
127.0,127.0,127.0,127.0,126.0,131.0,127.0,128.0,-1.0,110.0,-66.0,127.0,127.0,127.0,-120.0,-89.0,112.0
127.0,127.0,127.0,127.0,126.0,131.0,127.0,128.0,-1.0,110.0,-66.0,127.0,127.0,127.0,-120.0,-89.0,112.0
127.0,127.0,127.0,127.0,126.0,130.0,127.0,128.0,-1.0,110.0,-66.0,127.0,127.0,127.0,-120.0,-89.0,112.0
127.0,127.0,127.0,127.0,126.0,130.0,127.0,128.0,-1.0,110.0,-66.0,127.0,127.0,127.0,-120.0,-89.0,112.0
127.0,127.0,127.0,127.0,126.0,130.0,127.0,128.0,-1.0,110.0,-66.0,127.0,127.0,127.0,-120.0,-89.0,112.0
127.0,127.0,127.0,127.0,126.0,130.0,127.0,128.0,-1.0,110.0,-66.0,127.0,127.0,127.0,-120.0,-89.0,112.0
128.0,127.0,127.0,127.0,126.0,129.0,127.0,127.0,-1.0,110.0,-66.0,127.0,127.0,127.0,-120.0,-89.0,112.0
128.0,127.0,127.0,126.0,126.0,129.0,127.0,127.0,-1.0,110.0,-66.0,127.0,127.0,127.0,-120.0,-89.0,112.0
128.0,127.0,127.0,127.0,126.0,130.0,126.0,127.0,-1.0,110.0,-66.0,127.0,127.0,127.0,-120.0,-89.0,112.0
128.0,127.0,127.0,127.0,126.0,130.0,126.0,127.0,-1.0,110.0,-66.0,127.0,127.0,127.0,-120.0,-89.0,112.0
128.0,127.0,127.0,127.0,126.0,130.0,126.0,127.0,-1.0,110.0,-66.0,127.0,127.0,127.0,-120.0,-89.0,112.0
128.0,127.0,127.0,127.0,126.0,130.0,126.0,127.0,-1.0,110.0,-66.0,127.0,127.0,127.0,-120.0,-89.0,112.0
128.0,127.0,127.0,127.0,126.0,130.0,126.0,127.0,-1.0,110.0,-66.0,127.0,127.0,127.0,-120.0,-89.0,112.0
128.0,127.0,127.0,127.0,126.0,130.0,126.0,127.0,-1.0,110.0,-66.0,127.0,127.0,127.0,-120.0,-89.0,112.0
128.0,127.0,127.0,126.0,126.0,130.0,126.0,127.0,-1.0,110.0,-66.0,127.0,127.0,127.0,-120.0,-89.0,112.0
128.0,127.0,127.0,126.0,126.0,129.0,127.0,127.0,-1.0,110.0,-66.0,127.0,127.0,127.0,-120.0,-89.0,112.0
128.0,127.0,127.0,126.0,126.0,130.0,127.0,128.0,-1.0,110.0,-67.0,127.0,127.0,127.0,-120.0,-89.0,112.0
128.0,128.0,127.0,126.0,126.0,131.0,126.0,128.0,-1.0,110.0,-67.0,127.0,127.0,127.0,-120.0,-89.0,112.0
128.0,128.0,127.0,127.0,126.0,131.0,126.0,128.0,-1.0,110.0,-67.0,127.0,127.0,127.0,-120.0,-89.0,112.0
128.0,128.0,127.0,127.0,126.0,131.0,126.0,128.0,-1.0,110.0,-67.0,127.0,127.0,127.0,-120.0,-89.0,112.0
128.0,127.0,127.0,127.0,127.0,130.0,126.0,128.0,-1.0,110.0,-67.0,127.0,127.0,127.0,-120.0,-89.0,112.0
128.0,128.0,127.0,127.0,127.0,131.0,126.0,128.0,-1.0,110.0,-67.0,127.0,127.0,127.0,-120.0,-89.0,112.0
128.0,128.0,127.0,127.0,127.0,130.0,126.0,128.0,-1.0,110.0,-67.0,127.0,127.0,127.0,-120.0,-89.0,112.0
128.0,127.0,127.0,127.0,127.0,130.0,126.0,128.0,-1.0,110.0,-67.0,127.0,127.0,127.0,-120.0,-89.0,112.0
128.0,127.0,127.0,126.0,126.0,129.0,127.0,128.0,-1.0,110.0,-67.0,127.0,127.0,127.0,-120.0,-89.0,112.0
128.0,127.0,127.0,126.0,126.0,130.0,127.0,128.0,-1.0,110.0,-67.0,127.0,127.0,127.0,-120.0,-89.0,112.0
128.0,127.0,127.0,126.0,126.0,130.0,125.0,128.0,-1.0,110.0,-67.0,127.0,127.0,127.0,-120.0,-89.0,112.0
128.0,127.0,127.0,126.0,126.0,130.0,125.0,128.0,-1.0,110.0,-67.0,127.0,127.0,127.0,-120.0,-89.0,112.0
128.0,127.0,127.0,127.0,126.0,130.0,125.0,128.0,-1.0,110.0,-67.0,127.0,127.0,127.0,-120.0,-89.0,112.0
128.0,127.0,127.0,127.0,126.0,130.0,125.0,128.0,-1.0,110.0,-67.0,127.0,127.0,127.0,-120.0,-89.0,112.0
127.0,127.0,127.0,127.0,126.0,130.0,125.0,128.0,-1.0,110.0,-67.0,127.0,127.0,127.0,-120.0,-89.0,112.0
128.0,127.0,127.0,127.0,126.0,130.0,125.0,128.0,-1.0,110.0,-67.0,127.0,127.0,127.0,-120.0,-89.0,112.0
127.0,127.0,127.0,127.0,126.0,130.0,125.0,128.0,-1.0,110.0,-67.0,127.0,127.0,127.0,-120.0,-89.0,112.0
127.0,127.0,127.0,126.0,126.0,130.0,126.0,128.0,-1.0,110.0,-67.0,127.0,127.0,127.0,-120.0,-89.0,112.0
127.0,127.0,127.0,126.0,126.0,130.0,126.0,128.0,-1.0,110.0,-67.0,127.0,127.0,127.0,-120.0,-89.0,112.0
127.0,127.0,127.0,126.0,126.0,130.0,126.0,128.0,-1.0,110.0,-67.0,127.0,127.0,127.0,-120.0,-89.0,112.0
128.0,127.0,127.0,127.0,126.0,130.0,126.0,128.0,-1.0,110.0,-67.0,127.0,127.0,127.0,-120.0,-89.0,112.0
128.0,127.0,127.0,127.0,126.0,130.0,126.0,128.0,-1.0,110.0,-67.0,127.0,127.0,127.0,-120.0,-89.0,112.0
128.0,127.0,127.0,127.0,126.0,130.0,126.0,128.0,-1.0,110.0,-67.0,127.0,127.0,127.0,-120.0,-89.0,112.0
128.0,127.0,127.0,127.0,126.0,130.0,126.0,128.0,-1.0,110.0,-67.0,127.0,127.0,127.0,-120.0,-89.0,112.0
128.0,127.0,127.0,127.0,126.0,130.0,126.0,128.0,-1.0,110.0,-67.0,127.0,127.0,127.0,-120.0,-89.0,112.0
128.0,127.0,127.0,127.0,126.0,130.0,126.0,128.0,-1.0,110.0,-67.0,127.0,127.0,127.0,-120.0,-89.0,112.0
128.0,127.0,127.0,126.0,126.0,129.0,126.0,128.0,-1.0,110.0,-67.0,127.0,127.0,127.0,-120.0,-89.0,112.0
128.0,127.0,127.0,126.0,126.0,129.0,126.0,128.0,-1.0,110.0,-67.0,127.0,127.0,127.0,-120.0,-89.0,112.0
128.0,127.0,127.0,126.0,126.0,129.0,126.0,128.0,-1.0,110.0,-67.0,127.0,127.0,127.0,-120.0,-89.0,112.0
128.0,127.0,127.0,127.0,126.0,130.0,126.0,128.0,-1.0,110.0,-67.0,127.0,127.0,127.0,-120.0,-89.0,112.0
128.0,127.0,127.0,127.0,127.0,129.0,126.0,127.0,-1.0,110.0,-68.0,127.0,127.0,127.0,-120.0,-89.0,112.0
128.0,127.0,127.0,127.0,126.0,130.0,126.0,127.0,-1.0,110.0,-68.0,127.0,127.0,127.0,-120.0,-89.0,112.0
128.0,127.0,127.0,127.0,126.0,130.0,125.0,128.0,-1.0,110.0,-68.0,127.0,127.0,127.0,-120.0,-89.0,112.0
128.0,127.0,127.0,127.0,126.0,130.0,125.0,128.0,-1.0,110.0,-68.0,127.0,127.0,127.0,-120.0,-89.0,112.0
128.0,127.0,127.0,127.0,127.0,130.0,125.0,127.0,-1.0,110.0,-68.0,127.0,127.0,127.0,-120.0,-89.0,112.0
128.0,127.0,127.0,126.0,127.0,129.0,126.0,127.0,-1.0,110.0,-68.0,127.0,127.0,127.0,-120.0,-89.0,112.0
128.0,127.0,127.0,126.0,127.0,129.0,126.0,127.0,-1.0,110.0,-68.0,127.0,127.0,127.0,-120.0,-89.0,112.0
128.0,127.0,127.0,127.0,127.0,129.0,126.0,127.0,-1.0,110.0,-68.0,127.0,127.0,127.0,-120.0,-89.0,112.0
128.0,127.0,127.0,126.0,127.0,129.0,126.0,127.0,-1.0,110.0,-68.0,127.0,127.0,127.0,-120.0,-89.0,112.0
127.0,127.0,127.0,127.0,127.0,129.0,126.0,127.0,-1.0,110.0,-68.0,127.0,127.0,127.0,-120.0,-89.0,112.0
127.0,127.0,127.0,127.0,127.0,131.0,126.0,128.0,-1.0,110.0,-67.0,127.0,127.0,127.0,-120.0,-89.0,112.0
127.0,127.0,127.0,127.0,127.0,131.0,126.0,128.0,-1.0,110.0,-67.0,127.0,127.0,127.0,-120.0,-89.0,112.0
127.0,127.0,127.0,127.0,127.0,131.0,126.0,128.0,-1.0,110.0,-67.0,127.0,127.0,127.0,-120.0,-89.0,112.0
127.0,127.0,127.0,127.0,127.0,130.0,126.0,128.0,-1.0,110.0,-67.0,127.0,127.0,127.0,-120.0,-89.0,112.0
127.0,127.0,127.0,127.0,126.0,131.0,126.0,128.0,-1.0,110.0,-67.0,127.0,127.0,127.0,-120.0,-89.0,112.0
127.0,127.0,127.0,127.0,126.0,131.0,126.0,128.0,-1.0,110.0,-67.0,127.0,127.0,127.0,-120.0,-89.0,112.0
127.0,127.0,127.0,127.0,126.0,131.0,126.0,128.0,-1.0,110.0,-67.0,127.0,127.0,127.0,-120.0,-89.0,112.0
127.0,127.0,127.0,127.0,126.0,131.0,126.0,128.0,-1.0,110.0,-67.0,127.0,127.0,127.0,-120.0,-89.0,112.0
127.0,127.0,127.0,127.0,126.0,131.0,126.0,128.0,-1.0,110.0,-67.0,127.0,127.0,127.0,-120.0,-89.0,112.0
127.0,127.0,127.0,127.0,126.0,131.0,126.0,128.0,-1.0,110.0,-67.0,127.0,127.0,127.0,-120.0,-89.0,112.0
127.0,128.0,127.0,127.0,127.0,130.0,125.0,127.0,-1.0,110.0,-67.0,127.0,127.0,127.0,-120.0,-89.0,112.0
127.0,128.0,127.0,127.0,127.0,130.0,125.0,127.0,-1.0,110.0,-67.0,127.0,127.0,127.0,-120.0,-89.0,112.0
127.0,127.0,127.0,127.0,127.0,130.0,125.0,127.0,-1.0,110.0,-67.0,127.0,127.0,127.0,-120.0,-89.0,112.0
127.0,127.0,127.0,127.0,126.0,130.0,126.0,128.0,-1.0,110.0,-67.0,127.0,127.0,127.0,-120.0,-89.0,112.0
127.0,128.0,127.0,127.0,126.0,130.0,125.0,128.0,-1.0,110.0,-67.0,127.0,127.0,127.0,-120.0,-89.0,112.0
127.0,128.0,127.0,127.0,126.0,130.0,125.0,128.0,-1.0,110.0,-67.0,127.0,127.0,127.0,-120.0,-89.0,112.0
127.0,128.0,127.0,127.0,126.0,130.0,125.0,128.0,-1.0,110.0,-67.0,127.0,127.0,127.0,-120.0,-89.0,112.0
127.0,128.0,127.0,127.0,127.0,130.0,125.0,127.0,-1.0,110.0,-67.0,127.0,127.0,127.0,-120.0,-89.0,112.0
127.0,128.0,127.0,127.0,126.0,130.0,125.0,128.0,-1.0,110.0,-67.0,127.0,127.0,127.0,-120.0,-89.0,112.0
127.0,128.0,127.0,127.0,127.0,130.0,125.0,127.0,-1.0,110.0,-67.0,127.0,127.0,127.0,-120.0,-89.0,112.0
127.0,127.0,127.0,126.0,127.0,130.0,126.0,127.0,-1.0,110.0,-67.0,127.0,127.0,127.0,-120.0,-89.0,112.0
127.0,127.0,127.0,126.0,127.0,130.0,126.0,127.0,-1.0,110.0,-67.0,127.0,127.0,127.0,-120.0,-89.0,112.0
127.0,127.0,127.0,126.0,127.0,130.0,126.0,127.0,-1.0,110.0,-67.0,127.0,127.0,127.0,-120.0,-89.0,112.0
127.0,127.0,127.0,126.0,127.0,131.0,126.0,127.0,-1.0,110.0,-67.0,127.0,127.0,127.0,-120.0,-89.0,112.0
127.0,127.0,127.0,127.0,127.0,130.0,126.0,127.0,-1.0,110.0,-67.0,127.0,127.0,127.0,-120.0,-89.0,112.0
127.0,127.0,127.0,126.0,127.0,130.0,126.0,127.0,-1.0,110.0,-67.0,127.0,127.0,127.0,-120.0,-89.0,112.0
127.0,127.0,127.0,127.0,127.0,130.0,126.0,127.0,-1.0,110.0,-67.0,127.0,127.0,127.0,-120.0,-89.0,112.0
127.0,127.0,127.0,127.0,127.0,130.0,126.0,127.0,-1.0,110.0,-67.0,127.0,127.0,127.0,-120.0,-89.0,112.0
127.0,127.0,127.0,126.0,127.0,130.0,126.0,127.0,-1.0,110.0,-67.0,127.0,127.0,127.0,-120.0,-89.0,112.0
127.0,127.0,127.0,126.0,127.0,130.0,126.0,127.0,-1.0,110.0,-67.0,127.0,127.0,127.0,-120.0,-89.0,112.0
127.0,127.0,127.0,126.0,127.0,130.0,126.0,127.0,-1.0,110.0,-67.0,127.0,127.0,127.0,-120.0,-89.0,112.0
127.0,127.0,127.0,126.0,127.0,130.0,126.0,127.0,-1.0,110.0,-67.0,127.0,127.0,127.0,-120.0,-89.0,112.0
127.0,127.0,127.0,126.0,126.0,130.0,126.0,127.0,-1.0,110.0,-67.0,127.0,127.0,127.0,-120.0,-89.0,112.0
127.0,127.0,127.0,126.0,126.0,130.0,126.0,127.0,-1.0,110.0,-67.0,127.0,127.0,127.0,-120.0,-89.0,112.0
127.0,127.0,127.0,126.0,126.0,130.0,126.0,127.0,-1.0,110.0,-67.0,127.0,127.0,127.0,-120.0,-89.0,112.0
127.0,127.0,127.0,126.0,127.0,130.0,126.0,127.0,-1.0,110.0,-67.0,127.0,127.0,127.0,-120.0,-89.0,112.0
127.0,127.0,127.0,126.0,127.0,130.0,126.0,127.0,-1.0,110.0,-67.0,127.0,127.0,127.0,-120.0,-89.0,112.0
127.0,127.0,127.0,126.0,127.0,130.0,126.0,127.0,-1.0,110.0,-67.0,127.0,127.0,127.0,-120.0,-89.0,112.0
127.0,127.0,127.0,126.0,127.0,130.0,126.0,127.0,-1.0,110.0,-67.0,127.0,127.0,127.0,-120.0,-89.0,112.0
127.0,127.0,127.0,126.0,127.0,130.0,126.0,127.0,-1.0,110.0,-67.0,127.0,127.0,127.0,-120.0,-89.0,112.0
127.0,128.0,127.0,126.0,127.0,129.0,126.0,127.0,-1.0,110.0,-66.0,127.0,127.0,127.0,-120.0,-89.0,112.0
127.0,128.0,126.0,126.0,126.0,130.0,126.0,127.0,-1.0,110.0,-66.0,127.0,127.0,127.0,-120.0,-89.0,112.0
127.0,128.0,126.0,126.0,126.0,130.0,126.0,127.0,-1.0,110.0,-66.0,127.0,127.0,127.0,-120.0,-89.0,112.0
127.0,128.0,127.0,126.0,126.0,130.0,126.0,127.0,-1.0,110.0,-66.0,127.0,127.0,127.0,-120.0,-89.0,112.0
127.0,128.0,127.0,126.0,126.0,130.0,126.0,127.0,-1.0,110.0,-66.0,127.0,127.0,127.0,-120.0,-89.0,112.0
127.0,128.0,127.0,126.0,127.0,130.0,126.0,127.0,-1.0,110.0,-66.0,127.0,127.0,127.0,-120.0,-89.0,112.0
127.0,128.0,127.0,126.0,126.0,130.0,126.0,127.0,-1.0,110.0,-66.0,127.0,127.0,127.0,-120.0,-89.0,112.0
127.0,128.0,127.0,126.0,127.0,130.0,126.0,127.0,-1.0,110.0,-66.0,127.0,127.0,127.0,-120.0,-89.0,112.0
127.0,128.0,127.0,126.0,127.0,130.0,126.0,127.0,-1.0,110.0,-66.0,127.0,127.0,127.0,-120.0,-89.0,112.0
127.0,128.0,127.0,126.0,127.0,130.0,126.0,127.0,-1.0,110.0,-66.0,127.0,127.0,127.0,-120.0,-89.0,112.0
127.0,128.0,127.0,126.0,126.0,130.0,126.0,127.0,-1.0,110.0,-66.0,127.0,127.0,127.0,-120.0,-89.0,112.0
127.0,128.0,127.0,126.0,126.0,130.0,126.0,127.0,-1.0,110.0,-66.0,127.0,127.0,127.0,-120.0,-89.0,112.0
127.0,128.0,127.0,126.0,126.0,130.0,126.0,127.0,-1.0,110.0,-66.0,127.0,127.0,127.0,-120.0,-89.0,112.0
127.0,128.0,127.0,126.0,126.0,130.0,126.0,127.0,-1.0,110.0,-66.0,127.0,127.0,127.0,-120.0,-89.0,112.0
127.0,127.0,127.0,126.0,126.0,130.0,126.0,127.0,-1.0,110.0,-66.0,127.0,127.0,127.0,-120.0,-89.0,112.0
127.0,127.0,127.0,126.0,126.0,130.0,126.0,127.0,-1.0,110.0,-66.0,127.0,127.0,127.0,-120.0,-89.0,112.0
127.0,127.0,127.0,126.0,126.0,130.0,126.0,127.0,-1.0,110.0,-66.0,127.0,127.0,127.0,-120.0,-89.0,112.0
127.0,127.0,127.0,126.0,126.0,130.0,126.0,127.0,-1.0,110.0,-66.0,127.0,127.0,127.0,-120.0,-89.0,112.0
127.0,127.0,127.0,126.0,126.0,130.0,126.0,127.0,-1.0,110.0,-66.0,127.0,127.0,127.0,-120.0,-89.0,112.0
127.0,128.0,127.0,126.0,126.0,129.0,126.0,127.0,-1.0,110.0,-66.0,127.0,127.0,127.0,-120.0,-89.0,112.0
127.0,128.0,127.0,127.0,126.0,131.0,126.0,127.0,-1.0,110.0,-66.0,127.0,127.0,127.0,-120.0,-89.0,112.0
127.0,128.0,127.0,127.0,126.0,131.0,126.0,127.0,-1.0,110.0,-66.0,127.0,127.0,127.0,-120.0,-89.0,112.0
127.0,128.0,127.0,127.0,127.0,131.0,126.0,127.0,-1.0,110.0,-66.0,127.0,127.0,127.0,-120.0,-89.0,112.0
127.0,128.0,127.0,127.0,127.0,131.0,126.0,127.0,-1.0,110.0,-66.0,127.0,127.0,127.0,-120.0,-89.0,112.0
127.0,127.0,127.0,127.0,127.0,131.0,126.0,127.0,-1.0,110.0,-66.0,127.0,127.0,127.0,-120.0,-89.0,112.0
127.0,128.0,127.0,127.0,127.0,131.0,126.0,127.0,-1.0,110.0,-66.0,127.0,127.0,127.0,-120.0,-89.0,112.0
127.0,127.0,127.0,127.0,127.0,131.0,126.0,127.0,-1.0,110.0,-66.0,127.0,127.0,127.0,-120.0,-89.0,112.0
127.0,127.0,127.0,127.0,127.0,131.0,126.0,127.0,-1.0,110.0,-66.0,127.0,127.0,127.0,-120.0,-89.0,112.0
127.0,127.0,127.0,127.0,126.0,130.0,127.0,128.0,-1.0,110.0,-66.0,127.0,127.0,127.0,-120.0,-89.0,112.0
127.0,127.0,127.0,127.0,126.0,131.0,126.0,127.0,-1.0,110.0,-66.0,127.0,127.0,127.0,-120.0,-89.0,112.0
127.0,127.0,127.0,127.0,126.0,129.0,129.0,126.0,-1.0,110.0,-66.0,127.0,127.0,127.0,-120.0,-89.0,112.0
127.0,127.0,127.0,127.0,126.0,129.0,129.0,126.0,-1.0,110.0,-66.0,127.0,127.0,127.0,-120.0,-89.0,112.0
127.0,127.0,127.0,127.0,126.0,129.0,128.0,126.0,-1.0,110.0,-66.0,127.0,127.0,127.0,-120.0,-89.0,112.0
127.0,127.0,127.0,127.0,126.0,130.0,128.0,127.0,-1.0,110.0,-66.0,127.0,127.0,127.0,-120.0,-89.0,112.0
127.0,127.0,127.0,127.0,126.0,129.0,129.0,127.0,-1.0,110.0,-66.0,127.0,127.0,127.0,-120.0,-89.0,112.0
127.0,127.0,127.0,127.0,127.0,130.0,129.0,127.0,-1.0,110.0,-66.0,127.0,127.0,127.0,-120.0,-89.0,112.0
127.0,127.0,127.0,127.0,127.0,130.0,129.0,127.0,-1.0,110.0,-66.0,127.0,127.0,127.0,-120.0,-89.0,112.0
127.0,127.0,127.0,127.0,126.0,129.0,129.0,126.0,-1.0,110.0,-66.0,127.0,127.0,127.0,-120.0,-89.0,112.0
127.0,127.0,127.0,127.0,127.0,129.0,129.0,126.0,-1.0,110.0,-66.0,127.0,127.0,127.0,-120.0,-89.0,112.0
127.0,127.0,127.0,127.0,127.0,128.0,129.0,126.0,-1.0,110.0,-66.0,127.0,127.0,127.0,-120.0,-89.0,112.0
127.0,127.0,127.0,128.0,126.0,128.0,141.0,126.0,-1.0,110.0,-66.0,127.0,127.0,127.0,-120.0,-89.0,112.0
127.0,127.0,127.0,128.0,126.0,128.0,141.0,126.0,-1.0,110.0,-66.0,127.0,127.0,127.0,-120.0,-89.0,112.0
127.0,127.0,127.0,128.0,126.0,128.0,142.0,126.0,-1.0,110.0,-66.0,127.0,127.0,127.0,-120.0,-89.0,112.0
127.0,127.0,127.0,128.0,127.0,128.0,142.0,126.0,-1.0,110.0,-66.0,127.0,127.0,127.0,-120.0,-89.0,112.0
127.0,127.0,127.0,128.0,127.0,128.0,143.0,126.0,-1.0,110.0,-66.0,127.0,127.0,127.0,-120.0,-89.0,112.0
127.0,127.0,127.0,128.0,127.0,128.0,143.0,126.0,-1.0,110.0,-66.0,127.0,127.0,127.0,-120.0,-89.0,112.0
127.0,127.0,127.0,128.0,126.0,128.0,139.0,127.0,-1.0,110.0,-66.0,127.0,127.0,127.0,-120.0,-89.0,112.0
127.0,127.0,127.0,128.0,126.0,128.0,139.0,127.0,-1.0,110.0,-66.0,127.0,127.0,127.0,-120.0,-89.0,112.0
127.0,127.0,127.0,128.0,126.0,128.0,140.0,126.0,-1.0,110.0,-66.0,127.0,127.0,127.0,-120.0,-89.0,112.0
127.0,127.0,127.0,128.0,126.0,128.0,140.0,126.0,-1.0,110.0,-66.0,127.0,127.0,127.0,-120.0,-89.0,112.0
127.0,127.0,127.0,128.0,126.0,128.0,146.0,125.0,-1.0,110.0,-66.0,127.0,127.0,127.0,-120.0,-89.0,112.0
127.0,127.0,127.0,128.0,126.0,127.0,145.0,125.0,-1.0,110.0,-66.0,127.0,127.0,127.0,-120.0,-89.0,112.0
127.0,127.0,127.0,128.0,126.0,127.0,144.0,125.0,-1.0,110.0,-66.0,127.0,127.0,127.0,-120.0,-89.0,112.0
127.0,127.0,127.0,128.0,126.0,126.0,144.0,125.0,-1.0,110.0,-66.0,127.0,127.0,127.0,-120.0,-89.0,112.0
127.0,127.0,127.0,128.0,126.0,126.0,143.0,125.0,-1.0,110.0,-66.0,127.0,127.0,127.0,-120.0,-89.0,112.0
127.0,128.0,126.0,128.0,126.0,128.0,150.0,126.0,-1.0,110.0,-66.0,127.0,127.0,127.0,-120.0,-89.0,112.0
127.0,128.0,126.0,128.0,126.0,128.0,149.0,126.0,-1.0,110.0,-66.0,127.0,127.0,127.0,-120.0,-89.0,112.0
127.0,128.0,127.0,128.0,126.0,128.0,148.0,125.0,-1.0,110.0,-66.0,127.0,127.0,127.0,-120.0,-89.0,112.0
127.0,128.0,127.0,128.0,126.0,128.0,147.0,126.0,-1.0,110.0,-66.0,127.0,127.0,127.0,-120.0,-89.0,112.0
127.0,128.0,127.0,128.0,126.0,128.0,146.0,125.0,-1.0,110.0,-66.0,127.0,127.0,127.0,-120.0,-89.0,112.0
127.0,127.0,127.0,129.0,126.0,129.0,102.0,125.0,-1.0,110.0,-66.0,127.0,127.0,127.0,-120.0,-89.0,112.0
127.0,127.0,127.0,129.0,126.0,128.0,101.0,125.0,-1.0,110.0,-66.0,127.0,127.0,127.0,-120.0,-89.0,112.0
126.0,127.0,127.0,129.0,126.0,128.0,101.0,125.0,-1.0,110.0,-66.0,127.0,127.0,127.0,-120.0,-89.0,112.0
126.0,127.0,127.0,129.0,126.0,127.0,100.0,125.0,-1.0,110.0,-66.0,127.0,127.0,127.0,-120.0,-89.0,112.0
128.0,128.0,126.0,129.0,126.0,133.0,106.0,126.0,-1.0,110.0,-66.0,127.0,127.0,127.0,-120.0,-89.0,112.0
127.0,128.0,126.0,129.0,126.0,132.0,106.0,127.0,-1.0,110.0,-66.0,127.0,127.0,127.0,-120.0,-89.0,112.0
127.0,128.0,126.0,129.0,126.0,132.0,105.0,127.0,-1.0,110.0,-66.0,127.0,127.0,127.0,-120.0,-89.0,112.0
127.0,128.0,126.0,129.0,126.0,131.0,104.0,126.0,-1.0,110.0,-66.0,127.0,127.0,127.0,-120.0,-89.0,112.0
127.0,128.0,126.0,129.0,126.0,131.0,103.0,126.0,-1.0,110.0,-66.0,127.0,127.0,127.0,-120.0,-89.0,112.0
127.0,127.0,126.0,129.0,126.0,130.0,103.0,126.0,-1.0,110.0,-66.0,127.0,127.0,127.0,-120.0,-89.0,112.0
128.0,127.0,127.0,128.0,126.0,130.0,94.0,125.0,-1.0,110.0,-66.0,126.0,127.0,127.0,-120.0,-89.0,112.0
128.0,127.0,127.0,128.0,126.0,130.0,94.0,125.0,-1.0,110.0,-66.0,126.0,127.0,127.0,-120.0,-89.0,112.0
128.0,127.0,127.0,128.0,126.0,130.0,95.0,125.0,-1.0,110.0,-66.0,126.0,127.0,127.0,-120.0,-89.0,112.0
127.0,127.0,127.0,128.0,126.0,130.0,92.0,125.0,-1.0,110.0,-66.0,126.0,127.0,127.0,-120.0,-89.0,112.0
127.0,127.0,127.0,128.0,126.0,130.0,92.0,125.0,-1.0,110.0,-66.0,126.0,127.0,127.0,-120.0,-89.0,112.0
127.0,127.0,127.0,128.0,126.0,130.0,92.0,125.0,-1.0,110.0,-66.0,126.0,127.0,127.0,-120.0,-89.0,112.0
127.0,127.0,127.0,128.0,126.0,130.0,93.0,125.0,-1.0,110.0,-66.0,126.0,127.0,127.0,-120.0,-89.0,112.0
127.0,127.0,127.0,128.0,126.0,130.0,93.0,124.0,-1.0,110.0,-66.0,126.0,127.0,127.0,-120.0,-89.0,112.0
127.0,127.0,127.0,128.0,126.0,130.0,93.0,124.0,-1.0,110.0,-66.0,126.0,127.0,127.0,-120.0,-89.0,112.0
128.0,127.0,127.0,128.0,126.0,130.0,94.0,124.0,-1.0,110.0,-66.0,126.0,127.0,127.0,-120.0,-89.0,112.0
125.0,126.0,127.0,129.0,126.0,126.0,90.0,129.0,-1.0,110.0,-66.0,126.0,127.0,127.0,-120.0,-89.0,112.0
125.0,126.0,127.0,129.0,126.0,126.0,91.0,128.0,-1.0,110.0,-66.0,126.0,127.0,127.0,-120.0,-89.0,112.0
126.0,127.0,127.0,128.0,126.0,130.0,94.0,129.0,-1.0,110.0,-66.0,126.0,127.0,127.0,-120.0,-89.0,112.0
126.0,127.0,127.0,128.0,126.0,130.0,93.0,129.0,-1.0,110.0,-66.0,126.0,127.0,127.0,-120.0,-89.0,112.0
126.0,127.0,127.0,128.0,126.0,130.0,93.0,130.0,-1.0,110.0,-66.0,126.0,127.0,127.0,-120.0,-89.0,112.0
126.0,127.0,127.0,129.0,126.0,129.0,92.0,130.0,-1.0,110.0,-66.0,126.0,127.0,127.0,-120.0,-89.0,112.0
126.0,127.0,127.0,129.0,126.0,129.0,92.0,130.0,-1.0,110.0,-66.0,126.0,127.0,127.0,-120.0,-89.0,112.0
126.0,127.0,127.0,129.0,126.0,128.0,91.0,129.0,-1.0,110.0,-66.0,126.0,127.0,127.0,-120.0,-89.0,112.0
126.0,127.0,127.0,128.0,126.0,127.0,91.0,129.0,-1.0,110.0,-66.0,126.0,127.0,127.0,-120.0,-89.0,112.0
126.0,127.0,127.0,129.0,126.0,127.0,91.0,129.0,-1.0,110.0,-66.0,126.0,127.0,127.0,-120.0,-89.0,112.0
130.0,125.0,128.0,131.0,126.0,134.0,146.0,130.0,-1.0,110.0,-66.0,127.0,127.0,127.0,-120.0,-89.0,112.0
126.0,124.0,127.0,132.0,126.0,135.0,136.0,131.0,-1.0,110.0,-66.0,127.0,127.0,127.0,-120.0,-89.0,112.0
126.0,124.0,127.0,132.0,126.0,135.0,137.0,131.0,-1.0,110.0,-66.0,127.0,127.0,127.0,-120.0,-89.0,112.0
126.0,124.0,127.0,132.0,126.0,135.0,138.0,130.0,-1.0,110.0,-66.0,127.0,127.0,127.0,-120.0,-89.0,112.0
127.0,124.0,128.0,132.0,126.0,135.0,139.0,130.0,-1.0,110.0,-66.0,127.0,127.0,127.0,-120.0,-89.0,112.0
127.0,124.0,128.0,132.0,126.0,135.0,140.0,130.0,-1.0,110.0,-66.0,127.0,127.0,127.0,-120.0,-89.0,112.0
128.0,124.0,128.0,132.0,126.0,134.0,141.0,130.0,-1.0,110.0,-66.0,127.0,127.0,127.0,-120.0,-89.0,112.0
129.0,125.0,128.0,132.0,126.0,134.0,142.0,130.0,-1.0,110.0,-66.0,127.0,127.0,127.0,-120.0,-89.0,112.0
129.0,125.0,128.0,131.0,126.0,134.0,143.0,130.0,-1.0,110.0,-66.0,127.0,127.0,127.0,-120.0,-89.0,112.0
130.0,125.0,128.0,131.0,126.0,134.0,145.0,130.0,-1.0,110.0,-66.0,127.0,127.0,127.0,-120.0,-89.0,112.0
125.0,124.0,127.0,133.0,127.0,137.0,161.0,125.0,-1.0,109.0,-67.0,127.0,127.0,127.0,-120.0,-89.0,112.0
126.0,124.0,127.0,134.0,127.0,137.0,160.0,125.0,-1.0,109.0,-67.0,127.0,127.0,127.0,-120.0,-89.0,112.0
127.0,124.0,128.0,134.0,127.0,136.0,160.0,124.0,-1.0,109.0,-67.0,127.0,127.0,127.0,-120.0,-89.0,112.0
127.0,124.0,128.0,134.0,127.0,136.0,160.0,124.0,-1.0,109.0,-67.0,127.0,127.0,127.0,-120.0,-89.0,112.0
128.0,124.0,128.0,134.0,128.0,135.0,160.0,124.0,-1.0,109.0,-67.0,127.0,127.0,127.0,-120.0,-89.0,112.0
129.0,124.0,128.0,135.0,128.0,134.0,160.0,124.0,-1.0,109.0,-67.0,127.0,127.0,127.0,-120.0,-89.0,112.0
129.0,124.0,128.0,135.0,128.0,133.0,160.0,124.0,-1.0,109.0,-67.0,127.0,127.0,127.0,-120.0,-89.0,112.0
130.0,124.0,128.0,135.0,128.0,132.0,159.0,124.0,-1.0,109.0,-67.0,127.0,127.0,127.0,-120.0,-89.0,112.0
130.0,123.0,128.0,135.0,127.0,131.0,159.0,125.0,-1.0,109.0,-67.0,127.0,127.0,127.0,-120.0,-89.0,112.0
129.0,123.0,128.0,135.0,127.0,130.0,160.0,125.0,-1.0,109.0,-67.0,127.0,127.0,127.0,-120.0,-89.0,112.0
126.0,115.0,125.0,135.0,125.0,129.0,153.0,122.0,-1.0,110.0,-67.0,127.0,127.0,127.0,-120.0,-89.0,112.0
126.0,115.0,125.0,135.0,125.0,129.0,152.0,123.0,-1.0,110.0,-67.0,127.0,127.0,127.0,-120.0,-89.0,112.0
125.0,115.0,125.0,135.0,125.0,130.0,151.0,123.0,-1.0,110.0,-67.0,127.0,127.0,127.0,-120.0,-89.0,112.0
125.0,115.0,125.0,135.0,125.0,130.0,151.0,124.0,-1.0,110.0,-67.0,127.0,127.0,127.0,-120.0,-89.0,112.0
125.0,115.0,125.0,135.0,125.0,130.0,151.0,124.0,-1.0,110.0,-67.0,127.0,127.0,127.0,-120.0,-89.0,112.0
125.0,115.0,126.0,135.0,125.0,130.0,151.0,125.0,-1.0,110.0,-67.0,127.0,127.0,127.0,-120.0,-89.0,112.0
125.0,115.0,126.0,135.0,125.0,130.0,151.0,125.0,-1.0,110.0,-67.0,127.0,127.0,127.0,-120.0,-89.0,112.0
125.0,115.0,126.0,135.0,126.0,130.0,150.0,125.0,-1.0,110.0,-67.0,127.0,127.0,127.0,-120.0,-89.0,112.0
125.0,115.0,126.0,135.0,125.0,130.0,150.0,125.0,-1.0,110.0,-67.0,127.0,127.0,127.0,-120.0,-89.0,112.0
127.0,116.0,125.0,135.0,125.0,129.0,153.0,122.0,-1.0,110.0,-67.0,127.0,127.0,127.0,-120.0,-89.0,112.0
131.0,115.0,123.0,133.0,122.0,124.0,144.0,114.0,-1.0,111.0,-67.0,127.0,127.0,127.0,-120.0,-89.0,112.0
131.0,115.0,123.0,133.0,122.0,124.0,144.0,114.0,-1.0,111.0,-67.0,127.0,127.0,127.0,-120.0,-89.0,112.0
130.0,115.0,123.0,133.0,122.0,124.0,144.0,114.0,-1.0,111.0,-67.0,127.0,127.0,127.0,-120.0,-89.0,112.0
129.0,115.0,123.0,133.0,122.0,125.0,143.0,113.0,-1.0,111.0,-67.0,127.0,127.0,127.0,-120.0,-89.0,112.0
129.0,115.0,123.0,133.0,122.0,124.0,143.0,112.0,-1.0,111.0,-67.0,127.0,127.0,127.0,-120.0,-89.0,112.0
128.0,115.0,123.0,133.0,122.0,124.0,142.0,111.0,-1.0,111.0,-67.0,127.0,127.0,127.0,-120.0,-89.0,112.0
128.0,116.0,123.0,133.0,122.0,124.0,141.0,111.0,-1.0,111.0,-67.0,127.0,127.0,127.0,-120.0,-89.0,112.0
127.0,116.0,124.0,133.0,122.0,124.0,140.0,111.0,-1.0,111.0,-67.0,127.0,127.0,127.0,-120.0,-89.0,112.0
131.0,115.0,123.0,133.0,122.0,123.0,144.0,113.0,-1.0,111.0,-67.0,127.0,127.0,127.0,-120.0,-89.0,112.0
131.0,115.0,123.0,133.0,122.0,124.0,144.0,113.0,-1.0,111.0,-67.0,127.0,127.0,127.0,-120.0,-89.0,112.0
124.0,115.0,121.0,134.0,117.0,117.0,139.0,95.0,-1.0,111.0,-68.0,127.0,127.0,127.0,-120.0,-89.0,112.0
124.0,114.0,121.0,134.0,117.0,117.0,139.0,96.0,-1.0,111.0,-68.0,127.0,127.0,127.0,-120.0,-89.0,112.0
125.0,114.0,121.0,134.0,116.0,117.0,139.0,97.0,-1.0,111.0,-68.0,127.0,127.0,127.0,-120.0,-89.0,112.0
126.0,113.0,121.0,134.0,116.0,117.0,139.0,97.0,-1.0,111.0,-68.0,127.0,127.0,127.0,-120.0,-89.0,112.0
126.0,113.0,121.0,134.0,116.0,117.0,138.0,98.0,-1.0,111.0,-68.0,127.0,127.0,127.0,-120.0,-89.0,112.0
127.0,112.0,120.0,133.0,116.0,117.0,138.0,98.0,-1.0,111.0,-68.0,127.0,127.0,127.0,-120.0,-89.0,112.0
128.0,112.0,120.0,133.0,116.0,117.0,138.0,98.0,-1.0,111.0,-68.0,127.0,127.0,127.0,-120.0,-89.0,112.0
124.0,117.0,121.0,134.0,116.0,117.0,141.0,96.0,-1.0,111.0,-68.0,127.0,127.0,127.0,-120.0,-89.0,112.0
124.0,116.0,121.0,134.0,116.0,117.0,140.0,95.0,-1.0,111.0,-68.0,127.0,127.0,127.0,-120.0,-89.0,112.0
124.0,116.0,121.0,134.0,116.0,117.0,139.0,95.0,-1.0,111.0,-68.0,127.0,127.0,127.0,-120.0,-89.0,112.0
119.0,111.0,114.0,129.0,114.0,110.0,130.0,82.0,-1.0,110.0,-67.0,127.0,127.0,127.0,-120.0,-89.0,112.0
120.0,111.0,114.0,129.0,114.0,110.0,130.0,83.0,-1.0,110.0,-67.0,127.0,127.0,127.0,-120.0,-89.0,112.0
120.0,111.0,114.0,129.0,114.0,110.0,130.0,84.0,-1.0,110.0,-67.0,127.0,127.0,127.0,-120.0,-89.0,112.0
120.0,111.0,114.0,129.0,114.0,110.0,130.0,84.0,-1.0,110.0,-67.0,127.0,127.0,127.0,-120.0,-89.0,112.0
120.0,111.0,114.0,129.0,115.0,110.0,130.0,85.0,-1.0,110.0,-67.0,127.0,127.0,127.0,-120.0,-89.0,112.0
119.0,113.0,115.0,130.0,114.0,112.0,132.0,81.0,-1.0,110.0,-67.0,127.0,127.0,127.0,-120.0,-89.0,112.0
119.0,112.0,115.0,130.0,114.0,112.0,132.0,81.0,-1.0,110.0,-67.0,127.0,127.0,127.0,-120.0,-89.0,112.0
119.0,112.0,115.0,130.0,114.0,111.0,132.0,82.0,-1.0,110.0,-67.0,127.0,127.0,127.0,-120.0,-89.0,112.0
119.0,112.0,114.0,130.0,114.0,111.0,131.0,82.0,-1.0,110.0,-67.0,127.0,127.0,127.0,-120.0,-89.0,112.0
119.0,111.0,114.0,130.0,114.0,110.0,131.0,82.0,-1.0,110.0,-67.0,127.0,127.0,127.0,-120.0,-89.0,112.0
129.0,114.0,117.0,133.0,119.0,113.0,111.0,98.0,-1.0,109.0,-67.0,127.0,127.0,127.0,-120.0,-89.0,112.0
129.0,113.0,117.0,133.0,119.0,112.0,110.0,98.0,-1.0,109.0,-67.0,127.0,127.0,127.0,-120.0,-89.0,112.0
129.0,113.0,117.0,133.0,119.0,111.0,110.0,98.0,-1.0,109.0,-67.0,127.0,127.0,127.0,-120.0,-89.0,112.0
128.0,112.0,117.0,133.0,119.0,111.0,111.0,98.0,-1.0,109.0,-67.0,127.0,127.0,127.0,-120.0,-89.0,112.0
129.0,124.0,119.0,133.0,118.0,113.0,111.0,97.0,-1.0,109.0,-67.0,127.0,127.0,127.0,-120.0,-89.0,112.0
129.0,122.0,119.0,133.0,118.0,113.0,111.0,98.0,-1.0,109.0,-67.0,127.0,127.0,127.0,-120.0,-89.0,112.0
130.0,120.0,118.0,133.0,119.0,113.0,111.0,98.0,-1.0,109.0,-67.0,127.0,127.0,127.0,-120.0,-89.0,112.0
130.0,119.0,118.0,133.0,119.0,113.0,111.0,98.0,-1.0,109.0,-67.0,127.0,127.0,127.0,-120.0,-89.0,112.0
129.0,117.0,118.0,133.0,119.0,113.0,111.0,98.0,-1.0,109.0,-67.0,127.0,127.0,127.0,-120.0,-89.0,112.0
129.0,115.0,118.0,133.0,119.0,113.0,111.0,98.0,-1.0,109.0,-67.0,127.0,127.0,127.0,-120.0,-89.0,112.0
131.0,106.0,117.0,131.0,119.0,102.0,106.0,122.0,-1.0,107.0,-66.0,127.0,127.0,127.0,-120.0,-89.0,112.0
132.0,106.0,117.0,131.0,119.0,102.0,106.0,123.0,-1.0,107.0,-66.0,127.0,127.0,127.0,-120.0,-89.0,112.0
133.0,107.0,117.0,131.0,119.0,101.0,106.0,124.0,-1.0,107.0,-66.0,127.0,127.0,127.0,-120.0,-89.0,112.0
128.0,105.0,115.0,131.0,119.0,104.0,105.0,118.0,-1.0,107.0,-66.0,127.0,127.0,127.0,-120.0,-89.0,112.0
128.0,105.0,115.0,131.0,119.0,104.0,106.0,118.0,-1.0,107.0,-66.0,127.0,127.0,127.0,-120.0,-89.0,112.0
128.0,105.0,116.0,131.0,119.0,103.0,106.0,119.0,-1.0,107.0,-66.0,127.0,127.0,127.0,-120.0,-89.0,112.0
129.0,106.0,116.0,131.0,119.0,103.0,106.0,119.0,-1.0,107.0,-66.0,127.0,127.0,127.0,-120.0,-89.0,112.0
129.0,106.0,116.0,131.0,119.0,103.0,106.0,120.0,-1.0,107.0,-66.0,127.0,127.0,127.0,-120.0,-89.0,112.0
130.0,106.0,116.0,131.0,119.0,102.0,106.0,121.0,-1.0,107.0,-66.0,127.0,127.0,127.0,-120.0,-89.0,112.0
130.0,106.0,116.0,131.0,119.0,102.0,105.0,121.0,-1.0,107.0,-66.0,127.0,127.0,127.0,-120.0,-89.0,112.0
135.0,113.0,128.0,145.0,119.0,94.0,115.0,119.0,-1.0,106.0,-66.0,126.0,127.0,127.0,-120.0,-89.0,112.0
136.0,115.0,128.0,146.0,119.0,94.0,115.0,119.0,-1.0,106.0,-66.0,126.0,127.0,127.0,-120.0,-89.0,112.0
134.0,107.0,125.0,142.0,117.0,94.0,113.0,122.0,-1.0,106.0,-66.0,126.0,127.0,127.0,-120.0,-89.0,112.0
133.0,106.0,126.0,143.0,117.0,94.0,113.0,121.0,-1.0,106.0,-66.0,126.0,127.0,127.0,-120.0,-89.0,112.0
133.0,106.0,126.0,143.0,117.0,94.0,113.0,121.0,-1.0,106.0,-66.0,126.0,127.0,127.0,-120.0,-89.0,112.0
132.0,107.0,126.0,143.0,117.0,94.0,113.0,120.0,-1.0,106.0,-66.0,126.0,127.0,127.0,-120.0,-89.0,112.0
132.0,107.0,127.0,144.0,117.0,94.0,113.0,120.0,-1.0,106.0,-66.0,126.0,127.0,127.0,-120.0,-89.0,112.0
133.0,109.0,127.0,144.0,118.0,94.0,113.0,119.0,-1.0,106.0,-66.0,126.0,127.0,127.0,-120.0,-89.0,112.0
133.0,110.0,127.0,145.0,118.0,94.0,114.0,119.0,-1.0,106.0,-66.0,126.0,127.0,127.0,-120.0,-89.0,112.0
134.0,112.0,128.0,145.0,118.0,94.0,114.0,119.0,-1.0,106.0,-66.0,126.0,127.0,127.0,-120.0,-89.0,112.0
132.0,123.0,125.0,138.0,119.0,91.0,119.0,121.0,-1.0,104.0,-66.0,126.0,127.0,127.0,-120.0,-89.0,112.0
129.0,111.0,121.0,140.0,117.0,90.0,117.0,118.0,-1.0,104.0,-66.0,126.0,127.0,127.0,-120.0,-89.0,112.0
129.0,112.0,122.0,140.0,118.0,90.0,117.0,119.0,-1.0,104.0,-66.0,126.0,127.0,127.0,-120.0,-89.0,112.0
130.0,114.0,122.0,140.0,118.0,90.0,118.0,119.0,-1.0,104.0,-66.0,126.0,127.0,127.0,-120.0,-89.0,112.0
130.0,115.0,122.0,140.0,118.0,90.0,118.0,120.0,-1.0,104.0,-66.0,126.0,127.0,127.0,-120.0,-89.0,112.0
130.0,117.0,123.0,139.0,118.0,90.0,118.0,120.0,-1.0,104.0,-66.0,126.0,127.0,127.0,-120.0,-89.0,112.0
130.0,118.0,123.0,139.0,118.0,90.0,119.0,120.0,-1.0,104.0,-66.0,126.0,127.0,127.0,-120.0,-89.0,112.0
131.0,120.0,123.0,139.0,119.0,90.0,119.0,120.0,-1.0,104.0,-66.0,126.0,127.0,127.0,-120.0,-89.0,112.0
131.0,121.0,124.0,139.0,119.0,91.0,119.0,120.0,-1.0,104.0,-66.0,126.0,127.0,127.0,-120.0,-89.0,112.0
132.0,122.0,124.0,138.0,119.0,91.0,119.0,121.0,-1.0,104.0,-66.0,126.0,127.0,127.0,-120.0,-89.0,112.0
134.0,135.0,133.0,133.0,130.0,107.0,127.0,131.0,-1.0,104.0,-67.0,127.0,127.0,127.0,-120.0,-89.0,112.0
134.0,135.0,132.0,133.0,130.0,108.0,127.0,131.0,-1.0,104.0,-67.0,127.0,127.0,127.0,-120.0,-89.0,112.0
134.0,136.0,132.0,133.0,130.0,109.0,127.0,130.0,-1.0,104.0,-67.0,127.0,127.0,127.0,-120.0,-89.0,112.0
133.0,136.0,132.0,133.0,130.0,109.0,127.0,130.0,-1.0,104.0,-67.0,127.0,127.0,127.0,-120.0,-89.0,112.0
133.0,137.0,132.0,132.0,130.0,109.0,127.0,129.0,-1.0,104.0,-67.0,127.0,127.0,127.0,-120.0,-89.0,112.0
132.0,137.0,132.0,132.0,130.0,109.0,127.0,129.0,-1.0,104.0,-67.0,127.0,127.0,127.0,-120.0,-89.0,112.0
132.0,137.0,132.0,132.0,131.0,110.0,127.0,129.0,-1.0,104.0,-67.0,127.0,127.0,127.0,-120.0,-89.0,112.0
131.0,137.0,132.0,132.0,131.0,110.0,127.0,130.0,-1.0,104.0,-67.0,127.0,127.0,127.0,-120.0,-89.0,112.0
131.0,137.0,132.0,132.0,131.0,111.0,126.0,131.0,-1.0,104.0,-67.0,127.0,127.0,127.0,-120.0,-89.0,112.0
131.0,137.0,133.0,132.0,131.0,111.0,126.0,132.0,-1.0,104.0,-67.0,127.0,127.0,127.0,-120.0,-89.0,112.0
131.0,123.0,132.0,137.0,134.0,116.0,115.0,131.0,-1.0,102.0,-64.0,126.0,127.0,-128.0,-120.0,-89.0,112.0
131.0,123.0,132.0,137.0,134.0,117.0,114.0,131.0,-1.0,102.0,-64.0,126.0,127.0,-128.0,-120.0,-89.0,112.0
131.0,123.0,133.0,138.0,134.0,117.0,114.0,131.0,-1.0,102.0,-64.0,126.0,127.0,-128.0,-120.0,-89.0,112.0
131.0,124.0,133.0,138.0,134.0,118.0,113.0,131.0,-1.0,102.0,-64.0,126.0,127.0,-128.0,-120.0,-89.0,112.0
131.0,124.0,133.0,138.0,135.0,118.0,113.0,131.0,-1.0,102.0,-64.0,126.0,127.0,-128.0,-120.0,-89.0,112.0
131.0,125.0,133.0,138.0,135.0,118.0,113.0,131.0,-1.0,102.0,-64.0,126.0,127.0,-128.0,-120.0,-89.0,112.0
132.0,126.0,134.0,138.0,135.0,118.0,112.0,131.0,-1.0,102.0,-64.0,126.0,127.0,-128.0,-120.0,-89.0,112.0
132.0,126.0,134.0,138.0,135.0,118.0,112.0,131.0,-1.0,102.0,-64.0,126.0,127.0,-128.0,-120.0,-89.0,112.0
132.0,127.0,134.0,139.0,135.0,119.0,112.0,132.0,-1.0,102.0,-64.0,126.0,127.0,-128.0,-120.0,-89.0,112.0
131.0,123.0,132.0,137.0,134.0,116.0,115.0,132.0,-1.0,102.0,-64.0,126.0,127.0,-128.0,-120.0,-89.0,112.0
131.0,124.0,133.0,136.0,134.0,121.0,128.0,132.0,-1.0,100.0,-62.0,126.0,127.0,-128.0,-120.0,-89.0,112.0
130.0,124.0,133.0,136.0,134.0,121.0,128.0,132.0,-1.0,100.0,-62.0,126.0,127.0,-128.0,-120.0,-89.0,112.0
130.0,123.0,133.0,136.0,134.0,121.0,128.0,131.0,-1.0,100.0,-62.0,126.0,127.0,-128.0,-120.0,-89.0,112.0
129.0,123.0,133.0,136.0,134.0,121.0,128.0,130.0,-1.0,100.0,-62.0,126.0,127.0,-128.0,-120.0,-89.0,112.0
129.0,123.0,133.0,136.0,134.0,121.0,128.0,130.0,-1.0,100.0,-62.0,126.0,127.0,-128.0,-120.0,-89.0,112.0
129.0,123.0,133.0,135.0,134.0,121.0,128.0,130.0,-1.0,100.0,-62.0,126.0,127.0,-128.0,-120.0,-89.0,112.0
129.0,123.0,133.0,135.0,134.0,121.0,128.0,129.0,-1.0,100.0,-62.0,126.0,127.0,-128.0,-120.0,-89.0,112.0
128.0,124.0,133.0,135.0,134.0,122.0,128.0,129.0,-1.0,100.0,-62.0,126.0,127.0,-128.0,-120.0,-89.0,112.0
132.0,124.0,134.0,136.0,135.0,120.0,127.0,134.0,-1.0,100.0,-62.0,126.0,127.0,-128.0,-120.0,-89.0,112.0
132.0,124.0,134.0,136.0,135.0,120.0,127.0,133.0,-1.0,100.0,-62.0,126.0,127.0,-128.0,-120.0,-89.0,112.0
130.0,119.0,132.0,133.0,133.0,121.0,128.0,128.0,-1.0,102.0,-62.0,126.0,127.0,-128.0,-120.0,-89.0,112.0
131.0,119.0,132.0,133.0,133.0,121.0,127.0,128.0,-1.0,102.0,-62.0,126.0,127.0,-128.0,-120.0,-89.0,112.0
131.0,120.0,133.0,133.0,133.0,121.0,127.0,128.0,-1.0,102.0,-62.0,126.0,127.0,-128.0,-120.0,-89.0,112.0
131.0,120.0,133.0,134.0,134.0,121.0,126.0,128.0,-1.0,102.0,-62.0,126.0,127.0,-128.0,-120.0,-89.0,112.0
131.0,120.0,133.0,134.0,134.0,121.0,126.0,128.0,-1.0,102.0,-62.0,126.0,127.0,-128.0,-120.0,-89.0,112.0
130.0,120.0,133.0,134.0,133.0,121.0,126.0,128.0,-1.0,102.0,-62.0,126.0,127.0,-128.0,-120.0,-89.0,112.0
130.0,121.0,133.0,134.0,133.0,122.0,126.0,128.0,-1.0,102.0,-62.0,126.0,127.0,-128.0,-120.0,-89.0,112.0
130.0,118.0,132.0,133.0,133.0,119.0,129.0,128.0,-1.0,102.0,-62.0,126.0,127.0,-128.0,-120.0,-89.0,112.0
130.0,118.0,132.0,133.0,133.0,120.0,129.0,128.0,-1.0,102.0,-62.0,126.0,127.0,-128.0,-120.0,-89.0,112.0
130.0,119.0,132.0,133.0,133.0,120.0,128.0,128.0,-1.0,102.0,-62.0,126.0,127.0,-128.0,-120.0,-89.0,112.0
129.0,124.0,130.0,130.0,132.0,121.0,111.0,127.0,-1.0,107.0,-66.0,126.0,127.0,127.0,-120.0,-89.0,112.0
129.0,125.0,130.0,130.0,132.0,121.0,111.0,128.0,-1.0,107.0,-66.0,126.0,127.0,127.0,-120.0,-89.0,112.0
129.0,125.0,130.0,130.0,131.0,121.0,111.0,128.0,-1.0,107.0,-66.0,126.0,127.0,127.0,-120.0,-89.0,112.0
129.0,125.0,130.0,130.0,131.0,121.0,111.0,128.0,-1.0,107.0,-66.0,126.0,127.0,127.0,-120.0,-89.0,112.0
129.0,125.0,130.0,130.0,131.0,121.0,111.0,128.0,-1.0,107.0,-66.0,126.0,127.0,127.0,-120.0,-89.0,112.0
129.0,126.0,130.0,130.0,131.0,120.0,110.0,128.0,-1.0,107.0,-66.0,126.0,127.0,127.0,-120.0,-89.0,112.0
129.0,123.0,130.0,130.0,132.0,120.0,114.0,128.0,-1.0,107.0,-66.0,126.0,127.0,127.0,-120.0,-89.0,112.0
129.0,123.0,130.0,130.0,132.0,120.0,113.0,128.0,-1.0,107.0,-66.0,126.0,127.0,127.0,-120.0,-89.0,112.0
129.0,123.0,130.0,130.0,132.0,120.0,112.0,127.0,-1.0,107.0,-66.0,126.0,127.0,127.0,-120.0,-89.0,112.0
129.0,124.0,130.0,130.0,131.0,121.0,112.0,127.0,-1.0,107.0,-66.0,126.0,127.0,127.0,-120.0,-89.0,112.0
129.0,129.0,129.0,129.0,130.0,122.0,117.0,126.0,-1.0,109.0,-69.0,127.0,127.0,127.0,-120.0,-89.0,112.0
129.0,129.0,129.0,129.0,130.0,122.0,117.0,126.0,-1.0,109.0,-69.0,127.0,127.0,127.0,-120.0,-89.0,112.0
129.0,129.0,129.0,129.0,130.0,122.0,117.0,126.0,-1.0,109.0,-69.0,127.0,127.0,127.0,-120.0,-89.0,112.0
129.0,129.0,129.0,129.0,130.0,122.0,116.0,126.0,-1.0,109.0,-69.0,127.0,127.0,127.0,-120.0,-89.0,112.0
128.0,128.0,129.0,129.0,130.0,122.0,116.0,126.0,-1.0,109.0,-69.0,127.0,127.0,127.0,-120.0,-89.0,112.0
129.0,131.0,129.0,129.0,130.0,121.0,116.0,125.0,-1.0,109.0,-69.0,127.0,127.0,127.0,-120.0,-89.0,112.0
129.0,130.0,129.0,129.0,130.0,121.0,116.0,125.0,-1.0,109.0,-69.0,127.0,127.0,127.0,-120.0,-89.0,112.0
129.0,130.0,129.0,129.0,130.0,121.0,116.0,125.0,-1.0,109.0,-69.0,127.0,127.0,127.0,-120.0,-89.0,112.0
129.0,130.0,129.0,129.0,130.0,122.0,116.0,126.0,-1.0,109.0,-69.0,127.0,127.0,127.0,-120.0,-89.0,112.0
129.0,130.0,129.0,129.0,130.0,122.0,116.0,126.0,-1.0,109.0,-69.0,127.0,127.0,127.0,-120.0,-89.0,112.0
130.0,134.0,129.0,129.0,128.0,122.0,124.0,127.0,-1.0,108.0,-70.0,127.0,127.0,127.0,-120.0,-89.0,112.0
130.0,134.0,129.0,128.0,128.0,122.0,124.0,127.0,-1.0,108.0,-70.0,127.0,127.0,127.0,-120.0,-89.0,112.0
130.0,134.0,129.0,129.0,128.0,122.0,125.0,127.0,-1.0,108.0,-70.0,127.0,127.0,127.0,-120.0,-89.0,112.0
130.0,134.0,129.0,129.0,129.0,122.0,125.0,127.0,-1.0,108.0,-70.0,127.0,127.0,127.0,-120.0,-89.0,112.0
130.0,130.0,129.0,128.0,128.0,121.0,124.0,129.0,-1.0,108.0,-70.0,127.0,127.0,127.0,-120.0,-89.0,112.0
130.0,131.0,129.0,128.0,128.0,121.0,124.0,129.0,-1.0,108.0,-70.0,127.0,127.0,127.0,-120.0,-89.0,112.0
130.0,131.0,129.0,128.0,128.0,121.0,125.0,128.0,-1.0,108.0,-70.0,127.0,127.0,127.0,-120.0,-89.0,112.0
130.0,132.0,129.0,128.0,128.0,122.0,124.0,128.0,-1.0,108.0,-70.0,127.0,127.0,127.0,-120.0,-89.0,112.0
130.0,133.0,129.0,128.0,128.0,122.0,124.0,128.0,-1.0,108.0,-70.0,127.0,127.0,127.0,-120.0,-89.0,112.0
130.0,134.0,129.0,128.0,128.0,122.0,124.0,127.0,-1.0,108.0,-70.0,127.0,127.0,127.0,-120.0,-89.0,112.0
132.0,131.0,128.0,129.0,129.0,125.0,127.0,134.0,-1.0,107.0,-70.0,127.0,127.0,127.0,-120.0,-89.0,112.0
131.0,131.0,128.0,129.0,129.0,125.0,127.0,134.0,-1.0,107.0,-70.0,127.0,127.0,127.0,-120.0,-89.0,112.0
131.0,131.0,128.0,128.0,129.0,124.0,127.0,133.0,-1.0,107.0,-70.0,127.0,127.0,127.0,-120.0,-89.0,112.0
131.0,132.0,127.0,128.0,129.0,125.0,127.0,132.0,-1.0,107.0,-70.0,127.0,127.0,127.0,-120.0,-89.0,112.0
131.0,131.0,127.0,128.0,128.0,125.0,127.0,132.0,-1.0,107.0,-70.0,127.0,127.0,127.0,-120.0,-89.0,112.0
131.0,131.0,127.0,128.0,128.0,125.0,127.0,132.0,-1.0,107.0,-70.0,127.0,127.0,127.0,-120.0,-89.0,112.0
131.0,131.0,127.0,128.0,128.0,125.0,127.0,133.0,-1.0,107.0,-70.0,127.0,127.0,127.0,-120.0,-89.0,112.0
132.0,131.0,127.0,128.0,128.0,125.0,127.0,134.0,-1.0,107.0,-70.0,127.0,127.0,127.0,-120.0,-89.0,112.0
132.0,131.0,127.0,129.0,128.0,125.0,127.0,134.0,-1.0,107.0,-70.0,127.0,127.0,127.0,-120.0,-89.0,112.0
132.0,131.0,128.0,129.0,129.0,125.0,127.0,134.0,-1.0,107.0,-70.0,127.0,127.0,127.0,-120.0,-89.0,112.0
129.0,130.0,127.0,128.0,128.0,125.0,127.0,128.0,-1.0,107.0,-70.0,127.0,127.0,127.0,-120.0,-89.0,112.0
129.0,129.0,127.0,128.0,128.0,125.0,127.0,127.0,-1.0,107.0,-70.0,127.0,127.0,127.0,-120.0,-89.0,112.0
128.0,128.0,127.0,127.0,128.0,124.0,129.0,127.0,-1.0,107.0,-70.0,127.0,127.0,127.0,-120.0,-89.0,112.0
128.0,129.0,127.0,127.0,128.0,124.0,129.0,127.0,-1.0,107.0,-70.0,127.0,127.0,127.0,-120.0,-89.0,112.0
128.0,129.0,127.0,128.0,128.0,124.0,129.0,127.0,-1.0,107.0,-70.0,127.0,127.0,127.0,-120.0,-89.0,112.0
128.0,129.0,127.0,128.0,129.0,124.0,129.0,127.0,-1.0,107.0,-70.0,127.0,127.0,127.0,-120.0,-89.0,112.0
129.0,129.0,127.0,128.0,129.0,124.0,129.0,127.0,-1.0,107.0,-70.0,127.0,127.0,127.0,-120.0,-89.0,112.0
129.0,130.0,127.0,128.0,129.0,124.0,128.0,128.0,-1.0,107.0,-70.0,127.0,127.0,127.0,-120.0,-89.0,112.0
129.0,130.0,127.0,128.0,128.0,125.0,128.0,128.0,-1.0,107.0,-70.0,127.0,127.0,127.0,-120.0,-89.0,112.0
129.0,130.0,127.0,128.0,128.0,125.0,128.0,128.0,-1.0,107.0,-70.0,127.0,127.0,127.0,-120.0,-89.0,112.0
129.0,130.0,127.0,127.0,127.0,124.0,126.0,125.0,-1.0,106.0,-70.0,127.0,127.0,127.0,-120.0,-89.0,112.0
130.0,131.0,126.0,128.0,127.0,125.0,127.0,128.0,-1.0,106.0,-70.0,127.0,127.0,127.0,-120.0,-89.0,112.0
130.0,131.0,126.0,128.0,127.0,125.0,127.0,128.0,-1.0,106.0,-70.0,127.0,127.0,127.0,-120.0,-89.0,112.0
130.0,130.0,126.0,128.0,127.0,125.0,127.0,129.0,-1.0,106.0,-70.0,127.0,127.0,127.0,-120.0,-89.0,112.0
130.0,130.0,126.0,128.0,127.0,125.0,127.0,129.0,-1.0,106.0,-70.0,127.0,127.0,127.0,-120.0,-89.0,112.0
130.0,130.0,126.0,127.0,127.0,125.0,126.0,129.0,-1.0,106.0,-70.0,127.0,127.0,127.0,-120.0,-89.0,112.0
130.0,130.0,126.0,128.0,127.0,125.0,126.0,128.0,-1.0,106.0,-70.0,127.0,127.0,127.0,-120.0,-89.0,112.0
130.0,130.0,127.0,128.0,127.0,124.0,126.0,127.0,-1.0,106.0,-70.0,127.0,127.0,127.0,-120.0,-89.0,112.0
130.0,130.0,127.0,127.0,127.0,124.0,126.0,127.0,-1.0,106.0,-70.0,127.0,127.0,127.0,-120.0,-89.0,112.0
129.0,130.0,127.0,127.0,127.0,124.0,126.0,126.0,-1.0,106.0,-70.0,127.0,127.0,127.0,-120.0,-89.0,112.0
128.0,128.0,126.0,127.0,127.0,125.0,125.0,123.0,-1.0,106.0,-69.0,127.0,127.0,127.0,-119.0,-89.0,112.0
128.0,129.0,126.0,127.0,127.0,125.0,125.0,123.0,-1.0,106.0,-69.0,127.0,127.0,127.0,-119.0,-89.0,112.0
128.0,129.0,126.0,127.0,127.0,125.0,125.0,123.0,-1.0,106.0,-69.0,127.0,127.0,127.0,-119.0,-89.0,112.0
128.0,129.0,126.0,127.0,127.0,125.0,125.0,123.0,-1.0,106.0,-69.0,127.0,127.0,127.0,-119.0,-89.0,112.0
129.0,129.0,127.0,128.0,127.0,125.0,126.0,123.0,-1.0,106.0,-69.0,127.0,127.0,127.0,-119.0,-89.0,112.0
129.0,129.0,127.0,128.0,127.0,125.0,126.0,123.0,-1.0,106.0,-69.0,127.0,127.0,127.0,-119.0,-89.0,112.0
129.0,129.0,127.0,128.0,127.0,125.0,126.0,122.0,-1.0,106.0,-69.0,127.0,127.0,127.0,-119.0,-89.0,112.0
129.0,129.0,127.0,128.0,127.0,125.0,126.0,122.0,-1.0,106.0,-69.0,127.0,127.0,127.0,-119.0,-89.0,112.0
130.0,129.0,127.0,128.0,127.0,125.0,126.0,122.0,-1.0,106.0,-69.0,127.0,127.0,127.0,-119.0,-89.0,112.0
130.0,129.0,127.0,128.0,127.0,125.0,126.0,122.0,-1.0,106.0,-69.0,127.0,127.0,127.0,-119.0,-89.0,112.0
129.0,132.0,127.0,128.0,127.0,125.0,127.0,122.0,-1.0,105.0,-69.0,127.0,127.0,127.0,-119.0,-89.0,112.0
130.0,132.0,127.0,128.0,127.0,125.0,127.0,122.0,-1.0,105.0,-69.0,127.0,127.0,127.0,-119.0,-89.0,112.0
130.0,133.0,127.0,128.0,127.0,125.0,127.0,122.0,-1.0,105.0,-69.0,127.0,127.0,127.0,-119.0,-89.0,112.0
130.0,133.0,127.0,128.0,127.0,125.0,127.0,122.0,-1.0,105.0,-69.0,127.0,127.0,127.0,-119.0,-89.0,112.0
130.0,133.0,127.0,127.0,127.0,125.0,127.0,122.0,-1.0,105.0,-69.0,127.0,127.0,127.0,-119.0,-89.0,112.0
130.0,134.0,127.0,127.0,127.0,125.0,127.0,122.0,-1.0,105.0,-69.0,127.0,127.0,127.0,-119.0,-89.0,112.0
130.0,134.0,127.0,127.0,127.0,125.0,128.0,123.0,-1.0,105.0,-69.0,127.0,127.0,127.0,-119.0,-89.0,112.0
130.0,134.0,127.0,127.0,127.0,125.0,128.0,123.0,-1.0,105.0,-69.0,127.0,127.0,127.0,-119.0,-89.0,112.0
130.0,134.0,127.0,127.0,127.0,124.0,128.0,123.0,-1.0,105.0,-69.0,127.0,127.0,127.0,-119.0,-89.0,112.0
129.0,131.0,127.0,128.0,127.0,125.0,127.0,122.0,-1.0,105.0,-69.0,127.0,127.0,127.0,-119.0,-89.0,112.0
129.0,130.0,127.0,128.0,127.0,125.0,126.0,122.0,-1.0,104.0,-68.0,127.0,127.0,127.0,-119.0,-89.0,112.0
129.0,130.0,127.0,128.0,127.0,125.0,125.0,122.0,-1.0,104.0,-68.0,127.0,127.0,127.0,-119.0,-89.0,112.0
129.0,130.0,127.0,128.0,127.0,125.0,124.0,122.0,-1.0,104.0,-68.0,127.0,127.0,127.0,-119.0,-89.0,112.0
129.0,130.0,127.0,128.0,127.0,125.0,124.0,122.0,-1.0,104.0,-68.0,127.0,127.0,127.0,-119.0,-89.0,112.0
128.0,129.0,127.0,128.0,127.0,125.0,124.0,122.0,-1.0,104.0,-68.0,127.0,127.0,127.0,-119.0,-89.0,112.0
128.0,129.0,127.0,128.0,127.0,125.0,125.0,121.0,-1.0,104.0,-68.0,127.0,127.0,127.0,-119.0,-89.0,112.0
128.0,129.0,127.0,127.0,128.0,125.0,125.0,121.0,-1.0,104.0,-68.0,127.0,127.0,127.0,-119.0,-89.0,112.0
127.0,129.0,127.0,127.0,128.0,125.0,125.0,121.0,-1.0,104.0,-68.0,127.0,127.0,127.0,-119.0,-89.0,112.0
129.0,129.0,127.0,128.0,127.0,125.0,127.0,123.0,-1.0,104.0,-68.0,127.0,127.0,127.0,-119.0,-89.0,112.0
129.0,130.0,127.0,128.0,127.0,125.0,126.0,123.0,-1.0,104.0,-68.0,127.0,127.0,127.0,-119.0,-89.0,112.0
128.0,128.0,126.0,127.0,127.0,126.0,126.0,120.0,-1.0,104.0,-67.0,127.0,127.0,127.0,-119.0,-89.0,112.0
128.0,128.0,126.0,127.0,127.0,126.0,126.0,120.0,-1.0,104.0,-67.0,127.0,127.0,127.0,-119.0,-89.0,112.0
128.0,128.0,127.0,127.0,127.0,126.0,126.0,121.0,-1.0,104.0,-67.0,127.0,127.0,127.0,-119.0,-89.0,112.0
128.0,128.0,127.0,127.0,127.0,126.0,126.0,121.0,-1.0,104.0,-67.0,127.0,127.0,127.0,-119.0,-89.0,112.0
128.0,128.0,127.0,127.0,127.0,126.0,126.0,121.0,-1.0,104.0,-67.0,127.0,127.0,127.0,-119.0,-89.0,112.0
128.0,128.0,127.0,127.0,127.0,126.0,126.0,120.0,-1.0,104.0,-67.0,127.0,127.0,127.0,-119.0,-89.0,112.0
128.0,128.0,127.0,127.0,127.0,126.0,126.0,120.0,-1.0,104.0,-67.0,127.0,127.0,127.0,-119.0,-89.0,112.0
128.0,128.0,126.0,127.0,127.0,126.0,126.0,120.0,-1.0,104.0,-67.0,127.0,127.0,127.0,-119.0,-89.0,112.0
128.0,128.0,126.0,127.0,127.0,126.0,125.0,120.0,-1.0,104.0,-67.0,127.0,127.0,127.0,-119.0,-89.0,112.0
128.0,128.0,126.0,127.0,126.0,126.0,126.0,120.0,-1.0,104.0,-67.0,127.0,127.0,127.0,-119.0,-89.0,112.0
128.0,130.0,127.0,128.0,126.0,125.0,126.0,123.0,-1.0,103.0,-67.0,127.0,127.0,127.0,-118.0,-89.0,112.0
128.0,130.0,127.0,128.0,126.0,125.0,127.0,123.0,-1.0,103.0,-67.0,127.0,127.0,127.0,-118.0,-89.0,112.0
128.0,130.0,127.0,128.0,126.0,125.0,127.0,123.0,-1.0,103.0,-67.0,127.0,127.0,127.0,-118.0,-89.0,112.0
128.0,130.0,127.0,128.0,127.0,125.0,127.0,123.0,-1.0,103.0,-67.0,127.0,127.0,127.0,-118.0,-89.0,112.0
127.0,130.0,127.0,128.0,127.0,125.0,126.0,122.0,-1.0,103.0,-67.0,127.0,127.0,127.0,-118.0,-89.0,112.0
127.0,130.0,127.0,128.0,127.0,125.0,126.0,122.0,-1.0,103.0,-67.0,127.0,127.0,127.0,-118.0,-89.0,112.0
128.0,129.0,127.0,127.0,126.0,125.0,127.0,122.0,-1.0,103.0,-67.0,127.0,127.0,127.0,-118.0,-89.0,112.0
128.0,129.0,127.0,127.0,126.0,125.0,126.0,123.0,-1.0,103.0,-67.0,127.0,127.0,127.0,-118.0,-89.0,112.0
128.0,129.0,127.0,127.0,126.0,125.0,126.0,123.0,-1.0,103.0,-67.0,127.0,127.0,127.0,-118.0,-89.0,112.0
128.0,130.0,127.0,127.0,126.0,125.0,126.0,123.0,-1.0,103.0,-67.0,127.0,127.0,127.0,-118.0,-89.0,112.0
128.0,131.0,127.0,128.0,126.0,126.0,126.0,125.0,-1.0,103.0,-66.0,127.0,127.0,127.0,-118.0,-89.0,112.0
128.0,131.0,126.0,128.0,126.0,126.0,126.0,125.0,-1.0,103.0,-66.0,127.0,127.0,127.0,-118.0,-89.0,112.0
128.0,131.0,127.0,128.0,127.0,126.0,126.0,125.0,-1.0,103.0,-66.0,127.0,127.0,127.0,-118.0,-89.0,112.0
128.0,131.0,127.0,128.0,127.0,126.0,126.0,125.0,-1.0,103.0,-66.0,127.0,127.0,127.0,-118.0,-89.0,112.0
128.0,131.0,127.0,128.0,127.0,126.0,126.0,125.0,-1.0,103.0,-66.0,127.0,127.0,127.0,-118.0,-89.0,112.0
128.0,130.0,127.0,127.0,127.0,126.0,125.0,125.0,-1.0,103.0,-66.0,127.0,127.0,127.0,-118.0,-89.0,112.0
129.0,130.0,127.0,127.0,126.0,126.0,125.0,125.0,-1.0,103.0,-66.0,127.0,127.0,127.0,-118.0,-89.0,112.0
129.0,130.0,126.0,128.0,126.0,127.0,125.0,126.0,-1.0,103.0,-66.0,127.0,127.0,127.0,-118.0,-89.0,112.0
128.0,130.0,126.0,128.0,126.0,127.0,125.0,126.0,-1.0,103.0,-66.0,127.0,127.0,127.0,-118.0,-89.0,112.0
128.0,130.0,126.0,128.0,126.0,126.0,125.0,125.0,-1.0,103.0,-66.0,127.0,127.0,127.0,-118.0,-89.0,112.0
128.0,129.0,127.0,128.0,127.0,126.0,124.0,126.0,-1.0,103.0,-66.0,127.0,127.0,127.0,-118.0,-89.0,112.0
128.0,129.0,127.0,128.0,127.0,126.0,124.0,126.0,-1.0,103.0,-66.0,127.0,127.0,127.0,-118.0,-89.0,112.0
128.0,129.0,127.0,128.0,127.0,126.0,124.0,126.0,-1.0,103.0,-66.0,127.0,127.0,127.0,-118.0,-89.0,112.0
128.0,129.0,127.0,128.0,127.0,126.0,124.0,126.0,-1.0,103.0,-66.0,127.0,127.0,127.0,-118.0,-89.0,112.0
127.0,129.0,126.0,127.0,126.0,125.0,124.0,123.0,-1.0,103.0,-66.0,127.0,127.0,127.0,-118.0,-89.0,112.0
128.0,129.0,127.0,127.0,126.0,125.0,124.0,124.0,-1.0,103.0,-66.0,127.0,127.0,127.0,-118.0,-89.0,112.0
128.0,129.0,127.0,127.0,127.0,125.0,124.0,124.0,-1.0,103.0,-66.0,127.0,127.0,127.0,-118.0,-89.0,112.0
128.0,129.0,127.0,127.0,127.0,125.0,124.0,124.0,-1.0,103.0,-66.0,127.0,127.0,127.0,-118.0,-89.0,112.0
128.0,129.0,127.0,127.0,127.0,125.0,124.0,125.0,-1.0,103.0,-66.0,127.0,127.0,127.0,-118.0,-89.0,112.0
128.0,129.0,126.0,128.0,127.0,126.0,124.0,125.0,-1.0,103.0,-66.0,127.0,127.0,127.0,-118.0,-89.0,112.0
126.0,130.0,127.0,128.0,127.0,126.0,123.0,125.0,-1.0,103.0,-66.0,127.0,127.0,127.0,-118.0,-89.0,112.0
126.0,130.0,127.0,127.0,127.0,126.0,123.0,125.0,-1.0,103.0,-66.0,127.0,127.0,127.0,-118.0,-89.0,112.0
126.0,130.0,127.0,127.0,127.0,126.0,123.0,125.0,-1.0,103.0,-66.0,127.0,127.0,127.0,-118.0,-89.0,112.0
126.0,130.0,126.0,127.0,126.0,127.0,123.0,124.0,-1.0,103.0,-66.0,127.0,127.0,127.0,-118.0,-89.0,112.0
126.0,130.0,126.0,128.0,126.0,127.0,123.0,124.0,-1.0,103.0,-66.0,127.0,127.0,127.0,-118.0,-89.0,112.0
126.0,130.0,127.0,127.0,126.0,127.0,123.0,124.0,-1.0,103.0,-66.0,127.0,127.0,127.0,-118.0,-89.0,112.0
126.0,130.0,127.0,127.0,126.0,127.0,123.0,124.0,-1.0,103.0,-66.0,127.0,127.0,127.0,-118.0,-89.0,112.0
126.0,130.0,127.0,127.0,126.0,126.0,123.0,125.0,-1.0,103.0,-66.0,127.0,127.0,127.0,-118.0,-89.0,112.0
126.0,130.0,127.0,127.0,126.0,126.0,123.0,125.0,-1.0,103.0,-66.0,127.0,127.0,127.0,-118.0,-89.0,112.0
126.0,130.0,127.0,127.0,126.0,126.0,123.0,125.0,-1.0,103.0,-66.0,127.0,127.0,127.0,-118.0,-89.0,112.0
125.0,130.0,127.0,128.0,127.0,127.0,122.0,124.0,-1.0,103.0,-66.0,127.0,127.0,127.0,-118.0,-89.0,112.0
125.0,130.0,127.0,128.0,127.0,127.0,122.0,124.0,-1.0,103.0,-66.0,127.0,127.0,127.0,-118.0,-89.0,112.0
125.0,130.0,127.0,128.0,127.0,127.0,121.0,124.0,-1.0,103.0,-66.0,127.0,127.0,127.0,-118.0,-89.0,112.0
125.0,130.0,127.0,128.0,127.0,127.0,121.0,124.0,-1.0,103.0,-66.0,127.0,127.0,127.0,-118.0,-89.0,112.0
125.0,130.0,127.0,128.0,127.0,127.0,121.0,124.0,-1.0,103.0,-66.0,127.0,127.0,127.0,-118.0,-89.0,112.0
125.0,130.0,127.0,128.0,127.0,127.0,122.0,124.0,-1.0,103.0,-66.0,127.0,127.0,127.0,-118.0,-89.0,112.0
125.0,130.0,127.0,128.0,127.0,127.0,122.0,124.0,-1.0,103.0,-66.0,127.0,127.0,127.0,-118.0,-89.0,112.0
125.0,130.0,127.0,128.0,127.0,127.0,122.0,124.0,-1.0,103.0,-66.0,127.0,127.0,127.0,-118.0,-89.0,112.0
125.0,130.0,127.0,128.0,127.0,127.0,122.0,124.0,-1.0,103.0,-66.0,127.0,127.0,127.0,-118.0,-89.0,112.0
125.0,130.0,127.0,128.0,127.0,127.0,122.0,124.0,-1.0,103.0,-66.0,127.0,127.0,127.0,-118.0,-89.0,112.0
124.0,130.0,127.0,128.0,127.0,127.0,123.0,123.0,-1.0,103.0,-66.0,127.0,127.0,127.0,-118.0,-89.0,112.0
124.0,130.0,127.0,128.0,127.0,128.0,123.0,123.0,-1.0,103.0,-66.0,127.0,127.0,127.0,-118.0,-89.0,112.0
124.0,130.0,127.0,128.0,127.0,128.0,123.0,123.0,-1.0,103.0,-66.0,127.0,127.0,127.0,-118.0,-89.0,112.0
124.0,130.0,127.0,128.0,127.0,128.0,122.0,123.0,-1.0,103.0,-66.0,127.0,127.0,127.0,-118.0,-89.0,112.0
124.0,130.0,127.0,128.0,127.0,128.0,122.0,123.0,-1.0,103.0,-66.0,127.0,127.0,127.0,-118.0,-89.0,112.0
124.0,130.0,127.0,128.0,127.0,128.0,122.0,123.0,-1.0,103.0,-66.0,127.0,127.0,127.0,-118.0,-89.0,112.0
124.0,130.0,127.0,128.0,127.0,128.0,123.0,123.0,-1.0,103.0,-66.0,127.0,127.0,127.0,-118.0,-89.0,112.0
124.0,130.0,127.0,128.0,127.0,127.0,123.0,123.0,-1.0,103.0,-66.0,127.0,127.0,127.0,-118.0,-89.0,112.0
124.0,130.0,127.0,128.0,127.0,127.0,123.0,123.0,-1.0,103.0,-66.0,127.0,127.0,127.0,-118.0,-89.0,112.0
124.0,130.0,127.0,128.0,127.0,127.0,123.0,123.0,-1.0,103.0,-66.0,127.0,127.0,127.0,-118.0,-89.0,112.0
122.0,127.0,128.0,129.0,127.0,127.0,118.0,122.0,-1.0,103.0,-66.0,127.0,127.0,127.0,-118.0,-89.0,112.0
122.0,127.0,128.0,129.0,127.0,127.0,117.0,122.0,-1.0,103.0,-66.0,127.0,127.0,127.0,-118.0,-89.0,112.0
122.0,127.0,128.0,129.0,127.0,127.0,117.0,122.0,-1.0,103.0,-66.0,127.0,127.0,127.0,-118.0,-89.0,112.0
122.0,127.0,128.0,129.0,127.0,127.0,117.0,122.0,-1.0,103.0,-66.0,127.0,127.0,127.0,-118.0,-89.0,112.0
122.0,127.0,128.0,129.0,127.0,127.0,117.0,122.0,-1.0,103.0,-66.0,127.0,127.0,127.0,-118.0,-89.0,112.0
122.0,127.0,128.0,129.0,127.0,127.0,117.0,122.0,-1.0,103.0,-66.0,127.0,127.0,127.0,-118.0,-89.0,112.0
122.0,127.0,128.0,129.0,127.0,127.0,117.0,122.0,-1.0,103.0,-66.0,127.0,127.0,127.0,-118.0,-89.0,112.0
122.0,127.0,128.0,129.0,127.0,127.0,118.0,122.0,-1.0,103.0,-66.0,127.0,127.0,127.0,-118.0,-89.0,112.0
121.0,127.0,128.0,129.0,127.0,127.0,118.0,122.0,-1.0,103.0,-66.0,127.0,127.0,127.0,-118.0,-89.0,112.0
121.0,127.0,129.0,129.0,127.0,127.0,118.0,122.0,-1.0,103.0,-66.0,127.0,127.0,127.0,-118.0,-89.0,112.0
121.0,125.0,129.0,128.0,126.0,129.0,112.0,121.0,-1.0,104.0,-67.0,127.0,127.0,127.0,-118.0,-89.0,112.0
121.0,125.0,129.0,128.0,126.0,129.0,112.0,121.0,-1.0,104.0,-67.0,127.0,127.0,127.0,-118.0,-89.0,112.0
121.0,125.0,129.0,128.0,126.0,129.0,112.0,121.0,-1.0,104.0,-67.0,127.0,127.0,127.0,-118.0,-89.0,112.0
121.0,125.0,129.0,128.0,126.0,129.0,112.0,121.0,-1.0,104.0,-67.0,127.0,127.0,127.0,-118.0,-89.0,112.0
121.0,125.0,129.0,128.0,126.0,129.0,112.0,121.0,-1.0,104.0,-67.0,127.0,127.0,127.0,-118.0,-89.0,112.0
120.0,124.0,129.0,128.0,127.0,129.0,112.0,121.0,-1.0,104.0,-67.0,127.0,127.0,127.0,-118.0,-89.0,112.0
120.0,124.0,129.0,128.0,127.0,129.0,112.0,121.0,-1.0,104.0,-67.0,127.0,127.0,127.0,-118.0,-89.0,112.0
120.0,124.0,129.0,128.0,127.0,129.0,112.0,121.0,-1.0,104.0,-67.0,127.0,127.0,127.0,-118.0,-89.0,112.0
120.0,124.0,129.0,128.0,127.0,129.0,112.0,121.0,-1.0,104.0,-67.0,127.0,127.0,127.0,-118.0,-89.0,112.0
121.0,125.0,129.0,128.0,126.0,129.0,112.0,121.0,-1.0,104.0,-67.0,127.0,127.0,127.0,-118.0,-89.0,112.0
121.0,124.0,129.0,128.0,126.0,130.0,116.0,123.0,-1.0,104.0,-67.0,127.0,127.0,127.0,-118.0,-89.0,112.0
121.0,124.0,129.0,128.0,126.0,130.0,116.0,123.0,-1.0,104.0,-67.0,127.0,127.0,127.0,-118.0,-89.0,112.0
121.0,124.0,129.0,128.0,126.0,130.0,116.0,123.0,-1.0,104.0,-67.0,127.0,127.0,127.0,-118.0,-89.0,112.0
121.0,124.0,129.0,128.0,126.0,130.0,116.0,123.0,-1.0,104.0,-67.0,127.0,127.0,127.0,-118.0,-89.0,112.0
121.0,123.0,129.0,127.0,127.0,130.0,116.0,123.0,-1.0,104.0,-67.0,127.0,127.0,127.0,-118.0,-89.0,112.0
120.0,123.0,129.0,127.0,126.0,130.0,116.0,123.0,-1.0,104.0,-67.0,127.0,127.0,127.0,-118.0,-89.0,112.0
120.0,123.0,129.0,127.0,127.0,130.0,116.0,123.0,-1.0,104.0,-67.0,127.0,127.0,127.0,-118.0,-89.0,112.0
120.0,123.0,129.0,127.0,127.0,129.0,116.0,123.0,-1.0,104.0,-67.0,127.0,127.0,127.0,-118.0,-89.0,112.0
121.0,124.0,129.0,128.0,126.0,130.0,116.0,123.0,-1.0,104.0,-67.0,127.0,127.0,127.0,-118.0,-89.0,112.0
121.0,124.0,129.0,128.0,126.0,130.0,116.0,123.0,-1.0,104.0,-67.0,127.0,127.0,127.0,-118.0,-89.0,112.0
121.0,123.0,129.0,127.0,127.0,131.0,125.0,124.0,-1.0,104.0,-67.0,127.0,127.0,127.0,-118.0,-89.0,112.0
121.0,123.0,129.0,127.0,127.0,131.0,125.0,124.0,-1.0,104.0,-67.0,127.0,127.0,127.0,-118.0,-89.0,112.0
121.0,123.0,128.0,127.0,127.0,131.0,125.0,124.0,-1.0,104.0,-67.0,127.0,127.0,127.0,-118.0,-89.0,112.0
121.0,123.0,128.0,127.0,127.0,131.0,125.0,123.0,-1.0,104.0,-67.0,127.0,127.0,127.0,-118.0,-89.0,112.0
121.0,123.0,128.0,127.0,127.0,131.0,125.0,123.0,-1.0,104.0,-67.0,127.0,127.0,127.0,-118.0,-89.0,112.0
121.0,123.0,129.0,127.0,127.0,131.0,126.0,123.0,-1.0,104.0,-67.0,127.0,127.0,127.0,-118.0,-89.0,112.0
121.0,123.0,129.0,127.0,127.0,130.0,126.0,123.0,-1.0,104.0,-67.0,127.0,127.0,127.0,-118.0,-89.0,112.0
121.0,123.0,128.0,127.0,126.0,131.0,124.0,124.0,-1.0,104.0,-67.0,127.0,127.0,127.0,-118.0,-89.0,112.0
121.0,123.0,129.0,127.0,126.0,131.0,125.0,124.0,-1.0,104.0,-67.0,127.0,127.0,127.0,-118.0,-89.0,112.0
121.0,123.0,129.0,127.0,127.0,131.0,125.0,124.0,-1.0,104.0,-67.0,127.0,127.0,127.0,-118.0,-89.0,112.0
122.0,123.0,128.0,127.0,127.0,131.0,128.0,118.0,-1.0,104.0,-68.0,127.0,127.0,127.0,-118.0,-89.0,112.0
122.0,123.0,128.0,127.0,127.0,131.0,129.0,118.0,-1.0,104.0,-68.0,127.0,127.0,127.0,-118.0,-89.0,112.0
122.0,123.0,128.0,127.0,127.0,130.0,129.0,118.0,-1.0,104.0,-68.0,127.0,127.0,127.0,-118.0,-89.0,112.0
122.0,123.0,128.0,127.0,127.0,130.0,129.0,118.0,-1.0,104.0,-68.0,127.0,127.0,127.0,-118.0,-89.0,112.0
122.0,123.0,128.0,127.0,127.0,129.0,129.0,117.0,-1.0,104.0,-68.0,127.0,127.0,127.0,-118.0,-89.0,112.0
122.0,123.0,128.0,127.0,127.0,129.0,129.0,117.0,-1.0,104.0,-68.0,127.0,127.0,127.0,-118.0,-89.0,112.0
121.0,123.0,128.0,127.0,127.0,131.0,129.0,119.0,-1.0,104.0,-68.0,127.0,127.0,127.0,-118.0,-89.0,112.0
122.0,123.0,128.0,127.0,127.0,131.0,129.0,119.0,-1.0,104.0,-68.0,127.0,127.0,127.0,-118.0,-89.0,112.0
122.0,123.0,128.0,127.0,127.0,131.0,129.0,118.0,-1.0,104.0,-68.0,127.0,127.0,127.0,-118.0,-89.0,112.0
122.0,123.0,128.0,127.0,127.0,132.0,129.0,118.0,-1.0,104.0,-68.0,127.0,127.0,127.0,-118.0,-89.0,112.0
123.0,122.0,127.0,127.0,127.0,130.0,127.0,119.0,-1.0,104.0,-68.0,127.0,127.0,127.0,-118.0,-89.0,112.0
123.0,122.0,127.0,126.0,127.0,130.0,127.0,119.0,-1.0,104.0,-68.0,127.0,127.0,127.0,-118.0,-89.0,112.0
123.0,122.0,127.0,126.0,127.0,130.0,127.0,119.0,-1.0,104.0,-68.0,127.0,127.0,127.0,-118.0,-89.0,112.0
123.0,122.0,127.0,126.0,127.0,129.0,127.0,120.0,-1.0,104.0,-68.0,127.0,127.0,127.0,-118.0,-89.0,112.0
123.0,122.0,127.0,126.0,127.0,129.0,127.0,120.0,-1.0,104.0,-68.0,127.0,127.0,127.0,-118.0,-89.0,112.0
123.0,122.0,127.0,127.0,127.0,130.0,127.0,119.0,-1.0,104.0,-68.0,127.0,127.0,127.0,-118.0,-89.0,112.0
123.0,122.0,127.0,127.0,127.0,130.0,127.0,119.0,-1.0,104.0,-68.0,127.0,127.0,127.0,-118.0,-89.0,112.0
123.0,122.0,127.0,127.0,127.0,130.0,127.0,119.0,-1.0,104.0,-68.0,127.0,127.0,127.0,-118.0,-89.0,112.0
123.0,122.0,127.0,127.0,127.0,130.0,127.0,119.0,-1.0,104.0,-68.0,127.0,127.0,127.0,-118.0,-89.0,112.0
123.0,122.0,127.0,127.0,127.0,130.0,127.0,119.0,-1.0,104.0,-68.0,127.0,127.0,127.0,-118.0,-89.0,112.0
124.0,123.0,127.0,127.0,127.0,130.0,128.0,125.0,-1.0,104.0,-68.0,127.0,127.0,127.0,-118.0,-89.0,112.0
124.0,123.0,127.0,127.0,127.0,130.0,128.0,125.0,-1.0,104.0,-68.0,127.0,127.0,127.0,-118.0,-89.0,112.0
124.0,123.0,127.0,127.0,127.0,130.0,128.0,126.0,-1.0,104.0,-68.0,127.0,127.0,127.0,-118.0,-89.0,112.0
124.0,123.0,127.0,127.0,128.0,130.0,128.0,126.0,-1.0,104.0,-68.0,127.0,127.0,127.0,-118.0,-89.0,112.0
124.0,123.0,126.0,127.0,127.0,130.0,127.0,125.0,-1.0,104.0,-68.0,127.0,127.0,127.0,-118.0,-89.0,112.0
124.0,123.0,126.0,127.0,127.0,130.0,127.0,125.0,-1.0,104.0,-68.0,127.0,127.0,127.0,-118.0,-89.0,112.0
124.0,123.0,126.0,127.0,127.0,130.0,127.0,125.0,-1.0,104.0,-68.0,127.0,127.0,127.0,-118.0,-89.0,112.0
124.0,123.0,126.0,127.0,127.0,130.0,127.0,125.0,-1.0,104.0,-68.0,127.0,127.0,127.0,-118.0,-89.0,112.0
124.0,123.0,126.0,127.0,127.0,130.0,128.0,125.0,-1.0,104.0,-68.0,127.0,127.0,127.0,-118.0,-89.0,112.0
124.0,123.0,127.0,127.0,127.0,130.0,128.0,125.0,-1.0,104.0,-68.0,127.0,127.0,127.0,-118.0,-89.0,112.0
122.0,123.0,126.0,127.0,127.0,129.0,129.0,131.0,-1.0,104.0,-67.0,127.0,127.0,127.0,-118.0,-89.0,112.0
122.0,123.0,126.0,126.0,127.0,129.0,129.0,132.0,-1.0,104.0,-67.0,127.0,127.0,127.0,-118.0,-89.0,112.0
122.0,123.0,126.0,126.0,127.0,129.0,129.0,132.0,-1.0,104.0,-67.0,127.0,127.0,127.0,-118.0,-89.0,112.0
122.0,123.0,126.0,127.0,127.0,130.0,129.0,131.0,-1.0,104.0,-67.0,127.0,127.0,127.0,-118.0,-89.0,112.0
122.0,123.0,126.0,127.0,127.0,130.0,129.0,131.0,-1.0,104.0,-67.0,127.0,127.0,127.0,-118.0,-89.0,112.0
122.0,123.0,126.0,127.0,127.0,130.0,129.0,131.0,-1.0,104.0,-67.0,127.0,127.0,127.0,-118.0,-89.0,112.0
122.0,123.0,126.0,127.0,127.0,130.0,129.0,131.0,-1.0,104.0,-67.0,127.0,127.0,127.0,-118.0,-89.0,112.0
122.0,123.0,126.0,127.0,127.0,130.0,129.0,131.0,-1.0,104.0,-67.0,127.0,127.0,127.0,-118.0,-89.0,112.0
122.0,123.0,126.0,127.0,127.0,130.0,129.0,131.0,-1.0,104.0,-67.0,127.0,127.0,127.0,-118.0,-89.0,112.0
122.0,123.0,126.0,127.0,127.0,129.0,129.0,131.0,-1.0,104.0,-67.0,127.0,127.0,127.0,-118.0,-89.0,112.0
123.0,124.0,126.0,126.0,128.0,129.0,132.0,135.0,-1.0,104.0,-67.0,127.0,127.0,127.0,-118.0,-89.0,112.0
123.0,124.0,127.0,126.0,128.0,129.0,132.0,135.0,-1.0,104.0,-67.0,127.0,127.0,127.0,-118.0,-89.0,112.0
123.0,124.0,126.0,126.0,128.0,128.0,131.0,135.0,-1.0,104.0,-67.0,127.0,127.0,127.0,-118.0,-89.0,112.0
123.0,124.0,126.0,126.0,128.0,128.0,132.0,135.0,-1.0,104.0,-67.0,127.0,127.0,127.0,-118.0,-89.0,112.0
123.0,124.0,126.0,126.0,128.0,128.0,132.0,135.0,-1.0,104.0,-67.0,127.0,127.0,127.0,-118.0,-89.0,112.0
123.0,124.0,126.0,126.0,128.0,128.0,132.0,135.0,-1.0,104.0,-67.0,127.0,127.0,127.0,-118.0,-89.0,112.0
123.0,124.0,126.0,126.0,128.0,128.0,132.0,135.0,-1.0,104.0,-67.0,127.0,127.0,127.0,-118.0,-89.0,112.0
123.0,124.0,126.0,126.0,128.0,129.0,132.0,135.0,-1.0,104.0,-67.0,127.0,127.0,127.0,-118.0,-89.0,112.0
123.0,124.0,126.0,126.0,128.0,129.0,132.0,135.0,-1.0,104.0,-67.0,127.0,127.0,127.0,-118.0,-89.0,112.0
123.0,124.0,126.0,126.0,128.0,129.0,132.0,135.0,-1.0,104.0,-67.0,127.0,127.0,127.0,-118.0,-89.0,112.0
123.0,126.0,127.0,126.0,128.0,128.0,129.0,136.0,-1.0,104.0,-67.0,127.0,127.0,127.0,-118.0,-89.0,112.0
123.0,126.0,127.0,126.0,128.0,131.0,130.0,137.0,-1.0,104.0,-67.0,127.0,127.0,127.0,-118.0,-89.0,112.0
123.0,126.0,127.0,126.0,128.0,130.0,130.0,136.0,-1.0,104.0,-67.0,127.0,127.0,127.0,-118.0,-89.0,112.0
123.0,126.0,127.0,126.0,128.0,130.0,130.0,136.0,-1.0,104.0,-67.0,127.0,127.0,127.0,-118.0,-89.0,112.0
123.0,126.0,127.0,126.0,128.0,130.0,130.0,136.0,-1.0,104.0,-67.0,127.0,127.0,127.0,-118.0,-89.0,112.0
123.0,126.0,127.0,126.0,128.0,130.0,130.0,136.0,-1.0,104.0,-67.0,127.0,127.0,127.0,-118.0,-89.0,112.0
123.0,126.0,127.0,126.0,128.0,129.0,130.0,136.0,-1.0,104.0,-67.0,127.0,127.0,127.0,-118.0,-89.0,112.0
123.0,126.0,127.0,126.0,128.0,129.0,130.0,136.0,-1.0,104.0,-67.0,127.0,127.0,127.0,-118.0,-89.0,112.0
123.0,126.0,127.0,126.0,128.0,129.0,129.0,136.0,-1.0,104.0,-67.0,127.0,127.0,127.0,-118.0,-89.0,112.0
123.0,126.0,127.0,126.0,128.0,129.0,129.0,136.0,-1.0,104.0,-67.0,127.0,127.0,127.0,-118.0,-89.0,112.0
123.0,125.0,127.0,126.0,127.0,130.0,127.0,136.0,-1.0,105.0,-67.0,127.0,127.0,127.0,-118.0,-89.0,112.0
123.0,125.0,127.0,126.0,127.0,130.0,126.0,136.0,-1.0,105.0,-67.0,127.0,127.0,127.0,-118.0,-89.0,112.0
123.0,125.0,127.0,126.0,127.0,130.0,126.0,136.0,-1.0,105.0,-67.0,127.0,127.0,127.0,-118.0,-89.0,112.0
123.0,125.0,127.0,126.0,127.0,129.0,126.0,136.0,-1.0,105.0,-67.0,127.0,127.0,127.0,-118.0,-89.0,112.0
123.0,125.0,127.0,126.0,127.0,129.0,126.0,136.0,-1.0,105.0,-67.0,127.0,127.0,127.0,-118.0,-89.0,112.0
123.0,125.0,127.0,126.0,127.0,129.0,127.0,136.0,-1.0,105.0,-67.0,127.0,127.0,127.0,-118.0,-89.0,112.0
123.0,125.0,127.0,126.0,127.0,129.0,127.0,136.0,-1.0,105.0,-67.0,127.0,127.0,127.0,-118.0,-89.0,112.0
123.0,125.0,127.0,126.0,127.0,128.0,127.0,136.0,-1.0,105.0,-67.0,127.0,127.0,127.0,-118.0,-89.0,112.0
123.0,125.0,127.0,126.0,127.0,128.0,127.0,136.0,-1.0,105.0,-67.0,127.0,127.0,127.0,-118.0,-89.0,112.0
123.0,125.0,127.0,126.0,127.0,128.0,127.0,136.0,-1.0,105.0,-67.0,127.0,127.0,127.0,-118.0,-89.0,112.0
124.0,126.0,126.0,125.0,127.0,128.0,129.0,137.0,-1.0,105.0,-67.0,127.0,127.0,127.0,-118.0,-89.0,112.0
124.0,126.0,126.0,125.0,127.0,128.0,129.0,137.0,-1.0,105.0,-67.0,127.0,127.0,127.0,-118.0,-89.0,112.0
124.0,125.0,126.0,125.0,127.0,128.0,129.0,137.0,-1.0,105.0,-67.0,127.0,127.0,127.0,-118.0,-89.0,112.0
124.0,125.0,126.0,125.0,127.0,128.0,129.0,137.0,-1.0,105.0,-67.0,127.0,127.0,127.0,-118.0,-89.0,112.0
124.0,125.0,126.0,125.0,127.0,128.0,129.0,137.0,-1.0,105.0,-67.0,127.0,127.0,127.0,-118.0,-89.0,112.0
124.0,125.0,126.0,125.0,127.0,128.0,129.0,137.0,-1.0,105.0,-67.0,127.0,127.0,127.0,-118.0,-89.0,112.0
124.0,125.0,126.0,125.0,127.0,128.0,129.0,137.0,-1.0,105.0,-67.0,127.0,127.0,127.0,-118.0,-89.0,112.0
124.0,125.0,126.0,125.0,127.0,128.0,129.0,137.0,-1.0,105.0,-67.0,127.0,127.0,127.0,-118.0,-89.0,112.0
124.0,125.0,126.0,125.0,127.0,128.0,129.0,137.0,-1.0,105.0,-67.0,127.0,127.0,127.0,-118.0,-89.0,112.0
124.0,126.0,126.0,125.0,127.0,128.0,129.0,137.0,-1.0,105.0,-67.0,127.0,127.0,127.0,-118.0,-89.0,112.0
124.0,125.0,125.0,123.0,127.0,131.0,128.0,138.0,-1.0,106.0,-67.0,127.0,127.0,127.0,-118.0,-89.0,112.0
124.0,125.0,125.0,123.0,127.0,131.0,128.0,138.0,-1.0,106.0,-67.0,127.0,127.0,127.0,-118.0,-89.0,112.0
124.0,125.0,125.0,123.0,127.0,130.0,129.0,138.0,-1.0,106.0,-67.0,127.0,127.0,127.0,-118.0,-89.0,112.0
124.0,125.0,125.0,123.0,127.0,130.0,129.0,138.0,-1.0,106.0,-67.0,127.0,127.0,127.0,-118.0,-89.0,112.0
124.0,125.0,125.0,123.0,127.0,130.0,129.0,138.0,-1.0,106.0,-67.0,127.0,127.0,127.0,-118.0,-89.0,112.0
124.0,126.0,125.0,123.0,127.0,130.0,129.0,138.0,-1.0,106.0,-67.0,127.0,127.0,127.0,-118.0,-89.0,112.0
124.0,126.0,125.0,123.0,127.0,130.0,128.0,138.0,-1.0,106.0,-67.0,127.0,127.0,127.0,-118.0,-89.0,112.0
124.0,126.0,125.0,123.0,127.0,130.0,128.0,138.0,-1.0,106.0,-67.0,127.0,127.0,127.0,-118.0,-89.0,112.0
124.0,125.0,125.0,123.0,127.0,130.0,128.0,138.0,-1.0,106.0,-67.0,127.0,127.0,127.0,-118.0,-89.0,112.0
124.0,125.0,125.0,123.0,127.0,130.0,128.0,138.0,-1.0,106.0,-67.0,127.0,127.0,127.0,-118.0,-89.0,112.0
124.0,125.0,125.0,121.0,126.0,129.0,125.0,135.0,-1.0,106.0,-67.0,127.0,127.0,127.0,-118.0,-89.0,112.0
124.0,125.0,125.0,121.0,127.0,129.0,125.0,135.0,-1.0,106.0,-67.0,127.0,127.0,127.0,-118.0,-89.0,112.0
124.0,125.0,125.0,121.0,127.0,129.0,125.0,135.0,-1.0,106.0,-67.0,127.0,127.0,127.0,-118.0,-89.0,112.0
123.0,125.0,125.0,121.0,127.0,129.0,125.0,135.0,-1.0,106.0,-67.0,127.0,127.0,127.0,-118.0,-89.0,112.0
124.0,125.0,125.0,121.0,127.0,129.0,125.0,134.0,-1.0,106.0,-67.0,127.0,127.0,127.0,-118.0,-89.0,112.0
124.0,125.0,125.0,121.0,126.0,130.0,124.0,135.0,-1.0,106.0,-67.0,127.0,127.0,127.0,-118.0,-89.0,112.0
124.0,125.0,125.0,121.0,126.0,130.0,124.0,135.0,-1.0,106.0,-67.0,127.0,127.0,127.0,-118.0,-89.0,112.0
123.0,125.0,125.0,121.0,127.0,128.0,125.0,134.0,-1.0,106.0,-67.0,127.0,127.0,127.0,-118.0,-89.0,112.0
124.0,125.0,124.0,121.0,126.0,129.0,125.0,134.0,-1.0,106.0,-67.0,127.0,127.0,127.0,-118.0,-89.0,112.0
124.0,126.0,124.0,121.0,126.0,129.0,125.0,135.0,-1.0,106.0,-67.0,127.0,127.0,127.0,-118.0,-89.0,112.0
123.0,126.0,128.0,123.0,127.0,130.0,130.0,135.0,-1.0,106.0,-67.0,127.0,127.0,127.0,-118.0,-89.0,112.0
123.0,126.0,128.0,123.0,127.0,130.0,130.0,135.0,-1.0,106.0,-67.0,127.0,127.0,127.0,-118.0,-89.0,112.0
123.0,126.0,128.0,123.0,127.0,130.0,130.0,135.0,-1.0,106.0,-67.0,127.0,127.0,127.0,-118.0,-89.0,112.0
123.0,126.0,128.0,124.0,127.0,130.0,130.0,135.0,-1.0,106.0,-67.0,127.0,127.0,127.0,-118.0,-89.0,112.0
123.0,126.0,128.0,124.0,127.0,131.0,129.0,135.0,-1.0,106.0,-67.0,127.0,127.0,127.0,-118.0,-89.0,112.0
123.0,126.0,128.0,124.0,127.0,131.0,129.0,135.0,-1.0,106.0,-67.0,127.0,127.0,127.0,-118.0,-89.0,112.0
123.0,125.0,128.0,123.0,127.0,129.0,131.0,134.0,-1.0,106.0,-67.0,127.0,127.0,127.0,-118.0,-89.0,112.0
123.0,125.0,128.0,123.0,127.0,129.0,131.0,134.0,-1.0,106.0,-67.0,127.0,127.0,127.0,-118.0,-89.0,112.0
123.0,126.0,128.0,123.0,127.0,130.0,130.0,135.0,-1.0,106.0,-67.0,127.0,127.0,127.0,-118.0,-89.0,112.0
123.0,126.0,128.0,123.0,127.0,130.0,130.0,135.0,-1.0,106.0,-67.0,127.0,127.0,127.0,-118.0,-89.0,112.0
124.0,127.0,129.0,124.0,127.0,135.0,128.0,136.0,-1.0,106.0,-67.0,127.0,127.0,127.0,-118.0,-89.0,112.0
124.0,127.0,129.0,124.0,127.0,135.0,128.0,136.0,-1.0,106.0,-67.0,127.0,127.0,127.0,-118.0,-89.0,112.0
124.0,127.0,129.0,124.0,127.0,134.0,128.0,136.0,-1.0,106.0,-67.0,127.0,127.0,127.0,-118.0,-89.0,112.0
124.0,127.0,129.0,124.0,127.0,134.0,128.0,137.0,-1.0,106.0,-67.0,127.0,127.0,127.0,-118.0,-89.0,112.0
124.0,127.0,129.0,124.0,127.0,134.0,128.0,136.0,-1.0,106.0,-67.0,127.0,127.0,127.0,-118.0,-89.0,112.0
124.0,127.0,129.0,124.0,127.0,135.0,128.0,136.0,-1.0,106.0,-67.0,127.0,127.0,127.0,-118.0,-89.0,112.0
124.0,127.0,129.0,124.0,127.0,135.0,128.0,136.0,-1.0,106.0,-67.0,127.0,127.0,127.0,-118.0,-89.0,112.0
124.0,126.0,129.0,124.0,127.0,134.0,129.0,136.0,-1.0,106.0,-67.0,127.0,127.0,127.0,-118.0,-89.0,112.0
124.0,127.0,129.0,124.0,127.0,134.0,129.0,136.0,-1.0,106.0,-67.0,127.0,127.0,127.0,-118.0,-89.0,112.0
124.0,127.0,129.0,124.0,127.0,134.0,129.0,136.0,-1.0,106.0,-67.0,127.0,127.0,127.0,-118.0,-89.0,112.0
126.0,128.0,129.0,126.0,127.0,136.0,130.0,139.0,-1.0,105.0,-66.0,127.0,127.0,127.0,-118.0,-89.0,112.0
126.0,128.0,129.0,126.0,127.0,136.0,130.0,139.0,-1.0,105.0,-66.0,127.0,127.0,127.0,-118.0,-89.0,112.0
126.0,128.0,129.0,126.0,128.0,136.0,131.0,138.0,-1.0,105.0,-66.0,127.0,127.0,127.0,-118.0,-89.0,112.0
126.0,128.0,129.0,125.0,128.0,136.0,131.0,138.0,-1.0,105.0,-66.0,127.0,127.0,127.0,-118.0,-89.0,112.0
125.0,128.0,129.0,125.0,127.0,135.0,130.0,138.0,-1.0,105.0,-66.0,127.0,127.0,127.0,-118.0,-89.0,112.0
125.0,128.0,129.0,125.0,127.0,135.0,130.0,138.0,-1.0,105.0,-66.0,127.0,127.0,127.0,-118.0,-89.0,112.0
125.0,128.0,129.0,125.0,128.0,134.0,130.0,138.0,-1.0,105.0,-66.0,127.0,127.0,127.0,-118.0,-89.0,112.0
125.0,128.0,129.0,125.0,127.0,135.0,130.0,138.0,-1.0,105.0,-66.0,127.0,127.0,127.0,-118.0,-89.0,112.0
126.0,128.0,129.0,125.0,127.0,135.0,130.0,138.0,-1.0,105.0,-66.0,127.0,127.0,127.0,-118.0,-89.0,112.0
126.0,128.0,129.0,125.0,127.0,135.0,130.0,139.0,-1.0,105.0,-66.0,127.0,127.0,127.0,-118.0,-89.0,112.0
126.0,129.0,129.0,126.0,128.0,138.0,137.0,136.0,-1.0,105.0,-66.0,127.0,127.0,127.0,-118.0,-89.0,112.0
126.0,129.0,128.0,126.0,128.0,138.0,137.0,136.0,-1.0,105.0,-66.0,127.0,127.0,127.0,-118.0,-89.0,112.0
126.0,129.0,129.0,126.0,128.0,139.0,137.0,137.0,-1.0,105.0,-66.0,127.0,127.0,127.0,-118.0,-89.0,112.0
126.0,129.0,129.0,126.0,128.0,137.0,137.0,137.0,-1.0,105.0,-66.0,127.0,127.0,127.0,-118.0,-89.0,112.0
126.0,129.0,129.0,126.0,128.0,138.0,137.0,137.0,-1.0,105.0,-66.0,127.0,127.0,127.0,-118.0,-89.0,112.0
126.0,129.0,129.0,126.0,128.0,138.0,137.0,136.0,-1.0,105.0,-66.0,127.0,127.0,127.0,-118.0,-89.0,112.0
126.0,129.0,129.0,126.0,128.0,138.0,137.0,136.0,-1.0,105.0,-66.0,127.0,127.0,127.0,-118.0,-89.0,112.0
126.0,129.0,129.0,126.0,128.0,138.0,137.0,136.0,-1.0,105.0,-66.0,127.0,127.0,127.0,-118.0,-89.0,112.0
126.0,129.0,129.0,126.0,128.0,138.0,137.0,136.0,-1.0,105.0,-66.0,127.0,127.0,127.0,-118.0,-89.0,112.0
126.0,129.0,129.0,126.0,128.0,138.0,137.0,136.0,-1.0,105.0,-66.0,127.0,127.0,127.0,-118.0,-89.0,112.0
126.0,130.0,128.0,126.0,127.0,136.0,136.0,137.0,-1.0,106.0,-67.0,127.0,127.0,127.0,-118.0,-89.0,112.0
126.0,130.0,128.0,126.0,127.0,136.0,136.0,137.0,-1.0,106.0,-67.0,127.0,127.0,127.0,-118.0,-89.0,112.0
126.0,130.0,128.0,126.0,127.0,137.0,137.0,137.0,-1.0,106.0,-67.0,127.0,127.0,127.0,-118.0,-89.0,112.0
126.0,130.0,128.0,126.0,127.0,137.0,137.0,137.0,-1.0,106.0,-67.0,127.0,127.0,127.0,-118.0,-89.0,112.0
126.0,130.0,128.0,126.0,127.0,137.0,137.0,137.0,-1.0,106.0,-67.0,127.0,127.0,127.0,-118.0,-89.0,112.0
126.0,130.0,128.0,126.0,127.0,137.0,137.0,137.0,-1.0,106.0,-67.0,127.0,127.0,127.0,-118.0,-89.0,112.0
126.0,130.0,128.0,126.0,127.0,137.0,137.0,137.0,-1.0,106.0,-67.0,127.0,127.0,127.0,-118.0,-89.0,112.0
126.0,130.0,128.0,126.0,127.0,137.0,137.0,137.0,-1.0,106.0,-67.0,127.0,127.0,127.0,-118.0,-89.0,112.0
126.0,130.0,128.0,126.0,127.0,136.0,137.0,137.0,-1.0,106.0,-67.0,127.0,127.0,127.0,-118.0,-89.0,112.0
126.0,130.0,128.0,126.0,127.0,136.0,137.0,137.0,-1.0,106.0,-67.0,127.0,127.0,127.0,-118.0,-89.0,112.0
126.0,130.0,128.0,126.0,127.0,136.0,130.0,137.0,-1.0,106.0,-67.0,127.0,127.0,127.0,-118.0,-89.0,112.0
127.0,130.0,127.0,126.0,127.0,138.0,131.0,137.0,-1.0,106.0,-67.0,127.0,127.0,127.0,-118.0,-89.0,112.0
127.0,130.0,127.0,125.0,127.0,138.0,130.0,137.0,-1.0,106.0,-67.0,127.0,127.0,127.0,-118.0,-89.0,112.0
127.0,130.0,127.0,126.0,127.0,137.0,130.0,137.0,-1.0,106.0,-67.0,127.0,127.0,127.0,-118.0,-89.0,112.0
127.0,130.0,127.0,126.0,127.0,137.0,130.0,137.0,-1.0,106.0,-67.0,127.0,127.0,127.0,-118.0,-89.0,112.0
126.0,130.0,127.0,126.0,127.0,137.0,130.0,137.0,-1.0,106.0,-67.0,127.0,127.0,127.0,-118.0,-89.0,112.0
126.0,130.0,128.0,126.0,127.0,137.0,130.0,137.0,-1.0,106.0,-67.0,127.0,127.0,127.0,-118.0,-89.0,112.0
126.0,130.0,128.0,126.0,127.0,136.0,130.0,137.0,-1.0,106.0,-67.0,127.0,127.0,127.0,-118.0,-89.0,112.0
126.0,130.0,128.0,126.0,127.0,136.0,130.0,137.0,-1.0,106.0,-67.0,127.0,127.0,127.0,-118.0,-89.0,112.0
126.0,130.0,128.0,126.0,127.0,136.0,130.0,137.0,-1.0,106.0,-67.0,127.0,127.0,127.0,-118.0,-89.0,112.0
126.0,130.0,127.0,125.0,126.0,134.0,129.0,136.0,-1.0,107.0,-67.0,127.0,127.0,127.0,-118.0,-89.0,112.0
126.0,130.0,127.0,125.0,126.0,135.0,129.0,136.0,-1.0,107.0,-67.0,127.0,127.0,127.0,-118.0,-89.0,112.0
126.0,130.0,127.0,125.0,126.0,135.0,129.0,137.0,-1.0,107.0,-67.0,127.0,127.0,127.0,-118.0,-89.0,112.0
126.0,130.0,127.0,125.0,126.0,135.0,128.0,137.0,-1.0,107.0,-67.0,127.0,127.0,127.0,-118.0,-89.0,112.0
126.0,130.0,127.0,125.0,126.0,135.0,128.0,137.0,-1.0,107.0,-67.0,127.0,127.0,127.0,-118.0,-89.0,112.0
126.0,130.0,127.0,125.0,126.0,135.0,128.0,137.0,-1.0,107.0,-67.0,127.0,127.0,127.0,-118.0,-89.0,112.0
126.0,130.0,127.0,125.0,126.0,135.0,128.0,137.0,-1.0,107.0,-67.0,127.0,127.0,127.0,-118.0,-89.0,112.0
126.0,130.0,127.0,125.0,126.0,135.0,128.0,137.0,-1.0,107.0,-67.0,127.0,127.0,127.0,-118.0,-89.0,112.0
126.0,130.0,127.0,125.0,126.0,135.0,128.0,136.0,-1.0,107.0,-67.0,127.0,127.0,127.0,-118.0,-89.0,112.0
126.0,130.0,127.0,125.0,126.0,136.0,128.0,137.0,-1.0,107.0,-67.0,127.0,127.0,127.0,-118.0,-89.0,112.0
126.0,130.0,127.0,125.0,126.0,135.0,127.0,136.0,-1.0,107.0,-67.0,127.0,127.0,127.0,-118.0,-89.0,112.0
126.0,130.0,127.0,125.0,126.0,135.0,128.0,136.0,-1.0,107.0,-67.0,127.0,127.0,127.0,-118.0,-89.0,112.0
126.0,130.0,127.0,125.0,126.0,135.0,127.0,136.0,-1.0,107.0,-67.0,127.0,127.0,127.0,-118.0,-89.0,112.0
126.0,130.0,127.0,125.0,127.0,135.0,127.0,136.0,-1.0,107.0,-67.0,127.0,127.0,127.0,-118.0,-89.0,112.0
126.0,130.0,127.0,125.0,127.0,135.0,127.0,136.0,-1.0,107.0,-67.0,127.0,127.0,127.0,-118.0,-89.0,112.0
126.0,130.0,127.0,125.0,127.0,134.0,127.0,136.0,-1.0,107.0,-67.0,127.0,127.0,127.0,-118.0,-89.0,112.0
126.0,130.0,127.0,125.0,127.0,134.0,127.0,136.0,-1.0,107.0,-67.0,127.0,127.0,127.0,-118.0,-89.0,112.0
126.0,130.0,127.0,125.0,127.0,134.0,127.0,136.0,-1.0,107.0,-67.0,127.0,127.0,127.0,-118.0,-89.0,112.0
126.0,130.0,127.0,125.0,127.0,134.0,128.0,136.0,-1.0,107.0,-67.0,127.0,127.0,127.0,-118.0,-89.0,112.0
126.0,130.0,127.0,125.0,126.0,135.0,127.0,136.0,-1.0,107.0,-67.0,127.0,127.0,127.0,-118.0,-89.0,112.0
127.0,130.0,126.0,125.0,126.0,134.0,129.0,135.0,-1.0,108.0,-67.0,127.0,127.0,127.0,-118.0,-89.0,112.0
127.0,130.0,126.0,125.0,126.0,134.0,129.0,135.0,-1.0,108.0,-67.0,127.0,127.0,127.0,-118.0,-89.0,112.0
127.0,130.0,127.0,125.0,126.0,134.0,129.0,135.0,-1.0,108.0,-67.0,127.0,127.0,127.0,-118.0,-89.0,112.0
127.0,130.0,127.0,125.0,126.0,134.0,129.0,135.0,-1.0,108.0,-67.0,127.0,127.0,127.0,-118.0,-89.0,112.0
127.0,130.0,127.0,125.0,126.0,134.0,129.0,135.0,-1.0,108.0,-67.0,127.0,127.0,127.0,-118.0,-89.0,112.0
127.0,130.0,127.0,125.0,126.0,134.0,130.0,135.0,-1.0,108.0,-67.0,127.0,127.0,127.0,-118.0,-89.0,112.0
127.0,130.0,127.0,125.0,126.0,134.0,130.0,135.0,-1.0,108.0,-67.0,127.0,127.0,127.0,-118.0,-89.0,112.0
127.0,130.0,127.0,125.0,127.0,134.0,130.0,135.0,-1.0,108.0,-67.0,127.0,127.0,127.0,-118.0,-89.0,112.0
127.0,130.0,126.0,125.0,126.0,134.0,129.0,135.0,-1.0,108.0,-67.0,127.0,127.0,127.0,-118.0,-89.0,112.0
127.0,130.0,126.0,125.0,126.0,134.0,129.0,135.0,-1.0,108.0,-67.0,127.0,127.0,127.0,-118.0,-89.0,112.0
127.0,130.0,127.0,125.0,126.0,134.0,132.0,134.0,-1.0,108.0,-67.0,127.0,127.0,127.0,-118.0,-89.0,112.0
127.0,130.0,127.0,125.0,126.0,134.0,132.0,134.0,-1.0,108.0,-67.0,127.0,127.0,127.0,-118.0,-89.0,112.0
127.0,130.0,127.0,125.0,126.0,134.0,133.0,134.0,-1.0,108.0,-67.0,127.0,127.0,127.0,-118.0,-89.0,112.0
127.0,130.0,127.0,125.0,127.0,134.0,133.0,134.0,-1.0,108.0,-67.0,127.0,127.0,127.0,-118.0,-89.0,112.0
127.0,130.0,127.0,125.0,127.0,134.0,133.0,134.0,-1.0,108.0,-67.0,127.0,127.0,127.0,-118.0,-89.0,112.0
127.0,130.0,127.0,125.0,127.0,134.0,133.0,134.0,-1.0,108.0,-67.0,127.0,127.0,127.0,-118.0,-89.0,112.0
127.0,130.0,127.0,125.0,127.0,134.0,133.0,134.0,-1.0,108.0,-67.0,127.0,127.0,127.0,-118.0,-89.0,112.0
127.0,130.0,127.0,125.0,126.0,134.0,132.0,134.0,-1.0,108.0,-67.0,127.0,127.0,127.0,-118.0,-89.0,112.0
127.0,130.0,127.0,125.0,126.0,134.0,132.0,134.0,-1.0,108.0,-67.0,127.0,127.0,127.0,-118.0,-89.0,112.0
127.0,130.0,127.0,125.0,126.0,134.0,132.0,134.0,-1.0,108.0,-67.0,127.0,127.0,127.0,-118.0,-89.0,112.0
127.0,130.0,127.0,125.0,126.0,133.0,134.0,133.0,-1.0,108.0,-67.0,127.0,127.0,127.0,-118.0,-89.0,112.0
127.0,130.0,127.0,125.0,126.0,133.0,134.0,134.0,-1.0,108.0,-67.0,127.0,127.0,127.0,-118.0,-89.0,112.0
127.0,130.0,127.0,125.0,126.0,133.0,134.0,133.0,-1.0,108.0,-67.0,127.0,127.0,127.0,-118.0,-89.0,112.0
127.0,130.0,127.0,125.0,126.0,133.0,134.0,133.0,-1.0,108.0,-67.0,127.0,127.0,127.0,-118.0,-89.0,112.0
127.0,130.0,127.0,125.0,126.0,133.0,134.0,133.0,-1.0,108.0,-67.0,127.0,127.0,127.0,-118.0,-89.0,112.0
127.0,130.0,127.0,125.0,126.0,133.0,134.0,133.0,-1.0,108.0,-67.0,127.0,127.0,127.0,-118.0,-89.0,112.0
127.0,130.0,126.0,125.0,126.0,133.0,133.0,134.0,-1.0,108.0,-67.0,127.0,127.0,127.0,-118.0,-89.0,112.0
127.0,130.0,126.0,125.0,126.0,133.0,134.0,134.0,-1.0,108.0,-67.0,127.0,127.0,127.0,-118.0,-89.0,112.0
127.0,130.0,127.0,125.0,126.0,133.0,133.0,134.0,-1.0,108.0,-67.0,127.0,127.0,127.0,-118.0,-89.0,112.0
127.0,130.0,127.0,125.0,126.0,133.0,134.0,134.0,-1.0,108.0,-67.0,127.0,127.0,127.0,-118.0,-89.0,112.0
127.0,130.0,127.0,125.0,126.0,133.0,133.0,133.0,-1.0,108.0,-67.0,127.0,127.0,127.0,-118.0,-89.0,112.0
127.0,130.0,127.0,125.0,126.0,133.0,133.0,133.0,-1.0,108.0,-67.0,127.0,127.0,127.0,-118.0,-89.0,112.0
127.0,130.0,127.0,125.0,126.0,133.0,133.0,132.0,-1.0,108.0,-67.0,127.0,127.0,127.0,-118.0,-89.0,112.0
127.0,130.0,127.0,125.0,126.0,133.0,133.0,132.0,-1.0,108.0,-67.0,127.0,127.0,127.0,-118.0,-89.0,112.0
127.0,130.0,127.0,125.0,126.0,133.0,133.0,132.0,-1.0,108.0,-67.0,127.0,127.0,127.0,-118.0,-89.0,112.0
127.0,130.0,126.0,125.0,126.0,133.0,133.0,133.0,-1.0,108.0,-67.0,127.0,127.0,127.0,-118.0,-89.0,112.0
127.0,130.0,126.0,125.0,126.0,133.0,133.0,133.0,-1.0,108.0,-67.0,127.0,127.0,127.0,-118.0,-89.0,112.0
127.0,130.0,126.0,125.0,126.0,133.0,133.0,133.0,-1.0,108.0,-67.0,127.0,127.0,127.0,-118.0,-89.0,112.0
127.0,130.0,126.0,125.0,126.0,133.0,133.0,133.0,-1.0,108.0,-67.0,127.0,127.0,127.0,-118.0,-89.0,112.0
127.0,130.0,127.0,125.0,126.0,133.0,133.0,133.0,-1.0,108.0,-67.0,127.0,127.0,127.0,-118.0,-89.0,112.0
127.0,130.0,126.0,125.0,126.0,133.0,128.0,133.0,-1.0,108.0,-67.0,127.0,127.0,127.0,-118.0,-89.0,112.0
127.0,130.0,126.0,125.0,126.0,133.0,128.0,133.0,-1.0,108.0,-67.0,127.0,127.0,127.0,-118.0,-89.0,112.0
127.0,130.0,126.0,125.0,126.0,133.0,128.0,133.0,-1.0,108.0,-67.0,127.0,127.0,127.0,-118.0,-89.0,112.0
127.0,130.0,127.0,125.0,126.0,132.0,128.0,133.0,-1.0,108.0,-67.0,127.0,127.0,127.0,-118.0,-89.0,112.0
127.0,130.0,126.0,125.0,126.0,134.0,128.0,133.0,-1.0,108.0,-67.0,127.0,127.0,127.0,-118.0,-89.0,112.0
127.0,130.0,126.0,125.0,126.0,134.0,128.0,133.0,-1.0,108.0,-67.0,127.0,127.0,127.0,-118.0,-89.0,112.0
127.0,130.0,126.0,125.0,126.0,134.0,128.0,133.0,-1.0,108.0,-67.0,127.0,127.0,127.0,-118.0,-89.0,112.0
127.0,130.0,126.0,125.0,126.0,134.0,128.0,133.0,-1.0,108.0,-67.0,127.0,127.0,127.0,-118.0,-89.0,112.0
127.0,130.0,126.0,125.0,126.0,134.0,128.0,133.0,-1.0,108.0,-67.0,127.0,127.0,127.0,-118.0,-89.0,112.0
127.0,130.0,126.0,125.0,126.0,134.0,128.0,133.0,-1.0,108.0,-67.0,127.0,127.0,127.0,-118.0,-89.0,112.0
127.0,130.0,127.0,125.0,126.0,133.0,129.0,133.0,-1.0,108.0,-67.0,127.0,127.0,127.0,-118.0,-89.0,112.0
127.0,130.0,127.0,125.0,126.0,133.0,129.0,133.0,-1.0,108.0,-67.0,127.0,127.0,127.0,-118.0,-89.0,112.0
127.0,130.0,127.0,125.0,126.0,132.0,129.0,133.0,-1.0,108.0,-67.0,127.0,127.0,127.0,-118.0,-89.0,112.0
127.0,130.0,126.0,125.0,126.0,133.0,128.0,133.0,-1.0,108.0,-67.0,127.0,127.0,127.0,-118.0,-89.0,112.0
127.0,130.0,126.0,125.0,126.0,133.0,128.0,133.0,-1.0,108.0,-67.0,127.0,127.0,127.0,-118.0,-89.0,112.0
127.0,130.0,126.0,125.0,126.0,133.0,128.0,133.0,-1.0,108.0,-67.0,127.0,127.0,127.0,-118.0,-89.0,112.0
127.0,130.0,126.0,125.0,126.0,133.0,128.0,133.0,-1.0,108.0,-67.0,127.0,127.0,127.0,-118.0,-89.0,112.0
127.0,130.0,126.0,125.0,126.0,133.0,128.0,133.0,-1.0,108.0,-67.0,127.0,127.0,127.0,-118.0,-89.0,112.0
127.0,130.0,126.0,125.0,126.0,133.0,128.0,133.0,-1.0,108.0,-67.0,127.0,127.0,127.0,-118.0,-89.0,112.0
127.0,130.0,127.0,125.0,126.0,133.0,128.0,133.0,-1.0,108.0,-67.0,127.0,127.0,127.0,-118.0,-89.0,112.0
127.0,129.0,126.0,125.0,126.0,131.0,129.0,133.0,-1.0,109.0,-67.0,127.0,127.0,127.0,-118.0,-89.0,112.0
127.0,129.0,126.0,125.0,126.0,131.0,129.0,133.0,-1.0,109.0,-67.0,127.0,127.0,127.0,-118.0,-89.0,112.0
127.0,129.0,126.0,125.0,126.0,130.0,130.0,132.0,-1.0,109.0,-67.0,127.0,127.0,127.0,-118.0,-89.0,112.0
127.0,129.0,126.0,125.0,126.0,130.0,130.0,132.0,-1.0,109.0,-67.0,127.0,127.0,127.0,-118.0,-89.0,112.0
127.0,129.0,126.0,125.0,126.0,130.0,130.0,132.0,-1.0,109.0,-67.0,127.0,127.0,127.0,-118.0,-89.0,112.0
127.0,129.0,126.0,125.0,126.0,131.0,129.0,133.0,-1.0,109.0,-67.0,127.0,127.0,127.0,-118.0,-89.0,112.0
127.0,129.0,126.0,125.0,125.0,131.0,129.0,133.0,-1.0,109.0,-67.0,127.0,127.0,127.0,-118.0,-89.0,112.0
127.0,129.0,126.0,125.0,125.0,131.0,129.0,133.0,-1.0,109.0,-67.0,127.0,127.0,127.0,-118.0,-89.0,112.0
127.0,129.0,126.0,125.0,126.0,131.0,129.0,133.0,-1.0,109.0,-67.0,127.0,127.0,127.0,-118.0,-89.0,112.0
127.0,129.0,126.0,125.0,126.0,131.0,129.0,133.0,-1.0,109.0,-67.0,127.0,127.0,127.0,-118.0,-89.0,112.0
127.0,129.0,126.0,125.0,125.0,132.0,129.0,133.0,-1.0,109.0,-67.0,127.0,127.0,127.0,-118.0,-89.0,112.0
127.0,129.0,126.0,125.0,126.0,132.0,129.0,133.0,-1.0,109.0,-67.0,127.0,127.0,127.0,-118.0,-89.0,112.0
127.0,129.0,126.0,125.0,126.0,132.0,129.0,132.0,-1.0,109.0,-67.0,127.0,127.0,127.0,-118.0,-89.0,112.0
127.0,129.0,126.0,125.0,126.0,132.0,129.0,132.0,-1.0,109.0,-67.0,127.0,127.0,127.0,-118.0,-89.0,112.0
127.0,129.0,126.0,125.0,126.0,132.0,129.0,132.0,-1.0,109.0,-67.0,127.0,127.0,127.0,-118.0,-89.0,112.0
127.0,129.0,126.0,125.0,126.0,131.0,129.0,132.0,-1.0,109.0,-67.0,127.0,127.0,127.0,-118.0,-89.0,112.0
127.0,129.0,126.0,125.0,126.0,131.0,129.0,132.0,-1.0,109.0,-67.0,127.0,127.0,127.0,-118.0,-89.0,112.0
127.0,129.0,127.0,125.0,126.0,131.0,129.0,132.0,-1.0,109.0,-67.0,127.0,127.0,127.0,-118.0,-89.0,112.0
127.0,129.0,127.0,125.0,126.0,131.0,129.0,132.0,-1.0,109.0,-67.0,127.0,127.0,127.0,-118.0,-89.0,112.0
127.0,129.0,127.0,125.0,126.0,131.0,129.0,132.0,-1.0,109.0,-67.0,127.0,127.0,127.0,-118.0,-89.0,112.0
127.0,130.0,126.0,125.0,126.0,132.0,129.0,130.0,-1.0,109.0,-67.0,127.0,127.0,127.0,-118.0,-89.0,112.0
127.0,129.0,126.0,125.0,126.0,132.0,129.0,130.0,-1.0,109.0,-67.0,127.0,127.0,127.0,-118.0,-89.0,112.0
127.0,129.0,126.0,125.0,126.0,132.0,129.0,130.0,-1.0,109.0,-67.0,127.0,127.0,127.0,-118.0,-89.0,112.0
127.0,129.0,126.0,125.0,126.0,132.0,129.0,130.0,-1.0,109.0,-67.0,127.0,127.0,127.0,-118.0,-89.0,112.0
127.0,129.0,126.0,125.0,126.0,131.0,129.0,130.0,-1.0,109.0,-67.0,127.0,127.0,127.0,-118.0,-89.0,112.0
127.0,129.0,127.0,125.0,126.0,131.0,129.0,130.0,-1.0,109.0,-67.0,127.0,127.0,127.0,-118.0,-89.0,112.0
127.0,129.0,127.0,125.0,126.0,131.0,130.0,130.0,-1.0,109.0,-67.0,127.0,127.0,127.0,-118.0,-89.0,112.0
127.0,129.0,127.0,125.0,126.0,131.0,130.0,130.0,-1.0,109.0,-67.0,127.0,127.0,127.0,-118.0,-89.0,112.0
127.0,129.0,127.0,125.0,126.0,131.0,130.0,130.0,-1.0,109.0,-67.0,127.0,127.0,127.0,-118.0,-89.0,112.0
127.0,129.0,127.0,125.0,126.0,131.0,130.0,130.0,-1.0,109.0,-67.0,127.0,127.0,127.0,-118.0,-89.0,112.0
127.0,130.0,126.0,125.0,126.0,132.0,125.0,129.0,-1.0,108.0,-67.0,127.0,127.0,127.0,-118.0,-89.0,112.0
127.0,130.0,126.0,125.0,126.0,132.0,125.0,129.0,-1.0,108.0,-67.0,127.0,127.0,127.0,-118.0,-89.0,112.0
127.0,130.0,126.0,125.0,126.0,132.0,125.0,129.0,-1.0,108.0,-67.0,127.0,127.0,127.0,-118.0,-89.0,112.0
127.0,129.0,126.0,125.0,126.0,131.0,125.0,129.0,-1.0,108.0,-67.0,127.0,127.0,127.0,-118.0,-89.0,112.0
127.0,129.0,126.0,125.0,126.0,131.0,125.0,129.0,-1.0,108.0,-67.0,127.0,127.0,127.0,-118.0,-89.0,112.0
127.0,129.0,126.0,125.0,126.0,131.0,125.0,129.0,-1.0,108.0,-67.0,127.0,127.0,127.0,-118.0,-89.0,112.0
127.0,129.0,127.0,125.0,126.0,131.0,125.0,129.0,-1.0,108.0,-67.0,127.0,127.0,127.0,-118.0,-89.0,112.0
127.0,129.0,127.0,125.0,126.0,131.0,125.0,129.0,-1.0,108.0,-67.0,127.0,127.0,127.0,-118.0,-89.0,112.0
127.0,129.0,127.0,125.0,126.0,131.0,125.0,129.0,-1.0,108.0,-67.0,127.0,127.0,127.0,-118.0,-89.0,112.0
127.0,130.0,126.0,125.0,126.0,132.0,125.0,129.0,-1.0,108.0,-67.0,127.0,127.0,127.0,-118.0,-89.0,112.0
127.0,129.0,127.0,125.0,126.0,131.0,126.0,130.0,-1.0,108.0,-67.0,127.0,127.0,127.0,-118.0,-89.0,112.0
127.0,129.0,127.0,126.0,127.0,131.0,126.0,130.0,-1.0,108.0,-67.0,127.0,127.0,127.0,-118.0,-89.0,112.0
127.0,129.0,127.0,126.0,126.0,131.0,126.0,130.0,-1.0,108.0,-67.0,127.0,127.0,127.0,-118.0,-89.0,112.0
127.0,129.0,126.0,126.0,126.0,132.0,126.0,130.0,-1.0,108.0,-67.0,127.0,127.0,127.0,-118.0,-89.0,112.0
127.0,129.0,126.0,126.0,126.0,132.0,126.0,130.0,-1.0,108.0,-67.0,127.0,127.0,127.0,-118.0,-89.0,112.0
127.0,129.0,127.0,126.0,126.0,131.0,126.0,130.0,-1.0,108.0,-67.0,127.0,127.0,127.0,-118.0,-89.0,112.0
127.0,129.0,127.0,126.0,126.0,131.0,126.0,130.0,-1.0,108.0,-67.0,127.0,127.0,127.0,-118.0,-89.0,112.0
127.0,129.0,127.0,126.0,126.0,131.0,126.0,130.0,-1.0,108.0,-67.0,127.0,127.0,127.0,-118.0,-89.0,112.0
127.0,129.0,127.0,126.0,126.0,132.0,126.0,130.0,-1.0,108.0,-67.0,127.0,127.0,127.0,-118.0,-89.0,112.0
127.0,129.0,127.0,126.0,126.0,131.0,126.0,130.0,-1.0,108.0,-67.0,127.0,127.0,127.0,-118.0,-89.0,112.0
127.0,129.0,126.0,126.0,126.0,131.0,127.0,132.0,-1.0,108.0,-66.0,127.0,127.0,127.0,-118.0,-89.0,112.0
127.0,129.0,127.0,126.0,126.0,131.0,127.0,131.0,-1.0,108.0,-66.0,127.0,127.0,127.0,-118.0,-89.0,112.0
127.0,129.0,127.0,126.0,126.0,131.0,128.0,131.0,-1.0,108.0,-66.0,127.0,127.0,127.0,-118.0,-89.0,112.0
127.0,129.0,127.0,126.0,126.0,131.0,128.0,131.0,-1.0,108.0,-66.0,127.0,127.0,127.0,-118.0,-89.0,112.0
127.0,129.0,127.0,126.0,126.0,131.0,128.0,131.0,-1.0,108.0,-66.0,127.0,127.0,127.0,-118.0,-89.0,112.0
127.0,129.0,127.0,126.0,126.0,130.0,128.0,132.0,-1.0,108.0,-66.0,127.0,127.0,127.0,-118.0,-89.0,112.0
127.0,129.0,127.0,126.0,126.0,130.0,128.0,132.0,-1.0,108.0,-66.0,127.0,127.0,127.0,-118.0,-89.0,112.0
127.0,129.0,126.0,126.0,126.0,131.0,128.0,132.0,-1.0,108.0,-66.0,127.0,127.0,127.0,-118.0,-89.0,112.0
127.0,129.0,126.0,126.0,126.0,131.0,127.0,131.0,-1.0,108.0,-66.0,127.0,127.0,127.0,-118.0,-89.0,112.0
127.0,129.0,126.0,126.0,126.0,131.0,128.0,131.0,-1.0,108.0,-66.0,127.0,127.0,127.0,-118.0,-89.0,112.0
127.0,129.0,127.0,126.0,126.0,131.0,127.0,132.0,-1.0,108.0,-66.0,127.0,127.0,127.0,-118.0,-89.0,112.0
127.0,129.0,127.0,126.0,126.0,131.0,127.0,132.0,-1.0,108.0,-66.0,127.0,127.0,127.0,-118.0,-89.0,112.0
127.0,129.0,127.0,126.0,126.0,131.0,127.0,132.0,-1.0,108.0,-66.0,127.0,127.0,127.0,-118.0,-89.0,112.0
127.0,129.0,127.0,126.0,126.0,131.0,127.0,132.0,-1.0,108.0,-66.0,127.0,127.0,127.0,-118.0,-89.0,112.0
127.0,129.0,127.0,126.0,126.0,130.0,127.0,132.0,-1.0,108.0,-66.0,127.0,127.0,127.0,-118.0,-89.0,112.0
127.0,129.0,127.0,126.0,126.0,130.0,128.0,132.0,-1.0,108.0,-66.0,127.0,127.0,127.0,-118.0,-89.0,112.0
127.0,129.0,127.0,126.0,126.0,132.0,127.0,132.0,-1.0,108.0,-66.0,127.0,127.0,127.0,-118.0,-89.0,112.0
127.0,129.0,127.0,126.0,126.0,132.0,127.0,132.0,-1.0,108.0,-66.0,127.0,127.0,127.0,-118.0,-89.0,112.0
127.0,129.0,127.0,126.0,126.0,131.0,127.0,132.0,-1.0,108.0,-66.0,127.0,127.0,127.0,-118.0,-89.0,112.0
127.0,129.0,127.0,126.0,126.0,131.0,127.0,132.0,-1.0,108.0,-66.0,127.0,127.0,127.0,-118.0,-89.0,112.0
127.0,129.0,127.0,126.0,126.0,131.0,129.0,132.0,-1.0,108.0,-66.0,127.0,127.0,127.0,-118.0,-89.0,112.0
127.0,129.0,127.0,126.0,126.0,131.0,129.0,132.0,-1.0,108.0,-66.0,127.0,127.0,127.0,-118.0,-89.0,112.0
127.0,129.0,127.0,126.0,126.0,131.0,129.0,132.0,-1.0,108.0,-66.0,127.0,127.0,127.0,-118.0,-89.0,112.0
127.0,129.0,127.0,126.0,126.0,131.0,129.0,132.0,-1.0,108.0,-66.0,127.0,127.0,127.0,-118.0,-89.0,112.0
127.0,129.0,127.0,126.0,126.0,130.0,129.0,132.0,-1.0,108.0,-66.0,127.0,127.0,127.0,-118.0,-89.0,112.0
127.0,129.0,127.0,126.0,126.0,132.0,129.0,132.0,-1.0,108.0,-66.0,127.0,127.0,127.0,-118.0,-89.0,112.0
127.0,129.0,127.0,126.0,126.0,132.0,129.0,132.0,-1.0,108.0,-66.0,127.0,127.0,127.0,-118.0,-89.0,112.0
127.0,129.0,127.0,126.0,126.0,131.0,129.0,132.0,-1.0,108.0,-66.0,127.0,127.0,127.0,-118.0,-89.0,112.0
127.0,129.0,127.0,126.0,126.0,131.0,129.0,132.0,-1.0,108.0,-66.0,127.0,127.0,127.0,-118.0,-89.0,112.0
127.0,129.0,127.0,126.0,126.0,131.0,129.0,132.0,-1.0,108.0,-66.0,127.0,127.0,127.0,-118.0,-89.0,112.0
127.0,129.0,126.0,126.0,127.0,131.0,126.0,131.0,-1.0,108.0,-66.0,127.0,127.0,127.0,-118.0,-89.0,112.0
127.0,129.0,126.0,126.0,126.0,131.0,126.0,131.0,-1.0,108.0,-66.0,127.0,127.0,127.0,-118.0,-89.0,112.0
127.0,129.0,126.0,126.0,126.0,131.0,126.0,131.0,-1.0,108.0,-66.0,127.0,127.0,127.0,-118.0,-89.0,112.0
127.0,129.0,126.0,126.0,126.0,132.0,126.0,132.0,-1.0,108.0,-66.0,127.0,127.0,127.0,-118.0,-89.0,112.0
127.0,129.0,126.0,126.0,126.0,130.0,127.0,131.0,-1.0,108.0,-66.0,127.0,127.0,127.0,-118.0,-89.0,112.0
127.0,129.0,126.0,126.0,126.0,130.0,127.0,131.0,-1.0,108.0,-66.0,127.0,127.0,127.0,-118.0,-89.0,112.0
127.0,129.0,126.0,126.0,126.0,130.0,126.0,131.0,-1.0,108.0,-66.0,127.0,127.0,127.0,-118.0,-89.0,112.0
127.0,129.0,126.0,126.0,126.0,131.0,126.0,132.0,-1.0,108.0,-66.0,127.0,127.0,127.0,-118.0,-89.0,112.0
127.0,129.0,126.0,126.0,126.0,131.0,126.0,132.0,-1.0,108.0,-66.0,127.0,127.0,127.0,-118.0,-89.0,112.0
127.0,129.0,126.0,126.0,126.0,131.0,126.0,132.0,-1.0,108.0,-66.0,127.0,127.0,127.0,-118.0,-89.0,112.0
127.0,128.0,127.0,126.0,126.0,130.0,126.0,131.0,-1.0,109.0,-66.0,127.0,127.0,127.0,-118.0,-89.0,112.0
127.0,128.0,127.0,126.0,126.0,130.0,126.0,131.0,-1.0,109.0,-66.0,127.0,127.0,127.0,-118.0,-89.0,112.0
127.0,128.0,127.0,126.0,126.0,130.0,126.0,131.0,-1.0,109.0,-66.0,127.0,127.0,127.0,-118.0,-89.0,112.0
127.0,129.0,127.0,126.0,126.0,130.0,126.0,131.0,-1.0,109.0,-66.0,127.0,127.0,127.0,-118.0,-89.0,112.0
127.0,129.0,127.0,126.0,126.0,130.0,126.0,131.0,-1.0,109.0,-66.0,127.0,127.0,127.0,-118.0,-89.0,112.0
127.0,129.0,127.0,126.0,126.0,130.0,126.0,131.0,-1.0,109.0,-66.0,127.0,127.0,127.0,-118.0,-89.0,112.0
127.0,129.0,127.0,126.0,126.0,130.0,126.0,131.0,-1.0,109.0,-66.0,127.0,127.0,127.0,-118.0,-89.0,112.0
127.0,129.0,127.0,126.0,126.0,130.0,126.0,131.0,-1.0,109.0,-66.0,127.0,127.0,127.0,-118.0,-89.0,112.0
127.0,129.0,127.0,126.0,126.0,130.0,126.0,131.0,-1.0,109.0,-66.0,127.0,127.0,127.0,-118.0,-89.0,112.0
127.0,128.0,127.0,126.0,126.0,130.0,126.0,131.0,-1.0,109.0,-66.0,127.0,127.0,127.0,-118.0,-89.0,112.0
127.0,129.0,127.0,126.0,126.0,130.0,126.0,130.0,-1.0,108.0,-66.0,127.0,127.0,127.0,-118.0,-89.0,112.0
127.0,129.0,126.0,126.0,126.0,131.0,126.0,131.0,-1.0,108.0,-66.0,127.0,127.0,127.0,-118.0,-89.0,112.0
127.0,129.0,126.0,126.0,126.0,131.0,126.0,131.0,-1.0,108.0,-66.0,127.0,127.0,127.0,-118.0,-89.0,112.0
127.0,129.0,126.0,126.0,126.0,131.0,126.0,131.0,-1.0,108.0,-66.0,127.0,127.0,127.0,-118.0,-89.0,112.0
127.0,129.0,126.0,126.0,126.0,131.0,126.0,131.0,-1.0,108.0,-66.0,127.0,127.0,127.0,-118.0,-89.0,112.0
127.0,129.0,126.0,126.0,126.0,131.0,126.0,131.0,-1.0,108.0,-66.0,127.0,127.0,127.0,-118.0,-89.0,112.0
127.0,129.0,126.0,126.0,126.0,131.0,126.0,131.0,-1.0,108.0,-66.0,127.0,127.0,127.0,-118.0,-89.0,112.0
127.0,129.0,127.0,126.0,126.0,131.0,126.0,131.0,-1.0,108.0,-66.0,127.0,127.0,127.0,-118.0,-89.0,112.0
127.0,129.0,127.0,126.0,126.0,130.0,126.0,131.0,-1.0,108.0,-66.0,127.0,127.0,127.0,-118.0,-89.0,112.0
127.0,129.0,127.0,126.0,126.0,130.0,126.0,131.0,-1.0,108.0,-66.0,127.0,127.0,127.0,-118.0,-89.0,112.0
127.0,128.0,126.0,126.0,126.0,130.0,127.0,131.0,-1.0,108.0,-66.0,127.0,127.0,127.0,-118.0,-89.0,112.0
127.0,128.0,126.0,126.0,126.0,130.0,127.0,132.0,-1.0,108.0,-66.0,127.0,127.0,127.0,-118.0,-89.0,112.0
127.0,128.0,126.0,126.0,126.0,130.0,126.0,132.0,-1.0,108.0,-66.0,127.0,127.0,127.0,-118.0,-89.0,112.0
127.0,128.0,126.0,126.0,126.0,130.0,127.0,132.0,-1.0,108.0,-66.0,127.0,127.0,127.0,-118.0,-89.0,112.0
127.0,128.0,126.0,126.0,126.0,130.0,127.0,132.0,-1.0,108.0,-66.0,127.0,127.0,127.0,-118.0,-89.0,112.0
127.0,128.0,126.0,126.0,126.0,130.0,126.0,131.0,-1.0,108.0,-66.0,127.0,127.0,127.0,-118.0,-89.0,112.0
127.0,128.0,126.0,126.0,126.0,130.0,126.0,131.0,-1.0,108.0,-66.0,127.0,127.0,127.0,-118.0,-89.0,112.0
127.0,128.0,126.0,126.0,126.0,130.0,127.0,131.0,-1.0,108.0,-66.0,127.0,127.0,127.0,-118.0,-89.0,112.0
127.0,128.0,126.0,126.0,126.0,130.0,126.0,131.0,-1.0,108.0,-66.0,127.0,127.0,127.0,-118.0,-89.0,112.0
127.0,128.0,126.0,126.0,126.0,130.0,126.0,131.0,-1.0,108.0,-66.0,127.0,127.0,127.0,-118.0,-89.0,112.0
127.0,128.0,126.0,126.0,126.0,131.0,126.0,131.0,-1.0,108.0,-66.0,127.0,127.0,127.0,-118.0,-89.0,112.0
127.0,128.0,126.0,126.0,126.0,131.0,126.0,131.0,-1.0,108.0,-66.0,127.0,127.0,127.0,-118.0,-89.0,112.0
127.0,128.0,126.0,126.0,126.0,131.0,126.0,131.0,-1.0,108.0,-66.0,127.0,127.0,127.0,-118.0,-89.0,112.0
127.0,128.0,126.0,126.0,126.0,131.0,126.0,131.0,-1.0,108.0,-66.0,127.0,127.0,127.0,-118.0,-89.0,112.0
127.0,128.0,126.0,126.0,126.0,131.0,126.0,131.0,-1.0,108.0,-66.0,127.0,127.0,127.0,-118.0,-89.0,112.0
127.0,128.0,126.0,126.0,126.0,131.0,126.0,131.0,-1.0,108.0,-66.0,127.0,127.0,127.0,-118.0,-89.0,112.0
127.0,128.0,127.0,126.0,127.0,131.0,126.0,131.0,-1.0,108.0,-66.0,127.0,127.0,127.0,-118.0,-89.0,112.0
127.0,128.0,127.0,126.0,127.0,130.0,126.0,131.0,-1.0,108.0,-66.0,127.0,127.0,127.0,-118.0,-89.0,112.0
127.0,128.0,127.0,126.0,127.0,130.0,126.0,131.0,-1.0,108.0,-66.0,127.0,127.0,127.0,-118.0,-89.0,112.0
127.0,128.0,127.0,126.0,127.0,130.0,126.0,131.0,-1.0,108.0,-66.0,127.0,127.0,127.0,-118.0,-89.0,112.0
127.0,128.0,126.0,126.0,126.0,130.0,126.0,131.0,-1.0,108.0,-66.0,127.0,127.0,127.0,-118.0,-89.0,112.0
127.0,128.0,126.0,126.0,126.0,130.0,126.0,131.0,-1.0,108.0,-66.0,127.0,127.0,127.0,-118.0,-89.0,112.0
127.0,128.0,126.0,126.0,126.0,130.0,126.0,131.0,-1.0,108.0,-66.0,127.0,127.0,127.0,-118.0,-89.0,112.0
127.0,128.0,126.0,126.0,126.0,129.0,126.0,131.0,-1.0,108.0,-66.0,127.0,127.0,127.0,-118.0,-89.0,112.0
127.0,128.0,126.0,126.0,126.0,129.0,126.0,131.0,-1.0,108.0,-66.0,127.0,127.0,127.0,-118.0,-89.0,112.0
127.0,128.0,127.0,126.0,126.0,129.0,126.0,131.0,-1.0,108.0,-66.0,127.0,127.0,127.0,-118.0,-89.0,112.0
127.0,128.0,127.0,126.0,126.0,129.0,126.0,131.0,-1.0,108.0,-66.0,127.0,127.0,127.0,-118.0,-89.0,112.0
127.0,128.0,127.0,126.0,126.0,129.0,126.0,131.0,-1.0,108.0,-66.0,127.0,127.0,127.0,-118.0,-89.0,112.0
127.0,128.0,127.0,126.0,126.0,129.0,126.0,131.0,-1.0,108.0,-66.0,127.0,127.0,127.0,-118.0,-89.0,112.0
127.0,128.0,126.0,126.0,126.0,130.0,126.0,131.0,-1.0,108.0,-66.0,127.0,127.0,127.0,-118.0,-89.0,112.0
127.0,129.0,126.0,126.0,126.0,131.0,126.0,130.0,-1.0,108.0,-66.0,127.0,127.0,127.0,-118.0,-89.0,112.0
127.0,128.0,126.0,126.0,126.0,131.0,126.0,130.0,-1.0,108.0,-66.0,127.0,127.0,127.0,-118.0,-89.0,112.0
127.0,128.0,126.0,126.0,126.0,130.0,126.0,130.0,-1.0,108.0,-66.0,127.0,127.0,127.0,-118.0,-89.0,112.0
127.0,128.0,126.0,126.0,126.0,130.0,126.0,130.0,-1.0,108.0,-66.0,127.0,127.0,127.0,-118.0,-89.0,112.0
127.0,128.0,127.0,126.0,126.0,130.0,126.0,130.0,-1.0,108.0,-66.0,127.0,127.0,127.0,-118.0,-89.0,112.0
127.0,128.0,127.0,126.0,126.0,129.0,126.0,130.0,-1.0,108.0,-66.0,127.0,127.0,127.0,-118.0,-89.0,112.0
127.0,128.0,127.0,126.0,126.0,129.0,126.0,130.0,-1.0,108.0,-66.0,127.0,127.0,127.0,-118.0,-89.0,112.0
127.0,128.0,127.0,126.0,127.0,129.0,126.0,130.0,-1.0,108.0,-66.0,127.0,127.0,127.0,-118.0,-89.0,112.0
127.0,129.0,126.0,126.0,126.0,132.0,126.0,131.0,-1.0,108.0,-66.0,127.0,127.0,127.0,-118.0,-89.0,112.0
127.0,129.0,126.0,126.0,126.0,131.0,126.0,130.0,-1.0,108.0,-66.0,127.0,127.0,127.0,-118.0,-89.0,112.0
127.0,128.0,127.0,126.0,126.0,130.0,127.0,131.0,-1.0,108.0,-66.0,127.0,127.0,127.0,-118.0,-89.0,112.0
127.0,128.0,127.0,126.0,126.0,130.0,127.0,131.0,-1.0,108.0,-66.0,127.0,127.0,127.0,-118.0,-89.0,112.0
127.0,128.0,127.0,126.0,126.0,130.0,127.0,131.0,-1.0,108.0,-66.0,127.0,127.0,127.0,-118.0,-89.0,112.0
127.0,128.0,127.0,126.0,126.0,130.0,127.0,131.0,-1.0,108.0,-66.0,127.0,127.0,127.0,-118.0,-89.0,112.0
127.0,128.0,127.0,126.0,126.0,130.0,127.0,131.0,-1.0,108.0,-66.0,127.0,127.0,127.0,-118.0,-89.0,112.0
127.0,128.0,127.0,126.0,126.0,130.0,127.0,131.0,-1.0,108.0,-66.0,127.0,127.0,127.0,-118.0,-89.0,112.0
127.0,128.0,127.0,126.0,126.0,129.0,127.0,131.0,-1.0,108.0,-66.0,127.0,127.0,127.0,-118.0,-89.0,112.0
127.0,128.0,127.0,126.0,126.0,130.0,126.0,131.0,-1.0,108.0,-66.0,127.0,127.0,127.0,-118.0,-89.0,112.0
127.0,128.0,127.0,126.0,126.0,130.0,126.0,131.0,-1.0,108.0,-66.0,127.0,127.0,127.0,-118.0,-89.0,112.0
127.0,128.0,127.0,126.0,126.0,130.0,126.0,131.0,-1.0,108.0,-66.0,127.0,127.0,127.0,-118.0,-89.0,112.0
127.0,129.0,127.0,126.0,126.0,130.0,127.0,131.0,-1.0,108.0,-66.0,127.0,127.0,127.0,-118.0,-89.0,112.0
127.0,129.0,127.0,126.0,127.0,130.0,127.0,131.0,-1.0,108.0,-66.0,127.0,127.0,127.0,-118.0,-89.0,112.0
127.0,129.0,127.0,126.0,127.0,130.0,127.0,131.0,-1.0,108.0,-66.0,127.0,127.0,127.0,-118.0,-89.0,112.0
127.0,129.0,127.0,126.0,126.0,131.0,127.0,131.0,-1.0,108.0,-66.0,127.0,127.0,127.0,-118.0,-89.0,112.0
127.0,129.0,127.0,126.0,126.0,131.0,127.0,131.0,-1.0,108.0,-66.0,127.0,127.0,127.0,-118.0,-89.0,112.0
127.0,129.0,127.0,126.0,126.0,131.0,127.0,131.0,-1.0,108.0,-66.0,127.0,127.0,127.0,-118.0,-89.0,112.0
127.0,129.0,127.0,126.0,127.0,129.0,127.0,131.0,-1.0,108.0,-66.0,127.0,127.0,127.0,-118.0,-89.0,112.0
127.0,129.0,127.0,126.0,126.0,130.0,127.0,131.0,-1.0,108.0,-66.0,127.0,127.0,127.0,-118.0,-89.0,112.0
127.0,129.0,127.0,126.0,126.0,130.0,127.0,131.0,-1.0,108.0,-66.0,127.0,127.0,127.0,-118.0,-89.0,112.0
127.0,129.0,127.0,126.0,126.0,130.0,127.0,131.0,-1.0,108.0,-66.0,127.0,127.0,127.0,-118.0,-89.0,112.0
127.0,129.0,127.0,126.0,126.0,129.0,126.0,129.0,-1.0,108.0,-66.0,127.0,127.0,127.0,-118.0,-89.0,112.0
127.0,129.0,127.0,126.0,126.0,129.0,126.0,129.0,-1.0,108.0,-66.0,127.0,127.0,127.0,-118.0,-89.0,112.0
127.0,129.0,127.0,126.0,126.0,130.0,126.0,129.0,-1.0,108.0,-66.0,127.0,127.0,127.0,-118.0,-89.0,112.0
127.0,129.0,127.0,126.0,126.0,130.0,126.0,129.0,-1.0,108.0,-66.0,127.0,127.0,127.0,-118.0,-89.0,112.0
127.0,129.0,127.0,126.0,126.0,129.0,127.0,129.0,-1.0,108.0,-66.0,127.0,127.0,127.0,-118.0,-89.0,112.0
127.0,129.0,127.0,126.0,126.0,129.0,127.0,130.0,-1.0,108.0,-66.0,127.0,127.0,127.0,-118.0,-89.0,112.0
127.0,129.0,127.0,126.0,126.0,129.0,127.0,130.0,-1.0,108.0,-66.0,127.0,127.0,127.0,-118.0,-89.0,112.0
127.0,129.0,127.0,126.0,126.0,130.0,126.0,130.0,-1.0,108.0,-66.0,127.0,127.0,127.0,-118.0,-89.0,112.0
127.0,129.0,127.0,126.0,126.0,129.0,127.0,130.0,-1.0,108.0,-66.0,127.0,127.0,127.0,-118.0,-89.0,112.0
127.0,129.0,127.0,126.0,126.0,129.0,127.0,129.0,-1.0,108.0,-66.0,127.0,127.0,127.0,-118.0,-89.0,112.0
127.0,129.0,127.0,126.0,126.0,129.0,127.0,129.0,-1.0,108.0,-67.0,127.0,127.0,127.0,-118.0,-89.0,112.0
127.0,129.0,127.0,126.0,126.0,130.0,126.0,129.0,-1.0,108.0,-67.0,127.0,127.0,127.0,-118.0,-89.0,112.0
127.0,129.0,127.0,126.0,126.0,130.0,126.0,129.0,-1.0,108.0,-67.0,127.0,127.0,127.0,-118.0,-89.0,112.0
127.0,129.0,127.0,126.0,126.0,129.0,126.0,128.0,-1.0,108.0,-67.0,127.0,127.0,127.0,-118.0,-89.0,112.0
127.0,129.0,127.0,126.0,126.0,129.0,127.0,128.0,-1.0,108.0,-67.0,127.0,127.0,127.0,-118.0,-89.0,112.0
127.0,129.0,127.0,126.0,126.0,130.0,126.0,129.0,-1.0,108.0,-67.0,127.0,127.0,127.0,-118.0,-89.0,112.0
127.0,129.0,127.0,126.0,126.0,130.0,126.0,129.0,-1.0,108.0,-67.0,127.0,127.0,127.0,-118.0,-89.0,112.0
127.0,129.0,127.0,126.0,126.0,130.0,126.0,129.0,-1.0,108.0,-67.0,127.0,127.0,127.0,-118.0,-89.0,112.0
127.0,129.0,127.0,126.0,126.0,129.0,126.0,129.0,-1.0,108.0,-67.0,127.0,127.0,127.0,-118.0,-89.0,112.0
128.0,129.0,127.0,126.0,126.0,129.0,126.0,129.0,-1.0,108.0,-67.0,127.0,127.0,127.0,-118.0,-89.0,112.0
127.0,129.0,127.0,126.0,126.0,130.0,126.0,129.0,-1.0,108.0,-67.0,127.0,127.0,127.0,-118.0,-89.0,112.0
127.0,129.0,127.0,126.0,126.0,130.0,126.0,129.0,-1.0,108.0,-67.0,127.0,127.0,127.0,-118.0,-89.0,112.0
127.0,129.0,127.0,126.0,126.0,129.0,127.0,129.0,-1.0,108.0,-67.0,127.0,127.0,127.0,-118.0,-89.0,112.0
127.0,129.0,127.0,126.0,126.0,129.0,127.0,129.0,-1.0,108.0,-67.0,127.0,127.0,127.0,-118.0,-89.0,112.0
127.0,129.0,127.0,126.0,126.0,130.0,127.0,130.0,-1.0,108.0,-67.0,127.0,127.0,127.0,-118.0,-89.0,112.0
127.0,129.0,127.0,126.0,126.0,130.0,127.0,130.0,-1.0,108.0,-67.0,127.0,127.0,127.0,-118.0,-89.0,112.0
127.0,129.0,127.0,126.0,126.0,130.0,127.0,130.0,-1.0,108.0,-67.0,127.0,127.0,127.0,-118.0,-89.0,112.0
127.0,129.0,127.0,126.0,126.0,130.0,127.0,129.0,-1.0,108.0,-67.0,127.0,127.0,127.0,-118.0,-89.0,112.0
127.0,129.0,127.0,126.0,126.0,130.0,127.0,129.0,-1.0,108.0,-67.0,127.0,127.0,127.0,-118.0,-89.0,112.0
127.0,129.0,127.0,126.0,126.0,130.0,127.0,129.0,-1.0,108.0,-67.0,127.0,127.0,127.0,-118.0,-89.0,112.0
127.0,129.0,127.0,126.0,126.0,130.0,125.0,130.0,-1.0,108.0,-67.0,127.0,127.0,127.0,-118.0,-89.0,112.0
127.0,129.0,127.0,126.0,127.0,130.0,126.0,130.0,-1.0,108.0,-67.0,127.0,127.0,127.0,-118.0,-89.0,112.0
127.0,129.0,127.0,126.0,127.0,130.0,126.0,130.0,-1.0,108.0,-67.0,127.0,127.0,127.0,-118.0,-89.0,112.0
127.0,129.0,127.0,126.0,126.0,130.0,126.0,130.0,-1.0,108.0,-67.0,127.0,127.0,127.0,-118.0,-89.0,112.0
127.0,129.0,127.0,126.0,126.0,130.0,126.0,130.0,-1.0,108.0,-67.0,127.0,127.0,127.0,-118.0,-89.0,112.0
127.0,129.0,127.0,126.0,126.0,130.0,126.0,130.0,-1.0,108.0,-67.0,127.0,127.0,127.0,-118.0,-89.0,112.0
127.0,129.0,127.0,126.0,127.0,129.0,126.0,130.0,-1.0,108.0,-67.0,127.0,127.0,127.0,-118.0,-89.0,112.0
127.0,129.0,127.0,126.0,126.0,129.0,126.0,130.0,-1.0,108.0,-67.0,127.0,127.0,127.0,-118.0,-89.0,112.0
127.0,129.0,127.0,126.0,126.0,129.0,126.0,130.0,-1.0,108.0,-67.0,127.0,127.0,127.0,-118.0,-89.0,112.0
127.0,129.0,127.0,126.0,126.0,129.0,125.0,130.0,-1.0,108.0,-67.0,127.0,127.0,127.0,-118.0,-89.0,112.0
127.0,128.0,127.0,126.0,126.0,129.0,126.0,130.0,-1.0,107.0,-68.0,127.0,127.0,127.0,-118.0,-89.0,112.0
127.0,128.0,127.0,126.0,126.0,129.0,126.0,130.0,-1.0,107.0,-68.0,127.0,127.0,127.0,-118.0,-89.0,112.0
127.0,128.0,127.0,126.0,126.0,129.0,126.0,130.0,-1.0,107.0,-68.0,127.0,127.0,127.0,-118.0,-89.0,112.0
127.0,128.0,127.0,126.0,126.0,130.0,125.0,130.0,-1.0,107.0,-68.0,127.0,127.0,127.0,-118.0,-89.0,112.0
127.0,128.0,127.0,126.0,126.0,130.0,125.0,130.0,-1.0,107.0,-68.0,127.0,127.0,127.0,-118.0,-89.0,112.0
127.0,128.0,127.0,126.0,126.0,130.0,125.0,130.0,-1.0,107.0,-68.0,127.0,127.0,127.0,-118.0,-89.0,112.0
127.0,128.0,127.0,126.0,126.0,130.0,125.0,130.0,-1.0,107.0,-68.0,127.0,127.0,127.0,-118.0,-89.0,112.0
127.0,128.0,127.0,126.0,126.0,130.0,125.0,130.0,-1.0,107.0,-68.0,127.0,127.0,127.0,-118.0,-89.0,112.0
127.0,128.0,127.0,126.0,126.0,130.0,125.0,130.0,-1.0,107.0,-68.0,127.0,127.0,127.0,-118.0,-89.0,112.0
127.0,128.0,127.0,126.0,126.0,130.0,125.0,130.0,-1.0,107.0,-68.0,127.0,127.0,127.0,-118.0,-89.0,112.0
127.0,128.0,126.0,126.0,127.0,130.0,126.0,130.0,-1.0,107.0,-69.0,127.0,127.0,127.0,-118.0,-89.0,112.0
127.0,128.0,126.0,126.0,127.0,130.0,126.0,130.0,-1.0,107.0,-69.0,127.0,127.0,127.0,-118.0,-89.0,112.0
127.0,128.0,126.0,126.0,126.0,131.0,126.0,130.0,-1.0,107.0,-69.0,127.0,127.0,127.0,-118.0,-89.0,112.0
127.0,128.0,126.0,126.0,126.0,131.0,126.0,130.0,-1.0,107.0,-69.0,127.0,127.0,127.0,-118.0,-89.0,112.0
127.0,128.0,126.0,126.0,126.0,131.0,126.0,130.0,-1.0,107.0,-69.0,127.0,127.0,127.0,-118.0,-89.0,112.0
127.0,128.0,126.0,126.0,126.0,130.0,126.0,130.0,-1.0,107.0,-69.0,127.0,127.0,127.0,-118.0,-89.0,112.0
127.0,128.0,126.0,126.0,127.0,130.0,126.0,130.0,-1.0,107.0,-69.0,127.0,127.0,127.0,-118.0,-89.0,112.0
127.0,128.0,126.0,126.0,127.0,130.0,126.0,130.0,-1.0,107.0,-69.0,127.0,127.0,127.0,-118.0,-89.0,112.0
127.0,128.0,126.0,126.0,127.0,130.0,126.0,130.0,-1.0,107.0,-69.0,127.0,127.0,127.0,-118.0,-89.0,112.0
127.0,128.0,127.0,126.0,127.0,130.0,126.0,129.0,-1.0,107.0,-69.0,127.0,127.0,127.0,-118.0,-89.0,112.0
127.0,127.0,126.0,126.0,126.0,130.0,125.0,130.0,-1.0,106.0,-69.0,127.0,127.0,127.0,-118.0,-89.0,112.0
127.0,128.0,126.0,126.0,126.0,130.0,125.0,130.0,-1.0,106.0,-69.0,127.0,127.0,127.0,-118.0,-89.0,112.0
127.0,128.0,126.0,126.0,126.0,130.0,125.0,130.0,-1.0,106.0,-69.0,127.0,127.0,127.0,-118.0,-89.0,112.0
127.0,127.0,126.0,126.0,126.0,130.0,125.0,130.0,-1.0,106.0,-69.0,127.0,127.0,127.0,-118.0,-89.0,112.0
127.0,127.0,126.0,126.0,126.0,130.0,125.0,130.0,-1.0,106.0,-69.0,127.0,127.0,127.0,-118.0,-89.0,112.0
127.0,127.0,126.0,126.0,126.0,130.0,125.0,130.0,-1.0,106.0,-69.0,127.0,127.0,127.0,-118.0,-89.0,112.0
127.0,127.0,126.0,126.0,126.0,130.0,125.0,130.0,-1.0,106.0,-69.0,127.0,127.0,127.0,-118.0,-89.0,112.0
127.0,127.0,127.0,126.0,127.0,130.0,126.0,130.0,-1.0,106.0,-69.0,127.0,127.0,127.0,-118.0,-89.0,112.0
127.0,128.0,126.0,126.0,126.0,130.0,125.0,130.0,-1.0,106.0,-69.0,127.0,127.0,127.0,-118.0,-89.0,112.0
127.0,127.0,126.0,126.0,126.0,130.0,125.0,130.0,-1.0,106.0,-69.0,127.0,127.0,127.0,-118.0,-89.0,112.0
127.0,126.0,127.0,126.0,126.0,129.0,127.0,129.0,-1.0,106.0,-69.0,127.0,127.0,127.0,-118.0,-89.0,112.0
127.0,126.0,126.0,126.0,126.0,129.0,127.0,129.0,-1.0,106.0,-69.0,127.0,127.0,127.0,-118.0,-89.0,112.0
127.0,126.0,126.0,126.0,126.0,129.0,127.0,129.0,-1.0,106.0,-69.0,127.0,127.0,127.0,-118.0,-89.0,112.0
127.0,127.0,126.0,126.0,126.0,130.0,127.0,129.0,-1.0,106.0,-69.0,127.0,127.0,127.0,-118.0,-89.0,112.0
127.0,127.0,126.0,126.0,126.0,130.0,127.0,129.0,-1.0,106.0,-69.0,127.0,127.0,127.0,-118.0,-89.0,112.0
127.0,127.0,126.0,126.0,126.0,130.0,127.0,129.0,-1.0,106.0,-69.0,127.0,127.0,127.0,-118.0,-89.0,112.0
127.0,127.0,126.0,126.0,126.0,130.0,127.0,129.0,-1.0,106.0,-69.0,127.0,127.0,127.0,-118.0,-89.0,112.0
127.0,127.0,126.0,126.0,126.0,129.0,127.0,130.0,-1.0,106.0,-69.0,127.0,127.0,127.0,-118.0,-89.0,112.0
127.0,126.0,126.0,126.0,126.0,129.0,127.0,129.0,-1.0,106.0,-69.0,127.0,127.0,127.0,-118.0,-89.0,112.0
127.0,126.0,126.0,126.0,126.0,129.0,127.0,129.0,-1.0,106.0,-69.0,127.0,127.0,127.0,-118.0,-89.0,112.0
127.0,127.0,126.0,126.0,126.0,130.0,126.0,129.0,-1.0,106.0,-69.0,127.0,127.0,127.0,-118.0,-89.0,112.0
127.0,127.0,126.0,126.0,126.0,130.0,126.0,129.0,-1.0,106.0,-69.0,127.0,127.0,127.0,-118.0,-89.0,112.0
127.0,127.0,126.0,126.0,126.0,129.0,126.0,129.0,-1.0,106.0,-69.0,127.0,127.0,127.0,-118.0,-89.0,112.0
127.0,127.0,126.0,126.0,126.0,129.0,126.0,129.0,-1.0,106.0,-69.0,127.0,127.0,127.0,-118.0,-89.0,112.0
127.0,127.0,126.0,126.0,126.0,129.0,127.0,129.0,-1.0,106.0,-69.0,127.0,127.0,127.0,-118.0,-89.0,112.0
127.0,127.0,126.0,126.0,126.0,129.0,127.0,129.0,-1.0,106.0,-69.0,127.0,127.0,127.0,-118.0,-89.0,112.0
127.0,127.0,126.0,126.0,126.0,130.0,126.0,129.0,-1.0,106.0,-69.0,127.0,127.0,127.0,-118.0,-89.0,112.0
127.0,127.0,126.0,126.0,126.0,130.0,126.0,129.0,-1.0,106.0,-69.0,127.0,127.0,127.0,-118.0,-89.0,112.0
127.0,127.0,126.0,126.0,126.0,130.0,126.0,129.0,-1.0,106.0,-69.0,127.0,127.0,127.0,-118.0,-89.0,112.0
127.0,127.0,126.0,126.0,126.0,130.0,126.0,129.0,-1.0,106.0,-69.0,127.0,127.0,127.0,-118.0,-89.0,112.0
127.0,128.0,126.0,126.0,126.0,130.0,127.0,129.0,-1.0,106.0,-68.0,127.0,127.0,127.0,-118.0,-89.0,112.0
127.0,128.0,126.0,126.0,126.0,130.0,127.0,129.0,-1.0,106.0,-68.0,127.0,127.0,127.0,-118.0,-89.0,112.0
127.0,128.0,126.0,126.0,126.0,130.0,127.0,129.0,-1.0,106.0,-68.0,127.0,127.0,127.0,-118.0,-89.0,112.0
127.0,128.0,126.0,126.0,126.0,130.0,127.0,129.0,-1.0,106.0,-68.0,127.0,127.0,127.0,-118.0,-89.0,112.0
127.0,128.0,126.0,126.0,126.0,130.0,127.0,129.0,-1.0,106.0,-68.0,127.0,127.0,127.0,-118.0,-89.0,112.0
127.0,128.0,126.0,126.0,126.0,130.0,127.0,129.0,-1.0,106.0,-68.0,127.0,127.0,127.0,-118.0,-89.0,112.0
127.0,128.0,126.0,126.0,126.0,130.0,127.0,129.0,-1.0,106.0,-68.0,127.0,127.0,127.0,-118.0,-89.0,112.0
127.0,128.0,126.0,126.0,126.0,130.0,127.0,129.0,-1.0,106.0,-68.0,127.0,127.0,127.0,-118.0,-89.0,112.0
127.0,128.0,126.0,126.0,126.0,130.0,127.0,129.0,-1.0,106.0,-68.0,127.0,127.0,127.0,-118.0,-89.0,112.0
127.0,128.0,126.0,126.0,126.0,130.0,127.0,129.0,-1.0,106.0,-68.0,127.0,127.0,127.0,-118.0,-89.0,112.0
127.0,129.0,126.0,127.0,126.0,130.0,127.0,129.0,-1.0,107.0,-68.0,127.0,127.0,127.0,-118.0,-89.0,112.0
127.0,128.0,126.0,127.0,126.0,130.0,127.0,129.0,-1.0,107.0,-68.0,127.0,127.0,127.0,-118.0,-89.0,112.0
127.0,128.0,126.0,127.0,126.0,129.0,127.0,129.0,-1.0,107.0,-68.0,127.0,127.0,127.0,-118.0,-89.0,112.0
127.0,128.0,126.0,126.0,126.0,129.0,127.0,129.0,-1.0,107.0,-68.0,127.0,127.0,127.0,-118.0,-89.0,112.0
127.0,128.0,126.0,126.0,126.0,129.0,127.0,129.0,-1.0,107.0,-68.0,127.0,127.0,127.0,-118.0,-89.0,112.0
127.0,129.0,126.0,127.0,126.0,130.0,126.0,129.0,-1.0,107.0,-68.0,127.0,127.0,127.0,-118.0,-89.0,112.0
127.0,129.0,126.0,127.0,126.0,130.0,126.0,129.0,-1.0,107.0,-68.0,127.0,127.0,127.0,-118.0,-89.0,112.0
127.0,128.0,126.0,127.0,126.0,130.0,126.0,129.0,-1.0,107.0,-68.0,127.0,127.0,127.0,-118.0,-89.0,112.0
127.0,129.0,126.0,127.0,126.0,130.0,127.0,128.0,-1.0,107.0,-68.0,127.0,127.0,127.0,-118.0,-89.0,112.0
127.0,129.0,126.0,127.0,126.0,130.0,126.0,129.0,-1.0,107.0,-68.0,127.0,127.0,127.0,-118.0,-89.0,112.0
127.0,129.0,126.0,126.0,126.0,130.0,127.0,128.0,-1.0,107.0,-68.0,127.0,127.0,127.0,-118.0,-89.0,112.0
127.0,129.0,126.0,126.0,126.0,130.0,127.0,128.0,-1.0,107.0,-68.0,127.0,127.0,127.0,-118.0,-89.0,112.0
127.0,129.0,126.0,126.0,126.0,130.0,127.0,128.0,-1.0,107.0,-68.0,127.0,127.0,127.0,-118.0,-89.0,112.0
127.0,129.0,126.0,126.0,126.0,130.0,127.0,128.0,-1.0,107.0,-68.0,127.0,127.0,127.0,-118.0,-89.0,112.0
127.0,129.0,126.0,126.0,126.0,130.0,126.0,128.0,-1.0,107.0,-68.0,127.0,127.0,127.0,-118.0,-89.0,112.0
127.0,129.0,126.0,126.0,126.0,130.0,126.0,128.0,-1.0,107.0,-68.0,127.0,127.0,127.0,-118.0,-89.0,112.0
127.0,129.0,126.0,126.0,126.0,130.0,126.0,128.0,-1.0,107.0,-68.0,127.0,127.0,127.0,-118.0,-89.0,112.0
127.0,129.0,126.0,126.0,126.0,130.0,126.0,128.0,-1.0,107.0,-68.0,127.0,127.0,127.0,-118.0,-89.0,112.0
