emg1,emg2,emg3,emg4,emg5,emg6,emg7,emg8,acc_x,acc_y,acc_z,gyro_x,gyro_y,gyro_z,angle_pitch,angle_roll,angle_yaw
127.0,127.0,127.0,127.0,127.0,127.0,126.0,128.0,-1.0,106.0,-74.0,127.0,127.0,127.0,-116.0,-87.0,105.0
127.0,127.0,127.0,127.0,127.0,127.0,126.0,128.0,-1.0,106.0,-74.0,127.0,127.0,127.0,-116.0,-87.0,105.0
127.0,127.0,127.0,127.0,127.0,127.0,126.0,128.0,-1.0,106.0,-74.0,127.0,127.0,127.0,-116.0,-87.0,105.0
127.0,127.0,127.0,127.0,127.0,127.0,126.0,128.0,-1.0,106.0,-74.0,127.0,127.0,127.0,-116.0,-87.0,105.0
127.0,127.0,127.0,127.0,127.0,127.0,126.0,128.0,-1.0,106.0,-74.0,127.0,127.0,127.0,-116.0,-87.0,105.0
127.0,127.0,127.0,127.0,127.0,127.0,126.0,128.0,-1.0,106.0,-74.0,127.0,127.0,127.0,-116.0,-87.0,105.0
127.0,127.0,127.0,127.0,127.0,127.0,126.0,128.0,-1.0,106.0,-74.0,127.0,127.0,127.0,-116.0,-87.0,105.0
127.0,127.0,127.0,127.0,127.0,127.0,126.0,128.0,-1.0,106.0,-74.0,127.0,127.0,127.0,-116.0,-87.0,105.0
127.0,127.0,127.0,127.0,127.0,127.0,126.0,128.0,-1.0,106.0,-74.0,127.0,127.0,127.0,-116.0,-87.0,105.0
127.0,127.0,127.0,127.0,126.0,127.0,126.0,128.0,-1.0,106.0,-74.0,127.0,127.0,127.0,-116.0,-87.0,105.0
127.0,127.0,127.0,127.0,126.0,127.0,126.0,128.0,-1.0,106.0,-74.0,127.0,127.0,127.0,-116.0,-87.0,105.0
127.0,127.0,127.0,127.0,126.0,127.0,126.0,128.0,-1.0,106.0,-74.0,127.0,127.0,127.0,-116.0,-87.0,105.0
127.0,127.0,127.0,127.0,127.0,127.0,126.0,128.0,-1.0,106.0,-74.0,127.0,127.0,127.0,-116.0,-87.0,105.0
127.0,127.0,127.0,127.0,126.0,127.0,126.0,128.0,-1.0,106.0,-74.0,127.0,127.0,127.0,-116.0,-87.0,105.0
127.0,127.0,127.0,127.0,127.0,127.0,126.0,128.0,-1.0,106.0,-74.0,127.0,127.0,127.0,-116.0,-87.0,105.0
127.0,128.0,126.0,127.0,126.0,127.0,126.0,128.0,-1.0,106.0,-74.0,127.0,127.0,127.0,-116.0,-87.0,105.0
127.0,128.0,127.0,127.0,126.0,127.0,126.0,128.0,-1.0,106.0,-74.0,127.0,127.0,127.0,-116.0,-87.0,105.0
127.0,127.0,127.0,127.0,126.0,127.0,126.0,128.0,-1.0,106.0,-74.0,127.0,127.0,127.0,-116.0,-87.0,105.0
127.0,127.0,127.0,127.0,126.0,127.0,126.0,128.0,-1.0,106.0,-74.0,127.0,127.0,127.0,-116.0,-87.0,105.0
127.0,127.0,127.0,127.0,126.0,129.0,126.0,128.0,-1.0,106.0,-73.0,127.0,127.0,127.0,-116.0,-87.0,105.0
127.0,127.0,127.0,127.0,127.0,128.0,126.0,128.0,-1.0,106.0,-73.0,127.0,127.0,127.0,-116.0,-87.0,105.0
127.0,127.0,127.0,127.0,127.0,128.0,126.0,128.0,-1.0,106.0,-73.0,127.0,127.0,127.0,-116.0,-87.0,105.0
127.0,127.0,127.0,127.0,127.0,128.0,126.0,128.0,-1.0,106.0,-73.0,127.0,127.0,127.0,-116.0,-87.0,105.0
127.0,127.0,127.0,127.0,127.0,128.0,126.0,128.0,-1.0,106.0,-73.0,127.0,127.0,127.0,-116.0,-87.0,105.0
127.0,127.0,127.0,127.0,126.0,128.0,126.0,128.0,-1.0,106.0,-73.0,127.0,127.0,127.0,-116.0,-87.0,105.0
127.0,127.0,127.0,127.0,126.0,129.0,126.0,128.0,-1.0,106.0,-73.0,127.0,127.0,127.0,-116.0,-87.0,105.0
127.0,127.0,127.0,127.0,126.0,128.0,126.0,128.0,-1.0,106.0,-73.0,127.0,127.0,127.0,-116.0,-87.0,105.0
127.0,127.0,127.0,127.0,126.0,128.0,126.0,128.0,-1.0,106.0,-73.0,127.0,127.0,127.0,-116.0,-87.0,105.0
127.0,127.0,127.0,127.0,127.0,128.0,126.0,128.0,-1.0,106.0,-73.0,127.0,127.0,127.0,-116.0,-87.0,105.0
127.0,127.0,127.0,127.0,126.0,128.0,126.0,128.0,-1.0,106.0,-73.0,127.0,127.0,127.0,-116.0,-87.0,105.0
127.0,127.0,127.0,127.0,126.0,128.0,126.0,128.0,-1.0,106.0,-73.0,127.0,127.0,127.0,-116.0,-87.0,105.0
127.0,127.0,127.0,127.0,126.0,127.0,126.0,128.0,-1.0,106.0,-73.0,127.0,127.0,127.0,-116.0,-87.0,105.0
127.0,127.0,127.0,127.0,126.0,127.0,126.0,128.0,-1.0,106.0,-73.0,127.0,127.0,127.0,-116.0,-87.0,105.0
127.0,127.0,127.0,127.0,126.0,128.0,126.0,128.0,-1.0,106.0,-73.0,127.0,127.0,127.0,-116.0,-87.0,105.0
127.0,127.0,127.0,127.0,126.0,128.0,125.0,128.0,-1.0,106.0,-73.0,127.0,127.0,127.0,-116.0,-87.0,105.0
127.0,127.0,127.0,127.0,126.0,128.0,125.0,128.0,-1.0,106.0,-73.0,127.0,127.0,127.0,-116.0,-87.0,105.0
127.0,127.0,127.0,127.0,126.0,128.0,125.0,128.0,-1.0,106.0,-73.0,127.0,127.0,127.0,-116.0,-87.0,105.0
127.0,127.0,127.0,127.0,126.0,128.0,126.0,128.0,-1.0,106.0,-73.0,127.0,127.0,127.0,-116.0,-87.0,105.0
127.0,127.0,127.0,127.0,126.0,128.0,126.0,128.0,-1.0,106.0,-73.0,127.0,127.0,127.0,-116.0,-87.0,105.0
127.0,127.0,127.0,127.0,126.0,128.0,126.0,128.0,-1.0,106.0,-73.0,127.0,127.0,127.0,-116.0,-87.0,105.0
127.0,127.0,127.0,127.0,126.0,127.0,126.0,128.0,-1.0,106.0,-73.0,127.0,127.0,127.0,-116.0,-87.0,105.0
127.0,127.0,127.0,127.0,126.0,127.0,126.0,128.0,-1.0,106.0,-73.0,127.0,127.0,127.0,-116.0,-87.0,105.0
127.0,127.0,127.0,127.0,126.0,127.0,126.0,128.0,-1.0,106.0,-73.0,127.0,127.0,127.0,-116.0,-87.0,105.0
127.0,127.0,127.0,127.0,127.0,127.0,126.0,128.0,-1.0,106.0,-73.0,127.0,127.0,127.0,-116.0,-87.0,105.0
127.0,127.0,127.0,127.0,127.0,127.0,126.0,128.0,-1.0,106.0,-73.0,127.0,127.0,127.0,-116.0,-87.0,105.0
127.0,127.0,127.0,127.0,126.0,127.0,126.0,128.0,-1.0,106.0,-73.0,127.0,127.0,127.0,-116.0,-87.0,105.0
127.0,127.0,127.0,127.0,126.0,128.0,126.0,128.0,-1.0,106.0,-73.0,127.0,127.0,127.0,-116.0,-87.0,105.0
127.0,127.0,127.0,127.0,126.0,128.0,126.0,128.0,-1.0,106.0,-73.0,127.0,127.0,127.0,-116.0,-87.0,105.0
127.0,127.0,127.0,127.0,126.0,128.0,126.0,128.0,-1.0,106.0,-73.0,127.0,127.0,127.0,-116.0,-87.0,105.0
127.0,127.0,127.0,127.0,126.0,128.0,125.0,128.0,-1.0,106.0,-73.0,127.0,127.0,127.0,-116.0,-87.0,105.0
127.0,127.0,127.0,127.0,126.0,128.0,125.0,128.0,-1.0,106.0,-73.0,127.0,127.0,127.0,-116.0,-87.0,105.0
127.0,127.0,127.0,127.0,126.0,128.0,125.0,128.0,-1.0,106.0,-73.0,127.0,127.0,127.0,-116.0,-87.0,105.0
127.0,127.0,127.0,127.0,126.0,128.0,126.0,128.0,-1.0,106.0,-73.0,127.0,127.0,127.0,-116.0,-87.0,105.0
127.0,127.0,127.0,127.0,126.0,128.0,126.0,128.0,-1.0,106.0,-73.0,127.0,127.0,127.0,-116.0,-87.0,105.0
127.0,127.0,127.0,127.0,126.0,128.0,126.0,128.0,-1.0,106.0,-73.0,127.0,127.0,127.0,-116.0,-87.0,105.0
127.0,127.0,127.0,127.0,126.0,128.0,126.0,128.0,-1.0,106.0,-73.0,127.0,127.0,127.0,-116.0,-87.0,105.0
127.0,127.0,127.0,127.0,127.0,128.0,126.0,128.0,-1.0,106.0,-73.0,127.0,127.0,127.0,-116.0,-87.0,105.0
127.0,127.0,127.0,127.0,127.0,128.0,126.0,128.0,-1.0,106.0,-73.0,127.0,127.0,127.0,-116.0,-87.0,105.0
127.0,127.0,127.0,127.0,127.0,128.0,126.0,128.0,-1.0,106.0,-73.0,127.0,127.0,127.0,-116.0,-87.0,105.0
127.0,127.0,127.0,127.0,126.0,127.0,126.0,128.0,-1.0,106.0,-73.0,127.0,127.0,127.0,-116.0,-87.0,105.0
127.0,127.0,127.0,127.0,126.0,127.0,126.0,128.0,-1.0,106.0,-73.0,127.0,127.0,127.0,-116.0,-87.0,105.0
127.0,127.0,127.0,127.0,126.0,127.0,126.0,128.0,-1.0,106.0,-73.0,127.0,127.0,127.0,-116.0,-87.0,105.0
127.0,127.0,127.0,127.0,126.0,127.0,126.0,128.0,-1.0,106.0,-73.0,127.0,127.0,127.0,-116.0,-87.0,105.0
127.0,127.0,127.0,127.0,126.0,127.0,126.0,128.0,-1.0,106.0,-73.0,127.0,127.0,127.0,-116.0,-87.0,105.0
127.0,127.0,127.0,127.0,126.0,127.0,126.0,128.0,-1.0,106.0,-73.0,127.0,127.0,127.0,-116.0,-87.0,105.0
127.0,127.0,127.0,127.0,126.0,127.0,126.0,128.0,-1.0,106.0,-73.0,127.0,127.0,127.0,-116.0,-87.0,105.0
127.0,127.0,127.0,127.0,126.0,127.0,126.0,128.0,-1.0,106.0,-73.0,127.0,127.0,127.0,-116.0,-87.0,105.0
127.0,127.0,127.0,127.0,126.0,127.0,126.0,128.0,-1.0,106.0,-73.0,127.0,127.0,127.0,-116.0,-87.0,105.0
127.0,127.0,127.0,127.0,126.0,127.0,126.0,128.0,-1.0,106.0,-73.0,127.0,127.0,127.0,-116.0,-87.0,105.0
127.0,127.0,127.0,128.0,126.0,128.0,126.0,128.0,-1.0,106.0,-73.0,127.0,127.0,127.0,-116.0,-87.0,105.0
127.0,127.0,127.0,128.0,126.0,128.0,126.0,128.0,-1.0,106.0,-73.0,127.0,127.0,127.0,-116.0,-87.0,105.0
127.0,127.0,127.0,128.0,126.0,127.0,126.0,128.0,-1.0,106.0,-73.0,127.0,127.0,127.0,-116.0,-87.0,105.0
127.0,127.0,127.0,128.0,126.0,127.0,126.0,128.0,-1.0,106.0,-73.0,127.0,127.0,127.0,-116.0,-87.0,105.0
127.0,127.0,127.0,128.0,126.0,127.0,126.0,128.0,-1.0,106.0,-73.0,127.0,127.0,127.0,-116.0,-87.0,105.0
127.0,127.0,127.0,128.0,127.0,128.0,126.0,128.0,-1.0,106.0,-73.0,127.0,127.0,127.0,-116.0,-87.0,105.0
127.0,127.0,127.0,128.0,127.0,128.0,126.0,128.0,-1.0,106.0,-73.0,127.0,127.0,127.0,-116.0,-87.0,105.0
127.0,127.0,127.0,128.0,126.0,127.0,126.0,128.0,-1.0,106.0,-73.0,127.0,127.0,127.0,-116.0,-87.0,105.0
127.0,127.0,127.0,128.0,126.0,128.0,126.0,128.0,-1.0,106.0,-73.0,127.0,127.0,127.0,-116.0,-87.0,105.0
127.0,127.0,127.0,128.0,126.0,128.0,126.0,128.0,-1.0,106.0,-73.0,127.0,127.0,127.0,-116.0,-87.0,105.0
127.0,127.0,127.0,127.0,126.0,127.0,126.0,128.0,-1.0,106.0,-73.0,127.0,127.0,127.0,-116.0,-87.0,105.0
127.0,127.0,127.0,127.0,126.0,128.0,126.0,128.0,-1.0,106.0,-73.0,127.0,127.0,127.0,-116.0,-87.0,105.0
127.0,127.0,127.0,127.0,126.0,128.0,126.0,128.0,-1.0,106.0,-73.0,127.0,127.0,127.0,-116.0,-87.0,105.0
127.0,127.0,127.0,127.0,126.0,127.0,126.0,128.0,-1.0,106.0,-73.0,127.0,127.0,127.0,-116.0,-87.0,105.0
127.0,127.0,127.0,127.0,126.0,127.0,126.0,128.0,-1.0,106.0,-73.0,127.0,127.0,127.0,-116.0,-87.0,105.0
127.0,127.0,127.0,127.0,126.0,127.0,126.0,128.0,-1.0,106.0,-73.0,127.0,127.0,127.0,-116.0,-87.0,105.0
127.0,127.0,127.0,127.0,126.0,127.0,126.0,128.0,-1.0,106.0,-73.0,127.0,127.0,127.0,-116.0,-87.0,105.0
127.0,127.0,127.0,127.0,126.0,127.0,127.0,128.0,-1.0,106.0,-73.0,127.0,127.0,127.0,-116.0,-87.0,105.0
127.0,127.0,127.0,127.0,126.0,127.0,127.0,128.0,-1.0,106.0,-73.0,127.0,127.0,127.0,-116.0,-87.0,105.0
127.0,127.0,127.0,127.0,126.0,127.0,127.0,128.0,-1.0,106.0,-73.0,127.0,127.0,127.0,-116.0,-87.0,105.0
127.0,127.0,127.0,127.0,126.0,128.0,126.0,128.0,-1.0,106.0,-73.0,127.0,127.0,127.0,-116.0,-87.0,105.0
127.0,127.0,127.0,127.0,126.0,128.0,126.0,128.0,-1.0,106.0,-73.0,127.0,127.0,127.0,-116.0,-87.0,105.0
127.0,127.0,127.0,127.0,126.0,127.0,126.0,128.0,-1.0,106.0,-73.0,127.0,127.0,127.0,-116.0,-87.0,105.0
127.0,127.0,127.0,127.0,126.0,129.0,125.0,128.0,-1.0,106.0,-73.0,127.0,127.0,127.0,-116.0,-87.0,105.0
127.0,127.0,127.0,127.0,126.0,129.0,125.0,128.0,-1.0,106.0,-73.0,127.0,127.0,127.0,-116.0,-87.0,105.0
127.0,127.0,127.0,127.0,126.0,129.0,125.0,128.0,-1.0,106.0,-73.0,127.0,127.0,127.0,-116.0,-87.0,105.0
127.0,127.0,127.0,127.0,126.0,128.0,125.0,128.0,-1.0,106.0,-73.0,127.0,127.0,127.0,-116.0,-87.0,105.0
127.0,127.0,127.0,127.0,126.0,128.0,126.0,128.0,-1.0,106.0,-73.0,127.0,127.0,127.0,-116.0,-87.0,105.0
127.0,127.0,127.0,127.0,126.0,128.0,126.0,128.0,-1.0,106.0,-73.0,127.0,127.0,127.0,-116.0,-87.0,105.0
127.0,127.0,127.0,127.0,126.0,128.0,126.0,128.0,-1.0,106.0,-73.0,127.0,127.0,127.0,-116.0,-87.0,105.0
127.0,127.0,127.0,127.0,126.0,127.0,126.0,128.0,-1.0,106.0,-73.0,127.0,127.0,127.0,-116.0,-87.0,105.0
127.0,127.0,127.0,127.0,126.0,127.0,126.0,128.0,-1.0,106.0,-73.0,127.0,127.0,127.0,-116.0,-87.0,105.0
127.0,127.0,127.0,127.0,126.0,128.0,125.0,128.0,-1.0,106.0,-73.0,127.0,127.0,127.0,-116.0,-87.0,105.0
127.0,127.0,126.0,127.0,126.0,128.0,125.0,128.0,-1.0,106.0,-73.0,127.0,127.0,127.0,-116.0,-87.0,105.0
127.0,127.0,127.0,127.0,126.0,128.0,125.0,128.0,-1.0,106.0,-73.0,127.0,127.0,127.0,-116.0,-87.0,105.0
127.0,127.0,127.0,127.0,126.0,128.0,125.0,128.0,-1.0,106.0,-73.0,127.0,127.0,127.0,-116.0,-87.0,105.0
127.0,127.0,127.0,127.0,126.0,128.0,125.0,128.0,-1.0,106.0,-73.0,127.0,127.0,127.0,-116.0,-87.0,105.0
127.0,127.0,127.0,127.0,126.0,127.0,125.0,128.0,-1.0,106.0,-73.0,127.0,127.0,127.0,-116.0,-87.0,105.0
127.0,127.0,127.0,127.0,126.0,127.0,126.0,128.0,-1.0,106.0,-73.0,127.0,127.0,127.0,-116.0,-87.0,105.0
127.0,127.0,127.0,127.0,126.0,127.0,126.0,128.0,-1.0,106.0,-73.0,127.0,127.0,127.0,-116.0,-87.0,105.0
127.0,127.0,127.0,127.0,126.0,127.0,126.0,128.0,-1.0,106.0,-73.0,127.0,127.0,127.0,-116.0,-87.0,105.0
127.0,127.0,127.0,127.0,126.0,127.0,126.0,128.0,-1.0,106.0,-73.0,127.0,127.0,127.0,-116.0,-87.0,105.0
127.0,127.0,126.0,127.0,126.0,127.0,125.0,128.0,-1.0,106.0,-73.0,127.0,127.0,127.0,-116.0,-87.0,105.0
127.0,127.0,126.0,127.0,126.0,127.0,125.0,128.0,-1.0,106.0,-73.0,127.0,127.0,127.0,-116.0,-87.0,105.0
127.0,127.0,126.0,127.0,126.0,127.0,125.0,128.0,-1.0,106.0,-73.0,127.0,127.0,127.0,-116.0,-87.0,105.0
127.0,127.0,126.0,127.0,126.0,127.0,126.0,128.0,-1.0,106.0,-73.0,127.0,127.0,127.0,-116.0,-87.0,105.0
127.0,127.0,126.0,127.0,126.0,127.0,126.0,128.0,-1.0,106.0,-73.0,127.0,127.0,127.0,-116.0,-87.0,105.0
127.0,127.0,127.0,127.0,126.0,127.0,126.0,128.0,-1.0,106.0,-73.0,127.0,127.0,127.0,-116.0,-87.0,105.0
127.0,127.0,127.0,127.0,126.0,127.0,126.0,128.0,-1.0,106.0,-73.0,127.0,127.0,127.0,-116.0,-87.0,105.0
127.0,127.0,127.0,127.0,126.0,127.0,126.0,128.0,-1.0,106.0,-73.0,127.0,127.0,127.0,-116.0,-87.0,105.0
127.0,127.0,127.0,127.0,126.0,127.0,126.0,128.0,-1.0,106.0,-73.0,127.0,127.0,127.0,-116.0,-87.0,105.0
127.0,127.0,127.0,127.0,126.0,128.0,125.0,128.0,-1.0,106.0,-73.0,127.0,127.0,127.0,-116.0,-87.0,105.0
127.0,127.0,127.0,127.0,126.0,128.0,125.0,128.0,-1.0,106.0,-73.0,127.0,127.0,127.0,-116.0,-87.0,105.0
127.0,127.0,127.0,127.0,126.0,128.0,125.0,128.0,-1.0,106.0,-73.0,127.0,127.0,127.0,-116.0,-87.0,105.0
127.0,127.0,127.0,127.0,126.0,128.0,125.0,128.0,-1.0,106.0,-73.0,127.0,127.0,127.0,-116.0,-87.0,105.0
127.0,127.0,127.0,127.0,126.0,128.0,125.0,128.0,-1.0,106.0,-73.0,127.0,127.0,127.0,-116.0,-87.0,105.0
127.0,127.0,127.0,127.0,126.0,128.0,126.0,128.0,-1.0,106.0,-73.0,127.0,127.0,127.0,-116.0,-87.0,105.0
127.0,127.0,127.0,127.0,126.0,128.0,126.0,128.0,-1.0,106.0,-73.0,127.0,127.0,127.0,-116.0,-87.0,105.0
127.0,127.0,127.0,127.0,127.0,128.0,126.0,128.0,-1.0,106.0,-73.0,127.0,127.0,127.0,-116.0,-87.0,105.0
127.0,127.0,127.0,127.0,127.0,128.0,126.0,128.0,-1.0,106.0,-73.0,127.0,127.0,127.0,-116.0,-87.0,105.0
127.0,127.0,127.0,127.0,126.0,128.0,125.0,128.0,-1.0,106.0,-73.0,127.0,127.0,127.0,-116.0,-87.0,105.0
127.0,127.0,127.0,127.0,126.0,128.0,125.0,128.0,-1.0,106.0,-73.0,127.0,127.0,127.0,-116.0,-87.0,105.0
127.0,127.0,127.0,127.0,126.0,128.0,125.0,128.0,-1.0,106.0,-73.0,127.0,127.0,127.0,-116.0,-87.0,105.0
127.0,127.0,127.0,127.0,126.0,128.0,125.0,128.0,-1.0,106.0,-73.0,127.0,127.0,127.0,-116.0,-87.0,105.0
127.0,127.0,127.0,127.0,126.0,128.0,125.0,128.0,-1.0,106.0,-73.0,127.0,127.0,127.0,-116.0,-87.0,105.0
127.0,127.0,127.0,127.0,126.0,128.0,126.0,128.0,-1.0,106.0,-73.0,127.0,127.0,127.0,-116.0,-87.0,105.0
127.0,127.0,127.0,127.0,126.0,128.0,126.0,128.0,-1.0,106.0,-73.0,127.0,127.0,127.0,-116.0,-87.0,105.0
127.0,127.0,127.0,127.0,126.0,128.0,126.0,128.0,-1.0,106.0,-73.0,127.0,127.0,127.0,-116.0,-87.0,105.0
127.0,127.0,127.0,127.0,126.0,128.0,126.0,128.0,-1.0,106.0,-73.0,127.0,127.0,127.0,-116.0,-87.0,105.0
127.0,127.0,127.0,127.0,126.0,128.0,126.0,128.0,-1.0,106.0,-73.0,127.0,127.0,127.0,-116.0,-87.0,105.0
127.0,127.0,127.0,127.0,126.0,129.0,125.0,128.0,-1.0,106.0,-73.0,127.0,127.0,127.0,-116.0,-87.0,105.0
127.0,127.0,127.0,127.0,126.0,128.0,126.0,128.0,-1.0,106.0,-73.0,127.0,127.0,127.0,-116.0,-87.0,105.0
127.0,127.0,127.0,127.0,126.0,128.0,126.0,128.0,-1.0,106.0,-73.0,127.0,127.0,127.0,-116.0,-87.0,105.0
127.0,127.0,127.0,127.0,126.0,128.0,126.0,128.0,-1.0,106.0,-73.0,127.0,127.0,127.0,-116.0,-87.0,105.0
127.0,127.0,127.0,127.0,126.0,128.0,126.0,128.0,-1.0,106.0,-73.0,127.0,127.0,127.0,-116.0,-87.0,105.0
127.0,127.0,127.0,127.0,126.0,128.0,126.0,128.0,-1.0,106.0,-73.0,127.0,127.0,127.0,-116.0,-87.0,105.0
127.0,127.0,127.0,127.0,126.0,128.0,126.0,128.0,-1.0,106.0,-73.0,127.0,127.0,127.0,-116.0,-87.0,105.0
127.0,127.0,127.0,127.0,126.0,128.0,127.0,128.0,-1.0,106.0,-73.0,127.0,127.0,127.0,-116.0,-87.0,105.0
127.0,127.0,127.0,127.0,126.0,128.0,126.0,128.0,-1.0,106.0,-73.0,127.0,127.0,127.0,-116.0,-87.0,105.0
127.0,127.0,127.0,127.0,126.0,128.0,125.0,128.0,-1.0,106.0,-73.0,127.0,127.0,127.0,-116.0,-87.0,105.0
127.0,127.0,127.0,127.0,126.0,128.0,125.0,128.0,-1.0,106.0,-73.0,127.0,127.0,127.0,-116.0,-87.0,105.0
127.0,127.0,127.0,127.0,126.0,128.0,126.0,128.0,-1.0,106.0,-73.0,127.0,127.0,127.0,-116.0,-87.0,105.0
127.0,127.0,127.0,127.0,126.0,128.0,126.0,128.0,-1.0,106.0,-73.0,127.0,127.0,127.0,-116.0,-87.0,105.0
127.0,127.0,127.0,127.0,126.0,128.0,126.0,128.0,-1.0,106.0,-73.0,127.0,127.0,127.0,-116.0,-87.0,105.0
127.0,127.0,127.0,127.0,126.0,128.0,126.0,128.0,-1.0,106.0,-73.0,127.0,127.0,127.0,-116.0,-87.0,105.0
127.0,127.0,127.0,127.0,126.0,128.0,126.0,128.0,-1.0,106.0,-73.0,127.0,127.0,127.0,-116.0,-87.0,105.0
127.0,127.0,127.0,127.0,126.0,128.0,126.0,128.0,-1.0,106.0,-73.0,127.0,127.0,127.0,-116.0,-87.0,105.0
127.0,127.0,127.0,127.0,127.0,127.0,126.0,128.0,-1.0,106.0,-73.0,127.0,127.0,127.0,-116.0,-87.0,105.0
127.0,127.0,127.0,127.0,126.0,128.0,126.0,128.0,-1.0,106.0,-73.0,127.0,127.0,127.0,-116.0,-87.0,105.0
127.0,127.0,127.0,127.0,126.0,128.0,125.0,128.0,-1.0,106.0,-73.0,127.0,127.0,127.0,-116.0,-87.0,105.0
127.0,127.0,127.0,127.0,126.0,127.0,127.0,128.0,-1.0,106.0,-73.0,127.0,127.0,127.0,-116.0,-87.0,105.0
127.0,127.0,126.0,127.0,126.0,128.0,126.0,128.0,-1.0,106.0,-73.0,127.0,127.0,127.0,-116.0,-87.0,105.0
127.0,127.0,126.0,127.0,126.0,128.0,126.0,128.0,-1.0,106.0,-73.0,127.0,127.0,127.0,-116.0,-87.0,105.0
127.0,127.0,127.0,127.0,126.0,128.0,126.0,128.0,-1.0,106.0,-73.0,127.0,127.0,127.0,-116.0,-87.0,105.0
127.0,127.0,127.0,127.0,126.0,128.0,127.0,128.0,-1.0,106.0,-73.0,127.0,127.0,127.0,-116.0,-87.0,105.0
127.0,127.0,127.0,127.0,126.0,128.0,127.0,128.0,-1.0,106.0,-73.0,127.0,127.0,127.0,-116.0,-87.0,105.0
127.0,127.0,127.0,127.0,127.0,127.0,127.0,128.0,-1.0,106.0,-73.0,127.0,127.0,127.0,-116.0,-87.0,105.0
127.0,127.0,127.0,127.0,127.0,127.0,127.0,128.0,-1.0,106.0,-73.0,127.0,127.0,127.0,-116.0,-87.0,105.0
127.0,127.0,127.0,127.0,126.0,127.0,127.0,128.0,-1.0,106.0,-73.0,127.0,127.0,127.0,-116.0,-87.0,105.0
127.0,127.0,127.0,127.0,126.0,127.0,127.0,128.0,-1.0,106.0,-73.0,127.0,127.0,127.0,-116.0,-87.0,105.0
127.0,127.0,127.0,127.0,127.0,127.0,127.0,128.0,-1.0,106.0,-73.0,127.0,127.0,127.0,-116.0,-87.0,105.0
127.0,127.0,127.0,127.0,127.0,127.0,127.0,128.0,-1.0,106.0,-73.0,127.0,127.0,127.0,-116.0,-87.0,105.0
127.0,127.0,127.0,127.0,127.0,127.0,127.0,128.0,-1.0,106.0,-73.0,127.0,127.0,127.0,-116.0,-87.0,105.0
127.0,127.0,127.0,127.0,127.0,127.0,127.0,127.0,-1.0,106.0,-73.0,127.0,127.0,127.0,-116.0,-87.0,105.0
127.0,127.0,127.0,127.0,127.0,127.0,127.0,127.0,-1.0,106.0,-73.0,127.0,127.0,127.0,-116.0,-87.0,105.0
127.0,127.0,127.0,127.0,126.0,128.0,126.0,128.0,-1.0,106.0,-73.0,127.0,127.0,127.0,-116.0,-87.0,105.0
127.0,127.0,127.0,127.0,126.0,127.0,126.0,128.0,-1.0,106.0,-73.0,127.0,127.0,127.0,-116.0,-87.0,105.0
127.0,127.0,127.0,127.0,126.0,127.0,126.0,128.0,-1.0,106.0,-73.0,127.0,127.0,127.0,-116.0,-87.0,105.0
127.0,127.0,127.0,127.0,126.0,127.0,126.0,128.0,-1.0,106.0,-73.0,127.0,127.0,127.0,-116.0,-87.0,105.0
127.0,127.0,127.0,127.0,127.0,127.0,126.0,128.0,-1.0,106.0,-73.0,127.0,127.0,127.0,-116.0,-87.0,105.0
127.0,127.0,127.0,127.0,126.0,127.0,126.0,128.0,-1.0,106.0,-73.0,127.0,127.0,127.0,-116.0,-87.0,105.0
127.0,127.0,127.0,127.0,126.0,127.0,126.0,128.0,-1.0,106.0,-73.0,127.0,127.0,127.0,-116.0,-87.0,105.0
127.0,127.0,127.0,127.0,126.0,127.0,126.0,127.0,-1.0,106.0,-73.0,127.0,127.0,127.0,-116.0,-87.0,105.0
127.0,127.0,127.0,127.0,126.0,127.0,126.0,127.0,-1.0,106.0,-73.0,127.0,127.0,127.0,-116.0,-87.0,105.0
127.0,127.0,127.0,127.0,126.0,128.0,125.0,128.0,-1.0,106.0,-73.0,127.0,127.0,127.0,-116.0,-87.0,105.0
127.0,127.0,127.0,127.0,126.0,128.0,125.0,128.0,-1.0,106.0,-73.0,127.0,127.0,127.0,-116.0,-87.0,105.0
127.0,127.0,127.0,127.0,126.0,128.0,125.0,128.0,-1.0,106.0,-73.0,127.0,127.0,127.0,-116.0,-87.0,105.0
127.0,127.0,127.0,127.0,126.0,128.0,125.0,128.0,-1.0,106.0,-73.0,127.0,127.0,127.0,-116.0,-87.0,105.0
127.0,127.0,127.0,127.0,126.0,128.0,126.0,128.0,-1.0,106.0,-73.0,127.0,127.0,127.0,-116.0,-87.0,105.0
127.0,127.0,127.0,127.0,126.0,127.0,126.0,128.0,-1.0,106.0,-73.0,127.0,127.0,127.0,-116.0,-87.0,105.0
127.0,127.0,127.0,127.0,127.0,127.0,126.0,127.0,-1.0,106.0,-73.0,127.0,127.0,127.0,-116.0,-87.0,105.0
127.0,127.0,127.0,127.0,127.0,127.0,126.0,127.0,-1.0,106.0,-73.0,127.0,127.0,127.0,-116.0,-87.0,105.0
127.0,127.0,127.0,127.0,127.0,127.0,126.0,127.0,-1.0,106.0,-73.0,127.0,127.0,127.0,-116.0,-87.0,105.0
127.0,127.0,127.0,127.0,126.0,128.0,125.0,128.0,-1.0,106.0,-73.0,127.0,127.0,127.0,-116.0,-87.0,105.0
127.0,127.0,127.0,127.0,126.0,128.0,125.0,128.0,-1.0,106.0,-73.0,127.0,127.0,127.0,-116.0,-87.0,105.0
127.0,127.0,127.0,127.0,126.0,128.0,125.0,128.0,-1.0,106.0,-73.0,127.0,127.0,127.0,-116.0,-87.0,105.0
127.0,127.0,127.0,127.0,126.0,127.0,125.0,128.0,-1.0,106.0,-73.0,127.0,127.0,127.0,-116.0,-87.0,105.0
127.0,127.0,127.0,127.0,126.0,127.0,125.0,128.0,-1.0,106.0,-73.0,127.0,127.0,127.0,-116.0,-87.0,105.0
127.0,127.0,127.0,127.0,127.0,127.0,126.0,128.0,-1.0,106.0,-73.0,127.0,127.0,127.0,-116.0,-87.0,105.0
127.0,127.0,127.0,127.0,127.0,127.0,126.0,127.0,-1.0,106.0,-73.0,127.0,127.0,127.0,-116.0,-87.0,105.0
127.0,127.0,127.0,127.0,127.0,128.0,126.0,128.0,-1.0,106.0,-73.0,127.0,127.0,127.0,-116.0,-87.0,105.0
127.0,127.0,127.0,127.0,127.0,128.0,127.0,128.0,-1.0,106.0,-73.0,127.0,127.0,127.0,-116.0,-87.0,105.0
127.0,127.0,127.0,127.0,126.0,129.0,126.0,128.0,-1.0,106.0,-73.0,127.0,127.0,127.0,-116.0,-87.0,105.0
127.0,127.0,127.0,127.0,126.0,129.0,126.0,128.0,-1.0,106.0,-73.0,127.0,127.0,127.0,-116.0,-87.0,105.0
127.0,127.0,127.0,127.0,127.0,129.0,126.0,128.0,-1.0,106.0,-73.0,127.0,127.0,127.0,-116.0,-87.0,105.0
127.0,127.0,127.0,127.0,127.0,129.0,126.0,128.0,-1.0,106.0,-73.0,127.0,127.0,127.0,-116.0,-87.0,105.0
127.0,127.0,127.0,127.0,127.0,129.0,126.0,128.0,-1.0,106.0,-73.0,127.0,127.0,127.0,-116.0,-87.0,105.0
127.0,127.0,127.0,127.0,127.0,128.0,126.0,128.0,-1.0,106.0,-73.0,127.0,127.0,127.0,-116.0,-87.0,105.0
127.0,127.0,127.0,127.0,127.0,128.0,126.0,128.0,-1.0,106.0,-73.0,127.0,127.0,127.0,-116.0,-87.0,105.0
127.0,127.0,127.0,127.0,127.0,128.0,126.0,128.0,-1.0,106.0,-73.0,127.0,127.0,127.0,-116.0,-87.0,105.0
127.0,127.0,127.0,127.0,126.0,127.0,126.0,128.0,-1.0,106.0,-73.0,127.0,127.0,127.0,-116.0,-87.0,105.0
127.0,127.0,127.0,127.0,126.0,128.0,125.0,128.0,-1.0,106.0,-73.0,127.0,127.0,127.0,-116.0,-87.0,105.0
127.0,127.0,127.0,127.0,126.0,128.0,125.0,128.0,-1.0,106.0,-73.0,127.0,127.0,127.0,-116.0,-87.0,105.0
127.0,127.0,127.0,127.0,126.0,128.0,125.0,128.0,-1.0,106.0,-73.0,127.0,127.0,127.0,-116.0,-87.0,105.0
127.0,127.0,127.0,127.0,126.0,128.0,125.0,128.0,-1.0,106.0,-73.0,127.0,127.0,127.0,-116.0,-87.0,105.0
127.0,127.0,127.0,127.0,126.0,128.0,125.0,128.0,-1.0,106.0,-73.0,127.0,127.0,127.0,-116.0,-87.0,105.0
127.0,127.0,127.0,127.0,126.0,127.0,126.0,128.0,-1.0,106.0,-73.0,127.0,127.0,127.0,-116.0,-87.0,105.0
127.0,127.0,127.0,127.0,126.0,127.0,126.0,128.0,-1.0,106.0,-73.0,127.0,127.0,127.0,-116.0,-87.0,105.0
127.0,127.0,127.0,127.0,126.0,127.0,126.0,128.0,-1.0,106.0,-73.0,127.0,127.0,127.0,-116.0,-87.0,105.0
127.0,127.0,127.0,127.0,126.0,127.0,126.0,128.0,-1.0,106.0,-73.0,127.0,127.0,127.0,-116.0,-87.0,105.0
127.0,127.0,127.0,127.0,126.0,129.0,125.0,128.0,-1.0,106.0,-73.0,127.0,127.0,127.0,-116.0,-87.0,105.0
127.0,127.0,127.0,127.0,126.0,129.0,125.0,128.0,-1.0,106.0,-73.0,127.0,127.0,127.0,-116.0,-87.0,105.0
127.0,127.0,127.0,127.0,126.0,129.0,126.0,128.0,-1.0,106.0,-73.0,127.0,127.0,127.0,-116.0,-87.0,105.0
127.0,127.0,127.0,127.0,126.0,128.0,126.0,128.0,-1.0,106.0,-73.0,127.0,127.0,127.0,-116.0,-87.0,105.0
127.0,127.0,127.0,127.0,126.0,128.0,126.0,128.0,-1.0,106.0,-73.0,127.0,127.0,127.0,-116.0,-87.0,105.0
127.0,127.0,127.0,127.0,126.0,128.0,126.0,128.0,-1.0,106.0,-73.0,127.0,127.0,127.0,-116.0,-87.0,105.0
127.0,127.0,127.0,127.0,126.0,128.0,126.0,128.0,-1.0,106.0,-73.0,127.0,127.0,127.0,-116.0,-87.0,105.0
127.0,127.0,127.0,127.0,126.0,128.0,126.0,128.0,-1.0,106.0,-73.0,127.0,127.0,127.0,-116.0,-87.0,105.0
127.0,127.0,127.0,127.0,126.0,128.0,126.0,128.0,-1.0,106.0,-73.0,127.0,127.0,127.0,-116.0,-87.0,105.0
127.0,127.0,127.0,127.0,126.0,128.0,127.0,128.0,-1.0,106.0,-73.0,127.0,127.0,127.0,-116.0,-87.0,105.0
127.0,127.0,127.0,128.0,126.0,128.0,126.0,129.0,-1.0,106.0,-73.0,127.0,127.0,127.0,-116.0,-87.0,105.0
127.0,127.0,127.0,128.0,126.0,128.0,126.0,129.0,-1.0,106.0,-73.0,127.0,127.0,127.0,-116.0,-87.0,105.0
127.0,127.0,127.0,128.0,126.0,128.0,126.0,128.0,-1.0,106.0,-73.0,127.0,127.0,127.0,-116.0,-87.0,105.0
127.0,127.0,127.0,128.0,126.0,128.0,126.0,128.0,-1.0,106.0,-73.0,127.0,127.0,127.0,-116.0,-87.0,105.0
127.0,127.0,127.0,128.0,127.0,128.0,126.0,128.0,-1.0,106.0,-73.0,127.0,127.0,127.0,-116.0,-87.0,105.0
127.0,127.0,127.0,128.0,126.0,127.0,126.0,128.0,-1.0,106.0,-73.0,127.0,127.0,127.0,-116.0,-87.0,105.0
127.0,127.0,127.0,127.0,126.0,127.0,126.0,128.0,-1.0,106.0,-73.0,127.0,127.0,127.0,-116.0,-87.0,105.0
127.0,127.0,127.0,127.0,126.0,127.0,126.0,128.0,-1.0,106.0,-73.0,127.0,127.0,127.0,-116.0,-87.0,105.0
127.0,127.0,127.0,127.0,127.0,127.0,126.0,128.0,-1.0,106.0,-73.0,127.0,127.0,127.0,-116.0,-87.0,105.0
127.0,127.0,127.0,128.0,126.0,128.0,126.0,128.0,-1.0,106.0,-73.0,127.0,127.0,127.0,-116.0,-87.0,105.0
128.0,127.0,127.0,127.0,127.0,128.0,126.0,129.0,-1.0,106.0,-73.0,127.0,127.0,127.0,-116.0,-87.0,105.0
128.0,127.0,127.0,128.0,127.0,128.0,125.0,129.0,-1.0,106.0,-73.0,127.0,127.0,127.0,-116.0,-87.0,105.0
128.0,127.0,127.0,128.0,127.0,128.0,125.0,130.0,-1.0,106.0,-73.0,127.0,127.0,127.0,-116.0,-87.0,105.0
128.0,128.0,127.0,128.0,127.0,128.0,125.0,129.0,-1.0,106.0,-73.0,127.0,127.0,127.0,-116.0,-87.0,105.0
128.0,128.0,127.0,128.0,127.0,128.0,126.0,129.0,-1.0,106.0,-73.0,127.0,127.0,127.0,-116.0,-87.0,105.0
127.0,127.0,127.0,128.0,127.0,128.0,126.0,129.0,-1.0,106.0,-73.0,127.0,127.0,127.0,-116.0,-87.0,105.0
127.0,128.0,127.0,128.0,126.0,128.0,126.0,129.0,-1.0,106.0,-73.0,127.0,127.0,127.0,-116.0,-87.0,105.0
127.0,128.0,127.0,127.0,126.0,128.0,126.0,129.0,-1.0,106.0,-73.0,127.0,127.0,127.0,-116.0,-87.0,105.0
128.0,127.0,127.0,128.0,127.0,128.0,126.0,129.0,-1.0,106.0,-73.0,127.0,127.0,127.0,-116.0,-87.0,105.0
128.0,127.0,127.0,127.0,127.0,128.0,126.0,129.0,-1.0,106.0,-73.0,127.0,127.0,127.0,-116.0,-87.0,105.0
127.0,126.0,127.0,128.0,126.0,126.0,125.0,127.0,-1.0,106.0,-73.0,127.0,127.0,127.0,-116.0,-87.0,105.0
127.0,126.0,127.0,128.0,126.0,126.0,125.0,128.0,-1.0,106.0,-73.0,127.0,127.0,127.0,-116.0,-87.0,105.0
127.0,126.0,127.0,128.0,126.0,126.0,125.0,128.0,-1.0,106.0,-73.0,127.0,127.0,127.0,-116.0,-87.0,105.0
127.0,127.0,127.0,128.0,126.0,125.0,125.0,128.0,-1.0,106.0,-73.0,127.0,127.0,127.0,-116.0,-87.0,105.0
128.0,127.0,127.0,128.0,126.0,125.0,125.0,128.0,-1.0,106.0,-73.0,127.0,127.0,127.0,-116.0,-87.0,105.0
128.0,127.0,127.0,128.0,126.0,125.0,125.0,128.0,-1.0,106.0,-73.0,127.0,127.0,127.0,-116.0,-87.0,105.0
128.0,127.0,127.0,128.0,126.0,125.0,126.0,128.0,-1.0,106.0,-73.0,127.0,127.0,127.0,-116.0,-87.0,105.0
126.0,126.0,127.0,128.0,126.0,126.0,124.0,127.0,-1.0,106.0,-73.0,127.0,127.0,127.0,-116.0,-87.0,105.0
126.0,126.0,127.0,128.0,126.0,126.0,125.0,127.0,-1.0,106.0,-73.0,127.0,127.0,127.0,-116.0,-87.0,105.0
127.0,126.0,127.0,128.0,126.0,126.0,125.0,127.0,-1.0,106.0,-73.0,127.0,127.0,127.0,-116.0,-87.0,105.0
129.0,132.0,127.0,129.0,127.0,127.0,137.0,128.0,-1.0,106.0,-73.0,127.0,127.0,127.0,-116.0,-87.0,105.0
129.0,132.0,127.0,129.0,126.0,127.0,138.0,128.0,-1.0,106.0,-73.0,127.0,127.0,127.0,-116.0,-87.0,105.0
129.0,131.0,127.0,129.0,126.0,127.0,138.0,128.0,-1.0,106.0,-73.0,127.0,127.0,127.0,-116.0,-87.0,105.0
129.0,131.0,127.0,128.0,126.0,127.0,139.0,128.0,-1.0,106.0,-73.0,127.0,127.0,127.0,-116.0,-87.0,105.0
129.0,130.0,127.0,128.0,126.0,127.0,140.0,129.0,-1.0,106.0,-73.0,127.0,127.0,127.0,-116.0,-87.0,105.0
129.0,129.0,127.0,128.0,126.0,126.0,140.0,129.0,-1.0,106.0,-73.0,127.0,127.0,127.0,-116.0,-87.0,105.0
129.0,132.0,127.0,129.0,127.0,128.0,134.0,128.0,-1.0,106.0,-73.0,127.0,127.0,127.0,-116.0,-87.0,105.0
129.0,132.0,127.0,129.0,127.0,128.0,135.0,128.0,-1.0,106.0,-73.0,127.0,127.0,127.0,-116.0,-87.0,105.0
129.0,133.0,127.0,129.0,127.0,128.0,136.0,128.0,-1.0,106.0,-73.0,127.0,127.0,127.0,-116.0,-87.0,105.0
129.0,133.0,127.0,129.0,127.0,128.0,136.0,128.0,-1.0,106.0,-73.0,127.0,127.0,127.0,-116.0,-87.0,105.0
123.0,133.0,127.0,129.0,126.0,124.0,125.0,122.0,-1.0,106.0,-73.0,127.0,127.0,127.0,-116.0,-87.0,105.0
122.0,133.0,126.0,129.0,125.0,123.0,124.0,122.0,-1.0,106.0,-73.0,127.0,127.0,127.0,-116.0,-87.0,105.0
122.0,133.0,126.0,129.0,125.0,123.0,124.0,122.0,-1.0,106.0,-73.0,127.0,127.0,127.0,-116.0,-87.0,105.0
122.0,133.0,126.0,129.0,125.0,123.0,124.0,122.0,-1.0,106.0,-73.0,127.0,127.0,127.0,-116.0,-87.0,105.0
122.0,133.0,126.0,129.0,125.0,123.0,124.0,123.0,-1.0,106.0,-73.0,127.0,127.0,127.0,-116.0,-87.0,105.0
131.0,132.0,128.0,130.0,127.0,125.0,127.0,126.0,-1.0,106.0,-73.0,127.0,127.0,127.0,-116.0,-87.0,105.0
129.0,132.0,128.0,130.0,126.0,125.0,126.0,125.0,-1.0,106.0,-73.0,127.0,127.0,127.0,-116.0,-87.0,105.0
126.0,133.0,127.0,130.0,126.0,125.0,126.0,124.0,-1.0,106.0,-73.0,127.0,127.0,127.0,-116.0,-87.0,105.0
125.0,133.0,127.0,130.0,126.0,124.0,126.0,123.0,-1.0,106.0,-73.0,127.0,127.0,127.0,-116.0,-87.0,105.0
124.0,133.0,127.0,129.0,126.0,124.0,126.0,122.0,-1.0,106.0,-73.0,127.0,127.0,127.0,-116.0,-87.0,105.0
128.0,132.0,127.0,133.0,126.0,120.0,136.0,117.0,-1.0,106.0,-73.0,127.0,127.0,127.0,-116.0,-87.0,105.0
130.0,131.0,127.0,133.0,125.0,119.0,136.0,117.0,-1.0,106.0,-73.0,127.0,127.0,127.0,-116.0,-87.0,105.0
132.0,130.0,127.0,133.0,125.0,119.0,136.0,116.0,-1.0,106.0,-73.0,127.0,127.0,127.0,-116.0,-87.0,105.0
133.0,129.0,126.0,132.0,125.0,119.0,136.0,115.0,-1.0,106.0,-73.0,127.0,127.0,127.0,-116.0,-87.0,105.0
124.0,131.0,128.0,133.0,126.0,120.0,133.0,120.0,-1.0,106.0,-73.0,127.0,127.0,127.0,-116.0,-87.0,105.0
124.0,131.0,128.0,133.0,126.0,120.0,134.0,119.0,-1.0,106.0,-73.0,127.0,127.0,127.0,-116.0,-87.0,105.0
124.0,132.0,128.0,133.0,126.0,120.0,135.0,119.0,-1.0,106.0,-73.0,127.0,127.0,127.0,-116.0,-87.0,105.0
125.0,132.0,128.0,133.0,126.0,120.0,135.0,118.0,-1.0,106.0,-73.0,127.0,127.0,127.0,-116.0,-87.0,105.0
125.0,132.0,128.0,133.0,126.0,120.0,136.0,118.0,-1.0,106.0,-73.0,127.0,127.0,127.0,-116.0,-87.0,105.0
127.0,132.0,127.0,133.0,126.0,120.0,136.0,118.0,-1.0,106.0,-73.0,127.0,127.0,127.0,-116.0,-87.0,105.0
138.0,105.0,124.0,130.0,121.0,109.0,110.0,116.0,-1.0,106.0,-74.0,127.0,127.0,127.0,-116.0,-87.0,105.0
137.0,107.0,124.0,130.0,121.0,108.0,109.0,115.0,-1.0,106.0,-74.0,127.0,127.0,127.0,-116.0,-87.0,105.0
136.0,109.0,124.0,130.0,121.0,108.0,109.0,114.0,-1.0,106.0,-74.0,127.0,127.0,127.0,-116.0,-87.0,105.0
128.0,95.0,124.0,131.0,121.0,110.0,114.0,108.0,-1.0,106.0,-74.0,127.0,127.0,127.0,-116.0,-87.0,105.0
130.0,97.0,125.0,131.0,121.0,110.0,115.0,111.0,-1.0,106.0,-74.0,127.0,127.0,127.0,-116.0,-87.0,105.0
133.0,98.0,125.0,131.0,121.0,110.0,114.0,113.0,-1.0,106.0,-74.0,127.0,127.0,127.0,-116.0,-87.0,105.0
135.0,100.0,125.0,131.0,121.0,110.0,113.0,114.0,-1.0,106.0,-74.0,127.0,127.0,127.0,-116.0,-87.0,105.0
138.0,101.0,125.0,131.0,121.0,109.0,112.0,116.0,-1.0,106.0,-74.0,127.0,127.0,127.0,-116.0,-87.0,105.0
139.0,102.0,125.0,131.0,121.0,109.0,111.0,116.0,-1.0,106.0,-74.0,127.0,127.0,127.0,-116.0,-87.0,105.0
139.0,104.0,125.0,130.0,121.0,109.0,110.0,116.0,-1.0,106.0,-74.0,127.0,127.0,127.0,-116.0,-87.0,105.0
136.0,111.0,120.0,124.0,119.0,104.0,83.0,117.0,-1.0,108.0,-74.0,127.0,127.0,127.0,-116.0,-87.0,105.0
137.0,112.0,121.0,124.0,119.0,104.0,83.0,118.0,-1.0,108.0,-74.0,127.0,127.0,127.0,-116.0,-87.0,105.0
136.0,105.0,120.0,124.0,118.0,105.0,90.0,115.0,-1.0,108.0,-74.0,127.0,127.0,127.0,-116.0,-87.0,105.0
136.0,105.0,120.0,124.0,118.0,105.0,89.0,114.0,-1.0,108.0,-74.0,127.0,127.0,127.0,-116.0,-87.0,105.0
135.0,104.0,120.0,124.0,118.0,105.0,88.0,114.0,-1.0,108.0,-74.0,127.0,127.0,127.0,-116.0,-87.0,105.0
135.0,104.0,119.0,124.0,119.0,104.0,87.0,115.0,-1.0,108.0,-74.0,127.0,127.0,127.0,-116.0,-87.0,105.0
135.0,104.0,119.0,124.0,119.0,104.0,86.0,115.0,-1.0,108.0,-74.0,127.0,127.0,127.0,-116.0,-87.0,105.0
135.0,106.0,119.0,124.0,119.0,104.0,85.0,115.0,-1.0,108.0,-74.0,127.0,127.0,127.0,-116.0,-87.0,105.0
136.0,107.0,120.0,124.0,119.0,104.0,84.0,116.0,-1.0,108.0,-74.0,127.0,127.0,127.0,-116.0,-87.0,105.0
136.0,109.0,120.0,124.0,119.0,104.0,84.0,117.0,-1.0,108.0,-74.0,127.0,127.0,127.0,-116.0,-87.0,105.0
129.0,113.0,118.0,125.0,119.0,103.0,106.0,126.0,-1.0,109.0,-75.0,126.0,127.0,127.0,-116.0,-87.0,105.0
140.0,129.0,125.0,128.0,122.0,109.0,99.0,129.0,-1.0,109.0,-75.0,126.0,127.0,127.0,-116.0,-87.0,105.0
139.0,127.0,124.0,128.0,122.0,108.0,99.0,129.0,-1.0,109.0,-75.0,126.0,127.0,127.0,-116.0,-87.0,105.0
138.0,125.0,123.0,127.0,121.0,108.0,100.0,128.0,-1.0,109.0,-75.0,126.0,127.0,127.0,-116.0,-87.0,105.0
137.0,122.0,122.0,127.0,121.0,107.0,100.0,128.0,-1.0,109.0,-75.0,126.0,127.0,127.0,-116.0,-87.0,105.0
135.0,120.0,121.0,127.0,121.0,107.0,101.0,128.0,-1.0,109.0,-75.0,126.0,127.0,127.0,-116.0,-87.0,105.0
134.0,119.0,120.0,126.0,120.0,106.0,102.0,128.0,-1.0,109.0,-75.0,126.0,127.0,127.0,-116.0,-87.0,105.0
132.0,117.0,119.0,126.0,120.0,106.0,103.0,127.0,-1.0,109.0,-75.0,126.0,127.0,127.0,-116.0,-87.0,105.0
131.0,116.0,119.0,126.0,120.0,105.0,104.0,127.0,-1.0,109.0,-75.0,126.0,127.0,127.0,-116.0,-87.0,105.0
130.0,114.0,118.0,125.0,120.0,104.0,105.0,126.0,-1.0,109.0,-75.0,126.0,127.0,127.0,-116.0,-87.0,105.0
134.0,122.0,126.0,128.0,121.0,103.0,134.0,133.0,-1.0,110.0,-75.0,126.0,127.0,127.0,-116.0,-87.0,105.0
133.0,122.0,125.0,128.0,121.0,104.0,134.0,132.0,-1.0,110.0,-75.0,126.0,127.0,127.0,-116.0,-87.0,105.0
133.0,123.0,125.0,128.0,121.0,104.0,134.0,132.0,-1.0,110.0,-75.0,126.0,127.0,127.0,-116.0,-87.0,105.0
133.0,124.0,126.0,128.0,121.0,104.0,135.0,132.0,-1.0,110.0,-75.0,126.0,127.0,127.0,-116.0,-87.0,105.0
132.0,125.0,126.0,129.0,121.0,104.0,136.0,133.0,-1.0,110.0,-75.0,126.0,127.0,127.0,-116.0,-87.0,105.0
132.0,126.0,126.0,129.0,122.0,104.0,136.0,133.0,-1.0,110.0,-75.0,126.0,127.0,127.0,-116.0,-87.0,105.0
132.0,128.0,126.0,129.0,122.0,105.0,137.0,133.0,-1.0,110.0,-75.0,126.0,127.0,127.0,-116.0,-87.0,105.0
132.0,130.0,126.0,129.0,122.0,105.0,137.0,133.0,-1.0,110.0,-75.0,126.0,127.0,127.0,-116.0,-87.0,105.0
132.0,132.0,126.0,129.0,122.0,106.0,137.0,134.0,-1.0,110.0,-75.0,126.0,127.0,127.0,-116.0,-87.0,105.0
132.0,134.0,127.0,129.0,122.0,106.0,138.0,134.0,-1.0,110.0,-75.0,126.0,127.0,127.0,-116.0,-87.0,105.0
128.0,135.0,125.0,129.0,126.0,113.0,144.0,136.0,-1.0,107.0,-75.0,126.0,127.0,127.0,-116.0,-87.0,105.0
129.0,135.0,125.0,129.0,126.0,113.0,144.0,136.0,-1.0,107.0,-75.0,126.0,127.0,127.0,-116.0,-87.0,105.0
129.0,135.0,125.0,129.0,126.0,113.0,144.0,136.0,-1.0,107.0,-75.0,126.0,127.0,127.0,-116.0,-87.0,105.0
129.0,136.0,125.0,129.0,126.0,113.0,144.0,136.0,-1.0,107.0,-75.0,126.0,127.0,127.0,-116.0,-87.0,105.0
129.0,136.0,125.0,129.0,126.0,113.0,145.0,136.0,-1.0,107.0,-75.0,126.0,127.0,127.0,-116.0,-87.0,105.0
129.0,136.0,124.0,129.0,126.0,114.0,145.0,136.0,-1.0,107.0,-75.0,126.0,127.0,127.0,-116.0,-87.0,105.0
129.0,136.0,124.0,129.0,126.0,114.0,144.0,137.0,-1.0,107.0,-75.0,126.0,127.0,127.0,-116.0,-87.0,105.0
129.0,137.0,124.0,129.0,126.0,115.0,144.0,137.0,-1.0,107.0,-75.0,126.0,127.0,127.0,-116.0,-87.0,105.0
129.0,136.0,124.0,129.0,126.0,116.0,144.0,138.0,-1.0,107.0,-75.0,126.0,127.0,127.0,-116.0,-87.0,105.0
128.0,135.0,125.0,130.0,126.0,113.0,144.0,136.0,-1.0,107.0,-75.0,126.0,127.0,127.0,-116.0,-87.0,105.0
128.0,137.0,132.0,131.0,129.0,127.0,134.0,137.0,-1.0,103.0,-72.0,126.0,127.0,127.0,-116.0,-87.0,105.0
128.0,137.0,131.0,131.0,129.0,126.0,134.0,137.0,-1.0,103.0,-72.0,126.0,127.0,127.0,-116.0,-87.0,105.0
128.0,136.0,131.0,131.0,129.0,126.0,134.0,137.0,-1.0,103.0,-72.0,126.0,127.0,127.0,-116.0,-87.0,105.0
128.0,134.0,131.0,131.0,129.0,125.0,134.0,136.0,-1.0,103.0,-72.0,126.0,127.0,127.0,-116.0,-87.0,105.0
128.0,133.0,131.0,131.0,129.0,125.0,134.0,136.0,-1.0,103.0,-72.0,126.0,127.0,127.0,-116.0,-87.0,105.0
128.0,131.0,130.0,131.0,129.0,125.0,134.0,136.0,-1.0,103.0,-72.0,126.0,127.0,127.0,-116.0,-87.0,105.0
128.0,129.0,130.0,131.0,129.0,125.0,134.0,137.0,-1.0,103.0,-72.0,126.0,127.0,127.0,-116.0,-87.0,105.0
128.0,128.0,129.0,130.0,129.0,125.0,134.0,137.0,-1.0,103.0,-72.0,126.0,127.0,127.0,-116.0,-87.0,105.0
127.0,137.0,132.0,131.0,129.0,126.0,135.0,137.0,-1.0,103.0,-72.0,126.0,127.0,127.0,-116.0,-87.0,105.0
128.0,137.0,132.0,131.0,129.0,126.0,134.0,137.0,-1.0,103.0,-72.0,126.0,127.0,127.0,-116.0,-87.0,105.0
134.0,140.0,134.0,131.0,129.0,126.0,128.0,136.0,-1.0,100.0,-69.0,126.0,127.0,127.0,-116.0,-87.0,105.0
133.0,137.0,133.0,131.0,129.0,125.0,128.0,136.0,-1.0,100.0,-69.0,126.0,127.0,127.0,-116.0,-87.0,105.0
132.0,133.0,132.0,130.0,129.0,125.0,128.0,136.0,-1.0,100.0,-69.0,126.0,127.0,127.0,-116.0,-87.0,105.0
131.0,130.0,131.0,130.0,129.0,125.0,127.0,135.0,-1.0,100.0,-69.0,126.0,127.0,127.0,-116.0,-87.0,105.0
130.0,127.0,131.0,130.0,128.0,125.0,127.0,134.0,-1.0,100.0,-69.0,126.0,127.0,127.0,-116.0,-87.0,105.0
130.0,125.0,130.0,129.0,128.0,126.0,126.0,132.0,-1.0,100.0,-69.0,126.0,127.0,127.0,-116.0,-87.0,105.0
129.0,123.0,129.0,129.0,128.0,126.0,127.0,132.0,-1.0,100.0,-69.0,126.0,127.0,127.0,-116.0,-87.0,105.0
134.0,142.0,135.0,131.0,130.0,127.0,128.0,136.0,-1.0,100.0,-69.0,126.0,127.0,127.0,-116.0,-87.0,105.0
134.0,142.0,135.0,131.0,130.0,126.0,128.0,136.0,-1.0,100.0,-69.0,126.0,127.0,127.0,-116.0,-87.0,105.0
134.0,142.0,134.0,131.0,129.0,126.0,127.0,136.0,-1.0,100.0,-69.0,126.0,127.0,127.0,-116.0,-87.0,105.0
122.0,131.0,129.0,129.0,129.0,124.0,126.0,128.0,-1.0,100.0,-68.0,126.0,127.0,127.0,-116.0,-87.0,105.0
122.0,130.0,129.0,129.0,129.0,124.0,126.0,128.0,-1.0,100.0,-68.0,126.0,127.0,127.0,-116.0,-87.0,105.0
122.0,129.0,129.0,128.0,129.0,124.0,126.0,128.0,-1.0,100.0,-68.0,126.0,127.0,127.0,-116.0,-87.0,105.0
122.0,128.0,129.0,128.0,129.0,123.0,126.0,128.0,-1.0,100.0,-68.0,126.0,127.0,127.0,-116.0,-87.0,105.0
122.0,126.0,129.0,128.0,128.0,124.0,125.0,128.0,-1.0,100.0,-68.0,126.0,127.0,127.0,-116.0,-87.0,105.0
122.0,126.0,129.0,128.0,128.0,124.0,125.0,128.0,-1.0,100.0,-68.0,126.0,127.0,127.0,-116.0,-87.0,105.0
123.0,131.0,130.0,129.0,130.0,124.0,127.0,127.0,-1.0,100.0,-68.0,126.0,127.0,127.0,-116.0,-87.0,105.0
123.0,131.0,130.0,129.0,129.0,123.0,127.0,128.0,-1.0,100.0,-68.0,126.0,127.0,127.0,-116.0,-87.0,105.0
123.0,132.0,130.0,129.0,129.0,124.0,126.0,128.0,-1.0,100.0,-68.0,126.0,127.0,127.0,-116.0,-87.0,105.0
123.0,132.0,130.0,129.0,129.0,124.0,126.0,128.0,-1.0,100.0,-68.0,126.0,127.0,127.0,-116.0,-87.0,105.0
127.0,130.0,130.0,128.0,129.0,124.0,128.0,129.0,-1.0,103.0,-70.0,126.0,127.0,127.0,-116.0,-87.0,105.0
127.0,129.0,130.0,128.0,129.0,124.0,128.0,129.0,-1.0,103.0,-70.0,126.0,127.0,127.0,-116.0,-87.0,105.0
127.0,129.0,129.0,127.0,129.0,124.0,128.0,129.0,-1.0,103.0,-70.0,126.0,127.0,127.0,-116.0,-87.0,105.0
127.0,130.0,129.0,127.0,129.0,124.0,127.0,129.0,-1.0,103.0,-70.0,126.0,127.0,127.0,-116.0,-87.0,105.0
127.0,130.0,129.0,127.0,128.0,124.0,127.0,128.0,-1.0,103.0,-70.0,126.0,127.0,127.0,-116.0,-87.0,105.0
128.0,129.0,131.0,128.0,129.0,123.0,128.0,129.0,-1.0,103.0,-70.0,126.0,127.0,127.0,-116.0,-87.0,105.0
128.0,129.0,131.0,128.0,129.0,123.0,128.0,129.0,-1.0,103.0,-70.0,126.0,127.0,127.0,-116.0,-87.0,105.0
128.0,129.0,130.0,128.0,129.0,124.0,128.0,129.0,-1.0,103.0,-70.0,126.0,127.0,127.0,-116.0,-87.0,105.0
128.0,129.0,130.0,128.0,129.0,124.0,128.0,129.0,-1.0,103.0,-70.0,126.0,127.0,127.0,-116.0,-87.0,105.0
128.0,130.0,130.0,128.0,129.0,124.0,128.0,129.0,-1.0,103.0,-70.0,126.0,127.0,127.0,-116.0,-87.0,105.0
128.0,135.0,130.0,127.0,129.0,125.0,126.0,130.0,-1.0,105.0,-72.0,126.0,127.0,127.0,-116.0,-87.0,105.0
128.0,135.0,130.0,127.0,128.0,125.0,125.0,130.0,-1.0,105.0,-72.0,126.0,127.0,127.0,-116.0,-87.0,105.0
128.0,136.0,130.0,127.0,128.0,125.0,125.0,129.0,-1.0,105.0,-72.0,126.0,127.0,127.0,-116.0,-87.0,105.0
128.0,137.0,130.0,127.0,128.0,125.0,125.0,130.0,-1.0,105.0,-72.0,126.0,127.0,127.0,-116.0,-87.0,105.0
130.0,135.0,130.0,126.0,128.0,123.0,127.0,132.0,-1.0,105.0,-72.0,126.0,127.0,127.0,-116.0,-87.0,105.0
129.0,135.0,130.0,127.0,128.0,123.0,127.0,132.0,-1.0,105.0,-72.0,126.0,127.0,127.0,-116.0,-87.0,105.0
129.0,135.0,130.0,127.0,128.0,124.0,127.0,132.0,-1.0,105.0,-72.0,126.0,127.0,127.0,-116.0,-87.0,105.0
129.0,134.0,130.0,127.0,128.0,125.0,127.0,132.0,-1.0,105.0,-72.0,126.0,127.0,127.0,-116.0,-87.0,105.0
128.0,134.0,130.0,127.0,129.0,125.0,126.0,132.0,-1.0,105.0,-72.0,126.0,127.0,127.0,-116.0,-87.0,105.0
128.0,135.0,130.0,127.0,129.0,125.0,126.0,131.0,-1.0,105.0,-72.0,126.0,127.0,127.0,-116.0,-87.0,105.0
125.0,128.0,129.0,127.0,128.0,122.0,128.0,132.0,-1.0,105.0,-74.0,126.0,127.0,127.0,-116.0,-87.0,105.0
125.0,127.0,128.0,127.0,128.0,123.0,128.0,131.0,-1.0,105.0,-74.0,126.0,127.0,127.0,-116.0,-87.0,105.0
125.0,125.0,128.0,127.0,128.0,123.0,127.0,130.0,-1.0,105.0,-74.0,126.0,127.0,127.0,-116.0,-87.0,105.0
125.0,137.0,131.0,127.0,128.0,122.0,129.0,130.0,-1.0,105.0,-74.0,126.0,127.0,127.0,-116.0,-87.0,105.0
126.0,137.0,131.0,127.0,128.0,122.0,129.0,130.0,-1.0,105.0,-74.0,126.0,127.0,127.0,-116.0,-87.0,105.0
126.0,136.0,131.0,127.0,128.0,122.0,128.0,130.0,-1.0,105.0,-74.0,126.0,127.0,127.0,-116.0,-87.0,105.0
126.0,135.0,130.0,127.0,128.0,123.0,128.0,131.0,-1.0,105.0,-74.0,126.0,127.0,127.0,-116.0,-87.0,105.0
126.0,134.0,130.0,127.0,128.0,123.0,128.0,132.0,-1.0,105.0,-74.0,126.0,127.0,127.0,-116.0,-87.0,105.0
126.0,133.0,129.0,127.0,128.0,122.0,128.0,132.0,-1.0,105.0,-74.0,126.0,127.0,127.0,-116.0,-87.0,105.0
126.0,130.0,129.0,127.0,128.0,122.0,128.0,132.0,-1.0,105.0,-74.0,126.0,127.0,127.0,-116.0,-87.0,105.0
125.0,129.0,128.0,126.0,127.0,123.0,128.0,127.0,-1.0,104.0,-75.0,127.0,127.0,127.0,-116.0,-87.0,105.0
125.0,128.0,127.0,126.0,127.0,123.0,128.0,127.0,-1.0,104.0,-75.0,127.0,127.0,127.0,-116.0,-87.0,105.0
127.0,139.0,129.0,126.0,127.0,123.0,128.0,128.0,-1.0,104.0,-75.0,127.0,127.0,127.0,-116.0,-87.0,105.0
128.0,139.0,128.0,126.0,127.0,123.0,128.0,128.0,-1.0,104.0,-75.0,127.0,127.0,127.0,-116.0,-87.0,105.0
127.0,138.0,129.0,126.0,127.0,123.0,128.0,128.0,-1.0,104.0,-75.0,127.0,127.0,127.0,-116.0,-87.0,105.0
127.0,137.0,129.0,126.0,127.0,123.0,128.0,127.0,-1.0,104.0,-75.0,127.0,127.0,127.0,-116.0,-87.0,105.0
127.0,136.0,128.0,126.0,127.0,123.0,128.0,127.0,-1.0,104.0,-75.0,127.0,127.0,127.0,-116.0,-87.0,105.0
126.0,135.0,128.0,126.0,127.0,123.0,128.0,127.0,-1.0,104.0,-75.0,127.0,127.0,127.0,-116.0,-87.0,105.0
126.0,133.0,128.0,126.0,127.0,123.0,128.0,127.0,-1.0,104.0,-75.0,127.0,127.0,127.0,-116.0,-87.0,105.0
125.0,131.0,128.0,126.0,127.0,123.0,128.0,127.0,-1.0,104.0,-75.0,127.0,127.0,127.0,-116.0,-87.0,105.0
128.0,129.0,128.0,127.0,128.0,127.0,126.0,128.0,-1.0,103.0,-75.0,127.0,127.0,127.0,-116.0,-87.0,105.0
125.0,127.0,127.0,127.0,127.0,126.0,127.0,127.0,-1.0,103.0,-75.0,127.0,127.0,127.0,-116.0,-87.0,105.0
125.0,127.0,128.0,127.0,128.0,127.0,127.0,127.0,-1.0,103.0,-75.0,127.0,127.0,127.0,-116.0,-87.0,105.0
125.0,128.0,128.0,127.0,128.0,127.0,127.0,127.0,-1.0,103.0,-75.0,127.0,127.0,127.0,-116.0,-87.0,105.0
125.0,128.0,129.0,127.0,128.0,127.0,128.0,127.0,-1.0,103.0,-75.0,127.0,127.0,127.0,-116.0,-87.0,105.0
126.0,129.0,129.0,127.0,128.0,127.0,127.0,128.0,-1.0,103.0,-75.0,127.0,127.0,127.0,-116.0,-87.0,105.0
127.0,129.0,129.0,127.0,128.0,127.0,127.0,128.0,-1.0,103.0,-75.0,127.0,127.0,127.0,-116.0,-87.0,105.0
127.0,129.0,129.0,127.0,128.0,128.0,127.0,129.0,-1.0,103.0,-75.0,127.0,127.0,127.0,-116.0,-87.0,105.0
128.0,129.0,129.0,127.0,128.0,128.0,127.0,129.0,-1.0,103.0,-75.0,127.0,127.0,127.0,-116.0,-87.0,105.0
128.0,129.0,128.0,127.0,128.0,128.0,126.0,129.0,-1.0,103.0,-75.0,127.0,127.0,127.0,-116.0,-87.0,105.0
127.0,138.0,128.0,127.0,127.0,125.0,125.0,132.0,-1.0,102.0,-75.0,127.0,127.0,127.0,-116.0,-87.0,105.0
127.0,137.0,127.0,127.0,128.0,125.0,125.0,132.0,-1.0,102.0,-75.0,127.0,127.0,127.0,-116.0,-87.0,105.0
126.0,136.0,127.0,127.0,127.0,125.0,125.0,131.0,-1.0,102.0,-75.0,127.0,127.0,127.0,-116.0,-87.0,105.0
126.0,135.0,127.0,127.0,127.0,125.0,125.0,131.0,-1.0,102.0,-75.0,127.0,127.0,127.0,-116.0,-87.0,105.0
126.0,133.0,127.0,127.0,127.0,125.0,125.0,131.0,-1.0,102.0,-75.0,127.0,127.0,127.0,-116.0,-87.0,105.0
126.0,130.0,126.0,127.0,127.0,125.0,125.0,130.0,-1.0,102.0,-75.0,127.0,127.0,127.0,-116.0,-87.0,105.0
126.0,128.0,126.0,127.0,127.0,125.0,125.0,130.0,-1.0,102.0,-75.0,127.0,127.0,127.0,-116.0,-87.0,105.0
125.0,127.0,126.0,127.0,127.0,125.0,126.0,130.0,-1.0,102.0,-75.0,127.0,127.0,127.0,-116.0,-87.0,105.0
125.0,126.0,126.0,127.0,127.0,125.0,126.0,129.0,-1.0,102.0,-75.0,127.0,127.0,127.0,-116.0,-87.0,105.0
124.0,126.0,126.0,127.0,127.0,125.0,126.0,128.0,-1.0,102.0,-75.0,127.0,127.0,127.0,-116.0,-87.0,105.0
127.0,132.0,127.0,126.0,127.0,125.0,126.0,129.0,-1.0,102.0,-75.0,127.0,127.0,127.0,-116.0,-87.0,105.0
127.0,133.0,127.0,126.0,127.0,125.0,126.0,129.0,-1.0,102.0,-75.0,127.0,127.0,127.0,-116.0,-87.0,105.0
127.0,135.0,128.0,126.0,127.0,125.0,125.0,129.0,-1.0,102.0,-75.0,127.0,127.0,127.0,-116.0,-87.0,105.0
127.0,136.0,128.0,126.0,127.0,125.0,125.0,129.0,-1.0,102.0,-75.0,127.0,127.0,127.0,-116.0,-87.0,105.0
128.0,137.0,128.0,126.0,127.0,125.0,125.0,129.0,-1.0,102.0,-75.0,127.0,127.0,127.0,-116.0,-87.0,105.0
128.0,139.0,128.0,126.0,126.0,125.0,124.0,129.0,-1.0,102.0,-75.0,127.0,127.0,127.0,-116.0,-87.0,105.0
128.0,139.0,128.0,126.0,127.0,125.0,124.0,130.0,-1.0,102.0,-75.0,127.0,127.0,127.0,-116.0,-87.0,105.0
129.0,140.0,128.0,126.0,127.0,125.0,124.0,130.0,-1.0,102.0,-75.0,127.0,127.0,127.0,-116.0,-87.0,105.0
129.0,139.0,128.0,126.0,127.0,125.0,124.0,130.0,-1.0,102.0,-75.0,127.0,127.0,127.0,-116.0,-87.0,105.0
127.0,131.0,127.0,126.0,126.0,125.0,126.0,129.0,-1.0,102.0,-75.0,127.0,127.0,127.0,-116.0,-87.0,105.0
127.0,128.0,126.0,127.0,127.0,126.0,127.0,130.0,-1.0,102.0,-75.0,127.0,127.0,127.0,-116.0,-87.0,105.0
127.0,128.0,127.0,127.0,127.0,126.0,127.0,130.0,-1.0,102.0,-75.0,127.0,127.0,127.0,-116.0,-87.0,105.0
127.0,129.0,127.0,127.0,127.0,126.0,127.0,130.0,-1.0,102.0,-75.0,127.0,127.0,127.0,-116.0,-87.0,105.0
128.0,129.0,127.0,127.0,128.0,126.0,126.0,130.0,-1.0,102.0,-75.0,127.0,127.0,127.0,-116.0,-87.0,105.0
128.0,129.0,126.0,127.0,127.0,127.0,126.0,130.0,-1.0,102.0,-75.0,127.0,127.0,127.0,-116.0,-87.0,105.0
128.0,130.0,126.0,127.0,127.0,127.0,126.0,130.0,-1.0,102.0,-75.0,127.0,127.0,127.0,-116.0,-87.0,105.0
129.0,130.0,126.0,127.0,127.0,126.0,126.0,130.0,-1.0,102.0,-75.0,127.0,127.0,127.0,-116.0,-87.0,105.0
129.0,131.0,126.0,127.0,127.0,126.0,127.0,130.0,-1.0,102.0,-75.0,127.0,127.0,127.0,-116.0,-87.0,105.0
127.0,128.0,126.0,126.0,127.0,126.0,126.0,130.0,-1.0,102.0,-75.0,127.0,127.0,127.0,-116.0,-87.0,105.0
127.0,128.0,126.0,126.0,127.0,127.0,127.0,130.0,-1.0,102.0,-75.0,127.0,127.0,127.0,-116.0,-87.0,105.0
128.0,131.0,127.0,126.0,126.0,125.0,126.0,126.0,-1.0,102.0,-75.0,127.0,127.0,127.0,-116.0,-87.0,105.0
128.0,131.0,127.0,126.0,126.0,125.0,126.0,126.0,-1.0,102.0,-75.0,127.0,127.0,127.0,-116.0,-87.0,105.0
128.0,131.0,127.0,126.0,126.0,125.0,126.0,126.0,-1.0,102.0,-75.0,127.0,127.0,127.0,-116.0,-87.0,105.0
128.0,131.0,126.0,126.0,126.0,125.0,126.0,126.0,-1.0,102.0,-75.0,127.0,127.0,127.0,-116.0,-87.0,105.0
128.0,132.0,126.0,126.0,126.0,125.0,126.0,126.0,-1.0,102.0,-75.0,127.0,127.0,127.0,-116.0,-87.0,105.0
128.0,133.0,126.0,126.0,126.0,125.0,126.0,126.0,-1.0,102.0,-75.0,127.0,127.0,127.0,-116.0,-87.0,105.0
126.0,130.0,127.0,126.0,127.0,125.0,126.0,127.0,-1.0,102.0,-75.0,127.0,127.0,127.0,-116.0,-87.0,105.0
127.0,130.0,127.0,126.0,127.0,125.0,126.0,127.0,-1.0,102.0,-75.0,127.0,127.0,127.0,-116.0,-87.0,105.0
128.0,131.0,127.0,126.0,127.0,125.0,125.0,127.0,-1.0,102.0,-75.0,127.0,127.0,127.0,-116.0,-87.0,105.0
128.0,131.0,127.0,126.0,127.0,125.0,125.0,127.0,-1.0,102.0,-75.0,127.0,127.0,127.0,-116.0,-87.0,105.0
127.0,129.0,128.0,127.0,127.0,127.0,125.0,128.0,-1.0,101.0,-74.0,127.0,127.0,127.0,-115.0,-87.0,105.0
127.0,129.0,128.0,127.0,127.0,126.0,125.0,128.0,-1.0,101.0,-74.0,127.0,127.0,127.0,-115.0,-87.0,105.0
127.0,129.0,128.0,127.0,127.0,126.0,126.0,129.0,-1.0,101.0,-74.0,127.0,127.0,127.0,-115.0,-87.0,105.0
127.0,129.0,127.0,127.0,127.0,126.0,126.0,129.0,-1.0,101.0,-74.0,127.0,127.0,127.0,-115.0,-87.0,105.0
127.0,130.0,127.0,127.0,127.0,125.0,126.0,128.0,-1.0,101.0,-74.0,127.0,127.0,127.0,-115.0,-87.0,105.0
126.0,129.0,127.0,127.0,127.0,128.0,122.0,127.0,-1.0,101.0,-74.0,127.0,127.0,127.0,-115.0,-87.0,105.0
127.0,129.0,127.0,127.0,127.0,127.0,122.0,128.0,-1.0,101.0,-74.0,127.0,127.0,127.0,-115.0,-87.0,105.0
127.0,129.0,127.0,127.0,127.0,127.0,123.0,128.0,-1.0,101.0,-74.0,127.0,127.0,127.0,-115.0,-87.0,105.0
127.0,129.0,127.0,127.0,127.0,127.0,123.0,128.0,-1.0,101.0,-74.0,127.0,127.0,127.0,-115.0,-87.0,105.0
127.0,129.0,127.0,127.0,127.0,127.0,124.0,128.0,-1.0,101.0,-74.0,127.0,127.0,127.0,-115.0,-87.0,105.0
125.0,128.0,127.0,126.0,126.0,125.0,125.0,128.0,-1.0,101.0,-74.0,127.0,127.0,127.0,-115.0,-87.0,105.0
126.0,129.0,127.0,126.0,126.0,125.0,126.0,128.0,-1.0,101.0,-74.0,127.0,127.0,127.0,-115.0,-87.0,105.0
126.0,129.0,127.0,126.0,127.0,125.0,126.0,128.0,-1.0,101.0,-74.0,127.0,127.0,127.0,-115.0,-87.0,105.0
126.0,129.0,127.0,126.0,127.0,125.0,127.0,129.0,-1.0,101.0,-74.0,127.0,127.0,127.0,-115.0,-87.0,105.0
125.0,128.0,126.0,126.0,126.0,125.0,125.0,128.0,-1.0,101.0,-74.0,127.0,127.0,127.0,-115.0,-87.0,105.0
125.0,128.0,126.0,126.0,126.0,125.0,125.0,128.0,-1.0,101.0,-74.0,127.0,127.0,127.0,-115.0,-87.0,105.0
125.0,128.0,127.0,126.0,126.0,125.0,125.0,128.0,-1.0,101.0,-74.0,127.0,127.0,127.0,-115.0,-87.0,105.0
125.0,128.0,127.0,126.0,126.0,125.0,125.0,128.0,-1.0,101.0,-74.0,127.0,127.0,127.0,-115.0,-87.0,105.0
125.0,128.0,127.0,126.0,126.0,125.0,125.0,128.0,-1.0,101.0,-74.0,127.0,127.0,127.0,-115.0,-87.0,105.0
125.0,128.0,127.0,126.0,126.0,125.0,125.0,128.0,-1.0,101.0,-74.0,127.0,127.0,127.0,-115.0,-87.0,105.0
125.0,127.0,127.0,126.0,126.0,126.0,126.0,126.0,-1.0,101.0,-74.0,127.0,127.0,127.0,-115.0,-87.0,105.0
125.0,127.0,127.0,126.0,126.0,126.0,126.0,126.0,-1.0,101.0,-74.0,127.0,127.0,127.0,-115.0,-87.0,105.0
125.0,128.0,127.0,126.0,126.0,126.0,126.0,126.0,-1.0,101.0,-74.0,127.0,127.0,127.0,-115.0,-87.0,105.0
125.0,128.0,127.0,126.0,127.0,126.0,128.0,128.0,-1.0,101.0,-74.0,127.0,127.0,127.0,-115.0,-87.0,105.0
125.0,128.0,127.0,126.0,127.0,127.0,128.0,128.0,-1.0,101.0,-74.0,127.0,127.0,127.0,-115.0,-87.0,105.0
125.0,128.0,127.0,126.0,126.0,127.0,127.0,128.0,-1.0,101.0,-74.0,127.0,127.0,127.0,-115.0,-87.0,105.0
125.0,127.0,127.0,126.0,126.0,127.0,128.0,127.0,-1.0,101.0,-74.0,127.0,127.0,127.0,-115.0,-87.0,105.0
125.0,127.0,127.0,126.0,126.0,126.0,127.0,127.0,-1.0,101.0,-74.0,127.0,127.0,127.0,-115.0,-87.0,105.0
125.0,127.0,127.0,126.0,126.0,126.0,127.0,127.0,-1.0,101.0,-74.0,127.0,127.0,127.0,-115.0,-87.0,105.0
125.0,127.0,127.0,126.0,126.0,126.0,127.0,126.0,-1.0,101.0,-74.0,127.0,127.0,127.0,-115.0,-87.0,105.0
128.0,129.0,127.0,127.0,127.0,126.0,128.0,128.0,-1.0,101.0,-74.0,127.0,127.0,127.0,-115.0,-87.0,105.0
128.0,129.0,127.0,127.0,127.0,126.0,128.0,128.0,-1.0,101.0,-74.0,127.0,127.0,127.0,-115.0,-87.0,105.0
126.0,127.0,127.0,126.0,127.0,125.0,127.0,127.0,-1.0,101.0,-74.0,127.0,127.0,127.0,-115.0,-87.0,105.0
126.0,127.0,127.0,126.0,127.0,126.0,126.0,127.0,-1.0,101.0,-74.0,127.0,127.0,127.0,-115.0,-87.0,105.0
127.0,127.0,127.0,127.0,127.0,126.0,126.0,128.0,-1.0,101.0,-74.0,127.0,127.0,127.0,-115.0,-87.0,105.0
127.0,127.0,127.0,127.0,127.0,126.0,126.0,128.0,-1.0,101.0,-74.0,127.0,127.0,127.0,-115.0,-87.0,105.0
127.0,127.0,127.0,127.0,127.0,126.0,126.0,128.0,-1.0,101.0,-74.0,127.0,127.0,127.0,-115.0,-87.0,105.0
127.0,127.0,127.0,127.0,127.0,126.0,127.0,128.0,-1.0,101.0,-74.0,127.0,127.0,127.0,-115.0,-87.0,105.0
127.0,127.0,127.0,127.0,127.0,126.0,127.0,128.0,-1.0,101.0,-74.0,127.0,127.0,127.0,-115.0,-87.0,105.0
127.0,128.0,127.0,126.0,127.0,126.0,127.0,128.0,-1.0,101.0,-74.0,127.0,127.0,127.0,-115.0,-87.0,105.0
127.0,133.0,128.0,127.0,127.0,126.0,127.0,127.0,-1.0,101.0,-73.0,127.0,127.0,127.0,-115.0,-87.0,105.0
126.0,127.0,127.0,126.0,127.0,126.0,126.0,127.0,-1.0,101.0,-73.0,127.0,127.0,127.0,-115.0,-87.0,105.0
126.0,127.0,127.0,126.0,127.0,126.0,126.0,127.0,-1.0,101.0,-73.0,127.0,127.0,127.0,-115.0,-87.0,105.0
126.0,127.0,127.0,126.0,127.0,126.0,126.0,127.0,-1.0,101.0,-73.0,127.0,127.0,127.0,-115.0,-87.0,105.0
126.0,128.0,127.0,126.0,127.0,126.0,126.0,127.0,-1.0,101.0,-73.0,127.0,127.0,127.0,-115.0,-87.0,105.0
126.0,128.0,127.0,126.0,127.0,126.0,126.0,127.0,-1.0,101.0,-73.0,127.0,127.0,127.0,-115.0,-87.0,105.0
126.0,129.0,127.0,126.0,127.0,125.0,127.0,127.0,-1.0,101.0,-73.0,127.0,127.0,127.0,-115.0,-87.0,105.0
127.0,130.0,127.0,126.0,127.0,125.0,127.0,126.0,-1.0,101.0,-73.0,127.0,127.0,127.0,-115.0,-87.0,105.0
127.0,131.0,127.0,126.0,127.0,125.0,127.0,126.0,-1.0,101.0,-73.0,127.0,127.0,127.0,-115.0,-87.0,105.0
127.0,132.0,127.0,127.0,126.0,126.0,127.0,127.0,-1.0,101.0,-73.0,127.0,127.0,127.0,-115.0,-87.0,105.0
126.0,127.0,127.0,127.0,127.0,127.0,126.0,128.0,-1.0,101.0,-73.0,127.0,127.0,127.0,-115.0,-87.0,105.0
126.0,127.0,127.0,127.0,127.0,127.0,126.0,128.0,-1.0,101.0,-73.0,127.0,127.0,127.0,-115.0,-87.0,105.0
126.0,127.0,127.0,127.0,127.0,127.0,126.0,127.0,-1.0,101.0,-73.0,127.0,127.0,127.0,-115.0,-87.0,105.0
126.0,128.0,127.0,127.0,127.0,127.0,126.0,127.0,-1.0,101.0,-73.0,127.0,127.0,127.0,-115.0,-87.0,105.0
126.0,128.0,127.0,127.0,127.0,126.0,126.0,127.0,-1.0,101.0,-73.0,127.0,127.0,127.0,-115.0,-87.0,105.0
126.0,128.0,128.0,127.0,127.0,126.0,126.0,127.0,-1.0,101.0,-73.0,127.0,127.0,127.0,-115.0,-87.0,105.0
126.0,128.0,128.0,127.0,127.0,126.0,126.0,127.0,-1.0,101.0,-73.0,127.0,127.0,127.0,-115.0,-87.0,105.0
126.0,128.0,128.0,127.0,127.0,126.0,127.0,127.0,-1.0,101.0,-73.0,127.0,127.0,127.0,-115.0,-87.0,105.0
126.0,128.0,128.0,127.0,127.0,126.0,127.0,127.0,-1.0,101.0,-73.0,127.0,127.0,127.0,-115.0,-87.0,105.0
127.0,128.0,128.0,127.0,127.0,126.0,127.0,127.0,-1.0,101.0,-73.0,127.0,127.0,127.0,-115.0,-87.0,105.0
127.0,133.0,128.0,127.0,127.0,127.0,130.0,128.0,-1.0,101.0,-73.0,127.0,127.0,127.0,-115.0,-87.0,105.0
127.0,133.0,128.0,127.0,127.0,127.0,131.0,128.0,-1.0,101.0,-73.0,127.0,127.0,127.0,-115.0,-87.0,105.0
127.0,132.0,128.0,127.0,127.0,127.0,131.0,128.0,-1.0,101.0,-73.0,127.0,127.0,127.0,-115.0,-87.0,105.0
127.0,132.0,128.0,127.0,127.0,127.0,131.0,128.0,-1.0,101.0,-73.0,127.0,127.0,127.0,-115.0,-87.0,105.0
127.0,132.0,128.0,127.0,127.0,127.0,131.0,128.0,-1.0,101.0,-73.0,127.0,127.0,127.0,-115.0,-87.0,105.0
127.0,131.0,128.0,127.0,127.0,127.0,131.0,128.0,-1.0,101.0,-73.0,127.0,127.0,127.0,-115.0,-87.0,105.0
127.0,131.0,128.0,127.0,127.0,126.0,131.0,127.0,-1.0,101.0,-73.0,127.0,127.0,127.0,-115.0,-87.0,105.0
127.0,129.0,128.0,127.0,127.0,126.0,132.0,127.0,-1.0,101.0,-73.0,127.0,127.0,127.0,-115.0,-87.0,105.0
126.0,128.0,128.0,127.0,127.0,126.0,132.0,127.0,-1.0,101.0,-73.0,127.0,127.0,127.0,-115.0,-87.0,105.0
127.0,133.0,127.0,127.0,127.0,127.0,130.0,128.0,-1.0,101.0,-73.0,127.0,127.0,127.0,-115.0,-87.0,105.0
127.0,134.0,128.0,127.0,127.0,127.0,130.0,125.0,-1.0,101.0,-73.0,127.0,127.0,127.0,-115.0,-87.0,105.0
127.0,134.0,128.0,127.0,127.0,127.0,130.0,125.0,-1.0,101.0,-73.0,127.0,127.0,127.0,-115.0,-87.0,105.0
127.0,134.0,128.0,127.0,127.0,126.0,130.0,126.0,-1.0,101.0,-73.0,127.0,127.0,127.0,-115.0,-87.0,105.0
127.0,134.0,128.0,127.0,127.0,126.0,130.0,126.0,-1.0,101.0,-73.0,127.0,127.0,127.0,-115.0,-87.0,105.0
127.0,132.0,128.0,127.0,127.0,126.0,130.0,126.0,-1.0,101.0,-73.0,127.0,127.0,127.0,-115.0,-87.0,105.0
127.0,131.0,128.0,127.0,127.0,126.0,130.0,126.0,-1.0,101.0,-73.0,127.0,127.0,127.0,-115.0,-87.0,105.0
127.0,130.0,127.0,127.0,127.0,126.0,130.0,126.0,-1.0,101.0,-73.0,127.0,127.0,127.0,-115.0,-87.0,105.0
126.0,129.0,127.0,127.0,127.0,126.0,130.0,126.0,-1.0,101.0,-73.0,127.0,127.0,127.0,-115.0,-87.0,105.0
126.0,132.0,127.0,127.0,126.0,127.0,130.0,125.0,-1.0,101.0,-73.0,127.0,127.0,127.0,-115.0,-87.0,105.0
126.0,133.0,128.0,127.0,126.0,127.0,130.0,125.0,-1.0,101.0,-73.0,127.0,127.0,127.0,-115.0,-87.0,105.0
126.0,126.0,127.0,127.0,127.0,127.0,125.0,126.0,-1.0,101.0,-73.0,127.0,127.0,127.0,-115.0,-87.0,105.0
126.0,126.0,127.0,127.0,127.0,127.0,126.0,126.0,-1.0,101.0,-73.0,127.0,127.0,127.0,-115.0,-87.0,105.0
126.0,126.0,127.0,127.0,127.0,127.0,126.0,126.0,-1.0,101.0,-73.0,127.0,127.0,127.0,-115.0,-87.0,105.0
126.0,126.0,127.0,127.0,127.0,127.0,126.0,126.0,-1.0,101.0,-73.0,127.0,127.0,127.0,-115.0,-87.0,105.0
126.0,126.0,128.0,127.0,127.0,126.0,127.0,126.0,-1.0,101.0,-73.0,127.0,127.0,127.0,-115.0,-87.0,105.0
127.0,126.0,128.0,127.0,127.0,126.0,127.0,127.0,-1.0,101.0,-73.0,127.0,127.0,127.0,-115.0,-87.0,105.0
127.0,126.0,128.0,127.0,127.0,126.0,127.0,127.0,-1.0,101.0,-73.0,127.0,127.0,127.0,-115.0,-87.0,105.0
127.0,126.0,127.0,127.0,127.0,127.0,126.0,127.0,-1.0,101.0,-73.0,127.0,127.0,127.0,-115.0,-87.0,105.0
126.0,126.0,127.0,127.0,127.0,127.0,125.0,127.0,-1.0,101.0,-73.0,127.0,127.0,127.0,-115.0,-87.0,105.0
126.0,126.0,127.0,127.0,127.0,127.0,125.0,127.0,-1.0,101.0,-73.0,127.0,127.0,127.0,-115.0,-87.0,105.0
126.0,128.0,128.0,128.0,126.0,126.0,126.0,127.0,-1.0,102.0,-73.0,127.0,127.0,127.0,-115.0,-87.0,105.0
126.0,127.0,128.0,128.0,126.0,126.0,127.0,127.0,-1.0,102.0,-73.0,127.0,127.0,127.0,-115.0,-87.0,105.0
126.0,127.0,128.0,127.0,126.0,126.0,127.0,127.0,-1.0,102.0,-73.0,127.0,127.0,127.0,-115.0,-87.0,105.0
126.0,127.0,128.0,127.0,126.0,126.0,127.0,127.0,-1.0,102.0,-73.0,127.0,127.0,127.0,-115.0,-87.0,105.0
126.0,126.0,128.0,127.0,126.0,126.0,127.0,127.0,-1.0,102.0,-73.0,127.0,127.0,127.0,-115.0,-87.0,105.0
126.0,126.0,128.0,127.0,126.0,125.0,127.0,126.0,-1.0,102.0,-73.0,127.0,127.0,127.0,-115.0,-87.0,105.0
127.0,128.0,128.0,127.0,126.0,126.0,126.0,127.0,-1.0,102.0,-73.0,127.0,127.0,127.0,-115.0,-87.0,105.0
127.0,129.0,128.0,128.0,126.0,126.0,126.0,127.0,-1.0,102.0,-73.0,127.0,127.0,127.0,-115.0,-87.0,105.0
127.0,129.0,128.0,128.0,126.0,126.0,126.0,127.0,-1.0,102.0,-73.0,127.0,127.0,127.0,-115.0,-87.0,105.0
127.0,128.0,128.0,128.0,126.0,126.0,126.0,127.0,-1.0,102.0,-73.0,127.0,127.0,127.0,-115.0,-87.0,105.0
126.0,126.0,128.0,128.0,126.0,127.0,126.0,126.0,-1.0,102.0,-73.0,127.0,127.0,127.0,-115.0,-87.0,105.0
126.0,125.0,128.0,128.0,126.0,127.0,126.0,126.0,-1.0,102.0,-73.0,127.0,127.0,127.0,-115.0,-87.0,105.0
126.0,125.0,128.0,128.0,126.0,127.0,127.0,126.0,-1.0,102.0,-73.0,127.0,127.0,127.0,-115.0,-87.0,105.0
126.0,125.0,128.0,128.0,127.0,127.0,127.0,126.0,-1.0,102.0,-73.0,127.0,127.0,127.0,-115.0,-87.0,105.0
126.0,125.0,127.0,128.0,126.0,127.0,126.0,126.0,-1.0,102.0,-73.0,127.0,127.0,127.0,-115.0,-87.0,105.0
126.0,127.0,128.0,128.0,126.0,126.0,127.0,126.0,-1.0,102.0,-73.0,127.0,127.0,127.0,-115.0,-87.0,105.0
126.0,127.0,128.0,128.0,126.0,127.0,127.0,126.0,-1.0,102.0,-73.0,127.0,127.0,127.0,-115.0,-87.0,105.0
126.0,127.0,128.0,128.0,126.0,127.0,126.0,126.0,-1.0,102.0,-73.0,127.0,127.0,127.0,-115.0,-87.0,105.0
126.0,127.0,128.0,128.0,126.0,127.0,126.0,126.0,-1.0,102.0,-73.0,127.0,127.0,127.0,-115.0,-87.0,105.0
126.0,126.0,128.0,128.0,126.0,127.0,126.0,126.0,-1.0,102.0,-73.0,127.0,127.0,127.0,-115.0,-87.0,105.0
125.0,125.0,128.0,128.0,126.0,126.0,125.0,123.0,-1.0,102.0,-73.0,127.0,127.0,127.0,-115.0,-87.0,105.0
125.0,125.0,128.0,128.0,126.0,126.0,125.0,123.0,-1.0,102.0,-73.0,127.0,127.0,127.0,-115.0,-87.0,105.0
125.0,125.0,128.0,128.0,126.0,126.0,125.0,123.0,-1.0,102.0,-73.0,127.0,127.0,127.0,-115.0,-87.0,105.0
125.0,125.0,128.0,128.0,126.0,127.0,124.0,124.0,-1.0,102.0,-73.0,127.0,127.0,127.0,-115.0,-87.0,105.0
125.0,125.0,128.0,128.0,127.0,126.0,125.0,123.0,-1.0,102.0,-73.0,127.0,127.0,127.0,-115.0,-87.0,105.0
125.0,125.0,128.0,128.0,127.0,126.0,125.0,123.0,-1.0,102.0,-73.0,127.0,127.0,127.0,-115.0,-87.0,105.0
125.0,125.0,128.0,128.0,127.0,126.0,125.0,123.0,-1.0,102.0,-73.0,127.0,127.0,127.0,-115.0,-87.0,105.0
125.0,125.0,128.0,128.0,126.0,127.0,125.0,123.0,-1.0,102.0,-73.0,127.0,127.0,127.0,-115.0,-87.0,105.0
125.0,125.0,128.0,128.0,126.0,127.0,124.0,123.0,-1.0,102.0,-73.0,127.0,127.0,127.0,-115.0,-87.0,105.0
125.0,125.0,128.0,128.0,126.0,126.0,125.0,123.0,-1.0,102.0,-73.0,127.0,127.0,127.0,-115.0,-87.0,105.0
126.0,125.0,128.0,128.0,127.0,127.0,122.0,124.0,-1.0,102.0,-73.0,127.0,127.0,127.0,-115.0,-87.0,105.0
126.0,125.0,128.0,128.0,127.0,127.0,123.0,124.0,-1.0,102.0,-73.0,127.0,127.0,127.0,-115.0,-87.0,105.0
126.0,125.0,128.0,128.0,127.0,127.0,123.0,124.0,-1.0,102.0,-73.0,127.0,127.0,127.0,-115.0,-87.0,105.0
126.0,125.0,128.0,128.0,127.0,129.0,122.0,124.0,-1.0,102.0,-73.0,127.0,127.0,127.0,-115.0,-87.0,105.0
126.0,125.0,128.0,128.0,127.0,128.0,122.0,124.0,-1.0,102.0,-73.0,127.0,127.0,127.0,-115.0,-87.0,105.0
126.0,125.0,128.0,128.0,127.0,128.0,122.0,124.0,-1.0,102.0,-73.0,127.0,127.0,127.0,-115.0,-87.0,105.0
126.0,125.0,128.0,128.0,127.0,128.0,122.0,124.0,-1.0,102.0,-73.0,127.0,127.0,127.0,-115.0,-87.0,105.0
126.0,125.0,128.0,128.0,127.0,128.0,122.0,124.0,-1.0,102.0,-73.0,127.0,127.0,127.0,-115.0,-87.0,105.0
126.0,125.0,128.0,128.0,127.0,128.0,122.0,124.0,-1.0,102.0,-73.0,127.0,127.0,127.0,-115.0,-87.0,105.0
126.0,125.0,128.0,128.0,127.0,128.0,122.0,124.0,-1.0,102.0,-73.0,127.0,127.0,127.0,-115.0,-87.0,105.0
125.0,124.0,127.0,127.0,127.0,129.0,123.0,125.0,-1.0,103.0,-73.0,127.0,127.0,127.0,-115.0,-87.0,105.0
125.0,124.0,127.0,127.0,127.0,129.0,124.0,125.0,-1.0,103.0,-73.0,127.0,127.0,127.0,-115.0,-87.0,105.0
125.0,124.0,127.0,128.0,127.0,129.0,123.0,125.0,-1.0,103.0,-73.0,127.0,127.0,127.0,-115.0,-87.0,105.0
125.0,124.0,127.0,128.0,127.0,129.0,123.0,125.0,-1.0,103.0,-73.0,127.0,127.0,127.0,-115.0,-87.0,105.0
125.0,124.0,127.0,127.0,127.0,129.0,123.0,125.0,-1.0,103.0,-73.0,127.0,127.0,127.0,-115.0,-87.0,105.0
125.0,124.0,127.0,128.0,127.0,129.0,123.0,125.0,-1.0,103.0,-73.0,127.0,127.0,127.0,-115.0,-87.0,105.0
125.0,124.0,127.0,128.0,127.0,129.0,123.0,125.0,-1.0,103.0,-73.0,127.0,127.0,127.0,-115.0,-87.0,105.0
125.0,124.0,127.0,127.0,127.0,129.0,123.0,125.0,-1.0,103.0,-73.0,127.0,127.0,127.0,-115.0,-87.0,105.0
125.0,124.0,127.0,127.0,127.0,129.0,123.0,125.0,-1.0,103.0,-73.0,127.0,127.0,127.0,-115.0,-87.0,105.0
125.0,124.0,127.0,127.0,127.0,129.0,123.0,125.0,-1.0,103.0,-73.0,127.0,127.0,127.0,-115.0,-87.0,105.0
125.0,124.0,127.0,128.0,127.0,129.0,122.0,125.0,-1.0,103.0,-73.0,127.0,127.0,127.0,-115.0,-87.0,105.0
125.0,124.0,127.0,128.0,127.0,130.0,122.0,126.0,-1.0,103.0,-73.0,127.0,127.0,127.0,-115.0,-87.0,105.0
125.0,124.0,127.0,128.0,127.0,130.0,122.0,126.0,-1.0,103.0,-73.0,127.0,127.0,127.0,-115.0,-87.0,105.0
125.0,124.0,127.0,128.0,127.0,130.0,122.0,126.0,-1.0,103.0,-73.0,127.0,127.0,127.0,-115.0,-87.0,105.0
125.0,124.0,127.0,128.0,127.0,129.0,122.0,126.0,-1.0,103.0,-73.0,127.0,127.0,127.0,-115.0,-87.0,105.0
125.0,124.0,127.0,128.0,127.0,129.0,122.0,125.0,-1.0,103.0,-73.0,127.0,127.0,127.0,-115.0,-87.0,105.0
125.0,124.0,127.0,128.0,127.0,129.0,122.0,125.0,-1.0,103.0,-73.0,127.0,127.0,127.0,-115.0,-87.0,105.0
125.0,124.0,127.0,128.0,127.0,129.0,122.0,125.0,-1.0,103.0,-73.0,127.0,127.0,127.0,-115.0,-87.0,105.0
125.0,124.0,127.0,128.0,127.0,129.0,122.0,125.0,-1.0,103.0,-73.0,127.0,127.0,127.0,-115.0,-87.0,105.0
125.0,124.0,127.0,128.0,127.0,129.0,122.0,125.0,-1.0,103.0,-73.0,127.0,127.0,127.0,-115.0,-87.0,105.0
125.0,124.0,127.0,128.0,127.0,130.0,121.0,125.0,-1.0,103.0,-73.0,127.0,127.0,127.0,-115.0,-87.0,105.0
125.0,124.0,127.0,128.0,127.0,130.0,120.0,125.0,-1.0,103.0,-73.0,127.0,127.0,127.0,-115.0,-87.0,105.0
125.0,124.0,127.0,128.0,127.0,130.0,120.0,125.0,-1.0,103.0,-73.0,127.0,127.0,127.0,-115.0,-87.0,105.0
125.0,124.0,127.0,128.0,127.0,130.0,120.0,125.0,-1.0,103.0,-73.0,127.0,127.0,127.0,-115.0,-87.0,105.0
125.0,124.0,127.0,128.0,127.0,130.0,120.0,125.0,-1.0,103.0,-73.0,127.0,127.0,127.0,-115.0,-87.0,105.0
125.0,124.0,127.0,128.0,127.0,130.0,120.0,125.0,-1.0,103.0,-73.0,127.0,127.0,127.0,-115.0,-87.0,105.0
125.0,124.0,127.0,128.0,127.0,130.0,120.0,125.0,-1.0,103.0,-73.0,127.0,127.0,127.0,-115.0,-87.0,105.0
125.0,124.0,128.0,128.0,127.0,129.0,120.0,125.0,-1.0,103.0,-73.0,127.0,127.0,127.0,-115.0,-87.0,105.0
125.0,124.0,128.0,128.0,127.0,129.0,120.0,125.0,-1.0,103.0,-73.0,127.0,127.0,127.0,-115.0,-87.0,105.0
125.0,124.0,128.0,128.0,127.0,129.0,120.0,125.0,-1.0,103.0,-73.0,127.0,127.0,127.0,-115.0,-87.0,105.0
125.0,125.0,127.0,127.0,127.0,131.0,119.0,123.0,-1.0,103.0,-73.0,127.0,127.0,127.0,-115.0,-87.0,105.0
125.0,125.0,127.0,127.0,127.0,130.0,119.0,123.0,-1.0,103.0,-73.0,127.0,127.0,127.0,-115.0,-87.0,105.0
125.0,124.0,127.0,127.0,127.0,130.0,119.0,123.0,-1.0,103.0,-73.0,127.0,127.0,127.0,-115.0,-87.0,105.0
125.0,124.0,127.0,127.0,127.0,130.0,119.0,123.0,-1.0,103.0,-73.0,127.0,127.0,127.0,-115.0,-87.0,105.0
125.0,124.0,127.0,127.0,127.0,130.0,119.0,123.0,-1.0,103.0,-73.0,127.0,127.0,127.0,-115.0,-87.0,105.0
125.0,124.0,127.0,127.0,127.0,129.0,119.0,123.0,-1.0,103.0,-73.0,127.0,127.0,127.0,-115.0,-87.0,105.0
125.0,124.0,127.0,127.0,127.0,129.0,119.0,123.0,-1.0,103.0,-73.0,127.0,127.0,127.0,-115.0,-87.0,105.0
125.0,124.0,127.0,127.0,127.0,130.0,120.0,123.0,-1.0,103.0,-73.0,127.0,127.0,127.0,-115.0,-87.0,105.0
125.0,123.0,127.0,127.0,127.0,129.0,120.0,123.0,-1.0,103.0,-73.0,127.0,127.0,127.0,-115.0,-87.0,105.0
125.0,124.0,127.0,127.0,127.0,131.0,120.0,123.0,-1.0,103.0,-73.0,127.0,127.0,127.0,-115.0,-87.0,105.0
124.0,124.0,126.0,127.0,126.0,131.0,118.0,123.0,-1.0,103.0,-73.0,127.0,127.0,127.0,-115.0,-87.0,105.0
124.0,124.0,126.0,127.0,126.0,131.0,118.0,123.0,-1.0,103.0,-73.0,127.0,127.0,127.0,-115.0,-87.0,105.0
124.0,124.0,126.0,127.0,126.0,131.0,118.0,123.0,-1.0,103.0,-73.0,127.0,127.0,127.0,-115.0,-87.0,105.0
124.0,124.0,126.0,127.0,126.0,130.0,118.0,123.0,-1.0,103.0,-73.0,127.0,127.0,127.0,-115.0,-87.0,105.0
124.0,124.0,126.0,127.0,126.0,130.0,118.0,123.0,-1.0,103.0,-73.0,127.0,127.0,127.0,-115.0,-87.0,105.0
124.0,124.0,126.0,127.0,126.0,129.0,119.0,123.0,-1.0,103.0,-73.0,127.0,127.0,127.0,-115.0,-87.0,105.0
124.0,124.0,126.0,127.0,126.0,129.0,119.0,123.0,-1.0,103.0,-73.0,127.0,127.0,127.0,-115.0,-87.0,105.0
124.0,124.0,126.0,127.0,126.0,128.0,119.0,123.0,-1.0,103.0,-73.0,127.0,127.0,127.0,-115.0,-87.0,105.0
124.0,124.0,127.0,127.0,126.0,131.0,119.0,123.0,-1.0,103.0,-73.0,127.0,127.0,127.0,-115.0,-87.0,105.0
125.0,124.0,126.0,127.0,126.0,131.0,118.0,123.0,-1.0,103.0,-73.0,127.0,127.0,127.0,-115.0,-87.0,105.0
124.0,124.0,127.0,127.0,127.0,130.0,122.0,126.0,-1.0,103.0,-73.0,127.0,127.0,127.0,-115.0,-87.0,105.0
125.0,124.0,127.0,127.0,127.0,130.0,122.0,126.0,-1.0,103.0,-73.0,127.0,127.0,127.0,-115.0,-87.0,105.0
125.0,124.0,127.0,127.0,127.0,129.0,122.0,126.0,-1.0,103.0,-73.0,127.0,127.0,127.0,-115.0,-87.0,105.0
125.0,124.0,127.0,127.0,127.0,128.0,122.0,126.0,-1.0,103.0,-73.0,127.0,127.0,127.0,-115.0,-87.0,105.0
125.0,124.0,127.0,127.0,127.0,127.0,122.0,126.0,-1.0,103.0,-73.0,127.0,127.0,127.0,-115.0,-87.0,105.0
125.0,124.0,127.0,127.0,127.0,127.0,122.0,126.0,-1.0,103.0,-73.0,127.0,127.0,127.0,-115.0,-87.0,105.0
125.0,124.0,127.0,127.0,127.0,126.0,122.0,126.0,-1.0,103.0,-73.0,127.0,127.0,127.0,-115.0,-87.0,105.0
124.0,124.0,127.0,127.0,128.0,130.0,121.0,126.0,-1.0,103.0,-73.0,127.0,127.0,127.0,-115.0,-87.0,105.0
124.0,124.0,127.0,127.0,128.0,130.0,121.0,126.0,-1.0,103.0,-73.0,127.0,127.0,127.0,-115.0,-87.0,105.0
124.0,124.0,127.0,127.0,127.0,130.0,122.0,126.0,-1.0,103.0,-73.0,127.0,127.0,127.0,-115.0,-87.0,105.0
125.0,124.0,126.0,127.0,127.0,131.0,124.0,127.0,-1.0,103.0,-73.0,127.0,127.0,127.0,-115.0,-87.0,105.0
125.0,124.0,126.0,127.0,127.0,131.0,124.0,127.0,-1.0,103.0,-73.0,127.0,127.0,127.0,-115.0,-87.0,105.0
125.0,124.0,126.0,127.0,127.0,131.0,124.0,127.0,-1.0,103.0,-73.0,127.0,127.0,127.0,-115.0,-87.0,105.0
125.0,124.0,127.0,127.0,127.0,130.0,125.0,127.0,-1.0,103.0,-73.0,127.0,127.0,127.0,-115.0,-87.0,105.0
125.0,124.0,126.0,127.0,127.0,129.0,125.0,127.0,-1.0,103.0,-73.0,127.0,127.0,127.0,-115.0,-87.0,105.0
125.0,124.0,126.0,127.0,127.0,129.0,125.0,127.0,-1.0,103.0,-73.0,127.0,127.0,127.0,-115.0,-87.0,105.0
125.0,124.0,126.0,127.0,127.0,132.0,123.0,127.0,-1.0,103.0,-73.0,127.0,127.0,127.0,-115.0,-87.0,105.0
125.0,124.0,126.0,127.0,127.0,132.0,124.0,127.0,-1.0,103.0,-73.0,127.0,127.0,127.0,-115.0,-87.0,105.0
125.0,124.0,126.0,127.0,127.0,131.0,124.0,127.0,-1.0,103.0,-73.0,127.0,127.0,127.0,-115.0,-87.0,105.0
125.0,124.0,126.0,127.0,127.0,131.0,124.0,127.0,-1.0,103.0,-73.0,127.0,127.0,127.0,-115.0,-87.0,105.0
125.0,125.0,126.0,127.0,127.0,132.0,126.0,128.0,-1.0,103.0,-72.0,127.0,127.0,127.0,-115.0,-87.0,105.0
125.0,125.0,126.0,127.0,127.0,132.0,126.0,128.0,-1.0,103.0,-72.0,127.0,127.0,127.0,-115.0,-87.0,105.0
125.0,125.0,126.0,127.0,128.0,131.0,126.0,128.0,-1.0,103.0,-72.0,127.0,127.0,127.0,-115.0,-87.0,105.0
125.0,125.0,126.0,127.0,127.0,131.0,126.0,128.0,-1.0,103.0,-72.0,127.0,127.0,127.0,-115.0,-87.0,105.0
125.0,125.0,126.0,127.0,128.0,131.0,127.0,128.0,-1.0,103.0,-72.0,127.0,127.0,127.0,-115.0,-87.0,105.0
125.0,125.0,126.0,127.0,127.0,132.0,124.0,128.0,-1.0,103.0,-72.0,127.0,127.0,127.0,-115.0,-87.0,105.0
125.0,125.0,126.0,127.0,127.0,132.0,125.0,128.0,-1.0,103.0,-72.0,127.0,127.0,127.0,-115.0,-87.0,105.0
125.0,125.0,126.0,127.0,127.0,132.0,125.0,128.0,-1.0,103.0,-72.0,127.0,127.0,127.0,-115.0,-87.0,105.0
125.0,125.0,126.0,127.0,127.0,132.0,125.0,128.0,-1.0,103.0,-72.0,127.0,127.0,127.0,-115.0,-87.0,105.0
125.0,125.0,126.0,127.0,127.0,132.0,125.0,128.0,-1.0,103.0,-72.0,127.0,127.0,127.0,-115.0,-87.0,105.0
124.0,125.0,125.0,126.0,127.0,130.0,125.0,127.0,-1.0,103.0,-72.0,127.0,127.0,127.0,-115.0,-87.0,105.0
124.0,125.0,125.0,126.0,127.0,130.0,125.0,127.0,-1.0,103.0,-72.0,127.0,127.0,127.0,-115.0,-87.0,105.0
124.0,125.0,125.0,126.0,127.0,130.0,125.0,127.0,-1.0,103.0,-72.0,127.0,127.0,127.0,-115.0,-87.0,105.0
124.0,125.0,125.0,126.0,127.0,130.0,125.0,127.0,-1.0,103.0,-72.0,127.0,127.0,127.0,-115.0,-87.0,105.0
124.0,126.0,126.0,126.0,127.0,129.0,124.0,128.0,-1.0,103.0,-72.0,127.0,127.0,127.0,-115.0,-87.0,105.0
124.0,126.0,126.0,126.0,127.0,129.0,124.0,127.0,-1.0,103.0,-72.0,127.0,127.0,127.0,-115.0,-87.0,105.0
124.0,126.0,126.0,126.0,127.0,129.0,124.0,127.0,-1.0,103.0,-72.0,127.0,127.0,127.0,-115.0,-87.0,105.0
124.0,126.0,126.0,126.0,127.0,129.0,124.0,127.0,-1.0,103.0,-72.0,127.0,127.0,127.0,-115.0,-87.0,105.0
124.0,126.0,126.0,126.0,127.0,129.0,124.0,127.0,-1.0,103.0,-72.0,127.0,127.0,127.0,-115.0,-87.0,105.0
124.0,125.0,126.0,126.0,127.0,129.0,125.0,127.0,-1.0,103.0,-72.0,127.0,127.0,127.0,-115.0,-87.0,105.0
125.0,126.0,126.0,127.0,128.0,129.0,129.0,127.0,-1.0,103.0,-72.0,127.0,127.0,127.0,-115.0,-87.0,105.0
125.0,126.0,126.0,127.0,128.0,129.0,129.0,127.0,-1.0,103.0,-72.0,127.0,127.0,127.0,-115.0,-87.0,105.0
125.0,126.0,126.0,127.0,128.0,129.0,129.0,127.0,-1.0,103.0,-72.0,127.0,127.0,127.0,-115.0,-87.0,105.0
125.0,126.0,126.0,127.0,127.0,129.0,127.0,127.0,-1.0,103.0,-72.0,127.0,127.0,127.0,-115.0,-87.0,105.0
125.0,126.0,126.0,127.0,127.0,129.0,127.0,127.0,-1.0,103.0,-72.0,127.0,127.0,127.0,-115.0,-87.0,105.0
125.0,126.0,126.0,127.0,127.0,129.0,128.0,127.0,-1.0,103.0,-72.0,127.0,127.0,127.0,-115.0,-87.0,105.0
125.0,126.0,126.0,127.0,127.0,129.0,128.0,127.0,-1.0,103.0,-72.0,127.0,127.0,127.0,-115.0,-87.0,105.0
125.0,126.0,126.0,127.0,128.0,129.0,128.0,127.0,-1.0,103.0,-72.0,127.0,127.0,127.0,-115.0,-87.0,105.0
125.0,126.0,126.0,127.0,128.0,129.0,128.0,127.0,-1.0,103.0,-72.0,127.0,127.0,127.0,-115.0,-87.0,105.0
125.0,126.0,126.0,127.0,128.0,129.0,128.0,127.0,-1.0,103.0,-72.0,127.0,127.0,127.0,-115.0,-87.0,105.0
124.0,127.0,126.0,126.0,127.0,126.0,131.0,127.0,-1.0,103.0,-72.0,127.0,127.0,127.0,-115.0,-87.0,105.0
124.0,127.0,126.0,126.0,126.0,126.0,131.0,127.0,-1.0,103.0,-72.0,127.0,127.0,127.0,-115.0,-87.0,105.0
124.0,127.0,126.0,127.0,127.0,127.0,130.0,127.0,-1.0,103.0,-72.0,127.0,127.0,127.0,-115.0,-87.0,105.0
124.0,127.0,127.0,127.0,126.0,127.0,130.0,127.0,-1.0,103.0,-72.0,127.0,127.0,127.0,-115.0,-87.0,105.0
124.0,127.0,126.0,127.0,126.0,126.0,130.0,127.0,-1.0,103.0,-72.0,127.0,127.0,127.0,-115.0,-87.0,105.0
124.0,127.0,126.0,126.0,126.0,126.0,130.0,127.0,-1.0,103.0,-72.0,127.0,127.0,127.0,-115.0,-87.0,105.0
124.0,127.0,126.0,126.0,126.0,126.0,131.0,127.0,-1.0,103.0,-72.0,127.0,127.0,127.0,-115.0,-87.0,105.0
124.0,127.0,126.0,126.0,126.0,126.0,131.0,127.0,-1.0,103.0,-72.0,127.0,127.0,127.0,-115.0,-87.0,105.0
124.0,127.0,126.0,126.0,127.0,126.0,131.0,127.0,-1.0,103.0,-72.0,127.0,127.0,127.0,-115.0,-87.0,105.0
124.0,127.0,126.0,126.0,127.0,126.0,131.0,127.0,-1.0,103.0,-72.0,127.0,127.0,127.0,-115.0,-87.0,105.0
124.0,127.0,126.0,126.0,127.0,128.0,128.0,129.0,-1.0,103.0,-72.0,127.0,127.0,127.0,-115.0,-87.0,105.0
124.0,127.0,126.0,126.0,127.0,129.0,126.0,128.0,-1.0,103.0,-72.0,127.0,127.0,127.0,-115.0,-87.0,105.0
124.0,127.0,126.0,126.0,127.0,128.0,126.0,128.0,-1.0,103.0,-72.0,127.0,127.0,127.0,-115.0,-87.0,105.0
124.0,127.0,126.0,126.0,127.0,128.0,126.0,128.0,-1.0,103.0,-72.0,127.0,127.0,127.0,-115.0,-87.0,105.0
124.0,127.0,126.0,126.0,127.0,128.0,126.0,128.0,-1.0,103.0,-72.0,127.0,127.0,127.0,-115.0,-87.0,105.0
124.0,127.0,126.0,126.0,127.0,127.0,126.0,128.0,-1.0,103.0,-72.0,127.0,127.0,127.0,-115.0,-87.0,105.0
124.0,127.0,126.0,126.0,127.0,127.0,127.0,128.0,-1.0,103.0,-72.0,127.0,127.0,127.0,-115.0,-87.0,105.0
124.0,127.0,126.0,126.0,127.0,128.0,127.0,128.0,-1.0,103.0,-72.0,127.0,127.0,127.0,-115.0,-87.0,105.0
124.0,127.0,126.0,126.0,127.0,128.0,127.0,129.0,-1.0,103.0,-72.0,127.0,127.0,127.0,-115.0,-87.0,105.0
124.0,127.0,126.0,126.0,127.0,128.0,128.0,129.0,-1.0,103.0,-72.0,127.0,127.0,127.0,-115.0,-87.0,105.0
124.0,128.0,127.0,128.0,127.0,130.0,130.0,130.0,-1.0,103.0,-72.0,127.0,127.0,127.0,-115.0,-87.0,105.0
124.0,128.0,128.0,128.0,128.0,130.0,130.0,130.0,-1.0,103.0,-72.0,127.0,127.0,127.0,-115.0,-87.0,105.0
124.0,128.0,128.0,128.0,128.0,130.0,130.0,130.0,-1.0,103.0,-72.0,127.0,127.0,127.0,-115.0,-87.0,105.0
124.0,128.0,128.0,128.0,128.0,130.0,130.0,130.0,-1.0,103.0,-72.0,127.0,127.0,127.0,-115.0,-87.0,105.0
124.0,128.0,128.0,128.0,128.0,130.0,130.0,131.0,-1.0,103.0,-72.0,127.0,127.0,127.0,-115.0,-87.0,105.0
124.0,128.0,128.0,128.0,128.0,130.0,130.0,131.0,-1.0,103.0,-72.0,127.0,127.0,127.0,-115.0,-87.0,105.0
124.0,128.0,128.0,128.0,128.0,130.0,130.0,131.0,-1.0,103.0,-72.0,127.0,127.0,127.0,-115.0,-87.0,105.0
124.0,128.0,128.0,128.0,128.0,130.0,131.0,131.0,-1.0,103.0,-72.0,127.0,127.0,127.0,-115.0,-87.0,105.0
124.0,128.0,128.0,128.0,128.0,130.0,131.0,131.0,-1.0,103.0,-72.0,127.0,127.0,127.0,-115.0,-87.0,105.0
124.0,128.0,128.0,128.0,128.0,130.0,131.0,131.0,-1.0,103.0,-72.0,127.0,127.0,127.0,-115.0,-87.0,105.0
125.0,129.0,128.0,128.0,127.0,132.0,130.0,132.0,-1.0,103.0,-72.0,127.0,127.0,127.0,-115.0,-87.0,105.0
125.0,129.0,128.0,128.0,127.0,133.0,130.0,132.0,-1.0,103.0,-72.0,127.0,127.0,127.0,-115.0,-87.0,105.0
125.0,129.0,128.0,128.0,127.0,133.0,129.0,132.0,-1.0,103.0,-72.0,127.0,127.0,127.0,-115.0,-87.0,105.0
125.0,129.0,128.0,128.0,127.0,132.0,129.0,132.0,-1.0,103.0,-72.0,127.0,127.0,127.0,-115.0,-87.0,105.0
125.0,129.0,128.0,128.0,127.0,132.0,129.0,132.0,-1.0,103.0,-72.0,127.0,127.0,127.0,-115.0,-87.0,105.0
125.0,129.0,128.0,128.0,127.0,131.0,129.0,132.0,-1.0,103.0,-72.0,127.0,127.0,127.0,-115.0,-87.0,105.0
125.0,129.0,128.0,128.0,127.0,131.0,129.0,132.0,-1.0,103.0,-72.0,127.0,127.0,127.0,-115.0,-87.0,105.0
125.0,129.0,128.0,128.0,127.0,131.0,128.0,132.0,-1.0,103.0,-72.0,127.0,127.0,127.0,-115.0,-87.0,105.0
126.0,129.0,128.0,128.0,127.0,131.0,128.0,132.0,-1.0,103.0,-72.0,127.0,127.0,127.0,-115.0,-87.0,105.0
125.0,129.0,128.0,128.0,127.0,133.0,130.0,132.0,-1.0,103.0,-72.0,127.0,127.0,127.0,-115.0,-87.0,105.0
126.0,130.0,129.0,127.0,127.0,131.0,127.0,134.0,-1.0,103.0,-72.0,127.0,127.0,127.0,-115.0,-87.0,105.0
127.0,131.0,129.0,128.0,127.0,131.0,126.0,135.0,-1.0,103.0,-72.0,127.0,127.0,127.0,-115.0,-87.0,105.0
127.0,131.0,129.0,127.0,127.0,131.0,126.0,134.0,-1.0,103.0,-72.0,127.0,127.0,127.0,-115.0,-87.0,105.0
126.0,131.0,129.0,127.0,127.0,130.0,127.0,134.0,-1.0,103.0,-72.0,127.0,127.0,127.0,-115.0,-87.0,105.0
126.0,131.0,129.0,127.0,127.0,130.0,127.0,134.0,-1.0,103.0,-72.0,127.0,127.0,127.0,-115.0,-87.0,105.0
127.0,131.0,129.0,127.0,127.0,130.0,127.0,134.0,-1.0,103.0,-72.0,127.0,127.0,127.0,-115.0,-87.0,105.0
127.0,131.0,129.0,127.0,127.0,130.0,127.0,134.0,-1.0,103.0,-72.0,127.0,127.0,127.0,-115.0,-87.0,105.0
127.0,131.0,129.0,127.0,127.0,131.0,126.0,134.0,-1.0,103.0,-72.0,127.0,127.0,127.0,-115.0,-87.0,105.0
126.0,130.0,129.0,127.0,127.0,131.0,127.0,134.0,-1.0,103.0,-72.0,127.0,127.0,127.0,-115.0,-87.0,105.0
126.0,130.0,129.0,128.0,127.0,131.0,127.0,134.0,-1.0,103.0,-72.0,127.0,127.0,127.0,-115.0,-87.0,105.0
127.0,131.0,129.0,128.0,127.0,133.0,128.0,133.0,-1.0,103.0,-73.0,127.0,127.0,127.0,-115.0,-87.0,105.0
127.0,131.0,129.0,128.0,127.0,133.0,128.0,134.0,-1.0,103.0,-73.0,127.0,127.0,127.0,-115.0,-87.0,105.0
126.0,131.0,129.0,128.0,127.0,132.0,128.0,134.0,-1.0,103.0,-73.0,127.0,127.0,127.0,-115.0,-87.0,105.0
127.0,131.0,129.0,128.0,127.0,132.0,128.0,134.0,-1.0,103.0,-73.0,127.0,127.0,127.0,-115.0,-87.0,105.0
127.0,131.0,129.0,128.0,127.0,132.0,128.0,133.0,-1.0,103.0,-73.0,127.0,127.0,127.0,-115.0,-87.0,105.0
127.0,131.0,129.0,128.0,127.0,132.0,128.0,133.0,-1.0,103.0,-73.0,127.0,127.0,127.0,-115.0,-87.0,105.0
127.0,131.0,129.0,128.0,127.0,133.0,128.0,134.0,-1.0,103.0,-73.0,127.0,127.0,127.0,-115.0,-87.0,105.0
126.0,131.0,129.0,128.0,128.0,132.0,128.0,133.0,-1.0,103.0,-73.0,127.0,127.0,127.0,-115.0,-87.0,105.0
126.0,131.0,129.0,128.0,128.0,132.0,128.0,133.0,-1.0,103.0,-73.0,127.0,127.0,127.0,-115.0,-87.0,105.0
126.0,131.0,129.0,128.0,128.0,132.0,128.0,133.0,-1.0,103.0,-73.0,127.0,127.0,127.0,-115.0,-87.0,105.0
127.0,130.0,128.0,127.0,128.0,132.0,130.0,133.0,-1.0,104.0,-73.0,127.0,127.0,127.0,-115.0,-87.0,105.0
127.0,130.0,128.0,127.0,128.0,132.0,130.0,133.0,-1.0,104.0,-73.0,127.0,127.0,127.0,-115.0,-87.0,105.0
126.0,130.0,128.0,127.0,128.0,132.0,130.0,133.0,-1.0,104.0,-73.0,127.0,127.0,127.0,-115.0,-87.0,105.0
126.0,130.0,128.0,127.0,128.0,132.0,130.0,133.0,-1.0,104.0,-73.0,127.0,127.0,127.0,-115.0,-87.0,105.0
126.0,130.0,128.0,127.0,128.0,131.0,131.0,133.0,-1.0,104.0,-73.0,127.0,127.0,127.0,-115.0,-87.0,105.0
126.0,130.0,128.0,127.0,128.0,131.0,131.0,133.0,-1.0,104.0,-73.0,127.0,127.0,127.0,-115.0,-87.0,105.0
127.0,130.0,128.0,128.0,128.0,132.0,129.0,133.0,-1.0,104.0,-73.0,127.0,127.0,127.0,-115.0,-87.0,105.0
127.0,131.0,128.0,128.0,128.0,132.0,129.0,133.0,-1.0,104.0,-73.0,127.0,127.0,127.0,-115.0,-87.0,105.0
127.0,130.0,128.0,128.0,128.0,132.0,129.0,133.0,-1.0,104.0,-73.0,127.0,127.0,127.0,-115.0,-87.0,105.0
127.0,130.0,128.0,127.0,128.0,132.0,130.0,133.0,-1.0,104.0,-73.0,127.0,127.0,127.0,-115.0,-87.0,105.0
126.0,130.0,128.0,127.0,127.0,133.0,132.0,132.0,-1.0,105.0,-74.0,127.0,127.0,127.0,-115.0,-87.0,105.0
126.0,130.0,128.0,127.0,127.0,133.0,132.0,132.0,-1.0,105.0,-74.0,127.0,127.0,127.0,-115.0,-87.0,105.0
126.0,130.0,128.0,127.0,127.0,133.0,132.0,131.0,-1.0,105.0,-74.0,127.0,127.0,127.0,-115.0,-87.0,105.0
126.0,130.0,128.0,127.0,127.0,133.0,132.0,132.0,-1.0,105.0,-74.0,127.0,127.0,127.0,-115.0,-87.0,105.0
127.0,130.0,128.0,127.0,127.0,133.0,133.0,132.0,-1.0,105.0,-74.0,127.0,127.0,127.0,-115.0,-87.0,105.0
126.0,130.0,128.0,127.0,127.0,133.0,131.0,132.0,-1.0,105.0,-74.0,127.0,127.0,127.0,-115.0,-87.0,105.0
126.0,130.0,128.0,127.0,127.0,133.0,131.0,132.0,-1.0,105.0,-74.0,127.0,127.0,127.0,-115.0,-87.0,105.0
126.0,130.0,128.0,127.0,127.0,133.0,131.0,132.0,-1.0,105.0,-74.0,127.0,127.0,127.0,-115.0,-87.0,105.0
126.0,130.0,128.0,127.0,127.0,133.0,131.0,132.0,-1.0,105.0,-74.0,127.0,127.0,127.0,-115.0,-87.0,105.0
126.0,130.0,128.0,127.0,127.0,133.0,132.0,132.0,-1.0,105.0,-74.0,127.0,127.0,127.0,-115.0,-87.0,105.0
127.0,129.0,127.0,127.0,127.0,131.0,132.0,131.0,-1.0,106.0,-74.0,127.0,127.0,127.0,-115.0,-87.0,105.0
127.0,129.0,127.0,127.0,127.0,131.0,133.0,130.0,-1.0,106.0,-74.0,127.0,127.0,127.0,-115.0,-87.0,105.0
127.0,129.0,127.0,127.0,127.0,131.0,133.0,131.0,-1.0,106.0,-74.0,127.0,127.0,127.0,-115.0,-87.0,105.0
127.0,129.0,127.0,127.0,127.0,131.0,133.0,130.0,-1.0,106.0,-74.0,127.0,127.0,127.0,-115.0,-87.0,105.0
127.0,130.0,127.0,127.0,127.0,132.0,131.0,131.0,-1.0,106.0,-74.0,127.0,127.0,127.0,-115.0,-87.0,105.0
127.0,130.0,127.0,127.0,127.0,132.0,131.0,131.0,-1.0,106.0,-74.0,127.0,127.0,127.0,-115.0,-87.0,105.0
127.0,130.0,127.0,127.0,127.0,132.0,132.0,131.0,-1.0,106.0,-74.0,127.0,127.0,127.0,-115.0,-87.0,105.0
127.0,130.0,127.0,127.0,127.0,131.0,132.0,131.0,-1.0,106.0,-74.0,127.0,127.0,127.0,-115.0,-87.0,105.0
127.0,130.0,127.0,127.0,127.0,131.0,132.0,131.0,-1.0,106.0,-74.0,127.0,127.0,127.0,-115.0,-87.0,105.0
127.0,129.0,127.0,127.0,127.0,131.0,132.0,131.0,-1.0,106.0,-74.0,127.0,127.0,127.0,-115.0,-87.0,105.0
127.0,129.0,127.0,128.0,127.0,133.0,136.0,130.0,-1.0,106.0,-75.0,127.0,127.0,127.0,-115.0,-87.0,105.0
127.0,129.0,127.0,128.0,127.0,133.0,137.0,130.0,-1.0,106.0,-75.0,127.0,127.0,127.0,-115.0,-87.0,105.0
127.0,129.0,127.0,128.0,127.0,133.0,137.0,130.0,-1.0,106.0,-75.0,127.0,127.0,127.0,-115.0,-87.0,105.0
127.0,129.0,127.0,128.0,127.0,134.0,135.0,131.0,-1.0,106.0,-75.0,127.0,127.0,127.0,-115.0,-87.0,105.0
127.0,129.0,127.0,128.0,127.0,134.0,135.0,131.0,-1.0,106.0,-75.0,127.0,127.0,127.0,-115.0,-87.0,105.0
127.0,129.0,127.0,128.0,127.0,134.0,135.0,130.0,-1.0,106.0,-75.0,127.0,127.0,127.0,-115.0,-87.0,105.0
127.0,129.0,127.0,128.0,127.0,133.0,135.0,130.0,-1.0,106.0,-75.0,127.0,127.0,127.0,-115.0,-87.0,105.0
127.0,129.0,127.0,128.0,127.0,133.0,136.0,130.0,-1.0,106.0,-75.0,127.0,127.0,127.0,-115.0,-87.0,105.0
127.0,129.0,127.0,128.0,127.0,133.0,136.0,130.0,-1.0,106.0,-75.0,127.0,127.0,127.0,-115.0,-87.0,105.0
127.0,129.0,127.0,128.0,127.0,133.0,136.0,130.0,-1.0,106.0,-75.0,127.0,127.0,127.0,-115.0,-87.0,105.0
126.0,129.0,127.0,128.0,127.0,133.0,134.0,130.0,-1.0,106.0,-75.0,127.0,127.0,127.0,-115.0,-87.0,105.0
126.0,129.0,127.0,128.0,127.0,133.0,134.0,130.0,-1.0,106.0,-75.0,127.0,127.0,127.0,-115.0,-87.0,105.0
127.0,129.0,127.0,128.0,127.0,134.0,134.0,131.0,-1.0,106.0,-75.0,127.0,127.0,127.0,-115.0,-87.0,105.0
127.0,129.0,127.0,128.0,127.0,134.0,134.0,130.0,-1.0,106.0,-75.0,127.0,127.0,127.0,-115.0,-87.0,105.0
127.0,129.0,127.0,128.0,127.0,134.0,134.0,130.0,-1.0,106.0,-75.0,127.0,127.0,127.0,-115.0,-87.0,105.0
127.0,129.0,127.0,128.0,127.0,133.0,134.0,130.0,-1.0,106.0,-75.0,127.0,127.0,127.0,-115.0,-87.0,105.0
127.0,129.0,127.0,128.0,127.0,133.0,134.0,130.0,-1.0,106.0,-75.0,127.0,127.0,127.0,-115.0,-87.0,105.0
127.0,129.0,127.0,128.0,127.0,133.0,134.0,130.0,-1.0,106.0,-75.0,127.0,127.0,127.0,-115.0,-87.0,105.0
127.0,129.0,127.0,128.0,127.0,133.0,134.0,130.0,-1.0,106.0,-75.0,127.0,127.0,127.0,-115.0,-87.0,105.0
126.0,129.0,127.0,128.0,127.0,133.0,134.0,130.0,-1.0,106.0,-75.0,127.0,127.0,127.0,-115.0,-87.0,105.0
127.0,129.0,127.0,128.0,126.0,132.0,130.0,130.0,-1.0,106.0,-74.0,127.0,127.0,127.0,-115.0,-87.0,105.0
126.0,129.0,127.0,128.0,126.0,131.0,131.0,130.0,-1.0,106.0,-74.0,127.0,127.0,127.0,-115.0,-87.0,105.0
126.0,129.0,127.0,128.0,126.0,131.0,131.0,130.0,-1.0,106.0,-74.0,127.0,127.0,127.0,-115.0,-87.0,105.0
127.0,129.0,127.0,128.0,126.0,131.0,130.0,130.0,-1.0,106.0,-74.0,127.0,127.0,127.0,-115.0,-87.0,105.0
126.0,129.0,127.0,128.0,126.0,131.0,130.0,130.0,-1.0,106.0,-74.0,127.0,127.0,127.0,-115.0,-87.0,105.0
126.0,129.0,127.0,128.0,126.0,131.0,130.0,130.0,-1.0,106.0,-74.0,127.0,127.0,127.0,-115.0,-87.0,105.0
126.0,129.0,127.0,127.0,126.0,131.0,130.0,130.0,-1.0,106.0,-74.0,127.0,127.0,127.0,-115.0,-87.0,105.0
127.0,129.0,127.0,127.0,126.0,131.0,130.0,130.0,-1.0,106.0,-74.0,127.0,127.0,127.0,-115.0,-87.0,105.0
127.0,129.0,127.0,128.0,126.0,132.0,130.0,130.0,-1.0,106.0,-74.0,127.0,127.0,127.0,-115.0,-87.0,105.0
127.0,129.0,127.0,128.0,126.0,132.0,130.0,130.0,-1.0,106.0,-74.0,127.0,127.0,127.0,-115.0,-87.0,105.0
127.0,128.0,127.0,127.0,126.0,132.0,127.0,130.0,-1.0,106.0,-74.0,127.0,127.0,127.0,-115.0,-87.0,105.0
126.0,129.0,127.0,128.0,126.0,132.0,126.0,130.0,-1.0,106.0,-74.0,127.0,127.0,127.0,-115.0,-87.0,105.0
127.0,129.0,127.0,128.0,126.0,132.0,126.0,130.0,-1.0,106.0,-74.0,127.0,127.0,127.0,-115.0,-87.0,105.0
127.0,129.0,127.0,128.0,126.0,132.0,126.0,130.0,-1.0,106.0,-74.0,127.0,127.0,127.0,-115.0,-87.0,105.0
126.0,129.0,127.0,128.0,126.0,132.0,126.0,130.0,-1.0,106.0,-74.0,127.0,127.0,127.0,-115.0,-87.0,105.0
127.0,129.0,127.0,127.0,126.0,132.0,126.0,130.0,-1.0,106.0,-74.0,127.0,127.0,127.0,-115.0,-87.0,105.0
126.0,129.0,127.0,128.0,126.0,132.0,126.0,130.0,-1.0,106.0,-74.0,127.0,127.0,127.0,-115.0,-87.0,105.0
127.0,129.0,127.0,127.0,126.0,132.0,125.0,130.0,-1.0,106.0,-74.0,127.0,127.0,127.0,-115.0,-87.0,105.0
127.0,129.0,126.0,127.0,126.0,132.0,125.0,130.0,-1.0,106.0,-74.0,127.0,127.0,127.0,-115.0,-87.0,105.0
126.0,129.0,127.0,127.0,126.0,132.0,125.0,130.0,-1.0,106.0,-74.0,127.0,127.0,127.0,-115.0,-87.0,105.0
127.0,129.0,127.0,128.0,126.0,132.0,124.0,130.0,-1.0,106.0,-74.0,127.0,127.0,127.0,-115.0,-87.0,105.0
127.0,129.0,127.0,128.0,126.0,132.0,124.0,130.0,-1.0,106.0,-74.0,127.0,127.0,127.0,-115.0,-87.0,105.0
127.0,129.0,127.0,128.0,126.0,132.0,124.0,130.0,-1.0,106.0,-74.0,127.0,127.0,127.0,-115.0,-87.0,105.0
126.0,129.0,127.0,128.0,126.0,132.0,124.0,130.0,-1.0,106.0,-74.0,127.0,127.0,127.0,-115.0,-87.0,105.0
127.0,129.0,127.0,127.0,127.0,132.0,124.0,130.0,-1.0,106.0,-74.0,127.0,127.0,127.0,-115.0,-87.0,105.0
127.0,129.0,127.0,128.0,126.0,132.0,124.0,130.0,-1.0,106.0,-74.0,127.0,127.0,127.0,-115.0,-87.0,105.0
127.0,129.0,127.0,128.0,126.0,132.0,124.0,130.0,-1.0,106.0,-74.0,127.0,127.0,127.0,-115.0,-87.0,105.0
127.0,129.0,127.0,128.0,126.0,132.0,124.0,130.0,-1.0,106.0,-74.0,127.0,127.0,127.0,-115.0,-87.0,105.0
127.0,129.0,127.0,128.0,126.0,132.0,124.0,130.0,-1.0,106.0,-74.0,127.0,127.0,127.0,-115.0,-87.0,105.0
126.0,128.0,127.0,127.0,126.0,131.0,124.0,130.0,-1.0,106.0,-74.0,127.0,127.0,127.0,-115.0,-87.0,105.0
127.0,128.0,127.0,127.0,126.0,131.0,124.0,130.0,-1.0,106.0,-73.0,127.0,127.0,127.0,-115.0,-87.0,105.0
127.0,128.0,127.0,127.0,126.0,131.0,124.0,130.0,-1.0,106.0,-73.0,127.0,127.0,127.0,-115.0,-87.0,105.0
127.0,128.0,127.0,127.0,126.0,131.0,125.0,130.0,-1.0,106.0,-73.0,127.0,127.0,127.0,-115.0,-87.0,105.0
127.0,128.0,127.0,127.0,126.0,131.0,125.0,130.0,-1.0,106.0,-73.0,127.0,127.0,127.0,-115.0,-87.0,105.0
127.0,128.0,127.0,127.0,126.0,131.0,125.0,130.0,-1.0,106.0,-73.0,127.0,127.0,127.0,-115.0,-87.0,105.0
127.0,128.0,126.0,127.0,126.0,132.0,125.0,130.0,-1.0,106.0,-73.0,127.0,127.0,127.0,-115.0,-87.0,105.0
127.0,128.0,126.0,128.0,126.0,132.0,125.0,130.0,-1.0,106.0,-73.0,127.0,127.0,127.0,-115.0,-87.0,105.0
127.0,128.0,126.0,127.0,126.0,132.0,124.0,130.0,-1.0,106.0,-73.0,127.0,127.0,127.0,-115.0,-87.0,105.0
127.0,128.0,127.0,127.0,126.0,130.0,125.0,130.0,-1.0,106.0,-73.0,127.0,127.0,127.0,-115.0,-87.0,105.0
127.0,128.0,127.0,127.0,126.0,131.0,124.0,130.0,-1.0,106.0,-73.0,127.0,127.0,127.0,-115.0,-87.0,105.0
127.0,128.0,127.0,127.0,126.0,132.0,125.0,130.0,-1.0,106.0,-73.0,127.0,127.0,127.0,-115.0,-87.0,105.0
127.0,128.0,127.0,127.0,126.0,131.0,125.0,130.0,-1.0,106.0,-73.0,127.0,127.0,127.0,-115.0,-87.0,105.0
127.0,128.0,127.0,127.0,126.0,131.0,125.0,130.0,-1.0,106.0,-73.0,127.0,127.0,127.0,-115.0,-87.0,105.0
127.0,128.0,127.0,127.0,126.0,131.0,125.0,130.0,-1.0,106.0,-73.0,127.0,127.0,127.0,-115.0,-87.0,105.0
127.0,128.0,127.0,127.0,126.0,131.0,125.0,130.0,-1.0,106.0,-73.0,127.0,127.0,127.0,-115.0,-87.0,105.0
127.0,128.0,127.0,127.0,126.0,131.0,125.0,129.0,-1.0,106.0,-73.0,127.0,127.0,127.0,-115.0,-87.0,105.0
127.0,128.0,127.0,127.0,126.0,131.0,125.0,129.0,-1.0,106.0,-73.0,127.0,127.0,127.0,-115.0,-87.0,105.0
127.0,128.0,127.0,127.0,126.0,131.0,125.0,129.0,-1.0,106.0,-73.0,127.0,127.0,127.0,-115.0,-87.0,105.0
127.0,128.0,127.0,127.0,126.0,132.0,125.0,130.0,-1.0,106.0,-73.0,127.0,127.0,127.0,-115.0,-87.0,105.0
127.0,128.0,127.0,127.0,126.0,132.0,125.0,130.0,-1.0,106.0,-73.0,127.0,127.0,127.0,-115.0,-87.0,105.0
127.0,128.0,127.0,128.0,126.0,131.0,124.0,130.0,-1.0,106.0,-73.0,127.0,127.0,127.0,-115.0,-87.0,105.0
127.0,128.0,127.0,128.0,126.0,130.0,124.0,130.0,-1.0,106.0,-73.0,127.0,127.0,127.0,-115.0,-87.0,105.0
127.0,128.0,127.0,128.0,126.0,130.0,124.0,130.0,-1.0,106.0,-73.0,127.0,127.0,127.0,-115.0,-87.0,105.0
127.0,128.0,127.0,128.0,126.0,130.0,125.0,130.0,-1.0,106.0,-73.0,127.0,127.0,127.0,-115.0,-87.0,105.0
127.0,128.0,127.0,128.0,126.0,130.0,125.0,129.0,-1.0,106.0,-73.0,127.0,127.0,127.0,-115.0,-87.0,105.0
127.0,128.0,127.0,127.0,126.0,130.0,125.0,129.0,-1.0,106.0,-73.0,127.0,127.0,127.0,-115.0,-87.0,105.0
127.0,128.0,127.0,128.0,126.0,131.0,124.0,129.0,-1.0,106.0,-73.0,127.0,127.0,127.0,-115.0,-87.0,105.0
127.0,128.0,127.0,128.0,126.0,131.0,124.0,129.0,-1.0,106.0,-73.0,127.0,127.0,127.0,-115.0,-87.0,105.0
127.0,128.0,127.0,128.0,126.0,131.0,124.0,130.0,-1.0,106.0,-73.0,127.0,127.0,127.0,-115.0,-87.0,105.0
127.0,128.0,127.0,128.0,126.0,131.0,124.0,130.0,-1.0,106.0,-73.0,127.0,127.0,127.0,-115.0,-87.0,105.0
126.0,128.0,127.0,127.0,126.0,130.0,124.0,130.0,-1.0,106.0,-73.0,127.0,127.0,127.0,-115.0,-87.0,105.0
126.0,128.0,127.0,127.0,126.0,130.0,124.0,130.0,-1.0,106.0,-73.0,127.0,127.0,127.0,-115.0,-87.0,105.0
126.0,128.0,127.0,127.0,126.0,130.0,124.0,130.0,-1.0,106.0,-73.0,127.0,127.0,127.0,-115.0,-87.0,105.0
126.0,128.0,127.0,127.0,126.0,130.0,124.0,130.0,-1.0,106.0,-73.0,127.0,127.0,127.0,-115.0,-87.0,105.0
126.0,128.0,127.0,127.0,126.0,130.0,125.0,129.0,-1.0,106.0,-73.0,127.0,127.0,127.0,-115.0,-87.0,105.0
126.0,128.0,127.0,127.0,126.0,130.0,124.0,129.0,-1.0,106.0,-73.0,127.0,127.0,127.0,-115.0,-87.0,105.0
126.0,128.0,127.0,127.0,126.0,130.0,124.0,129.0,-1.0,106.0,-73.0,127.0,127.0,127.0,-115.0,-87.0,105.0
126.0,128.0,126.0,127.0,126.0,131.0,124.0,130.0,-1.0,106.0,-73.0,127.0,127.0,127.0,-115.0,-87.0,105.0
126.0,128.0,126.0,127.0,126.0,131.0,124.0,130.0,-1.0,106.0,-73.0,127.0,127.0,127.0,-115.0,-87.0,105.0
126.0,128.0,127.0,127.0,126.0,130.0,124.0,130.0,-1.0,106.0,-73.0,127.0,127.0,127.0,-115.0,-87.0,105.0
126.0,128.0,126.0,127.0,126.0,131.0,126.0,129.0,-1.0,106.0,-73.0,127.0,127.0,127.0,-115.0,-87.0,105.0
126.0,128.0,126.0,127.0,126.0,131.0,126.0,129.0,-1.0,106.0,-73.0,127.0,127.0,127.0,-115.0,-87.0,105.0
126.0,128.0,127.0,127.0,126.0,131.0,126.0,129.0,-1.0,106.0,-73.0,127.0,127.0,127.0,-115.0,-87.0,105.0
126.0,128.0,127.0,127.0,126.0,131.0,126.0,129.0,-1.0,106.0,-73.0,127.0,127.0,127.0,-115.0,-87.0,105.0
126.0,128.0,127.0,127.0,126.0,130.0,125.0,129.0,-1.0,106.0,-73.0,127.0,127.0,127.0,-115.0,-87.0,105.0
126.0,128.0,127.0,127.0,126.0,130.0,125.0,129.0,-1.0,106.0,-73.0,127.0,127.0,127.0,-115.0,-87.0,105.0
126.0,128.0,126.0,128.0,126.0,131.0,125.0,129.0,-1.0,106.0,-73.0,127.0,127.0,127.0,-115.0,-87.0,105.0
126.0,128.0,127.0,128.0,126.0,131.0,125.0,130.0,-1.0,106.0,-73.0,127.0,127.0,127.0,-115.0,-87.0,105.0
126.0,128.0,127.0,128.0,126.0,131.0,125.0,129.0,-1.0,106.0,-73.0,127.0,127.0,127.0,-115.0,-87.0,105.0
126.0,128.0,127.0,127.0,126.0,131.0,125.0,129.0,-1.0,106.0,-73.0,127.0,127.0,127.0,-115.0,-87.0,105.0
126.0,128.0,127.0,128.0,126.0,130.0,127.0,129.0,-1.0,106.0,-73.0,127.0,127.0,127.0,-115.0,-87.0,105.0
126.0,128.0,127.0,128.0,126.0,130.0,127.0,129.0,-1.0,106.0,-73.0,127.0,127.0,127.0,-115.0,-87.0,105.0
126.0,128.0,127.0,128.0,126.0,130.0,127.0,129.0,-1.0,106.0,-73.0,127.0,127.0,127.0,-115.0,-87.0,105.0
126.0,128.0,127.0,128.0,127.0,130.0,127.0,129.0,-1.0,106.0,-73.0,127.0,127.0,127.0,-115.0,-87.0,105.0
126.0,128.0,127.0,128.0,127.0,130.0,127.0,129.0,-1.0,106.0,-73.0,127.0,127.0,127.0,-115.0,-87.0,105.0
126.0,128.0,127.0,128.0,127.0,129.0,127.0,129.0,-1.0,106.0,-73.0,127.0,127.0,127.0,-115.0,-87.0,105.0
126.0,128.0,127.0,128.0,127.0,130.0,127.0,129.0,-1.0,106.0,-73.0,127.0,127.0,127.0,-115.0,-87.0,105.0
126.0,128.0,127.0,128.0,127.0,130.0,127.0,129.0,-1.0,106.0,-73.0,127.0,127.0,127.0,-115.0,-87.0,105.0
126.0,128.0,127.0,128.0,126.0,130.0,127.0,129.0,-1.0,106.0,-73.0,127.0,127.0,127.0,-115.0,-87.0,105.0
126.0,128.0,127.0,128.0,126.0,130.0,127.0,129.0,-1.0,106.0,-73.0,127.0,127.0,127.0,-115.0,-87.0,105.0
127.0,128.0,127.0,128.0,126.0,128.0,128.0,129.0,-1.0,106.0,-73.0,127.0,127.0,127.0,-115.0,-87.0,105.0
127.0,128.0,127.0,127.0,126.0,128.0,128.0,129.0,-1.0,106.0,-73.0,127.0,127.0,127.0,-115.0,-87.0,105.0
127.0,128.0,127.0,128.0,126.0,129.0,127.0,129.0,-1.0,106.0,-73.0,127.0,127.0,127.0,-115.0,-87.0,105.0
127.0,128.0,127.0,128.0,126.0,129.0,127.0,129.0,-1.0,106.0,-73.0,127.0,127.0,127.0,-115.0,-87.0,105.0
127.0,128.0,127.0,128.0,126.0,129.0,127.0,129.0,-1.0,106.0,-73.0,127.0,127.0,127.0,-115.0,-87.0,105.0
127.0,128.0,127.0,128.0,126.0,129.0,127.0,129.0,-1.0,106.0,-73.0,127.0,127.0,127.0,-115.0,-87.0,105.0
127.0,128.0,127.0,128.0,126.0,129.0,127.0,129.0,-1.0,106.0,-73.0,127.0,127.0,127.0,-115.0,-87.0,105.0
127.0,128.0,127.0,128.0,126.0,129.0,127.0,129.0,-1.0,106.0,-73.0,127.0,127.0,127.0,-115.0,-87.0,105.0
127.0,128.0,127.0,128.0,126.0,129.0,128.0,129.0,-1.0,106.0,-73.0,127.0,127.0,127.0,-115.0,-87.0,105.0
127.0,128.0,127.0,128.0,126.0,129.0,128.0,129.0,-1.0,106.0,-73.0,127.0,127.0,127.0,-115.0,-87.0,105.0
127.0,128.0,127.0,127.0,126.0,129.0,127.0,129.0,-1.0,106.0,-73.0,127.0,127.0,127.0,-115.0,-87.0,105.0
127.0,128.0,127.0,128.0,126.0,130.0,126.0,129.0,-1.0,106.0,-73.0,127.0,127.0,127.0,-115.0,-87.0,105.0
127.0,128.0,127.0,128.0,126.0,130.0,126.0,129.0,-1.0,106.0,-73.0,127.0,127.0,127.0,-115.0,-87.0,105.0
127.0,128.0,127.0,128.0,126.0,129.0,126.0,129.0,-1.0,106.0,-73.0,127.0,127.0,127.0,-115.0,-87.0,105.0
127.0,128.0,127.0,128.0,126.0,129.0,126.0,129.0,-1.0,106.0,-73.0,127.0,127.0,127.0,-115.0,-87.0,105.0
127.0,128.0,127.0,128.0,126.0,129.0,126.0,129.0,-1.0,106.0,-73.0,127.0,127.0,127.0,-115.0,-87.0,105.0
127.0,128.0,127.0,128.0,126.0,129.0,126.0,129.0,-1.0,106.0,-73.0,127.0,127.0,127.0,-115.0,-87.0,105.0
127.0,128.0,127.0,128.0,126.0,129.0,127.0,129.0,-1.0,106.0,-73.0,127.0,127.0,127.0,-115.0,-87.0,105.0
127.0,128.0,127.0,128.0,126.0,129.0,127.0,129.0,-1.0,106.0,-73.0,127.0,127.0,127.0,-115.0,-87.0,105.0
127.0,128.0,127.0,128.0,126.0,129.0,127.0,129.0,-1.0,106.0,-73.0,127.0,127.0,127.0,-115.0,-87.0,105.0
127.0,128.0,127.0,128.0,126.0,130.0,125.0,129.0,-1.0,106.0,-73.0,127.0,127.0,127.0,-115.0,-87.0,105.0
127.0,128.0,127.0,128.0,126.0,130.0,125.0,129.0,-1.0,106.0,-73.0,127.0,127.0,127.0,-115.0,-87.0,105.0
127.0,128.0,127.0,128.0,126.0,130.0,125.0,129.0,-1.0,106.0,-73.0,127.0,127.0,127.0,-115.0,-87.0,105.0
127.0,128.0,127.0,128.0,126.0,130.0,125.0,129.0,-1.0,106.0,-73.0,127.0,127.0,127.0,-115.0,-87.0,105.0
127.0,128.0,127.0,128.0,126.0,130.0,125.0,129.0,-1.0,106.0,-73.0,127.0,127.0,127.0,-115.0,-87.0,105.0
127.0,128.0,127.0,128.0,126.0,130.0,125.0,129.0,-1.0,106.0,-73.0,127.0,127.0,127.0,-115.0,-87.0,105.0
127.0,128.0,127.0,128.0,126.0,130.0,125.0,129.0,-1.0,106.0,-73.0,127.0,127.0,127.0,-115.0,-87.0,105.0
127.0,128.0,127.0,128.0,126.0,130.0,125.0,129.0,-1.0,106.0,-73.0,127.0,127.0,127.0,-115.0,-87.0,105.0
127.0,128.0,127.0,128.0,126.0,129.0,125.0,129.0,-1.0,106.0,-73.0,127.0,127.0,127.0,-115.0,-87.0,105.0
127.0,128.0,127.0,128.0,126.0,129.0,125.0,129.0,-1.0,106.0,-73.0,127.0,127.0,127.0,-115.0,-87.0,105.0
127.0,128.0,127.0,128.0,126.0,131.0,126.0,130.0,-1.0,106.0,-73.0,127.0,127.0,127.0,-115.0,-87.0,105.0
127.0,128.0,127.0,128.0,126.0,131.0,126.0,130.0,-1.0,106.0,-73.0,127.0,127.0,127.0,-115.0,-87.0,105.0
127.0,128.0,127.0,128.0,126.0,130.0,126.0,130.0,-1.0,106.0,-73.0,127.0,127.0,127.0,-115.0,-87.0,105.0
127.0,128.0,127.0,128.0,126.0,130.0,126.0,130.0,-1.0,106.0,-73.0,127.0,127.0,127.0,-115.0,-87.0,105.0
127.0,128.0,127.0,128.0,126.0,130.0,126.0,129.0,-1.0,106.0,-73.0,127.0,127.0,127.0,-115.0,-87.0,105.0
127.0,128.0,127.0,128.0,127.0,130.0,126.0,129.0,-1.0,106.0,-73.0,127.0,127.0,127.0,-115.0,-87.0,105.0
127.0,128.0,127.0,128.0,127.0,130.0,126.0,129.0,-1.0,106.0,-73.0,127.0,127.0,127.0,-115.0,-87.0,105.0
127.0,128.0,127.0,128.0,127.0,130.0,126.0,129.0,-1.0,106.0,-73.0,127.0,127.0,127.0,-115.0,-87.0,105.0
127.0,128.0,127.0,128.0,127.0,130.0,127.0,129.0,-1.0,106.0,-73.0,127.0,127.0,127.0,-115.0,-87.0,105.0
127.0,128.0,127.0,128.0,126.0,131.0,126.0,130.0,-1.0,106.0,-73.0,127.0,127.0,127.0,-115.0,-87.0,105.0
127.0,128.0,127.0,128.0,126.0,129.0,126.0,129.0,-1.0,106.0,-74.0,127.0,127.0,127.0,-115.0,-87.0,105.0
127.0,128.0,127.0,128.0,126.0,129.0,126.0,129.0,-1.0,106.0,-74.0,127.0,127.0,127.0,-115.0,-87.0,105.0
127.0,128.0,127.0,128.0,126.0,129.0,126.0,129.0,-1.0,106.0,-74.0,127.0,127.0,127.0,-115.0,-87.0,105.0
127.0,128.0,127.0,128.0,126.0,129.0,126.0,129.0,-1.0,106.0,-74.0,127.0,127.0,127.0,-115.0,-87.0,105.0
127.0,128.0,127.0,128.0,126.0,129.0,127.0,129.0,-1.0,106.0,-74.0,127.0,127.0,127.0,-115.0,-87.0,105.0
127.0,128.0,127.0,128.0,126.0,129.0,127.0,129.0,-1.0,106.0,-74.0,127.0,127.0,127.0,-115.0,-87.0,105.0
127.0,128.0,127.0,128.0,126.0,129.0,127.0,129.0,-1.0,106.0,-74.0,127.0,127.0,127.0,-115.0,-87.0,105.0
127.0,128.0,127.0,128.0,126.0,129.0,127.0,129.0,-1.0,106.0,-74.0,127.0,127.0,127.0,-115.0,-87.0,105.0
127.0,128.0,127.0,128.0,126.0,130.0,127.0,129.0,-1.0,106.0,-74.0,127.0,127.0,127.0,-115.0,-87.0,105.0
127.0,128.0,127.0,128.0,126.0,129.0,126.0,129.0,-1.0,106.0,-74.0,127.0,127.0,127.0,-115.0,-87.0,105.0
127.0,128.0,126.0,128.0,127.0,131.0,126.0,129.0,-1.0,106.0,-74.0,127.0,127.0,127.0,-115.0,-87.0,105.0
127.0,128.0,126.0,128.0,127.0,130.0,126.0,129.0,-1.0,106.0,-74.0,127.0,127.0,127.0,-115.0,-87.0,105.0
127.0,128.0,126.0,128.0,127.0,130.0,126.0,129.0,-1.0,106.0,-74.0,127.0,127.0,127.0,-115.0,-87.0,105.0
127.0,128.0,127.0,128.0,127.0,130.0,126.0,129.0,-1.0,106.0,-74.0,127.0,127.0,127.0,-115.0,-87.0,105.0
127.0,128.0,127.0,128.0,127.0,130.0,126.0,129.0,-1.0,106.0,-74.0,127.0,127.0,127.0,-115.0,-87.0,105.0
127.0,128.0,127.0,128.0,127.0,130.0,126.0,129.0,-1.0,106.0,-74.0,127.0,127.0,127.0,-115.0,-87.0,105.0
127.0,128.0,127.0,128.0,127.0,130.0,126.0,129.0,-1.0,106.0,-74.0,127.0,127.0,127.0,-115.0,-87.0,105.0
127.0,128.0,126.0,127.0,126.0,131.0,126.0,129.0,-1.0,106.0,-74.0,127.0,127.0,127.0,-115.0,-87.0,105.0
127.0,128.0,126.0,128.0,126.0,131.0,126.0,129.0,-1.0,106.0,-74.0,127.0,127.0,127.0,-115.0,-87.0,105.0
127.0,128.0,126.0,128.0,127.0,131.0,126.0,129.0,-1.0,106.0,-74.0,127.0,127.0,127.0,-115.0,-87.0,105.0
127.0,128.0,127.0,127.0,126.0,130.0,126.0,129.0,-1.0,106.0,-74.0,127.0,127.0,127.0,-115.0,-87.0,105.0
127.0,128.0,127.0,127.0,126.0,129.0,126.0,129.0,-1.0,106.0,-74.0,127.0,127.0,127.0,-115.0,-87.0,105.0
127.0,128.0,127.0,127.0,126.0,129.0,126.0,129.0,-1.0,106.0,-74.0,127.0,127.0,127.0,-115.0,-87.0,105.0
127.0,128.0,127.0,127.0,126.0,129.0,126.0,129.0,-1.0,106.0,-74.0,127.0,127.0,127.0,-115.0,-87.0,105.0
127.0,128.0,127.0,127.0,126.0,129.0,126.0,129.0,-1.0,106.0,-74.0,127.0,127.0,127.0,-115.0,-87.0,105.0
127.0,128.0,127.0,127.0,127.0,128.0,126.0,129.0,-1.0,106.0,-74.0,127.0,127.0,127.0,-115.0,-87.0,105.0
127.0,128.0,126.0,127.0,126.0,130.0,126.0,129.0,-1.0,106.0,-74.0,127.0,127.0,127.0,-115.0,-87.0,105.0
127.0,128.0,127.0,127.0,126.0,130.0,126.0,129.0,-1.0,106.0,-74.0,127.0,127.0,127.0,-115.0,-87.0,105.0
127.0,128.0,127.0,127.0,126.0,130.0,126.0,129.0,-1.0,106.0,-74.0,127.0,127.0,127.0,-115.0,-87.0,105.0
127.0,128.0,127.0,127.0,126.0,130.0,126.0,129.0,-1.0,106.0,-74.0,127.0,127.0,127.0,-115.0,-87.0,105.0
127.0,128.0,127.0,127.0,126.0,128.0,125.0,129.0,-1.0,106.0,-74.0,127.0,127.0,127.0,-115.0,-87.0,105.0
127.0,128.0,127.0,127.0,127.0,128.0,125.0,129.0,-1.0,106.0,-74.0,127.0,127.0,127.0,-115.0,-87.0,105.0
127.0,128.0,127.0,127.0,127.0,128.0,125.0,129.0,-1.0,106.0,-74.0,127.0,127.0,127.0,-115.0,-87.0,105.0
127.0,128.0,127.0,127.0,127.0,128.0,125.0,129.0,-1.0,106.0,-74.0,127.0,127.0,127.0,-115.0,-87.0,105.0
127.0,128.0,127.0,127.0,127.0,128.0,125.0,129.0,-1.0,106.0,-74.0,127.0,127.0,127.0,-115.0,-87.0,105.0
127.0,128.0,127.0,127.0,127.0,128.0,126.0,129.0,-1.0,106.0,-74.0,127.0,127.0,127.0,-115.0,-87.0,105.0
127.0,127.0,127.0,127.0,127.0,128.0,126.0,129.0,-1.0,106.0,-74.0,127.0,127.0,127.0,-115.0,-87.0,105.0
127.0,128.0,127.0,127.0,127.0,128.0,126.0,129.0,-1.0,106.0,-74.0,127.0,127.0,127.0,-115.0,-87.0,105.0
127.0,128.0,127.0,127.0,126.0,128.0,126.0,128.0,-1.0,106.0,-74.0,127.0,127.0,127.0,-115.0,-87.0,105.0
127.0,128.0,127.0,127.0,126.0,128.0,125.0,129.0,-1.0,106.0,-74.0,127.0,127.0,127.0,-115.0,-87.0,105.0
127.0,127.0,127.0,127.0,126.0,129.0,126.0,128.0,-1.0,106.0,-74.0,127.0,127.0,127.0,-115.0,-87.0,105.0
127.0,127.0,127.0,127.0,126.0,129.0,126.0,128.0,-1.0,106.0,-74.0,127.0,127.0,127.0,-115.0,-87.0,105.0
127.0,127.0,127.0,127.0,126.0,128.0,126.0,128.0,-1.0,106.0,-74.0,127.0,127.0,127.0,-115.0,-87.0,105.0
127.0,127.0,127.0,127.0,126.0,128.0,126.0,128.0,-1.0,106.0,-74.0,127.0,127.0,127.0,-115.0,-87.0,105.0
127.0,127.0,127.0,127.0,126.0,129.0,125.0,128.0,-1.0,106.0,-74.0,127.0,127.0,127.0,-115.0,-87.0,105.0
127.0,127.0,127.0,127.0,126.0,129.0,125.0,128.0,-1.0,106.0,-74.0,127.0,127.0,127.0,-115.0,-87.0,105.0
127.0,127.0,127.0,127.0,126.0,129.0,125.0,128.0,-1.0,106.0,-74.0,127.0,127.0,127.0,-115.0,-87.0,105.0
127.0,127.0,127.0,127.0,126.0,129.0,125.0,128.0,-1.0,106.0,-74.0,127.0,127.0,127.0,-115.0,-87.0,105.0
127.0,127.0,127.0,127.0,126.0,129.0,125.0,128.0,-1.0,106.0,-74.0,127.0,127.0,127.0,-115.0,-87.0,105.0
127.0,127.0,127.0,127.0,126.0,129.0,126.0,128.0,-1.0,106.0,-74.0,127.0,127.0,127.0,-115.0,-87.0,105.0
127.0,127.0,127.0,127.0,127.0,130.0,127.0,129.0,-1.0,106.0,-74.0,127.0,127.0,127.0,-115.0,-87.0,105.0
127.0,127.0,127.0,127.0,127.0,130.0,127.0,129.0,-1.0,106.0,-74.0,127.0,127.0,127.0,-115.0,-87.0,105.0
127.0,127.0,127.0,127.0,127.0,130.0,127.0,129.0,-1.0,106.0,-74.0,127.0,127.0,127.0,-115.0,-87.0,105.0
127.0,128.0,127.0,127.0,126.0,130.0,126.0,129.0,-1.0,106.0,-74.0,127.0,127.0,127.0,-115.0,-87.0,105.0
127.0,128.0,127.0,127.0,126.0,130.0,126.0,129.0,-1.0,106.0,-74.0,127.0,127.0,127.0,-115.0,-87.0,105.0
127.0,128.0,127.0,127.0,126.0,130.0,126.0,129.0,-1.0,106.0,-74.0,127.0,127.0,127.0,-115.0,-87.0,105.0
127.0,128.0,127.0,127.0,127.0,130.0,126.0,129.0,-1.0,106.0,-74.0,127.0,127.0,127.0,-115.0,-87.0,105.0
127.0,128.0,127.0,127.0,127.0,130.0,126.0,129.0,-1.0,106.0,-74.0,127.0,127.0,127.0,-115.0,-87.0,105.0
127.0,127.0,127.0,127.0,127.0,130.0,126.0,129.0,-1.0,106.0,-74.0,127.0,127.0,127.0,-115.0,-87.0,105.0
127.0,127.0,127.0,127.0,127.0,130.0,126.0,129.0,-1.0,106.0,-74.0,127.0,127.0,127.0,-115.0,-87.0,105.0
127.0,127.0,127.0,127.0,126.0,128.0,127.0,129.0,-1.0,106.0,-74.0,127.0,127.0,127.0,-115.0,-87.0,105.0
127.0,127.0,127.0,127.0,127.0,128.0,127.0,129.0,-1.0,106.0,-74.0,127.0,127.0,127.0,-115.0,-87.0,105.0
127.0,127.0,127.0,127.0,126.0,129.0,126.0,129.0,-1.0,106.0,-74.0,127.0,127.0,127.0,-115.0,-87.0,105.0
127.0,127.0,127.0,127.0,126.0,129.0,126.0,129.0,-1.0,106.0,-74.0,127.0,127.0,127.0,-115.0,-87.0,105.0
127.0,127.0,127.0,127.0,126.0,129.0,126.0,129.0,-1.0,106.0,-74.0,127.0,127.0,127.0,-115.0,-87.0,105.0
127.0,127.0,127.0,127.0,126.0,129.0,126.0,129.0,-1.0,106.0,-74.0,127.0,127.0,127.0,-115.0,-87.0,105.0
127.0,127.0,127.0,127.0,126.0,129.0,126.0,129.0,-1.0,106.0,-74.0,127.0,127.0,127.0,-115.0,-87.0,105.0
127.0,127.0,127.0,127.0,126.0,129.0,127.0,129.0,-1.0,106.0,-74.0,127.0,127.0,127.0,-115.0,-87.0,105.0
127.0,127.0,127.0,127.0,127.0,129.0,127.0,129.0,-1.0,106.0,-74.0,127.0,127.0,127.0,-115.0,-87.0,105.0
127.0,127.0,127.0,127.0,127.0,129.0,127.0,129.0,-1.0,106.0,-74.0,127.0,127.0,127.0,-115.0,-87.0,105.0
127.0,128.0,127.0,127.0,126.0,129.0,128.0,128.0,-1.0,106.0,-74.0,127.0,127.0,127.0,-115.0,-87.0,105.0
127.0,128.0,127.0,127.0,126.0,129.0,127.0,129.0,-1.0,106.0,-74.0,127.0,127.0,127.0,-115.0,-87.0,105.0
127.0,128.0,127.0,127.0,126.0,129.0,127.0,129.0,-1.0,106.0,-74.0,127.0,127.0,127.0,-115.0,-87.0,105.0
127.0,128.0,127.0,127.0,126.0,129.0,127.0,129.0,-1.0,106.0,-74.0,127.0,127.0,127.0,-115.0,-87.0,105.0
127.0,128.0,127.0,127.0,126.0,129.0,127.0,129.0,-1.0,106.0,-74.0,127.0,127.0,127.0,-115.0,-87.0,105.0
127.0,128.0,127.0,127.0,126.0,129.0,127.0,129.0,-1.0,106.0,-74.0,127.0,127.0,127.0,-115.0,-87.0,105.0
127.0,128.0,127.0,127.0,126.0,129.0,127.0,129.0,-1.0,106.0,-74.0,127.0,127.0,127.0,-115.0,-87.0,105.0
127.0,128.0,127.0,127.0,126.0,129.0,127.0,129.0,-1.0,106.0,-74.0,127.0,127.0,127.0,-115.0,-87.0,105.0
127.0,128.0,127.0,127.0,126.0,129.0,127.0,129.0,-1.0,106.0,-74.0,127.0,127.0,127.0,-115.0,-87.0,105.0
127.0,128.0,127.0,127.0,126.0,129.0,127.0,128.0,-1.0,106.0,-74.0,127.0,127.0,127.0,-115.0,-87.0,105.0
126.0,128.0,127.0,127.0,126.0,129.0,126.0,128.0,-1.0,106.0,-74.0,127.0,127.0,127.0,-115.0,-87.0,105.0
126.0,128.0,127.0,127.0,126.0,129.0,126.0,128.0,-1.0,106.0,-74.0,127.0,127.0,127.0,-115.0,-87.0,105.0
126.0,128.0,127.0,127.0,126.0,129.0,126.0,128.0,-1.0,106.0,-74.0,127.0,127.0,127.0,-115.0,-87.0,105.0
127.0,127.0,127.0,127.0,126.0,129.0,126.0,128.0,-1.0,106.0,-74.0,127.0,127.0,127.0,-115.0,-87.0,105.0
127.0,128.0,127.0,127.0,126.0,129.0,126.0,128.0,-1.0,106.0,-74.0,127.0,127.0,127.0,-115.0,-87.0,105.0
126.0,127.0,127.0,127.0,126.0,129.0,126.0,128.0,-1.0,106.0,-74.0,127.0,127.0,127.0,-115.0,-87.0,105.0
127.0,127.0,127.0,127.0,126.0,129.0,126.0,128.0,-1.0,106.0,-74.0,127.0,127.0,127.0,-115.0,-87.0,105.0
127.0,127.0,127.0,127.0,126.0,129.0,126.0,128.0,-1.0,106.0,-74.0,127.0,127.0,127.0,-115.0,-87.0,105.0
127.0,127.0,127.0,127.0,126.0,128.0,126.0,128.0,-1.0,106.0,-74.0,127.0,127.0,127.0,-115.0,-87.0,105.0
127.0,127.0,127.0,127.0,126.0,128.0,126.0,128.0,-1.0,106.0,-74.0,127.0,127.0,127.0,-115.0,-87.0,105.0
126.0,128.0,127.0,127.0,126.0,130.0,125.0,128.0,-1.0,106.0,-74.0,127.0,127.0,127.0,-115.0,-87.0,105.0
126.0,127.0,127.0,127.0,126.0,130.0,125.0,128.0,-1.0,106.0,-74.0,127.0,127.0,127.0,-115.0,-87.0,105.0
126.0,128.0,127.0,127.0,126.0,130.0,125.0,128.0,-1.0,106.0,-74.0,127.0,127.0,127.0,-115.0,-87.0,105.0
126.0,128.0,127.0,127.0,127.0,129.0,125.0,128.0,-1.0,106.0,-74.0,127.0,127.0,127.0,-115.0,-87.0,105.0
126.0,128.0,127.0,127.0,127.0,129.0,125.0,128.0,-1.0,106.0,-74.0,127.0,127.0,127.0,-115.0,-87.0,105.0
126.0,127.0,127.0,127.0,127.0,129.0,125.0,128.0,-1.0,106.0,-74.0,127.0,127.0,127.0,-115.0,-87.0,105.0
126.0,127.0,127.0,127.0,127.0,129.0,126.0,128.0,-1.0,106.0,-74.0,127.0,127.0,127.0,-115.0,-87.0,105.0
126.0,127.0,127.0,127.0,127.0,129.0,126.0,128.0,-1.0,106.0,-74.0,127.0,127.0,127.0,-115.0,-87.0,105.0
126.0,127.0,127.0,127.0,127.0,129.0,126.0,128.0,-1.0,106.0,-74.0,127.0,127.0,127.0,-115.0,-87.0,105.0
126.0,127.0,127.0,127.0,126.0,130.0,125.0,128.0,-1.0,106.0,-74.0,127.0,127.0,127.0,-115.0,-87.0,105.0
126.0,128.0,127.0,127.0,127.0,129.0,125.0,129.0,-1.0,106.0,-74.0,127.0,127.0,127.0,-115.0,-87.0,105.0
126.0,128.0,127.0,127.0,127.0,129.0,125.0,128.0,-1.0,106.0,-74.0,127.0,127.0,127.0,-115.0,-87.0,105.0
126.0,128.0,127.0,127.0,126.0,129.0,125.0,128.0,-1.0,106.0,-74.0,127.0,127.0,127.0,-115.0,-87.0,105.0
126.0,128.0,127.0,127.0,127.0,129.0,125.0,128.0,-1.0,106.0,-74.0,127.0,127.0,127.0,-115.0,-87.0,105.0
126.0,128.0,127.0,127.0,127.0,129.0,125.0,128.0,-1.0,106.0,-74.0,127.0,127.0,127.0,-115.0,-87.0,105.0
126.0,128.0,127.0,127.0,127.0,129.0,125.0,128.0,-1.0,106.0,-74.0,127.0,127.0,127.0,-115.0,-87.0,105.0
126.0,127.0,127.0,127.0,127.0,129.0,125.0,128.0,-1.0,106.0,-74.0,127.0,127.0,127.0,-115.0,-87.0,105.0
126.0,127.0,127.0,127.0,127.0,129.0,125.0,128.0,-1.0,106.0,-74.0,127.0,127.0,127.0,-115.0,-87.0,105.0
126.0,128.0,127.0,127.0,126.0,130.0,125.0,128.0,-1.0,106.0,-74.0,127.0,127.0,127.0,-115.0,-87.0,105.0
126.0,128.0,127.0,127.0,126.0,129.0,125.0,128.0,-1.0,106.0,-74.0,127.0,127.0,127.0,-115.0,-87.0,105.0
126.0,128.0,127.0,127.0,126.0,130.0,125.0,128.0,-1.0,106.0,-74.0,127.0,127.0,127.0,-115.0,-87.0,105.0
126.0,127.0,127.0,127.0,126.0,129.0,125.0,128.0,-1.0,106.0,-74.0,127.0,127.0,127.0,-115.0,-87.0,105.0
126.0,127.0,127.0,127.0,126.0,129.0,125.0,128.0,-1.0,106.0,-74.0,127.0,127.0,127.0,-115.0,-87.0,105.0
126.0,127.0,127.0,127.0,126.0,129.0,125.0,128.0,-1.0,106.0,-74.0,127.0,127.0,127.0,-115.0,-87.0,105.0
126.0,127.0,127.0,127.0,126.0,128.0,125.0,128.0,-1.0,106.0,-74.0,127.0,127.0,127.0,-115.0,-87.0,105.0
126.0,127.0,127.0,127.0,126.0,129.0,125.0,128.0,-1.0,106.0,-74.0,127.0,127.0,127.0,-115.0,-87.0,105.0
126.0,128.0,127.0,127.0,126.0,129.0,124.0,128.0,-1.0,106.0,-74.0,127.0,127.0,127.0,-115.0,-87.0,105.0
126.0,127.0,127.0,127.0,127.0,130.0,126.0,128.0,-1.0,106.0,-74.0,127.0,127.0,127.0,-115.0,-87.0,105.0
126.0,127.0,127.0,127.0,127.0,129.0,126.0,128.0,-1.0,106.0,-74.0,127.0,127.0,127.0,-115.0,-87.0,105.0
126.0,127.0,127.0,127.0,127.0,130.0,125.0,128.0,-1.0,106.0,-74.0,127.0,127.0,127.0,-115.0,-87.0,105.0
127.0,128.0,127.0,127.0,127.0,129.0,124.0,129.0,-1.0,106.0,-74.0,127.0,127.0,127.0,-115.0,-87.0,105.0
127.0,128.0,127.0,127.0,127.0,129.0,125.0,129.0,-1.0,106.0,-74.0,127.0,127.0,127.0,-115.0,-87.0,105.0
126.0,128.0,127.0,127.0,127.0,128.0,125.0,128.0,-1.0,106.0,-74.0,127.0,127.0,127.0,-115.0,-87.0,105.0
126.0,128.0,127.0,127.0,127.0,128.0,125.0,128.0,-1.0,106.0,-74.0,127.0,127.0,127.0,-115.0,-87.0,105.0
126.0,127.0,127.0,127.0,127.0,128.0,124.0,128.0,-1.0,106.0,-74.0,127.0,127.0,127.0,-115.0,-87.0,105.0
127.0,128.0,127.0,127.0,126.0,129.0,124.0,129.0,-1.0,106.0,-74.0,127.0,127.0,127.0,-115.0,-87.0,105.0
126.0,127.0,127.0,127.0,127.0,128.0,125.0,128.0,-1.0,106.0,-74.0,127.0,127.0,127.0,-115.0,-87.0,105.0
126.0,127.0,127.0,127.0,127.0,128.0,125.0,128.0,-1.0,106.0,-74.0,127.0,127.0,127.0,-115.0,-87.0,105.0
126.0,128.0,127.0,127.0,127.0,129.0,125.0,128.0,-1.0,106.0,-74.0,127.0,127.0,127.0,-115.0,-87.0,105.0
126.0,128.0,127.0,127.0,127.0,129.0,125.0,129.0,-1.0,106.0,-74.0,127.0,127.0,127.0,-115.0,-87.0,105.0
126.0,127.0,127.0,127.0,127.0,129.0,125.0,128.0,-1.0,106.0,-74.0,127.0,127.0,127.0,-115.0,-87.0,105.0
126.0,127.0,127.0,127.0,127.0,129.0,125.0,128.0,-1.0,106.0,-74.0,127.0,127.0,127.0,-115.0,-87.0,105.0
127.0,128.0,127.0,127.0,127.0,129.0,125.0,128.0,-1.0,106.0,-74.0,127.0,127.0,127.0,-115.0,-87.0,105.0
126.0,127.0,127.0,127.0,127.0,129.0,125.0,128.0,-1.0,106.0,-74.0,127.0,127.0,127.0,-115.0,-87.0,105.0
127.0,128.0,127.0,127.0,126.0,129.0,125.0,129.0,-1.0,106.0,-74.0,127.0,127.0,127.0,-115.0,-87.0,105.0
126.0,127.0,127.0,127.0,127.0,128.0,126.0,128.0,-1.0,106.0,-74.0,127.0,127.0,127.0,-115.0,-87.0,105.0
126.0,127.0,127.0,127.0,127.0,128.0,125.0,128.0,-1.0,106.0,-74.0,127.0,127.0,127.0,-115.0,-87.0,105.0
126.0,127.0,127.0,127.0,127.0,128.0,125.0,128.0,-1.0,106.0,-74.0,127.0,127.0,127.0,-115.0,-87.0,105.0
126.0,127.0,127.0,127.0,126.0,129.0,125.0,128.0,-1.0,106.0,-74.0,127.0,127.0,127.0,-115.0,-87.0,105.0
126.0,128.0,127.0,127.0,126.0,129.0,125.0,129.0,-1.0,106.0,-74.0,127.0,127.0,127.0,-115.0,-87.0,105.0
127.0,128.0,127.0,127.0,126.0,129.0,124.0,129.0,-1.0,106.0,-74.0,127.0,127.0,127.0,-115.0,-87.0,105.0
126.0,128.0,127.0,127.0,126.0,129.0,124.0,129.0,-1.0,106.0,-74.0,127.0,127.0,127.0,-115.0,-87.0,105.0
126.0,128.0,127.0,127.0,126.0,128.0,124.0,128.0,-1.0,106.0,-74.0,127.0,127.0,127.0,-115.0,-87.0,105.0
127.0,128.0,127.0,127.0,126.0,129.0,124.0,129.0,-1.0,106.0,-74.0,127.0,127.0,127.0,-115.0,-87.0,105.0
126.0,128.0,127.0,127.0,127.0,128.0,125.0,128.0,-1.0,106.0,-74.0,127.0,127.0,127.0,-115.0,-87.0,105.0
126.0,128.0,127.0,127.0,126.0,128.0,125.0,128.0,-1.0,106.0,-74.0,127.0,127.0,127.0,-115.0,-87.0,105.0
126.0,128.0,127.0,127.0,126.0,128.0,125.0,128.0,-1.0,106.0,-74.0,127.0,127.0,127.0,-115.0,-87.0,105.0
127.0,128.0,127.0,127.0,126.0,129.0,124.0,129.0,-1.0,106.0,-74.0,127.0,127.0,127.0,-115.0,-87.0,105.0
127.0,128.0,127.0,127.0,126.0,129.0,124.0,129.0,-1.0,106.0,-74.0,127.0,127.0,127.0,-115.0,-87.0,105.0
127.0,128.0,127.0,127.0,126.0,129.0,124.0,129.0,-1.0,106.0,-74.0,127.0,127.0,127.0,-115.0,-87.0,105.0
126.0,127.0,127.0,127.0,127.0,128.0,125.0,128.0,-1.0,106.0,-74.0,127.0,127.0,127.0,-115.0,-87.0,105.0
126.0,128.0,127.0,127.0,126.0,128.0,125.0,128.0,-1.0,106.0,-74.0,127.0,127.0,127.0,-115.0,-87.0,105.0
126.0,128.0,127.0,127.0,127.0,128.0,125.0,128.0,-1.0,106.0,-74.0,127.0,127.0,127.0,-115.0,-87.0,105.0
126.0,128.0,127.0,127.0,126.0,129.0,124.0,128.0,-1.0,106.0,-74.0,127.0,127.0,127.0,-115.0,-87.0,105.0
126.0,128.0,127.0,127.0,126.0,129.0,124.0,129.0,-1.0,106.0,-74.0,127.0,127.0,127.0,-115.0,-87.0,105.0
126.0,128.0,127.0,127.0,126.0,128.0,124.0,128.0,-1.0,106.0,-74.0,127.0,127.0,127.0,-115.0,-87.0,105.0
126.0,128.0,127.0,127.0,126.0,128.0,124.0,128.0,-1.0,106.0,-74.0,127.0,127.0,127.0,-115.0,-87.0,105.0
126.0,128.0,127.0,127.0,126.0,128.0,125.0,128.0,-1.0,106.0,-74.0,127.0,127.0,127.0,-115.0,-87.0,105.0
126.0,128.0,127.0,127.0,126.0,128.0,125.0,128.0,-1.0,106.0,-74.0,127.0,127.0,127.0,-115.0,-87.0,105.0
126.0,128.0,127.0,127.0,126.0,128.0,125.0,128.0,-1.0,106.0,-74.0,127.0,127.0,127.0,-115.0,-87.0,105.0
126.0,127.0,127.0,127.0,127.0,128.0,126.0,128.0,-1.0,106.0,-74.0,127.0,127.0,127.0,-115.0,-87.0,105.0
126.0,127.0,127.0,127.0,127.0,128.0,126.0,128.0,-1.0,106.0,-74.0,127.0,127.0,127.0,-115.0,-87.0,105.0
127.0,128.0,127.0,127.0,127.0,130.0,126.0,129.0,-1.0,106.0,-74.0,127.0,127.0,127.0,-115.0,-87.0,105.0
126.0,127.0,127.0,127.0,127.0,130.0,126.0,129.0,-1.0,106.0,-74.0,127.0,127.0,127.0,-115.0,-87.0,105.0
126.0,127.0,127.0,127.0,127.0,129.0,126.0,129.0,-1.0,106.0,-74.0,127.0,127.0,127.0,-115.0,-87.0,105.0
126.0,127.0,127.0,127.0,127.0,129.0,126.0,129.0,-1.0,106.0,-74.0,127.0,127.0,127.0,-115.0,-87.0,105.0
126.0,127.0,127.0,127.0,127.0,129.0,126.0,128.0,-1.0,106.0,-74.0,127.0,127.0,127.0,-115.0,-87.0,105.0
127.0,127.0,127.0,127.0,127.0,129.0,126.0,128.0,-1.0,106.0,-74.0,127.0,127.0,127.0,-115.0,-87.0,105.0
126.0,127.0,127.0,127.0,127.0,129.0,126.0,128.0,-1.0,106.0,-74.0,127.0,127.0,127.0,-115.0,-87.0,105.0
126.0,127.0,127.0,127.0,127.0,128.0,126.0,128.0,-1.0,106.0,-74.0,127.0,127.0,127.0,-115.0,-87.0,105.0
126.0,127.0,127.0,127.0,127.0,128.0,125.0,128.0,-1.0,106.0,-73.0,127.0,127.0,127.0,-115.0,-87.0,105.0
127.0,127.0,127.0,127.0,126.0,129.0,125.0,129.0,-1.0,106.0,-73.0,127.0,127.0,127.0,-115.0,-87.0,105.0
126.0,127.0,127.0,127.0,126.0,129.0,125.0,129.0,-1.0,106.0,-73.0,127.0,127.0,127.0,-115.0,-87.0,105.0
126.0,127.0,127.0,127.0,126.0,129.0,125.0,129.0,-1.0,106.0,-73.0,127.0,127.0,127.0,-115.0,-87.0,105.0
126.0,127.0,127.0,127.0,126.0,129.0,125.0,128.0,-1.0,106.0,-73.0,127.0,127.0,127.0,-115.0,-87.0,105.0
126.0,127.0,127.0,127.0,126.0,129.0,125.0,128.0,-1.0,106.0,-73.0,127.0,127.0,127.0,-115.0,-87.0,105.0
126.0,127.0,127.0,127.0,126.0,129.0,125.0,128.0,-1.0,106.0,-73.0,127.0,127.0,127.0,-115.0,-87.0,105.0
126.0,127.0,127.0,127.0,127.0,129.0,125.0,128.0,-1.0,106.0,-73.0,127.0,127.0,127.0,-115.0,-87.0,105.0
126.0,127.0,127.0,127.0,127.0,128.0,125.0,128.0,-1.0,106.0,-73.0,127.0,127.0,127.0,-115.0,-87.0,105.0
126.0,127.0,127.0,127.0,126.0,129.0,125.0,128.0,-1.0,106.0,-73.0,127.0,127.0,127.0,-115.0,-87.0,105.0
127.0,128.0,127.0,127.0,126.0,129.0,125.0,128.0,-1.0,106.0,-73.0,127.0,127.0,127.0,-115.0,-87.0,105.0
127.0,128.0,127.0,127.0,126.0,129.0,125.0,128.0,-1.0,106.0,-73.0,127.0,127.0,127.0,-115.0,-87.0,105.0
127.0,128.0,127.0,127.0,126.0,129.0,125.0,128.0,-1.0,106.0,-73.0,127.0,127.0,127.0,-115.0,-87.0,105.0
127.0,128.0,127.0,127.0,126.0,128.0,125.0,128.0,-1.0,106.0,-73.0,127.0,127.0,127.0,-115.0,-87.0,105.0
127.0,128.0,127.0,127.0,126.0,128.0,125.0,128.0,-1.0,106.0,-73.0,127.0,127.0,127.0,-115.0,-87.0,105.0
127.0,128.0,127.0,127.0,126.0,128.0,125.0,128.0,-1.0,106.0,-73.0,127.0,127.0,127.0,-115.0,-87.0,105.0
127.0,128.0,127.0,127.0,126.0,128.0,125.0,128.0,-1.0,106.0,-73.0,127.0,127.0,127.0,-115.0,-87.0,105.0
127.0,128.0,127.0,127.0,126.0,128.0,125.0,128.0,-1.0,106.0,-73.0,127.0,127.0,127.0,-115.0,-87.0,105.0
127.0,128.0,127.0,127.0,126.0,128.0,126.0,128.0,-1.0,106.0,-73.0,127.0,127.0,127.0,-115.0,-87.0,105.0
127.0,128.0,127.0,127.0,126.0,128.0,126.0,128.0,-1.0,106.0,-73.0,127.0,127.0,127.0,-115.0,-87.0,105.0
127.0,128.0,127.0,127.0,127.0,128.0,125.0,128.0,-1.0,106.0,-73.0,127.0,127.0,127.0,-115.0,-87.0,105.0
127.0,128.0,127.0,127.0,127.0,128.0,124.0,128.0,-1.0,106.0,-73.0,127.0,127.0,127.0,-115.0,-87.0,105.0
127.0,128.0,127.0,127.0,127.0,128.0,124.0,128.0,-1.0,106.0,-73.0,127.0,127.0,127.0,-115.0,-87.0,105.0
127.0,128.0,127.0,127.0,127.0,128.0,125.0,128.0,-1.0,106.0,-73.0,127.0,127.0,127.0,-115.0,-87.0,105.0
127.0,128.0,127.0,127.0,127.0,128.0,125.0,128.0,-1.0,106.0,-73.0,127.0,127.0,127.0,-115.0,-87.0,105.0
127.0,128.0,127.0,127.0,127.0,128.0,125.0,128.0,-1.0,106.0,-73.0,127.0,127.0,127.0,-115.0,-87.0,105.0
127.0,128.0,126.0,127.0,126.0,128.0,124.0,128.0,-1.0,106.0,-73.0,127.0,127.0,127.0,-115.0,-87.0,105.0
127.0,128.0,127.0,127.0,126.0,128.0,124.0,128.0,-1.0,106.0,-73.0,127.0,127.0,127.0,-115.0,-87.0,105.0
127.0,128.0,127.0,127.0,126.0,128.0,124.0,128.0,-1.0,106.0,-73.0,127.0,127.0,127.0,-115.0,-87.0,105.0
127.0,128.0,127.0,127.0,127.0,128.0,125.0,128.0,-1.0,106.0,-73.0,127.0,127.0,127.0,-115.0,-87.0,105.0
127.0,128.0,127.0,127.0,126.0,129.0,125.0,128.0,-1.0,106.0,-73.0,127.0,127.0,127.0,-115.0,-87.0,105.0
127.0,128.0,127.0,127.0,126.0,129.0,125.0,128.0,-1.0,106.0,-73.0,127.0,127.0,127.0,-115.0,-87.0,105.0
127.0,128.0,127.0,127.0,126.0,129.0,125.0,128.0,-1.0,106.0,-73.0,127.0,127.0,127.0,-115.0,-87.0,105.0
127.0,127.0,127.0,127.0,126.0,129.0,125.0,128.0,-1.0,106.0,-73.0,127.0,127.0,127.0,-115.0,-87.0,105.0
127.0,128.0,127.0,127.0,126.0,129.0,125.0,128.0,-1.0,106.0,-73.0,127.0,127.0,127.0,-115.0,-87.0,105.0
127.0,128.0,127.0,127.0,126.0,129.0,125.0,128.0,-1.0,106.0,-73.0,127.0,127.0,127.0,-115.0,-87.0,105.0
127.0,128.0,127.0,127.0,126.0,129.0,125.0,129.0,-1.0,106.0,-73.0,127.0,127.0,127.0,-115.0,-87.0,105.0
127.0,128.0,127.0,127.0,126.0,129.0,125.0,129.0,-1.0,106.0,-73.0,127.0,127.0,127.0,-115.0,-87.0,105.0
127.0,127.0,127.0,127.0,126.0,128.0,125.0,128.0,-1.0,106.0,-73.0,127.0,127.0,127.0,-115.0,-87.0,105.0
127.0,128.0,127.0,127.0,126.0,129.0,125.0,128.0,-1.0,106.0,-73.0,127.0,127.0,127.0,-115.0,-87.0,105.0
127.0,128.0,127.0,127.0,126.0,128.0,125.0,128.0,-1.0,106.0,-73.0,127.0,127.0,127.0,-115.0,-87.0,105.0
127.0,128.0,127.0,127.0,126.0,128.0,125.0,128.0,-1.0,106.0,-73.0,127.0,127.0,127.0,-115.0,-87.0,105.0
127.0,127.0,127.0,127.0,126.0,128.0,125.0,128.0,-1.0,106.0,-73.0,127.0,127.0,127.0,-115.0,-87.0,105.0
127.0,128.0,127.0,127.0,126.0,128.0,125.0,128.0,-1.0,106.0,-73.0,127.0,127.0,127.0,-115.0,-87.0,105.0
127.0,128.0,127.0,127.0,126.0,128.0,124.0,128.0,-1.0,106.0,-73.0,127.0,127.0,127.0,-115.0,-87.0,105.0
127.0,128.0,127.0,127.0,126.0,129.0,124.0,128.0,-1.0,106.0,-73.0,127.0,127.0,127.0,-115.0,-87.0,105.0
127.0,128.0,127.0,127.0,126.0,129.0,124.0,128.0,-1.0,106.0,-73.0,127.0,127.0,127.0,-115.0,-87.0,105.0
127.0,127.0,127.0,127.0,126.0,128.0,125.0,128.0,-1.0,106.0,-73.0,127.0,127.0,127.0,-115.0,-87.0,105.0
127.0,127.0,127.0,127.0,126.0,128.0,125.0,128.0,-1.0,106.0,-73.0,127.0,127.0,127.0,-115.0,-87.0,105.0
127.0,128.0,127.0,127.0,126.0,128.0,125.0,128.0,-1.0,106.0,-73.0,127.0,127.0,127.0,-115.0,-87.0,105.0
127.0,127.0,127.0,127.0,126.0,129.0,125.0,128.0,-1.0,106.0,-74.0,127.0,127.0,127.0,-115.0,-87.0,105.0
127.0,127.0,127.0,127.0,126.0,129.0,125.0,128.0,-1.0,106.0,-74.0,127.0,127.0,127.0,-115.0,-87.0,105.0
127.0,127.0,127.0,127.0,126.0,129.0,125.0,128.0,-1.0,106.0,-74.0,127.0,127.0,127.0,-115.0,-87.0,105.0
127.0,127.0,127.0,127.0,126.0,129.0,125.0,128.0,-1.0,106.0,-74.0,127.0,127.0,127.0,-115.0,-87.0,105.0
127.0,127.0,127.0,127.0,126.0,129.0,125.0,128.0,-1.0,106.0,-74.0,127.0,127.0,127.0,-115.0,-87.0,105.0
127.0,127.0,127.0,127.0,126.0,129.0,125.0,128.0,-1.0,106.0,-74.0,127.0,127.0,127.0,-115.0,-87.0,105.0
127.0,127.0,127.0,127.0,127.0,128.0,126.0,128.0,-1.0,106.0,-74.0,127.0,127.0,127.0,-115.0,-87.0,105.0
127.0,127.0,127.0,127.0,126.0,128.0,125.0,128.0,-1.0,106.0,-74.0,127.0,127.0,127.0,-115.0,-87.0,105.0
127.0,127.0,127.0,127.0,126.0,129.0,125.0,128.0,-1.0,106.0,-74.0,127.0,127.0,127.0,-115.0,-87.0,105.0
127.0,127.0,127.0,127.0,126.0,129.0,125.0,128.0,-1.0,106.0,-74.0,127.0,127.0,127.0,-115.0,-87.0,105.0
127.0,128.0,127.0,127.0,127.0,130.0,125.0,128.0,-1.0,106.0,-74.0,127.0,127.0,127.0,-115.0,-87.0,105.0
127.0,128.0,127.0,127.0,127.0,130.0,125.0,128.0,-1.0,106.0,-74.0,127.0,127.0,127.0,-115.0,-87.0,105.0
127.0,128.0,127.0,127.0,126.0,130.0,125.0,128.0,-1.0,106.0,-74.0,127.0,127.0,127.0,-115.0,-87.0,105.0
127.0,128.0,127.0,127.0,126.0,131.0,125.0,128.0,-1.0,106.0,-74.0,127.0,127.0,127.0,-115.0,-87.0,105.0
127.0,128.0,127.0,127.0,126.0,131.0,125.0,128.0,-1.0,106.0,-74.0,127.0,127.0,127.0,-115.0,-87.0,105.0
127.0,128.0,127.0,127.0,127.0,130.0,127.0,128.0,-1.0,106.0,-74.0,127.0,127.0,127.0,-115.0,-87.0,105.0
127.0,127.0,127.0,127.0,127.0,130.0,126.0,128.0,-1.0,106.0,-74.0,127.0,127.0,127.0,-115.0,-87.0,105.0
127.0,128.0,127.0,127.0,127.0,130.0,126.0,128.0,-1.0,106.0,-74.0,127.0,127.0,127.0,-115.0,-87.0,105.0
127.0,128.0,127.0,127.0,127.0,130.0,126.0,128.0,-1.0,106.0,-74.0,127.0,127.0,127.0,-115.0,-87.0,105.0
127.0,128.0,127.0,127.0,127.0,130.0,125.0,128.0,-1.0,106.0,-74.0,127.0,127.0,127.0,-115.0,-87.0,105.0
127.0,127.0,127.0,127.0,126.0,128.0,125.0,128.0,-1.0,106.0,-74.0,127.0,127.0,127.0,-115.0,-87.0,105.0
127.0,127.0,127.0,127.0,126.0,128.0,125.0,128.0,-1.0,106.0,-74.0,127.0,127.0,127.0,-115.0,-87.0,105.0
127.0,127.0,127.0,127.0,126.0,129.0,125.0,129.0,-1.0,106.0,-74.0,127.0,127.0,127.0,-115.0,-87.0,105.0
127.0,127.0,127.0,127.0,126.0,129.0,125.0,129.0,-1.0,106.0,-74.0,127.0,127.0,127.0,-115.0,-87.0,105.0
127.0,127.0,127.0,127.0,126.0,128.0,126.0,128.0,-1.0,106.0,-74.0,127.0,127.0,127.0,-115.0,-87.0,105.0
127.0,127.0,127.0,127.0,126.0,128.0,125.0,128.0,-1.0,106.0,-74.0,127.0,127.0,127.0,-115.0,-87.0,105.0
