emg1,emg2,emg3,emg4,emg5,emg6,emg7,emg8,acc_x,acc_y,acc_z,gyro_x,gyro_y,gyro_z,angle_pitch,angle_roll,angle_yaw
127.0,127.0,127.0,127.0,126.0,128.0,126.0,128.0,-1.0,116.0,-87.0,127.0,127.0,127.0,-119.0,-82.0,108.0
127.0,127.0,127.0,127.0,126.0,128.0,126.0,128.0,-1.0,116.0,-87.0,127.0,127.0,127.0,-119.0,-82.0,108.0
127.0,127.0,127.0,127.0,126.0,128.0,126.0,128.0,-1.0,116.0,-87.0,127.0,127.0,127.0,-119.0,-82.0,108.0
127.0,127.0,127.0,127.0,126.0,128.0,126.0,128.0,-1.0,116.0,-87.0,127.0,127.0,127.0,-119.0,-82.0,108.0
127.0,127.0,127.0,127.0,126.0,128.0,127.0,127.0,-1.0,116.0,-87.0,127.0,127.0,127.0,-119.0,-82.0,108.0
127.0,127.0,127.0,127.0,126.0,128.0,127.0,127.0,-1.0,116.0,-87.0,127.0,127.0,127.0,-119.0,-82.0,108.0
127.0,127.0,126.0,127.0,126.0,128.0,126.0,128.0,-1.0,116.0,-87.0,127.0,127.0,127.0,-119.0,-82.0,108.0
127.0,127.0,127.0,127.0,126.0,128.0,126.0,128.0,-1.0,116.0,-87.0,127.0,127.0,127.0,-119.0,-82.0,108.0
127.0,127.0,127.0,127.0,126.0,128.0,126.0,128.0,-1.0,116.0,-87.0,127.0,127.0,127.0,-119.0,-82.0,108.0
127.0,127.0,127.0,127.0,126.0,128.0,126.0,128.0,-1.0,116.0,-87.0,127.0,127.0,127.0,-119.0,-82.0,108.0
127.0,127.0,127.0,127.0,126.0,128.0,126.0,128.0,-1.0,116.0,-87.0,127.0,127.0,127.0,-119.0,-82.0,108.0
127.0,127.0,127.0,127.0,126.0,128.0,126.0,128.0,-1.0,116.0,-87.0,127.0,127.0,127.0,-119.0,-82.0,108.0
127.0,127.0,127.0,127.0,126.0,128.0,126.0,128.0,-1.0,116.0,-87.0,127.0,127.0,127.0,-119.0,-82.0,108.0
127.0,127.0,127.0,127.0,126.0,128.0,127.0,128.0,-1.0,116.0,-87.0,127.0,127.0,127.0,-119.0,-82.0,108.0
127.0,127.0,127.0,127.0,126.0,127.0,127.0,127.0,-1.0,116.0,-87.0,127.0,127.0,127.0,-119.0,-82.0,108.0
127.0,127.0,127.0,127.0,126.0,128.0,127.0,127.0,-1.0,116.0,-87.0,127.0,127.0,127.0,-119.0,-82.0,108.0
127.0,127.0,126.0,127.0,126.0,128.0,126.0,127.0,-1.0,116.0,-87.0,127.0,127.0,127.0,-119.0,-82.0,108.0
127.0,127.0,127.0,127.0,126.0,128.0,126.0,127.0,-1.0,116.0,-87.0,127.0,127.0,127.0,-119.0,-82.0,108.0
127.0,127.0,127.0,127.0,126.0,128.0,126.0,127.0,-1.0,116.0,-87.0,127.0,127.0,127.0,-119.0,-82.0,108.0
127.0,127.0,127.0,127.0,126.0,128.0,126.0,127.0,-1.0,116.0,-87.0,127.0,127.0,127.0,-119.0,-82.0,108.0
127.0,127.0,127.0,127.0,126.0,128.0,126.0,127.0,-1.0,116.0,-87.0,127.0,127.0,127.0,-119.0,-82.0,108.0
127.0,127.0,127.0,127.0,126.0,128.0,127.0,128.0,-1.0,116.0,-87.0,127.0,127.0,127.0,-119.0,-82.0,108.0
127.0,127.0,127.0,127.0,126.0,128.0,127.0,127.0,-1.0,116.0,-87.0,127.0,127.0,127.0,-119.0,-82.0,108.0
127.0,127.0,127.0,127.0,126.0,127.0,127.0,127.0,-1.0,116.0,-87.0,127.0,127.0,127.0,-119.0,-82.0,108.0
127.0,127.0,127.0,127.0,126.0,128.0,127.0,128.0,-1.0,116.0,-88.0,127.0,127.0,127.0,-119.0,-82.0,108.0
127.0,127.0,126.0,127.0,126.0,129.0,127.0,128.0,-1.0,116.0,-88.0,127.0,127.0,127.0,-119.0,-82.0,108.0
127.0,127.0,127.0,127.0,126.0,129.0,127.0,128.0,-1.0,116.0,-88.0,127.0,127.0,127.0,-119.0,-82.0,108.0
127.0,127.0,127.0,127.0,126.0,129.0,127.0,128.0,-1.0,116.0,-88.0,127.0,127.0,127.0,-119.0,-82.0,108.0
127.0,127.0,127.0,127.0,126.0,129.0,127.0,128.0,-1.0,116.0,-88.0,127.0,127.0,127.0,-119.0,-82.0,108.0
127.0,127.0,127.0,127.0,126.0,129.0,127.0,128.0,-1.0,116.0,-88.0,127.0,127.0,127.0,-119.0,-82.0,108.0
127.0,127.0,127.0,127.0,126.0,129.0,127.0,128.0,-1.0,116.0,-88.0,127.0,127.0,127.0,-119.0,-82.0,108.0
127.0,127.0,127.0,127.0,126.0,128.0,127.0,128.0,-1.0,116.0,-88.0,127.0,127.0,127.0,-119.0,-82.0,108.0
127.0,127.0,127.0,127.0,126.0,128.0,127.0,128.0,-1.0,116.0,-88.0,127.0,127.0,127.0,-119.0,-82.0,108.0
127.0,127.0,127.0,127.0,126.0,128.0,127.0,128.0,-1.0,116.0,-88.0,127.0,127.0,127.0,-119.0,-82.0,108.0
127.0,127.0,127.0,127.0,126.0,128.0,126.0,128.0,-1.0,115.0,-88.0,127.0,127.0,127.0,-119.0,-82.0,108.0
127.0,127.0,127.0,127.0,126.0,128.0,126.0,128.0,-1.0,115.0,-88.0,127.0,127.0,127.0,-119.0,-82.0,108.0
127.0,127.0,127.0,127.0,126.0,128.0,126.0,128.0,-1.0,115.0,-88.0,127.0,127.0,127.0,-119.0,-82.0,108.0
127.0,127.0,127.0,127.0,126.0,128.0,126.0,128.0,-1.0,115.0,-88.0,127.0,127.0,127.0,-119.0,-82.0,108.0
127.0,127.0,127.0,127.0,126.0,128.0,126.0,128.0,-1.0,115.0,-88.0,127.0,127.0,127.0,-119.0,-82.0,108.0
127.0,127.0,127.0,127.0,126.0,128.0,126.0,128.0,-1.0,115.0,-88.0,127.0,127.0,127.0,-119.0,-82.0,108.0
127.0,127.0,127.0,127.0,126.0,128.0,126.0,128.0,-1.0,115.0,-88.0,127.0,127.0,127.0,-119.0,-82.0,108.0
127.0,127.0,127.0,127.0,126.0,128.0,126.0,128.0,-1.0,115.0,-88.0,127.0,127.0,127.0,-119.0,-82.0,108.0
127.0,127.0,127.0,127.0,126.0,128.0,126.0,128.0,-1.0,115.0,-88.0,127.0,127.0,127.0,-119.0,-82.0,108.0
127.0,127.0,127.0,127.0,126.0,128.0,126.0,128.0,-1.0,115.0,-88.0,127.0,127.0,127.0,-119.0,-82.0,108.0
127.0,127.0,126.0,127.0,126.0,128.0,126.0,128.0,-1.0,115.0,-88.0,127.0,127.0,127.0,-119.0,-82.0,108.0
127.0,127.0,126.0,127.0,126.0,128.0,126.0,128.0,-1.0,115.0,-88.0,127.0,127.0,127.0,-119.0,-82.0,108.0
127.0,127.0,126.0,127.0,126.0,128.0,126.0,128.0,-1.0,115.0,-88.0,127.0,127.0,127.0,-119.0,-82.0,108.0
127.0,127.0,126.0,127.0,126.0,128.0,126.0,128.0,-1.0,115.0,-88.0,127.0,127.0,127.0,-119.0,-82.0,108.0
127.0,127.0,127.0,127.0,126.0,128.0,126.0,128.0,-1.0,115.0,-88.0,127.0,127.0,127.0,-119.0,-82.0,108.0
127.0,127.0,127.0,127.0,126.0,128.0,126.0,128.0,-1.0,115.0,-88.0,127.0,127.0,127.0,-119.0,-82.0,108.0
127.0,127.0,127.0,127.0,126.0,128.0,126.0,128.0,-1.0,115.0,-88.0,127.0,127.0,127.0,-119.0,-82.0,108.0
127.0,127.0,127.0,127.0,126.0,128.0,126.0,128.0,-1.0,115.0,-88.0,127.0,127.0,127.0,-119.0,-82.0,108.0
127.0,127.0,127.0,127.0,126.0,128.0,126.0,128.0,-1.0,115.0,-88.0,127.0,127.0,127.0,-119.0,-82.0,108.0
127.0,127.0,126.0,127.0,126.0,128.0,126.0,128.0,-1.0,115.0,-88.0,127.0,127.0,127.0,-119.0,-82.0,108.0
127.0,127.0,127.0,127.0,126.0,128.0,125.0,128.0,-1.0,114.0,-88.0,127.0,127.0,127.0,-119.0,-82.0,108.0
127.0,127.0,127.0,127.0,126.0,128.0,125.0,128.0,-1.0,114.0,-88.0,127.0,127.0,127.0,-119.0,-82.0,108.0
127.0,127.0,127.0,127.0,126.0,127.0,125.0,128.0,-1.0,114.0,-88.0,127.0,127.0,127.0,-119.0,-82.0,108.0
127.0,127.0,127.0,127.0,126.0,128.0,125.0,128.0,-1.0,114.0,-88.0,127.0,127.0,127.0,-119.0,-82.0,108.0
127.0,127.0,127.0,127.0,126.0,127.0,126.0,128.0,-1.0,114.0,-88.0,127.0,127.0,127.0,-119.0,-82.0,108.0
127.0,127.0,127.0,127.0,126.0,127.0,126.0,128.0,-1.0,114.0,-88.0,127.0,127.0,127.0,-119.0,-82.0,108.0
127.0,127.0,127.0,127.0,126.0,127.0,126.0,128.0,-1.0,114.0,-88.0,127.0,127.0,127.0,-119.0,-82.0,108.0
127.0,127.0,127.0,127.0,126.0,127.0,126.0,128.0,-1.0,114.0,-88.0,127.0,127.0,127.0,-119.0,-82.0,108.0
127.0,127.0,126.0,127.0,126.0,127.0,125.0,128.0,-1.0,114.0,-88.0,127.0,127.0,127.0,-119.0,-82.0,108.0
127.0,127.0,126.0,127.0,126.0,128.0,125.0,128.0,-1.0,114.0,-88.0,127.0,127.0,127.0,-119.0,-82.0,108.0
127.0,127.0,127.0,127.0,126.0,127.0,127.0,128.0,-1.0,113.0,-89.0,127.0,127.0,127.0,-119.0,-82.0,108.0
127.0,127.0,127.0,127.0,126.0,128.0,126.0,128.0,-1.0,113.0,-89.0,127.0,127.0,127.0,-119.0,-82.0,108.0
127.0,127.0,127.0,127.0,127.0,127.0,126.0,128.0,-1.0,113.0,-89.0,127.0,127.0,127.0,-119.0,-82.0,108.0
127.0,127.0,127.0,127.0,127.0,127.0,127.0,128.0,-1.0,113.0,-89.0,127.0,127.0,127.0,-119.0,-82.0,108.0
127.0,127.0,127.0,127.0,127.0,127.0,127.0,128.0,-1.0,113.0,-89.0,127.0,127.0,127.0,-119.0,-82.0,108.0
127.0,127.0,127.0,127.0,127.0,127.0,127.0,128.0,-1.0,113.0,-89.0,127.0,127.0,127.0,-119.0,-82.0,108.0
127.0,127.0,127.0,127.0,127.0,127.0,127.0,128.0,-1.0,113.0,-89.0,127.0,127.0,127.0,-119.0,-82.0,108.0
127.0,127.0,127.0,127.0,127.0,127.0,127.0,128.0,-1.0,113.0,-89.0,127.0,127.0,127.0,-119.0,-82.0,108.0
127.0,127.0,127.0,127.0,126.0,127.0,127.0,128.0,-1.0,113.0,-89.0,127.0,127.0,127.0,-119.0,-82.0,108.0
127.0,127.0,127.0,127.0,126.0,127.0,127.0,128.0,-1.0,113.0,-89.0,127.0,127.0,127.0,-119.0,-82.0,108.0
127.0,127.0,127.0,127.0,126.0,127.0,127.0,129.0,-1.0,113.0,-89.0,127.0,127.0,127.0,-119.0,-82.0,108.0
127.0,127.0,127.0,127.0,127.0,127.0,126.0,128.0,-1.0,113.0,-89.0,127.0,127.0,127.0,-119.0,-82.0,108.0
127.0,127.0,127.0,127.0,126.0,127.0,127.0,128.0,-1.0,113.0,-89.0,127.0,127.0,127.0,-119.0,-82.0,108.0
127.0,127.0,127.0,127.0,126.0,127.0,126.0,129.0,-1.0,113.0,-89.0,127.0,127.0,127.0,-119.0,-82.0,108.0
127.0,127.0,127.0,127.0,126.0,128.0,126.0,129.0,-1.0,113.0,-89.0,127.0,127.0,127.0,-119.0,-82.0,108.0
127.0,127.0,127.0,127.0,126.0,128.0,126.0,129.0,-1.0,113.0,-89.0,127.0,127.0,127.0,-119.0,-82.0,108.0
127.0,127.0,127.0,127.0,126.0,128.0,126.0,129.0,-1.0,113.0,-89.0,127.0,127.0,127.0,-119.0,-82.0,108.0
127.0,127.0,127.0,127.0,126.0,128.0,126.0,129.0,-1.0,113.0,-89.0,127.0,127.0,127.0,-119.0,-82.0,108.0
127.0,127.0,127.0,127.0,126.0,128.0,126.0,129.0,-1.0,113.0,-89.0,127.0,127.0,127.0,-119.0,-82.0,108.0
127.0,127.0,127.0,127.0,126.0,128.0,127.0,129.0,-1.0,113.0,-89.0,127.0,127.0,127.0,-119.0,-82.0,108.0
127.0,127.0,127.0,127.0,126.0,128.0,127.0,129.0,-1.0,112.0,-89.0,127.0,127.0,127.0,-119.0,-82.0,108.0
127.0,127.0,127.0,127.0,126.0,127.0,127.0,129.0,-1.0,112.0,-89.0,127.0,127.0,127.0,-119.0,-82.0,108.0
127.0,127.0,127.0,127.0,126.0,127.0,127.0,129.0,-1.0,112.0,-89.0,127.0,127.0,127.0,-119.0,-82.0,108.0
127.0,127.0,127.0,127.0,126.0,127.0,127.0,129.0,-1.0,112.0,-89.0,127.0,127.0,127.0,-119.0,-82.0,108.0
127.0,127.0,127.0,127.0,126.0,127.0,127.0,129.0,-1.0,112.0,-89.0,127.0,127.0,127.0,-119.0,-82.0,108.0
127.0,127.0,127.0,127.0,127.0,127.0,127.0,129.0,-1.0,112.0,-89.0,127.0,127.0,127.0,-119.0,-82.0,108.0
127.0,127.0,127.0,127.0,126.0,127.0,127.0,129.0,-1.0,112.0,-89.0,127.0,127.0,127.0,-119.0,-82.0,108.0
127.0,127.0,126.0,127.0,126.0,127.0,127.0,129.0,-1.0,112.0,-89.0,127.0,127.0,127.0,-119.0,-82.0,108.0
127.0,127.0,127.0,127.0,126.0,127.0,127.0,129.0,-1.0,112.0,-89.0,127.0,127.0,127.0,-119.0,-82.0,108.0
127.0,127.0,127.0,127.0,126.0,127.0,127.0,128.0,-1.0,112.0,-89.0,127.0,127.0,127.0,-119.0,-82.0,108.0
127.0,127.0,127.0,128.0,127.0,128.0,127.0,128.0,-1.0,111.0,-89.0,127.0,127.0,127.0,-119.0,-82.0,108.0
127.0,127.0,127.0,128.0,127.0,128.0,127.0,128.0,-1.0,111.0,-89.0,127.0,127.0,127.0,-119.0,-82.0,108.0
127.0,127.0,127.0,128.0,127.0,128.0,127.0,128.0,-1.0,111.0,-89.0,127.0,127.0,127.0,-119.0,-82.0,108.0
127.0,127.0,127.0,128.0,127.0,128.0,127.0,128.0,-1.0,111.0,-89.0,127.0,127.0,127.0,-119.0,-82.0,108.0
127.0,127.0,127.0,128.0,127.0,128.0,128.0,128.0,-1.0,111.0,-89.0,127.0,127.0,127.0,-119.0,-82.0,108.0
127.0,127.0,127.0,128.0,127.0,128.0,128.0,128.0,-1.0,111.0,-89.0,127.0,127.0,127.0,-119.0,-82.0,108.0
127.0,127.0,127.0,128.0,127.0,127.0,128.0,128.0,-1.0,111.0,-89.0,127.0,127.0,127.0,-119.0,-82.0,108.0
127.0,127.0,127.0,128.0,127.0,127.0,128.0,128.0,-1.0,111.0,-89.0,127.0,127.0,127.0,-119.0,-82.0,108.0
127.0,127.0,127.0,128.0,127.0,128.0,127.0,128.0,-1.0,111.0,-89.0,127.0,127.0,127.0,-119.0,-82.0,108.0
127.0,127.0,127.0,128.0,126.0,128.0,127.0,128.0,-1.0,111.0,-89.0,127.0,127.0,127.0,-119.0,-82.0,108.0
127.0,127.0,127.0,128.0,126.0,128.0,126.0,129.0,-1.0,111.0,-89.0,127.0,127.0,127.0,-119.0,-82.0,108.0
127.0,127.0,127.0,128.0,126.0,128.0,126.0,129.0,-1.0,111.0,-89.0,127.0,127.0,127.0,-119.0,-82.0,108.0
127.0,127.0,127.0,128.0,126.0,128.0,126.0,129.0,-1.0,111.0,-89.0,127.0,127.0,127.0,-119.0,-82.0,108.0
127.0,127.0,127.0,128.0,126.0,128.0,127.0,129.0,-1.0,111.0,-89.0,127.0,127.0,127.0,-119.0,-82.0,108.0
127.0,127.0,127.0,128.0,126.0,128.0,127.0,128.0,-1.0,111.0,-89.0,127.0,127.0,127.0,-119.0,-82.0,108.0
127.0,127.0,127.0,128.0,126.0,127.0,127.0,129.0,-1.0,111.0,-89.0,127.0,127.0,127.0,-119.0,-82.0,108.0
127.0,127.0,127.0,128.0,126.0,127.0,127.0,128.0,-1.0,111.0,-89.0,127.0,127.0,127.0,-119.0,-82.0,108.0
127.0,127.0,127.0,128.0,126.0,128.0,127.0,128.0,-1.0,111.0,-89.0,127.0,127.0,127.0,-119.0,-82.0,108.0
127.0,127.0,127.0,128.0,126.0,128.0,126.0,129.0,-1.0,111.0,-89.0,127.0,127.0,127.0,-119.0,-82.0,108.0
127.0,127.0,127.0,128.0,126.0,128.0,126.0,129.0,-1.0,111.0,-89.0,127.0,127.0,127.0,-119.0,-82.0,108.0
127.0,127.0,127.0,128.0,126.0,129.0,126.0,129.0,-1.0,111.0,-88.0,127.0,127.0,127.0,-119.0,-82.0,108.0
127.0,127.0,127.0,128.0,126.0,129.0,126.0,129.0,-1.0,111.0,-88.0,127.0,127.0,127.0,-119.0,-82.0,108.0
127.0,127.0,127.0,128.0,126.0,129.0,126.0,129.0,-1.0,111.0,-88.0,127.0,127.0,127.0,-119.0,-82.0,108.0
127.0,127.0,127.0,128.0,126.0,128.0,126.0,129.0,-1.0,111.0,-88.0,127.0,127.0,127.0,-119.0,-82.0,108.0
127.0,127.0,127.0,128.0,126.0,128.0,126.0,129.0,-1.0,111.0,-88.0,127.0,127.0,127.0,-119.0,-82.0,108.0
127.0,127.0,127.0,128.0,126.0,128.0,126.0,129.0,-1.0,111.0,-88.0,127.0,127.0,127.0,-119.0,-82.0,108.0
127.0,127.0,127.0,128.0,126.0,128.0,126.0,128.0,-1.0,111.0,-88.0,127.0,127.0,127.0,-119.0,-82.0,108.0
127.0,127.0,127.0,128.0,126.0,129.0,126.0,129.0,-1.0,111.0,-88.0,127.0,127.0,127.0,-119.0,-82.0,108.0
127.0,127.0,127.0,128.0,126.0,129.0,126.0,129.0,-1.0,111.0,-88.0,127.0,127.0,127.0,-119.0,-82.0,108.0
127.0,127.0,127.0,128.0,126.0,129.0,126.0,129.0,-1.0,111.0,-88.0,127.0,127.0,127.0,-119.0,-82.0,108.0
127.0,127.0,127.0,127.0,126.0,128.0,127.0,128.0,-1.0,111.0,-88.0,127.0,127.0,127.0,-119.0,-82.0,108.0
127.0,127.0,127.0,127.0,126.0,128.0,127.0,128.0,-1.0,111.0,-88.0,127.0,127.0,127.0,-119.0,-82.0,108.0
127.0,127.0,127.0,127.0,126.0,128.0,126.0,128.0,-1.0,111.0,-88.0,127.0,127.0,127.0,-119.0,-82.0,108.0
127.0,127.0,127.0,127.0,126.0,128.0,126.0,128.0,-1.0,111.0,-88.0,127.0,127.0,127.0,-119.0,-82.0,108.0
127.0,127.0,127.0,127.0,126.0,128.0,126.0,128.0,-1.0,111.0,-88.0,127.0,127.0,127.0,-119.0,-82.0,108.0
127.0,127.0,126.0,127.0,126.0,128.0,126.0,128.0,-1.0,111.0,-88.0,127.0,127.0,127.0,-119.0,-82.0,108.0
127.0,127.0,127.0,127.0,126.0,128.0,126.0,128.0,-1.0,111.0,-88.0,127.0,127.0,127.0,-119.0,-82.0,108.0
127.0,127.0,127.0,127.0,126.0,128.0,126.0,128.0,-1.0,111.0,-88.0,127.0,127.0,127.0,-119.0,-82.0,108.0
127.0,127.0,127.0,127.0,126.0,128.0,126.0,128.0,-1.0,111.0,-88.0,127.0,127.0,127.0,-119.0,-82.0,108.0
127.0,127.0,127.0,127.0,126.0,128.0,127.0,128.0,-1.0,111.0,-88.0,127.0,127.0,127.0,-119.0,-82.0,108.0
127.0,127.0,127.0,127.0,126.0,127.0,126.0,128.0,-1.0,112.0,-87.0,127.0,127.0,127.0,-119.0,-82.0,108.0
127.0,127.0,126.0,127.0,126.0,128.0,126.0,128.0,-1.0,112.0,-87.0,127.0,127.0,127.0,-119.0,-82.0,108.0
127.0,128.0,126.0,127.0,126.0,128.0,126.0,128.0,-1.0,112.0,-87.0,127.0,127.0,127.0,-119.0,-82.0,108.0
127.0,128.0,126.0,127.0,126.0,128.0,126.0,128.0,-1.0,112.0,-87.0,127.0,127.0,127.0,-119.0,-82.0,108.0
127.0,128.0,126.0,127.0,126.0,128.0,126.0,128.0,-1.0,112.0,-87.0,127.0,127.0,127.0,-119.0,-82.0,108.0
127.0,127.0,126.0,127.0,126.0,127.0,126.0,128.0,-1.0,112.0,-87.0,127.0,127.0,127.0,-119.0,-82.0,108.0
127.0,127.0,126.0,127.0,126.0,128.0,126.0,128.0,-1.0,112.0,-87.0,127.0,127.0,127.0,-119.0,-82.0,108.0
127.0,127.0,126.0,127.0,126.0,128.0,126.0,128.0,-1.0,112.0,-87.0,127.0,127.0,127.0,-119.0,-82.0,108.0
127.0,127.0,127.0,127.0,126.0,128.0,126.0,128.0,-1.0,112.0,-87.0,127.0,127.0,127.0,-119.0,-82.0,108.0
127.0,127.0,127.0,127.0,126.0,127.0,126.0,128.0,-1.0,112.0,-87.0,127.0,127.0,127.0,-119.0,-82.0,108.0
127.0,127.0,127.0,127.0,126.0,127.0,127.0,128.0,-1.0,112.0,-87.0,127.0,127.0,127.0,-119.0,-82.0,108.0
127.0,127.0,127.0,127.0,126.0,127.0,127.0,127.0,-1.0,112.0,-87.0,127.0,127.0,127.0,-119.0,-82.0,108.0
127.0,127.0,127.0,127.0,126.0,127.0,127.0,127.0,-1.0,112.0,-87.0,127.0,127.0,127.0,-119.0,-82.0,108.0
127.0,127.0,127.0,127.0,126.0,127.0,127.0,127.0,-1.0,112.0,-87.0,127.0,127.0,127.0,-119.0,-82.0,108.0
127.0,127.0,127.0,127.0,126.0,127.0,126.0,128.0,-1.0,112.0,-87.0,127.0,127.0,127.0,-119.0,-82.0,108.0
127.0,127.0,127.0,127.0,126.0,127.0,126.0,127.0,-1.0,112.0,-87.0,127.0,127.0,127.0,-119.0,-82.0,108.0
127.0,127.0,127.0,127.0,126.0,127.0,127.0,128.0,-1.0,112.0,-87.0,127.0,127.0,127.0,-119.0,-82.0,108.0
127.0,127.0,127.0,127.0,126.0,127.0,127.0,128.0,-1.0,112.0,-87.0,127.0,127.0,127.0,-119.0,-82.0,108.0
126.0,127.0,127.0,127.0,126.0,127.0,127.0,128.0,-1.0,112.0,-87.0,127.0,127.0,127.0,-119.0,-82.0,108.0
127.0,127.0,127.0,127.0,126.0,127.0,127.0,128.0,-1.0,112.0,-87.0,127.0,127.0,127.0,-119.0,-82.0,108.0
126.0,127.0,126.0,127.0,126.0,128.0,126.0,128.0,-1.0,112.0,-86.0,127.0,127.0,127.0,-119.0,-82.0,108.0
126.0,127.0,126.0,127.0,126.0,128.0,126.0,128.0,-1.0,112.0,-86.0,127.0,127.0,127.0,-119.0,-82.0,108.0
127.0,127.0,126.0,127.0,126.0,128.0,126.0,128.0,-1.0,112.0,-86.0,127.0,127.0,127.0,-119.0,-82.0,108.0
126.0,127.0,127.0,127.0,126.0,129.0,127.0,128.0,-1.0,112.0,-86.0,127.0,127.0,127.0,-119.0,-82.0,108.0
126.0,127.0,127.0,127.0,126.0,128.0,127.0,128.0,-1.0,112.0,-86.0,127.0,127.0,127.0,-119.0,-82.0,108.0
126.0,127.0,127.0,127.0,126.0,128.0,127.0,128.0,-1.0,112.0,-86.0,127.0,127.0,127.0,-119.0,-82.0,108.0
126.0,127.0,126.0,127.0,126.0,128.0,127.0,128.0,-1.0,112.0,-86.0,127.0,127.0,127.0,-119.0,-82.0,108.0
126.0,127.0,126.0,127.0,126.0,129.0,126.0,128.0,-1.0,112.0,-86.0,127.0,127.0,127.0,-119.0,-82.0,108.0
126.0,127.0,126.0,127.0,126.0,129.0,126.0,128.0,-1.0,112.0,-86.0,127.0,127.0,127.0,-119.0,-82.0,108.0
126.0,127.0,126.0,127.0,126.0,129.0,126.0,128.0,-1.0,112.0,-86.0,127.0,127.0,127.0,-119.0,-82.0,108.0
126.0,128.0,126.0,127.0,126.0,128.0,126.0,128.0,-1.0,112.0,-86.0,127.0,127.0,127.0,-119.0,-82.0,108.0
126.0,127.0,126.0,127.0,126.0,128.0,126.0,128.0,-1.0,112.0,-86.0,127.0,127.0,127.0,-119.0,-82.0,108.0
126.0,127.0,127.0,127.0,126.0,127.0,126.0,128.0,-1.0,112.0,-86.0,127.0,127.0,127.0,-119.0,-82.0,108.0
126.0,127.0,127.0,127.0,126.0,127.0,126.0,128.0,-1.0,112.0,-86.0,127.0,127.0,127.0,-119.0,-82.0,108.0
126.0,127.0,127.0,127.0,126.0,127.0,126.0,128.0,-1.0,112.0,-86.0,127.0,127.0,127.0,-119.0,-82.0,108.0
126.0,127.0,126.0,127.0,126.0,127.0,126.0,128.0,-1.0,112.0,-86.0,127.0,127.0,127.0,-119.0,-82.0,108.0
126.0,127.0,126.0,127.0,126.0,128.0,126.0,128.0,-1.0,112.0,-86.0,127.0,127.0,127.0,-119.0,-82.0,108.0
126.0,127.0,126.0,127.0,126.0,128.0,126.0,128.0,-1.0,112.0,-86.0,127.0,127.0,127.0,-119.0,-82.0,108.0
126.0,127.0,126.0,127.0,126.0,128.0,126.0,128.0,-1.0,112.0,-86.0,127.0,127.0,127.0,-119.0,-82.0,108.0
126.0,127.0,126.0,127.0,126.0,128.0,126.0,128.0,-1.0,112.0,-86.0,127.0,127.0,127.0,-119.0,-82.0,108.0
127.0,127.0,127.0,127.0,126.0,127.0,126.0,128.0,-1.0,112.0,-86.0,127.0,127.0,127.0,-119.0,-82.0,108.0
127.0,127.0,127.0,127.0,126.0,128.0,126.0,128.0,-1.0,112.0,-86.0,127.0,127.0,127.0,-119.0,-82.0,108.0
127.0,127.0,127.0,127.0,126.0,128.0,126.0,128.0,-1.0,112.0,-86.0,127.0,127.0,127.0,-119.0,-82.0,108.0
127.0,127.0,127.0,127.0,126.0,128.0,126.0,128.0,-1.0,112.0,-86.0,127.0,127.0,127.0,-119.0,-82.0,108.0
127.0,127.0,127.0,127.0,126.0,128.0,126.0,128.0,-1.0,112.0,-86.0,127.0,127.0,127.0,-119.0,-82.0,108.0
127.0,127.0,127.0,127.0,126.0,127.0,126.0,128.0,-1.0,112.0,-86.0,127.0,127.0,127.0,-119.0,-82.0,108.0
127.0,127.0,127.0,127.0,126.0,127.0,126.0,128.0,-1.0,112.0,-86.0,127.0,127.0,127.0,-119.0,-82.0,108.0
127.0,127.0,127.0,127.0,126.0,127.0,126.0,128.0,-1.0,112.0,-86.0,127.0,127.0,127.0,-119.0,-82.0,108.0
127.0,127.0,127.0,127.0,126.0,127.0,126.0,128.0,-1.0,112.0,-86.0,127.0,127.0,127.0,-119.0,-82.0,108.0
127.0,127.0,127.0,127.0,126.0,127.0,127.0,128.0,-1.0,112.0,-86.0,127.0,127.0,127.0,-119.0,-82.0,108.0
127.0,127.0,127.0,127.0,126.0,128.0,124.0,128.0,-1.0,112.0,-86.0,127.0,127.0,127.0,-119.0,-82.0,108.0
127.0,127.0,127.0,127.0,126.0,128.0,124.0,128.0,-1.0,112.0,-86.0,127.0,127.0,127.0,-119.0,-82.0,108.0
127.0,127.0,127.0,127.0,126.0,128.0,124.0,128.0,-1.0,112.0,-86.0,127.0,127.0,127.0,-119.0,-82.0,108.0
127.0,127.0,127.0,127.0,126.0,128.0,124.0,128.0,-1.0,112.0,-86.0,127.0,127.0,127.0,-119.0,-82.0,108.0
127.0,127.0,127.0,127.0,126.0,128.0,125.0,128.0,-1.0,112.0,-86.0,127.0,127.0,127.0,-119.0,-82.0,108.0
127.0,127.0,127.0,127.0,126.0,127.0,125.0,128.0,-1.0,112.0,-86.0,127.0,127.0,127.0,-119.0,-82.0,108.0
127.0,127.0,127.0,127.0,126.0,127.0,125.0,128.0,-1.0,112.0,-86.0,127.0,127.0,127.0,-119.0,-82.0,108.0
127.0,127.0,127.0,127.0,126.0,127.0,125.0,128.0,-1.0,112.0,-86.0,127.0,127.0,127.0,-119.0,-82.0,108.0
127.0,127.0,127.0,127.0,126.0,127.0,125.0,128.0,-1.0,112.0,-86.0,127.0,127.0,127.0,-119.0,-82.0,108.0
127.0,127.0,127.0,127.0,126.0,127.0,125.0,128.0,-1.0,112.0,-86.0,127.0,127.0,127.0,-119.0,-82.0,108.0
127.0,128.0,127.0,128.0,127.0,128.0,125.0,128.0,-1.0,112.0,-86.0,127.0,127.0,127.0,-119.0,-82.0,108.0
127.0,128.0,127.0,128.0,127.0,128.0,125.0,128.0,-1.0,112.0,-86.0,127.0,127.0,127.0,-119.0,-82.0,108.0
127.0,128.0,127.0,128.0,127.0,128.0,125.0,128.0,-1.0,112.0,-86.0,127.0,127.0,127.0,-119.0,-82.0,108.0
127.0,128.0,127.0,128.0,127.0,128.0,125.0,128.0,-1.0,112.0,-86.0,127.0,127.0,127.0,-119.0,-82.0,108.0
127.0,128.0,127.0,128.0,127.0,127.0,125.0,128.0,-1.0,112.0,-86.0,127.0,127.0,127.0,-119.0,-82.0,108.0
127.0,128.0,127.0,128.0,127.0,127.0,125.0,128.0,-1.0,112.0,-86.0,127.0,127.0,127.0,-119.0,-82.0,108.0
127.0,128.0,127.0,128.0,127.0,127.0,125.0,128.0,-1.0,112.0,-86.0,127.0,127.0,127.0,-119.0,-82.0,108.0
127.0,128.0,127.0,128.0,127.0,127.0,125.0,128.0,-1.0,112.0,-86.0,127.0,127.0,127.0,-119.0,-82.0,108.0
127.0,128.0,127.0,128.0,127.0,127.0,125.0,128.0,-1.0,112.0,-86.0,127.0,127.0,127.0,-119.0,-82.0,108.0
127.0,128.0,127.0,128.0,126.0,128.0,124.0,128.0,-1.0,112.0,-86.0,127.0,127.0,127.0,-119.0,-82.0,108.0
127.0,127.0,126.0,127.0,126.0,127.0,124.0,128.0,-1.0,112.0,-86.0,127.0,127.0,127.0,-119.0,-82.0,108.0
127.0,127.0,126.0,127.0,126.0,127.0,123.0,128.0,-1.0,112.0,-86.0,127.0,127.0,127.0,-119.0,-82.0,108.0
127.0,127.0,126.0,127.0,126.0,127.0,123.0,128.0,-1.0,112.0,-86.0,127.0,127.0,127.0,-119.0,-82.0,108.0
127.0,127.0,126.0,127.0,126.0,127.0,124.0,128.0,-1.0,112.0,-86.0,127.0,127.0,127.0,-119.0,-82.0,108.0
127.0,127.0,126.0,127.0,126.0,127.0,124.0,128.0,-1.0,112.0,-86.0,127.0,127.0,127.0,-119.0,-82.0,108.0
127.0,127.0,126.0,127.0,126.0,126.0,124.0,128.0,-1.0,112.0,-86.0,127.0,127.0,127.0,-119.0,-82.0,108.0
127.0,127.0,126.0,127.0,126.0,126.0,124.0,127.0,-1.0,112.0,-86.0,127.0,127.0,127.0,-119.0,-82.0,108.0
127.0,127.0,126.0,127.0,126.0,126.0,124.0,127.0,-1.0,112.0,-86.0,127.0,127.0,127.0,-119.0,-82.0,108.0
127.0,127.0,126.0,127.0,126.0,128.0,123.0,128.0,-1.0,112.0,-86.0,127.0,127.0,127.0,-119.0,-82.0,108.0
127.0,127.0,126.0,127.0,126.0,128.0,123.0,128.0,-1.0,112.0,-86.0,127.0,127.0,127.0,-119.0,-82.0,108.0
126.0,127.0,127.0,128.0,126.0,128.0,125.0,127.0,-1.0,112.0,-86.0,127.0,127.0,127.0,-119.0,-82.0,108.0
126.0,127.0,127.0,128.0,126.0,128.0,125.0,127.0,-1.0,112.0,-86.0,127.0,127.0,127.0,-119.0,-82.0,108.0
126.0,127.0,127.0,128.0,126.0,127.0,125.0,127.0,-1.0,112.0,-86.0,127.0,127.0,127.0,-119.0,-82.0,108.0
126.0,127.0,127.0,128.0,126.0,127.0,125.0,127.0,-1.0,112.0,-86.0,127.0,127.0,127.0,-119.0,-82.0,108.0
126.0,127.0,127.0,128.0,126.0,127.0,125.0,127.0,-1.0,112.0,-86.0,127.0,127.0,127.0,-119.0,-82.0,108.0
126.0,127.0,127.0,128.0,126.0,127.0,125.0,127.0,-1.0,112.0,-86.0,127.0,127.0,127.0,-119.0,-82.0,108.0
126.0,127.0,127.0,127.0,126.0,127.0,126.0,127.0,-1.0,112.0,-86.0,127.0,127.0,127.0,-119.0,-82.0,108.0
127.0,128.0,127.0,128.0,126.0,128.0,124.0,128.0,-1.0,112.0,-86.0,127.0,127.0,127.0,-119.0,-82.0,108.0
127.0,128.0,127.0,128.0,126.0,128.0,124.0,127.0,-1.0,112.0,-86.0,127.0,127.0,127.0,-119.0,-82.0,108.0
127.0,127.0,127.0,128.0,126.0,128.0,125.0,127.0,-1.0,112.0,-86.0,127.0,127.0,127.0,-119.0,-82.0,108.0
126.0,127.0,127.0,128.0,126.0,127.0,128.0,128.0,-1.0,112.0,-87.0,127.0,127.0,127.0,-119.0,-82.0,108.0
126.0,127.0,127.0,128.0,126.0,127.0,128.0,128.0,-1.0,112.0,-87.0,127.0,127.0,127.0,-119.0,-82.0,108.0
126.0,127.0,127.0,128.0,126.0,126.0,129.0,128.0,-1.0,112.0,-87.0,127.0,127.0,127.0,-119.0,-82.0,108.0
126.0,127.0,127.0,128.0,126.0,126.0,129.0,128.0,-1.0,112.0,-87.0,127.0,127.0,127.0,-119.0,-82.0,108.0
126.0,127.0,127.0,128.0,126.0,126.0,129.0,128.0,-1.0,112.0,-87.0,127.0,127.0,127.0,-119.0,-82.0,108.0
126.0,127.0,126.0,128.0,126.0,127.0,129.0,128.0,-1.0,112.0,-87.0,127.0,127.0,127.0,-119.0,-82.0,108.0
127.0,126.0,127.0,128.0,127.0,126.0,128.0,128.0,-1.0,112.0,-87.0,127.0,127.0,127.0,-119.0,-82.0,108.0
126.0,127.0,127.0,128.0,127.0,126.0,128.0,128.0,-1.0,112.0,-87.0,127.0,127.0,127.0,-119.0,-82.0,108.0
126.0,127.0,127.0,128.0,126.0,126.0,128.0,128.0,-1.0,112.0,-87.0,127.0,127.0,127.0,-119.0,-82.0,108.0
126.0,127.0,127.0,128.0,126.0,127.0,128.0,128.0,-1.0,112.0,-87.0,127.0,127.0,127.0,-119.0,-82.0,108.0
127.0,127.0,127.0,129.0,126.0,127.0,128.0,127.0,-1.0,112.0,-87.0,127.0,127.0,127.0,-119.0,-82.0,108.0
127.0,127.0,127.0,129.0,127.0,126.0,128.0,127.0,-1.0,112.0,-87.0,127.0,127.0,127.0,-119.0,-82.0,108.0
127.0,127.0,127.0,129.0,126.0,126.0,128.0,127.0,-1.0,112.0,-87.0,127.0,127.0,127.0,-119.0,-82.0,108.0
127.0,127.0,127.0,129.0,126.0,126.0,128.0,127.0,-1.0,112.0,-87.0,127.0,127.0,127.0,-119.0,-82.0,108.0
127.0,128.0,126.0,129.0,126.0,127.0,128.0,128.0,-1.0,112.0,-87.0,127.0,127.0,127.0,-119.0,-82.0,108.0
127.0,128.0,127.0,129.0,127.0,126.0,129.0,127.0,-1.0,112.0,-87.0,127.0,127.0,127.0,-119.0,-82.0,108.0
127.0,127.0,127.0,129.0,127.0,126.0,129.0,127.0,-1.0,112.0,-87.0,127.0,127.0,127.0,-119.0,-82.0,108.0
127.0,127.0,127.0,129.0,126.0,126.0,128.0,127.0,-1.0,112.0,-87.0,127.0,127.0,127.0,-119.0,-82.0,108.0
127.0,127.0,127.0,129.0,126.0,127.0,128.0,127.0,-1.0,112.0,-87.0,127.0,127.0,127.0,-119.0,-82.0,108.0
127.0,127.0,127.0,129.0,126.0,127.0,128.0,127.0,-1.0,112.0,-87.0,127.0,127.0,127.0,-119.0,-82.0,108.0
126.0,126.0,127.0,130.0,127.0,127.0,126.0,128.0,-1.0,112.0,-87.0,127.0,127.0,127.0,-119.0,-82.0,108.0
126.0,126.0,127.0,130.0,126.0,127.0,126.0,128.0,-1.0,112.0,-87.0,127.0,127.0,127.0,-119.0,-82.0,108.0
126.0,126.0,127.0,130.0,126.0,126.0,126.0,128.0,-1.0,112.0,-87.0,127.0,127.0,127.0,-119.0,-82.0,108.0
126.0,126.0,127.0,130.0,127.0,126.0,126.0,128.0,-1.0,112.0,-87.0,127.0,127.0,127.0,-119.0,-82.0,108.0
127.0,126.0,127.0,130.0,127.0,128.0,125.0,128.0,-1.0,112.0,-87.0,127.0,127.0,127.0,-119.0,-82.0,108.0
127.0,126.0,127.0,130.0,126.0,128.0,126.0,128.0,-1.0,112.0,-87.0,127.0,127.0,127.0,-119.0,-82.0,108.0
127.0,126.0,127.0,130.0,127.0,128.0,126.0,128.0,-1.0,112.0,-87.0,127.0,127.0,127.0,-119.0,-82.0,108.0
127.0,126.0,127.0,130.0,127.0,127.0,126.0,128.0,-1.0,112.0,-87.0,127.0,127.0,127.0,-119.0,-82.0,108.0
127.0,126.0,127.0,130.0,126.0,127.0,126.0,128.0,-1.0,112.0,-87.0,127.0,127.0,127.0,-119.0,-82.0,108.0
127.0,126.0,127.0,130.0,126.0,127.0,126.0,128.0,-1.0,112.0,-87.0,127.0,127.0,127.0,-119.0,-82.0,108.0
125.0,125.0,127.0,131.0,126.0,127.0,126.0,127.0,-1.0,112.0,-88.0,127.0,127.0,127.0,-119.0,-82.0,108.0
125.0,125.0,127.0,131.0,126.0,126.0,126.0,127.0,-1.0,112.0,-88.0,127.0,127.0,127.0,-119.0,-82.0,108.0
125.0,125.0,127.0,131.0,126.0,126.0,127.0,127.0,-1.0,112.0,-88.0,127.0,127.0,127.0,-119.0,-82.0,108.0
126.0,127.0,127.0,131.0,126.0,128.0,126.0,128.0,-1.0,112.0,-88.0,127.0,127.0,127.0,-119.0,-82.0,108.0
126.0,126.0,127.0,131.0,126.0,128.0,126.0,128.0,-1.0,112.0,-88.0,127.0,127.0,127.0,-119.0,-82.0,108.0
126.0,126.0,127.0,131.0,126.0,128.0,126.0,128.0,-1.0,112.0,-88.0,127.0,127.0,127.0,-119.0,-82.0,108.0
126.0,126.0,127.0,131.0,126.0,127.0,126.0,128.0,-1.0,112.0,-88.0,127.0,127.0,127.0,-119.0,-82.0,108.0
126.0,126.0,127.0,131.0,126.0,127.0,126.0,128.0,-1.0,112.0,-88.0,127.0,127.0,127.0,-119.0,-82.0,108.0
125.0,125.0,127.0,131.0,126.0,127.0,126.0,128.0,-1.0,112.0,-88.0,127.0,127.0,127.0,-119.0,-82.0,108.0
125.0,125.0,127.0,131.0,126.0,127.0,126.0,127.0,-1.0,112.0,-88.0,127.0,127.0,127.0,-119.0,-82.0,108.0
126.0,127.0,127.0,132.0,127.0,126.0,132.0,127.0,-1.0,112.0,-88.0,127.0,127.0,127.0,-119.0,-82.0,108.0
126.0,126.0,127.0,132.0,127.0,126.0,132.0,127.0,-1.0,112.0,-88.0,127.0,127.0,127.0,-119.0,-82.0,108.0
128.0,129.0,127.0,132.0,127.0,127.0,130.0,128.0,-1.0,112.0,-88.0,127.0,127.0,127.0,-119.0,-82.0,108.0
128.0,129.0,127.0,132.0,127.0,127.0,130.0,128.0,-1.0,112.0,-88.0,127.0,127.0,127.0,-119.0,-82.0,108.0
128.0,129.0,127.0,132.0,127.0,127.0,131.0,128.0,-1.0,112.0,-88.0,127.0,127.0,127.0,-119.0,-82.0,108.0
127.0,129.0,127.0,132.0,127.0,127.0,131.0,128.0,-1.0,112.0,-88.0,127.0,127.0,127.0,-119.0,-82.0,108.0
127.0,128.0,127.0,132.0,127.0,127.0,131.0,128.0,-1.0,112.0,-88.0,127.0,127.0,127.0,-119.0,-82.0,108.0
127.0,128.0,127.0,132.0,127.0,127.0,131.0,128.0,-1.0,112.0,-88.0,127.0,127.0,127.0,-119.0,-82.0,108.0
127.0,128.0,127.0,132.0,127.0,127.0,132.0,128.0,-1.0,112.0,-88.0,127.0,127.0,127.0,-119.0,-82.0,108.0
126.0,127.0,127.0,132.0,127.0,127.0,132.0,127.0,-1.0,112.0,-88.0,127.0,127.0,127.0,-119.0,-82.0,108.0
125.0,125.0,127.0,132.0,126.0,125.0,130.0,126.0,-1.0,112.0,-88.0,127.0,127.0,127.0,-119.0,-82.0,108.0
125.0,124.0,127.0,132.0,126.0,126.0,128.0,126.0,-1.0,112.0,-88.0,127.0,127.0,127.0,-119.0,-82.0,108.0
125.0,124.0,127.0,132.0,126.0,126.0,128.0,126.0,-1.0,112.0,-88.0,127.0,127.0,127.0,-119.0,-82.0,108.0
125.0,125.0,127.0,132.0,126.0,126.0,128.0,126.0,-1.0,112.0,-88.0,127.0,127.0,127.0,-119.0,-82.0,108.0
125.0,124.0,127.0,132.0,126.0,125.0,128.0,126.0,-1.0,112.0,-88.0,127.0,127.0,127.0,-119.0,-82.0,108.0
125.0,125.0,127.0,132.0,126.0,125.0,128.0,126.0,-1.0,112.0,-88.0,127.0,127.0,127.0,-119.0,-82.0,108.0
125.0,125.0,127.0,132.0,126.0,125.0,129.0,126.0,-1.0,112.0,-88.0,127.0,127.0,127.0,-119.0,-82.0,108.0
125.0,125.0,127.0,132.0,126.0,125.0,129.0,126.0,-1.0,112.0,-88.0,127.0,127.0,127.0,-119.0,-82.0,108.0
125.0,125.0,127.0,132.0,126.0,125.0,129.0,126.0,-1.0,112.0,-88.0,127.0,127.0,127.0,-119.0,-82.0,108.0
125.0,125.0,127.0,132.0,126.0,125.0,130.0,126.0,-1.0,112.0,-88.0,127.0,127.0,127.0,-119.0,-82.0,108.0
127.0,128.0,127.0,134.0,127.0,126.0,130.0,129.0,-1.0,113.0,-87.0,127.0,127.0,127.0,-119.0,-82.0,108.0
127.0,128.0,127.0,134.0,126.0,126.0,130.0,129.0,-1.0,113.0,-87.0,127.0,127.0,127.0,-119.0,-82.0,108.0
127.0,127.0,127.0,134.0,126.0,126.0,130.0,129.0,-1.0,113.0,-87.0,127.0,127.0,127.0,-119.0,-82.0,108.0
127.0,127.0,127.0,134.0,126.0,126.0,130.0,129.0,-1.0,113.0,-87.0,127.0,127.0,127.0,-119.0,-82.0,108.0
127.0,126.0,127.0,134.0,126.0,126.0,130.0,129.0,-1.0,113.0,-87.0,127.0,127.0,127.0,-119.0,-82.0,108.0
127.0,125.0,127.0,134.0,126.0,126.0,130.0,129.0,-1.0,113.0,-87.0,127.0,127.0,127.0,-119.0,-82.0,108.0
126.0,125.0,127.0,134.0,126.0,125.0,130.0,129.0,-1.0,113.0,-87.0,127.0,127.0,127.0,-119.0,-82.0,108.0
126.0,124.0,126.0,134.0,126.0,125.0,130.0,129.0,-1.0,113.0,-87.0,127.0,127.0,127.0,-119.0,-82.0,108.0
126.0,123.0,126.0,133.0,126.0,125.0,130.0,129.0,-1.0,113.0,-87.0,127.0,127.0,127.0,-119.0,-82.0,108.0
126.0,122.0,126.0,133.0,126.0,125.0,130.0,128.0,-1.0,113.0,-87.0,127.0,127.0,127.0,-119.0,-82.0,108.0
125.0,121.0,127.0,134.0,126.0,125.0,118.0,126.0,-1.0,113.0,-87.0,127.0,127.0,127.0,-119.0,-82.0,108.0
125.0,121.0,127.0,135.0,126.0,125.0,117.0,126.0,-1.0,113.0,-87.0,127.0,127.0,127.0,-119.0,-82.0,108.0
125.0,121.0,127.0,134.0,126.0,125.0,117.0,126.0,-1.0,113.0,-87.0,127.0,127.0,127.0,-119.0,-82.0,108.0
125.0,121.0,127.0,134.0,126.0,125.0,117.0,126.0,-1.0,113.0,-87.0,127.0,127.0,127.0,-119.0,-82.0,108.0
126.0,121.0,127.0,135.0,126.0,125.0,116.0,126.0,-1.0,113.0,-87.0,127.0,127.0,127.0,-119.0,-82.0,108.0
126.0,122.0,127.0,135.0,126.0,124.0,116.0,126.0,-1.0,113.0,-87.0,127.0,127.0,127.0,-119.0,-82.0,108.0
126.0,122.0,127.0,135.0,126.0,124.0,115.0,127.0,-1.0,113.0,-87.0,127.0,127.0,127.0,-119.0,-82.0,108.0
127.0,122.0,127.0,135.0,126.0,124.0,115.0,127.0,-1.0,113.0,-87.0,127.0,127.0,127.0,-119.0,-82.0,108.0
127.0,123.0,127.0,135.0,126.0,124.0,115.0,127.0,-1.0,113.0,-87.0,127.0,127.0,127.0,-119.0,-82.0,108.0
125.0,121.0,126.0,134.0,126.0,126.0,118.0,126.0,-1.0,113.0,-87.0,127.0,127.0,127.0,-119.0,-82.0,108.0
126.0,117.0,126.0,134.0,125.0,124.0,106.0,127.0,-1.0,113.0,-87.0,127.0,127.0,127.0,-119.0,-82.0,108.0
126.0,117.0,126.0,134.0,125.0,123.0,106.0,127.0,-1.0,113.0,-87.0,127.0,127.0,127.0,-119.0,-82.0,108.0
126.0,117.0,126.0,134.0,125.0,123.0,106.0,126.0,-1.0,113.0,-87.0,127.0,127.0,127.0,-119.0,-82.0,108.0
127.0,118.0,126.0,134.0,125.0,123.0,106.0,126.0,-1.0,113.0,-87.0,127.0,127.0,127.0,-119.0,-82.0,108.0
126.0,118.0,126.0,134.0,125.0,123.0,106.0,126.0,-1.0,113.0,-87.0,127.0,127.0,127.0,-119.0,-82.0,108.0
126.0,119.0,126.0,134.0,125.0,124.0,106.0,126.0,-1.0,113.0,-87.0,127.0,127.0,127.0,-119.0,-82.0,108.0
126.0,119.0,126.0,134.0,125.0,124.0,106.0,126.0,-1.0,113.0,-87.0,127.0,127.0,127.0,-119.0,-82.0,108.0
126.0,120.0,126.0,134.0,125.0,124.0,106.0,125.0,-1.0,113.0,-87.0,127.0,127.0,127.0,-119.0,-82.0,108.0
125.0,116.0,126.0,134.0,125.0,123.0,107.0,126.0,-1.0,113.0,-87.0,127.0,127.0,127.0,-119.0,-82.0,108.0
126.0,116.0,126.0,134.0,125.0,123.0,107.0,127.0,-1.0,113.0,-87.0,127.0,127.0,127.0,-119.0,-82.0,108.0
127.0,125.0,127.0,136.0,126.0,124.0,111.0,124.0,-1.0,113.0,-87.0,127.0,127.0,127.0,-119.0,-82.0,108.0
127.0,125.0,127.0,136.0,126.0,124.0,111.0,125.0,-1.0,113.0,-87.0,127.0,127.0,127.0,-119.0,-82.0,108.0
128.0,125.0,127.0,136.0,125.0,124.0,112.0,125.0,-1.0,113.0,-87.0,127.0,127.0,127.0,-119.0,-82.0,108.0
128.0,124.0,127.0,136.0,125.0,124.0,112.0,125.0,-1.0,113.0,-87.0,127.0,127.0,127.0,-119.0,-82.0,108.0
128.0,124.0,127.0,136.0,125.0,124.0,112.0,126.0,-1.0,113.0,-87.0,127.0,127.0,127.0,-119.0,-82.0,108.0
128.0,124.0,126.0,136.0,125.0,123.0,111.0,126.0,-1.0,113.0,-87.0,127.0,127.0,127.0,-119.0,-82.0,108.0
128.0,123.0,126.0,136.0,125.0,123.0,111.0,125.0,-1.0,113.0,-87.0,127.0,127.0,127.0,-119.0,-82.0,108.0
127.0,124.0,127.0,136.0,126.0,124.0,110.0,122.0,-1.0,113.0,-87.0,127.0,127.0,127.0,-119.0,-82.0,108.0
127.0,124.0,127.0,136.0,126.0,125.0,110.0,123.0,-1.0,113.0,-87.0,127.0,127.0,127.0,-119.0,-82.0,108.0
127.0,125.0,127.0,136.0,126.0,125.0,110.0,123.0,-1.0,113.0,-87.0,127.0,127.0,127.0,-119.0,-82.0,108.0
131.0,113.0,125.0,139.0,125.0,122.0,104.0,125.0,-1.0,113.0,-86.0,127.0,127.0,127.0,-119.0,-82.0,108.0
131.0,113.0,125.0,139.0,125.0,121.0,104.0,125.0,-1.0,113.0,-86.0,127.0,127.0,127.0,-119.0,-82.0,108.0
129.0,114.0,125.0,139.0,124.0,120.0,104.0,124.0,-1.0,113.0,-86.0,127.0,127.0,127.0,-119.0,-82.0,108.0
128.0,115.0,125.0,138.0,124.0,120.0,103.0,123.0,-1.0,113.0,-86.0,127.0,127.0,127.0,-119.0,-82.0,108.0
126.0,116.0,125.0,138.0,123.0,119.0,102.0,121.0,-1.0,113.0,-86.0,127.0,127.0,127.0,-119.0,-82.0,108.0
125.0,117.0,125.0,138.0,123.0,119.0,102.0,120.0,-1.0,113.0,-86.0,127.0,127.0,127.0,-119.0,-82.0,108.0
130.0,114.0,126.0,139.0,126.0,123.0,105.0,123.0,-1.0,113.0,-86.0,127.0,127.0,127.0,-119.0,-82.0,108.0
131.0,114.0,126.0,139.0,126.0,123.0,104.0,124.0,-1.0,113.0,-86.0,127.0,127.0,127.0,-119.0,-82.0,108.0
131.0,113.0,126.0,139.0,125.0,123.0,104.0,125.0,-1.0,113.0,-86.0,127.0,127.0,127.0,-119.0,-82.0,108.0
132.0,113.0,125.0,139.0,125.0,122.0,104.0,125.0,-1.0,113.0,-86.0,127.0,127.0,127.0,-119.0,-82.0,108.0
132.0,119.0,122.0,136.0,120.0,111.0,110.0,93.0,-1.0,113.0,-86.0,127.0,127.0,127.0,-119.0,-82.0,108.0
133.0,120.0,123.0,136.0,120.0,111.0,111.0,93.0,-1.0,113.0,-86.0,127.0,127.0,127.0,-119.0,-82.0,108.0
135.0,121.0,124.0,136.0,120.0,112.0,111.0,93.0,-1.0,113.0,-86.0,127.0,127.0,127.0,-119.0,-82.0,108.0
137.0,122.0,125.0,136.0,120.0,112.0,111.0,94.0,-1.0,113.0,-86.0,127.0,127.0,127.0,-119.0,-82.0,108.0
138.0,123.0,125.0,137.0,121.0,112.0,112.0,94.0,-1.0,113.0,-86.0,127.0,127.0,127.0,-119.0,-82.0,108.0
128.0,112.0,119.0,135.0,120.0,112.0,112.0,96.0,-1.0,113.0,-86.0,127.0,127.0,127.0,-119.0,-82.0,108.0
128.0,113.0,119.0,135.0,120.0,112.0,111.0,94.0,-1.0,113.0,-86.0,127.0,127.0,127.0,-119.0,-82.0,108.0
129.0,114.0,120.0,135.0,120.0,112.0,110.0,93.0,-1.0,113.0,-86.0,127.0,127.0,127.0,-119.0,-82.0,108.0
130.0,116.0,120.0,135.0,120.0,111.0,110.0,93.0,-1.0,113.0,-86.0,127.0,127.0,127.0,-119.0,-82.0,108.0
131.0,117.0,121.0,135.0,120.0,111.0,110.0,93.0,-1.0,113.0,-86.0,127.0,127.0,127.0,-119.0,-82.0,108.0
142.0,109.0,119.0,133.0,120.0,112.0,122.0,95.0,-1.0,114.0,-86.0,127.0,127.0,127.0,-119.0,-82.0,108.0
143.0,112.0,120.0,134.0,120.0,112.0,122.0,97.0,-1.0,114.0,-86.0,127.0,127.0,127.0,-119.0,-82.0,108.0
145.0,114.0,121.0,134.0,120.0,113.0,122.0,99.0,-1.0,114.0,-86.0,127.0,127.0,127.0,-119.0,-82.0,108.0
145.0,117.0,123.0,135.0,120.0,113.0,123.0,100.0,-1.0,114.0,-86.0,127.0,127.0,127.0,-119.0,-82.0,108.0
138.0,98.0,115.0,132.0,119.0,112.0,117.0,94.0,-1.0,114.0,-86.0,127.0,127.0,127.0,-119.0,-82.0,108.0
138.0,100.0,115.0,132.0,119.0,112.0,118.0,94.0,-1.0,114.0,-86.0,127.0,127.0,127.0,-119.0,-82.0,108.0
139.0,101.0,116.0,132.0,119.0,113.0,119.0,94.0,-1.0,114.0,-86.0,127.0,127.0,127.0,-119.0,-82.0,108.0
140.0,103.0,116.0,132.0,119.0,112.0,120.0,94.0,-1.0,114.0,-86.0,127.0,127.0,127.0,-119.0,-82.0,108.0
140.0,105.0,117.0,133.0,119.0,112.0,120.0,94.0,-1.0,114.0,-86.0,127.0,127.0,127.0,-119.0,-82.0,108.0
141.0,107.0,118.0,133.0,119.0,112.0,121.0,94.0,-1.0,114.0,-86.0,127.0,127.0,127.0,-119.0,-82.0,108.0
122.0,116.0,123.0,138.0,123.0,109.0,156.0,137.0,-1.0,116.0,-86.0,126.0,127.0,127.0,-119.0,-82.0,108.0
122.0,115.0,123.0,138.0,123.0,109.0,156.0,138.0,-1.0,116.0,-86.0,126.0,127.0,127.0,-119.0,-82.0,108.0
123.0,115.0,123.0,138.0,123.0,109.0,157.0,138.0,-1.0,116.0,-86.0,126.0,127.0,127.0,-119.0,-82.0,108.0
128.0,119.0,119.0,137.0,123.0,109.0,156.0,132.0,-1.0,116.0,-86.0,126.0,127.0,127.0,-119.0,-82.0,108.0
126.0,118.0,120.0,137.0,123.0,109.0,156.0,133.0,-1.0,116.0,-86.0,126.0,127.0,127.0,-119.0,-82.0,108.0
125.0,118.0,120.0,137.0,123.0,110.0,156.0,134.0,-1.0,116.0,-86.0,126.0,127.0,127.0,-119.0,-82.0,108.0
125.0,118.0,121.0,138.0,124.0,110.0,156.0,135.0,-1.0,116.0,-86.0,126.0,127.0,127.0,-119.0,-82.0,108.0
124.0,117.0,122.0,138.0,124.0,109.0,156.0,135.0,-1.0,116.0,-86.0,126.0,127.0,127.0,-119.0,-82.0,108.0
123.0,117.0,122.0,138.0,124.0,109.0,156.0,136.0,-1.0,116.0,-86.0,126.0,127.0,127.0,-119.0,-82.0,108.0
123.0,117.0,123.0,138.0,123.0,109.0,156.0,137.0,-1.0,116.0,-86.0,126.0,127.0,127.0,-119.0,-82.0,108.0
130.0,125.0,127.0,133.0,119.0,103.0,154.0,121.0,-1.0,117.0,-86.0,126.0,127.0,127.0,-119.0,-82.0,108.0
129.0,126.0,128.0,133.0,119.0,103.0,154.0,122.0,-1.0,117.0,-86.0,126.0,127.0,127.0,-119.0,-82.0,108.0
124.0,113.0,125.0,133.0,118.0,102.0,152.0,119.0,-1.0,117.0,-86.0,126.0,127.0,127.0,-119.0,-82.0,108.0
124.0,113.0,124.0,133.0,118.0,102.0,152.0,119.0,-1.0,117.0,-86.0,126.0,127.0,127.0,-119.0,-82.0,108.0
125.0,114.0,124.0,133.0,118.0,103.0,152.0,118.0,-1.0,117.0,-86.0,126.0,127.0,127.0,-119.0,-82.0,108.0
126.0,116.0,125.0,133.0,118.0,103.0,152.0,118.0,-1.0,117.0,-86.0,126.0,127.0,127.0,-119.0,-82.0,108.0
127.0,118.0,125.0,133.0,118.0,103.0,153.0,118.0,-1.0,117.0,-86.0,126.0,127.0,127.0,-119.0,-82.0,108.0
128.0,120.0,126.0,133.0,118.0,103.0,153.0,119.0,-1.0,117.0,-86.0,126.0,127.0,127.0,-119.0,-82.0,108.0
128.0,122.0,126.0,133.0,118.0,103.0,154.0,120.0,-1.0,117.0,-86.0,126.0,127.0,127.0,-119.0,-82.0,108.0
129.0,124.0,127.0,133.0,119.0,103.0,154.0,120.0,-1.0,117.0,-86.0,126.0,127.0,127.0,-119.0,-82.0,108.0
126.0,123.0,130.0,131.0,123.0,105.0,140.0,142.0,-1.0,116.0,-88.0,126.0,127.0,127.0,-119.0,-82.0,108.0
127.0,133.0,130.0,131.0,122.0,100.0,139.0,137.0,-1.0,116.0,-88.0,126.0,127.0,127.0,-119.0,-82.0,108.0
126.0,131.0,130.0,131.0,122.0,101.0,138.0,137.0,-1.0,116.0,-88.0,126.0,127.0,127.0,-119.0,-82.0,108.0
125.0,130.0,129.0,131.0,122.0,102.0,137.0,138.0,-1.0,116.0,-88.0,126.0,127.0,127.0,-119.0,-82.0,108.0
125.0,128.0,130.0,131.0,122.0,102.0,137.0,138.0,-1.0,116.0,-88.0,126.0,127.0,127.0,-119.0,-82.0,108.0
125.0,127.0,130.0,131.0,122.0,103.0,138.0,139.0,-1.0,116.0,-88.0,126.0,127.0,127.0,-119.0,-82.0,108.0
125.0,126.0,130.0,130.0,122.0,103.0,139.0,139.0,-1.0,116.0,-88.0,126.0,127.0,127.0,-119.0,-82.0,108.0
125.0,125.0,130.0,130.0,123.0,103.0,139.0,140.0,-1.0,116.0,-88.0,126.0,127.0,127.0,-119.0,-82.0,108.0
125.0,124.0,130.0,130.0,123.0,104.0,139.0,141.0,-1.0,116.0,-88.0,126.0,127.0,127.0,-119.0,-82.0,108.0
125.0,124.0,130.0,130.0,123.0,104.0,139.0,142.0,-1.0,116.0,-88.0,126.0,127.0,127.0,-119.0,-82.0,108.0
128.0,118.0,128.0,129.0,127.0,116.0,136.0,142.0,-1.0,112.0,-89.0,126.0,127.0,127.0,-119.0,-82.0,108.0
128.0,118.0,128.0,129.0,128.0,117.0,135.0,141.0,-1.0,112.0,-89.0,126.0,127.0,127.0,-119.0,-82.0,108.0
127.0,117.0,128.0,129.0,128.0,118.0,135.0,140.0,-1.0,112.0,-89.0,126.0,127.0,127.0,-119.0,-82.0,108.0
127.0,118.0,128.0,129.0,128.0,118.0,134.0,139.0,-1.0,112.0,-89.0,126.0,127.0,127.0,-119.0,-82.0,108.0
127.0,118.0,128.0,129.0,127.0,118.0,133.0,139.0,-1.0,112.0,-89.0,126.0,127.0,127.0,-119.0,-82.0,108.0
126.0,118.0,128.0,129.0,127.0,119.0,132.0,138.0,-1.0,112.0,-89.0,126.0,127.0,127.0,-119.0,-82.0,108.0
126.0,118.0,128.0,129.0,127.0,119.0,132.0,138.0,-1.0,112.0,-89.0,126.0,127.0,127.0,-119.0,-82.0,108.0
126.0,119.0,128.0,129.0,128.0,120.0,131.0,138.0,-1.0,112.0,-89.0,126.0,127.0,127.0,-119.0,-82.0,108.0
127.0,119.0,128.0,129.0,128.0,120.0,130.0,138.0,-1.0,112.0,-89.0,126.0,127.0,127.0,-119.0,-82.0,108.0
127.0,119.0,128.0,129.0,128.0,121.0,129.0,138.0,-1.0,112.0,-89.0,126.0,127.0,127.0,-119.0,-82.0,108.0
133.0,140.0,137.0,134.0,130.0,125.0,119.0,135.0,-1.0,107.0,-85.0,126.0,127.0,-128.0,-118.0,-82.0,108.0
134.0,141.0,137.0,135.0,131.0,126.0,119.0,134.0,-1.0,107.0,-85.0,126.0,127.0,-128.0,-118.0,-82.0,108.0
134.0,141.0,137.0,135.0,131.0,126.0,119.0,133.0,-1.0,107.0,-85.0,126.0,127.0,-128.0,-118.0,-82.0,108.0
133.0,141.0,137.0,134.0,132.0,126.0,119.0,132.0,-1.0,107.0,-85.0,126.0,127.0,-128.0,-118.0,-82.0,108.0
133.0,141.0,136.0,134.0,132.0,126.0,119.0,131.0,-1.0,107.0,-85.0,126.0,127.0,-128.0,-118.0,-82.0,108.0
133.0,141.0,135.0,134.0,132.0,126.0,119.0,130.0,-1.0,107.0,-85.0,126.0,127.0,-128.0,-118.0,-82.0,108.0
133.0,140.0,135.0,134.0,132.0,125.0,119.0,129.0,-1.0,107.0,-85.0,126.0,127.0,-128.0,-118.0,-82.0,108.0
134.0,138.0,134.0,134.0,132.0,125.0,119.0,128.0,-1.0,107.0,-85.0,126.0,127.0,-128.0,-118.0,-82.0,108.0
134.0,135.0,132.0,133.0,131.0,125.0,119.0,128.0,-1.0,107.0,-85.0,126.0,127.0,-128.0,-118.0,-82.0,108.0
132.0,138.0,136.0,134.0,129.0,125.0,119.0,136.0,-1.0,107.0,-85.0,126.0,127.0,-128.0,-118.0,-82.0,108.0
133.0,131.0,128.0,130.0,131.0,122.0,126.0,133.0,-1.0,103.0,-83.0,127.0,127.0,-128.0,-118.0,-82.0,108.0
133.0,129.0,128.0,129.0,131.0,122.0,126.0,133.0,-1.0,103.0,-83.0,127.0,127.0,-128.0,-118.0,-82.0,108.0
133.0,128.0,127.0,129.0,131.0,122.0,126.0,132.0,-1.0,103.0,-83.0,127.0,127.0,-128.0,-118.0,-82.0,108.0
133.0,127.0,127.0,129.0,130.0,122.0,125.0,132.0,-1.0,103.0,-83.0,127.0,127.0,-128.0,-118.0,-82.0,108.0
132.0,126.0,127.0,129.0,130.0,123.0,125.0,132.0,-1.0,103.0,-83.0,127.0,127.0,-128.0,-118.0,-82.0,108.0
132.0,126.0,127.0,128.0,130.0,123.0,125.0,132.0,-1.0,103.0,-83.0,127.0,127.0,-128.0,-118.0,-82.0,108.0
131.0,125.0,127.0,128.0,130.0,123.0,125.0,132.0,-1.0,103.0,-83.0,127.0,127.0,-128.0,-118.0,-82.0,108.0
131.0,125.0,126.0,128.0,130.0,122.0,125.0,132.0,-1.0,103.0,-83.0,127.0,127.0,-128.0,-118.0,-82.0,108.0
134.0,133.0,129.0,130.0,131.0,123.0,127.0,134.0,-1.0,103.0,-83.0,127.0,127.0,-128.0,-118.0,-82.0,108.0
134.0,132.0,129.0,130.0,131.0,122.0,127.0,134.0,-1.0,103.0,-83.0,127.0,127.0,-128.0,-118.0,-82.0,108.0
121.0,122.0,128.0,132.0,131.0,124.0,114.0,133.0,-1.0,105.0,-83.0,127.0,127.0,127.0,-118.0,-82.0,108.0
121.0,123.0,127.0,132.0,131.0,124.0,114.0,133.0,-1.0,105.0,-83.0,127.0,127.0,127.0,-118.0,-82.0,108.0
121.0,123.0,127.0,132.0,131.0,124.0,114.0,133.0,-1.0,105.0,-83.0,127.0,127.0,127.0,-118.0,-82.0,108.0
121.0,124.0,126.0,132.0,131.0,124.0,114.0,134.0,-1.0,105.0,-83.0,127.0,127.0,127.0,-118.0,-82.0,108.0
121.0,125.0,126.0,132.0,131.0,124.0,114.0,134.0,-1.0,105.0,-83.0,127.0,127.0,127.0,-118.0,-82.0,108.0
122.0,125.0,126.0,132.0,131.0,124.0,113.0,135.0,-1.0,105.0,-83.0,127.0,127.0,127.0,-118.0,-82.0,108.0
122.0,123.0,128.0,132.0,131.0,124.0,116.0,133.0,-1.0,105.0,-83.0,127.0,127.0,127.0,-118.0,-82.0,108.0
122.0,122.0,128.0,132.0,131.0,124.0,115.0,133.0,-1.0,105.0,-83.0,127.0,127.0,127.0,-118.0,-82.0,108.0
121.0,122.0,128.0,132.0,131.0,124.0,115.0,133.0,-1.0,105.0,-83.0,127.0,127.0,127.0,-118.0,-82.0,108.0
121.0,122.0,128.0,132.0,131.0,124.0,114.0,133.0,-1.0,105.0,-83.0,127.0,127.0,127.0,-118.0,-82.0,108.0
128.0,128.0,129.0,129.0,129.0,123.0,110.0,138.0,-1.0,109.0,-86.0,126.0,126.0,127.0,-118.0,-82.0,108.0
128.0,130.0,129.0,129.0,129.0,124.0,109.0,138.0,-1.0,109.0,-86.0,126.0,126.0,127.0,-118.0,-82.0,108.0
129.0,132.0,130.0,129.0,129.0,124.0,109.0,138.0,-1.0,109.0,-86.0,126.0,126.0,127.0,-118.0,-82.0,108.0
130.0,135.0,130.0,129.0,129.0,124.0,110.0,139.0,-1.0,109.0,-86.0,126.0,126.0,127.0,-118.0,-82.0,108.0
130.0,137.0,130.0,129.0,129.0,124.0,111.0,139.0,-1.0,109.0,-86.0,126.0,126.0,127.0,-118.0,-82.0,108.0
125.0,126.0,129.0,130.0,129.0,124.0,110.0,138.0,-1.0,109.0,-86.0,126.0,126.0,127.0,-118.0,-82.0,108.0
125.0,126.0,129.0,129.0,129.0,124.0,109.0,137.0,-1.0,109.0,-86.0,126.0,126.0,127.0,-118.0,-82.0,108.0
126.0,126.0,128.0,129.0,129.0,124.0,109.0,137.0,-1.0,109.0,-86.0,126.0,126.0,127.0,-118.0,-82.0,108.0
126.0,126.0,129.0,129.0,129.0,124.0,110.0,137.0,-1.0,109.0,-86.0,126.0,126.0,127.0,-118.0,-82.0,108.0
127.0,127.0,129.0,129.0,129.0,123.0,110.0,137.0,-1.0,109.0,-86.0,126.0,126.0,127.0,-118.0,-82.0,108.0
127.0,125.0,129.0,125.0,129.0,124.0,116.0,126.0,-1.0,109.0,-88.0,126.0,126.0,127.0,-118.0,-82.0,108.0
127.0,125.0,129.0,125.0,129.0,124.0,116.0,127.0,-1.0,109.0,-88.0,126.0,126.0,127.0,-118.0,-82.0,108.0
127.0,125.0,129.0,125.0,129.0,124.0,117.0,127.0,-1.0,109.0,-88.0,126.0,126.0,127.0,-118.0,-82.0,108.0
127.0,125.0,129.0,125.0,129.0,124.0,117.0,127.0,-1.0,109.0,-88.0,126.0,126.0,127.0,-118.0,-82.0,108.0
128.0,126.0,130.0,127.0,130.0,124.0,116.0,127.0,-1.0,109.0,-88.0,126.0,126.0,127.0,-118.0,-82.0,108.0
128.0,126.0,130.0,126.0,130.0,125.0,115.0,127.0,-1.0,109.0,-88.0,126.0,126.0,127.0,-118.0,-82.0,108.0
128.0,127.0,130.0,126.0,130.0,125.0,115.0,127.0,-1.0,109.0,-88.0,126.0,126.0,127.0,-118.0,-82.0,108.0
128.0,127.0,130.0,126.0,130.0,124.0,115.0,127.0,-1.0,109.0,-88.0,126.0,126.0,127.0,-118.0,-82.0,108.0
128.0,126.0,130.0,126.0,130.0,124.0,115.0,126.0,-1.0,109.0,-88.0,126.0,126.0,127.0,-118.0,-82.0,108.0
127.0,126.0,130.0,126.0,129.0,124.0,115.0,126.0,-1.0,109.0,-88.0,126.0,126.0,127.0,-118.0,-82.0,108.0
129.0,133.0,127.0,124.0,128.0,122.0,120.0,128.0,-1.0,108.0,-91.0,127.0,126.0,127.0,-117.0,-82.0,108.0
129.0,134.0,127.0,125.0,128.0,122.0,120.0,129.0,-1.0,108.0,-91.0,127.0,126.0,127.0,-117.0,-82.0,108.0
129.0,135.0,127.0,124.0,128.0,122.0,121.0,130.0,-1.0,108.0,-91.0,127.0,126.0,127.0,-117.0,-82.0,108.0
127.0,133.0,129.0,124.0,129.0,122.0,117.0,127.0,-1.0,108.0,-91.0,127.0,126.0,127.0,-117.0,-82.0,108.0
127.0,133.0,128.0,124.0,129.0,123.0,117.0,127.0,-1.0,108.0,-91.0,127.0,126.0,127.0,-117.0,-82.0,108.0
127.0,132.0,128.0,125.0,129.0,123.0,117.0,127.0,-1.0,108.0,-91.0,127.0,126.0,127.0,-117.0,-82.0,108.0
128.0,132.0,128.0,125.0,129.0,123.0,118.0,127.0,-1.0,108.0,-91.0,127.0,126.0,127.0,-117.0,-82.0,108.0
128.0,131.0,128.0,125.0,129.0,122.0,118.0,127.0,-1.0,108.0,-91.0,127.0,126.0,127.0,-117.0,-82.0,108.0
128.0,132.0,128.0,125.0,129.0,122.0,119.0,127.0,-1.0,108.0,-91.0,127.0,126.0,127.0,-117.0,-82.0,108.0
128.0,132.0,128.0,125.0,129.0,122.0,119.0,128.0,-1.0,108.0,-91.0,127.0,126.0,127.0,-117.0,-82.0,108.0
126.0,119.0,126.0,124.0,127.0,124.0,125.0,131.0,-1.0,107.0,-92.0,127.0,126.0,127.0,-116.0,-82.0,108.0
125.0,120.0,126.0,124.0,127.0,124.0,125.0,131.0,-1.0,107.0,-92.0,127.0,126.0,127.0,-116.0,-82.0,108.0
131.0,133.0,127.0,124.0,127.0,123.0,121.0,134.0,-1.0,107.0,-92.0,127.0,126.0,127.0,-116.0,-82.0,108.0
131.0,130.0,126.0,124.0,127.0,123.0,122.0,133.0,-1.0,107.0,-92.0,127.0,126.0,127.0,-116.0,-82.0,108.0
131.0,127.0,126.0,124.0,127.0,123.0,122.0,133.0,-1.0,107.0,-92.0,127.0,126.0,127.0,-116.0,-82.0,108.0
130.0,123.0,126.0,124.0,127.0,123.0,123.0,132.0,-1.0,107.0,-92.0,127.0,126.0,127.0,-116.0,-82.0,108.0
130.0,121.0,125.0,124.0,127.0,123.0,123.0,131.0,-1.0,107.0,-92.0,127.0,126.0,127.0,-116.0,-82.0,108.0
129.0,120.0,125.0,124.0,127.0,123.0,123.0,131.0,-1.0,107.0,-92.0,127.0,126.0,127.0,-116.0,-82.0,108.0
128.0,119.0,125.0,124.0,127.0,124.0,124.0,131.0,-1.0,107.0,-92.0,127.0,126.0,127.0,-116.0,-82.0,108.0
127.0,119.0,126.0,124.0,127.0,124.0,124.0,130.0,-1.0,107.0,-92.0,127.0,126.0,127.0,-116.0,-82.0,108.0
126.0,132.0,127.0,125.0,127.0,126.0,124.0,130.0,-1.0,107.0,-93.0,127.0,126.0,127.0,-115.0,-82.0,108.0
125.0,127.0,127.0,125.0,127.0,125.0,125.0,132.0,-1.0,107.0,-93.0,127.0,126.0,127.0,-115.0,-82.0,108.0
126.0,127.0,126.0,125.0,127.0,125.0,124.0,132.0,-1.0,107.0,-93.0,127.0,126.0,127.0,-115.0,-82.0,108.0
126.0,127.0,127.0,125.0,127.0,125.0,124.0,132.0,-1.0,107.0,-93.0,127.0,126.0,127.0,-115.0,-82.0,108.0
127.0,128.0,127.0,125.0,127.0,125.0,124.0,132.0,-1.0,107.0,-93.0,127.0,126.0,127.0,-115.0,-82.0,108.0
127.0,128.0,126.0,125.0,127.0,125.0,124.0,131.0,-1.0,107.0,-93.0,127.0,126.0,127.0,-115.0,-82.0,108.0
126.0,129.0,126.0,125.0,127.0,125.0,124.0,131.0,-1.0,107.0,-93.0,127.0,126.0,127.0,-115.0,-82.0,108.0
126.0,130.0,126.0,125.0,127.0,125.0,125.0,131.0,-1.0,107.0,-93.0,127.0,126.0,127.0,-115.0,-82.0,108.0
126.0,130.0,126.0,125.0,127.0,126.0,124.0,130.0,-1.0,107.0,-93.0,127.0,126.0,127.0,-115.0,-82.0,108.0
126.0,131.0,127.0,125.0,127.0,126.0,124.0,130.0,-1.0,107.0,-93.0,127.0,126.0,127.0,-115.0,-82.0,108.0
123.0,125.0,127.0,126.0,127.0,124.0,127.0,130.0,-1.0,106.0,-93.0,127.0,127.0,127.0,-115.0,-82.0,108.0
123.0,125.0,127.0,126.0,126.0,125.0,126.0,131.0,-1.0,106.0,-93.0,127.0,127.0,127.0,-115.0,-82.0,108.0
123.0,124.0,127.0,126.0,126.0,125.0,127.0,131.0,-1.0,106.0,-93.0,127.0,127.0,127.0,-115.0,-82.0,108.0
124.0,124.0,127.0,126.0,126.0,125.0,127.0,131.0,-1.0,106.0,-93.0,127.0,127.0,127.0,-115.0,-82.0,108.0
124.0,124.0,127.0,126.0,126.0,125.0,127.0,131.0,-1.0,106.0,-93.0,127.0,127.0,127.0,-115.0,-82.0,108.0
124.0,124.0,127.0,126.0,126.0,125.0,128.0,131.0,-1.0,106.0,-93.0,127.0,127.0,127.0,-115.0,-82.0,108.0
125.0,124.0,127.0,126.0,126.0,125.0,128.0,131.0,-1.0,106.0,-93.0,127.0,127.0,127.0,-115.0,-82.0,108.0
125.0,125.0,127.0,126.0,126.0,126.0,128.0,131.0,-1.0,106.0,-93.0,127.0,127.0,127.0,-115.0,-82.0,108.0
125.0,125.0,127.0,126.0,126.0,126.0,128.0,132.0,-1.0,106.0,-93.0,127.0,127.0,127.0,-115.0,-82.0,108.0
125.0,125.0,127.0,126.0,126.0,126.0,128.0,132.0,-1.0,106.0,-93.0,127.0,127.0,127.0,-115.0,-82.0,108.0
131.0,132.0,128.0,127.0,127.0,126.0,124.0,130.0,-1.0,105.0,-92.0,127.0,127.0,127.0,-115.0,-82.0,108.0
132.0,134.0,128.0,128.0,127.0,127.0,123.0,131.0,-1.0,105.0,-92.0,127.0,127.0,127.0,-115.0,-82.0,108.0
132.0,136.0,129.0,128.0,127.0,127.0,123.0,131.0,-1.0,105.0,-92.0,127.0,127.0,127.0,-115.0,-82.0,108.0
131.0,137.0,129.0,128.0,127.0,126.0,123.0,131.0,-1.0,105.0,-92.0,127.0,127.0,127.0,-115.0,-82.0,108.0
131.0,138.0,130.0,128.0,128.0,126.0,123.0,130.0,-1.0,105.0,-92.0,127.0,127.0,127.0,-115.0,-82.0,108.0
129.0,139.0,130.0,128.0,128.0,127.0,124.0,130.0,-1.0,105.0,-92.0,127.0,127.0,127.0,-115.0,-82.0,108.0
128.0,139.0,129.0,128.0,128.0,127.0,123.0,130.0,-1.0,105.0,-92.0,127.0,127.0,127.0,-115.0,-82.0,108.0
126.0,139.0,129.0,128.0,127.0,127.0,123.0,129.0,-1.0,105.0,-92.0,127.0,127.0,127.0,-115.0,-82.0,108.0
125.0,138.0,129.0,128.0,127.0,127.0,123.0,129.0,-1.0,105.0,-92.0,127.0,127.0,127.0,-115.0,-82.0,108.0
130.0,130.0,128.0,127.0,127.0,125.0,125.0,129.0,-1.0,105.0,-92.0,127.0,127.0,127.0,-115.0,-82.0,108.0
126.0,123.0,127.0,127.0,127.0,126.0,127.0,133.0,-1.0,105.0,-92.0,127.0,127.0,127.0,-114.0,-82.0,108.0
126.0,123.0,126.0,127.0,127.0,126.0,127.0,133.0,-1.0,105.0,-92.0,127.0,127.0,127.0,-114.0,-82.0,108.0
125.0,123.0,126.0,127.0,127.0,126.0,128.0,133.0,-1.0,105.0,-92.0,127.0,127.0,127.0,-114.0,-82.0,108.0
125.0,122.0,126.0,127.0,127.0,126.0,128.0,133.0,-1.0,105.0,-92.0,127.0,127.0,127.0,-114.0,-82.0,108.0
126.0,122.0,126.0,127.0,127.0,126.0,129.0,133.0,-1.0,105.0,-92.0,127.0,127.0,127.0,-114.0,-82.0,108.0
126.0,122.0,126.0,127.0,127.0,126.0,129.0,133.0,-1.0,105.0,-92.0,127.0,127.0,127.0,-114.0,-82.0,108.0
126.0,122.0,126.0,127.0,126.0,127.0,129.0,133.0,-1.0,105.0,-92.0,127.0,127.0,127.0,-114.0,-82.0,108.0
126.0,122.0,126.0,127.0,126.0,127.0,129.0,132.0,-1.0,105.0,-92.0,127.0,127.0,127.0,-114.0,-82.0,108.0
126.0,122.0,127.0,127.0,127.0,125.0,127.0,133.0,-1.0,105.0,-92.0,127.0,127.0,127.0,-114.0,-82.0,108.0
126.0,122.0,127.0,127.0,127.0,126.0,127.0,133.0,-1.0,105.0,-92.0,127.0,127.0,127.0,-114.0,-82.0,108.0
126.0,127.0,128.0,127.0,127.0,126.0,127.0,132.0,-1.0,105.0,-92.0,127.0,127.0,127.0,-113.0,-82.0,108.0
126.0,128.0,128.0,127.0,126.0,126.0,127.0,132.0,-1.0,105.0,-92.0,127.0,127.0,127.0,-113.0,-82.0,108.0
126.0,129.0,128.0,127.0,126.0,125.0,127.0,132.0,-1.0,105.0,-92.0,127.0,127.0,127.0,-113.0,-82.0,108.0
126.0,129.0,128.0,126.0,126.0,125.0,127.0,131.0,-1.0,105.0,-92.0,127.0,127.0,127.0,-113.0,-82.0,108.0
126.0,130.0,128.0,126.0,126.0,125.0,127.0,131.0,-1.0,105.0,-92.0,127.0,127.0,127.0,-113.0,-82.0,108.0
126.0,130.0,127.0,126.0,126.0,126.0,126.0,131.0,-1.0,105.0,-92.0,127.0,127.0,127.0,-113.0,-82.0,108.0
126.0,130.0,127.0,126.0,126.0,126.0,126.0,131.0,-1.0,105.0,-92.0,127.0,127.0,127.0,-113.0,-82.0,108.0
126.0,125.0,128.0,127.0,127.0,125.0,127.0,132.0,-1.0,105.0,-92.0,127.0,127.0,127.0,-113.0,-82.0,108.0
126.0,126.0,128.0,127.0,127.0,125.0,127.0,132.0,-1.0,105.0,-92.0,127.0,127.0,127.0,-113.0,-82.0,108.0
126.0,127.0,128.0,127.0,126.0,126.0,127.0,132.0,-1.0,105.0,-92.0,127.0,127.0,127.0,-113.0,-82.0,108.0
126.0,127.0,127.0,126.0,127.0,127.0,127.0,128.0,-1.0,105.0,-91.0,127.0,127.0,127.0,-113.0,-82.0,108.0
126.0,127.0,127.0,126.0,127.0,127.0,127.0,127.0,-1.0,105.0,-91.0,127.0,127.0,127.0,-113.0,-82.0,108.0
126.0,127.0,127.0,126.0,127.0,127.0,127.0,127.0,-1.0,105.0,-91.0,127.0,127.0,127.0,-113.0,-82.0,108.0
126.0,127.0,126.0,126.0,127.0,126.0,127.0,126.0,-1.0,105.0,-91.0,127.0,127.0,127.0,-113.0,-82.0,108.0
126.0,128.0,126.0,126.0,126.0,127.0,127.0,126.0,-1.0,105.0,-91.0,127.0,127.0,127.0,-113.0,-82.0,108.0
126.0,128.0,126.0,126.0,126.0,127.0,127.0,126.0,-1.0,105.0,-91.0,127.0,127.0,127.0,-113.0,-82.0,108.0
127.0,127.0,127.0,127.0,127.0,126.0,127.0,131.0,-1.0,105.0,-91.0,127.0,127.0,127.0,-113.0,-82.0,108.0
127.0,127.0,127.0,127.0,127.0,126.0,127.0,130.0,-1.0,105.0,-91.0,127.0,127.0,127.0,-113.0,-82.0,108.0
127.0,127.0,127.0,127.0,127.0,127.0,127.0,129.0,-1.0,105.0,-91.0,127.0,127.0,127.0,-113.0,-82.0,108.0
127.0,127.0,127.0,127.0,127.0,127.0,127.0,128.0,-1.0,105.0,-91.0,127.0,127.0,127.0,-113.0,-82.0,108.0
129.0,125.0,126.0,126.0,126.0,125.0,129.0,123.0,-1.0,105.0,-90.0,127.0,127.0,127.0,-113.0,-82.0,108.0
130.0,125.0,126.0,126.0,126.0,126.0,129.0,124.0,-1.0,105.0,-90.0,127.0,127.0,127.0,-113.0,-82.0,108.0
130.0,125.0,126.0,127.0,127.0,126.0,129.0,125.0,-1.0,105.0,-90.0,127.0,127.0,127.0,-113.0,-82.0,108.0
131.0,125.0,126.0,127.0,126.0,126.0,130.0,125.0,-1.0,105.0,-90.0,127.0,127.0,127.0,-113.0,-82.0,108.0
131.0,125.0,126.0,127.0,126.0,127.0,130.0,126.0,-1.0,105.0,-90.0,127.0,127.0,127.0,-113.0,-82.0,108.0
127.0,125.0,126.0,126.0,127.0,125.0,127.0,121.0,-1.0,105.0,-90.0,127.0,127.0,127.0,-113.0,-82.0,108.0
127.0,125.0,126.0,126.0,126.0,125.0,127.0,122.0,-1.0,105.0,-90.0,127.0,127.0,127.0,-113.0,-82.0,108.0
128.0,125.0,126.0,126.0,126.0,126.0,127.0,122.0,-1.0,105.0,-90.0,127.0,127.0,127.0,-113.0,-82.0,108.0
128.0,124.0,126.0,127.0,126.0,126.0,127.0,122.0,-1.0,105.0,-90.0,127.0,127.0,127.0,-113.0,-82.0,108.0
129.0,124.0,126.0,127.0,126.0,126.0,128.0,123.0,-1.0,105.0,-90.0,127.0,127.0,127.0,-113.0,-82.0,108.0
125.0,128.0,127.0,127.0,127.0,126.0,127.0,129.0,-1.0,105.0,-90.0,127.0,127.0,127.0,-113.0,-82.0,108.0
125.0,128.0,127.0,127.0,127.0,126.0,127.0,129.0,-1.0,105.0,-90.0,127.0,127.0,127.0,-113.0,-82.0,108.0
126.0,128.0,127.0,127.0,126.0,126.0,126.0,129.0,-1.0,105.0,-90.0,127.0,127.0,127.0,-113.0,-82.0,108.0
126.0,128.0,127.0,127.0,126.0,126.0,126.0,129.0,-1.0,105.0,-90.0,127.0,127.0,127.0,-113.0,-82.0,108.0
124.0,127.0,127.0,126.0,127.0,125.0,128.0,128.0,-1.0,105.0,-90.0,127.0,127.0,127.0,-113.0,-82.0,108.0
124.0,127.0,127.0,126.0,127.0,125.0,128.0,128.0,-1.0,105.0,-90.0,127.0,127.0,127.0,-113.0,-82.0,108.0
125.0,128.0,127.0,127.0,126.0,126.0,128.0,128.0,-1.0,105.0,-90.0,127.0,127.0,127.0,-113.0,-82.0,108.0
125.0,128.0,127.0,127.0,126.0,126.0,127.0,128.0,-1.0,105.0,-90.0,127.0,127.0,127.0,-113.0,-82.0,108.0
125.0,128.0,127.0,127.0,127.0,126.0,127.0,129.0,-1.0,105.0,-90.0,127.0,127.0,127.0,-113.0,-82.0,108.0
125.0,128.0,127.0,127.0,127.0,126.0,127.0,128.0,-1.0,105.0,-90.0,127.0,127.0,127.0,-113.0,-82.0,108.0
126.0,128.0,127.0,127.0,127.0,125.0,127.0,130.0,-1.0,105.0,-90.0,127.0,127.0,127.0,-113.0,-82.0,108.0
126.0,128.0,127.0,127.0,127.0,125.0,127.0,130.0,-1.0,105.0,-90.0,127.0,127.0,127.0,-113.0,-82.0,108.0
126.0,128.0,127.0,127.0,127.0,125.0,126.0,130.0,-1.0,105.0,-90.0,127.0,127.0,127.0,-113.0,-82.0,108.0
125.0,128.0,127.0,127.0,127.0,126.0,126.0,129.0,-1.0,105.0,-90.0,127.0,127.0,127.0,-113.0,-82.0,108.0
125.0,128.0,127.0,127.0,127.0,126.0,126.0,129.0,-1.0,105.0,-90.0,127.0,127.0,127.0,-113.0,-82.0,108.0
125.0,128.0,127.0,127.0,127.0,125.0,126.0,129.0,-1.0,105.0,-90.0,127.0,127.0,127.0,-113.0,-82.0,108.0
125.0,128.0,127.0,127.0,127.0,125.0,126.0,130.0,-1.0,105.0,-90.0,127.0,127.0,127.0,-113.0,-82.0,108.0
126.0,128.0,127.0,127.0,127.0,125.0,127.0,130.0,-1.0,105.0,-90.0,127.0,127.0,127.0,-113.0,-82.0,108.0
126.0,128.0,127.0,127.0,127.0,125.0,127.0,130.0,-1.0,105.0,-90.0,127.0,127.0,127.0,-113.0,-82.0,108.0
126.0,128.0,127.0,127.0,127.0,125.0,127.0,130.0,-1.0,105.0,-90.0,127.0,127.0,127.0,-113.0,-82.0,108.0
125.0,129.0,127.0,127.0,127.0,127.0,126.0,128.0,-1.0,105.0,-90.0,127.0,127.0,127.0,-113.0,-82.0,108.0
125.0,129.0,127.0,127.0,127.0,127.0,126.0,129.0,-1.0,105.0,-90.0,127.0,127.0,127.0,-113.0,-82.0,108.0
125.0,129.0,127.0,127.0,126.0,126.0,125.0,132.0,-1.0,105.0,-90.0,127.0,127.0,127.0,-113.0,-82.0,108.0
125.0,128.0,127.0,127.0,127.0,126.0,125.0,131.0,-1.0,105.0,-90.0,127.0,127.0,127.0,-113.0,-82.0,108.0
124.0,128.0,127.0,127.0,127.0,126.0,126.0,129.0,-1.0,105.0,-90.0,127.0,127.0,127.0,-113.0,-82.0,108.0
124.0,128.0,127.0,127.0,127.0,126.0,126.0,128.0,-1.0,105.0,-90.0,127.0,127.0,127.0,-113.0,-82.0,108.0
124.0,128.0,127.0,127.0,127.0,126.0,126.0,128.0,-1.0,105.0,-90.0,127.0,127.0,127.0,-113.0,-82.0,108.0
125.0,128.0,127.0,127.0,126.0,127.0,127.0,128.0,-1.0,105.0,-90.0,127.0,127.0,127.0,-113.0,-82.0,108.0
125.0,128.0,127.0,127.0,126.0,127.0,126.0,128.0,-1.0,105.0,-90.0,127.0,127.0,127.0,-113.0,-82.0,108.0
125.0,129.0,127.0,127.0,127.0,127.0,126.0,128.0,-1.0,105.0,-90.0,127.0,127.0,127.0,-113.0,-82.0,108.0
125.0,127.0,127.0,127.0,126.0,125.0,126.0,128.0,-1.0,105.0,-90.0,127.0,127.0,127.0,-113.0,-82.0,108.0
125.0,127.0,127.0,127.0,126.0,127.0,126.0,128.0,-1.0,105.0,-90.0,127.0,127.0,127.0,-113.0,-82.0,108.0
125.0,127.0,127.0,127.0,127.0,126.0,127.0,128.0,-1.0,105.0,-90.0,127.0,127.0,127.0,-113.0,-82.0,108.0
125.0,127.0,127.0,127.0,126.0,126.0,127.0,128.0,-1.0,105.0,-90.0,127.0,127.0,127.0,-113.0,-82.0,108.0
125.0,127.0,127.0,127.0,126.0,126.0,126.0,128.0,-1.0,105.0,-90.0,127.0,127.0,127.0,-113.0,-82.0,108.0
125.0,127.0,127.0,127.0,126.0,126.0,126.0,128.0,-1.0,105.0,-90.0,127.0,127.0,127.0,-113.0,-82.0,108.0
125.0,127.0,127.0,127.0,126.0,126.0,126.0,128.0,-1.0,105.0,-90.0,127.0,127.0,127.0,-113.0,-82.0,108.0
125.0,127.0,127.0,127.0,126.0,126.0,126.0,128.0,-1.0,105.0,-90.0,127.0,127.0,127.0,-113.0,-82.0,108.0
125.0,127.0,127.0,127.0,126.0,126.0,126.0,128.0,-1.0,105.0,-90.0,127.0,127.0,127.0,-113.0,-82.0,108.0
125.0,127.0,127.0,127.0,126.0,126.0,126.0,128.0,-1.0,105.0,-90.0,127.0,127.0,127.0,-113.0,-82.0,108.0
126.0,128.0,127.0,128.0,127.0,127.0,126.0,127.0,-1.0,105.0,-90.0,127.0,127.0,127.0,-112.0,-82.0,108.0
126.0,128.0,127.0,128.0,127.0,127.0,126.0,127.0,-1.0,105.0,-90.0,127.0,127.0,127.0,-112.0,-82.0,108.0
126.0,128.0,127.0,128.0,127.0,126.0,126.0,127.0,-1.0,105.0,-90.0,127.0,127.0,127.0,-112.0,-82.0,108.0
126.0,128.0,127.0,128.0,127.0,126.0,126.0,127.0,-1.0,105.0,-90.0,127.0,127.0,127.0,-112.0,-82.0,108.0
126.0,128.0,127.0,128.0,127.0,127.0,126.0,127.0,-1.0,105.0,-90.0,127.0,127.0,127.0,-112.0,-82.0,108.0
126.0,128.0,127.0,128.0,127.0,127.0,126.0,127.0,-1.0,105.0,-90.0,127.0,127.0,127.0,-112.0,-82.0,108.0
126.0,128.0,127.0,128.0,126.0,127.0,126.0,128.0,-1.0,105.0,-90.0,127.0,127.0,127.0,-112.0,-82.0,108.0
126.0,128.0,127.0,128.0,126.0,127.0,126.0,128.0,-1.0,105.0,-90.0,127.0,127.0,127.0,-112.0,-82.0,108.0
126.0,128.0,127.0,128.0,127.0,127.0,126.0,127.0,-1.0,105.0,-90.0,127.0,127.0,127.0,-112.0,-82.0,108.0
125.0,128.0,127.0,128.0,127.0,127.0,127.0,127.0,-1.0,105.0,-90.0,127.0,127.0,127.0,-112.0,-82.0,108.0
125.0,127.0,127.0,127.0,126.0,128.0,126.0,125.0,-1.0,105.0,-90.0,127.0,127.0,127.0,-112.0,-82.0,108.0
125.0,126.0,127.0,127.0,127.0,128.0,126.0,125.0,-1.0,105.0,-90.0,127.0,127.0,127.0,-112.0,-82.0,108.0
124.0,126.0,127.0,127.0,127.0,128.0,126.0,125.0,-1.0,105.0,-90.0,127.0,127.0,127.0,-112.0,-82.0,108.0
125.0,126.0,127.0,127.0,127.0,128.0,126.0,125.0,-1.0,105.0,-90.0,127.0,127.0,127.0,-112.0,-82.0,108.0
125.0,126.0,127.0,127.0,126.0,128.0,125.0,125.0,-1.0,105.0,-90.0,127.0,127.0,127.0,-112.0,-82.0,108.0
125.0,126.0,127.0,127.0,126.0,128.0,125.0,125.0,-1.0,105.0,-90.0,127.0,127.0,127.0,-112.0,-82.0,108.0
125.0,126.0,127.0,127.0,126.0,128.0,125.0,125.0,-1.0,105.0,-90.0,127.0,127.0,127.0,-112.0,-82.0,108.0
125.0,126.0,127.0,127.0,126.0,128.0,125.0,125.0,-1.0,105.0,-90.0,127.0,127.0,127.0,-112.0,-82.0,108.0
124.0,126.0,127.0,127.0,126.0,128.0,125.0,125.0,-1.0,105.0,-90.0,127.0,127.0,127.0,-112.0,-82.0,108.0
125.0,127.0,127.0,127.0,126.0,128.0,126.0,125.0,-1.0,105.0,-90.0,127.0,127.0,127.0,-112.0,-82.0,108.0
124.0,126.0,128.0,128.0,127.0,128.0,124.0,122.0,-1.0,106.0,-90.0,127.0,127.0,127.0,-112.0,-82.0,108.0
124.0,126.0,128.0,128.0,127.0,128.0,124.0,122.0,-1.0,106.0,-90.0,127.0,127.0,127.0,-112.0,-82.0,108.0
124.0,126.0,128.0,128.0,127.0,128.0,124.0,122.0,-1.0,106.0,-90.0,127.0,127.0,127.0,-112.0,-82.0,108.0
124.0,126.0,128.0,128.0,127.0,128.0,124.0,122.0,-1.0,106.0,-90.0,127.0,127.0,127.0,-112.0,-82.0,108.0
124.0,126.0,128.0,128.0,127.0,129.0,124.0,122.0,-1.0,106.0,-90.0,127.0,127.0,127.0,-112.0,-82.0,108.0
124.0,126.0,128.0,128.0,127.0,129.0,124.0,122.0,-1.0,106.0,-90.0,127.0,127.0,127.0,-112.0,-82.0,108.0
124.0,126.0,128.0,128.0,127.0,129.0,124.0,122.0,-1.0,106.0,-90.0,127.0,127.0,127.0,-112.0,-82.0,108.0
124.0,126.0,128.0,128.0,127.0,129.0,125.0,122.0,-1.0,106.0,-90.0,127.0,127.0,127.0,-112.0,-82.0,108.0
124.0,126.0,128.0,128.0,127.0,129.0,124.0,122.0,-1.0,106.0,-90.0,127.0,127.0,127.0,-112.0,-82.0,108.0
124.0,126.0,128.0,128.0,127.0,129.0,124.0,122.0,-1.0,106.0,-90.0,127.0,127.0,127.0,-112.0,-82.0,108.0
124.0,125.0,128.0,127.0,127.0,128.0,128.0,125.0,-1.0,106.0,-89.0,127.0,127.0,127.0,-112.0,-82.0,108.0
125.0,125.0,128.0,127.0,127.0,128.0,128.0,125.0,-1.0,106.0,-89.0,127.0,127.0,127.0,-112.0,-82.0,108.0
125.0,126.0,128.0,127.0,127.0,128.0,128.0,125.0,-1.0,106.0,-89.0,127.0,127.0,127.0,-112.0,-82.0,108.0
125.0,126.0,128.0,127.0,126.0,128.0,128.0,125.0,-1.0,106.0,-89.0,127.0,127.0,127.0,-112.0,-82.0,108.0
125.0,126.0,128.0,127.0,126.0,128.0,128.0,125.0,-1.0,106.0,-89.0,127.0,127.0,127.0,-112.0,-82.0,108.0
125.0,126.0,128.0,127.0,126.0,127.0,128.0,125.0,-1.0,106.0,-89.0,127.0,127.0,127.0,-112.0,-82.0,108.0
124.0,125.0,129.0,127.0,127.0,129.0,128.0,125.0,-1.0,106.0,-89.0,127.0,127.0,127.0,-112.0,-82.0,108.0
124.0,125.0,128.0,127.0,127.0,129.0,128.0,125.0,-1.0,106.0,-89.0,127.0,127.0,127.0,-112.0,-82.0,108.0
124.0,126.0,128.0,127.0,127.0,129.0,128.0,125.0,-1.0,106.0,-89.0,127.0,127.0,127.0,-112.0,-82.0,108.0
124.0,126.0,128.0,127.0,127.0,128.0,128.0,125.0,-1.0,106.0,-89.0,127.0,127.0,127.0,-112.0,-82.0,108.0
126.0,126.0,128.0,127.0,127.0,133.0,128.0,125.0,-1.0,106.0,-89.0,-128.0,127.0,127.0,-112.0,-82.0,108.0
126.0,126.0,128.0,127.0,127.0,133.0,128.0,125.0,-1.0,106.0,-89.0,-128.0,127.0,127.0,-112.0,-82.0,108.0
126.0,126.0,128.0,127.0,127.0,134.0,128.0,125.0,-1.0,106.0,-89.0,-128.0,127.0,127.0,-112.0,-82.0,108.0
126.0,126.0,128.0,127.0,127.0,134.0,128.0,125.0,-1.0,106.0,-89.0,-128.0,127.0,127.0,-112.0,-82.0,108.0
126.0,126.0,128.0,127.0,127.0,133.0,127.0,125.0,-1.0,106.0,-89.0,-128.0,127.0,127.0,-112.0,-82.0,108.0
125.0,125.0,128.0,127.0,127.0,131.0,128.0,125.0,-1.0,106.0,-89.0,-128.0,127.0,127.0,-112.0,-82.0,108.0
126.0,126.0,128.0,127.0,127.0,132.0,128.0,125.0,-1.0,106.0,-89.0,-128.0,127.0,127.0,-112.0,-82.0,108.0
126.0,126.0,128.0,127.0,127.0,132.0,128.0,125.0,-1.0,106.0,-89.0,-128.0,127.0,127.0,-112.0,-82.0,108.0
126.0,126.0,128.0,127.0,127.0,133.0,128.0,125.0,-1.0,106.0,-89.0,-128.0,127.0,127.0,-112.0,-82.0,108.0
126.0,126.0,128.0,127.0,127.0,133.0,128.0,125.0,-1.0,106.0,-89.0,-128.0,127.0,127.0,-112.0,-82.0,108.0
125.0,126.0,127.0,126.0,126.0,128.0,127.0,123.0,-1.0,106.0,-89.0,-128.0,127.0,127.0,-112.0,-82.0,108.0
125.0,126.0,127.0,126.0,126.0,128.0,127.0,123.0,-1.0,106.0,-89.0,-128.0,127.0,127.0,-112.0,-82.0,108.0
125.0,126.0,127.0,126.0,126.0,128.0,127.0,123.0,-1.0,106.0,-89.0,-128.0,127.0,127.0,-112.0,-82.0,108.0
125.0,126.0,127.0,126.0,126.0,128.0,127.0,124.0,-1.0,106.0,-89.0,-128.0,127.0,127.0,-112.0,-82.0,108.0
125.0,125.0,127.0,125.0,126.0,127.0,127.0,123.0,-1.0,106.0,-89.0,-128.0,127.0,127.0,-112.0,-82.0,108.0
125.0,126.0,127.0,125.0,126.0,128.0,127.0,123.0,-1.0,106.0,-89.0,-128.0,127.0,127.0,-112.0,-82.0,108.0
125.0,125.0,127.0,125.0,126.0,128.0,127.0,124.0,-1.0,106.0,-89.0,-128.0,127.0,127.0,-112.0,-82.0,108.0
125.0,126.0,127.0,125.0,126.0,128.0,127.0,123.0,-1.0,106.0,-89.0,-128.0,127.0,127.0,-112.0,-82.0,108.0
125.0,126.0,127.0,125.0,126.0,128.0,127.0,123.0,-1.0,106.0,-89.0,-128.0,127.0,127.0,-112.0,-82.0,108.0
125.0,126.0,127.0,125.0,126.0,128.0,127.0,123.0,-1.0,106.0,-89.0,-128.0,127.0,127.0,-112.0,-82.0,108.0
125.0,126.0,126.0,126.0,127.0,129.0,126.0,126.0,-1.0,106.0,-88.0,-128.0,127.0,127.0,-112.0,-82.0,108.0
125.0,126.0,126.0,126.0,126.0,129.0,126.0,126.0,-1.0,106.0,-88.0,-128.0,127.0,127.0,-112.0,-82.0,108.0
125.0,127.0,126.0,126.0,126.0,128.0,125.0,126.0,-1.0,106.0,-88.0,-128.0,127.0,127.0,-112.0,-82.0,108.0
125.0,126.0,127.0,127.0,128.0,135.0,128.0,126.0,-1.0,106.0,-88.0,-128.0,127.0,127.0,-112.0,-82.0,108.0
125.0,126.0,127.0,126.0,128.0,134.0,127.0,126.0,-1.0,106.0,-88.0,-128.0,127.0,127.0,-112.0,-82.0,108.0
125.0,126.0,127.0,126.0,128.0,133.0,127.0,126.0,-1.0,106.0,-88.0,-128.0,127.0,127.0,-112.0,-82.0,108.0
125.0,126.0,127.0,126.0,128.0,132.0,127.0,126.0,-1.0,106.0,-88.0,-128.0,127.0,127.0,-112.0,-82.0,108.0
125.0,126.0,126.0,126.0,127.0,131.0,126.0,126.0,-1.0,106.0,-88.0,-128.0,127.0,127.0,-112.0,-82.0,108.0
125.0,126.0,126.0,126.0,127.0,131.0,126.0,126.0,-1.0,106.0,-88.0,-128.0,127.0,127.0,-112.0,-82.0,108.0
125.0,126.0,126.0,126.0,127.0,130.0,126.0,126.0,-1.0,106.0,-88.0,-128.0,127.0,127.0,-112.0,-82.0,108.0
124.0,127.0,126.0,125.0,127.0,130.0,124.0,126.0,-1.0,107.0,-88.0,-128.0,127.0,127.0,-112.0,-82.0,108.0
124.0,128.0,126.0,125.0,127.0,130.0,124.0,126.0,-1.0,107.0,-88.0,-128.0,127.0,127.0,-112.0,-82.0,108.0
124.0,126.0,126.0,125.0,126.0,132.0,122.0,126.0,-1.0,107.0,-88.0,-128.0,127.0,127.0,-112.0,-82.0,108.0
124.0,126.0,126.0,125.0,126.0,131.0,123.0,126.0,-1.0,107.0,-88.0,-128.0,127.0,127.0,-112.0,-82.0,108.0
124.0,126.0,126.0,125.0,127.0,131.0,123.0,126.0,-1.0,107.0,-88.0,-128.0,127.0,127.0,-112.0,-82.0,108.0
124.0,126.0,126.0,125.0,127.0,131.0,123.0,126.0,-1.0,107.0,-88.0,-128.0,127.0,127.0,-112.0,-82.0,108.0
124.0,127.0,126.0,125.0,126.0,131.0,123.0,126.0,-1.0,107.0,-88.0,-128.0,127.0,127.0,-112.0,-82.0,108.0
124.0,127.0,126.0,125.0,126.0,131.0,123.0,126.0,-1.0,107.0,-88.0,-128.0,127.0,127.0,-112.0,-82.0,108.0
124.0,127.0,126.0,125.0,126.0,131.0,123.0,126.0,-1.0,107.0,-88.0,-128.0,127.0,127.0,-112.0,-82.0,108.0
124.0,127.0,126.0,125.0,126.0,131.0,124.0,126.0,-1.0,107.0,-88.0,-128.0,127.0,127.0,-112.0,-82.0,108.0
124.0,128.0,126.0,124.0,127.0,129.0,127.0,128.0,-1.0,107.0,-88.0,-128.0,127.0,127.0,-112.0,-82.0,108.0
124.0,127.0,126.0,124.0,127.0,132.0,127.0,128.0,-1.0,107.0,-88.0,-128.0,127.0,127.0,-112.0,-82.0,108.0
124.0,127.0,126.0,124.0,127.0,132.0,127.0,127.0,-1.0,107.0,-88.0,-128.0,127.0,127.0,-112.0,-82.0,108.0
124.0,127.0,126.0,124.0,127.0,132.0,127.0,128.0,-1.0,107.0,-88.0,-128.0,127.0,127.0,-112.0,-82.0,108.0
124.0,127.0,126.0,124.0,127.0,131.0,127.0,128.0,-1.0,107.0,-88.0,-128.0,127.0,127.0,-112.0,-82.0,108.0
124.0,127.0,126.0,124.0,127.0,131.0,127.0,127.0,-1.0,107.0,-88.0,-128.0,127.0,127.0,-112.0,-82.0,108.0
124.0,127.0,126.0,124.0,126.0,131.0,126.0,128.0,-1.0,107.0,-88.0,-128.0,127.0,127.0,-112.0,-82.0,108.0
124.0,128.0,126.0,124.0,127.0,130.0,126.0,128.0,-1.0,107.0,-88.0,-128.0,127.0,127.0,-112.0,-82.0,108.0
124.0,128.0,126.0,124.0,127.0,130.0,127.0,128.0,-1.0,107.0,-88.0,-128.0,127.0,127.0,-112.0,-82.0,108.0
124.0,128.0,126.0,124.0,127.0,129.0,127.0,128.0,-1.0,107.0,-88.0,-128.0,127.0,127.0,-112.0,-82.0,108.0
124.0,129.0,126.0,125.0,127.0,131.0,125.0,130.0,-1.0,108.0,-87.0,127.0,127.0,127.0,-112.0,-82.0,108.0
124.0,129.0,126.0,124.0,127.0,130.0,125.0,130.0,-1.0,108.0,-87.0,127.0,127.0,127.0,-112.0,-82.0,108.0
124.0,129.0,126.0,124.0,127.0,129.0,124.0,130.0,-1.0,108.0,-87.0,127.0,127.0,127.0,-112.0,-82.0,108.0
124.0,128.0,126.0,124.0,127.0,129.0,124.0,130.0,-1.0,108.0,-87.0,127.0,127.0,127.0,-112.0,-82.0,108.0
124.0,129.0,126.0,124.0,127.0,128.0,124.0,130.0,-1.0,108.0,-87.0,127.0,127.0,127.0,-112.0,-82.0,108.0
124.0,129.0,126.0,124.0,126.0,128.0,124.0,130.0,-1.0,108.0,-87.0,127.0,127.0,127.0,-112.0,-82.0,108.0
124.0,129.0,126.0,124.0,126.0,127.0,124.0,130.0,-1.0,108.0,-87.0,127.0,127.0,127.0,-112.0,-82.0,108.0
124.0,129.0,126.0,124.0,126.0,127.0,123.0,130.0,-1.0,108.0,-87.0,127.0,127.0,127.0,-112.0,-82.0,108.0
124.0,129.0,126.0,124.0,126.0,127.0,123.0,130.0,-1.0,108.0,-87.0,127.0,127.0,127.0,-112.0,-82.0,108.0
124.0,129.0,126.0,124.0,126.0,126.0,123.0,129.0,-1.0,108.0,-87.0,127.0,127.0,127.0,-112.0,-82.0,108.0
123.0,128.0,126.0,124.0,127.0,128.0,124.0,129.0,-1.0,109.0,-87.0,127.0,127.0,127.0,-112.0,-82.0,108.0
123.0,128.0,126.0,124.0,127.0,127.0,124.0,129.0,-1.0,109.0,-87.0,127.0,127.0,127.0,-112.0,-82.0,108.0
123.0,128.0,126.0,124.0,127.0,127.0,124.0,129.0,-1.0,109.0,-87.0,127.0,127.0,127.0,-112.0,-82.0,108.0
123.0,128.0,126.0,124.0,127.0,127.0,124.0,129.0,-1.0,109.0,-87.0,127.0,127.0,127.0,-112.0,-82.0,108.0
123.0,128.0,126.0,124.0,127.0,127.0,124.0,129.0,-1.0,109.0,-87.0,127.0,127.0,127.0,-112.0,-82.0,108.0
123.0,128.0,126.0,124.0,127.0,128.0,124.0,130.0,-1.0,109.0,-87.0,127.0,127.0,127.0,-112.0,-82.0,108.0
123.0,128.0,126.0,124.0,127.0,128.0,124.0,130.0,-1.0,109.0,-87.0,127.0,127.0,127.0,-112.0,-82.0,108.0
123.0,128.0,126.0,124.0,128.0,128.0,125.0,130.0,-1.0,109.0,-87.0,127.0,127.0,127.0,-112.0,-82.0,108.0
123.0,128.0,126.0,124.0,128.0,128.0,125.0,130.0,-1.0,109.0,-87.0,127.0,127.0,127.0,-112.0,-82.0,108.0
123.0,128.0,126.0,124.0,127.0,128.0,124.0,129.0,-1.0,109.0,-87.0,127.0,127.0,127.0,-112.0,-82.0,108.0
122.0,128.0,126.0,124.0,127.0,131.0,131.0,131.0,-1.0,109.0,-87.0,127.0,127.0,127.0,-112.0,-82.0,108.0
122.0,128.0,126.0,125.0,127.0,131.0,132.0,131.0,-1.0,109.0,-87.0,127.0,127.0,127.0,-112.0,-82.0,108.0
122.0,128.0,126.0,125.0,127.0,130.0,132.0,131.0,-1.0,109.0,-87.0,127.0,127.0,127.0,-112.0,-82.0,108.0
122.0,128.0,126.0,125.0,127.0,130.0,132.0,131.0,-1.0,109.0,-87.0,127.0,127.0,127.0,-112.0,-82.0,108.0
122.0,128.0,125.0,125.0,127.0,130.0,132.0,131.0,-1.0,109.0,-87.0,127.0,127.0,127.0,-112.0,-82.0,108.0
122.0,128.0,126.0,125.0,127.0,130.0,133.0,131.0,-1.0,109.0,-87.0,127.0,127.0,127.0,-112.0,-82.0,108.0
122.0,128.0,126.0,125.0,127.0,130.0,133.0,131.0,-1.0,109.0,-87.0,127.0,127.0,127.0,-112.0,-82.0,108.0
122.0,128.0,126.0,125.0,127.0,129.0,134.0,131.0,-1.0,109.0,-87.0,127.0,127.0,127.0,-112.0,-82.0,108.0
122.0,128.0,126.0,124.0,127.0,132.0,131.0,131.0,-1.0,109.0,-87.0,127.0,127.0,127.0,-112.0,-82.0,108.0
122.0,128.0,126.0,124.0,127.0,132.0,131.0,131.0,-1.0,109.0,-87.0,127.0,127.0,127.0,-112.0,-82.0,108.0
123.0,128.0,127.0,126.0,128.0,130.0,147.0,131.0,-1.0,109.0,-87.0,127.0,127.0,127.0,-112.0,-82.0,108.0
123.0,128.0,127.0,126.0,128.0,130.0,147.0,131.0,-1.0,109.0,-87.0,127.0,127.0,127.0,-112.0,-82.0,108.0
124.0,128.0,127.0,126.0,127.0,131.0,147.0,131.0,-1.0,109.0,-87.0,127.0,127.0,127.0,-112.0,-82.0,108.0
124.0,129.0,126.0,126.0,127.0,131.0,147.0,131.0,-1.0,109.0,-87.0,127.0,127.0,127.0,-112.0,-82.0,108.0
124.0,129.0,126.0,126.0,127.0,131.0,147.0,131.0,-1.0,109.0,-87.0,127.0,127.0,127.0,-112.0,-82.0,108.0
124.0,129.0,127.0,126.0,127.0,130.0,147.0,131.0,-1.0,109.0,-87.0,127.0,127.0,127.0,-112.0,-82.0,108.0
124.0,129.0,127.0,126.0,127.0,130.0,148.0,131.0,-1.0,109.0,-87.0,127.0,127.0,127.0,-112.0,-82.0,108.0
123.0,128.0,127.0,126.0,127.0,131.0,147.0,132.0,-1.0,109.0,-87.0,127.0,127.0,127.0,-112.0,-82.0,108.0
123.0,128.0,127.0,126.0,127.0,131.0,147.0,131.0,-1.0,109.0,-87.0,127.0,127.0,127.0,-112.0,-82.0,108.0
123.0,128.0,127.0,126.0,128.0,131.0,147.0,131.0,-1.0,109.0,-87.0,127.0,127.0,127.0,-112.0,-82.0,108.0
125.0,129.0,128.0,127.0,128.0,132.0,140.0,131.0,-1.0,109.0,-86.0,127.0,127.0,127.0,-112.0,-82.0,108.0
125.0,129.0,128.0,127.0,128.0,133.0,140.0,131.0,-1.0,109.0,-86.0,127.0,127.0,127.0,-112.0,-82.0,108.0
125.0,129.0,128.0,127.0,128.0,133.0,140.0,131.0,-1.0,109.0,-86.0,127.0,127.0,127.0,-112.0,-82.0,108.0
125.0,129.0,128.0,127.0,128.0,133.0,139.0,131.0,-1.0,109.0,-86.0,127.0,127.0,127.0,-112.0,-82.0,108.0
125.0,129.0,128.0,127.0,128.0,133.0,139.0,131.0,-1.0,109.0,-86.0,127.0,127.0,127.0,-112.0,-82.0,108.0
125.0,130.0,128.0,128.0,128.0,134.0,139.0,131.0,-1.0,109.0,-86.0,127.0,127.0,127.0,-112.0,-82.0,108.0
125.0,129.0,128.0,127.0,128.0,132.0,141.0,131.0,-1.0,109.0,-86.0,127.0,127.0,127.0,-112.0,-82.0,108.0
125.0,129.0,128.0,127.0,128.0,132.0,140.0,131.0,-1.0,109.0,-86.0,127.0,127.0,127.0,-112.0,-82.0,108.0
125.0,129.0,128.0,127.0,128.0,132.0,140.0,131.0,-1.0,109.0,-86.0,127.0,127.0,127.0,-112.0,-82.0,108.0
125.0,129.0,128.0,127.0,128.0,132.0,140.0,131.0,-1.0,109.0,-86.0,127.0,127.0,127.0,-112.0,-82.0,108.0
126.0,132.0,129.0,127.0,128.0,134.0,128.0,132.0,-1.0,108.0,-86.0,127.0,127.0,127.0,-112.0,-82.0,108.0
126.0,132.0,129.0,127.0,128.0,134.0,128.0,132.0,-1.0,108.0,-86.0,127.0,127.0,127.0,-112.0,-82.0,108.0
126.0,132.0,129.0,127.0,128.0,134.0,128.0,132.0,-1.0,108.0,-86.0,127.0,127.0,127.0,-112.0,-82.0,108.0
126.0,132.0,129.0,127.0,128.0,134.0,128.0,132.0,-1.0,108.0,-86.0,127.0,127.0,127.0,-112.0,-82.0,108.0
126.0,132.0,129.0,127.0,128.0,134.0,128.0,132.0,-1.0,108.0,-86.0,127.0,127.0,127.0,-112.0,-82.0,108.0
126.0,131.0,129.0,127.0,128.0,133.0,129.0,131.0,-1.0,108.0,-86.0,127.0,127.0,127.0,-112.0,-82.0,108.0
126.0,131.0,129.0,127.0,128.0,134.0,129.0,131.0,-1.0,108.0,-86.0,127.0,127.0,127.0,-112.0,-82.0,108.0
126.0,131.0,129.0,127.0,128.0,134.0,129.0,132.0,-1.0,108.0,-86.0,127.0,127.0,127.0,-112.0,-82.0,108.0
126.0,132.0,129.0,127.0,128.0,134.0,128.0,132.0,-1.0,108.0,-86.0,127.0,127.0,127.0,-112.0,-82.0,108.0
126.0,132.0,129.0,127.0,128.0,134.0,128.0,132.0,-1.0,108.0,-86.0,127.0,127.0,127.0,-112.0,-82.0,108.0
127.0,133.0,128.0,125.0,127.0,136.0,126.0,134.0,-1.0,109.0,-86.0,127.0,127.0,127.0,-112.0,-82.0,108.0
127.0,132.0,128.0,125.0,128.0,136.0,126.0,134.0,-1.0,109.0,-86.0,127.0,127.0,127.0,-112.0,-82.0,108.0
127.0,132.0,128.0,125.0,128.0,136.0,126.0,133.0,-1.0,109.0,-86.0,127.0,127.0,127.0,-112.0,-82.0,108.0
127.0,132.0,128.0,125.0,128.0,136.0,127.0,133.0,-1.0,109.0,-86.0,127.0,127.0,127.0,-112.0,-82.0,108.0
127.0,132.0,129.0,125.0,128.0,135.0,126.0,134.0,-1.0,109.0,-86.0,127.0,127.0,127.0,-112.0,-82.0,108.0
127.0,132.0,129.0,125.0,128.0,135.0,126.0,134.0,-1.0,109.0,-86.0,127.0,127.0,127.0,-112.0,-82.0,108.0
127.0,132.0,129.0,125.0,127.0,135.0,126.0,134.0,-1.0,109.0,-86.0,127.0,127.0,127.0,-112.0,-82.0,108.0
127.0,132.0,128.0,125.0,127.0,136.0,126.0,134.0,-1.0,109.0,-86.0,127.0,127.0,127.0,-112.0,-82.0,108.0
127.0,132.0,128.0,125.0,127.0,136.0,126.0,134.0,-1.0,109.0,-86.0,127.0,127.0,127.0,-112.0,-82.0,108.0
127.0,132.0,128.0,125.0,127.0,136.0,126.0,134.0,-1.0,109.0,-86.0,127.0,127.0,127.0,-112.0,-82.0,108.0
127.0,132.0,127.0,124.0,127.0,135.0,127.0,132.0,-1.0,110.0,-86.0,127.0,127.0,127.0,-112.0,-82.0,108.0
127.0,132.0,127.0,124.0,127.0,135.0,127.0,132.0,-1.0,110.0,-86.0,127.0,127.0,127.0,-112.0,-82.0,108.0
127.0,132.0,127.0,124.0,128.0,135.0,127.0,132.0,-1.0,110.0,-86.0,127.0,127.0,127.0,-112.0,-82.0,108.0
127.0,132.0,128.0,124.0,128.0,134.0,127.0,132.0,-1.0,110.0,-86.0,127.0,127.0,127.0,-112.0,-82.0,108.0
127.0,132.0,128.0,124.0,128.0,134.0,127.0,132.0,-1.0,110.0,-86.0,127.0,127.0,127.0,-112.0,-82.0,108.0
127.0,132.0,128.0,124.0,128.0,134.0,127.0,132.0,-1.0,110.0,-86.0,127.0,127.0,127.0,-112.0,-82.0,108.0
127.0,132.0,127.0,124.0,127.0,135.0,127.0,132.0,-1.0,110.0,-86.0,127.0,127.0,127.0,-112.0,-82.0,108.0
127.0,132.0,127.0,124.0,127.0,135.0,127.0,132.0,-1.0,110.0,-86.0,127.0,127.0,127.0,-112.0,-82.0,108.0
127.0,132.0,127.0,124.0,128.0,135.0,127.0,132.0,-1.0,110.0,-86.0,127.0,127.0,127.0,-112.0,-82.0,108.0
127.0,132.0,127.0,124.0,128.0,135.0,127.0,132.0,-1.0,110.0,-86.0,127.0,127.0,127.0,-112.0,-82.0,108.0
127.0,131.0,127.0,124.0,128.0,135.0,133.0,132.0,-1.0,111.0,-87.0,127.0,127.0,127.0,-112.0,-82.0,108.0
127.0,131.0,127.0,124.0,128.0,135.0,133.0,132.0,-1.0,111.0,-87.0,127.0,127.0,127.0,-112.0,-82.0,108.0
127.0,131.0,127.0,124.0,128.0,134.0,132.0,132.0,-1.0,111.0,-87.0,127.0,127.0,127.0,-112.0,-82.0,108.0
127.0,131.0,127.0,124.0,128.0,134.0,132.0,132.0,-1.0,111.0,-87.0,127.0,127.0,127.0,-112.0,-82.0,108.0
127.0,131.0,127.0,124.0,128.0,134.0,132.0,132.0,-1.0,111.0,-87.0,127.0,127.0,127.0,-112.0,-82.0,108.0
127.0,131.0,127.0,124.0,127.0,134.0,132.0,132.0,-1.0,111.0,-87.0,127.0,127.0,127.0,-112.0,-82.0,108.0
127.0,131.0,127.0,124.0,127.0,135.0,132.0,132.0,-1.0,111.0,-87.0,127.0,127.0,127.0,-112.0,-82.0,108.0
127.0,131.0,127.0,124.0,127.0,135.0,132.0,132.0,-1.0,111.0,-87.0,127.0,127.0,127.0,-112.0,-82.0,108.0
127.0,131.0,127.0,124.0,127.0,135.0,133.0,132.0,-1.0,111.0,-87.0,127.0,127.0,127.0,-112.0,-82.0,108.0
127.0,131.0,127.0,124.0,128.0,135.0,133.0,132.0,-1.0,111.0,-87.0,127.0,127.0,127.0,-112.0,-82.0,108.0
127.0,131.0,127.0,125.0,127.0,135.0,137.0,131.0,-1.0,112.0,-88.0,127.0,127.0,127.0,-112.0,-82.0,108.0
127.0,131.0,127.0,124.0,127.0,135.0,137.0,131.0,-1.0,112.0,-88.0,127.0,127.0,127.0,-112.0,-82.0,108.0
127.0,131.0,127.0,124.0,128.0,135.0,137.0,131.0,-1.0,112.0,-88.0,127.0,127.0,127.0,-112.0,-82.0,108.0
127.0,131.0,127.0,124.0,128.0,135.0,137.0,131.0,-1.0,112.0,-88.0,127.0,127.0,127.0,-112.0,-82.0,108.0
127.0,131.0,127.0,124.0,127.0,135.0,137.0,131.0,-1.0,112.0,-88.0,127.0,127.0,127.0,-112.0,-82.0,108.0
127.0,131.0,127.0,124.0,127.0,135.0,137.0,131.0,-1.0,112.0,-88.0,127.0,127.0,127.0,-112.0,-82.0,108.0
127.0,131.0,127.0,124.0,127.0,135.0,137.0,131.0,-1.0,112.0,-88.0,127.0,127.0,127.0,-112.0,-82.0,108.0
127.0,131.0,127.0,125.0,127.0,135.0,137.0,131.0,-1.0,112.0,-88.0,127.0,127.0,127.0,-112.0,-82.0,108.0
127.0,131.0,127.0,124.0,127.0,135.0,137.0,131.0,-1.0,112.0,-88.0,127.0,127.0,127.0,-112.0,-82.0,108.0
127.0,131.0,127.0,124.0,127.0,135.0,137.0,131.0,-1.0,112.0,-88.0,127.0,127.0,127.0,-112.0,-82.0,108.0
127.0,131.0,127.0,125.0,128.0,136.0,134.0,131.0,-1.0,113.0,-88.0,127.0,127.0,127.0,-113.0,-82.0,108.0
127.0,131.0,127.0,125.0,127.0,136.0,133.0,131.0,-1.0,113.0,-88.0,127.0,127.0,127.0,-113.0,-82.0,108.0
127.0,131.0,127.0,125.0,127.0,135.0,133.0,131.0,-1.0,113.0,-88.0,127.0,127.0,127.0,-113.0,-82.0,108.0
127.0,131.0,127.0,125.0,127.0,135.0,132.0,131.0,-1.0,113.0,-88.0,127.0,127.0,127.0,-113.0,-82.0,108.0
127.0,131.0,127.0,125.0,127.0,135.0,132.0,131.0,-1.0,113.0,-88.0,127.0,127.0,127.0,-113.0,-82.0,108.0
127.0,131.0,127.0,125.0,127.0,134.0,132.0,131.0,-1.0,113.0,-88.0,127.0,127.0,127.0,-113.0,-82.0,108.0
127.0,131.0,127.0,125.0,127.0,133.0,131.0,131.0,-1.0,113.0,-88.0,127.0,127.0,127.0,-113.0,-82.0,108.0
127.0,131.0,127.0,125.0,127.0,133.0,131.0,131.0,-1.0,113.0,-88.0,127.0,127.0,127.0,-113.0,-82.0,108.0
127.0,131.0,127.0,125.0,127.0,132.0,131.0,131.0,-1.0,113.0,-88.0,127.0,127.0,127.0,-113.0,-82.0,108.0
127.0,131.0,127.0,125.0,127.0,132.0,131.0,131.0,-1.0,113.0,-88.0,127.0,127.0,127.0,-113.0,-82.0,108.0
127.0,131.0,127.0,125.0,127.0,134.0,127.0,131.0,-1.0,113.0,-88.0,127.0,127.0,127.0,-113.0,-82.0,108.0
127.0,131.0,127.0,125.0,127.0,134.0,127.0,131.0,-1.0,113.0,-88.0,127.0,127.0,127.0,-113.0,-82.0,108.0
127.0,131.0,127.0,125.0,126.0,134.0,127.0,131.0,-1.0,113.0,-88.0,127.0,127.0,127.0,-113.0,-82.0,108.0
127.0,131.0,127.0,125.0,126.0,135.0,126.0,131.0,-1.0,113.0,-88.0,127.0,127.0,127.0,-113.0,-82.0,108.0
127.0,131.0,127.0,125.0,126.0,135.0,126.0,131.0,-1.0,113.0,-88.0,127.0,127.0,127.0,-113.0,-82.0,108.0
127.0,131.0,127.0,125.0,126.0,135.0,126.0,131.0,-1.0,113.0,-88.0,127.0,127.0,127.0,-113.0,-82.0,108.0
127.0,131.0,127.0,125.0,126.0,135.0,126.0,131.0,-1.0,113.0,-88.0,127.0,127.0,127.0,-113.0,-82.0,108.0
127.0,131.0,127.0,125.0,126.0,135.0,126.0,131.0,-1.0,113.0,-88.0,127.0,127.0,127.0,-113.0,-82.0,108.0
127.0,131.0,127.0,125.0,126.0,135.0,126.0,131.0,-1.0,113.0,-88.0,127.0,127.0,127.0,-113.0,-82.0,108.0
127.0,131.0,127.0,125.0,126.0,134.0,127.0,131.0,-1.0,113.0,-88.0,127.0,127.0,127.0,-113.0,-82.0,108.0
127.0,130.0,127.0,125.0,126.0,132.0,125.0,131.0,-1.0,113.0,-88.0,127.0,127.0,127.0,-113.0,-82.0,108.0
127.0,130.0,127.0,125.0,126.0,133.0,125.0,131.0,-1.0,113.0,-88.0,127.0,127.0,127.0,-113.0,-82.0,108.0
127.0,130.0,127.0,125.0,126.0,133.0,125.0,131.0,-1.0,113.0,-88.0,127.0,127.0,127.0,-113.0,-82.0,108.0
127.0,131.0,127.0,125.0,126.0,133.0,125.0,131.0,-1.0,113.0,-88.0,127.0,127.0,127.0,-113.0,-82.0,108.0
127.0,131.0,127.0,125.0,126.0,133.0,125.0,131.0,-1.0,113.0,-88.0,127.0,127.0,127.0,-113.0,-82.0,108.0
127.0,131.0,127.0,125.0,126.0,133.0,125.0,131.0,-1.0,113.0,-88.0,127.0,127.0,127.0,-113.0,-82.0,108.0
127.0,131.0,127.0,125.0,126.0,133.0,125.0,131.0,-1.0,113.0,-88.0,127.0,127.0,127.0,-113.0,-82.0,108.0
126.0,131.0,127.0,125.0,126.0,133.0,125.0,131.0,-1.0,113.0,-88.0,127.0,127.0,127.0,-113.0,-82.0,108.0
127.0,130.0,127.0,125.0,126.0,132.0,125.0,131.0,-1.0,113.0,-88.0,127.0,127.0,127.0,-113.0,-82.0,108.0
127.0,130.0,127.0,125.0,127.0,132.0,125.0,131.0,-1.0,113.0,-88.0,127.0,127.0,127.0,-113.0,-82.0,108.0
126.0,130.0,127.0,125.0,126.0,132.0,124.0,131.0,-1.0,112.0,-88.0,127.0,127.0,127.0,-113.0,-82.0,108.0
126.0,130.0,127.0,125.0,126.0,132.0,124.0,131.0,-1.0,112.0,-88.0,127.0,127.0,127.0,-113.0,-82.0,108.0
127.0,130.0,127.0,125.0,126.0,132.0,124.0,131.0,-1.0,112.0,-88.0,127.0,127.0,127.0,-113.0,-82.0,108.0
127.0,130.0,127.0,125.0,126.0,132.0,124.0,131.0,-1.0,112.0,-88.0,127.0,127.0,127.0,-113.0,-82.0,108.0
127.0,130.0,127.0,125.0,126.0,132.0,124.0,131.0,-1.0,112.0,-88.0,127.0,127.0,127.0,-113.0,-82.0,108.0
127.0,130.0,127.0,125.0,126.0,132.0,124.0,131.0,-1.0,112.0,-88.0,127.0,127.0,127.0,-113.0,-82.0,108.0
127.0,130.0,127.0,125.0,126.0,132.0,124.0,131.0,-1.0,112.0,-88.0,127.0,127.0,127.0,-113.0,-82.0,108.0
126.0,130.0,127.0,125.0,126.0,132.0,124.0,131.0,-1.0,112.0,-88.0,127.0,127.0,127.0,-113.0,-82.0,108.0
126.0,130.0,127.0,125.0,126.0,132.0,124.0,131.0,-1.0,112.0,-88.0,127.0,127.0,127.0,-113.0,-82.0,108.0
126.0,130.0,127.0,125.0,126.0,132.0,124.0,131.0,-1.0,112.0,-88.0,127.0,127.0,127.0,-113.0,-82.0,108.0
126.0,130.0,127.0,125.0,126.0,132.0,122.0,131.0,-1.0,112.0,-87.0,127.0,127.0,127.0,-113.0,-82.0,108.0
126.0,130.0,127.0,125.0,126.0,132.0,122.0,131.0,-1.0,112.0,-87.0,127.0,127.0,127.0,-113.0,-82.0,108.0
126.0,130.0,127.0,125.0,126.0,132.0,122.0,131.0,-1.0,112.0,-87.0,127.0,127.0,127.0,-113.0,-82.0,108.0
126.0,130.0,127.0,125.0,125.0,132.0,122.0,131.0,-1.0,112.0,-87.0,127.0,127.0,127.0,-113.0,-82.0,108.0
127.0,130.0,127.0,125.0,125.0,132.0,122.0,131.0,-1.0,112.0,-87.0,127.0,127.0,127.0,-113.0,-82.0,108.0
127.0,130.0,127.0,125.0,125.0,132.0,122.0,131.0,-1.0,112.0,-87.0,127.0,127.0,127.0,-113.0,-82.0,108.0
126.0,130.0,127.0,125.0,126.0,133.0,123.0,131.0,-1.0,112.0,-87.0,127.0,127.0,127.0,-113.0,-82.0,108.0
126.0,130.0,127.0,125.0,126.0,132.0,123.0,131.0,-1.0,112.0,-87.0,127.0,127.0,127.0,-113.0,-82.0,108.0
126.0,130.0,127.0,125.0,126.0,132.0,123.0,131.0,-1.0,112.0,-87.0,127.0,127.0,127.0,-113.0,-82.0,108.0
126.0,130.0,127.0,125.0,126.0,132.0,123.0,131.0,-1.0,112.0,-87.0,127.0,127.0,127.0,-113.0,-82.0,108.0
127.0,130.0,127.0,125.0,126.0,133.0,123.0,130.0,-1.0,112.0,-86.0,127.0,127.0,127.0,-113.0,-82.0,108.0
127.0,130.0,127.0,125.0,126.0,133.0,123.0,130.0,-1.0,112.0,-86.0,127.0,127.0,127.0,-113.0,-82.0,108.0
127.0,130.0,127.0,125.0,126.0,133.0,123.0,129.0,-1.0,112.0,-86.0,127.0,127.0,127.0,-113.0,-82.0,108.0
127.0,130.0,127.0,125.0,126.0,132.0,123.0,129.0,-1.0,112.0,-86.0,127.0,127.0,127.0,-113.0,-82.0,108.0
127.0,130.0,127.0,125.0,126.0,132.0,123.0,129.0,-1.0,112.0,-86.0,127.0,127.0,127.0,-113.0,-82.0,108.0
127.0,130.0,127.0,125.0,126.0,133.0,123.0,129.0,-1.0,112.0,-86.0,127.0,127.0,127.0,-113.0,-82.0,108.0
127.0,130.0,127.0,125.0,126.0,133.0,123.0,129.0,-1.0,112.0,-86.0,127.0,127.0,127.0,-113.0,-82.0,108.0
127.0,130.0,127.0,125.0,126.0,133.0,123.0,129.0,-1.0,112.0,-86.0,127.0,127.0,127.0,-113.0,-82.0,108.0
127.0,130.0,127.0,125.0,126.0,133.0,123.0,129.0,-1.0,112.0,-86.0,127.0,127.0,127.0,-113.0,-82.0,108.0
127.0,130.0,127.0,125.0,126.0,133.0,123.0,129.0,-1.0,112.0,-86.0,127.0,127.0,127.0,-113.0,-82.0,108.0
127.0,130.0,127.0,126.0,126.0,132.0,123.0,129.0,-1.0,112.0,-86.0,127.0,127.0,127.0,-114.0,-82.0,108.0
127.0,129.0,127.0,126.0,126.0,132.0,123.0,129.0,-1.0,112.0,-86.0,127.0,127.0,127.0,-114.0,-82.0,108.0
127.0,129.0,127.0,126.0,126.0,132.0,123.0,129.0,-1.0,112.0,-86.0,127.0,127.0,127.0,-114.0,-82.0,108.0
127.0,129.0,127.0,126.0,126.0,132.0,123.0,129.0,-1.0,112.0,-86.0,127.0,127.0,127.0,-114.0,-82.0,108.0
127.0,129.0,127.0,126.0,126.0,133.0,124.0,129.0,-1.0,112.0,-86.0,127.0,127.0,127.0,-114.0,-82.0,108.0
127.0,129.0,127.0,126.0,126.0,133.0,124.0,129.0,-1.0,112.0,-86.0,127.0,127.0,127.0,-114.0,-82.0,108.0
127.0,129.0,127.0,126.0,126.0,132.0,124.0,129.0,-1.0,112.0,-86.0,127.0,127.0,127.0,-114.0,-82.0,108.0
127.0,129.0,127.0,126.0,126.0,132.0,124.0,129.0,-1.0,112.0,-86.0,127.0,127.0,127.0,-114.0,-82.0,108.0
127.0,129.0,127.0,125.0,126.0,132.0,124.0,129.0,-1.0,112.0,-86.0,127.0,127.0,127.0,-114.0,-82.0,108.0
127.0,129.0,127.0,126.0,126.0,132.0,123.0,129.0,-1.0,112.0,-86.0,127.0,127.0,127.0,-114.0,-82.0,108.0
127.0,129.0,127.0,126.0,126.0,132.0,122.0,130.0,-1.0,111.0,-86.0,127.0,127.0,127.0,-114.0,-82.0,108.0
127.0,129.0,127.0,126.0,126.0,132.0,122.0,130.0,-1.0,111.0,-86.0,127.0,127.0,127.0,-114.0,-82.0,108.0
127.0,129.0,127.0,126.0,126.0,132.0,122.0,129.0,-1.0,111.0,-86.0,127.0,127.0,127.0,-114.0,-82.0,108.0
126.0,129.0,127.0,126.0,126.0,132.0,122.0,129.0,-1.0,111.0,-86.0,127.0,127.0,127.0,-114.0,-82.0,108.0
126.0,129.0,127.0,126.0,126.0,132.0,122.0,129.0,-1.0,111.0,-86.0,127.0,127.0,127.0,-114.0,-82.0,108.0
126.0,129.0,127.0,125.0,126.0,132.0,122.0,129.0,-1.0,111.0,-86.0,127.0,127.0,127.0,-114.0,-82.0,108.0
126.0,129.0,127.0,125.0,126.0,132.0,122.0,129.0,-1.0,111.0,-86.0,127.0,127.0,127.0,-114.0,-82.0,108.0
126.0,129.0,127.0,125.0,126.0,132.0,122.0,129.0,-1.0,111.0,-86.0,127.0,127.0,127.0,-114.0,-82.0,108.0
126.0,129.0,127.0,126.0,126.0,132.0,121.0,129.0,-1.0,111.0,-86.0,127.0,127.0,127.0,-114.0,-82.0,108.0
126.0,129.0,127.0,126.0,126.0,132.0,122.0,130.0,-1.0,111.0,-86.0,127.0,127.0,127.0,-114.0,-82.0,108.0
127.0,129.0,127.0,126.0,126.0,132.0,122.0,130.0,-1.0,111.0,-86.0,127.0,127.0,127.0,-114.0,-82.0,108.0
127.0,129.0,127.0,126.0,126.0,132.0,122.0,130.0,-1.0,111.0,-86.0,127.0,127.0,127.0,-114.0,-82.0,108.0
127.0,129.0,127.0,126.0,126.0,132.0,123.0,130.0,-1.0,111.0,-86.0,127.0,127.0,127.0,-114.0,-82.0,108.0
127.0,129.0,127.0,126.0,126.0,132.0,122.0,130.0,-1.0,111.0,-86.0,127.0,127.0,127.0,-114.0,-82.0,108.0
127.0,129.0,127.0,126.0,126.0,132.0,123.0,130.0,-1.0,111.0,-86.0,127.0,127.0,127.0,-114.0,-82.0,108.0
127.0,129.0,127.0,125.0,126.0,132.0,123.0,130.0,-1.0,111.0,-86.0,127.0,127.0,127.0,-114.0,-82.0,108.0
127.0,129.0,127.0,126.0,126.0,132.0,123.0,130.0,-1.0,111.0,-86.0,127.0,127.0,127.0,-114.0,-82.0,108.0
127.0,129.0,127.0,125.0,126.0,132.0,122.0,130.0,-1.0,111.0,-86.0,127.0,127.0,127.0,-114.0,-82.0,108.0
127.0,129.0,127.0,126.0,126.0,133.0,122.0,130.0,-1.0,111.0,-86.0,127.0,127.0,127.0,-114.0,-82.0,108.0
127.0,129.0,127.0,126.0,126.0,132.0,122.0,130.0,-1.0,111.0,-86.0,127.0,127.0,127.0,-114.0,-82.0,108.0
127.0,129.0,127.0,126.0,126.0,131.0,123.0,130.0,-1.0,111.0,-86.0,127.0,127.0,127.0,-114.0,-82.0,108.0
127.0,129.0,127.0,125.0,126.0,132.0,124.0,130.0,-1.0,111.0,-86.0,127.0,127.0,127.0,-114.0,-82.0,108.0
127.0,129.0,127.0,125.0,126.0,132.0,124.0,130.0,-1.0,111.0,-86.0,127.0,127.0,127.0,-114.0,-82.0,108.0
127.0,129.0,127.0,125.0,126.0,131.0,124.0,130.0,-1.0,111.0,-86.0,127.0,127.0,127.0,-114.0,-82.0,108.0
127.0,129.0,127.0,125.0,126.0,131.0,124.0,130.0,-1.0,111.0,-86.0,127.0,127.0,127.0,-114.0,-82.0,108.0
127.0,129.0,127.0,125.0,126.0,131.0,124.0,130.0,-1.0,111.0,-86.0,127.0,127.0,127.0,-114.0,-82.0,108.0
127.0,129.0,127.0,125.0,126.0,131.0,123.0,130.0,-1.0,111.0,-86.0,127.0,127.0,127.0,-114.0,-82.0,108.0
127.0,129.0,127.0,125.0,126.0,132.0,123.0,131.0,-1.0,111.0,-86.0,127.0,127.0,127.0,-114.0,-82.0,108.0
127.0,129.0,127.0,125.0,126.0,132.0,123.0,131.0,-1.0,111.0,-86.0,127.0,127.0,127.0,-114.0,-82.0,108.0
127.0,129.0,127.0,125.0,126.0,131.0,123.0,131.0,-1.0,111.0,-86.0,127.0,127.0,127.0,-114.0,-82.0,108.0
127.0,129.0,127.0,125.0,126.0,129.0,124.0,130.0,-1.0,110.0,-86.0,127.0,127.0,127.0,-114.0,-82.0,108.0
127.0,129.0,127.0,125.0,126.0,129.0,124.0,130.0,-1.0,110.0,-86.0,127.0,127.0,127.0,-114.0,-82.0,108.0
127.0,129.0,127.0,125.0,127.0,129.0,124.0,130.0,-1.0,110.0,-86.0,127.0,127.0,127.0,-114.0,-82.0,108.0
127.0,129.0,127.0,125.0,127.0,129.0,124.0,130.0,-1.0,110.0,-86.0,127.0,127.0,127.0,-114.0,-82.0,108.0
127.0,129.0,127.0,125.0,126.0,129.0,124.0,130.0,-1.0,110.0,-86.0,127.0,127.0,127.0,-114.0,-82.0,108.0
127.0,129.0,127.0,125.0,126.0,129.0,124.0,130.0,-1.0,110.0,-86.0,127.0,127.0,127.0,-114.0,-82.0,108.0
127.0,129.0,127.0,125.0,127.0,129.0,124.0,130.0,-1.0,110.0,-86.0,127.0,127.0,127.0,-114.0,-82.0,108.0
127.0,129.0,127.0,125.0,127.0,129.0,123.0,130.0,-1.0,110.0,-86.0,127.0,127.0,127.0,-114.0,-82.0,108.0
127.0,129.0,127.0,125.0,126.0,129.0,123.0,130.0,-1.0,110.0,-86.0,127.0,127.0,127.0,-114.0,-82.0,108.0
127.0,129.0,127.0,125.0,126.0,130.0,123.0,130.0,-1.0,110.0,-86.0,127.0,127.0,127.0,-114.0,-82.0,108.0
127.0,129.0,127.0,126.0,126.0,130.0,121.0,130.0,-1.0,110.0,-86.0,127.0,127.0,127.0,-114.0,-82.0,108.0
127.0,129.0,127.0,126.0,126.0,130.0,121.0,130.0,-1.0,110.0,-86.0,127.0,127.0,127.0,-114.0,-82.0,108.0
127.0,129.0,127.0,126.0,126.0,131.0,121.0,130.0,-1.0,110.0,-86.0,127.0,127.0,127.0,-114.0,-82.0,108.0
127.0,129.0,127.0,126.0,126.0,131.0,121.0,130.0,-1.0,110.0,-86.0,127.0,127.0,127.0,-114.0,-82.0,108.0
127.0,129.0,127.0,126.0,126.0,131.0,121.0,130.0,-1.0,110.0,-86.0,127.0,127.0,127.0,-114.0,-82.0,108.0
127.0,129.0,127.0,126.0,126.0,131.0,121.0,130.0,-1.0,110.0,-86.0,127.0,127.0,127.0,-114.0,-82.0,108.0
127.0,129.0,127.0,126.0,126.0,131.0,121.0,130.0,-1.0,110.0,-86.0,127.0,127.0,127.0,-114.0,-82.0,108.0
127.0,129.0,127.0,126.0,126.0,130.0,121.0,130.0,-1.0,110.0,-86.0,127.0,127.0,127.0,-114.0,-82.0,108.0
127.0,129.0,127.0,126.0,126.0,130.0,121.0,130.0,-1.0,110.0,-86.0,127.0,127.0,127.0,-114.0,-82.0,108.0
127.0,129.0,127.0,126.0,126.0,130.0,121.0,130.0,-1.0,110.0,-86.0,127.0,127.0,127.0,-114.0,-82.0,108.0
127.0,129.0,127.0,126.0,126.0,130.0,122.0,130.0,-1.0,110.0,-86.0,127.0,127.0,127.0,-114.0,-82.0,108.0
127.0,129.0,127.0,126.0,126.0,131.0,122.0,130.0,-1.0,110.0,-86.0,127.0,127.0,127.0,-114.0,-82.0,108.0
127.0,129.0,127.0,126.0,126.0,131.0,122.0,130.0,-1.0,110.0,-86.0,127.0,127.0,127.0,-114.0,-82.0,108.0
127.0,129.0,127.0,126.0,126.0,131.0,122.0,130.0,-1.0,110.0,-86.0,127.0,127.0,127.0,-114.0,-82.0,108.0
127.0,129.0,127.0,126.0,126.0,131.0,122.0,130.0,-1.0,110.0,-86.0,127.0,127.0,127.0,-114.0,-82.0,108.0
127.0,129.0,127.0,126.0,126.0,131.0,122.0,130.0,-1.0,110.0,-86.0,127.0,127.0,127.0,-114.0,-82.0,108.0
127.0,129.0,127.0,126.0,126.0,131.0,123.0,130.0,-1.0,110.0,-86.0,127.0,127.0,127.0,-114.0,-82.0,108.0
127.0,129.0,127.0,126.0,126.0,130.0,123.0,130.0,-1.0,110.0,-86.0,127.0,127.0,127.0,-114.0,-82.0,108.0
127.0,129.0,127.0,126.0,126.0,130.0,123.0,129.0,-1.0,110.0,-86.0,127.0,127.0,127.0,-114.0,-82.0,108.0
127.0,129.0,127.0,126.0,126.0,131.0,122.0,130.0,-1.0,110.0,-86.0,127.0,127.0,127.0,-114.0,-82.0,108.0
127.0,129.0,127.0,126.0,126.0,132.0,124.0,130.0,-1.0,110.0,-86.0,127.0,127.0,127.0,-114.0,-82.0,108.0
127.0,129.0,127.0,126.0,126.0,132.0,123.0,130.0,-1.0,110.0,-86.0,127.0,127.0,127.0,-114.0,-82.0,108.0
127.0,129.0,127.0,126.0,126.0,132.0,123.0,130.0,-1.0,110.0,-86.0,127.0,127.0,127.0,-114.0,-82.0,108.0
127.0,129.0,127.0,126.0,126.0,132.0,123.0,130.0,-1.0,110.0,-86.0,127.0,127.0,127.0,-114.0,-82.0,108.0
127.0,129.0,127.0,126.0,126.0,132.0,123.0,130.0,-1.0,110.0,-86.0,127.0,127.0,127.0,-114.0,-82.0,108.0
127.0,129.0,127.0,126.0,126.0,132.0,124.0,130.0,-1.0,110.0,-86.0,127.0,127.0,127.0,-114.0,-82.0,108.0
127.0,129.0,127.0,126.0,126.0,132.0,124.0,130.0,-1.0,110.0,-86.0,127.0,127.0,127.0,-114.0,-82.0,108.0
127.0,129.0,127.0,126.0,126.0,131.0,124.0,130.0,-1.0,110.0,-86.0,127.0,127.0,127.0,-114.0,-82.0,108.0
127.0,129.0,127.0,126.0,126.0,131.0,124.0,130.0,-1.0,110.0,-86.0,127.0,127.0,127.0,-114.0,-82.0,108.0
127.0,129.0,127.0,126.0,126.0,131.0,124.0,130.0,-1.0,110.0,-86.0,127.0,127.0,127.0,-114.0,-82.0,108.0
127.0,129.0,127.0,126.0,126.0,131.0,124.0,130.0,-1.0,110.0,-86.0,127.0,127.0,127.0,-114.0,-82.0,108.0
127.0,129.0,127.0,126.0,126.0,131.0,124.0,130.0,-1.0,110.0,-86.0,127.0,127.0,127.0,-114.0,-82.0,108.0
127.0,129.0,127.0,126.0,126.0,131.0,124.0,130.0,-1.0,110.0,-86.0,127.0,127.0,127.0,-114.0,-82.0,108.0
127.0,129.0,127.0,126.0,126.0,131.0,124.0,130.0,-1.0,110.0,-86.0,127.0,127.0,127.0,-114.0,-82.0,108.0
127.0,129.0,127.0,126.0,126.0,131.0,124.0,130.0,-1.0,110.0,-86.0,127.0,127.0,127.0,-114.0,-82.0,108.0
127.0,129.0,127.0,126.0,126.0,131.0,124.0,130.0,-1.0,110.0,-86.0,127.0,127.0,127.0,-114.0,-82.0,108.0
127.0,129.0,127.0,126.0,126.0,130.0,124.0,130.0,-1.0,110.0,-86.0,127.0,127.0,127.0,-114.0,-82.0,108.0
127.0,129.0,127.0,126.0,126.0,131.0,125.0,130.0,-1.0,110.0,-86.0,127.0,127.0,127.0,-114.0,-82.0,108.0
127.0,129.0,127.0,126.0,126.0,131.0,125.0,130.0,-1.0,110.0,-86.0,127.0,127.0,127.0,-114.0,-82.0,108.0
127.0,129.0,127.0,126.0,126.0,131.0,124.0,130.0,-1.0,110.0,-86.0,127.0,127.0,127.0,-114.0,-82.0,108.0
126.0,129.0,127.0,126.0,126.0,130.0,124.0,130.0,-1.0,110.0,-85.0,127.0,127.0,127.0,-114.0,-82.0,108.0
126.0,129.0,127.0,126.0,126.0,130.0,124.0,130.0,-1.0,110.0,-85.0,127.0,127.0,127.0,-114.0,-82.0,108.0
126.0,129.0,127.0,126.0,126.0,130.0,124.0,130.0,-1.0,110.0,-85.0,127.0,127.0,127.0,-114.0,-82.0,108.0
126.0,129.0,127.0,126.0,126.0,130.0,124.0,130.0,-1.0,110.0,-85.0,127.0,127.0,127.0,-114.0,-82.0,108.0
126.0,129.0,127.0,126.0,126.0,130.0,124.0,130.0,-1.0,110.0,-85.0,127.0,127.0,127.0,-114.0,-82.0,108.0
126.0,129.0,127.0,126.0,126.0,129.0,125.0,130.0,-1.0,110.0,-85.0,127.0,127.0,127.0,-114.0,-82.0,108.0
127.0,129.0,127.0,126.0,126.0,130.0,125.0,130.0,-1.0,110.0,-85.0,127.0,127.0,127.0,-114.0,-82.0,108.0
127.0,129.0,127.0,126.0,126.0,130.0,125.0,130.0,-1.0,110.0,-85.0,127.0,127.0,127.0,-114.0,-82.0,108.0
126.0,129.0,127.0,126.0,126.0,130.0,125.0,130.0,-1.0,110.0,-85.0,127.0,127.0,127.0,-114.0,-82.0,108.0
127.0,129.0,127.0,126.0,126.0,130.0,124.0,130.0,-1.0,110.0,-85.0,127.0,127.0,127.0,-114.0,-82.0,108.0
127.0,129.0,127.0,126.0,126.0,131.0,126.0,130.0,-1.0,111.0,-85.0,127.0,127.0,127.0,-115.0,-82.0,108.0
127.0,129.0,127.0,126.0,126.0,131.0,126.0,130.0,-1.0,111.0,-85.0,127.0,127.0,127.0,-115.0,-82.0,108.0
127.0,129.0,127.0,126.0,126.0,131.0,126.0,130.0,-1.0,111.0,-85.0,127.0,127.0,127.0,-115.0,-82.0,108.0
127.0,129.0,127.0,126.0,126.0,131.0,126.0,130.0,-1.0,111.0,-85.0,127.0,127.0,127.0,-115.0,-82.0,108.0
127.0,129.0,127.0,126.0,126.0,130.0,126.0,130.0,-1.0,111.0,-85.0,127.0,127.0,127.0,-115.0,-82.0,108.0
127.0,128.0,127.0,126.0,126.0,131.0,126.0,129.0,-1.0,111.0,-85.0,127.0,127.0,127.0,-115.0,-82.0,108.0
127.0,129.0,127.0,126.0,126.0,131.0,126.0,129.0,-1.0,111.0,-85.0,127.0,127.0,127.0,-115.0,-82.0,108.0
127.0,128.0,127.0,126.0,126.0,131.0,126.0,129.0,-1.0,111.0,-85.0,127.0,127.0,127.0,-115.0,-82.0,108.0
127.0,129.0,127.0,126.0,126.0,131.0,126.0,130.0,-1.0,111.0,-85.0,127.0,127.0,127.0,-115.0,-82.0,108.0
127.0,129.0,127.0,126.0,126.0,131.0,126.0,130.0,-1.0,111.0,-85.0,127.0,127.0,127.0,-115.0,-82.0,108.0
127.0,129.0,127.0,126.0,126.0,130.0,124.0,129.0,-1.0,112.0,-84.0,127.0,127.0,127.0,-115.0,-82.0,108.0
127.0,129.0,127.0,126.0,126.0,130.0,124.0,129.0,-1.0,112.0,-84.0,127.0,127.0,127.0,-115.0,-82.0,108.0
127.0,129.0,127.0,126.0,126.0,130.0,124.0,129.0,-1.0,112.0,-84.0,127.0,127.0,127.0,-115.0,-82.0,108.0
127.0,129.0,127.0,126.0,126.0,130.0,124.0,129.0,-1.0,112.0,-84.0,127.0,127.0,127.0,-115.0,-82.0,108.0
127.0,129.0,127.0,126.0,126.0,129.0,125.0,129.0,-1.0,112.0,-84.0,127.0,127.0,127.0,-115.0,-82.0,108.0
127.0,129.0,127.0,126.0,126.0,129.0,125.0,129.0,-1.0,112.0,-84.0,127.0,127.0,127.0,-115.0,-82.0,108.0
127.0,129.0,127.0,126.0,126.0,129.0,125.0,129.0,-1.0,112.0,-84.0,127.0,127.0,127.0,-115.0,-82.0,108.0
127.0,129.0,127.0,126.0,126.0,130.0,124.0,129.0,-1.0,112.0,-84.0,127.0,127.0,127.0,-115.0,-82.0,108.0
127.0,129.0,127.0,126.0,126.0,130.0,124.0,129.0,-1.0,112.0,-84.0,127.0,127.0,127.0,-115.0,-82.0,108.0
127.0,129.0,127.0,126.0,126.0,130.0,124.0,129.0,-1.0,112.0,-84.0,127.0,127.0,127.0,-115.0,-82.0,108.0
127.0,128.0,127.0,126.0,126.0,130.0,124.0,129.0,-1.0,112.0,-83.0,127.0,127.0,127.0,-115.0,-82.0,108.0
127.0,128.0,127.0,126.0,126.0,130.0,124.0,129.0,-1.0,112.0,-83.0,127.0,127.0,127.0,-115.0,-82.0,108.0
127.0,128.0,127.0,126.0,126.0,130.0,124.0,129.0,-1.0,112.0,-83.0,127.0,127.0,127.0,-115.0,-82.0,108.0
127.0,128.0,127.0,126.0,127.0,130.0,125.0,129.0,-1.0,112.0,-83.0,127.0,127.0,127.0,-115.0,-82.0,108.0
127.0,128.0,127.0,126.0,127.0,130.0,124.0,129.0,-1.0,112.0,-83.0,127.0,127.0,127.0,-115.0,-82.0,108.0
127.0,128.0,127.0,126.0,127.0,130.0,124.0,129.0,-1.0,112.0,-83.0,127.0,127.0,127.0,-115.0,-82.0,108.0
127.0,128.0,127.0,126.0,127.0,130.0,124.0,129.0,-1.0,112.0,-83.0,127.0,127.0,127.0,-115.0,-82.0,108.0
127.0,128.0,127.0,126.0,127.0,130.0,125.0,129.0,-1.0,112.0,-83.0,127.0,127.0,127.0,-115.0,-82.0,108.0
127.0,128.0,127.0,126.0,127.0,130.0,124.0,129.0,-1.0,112.0,-83.0,127.0,127.0,127.0,-115.0,-82.0,108.0
127.0,128.0,127.0,126.0,126.0,130.0,124.0,129.0,-1.0,112.0,-83.0,127.0,127.0,127.0,-115.0,-82.0,108.0
127.0,128.0,127.0,126.0,127.0,129.0,124.0,128.0,-1.0,113.0,-83.0,127.0,127.0,127.0,-116.0,-82.0,108.0
127.0,128.0,127.0,126.0,127.0,130.0,125.0,128.0,-1.0,113.0,-83.0,127.0,127.0,127.0,-116.0,-82.0,108.0
127.0,128.0,127.0,126.0,127.0,130.0,125.0,128.0,-1.0,113.0,-83.0,127.0,127.0,127.0,-116.0,-82.0,108.0
127.0,128.0,127.0,126.0,127.0,130.0,124.0,129.0,-1.0,113.0,-83.0,127.0,127.0,127.0,-116.0,-82.0,108.0
127.0,128.0,127.0,126.0,127.0,130.0,124.0,128.0,-1.0,113.0,-83.0,127.0,127.0,127.0,-116.0,-82.0,108.0
127.0,128.0,127.0,126.0,127.0,130.0,124.0,128.0,-1.0,113.0,-83.0,127.0,127.0,127.0,-116.0,-82.0,108.0
127.0,128.0,127.0,126.0,127.0,130.0,124.0,128.0,-1.0,113.0,-83.0,127.0,127.0,127.0,-116.0,-82.0,108.0
127.0,128.0,127.0,126.0,127.0,130.0,124.0,128.0,-1.0,113.0,-83.0,127.0,127.0,127.0,-116.0,-82.0,108.0
127.0,128.0,127.0,126.0,127.0,130.0,124.0,128.0,-1.0,113.0,-83.0,127.0,127.0,127.0,-116.0,-82.0,108.0
127.0,128.0,127.0,126.0,127.0,129.0,124.0,128.0,-1.0,113.0,-83.0,127.0,127.0,127.0,-116.0,-82.0,108.0
127.0,128.0,127.0,126.0,127.0,130.0,126.0,128.0,-1.0,114.0,-82.0,127.0,127.0,127.0,-116.0,-82.0,108.0
127.0,128.0,127.0,126.0,127.0,130.0,125.0,128.0,-1.0,114.0,-82.0,127.0,127.0,127.0,-116.0,-82.0,108.0
127.0,129.0,127.0,126.0,127.0,131.0,125.0,128.0,-1.0,114.0,-82.0,127.0,127.0,127.0,-116.0,-82.0,108.0
127.0,129.0,127.0,126.0,127.0,131.0,125.0,128.0,-1.0,114.0,-82.0,127.0,127.0,127.0,-116.0,-82.0,108.0
127.0,129.0,127.0,126.0,127.0,130.0,126.0,128.0,-1.0,114.0,-82.0,127.0,127.0,127.0,-116.0,-82.0,108.0
127.0,129.0,127.0,126.0,127.0,130.0,126.0,128.0,-1.0,114.0,-82.0,127.0,127.0,127.0,-116.0,-82.0,108.0
127.0,129.0,127.0,126.0,127.0,130.0,126.0,128.0,-1.0,114.0,-82.0,127.0,127.0,127.0,-116.0,-82.0,108.0
127.0,129.0,127.0,126.0,127.0,130.0,126.0,128.0,-1.0,114.0,-82.0,127.0,127.0,127.0,-116.0,-82.0,108.0
127.0,128.0,127.0,126.0,127.0,130.0,126.0,128.0,-1.0,114.0,-82.0,127.0,127.0,127.0,-116.0,-82.0,108.0
127.0,128.0,127.0,126.0,127.0,130.0,126.0,128.0,-1.0,114.0,-82.0,127.0,127.0,127.0,-116.0,-82.0,108.0
127.0,129.0,127.0,127.0,127.0,130.0,127.0,127.0,-1.0,114.0,-82.0,126.0,127.0,127.0,-117.0,-82.0,108.0
127.0,129.0,127.0,127.0,127.0,130.0,126.0,127.0,-1.0,114.0,-82.0,126.0,127.0,127.0,-117.0,-82.0,108.0
127.0,128.0,127.0,127.0,127.0,130.0,126.0,127.0,-1.0,114.0,-82.0,126.0,127.0,127.0,-117.0,-82.0,108.0
127.0,129.0,127.0,127.0,127.0,130.0,126.0,127.0,-1.0,114.0,-82.0,126.0,127.0,127.0,-117.0,-82.0,108.0
127.0,129.0,127.0,127.0,127.0,130.0,126.0,127.0,-1.0,114.0,-82.0,126.0,127.0,127.0,-117.0,-82.0,108.0
127.0,129.0,127.0,127.0,127.0,130.0,126.0,127.0,-1.0,114.0,-82.0,126.0,127.0,127.0,-117.0,-82.0,108.0
127.0,129.0,127.0,127.0,127.0,130.0,127.0,127.0,-1.0,114.0,-82.0,126.0,127.0,127.0,-117.0,-82.0,108.0
127.0,129.0,127.0,127.0,127.0,130.0,127.0,127.0,-1.0,114.0,-82.0,126.0,127.0,127.0,-117.0,-82.0,108.0
127.0,129.0,127.0,127.0,127.0,130.0,127.0,127.0,-1.0,114.0,-82.0,126.0,127.0,127.0,-117.0,-82.0,108.0
127.0,128.0,127.0,127.0,127.0,129.0,127.0,127.0,-1.0,114.0,-82.0,126.0,127.0,127.0,-117.0,-82.0,108.0
127.0,128.0,128.0,127.0,126.0,130.0,127.0,127.0,-1.0,115.0,-82.0,126.0,127.0,127.0,-117.0,-82.0,108.0
127.0,128.0,128.0,127.0,126.0,130.0,127.0,127.0,-1.0,115.0,-82.0,126.0,127.0,127.0,-117.0,-82.0,108.0
127.0,128.0,128.0,127.0,126.0,130.0,127.0,127.0,-1.0,115.0,-82.0,126.0,127.0,127.0,-117.0,-82.0,108.0
127.0,128.0,128.0,127.0,127.0,130.0,127.0,127.0,-1.0,115.0,-82.0,126.0,127.0,127.0,-117.0,-82.0,108.0
127.0,129.0,128.0,127.0,126.0,130.0,127.0,127.0,-1.0,115.0,-82.0,126.0,127.0,127.0,-117.0,-82.0,108.0
127.0,128.0,128.0,127.0,127.0,130.0,127.0,127.0,-1.0,115.0,-82.0,126.0,127.0,127.0,-117.0,-82.0,108.0
127.0,128.0,128.0,127.0,127.0,130.0,127.0,127.0,-1.0,115.0,-82.0,126.0,127.0,127.0,-117.0,-82.0,108.0
127.0,128.0,128.0,127.0,126.0,130.0,127.0,127.0,-1.0,115.0,-82.0,126.0,127.0,127.0,-117.0,-82.0,108.0
127.0,128.0,128.0,127.0,127.0,130.0,127.0,127.0,-1.0,115.0,-82.0,126.0,127.0,127.0,-117.0,-82.0,108.0
127.0,128.0,128.0,127.0,126.0,130.0,127.0,127.0,-1.0,115.0,-82.0,126.0,127.0,127.0,-117.0,-82.0,108.0
127.0,128.0,127.0,128.0,126.0,131.0,127.0,128.0,-1.0,114.0,-83.0,126.0,127.0,127.0,-117.0,-82.0,108.0
127.0,128.0,127.0,128.0,126.0,131.0,127.0,128.0,-1.0,114.0,-83.0,126.0,127.0,127.0,-117.0,-82.0,108.0
127.0,128.0,127.0,128.0,126.0,131.0,127.0,128.0,-1.0,114.0,-83.0,126.0,127.0,127.0,-117.0,-82.0,108.0
127.0,128.0,127.0,128.0,126.0,131.0,127.0,128.0,-1.0,114.0,-83.0,126.0,127.0,127.0,-117.0,-82.0,108.0
127.0,128.0,127.0,128.0,126.0,131.0,127.0,128.0,-1.0,114.0,-83.0,126.0,127.0,127.0,-117.0,-82.0,108.0
127.0,128.0,127.0,128.0,126.0,130.0,127.0,128.0,-1.0,114.0,-83.0,126.0,127.0,127.0,-117.0,-82.0,108.0
127.0,128.0,127.0,128.0,126.0,130.0,127.0,128.0,-1.0,114.0,-83.0,126.0,127.0,127.0,-117.0,-82.0,108.0
127.0,128.0,127.0,128.0,127.0,130.0,128.0,127.0,-1.0,114.0,-83.0,126.0,127.0,127.0,-117.0,-82.0,108.0
127.0,128.0,127.0,128.0,126.0,130.0,127.0,127.0,-1.0,114.0,-83.0,126.0,127.0,127.0,-117.0,-82.0,108.0
127.0,128.0,127.0,128.0,126.0,131.0,127.0,128.0,-1.0,114.0,-83.0,126.0,127.0,127.0,-117.0,-82.0,108.0
127.0,128.0,127.0,125.0,126.0,130.0,125.0,128.0,-1.0,113.0,-83.0,126.0,127.0,127.0,-117.0,-82.0,108.0
127.0,128.0,127.0,125.0,126.0,130.0,125.0,128.0,-1.0,113.0,-83.0,126.0,127.0,127.0,-117.0,-82.0,108.0
127.0,128.0,127.0,125.0,126.0,130.0,125.0,128.0,-1.0,113.0,-83.0,126.0,127.0,127.0,-117.0,-82.0,108.0
127.0,128.0,127.0,125.0,126.0,130.0,125.0,128.0,-1.0,113.0,-83.0,126.0,127.0,127.0,-117.0,-82.0,108.0
127.0,128.0,127.0,125.0,126.0,130.0,125.0,128.0,-1.0,113.0,-83.0,126.0,127.0,127.0,-117.0,-82.0,108.0
127.0,128.0,127.0,124.0,126.0,130.0,125.0,128.0,-1.0,113.0,-83.0,126.0,127.0,127.0,-117.0,-82.0,108.0
127.0,128.0,127.0,125.0,126.0,129.0,126.0,128.0,-1.0,113.0,-83.0,126.0,127.0,127.0,-117.0,-82.0,108.0
127.0,128.0,127.0,125.0,126.0,129.0,126.0,128.0,-1.0,113.0,-83.0,126.0,127.0,127.0,-117.0,-82.0,108.0
127.0,128.0,127.0,125.0,126.0,130.0,125.0,128.0,-1.0,113.0,-83.0,126.0,127.0,127.0,-117.0,-82.0,108.0
127.0,128.0,127.0,125.0,126.0,130.0,125.0,128.0,-1.0,113.0,-83.0,126.0,127.0,127.0,-117.0,-82.0,108.0
127.0,128.0,127.0,124.0,126.0,129.0,125.0,129.0,-1.0,112.0,-84.0,126.0,127.0,127.0,-117.0,-82.0,108.0
127.0,128.0,127.0,124.0,126.0,129.0,125.0,129.0,-1.0,112.0,-84.0,126.0,127.0,127.0,-117.0,-82.0,108.0
127.0,128.0,127.0,124.0,126.0,129.0,125.0,129.0,-1.0,112.0,-84.0,126.0,127.0,127.0,-117.0,-82.0,108.0
127.0,128.0,127.0,124.0,126.0,129.0,125.0,129.0,-1.0,112.0,-84.0,126.0,127.0,127.0,-117.0,-82.0,108.0
127.0,128.0,127.0,124.0,126.0,129.0,125.0,129.0,-1.0,112.0,-84.0,126.0,127.0,127.0,-117.0,-82.0,108.0
127.0,128.0,127.0,124.0,126.0,129.0,125.0,128.0,-1.0,112.0,-84.0,126.0,127.0,127.0,-117.0,-82.0,108.0
127.0,128.0,127.0,124.0,126.0,129.0,125.0,128.0,-1.0,112.0,-84.0,126.0,127.0,127.0,-117.0,-82.0,108.0
127.0,128.0,127.0,124.0,126.0,129.0,125.0,129.0,-1.0,112.0,-84.0,126.0,127.0,127.0,-117.0,-82.0,108.0
127.0,128.0,127.0,124.0,126.0,129.0,124.0,129.0,-1.0,112.0,-84.0,126.0,127.0,127.0,-117.0,-82.0,108.0
127.0,128.0,127.0,124.0,126.0,129.0,125.0,129.0,-1.0,112.0,-84.0,126.0,127.0,127.0,-117.0,-82.0,108.0
127.0,128.0,127.0,124.0,126.0,130.0,125.0,129.0,-1.0,110.0,-85.0,126.0,127.0,127.0,-117.0,-82.0,108.0
127.0,128.0,127.0,124.0,126.0,130.0,126.0,129.0,-1.0,110.0,-85.0,126.0,127.0,127.0,-117.0,-82.0,108.0
127.0,128.0,127.0,124.0,126.0,130.0,126.0,129.0,-1.0,110.0,-85.0,126.0,127.0,127.0,-117.0,-82.0,108.0
127.0,128.0,127.0,124.0,126.0,129.0,126.0,129.0,-1.0,110.0,-85.0,126.0,127.0,127.0,-117.0,-82.0,108.0
127.0,128.0,127.0,124.0,127.0,129.0,126.0,129.0,-1.0,110.0,-85.0,126.0,127.0,127.0,-117.0,-82.0,108.0
127.0,128.0,127.0,124.0,127.0,129.0,126.0,129.0,-1.0,110.0,-85.0,126.0,127.0,127.0,-117.0,-82.0,108.0
127.0,128.0,127.0,124.0,127.0,129.0,126.0,128.0,-1.0,110.0,-85.0,126.0,127.0,127.0,-117.0,-82.0,108.0
127.0,128.0,127.0,124.0,127.0,129.0,126.0,128.0,-1.0,110.0,-85.0,126.0,127.0,127.0,-117.0,-82.0,108.0
127.0,128.0,127.0,124.0,127.0,129.0,126.0,129.0,-1.0,110.0,-85.0,126.0,127.0,127.0,-117.0,-82.0,108.0
127.0,128.0,127.0,124.0,126.0,129.0,126.0,129.0,-1.0,110.0,-85.0,126.0,127.0,127.0,-117.0,-82.0,108.0
127.0,128.0,127.0,124.0,126.0,129.0,126.0,129.0,-1.0,109.0,-86.0,126.0,127.0,127.0,-117.0,-82.0,108.0
127.0,128.0,127.0,124.0,126.0,129.0,126.0,129.0,-1.0,109.0,-86.0,126.0,127.0,127.0,-117.0,-82.0,108.0
127.0,128.0,127.0,124.0,126.0,129.0,126.0,129.0,-1.0,109.0,-86.0,126.0,127.0,127.0,-117.0,-82.0,108.0
127.0,128.0,127.0,124.0,126.0,129.0,126.0,129.0,-1.0,109.0,-86.0,126.0,127.0,127.0,-117.0,-82.0,108.0
127.0,128.0,127.0,124.0,126.0,129.0,126.0,129.0,-1.0,109.0,-86.0,126.0,127.0,127.0,-117.0,-82.0,108.0
127.0,128.0,127.0,124.0,126.0,129.0,126.0,129.0,-1.0,109.0,-86.0,126.0,127.0,127.0,-117.0,-82.0,108.0
127.0,128.0,127.0,124.0,126.0,129.0,126.0,129.0,-1.0,109.0,-86.0,126.0,127.0,127.0,-117.0,-82.0,108.0
127.0,128.0,127.0,124.0,126.0,129.0,126.0,129.0,-1.0,109.0,-86.0,126.0,127.0,127.0,-117.0,-82.0,108.0
127.0,128.0,127.0,124.0,126.0,129.0,126.0,129.0,-1.0,109.0,-86.0,126.0,127.0,127.0,-117.0,-82.0,108.0
127.0,128.0,127.0,124.0,126.0,129.0,126.0,129.0,-1.0,109.0,-86.0,126.0,127.0,127.0,-117.0,-82.0,108.0
127.0,128.0,127.0,125.0,126.0,129.0,126.0,129.0,-1.0,109.0,-86.0,126.0,127.0,127.0,-117.0,-82.0,108.0
127.0,128.0,127.0,125.0,126.0,128.0,126.0,129.0,-1.0,109.0,-86.0,126.0,127.0,127.0,-117.0,-82.0,108.0
127.0,128.0,127.0,125.0,126.0,130.0,126.0,130.0,-1.0,109.0,-86.0,126.0,127.0,127.0,-117.0,-82.0,108.0
127.0,128.0,127.0,125.0,126.0,130.0,126.0,130.0,-1.0,109.0,-86.0,126.0,127.0,127.0,-117.0,-82.0,108.0
127.0,128.0,127.0,125.0,126.0,129.0,126.0,130.0,-1.0,109.0,-86.0,126.0,127.0,127.0,-117.0,-82.0,108.0
127.0,128.0,127.0,125.0,126.0,129.0,126.0,130.0,-1.0,109.0,-86.0,126.0,127.0,127.0,-117.0,-82.0,108.0
127.0,128.0,127.0,125.0,126.0,129.0,126.0,130.0,-1.0,109.0,-86.0,126.0,127.0,127.0,-117.0,-82.0,108.0
127.0,128.0,127.0,125.0,126.0,129.0,126.0,129.0,-1.0,109.0,-86.0,126.0,127.0,127.0,-117.0,-82.0,108.0
127.0,128.0,127.0,125.0,126.0,129.0,126.0,129.0,-1.0,109.0,-86.0,126.0,127.0,127.0,-117.0,-82.0,108.0
127.0,128.0,127.0,125.0,126.0,129.0,126.0,129.0,-1.0,109.0,-86.0,126.0,127.0,127.0,-117.0,-82.0,108.0
127.0,128.0,127.0,126.0,127.0,129.0,127.0,129.0,-1.0,109.0,-86.0,126.0,127.0,127.0,-117.0,-82.0,108.0
127.0,128.0,127.0,126.0,126.0,129.0,126.0,129.0,-1.0,109.0,-86.0,126.0,127.0,127.0,-117.0,-82.0,108.0
127.0,128.0,127.0,126.0,126.0,129.0,126.0,129.0,-1.0,109.0,-86.0,126.0,127.0,127.0,-117.0,-82.0,108.0
127.0,128.0,127.0,126.0,126.0,129.0,126.0,129.0,-1.0,109.0,-86.0,126.0,127.0,127.0,-117.0,-82.0,108.0
127.0,128.0,127.0,126.0,127.0,129.0,126.0,129.0,-1.0,109.0,-86.0,126.0,127.0,127.0,-117.0,-82.0,108.0
127.0,128.0,127.0,126.0,127.0,129.0,126.0,129.0,-1.0,109.0,-86.0,126.0,127.0,127.0,-117.0,-82.0,108.0
127.0,128.0,127.0,126.0,127.0,129.0,127.0,129.0,-1.0,109.0,-86.0,126.0,127.0,127.0,-117.0,-82.0,108.0
127.0,128.0,127.0,126.0,127.0,129.0,127.0,129.0,-1.0,109.0,-86.0,126.0,127.0,127.0,-117.0,-82.0,108.0
127.0,128.0,127.0,126.0,127.0,129.0,127.0,129.0,-1.0,109.0,-86.0,126.0,127.0,127.0,-117.0,-82.0,108.0
127.0,128.0,127.0,126.0,127.0,129.0,127.0,129.0,-1.0,109.0,-86.0,126.0,127.0,127.0,-117.0,-82.0,108.0
127.0,128.0,127.0,126.0,126.0,129.0,126.0,129.0,-1.0,109.0,-86.0,126.0,127.0,127.0,-117.0,-82.0,108.0
127.0,128.0,127.0,126.0,126.0,129.0,126.0,129.0,-1.0,109.0,-86.0,126.0,127.0,127.0,-117.0,-82.0,108.0
127.0,128.0,127.0,126.0,126.0,129.0,126.0,129.0,-1.0,109.0,-86.0,126.0,127.0,127.0,-117.0,-82.0,108.0
127.0,128.0,127.0,126.0,126.0,129.0,126.0,129.0,-1.0,109.0,-86.0,126.0,127.0,127.0,-117.0,-82.0,108.0
127.0,128.0,127.0,126.0,126.0,129.0,126.0,129.0,-1.0,109.0,-86.0,126.0,127.0,127.0,-117.0,-82.0,108.0
127.0,128.0,127.0,126.0,126.0,129.0,126.0,129.0,-1.0,109.0,-86.0,126.0,127.0,127.0,-117.0,-82.0,108.0
127.0,128.0,127.0,126.0,126.0,128.0,127.0,129.0,-1.0,109.0,-86.0,126.0,127.0,127.0,-117.0,-82.0,108.0
127.0,128.0,127.0,126.0,126.0,128.0,126.0,129.0,-1.0,109.0,-86.0,126.0,127.0,127.0,-117.0,-82.0,108.0
127.0,128.0,127.0,126.0,126.0,128.0,127.0,129.0,-1.0,109.0,-86.0,126.0,127.0,127.0,-117.0,-82.0,108.0
127.0,128.0,127.0,126.0,126.0,128.0,127.0,129.0,-1.0,109.0,-86.0,126.0,127.0,127.0,-117.0,-82.0,108.0
127.0,128.0,127.0,126.0,126.0,129.0,126.0,129.0,-1.0,109.0,-85.0,127.0,127.0,127.0,-117.0,-82.0,108.0
127.0,128.0,127.0,126.0,126.0,129.0,126.0,129.0,-1.0,109.0,-85.0,127.0,127.0,127.0,-117.0,-82.0,108.0
127.0,128.0,127.0,126.0,126.0,129.0,126.0,129.0,-1.0,109.0,-85.0,127.0,127.0,127.0,-117.0,-82.0,108.0
127.0,128.0,127.0,126.0,126.0,129.0,126.0,129.0,-1.0,109.0,-85.0,127.0,127.0,127.0,-117.0,-82.0,108.0
127.0,128.0,127.0,126.0,126.0,129.0,126.0,129.0,-1.0,109.0,-85.0,127.0,127.0,127.0,-117.0,-82.0,108.0
127.0,128.0,127.0,126.0,126.0,129.0,126.0,129.0,-1.0,109.0,-85.0,127.0,127.0,127.0,-117.0,-82.0,108.0
127.0,128.0,127.0,126.0,126.0,129.0,126.0,129.0,-1.0,109.0,-85.0,127.0,127.0,127.0,-117.0,-82.0,108.0
127.0,128.0,127.0,126.0,126.0,129.0,126.0,129.0,-1.0,109.0,-85.0,127.0,127.0,127.0,-117.0,-82.0,108.0
127.0,128.0,127.0,126.0,126.0,128.0,127.0,129.0,-1.0,109.0,-85.0,127.0,127.0,127.0,-117.0,-82.0,108.0
127.0,128.0,127.0,126.0,126.0,129.0,126.0,129.0,-1.0,109.0,-85.0,127.0,127.0,127.0,-117.0,-82.0,108.0
127.0,128.0,127.0,126.0,127.0,129.0,126.0,129.0,-1.0,109.0,-85.0,127.0,127.0,127.0,-117.0,-82.0,108.0
127.0,128.0,127.0,126.0,127.0,129.0,126.0,129.0,-1.0,109.0,-85.0,127.0,127.0,127.0,-117.0,-82.0,108.0
127.0,128.0,127.0,126.0,127.0,129.0,126.0,129.0,-1.0,109.0,-85.0,127.0,127.0,127.0,-117.0,-82.0,108.0
127.0,128.0,127.0,126.0,127.0,129.0,126.0,129.0,-1.0,109.0,-85.0,127.0,127.0,127.0,-117.0,-82.0,108.0
127.0,128.0,127.0,126.0,127.0,129.0,126.0,129.0,-1.0,109.0,-85.0,127.0,127.0,127.0,-117.0,-82.0,108.0
127.0,128.0,127.0,126.0,127.0,129.0,126.0,129.0,-1.0,109.0,-85.0,127.0,127.0,127.0,-117.0,-82.0,108.0
127.0,128.0,127.0,126.0,127.0,129.0,126.0,129.0,-1.0,109.0,-85.0,127.0,127.0,127.0,-117.0,-82.0,108.0
127.0,128.0,127.0,126.0,127.0,128.0,126.0,129.0,-1.0,109.0,-85.0,127.0,127.0,127.0,-117.0,-82.0,108.0
127.0,128.0,127.0,126.0,126.0,129.0,126.0,129.0,-1.0,109.0,-85.0,127.0,127.0,127.0,-117.0,-82.0,108.0
127.0,128.0,127.0,126.0,126.0,129.0,126.0,129.0,-1.0,109.0,-85.0,127.0,127.0,127.0,-117.0,-82.0,108.0
127.0,128.0,127.0,126.0,127.0,130.0,126.0,130.0,-1.0,108.0,-84.0,127.0,127.0,127.0,-117.0,-82.0,108.0
127.0,128.0,127.0,126.0,127.0,129.0,126.0,129.0,-1.0,108.0,-84.0,127.0,127.0,127.0,-117.0,-82.0,108.0
127.0,128.0,127.0,126.0,127.0,130.0,126.0,130.0,-1.0,108.0,-84.0,127.0,127.0,127.0,-117.0,-82.0,108.0
127.0,128.0,127.0,126.0,127.0,129.0,126.0,129.0,-1.0,108.0,-84.0,127.0,127.0,127.0,-117.0,-82.0,108.0
127.0,128.0,127.0,126.0,127.0,129.0,126.0,129.0,-1.0,108.0,-84.0,127.0,127.0,127.0,-117.0,-82.0,108.0
127.0,128.0,127.0,126.0,127.0,129.0,126.0,129.0,-1.0,108.0,-84.0,127.0,127.0,127.0,-117.0,-82.0,108.0
127.0,128.0,127.0,126.0,127.0,129.0,126.0,129.0,-1.0,108.0,-84.0,127.0,127.0,127.0,-117.0,-82.0,108.0
127.0,128.0,127.0,126.0,126.0,130.0,127.0,129.0,-1.0,108.0,-84.0,127.0,127.0,127.0,-117.0,-82.0,108.0
127.0,128.0,127.0,126.0,126.0,130.0,126.0,130.0,-1.0,108.0,-84.0,127.0,127.0,127.0,-117.0,-82.0,108.0
127.0,128.0,127.0,126.0,127.0,130.0,126.0,130.0,-1.0,108.0,-84.0,127.0,127.0,127.0,-117.0,-82.0,108.0
127.0,128.0,127.0,126.0,126.0,128.0,125.0,129.0,-1.0,108.0,-83.0,127.0,127.0,127.0,-117.0,-82.0,108.0
126.0,128.0,127.0,126.0,126.0,128.0,125.0,129.0,-1.0,108.0,-83.0,127.0,127.0,127.0,-117.0,-82.0,108.0
126.0,128.0,127.0,126.0,127.0,128.0,125.0,129.0,-1.0,108.0,-83.0,127.0,127.0,127.0,-117.0,-82.0,108.0
126.0,128.0,127.0,126.0,127.0,128.0,125.0,129.0,-1.0,108.0,-83.0,127.0,127.0,127.0,-117.0,-82.0,108.0
126.0,128.0,127.0,126.0,127.0,128.0,125.0,129.0,-1.0,108.0,-83.0,127.0,127.0,127.0,-117.0,-82.0,108.0
126.0,128.0,127.0,126.0,126.0,128.0,124.0,129.0,-1.0,108.0,-83.0,127.0,127.0,127.0,-117.0,-82.0,108.0
126.0,128.0,127.0,126.0,127.0,126.0,126.0,129.0,-1.0,108.0,-83.0,127.0,127.0,127.0,-117.0,-82.0,108.0
126.0,128.0,127.0,126.0,127.0,127.0,126.0,129.0,-1.0,108.0,-83.0,127.0,127.0,127.0,-117.0,-82.0,108.0
126.0,128.0,127.0,126.0,127.0,127.0,125.0,129.0,-1.0,108.0,-83.0,127.0,127.0,127.0,-117.0,-82.0,108.0
126.0,128.0,127.0,126.0,127.0,127.0,125.0,129.0,-1.0,108.0,-83.0,127.0,127.0,127.0,-117.0,-82.0,108.0
127.0,128.0,127.0,126.0,127.0,129.0,125.0,128.0,-1.0,108.0,-82.0,127.0,127.0,127.0,-117.0,-82.0,108.0
127.0,128.0,127.0,126.0,127.0,129.0,125.0,128.0,-1.0,108.0,-82.0,127.0,127.0,127.0,-117.0,-82.0,108.0
127.0,128.0,127.0,126.0,127.0,129.0,125.0,128.0,-1.0,108.0,-82.0,127.0,127.0,127.0,-117.0,-82.0,108.0
127.0,128.0,127.0,126.0,127.0,129.0,125.0,128.0,-1.0,108.0,-82.0,127.0,127.0,127.0,-117.0,-82.0,108.0
127.0,128.0,127.0,126.0,127.0,128.0,125.0,128.0,-1.0,108.0,-82.0,127.0,127.0,127.0,-117.0,-82.0,108.0
127.0,128.0,127.0,126.0,127.0,129.0,124.0,128.0,-1.0,108.0,-82.0,127.0,127.0,127.0,-117.0,-82.0,108.0
127.0,128.0,127.0,126.0,127.0,129.0,124.0,128.0,-1.0,108.0,-82.0,127.0,127.0,127.0,-117.0,-82.0,108.0
127.0,128.0,127.0,126.0,127.0,129.0,124.0,128.0,-1.0,108.0,-82.0,127.0,127.0,127.0,-117.0,-82.0,108.0
127.0,128.0,127.0,126.0,127.0,129.0,124.0,128.0,-1.0,108.0,-82.0,127.0,127.0,127.0,-117.0,-82.0,108.0
127.0,128.0,127.0,126.0,127.0,129.0,125.0,128.0,-1.0,108.0,-82.0,127.0,127.0,127.0,-117.0,-82.0,108.0
127.0,128.0,127.0,126.0,127.0,129.0,125.0,128.0,-1.0,108.0,-81.0,127.0,127.0,127.0,-117.0,-82.0,108.0
127.0,128.0,127.0,126.0,127.0,129.0,125.0,128.0,-1.0,108.0,-81.0,127.0,127.0,127.0,-117.0,-82.0,108.0
127.0,128.0,127.0,126.0,127.0,129.0,125.0,128.0,-1.0,108.0,-81.0,127.0,127.0,127.0,-117.0,-82.0,108.0
127.0,128.0,127.0,126.0,127.0,129.0,125.0,128.0,-1.0,108.0,-81.0,127.0,127.0,127.0,-117.0,-82.0,108.0
127.0,128.0,127.0,127.0,127.0,130.0,125.0,129.0,-1.0,108.0,-81.0,127.0,127.0,127.0,-117.0,-82.0,108.0
127.0,128.0,127.0,127.0,127.0,129.0,124.0,129.0,-1.0,108.0,-81.0,127.0,127.0,127.0,-117.0,-82.0,108.0
127.0,128.0,127.0,126.0,127.0,129.0,124.0,129.0,-1.0,108.0,-81.0,127.0,127.0,127.0,-117.0,-82.0,108.0
127.0,128.0,127.0,126.0,127.0,129.0,125.0,129.0,-1.0,108.0,-81.0,127.0,127.0,127.0,-117.0,-82.0,108.0
127.0,128.0,127.0,126.0,127.0,129.0,125.0,129.0,-1.0,108.0,-81.0,127.0,127.0,127.0,-117.0,-82.0,108.0
127.0,128.0,127.0,126.0,127.0,129.0,125.0,129.0,-1.0,108.0,-81.0,127.0,127.0,127.0,-117.0,-82.0,108.0
127.0,128.0,127.0,126.0,127.0,129.0,125.0,128.0,-1.0,108.0,-80.0,127.0,127.0,127.0,-117.0,-82.0,108.0
127.0,128.0,127.0,126.0,127.0,129.0,125.0,128.0,-1.0,108.0,-80.0,127.0,127.0,127.0,-117.0,-82.0,108.0
127.0,128.0,127.0,126.0,127.0,128.0,125.0,128.0,-1.0,108.0,-80.0,127.0,127.0,127.0,-117.0,-82.0,108.0
127.0,128.0,127.0,126.0,126.0,129.0,125.0,128.0,-1.0,108.0,-80.0,127.0,127.0,127.0,-117.0,-82.0,108.0
127.0,128.0,127.0,126.0,127.0,129.0,125.0,128.0,-1.0,108.0,-80.0,127.0,127.0,127.0,-117.0,-82.0,108.0
127.0,128.0,127.0,126.0,127.0,129.0,125.0,128.0,-1.0,108.0,-80.0,127.0,127.0,127.0,-117.0,-82.0,108.0
127.0,128.0,127.0,126.0,127.0,129.0,125.0,128.0,-1.0,108.0,-80.0,127.0,127.0,127.0,-117.0,-82.0,108.0
127.0,128.0,127.0,126.0,127.0,129.0,125.0,128.0,-1.0,108.0,-80.0,127.0,127.0,127.0,-117.0,-82.0,108.0
127.0,128.0,127.0,126.0,127.0,129.0,125.0,128.0,-1.0,108.0,-80.0,127.0,127.0,127.0,-117.0,-82.0,108.0
127.0,128.0,127.0,126.0,127.0,129.0,125.0,128.0,-1.0,108.0,-80.0,127.0,127.0,127.0,-117.0,-82.0,108.0
127.0,128.0,127.0,126.0,127.0,130.0,127.0,129.0,-1.0,109.0,-80.0,127.0,127.0,127.0,-117.0,-82.0,108.0
127.0,128.0,127.0,126.0,127.0,130.0,127.0,129.0,-1.0,109.0,-80.0,127.0,127.0,127.0,-117.0,-82.0,108.0
127.0,128.0,127.0,126.0,127.0,130.0,126.0,129.0,-1.0,109.0,-80.0,127.0,127.0,127.0,-117.0,-82.0,108.0
127.0,128.0,127.0,126.0,127.0,130.0,126.0,129.0,-1.0,109.0,-80.0,127.0,127.0,127.0,-117.0,-82.0,108.0
127.0,128.0,127.0,126.0,127.0,130.0,126.0,129.0,-1.0,109.0,-80.0,127.0,127.0,127.0,-117.0,-82.0,108.0
127.0,128.0,127.0,126.0,127.0,130.0,126.0,129.0,-1.0,109.0,-80.0,127.0,127.0,127.0,-117.0,-82.0,108.0
127.0,128.0,127.0,126.0,127.0,130.0,126.0,129.0,-1.0,109.0,-80.0,127.0,127.0,127.0,-117.0,-82.0,108.0
127.0,128.0,127.0,126.0,127.0,130.0,126.0,129.0,-1.0,109.0,-80.0,127.0,127.0,127.0,-117.0,-82.0,108.0
127.0,128.0,127.0,126.0,127.0,130.0,126.0,129.0,-1.0,109.0,-80.0,127.0,127.0,127.0,-117.0,-82.0,108.0
127.0,128.0,127.0,126.0,127.0,130.0,127.0,129.0,-1.0,109.0,-80.0,127.0,127.0,127.0,-117.0,-82.0,108.0
127.0,128.0,127.0,126.0,127.0,129.0,125.0,128.0,-1.0,109.0,-80.0,127.0,127.0,127.0,-117.0,-83.0,108.0
127.0,128.0,127.0,126.0,126.0,129.0,125.0,129.0,-1.0,109.0,-80.0,127.0,127.0,127.0,-117.0,-83.0,108.0
127.0,128.0,127.0,126.0,126.0,129.0,125.0,129.0,-1.0,109.0,-80.0,127.0,127.0,127.0,-117.0,-83.0,108.0
127.0,128.0,127.0,126.0,126.0,129.0,125.0,129.0,-1.0,109.0,-80.0,127.0,127.0,127.0,-117.0,-83.0,108.0
127.0,128.0,127.0,126.0,126.0,129.0,125.0,129.0,-1.0,109.0,-80.0,127.0,127.0,127.0,-117.0,-83.0,108.0
127.0,128.0,127.0,126.0,127.0,129.0,125.0,129.0,-1.0,109.0,-80.0,127.0,127.0,127.0,-117.0,-83.0,108.0
127.0,128.0,127.0,126.0,127.0,129.0,125.0,128.0,-1.0,109.0,-80.0,127.0,127.0,127.0,-117.0,-83.0,108.0
127.0,128.0,127.0,126.0,127.0,129.0,125.0,128.0,-1.0,109.0,-80.0,127.0,127.0,127.0,-117.0,-83.0,108.0
127.0,128.0,127.0,126.0,127.0,129.0,125.0,128.0,-1.0,109.0,-80.0,127.0,127.0,127.0,-117.0,-83.0,108.0
127.0,128.0,127.0,126.0,127.0,129.0,125.0,128.0,-1.0,109.0,-80.0,127.0,127.0,127.0,-117.0,-83.0,108.0
127.0,128.0,127.0,126.0,127.0,130.0,124.0,129.0,-1.0,108.0,-80.0,127.0,127.0,127.0,-117.0,-83.0,108.0
127.0,128.0,127.0,126.0,127.0,129.0,124.0,129.0,-1.0,108.0,-80.0,127.0,127.0,127.0,-117.0,-83.0,108.0
127.0,128.0,127.0,126.0,127.0,129.0,124.0,129.0,-1.0,108.0,-80.0,127.0,127.0,127.0,-117.0,-83.0,108.0
127.0,128.0,127.0,126.0,127.0,129.0,124.0,129.0,-1.0,108.0,-80.0,127.0,127.0,127.0,-117.0,-83.0,108.0
127.0,128.0,127.0,126.0,127.0,129.0,125.0,129.0,-1.0,108.0,-80.0,127.0,127.0,127.0,-117.0,-83.0,108.0
127.0,128.0,127.0,126.0,127.0,129.0,125.0,129.0,-1.0,108.0,-80.0,127.0,127.0,127.0,-117.0,-83.0,108.0
127.0,128.0,127.0,126.0,127.0,129.0,125.0,129.0,-1.0,108.0,-80.0,127.0,127.0,127.0,-117.0,-83.0,108.0
127.0,128.0,127.0,126.0,127.0,129.0,125.0,129.0,-1.0,108.0,-80.0,127.0,127.0,127.0,-117.0,-83.0,108.0
127.0,128.0,127.0,126.0,127.0,129.0,125.0,129.0,-1.0,108.0,-80.0,127.0,127.0,127.0,-117.0,-83.0,108.0
127.0,128.0,127.0,126.0,127.0,129.0,125.0,129.0,-1.0,108.0,-80.0,127.0,127.0,127.0,-117.0,-83.0,108.0
