emg1,emg2,emg3,emg4,emg5,emg6,emg7,emg8,acc_x,acc_y,acc_z,gyro_x,gyro_y,gyro_z,angle_pitch,angle_roll,angle_yaw
127.0,126.0,127.0,125.0,127.0,126.0,112.0,127.0,28.0,-109.0,-68.0,127.0,127.0,127.0,116.0,87.0,-114.0
127.0,126.0,127.0,125.0,127.0,126.0,112.0,127.0,28.0,-109.0,-68.0,127.0,127.0,127.0,116.0,87.0,-114.0
127.0,126.0,127.0,125.0,127.0,127.0,112.0,127.0,28.0,-109.0,-68.0,127.0,127.0,127.0,116.0,87.0,-114.0
126.0,126.0,127.0,125.0,127.0,126.0,112.0,127.0,28.0,-109.0,-68.0,127.0,127.0,127.0,116.0,87.0,-114.0
126.0,126.0,127.0,125.0,127.0,126.0,112.0,127.0,28.0,-109.0,-68.0,127.0,127.0,127.0,116.0,87.0,-114.0
126.0,126.0,127.0,125.0,127.0,126.0,113.0,127.0,28.0,-109.0,-68.0,127.0,127.0,127.0,116.0,87.0,-114.0
126.0,125.0,127.0,125.0,126.0,126.0,113.0,127.0,28.0,-109.0,-68.0,127.0,127.0,127.0,116.0,87.0,-114.0
126.0,125.0,127.0,125.0,126.0,126.0,112.0,127.0,28.0,-109.0,-68.0,127.0,127.0,127.0,116.0,87.0,-114.0
126.0,125.0,127.0,125.0,126.0,127.0,113.0,127.0,28.0,-109.0,-68.0,127.0,127.0,127.0,116.0,87.0,-114.0
126.0,126.0,127.0,124.0,126.0,126.0,111.0,127.0,28.0,-109.0,-68.0,127.0,127.0,127.0,116.0,87.0,-114.0
126.0,126.0,127.0,124.0,126.0,126.0,112.0,127.0,28.0,-109.0,-68.0,127.0,127.0,127.0,116.0,87.0,-114.0
126.0,126.0,127.0,124.0,126.0,126.0,112.0,127.0,28.0,-109.0,-68.0,127.0,127.0,127.0,116.0,87.0,-114.0
126.0,126.0,127.0,124.0,126.0,126.0,112.0,127.0,28.0,-109.0,-68.0,127.0,127.0,127.0,116.0,87.0,-114.0
126.0,126.0,127.0,124.0,126.0,126.0,112.0,127.0,28.0,-109.0,-68.0,127.0,127.0,127.0,116.0,87.0,-114.0
126.0,126.0,127.0,124.0,126.0,126.0,112.0,127.0,28.0,-109.0,-68.0,127.0,127.0,127.0,116.0,87.0,-114.0
126.0,126.0,127.0,124.0,126.0,126.0,112.0,127.0,28.0,-109.0,-68.0,127.0,127.0,127.0,116.0,87.0,-114.0
126.0,126.0,127.0,124.0,126.0,126.0,112.0,127.0,28.0,-109.0,-68.0,127.0,127.0,127.0,116.0,87.0,-114.0
126.0,126.0,127.0,124.0,126.0,126.0,112.0,127.0,28.0,-109.0,-68.0,127.0,127.0,127.0,116.0,87.0,-114.0
126.0,126.0,127.0,124.0,126.0,126.0,111.0,127.0,28.0,-109.0,-68.0,127.0,127.0,127.0,116.0,87.0,-114.0
126.0,126.0,127.0,126.0,126.0,126.0,111.0,127.0,28.0,-109.0,-68.0,127.0,127.0,127.0,116.0,87.0,-114.0
126.0,126.0,127.0,126.0,126.0,126.0,112.0,127.0,28.0,-109.0,-68.0,127.0,127.0,127.0,116.0,87.0,-114.0
126.0,125.0,127.0,125.0,126.0,126.0,112.0,127.0,28.0,-109.0,-68.0,127.0,127.0,127.0,116.0,87.0,-114.0
126.0,126.0,127.0,125.0,126.0,126.0,112.0,127.0,28.0,-109.0,-68.0,127.0,127.0,127.0,116.0,87.0,-114.0
126.0,125.0,127.0,125.0,126.0,126.0,111.0,127.0,28.0,-109.0,-68.0,127.0,127.0,127.0,116.0,87.0,-114.0
126.0,125.0,127.0,125.0,126.0,126.0,111.0,127.0,28.0,-109.0,-68.0,127.0,127.0,127.0,116.0,87.0,-114.0
126.0,125.0,127.0,125.0,126.0,126.0,111.0,127.0,28.0,-109.0,-68.0,127.0,127.0,127.0,116.0,87.0,-114.0
126.0,125.0,127.0,125.0,126.0,126.0,111.0,127.0,28.0,-109.0,-68.0,127.0,127.0,127.0,116.0,87.0,-114.0
126.0,125.0,127.0,125.0,126.0,126.0,111.0,127.0,28.0,-109.0,-68.0,127.0,127.0,127.0,116.0,87.0,-114.0
126.0,126.0,127.0,125.0,126.0,126.0,111.0,127.0,28.0,-109.0,-68.0,127.0,127.0,127.0,116.0,87.0,-114.0
127.0,126.0,127.0,125.0,126.0,126.0,112.0,127.0,28.0,-109.0,-68.0,127.0,127.0,127.0,116.0,87.0,-114.0
126.0,125.0,127.0,125.0,126.0,126.0,112.0,127.0,28.0,-109.0,-68.0,127.0,127.0,127.0,116.0,87.0,-114.0
126.0,126.0,127.0,125.0,126.0,126.0,112.0,127.0,28.0,-109.0,-68.0,127.0,127.0,127.0,116.0,87.0,-114.0
126.0,126.0,127.0,125.0,126.0,126.0,112.0,127.0,28.0,-109.0,-68.0,127.0,127.0,127.0,116.0,87.0,-114.0
126.0,125.0,127.0,125.0,126.0,126.0,112.0,127.0,28.0,-109.0,-68.0,127.0,127.0,127.0,116.0,87.0,-114.0
126.0,125.0,127.0,125.0,126.0,126.0,112.0,127.0,28.0,-109.0,-68.0,127.0,127.0,127.0,116.0,87.0,-114.0
126.0,125.0,127.0,125.0,126.0,126.0,112.0,127.0,28.0,-109.0,-68.0,127.0,127.0,127.0,116.0,87.0,-114.0
126.0,125.0,127.0,125.0,126.0,126.0,112.0,127.0,28.0,-109.0,-68.0,127.0,127.0,127.0,116.0,87.0,-114.0
126.0,126.0,127.0,125.0,126.0,126.0,112.0,127.0,28.0,-109.0,-68.0,127.0,127.0,127.0,116.0,87.0,-114.0
126.0,126.0,127.0,125.0,126.0,126.0,112.0,127.0,28.0,-109.0,-68.0,127.0,127.0,127.0,116.0,87.0,-114.0
126.0,125.0,127.0,125.0,126.0,126.0,112.0,127.0,28.0,-109.0,-68.0,127.0,127.0,127.0,116.0,87.0,-114.0
126.0,125.0,127.0,125.0,126.0,126.0,112.0,127.0,28.0,-109.0,-68.0,127.0,127.0,127.0,116.0,87.0,-114.0
126.0,125.0,127.0,125.0,126.0,126.0,112.0,127.0,28.0,-109.0,-68.0,127.0,127.0,127.0,116.0,87.0,-114.0
126.0,125.0,127.0,125.0,126.0,126.0,112.0,127.0,28.0,-109.0,-68.0,127.0,127.0,127.0,116.0,87.0,-114.0
126.0,125.0,127.0,125.0,126.0,126.0,113.0,127.0,28.0,-109.0,-68.0,127.0,127.0,127.0,116.0,87.0,-114.0
126.0,125.0,127.0,125.0,126.0,126.0,113.0,127.0,28.0,-109.0,-68.0,127.0,127.0,127.0,116.0,87.0,-114.0
126.0,125.0,127.0,125.0,126.0,126.0,113.0,127.0,28.0,-109.0,-68.0,127.0,127.0,127.0,116.0,87.0,-114.0
126.0,126.0,127.0,125.0,126.0,126.0,112.0,127.0,28.0,-109.0,-68.0,127.0,127.0,127.0,116.0,87.0,-114.0
126.0,126.0,127.0,125.0,126.0,126.0,112.0,127.0,28.0,-109.0,-68.0,127.0,127.0,127.0,116.0,87.0,-114.0
126.0,126.0,127.0,125.0,126.0,126.0,113.0,127.0,28.0,-109.0,-68.0,127.0,127.0,127.0,116.0,87.0,-114.0
127.0,126.0,127.0,124.0,126.0,126.0,112.0,127.0,28.0,-109.0,-68.0,127.0,127.0,127.0,116.0,87.0,-114.0
127.0,125.0,127.0,124.0,126.0,126.0,111.0,127.0,28.0,-109.0,-68.0,127.0,127.0,127.0,116.0,87.0,-114.0
127.0,125.0,127.0,124.0,126.0,126.0,111.0,127.0,28.0,-109.0,-68.0,127.0,127.0,127.0,116.0,87.0,-114.0
127.0,125.0,127.0,124.0,126.0,126.0,112.0,127.0,28.0,-109.0,-68.0,127.0,127.0,127.0,116.0,87.0,-114.0
126.0,125.0,127.0,124.0,126.0,126.0,112.0,127.0,28.0,-109.0,-68.0,127.0,127.0,127.0,116.0,87.0,-114.0
126.0,125.0,127.0,124.0,126.0,126.0,112.0,127.0,28.0,-109.0,-68.0,127.0,127.0,127.0,116.0,87.0,-114.0
126.0,125.0,127.0,125.0,126.0,126.0,112.0,127.0,28.0,-109.0,-68.0,127.0,127.0,127.0,116.0,87.0,-114.0
127.0,126.0,127.0,125.0,126.0,126.0,111.0,127.0,28.0,-109.0,-68.0,127.0,127.0,127.0,116.0,87.0,-114.0
127.0,126.0,127.0,125.0,126.0,126.0,111.0,127.0,28.0,-109.0,-68.0,127.0,127.0,127.0,116.0,87.0,-114.0
126.0,125.0,127.0,124.0,126.0,126.0,113.0,127.0,28.0,-109.0,-68.0,127.0,127.0,127.0,116.0,87.0,-114.0
126.0,125.0,127.0,125.0,126.0,126.0,113.0,127.0,28.0,-109.0,-68.0,127.0,127.0,127.0,116.0,87.0,-114.0
126.0,125.0,127.0,125.0,126.0,126.0,112.0,127.0,28.0,-109.0,-68.0,127.0,127.0,127.0,116.0,87.0,-114.0
126.0,125.0,127.0,125.0,126.0,126.0,112.0,127.0,28.0,-109.0,-68.0,127.0,127.0,127.0,116.0,87.0,-114.0
126.0,125.0,127.0,125.0,126.0,126.0,112.0,127.0,28.0,-109.0,-68.0,127.0,127.0,127.0,116.0,87.0,-114.0
126.0,125.0,127.0,125.0,126.0,126.0,112.0,127.0,28.0,-109.0,-68.0,127.0,127.0,127.0,116.0,87.0,-114.0
126.0,125.0,127.0,125.0,126.0,126.0,113.0,127.0,28.0,-109.0,-68.0,127.0,127.0,127.0,116.0,87.0,-114.0
126.0,125.0,127.0,125.0,126.0,126.0,113.0,127.0,28.0,-109.0,-68.0,127.0,127.0,127.0,116.0,87.0,-114.0
126.0,125.0,127.0,125.0,126.0,126.0,113.0,127.0,28.0,-109.0,-68.0,127.0,127.0,127.0,116.0,87.0,-114.0
126.0,125.0,127.0,125.0,126.0,126.0,113.0,127.0,28.0,-109.0,-68.0,127.0,127.0,127.0,116.0,87.0,-114.0
126.0,125.0,127.0,125.0,126.0,126.0,113.0,127.0,28.0,-109.0,-68.0,127.0,127.0,127.0,116.0,87.0,-114.0
126.0,125.0,127.0,125.0,126.0,126.0,112.0,127.0,28.0,-109.0,-68.0,127.0,127.0,127.0,116.0,87.0,-114.0
126.0,125.0,127.0,125.0,126.0,126.0,112.0,127.0,28.0,-109.0,-68.0,127.0,127.0,127.0,116.0,87.0,-114.0
126.0,126.0,127.0,125.0,126.0,126.0,112.0,127.0,28.0,-109.0,-68.0,127.0,127.0,127.0,116.0,87.0,-114.0
126.0,125.0,127.0,125.0,126.0,126.0,112.0,127.0,28.0,-109.0,-68.0,127.0,127.0,127.0,116.0,87.0,-114.0
126.0,125.0,127.0,125.0,126.0,126.0,112.0,127.0,28.0,-109.0,-68.0,127.0,127.0,127.0,116.0,87.0,-114.0
126.0,125.0,127.0,125.0,126.0,126.0,113.0,127.0,28.0,-109.0,-68.0,127.0,127.0,127.0,116.0,87.0,-114.0
126.0,126.0,127.0,125.0,126.0,126.0,113.0,127.0,28.0,-109.0,-68.0,127.0,127.0,127.0,116.0,87.0,-114.0
126.0,125.0,127.0,125.0,126.0,126.0,112.0,127.0,28.0,-109.0,-68.0,127.0,127.0,127.0,116.0,87.0,-114.0
126.0,125.0,127.0,125.0,126.0,126.0,113.0,127.0,28.0,-109.0,-68.0,127.0,127.0,127.0,116.0,87.0,-114.0
126.0,125.0,127.0,125.0,126.0,126.0,112.0,127.0,28.0,-109.0,-68.0,127.0,127.0,127.0,116.0,87.0,-114.0
126.0,125.0,127.0,125.0,126.0,126.0,112.0,127.0,28.0,-109.0,-68.0,127.0,127.0,127.0,116.0,87.0,-114.0
126.0,126.0,127.0,125.0,126.0,126.0,112.0,127.0,28.0,-109.0,-68.0,127.0,127.0,127.0,116.0,87.0,-114.0
126.0,126.0,127.0,125.0,126.0,126.0,111.0,127.0,28.0,-109.0,-68.0,127.0,127.0,127.0,116.0,87.0,-114.0
126.0,126.0,127.0,125.0,126.0,126.0,112.0,127.0,28.0,-109.0,-68.0,127.0,127.0,127.0,116.0,87.0,-114.0
126.0,126.0,127.0,125.0,126.0,126.0,112.0,127.0,28.0,-109.0,-68.0,127.0,127.0,127.0,116.0,87.0,-114.0
126.0,126.0,127.0,125.0,126.0,126.0,113.0,127.0,28.0,-109.0,-68.0,127.0,127.0,127.0,116.0,87.0,-114.0
126.0,126.0,127.0,125.0,126.0,126.0,112.0,127.0,28.0,-109.0,-68.0,127.0,127.0,127.0,116.0,87.0,-114.0
126.0,125.0,127.0,125.0,126.0,126.0,112.0,127.0,28.0,-109.0,-68.0,127.0,127.0,127.0,116.0,87.0,-114.0
126.0,125.0,127.0,125.0,126.0,126.0,112.0,127.0,28.0,-109.0,-68.0,127.0,127.0,127.0,116.0,87.0,-114.0
126.0,125.0,127.0,125.0,126.0,126.0,112.0,127.0,28.0,-109.0,-68.0,127.0,127.0,127.0,116.0,87.0,-114.0
126.0,126.0,127.0,125.0,126.0,126.0,111.0,127.0,28.0,-109.0,-68.0,127.0,127.0,127.0,116.0,87.0,-114.0
126.0,126.0,127.0,125.0,126.0,126.0,112.0,127.0,28.0,-109.0,-68.0,127.0,127.0,127.0,116.0,87.0,-114.0
126.0,126.0,127.0,125.0,126.0,126.0,112.0,127.0,28.0,-109.0,-68.0,127.0,127.0,127.0,116.0,87.0,-114.0
126.0,126.0,127.0,125.0,126.0,126.0,111.0,127.0,28.0,-109.0,-68.0,127.0,127.0,127.0,116.0,87.0,-114.0
126.0,126.0,127.0,125.0,126.0,126.0,112.0,127.0,28.0,-109.0,-68.0,127.0,127.0,127.0,116.0,87.0,-114.0
126.0,126.0,127.0,125.0,126.0,126.0,112.0,127.0,28.0,-109.0,-68.0,127.0,127.0,127.0,116.0,87.0,-114.0
126.0,125.0,127.0,125.0,126.0,126.0,111.0,127.0,28.0,-109.0,-68.0,127.0,127.0,127.0,116.0,87.0,-114.0
126.0,125.0,127.0,125.0,126.0,126.0,112.0,127.0,28.0,-109.0,-68.0,127.0,127.0,127.0,116.0,87.0,-114.0
126.0,125.0,127.0,125.0,126.0,126.0,111.0,127.0,28.0,-109.0,-68.0,127.0,127.0,127.0,116.0,87.0,-114.0
126.0,125.0,127.0,125.0,126.0,126.0,111.0,127.0,28.0,-109.0,-68.0,127.0,127.0,127.0,116.0,87.0,-114.0
126.0,126.0,127.0,125.0,126.0,126.0,111.0,127.0,28.0,-109.0,-68.0,127.0,127.0,127.0,116.0,87.0,-114.0
126.0,126.0,127.0,125.0,126.0,126.0,111.0,127.0,28.0,-109.0,-68.0,127.0,127.0,127.0,116.0,87.0,-114.0
126.0,126.0,127.0,125.0,126.0,126.0,111.0,127.0,28.0,-109.0,-68.0,127.0,127.0,127.0,116.0,87.0,-114.0
126.0,126.0,127.0,125.0,126.0,126.0,111.0,127.0,28.0,-109.0,-68.0,127.0,127.0,127.0,116.0,87.0,-114.0
126.0,126.0,127.0,125.0,126.0,126.0,112.0,127.0,28.0,-109.0,-68.0,127.0,127.0,127.0,116.0,87.0,-114.0
126.0,126.0,127.0,125.0,126.0,126.0,112.0,127.0,28.0,-109.0,-68.0,127.0,127.0,127.0,116.0,87.0,-114.0
126.0,125.0,127.0,125.0,126.0,126.0,112.0,127.0,28.0,-109.0,-68.0,127.0,127.0,127.0,116.0,87.0,-114.0
126.0,125.0,127.0,125.0,126.0,126.0,112.0,127.0,28.0,-109.0,-68.0,127.0,127.0,127.0,116.0,87.0,-114.0
126.0,125.0,127.0,125.0,126.0,126.0,112.0,127.0,28.0,-109.0,-68.0,127.0,127.0,127.0,116.0,87.0,-114.0
126.0,126.0,127.0,125.0,126.0,126.0,112.0,127.0,28.0,-109.0,-68.0,127.0,127.0,127.0,116.0,87.0,-114.0
127.0,126.0,128.0,125.0,127.0,126.0,111.0,127.0,28.0,-109.0,-68.0,127.0,127.0,127.0,116.0,87.0,-114.0
127.0,126.0,128.0,125.0,127.0,126.0,111.0,128.0,28.0,-109.0,-68.0,127.0,127.0,127.0,116.0,87.0,-114.0
127.0,126.0,128.0,125.0,127.0,126.0,112.0,128.0,28.0,-109.0,-68.0,127.0,127.0,127.0,116.0,87.0,-114.0
127.0,126.0,127.0,126.0,126.0,126.0,112.0,127.0,28.0,-109.0,-68.0,127.0,127.0,127.0,116.0,87.0,-114.0
127.0,125.0,127.0,126.0,126.0,126.0,112.0,128.0,28.0,-109.0,-68.0,127.0,127.0,127.0,116.0,87.0,-114.0
127.0,125.0,127.0,126.0,126.0,126.0,112.0,128.0,28.0,-109.0,-68.0,127.0,127.0,127.0,116.0,87.0,-114.0
127.0,125.0,128.0,125.0,126.0,126.0,112.0,128.0,28.0,-109.0,-68.0,127.0,127.0,127.0,116.0,87.0,-114.0
127.0,125.0,128.0,125.0,126.0,126.0,112.0,128.0,28.0,-109.0,-68.0,127.0,127.0,127.0,116.0,87.0,-114.0
126.0,126.0,128.0,125.0,126.0,126.0,112.0,127.0,28.0,-109.0,-68.0,127.0,127.0,127.0,116.0,87.0,-114.0
127.0,126.0,128.0,125.0,127.0,126.0,112.0,127.0,28.0,-109.0,-68.0,127.0,127.0,127.0,116.0,87.0,-114.0
126.0,126.0,128.0,125.0,126.0,126.0,111.0,127.0,28.0,-109.0,-68.0,127.0,127.0,127.0,116.0,87.0,-114.0
126.0,126.0,128.0,125.0,126.0,126.0,112.0,127.0,28.0,-109.0,-68.0,127.0,127.0,127.0,116.0,87.0,-114.0
126.0,126.0,128.0,125.0,126.0,126.0,112.0,127.0,28.0,-109.0,-68.0,127.0,127.0,127.0,116.0,87.0,-114.0
126.0,126.0,128.0,125.0,126.0,126.0,112.0,127.0,28.0,-109.0,-68.0,127.0,127.0,127.0,116.0,87.0,-114.0
126.0,126.0,128.0,125.0,126.0,126.0,111.0,127.0,28.0,-109.0,-68.0,127.0,127.0,127.0,116.0,87.0,-114.0
126.0,126.0,128.0,125.0,126.0,126.0,111.0,127.0,28.0,-109.0,-68.0,127.0,127.0,127.0,116.0,87.0,-114.0
126.0,126.0,128.0,124.0,126.0,126.0,111.0,127.0,28.0,-109.0,-68.0,127.0,127.0,127.0,116.0,87.0,-114.0
126.0,126.0,128.0,124.0,126.0,126.0,111.0,127.0,28.0,-109.0,-68.0,127.0,127.0,127.0,116.0,87.0,-114.0
126.0,126.0,128.0,124.0,126.0,126.0,111.0,127.0,28.0,-109.0,-68.0,127.0,127.0,127.0,116.0,87.0,-114.0
126.0,126.0,128.0,125.0,126.0,126.0,111.0,127.0,28.0,-109.0,-68.0,127.0,127.0,127.0,116.0,87.0,-114.0
126.0,126.0,128.0,126.0,126.0,126.0,112.0,127.0,28.0,-109.0,-68.0,127.0,127.0,127.0,116.0,87.0,-114.0
126.0,125.0,127.0,125.0,126.0,127.0,112.0,127.0,28.0,-109.0,-68.0,127.0,127.0,127.0,116.0,87.0,-114.0
126.0,125.0,127.0,125.0,126.0,126.0,113.0,127.0,28.0,-109.0,-68.0,127.0,127.0,127.0,116.0,87.0,-114.0
126.0,125.0,127.0,125.0,126.0,126.0,112.0,127.0,28.0,-109.0,-68.0,127.0,127.0,127.0,116.0,87.0,-114.0
126.0,125.0,127.0,125.0,126.0,126.0,112.0,127.0,28.0,-109.0,-68.0,127.0,127.0,127.0,116.0,87.0,-114.0
126.0,125.0,127.0,125.0,126.0,126.0,111.0,127.0,28.0,-109.0,-68.0,127.0,127.0,127.0,116.0,87.0,-114.0
126.0,125.0,127.0,125.0,126.0,126.0,111.0,127.0,28.0,-109.0,-68.0,127.0,127.0,127.0,116.0,87.0,-114.0
126.0,125.0,128.0,125.0,126.0,126.0,112.0,127.0,28.0,-109.0,-68.0,127.0,127.0,127.0,116.0,87.0,-114.0
126.0,125.0,128.0,125.0,126.0,126.0,112.0,127.0,28.0,-109.0,-68.0,127.0,127.0,127.0,116.0,87.0,-114.0
126.0,126.0,127.0,126.0,126.0,126.0,112.0,127.0,28.0,-109.0,-68.0,127.0,127.0,127.0,116.0,87.0,-114.0
126.0,125.0,127.0,125.0,126.0,127.0,113.0,127.0,28.0,-109.0,-68.0,127.0,127.0,127.0,116.0,87.0,-114.0
126.0,125.0,127.0,125.0,126.0,127.0,112.0,127.0,28.0,-109.0,-68.0,127.0,127.0,127.0,116.0,87.0,-114.0
126.0,125.0,127.0,125.0,126.0,127.0,112.0,127.0,28.0,-109.0,-68.0,127.0,127.0,127.0,116.0,87.0,-114.0
126.0,125.0,127.0,125.0,126.0,127.0,112.0,127.0,28.0,-109.0,-68.0,127.0,127.0,127.0,116.0,87.0,-114.0
126.0,125.0,127.0,124.0,126.0,127.0,112.0,127.0,28.0,-109.0,-68.0,127.0,127.0,127.0,116.0,87.0,-114.0
126.0,125.0,127.0,124.0,126.0,127.0,112.0,127.0,28.0,-109.0,-68.0,127.0,127.0,127.0,116.0,87.0,-114.0
126.0,125.0,127.0,125.0,126.0,127.0,112.0,127.0,28.0,-109.0,-68.0,127.0,127.0,127.0,116.0,87.0,-114.0
126.0,125.0,127.0,124.0,126.0,127.0,112.0,127.0,28.0,-109.0,-68.0,127.0,127.0,127.0,116.0,87.0,-114.0
126.0,125.0,127.0,125.0,126.0,127.0,112.0,127.0,28.0,-109.0,-68.0,127.0,127.0,127.0,116.0,87.0,-114.0
126.0,125.0,127.0,125.0,126.0,127.0,112.0,127.0,28.0,-109.0,-68.0,127.0,127.0,127.0,116.0,87.0,-114.0
126.0,126.0,128.0,125.0,126.0,126.0,112.0,127.0,28.0,-109.0,-68.0,127.0,127.0,127.0,116.0,87.0,-114.0
126.0,126.0,128.0,125.0,126.0,126.0,112.0,127.0,28.0,-109.0,-68.0,127.0,127.0,127.0,116.0,87.0,-114.0
126.0,125.0,128.0,125.0,126.0,126.0,112.0,127.0,28.0,-109.0,-68.0,127.0,127.0,127.0,116.0,87.0,-114.0
126.0,125.0,128.0,125.0,126.0,126.0,112.0,127.0,28.0,-109.0,-68.0,127.0,127.0,127.0,116.0,87.0,-114.0
126.0,125.0,128.0,125.0,126.0,126.0,112.0,127.0,28.0,-109.0,-68.0,127.0,127.0,127.0,116.0,87.0,-114.0
126.0,126.0,128.0,125.0,126.0,126.0,111.0,127.0,28.0,-109.0,-68.0,127.0,127.0,127.0,116.0,87.0,-114.0
126.0,126.0,128.0,125.0,126.0,126.0,112.0,127.0,28.0,-109.0,-68.0,127.0,127.0,127.0,116.0,87.0,-114.0
126.0,126.0,128.0,125.0,126.0,126.0,111.0,127.0,28.0,-109.0,-68.0,127.0,127.0,127.0,116.0,87.0,-114.0
126.0,126.0,128.0,125.0,126.0,126.0,111.0,127.0,28.0,-109.0,-68.0,127.0,127.0,127.0,116.0,87.0,-114.0
126.0,126.0,128.0,125.0,126.0,126.0,112.0,127.0,28.0,-109.0,-68.0,127.0,127.0,127.0,116.0,87.0,-114.0
126.0,125.0,127.0,125.0,126.0,126.0,111.0,127.0,28.0,-109.0,-68.0,127.0,127.0,127.0,116.0,87.0,-114.0
126.0,125.0,127.0,125.0,126.0,126.0,112.0,127.0,28.0,-109.0,-68.0,127.0,127.0,127.0,116.0,87.0,-114.0
126.0,125.0,127.0,125.0,126.0,126.0,111.0,127.0,28.0,-109.0,-68.0,127.0,127.0,127.0,116.0,87.0,-114.0
126.0,125.0,127.0,125.0,126.0,126.0,112.0,127.0,28.0,-109.0,-68.0,127.0,127.0,127.0,116.0,87.0,-114.0
126.0,125.0,127.0,125.0,126.0,126.0,112.0,127.0,28.0,-109.0,-68.0,127.0,127.0,127.0,116.0,87.0,-114.0
126.0,125.0,127.0,125.0,126.0,126.0,111.0,127.0,28.0,-109.0,-68.0,127.0,127.0,127.0,116.0,87.0,-114.0
126.0,125.0,127.0,125.0,126.0,126.0,111.0,127.0,28.0,-109.0,-68.0,127.0,127.0,127.0,116.0,87.0,-114.0
126.0,126.0,127.0,125.0,126.0,126.0,111.0,127.0,28.0,-109.0,-68.0,127.0,127.0,127.0,116.0,87.0,-114.0
126.0,126.0,127.0,125.0,126.0,126.0,112.0,127.0,28.0,-109.0,-68.0,127.0,127.0,127.0,116.0,87.0,-114.0
126.0,126.0,127.0,125.0,126.0,126.0,111.0,127.0,28.0,-109.0,-68.0,127.0,127.0,127.0,116.0,87.0,-114.0
126.0,126.0,128.0,126.0,126.0,126.0,111.0,127.0,28.0,-109.0,-68.0,127.0,127.0,127.0,116.0,87.0,-114.0
126.0,125.0,128.0,126.0,126.0,126.0,111.0,127.0,28.0,-109.0,-68.0,127.0,127.0,127.0,116.0,87.0,-114.0
126.0,126.0,128.0,126.0,126.0,126.0,111.0,127.0,28.0,-109.0,-68.0,127.0,127.0,127.0,116.0,87.0,-114.0
126.0,125.0,128.0,126.0,126.0,126.0,111.0,127.0,28.0,-109.0,-68.0,127.0,127.0,127.0,116.0,87.0,-114.0
126.0,126.0,128.0,125.0,126.0,126.0,112.0,127.0,28.0,-109.0,-68.0,127.0,127.0,127.0,116.0,87.0,-114.0
126.0,126.0,128.0,126.0,126.0,126.0,112.0,127.0,28.0,-109.0,-68.0,127.0,127.0,127.0,116.0,87.0,-114.0
126.0,126.0,128.0,126.0,126.0,126.0,112.0,127.0,28.0,-109.0,-68.0,127.0,127.0,127.0,116.0,87.0,-114.0
126.0,126.0,127.0,126.0,126.0,126.0,112.0,127.0,28.0,-109.0,-68.0,127.0,127.0,127.0,116.0,87.0,-114.0
126.0,126.0,128.0,126.0,126.0,126.0,111.0,127.0,28.0,-109.0,-68.0,127.0,127.0,127.0,116.0,87.0,-114.0
126.0,126.0,128.0,126.0,126.0,126.0,111.0,127.0,28.0,-109.0,-68.0,127.0,127.0,127.0,116.0,87.0,-114.0
126.0,125.0,128.0,125.0,126.0,126.0,112.0,127.0,28.0,-109.0,-68.0,127.0,127.0,127.0,116.0,87.0,-114.0
126.0,126.0,128.0,125.0,126.0,126.0,112.0,127.0,28.0,-109.0,-68.0,127.0,127.0,127.0,116.0,87.0,-114.0
126.0,125.0,128.0,125.0,126.0,126.0,111.0,127.0,28.0,-109.0,-68.0,127.0,127.0,127.0,116.0,87.0,-114.0
126.0,126.0,128.0,125.0,126.0,126.0,112.0,127.0,28.0,-109.0,-68.0,127.0,127.0,127.0,116.0,87.0,-114.0
127.0,126.0,128.0,125.0,126.0,126.0,112.0,127.0,28.0,-109.0,-68.0,127.0,127.0,127.0,116.0,87.0,-114.0
127.0,126.0,128.0,125.0,126.0,126.0,111.0,127.0,28.0,-109.0,-68.0,127.0,127.0,127.0,116.0,87.0,-114.0
126.0,126.0,127.0,126.0,126.0,126.0,112.0,127.0,28.0,-109.0,-68.0,127.0,127.0,127.0,116.0,87.0,-114.0
126.0,126.0,128.0,125.0,126.0,126.0,112.0,127.0,28.0,-109.0,-68.0,127.0,127.0,127.0,116.0,87.0,-114.0
126.0,126.0,128.0,125.0,126.0,126.0,111.0,127.0,28.0,-109.0,-68.0,127.0,127.0,127.0,116.0,87.0,-114.0
126.0,126.0,128.0,125.0,126.0,126.0,111.0,127.0,28.0,-109.0,-68.0,127.0,127.0,127.0,116.0,87.0,-114.0
126.0,125.0,127.0,125.0,126.0,126.0,112.0,127.0,28.0,-109.0,-68.0,127.0,127.0,127.0,116.0,87.0,-114.0
126.0,125.0,127.0,125.0,126.0,126.0,112.0,127.0,28.0,-109.0,-68.0,127.0,127.0,127.0,116.0,87.0,-114.0
126.0,125.0,127.0,125.0,126.0,126.0,112.0,127.0,28.0,-109.0,-68.0,127.0,127.0,127.0,116.0,87.0,-114.0
127.0,126.0,127.0,125.0,126.0,126.0,111.0,127.0,28.0,-109.0,-68.0,127.0,127.0,127.0,116.0,87.0,-114.0
127.0,126.0,127.0,125.0,126.0,126.0,112.0,127.0,28.0,-109.0,-68.0,127.0,127.0,127.0,116.0,87.0,-114.0
126.0,125.0,127.0,125.0,126.0,126.0,112.0,127.0,28.0,-109.0,-68.0,127.0,127.0,127.0,116.0,87.0,-114.0
126.0,125.0,127.0,125.0,126.0,126.0,112.0,127.0,28.0,-109.0,-68.0,127.0,127.0,127.0,116.0,87.0,-114.0
126.0,126.0,127.0,125.0,126.0,126.0,112.0,127.0,28.0,-109.0,-68.0,127.0,127.0,127.0,116.0,87.0,-114.0
126.0,125.0,127.0,125.0,126.0,126.0,111.0,127.0,28.0,-109.0,-68.0,127.0,127.0,127.0,116.0,87.0,-114.0
126.0,125.0,127.0,125.0,126.0,126.0,112.0,127.0,28.0,-109.0,-68.0,127.0,127.0,127.0,116.0,87.0,-114.0
126.0,125.0,127.0,125.0,126.0,126.0,112.0,128.0,28.0,-109.0,-68.0,127.0,127.0,127.0,116.0,87.0,-114.0
126.0,126.0,127.0,125.0,127.0,126.0,112.0,127.0,28.0,-109.0,-68.0,127.0,127.0,127.0,116.0,87.0,-114.0
126.0,126.0,127.0,125.0,127.0,126.0,112.0,127.0,28.0,-109.0,-68.0,127.0,127.0,127.0,116.0,87.0,-114.0
126.0,126.0,127.0,125.0,127.0,126.0,112.0,128.0,28.0,-109.0,-68.0,127.0,127.0,127.0,116.0,87.0,-114.0
126.0,126.0,127.0,125.0,126.0,126.0,112.0,127.0,28.0,-109.0,-68.0,127.0,127.0,127.0,116.0,87.0,-114.0
126.0,126.0,127.0,125.0,127.0,126.0,112.0,127.0,28.0,-109.0,-68.0,127.0,127.0,127.0,116.0,87.0,-114.0
126.0,126.0,127.0,125.0,127.0,126.0,112.0,128.0,28.0,-109.0,-68.0,127.0,127.0,127.0,116.0,87.0,-114.0
126.0,125.0,127.0,125.0,127.0,126.0,112.0,128.0,28.0,-109.0,-68.0,127.0,127.0,127.0,116.0,87.0,-114.0
126.0,125.0,127.0,125.0,126.0,126.0,112.0,128.0,28.0,-109.0,-68.0,127.0,127.0,127.0,116.0,87.0,-114.0
126.0,125.0,127.0,125.0,126.0,126.0,112.0,127.0,28.0,-109.0,-68.0,127.0,127.0,127.0,116.0,87.0,-114.0
126.0,125.0,127.0,126.0,126.0,126.0,112.0,127.0,28.0,-109.0,-68.0,127.0,127.0,127.0,116.0,87.0,-114.0
126.0,125.0,127.0,126.0,126.0,126.0,112.0,127.0,28.0,-109.0,-68.0,127.0,127.0,127.0,116.0,87.0,-114.0
126.0,125.0,127.0,126.0,126.0,126.0,112.0,127.0,28.0,-109.0,-68.0,127.0,127.0,127.0,116.0,87.0,-114.0
126.0,126.0,127.0,126.0,126.0,126.0,112.0,127.0,28.0,-109.0,-68.0,127.0,127.0,127.0,116.0,87.0,-114.0
126.0,126.0,127.0,126.0,126.0,126.0,112.0,127.0,28.0,-109.0,-68.0,127.0,127.0,127.0,116.0,87.0,-114.0
126.0,126.0,127.0,126.0,126.0,126.0,111.0,127.0,28.0,-109.0,-68.0,127.0,127.0,127.0,116.0,87.0,-114.0
126.0,126.0,127.0,126.0,126.0,126.0,111.0,127.0,28.0,-109.0,-68.0,127.0,127.0,127.0,116.0,87.0,-114.0
126.0,125.0,128.0,126.0,126.0,126.0,111.0,127.0,28.0,-109.0,-68.0,127.0,127.0,127.0,116.0,87.0,-114.0
126.0,125.0,127.0,126.0,126.0,126.0,111.0,127.0,28.0,-109.0,-68.0,127.0,127.0,127.0,116.0,87.0,-114.0
126.0,125.0,127.0,126.0,126.0,126.0,111.0,127.0,28.0,-109.0,-68.0,127.0,127.0,127.0,116.0,87.0,-114.0
126.0,125.0,128.0,125.0,126.0,126.0,113.0,127.0,28.0,-109.0,-68.0,127.0,127.0,127.0,116.0,87.0,-114.0
126.0,125.0,128.0,125.0,126.0,126.0,112.0,127.0,28.0,-109.0,-68.0,127.0,127.0,127.0,116.0,87.0,-114.0
126.0,125.0,127.0,125.0,126.0,126.0,113.0,128.0,28.0,-109.0,-68.0,127.0,127.0,127.0,116.0,87.0,-114.0
126.0,125.0,127.0,125.0,126.0,126.0,113.0,127.0,28.0,-109.0,-68.0,127.0,127.0,127.0,116.0,87.0,-114.0
126.0,125.0,127.0,125.0,126.0,126.0,113.0,127.0,28.0,-109.0,-68.0,127.0,127.0,127.0,116.0,87.0,-114.0
126.0,125.0,127.0,125.0,126.0,126.0,113.0,127.0,28.0,-109.0,-68.0,127.0,127.0,127.0,116.0,87.0,-114.0
126.0,125.0,127.0,125.0,126.0,126.0,112.0,127.0,28.0,-109.0,-68.0,127.0,127.0,127.0,116.0,87.0,-114.0
126.0,125.0,127.0,125.0,126.0,126.0,112.0,127.0,28.0,-109.0,-68.0,127.0,127.0,127.0,116.0,87.0,-114.0
126.0,125.0,128.0,125.0,126.0,126.0,113.0,127.0,28.0,-109.0,-68.0,127.0,127.0,127.0,116.0,87.0,-114.0
126.0,125.0,128.0,125.0,126.0,126.0,113.0,127.0,28.0,-109.0,-68.0,127.0,127.0,127.0,116.0,87.0,-114.0
126.0,126.0,128.0,125.0,126.0,126.0,112.0,127.0,28.0,-109.0,-68.0,127.0,127.0,127.0,116.0,87.0,-114.0
126.0,126.0,127.0,125.0,126.0,126.0,112.0,127.0,28.0,-109.0,-68.0,127.0,127.0,127.0,116.0,87.0,-114.0
126.0,126.0,128.0,125.0,126.0,126.0,112.0,127.0,28.0,-109.0,-68.0,127.0,127.0,127.0,116.0,87.0,-114.0
126.0,125.0,128.0,125.0,126.0,126.0,112.0,127.0,28.0,-109.0,-68.0,127.0,127.0,127.0,116.0,87.0,-114.0
126.0,125.0,128.0,125.0,126.0,126.0,112.0,127.0,28.0,-109.0,-68.0,127.0,127.0,127.0,116.0,87.0,-114.0
126.0,126.0,128.0,125.0,126.0,126.0,112.0,127.0,28.0,-109.0,-68.0,127.0,127.0,127.0,116.0,87.0,-114.0
126.0,126.0,128.0,125.0,126.0,126.0,112.0,127.0,28.0,-109.0,-68.0,127.0,127.0,127.0,116.0,87.0,-114.0
126.0,126.0,128.0,125.0,126.0,126.0,112.0,127.0,28.0,-109.0,-68.0,127.0,127.0,127.0,116.0,87.0,-114.0
126.0,126.0,128.0,125.0,126.0,126.0,112.0,127.0,28.0,-109.0,-68.0,127.0,127.0,127.0,116.0,87.0,-114.0
126.0,126.0,128.0,125.0,126.0,126.0,112.0,127.0,28.0,-109.0,-68.0,127.0,127.0,127.0,116.0,87.0,-114.0
126.0,126.0,127.0,126.0,127.0,126.0,112.0,127.0,28.0,-109.0,-68.0,127.0,127.0,127.0,116.0,87.0,-114.0
126.0,125.0,127.0,126.0,127.0,126.0,112.0,127.0,28.0,-109.0,-68.0,127.0,127.0,127.0,116.0,87.0,-114.0
126.0,125.0,127.0,126.0,127.0,126.0,112.0,127.0,28.0,-109.0,-68.0,127.0,127.0,127.0,116.0,87.0,-114.0
126.0,125.0,127.0,126.0,127.0,126.0,112.0,127.0,28.0,-109.0,-68.0,127.0,127.0,127.0,116.0,87.0,-114.0
126.0,125.0,127.0,126.0,127.0,126.0,111.0,127.0,28.0,-109.0,-68.0,127.0,127.0,127.0,116.0,87.0,-114.0
126.0,125.0,127.0,125.0,127.0,126.0,111.0,127.0,28.0,-109.0,-68.0,127.0,127.0,127.0,116.0,87.0,-114.0
126.0,125.0,127.0,125.0,127.0,126.0,112.0,127.0,28.0,-109.0,-68.0,127.0,127.0,127.0,116.0,87.0,-114.0
126.0,125.0,127.0,125.0,127.0,126.0,111.0,127.0,28.0,-109.0,-68.0,127.0,127.0,127.0,116.0,87.0,-114.0
126.0,125.0,127.0,125.0,127.0,126.0,111.0,127.0,28.0,-109.0,-68.0,127.0,127.0,127.0,116.0,87.0,-114.0
126.0,125.0,126.0,125.0,127.0,126.0,111.0,127.0,28.0,-109.0,-68.0,127.0,127.0,127.0,116.0,87.0,-114.0
126.0,127.0,125.0,128.0,127.0,126.0,112.0,128.0,28.0,-109.0,-68.0,127.0,127.0,127.0,116.0,87.0,-114.0
126.0,126.0,125.0,128.0,127.0,126.0,112.0,128.0,28.0,-109.0,-68.0,127.0,127.0,127.0,116.0,87.0,-114.0
126.0,126.0,125.0,127.0,127.0,126.0,112.0,128.0,28.0,-109.0,-68.0,127.0,127.0,127.0,116.0,87.0,-114.0
126.0,126.0,125.0,127.0,127.0,126.0,112.0,128.0,28.0,-109.0,-68.0,127.0,127.0,127.0,116.0,87.0,-114.0
126.0,126.0,125.0,127.0,127.0,126.0,111.0,128.0,28.0,-109.0,-68.0,127.0,127.0,127.0,116.0,87.0,-114.0
126.0,126.0,125.0,127.0,127.0,126.0,111.0,128.0,28.0,-109.0,-68.0,127.0,127.0,127.0,116.0,87.0,-114.0
126.0,125.0,125.0,127.0,127.0,126.0,111.0,128.0,28.0,-109.0,-68.0,127.0,127.0,127.0,116.0,87.0,-114.0
126.0,125.0,125.0,127.0,127.0,126.0,111.0,128.0,28.0,-109.0,-68.0,127.0,127.0,127.0,116.0,87.0,-114.0
126.0,125.0,125.0,127.0,127.0,126.0,111.0,128.0,28.0,-109.0,-68.0,127.0,127.0,127.0,116.0,87.0,-114.0
127.0,127.0,125.0,128.0,127.0,126.0,112.0,128.0,28.0,-109.0,-68.0,127.0,127.0,127.0,116.0,87.0,-114.0
126.0,126.0,123.0,126.0,126.0,126.0,111.0,129.0,28.0,-109.0,-68.0,127.0,127.0,127.0,116.0,87.0,-114.0
126.0,127.0,123.0,125.0,126.0,126.0,111.0,128.0,28.0,-109.0,-68.0,127.0,127.0,127.0,116.0,87.0,-114.0
126.0,127.0,124.0,125.0,126.0,125.0,110.0,127.0,28.0,-109.0,-68.0,127.0,127.0,127.0,116.0,87.0,-114.0
126.0,127.0,124.0,125.0,126.0,125.0,110.0,126.0,28.0,-109.0,-68.0,127.0,127.0,127.0,116.0,87.0,-114.0
126.0,127.0,124.0,125.0,126.0,125.0,110.0,126.0,28.0,-109.0,-68.0,127.0,127.0,127.0,116.0,87.0,-114.0
126.0,127.0,124.0,124.0,126.0,125.0,111.0,125.0,28.0,-109.0,-68.0,127.0,127.0,127.0,116.0,87.0,-114.0
126.0,127.0,124.0,124.0,126.0,125.0,111.0,124.0,28.0,-109.0,-68.0,127.0,127.0,127.0,116.0,87.0,-114.0
126.0,128.0,124.0,124.0,126.0,125.0,111.0,124.0,28.0,-109.0,-68.0,127.0,127.0,127.0,116.0,87.0,-114.0
126.0,128.0,124.0,124.0,126.0,125.0,111.0,124.0,28.0,-109.0,-68.0,127.0,127.0,127.0,116.0,87.0,-114.0
127.0,126.0,123.0,126.0,126.0,126.0,111.0,130.0,28.0,-109.0,-68.0,127.0,127.0,127.0,116.0,87.0,-114.0
124.0,123.0,121.0,126.0,125.0,124.0,108.0,118.0,28.0,-109.0,-68.0,127.0,127.0,127.0,116.0,87.0,-114.0
124.0,123.0,121.0,127.0,125.0,124.0,109.0,119.0,28.0,-109.0,-68.0,127.0,127.0,127.0,116.0,87.0,-114.0
124.0,123.0,120.0,127.0,126.0,124.0,108.0,119.0,28.0,-109.0,-68.0,127.0,127.0,127.0,116.0,87.0,-114.0
124.0,123.0,120.0,128.0,126.0,124.0,107.0,121.0,28.0,-109.0,-68.0,127.0,127.0,127.0,116.0,87.0,-114.0
124.0,123.0,120.0,129.0,126.0,124.0,108.0,122.0,28.0,-109.0,-68.0,127.0,127.0,127.0,116.0,87.0,-114.0
124.0,122.0,120.0,129.0,126.0,124.0,108.0,123.0,28.0,-109.0,-68.0,127.0,127.0,127.0,116.0,87.0,-114.0
124.0,122.0,120.0,129.0,127.0,124.0,108.0,124.0,28.0,-109.0,-68.0,127.0,127.0,127.0,116.0,87.0,-114.0
125.0,124.0,121.0,125.0,125.0,124.0,108.0,118.0,28.0,-109.0,-68.0,127.0,127.0,127.0,116.0,87.0,-114.0
125.0,123.0,121.0,125.0,125.0,124.0,108.0,118.0,28.0,-109.0,-68.0,127.0,127.0,127.0,116.0,87.0,-114.0
124.0,123.0,121.0,125.0,125.0,124.0,108.0,118.0,28.0,-109.0,-68.0,127.0,127.0,127.0,116.0,87.0,-114.0
126.0,126.0,124.0,133.0,128.0,124.0,109.0,127.0,28.0,-110.0,-69.0,127.0,127.0,127.0,116.0,87.0,-114.0
126.0,126.0,125.0,133.0,128.0,124.0,109.0,127.0,28.0,-110.0,-69.0,127.0,127.0,127.0,116.0,87.0,-114.0
126.0,126.0,125.0,133.0,128.0,124.0,108.0,127.0,28.0,-110.0,-69.0,127.0,127.0,127.0,116.0,87.0,-114.0
126.0,126.0,125.0,133.0,128.0,124.0,108.0,127.0,28.0,-110.0,-69.0,127.0,127.0,127.0,116.0,87.0,-114.0
126.0,126.0,126.0,133.0,129.0,124.0,109.0,127.0,28.0,-110.0,-69.0,127.0,127.0,127.0,116.0,87.0,-114.0
126.0,126.0,127.0,133.0,129.0,124.0,109.0,127.0,28.0,-110.0,-69.0,127.0,127.0,127.0,116.0,87.0,-114.0
126.0,126.0,124.0,131.0,128.0,124.0,108.0,127.0,28.0,-110.0,-69.0,127.0,127.0,127.0,116.0,87.0,-114.0
126.0,126.0,124.0,132.0,128.0,124.0,108.0,127.0,28.0,-110.0,-69.0,127.0,127.0,127.0,116.0,87.0,-114.0
126.0,126.0,124.0,132.0,128.0,124.0,109.0,127.0,28.0,-110.0,-69.0,127.0,127.0,127.0,116.0,87.0,-114.0
126.0,126.0,124.0,132.0,128.0,124.0,109.0,127.0,28.0,-110.0,-69.0,127.0,127.0,127.0,116.0,87.0,-114.0
128.0,126.0,154.0,131.0,130.0,125.0,110.0,135.0,28.0,-110.0,-69.0,127.0,127.0,127.0,116.0,87.0,-114.0
127.0,125.0,155.0,132.0,130.0,124.0,109.0,134.0,28.0,-110.0,-69.0,127.0,127.0,127.0,116.0,87.0,-114.0
127.0,125.0,157.0,134.0,130.0,124.0,109.0,134.0,28.0,-110.0,-69.0,127.0,127.0,127.0,116.0,87.0,-114.0
126.0,124.0,159.0,135.0,130.0,124.0,109.0,133.0,28.0,-110.0,-69.0,127.0,127.0,127.0,116.0,87.0,-114.0
126.0,123.0,162.0,136.0,131.0,124.0,109.0,132.0,28.0,-110.0,-69.0,127.0,127.0,127.0,116.0,87.0,-114.0
125.0,123.0,164.0,136.0,131.0,124.0,109.0,132.0,28.0,-110.0,-69.0,127.0,127.0,127.0,116.0,87.0,-114.0
129.0,129.0,154.0,129.0,131.0,125.0,110.0,136.0,28.0,-110.0,-69.0,127.0,127.0,127.0,116.0,87.0,-114.0
129.0,128.0,153.0,129.0,130.0,125.0,110.0,136.0,28.0,-110.0,-69.0,127.0,127.0,127.0,116.0,87.0,-114.0
129.0,127.0,152.0,129.0,130.0,125.0,110.0,136.0,28.0,-110.0,-69.0,127.0,127.0,127.0,116.0,87.0,-114.0
128.0,126.0,153.0,130.0,130.0,125.0,110.0,135.0,28.0,-110.0,-69.0,127.0,127.0,127.0,116.0,87.0,-114.0
129.0,123.0,161.0,127.0,130.0,128.0,108.0,144.0,28.0,-111.0,-68.0,-128.0,127.0,127.0,116.0,87.0,-114.0
129.0,123.0,160.0,127.0,130.0,128.0,107.0,144.0,28.0,-111.0,-68.0,-128.0,127.0,127.0,116.0,87.0,-114.0
129.0,122.0,158.0,127.0,130.0,128.0,107.0,144.0,28.0,-111.0,-68.0,-128.0,127.0,127.0,116.0,87.0,-114.0
128.0,122.0,157.0,127.0,130.0,127.0,106.0,143.0,28.0,-111.0,-68.0,-128.0,127.0,127.0,116.0,87.0,-114.0
129.0,122.0,157.0,127.0,130.0,127.0,106.0,143.0,28.0,-111.0,-68.0,-128.0,127.0,127.0,116.0,87.0,-114.0
129.0,129.0,169.0,130.0,131.0,128.0,107.0,140.0,28.0,-111.0,-68.0,-128.0,127.0,127.0,116.0,87.0,-114.0
129.0,128.0,168.0,129.0,131.0,128.0,107.0,141.0,28.0,-111.0,-68.0,-128.0,127.0,127.0,116.0,87.0,-114.0
129.0,126.0,167.0,129.0,131.0,128.0,107.0,142.0,28.0,-111.0,-68.0,-128.0,127.0,127.0,116.0,87.0,-114.0
130.0,125.0,165.0,128.0,131.0,128.0,108.0,143.0,28.0,-111.0,-68.0,-128.0,127.0,127.0,116.0,87.0,-114.0
129.0,124.0,163.0,128.0,131.0,128.0,108.0,144.0,28.0,-111.0,-68.0,-128.0,127.0,127.0,116.0,87.0,-114.0
128.0,130.0,158.0,136.0,132.0,130.0,111.0,125.0,28.0,-112.0,-69.0,-128.0,127.0,127.0,116.0,87.0,-114.0
128.0,132.0,157.0,136.0,132.0,130.0,111.0,126.0,28.0,-112.0,-69.0,-128.0,127.0,127.0,116.0,87.0,-114.0
129.0,134.0,156.0,136.0,132.0,130.0,111.0,127.0,28.0,-112.0,-69.0,-128.0,127.0,127.0,116.0,87.0,-114.0
130.0,134.0,154.0,135.0,132.0,130.0,111.0,128.0,28.0,-112.0,-69.0,-128.0,127.0,127.0,116.0,87.0,-114.0
126.0,135.0,165.0,138.0,134.0,131.0,112.0,123.0,28.0,-112.0,-69.0,-128.0,127.0,127.0,116.0,87.0,-114.0
126.0,134.0,164.0,138.0,133.0,130.0,112.0,123.0,28.0,-112.0,-69.0,-128.0,127.0,127.0,116.0,87.0,-114.0
126.0,132.0,163.0,137.0,133.0,130.0,111.0,122.0,28.0,-112.0,-69.0,-128.0,127.0,127.0,116.0,87.0,-114.0
125.0,131.0,162.0,137.0,133.0,130.0,111.0,122.0,28.0,-112.0,-69.0,-128.0,127.0,127.0,116.0,87.0,-114.0
126.0,130.0,160.0,136.0,133.0,130.0,111.0,123.0,28.0,-112.0,-69.0,-128.0,127.0,127.0,116.0,87.0,-114.0
127.0,130.0,159.0,136.0,132.0,130.0,110.0,123.0,28.0,-112.0,-69.0,-128.0,127.0,127.0,116.0,87.0,-114.0
131.0,133.0,164.0,133.0,131.0,129.0,109.0,136.0,28.0,-112.0,-70.0,-128.0,127.0,127.0,116.0,87.0,-114.0
130.0,132.0,163.0,134.0,131.0,129.0,109.0,136.0,28.0,-112.0,-70.0,-128.0,127.0,127.0,116.0,87.0,-114.0
130.0,131.0,163.0,135.0,131.0,129.0,109.0,135.0,28.0,-112.0,-70.0,-128.0,127.0,127.0,116.0,87.0,-114.0
134.0,139.0,166.0,129.0,132.0,131.0,112.0,137.0,28.0,-112.0,-70.0,-128.0,127.0,127.0,116.0,87.0,-114.0
134.0,139.0,169.0,129.0,131.0,130.0,111.0,137.0,28.0,-112.0,-70.0,-128.0,127.0,127.0,116.0,87.0,-114.0
134.0,139.0,169.0,129.0,131.0,130.0,111.0,137.0,28.0,-112.0,-70.0,-128.0,127.0,127.0,116.0,87.0,-114.0
133.0,139.0,169.0,130.0,131.0,130.0,111.0,137.0,28.0,-112.0,-70.0,-128.0,127.0,127.0,116.0,87.0,-114.0
133.0,138.0,168.0,131.0,131.0,130.0,110.0,137.0,28.0,-112.0,-70.0,-128.0,127.0,127.0,116.0,87.0,-114.0
132.0,136.0,166.0,131.0,130.0,129.0,110.0,137.0,28.0,-112.0,-70.0,-128.0,127.0,127.0,116.0,87.0,-114.0
131.0,135.0,165.0,132.0,130.0,129.0,110.0,136.0,28.0,-112.0,-70.0,-128.0,127.0,127.0,116.0,87.0,-114.0
124.0,120.0,127.0,125.0,124.0,128.0,106.0,136.0,28.0,-113.0,-70.0,-128.0,127.0,127.0,116.0,87.0,-114.0
124.0,118.0,125.0,125.0,124.0,128.0,106.0,136.0,28.0,-113.0,-70.0,-128.0,127.0,127.0,116.0,87.0,-114.0
127.0,123.0,126.0,128.0,124.0,128.0,108.0,136.0,28.0,-113.0,-70.0,-128.0,127.0,127.0,116.0,87.0,-114.0
127.0,123.0,128.0,128.0,124.0,128.0,107.0,136.0,28.0,-113.0,-70.0,-128.0,127.0,127.0,116.0,87.0,-114.0
126.0,123.0,131.0,128.0,124.0,127.0,107.0,135.0,28.0,-113.0,-70.0,-128.0,127.0,127.0,116.0,87.0,-114.0
126.0,123.0,131.0,128.0,124.0,127.0,107.0,135.0,28.0,-113.0,-70.0,-128.0,127.0,127.0,116.0,87.0,-114.0
125.0,123.0,131.0,127.0,124.0,127.0,106.0,136.0,28.0,-113.0,-70.0,-128.0,127.0,127.0,116.0,87.0,-114.0
125.0,122.0,130.0,127.0,123.0,127.0,106.0,136.0,28.0,-113.0,-70.0,-128.0,127.0,127.0,116.0,87.0,-114.0
125.0,122.0,130.0,126.0,124.0,127.0,106.0,136.0,28.0,-113.0,-70.0,-128.0,127.0,127.0,116.0,87.0,-114.0
124.0,121.0,128.0,125.0,124.0,127.0,106.0,136.0,28.0,-113.0,-70.0,-128.0,127.0,127.0,116.0,87.0,-114.0
123.0,131.0,90.0,132.0,128.0,128.0,107.0,121.0,28.0,-111.0,-69.0,-128.0,127.0,127.0,116.0,87.0,-114.0
125.0,133.0,90.0,132.0,128.0,128.0,107.0,120.0,28.0,-111.0,-69.0,-128.0,127.0,127.0,116.0,87.0,-114.0
126.0,134.0,89.0,132.0,128.0,127.0,107.0,120.0,28.0,-111.0,-69.0,-128.0,127.0,127.0,116.0,87.0,-114.0
127.0,135.0,87.0,132.0,127.0,127.0,107.0,119.0,28.0,-111.0,-69.0,-128.0,127.0,127.0,116.0,87.0,-114.0
128.0,135.0,87.0,132.0,127.0,127.0,109.0,119.0,28.0,-111.0,-69.0,-128.0,127.0,127.0,116.0,87.0,-114.0
128.0,135.0,86.0,132.0,127.0,127.0,111.0,119.0,28.0,-111.0,-69.0,-128.0,127.0,127.0,116.0,87.0,-114.0
129.0,134.0,85.0,132.0,127.0,127.0,111.0,121.0,28.0,-111.0,-69.0,-128.0,127.0,127.0,116.0,87.0,-114.0
130.0,134.0,83.0,133.0,127.0,127.0,108.0,122.0,28.0,-111.0,-69.0,-128.0,127.0,127.0,116.0,87.0,-114.0
130.0,133.0,82.0,133.0,128.0,127.0,106.0,123.0,28.0,-111.0,-69.0,-128.0,127.0,127.0,116.0,87.0,-114.0
130.0,132.0,82.0,133.0,128.0,127.0,107.0,124.0,28.0,-111.0,-69.0,-128.0,127.0,127.0,116.0,87.0,-114.0
125.0,120.0,93.0,133.0,127.0,127.0,108.0,123.0,28.0,-108.0,-69.0,-128.0,127.0,127.0,116.0,87.0,-114.0
125.0,120.0,93.0,132.0,126.0,127.0,112.0,122.0,28.0,-108.0,-69.0,-128.0,127.0,127.0,116.0,87.0,-114.0
125.0,120.0,93.0,132.0,126.0,126.0,112.0,121.0,28.0,-108.0,-69.0,-128.0,127.0,127.0,116.0,87.0,-114.0
124.0,120.0,93.0,132.0,126.0,126.0,112.0,121.0,28.0,-108.0,-69.0,-128.0,127.0,127.0,116.0,87.0,-114.0
124.0,119.0,94.0,132.0,126.0,126.0,111.0,121.0,28.0,-108.0,-69.0,-128.0,127.0,127.0,116.0,87.0,-114.0
124.0,118.0,94.0,131.0,126.0,126.0,111.0,121.0,28.0,-108.0,-69.0,-128.0,127.0,127.0,116.0,87.0,-114.0
125.0,119.0,94.0,131.0,126.0,126.0,112.0,121.0,28.0,-108.0,-69.0,-128.0,127.0,127.0,116.0,87.0,-114.0
125.0,120.0,94.0,131.0,126.0,126.0,111.0,121.0,28.0,-108.0,-69.0,-128.0,127.0,127.0,116.0,87.0,-114.0
126.0,121.0,94.0,131.0,126.0,126.0,111.0,122.0,28.0,-108.0,-69.0,-128.0,127.0,127.0,116.0,87.0,-114.0
126.0,121.0,93.0,133.0,127.0,127.0,106.0,123.0,28.0,-108.0,-69.0,-128.0,127.0,127.0,116.0,87.0,-114.0
125.0,124.0,95.0,128.0,125.0,126.0,113.0,127.0,28.0,-106.0,-70.0,-128.0,127.0,127.0,116.0,87.0,-114.0
125.0,124.0,95.0,128.0,125.0,126.0,112.0,126.0,28.0,-106.0,-70.0,-128.0,127.0,127.0,116.0,87.0,-114.0
126.0,125.0,94.0,128.0,125.0,127.0,112.0,126.0,28.0,-106.0,-70.0,-128.0,127.0,127.0,116.0,87.0,-114.0
126.0,124.0,93.0,127.0,125.0,127.0,112.0,126.0,28.0,-106.0,-70.0,-128.0,127.0,127.0,116.0,87.0,-114.0
126.0,124.0,93.0,127.0,125.0,127.0,112.0,125.0,28.0,-106.0,-70.0,-128.0,127.0,127.0,116.0,87.0,-114.0
125.0,123.0,93.0,128.0,125.0,127.0,113.0,125.0,28.0,-106.0,-70.0,-128.0,127.0,127.0,116.0,87.0,-114.0
125.0,123.0,93.0,128.0,125.0,127.0,113.0,125.0,28.0,-106.0,-70.0,-128.0,127.0,127.0,116.0,87.0,-114.0
125.0,122.0,93.0,128.0,125.0,127.0,112.0,125.0,28.0,-106.0,-70.0,-128.0,127.0,127.0,116.0,87.0,-114.0
125.0,123.0,96.0,128.0,125.0,126.0,112.0,128.0,28.0,-106.0,-70.0,-128.0,127.0,127.0,116.0,87.0,-114.0
125.0,123.0,96.0,128.0,125.0,126.0,113.0,127.0,28.0,-106.0,-70.0,-128.0,127.0,127.0,116.0,87.0,-114.0
124.0,127.0,116.0,130.0,125.0,126.0,111.0,126.0,27.0,-105.0,-70.0,-128.0,127.0,127.0,116.0,87.0,-114.0
124.0,128.0,116.0,130.0,125.0,126.0,111.0,126.0,27.0,-105.0,-70.0,-128.0,127.0,127.0,116.0,87.0,-114.0
124.0,128.0,115.0,130.0,125.0,126.0,110.0,126.0,27.0,-105.0,-70.0,-128.0,127.0,127.0,116.0,87.0,-114.0
124.0,128.0,115.0,129.0,125.0,126.0,110.0,127.0,27.0,-105.0,-70.0,-128.0,127.0,127.0,116.0,87.0,-114.0
124.0,127.0,116.0,129.0,125.0,126.0,111.0,127.0,27.0,-105.0,-70.0,-128.0,127.0,127.0,116.0,87.0,-114.0
124.0,127.0,118.0,129.0,125.0,126.0,111.0,127.0,27.0,-105.0,-70.0,-128.0,127.0,127.0,116.0,87.0,-114.0
124.0,126.0,119.0,129.0,125.0,126.0,111.0,127.0,27.0,-105.0,-70.0,-128.0,127.0,127.0,116.0,87.0,-114.0
124.0,126.0,116.0,130.0,125.0,126.0,112.0,126.0,27.0,-105.0,-70.0,-128.0,127.0,127.0,116.0,87.0,-114.0
124.0,126.0,115.0,130.0,124.0,126.0,112.0,126.0,27.0,-105.0,-70.0,-128.0,127.0,127.0,116.0,87.0,-114.0
124.0,127.0,116.0,130.0,125.0,126.0,112.0,126.0,27.0,-105.0,-70.0,-128.0,127.0,127.0,116.0,87.0,-114.0
122.0,121.0,124.0,131.0,124.0,125.0,110.0,126.0,26.0,-103.0,-69.0,-128.0,127.0,127.0,116.0,87.0,-114.0
122.0,121.0,123.0,131.0,124.0,125.0,110.0,125.0,26.0,-103.0,-69.0,-128.0,127.0,127.0,116.0,87.0,-114.0
122.0,121.0,122.0,131.0,124.0,125.0,109.0,124.0,26.0,-103.0,-69.0,-128.0,127.0,127.0,116.0,87.0,-114.0
122.0,122.0,122.0,131.0,124.0,124.0,109.0,123.0,26.0,-103.0,-69.0,-128.0,127.0,127.0,116.0,87.0,-114.0
123.0,123.0,121.0,130.0,124.0,124.0,109.0,123.0,26.0,-103.0,-69.0,-128.0,127.0,127.0,116.0,87.0,-114.0
124.0,125.0,121.0,130.0,124.0,124.0,109.0,122.0,26.0,-103.0,-69.0,-128.0,127.0,127.0,116.0,87.0,-114.0
124.0,125.0,126.0,130.0,124.0,125.0,111.0,127.0,26.0,-103.0,-69.0,-128.0,127.0,127.0,116.0,87.0,-114.0
123.0,124.0,126.0,130.0,124.0,125.0,110.0,127.0,26.0,-103.0,-69.0,-128.0,127.0,127.0,116.0,87.0,-114.0
122.0,123.0,125.0,130.0,124.0,125.0,110.0,127.0,26.0,-103.0,-69.0,-128.0,127.0,127.0,116.0,87.0,-114.0
122.0,122.0,124.0,131.0,124.0,125.0,110.0,126.0,26.0,-103.0,-69.0,-128.0,127.0,127.0,116.0,87.0,-114.0
125.0,125.0,116.0,131.0,125.0,125.0,110.0,124.0,26.0,-101.0,-69.0,-128.0,127.0,127.0,116.0,87.0,-114.0
126.0,126.0,119.0,132.0,126.0,126.0,111.0,124.0,26.0,-101.0,-69.0,-128.0,127.0,127.0,116.0,87.0,-114.0
126.0,126.0,121.0,133.0,126.0,126.0,111.0,124.0,26.0,-101.0,-69.0,-128.0,127.0,127.0,116.0,87.0,-114.0
127.0,127.0,124.0,134.0,127.0,126.0,112.0,124.0,26.0,-101.0,-69.0,-128.0,127.0,127.0,116.0,87.0,-114.0
127.0,127.0,125.0,135.0,127.0,127.0,112.0,124.0,26.0,-101.0,-69.0,-128.0,127.0,127.0,116.0,87.0,-114.0
124.0,127.0,119.0,129.0,123.0,125.0,109.0,124.0,26.0,-101.0,-69.0,-128.0,127.0,127.0,116.0,87.0,-114.0
124.0,126.0,118.0,128.0,124.0,124.0,109.0,123.0,26.0,-101.0,-69.0,-128.0,127.0,127.0,116.0,87.0,-114.0
124.0,126.0,117.0,129.0,124.0,124.0,109.0,123.0,26.0,-101.0,-69.0,-128.0,127.0,127.0,116.0,87.0,-114.0
124.0,125.0,115.0,129.0,124.0,125.0,109.0,123.0,26.0,-101.0,-69.0,-128.0,127.0,127.0,116.0,87.0,-114.0
125.0,125.0,115.0,130.0,124.0,125.0,110.0,123.0,26.0,-101.0,-69.0,-128.0,127.0,127.0,116.0,87.0,-114.0
125.0,130.0,120.0,130.0,124.0,126.0,111.0,121.0,26.0,-101.0,-70.0,127.0,127.0,127.0,116.0,87.0,-114.0
124.0,131.0,121.0,130.0,124.0,126.0,111.0,121.0,26.0,-101.0,-70.0,127.0,127.0,127.0,116.0,87.0,-114.0
124.0,132.0,122.0,130.0,124.0,126.0,112.0,120.0,26.0,-101.0,-70.0,127.0,127.0,127.0,116.0,87.0,-114.0
124.0,132.0,123.0,130.0,124.0,126.0,112.0,121.0,26.0,-101.0,-70.0,127.0,127.0,127.0,116.0,87.0,-114.0
128.0,126.0,121.0,132.0,125.0,127.0,108.0,127.0,26.0,-101.0,-70.0,127.0,127.0,127.0,116.0,87.0,-114.0
127.0,125.0,121.0,132.0,125.0,126.0,111.0,125.0,26.0,-101.0,-70.0,127.0,127.0,127.0,116.0,87.0,-114.0
127.0,124.0,121.0,131.0,125.0,126.0,111.0,125.0,26.0,-101.0,-70.0,127.0,127.0,127.0,116.0,87.0,-114.0
126.0,125.0,121.0,131.0,125.0,126.0,112.0,124.0,26.0,-101.0,-70.0,127.0,127.0,127.0,116.0,87.0,-114.0
126.0,127.0,121.0,131.0,125.0,126.0,112.0,123.0,26.0,-101.0,-70.0,127.0,127.0,127.0,116.0,87.0,-114.0
125.0,129.0,120.0,130.0,124.0,126.0,112.0,122.0,26.0,-101.0,-70.0,127.0,127.0,127.0,116.0,87.0,-114.0
126.0,122.0,121.0,132.0,125.0,126.0,111.0,127.0,26.0,-103.0,-72.0,127.0,127.0,127.0,116.0,87.0,-114.0
126.0,122.0,121.0,132.0,125.0,126.0,112.0,127.0,26.0,-103.0,-72.0,127.0,127.0,127.0,116.0,87.0,-114.0
126.0,122.0,122.0,132.0,124.0,126.0,112.0,127.0,26.0,-103.0,-72.0,127.0,127.0,127.0,116.0,87.0,-114.0
127.0,125.0,119.0,132.0,126.0,127.0,107.0,127.0,26.0,-103.0,-72.0,127.0,127.0,127.0,116.0,87.0,-114.0
127.0,124.0,120.0,131.0,126.0,127.0,109.0,127.0,26.0,-103.0,-72.0,127.0,127.0,127.0,116.0,87.0,-114.0
127.0,124.0,120.0,132.0,126.0,127.0,112.0,126.0,26.0,-103.0,-72.0,127.0,127.0,127.0,116.0,87.0,-114.0
127.0,123.0,120.0,132.0,126.0,127.0,112.0,126.0,26.0,-103.0,-72.0,127.0,127.0,127.0,116.0,87.0,-114.0
127.0,123.0,120.0,132.0,126.0,127.0,112.0,126.0,26.0,-103.0,-72.0,127.0,127.0,127.0,116.0,87.0,-114.0
127.0,123.0,120.0,132.0,126.0,126.0,112.0,126.0,26.0,-103.0,-72.0,127.0,127.0,127.0,116.0,87.0,-114.0
126.0,123.0,120.0,132.0,125.0,126.0,112.0,126.0,26.0,-103.0,-72.0,127.0,127.0,127.0,116.0,87.0,-114.0
126.0,121.0,125.0,127.0,125.0,127.0,110.0,123.0,26.0,-104.0,-73.0,127.0,127.0,127.0,116.0,87.0,-114.0
126.0,121.0,124.0,127.0,124.0,127.0,113.0,123.0,26.0,-104.0,-73.0,127.0,127.0,127.0,116.0,87.0,-114.0
127.0,125.0,122.0,129.0,126.0,128.0,106.0,125.0,26.0,-104.0,-73.0,127.0,127.0,127.0,116.0,87.0,-114.0
127.0,125.0,122.0,129.0,126.0,127.0,106.0,125.0,26.0,-104.0,-73.0,127.0,127.0,127.0,116.0,87.0,-114.0
127.0,124.0,123.0,128.0,126.0,128.0,107.0,125.0,26.0,-104.0,-73.0,127.0,127.0,127.0,116.0,87.0,-114.0
127.0,124.0,124.0,128.0,126.0,128.0,107.0,125.0,26.0,-104.0,-73.0,127.0,127.0,127.0,116.0,87.0,-114.0
126.0,123.0,125.0,128.0,126.0,128.0,107.0,125.0,26.0,-104.0,-73.0,127.0,127.0,127.0,116.0,87.0,-114.0
126.0,123.0,125.0,128.0,126.0,127.0,106.0,124.0,26.0,-104.0,-73.0,127.0,127.0,127.0,116.0,87.0,-114.0
126.0,122.0,125.0,128.0,126.0,127.0,106.0,124.0,26.0,-104.0,-73.0,127.0,127.0,127.0,116.0,87.0,-114.0
126.0,122.0,125.0,128.0,125.0,127.0,106.0,123.0,26.0,-104.0,-73.0,127.0,127.0,127.0,116.0,87.0,-114.0
124.0,125.0,127.0,130.0,123.0,126.0,111.0,123.0,27.0,-104.0,-73.0,127.0,127.0,127.0,115.0,87.0,-114.0
126.0,125.0,124.0,129.0,126.0,126.0,112.0,126.0,27.0,-104.0,-73.0,127.0,127.0,127.0,115.0,87.0,-114.0
126.0,125.0,125.0,130.0,126.0,126.0,111.0,125.0,27.0,-104.0,-73.0,127.0,127.0,127.0,115.0,87.0,-114.0
126.0,126.0,127.0,130.0,126.0,126.0,111.0,125.0,27.0,-104.0,-73.0,127.0,127.0,127.0,115.0,87.0,-114.0
126.0,127.0,128.0,130.0,125.0,126.0,111.0,125.0,27.0,-104.0,-73.0,127.0,127.0,127.0,115.0,87.0,-114.0
126.0,127.0,128.0,130.0,125.0,126.0,111.0,125.0,27.0,-104.0,-73.0,127.0,127.0,127.0,115.0,87.0,-114.0
126.0,126.0,128.0,130.0,124.0,126.0,112.0,124.0,27.0,-104.0,-73.0,127.0,127.0,127.0,115.0,87.0,-114.0
125.0,126.0,127.0,130.0,124.0,126.0,111.0,124.0,27.0,-104.0,-73.0,127.0,127.0,127.0,115.0,87.0,-114.0
124.0,125.0,127.0,130.0,123.0,126.0,111.0,123.0,27.0,-104.0,-73.0,127.0,127.0,127.0,115.0,87.0,-114.0
124.0,125.0,127.0,130.0,123.0,126.0,111.0,123.0,27.0,-104.0,-73.0,127.0,127.0,127.0,115.0,87.0,-114.0
124.0,129.0,125.0,130.0,126.0,127.0,107.0,118.0,27.0,-103.0,-73.0,127.0,127.0,127.0,115.0,87.0,-114.0
124.0,129.0,126.0,131.0,126.0,127.0,109.0,117.0,27.0,-103.0,-73.0,127.0,127.0,127.0,115.0,87.0,-114.0
124.0,129.0,127.0,131.0,126.0,127.0,112.0,117.0,27.0,-103.0,-73.0,127.0,127.0,127.0,115.0,87.0,-114.0
124.0,128.0,129.0,132.0,127.0,127.0,112.0,117.0,27.0,-103.0,-73.0,127.0,127.0,127.0,115.0,87.0,-114.0
124.0,128.0,131.0,132.0,127.0,127.0,113.0,117.0,27.0,-103.0,-73.0,127.0,127.0,127.0,115.0,87.0,-114.0
123.0,127.0,132.0,132.0,127.0,127.0,113.0,117.0,27.0,-103.0,-73.0,127.0,127.0,127.0,115.0,87.0,-114.0
123.0,126.0,131.0,133.0,127.0,127.0,112.0,117.0,27.0,-103.0,-73.0,127.0,127.0,127.0,115.0,87.0,-114.0
122.0,124.0,128.0,132.0,127.0,127.0,112.0,117.0,27.0,-103.0,-73.0,127.0,127.0,127.0,115.0,87.0,-114.0
122.0,123.0,125.0,132.0,126.0,126.0,113.0,117.0,27.0,-103.0,-73.0,127.0,127.0,127.0,115.0,87.0,-114.0
121.0,121.0,122.0,131.0,126.0,126.0,112.0,117.0,27.0,-103.0,-73.0,127.0,127.0,127.0,115.0,87.0,-114.0
124.0,122.0,128.0,129.0,126.0,128.0,107.0,127.0,27.0,-103.0,-73.0,127.0,127.0,127.0,115.0,87.0,-114.0
124.0,122.0,129.0,129.0,126.0,128.0,107.0,127.0,27.0,-103.0,-73.0,127.0,127.0,127.0,115.0,87.0,-114.0
125.0,121.0,129.0,128.0,127.0,128.0,106.0,127.0,27.0,-103.0,-73.0,127.0,127.0,127.0,115.0,87.0,-114.0
125.0,121.0,129.0,128.0,126.0,128.0,106.0,127.0,27.0,-103.0,-73.0,127.0,127.0,127.0,115.0,87.0,-114.0
126.0,121.0,129.0,128.0,127.0,127.0,106.0,127.0,27.0,-103.0,-73.0,127.0,127.0,127.0,115.0,87.0,-114.0
126.0,121.0,128.0,128.0,127.0,128.0,106.0,127.0,27.0,-103.0,-73.0,127.0,127.0,127.0,115.0,87.0,-114.0
126.0,121.0,128.0,127.0,126.0,127.0,106.0,127.0,27.0,-103.0,-73.0,127.0,127.0,127.0,115.0,87.0,-114.0
126.0,120.0,128.0,127.0,126.0,127.0,106.0,127.0,27.0,-103.0,-73.0,127.0,127.0,127.0,115.0,87.0,-114.0
126.0,119.0,127.0,126.0,126.0,127.0,106.0,128.0,27.0,-103.0,-73.0,127.0,127.0,127.0,115.0,87.0,-114.0
123.0,123.0,127.0,129.0,126.0,128.0,107.0,128.0,27.0,-103.0,-73.0,127.0,127.0,127.0,115.0,87.0,-114.0
128.0,125.0,126.0,129.0,126.0,127.0,113.0,123.0,27.0,-103.0,-73.0,127.0,127.0,127.0,114.0,87.0,-114.0
128.0,124.0,125.0,129.0,126.0,127.0,107.0,124.0,27.0,-103.0,-73.0,127.0,127.0,127.0,114.0,87.0,-114.0
128.0,124.0,125.0,129.0,126.0,127.0,107.0,125.0,27.0,-103.0,-73.0,127.0,127.0,127.0,114.0,87.0,-114.0
128.0,124.0,125.0,128.0,126.0,127.0,107.0,126.0,27.0,-103.0,-73.0,127.0,127.0,127.0,114.0,87.0,-114.0
128.0,124.0,126.0,128.0,126.0,127.0,107.0,126.0,27.0,-103.0,-73.0,127.0,127.0,127.0,114.0,87.0,-114.0
127.0,124.0,127.0,128.0,126.0,127.0,111.0,125.0,27.0,-103.0,-73.0,127.0,127.0,127.0,114.0,87.0,-114.0
127.0,123.0,129.0,127.0,126.0,126.0,112.0,125.0,27.0,-103.0,-73.0,127.0,127.0,127.0,114.0,87.0,-114.0
126.0,123.0,130.0,127.0,125.0,126.0,112.0,125.0,27.0,-103.0,-73.0,127.0,127.0,127.0,114.0,87.0,-114.0
127.0,125.0,128.0,130.0,126.0,127.0,112.0,122.0,27.0,-103.0,-73.0,127.0,127.0,127.0,114.0,87.0,-114.0
127.0,125.0,127.0,129.0,126.0,127.0,113.0,123.0,27.0,-103.0,-73.0,127.0,127.0,127.0,114.0,87.0,-114.0
125.0,127.0,133.0,129.0,126.0,127.0,106.0,120.0,26.0,-103.0,-73.0,127.0,127.0,127.0,114.0,87.0,-114.0
125.0,128.0,131.0,129.0,126.0,127.0,106.0,120.0,26.0,-103.0,-73.0,127.0,127.0,127.0,114.0,87.0,-114.0
126.0,128.0,130.0,129.0,127.0,127.0,107.0,121.0,26.0,-103.0,-73.0,127.0,127.0,127.0,114.0,87.0,-114.0
126.0,128.0,128.0,128.0,127.0,128.0,106.0,121.0,26.0,-103.0,-73.0,127.0,127.0,127.0,114.0,87.0,-114.0
126.0,128.0,126.0,128.0,127.0,127.0,106.0,121.0,26.0,-103.0,-73.0,127.0,127.0,127.0,114.0,87.0,-114.0
126.0,127.0,125.0,127.0,127.0,127.0,107.0,122.0,26.0,-103.0,-73.0,127.0,127.0,127.0,114.0,87.0,-114.0
126.0,126.0,123.0,126.0,126.0,127.0,112.0,123.0,26.0,-103.0,-73.0,127.0,127.0,127.0,114.0,87.0,-114.0
123.0,122.0,133.0,129.0,126.0,127.0,107.0,121.0,26.0,-103.0,-73.0,127.0,127.0,127.0,114.0,87.0,-114.0
124.0,124.0,134.0,129.0,126.0,127.0,107.0,121.0,26.0,-103.0,-73.0,127.0,127.0,127.0,114.0,87.0,-114.0
124.0,126.0,134.0,129.0,126.0,127.0,107.0,120.0,26.0,-103.0,-73.0,127.0,127.0,127.0,114.0,87.0,-114.0
125.0,128.0,128.0,131.0,126.0,126.0,112.0,126.0,26.0,-102.0,-72.0,127.0,127.0,127.0,113.0,87.0,-114.0
125.0,128.0,129.0,131.0,126.0,126.0,113.0,127.0,26.0,-102.0,-72.0,127.0,127.0,127.0,113.0,87.0,-114.0
126.0,127.0,130.0,131.0,126.0,126.0,112.0,128.0,26.0,-102.0,-72.0,127.0,127.0,127.0,113.0,87.0,-114.0
126.0,127.0,131.0,131.0,126.0,126.0,112.0,128.0,26.0,-102.0,-72.0,127.0,127.0,127.0,113.0,87.0,-114.0
127.0,128.0,131.0,131.0,126.0,126.0,112.0,128.0,26.0,-102.0,-72.0,127.0,127.0,127.0,113.0,87.0,-114.0
127.0,128.0,130.0,131.0,126.0,126.0,112.0,127.0,26.0,-102.0,-72.0,127.0,127.0,127.0,113.0,87.0,-114.0
124.0,129.0,127.0,132.0,127.0,127.0,113.0,123.0,26.0,-102.0,-72.0,127.0,127.0,127.0,113.0,87.0,-114.0
124.0,128.0,126.0,131.0,127.0,127.0,113.0,124.0,26.0,-102.0,-72.0,127.0,127.0,127.0,113.0,87.0,-114.0
125.0,128.0,126.0,131.0,127.0,127.0,113.0,125.0,26.0,-102.0,-72.0,127.0,127.0,127.0,113.0,87.0,-114.0
125.0,128.0,127.0,131.0,127.0,127.0,112.0,126.0,26.0,-102.0,-72.0,127.0,127.0,127.0,113.0,87.0,-114.0
124.0,123.0,134.0,127.0,125.0,126.0,111.0,128.0,26.0,-101.0,-72.0,127.0,127.0,127.0,113.0,87.0,-114.0
124.0,122.0,134.0,127.0,125.0,126.0,111.0,127.0,26.0,-101.0,-72.0,127.0,127.0,127.0,113.0,87.0,-114.0
124.0,122.0,133.0,127.0,125.0,126.0,111.0,127.0,26.0,-101.0,-72.0,127.0,127.0,127.0,113.0,87.0,-114.0
124.0,122.0,133.0,127.0,125.0,126.0,111.0,126.0,26.0,-101.0,-72.0,127.0,127.0,127.0,113.0,87.0,-114.0
124.0,122.0,132.0,127.0,126.0,126.0,111.0,125.0,26.0,-101.0,-72.0,127.0,127.0,127.0,113.0,87.0,-114.0
125.0,123.0,136.0,129.0,126.0,127.0,113.0,131.0,26.0,-101.0,-72.0,127.0,127.0,127.0,113.0,87.0,-114.0
125.0,123.0,136.0,129.0,126.0,127.0,112.0,131.0,26.0,-101.0,-72.0,127.0,127.0,127.0,113.0,87.0,-114.0
125.0,123.0,136.0,128.0,126.0,126.0,112.0,130.0,26.0,-101.0,-72.0,127.0,127.0,127.0,113.0,87.0,-114.0
125.0,123.0,135.0,128.0,126.0,126.0,112.0,129.0,26.0,-101.0,-72.0,127.0,127.0,127.0,113.0,87.0,-114.0
124.0,123.0,135.0,128.0,126.0,126.0,111.0,129.0,26.0,-101.0,-72.0,127.0,127.0,127.0,113.0,87.0,-114.0
125.0,123.0,133.0,126.0,124.0,126.0,112.0,123.0,25.0,-101.0,-72.0,127.0,127.0,127.0,113.0,87.0,-114.0
126.0,124.0,134.0,126.0,124.0,126.0,111.0,123.0,25.0,-101.0,-72.0,127.0,127.0,127.0,113.0,87.0,-114.0
126.0,125.0,135.0,126.0,124.0,126.0,111.0,124.0,25.0,-101.0,-72.0,127.0,127.0,127.0,113.0,87.0,-114.0
126.0,126.0,135.0,126.0,124.0,126.0,111.0,124.0,25.0,-101.0,-72.0,127.0,127.0,127.0,113.0,87.0,-114.0
123.0,123.0,130.0,127.0,125.0,126.0,112.0,118.0,25.0,-101.0,-72.0,127.0,127.0,127.0,113.0,87.0,-114.0
123.0,122.0,130.0,127.0,125.0,126.0,112.0,118.0,25.0,-101.0,-72.0,127.0,127.0,127.0,113.0,87.0,-114.0
123.0,121.0,130.0,127.0,125.0,126.0,112.0,119.0,25.0,-101.0,-72.0,127.0,127.0,127.0,113.0,87.0,-114.0
124.0,121.0,130.0,126.0,125.0,126.0,112.0,120.0,25.0,-101.0,-72.0,127.0,127.0,127.0,113.0,87.0,-114.0
124.0,121.0,131.0,126.0,125.0,126.0,111.0,121.0,25.0,-101.0,-72.0,127.0,127.0,127.0,113.0,87.0,-114.0
125.0,122.0,132.0,126.0,124.0,126.0,111.0,122.0,25.0,-101.0,-72.0,127.0,127.0,127.0,113.0,87.0,-114.0
125.0,124.0,127.0,125.0,126.0,127.0,113.0,122.0,25.0,-101.0,-72.0,127.0,127.0,127.0,113.0,87.0,-114.0
125.0,124.0,126.0,126.0,126.0,127.0,113.0,122.0,25.0,-101.0,-72.0,127.0,127.0,127.0,113.0,87.0,-114.0
125.0,125.0,126.0,126.0,126.0,127.0,113.0,124.0,25.0,-101.0,-72.0,127.0,127.0,127.0,113.0,87.0,-114.0
125.0,126.0,127.0,125.0,126.0,127.0,113.0,124.0,25.0,-101.0,-72.0,127.0,127.0,127.0,113.0,87.0,-114.0
125.0,126.0,127.0,125.0,126.0,127.0,109.0,123.0,25.0,-101.0,-72.0,127.0,127.0,127.0,113.0,87.0,-114.0
125.0,125.0,126.0,125.0,126.0,127.0,107.0,123.0,25.0,-101.0,-72.0,127.0,127.0,127.0,113.0,87.0,-114.0
125.0,125.0,126.0,125.0,126.0,127.0,108.0,123.0,25.0,-101.0,-72.0,127.0,127.0,127.0,113.0,87.0,-114.0
125.0,125.0,125.0,125.0,126.0,127.0,112.0,122.0,25.0,-101.0,-72.0,127.0,127.0,127.0,113.0,87.0,-114.0
125.0,125.0,126.0,125.0,126.0,127.0,113.0,122.0,25.0,-101.0,-72.0,127.0,127.0,127.0,113.0,87.0,-114.0
125.0,125.0,127.0,125.0,126.0,127.0,114.0,122.0,25.0,-101.0,-72.0,127.0,127.0,127.0,113.0,87.0,-114.0
126.0,125.0,124.0,127.0,126.0,127.0,112.0,122.0,26.0,-101.0,-72.0,127.0,127.0,127.0,113.0,87.0,-114.0
124.0,125.0,124.0,130.0,127.0,127.0,106.0,125.0,26.0,-101.0,-72.0,127.0,127.0,127.0,113.0,87.0,-114.0
123.0,124.0,122.0,129.0,127.0,127.0,107.0,124.0,26.0,-101.0,-72.0,127.0,127.0,127.0,113.0,87.0,-114.0
123.0,123.0,120.0,129.0,127.0,127.0,112.0,124.0,26.0,-101.0,-72.0,127.0,127.0,127.0,113.0,87.0,-114.0
124.0,122.0,119.0,128.0,127.0,127.0,113.0,123.0,26.0,-101.0,-72.0,127.0,127.0,127.0,113.0,87.0,-114.0
124.0,122.0,118.0,127.0,126.0,127.0,113.0,123.0,26.0,-101.0,-72.0,127.0,127.0,127.0,113.0,87.0,-114.0
124.0,122.0,118.0,126.0,126.0,127.0,113.0,123.0,26.0,-101.0,-72.0,127.0,127.0,127.0,113.0,87.0,-114.0
125.0,123.0,119.0,126.0,126.0,127.0,113.0,123.0,26.0,-101.0,-72.0,127.0,127.0,127.0,113.0,87.0,-114.0
125.0,124.0,120.0,126.0,126.0,127.0,113.0,122.0,26.0,-101.0,-72.0,127.0,127.0,127.0,113.0,87.0,-114.0
126.0,124.0,122.0,126.0,126.0,127.0,113.0,122.0,26.0,-101.0,-72.0,127.0,127.0,127.0,113.0,87.0,-114.0
126.0,130.0,125.0,128.0,127.0,127.0,106.0,122.0,26.0,-101.0,-72.0,127.0,127.0,127.0,113.0,87.0,-114.0
126.0,129.0,124.0,128.0,127.0,127.0,106.0,123.0,26.0,-101.0,-72.0,127.0,127.0,127.0,113.0,87.0,-114.0
126.0,129.0,124.0,127.0,127.0,127.0,108.0,124.0,26.0,-101.0,-72.0,127.0,127.0,127.0,113.0,87.0,-114.0
126.0,128.0,124.0,127.0,126.0,127.0,113.0,125.0,26.0,-101.0,-72.0,127.0,127.0,127.0,113.0,87.0,-114.0
126.0,128.0,125.0,127.0,126.0,127.0,113.0,125.0,26.0,-101.0,-72.0,127.0,127.0,127.0,113.0,87.0,-114.0
126.0,128.0,125.0,127.0,126.0,127.0,113.0,125.0,26.0,-101.0,-72.0,127.0,127.0,127.0,113.0,87.0,-114.0
126.0,128.0,125.0,128.0,126.0,127.0,113.0,125.0,26.0,-101.0,-72.0,127.0,127.0,127.0,113.0,87.0,-114.0
126.0,128.0,125.0,128.0,126.0,127.0,113.0,126.0,26.0,-101.0,-72.0,127.0,127.0,127.0,113.0,87.0,-114.0
126.0,128.0,126.0,128.0,126.0,127.0,112.0,126.0,26.0,-101.0,-72.0,127.0,127.0,127.0,113.0,87.0,-114.0
126.0,128.0,126.0,129.0,126.0,127.0,113.0,126.0,26.0,-101.0,-72.0,127.0,127.0,127.0,113.0,87.0,-114.0
126.0,123.0,123.0,126.0,126.0,127.0,107.0,127.0,26.0,-101.0,-72.0,127.0,127.0,127.0,113.0,87.0,-114.0
126.0,124.0,123.0,126.0,126.0,127.0,107.0,126.0,26.0,-101.0,-72.0,127.0,127.0,127.0,113.0,87.0,-114.0
126.0,125.0,123.0,126.0,126.0,127.0,111.0,126.0,26.0,-101.0,-72.0,127.0,127.0,127.0,113.0,87.0,-114.0
126.0,125.0,123.0,125.0,126.0,126.0,112.0,126.0,26.0,-101.0,-72.0,127.0,127.0,127.0,113.0,87.0,-114.0
126.0,126.0,123.0,125.0,126.0,126.0,112.0,126.0,26.0,-101.0,-72.0,127.0,127.0,127.0,113.0,87.0,-114.0
126.0,125.0,123.0,125.0,126.0,126.0,112.0,126.0,26.0,-101.0,-72.0,127.0,127.0,127.0,113.0,87.0,-114.0
126.0,125.0,123.0,125.0,126.0,126.0,112.0,125.0,26.0,-101.0,-72.0,127.0,127.0,127.0,113.0,87.0,-114.0
126.0,125.0,123.0,125.0,126.0,126.0,112.0,125.0,26.0,-101.0,-72.0,127.0,127.0,127.0,113.0,87.0,-114.0
126.0,125.0,123.0,125.0,126.0,126.0,112.0,125.0,26.0,-101.0,-72.0,127.0,127.0,127.0,113.0,87.0,-114.0
126.0,123.0,123.0,126.0,126.0,127.0,106.0,127.0,26.0,-101.0,-72.0,127.0,127.0,127.0,113.0,87.0,-114.0
127.0,127.0,129.0,127.0,126.0,126.0,112.0,126.0,27.0,-102.0,-72.0,127.0,127.0,127.0,113.0,87.0,-114.0
127.0,128.0,129.0,127.0,126.0,126.0,111.0,127.0,27.0,-102.0,-72.0,127.0,127.0,127.0,113.0,87.0,-114.0
127.0,129.0,128.0,127.0,126.0,126.0,111.0,127.0,27.0,-102.0,-72.0,127.0,127.0,127.0,113.0,87.0,-114.0
127.0,129.0,127.0,127.0,126.0,126.0,112.0,127.0,27.0,-102.0,-72.0,127.0,127.0,127.0,113.0,87.0,-114.0
128.0,130.0,127.0,127.0,126.0,126.0,112.0,127.0,27.0,-102.0,-72.0,127.0,127.0,127.0,113.0,87.0,-114.0
128.0,130.0,127.0,128.0,126.0,126.0,112.0,127.0,27.0,-102.0,-72.0,127.0,127.0,127.0,113.0,87.0,-114.0
127.0,130.0,127.0,128.0,126.0,126.0,111.0,127.0,27.0,-102.0,-72.0,127.0,127.0,127.0,113.0,87.0,-114.0
127.0,130.0,127.0,128.0,127.0,126.0,111.0,127.0,27.0,-102.0,-72.0,127.0,127.0,127.0,113.0,87.0,-114.0
126.0,126.0,131.0,127.0,126.0,126.0,113.0,126.0,27.0,-102.0,-72.0,127.0,127.0,127.0,113.0,87.0,-114.0
127.0,126.0,130.0,127.0,126.0,126.0,112.0,126.0,27.0,-102.0,-72.0,127.0,127.0,127.0,113.0,87.0,-114.0
124.0,124.0,130.0,128.0,126.0,126.0,111.0,119.0,27.0,-102.0,-73.0,127.0,127.0,127.0,112.0,87.0,-114.0
123.0,124.0,130.0,128.0,125.0,126.0,111.0,119.0,27.0,-102.0,-73.0,127.0,127.0,127.0,112.0,87.0,-114.0
123.0,124.0,130.0,128.0,125.0,126.0,111.0,119.0,27.0,-102.0,-73.0,127.0,127.0,127.0,112.0,87.0,-114.0
123.0,125.0,131.0,128.0,126.0,126.0,111.0,118.0,27.0,-102.0,-73.0,127.0,127.0,127.0,112.0,87.0,-114.0
123.0,126.0,132.0,129.0,126.0,126.0,112.0,118.0,27.0,-102.0,-73.0,127.0,127.0,127.0,112.0,87.0,-114.0
123.0,127.0,133.0,129.0,126.0,127.0,112.0,118.0,27.0,-102.0,-73.0,127.0,127.0,127.0,112.0,87.0,-114.0
123.0,127.0,134.0,129.0,126.0,127.0,112.0,118.0,27.0,-102.0,-73.0,127.0,127.0,127.0,112.0,87.0,-114.0
124.0,125.0,133.0,128.0,126.0,126.0,112.0,120.0,27.0,-102.0,-73.0,127.0,127.0,127.0,112.0,87.0,-114.0
124.0,125.0,132.0,128.0,126.0,126.0,112.0,120.0,27.0,-102.0,-73.0,127.0,127.0,127.0,112.0,87.0,-114.0
124.0,125.0,130.0,128.0,126.0,126.0,111.0,120.0,27.0,-102.0,-73.0,127.0,127.0,127.0,112.0,87.0,-114.0
127.0,126.0,132.0,130.0,127.0,127.0,112.0,123.0,28.0,-102.0,-73.0,127.0,127.0,127.0,112.0,87.0,-114.0
126.0,126.0,131.0,130.0,127.0,127.0,112.0,123.0,28.0,-102.0,-73.0,127.0,127.0,127.0,112.0,87.0,-114.0
126.0,125.0,130.0,129.0,127.0,127.0,112.0,122.0,28.0,-102.0,-73.0,127.0,127.0,127.0,112.0,87.0,-114.0
126.0,125.0,130.0,129.0,127.0,127.0,112.0,122.0,28.0,-102.0,-73.0,127.0,127.0,127.0,112.0,87.0,-114.0
126.0,125.0,130.0,128.0,126.0,127.0,112.0,121.0,28.0,-102.0,-73.0,127.0,127.0,127.0,112.0,87.0,-114.0
126.0,125.0,130.0,127.0,126.0,126.0,112.0,121.0,28.0,-102.0,-73.0,127.0,127.0,127.0,112.0,87.0,-114.0
127.0,125.0,130.0,129.0,127.0,126.0,112.0,125.0,28.0,-102.0,-73.0,127.0,127.0,127.0,112.0,87.0,-114.0
127.0,125.0,131.0,129.0,127.0,126.0,113.0,124.0,28.0,-102.0,-73.0,127.0,127.0,127.0,112.0,87.0,-114.0
127.0,125.0,131.0,130.0,127.0,126.0,113.0,124.0,28.0,-102.0,-73.0,127.0,127.0,127.0,112.0,87.0,-114.0
127.0,125.0,132.0,130.0,127.0,126.0,112.0,123.0,28.0,-102.0,-73.0,127.0,127.0,127.0,112.0,87.0,-114.0
126.0,128.0,133.0,130.0,126.0,127.0,112.0,125.0,28.0,-102.0,-73.0,127.0,127.0,127.0,112.0,87.0,-114.0
126.0,128.0,133.0,130.0,126.0,127.0,112.0,124.0,28.0,-102.0,-73.0,127.0,127.0,127.0,112.0,87.0,-114.0
125.0,128.0,133.0,130.0,126.0,127.0,112.0,124.0,28.0,-102.0,-73.0,127.0,127.0,127.0,112.0,87.0,-114.0
125.0,128.0,133.0,130.0,126.0,127.0,112.0,124.0,28.0,-102.0,-73.0,127.0,127.0,127.0,112.0,87.0,-114.0
125.0,128.0,132.0,130.0,126.0,127.0,112.0,124.0,28.0,-102.0,-73.0,127.0,127.0,127.0,112.0,87.0,-114.0
126.0,125.0,127.0,130.0,126.0,127.0,112.0,125.0,28.0,-102.0,-73.0,127.0,127.0,127.0,112.0,87.0,-114.0
126.0,127.0,127.0,130.0,126.0,127.0,112.0,125.0,28.0,-102.0,-73.0,127.0,127.0,127.0,112.0,87.0,-114.0
126.0,128.0,127.0,130.0,126.0,126.0,112.0,125.0,28.0,-102.0,-73.0,127.0,127.0,127.0,112.0,87.0,-114.0
126.0,129.0,128.0,130.0,126.0,126.0,113.0,125.0,28.0,-102.0,-73.0,127.0,127.0,127.0,112.0,87.0,-114.0
126.0,128.0,131.0,130.0,126.0,127.0,112.0,125.0,28.0,-102.0,-73.0,127.0,127.0,127.0,112.0,87.0,-114.0
127.0,128.0,132.0,130.0,127.0,127.0,107.0,127.0,28.0,-102.0,-73.0,127.0,127.0,127.0,112.0,87.0,-114.0
127.0,128.0,132.0,130.0,128.0,127.0,107.0,127.0,28.0,-102.0,-73.0,127.0,127.0,127.0,112.0,87.0,-114.0
127.0,128.0,131.0,130.0,128.0,127.0,106.0,127.0,28.0,-102.0,-73.0,127.0,127.0,127.0,112.0,87.0,-114.0
127.0,128.0,129.0,130.0,128.0,127.0,107.0,127.0,28.0,-102.0,-73.0,127.0,127.0,127.0,112.0,87.0,-114.0
127.0,127.0,125.0,128.0,127.0,127.0,107.0,126.0,28.0,-102.0,-73.0,127.0,127.0,127.0,112.0,87.0,-114.0
127.0,127.0,124.0,128.0,127.0,127.0,108.0,126.0,28.0,-102.0,-73.0,127.0,127.0,127.0,112.0,87.0,-114.0
127.0,126.0,124.0,128.0,127.0,127.0,108.0,126.0,28.0,-102.0,-73.0,127.0,127.0,127.0,112.0,87.0,-114.0
127.0,126.0,126.0,129.0,127.0,127.0,107.0,126.0,28.0,-102.0,-73.0,127.0,127.0,127.0,112.0,87.0,-114.0
127.0,127.0,130.0,129.0,127.0,127.0,106.0,126.0,28.0,-102.0,-73.0,127.0,127.0,127.0,112.0,87.0,-114.0
127.0,127.0,132.0,130.0,127.0,127.0,107.0,127.0,28.0,-102.0,-73.0,127.0,127.0,127.0,112.0,87.0,-114.0
125.0,126.0,128.0,126.0,127.0,127.0,106.0,122.0,28.0,-102.0,-73.0,127.0,127.0,127.0,112.0,87.0,-114.0
126.0,126.0,129.0,126.0,126.0,127.0,106.0,122.0,28.0,-102.0,-73.0,127.0,127.0,127.0,112.0,87.0,-114.0
126.0,126.0,129.0,125.0,126.0,127.0,106.0,122.0,28.0,-102.0,-73.0,127.0,127.0,127.0,112.0,87.0,-114.0
126.0,127.0,127.0,128.0,127.0,127.0,107.0,125.0,28.0,-102.0,-73.0,127.0,127.0,127.0,112.0,87.0,-114.0
126.0,126.0,127.0,128.0,127.0,127.0,107.0,124.0,28.0,-102.0,-73.0,127.0,127.0,127.0,112.0,87.0,-114.0
126.0,126.0,128.0,128.0,127.0,127.0,107.0,123.0,28.0,-102.0,-73.0,127.0,127.0,127.0,112.0,87.0,-114.0
125.0,126.0,128.0,128.0,127.0,127.0,107.0,122.0,28.0,-102.0,-73.0,127.0,127.0,127.0,112.0,87.0,-114.0
125.0,126.0,128.0,127.0,127.0,127.0,107.0,122.0,28.0,-102.0,-73.0,127.0,127.0,127.0,112.0,87.0,-114.0
125.0,126.0,127.0,127.0,127.0,127.0,107.0,122.0,28.0,-102.0,-73.0,127.0,127.0,127.0,112.0,87.0,-114.0
125.0,126.0,127.0,127.0,127.0,127.0,106.0,122.0,28.0,-102.0,-73.0,127.0,127.0,127.0,112.0,87.0,-114.0
125.0,126.0,131.0,129.0,126.0,126.0,112.0,126.0,29.0,-102.0,-73.0,127.0,127.0,127.0,112.0,87.0,-114.0
125.0,126.0,131.0,129.0,126.0,126.0,112.0,126.0,29.0,-102.0,-73.0,127.0,127.0,127.0,112.0,87.0,-114.0
125.0,124.0,129.0,126.0,127.0,127.0,106.0,127.0,29.0,-102.0,-73.0,127.0,127.0,127.0,112.0,87.0,-114.0
125.0,125.0,128.0,127.0,127.0,127.0,106.0,127.0,29.0,-102.0,-73.0,127.0,127.0,127.0,112.0,87.0,-114.0
125.0,126.0,128.0,127.0,127.0,127.0,106.0,127.0,29.0,-102.0,-73.0,127.0,127.0,127.0,112.0,87.0,-114.0
125.0,126.0,129.0,128.0,127.0,127.0,108.0,127.0,29.0,-102.0,-73.0,127.0,127.0,127.0,112.0,87.0,-114.0
125.0,127.0,130.0,128.0,127.0,127.0,108.0,127.0,29.0,-102.0,-73.0,127.0,127.0,127.0,112.0,87.0,-114.0
125.0,127.0,131.0,128.0,127.0,127.0,111.0,127.0,29.0,-102.0,-73.0,127.0,127.0,127.0,112.0,87.0,-114.0
125.0,126.0,131.0,128.0,127.0,127.0,113.0,127.0,29.0,-102.0,-73.0,127.0,127.0,127.0,112.0,87.0,-114.0
125.0,126.0,131.0,129.0,127.0,127.0,113.0,126.0,29.0,-102.0,-73.0,127.0,127.0,127.0,112.0,87.0,-114.0
126.0,126.0,128.0,126.0,127.0,127.0,112.0,121.0,29.0,-102.0,-73.0,127.0,127.0,127.0,111.0,87.0,-114.0
126.0,124.0,126.0,127.0,127.0,127.0,110.0,127.0,29.0,-102.0,-73.0,127.0,127.0,127.0,111.0,87.0,-114.0
126.0,124.0,127.0,127.0,127.0,127.0,113.0,126.0,29.0,-102.0,-73.0,127.0,127.0,127.0,111.0,87.0,-114.0
126.0,125.0,128.0,127.0,127.0,127.0,112.0,125.0,29.0,-102.0,-73.0,127.0,127.0,127.0,111.0,87.0,-114.0
126.0,125.0,129.0,127.0,127.0,127.0,112.0,124.0,29.0,-102.0,-73.0,127.0,127.0,127.0,111.0,87.0,-114.0
126.0,125.0,129.0,127.0,127.0,127.0,112.0,123.0,29.0,-102.0,-73.0,127.0,127.0,127.0,111.0,87.0,-114.0
126.0,125.0,128.0,127.0,127.0,127.0,112.0,123.0,29.0,-102.0,-73.0,127.0,127.0,127.0,111.0,87.0,-114.0
126.0,125.0,128.0,126.0,127.0,127.0,112.0,122.0,29.0,-102.0,-73.0,127.0,127.0,127.0,111.0,87.0,-114.0
126.0,125.0,127.0,126.0,126.0,127.0,112.0,122.0,29.0,-102.0,-73.0,127.0,127.0,127.0,111.0,87.0,-114.0
126.0,126.0,128.0,126.0,126.0,126.0,112.0,121.0,29.0,-102.0,-73.0,127.0,127.0,127.0,111.0,87.0,-114.0
125.0,128.0,130.0,130.0,127.0,127.0,106.0,127.0,28.0,-101.0,-73.0,127.0,127.0,127.0,111.0,87.0,-114.0
125.0,128.0,130.0,130.0,127.0,127.0,106.0,127.0,28.0,-101.0,-73.0,127.0,127.0,127.0,111.0,87.0,-114.0
125.0,128.0,131.0,130.0,127.0,127.0,106.0,127.0,28.0,-101.0,-73.0,127.0,127.0,127.0,111.0,87.0,-114.0
125.0,127.0,131.0,130.0,127.0,127.0,106.0,127.0,28.0,-101.0,-73.0,127.0,127.0,127.0,111.0,87.0,-114.0
125.0,127.0,130.0,130.0,127.0,127.0,106.0,126.0,28.0,-101.0,-73.0,127.0,127.0,127.0,111.0,87.0,-114.0
125.0,127.0,129.0,130.0,127.0,127.0,106.0,126.0,28.0,-101.0,-73.0,127.0,127.0,127.0,111.0,87.0,-114.0
125.0,126.0,128.0,130.0,127.0,127.0,106.0,125.0,28.0,-101.0,-73.0,127.0,127.0,127.0,111.0,87.0,-114.0
125.0,125.0,128.0,130.0,127.0,127.0,106.0,125.0,28.0,-101.0,-73.0,127.0,127.0,127.0,111.0,87.0,-114.0
125.0,124.0,127.0,129.0,127.0,127.0,107.0,124.0,28.0,-101.0,-73.0,127.0,127.0,127.0,111.0,87.0,-114.0
125.0,124.0,128.0,129.0,127.0,127.0,106.0,124.0,28.0,-101.0,-73.0,127.0,127.0,127.0,111.0,87.0,-114.0
126.0,127.0,127.0,127.0,126.0,127.0,112.0,124.0,28.0,-101.0,-73.0,127.0,127.0,127.0,111.0,87.0,-114.0
126.0,127.0,129.0,127.0,126.0,127.0,113.0,125.0,28.0,-101.0,-73.0,127.0,127.0,127.0,111.0,87.0,-114.0
126.0,127.0,130.0,128.0,126.0,127.0,112.0,126.0,28.0,-101.0,-73.0,127.0,127.0,127.0,111.0,87.0,-114.0
126.0,127.0,129.0,128.0,126.0,127.0,112.0,126.0,28.0,-101.0,-73.0,127.0,127.0,127.0,111.0,87.0,-114.0
126.0,127.0,128.0,128.0,126.0,127.0,112.0,127.0,28.0,-101.0,-73.0,127.0,127.0,127.0,111.0,87.0,-114.0
126.0,127.0,127.0,129.0,126.0,126.0,112.0,127.0,28.0,-101.0,-73.0,127.0,127.0,127.0,111.0,87.0,-114.0
126.0,127.0,126.0,129.0,126.0,126.0,113.0,127.0,28.0,-101.0,-73.0,127.0,127.0,127.0,111.0,87.0,-114.0
127.0,126.0,125.0,129.0,126.0,126.0,112.0,128.0,28.0,-101.0,-73.0,127.0,127.0,127.0,111.0,87.0,-114.0
127.0,126.0,125.0,129.0,126.0,126.0,112.0,128.0,28.0,-101.0,-73.0,127.0,127.0,127.0,111.0,87.0,-114.0
125.0,127.0,126.0,126.0,126.0,127.0,109.0,124.0,28.0,-101.0,-73.0,127.0,127.0,127.0,111.0,87.0,-114.0
128.0,127.0,125.0,126.0,125.0,126.0,112.0,127.0,28.0,-101.0,-73.0,127.0,127.0,127.0,111.0,87.0,-114.0
128.0,128.0,126.0,126.0,126.0,126.0,112.0,127.0,28.0,-101.0,-73.0,127.0,127.0,127.0,111.0,87.0,-114.0
128.0,128.0,127.0,127.0,126.0,126.0,111.0,127.0,28.0,-101.0,-73.0,127.0,127.0,127.0,111.0,87.0,-114.0
128.0,127.0,128.0,127.0,126.0,126.0,112.0,127.0,28.0,-101.0,-73.0,127.0,127.0,127.0,111.0,87.0,-114.0
128.0,127.0,130.0,127.0,126.0,126.0,112.0,127.0,28.0,-101.0,-73.0,127.0,127.0,127.0,111.0,87.0,-114.0
128.0,128.0,131.0,128.0,126.0,126.0,112.0,127.0,28.0,-101.0,-73.0,127.0,127.0,127.0,111.0,87.0,-114.0
128.0,128.0,131.0,128.0,126.0,126.0,112.0,127.0,28.0,-101.0,-73.0,127.0,127.0,127.0,111.0,87.0,-114.0
128.0,128.0,131.0,129.0,126.0,126.0,112.0,127.0,28.0,-101.0,-73.0,127.0,127.0,127.0,111.0,87.0,-114.0
127.0,127.0,124.0,126.0,126.0,127.0,113.0,127.0,28.0,-101.0,-73.0,127.0,127.0,127.0,111.0,87.0,-114.0
127.0,127.0,124.0,126.0,126.0,127.0,112.0,127.0,28.0,-101.0,-73.0,127.0,127.0,127.0,111.0,87.0,-114.0
126.0,130.0,129.0,128.0,127.0,127.0,107.0,124.0,28.0,-101.0,-73.0,127.0,127.0,127.0,111.0,87.0,-114.0
126.0,130.0,130.0,129.0,127.0,127.0,106.0,124.0,28.0,-101.0,-73.0,127.0,127.0,127.0,111.0,87.0,-114.0
126.0,129.0,130.0,129.0,127.0,127.0,107.0,125.0,28.0,-101.0,-73.0,127.0,127.0,127.0,111.0,87.0,-114.0
126.0,129.0,130.0,129.0,127.0,127.0,106.0,125.0,28.0,-101.0,-73.0,127.0,127.0,127.0,111.0,87.0,-114.0
125.0,128.0,130.0,129.0,127.0,127.0,106.0,125.0,28.0,-101.0,-73.0,127.0,127.0,127.0,111.0,87.0,-114.0
125.0,128.0,130.0,129.0,127.0,127.0,106.0,124.0,28.0,-101.0,-73.0,127.0,127.0,127.0,111.0,87.0,-114.0
125.0,128.0,129.0,129.0,127.0,127.0,109.0,124.0,28.0,-101.0,-73.0,127.0,127.0,127.0,111.0,87.0,-114.0
126.0,128.0,126.0,126.0,126.0,127.0,107.0,124.0,28.0,-101.0,-73.0,127.0,127.0,127.0,111.0,87.0,-114.0
126.0,129.0,126.0,127.0,126.0,127.0,107.0,124.0,28.0,-101.0,-73.0,127.0,127.0,127.0,111.0,87.0,-114.0
126.0,130.0,127.0,127.0,126.0,127.0,107.0,124.0,28.0,-101.0,-73.0,127.0,127.0,127.0,111.0,87.0,-114.0
125.0,126.0,123.0,130.0,127.0,127.0,105.0,124.0,27.0,-101.0,-73.0,127.0,127.0,127.0,111.0,87.0,-114.0
125.0,125.0,124.0,130.0,127.0,127.0,106.0,124.0,27.0,-101.0,-73.0,127.0,127.0,127.0,111.0,87.0,-114.0
125.0,125.0,126.0,131.0,127.0,127.0,106.0,124.0,27.0,-101.0,-73.0,127.0,127.0,127.0,111.0,87.0,-114.0
125.0,125.0,127.0,131.0,127.0,127.0,107.0,125.0,27.0,-101.0,-73.0,127.0,127.0,127.0,111.0,87.0,-114.0
125.0,125.0,127.0,131.0,127.0,127.0,106.0,125.0,27.0,-101.0,-73.0,127.0,127.0,127.0,111.0,87.0,-114.0
125.0,125.0,128.0,131.0,127.0,127.0,106.0,125.0,27.0,-101.0,-73.0,127.0,127.0,127.0,111.0,87.0,-114.0
125.0,129.0,125.0,126.0,127.0,127.0,106.0,124.0,27.0,-101.0,-73.0,127.0,127.0,127.0,111.0,87.0,-114.0
125.0,129.0,125.0,127.0,127.0,127.0,106.0,124.0,27.0,-101.0,-73.0,127.0,127.0,127.0,111.0,87.0,-114.0
125.0,128.0,124.0,128.0,127.0,127.0,106.0,124.0,27.0,-101.0,-73.0,127.0,127.0,127.0,111.0,87.0,-114.0
125.0,127.0,123.0,129.0,127.0,127.0,106.0,124.0,27.0,-101.0,-73.0,127.0,127.0,127.0,111.0,87.0,-114.0
125.0,125.0,126.0,126.0,125.0,127.0,113.0,125.0,27.0,-101.0,-73.0,127.0,127.0,127.0,111.0,87.0,-114.0
126.0,126.0,126.0,126.0,126.0,127.0,112.0,125.0,27.0,-101.0,-73.0,127.0,127.0,127.0,111.0,87.0,-114.0
126.0,126.0,127.0,127.0,126.0,127.0,109.0,125.0,27.0,-101.0,-73.0,127.0,127.0,127.0,111.0,87.0,-114.0
127.0,127.0,127.0,127.0,126.0,127.0,107.0,124.0,27.0,-101.0,-73.0,127.0,127.0,127.0,111.0,87.0,-114.0
127.0,127.0,127.0,127.0,126.0,127.0,106.0,124.0,27.0,-101.0,-73.0,127.0,127.0,127.0,111.0,87.0,-114.0
125.0,126.0,127.0,126.0,125.0,127.0,113.0,126.0,27.0,-101.0,-73.0,127.0,127.0,127.0,111.0,87.0,-114.0
125.0,126.0,126.0,126.0,125.0,127.0,113.0,126.0,27.0,-101.0,-73.0,127.0,127.0,127.0,111.0,87.0,-114.0
125.0,125.0,126.0,126.0,125.0,127.0,113.0,126.0,27.0,-101.0,-73.0,127.0,127.0,127.0,111.0,87.0,-114.0
125.0,125.0,126.0,126.0,125.0,127.0,113.0,126.0,27.0,-101.0,-73.0,127.0,127.0,127.0,111.0,87.0,-114.0
125.0,125.0,126.0,126.0,125.0,127.0,113.0,126.0,27.0,-101.0,-73.0,127.0,127.0,127.0,111.0,87.0,-114.0
126.0,127.0,124.0,129.0,127.0,127.0,106.0,124.0,27.0,-101.0,-73.0,127.0,127.0,127.0,111.0,87.0,-114.0
126.0,127.0,124.0,129.0,127.0,127.0,106.0,124.0,27.0,-101.0,-73.0,127.0,127.0,127.0,111.0,87.0,-114.0
125.0,126.0,124.0,129.0,127.0,127.0,106.0,124.0,27.0,-101.0,-73.0,127.0,127.0,127.0,111.0,87.0,-114.0
125.0,126.0,124.0,128.0,127.0,127.0,106.0,124.0,27.0,-101.0,-73.0,127.0,127.0,127.0,111.0,87.0,-114.0
127.0,128.0,125.0,130.0,128.0,128.0,107.0,124.0,27.0,-101.0,-73.0,127.0,127.0,127.0,111.0,87.0,-114.0
128.0,128.0,125.0,130.0,128.0,128.0,107.0,125.0,27.0,-101.0,-73.0,127.0,127.0,127.0,111.0,87.0,-114.0
127.0,128.0,125.0,130.0,128.0,128.0,107.0,125.0,27.0,-101.0,-73.0,127.0,127.0,127.0,111.0,87.0,-114.0
127.0,128.0,124.0,129.0,128.0,128.0,107.0,125.0,27.0,-101.0,-73.0,127.0,127.0,127.0,111.0,87.0,-114.0
127.0,128.0,124.0,129.0,127.0,128.0,106.0,125.0,27.0,-101.0,-73.0,127.0,127.0,127.0,111.0,87.0,-114.0
127.0,127.0,124.0,129.0,127.0,127.0,106.0,125.0,27.0,-101.0,-73.0,127.0,127.0,127.0,111.0,87.0,-114.0
127.0,127.0,132.0,128.0,127.0,127.0,106.0,125.0,27.0,-101.0,-73.0,127.0,127.0,127.0,111.0,87.0,-114.0
127.0,127.0,132.0,128.0,127.0,127.0,106.0,125.0,27.0,-101.0,-73.0,127.0,127.0,127.0,111.0,87.0,-114.0
127.0,127.0,131.0,127.0,126.0,128.0,106.0,125.0,27.0,-101.0,-73.0,127.0,127.0,127.0,111.0,87.0,-114.0
126.0,124.0,124.0,130.0,128.0,127.0,106.0,124.0,27.0,-101.0,-73.0,127.0,127.0,127.0,111.0,87.0,-114.0
126.0,126.0,125.0,130.0,128.0,127.0,106.0,124.0,27.0,-101.0,-73.0,127.0,127.0,127.0,111.0,87.0,-114.0
126.0,126.0,127.0,130.0,127.0,127.0,106.0,124.0,27.0,-101.0,-73.0,127.0,127.0,127.0,111.0,87.0,-114.0
126.0,127.0,129.0,130.0,127.0,127.0,107.0,124.0,27.0,-101.0,-73.0,127.0,127.0,127.0,111.0,87.0,-114.0
126.0,127.0,131.0,130.0,127.0,127.0,106.0,124.0,27.0,-101.0,-73.0,127.0,127.0,127.0,111.0,87.0,-114.0
126.0,127.0,132.0,129.0,127.0,127.0,107.0,125.0,27.0,-101.0,-73.0,127.0,127.0,127.0,111.0,87.0,-114.0
127.0,127.0,132.0,129.0,127.0,127.0,106.0,125.0,27.0,-101.0,-73.0,127.0,127.0,127.0,111.0,87.0,-114.0
124.0,122.0,125.0,128.0,127.0,127.0,112.0,121.0,27.0,-101.0,-73.0,127.0,127.0,127.0,111.0,87.0,-114.0
124.0,122.0,126.0,127.0,127.0,127.0,113.0,122.0,27.0,-101.0,-73.0,127.0,127.0,127.0,111.0,87.0,-114.0
126.0,128.0,127.0,129.0,127.0,127.0,106.0,123.0,27.0,-101.0,-73.0,127.0,127.0,127.0,111.0,87.0,-114.0
126.0,128.0,127.0,129.0,127.0,127.0,106.0,122.0,27.0,-101.0,-73.0,127.0,127.0,127.0,111.0,87.0,-114.0
125.0,127.0,126.0,128.0,127.0,127.0,106.0,122.0,27.0,-101.0,-73.0,127.0,127.0,127.0,111.0,87.0,-114.0
125.0,126.0,125.0,128.0,127.0,127.0,106.0,122.0,27.0,-101.0,-73.0,127.0,127.0,127.0,111.0,87.0,-114.0
125.0,125.0,125.0,128.0,127.0,127.0,106.0,122.0,27.0,-101.0,-73.0,127.0,127.0,127.0,111.0,87.0,-114.0
124.0,125.0,124.0,128.0,127.0,127.0,108.0,122.0,27.0,-101.0,-73.0,127.0,127.0,127.0,111.0,87.0,-114.0
124.0,124.0,124.0,128.0,127.0,127.0,111.0,121.0,27.0,-101.0,-73.0,127.0,127.0,127.0,111.0,87.0,-114.0
124.0,123.0,124.0,128.0,127.0,127.0,113.0,121.0,27.0,-101.0,-73.0,127.0,127.0,127.0,111.0,87.0,-114.0
125.0,124.0,124.0,126.0,127.0,127.0,106.0,127.0,27.0,-101.0,-73.0,127.0,127.0,127.0,111.0,87.0,-114.0
126.0,127.0,128.0,130.0,127.0,128.0,107.0,126.0,27.0,-101.0,-73.0,127.0,127.0,127.0,111.0,87.0,-114.0
126.0,127.0,127.0,129.0,127.0,128.0,107.0,126.0,27.0,-101.0,-73.0,127.0,127.0,127.0,111.0,87.0,-114.0
126.0,126.0,126.0,129.0,127.0,128.0,106.0,127.0,27.0,-101.0,-73.0,127.0,127.0,127.0,111.0,87.0,-114.0
126.0,126.0,126.0,128.0,127.0,128.0,106.0,127.0,27.0,-101.0,-73.0,127.0,127.0,127.0,111.0,87.0,-114.0
125.0,126.0,126.0,128.0,127.0,127.0,106.0,127.0,27.0,-101.0,-73.0,127.0,127.0,127.0,111.0,87.0,-114.0
125.0,125.0,125.0,127.0,127.0,127.0,107.0,127.0,27.0,-101.0,-73.0,127.0,127.0,127.0,111.0,87.0,-114.0
125.0,125.0,125.0,126.0,127.0,127.0,106.0,127.0,27.0,-101.0,-73.0,127.0,127.0,127.0,111.0,87.0,-114.0
125.0,125.0,124.0,126.0,127.0,127.0,107.0,127.0,27.0,-101.0,-73.0,127.0,127.0,127.0,111.0,87.0,-114.0
125.0,125.0,124.0,126.0,127.0,127.0,106.0,127.0,27.0,-101.0,-73.0,127.0,127.0,127.0,111.0,87.0,-114.0
127.0,128.0,129.0,126.0,125.0,127.0,109.0,122.0,26.0,-101.0,-73.0,127.0,127.0,127.0,111.0,87.0,-114.0
127.0,128.0,130.0,125.0,125.0,127.0,112.0,121.0,26.0,-101.0,-73.0,127.0,127.0,127.0,111.0,87.0,-114.0
127.0,128.0,131.0,125.0,125.0,127.0,113.0,121.0,26.0,-101.0,-73.0,127.0,127.0,127.0,111.0,87.0,-114.0
126.0,127.0,131.0,124.0,125.0,127.0,113.0,121.0,26.0,-101.0,-73.0,127.0,127.0,127.0,111.0,87.0,-114.0
126.0,127.0,131.0,123.0,125.0,127.0,113.0,120.0,26.0,-101.0,-73.0,127.0,127.0,127.0,111.0,87.0,-114.0
126.0,126.0,131.0,123.0,125.0,127.0,113.0,120.0,26.0,-101.0,-73.0,127.0,127.0,127.0,111.0,87.0,-114.0
126.0,126.0,131.0,122.0,125.0,127.0,113.0,121.0,26.0,-101.0,-73.0,127.0,127.0,127.0,111.0,87.0,-114.0
126.0,126.0,130.0,122.0,125.0,127.0,113.0,121.0,26.0,-101.0,-73.0,127.0,127.0,127.0,111.0,87.0,-114.0
125.0,126.0,129.0,122.0,126.0,127.0,113.0,121.0,26.0,-101.0,-73.0,127.0,127.0,127.0,111.0,87.0,-114.0
125.0,125.0,129.0,122.0,126.0,127.0,113.0,122.0,26.0,-101.0,-73.0,127.0,127.0,127.0,111.0,87.0,-114.0
125.0,125.0,126.0,126.0,127.0,127.0,107.0,124.0,26.0,-101.0,-73.0,127.0,127.0,127.0,111.0,87.0,-114.0
125.0,125.0,126.0,126.0,127.0,127.0,106.0,124.0,26.0,-101.0,-73.0,127.0,127.0,127.0,111.0,87.0,-114.0
125.0,125.0,125.0,126.0,127.0,127.0,106.0,123.0,26.0,-101.0,-73.0,127.0,127.0,127.0,111.0,87.0,-114.0
125.0,125.0,125.0,126.0,127.0,127.0,106.0,123.0,26.0,-101.0,-73.0,127.0,127.0,127.0,111.0,87.0,-114.0
125.0,125.0,124.0,126.0,127.0,127.0,110.0,123.0,26.0,-101.0,-73.0,127.0,127.0,127.0,111.0,87.0,-114.0
126.0,125.0,125.0,126.0,127.0,127.0,113.0,123.0,26.0,-101.0,-73.0,127.0,127.0,127.0,111.0,87.0,-114.0
126.0,125.0,125.0,127.0,126.0,127.0,113.0,123.0,26.0,-101.0,-73.0,127.0,127.0,127.0,111.0,87.0,-114.0
126.0,125.0,127.0,128.0,127.0,127.0,113.0,123.0,26.0,-101.0,-73.0,127.0,127.0,127.0,111.0,87.0,-114.0
126.0,126.0,128.0,129.0,127.0,127.0,113.0,124.0,26.0,-101.0,-73.0,127.0,127.0,127.0,111.0,87.0,-114.0
125.0,124.0,126.0,126.0,127.0,127.0,106.0,124.0,26.0,-101.0,-73.0,127.0,127.0,127.0,111.0,87.0,-114.0
126.0,127.0,128.0,129.0,126.0,127.0,107.0,125.0,26.0,-101.0,-73.0,127.0,127.0,127.0,111.0,87.0,-114.0
126.0,127.0,128.0,128.0,126.0,127.0,107.0,125.0,26.0,-101.0,-73.0,127.0,127.0,127.0,111.0,87.0,-114.0
126.0,127.0,129.0,128.0,127.0,127.0,107.0,125.0,26.0,-101.0,-73.0,127.0,127.0,127.0,111.0,87.0,-114.0
126.0,126.0,129.0,128.0,127.0,127.0,107.0,125.0,26.0,-101.0,-73.0,127.0,127.0,127.0,111.0,87.0,-114.0
126.0,126.0,129.0,128.0,127.0,127.0,106.0,125.0,26.0,-101.0,-73.0,127.0,127.0,127.0,111.0,87.0,-114.0
126.0,126.0,129.0,127.0,127.0,127.0,106.0,125.0,26.0,-101.0,-73.0,127.0,127.0,127.0,111.0,87.0,-114.0
126.0,126.0,130.0,127.0,126.0,127.0,106.0,125.0,26.0,-101.0,-73.0,127.0,127.0,127.0,111.0,87.0,-114.0
126.0,126.0,130.0,127.0,126.0,127.0,107.0,125.0,26.0,-101.0,-73.0,127.0,127.0,127.0,111.0,87.0,-114.0
126.0,128.0,129.0,129.0,127.0,127.0,107.0,126.0,26.0,-101.0,-73.0,127.0,127.0,127.0,111.0,87.0,-114.0
126.0,128.0,128.0,129.0,126.0,127.0,107.0,125.0,26.0,-101.0,-73.0,127.0,127.0,127.0,111.0,87.0,-114.0
126.0,126.0,127.0,125.0,127.0,127.0,106.0,126.0,26.0,-101.0,-73.0,127.0,127.0,127.0,111.0,87.0,-114.0
126.0,126.0,126.0,125.0,127.0,127.0,109.0,126.0,26.0,-101.0,-73.0,127.0,127.0,127.0,111.0,87.0,-114.0
126.0,126.0,126.0,125.0,127.0,127.0,112.0,126.0,26.0,-101.0,-73.0,127.0,127.0,127.0,111.0,87.0,-114.0
126.0,126.0,126.0,125.0,127.0,127.0,113.0,126.0,26.0,-101.0,-73.0,127.0,127.0,127.0,111.0,87.0,-114.0
126.0,126.0,126.0,125.0,126.0,127.0,113.0,126.0,26.0,-101.0,-73.0,127.0,127.0,127.0,111.0,87.0,-114.0
126.0,126.0,126.0,125.0,126.0,127.0,113.0,126.0,26.0,-101.0,-73.0,127.0,127.0,127.0,111.0,87.0,-114.0
126.0,126.0,126.0,125.0,126.0,127.0,112.0,126.0,26.0,-101.0,-73.0,127.0,127.0,127.0,111.0,87.0,-114.0
126.0,127.0,127.0,125.0,127.0,127.0,106.0,126.0,26.0,-101.0,-73.0,127.0,127.0,127.0,111.0,87.0,-114.0
126.0,127.0,127.0,125.0,127.0,127.0,106.0,126.0,26.0,-101.0,-73.0,127.0,127.0,127.0,111.0,87.0,-114.0
126.0,126.0,126.0,125.0,127.0,127.0,106.0,126.0,26.0,-101.0,-73.0,127.0,127.0,127.0,111.0,87.0,-114.0
126.0,128.0,128.0,128.0,127.0,127.0,107.0,125.0,26.0,-102.0,-73.0,127.0,127.0,127.0,111.0,87.0,-114.0
126.0,127.0,127.0,127.0,127.0,127.0,112.0,125.0,26.0,-102.0,-73.0,127.0,127.0,127.0,111.0,87.0,-114.0
126.0,127.0,126.0,127.0,127.0,127.0,113.0,125.0,26.0,-102.0,-73.0,127.0,127.0,127.0,111.0,87.0,-114.0
126.0,127.0,126.0,127.0,127.0,127.0,113.0,125.0,26.0,-102.0,-73.0,127.0,127.0,127.0,111.0,87.0,-114.0
126.0,126.0,126.0,127.0,127.0,127.0,113.0,125.0,26.0,-102.0,-73.0,127.0,127.0,127.0,111.0,87.0,-114.0
126.0,126.0,126.0,127.0,127.0,127.0,113.0,125.0,26.0,-102.0,-73.0,127.0,127.0,127.0,111.0,87.0,-114.0
126.0,128.0,130.0,128.0,127.0,127.0,107.0,126.0,26.0,-102.0,-73.0,127.0,127.0,127.0,111.0,87.0,-114.0
126.0,128.0,130.0,128.0,127.0,127.0,107.0,126.0,26.0,-102.0,-73.0,127.0,127.0,127.0,111.0,87.0,-114.0
126.0,128.0,129.0,128.0,127.0,127.0,107.0,126.0,26.0,-102.0,-73.0,127.0,127.0,127.0,111.0,87.0,-114.0
126.0,128.0,129.0,128.0,127.0,127.0,107.0,125.0,26.0,-102.0,-73.0,127.0,127.0,127.0,111.0,87.0,-114.0
125.0,126.0,128.0,128.0,126.0,127.0,106.0,126.0,26.0,-102.0,-73.0,127.0,127.0,127.0,111.0,87.0,-114.0
125.0,126.0,128.0,128.0,126.0,127.0,106.0,126.0,26.0,-102.0,-73.0,127.0,127.0,127.0,111.0,87.0,-114.0
125.0,126.0,128.0,127.0,126.0,127.0,108.0,125.0,26.0,-102.0,-73.0,127.0,127.0,127.0,111.0,87.0,-114.0
125.0,127.0,127.0,127.0,126.0,127.0,112.0,125.0,26.0,-102.0,-73.0,127.0,127.0,127.0,111.0,87.0,-114.0
126.0,127.0,127.0,129.0,127.0,128.0,107.0,126.0,26.0,-102.0,-73.0,127.0,127.0,127.0,111.0,87.0,-114.0
125.0,127.0,127.0,128.0,127.0,128.0,107.0,126.0,26.0,-102.0,-73.0,127.0,127.0,127.0,111.0,87.0,-114.0
125.0,127.0,127.0,128.0,127.0,127.0,106.0,126.0,26.0,-102.0,-73.0,127.0,127.0,127.0,111.0,87.0,-114.0
125.0,127.0,127.0,128.0,127.0,127.0,106.0,126.0,26.0,-102.0,-73.0,127.0,127.0,127.0,111.0,87.0,-114.0
125.0,127.0,127.0,128.0,127.0,127.0,107.0,126.0,26.0,-102.0,-73.0,127.0,127.0,127.0,111.0,87.0,-114.0
125.0,126.0,128.0,128.0,126.0,127.0,107.0,126.0,26.0,-102.0,-73.0,127.0,127.0,127.0,111.0,87.0,-114.0
126.0,127.0,128.0,127.0,127.0,127.0,108.0,125.0,26.0,-102.0,-73.0,127.0,127.0,127.0,111.0,87.0,-114.0
126.0,127.0,128.0,127.0,126.0,127.0,112.0,125.0,26.0,-102.0,-73.0,127.0,127.0,127.0,111.0,87.0,-114.0
126.0,126.0,127.0,127.0,126.0,127.0,113.0,124.0,26.0,-102.0,-73.0,127.0,127.0,127.0,111.0,87.0,-114.0
126.0,127.0,127.0,128.0,126.0,127.0,106.0,125.0,26.0,-102.0,-73.0,127.0,127.0,127.0,111.0,87.0,-114.0
126.0,126.0,127.0,128.0,126.0,127.0,107.0,125.0,26.0,-102.0,-73.0,127.0,127.0,127.0,111.0,87.0,-114.0
126.0,126.0,127.0,128.0,126.0,127.0,110.0,125.0,26.0,-102.0,-73.0,127.0,127.0,127.0,111.0,87.0,-114.0
126.0,126.0,127.0,128.0,126.0,127.0,113.0,125.0,26.0,-102.0,-73.0,127.0,127.0,127.0,111.0,87.0,-114.0
126.0,126.0,128.0,128.0,127.0,127.0,113.0,125.0,26.0,-102.0,-73.0,127.0,127.0,127.0,111.0,87.0,-114.0
126.0,127.0,128.0,128.0,127.0,127.0,110.0,125.0,26.0,-102.0,-73.0,127.0,127.0,127.0,111.0,87.0,-114.0
126.0,127.0,128.0,128.0,127.0,127.0,107.0,125.0,26.0,-102.0,-73.0,127.0,127.0,127.0,111.0,87.0,-114.0
126.0,126.0,127.0,128.0,127.0,127.0,106.0,126.0,26.0,-102.0,-73.0,127.0,127.0,127.0,111.0,87.0,-114.0
126.0,126.0,127.0,128.0,127.0,127.0,106.0,127.0,26.0,-102.0,-73.0,127.0,127.0,127.0,111.0,87.0,-114.0
126.0,126.0,126.0,130.0,128.0,127.0,107.0,126.0,26.0,-102.0,-73.0,127.0,127.0,127.0,111.0,87.0,-114.0
126.0,126.0,126.0,130.0,128.0,127.0,107.0,126.0,26.0,-102.0,-73.0,127.0,127.0,127.0,111.0,87.0,-114.0
126.0,126.0,126.0,129.0,128.0,127.0,106.0,126.0,26.0,-102.0,-73.0,127.0,127.0,127.0,111.0,87.0,-114.0
126.0,126.0,126.0,129.0,128.0,127.0,106.0,126.0,26.0,-102.0,-73.0,127.0,127.0,127.0,111.0,87.0,-114.0
126.0,126.0,126.0,129.0,128.0,127.0,106.0,126.0,26.0,-102.0,-73.0,127.0,127.0,127.0,111.0,87.0,-114.0
126.0,126.0,126.0,128.0,127.0,127.0,106.0,126.0,26.0,-102.0,-73.0,127.0,127.0,127.0,111.0,87.0,-114.0
126.0,126.0,126.0,128.0,127.0,127.0,106.0,126.0,26.0,-102.0,-73.0,127.0,127.0,127.0,111.0,87.0,-114.0
126.0,126.0,126.0,128.0,127.0,127.0,106.0,126.0,26.0,-102.0,-73.0,127.0,127.0,127.0,111.0,87.0,-114.0
126.0,126.0,126.0,125.0,126.0,127.0,113.0,127.0,26.0,-102.0,-72.0,127.0,127.0,127.0,111.0,87.0,-114.0
126.0,125.0,127.0,128.0,127.0,127.0,106.0,128.0,26.0,-102.0,-72.0,127.0,127.0,127.0,111.0,87.0,-114.0
126.0,125.0,127.0,128.0,127.0,127.0,107.0,128.0,26.0,-102.0,-72.0,127.0,127.0,127.0,111.0,87.0,-114.0
126.0,125.0,127.0,128.0,127.0,127.0,106.0,127.0,26.0,-102.0,-72.0,127.0,127.0,127.0,111.0,87.0,-114.0
126.0,125.0,127.0,127.0,127.0,127.0,110.0,127.0,26.0,-102.0,-72.0,127.0,127.0,127.0,111.0,87.0,-114.0
126.0,125.0,127.0,127.0,127.0,127.0,112.0,127.0,26.0,-102.0,-72.0,127.0,127.0,127.0,111.0,87.0,-114.0
126.0,125.0,127.0,127.0,126.0,127.0,112.0,127.0,26.0,-102.0,-72.0,127.0,127.0,127.0,111.0,87.0,-114.0
126.0,126.0,127.0,126.0,126.0,127.0,113.0,127.0,26.0,-102.0,-72.0,127.0,127.0,127.0,111.0,87.0,-114.0
126.0,126.0,127.0,126.0,126.0,127.0,112.0,127.0,26.0,-102.0,-72.0,127.0,127.0,127.0,111.0,87.0,-114.0
126.0,126.0,127.0,126.0,126.0,127.0,113.0,127.0,26.0,-102.0,-72.0,127.0,127.0,127.0,111.0,87.0,-114.0
126.0,127.0,128.0,129.0,127.0,127.0,110.0,129.0,26.0,-103.0,-72.0,127.0,127.0,127.0,111.0,87.0,-114.0
126.0,127.0,128.0,129.0,127.0,127.0,113.0,129.0,26.0,-103.0,-72.0,127.0,127.0,127.0,111.0,87.0,-114.0
127.0,127.0,128.0,129.0,127.0,127.0,112.0,129.0,26.0,-103.0,-72.0,127.0,127.0,127.0,111.0,87.0,-114.0
126.0,127.0,128.0,129.0,127.0,127.0,113.0,129.0,26.0,-103.0,-72.0,127.0,127.0,127.0,111.0,87.0,-114.0
126.0,127.0,128.0,129.0,126.0,127.0,113.0,129.0,26.0,-103.0,-72.0,127.0,127.0,127.0,111.0,87.0,-114.0
126.0,126.0,128.0,128.0,126.0,127.0,112.0,129.0,26.0,-103.0,-72.0,127.0,127.0,127.0,111.0,87.0,-114.0
126.0,126.0,128.0,128.0,126.0,127.0,112.0,128.0,26.0,-103.0,-72.0,127.0,127.0,127.0,111.0,87.0,-114.0
126.0,126.0,128.0,128.0,126.0,127.0,112.0,128.0,26.0,-103.0,-72.0,127.0,127.0,127.0,111.0,87.0,-114.0
126.0,126.0,128.0,128.0,126.0,127.0,112.0,128.0,26.0,-103.0,-72.0,127.0,127.0,127.0,111.0,87.0,-114.0
126.0,126.0,129.0,128.0,126.0,127.0,112.0,128.0,26.0,-103.0,-72.0,127.0,127.0,127.0,111.0,87.0,-114.0
126.0,127.0,127.0,127.0,127.0,127.0,107.0,130.0,26.0,-103.0,-72.0,127.0,127.0,127.0,111.0,87.0,-114.0
126.0,127.0,127.0,127.0,127.0,127.0,107.0,130.0,26.0,-103.0,-72.0,127.0,127.0,127.0,111.0,87.0,-114.0
126.0,127.0,127.0,127.0,127.0,127.0,109.0,130.0,26.0,-103.0,-72.0,127.0,127.0,127.0,111.0,87.0,-114.0
126.0,127.0,127.0,127.0,127.0,127.0,112.0,130.0,26.0,-103.0,-72.0,127.0,127.0,127.0,111.0,87.0,-114.0
126.0,126.0,127.0,127.0,127.0,127.0,113.0,130.0,26.0,-103.0,-72.0,127.0,127.0,127.0,111.0,87.0,-114.0
126.0,126.0,127.0,127.0,126.0,127.0,114.0,130.0,26.0,-103.0,-72.0,127.0,127.0,127.0,111.0,87.0,-114.0
126.0,126.0,127.0,127.0,126.0,127.0,113.0,130.0,26.0,-103.0,-72.0,127.0,127.0,127.0,111.0,87.0,-114.0
126.0,126.0,127.0,127.0,126.0,127.0,113.0,130.0,26.0,-103.0,-72.0,127.0,127.0,127.0,111.0,87.0,-114.0
126.0,126.0,127.0,127.0,126.0,127.0,113.0,130.0,26.0,-103.0,-72.0,127.0,127.0,127.0,111.0,87.0,-114.0
126.0,127.0,127.0,127.0,127.0,127.0,107.0,130.0,26.0,-103.0,-72.0,127.0,127.0,127.0,111.0,87.0,-114.0
126.0,126.0,128.0,127.0,126.0,127.0,106.0,135.0,26.0,-103.0,-72.0,127.0,127.0,127.0,111.0,87.0,-114.0
126.0,126.0,128.0,127.0,126.0,127.0,109.0,135.0,26.0,-103.0,-72.0,127.0,127.0,127.0,111.0,87.0,-114.0
126.0,126.0,128.0,127.0,126.0,127.0,112.0,135.0,26.0,-103.0,-72.0,127.0,127.0,127.0,111.0,87.0,-114.0
126.0,126.0,128.0,127.0,126.0,127.0,113.0,135.0,26.0,-103.0,-72.0,127.0,127.0,127.0,111.0,87.0,-114.0
126.0,126.0,128.0,127.0,126.0,127.0,113.0,135.0,26.0,-103.0,-72.0,127.0,127.0,127.0,111.0,87.0,-114.0
126.0,126.0,128.0,127.0,126.0,127.0,112.0,135.0,26.0,-103.0,-72.0,127.0,127.0,127.0,111.0,87.0,-114.0
126.0,126.0,128.0,127.0,126.0,127.0,112.0,135.0,26.0,-103.0,-72.0,127.0,127.0,127.0,111.0,87.0,-114.0
126.0,125.0,127.0,127.0,126.0,127.0,113.0,135.0,26.0,-103.0,-72.0,127.0,127.0,127.0,111.0,87.0,-114.0
126.0,126.0,127.0,128.0,127.0,127.0,107.0,135.0,26.0,-103.0,-72.0,127.0,127.0,127.0,111.0,87.0,-114.0
126.0,126.0,128.0,127.0,127.0,127.0,106.0,135.0,26.0,-103.0,-72.0,127.0,127.0,127.0,111.0,87.0,-114.0
126.0,126.0,128.0,128.0,127.0,127.0,112.0,134.0,26.0,-103.0,-72.0,127.0,127.0,127.0,111.0,87.0,-114.0
126.0,125.0,128.0,128.0,127.0,127.0,112.0,134.0,26.0,-103.0,-72.0,127.0,127.0,127.0,111.0,87.0,-114.0
126.0,125.0,128.0,128.0,127.0,127.0,112.0,134.0,26.0,-103.0,-72.0,127.0,127.0,127.0,111.0,87.0,-114.0
126.0,125.0,129.0,128.0,127.0,127.0,112.0,133.0,26.0,-103.0,-72.0,127.0,127.0,127.0,111.0,87.0,-114.0
126.0,125.0,129.0,128.0,127.0,126.0,112.0,133.0,26.0,-103.0,-72.0,127.0,127.0,127.0,111.0,87.0,-114.0
126.0,125.0,129.0,128.0,127.0,126.0,113.0,133.0,26.0,-103.0,-72.0,127.0,127.0,127.0,111.0,87.0,-114.0
126.0,125.0,129.0,128.0,127.0,126.0,113.0,133.0,26.0,-103.0,-72.0,127.0,127.0,127.0,111.0,87.0,-114.0
126.0,126.0,128.0,128.0,127.0,127.0,113.0,134.0,26.0,-103.0,-72.0,127.0,127.0,127.0,111.0,87.0,-114.0
126.0,126.0,128.0,128.0,127.0,127.0,112.0,134.0,26.0,-103.0,-72.0,127.0,127.0,127.0,111.0,87.0,-114.0
126.0,126.0,128.0,128.0,127.0,127.0,112.0,134.0,26.0,-103.0,-72.0,127.0,127.0,127.0,111.0,87.0,-114.0
126.0,126.0,130.0,129.0,127.0,127.0,113.0,130.0,26.0,-102.0,-72.0,127.0,127.0,127.0,111.0,87.0,-114.0
126.0,125.0,130.0,129.0,127.0,127.0,113.0,130.0,26.0,-102.0,-72.0,127.0,127.0,127.0,111.0,87.0,-114.0
126.0,125.0,130.0,129.0,127.0,127.0,113.0,130.0,26.0,-102.0,-72.0,127.0,127.0,127.0,111.0,87.0,-114.0
126.0,125.0,130.0,128.0,127.0,127.0,113.0,130.0,26.0,-102.0,-72.0,127.0,127.0,127.0,111.0,87.0,-114.0
126.0,125.0,130.0,128.0,127.0,127.0,113.0,130.0,26.0,-102.0,-72.0,127.0,127.0,127.0,111.0,87.0,-114.0
126.0,125.0,130.0,128.0,127.0,127.0,112.0,130.0,26.0,-102.0,-72.0,127.0,127.0,127.0,111.0,87.0,-114.0
126.0,125.0,129.0,129.0,127.0,127.0,107.0,130.0,26.0,-102.0,-72.0,127.0,127.0,127.0,111.0,87.0,-114.0
126.0,125.0,130.0,129.0,127.0,127.0,108.0,130.0,26.0,-102.0,-72.0,127.0,127.0,127.0,111.0,87.0,-114.0
126.0,125.0,130.0,129.0,127.0,127.0,111.0,130.0,26.0,-102.0,-72.0,127.0,127.0,127.0,111.0,87.0,-114.0
126.0,125.0,130.0,129.0,127.0,127.0,112.0,130.0,26.0,-102.0,-72.0,127.0,127.0,127.0,111.0,87.0,-114.0
126.0,126.0,129.0,125.0,127.0,127.0,107.0,130.0,26.0,-102.0,-71.0,127.0,127.0,127.0,111.0,87.0,-114.0
126.0,126.0,129.0,124.0,127.0,127.0,107.0,130.0,26.0,-102.0,-71.0,127.0,127.0,127.0,111.0,87.0,-114.0
126.0,126.0,128.0,123.0,127.0,127.0,107.0,130.0,26.0,-102.0,-71.0,127.0,127.0,127.0,111.0,87.0,-114.0
126.0,125.0,128.0,122.0,126.0,127.0,106.0,130.0,26.0,-102.0,-71.0,127.0,127.0,127.0,111.0,87.0,-114.0
126.0,125.0,129.0,122.0,126.0,127.0,106.0,130.0,26.0,-102.0,-71.0,127.0,127.0,127.0,111.0,87.0,-114.0
126.0,127.0,129.0,130.0,128.0,127.0,106.0,130.0,26.0,-102.0,-71.0,127.0,127.0,127.0,111.0,87.0,-114.0
126.0,127.0,129.0,129.0,128.0,127.0,106.0,130.0,26.0,-102.0,-71.0,127.0,127.0,127.0,111.0,87.0,-114.0
126.0,127.0,129.0,128.0,128.0,127.0,106.0,130.0,26.0,-102.0,-71.0,127.0,127.0,127.0,111.0,87.0,-114.0
126.0,126.0,129.0,127.0,127.0,127.0,106.0,130.0,26.0,-102.0,-71.0,127.0,127.0,127.0,111.0,87.0,-114.0
126.0,126.0,129.0,126.0,127.0,127.0,106.0,130.0,26.0,-102.0,-71.0,127.0,127.0,127.0,111.0,87.0,-114.0
126.0,126.0,131.0,130.0,127.0,129.0,108.0,129.0,27.0,-101.0,-71.0,126.0,127.0,127.0,111.0,87.0,-114.0
126.0,126.0,131.0,130.0,127.0,129.0,108.0,129.0,27.0,-101.0,-71.0,126.0,127.0,127.0,111.0,87.0,-114.0
126.0,126.0,131.0,130.0,127.0,129.0,108.0,129.0,27.0,-101.0,-71.0,126.0,127.0,127.0,111.0,87.0,-114.0
126.0,126.0,131.0,130.0,127.0,129.0,108.0,129.0,27.0,-101.0,-71.0,126.0,127.0,127.0,111.0,87.0,-114.0
126.0,127.0,128.0,128.0,127.0,128.0,108.0,129.0,27.0,-101.0,-71.0,126.0,127.0,127.0,111.0,87.0,-114.0
126.0,127.0,129.0,128.0,127.0,128.0,108.0,129.0,27.0,-101.0,-71.0,126.0,127.0,127.0,111.0,87.0,-114.0
126.0,127.0,129.0,129.0,127.0,128.0,108.0,129.0,27.0,-101.0,-71.0,126.0,127.0,127.0,111.0,87.0,-114.0
126.0,127.0,130.0,129.0,127.0,128.0,108.0,129.0,27.0,-101.0,-71.0,126.0,127.0,127.0,111.0,87.0,-114.0
126.0,127.0,130.0,130.0,127.0,128.0,108.0,129.0,27.0,-101.0,-71.0,126.0,127.0,127.0,111.0,87.0,-114.0
126.0,126.0,130.0,130.0,127.0,128.0,108.0,129.0,27.0,-101.0,-71.0,126.0,127.0,127.0,111.0,87.0,-114.0
126.0,127.0,129.0,129.0,127.0,130.0,110.0,129.0,27.0,-101.0,-71.0,126.0,127.0,127.0,111.0,87.0,-114.0
126.0,127.0,129.0,129.0,127.0,130.0,110.0,129.0,27.0,-101.0,-71.0,126.0,127.0,127.0,111.0,87.0,-114.0
127.0,127.0,129.0,129.0,127.0,130.0,110.0,129.0,27.0,-101.0,-71.0,126.0,127.0,127.0,111.0,87.0,-114.0
127.0,128.0,130.0,127.0,127.0,130.0,110.0,129.0,27.0,-101.0,-71.0,126.0,127.0,127.0,111.0,87.0,-114.0
127.0,128.0,130.0,128.0,127.0,130.0,110.0,129.0,27.0,-101.0,-71.0,126.0,127.0,127.0,111.0,87.0,-114.0
127.0,127.0,130.0,128.0,127.0,130.0,110.0,129.0,27.0,-101.0,-71.0,126.0,127.0,127.0,111.0,87.0,-114.0
127.0,127.0,130.0,128.0,127.0,130.0,110.0,129.0,27.0,-101.0,-71.0,126.0,127.0,127.0,111.0,87.0,-114.0
127.0,127.0,130.0,128.0,127.0,130.0,110.0,129.0,27.0,-101.0,-71.0,126.0,127.0,127.0,111.0,87.0,-114.0
127.0,127.0,130.0,129.0,127.0,130.0,110.0,129.0,27.0,-101.0,-71.0,126.0,127.0,127.0,111.0,87.0,-114.0
127.0,127.0,130.0,129.0,127.0,130.0,110.0,129.0,27.0,-101.0,-71.0,126.0,127.0,127.0,111.0,87.0,-114.0
127.0,126.0,126.0,129.0,126.0,129.0,110.0,129.0,28.0,-102.0,-71.0,126.0,127.0,127.0,111.0,87.0,-114.0
127.0,126.0,126.0,129.0,126.0,129.0,110.0,129.0,28.0,-102.0,-71.0,126.0,127.0,127.0,111.0,87.0,-114.0
127.0,127.0,127.0,127.0,127.0,129.0,110.0,129.0,28.0,-102.0,-71.0,126.0,127.0,127.0,111.0,87.0,-114.0
127.0,127.0,127.0,128.0,127.0,129.0,109.0,129.0,28.0,-102.0,-71.0,126.0,127.0,127.0,111.0,87.0,-114.0
127.0,127.0,126.0,128.0,127.0,129.0,109.0,129.0,28.0,-102.0,-71.0,126.0,127.0,127.0,111.0,87.0,-114.0
127.0,127.0,126.0,129.0,127.0,129.0,109.0,129.0,28.0,-102.0,-71.0,126.0,127.0,127.0,111.0,87.0,-114.0
127.0,127.0,126.0,129.0,126.0,129.0,109.0,129.0,28.0,-102.0,-71.0,126.0,127.0,127.0,111.0,87.0,-114.0
127.0,127.0,126.0,129.0,126.0,129.0,110.0,129.0,28.0,-102.0,-71.0,126.0,127.0,127.0,111.0,87.0,-114.0
127.0,126.0,126.0,129.0,126.0,129.0,110.0,129.0,28.0,-102.0,-71.0,126.0,127.0,127.0,111.0,87.0,-114.0
127.0,126.0,126.0,129.0,126.0,129.0,110.0,129.0,28.0,-102.0,-71.0,126.0,127.0,127.0,111.0,87.0,-114.0
127.0,126.0,122.0,126.0,126.0,129.0,108.0,129.0,28.0,-103.0,-71.0,126.0,127.0,127.0,111.0,87.0,-114.0
127.0,127.0,123.0,128.0,126.0,129.0,109.0,129.0,28.0,-103.0,-71.0,126.0,127.0,127.0,111.0,87.0,-114.0
127.0,127.0,123.0,127.0,126.0,129.0,109.0,129.0,28.0,-103.0,-71.0,126.0,127.0,127.0,111.0,87.0,-114.0
127.0,127.0,123.0,127.0,127.0,129.0,109.0,129.0,28.0,-103.0,-71.0,126.0,127.0,127.0,111.0,87.0,-114.0
127.0,127.0,123.0,127.0,126.0,129.0,109.0,129.0,28.0,-103.0,-71.0,126.0,127.0,127.0,111.0,87.0,-114.0
127.0,127.0,123.0,127.0,126.0,129.0,109.0,129.0,28.0,-103.0,-71.0,126.0,127.0,127.0,111.0,87.0,-114.0
127.0,127.0,123.0,126.0,126.0,129.0,109.0,129.0,28.0,-103.0,-71.0,126.0,127.0,127.0,111.0,87.0,-114.0
127.0,127.0,123.0,126.0,126.0,129.0,109.0,129.0,28.0,-103.0,-71.0,126.0,127.0,127.0,111.0,87.0,-114.0
127.0,126.0,122.0,126.0,126.0,129.0,109.0,129.0,28.0,-103.0,-71.0,126.0,127.0,127.0,111.0,87.0,-114.0
127.0,126.0,122.0,126.0,126.0,129.0,109.0,129.0,28.0,-103.0,-71.0,126.0,127.0,127.0,111.0,87.0,-114.0
127.0,127.0,120.0,126.0,126.0,128.0,109.0,129.0,28.0,-104.0,-71.0,127.0,127.0,127.0,111.0,87.0,-114.0
127.0,127.0,120.0,126.0,126.0,128.0,107.0,129.0,28.0,-104.0,-71.0,127.0,127.0,127.0,111.0,87.0,-114.0
127.0,127.0,120.0,125.0,126.0,128.0,107.0,129.0,28.0,-104.0,-71.0,127.0,127.0,127.0,111.0,87.0,-114.0
127.0,127.0,120.0,125.0,126.0,128.0,108.0,129.0,28.0,-104.0,-71.0,127.0,127.0,127.0,111.0,87.0,-114.0
127.0,127.0,120.0,124.0,126.0,128.0,108.0,129.0,28.0,-104.0,-71.0,127.0,127.0,127.0,111.0,87.0,-114.0
127.0,126.0,121.0,124.0,126.0,128.0,107.0,129.0,28.0,-104.0,-71.0,127.0,127.0,127.0,111.0,87.0,-114.0
127.0,126.0,121.0,124.0,126.0,128.0,107.0,129.0,28.0,-104.0,-71.0,127.0,127.0,127.0,111.0,87.0,-114.0
127.0,126.0,121.0,124.0,126.0,128.0,107.0,129.0,28.0,-104.0,-71.0,127.0,127.0,127.0,111.0,87.0,-114.0
127.0,126.0,121.0,124.0,126.0,127.0,106.0,129.0,28.0,-104.0,-71.0,127.0,127.0,127.0,111.0,87.0,-114.0
127.0,126.0,121.0,124.0,126.0,127.0,106.0,129.0,28.0,-104.0,-71.0,127.0,127.0,127.0,111.0,87.0,-114.0
127.0,128.0,122.0,126.0,127.0,127.0,109.0,129.0,28.0,-103.0,-71.0,127.0,127.0,127.0,111.0,87.0,-114.0
127.0,128.0,123.0,126.0,127.0,127.0,112.0,129.0,28.0,-103.0,-71.0,127.0,127.0,127.0,111.0,87.0,-114.0
127.0,128.0,123.0,127.0,127.0,127.0,113.0,129.0,28.0,-103.0,-71.0,127.0,127.0,127.0,111.0,87.0,-114.0
127.0,127.0,123.0,128.0,127.0,127.0,113.0,129.0,28.0,-103.0,-71.0,127.0,127.0,127.0,111.0,87.0,-114.0
127.0,127.0,123.0,128.0,127.0,127.0,113.0,129.0,28.0,-103.0,-71.0,127.0,127.0,127.0,111.0,87.0,-114.0
127.0,127.0,123.0,128.0,127.0,127.0,113.0,129.0,28.0,-103.0,-71.0,127.0,127.0,127.0,111.0,87.0,-114.0
127.0,127.0,123.0,128.0,127.0,127.0,113.0,129.0,28.0,-103.0,-71.0,127.0,127.0,127.0,111.0,87.0,-114.0
127.0,127.0,123.0,129.0,127.0,127.0,113.0,129.0,28.0,-103.0,-71.0,127.0,127.0,127.0,111.0,87.0,-114.0
127.0,126.0,123.0,129.0,127.0,127.0,112.0,129.0,28.0,-103.0,-71.0,127.0,127.0,127.0,111.0,87.0,-114.0
127.0,127.0,122.0,125.0,127.0,127.0,106.0,129.0,28.0,-103.0,-71.0,127.0,127.0,127.0,111.0,87.0,-114.0
127.0,127.0,123.0,128.0,127.0,127.0,107.0,129.0,28.0,-103.0,-70.0,127.0,127.0,127.0,111.0,87.0,-114.0
127.0,127.0,123.0,127.0,127.0,127.0,106.0,129.0,28.0,-103.0,-70.0,127.0,127.0,127.0,111.0,87.0,-114.0
127.0,127.0,123.0,127.0,127.0,127.0,108.0,129.0,28.0,-103.0,-70.0,127.0,127.0,127.0,111.0,87.0,-114.0
127.0,127.0,123.0,126.0,127.0,127.0,111.0,129.0,28.0,-103.0,-70.0,127.0,127.0,127.0,111.0,87.0,-114.0
127.0,127.0,123.0,126.0,127.0,127.0,113.0,129.0,28.0,-103.0,-70.0,127.0,127.0,127.0,111.0,87.0,-114.0
127.0,127.0,123.0,125.0,127.0,127.0,113.0,129.0,28.0,-103.0,-70.0,127.0,127.0,127.0,111.0,87.0,-114.0
127.0,126.0,123.0,125.0,127.0,127.0,113.0,129.0,28.0,-103.0,-70.0,127.0,127.0,127.0,111.0,87.0,-114.0
127.0,126.0,123.0,124.0,127.0,127.0,113.0,129.0,28.0,-103.0,-70.0,127.0,127.0,127.0,111.0,87.0,-114.0
127.0,127.0,123.0,128.0,128.0,127.0,106.0,129.0,28.0,-103.0,-70.0,127.0,127.0,127.0,111.0,87.0,-114.0
127.0,127.0,123.0,128.0,128.0,127.0,106.0,129.0,28.0,-103.0,-70.0,127.0,127.0,127.0,111.0,87.0,-114.0
127.0,127.0,123.0,126.0,128.0,127.0,107.0,130.0,28.0,-103.0,-70.0,126.0,127.0,127.0,111.0,87.0,-114.0
127.0,127.0,124.0,126.0,128.0,127.0,107.0,129.0,28.0,-103.0,-70.0,126.0,127.0,127.0,111.0,87.0,-114.0
127.0,127.0,124.0,126.0,128.0,127.0,106.0,129.0,28.0,-103.0,-70.0,126.0,127.0,127.0,111.0,87.0,-114.0
127.0,127.0,124.0,125.0,127.0,127.0,106.0,129.0,28.0,-103.0,-70.0,126.0,127.0,127.0,111.0,87.0,-114.0
127.0,127.0,124.0,125.0,127.0,127.0,106.0,129.0,28.0,-103.0,-70.0,126.0,127.0,127.0,111.0,87.0,-114.0
127.0,126.0,124.0,125.0,127.0,127.0,108.0,129.0,28.0,-103.0,-70.0,126.0,127.0,127.0,111.0,87.0,-114.0
127.0,126.0,124.0,125.0,127.0,127.0,111.0,129.0,28.0,-103.0,-70.0,126.0,127.0,127.0,111.0,87.0,-114.0
127.0,127.0,123.0,126.0,128.0,128.0,107.0,130.0,28.0,-103.0,-70.0,126.0,127.0,127.0,111.0,87.0,-114.0
127.0,127.0,123.0,126.0,128.0,128.0,107.0,130.0,28.0,-103.0,-70.0,126.0,127.0,127.0,111.0,87.0,-114.0
127.0,127.0,123.0,126.0,128.0,128.0,107.0,130.0,28.0,-103.0,-70.0,126.0,127.0,127.0,111.0,87.0,-114.0
127.0,127.0,129.0,127.0,127.0,127.0,112.0,129.0,28.0,-103.0,-70.0,126.0,127.0,127.0,111.0,87.0,-114.0
127.0,127.0,129.0,127.0,128.0,126.0,112.0,129.0,28.0,-103.0,-70.0,126.0,127.0,127.0,111.0,87.0,-114.0
127.0,127.0,129.0,127.0,127.0,126.0,112.0,129.0,28.0,-103.0,-70.0,126.0,127.0,127.0,111.0,87.0,-114.0
127.0,126.0,129.0,126.0,127.0,126.0,112.0,129.0,28.0,-103.0,-70.0,126.0,127.0,127.0,111.0,87.0,-114.0
127.0,126.0,129.0,126.0,127.0,126.0,112.0,129.0,28.0,-103.0,-70.0,126.0,127.0,127.0,111.0,87.0,-114.0
127.0,126.0,129.0,126.0,127.0,126.0,112.0,129.0,28.0,-103.0,-70.0,126.0,127.0,127.0,111.0,87.0,-114.0
127.0,127.0,128.0,127.0,128.0,127.0,110.0,129.0,28.0,-103.0,-70.0,126.0,127.0,127.0,111.0,87.0,-114.0
127.0,127.0,128.0,127.0,128.0,127.0,113.0,129.0,28.0,-103.0,-70.0,126.0,127.0,127.0,111.0,87.0,-114.0
127.0,127.0,128.0,127.0,128.0,127.0,113.0,129.0,28.0,-103.0,-70.0,126.0,127.0,127.0,111.0,87.0,-114.0
127.0,127.0,128.0,127.0,128.0,127.0,113.0,129.0,28.0,-103.0,-70.0,126.0,127.0,127.0,111.0,87.0,-114.0
127.0,127.0,131.0,126.0,127.0,128.0,107.0,129.0,28.0,-104.0,-70.0,126.0,127.0,127.0,111.0,87.0,-114.0
127.0,127.0,131.0,126.0,127.0,128.0,107.0,129.0,28.0,-104.0,-70.0,126.0,127.0,127.0,111.0,87.0,-114.0
127.0,127.0,131.0,126.0,127.0,128.0,108.0,129.0,28.0,-104.0,-70.0,126.0,127.0,127.0,111.0,87.0,-114.0
127.0,127.0,131.0,126.0,127.0,128.0,107.0,129.0,28.0,-104.0,-70.0,126.0,127.0,127.0,111.0,87.0,-114.0
127.0,126.0,131.0,126.0,127.0,128.0,107.0,129.0,28.0,-104.0,-70.0,126.0,127.0,127.0,111.0,87.0,-114.0
127.0,127.0,131.0,127.0,127.0,128.0,107.0,129.0,28.0,-104.0,-70.0,126.0,127.0,127.0,111.0,87.0,-114.0
127.0,127.0,131.0,127.0,127.0,128.0,108.0,129.0,28.0,-104.0,-70.0,126.0,127.0,127.0,111.0,87.0,-114.0
127.0,127.0,131.0,127.0,127.0,128.0,108.0,129.0,28.0,-104.0,-70.0,126.0,127.0,127.0,111.0,87.0,-114.0
127.0,127.0,131.0,127.0,127.0,128.0,108.0,129.0,28.0,-104.0,-70.0,126.0,127.0,127.0,111.0,87.0,-114.0
127.0,127.0,131.0,127.0,127.0,128.0,108.0,129.0,28.0,-104.0,-70.0,126.0,127.0,127.0,111.0,87.0,-114.0
127.0,127.0,131.0,124.0,125.0,127.0,106.0,129.0,28.0,-105.0,-70.0,127.0,127.0,127.0,111.0,87.0,-114.0
127.0,127.0,131.0,124.0,125.0,127.0,107.0,129.0,28.0,-105.0,-70.0,127.0,127.0,127.0,111.0,87.0,-114.0
127.0,126.0,131.0,124.0,125.0,127.0,107.0,129.0,28.0,-105.0,-70.0,127.0,127.0,127.0,111.0,87.0,-114.0
127.0,126.0,131.0,123.0,125.0,127.0,107.0,128.0,28.0,-105.0,-70.0,127.0,127.0,127.0,111.0,87.0,-114.0
127.0,127.0,130.0,124.0,125.0,128.0,107.0,129.0,28.0,-105.0,-70.0,127.0,127.0,127.0,111.0,87.0,-114.0
127.0,127.0,130.0,124.0,125.0,128.0,108.0,129.0,28.0,-105.0,-70.0,127.0,127.0,127.0,111.0,87.0,-114.0
127.0,127.0,130.0,124.0,125.0,128.0,107.0,129.0,28.0,-105.0,-70.0,127.0,127.0,127.0,111.0,87.0,-114.0
127.0,127.0,130.0,124.0,125.0,128.0,107.0,129.0,28.0,-105.0,-70.0,127.0,127.0,127.0,111.0,87.0,-114.0
127.0,127.0,131.0,124.0,125.0,128.0,107.0,129.0,28.0,-105.0,-70.0,127.0,127.0,127.0,111.0,87.0,-114.0
127.0,127.0,131.0,124.0,125.0,127.0,107.0,129.0,28.0,-105.0,-70.0,127.0,127.0,127.0,111.0,87.0,-114.0
127.0,126.0,130.0,123.0,124.0,127.0,112.0,129.0,28.0,-106.0,-70.0,127.0,127.0,127.0,111.0,87.0,-114.0
127.0,126.0,130.0,122.0,124.0,127.0,112.0,128.0,28.0,-106.0,-70.0,127.0,127.0,127.0,111.0,87.0,-114.0
127.0,126.0,130.0,122.0,124.0,127.0,113.0,128.0,28.0,-106.0,-70.0,127.0,127.0,127.0,111.0,87.0,-114.0
127.0,127.0,130.0,124.0,125.0,127.0,106.0,129.0,28.0,-106.0,-70.0,127.0,127.0,127.0,111.0,87.0,-114.0
127.0,127.0,130.0,123.0,125.0,127.0,106.0,129.0,28.0,-106.0,-70.0,127.0,127.0,127.0,111.0,87.0,-114.0
127.0,127.0,130.0,123.0,125.0,127.0,106.0,129.0,28.0,-106.0,-70.0,127.0,127.0,127.0,111.0,87.0,-114.0
127.0,127.0,130.0,123.0,124.0,127.0,106.0,129.0,28.0,-106.0,-70.0,127.0,127.0,127.0,111.0,87.0,-114.0
127.0,127.0,130.0,123.0,124.0,127.0,106.0,129.0,28.0,-106.0,-70.0,127.0,127.0,127.0,111.0,87.0,-114.0
127.0,127.0,130.0,123.0,124.0,127.0,109.0,129.0,28.0,-106.0,-70.0,127.0,127.0,127.0,111.0,87.0,-114.0
127.0,127.0,130.0,123.0,124.0,127.0,111.0,129.0,28.0,-106.0,-70.0,127.0,127.0,127.0,111.0,87.0,-114.0
127.0,126.0,130.0,123.0,125.0,127.0,112.0,128.0,29.0,-107.0,-71.0,127.0,127.0,127.0,111.0,87.0,-114.0
127.0,126.0,130.0,123.0,125.0,126.0,113.0,128.0,29.0,-107.0,-71.0,127.0,127.0,127.0,111.0,87.0,-114.0
127.0,127.0,130.0,124.0,125.0,127.0,111.0,129.0,29.0,-107.0,-71.0,127.0,127.0,127.0,111.0,87.0,-114.0
127.0,127.0,130.0,124.0,125.0,127.0,113.0,129.0,29.0,-107.0,-71.0,127.0,127.0,127.0,111.0,87.0,-114.0
127.0,127.0,130.0,123.0,125.0,127.0,113.0,128.0,29.0,-107.0,-71.0,127.0,127.0,127.0,111.0,87.0,-114.0
127.0,127.0,130.0,123.0,125.0,127.0,114.0,128.0,29.0,-107.0,-71.0,127.0,127.0,127.0,111.0,87.0,-114.0
127.0,127.0,130.0,123.0,125.0,127.0,113.0,128.0,29.0,-107.0,-71.0,127.0,127.0,127.0,111.0,87.0,-114.0
127.0,126.0,130.0,123.0,125.0,127.0,113.0,128.0,29.0,-107.0,-71.0,127.0,127.0,127.0,111.0,87.0,-114.0
127.0,126.0,130.0,123.0,125.0,127.0,113.0,128.0,29.0,-107.0,-71.0,127.0,127.0,127.0,111.0,87.0,-114.0
127.0,126.0,130.0,123.0,125.0,127.0,112.0,128.0,29.0,-107.0,-71.0,127.0,127.0,127.0,111.0,87.0,-114.0
127.0,126.0,128.0,123.0,125.0,126.0,112.0,128.0,29.0,-108.0,-71.0,127.0,127.0,127.0,111.0,87.0,-114.0
127.0,128.0,128.0,125.0,126.0,126.0,112.0,129.0,29.0,-108.0,-71.0,127.0,127.0,127.0,111.0,87.0,-114.0
127.0,127.0,128.0,124.0,126.0,126.0,112.0,128.0,29.0,-108.0,-71.0,127.0,127.0,127.0,111.0,87.0,-114.0
127.0,127.0,128.0,124.0,126.0,126.0,112.0,128.0,29.0,-108.0,-71.0,127.0,127.0,127.0,111.0,87.0,-114.0
127.0,127.0,128.0,124.0,125.0,126.0,112.0,128.0,29.0,-108.0,-71.0,127.0,127.0,127.0,111.0,87.0,-114.0
127.0,127.0,128.0,124.0,125.0,126.0,111.0,128.0,29.0,-108.0,-71.0,127.0,127.0,127.0,111.0,87.0,-114.0
127.0,127.0,128.0,124.0,125.0,126.0,111.0,128.0,29.0,-108.0,-71.0,127.0,127.0,127.0,111.0,87.0,-114.0
127.0,126.0,128.0,124.0,125.0,126.0,111.0,128.0,29.0,-108.0,-71.0,127.0,127.0,127.0,111.0,87.0,-114.0
127.0,126.0,128.0,123.0,125.0,126.0,111.0,128.0,29.0,-108.0,-71.0,127.0,127.0,127.0,111.0,87.0,-114.0
127.0,126.0,128.0,123.0,125.0,126.0,112.0,128.0,29.0,-108.0,-71.0,127.0,127.0,127.0,111.0,87.0,-114.0
127.0,127.0,126.0,124.0,125.0,126.0,112.0,128.0,29.0,-108.0,-71.0,127.0,127.0,127.0,111.0,87.0,-114.0
127.0,127.0,126.0,123.0,125.0,126.0,111.0,128.0,29.0,-108.0,-71.0,127.0,127.0,127.0,111.0,87.0,-114.0
127.0,127.0,126.0,123.0,125.0,126.0,111.0,128.0,29.0,-108.0,-71.0,127.0,127.0,127.0,111.0,87.0,-114.0
127.0,127.0,126.0,123.0,125.0,125.0,111.0,128.0,29.0,-108.0,-71.0,127.0,127.0,127.0,111.0,87.0,-114.0
127.0,127.0,126.0,123.0,125.0,125.0,111.0,128.0,29.0,-108.0,-71.0,127.0,127.0,127.0,111.0,87.0,-114.0
127.0,127.0,126.0,123.0,125.0,125.0,111.0,128.0,29.0,-108.0,-71.0,127.0,127.0,127.0,111.0,87.0,-114.0
127.0,127.0,126.0,123.0,125.0,125.0,111.0,128.0,29.0,-108.0,-71.0,127.0,127.0,127.0,111.0,87.0,-114.0
127.0,127.0,126.0,122.0,125.0,125.0,111.0,128.0,29.0,-108.0,-71.0,127.0,127.0,127.0,111.0,87.0,-114.0
127.0,126.0,126.0,122.0,125.0,125.0,111.0,128.0,29.0,-108.0,-71.0,127.0,127.0,127.0,111.0,87.0,-114.0
127.0,126.0,126.0,122.0,125.0,125.0,110.0,128.0,29.0,-108.0,-71.0,127.0,127.0,127.0,111.0,87.0,-114.0
127.0,127.0,126.0,124.0,126.0,125.0,111.0,128.0,28.0,-108.0,-71.0,127.0,127.0,127.0,111.0,87.0,-114.0
127.0,127.0,126.0,124.0,126.0,125.0,111.0,128.0,28.0,-108.0,-71.0,127.0,127.0,127.0,111.0,87.0,-114.0
127.0,127.0,126.0,123.0,126.0,125.0,111.0,128.0,28.0,-108.0,-71.0,127.0,127.0,127.0,111.0,87.0,-114.0
127.0,127.0,126.0,123.0,126.0,125.0,111.0,128.0,28.0,-108.0,-71.0,127.0,127.0,127.0,111.0,87.0,-114.0
127.0,126.0,126.0,123.0,126.0,125.0,111.0,128.0,28.0,-108.0,-71.0,127.0,127.0,127.0,111.0,87.0,-114.0
127.0,126.0,126.0,123.0,126.0,125.0,111.0,128.0,28.0,-108.0,-71.0,127.0,127.0,127.0,111.0,87.0,-114.0
127.0,126.0,127.0,123.0,126.0,125.0,111.0,128.0,28.0,-108.0,-71.0,127.0,127.0,127.0,111.0,87.0,-114.0
127.0,126.0,127.0,123.0,126.0,125.0,110.0,128.0,28.0,-108.0,-71.0,127.0,127.0,127.0,111.0,87.0,-114.0
127.0,126.0,127.0,123.0,126.0,125.0,110.0,128.0,28.0,-108.0,-71.0,127.0,127.0,127.0,111.0,87.0,-114.0
127.0,127.0,126.0,124.0,126.0,126.0,110.0,128.0,28.0,-108.0,-71.0,127.0,127.0,127.0,111.0,87.0,-114.0
127.0,127.0,128.0,124.0,126.0,126.0,111.0,128.0,28.0,-107.0,-71.0,127.0,127.0,127.0,112.0,87.0,-114.0
127.0,127.0,128.0,124.0,126.0,126.0,111.0,128.0,28.0,-107.0,-71.0,127.0,127.0,127.0,112.0,87.0,-114.0
127.0,127.0,128.0,124.0,126.0,126.0,111.0,128.0,28.0,-107.0,-71.0,127.0,127.0,127.0,112.0,87.0,-114.0
127.0,126.0,128.0,124.0,126.0,126.0,112.0,128.0,28.0,-107.0,-71.0,127.0,127.0,127.0,112.0,87.0,-114.0
127.0,126.0,128.0,123.0,126.0,126.0,112.0,128.0,28.0,-107.0,-71.0,127.0,127.0,127.0,112.0,87.0,-114.0
127.0,126.0,128.0,123.0,126.0,126.0,112.0,128.0,28.0,-107.0,-71.0,127.0,127.0,127.0,112.0,87.0,-114.0
127.0,126.0,129.0,122.0,126.0,126.0,111.0,128.0,28.0,-107.0,-71.0,127.0,127.0,127.0,112.0,87.0,-114.0
127.0,126.0,129.0,122.0,126.0,126.0,111.0,127.0,28.0,-107.0,-71.0,127.0,127.0,127.0,112.0,87.0,-114.0
127.0,127.0,128.0,124.0,126.0,126.0,111.0,128.0,28.0,-107.0,-71.0,127.0,127.0,127.0,112.0,87.0,-114.0
127.0,127.0,128.0,124.0,126.0,126.0,111.0,128.0,28.0,-107.0,-71.0,127.0,127.0,127.0,112.0,87.0,-114.0
127.0,127.0,128.0,124.0,126.0,127.0,112.0,128.0,28.0,-107.0,-70.0,127.0,127.0,127.0,112.0,87.0,-114.0
127.0,127.0,128.0,124.0,126.0,126.0,113.0,128.0,28.0,-107.0,-70.0,127.0,127.0,127.0,112.0,87.0,-114.0
127.0,127.0,128.0,124.0,126.0,126.0,113.0,128.0,28.0,-107.0,-70.0,127.0,127.0,127.0,112.0,87.0,-114.0
127.0,126.0,128.0,124.0,126.0,126.0,112.0,128.0,28.0,-107.0,-70.0,127.0,127.0,127.0,112.0,87.0,-114.0
127.0,126.0,129.0,124.0,126.0,126.0,112.0,128.0,28.0,-107.0,-70.0,127.0,127.0,127.0,112.0,87.0,-114.0
127.0,126.0,129.0,124.0,126.0,126.0,112.0,128.0,28.0,-107.0,-70.0,127.0,127.0,127.0,112.0,87.0,-114.0
127.0,126.0,129.0,124.0,126.0,126.0,111.0,128.0,28.0,-107.0,-70.0,127.0,127.0,127.0,112.0,87.0,-114.0
127.0,128.0,128.0,124.0,127.0,127.0,112.0,128.0,28.0,-107.0,-70.0,127.0,127.0,127.0,112.0,87.0,-114.0
127.0,127.0,128.0,124.0,126.0,127.0,112.0,128.0,28.0,-107.0,-70.0,127.0,127.0,127.0,112.0,87.0,-114.0
127.0,127.0,128.0,124.0,126.0,127.0,112.0,128.0,28.0,-107.0,-70.0,127.0,127.0,127.0,112.0,87.0,-114.0
127.0,127.0,128.0,123.0,127.0,127.0,114.0,129.0,27.0,-107.0,-70.0,127.0,127.0,127.0,112.0,87.0,-114.0
127.0,127.0,128.0,123.0,126.0,127.0,113.0,129.0,27.0,-107.0,-70.0,127.0,127.0,127.0,112.0,87.0,-114.0
127.0,126.0,128.0,123.0,126.0,127.0,113.0,129.0,27.0,-107.0,-70.0,127.0,127.0,127.0,112.0,87.0,-114.0
127.0,126.0,128.0,123.0,126.0,127.0,113.0,129.0,27.0,-107.0,-70.0,127.0,127.0,127.0,112.0,87.0,-114.0
127.0,126.0,128.0,123.0,126.0,127.0,113.0,128.0,27.0,-107.0,-70.0,127.0,127.0,127.0,112.0,87.0,-114.0
127.0,126.0,128.0,123.0,126.0,127.0,113.0,128.0,27.0,-107.0,-70.0,127.0,127.0,127.0,112.0,87.0,-114.0
127.0,127.0,127.0,124.0,127.0,127.0,114.0,129.0,27.0,-107.0,-70.0,127.0,127.0,127.0,112.0,87.0,-114.0
127.0,127.0,127.0,124.0,127.0,127.0,113.0,129.0,27.0,-107.0,-70.0,127.0,127.0,127.0,112.0,87.0,-114.0
127.0,127.0,127.0,124.0,127.0,127.0,113.0,129.0,27.0,-107.0,-70.0,127.0,127.0,127.0,112.0,87.0,-114.0
127.0,127.0,127.0,123.0,127.0,127.0,114.0,129.0,27.0,-107.0,-70.0,127.0,127.0,127.0,112.0,87.0,-114.0
127.0,127.0,128.0,126.0,127.0,127.0,109.0,129.0,27.0,-107.0,-70.0,127.0,127.0,127.0,112.0,87.0,-114.0
127.0,127.0,128.0,126.0,127.0,127.0,112.0,129.0,27.0,-107.0,-70.0,127.0,127.0,127.0,112.0,87.0,-114.0
127.0,126.0,128.0,125.0,127.0,127.0,112.0,129.0,27.0,-107.0,-70.0,127.0,127.0,127.0,112.0,87.0,-114.0
127.0,126.0,128.0,125.0,127.0,127.0,113.0,129.0,27.0,-107.0,-70.0,127.0,127.0,127.0,112.0,87.0,-114.0
127.0,126.0,128.0,125.0,126.0,127.0,113.0,128.0,27.0,-107.0,-70.0,127.0,127.0,127.0,112.0,87.0,-114.0
127.0,128.0,128.0,127.0,127.0,127.0,106.0,129.0,27.0,-107.0,-70.0,127.0,127.0,127.0,112.0,87.0,-114.0
127.0,127.0,128.0,127.0,127.0,127.0,107.0,129.0,27.0,-107.0,-70.0,127.0,127.0,127.0,112.0,87.0,-114.0
127.0,127.0,128.0,127.0,127.0,127.0,106.0,129.0,27.0,-107.0,-70.0,127.0,127.0,127.0,112.0,87.0,-114.0
127.0,127.0,128.0,126.0,127.0,127.0,106.0,129.0,27.0,-107.0,-70.0,127.0,127.0,127.0,112.0,87.0,-114.0
127.0,127.0,128.0,126.0,127.0,127.0,107.0,129.0,27.0,-107.0,-70.0,127.0,127.0,127.0,112.0,87.0,-114.0
126.0,126.0,127.0,124.0,126.0,127.0,106.0,128.0,27.0,-107.0,-70.0,127.0,127.0,127.0,113.0,87.0,-114.0
126.0,126.0,127.0,124.0,126.0,127.0,106.0,128.0,27.0,-107.0,-70.0,127.0,127.0,127.0,113.0,87.0,-114.0
126.0,126.0,128.0,124.0,126.0,127.0,106.0,128.0,27.0,-107.0,-70.0,127.0,127.0,127.0,113.0,87.0,-114.0
126.0,126.0,128.0,124.0,126.0,127.0,108.0,128.0,27.0,-107.0,-70.0,127.0,127.0,127.0,113.0,87.0,-114.0
127.0,127.0,127.0,125.0,127.0,127.0,106.0,129.0,27.0,-107.0,-70.0,127.0,127.0,127.0,113.0,87.0,-114.0
127.0,127.0,127.0,124.0,126.0,127.0,106.0,129.0,27.0,-107.0,-70.0,127.0,127.0,127.0,113.0,87.0,-114.0
127.0,127.0,127.0,124.0,126.0,127.0,107.0,129.0,27.0,-107.0,-70.0,127.0,127.0,127.0,113.0,87.0,-114.0
127.0,127.0,127.0,124.0,126.0,127.0,107.0,129.0,27.0,-107.0,-70.0,127.0,127.0,127.0,113.0,87.0,-114.0
126.0,127.0,127.0,124.0,126.0,127.0,107.0,129.0,27.0,-107.0,-70.0,127.0,127.0,127.0,113.0,87.0,-114.0
126.0,127.0,127.0,124.0,126.0,127.0,106.0,128.0,27.0,-107.0,-70.0,127.0,127.0,127.0,113.0,87.0,-114.0
126.0,126.0,128.0,124.0,126.0,127.0,106.0,128.0,27.0,-108.0,-69.0,127.0,127.0,127.0,113.0,87.0,-114.0
126.0,126.0,128.0,124.0,126.0,127.0,106.0,129.0,27.0,-108.0,-69.0,127.0,127.0,127.0,113.0,87.0,-114.0
126.0,126.0,128.0,124.0,126.0,127.0,109.0,128.0,27.0,-108.0,-69.0,127.0,127.0,127.0,113.0,87.0,-114.0
127.0,128.0,128.0,125.0,127.0,127.0,107.0,129.0,27.0,-108.0,-69.0,127.0,127.0,127.0,113.0,87.0,-114.0
127.0,127.0,128.0,125.0,127.0,127.0,107.0,129.0,27.0,-108.0,-69.0,127.0,127.0,127.0,113.0,87.0,-114.0
127.0,127.0,128.0,125.0,127.0,127.0,107.0,129.0,27.0,-108.0,-69.0,127.0,127.0,127.0,113.0,87.0,-114.0
127.0,127.0,128.0,125.0,127.0,127.0,106.0,129.0,27.0,-108.0,-69.0,127.0,127.0,127.0,113.0,87.0,-114.0
126.0,127.0,128.0,125.0,127.0,127.0,106.0,129.0,27.0,-108.0,-69.0,127.0,127.0,127.0,113.0,87.0,-114.0
126.0,127.0,128.0,125.0,127.0,127.0,106.0,129.0,27.0,-108.0,-69.0,127.0,127.0,127.0,113.0,87.0,-114.0
126.0,127.0,128.0,125.0,126.0,127.0,106.0,129.0,27.0,-108.0,-69.0,127.0,127.0,127.0,113.0,87.0,-114.0
126.0,127.0,128.0,124.0,127.0,126.0,112.0,128.0,27.0,-108.0,-69.0,127.0,127.0,127.0,113.0,87.0,-114.0
126.0,126.0,128.0,124.0,126.0,126.0,112.0,128.0,27.0,-108.0,-69.0,127.0,127.0,127.0,113.0,87.0,-114.0
127.0,127.0,128.0,125.0,127.0,127.0,106.0,129.0,27.0,-108.0,-69.0,127.0,127.0,127.0,113.0,87.0,-114.0
127.0,127.0,128.0,125.0,127.0,127.0,107.0,129.0,27.0,-108.0,-69.0,127.0,127.0,127.0,113.0,87.0,-114.0
127.0,127.0,128.0,125.0,127.0,127.0,106.0,129.0,27.0,-108.0,-69.0,127.0,127.0,127.0,113.0,87.0,-114.0
127.0,127.0,128.0,125.0,127.0,127.0,105.0,129.0,27.0,-108.0,-69.0,127.0,127.0,127.0,113.0,87.0,-114.0
127.0,127.0,128.0,125.0,127.0,127.0,106.0,129.0,27.0,-108.0,-69.0,127.0,127.0,127.0,113.0,87.0,-114.0
126.0,127.0,128.0,124.0,127.0,127.0,108.0,129.0,27.0,-108.0,-69.0,127.0,127.0,127.0,113.0,87.0,-114.0
126.0,127.0,128.0,124.0,127.0,127.0,113.0,128.0,27.0,-108.0,-69.0,127.0,127.0,127.0,113.0,87.0,-114.0
126.0,127.0,127.0,124.0,126.0,127.0,112.0,128.0,27.0,-108.0,-69.0,127.0,127.0,127.0,113.0,87.0,-114.0
127.0,126.0,127.0,125.0,127.0,126.0,111.0,128.0,27.0,-108.0,-69.0,127.0,127.0,127.0,113.0,87.0,-114.0
127.0,127.0,127.0,125.0,127.0,127.0,111.0,129.0,27.0,-108.0,-69.0,127.0,127.0,127.0,113.0,87.0,-114.0
127.0,127.0,127.0,125.0,127.0,127.0,112.0,128.0,27.0,-108.0,-69.0,127.0,127.0,127.0,113.0,87.0,-114.0
127.0,127.0,127.0,125.0,127.0,127.0,112.0,129.0,27.0,-108.0,-69.0,127.0,127.0,127.0,113.0,87.0,-114.0
127.0,127.0,127.0,125.0,127.0,127.0,112.0,129.0,27.0,-108.0,-69.0,127.0,127.0,127.0,113.0,87.0,-114.0
127.0,127.0,127.0,125.0,127.0,127.0,112.0,129.0,27.0,-108.0,-69.0,127.0,127.0,127.0,113.0,87.0,-114.0
127.0,127.0,127.0,125.0,127.0,127.0,112.0,128.0,27.0,-108.0,-69.0,127.0,127.0,127.0,113.0,87.0,-114.0
127.0,127.0,127.0,125.0,127.0,126.0,112.0,128.0,27.0,-108.0,-69.0,127.0,127.0,127.0,113.0,87.0,-114.0
127.0,127.0,127.0,125.0,127.0,126.0,112.0,128.0,27.0,-108.0,-69.0,127.0,127.0,127.0,113.0,87.0,-114.0
127.0,127.0,127.0,125.0,127.0,126.0,112.0,128.0,27.0,-108.0,-69.0,127.0,127.0,127.0,113.0,87.0,-114.0
127.0,127.0,127.0,126.0,128.0,127.0,106.0,129.0,27.0,-107.0,-69.0,127.0,127.0,127.0,113.0,87.0,-114.0
127.0,127.0,127.0,126.0,128.0,127.0,108.0,128.0,27.0,-107.0,-69.0,127.0,127.0,127.0,113.0,87.0,-114.0
127.0,127.0,127.0,126.0,128.0,127.0,112.0,128.0,27.0,-107.0,-69.0,127.0,127.0,127.0,113.0,87.0,-114.0
127.0,127.0,127.0,126.0,128.0,127.0,113.0,128.0,27.0,-107.0,-69.0,127.0,127.0,127.0,113.0,87.0,-114.0
127.0,127.0,127.0,126.0,128.0,127.0,112.0,128.0,27.0,-107.0,-69.0,127.0,127.0,127.0,113.0,87.0,-114.0
127.0,127.0,127.0,126.0,128.0,127.0,112.0,128.0,27.0,-107.0,-69.0,127.0,127.0,127.0,113.0,87.0,-114.0
126.0,127.0,127.0,126.0,128.0,127.0,112.0,128.0,27.0,-107.0,-69.0,127.0,127.0,127.0,113.0,87.0,-114.0
127.0,126.0,127.0,125.0,127.0,126.0,112.0,128.0,27.0,-107.0,-69.0,127.0,127.0,127.0,113.0,87.0,-114.0
127.0,126.0,127.0,125.0,127.0,126.0,112.0,128.0,27.0,-107.0,-69.0,127.0,127.0,127.0,113.0,87.0,-114.0
127.0,126.0,127.0,125.0,127.0,126.0,111.0,128.0,27.0,-107.0,-69.0,127.0,127.0,127.0,113.0,87.0,-114.0
127.0,127.0,127.0,125.0,128.0,127.0,112.0,128.0,27.0,-107.0,-69.0,127.0,127.0,127.0,113.0,87.0,-114.0
127.0,127.0,127.0,125.0,128.0,127.0,112.0,128.0,27.0,-107.0,-69.0,127.0,127.0,127.0,113.0,87.0,-114.0
127.0,127.0,127.0,125.0,128.0,126.0,112.0,128.0,27.0,-107.0,-69.0,127.0,127.0,127.0,113.0,87.0,-114.0
127.0,127.0,127.0,125.0,128.0,127.0,112.0,128.0,27.0,-107.0,-69.0,127.0,127.0,127.0,113.0,87.0,-114.0
127.0,127.0,127.0,125.0,127.0,127.0,112.0,128.0,27.0,-107.0,-69.0,127.0,127.0,127.0,113.0,87.0,-114.0
127.0,127.0,127.0,124.0,127.0,126.0,112.0,128.0,27.0,-107.0,-69.0,127.0,127.0,127.0,113.0,87.0,-114.0
126.0,126.0,127.0,124.0,127.0,126.0,113.0,128.0,27.0,-107.0,-69.0,127.0,127.0,127.0,113.0,87.0,-114.0
126.0,126.0,127.0,124.0,127.0,126.0,113.0,128.0,27.0,-107.0,-69.0,127.0,127.0,127.0,113.0,87.0,-114.0
126.0,126.0,127.0,124.0,127.0,126.0,112.0,128.0,27.0,-107.0,-69.0,127.0,127.0,127.0,113.0,87.0,-114.0
127.0,128.0,127.0,125.0,128.0,126.0,112.0,128.0,27.0,-107.0,-69.0,127.0,127.0,127.0,113.0,87.0,-114.0
127.0,127.0,127.0,127.0,127.0,127.0,114.0,128.0,27.0,-107.0,-69.0,127.0,127.0,127.0,113.0,87.0,-114.0
127.0,127.0,127.0,126.0,127.0,127.0,113.0,128.0,27.0,-107.0,-69.0,127.0,127.0,127.0,113.0,87.0,-114.0
127.0,127.0,127.0,126.0,127.0,127.0,113.0,128.0,27.0,-107.0,-69.0,127.0,127.0,127.0,113.0,87.0,-114.0
126.0,127.0,127.0,126.0,127.0,127.0,113.0,128.0,27.0,-107.0,-69.0,127.0,127.0,127.0,113.0,87.0,-114.0
126.0,127.0,127.0,126.0,127.0,127.0,113.0,128.0,27.0,-107.0,-69.0,127.0,127.0,127.0,113.0,87.0,-114.0
126.0,127.0,127.0,126.0,127.0,127.0,113.0,128.0,27.0,-107.0,-69.0,127.0,127.0,127.0,113.0,87.0,-114.0
126.0,126.0,128.0,126.0,127.0,127.0,113.0,128.0,27.0,-107.0,-69.0,127.0,127.0,127.0,113.0,87.0,-114.0
126.0,126.0,128.0,125.0,127.0,127.0,113.0,128.0,27.0,-107.0,-69.0,127.0,127.0,127.0,113.0,87.0,-114.0
127.0,128.0,127.0,127.0,127.0,127.0,113.0,128.0,27.0,-107.0,-69.0,127.0,127.0,127.0,113.0,87.0,-114.0
127.0,127.0,127.0,127.0,127.0,127.0,113.0,128.0,27.0,-107.0,-69.0,127.0,127.0,127.0,113.0,87.0,-114.0
127.0,127.0,126.0,124.0,127.0,127.0,112.0,128.0,27.0,-107.0,-70.0,127.0,127.0,127.0,113.0,87.0,-114.0
127.0,127.0,126.0,123.0,126.0,127.0,112.0,128.0,27.0,-107.0,-70.0,127.0,127.0,127.0,113.0,87.0,-114.0
127.0,127.0,126.0,123.0,126.0,127.0,112.0,128.0,27.0,-107.0,-70.0,127.0,127.0,127.0,113.0,87.0,-114.0
127.0,127.0,126.0,123.0,126.0,127.0,112.0,128.0,27.0,-107.0,-70.0,127.0,127.0,127.0,113.0,87.0,-114.0
127.0,127.0,126.0,123.0,126.0,126.0,112.0,128.0,27.0,-107.0,-70.0,127.0,127.0,127.0,113.0,87.0,-114.0
127.0,126.0,126.0,123.0,126.0,126.0,112.0,128.0,27.0,-107.0,-70.0,127.0,127.0,127.0,113.0,87.0,-114.0
127.0,126.0,126.0,123.0,126.0,126.0,113.0,128.0,27.0,-107.0,-70.0,127.0,127.0,127.0,113.0,87.0,-114.0
127.0,127.0,126.0,124.0,127.0,127.0,112.0,128.0,27.0,-107.0,-70.0,127.0,127.0,127.0,113.0,87.0,-114.0
127.0,127.0,126.0,124.0,127.0,127.0,112.0,128.0,27.0,-107.0,-70.0,127.0,127.0,127.0,113.0,87.0,-114.0
127.0,127.0,126.0,124.0,127.0,127.0,112.0,128.0,27.0,-107.0,-70.0,127.0,127.0,127.0,113.0,87.0,-114.0
127.0,127.0,127.0,125.0,127.0,127.0,113.0,128.0,27.0,-107.0,-70.0,127.0,127.0,127.0,113.0,87.0,-114.0
127.0,127.0,127.0,125.0,127.0,127.0,113.0,128.0,27.0,-107.0,-70.0,127.0,127.0,127.0,113.0,87.0,-114.0
127.0,127.0,127.0,125.0,127.0,127.0,113.0,128.0,27.0,-107.0,-70.0,127.0,127.0,127.0,113.0,87.0,-114.0
127.0,127.0,127.0,125.0,127.0,127.0,113.0,128.0,27.0,-107.0,-70.0,127.0,127.0,127.0,113.0,87.0,-114.0
127.0,126.0,127.0,125.0,127.0,127.0,113.0,128.0,27.0,-107.0,-70.0,127.0,127.0,127.0,113.0,87.0,-114.0
126.0,126.0,127.0,124.0,127.0,127.0,113.0,128.0,27.0,-107.0,-70.0,127.0,127.0,127.0,113.0,87.0,-114.0
127.0,128.0,127.0,125.0,127.0,127.0,113.0,128.0,27.0,-107.0,-70.0,127.0,127.0,127.0,113.0,87.0,-114.0
127.0,127.0,127.0,125.0,127.0,127.0,113.0,128.0,27.0,-107.0,-70.0,127.0,127.0,127.0,113.0,87.0,-114.0
127.0,127.0,127.0,125.0,127.0,127.0,113.0,128.0,27.0,-107.0,-70.0,127.0,127.0,127.0,113.0,87.0,-114.0
127.0,127.0,127.0,125.0,127.0,127.0,113.0,128.0,27.0,-107.0,-70.0,127.0,127.0,127.0,113.0,87.0,-114.0
127.0,127.0,127.0,126.0,127.0,127.0,111.0,128.0,27.0,-107.0,-70.0,127.0,127.0,127.0,113.0,87.0,-114.0
127.0,127.0,127.0,126.0,127.0,127.0,112.0,128.0,27.0,-107.0,-70.0,127.0,127.0,127.0,113.0,87.0,-114.0
127.0,127.0,127.0,126.0,127.0,127.0,113.0,128.0,27.0,-107.0,-70.0,127.0,127.0,127.0,113.0,87.0,-114.0
127.0,127.0,127.0,125.0,127.0,127.0,114.0,128.0,27.0,-107.0,-70.0,127.0,127.0,127.0,113.0,87.0,-114.0
127.0,127.0,127.0,125.0,127.0,127.0,113.0,128.0,27.0,-107.0,-70.0,127.0,127.0,127.0,113.0,87.0,-114.0
