emg1,emg2,emg3,emg4,emg5,emg6,emg7,emg8,acc_x,acc_y,acc_z,gyro_x,gyro_y,gyro_z,angle_pitch,angle_roll,angle_yaw
127.0,127.0,127.0,127.0,126.0,127.0,125.0,128.0,-1.0,106.0,-73.0,127.0,127.0,127.0,-116.0,-88.0,106.0
126.0,127.0,127.0,127.0,126.0,128.0,125.0,128.0,-1.0,106.0,-73.0,127.0,127.0,127.0,-116.0,-88.0,106.0
127.0,127.0,127.0,128.0,126.0,128.0,125.0,128.0,-1.0,106.0,-73.0,127.0,127.0,127.0,-116.0,-88.0,106.0
127.0,127.0,127.0,128.0,126.0,128.0,125.0,128.0,-1.0,106.0,-73.0,127.0,127.0,127.0,-116.0,-88.0,106.0
127.0,127.0,127.0,128.0,126.0,128.0,125.0,128.0,-1.0,106.0,-73.0,127.0,127.0,127.0,-116.0,-88.0,106.0
126.0,127.0,127.0,128.0,127.0,128.0,125.0,128.0,-1.0,106.0,-73.0,127.0,127.0,127.0,-116.0,-88.0,106.0
127.0,127.0,127.0,128.0,126.0,128.0,125.0,128.0,-1.0,106.0,-73.0,127.0,127.0,127.0,-116.0,-88.0,106.0
126.0,127.0,127.0,128.0,127.0,128.0,125.0,128.0,-1.0,106.0,-73.0,127.0,127.0,127.0,-116.0,-88.0,106.0
127.0,127.0,127.0,127.0,127.0,128.0,126.0,128.0,-1.0,106.0,-74.0,127.0,127.0,127.0,-116.0,-88.0,106.0
127.0,127.0,127.0,127.0,127.0,128.0,125.0,128.0,-1.0,106.0,-74.0,127.0,127.0,127.0,-116.0,-88.0,106.0
127.0,127.0,127.0,127.0,126.0,128.0,125.0,128.0,-1.0,106.0,-74.0,127.0,127.0,127.0,-116.0,-88.0,106.0
127.0,127.0,127.0,127.0,126.0,129.0,125.0,128.0,-1.0,106.0,-74.0,127.0,127.0,127.0,-116.0,-88.0,106.0
127.0,127.0,127.0,127.0,126.0,129.0,125.0,128.0,-1.0,106.0,-74.0,127.0,127.0,127.0,-116.0,-88.0,106.0
127.0,127.0,127.0,127.0,126.0,128.0,125.0,128.0,-1.0,106.0,-74.0,127.0,127.0,127.0,-116.0,-88.0,106.0
127.0,127.0,127.0,127.0,127.0,128.0,125.0,128.0,-1.0,106.0,-74.0,127.0,127.0,127.0,-116.0,-88.0,106.0
127.0,127.0,127.0,127.0,127.0,128.0,125.0,128.0,-1.0,106.0,-74.0,127.0,127.0,127.0,-116.0,-88.0,106.0
127.0,127.0,127.0,127.0,127.0,128.0,125.0,128.0,-1.0,106.0,-74.0,127.0,127.0,127.0,-116.0,-88.0,106.0
127.0,127.0,127.0,127.0,127.0,128.0,125.0,128.0,-1.0,106.0,-74.0,127.0,127.0,127.0,-116.0,-88.0,106.0
127.0,127.0,127.0,127.0,126.0,128.0,126.0,128.0,-1.0,106.0,-74.0,127.0,127.0,127.0,-116.0,-88.0,106.0
126.0,127.0,127.0,127.0,126.0,128.0,126.0,128.0,-1.0,106.0,-74.0,127.0,127.0,127.0,-116.0,-88.0,106.0
127.0,127.0,127.0,127.0,126.0,128.0,125.0,128.0,-1.0,106.0,-74.0,127.0,127.0,127.0,-116.0,-88.0,106.0
127.0,127.0,127.0,127.0,126.0,128.0,125.0,128.0,-1.0,106.0,-74.0,127.0,127.0,127.0,-116.0,-88.0,106.0
127.0,127.0,127.0,127.0,126.0,128.0,126.0,128.0,-1.0,106.0,-74.0,127.0,127.0,127.0,-116.0,-88.0,106.0
126.0,127.0,127.0,127.0,126.0,128.0,126.0,128.0,-1.0,106.0,-74.0,127.0,127.0,127.0,-116.0,-88.0,106.0
127.0,127.0,127.0,127.0,126.0,128.0,126.0,128.0,-1.0,106.0,-74.0,127.0,127.0,127.0,-116.0,-88.0,106.0
127.0,127.0,127.0,127.0,126.0,128.0,126.0,128.0,-1.0,106.0,-74.0,127.0,127.0,127.0,-116.0,-88.0,106.0
126.0,127.0,127.0,127.0,126.0,128.0,126.0,128.0,-1.0,106.0,-74.0,127.0,127.0,127.0,-116.0,-88.0,106.0
127.0,127.0,127.0,127.0,126.0,128.0,126.0,128.0,-1.0,106.0,-74.0,127.0,127.0,127.0,-116.0,-88.0,106.0
127.0,127.0,127.0,127.0,127.0,128.0,126.0,128.0,-1.0,106.0,-73.0,127.0,127.0,127.0,-116.0,-88.0,106.0
127.0,127.0,127.0,127.0,127.0,128.0,125.0,128.0,-1.0,106.0,-73.0,127.0,127.0,127.0,-116.0,-88.0,106.0
127.0,127.0,127.0,127.0,127.0,128.0,125.0,129.0,-1.0,106.0,-73.0,127.0,127.0,127.0,-116.0,-88.0,106.0
127.0,127.0,127.0,127.0,127.0,128.0,125.0,128.0,-1.0,106.0,-73.0,127.0,127.0,127.0,-116.0,-88.0,106.0
127.0,127.0,127.0,127.0,127.0,128.0,125.0,128.0,-1.0,106.0,-73.0,127.0,127.0,127.0,-116.0,-88.0,106.0
127.0,127.0,127.0,127.0,127.0,128.0,125.0,128.0,-1.0,106.0,-73.0,127.0,127.0,127.0,-116.0,-88.0,106.0
127.0,127.0,127.0,127.0,127.0,128.0,125.0,128.0,-1.0,106.0,-73.0,127.0,127.0,127.0,-116.0,-88.0,106.0
127.0,127.0,127.0,127.0,127.0,128.0,125.0,128.0,-1.0,106.0,-73.0,127.0,127.0,127.0,-116.0,-88.0,106.0
127.0,127.0,127.0,127.0,127.0,128.0,125.0,128.0,-1.0,106.0,-73.0,127.0,127.0,127.0,-116.0,-88.0,106.0
126.0,127.0,127.0,127.0,127.0,128.0,126.0,128.0,-1.0,106.0,-73.0,127.0,127.0,127.0,-116.0,-88.0,106.0
126.0,127.0,127.0,127.0,126.0,128.0,125.0,128.0,-1.0,106.0,-73.0,127.0,127.0,127.0,-116.0,-88.0,106.0
126.0,127.0,127.0,127.0,126.0,128.0,125.0,128.0,-1.0,106.0,-73.0,127.0,127.0,127.0,-116.0,-88.0,106.0
126.0,127.0,127.0,127.0,126.0,128.0,125.0,128.0,-1.0,106.0,-73.0,127.0,127.0,127.0,-116.0,-88.0,106.0
126.0,127.0,127.0,127.0,127.0,128.0,125.0,128.0,-1.0,106.0,-73.0,127.0,127.0,127.0,-116.0,-88.0,106.0
126.0,127.0,127.0,127.0,127.0,128.0,125.0,128.0,-1.0,106.0,-73.0,127.0,127.0,127.0,-116.0,-88.0,106.0
126.0,127.0,127.0,127.0,127.0,128.0,125.0,128.0,-1.0,106.0,-73.0,127.0,127.0,127.0,-116.0,-88.0,106.0
126.0,127.0,127.0,127.0,127.0,128.0,125.0,128.0,-1.0,106.0,-73.0,127.0,127.0,127.0,-116.0,-88.0,106.0
126.0,127.0,127.0,127.0,127.0,128.0,126.0,128.0,-1.0,106.0,-73.0,127.0,127.0,127.0,-116.0,-88.0,106.0
126.0,127.0,127.0,127.0,127.0,128.0,126.0,128.0,-1.0,106.0,-73.0,127.0,127.0,127.0,-116.0,-88.0,106.0
126.0,127.0,127.0,127.0,126.0,128.0,126.0,128.0,-1.0,106.0,-73.0,127.0,127.0,127.0,-116.0,-88.0,106.0
126.0,126.0,127.0,127.0,127.0,127.0,127.0,128.0,-1.0,106.0,-73.0,127.0,127.0,127.0,-116.0,-88.0,106.0
126.0,126.0,127.0,127.0,127.0,127.0,127.0,128.0,-1.0,106.0,-73.0,127.0,127.0,127.0,-116.0,-88.0,106.0
126.0,127.0,127.0,127.0,127.0,128.0,126.0,128.0,-1.0,106.0,-73.0,127.0,127.0,127.0,-116.0,-88.0,106.0
127.0,127.0,127.0,127.0,127.0,128.0,126.0,128.0,-1.0,106.0,-73.0,127.0,127.0,127.0,-116.0,-88.0,106.0
126.0,127.0,127.0,127.0,127.0,128.0,126.0,128.0,-1.0,106.0,-73.0,127.0,127.0,127.0,-116.0,-88.0,106.0
126.0,127.0,127.0,127.0,127.0,128.0,126.0,128.0,-1.0,106.0,-73.0,127.0,127.0,127.0,-116.0,-88.0,106.0
126.0,126.0,127.0,127.0,127.0,127.0,127.0,128.0,-1.0,106.0,-73.0,127.0,127.0,127.0,-116.0,-88.0,106.0
126.0,126.0,127.0,127.0,127.0,127.0,127.0,128.0,-1.0,106.0,-73.0,127.0,127.0,127.0,-116.0,-88.0,106.0
126.0,126.0,127.0,127.0,127.0,127.0,127.0,128.0,-1.0,106.0,-73.0,127.0,127.0,127.0,-116.0,-88.0,106.0
126.0,126.0,127.0,127.0,127.0,127.0,127.0,128.0,-1.0,106.0,-73.0,127.0,127.0,127.0,-116.0,-88.0,106.0
126.0,127.0,127.0,127.0,126.0,127.0,125.0,128.0,-1.0,106.0,-73.0,127.0,127.0,127.0,-116.0,-88.0,106.0
126.0,127.0,127.0,127.0,126.0,127.0,125.0,128.0,-1.0,106.0,-73.0,127.0,127.0,127.0,-116.0,-88.0,106.0
126.0,127.0,127.0,127.0,127.0,127.0,125.0,128.0,-1.0,106.0,-73.0,127.0,127.0,127.0,-116.0,-88.0,106.0
126.0,127.0,127.0,127.0,126.0,127.0,125.0,128.0,-1.0,106.0,-73.0,127.0,127.0,127.0,-116.0,-88.0,106.0
126.0,127.0,127.0,127.0,127.0,127.0,125.0,128.0,-1.0,106.0,-73.0,127.0,127.0,127.0,-116.0,-88.0,106.0
126.0,127.0,127.0,127.0,127.0,127.0,126.0,128.0,-1.0,106.0,-73.0,127.0,127.0,127.0,-116.0,-88.0,106.0
127.0,127.0,127.0,127.0,126.0,128.0,125.0,128.0,-1.0,106.0,-73.0,127.0,127.0,127.0,-116.0,-88.0,106.0
126.0,127.0,127.0,127.0,127.0,128.0,125.0,128.0,-1.0,106.0,-73.0,127.0,127.0,127.0,-116.0,-88.0,106.0
126.0,127.0,127.0,127.0,126.0,127.0,125.0,128.0,-1.0,106.0,-73.0,127.0,127.0,127.0,-116.0,-88.0,106.0
126.0,127.0,127.0,127.0,126.0,127.0,125.0,128.0,-1.0,106.0,-73.0,127.0,127.0,127.0,-116.0,-88.0,106.0
126.0,127.0,127.0,127.0,126.0,128.0,125.0,128.0,-1.0,106.0,-73.0,127.0,127.0,127.0,-116.0,-88.0,106.0
126.0,127.0,127.0,127.0,126.0,128.0,125.0,128.0,-1.0,106.0,-73.0,127.0,127.0,127.0,-116.0,-88.0,106.0
126.0,127.0,127.0,127.0,126.0,128.0,125.0,128.0,-1.0,106.0,-73.0,127.0,127.0,127.0,-116.0,-88.0,106.0
126.0,127.0,127.0,127.0,126.0,127.0,126.0,128.0,-1.0,106.0,-73.0,127.0,127.0,127.0,-116.0,-88.0,106.0
127.0,127.0,127.0,127.0,126.0,128.0,126.0,128.0,-1.0,106.0,-73.0,127.0,127.0,127.0,-116.0,-88.0,106.0
127.0,127.0,127.0,128.0,126.0,128.0,125.0,128.0,-1.0,106.0,-73.0,127.0,127.0,127.0,-116.0,-88.0,106.0
127.0,127.0,127.0,127.0,126.0,128.0,125.0,128.0,-1.0,106.0,-73.0,127.0,127.0,127.0,-116.0,-88.0,106.0
126.0,127.0,127.0,127.0,126.0,128.0,125.0,128.0,-1.0,106.0,-73.0,127.0,127.0,127.0,-116.0,-88.0,106.0
126.0,127.0,127.0,127.0,126.0,128.0,125.0,128.0,-1.0,106.0,-73.0,127.0,127.0,127.0,-116.0,-88.0,106.0
126.0,127.0,127.0,127.0,126.0,128.0,125.0,128.0,-1.0,106.0,-73.0,127.0,127.0,127.0,-116.0,-88.0,106.0
126.0,127.0,127.0,127.0,127.0,127.0,125.0,128.0,-1.0,106.0,-73.0,127.0,127.0,127.0,-116.0,-88.0,106.0
126.0,127.0,127.0,127.0,127.0,127.0,125.0,128.0,-1.0,106.0,-73.0,127.0,127.0,127.0,-116.0,-88.0,106.0
126.0,127.0,127.0,127.0,127.0,127.0,125.0,128.0,-1.0,106.0,-73.0,127.0,127.0,127.0,-116.0,-88.0,106.0
126.0,127.0,127.0,127.0,126.0,126.0,125.0,128.0,-1.0,106.0,-73.0,127.0,127.0,127.0,-116.0,-88.0,106.0
127.0,127.0,127.0,127.0,126.0,127.0,125.0,128.0,-1.0,106.0,-73.0,127.0,127.0,127.0,-116.0,-88.0,106.0
126.0,127.0,127.0,127.0,126.0,127.0,125.0,128.0,-1.0,106.0,-73.0,127.0,127.0,127.0,-116.0,-88.0,106.0
126.0,127.0,127.0,127.0,126.0,127.0,125.0,128.0,-1.0,106.0,-73.0,127.0,127.0,127.0,-116.0,-88.0,106.0
127.0,127.0,127.0,127.0,126.0,127.0,125.0,128.0,-1.0,106.0,-73.0,127.0,127.0,127.0,-116.0,-88.0,106.0
126.0,127.0,127.0,127.0,126.0,127.0,125.0,128.0,-1.0,106.0,-73.0,127.0,127.0,127.0,-116.0,-88.0,106.0
126.0,127.0,127.0,127.0,127.0,127.0,125.0,128.0,-1.0,106.0,-73.0,127.0,127.0,127.0,-116.0,-88.0,106.0
127.0,127.0,127.0,127.0,127.0,128.0,126.0,128.0,-1.0,106.0,-73.0,127.0,127.0,127.0,-116.0,-88.0,106.0
127.0,127.0,127.0,127.0,127.0,128.0,126.0,128.0,-1.0,106.0,-73.0,127.0,127.0,127.0,-116.0,-88.0,106.0
126.0,127.0,127.0,127.0,127.0,127.0,126.0,128.0,-1.0,106.0,-73.0,127.0,127.0,127.0,-116.0,-88.0,106.0
127.0,127.0,127.0,127.0,126.0,128.0,126.0,128.0,-1.0,106.0,-73.0,127.0,127.0,127.0,-116.0,-88.0,106.0
127.0,127.0,127.0,127.0,127.0,128.0,126.0,128.0,-1.0,106.0,-73.0,127.0,127.0,127.0,-116.0,-88.0,106.0
126.0,127.0,127.0,127.0,127.0,128.0,126.0,128.0,-1.0,106.0,-73.0,127.0,127.0,127.0,-116.0,-88.0,106.0
127.0,127.0,127.0,127.0,127.0,128.0,126.0,128.0,-1.0,106.0,-73.0,127.0,127.0,127.0,-116.0,-88.0,106.0
126.0,127.0,127.0,127.0,127.0,128.0,126.0,128.0,-1.0,106.0,-73.0,127.0,127.0,127.0,-116.0,-88.0,106.0
127.0,127.0,127.0,127.0,127.0,128.0,126.0,128.0,-1.0,106.0,-73.0,127.0,127.0,127.0,-116.0,-88.0,106.0
127.0,127.0,127.0,127.0,127.0,128.0,126.0,128.0,-1.0,106.0,-73.0,127.0,127.0,127.0,-116.0,-88.0,106.0
126.0,127.0,127.0,127.0,127.0,127.0,125.0,128.0,-1.0,106.0,-73.0,127.0,127.0,127.0,-116.0,-88.0,106.0
127.0,127.0,127.0,127.0,126.0,127.0,126.0,128.0,-1.0,106.0,-73.0,127.0,127.0,127.0,-116.0,-88.0,106.0
127.0,127.0,127.0,127.0,126.0,127.0,126.0,128.0,-1.0,106.0,-73.0,127.0,127.0,127.0,-116.0,-88.0,106.0
127.0,127.0,127.0,127.0,126.0,127.0,125.0,128.0,-1.0,106.0,-73.0,127.0,127.0,127.0,-116.0,-88.0,106.0
127.0,127.0,127.0,127.0,126.0,128.0,125.0,128.0,-1.0,106.0,-73.0,127.0,127.0,127.0,-116.0,-88.0,106.0
126.0,127.0,127.0,127.0,126.0,127.0,125.0,128.0,-1.0,106.0,-73.0,127.0,127.0,127.0,-116.0,-88.0,106.0
127.0,127.0,127.0,127.0,126.0,127.0,125.0,128.0,-1.0,106.0,-73.0,127.0,127.0,127.0,-116.0,-88.0,106.0
126.0,127.0,127.0,127.0,127.0,127.0,125.0,128.0,-1.0,106.0,-73.0,127.0,127.0,127.0,-116.0,-88.0,106.0
126.0,127.0,127.0,127.0,127.0,127.0,125.0,128.0,-1.0,106.0,-73.0,127.0,127.0,127.0,-116.0,-88.0,106.0
126.0,127.0,127.0,127.0,127.0,127.0,125.0,128.0,-1.0,106.0,-73.0,127.0,127.0,127.0,-116.0,-88.0,106.0
127.0,127.0,127.0,127.0,127.0,128.0,126.0,128.0,-1.0,106.0,-74.0,127.0,127.0,127.0,-116.0,-88.0,106.0
127.0,127.0,127.0,127.0,127.0,128.0,125.0,128.0,-1.0,106.0,-74.0,127.0,127.0,127.0,-116.0,-88.0,106.0
127.0,127.0,127.0,127.0,127.0,129.0,125.0,128.0,-1.0,106.0,-74.0,127.0,127.0,127.0,-116.0,-88.0,106.0
127.0,127.0,127.0,127.0,127.0,129.0,125.0,128.0,-1.0,106.0,-74.0,127.0,127.0,127.0,-116.0,-88.0,106.0
127.0,127.0,127.0,127.0,127.0,129.0,125.0,128.0,-1.0,106.0,-74.0,127.0,127.0,127.0,-116.0,-88.0,106.0
127.0,127.0,127.0,127.0,127.0,129.0,125.0,128.0,-1.0,106.0,-74.0,127.0,127.0,127.0,-116.0,-88.0,106.0
127.0,127.0,127.0,127.0,127.0,129.0,125.0,128.0,-1.0,106.0,-74.0,127.0,127.0,127.0,-116.0,-88.0,106.0
127.0,127.0,127.0,127.0,127.0,129.0,125.0,128.0,-1.0,106.0,-74.0,127.0,127.0,127.0,-116.0,-88.0,106.0
127.0,127.0,127.0,127.0,127.0,128.0,125.0,128.0,-1.0,106.0,-74.0,127.0,127.0,127.0,-116.0,-88.0,106.0
127.0,127.0,127.0,127.0,127.0,128.0,125.0,128.0,-1.0,106.0,-74.0,127.0,127.0,127.0,-116.0,-88.0,106.0
127.0,127.0,127.0,127.0,126.0,128.0,125.0,128.0,-1.0,106.0,-74.0,127.0,127.0,127.0,-116.0,-88.0,106.0
127.0,127.0,127.0,128.0,126.0,129.0,125.0,128.0,-1.0,106.0,-74.0,127.0,127.0,127.0,-116.0,-88.0,106.0
127.0,127.0,127.0,128.0,126.0,129.0,125.0,128.0,-1.0,106.0,-74.0,127.0,127.0,127.0,-116.0,-88.0,106.0
127.0,127.0,127.0,128.0,126.0,129.0,125.0,128.0,-1.0,106.0,-74.0,127.0,127.0,127.0,-116.0,-88.0,106.0
127.0,127.0,127.0,128.0,126.0,129.0,125.0,128.0,-1.0,106.0,-74.0,127.0,127.0,127.0,-116.0,-88.0,106.0
127.0,127.0,127.0,128.0,126.0,129.0,125.0,128.0,-1.0,106.0,-74.0,127.0,127.0,127.0,-116.0,-88.0,106.0
127.0,127.0,127.0,128.0,127.0,129.0,125.0,128.0,-1.0,106.0,-74.0,127.0,127.0,127.0,-116.0,-88.0,106.0
127.0,127.0,127.0,128.0,127.0,129.0,125.0,128.0,-1.0,106.0,-74.0,127.0,127.0,127.0,-116.0,-88.0,106.0
127.0,127.0,127.0,128.0,127.0,128.0,125.0,128.0,-1.0,106.0,-74.0,127.0,127.0,127.0,-116.0,-88.0,106.0
127.0,127.0,127.0,128.0,127.0,128.0,125.0,128.0,-1.0,106.0,-74.0,127.0,127.0,127.0,-116.0,-88.0,106.0
126.0,127.0,127.0,128.0,127.0,127.0,126.0,128.0,-1.0,106.0,-74.0,127.0,127.0,127.0,-116.0,-88.0,106.0
126.0,127.0,127.0,128.0,127.0,127.0,126.0,128.0,-1.0,106.0,-74.0,127.0,127.0,127.0,-116.0,-88.0,106.0
126.0,127.0,127.0,128.0,127.0,127.0,126.0,128.0,-1.0,106.0,-74.0,127.0,127.0,127.0,-116.0,-88.0,106.0
126.0,127.0,127.0,128.0,126.0,128.0,125.0,128.0,-1.0,106.0,-74.0,127.0,127.0,127.0,-116.0,-88.0,106.0
126.0,127.0,127.0,128.0,126.0,128.0,125.0,128.0,-1.0,106.0,-74.0,127.0,127.0,127.0,-116.0,-88.0,106.0
126.0,127.0,127.0,128.0,127.0,128.0,125.0,128.0,-1.0,106.0,-74.0,127.0,127.0,127.0,-116.0,-88.0,106.0
126.0,127.0,127.0,128.0,127.0,128.0,125.0,128.0,-1.0,106.0,-74.0,127.0,127.0,127.0,-116.0,-88.0,106.0
126.0,127.0,127.0,128.0,126.0,128.0,125.0,128.0,-1.0,106.0,-74.0,127.0,127.0,127.0,-116.0,-88.0,106.0
126.0,127.0,127.0,128.0,127.0,127.0,126.0,128.0,-1.0,106.0,-74.0,127.0,127.0,127.0,-116.0,-88.0,106.0
126.0,127.0,127.0,128.0,127.0,127.0,126.0,128.0,-1.0,106.0,-74.0,127.0,127.0,127.0,-116.0,-88.0,106.0
127.0,127.0,127.0,127.0,126.0,127.0,126.0,128.0,-1.0,106.0,-74.0,127.0,127.0,127.0,-116.0,-88.0,106.0
126.0,127.0,127.0,127.0,126.0,127.0,126.0,128.0,-1.0,106.0,-74.0,127.0,127.0,127.0,-116.0,-88.0,106.0
126.0,127.0,127.0,127.0,126.0,127.0,126.0,128.0,-1.0,106.0,-74.0,127.0,127.0,127.0,-116.0,-88.0,106.0
126.0,127.0,127.0,127.0,126.0,126.0,126.0,128.0,-1.0,106.0,-74.0,127.0,127.0,127.0,-116.0,-88.0,106.0
126.0,127.0,127.0,127.0,126.0,127.0,126.0,128.0,-1.0,106.0,-74.0,127.0,127.0,127.0,-116.0,-88.0,106.0
126.0,127.0,127.0,127.0,126.0,126.0,126.0,128.0,-1.0,106.0,-74.0,127.0,127.0,127.0,-116.0,-88.0,106.0
126.0,127.0,127.0,127.0,127.0,127.0,127.0,128.0,-1.0,106.0,-74.0,127.0,127.0,127.0,-116.0,-88.0,106.0
127.0,127.0,127.0,127.0,126.0,128.0,126.0,128.0,-1.0,106.0,-74.0,127.0,127.0,127.0,-116.0,-88.0,106.0
127.0,127.0,127.0,128.0,126.0,128.0,126.0,128.0,-1.0,106.0,-74.0,127.0,127.0,127.0,-116.0,-88.0,106.0
127.0,127.0,127.0,127.0,126.0,127.0,126.0,128.0,-1.0,106.0,-74.0,127.0,127.0,127.0,-116.0,-88.0,106.0
127.0,127.0,127.0,128.0,126.0,128.0,126.0,128.0,-1.0,106.0,-74.0,127.0,127.0,127.0,-116.0,-88.0,106.0
127.0,127.0,127.0,128.0,127.0,128.0,126.0,128.0,-1.0,106.0,-74.0,127.0,127.0,127.0,-116.0,-88.0,106.0
127.0,127.0,127.0,128.0,127.0,128.0,126.0,128.0,-1.0,106.0,-74.0,127.0,127.0,127.0,-116.0,-88.0,106.0
127.0,127.0,127.0,128.0,127.0,128.0,126.0,128.0,-1.0,106.0,-74.0,127.0,127.0,127.0,-116.0,-88.0,106.0
127.0,127.0,127.0,128.0,127.0,127.0,127.0,128.0,-1.0,106.0,-74.0,127.0,127.0,127.0,-116.0,-88.0,106.0
127.0,127.0,127.0,128.0,127.0,127.0,127.0,128.0,-1.0,106.0,-74.0,127.0,127.0,127.0,-116.0,-88.0,106.0
127.0,127.0,127.0,128.0,126.0,128.0,126.0,128.0,-1.0,106.0,-74.0,127.0,127.0,127.0,-116.0,-88.0,106.0
127.0,127.0,127.0,128.0,126.0,128.0,126.0,128.0,-1.0,106.0,-74.0,127.0,127.0,127.0,-116.0,-88.0,106.0
127.0,127.0,127.0,128.0,126.0,128.0,126.0,128.0,-1.0,106.0,-74.0,127.0,127.0,127.0,-116.0,-88.0,106.0
127.0,127.0,127.0,128.0,126.0,128.0,126.0,128.0,-1.0,106.0,-74.0,127.0,127.0,127.0,-116.0,-88.0,106.0
127.0,127.0,127.0,128.0,127.0,129.0,126.0,128.0,-1.0,106.0,-74.0,127.0,127.0,127.0,-116.0,-88.0,106.0
127.0,127.0,127.0,128.0,127.0,129.0,126.0,128.0,-1.0,106.0,-74.0,127.0,127.0,127.0,-116.0,-88.0,106.0
127.0,127.0,127.0,128.0,127.0,129.0,126.0,128.0,-1.0,106.0,-74.0,127.0,127.0,127.0,-116.0,-88.0,106.0
127.0,127.0,127.0,128.0,127.0,129.0,126.0,128.0,-1.0,106.0,-74.0,127.0,127.0,127.0,-116.0,-88.0,106.0
126.0,127.0,127.0,128.0,127.0,129.0,127.0,128.0,-1.0,106.0,-74.0,127.0,127.0,127.0,-116.0,-88.0,106.0
126.0,127.0,127.0,128.0,127.0,129.0,126.0,128.0,-1.0,106.0,-74.0,127.0,127.0,127.0,-116.0,-88.0,106.0
127.0,127.0,127.0,128.0,127.0,129.0,126.0,128.0,-1.0,106.0,-74.0,127.0,127.0,127.0,-116.0,-88.0,106.0
127.0,127.0,127.0,128.0,127.0,129.0,126.0,128.0,-1.0,106.0,-74.0,127.0,127.0,127.0,-116.0,-88.0,106.0
127.0,127.0,127.0,128.0,127.0,129.0,126.0,128.0,-1.0,106.0,-74.0,127.0,127.0,127.0,-116.0,-88.0,106.0
127.0,127.0,127.0,128.0,127.0,129.0,126.0,128.0,-1.0,106.0,-74.0,127.0,127.0,127.0,-116.0,-88.0,106.0
126.0,127.0,127.0,127.0,127.0,128.0,127.0,128.0,-1.0,106.0,-74.0,127.0,127.0,127.0,-116.0,-88.0,106.0
126.0,127.0,127.0,127.0,127.0,128.0,127.0,128.0,-1.0,106.0,-74.0,127.0,127.0,127.0,-116.0,-88.0,106.0
126.0,127.0,127.0,127.0,127.0,128.0,127.0,128.0,-1.0,106.0,-74.0,127.0,127.0,127.0,-116.0,-88.0,106.0
126.0,127.0,127.0,127.0,127.0,128.0,126.0,128.0,-1.0,106.0,-74.0,127.0,127.0,127.0,-116.0,-88.0,106.0
126.0,127.0,127.0,127.0,127.0,128.0,127.0,128.0,-1.0,106.0,-74.0,127.0,127.0,127.0,-116.0,-88.0,106.0
126.0,127.0,127.0,127.0,127.0,128.0,127.0,128.0,-1.0,106.0,-74.0,127.0,127.0,127.0,-116.0,-88.0,106.0
126.0,127.0,127.0,127.0,127.0,128.0,127.0,128.0,-1.0,106.0,-74.0,127.0,127.0,127.0,-116.0,-88.0,106.0
126.0,127.0,127.0,127.0,127.0,128.0,127.0,128.0,-1.0,106.0,-74.0,127.0,127.0,127.0,-116.0,-88.0,106.0
126.0,127.0,127.0,127.0,127.0,128.0,127.0,128.0,-1.0,106.0,-74.0,127.0,127.0,127.0,-116.0,-88.0,106.0
126.0,127.0,127.0,127.0,127.0,128.0,127.0,128.0,-1.0,106.0,-74.0,127.0,127.0,127.0,-116.0,-88.0,106.0
126.0,127.0,127.0,128.0,127.0,128.0,125.0,128.0,-1.0,106.0,-74.0,127.0,127.0,127.0,-116.0,-88.0,106.0
126.0,127.0,127.0,128.0,127.0,128.0,125.0,128.0,-1.0,106.0,-74.0,127.0,127.0,127.0,-116.0,-88.0,106.0
126.0,127.0,127.0,128.0,127.0,128.0,126.0,128.0,-1.0,106.0,-74.0,127.0,127.0,127.0,-116.0,-88.0,106.0
126.0,127.0,127.0,127.0,127.0,128.0,126.0,128.0,-1.0,106.0,-74.0,127.0,127.0,127.0,-116.0,-88.0,106.0
126.0,127.0,127.0,127.0,127.0,127.0,126.0,128.0,-1.0,106.0,-74.0,127.0,127.0,127.0,-116.0,-88.0,106.0
126.0,127.0,127.0,128.0,127.0,128.0,126.0,128.0,-1.0,106.0,-74.0,127.0,127.0,127.0,-116.0,-88.0,106.0
126.0,127.0,127.0,128.0,127.0,128.0,125.0,128.0,-1.0,106.0,-74.0,127.0,127.0,127.0,-116.0,-88.0,106.0
126.0,127.0,127.0,128.0,127.0,128.0,125.0,128.0,-1.0,106.0,-74.0,127.0,127.0,127.0,-116.0,-88.0,106.0
126.0,127.0,127.0,128.0,127.0,128.0,125.0,128.0,-1.0,106.0,-74.0,127.0,127.0,127.0,-116.0,-88.0,106.0
126.0,127.0,127.0,128.0,127.0,128.0,125.0,128.0,-1.0,106.0,-74.0,127.0,127.0,127.0,-116.0,-88.0,106.0
126.0,126.0,127.0,127.0,127.0,128.0,126.0,128.0,-1.0,106.0,-74.0,127.0,127.0,127.0,-116.0,-88.0,106.0
126.0,126.0,127.0,127.0,127.0,128.0,126.0,128.0,-1.0,106.0,-74.0,127.0,127.0,127.0,-116.0,-88.0,106.0
126.0,126.0,127.0,127.0,127.0,128.0,126.0,128.0,-1.0,106.0,-74.0,127.0,127.0,127.0,-116.0,-88.0,106.0
126.0,126.0,127.0,127.0,127.0,128.0,126.0,128.0,-1.0,106.0,-74.0,127.0,127.0,127.0,-116.0,-88.0,106.0
126.0,126.0,127.0,127.0,127.0,128.0,126.0,128.0,-1.0,106.0,-74.0,127.0,127.0,127.0,-116.0,-88.0,106.0
126.0,126.0,127.0,127.0,127.0,128.0,126.0,128.0,-1.0,106.0,-74.0,127.0,127.0,127.0,-116.0,-88.0,106.0
126.0,126.0,127.0,127.0,127.0,128.0,126.0,128.0,-1.0,106.0,-74.0,127.0,127.0,127.0,-116.0,-88.0,106.0
126.0,126.0,127.0,127.0,127.0,128.0,126.0,127.0,-1.0,106.0,-74.0,127.0,127.0,127.0,-116.0,-88.0,106.0
126.0,126.0,127.0,127.0,127.0,128.0,126.0,128.0,-1.0,106.0,-74.0,127.0,127.0,127.0,-116.0,-88.0,106.0
126.0,126.0,127.0,127.0,127.0,128.0,126.0,127.0,-1.0,106.0,-74.0,127.0,127.0,127.0,-116.0,-88.0,106.0
126.0,127.0,127.0,127.0,127.0,128.0,125.0,128.0,-1.0,105.0,-74.0,127.0,127.0,127.0,-116.0,-88.0,106.0
126.0,127.0,127.0,127.0,127.0,127.0,125.0,128.0,-1.0,105.0,-74.0,127.0,127.0,127.0,-116.0,-88.0,106.0
127.0,127.0,127.0,127.0,127.0,128.0,126.0,128.0,-1.0,105.0,-74.0,127.0,127.0,127.0,-116.0,-88.0,106.0
126.0,127.0,127.0,127.0,127.0,128.0,126.0,128.0,-1.0,105.0,-74.0,127.0,127.0,127.0,-116.0,-88.0,106.0
126.0,127.0,127.0,127.0,126.0,129.0,125.0,128.0,-1.0,105.0,-74.0,127.0,127.0,127.0,-116.0,-88.0,106.0
127.0,127.0,127.0,127.0,126.0,129.0,125.0,128.0,-1.0,105.0,-74.0,127.0,127.0,127.0,-116.0,-88.0,106.0
126.0,127.0,127.0,128.0,127.0,128.0,125.0,128.0,-1.0,105.0,-74.0,127.0,127.0,127.0,-116.0,-88.0,106.0
126.0,127.0,127.0,127.0,127.0,128.0,125.0,128.0,-1.0,105.0,-74.0,127.0,127.0,127.0,-116.0,-88.0,106.0
127.0,127.0,127.0,127.0,126.0,128.0,125.0,128.0,-1.0,105.0,-74.0,127.0,127.0,127.0,-116.0,-88.0,106.0
126.0,127.0,127.0,127.0,127.0,128.0,125.0,128.0,-1.0,105.0,-74.0,127.0,127.0,127.0,-116.0,-88.0,106.0
127.0,127.0,127.0,127.0,127.0,129.0,126.0,128.0,-1.0,105.0,-74.0,127.0,127.0,127.0,-116.0,-88.0,106.0
126.0,127.0,127.0,127.0,127.0,127.0,126.0,128.0,-1.0,105.0,-74.0,127.0,127.0,127.0,-116.0,-88.0,106.0
126.0,127.0,127.0,127.0,127.0,127.0,126.0,128.0,-1.0,105.0,-74.0,127.0,127.0,127.0,-116.0,-88.0,106.0
126.0,127.0,127.0,127.0,127.0,127.0,126.0,128.0,-1.0,105.0,-74.0,127.0,127.0,127.0,-116.0,-88.0,106.0
126.0,127.0,127.0,127.0,127.0,127.0,127.0,128.0,-1.0,105.0,-74.0,127.0,127.0,127.0,-116.0,-88.0,106.0
126.0,127.0,127.0,127.0,127.0,128.0,127.0,128.0,-1.0,105.0,-74.0,127.0,127.0,127.0,-116.0,-88.0,106.0
126.0,127.0,127.0,127.0,127.0,128.0,126.0,128.0,-1.0,105.0,-74.0,127.0,127.0,127.0,-116.0,-88.0,106.0
126.0,127.0,127.0,127.0,127.0,128.0,126.0,128.0,-1.0,105.0,-74.0,127.0,127.0,127.0,-116.0,-88.0,106.0
127.0,127.0,127.0,127.0,127.0,128.0,126.0,128.0,-1.0,105.0,-74.0,127.0,127.0,127.0,-116.0,-88.0,106.0
127.0,127.0,127.0,127.0,127.0,128.0,126.0,128.0,-1.0,105.0,-74.0,127.0,127.0,127.0,-116.0,-88.0,106.0
126.0,127.0,127.0,127.0,126.0,129.0,124.0,128.0,-1.0,105.0,-74.0,127.0,127.0,127.0,-116.0,-88.0,106.0
126.0,127.0,127.0,127.0,126.0,129.0,124.0,128.0,-1.0,105.0,-74.0,127.0,127.0,127.0,-116.0,-88.0,106.0
126.0,127.0,127.0,127.0,126.0,129.0,124.0,128.0,-1.0,105.0,-74.0,127.0,127.0,127.0,-116.0,-88.0,106.0
126.0,127.0,127.0,127.0,126.0,129.0,124.0,128.0,-1.0,105.0,-74.0,127.0,127.0,127.0,-116.0,-88.0,106.0
126.0,127.0,127.0,127.0,126.0,129.0,125.0,128.0,-1.0,105.0,-74.0,127.0,127.0,127.0,-116.0,-88.0,106.0
126.0,127.0,127.0,127.0,126.0,129.0,125.0,128.0,-1.0,105.0,-74.0,127.0,127.0,127.0,-116.0,-88.0,106.0
126.0,127.0,127.0,127.0,126.0,129.0,125.0,128.0,-1.0,105.0,-74.0,127.0,127.0,127.0,-116.0,-88.0,106.0
126.0,127.0,127.0,127.0,126.0,129.0,125.0,128.0,-1.0,105.0,-74.0,127.0,127.0,127.0,-116.0,-88.0,106.0
126.0,127.0,127.0,127.0,127.0,129.0,126.0,128.0,-1.0,105.0,-74.0,127.0,127.0,127.0,-116.0,-88.0,106.0
126.0,127.0,127.0,127.0,127.0,129.0,126.0,128.0,-1.0,105.0,-74.0,127.0,127.0,127.0,-116.0,-88.0,106.0
126.0,127.0,127.0,128.0,126.0,127.0,127.0,128.0,-1.0,105.0,-74.0,127.0,127.0,127.0,-116.0,-88.0,106.0
126.0,127.0,127.0,128.0,126.0,127.0,127.0,128.0,-1.0,105.0,-74.0,127.0,127.0,127.0,-116.0,-88.0,106.0
126.0,127.0,127.0,128.0,126.0,127.0,127.0,128.0,-1.0,105.0,-74.0,127.0,127.0,127.0,-116.0,-88.0,106.0
126.0,127.0,127.0,128.0,126.0,127.0,127.0,128.0,-1.0,105.0,-74.0,127.0,127.0,127.0,-116.0,-88.0,106.0
126.0,127.0,127.0,128.0,126.0,127.0,127.0,128.0,-1.0,105.0,-74.0,127.0,127.0,127.0,-116.0,-88.0,106.0
126.0,127.0,127.0,128.0,126.0,127.0,127.0,128.0,-1.0,105.0,-74.0,127.0,127.0,127.0,-116.0,-88.0,106.0
126.0,127.0,127.0,128.0,126.0,127.0,127.0,127.0,-1.0,105.0,-74.0,127.0,127.0,127.0,-116.0,-88.0,106.0
126.0,127.0,127.0,128.0,126.0,127.0,127.0,127.0,-1.0,105.0,-74.0,127.0,127.0,127.0,-116.0,-88.0,106.0
126.0,127.0,127.0,128.0,126.0,127.0,128.0,127.0,-1.0,105.0,-74.0,127.0,127.0,127.0,-116.0,-88.0,106.0
127.0,127.0,127.0,128.0,126.0,127.0,127.0,128.0,-1.0,105.0,-74.0,127.0,127.0,127.0,-116.0,-88.0,106.0
127.0,127.0,127.0,128.0,127.0,129.0,128.0,128.0,-1.0,105.0,-74.0,127.0,127.0,127.0,-116.0,-88.0,106.0
127.0,127.0,127.0,128.0,127.0,129.0,128.0,128.0,-1.0,105.0,-74.0,127.0,127.0,127.0,-116.0,-88.0,106.0
127.0,127.0,127.0,128.0,127.0,129.0,128.0,128.0,-1.0,105.0,-74.0,127.0,127.0,127.0,-116.0,-88.0,106.0
127.0,127.0,127.0,128.0,127.0,128.0,128.0,128.0,-1.0,105.0,-74.0,127.0,127.0,127.0,-116.0,-88.0,106.0
127.0,127.0,127.0,128.0,127.0,127.0,128.0,128.0,-1.0,105.0,-74.0,127.0,127.0,127.0,-116.0,-88.0,106.0
127.0,127.0,127.0,128.0,127.0,127.0,128.0,128.0,-1.0,105.0,-74.0,127.0,127.0,127.0,-116.0,-88.0,106.0
126.0,127.0,127.0,128.0,127.0,127.0,128.0,128.0,-1.0,105.0,-74.0,127.0,127.0,127.0,-116.0,-88.0,106.0
127.0,127.0,127.0,127.0,127.0,130.0,129.0,128.0,-1.0,105.0,-74.0,127.0,127.0,127.0,-116.0,-88.0,106.0
127.0,127.0,127.0,128.0,127.0,130.0,128.0,128.0,-1.0,105.0,-74.0,127.0,127.0,127.0,-116.0,-88.0,106.0
127.0,127.0,127.0,128.0,127.0,130.0,128.0,128.0,-1.0,105.0,-74.0,127.0,127.0,127.0,-116.0,-88.0,106.0
127.0,127.0,127.0,128.0,126.0,129.0,115.0,128.0,-1.0,106.0,-74.0,127.0,127.0,127.0,-116.0,-88.0,106.0
127.0,127.0,127.0,128.0,126.0,129.0,115.0,128.0,-1.0,106.0,-74.0,127.0,127.0,127.0,-116.0,-88.0,106.0
127.0,126.0,127.0,128.0,126.0,129.0,116.0,128.0,-1.0,106.0,-74.0,127.0,127.0,127.0,-116.0,-88.0,106.0
127.0,126.0,127.0,128.0,126.0,129.0,116.0,128.0,-1.0,106.0,-74.0,127.0,127.0,127.0,-116.0,-88.0,106.0
127.0,126.0,127.0,128.0,126.0,129.0,116.0,128.0,-1.0,106.0,-74.0,127.0,127.0,127.0,-116.0,-88.0,106.0
127.0,126.0,127.0,128.0,127.0,129.0,116.0,128.0,-1.0,106.0,-74.0,127.0,127.0,127.0,-116.0,-88.0,106.0
127.0,126.0,127.0,128.0,126.0,128.0,116.0,127.0,-1.0,106.0,-74.0,127.0,127.0,127.0,-116.0,-88.0,106.0
127.0,127.0,127.0,128.0,126.0,129.0,116.0,128.0,-1.0,106.0,-74.0,127.0,127.0,127.0,-116.0,-88.0,106.0
127.0,127.0,127.0,128.0,126.0,129.0,115.0,128.0,-1.0,106.0,-74.0,127.0,127.0,127.0,-116.0,-88.0,106.0
127.0,127.0,127.0,128.0,126.0,129.0,115.0,128.0,-1.0,106.0,-74.0,127.0,127.0,127.0,-116.0,-88.0,106.0
127.0,128.0,127.0,128.0,126.0,127.0,125.0,127.0,-1.0,106.0,-74.0,127.0,127.0,127.0,-116.0,-88.0,106.0
127.0,128.0,127.0,128.0,126.0,127.0,125.0,127.0,-1.0,106.0,-74.0,127.0,127.0,127.0,-116.0,-88.0,106.0
127.0,128.0,127.0,128.0,126.0,127.0,126.0,127.0,-1.0,106.0,-74.0,127.0,127.0,127.0,-116.0,-88.0,106.0
126.0,127.0,127.0,128.0,127.0,127.0,127.0,127.0,-1.0,106.0,-74.0,127.0,127.0,127.0,-116.0,-88.0,106.0
126.0,127.0,127.0,128.0,127.0,128.0,127.0,127.0,-1.0,106.0,-74.0,127.0,127.0,127.0,-116.0,-88.0,106.0
127.0,129.0,127.0,128.0,126.0,127.0,125.0,127.0,-1.0,106.0,-74.0,127.0,127.0,127.0,-116.0,-88.0,106.0
127.0,129.0,127.0,128.0,126.0,127.0,124.0,127.0,-1.0,106.0,-74.0,127.0,127.0,127.0,-116.0,-88.0,106.0
127.0,129.0,127.0,128.0,126.0,127.0,125.0,127.0,-1.0,106.0,-74.0,127.0,127.0,127.0,-116.0,-88.0,106.0
127.0,129.0,127.0,128.0,126.0,127.0,125.0,127.0,-1.0,106.0,-74.0,127.0,127.0,127.0,-116.0,-88.0,106.0
127.0,129.0,127.0,128.0,126.0,127.0,125.0,127.0,-1.0,106.0,-74.0,127.0,127.0,127.0,-116.0,-88.0,106.0
125.0,123.0,126.0,129.0,127.0,128.0,119.0,125.0,-1.0,105.0,-74.0,127.0,127.0,127.0,-116.0,-88.0,106.0
125.0,122.0,126.0,129.0,127.0,128.0,119.0,125.0,-1.0,105.0,-74.0,127.0,127.0,127.0,-116.0,-88.0,106.0
125.0,122.0,126.0,129.0,127.0,128.0,118.0,125.0,-1.0,105.0,-74.0,127.0,127.0,127.0,-116.0,-88.0,106.0
126.0,121.0,126.0,129.0,127.0,128.0,118.0,126.0,-1.0,105.0,-74.0,127.0,127.0,127.0,-116.0,-88.0,106.0
126.0,121.0,126.0,129.0,127.0,128.0,118.0,126.0,-1.0,105.0,-74.0,127.0,127.0,127.0,-116.0,-88.0,106.0
125.0,129.0,126.0,129.0,126.0,128.0,122.0,126.0,-1.0,105.0,-74.0,127.0,127.0,127.0,-116.0,-88.0,106.0
125.0,127.0,126.0,129.0,126.0,128.0,121.0,126.0,-1.0,105.0,-74.0,127.0,127.0,127.0,-116.0,-88.0,106.0
125.0,126.0,126.0,129.0,127.0,128.0,120.0,125.0,-1.0,105.0,-74.0,127.0,127.0,127.0,-116.0,-88.0,106.0
125.0,125.0,126.0,129.0,127.0,128.0,120.0,125.0,-1.0,105.0,-74.0,127.0,127.0,127.0,-116.0,-88.0,106.0
125.0,124.0,126.0,129.0,127.0,128.0,119.0,125.0,-1.0,105.0,-74.0,127.0,127.0,127.0,-116.0,-88.0,106.0
127.0,124.0,126.0,133.0,127.0,125.0,115.0,126.0,-1.0,105.0,-74.0,127.0,127.0,127.0,-116.0,-88.0,106.0
127.0,124.0,127.0,133.0,127.0,125.0,116.0,127.0,-1.0,105.0,-74.0,127.0,127.0,127.0,-116.0,-88.0,106.0
128.0,125.0,127.0,133.0,127.0,125.0,116.0,128.0,-1.0,105.0,-74.0,127.0,127.0,127.0,-116.0,-88.0,106.0
129.0,126.0,127.0,133.0,127.0,125.0,117.0,129.0,-1.0,105.0,-74.0,127.0,127.0,127.0,-116.0,-88.0,106.0
127.0,127.0,126.0,132.0,127.0,126.0,115.0,126.0,-1.0,105.0,-74.0,127.0,127.0,127.0,-116.0,-88.0,106.0
127.0,126.0,126.0,132.0,126.0,126.0,115.0,126.0,-1.0,105.0,-74.0,127.0,127.0,127.0,-116.0,-88.0,106.0
126.0,125.0,126.0,132.0,126.0,126.0,115.0,125.0,-1.0,105.0,-74.0,127.0,127.0,127.0,-116.0,-88.0,106.0
126.0,125.0,126.0,132.0,126.0,126.0,115.0,125.0,-1.0,105.0,-74.0,127.0,127.0,127.0,-116.0,-88.0,106.0
126.0,124.0,126.0,132.0,127.0,125.0,115.0,125.0,-1.0,105.0,-74.0,127.0,127.0,127.0,-116.0,-88.0,106.0
126.0,124.0,126.0,133.0,127.0,125.0,115.0,125.0,-1.0,105.0,-74.0,127.0,127.0,127.0,-116.0,-88.0,106.0
130.0,117.0,126.0,136.0,126.0,124.0,128.0,131.0,-1.0,106.0,-74.0,127.0,127.0,127.0,-116.0,-88.0,106.0
130.0,116.0,126.0,137.0,126.0,124.0,128.0,131.0,-1.0,106.0,-74.0,127.0,127.0,127.0,-116.0,-88.0,106.0
123.0,128.0,127.0,136.0,126.0,125.0,125.0,123.0,-1.0,106.0,-74.0,127.0,127.0,127.0,-116.0,-88.0,106.0
125.0,127.0,127.0,136.0,126.0,125.0,125.0,124.0,-1.0,106.0,-74.0,127.0,127.0,127.0,-116.0,-88.0,106.0
126.0,126.0,127.0,136.0,126.0,125.0,125.0,126.0,-1.0,106.0,-74.0,127.0,127.0,127.0,-116.0,-88.0,106.0
127.0,125.0,127.0,136.0,126.0,125.0,126.0,127.0,-1.0,106.0,-74.0,127.0,127.0,127.0,-116.0,-88.0,106.0
128.0,123.0,126.0,136.0,126.0,125.0,127.0,128.0,-1.0,106.0,-74.0,127.0,127.0,127.0,-116.0,-88.0,106.0
129.0,122.0,126.0,136.0,126.0,125.0,127.0,129.0,-1.0,106.0,-74.0,127.0,127.0,127.0,-116.0,-88.0,106.0
130.0,120.0,126.0,136.0,126.0,124.0,128.0,130.0,-1.0,106.0,-74.0,127.0,127.0,127.0,-116.0,-88.0,106.0
130.0,118.0,126.0,136.0,126.0,124.0,128.0,131.0,-1.0,106.0,-74.0,127.0,127.0,127.0,-116.0,-88.0,106.0
118.0,95.0,122.0,138.0,122.0,116.0,123.0,94.0,-1.0,106.0,-75.0,127.0,127.0,127.0,-116.0,-88.0,106.0
119.0,106.0,122.0,139.0,123.0,117.0,125.0,102.0,-1.0,106.0,-75.0,127.0,127.0,127.0,-116.0,-88.0,106.0
118.0,102.0,122.0,139.0,123.0,117.0,124.0,100.0,-1.0,106.0,-75.0,127.0,127.0,127.0,-116.0,-88.0,106.0
117.0,99.0,121.0,139.0,123.0,116.0,124.0,98.0,-1.0,106.0,-75.0,127.0,127.0,127.0,-116.0,-88.0,106.0
116.0,96.0,121.0,138.0,122.0,116.0,123.0,97.0,-1.0,106.0,-75.0,127.0,127.0,127.0,-116.0,-88.0,106.0
116.0,94.0,121.0,138.0,122.0,115.0,122.0,96.0,-1.0,106.0,-75.0,127.0,127.0,127.0,-116.0,-88.0,106.0
116.0,92.0,121.0,138.0,122.0,115.0,122.0,96.0,-1.0,106.0,-75.0,127.0,127.0,127.0,-116.0,-88.0,106.0
116.0,92.0,121.0,138.0,121.0,115.0,122.0,96.0,-1.0,106.0,-75.0,127.0,127.0,127.0,-116.0,-88.0,106.0
116.0,92.0,121.0,138.0,122.0,115.0,123.0,95.0,-1.0,106.0,-75.0,127.0,127.0,127.0,-116.0,-88.0,106.0
117.0,93.0,122.0,138.0,122.0,115.0,123.0,95.0,-1.0,106.0,-75.0,127.0,127.0,127.0,-116.0,-88.0,106.0
124.0,103.0,119.0,134.0,120.0,108.0,124.0,107.0,-1.0,107.0,-75.0,126.0,127.0,127.0,-116.0,-88.0,106.0
123.0,103.0,119.0,134.0,119.0,107.0,125.0,106.0,-1.0,107.0,-75.0,126.0,127.0,127.0,-116.0,-88.0,106.0
124.0,104.0,118.0,133.0,119.0,108.0,125.0,106.0,-1.0,107.0,-75.0,126.0,127.0,127.0,-116.0,-88.0,106.0
124.0,104.0,118.0,133.0,119.0,107.0,125.0,106.0,-1.0,107.0,-75.0,126.0,127.0,127.0,-116.0,-88.0,106.0
125.0,105.0,118.0,133.0,119.0,107.0,126.0,106.0,-1.0,107.0,-75.0,126.0,127.0,127.0,-116.0,-88.0,106.0
126.0,105.0,118.0,133.0,119.0,106.0,127.0,107.0,-1.0,107.0,-75.0,126.0,127.0,127.0,-116.0,-88.0,106.0
128.0,105.0,118.0,133.0,119.0,106.0,127.0,108.0,-1.0,107.0,-75.0,126.0,127.0,127.0,-116.0,-88.0,106.0
130.0,105.0,118.0,132.0,119.0,106.0,127.0,109.0,-1.0,107.0,-75.0,126.0,127.0,127.0,-116.0,-88.0,106.0
132.0,106.0,117.0,132.0,119.0,106.0,126.0,110.0,-1.0,107.0,-75.0,126.0,127.0,127.0,-116.0,-88.0,106.0
134.0,107.0,117.0,132.0,119.0,106.0,126.0,112.0,-1.0,107.0,-75.0,126.0,127.0,127.0,-116.0,-88.0,106.0
125.0,107.0,115.0,126.0,118.0,104.0,109.0,116.0,-1.0,109.0,-75.0,126.0,127.0,127.0,-116.0,-88.0,106.0
125.0,106.0,115.0,126.0,118.0,105.0,108.0,116.0,-1.0,109.0,-75.0,126.0,127.0,127.0,-116.0,-88.0,106.0
125.0,105.0,115.0,126.0,118.0,105.0,108.0,116.0,-1.0,109.0,-75.0,126.0,127.0,127.0,-116.0,-88.0,106.0
125.0,104.0,115.0,126.0,118.0,105.0,108.0,116.0,-1.0,109.0,-75.0,126.0,127.0,127.0,-116.0,-88.0,106.0
125.0,103.0,114.0,127.0,118.0,105.0,108.0,117.0,-1.0,109.0,-75.0,126.0,127.0,127.0,-116.0,-88.0,106.0
126.0,102.0,114.0,127.0,118.0,105.0,110.0,118.0,-1.0,109.0,-75.0,126.0,127.0,127.0,-116.0,-88.0,106.0
126.0,101.0,114.0,127.0,119.0,105.0,110.0,119.0,-1.0,109.0,-75.0,126.0,127.0,127.0,-116.0,-88.0,106.0
126.0,101.0,113.0,127.0,118.0,106.0,111.0,119.0,-1.0,109.0,-75.0,126.0,127.0,127.0,-116.0,-88.0,106.0
126.0,100.0,112.0,127.0,118.0,106.0,111.0,119.0,-1.0,109.0,-75.0,126.0,127.0,127.0,-116.0,-88.0,106.0
125.0,109.0,116.0,126.0,118.0,104.0,109.0,117.0,-1.0,109.0,-75.0,126.0,127.0,127.0,-116.0,-88.0,106.0
135.0,127.0,118.0,128.0,121.0,105.0,136.0,129.0,-1.0,110.0,-73.0,126.0,127.0,127.0,-116.0,-88.0,106.0
136.0,131.0,119.0,129.0,121.0,105.0,136.0,130.0,-1.0,110.0,-73.0,126.0,127.0,127.0,-116.0,-88.0,106.0
138.0,133.0,119.0,129.0,121.0,105.0,135.0,131.0,-1.0,110.0,-73.0,126.0,127.0,127.0,-116.0,-88.0,106.0
139.0,135.0,119.0,129.0,121.0,105.0,134.0,131.0,-1.0,110.0,-73.0,126.0,127.0,127.0,-116.0,-88.0,106.0
140.0,137.0,119.0,129.0,121.0,105.0,133.0,132.0,-1.0,110.0,-73.0,126.0,127.0,127.0,-116.0,-88.0,106.0
140.0,138.0,119.0,129.0,121.0,105.0,132.0,132.0,-1.0,110.0,-73.0,126.0,127.0,127.0,-116.0,-88.0,106.0
141.0,140.0,119.0,129.0,121.0,105.0,131.0,132.0,-1.0,110.0,-73.0,126.0,127.0,127.0,-116.0,-88.0,106.0
141.0,141.0,120.0,130.0,121.0,106.0,130.0,132.0,-1.0,110.0,-73.0,126.0,127.0,127.0,-116.0,-88.0,106.0
132.0,118.0,117.0,128.0,120.0,104.0,137.0,127.0,-1.0,110.0,-73.0,126.0,127.0,127.0,-116.0,-88.0,106.0
133.0,123.0,118.0,128.0,121.0,104.0,137.0,128.0,-1.0,110.0,-73.0,126.0,127.0,127.0,-116.0,-88.0,106.0
130.0,126.0,120.0,130.0,121.0,104.0,117.0,126.0,-1.0,111.0,-71.0,126.0,127.0,127.0,-116.0,-88.0,106.0
130.0,127.0,120.0,130.0,121.0,104.0,117.0,127.0,-1.0,111.0,-71.0,126.0,127.0,127.0,-116.0,-88.0,106.0
129.0,129.0,120.0,130.0,121.0,104.0,117.0,127.0,-1.0,111.0,-71.0,126.0,127.0,127.0,-116.0,-88.0,106.0
129.0,131.0,121.0,130.0,121.0,104.0,116.0,126.0,-1.0,111.0,-71.0,126.0,127.0,127.0,-116.0,-88.0,106.0
128.0,133.0,121.0,130.0,121.0,104.0,116.0,126.0,-1.0,111.0,-71.0,126.0,127.0,127.0,-116.0,-88.0,106.0
128.0,135.0,122.0,130.0,121.0,104.0,115.0,126.0,-1.0,111.0,-71.0,126.0,127.0,127.0,-116.0,-88.0,106.0
127.0,137.0,122.0,130.0,121.0,105.0,114.0,126.0,-1.0,111.0,-71.0,126.0,127.0,127.0,-116.0,-88.0,106.0
130.0,125.0,121.0,131.0,121.0,104.0,120.0,127.0,-1.0,111.0,-71.0,126.0,127.0,127.0,-116.0,-88.0,106.0
130.0,125.0,120.0,131.0,121.0,103.0,119.0,126.0,-1.0,111.0,-71.0,126.0,127.0,127.0,-116.0,-88.0,106.0
130.0,125.0,120.0,130.0,121.0,104.0,118.0,126.0,-1.0,111.0,-71.0,126.0,127.0,127.0,-116.0,-88.0,106.0
125.0,129.0,123.0,131.0,126.0,119.0,120.0,132.0,-1.0,108.0,-71.0,126.0,127.0,127.0,-116.0,-88.0,106.0
126.0,131.0,124.0,131.0,126.0,119.0,120.0,132.0,-1.0,108.0,-71.0,126.0,127.0,127.0,-116.0,-88.0,106.0
126.0,133.0,124.0,131.0,126.0,119.0,120.0,132.0,-1.0,108.0,-71.0,126.0,127.0,127.0,-116.0,-88.0,106.0
127.0,135.0,124.0,131.0,126.0,119.0,120.0,133.0,-1.0,108.0,-71.0,126.0,127.0,127.0,-116.0,-88.0,106.0
127.0,137.0,125.0,131.0,126.0,119.0,120.0,133.0,-1.0,108.0,-71.0,126.0,127.0,127.0,-116.0,-88.0,106.0
127.0,138.0,125.0,131.0,126.0,120.0,119.0,133.0,-1.0,108.0,-71.0,126.0,127.0,127.0,-116.0,-88.0,106.0
124.0,121.0,123.0,131.0,127.0,118.0,120.0,132.0,-1.0,108.0,-71.0,126.0,127.0,127.0,-116.0,-88.0,106.0
124.0,122.0,123.0,131.0,127.0,118.0,120.0,132.0,-1.0,108.0,-71.0,126.0,127.0,127.0,-116.0,-88.0,106.0
124.0,124.0,123.0,131.0,126.0,118.0,120.0,132.0,-1.0,108.0,-71.0,126.0,127.0,127.0,-116.0,-88.0,106.0
125.0,126.0,123.0,131.0,126.0,119.0,120.0,132.0,-1.0,108.0,-71.0,126.0,127.0,127.0,-116.0,-88.0,106.0
127.0,118.0,129.0,133.0,130.0,120.0,128.0,135.0,-1.0,103.0,-68.0,126.0,127.0,-128.0,-116.0,-88.0,106.0
128.0,117.0,129.0,133.0,130.0,120.0,128.0,135.0,-1.0,103.0,-68.0,126.0,127.0,-128.0,-116.0,-88.0,106.0
128.0,116.0,129.0,133.0,131.0,120.0,128.0,135.0,-1.0,103.0,-68.0,126.0,127.0,-128.0,-116.0,-88.0,106.0
128.0,116.0,129.0,133.0,131.0,120.0,128.0,135.0,-1.0,103.0,-68.0,126.0,127.0,-128.0,-116.0,-88.0,106.0
129.0,116.0,129.0,133.0,131.0,121.0,127.0,135.0,-1.0,103.0,-68.0,126.0,127.0,-128.0,-116.0,-88.0,106.0
128.0,123.0,130.0,132.0,130.0,119.0,130.0,135.0,-1.0,103.0,-68.0,126.0,127.0,-128.0,-116.0,-88.0,106.0
128.0,124.0,130.0,132.0,130.0,120.0,130.0,135.0,-1.0,103.0,-68.0,126.0,127.0,-128.0,-116.0,-88.0,106.0
128.0,123.0,130.0,132.0,130.0,120.0,129.0,135.0,-1.0,103.0,-68.0,126.0,127.0,-128.0,-116.0,-88.0,106.0
128.0,122.0,130.0,132.0,130.0,120.0,129.0,136.0,-1.0,103.0,-68.0,126.0,127.0,-128.0,-116.0,-88.0,106.0
127.0,120.0,129.0,132.0,130.0,120.0,128.0,136.0,-1.0,103.0,-68.0,126.0,127.0,-128.0,-116.0,-88.0,106.0
130.0,121.0,133.0,131.0,130.0,117.0,121.0,134.0,-1.0,95.0,-67.0,126.0,127.0,-128.0,-116.0,-88.0,106.0
131.0,121.0,133.0,131.0,130.0,117.0,120.0,134.0,-1.0,95.0,-67.0,126.0,127.0,-128.0,-116.0,-88.0,106.0
132.0,121.0,134.0,131.0,130.0,117.0,120.0,134.0,-1.0,95.0,-67.0,126.0,127.0,-128.0,-116.0,-88.0,106.0
132.0,121.0,134.0,131.0,130.0,117.0,120.0,135.0,-1.0,95.0,-67.0,126.0,127.0,-128.0,-116.0,-88.0,106.0
128.0,119.0,131.0,132.0,131.0,119.0,122.0,136.0,-1.0,95.0,-67.0,126.0,127.0,-128.0,-116.0,-88.0,106.0
129.0,119.0,132.0,132.0,131.0,119.0,122.0,136.0,-1.0,95.0,-67.0,126.0,127.0,-128.0,-116.0,-88.0,106.0
129.0,119.0,132.0,132.0,130.0,118.0,122.0,136.0,-1.0,95.0,-67.0,126.0,127.0,-128.0,-116.0,-88.0,106.0
129.0,120.0,132.0,132.0,130.0,118.0,122.0,135.0,-1.0,95.0,-67.0,126.0,127.0,-128.0,-116.0,-88.0,106.0
130.0,120.0,133.0,132.0,130.0,117.0,121.0,135.0,-1.0,95.0,-67.0,126.0,127.0,-128.0,-116.0,-88.0,106.0
130.0,121.0,133.0,131.0,130.0,117.0,121.0,135.0,-1.0,95.0,-67.0,126.0,127.0,-128.0,-116.0,-88.0,106.0
126.0,118.0,135.0,128.0,129.0,125.0,120.0,136.0,-1.0,94.0,-70.0,126.0,126.0,-128.0,-116.0,-88.0,106.0
127.0,121.0,135.0,128.0,129.0,125.0,119.0,135.0,-1.0,94.0,-70.0,126.0,126.0,-128.0,-116.0,-88.0,106.0
127.0,125.0,136.0,128.0,128.0,124.0,118.0,134.0,-1.0,94.0,-70.0,126.0,126.0,-128.0,-116.0,-88.0,106.0
125.0,114.0,135.0,129.0,128.0,124.0,119.0,135.0,-1.0,94.0,-70.0,126.0,126.0,-128.0,-116.0,-88.0,106.0
125.0,114.0,135.0,129.0,128.0,124.0,119.0,136.0,-1.0,94.0,-70.0,126.0,126.0,-128.0,-116.0,-88.0,106.0
125.0,114.0,135.0,129.0,128.0,124.0,120.0,136.0,-1.0,94.0,-70.0,126.0,126.0,-128.0,-116.0,-88.0,106.0
125.0,114.0,135.0,129.0,129.0,124.0,120.0,136.0,-1.0,94.0,-70.0,126.0,126.0,-128.0,-116.0,-88.0,106.0
126.0,114.0,135.0,129.0,129.0,124.0,120.0,136.0,-1.0,94.0,-70.0,126.0,126.0,-128.0,-116.0,-88.0,106.0
126.0,115.0,135.0,129.0,129.0,125.0,121.0,136.0,-1.0,94.0,-70.0,126.0,126.0,-128.0,-116.0,-88.0,106.0
126.0,116.0,135.0,128.0,129.0,125.0,120.0,136.0,-1.0,94.0,-70.0,126.0,126.0,-128.0,-116.0,-88.0,106.0
122.0,123.0,131.0,123.0,129.0,125.0,122.0,133.0,-1.0,98.0,-76.0,126.0,126.0,-128.0,-116.0,-88.0,106.0
122.0,124.0,132.0,123.0,129.0,125.0,122.0,133.0,-1.0,98.0,-76.0,126.0,126.0,-128.0,-116.0,-88.0,106.0
124.0,118.0,130.0,123.0,128.0,124.0,125.0,132.0,-1.0,98.0,-76.0,126.0,126.0,-128.0,-116.0,-88.0,106.0
123.0,119.0,130.0,124.0,129.0,124.0,125.0,132.0,-1.0,98.0,-76.0,126.0,126.0,-128.0,-116.0,-88.0,106.0
123.0,120.0,131.0,124.0,129.0,124.0,124.0,132.0,-1.0,98.0,-76.0,126.0,126.0,-128.0,-116.0,-88.0,106.0
123.0,121.0,131.0,124.0,129.0,124.0,124.0,132.0,-1.0,98.0,-76.0,126.0,126.0,-128.0,-116.0,-88.0,106.0
122.0,121.0,131.0,124.0,129.0,124.0,123.0,132.0,-1.0,98.0,-76.0,126.0,126.0,-128.0,-116.0,-88.0,106.0
122.0,122.0,131.0,124.0,129.0,124.0,123.0,132.0,-1.0,98.0,-76.0,126.0,126.0,-128.0,-116.0,-88.0,106.0
122.0,123.0,131.0,123.0,129.0,124.0,122.0,132.0,-1.0,98.0,-76.0,126.0,126.0,-128.0,-116.0,-88.0,106.0
121.0,123.0,131.0,123.0,129.0,125.0,122.0,133.0,-1.0,98.0,-76.0,126.0,126.0,-128.0,-116.0,-88.0,106.0
123.0,131.0,130.0,121.0,128.0,125.0,135.0,130.0,-1.0,100.0,-82.0,126.0,126.0,-128.0,-115.0,-88.0,106.0
129.0,138.0,132.0,122.0,128.0,125.0,134.0,132.0,-1.0,100.0,-82.0,126.0,126.0,-128.0,-115.0,-88.0,106.0
128.0,139.0,133.0,122.0,128.0,125.0,134.0,132.0,-1.0,100.0,-82.0,126.0,126.0,-128.0,-115.0,-88.0,106.0
127.0,140.0,133.0,122.0,128.0,125.0,134.0,131.0,-1.0,100.0,-82.0,126.0,126.0,-128.0,-115.0,-88.0,106.0
127.0,140.0,133.0,122.0,128.0,125.0,134.0,131.0,-1.0,100.0,-82.0,126.0,126.0,-128.0,-115.0,-88.0,106.0
126.0,140.0,133.0,122.0,128.0,125.0,135.0,130.0,-1.0,100.0,-82.0,126.0,126.0,-128.0,-115.0,-88.0,106.0
126.0,140.0,133.0,122.0,128.0,125.0,135.0,130.0,-1.0,100.0,-82.0,126.0,126.0,-128.0,-115.0,-88.0,106.0
125.0,139.0,132.0,121.0,128.0,125.0,134.0,130.0,-1.0,100.0,-82.0,126.0,126.0,-128.0,-115.0,-88.0,106.0
124.0,137.0,131.0,121.0,128.0,125.0,134.0,130.0,-1.0,100.0,-82.0,126.0,126.0,-128.0,-115.0,-88.0,106.0
123.0,134.0,131.0,121.0,128.0,125.0,134.0,130.0,-1.0,100.0,-82.0,126.0,126.0,-128.0,-115.0,-88.0,106.0
129.0,128.0,128.0,119.0,127.0,124.0,132.0,129.0,-1.0,99.0,-84.0,127.0,126.0,-128.0,-115.0,-88.0,106.0
128.0,127.0,128.0,120.0,127.0,124.0,131.0,129.0,-1.0,99.0,-84.0,127.0,126.0,-128.0,-115.0,-88.0,106.0
128.0,125.0,128.0,120.0,127.0,123.0,130.0,129.0,-1.0,99.0,-84.0,127.0,126.0,-128.0,-115.0,-88.0,106.0
127.0,123.0,128.0,120.0,127.0,123.0,130.0,128.0,-1.0,99.0,-84.0,127.0,126.0,-128.0,-115.0,-88.0,106.0
126.0,121.0,128.0,119.0,127.0,122.0,130.0,127.0,-1.0,99.0,-84.0,127.0,126.0,-128.0,-115.0,-88.0,106.0
125.0,120.0,128.0,120.0,127.0,122.0,130.0,127.0,-1.0,99.0,-84.0,127.0,126.0,-128.0,-115.0,-88.0,106.0
125.0,119.0,128.0,120.0,127.0,122.0,130.0,126.0,-1.0,99.0,-84.0,127.0,126.0,-128.0,-115.0,-88.0,106.0
125.0,118.0,128.0,120.0,127.0,123.0,130.0,125.0,-1.0,99.0,-84.0,127.0,126.0,-128.0,-115.0,-88.0,106.0
125.0,118.0,128.0,120.0,127.0,123.0,130.0,125.0,-1.0,99.0,-84.0,127.0,126.0,-128.0,-115.0,-88.0,106.0
125.0,117.0,128.0,120.0,127.0,123.0,130.0,125.0,-1.0,99.0,-84.0,127.0,126.0,-128.0,-115.0,-88.0,106.0
125.0,127.0,127.0,121.0,127.0,126.0,130.0,125.0,-1.0,98.0,-85.0,127.0,126.0,-128.0,-114.0,-87.0,106.0
125.0,128.0,127.0,121.0,128.0,126.0,131.0,126.0,-1.0,98.0,-85.0,127.0,126.0,-128.0,-114.0,-87.0,106.0
125.0,128.0,127.0,122.0,128.0,126.0,131.0,126.0,-1.0,98.0,-85.0,127.0,126.0,-128.0,-114.0,-87.0,106.0
125.0,128.0,127.0,122.0,128.0,126.0,131.0,126.0,-1.0,98.0,-85.0,127.0,126.0,-128.0,-114.0,-87.0,106.0
125.0,129.0,127.0,122.0,128.0,126.0,131.0,126.0,-1.0,98.0,-85.0,127.0,126.0,-128.0,-114.0,-87.0,106.0
125.0,129.0,127.0,122.0,128.0,126.0,131.0,126.0,-1.0,98.0,-85.0,127.0,126.0,-128.0,-114.0,-87.0,106.0
125.0,129.0,127.0,122.0,128.0,126.0,131.0,126.0,-1.0,98.0,-85.0,127.0,126.0,-128.0,-114.0,-87.0,106.0
125.0,129.0,128.0,122.0,128.0,126.0,132.0,126.0,-1.0,98.0,-85.0,127.0,126.0,-128.0,-114.0,-87.0,106.0
125.0,129.0,128.0,122.0,128.0,126.0,131.0,126.0,-1.0,98.0,-85.0,127.0,126.0,-128.0,-114.0,-87.0,106.0
125.0,127.0,127.0,121.0,127.0,125.0,130.0,125.0,-1.0,98.0,-85.0,127.0,126.0,-128.0,-114.0,-87.0,106.0
129.0,137.0,127.0,124.0,128.0,126.0,131.0,129.0,-1.0,99.0,-84.0,127.0,127.0,127.0,-113.0,-87.0,106.0
129.0,137.0,128.0,124.0,128.0,126.0,131.0,129.0,-1.0,99.0,-84.0,127.0,127.0,127.0,-113.0,-87.0,106.0
129.0,137.0,128.0,124.0,128.0,126.0,131.0,129.0,-1.0,99.0,-84.0,127.0,127.0,127.0,-113.0,-87.0,106.0
129.0,137.0,128.0,124.0,128.0,126.0,130.0,128.0,-1.0,99.0,-84.0,127.0,127.0,127.0,-113.0,-87.0,106.0
129.0,136.0,128.0,124.0,128.0,126.0,130.0,127.0,-1.0,99.0,-84.0,127.0,127.0,127.0,-113.0,-87.0,106.0
129.0,137.0,128.0,124.0,128.0,126.0,129.0,128.0,-1.0,99.0,-84.0,127.0,127.0,127.0,-113.0,-87.0,106.0
129.0,136.0,128.0,124.0,128.0,126.0,129.0,128.0,-1.0,99.0,-84.0,127.0,127.0,127.0,-113.0,-87.0,106.0
129.0,135.0,128.0,124.0,128.0,126.0,129.0,127.0,-1.0,99.0,-84.0,127.0,127.0,127.0,-113.0,-87.0,106.0
128.0,135.0,127.0,124.0,128.0,126.0,132.0,128.0,-1.0,99.0,-84.0,127.0,127.0,127.0,-113.0,-87.0,106.0
129.0,136.0,127.0,124.0,128.0,126.0,131.0,129.0,-1.0,99.0,-84.0,127.0,127.0,127.0,-113.0,-87.0,106.0
125.0,118.0,126.0,123.0,127.0,125.0,129.0,126.0,-1.0,100.0,-83.0,127.0,127.0,127.0,-113.0,-87.0,106.0
125.0,118.0,127.0,123.0,127.0,125.0,129.0,126.0,-1.0,100.0,-83.0,127.0,127.0,127.0,-113.0,-87.0,106.0
125.0,118.0,127.0,123.0,127.0,125.0,128.0,127.0,-1.0,100.0,-83.0,127.0,127.0,127.0,-113.0,-87.0,106.0
125.0,118.0,127.0,123.0,127.0,125.0,128.0,126.0,-1.0,100.0,-83.0,127.0,127.0,127.0,-113.0,-87.0,106.0
125.0,118.0,127.0,123.0,127.0,126.0,128.0,127.0,-1.0,100.0,-83.0,127.0,127.0,127.0,-113.0,-87.0,106.0
125.0,119.0,127.0,124.0,128.0,126.0,128.0,127.0,-1.0,100.0,-83.0,127.0,127.0,127.0,-113.0,-87.0,106.0
125.0,120.0,127.0,124.0,128.0,127.0,128.0,127.0,-1.0,100.0,-83.0,127.0,127.0,127.0,-113.0,-87.0,106.0
125.0,119.0,126.0,123.0,127.0,124.0,130.0,126.0,-1.0,100.0,-83.0,127.0,127.0,127.0,-113.0,-87.0,106.0
125.0,118.0,126.0,123.0,127.0,125.0,130.0,127.0,-1.0,100.0,-83.0,127.0,127.0,127.0,-113.0,-87.0,106.0
125.0,118.0,126.0,123.0,127.0,125.0,129.0,127.0,-1.0,100.0,-83.0,127.0,127.0,127.0,-113.0,-87.0,106.0
126.0,125.0,128.0,124.0,127.0,125.0,130.0,130.0,-1.0,100.0,-81.0,127.0,127.0,127.0,-113.0,-87.0,106.0
126.0,125.0,127.0,124.0,127.0,124.0,130.0,130.0,-1.0,100.0,-81.0,127.0,127.0,127.0,-113.0,-87.0,106.0
126.0,124.0,127.0,124.0,127.0,124.0,130.0,130.0,-1.0,100.0,-81.0,127.0,127.0,127.0,-113.0,-87.0,106.0
127.0,124.0,127.0,124.0,127.0,124.0,130.0,130.0,-1.0,100.0,-81.0,127.0,127.0,127.0,-113.0,-87.0,106.0
127.0,125.0,127.0,124.0,127.0,124.0,130.0,130.0,-1.0,100.0,-81.0,127.0,127.0,127.0,-113.0,-87.0,106.0
127.0,125.0,127.0,124.0,127.0,124.0,129.0,130.0,-1.0,100.0,-81.0,127.0,127.0,127.0,-113.0,-87.0,106.0
127.0,128.0,128.0,124.0,127.0,125.0,129.0,129.0,-1.0,100.0,-81.0,127.0,127.0,127.0,-113.0,-87.0,106.0
126.0,127.0,128.0,124.0,127.0,125.0,129.0,130.0,-1.0,100.0,-81.0,127.0,127.0,127.0,-113.0,-87.0,106.0
126.0,126.0,128.0,124.0,127.0,125.0,129.0,130.0,-1.0,100.0,-81.0,127.0,127.0,127.0,-113.0,-87.0,106.0
126.0,126.0,128.0,124.0,127.0,125.0,129.0,130.0,-1.0,100.0,-81.0,127.0,127.0,127.0,-113.0,-87.0,106.0
125.0,127.0,127.0,124.0,127.0,126.0,127.0,128.0,-1.0,100.0,-80.0,127.0,127.0,127.0,-113.0,-87.0,106.0
125.0,127.0,127.0,125.0,127.0,126.0,127.0,128.0,-1.0,100.0,-80.0,127.0,127.0,127.0,-113.0,-87.0,106.0
125.0,127.0,127.0,125.0,127.0,126.0,127.0,128.0,-1.0,100.0,-80.0,127.0,127.0,127.0,-113.0,-87.0,106.0
125.0,127.0,127.0,125.0,127.0,126.0,127.0,128.0,-1.0,100.0,-80.0,127.0,127.0,127.0,-113.0,-87.0,106.0
125.0,127.0,127.0,125.0,127.0,126.0,127.0,129.0,-1.0,100.0,-80.0,127.0,127.0,127.0,-113.0,-87.0,106.0
126.0,129.0,127.0,124.0,127.0,125.0,127.0,129.0,-1.0,100.0,-80.0,127.0,127.0,127.0,-113.0,-87.0,106.0
126.0,128.0,127.0,124.0,127.0,125.0,127.0,129.0,-1.0,100.0,-80.0,127.0,127.0,127.0,-113.0,-87.0,106.0
125.0,127.0,126.0,124.0,127.0,125.0,127.0,128.0,-1.0,100.0,-80.0,127.0,127.0,127.0,-113.0,-87.0,106.0
125.0,127.0,126.0,124.0,127.0,125.0,127.0,128.0,-1.0,100.0,-80.0,127.0,127.0,127.0,-113.0,-87.0,106.0
125.0,127.0,126.0,124.0,127.0,126.0,127.0,128.0,-1.0,100.0,-80.0,127.0,127.0,127.0,-113.0,-87.0,106.0
126.0,128.0,127.0,125.0,127.0,126.0,126.0,125.0,-1.0,100.0,-78.0,127.0,127.0,127.0,-113.0,-87.0,106.0
126.0,127.0,127.0,125.0,127.0,125.0,126.0,125.0,-1.0,100.0,-78.0,127.0,127.0,127.0,-113.0,-87.0,106.0
126.0,127.0,127.0,125.0,127.0,125.0,126.0,126.0,-1.0,100.0,-78.0,127.0,127.0,127.0,-113.0,-87.0,106.0
128.0,130.0,127.0,125.0,127.0,126.0,127.0,128.0,-1.0,100.0,-78.0,127.0,127.0,127.0,-113.0,-87.0,106.0
127.0,131.0,127.0,125.0,127.0,126.0,126.0,127.0,-1.0,100.0,-78.0,127.0,127.0,127.0,-113.0,-87.0,106.0
126.0,131.0,127.0,125.0,127.0,126.0,127.0,127.0,-1.0,100.0,-78.0,127.0,127.0,127.0,-113.0,-87.0,106.0
126.0,131.0,127.0,125.0,128.0,126.0,127.0,126.0,-1.0,100.0,-78.0,127.0,127.0,127.0,-113.0,-87.0,106.0
126.0,131.0,127.0,125.0,127.0,126.0,127.0,125.0,-1.0,100.0,-78.0,127.0,127.0,127.0,-113.0,-87.0,106.0
126.0,130.0,127.0,125.0,127.0,126.0,126.0,125.0,-1.0,100.0,-78.0,127.0,127.0,127.0,-113.0,-87.0,106.0
126.0,129.0,127.0,125.0,127.0,126.0,126.0,125.0,-1.0,100.0,-78.0,127.0,127.0,127.0,-113.0,-87.0,106.0
129.0,127.0,128.0,125.0,127.0,126.0,125.0,131.0,-1.0,100.0,-77.0,127.0,127.0,127.0,-113.0,-87.0,106.0
129.0,127.0,128.0,125.0,127.0,126.0,125.0,132.0,-1.0,100.0,-77.0,127.0,127.0,127.0,-113.0,-87.0,106.0
124.0,127.0,128.0,125.0,127.0,126.0,125.0,127.0,-1.0,100.0,-77.0,127.0,127.0,127.0,-113.0,-87.0,106.0
125.0,128.0,128.0,125.0,127.0,126.0,125.0,127.0,-1.0,100.0,-77.0,127.0,127.0,127.0,-113.0,-87.0,106.0
125.0,128.0,128.0,125.0,127.0,126.0,125.0,127.0,-1.0,100.0,-77.0,127.0,127.0,127.0,-113.0,-87.0,106.0
126.0,128.0,128.0,125.0,127.0,125.0,125.0,128.0,-1.0,100.0,-77.0,127.0,127.0,127.0,-113.0,-87.0,106.0
127.0,128.0,128.0,125.0,127.0,125.0,125.0,128.0,-1.0,100.0,-77.0,127.0,127.0,127.0,-113.0,-87.0,106.0
127.0,128.0,128.0,125.0,127.0,126.0,125.0,129.0,-1.0,100.0,-77.0,127.0,127.0,127.0,-113.0,-87.0,106.0
128.0,128.0,128.0,125.0,126.0,126.0,125.0,129.0,-1.0,100.0,-77.0,127.0,127.0,127.0,-113.0,-87.0,106.0
129.0,128.0,128.0,125.0,127.0,126.0,125.0,130.0,-1.0,100.0,-77.0,127.0,127.0,127.0,-113.0,-87.0,106.0
127.0,134.0,129.0,126.0,127.0,126.0,127.0,128.0,-1.0,100.0,-76.0,127.0,127.0,127.0,-113.0,-87.0,106.0
127.0,130.0,128.0,126.0,127.0,127.0,127.0,128.0,-1.0,100.0,-76.0,127.0,127.0,127.0,-113.0,-87.0,106.0
127.0,130.0,128.0,126.0,127.0,127.0,127.0,127.0,-1.0,100.0,-76.0,127.0,127.0,127.0,-113.0,-87.0,106.0
127.0,130.0,128.0,126.0,127.0,126.0,127.0,127.0,-1.0,100.0,-76.0,127.0,127.0,127.0,-113.0,-87.0,106.0
127.0,130.0,128.0,126.0,127.0,126.0,127.0,127.0,-1.0,100.0,-76.0,127.0,127.0,127.0,-113.0,-87.0,106.0
127.0,131.0,128.0,126.0,127.0,126.0,127.0,127.0,-1.0,100.0,-76.0,127.0,127.0,127.0,-113.0,-87.0,106.0
127.0,132.0,128.0,126.0,127.0,127.0,127.0,128.0,-1.0,100.0,-76.0,127.0,127.0,127.0,-113.0,-87.0,106.0
127.0,132.0,128.0,126.0,127.0,127.0,127.0,128.0,-1.0,100.0,-76.0,127.0,127.0,127.0,-113.0,-87.0,106.0
127.0,133.0,128.0,126.0,127.0,127.0,127.0,128.0,-1.0,100.0,-76.0,127.0,127.0,127.0,-113.0,-87.0,106.0
127.0,134.0,129.0,126.0,127.0,126.0,127.0,128.0,-1.0,100.0,-76.0,127.0,127.0,127.0,-113.0,-87.0,106.0
126.0,131.0,127.0,126.0,127.0,127.0,128.0,127.0,-1.0,100.0,-75.0,127.0,127.0,127.0,-113.0,-87.0,106.0
126.0,131.0,128.0,126.0,127.0,127.0,127.0,127.0,-1.0,100.0,-75.0,127.0,127.0,127.0,-113.0,-87.0,106.0
126.0,132.0,128.0,126.0,127.0,127.0,127.0,127.0,-1.0,100.0,-75.0,127.0,127.0,127.0,-113.0,-87.0,106.0
126.0,132.0,128.0,126.0,127.0,127.0,126.0,127.0,-1.0,100.0,-75.0,127.0,127.0,127.0,-113.0,-87.0,106.0
126.0,132.0,128.0,126.0,127.0,127.0,126.0,127.0,-1.0,100.0,-75.0,127.0,127.0,127.0,-113.0,-87.0,106.0
127.0,132.0,128.0,126.0,126.0,127.0,126.0,127.0,-1.0,100.0,-75.0,127.0,127.0,127.0,-113.0,-87.0,106.0
126.0,132.0,128.0,126.0,127.0,128.0,126.0,128.0,-1.0,100.0,-75.0,127.0,127.0,127.0,-113.0,-87.0,106.0
126.0,132.0,128.0,126.0,127.0,128.0,125.0,128.0,-1.0,100.0,-75.0,127.0,127.0,127.0,-113.0,-87.0,106.0
126.0,132.0,128.0,126.0,127.0,128.0,125.0,128.0,-1.0,100.0,-75.0,127.0,127.0,127.0,-113.0,-87.0,106.0
126.0,131.0,128.0,126.0,127.0,127.0,125.0,127.0,-1.0,100.0,-75.0,127.0,127.0,127.0,-113.0,-87.0,106.0
125.0,125.0,127.0,126.0,126.0,126.0,125.0,126.0,-1.0,100.0,-75.0,127.0,127.0,127.0,-113.0,-87.0,106.0
125.0,125.0,127.0,126.0,126.0,126.0,125.0,126.0,-1.0,100.0,-75.0,127.0,127.0,127.0,-113.0,-87.0,106.0
125.0,125.0,127.0,126.0,126.0,125.0,125.0,126.0,-1.0,100.0,-75.0,127.0,127.0,127.0,-113.0,-87.0,106.0
125.0,125.0,127.0,126.0,126.0,125.0,125.0,126.0,-1.0,100.0,-75.0,127.0,127.0,127.0,-113.0,-87.0,106.0
125.0,126.0,127.0,126.0,126.0,125.0,124.0,126.0,-1.0,100.0,-75.0,127.0,127.0,127.0,-113.0,-87.0,106.0
126.0,126.0,127.0,126.0,126.0,126.0,124.0,126.0,-1.0,100.0,-75.0,127.0,127.0,127.0,-113.0,-87.0,106.0
126.0,126.0,127.0,126.0,126.0,126.0,123.0,126.0,-1.0,100.0,-75.0,127.0,127.0,127.0,-113.0,-87.0,106.0
126.0,126.0,127.0,126.0,126.0,126.0,123.0,126.0,-1.0,100.0,-75.0,127.0,127.0,127.0,-113.0,-87.0,106.0
126.0,127.0,127.0,126.0,126.0,126.0,124.0,126.0,-1.0,100.0,-75.0,127.0,127.0,127.0,-113.0,-87.0,106.0
125.0,125.0,128.0,126.0,126.0,126.0,125.0,126.0,-1.0,100.0,-75.0,127.0,127.0,127.0,-113.0,-87.0,106.0
125.0,128.0,128.0,126.0,127.0,126.0,125.0,126.0,-1.0,100.0,-75.0,127.0,127.0,127.0,-113.0,-87.0,106.0
125.0,128.0,128.0,126.0,127.0,125.0,125.0,126.0,-1.0,100.0,-75.0,127.0,127.0,127.0,-113.0,-87.0,106.0
125.0,128.0,128.0,126.0,127.0,126.0,126.0,126.0,-1.0,100.0,-75.0,127.0,127.0,127.0,-113.0,-87.0,106.0
126.0,128.0,128.0,126.0,127.0,126.0,125.0,126.0,-1.0,100.0,-75.0,127.0,127.0,127.0,-113.0,-87.0,106.0
126.0,129.0,128.0,126.0,127.0,126.0,125.0,127.0,-1.0,100.0,-75.0,127.0,127.0,127.0,-113.0,-87.0,106.0
126.0,129.0,128.0,126.0,127.0,127.0,125.0,127.0,-1.0,100.0,-75.0,127.0,127.0,127.0,-113.0,-87.0,106.0
126.0,129.0,128.0,126.0,127.0,126.0,125.0,127.0,-1.0,100.0,-75.0,127.0,127.0,127.0,-113.0,-87.0,106.0
126.0,129.0,128.0,126.0,127.0,126.0,125.0,127.0,-1.0,100.0,-75.0,127.0,127.0,127.0,-113.0,-87.0,106.0
125.0,128.0,128.0,126.0,126.0,126.0,125.0,126.0,-1.0,100.0,-75.0,127.0,127.0,127.0,-113.0,-87.0,106.0
125.0,128.0,128.0,126.0,127.0,126.0,125.0,126.0,-1.0,100.0,-75.0,127.0,127.0,127.0,-113.0,-87.0,106.0
125.0,124.0,127.0,126.0,127.0,125.0,130.0,127.0,-1.0,99.0,-75.0,127.0,127.0,127.0,-113.0,-87.0,106.0
125.0,124.0,127.0,126.0,127.0,126.0,130.0,127.0,-1.0,99.0,-75.0,127.0,127.0,127.0,-113.0,-87.0,106.0
125.0,125.0,128.0,126.0,127.0,126.0,129.0,127.0,-1.0,99.0,-75.0,127.0,127.0,127.0,-113.0,-87.0,106.0
125.0,125.0,128.0,126.0,127.0,126.0,129.0,127.0,-1.0,99.0,-75.0,127.0,127.0,127.0,-113.0,-87.0,106.0
125.0,125.0,128.0,126.0,127.0,126.0,129.0,127.0,-1.0,99.0,-75.0,127.0,127.0,127.0,-113.0,-87.0,106.0
126.0,125.0,128.0,127.0,127.0,126.0,129.0,127.0,-1.0,99.0,-75.0,127.0,127.0,127.0,-113.0,-87.0,106.0
126.0,125.0,128.0,127.0,127.0,126.0,129.0,127.0,-1.0,99.0,-75.0,127.0,127.0,127.0,-113.0,-87.0,106.0
125.0,124.0,127.0,126.0,127.0,126.0,131.0,127.0,-1.0,99.0,-75.0,127.0,127.0,127.0,-113.0,-87.0,106.0
125.0,124.0,127.0,126.0,127.0,126.0,131.0,127.0,-1.0,99.0,-75.0,127.0,127.0,127.0,-113.0,-87.0,106.0
125.0,124.0,127.0,126.0,127.0,126.0,130.0,127.0,-1.0,99.0,-75.0,127.0,127.0,127.0,-113.0,-87.0,106.0
126.0,126.0,128.0,127.0,127.0,126.0,130.0,127.0,-1.0,99.0,-75.0,127.0,127.0,127.0,-113.0,-87.0,106.0
126.0,126.0,128.0,127.0,127.0,126.0,129.0,127.0,-1.0,99.0,-75.0,127.0,127.0,127.0,-113.0,-87.0,106.0
126.0,126.0,128.0,127.0,127.0,127.0,129.0,127.0,-1.0,99.0,-75.0,127.0,127.0,127.0,-113.0,-87.0,106.0
126.0,126.0,128.0,127.0,127.0,127.0,129.0,127.0,-1.0,99.0,-75.0,127.0,127.0,127.0,-113.0,-87.0,106.0
126.0,126.0,128.0,127.0,127.0,127.0,130.0,127.0,-1.0,99.0,-75.0,127.0,127.0,127.0,-113.0,-87.0,106.0
127.0,126.0,128.0,127.0,127.0,127.0,129.0,127.0,-1.0,99.0,-75.0,127.0,127.0,127.0,-113.0,-87.0,106.0
127.0,126.0,128.0,127.0,126.0,126.0,129.0,127.0,-1.0,99.0,-75.0,127.0,127.0,127.0,-113.0,-87.0,106.0
127.0,126.0,128.0,127.0,127.0,126.0,130.0,127.0,-1.0,99.0,-75.0,127.0,127.0,127.0,-113.0,-87.0,106.0
127.0,126.0,128.0,127.0,127.0,126.0,130.0,127.0,-1.0,99.0,-75.0,127.0,127.0,127.0,-113.0,-87.0,106.0
127.0,126.0,128.0,127.0,127.0,126.0,130.0,127.0,-1.0,99.0,-75.0,127.0,127.0,127.0,-113.0,-87.0,106.0
126.0,126.0,127.0,127.0,127.0,126.0,131.0,126.0,-1.0,99.0,-75.0,127.0,127.0,127.0,-113.0,-87.0,106.0
126.0,126.0,127.0,127.0,127.0,126.0,131.0,126.0,-1.0,99.0,-75.0,127.0,127.0,127.0,-113.0,-87.0,106.0
126.0,126.0,127.0,127.0,127.0,126.0,131.0,126.0,-1.0,99.0,-75.0,127.0,127.0,127.0,-113.0,-87.0,106.0
126.0,126.0,127.0,127.0,127.0,126.0,132.0,127.0,-1.0,99.0,-75.0,127.0,127.0,127.0,-113.0,-87.0,106.0
126.0,126.0,127.0,127.0,127.0,126.0,132.0,127.0,-1.0,99.0,-75.0,127.0,127.0,127.0,-113.0,-87.0,106.0
126.0,126.0,127.0,127.0,126.0,126.0,130.0,126.0,-1.0,99.0,-75.0,127.0,127.0,127.0,-113.0,-87.0,106.0
126.0,126.0,127.0,127.0,126.0,126.0,130.0,126.0,-1.0,99.0,-75.0,127.0,127.0,127.0,-113.0,-87.0,106.0
126.0,126.0,127.0,127.0,126.0,126.0,131.0,126.0,-1.0,99.0,-75.0,127.0,127.0,127.0,-113.0,-87.0,106.0
126.0,126.0,127.0,127.0,127.0,126.0,131.0,126.0,-1.0,99.0,-75.0,127.0,127.0,127.0,-113.0,-87.0,106.0
126.0,126.0,127.0,127.0,127.0,126.0,131.0,126.0,-1.0,99.0,-75.0,127.0,127.0,127.0,-113.0,-87.0,106.0
127.0,127.0,128.0,127.0,127.0,125.0,126.0,127.0,-1.0,99.0,-76.0,127.0,127.0,127.0,-113.0,-87.0,106.0
127.0,127.0,128.0,127.0,126.0,125.0,126.0,127.0,-1.0,99.0,-76.0,127.0,127.0,127.0,-113.0,-87.0,106.0
127.0,127.0,128.0,127.0,127.0,126.0,126.0,127.0,-1.0,99.0,-76.0,127.0,127.0,127.0,-113.0,-87.0,106.0
126.0,127.0,128.0,127.0,127.0,126.0,126.0,128.0,-1.0,99.0,-76.0,127.0,127.0,127.0,-113.0,-87.0,106.0
126.0,127.0,128.0,127.0,127.0,127.0,128.0,128.0,-1.0,99.0,-76.0,127.0,127.0,127.0,-113.0,-87.0,106.0
126.0,127.0,128.0,127.0,127.0,127.0,127.0,128.0,-1.0,99.0,-76.0,127.0,127.0,127.0,-113.0,-87.0,106.0
127.0,127.0,128.0,127.0,127.0,126.0,127.0,128.0,-1.0,99.0,-76.0,127.0,127.0,127.0,-113.0,-87.0,106.0
127.0,127.0,128.0,127.0,127.0,126.0,127.0,127.0,-1.0,99.0,-76.0,127.0,127.0,127.0,-113.0,-87.0,106.0
127.0,127.0,128.0,127.0,127.0,126.0,127.0,127.0,-1.0,99.0,-76.0,127.0,127.0,127.0,-113.0,-87.0,106.0
127.0,127.0,128.0,127.0,127.0,126.0,127.0,127.0,-1.0,99.0,-76.0,127.0,127.0,127.0,-113.0,-87.0,106.0
126.0,126.0,128.0,128.0,127.0,127.0,127.0,127.0,-1.0,100.0,-76.0,127.0,127.0,127.0,-113.0,-87.0,106.0
126.0,126.0,128.0,128.0,127.0,127.0,126.0,126.0,-1.0,100.0,-76.0,127.0,127.0,127.0,-113.0,-87.0,106.0
126.0,126.0,128.0,128.0,127.0,127.0,126.0,126.0,-1.0,100.0,-76.0,127.0,127.0,127.0,-113.0,-87.0,106.0
126.0,126.0,127.0,128.0,127.0,128.0,127.0,127.0,-1.0,100.0,-76.0,127.0,127.0,127.0,-113.0,-87.0,106.0
126.0,126.0,127.0,128.0,127.0,128.0,127.0,127.0,-1.0,100.0,-76.0,127.0,127.0,127.0,-113.0,-87.0,106.0
126.0,126.0,127.0,128.0,127.0,128.0,126.0,127.0,-1.0,100.0,-76.0,127.0,127.0,127.0,-113.0,-87.0,106.0
126.0,126.0,127.0,128.0,127.0,128.0,126.0,127.0,-1.0,100.0,-76.0,127.0,127.0,127.0,-113.0,-87.0,106.0
126.0,126.0,128.0,128.0,127.0,128.0,126.0,127.0,-1.0,100.0,-76.0,127.0,127.0,127.0,-113.0,-87.0,106.0
126.0,126.0,128.0,128.0,127.0,128.0,126.0,127.0,-1.0,100.0,-76.0,127.0,127.0,127.0,-113.0,-87.0,106.0
126.0,126.0,128.0,128.0,127.0,127.0,126.0,127.0,-1.0,100.0,-76.0,127.0,127.0,127.0,-113.0,-87.0,106.0
126.0,126.0,128.0,128.0,127.0,129.0,125.0,125.0,-1.0,100.0,-76.0,127.0,127.0,127.0,-113.0,-87.0,106.0
126.0,126.0,128.0,128.0,127.0,129.0,125.0,125.0,-1.0,100.0,-76.0,127.0,127.0,127.0,-113.0,-87.0,106.0
126.0,126.0,127.0,128.0,127.0,128.0,125.0,126.0,-1.0,100.0,-76.0,127.0,127.0,127.0,-113.0,-87.0,106.0
126.0,126.0,127.0,128.0,127.0,129.0,125.0,125.0,-1.0,100.0,-76.0,127.0,127.0,127.0,-113.0,-87.0,106.0
126.0,126.0,128.0,128.0,127.0,129.0,125.0,125.0,-1.0,100.0,-76.0,127.0,127.0,127.0,-113.0,-87.0,106.0
126.0,126.0,128.0,128.0,127.0,129.0,125.0,125.0,-1.0,100.0,-76.0,127.0,127.0,127.0,-113.0,-87.0,106.0
126.0,126.0,128.0,128.0,127.0,129.0,125.0,125.0,-1.0,100.0,-76.0,127.0,127.0,127.0,-113.0,-87.0,106.0
126.0,126.0,128.0,128.0,127.0,129.0,125.0,125.0,-1.0,100.0,-76.0,127.0,127.0,127.0,-113.0,-87.0,106.0
126.0,126.0,128.0,128.0,127.0,129.0,125.0,125.0,-1.0,100.0,-76.0,127.0,127.0,127.0,-113.0,-87.0,106.0
126.0,126.0,128.0,128.0,127.0,129.0,125.0,125.0,-1.0,100.0,-76.0,127.0,127.0,127.0,-113.0,-87.0,106.0
126.0,126.0,127.0,129.0,127.0,128.0,124.0,125.0,-1.0,100.0,-77.0,127.0,127.0,127.0,-113.0,-87.0,106.0
126.0,126.0,127.0,129.0,127.0,128.0,124.0,125.0,-1.0,100.0,-77.0,127.0,127.0,127.0,-113.0,-87.0,106.0
125.0,126.0,128.0,129.0,127.0,128.0,124.0,125.0,-1.0,100.0,-77.0,127.0,127.0,127.0,-113.0,-87.0,106.0
126.0,126.0,128.0,129.0,127.0,128.0,124.0,125.0,-1.0,100.0,-77.0,127.0,127.0,127.0,-113.0,-87.0,106.0
125.0,126.0,128.0,129.0,127.0,128.0,124.0,125.0,-1.0,100.0,-77.0,127.0,127.0,127.0,-113.0,-87.0,106.0
125.0,126.0,128.0,129.0,127.0,128.0,125.0,125.0,-1.0,100.0,-77.0,127.0,127.0,127.0,-113.0,-87.0,106.0
125.0,126.0,128.0,129.0,127.0,128.0,124.0,125.0,-1.0,100.0,-77.0,127.0,127.0,127.0,-113.0,-87.0,106.0
125.0,126.0,128.0,129.0,127.0,128.0,125.0,125.0,-1.0,100.0,-77.0,127.0,127.0,127.0,-113.0,-87.0,106.0
125.0,126.0,128.0,129.0,127.0,128.0,125.0,125.0,-1.0,100.0,-77.0,127.0,127.0,127.0,-113.0,-87.0,106.0
125.0,126.0,128.0,129.0,127.0,128.0,125.0,125.0,-1.0,100.0,-77.0,127.0,127.0,127.0,-113.0,-87.0,106.0
125.0,126.0,127.0,128.0,126.0,129.0,124.0,124.0,-1.0,100.0,-77.0,127.0,127.0,127.0,-113.0,-87.0,106.0
125.0,126.0,127.0,128.0,126.0,129.0,124.0,124.0,-1.0,100.0,-77.0,127.0,127.0,127.0,-113.0,-87.0,106.0
125.0,126.0,127.0,128.0,126.0,129.0,124.0,124.0,-1.0,100.0,-77.0,127.0,127.0,127.0,-113.0,-87.0,106.0
125.0,126.0,128.0,128.0,126.0,129.0,124.0,124.0,-1.0,100.0,-77.0,127.0,127.0,127.0,-113.0,-87.0,106.0
125.0,126.0,128.0,128.0,126.0,129.0,124.0,124.0,-1.0,100.0,-77.0,127.0,127.0,127.0,-113.0,-87.0,106.0
125.0,126.0,128.0,128.0,126.0,129.0,123.0,124.0,-1.0,100.0,-77.0,127.0,127.0,127.0,-113.0,-87.0,106.0
125.0,126.0,128.0,128.0,127.0,129.0,123.0,124.0,-1.0,100.0,-77.0,127.0,127.0,127.0,-113.0,-87.0,106.0
125.0,126.0,128.0,128.0,127.0,129.0,123.0,124.0,-1.0,100.0,-77.0,127.0,127.0,127.0,-113.0,-87.0,106.0
125.0,126.0,128.0,128.0,127.0,129.0,123.0,124.0,-1.0,100.0,-77.0,127.0,127.0,127.0,-113.0,-87.0,106.0
125.0,126.0,128.0,128.0,127.0,129.0,123.0,124.0,-1.0,100.0,-77.0,127.0,127.0,127.0,-113.0,-87.0,106.0
125.0,126.0,127.0,127.0,126.0,128.0,118.0,122.0,-1.0,100.0,-77.0,127.0,127.0,127.0,-113.0,-87.0,106.0
125.0,126.0,127.0,127.0,127.0,128.0,118.0,122.0,-1.0,100.0,-77.0,127.0,127.0,127.0,-113.0,-87.0,106.0
125.0,126.0,127.0,127.0,127.0,128.0,118.0,122.0,-1.0,100.0,-77.0,127.0,127.0,127.0,-113.0,-87.0,106.0
125.0,126.0,127.0,127.0,127.0,128.0,118.0,122.0,-1.0,100.0,-77.0,127.0,127.0,127.0,-113.0,-87.0,106.0
125.0,126.0,127.0,127.0,127.0,129.0,118.0,122.0,-1.0,100.0,-77.0,127.0,127.0,127.0,-113.0,-87.0,106.0
125.0,126.0,127.0,127.0,127.0,129.0,118.0,122.0,-1.0,100.0,-77.0,127.0,127.0,127.0,-113.0,-87.0,106.0
125.0,126.0,127.0,127.0,127.0,130.0,118.0,122.0,-1.0,100.0,-77.0,127.0,127.0,127.0,-113.0,-87.0,106.0
125.0,126.0,127.0,127.0,127.0,130.0,118.0,122.0,-1.0,100.0,-77.0,127.0,127.0,127.0,-113.0,-87.0,106.0
125.0,126.0,127.0,127.0,127.0,127.0,119.0,122.0,-1.0,100.0,-77.0,127.0,127.0,127.0,-113.0,-87.0,106.0
125.0,126.0,127.0,127.0,126.0,128.0,118.0,122.0,-1.0,100.0,-77.0,127.0,127.0,127.0,-113.0,-87.0,106.0
125.0,126.0,127.0,128.0,127.0,132.0,120.0,123.0,-1.0,100.0,-77.0,127.0,127.0,127.0,-113.0,-87.0,106.0
125.0,126.0,127.0,128.0,127.0,131.0,120.0,123.0,-1.0,100.0,-77.0,127.0,127.0,127.0,-113.0,-87.0,106.0
125.0,126.0,127.0,128.0,127.0,131.0,119.0,123.0,-1.0,100.0,-77.0,127.0,127.0,127.0,-113.0,-87.0,106.0
125.0,126.0,127.0,128.0,127.0,130.0,119.0,123.0,-1.0,100.0,-77.0,127.0,127.0,127.0,-113.0,-87.0,106.0
125.0,126.0,127.0,128.0,127.0,129.0,119.0,123.0,-1.0,100.0,-77.0,127.0,127.0,127.0,-113.0,-87.0,106.0
125.0,126.0,127.0,128.0,127.0,129.0,119.0,123.0,-1.0,100.0,-77.0,127.0,127.0,127.0,-113.0,-87.0,106.0
125.0,127.0,127.0,128.0,127.0,129.0,119.0,123.0,-1.0,100.0,-77.0,127.0,127.0,127.0,-113.0,-87.0,106.0
125.0,126.0,127.0,127.0,127.0,132.0,121.0,122.0,-1.0,100.0,-77.0,127.0,127.0,127.0,-113.0,-87.0,106.0
125.0,126.0,127.0,127.0,127.0,132.0,120.0,122.0,-1.0,100.0,-77.0,127.0,127.0,127.0,-113.0,-87.0,106.0
125.0,126.0,127.0,128.0,127.0,132.0,120.0,122.0,-1.0,100.0,-77.0,127.0,127.0,127.0,-113.0,-87.0,106.0
124.0,126.0,126.0,127.0,125.0,123.0,117.0,122.0,-1.0,100.0,-77.0,127.0,127.0,127.0,-113.0,-87.0,106.0
124.0,126.0,126.0,127.0,125.0,122.0,117.0,122.0,-1.0,100.0,-77.0,127.0,127.0,127.0,-113.0,-87.0,106.0
124.0,126.0,126.0,127.0,125.0,122.0,117.0,122.0,-1.0,100.0,-77.0,127.0,127.0,127.0,-113.0,-87.0,106.0
124.0,126.0,126.0,127.0,125.0,122.0,117.0,122.0,-1.0,100.0,-77.0,127.0,127.0,127.0,-113.0,-87.0,106.0
124.0,126.0,126.0,127.0,125.0,123.0,116.0,122.0,-1.0,100.0,-77.0,127.0,127.0,127.0,-113.0,-87.0,106.0
124.0,126.0,126.0,127.0,125.0,123.0,116.0,122.0,-1.0,100.0,-77.0,127.0,127.0,127.0,-113.0,-87.0,106.0
124.0,126.0,126.0,127.0,125.0,125.0,119.0,122.0,-1.0,100.0,-77.0,127.0,127.0,127.0,-113.0,-87.0,106.0
124.0,126.0,126.0,127.0,125.0,124.0,118.0,122.0,-1.0,100.0,-77.0,127.0,127.0,127.0,-113.0,-87.0,106.0
124.0,126.0,126.0,127.0,125.0,124.0,118.0,122.0,-1.0,100.0,-77.0,127.0,127.0,127.0,-113.0,-87.0,106.0
124.0,126.0,126.0,127.0,125.0,123.0,118.0,122.0,-1.0,100.0,-77.0,127.0,127.0,127.0,-113.0,-87.0,106.0
125.0,126.0,127.0,128.0,128.0,130.0,123.0,125.0,-1.0,101.0,-76.0,127.0,127.0,127.0,-113.0,-87.0,106.0
125.0,126.0,127.0,128.0,128.0,131.0,123.0,125.0,-1.0,101.0,-76.0,127.0,127.0,127.0,-113.0,-87.0,106.0
125.0,126.0,127.0,128.0,128.0,131.0,123.0,125.0,-1.0,101.0,-76.0,127.0,127.0,127.0,-113.0,-87.0,106.0
125.0,127.0,127.0,128.0,127.0,131.0,123.0,125.0,-1.0,101.0,-76.0,127.0,127.0,127.0,-113.0,-87.0,106.0
125.0,127.0,127.0,128.0,127.0,132.0,123.0,125.0,-1.0,101.0,-76.0,127.0,127.0,127.0,-113.0,-87.0,106.0
125.0,126.0,127.0,128.0,128.0,128.0,122.0,125.0,-1.0,101.0,-76.0,127.0,127.0,127.0,-113.0,-87.0,106.0
125.0,126.0,127.0,128.0,128.0,128.0,122.0,125.0,-1.0,101.0,-76.0,127.0,127.0,127.0,-113.0,-87.0,106.0
125.0,126.0,127.0,128.0,128.0,129.0,122.0,125.0,-1.0,101.0,-76.0,127.0,127.0,127.0,-113.0,-87.0,106.0
125.0,126.0,127.0,128.0,128.0,130.0,123.0,125.0,-1.0,101.0,-76.0,127.0,127.0,127.0,-113.0,-87.0,106.0
125.0,126.0,127.0,128.0,128.0,130.0,123.0,125.0,-1.0,101.0,-76.0,127.0,127.0,127.0,-113.0,-87.0,106.0
125.0,125.0,126.0,127.0,126.0,124.0,121.0,126.0,-1.0,101.0,-75.0,127.0,127.0,127.0,-113.0,-87.0,106.0
125.0,125.0,126.0,127.0,126.0,124.0,121.0,126.0,-1.0,101.0,-75.0,127.0,127.0,127.0,-113.0,-87.0,106.0
125.0,126.0,126.0,127.0,126.0,125.0,121.0,126.0,-1.0,101.0,-75.0,127.0,127.0,127.0,-113.0,-87.0,106.0
125.0,126.0,126.0,127.0,126.0,126.0,121.0,126.0,-1.0,101.0,-75.0,127.0,127.0,127.0,-113.0,-87.0,106.0
125.0,125.0,126.0,127.0,126.0,121.0,121.0,125.0,-1.0,101.0,-75.0,127.0,127.0,127.0,-113.0,-87.0,106.0
125.0,125.0,126.0,127.0,126.0,122.0,121.0,125.0,-1.0,101.0,-75.0,127.0,127.0,127.0,-113.0,-87.0,106.0
125.0,125.0,126.0,127.0,126.0,123.0,121.0,126.0,-1.0,101.0,-75.0,127.0,127.0,127.0,-113.0,-87.0,106.0
125.0,125.0,126.0,127.0,126.0,123.0,121.0,126.0,-1.0,101.0,-75.0,127.0,127.0,127.0,-113.0,-87.0,106.0
125.0,125.0,126.0,127.0,126.0,123.0,121.0,126.0,-1.0,101.0,-75.0,127.0,127.0,127.0,-113.0,-87.0,106.0
125.0,125.0,126.0,127.0,126.0,123.0,121.0,126.0,-1.0,101.0,-75.0,127.0,127.0,127.0,-113.0,-87.0,106.0
126.0,128.0,126.0,126.0,128.0,132.0,123.0,127.0,-1.0,102.0,-75.0,127.0,127.0,127.0,-113.0,-87.0,106.0
126.0,128.0,126.0,126.0,127.0,132.0,123.0,127.0,-1.0,102.0,-75.0,127.0,127.0,127.0,-113.0,-87.0,106.0
126.0,128.0,126.0,126.0,127.0,132.0,122.0,127.0,-1.0,102.0,-75.0,127.0,127.0,127.0,-113.0,-87.0,106.0
126.0,128.0,126.0,126.0,127.0,132.0,123.0,126.0,-1.0,102.0,-75.0,127.0,127.0,127.0,-113.0,-87.0,106.0
126.0,128.0,126.0,126.0,127.0,132.0,123.0,126.0,-1.0,102.0,-75.0,127.0,127.0,127.0,-113.0,-87.0,106.0
126.0,128.0,126.0,126.0,127.0,133.0,123.0,127.0,-1.0,102.0,-75.0,127.0,127.0,127.0,-113.0,-87.0,106.0
126.0,128.0,126.0,126.0,127.0,133.0,122.0,127.0,-1.0,102.0,-75.0,127.0,127.0,127.0,-113.0,-87.0,106.0
126.0,128.0,126.0,126.0,127.0,133.0,123.0,127.0,-1.0,102.0,-75.0,127.0,127.0,127.0,-113.0,-87.0,106.0
126.0,128.0,126.0,126.0,128.0,132.0,123.0,127.0,-1.0,102.0,-75.0,127.0,127.0,127.0,-113.0,-87.0,106.0
126.0,128.0,126.0,126.0,128.0,132.0,122.0,127.0,-1.0,102.0,-75.0,127.0,127.0,127.0,-113.0,-87.0,106.0
125.0,128.0,127.0,127.0,126.0,125.0,127.0,128.0,-1.0,102.0,-75.0,127.0,127.0,127.0,-113.0,-87.0,106.0
125.0,129.0,127.0,127.0,126.0,126.0,126.0,128.0,-1.0,102.0,-75.0,127.0,127.0,127.0,-113.0,-87.0,106.0
125.0,128.0,126.0,126.0,126.0,126.0,126.0,128.0,-1.0,102.0,-75.0,127.0,127.0,127.0,-113.0,-87.0,106.0
125.0,128.0,126.0,126.0,126.0,126.0,126.0,128.0,-1.0,102.0,-75.0,127.0,127.0,127.0,-113.0,-87.0,106.0
125.0,128.0,126.0,126.0,126.0,126.0,126.0,128.0,-1.0,102.0,-75.0,127.0,127.0,127.0,-113.0,-87.0,106.0
125.0,129.0,126.0,126.0,126.0,126.0,126.0,128.0,-1.0,102.0,-75.0,127.0,127.0,127.0,-113.0,-87.0,106.0
125.0,129.0,126.0,126.0,126.0,126.0,126.0,128.0,-1.0,102.0,-75.0,127.0,127.0,127.0,-113.0,-87.0,106.0
125.0,128.0,126.0,126.0,126.0,126.0,126.0,128.0,-1.0,102.0,-75.0,127.0,127.0,127.0,-113.0,-87.0,106.0
125.0,128.0,127.0,126.0,126.0,125.0,127.0,128.0,-1.0,102.0,-75.0,127.0,127.0,127.0,-113.0,-87.0,106.0
125.0,128.0,127.0,126.0,127.0,125.0,127.0,128.0,-1.0,102.0,-75.0,127.0,127.0,127.0,-113.0,-87.0,106.0
125.0,129.0,126.0,128.0,128.0,130.0,123.0,128.0,-1.0,102.0,-74.0,127.0,127.0,127.0,-113.0,-87.0,106.0
125.0,129.0,127.0,128.0,129.0,132.0,127.0,128.0,-1.0,102.0,-74.0,127.0,127.0,127.0,-113.0,-87.0,106.0
125.0,129.0,127.0,128.0,128.0,132.0,126.0,128.0,-1.0,102.0,-74.0,127.0,127.0,127.0,-113.0,-87.0,106.0
125.0,129.0,126.0,128.0,128.0,132.0,126.0,128.0,-1.0,102.0,-74.0,127.0,127.0,127.0,-113.0,-87.0,106.0
125.0,129.0,126.0,128.0,128.0,132.0,125.0,128.0,-1.0,102.0,-74.0,127.0,127.0,127.0,-113.0,-87.0,106.0
125.0,129.0,127.0,128.0,128.0,132.0,125.0,128.0,-1.0,102.0,-74.0,127.0,127.0,127.0,-113.0,-87.0,106.0
125.0,129.0,127.0,128.0,128.0,132.0,124.0,128.0,-1.0,102.0,-74.0,127.0,127.0,127.0,-113.0,-87.0,106.0
125.0,129.0,127.0,128.0,128.0,132.0,124.0,128.0,-1.0,102.0,-74.0,127.0,127.0,127.0,-113.0,-87.0,106.0
125.0,129.0,127.0,128.0,128.0,131.0,124.0,128.0,-1.0,102.0,-74.0,127.0,127.0,127.0,-113.0,-87.0,106.0
125.0,129.0,127.0,128.0,128.0,130.0,123.0,128.0,-1.0,102.0,-74.0,127.0,127.0,127.0,-113.0,-87.0,106.0
124.0,128.0,126.0,128.0,128.0,132.0,123.0,128.0,-1.0,102.0,-74.0,127.0,127.0,127.0,-113.0,-87.0,106.0
124.0,128.0,126.0,128.0,128.0,132.0,123.0,128.0,-1.0,102.0,-74.0,127.0,127.0,127.0,-113.0,-87.0,106.0
124.0,128.0,126.0,128.0,128.0,132.0,123.0,128.0,-1.0,102.0,-74.0,127.0,127.0,127.0,-113.0,-87.0,106.0
124.0,128.0,126.0,128.0,128.0,132.0,123.0,128.0,-1.0,102.0,-74.0,127.0,127.0,127.0,-113.0,-87.0,106.0
124.0,128.0,126.0,128.0,128.0,131.0,122.0,128.0,-1.0,102.0,-74.0,127.0,127.0,127.0,-113.0,-87.0,106.0
124.0,128.0,126.0,128.0,128.0,131.0,122.0,128.0,-1.0,102.0,-74.0,127.0,127.0,127.0,-113.0,-87.0,106.0
124.0,128.0,126.0,128.0,128.0,131.0,122.0,128.0,-1.0,102.0,-74.0,127.0,127.0,127.0,-113.0,-87.0,106.0
124.0,128.0,126.0,128.0,128.0,131.0,121.0,128.0,-1.0,102.0,-74.0,127.0,127.0,127.0,-113.0,-87.0,106.0
124.0,128.0,126.0,128.0,128.0,131.0,121.0,128.0,-1.0,102.0,-74.0,127.0,127.0,127.0,-113.0,-87.0,106.0
124.0,128.0,126.0,128.0,128.0,131.0,121.0,128.0,-1.0,102.0,-74.0,127.0,127.0,127.0,-113.0,-87.0,106.0
125.0,129.0,127.0,128.0,127.0,129.0,126.0,129.0,-1.0,102.0,-73.0,127.0,127.0,127.0,-113.0,-87.0,106.0
125.0,129.0,127.0,128.0,127.0,129.0,126.0,129.0,-1.0,102.0,-73.0,127.0,127.0,127.0,-113.0,-87.0,106.0
125.0,129.0,128.0,128.0,127.0,129.0,126.0,129.0,-1.0,102.0,-73.0,127.0,127.0,127.0,-113.0,-87.0,106.0
125.0,129.0,128.0,128.0,127.0,130.0,126.0,129.0,-1.0,102.0,-73.0,127.0,127.0,127.0,-113.0,-87.0,106.0
125.0,129.0,128.0,128.0,127.0,130.0,126.0,129.0,-1.0,102.0,-73.0,127.0,127.0,127.0,-113.0,-87.0,106.0
125.0,129.0,128.0,128.0,127.0,130.0,126.0,129.0,-1.0,102.0,-73.0,127.0,127.0,127.0,-113.0,-87.0,106.0
125.0,129.0,128.0,128.0,127.0,130.0,126.0,129.0,-1.0,102.0,-73.0,127.0,127.0,127.0,-113.0,-87.0,106.0
125.0,129.0,128.0,128.0,127.0,130.0,127.0,129.0,-1.0,102.0,-73.0,127.0,127.0,127.0,-113.0,-87.0,106.0
125.0,129.0,128.0,128.0,127.0,130.0,127.0,129.0,-1.0,102.0,-73.0,127.0,127.0,127.0,-113.0,-87.0,106.0
125.0,129.0,127.0,128.0,127.0,129.0,126.0,129.0,-1.0,102.0,-73.0,127.0,127.0,127.0,-113.0,-87.0,106.0
126.0,131.0,129.0,128.0,128.0,132.0,128.0,133.0,-1.0,102.0,-73.0,127.0,127.0,127.0,-113.0,-87.0,106.0
126.0,131.0,129.0,128.0,128.0,132.0,128.0,133.0,-1.0,102.0,-73.0,127.0,127.0,127.0,-113.0,-87.0,106.0
126.0,131.0,129.0,128.0,128.0,133.0,128.0,133.0,-1.0,102.0,-73.0,127.0,127.0,127.0,-113.0,-87.0,106.0
126.0,131.0,129.0,128.0,128.0,133.0,128.0,133.0,-1.0,102.0,-73.0,127.0,127.0,127.0,-113.0,-87.0,106.0
126.0,131.0,129.0,128.0,127.0,134.0,127.0,133.0,-1.0,102.0,-73.0,127.0,127.0,127.0,-113.0,-87.0,106.0
126.0,131.0,129.0,128.0,127.0,134.0,127.0,134.0,-1.0,102.0,-73.0,127.0,127.0,127.0,-113.0,-87.0,106.0
126.0,131.0,129.0,128.0,127.0,134.0,127.0,134.0,-1.0,102.0,-73.0,127.0,127.0,127.0,-113.0,-87.0,106.0
126.0,131.0,129.0,128.0,127.0,134.0,127.0,134.0,-1.0,102.0,-73.0,127.0,127.0,127.0,-113.0,-87.0,106.0
126.0,131.0,129.0,128.0,128.0,132.0,129.0,133.0,-1.0,102.0,-73.0,127.0,127.0,127.0,-113.0,-87.0,106.0
126.0,131.0,129.0,128.0,128.0,132.0,128.0,133.0,-1.0,102.0,-73.0,127.0,127.0,127.0,-113.0,-87.0,106.0
127.0,131.0,128.0,127.0,127.0,133.0,128.0,135.0,-1.0,102.0,-72.0,127.0,127.0,127.0,-113.0,-87.0,106.0
127.0,131.0,128.0,127.0,127.0,133.0,129.0,135.0,-1.0,102.0,-72.0,127.0,127.0,127.0,-113.0,-87.0,106.0
127.0,131.0,128.0,127.0,127.0,133.0,129.0,135.0,-1.0,102.0,-72.0,127.0,127.0,127.0,-113.0,-87.0,106.0
127.0,131.0,128.0,127.0,127.0,133.0,128.0,135.0,-1.0,102.0,-72.0,127.0,127.0,127.0,-113.0,-87.0,106.0
127.0,131.0,128.0,127.0,127.0,133.0,128.0,135.0,-1.0,102.0,-72.0,127.0,127.0,127.0,-113.0,-87.0,106.0
127.0,131.0,128.0,127.0,127.0,133.0,128.0,135.0,-1.0,102.0,-72.0,127.0,127.0,127.0,-113.0,-87.0,106.0
127.0,131.0,128.0,127.0,127.0,133.0,128.0,135.0,-1.0,102.0,-72.0,127.0,127.0,127.0,-113.0,-87.0,106.0
127.0,131.0,128.0,127.0,126.0,133.0,128.0,135.0,-1.0,102.0,-72.0,127.0,127.0,127.0,-113.0,-87.0,106.0
127.0,131.0,128.0,127.0,126.0,133.0,128.0,135.0,-1.0,102.0,-72.0,127.0,127.0,127.0,-113.0,-87.0,106.0
127.0,131.0,128.0,127.0,127.0,133.0,128.0,135.0,-1.0,102.0,-72.0,127.0,127.0,127.0,-113.0,-87.0,106.0
127.0,131.0,128.0,127.0,127.0,133.0,128.0,134.0,-1.0,102.0,-72.0,127.0,127.0,127.0,-113.0,-87.0,106.0
127.0,131.0,128.0,127.0,127.0,133.0,128.0,134.0,-1.0,102.0,-72.0,127.0,127.0,127.0,-113.0,-87.0,106.0
127.0,131.0,128.0,127.0,127.0,133.0,127.0,134.0,-1.0,102.0,-72.0,127.0,127.0,127.0,-113.0,-87.0,106.0
127.0,131.0,128.0,127.0,127.0,133.0,127.0,134.0,-1.0,102.0,-72.0,127.0,127.0,127.0,-113.0,-87.0,106.0
127.0,131.0,128.0,127.0,127.0,133.0,127.0,134.0,-1.0,102.0,-72.0,127.0,127.0,127.0,-113.0,-87.0,106.0
127.0,131.0,128.0,127.0,127.0,132.0,127.0,134.0,-1.0,102.0,-72.0,127.0,127.0,127.0,-113.0,-87.0,106.0
127.0,131.0,128.0,127.0,127.0,133.0,128.0,134.0,-1.0,102.0,-72.0,127.0,127.0,127.0,-113.0,-87.0,106.0
127.0,131.0,128.0,127.0,127.0,133.0,128.0,134.0,-1.0,102.0,-72.0,127.0,127.0,127.0,-113.0,-87.0,106.0
127.0,131.0,128.0,127.0,127.0,133.0,128.0,134.0,-1.0,102.0,-72.0,127.0,127.0,127.0,-113.0,-87.0,106.0
127.0,131.0,128.0,127.0,127.0,133.0,128.0,134.0,-1.0,102.0,-72.0,127.0,127.0,127.0,-113.0,-87.0,106.0
127.0,131.0,128.0,127.0,128.0,133.0,133.0,133.0,-1.0,103.0,-73.0,127.0,127.0,127.0,-113.0,-87.0,106.0
127.0,131.0,128.0,127.0,127.0,133.0,133.0,133.0,-1.0,103.0,-73.0,127.0,127.0,127.0,-113.0,-87.0,106.0
128.0,131.0,128.0,127.0,127.0,133.0,132.0,133.0,-1.0,103.0,-73.0,127.0,127.0,127.0,-113.0,-87.0,106.0
128.0,131.0,128.0,127.0,128.0,133.0,132.0,133.0,-1.0,103.0,-73.0,127.0,127.0,127.0,-113.0,-87.0,106.0
128.0,131.0,128.0,127.0,128.0,133.0,132.0,133.0,-1.0,103.0,-73.0,127.0,127.0,127.0,-113.0,-87.0,106.0
127.0,131.0,128.0,127.0,127.0,132.0,133.0,133.0,-1.0,103.0,-73.0,127.0,127.0,127.0,-113.0,-87.0,106.0
128.0,131.0,128.0,127.0,127.0,133.0,133.0,133.0,-1.0,103.0,-73.0,127.0,127.0,127.0,-113.0,-87.0,106.0
128.0,131.0,128.0,127.0,127.0,133.0,133.0,133.0,-1.0,103.0,-73.0,127.0,127.0,127.0,-113.0,-87.0,106.0
127.0,131.0,128.0,127.0,128.0,133.0,133.0,133.0,-1.0,103.0,-73.0,127.0,127.0,127.0,-113.0,-87.0,106.0
127.0,131.0,128.0,127.0,128.0,132.0,133.0,133.0,-1.0,103.0,-73.0,127.0,127.0,127.0,-113.0,-87.0,106.0
127.0,131.0,127.0,127.0,127.0,133.0,135.0,131.0,-1.0,105.0,-74.0,127.0,127.0,127.0,-113.0,-87.0,106.0
127.0,131.0,127.0,127.0,127.0,133.0,134.0,132.0,-1.0,105.0,-74.0,127.0,127.0,127.0,-113.0,-87.0,106.0
127.0,131.0,127.0,127.0,127.0,134.0,134.0,132.0,-1.0,105.0,-74.0,127.0,127.0,127.0,-113.0,-87.0,106.0
127.0,131.0,127.0,128.0,127.0,134.0,134.0,132.0,-1.0,105.0,-74.0,127.0,127.0,127.0,-113.0,-87.0,106.0
127.0,131.0,127.0,127.0,127.0,132.0,135.0,132.0,-1.0,105.0,-74.0,127.0,127.0,127.0,-113.0,-87.0,106.0
127.0,131.0,127.0,127.0,127.0,132.0,134.0,132.0,-1.0,105.0,-74.0,127.0,127.0,127.0,-113.0,-87.0,106.0
127.0,131.0,127.0,127.0,127.0,132.0,134.0,132.0,-1.0,105.0,-74.0,127.0,127.0,127.0,-113.0,-87.0,106.0
127.0,131.0,127.0,127.0,127.0,132.0,134.0,132.0,-1.0,105.0,-74.0,127.0,127.0,127.0,-113.0,-87.0,106.0
127.0,131.0,127.0,127.0,127.0,132.0,135.0,132.0,-1.0,105.0,-74.0,127.0,127.0,127.0,-113.0,-87.0,106.0
127.0,131.0,127.0,127.0,127.0,133.0,135.0,132.0,-1.0,105.0,-74.0,127.0,127.0,127.0,-113.0,-87.0,106.0
127.0,131.0,127.0,128.0,127.0,132.0,135.0,132.0,-1.0,105.0,-74.0,127.0,127.0,127.0,-113.0,-87.0,106.0
128.0,131.0,127.0,128.0,127.0,133.0,135.0,132.0,-1.0,105.0,-74.0,127.0,127.0,127.0,-113.0,-87.0,106.0
127.0,131.0,127.0,128.0,127.0,132.0,135.0,131.0,-1.0,105.0,-74.0,127.0,127.0,127.0,-113.0,-87.0,106.0
128.0,131.0,127.0,128.0,128.0,130.0,135.0,132.0,-1.0,105.0,-74.0,127.0,127.0,127.0,-113.0,-87.0,106.0
128.0,131.0,127.0,128.0,128.0,131.0,135.0,132.0,-1.0,105.0,-74.0,127.0,127.0,127.0,-113.0,-87.0,106.0
128.0,131.0,127.0,128.0,128.0,131.0,135.0,132.0,-1.0,105.0,-74.0,127.0,127.0,127.0,-113.0,-87.0,106.0
128.0,131.0,127.0,128.0,128.0,131.0,135.0,132.0,-1.0,105.0,-74.0,127.0,127.0,127.0,-113.0,-87.0,106.0
128.0,131.0,127.0,128.0,128.0,131.0,135.0,132.0,-1.0,105.0,-74.0,127.0,127.0,127.0,-113.0,-87.0,106.0
128.0,131.0,127.0,128.0,128.0,131.0,135.0,132.0,-1.0,105.0,-74.0,127.0,127.0,127.0,-113.0,-87.0,106.0
128.0,131.0,127.0,128.0,128.0,131.0,135.0,131.0,-1.0,105.0,-74.0,127.0,127.0,127.0,-113.0,-87.0,106.0
127.0,130.0,128.0,129.0,128.0,133.0,137.0,131.0,-1.0,106.0,-75.0,127.0,127.0,127.0,-113.0,-87.0,106.0
127.0,130.0,128.0,129.0,127.0,133.0,137.0,131.0,-1.0,106.0,-75.0,127.0,127.0,127.0,-113.0,-87.0,106.0
127.0,131.0,127.0,129.0,128.0,131.0,137.0,131.0,-1.0,106.0,-75.0,127.0,127.0,127.0,-113.0,-87.0,106.0
127.0,130.0,127.0,129.0,128.0,131.0,137.0,131.0,-1.0,106.0,-75.0,127.0,127.0,127.0,-113.0,-87.0,106.0
127.0,130.0,127.0,129.0,127.0,131.0,137.0,131.0,-1.0,106.0,-75.0,127.0,127.0,127.0,-113.0,-87.0,106.0
127.0,130.0,128.0,129.0,128.0,131.0,137.0,131.0,-1.0,106.0,-75.0,127.0,127.0,127.0,-113.0,-87.0,106.0
127.0,130.0,128.0,129.0,128.0,132.0,137.0,131.0,-1.0,106.0,-75.0,127.0,127.0,127.0,-113.0,-87.0,106.0
127.0,130.0,128.0,129.0,128.0,132.0,137.0,131.0,-1.0,106.0,-75.0,127.0,127.0,127.0,-113.0,-87.0,106.0
127.0,130.0,128.0,129.0,128.0,132.0,137.0,131.0,-1.0,106.0,-75.0,127.0,127.0,127.0,-113.0,-87.0,106.0
127.0,130.0,128.0,129.0,128.0,132.0,137.0,131.0,-1.0,106.0,-75.0,127.0,127.0,127.0,-113.0,-87.0,106.0
127.0,130.0,127.0,128.0,126.0,132.0,130.0,130.0,-1.0,106.0,-75.0,127.0,127.0,127.0,-113.0,-87.0,106.0
127.0,130.0,127.0,128.0,126.0,130.0,132.0,130.0,-1.0,106.0,-75.0,127.0,127.0,127.0,-113.0,-87.0,106.0
127.0,130.0,127.0,128.0,126.0,131.0,132.0,130.0,-1.0,106.0,-75.0,127.0,127.0,127.0,-113.0,-87.0,106.0
127.0,130.0,127.0,128.0,126.0,131.0,132.0,130.0,-1.0,106.0,-75.0,127.0,127.0,127.0,-113.0,-87.0,106.0
127.0,130.0,127.0,128.0,126.0,131.0,132.0,130.0,-1.0,106.0,-75.0,127.0,127.0,127.0,-113.0,-87.0,106.0
127.0,130.0,127.0,128.0,126.0,131.0,132.0,130.0,-1.0,106.0,-75.0,127.0,127.0,127.0,-113.0,-87.0,106.0
127.0,130.0,127.0,128.0,126.0,131.0,131.0,130.0,-1.0,106.0,-75.0,127.0,127.0,127.0,-113.0,-87.0,106.0
127.0,130.0,127.0,128.0,126.0,131.0,131.0,130.0,-1.0,106.0,-75.0,127.0,127.0,127.0,-113.0,-87.0,106.0
127.0,130.0,127.0,128.0,126.0,131.0,131.0,130.0,-1.0,106.0,-75.0,127.0,127.0,127.0,-113.0,-87.0,106.0
127.0,130.0,127.0,128.0,126.0,132.0,130.0,130.0,-1.0,106.0,-75.0,127.0,127.0,127.0,-113.0,-87.0,106.0
127.0,130.0,127.0,129.0,127.0,132.0,128.0,131.0,-1.0,105.0,-75.0,127.0,127.0,127.0,-113.0,-87.0,106.0
128.0,130.0,127.0,129.0,127.0,132.0,128.0,131.0,-1.0,105.0,-75.0,127.0,127.0,127.0,-113.0,-87.0,106.0
128.0,130.0,127.0,129.0,127.0,132.0,127.0,131.0,-1.0,105.0,-75.0,127.0,127.0,127.0,-113.0,-87.0,106.0
127.0,130.0,127.0,129.0,127.0,132.0,127.0,131.0,-1.0,105.0,-75.0,127.0,127.0,127.0,-113.0,-87.0,106.0
127.0,130.0,127.0,129.0,127.0,132.0,127.0,131.0,-1.0,105.0,-75.0,127.0,127.0,127.0,-113.0,-87.0,106.0
127.0,130.0,127.0,129.0,127.0,132.0,127.0,131.0,-1.0,105.0,-75.0,127.0,127.0,127.0,-113.0,-87.0,106.0
127.0,130.0,127.0,129.0,127.0,132.0,127.0,131.0,-1.0,105.0,-75.0,127.0,127.0,127.0,-113.0,-87.0,106.0
127.0,130.0,127.0,129.0,127.0,133.0,127.0,131.0,-1.0,105.0,-75.0,127.0,127.0,127.0,-113.0,-87.0,106.0
127.0,130.0,127.0,129.0,127.0,133.0,126.0,131.0,-1.0,105.0,-75.0,127.0,127.0,127.0,-113.0,-87.0,106.0
127.0,130.0,127.0,129.0,127.0,133.0,126.0,131.0,-1.0,105.0,-75.0,127.0,127.0,127.0,-113.0,-87.0,106.0
127.0,130.0,127.0,128.0,126.0,131.0,125.0,130.0,-1.0,105.0,-74.0,127.0,127.0,127.0,-113.0,-87.0,106.0
127.0,130.0,127.0,128.0,126.0,131.0,125.0,130.0,-1.0,105.0,-74.0,127.0,127.0,127.0,-113.0,-87.0,106.0
127.0,130.0,127.0,128.0,126.0,131.0,125.0,130.0,-1.0,105.0,-74.0,127.0,127.0,127.0,-113.0,-87.0,106.0
127.0,130.0,127.0,128.0,126.0,131.0,125.0,130.0,-1.0,105.0,-74.0,127.0,127.0,127.0,-113.0,-87.0,106.0
127.0,130.0,127.0,128.0,126.0,131.0,125.0,130.0,-1.0,105.0,-74.0,127.0,127.0,127.0,-113.0,-87.0,106.0
127.0,130.0,127.0,128.0,126.0,131.0,125.0,130.0,-1.0,105.0,-74.0,127.0,127.0,127.0,-113.0,-87.0,106.0
127.0,130.0,127.0,128.0,126.0,131.0,125.0,130.0,-1.0,105.0,-74.0,127.0,127.0,127.0,-113.0,-87.0,106.0
127.0,130.0,127.0,128.0,126.0,132.0,124.0,131.0,-1.0,105.0,-74.0,127.0,127.0,127.0,-113.0,-87.0,106.0
127.0,130.0,127.0,128.0,126.0,132.0,124.0,131.0,-1.0,105.0,-74.0,127.0,127.0,127.0,-113.0,-87.0,106.0
127.0,130.0,127.0,128.0,127.0,131.0,126.0,130.0,-1.0,105.0,-74.0,127.0,127.0,127.0,-113.0,-87.0,106.0
126.0,130.0,127.0,128.0,126.0,131.0,125.0,130.0,-1.0,105.0,-74.0,127.0,127.0,127.0,-113.0,-87.0,106.0
126.0,130.0,127.0,128.0,126.0,131.0,124.0,130.0,-1.0,105.0,-74.0,127.0,127.0,127.0,-113.0,-87.0,106.0
126.0,130.0,127.0,128.0,127.0,131.0,125.0,130.0,-1.0,105.0,-74.0,127.0,127.0,127.0,-113.0,-87.0,106.0
126.0,130.0,127.0,128.0,127.0,131.0,125.0,130.0,-1.0,105.0,-74.0,127.0,127.0,127.0,-113.0,-87.0,106.0
126.0,129.0,127.0,128.0,127.0,131.0,125.0,130.0,-1.0,105.0,-74.0,127.0,127.0,127.0,-113.0,-87.0,106.0
126.0,130.0,127.0,128.0,127.0,131.0,125.0,130.0,-1.0,105.0,-74.0,127.0,127.0,127.0,-113.0,-87.0,106.0
126.0,130.0,127.0,128.0,127.0,132.0,124.0,131.0,-1.0,105.0,-74.0,127.0,127.0,127.0,-113.0,-87.0,106.0
126.0,130.0,127.0,128.0,127.0,132.0,124.0,131.0,-1.0,105.0,-74.0,127.0,127.0,127.0,-113.0,-87.0,106.0
126.0,129.0,127.0,128.0,127.0,130.0,125.0,130.0,-1.0,105.0,-74.0,127.0,127.0,127.0,-113.0,-87.0,106.0
126.0,130.0,127.0,128.0,126.0,130.0,125.0,130.0,-1.0,105.0,-74.0,127.0,127.0,127.0,-113.0,-87.0,106.0
127.0,130.0,126.0,128.0,126.0,131.0,124.0,130.0,-1.0,105.0,-74.0,127.0,127.0,127.0,-113.0,-87.0,106.0
127.0,130.0,127.0,128.0,126.0,131.0,124.0,130.0,-1.0,105.0,-74.0,127.0,127.0,127.0,-113.0,-87.0,106.0
127.0,130.0,127.0,128.0,126.0,131.0,124.0,130.0,-1.0,105.0,-74.0,127.0,127.0,127.0,-113.0,-87.0,106.0
127.0,130.0,127.0,128.0,126.0,131.0,124.0,130.0,-1.0,105.0,-74.0,127.0,127.0,127.0,-113.0,-87.0,106.0
127.0,130.0,127.0,128.0,126.0,131.0,125.0,130.0,-1.0,105.0,-74.0,127.0,127.0,127.0,-113.0,-87.0,106.0
127.0,130.0,127.0,128.0,126.0,131.0,124.0,130.0,-1.0,105.0,-74.0,127.0,127.0,127.0,-113.0,-87.0,106.0
127.0,129.0,127.0,128.0,126.0,131.0,124.0,130.0,-1.0,105.0,-74.0,127.0,127.0,127.0,-113.0,-87.0,106.0
127.0,130.0,127.0,128.0,126.0,130.0,125.0,130.0,-1.0,105.0,-74.0,127.0,127.0,127.0,-113.0,-87.0,106.0
127.0,130.0,127.0,128.0,126.0,130.0,125.0,130.0,-1.0,105.0,-74.0,127.0,127.0,127.0,-113.0,-87.0,106.0
127.0,130.0,126.0,128.0,126.0,131.0,124.0,130.0,-1.0,105.0,-74.0,127.0,127.0,127.0,-113.0,-87.0,106.0
126.0,129.0,126.0,128.0,126.0,130.0,125.0,130.0,-1.0,105.0,-74.0,127.0,127.0,127.0,-113.0,-87.0,106.0
126.0,129.0,126.0,127.0,126.0,130.0,125.0,130.0,-1.0,105.0,-74.0,127.0,127.0,127.0,-113.0,-87.0,106.0
126.0,129.0,127.0,127.0,126.0,130.0,125.0,130.0,-1.0,105.0,-74.0,127.0,127.0,127.0,-113.0,-87.0,106.0
126.0,129.0,127.0,127.0,126.0,130.0,125.0,130.0,-1.0,105.0,-74.0,127.0,127.0,127.0,-113.0,-87.0,106.0
126.0,129.0,127.0,127.0,126.0,130.0,125.0,130.0,-1.0,105.0,-74.0,127.0,127.0,127.0,-113.0,-87.0,106.0
126.0,129.0,127.0,127.0,126.0,130.0,125.0,130.0,-1.0,105.0,-74.0,127.0,127.0,127.0,-113.0,-87.0,106.0
126.0,129.0,127.0,127.0,126.0,129.0,126.0,129.0,-1.0,105.0,-74.0,127.0,127.0,127.0,-113.0,-87.0,106.0
126.0,129.0,126.0,127.0,126.0,130.0,125.0,129.0,-1.0,105.0,-74.0,127.0,127.0,127.0,-113.0,-87.0,106.0
126.0,129.0,126.0,127.0,126.0,130.0,125.0,130.0,-1.0,105.0,-74.0,127.0,127.0,127.0,-113.0,-87.0,106.0
126.0,129.0,126.0,128.0,126.0,130.0,125.0,130.0,-1.0,105.0,-74.0,127.0,127.0,127.0,-113.0,-87.0,106.0
127.0,129.0,126.0,128.0,126.0,129.0,125.0,129.0,-1.0,105.0,-74.0,127.0,127.0,127.0,-113.0,-87.0,106.0
127.0,129.0,127.0,128.0,126.0,129.0,125.0,129.0,-1.0,105.0,-74.0,127.0,127.0,127.0,-113.0,-87.0,106.0
127.0,129.0,127.0,128.0,126.0,130.0,125.0,129.0,-1.0,105.0,-74.0,127.0,127.0,127.0,-113.0,-87.0,106.0
127.0,129.0,126.0,128.0,126.0,130.0,125.0,129.0,-1.0,105.0,-74.0,127.0,127.0,127.0,-113.0,-87.0,106.0
127.0,129.0,126.0,128.0,126.0,130.0,125.0,130.0,-1.0,105.0,-74.0,127.0,127.0,127.0,-113.0,-87.0,106.0
127.0,129.0,126.0,128.0,126.0,128.0,126.0,129.0,-1.0,105.0,-74.0,127.0,127.0,127.0,-113.0,-87.0,106.0
127.0,129.0,126.0,128.0,126.0,128.0,126.0,129.0,-1.0,105.0,-74.0,127.0,127.0,127.0,-113.0,-87.0,106.0
127.0,129.0,126.0,128.0,126.0,129.0,125.0,129.0,-1.0,105.0,-74.0,127.0,127.0,127.0,-113.0,-87.0,106.0
127.0,129.0,126.0,128.0,126.0,129.0,125.0,130.0,-1.0,105.0,-74.0,127.0,127.0,127.0,-113.0,-87.0,106.0
127.0,129.0,126.0,128.0,126.0,129.0,125.0,129.0,-1.0,105.0,-74.0,127.0,127.0,127.0,-113.0,-87.0,106.0
127.0,129.0,126.0,128.0,126.0,130.0,124.0,129.0,-1.0,105.0,-73.0,127.0,127.0,127.0,-113.0,-87.0,106.0
127.0,129.0,126.0,128.0,126.0,130.0,124.0,129.0,-1.0,105.0,-73.0,127.0,127.0,127.0,-113.0,-87.0,106.0
127.0,129.0,127.0,128.0,126.0,130.0,124.0,129.0,-1.0,105.0,-73.0,127.0,127.0,127.0,-113.0,-87.0,106.0
127.0,129.0,127.0,128.0,126.0,129.0,124.0,129.0,-1.0,105.0,-73.0,127.0,127.0,127.0,-113.0,-87.0,106.0
127.0,129.0,126.0,128.0,126.0,130.0,124.0,129.0,-1.0,105.0,-73.0,127.0,127.0,127.0,-113.0,-87.0,106.0
127.0,129.0,126.0,128.0,126.0,130.0,124.0,129.0,-1.0,105.0,-73.0,127.0,127.0,127.0,-113.0,-87.0,106.0
127.0,129.0,126.0,128.0,126.0,130.0,124.0,129.0,-1.0,105.0,-73.0,127.0,127.0,127.0,-113.0,-87.0,106.0
127.0,129.0,126.0,128.0,126.0,130.0,124.0,129.0,-1.0,105.0,-73.0,127.0,127.0,127.0,-113.0,-87.0,106.0
127.0,129.0,126.0,128.0,126.0,130.0,124.0,129.0,-1.0,105.0,-73.0,127.0,127.0,127.0,-113.0,-87.0,106.0
127.0,129.0,126.0,128.0,126.0,130.0,124.0,129.0,-1.0,105.0,-73.0,127.0,127.0,127.0,-113.0,-87.0,106.0
127.0,129.0,127.0,128.0,126.0,129.0,125.0,129.0,-1.0,105.0,-73.0,127.0,127.0,127.0,-113.0,-87.0,106.0
127.0,129.0,127.0,128.0,126.0,129.0,125.0,129.0,-1.0,105.0,-73.0,127.0,127.0,127.0,-113.0,-87.0,106.0
127.0,129.0,127.0,128.0,126.0,129.0,125.0,129.0,-1.0,105.0,-73.0,127.0,127.0,127.0,-113.0,-87.0,106.0
127.0,129.0,126.0,128.0,126.0,130.0,125.0,129.0,-1.0,105.0,-73.0,127.0,127.0,127.0,-113.0,-87.0,106.0
127.0,129.0,127.0,128.0,126.0,130.0,125.0,129.0,-1.0,105.0,-73.0,127.0,127.0,127.0,-113.0,-87.0,106.0
127.0,129.0,127.0,128.0,126.0,130.0,125.0,129.0,-1.0,105.0,-73.0,127.0,127.0,127.0,-113.0,-87.0,106.0
127.0,129.0,127.0,128.0,126.0,130.0,125.0,129.0,-1.0,105.0,-73.0,127.0,127.0,127.0,-113.0,-87.0,106.0
127.0,129.0,127.0,128.0,126.0,130.0,125.0,129.0,-1.0,105.0,-73.0,127.0,127.0,127.0,-113.0,-87.0,106.0
127.0,129.0,127.0,128.0,126.0,129.0,125.0,129.0,-1.0,105.0,-73.0,127.0,127.0,127.0,-113.0,-87.0,106.0
127.0,129.0,127.0,128.0,126.0,129.0,125.0,129.0,-1.0,105.0,-73.0,127.0,127.0,127.0,-113.0,-87.0,106.0
127.0,129.0,127.0,128.0,126.0,130.0,125.0,129.0,-1.0,105.0,-73.0,127.0,127.0,127.0,-114.0,-87.0,106.0
126.0,129.0,127.0,128.0,126.0,130.0,125.0,129.0,-1.0,105.0,-73.0,127.0,127.0,127.0,-114.0,-87.0,106.0
127.0,129.0,126.0,128.0,126.0,130.0,125.0,129.0,-1.0,105.0,-73.0,127.0,127.0,127.0,-114.0,-87.0,106.0
127.0,129.0,126.0,128.0,126.0,130.0,125.0,129.0,-1.0,105.0,-73.0,127.0,127.0,127.0,-114.0,-87.0,106.0
127.0,129.0,127.0,128.0,126.0,130.0,125.0,129.0,-1.0,105.0,-73.0,127.0,127.0,127.0,-114.0,-87.0,106.0
127.0,129.0,127.0,128.0,126.0,130.0,125.0,129.0,-1.0,105.0,-73.0,127.0,127.0,127.0,-114.0,-87.0,106.0
127.0,129.0,127.0,128.0,126.0,130.0,125.0,129.0,-1.0,105.0,-73.0,127.0,127.0,127.0,-114.0,-87.0,106.0
127.0,129.0,127.0,128.0,126.0,130.0,125.0,129.0,-1.0,105.0,-73.0,127.0,127.0,127.0,-114.0,-87.0,106.0
127.0,129.0,127.0,128.0,126.0,130.0,125.0,129.0,-1.0,105.0,-73.0,127.0,127.0,127.0,-114.0,-87.0,106.0
127.0,129.0,127.0,128.0,126.0,130.0,125.0,129.0,-1.0,105.0,-73.0,127.0,127.0,127.0,-114.0,-87.0,106.0
127.0,129.0,127.0,128.0,126.0,130.0,125.0,129.0,-1.0,105.0,-73.0,127.0,127.0,127.0,-114.0,-87.0,106.0
127.0,129.0,127.0,128.0,126.0,130.0,125.0,129.0,-1.0,105.0,-73.0,127.0,127.0,127.0,-114.0,-87.0,106.0
127.0,129.0,127.0,128.0,126.0,130.0,125.0,129.0,-1.0,105.0,-73.0,127.0,127.0,127.0,-114.0,-87.0,106.0
127.0,129.0,127.0,128.0,126.0,130.0,125.0,129.0,-1.0,105.0,-73.0,127.0,127.0,127.0,-114.0,-87.0,106.0
127.0,129.0,126.0,128.0,126.0,131.0,125.0,129.0,-1.0,105.0,-73.0,127.0,127.0,127.0,-114.0,-87.0,106.0
127.0,129.0,126.0,128.0,126.0,130.0,125.0,129.0,-1.0,105.0,-73.0,127.0,127.0,127.0,-114.0,-87.0,106.0
127.0,129.0,127.0,128.0,126.0,130.0,125.0,129.0,-1.0,105.0,-73.0,127.0,127.0,127.0,-114.0,-87.0,106.0
127.0,129.0,127.0,128.0,126.0,130.0,125.0,129.0,-1.0,105.0,-73.0,127.0,127.0,127.0,-114.0,-87.0,106.0
127.0,129.0,127.0,128.0,126.0,130.0,125.0,129.0,-1.0,105.0,-73.0,127.0,127.0,127.0,-114.0,-87.0,106.0
127.0,129.0,127.0,128.0,126.0,130.0,125.0,129.0,-1.0,105.0,-73.0,127.0,127.0,127.0,-114.0,-87.0,106.0
127.0,128.0,126.0,127.0,126.0,129.0,126.0,129.0,-1.0,105.0,-73.0,127.0,127.0,127.0,-114.0,-87.0,106.0
127.0,129.0,127.0,128.0,126.0,129.0,126.0,129.0,-1.0,105.0,-73.0,127.0,127.0,127.0,-114.0,-87.0,106.0
127.0,128.0,127.0,127.0,126.0,129.0,126.0,129.0,-1.0,105.0,-73.0,127.0,127.0,127.0,-114.0,-87.0,106.0
127.0,129.0,126.0,128.0,126.0,129.0,125.0,129.0,-1.0,105.0,-73.0,127.0,127.0,127.0,-114.0,-87.0,106.0
127.0,129.0,126.0,128.0,126.0,129.0,125.0,129.0,-1.0,105.0,-73.0,127.0,127.0,127.0,-114.0,-87.0,106.0
127.0,129.0,126.0,128.0,126.0,129.0,125.0,129.0,-1.0,105.0,-73.0,127.0,127.0,127.0,-114.0,-87.0,106.0
127.0,129.0,127.0,128.0,126.0,129.0,125.0,129.0,-1.0,105.0,-73.0,127.0,127.0,127.0,-114.0,-87.0,106.0
127.0,129.0,127.0,128.0,126.0,129.0,125.0,129.0,-1.0,105.0,-73.0,127.0,127.0,127.0,-114.0,-87.0,106.0
127.0,129.0,127.0,128.0,126.0,129.0,125.0,129.0,-1.0,105.0,-73.0,127.0,127.0,127.0,-114.0,-87.0,106.0
127.0,128.0,127.0,128.0,126.0,129.0,125.0,129.0,-1.0,105.0,-73.0,127.0,127.0,127.0,-114.0,-87.0,106.0
127.0,129.0,127.0,128.0,126.0,129.0,126.0,129.0,-1.0,105.0,-73.0,127.0,127.0,127.0,-114.0,-87.0,106.0
127.0,129.0,127.0,128.0,126.0,129.0,126.0,129.0,-1.0,105.0,-73.0,127.0,127.0,127.0,-114.0,-87.0,106.0
127.0,129.0,127.0,128.0,126.0,130.0,126.0,129.0,-1.0,105.0,-73.0,127.0,127.0,127.0,-114.0,-87.0,106.0
127.0,129.0,127.0,128.0,126.0,130.0,125.0,129.0,-1.0,105.0,-73.0,127.0,127.0,127.0,-114.0,-87.0,106.0
127.0,129.0,127.0,128.0,126.0,130.0,125.0,129.0,-1.0,105.0,-73.0,127.0,127.0,127.0,-114.0,-87.0,106.0
127.0,129.0,127.0,128.0,126.0,130.0,125.0,129.0,-1.0,105.0,-73.0,127.0,127.0,127.0,-114.0,-87.0,106.0
127.0,129.0,127.0,128.0,126.0,130.0,125.0,129.0,-1.0,105.0,-73.0,127.0,127.0,127.0,-114.0,-87.0,106.0
127.0,129.0,127.0,128.0,126.0,130.0,125.0,129.0,-1.0,105.0,-73.0,127.0,127.0,127.0,-114.0,-87.0,106.0
127.0,129.0,127.0,128.0,126.0,130.0,125.0,129.0,-1.0,105.0,-73.0,127.0,127.0,127.0,-114.0,-87.0,106.0
127.0,129.0,127.0,128.0,126.0,129.0,126.0,129.0,-1.0,105.0,-73.0,127.0,127.0,127.0,-114.0,-87.0,106.0
127.0,129.0,127.0,127.0,126.0,129.0,126.0,129.0,-1.0,105.0,-73.0,127.0,127.0,127.0,-114.0,-87.0,106.0
127.0,129.0,126.0,127.0,126.0,129.0,126.0,129.0,-1.0,105.0,-73.0,127.0,127.0,127.0,-114.0,-87.0,106.0
127.0,129.0,126.0,128.0,126.0,129.0,126.0,129.0,-1.0,105.0,-73.0,127.0,127.0,127.0,-114.0,-87.0,106.0
127.0,129.0,127.0,128.0,126.0,129.0,126.0,129.0,-1.0,105.0,-73.0,127.0,127.0,127.0,-114.0,-87.0,106.0
127.0,129.0,127.0,128.0,126.0,129.0,126.0,129.0,-1.0,105.0,-73.0,127.0,127.0,127.0,-114.0,-87.0,106.0
127.0,129.0,127.0,128.0,126.0,129.0,126.0,129.0,-1.0,105.0,-73.0,127.0,127.0,127.0,-114.0,-87.0,106.0
127.0,129.0,127.0,128.0,126.0,129.0,126.0,129.0,-1.0,105.0,-73.0,127.0,127.0,127.0,-114.0,-87.0,106.0
127.0,129.0,127.0,127.0,126.0,129.0,126.0,129.0,-1.0,105.0,-73.0,127.0,127.0,127.0,-114.0,-87.0,106.0
127.0,129.0,127.0,127.0,126.0,129.0,126.0,129.0,-1.0,105.0,-73.0,127.0,127.0,127.0,-114.0,-87.0,106.0
127.0,129.0,127.0,127.0,126.0,129.0,126.0,129.0,-1.0,105.0,-73.0,127.0,127.0,127.0,-114.0,-87.0,106.0
127.0,128.0,127.0,128.0,126.0,129.0,125.0,129.0,-1.0,105.0,-73.0,127.0,127.0,127.0,-114.0,-87.0,106.0
127.0,129.0,126.0,128.0,126.0,130.0,125.0,129.0,-1.0,105.0,-73.0,127.0,127.0,127.0,-114.0,-87.0,106.0
127.0,129.0,126.0,128.0,126.0,130.0,125.0,129.0,-1.0,105.0,-73.0,127.0,127.0,127.0,-114.0,-87.0,106.0
127.0,128.0,127.0,128.0,126.0,130.0,125.0,129.0,-1.0,105.0,-73.0,127.0,127.0,127.0,-114.0,-87.0,106.0
127.0,129.0,127.0,128.0,126.0,130.0,125.0,129.0,-1.0,105.0,-73.0,127.0,127.0,127.0,-114.0,-87.0,106.0
127.0,128.0,127.0,128.0,126.0,130.0,125.0,129.0,-1.0,105.0,-73.0,127.0,127.0,127.0,-114.0,-87.0,106.0
127.0,128.0,127.0,128.0,126.0,130.0,125.0,129.0,-1.0,105.0,-73.0,127.0,127.0,127.0,-114.0,-87.0,106.0
127.0,128.0,127.0,128.0,126.0,129.0,126.0,129.0,-1.0,105.0,-73.0,127.0,127.0,127.0,-114.0,-87.0,106.0
127.0,128.0,127.0,128.0,126.0,129.0,126.0,129.0,-1.0,105.0,-73.0,127.0,127.0,127.0,-114.0,-87.0,106.0
127.0,128.0,127.0,128.0,126.0,129.0,126.0,129.0,-1.0,105.0,-73.0,127.0,127.0,127.0,-114.0,-87.0,106.0
126.0,128.0,127.0,127.0,126.0,128.0,128.0,128.0,-1.0,105.0,-73.0,127.0,127.0,127.0,-114.0,-87.0,106.0
126.0,128.0,127.0,127.0,126.0,128.0,127.0,129.0,-1.0,105.0,-73.0,127.0,127.0,127.0,-114.0,-87.0,106.0
126.0,128.0,127.0,128.0,126.0,128.0,127.0,128.0,-1.0,105.0,-73.0,127.0,127.0,127.0,-114.0,-87.0,106.0
126.0,128.0,127.0,127.0,126.0,129.0,127.0,129.0,-1.0,105.0,-73.0,127.0,127.0,127.0,-114.0,-87.0,106.0
126.0,128.0,127.0,128.0,126.0,129.0,127.0,129.0,-1.0,105.0,-73.0,127.0,127.0,127.0,-114.0,-87.0,106.0
126.0,128.0,127.0,128.0,126.0,129.0,126.0,129.0,-1.0,105.0,-73.0,127.0,127.0,127.0,-114.0,-87.0,106.0
127.0,128.0,127.0,128.0,126.0,128.0,128.0,128.0,-1.0,105.0,-73.0,127.0,127.0,127.0,-114.0,-87.0,106.0
127.0,128.0,127.0,127.0,126.0,128.0,128.0,128.0,-1.0,105.0,-73.0,127.0,127.0,127.0,-114.0,-87.0,106.0
127.0,128.0,127.0,127.0,126.0,128.0,128.0,128.0,-1.0,105.0,-73.0,127.0,127.0,127.0,-114.0,-87.0,106.0
126.0,128.0,127.0,128.0,126.0,128.0,128.0,129.0,-1.0,105.0,-73.0,127.0,127.0,127.0,-114.0,-87.0,106.0
126.0,128.0,127.0,127.0,126.0,129.0,127.0,128.0,-1.0,105.0,-74.0,127.0,127.0,127.0,-115.0,-87.0,106.0
126.0,128.0,127.0,127.0,126.0,129.0,127.0,128.0,-1.0,105.0,-74.0,127.0,127.0,127.0,-115.0,-87.0,106.0
126.0,128.0,127.0,127.0,126.0,129.0,128.0,128.0,-1.0,105.0,-74.0,127.0,127.0,127.0,-115.0,-87.0,106.0
126.0,128.0,127.0,127.0,126.0,129.0,128.0,128.0,-1.0,105.0,-74.0,127.0,127.0,127.0,-115.0,-87.0,106.0
126.0,128.0,127.0,127.0,126.0,129.0,128.0,128.0,-1.0,105.0,-74.0,127.0,127.0,127.0,-115.0,-87.0,106.0
126.0,128.0,127.0,127.0,126.0,129.0,128.0,128.0,-1.0,105.0,-74.0,127.0,127.0,127.0,-115.0,-87.0,106.0
126.0,128.0,126.0,128.0,126.0,129.0,127.0,128.0,-1.0,105.0,-74.0,127.0,127.0,127.0,-115.0,-87.0,106.0
126.0,128.0,126.0,127.0,126.0,129.0,127.0,128.0,-1.0,105.0,-74.0,127.0,127.0,127.0,-115.0,-87.0,106.0
126.0,128.0,126.0,127.0,126.0,129.0,127.0,128.0,-1.0,105.0,-74.0,127.0,127.0,127.0,-115.0,-87.0,106.0
126.0,128.0,127.0,127.0,126.0,129.0,127.0,128.0,-1.0,105.0,-74.0,127.0,127.0,127.0,-115.0,-87.0,106.0
127.0,128.0,127.0,127.0,126.0,130.0,129.0,129.0,-1.0,106.0,-74.0,127.0,127.0,127.0,-115.0,-87.0,106.0
127.0,128.0,127.0,127.0,126.0,130.0,129.0,129.0,-1.0,106.0,-74.0,127.0,127.0,127.0,-115.0,-87.0,106.0
127.0,128.0,127.0,127.0,126.0,130.0,129.0,129.0,-1.0,106.0,-74.0,127.0,127.0,127.0,-115.0,-87.0,106.0
127.0,128.0,127.0,127.0,126.0,130.0,129.0,129.0,-1.0,106.0,-74.0,127.0,127.0,127.0,-115.0,-87.0,106.0
127.0,128.0,127.0,127.0,126.0,129.0,130.0,128.0,-1.0,106.0,-74.0,127.0,127.0,127.0,-115.0,-87.0,106.0
127.0,128.0,126.0,127.0,126.0,130.0,130.0,129.0,-1.0,106.0,-74.0,127.0,127.0,127.0,-115.0,-87.0,106.0
127.0,128.0,127.0,127.0,126.0,130.0,129.0,129.0,-1.0,106.0,-74.0,127.0,127.0,127.0,-115.0,-87.0,106.0
127.0,128.0,127.0,127.0,126.0,130.0,129.0,129.0,-1.0,106.0,-74.0,127.0,127.0,127.0,-115.0,-87.0,106.0
127.0,128.0,127.0,127.0,126.0,130.0,129.0,129.0,-1.0,106.0,-74.0,127.0,127.0,127.0,-115.0,-87.0,106.0
127.0,128.0,127.0,127.0,126.0,130.0,129.0,129.0,-1.0,106.0,-74.0,127.0,127.0,127.0,-115.0,-87.0,106.0
127.0,128.0,127.0,127.0,126.0,130.0,129.0,129.0,-1.0,106.0,-74.0,127.0,127.0,127.0,-115.0,-87.0,106.0
127.0,128.0,127.0,127.0,126.0,129.0,129.0,129.0,-1.0,106.0,-74.0,127.0,127.0,127.0,-115.0,-87.0,106.0
127.0,128.0,127.0,127.0,126.0,129.0,129.0,129.0,-1.0,106.0,-74.0,127.0,127.0,127.0,-115.0,-87.0,106.0
127.0,128.0,127.0,127.0,126.0,129.0,129.0,129.0,-1.0,106.0,-74.0,127.0,127.0,127.0,-115.0,-87.0,106.0
127.0,129.0,127.0,127.0,126.0,130.0,128.0,129.0,-1.0,106.0,-74.0,127.0,127.0,127.0,-115.0,-87.0,106.0
127.0,129.0,127.0,127.0,126.0,130.0,128.0,129.0,-1.0,106.0,-74.0,127.0,127.0,127.0,-115.0,-87.0,106.0
127.0,129.0,127.0,127.0,126.0,130.0,128.0,129.0,-1.0,106.0,-74.0,127.0,127.0,127.0,-115.0,-87.0,106.0
127.0,129.0,127.0,127.0,126.0,130.0,129.0,129.0,-1.0,106.0,-74.0,127.0,127.0,127.0,-115.0,-87.0,106.0
127.0,128.0,127.0,127.0,126.0,130.0,129.0,129.0,-1.0,106.0,-74.0,127.0,127.0,127.0,-115.0,-87.0,106.0
127.0,129.0,127.0,127.0,126.0,130.0,129.0,129.0,-1.0,106.0,-74.0,127.0,127.0,127.0,-115.0,-87.0,106.0
127.0,128.0,127.0,127.0,126.0,129.0,128.0,128.0,-1.0,106.0,-74.0,127.0,127.0,127.0,-115.0,-87.0,106.0
127.0,128.0,127.0,127.0,126.0,129.0,128.0,128.0,-1.0,106.0,-74.0,127.0,127.0,127.0,-115.0,-87.0,106.0
127.0,128.0,127.0,127.0,126.0,129.0,129.0,128.0,-1.0,106.0,-74.0,127.0,127.0,127.0,-115.0,-87.0,106.0
127.0,128.0,127.0,127.0,126.0,129.0,129.0,128.0,-1.0,106.0,-74.0,127.0,127.0,127.0,-115.0,-87.0,106.0
127.0,128.0,127.0,127.0,126.0,129.0,128.0,128.0,-1.0,106.0,-74.0,127.0,127.0,127.0,-115.0,-87.0,106.0
127.0,128.0,127.0,127.0,126.0,129.0,128.0,128.0,-1.0,106.0,-74.0,127.0,127.0,127.0,-115.0,-87.0,106.0
127.0,128.0,127.0,127.0,126.0,129.0,128.0,128.0,-1.0,106.0,-74.0,127.0,127.0,127.0,-115.0,-87.0,106.0
127.0,128.0,127.0,127.0,126.0,129.0,128.0,128.0,-1.0,106.0,-74.0,127.0,127.0,127.0,-115.0,-87.0,106.0
127.0,128.0,127.0,127.0,126.0,129.0,128.0,128.0,-1.0,106.0,-74.0,127.0,127.0,127.0,-115.0,-87.0,106.0
127.0,128.0,127.0,127.0,126.0,129.0,128.0,128.0,-1.0,106.0,-74.0,127.0,127.0,127.0,-115.0,-87.0,106.0
127.0,128.0,127.0,127.0,126.0,129.0,127.0,128.0,-1.0,106.0,-74.0,127.0,127.0,127.0,-115.0,-87.0,106.0
127.0,128.0,127.0,127.0,126.0,129.0,127.0,128.0,-1.0,106.0,-74.0,127.0,127.0,127.0,-115.0,-87.0,106.0
127.0,128.0,127.0,127.0,126.0,129.0,127.0,128.0,-1.0,106.0,-74.0,127.0,127.0,127.0,-115.0,-87.0,106.0
127.0,128.0,126.0,127.0,126.0,129.0,127.0,129.0,-1.0,106.0,-74.0,127.0,127.0,127.0,-115.0,-87.0,106.0
127.0,128.0,126.0,127.0,126.0,129.0,127.0,128.0,-1.0,106.0,-74.0,127.0,127.0,127.0,-115.0,-87.0,106.0
127.0,128.0,127.0,127.0,126.0,129.0,127.0,128.0,-1.0,106.0,-74.0,127.0,127.0,127.0,-115.0,-87.0,106.0
127.0,128.0,127.0,127.0,126.0,129.0,127.0,128.0,-1.0,106.0,-74.0,127.0,127.0,127.0,-115.0,-87.0,106.0
127.0,128.0,127.0,127.0,126.0,129.0,127.0,128.0,-1.0,106.0,-74.0,127.0,127.0,127.0,-115.0,-87.0,106.0
127.0,128.0,127.0,127.0,126.0,129.0,127.0,128.0,-1.0,106.0,-74.0,127.0,127.0,127.0,-115.0,-87.0,106.0
127.0,128.0,127.0,127.0,126.0,129.0,127.0,128.0,-1.0,106.0,-74.0,127.0,127.0,127.0,-115.0,-87.0,106.0
127.0,128.0,127.0,127.0,126.0,128.0,127.0,128.0,-1.0,106.0,-74.0,127.0,127.0,127.0,-115.0,-87.0,106.0
127.0,128.0,127.0,127.0,126.0,128.0,127.0,128.0,-1.0,106.0,-74.0,127.0,127.0,127.0,-115.0,-87.0,106.0
127.0,128.0,127.0,127.0,126.0,128.0,126.0,128.0,-1.0,106.0,-74.0,127.0,127.0,127.0,-115.0,-87.0,106.0
127.0,128.0,127.0,127.0,126.0,128.0,126.0,128.0,-1.0,106.0,-74.0,127.0,127.0,127.0,-115.0,-87.0,106.0
127.0,128.0,127.0,127.0,126.0,128.0,126.0,128.0,-1.0,106.0,-74.0,127.0,127.0,127.0,-115.0,-87.0,106.0
127.0,128.0,127.0,127.0,126.0,128.0,127.0,128.0,-1.0,106.0,-74.0,127.0,127.0,127.0,-115.0,-87.0,106.0
127.0,128.0,127.0,127.0,126.0,128.0,126.0,128.0,-1.0,106.0,-74.0,127.0,127.0,127.0,-115.0,-87.0,106.0
127.0,128.0,127.0,127.0,126.0,129.0,127.0,128.0,-1.0,106.0,-74.0,127.0,127.0,127.0,-115.0,-87.0,106.0
126.0,128.0,127.0,127.0,126.0,129.0,127.0,128.0,-1.0,106.0,-74.0,127.0,127.0,127.0,-115.0,-87.0,106.0
127.0,128.0,127.0,127.0,126.0,129.0,127.0,128.0,-1.0,106.0,-74.0,127.0,127.0,127.0,-115.0,-87.0,106.0
127.0,128.0,127.0,128.0,126.0,128.0,127.0,128.0,-1.0,106.0,-74.0,127.0,127.0,127.0,-115.0,-87.0,106.0
127.0,128.0,127.0,128.0,126.0,129.0,126.0,128.0,-1.0,106.0,-74.0,127.0,127.0,127.0,-115.0,-87.0,106.0
127.0,128.0,127.0,128.0,126.0,129.0,126.0,128.0,-1.0,106.0,-74.0,127.0,127.0,127.0,-115.0,-87.0,106.0
127.0,128.0,127.0,128.0,126.0,129.0,126.0,128.0,-1.0,106.0,-74.0,127.0,127.0,127.0,-115.0,-87.0,106.0
127.0,128.0,127.0,128.0,126.0,129.0,126.0,128.0,-1.0,106.0,-74.0,127.0,127.0,127.0,-115.0,-87.0,106.0
127.0,128.0,127.0,128.0,126.0,129.0,126.0,128.0,-1.0,106.0,-74.0,127.0,127.0,127.0,-115.0,-87.0,106.0
127.0,128.0,127.0,128.0,126.0,129.0,126.0,128.0,-1.0,106.0,-74.0,127.0,127.0,127.0,-115.0,-87.0,106.0
127.0,128.0,127.0,128.0,127.0,129.0,126.0,128.0,-1.0,106.0,-74.0,127.0,127.0,127.0,-115.0,-87.0,106.0
127.0,128.0,127.0,128.0,127.0,129.0,126.0,128.0,-1.0,106.0,-74.0,127.0,127.0,127.0,-115.0,-87.0,106.0
127.0,128.0,127.0,128.0,126.0,128.0,127.0,128.0,-1.0,106.0,-74.0,127.0,127.0,127.0,-115.0,-87.0,106.0
127.0,128.0,127.0,127.0,126.0,127.0,127.0,128.0,-1.0,106.0,-74.0,127.0,127.0,127.0,-115.0,-87.0,106.0
127.0,128.0,127.0,127.0,126.0,127.0,127.0,128.0,-1.0,106.0,-74.0,127.0,127.0,127.0,-115.0,-87.0,106.0
127.0,128.0,127.0,127.0,126.0,127.0,127.0,128.0,-1.0,106.0,-74.0,127.0,127.0,127.0,-115.0,-87.0,106.0
127.0,128.0,127.0,127.0,126.0,127.0,127.0,128.0,-1.0,106.0,-74.0,127.0,127.0,127.0,-115.0,-87.0,106.0
127.0,128.0,127.0,127.0,126.0,128.0,127.0,128.0,-1.0,106.0,-74.0,127.0,127.0,127.0,-115.0,-87.0,106.0
127.0,128.0,127.0,127.0,126.0,128.0,127.0,128.0,-1.0,106.0,-74.0,127.0,127.0,127.0,-115.0,-87.0,106.0
127.0,128.0,127.0,127.0,126.0,128.0,127.0,128.0,-1.0,106.0,-74.0,127.0,127.0,127.0,-115.0,-87.0,106.0
127.0,128.0,127.0,127.0,126.0,128.0,127.0,128.0,-1.0,106.0,-74.0,127.0,127.0,127.0,-115.0,-87.0,106.0
127.0,128.0,127.0,127.0,126.0,127.0,127.0,128.0,-1.0,106.0,-74.0,127.0,127.0,127.0,-115.0,-87.0,106.0
127.0,128.0,127.0,127.0,126.0,127.0,127.0,128.0,-1.0,106.0,-74.0,127.0,127.0,127.0,-115.0,-87.0,106.0
127.0,128.0,126.0,127.0,126.0,129.0,125.0,129.0,-1.0,106.0,-74.0,127.0,127.0,127.0,-115.0,-87.0,106.0
127.0,128.0,126.0,127.0,126.0,129.0,125.0,129.0,-1.0,106.0,-74.0,127.0,127.0,127.0,-115.0,-87.0,106.0
127.0,128.0,127.0,127.0,126.0,129.0,125.0,129.0,-1.0,106.0,-74.0,127.0,127.0,127.0,-115.0,-87.0,106.0
127.0,128.0,127.0,127.0,127.0,129.0,125.0,129.0,-1.0,106.0,-74.0,127.0,127.0,127.0,-115.0,-87.0,106.0
127.0,128.0,127.0,127.0,127.0,129.0,125.0,129.0,-1.0,106.0,-74.0,127.0,127.0,127.0,-115.0,-87.0,106.0
127.0,128.0,127.0,127.0,127.0,129.0,126.0,128.0,-1.0,106.0,-74.0,127.0,127.0,127.0,-115.0,-87.0,106.0
127.0,128.0,127.0,127.0,127.0,128.0,126.0,128.0,-1.0,106.0,-74.0,127.0,127.0,127.0,-115.0,-87.0,106.0
127.0,128.0,126.0,127.0,126.0,129.0,126.0,129.0,-1.0,106.0,-74.0,127.0,127.0,127.0,-115.0,-87.0,106.0
127.0,128.0,126.0,127.0,126.0,129.0,126.0,129.0,-1.0,106.0,-74.0,127.0,127.0,127.0,-115.0,-87.0,106.0
127.0,128.0,126.0,127.0,126.0,129.0,126.0,129.0,-1.0,106.0,-74.0,127.0,127.0,127.0,-115.0,-87.0,106.0
127.0,128.0,127.0,128.0,126.0,128.0,125.0,129.0,-1.0,106.0,-74.0,127.0,127.0,127.0,-115.0,-87.0,106.0
127.0,128.0,127.0,128.0,127.0,128.0,125.0,129.0,-1.0,106.0,-74.0,127.0,127.0,127.0,-115.0,-87.0,106.0
127.0,128.0,127.0,128.0,127.0,128.0,125.0,128.0,-1.0,106.0,-74.0,127.0,127.0,127.0,-115.0,-87.0,106.0
127.0,128.0,127.0,128.0,127.0,128.0,125.0,128.0,-1.0,106.0,-74.0,127.0,127.0,127.0,-115.0,-87.0,106.0
127.0,128.0,127.0,128.0,127.0,128.0,125.0,129.0,-1.0,106.0,-74.0,127.0,127.0,127.0,-115.0,-87.0,106.0
127.0,128.0,127.0,128.0,127.0,128.0,126.0,128.0,-1.0,106.0,-74.0,127.0,127.0,127.0,-115.0,-87.0,106.0
127.0,128.0,127.0,128.0,127.0,128.0,126.0,128.0,-1.0,106.0,-74.0,127.0,127.0,127.0,-115.0,-87.0,106.0
127.0,128.0,127.0,128.0,127.0,128.0,126.0,128.0,-1.0,106.0,-74.0,127.0,127.0,127.0,-115.0,-87.0,106.0
127.0,128.0,127.0,128.0,126.0,128.0,126.0,128.0,-1.0,106.0,-74.0,127.0,127.0,127.0,-115.0,-87.0,106.0
127.0,128.0,127.0,128.0,126.0,128.0,125.0,129.0,-1.0,106.0,-74.0,127.0,127.0,127.0,-115.0,-87.0,106.0
127.0,128.0,126.0,127.0,126.0,128.0,124.0,128.0,-1.0,106.0,-73.0,127.0,127.0,127.0,-115.0,-87.0,106.0
127.0,128.0,127.0,127.0,126.0,128.0,124.0,128.0,-1.0,106.0,-73.0,127.0,127.0,127.0,-115.0,-87.0,106.0
127.0,128.0,127.0,127.0,126.0,128.0,124.0,128.0,-1.0,106.0,-73.0,127.0,127.0,127.0,-115.0,-87.0,106.0
127.0,128.0,127.0,127.0,126.0,128.0,124.0,128.0,-1.0,106.0,-73.0,127.0,127.0,127.0,-115.0,-87.0,106.0
127.0,128.0,127.0,127.0,126.0,128.0,124.0,128.0,-1.0,106.0,-73.0,127.0,127.0,127.0,-115.0,-87.0,106.0
127.0,128.0,127.0,127.0,126.0,127.0,125.0,128.0,-1.0,106.0,-73.0,127.0,127.0,127.0,-115.0,-87.0,106.0
127.0,128.0,127.0,127.0,126.0,128.0,125.0,128.0,-1.0,106.0,-73.0,127.0,127.0,127.0,-115.0,-87.0,106.0
127.0,128.0,126.0,127.0,126.0,128.0,125.0,128.0,-1.0,106.0,-73.0,127.0,127.0,127.0,-115.0,-87.0,106.0
127.0,128.0,126.0,127.0,126.0,128.0,124.0,128.0,-1.0,106.0,-73.0,127.0,127.0,127.0,-115.0,-87.0,106.0
127.0,128.0,126.0,127.0,126.0,128.0,124.0,128.0,-1.0,106.0,-73.0,127.0,127.0,127.0,-115.0,-87.0,106.0
127.0,128.0,127.0,128.0,127.0,129.0,124.0,129.0,-1.0,106.0,-73.0,127.0,127.0,127.0,-115.0,-87.0,106.0
127.0,128.0,127.0,128.0,126.0,129.0,125.0,129.0,-1.0,106.0,-73.0,127.0,127.0,127.0,-115.0,-87.0,106.0
127.0,128.0,127.0,128.0,127.0,129.0,125.0,129.0,-1.0,106.0,-73.0,127.0,127.0,127.0,-115.0,-87.0,106.0
127.0,128.0,127.0,128.0,127.0,129.0,125.0,129.0,-1.0,106.0,-73.0,127.0,127.0,127.0,-115.0,-87.0,106.0
127.0,128.0,127.0,128.0,127.0,129.0,125.0,129.0,-1.0,106.0,-73.0,127.0,127.0,127.0,-115.0,-87.0,106.0
127.0,128.0,127.0,128.0,127.0,129.0,125.0,129.0,-1.0,106.0,-73.0,127.0,127.0,127.0,-115.0,-87.0,106.0
127.0,128.0,127.0,128.0,127.0,129.0,125.0,129.0,-1.0,106.0,-73.0,127.0,127.0,127.0,-115.0,-87.0,106.0
127.0,128.0,127.0,128.0,126.0,130.0,125.0,129.0,-1.0,106.0,-73.0,127.0,127.0,127.0,-115.0,-87.0,106.0
127.0,128.0,127.0,128.0,126.0,130.0,124.0,129.0,-1.0,106.0,-73.0,127.0,127.0,127.0,-115.0,-87.0,106.0
127.0,128.0,127.0,128.0,127.0,130.0,124.0,129.0,-1.0,106.0,-73.0,127.0,127.0,127.0,-115.0,-87.0,106.0
127.0,128.0,127.0,127.0,126.0,129.0,124.0,128.0,-1.0,106.0,-73.0,127.0,127.0,127.0,-115.0,-87.0,106.0
127.0,128.0,127.0,127.0,126.0,129.0,124.0,128.0,-1.0,106.0,-73.0,127.0,127.0,127.0,-115.0,-87.0,106.0
127.0,128.0,127.0,127.0,126.0,128.0,125.0,128.0,-1.0,106.0,-73.0,127.0,127.0,127.0,-115.0,-87.0,106.0
127.0,128.0,127.0,127.0,126.0,129.0,125.0,128.0,-1.0,106.0,-73.0,127.0,127.0,127.0,-115.0,-87.0,106.0
127.0,128.0,127.0,127.0,126.0,129.0,125.0,128.0,-1.0,106.0,-73.0,127.0,127.0,127.0,-115.0,-87.0,106.0
127.0,128.0,127.0,127.0,126.0,128.0,125.0,128.0,-1.0,106.0,-73.0,127.0,127.0,127.0,-115.0,-87.0,106.0
127.0,128.0,127.0,127.0,126.0,129.0,125.0,128.0,-1.0,106.0,-73.0,127.0,127.0,127.0,-115.0,-87.0,106.0
127.0,128.0,127.0,127.0,126.0,129.0,124.0,129.0,-1.0,106.0,-73.0,127.0,127.0,127.0,-115.0,-87.0,106.0
127.0,128.0,127.0,127.0,126.0,129.0,124.0,128.0,-1.0,106.0,-73.0,127.0,127.0,127.0,-115.0,-87.0,106.0
127.0,128.0,127.0,127.0,126.0,129.0,124.0,128.0,-1.0,106.0,-73.0,127.0,127.0,127.0,-115.0,-87.0,106.0
127.0,128.0,127.0,127.0,127.0,128.0,125.0,128.0,-1.0,106.0,-73.0,127.0,127.0,127.0,-115.0,-87.0,106.0
127.0,128.0,127.0,128.0,127.0,128.0,125.0,128.0,-1.0,106.0,-73.0,127.0,127.0,127.0,-115.0,-87.0,106.0
127.0,128.0,127.0,127.0,126.0,128.0,126.0,128.0,-1.0,106.0,-73.0,127.0,127.0,127.0,-115.0,-87.0,106.0
127.0,128.0,127.0,127.0,126.0,128.0,126.0,128.0,-1.0,106.0,-73.0,127.0,127.0,127.0,-115.0,-87.0,106.0
127.0,128.0,127.0,127.0,126.0,128.0,126.0,128.0,-1.0,106.0,-73.0,127.0,127.0,127.0,-115.0,-87.0,106.0
127.0,128.0,126.0,127.0,126.0,129.0,125.0,128.0,-1.0,106.0,-73.0,127.0,127.0,127.0,-115.0,-87.0,106.0
127.0,128.0,126.0,127.0,126.0,129.0,125.0,128.0,-1.0,106.0,-73.0,127.0,127.0,127.0,-115.0,-87.0,106.0
127.0,128.0,126.0,127.0,126.0,129.0,125.0,128.0,-1.0,106.0,-73.0,127.0,127.0,127.0,-115.0,-87.0,106.0
127.0,128.0,127.0,127.0,126.0,129.0,125.0,128.0,-1.0,106.0,-73.0,127.0,127.0,127.0,-115.0,-87.0,106.0
127.0,128.0,127.0,127.0,126.0,128.0,125.0,128.0,-1.0,106.0,-73.0,127.0,127.0,127.0,-115.0,-87.0,106.0
127.0,128.0,127.0,128.0,126.0,129.0,125.0,128.0,-1.0,106.0,-73.0,127.0,127.0,127.0,-115.0,-87.0,106.0
127.0,128.0,127.0,127.0,126.0,129.0,127.0,128.0,-1.0,106.0,-73.0,127.0,127.0,127.0,-115.0,-87.0,106.0
127.0,128.0,127.0,127.0,126.0,129.0,127.0,128.0,-1.0,106.0,-73.0,127.0,127.0,127.0,-115.0,-87.0,106.0
127.0,128.0,127.0,127.0,126.0,129.0,127.0,128.0,-1.0,106.0,-73.0,127.0,127.0,127.0,-115.0,-87.0,106.0
127.0,128.0,127.0,127.0,126.0,129.0,126.0,128.0,-1.0,106.0,-73.0,127.0,127.0,127.0,-115.0,-87.0,106.0
127.0,128.0,127.0,127.0,126.0,129.0,126.0,128.0,-1.0,106.0,-73.0,127.0,127.0,127.0,-115.0,-87.0,106.0
127.0,128.0,127.0,127.0,126.0,129.0,126.0,128.0,-1.0,106.0,-73.0,127.0,127.0,127.0,-115.0,-87.0,106.0
127.0,128.0,127.0,127.0,126.0,129.0,126.0,128.0,-1.0,106.0,-73.0,127.0,127.0,127.0,-115.0,-87.0,106.0
127.0,128.0,126.0,127.0,126.0,129.0,125.0,128.0,-1.0,106.0,-73.0,127.0,127.0,127.0,-115.0,-87.0,106.0
127.0,128.0,127.0,128.0,126.0,129.0,125.0,128.0,-1.0,106.0,-73.0,127.0,127.0,127.0,-115.0,-87.0,106.0
127.0,128.0,127.0,127.0,127.0,128.0,127.0,127.0,-1.0,106.0,-73.0,127.0,127.0,127.0,-115.0,-87.0,106.0
127.0,128.0,127.0,127.0,127.0,128.0,127.0,127.0,-1.0,106.0,-73.0,127.0,127.0,127.0,-115.0,-87.0,106.0
127.0,128.0,127.0,127.0,127.0,128.0,127.0,128.0,-1.0,106.0,-73.0,127.0,127.0,127.0,-115.0,-87.0,106.0
127.0,128.0,127.0,127.0,127.0,128.0,127.0,128.0,-1.0,106.0,-73.0,127.0,127.0,127.0,-115.0,-87.0,106.0
127.0,128.0,127.0,127.0,127.0,128.0,127.0,128.0,-1.0,106.0,-73.0,127.0,127.0,127.0,-115.0,-87.0,106.0
127.0,128.0,127.0,127.0,127.0,128.0,127.0,128.0,-1.0,106.0,-73.0,127.0,127.0,127.0,-115.0,-87.0,106.0
127.0,128.0,127.0,127.0,127.0,128.0,127.0,128.0,-1.0,106.0,-73.0,127.0,127.0,127.0,-115.0,-87.0,106.0
127.0,128.0,127.0,127.0,127.0,128.0,127.0,128.0,-1.0,106.0,-73.0,127.0,127.0,127.0,-115.0,-87.0,106.0
127.0,128.0,127.0,127.0,127.0,128.0,127.0,128.0,-1.0,106.0,-73.0,127.0,127.0,127.0,-115.0,-87.0,106.0
127.0,128.0,127.0,127.0,127.0,128.0,127.0,128.0,-1.0,106.0,-73.0,127.0,127.0,127.0,-115.0,-87.0,106.0
127.0,128.0,127.0,127.0,127.0,128.0,126.0,128.0,-1.0,106.0,-73.0,127.0,127.0,127.0,-115.0,-87.0,106.0
127.0,128.0,127.0,127.0,126.0,128.0,126.0,128.0,-1.0,106.0,-73.0,127.0,127.0,127.0,-115.0,-87.0,106.0
127.0,128.0,127.0,127.0,126.0,128.0,126.0,128.0,-1.0,106.0,-73.0,127.0,127.0,127.0,-115.0,-87.0,106.0
127.0,128.0,127.0,127.0,126.0,129.0,126.0,128.0,-1.0,106.0,-73.0,127.0,127.0,127.0,-115.0,-87.0,106.0
127.0,128.0,127.0,127.0,126.0,129.0,125.0,128.0,-1.0,106.0,-73.0,127.0,127.0,127.0,-115.0,-87.0,106.0
127.0,128.0,127.0,127.0,126.0,128.0,125.0,128.0,-1.0,106.0,-73.0,127.0,127.0,127.0,-115.0,-87.0,106.0
127.0,128.0,127.0,127.0,126.0,128.0,125.0,128.0,-1.0,106.0,-73.0,127.0,127.0,127.0,-115.0,-87.0,106.0
127.0,128.0,127.0,127.0,126.0,128.0,125.0,128.0,-1.0,106.0,-73.0,127.0,127.0,127.0,-115.0,-87.0,106.0
127.0,128.0,127.0,127.0,126.0,128.0,125.0,128.0,-1.0,106.0,-73.0,127.0,127.0,127.0,-115.0,-87.0,106.0
127.0,128.0,127.0,127.0,126.0,129.0,126.0,128.0,-1.0,106.0,-73.0,127.0,127.0,127.0,-115.0,-87.0,106.0
127.0,128.0,127.0,127.0,126.0,128.0,125.0,128.0,-1.0,106.0,-73.0,127.0,127.0,127.0,-115.0,-87.0,106.0
127.0,128.0,127.0,127.0,126.0,128.0,125.0,128.0,-1.0,106.0,-73.0,127.0,127.0,127.0,-115.0,-87.0,106.0
127.0,128.0,127.0,127.0,126.0,128.0,124.0,128.0,-1.0,106.0,-73.0,127.0,127.0,127.0,-115.0,-87.0,106.0
127.0,128.0,127.0,127.0,126.0,129.0,124.0,128.0,-1.0,106.0,-73.0,127.0,127.0,127.0,-115.0,-87.0,106.0
127.0,128.0,127.0,127.0,126.0,129.0,124.0,128.0,-1.0,106.0,-73.0,127.0,127.0,127.0,-115.0,-87.0,106.0
127.0,128.0,127.0,127.0,126.0,128.0,124.0,128.0,-1.0,106.0,-73.0,127.0,127.0,127.0,-115.0,-87.0,106.0
127.0,128.0,127.0,127.0,126.0,128.0,124.0,128.0,-1.0,106.0,-73.0,127.0,127.0,127.0,-115.0,-87.0,106.0
127.0,128.0,127.0,127.0,126.0,129.0,124.0,128.0,-1.0,106.0,-73.0,127.0,127.0,127.0,-115.0,-87.0,106.0
127.0,128.0,127.0,127.0,126.0,128.0,125.0,128.0,-1.0,106.0,-73.0,127.0,127.0,127.0,-115.0,-87.0,106.0
127.0,128.0,127.0,127.0,126.0,128.0,125.0,128.0,-1.0,106.0,-73.0,127.0,127.0,127.0,-115.0,-87.0,106.0
127.0,128.0,127.0,127.0,126.0,128.0,125.0,128.0,-1.0,106.0,-73.0,127.0,127.0,127.0,-115.0,-87.0,106.0
127.0,128.0,127.0,127.0,126.0,128.0,125.0,128.0,-1.0,106.0,-73.0,127.0,127.0,127.0,-115.0,-87.0,106.0
127.0,128.0,127.0,127.0,126.0,129.0,125.0,128.0,-1.0,106.0,-73.0,127.0,127.0,127.0,-115.0,-87.0,106.0
127.0,128.0,127.0,127.0,126.0,129.0,125.0,128.0,-1.0,106.0,-73.0,127.0,127.0,127.0,-115.0,-87.0,106.0
127.0,128.0,127.0,127.0,126.0,129.0,125.0,128.0,-1.0,106.0,-73.0,127.0,127.0,127.0,-115.0,-87.0,106.0
127.0,128.0,127.0,127.0,126.0,129.0,125.0,128.0,-1.0,106.0,-73.0,127.0,127.0,127.0,-115.0,-87.0,106.0
127.0,128.0,127.0,127.0,126.0,129.0,125.0,128.0,-1.0,106.0,-73.0,127.0,127.0,127.0,-115.0,-87.0,106.0
127.0,128.0,127.0,127.0,126.0,128.0,125.0,128.0,-1.0,106.0,-73.0,127.0,127.0,127.0,-115.0,-87.0,106.0
127.0,128.0,127.0,127.0,126.0,128.0,125.0,128.0,-1.0,106.0,-73.0,127.0,127.0,127.0,-115.0,-87.0,106.0
127.0,128.0,127.0,127.0,126.0,128.0,125.0,128.0,-1.0,106.0,-73.0,127.0,127.0,127.0,-115.0,-87.0,106.0
127.0,128.0,127.0,127.0,126.0,128.0,126.0,128.0,-1.0,106.0,-73.0,127.0,127.0,127.0,-115.0,-87.0,106.0
127.0,128.0,127.0,127.0,126.0,128.0,125.0,128.0,-1.0,106.0,-73.0,127.0,127.0,127.0,-115.0,-87.0,106.0
127.0,128.0,127.0,127.0,126.0,128.0,125.0,128.0,-1.0,106.0,-73.0,127.0,127.0,127.0,-115.0,-87.0,106.0
127.0,128.0,127.0,127.0,127.0,128.0,125.0,128.0,-1.0,106.0,-73.0,127.0,127.0,127.0,-115.0,-87.0,106.0
127.0,128.0,127.0,127.0,127.0,128.0,125.0,128.0,-1.0,106.0,-73.0,127.0,127.0,127.0,-115.0,-87.0,106.0
127.0,128.0,127.0,127.0,127.0,128.0,125.0,128.0,-1.0,106.0,-73.0,127.0,127.0,127.0,-115.0,-87.0,106.0
127.0,128.0,127.0,127.0,126.0,128.0,126.0,128.0,-1.0,106.0,-73.0,127.0,127.0,127.0,-115.0,-87.0,106.0
127.0,128.0,127.0,127.0,127.0,128.0,126.0,128.0,-1.0,106.0,-73.0,127.0,127.0,127.0,-115.0,-87.0,106.0
127.0,128.0,127.0,127.0,127.0,128.0,126.0,128.0,-1.0,106.0,-73.0,127.0,127.0,127.0,-115.0,-87.0,106.0
127.0,128.0,127.0,127.0,127.0,128.0,126.0,128.0,-1.0,106.0,-73.0,127.0,127.0,127.0,-115.0,-87.0,106.0
127.0,128.0,127.0,127.0,126.0,127.0,125.0,128.0,-1.0,106.0,-73.0,127.0,127.0,127.0,-115.0,-87.0,106.0
127.0,129.0,127.0,127.0,126.0,127.0,125.0,128.0,-1.0,106.0,-73.0,127.0,127.0,127.0,-115.0,-87.0,106.0
127.0,128.0,127.0,127.0,126.0,127.0,125.0,128.0,-1.0,106.0,-73.0,127.0,127.0,127.0,-115.0,-87.0,106.0
127.0,128.0,127.0,127.0,126.0,127.0,125.0,128.0,-1.0,106.0,-73.0,127.0,127.0,127.0,-115.0,-87.0,106.0
127.0,128.0,127.0,127.0,126.0,127.0,124.0,128.0,-1.0,106.0,-73.0,127.0,127.0,127.0,-115.0,-87.0,106.0
127.0,128.0,127.0,127.0,126.0,128.0,125.0,128.0,-1.0,106.0,-73.0,127.0,127.0,127.0,-115.0,-87.0,106.0
127.0,128.0,127.0,127.0,126.0,127.0,125.0,128.0,-1.0,106.0,-73.0,127.0,127.0,127.0,-115.0,-87.0,106.0
127.0,128.0,127.0,127.0,126.0,127.0,125.0,128.0,-1.0,106.0,-73.0,127.0,127.0,127.0,-115.0,-87.0,106.0
127.0,128.0,127.0,127.0,126.0,127.0,125.0,128.0,-1.0,106.0,-73.0,127.0,127.0,127.0,-115.0,-87.0,106.0
127.0,128.0,127.0,127.0,126.0,127.0,125.0,128.0,-1.0,106.0,-73.0,127.0,127.0,127.0,-115.0,-87.0,106.0
127.0,128.0,126.0,127.0,126.0,128.0,125.0,128.0,-1.0,106.0,-73.0,127.0,127.0,127.0,-115.0,-87.0,106.0
127.0,128.0,127.0,127.0,126.0,129.0,125.0,128.0,-1.0,106.0,-73.0,127.0,127.0,127.0,-115.0,-87.0,106.0
127.0,128.0,127.0,127.0,126.0,128.0,125.0,128.0,-1.0,106.0,-73.0,127.0,127.0,127.0,-115.0,-87.0,106.0
127.0,128.0,127.0,127.0,126.0,128.0,125.0,128.0,-1.0,106.0,-73.0,127.0,127.0,127.0,-115.0,-87.0,106.0
127.0,128.0,127.0,127.0,126.0,128.0,125.0,128.0,-1.0,106.0,-73.0,127.0,127.0,127.0,-115.0,-87.0,106.0
127.0,128.0,127.0,127.0,126.0,128.0,125.0,128.0,-1.0,106.0,-73.0,127.0,127.0,127.0,-115.0,-87.0,106.0
127.0,128.0,127.0,127.0,126.0,128.0,125.0,128.0,-1.0,106.0,-73.0,127.0,127.0,127.0,-115.0,-87.0,106.0
127.0,128.0,127.0,127.0,126.0,128.0,125.0,128.0,-1.0,106.0,-73.0,127.0,127.0,127.0,-115.0,-87.0,106.0
127.0,128.0,127.0,127.0,126.0,128.0,125.0,128.0,-1.0,106.0,-73.0,127.0,127.0,127.0,-115.0,-87.0,106.0
127.0,128.0,126.0,127.0,126.0,128.0,125.0,128.0,-1.0,106.0,-73.0,127.0,127.0,127.0,-115.0,-87.0,106.0
127.0,128.0,126.0,127.0,126.0,129.0,125.0,128.0,-1.0,106.0,-74.0,127.0,127.0,127.0,-115.0,-87.0,106.0
127.0,128.0,126.0,127.0,126.0,129.0,125.0,128.0,-1.0,106.0,-74.0,127.0,127.0,127.0,-115.0,-87.0,106.0
127.0,128.0,127.0,127.0,127.0,129.0,125.0,128.0,-1.0,106.0,-74.0,127.0,127.0,127.0,-115.0,-87.0,106.0
127.0,128.0,126.0,127.0,126.0,129.0,125.0,128.0,-1.0,106.0,-74.0,127.0,127.0,127.0,-115.0,-87.0,106.0
127.0,128.0,126.0,127.0,126.0,129.0,125.0,128.0,-1.0,106.0,-74.0,127.0,127.0,127.0,-115.0,-87.0,106.0
127.0,128.0,127.0,127.0,126.0,129.0,125.0,128.0,-1.0,106.0,-74.0,127.0,127.0,127.0,-115.0,-87.0,106.0
127.0,128.0,127.0,127.0,126.0,128.0,125.0,128.0,-1.0,106.0,-74.0,127.0,127.0,127.0,-115.0,-87.0,106.0
127.0,128.0,127.0,127.0,126.0,128.0,125.0,128.0,-1.0,106.0,-74.0,127.0,127.0,127.0,-115.0,-87.0,106.0
127.0,128.0,126.0,127.0,126.0,129.0,125.0,128.0,-1.0,106.0,-74.0,127.0,127.0,127.0,-115.0,-87.0,106.0
127.0,128.0,126.0,127.0,126.0,129.0,125.0,128.0,-1.0,106.0,-74.0,127.0,127.0,127.0,-115.0,-87.0,106.0
127.0,127.0,127.0,127.0,126.0,127.0,127.0,128.0,-1.0,106.0,-74.0,127.0,127.0,127.0,-115.0,-87.0,106.0
127.0,127.0,127.0,127.0,126.0,128.0,126.0,128.0,-1.0,106.0,-74.0,127.0,127.0,127.0,-115.0,-87.0,106.0
127.0,127.0,127.0,127.0,126.0,127.0,128.0,127.0,-1.0,106.0,-74.0,127.0,127.0,127.0,-115.0,-87.0,106.0
127.0,127.0,127.0,127.0,126.0,127.0,128.0,127.0,-1.0,106.0,-74.0,127.0,127.0,127.0,-115.0,-87.0,106.0
127.0,127.0,127.0,127.0,126.0,127.0,128.0,127.0,-1.0,106.0,-74.0,127.0,127.0,127.0,-115.0,-87.0,106.0
127.0,127.0,127.0,127.0,126.0,127.0,128.0,128.0,-1.0,106.0,-74.0,127.0,127.0,127.0,-115.0,-87.0,106.0
127.0,127.0,127.0,127.0,126.0,127.0,128.0,128.0,-1.0,106.0,-74.0,127.0,127.0,127.0,-115.0,-87.0,106.0
