emg1,emg2,emg3,emg4,emg5,emg6,emg7,emg8,acc_x,acc_y,acc_z,gyro_x,gyro_y,gyro_z,angle_pitch,angle_roll,angle_yaw
127.0,127.0,128.0,128.0,126.0,149.0,126.0,128.0,32.0,-92.0,-72.0,127.0,127.0,127.0,106.0,89.0,-104.0
127.0,127.0,128.0,128.0,126.0,149.0,126.0,127.0,32.0,-92.0,-72.0,127.0,127.0,127.0,106.0,89.0,-104.0
127.0,127.0,128.0,128.0,127.0,150.0,126.0,128.0,32.0,-92.0,-72.0,127.0,127.0,127.0,106.0,89.0,-104.0
127.0,127.0,128.0,128.0,127.0,150.0,126.0,128.0,32.0,-92.0,-72.0,127.0,127.0,127.0,106.0,89.0,-104.0
127.0,127.0,128.0,128.0,127.0,150.0,126.0,128.0,32.0,-92.0,-72.0,127.0,127.0,127.0,106.0,89.0,-104.0
127.0,128.0,128.0,128.0,127.0,150.0,126.0,128.0,32.0,-92.0,-72.0,127.0,127.0,127.0,106.0,89.0,-104.0
127.0,128.0,128.0,128.0,127.0,149.0,127.0,128.0,32.0,-92.0,-72.0,127.0,127.0,127.0,106.0,89.0,-104.0
127.0,127.0,128.0,128.0,127.0,149.0,126.0,128.0,32.0,-92.0,-72.0,127.0,127.0,127.0,106.0,89.0,-104.0
127.0,127.0,128.0,129.0,127.0,149.0,126.0,127.0,32.0,-92.0,-72.0,127.0,127.0,127.0,106.0,89.0,-104.0
127.0,127.0,128.0,129.0,127.0,149.0,126.0,128.0,32.0,-92.0,-72.0,127.0,127.0,127.0,106.0,89.0,-104.0
127.0,127.0,128.0,129.0,127.0,149.0,126.0,127.0,32.0,-92.0,-72.0,127.0,127.0,127.0,106.0,89.0,-104.0
127.0,128.0,128.0,129.0,127.0,150.0,126.0,128.0,32.0,-92.0,-72.0,127.0,127.0,127.0,106.0,89.0,-104.0
127.0,128.0,127.0,129.0,127.0,150.0,126.0,128.0,32.0,-92.0,-72.0,127.0,127.0,127.0,106.0,89.0,-104.0
127.0,128.0,127.0,129.0,127.0,150.0,127.0,128.0,32.0,-92.0,-72.0,127.0,127.0,127.0,106.0,89.0,-104.0
127.0,128.0,127.0,129.0,127.0,150.0,127.0,128.0,32.0,-92.0,-72.0,127.0,127.0,127.0,106.0,89.0,-104.0
127.0,127.0,128.0,128.0,127.0,150.0,126.0,127.0,32.0,-92.0,-72.0,127.0,127.0,127.0,106.0,89.0,-104.0
127.0,127.0,128.0,129.0,127.0,150.0,126.0,127.0,32.0,-92.0,-72.0,127.0,127.0,127.0,106.0,89.0,-104.0
127.0,127.0,128.0,129.0,127.0,150.0,126.0,127.0,32.0,-92.0,-72.0,127.0,127.0,127.0,106.0,89.0,-104.0
127.0,127.0,127.0,128.0,126.0,148.0,127.0,128.0,32.0,-93.0,-72.0,127.0,127.0,127.0,106.0,89.0,-104.0
127.0,127.0,127.0,128.0,126.0,148.0,127.0,128.0,32.0,-93.0,-72.0,127.0,127.0,127.0,106.0,89.0,-104.0
127.0,128.0,127.0,128.0,126.0,149.0,127.0,128.0,32.0,-93.0,-72.0,127.0,127.0,127.0,106.0,89.0,-104.0
127.0,128.0,127.0,128.0,126.0,149.0,127.0,128.0,32.0,-93.0,-72.0,127.0,127.0,127.0,106.0,89.0,-104.0
127.0,128.0,127.0,128.0,126.0,149.0,127.0,128.0,32.0,-93.0,-72.0,127.0,127.0,127.0,106.0,89.0,-104.0
127.0,128.0,127.0,128.0,126.0,149.0,127.0,128.0,32.0,-93.0,-72.0,127.0,127.0,127.0,106.0,89.0,-104.0
127.0,127.0,127.0,128.0,127.0,149.0,126.0,128.0,32.0,-93.0,-72.0,127.0,127.0,127.0,106.0,89.0,-104.0
127.0,127.0,127.0,128.0,126.0,149.0,126.0,128.0,32.0,-93.0,-72.0,127.0,127.0,127.0,106.0,89.0,-104.0
127.0,127.0,127.0,128.0,126.0,149.0,127.0,128.0,32.0,-93.0,-72.0,127.0,127.0,127.0,106.0,89.0,-104.0
127.0,127.0,127.0,128.0,126.0,148.0,127.0,128.0,32.0,-93.0,-72.0,127.0,127.0,127.0,106.0,89.0,-104.0
127.0,127.0,127.0,128.0,127.0,148.0,126.0,128.0,32.0,-93.0,-72.0,127.0,127.0,127.0,106.0,89.0,-104.0
127.0,128.0,127.0,128.0,127.0,147.0,126.0,128.0,32.0,-93.0,-72.0,127.0,127.0,127.0,106.0,89.0,-104.0
127.0,127.0,127.0,128.0,127.0,147.0,126.0,128.0,32.0,-93.0,-72.0,127.0,127.0,127.0,106.0,89.0,-104.0
127.0,128.0,127.0,128.0,127.0,147.0,126.0,128.0,32.0,-93.0,-72.0,127.0,127.0,127.0,106.0,89.0,-104.0
127.0,127.0,127.0,128.0,127.0,147.0,127.0,128.0,32.0,-93.0,-72.0,127.0,127.0,127.0,106.0,89.0,-104.0
127.0,127.0,127.0,128.0,127.0,148.0,126.0,127.0,32.0,-93.0,-72.0,127.0,127.0,127.0,106.0,89.0,-104.0
127.0,127.0,127.0,128.0,127.0,148.0,126.0,128.0,32.0,-93.0,-72.0,127.0,127.0,127.0,106.0,89.0,-104.0
127.0,127.0,127.0,128.0,127.0,148.0,126.0,128.0,32.0,-93.0,-72.0,127.0,127.0,127.0,106.0,89.0,-104.0
127.0,127.0,127.0,128.0,127.0,148.0,126.0,128.0,32.0,-93.0,-72.0,127.0,127.0,127.0,106.0,89.0,-104.0
127.0,127.0,127.0,128.0,127.0,148.0,126.0,128.0,32.0,-93.0,-72.0,127.0,127.0,127.0,106.0,89.0,-104.0
127.0,128.0,126.0,128.0,126.0,148.0,127.0,128.0,32.0,-93.0,-72.0,127.0,127.0,127.0,106.0,89.0,-104.0
127.0,127.0,126.0,128.0,126.0,147.0,127.0,128.0,32.0,-93.0,-72.0,127.0,127.0,127.0,106.0,89.0,-104.0
127.0,128.0,126.0,128.0,126.0,147.0,127.0,128.0,32.0,-93.0,-72.0,127.0,127.0,127.0,106.0,89.0,-104.0
127.0,127.0,126.0,128.0,126.0,146.0,127.0,128.0,32.0,-93.0,-72.0,127.0,127.0,127.0,106.0,89.0,-104.0
127.0,128.0,126.0,128.0,126.0,149.0,127.0,128.0,32.0,-93.0,-72.0,127.0,127.0,127.0,106.0,89.0,-104.0
127.0,128.0,126.0,128.0,126.0,149.0,126.0,128.0,32.0,-93.0,-72.0,127.0,127.0,127.0,106.0,89.0,-104.0
127.0,128.0,126.0,128.0,126.0,149.0,127.0,128.0,32.0,-93.0,-72.0,127.0,127.0,127.0,106.0,89.0,-104.0
127.0,128.0,126.0,128.0,126.0,148.0,127.0,128.0,32.0,-93.0,-72.0,127.0,127.0,127.0,106.0,89.0,-104.0
127.0,128.0,126.0,128.0,126.0,148.0,127.0,128.0,32.0,-93.0,-72.0,127.0,127.0,127.0,106.0,89.0,-104.0
127.0,128.0,126.0,128.0,126.0,148.0,127.0,128.0,32.0,-93.0,-72.0,127.0,127.0,127.0,106.0,89.0,-104.0
127.0,128.0,127.0,128.0,127.0,147.0,127.0,128.0,32.0,-93.0,-72.0,127.0,127.0,127.0,106.0,89.0,-104.0
127.0,128.0,127.0,129.0,127.0,146.0,127.0,128.0,32.0,-93.0,-72.0,127.0,127.0,127.0,106.0,89.0,-104.0
127.0,128.0,127.0,129.0,127.0,146.0,127.0,128.0,32.0,-93.0,-72.0,127.0,127.0,127.0,106.0,89.0,-104.0
127.0,128.0,127.0,128.0,127.0,147.0,126.0,128.0,32.0,-93.0,-72.0,127.0,127.0,127.0,106.0,89.0,-104.0
127.0,128.0,127.0,128.0,127.0,147.0,126.0,128.0,32.0,-93.0,-72.0,127.0,127.0,127.0,106.0,89.0,-104.0
127.0,128.0,127.0,128.0,127.0,147.0,126.0,128.0,32.0,-93.0,-72.0,127.0,127.0,127.0,106.0,89.0,-104.0
127.0,128.0,127.0,128.0,127.0,147.0,126.0,128.0,32.0,-93.0,-72.0,127.0,127.0,127.0,106.0,89.0,-104.0
127.0,128.0,127.0,128.0,127.0,148.0,126.0,128.0,32.0,-93.0,-72.0,127.0,127.0,127.0,106.0,89.0,-104.0
127.0,128.0,127.0,128.0,127.0,147.0,127.0,128.0,32.0,-93.0,-72.0,127.0,127.0,127.0,106.0,89.0,-104.0
127.0,128.0,127.0,129.0,127.0,147.0,127.0,128.0,32.0,-93.0,-72.0,127.0,127.0,127.0,106.0,89.0,-104.0
127.0,128.0,127.0,129.0,127.0,146.0,127.0,128.0,32.0,-93.0,-72.0,127.0,127.0,127.0,106.0,89.0,-104.0
127.0,128.0,127.0,129.0,127.0,146.0,127.0,128.0,32.0,-93.0,-72.0,127.0,127.0,127.0,106.0,89.0,-104.0
127.0,127.0,127.0,128.0,127.0,145.0,126.0,128.0,32.0,-93.0,-72.0,127.0,127.0,127.0,106.0,89.0,-104.0
127.0,127.0,127.0,128.0,127.0,146.0,126.0,128.0,32.0,-93.0,-72.0,127.0,127.0,127.0,106.0,89.0,-104.0
127.0,127.0,127.0,128.0,127.0,146.0,126.0,128.0,32.0,-93.0,-72.0,127.0,127.0,127.0,106.0,89.0,-104.0
127.0,127.0,127.0,128.0,127.0,145.0,126.0,128.0,32.0,-93.0,-72.0,127.0,127.0,127.0,106.0,89.0,-104.0
127.0,127.0,127.0,128.0,127.0,145.0,126.0,128.0,32.0,-93.0,-72.0,127.0,127.0,127.0,106.0,89.0,-104.0
127.0,127.0,127.0,128.0,127.0,145.0,126.0,128.0,32.0,-93.0,-72.0,127.0,127.0,127.0,106.0,89.0,-104.0
127.0,127.0,127.0,128.0,127.0,145.0,126.0,128.0,32.0,-93.0,-72.0,127.0,127.0,127.0,106.0,89.0,-104.0
127.0,128.0,127.0,129.0,127.0,146.0,126.0,128.0,32.0,-93.0,-72.0,127.0,127.0,127.0,106.0,89.0,-104.0
127.0,127.0,128.0,128.0,126.0,143.0,126.0,128.0,32.0,-93.0,-72.0,127.0,127.0,127.0,106.0,89.0,-104.0
127.0,127.0,128.0,128.0,127.0,144.0,126.0,128.0,32.0,-93.0,-72.0,127.0,127.0,127.0,106.0,89.0,-104.0
127.0,127.0,128.0,128.0,127.0,144.0,126.0,128.0,32.0,-93.0,-72.0,127.0,127.0,127.0,106.0,89.0,-104.0
127.0,127.0,128.0,128.0,127.0,144.0,126.0,128.0,32.0,-93.0,-72.0,127.0,127.0,127.0,106.0,89.0,-104.0
127.0,127.0,128.0,128.0,127.0,143.0,126.0,128.0,32.0,-93.0,-72.0,127.0,127.0,127.0,106.0,89.0,-104.0
127.0,127.0,128.0,128.0,126.0,143.0,126.0,128.0,32.0,-93.0,-72.0,127.0,127.0,127.0,106.0,89.0,-104.0
127.0,127.0,128.0,128.0,126.0,143.0,126.0,128.0,32.0,-93.0,-72.0,127.0,127.0,127.0,106.0,89.0,-104.0
127.0,127.0,128.0,128.0,126.0,143.0,126.0,128.0,32.0,-93.0,-72.0,127.0,127.0,127.0,106.0,89.0,-104.0
127.0,127.0,128.0,128.0,126.0,143.0,126.0,128.0,32.0,-93.0,-72.0,127.0,127.0,127.0,106.0,89.0,-104.0
127.0,127.0,128.0,128.0,126.0,143.0,126.0,128.0,32.0,-93.0,-72.0,127.0,127.0,127.0,106.0,89.0,-104.0
127.0,127.0,127.0,128.0,126.0,145.0,127.0,128.0,32.0,-93.0,-72.0,127.0,127.0,127.0,106.0,89.0,-104.0
127.0,127.0,127.0,128.0,126.0,145.0,127.0,128.0,32.0,-93.0,-72.0,127.0,127.0,127.0,106.0,89.0,-104.0
127.0,127.0,127.0,128.0,126.0,145.0,127.0,128.0,32.0,-93.0,-72.0,127.0,127.0,127.0,106.0,89.0,-104.0
127.0,127.0,127.0,128.0,126.0,145.0,127.0,128.0,32.0,-93.0,-72.0,127.0,127.0,127.0,106.0,89.0,-104.0
127.0,128.0,127.0,128.0,127.0,146.0,127.0,128.0,32.0,-93.0,-72.0,127.0,127.0,127.0,106.0,89.0,-104.0
127.0,128.0,127.0,128.0,127.0,146.0,127.0,128.0,32.0,-93.0,-72.0,127.0,127.0,127.0,106.0,89.0,-104.0
127.0,128.0,127.0,128.0,127.0,146.0,127.0,128.0,32.0,-93.0,-72.0,127.0,127.0,127.0,106.0,89.0,-104.0
127.0,128.0,127.0,128.0,127.0,146.0,127.0,128.0,32.0,-93.0,-72.0,127.0,127.0,127.0,106.0,89.0,-104.0
127.0,128.0,127.0,128.0,127.0,146.0,127.0,128.0,32.0,-93.0,-72.0,127.0,127.0,127.0,106.0,89.0,-104.0
127.0,128.0,127.0,128.0,127.0,146.0,127.0,128.0,32.0,-93.0,-72.0,127.0,127.0,127.0,106.0,89.0,-104.0
127.0,127.0,127.0,128.0,127.0,144.0,127.0,128.0,32.0,-93.0,-72.0,127.0,127.0,127.0,106.0,89.0,-104.0
127.0,127.0,127.0,128.0,127.0,144.0,127.0,128.0,32.0,-93.0,-72.0,127.0,127.0,127.0,106.0,89.0,-104.0
127.0,127.0,127.0,128.0,127.0,144.0,127.0,128.0,32.0,-93.0,-72.0,127.0,127.0,127.0,106.0,89.0,-104.0
127.0,127.0,127.0,128.0,127.0,145.0,127.0,128.0,32.0,-93.0,-72.0,127.0,127.0,127.0,106.0,89.0,-104.0
127.0,128.0,127.0,128.0,127.0,145.0,127.0,128.0,32.0,-93.0,-72.0,127.0,127.0,127.0,106.0,89.0,-104.0
127.0,128.0,127.0,128.0,127.0,145.0,127.0,128.0,32.0,-93.0,-72.0,127.0,127.0,127.0,106.0,89.0,-104.0
127.0,128.0,127.0,128.0,127.0,145.0,127.0,128.0,32.0,-93.0,-72.0,127.0,127.0,127.0,106.0,89.0,-104.0
127.0,128.0,127.0,128.0,127.0,145.0,127.0,128.0,32.0,-93.0,-72.0,127.0,127.0,127.0,106.0,89.0,-104.0
127.0,128.0,127.0,128.0,127.0,145.0,127.0,128.0,32.0,-93.0,-72.0,127.0,127.0,127.0,106.0,89.0,-104.0
127.0,127.0,127.0,128.0,127.0,145.0,126.0,128.0,32.0,-93.0,-72.0,127.0,127.0,127.0,106.0,89.0,-104.0
127.0,127.0,129.0,128.0,127.0,145.0,126.0,128.0,32.0,-93.0,-72.0,127.0,127.0,127.0,106.0,89.0,-104.0
127.0,127.0,129.0,128.0,127.0,145.0,126.0,128.0,32.0,-93.0,-72.0,127.0,127.0,127.0,106.0,89.0,-104.0
127.0,128.0,129.0,128.0,127.0,146.0,126.0,128.0,32.0,-93.0,-72.0,127.0,127.0,127.0,106.0,89.0,-104.0
127.0,128.0,129.0,128.0,127.0,146.0,126.0,128.0,32.0,-93.0,-72.0,127.0,127.0,127.0,106.0,89.0,-104.0
127.0,128.0,129.0,128.0,127.0,146.0,126.0,128.0,32.0,-93.0,-72.0,127.0,127.0,127.0,106.0,89.0,-104.0
127.0,128.0,129.0,128.0,127.0,146.0,126.0,128.0,32.0,-93.0,-72.0,127.0,127.0,127.0,106.0,89.0,-104.0
127.0,128.0,129.0,128.0,127.0,145.0,126.0,128.0,32.0,-93.0,-72.0,127.0,127.0,127.0,106.0,89.0,-104.0
127.0,128.0,129.0,128.0,127.0,145.0,126.0,128.0,32.0,-93.0,-72.0,127.0,127.0,127.0,106.0,89.0,-104.0
127.0,127.0,129.0,128.0,127.0,145.0,126.0,128.0,32.0,-93.0,-72.0,127.0,127.0,127.0,106.0,89.0,-104.0
127.0,127.0,129.0,128.0,127.0,145.0,126.0,128.0,32.0,-93.0,-72.0,127.0,127.0,127.0,106.0,89.0,-104.0
127.0,127.0,130.0,128.0,127.0,145.0,126.0,127.0,32.0,-93.0,-72.0,127.0,127.0,127.0,106.0,89.0,-104.0
127.0,128.0,130.0,128.0,127.0,145.0,126.0,127.0,32.0,-93.0,-72.0,127.0,127.0,127.0,106.0,89.0,-104.0
127.0,128.0,130.0,128.0,127.0,146.0,126.0,128.0,32.0,-93.0,-72.0,127.0,127.0,127.0,106.0,89.0,-104.0
127.0,128.0,130.0,128.0,127.0,146.0,126.0,128.0,32.0,-93.0,-72.0,127.0,127.0,127.0,106.0,89.0,-104.0
127.0,128.0,130.0,128.0,127.0,146.0,126.0,128.0,32.0,-93.0,-72.0,127.0,127.0,127.0,106.0,89.0,-104.0
127.0,128.0,130.0,128.0,127.0,145.0,126.0,128.0,32.0,-93.0,-72.0,127.0,127.0,127.0,106.0,89.0,-104.0
127.0,128.0,130.0,128.0,127.0,145.0,126.0,128.0,32.0,-93.0,-72.0,127.0,127.0,127.0,106.0,89.0,-104.0
127.0,127.0,130.0,127.0,127.0,145.0,126.0,128.0,32.0,-93.0,-72.0,127.0,127.0,127.0,106.0,89.0,-104.0
127.0,127.0,130.0,127.0,127.0,145.0,126.0,128.0,32.0,-93.0,-72.0,127.0,127.0,127.0,106.0,89.0,-104.0
127.0,127.0,130.0,127.0,127.0,145.0,126.0,128.0,32.0,-93.0,-72.0,127.0,127.0,127.0,106.0,89.0,-104.0
127.0,127.0,129.0,128.0,127.0,145.0,126.0,128.0,32.0,-93.0,-72.0,127.0,127.0,127.0,106.0,89.0,-104.0
127.0,128.0,129.0,128.0,127.0,146.0,126.0,128.0,32.0,-93.0,-72.0,127.0,127.0,127.0,106.0,89.0,-104.0
127.0,128.0,129.0,128.0,127.0,146.0,126.0,128.0,32.0,-93.0,-72.0,127.0,127.0,127.0,106.0,89.0,-104.0
127.0,128.0,129.0,128.0,127.0,146.0,126.0,128.0,32.0,-93.0,-72.0,127.0,127.0,127.0,106.0,89.0,-104.0
127.0,128.0,129.0,128.0,127.0,145.0,126.0,128.0,32.0,-93.0,-72.0,127.0,127.0,127.0,106.0,89.0,-104.0
127.0,128.0,128.0,128.0,127.0,145.0,127.0,128.0,32.0,-93.0,-72.0,127.0,127.0,127.0,106.0,89.0,-104.0
127.0,127.0,129.0,127.0,127.0,145.0,126.0,128.0,32.0,-93.0,-72.0,127.0,127.0,127.0,106.0,89.0,-104.0
127.0,127.0,129.0,127.0,127.0,145.0,126.0,128.0,32.0,-93.0,-72.0,127.0,127.0,127.0,106.0,89.0,-104.0
127.0,127.0,129.0,127.0,127.0,145.0,126.0,128.0,32.0,-93.0,-72.0,127.0,127.0,127.0,106.0,89.0,-104.0
127.0,127.0,129.0,128.0,127.0,145.0,126.0,128.0,32.0,-93.0,-72.0,127.0,127.0,127.0,106.0,89.0,-104.0
127.0,127.0,128.0,127.0,127.0,147.0,126.0,128.0,32.0,-93.0,-72.0,127.0,127.0,127.0,106.0,89.0,-104.0
127.0,127.0,128.0,127.0,127.0,147.0,126.0,128.0,32.0,-93.0,-72.0,127.0,127.0,127.0,106.0,89.0,-104.0
127.0,127.0,128.0,127.0,127.0,147.0,127.0,128.0,32.0,-93.0,-72.0,127.0,127.0,127.0,106.0,89.0,-104.0
127.0,127.0,128.0,127.0,127.0,146.0,127.0,128.0,32.0,-93.0,-72.0,127.0,127.0,127.0,106.0,89.0,-104.0
127.0,127.0,129.0,127.0,127.0,146.0,127.0,128.0,32.0,-93.0,-72.0,127.0,127.0,127.0,106.0,89.0,-104.0
127.0,127.0,128.0,127.0,127.0,146.0,126.0,128.0,32.0,-93.0,-72.0,127.0,127.0,127.0,106.0,89.0,-104.0
127.0,127.0,128.0,127.0,126.0,146.0,126.0,128.0,32.0,-93.0,-72.0,127.0,127.0,127.0,106.0,89.0,-104.0
127.0,127.0,128.0,127.0,126.0,146.0,126.0,128.0,32.0,-93.0,-72.0,127.0,127.0,127.0,106.0,89.0,-104.0
127.0,127.0,129.0,127.0,126.0,146.0,126.0,128.0,32.0,-93.0,-72.0,127.0,127.0,127.0,106.0,89.0,-104.0
127.0,127.0,128.0,127.0,126.0,146.0,126.0,128.0,32.0,-93.0,-72.0,127.0,127.0,127.0,106.0,89.0,-104.0
127.0,128.0,128.0,128.0,127.0,146.0,127.0,127.0,32.0,-93.0,-72.0,127.0,127.0,127.0,106.0,89.0,-104.0
127.0,128.0,128.0,128.0,127.0,146.0,127.0,127.0,32.0,-93.0,-72.0,127.0,127.0,127.0,106.0,89.0,-104.0
127.0,128.0,128.0,128.0,127.0,147.0,127.0,128.0,32.0,-93.0,-72.0,127.0,127.0,127.0,106.0,89.0,-104.0
127.0,128.0,128.0,128.0,127.0,147.0,127.0,128.0,32.0,-93.0,-72.0,127.0,127.0,127.0,106.0,89.0,-104.0
127.0,127.0,128.0,127.0,126.0,146.0,126.0,127.0,32.0,-93.0,-72.0,127.0,127.0,127.0,106.0,89.0,-104.0
127.0,127.0,128.0,127.0,126.0,146.0,126.0,127.0,32.0,-93.0,-72.0,127.0,127.0,127.0,106.0,89.0,-104.0
127.0,127.0,128.0,127.0,126.0,145.0,126.0,127.0,32.0,-93.0,-72.0,127.0,127.0,127.0,106.0,89.0,-104.0
127.0,127.0,128.0,127.0,126.0,145.0,126.0,127.0,32.0,-93.0,-72.0,127.0,127.0,127.0,106.0,89.0,-104.0
127.0,127.0,128.0,128.0,126.0,145.0,126.0,127.0,32.0,-93.0,-72.0,127.0,127.0,127.0,106.0,89.0,-104.0
127.0,128.0,128.0,128.0,126.0,146.0,126.0,127.0,32.0,-93.0,-72.0,127.0,127.0,127.0,106.0,89.0,-104.0
127.0,127.0,130.0,128.0,127.0,144.0,127.0,127.0,32.0,-93.0,-72.0,127.0,127.0,127.0,106.0,89.0,-104.0
127.0,127.0,130.0,128.0,127.0,144.0,127.0,127.0,32.0,-93.0,-72.0,127.0,127.0,127.0,106.0,89.0,-104.0
127.0,127.0,130.0,128.0,127.0,144.0,127.0,127.0,32.0,-93.0,-72.0,127.0,127.0,127.0,106.0,89.0,-104.0
127.0,126.0,129.0,128.0,126.0,144.0,126.0,128.0,32.0,-93.0,-72.0,127.0,127.0,127.0,106.0,89.0,-104.0
127.0,126.0,130.0,128.0,127.0,144.0,126.0,128.0,32.0,-93.0,-72.0,127.0,127.0,127.0,106.0,89.0,-104.0
127.0,126.0,130.0,128.0,127.0,144.0,126.0,128.0,32.0,-93.0,-72.0,127.0,127.0,127.0,106.0,89.0,-104.0
127.0,127.0,129.0,128.0,127.0,144.0,126.0,128.0,32.0,-93.0,-72.0,127.0,127.0,127.0,106.0,89.0,-104.0
127.0,127.0,130.0,128.0,127.0,144.0,126.0,128.0,32.0,-93.0,-72.0,127.0,127.0,127.0,106.0,89.0,-104.0
127.0,127.0,130.0,128.0,127.0,144.0,126.0,127.0,32.0,-93.0,-72.0,127.0,127.0,127.0,106.0,89.0,-104.0
127.0,127.0,130.0,128.0,127.0,144.0,126.0,127.0,32.0,-93.0,-72.0,127.0,127.0,127.0,106.0,89.0,-104.0
127.0,127.0,129.0,127.0,127.0,146.0,126.0,128.0,32.0,-93.0,-72.0,127.0,127.0,127.0,106.0,89.0,-104.0
127.0,127.0,129.0,128.0,127.0,146.0,126.0,128.0,32.0,-93.0,-72.0,127.0,127.0,127.0,106.0,89.0,-104.0
127.0,126.0,129.0,127.0,126.0,144.0,126.0,127.0,32.0,-93.0,-72.0,127.0,127.0,127.0,106.0,89.0,-104.0
127.0,126.0,129.0,127.0,126.0,144.0,126.0,127.0,32.0,-93.0,-72.0,127.0,127.0,127.0,106.0,89.0,-104.0
127.0,126.0,129.0,127.0,126.0,145.0,126.0,128.0,32.0,-93.0,-72.0,127.0,127.0,127.0,106.0,89.0,-104.0
127.0,127.0,129.0,127.0,127.0,146.0,126.0,127.0,32.0,-93.0,-72.0,127.0,127.0,127.0,106.0,89.0,-104.0
127.0,127.0,129.0,127.0,127.0,145.0,126.0,128.0,32.0,-93.0,-72.0,127.0,127.0,127.0,106.0,89.0,-104.0
127.0,126.0,129.0,127.0,127.0,145.0,126.0,128.0,32.0,-93.0,-72.0,127.0,127.0,127.0,106.0,89.0,-104.0
127.0,127.0,129.0,127.0,127.0,145.0,126.0,128.0,32.0,-93.0,-72.0,127.0,127.0,127.0,106.0,89.0,-104.0
127.0,127.0,129.0,127.0,127.0,145.0,126.0,128.0,32.0,-93.0,-72.0,127.0,127.0,127.0,106.0,89.0,-104.0
127.0,128.0,128.0,128.0,127.0,147.0,127.0,128.0,32.0,-93.0,-72.0,127.0,127.0,127.0,106.0,89.0,-104.0
127.0,126.0,128.0,127.0,126.0,145.0,126.0,127.0,32.0,-93.0,-72.0,127.0,127.0,127.0,106.0,89.0,-104.0
127.0,126.0,128.0,127.0,126.0,145.0,126.0,127.0,32.0,-93.0,-72.0,127.0,127.0,127.0,106.0,89.0,-104.0
127.0,127.0,128.0,127.0,126.0,146.0,126.0,127.0,32.0,-93.0,-72.0,127.0,127.0,127.0,106.0,89.0,-104.0
127.0,127.0,128.0,127.0,126.0,146.0,127.0,128.0,32.0,-93.0,-72.0,127.0,127.0,127.0,106.0,89.0,-104.0
127.0,127.0,128.0,127.0,127.0,146.0,127.0,128.0,32.0,-93.0,-72.0,127.0,127.0,127.0,106.0,89.0,-104.0
127.0,127.0,128.0,127.0,127.0,146.0,127.0,128.0,32.0,-93.0,-72.0,127.0,127.0,127.0,106.0,89.0,-104.0
127.0,127.0,128.0,127.0,127.0,146.0,127.0,128.0,32.0,-93.0,-72.0,127.0,127.0,127.0,106.0,89.0,-104.0
127.0,127.0,128.0,127.0,127.0,146.0,127.0,128.0,32.0,-93.0,-72.0,127.0,127.0,127.0,106.0,89.0,-104.0
127.0,127.0,128.0,127.0,127.0,146.0,127.0,128.0,32.0,-93.0,-72.0,127.0,127.0,127.0,106.0,89.0,-104.0
127.0,126.0,127.0,127.0,126.0,144.0,126.0,128.0,32.0,-93.0,-72.0,127.0,127.0,127.0,106.0,89.0,-104.0
127.0,126.0,127.0,127.0,126.0,144.0,126.0,128.0,32.0,-93.0,-72.0,127.0,127.0,127.0,106.0,89.0,-104.0
127.0,127.0,127.0,127.0,126.0,145.0,126.0,128.0,32.0,-93.0,-72.0,127.0,127.0,127.0,106.0,89.0,-104.0
127.0,127.0,127.0,127.0,126.0,146.0,126.0,128.0,32.0,-93.0,-72.0,127.0,127.0,127.0,106.0,89.0,-104.0
127.0,127.0,127.0,127.0,126.0,145.0,126.0,128.0,32.0,-93.0,-72.0,127.0,127.0,127.0,106.0,89.0,-104.0
127.0,127.0,127.0,127.0,126.0,145.0,126.0,128.0,32.0,-93.0,-72.0,127.0,127.0,127.0,106.0,89.0,-104.0
127.0,127.0,126.0,127.0,126.0,145.0,126.0,128.0,32.0,-93.0,-72.0,127.0,127.0,127.0,106.0,89.0,-104.0
127.0,127.0,126.0,128.0,126.0,145.0,126.0,128.0,32.0,-93.0,-72.0,127.0,127.0,127.0,106.0,89.0,-104.0
127.0,127.0,126.0,128.0,126.0,145.0,126.0,128.0,32.0,-93.0,-72.0,127.0,127.0,127.0,106.0,89.0,-104.0
127.0,127.0,126.0,128.0,126.0,146.0,126.0,128.0,32.0,-93.0,-72.0,127.0,127.0,127.0,106.0,89.0,-104.0
127.0,126.0,127.0,128.0,126.0,144.0,126.0,127.0,32.0,-93.0,-72.0,127.0,127.0,127.0,106.0,89.0,-104.0
127.0,127.0,127.0,127.0,126.0,145.0,126.0,127.0,32.0,-93.0,-72.0,127.0,127.0,127.0,106.0,89.0,-104.0
127.0,127.0,127.0,128.0,127.0,146.0,126.0,128.0,32.0,-93.0,-72.0,127.0,127.0,127.0,106.0,89.0,-104.0
127.0,127.0,127.0,128.0,127.0,146.0,126.0,128.0,32.0,-93.0,-72.0,127.0,127.0,127.0,106.0,89.0,-104.0
127.0,127.0,127.0,128.0,127.0,146.0,126.0,128.0,32.0,-93.0,-72.0,127.0,127.0,127.0,106.0,89.0,-104.0
127.0,127.0,127.0,128.0,126.0,145.0,126.0,127.0,32.0,-93.0,-72.0,127.0,127.0,127.0,106.0,89.0,-104.0
127.0,127.0,127.0,128.0,127.0,145.0,126.0,128.0,32.0,-93.0,-72.0,127.0,127.0,127.0,106.0,89.0,-104.0
127.0,127.0,127.0,128.0,127.0,145.0,126.0,128.0,32.0,-93.0,-72.0,127.0,127.0,127.0,106.0,89.0,-104.0
127.0,128.0,127.0,128.0,127.0,146.0,126.0,127.0,32.0,-93.0,-72.0,127.0,127.0,127.0,106.0,89.0,-104.0
127.0,126.0,127.0,127.0,126.0,144.0,126.0,127.0,32.0,-93.0,-72.0,127.0,127.0,127.0,106.0,89.0,-104.0
127.0,127.0,128.0,127.0,127.0,147.0,127.0,128.0,32.0,-93.0,-72.0,127.0,127.0,127.0,106.0,89.0,-104.0
127.0,127.0,128.0,128.0,127.0,148.0,127.0,128.0,32.0,-93.0,-72.0,127.0,127.0,127.0,106.0,89.0,-104.0
127.0,127.0,128.0,128.0,127.0,147.0,127.0,128.0,32.0,-93.0,-72.0,127.0,127.0,127.0,106.0,89.0,-104.0
127.0,127.0,128.0,128.0,127.0,147.0,127.0,128.0,32.0,-93.0,-72.0,127.0,127.0,127.0,106.0,89.0,-104.0
127.0,127.0,128.0,128.0,127.0,147.0,127.0,128.0,32.0,-93.0,-72.0,127.0,127.0,127.0,106.0,89.0,-104.0
127.0,127.0,128.0,128.0,127.0,147.0,127.0,128.0,32.0,-93.0,-72.0,127.0,127.0,127.0,106.0,89.0,-104.0
127.0,127.0,128.0,128.0,127.0,147.0,127.0,128.0,32.0,-93.0,-72.0,127.0,127.0,127.0,106.0,89.0,-104.0
127.0,128.0,128.0,128.0,127.0,148.0,127.0,128.0,32.0,-93.0,-72.0,127.0,127.0,127.0,106.0,89.0,-104.0
127.0,126.0,128.0,128.0,127.0,146.0,127.0,127.0,32.0,-93.0,-72.0,127.0,127.0,127.0,106.0,89.0,-104.0
127.0,127.0,128.0,128.0,127.0,146.0,127.0,128.0,32.0,-93.0,-72.0,127.0,127.0,127.0,106.0,89.0,-104.0
127.0,127.0,128.0,128.0,127.0,147.0,126.0,127.0,32.0,-93.0,-72.0,127.0,127.0,127.0,106.0,89.0,-104.0
127.0,127.0,128.0,128.0,127.0,147.0,126.0,127.0,32.0,-93.0,-72.0,127.0,127.0,127.0,106.0,89.0,-104.0
127.0,127.0,128.0,128.0,127.0,147.0,127.0,127.0,32.0,-93.0,-72.0,127.0,127.0,127.0,106.0,89.0,-104.0
127.0,127.0,128.0,128.0,127.0,147.0,127.0,127.0,32.0,-93.0,-72.0,127.0,127.0,127.0,106.0,89.0,-104.0
127.0,127.0,128.0,128.0,127.0,147.0,126.0,127.0,32.0,-93.0,-72.0,127.0,127.0,127.0,106.0,89.0,-104.0
127.0,127.0,128.0,128.0,127.0,147.0,126.0,127.0,32.0,-93.0,-72.0,127.0,127.0,127.0,106.0,89.0,-104.0
127.0,126.0,128.0,128.0,127.0,146.0,126.0,127.0,32.0,-93.0,-72.0,127.0,127.0,127.0,106.0,89.0,-104.0
127.0,126.0,128.0,128.0,127.0,146.0,126.0,127.0,32.0,-93.0,-72.0,127.0,127.0,127.0,106.0,89.0,-104.0
127.0,127.0,128.0,128.0,127.0,146.0,126.0,127.0,32.0,-93.0,-72.0,127.0,127.0,127.0,106.0,89.0,-104.0
127.0,127.0,128.0,128.0,127.0,146.0,126.0,127.0,32.0,-93.0,-72.0,127.0,127.0,127.0,106.0,89.0,-104.0
127.0,127.0,128.0,127.0,126.0,147.0,127.0,128.0,31.0,-93.0,-72.0,127.0,127.0,127.0,106.0,89.0,-104.0
127.0,127.0,128.0,127.0,126.0,147.0,127.0,128.0,31.0,-93.0,-72.0,127.0,127.0,127.0,106.0,89.0,-104.0
127.0,127.0,128.0,127.0,126.0,147.0,127.0,128.0,31.0,-93.0,-72.0,127.0,127.0,127.0,106.0,89.0,-104.0
127.0,127.0,128.0,127.0,126.0,147.0,127.0,128.0,31.0,-93.0,-72.0,127.0,127.0,127.0,106.0,89.0,-104.0
127.0,127.0,128.0,127.0,126.0,146.0,127.0,128.0,31.0,-93.0,-72.0,127.0,127.0,127.0,106.0,89.0,-104.0
127.0,128.0,128.0,127.0,126.0,148.0,126.0,128.0,31.0,-93.0,-72.0,127.0,127.0,127.0,106.0,89.0,-104.0
127.0,128.0,128.0,127.0,126.0,148.0,126.0,127.0,31.0,-93.0,-72.0,127.0,127.0,127.0,106.0,89.0,-104.0
127.0,128.0,128.0,127.0,126.0,148.0,126.0,128.0,31.0,-93.0,-72.0,127.0,127.0,127.0,106.0,89.0,-104.0
127.0,127.0,128.0,127.0,126.0,148.0,126.0,128.0,31.0,-93.0,-72.0,127.0,127.0,127.0,106.0,89.0,-104.0
127.0,127.0,128.0,127.0,126.0,147.0,127.0,128.0,31.0,-93.0,-72.0,127.0,127.0,127.0,106.0,89.0,-104.0
127.0,127.0,128.0,128.0,127.0,147.0,127.0,128.0,31.0,-93.0,-73.0,127.0,127.0,127.0,106.0,89.0,-104.0
127.0,127.0,128.0,128.0,127.0,148.0,127.0,128.0,31.0,-93.0,-73.0,127.0,127.0,127.0,106.0,89.0,-104.0
127.0,128.0,128.0,128.0,127.0,148.0,127.0,128.0,31.0,-93.0,-73.0,127.0,127.0,127.0,106.0,89.0,-104.0
127.0,128.0,128.0,128.0,127.0,148.0,127.0,128.0,31.0,-93.0,-73.0,127.0,127.0,127.0,106.0,89.0,-104.0
127.0,127.0,128.0,128.0,127.0,146.0,126.0,127.0,31.0,-93.0,-73.0,127.0,127.0,127.0,106.0,89.0,-104.0
127.0,127.0,128.0,128.0,127.0,147.0,126.0,128.0,31.0,-93.0,-73.0,127.0,127.0,127.0,106.0,89.0,-104.0
127.0,127.0,128.0,128.0,127.0,148.0,126.0,128.0,31.0,-93.0,-73.0,127.0,127.0,127.0,106.0,89.0,-104.0
127.0,127.0,128.0,128.0,127.0,147.0,127.0,128.0,31.0,-93.0,-73.0,127.0,127.0,127.0,106.0,89.0,-104.0
127.0,127.0,128.0,128.0,127.0,147.0,127.0,128.0,31.0,-93.0,-73.0,127.0,127.0,127.0,106.0,89.0,-104.0
127.0,127.0,128.0,128.0,127.0,147.0,127.0,128.0,31.0,-93.0,-73.0,127.0,127.0,127.0,106.0,89.0,-104.0
127.0,127.0,128.0,128.0,127.0,149.0,126.0,128.0,31.0,-93.0,-73.0,127.0,127.0,127.0,106.0,89.0,-104.0
127.0,128.0,128.0,128.0,127.0,149.0,127.0,128.0,31.0,-93.0,-73.0,127.0,127.0,127.0,106.0,89.0,-104.0
127.0,128.0,128.0,128.0,127.0,149.0,127.0,128.0,31.0,-93.0,-73.0,127.0,127.0,127.0,106.0,89.0,-104.0
127.0,127.0,128.0,127.0,127.0,147.0,126.0,127.0,31.0,-93.0,-73.0,127.0,127.0,127.0,106.0,89.0,-104.0
127.0,127.0,128.0,127.0,127.0,148.0,126.0,128.0,31.0,-93.0,-73.0,127.0,127.0,127.0,106.0,89.0,-104.0
127.0,127.0,128.0,127.0,127.0,149.0,126.0,128.0,31.0,-93.0,-73.0,127.0,127.0,127.0,106.0,89.0,-104.0
127.0,127.0,128.0,127.0,127.0,148.0,126.0,128.0,31.0,-93.0,-73.0,127.0,127.0,127.0,106.0,89.0,-104.0
127.0,127.0,128.0,127.0,127.0,148.0,127.0,128.0,31.0,-93.0,-73.0,127.0,127.0,127.0,106.0,89.0,-104.0
127.0,127.0,128.0,127.0,127.0,148.0,127.0,128.0,31.0,-93.0,-73.0,127.0,127.0,127.0,106.0,89.0,-104.0
127.0,127.0,128.0,127.0,127.0,148.0,127.0,128.0,31.0,-93.0,-73.0,127.0,127.0,127.0,106.0,89.0,-104.0
127.0,128.0,127.0,128.0,127.0,154.0,126.0,128.0,31.0,-93.0,-73.0,127.0,127.0,127.0,106.0,89.0,-104.0
127.0,128.0,127.0,127.0,127.0,154.0,126.0,128.0,31.0,-93.0,-73.0,127.0,127.0,127.0,106.0,89.0,-104.0
127.0,126.0,127.0,128.0,127.0,151.0,126.0,127.0,31.0,-93.0,-73.0,127.0,127.0,127.0,106.0,89.0,-104.0
127.0,127.0,127.0,128.0,127.0,153.0,126.0,127.0,31.0,-93.0,-73.0,127.0,127.0,127.0,106.0,89.0,-104.0
127.0,127.0,127.0,128.0,128.0,153.0,126.0,128.0,31.0,-93.0,-73.0,127.0,127.0,127.0,106.0,89.0,-104.0
127.0,127.0,127.0,128.0,127.0,153.0,126.0,128.0,31.0,-93.0,-73.0,127.0,127.0,127.0,106.0,89.0,-104.0
127.0,127.0,127.0,128.0,127.0,153.0,126.0,128.0,31.0,-93.0,-73.0,127.0,127.0,127.0,106.0,89.0,-104.0
127.0,127.0,127.0,128.0,127.0,153.0,126.0,128.0,31.0,-93.0,-73.0,127.0,127.0,127.0,106.0,89.0,-104.0
127.0,127.0,127.0,128.0,127.0,153.0,126.0,128.0,31.0,-93.0,-73.0,127.0,127.0,127.0,106.0,89.0,-104.0
127.0,127.0,127.0,128.0,127.0,154.0,126.0,128.0,31.0,-93.0,-73.0,127.0,127.0,127.0,106.0,89.0,-104.0
127.0,127.0,126.0,127.0,127.0,168.0,127.0,128.0,31.0,-93.0,-73.0,127.0,127.0,127.0,106.0,89.0,-104.0
127.0,126.0,126.0,127.0,127.0,164.0,126.0,128.0,31.0,-93.0,-73.0,127.0,127.0,127.0,106.0,89.0,-104.0
127.0,127.0,126.0,127.0,127.0,166.0,126.0,128.0,31.0,-93.0,-73.0,127.0,127.0,127.0,106.0,89.0,-104.0
127.0,127.0,126.0,127.0,127.0,167.0,126.0,128.0,31.0,-93.0,-73.0,127.0,127.0,127.0,106.0,89.0,-104.0
127.0,127.0,126.0,127.0,127.0,167.0,126.0,128.0,31.0,-93.0,-73.0,127.0,127.0,127.0,106.0,89.0,-104.0
127.0,127.0,126.0,127.0,127.0,167.0,126.0,128.0,31.0,-93.0,-73.0,127.0,127.0,127.0,106.0,89.0,-104.0
127.0,127.0,126.0,127.0,127.0,167.0,126.0,128.0,31.0,-93.0,-73.0,127.0,127.0,127.0,106.0,89.0,-104.0
127.0,127.0,126.0,127.0,127.0,167.0,126.0,128.0,31.0,-93.0,-73.0,127.0,127.0,127.0,106.0,89.0,-104.0
127.0,127.0,126.0,127.0,127.0,167.0,126.0,128.0,31.0,-93.0,-73.0,127.0,127.0,127.0,106.0,89.0,-104.0
127.0,127.0,126.0,127.0,127.0,168.0,127.0,128.0,31.0,-93.0,-73.0,127.0,127.0,127.0,106.0,89.0,-104.0
127.0,126.0,126.0,127.0,126.0,169.0,126.0,127.0,31.0,-93.0,-73.0,127.0,127.0,127.0,106.0,89.0,-104.0
127.0,127.0,126.0,127.0,126.0,170.0,126.0,127.0,31.0,-93.0,-73.0,127.0,127.0,127.0,106.0,89.0,-104.0
127.0,127.0,126.0,127.0,127.0,171.0,126.0,128.0,31.0,-93.0,-73.0,127.0,127.0,127.0,106.0,89.0,-104.0
127.0,127.0,126.0,127.0,127.0,171.0,126.0,128.0,31.0,-93.0,-73.0,127.0,127.0,127.0,106.0,89.0,-104.0
127.0,127.0,126.0,127.0,127.0,170.0,126.0,128.0,31.0,-93.0,-73.0,127.0,127.0,127.0,106.0,89.0,-104.0
127.0,127.0,126.0,127.0,126.0,170.0,126.0,128.0,31.0,-93.0,-73.0,127.0,127.0,127.0,106.0,89.0,-104.0
127.0,127.0,126.0,127.0,126.0,170.0,127.0,128.0,31.0,-93.0,-73.0,127.0,127.0,127.0,106.0,89.0,-104.0
127.0,127.0,126.0,127.0,127.0,170.0,126.0,128.0,31.0,-93.0,-73.0,127.0,127.0,127.0,106.0,89.0,-104.0
127.0,128.0,126.0,127.0,127.0,171.0,127.0,128.0,31.0,-93.0,-73.0,127.0,127.0,127.0,106.0,89.0,-104.0
127.0,128.0,126.0,127.0,127.0,171.0,127.0,128.0,31.0,-93.0,-73.0,127.0,127.0,127.0,106.0,89.0,-104.0
127.0,127.0,126.0,127.0,126.0,167.0,126.0,127.0,31.0,-93.0,-73.0,127.0,127.0,127.0,106.0,89.0,-104.0
127.0,127.0,126.0,127.0,126.0,168.0,126.0,127.0,31.0,-93.0,-73.0,127.0,127.0,127.0,106.0,89.0,-104.0
127.0,127.0,126.0,127.0,126.0,168.0,126.0,127.0,31.0,-93.0,-73.0,127.0,127.0,127.0,106.0,89.0,-104.0
127.0,127.0,127.0,127.0,126.0,167.0,126.0,128.0,31.0,-93.0,-73.0,127.0,127.0,127.0,106.0,89.0,-104.0
127.0,127.0,127.0,127.0,126.0,167.0,126.0,127.0,31.0,-93.0,-73.0,127.0,127.0,127.0,106.0,89.0,-104.0
127.0,127.0,127.0,127.0,126.0,167.0,126.0,128.0,31.0,-93.0,-73.0,127.0,127.0,127.0,106.0,89.0,-104.0
127.0,127.0,127.0,127.0,126.0,167.0,126.0,127.0,31.0,-93.0,-73.0,127.0,127.0,127.0,106.0,89.0,-104.0
127.0,128.0,127.0,127.0,126.0,167.0,126.0,128.0,31.0,-93.0,-73.0,127.0,127.0,127.0,106.0,89.0,-104.0
127.0,128.0,127.0,127.0,126.0,167.0,126.0,128.0,31.0,-93.0,-73.0,127.0,127.0,127.0,106.0,89.0,-104.0
127.0,126.0,127.0,127.0,126.0,166.0,126.0,127.0,31.0,-93.0,-73.0,127.0,127.0,127.0,106.0,89.0,-104.0
127.0,127.0,127.0,127.0,127.0,166.0,126.0,128.0,31.0,-93.0,-73.0,127.0,127.0,127.0,106.0,89.0,-104.0
127.0,127.0,127.0,127.0,127.0,166.0,127.0,128.0,31.0,-93.0,-73.0,127.0,127.0,127.0,106.0,89.0,-104.0
127.0,127.0,127.0,127.0,127.0,166.0,126.0,128.0,31.0,-93.0,-73.0,127.0,127.0,127.0,106.0,89.0,-104.0
127.0,126.0,127.0,127.0,127.0,165.0,126.0,128.0,31.0,-93.0,-73.0,127.0,127.0,127.0,106.0,89.0,-104.0
127.0,127.0,127.0,127.0,127.0,166.0,126.0,128.0,31.0,-93.0,-73.0,127.0,127.0,127.0,106.0,89.0,-104.0
127.0,127.0,127.0,127.0,127.0,165.0,126.0,128.0,31.0,-93.0,-73.0,127.0,127.0,127.0,106.0,89.0,-104.0
127.0,127.0,126.0,127.0,127.0,167.0,126.0,128.0,31.0,-93.0,-73.0,127.0,127.0,127.0,106.0,89.0,-104.0
127.0,127.0,126.0,127.0,127.0,167.0,126.0,128.0,31.0,-93.0,-73.0,127.0,127.0,127.0,106.0,89.0,-104.0
127.0,126.0,127.0,127.0,127.0,164.0,127.0,128.0,31.0,-93.0,-73.0,127.0,127.0,127.0,106.0,89.0,-104.0
127.0,126.0,127.0,127.0,127.0,164.0,126.0,128.0,31.0,-93.0,-73.0,127.0,127.0,127.0,106.0,89.0,-104.0
127.0,127.0,127.0,128.0,127.0,170.0,127.0,128.0,31.0,-93.0,-73.0,127.0,127.0,127.0,106.0,89.0,-104.0
127.0,127.0,127.0,128.0,127.0,169.0,127.0,128.0,31.0,-93.0,-73.0,127.0,127.0,127.0,106.0,89.0,-104.0
127.0,127.0,127.0,128.0,127.0,169.0,127.0,128.0,31.0,-93.0,-73.0,127.0,127.0,127.0,106.0,89.0,-104.0
127.0,127.0,127.0,128.0,127.0,169.0,127.0,128.0,31.0,-93.0,-73.0,127.0,127.0,127.0,106.0,89.0,-104.0
127.0,127.0,127.0,128.0,127.0,169.0,127.0,128.0,31.0,-93.0,-73.0,127.0,127.0,127.0,106.0,89.0,-104.0
127.0,127.0,127.0,128.0,127.0,170.0,127.0,128.0,31.0,-93.0,-73.0,127.0,127.0,127.0,106.0,89.0,-104.0
127.0,127.0,127.0,128.0,127.0,171.0,127.0,128.0,31.0,-93.0,-73.0,127.0,127.0,127.0,106.0,89.0,-104.0
127.0,126.0,127.0,128.0,127.0,168.0,127.0,128.0,31.0,-93.0,-73.0,127.0,127.0,127.0,106.0,89.0,-104.0
127.0,126.0,127.0,128.0,127.0,168.0,127.0,128.0,31.0,-93.0,-73.0,127.0,127.0,127.0,106.0,89.0,-104.0
127.0,127.0,127.0,128.0,127.0,169.0,127.0,128.0,31.0,-93.0,-73.0,127.0,127.0,127.0,106.0,89.0,-104.0
127.0,126.0,127.0,127.0,126.0,167.0,126.0,127.0,31.0,-93.0,-73.0,127.0,127.0,127.0,106.0,89.0,-104.0
127.0,126.0,127.0,127.0,126.0,167.0,126.0,127.0,31.0,-93.0,-73.0,127.0,127.0,127.0,106.0,89.0,-104.0
127.0,126.0,127.0,127.0,126.0,167.0,126.0,127.0,31.0,-93.0,-73.0,127.0,127.0,127.0,106.0,89.0,-104.0
127.0,126.0,127.0,127.0,126.0,167.0,126.0,127.0,31.0,-93.0,-73.0,127.0,127.0,127.0,106.0,89.0,-104.0
127.0,126.0,127.0,127.0,126.0,166.0,126.0,127.0,31.0,-93.0,-73.0,127.0,127.0,127.0,106.0,89.0,-104.0
127.0,127.0,127.0,127.0,126.0,166.0,126.0,127.0,31.0,-93.0,-73.0,127.0,127.0,127.0,106.0,89.0,-104.0
127.0,127.0,127.0,127.0,126.0,168.0,126.0,127.0,31.0,-93.0,-73.0,127.0,127.0,127.0,106.0,89.0,-104.0
127.0,126.0,127.0,127.0,126.0,167.0,126.0,127.0,31.0,-93.0,-73.0,127.0,127.0,127.0,106.0,89.0,-104.0
127.0,126.0,127.0,127.0,126.0,167.0,126.0,128.0,31.0,-93.0,-73.0,127.0,127.0,127.0,106.0,89.0,-104.0
127.0,126.0,127.0,127.0,126.0,167.0,126.0,127.0,31.0,-93.0,-73.0,127.0,127.0,127.0,106.0,89.0,-104.0
127.0,127.0,126.0,127.0,127.0,165.0,127.0,128.0,31.0,-93.0,-73.0,127.0,127.0,127.0,106.0,89.0,-104.0
127.0,127.0,126.0,127.0,127.0,165.0,127.0,128.0,31.0,-93.0,-73.0,127.0,127.0,127.0,106.0,89.0,-104.0
127.0,127.0,126.0,127.0,127.0,165.0,127.0,128.0,31.0,-93.0,-73.0,127.0,127.0,127.0,106.0,89.0,-104.0
127.0,127.0,126.0,127.0,127.0,164.0,127.0,128.0,31.0,-93.0,-73.0,127.0,127.0,127.0,106.0,89.0,-104.0
127.0,127.0,126.0,127.0,127.0,164.0,127.0,128.0,31.0,-93.0,-73.0,127.0,127.0,127.0,106.0,89.0,-104.0
127.0,127.0,126.0,127.0,127.0,165.0,127.0,127.0,31.0,-93.0,-73.0,127.0,127.0,127.0,106.0,89.0,-104.0
127.0,127.0,126.0,127.0,127.0,164.0,127.0,128.0,31.0,-93.0,-73.0,127.0,127.0,127.0,106.0,89.0,-104.0
127.0,126.0,126.0,127.0,127.0,164.0,127.0,128.0,31.0,-93.0,-73.0,127.0,127.0,127.0,106.0,89.0,-104.0
127.0,126.0,126.0,127.0,127.0,164.0,127.0,128.0,31.0,-93.0,-73.0,127.0,127.0,127.0,106.0,89.0,-104.0
127.0,126.0,126.0,127.0,127.0,164.0,127.0,128.0,31.0,-93.0,-73.0,127.0,127.0,127.0,106.0,89.0,-104.0
127.0,128.0,126.0,127.0,126.0,163.0,126.0,128.0,31.0,-93.0,-73.0,127.0,127.0,127.0,106.0,89.0,-104.0
127.0,128.0,126.0,127.0,126.0,162.0,126.0,128.0,31.0,-93.0,-73.0,127.0,127.0,127.0,106.0,89.0,-104.0
127.0,127.0,126.0,127.0,126.0,162.0,126.0,128.0,31.0,-93.0,-73.0,127.0,127.0,127.0,106.0,89.0,-104.0
127.0,127.0,126.0,127.0,126.0,162.0,126.0,128.0,31.0,-93.0,-73.0,127.0,127.0,127.0,106.0,89.0,-104.0
127.0,127.0,126.0,127.0,127.0,162.0,126.0,128.0,31.0,-93.0,-73.0,127.0,127.0,127.0,106.0,89.0,-104.0
127.0,127.0,126.0,127.0,127.0,162.0,126.0,128.0,31.0,-93.0,-73.0,127.0,127.0,127.0,106.0,89.0,-104.0
127.0,127.0,126.0,127.0,127.0,162.0,126.0,128.0,31.0,-93.0,-73.0,127.0,127.0,127.0,106.0,89.0,-104.0
127.0,127.0,126.0,127.0,126.0,161.0,126.0,128.0,31.0,-93.0,-73.0,127.0,127.0,127.0,106.0,89.0,-104.0
127.0,127.0,126.0,127.0,126.0,161.0,126.0,127.0,31.0,-93.0,-73.0,127.0,127.0,127.0,106.0,89.0,-104.0
127.0,127.0,126.0,127.0,126.0,162.0,126.0,127.0,31.0,-93.0,-73.0,127.0,127.0,127.0,106.0,89.0,-104.0
127.0,127.0,126.0,128.0,127.0,162.0,127.0,128.0,31.0,-93.0,-73.0,127.0,127.0,127.0,106.0,89.0,-104.0
127.0,127.0,126.0,127.0,127.0,162.0,127.0,128.0,31.0,-93.0,-73.0,127.0,127.0,127.0,106.0,89.0,-104.0
127.0,127.0,126.0,127.0,127.0,162.0,127.0,128.0,31.0,-93.0,-73.0,127.0,127.0,127.0,106.0,89.0,-104.0
127.0,127.0,126.0,127.0,127.0,161.0,127.0,127.0,31.0,-93.0,-73.0,127.0,127.0,127.0,106.0,89.0,-104.0
127.0,127.0,126.0,127.0,127.0,161.0,127.0,127.0,31.0,-93.0,-73.0,127.0,127.0,127.0,106.0,89.0,-104.0
127.0,127.0,126.0,127.0,127.0,161.0,127.0,127.0,31.0,-93.0,-73.0,127.0,127.0,127.0,106.0,89.0,-104.0
127.0,127.0,126.0,127.0,127.0,161.0,127.0,127.0,31.0,-93.0,-73.0,127.0,127.0,127.0,106.0,89.0,-104.0
127.0,127.0,126.0,127.0,127.0,161.0,127.0,127.0,31.0,-93.0,-73.0,127.0,127.0,127.0,106.0,89.0,-104.0
127.0,127.0,126.0,127.0,127.0,161.0,126.0,127.0,31.0,-93.0,-73.0,127.0,127.0,127.0,106.0,89.0,-104.0
127.0,127.0,126.0,127.0,127.0,162.0,127.0,128.0,31.0,-93.0,-73.0,127.0,127.0,127.0,106.0,89.0,-104.0
127.0,128.0,127.0,128.0,127.0,172.0,126.0,128.0,31.0,-93.0,-73.0,127.0,127.0,127.0,106.0,89.0,-104.0
127.0,128.0,128.0,127.0,127.0,172.0,126.0,128.0,31.0,-93.0,-73.0,127.0,127.0,127.0,106.0,89.0,-104.0
127.0,127.0,127.0,128.0,127.0,169.0,126.0,128.0,31.0,-93.0,-73.0,127.0,127.0,127.0,106.0,89.0,-104.0
127.0,127.0,127.0,128.0,127.0,169.0,126.0,128.0,31.0,-93.0,-73.0,127.0,127.0,127.0,106.0,89.0,-104.0
127.0,127.0,127.0,128.0,127.0,169.0,126.0,128.0,31.0,-93.0,-73.0,127.0,127.0,127.0,106.0,89.0,-104.0
127.0,127.0,127.0,128.0,127.0,170.0,126.0,128.0,31.0,-93.0,-73.0,127.0,127.0,127.0,106.0,89.0,-104.0
127.0,127.0,127.0,128.0,127.0,170.0,126.0,128.0,31.0,-93.0,-73.0,127.0,127.0,127.0,106.0,89.0,-104.0
127.0,127.0,127.0,128.0,127.0,170.0,126.0,128.0,31.0,-93.0,-73.0,127.0,127.0,127.0,106.0,89.0,-104.0
127.0,127.0,127.0,128.0,127.0,172.0,126.0,128.0,31.0,-93.0,-73.0,127.0,127.0,127.0,106.0,89.0,-104.0
127.0,128.0,127.0,128.0,127.0,172.0,126.0,128.0,31.0,-93.0,-73.0,127.0,127.0,127.0,106.0,89.0,-104.0
127.0,128.0,127.0,127.0,127.0,186.0,127.0,128.0,31.0,-93.0,-73.0,127.0,127.0,127.0,106.0,89.0,-104.0
127.0,127.0,127.0,127.0,126.0,184.0,126.0,128.0,31.0,-93.0,-73.0,127.0,127.0,127.0,106.0,89.0,-104.0
127.0,127.0,127.0,127.0,126.0,184.0,126.0,128.0,31.0,-93.0,-73.0,127.0,127.0,127.0,106.0,89.0,-104.0
127.0,127.0,127.0,127.0,126.0,184.0,126.0,128.0,31.0,-93.0,-73.0,127.0,127.0,127.0,106.0,89.0,-104.0
127.0,127.0,127.0,127.0,126.0,184.0,126.0,128.0,31.0,-93.0,-73.0,127.0,127.0,127.0,106.0,89.0,-104.0
127.0,127.0,127.0,127.0,126.0,184.0,126.0,128.0,31.0,-93.0,-73.0,127.0,127.0,127.0,106.0,89.0,-104.0
127.0,127.0,127.0,127.0,126.0,184.0,126.0,128.0,31.0,-93.0,-73.0,127.0,127.0,127.0,106.0,89.0,-104.0
127.0,127.0,127.0,127.0,126.0,186.0,126.0,128.0,31.0,-93.0,-73.0,127.0,127.0,127.0,106.0,89.0,-104.0
127.0,127.0,127.0,127.0,126.0,186.0,126.0,128.0,31.0,-93.0,-73.0,127.0,127.0,127.0,106.0,89.0,-104.0
127.0,127.0,127.0,127.0,126.0,186.0,126.0,128.0,31.0,-93.0,-73.0,127.0,127.0,127.0,106.0,89.0,-104.0
127.0,127.0,127.0,127.0,127.0,187.0,127.0,128.0,31.0,-93.0,-73.0,127.0,127.0,127.0,106.0,89.0,-104.0
127.0,127.0,127.0,127.0,127.0,187.0,127.0,128.0,31.0,-93.0,-73.0,127.0,127.0,127.0,106.0,89.0,-104.0
127.0,127.0,126.0,127.0,127.0,187.0,126.0,128.0,31.0,-93.0,-73.0,127.0,127.0,127.0,106.0,89.0,-104.0
127.0,127.0,126.0,127.0,127.0,189.0,126.0,128.0,31.0,-93.0,-73.0,127.0,127.0,127.0,106.0,89.0,-104.0
127.0,127.0,126.0,127.0,127.0,189.0,126.0,128.0,31.0,-93.0,-73.0,127.0,127.0,127.0,106.0,89.0,-104.0
127.0,127.0,126.0,127.0,127.0,189.0,127.0,128.0,31.0,-93.0,-73.0,127.0,127.0,127.0,106.0,89.0,-104.0
127.0,127.0,126.0,127.0,127.0,189.0,127.0,128.0,31.0,-93.0,-73.0,127.0,127.0,127.0,106.0,89.0,-104.0
127.0,127.0,126.0,127.0,127.0,189.0,127.0,128.0,31.0,-93.0,-73.0,127.0,127.0,127.0,106.0,89.0,-104.0
127.0,127.0,126.0,127.0,127.0,190.0,127.0,128.0,31.0,-93.0,-73.0,127.0,127.0,127.0,106.0,89.0,-104.0
127.0,127.0,126.0,127.0,127.0,189.0,127.0,128.0,31.0,-93.0,-73.0,127.0,127.0,127.0,106.0,89.0,-104.0
127.0,127.0,127.0,126.0,126.0,207.0,126.0,128.0,31.0,-93.0,-73.0,127.0,127.0,127.0,106.0,89.0,-104.0
127.0,127.0,126.0,126.0,126.0,207.0,126.0,127.0,31.0,-93.0,-73.0,127.0,127.0,127.0,106.0,89.0,-104.0
127.0,127.0,126.0,126.0,126.0,209.0,126.0,128.0,31.0,-93.0,-73.0,127.0,127.0,127.0,106.0,89.0,-104.0
127.0,127.0,126.0,126.0,126.0,209.0,126.0,128.0,31.0,-93.0,-73.0,127.0,127.0,127.0,106.0,89.0,-104.0
127.0,127.0,126.0,126.0,126.0,210.0,126.0,128.0,31.0,-93.0,-73.0,127.0,127.0,127.0,106.0,89.0,-104.0
127.0,127.0,126.0,127.0,126.0,210.0,126.0,128.0,31.0,-93.0,-73.0,127.0,127.0,127.0,106.0,89.0,-104.0
127.0,127.0,126.0,127.0,126.0,210.0,126.0,128.0,31.0,-93.0,-73.0,127.0,127.0,127.0,106.0,89.0,-104.0
127.0,127.0,126.0,127.0,126.0,211.0,127.0,128.0,31.0,-93.0,-73.0,127.0,127.0,127.0,106.0,89.0,-104.0
127.0,127.0,126.0,127.0,126.0,211.0,126.0,128.0,31.0,-93.0,-73.0,127.0,127.0,127.0,106.0,89.0,-104.0
127.0,127.0,126.0,126.0,126.0,206.0,126.0,128.0,31.0,-93.0,-73.0,127.0,127.0,127.0,106.0,89.0,-104.0
127.0,126.0,126.0,127.0,127.0,254.0,127.0,127.0,31.0,-93.0,-73.0,127.0,127.0,127.0,106.0,89.0,-104.0
127.0,126.0,127.0,127.0,127.0,254.0,127.0,127.0,31.0,-93.0,-73.0,127.0,127.0,127.0,106.0,89.0,-104.0
127.0,126.0,127.0,127.0,126.0,254.0,127.0,127.0,31.0,-93.0,-73.0,127.0,127.0,127.0,106.0,89.0,-104.0
127.0,126.0,127.0,127.0,127.0,254.0,127.0,127.0,31.0,-93.0,-73.0,127.0,127.0,127.0,106.0,89.0,-104.0
127.0,126.0,127.0,127.0,127.0,254.0,127.0,128.0,31.0,-93.0,-73.0,127.0,127.0,127.0,106.0,89.0,-104.0
127.0,126.0,127.0,127.0,127.0,254.0,127.0,127.0,31.0,-93.0,-73.0,127.0,127.0,127.0,106.0,89.0,-104.0
127.0,126.0,127.0,127.0,127.0,254.0,127.0,127.0,31.0,-93.0,-73.0,127.0,127.0,127.0,106.0,89.0,-104.0
127.0,126.0,127.0,127.0,127.0,254.0,127.0,127.0,31.0,-93.0,-73.0,127.0,127.0,127.0,106.0,89.0,-104.0
127.0,126.0,126.0,127.0,127.0,254.0,127.0,127.0,31.0,-93.0,-73.0,127.0,127.0,127.0,106.0,89.0,-104.0
127.0,126.0,126.0,127.0,127.0,254.0,127.0,127.0,31.0,-93.0,-73.0,127.0,127.0,127.0,106.0,89.0,-104.0
127.0,127.0,127.0,127.0,126.0,254.0,126.0,128.0,31.0,-93.0,-73.0,127.0,127.0,127.0,106.0,89.0,-104.0
127.0,127.0,127.0,127.0,127.0,254.0,127.0,128.0,31.0,-93.0,-73.0,127.0,127.0,127.0,106.0,89.0,-104.0
127.0,127.0,127.0,127.0,127.0,254.0,127.0,128.0,31.0,-93.0,-73.0,127.0,127.0,127.0,106.0,89.0,-104.0
127.0,127.0,127.0,127.0,126.0,254.0,126.0,128.0,31.0,-93.0,-73.0,127.0,127.0,127.0,106.0,89.0,-104.0
127.0,127.0,127.0,127.0,126.0,254.0,127.0,128.0,31.0,-93.0,-73.0,127.0,127.0,127.0,106.0,89.0,-104.0
127.0,128.0,127.0,127.0,126.0,254.0,127.0,128.0,31.0,-93.0,-73.0,127.0,127.0,127.0,106.0,89.0,-104.0
127.0,127.0,127.0,127.0,126.0,254.0,127.0,128.0,31.0,-93.0,-73.0,127.0,127.0,127.0,106.0,89.0,-104.0
127.0,127.0,127.0,127.0,126.0,254.0,126.0,128.0,31.0,-93.0,-73.0,127.0,127.0,127.0,106.0,89.0,-104.0
127.0,127.0,127.0,127.0,126.0,254.0,126.0,128.0,31.0,-93.0,-73.0,127.0,127.0,127.0,106.0,89.0,-104.0
127.0,127.0,127.0,127.0,126.0,254.0,126.0,128.0,31.0,-93.0,-73.0,127.0,127.0,127.0,106.0,89.0,-104.0
127.0,127.0,126.0,127.0,127.0,254.0,126.0,128.0,31.0,-93.0,-73.0,127.0,127.0,127.0,106.0,89.0,-104.0
127.0,127.0,126.0,127.0,127.0,254.0,126.0,128.0,31.0,-93.0,-73.0,127.0,127.0,127.0,106.0,89.0,-104.0
127.0,127.0,126.0,127.0,127.0,254.0,126.0,128.0,31.0,-93.0,-73.0,127.0,127.0,127.0,106.0,89.0,-104.0
127.0,127.0,126.0,127.0,127.0,254.0,126.0,128.0,31.0,-93.0,-73.0,127.0,127.0,127.0,106.0,89.0,-104.0
127.0,127.0,126.0,127.0,127.0,253.0,126.0,128.0,31.0,-93.0,-73.0,127.0,127.0,127.0,106.0,89.0,-104.0
127.0,127.0,126.0,127.0,127.0,253.0,126.0,128.0,31.0,-93.0,-73.0,127.0,127.0,127.0,106.0,89.0,-104.0
127.0,127.0,126.0,127.0,127.0,254.0,127.0,128.0,31.0,-93.0,-73.0,127.0,127.0,127.0,106.0,89.0,-104.0
127.0,127.0,126.0,127.0,127.0,254.0,126.0,128.0,31.0,-93.0,-73.0,127.0,127.0,127.0,106.0,89.0,-104.0
127.0,127.0,126.0,127.0,127.0,254.0,126.0,128.0,31.0,-93.0,-73.0,127.0,127.0,127.0,106.0,89.0,-104.0
127.0,127.0,126.0,127.0,127.0,254.0,126.0,128.0,31.0,-93.0,-73.0,127.0,127.0,127.0,106.0,89.0,-104.0
127.0,127.0,127.0,128.0,127.0,243.0,126.0,127.0,31.0,-93.0,-73.0,127.0,127.0,127.0,106.0,89.0,-104.0
127.0,127.0,127.0,128.0,127.0,242.0,126.0,127.0,31.0,-93.0,-73.0,127.0,127.0,127.0,106.0,89.0,-104.0
127.0,127.0,127.0,128.0,127.0,242.0,127.0,128.0,31.0,-93.0,-73.0,127.0,127.0,127.0,106.0,89.0,-104.0
127.0,127.0,127.0,128.0,127.0,242.0,127.0,128.0,31.0,-93.0,-73.0,127.0,127.0,127.0,106.0,89.0,-104.0
127.0,127.0,127.0,128.0,127.0,241.0,127.0,128.0,31.0,-93.0,-73.0,127.0,127.0,127.0,106.0,89.0,-104.0
127.0,127.0,127.0,127.0,127.0,243.0,126.0,127.0,31.0,-93.0,-73.0,127.0,127.0,127.0,106.0,89.0,-104.0
127.0,127.0,127.0,127.0,127.0,242.0,126.0,127.0,31.0,-93.0,-73.0,127.0,127.0,127.0,106.0,89.0,-104.0
127.0,127.0,127.0,127.0,127.0,242.0,126.0,127.0,31.0,-93.0,-73.0,127.0,127.0,127.0,106.0,89.0,-104.0
127.0,127.0,127.0,127.0,127.0,242.0,126.0,127.0,31.0,-93.0,-73.0,127.0,127.0,127.0,106.0,89.0,-104.0
127.0,127.0,127.0,127.0,127.0,243.0,126.0,127.0,31.0,-93.0,-73.0,127.0,127.0,127.0,106.0,89.0,-104.0
127.0,127.0,126.0,127.0,127.0,233.0,126.0,128.0,31.0,-93.0,-73.0,127.0,127.0,127.0,106.0,89.0,-104.0
127.0,127.0,126.0,127.0,127.0,232.0,126.0,128.0,31.0,-93.0,-73.0,127.0,127.0,127.0,106.0,89.0,-104.0
127.0,127.0,126.0,127.0,127.0,232.0,126.0,128.0,31.0,-93.0,-73.0,127.0,127.0,127.0,106.0,89.0,-104.0
127.0,127.0,126.0,127.0,127.0,233.0,126.0,128.0,31.0,-93.0,-73.0,127.0,127.0,127.0,106.0,89.0,-104.0
127.0,127.0,126.0,127.0,127.0,233.0,126.0,128.0,31.0,-93.0,-73.0,127.0,127.0,127.0,106.0,89.0,-104.0
127.0,127.0,127.0,127.0,127.0,233.0,126.0,128.0,31.0,-93.0,-73.0,127.0,127.0,127.0,106.0,89.0,-104.0
127.0,127.0,127.0,127.0,127.0,233.0,127.0,128.0,31.0,-93.0,-73.0,127.0,127.0,127.0,106.0,89.0,-104.0
127.0,127.0,126.0,127.0,127.0,233.0,126.0,128.0,31.0,-93.0,-73.0,127.0,127.0,127.0,106.0,89.0,-104.0
127.0,127.0,126.0,127.0,127.0,233.0,126.0,128.0,31.0,-93.0,-73.0,127.0,127.0,127.0,106.0,89.0,-104.0
127.0,127.0,126.0,127.0,127.0,233.0,126.0,128.0,31.0,-93.0,-73.0,127.0,127.0,127.0,106.0,89.0,-104.0
127.0,127.0,126.0,128.0,127.0,222.0,127.0,128.0,31.0,-93.0,-73.0,127.0,127.0,127.0,106.0,89.0,-104.0
127.0,127.0,126.0,128.0,127.0,222.0,126.0,128.0,31.0,-93.0,-73.0,127.0,127.0,127.0,106.0,89.0,-104.0
127.0,127.0,126.0,127.0,127.0,223.0,126.0,128.0,31.0,-93.0,-73.0,127.0,127.0,127.0,106.0,89.0,-104.0
127.0,127.0,126.0,127.0,127.0,222.0,126.0,128.0,31.0,-93.0,-73.0,127.0,127.0,127.0,106.0,89.0,-104.0
127.0,127.0,126.0,127.0,127.0,222.0,126.0,128.0,31.0,-93.0,-73.0,127.0,127.0,127.0,106.0,89.0,-104.0
127.0,127.0,126.0,127.0,127.0,222.0,126.0,128.0,31.0,-93.0,-73.0,127.0,127.0,127.0,106.0,89.0,-104.0
127.0,126.0,126.0,127.0,127.0,222.0,126.0,128.0,31.0,-93.0,-73.0,127.0,127.0,127.0,106.0,89.0,-104.0
127.0,127.0,126.0,127.0,127.0,223.0,126.0,128.0,31.0,-93.0,-73.0,127.0,127.0,127.0,106.0,89.0,-104.0
127.0,127.0,126.0,127.0,127.0,223.0,126.0,128.0,31.0,-93.0,-73.0,127.0,127.0,127.0,106.0,89.0,-104.0
127.0,127.0,126.0,128.0,127.0,222.0,126.0,128.0,31.0,-93.0,-73.0,127.0,127.0,127.0,106.0,89.0,-104.0
127.0,127.0,126.0,127.0,127.0,214.0,126.0,128.0,31.0,-93.0,-73.0,127.0,127.0,127.0,106.0,89.0,-104.0
127.0,127.0,126.0,127.0,127.0,215.0,126.0,128.0,31.0,-93.0,-73.0,127.0,127.0,127.0,106.0,89.0,-104.0
127.0,127.0,126.0,127.0,127.0,215.0,126.0,127.0,31.0,-93.0,-73.0,127.0,127.0,127.0,106.0,89.0,-104.0
127.0,127.0,126.0,127.0,127.0,214.0,126.0,128.0,31.0,-93.0,-73.0,127.0,127.0,127.0,106.0,89.0,-104.0
127.0,127.0,126.0,127.0,127.0,214.0,126.0,128.0,31.0,-93.0,-73.0,127.0,127.0,127.0,106.0,89.0,-104.0
127.0,127.0,126.0,127.0,127.0,214.0,126.0,128.0,31.0,-93.0,-73.0,127.0,127.0,127.0,106.0,89.0,-104.0
127.0,127.0,126.0,127.0,127.0,215.0,126.0,128.0,31.0,-93.0,-73.0,127.0,127.0,127.0,106.0,89.0,-104.0
127.0,127.0,126.0,127.0,127.0,215.0,126.0,128.0,31.0,-93.0,-73.0,127.0,127.0,127.0,106.0,89.0,-104.0
127.0,127.0,126.0,127.0,127.0,215.0,126.0,128.0,31.0,-93.0,-73.0,127.0,127.0,127.0,106.0,89.0,-104.0
127.0,127.0,126.0,127.0,127.0,214.0,126.0,128.0,31.0,-93.0,-73.0,127.0,127.0,127.0,106.0,89.0,-104.0
127.0,127.0,126.0,127.0,127.0,209.0,126.0,128.0,31.0,-93.0,-73.0,127.0,127.0,127.0,106.0,89.0,-104.0
127.0,127.0,126.0,127.0,127.0,209.0,126.0,128.0,31.0,-93.0,-73.0,127.0,127.0,127.0,106.0,89.0,-104.0
127.0,127.0,126.0,127.0,127.0,208.0,126.0,128.0,31.0,-93.0,-73.0,127.0,127.0,127.0,106.0,89.0,-104.0
127.0,127.0,126.0,127.0,127.0,208.0,126.0,128.0,31.0,-93.0,-73.0,127.0,127.0,127.0,106.0,89.0,-104.0
127.0,127.0,126.0,127.0,127.0,208.0,126.0,128.0,31.0,-93.0,-73.0,127.0,127.0,127.0,106.0,89.0,-104.0
127.0,127.0,126.0,127.0,127.0,209.0,126.0,128.0,31.0,-93.0,-73.0,127.0,127.0,127.0,106.0,89.0,-104.0
127.0,127.0,126.0,127.0,127.0,209.0,126.0,128.0,31.0,-93.0,-73.0,127.0,127.0,127.0,106.0,89.0,-104.0
127.0,127.0,126.0,127.0,127.0,209.0,126.0,128.0,31.0,-93.0,-73.0,127.0,127.0,127.0,106.0,89.0,-104.0
127.0,127.0,126.0,127.0,127.0,208.0,126.0,128.0,31.0,-93.0,-73.0,127.0,127.0,127.0,106.0,89.0,-104.0
127.0,127.0,126.0,127.0,127.0,208.0,126.0,128.0,31.0,-93.0,-73.0,127.0,127.0,127.0,106.0,89.0,-104.0
127.0,126.0,127.0,128.0,127.0,202.0,127.0,128.0,31.0,-93.0,-73.0,127.0,127.0,127.0,106.0,89.0,-104.0
127.0,126.0,127.0,128.0,127.0,202.0,127.0,128.0,31.0,-93.0,-73.0,127.0,127.0,127.0,106.0,89.0,-104.0
127.0,126.0,127.0,127.0,127.0,203.0,127.0,128.0,31.0,-93.0,-73.0,127.0,127.0,127.0,106.0,89.0,-104.0
127.0,126.0,127.0,127.0,127.0,202.0,127.0,128.0,31.0,-93.0,-73.0,127.0,127.0,127.0,106.0,89.0,-104.0
127.0,126.0,127.0,127.0,127.0,202.0,126.0,128.0,31.0,-93.0,-73.0,127.0,127.0,127.0,106.0,89.0,-104.0
127.0,126.0,127.0,127.0,126.0,202.0,126.0,128.0,31.0,-93.0,-73.0,127.0,127.0,127.0,106.0,89.0,-104.0
127.0,126.0,127.0,127.0,126.0,202.0,126.0,128.0,31.0,-93.0,-73.0,127.0,127.0,127.0,106.0,89.0,-104.0
127.0,127.0,126.0,127.0,126.0,203.0,126.0,128.0,31.0,-93.0,-73.0,127.0,127.0,127.0,106.0,89.0,-104.0
127.0,127.0,126.0,127.0,126.0,204.0,126.0,128.0,31.0,-93.0,-73.0,127.0,127.0,127.0,106.0,89.0,-104.0
127.0,127.0,127.0,128.0,127.0,202.0,127.0,128.0,31.0,-93.0,-73.0,127.0,127.0,127.0,106.0,89.0,-104.0
127.0,127.0,127.0,128.0,127.0,203.0,126.0,128.0,31.0,-93.0,-73.0,127.0,127.0,127.0,106.0,89.0,-104.0
127.0,127.0,127.0,128.0,127.0,204.0,126.0,127.0,31.0,-93.0,-73.0,127.0,127.0,127.0,106.0,89.0,-104.0
127.0,127.0,127.0,128.0,128.0,204.0,127.0,128.0,31.0,-93.0,-73.0,127.0,127.0,127.0,106.0,89.0,-104.0
127.0,127.0,127.0,128.0,127.0,203.0,127.0,128.0,31.0,-93.0,-73.0,127.0,127.0,127.0,106.0,89.0,-104.0
127.0,126.0,127.0,128.0,128.0,203.0,127.0,128.0,31.0,-93.0,-73.0,127.0,127.0,127.0,106.0,89.0,-104.0
127.0,127.0,127.0,128.0,127.0,203.0,127.0,128.0,31.0,-93.0,-73.0,127.0,127.0,127.0,106.0,89.0,-104.0
127.0,126.0,127.0,127.0,127.0,203.0,127.0,128.0,31.0,-93.0,-73.0,127.0,127.0,127.0,106.0,89.0,-104.0
127.0,126.0,127.0,127.0,127.0,202.0,127.0,128.0,31.0,-93.0,-73.0,127.0,127.0,127.0,106.0,89.0,-104.0
127.0,126.0,127.0,128.0,127.0,202.0,127.0,128.0,31.0,-93.0,-73.0,127.0,127.0,127.0,106.0,89.0,-104.0
127.0,126.0,127.0,128.0,127.0,202.0,127.0,128.0,31.0,-93.0,-73.0,127.0,127.0,127.0,106.0,89.0,-104.0
127.0,127.0,128.0,128.0,127.0,200.0,126.0,128.0,31.0,-93.0,-73.0,127.0,127.0,127.0,106.0,89.0,-104.0
127.0,127.0,128.0,128.0,127.0,200.0,126.0,128.0,31.0,-93.0,-73.0,127.0,127.0,127.0,106.0,89.0,-104.0
127.0,127.0,128.0,128.0,127.0,200.0,126.0,128.0,31.0,-93.0,-73.0,127.0,127.0,127.0,106.0,89.0,-104.0
128.0,127.0,128.0,127.0,127.0,200.0,126.0,128.0,31.0,-93.0,-73.0,127.0,127.0,127.0,106.0,89.0,-104.0
127.0,127.0,128.0,127.0,127.0,200.0,126.0,128.0,31.0,-93.0,-73.0,127.0,127.0,127.0,106.0,89.0,-104.0
127.0,126.0,128.0,127.0,127.0,200.0,126.0,128.0,31.0,-93.0,-73.0,127.0,127.0,127.0,106.0,89.0,-104.0
127.0,126.0,128.0,127.0,127.0,199.0,127.0,128.0,31.0,-93.0,-73.0,127.0,127.0,127.0,106.0,89.0,-104.0
127.0,127.0,127.0,128.0,127.0,199.0,126.0,128.0,31.0,-93.0,-73.0,127.0,127.0,127.0,106.0,89.0,-104.0
127.0,127.0,127.0,128.0,127.0,199.0,126.0,128.0,31.0,-93.0,-73.0,127.0,127.0,127.0,106.0,89.0,-104.0
127.0,127.0,127.0,128.0,127.0,200.0,126.0,128.0,31.0,-93.0,-73.0,127.0,127.0,127.0,106.0,89.0,-104.0
127.0,126.0,127.0,128.0,127.0,196.0,127.0,128.0,31.0,-93.0,-73.0,127.0,127.0,127.0,106.0,89.0,-104.0
127.0,126.0,127.0,128.0,127.0,196.0,127.0,128.0,31.0,-93.0,-73.0,127.0,127.0,127.0,106.0,89.0,-104.0
127.0,126.0,127.0,128.0,127.0,196.0,127.0,127.0,31.0,-93.0,-73.0,127.0,127.0,127.0,106.0,89.0,-104.0
127.0,126.0,127.0,128.0,127.0,196.0,127.0,128.0,31.0,-93.0,-73.0,127.0,127.0,127.0,106.0,89.0,-104.0
127.0,126.0,127.0,127.0,127.0,195.0,127.0,128.0,31.0,-93.0,-73.0,127.0,127.0,127.0,106.0,89.0,-104.0
127.0,126.0,127.0,127.0,127.0,195.0,127.0,127.0,31.0,-93.0,-73.0,127.0,127.0,127.0,106.0,89.0,-104.0
127.0,126.0,127.0,128.0,127.0,195.0,127.0,127.0,31.0,-93.0,-73.0,127.0,127.0,127.0,106.0,89.0,-104.0
127.0,126.0,127.0,128.0,127.0,195.0,127.0,127.0,31.0,-93.0,-73.0,127.0,127.0,127.0,106.0,89.0,-104.0
127.0,126.0,127.0,128.0,127.0,196.0,127.0,127.0,31.0,-93.0,-73.0,127.0,127.0,127.0,106.0,89.0,-104.0
127.0,127.0,127.0,128.0,127.0,196.0,127.0,127.0,31.0,-93.0,-73.0,127.0,127.0,127.0,106.0,89.0,-104.0
127.0,126.0,126.0,127.0,127.0,189.0,127.0,128.0,31.0,-93.0,-73.0,127.0,127.0,127.0,106.0,89.0,-104.0
127.0,126.0,126.0,127.0,127.0,188.0,127.0,128.0,31.0,-93.0,-73.0,127.0,127.0,127.0,106.0,89.0,-104.0
127.0,126.0,126.0,127.0,127.0,188.0,127.0,128.0,31.0,-93.0,-73.0,127.0,127.0,127.0,106.0,89.0,-104.0
127.0,126.0,126.0,127.0,127.0,188.0,127.0,128.0,31.0,-93.0,-73.0,127.0,127.0,127.0,106.0,89.0,-104.0
127.0,126.0,126.0,127.0,127.0,187.0,127.0,128.0,31.0,-93.0,-73.0,127.0,127.0,127.0,106.0,89.0,-104.0
127.0,126.0,126.0,127.0,127.0,189.0,127.0,128.0,31.0,-93.0,-73.0,127.0,127.0,127.0,106.0,89.0,-104.0
127.0,126.0,126.0,127.0,127.0,188.0,127.0,128.0,31.0,-93.0,-73.0,127.0,127.0,127.0,106.0,89.0,-104.0
127.0,126.0,126.0,127.0,127.0,189.0,126.0,127.0,31.0,-93.0,-73.0,127.0,127.0,127.0,106.0,89.0,-104.0
127.0,126.0,126.0,127.0,127.0,189.0,127.0,128.0,31.0,-93.0,-73.0,127.0,127.0,127.0,106.0,89.0,-104.0
127.0,126.0,126.0,127.0,127.0,189.0,127.0,128.0,31.0,-93.0,-73.0,127.0,127.0,127.0,106.0,89.0,-104.0
127.0,126.0,127.0,127.0,126.0,182.0,126.0,128.0,31.0,-92.0,-73.0,127.0,127.0,127.0,106.0,89.0,-104.0
127.0,126.0,127.0,127.0,126.0,182.0,126.0,128.0,31.0,-92.0,-73.0,127.0,127.0,127.0,106.0,89.0,-104.0
127.0,126.0,127.0,127.0,126.0,182.0,127.0,128.0,31.0,-92.0,-73.0,127.0,127.0,127.0,106.0,89.0,-104.0
127.0,126.0,127.0,127.0,126.0,181.0,127.0,128.0,31.0,-92.0,-73.0,127.0,127.0,127.0,106.0,89.0,-104.0
127.0,126.0,127.0,127.0,126.0,181.0,127.0,128.0,31.0,-92.0,-73.0,127.0,127.0,127.0,106.0,89.0,-104.0
127.0,126.0,127.0,127.0,126.0,181.0,127.0,128.0,31.0,-92.0,-73.0,127.0,127.0,127.0,106.0,89.0,-104.0
127.0,126.0,127.0,127.0,126.0,182.0,126.0,127.0,31.0,-92.0,-73.0,127.0,127.0,127.0,106.0,89.0,-104.0
127.0,126.0,127.0,127.0,126.0,183.0,126.0,128.0,31.0,-92.0,-73.0,127.0,127.0,127.0,106.0,89.0,-104.0
127.0,126.0,127.0,127.0,126.0,183.0,127.0,128.0,31.0,-92.0,-73.0,127.0,127.0,127.0,106.0,89.0,-104.0
127.0,126.0,127.0,127.0,126.0,182.0,127.0,128.0,31.0,-92.0,-73.0,127.0,127.0,127.0,106.0,89.0,-104.0
127.0,126.0,128.0,127.0,126.0,181.0,127.0,128.0,31.0,-93.0,-73.0,127.0,127.0,127.0,106.0,89.0,-104.0
127.0,126.0,128.0,127.0,126.0,180.0,127.0,128.0,31.0,-93.0,-73.0,127.0,127.0,127.0,106.0,89.0,-104.0
127.0,126.0,128.0,127.0,126.0,180.0,127.0,128.0,31.0,-93.0,-73.0,127.0,127.0,127.0,106.0,89.0,-104.0
127.0,126.0,128.0,127.0,127.0,180.0,127.0,128.0,31.0,-93.0,-73.0,127.0,127.0,127.0,106.0,89.0,-104.0
127.0,126.0,128.0,127.0,127.0,180.0,127.0,127.0,31.0,-93.0,-73.0,127.0,127.0,127.0,106.0,89.0,-104.0
127.0,126.0,128.0,127.0,127.0,180.0,127.0,128.0,31.0,-93.0,-73.0,127.0,127.0,127.0,106.0,89.0,-104.0
127.0,127.0,128.0,127.0,127.0,181.0,127.0,127.0,31.0,-93.0,-73.0,127.0,127.0,127.0,106.0,89.0,-104.0
127.0,127.0,127.0,127.0,127.0,181.0,127.0,128.0,31.0,-93.0,-73.0,127.0,127.0,127.0,106.0,89.0,-104.0
127.0,127.0,128.0,127.0,126.0,181.0,127.0,128.0,31.0,-93.0,-73.0,127.0,127.0,127.0,106.0,89.0,-104.0
127.0,126.0,128.0,127.0,126.0,181.0,127.0,128.0,31.0,-93.0,-73.0,127.0,127.0,127.0,106.0,89.0,-104.0
127.0,126.0,128.0,128.0,127.0,180.0,126.0,128.0,31.0,-93.0,-73.0,127.0,127.0,127.0,106.0,89.0,-104.0
127.0,126.0,128.0,128.0,127.0,180.0,126.0,128.0,31.0,-93.0,-73.0,127.0,127.0,127.0,106.0,89.0,-104.0
127.0,126.0,128.0,128.0,127.0,179.0,126.0,128.0,31.0,-93.0,-73.0,127.0,127.0,127.0,106.0,89.0,-104.0
127.0,126.0,128.0,128.0,127.0,179.0,126.0,128.0,31.0,-93.0,-73.0,127.0,127.0,127.0,106.0,89.0,-104.0
127.0,126.0,128.0,128.0,127.0,179.0,126.0,128.0,31.0,-93.0,-73.0,127.0,127.0,127.0,106.0,89.0,-104.0
127.0,127.0,127.0,128.0,127.0,180.0,126.0,128.0,31.0,-93.0,-73.0,127.0,127.0,127.0,106.0,89.0,-104.0
127.0,127.0,127.0,128.0,127.0,181.0,126.0,128.0,31.0,-93.0,-73.0,127.0,127.0,127.0,106.0,89.0,-104.0
127.0,126.0,128.0,128.0,127.0,180.0,126.0,128.0,31.0,-93.0,-73.0,127.0,127.0,127.0,106.0,89.0,-104.0
127.0,126.0,128.0,128.0,127.0,180.0,126.0,128.0,31.0,-93.0,-73.0,127.0,127.0,127.0,106.0,89.0,-104.0
127.0,126.0,128.0,128.0,127.0,180.0,126.0,128.0,31.0,-93.0,-73.0,127.0,127.0,127.0,106.0,89.0,-104.0
127.0,126.0,128.0,127.0,126.0,181.0,126.0,128.0,31.0,-93.0,-73.0,127.0,127.0,127.0,106.0,89.0,-104.0
127.0,126.0,128.0,128.0,126.0,180.0,126.0,128.0,31.0,-93.0,-73.0,127.0,127.0,127.0,106.0,89.0,-104.0
127.0,126.0,128.0,128.0,126.0,180.0,126.0,128.0,31.0,-93.0,-73.0,127.0,127.0,127.0,106.0,89.0,-104.0
127.0,126.0,128.0,127.0,126.0,180.0,126.0,128.0,31.0,-93.0,-73.0,127.0,127.0,127.0,106.0,89.0,-104.0
127.0,126.0,128.0,127.0,126.0,180.0,126.0,128.0,31.0,-93.0,-73.0,127.0,127.0,127.0,106.0,89.0,-104.0
127.0,126.0,128.0,127.0,126.0,180.0,126.0,128.0,31.0,-93.0,-73.0,127.0,127.0,127.0,106.0,89.0,-104.0
127.0,126.0,128.0,127.0,126.0,180.0,126.0,128.0,31.0,-93.0,-73.0,127.0,127.0,127.0,106.0,89.0,-104.0
127.0,126.0,128.0,127.0,126.0,181.0,126.0,128.0,31.0,-93.0,-73.0,127.0,127.0,127.0,106.0,89.0,-104.0
127.0,126.0,128.0,127.0,126.0,182.0,126.0,128.0,31.0,-93.0,-73.0,127.0,127.0,127.0,106.0,89.0,-104.0
127.0,126.0,128.0,127.0,126.0,182.0,126.0,128.0,31.0,-93.0,-73.0,127.0,127.0,127.0,106.0,89.0,-104.0
127.0,127.0,127.0,127.0,126.0,179.0,126.0,128.0,31.0,-93.0,-73.0,127.0,127.0,127.0,106.0,89.0,-104.0
127.0,127.0,127.0,127.0,126.0,179.0,127.0,128.0,31.0,-93.0,-73.0,127.0,127.0,127.0,106.0,89.0,-104.0
127.0,127.0,127.0,127.0,126.0,179.0,127.0,128.0,31.0,-93.0,-73.0,127.0,127.0,127.0,106.0,89.0,-104.0
127.0,127.0,127.0,127.0,126.0,179.0,127.0,128.0,31.0,-93.0,-73.0,127.0,127.0,127.0,106.0,89.0,-104.0
127.0,126.0,127.0,127.0,126.0,179.0,127.0,128.0,31.0,-93.0,-73.0,127.0,127.0,127.0,106.0,89.0,-104.0
127.0,127.0,127.0,127.0,126.0,179.0,127.0,128.0,31.0,-93.0,-73.0,127.0,127.0,127.0,106.0,89.0,-104.0
127.0,126.0,127.0,127.0,126.0,179.0,127.0,128.0,31.0,-93.0,-73.0,127.0,127.0,127.0,106.0,89.0,-104.0
127.0,126.0,127.0,127.0,126.0,178.0,127.0,128.0,31.0,-93.0,-73.0,127.0,127.0,127.0,106.0,89.0,-104.0
127.0,126.0,127.0,127.0,126.0,178.0,127.0,128.0,31.0,-93.0,-73.0,127.0,127.0,127.0,106.0,89.0,-104.0
127.0,126.0,127.0,127.0,126.0,178.0,127.0,128.0,31.0,-93.0,-73.0,127.0,127.0,127.0,106.0,89.0,-104.0
127.0,127.0,127.0,128.0,127.0,177.0,126.0,128.0,31.0,-93.0,-73.0,127.0,127.0,127.0,106.0,89.0,-104.0
127.0,127.0,127.0,128.0,127.0,177.0,126.0,128.0,31.0,-93.0,-73.0,127.0,127.0,127.0,106.0,89.0,-104.0
127.0,126.0,127.0,127.0,127.0,177.0,126.0,128.0,31.0,-93.0,-73.0,127.0,127.0,127.0,106.0,89.0,-104.0
127.0,126.0,127.0,127.0,127.0,177.0,126.0,128.0,31.0,-93.0,-73.0,127.0,127.0,127.0,106.0,89.0,-104.0
127.0,126.0,127.0,127.0,127.0,177.0,126.0,128.0,31.0,-93.0,-73.0,127.0,127.0,127.0,106.0,89.0,-104.0
127.0,126.0,127.0,127.0,127.0,176.0,127.0,128.0,31.0,-93.0,-73.0,127.0,127.0,127.0,106.0,89.0,-104.0
127.0,126.0,127.0,127.0,126.0,176.0,127.0,128.0,31.0,-93.0,-73.0,127.0,127.0,127.0,106.0,89.0,-104.0
127.0,126.0,127.0,127.0,127.0,176.0,127.0,128.0,31.0,-93.0,-73.0,127.0,127.0,127.0,106.0,89.0,-104.0
127.0,126.0,127.0,127.0,126.0,175.0,126.0,128.0,31.0,-93.0,-73.0,127.0,127.0,127.0,106.0,89.0,-104.0
127.0,127.0,126.0,128.0,127.0,177.0,126.0,128.0,31.0,-93.0,-73.0,127.0,127.0,127.0,106.0,89.0,-104.0
127.0,127.0,126.0,127.0,127.0,177.0,127.0,128.0,31.0,-93.0,-73.0,127.0,127.0,127.0,106.0,89.0,-104.0
127.0,127.0,126.0,127.0,126.0,176.0,127.0,128.0,31.0,-93.0,-73.0,127.0,127.0,127.0,106.0,89.0,-104.0
127.0,126.0,126.0,127.0,126.0,176.0,127.0,128.0,31.0,-93.0,-73.0,127.0,127.0,127.0,106.0,89.0,-104.0
127.0,126.0,126.0,127.0,126.0,177.0,127.0,128.0,31.0,-93.0,-73.0,127.0,127.0,127.0,106.0,89.0,-104.0
127.0,126.0,126.0,127.0,126.0,176.0,127.0,128.0,31.0,-93.0,-73.0,127.0,127.0,127.0,106.0,89.0,-104.0
127.0,126.0,126.0,127.0,126.0,176.0,127.0,128.0,31.0,-93.0,-73.0,127.0,127.0,127.0,106.0,89.0,-104.0
127.0,126.0,127.0,127.0,126.0,176.0,127.0,128.0,31.0,-93.0,-73.0,127.0,127.0,127.0,106.0,89.0,-104.0
127.0,126.0,127.0,127.0,126.0,176.0,127.0,128.0,31.0,-93.0,-73.0,127.0,127.0,127.0,106.0,89.0,-104.0
127.0,127.0,126.0,127.0,127.0,176.0,126.0,128.0,31.0,-93.0,-73.0,127.0,127.0,127.0,106.0,89.0,-104.0
127.0,127.0,126.0,127.0,127.0,176.0,126.0,128.0,31.0,-93.0,-73.0,127.0,127.0,127.0,106.0,89.0,-104.0
127.0,127.0,127.0,128.0,127.0,178.0,127.0,128.0,31.0,-93.0,-73.0,127.0,127.0,127.0,106.0,89.0,-104.0
127.0,126.0,127.0,128.0,127.0,178.0,127.0,128.0,31.0,-93.0,-73.0,127.0,127.0,127.0,106.0,89.0,-104.0
127.0,126.0,127.0,128.0,127.0,178.0,127.0,128.0,31.0,-93.0,-73.0,127.0,127.0,127.0,106.0,89.0,-104.0
127.0,126.0,127.0,127.0,127.0,177.0,127.0,128.0,31.0,-93.0,-73.0,127.0,127.0,127.0,106.0,89.0,-104.0
127.0,126.0,127.0,127.0,127.0,177.0,127.0,128.0,31.0,-93.0,-73.0,127.0,127.0,127.0,106.0,89.0,-104.0
127.0,126.0,127.0,127.0,127.0,177.0,127.0,128.0,31.0,-93.0,-73.0,127.0,127.0,127.0,106.0,89.0,-104.0
127.0,126.0,127.0,127.0,127.0,177.0,127.0,128.0,31.0,-93.0,-73.0,127.0,127.0,127.0,106.0,89.0,-104.0
127.0,127.0,127.0,128.0,127.0,177.0,127.0,128.0,31.0,-93.0,-73.0,127.0,127.0,127.0,106.0,89.0,-104.0
127.0,127.0,127.0,128.0,127.0,178.0,127.0,128.0,31.0,-93.0,-73.0,127.0,127.0,127.0,106.0,89.0,-104.0
127.0,127.0,127.0,128.0,127.0,178.0,127.0,128.0,31.0,-93.0,-73.0,127.0,127.0,127.0,106.0,89.0,-104.0
127.0,127.0,127.0,127.0,127.0,175.0,126.0,128.0,31.0,-93.0,-73.0,127.0,127.0,127.0,106.0,89.0,-104.0
127.0,126.0,127.0,127.0,127.0,175.0,126.0,128.0,31.0,-93.0,-73.0,127.0,127.0,127.0,106.0,89.0,-104.0
127.0,126.0,127.0,127.0,127.0,174.0,126.0,128.0,31.0,-93.0,-73.0,127.0,127.0,127.0,106.0,89.0,-104.0
127.0,126.0,127.0,127.0,127.0,174.0,126.0,128.0,31.0,-93.0,-73.0,127.0,127.0,127.0,106.0,89.0,-104.0
127.0,126.0,127.0,127.0,127.0,174.0,126.0,128.0,31.0,-93.0,-73.0,127.0,127.0,127.0,106.0,89.0,-104.0
127.0,126.0,127.0,127.0,127.0,174.0,126.0,128.0,31.0,-93.0,-73.0,127.0,127.0,127.0,106.0,89.0,-104.0
127.0,127.0,127.0,127.0,127.0,174.0,126.0,128.0,31.0,-93.0,-73.0,127.0,127.0,127.0,106.0,89.0,-104.0
127.0,127.0,127.0,127.0,127.0,175.0,126.0,128.0,31.0,-93.0,-73.0,127.0,127.0,127.0,106.0,89.0,-104.0
127.0,127.0,127.0,127.0,127.0,175.0,126.0,128.0,31.0,-93.0,-73.0,127.0,127.0,127.0,106.0,89.0,-104.0
127.0,127.0,127.0,127.0,127.0,175.0,126.0,128.0,31.0,-93.0,-73.0,127.0,127.0,127.0,106.0,89.0,-104.0
127.0,126.0,127.0,127.0,127.0,175.0,126.0,128.0,31.0,-93.0,-73.0,127.0,127.0,127.0,106.0,89.0,-104.0
127.0,126.0,127.0,127.0,127.0,175.0,126.0,127.0,31.0,-93.0,-73.0,127.0,127.0,127.0,106.0,89.0,-104.0
127.0,126.0,127.0,127.0,127.0,174.0,126.0,127.0,31.0,-93.0,-73.0,127.0,127.0,127.0,106.0,89.0,-104.0
127.0,126.0,127.0,127.0,126.0,174.0,126.0,128.0,31.0,-93.0,-73.0,127.0,127.0,127.0,106.0,89.0,-104.0
127.0,126.0,127.0,127.0,127.0,174.0,126.0,127.0,31.0,-93.0,-73.0,127.0,127.0,127.0,106.0,89.0,-104.0
127.0,126.0,127.0,127.0,127.0,174.0,126.0,127.0,31.0,-93.0,-73.0,127.0,127.0,127.0,106.0,89.0,-104.0
127.0,127.0,127.0,127.0,127.0,175.0,126.0,127.0,31.0,-93.0,-73.0,127.0,127.0,127.0,106.0,89.0,-104.0
127.0,127.0,127.0,127.0,127.0,175.0,126.0,128.0,31.0,-93.0,-73.0,127.0,127.0,127.0,106.0,89.0,-104.0
127.0,127.0,127.0,127.0,127.0,175.0,126.0,128.0,31.0,-93.0,-73.0,127.0,127.0,127.0,106.0,89.0,-104.0
127.0,126.0,127.0,127.0,127.0,175.0,126.0,127.0,31.0,-93.0,-73.0,127.0,127.0,127.0,106.0,89.0,-104.0
127.0,127.0,128.0,127.0,127.0,173.0,126.0,127.0,31.0,-93.0,-73.0,127.0,127.0,127.0,106.0,89.0,-104.0
127.0,127.0,128.0,128.0,127.0,173.0,126.0,127.0,31.0,-93.0,-73.0,127.0,127.0,127.0,106.0,89.0,-104.0
127.0,127.0,128.0,127.0,127.0,172.0,126.0,127.0,31.0,-93.0,-73.0,127.0,127.0,127.0,106.0,89.0,-104.0
127.0,127.0,128.0,128.0,127.0,172.0,127.0,127.0,31.0,-93.0,-73.0,127.0,127.0,127.0,106.0,89.0,-104.0
127.0,127.0,128.0,127.0,127.0,172.0,127.0,127.0,31.0,-93.0,-73.0,127.0,127.0,127.0,106.0,89.0,-104.0
127.0,127.0,128.0,128.0,127.0,173.0,127.0,127.0,31.0,-93.0,-73.0,127.0,127.0,127.0,106.0,89.0,-104.0
127.0,127.0,128.0,128.0,127.0,173.0,127.0,127.0,31.0,-93.0,-73.0,127.0,127.0,127.0,106.0,89.0,-104.0
127.0,127.0,128.0,127.0,127.0,173.0,127.0,127.0,31.0,-93.0,-73.0,127.0,127.0,127.0,106.0,89.0,-104.0
127.0,127.0,128.0,128.0,127.0,173.0,127.0,127.0,31.0,-93.0,-73.0,127.0,127.0,127.0,106.0,89.0,-104.0
127.0,127.0,128.0,127.0,127.0,173.0,126.0,127.0,31.0,-93.0,-73.0,127.0,127.0,127.0,106.0,89.0,-104.0
127.0,126.0,128.0,127.0,127.0,172.0,126.0,128.0,31.0,-93.0,-73.0,127.0,127.0,127.0,106.0,89.0,-104.0
127.0,126.0,128.0,127.0,127.0,171.0,126.0,128.0,31.0,-93.0,-73.0,127.0,127.0,127.0,106.0,89.0,-104.0
127.0,126.0,128.0,127.0,126.0,171.0,127.0,128.0,31.0,-93.0,-73.0,127.0,127.0,127.0,106.0,89.0,-104.0
127.0,126.0,128.0,127.0,126.0,171.0,127.0,128.0,31.0,-93.0,-73.0,127.0,127.0,127.0,106.0,89.0,-104.0
127.0,126.0,128.0,127.0,126.0,170.0,127.0,128.0,31.0,-93.0,-73.0,127.0,127.0,127.0,106.0,89.0,-104.0
127.0,126.0,128.0,127.0,126.0,171.0,127.0,128.0,31.0,-93.0,-73.0,127.0,127.0,127.0,106.0,89.0,-104.0
127.0,126.0,128.0,127.0,127.0,171.0,126.0,128.0,31.0,-93.0,-73.0,127.0,127.0,127.0,106.0,89.0,-104.0
127.0,126.0,128.0,127.0,127.0,172.0,126.0,128.0,31.0,-93.0,-73.0,127.0,127.0,127.0,106.0,89.0,-104.0
127.0,126.0,128.0,127.0,127.0,172.0,126.0,128.0,31.0,-93.0,-73.0,127.0,127.0,127.0,106.0,89.0,-104.0
127.0,126.0,128.0,127.0,127.0,172.0,126.0,128.0,31.0,-93.0,-73.0,127.0,127.0,127.0,106.0,89.0,-104.0
127.0,126.0,129.0,127.0,126.0,172.0,126.0,128.0,31.0,-93.0,-73.0,127.0,127.0,127.0,106.0,89.0,-104.0
127.0,127.0,128.0,127.0,127.0,172.0,126.0,128.0,31.0,-93.0,-73.0,127.0,127.0,127.0,106.0,89.0,-104.0
127.0,126.0,128.0,127.0,127.0,172.0,126.0,128.0,31.0,-93.0,-73.0,127.0,127.0,127.0,106.0,89.0,-104.0
127.0,127.0,128.0,127.0,126.0,172.0,126.0,128.0,31.0,-93.0,-73.0,127.0,127.0,127.0,106.0,89.0,-104.0
127.0,127.0,128.0,127.0,126.0,173.0,126.0,128.0,31.0,-93.0,-73.0,127.0,127.0,127.0,106.0,89.0,-104.0
127.0,127.0,129.0,127.0,126.0,173.0,126.0,128.0,31.0,-93.0,-73.0,127.0,127.0,127.0,106.0,89.0,-104.0
127.0,126.0,129.0,127.0,126.0,172.0,126.0,128.0,31.0,-93.0,-73.0,127.0,127.0,127.0,106.0,89.0,-104.0
127.0,126.0,129.0,127.0,126.0,172.0,126.0,128.0,31.0,-93.0,-73.0,127.0,127.0,127.0,106.0,89.0,-104.0
127.0,126.0,129.0,127.0,126.0,172.0,126.0,128.0,31.0,-93.0,-73.0,127.0,127.0,127.0,106.0,89.0,-104.0
127.0,126.0,129.0,127.0,126.0,172.0,126.0,128.0,31.0,-93.0,-73.0,127.0,127.0,127.0,106.0,89.0,-104.0
127.0,126.0,128.0,127.0,127.0,168.0,127.0,128.0,31.0,-93.0,-73.0,127.0,127.0,127.0,106.0,89.0,-104.0
127.0,126.0,129.0,127.0,127.0,168.0,127.0,128.0,31.0,-93.0,-73.0,127.0,127.0,127.0,106.0,89.0,-104.0
127.0,126.0,128.0,127.0,127.0,169.0,127.0,128.0,31.0,-93.0,-73.0,127.0,127.0,127.0,106.0,89.0,-104.0
127.0,126.0,128.0,127.0,127.0,170.0,127.0,128.0,31.0,-93.0,-73.0,127.0,127.0,127.0,106.0,89.0,-104.0
127.0,126.0,128.0,127.0,127.0,170.0,127.0,128.0,31.0,-93.0,-73.0,127.0,127.0,127.0,106.0,89.0,-104.0
127.0,126.0,129.0,127.0,127.0,170.0,126.0,128.0,31.0,-93.0,-73.0,127.0,127.0,127.0,106.0,89.0,-104.0
127.0,126.0,129.0,127.0,127.0,170.0,127.0,128.0,31.0,-93.0,-73.0,127.0,127.0,127.0,106.0,89.0,-104.0
127.0,126.0,129.0,127.0,127.0,170.0,126.0,128.0,31.0,-93.0,-73.0,127.0,127.0,127.0,106.0,89.0,-104.0
127.0,126.0,129.0,127.0,127.0,169.0,126.0,128.0,31.0,-93.0,-73.0,127.0,127.0,127.0,106.0,89.0,-104.0
127.0,126.0,129.0,127.0,127.0,169.0,127.0,128.0,31.0,-93.0,-73.0,127.0,127.0,127.0,106.0,89.0,-104.0
127.0,127.0,128.0,128.0,127.0,169.0,127.0,128.0,31.0,-93.0,-73.0,127.0,127.0,127.0,106.0,89.0,-104.0
127.0,127.0,128.0,127.0,127.0,170.0,126.0,128.0,31.0,-93.0,-73.0,127.0,127.0,127.0,106.0,89.0,-104.0
127.0,127.0,128.0,127.0,127.0,171.0,126.0,128.0,31.0,-93.0,-73.0,127.0,127.0,127.0,106.0,89.0,-104.0
127.0,127.0,128.0,127.0,127.0,171.0,126.0,128.0,31.0,-93.0,-73.0,127.0,127.0,127.0,106.0,89.0,-104.0
127.0,127.0,128.0,127.0,127.0,170.0,127.0,128.0,31.0,-93.0,-73.0,127.0,127.0,127.0,106.0,89.0,-104.0
127.0,126.0,128.0,127.0,127.0,170.0,127.0,128.0,31.0,-93.0,-73.0,127.0,127.0,127.0,106.0,89.0,-104.0
127.0,126.0,128.0,127.0,127.0,170.0,127.0,128.0,31.0,-93.0,-73.0,127.0,127.0,127.0,106.0,89.0,-104.0
127.0,126.0,128.0,127.0,127.0,170.0,127.0,128.0,31.0,-93.0,-73.0,127.0,127.0,127.0,106.0,89.0,-104.0
127.0,126.0,128.0,127.0,127.0,170.0,127.0,128.0,31.0,-93.0,-73.0,127.0,127.0,127.0,106.0,89.0,-104.0
127.0,126.0,128.0,128.0,127.0,169.0,127.0,128.0,31.0,-93.0,-73.0,127.0,127.0,127.0,106.0,89.0,-104.0
127.0,126.0,127.0,127.0,127.0,169.0,126.0,128.0,31.0,-93.0,-73.0,127.0,127.0,127.0,106.0,89.0,-104.0
127.0,126.0,127.0,127.0,127.0,170.0,126.0,128.0,31.0,-93.0,-73.0,127.0,127.0,127.0,106.0,89.0,-104.0
127.0,126.0,127.0,127.0,127.0,170.0,126.0,128.0,31.0,-93.0,-73.0,127.0,127.0,127.0,106.0,89.0,-104.0
127.0,126.0,127.0,127.0,127.0,169.0,126.0,128.0,31.0,-93.0,-73.0,127.0,127.0,127.0,106.0,89.0,-104.0
127.0,126.0,127.0,127.0,127.0,169.0,126.0,128.0,31.0,-93.0,-73.0,127.0,127.0,127.0,106.0,89.0,-104.0
127.0,126.0,127.0,127.0,127.0,169.0,126.0,128.0,31.0,-93.0,-73.0,127.0,127.0,127.0,106.0,89.0,-104.0
127.0,126.0,128.0,127.0,127.0,169.0,126.0,128.0,31.0,-93.0,-73.0,127.0,127.0,127.0,106.0,89.0,-104.0
127.0,126.0,128.0,127.0,127.0,169.0,126.0,128.0,31.0,-93.0,-73.0,127.0,127.0,127.0,106.0,89.0,-104.0
127.0,126.0,127.0,127.0,127.0,168.0,127.0,128.0,31.0,-93.0,-73.0,127.0,127.0,127.0,106.0,89.0,-104.0
127.0,126.0,127.0,127.0,127.0,168.0,127.0,128.0,31.0,-93.0,-73.0,127.0,127.0,127.0,106.0,89.0,-104.0
127.0,127.0,128.0,127.0,127.0,168.0,127.0,128.0,31.0,-93.0,-73.0,127.0,127.0,127.0,106.0,89.0,-104.0
127.0,126.0,128.0,127.0,127.0,168.0,126.0,128.0,31.0,-93.0,-73.0,127.0,127.0,127.0,106.0,89.0,-104.0
127.0,126.0,128.0,127.0,127.0,168.0,127.0,128.0,31.0,-93.0,-73.0,127.0,127.0,127.0,106.0,89.0,-104.0
127.0,126.0,128.0,127.0,127.0,168.0,127.0,128.0,31.0,-93.0,-73.0,127.0,127.0,127.0,106.0,89.0,-104.0
127.0,126.0,128.0,127.0,127.0,168.0,127.0,128.0,31.0,-93.0,-73.0,127.0,127.0,127.0,106.0,89.0,-104.0
127.0,126.0,128.0,127.0,126.0,168.0,127.0,128.0,31.0,-93.0,-73.0,127.0,127.0,127.0,106.0,89.0,-104.0
127.0,126.0,128.0,127.0,126.0,168.0,126.0,128.0,31.0,-93.0,-73.0,127.0,127.0,127.0,106.0,89.0,-104.0
127.0,126.0,128.0,127.0,127.0,167.0,127.0,128.0,31.0,-93.0,-73.0,127.0,127.0,127.0,106.0,89.0,-104.0
127.0,126.0,128.0,127.0,127.0,167.0,127.0,128.0,31.0,-93.0,-73.0,127.0,127.0,127.0,106.0,89.0,-104.0
127.0,126.0,128.0,127.0,127.0,167.0,126.0,128.0,31.0,-93.0,-73.0,127.0,127.0,127.0,106.0,89.0,-104.0
127.0,127.0,128.0,127.0,127.0,167.0,127.0,128.0,31.0,-93.0,-73.0,127.0,127.0,127.0,106.0,89.0,-104.0
127.0,127.0,128.0,127.0,127.0,167.0,127.0,128.0,31.0,-93.0,-73.0,127.0,127.0,127.0,106.0,89.0,-104.0
127.0,127.0,128.0,127.0,127.0,166.0,127.0,128.0,31.0,-93.0,-73.0,127.0,127.0,127.0,106.0,89.0,-104.0
127.0,127.0,128.0,127.0,127.0,166.0,127.0,128.0,31.0,-93.0,-73.0,127.0,127.0,127.0,106.0,89.0,-104.0
127.0,126.0,128.0,127.0,127.0,166.0,127.0,128.0,31.0,-93.0,-73.0,127.0,127.0,127.0,106.0,89.0,-104.0
127.0,126.0,128.0,127.0,127.0,166.0,127.0,128.0,31.0,-93.0,-73.0,127.0,127.0,127.0,106.0,89.0,-104.0
127.0,127.0,128.0,127.0,127.0,166.0,127.0,128.0,31.0,-93.0,-73.0,127.0,127.0,127.0,106.0,89.0,-104.0
127.0,127.0,128.0,127.0,127.0,166.0,127.0,128.0,31.0,-93.0,-73.0,127.0,127.0,127.0,106.0,89.0,-104.0
127.0,127.0,128.0,127.0,127.0,166.0,127.0,128.0,31.0,-93.0,-73.0,127.0,127.0,127.0,106.0,89.0,-104.0
127.0,127.0,128.0,127.0,127.0,167.0,127.0,128.0,31.0,-93.0,-73.0,127.0,127.0,127.0,106.0,89.0,-104.0
127.0,127.0,129.0,127.0,127.0,163.0,127.0,128.0,30.0,-93.0,-73.0,127.0,127.0,127.0,106.0,89.0,-104.0
127.0,126.0,129.0,127.0,127.0,163.0,127.0,128.0,30.0,-93.0,-73.0,127.0,127.0,127.0,106.0,89.0,-104.0
127.0,126.0,129.0,127.0,126.0,163.0,127.0,127.0,30.0,-93.0,-73.0,127.0,127.0,127.0,106.0,89.0,-104.0
127.0,126.0,129.0,127.0,126.0,163.0,127.0,128.0,30.0,-93.0,-73.0,127.0,127.0,127.0,106.0,89.0,-104.0
127.0,126.0,129.0,127.0,126.0,163.0,127.0,128.0,30.0,-93.0,-73.0,127.0,127.0,127.0,106.0,89.0,-104.0
127.0,127.0,129.0,127.0,127.0,162.0,127.0,128.0,30.0,-93.0,-73.0,127.0,127.0,127.0,106.0,89.0,-104.0
127.0,127.0,129.0,127.0,127.0,162.0,127.0,127.0,30.0,-93.0,-73.0,127.0,127.0,127.0,106.0,89.0,-104.0
127.0,126.0,129.0,127.0,127.0,162.0,127.0,127.0,30.0,-93.0,-73.0,127.0,127.0,127.0,106.0,89.0,-104.0
127.0,127.0,129.0,127.0,127.0,163.0,127.0,128.0,30.0,-93.0,-73.0,127.0,127.0,127.0,106.0,89.0,-104.0
127.0,127.0,129.0,127.0,127.0,164.0,127.0,128.0,30.0,-93.0,-73.0,127.0,127.0,127.0,106.0,89.0,-104.0
127.0,126.0,129.0,127.0,126.0,165.0,127.0,127.0,30.0,-93.0,-73.0,127.0,127.0,127.0,106.0,89.0,-104.0
127.0,126.0,129.0,127.0,126.0,166.0,127.0,128.0,30.0,-93.0,-73.0,127.0,127.0,127.0,106.0,89.0,-104.0
127.0,126.0,129.0,127.0,126.0,166.0,127.0,128.0,30.0,-93.0,-73.0,127.0,127.0,127.0,106.0,89.0,-104.0
127.0,126.0,129.0,127.0,126.0,166.0,127.0,128.0,30.0,-93.0,-73.0,127.0,127.0,127.0,106.0,89.0,-104.0
127.0,126.0,129.0,127.0,126.0,163.0,127.0,128.0,30.0,-93.0,-73.0,127.0,127.0,127.0,106.0,89.0,-104.0
127.0,126.0,129.0,127.0,126.0,164.0,127.0,128.0,30.0,-93.0,-73.0,127.0,127.0,127.0,106.0,89.0,-104.0
127.0,126.0,129.0,127.0,126.0,164.0,127.0,128.0,30.0,-93.0,-73.0,127.0,127.0,127.0,106.0,89.0,-104.0
127.0,126.0,129.0,127.0,126.0,164.0,127.0,128.0,30.0,-93.0,-73.0,127.0,127.0,127.0,106.0,89.0,-104.0
127.0,125.0,129.0,127.0,126.0,164.0,127.0,128.0,30.0,-93.0,-73.0,127.0,127.0,127.0,106.0,89.0,-104.0
127.0,126.0,129.0,127.0,126.0,164.0,127.0,128.0,30.0,-93.0,-73.0,127.0,127.0,127.0,106.0,89.0,-104.0
128.0,127.0,129.0,127.0,127.0,167.0,127.0,128.0,30.0,-92.0,-73.0,127.0,127.0,127.0,106.0,89.0,-104.0
128.0,126.0,129.0,127.0,127.0,167.0,127.0,128.0,30.0,-92.0,-73.0,127.0,127.0,127.0,106.0,89.0,-104.0
127.0,126.0,129.0,127.0,127.0,167.0,127.0,128.0,30.0,-92.0,-73.0,127.0,127.0,127.0,106.0,89.0,-104.0
128.0,127.0,128.0,128.0,127.0,167.0,127.0,128.0,30.0,-92.0,-73.0,127.0,127.0,127.0,106.0,89.0,-104.0
128.0,127.0,128.0,128.0,127.0,167.0,127.0,128.0,30.0,-92.0,-73.0,127.0,127.0,127.0,106.0,89.0,-104.0
128.0,127.0,128.0,128.0,127.0,167.0,127.0,128.0,30.0,-92.0,-73.0,127.0,127.0,127.0,106.0,89.0,-104.0
128.0,127.0,128.0,128.0,127.0,167.0,127.0,128.0,30.0,-92.0,-73.0,127.0,127.0,127.0,106.0,89.0,-104.0
128.0,127.0,128.0,127.0,127.0,167.0,127.0,128.0,30.0,-92.0,-73.0,127.0,127.0,127.0,106.0,89.0,-104.0
128.0,127.0,128.0,127.0,127.0,167.0,127.0,128.0,30.0,-92.0,-73.0,127.0,127.0,127.0,106.0,89.0,-104.0
128.0,127.0,128.0,127.0,127.0,167.0,127.0,128.0,30.0,-92.0,-73.0,127.0,127.0,127.0,106.0,89.0,-104.0
127.0,126.0,129.0,127.0,127.0,169.0,127.0,128.0,30.0,-92.0,-73.0,127.0,127.0,127.0,106.0,89.0,-104.0
127.0,126.0,129.0,127.0,127.0,169.0,127.0,128.0,30.0,-92.0,-73.0,127.0,127.0,127.0,106.0,89.0,-104.0
127.0,127.0,129.0,127.0,127.0,169.0,127.0,128.0,30.0,-92.0,-73.0,127.0,127.0,127.0,106.0,89.0,-104.0
127.0,127.0,129.0,127.0,127.0,169.0,127.0,128.0,30.0,-92.0,-73.0,127.0,127.0,127.0,106.0,89.0,-104.0
127.0,127.0,129.0,127.0,127.0,169.0,126.0,128.0,30.0,-92.0,-73.0,127.0,127.0,127.0,106.0,89.0,-104.0
127.0,127.0,129.0,127.0,127.0,169.0,127.0,128.0,30.0,-92.0,-73.0,127.0,127.0,127.0,106.0,89.0,-104.0
127.0,127.0,129.0,127.0,127.0,169.0,126.0,128.0,30.0,-92.0,-73.0,127.0,127.0,127.0,106.0,89.0,-104.0
127.0,127.0,129.0,127.0,127.0,169.0,127.0,128.0,30.0,-92.0,-73.0,127.0,127.0,127.0,106.0,89.0,-104.0
127.0,126.0,129.0,127.0,127.0,169.0,127.0,128.0,30.0,-92.0,-73.0,127.0,127.0,127.0,106.0,89.0,-104.0
127.0,126.0,129.0,127.0,127.0,169.0,127.0,128.0,30.0,-92.0,-73.0,127.0,127.0,127.0,106.0,89.0,-104.0
127.0,126.0,132.0,127.0,127.0,170.0,126.0,128.0,30.0,-92.0,-73.0,127.0,127.0,127.0,106.0,89.0,-104.0
127.0,127.0,131.0,127.0,127.0,169.0,126.0,128.0,30.0,-92.0,-73.0,127.0,127.0,127.0,106.0,89.0,-104.0
127.0,127.0,131.0,127.0,127.0,170.0,127.0,128.0,30.0,-92.0,-73.0,127.0,127.0,127.0,106.0,89.0,-104.0
127.0,127.0,131.0,127.0,127.0,170.0,127.0,128.0,30.0,-92.0,-73.0,127.0,127.0,127.0,106.0,89.0,-104.0
127.0,127.0,131.0,127.0,127.0,170.0,127.0,128.0,30.0,-92.0,-73.0,127.0,127.0,127.0,106.0,89.0,-104.0
127.0,126.0,131.0,127.0,127.0,170.0,127.0,128.0,30.0,-92.0,-73.0,127.0,127.0,127.0,106.0,89.0,-104.0
127.0,126.0,131.0,127.0,127.0,170.0,127.0,128.0,30.0,-92.0,-73.0,127.0,127.0,127.0,106.0,89.0,-104.0
127.0,126.0,131.0,127.0,127.0,170.0,126.0,128.0,30.0,-92.0,-73.0,127.0,127.0,127.0,106.0,89.0,-104.0
127.0,126.0,131.0,127.0,127.0,170.0,126.0,128.0,30.0,-92.0,-73.0,127.0,127.0,127.0,106.0,89.0,-104.0
127.0,126.0,132.0,127.0,127.0,170.0,126.0,128.0,30.0,-92.0,-73.0,127.0,127.0,127.0,106.0,89.0,-104.0
127.0,127.0,134.0,127.0,127.0,168.0,127.0,128.0,30.0,-92.0,-73.0,127.0,127.0,127.0,106.0,89.0,-104.0
127.0,127.0,134.0,127.0,127.0,169.0,127.0,128.0,30.0,-92.0,-73.0,127.0,127.0,127.0,106.0,89.0,-104.0
127.0,127.0,134.0,127.0,127.0,169.0,127.0,128.0,30.0,-92.0,-73.0,127.0,127.0,127.0,106.0,89.0,-104.0
127.0,127.0,134.0,127.0,127.0,169.0,127.0,128.0,30.0,-92.0,-73.0,127.0,127.0,127.0,106.0,89.0,-104.0
127.0,127.0,134.0,127.0,127.0,169.0,127.0,128.0,30.0,-92.0,-73.0,127.0,127.0,127.0,106.0,89.0,-104.0
127.0,127.0,135.0,127.0,127.0,169.0,127.0,128.0,30.0,-92.0,-73.0,127.0,127.0,127.0,106.0,89.0,-104.0
127.0,126.0,135.0,127.0,127.0,169.0,127.0,128.0,30.0,-92.0,-73.0,127.0,127.0,127.0,106.0,89.0,-104.0
127.0,126.0,135.0,127.0,127.0,168.0,127.0,128.0,30.0,-92.0,-73.0,127.0,127.0,127.0,106.0,89.0,-104.0
127.0,126.0,135.0,127.0,127.0,168.0,127.0,128.0,30.0,-92.0,-73.0,127.0,127.0,127.0,106.0,89.0,-104.0
127.0,126.0,135.0,127.0,127.0,168.0,127.0,128.0,30.0,-92.0,-73.0,127.0,127.0,127.0,106.0,89.0,-104.0
127.0,127.0,134.0,127.0,127.0,166.0,127.0,128.0,30.0,-92.0,-73.0,127.0,127.0,127.0,106.0,89.0,-104.0
128.0,127.0,134.0,127.0,127.0,166.0,127.0,128.0,30.0,-92.0,-73.0,127.0,127.0,127.0,106.0,89.0,-104.0
127.0,127.0,134.0,127.0,127.0,166.0,127.0,128.0,30.0,-92.0,-73.0,127.0,127.0,127.0,106.0,89.0,-104.0
127.0,127.0,134.0,127.0,127.0,166.0,127.0,128.0,30.0,-92.0,-73.0,127.0,127.0,127.0,106.0,89.0,-104.0
128.0,127.0,134.0,127.0,127.0,166.0,127.0,128.0,30.0,-92.0,-73.0,127.0,127.0,127.0,106.0,89.0,-104.0
128.0,127.0,134.0,127.0,127.0,166.0,127.0,128.0,30.0,-92.0,-73.0,127.0,127.0,127.0,106.0,89.0,-104.0
128.0,126.0,134.0,127.0,127.0,165.0,127.0,128.0,30.0,-92.0,-73.0,127.0,127.0,127.0,106.0,89.0,-104.0
128.0,126.0,134.0,127.0,127.0,165.0,127.0,127.0,30.0,-92.0,-73.0,127.0,127.0,127.0,106.0,89.0,-104.0
128.0,126.0,134.0,127.0,127.0,165.0,127.0,127.0,30.0,-92.0,-73.0,127.0,127.0,127.0,106.0,89.0,-104.0
127.0,127.0,134.0,127.0,127.0,165.0,127.0,128.0,30.0,-92.0,-73.0,127.0,127.0,127.0,106.0,89.0,-104.0
128.0,127.0,133.0,127.0,127.0,165.0,126.0,128.0,30.0,-92.0,-73.0,127.0,127.0,127.0,106.0,89.0,-104.0
128.0,127.0,133.0,127.0,127.0,165.0,126.0,128.0,30.0,-92.0,-73.0,127.0,127.0,127.0,106.0,89.0,-104.0
127.0,127.0,133.0,127.0,127.0,165.0,126.0,128.0,30.0,-92.0,-73.0,127.0,127.0,127.0,106.0,89.0,-104.0
127.0,127.0,133.0,127.0,127.0,165.0,126.0,128.0,30.0,-92.0,-73.0,127.0,127.0,127.0,106.0,89.0,-104.0
127.0,127.0,133.0,127.0,127.0,165.0,126.0,128.0,30.0,-92.0,-73.0,127.0,127.0,127.0,106.0,89.0,-104.0
127.0,127.0,133.0,127.0,127.0,164.0,126.0,128.0,30.0,-92.0,-73.0,127.0,127.0,127.0,106.0,89.0,-104.0
128.0,127.0,133.0,127.0,127.0,164.0,126.0,128.0,30.0,-92.0,-73.0,127.0,127.0,127.0,106.0,89.0,-104.0
128.0,126.0,133.0,127.0,127.0,164.0,126.0,128.0,30.0,-92.0,-73.0,127.0,127.0,127.0,106.0,89.0,-104.0
128.0,127.0,133.0,127.0,127.0,164.0,126.0,128.0,30.0,-92.0,-73.0,127.0,127.0,127.0,106.0,89.0,-104.0
128.0,127.0,132.0,127.0,127.0,165.0,126.0,128.0,30.0,-92.0,-73.0,127.0,127.0,127.0,106.0,89.0,-104.0
127.0,127.0,130.0,127.0,127.0,161.0,126.0,128.0,30.0,-92.0,-73.0,127.0,127.0,127.0,106.0,89.0,-104.0
127.0,127.0,130.0,127.0,127.0,161.0,126.0,128.0,30.0,-92.0,-73.0,127.0,127.0,127.0,106.0,89.0,-104.0
127.0,127.0,130.0,126.0,127.0,161.0,126.0,128.0,30.0,-92.0,-73.0,127.0,127.0,127.0,106.0,89.0,-104.0
127.0,127.0,130.0,126.0,127.0,161.0,126.0,128.0,30.0,-92.0,-73.0,127.0,127.0,127.0,106.0,89.0,-104.0
127.0,127.0,130.0,126.0,127.0,161.0,126.0,128.0,30.0,-92.0,-73.0,127.0,127.0,127.0,106.0,89.0,-104.0
127.0,127.0,130.0,126.0,127.0,161.0,126.0,128.0,30.0,-92.0,-73.0,127.0,127.0,127.0,106.0,89.0,-104.0
127.0,127.0,130.0,126.0,127.0,160.0,126.0,128.0,30.0,-92.0,-73.0,127.0,127.0,127.0,106.0,89.0,-104.0
127.0,127.0,130.0,127.0,127.0,160.0,126.0,128.0,30.0,-92.0,-73.0,127.0,127.0,127.0,106.0,89.0,-104.0
127.0,127.0,129.0,127.0,127.0,161.0,126.0,128.0,30.0,-92.0,-73.0,127.0,127.0,127.0,106.0,89.0,-104.0
127.0,127.0,129.0,127.0,127.0,162.0,126.0,128.0,30.0,-92.0,-73.0,127.0,127.0,127.0,106.0,89.0,-104.0
127.0,126.0,128.0,127.0,127.0,156.0,127.0,128.0,30.0,-92.0,-73.0,127.0,127.0,127.0,106.0,89.0,-104.0
128.0,126.0,127.0,127.0,127.0,156.0,126.0,128.0,30.0,-92.0,-73.0,127.0,127.0,127.0,106.0,89.0,-104.0
128.0,126.0,127.0,127.0,127.0,156.0,126.0,128.0,30.0,-92.0,-73.0,127.0,127.0,127.0,106.0,89.0,-104.0
128.0,126.0,127.0,126.0,127.0,157.0,126.0,128.0,30.0,-92.0,-73.0,127.0,127.0,127.0,106.0,89.0,-104.0
128.0,127.0,127.0,127.0,127.0,158.0,126.0,128.0,30.0,-92.0,-73.0,127.0,127.0,127.0,106.0,89.0,-104.0
128.0,126.0,127.0,126.0,127.0,157.0,126.0,128.0,30.0,-92.0,-73.0,127.0,127.0,127.0,106.0,89.0,-104.0
128.0,127.0,127.0,127.0,127.0,156.0,127.0,128.0,30.0,-92.0,-73.0,127.0,127.0,127.0,106.0,89.0,-104.0
127.0,126.0,127.0,127.0,127.0,156.0,127.0,128.0,30.0,-92.0,-73.0,127.0,127.0,127.0,106.0,89.0,-104.0
127.0,126.0,127.0,127.0,127.0,156.0,127.0,128.0,30.0,-92.0,-73.0,127.0,127.0,127.0,106.0,89.0,-104.0
128.0,126.0,127.0,127.0,127.0,156.0,127.0,128.0,30.0,-92.0,-73.0,127.0,127.0,127.0,106.0,89.0,-104.0
127.0,127.0,126.0,126.0,127.0,157.0,126.0,127.0,30.0,-92.0,-73.0,127.0,127.0,127.0,106.0,89.0,-104.0
127.0,127.0,126.0,126.0,127.0,157.0,126.0,127.0,30.0,-92.0,-73.0,127.0,127.0,127.0,106.0,89.0,-104.0
127.0,126.0,126.0,126.0,127.0,157.0,126.0,127.0,30.0,-92.0,-73.0,127.0,127.0,127.0,106.0,89.0,-104.0
127.0,126.0,126.0,126.0,127.0,157.0,126.0,127.0,30.0,-92.0,-73.0,127.0,127.0,127.0,106.0,89.0,-104.0
127.0,127.0,126.0,127.0,127.0,156.0,126.0,127.0,30.0,-92.0,-73.0,127.0,127.0,127.0,106.0,89.0,-104.0
127.0,127.0,126.0,127.0,127.0,156.0,126.0,128.0,30.0,-92.0,-73.0,127.0,127.0,127.0,106.0,89.0,-104.0
127.0,127.0,126.0,127.0,127.0,157.0,126.0,127.0,30.0,-92.0,-73.0,127.0,127.0,127.0,106.0,89.0,-104.0
127.0,127.0,126.0,127.0,127.0,157.0,126.0,128.0,30.0,-92.0,-73.0,127.0,127.0,127.0,106.0,89.0,-104.0
127.0,127.0,126.0,127.0,127.0,157.0,126.0,128.0,30.0,-92.0,-73.0,127.0,127.0,127.0,106.0,89.0,-104.0
127.0,127.0,126.0,127.0,127.0,157.0,126.0,128.0,30.0,-92.0,-73.0,127.0,127.0,127.0,106.0,89.0,-104.0
126.0,126.0,127.0,126.0,127.0,158.0,126.0,128.0,31.0,-92.0,-73.0,127.0,127.0,127.0,106.0,89.0,-104.0
126.0,126.0,127.0,126.0,127.0,158.0,126.0,128.0,31.0,-92.0,-73.0,127.0,127.0,127.0,106.0,89.0,-104.0
126.0,126.0,127.0,126.0,127.0,158.0,126.0,128.0,31.0,-92.0,-73.0,127.0,127.0,127.0,106.0,89.0,-104.0
125.0,126.0,127.0,126.0,127.0,157.0,126.0,128.0,31.0,-92.0,-73.0,127.0,127.0,127.0,106.0,89.0,-104.0
125.0,126.0,127.0,126.0,127.0,157.0,126.0,128.0,31.0,-92.0,-73.0,127.0,127.0,127.0,106.0,89.0,-104.0
125.0,127.0,126.0,126.0,127.0,158.0,126.0,128.0,31.0,-92.0,-73.0,127.0,127.0,127.0,106.0,89.0,-104.0
125.0,127.0,126.0,126.0,127.0,158.0,126.0,128.0,31.0,-92.0,-73.0,127.0,127.0,127.0,106.0,89.0,-104.0
125.0,127.0,127.0,126.0,127.0,158.0,126.0,128.0,31.0,-92.0,-73.0,127.0,127.0,127.0,106.0,89.0,-104.0
125.0,126.0,127.0,126.0,127.0,158.0,126.0,128.0,31.0,-92.0,-73.0,127.0,127.0,127.0,106.0,89.0,-104.0
125.0,126.0,127.0,126.0,127.0,158.0,126.0,128.0,31.0,-92.0,-73.0,127.0,127.0,127.0,106.0,89.0,-104.0
126.0,126.0,125.0,126.0,126.0,158.0,127.0,128.0,31.0,-92.0,-73.0,127.0,127.0,127.0,106.0,89.0,-104.0
126.0,126.0,125.0,126.0,126.0,158.0,127.0,128.0,31.0,-92.0,-73.0,127.0,127.0,127.0,106.0,89.0,-104.0
126.0,126.0,126.0,127.0,127.0,157.0,127.0,128.0,31.0,-92.0,-73.0,127.0,127.0,127.0,106.0,89.0,-104.0
126.0,126.0,125.0,127.0,127.0,157.0,127.0,128.0,31.0,-92.0,-73.0,127.0,127.0,127.0,106.0,89.0,-104.0
126.0,126.0,125.0,126.0,126.0,158.0,126.0,128.0,31.0,-92.0,-73.0,127.0,127.0,127.0,106.0,89.0,-104.0
126.0,127.0,125.0,126.0,127.0,159.0,127.0,128.0,31.0,-92.0,-73.0,127.0,127.0,127.0,106.0,89.0,-104.0
126.0,126.0,125.0,126.0,126.0,159.0,126.0,128.0,31.0,-92.0,-73.0,127.0,127.0,127.0,106.0,89.0,-104.0
126.0,126.0,125.0,126.0,126.0,159.0,127.0,128.0,31.0,-92.0,-73.0,127.0,127.0,127.0,106.0,89.0,-104.0
126.0,126.0,125.0,126.0,126.0,159.0,126.0,128.0,31.0,-92.0,-73.0,127.0,127.0,127.0,106.0,89.0,-104.0
126.0,126.0,125.0,126.0,126.0,159.0,127.0,128.0,31.0,-92.0,-73.0,127.0,127.0,127.0,106.0,89.0,-104.0
127.0,126.0,125.0,126.0,126.0,155.0,127.0,128.0,31.0,-92.0,-73.0,127.0,127.0,127.0,106.0,89.0,-104.0
127.0,126.0,125.0,127.0,127.0,155.0,127.0,128.0,31.0,-92.0,-73.0,127.0,127.0,127.0,106.0,89.0,-104.0
127.0,126.0,125.0,127.0,127.0,155.0,127.0,128.0,31.0,-92.0,-73.0,127.0,127.0,127.0,106.0,89.0,-104.0
127.0,126.0,125.0,126.0,126.0,155.0,127.0,128.0,31.0,-92.0,-73.0,127.0,127.0,127.0,106.0,89.0,-104.0
127.0,127.0,125.0,127.0,127.0,156.0,126.0,128.0,31.0,-92.0,-73.0,127.0,127.0,127.0,106.0,89.0,-104.0
127.0,126.0,125.0,126.0,126.0,156.0,127.0,128.0,31.0,-92.0,-73.0,127.0,127.0,127.0,106.0,89.0,-104.0
127.0,126.0,125.0,126.0,126.0,156.0,126.0,128.0,31.0,-92.0,-73.0,127.0,127.0,127.0,106.0,89.0,-104.0
127.0,126.0,125.0,126.0,126.0,156.0,126.0,128.0,31.0,-92.0,-73.0,127.0,127.0,127.0,106.0,89.0,-104.0
127.0,126.0,125.0,126.0,126.0,156.0,126.0,128.0,31.0,-92.0,-73.0,127.0,127.0,127.0,106.0,89.0,-104.0
127.0,126.0,125.0,126.0,126.0,156.0,126.0,128.0,31.0,-92.0,-73.0,127.0,127.0,127.0,106.0,89.0,-104.0
127.0,126.0,126.0,127.0,126.0,152.0,127.0,128.0,31.0,-93.0,-73.0,127.0,127.0,127.0,106.0,89.0,-104.0
127.0,126.0,126.0,127.0,126.0,152.0,127.0,128.0,31.0,-93.0,-73.0,127.0,127.0,127.0,106.0,89.0,-104.0
127.0,126.0,126.0,127.0,126.0,152.0,127.0,128.0,31.0,-93.0,-73.0,127.0,127.0,127.0,106.0,89.0,-104.0
127.0,126.0,126.0,127.0,126.0,154.0,127.0,128.0,31.0,-93.0,-73.0,127.0,127.0,127.0,106.0,89.0,-104.0
127.0,126.0,126.0,127.0,126.0,154.0,127.0,128.0,31.0,-93.0,-73.0,127.0,127.0,127.0,106.0,89.0,-104.0
127.0,125.0,126.0,127.0,126.0,154.0,127.0,128.0,31.0,-93.0,-73.0,127.0,127.0,127.0,106.0,89.0,-104.0
127.0,125.0,126.0,127.0,126.0,154.0,127.0,128.0,31.0,-93.0,-73.0,127.0,127.0,127.0,106.0,89.0,-104.0
127.0,125.0,126.0,127.0,127.0,154.0,127.0,128.0,31.0,-93.0,-73.0,127.0,127.0,127.0,106.0,89.0,-104.0
127.0,125.0,126.0,127.0,127.0,154.0,127.0,128.0,31.0,-93.0,-73.0,127.0,127.0,127.0,106.0,89.0,-104.0
127.0,125.0,126.0,127.0,126.0,153.0,127.0,128.0,31.0,-93.0,-73.0,127.0,127.0,127.0,106.0,89.0,-104.0
127.0,126.0,127.0,127.0,126.0,152.0,127.0,128.0,31.0,-93.0,-74.0,127.0,127.0,127.0,106.0,89.0,-104.0
127.0,126.0,127.0,127.0,126.0,152.0,127.0,128.0,31.0,-93.0,-74.0,127.0,127.0,127.0,106.0,89.0,-104.0
127.0,126.0,127.0,127.0,126.0,153.0,127.0,128.0,31.0,-93.0,-74.0,127.0,127.0,127.0,106.0,89.0,-104.0
127.0,126.0,128.0,127.0,126.0,154.0,127.0,128.0,31.0,-93.0,-74.0,127.0,127.0,127.0,106.0,89.0,-104.0
127.0,126.0,128.0,127.0,126.0,153.0,127.0,128.0,31.0,-93.0,-74.0,127.0,127.0,127.0,106.0,89.0,-104.0
127.0,126.0,128.0,127.0,126.0,153.0,127.0,128.0,31.0,-93.0,-74.0,127.0,127.0,127.0,106.0,89.0,-104.0
127.0,125.0,128.0,126.0,126.0,153.0,127.0,128.0,31.0,-93.0,-74.0,127.0,127.0,127.0,106.0,89.0,-104.0
127.0,125.0,128.0,126.0,126.0,153.0,127.0,128.0,31.0,-93.0,-74.0,127.0,127.0,127.0,106.0,89.0,-104.0
127.0,125.0,128.0,126.0,126.0,153.0,127.0,128.0,31.0,-93.0,-74.0,127.0,127.0,127.0,106.0,89.0,-104.0
127.0,126.0,127.0,127.0,126.0,152.0,127.0,128.0,31.0,-93.0,-74.0,127.0,127.0,127.0,106.0,89.0,-104.0
127.0,126.0,129.0,127.0,127.0,152.0,126.0,128.0,31.0,-93.0,-74.0,127.0,127.0,127.0,106.0,89.0,-104.0
127.0,126.0,129.0,127.0,126.0,153.0,126.0,128.0,31.0,-93.0,-74.0,127.0,127.0,127.0,106.0,89.0,-104.0
127.0,126.0,128.0,127.0,126.0,153.0,126.0,128.0,31.0,-93.0,-74.0,127.0,127.0,127.0,106.0,89.0,-104.0
127.0,126.0,129.0,127.0,126.0,153.0,126.0,128.0,31.0,-93.0,-74.0,127.0,127.0,127.0,106.0,89.0,-104.0
127.0,126.0,129.0,127.0,126.0,153.0,126.0,128.0,31.0,-93.0,-74.0,127.0,127.0,127.0,106.0,89.0,-104.0
127.0,126.0,129.0,127.0,126.0,153.0,126.0,128.0,31.0,-93.0,-74.0,127.0,127.0,127.0,106.0,89.0,-104.0
127.0,126.0,129.0,127.0,126.0,153.0,126.0,128.0,31.0,-93.0,-74.0,127.0,127.0,127.0,106.0,89.0,-104.0
127.0,126.0,129.0,127.0,126.0,153.0,126.0,128.0,31.0,-93.0,-74.0,127.0,127.0,127.0,106.0,89.0,-104.0
127.0,126.0,129.0,127.0,127.0,152.0,127.0,128.0,31.0,-93.0,-74.0,127.0,127.0,127.0,106.0,89.0,-104.0
127.0,126.0,129.0,127.0,126.0,152.0,127.0,128.0,31.0,-93.0,-74.0,127.0,127.0,127.0,106.0,89.0,-104.0
127.0,126.0,127.0,127.0,126.0,153.0,126.0,128.0,31.0,-93.0,-74.0,127.0,127.0,127.0,106.0,89.0,-104.0
127.0,126.0,127.0,127.0,126.0,153.0,126.0,128.0,31.0,-93.0,-74.0,127.0,127.0,127.0,106.0,89.0,-104.0
127.0,126.0,127.0,126.0,126.0,153.0,126.0,128.0,31.0,-93.0,-74.0,127.0,127.0,127.0,106.0,89.0,-104.0
127.0,126.0,127.0,126.0,126.0,154.0,126.0,128.0,31.0,-93.0,-74.0,127.0,127.0,127.0,106.0,89.0,-104.0
127.0,126.0,127.0,126.0,126.0,155.0,126.0,128.0,31.0,-93.0,-74.0,127.0,127.0,127.0,106.0,89.0,-104.0
127.0,126.0,127.0,126.0,126.0,155.0,126.0,128.0,31.0,-93.0,-74.0,127.0,127.0,127.0,106.0,89.0,-104.0
127.0,126.0,127.0,126.0,126.0,155.0,126.0,128.0,31.0,-93.0,-74.0,127.0,127.0,127.0,106.0,89.0,-104.0
127.0,126.0,127.0,127.0,126.0,152.0,126.0,128.0,31.0,-93.0,-74.0,127.0,127.0,127.0,106.0,89.0,-104.0
127.0,126.0,127.0,127.0,126.0,153.0,126.0,128.0,31.0,-93.0,-74.0,127.0,127.0,127.0,106.0,89.0,-104.0
127.0,126.0,127.0,127.0,126.0,153.0,126.0,128.0,31.0,-93.0,-74.0,127.0,127.0,127.0,106.0,89.0,-104.0
127.0,126.0,125.0,127.0,127.0,155.0,127.0,128.0,31.0,-93.0,-74.0,127.0,127.0,127.0,106.0,89.0,-104.0
127.0,126.0,125.0,127.0,127.0,155.0,127.0,128.0,31.0,-93.0,-74.0,127.0,127.0,127.0,106.0,89.0,-104.0
127.0,126.0,125.0,127.0,127.0,155.0,127.0,128.0,31.0,-93.0,-74.0,127.0,127.0,127.0,106.0,89.0,-104.0
127.0,126.0,125.0,127.0,127.0,155.0,127.0,128.0,31.0,-93.0,-74.0,127.0,127.0,127.0,106.0,89.0,-104.0
127.0,126.0,125.0,127.0,127.0,155.0,127.0,128.0,31.0,-93.0,-74.0,127.0,127.0,127.0,106.0,89.0,-104.0
127.0,126.0,125.0,127.0,127.0,154.0,127.0,128.0,31.0,-93.0,-74.0,127.0,127.0,127.0,106.0,89.0,-104.0
127.0,127.0,125.0,127.0,127.0,155.0,127.0,128.0,31.0,-93.0,-74.0,127.0,127.0,127.0,106.0,89.0,-104.0
127.0,127.0,125.0,127.0,127.0,155.0,127.0,128.0,31.0,-93.0,-74.0,127.0,127.0,127.0,106.0,89.0,-104.0
127.0,127.0,125.0,127.0,127.0,155.0,127.0,128.0,31.0,-93.0,-74.0,127.0,127.0,127.0,106.0,89.0,-104.0
127.0,127.0,125.0,127.0,127.0,155.0,127.0,128.0,31.0,-93.0,-74.0,127.0,127.0,127.0,106.0,89.0,-104.0
127.0,127.0,125.0,127.0,127.0,154.0,126.0,128.0,31.0,-93.0,-74.0,127.0,127.0,127.0,106.0,89.0,-104.0
127.0,127.0,125.0,127.0,127.0,154.0,126.0,127.0,31.0,-93.0,-74.0,127.0,127.0,127.0,106.0,89.0,-104.0
127.0,126.0,125.0,127.0,127.0,153.0,126.0,127.0,31.0,-93.0,-74.0,127.0,127.0,127.0,106.0,89.0,-104.0
127.0,126.0,126.0,127.0,126.0,153.0,126.0,128.0,31.0,-93.0,-74.0,127.0,127.0,127.0,106.0,89.0,-104.0
127.0,126.0,126.0,127.0,127.0,153.0,126.0,127.0,31.0,-93.0,-74.0,127.0,127.0,127.0,106.0,89.0,-104.0
127.0,127.0,125.0,127.0,127.0,153.0,126.0,128.0,31.0,-93.0,-74.0,127.0,127.0,127.0,106.0,89.0,-104.0
127.0,127.0,125.0,127.0,127.0,154.0,126.0,128.0,31.0,-93.0,-74.0,127.0,127.0,127.0,106.0,89.0,-104.0
127.0,127.0,125.0,127.0,127.0,154.0,126.0,128.0,31.0,-93.0,-74.0,127.0,127.0,127.0,106.0,89.0,-104.0
127.0,127.0,125.0,127.0,127.0,154.0,126.0,128.0,31.0,-93.0,-74.0,127.0,127.0,127.0,106.0,89.0,-104.0
127.0,127.0,125.0,127.0,127.0,154.0,126.0,128.0,31.0,-93.0,-74.0,127.0,127.0,127.0,106.0,89.0,-104.0
127.0,127.0,125.0,127.0,127.0,152.0,126.0,128.0,31.0,-93.0,-73.0,127.0,127.0,127.0,106.0,89.0,-104.0
127.0,126.0,125.0,126.0,126.0,151.0,126.0,128.0,31.0,-93.0,-73.0,127.0,127.0,127.0,106.0,89.0,-104.0
127.0,126.0,125.0,126.0,126.0,151.0,126.0,128.0,31.0,-93.0,-73.0,127.0,127.0,127.0,106.0,89.0,-104.0
127.0,126.0,125.0,126.0,127.0,151.0,126.0,128.0,31.0,-93.0,-73.0,127.0,127.0,127.0,106.0,89.0,-104.0
127.0,127.0,125.0,126.0,126.0,152.0,126.0,127.0,31.0,-93.0,-73.0,127.0,127.0,127.0,106.0,89.0,-104.0
127.0,127.0,125.0,127.0,126.0,152.0,126.0,128.0,31.0,-93.0,-73.0,127.0,127.0,127.0,106.0,89.0,-104.0
127.0,127.0,125.0,127.0,126.0,152.0,126.0,128.0,31.0,-93.0,-73.0,127.0,127.0,127.0,106.0,89.0,-104.0
127.0,127.0,125.0,127.0,126.0,152.0,126.0,128.0,31.0,-93.0,-73.0,127.0,127.0,127.0,106.0,89.0,-104.0
127.0,127.0,125.0,127.0,126.0,152.0,126.0,128.0,31.0,-93.0,-73.0,127.0,127.0,127.0,106.0,89.0,-104.0
127.0,127.0,125.0,127.0,127.0,152.0,126.0,128.0,31.0,-93.0,-73.0,127.0,127.0,127.0,106.0,89.0,-104.0
127.0,127.0,125.0,127.0,126.0,151.0,126.0,128.0,31.0,-92.0,-73.0,127.0,127.0,127.0,106.0,89.0,-104.0
127.0,127.0,125.0,126.0,126.0,151.0,126.0,128.0,31.0,-92.0,-73.0,127.0,127.0,127.0,106.0,89.0,-104.0
127.0,126.0,125.0,126.0,126.0,151.0,126.0,128.0,31.0,-92.0,-73.0,127.0,127.0,127.0,106.0,89.0,-104.0
127.0,127.0,124.0,127.0,126.0,150.0,127.0,128.0,31.0,-92.0,-73.0,127.0,127.0,127.0,106.0,89.0,-104.0
127.0,128.0,124.0,127.0,126.0,151.0,126.0,128.0,31.0,-92.0,-73.0,127.0,127.0,127.0,106.0,89.0,-104.0
127.0,128.0,124.0,127.0,127.0,151.0,127.0,128.0,31.0,-92.0,-73.0,127.0,127.0,127.0,106.0,89.0,-104.0
127.0,127.0,124.0,127.0,126.0,151.0,127.0,128.0,31.0,-92.0,-73.0,127.0,127.0,127.0,106.0,89.0,-104.0
127.0,127.0,124.0,127.0,126.0,151.0,126.0,128.0,31.0,-92.0,-73.0,127.0,127.0,127.0,106.0,89.0,-104.0
127.0,127.0,124.0,127.0,126.0,151.0,126.0,128.0,31.0,-92.0,-73.0,127.0,127.0,127.0,106.0,89.0,-104.0
127.0,127.0,125.0,127.0,126.0,151.0,126.0,128.0,31.0,-92.0,-73.0,127.0,127.0,127.0,106.0,89.0,-104.0
127.0,127.0,125.0,127.0,127.0,153.0,126.0,128.0,31.0,-92.0,-73.0,127.0,127.0,127.0,106.0,89.0,-104.0
127.0,126.0,125.0,127.0,127.0,152.0,126.0,128.0,31.0,-92.0,-73.0,127.0,127.0,127.0,106.0,89.0,-104.0
127.0,127.0,124.0,127.0,127.0,152.0,126.0,128.0,31.0,-92.0,-73.0,127.0,127.0,127.0,106.0,89.0,-104.0
127.0,127.0,124.0,127.0,127.0,153.0,126.0,128.0,31.0,-92.0,-73.0,127.0,127.0,127.0,106.0,89.0,-104.0
127.0,127.0,124.0,127.0,127.0,153.0,126.0,128.0,31.0,-92.0,-73.0,127.0,127.0,127.0,106.0,89.0,-104.0
127.0,127.0,124.0,127.0,127.0,153.0,126.0,128.0,31.0,-92.0,-73.0,127.0,127.0,127.0,106.0,89.0,-104.0
127.0,127.0,124.0,127.0,127.0,153.0,126.0,128.0,31.0,-92.0,-73.0,127.0,127.0,127.0,106.0,89.0,-104.0
127.0,127.0,124.0,127.0,127.0,153.0,126.0,128.0,31.0,-92.0,-73.0,127.0,127.0,127.0,106.0,89.0,-104.0
127.0,127.0,125.0,127.0,127.0,153.0,126.0,128.0,31.0,-92.0,-73.0,127.0,127.0,127.0,106.0,89.0,-104.0
127.0,127.0,125.0,127.0,127.0,152.0,126.0,128.0,31.0,-92.0,-73.0,127.0,127.0,127.0,106.0,89.0,-104.0
127.0,126.0,126.0,126.0,126.0,153.0,127.0,128.0,31.0,-92.0,-73.0,127.0,127.0,127.0,106.0,89.0,-104.0
127.0,127.0,125.0,126.0,126.0,153.0,127.0,128.0,31.0,-92.0,-73.0,127.0,127.0,127.0,106.0,89.0,-104.0
127.0,127.0,125.0,127.0,126.0,154.0,127.0,128.0,31.0,-92.0,-73.0,127.0,127.0,127.0,106.0,89.0,-104.0
127.0,127.0,125.0,127.0,126.0,154.0,127.0,128.0,31.0,-92.0,-73.0,127.0,127.0,127.0,106.0,89.0,-104.0
127.0,127.0,125.0,127.0,126.0,154.0,127.0,128.0,31.0,-92.0,-73.0,127.0,127.0,127.0,106.0,89.0,-104.0
127.0,127.0,125.0,127.0,126.0,154.0,127.0,128.0,31.0,-92.0,-73.0,127.0,127.0,127.0,106.0,89.0,-104.0
127.0,127.0,125.0,127.0,126.0,154.0,127.0,128.0,31.0,-92.0,-73.0,127.0,127.0,127.0,106.0,89.0,-104.0
127.0,126.0,125.0,126.0,126.0,154.0,127.0,128.0,31.0,-92.0,-73.0,127.0,127.0,127.0,106.0,89.0,-104.0
127.0,126.0,125.0,126.0,126.0,153.0,127.0,128.0,31.0,-92.0,-73.0,127.0,127.0,127.0,106.0,89.0,-104.0
127.0,126.0,125.0,126.0,126.0,153.0,127.0,128.0,31.0,-92.0,-73.0,127.0,127.0,127.0,106.0,89.0,-104.0
127.0,127.0,126.0,127.0,127.0,151.0,126.0,127.0,31.0,-92.0,-73.0,127.0,127.0,127.0,106.0,89.0,-104.0
127.0,127.0,126.0,127.0,127.0,152.0,126.0,128.0,31.0,-92.0,-73.0,127.0,127.0,127.0,106.0,89.0,-104.0
127.0,127.0,126.0,127.0,127.0,152.0,126.0,128.0,31.0,-92.0,-73.0,127.0,127.0,127.0,106.0,89.0,-104.0
127.0,127.0,126.0,127.0,127.0,152.0,126.0,128.0,31.0,-92.0,-73.0,127.0,127.0,127.0,106.0,89.0,-104.0
127.0,127.0,126.0,127.0,127.0,152.0,126.0,128.0,31.0,-92.0,-73.0,127.0,127.0,127.0,106.0,89.0,-104.0
127.0,127.0,126.0,127.0,127.0,152.0,126.0,128.0,31.0,-92.0,-73.0,127.0,127.0,127.0,106.0,89.0,-104.0
127.0,127.0,126.0,127.0,127.0,152.0,126.0,128.0,31.0,-92.0,-73.0,127.0,127.0,127.0,106.0,89.0,-104.0
127.0,127.0,126.0,127.0,127.0,152.0,126.0,128.0,31.0,-92.0,-73.0,127.0,127.0,127.0,106.0,89.0,-104.0
127.0,127.0,126.0,127.0,127.0,152.0,126.0,128.0,31.0,-92.0,-73.0,127.0,127.0,127.0,106.0,89.0,-104.0
127.0,127.0,126.0,127.0,127.0,151.0,126.0,128.0,31.0,-92.0,-73.0,127.0,127.0,127.0,106.0,89.0,-104.0
127.0,126.0,126.0,127.0,127.0,149.0,126.0,128.0,31.0,-92.0,-73.0,127.0,127.0,127.0,106.0,89.0,-104.0
127.0,126.0,126.0,127.0,127.0,149.0,126.0,128.0,31.0,-92.0,-73.0,127.0,127.0,127.0,106.0,89.0,-104.0
127.0,126.0,127.0,127.0,127.0,150.0,126.0,128.0,31.0,-92.0,-73.0,127.0,127.0,127.0,106.0,89.0,-104.0
127.0,126.0,127.0,127.0,127.0,151.0,126.0,128.0,31.0,-92.0,-73.0,127.0,127.0,127.0,106.0,89.0,-104.0
127.0,127.0,127.0,127.0,127.0,151.0,126.0,128.0,31.0,-92.0,-73.0,127.0,127.0,127.0,106.0,89.0,-104.0
127.0,126.0,127.0,127.0,127.0,151.0,126.0,128.0,31.0,-92.0,-73.0,127.0,127.0,127.0,106.0,89.0,-104.0
127.0,126.0,127.0,127.0,127.0,151.0,126.0,128.0,31.0,-92.0,-73.0,127.0,127.0,127.0,106.0,89.0,-104.0
127.0,126.0,127.0,127.0,127.0,151.0,126.0,128.0,31.0,-92.0,-73.0,127.0,127.0,127.0,106.0,89.0,-104.0
127.0,126.0,127.0,127.0,126.0,151.0,126.0,128.0,31.0,-92.0,-73.0,127.0,127.0,127.0,106.0,89.0,-104.0
127.0,126.0,126.0,127.0,127.0,149.0,126.0,128.0,31.0,-92.0,-73.0,127.0,127.0,127.0,106.0,89.0,-104.0
128.0,127.0,128.0,127.0,127.0,151.0,127.0,128.0,31.0,-92.0,-73.0,127.0,127.0,127.0,106.0,89.0,-104.0
127.0,127.0,128.0,127.0,127.0,151.0,127.0,128.0,31.0,-92.0,-73.0,127.0,127.0,127.0,106.0,89.0,-104.0
127.0,127.0,128.0,127.0,126.0,151.0,127.0,128.0,31.0,-92.0,-73.0,127.0,127.0,127.0,106.0,89.0,-104.0
127.0,127.0,128.0,127.0,126.0,151.0,127.0,128.0,31.0,-92.0,-73.0,127.0,127.0,127.0,106.0,89.0,-104.0
127.0,126.0,128.0,127.0,126.0,150.0,127.0,128.0,31.0,-92.0,-73.0,127.0,127.0,127.0,106.0,89.0,-104.0
127.0,126.0,128.0,127.0,126.0,150.0,127.0,128.0,31.0,-92.0,-73.0,127.0,127.0,127.0,106.0,89.0,-104.0
127.0,126.0,128.0,127.0,126.0,150.0,127.0,128.0,31.0,-92.0,-73.0,127.0,127.0,127.0,106.0,89.0,-104.0
127.0,126.0,128.0,127.0,126.0,150.0,127.0,128.0,31.0,-92.0,-73.0,127.0,127.0,127.0,106.0,89.0,-104.0
128.0,127.0,128.0,127.0,127.0,151.0,127.0,128.0,31.0,-92.0,-73.0,127.0,127.0,127.0,106.0,89.0,-104.0
128.0,127.0,128.0,127.0,127.0,151.0,127.0,128.0,31.0,-92.0,-73.0,127.0,127.0,127.0,106.0,89.0,-104.0
127.0,127.0,127.0,127.0,127.0,151.0,127.0,128.0,31.0,-92.0,-73.0,127.0,127.0,127.0,106.0,89.0,-104.0
127.0,127.0,127.0,127.0,127.0,151.0,127.0,128.0,31.0,-92.0,-73.0,127.0,127.0,127.0,106.0,89.0,-104.0
127.0,126.0,127.0,127.0,127.0,150.0,127.0,128.0,31.0,-92.0,-73.0,127.0,127.0,127.0,106.0,89.0,-104.0
127.0,126.0,127.0,127.0,127.0,150.0,127.0,128.0,31.0,-92.0,-73.0,127.0,127.0,127.0,106.0,89.0,-104.0
127.0,126.0,127.0,127.0,127.0,150.0,127.0,128.0,31.0,-92.0,-73.0,127.0,127.0,127.0,106.0,89.0,-104.0
127.0,126.0,127.0,127.0,127.0,150.0,127.0,128.0,31.0,-92.0,-73.0,127.0,127.0,127.0,106.0,89.0,-104.0
127.0,127.0,127.0,127.0,127.0,151.0,127.0,128.0,31.0,-92.0,-73.0,127.0,127.0,127.0,106.0,89.0,-104.0
127.0,127.0,127.0,127.0,127.0,151.0,127.0,128.0,31.0,-92.0,-73.0,127.0,127.0,127.0,106.0,89.0,-104.0
127.0,127.0,127.0,127.0,127.0,150.0,127.0,128.0,31.0,-92.0,-73.0,127.0,127.0,127.0,106.0,89.0,-104.0
127.0,127.0,127.0,127.0,127.0,151.0,127.0,128.0,31.0,-92.0,-73.0,127.0,127.0,127.0,106.0,89.0,-104.0
127.0,127.0,126.0,127.0,127.0,151.0,126.0,128.0,31.0,-92.0,-73.0,127.0,127.0,127.0,106.0,89.0,-104.0
127.0,127.0,126.0,127.0,127.0,150.0,126.0,128.0,31.0,-92.0,-73.0,127.0,127.0,127.0,106.0,89.0,-104.0
127.0,126.0,126.0,127.0,127.0,150.0,126.0,128.0,31.0,-92.0,-73.0,127.0,127.0,127.0,106.0,89.0,-104.0
127.0,126.0,126.0,126.0,126.0,150.0,126.0,128.0,31.0,-92.0,-73.0,127.0,127.0,127.0,106.0,89.0,-104.0
127.0,126.0,126.0,126.0,126.0,150.0,126.0,128.0,31.0,-92.0,-73.0,127.0,127.0,127.0,106.0,89.0,-104.0
127.0,127.0,126.0,127.0,127.0,151.0,126.0,128.0,31.0,-92.0,-73.0,127.0,127.0,127.0,106.0,89.0,-104.0
127.0,127.0,126.0,127.0,127.0,151.0,126.0,128.0,31.0,-92.0,-73.0,127.0,127.0,127.0,106.0,89.0,-104.0
127.0,127.0,126.0,127.0,127.0,151.0,126.0,128.0,31.0,-92.0,-73.0,127.0,127.0,127.0,106.0,89.0,-104.0
127.0,127.0,126.0,127.0,127.0,151.0,126.0,128.0,31.0,-92.0,-73.0,127.0,127.0,127.0,106.0,89.0,-104.0
127.0,127.0,126.0,127.0,127.0,151.0,126.0,128.0,31.0,-92.0,-73.0,127.0,127.0,127.0,106.0,89.0,-104.0
128.0,127.0,126.0,127.0,127.0,149.0,127.0,128.0,31.0,-92.0,-73.0,127.0,127.0,127.0,106.0,89.0,-104.0
128.0,127.0,126.0,127.0,127.0,149.0,127.0,128.0,31.0,-92.0,-73.0,127.0,127.0,127.0,106.0,89.0,-104.0
128.0,126.0,126.0,127.0,127.0,149.0,127.0,128.0,31.0,-92.0,-73.0,127.0,127.0,127.0,106.0,89.0,-104.0
128.0,126.0,126.0,127.0,127.0,149.0,127.0,128.0,31.0,-92.0,-73.0,127.0,127.0,127.0,106.0,89.0,-104.0
128.0,127.0,126.0,127.0,127.0,150.0,126.0,128.0,31.0,-92.0,-73.0,127.0,127.0,127.0,106.0,89.0,-104.0
128.0,127.0,126.0,127.0,127.0,150.0,126.0,128.0,31.0,-92.0,-73.0,127.0,127.0,127.0,106.0,89.0,-104.0
128.0,127.0,126.0,127.0,127.0,150.0,126.0,128.0,31.0,-92.0,-73.0,127.0,127.0,127.0,106.0,89.0,-104.0
127.0,127.0,126.0,127.0,127.0,150.0,126.0,128.0,31.0,-92.0,-73.0,127.0,127.0,127.0,106.0,89.0,-104.0
128.0,127.0,126.0,127.0,127.0,150.0,126.0,128.0,31.0,-92.0,-73.0,127.0,127.0,127.0,106.0,89.0,-104.0
128.0,127.0,126.0,127.0,127.0,150.0,126.0,128.0,31.0,-92.0,-73.0,127.0,127.0,127.0,106.0,89.0,-104.0
128.0,126.0,126.0,127.0,127.0,150.0,127.0,128.0,31.0,-92.0,-73.0,127.0,127.0,127.0,106.0,89.0,-104.0
128.0,126.0,126.0,127.0,127.0,150.0,127.0,128.0,31.0,-92.0,-73.0,127.0,127.0,127.0,106.0,89.0,-104.0
128.0,126.0,126.0,127.0,126.0,150.0,127.0,128.0,31.0,-92.0,-73.0,127.0,127.0,127.0,106.0,89.0,-104.0
128.0,127.0,126.0,127.0,127.0,151.0,127.0,128.0,31.0,-92.0,-73.0,127.0,127.0,127.0,106.0,89.0,-104.0
128.0,127.0,126.0,127.0,127.0,151.0,127.0,128.0,31.0,-92.0,-73.0,127.0,127.0,127.0,106.0,89.0,-104.0
128.0,127.0,126.0,127.0,127.0,151.0,127.0,128.0,31.0,-92.0,-73.0,127.0,127.0,127.0,106.0,89.0,-104.0
128.0,127.0,126.0,127.0,127.0,150.0,127.0,128.0,31.0,-92.0,-73.0,127.0,127.0,127.0,106.0,89.0,-104.0
128.0,127.0,126.0,127.0,127.0,151.0,127.0,128.0,31.0,-92.0,-73.0,127.0,127.0,127.0,106.0,89.0,-104.0
128.0,127.0,126.0,127.0,127.0,151.0,127.0,128.0,31.0,-92.0,-73.0,127.0,127.0,127.0,106.0,89.0,-104.0
128.0,127.0,126.0,127.0,127.0,150.0,127.0,128.0,31.0,-92.0,-73.0,127.0,127.0,127.0,106.0,89.0,-104.0
127.0,126.0,126.0,127.0,127.0,151.0,127.0,128.0,31.0,-92.0,-73.0,127.0,127.0,127.0,106.0,89.0,-104.0
127.0,126.0,126.0,127.0,127.0,151.0,127.0,128.0,31.0,-92.0,-73.0,127.0,127.0,127.0,106.0,89.0,-104.0
127.0,127.0,126.0,127.0,127.0,151.0,127.0,128.0,31.0,-92.0,-73.0,127.0,127.0,127.0,106.0,89.0,-104.0
127.0,127.0,126.0,127.0,127.0,151.0,127.0,128.0,31.0,-92.0,-73.0,127.0,127.0,127.0,106.0,89.0,-104.0
127.0,127.0,126.0,127.0,127.0,151.0,127.0,128.0,31.0,-92.0,-73.0,127.0,127.0,127.0,106.0,89.0,-104.0
127.0,127.0,126.0,127.0,127.0,151.0,127.0,128.0,31.0,-92.0,-73.0,127.0,127.0,127.0,106.0,89.0,-104.0
127.0,127.0,126.0,127.0,127.0,151.0,127.0,128.0,31.0,-92.0,-73.0,127.0,127.0,127.0,106.0,89.0,-104.0
127.0,127.0,126.0,127.0,127.0,151.0,127.0,128.0,31.0,-92.0,-73.0,127.0,127.0,127.0,106.0,89.0,-104.0
127.0,126.0,126.0,127.0,127.0,151.0,127.0,128.0,31.0,-92.0,-73.0,127.0,127.0,127.0,106.0,89.0,-104.0
127.0,126.0,126.0,127.0,127.0,151.0,127.0,128.0,31.0,-92.0,-73.0,127.0,127.0,127.0,106.0,89.0,-104.0
127.0,126.0,127.0,127.0,127.0,151.0,127.0,128.0,31.0,-92.0,-73.0,127.0,127.0,127.0,106.0,89.0,-104.0
127.0,128.0,126.0,127.0,127.0,152.0,127.0,128.0,31.0,-92.0,-73.0,127.0,127.0,127.0,106.0,89.0,-104.0
128.0,128.0,126.0,127.0,127.0,152.0,127.0,128.0,31.0,-92.0,-73.0,127.0,127.0,127.0,106.0,89.0,-104.0
128.0,127.0,126.0,127.0,127.0,152.0,127.0,128.0,31.0,-92.0,-73.0,127.0,127.0,127.0,106.0,89.0,-104.0
128.0,127.0,126.0,127.0,127.0,152.0,127.0,128.0,31.0,-92.0,-73.0,127.0,127.0,127.0,106.0,89.0,-104.0
128.0,127.0,126.0,127.0,127.0,152.0,127.0,128.0,31.0,-92.0,-73.0,127.0,127.0,127.0,106.0,89.0,-104.0
128.0,127.0,126.0,127.0,127.0,152.0,127.0,128.0,31.0,-92.0,-73.0,127.0,127.0,127.0,106.0,89.0,-104.0
128.0,127.0,126.0,127.0,127.0,152.0,127.0,128.0,31.0,-92.0,-73.0,127.0,127.0,127.0,106.0,89.0,-104.0
128.0,127.0,127.0,127.0,127.0,152.0,127.0,128.0,31.0,-92.0,-73.0,127.0,127.0,127.0,106.0,89.0,-104.0
127.0,126.0,127.0,127.0,127.0,152.0,127.0,128.0,31.0,-92.0,-73.0,127.0,127.0,127.0,106.0,89.0,-104.0
127.0,126.0,126.0,127.0,126.0,148.0,126.0,128.0,31.0,-92.0,-73.0,127.0,127.0,127.0,106.0,89.0,-104.0
127.0,126.0,126.0,127.0,126.0,148.0,126.0,128.0,31.0,-92.0,-73.0,127.0,127.0,127.0,106.0,89.0,-104.0
127.0,126.0,126.0,127.0,126.0,148.0,126.0,128.0,31.0,-92.0,-73.0,127.0,127.0,127.0,106.0,89.0,-104.0
127.0,127.0,126.0,127.0,127.0,149.0,126.0,128.0,31.0,-92.0,-73.0,127.0,127.0,127.0,106.0,89.0,-104.0
127.0,127.0,126.0,127.0,127.0,150.0,126.0,128.0,31.0,-92.0,-73.0,127.0,127.0,127.0,106.0,89.0,-104.0
127.0,127.0,126.0,127.0,126.0,150.0,126.0,128.0,31.0,-92.0,-73.0,127.0,127.0,127.0,106.0,89.0,-104.0
127.0,127.0,126.0,127.0,126.0,149.0,126.0,128.0,31.0,-92.0,-73.0,127.0,127.0,127.0,106.0,89.0,-104.0
127.0,126.0,126.0,127.0,126.0,149.0,126.0,128.0,31.0,-92.0,-73.0,127.0,127.0,127.0,106.0,89.0,-104.0
127.0,126.0,126.0,127.0,126.0,149.0,126.0,128.0,31.0,-92.0,-73.0,127.0,127.0,127.0,106.0,89.0,-104.0
127.0,126.0,126.0,126.0,126.0,150.0,126.0,128.0,31.0,-92.0,-73.0,127.0,127.0,127.0,106.0,89.0,-104.0
127.0,127.0,126.0,127.0,126.0,148.0,127.0,128.0,31.0,-92.0,-73.0,127.0,127.0,127.0,106.0,89.0,-104.0
127.0,127.0,126.0,127.0,126.0,148.0,127.0,128.0,31.0,-92.0,-73.0,127.0,127.0,127.0,106.0,89.0,-104.0
127.0,127.0,126.0,126.0,126.0,149.0,127.0,128.0,31.0,-92.0,-73.0,127.0,127.0,127.0,106.0,89.0,-104.0
127.0,127.0,126.0,126.0,126.0,150.0,126.0,128.0,31.0,-92.0,-73.0,127.0,127.0,127.0,106.0,89.0,-104.0
127.0,127.0,126.0,126.0,126.0,150.0,127.0,128.0,31.0,-92.0,-73.0,127.0,127.0,127.0,106.0,89.0,-104.0
127.0,127.0,126.0,126.0,126.0,150.0,127.0,128.0,31.0,-92.0,-73.0,127.0,127.0,127.0,106.0,89.0,-104.0
127.0,127.0,126.0,126.0,126.0,150.0,127.0,128.0,31.0,-92.0,-73.0,127.0,127.0,127.0,106.0,89.0,-104.0
127.0,127.0,126.0,126.0,126.0,150.0,127.0,128.0,31.0,-92.0,-73.0,127.0,127.0,127.0,106.0,89.0,-104.0
127.0,127.0,126.0,126.0,126.0,150.0,126.0,128.0,31.0,-92.0,-73.0,127.0,127.0,127.0,106.0,89.0,-104.0
127.0,127.0,126.0,127.0,126.0,148.0,127.0,128.0,31.0,-92.0,-73.0,127.0,127.0,127.0,106.0,89.0,-104.0
128.0,127.0,127.0,127.0,127.0,148.0,127.0,128.0,31.0,-92.0,-73.0,127.0,127.0,127.0,106.0,89.0,-104.0
128.0,127.0,127.0,127.0,127.0,148.0,127.0,128.0,31.0,-92.0,-73.0,127.0,127.0,127.0,106.0,89.0,-104.0
128.0,127.0,127.0,127.0,127.0,148.0,127.0,128.0,31.0,-92.0,-73.0,127.0,127.0,127.0,106.0,89.0,-104.0
128.0,127.0,127.0,127.0,127.0,148.0,127.0,128.0,31.0,-92.0,-73.0,127.0,127.0,127.0,106.0,89.0,-104.0
128.0,127.0,127.0,127.0,127.0,148.0,127.0,128.0,31.0,-92.0,-73.0,127.0,127.0,127.0,106.0,89.0,-104.0
128.0,127.0,127.0,127.0,127.0,148.0,127.0,128.0,31.0,-92.0,-73.0,127.0,127.0,127.0,106.0,89.0,-104.0
128.0,127.0,127.0,126.0,127.0,148.0,127.0,128.0,31.0,-92.0,-73.0,127.0,127.0,127.0,106.0,89.0,-104.0
128.0,126.0,127.0,126.0,127.0,148.0,127.0,128.0,31.0,-92.0,-73.0,127.0,127.0,127.0,106.0,89.0,-104.0
128.0,127.0,127.0,127.0,127.0,148.0,127.0,128.0,31.0,-92.0,-73.0,127.0,127.0,127.0,106.0,89.0,-104.0
128.0,127.0,127.0,127.0,127.0,148.0,127.0,128.0,31.0,-92.0,-73.0,127.0,127.0,127.0,106.0,89.0,-104.0
127.0,127.0,127.0,127.0,127.0,148.0,127.0,128.0,31.0,-92.0,-73.0,127.0,127.0,127.0,106.0,89.0,-104.0
127.0,127.0,127.0,127.0,127.0,148.0,127.0,128.0,31.0,-92.0,-73.0,127.0,127.0,127.0,106.0,89.0,-104.0
127.0,127.0,127.0,127.0,127.0,148.0,127.0,128.0,31.0,-92.0,-73.0,127.0,127.0,127.0,106.0,89.0,-104.0
127.0,127.0,127.0,127.0,127.0,148.0,127.0,128.0,31.0,-92.0,-73.0,127.0,127.0,127.0,106.0,89.0,-104.0
127.0,127.0,127.0,127.0,127.0,148.0,127.0,128.0,31.0,-92.0,-73.0,127.0,127.0,127.0,106.0,89.0,-104.0
127.0,127.0,127.0,127.0,127.0,148.0,127.0,128.0,31.0,-92.0,-73.0,127.0,127.0,127.0,106.0,89.0,-104.0
127.0,126.0,127.0,127.0,127.0,148.0,127.0,128.0,31.0,-92.0,-73.0,127.0,127.0,127.0,106.0,89.0,-104.0
127.0,128.0,126.0,127.0,127.0,148.0,127.0,128.0,31.0,-92.0,-73.0,127.0,127.0,127.0,106.0,89.0,-104.0
127.0,127.0,126.0,127.0,127.0,148.0,127.0,128.0,31.0,-92.0,-73.0,127.0,127.0,127.0,106.0,89.0,-104.0
127.0,127.0,127.0,127.0,127.0,148.0,127.0,128.0,31.0,-92.0,-73.0,127.0,127.0,127.0,106.0,89.0,-104.0
127.0,128.0,127.0,127.0,127.0,148.0,127.0,128.0,31.0,-92.0,-73.0,127.0,127.0,127.0,106.0,89.0,-104.0
127.0,128.0,127.0,127.0,127.0,148.0,127.0,128.0,31.0,-92.0,-73.0,127.0,127.0,127.0,106.0,89.0,-104.0
127.0,127.0,127.0,127.0,127.0,148.0,127.0,128.0,31.0,-92.0,-73.0,127.0,127.0,127.0,106.0,89.0,-104.0
127.0,127.0,127.0,127.0,127.0,147.0,127.0,128.0,31.0,-92.0,-73.0,127.0,127.0,127.0,106.0,89.0,-104.0
127.0,127.0,127.0,127.0,127.0,147.0,127.0,128.0,31.0,-92.0,-73.0,127.0,127.0,127.0,106.0,89.0,-104.0
127.0,127.0,127.0,127.0,127.0,147.0,127.0,128.0,31.0,-92.0,-73.0,127.0,127.0,127.0,106.0,89.0,-104.0
127.0,128.0,127.0,127.0,127.0,148.0,127.0,128.0,31.0,-92.0,-73.0,127.0,127.0,127.0,106.0,89.0,-104.0
127.0,128.0,127.0,127.0,127.0,148.0,127.0,128.0,31.0,-92.0,-73.0,127.0,127.0,127.0,106.0,89.0,-104.0
127.0,128.0,127.0,127.0,127.0,148.0,127.0,128.0,31.0,-92.0,-73.0,127.0,127.0,127.0,106.0,89.0,-104.0
127.0,128.0,127.0,127.0,127.0,148.0,127.0,128.0,31.0,-92.0,-73.0,127.0,127.0,127.0,106.0,89.0,-104.0
127.0,127.0,127.0,127.0,126.0,147.0,126.0,128.0,31.0,-92.0,-74.0,127.0,127.0,127.0,106.0,89.0,-104.0
127.0,127.0,127.0,127.0,126.0,147.0,126.0,128.0,31.0,-92.0,-74.0,127.0,127.0,127.0,106.0,89.0,-104.0
127.0,127.0,127.0,127.0,126.0,147.0,126.0,128.0,31.0,-92.0,-74.0,127.0,127.0,127.0,106.0,89.0,-104.0
127.0,126.0,127.0,127.0,126.0,147.0,126.0,128.0,31.0,-92.0,-74.0,127.0,127.0,127.0,106.0,89.0,-104.0
127.0,126.0,127.0,127.0,126.0,147.0,126.0,128.0,31.0,-92.0,-74.0,127.0,127.0,127.0,106.0,89.0,-104.0
127.0,127.0,127.0,127.0,126.0,146.0,126.0,127.0,31.0,-92.0,-74.0,127.0,127.0,127.0,106.0,89.0,-104.0
127.0,127.0,127.0,127.0,127.0,147.0,126.0,128.0,31.0,-92.0,-74.0,127.0,127.0,127.0,106.0,89.0,-104.0
127.0,127.0,127.0,127.0,127.0,147.0,126.0,128.0,31.0,-92.0,-74.0,127.0,127.0,127.0,106.0,89.0,-104.0
127.0,127.0,127.0,127.0,127.0,147.0,126.0,128.0,31.0,-92.0,-74.0,127.0,127.0,127.0,106.0,89.0,-104.0
127.0,127.0,127.0,127.0,126.0,147.0,126.0,128.0,31.0,-92.0,-74.0,127.0,127.0,127.0,106.0,89.0,-104.0
127.0,127.0,126.0,127.0,127.0,148.0,127.0,128.0,31.0,-92.0,-74.0,127.0,127.0,127.0,106.0,89.0,-104.0
127.0,127.0,126.0,127.0,127.0,147.0,127.0,128.0,31.0,-92.0,-74.0,127.0,127.0,127.0,106.0,89.0,-104.0
127.0,126.0,126.0,127.0,126.0,147.0,126.0,128.0,31.0,-92.0,-74.0,127.0,127.0,127.0,106.0,89.0,-104.0
127.0,126.0,126.0,127.0,126.0,147.0,126.0,128.0,31.0,-92.0,-74.0,127.0,127.0,127.0,106.0,89.0,-104.0
127.0,127.0,126.0,127.0,127.0,147.0,127.0,128.0,31.0,-92.0,-74.0,127.0,127.0,127.0,106.0,89.0,-104.0
127.0,127.0,126.0,127.0,127.0,148.0,127.0,128.0,31.0,-92.0,-74.0,127.0,127.0,127.0,106.0,89.0,-104.0
127.0,127.0,126.0,127.0,127.0,148.0,127.0,128.0,31.0,-92.0,-74.0,127.0,127.0,127.0,106.0,89.0,-104.0
127.0,127.0,126.0,127.0,127.0,148.0,127.0,128.0,31.0,-92.0,-74.0,127.0,127.0,127.0,106.0,89.0,-104.0
127.0,127.0,126.0,127.0,127.0,148.0,127.0,128.0,31.0,-92.0,-74.0,127.0,127.0,127.0,106.0,89.0,-104.0
127.0,127.0,126.0,127.0,127.0,148.0,127.0,128.0,31.0,-92.0,-74.0,127.0,127.0,127.0,106.0,89.0,-104.0
127.0,126.0,126.0,127.0,127.0,147.0,127.0,128.0,31.0,-92.0,-74.0,127.0,127.0,127.0,106.0,89.0,-104.0
127.0,126.0,126.0,127.0,127.0,147.0,127.0,128.0,31.0,-92.0,-74.0,127.0,127.0,127.0,106.0,89.0,-104.0
127.0,126.0,126.0,127.0,127.0,147.0,127.0,128.0,31.0,-92.0,-74.0,127.0,127.0,127.0,106.0,89.0,-104.0
127.0,127.0,126.0,127.0,126.0,146.0,127.0,128.0,31.0,-92.0,-74.0,127.0,127.0,127.0,106.0,89.0,-104.0
127.0,127.0,126.0,127.0,127.0,147.0,127.0,128.0,31.0,-92.0,-74.0,127.0,127.0,127.0,106.0,89.0,-104.0
127.0,127.0,126.0,127.0,127.0,147.0,127.0,128.0,31.0,-92.0,-74.0,127.0,127.0,127.0,106.0,89.0,-104.0
127.0,127.0,126.0,127.0,127.0,147.0,127.0,128.0,31.0,-92.0,-74.0,127.0,127.0,127.0,106.0,89.0,-104.0
127.0,127.0,126.0,127.0,127.0,147.0,127.0,128.0,31.0,-92.0,-74.0,127.0,127.0,127.0,106.0,89.0,-104.0
127.0,127.0,126.0,127.0,127.0,147.0,127.0,128.0,31.0,-92.0,-74.0,127.0,127.0,127.0,106.0,89.0,-104.0
127.0,127.0,126.0,127.0,127.0,147.0,127.0,128.0,31.0,-92.0,-74.0,127.0,127.0,127.0,106.0,89.0,-104.0
128.0,126.0,127.0,127.0,127.0,146.0,127.0,128.0,31.0,-92.0,-74.0,127.0,127.0,127.0,106.0,89.0,-104.0
128.0,126.0,127.0,127.0,127.0,146.0,127.0,128.0,31.0,-92.0,-74.0,127.0,127.0,127.0,106.0,89.0,-104.0
128.0,127.0,127.0,127.0,127.0,144.0,127.0,128.0,31.0,-92.0,-74.0,127.0,127.0,127.0,106.0,89.0,-104.0
128.0,127.0,127.0,127.0,127.0,144.0,127.0,128.0,31.0,-92.0,-74.0,127.0,127.0,127.0,106.0,89.0,-104.0
128.0,127.0,127.0,127.0,127.0,144.0,127.0,128.0,31.0,-92.0,-74.0,127.0,127.0,127.0,106.0,89.0,-104.0
128.0,127.0,127.0,127.0,127.0,144.0,127.0,128.0,31.0,-92.0,-74.0,127.0,127.0,127.0,106.0,89.0,-104.0
128.0,127.0,127.0,127.0,127.0,146.0,126.0,128.0,31.0,-92.0,-74.0,127.0,127.0,127.0,106.0,89.0,-104.0
128.0,127.0,127.0,127.0,127.0,146.0,127.0,128.0,31.0,-92.0,-74.0,127.0,127.0,127.0,106.0,89.0,-104.0
128.0,127.0,127.0,127.0,127.0,146.0,127.0,128.0,31.0,-92.0,-74.0,127.0,127.0,127.0,106.0,89.0,-104.0
128.0,127.0,127.0,127.0,127.0,146.0,127.0,128.0,31.0,-92.0,-74.0,127.0,127.0,127.0,106.0,89.0,-104.0
127.0,126.0,127.0,127.0,127.0,146.0,127.0,128.0,31.0,-92.0,-74.0,127.0,127.0,127.0,106.0,89.0,-104.0
127.0,127.0,126.0,127.0,127.0,146.0,127.0,128.0,31.0,-92.0,-74.0,127.0,127.0,127.0,106.0,89.0,-104.0
127.0,127.0,126.0,127.0,127.0,146.0,127.0,128.0,31.0,-92.0,-74.0,127.0,127.0,127.0,106.0,89.0,-104.0
127.0,127.0,127.0,127.0,127.0,146.0,127.0,128.0,31.0,-92.0,-74.0,127.0,127.0,127.0,106.0,89.0,-104.0
127.0,127.0,127.0,127.0,127.0,146.0,127.0,128.0,31.0,-92.0,-74.0,127.0,127.0,127.0,106.0,89.0,-104.0
127.0,127.0,127.0,127.0,127.0,146.0,127.0,128.0,31.0,-92.0,-74.0,127.0,127.0,127.0,106.0,89.0,-104.0
127.0,126.0,127.0,127.0,127.0,146.0,127.0,128.0,31.0,-92.0,-74.0,127.0,127.0,127.0,106.0,89.0,-104.0
127.0,126.0,127.0,127.0,127.0,146.0,127.0,128.0,31.0,-92.0,-74.0,127.0,127.0,127.0,106.0,89.0,-104.0
127.0,126.0,127.0,127.0,127.0,146.0,127.0,128.0,31.0,-92.0,-74.0,127.0,127.0,127.0,106.0,89.0,-104.0
127.0,126.0,127.0,127.0,127.0,146.0,127.0,128.0,31.0,-92.0,-74.0,127.0,127.0,127.0,106.0,89.0,-104.0
127.0,127.0,127.0,127.0,127.0,147.0,127.0,128.0,31.0,-91.0,-74.0,127.0,127.0,127.0,106.0,89.0,-104.0
128.0,127.0,127.0,127.0,127.0,147.0,126.0,128.0,31.0,-91.0,-74.0,127.0,127.0,127.0,106.0,89.0,-104.0
128.0,126.0,127.0,127.0,127.0,147.0,126.0,128.0,31.0,-91.0,-74.0,127.0,127.0,127.0,106.0,89.0,-104.0
128.0,126.0,127.0,127.0,127.0,147.0,126.0,128.0,31.0,-91.0,-74.0,127.0,127.0,127.0,106.0,89.0,-104.0
128.0,126.0,127.0,127.0,127.0,147.0,126.0,128.0,31.0,-91.0,-74.0,127.0,127.0,127.0,106.0,89.0,-104.0
128.0,126.0,127.0,127.0,127.0,146.0,126.0,128.0,31.0,-91.0,-74.0,127.0,127.0,127.0,106.0,89.0,-104.0
128.0,126.0,127.0,127.0,127.0,146.0,126.0,128.0,31.0,-91.0,-74.0,127.0,127.0,127.0,106.0,89.0,-104.0
128.0,126.0,127.0,127.0,127.0,146.0,126.0,128.0,31.0,-91.0,-74.0,127.0,127.0,127.0,106.0,89.0,-104.0
128.0,125.0,127.0,127.0,126.0,146.0,126.0,128.0,31.0,-91.0,-74.0,127.0,127.0,127.0,106.0,89.0,-104.0
128.0,125.0,127.0,127.0,126.0,146.0,126.0,128.0,31.0,-91.0,-74.0,127.0,127.0,127.0,106.0,89.0,-104.0
127.0,127.0,126.0,127.0,127.0,146.0,126.0,128.0,31.0,-91.0,-74.0,127.0,127.0,127.0,106.0,89.0,-104.0
127.0,127.0,126.0,127.0,127.0,146.0,126.0,128.0,31.0,-91.0,-74.0,127.0,127.0,127.0,106.0,89.0,-104.0
127.0,127.0,126.0,127.0,127.0,146.0,126.0,128.0,31.0,-91.0,-74.0,127.0,127.0,127.0,106.0,89.0,-104.0
127.0,127.0,127.0,127.0,127.0,146.0,126.0,128.0,31.0,-91.0,-74.0,127.0,127.0,127.0,106.0,89.0,-104.0
127.0,126.0,127.0,127.0,127.0,145.0,126.0,127.0,31.0,-91.0,-74.0,127.0,127.0,127.0,106.0,89.0,-104.0
127.0,126.0,127.0,127.0,127.0,145.0,126.0,128.0,31.0,-91.0,-74.0,127.0,127.0,127.0,106.0,89.0,-104.0
127.0,126.0,127.0,127.0,127.0,145.0,126.0,127.0,31.0,-91.0,-74.0,127.0,127.0,127.0,106.0,89.0,-104.0
127.0,126.0,127.0,127.0,127.0,145.0,126.0,127.0,31.0,-91.0,-74.0,127.0,127.0,127.0,106.0,89.0,-104.0
127.0,126.0,127.0,127.0,127.0,145.0,126.0,127.0,31.0,-91.0,-74.0,127.0,127.0,127.0,106.0,89.0,-104.0
127.0,127.0,126.0,127.0,127.0,146.0,126.0,128.0,31.0,-91.0,-74.0,127.0,127.0,127.0,106.0,89.0,-104.0
127.0,128.0,127.0,127.0,127.0,146.0,127.0,128.0,31.0,-91.0,-74.0,127.0,127.0,127.0,106.0,89.0,-104.0
127.0,128.0,127.0,127.0,127.0,145.0,127.0,128.0,31.0,-91.0,-74.0,127.0,127.0,127.0,106.0,89.0,-104.0
127.0,127.0,127.0,127.0,127.0,145.0,127.0,128.0,31.0,-91.0,-74.0,127.0,127.0,127.0,106.0,89.0,-104.0
127.0,127.0,127.0,127.0,126.0,145.0,127.0,128.0,31.0,-91.0,-74.0,127.0,127.0,127.0,106.0,89.0,-104.0
127.0,127.0,127.0,127.0,127.0,145.0,127.0,128.0,31.0,-91.0,-74.0,127.0,127.0,127.0,106.0,89.0,-104.0
127.0,127.0,127.0,127.0,127.0,145.0,127.0,128.0,31.0,-91.0,-74.0,127.0,127.0,127.0,106.0,89.0,-104.0
127.0,127.0,127.0,127.0,127.0,145.0,127.0,128.0,31.0,-91.0,-74.0,127.0,127.0,127.0,106.0,89.0,-104.0
127.0,126.0,127.0,127.0,127.0,145.0,127.0,128.0,31.0,-91.0,-74.0,127.0,127.0,127.0,106.0,89.0,-104.0
127.0,127.0,127.0,127.0,126.0,145.0,127.0,128.0,31.0,-91.0,-74.0,127.0,127.0,127.0,106.0,89.0,-104.0
127.0,127.0,127.0,127.0,126.0,145.0,127.0,128.0,31.0,-91.0,-74.0,127.0,127.0,127.0,106.0,89.0,-104.0
127.0,126.0,127.0,127.0,127.0,144.0,126.0,128.0,31.0,-91.0,-74.0,127.0,127.0,127.0,106.0,89.0,-104.0
127.0,126.0,127.0,127.0,127.0,144.0,126.0,128.0,31.0,-91.0,-74.0,127.0,127.0,127.0,106.0,89.0,-104.0
127.0,127.0,126.0,127.0,127.0,145.0,126.0,128.0,31.0,-91.0,-74.0,127.0,127.0,127.0,106.0,89.0,-104.0
127.0,127.0,126.0,127.0,127.0,146.0,126.0,128.0,31.0,-91.0,-74.0,127.0,127.0,127.0,106.0,89.0,-104.0
127.0,127.0,126.0,127.0,127.0,146.0,126.0,128.0,31.0,-91.0,-74.0,127.0,127.0,127.0,106.0,89.0,-104.0
127.0,126.0,127.0,127.0,127.0,145.0,126.0,128.0,31.0,-91.0,-74.0,127.0,127.0,127.0,106.0,89.0,-104.0
127.0,126.0,127.0,127.0,127.0,145.0,126.0,128.0,31.0,-91.0,-74.0,127.0,127.0,127.0,106.0,89.0,-104.0
127.0,127.0,127.0,127.0,127.0,144.0,126.0,128.0,31.0,-91.0,-74.0,127.0,127.0,127.0,106.0,89.0,-104.0
127.0,127.0,127.0,127.0,127.0,144.0,126.0,128.0,31.0,-91.0,-74.0,127.0,127.0,127.0,106.0,89.0,-104.0
127.0,127.0,127.0,127.0,127.0,144.0,126.0,128.0,31.0,-91.0,-74.0,127.0,127.0,127.0,106.0,89.0,-104.0
127.0,127.0,127.0,127.0,127.0,143.0,126.0,127.0,31.0,-91.0,-74.0,127.0,127.0,127.0,106.0,89.0,-104.0
127.0,127.0,126.0,127.0,127.0,144.0,126.0,127.0,31.0,-91.0,-74.0,127.0,127.0,127.0,106.0,89.0,-104.0
127.0,127.0,126.0,127.0,127.0,145.0,126.0,127.0,31.0,-91.0,-74.0,127.0,127.0,127.0,106.0,89.0,-104.0
127.0,127.0,126.0,127.0,127.0,144.0,126.0,127.0,31.0,-91.0,-74.0,127.0,127.0,127.0,106.0,89.0,-104.0
127.0,127.0,126.0,127.0,127.0,144.0,126.0,128.0,31.0,-91.0,-74.0,127.0,127.0,127.0,106.0,89.0,-104.0
127.0,127.0,126.0,127.0,127.0,144.0,126.0,128.0,31.0,-91.0,-74.0,127.0,127.0,127.0,106.0,89.0,-104.0
127.0,127.0,126.0,127.0,127.0,144.0,127.0,128.0,31.0,-91.0,-74.0,127.0,127.0,127.0,106.0,89.0,-104.0
127.0,127.0,126.0,127.0,127.0,143.0,127.0,127.0,31.0,-91.0,-74.0,127.0,127.0,127.0,106.0,89.0,-104.0
127.0,127.0,126.0,127.0,126.0,143.0,126.0,128.0,31.0,-91.0,-74.0,127.0,127.0,127.0,106.0,89.0,-104.0
127.0,127.0,126.0,127.0,127.0,143.0,126.0,127.0,31.0,-91.0,-74.0,127.0,127.0,127.0,106.0,89.0,-104.0
128.0,127.0,127.0,127.0,127.0,144.0,127.0,128.0,31.0,-91.0,-74.0,127.0,127.0,127.0,106.0,89.0,-104.0
128.0,127.0,127.0,127.0,127.0,144.0,127.0,128.0,31.0,-91.0,-74.0,127.0,127.0,127.0,106.0,89.0,-104.0
128.0,127.0,127.0,127.0,127.0,144.0,127.0,128.0,31.0,-91.0,-74.0,127.0,127.0,127.0,106.0,89.0,-104.0
128.0,127.0,127.0,127.0,127.0,144.0,127.0,128.0,31.0,-91.0,-74.0,127.0,127.0,127.0,106.0,89.0,-104.0
127.0,127.0,127.0,128.0,127.0,143.0,127.0,128.0,31.0,-91.0,-74.0,127.0,127.0,127.0,106.0,89.0,-104.0
127.0,127.0,127.0,128.0,127.0,143.0,127.0,128.0,31.0,-91.0,-74.0,127.0,127.0,127.0,106.0,89.0,-104.0
127.0,127.0,127.0,127.0,127.0,143.0,127.0,128.0,31.0,-91.0,-74.0,127.0,127.0,127.0,106.0,89.0,-104.0
128.0,127.0,127.0,127.0,127.0,143.0,127.0,128.0,31.0,-91.0,-74.0,127.0,127.0,127.0,106.0,89.0,-104.0
128.0,127.0,127.0,127.0,127.0,143.0,127.0,128.0,31.0,-91.0,-74.0,127.0,127.0,127.0,106.0,89.0,-104.0
