emg1,emg2,emg3,emg4,emg5,emg6,emg7,emg8,acc_x,acc_y,acc_z,gyro_x,gyro_y,gyro_z,angle_pitch,angle_roll,angle_yaw
127.0,124.0,127.0,128.0,127.0,131.0,126.0,128.0,26.0,-91.0,-78.0,127.0,127.0,127.0,104.0,88.0,-103.0
127.0,124.0,127.0,128.0,127.0,131.0,126.0,128.0,26.0,-91.0,-78.0,127.0,127.0,127.0,104.0,88.0,-103.0
127.0,124.0,127.0,128.0,127.0,131.0,126.0,128.0,26.0,-91.0,-78.0,127.0,127.0,127.0,104.0,88.0,-103.0
127.0,124.0,127.0,128.0,127.0,132.0,126.0,128.0,26.0,-91.0,-78.0,127.0,127.0,127.0,104.0,88.0,-103.0
127.0,124.0,127.0,128.0,127.0,132.0,126.0,128.0,26.0,-91.0,-78.0,127.0,127.0,127.0,104.0,88.0,-103.0
127.0,124.0,127.0,128.0,127.0,132.0,126.0,128.0,26.0,-91.0,-78.0,127.0,127.0,127.0,104.0,88.0,-103.0
127.0,124.0,127.0,128.0,126.0,130.0,127.0,128.0,26.0,-91.0,-78.0,127.0,127.0,127.0,104.0,88.0,-103.0
127.0,124.0,127.0,128.0,127.0,131.0,126.0,128.0,26.0,-91.0,-78.0,127.0,127.0,127.0,104.0,88.0,-103.0
127.0,124.0,127.0,127.0,127.0,131.0,127.0,128.0,26.0,-91.0,-78.0,127.0,127.0,127.0,104.0,88.0,-103.0
127.0,124.0,127.0,127.0,127.0,131.0,127.0,128.0,26.0,-91.0,-78.0,127.0,127.0,127.0,104.0,88.0,-103.0
127.0,123.0,127.0,127.0,126.0,131.0,127.0,128.0,26.0,-91.0,-78.0,127.0,127.0,127.0,104.0,88.0,-103.0
127.0,123.0,127.0,127.0,127.0,131.0,127.0,128.0,26.0,-91.0,-78.0,127.0,127.0,127.0,104.0,88.0,-103.0
127.0,123.0,127.0,127.0,127.0,131.0,127.0,128.0,26.0,-91.0,-78.0,127.0,127.0,127.0,104.0,88.0,-103.0
127.0,123.0,127.0,127.0,126.0,131.0,127.0,128.0,26.0,-91.0,-78.0,127.0,127.0,127.0,104.0,88.0,-103.0
127.0,123.0,127.0,127.0,127.0,131.0,127.0,128.0,26.0,-91.0,-78.0,127.0,127.0,127.0,104.0,88.0,-103.0
127.0,124.0,127.0,127.0,127.0,131.0,127.0,128.0,26.0,-91.0,-78.0,127.0,127.0,127.0,104.0,88.0,-103.0
127.0,124.0,127.0,127.0,127.0,130.0,127.0,128.0,26.0,-91.0,-78.0,127.0,127.0,127.0,104.0,88.0,-103.0
127.0,124.0,127.0,127.0,127.0,131.0,127.0,128.0,26.0,-91.0,-78.0,127.0,127.0,127.0,104.0,88.0,-103.0
127.0,123.0,127.0,127.0,127.0,132.0,126.0,128.0,27.0,-91.0,-78.0,127.0,127.0,127.0,104.0,88.0,-103.0
127.0,124.0,127.0,127.0,127.0,133.0,126.0,128.0,27.0,-91.0,-78.0,127.0,127.0,127.0,104.0,88.0,-103.0
127.0,124.0,127.0,127.0,127.0,133.0,126.0,128.0,27.0,-91.0,-78.0,127.0,127.0,127.0,104.0,88.0,-103.0
127.0,124.0,127.0,127.0,127.0,133.0,126.0,128.0,27.0,-91.0,-78.0,127.0,127.0,127.0,104.0,88.0,-103.0
127.0,124.0,127.0,127.0,127.0,133.0,126.0,128.0,27.0,-91.0,-78.0,127.0,127.0,127.0,104.0,88.0,-103.0
127.0,124.0,127.0,127.0,127.0,133.0,127.0,128.0,27.0,-91.0,-78.0,127.0,127.0,127.0,104.0,88.0,-103.0
127.0,124.0,127.0,127.0,127.0,132.0,127.0,128.0,27.0,-91.0,-78.0,127.0,127.0,127.0,104.0,88.0,-103.0
127.0,124.0,127.0,127.0,127.0,132.0,127.0,128.0,27.0,-91.0,-78.0,127.0,127.0,127.0,104.0,88.0,-103.0
127.0,124.0,127.0,127.0,127.0,132.0,127.0,128.0,27.0,-91.0,-78.0,127.0,127.0,127.0,104.0,88.0,-103.0
127.0,124.0,127.0,127.0,127.0,132.0,126.0,128.0,27.0,-91.0,-78.0,127.0,127.0,127.0,104.0,88.0,-103.0
127.0,124.0,127.0,128.0,127.0,133.0,126.0,128.0,27.0,-90.0,-77.0,127.0,127.0,127.0,104.0,88.0,-103.0
127.0,124.0,127.0,128.0,127.0,133.0,126.0,128.0,27.0,-90.0,-77.0,127.0,127.0,127.0,104.0,88.0,-103.0
127.0,124.0,127.0,127.0,127.0,133.0,126.0,128.0,27.0,-90.0,-77.0,127.0,127.0,127.0,104.0,88.0,-103.0
127.0,124.0,127.0,127.0,127.0,133.0,126.0,128.0,27.0,-90.0,-77.0,127.0,127.0,127.0,104.0,88.0,-103.0
127.0,124.0,127.0,127.0,127.0,133.0,126.0,128.0,27.0,-90.0,-77.0,127.0,127.0,127.0,104.0,88.0,-103.0
127.0,124.0,127.0,128.0,127.0,132.0,127.0,128.0,27.0,-90.0,-77.0,127.0,127.0,127.0,104.0,88.0,-103.0
127.0,124.0,127.0,128.0,127.0,132.0,127.0,128.0,27.0,-90.0,-77.0,127.0,127.0,127.0,104.0,88.0,-103.0
127.0,124.0,127.0,128.0,127.0,132.0,127.0,128.0,27.0,-90.0,-77.0,127.0,127.0,127.0,104.0,88.0,-103.0
127.0,124.0,127.0,128.0,127.0,132.0,127.0,128.0,27.0,-90.0,-77.0,127.0,127.0,127.0,104.0,88.0,-103.0
127.0,123.0,127.0,128.0,127.0,132.0,126.0,128.0,27.0,-90.0,-77.0,127.0,127.0,127.0,104.0,88.0,-103.0
127.0,124.0,127.0,127.0,126.0,133.0,126.0,128.0,27.0,-90.0,-77.0,127.0,127.0,127.0,104.0,88.0,-103.0
127.0,124.0,127.0,127.0,126.0,133.0,126.0,128.0,27.0,-90.0,-77.0,127.0,127.0,127.0,104.0,88.0,-103.0
127.0,124.0,127.0,127.0,126.0,133.0,127.0,128.0,27.0,-90.0,-77.0,127.0,127.0,127.0,104.0,88.0,-103.0
127.0,123.0,127.0,127.0,126.0,133.0,126.0,128.0,27.0,-90.0,-77.0,127.0,127.0,127.0,104.0,88.0,-103.0
127.0,124.0,127.0,127.0,127.0,132.0,127.0,128.0,27.0,-90.0,-77.0,127.0,127.0,127.0,104.0,88.0,-103.0
127.0,124.0,127.0,127.0,127.0,132.0,127.0,128.0,27.0,-90.0,-77.0,127.0,127.0,127.0,104.0,88.0,-103.0
127.0,124.0,127.0,127.0,127.0,132.0,127.0,128.0,27.0,-90.0,-77.0,127.0,127.0,127.0,104.0,88.0,-103.0
127.0,124.0,127.0,127.0,126.0,132.0,127.0,128.0,27.0,-90.0,-77.0,127.0,127.0,127.0,104.0,88.0,-103.0
127.0,124.0,127.0,127.0,126.0,132.0,126.0,128.0,27.0,-90.0,-77.0,127.0,127.0,127.0,104.0,88.0,-103.0
127.0,124.0,127.0,127.0,127.0,133.0,126.0,128.0,27.0,-90.0,-77.0,127.0,127.0,127.0,104.0,88.0,-103.0
127.0,124.0,128.0,127.0,127.0,133.0,127.0,128.0,28.0,-90.0,-77.0,127.0,127.0,127.0,104.0,88.0,-103.0
127.0,124.0,128.0,127.0,127.0,133.0,127.0,128.0,28.0,-90.0,-77.0,127.0,127.0,127.0,104.0,88.0,-103.0
127.0,124.0,128.0,127.0,126.0,133.0,127.0,128.0,28.0,-90.0,-77.0,127.0,127.0,127.0,104.0,88.0,-103.0
127.0,124.0,128.0,127.0,127.0,132.0,127.0,128.0,28.0,-90.0,-77.0,127.0,127.0,127.0,104.0,88.0,-103.0
127.0,124.0,128.0,127.0,127.0,132.0,127.0,128.0,28.0,-90.0,-77.0,127.0,127.0,127.0,104.0,88.0,-103.0
127.0,124.0,128.0,127.0,127.0,132.0,127.0,128.0,28.0,-90.0,-77.0,127.0,127.0,127.0,104.0,88.0,-103.0
127.0,124.0,128.0,127.0,127.0,132.0,126.0,128.0,28.0,-90.0,-77.0,127.0,127.0,127.0,104.0,88.0,-103.0
127.0,124.0,128.0,127.0,127.0,132.0,127.0,128.0,28.0,-90.0,-77.0,127.0,127.0,127.0,104.0,88.0,-103.0
127.0,124.0,128.0,127.0,127.0,133.0,126.0,128.0,28.0,-90.0,-77.0,127.0,127.0,127.0,104.0,88.0,-103.0
127.0,124.0,128.0,127.0,127.0,133.0,126.0,128.0,28.0,-90.0,-77.0,127.0,127.0,127.0,104.0,88.0,-103.0
127.0,124.0,127.0,127.0,127.0,134.0,126.0,128.0,28.0,-91.0,-77.0,127.0,127.0,127.0,104.0,88.0,-103.0
127.0,124.0,127.0,127.0,127.0,134.0,126.0,128.0,28.0,-91.0,-77.0,127.0,127.0,127.0,104.0,88.0,-103.0
127.0,124.0,127.0,128.0,127.0,133.0,126.0,128.0,28.0,-91.0,-77.0,127.0,127.0,127.0,104.0,88.0,-103.0
127.0,124.0,128.0,128.0,127.0,133.0,126.0,128.0,28.0,-91.0,-77.0,127.0,127.0,127.0,104.0,88.0,-103.0
127.0,124.0,128.0,127.0,127.0,133.0,126.0,128.0,28.0,-91.0,-77.0,127.0,127.0,127.0,104.0,88.0,-103.0
127.0,124.0,127.0,127.0,127.0,133.0,126.0,128.0,28.0,-91.0,-77.0,127.0,127.0,127.0,104.0,88.0,-103.0
127.0,124.0,127.0,127.0,127.0,133.0,126.0,128.0,28.0,-91.0,-77.0,127.0,127.0,127.0,104.0,88.0,-103.0
127.0,124.0,127.0,127.0,127.0,133.0,126.0,128.0,28.0,-91.0,-77.0,127.0,127.0,127.0,104.0,88.0,-103.0
127.0,124.0,127.0,127.0,127.0,134.0,126.0,128.0,28.0,-91.0,-77.0,127.0,127.0,127.0,104.0,88.0,-103.0
127.0,124.0,127.0,127.0,127.0,134.0,126.0,128.0,28.0,-91.0,-77.0,127.0,127.0,127.0,104.0,88.0,-103.0
127.0,124.0,126.0,127.0,127.0,132.0,126.0,128.0,28.0,-91.0,-77.0,127.0,127.0,127.0,104.0,88.0,-103.0
127.0,124.0,126.0,127.0,127.0,132.0,126.0,128.0,28.0,-91.0,-77.0,127.0,127.0,127.0,104.0,88.0,-103.0
127.0,124.0,126.0,127.0,127.0,132.0,126.0,128.0,28.0,-91.0,-77.0,127.0,127.0,127.0,104.0,88.0,-103.0
127.0,124.0,126.0,127.0,127.0,132.0,126.0,128.0,28.0,-91.0,-77.0,127.0,127.0,127.0,104.0,88.0,-103.0
127.0,124.0,126.0,127.0,127.0,132.0,126.0,128.0,28.0,-91.0,-77.0,127.0,127.0,127.0,104.0,88.0,-103.0
127.0,124.0,127.0,127.0,127.0,132.0,126.0,128.0,28.0,-91.0,-77.0,127.0,127.0,127.0,104.0,88.0,-103.0
127.0,124.0,127.0,127.0,127.0,133.0,126.0,128.0,28.0,-91.0,-77.0,127.0,127.0,127.0,104.0,88.0,-103.0
127.0,124.0,127.0,127.0,127.0,133.0,126.0,128.0,28.0,-91.0,-77.0,127.0,127.0,127.0,104.0,88.0,-103.0
127.0,124.0,127.0,127.0,127.0,133.0,126.0,128.0,28.0,-91.0,-77.0,127.0,127.0,127.0,104.0,88.0,-103.0
127.0,124.0,127.0,127.0,127.0,133.0,126.0,128.0,28.0,-91.0,-77.0,127.0,127.0,127.0,104.0,88.0,-103.0
127.0,124.0,127.0,128.0,127.0,131.0,127.0,128.0,27.0,-91.0,-77.0,127.0,127.0,127.0,104.0,88.0,-103.0
127.0,124.0,127.0,128.0,127.0,131.0,127.0,128.0,27.0,-91.0,-77.0,127.0,127.0,127.0,104.0,88.0,-103.0
127.0,124.0,127.0,127.0,127.0,131.0,127.0,128.0,27.0,-91.0,-77.0,127.0,127.0,127.0,104.0,88.0,-103.0
127.0,123.0,127.0,127.0,127.0,131.0,127.0,128.0,27.0,-91.0,-77.0,127.0,127.0,127.0,104.0,88.0,-103.0
127.0,123.0,127.0,127.0,127.0,131.0,127.0,128.0,27.0,-91.0,-77.0,127.0,127.0,127.0,104.0,88.0,-103.0
127.0,123.0,127.0,127.0,127.0,132.0,126.0,128.0,27.0,-91.0,-77.0,127.0,127.0,127.0,104.0,88.0,-103.0
127.0,124.0,127.0,127.0,127.0,133.0,126.0,128.0,27.0,-91.0,-77.0,127.0,127.0,127.0,104.0,88.0,-103.0
127.0,124.0,127.0,127.0,127.0,133.0,127.0,128.0,27.0,-91.0,-77.0,127.0,127.0,127.0,104.0,88.0,-103.0
127.0,124.0,127.0,128.0,127.0,132.0,127.0,128.0,27.0,-91.0,-77.0,127.0,127.0,127.0,104.0,88.0,-103.0
127.0,124.0,127.0,128.0,127.0,132.0,127.0,128.0,27.0,-91.0,-77.0,127.0,127.0,127.0,104.0,88.0,-103.0
127.0,123.0,127.0,127.0,126.0,130.0,127.0,128.0,27.0,-91.0,-77.0,127.0,127.0,127.0,104.0,88.0,-103.0
127.0,123.0,127.0,127.0,126.0,130.0,127.0,128.0,27.0,-91.0,-77.0,127.0,127.0,127.0,104.0,88.0,-103.0
127.0,123.0,127.0,127.0,126.0,130.0,127.0,128.0,27.0,-91.0,-77.0,127.0,127.0,127.0,104.0,88.0,-103.0
127.0,123.0,127.0,127.0,126.0,131.0,127.0,128.0,27.0,-91.0,-77.0,127.0,127.0,127.0,104.0,88.0,-103.0
127.0,123.0,127.0,127.0,126.0,131.0,127.0,128.0,27.0,-91.0,-77.0,127.0,127.0,127.0,104.0,88.0,-103.0
127.0,123.0,127.0,127.0,126.0,131.0,127.0,128.0,27.0,-91.0,-77.0,127.0,127.0,127.0,104.0,88.0,-103.0
127.0,123.0,127.0,127.0,126.0,131.0,127.0,128.0,27.0,-91.0,-77.0,127.0,127.0,127.0,104.0,88.0,-103.0
127.0,123.0,127.0,126.0,126.0,131.0,126.0,128.0,27.0,-91.0,-77.0,127.0,127.0,127.0,104.0,88.0,-103.0
127.0,124.0,127.0,127.0,126.0,130.0,127.0,128.0,27.0,-91.0,-77.0,127.0,127.0,127.0,104.0,88.0,-103.0
127.0,123.0,127.0,127.0,126.0,130.0,127.0,128.0,27.0,-91.0,-77.0,127.0,127.0,127.0,104.0,88.0,-103.0
127.0,124.0,127.0,127.0,127.0,131.0,126.0,128.0,27.0,-91.0,-77.0,127.0,127.0,127.0,104.0,88.0,-103.0
127.0,124.0,127.0,127.0,127.0,132.0,126.0,128.0,27.0,-91.0,-77.0,127.0,127.0,127.0,104.0,88.0,-103.0
127.0,124.0,127.0,127.0,127.0,132.0,126.0,128.0,27.0,-91.0,-77.0,127.0,127.0,127.0,104.0,88.0,-103.0
127.0,124.0,127.0,127.0,127.0,132.0,126.0,128.0,27.0,-91.0,-77.0,127.0,127.0,127.0,104.0,88.0,-103.0
127.0,124.0,127.0,127.0,127.0,132.0,126.0,128.0,27.0,-91.0,-77.0,127.0,127.0,127.0,104.0,88.0,-103.0
127.0,124.0,127.0,127.0,127.0,132.0,126.0,128.0,27.0,-91.0,-77.0,127.0,127.0,127.0,104.0,88.0,-103.0
127.0,124.0,127.0,127.0,127.0,132.0,126.0,128.0,27.0,-91.0,-77.0,127.0,127.0,127.0,104.0,88.0,-103.0
127.0,124.0,127.0,128.0,127.0,131.0,127.0,128.0,27.0,-91.0,-77.0,127.0,127.0,127.0,104.0,88.0,-103.0
127.0,124.0,127.0,127.0,127.0,131.0,127.0,128.0,27.0,-91.0,-77.0,127.0,127.0,127.0,104.0,88.0,-103.0
127.0,124.0,127.0,127.0,127.0,131.0,127.0,128.0,27.0,-91.0,-77.0,127.0,127.0,127.0,104.0,88.0,-103.0
127.0,125.0,127.0,127.0,126.0,132.0,126.0,128.0,27.0,-91.0,-78.0,127.0,127.0,127.0,104.0,88.0,-103.0
127.0,124.0,127.0,127.0,126.0,132.0,126.0,128.0,27.0,-91.0,-78.0,127.0,127.0,127.0,104.0,88.0,-103.0
127.0,124.0,127.0,127.0,126.0,132.0,126.0,128.0,27.0,-91.0,-78.0,127.0,127.0,127.0,104.0,88.0,-103.0
127.0,124.0,127.0,127.0,126.0,132.0,126.0,128.0,27.0,-91.0,-78.0,127.0,127.0,127.0,104.0,88.0,-103.0
127.0,124.0,127.0,127.0,126.0,131.0,126.0,128.0,27.0,-91.0,-78.0,127.0,127.0,127.0,104.0,88.0,-103.0
127.0,124.0,127.0,127.0,126.0,131.0,126.0,128.0,27.0,-91.0,-78.0,127.0,127.0,127.0,104.0,88.0,-103.0
127.0,125.0,127.0,127.0,126.0,131.0,126.0,128.0,27.0,-91.0,-78.0,127.0,127.0,127.0,104.0,88.0,-103.0
127.0,124.0,127.0,127.0,126.0,130.0,126.0,128.0,27.0,-91.0,-78.0,127.0,127.0,127.0,104.0,88.0,-103.0
127.0,124.0,127.0,127.0,126.0,130.0,126.0,128.0,27.0,-91.0,-78.0,127.0,127.0,127.0,104.0,88.0,-103.0
127.0,124.0,127.0,127.0,126.0,131.0,126.0,128.0,27.0,-91.0,-78.0,127.0,127.0,127.0,104.0,88.0,-103.0
127.0,124.0,126.0,127.0,127.0,132.0,127.0,128.0,27.0,-91.0,-78.0,127.0,127.0,127.0,104.0,88.0,-103.0
127.0,124.0,126.0,127.0,127.0,132.0,126.0,128.0,27.0,-91.0,-78.0,127.0,127.0,127.0,104.0,88.0,-103.0
127.0,124.0,126.0,127.0,127.0,133.0,127.0,128.0,27.0,-91.0,-78.0,127.0,127.0,127.0,104.0,88.0,-103.0
127.0,124.0,126.0,127.0,127.0,133.0,126.0,128.0,27.0,-91.0,-78.0,127.0,127.0,127.0,104.0,88.0,-103.0
127.0,124.0,126.0,127.0,127.0,133.0,127.0,128.0,27.0,-91.0,-78.0,127.0,127.0,127.0,104.0,88.0,-103.0
127.0,124.0,126.0,127.0,127.0,131.0,127.0,128.0,27.0,-91.0,-78.0,127.0,127.0,127.0,104.0,88.0,-103.0
127.0,124.0,126.0,127.0,127.0,130.0,127.0,128.0,27.0,-91.0,-78.0,127.0,127.0,127.0,104.0,88.0,-103.0
127.0,124.0,126.0,127.0,126.0,131.0,127.0,128.0,27.0,-91.0,-78.0,127.0,127.0,127.0,104.0,88.0,-103.0
127.0,124.0,126.0,127.0,127.0,131.0,127.0,128.0,27.0,-91.0,-78.0,127.0,127.0,127.0,104.0,88.0,-103.0
127.0,124.0,126.0,127.0,127.0,132.0,127.0,128.0,27.0,-91.0,-78.0,127.0,127.0,127.0,104.0,88.0,-103.0
127.0,123.0,126.0,127.0,127.0,131.0,126.0,128.0,27.0,-91.0,-78.0,127.0,127.0,127.0,104.0,88.0,-103.0
127.0,124.0,126.0,127.0,127.0,132.0,126.0,128.0,27.0,-91.0,-78.0,127.0,127.0,127.0,104.0,88.0,-103.0
127.0,124.0,126.0,127.0,127.0,133.0,126.0,128.0,27.0,-91.0,-78.0,127.0,127.0,127.0,104.0,88.0,-103.0
127.0,124.0,127.0,127.0,127.0,133.0,126.0,128.0,27.0,-91.0,-78.0,127.0,127.0,127.0,104.0,88.0,-103.0
127.0,124.0,126.0,128.0,127.0,130.0,127.0,128.0,27.0,-91.0,-78.0,127.0,127.0,127.0,104.0,88.0,-103.0
127.0,124.0,126.0,128.0,127.0,131.0,126.0,128.0,27.0,-91.0,-78.0,127.0,127.0,127.0,104.0,88.0,-103.0
127.0,124.0,126.0,128.0,127.0,132.0,127.0,128.0,27.0,-91.0,-78.0,127.0,127.0,127.0,104.0,88.0,-103.0
127.0,124.0,126.0,127.0,127.0,131.0,127.0,128.0,27.0,-91.0,-78.0,127.0,127.0,127.0,104.0,88.0,-103.0
127.0,124.0,126.0,127.0,127.0,131.0,126.0,128.0,27.0,-91.0,-78.0,127.0,127.0,127.0,104.0,88.0,-103.0
127.0,124.0,126.0,127.0,127.0,131.0,126.0,128.0,27.0,-91.0,-78.0,127.0,127.0,127.0,104.0,88.0,-103.0
127.0,124.0,127.0,127.0,127.0,132.0,127.0,128.0,27.0,-91.0,-78.0,127.0,127.0,127.0,104.0,88.0,-103.0
127.0,124.0,127.0,127.0,127.0,132.0,127.0,128.0,27.0,-91.0,-78.0,127.0,127.0,127.0,104.0,88.0,-103.0
127.0,124.0,127.0,127.0,127.0,132.0,127.0,128.0,27.0,-91.0,-78.0,127.0,127.0,127.0,104.0,88.0,-103.0
127.0,124.0,127.0,127.0,127.0,130.0,127.0,128.0,27.0,-91.0,-78.0,127.0,127.0,127.0,104.0,88.0,-103.0
127.0,124.0,127.0,127.0,127.0,131.0,127.0,128.0,27.0,-91.0,-78.0,127.0,127.0,127.0,104.0,88.0,-103.0
127.0,125.0,127.0,127.0,127.0,132.0,127.0,128.0,27.0,-91.0,-78.0,127.0,127.0,127.0,104.0,88.0,-103.0
127.0,124.0,127.0,127.0,127.0,131.0,127.0,128.0,27.0,-91.0,-78.0,127.0,127.0,127.0,104.0,88.0,-103.0
127.0,124.0,127.0,127.0,127.0,131.0,127.0,128.0,27.0,-91.0,-78.0,127.0,127.0,127.0,104.0,88.0,-103.0
127.0,124.0,127.0,127.0,127.0,131.0,127.0,128.0,27.0,-91.0,-78.0,127.0,127.0,127.0,104.0,88.0,-103.0
127.0,124.0,127.0,127.0,127.0,131.0,127.0,128.0,27.0,-91.0,-78.0,127.0,127.0,127.0,104.0,88.0,-103.0
127.0,124.0,127.0,127.0,127.0,133.0,127.0,127.0,27.0,-91.0,-78.0,127.0,127.0,127.0,104.0,88.0,-103.0
127.0,124.0,127.0,127.0,127.0,134.0,127.0,127.0,27.0,-91.0,-78.0,127.0,127.0,127.0,104.0,88.0,-103.0
127.0,124.0,127.0,127.0,126.0,131.0,127.0,127.0,27.0,-91.0,-78.0,127.0,127.0,127.0,104.0,88.0,-103.0
127.0,124.0,127.0,127.0,126.0,132.0,127.0,127.0,27.0,-91.0,-78.0,127.0,127.0,127.0,104.0,88.0,-103.0
127.0,124.0,127.0,127.0,126.0,132.0,127.0,127.0,27.0,-91.0,-78.0,127.0,127.0,127.0,104.0,88.0,-103.0
127.0,124.0,127.0,127.0,126.0,132.0,127.0,127.0,27.0,-91.0,-78.0,127.0,127.0,127.0,104.0,88.0,-103.0
127.0,124.0,127.0,127.0,126.0,132.0,127.0,127.0,27.0,-91.0,-78.0,127.0,127.0,127.0,104.0,88.0,-103.0
127.0,124.0,127.0,127.0,127.0,132.0,126.0,127.0,27.0,-91.0,-78.0,127.0,127.0,127.0,104.0,88.0,-103.0
127.0,124.0,127.0,127.0,127.0,132.0,127.0,127.0,27.0,-91.0,-78.0,127.0,127.0,127.0,104.0,88.0,-103.0
127.0,124.0,127.0,127.0,127.0,133.0,126.0,127.0,27.0,-91.0,-78.0,127.0,127.0,127.0,104.0,88.0,-103.0
127.0,124.0,127.0,127.0,127.0,134.0,126.0,127.0,27.0,-91.0,-78.0,127.0,127.0,127.0,104.0,88.0,-103.0
127.0,124.0,126.0,126.0,127.0,131.0,127.0,127.0,27.0,-91.0,-78.0,127.0,127.0,127.0,104.0,88.0,-103.0
127.0,124.0,126.0,126.0,127.0,132.0,127.0,127.0,27.0,-91.0,-78.0,127.0,127.0,127.0,104.0,88.0,-103.0
127.0,124.0,126.0,126.0,127.0,133.0,127.0,128.0,27.0,-91.0,-78.0,127.0,127.0,127.0,104.0,88.0,-103.0
127.0,124.0,126.0,126.0,127.0,133.0,127.0,128.0,27.0,-91.0,-78.0,127.0,127.0,127.0,104.0,88.0,-103.0
127.0,124.0,126.0,126.0,127.0,133.0,127.0,127.0,27.0,-91.0,-78.0,127.0,127.0,127.0,104.0,88.0,-103.0
127.0,123.0,126.0,126.0,127.0,133.0,127.0,127.0,27.0,-91.0,-78.0,127.0,127.0,127.0,104.0,88.0,-103.0
127.0,123.0,126.0,126.0,127.0,133.0,126.0,127.0,27.0,-91.0,-78.0,127.0,127.0,127.0,104.0,88.0,-103.0
127.0,123.0,126.0,126.0,127.0,133.0,126.0,127.0,27.0,-91.0,-78.0,127.0,127.0,127.0,104.0,88.0,-103.0
127.0,124.0,127.0,126.0,127.0,134.0,126.0,127.0,27.0,-91.0,-78.0,127.0,127.0,127.0,104.0,88.0,-103.0
127.0,124.0,126.0,128.0,127.0,133.0,126.0,127.0,28.0,-90.0,-78.0,127.0,127.0,127.0,104.0,88.0,-103.0
127.0,124.0,126.0,128.0,127.0,133.0,126.0,127.0,28.0,-90.0,-78.0,127.0,127.0,127.0,104.0,88.0,-103.0
127.0,124.0,126.0,128.0,127.0,133.0,126.0,127.0,28.0,-90.0,-78.0,127.0,127.0,127.0,104.0,88.0,-103.0
127.0,124.0,126.0,128.0,127.0,133.0,126.0,127.0,28.0,-90.0,-78.0,127.0,127.0,127.0,104.0,88.0,-103.0
127.0,124.0,126.0,128.0,127.0,133.0,126.0,127.0,28.0,-90.0,-78.0,127.0,127.0,127.0,104.0,88.0,-103.0
127.0,124.0,126.0,127.0,127.0,134.0,126.0,127.0,28.0,-90.0,-78.0,127.0,127.0,127.0,104.0,88.0,-103.0
127.0,124.0,126.0,127.0,127.0,134.0,126.0,127.0,28.0,-90.0,-78.0,127.0,127.0,127.0,104.0,88.0,-103.0
127.0,123.0,126.0,127.0,127.0,134.0,126.0,127.0,28.0,-90.0,-78.0,127.0,127.0,127.0,104.0,88.0,-103.0
127.0,123.0,126.0,127.0,127.0,134.0,126.0,127.0,28.0,-90.0,-78.0,127.0,127.0,127.0,104.0,88.0,-103.0
127.0,123.0,126.0,127.0,127.0,134.0,126.0,127.0,28.0,-90.0,-78.0,127.0,127.0,127.0,104.0,88.0,-103.0
127.0,124.0,127.0,128.0,127.0,133.0,127.0,127.0,28.0,-90.0,-78.0,127.0,127.0,127.0,104.0,88.0,-103.0
127.0,124.0,127.0,127.0,127.0,133.0,127.0,127.0,28.0,-90.0,-78.0,127.0,127.0,127.0,104.0,88.0,-103.0
127.0,124.0,127.0,127.0,127.0,133.0,127.0,127.0,28.0,-90.0,-78.0,127.0,127.0,127.0,104.0,88.0,-103.0
127.0,124.0,127.0,127.0,127.0,133.0,127.0,127.0,28.0,-90.0,-78.0,127.0,127.0,127.0,104.0,88.0,-103.0
127.0,124.0,127.0,127.0,127.0,133.0,126.0,127.0,28.0,-90.0,-78.0,127.0,127.0,127.0,104.0,88.0,-103.0
127.0,124.0,127.0,127.0,127.0,133.0,126.0,127.0,28.0,-90.0,-78.0,127.0,127.0,127.0,104.0,88.0,-103.0
127.0,123.0,127.0,127.0,127.0,133.0,126.0,127.0,28.0,-90.0,-78.0,127.0,127.0,127.0,104.0,88.0,-103.0
127.0,124.0,127.0,127.0,127.0,134.0,126.0,127.0,28.0,-90.0,-78.0,127.0,127.0,127.0,104.0,88.0,-103.0
127.0,124.0,127.0,127.0,127.0,135.0,126.0,127.0,28.0,-90.0,-78.0,127.0,127.0,127.0,104.0,88.0,-103.0
127.0,125.0,127.0,128.0,127.0,134.0,127.0,127.0,28.0,-90.0,-78.0,127.0,127.0,127.0,104.0,88.0,-103.0
127.0,124.0,127.0,127.0,126.0,133.0,126.0,127.0,28.0,-90.0,-78.0,127.0,127.0,127.0,104.0,88.0,-103.0
127.0,124.0,127.0,127.0,126.0,134.0,126.0,127.0,28.0,-90.0,-78.0,127.0,127.0,127.0,104.0,88.0,-103.0
127.0,123.0,127.0,127.0,127.0,134.0,126.0,127.0,28.0,-90.0,-78.0,127.0,127.0,127.0,104.0,88.0,-103.0
127.0,124.0,127.0,127.0,127.0,135.0,126.0,127.0,28.0,-90.0,-78.0,127.0,127.0,127.0,104.0,88.0,-103.0
127.0,124.0,127.0,127.0,127.0,135.0,126.0,127.0,28.0,-90.0,-78.0,127.0,127.0,127.0,104.0,88.0,-103.0
127.0,124.0,127.0,127.0,127.0,135.0,126.0,127.0,28.0,-90.0,-78.0,127.0,127.0,127.0,104.0,88.0,-103.0
127.0,123.0,127.0,127.0,127.0,135.0,126.0,127.0,28.0,-90.0,-78.0,127.0,127.0,127.0,104.0,88.0,-103.0
127.0,123.0,127.0,127.0,127.0,135.0,126.0,127.0,28.0,-90.0,-78.0,127.0,127.0,127.0,104.0,88.0,-103.0
127.0,124.0,127.0,127.0,126.0,134.0,126.0,127.0,28.0,-90.0,-78.0,127.0,127.0,127.0,104.0,88.0,-103.0
127.0,124.0,127.0,127.0,126.0,133.0,126.0,127.0,28.0,-90.0,-78.0,127.0,127.0,127.0,104.0,88.0,-103.0
127.0,124.0,127.0,129.0,127.0,134.0,126.0,127.0,28.0,-90.0,-78.0,127.0,127.0,127.0,104.0,88.0,-103.0
127.0,124.0,127.0,129.0,127.0,134.0,126.0,127.0,28.0,-90.0,-78.0,127.0,127.0,127.0,104.0,88.0,-103.0
127.0,124.0,127.0,129.0,127.0,135.0,126.0,127.0,28.0,-90.0,-78.0,127.0,127.0,127.0,104.0,88.0,-103.0
127.0,124.0,127.0,129.0,127.0,135.0,126.0,127.0,28.0,-90.0,-78.0,127.0,127.0,127.0,104.0,88.0,-103.0
127.0,124.0,127.0,129.0,127.0,135.0,126.0,127.0,28.0,-90.0,-78.0,127.0,127.0,127.0,104.0,88.0,-103.0
127.0,124.0,127.0,129.0,127.0,135.0,126.0,127.0,28.0,-90.0,-78.0,127.0,127.0,127.0,104.0,88.0,-103.0
127.0,124.0,127.0,129.0,127.0,135.0,126.0,127.0,28.0,-90.0,-78.0,127.0,127.0,127.0,104.0,88.0,-103.0
127.0,124.0,127.0,129.0,127.0,134.0,126.0,127.0,28.0,-90.0,-78.0,127.0,127.0,127.0,104.0,88.0,-103.0
127.0,124.0,127.0,129.0,127.0,134.0,126.0,127.0,28.0,-90.0,-78.0,127.0,127.0,127.0,104.0,88.0,-103.0
127.0,124.0,127.0,129.0,127.0,134.0,126.0,127.0,28.0,-90.0,-78.0,127.0,127.0,127.0,104.0,88.0,-103.0
127.0,124.0,127.0,128.0,127.0,134.0,126.0,127.0,28.0,-90.0,-78.0,127.0,127.0,127.0,104.0,88.0,-103.0
127.0,124.0,127.0,128.0,127.0,135.0,126.0,128.0,28.0,-90.0,-78.0,127.0,127.0,127.0,104.0,88.0,-103.0
127.0,124.0,127.0,128.0,127.0,136.0,126.0,128.0,28.0,-90.0,-78.0,127.0,127.0,127.0,104.0,88.0,-103.0
127.0,124.0,127.0,128.0,127.0,136.0,126.0,128.0,28.0,-90.0,-78.0,127.0,127.0,127.0,104.0,88.0,-103.0
127.0,124.0,127.0,127.0,127.0,136.0,126.0,128.0,28.0,-90.0,-78.0,127.0,127.0,127.0,104.0,88.0,-103.0
127.0,124.0,127.0,127.0,126.0,136.0,126.0,127.0,28.0,-90.0,-78.0,127.0,127.0,127.0,104.0,88.0,-103.0
127.0,125.0,127.0,129.0,127.0,135.0,127.0,128.0,28.0,-90.0,-78.0,127.0,127.0,127.0,104.0,88.0,-103.0
127.0,125.0,127.0,129.0,127.0,135.0,127.0,128.0,28.0,-90.0,-78.0,127.0,127.0,127.0,104.0,88.0,-103.0
127.0,124.0,127.0,128.0,127.0,134.0,126.0,128.0,28.0,-90.0,-78.0,127.0,127.0,127.0,104.0,88.0,-103.0
127.0,124.0,127.0,128.0,127.0,135.0,127.0,128.0,28.0,-90.0,-78.0,127.0,127.0,127.0,104.0,88.0,-103.0
127.0,124.0,127.0,127.0,127.0,136.0,126.0,128.0,29.0,-90.0,-78.0,127.0,127.0,127.0,104.0,88.0,-103.0
127.0,124.0,127.0,127.0,127.0,136.0,126.0,128.0,29.0,-90.0,-78.0,127.0,127.0,127.0,104.0,88.0,-103.0
127.0,124.0,127.0,127.0,127.0,136.0,126.0,128.0,29.0,-90.0,-78.0,127.0,127.0,127.0,104.0,88.0,-103.0
127.0,124.0,127.0,127.0,127.0,136.0,126.0,127.0,29.0,-90.0,-78.0,127.0,127.0,127.0,104.0,88.0,-103.0
127.0,123.0,127.0,127.0,126.0,136.0,126.0,127.0,29.0,-90.0,-78.0,127.0,127.0,127.0,104.0,88.0,-103.0
127.0,124.0,127.0,128.0,127.0,135.0,127.0,128.0,29.0,-90.0,-78.0,127.0,127.0,127.0,104.0,88.0,-103.0
127.0,124.0,127.0,128.0,127.0,135.0,127.0,128.0,29.0,-90.0,-78.0,127.0,127.0,127.0,104.0,88.0,-103.0
127.0,124.0,127.0,128.0,127.0,135.0,127.0,128.0,29.0,-90.0,-78.0,127.0,127.0,127.0,104.0,88.0,-103.0
127.0,124.0,127.0,127.0,127.0,135.0,127.0,128.0,29.0,-90.0,-78.0,127.0,127.0,127.0,104.0,88.0,-103.0
127.0,124.0,127.0,127.0,127.0,135.0,127.0,127.0,29.0,-90.0,-78.0,127.0,127.0,127.0,104.0,88.0,-103.0
127.0,124.0,123.0,127.0,126.0,136.0,126.0,128.0,29.0,-90.0,-78.0,127.0,127.0,127.0,104.0,88.0,-103.0
127.0,124.0,123.0,127.0,126.0,136.0,126.0,128.0,29.0,-90.0,-78.0,127.0,127.0,127.0,104.0,88.0,-103.0
127.0,123.0,123.0,127.0,126.0,136.0,126.0,128.0,29.0,-90.0,-78.0,127.0,127.0,127.0,104.0,88.0,-103.0
127.0,123.0,123.0,127.0,126.0,136.0,126.0,128.0,29.0,-90.0,-78.0,127.0,127.0,127.0,104.0,88.0,-103.0
127.0,124.0,125.0,128.0,127.0,135.0,127.0,128.0,29.0,-90.0,-78.0,127.0,127.0,127.0,104.0,88.0,-103.0
127.0,124.0,125.0,128.0,127.0,135.0,127.0,128.0,29.0,-90.0,-78.0,127.0,127.0,127.0,104.0,88.0,-103.0
127.0,124.0,124.0,127.0,126.0,135.0,127.0,128.0,29.0,-90.0,-78.0,127.0,127.0,127.0,104.0,88.0,-103.0
127.0,124.0,124.0,127.0,126.0,135.0,127.0,128.0,29.0,-90.0,-78.0,127.0,127.0,127.0,104.0,88.0,-103.0
127.0,124.0,124.0,127.0,126.0,135.0,127.0,128.0,29.0,-90.0,-78.0,127.0,127.0,127.0,104.0,88.0,-103.0
127.0,124.0,124.0,127.0,126.0,136.0,126.0,128.0,29.0,-90.0,-78.0,127.0,127.0,127.0,104.0,88.0,-103.0
127.0,126.0,119.0,126.0,127.0,137.0,127.0,128.0,29.0,-91.0,-78.0,127.0,127.0,127.0,104.0,88.0,-103.0
127.0,125.0,119.0,126.0,126.0,136.0,127.0,128.0,29.0,-91.0,-78.0,127.0,127.0,127.0,104.0,88.0,-103.0
127.0,125.0,121.0,129.0,127.0,135.0,127.0,128.0,29.0,-91.0,-78.0,127.0,127.0,127.0,104.0,88.0,-103.0
127.0,125.0,121.0,128.0,127.0,136.0,127.0,128.0,29.0,-91.0,-78.0,127.0,127.0,127.0,104.0,88.0,-103.0
127.0,125.0,120.0,128.0,127.0,135.0,127.0,128.0,29.0,-91.0,-78.0,127.0,127.0,127.0,104.0,88.0,-103.0
127.0,125.0,120.0,127.0,127.0,135.0,127.0,128.0,29.0,-91.0,-78.0,127.0,127.0,127.0,104.0,88.0,-103.0
127.0,125.0,120.0,127.0,127.0,135.0,127.0,128.0,29.0,-91.0,-78.0,127.0,127.0,127.0,104.0,88.0,-103.0
127.0,125.0,120.0,127.0,127.0,135.0,127.0,128.0,29.0,-91.0,-78.0,127.0,127.0,127.0,104.0,88.0,-103.0
127.0,125.0,120.0,127.0,127.0,136.0,127.0,128.0,29.0,-91.0,-78.0,127.0,127.0,127.0,104.0,88.0,-103.0
127.0,125.0,119.0,127.0,127.0,137.0,127.0,128.0,29.0,-91.0,-78.0,127.0,127.0,127.0,104.0,88.0,-103.0
127.0,122.0,111.0,123.0,124.0,134.0,126.0,127.0,29.0,-91.0,-78.0,127.0,127.0,127.0,104.0,88.0,-103.0
128.0,125.0,118.0,128.0,127.0,133.0,126.0,129.0,29.0,-91.0,-78.0,127.0,127.0,127.0,104.0,88.0,-103.0
128.0,125.0,117.0,127.0,126.0,133.0,126.0,129.0,29.0,-91.0,-78.0,127.0,127.0,127.0,104.0,88.0,-103.0
128.0,125.0,116.0,126.0,126.0,133.0,126.0,129.0,29.0,-91.0,-78.0,127.0,127.0,127.0,104.0,88.0,-103.0
128.0,125.0,114.0,126.0,126.0,133.0,126.0,128.0,29.0,-91.0,-78.0,127.0,127.0,127.0,104.0,88.0,-103.0
128.0,124.0,113.0,125.0,126.0,133.0,126.0,128.0,29.0,-91.0,-78.0,127.0,127.0,127.0,104.0,88.0,-103.0
128.0,124.0,113.0,125.0,125.0,134.0,126.0,128.0,29.0,-91.0,-78.0,127.0,127.0,127.0,104.0,88.0,-103.0
128.0,124.0,112.0,124.0,125.0,133.0,126.0,128.0,29.0,-91.0,-78.0,127.0,127.0,127.0,104.0,88.0,-103.0
128.0,123.0,111.0,123.0,125.0,133.0,126.0,128.0,29.0,-91.0,-78.0,127.0,127.0,127.0,104.0,88.0,-103.0
128.0,123.0,111.0,123.0,125.0,134.0,126.0,128.0,29.0,-91.0,-78.0,127.0,127.0,127.0,104.0,88.0,-103.0
125.0,125.0,109.0,135.0,127.0,133.0,126.0,126.0,30.0,-91.0,-78.0,127.0,127.0,127.0,104.0,88.0,-103.0
125.0,125.0,109.0,135.0,127.0,133.0,126.0,126.0,30.0,-91.0,-78.0,127.0,127.0,127.0,104.0,88.0,-103.0
125.0,125.0,108.0,135.0,127.0,133.0,126.0,125.0,30.0,-91.0,-78.0,127.0,127.0,127.0,104.0,88.0,-103.0
126.0,125.0,106.0,135.0,127.0,133.0,126.0,125.0,30.0,-91.0,-78.0,127.0,127.0,127.0,104.0,88.0,-103.0
126.0,125.0,104.0,134.0,127.0,134.0,126.0,126.0,30.0,-91.0,-78.0,127.0,127.0,127.0,104.0,88.0,-103.0
126.0,125.0,102.0,134.0,128.0,134.0,126.0,127.0,30.0,-91.0,-78.0,127.0,127.0,127.0,104.0,88.0,-103.0
127.0,125.0,100.0,133.0,128.0,134.0,127.0,127.0,30.0,-91.0,-78.0,127.0,127.0,127.0,104.0,88.0,-103.0
127.0,125.0,99.0,132.0,128.0,134.0,127.0,128.0,30.0,-91.0,-78.0,127.0,127.0,127.0,104.0,88.0,-103.0
127.0,125.0,98.0,132.0,128.0,134.0,127.0,128.0,30.0,-91.0,-78.0,127.0,127.0,127.0,104.0,88.0,-103.0
127.0,125.0,97.0,133.0,128.0,134.0,127.0,128.0,30.0,-91.0,-78.0,127.0,127.0,127.0,104.0,88.0,-103.0
126.0,123.0,26.0,122.0,125.0,133.0,127.0,128.0,30.0,-92.0,-77.0,-128.0,127.0,127.0,104.0,88.0,-103.0
126.0,123.0,25.0,122.0,125.0,133.0,127.0,128.0,30.0,-92.0,-77.0,-128.0,127.0,127.0,104.0,88.0,-103.0
126.0,123.0,22.0,122.0,125.0,134.0,127.0,127.0,30.0,-92.0,-77.0,-128.0,127.0,127.0,104.0,88.0,-103.0
126.0,123.0,20.0,122.0,125.0,134.0,126.0,127.0,30.0,-92.0,-77.0,-128.0,127.0,127.0,104.0,88.0,-103.0
126.0,123.0,18.0,122.0,125.0,134.0,126.0,126.0,30.0,-92.0,-77.0,-128.0,127.0,127.0,104.0,88.0,-103.0
125.0,123.0,17.0,123.0,125.0,135.0,126.0,126.0,30.0,-92.0,-77.0,-128.0,127.0,127.0,104.0,88.0,-103.0
125.0,123.0,15.0,124.0,125.0,136.0,126.0,126.0,30.0,-92.0,-77.0,-128.0,127.0,127.0,104.0,88.0,-103.0
125.0,123.0,14.0,124.0,125.0,136.0,126.0,127.0,30.0,-92.0,-77.0,-128.0,127.0,127.0,104.0,88.0,-103.0
126.0,123.0,11.0,125.0,125.0,136.0,126.0,128.0,30.0,-92.0,-77.0,-128.0,127.0,127.0,104.0,88.0,-103.0
126.0,123.0,28.0,122.0,125.0,133.0,127.0,129.0,30.0,-92.0,-77.0,-128.0,127.0,127.0,104.0,88.0,-103.0
126.0,125.0,0.0,135.0,127.0,136.0,127.0,131.0,30.0,-93.0,-77.0,-128.0,127.0,127.0,104.0,88.0,-103.0
127.0,125.0,0.0,135.0,127.0,136.0,127.0,131.0,30.0,-93.0,-77.0,-128.0,127.0,127.0,104.0,88.0,-103.0
128.0,124.0,0.0,135.0,127.0,137.0,127.0,132.0,30.0,-93.0,-77.0,-128.0,127.0,127.0,104.0,88.0,-103.0
129.0,124.0,0.0,137.0,127.0,137.0,127.0,133.0,30.0,-93.0,-77.0,-128.0,127.0,127.0,104.0,88.0,-103.0
129.0,124.0,0.0,139.0,128.0,138.0,127.0,133.0,30.0,-93.0,-77.0,-128.0,127.0,127.0,104.0,88.0,-103.0
129.0,125.0,0.0,141.0,128.0,140.0,128.0,134.0,30.0,-93.0,-77.0,-128.0,127.0,127.0,104.0,88.0,-103.0
130.0,125.0,0.0,144.0,128.0,140.0,128.0,135.0,30.0,-93.0,-77.0,-128.0,127.0,127.0,104.0,88.0,-103.0
131.0,125.0,0.0,147.0,128.0,140.0,128.0,135.0,30.0,-93.0,-77.0,-128.0,127.0,127.0,104.0,88.0,-103.0
124.0,125.0,0.0,136.0,127.0,134.0,127.0,130.0,30.0,-93.0,-77.0,-128.0,127.0,127.0,104.0,88.0,-103.0
125.0,125.0,0.0,135.0,127.0,136.0,127.0,130.0,30.0,-93.0,-77.0,-128.0,127.0,127.0,104.0,88.0,-103.0
127.0,118.0,7.0,123.0,121.0,137.0,126.0,124.0,31.0,-94.0,-78.0,-128.0,127.0,127.0,104.0,88.0,-103.0
127.0,118.0,10.0,121.0,121.0,136.0,126.0,125.0,31.0,-94.0,-78.0,-128.0,127.0,127.0,104.0,88.0,-103.0
128.0,119.0,13.0,121.0,121.0,137.0,126.0,125.0,31.0,-94.0,-78.0,-128.0,127.0,127.0,104.0,88.0,-103.0
128.0,119.0,17.0,123.0,121.0,137.0,126.0,127.0,31.0,-94.0,-78.0,-128.0,127.0,127.0,104.0,88.0,-103.0
129.0,119.0,21.0,125.0,122.0,138.0,126.0,128.0,31.0,-94.0,-78.0,-128.0,127.0,127.0,104.0,88.0,-103.0
129.0,120.0,26.0,128.0,122.0,138.0,126.0,129.0,31.0,-94.0,-78.0,-128.0,127.0,127.0,104.0,88.0,-103.0
129.0,120.0,31.0,132.0,123.0,137.0,126.0,130.0,31.0,-94.0,-78.0,-128.0,127.0,127.0,104.0,88.0,-103.0
125.0,119.0,0.0,128.0,122.0,136.0,127.0,122.0,31.0,-94.0,-78.0,-128.0,127.0,127.0,104.0,88.0,-103.0
125.0,119.0,2.0,126.0,122.0,137.0,127.0,123.0,31.0,-94.0,-78.0,-128.0,127.0,127.0,104.0,88.0,-103.0
126.0,119.0,4.0,125.0,121.0,137.0,126.0,123.0,31.0,-94.0,-78.0,-128.0,127.0,127.0,104.0,88.0,-103.0
127.0,113.0,110.0,158.0,119.0,98.0,123.0,126.0,33.0,-95.0,-78.0,-128.0,127.0,127.0,104.0,88.0,-103.0
127.0,113.0,104.0,156.0,119.0,94.0,123.0,126.0,33.0,-95.0,-78.0,-128.0,127.0,127.0,104.0,88.0,-103.0
127.0,113.0,97.0,154.0,119.0,90.0,124.0,126.0,33.0,-95.0,-78.0,-128.0,127.0,127.0,104.0,88.0,-103.0
128.0,113.0,90.0,154.0,120.0,87.0,124.0,126.0,33.0,-95.0,-78.0,-128.0,127.0,127.0,104.0,88.0,-103.0
129.0,114.0,84.0,154.0,121.0,84.0,125.0,126.0,33.0,-95.0,-78.0,-128.0,127.0,127.0,104.0,88.0,-103.0
131.0,115.0,78.0,154.0,122.0,80.0,125.0,126.0,33.0,-95.0,-78.0,-128.0,127.0,127.0,104.0,88.0,-103.0
132.0,116.0,130.0,165.0,121.0,110.0,123.0,126.0,33.0,-95.0,-78.0,-128.0,127.0,127.0,104.0,88.0,-103.0
131.0,116.0,125.0,164.0,120.0,108.0,123.0,126.0,33.0,-95.0,-78.0,-128.0,127.0,127.0,104.0,88.0,-103.0
130.0,115.0,121.0,162.0,120.0,105.0,123.0,126.0,33.0,-95.0,-78.0,-128.0,127.0,127.0,104.0,88.0,-103.0
128.0,114.0,116.0,160.0,119.0,101.0,123.0,126.0,33.0,-95.0,-78.0,-128.0,127.0,127.0,104.0,88.0,-103.0
140.0,131.0,0.0,139.0,118.0,0.0,132.0,128.0,34.0,-94.0,-77.0,-127.0,127.0,127.0,104.0,88.0,-103.0
141.0,132.0,0.0,139.0,118.0,0.0,133.0,128.0,34.0,-94.0,-77.0,-127.0,127.0,127.0,104.0,88.0,-103.0
141.0,132.0,0.0,139.0,119.0,0.0,133.0,128.0,34.0,-94.0,-77.0,-127.0,127.0,127.0,104.0,88.0,-103.0
142.0,133.0,0.0,138.0,119.0,0.0,133.0,128.0,34.0,-94.0,-77.0,-127.0,127.0,127.0,104.0,88.0,-103.0
143.0,133.0,0.0,137.0,119.0,0.0,133.0,128.0,34.0,-94.0,-77.0,-127.0,127.0,127.0,104.0,88.0,-103.0
138.0,130.0,0.0,136.0,119.0,0.0,132.0,128.0,34.0,-94.0,-77.0,-127.0,127.0,127.0,104.0,88.0,-103.0
139.0,130.0,0.0,137.0,119.0,0.0,132.0,128.0,34.0,-94.0,-77.0,-127.0,127.0,127.0,104.0,88.0,-103.0
139.0,131.0,0.0,137.0,118.0,0.0,132.0,128.0,34.0,-94.0,-77.0,-127.0,127.0,127.0,104.0,88.0,-103.0
139.0,131.0,0.0,138.0,118.0,0.0,132.0,128.0,34.0,-94.0,-77.0,-127.0,127.0,127.0,104.0,88.0,-103.0
140.0,131.0,0.0,138.0,118.0,0.0,132.0,128.0,34.0,-94.0,-77.0,-127.0,127.0,127.0,104.0,88.0,-103.0
137.0,120.0,0.0,141.0,123.0,0.0,118.0,117.0,33.0,-92.0,-77.0,-128.0,127.0,127.0,104.0,88.0,-103.0
136.0,120.0,0.0,141.0,123.0,0.0,118.0,117.0,33.0,-92.0,-77.0,-128.0,127.0,127.0,104.0,88.0,-103.0
136.0,120.0,0.0,141.0,123.0,0.0,118.0,117.0,33.0,-92.0,-77.0,-128.0,127.0,127.0,104.0,88.0,-103.0
135.0,119.0,4.0,140.0,123.0,0.0,118.0,117.0,33.0,-92.0,-77.0,-128.0,127.0,127.0,104.0,88.0,-103.0
140.0,122.0,0.0,135.0,123.0,0.0,121.0,119.0,33.0,-92.0,-77.0,-128.0,127.0,127.0,104.0,88.0,-103.0
139.0,122.0,0.0,134.0,122.0,0.0,120.0,119.0,33.0,-92.0,-77.0,-128.0,127.0,127.0,104.0,88.0,-103.0
139.0,122.0,0.0,135.0,123.0,0.0,120.0,119.0,33.0,-92.0,-77.0,-128.0,127.0,127.0,104.0,88.0,-103.0
138.0,122.0,0.0,136.0,123.0,0.0,119.0,118.0,33.0,-92.0,-77.0,-128.0,127.0,127.0,104.0,88.0,-103.0
138.0,121.0,0.0,138.0,123.0,0.0,119.0,118.0,33.0,-92.0,-77.0,-128.0,127.0,127.0,104.0,88.0,-103.0
137.0,120.0,0.0,139.0,123.0,0.0,119.0,118.0,33.0,-92.0,-77.0,-128.0,127.0,127.0,104.0,88.0,-103.0
122.0,108.0,254.0,106.0,128.0,0.0,120.0,126.0,32.0,-86.0,-77.0,127.0,127.0,127.0,104.0,88.0,-103.0
122.0,108.0,254.0,105.0,127.0,0.0,120.0,126.0,32.0,-86.0,-77.0,127.0,127.0,127.0,104.0,88.0,-103.0
122.0,107.0,254.0,104.0,127.0,0.0,120.0,126.0,32.0,-86.0,-77.0,127.0,127.0,127.0,104.0,88.0,-103.0
121.0,111.0,254.0,111.0,130.0,0.0,121.0,127.0,32.0,-86.0,-77.0,127.0,127.0,127.0,104.0,88.0,-103.0
121.0,111.0,254.0,109.0,130.0,0.0,121.0,127.0,32.0,-86.0,-77.0,127.0,127.0,127.0,104.0,88.0,-103.0
121.0,111.0,254.0,109.0,130.0,0.0,121.0,127.0,32.0,-86.0,-77.0,127.0,127.0,127.0,104.0,88.0,-103.0
121.0,110.0,254.0,108.0,129.0,0.0,121.0,127.0,32.0,-86.0,-77.0,127.0,127.0,127.0,104.0,88.0,-103.0
121.0,110.0,254.0,108.0,129.0,0.0,121.0,127.0,32.0,-86.0,-77.0,127.0,127.0,127.0,104.0,88.0,-103.0
121.0,109.0,254.0,107.0,129.0,0.0,120.0,127.0,32.0,-86.0,-77.0,127.0,127.0,127.0,104.0,88.0,-103.0
122.0,109.0,254.0,107.0,128.0,0.0,120.0,127.0,32.0,-86.0,-77.0,127.0,127.0,127.0,104.0,88.0,-103.0
125.0,108.0,254.0,105.0,130.0,0.0,124.0,127.0,29.0,-85.0,-80.0,127.0,127.0,127.0,104.0,88.0,-103.0
125.0,108.0,254.0,104.0,131.0,0.0,124.0,126.0,29.0,-85.0,-80.0,127.0,127.0,127.0,104.0,88.0,-103.0
124.0,106.0,254.0,112.0,126.0,0.0,122.0,127.0,29.0,-85.0,-80.0,127.0,127.0,127.0,104.0,88.0,-103.0
125.0,106.0,254.0,111.0,126.0,0.0,122.0,127.0,29.0,-85.0,-80.0,127.0,127.0,127.0,104.0,88.0,-103.0
125.0,106.0,254.0,111.0,127.0,0.0,123.0,127.0,29.0,-85.0,-80.0,127.0,127.0,127.0,104.0,88.0,-103.0
125.0,106.0,254.0,111.0,127.0,0.0,123.0,127.0,29.0,-85.0,-80.0,127.0,127.0,127.0,104.0,88.0,-103.0
125.0,107.0,254.0,110.0,128.0,0.0,123.0,127.0,29.0,-85.0,-80.0,127.0,127.0,127.0,104.0,88.0,-103.0
125.0,108.0,254.0,109.0,129.0,0.0,123.0,127.0,29.0,-85.0,-80.0,127.0,127.0,127.0,104.0,88.0,-103.0
125.0,108.0,254.0,107.0,129.0,0.0,124.0,127.0,29.0,-85.0,-80.0,127.0,127.0,127.0,104.0,88.0,-103.0
125.0,108.0,254.0,106.0,130.0,0.0,124.0,127.0,29.0,-85.0,-80.0,127.0,127.0,127.0,104.0,88.0,-103.0
124.0,109.0,254.0,106.0,127.0,22.0,125.0,127.0,25.0,-88.0,-80.0,127.0,127.0,127.0,104.0,88.0,-103.0
123.0,110.0,254.0,109.0,130.0,5.0,127.0,127.0,25.0,-88.0,-80.0,127.0,127.0,127.0,104.0,88.0,-103.0
123.0,110.0,254.0,108.0,129.0,6.0,127.0,127.0,25.0,-88.0,-80.0,127.0,127.0,127.0,104.0,88.0,-103.0
123.0,110.0,254.0,108.0,129.0,7.0,127.0,126.0,25.0,-88.0,-80.0,127.0,127.0,127.0,104.0,88.0,-103.0
123.0,109.0,254.0,108.0,128.0,9.0,126.0,126.0,25.0,-88.0,-80.0,127.0,127.0,127.0,104.0,88.0,-103.0
123.0,109.0,254.0,108.0,128.0,11.0,126.0,126.0,25.0,-88.0,-80.0,127.0,127.0,127.0,104.0,88.0,-103.0
124.0,110.0,254.0,107.0,128.0,14.0,126.0,126.0,25.0,-88.0,-80.0,127.0,127.0,127.0,104.0,88.0,-103.0
124.0,110.0,254.0,107.0,128.0,16.0,126.0,127.0,25.0,-88.0,-80.0,127.0,127.0,127.0,104.0,88.0,-103.0
125.0,109.0,254.0,107.0,127.0,18.0,126.0,127.0,25.0,-88.0,-80.0,127.0,127.0,127.0,104.0,88.0,-103.0
124.0,109.0,254.0,107.0,127.0,20.0,126.0,127.0,25.0,-88.0,-80.0,127.0,127.0,127.0,104.0,88.0,-103.0
125.0,109.0,254.0,112.0,129.0,85.0,125.0,125.0,24.0,-91.0,-80.0,-128.0,127.0,127.0,104.0,88.0,-103.0
126.0,109.0,254.0,113.0,128.0,85.0,126.0,125.0,24.0,-91.0,-80.0,-128.0,127.0,127.0,104.0,88.0,-103.0
126.0,109.0,254.0,114.0,128.0,86.0,126.0,126.0,24.0,-91.0,-80.0,-128.0,127.0,127.0,104.0,88.0,-103.0
127.0,109.0,254.0,114.0,128.0,87.0,126.0,127.0,24.0,-91.0,-80.0,-128.0,127.0,127.0,104.0,88.0,-103.0
127.0,109.0,254.0,114.0,127.0,88.0,126.0,128.0,24.0,-91.0,-80.0,-128.0,127.0,127.0,104.0,88.0,-103.0
127.0,109.0,254.0,114.0,127.0,91.0,126.0,128.0,24.0,-91.0,-80.0,-128.0,127.0,127.0,104.0,88.0,-103.0
127.0,109.0,254.0,114.0,127.0,92.0,126.0,128.0,24.0,-91.0,-80.0,-128.0,127.0,127.0,104.0,88.0,-103.0
127.0,108.0,254.0,113.0,126.0,92.0,125.0,128.0,24.0,-91.0,-80.0,-128.0,127.0,127.0,104.0,88.0,-103.0
127.0,108.0,254.0,112.0,125.0,93.0,125.0,127.0,24.0,-91.0,-80.0,-128.0,127.0,127.0,104.0,88.0,-103.0
127.0,108.0,254.0,111.0,125.0,94.0,125.0,127.0,24.0,-91.0,-80.0,-128.0,127.0,127.0,104.0,88.0,-103.0
126.0,114.0,254.0,111.0,124.0,111.0,125.0,126.0,25.0,-90.0,-79.0,-128.0,127.0,127.0,104.0,88.0,-103.0
125.0,114.0,254.0,110.0,124.0,111.0,125.0,126.0,25.0,-90.0,-79.0,-128.0,127.0,127.0,104.0,88.0,-103.0
125.0,113.0,254.0,111.0,123.0,112.0,125.0,126.0,25.0,-90.0,-79.0,-128.0,127.0,127.0,104.0,88.0,-103.0
125.0,113.0,254.0,111.0,123.0,112.0,125.0,126.0,25.0,-90.0,-79.0,-128.0,127.0,127.0,104.0,88.0,-103.0
125.0,113.0,254.0,112.0,123.0,115.0,125.0,126.0,25.0,-90.0,-79.0,-128.0,127.0,127.0,104.0,88.0,-103.0
125.0,113.0,254.0,112.0,123.0,115.0,125.0,126.0,25.0,-90.0,-79.0,-128.0,127.0,127.0,104.0,88.0,-103.0
125.0,113.0,254.0,113.0,123.0,115.0,125.0,126.0,25.0,-90.0,-79.0,-128.0,127.0,127.0,104.0,88.0,-103.0
125.0,113.0,254.0,114.0,123.0,116.0,125.0,126.0,25.0,-90.0,-79.0,-128.0,127.0,127.0,104.0,88.0,-103.0
125.0,112.0,254.0,115.0,123.0,116.0,125.0,126.0,25.0,-90.0,-79.0,-128.0,127.0,127.0,104.0,88.0,-103.0
126.0,114.0,254.0,111.0,125.0,111.0,125.0,126.0,25.0,-90.0,-79.0,-128.0,127.0,127.0,104.0,88.0,-103.0
127.0,117.0,216.0,114.0,129.0,117.0,127.0,128.0,25.0,-88.0,-79.0,-128.0,127.0,127.0,104.0,88.0,-103.0
127.0,117.0,213.0,114.0,128.0,117.0,127.0,127.0,25.0,-88.0,-79.0,-128.0,127.0,127.0,104.0,88.0,-103.0
127.0,116.0,210.0,113.0,128.0,117.0,127.0,127.0,25.0,-88.0,-79.0,-128.0,127.0,127.0,104.0,88.0,-103.0
127.0,117.0,206.0,112.0,128.0,119.0,127.0,127.0,25.0,-88.0,-79.0,-128.0,127.0,127.0,104.0,88.0,-103.0
127.0,117.0,203.0,112.0,128.0,120.0,127.0,127.0,25.0,-88.0,-79.0,-128.0,127.0,127.0,104.0,88.0,-103.0
127.0,117.0,200.0,111.0,128.0,120.0,127.0,127.0,25.0,-88.0,-79.0,-128.0,127.0,127.0,104.0,88.0,-103.0
126.0,116.0,197.0,111.0,128.0,120.0,127.0,127.0,25.0,-88.0,-79.0,-128.0,127.0,127.0,104.0,88.0,-103.0
127.0,118.0,225.0,115.0,129.0,116.0,127.0,128.0,25.0,-88.0,-79.0,-128.0,127.0,127.0,104.0,88.0,-103.0
127.0,117.0,222.0,115.0,129.0,117.0,127.0,128.0,25.0,-88.0,-79.0,-128.0,127.0,127.0,104.0,88.0,-103.0
127.0,117.0,219.0,115.0,129.0,116.0,127.0,128.0,25.0,-88.0,-79.0,-128.0,127.0,127.0,104.0,88.0,-103.0
127.0,118.0,110.0,120.0,128.0,118.0,128.0,128.0,26.0,-88.0,-79.0,127.0,127.0,127.0,104.0,88.0,-103.0
127.0,118.0,110.0,120.0,128.0,118.0,128.0,128.0,26.0,-88.0,-79.0,127.0,127.0,127.0,104.0,88.0,-103.0
127.0,119.0,109.0,119.0,128.0,120.0,128.0,128.0,26.0,-88.0,-79.0,127.0,127.0,127.0,104.0,88.0,-103.0
127.0,118.0,108.0,118.0,128.0,121.0,128.0,128.0,26.0,-88.0,-79.0,127.0,127.0,127.0,104.0,88.0,-103.0
126.0,118.0,107.0,117.0,127.0,121.0,128.0,128.0,26.0,-88.0,-79.0,127.0,127.0,127.0,104.0,88.0,-103.0
126.0,118.0,106.0,116.0,127.0,121.0,128.0,128.0,26.0,-88.0,-79.0,127.0,127.0,127.0,104.0,88.0,-103.0
126.0,117.0,114.0,118.0,126.0,118.0,127.0,127.0,26.0,-88.0,-79.0,127.0,127.0,127.0,104.0,88.0,-103.0
126.0,117.0,113.0,118.0,126.0,119.0,127.0,127.0,26.0,-88.0,-79.0,127.0,127.0,127.0,104.0,88.0,-103.0
127.0,118.0,112.0,119.0,127.0,118.0,128.0,127.0,26.0,-88.0,-79.0,127.0,127.0,127.0,104.0,88.0,-103.0
127.0,118.0,111.0,120.0,127.0,118.0,128.0,127.0,26.0,-88.0,-79.0,127.0,127.0,127.0,104.0,88.0,-103.0
125.0,119.0,93.0,112.0,126.0,118.0,127.0,124.0,26.0,-89.0,-80.0,127.0,127.0,127.0,104.0,88.0,-103.0
124.0,119.0,93.0,112.0,126.0,120.0,127.0,124.0,26.0,-89.0,-80.0,127.0,127.0,127.0,104.0,88.0,-103.0
124.0,119.0,94.0,112.0,126.0,121.0,127.0,124.0,26.0,-89.0,-80.0,127.0,127.0,127.0,104.0,88.0,-103.0
124.0,119.0,94.0,112.0,126.0,121.0,127.0,125.0,26.0,-89.0,-80.0,127.0,127.0,127.0,104.0,88.0,-103.0
124.0,118.0,94.0,112.0,126.0,121.0,127.0,126.0,26.0,-89.0,-80.0,127.0,127.0,127.0,104.0,88.0,-103.0
125.0,120.0,93.0,116.0,128.0,118.0,127.0,125.0,26.0,-89.0,-80.0,127.0,127.0,127.0,104.0,88.0,-103.0
125.0,120.0,93.0,115.0,127.0,119.0,127.0,125.0,26.0,-89.0,-80.0,127.0,127.0,127.0,104.0,88.0,-103.0
125.0,119.0,93.0,114.0,127.0,118.0,127.0,124.0,26.0,-89.0,-80.0,127.0,127.0,127.0,104.0,88.0,-103.0
125.0,119.0,93.0,113.0,127.0,118.0,127.0,124.0,26.0,-89.0,-80.0,127.0,127.0,127.0,104.0,88.0,-103.0
125.0,119.0,93.0,112.0,127.0,118.0,127.0,124.0,26.0,-89.0,-80.0,127.0,127.0,127.0,104.0,88.0,-103.0
126.0,119.0,101.0,120.0,128.0,114.0,128.0,131.0,26.0,-90.0,-80.0,127.0,127.0,127.0,104.0,88.0,-103.0
126.0,119.0,101.0,120.0,128.0,114.0,128.0,131.0,26.0,-90.0,-80.0,127.0,127.0,127.0,104.0,88.0,-103.0
126.0,119.0,101.0,120.0,128.0,115.0,128.0,131.0,26.0,-90.0,-80.0,127.0,127.0,127.0,104.0,88.0,-103.0
126.0,119.0,101.0,119.0,128.0,116.0,128.0,131.0,26.0,-90.0,-80.0,127.0,127.0,127.0,104.0,88.0,-103.0
123.0,117.0,101.0,121.0,126.0,114.0,127.0,131.0,26.0,-90.0,-80.0,127.0,127.0,127.0,104.0,88.0,-103.0
124.0,118.0,101.0,121.0,126.0,114.0,127.0,131.0,26.0,-90.0,-80.0,127.0,127.0,127.0,104.0,88.0,-103.0
125.0,119.0,101.0,121.0,127.0,114.0,127.0,131.0,26.0,-90.0,-80.0,127.0,127.0,127.0,104.0,88.0,-103.0
125.0,119.0,101.0,121.0,127.0,114.0,127.0,131.0,26.0,-90.0,-80.0,127.0,127.0,127.0,104.0,88.0,-103.0
126.0,119.0,101.0,121.0,127.0,114.0,128.0,131.0,26.0,-90.0,-80.0,127.0,127.0,127.0,104.0,88.0,-103.0
126.0,120.0,101.0,120.0,128.0,114.0,128.0,131.0,26.0,-90.0,-80.0,127.0,127.0,127.0,104.0,88.0,-103.0
124.0,120.0,106.0,116.0,127.0,118.0,128.0,128.0,27.0,-90.0,-80.0,127.0,127.0,127.0,104.0,88.0,-103.0
124.0,120.0,106.0,116.0,127.0,118.0,128.0,128.0,27.0,-90.0,-80.0,127.0,127.0,127.0,104.0,88.0,-103.0
124.0,119.0,106.0,117.0,128.0,118.0,128.0,128.0,27.0,-90.0,-80.0,127.0,127.0,127.0,104.0,88.0,-103.0
124.0,119.0,106.0,124.0,126.0,116.0,127.0,128.0,27.0,-90.0,-80.0,127.0,127.0,127.0,104.0,88.0,-103.0
124.0,120.0,106.0,122.0,126.0,116.0,127.0,128.0,27.0,-90.0,-80.0,127.0,127.0,127.0,104.0,88.0,-103.0
124.0,120.0,106.0,120.0,126.0,116.0,127.0,127.0,27.0,-90.0,-80.0,127.0,127.0,127.0,104.0,88.0,-103.0
124.0,120.0,106.0,118.0,127.0,118.0,127.0,127.0,27.0,-90.0,-80.0,127.0,127.0,127.0,104.0,88.0,-103.0
124.0,120.0,106.0,117.0,127.0,118.0,127.0,127.0,27.0,-90.0,-80.0,127.0,127.0,127.0,104.0,88.0,-103.0
124.0,120.0,106.0,116.0,127.0,118.0,128.0,127.0,27.0,-90.0,-80.0,127.0,127.0,127.0,104.0,88.0,-103.0
124.0,120.0,106.0,116.0,127.0,118.0,128.0,128.0,27.0,-90.0,-80.0,127.0,127.0,127.0,104.0,88.0,-103.0
126.0,122.0,110.0,120.0,127.0,118.0,127.0,128.0,26.0,-90.0,-80.0,127.0,127.0,127.0,104.0,88.0,-103.0
126.0,121.0,110.0,117.0,127.0,118.0,127.0,128.0,26.0,-90.0,-80.0,127.0,127.0,127.0,104.0,88.0,-103.0
125.0,119.0,110.0,122.0,124.0,117.0,126.0,127.0,26.0,-90.0,-80.0,127.0,127.0,127.0,104.0,88.0,-103.0
126.0,120.0,110.0,124.0,125.0,117.0,126.0,127.0,26.0,-90.0,-80.0,127.0,127.0,127.0,104.0,88.0,-103.0
126.0,121.0,110.0,125.0,125.0,117.0,126.0,127.0,26.0,-90.0,-80.0,127.0,127.0,127.0,104.0,88.0,-103.0
126.0,121.0,110.0,125.0,126.0,118.0,126.0,128.0,26.0,-90.0,-80.0,127.0,127.0,127.0,104.0,88.0,-103.0
126.0,121.0,110.0,125.0,126.0,119.0,126.0,128.0,26.0,-90.0,-80.0,127.0,127.0,127.0,104.0,88.0,-103.0
127.0,122.0,110.0,124.0,126.0,119.0,127.0,128.0,26.0,-90.0,-80.0,127.0,127.0,127.0,104.0,88.0,-103.0
127.0,122.0,110.0,123.0,127.0,118.0,127.0,128.0,26.0,-90.0,-80.0,127.0,127.0,127.0,104.0,88.0,-103.0
127.0,122.0,110.0,122.0,127.0,118.0,127.0,128.0,26.0,-90.0,-80.0,127.0,127.0,127.0,104.0,88.0,-103.0
124.0,120.0,112.0,125.0,125.0,117.0,127.0,129.0,26.0,-90.0,-80.0,127.0,127.0,127.0,104.0,88.0,-103.0
124.0,121.0,112.0,127.0,127.0,115.0,127.0,125.0,26.0,-90.0,-80.0,127.0,127.0,127.0,104.0,88.0,-103.0
124.0,121.0,112.0,128.0,126.0,115.0,127.0,125.0,26.0,-90.0,-80.0,127.0,127.0,127.0,104.0,88.0,-103.0
124.0,121.0,112.0,128.0,126.0,115.0,127.0,126.0,26.0,-90.0,-80.0,127.0,127.0,127.0,104.0,88.0,-103.0
124.0,121.0,112.0,127.0,126.0,116.0,127.0,127.0,26.0,-90.0,-80.0,127.0,127.0,127.0,104.0,88.0,-103.0
124.0,121.0,112.0,127.0,125.0,117.0,127.0,127.0,26.0,-90.0,-80.0,127.0,127.0,127.0,104.0,88.0,-103.0
124.0,121.0,112.0,126.0,125.0,117.0,127.0,127.0,26.0,-90.0,-80.0,127.0,127.0,127.0,104.0,88.0,-103.0
124.0,121.0,112.0,125.0,125.0,117.0,127.0,128.0,26.0,-90.0,-80.0,127.0,127.0,127.0,104.0,88.0,-103.0
124.0,120.0,112.0,125.0,125.0,117.0,127.0,128.0,26.0,-90.0,-80.0,127.0,127.0,127.0,104.0,88.0,-103.0
124.0,121.0,112.0,125.0,125.0,117.0,127.0,129.0,26.0,-90.0,-80.0,127.0,127.0,127.0,104.0,88.0,-103.0
124.0,120.0,116.0,122.0,125.0,114.0,127.0,128.0,26.0,-90.0,-79.0,127.0,127.0,127.0,104.0,88.0,-103.0
124.0,120.0,116.0,123.0,125.0,114.0,127.0,127.0,26.0,-90.0,-79.0,127.0,127.0,127.0,104.0,88.0,-103.0
123.0,120.0,116.0,126.0,125.0,115.0,127.0,127.0,26.0,-90.0,-79.0,127.0,127.0,127.0,104.0,88.0,-103.0
123.0,119.0,116.0,128.0,125.0,116.0,126.0,126.0,26.0,-90.0,-79.0,127.0,127.0,127.0,104.0,88.0,-103.0
123.0,120.0,116.0,131.0,126.0,117.0,126.0,126.0,26.0,-90.0,-79.0,127.0,127.0,127.0,104.0,88.0,-103.0
123.0,120.0,116.0,133.0,126.0,117.0,126.0,125.0,26.0,-90.0,-79.0,127.0,127.0,127.0,104.0,88.0,-103.0
123.0,120.0,116.0,133.0,127.0,117.0,126.0,124.0,26.0,-90.0,-79.0,127.0,127.0,127.0,104.0,88.0,-103.0
123.0,120.0,116.0,133.0,128.0,117.0,126.0,124.0,26.0,-90.0,-79.0,127.0,127.0,127.0,104.0,88.0,-103.0
123.0,121.0,116.0,132.0,129.0,117.0,127.0,123.0,26.0,-90.0,-79.0,127.0,127.0,127.0,104.0,88.0,-103.0
123.0,121.0,116.0,131.0,129.0,117.0,127.0,123.0,26.0,-90.0,-79.0,127.0,127.0,127.0,104.0,88.0,-103.0
125.0,124.0,120.0,123.0,128.0,114.0,127.0,130.0,25.0,-90.0,-79.0,127.0,127.0,127.0,104.0,88.0,-103.0
125.0,123.0,120.0,124.0,128.0,114.0,127.0,130.0,25.0,-90.0,-79.0,127.0,127.0,127.0,104.0,88.0,-103.0
125.0,123.0,120.0,124.0,128.0,114.0,127.0,130.0,25.0,-90.0,-79.0,127.0,127.0,127.0,104.0,88.0,-103.0
126.0,123.0,120.0,125.0,128.0,116.0,127.0,130.0,25.0,-90.0,-79.0,127.0,127.0,127.0,104.0,88.0,-103.0
126.0,123.0,120.0,125.0,128.0,116.0,127.0,130.0,25.0,-90.0,-79.0,127.0,127.0,127.0,104.0,88.0,-103.0
126.0,123.0,120.0,124.0,128.0,116.0,127.0,130.0,25.0,-90.0,-79.0,127.0,127.0,127.0,104.0,88.0,-103.0
126.0,122.0,120.0,124.0,128.0,116.0,127.0,130.0,25.0,-90.0,-79.0,127.0,127.0,127.0,104.0,88.0,-103.0
126.0,122.0,120.0,123.0,128.0,117.0,127.0,130.0,25.0,-90.0,-79.0,127.0,127.0,127.0,104.0,88.0,-103.0
126.0,122.0,120.0,122.0,128.0,117.0,127.0,129.0,25.0,-90.0,-79.0,127.0,127.0,127.0,104.0,88.0,-103.0
125.0,124.0,120.0,123.0,127.0,114.0,127.0,130.0,25.0,-90.0,-79.0,127.0,127.0,127.0,104.0,88.0,-103.0
126.0,122.0,122.0,114.0,127.0,116.0,126.0,126.0,25.0,-90.0,-79.0,127.0,127.0,127.0,104.0,88.0,-103.0
126.0,122.0,122.0,113.0,127.0,116.0,126.0,127.0,25.0,-90.0,-79.0,127.0,127.0,127.0,104.0,88.0,-103.0
126.0,123.0,122.0,112.0,127.0,117.0,126.0,128.0,25.0,-90.0,-79.0,127.0,127.0,127.0,104.0,88.0,-103.0
126.0,122.0,122.0,111.0,127.0,117.0,126.0,129.0,25.0,-90.0,-79.0,127.0,127.0,127.0,104.0,88.0,-103.0
126.0,122.0,122.0,111.0,127.0,117.0,127.0,130.0,25.0,-90.0,-79.0,127.0,127.0,127.0,104.0,88.0,-103.0
126.0,121.0,122.0,112.0,127.0,117.0,127.0,130.0,25.0,-90.0,-79.0,127.0,127.0,127.0,104.0,88.0,-103.0
126.0,121.0,122.0,112.0,127.0,117.0,127.0,130.0,25.0,-90.0,-79.0,127.0,127.0,127.0,104.0,88.0,-103.0
126.0,121.0,122.0,113.0,127.0,117.0,127.0,130.0,25.0,-90.0,-79.0,127.0,127.0,127.0,104.0,88.0,-103.0
126.0,123.0,122.0,116.0,128.0,116.0,126.0,124.0,25.0,-90.0,-79.0,127.0,127.0,127.0,104.0,88.0,-103.0
126.0,123.0,122.0,115.0,128.0,115.0,126.0,124.0,25.0,-90.0,-79.0,127.0,127.0,127.0,104.0,88.0,-103.0
126.0,122.0,124.0,131.0,130.0,113.0,127.0,128.0,25.0,-91.0,-79.0,127.0,127.0,127.0,104.0,88.0,-103.0
126.0,123.0,123.0,130.0,130.0,115.0,127.0,128.0,25.0,-91.0,-79.0,127.0,127.0,127.0,104.0,88.0,-103.0
126.0,123.0,123.0,128.0,130.0,116.0,127.0,128.0,25.0,-91.0,-79.0,127.0,127.0,127.0,104.0,88.0,-103.0
126.0,122.0,123.0,126.0,130.0,116.0,127.0,127.0,25.0,-91.0,-79.0,127.0,127.0,127.0,104.0,88.0,-103.0
126.0,122.0,123.0,124.0,129.0,116.0,127.0,127.0,25.0,-91.0,-79.0,127.0,127.0,127.0,104.0,88.0,-103.0
126.0,122.0,123.0,122.0,129.0,116.0,127.0,127.0,25.0,-91.0,-79.0,127.0,127.0,127.0,104.0,88.0,-103.0
126.0,122.0,123.0,120.0,128.0,116.0,127.0,127.0,25.0,-91.0,-79.0,127.0,127.0,127.0,104.0,88.0,-103.0
126.0,123.0,124.0,133.0,130.0,113.0,127.0,128.0,25.0,-91.0,-79.0,127.0,127.0,127.0,104.0,88.0,-103.0
126.0,123.0,124.0,133.0,130.0,113.0,127.0,128.0,25.0,-91.0,-79.0,127.0,127.0,127.0,104.0,88.0,-103.0
126.0,123.0,124.0,132.0,130.0,113.0,127.0,128.0,25.0,-91.0,-79.0,127.0,127.0,127.0,104.0,88.0,-103.0
124.0,120.0,122.0,120.0,126.0,113.0,126.0,126.0,26.0,-91.0,-78.0,127.0,127.0,127.0,104.0,88.0,-103.0
124.0,120.0,122.0,120.0,126.0,113.0,126.0,127.0,26.0,-91.0,-78.0,127.0,127.0,127.0,104.0,88.0,-103.0
124.0,120.0,122.0,119.0,126.0,114.0,126.0,127.0,26.0,-91.0,-78.0,127.0,127.0,127.0,104.0,88.0,-103.0
124.0,120.0,122.0,119.0,126.0,115.0,126.0,128.0,26.0,-91.0,-78.0,127.0,127.0,127.0,104.0,88.0,-103.0
125.0,120.0,122.0,118.0,126.0,116.0,126.0,129.0,26.0,-91.0,-78.0,127.0,127.0,127.0,104.0,88.0,-103.0
125.0,120.0,122.0,117.0,126.0,117.0,126.0,129.0,26.0,-91.0,-78.0,127.0,127.0,127.0,104.0,88.0,-103.0
124.0,121.0,122.0,119.0,126.0,112.0,126.0,123.0,26.0,-91.0,-78.0,127.0,127.0,127.0,104.0,88.0,-103.0
124.0,121.0,122.0,120.0,126.0,112.0,126.0,123.0,26.0,-91.0,-78.0,127.0,127.0,127.0,104.0,88.0,-103.0
123.0,121.0,122.0,120.0,126.0,113.0,126.0,123.0,26.0,-91.0,-78.0,127.0,127.0,127.0,104.0,88.0,-103.0
123.0,120.0,122.0,121.0,126.0,113.0,126.0,125.0,26.0,-91.0,-78.0,127.0,127.0,127.0,104.0,88.0,-103.0
120.0,121.0,124.0,123.0,127.0,116.0,126.0,124.0,27.0,-91.0,-78.0,127.0,127.0,127.0,104.0,88.0,-103.0
120.0,120.0,124.0,124.0,127.0,116.0,126.0,124.0,27.0,-91.0,-78.0,127.0,127.0,127.0,104.0,88.0,-103.0
119.0,120.0,124.0,125.0,127.0,116.0,126.0,125.0,27.0,-91.0,-78.0,127.0,127.0,127.0,104.0,88.0,-103.0
119.0,120.0,124.0,126.0,127.0,116.0,126.0,126.0,27.0,-91.0,-78.0,127.0,127.0,127.0,104.0,88.0,-103.0
120.0,120.0,124.0,127.0,127.0,116.0,126.0,127.0,27.0,-91.0,-78.0,127.0,127.0,127.0,104.0,88.0,-103.0
122.0,121.0,124.0,124.0,130.0,113.0,127.0,125.0,27.0,-91.0,-78.0,127.0,127.0,127.0,104.0,88.0,-103.0
123.0,121.0,124.0,123.0,129.0,115.0,127.0,124.0,27.0,-91.0,-78.0,127.0,127.0,127.0,104.0,88.0,-103.0
122.0,121.0,124.0,122.0,129.0,116.0,126.0,124.0,27.0,-91.0,-78.0,127.0,127.0,127.0,104.0,88.0,-103.0
122.0,121.0,124.0,122.0,128.0,116.0,126.0,124.0,27.0,-91.0,-78.0,127.0,127.0,127.0,104.0,88.0,-103.0
121.0,121.0,124.0,122.0,128.0,116.0,126.0,124.0,27.0,-91.0,-78.0,127.0,127.0,127.0,104.0,88.0,-103.0
126.0,121.0,127.0,130.0,127.0,115.0,126.0,127.0,28.0,-91.0,-78.0,127.0,127.0,127.0,104.0,88.0,-103.0
126.0,120.0,127.0,131.0,127.0,115.0,126.0,127.0,28.0,-91.0,-78.0,127.0,127.0,127.0,104.0,88.0,-103.0
126.0,120.0,127.0,132.0,127.0,115.0,126.0,126.0,28.0,-91.0,-78.0,127.0,127.0,127.0,104.0,88.0,-103.0
125.0,121.0,127.0,130.0,127.0,113.0,127.0,129.0,28.0,-91.0,-78.0,127.0,127.0,127.0,104.0,88.0,-103.0
126.0,121.0,127.0,129.0,127.0,113.0,127.0,129.0,28.0,-91.0,-78.0,127.0,127.0,127.0,104.0,88.0,-103.0
126.0,121.0,127.0,128.0,127.0,115.0,127.0,129.0,28.0,-91.0,-78.0,127.0,127.0,127.0,104.0,88.0,-103.0
126.0,121.0,127.0,127.0,127.0,115.0,126.0,129.0,28.0,-91.0,-78.0,127.0,127.0,127.0,104.0,88.0,-103.0
126.0,121.0,127.0,127.0,127.0,115.0,126.0,128.0,28.0,-91.0,-78.0,127.0,127.0,127.0,104.0,88.0,-103.0
126.0,121.0,127.0,127.0,127.0,115.0,126.0,128.0,28.0,-91.0,-78.0,127.0,127.0,127.0,104.0,88.0,-103.0
126.0,121.0,127.0,128.0,127.0,115.0,126.0,127.0,28.0,-91.0,-78.0,127.0,127.0,127.0,104.0,88.0,-103.0
128.0,120.0,124.0,121.0,122.0,115.0,126.0,127.0,28.0,-91.0,-78.0,127.0,127.0,127.0,104.0,88.0,-104.0
128.0,120.0,124.0,121.0,122.0,115.0,126.0,127.0,28.0,-91.0,-78.0,127.0,127.0,127.0,104.0,88.0,-104.0
129.0,122.0,125.0,122.0,126.0,113.0,127.0,128.0,28.0,-91.0,-78.0,127.0,127.0,127.0,104.0,88.0,-104.0
129.0,122.0,125.0,122.0,126.0,114.0,127.0,128.0,28.0,-91.0,-78.0,127.0,127.0,127.0,104.0,88.0,-104.0
129.0,122.0,125.0,122.0,125.0,115.0,127.0,128.0,28.0,-91.0,-78.0,127.0,127.0,127.0,104.0,88.0,-104.0
129.0,122.0,125.0,122.0,125.0,116.0,126.0,127.0,28.0,-91.0,-78.0,127.0,127.0,127.0,104.0,88.0,-104.0
128.0,122.0,124.0,122.0,124.0,116.0,126.0,127.0,28.0,-91.0,-78.0,127.0,127.0,127.0,104.0,88.0,-104.0
128.0,121.0,124.0,122.0,124.0,116.0,126.0,127.0,28.0,-91.0,-78.0,127.0,127.0,127.0,104.0,88.0,-104.0
128.0,121.0,124.0,122.0,123.0,115.0,126.0,127.0,28.0,-91.0,-78.0,127.0,127.0,127.0,104.0,88.0,-104.0
128.0,120.0,124.0,121.0,123.0,116.0,126.0,127.0,28.0,-91.0,-78.0,127.0,127.0,127.0,104.0,88.0,-104.0
125.0,119.0,125.0,133.0,124.0,115.0,126.0,126.0,28.0,-91.0,-77.0,127.0,127.0,127.0,104.0,88.0,-104.0
125.0,120.0,125.0,123.0,131.0,113.0,127.0,127.0,28.0,-91.0,-77.0,127.0,127.0,127.0,104.0,88.0,-104.0
125.0,120.0,125.0,123.0,130.0,113.0,126.0,127.0,28.0,-91.0,-77.0,127.0,127.0,127.0,104.0,88.0,-104.0
125.0,120.0,125.0,122.0,128.0,115.0,126.0,127.0,28.0,-91.0,-77.0,127.0,127.0,127.0,104.0,88.0,-104.0
125.0,119.0,125.0,122.0,127.0,116.0,126.0,127.0,28.0,-91.0,-77.0,127.0,127.0,127.0,104.0,88.0,-104.0
125.0,119.0,125.0,122.0,126.0,116.0,126.0,127.0,28.0,-91.0,-77.0,127.0,127.0,127.0,104.0,88.0,-104.0
124.0,119.0,125.0,123.0,125.0,115.0,126.0,127.0,28.0,-91.0,-77.0,127.0,127.0,127.0,104.0,88.0,-104.0
125.0,119.0,125.0,125.0,125.0,115.0,126.0,127.0,28.0,-91.0,-77.0,127.0,127.0,127.0,104.0,88.0,-104.0
125.0,119.0,125.0,127.0,124.0,115.0,126.0,127.0,28.0,-91.0,-77.0,127.0,127.0,127.0,104.0,88.0,-104.0
125.0,119.0,125.0,130.0,124.0,115.0,126.0,126.0,28.0,-91.0,-77.0,127.0,127.0,127.0,104.0,88.0,-104.0
129.0,121.0,127.0,119.0,130.0,112.0,127.0,128.0,28.0,-91.0,-77.0,127.0,127.0,127.0,104.0,88.0,-104.0
129.0,121.0,127.0,120.0,130.0,112.0,128.0,128.0,28.0,-91.0,-77.0,127.0,127.0,127.0,104.0,88.0,-104.0
129.0,121.0,127.0,120.0,131.0,113.0,127.0,127.0,28.0,-91.0,-77.0,127.0,127.0,127.0,104.0,88.0,-104.0
130.0,122.0,127.0,120.0,131.0,114.0,127.0,128.0,28.0,-91.0,-77.0,127.0,127.0,127.0,104.0,88.0,-104.0
130.0,122.0,127.0,120.0,131.0,115.0,128.0,128.0,28.0,-91.0,-77.0,127.0,127.0,127.0,104.0,88.0,-104.0
130.0,122.0,127.0,119.0,131.0,115.0,128.0,128.0,28.0,-91.0,-77.0,127.0,127.0,127.0,104.0,88.0,-104.0
130.0,122.0,127.0,118.0,131.0,115.0,128.0,127.0,28.0,-91.0,-77.0,127.0,127.0,127.0,104.0,88.0,-104.0
130.0,122.0,127.0,118.0,131.0,115.0,127.0,127.0,28.0,-91.0,-77.0,127.0,127.0,127.0,104.0,88.0,-104.0
130.0,122.0,127.0,119.0,130.0,115.0,127.0,127.0,28.0,-91.0,-77.0,127.0,127.0,127.0,104.0,88.0,-104.0
130.0,122.0,127.0,120.0,130.0,115.0,127.0,127.0,28.0,-91.0,-77.0,127.0,127.0,127.0,104.0,88.0,-104.0
133.0,123.0,127.0,129.0,128.0,113.0,127.0,127.0,28.0,-92.0,-77.0,127.0,126.0,127.0,104.0,88.0,-104.0
132.0,124.0,127.0,128.0,128.0,113.0,127.0,127.0,28.0,-92.0,-77.0,127.0,126.0,127.0,104.0,88.0,-104.0
132.0,124.0,127.0,127.0,128.0,115.0,127.0,127.0,28.0,-92.0,-77.0,127.0,126.0,127.0,104.0,88.0,-104.0
132.0,124.0,127.0,127.0,128.0,115.0,127.0,127.0,28.0,-92.0,-77.0,127.0,126.0,127.0,104.0,88.0,-104.0
132.0,124.0,127.0,126.0,128.0,115.0,127.0,127.0,28.0,-92.0,-77.0,127.0,126.0,127.0,104.0,88.0,-104.0
131.0,123.0,127.0,125.0,128.0,115.0,127.0,127.0,28.0,-92.0,-77.0,127.0,126.0,127.0,104.0,88.0,-104.0
131.0,123.0,127.0,124.0,128.0,115.0,127.0,126.0,28.0,-92.0,-77.0,127.0,126.0,127.0,104.0,88.0,-104.0
131.0,123.0,127.0,123.0,127.0,115.0,127.0,126.0,28.0,-92.0,-77.0,127.0,126.0,127.0,104.0,88.0,-104.0
131.0,122.0,127.0,122.0,127.0,115.0,127.0,126.0,28.0,-92.0,-77.0,127.0,126.0,127.0,104.0,88.0,-104.0
133.0,123.0,127.0,129.0,128.0,113.0,127.0,128.0,28.0,-92.0,-77.0,127.0,126.0,127.0,104.0,88.0,-104.0
127.0,121.0,126.0,127.0,131.0,114.0,127.0,126.0,27.0,-92.0,-78.0,127.0,126.0,127.0,104.0,88.0,-104.0
128.0,122.0,126.0,125.0,131.0,116.0,127.0,126.0,27.0,-92.0,-78.0,127.0,126.0,127.0,104.0,88.0,-104.0
128.0,122.0,126.0,123.0,130.0,116.0,127.0,126.0,27.0,-92.0,-78.0,127.0,126.0,127.0,104.0,88.0,-104.0
128.0,122.0,126.0,122.0,130.0,116.0,127.0,125.0,27.0,-92.0,-78.0,127.0,126.0,127.0,104.0,88.0,-104.0
128.0,122.0,126.0,120.0,130.0,116.0,127.0,125.0,27.0,-92.0,-78.0,127.0,126.0,127.0,104.0,88.0,-104.0
128.0,122.0,126.0,119.0,129.0,116.0,127.0,125.0,27.0,-92.0,-78.0,127.0,126.0,127.0,104.0,88.0,-104.0
128.0,122.0,126.0,119.0,129.0,116.0,127.0,125.0,27.0,-92.0,-78.0,127.0,126.0,127.0,104.0,88.0,-104.0
128.0,121.0,126.0,119.0,129.0,116.0,127.0,125.0,27.0,-92.0,-78.0,127.0,126.0,127.0,104.0,88.0,-104.0
127.0,121.0,126.0,131.0,131.0,114.0,128.0,126.0,27.0,-92.0,-78.0,127.0,126.0,127.0,104.0,88.0,-104.0
127.0,121.0,126.0,129.0,131.0,114.0,128.0,126.0,27.0,-92.0,-78.0,127.0,126.0,127.0,104.0,88.0,-104.0
130.0,120.0,126.0,129.0,129.0,112.0,128.0,131.0,26.0,-93.0,-78.0,127.0,126.0,127.0,104.0,88.0,-104.0
130.0,120.0,126.0,128.0,129.0,113.0,128.0,131.0,26.0,-93.0,-78.0,127.0,126.0,127.0,104.0,88.0,-104.0
130.0,120.0,126.0,126.0,128.0,113.0,128.0,130.0,26.0,-93.0,-78.0,127.0,126.0,127.0,104.0,88.0,-104.0
130.0,120.0,126.0,124.0,128.0,114.0,128.0,130.0,26.0,-93.0,-78.0,127.0,126.0,127.0,104.0,88.0,-104.0
130.0,120.0,125.0,122.0,128.0,115.0,128.0,130.0,26.0,-93.0,-78.0,127.0,126.0,127.0,104.0,88.0,-104.0
130.0,119.0,126.0,121.0,127.0,115.0,128.0,129.0,26.0,-93.0,-78.0,127.0,126.0,127.0,104.0,88.0,-104.0
130.0,119.0,125.0,121.0,127.0,115.0,128.0,129.0,26.0,-93.0,-78.0,127.0,126.0,127.0,104.0,88.0,-104.0
131.0,120.0,126.0,133.0,129.0,112.0,128.0,132.0,26.0,-93.0,-78.0,127.0,126.0,127.0,104.0,88.0,-104.0
131.0,120.0,126.0,132.0,129.0,113.0,128.0,132.0,26.0,-93.0,-78.0,127.0,126.0,127.0,104.0,88.0,-104.0
130.0,120.0,126.0,130.0,129.0,113.0,128.0,131.0,26.0,-93.0,-78.0,127.0,126.0,127.0,104.0,88.0,-104.0
134.0,121.0,127.0,132.0,134.0,117.0,127.0,130.0,26.0,-93.0,-77.0,127.0,126.0,127.0,104.0,88.0,-104.0
134.0,121.0,127.0,129.0,134.0,117.0,127.0,130.0,26.0,-93.0,-77.0,127.0,126.0,127.0,104.0,88.0,-104.0
133.0,120.0,127.0,126.0,133.0,116.0,126.0,130.0,26.0,-93.0,-77.0,127.0,126.0,127.0,104.0,88.0,-104.0
133.0,120.0,127.0,124.0,133.0,116.0,126.0,130.0,26.0,-93.0,-77.0,127.0,126.0,127.0,104.0,88.0,-104.0
133.0,120.0,127.0,123.0,132.0,116.0,126.0,129.0,26.0,-93.0,-77.0,127.0,126.0,127.0,104.0,88.0,-104.0
133.0,119.0,127.0,122.0,132.0,116.0,126.0,129.0,26.0,-93.0,-77.0,127.0,126.0,127.0,104.0,88.0,-104.0
134.0,121.0,127.0,137.0,132.0,116.0,127.0,129.0,26.0,-93.0,-77.0,127.0,126.0,127.0,104.0,88.0,-104.0
134.0,121.0,127.0,137.0,133.0,116.0,127.0,129.0,26.0,-93.0,-77.0,127.0,126.0,127.0,104.0,88.0,-104.0
134.0,121.0,127.0,136.0,134.0,116.0,127.0,130.0,26.0,-93.0,-77.0,127.0,126.0,127.0,104.0,88.0,-104.0
134.0,121.0,127.0,134.0,134.0,116.0,127.0,130.0,26.0,-93.0,-77.0,127.0,126.0,127.0,104.0,88.0,-104.0
133.0,121.0,129.0,125.0,127.0,115.0,127.0,129.0,28.0,-93.0,-76.0,127.0,126.0,127.0,104.0,88.0,-104.0
133.0,121.0,129.0,126.0,127.0,115.0,127.0,129.0,28.0,-93.0,-76.0,127.0,126.0,127.0,104.0,88.0,-104.0
133.0,121.0,129.0,126.0,127.0,115.0,127.0,129.0,28.0,-93.0,-76.0,127.0,126.0,127.0,104.0,88.0,-104.0
133.0,121.0,129.0,126.0,127.0,115.0,127.0,129.0,28.0,-93.0,-76.0,127.0,126.0,127.0,104.0,88.0,-104.0
133.0,121.0,129.0,126.0,127.0,114.0,127.0,129.0,28.0,-93.0,-76.0,127.0,126.0,127.0,104.0,88.0,-104.0
133.0,121.0,129.0,126.0,127.0,115.0,126.0,129.0,28.0,-93.0,-76.0,127.0,126.0,127.0,104.0,88.0,-104.0
133.0,122.0,129.0,126.0,127.0,115.0,126.0,129.0,28.0,-93.0,-76.0,127.0,126.0,127.0,104.0,88.0,-104.0
133.0,122.0,129.0,125.0,127.0,115.0,126.0,129.0,28.0,-93.0,-76.0,127.0,126.0,127.0,104.0,88.0,-104.0
133.0,122.0,129.0,125.0,127.0,115.0,127.0,129.0,28.0,-93.0,-76.0,127.0,126.0,127.0,104.0,88.0,-104.0
133.0,121.0,129.0,125.0,127.0,115.0,127.0,129.0,28.0,-93.0,-76.0,127.0,126.0,127.0,104.0,88.0,-104.0
131.0,123.0,128.0,133.0,127.0,114.0,127.0,128.0,31.0,-94.0,-75.0,127.0,127.0,127.0,104.0,88.0,-104.0
131.0,123.0,128.0,131.0,126.0,113.0,127.0,128.0,31.0,-94.0,-75.0,127.0,127.0,127.0,104.0,88.0,-104.0
131.0,123.0,128.0,129.0,126.0,113.0,127.0,128.0,31.0,-94.0,-75.0,127.0,127.0,127.0,104.0,88.0,-104.0
131.0,123.0,128.0,127.0,126.0,113.0,127.0,128.0,31.0,-94.0,-75.0,127.0,127.0,127.0,104.0,88.0,-104.0
131.0,124.0,128.0,130.0,127.0,113.0,127.0,128.0,31.0,-94.0,-75.0,127.0,127.0,127.0,104.0,88.0,-104.0
131.0,124.0,128.0,132.0,127.0,113.0,127.0,128.0,31.0,-94.0,-75.0,127.0,127.0,127.0,104.0,88.0,-104.0
131.0,124.0,128.0,133.0,127.0,113.0,127.0,128.0,31.0,-94.0,-75.0,127.0,127.0,127.0,104.0,88.0,-104.0
131.0,124.0,128.0,134.0,127.0,113.0,127.0,128.0,31.0,-94.0,-75.0,127.0,127.0,127.0,104.0,88.0,-104.0
131.0,124.0,128.0,134.0,127.0,114.0,127.0,128.0,31.0,-94.0,-75.0,127.0,127.0,127.0,104.0,88.0,-104.0
131.0,123.0,128.0,134.0,127.0,114.0,127.0,128.0,31.0,-94.0,-75.0,127.0,127.0,127.0,104.0,88.0,-104.0
127.0,124.0,126.0,127.0,128.0,114.0,127.0,125.0,32.0,-93.0,-75.0,127.0,127.0,127.0,104.0,88.0,-104.0
127.0,124.0,126.0,127.0,128.0,114.0,127.0,125.0,32.0,-93.0,-75.0,127.0,127.0,127.0,104.0,88.0,-104.0
128.0,124.0,126.0,128.0,128.0,114.0,127.0,125.0,32.0,-93.0,-75.0,127.0,127.0,127.0,104.0,88.0,-104.0
127.0,124.0,126.0,127.0,128.0,114.0,127.0,123.0,32.0,-93.0,-75.0,127.0,127.0,127.0,104.0,88.0,-104.0
127.0,124.0,126.0,127.0,128.0,114.0,127.0,123.0,32.0,-93.0,-75.0,127.0,127.0,127.0,104.0,88.0,-104.0
127.0,124.0,126.0,126.0,128.0,115.0,127.0,123.0,32.0,-93.0,-75.0,127.0,127.0,127.0,104.0,88.0,-104.0
127.0,124.0,126.0,125.0,128.0,114.0,127.0,123.0,32.0,-93.0,-75.0,127.0,127.0,127.0,104.0,88.0,-104.0
127.0,124.0,126.0,125.0,128.0,114.0,127.0,123.0,32.0,-93.0,-75.0,127.0,127.0,127.0,104.0,88.0,-104.0
127.0,124.0,126.0,126.0,128.0,115.0,127.0,124.0,32.0,-93.0,-75.0,127.0,127.0,127.0,104.0,88.0,-104.0
127.0,124.0,126.0,126.0,128.0,114.0,127.0,124.0,32.0,-93.0,-75.0,127.0,127.0,127.0,104.0,88.0,-104.0
130.0,121.0,126.0,130.0,128.0,115.0,128.0,128.0,31.0,-93.0,-75.0,127.0,127.0,127.0,104.0,88.0,-104.0
131.0,121.0,126.0,131.0,128.0,114.0,128.0,129.0,31.0,-93.0,-75.0,127.0,127.0,127.0,104.0,88.0,-104.0
131.0,121.0,126.0,116.0,126.0,114.0,128.0,129.0,31.0,-93.0,-75.0,127.0,127.0,127.0,104.0,88.0,-104.0
131.0,121.0,126.0,117.0,126.0,115.0,128.0,128.0,31.0,-93.0,-75.0,127.0,127.0,127.0,104.0,88.0,-104.0
131.0,121.0,126.0,118.0,126.0,115.0,128.0,128.0,31.0,-93.0,-75.0,127.0,127.0,127.0,104.0,88.0,-104.0
130.0,121.0,126.0,119.0,126.0,115.0,128.0,127.0,31.0,-93.0,-75.0,127.0,127.0,127.0,104.0,88.0,-104.0
130.0,121.0,126.0,121.0,126.0,115.0,127.0,127.0,31.0,-93.0,-75.0,127.0,127.0,127.0,104.0,88.0,-104.0
130.0,121.0,126.0,123.0,127.0,116.0,127.0,127.0,31.0,-93.0,-75.0,127.0,127.0,127.0,104.0,88.0,-104.0
130.0,121.0,126.0,125.0,127.0,115.0,127.0,128.0,31.0,-93.0,-75.0,127.0,127.0,127.0,104.0,88.0,-104.0
130.0,121.0,126.0,128.0,127.0,115.0,128.0,128.0,31.0,-93.0,-75.0,127.0,127.0,127.0,104.0,88.0,-104.0
131.0,122.0,127.0,133.0,130.0,114.0,127.0,128.0,30.0,-93.0,-76.0,127.0,127.0,127.0,104.0,88.0,-104.0
131.0,120.0,127.0,130.0,128.0,115.0,127.0,128.0,30.0,-93.0,-76.0,127.0,127.0,127.0,104.0,88.0,-104.0
131.0,121.0,127.0,132.0,129.0,116.0,127.0,128.0,30.0,-93.0,-76.0,127.0,127.0,127.0,104.0,88.0,-104.0
131.0,121.0,127.0,133.0,129.0,116.0,127.0,128.0,30.0,-93.0,-76.0,127.0,127.0,127.0,104.0,88.0,-104.0
131.0,121.0,127.0,134.0,129.0,115.0,127.0,128.0,30.0,-93.0,-76.0,127.0,127.0,127.0,104.0,88.0,-104.0
131.0,121.0,127.0,134.0,130.0,115.0,127.0,128.0,30.0,-93.0,-76.0,127.0,127.0,127.0,104.0,88.0,-104.0
131.0,121.0,127.0,134.0,130.0,115.0,127.0,128.0,30.0,-93.0,-76.0,127.0,127.0,127.0,104.0,88.0,-104.0
131.0,122.0,127.0,134.0,130.0,115.0,127.0,128.0,30.0,-93.0,-76.0,127.0,127.0,127.0,104.0,88.0,-104.0
131.0,122.0,127.0,134.0,130.0,114.0,127.0,128.0,30.0,-93.0,-76.0,127.0,127.0,127.0,104.0,88.0,-104.0
131.0,122.0,127.0,134.0,130.0,114.0,127.0,128.0,30.0,-93.0,-76.0,127.0,127.0,127.0,104.0,88.0,-104.0
129.0,122.0,127.0,125.0,125.0,112.0,127.0,127.0,30.0,-92.0,-75.0,127.0,127.0,127.0,104.0,88.0,-104.0
129.0,122.0,127.0,124.0,125.0,113.0,127.0,127.0,30.0,-92.0,-75.0,127.0,127.0,127.0,104.0,88.0,-104.0
128.0,122.0,127.0,124.0,125.0,113.0,127.0,127.0,30.0,-92.0,-75.0,127.0,127.0,127.0,104.0,88.0,-104.0
128.0,121.0,128.0,123.0,124.0,113.0,127.0,127.0,30.0,-92.0,-75.0,127.0,127.0,127.0,104.0,88.0,-104.0
128.0,121.0,128.0,122.0,124.0,113.0,127.0,127.0,30.0,-92.0,-75.0,127.0,127.0,127.0,104.0,88.0,-104.0
128.0,121.0,128.0,122.0,124.0,113.0,127.0,127.0,30.0,-92.0,-75.0,127.0,127.0,127.0,104.0,88.0,-104.0
128.0,121.0,128.0,122.0,123.0,113.0,127.0,127.0,30.0,-92.0,-75.0,127.0,127.0,127.0,104.0,88.0,-104.0
128.0,121.0,128.0,122.0,123.0,113.0,127.0,127.0,30.0,-92.0,-75.0,127.0,127.0,127.0,104.0,88.0,-104.0
128.0,121.0,128.0,122.0,123.0,113.0,127.0,127.0,30.0,-92.0,-75.0,127.0,127.0,127.0,104.0,88.0,-104.0
128.0,121.0,128.0,123.0,123.0,113.0,127.0,127.0,30.0,-92.0,-75.0,127.0,127.0,127.0,104.0,88.0,-104.0
126.0,122.0,128.0,126.0,125.0,115.0,126.0,128.0,30.0,-92.0,-75.0,127.0,127.0,127.0,104.0,88.0,-104.0
126.0,122.0,127.0,125.0,125.0,115.0,126.0,128.0,30.0,-92.0,-75.0,127.0,127.0,127.0,104.0,88.0,-104.0
126.0,122.0,127.0,126.0,125.0,114.0,126.0,127.0,30.0,-92.0,-75.0,127.0,127.0,127.0,104.0,88.0,-104.0
126.0,122.0,127.0,126.0,125.0,114.0,126.0,127.0,30.0,-92.0,-75.0,127.0,127.0,127.0,104.0,88.0,-104.0
126.0,122.0,127.0,127.0,126.0,114.0,126.0,127.0,30.0,-92.0,-75.0,127.0,127.0,127.0,104.0,88.0,-104.0
126.0,122.0,127.0,127.0,126.0,113.0,126.0,127.0,30.0,-92.0,-75.0,127.0,127.0,127.0,104.0,88.0,-104.0
126.0,122.0,127.0,128.0,126.0,113.0,126.0,127.0,30.0,-92.0,-75.0,127.0,127.0,127.0,104.0,88.0,-104.0
125.0,122.0,127.0,128.0,126.0,113.0,126.0,127.0,30.0,-92.0,-75.0,127.0,127.0,127.0,104.0,88.0,-104.0
125.0,121.0,127.0,128.0,126.0,113.0,126.0,127.0,30.0,-92.0,-75.0,127.0,127.0,127.0,104.0,88.0,-104.0
126.0,122.0,128.0,126.0,125.0,115.0,126.0,128.0,30.0,-92.0,-75.0,127.0,127.0,127.0,104.0,88.0,-104.0
124.0,122.0,127.0,127.0,127.0,109.0,127.0,128.0,30.0,-92.0,-74.0,127.0,127.0,127.0,104.0,88.0,-104.0
124.0,121.0,127.0,127.0,127.0,109.0,127.0,128.0,30.0,-92.0,-74.0,127.0,127.0,127.0,104.0,88.0,-104.0
124.0,121.0,127.0,127.0,127.0,109.0,127.0,128.0,30.0,-92.0,-74.0,127.0,127.0,127.0,104.0,88.0,-104.0
124.0,121.0,127.0,127.0,127.0,110.0,127.0,128.0,30.0,-92.0,-74.0,127.0,127.0,127.0,104.0,88.0,-104.0
124.0,121.0,127.0,127.0,127.0,110.0,127.0,128.0,30.0,-92.0,-74.0,127.0,127.0,127.0,104.0,88.0,-104.0
124.0,121.0,127.0,127.0,127.0,110.0,127.0,128.0,30.0,-92.0,-74.0,127.0,127.0,127.0,104.0,88.0,-104.0
124.0,121.0,127.0,127.0,127.0,110.0,127.0,128.0,30.0,-92.0,-74.0,127.0,127.0,127.0,104.0,88.0,-104.0
123.0,121.0,127.0,126.0,127.0,110.0,127.0,128.0,30.0,-92.0,-74.0,127.0,127.0,127.0,104.0,88.0,-104.0
124.0,122.0,127.0,127.0,127.0,109.0,127.0,128.0,30.0,-92.0,-74.0,127.0,127.0,127.0,104.0,88.0,-104.0
124.0,122.0,127.0,127.0,127.0,109.0,127.0,128.0,30.0,-92.0,-74.0,127.0,127.0,127.0,104.0,88.0,-104.0
123.0,122.0,126.0,129.0,127.0,112.0,127.0,127.0,30.0,-92.0,-75.0,127.0,127.0,127.0,104.0,88.0,-104.0
123.0,122.0,126.0,129.0,127.0,112.0,127.0,127.0,30.0,-92.0,-75.0,127.0,127.0,127.0,104.0,88.0,-104.0
123.0,122.0,126.0,129.0,127.0,112.0,127.0,127.0,30.0,-92.0,-75.0,127.0,127.0,127.0,104.0,88.0,-104.0
123.0,122.0,126.0,129.0,127.0,112.0,127.0,127.0,30.0,-92.0,-75.0,127.0,127.0,127.0,104.0,88.0,-104.0
123.0,122.0,126.0,128.0,127.0,113.0,127.0,127.0,30.0,-92.0,-75.0,127.0,127.0,127.0,104.0,88.0,-104.0
123.0,122.0,126.0,128.0,127.0,114.0,127.0,127.0,30.0,-92.0,-75.0,127.0,127.0,127.0,104.0,88.0,-104.0
123.0,122.0,126.0,128.0,127.0,114.0,127.0,127.0,30.0,-92.0,-75.0,127.0,127.0,127.0,104.0,88.0,-104.0
123.0,122.0,126.0,129.0,127.0,110.0,127.0,127.0,30.0,-92.0,-75.0,127.0,127.0,127.0,104.0,88.0,-104.0
123.0,122.0,126.0,129.0,127.0,112.0,127.0,127.0,30.0,-92.0,-75.0,127.0,127.0,127.0,104.0,88.0,-104.0
123.0,123.0,126.0,129.0,127.0,113.0,127.0,127.0,30.0,-92.0,-75.0,127.0,127.0,127.0,104.0,88.0,-104.0
122.0,122.0,129.0,127.0,126.0,112.0,127.0,127.0,30.0,-92.0,-75.0,127.0,127.0,127.0,104.0,88.0,-104.0
122.0,122.0,129.0,128.0,126.0,111.0,127.0,127.0,30.0,-92.0,-75.0,127.0,127.0,127.0,104.0,88.0,-104.0
122.0,122.0,129.0,128.0,127.0,112.0,127.0,127.0,30.0,-92.0,-75.0,127.0,127.0,127.0,104.0,88.0,-104.0
122.0,122.0,129.0,128.0,127.0,112.0,127.0,127.0,30.0,-92.0,-75.0,127.0,127.0,127.0,104.0,88.0,-104.0
122.0,123.0,129.0,129.0,127.0,114.0,127.0,127.0,30.0,-92.0,-75.0,127.0,127.0,127.0,104.0,88.0,-104.0
122.0,122.0,128.0,127.0,126.0,110.0,127.0,127.0,30.0,-92.0,-75.0,127.0,127.0,127.0,104.0,88.0,-104.0
122.0,122.0,128.0,127.0,126.0,110.0,127.0,127.0,30.0,-92.0,-75.0,127.0,127.0,127.0,104.0,88.0,-104.0
122.0,122.0,128.0,127.0,126.0,112.0,127.0,127.0,30.0,-92.0,-75.0,127.0,127.0,127.0,104.0,88.0,-104.0
122.0,122.0,129.0,127.0,126.0,112.0,127.0,127.0,30.0,-92.0,-75.0,127.0,127.0,127.0,104.0,88.0,-104.0
122.0,122.0,129.0,127.0,126.0,112.0,127.0,127.0,30.0,-92.0,-75.0,127.0,127.0,127.0,104.0,88.0,-104.0
122.0,124.0,131.0,125.0,125.0,109.0,127.0,127.0,29.0,-92.0,-75.0,127.0,127.0,127.0,104.0,88.0,-104.0
122.0,124.0,131.0,125.0,125.0,109.0,127.0,127.0,29.0,-92.0,-75.0,127.0,127.0,127.0,104.0,88.0,-104.0
122.0,124.0,131.0,125.0,125.0,110.0,127.0,127.0,29.0,-92.0,-75.0,127.0,127.0,127.0,104.0,88.0,-104.0
122.0,124.0,131.0,125.0,125.0,111.0,127.0,127.0,29.0,-92.0,-75.0,127.0,127.0,127.0,104.0,88.0,-104.0
122.0,123.0,131.0,123.0,125.0,107.0,127.0,127.0,29.0,-92.0,-75.0,127.0,127.0,127.0,104.0,88.0,-104.0
122.0,123.0,131.0,124.0,125.0,107.0,127.0,127.0,29.0,-92.0,-75.0,127.0,127.0,127.0,104.0,88.0,-104.0
122.0,124.0,131.0,124.0,124.0,109.0,127.0,127.0,29.0,-92.0,-75.0,127.0,127.0,127.0,104.0,88.0,-104.0
122.0,124.0,131.0,124.0,125.0,110.0,127.0,127.0,29.0,-92.0,-75.0,127.0,127.0,127.0,104.0,88.0,-104.0
122.0,124.0,131.0,125.0,125.0,110.0,127.0,127.0,29.0,-92.0,-75.0,127.0,127.0,127.0,104.0,88.0,-104.0
122.0,124.0,131.0,125.0,125.0,109.0,127.0,127.0,29.0,-92.0,-75.0,127.0,127.0,127.0,104.0,88.0,-104.0
123.0,126.0,129.0,127.0,126.0,104.0,127.0,127.0,28.0,-92.0,-75.0,127.0,127.0,127.0,104.0,88.0,-104.0
123.0,126.0,129.0,127.0,126.0,104.0,126.0,127.0,28.0,-92.0,-75.0,127.0,127.0,127.0,104.0,88.0,-104.0
123.0,126.0,129.0,127.0,126.0,105.0,127.0,127.0,28.0,-92.0,-75.0,127.0,127.0,127.0,104.0,88.0,-104.0
123.0,126.0,130.0,128.0,126.0,102.0,127.0,127.0,28.0,-92.0,-75.0,127.0,127.0,127.0,104.0,88.0,-104.0
123.0,126.0,130.0,128.0,126.0,102.0,127.0,127.0,28.0,-92.0,-75.0,127.0,127.0,127.0,104.0,88.0,-104.0
123.0,126.0,130.0,128.0,126.0,103.0,127.0,127.0,28.0,-92.0,-75.0,127.0,127.0,127.0,104.0,88.0,-104.0
123.0,126.0,130.0,128.0,126.0,104.0,127.0,127.0,28.0,-92.0,-75.0,127.0,127.0,127.0,104.0,88.0,-104.0
123.0,126.0,130.0,127.0,126.0,104.0,127.0,127.0,28.0,-92.0,-75.0,127.0,127.0,127.0,104.0,88.0,-104.0
123.0,126.0,130.0,127.0,126.0,104.0,127.0,127.0,28.0,-92.0,-75.0,127.0,127.0,127.0,104.0,88.0,-104.0
123.0,126.0,130.0,127.0,126.0,104.0,127.0,127.0,28.0,-92.0,-75.0,127.0,127.0,127.0,104.0,88.0,-104.0
124.0,126.0,129.0,127.0,127.0,87.0,127.0,127.0,28.0,-91.0,-75.0,127.0,127.0,127.0,104.0,88.0,-104.0
124.0,127.0,129.0,127.0,127.0,89.0,127.0,127.0,28.0,-91.0,-75.0,127.0,127.0,127.0,104.0,88.0,-104.0
124.0,126.0,129.0,127.0,127.0,87.0,127.0,127.0,28.0,-91.0,-75.0,127.0,127.0,127.0,104.0,88.0,-104.0
124.0,126.0,129.0,127.0,127.0,87.0,127.0,127.0,28.0,-91.0,-75.0,127.0,127.0,127.0,104.0,88.0,-104.0
124.0,126.0,129.0,127.0,127.0,88.0,127.0,127.0,28.0,-91.0,-75.0,127.0,127.0,127.0,104.0,88.0,-104.0
124.0,127.0,129.0,127.0,127.0,89.0,127.0,127.0,28.0,-91.0,-75.0,127.0,127.0,127.0,104.0,88.0,-104.0
124.0,127.0,129.0,127.0,127.0,88.0,127.0,127.0,28.0,-91.0,-75.0,127.0,127.0,127.0,104.0,88.0,-104.0
124.0,126.0,129.0,127.0,127.0,88.0,127.0,127.0,28.0,-91.0,-75.0,127.0,127.0,127.0,104.0,88.0,-104.0
124.0,126.0,129.0,127.0,127.0,87.0,127.0,127.0,28.0,-91.0,-75.0,127.0,127.0,127.0,104.0,88.0,-104.0
124.0,126.0,129.0,127.0,127.0,87.0,127.0,127.0,28.0,-91.0,-75.0,127.0,127.0,127.0,104.0,88.0,-104.0
126.0,126.0,130.0,128.0,126.0,83.0,127.0,128.0,28.0,-91.0,-75.0,127.0,127.0,127.0,104.0,88.0,-104.0
125.0,126.0,129.0,127.0,127.0,80.0,127.0,128.0,28.0,-91.0,-75.0,127.0,127.0,127.0,104.0,88.0,-104.0
125.0,126.0,129.0,127.0,127.0,80.0,127.0,127.0,28.0,-91.0,-75.0,127.0,127.0,127.0,104.0,88.0,-104.0
125.0,126.0,129.0,127.0,127.0,81.0,127.0,127.0,28.0,-91.0,-75.0,127.0,127.0,127.0,104.0,88.0,-104.0
125.0,127.0,130.0,127.0,127.0,82.0,127.0,128.0,28.0,-91.0,-75.0,127.0,127.0,127.0,104.0,88.0,-104.0
125.0,127.0,130.0,128.0,127.0,82.0,127.0,128.0,28.0,-91.0,-75.0,127.0,127.0,127.0,104.0,88.0,-104.0
125.0,126.0,130.0,128.0,126.0,82.0,127.0,128.0,28.0,-91.0,-75.0,127.0,127.0,127.0,104.0,88.0,-104.0
125.0,126.0,130.0,128.0,126.0,82.0,127.0,128.0,28.0,-91.0,-75.0,127.0,127.0,127.0,104.0,88.0,-104.0
125.0,126.0,130.0,128.0,126.0,82.0,127.0,128.0,28.0,-91.0,-75.0,127.0,127.0,127.0,104.0,88.0,-104.0
125.0,126.0,130.0,128.0,126.0,82.0,127.0,128.0,28.0,-91.0,-75.0,127.0,127.0,127.0,104.0,88.0,-104.0
128.0,127.0,133.0,128.0,126.0,79.0,127.0,128.0,28.0,-92.0,-75.0,127.0,127.0,127.0,104.0,88.0,-104.0
128.0,127.0,133.0,128.0,126.0,79.0,127.0,128.0,28.0,-92.0,-75.0,127.0,127.0,127.0,104.0,88.0,-104.0
128.0,127.0,133.0,128.0,126.0,79.0,127.0,128.0,28.0,-92.0,-75.0,127.0,127.0,127.0,104.0,88.0,-104.0
128.0,126.0,133.0,129.0,126.0,79.0,127.0,128.0,28.0,-92.0,-75.0,127.0,127.0,127.0,104.0,88.0,-104.0
128.0,127.0,133.0,129.0,127.0,79.0,127.0,128.0,28.0,-92.0,-75.0,127.0,127.0,127.0,104.0,88.0,-104.0
128.0,126.0,133.0,129.0,127.0,79.0,127.0,128.0,28.0,-92.0,-75.0,127.0,127.0,127.0,104.0,88.0,-104.0
128.0,126.0,133.0,129.0,127.0,79.0,127.0,128.0,28.0,-92.0,-75.0,127.0,127.0,127.0,104.0,88.0,-104.0
128.0,126.0,133.0,129.0,127.0,80.0,127.0,128.0,28.0,-92.0,-75.0,127.0,127.0,127.0,104.0,88.0,-104.0
128.0,126.0,133.0,129.0,127.0,80.0,127.0,128.0,28.0,-92.0,-75.0,127.0,127.0,127.0,104.0,88.0,-104.0
128.0,126.0,133.0,129.0,126.0,80.0,127.0,128.0,28.0,-92.0,-75.0,127.0,127.0,127.0,104.0,88.0,-104.0
128.0,126.0,104.0,129.0,126.0,254.0,126.0,127.0,28.0,-92.0,-75.0,127.0,127.0,127.0,104.0,88.0,-104.0
128.0,126.0,103.0,128.0,126.0,254.0,126.0,128.0,28.0,-92.0,-75.0,127.0,127.0,127.0,104.0,88.0,-104.0
128.0,126.0,102.0,128.0,126.0,254.0,126.0,128.0,28.0,-92.0,-75.0,127.0,127.0,127.0,104.0,88.0,-104.0
128.0,126.0,102.0,128.0,126.0,254.0,126.0,128.0,28.0,-92.0,-75.0,127.0,127.0,127.0,104.0,88.0,-104.0
128.0,126.0,101.0,128.0,126.0,254.0,126.0,127.0,28.0,-92.0,-75.0,127.0,127.0,127.0,104.0,88.0,-104.0
128.0,126.0,100.0,128.0,126.0,254.0,126.0,127.0,28.0,-92.0,-75.0,127.0,127.0,127.0,104.0,88.0,-104.0
128.0,126.0,99.0,128.0,127.0,254.0,126.0,128.0,28.0,-92.0,-75.0,127.0,127.0,127.0,104.0,88.0,-104.0
128.0,126.0,99.0,128.0,127.0,254.0,126.0,128.0,28.0,-92.0,-75.0,127.0,127.0,127.0,104.0,88.0,-104.0
128.0,126.0,98.0,128.0,127.0,254.0,126.0,128.0,28.0,-92.0,-75.0,127.0,127.0,127.0,104.0,88.0,-104.0
128.0,126.0,104.0,129.0,126.0,254.0,126.0,127.0,28.0,-92.0,-75.0,127.0,127.0,127.0,104.0,88.0,-104.0
128.0,127.0,93.0,128.0,127.0,254.0,126.0,128.0,28.0,-92.0,-75.0,127.0,127.0,127.0,104.0,88.0,-104.0
128.0,127.0,93.0,128.0,127.0,254.0,126.0,128.0,28.0,-92.0,-75.0,127.0,127.0,127.0,104.0,88.0,-104.0
128.0,127.0,93.0,128.0,127.0,254.0,126.0,128.0,28.0,-92.0,-75.0,127.0,127.0,127.0,104.0,88.0,-104.0
128.0,126.0,94.0,128.0,127.0,254.0,126.0,128.0,28.0,-92.0,-75.0,127.0,127.0,127.0,104.0,88.0,-104.0
128.0,126.0,94.0,128.0,127.0,254.0,126.0,128.0,28.0,-92.0,-75.0,127.0,127.0,127.0,104.0,88.0,-104.0
128.0,126.0,94.0,128.0,127.0,254.0,126.0,128.0,28.0,-92.0,-75.0,127.0,127.0,127.0,104.0,88.0,-104.0
128.0,126.0,94.0,128.0,127.0,254.0,126.0,128.0,28.0,-92.0,-75.0,127.0,127.0,127.0,104.0,88.0,-104.0
128.0,126.0,94.0,128.0,127.0,254.0,126.0,127.0,28.0,-92.0,-75.0,127.0,127.0,127.0,104.0,88.0,-104.0
128.0,127.0,93.0,128.0,127.0,254.0,126.0,128.0,28.0,-92.0,-75.0,127.0,127.0,127.0,104.0,88.0,-104.0
128.0,127.0,93.0,129.0,127.0,254.0,126.0,128.0,28.0,-92.0,-75.0,127.0,127.0,127.0,104.0,88.0,-104.0
127.0,127.0,102.0,128.0,127.0,254.0,126.0,127.0,28.0,-92.0,-75.0,127.0,127.0,127.0,104.0,88.0,-104.0
127.0,127.0,102.0,128.0,127.0,254.0,126.0,127.0,28.0,-92.0,-75.0,127.0,127.0,127.0,104.0,88.0,-104.0
128.0,127.0,102.0,128.0,127.0,254.0,126.0,127.0,28.0,-92.0,-75.0,127.0,127.0,127.0,104.0,88.0,-104.0
128.0,127.0,102.0,128.0,127.0,254.0,126.0,127.0,28.0,-92.0,-75.0,127.0,127.0,127.0,104.0,88.0,-104.0
128.0,127.0,102.0,128.0,127.0,254.0,126.0,127.0,28.0,-92.0,-75.0,127.0,127.0,127.0,104.0,88.0,-104.0
127.0,127.0,102.0,128.0,127.0,254.0,126.0,127.0,28.0,-92.0,-75.0,127.0,127.0,127.0,104.0,88.0,-104.0
127.0,127.0,102.0,128.0,126.0,254.0,126.0,127.0,28.0,-92.0,-75.0,127.0,127.0,127.0,104.0,88.0,-104.0
127.0,127.0,101.0,129.0,127.0,254.0,126.0,127.0,28.0,-92.0,-75.0,127.0,127.0,127.0,104.0,88.0,-104.0
128.0,127.0,101.0,129.0,127.0,254.0,126.0,127.0,28.0,-92.0,-75.0,127.0,127.0,127.0,104.0,88.0,-104.0
127.0,127.0,101.0,128.0,127.0,254.0,126.0,127.0,28.0,-92.0,-75.0,127.0,127.0,127.0,104.0,88.0,-104.0
128.0,126.0,78.0,128.0,127.0,254.0,126.0,128.0,28.0,-92.0,-74.0,127.0,127.0,127.0,104.0,88.0,-104.0
128.0,126.0,78.0,129.0,126.0,254.0,126.0,128.0,28.0,-92.0,-74.0,127.0,127.0,127.0,104.0,88.0,-104.0
128.0,126.0,77.0,129.0,127.0,254.0,126.0,127.0,28.0,-92.0,-74.0,127.0,127.0,127.0,104.0,88.0,-104.0
128.0,126.0,77.0,129.0,127.0,254.0,126.0,127.0,28.0,-92.0,-74.0,127.0,127.0,127.0,104.0,88.0,-104.0
128.0,126.0,76.0,129.0,127.0,254.0,126.0,128.0,28.0,-92.0,-74.0,127.0,127.0,127.0,104.0,88.0,-104.0
128.0,126.0,76.0,129.0,127.0,254.0,126.0,128.0,28.0,-92.0,-74.0,127.0,127.0,127.0,104.0,88.0,-104.0
128.0,127.0,78.0,128.0,127.0,254.0,126.0,127.0,28.0,-92.0,-74.0,127.0,127.0,127.0,104.0,88.0,-104.0
128.0,127.0,78.0,128.0,127.0,254.0,126.0,128.0,28.0,-92.0,-74.0,127.0,127.0,127.0,104.0,88.0,-104.0
128.0,126.0,78.0,128.0,127.0,254.0,126.0,127.0,28.0,-92.0,-74.0,127.0,127.0,127.0,104.0,88.0,-104.0
128.0,126.0,78.0,128.0,127.0,254.0,126.0,128.0,28.0,-92.0,-74.0,127.0,127.0,127.0,104.0,88.0,-104.0
128.0,128.0,55.0,130.0,127.0,254.0,127.0,128.0,29.0,-93.0,-74.0,126.0,127.0,127.0,104.0,88.0,-104.0
128.0,128.0,56.0,130.0,127.0,254.0,127.0,128.0,29.0,-93.0,-74.0,126.0,127.0,127.0,104.0,88.0,-104.0
128.0,128.0,56.0,130.0,127.0,254.0,127.0,128.0,29.0,-93.0,-74.0,126.0,127.0,127.0,104.0,88.0,-104.0
128.0,128.0,57.0,130.0,127.0,254.0,127.0,128.0,29.0,-93.0,-74.0,126.0,127.0,127.0,104.0,88.0,-104.0
128.0,128.0,58.0,130.0,127.0,254.0,127.0,128.0,29.0,-93.0,-74.0,126.0,127.0,127.0,104.0,88.0,-104.0
128.0,128.0,53.0,129.0,127.0,254.0,127.0,128.0,29.0,-93.0,-74.0,126.0,127.0,127.0,104.0,88.0,-104.0
128.0,128.0,53.0,130.0,127.0,254.0,127.0,128.0,29.0,-93.0,-74.0,126.0,127.0,127.0,104.0,88.0,-104.0
128.0,128.0,54.0,130.0,127.0,254.0,127.0,128.0,29.0,-93.0,-74.0,126.0,127.0,127.0,104.0,88.0,-104.0
128.0,128.0,54.0,130.0,127.0,254.0,127.0,128.0,29.0,-93.0,-74.0,126.0,127.0,127.0,104.0,88.0,-104.0
128.0,128.0,55.0,130.0,127.0,254.0,127.0,128.0,29.0,-93.0,-74.0,126.0,127.0,127.0,104.0,88.0,-104.0
129.0,128.0,95.0,130.0,127.0,254.0,127.0,128.0,30.0,-93.0,-73.0,126.0,127.0,127.0,104.0,88.0,-104.0
129.0,128.0,96.0,129.0,127.0,254.0,127.0,128.0,30.0,-93.0,-73.0,126.0,127.0,127.0,104.0,88.0,-104.0
129.0,128.0,97.0,129.0,127.0,254.0,127.0,128.0,30.0,-93.0,-73.0,126.0,127.0,127.0,104.0,88.0,-104.0
129.0,127.0,97.0,129.0,127.0,254.0,127.0,128.0,30.0,-93.0,-73.0,126.0,127.0,127.0,104.0,88.0,-104.0
129.0,128.0,91.0,131.0,127.0,254.0,127.0,128.0,30.0,-93.0,-73.0,126.0,127.0,127.0,104.0,88.0,-104.0
129.0,128.0,92.0,131.0,127.0,254.0,127.0,128.0,30.0,-93.0,-73.0,126.0,127.0,127.0,104.0,88.0,-104.0
129.0,128.0,93.0,131.0,127.0,254.0,127.0,128.0,30.0,-93.0,-73.0,126.0,127.0,127.0,104.0,88.0,-104.0
129.0,128.0,93.0,131.0,127.0,254.0,127.0,128.0,30.0,-93.0,-73.0,126.0,127.0,127.0,104.0,88.0,-104.0
129.0,128.0,94.0,130.0,127.0,254.0,127.0,128.0,30.0,-93.0,-73.0,126.0,127.0,127.0,104.0,88.0,-104.0
129.0,128.0,95.0,130.0,127.0,254.0,127.0,128.0,30.0,-93.0,-73.0,126.0,127.0,127.0,104.0,88.0,-104.0
129.0,129.0,145.0,131.0,127.0,254.0,128.0,128.0,31.0,-94.0,-73.0,127.0,127.0,127.0,104.0,88.0,-104.0
129.0,129.0,146.0,132.0,127.0,254.0,128.0,128.0,31.0,-94.0,-73.0,127.0,127.0,127.0,104.0,88.0,-104.0
129.0,129.0,147.0,132.0,127.0,254.0,128.0,128.0,31.0,-94.0,-73.0,127.0,127.0,127.0,104.0,88.0,-104.0
129.0,129.0,139.0,130.0,127.0,254.0,127.0,128.0,31.0,-94.0,-73.0,127.0,127.0,127.0,104.0,88.0,-104.0
129.0,129.0,140.0,130.0,127.0,254.0,127.0,128.0,31.0,-94.0,-73.0,127.0,127.0,127.0,104.0,88.0,-104.0
129.0,129.0,141.0,130.0,127.0,254.0,127.0,128.0,31.0,-94.0,-73.0,127.0,127.0,127.0,104.0,88.0,-104.0
129.0,129.0,142.0,130.0,127.0,254.0,128.0,128.0,31.0,-94.0,-73.0,127.0,127.0,127.0,104.0,88.0,-104.0
129.0,129.0,143.0,131.0,127.0,254.0,128.0,128.0,31.0,-94.0,-73.0,127.0,127.0,127.0,104.0,88.0,-104.0
129.0,129.0,143.0,131.0,127.0,254.0,128.0,128.0,31.0,-94.0,-73.0,127.0,127.0,127.0,104.0,88.0,-104.0
129.0,129.0,144.0,131.0,127.0,254.0,128.0,128.0,31.0,-94.0,-73.0,127.0,127.0,127.0,104.0,88.0,-104.0
130.0,129.0,171.0,130.0,127.0,254.0,127.0,128.0,32.0,-94.0,-72.0,127.0,127.0,127.0,104.0,88.0,-104.0
130.0,129.0,171.0,130.0,127.0,254.0,127.0,128.0,32.0,-94.0,-72.0,127.0,127.0,127.0,104.0,88.0,-104.0
130.0,129.0,170.0,130.0,126.0,254.0,127.0,128.0,32.0,-94.0,-72.0,127.0,127.0,127.0,104.0,88.0,-104.0
130.0,129.0,170.0,130.0,126.0,254.0,127.0,128.0,32.0,-94.0,-72.0,127.0,127.0,127.0,104.0,88.0,-104.0
130.0,129.0,170.0,130.0,127.0,254.0,127.0,128.0,32.0,-94.0,-72.0,127.0,127.0,127.0,104.0,88.0,-104.0
130.0,129.0,170.0,130.0,127.0,254.0,127.0,128.0,32.0,-94.0,-72.0,127.0,127.0,127.0,104.0,88.0,-104.0
130.0,130.0,171.0,130.0,127.0,254.0,127.0,128.0,32.0,-94.0,-72.0,127.0,127.0,127.0,104.0,88.0,-104.0
130.0,130.0,171.0,130.0,127.0,254.0,127.0,128.0,32.0,-94.0,-72.0,127.0,127.0,127.0,104.0,88.0,-104.0
130.0,129.0,171.0,130.0,127.0,254.0,127.0,128.0,32.0,-94.0,-72.0,127.0,127.0,127.0,104.0,88.0,-104.0
130.0,129.0,171.0,130.0,127.0,254.0,127.0,128.0,32.0,-94.0,-72.0,127.0,127.0,127.0,104.0,88.0,-104.0
129.0,128.0,166.0,129.0,127.0,254.0,127.0,128.0,33.0,-93.0,-72.0,127.0,127.0,127.0,104.0,88.0,-104.0
129.0,129.0,167.0,130.0,127.0,254.0,127.0,128.0,33.0,-93.0,-72.0,127.0,127.0,127.0,104.0,88.0,-104.0
129.0,129.0,167.0,129.0,127.0,254.0,127.0,128.0,33.0,-93.0,-72.0,127.0,127.0,127.0,104.0,88.0,-104.0
129.0,129.0,167.0,129.0,127.0,254.0,127.0,128.0,33.0,-93.0,-72.0,127.0,127.0,127.0,104.0,88.0,-104.0
129.0,128.0,167.0,129.0,127.0,254.0,127.0,128.0,33.0,-93.0,-72.0,127.0,127.0,127.0,104.0,88.0,-104.0
129.0,128.0,167.0,129.0,127.0,254.0,127.0,128.0,33.0,-93.0,-72.0,127.0,127.0,127.0,104.0,88.0,-104.0
129.0,128.0,166.0,129.0,127.0,254.0,127.0,128.0,33.0,-93.0,-72.0,127.0,127.0,127.0,104.0,88.0,-104.0
129.0,128.0,166.0,129.0,127.0,254.0,127.0,128.0,33.0,-93.0,-72.0,127.0,127.0,127.0,104.0,88.0,-104.0
129.0,128.0,166.0,129.0,127.0,254.0,127.0,128.0,33.0,-93.0,-72.0,127.0,127.0,127.0,104.0,88.0,-104.0
129.0,128.0,166.0,129.0,127.0,254.0,127.0,128.0,33.0,-93.0,-72.0,127.0,127.0,127.0,104.0,88.0,-104.0
128.0,129.0,164.0,130.0,127.0,199.0,127.0,128.0,33.0,-93.0,-72.0,127.0,127.0,127.0,104.0,88.0,-104.0
128.0,129.0,164.0,130.0,127.0,197.0,127.0,128.0,33.0,-93.0,-72.0,127.0,127.0,127.0,104.0,88.0,-104.0
128.0,129.0,164.0,130.0,127.0,195.0,127.0,128.0,33.0,-93.0,-72.0,127.0,127.0,127.0,104.0,88.0,-104.0
128.0,129.0,164.0,130.0,127.0,193.0,127.0,128.0,33.0,-93.0,-72.0,127.0,127.0,127.0,104.0,88.0,-104.0
128.0,129.0,164.0,130.0,127.0,191.0,127.0,128.0,33.0,-93.0,-72.0,127.0,127.0,127.0,104.0,88.0,-104.0
128.0,129.0,164.0,130.0,127.0,190.0,127.0,128.0,33.0,-93.0,-72.0,127.0,127.0,127.0,104.0,88.0,-104.0
128.0,128.0,164.0,130.0,127.0,188.0,127.0,128.0,33.0,-93.0,-72.0,127.0,127.0,127.0,104.0,88.0,-104.0
128.0,128.0,164.0,130.0,127.0,186.0,127.0,128.0,33.0,-93.0,-72.0,127.0,127.0,127.0,104.0,88.0,-104.0
128.0,128.0,163.0,130.0,127.0,184.0,127.0,128.0,33.0,-93.0,-72.0,127.0,127.0,127.0,104.0,88.0,-104.0
128.0,128.0,163.0,130.0,127.0,183.0,127.0,128.0,33.0,-93.0,-72.0,127.0,127.0,127.0,104.0,88.0,-104.0
127.0,128.0,156.0,130.0,127.0,149.0,127.0,128.0,33.0,-94.0,-73.0,127.0,127.0,127.0,104.0,88.0,-104.0
127.0,128.0,156.0,130.0,127.0,149.0,127.0,128.0,33.0,-94.0,-73.0,127.0,127.0,127.0,104.0,88.0,-104.0
127.0,128.0,156.0,130.0,127.0,149.0,127.0,128.0,33.0,-94.0,-73.0,127.0,127.0,127.0,104.0,88.0,-104.0
127.0,128.0,156.0,130.0,127.0,148.0,127.0,128.0,33.0,-94.0,-73.0,127.0,127.0,127.0,104.0,88.0,-104.0
127.0,128.0,156.0,130.0,127.0,148.0,127.0,128.0,33.0,-94.0,-73.0,127.0,127.0,127.0,104.0,88.0,-104.0
127.0,127.0,156.0,130.0,127.0,147.0,127.0,128.0,33.0,-94.0,-73.0,127.0,127.0,127.0,104.0,88.0,-104.0
127.0,127.0,156.0,130.0,127.0,147.0,127.0,128.0,33.0,-94.0,-73.0,127.0,127.0,127.0,104.0,88.0,-104.0
127.0,127.0,155.0,130.0,127.0,147.0,127.0,128.0,33.0,-94.0,-73.0,127.0,127.0,127.0,104.0,88.0,-104.0
127.0,127.0,155.0,130.0,127.0,146.0,127.0,128.0,33.0,-94.0,-73.0,127.0,127.0,127.0,104.0,88.0,-104.0
127.0,128.0,156.0,130.0,127.0,150.0,127.0,128.0,33.0,-94.0,-73.0,127.0,127.0,127.0,104.0,88.0,-104.0
127.0,128.0,155.0,130.0,127.0,138.0,127.0,128.0,33.0,-94.0,-73.0,127.0,127.0,127.0,104.0,88.0,-104.0
127.0,128.0,155.0,130.0,127.0,138.0,127.0,128.0,33.0,-94.0,-73.0,127.0,127.0,127.0,104.0,88.0,-104.0
127.0,128.0,155.0,130.0,127.0,139.0,127.0,128.0,33.0,-94.0,-73.0,127.0,127.0,127.0,104.0,88.0,-104.0
127.0,128.0,155.0,130.0,127.0,140.0,127.0,128.0,33.0,-94.0,-73.0,127.0,127.0,127.0,104.0,88.0,-104.0
127.0,128.0,155.0,130.0,127.0,139.0,127.0,128.0,33.0,-94.0,-73.0,127.0,127.0,127.0,104.0,88.0,-104.0
127.0,128.0,155.0,130.0,127.0,139.0,127.0,128.0,33.0,-94.0,-73.0,127.0,127.0,127.0,104.0,88.0,-104.0
127.0,128.0,155.0,130.0,127.0,139.0,127.0,128.0,33.0,-94.0,-73.0,127.0,127.0,127.0,104.0,88.0,-104.0
127.0,128.0,155.0,129.0,127.0,139.0,127.0,128.0,33.0,-94.0,-73.0,127.0,127.0,127.0,104.0,88.0,-104.0
127.0,128.0,155.0,129.0,127.0,139.0,127.0,128.0,33.0,-94.0,-73.0,127.0,127.0,127.0,104.0,88.0,-104.0
127.0,128.0,155.0,129.0,127.0,138.0,127.0,128.0,33.0,-94.0,-73.0,127.0,127.0,127.0,104.0,88.0,-104.0
127.0,128.0,153.0,130.0,127.0,138.0,127.0,128.0,33.0,-94.0,-73.0,127.0,127.0,127.0,105.0,88.0,-104.0
127.0,128.0,153.0,130.0,127.0,138.0,127.0,128.0,33.0,-94.0,-73.0,127.0,127.0,127.0,105.0,88.0,-104.0
127.0,128.0,153.0,130.0,127.0,138.0,127.0,128.0,33.0,-94.0,-73.0,127.0,127.0,127.0,105.0,88.0,-104.0
127.0,128.0,153.0,130.0,127.0,138.0,127.0,128.0,33.0,-94.0,-73.0,127.0,127.0,127.0,105.0,88.0,-104.0
127.0,128.0,153.0,130.0,127.0,138.0,127.0,128.0,33.0,-94.0,-73.0,127.0,127.0,127.0,105.0,88.0,-104.0
127.0,128.0,153.0,130.0,127.0,138.0,127.0,128.0,33.0,-94.0,-73.0,127.0,127.0,127.0,105.0,88.0,-104.0
127.0,129.0,153.0,130.0,127.0,138.0,127.0,128.0,33.0,-94.0,-73.0,127.0,127.0,127.0,105.0,88.0,-104.0
127.0,129.0,153.0,130.0,127.0,138.0,127.0,128.0,33.0,-94.0,-73.0,127.0,127.0,127.0,105.0,88.0,-104.0
127.0,128.0,154.0,130.0,127.0,138.0,127.0,128.0,33.0,-94.0,-73.0,127.0,127.0,127.0,105.0,88.0,-104.0
127.0,128.0,153.0,130.0,127.0,138.0,127.0,128.0,33.0,-94.0,-73.0,127.0,127.0,127.0,105.0,88.0,-104.0
127.0,129.0,142.0,130.0,127.0,143.0,127.0,128.0,34.0,-94.0,-73.0,127.0,127.0,127.0,105.0,88.0,-104.0
127.0,129.0,141.0,130.0,127.0,143.0,127.0,128.0,34.0,-94.0,-73.0,127.0,127.0,127.0,105.0,88.0,-104.0
128.0,129.0,141.0,130.0,127.0,143.0,127.0,128.0,34.0,-94.0,-73.0,127.0,127.0,127.0,105.0,88.0,-104.0
127.0,128.0,141.0,130.0,127.0,142.0,127.0,128.0,34.0,-94.0,-73.0,127.0,127.0,127.0,105.0,88.0,-104.0
127.0,128.0,141.0,130.0,127.0,142.0,127.0,128.0,34.0,-94.0,-73.0,127.0,127.0,127.0,105.0,88.0,-104.0
127.0,129.0,143.0,130.0,127.0,143.0,127.0,128.0,34.0,-94.0,-73.0,127.0,127.0,127.0,105.0,88.0,-104.0
127.0,129.0,143.0,130.0,127.0,143.0,127.0,128.0,34.0,-94.0,-73.0,127.0,127.0,127.0,105.0,88.0,-104.0
127.0,129.0,142.0,130.0,127.0,143.0,127.0,128.0,34.0,-94.0,-73.0,127.0,127.0,127.0,105.0,88.0,-104.0
128.0,129.0,142.0,130.0,127.0,143.0,127.0,128.0,34.0,-94.0,-73.0,127.0,127.0,127.0,105.0,88.0,-104.0
128.0,129.0,142.0,130.0,127.0,143.0,127.0,128.0,34.0,-94.0,-73.0,127.0,127.0,127.0,105.0,88.0,-104.0
127.0,129.0,136.0,129.0,127.0,145.0,127.0,128.0,34.0,-94.0,-73.0,127.0,127.0,127.0,105.0,88.0,-104.0
127.0,128.0,136.0,129.0,127.0,145.0,127.0,128.0,34.0,-94.0,-73.0,127.0,127.0,127.0,105.0,88.0,-104.0
127.0,128.0,136.0,129.0,127.0,145.0,127.0,128.0,34.0,-94.0,-73.0,127.0,127.0,127.0,105.0,88.0,-104.0
127.0,128.0,136.0,129.0,127.0,145.0,127.0,128.0,34.0,-94.0,-73.0,127.0,127.0,127.0,105.0,88.0,-104.0
128.0,129.0,136.0,129.0,127.0,145.0,127.0,128.0,34.0,-94.0,-73.0,127.0,127.0,127.0,105.0,88.0,-104.0
128.0,129.0,136.0,129.0,127.0,145.0,127.0,128.0,34.0,-94.0,-73.0,127.0,127.0,127.0,105.0,88.0,-104.0
128.0,129.0,136.0,129.0,127.0,145.0,127.0,128.0,34.0,-94.0,-73.0,127.0,127.0,127.0,105.0,88.0,-104.0
128.0,129.0,136.0,129.0,127.0,145.0,127.0,128.0,34.0,-94.0,-73.0,127.0,127.0,127.0,105.0,88.0,-104.0
127.0,129.0,136.0,129.0,127.0,145.0,127.0,128.0,34.0,-94.0,-73.0,127.0,127.0,127.0,105.0,88.0,-104.0
127.0,129.0,136.0,129.0,127.0,145.0,127.0,128.0,34.0,-94.0,-73.0,127.0,127.0,127.0,105.0,88.0,-104.0
127.0,128.0,136.0,129.0,127.0,147.0,127.0,128.0,33.0,-93.0,-73.0,127.0,127.0,127.0,105.0,88.0,-104.0
127.0,128.0,136.0,129.0,127.0,147.0,127.0,128.0,33.0,-93.0,-73.0,127.0,127.0,127.0,105.0,88.0,-104.0
127.0,128.0,136.0,129.0,127.0,148.0,127.0,128.0,33.0,-93.0,-73.0,127.0,127.0,127.0,105.0,88.0,-104.0
127.0,128.0,136.0,129.0,127.0,145.0,127.0,128.0,33.0,-93.0,-73.0,127.0,127.0,127.0,105.0,88.0,-104.0
127.0,128.0,136.0,129.0,127.0,145.0,127.0,128.0,33.0,-93.0,-73.0,127.0,127.0,127.0,105.0,88.0,-104.0
127.0,128.0,136.0,129.0,127.0,146.0,127.0,128.0,33.0,-93.0,-73.0,127.0,127.0,127.0,105.0,88.0,-104.0
127.0,128.0,136.0,129.0,127.0,147.0,127.0,128.0,33.0,-93.0,-73.0,127.0,127.0,127.0,105.0,88.0,-104.0
127.0,128.0,136.0,129.0,127.0,147.0,127.0,128.0,33.0,-93.0,-73.0,127.0,127.0,127.0,105.0,88.0,-104.0
127.0,128.0,136.0,129.0,127.0,147.0,127.0,128.0,33.0,-93.0,-73.0,127.0,127.0,127.0,105.0,88.0,-104.0
127.0,128.0,136.0,129.0,127.0,147.0,127.0,128.0,33.0,-93.0,-73.0,127.0,127.0,127.0,105.0,88.0,-104.0
127.0,128.0,130.0,130.0,127.0,149.0,127.0,128.0,33.0,-93.0,-73.0,127.0,127.0,127.0,105.0,88.0,-104.0
127.0,128.0,130.0,131.0,127.0,150.0,127.0,128.0,33.0,-93.0,-73.0,127.0,127.0,127.0,105.0,88.0,-104.0
127.0,128.0,131.0,129.0,127.0,147.0,127.0,128.0,33.0,-93.0,-73.0,127.0,127.0,127.0,105.0,88.0,-104.0
127.0,128.0,131.0,129.0,127.0,147.0,127.0,128.0,33.0,-93.0,-73.0,127.0,127.0,127.0,105.0,88.0,-104.0
127.0,128.0,130.0,129.0,127.0,148.0,127.0,128.0,33.0,-93.0,-73.0,127.0,127.0,127.0,105.0,88.0,-104.0
127.0,128.0,130.0,130.0,127.0,149.0,127.0,128.0,33.0,-93.0,-73.0,127.0,127.0,127.0,105.0,88.0,-104.0
127.0,128.0,130.0,130.0,127.0,149.0,127.0,128.0,33.0,-93.0,-73.0,127.0,127.0,127.0,105.0,88.0,-104.0
127.0,128.0,130.0,130.0,127.0,149.0,127.0,128.0,33.0,-93.0,-73.0,127.0,127.0,127.0,105.0,88.0,-104.0
127.0,128.0,130.0,130.0,127.0,149.0,127.0,128.0,33.0,-93.0,-73.0,127.0,127.0,127.0,105.0,88.0,-104.0
127.0,128.0,130.0,130.0,127.0,149.0,127.0,128.0,33.0,-93.0,-73.0,127.0,127.0,127.0,105.0,88.0,-104.0
127.0,128.0,128.0,129.0,127.0,149.0,127.0,128.0,32.0,-93.0,-73.0,127.0,127.0,127.0,105.0,88.0,-104.0
127.0,128.0,129.0,129.0,127.0,147.0,127.0,127.0,32.0,-93.0,-73.0,127.0,127.0,127.0,105.0,88.0,-104.0
127.0,128.0,129.0,129.0,127.0,147.0,127.0,127.0,32.0,-93.0,-73.0,127.0,127.0,127.0,105.0,88.0,-104.0
127.0,128.0,129.0,129.0,127.0,147.0,127.0,127.0,32.0,-93.0,-73.0,127.0,127.0,127.0,105.0,88.0,-104.0
127.0,128.0,128.0,129.0,127.0,148.0,127.0,128.0,32.0,-93.0,-73.0,127.0,127.0,127.0,105.0,88.0,-104.0
127.0,128.0,128.0,129.0,127.0,149.0,127.0,128.0,32.0,-93.0,-73.0,127.0,127.0,127.0,105.0,88.0,-104.0
127.0,128.0,128.0,129.0,127.0,148.0,127.0,128.0,32.0,-93.0,-73.0,127.0,127.0,127.0,105.0,88.0,-104.0
127.0,128.0,128.0,129.0,127.0,148.0,127.0,128.0,32.0,-93.0,-73.0,127.0,127.0,127.0,105.0,88.0,-104.0
127.0,128.0,128.0,129.0,127.0,148.0,127.0,128.0,32.0,-93.0,-73.0,127.0,127.0,127.0,105.0,88.0,-104.0
127.0,128.0,128.0,129.0,127.0,148.0,127.0,128.0,32.0,-93.0,-73.0,127.0,127.0,127.0,105.0,88.0,-104.0
127.0,128.0,127.0,129.0,127.0,148.0,127.0,128.0,32.0,-92.0,-73.0,127.0,127.0,127.0,105.0,88.0,-104.0
127.0,128.0,127.0,129.0,127.0,148.0,127.0,128.0,32.0,-92.0,-73.0,127.0,127.0,127.0,105.0,88.0,-104.0
127.0,128.0,127.0,129.0,127.0,148.0,127.0,128.0,32.0,-92.0,-73.0,127.0,127.0,127.0,105.0,88.0,-104.0
127.0,128.0,127.0,129.0,127.0,148.0,127.0,128.0,32.0,-92.0,-73.0,127.0,127.0,127.0,105.0,88.0,-104.0
127.0,128.0,127.0,129.0,127.0,148.0,127.0,128.0,32.0,-92.0,-73.0,127.0,127.0,127.0,105.0,88.0,-104.0
127.0,128.0,127.0,130.0,127.0,148.0,127.0,128.0,32.0,-92.0,-73.0,127.0,127.0,127.0,105.0,88.0,-104.0
127.0,127.0,127.0,130.0,127.0,148.0,127.0,128.0,32.0,-92.0,-73.0,127.0,127.0,127.0,105.0,88.0,-104.0
127.0,127.0,127.0,130.0,127.0,148.0,127.0,128.0,32.0,-92.0,-73.0,127.0,127.0,127.0,105.0,88.0,-104.0
127.0,127.0,127.0,130.0,127.0,148.0,127.0,128.0,32.0,-92.0,-73.0,127.0,127.0,127.0,105.0,88.0,-104.0
127.0,127.0,127.0,130.0,127.0,147.0,127.0,128.0,32.0,-92.0,-73.0,127.0,127.0,127.0,105.0,88.0,-104.0
127.0,129.0,127.0,129.0,126.0,147.0,127.0,128.0,31.0,-92.0,-73.0,127.0,127.0,127.0,105.0,88.0,-104.0
127.0,128.0,127.0,129.0,126.0,147.0,127.0,128.0,31.0,-92.0,-73.0,127.0,127.0,127.0,105.0,88.0,-104.0
128.0,128.0,127.0,129.0,126.0,147.0,127.0,128.0,31.0,-92.0,-73.0,127.0,127.0,127.0,105.0,88.0,-104.0
128.0,128.0,127.0,129.0,126.0,147.0,127.0,128.0,31.0,-92.0,-73.0,127.0,127.0,127.0,105.0,88.0,-104.0
128.0,128.0,127.0,129.0,127.0,147.0,127.0,128.0,31.0,-92.0,-73.0,127.0,127.0,127.0,105.0,88.0,-104.0
128.0,128.0,127.0,129.0,127.0,146.0,127.0,128.0,31.0,-92.0,-73.0,127.0,127.0,127.0,105.0,88.0,-104.0
127.0,128.0,127.0,129.0,127.0,146.0,127.0,128.0,31.0,-92.0,-73.0,127.0,127.0,127.0,105.0,88.0,-104.0
128.0,128.0,127.0,129.0,127.0,146.0,127.0,128.0,31.0,-92.0,-73.0,127.0,127.0,127.0,105.0,88.0,-104.0
127.0,128.0,127.0,129.0,127.0,146.0,127.0,128.0,31.0,-92.0,-73.0,127.0,127.0,127.0,105.0,88.0,-104.0
127.0,129.0,127.0,129.0,126.0,147.0,127.0,128.0,31.0,-92.0,-73.0,127.0,127.0,127.0,105.0,88.0,-104.0
127.0,128.0,126.0,129.0,127.0,147.0,127.0,128.0,31.0,-93.0,-73.0,127.0,127.0,127.0,105.0,88.0,-104.0
127.0,128.0,126.0,129.0,127.0,147.0,127.0,128.0,31.0,-93.0,-73.0,127.0,127.0,127.0,105.0,88.0,-104.0
127.0,127.0,126.0,129.0,127.0,146.0,127.0,128.0,31.0,-93.0,-73.0,127.0,127.0,127.0,105.0,88.0,-104.0
127.0,127.0,126.0,129.0,127.0,146.0,127.0,128.0,31.0,-93.0,-73.0,127.0,127.0,127.0,105.0,88.0,-104.0
127.0,127.0,126.0,129.0,127.0,146.0,127.0,128.0,31.0,-93.0,-73.0,127.0,127.0,127.0,105.0,88.0,-104.0
127.0,127.0,126.0,129.0,127.0,146.0,127.0,128.0,31.0,-93.0,-73.0,127.0,127.0,127.0,105.0,88.0,-104.0
127.0,127.0,126.0,130.0,127.0,146.0,127.0,128.0,31.0,-93.0,-73.0,127.0,127.0,127.0,105.0,88.0,-104.0
127.0,127.0,126.0,130.0,127.0,146.0,127.0,128.0,31.0,-93.0,-73.0,127.0,127.0,127.0,105.0,88.0,-104.0
128.0,128.0,126.0,129.0,127.0,147.0,127.0,128.0,31.0,-93.0,-73.0,127.0,127.0,127.0,105.0,88.0,-104.0
127.0,128.0,126.0,129.0,127.0,147.0,127.0,128.0,31.0,-93.0,-73.0,127.0,127.0,127.0,105.0,88.0,-104.0
128.0,128.0,126.0,129.0,127.0,146.0,127.0,128.0,31.0,-93.0,-73.0,127.0,127.0,127.0,105.0,88.0,-104.0
128.0,128.0,126.0,129.0,127.0,146.0,127.0,128.0,31.0,-93.0,-73.0,127.0,127.0,127.0,105.0,88.0,-104.0
128.0,128.0,126.0,129.0,127.0,146.0,127.0,128.0,31.0,-93.0,-73.0,127.0,127.0,127.0,105.0,88.0,-104.0
127.0,128.0,126.0,129.0,127.0,146.0,127.0,128.0,31.0,-93.0,-73.0,127.0,127.0,127.0,105.0,88.0,-104.0
127.0,128.0,126.0,129.0,127.0,146.0,127.0,128.0,31.0,-93.0,-73.0,127.0,127.0,127.0,105.0,88.0,-104.0
127.0,128.0,126.0,129.0,127.0,146.0,127.0,128.0,31.0,-93.0,-73.0,127.0,127.0,127.0,105.0,88.0,-104.0
127.0,128.0,126.0,129.0,127.0,146.0,127.0,128.0,31.0,-93.0,-73.0,127.0,127.0,127.0,105.0,88.0,-104.0
128.0,128.0,126.0,129.0,127.0,147.0,127.0,128.0,31.0,-93.0,-73.0,127.0,127.0,127.0,105.0,88.0,-104.0
128.0,129.0,125.0,129.0,127.0,146.0,127.0,128.0,31.0,-93.0,-73.0,127.0,127.0,127.0,105.0,88.0,-104.0
128.0,129.0,126.0,129.0,127.0,146.0,127.0,128.0,31.0,-93.0,-73.0,127.0,127.0,127.0,105.0,88.0,-104.0
127.0,127.0,125.0,129.0,127.0,147.0,127.0,128.0,31.0,-93.0,-73.0,127.0,127.0,127.0,105.0,88.0,-104.0
127.0,127.0,125.0,129.0,127.0,147.0,127.0,128.0,31.0,-93.0,-73.0,127.0,127.0,127.0,105.0,88.0,-104.0
127.0,127.0,125.0,129.0,127.0,147.0,127.0,128.0,31.0,-93.0,-73.0,127.0,127.0,127.0,105.0,88.0,-104.0
127.0,127.0,125.0,129.0,127.0,146.0,127.0,128.0,31.0,-93.0,-73.0,127.0,127.0,127.0,105.0,88.0,-104.0
127.0,127.0,125.0,129.0,127.0,146.0,127.0,128.0,31.0,-93.0,-73.0,127.0,127.0,127.0,105.0,88.0,-104.0
127.0,127.0,125.0,129.0,127.0,146.0,127.0,128.0,31.0,-93.0,-73.0,127.0,127.0,127.0,105.0,88.0,-104.0
127.0,128.0,125.0,129.0,127.0,147.0,127.0,128.0,31.0,-93.0,-73.0,127.0,127.0,127.0,105.0,88.0,-104.0
127.0,128.0,125.0,129.0,127.0,147.0,127.0,128.0,31.0,-93.0,-73.0,127.0,127.0,127.0,105.0,88.0,-104.0
127.0,128.0,125.0,129.0,127.0,147.0,127.0,128.0,31.0,-93.0,-73.0,127.0,127.0,127.0,105.0,88.0,-104.0
127.0,128.0,125.0,129.0,127.0,147.0,127.0,128.0,31.0,-93.0,-73.0,127.0,127.0,127.0,105.0,88.0,-104.0
126.0,127.0,126.0,129.0,127.0,147.0,127.0,128.0,31.0,-92.0,-73.0,127.0,127.0,127.0,105.0,88.0,-104.0
126.0,127.0,126.0,129.0,127.0,147.0,127.0,128.0,31.0,-92.0,-73.0,127.0,127.0,127.0,105.0,88.0,-104.0
127.0,127.0,126.0,129.0,127.0,148.0,127.0,128.0,31.0,-92.0,-73.0,127.0,127.0,127.0,105.0,88.0,-104.0
127.0,127.0,126.0,129.0,127.0,148.0,127.0,128.0,31.0,-92.0,-73.0,127.0,127.0,127.0,105.0,88.0,-104.0
127.0,127.0,126.0,129.0,127.0,148.0,127.0,128.0,31.0,-92.0,-73.0,127.0,127.0,127.0,105.0,88.0,-104.0
126.0,126.0,126.0,129.0,127.0,146.0,127.0,128.0,31.0,-92.0,-73.0,127.0,127.0,127.0,105.0,88.0,-104.0
126.0,127.0,126.0,129.0,127.0,147.0,127.0,128.0,31.0,-92.0,-73.0,127.0,127.0,127.0,105.0,88.0,-104.0
126.0,127.0,126.0,129.0,128.0,147.0,127.0,128.0,31.0,-92.0,-73.0,127.0,127.0,127.0,105.0,88.0,-104.0
126.0,127.0,126.0,129.0,127.0,147.0,127.0,128.0,31.0,-92.0,-73.0,127.0,127.0,127.0,105.0,88.0,-104.0
126.0,127.0,126.0,129.0,127.0,147.0,127.0,128.0,31.0,-92.0,-73.0,127.0,127.0,127.0,105.0,88.0,-104.0
127.0,127.0,124.0,129.0,126.0,147.0,126.0,128.0,31.0,-92.0,-73.0,127.0,127.0,127.0,105.0,88.0,-104.0
127.0,127.0,124.0,129.0,127.0,148.0,126.0,128.0,31.0,-92.0,-73.0,127.0,127.0,127.0,105.0,88.0,-104.0
127.0,127.0,124.0,129.0,127.0,148.0,126.0,128.0,31.0,-92.0,-73.0,127.0,127.0,127.0,105.0,88.0,-104.0
127.0,127.0,124.0,129.0,127.0,148.0,126.0,128.0,31.0,-92.0,-73.0,127.0,127.0,127.0,105.0,88.0,-104.0
127.0,127.0,125.0,129.0,126.0,146.0,126.0,128.0,31.0,-92.0,-73.0,127.0,127.0,127.0,105.0,88.0,-104.0
127.0,127.0,124.0,129.0,126.0,147.0,126.0,128.0,31.0,-92.0,-73.0,127.0,127.0,127.0,105.0,88.0,-104.0
127.0,127.0,124.0,129.0,126.0,147.0,126.0,128.0,31.0,-92.0,-73.0,127.0,127.0,127.0,105.0,88.0,-104.0
127.0,127.0,124.0,129.0,126.0,147.0,126.0,128.0,31.0,-92.0,-73.0,127.0,127.0,127.0,105.0,88.0,-104.0
127.0,127.0,124.0,129.0,126.0,147.0,126.0,128.0,31.0,-92.0,-73.0,127.0,127.0,127.0,105.0,88.0,-104.0
127.0,127.0,124.0,129.0,126.0,147.0,126.0,128.0,31.0,-92.0,-73.0,127.0,127.0,127.0,105.0,88.0,-104.0
127.0,127.0,125.0,129.0,127.0,146.0,127.0,128.0,31.0,-93.0,-73.0,127.0,127.0,127.0,105.0,88.0,-104.0
127.0,127.0,125.0,129.0,127.0,146.0,126.0,128.0,31.0,-93.0,-73.0,127.0,127.0,127.0,105.0,88.0,-104.0
127.0,127.0,125.0,129.0,127.0,146.0,127.0,128.0,31.0,-93.0,-73.0,127.0,127.0,127.0,105.0,88.0,-104.0
127.0,127.0,125.0,129.0,127.0,145.0,127.0,128.0,31.0,-93.0,-73.0,127.0,127.0,127.0,105.0,88.0,-104.0
127.0,127.0,125.0,129.0,127.0,146.0,127.0,128.0,31.0,-93.0,-73.0,127.0,127.0,127.0,105.0,88.0,-104.0
127.0,127.0,125.0,129.0,127.0,146.0,127.0,128.0,31.0,-93.0,-73.0,127.0,127.0,127.0,105.0,88.0,-104.0
127.0,127.0,125.0,129.0,127.0,146.0,127.0,128.0,31.0,-93.0,-73.0,127.0,127.0,127.0,105.0,88.0,-104.0
127.0,127.0,125.0,129.0,127.0,145.0,127.0,128.0,31.0,-93.0,-73.0,127.0,127.0,127.0,105.0,88.0,-104.0
127.0,127.0,125.0,129.0,127.0,145.0,127.0,128.0,31.0,-93.0,-73.0,127.0,127.0,127.0,105.0,88.0,-104.0
127.0,127.0,125.0,129.0,127.0,145.0,127.0,128.0,31.0,-93.0,-73.0,127.0,127.0,127.0,105.0,88.0,-104.0
127.0,128.0,125.0,128.0,126.0,144.0,126.0,128.0,31.0,-93.0,-73.0,127.0,127.0,127.0,105.0,88.0,-104.0
127.0,128.0,125.0,128.0,126.0,144.0,126.0,128.0,31.0,-93.0,-73.0,127.0,127.0,127.0,105.0,88.0,-104.0
127.0,127.0,126.0,128.0,126.0,142.0,126.0,128.0,31.0,-93.0,-73.0,127.0,127.0,127.0,105.0,88.0,-104.0
127.0,127.0,126.0,128.0,126.0,143.0,126.0,128.0,31.0,-93.0,-73.0,127.0,127.0,127.0,105.0,88.0,-104.0
127.0,127.0,126.0,128.0,126.0,143.0,126.0,128.0,31.0,-93.0,-73.0,127.0,127.0,127.0,105.0,88.0,-104.0
127.0,127.0,125.0,128.0,126.0,143.0,126.0,128.0,31.0,-93.0,-73.0,127.0,127.0,127.0,105.0,88.0,-104.0
127.0,127.0,125.0,128.0,126.0,143.0,126.0,128.0,31.0,-93.0,-73.0,127.0,127.0,127.0,105.0,88.0,-104.0
127.0,127.0,125.0,128.0,126.0,143.0,126.0,128.0,31.0,-93.0,-73.0,127.0,127.0,127.0,105.0,88.0,-104.0
127.0,127.0,125.0,128.0,126.0,143.0,126.0,128.0,31.0,-93.0,-73.0,127.0,127.0,127.0,105.0,88.0,-104.0
127.0,127.0,125.0,128.0,126.0,144.0,126.0,128.0,31.0,-93.0,-73.0,127.0,127.0,127.0,105.0,88.0,-104.0
127.0,127.0,125.0,129.0,127.0,143.0,127.0,128.0,31.0,-93.0,-73.0,127.0,127.0,127.0,105.0,88.0,-104.0
127.0,127.0,125.0,129.0,127.0,142.0,127.0,128.0,31.0,-93.0,-73.0,127.0,127.0,127.0,105.0,88.0,-104.0
127.0,127.0,125.0,129.0,127.0,143.0,127.0,128.0,31.0,-93.0,-73.0,127.0,127.0,127.0,105.0,88.0,-104.0
127.0,127.0,125.0,129.0,127.0,143.0,127.0,128.0,31.0,-93.0,-73.0,127.0,127.0,127.0,105.0,88.0,-104.0
127.0,127.0,125.0,129.0,127.0,143.0,127.0,128.0,31.0,-93.0,-73.0,127.0,127.0,127.0,105.0,88.0,-104.0
127.0,127.0,125.0,129.0,127.0,143.0,127.0,128.0,31.0,-93.0,-73.0,127.0,127.0,127.0,105.0,88.0,-104.0
127.0,127.0,125.0,129.0,127.0,142.0,127.0,128.0,31.0,-93.0,-73.0,127.0,127.0,127.0,105.0,88.0,-104.0
127.0,127.0,125.0,129.0,127.0,142.0,127.0,128.0,31.0,-93.0,-73.0,127.0,127.0,127.0,105.0,88.0,-104.0
127.0,127.0,125.0,129.0,127.0,143.0,127.0,128.0,31.0,-93.0,-73.0,127.0,127.0,127.0,105.0,88.0,-104.0
127.0,127.0,125.0,129.0,127.0,144.0,127.0,128.0,31.0,-93.0,-73.0,127.0,127.0,127.0,105.0,88.0,-104.0
127.0,127.0,128.0,129.0,127.0,140.0,127.0,128.0,31.0,-92.0,-73.0,127.0,127.0,127.0,105.0,88.0,-104.0
127.0,127.0,128.0,129.0,127.0,141.0,127.0,128.0,31.0,-92.0,-73.0,127.0,127.0,127.0,105.0,88.0,-104.0
127.0,127.0,128.0,129.0,127.0,142.0,127.0,128.0,31.0,-92.0,-73.0,127.0,127.0,127.0,105.0,88.0,-104.0
127.0,127.0,128.0,129.0,127.0,142.0,127.0,128.0,31.0,-92.0,-73.0,127.0,127.0,127.0,105.0,88.0,-104.0
127.0,127.0,128.0,129.0,127.0,141.0,127.0,128.0,31.0,-92.0,-73.0,127.0,127.0,127.0,105.0,88.0,-104.0
127.0,127.0,128.0,129.0,127.0,141.0,127.0,128.0,31.0,-92.0,-73.0,127.0,127.0,127.0,105.0,88.0,-104.0
127.0,127.0,128.0,129.0,127.0,141.0,127.0,128.0,31.0,-92.0,-73.0,127.0,127.0,127.0,105.0,88.0,-104.0
127.0,127.0,128.0,129.0,127.0,142.0,127.0,128.0,31.0,-92.0,-73.0,127.0,127.0,127.0,105.0,88.0,-104.0
127.0,127.0,128.0,130.0,127.0,143.0,127.0,128.0,31.0,-92.0,-73.0,127.0,127.0,127.0,105.0,88.0,-104.0
127.0,127.0,128.0,129.0,127.0,143.0,127.0,128.0,31.0,-92.0,-73.0,127.0,127.0,127.0,105.0,88.0,-104.0
127.0,127.0,129.0,129.0,127.0,141.0,127.0,128.0,31.0,-92.0,-73.0,127.0,127.0,127.0,105.0,88.0,-104.0
127.0,127.0,129.0,129.0,127.0,142.0,127.0,128.0,31.0,-92.0,-73.0,127.0,127.0,127.0,105.0,88.0,-104.0
127.0,127.0,129.0,129.0,127.0,142.0,127.0,128.0,31.0,-92.0,-73.0,127.0,127.0,127.0,105.0,88.0,-104.0
127.0,127.0,129.0,129.0,127.0,142.0,127.0,128.0,31.0,-92.0,-73.0,127.0,127.0,127.0,105.0,88.0,-104.0
127.0,127.0,129.0,129.0,127.0,141.0,127.0,128.0,31.0,-92.0,-73.0,127.0,127.0,127.0,105.0,88.0,-104.0
127.0,127.0,129.0,129.0,127.0,142.0,127.0,128.0,31.0,-92.0,-73.0,127.0,127.0,127.0,105.0,88.0,-104.0
127.0,127.0,129.0,129.0,127.0,142.0,127.0,128.0,31.0,-92.0,-73.0,127.0,127.0,127.0,105.0,88.0,-104.0
127.0,127.0,129.0,129.0,127.0,143.0,127.0,128.0,31.0,-92.0,-73.0,127.0,127.0,127.0,105.0,88.0,-104.0
127.0,126.0,130.0,129.0,127.0,140.0,127.0,128.0,31.0,-92.0,-73.0,127.0,127.0,127.0,105.0,88.0,-104.0
127.0,127.0,130.0,129.0,127.0,141.0,127.0,128.0,31.0,-92.0,-73.0,127.0,127.0,127.0,105.0,88.0,-104.0
127.0,127.0,130.0,129.0,127.0,142.0,126.0,128.0,31.0,-93.0,-73.0,127.0,127.0,127.0,105.0,88.0,-104.0
127.0,127.0,130.0,129.0,127.0,142.0,126.0,128.0,31.0,-93.0,-73.0,127.0,127.0,127.0,105.0,88.0,-104.0
127.0,127.0,130.0,128.0,126.0,142.0,126.0,128.0,31.0,-93.0,-73.0,127.0,127.0,127.0,105.0,88.0,-104.0
127.0,127.0,130.0,128.0,126.0,141.0,126.0,128.0,31.0,-93.0,-73.0,127.0,127.0,127.0,105.0,88.0,-104.0
127.0,127.0,130.0,128.0,126.0,141.0,126.0,128.0,31.0,-93.0,-73.0,127.0,127.0,127.0,105.0,88.0,-104.0
127.0,127.0,130.0,128.0,126.0,142.0,126.0,128.0,31.0,-93.0,-73.0,127.0,127.0,127.0,105.0,88.0,-104.0
127.0,127.0,130.0,128.0,126.0,143.0,126.0,128.0,31.0,-93.0,-73.0,127.0,127.0,127.0,105.0,88.0,-104.0
127.0,126.0,131.0,129.0,127.0,140.0,127.0,128.0,31.0,-93.0,-73.0,127.0,127.0,127.0,105.0,88.0,-104.0
127.0,127.0,131.0,129.0,127.0,140.0,127.0,128.0,31.0,-93.0,-73.0,127.0,127.0,127.0,105.0,88.0,-104.0
127.0,127.0,130.0,129.0,127.0,141.0,126.0,128.0,31.0,-93.0,-73.0,127.0,127.0,127.0,105.0,88.0,-104.0
127.0,126.0,129.0,129.0,127.0,139.0,127.0,128.0,31.0,-93.0,-73.0,127.0,127.0,127.0,105.0,88.0,-104.0
127.0,126.0,129.0,129.0,127.0,139.0,127.0,128.0,31.0,-93.0,-73.0,127.0,127.0,127.0,105.0,88.0,-104.0
127.0,126.0,130.0,129.0,127.0,139.0,127.0,128.0,31.0,-93.0,-73.0,127.0,127.0,127.0,105.0,88.0,-104.0
127.0,126.0,130.0,129.0,127.0,139.0,127.0,128.0,31.0,-93.0,-73.0,127.0,127.0,127.0,105.0,88.0,-104.0
127.0,126.0,130.0,129.0,127.0,139.0,127.0,128.0,31.0,-93.0,-73.0,127.0,127.0,127.0,105.0,88.0,-104.0
127.0,126.0,130.0,129.0,127.0,139.0,127.0,128.0,31.0,-93.0,-73.0,127.0,127.0,127.0,105.0,88.0,-104.0
127.0,126.0,129.0,129.0,127.0,139.0,127.0,128.0,31.0,-93.0,-73.0,127.0,127.0,127.0,105.0,88.0,-104.0
127.0,126.0,129.0,129.0,127.0,139.0,127.0,128.0,31.0,-93.0,-73.0,127.0,127.0,127.0,105.0,88.0,-104.0
127.0,126.0,129.0,129.0,127.0,139.0,127.0,128.0,31.0,-93.0,-73.0,127.0,127.0,127.0,105.0,88.0,-104.0
127.0,126.0,129.0,129.0,127.0,139.0,127.0,128.0,31.0,-93.0,-73.0,127.0,127.0,127.0,105.0,88.0,-104.0
126.0,127.0,133.0,128.0,127.0,142.0,127.0,128.0,31.0,-93.0,-73.0,127.0,127.0,127.0,105.0,88.0,-104.0
126.0,128.0,133.0,128.0,127.0,143.0,127.0,128.0,31.0,-93.0,-73.0,127.0,127.0,127.0,105.0,88.0,-104.0
126.0,128.0,133.0,128.0,127.0,144.0,127.0,128.0,31.0,-93.0,-73.0,127.0,127.0,127.0,105.0,88.0,-104.0
126.0,127.0,133.0,128.0,127.0,143.0,127.0,128.0,31.0,-93.0,-73.0,127.0,127.0,127.0,105.0,88.0,-104.0
126.0,127.0,133.0,128.0,127.0,143.0,127.0,128.0,31.0,-93.0,-73.0,127.0,127.0,127.0,105.0,88.0,-104.0
126.0,127.0,133.0,128.0,127.0,143.0,127.0,128.0,31.0,-93.0,-73.0,127.0,127.0,127.0,105.0,88.0,-104.0
126.0,127.0,133.0,128.0,127.0,143.0,127.0,128.0,31.0,-93.0,-73.0,127.0,127.0,127.0,105.0,88.0,-104.0
126.0,127.0,133.0,128.0,127.0,143.0,127.0,128.0,31.0,-93.0,-73.0,127.0,127.0,127.0,105.0,88.0,-104.0
126.0,127.0,133.0,128.0,127.0,142.0,127.0,128.0,31.0,-93.0,-73.0,127.0,127.0,127.0,105.0,88.0,-104.0
126.0,127.0,133.0,128.0,127.0,142.0,127.0,128.0,31.0,-93.0,-73.0,127.0,127.0,127.0,105.0,88.0,-104.0
127.0,127.0,135.0,128.0,127.0,144.0,127.0,128.0,31.0,-93.0,-73.0,127.0,127.0,127.0,105.0,88.0,-104.0
127.0,127.0,135.0,128.0,127.0,144.0,127.0,128.0,31.0,-93.0,-73.0,127.0,127.0,127.0,105.0,88.0,-104.0
127.0,127.0,135.0,128.0,127.0,144.0,127.0,128.0,31.0,-93.0,-73.0,127.0,127.0,127.0,105.0,88.0,-104.0
127.0,127.0,135.0,128.0,127.0,144.0,127.0,128.0,31.0,-93.0,-73.0,127.0,127.0,127.0,105.0,88.0,-104.0
127.0,127.0,134.0,128.0,127.0,144.0,127.0,128.0,31.0,-93.0,-73.0,127.0,127.0,127.0,105.0,88.0,-104.0
127.0,127.0,134.0,128.0,127.0,144.0,127.0,128.0,31.0,-93.0,-73.0,127.0,127.0,127.0,105.0,88.0,-104.0
127.0,127.0,134.0,128.0,127.0,143.0,127.0,128.0,31.0,-93.0,-73.0,127.0,127.0,127.0,105.0,88.0,-104.0
127.0,127.0,135.0,128.0,127.0,143.0,127.0,128.0,31.0,-93.0,-73.0,127.0,127.0,127.0,105.0,88.0,-104.0
127.0,127.0,135.0,128.0,127.0,143.0,127.0,128.0,31.0,-93.0,-73.0,127.0,127.0,127.0,105.0,88.0,-104.0
127.0,127.0,135.0,128.0,127.0,143.0,127.0,128.0,31.0,-93.0,-73.0,127.0,127.0,127.0,105.0,88.0,-104.0
127.0,127.0,137.0,128.0,127.0,145.0,127.0,128.0,31.0,-93.0,-73.0,127.0,127.0,127.0,105.0,88.0,-104.0
127.0,127.0,137.0,128.0,127.0,145.0,127.0,128.0,31.0,-93.0,-73.0,127.0,127.0,127.0,105.0,88.0,-104.0
127.0,127.0,137.0,128.0,127.0,144.0,127.0,128.0,31.0,-93.0,-73.0,127.0,127.0,127.0,105.0,88.0,-104.0
127.0,127.0,137.0,129.0,127.0,144.0,127.0,128.0,31.0,-93.0,-73.0,127.0,127.0,127.0,105.0,88.0,-104.0
127.0,127.0,137.0,129.0,127.0,144.0,127.0,128.0,31.0,-93.0,-73.0,127.0,127.0,127.0,105.0,88.0,-104.0
127.0,127.0,137.0,129.0,127.0,144.0,127.0,128.0,31.0,-93.0,-73.0,127.0,127.0,127.0,105.0,88.0,-104.0
127.0,127.0,137.0,129.0,127.0,144.0,127.0,128.0,31.0,-93.0,-73.0,127.0,127.0,127.0,105.0,88.0,-104.0
127.0,127.0,137.0,129.0,127.0,144.0,127.0,128.0,31.0,-93.0,-73.0,127.0,127.0,127.0,105.0,88.0,-104.0
127.0,127.0,137.0,128.0,127.0,144.0,127.0,128.0,31.0,-93.0,-73.0,127.0,127.0,127.0,105.0,88.0,-104.0
127.0,127.0,137.0,128.0,127.0,144.0,127.0,128.0,31.0,-93.0,-73.0,127.0,127.0,127.0,105.0,88.0,-104.0
127.0,127.0,136.0,128.0,127.0,145.0,127.0,128.0,31.0,-93.0,-73.0,127.0,127.0,127.0,105.0,88.0,-104.0
127.0,127.0,136.0,128.0,127.0,144.0,127.0,128.0,31.0,-93.0,-73.0,127.0,127.0,127.0,105.0,88.0,-104.0
127.0,127.0,136.0,128.0,127.0,144.0,127.0,128.0,31.0,-93.0,-73.0,127.0,127.0,127.0,105.0,88.0,-104.0
127.0,127.0,136.0,128.0,127.0,144.0,127.0,128.0,31.0,-93.0,-73.0,127.0,127.0,127.0,105.0,88.0,-104.0
127.0,127.0,136.0,128.0,127.0,144.0,127.0,128.0,31.0,-93.0,-73.0,127.0,127.0,127.0,105.0,88.0,-104.0
127.0,127.0,136.0,128.0,127.0,144.0,127.0,128.0,31.0,-93.0,-73.0,127.0,127.0,127.0,105.0,88.0,-104.0
127.0,127.0,136.0,128.0,127.0,144.0,127.0,128.0,31.0,-93.0,-73.0,127.0,127.0,127.0,105.0,88.0,-104.0
127.0,127.0,136.0,128.0,127.0,143.0,127.0,128.0,31.0,-93.0,-73.0,127.0,127.0,127.0,105.0,88.0,-104.0
127.0,127.0,136.0,128.0,127.0,144.0,127.0,128.0,31.0,-93.0,-73.0,127.0,127.0,127.0,105.0,88.0,-104.0
127.0,127.0,136.0,128.0,127.0,145.0,127.0,128.0,31.0,-93.0,-73.0,127.0,127.0,127.0,105.0,88.0,-104.0
127.0,127.0,131.0,129.0,127.0,142.0,127.0,128.0,30.0,-93.0,-73.0,127.0,127.0,127.0,105.0,88.0,-104.0
127.0,127.0,132.0,128.0,127.0,142.0,127.0,128.0,30.0,-93.0,-73.0,127.0,127.0,127.0,105.0,88.0,-104.0
127.0,127.0,132.0,128.0,127.0,142.0,127.0,128.0,30.0,-93.0,-73.0,127.0,127.0,127.0,105.0,88.0,-104.0
127.0,127.0,132.0,128.0,127.0,142.0,127.0,128.0,30.0,-93.0,-73.0,127.0,127.0,127.0,105.0,88.0,-104.0
127.0,127.0,132.0,128.0,127.0,141.0,127.0,128.0,30.0,-93.0,-73.0,127.0,127.0,127.0,105.0,88.0,-104.0
127.0,127.0,132.0,128.0,127.0,141.0,127.0,128.0,30.0,-93.0,-73.0,127.0,127.0,127.0,105.0,88.0,-104.0
127.0,127.0,131.0,128.0,127.0,141.0,127.0,128.0,30.0,-93.0,-73.0,127.0,127.0,127.0,105.0,88.0,-104.0
127.0,127.0,131.0,128.0,127.0,141.0,127.0,128.0,30.0,-93.0,-73.0,127.0,127.0,127.0,105.0,88.0,-104.0
127.0,127.0,131.0,129.0,127.0,142.0,127.0,128.0,30.0,-93.0,-73.0,127.0,127.0,127.0,105.0,88.0,-104.0
127.0,127.0,131.0,129.0,127.0,142.0,127.0,128.0,30.0,-93.0,-73.0,127.0,127.0,127.0,105.0,88.0,-104.0
128.0,127.0,127.0,128.0,127.0,139.0,127.0,128.0,30.0,-93.0,-73.0,127.0,127.0,127.0,105.0,88.0,-104.0
128.0,127.0,126.0,128.0,127.0,139.0,127.0,128.0,30.0,-93.0,-73.0,127.0,127.0,127.0,105.0,88.0,-104.0
128.0,127.0,126.0,128.0,127.0,139.0,127.0,128.0,30.0,-93.0,-73.0,127.0,127.0,127.0,105.0,88.0,-104.0
128.0,127.0,126.0,128.0,127.0,139.0,127.0,128.0,30.0,-93.0,-73.0,127.0,127.0,127.0,105.0,88.0,-104.0
128.0,127.0,126.0,128.0,127.0,139.0,127.0,128.0,30.0,-93.0,-73.0,127.0,127.0,127.0,105.0,88.0,-104.0
128.0,127.0,126.0,128.0,127.0,139.0,127.0,128.0,30.0,-93.0,-73.0,127.0,127.0,127.0,105.0,88.0,-104.0
128.0,127.0,126.0,128.0,127.0,139.0,127.0,128.0,30.0,-93.0,-73.0,127.0,127.0,127.0,105.0,88.0,-104.0
128.0,127.0,125.0,128.0,127.0,140.0,127.0,128.0,30.0,-93.0,-73.0,127.0,127.0,127.0,105.0,88.0,-104.0
128.0,127.0,125.0,128.0,127.0,140.0,127.0,128.0,30.0,-93.0,-73.0,127.0,127.0,127.0,105.0,88.0,-104.0
128.0,127.0,125.0,128.0,127.0,140.0,127.0,128.0,30.0,-93.0,-73.0,127.0,127.0,127.0,105.0,88.0,-104.0
128.0,127.0,125.0,128.0,127.0,139.0,127.0,128.0,30.0,-93.0,-73.0,127.0,127.0,127.0,105.0,88.0,-104.0
128.0,127.0,125.0,128.0,126.0,139.0,127.0,128.0,30.0,-93.0,-73.0,127.0,127.0,127.0,105.0,88.0,-104.0
128.0,127.0,125.0,128.0,126.0,139.0,127.0,128.0,30.0,-93.0,-73.0,127.0,127.0,127.0,105.0,88.0,-104.0
128.0,127.0,125.0,128.0,126.0,139.0,127.0,128.0,30.0,-93.0,-73.0,127.0,127.0,127.0,105.0,88.0,-104.0
128.0,127.0,125.0,128.0,126.0,139.0,127.0,128.0,30.0,-93.0,-73.0,127.0,127.0,127.0,105.0,88.0,-104.0
128.0,127.0,125.0,128.0,126.0,139.0,127.0,128.0,30.0,-93.0,-73.0,127.0,127.0,127.0,105.0,88.0,-104.0
128.0,128.0,124.0,128.0,127.0,140.0,127.0,128.0,30.0,-93.0,-73.0,127.0,127.0,127.0,105.0,88.0,-104.0
128.0,128.0,125.0,128.0,127.0,140.0,127.0,128.0,30.0,-93.0,-73.0,127.0,127.0,127.0,105.0,88.0,-104.0
128.0,128.0,125.0,128.0,126.0,140.0,127.0,128.0,30.0,-93.0,-73.0,127.0,127.0,127.0,105.0,88.0,-104.0
128.0,127.0,125.0,127.0,127.0,139.0,127.0,128.0,30.0,-93.0,-73.0,127.0,127.0,127.0,105.0,88.0,-104.0
128.0,126.0,126.0,128.0,127.0,137.0,127.0,128.0,30.0,-93.0,-73.0,127.0,127.0,127.0,105.0,88.0,-104.0
128.0,126.0,126.0,128.0,127.0,137.0,127.0,128.0,30.0,-93.0,-73.0,127.0,127.0,127.0,105.0,88.0,-104.0
128.0,126.0,126.0,128.0,127.0,137.0,127.0,128.0,30.0,-93.0,-73.0,127.0,127.0,127.0,105.0,88.0,-104.0
128.0,126.0,126.0,128.0,127.0,137.0,127.0,128.0,30.0,-93.0,-73.0,127.0,127.0,127.0,105.0,88.0,-104.0
128.0,126.0,126.0,128.0,127.0,137.0,127.0,128.0,30.0,-93.0,-73.0,127.0,127.0,127.0,105.0,88.0,-104.0
128.0,126.0,126.0,128.0,127.0,137.0,127.0,128.0,30.0,-93.0,-73.0,127.0,127.0,127.0,105.0,88.0,-104.0
128.0,126.0,126.0,128.0,127.0,137.0,127.0,128.0,30.0,-93.0,-73.0,127.0,127.0,127.0,105.0,88.0,-104.0
128.0,127.0,126.0,128.0,127.0,138.0,127.0,128.0,30.0,-93.0,-73.0,127.0,127.0,127.0,105.0,88.0,-104.0
128.0,126.0,126.0,128.0,127.0,137.0,127.0,128.0,30.0,-93.0,-73.0,127.0,127.0,127.0,105.0,88.0,-104.0
128.0,126.0,126.0,128.0,127.0,137.0,127.0,128.0,30.0,-93.0,-73.0,127.0,127.0,127.0,105.0,88.0,-104.0
127.0,127.0,126.0,128.0,127.0,139.0,127.0,128.0,30.0,-93.0,-73.0,127.0,127.0,127.0,105.0,88.0,-104.0
127.0,127.0,126.0,128.0,127.0,139.0,127.0,128.0,30.0,-93.0,-73.0,127.0,127.0,127.0,105.0,88.0,-104.0
127.0,127.0,125.0,128.0,127.0,139.0,127.0,128.0,30.0,-93.0,-73.0,127.0,127.0,127.0,105.0,88.0,-104.0
128.0,127.0,125.0,128.0,127.0,139.0,127.0,128.0,30.0,-93.0,-73.0,127.0,127.0,127.0,105.0,88.0,-104.0
127.0,127.0,125.0,128.0,127.0,139.0,127.0,128.0,30.0,-93.0,-73.0,127.0,127.0,127.0,105.0,88.0,-104.0
128.0,127.0,125.0,128.0,127.0,139.0,127.0,128.0,30.0,-93.0,-73.0,127.0,127.0,127.0,105.0,88.0,-104.0
127.0,127.0,125.0,128.0,127.0,139.0,127.0,128.0,30.0,-93.0,-73.0,127.0,127.0,127.0,105.0,88.0,-104.0
128.0,127.0,126.0,128.0,127.0,139.0,127.0,128.0,30.0,-93.0,-73.0,127.0,127.0,127.0,105.0,88.0,-104.0
127.0,127.0,126.0,128.0,127.0,138.0,127.0,128.0,30.0,-93.0,-73.0,127.0,127.0,127.0,105.0,88.0,-104.0
127.0,127.0,126.0,128.0,127.0,138.0,127.0,128.0,30.0,-93.0,-73.0,127.0,127.0,127.0,105.0,88.0,-104.0
127.0,128.0,125.0,128.0,127.0,140.0,127.0,128.0,30.0,-93.0,-74.0,127.0,127.0,127.0,105.0,88.0,-104.0
127.0,127.0,125.0,128.0,127.0,140.0,127.0,128.0,30.0,-93.0,-74.0,127.0,127.0,127.0,105.0,88.0,-104.0
127.0,127.0,125.0,128.0,127.0,140.0,127.0,128.0,30.0,-93.0,-74.0,127.0,127.0,127.0,105.0,88.0,-104.0
127.0,127.0,125.0,128.0,127.0,139.0,127.0,128.0,30.0,-93.0,-74.0,127.0,127.0,127.0,105.0,88.0,-104.0
127.0,127.0,125.0,128.0,127.0,139.0,127.0,128.0,30.0,-93.0,-74.0,127.0,127.0,127.0,105.0,88.0,-104.0
127.0,127.0,125.0,128.0,127.0,139.0,127.0,128.0,30.0,-93.0,-74.0,127.0,127.0,127.0,105.0,88.0,-104.0
127.0,127.0,126.0,128.0,127.0,139.0,127.0,128.0,30.0,-93.0,-74.0,127.0,127.0,127.0,105.0,88.0,-104.0
127.0,127.0,126.0,128.0,127.0,139.0,127.0,128.0,30.0,-93.0,-74.0,127.0,127.0,127.0,105.0,88.0,-104.0
127.0,127.0,125.0,128.0,127.0,139.0,127.0,128.0,30.0,-93.0,-74.0,127.0,127.0,127.0,105.0,88.0,-104.0
127.0,127.0,125.0,128.0,127.0,139.0,127.0,128.0,30.0,-93.0,-74.0,127.0,127.0,127.0,105.0,88.0,-104.0
128.0,128.0,122.0,129.0,127.0,138.0,127.0,128.0,30.0,-93.0,-74.0,127.0,127.0,127.0,105.0,88.0,-104.0
127.0,128.0,122.0,129.0,127.0,137.0,127.0,128.0,30.0,-93.0,-74.0,127.0,127.0,127.0,105.0,88.0,-104.0
127.0,128.0,122.0,129.0,127.0,137.0,127.0,128.0,30.0,-93.0,-74.0,127.0,127.0,127.0,105.0,88.0,-104.0
127.0,128.0,122.0,129.0,127.0,137.0,127.0,128.0,30.0,-93.0,-74.0,127.0,127.0,127.0,105.0,88.0,-104.0
127.0,128.0,122.0,129.0,127.0,137.0,127.0,128.0,30.0,-93.0,-74.0,127.0,127.0,127.0,105.0,88.0,-104.0
128.0,127.0,123.0,128.0,127.0,137.0,127.0,128.0,30.0,-93.0,-74.0,127.0,127.0,127.0,105.0,88.0,-104.0
128.0,127.0,123.0,129.0,127.0,137.0,127.0,128.0,30.0,-93.0,-74.0,127.0,127.0,127.0,105.0,88.0,-104.0
128.0,127.0,123.0,129.0,127.0,137.0,127.0,128.0,30.0,-93.0,-74.0,127.0,127.0,127.0,105.0,88.0,-104.0
127.0,127.0,123.0,129.0,127.0,137.0,127.0,128.0,30.0,-93.0,-74.0,127.0,127.0,127.0,105.0,88.0,-104.0
127.0,128.0,123.0,129.0,127.0,137.0,127.0,128.0,30.0,-93.0,-74.0,127.0,127.0,127.0,105.0,88.0,-104.0
127.0,128.0,124.0,128.0,127.0,136.0,127.0,128.0,30.0,-93.0,-74.0,127.0,127.0,127.0,105.0,88.0,-104.0
127.0,128.0,124.0,128.0,127.0,136.0,127.0,128.0,30.0,-93.0,-74.0,127.0,127.0,127.0,105.0,88.0,-104.0
127.0,128.0,124.0,128.0,127.0,136.0,126.0,128.0,30.0,-93.0,-74.0,127.0,127.0,127.0,105.0,88.0,-104.0
127.0,127.0,124.0,128.0,127.0,136.0,127.0,128.0,30.0,-93.0,-74.0,127.0,127.0,127.0,105.0,88.0,-104.0
127.0,127.0,124.0,128.0,127.0,136.0,127.0,128.0,30.0,-93.0,-74.0,127.0,127.0,127.0,105.0,88.0,-104.0
127.0,127.0,124.0,128.0,127.0,136.0,127.0,128.0,30.0,-93.0,-74.0,127.0,127.0,127.0,105.0,88.0,-104.0
127.0,127.0,124.0,128.0,127.0,135.0,127.0,128.0,30.0,-93.0,-74.0,127.0,127.0,127.0,105.0,88.0,-104.0
127.0,127.0,124.0,128.0,127.0,135.0,127.0,128.0,30.0,-93.0,-74.0,127.0,127.0,127.0,105.0,88.0,-104.0
127.0,128.0,124.0,128.0,127.0,136.0,127.0,128.0,30.0,-93.0,-74.0,127.0,127.0,127.0,105.0,88.0,-104.0
127.0,128.0,124.0,128.0,127.0,136.0,127.0,128.0,30.0,-93.0,-74.0,127.0,127.0,127.0,105.0,88.0,-104.0
128.0,127.0,124.0,128.0,127.0,138.0,127.0,128.0,30.0,-93.0,-74.0,127.0,127.0,127.0,105.0,88.0,-104.0
128.0,127.0,124.0,128.0,127.0,137.0,127.0,128.0,30.0,-93.0,-74.0,127.0,127.0,127.0,105.0,88.0,-104.0
127.0,127.0,124.0,128.0,127.0,137.0,127.0,128.0,30.0,-93.0,-74.0,127.0,127.0,127.0,105.0,88.0,-104.0
128.0,127.0,124.0,128.0,127.0,137.0,127.0,128.0,30.0,-93.0,-74.0,127.0,127.0,127.0,105.0,88.0,-104.0
128.0,127.0,124.0,128.0,127.0,137.0,127.0,128.0,30.0,-93.0,-74.0,127.0,127.0,127.0,105.0,88.0,-104.0
127.0,127.0,124.0,128.0,127.0,137.0,127.0,128.0,30.0,-93.0,-74.0,127.0,127.0,127.0,105.0,88.0,-104.0
128.0,127.0,124.0,128.0,127.0,137.0,127.0,128.0,30.0,-93.0,-74.0,127.0,127.0,127.0,105.0,88.0,-104.0
127.0,127.0,124.0,128.0,127.0,137.0,127.0,128.0,30.0,-93.0,-74.0,127.0,127.0,127.0,105.0,88.0,-104.0
128.0,127.0,124.0,128.0,127.0,138.0,127.0,128.0,30.0,-93.0,-74.0,127.0,127.0,127.0,105.0,88.0,-104.0
128.0,127.0,124.0,128.0,127.0,138.0,127.0,128.0,30.0,-93.0,-74.0,127.0,127.0,127.0,105.0,88.0,-104.0
