emg1,emg2,emg3,emg4,emg5,emg6,emg7,emg8,acc_x,acc_y,acc_z,gyro_x,gyro_y,gyro_z,angle_pitch,angle_roll,angle_yaw
127.0,127.0,140.0,117.0,127.0,110.0,127.0,128.0,14.0,-101.0,-91.0,127.0,127.0,127.0,104.0,84.0,-53.0
127.0,128.0,140.0,118.0,127.0,109.0,127.0,128.0,14.0,-101.0,-91.0,127.0,127.0,127.0,104.0,84.0,-53.0
127.0,128.0,140.0,118.0,127.0,110.0,127.0,129.0,14.0,-101.0,-91.0,127.0,127.0,127.0,104.0,84.0,-53.0
127.0,128.0,140.0,119.0,127.0,109.0,127.0,129.0,14.0,-101.0,-91.0,127.0,127.0,127.0,104.0,84.0,-53.0
127.0,128.0,139.0,119.0,127.0,108.0,127.0,129.0,14.0,-101.0,-91.0,127.0,127.0,127.0,104.0,84.0,-53.0
127.0,128.0,139.0,119.0,127.0,107.0,127.0,129.0,14.0,-101.0,-91.0,127.0,127.0,127.0,104.0,84.0,-53.0
127.0,128.0,139.0,119.0,127.0,107.0,127.0,128.0,14.0,-101.0,-91.0,127.0,127.0,127.0,104.0,84.0,-53.0
127.0,128.0,138.0,119.0,128.0,106.0,127.0,128.0,14.0,-101.0,-91.0,127.0,127.0,127.0,104.0,84.0,-53.0
128.0,128.0,133.0,122.0,127.0,94.0,127.0,127.0,14.0,-102.0,-91.0,127.0,127.0,127.0,104.0,84.0,-53.0
127.0,127.0,136.0,120.0,127.0,91.0,127.0,128.0,14.0,-102.0,-91.0,127.0,127.0,127.0,104.0,84.0,-53.0
127.0,127.0,135.0,121.0,128.0,91.0,127.0,128.0,14.0,-102.0,-91.0,127.0,127.0,127.0,104.0,84.0,-53.0
127.0,128.0,135.0,122.0,128.0,93.0,127.0,128.0,14.0,-102.0,-91.0,127.0,127.0,127.0,104.0,84.0,-53.0
128.0,128.0,134.0,122.0,128.0,93.0,127.0,128.0,14.0,-102.0,-91.0,127.0,127.0,127.0,104.0,84.0,-53.0
128.0,128.0,134.0,123.0,128.0,94.0,127.0,128.0,14.0,-102.0,-91.0,127.0,127.0,127.0,104.0,84.0,-53.0
128.0,128.0,134.0,123.0,128.0,94.0,127.0,128.0,14.0,-102.0,-91.0,127.0,127.0,127.0,104.0,84.0,-53.0
128.0,128.0,133.0,123.0,128.0,94.0,127.0,128.0,14.0,-102.0,-91.0,127.0,127.0,127.0,104.0,84.0,-53.0
128.0,128.0,133.0,122.0,127.0,94.0,127.0,128.0,14.0,-102.0,-91.0,127.0,127.0,127.0,104.0,84.0,-53.0
128.0,128.0,133.0,122.0,127.0,94.0,127.0,127.0,14.0,-102.0,-91.0,127.0,127.0,127.0,104.0,84.0,-53.0
126.0,127.0,132.0,116.0,127.0,115.0,127.0,127.0,14.0,-102.0,-91.0,127.0,127.0,127.0,104.0,84.0,-53.0
126.0,127.0,131.0,115.0,127.0,115.0,127.0,127.0,14.0,-102.0,-91.0,127.0,127.0,127.0,104.0,84.0,-53.0
126.0,128.0,131.0,115.0,127.0,117.0,127.0,126.0,14.0,-102.0,-91.0,127.0,127.0,127.0,104.0,84.0,-53.0
126.0,128.0,130.0,114.0,127.0,117.0,127.0,126.0,14.0,-102.0,-91.0,127.0,127.0,127.0,104.0,84.0,-53.0
126.0,128.0,130.0,113.0,127.0,117.0,127.0,126.0,14.0,-102.0,-91.0,127.0,127.0,127.0,104.0,84.0,-53.0
127.0,128.0,129.0,113.0,127.0,117.0,127.0,126.0,14.0,-102.0,-91.0,127.0,127.0,127.0,104.0,84.0,-53.0
127.0,128.0,129.0,113.0,127.0,117.0,127.0,126.0,14.0,-102.0,-91.0,127.0,127.0,127.0,104.0,84.0,-53.0
127.0,128.0,129.0,113.0,127.0,117.0,127.0,126.0,14.0,-102.0,-91.0,127.0,127.0,127.0,104.0,84.0,-53.0
127.0,128.0,129.0,113.0,127.0,117.0,127.0,126.0,14.0,-102.0,-91.0,127.0,127.0,127.0,104.0,84.0,-53.0
127.0,128.0,129.0,114.0,126.0,117.0,127.0,126.0,14.0,-102.0,-91.0,127.0,127.0,127.0,104.0,84.0,-53.0
126.0,127.0,131.0,120.0,128.0,122.0,127.0,124.0,14.0,-102.0,-91.0,127.0,127.0,127.0,104.0,84.0,-53.0
126.0,127.0,131.0,120.0,128.0,122.0,127.0,123.0,14.0,-102.0,-91.0,127.0,127.0,127.0,104.0,84.0,-53.0
127.0,127.0,131.0,120.0,128.0,122.0,127.0,123.0,14.0,-102.0,-91.0,127.0,127.0,127.0,104.0,84.0,-53.0
127.0,127.0,131.0,120.0,128.0,122.0,127.0,124.0,14.0,-102.0,-91.0,127.0,127.0,127.0,104.0,84.0,-53.0
127.0,127.0,130.0,120.0,128.0,123.0,127.0,124.0,14.0,-102.0,-91.0,127.0,127.0,127.0,104.0,84.0,-53.0
127.0,128.0,130.0,120.0,128.0,124.0,127.0,125.0,14.0,-102.0,-91.0,127.0,127.0,127.0,104.0,84.0,-53.0
127.0,128.0,129.0,120.0,128.0,124.0,127.0,127.0,14.0,-102.0,-91.0,127.0,127.0,127.0,104.0,84.0,-53.0
127.0,128.0,129.0,120.0,128.0,123.0,127.0,128.0,14.0,-102.0,-91.0,127.0,127.0,127.0,104.0,84.0,-53.0
127.0,128.0,129.0,120.0,128.0,123.0,127.0,129.0,14.0,-102.0,-91.0,127.0,127.0,127.0,104.0,84.0,-53.0
126.0,126.0,131.0,120.0,128.0,123.0,127.0,124.0,14.0,-102.0,-91.0,127.0,127.0,127.0,104.0,84.0,-53.0
126.0,128.0,129.0,116.0,127.0,127.0,127.0,129.0,14.0,-102.0,-91.0,127.0,127.0,127.0,104.0,84.0,-53.0
126.0,128.0,128.0,117.0,127.0,127.0,127.0,129.0,14.0,-102.0,-91.0,127.0,127.0,127.0,104.0,84.0,-53.0
126.0,128.0,128.0,118.0,127.0,126.0,127.0,129.0,14.0,-102.0,-91.0,127.0,127.0,127.0,104.0,84.0,-53.0
126.0,128.0,128.0,119.0,127.0,126.0,127.0,129.0,14.0,-102.0,-91.0,127.0,127.0,127.0,104.0,84.0,-53.0
126.0,128.0,128.0,120.0,127.0,125.0,127.0,128.0,14.0,-102.0,-91.0,127.0,127.0,127.0,104.0,84.0,-53.0
126.0,128.0,128.0,120.0,128.0,124.0,127.0,128.0,14.0,-102.0,-91.0,127.0,127.0,127.0,104.0,84.0,-53.0
126.0,128.0,128.0,120.0,128.0,124.0,127.0,129.0,14.0,-102.0,-91.0,127.0,127.0,127.0,104.0,84.0,-53.0
126.0,128.0,128.0,120.0,128.0,124.0,127.0,129.0,14.0,-102.0,-91.0,127.0,127.0,127.0,104.0,84.0,-53.0
126.0,127.0,130.0,115.0,127.0,127.0,127.0,129.0,14.0,-102.0,-91.0,127.0,127.0,127.0,104.0,84.0,-53.0
126.0,128.0,129.0,115.0,127.0,126.0,127.0,129.0,14.0,-102.0,-91.0,127.0,127.0,127.0,104.0,84.0,-53.0
126.0,128.0,127.0,116.0,126.0,123.0,127.0,128.0,14.0,-103.0,-91.0,127.0,127.0,127.0,104.0,84.0,-53.0
126.0,128.0,127.0,116.0,127.0,123.0,127.0,128.0,14.0,-103.0,-91.0,127.0,127.0,127.0,104.0,84.0,-53.0
126.0,128.0,127.0,116.0,127.0,123.0,127.0,128.0,14.0,-103.0,-91.0,127.0,127.0,127.0,104.0,84.0,-53.0
126.0,128.0,127.0,116.0,127.0,124.0,127.0,129.0,14.0,-103.0,-91.0,127.0,127.0,127.0,104.0,84.0,-53.0
126.0,128.0,126.0,117.0,127.0,124.0,128.0,129.0,14.0,-103.0,-91.0,127.0,127.0,127.0,104.0,84.0,-53.0
126.0,128.0,126.0,117.0,127.0,124.0,128.0,129.0,14.0,-103.0,-91.0,127.0,127.0,127.0,104.0,84.0,-53.0
126.0,127.0,128.0,116.0,126.0,124.0,127.0,127.0,14.0,-103.0,-91.0,127.0,127.0,127.0,104.0,84.0,-53.0
126.0,127.0,128.0,116.0,126.0,125.0,127.0,128.0,14.0,-103.0,-91.0,127.0,127.0,127.0,104.0,84.0,-53.0
126.0,128.0,128.0,116.0,126.0,125.0,127.0,128.0,14.0,-103.0,-91.0,127.0,127.0,127.0,104.0,84.0,-53.0
126.0,128.0,128.0,116.0,126.0,124.0,127.0,128.0,14.0,-103.0,-91.0,127.0,127.0,127.0,104.0,84.0,-53.0
127.0,128.0,128.0,122.0,127.0,123.0,127.0,129.0,14.0,-103.0,-91.0,127.0,127.0,127.0,104.0,84.0,-53.0
126.0,127.0,127.0,121.0,127.0,123.0,127.0,128.0,14.0,-103.0,-91.0,127.0,127.0,127.0,104.0,84.0,-53.0
126.0,128.0,127.0,121.0,127.0,124.0,127.0,128.0,14.0,-103.0,-91.0,127.0,127.0,127.0,104.0,84.0,-53.0
126.0,127.0,127.0,120.0,127.0,124.0,127.0,127.0,14.0,-103.0,-91.0,127.0,127.0,127.0,104.0,84.0,-53.0
126.0,127.0,126.0,120.0,127.0,124.0,127.0,127.0,14.0,-103.0,-91.0,127.0,127.0,127.0,104.0,84.0,-53.0
127.0,128.0,129.0,119.0,127.0,123.0,127.0,128.0,14.0,-103.0,-91.0,127.0,127.0,127.0,104.0,84.0,-53.0
127.0,128.0,129.0,120.0,127.0,124.0,127.0,129.0,14.0,-103.0,-91.0,127.0,127.0,127.0,104.0,84.0,-53.0
127.0,129.0,128.0,121.0,127.0,124.0,127.0,129.0,14.0,-103.0,-91.0,127.0,127.0,127.0,104.0,84.0,-53.0
127.0,129.0,128.0,122.0,128.0,123.0,127.0,129.0,14.0,-103.0,-91.0,127.0,127.0,127.0,104.0,84.0,-53.0
127.0,128.0,128.0,122.0,127.0,123.0,127.0,129.0,14.0,-103.0,-91.0,127.0,127.0,127.0,104.0,84.0,-53.0
126.0,128.0,127.0,118.0,126.0,125.0,126.0,128.0,14.0,-103.0,-91.0,127.0,127.0,127.0,104.0,84.0,-53.0
126.0,128.0,126.0,120.0,127.0,126.0,126.0,128.0,14.0,-103.0,-91.0,127.0,127.0,127.0,104.0,84.0,-53.0
126.0,129.0,126.0,121.0,127.0,127.0,127.0,128.0,14.0,-103.0,-91.0,127.0,127.0,127.0,104.0,84.0,-53.0
127.0,129.0,125.0,122.0,127.0,126.0,127.0,128.0,14.0,-103.0,-91.0,127.0,127.0,127.0,104.0,84.0,-53.0
126.0,126.0,130.0,116.0,125.0,124.0,126.0,126.0,14.0,-103.0,-91.0,127.0,127.0,127.0,104.0,84.0,-53.0
125.0,127.0,130.0,115.0,126.0,126.0,126.0,126.0,14.0,-103.0,-91.0,127.0,127.0,127.0,104.0,84.0,-53.0
125.0,127.0,129.0,115.0,126.0,126.0,126.0,126.0,14.0,-103.0,-91.0,127.0,127.0,127.0,104.0,84.0,-53.0
125.0,127.0,129.0,116.0,126.0,126.0,126.0,126.0,14.0,-103.0,-91.0,127.0,127.0,127.0,104.0,84.0,-53.0
125.0,127.0,128.0,116.0,126.0,125.0,126.0,126.0,14.0,-103.0,-91.0,127.0,127.0,127.0,104.0,84.0,-53.0
125.0,127.0,128.0,117.0,126.0,125.0,126.0,127.0,14.0,-103.0,-91.0,127.0,127.0,127.0,104.0,84.0,-53.0
127.0,128.0,125.0,124.0,128.0,128.0,127.0,128.0,13.0,-103.0,-91.0,127.0,127.0,127.0,104.0,84.0,-53.0
127.0,129.0,124.0,125.0,128.0,129.0,127.0,129.0,13.0,-103.0,-91.0,127.0,127.0,127.0,104.0,84.0,-53.0
127.0,129.0,124.0,125.0,128.0,128.0,127.0,129.0,13.0,-103.0,-91.0,127.0,127.0,127.0,104.0,84.0,-53.0
127.0,126.0,127.0,120.0,127.0,127.0,127.0,128.0,13.0,-103.0,-91.0,127.0,127.0,127.0,104.0,84.0,-53.0
127.0,127.0,126.0,120.0,127.0,128.0,127.0,128.0,13.0,-103.0,-91.0,127.0,127.0,127.0,104.0,84.0,-53.0
127.0,127.0,126.0,120.0,127.0,129.0,127.0,128.0,13.0,-103.0,-91.0,127.0,127.0,127.0,104.0,84.0,-53.0
127.0,128.0,126.0,121.0,127.0,128.0,127.0,128.0,13.0,-103.0,-91.0,127.0,127.0,127.0,104.0,84.0,-53.0
127.0,128.0,126.0,121.0,128.0,128.0,127.0,128.0,13.0,-103.0,-91.0,127.0,127.0,127.0,104.0,84.0,-53.0
127.0,128.0,125.0,122.0,128.0,127.0,127.0,129.0,13.0,-103.0,-91.0,127.0,127.0,127.0,104.0,84.0,-53.0
127.0,128.0,125.0,123.0,128.0,127.0,127.0,129.0,13.0,-103.0,-91.0,127.0,127.0,127.0,104.0,84.0,-53.0
127.0,129.0,124.0,123.0,127.0,127.0,127.0,127.0,13.0,-103.0,-91.0,127.0,127.0,127.0,104.0,84.0,-53.0
127.0,129.0,124.0,123.0,127.0,127.0,127.0,127.0,13.0,-103.0,-91.0,127.0,127.0,127.0,104.0,84.0,-53.0
127.0,127.0,128.0,122.0,127.0,125.0,127.0,127.0,13.0,-103.0,-91.0,127.0,127.0,127.0,104.0,84.0,-53.0
127.0,128.0,127.0,123.0,127.0,127.0,127.0,127.0,13.0,-103.0,-91.0,127.0,127.0,127.0,104.0,84.0,-53.0
127.0,128.0,127.0,123.0,127.0,127.0,127.0,128.0,13.0,-103.0,-91.0,127.0,127.0,127.0,104.0,84.0,-53.0
127.0,128.0,127.0,123.0,127.0,126.0,127.0,128.0,13.0,-103.0,-91.0,127.0,127.0,127.0,104.0,84.0,-53.0
127.0,128.0,126.0,123.0,127.0,126.0,127.0,128.0,13.0,-103.0,-91.0,127.0,127.0,127.0,104.0,84.0,-53.0
127.0,128.0,126.0,123.0,127.0,126.0,127.0,128.0,13.0,-103.0,-91.0,127.0,127.0,127.0,104.0,84.0,-53.0
127.0,129.0,126.0,123.0,127.0,125.0,127.0,127.0,13.0,-103.0,-91.0,127.0,127.0,127.0,104.0,84.0,-53.0
127.0,129.0,125.0,123.0,127.0,126.0,127.0,127.0,13.0,-103.0,-91.0,127.0,127.0,127.0,104.0,84.0,-53.0
125.0,127.0,124.0,118.0,126.0,129.0,127.0,129.0,13.0,-103.0,-90.0,127.0,127.0,127.0,104.0,84.0,-53.0
126.0,127.0,128.0,120.0,128.0,127.0,127.0,126.0,13.0,-103.0,-90.0,127.0,127.0,127.0,104.0,84.0,-53.0
126.0,127.0,127.0,120.0,128.0,128.0,127.0,126.0,13.0,-103.0,-90.0,127.0,127.0,127.0,104.0,84.0,-53.0
126.0,128.0,127.0,120.0,128.0,129.0,127.0,127.0,13.0,-103.0,-90.0,127.0,127.0,127.0,104.0,84.0,-53.0
126.0,128.0,126.0,120.0,128.0,129.0,127.0,127.0,13.0,-103.0,-90.0,127.0,127.0,127.0,104.0,84.0,-53.0
126.0,127.0,126.0,120.0,127.0,128.0,127.0,128.0,13.0,-103.0,-90.0,127.0,127.0,127.0,104.0,84.0,-53.0
125.0,127.0,126.0,120.0,127.0,128.0,127.0,129.0,13.0,-103.0,-90.0,127.0,127.0,127.0,104.0,84.0,-53.0
125.0,127.0,126.0,120.0,127.0,128.0,127.0,129.0,13.0,-103.0,-90.0,127.0,127.0,127.0,104.0,84.0,-53.0
125.0,127.0,125.0,120.0,127.0,128.0,127.0,129.0,13.0,-103.0,-90.0,127.0,127.0,127.0,104.0,84.0,-53.0
125.0,128.0,125.0,119.0,127.0,129.0,127.0,129.0,13.0,-103.0,-90.0,127.0,127.0,127.0,104.0,84.0,-53.0
127.0,127.0,128.0,121.0,127.0,127.0,127.0,129.0,13.0,-103.0,-90.0,127.0,127.0,127.0,104.0,84.0,-53.0
127.0,127.0,127.0,121.0,127.0,126.0,127.0,129.0,13.0,-103.0,-90.0,127.0,127.0,127.0,104.0,84.0,-53.0
127.0,127.0,127.0,121.0,127.0,126.0,127.0,129.0,13.0,-103.0,-90.0,127.0,127.0,127.0,104.0,84.0,-53.0
127.0,127.0,127.0,121.0,127.0,126.0,127.0,129.0,13.0,-103.0,-90.0,127.0,127.0,127.0,104.0,84.0,-53.0
127.0,127.0,127.0,121.0,127.0,125.0,127.0,128.0,13.0,-103.0,-90.0,127.0,127.0,127.0,104.0,84.0,-53.0
127.0,127.0,127.0,121.0,127.0,125.0,127.0,128.0,13.0,-103.0,-90.0,127.0,127.0,127.0,104.0,84.0,-53.0
127.0,127.0,126.0,121.0,127.0,125.0,127.0,128.0,13.0,-103.0,-90.0,127.0,127.0,127.0,104.0,84.0,-53.0
127.0,127.0,126.0,121.0,127.0,124.0,127.0,128.0,13.0,-103.0,-90.0,127.0,127.0,127.0,104.0,84.0,-53.0
127.0,127.0,126.0,121.0,127.0,124.0,127.0,128.0,13.0,-103.0,-90.0,127.0,127.0,127.0,104.0,84.0,-53.0
127.0,127.0,126.0,121.0,127.0,124.0,127.0,128.0,13.0,-103.0,-90.0,127.0,127.0,127.0,104.0,84.0,-53.0
126.0,126.0,128.0,115.0,126.0,128.0,126.0,127.0,13.0,-103.0,-90.0,127.0,127.0,127.0,104.0,83.0,-53.0
125.0,125.0,128.0,115.0,126.0,128.0,126.0,127.0,13.0,-103.0,-90.0,127.0,127.0,127.0,104.0,83.0,-53.0
125.0,125.0,127.0,116.0,126.0,128.0,126.0,127.0,13.0,-103.0,-90.0,127.0,127.0,127.0,104.0,83.0,-53.0
125.0,126.0,127.0,116.0,126.0,127.0,126.0,127.0,13.0,-103.0,-90.0,127.0,127.0,127.0,104.0,83.0,-53.0
125.0,126.0,126.0,117.0,126.0,129.0,126.0,127.0,13.0,-103.0,-90.0,127.0,127.0,127.0,104.0,83.0,-53.0
125.0,126.0,126.0,118.0,126.0,129.0,126.0,127.0,13.0,-103.0,-90.0,127.0,127.0,127.0,104.0,83.0,-53.0
125.0,126.0,126.0,119.0,126.0,128.0,126.0,127.0,13.0,-103.0,-90.0,127.0,127.0,127.0,104.0,83.0,-53.0
125.0,126.0,126.0,119.0,125.0,128.0,126.0,127.0,13.0,-103.0,-90.0,127.0,127.0,127.0,104.0,83.0,-53.0
126.0,126.0,125.0,120.0,125.0,128.0,126.0,127.0,13.0,-103.0,-90.0,127.0,127.0,127.0,104.0,83.0,-53.0
126.0,126.0,128.0,116.0,126.0,129.0,126.0,127.0,13.0,-103.0,-90.0,127.0,127.0,127.0,104.0,83.0,-53.0
126.0,127.0,126.0,123.0,127.0,128.0,126.0,126.0,13.0,-103.0,-90.0,127.0,127.0,127.0,104.0,83.0,-53.0
126.0,127.0,126.0,123.0,127.0,128.0,126.0,126.0,13.0,-103.0,-90.0,127.0,127.0,127.0,104.0,83.0,-53.0
126.0,127.0,126.0,124.0,127.0,127.0,126.0,126.0,13.0,-103.0,-90.0,127.0,127.0,127.0,104.0,83.0,-53.0
126.0,127.0,125.0,124.0,128.0,129.0,126.0,127.0,13.0,-103.0,-90.0,127.0,127.0,127.0,104.0,83.0,-53.0
126.0,128.0,125.0,125.0,128.0,129.0,126.0,128.0,13.0,-103.0,-90.0,127.0,127.0,127.0,104.0,83.0,-53.0
126.0,128.0,125.0,125.0,128.0,128.0,127.0,128.0,13.0,-103.0,-90.0,127.0,127.0,127.0,104.0,83.0,-53.0
126.0,128.0,125.0,124.0,128.0,128.0,127.0,128.0,13.0,-103.0,-90.0,127.0,127.0,127.0,104.0,83.0,-53.0
126.0,128.0,125.0,124.0,128.0,128.0,127.0,128.0,13.0,-103.0,-90.0,127.0,127.0,127.0,104.0,83.0,-53.0
126.0,127.0,127.0,121.0,127.0,129.0,126.0,126.0,13.0,-103.0,-90.0,127.0,127.0,127.0,104.0,83.0,-53.0
126.0,127.0,126.0,122.0,127.0,128.0,126.0,126.0,13.0,-103.0,-90.0,127.0,127.0,127.0,104.0,83.0,-53.0
128.0,128.0,126.0,123.0,128.0,128.0,128.0,132.0,13.0,-102.0,-90.0,127.0,127.0,127.0,104.0,83.0,-53.0
128.0,128.0,126.0,122.0,128.0,128.0,128.0,132.0,13.0,-102.0,-90.0,127.0,127.0,127.0,104.0,83.0,-53.0
128.0,128.0,125.0,122.0,128.0,129.0,127.0,132.0,13.0,-102.0,-90.0,127.0,127.0,127.0,104.0,83.0,-53.0
128.0,128.0,125.0,121.0,128.0,129.0,127.0,131.0,13.0,-102.0,-90.0,127.0,127.0,127.0,104.0,83.0,-53.0
128.0,128.0,125.0,120.0,127.0,129.0,127.0,131.0,13.0,-102.0,-90.0,127.0,127.0,127.0,104.0,83.0,-53.0
128.0,128.0,124.0,119.0,127.0,128.0,127.0,131.0,13.0,-102.0,-90.0,127.0,127.0,127.0,104.0,83.0,-53.0
127.0,127.0,124.0,118.0,127.0,128.0,127.0,131.0,13.0,-102.0,-90.0,127.0,127.0,127.0,104.0,83.0,-53.0
128.0,128.0,127.0,123.0,128.0,130.0,127.0,132.0,13.0,-102.0,-90.0,127.0,127.0,127.0,104.0,83.0,-53.0
128.0,128.0,127.0,123.0,128.0,129.0,127.0,132.0,13.0,-102.0,-90.0,127.0,127.0,127.0,104.0,83.0,-53.0
128.0,128.0,127.0,123.0,128.0,128.0,128.0,132.0,13.0,-102.0,-90.0,127.0,127.0,127.0,104.0,83.0,-53.0
127.0,127.0,126.0,122.0,128.0,127.0,127.0,128.0,14.0,-102.0,-89.0,127.0,127.0,127.0,104.0,83.0,-53.0
127.0,128.0,125.0,122.0,128.0,128.0,127.0,128.0,14.0,-102.0,-89.0,127.0,127.0,127.0,104.0,83.0,-53.0
127.0,128.0,125.0,122.0,128.0,129.0,127.0,128.0,14.0,-102.0,-89.0,127.0,127.0,127.0,104.0,83.0,-53.0
127.0,128.0,125.0,122.0,127.0,128.0,127.0,128.0,14.0,-102.0,-89.0,127.0,127.0,127.0,104.0,83.0,-53.0
126.0,128.0,125.0,122.0,127.0,128.0,127.0,128.0,14.0,-102.0,-89.0,127.0,127.0,127.0,104.0,83.0,-53.0
126.0,128.0,124.0,122.0,127.0,128.0,127.0,128.0,14.0,-102.0,-89.0,127.0,127.0,127.0,104.0,83.0,-53.0
127.0,127.0,127.0,121.0,128.0,129.0,127.0,128.0,14.0,-102.0,-89.0,127.0,127.0,127.0,104.0,83.0,-53.0
127.0,127.0,127.0,121.0,128.0,129.0,127.0,128.0,14.0,-102.0,-89.0,127.0,127.0,127.0,104.0,83.0,-53.0
127.0,127.0,127.0,121.0,128.0,128.0,127.0,128.0,14.0,-102.0,-89.0,127.0,127.0,127.0,104.0,83.0,-53.0
127.0,127.0,126.0,121.0,128.0,128.0,127.0,128.0,14.0,-102.0,-89.0,127.0,127.0,127.0,104.0,83.0,-53.0
126.0,128.0,125.0,123.0,127.0,126.0,127.0,129.0,14.0,-102.0,-89.0,127.0,127.0,127.0,104.0,83.0,-53.0
127.0,129.0,125.0,123.0,128.0,127.0,127.0,129.0,14.0,-102.0,-89.0,127.0,127.0,127.0,104.0,83.0,-53.0
127.0,129.0,124.0,123.0,128.0,126.0,127.0,130.0,14.0,-102.0,-89.0,127.0,127.0,127.0,104.0,83.0,-53.0
127.0,129.0,124.0,123.0,128.0,126.0,127.0,130.0,14.0,-102.0,-89.0,127.0,127.0,127.0,104.0,83.0,-53.0
126.0,128.0,124.0,123.0,128.0,125.0,127.0,130.0,14.0,-102.0,-89.0,127.0,127.0,127.0,104.0,83.0,-53.0
126.0,127.0,127.0,122.0,127.0,127.0,127.0,129.0,14.0,-102.0,-89.0,127.0,127.0,127.0,104.0,83.0,-53.0
126.0,127.0,127.0,122.0,127.0,127.0,127.0,129.0,14.0,-102.0,-89.0,127.0,127.0,127.0,104.0,83.0,-53.0
126.0,127.0,127.0,123.0,127.0,126.0,127.0,129.0,14.0,-102.0,-89.0,127.0,127.0,127.0,104.0,83.0,-53.0
127.0,128.0,127.0,123.0,127.0,126.0,127.0,129.0,14.0,-102.0,-89.0,127.0,127.0,127.0,104.0,83.0,-53.0
127.0,128.0,126.0,123.0,127.0,125.0,127.0,129.0,14.0,-102.0,-89.0,127.0,127.0,127.0,104.0,83.0,-53.0
126.0,127.0,126.0,120.0,126.0,128.0,127.0,128.0,14.0,-102.0,-89.0,127.0,127.0,127.0,104.0,83.0,-53.0
126.0,127.0,125.0,120.0,126.0,127.0,127.0,128.0,14.0,-102.0,-89.0,127.0,127.0,127.0,104.0,83.0,-53.0
126.0,127.0,125.0,120.0,126.0,127.0,127.0,128.0,14.0,-102.0,-89.0,127.0,127.0,127.0,104.0,83.0,-53.0
126.0,127.0,125.0,120.0,126.0,127.0,127.0,128.0,14.0,-102.0,-89.0,127.0,127.0,127.0,104.0,83.0,-53.0
126.0,126.0,127.0,120.0,126.0,128.0,126.0,127.0,14.0,-102.0,-89.0,127.0,127.0,127.0,104.0,83.0,-53.0
126.0,126.0,127.0,120.0,126.0,128.0,126.0,127.0,14.0,-102.0,-89.0,127.0,127.0,127.0,104.0,83.0,-53.0
126.0,126.0,127.0,120.0,126.0,127.0,126.0,128.0,14.0,-102.0,-89.0,127.0,127.0,127.0,104.0,83.0,-53.0
126.0,126.0,127.0,120.0,126.0,127.0,127.0,127.0,14.0,-102.0,-89.0,127.0,127.0,127.0,104.0,83.0,-53.0
126.0,126.0,127.0,120.0,126.0,127.0,127.0,128.0,14.0,-102.0,-89.0,127.0,127.0,127.0,104.0,83.0,-53.0
126.0,127.0,126.0,120.0,126.0,127.0,127.0,128.0,14.0,-102.0,-89.0,127.0,127.0,127.0,104.0,83.0,-53.0
126.0,127.0,128.0,122.0,127.0,127.0,127.0,128.0,15.0,-102.0,-89.0,127.0,127.0,127.0,104.0,83.0,-53.0
126.0,127.0,127.0,122.0,127.0,127.0,127.0,128.0,15.0,-102.0,-89.0,127.0,127.0,127.0,104.0,83.0,-53.0
126.0,127.0,128.0,122.0,127.0,126.0,127.0,128.0,15.0,-102.0,-89.0,127.0,127.0,127.0,104.0,83.0,-53.0
127.0,127.0,130.0,122.0,127.0,128.0,126.0,128.0,15.0,-102.0,-89.0,127.0,127.0,127.0,104.0,83.0,-53.0
127.0,127.0,129.0,122.0,127.0,127.0,127.0,128.0,15.0,-102.0,-89.0,127.0,127.0,127.0,104.0,83.0,-53.0
127.0,127.0,129.0,122.0,127.0,127.0,127.0,128.0,15.0,-102.0,-89.0,127.0,127.0,127.0,104.0,83.0,-53.0
126.0,127.0,129.0,122.0,127.0,126.0,127.0,128.0,15.0,-102.0,-89.0,127.0,127.0,127.0,104.0,83.0,-53.0
126.0,127.0,129.0,122.0,127.0,126.0,127.0,128.0,15.0,-102.0,-89.0,127.0,127.0,127.0,104.0,83.0,-53.0
126.0,127.0,128.0,122.0,127.0,126.0,127.0,128.0,15.0,-102.0,-89.0,127.0,127.0,127.0,104.0,83.0,-53.0
126.0,128.0,128.0,122.0,127.0,127.0,127.0,128.0,15.0,-102.0,-89.0,127.0,127.0,127.0,104.0,83.0,-53.0
126.0,126.0,132.0,122.0,127.0,124.0,127.0,128.0,15.0,-102.0,-89.0,127.0,127.0,127.0,104.0,83.0,-53.0
126.0,127.0,132.0,123.0,127.0,125.0,127.0,128.0,15.0,-102.0,-89.0,127.0,127.0,127.0,104.0,83.0,-53.0
126.0,125.0,133.0,115.0,126.0,126.0,126.0,128.0,15.0,-102.0,-89.0,127.0,127.0,127.0,104.0,83.0,-53.0
126.0,125.0,133.0,115.0,126.0,126.0,126.0,128.0,15.0,-102.0,-89.0,127.0,127.0,127.0,104.0,83.0,-53.0
126.0,125.0,133.0,115.0,126.0,125.0,126.0,128.0,15.0,-102.0,-89.0,127.0,127.0,127.0,104.0,83.0,-53.0
126.0,125.0,133.0,116.0,126.0,125.0,126.0,128.0,15.0,-102.0,-89.0,127.0,127.0,127.0,104.0,83.0,-53.0
126.0,125.0,133.0,117.0,126.0,125.0,126.0,128.0,15.0,-102.0,-89.0,127.0,127.0,127.0,104.0,83.0,-53.0
126.0,125.0,133.0,119.0,126.0,124.0,127.0,128.0,15.0,-102.0,-89.0,127.0,127.0,127.0,104.0,83.0,-53.0
126.0,125.0,133.0,120.0,126.0,124.0,127.0,128.0,15.0,-102.0,-89.0,127.0,127.0,127.0,104.0,83.0,-53.0
126.0,126.0,132.0,121.0,126.0,124.0,127.0,128.0,15.0,-102.0,-89.0,127.0,127.0,127.0,104.0,83.0,-53.0
127.0,128.0,131.0,123.0,127.0,127.0,127.0,128.0,15.0,-102.0,-89.0,127.0,127.0,127.0,104.0,83.0,-53.0
127.0,127.0,134.0,121.0,126.0,127.0,126.0,128.0,15.0,-102.0,-89.0,127.0,127.0,127.0,104.0,83.0,-53.0
127.0,127.0,134.0,121.0,127.0,128.0,126.0,128.0,15.0,-102.0,-89.0,127.0,127.0,127.0,104.0,83.0,-53.0
127.0,127.0,134.0,121.0,127.0,127.0,126.0,128.0,15.0,-102.0,-89.0,127.0,127.0,127.0,104.0,83.0,-53.0
127.0,127.0,133.0,121.0,127.0,129.0,127.0,128.0,15.0,-102.0,-89.0,127.0,127.0,127.0,104.0,83.0,-53.0
127.0,128.0,132.0,121.0,127.0,129.0,127.0,128.0,15.0,-102.0,-89.0,127.0,127.0,127.0,104.0,83.0,-53.0
127.0,128.0,132.0,122.0,127.0,128.0,127.0,128.0,15.0,-102.0,-89.0,127.0,127.0,127.0,104.0,83.0,-53.0
127.0,128.0,132.0,122.0,127.0,128.0,127.0,128.0,15.0,-102.0,-89.0,127.0,127.0,127.0,104.0,83.0,-53.0
127.0,128.0,132.0,122.0,127.0,128.0,127.0,128.0,15.0,-102.0,-89.0,127.0,127.0,127.0,104.0,83.0,-53.0
127.0,128.0,131.0,123.0,127.0,127.0,127.0,128.0,15.0,-102.0,-89.0,127.0,127.0,127.0,104.0,83.0,-53.0
127.0,127.0,134.0,120.0,126.0,128.0,127.0,128.0,14.0,-102.0,-89.0,127.0,127.0,127.0,104.0,83.0,-53.0
127.0,127.0,134.0,120.0,126.0,128.0,127.0,128.0,14.0,-102.0,-89.0,127.0,127.0,127.0,104.0,83.0,-53.0
127.0,127.0,134.0,119.0,126.0,128.0,127.0,128.0,14.0,-102.0,-89.0,127.0,127.0,127.0,104.0,83.0,-53.0
127.0,127.0,133.0,119.0,126.0,129.0,127.0,128.0,14.0,-102.0,-89.0,127.0,127.0,127.0,104.0,83.0,-53.0
127.0,128.0,133.0,119.0,126.0,129.0,127.0,128.0,14.0,-102.0,-89.0,127.0,127.0,127.0,104.0,83.0,-53.0
127.0,127.0,133.0,119.0,126.0,128.0,127.0,128.0,14.0,-102.0,-89.0,127.0,127.0,127.0,104.0,83.0,-53.0
127.0,127.0,133.0,119.0,126.0,128.0,127.0,128.0,14.0,-102.0,-89.0,127.0,127.0,127.0,104.0,83.0,-53.0
126.0,127.0,132.0,119.0,126.0,128.0,127.0,128.0,14.0,-102.0,-89.0,127.0,127.0,127.0,104.0,83.0,-53.0
126.0,127.0,132.0,119.0,126.0,127.0,127.0,128.0,14.0,-102.0,-89.0,127.0,127.0,127.0,104.0,83.0,-53.0
126.0,127.0,132.0,119.0,126.0,127.0,127.0,128.0,14.0,-102.0,-89.0,127.0,127.0,127.0,104.0,83.0,-53.0
127.0,127.0,134.0,125.0,127.0,129.0,127.0,128.0,14.0,-102.0,-89.0,127.0,127.0,127.0,104.0,83.0,-53.0
127.0,127.0,134.0,125.0,127.0,129.0,127.0,128.0,14.0,-102.0,-89.0,127.0,127.0,127.0,104.0,83.0,-53.0
127.0,127.0,133.0,125.0,127.0,130.0,127.0,128.0,14.0,-102.0,-89.0,127.0,127.0,127.0,104.0,83.0,-53.0
127.0,128.0,133.0,125.0,127.0,130.0,127.0,128.0,14.0,-102.0,-89.0,127.0,127.0,127.0,104.0,83.0,-53.0
127.0,128.0,133.0,126.0,127.0,130.0,127.0,128.0,14.0,-102.0,-89.0,127.0,127.0,127.0,104.0,83.0,-53.0
127.0,128.0,132.0,126.0,127.0,129.0,127.0,128.0,14.0,-102.0,-89.0,127.0,127.0,127.0,104.0,83.0,-53.0
127.0,128.0,132.0,126.0,127.0,129.0,127.0,128.0,14.0,-102.0,-89.0,127.0,127.0,127.0,104.0,83.0,-53.0
127.0,128.0,132.0,126.0,127.0,129.0,127.0,128.0,14.0,-102.0,-89.0,127.0,127.0,127.0,104.0,83.0,-53.0
127.0,128.0,132.0,126.0,127.0,128.0,127.0,128.0,14.0,-102.0,-89.0,127.0,127.0,127.0,104.0,83.0,-53.0
127.0,127.0,134.0,125.0,127.0,129.0,127.0,128.0,14.0,-102.0,-89.0,127.0,127.0,127.0,104.0,83.0,-53.0
126.0,127.0,129.0,130.0,128.0,130.0,127.0,127.0,14.0,-102.0,-89.0,127.0,127.0,127.0,104.0,83.0,-53.0
126.0,127.0,129.0,130.0,128.0,131.0,127.0,127.0,14.0,-102.0,-89.0,127.0,127.0,127.0,104.0,83.0,-53.0
126.0,127.0,128.0,131.0,128.0,131.0,127.0,127.0,14.0,-102.0,-89.0,127.0,127.0,127.0,104.0,83.0,-53.0
126.0,127.0,128.0,131.0,128.0,131.0,127.0,128.0,14.0,-102.0,-89.0,127.0,127.0,127.0,104.0,83.0,-53.0
126.0,127.0,128.0,131.0,128.0,130.0,127.0,127.0,14.0,-102.0,-89.0,127.0,127.0,127.0,104.0,83.0,-53.0
126.0,128.0,127.0,132.0,128.0,130.0,127.0,127.0,14.0,-102.0,-89.0,127.0,127.0,127.0,104.0,83.0,-53.0
126.0,128.0,127.0,132.0,128.0,130.0,127.0,127.0,14.0,-102.0,-89.0,127.0,127.0,127.0,104.0,83.0,-53.0
126.0,128.0,127.0,132.0,128.0,129.0,127.0,128.0,14.0,-102.0,-89.0,127.0,127.0,127.0,104.0,83.0,-53.0
126.0,126.0,130.0,129.0,127.0,131.0,126.0,127.0,14.0,-102.0,-89.0,127.0,127.0,127.0,104.0,83.0,-53.0
126.0,126.0,130.0,129.0,127.0,130.0,127.0,127.0,14.0,-102.0,-89.0,127.0,127.0,127.0,104.0,83.0,-53.0
127.0,128.0,129.0,137.0,127.0,131.0,127.0,128.0,13.0,-102.0,-89.0,127.0,127.0,127.0,104.0,83.0,-53.0
127.0,128.0,129.0,137.0,127.0,131.0,127.0,128.0,13.0,-102.0,-89.0,127.0,127.0,127.0,104.0,83.0,-53.0
127.0,128.0,129.0,137.0,127.0,131.0,127.0,128.0,13.0,-102.0,-89.0,127.0,127.0,127.0,104.0,83.0,-53.0
127.0,128.0,129.0,138.0,127.0,130.0,127.0,128.0,13.0,-102.0,-89.0,127.0,127.0,127.0,104.0,83.0,-53.0
127.0,128.0,128.0,138.0,127.0,130.0,127.0,128.0,13.0,-102.0,-89.0,127.0,127.0,127.0,104.0,83.0,-53.0
127.0,128.0,128.0,138.0,127.0,130.0,127.0,128.0,13.0,-102.0,-89.0,127.0,127.0,127.0,104.0,83.0,-53.0
127.0,128.0,128.0,138.0,127.0,129.0,127.0,128.0,13.0,-102.0,-89.0,127.0,127.0,127.0,104.0,83.0,-53.0
127.0,127.0,130.0,136.0,127.0,131.0,127.0,128.0,13.0,-102.0,-89.0,127.0,127.0,127.0,104.0,83.0,-53.0
127.0,127.0,130.0,137.0,127.0,130.0,127.0,128.0,13.0,-102.0,-89.0,127.0,127.0,127.0,104.0,83.0,-53.0
127.0,127.0,130.0,137.0,127.0,130.0,127.0,128.0,13.0,-102.0,-89.0,127.0,127.0,127.0,104.0,83.0,-53.0
127.0,127.0,130.0,147.0,127.0,136.0,127.0,128.0,13.0,-102.0,-89.0,127.0,127.0,127.0,104.0,83.0,-53.0
127.0,127.0,130.0,147.0,127.0,136.0,127.0,128.0,13.0,-102.0,-89.0,127.0,127.0,127.0,104.0,83.0,-53.0
127.0,127.0,130.0,147.0,127.0,135.0,127.0,128.0,13.0,-102.0,-89.0,127.0,127.0,127.0,104.0,83.0,-53.0
127.0,127.0,130.0,147.0,127.0,135.0,127.0,128.0,13.0,-102.0,-89.0,127.0,127.0,127.0,104.0,83.0,-53.0
127.0,128.0,130.0,147.0,127.0,135.0,127.0,128.0,13.0,-102.0,-89.0,127.0,127.0,127.0,104.0,83.0,-53.0
127.0,127.0,130.0,147.0,127.0,134.0,127.0,128.0,13.0,-102.0,-89.0,127.0,127.0,127.0,104.0,83.0,-53.0
127.0,126.0,131.0,145.0,127.0,135.0,127.0,128.0,13.0,-102.0,-89.0,127.0,127.0,127.0,104.0,83.0,-53.0
127.0,126.0,131.0,145.0,127.0,134.0,127.0,128.0,13.0,-102.0,-89.0,127.0,127.0,127.0,104.0,83.0,-53.0
127.0,127.0,131.0,146.0,127.0,134.0,127.0,128.0,13.0,-102.0,-89.0,127.0,127.0,127.0,104.0,83.0,-53.0
127.0,127.0,131.0,146.0,127.0,135.0,127.0,128.0,13.0,-102.0,-89.0,127.0,127.0,127.0,104.0,83.0,-53.0
127.0,127.0,137.0,153.0,127.0,139.0,127.0,128.0,12.0,-102.0,-90.0,127.0,127.0,127.0,104.0,83.0,-53.0
127.0,127.0,137.0,154.0,127.0,138.0,127.0,128.0,12.0,-102.0,-90.0,127.0,127.0,127.0,104.0,83.0,-53.0
127.0,127.0,137.0,154.0,127.0,138.0,127.0,128.0,12.0,-102.0,-90.0,127.0,127.0,127.0,104.0,83.0,-53.0
127.0,127.0,137.0,154.0,127.0,138.0,127.0,128.0,12.0,-102.0,-90.0,127.0,127.0,127.0,104.0,83.0,-53.0
127.0,127.0,137.0,154.0,127.0,137.0,127.0,128.0,12.0,-102.0,-90.0,127.0,127.0,127.0,104.0,83.0,-53.0
127.0,126.0,138.0,153.0,127.0,138.0,127.0,128.0,12.0,-102.0,-90.0,127.0,127.0,127.0,104.0,83.0,-53.0
127.0,126.0,138.0,153.0,127.0,138.0,127.0,128.0,12.0,-102.0,-90.0,127.0,127.0,127.0,104.0,83.0,-53.0
127.0,126.0,138.0,153.0,127.0,138.0,127.0,128.0,12.0,-102.0,-90.0,127.0,127.0,127.0,104.0,83.0,-53.0
127.0,126.0,138.0,153.0,127.0,138.0,127.0,128.0,12.0,-102.0,-90.0,127.0,127.0,127.0,104.0,83.0,-53.0
127.0,127.0,137.0,153.0,127.0,139.0,127.0,128.0,12.0,-102.0,-90.0,127.0,127.0,127.0,104.0,83.0,-53.0
127.0,126.0,143.0,155.0,126.0,137.0,127.0,127.0,12.0,-102.0,-90.0,127.0,127.0,127.0,104.0,83.0,-53.0
127.0,127.0,143.0,155.0,126.0,139.0,127.0,128.0,12.0,-102.0,-90.0,127.0,127.0,127.0,104.0,83.0,-53.0
127.0,127.0,142.0,155.0,127.0,139.0,127.0,127.0,12.0,-102.0,-90.0,127.0,127.0,127.0,104.0,83.0,-53.0
127.0,127.0,142.0,155.0,127.0,138.0,127.0,127.0,12.0,-102.0,-90.0,127.0,127.0,127.0,104.0,83.0,-53.0
127.0,126.0,145.0,154.0,126.0,138.0,127.0,127.0,12.0,-102.0,-90.0,127.0,127.0,127.0,104.0,83.0,-53.0
127.0,126.0,145.0,154.0,126.0,138.0,127.0,127.0,12.0,-102.0,-90.0,127.0,127.0,127.0,104.0,83.0,-53.0
127.0,126.0,145.0,154.0,126.0,138.0,127.0,128.0,12.0,-102.0,-90.0,127.0,127.0,127.0,104.0,83.0,-53.0
127.0,126.0,144.0,154.0,126.0,138.0,127.0,127.0,12.0,-102.0,-90.0,127.0,127.0,127.0,104.0,83.0,-53.0
127.0,126.0,144.0,154.0,126.0,137.0,127.0,127.0,12.0,-102.0,-90.0,127.0,127.0,127.0,104.0,83.0,-53.0
127.0,126.0,144.0,154.0,126.0,137.0,127.0,127.0,12.0,-102.0,-90.0,127.0,127.0,127.0,104.0,83.0,-53.0
127.0,128.0,135.0,154.0,126.0,140.0,127.0,128.0,12.0,-102.0,-90.0,127.0,127.0,127.0,104.0,83.0,-53.0
127.0,128.0,135.0,154.0,126.0,140.0,127.0,128.0,12.0,-102.0,-90.0,127.0,127.0,127.0,104.0,83.0,-53.0
127.0,128.0,135.0,154.0,126.0,140.0,127.0,128.0,12.0,-102.0,-90.0,127.0,127.0,127.0,104.0,83.0,-53.0
127.0,127.0,138.0,153.0,126.0,141.0,127.0,128.0,12.0,-102.0,-90.0,127.0,127.0,127.0,104.0,83.0,-53.0
127.0,127.0,138.0,154.0,126.0,140.0,127.0,128.0,12.0,-102.0,-90.0,127.0,127.0,127.0,104.0,83.0,-53.0
127.0,127.0,137.0,154.0,126.0,140.0,127.0,128.0,12.0,-102.0,-90.0,127.0,127.0,127.0,104.0,83.0,-53.0
127.0,127.0,137.0,154.0,126.0,140.0,127.0,128.0,12.0,-102.0,-90.0,127.0,127.0,127.0,104.0,83.0,-53.0
127.0,127.0,136.0,154.0,126.0,141.0,127.0,128.0,12.0,-102.0,-90.0,127.0,127.0,127.0,104.0,83.0,-53.0
127.0,127.0,136.0,154.0,126.0,141.0,127.0,128.0,12.0,-102.0,-90.0,127.0,127.0,127.0,104.0,83.0,-53.0
127.0,128.0,136.0,154.0,126.0,141.0,127.0,128.0,12.0,-102.0,-90.0,127.0,127.0,127.0,104.0,83.0,-53.0
127.0,128.0,98.0,150.0,127.0,141.0,127.0,128.0,13.0,-102.0,-89.0,127.0,127.0,127.0,104.0,83.0,-53.0
127.0,128.0,98.0,150.0,127.0,141.0,127.0,128.0,13.0,-102.0,-89.0,127.0,127.0,127.0,104.0,83.0,-53.0
127.0,127.0,104.0,150.0,126.0,141.0,127.0,128.0,13.0,-102.0,-89.0,127.0,127.0,127.0,104.0,83.0,-53.0
127.0,127.0,103.0,150.0,126.0,140.0,127.0,128.0,13.0,-102.0,-89.0,127.0,127.0,127.0,104.0,83.0,-53.0
127.0,127.0,102.0,150.0,126.0,140.0,127.0,128.0,13.0,-102.0,-89.0,127.0,127.0,127.0,104.0,83.0,-53.0
127.0,127.0,101.0,150.0,126.0,140.0,127.0,128.0,13.0,-102.0,-89.0,127.0,127.0,127.0,104.0,83.0,-53.0
127.0,127.0,100.0,150.0,126.0,141.0,127.0,128.0,13.0,-102.0,-89.0,127.0,127.0,127.0,104.0,83.0,-53.0
127.0,128.0,100.0,150.0,126.0,142.0,127.0,128.0,13.0,-102.0,-89.0,127.0,127.0,127.0,104.0,83.0,-53.0
127.0,128.0,99.0,150.0,127.0,141.0,127.0,128.0,13.0,-102.0,-89.0,127.0,127.0,127.0,104.0,83.0,-53.0
127.0,128.0,98.0,150.0,127.0,141.0,127.0,128.0,13.0,-102.0,-89.0,127.0,127.0,127.0,104.0,83.0,-53.0
127.0,127.0,92.0,150.0,127.0,143.0,127.0,127.0,14.0,-103.0,-89.0,127.0,127.0,127.0,104.0,83.0,-53.0
127.0,127.0,92.0,150.0,127.0,143.0,127.0,128.0,14.0,-103.0,-89.0,127.0,127.0,127.0,104.0,83.0,-53.0
127.0,127.0,91.0,150.0,127.0,143.0,127.0,127.0,14.0,-103.0,-89.0,127.0,127.0,127.0,104.0,83.0,-53.0
127.0,127.0,90.0,150.0,127.0,143.0,127.0,128.0,14.0,-103.0,-89.0,127.0,127.0,127.0,104.0,83.0,-53.0
127.0,127.0,90.0,150.0,127.0,142.0,127.0,127.0,14.0,-103.0,-89.0,127.0,127.0,127.0,104.0,83.0,-53.0
127.0,128.0,89.0,150.0,127.0,143.0,127.0,128.0,14.0,-103.0,-89.0,127.0,127.0,127.0,104.0,83.0,-53.0
127.0,128.0,89.0,150.0,127.0,143.0,127.0,128.0,14.0,-103.0,-89.0,127.0,127.0,127.0,104.0,83.0,-53.0
127.0,128.0,89.0,150.0,127.0,143.0,127.0,128.0,14.0,-103.0,-89.0,127.0,127.0,127.0,104.0,83.0,-53.0
127.0,128.0,88.0,150.0,127.0,143.0,127.0,128.0,14.0,-103.0,-89.0,127.0,127.0,127.0,104.0,83.0,-53.0
127.0,128.0,88.0,150.0,127.0,142.0,127.0,128.0,14.0,-103.0,-89.0,127.0,127.0,127.0,104.0,83.0,-53.0
127.0,127.0,92.0,147.0,127.0,139.0,126.0,127.0,15.0,-103.0,-88.0,127.0,127.0,127.0,104.0,83.0,-53.0
127.0,127.0,91.0,147.0,127.0,139.0,127.0,127.0,15.0,-103.0,-88.0,127.0,127.0,127.0,104.0,83.0,-53.0
127.0,127.0,90.0,147.0,127.0,138.0,127.0,127.0,15.0,-103.0,-88.0,127.0,127.0,127.0,104.0,83.0,-53.0
127.0,127.0,89.0,147.0,127.0,138.0,127.0,127.0,15.0,-103.0,-88.0,127.0,127.0,127.0,104.0,83.0,-53.0
127.0,128.0,87.0,147.0,127.0,139.0,126.0,127.0,15.0,-103.0,-88.0,127.0,127.0,127.0,104.0,83.0,-53.0
127.0,128.0,86.0,147.0,127.0,139.0,127.0,127.0,15.0,-103.0,-88.0,127.0,127.0,127.0,104.0,83.0,-53.0
127.0,128.0,85.0,147.0,127.0,139.0,127.0,127.0,15.0,-103.0,-88.0,127.0,127.0,127.0,104.0,83.0,-53.0
127.0,128.0,84.0,147.0,127.0,138.0,127.0,127.0,15.0,-103.0,-88.0,127.0,127.0,127.0,104.0,83.0,-53.0
127.0,128.0,83.0,147.0,127.0,138.0,127.0,127.0,15.0,-103.0,-88.0,127.0,127.0,127.0,104.0,83.0,-53.0
127.0,127.0,93.0,148.0,127.0,140.0,126.0,127.0,15.0,-103.0,-88.0,127.0,127.0,127.0,104.0,83.0,-53.0
127.0,128.0,49.0,147.0,127.0,139.0,127.0,127.0,15.0,-104.0,-88.0,127.0,127.0,127.0,104.0,83.0,-53.0
127.0,128.0,47.0,147.0,127.0,139.0,127.0,127.0,15.0,-104.0,-88.0,127.0,127.0,127.0,104.0,83.0,-53.0
127.0,128.0,46.0,148.0,127.0,139.0,127.0,127.0,15.0,-104.0,-88.0,127.0,127.0,127.0,104.0,83.0,-53.0
127.0,128.0,43.0,148.0,127.0,140.0,127.0,127.0,15.0,-104.0,-88.0,127.0,127.0,127.0,104.0,83.0,-53.0
127.0,128.0,41.0,148.0,127.0,140.0,127.0,128.0,15.0,-104.0,-88.0,127.0,127.0,127.0,104.0,83.0,-53.0
127.0,128.0,39.0,148.0,127.0,140.0,127.0,128.0,15.0,-104.0,-88.0,127.0,127.0,127.0,104.0,83.0,-53.0
127.0,128.0,37.0,148.0,127.0,139.0,127.0,128.0,15.0,-104.0,-88.0,127.0,127.0,127.0,104.0,83.0,-53.0
127.0,128.0,35.0,148.0,127.0,139.0,127.0,128.0,15.0,-104.0,-88.0,127.0,127.0,127.0,104.0,83.0,-53.0
127.0,128.0,53.0,147.0,127.0,140.0,127.0,127.0,15.0,-104.0,-88.0,127.0,127.0,127.0,104.0,83.0,-53.0
127.0,128.0,51.0,147.0,127.0,140.0,127.0,127.0,15.0,-104.0,-88.0,127.0,127.0,127.0,104.0,83.0,-53.0
126.0,127.0,23.0,145.0,127.0,141.0,127.0,127.0,16.0,-104.0,-87.0,127.0,127.0,127.0,104.0,83.0,-53.0
126.0,127.0,24.0,145.0,127.0,141.0,127.0,127.0,16.0,-104.0,-87.0,127.0,127.0,127.0,104.0,83.0,-53.0
126.0,128.0,25.0,145.0,127.0,141.0,127.0,127.0,16.0,-104.0,-87.0,127.0,127.0,127.0,104.0,83.0,-53.0
126.0,128.0,25.0,145.0,127.0,142.0,127.0,127.0,16.0,-104.0,-87.0,127.0,127.0,127.0,104.0,83.0,-53.0
126.0,128.0,26.0,144.0,127.0,141.0,127.0,127.0,16.0,-104.0,-87.0,127.0,127.0,127.0,104.0,83.0,-53.0
126.0,128.0,28.0,144.0,127.0,141.0,127.0,127.0,16.0,-104.0,-87.0,127.0,127.0,127.0,104.0,83.0,-53.0
126.0,128.0,29.0,145.0,127.0,140.0,127.0,127.0,16.0,-104.0,-87.0,127.0,127.0,127.0,104.0,83.0,-53.0
126.0,127.0,20.0,145.0,127.0,142.0,127.0,127.0,16.0,-104.0,-87.0,127.0,127.0,127.0,104.0,83.0,-53.0
126.0,127.0,21.0,145.0,127.0,141.0,127.0,127.0,16.0,-104.0,-87.0,127.0,127.0,127.0,104.0,83.0,-53.0
126.0,127.0,22.0,145.0,127.0,141.0,127.0,127.0,16.0,-104.0,-87.0,127.0,127.0,127.0,104.0,83.0,-53.0
126.0,128.0,101.0,145.0,128.0,142.0,127.0,128.0,17.0,-104.0,-86.0,127.0,127.0,127.0,104.0,83.0,-53.0
126.0,128.0,102.0,146.0,128.0,142.0,127.0,128.0,17.0,-104.0,-86.0,127.0,127.0,127.0,104.0,83.0,-53.0
126.0,128.0,103.0,146.0,128.0,141.0,127.0,128.0,17.0,-104.0,-86.0,127.0,127.0,127.0,104.0,83.0,-53.0
126.0,128.0,105.0,146.0,128.0,141.0,127.0,127.0,17.0,-104.0,-86.0,127.0,127.0,127.0,104.0,83.0,-53.0
126.0,128.0,106.0,146.0,128.0,141.0,127.0,127.0,17.0,-104.0,-86.0,127.0,127.0,127.0,104.0,83.0,-53.0
126.0,128.0,107.0,146.0,128.0,140.0,127.0,127.0,17.0,-104.0,-86.0,127.0,127.0,127.0,104.0,83.0,-53.0
127.0,127.0,95.0,145.0,128.0,141.0,127.0,127.0,17.0,-104.0,-86.0,127.0,127.0,127.0,104.0,83.0,-53.0
126.0,127.0,97.0,145.0,128.0,141.0,127.0,127.0,17.0,-104.0,-86.0,127.0,127.0,127.0,104.0,83.0,-53.0
126.0,127.0,98.0,145.0,128.0,141.0,127.0,127.0,17.0,-104.0,-86.0,127.0,127.0,127.0,104.0,83.0,-53.0
126.0,128.0,99.0,145.0,128.0,142.0,127.0,127.0,17.0,-104.0,-86.0,127.0,127.0,127.0,104.0,83.0,-53.0
126.0,128.0,150.0,142.0,127.0,142.0,127.0,127.0,18.0,-105.0,-85.0,127.0,127.0,127.0,104.0,83.0,-53.0
126.0,128.0,149.0,142.0,127.0,143.0,127.0,128.0,18.0,-105.0,-85.0,127.0,127.0,127.0,104.0,83.0,-53.0
126.0,128.0,149.0,142.0,127.0,143.0,127.0,128.0,18.0,-105.0,-85.0,127.0,127.0,127.0,104.0,83.0,-53.0
126.0,128.0,149.0,142.0,127.0,142.0,127.0,128.0,18.0,-105.0,-85.0,127.0,127.0,127.0,104.0,83.0,-53.0
126.0,128.0,150.0,142.0,127.0,142.0,127.0,128.0,18.0,-105.0,-85.0,127.0,127.0,127.0,104.0,83.0,-53.0
126.0,127.0,148.0,142.0,127.0,141.0,127.0,127.0,18.0,-105.0,-85.0,127.0,127.0,127.0,104.0,83.0,-53.0
126.0,127.0,149.0,142.0,127.0,141.0,127.0,127.0,18.0,-105.0,-85.0,127.0,127.0,127.0,104.0,83.0,-53.0
126.0,127.0,149.0,142.0,127.0,141.0,127.0,127.0,18.0,-105.0,-85.0,127.0,127.0,127.0,104.0,83.0,-53.0
126.0,127.0,149.0,142.0,127.0,141.0,127.0,127.0,18.0,-105.0,-85.0,127.0,127.0,127.0,104.0,83.0,-53.0
126.0,127.0,150.0,142.0,127.0,141.0,127.0,127.0,18.0,-105.0,-85.0,127.0,127.0,127.0,104.0,83.0,-53.0
126.0,128.0,158.0,140.0,127.0,147.0,127.0,127.0,18.0,-105.0,-85.0,127.0,127.0,127.0,104.0,83.0,-53.0
126.0,128.0,158.0,140.0,127.0,147.0,127.0,127.0,18.0,-105.0,-85.0,127.0,127.0,127.0,104.0,83.0,-53.0
126.0,128.0,158.0,140.0,127.0,146.0,127.0,127.0,18.0,-105.0,-85.0,127.0,127.0,127.0,104.0,83.0,-53.0
126.0,128.0,158.0,140.0,127.0,146.0,127.0,127.0,18.0,-105.0,-85.0,127.0,127.0,127.0,104.0,83.0,-53.0
126.0,128.0,158.0,140.0,127.0,149.0,126.0,127.0,18.0,-105.0,-85.0,127.0,127.0,127.0,104.0,83.0,-53.0
126.0,128.0,158.0,140.0,127.0,149.0,126.0,128.0,18.0,-105.0,-85.0,127.0,127.0,127.0,104.0,83.0,-53.0
126.0,128.0,158.0,140.0,127.0,148.0,127.0,127.0,18.0,-105.0,-85.0,127.0,127.0,127.0,104.0,83.0,-53.0
126.0,128.0,158.0,140.0,127.0,148.0,127.0,127.0,18.0,-105.0,-85.0,127.0,127.0,127.0,104.0,83.0,-53.0
126.0,128.0,158.0,140.0,127.0,148.0,127.0,127.0,18.0,-105.0,-85.0,127.0,127.0,127.0,104.0,83.0,-53.0
126.0,128.0,158.0,140.0,127.0,148.0,127.0,127.0,18.0,-105.0,-85.0,127.0,127.0,127.0,104.0,83.0,-53.0
126.0,128.0,159.0,139.0,127.0,142.0,127.0,128.0,19.0,-105.0,-84.0,127.0,127.0,127.0,104.0,83.0,-53.0
126.0,128.0,158.0,139.0,127.0,141.0,127.0,128.0,19.0,-105.0,-84.0,127.0,127.0,127.0,104.0,83.0,-53.0
126.0,128.0,158.0,139.0,127.0,140.0,127.0,128.0,19.0,-105.0,-84.0,127.0,127.0,127.0,104.0,83.0,-53.0
127.0,128.0,161.0,139.0,127.0,144.0,126.0,128.0,19.0,-105.0,-84.0,127.0,127.0,127.0,104.0,83.0,-53.0
127.0,128.0,160.0,139.0,127.0,144.0,127.0,128.0,19.0,-105.0,-84.0,127.0,127.0,127.0,104.0,83.0,-53.0
126.0,128.0,160.0,139.0,127.0,144.0,127.0,128.0,19.0,-105.0,-84.0,127.0,127.0,127.0,104.0,83.0,-53.0
127.0,128.0,160.0,139.0,127.0,143.0,127.0,128.0,19.0,-105.0,-84.0,127.0,127.0,127.0,104.0,83.0,-53.0
126.0,128.0,159.0,139.0,127.0,143.0,127.0,128.0,19.0,-105.0,-84.0,127.0,127.0,127.0,104.0,83.0,-53.0
126.0,128.0,159.0,139.0,127.0,143.0,127.0,128.0,19.0,-105.0,-84.0,127.0,127.0,127.0,104.0,83.0,-53.0
126.0,128.0,159.0,139.0,127.0,142.0,127.0,128.0,19.0,-105.0,-84.0,127.0,127.0,127.0,104.0,83.0,-53.0
127.0,128.0,155.0,139.0,127.0,135.0,127.0,128.0,19.0,-106.0,-84.0,127.0,127.0,127.0,105.0,83.0,-53.0
127.0,128.0,155.0,138.0,127.0,134.0,127.0,128.0,19.0,-106.0,-84.0,127.0,127.0,127.0,105.0,83.0,-53.0
127.0,128.0,157.0,138.0,127.0,138.0,126.0,128.0,19.0,-106.0,-84.0,127.0,127.0,127.0,105.0,83.0,-53.0
127.0,128.0,156.0,138.0,127.0,138.0,126.0,128.0,19.0,-106.0,-84.0,127.0,127.0,127.0,105.0,83.0,-53.0
127.0,128.0,156.0,138.0,127.0,137.0,126.0,128.0,19.0,-106.0,-84.0,127.0,127.0,127.0,105.0,83.0,-53.0
127.0,128.0,156.0,138.0,127.0,137.0,126.0,128.0,19.0,-106.0,-84.0,127.0,127.0,127.0,105.0,83.0,-53.0
127.0,128.0,155.0,138.0,127.0,137.0,126.0,128.0,19.0,-106.0,-84.0,127.0,127.0,127.0,105.0,83.0,-53.0
127.0,128.0,155.0,138.0,127.0,136.0,126.0,128.0,19.0,-106.0,-84.0,127.0,127.0,127.0,105.0,83.0,-53.0
127.0,128.0,155.0,138.0,127.0,136.0,127.0,128.0,19.0,-106.0,-84.0,127.0,127.0,127.0,105.0,83.0,-53.0
127.0,128.0,155.0,139.0,127.0,135.0,127.0,128.0,19.0,-106.0,-84.0,127.0,127.0,127.0,105.0,83.0,-53.0
127.0,128.0,151.0,137.0,127.0,135.0,127.0,128.0,19.0,-106.0,-83.0,127.0,127.0,127.0,105.0,83.0,-53.0
126.0,127.0,154.0,136.0,127.0,136.0,126.0,127.0,19.0,-106.0,-83.0,127.0,127.0,127.0,105.0,83.0,-53.0
127.0,127.0,154.0,136.0,127.0,136.0,126.0,128.0,19.0,-106.0,-83.0,127.0,127.0,127.0,105.0,83.0,-53.0
126.0,127.0,153.0,136.0,127.0,136.0,126.0,128.0,19.0,-106.0,-83.0,127.0,127.0,127.0,105.0,83.0,-53.0
126.0,128.0,153.0,136.0,127.0,137.0,126.0,128.0,19.0,-106.0,-83.0,127.0,127.0,127.0,105.0,83.0,-53.0
127.0,128.0,152.0,136.0,127.0,137.0,126.0,128.0,19.0,-106.0,-83.0,127.0,127.0,127.0,105.0,83.0,-53.0
127.0,128.0,152.0,136.0,127.0,136.0,126.0,128.0,19.0,-106.0,-83.0,127.0,127.0,127.0,105.0,83.0,-53.0
127.0,128.0,152.0,136.0,127.0,136.0,126.0,128.0,19.0,-106.0,-83.0,127.0,127.0,127.0,105.0,83.0,-53.0
126.0,128.0,151.0,137.0,127.0,136.0,126.0,128.0,19.0,-106.0,-83.0,127.0,127.0,127.0,105.0,83.0,-53.0
127.0,128.0,151.0,137.0,127.0,135.0,126.0,128.0,19.0,-106.0,-83.0,127.0,127.0,127.0,105.0,83.0,-53.0
127.0,127.0,152.0,136.0,127.0,133.0,126.0,127.0,19.0,-106.0,-83.0,127.0,127.0,127.0,105.0,83.0,-53.0
127.0,127.0,151.0,136.0,127.0,133.0,126.0,127.0,19.0,-106.0,-83.0,127.0,127.0,127.0,105.0,83.0,-53.0
127.0,127.0,151.0,136.0,127.0,133.0,126.0,127.0,19.0,-106.0,-83.0,127.0,127.0,127.0,105.0,83.0,-53.0
127.0,127.0,150.0,136.0,127.0,134.0,126.0,128.0,19.0,-106.0,-83.0,127.0,127.0,127.0,105.0,83.0,-53.0
127.0,127.0,150.0,136.0,127.0,134.0,126.0,128.0,19.0,-106.0,-83.0,127.0,127.0,127.0,105.0,83.0,-53.0
127.0,127.0,150.0,137.0,127.0,134.0,126.0,128.0,19.0,-106.0,-83.0,127.0,127.0,127.0,105.0,83.0,-53.0
127.0,127.0,149.0,137.0,127.0,133.0,127.0,128.0,19.0,-106.0,-83.0,127.0,127.0,127.0,105.0,83.0,-53.0
127.0,128.0,149.0,137.0,127.0,133.0,127.0,128.0,19.0,-106.0,-83.0,127.0,127.0,127.0,105.0,83.0,-53.0
127.0,128.0,149.0,137.0,127.0,133.0,127.0,128.0,19.0,-106.0,-83.0,127.0,127.0,127.0,105.0,83.0,-53.0
127.0,128.0,148.0,137.0,127.0,132.0,127.0,128.0,19.0,-106.0,-83.0,127.0,127.0,127.0,105.0,83.0,-53.0
126.0,126.0,145.0,136.0,127.0,134.0,126.0,127.0,18.0,-105.0,-83.0,127.0,127.0,127.0,106.0,83.0,-53.0
126.0,126.0,144.0,136.0,127.0,134.0,126.0,127.0,18.0,-105.0,-83.0,127.0,127.0,127.0,106.0,83.0,-53.0
126.0,127.0,143.0,136.0,127.0,135.0,126.0,127.0,18.0,-105.0,-83.0,127.0,127.0,127.0,106.0,83.0,-53.0
126.0,127.0,143.0,136.0,127.0,135.0,126.0,127.0,18.0,-105.0,-83.0,127.0,127.0,127.0,106.0,83.0,-53.0
126.0,127.0,143.0,135.0,127.0,134.0,126.0,128.0,18.0,-105.0,-83.0,127.0,127.0,127.0,106.0,83.0,-53.0
126.0,127.0,142.0,135.0,127.0,134.0,126.0,128.0,18.0,-105.0,-83.0,127.0,127.0,127.0,106.0,83.0,-53.0
126.0,127.0,142.0,135.0,127.0,134.0,127.0,128.0,18.0,-105.0,-83.0,127.0,127.0,127.0,106.0,83.0,-53.0
126.0,127.0,142.0,135.0,127.0,134.0,127.0,128.0,18.0,-105.0,-83.0,127.0,127.0,127.0,106.0,83.0,-53.0
126.0,127.0,142.0,135.0,127.0,133.0,127.0,128.0,18.0,-105.0,-83.0,127.0,127.0,127.0,106.0,83.0,-53.0
126.0,126.0,145.0,136.0,126.0,134.0,126.0,127.0,18.0,-105.0,-83.0,127.0,127.0,127.0,106.0,83.0,-53.0
127.0,127.0,143.0,136.0,127.0,134.0,126.0,128.0,17.0,-105.0,-83.0,127.0,127.0,127.0,106.0,83.0,-53.0
127.0,127.0,142.0,136.0,127.0,135.0,126.0,127.0,17.0,-105.0,-83.0,127.0,127.0,127.0,106.0,83.0,-53.0
127.0,127.0,142.0,136.0,127.0,135.0,126.0,128.0,17.0,-105.0,-83.0,127.0,127.0,127.0,106.0,83.0,-53.0
127.0,127.0,142.0,136.0,127.0,135.0,126.0,128.0,17.0,-105.0,-83.0,127.0,127.0,127.0,106.0,83.0,-53.0
127.0,127.0,141.0,136.0,127.0,135.0,126.0,128.0,17.0,-105.0,-83.0,127.0,127.0,127.0,106.0,83.0,-53.0
127.0,127.0,141.0,136.0,127.0,135.0,126.0,128.0,17.0,-105.0,-83.0,127.0,127.0,127.0,106.0,83.0,-53.0
126.0,128.0,141.0,136.0,127.0,135.0,127.0,128.0,17.0,-105.0,-83.0,127.0,127.0,127.0,106.0,83.0,-53.0
127.0,127.0,144.0,136.0,127.0,135.0,126.0,128.0,17.0,-105.0,-83.0,127.0,127.0,127.0,106.0,83.0,-53.0
127.0,127.0,144.0,136.0,127.0,134.0,126.0,128.0,17.0,-105.0,-83.0,127.0,127.0,127.0,106.0,83.0,-53.0
127.0,127.0,143.0,136.0,127.0,134.0,126.0,128.0,17.0,-105.0,-83.0,127.0,127.0,127.0,106.0,83.0,-53.0
127.0,126.0,140.0,136.0,127.0,135.0,127.0,128.0,16.0,-105.0,-83.0,127.0,127.0,127.0,106.0,83.0,-53.0
127.0,126.0,140.0,136.0,127.0,134.0,127.0,128.0,16.0,-105.0,-83.0,127.0,127.0,127.0,106.0,83.0,-53.0
127.0,126.0,139.0,136.0,127.0,134.0,127.0,128.0,16.0,-105.0,-83.0,127.0,127.0,127.0,106.0,83.0,-53.0
127.0,126.0,139.0,136.0,127.0,135.0,127.0,128.0,16.0,-105.0,-83.0,127.0,127.0,127.0,106.0,83.0,-53.0
127.0,127.0,138.0,136.0,127.0,136.0,127.0,128.0,16.0,-105.0,-83.0,127.0,127.0,127.0,106.0,83.0,-53.0
127.0,127.0,138.0,136.0,127.0,136.0,127.0,128.0,16.0,-105.0,-83.0,127.0,127.0,127.0,106.0,83.0,-53.0
127.0,126.0,141.0,135.0,127.0,135.0,126.0,128.0,16.0,-105.0,-83.0,127.0,127.0,127.0,106.0,83.0,-53.0
127.0,126.0,141.0,135.0,127.0,135.0,126.0,128.0,16.0,-105.0,-83.0,127.0,127.0,127.0,106.0,83.0,-53.0
127.0,126.0,141.0,135.0,127.0,135.0,127.0,128.0,16.0,-105.0,-83.0,127.0,127.0,127.0,106.0,83.0,-53.0
127.0,126.0,140.0,136.0,127.0,135.0,127.0,128.0,16.0,-105.0,-83.0,127.0,127.0,127.0,106.0,83.0,-53.0
127.0,126.0,140.0,135.0,127.0,136.0,126.0,128.0,15.0,-105.0,-84.0,127.0,127.0,127.0,106.0,83.0,-53.0
127.0,126.0,139.0,135.0,127.0,136.0,127.0,128.0,15.0,-105.0,-84.0,127.0,127.0,127.0,106.0,83.0,-53.0
127.0,127.0,139.0,135.0,126.0,136.0,126.0,128.0,15.0,-105.0,-84.0,127.0,127.0,127.0,106.0,83.0,-53.0
127.0,127.0,138.0,135.0,127.0,137.0,126.0,128.0,15.0,-105.0,-84.0,127.0,127.0,127.0,106.0,83.0,-53.0
127.0,127.0,138.0,135.0,127.0,137.0,127.0,128.0,15.0,-105.0,-84.0,127.0,127.0,127.0,106.0,83.0,-53.0
127.0,126.0,142.0,135.0,126.0,136.0,126.0,128.0,15.0,-105.0,-84.0,127.0,127.0,127.0,106.0,83.0,-53.0
127.0,127.0,141.0,135.0,126.0,137.0,126.0,128.0,15.0,-105.0,-84.0,127.0,127.0,127.0,106.0,83.0,-53.0
127.0,127.0,140.0,135.0,127.0,137.0,126.0,128.0,15.0,-105.0,-84.0,127.0,127.0,127.0,106.0,83.0,-53.0
127.0,127.0,140.0,135.0,126.0,137.0,126.0,128.0,15.0,-105.0,-84.0,127.0,127.0,127.0,106.0,83.0,-53.0
127.0,127.0,140.0,135.0,126.0,137.0,126.0,128.0,15.0,-105.0,-84.0,127.0,127.0,127.0,106.0,83.0,-53.0
127.0,126.0,135.0,134.0,127.0,138.0,127.0,128.0,15.0,-104.0,-84.0,127.0,127.0,127.0,106.0,83.0,-53.0
127.0,127.0,135.0,134.0,127.0,138.0,127.0,128.0,15.0,-104.0,-84.0,127.0,127.0,127.0,106.0,83.0,-53.0
127.0,127.0,134.0,134.0,127.0,139.0,127.0,128.0,15.0,-104.0,-84.0,127.0,127.0,127.0,106.0,83.0,-53.0
127.0,127.0,134.0,134.0,127.0,139.0,127.0,128.0,15.0,-104.0,-84.0,127.0,127.0,127.0,106.0,83.0,-53.0
127.0,125.0,137.0,134.0,127.0,137.0,127.0,128.0,15.0,-104.0,-84.0,127.0,127.0,127.0,106.0,83.0,-53.0
127.0,126.0,137.0,134.0,127.0,138.0,127.0,128.0,15.0,-104.0,-84.0,127.0,127.0,127.0,106.0,83.0,-53.0
127.0,126.0,136.0,135.0,127.0,139.0,127.0,128.0,15.0,-104.0,-84.0,127.0,127.0,127.0,106.0,83.0,-53.0
127.0,126.0,136.0,135.0,127.0,139.0,127.0,128.0,15.0,-104.0,-84.0,127.0,127.0,127.0,106.0,83.0,-53.0
127.0,126.0,136.0,135.0,127.0,138.0,127.0,128.0,15.0,-104.0,-84.0,127.0,127.0,127.0,106.0,83.0,-53.0
127.0,126.0,136.0,134.0,127.0,138.0,127.0,128.0,15.0,-104.0,-84.0,127.0,127.0,127.0,106.0,83.0,-53.0
127.0,127.0,130.0,135.0,127.0,139.0,127.0,128.0,15.0,-104.0,-84.0,127.0,127.0,127.0,106.0,83.0,-53.0
127.0,127.0,129.0,135.0,127.0,140.0,127.0,128.0,15.0,-104.0,-84.0,127.0,127.0,127.0,106.0,83.0,-53.0
127.0,127.0,128.0,135.0,128.0,141.0,127.0,128.0,15.0,-104.0,-84.0,127.0,127.0,127.0,106.0,83.0,-53.0
127.0,126.0,131.0,134.0,127.0,139.0,126.0,128.0,15.0,-104.0,-84.0,127.0,127.0,127.0,106.0,83.0,-53.0
127.0,126.0,131.0,134.0,127.0,139.0,126.0,128.0,15.0,-104.0,-84.0,127.0,127.0,127.0,106.0,83.0,-53.0
127.0,127.0,131.0,134.0,127.0,140.0,126.0,128.0,15.0,-104.0,-84.0,127.0,127.0,127.0,106.0,83.0,-53.0
127.0,127.0,130.0,134.0,127.0,140.0,126.0,128.0,15.0,-104.0,-84.0,127.0,127.0,127.0,106.0,83.0,-53.0
127.0,127.0,130.0,134.0,127.0,140.0,127.0,128.0,15.0,-104.0,-84.0,127.0,127.0,127.0,106.0,83.0,-53.0
127.0,127.0,130.0,135.0,127.0,140.0,127.0,128.0,15.0,-104.0,-84.0,127.0,127.0,127.0,106.0,83.0,-53.0
127.0,127.0,130.0,135.0,127.0,140.0,127.0,128.0,15.0,-104.0,-84.0,127.0,127.0,127.0,106.0,83.0,-53.0
126.0,127.0,127.0,133.0,127.0,159.0,127.0,128.0,15.0,-104.0,-84.0,127.0,127.0,127.0,106.0,83.0,-53.0
126.0,127.0,126.0,134.0,127.0,159.0,127.0,128.0,15.0,-104.0,-84.0,127.0,127.0,127.0,106.0,83.0,-53.0
127.0,126.0,129.0,133.0,127.0,157.0,126.0,128.0,15.0,-104.0,-84.0,127.0,127.0,127.0,106.0,83.0,-53.0
127.0,126.0,129.0,133.0,127.0,157.0,126.0,128.0,15.0,-104.0,-84.0,127.0,127.0,127.0,106.0,83.0,-53.0
127.0,126.0,128.0,133.0,127.0,158.0,126.0,128.0,15.0,-104.0,-84.0,127.0,127.0,127.0,106.0,83.0,-53.0
127.0,126.0,128.0,133.0,127.0,159.0,126.0,128.0,15.0,-104.0,-84.0,127.0,127.0,127.0,106.0,83.0,-53.0
127.0,126.0,128.0,133.0,127.0,158.0,126.0,128.0,15.0,-104.0,-84.0,127.0,127.0,127.0,106.0,83.0,-53.0
127.0,126.0,128.0,133.0,127.0,158.0,127.0,128.0,15.0,-104.0,-84.0,127.0,127.0,127.0,106.0,83.0,-53.0
127.0,126.0,127.0,133.0,127.0,158.0,127.0,128.0,15.0,-104.0,-84.0,127.0,127.0,127.0,106.0,83.0,-53.0
127.0,126.0,127.0,133.0,127.0,158.0,127.0,128.0,15.0,-104.0,-84.0,127.0,127.0,127.0,106.0,83.0,-53.0
127.0,128.0,127.0,133.0,127.0,151.0,127.0,128.0,15.0,-104.0,-84.0,127.0,127.0,127.0,106.0,83.0,-53.0
127.0,126.0,129.0,133.0,127.0,151.0,126.0,128.0,15.0,-104.0,-84.0,127.0,127.0,127.0,106.0,83.0,-53.0
127.0,126.0,129.0,132.0,127.0,151.0,126.0,128.0,15.0,-104.0,-84.0,127.0,127.0,127.0,106.0,83.0,-53.0
127.0,127.0,128.0,132.0,127.0,152.0,126.0,128.0,15.0,-104.0,-84.0,127.0,127.0,127.0,106.0,83.0,-53.0
127.0,127.0,128.0,133.0,127.0,152.0,126.0,128.0,15.0,-104.0,-84.0,127.0,127.0,127.0,106.0,83.0,-53.0
127.0,127.0,128.0,133.0,127.0,152.0,126.0,128.0,15.0,-104.0,-84.0,127.0,127.0,127.0,106.0,83.0,-53.0
127.0,127.0,128.0,133.0,127.0,151.0,127.0,128.0,15.0,-104.0,-84.0,127.0,127.0,127.0,106.0,83.0,-53.0
127.0,127.0,128.0,133.0,127.0,151.0,127.0,128.0,15.0,-104.0,-84.0,127.0,127.0,127.0,106.0,83.0,-53.0
127.0,127.0,128.0,133.0,127.0,151.0,127.0,128.0,15.0,-104.0,-84.0,127.0,127.0,127.0,106.0,83.0,-53.0
127.0,128.0,127.0,133.0,127.0,151.0,127.0,128.0,15.0,-104.0,-84.0,127.0,127.0,127.0,106.0,83.0,-53.0
127.0,126.0,130.0,131.0,127.0,144.0,126.0,128.0,15.0,-104.0,-83.0,127.0,127.0,127.0,106.0,83.0,-53.0
127.0,126.0,130.0,132.0,127.0,143.0,126.0,128.0,15.0,-104.0,-83.0,127.0,127.0,127.0,106.0,83.0,-53.0
127.0,127.0,129.0,132.0,127.0,145.0,126.0,128.0,15.0,-104.0,-83.0,127.0,127.0,127.0,106.0,83.0,-53.0
127.0,127.0,128.0,132.0,127.0,145.0,126.0,128.0,15.0,-104.0,-83.0,127.0,127.0,127.0,106.0,83.0,-53.0
127.0,127.0,128.0,132.0,127.0,144.0,126.0,128.0,15.0,-104.0,-83.0,127.0,127.0,127.0,106.0,83.0,-53.0
127.0,127.0,128.0,132.0,127.0,144.0,127.0,128.0,15.0,-104.0,-83.0,127.0,127.0,127.0,106.0,83.0,-53.0
127.0,127.0,128.0,132.0,127.0,143.0,127.0,128.0,15.0,-104.0,-83.0,127.0,127.0,127.0,106.0,83.0,-53.0
127.0,127.0,128.0,132.0,127.0,143.0,127.0,128.0,15.0,-104.0,-83.0,127.0,127.0,127.0,106.0,83.0,-53.0
126.0,127.0,128.0,132.0,127.0,143.0,127.0,128.0,15.0,-104.0,-83.0,127.0,127.0,127.0,106.0,83.0,-53.0
127.0,127.0,128.0,133.0,127.0,144.0,127.0,128.0,15.0,-104.0,-83.0,127.0,127.0,127.0,106.0,83.0,-53.0
127.0,128.0,129.0,131.0,127.0,139.0,127.0,128.0,16.0,-104.0,-83.0,127.0,127.0,127.0,106.0,83.0,-53.0
127.0,128.0,128.0,131.0,127.0,140.0,126.0,128.0,16.0,-104.0,-83.0,127.0,127.0,127.0,106.0,83.0,-53.0
127.0,128.0,128.0,131.0,127.0,140.0,127.0,128.0,16.0,-104.0,-83.0,127.0,127.0,127.0,106.0,83.0,-53.0
127.0,127.0,128.0,131.0,127.0,140.0,127.0,128.0,16.0,-104.0,-83.0,127.0,127.0,127.0,106.0,83.0,-53.0
126.0,127.0,128.0,131.0,127.0,139.0,127.0,128.0,16.0,-104.0,-83.0,127.0,127.0,127.0,106.0,83.0,-53.0
126.0,127.0,127.0,131.0,127.0,139.0,127.0,128.0,16.0,-104.0,-83.0,127.0,127.0,127.0,106.0,83.0,-53.0
126.0,127.0,127.0,131.0,127.0,138.0,127.0,128.0,16.0,-104.0,-83.0,127.0,127.0,127.0,106.0,83.0,-53.0
126.0,127.0,126.0,131.0,127.0,139.0,127.0,128.0,16.0,-104.0,-83.0,127.0,127.0,127.0,106.0,83.0,-53.0
126.0,127.0,126.0,131.0,127.0,139.0,127.0,128.0,16.0,-104.0,-83.0,127.0,127.0,127.0,106.0,83.0,-53.0
127.0,127.0,129.0,131.0,127.0,139.0,127.0,128.0,16.0,-104.0,-83.0,127.0,127.0,127.0,106.0,83.0,-53.0
127.0,126.0,127.0,129.0,126.0,136.0,126.0,128.0,16.0,-105.0,-83.0,127.0,127.0,127.0,107.0,83.0,-53.0
127.0,126.0,127.0,129.0,126.0,136.0,126.0,128.0,16.0,-105.0,-83.0,127.0,127.0,127.0,107.0,83.0,-53.0
127.0,126.0,127.0,129.0,126.0,136.0,126.0,128.0,16.0,-105.0,-83.0,127.0,127.0,127.0,107.0,83.0,-53.0
127.0,126.0,127.0,129.0,126.0,135.0,126.0,128.0,16.0,-105.0,-83.0,127.0,127.0,127.0,107.0,83.0,-53.0
127.0,126.0,126.0,129.0,126.0,135.0,126.0,128.0,16.0,-105.0,-83.0,127.0,127.0,127.0,107.0,83.0,-53.0
127.0,126.0,126.0,130.0,126.0,135.0,127.0,128.0,16.0,-105.0,-83.0,127.0,127.0,127.0,107.0,83.0,-53.0
127.0,126.0,126.0,130.0,126.0,135.0,127.0,128.0,16.0,-105.0,-83.0,127.0,127.0,127.0,107.0,83.0,-53.0
127.0,127.0,126.0,130.0,126.0,135.0,127.0,128.0,16.0,-105.0,-83.0,127.0,127.0,127.0,107.0,83.0,-53.0
127.0,126.0,128.0,130.0,126.0,136.0,126.0,128.0,16.0,-105.0,-83.0,127.0,127.0,127.0,107.0,83.0,-53.0
127.0,126.0,127.0,129.0,126.0,136.0,126.0,128.0,16.0,-105.0,-83.0,127.0,127.0,127.0,107.0,83.0,-53.0
126.0,126.0,123.0,130.0,127.0,136.0,126.0,128.0,16.0,-105.0,-83.0,127.0,127.0,127.0,107.0,83.0,-53.0
126.0,126.0,123.0,130.0,127.0,136.0,126.0,128.0,16.0,-105.0,-83.0,127.0,127.0,127.0,107.0,83.0,-53.0
126.0,127.0,122.0,130.0,127.0,137.0,126.0,128.0,16.0,-105.0,-83.0,127.0,127.0,127.0,107.0,83.0,-53.0
126.0,127.0,122.0,130.0,127.0,137.0,126.0,128.0,16.0,-105.0,-83.0,127.0,127.0,127.0,107.0,83.0,-53.0
126.0,127.0,122.0,131.0,127.0,137.0,126.0,128.0,16.0,-105.0,-83.0,127.0,127.0,127.0,107.0,83.0,-53.0
126.0,127.0,121.0,131.0,127.0,137.0,127.0,128.0,16.0,-105.0,-83.0,127.0,127.0,127.0,107.0,83.0,-53.0
126.0,127.0,121.0,131.0,127.0,136.0,127.0,128.0,16.0,-105.0,-83.0,127.0,127.0,127.0,107.0,83.0,-53.0
126.0,126.0,123.0,130.0,126.0,137.0,126.0,128.0,16.0,-105.0,-83.0,127.0,127.0,127.0,107.0,83.0,-53.0
126.0,126.0,123.0,130.0,127.0,137.0,126.0,128.0,16.0,-105.0,-83.0,127.0,127.0,127.0,107.0,83.0,-53.0
126.0,126.0,123.0,130.0,127.0,137.0,126.0,128.0,16.0,-105.0,-83.0,127.0,127.0,127.0,107.0,83.0,-53.0
126.0,126.0,124.0,130.0,127.0,136.0,126.0,128.0,17.0,-105.0,-83.0,127.0,127.0,127.0,107.0,83.0,-53.0
126.0,127.0,124.0,130.0,127.0,136.0,126.0,128.0,17.0,-105.0,-83.0,127.0,127.0,127.0,107.0,83.0,-53.0
126.0,127.0,123.0,130.0,127.0,137.0,126.0,128.0,17.0,-105.0,-83.0,127.0,127.0,127.0,107.0,83.0,-53.0
126.0,127.0,123.0,130.0,127.0,137.0,126.0,128.0,17.0,-105.0,-83.0,127.0,127.0,127.0,107.0,83.0,-53.0
126.0,128.0,123.0,131.0,127.0,137.0,126.0,128.0,17.0,-105.0,-83.0,127.0,127.0,127.0,107.0,83.0,-53.0
126.0,128.0,123.0,131.0,127.0,136.0,126.0,128.0,17.0,-105.0,-83.0,127.0,127.0,127.0,107.0,83.0,-53.0
126.0,126.0,124.0,130.0,126.0,137.0,126.0,128.0,17.0,-105.0,-83.0,127.0,127.0,127.0,107.0,83.0,-53.0
126.0,126.0,124.0,130.0,127.0,137.0,126.0,128.0,17.0,-105.0,-83.0,127.0,127.0,127.0,107.0,83.0,-53.0
126.0,126.0,124.0,130.0,127.0,136.0,126.0,128.0,17.0,-105.0,-83.0,127.0,127.0,127.0,107.0,83.0,-53.0
126.0,126.0,124.0,130.0,127.0,136.0,126.0,128.0,17.0,-105.0,-83.0,127.0,127.0,127.0,107.0,83.0,-53.0
126.0,126.0,126.0,129.0,127.0,136.0,126.0,128.0,17.0,-105.0,-83.0,127.0,127.0,127.0,107.0,83.0,-53.0
126.0,127.0,126.0,130.0,127.0,137.0,126.0,128.0,17.0,-105.0,-83.0,127.0,127.0,127.0,107.0,83.0,-53.0
126.0,127.0,125.0,130.0,127.0,137.0,126.0,128.0,17.0,-105.0,-83.0,127.0,127.0,127.0,107.0,83.0,-53.0
126.0,128.0,125.0,130.0,127.0,137.0,127.0,128.0,17.0,-105.0,-83.0,127.0,127.0,127.0,107.0,83.0,-53.0
126.0,128.0,125.0,130.0,127.0,136.0,127.0,128.0,17.0,-105.0,-83.0,127.0,127.0,127.0,107.0,83.0,-53.0
126.0,126.0,127.0,129.0,126.0,137.0,126.0,128.0,17.0,-105.0,-83.0,127.0,127.0,127.0,107.0,83.0,-53.0
126.0,126.0,127.0,129.0,126.0,137.0,126.0,128.0,17.0,-105.0,-83.0,127.0,127.0,127.0,107.0,83.0,-53.0
126.0,126.0,127.0,129.0,126.0,137.0,126.0,128.0,17.0,-105.0,-83.0,127.0,127.0,127.0,107.0,83.0,-53.0
126.0,126.0,127.0,129.0,126.0,136.0,126.0,128.0,17.0,-105.0,-83.0,127.0,127.0,127.0,107.0,83.0,-53.0
126.0,126.0,127.0,129.0,127.0,136.0,126.0,128.0,17.0,-105.0,-83.0,127.0,127.0,127.0,107.0,83.0,-53.0
126.0,127.0,127.0,130.0,126.0,136.0,126.0,128.0,17.0,-105.0,-83.0,127.0,127.0,127.0,107.0,83.0,-53.0
126.0,127.0,127.0,130.0,126.0,136.0,126.0,128.0,17.0,-105.0,-83.0,127.0,127.0,127.0,107.0,83.0,-53.0
126.0,127.0,127.0,130.0,126.0,135.0,127.0,128.0,17.0,-105.0,-83.0,127.0,127.0,127.0,107.0,83.0,-53.0
126.0,127.0,127.0,130.0,127.0,135.0,127.0,128.0,17.0,-105.0,-83.0,127.0,127.0,127.0,107.0,83.0,-53.0
126.0,126.0,128.0,129.0,126.0,136.0,126.0,128.0,17.0,-105.0,-83.0,127.0,127.0,127.0,107.0,83.0,-53.0
126.0,126.0,128.0,130.0,126.0,136.0,126.0,128.0,17.0,-105.0,-83.0,127.0,127.0,127.0,107.0,83.0,-53.0
126.0,126.0,128.0,130.0,126.0,135.0,126.0,128.0,17.0,-105.0,-83.0,127.0,127.0,127.0,107.0,83.0,-53.0
126.0,126.0,128.0,130.0,126.0,135.0,126.0,128.0,17.0,-105.0,-83.0,127.0,127.0,127.0,107.0,83.0,-53.0
126.0,126.0,128.0,130.0,126.0,135.0,126.0,128.0,17.0,-105.0,-83.0,127.0,127.0,127.0,107.0,83.0,-53.0
126.0,126.0,128.0,130.0,126.0,135.0,126.0,128.0,17.0,-105.0,-83.0,127.0,127.0,127.0,107.0,83.0,-53.0
126.0,127.0,127.0,130.0,126.0,135.0,127.0,128.0,17.0,-105.0,-83.0,127.0,127.0,127.0,108.0,83.0,-53.0
126.0,127.0,127.0,130.0,126.0,135.0,127.0,128.0,17.0,-105.0,-83.0,127.0,127.0,127.0,108.0,83.0,-53.0
126.0,127.0,127.0,130.0,126.0,134.0,127.0,128.0,17.0,-105.0,-83.0,127.0,127.0,127.0,108.0,83.0,-53.0
126.0,126.0,128.0,130.0,126.0,135.0,126.0,128.0,17.0,-105.0,-83.0,127.0,127.0,127.0,108.0,83.0,-53.0
126.0,126.0,128.0,130.0,126.0,135.0,126.0,128.0,17.0,-105.0,-83.0,127.0,127.0,127.0,108.0,83.0,-53.0
126.0,126.0,128.0,129.0,126.0,135.0,126.0,128.0,17.0,-105.0,-83.0,127.0,127.0,127.0,108.0,83.0,-53.0
126.0,126.0,128.0,129.0,126.0,134.0,127.0,128.0,17.0,-105.0,-83.0,127.0,127.0,127.0,108.0,83.0,-53.0
126.0,126.0,128.0,130.0,126.0,134.0,127.0,128.0,17.0,-105.0,-83.0,127.0,127.0,127.0,108.0,83.0,-53.0
126.0,127.0,128.0,129.0,126.0,134.0,127.0,128.0,17.0,-105.0,-83.0,127.0,127.0,127.0,108.0,83.0,-53.0
126.0,127.0,127.0,130.0,126.0,135.0,126.0,128.0,17.0,-105.0,-83.0,127.0,127.0,127.0,108.0,83.0,-53.0
126.0,127.0,127.0,130.0,127.0,134.0,127.0,128.0,17.0,-105.0,-83.0,127.0,127.0,127.0,108.0,83.0,-53.0
126.0,127.0,129.0,129.0,126.0,134.0,126.0,128.0,17.0,-105.0,-83.0,127.0,127.0,127.0,108.0,83.0,-53.0
126.0,127.0,129.0,129.0,127.0,135.0,126.0,128.0,17.0,-105.0,-83.0,127.0,127.0,127.0,108.0,83.0,-53.0
126.0,127.0,129.0,130.0,127.0,135.0,126.0,128.0,17.0,-105.0,-83.0,127.0,127.0,127.0,108.0,83.0,-53.0
126.0,127.0,129.0,129.0,127.0,134.0,126.0,128.0,17.0,-105.0,-83.0,127.0,127.0,127.0,108.0,83.0,-53.0
126.0,127.0,128.0,130.0,127.0,134.0,126.0,128.0,17.0,-105.0,-83.0,127.0,127.0,127.0,108.0,83.0,-53.0
126.0,127.0,128.0,130.0,127.0,134.0,126.0,128.0,17.0,-105.0,-83.0,127.0,127.0,127.0,108.0,83.0,-53.0
126.0,127.0,128.0,130.0,127.0,134.0,127.0,128.0,17.0,-105.0,-83.0,127.0,127.0,127.0,108.0,83.0,-53.0
126.0,127.0,128.0,130.0,127.0,135.0,126.0,128.0,17.0,-105.0,-83.0,127.0,127.0,127.0,108.0,83.0,-53.0
126.0,127.0,127.0,130.0,127.0,135.0,126.0,128.0,17.0,-105.0,-83.0,127.0,127.0,127.0,108.0,83.0,-53.0
126.0,126.0,132.0,129.0,126.0,135.0,126.0,128.0,17.0,-105.0,-83.0,127.0,127.0,127.0,108.0,83.0,-53.0
126.0,126.0,131.0,129.0,126.0,135.0,126.0,128.0,17.0,-105.0,-83.0,127.0,127.0,127.0,108.0,83.0,-53.0
126.0,126.0,131.0,129.0,126.0,135.0,126.0,128.0,17.0,-105.0,-83.0,127.0,127.0,127.0,108.0,83.0,-53.0
126.0,126.0,131.0,129.0,126.0,134.0,126.0,128.0,17.0,-105.0,-83.0,127.0,127.0,127.0,108.0,83.0,-53.0
126.0,126.0,131.0,129.0,126.0,134.0,126.0,128.0,17.0,-105.0,-83.0,127.0,127.0,127.0,108.0,83.0,-53.0
126.0,126.0,131.0,129.0,126.0,134.0,126.0,128.0,17.0,-105.0,-83.0,127.0,127.0,127.0,108.0,83.0,-53.0
126.0,126.0,131.0,129.0,126.0,133.0,126.0,128.0,17.0,-105.0,-83.0,127.0,127.0,127.0,108.0,83.0,-53.0
126.0,126.0,131.0,129.0,126.0,133.0,127.0,128.0,17.0,-105.0,-83.0,127.0,127.0,127.0,108.0,83.0,-53.0
126.0,126.0,131.0,129.0,127.0,133.0,126.0,128.0,17.0,-105.0,-83.0,127.0,127.0,127.0,108.0,83.0,-53.0
126.0,127.0,131.0,129.0,126.0,133.0,127.0,128.0,17.0,-105.0,-83.0,127.0,127.0,127.0,108.0,83.0,-53.0
126.0,125.0,132.0,128.0,126.0,134.0,126.0,128.0,17.0,-105.0,-83.0,127.0,127.0,127.0,108.0,83.0,-53.0
126.0,126.0,132.0,128.0,126.0,134.0,126.0,128.0,17.0,-105.0,-83.0,127.0,127.0,127.0,108.0,83.0,-53.0
126.0,126.0,132.0,128.0,126.0,134.0,126.0,128.0,17.0,-105.0,-83.0,127.0,127.0,127.0,108.0,83.0,-53.0
126.0,125.0,132.0,128.0,126.0,133.0,126.0,128.0,17.0,-105.0,-83.0,127.0,127.0,127.0,108.0,83.0,-53.0
126.0,125.0,132.0,128.0,126.0,133.0,126.0,128.0,17.0,-105.0,-83.0,127.0,127.0,127.0,108.0,83.0,-53.0
126.0,126.0,132.0,128.0,127.0,133.0,126.0,128.0,17.0,-105.0,-83.0,127.0,127.0,127.0,108.0,83.0,-53.0
126.0,126.0,131.0,128.0,127.0,134.0,126.0,128.0,17.0,-105.0,-83.0,127.0,127.0,127.0,108.0,83.0,-53.0
126.0,126.0,131.0,129.0,127.0,134.0,126.0,128.0,17.0,-105.0,-83.0,127.0,127.0,127.0,108.0,83.0,-53.0
126.0,126.0,131.0,129.0,127.0,134.0,126.0,128.0,17.0,-105.0,-83.0,127.0,127.0,127.0,108.0,83.0,-53.0
126.0,125.0,133.0,128.0,126.0,132.0,126.0,128.0,17.0,-105.0,-83.0,127.0,127.0,127.0,108.0,83.0,-53.0
127.0,126.0,129.0,128.0,126.0,135.0,126.0,128.0,17.0,-105.0,-83.0,127.0,127.0,127.0,108.0,83.0,-53.0
127.0,126.0,129.0,128.0,126.0,135.0,126.0,128.0,17.0,-105.0,-83.0,127.0,127.0,127.0,108.0,83.0,-53.0
127.0,126.0,129.0,128.0,126.0,135.0,126.0,128.0,17.0,-105.0,-83.0,127.0,127.0,127.0,108.0,83.0,-53.0
127.0,126.0,129.0,128.0,126.0,135.0,126.0,128.0,17.0,-105.0,-83.0,127.0,127.0,127.0,108.0,83.0,-53.0
127.0,126.0,129.0,128.0,126.0,135.0,126.0,128.0,17.0,-105.0,-83.0,127.0,127.0,127.0,108.0,83.0,-53.0
127.0,126.0,129.0,128.0,126.0,134.0,126.0,128.0,17.0,-105.0,-83.0,127.0,127.0,127.0,108.0,83.0,-53.0
126.0,126.0,128.0,129.0,127.0,134.0,127.0,128.0,17.0,-105.0,-83.0,127.0,127.0,127.0,108.0,83.0,-53.0
127.0,127.0,128.0,129.0,127.0,134.0,127.0,128.0,17.0,-105.0,-83.0,127.0,127.0,127.0,108.0,83.0,-53.0
127.0,126.0,130.0,128.0,126.0,134.0,126.0,128.0,17.0,-105.0,-83.0,127.0,127.0,127.0,108.0,83.0,-53.0
127.0,126.0,130.0,128.0,126.0,135.0,126.0,128.0,17.0,-105.0,-83.0,127.0,127.0,127.0,108.0,83.0,-53.0
126.0,126.0,130.0,128.0,127.0,135.0,126.0,128.0,17.0,-105.0,-83.0,127.0,127.0,127.0,108.0,83.0,-53.0
126.0,126.0,129.0,128.0,127.0,135.0,126.0,128.0,17.0,-105.0,-83.0,127.0,127.0,127.0,108.0,83.0,-53.0
127.0,126.0,129.0,128.0,127.0,135.0,126.0,128.0,17.0,-105.0,-83.0,127.0,127.0,127.0,108.0,83.0,-53.0
127.0,126.0,129.0,128.0,127.0,135.0,126.0,128.0,17.0,-105.0,-83.0,127.0,127.0,127.0,108.0,83.0,-53.0
127.0,126.0,129.0,128.0,127.0,134.0,126.0,128.0,17.0,-105.0,-83.0,127.0,127.0,127.0,108.0,83.0,-53.0
127.0,126.0,129.0,128.0,127.0,134.0,126.0,128.0,17.0,-105.0,-83.0,127.0,127.0,127.0,108.0,83.0,-53.0
127.0,126.0,129.0,128.0,127.0,133.0,127.0,128.0,17.0,-105.0,-83.0,127.0,127.0,127.0,108.0,83.0,-53.0
127.0,126.0,130.0,128.0,126.0,134.0,126.0,128.0,17.0,-105.0,-83.0,127.0,127.0,127.0,108.0,83.0,-53.0
126.0,126.0,130.0,128.0,126.0,135.0,126.0,128.0,17.0,-105.0,-83.0,127.0,127.0,127.0,108.0,83.0,-53.0
126.0,126.0,130.0,128.0,126.0,135.0,126.0,128.0,17.0,-105.0,-83.0,127.0,127.0,127.0,108.0,83.0,-53.0
126.0,126.0,132.0,128.0,127.0,134.0,126.0,128.0,17.0,-105.0,-83.0,127.0,127.0,127.0,108.0,83.0,-53.0
126.0,126.0,132.0,128.0,127.0,134.0,126.0,128.0,17.0,-105.0,-83.0,127.0,127.0,127.0,108.0,83.0,-53.0
126.0,126.0,132.0,128.0,127.0,134.0,126.0,128.0,17.0,-105.0,-83.0,127.0,127.0,127.0,108.0,83.0,-53.0
126.0,126.0,132.0,128.0,127.0,133.0,126.0,128.0,17.0,-105.0,-83.0,127.0,127.0,127.0,108.0,83.0,-53.0
126.0,126.0,132.0,128.0,127.0,133.0,126.0,128.0,17.0,-105.0,-83.0,127.0,127.0,127.0,108.0,83.0,-53.0
126.0,126.0,132.0,129.0,127.0,132.0,126.0,128.0,17.0,-105.0,-83.0,127.0,127.0,127.0,108.0,83.0,-53.0
126.0,126.0,133.0,128.0,127.0,133.0,126.0,128.0,17.0,-105.0,-83.0,127.0,127.0,127.0,108.0,83.0,-53.0
126.0,126.0,133.0,128.0,127.0,134.0,126.0,128.0,17.0,-105.0,-83.0,127.0,127.0,127.0,108.0,83.0,-53.0
126.0,126.0,132.0,128.0,127.0,135.0,126.0,128.0,17.0,-105.0,-83.0,127.0,127.0,127.0,108.0,83.0,-53.0
126.0,126.0,132.0,128.0,127.0,134.0,126.0,128.0,17.0,-105.0,-83.0,127.0,127.0,127.0,108.0,83.0,-53.0
126.0,126.0,133.0,128.0,127.0,134.0,126.0,128.0,17.0,-105.0,-82.0,127.0,127.0,127.0,108.0,83.0,-53.0
126.0,126.0,132.0,128.0,127.0,134.0,126.0,128.0,17.0,-105.0,-82.0,127.0,127.0,127.0,108.0,83.0,-53.0
126.0,126.0,132.0,128.0,127.0,133.0,126.0,128.0,17.0,-105.0,-82.0,127.0,127.0,127.0,108.0,83.0,-53.0
126.0,126.0,132.0,128.0,127.0,133.0,126.0,128.0,17.0,-105.0,-82.0,127.0,127.0,127.0,108.0,83.0,-53.0
126.0,126.0,132.0,128.0,127.0,132.0,126.0,128.0,17.0,-105.0,-82.0,127.0,127.0,127.0,108.0,83.0,-53.0
126.0,126.0,133.0,128.0,127.0,133.0,126.0,128.0,17.0,-105.0,-82.0,127.0,127.0,127.0,108.0,83.0,-53.0
126.0,126.0,133.0,128.0,127.0,134.0,126.0,128.0,17.0,-105.0,-82.0,127.0,127.0,127.0,108.0,83.0,-53.0
126.0,126.0,133.0,128.0,127.0,134.0,126.0,128.0,17.0,-105.0,-82.0,127.0,127.0,127.0,108.0,83.0,-53.0
126.0,126.0,133.0,128.0,127.0,134.0,126.0,128.0,17.0,-105.0,-82.0,127.0,127.0,127.0,108.0,83.0,-53.0
126.0,126.0,133.0,128.0,127.0,134.0,126.0,128.0,17.0,-105.0,-82.0,127.0,127.0,127.0,108.0,83.0,-53.0
126.0,126.0,129.0,128.0,127.0,133.0,126.0,128.0,18.0,-105.0,-82.0,127.0,127.0,127.0,108.0,83.0,-53.0
126.0,126.0,128.0,128.0,127.0,133.0,126.0,128.0,18.0,-105.0,-82.0,127.0,127.0,127.0,108.0,83.0,-53.0
126.0,126.0,128.0,128.0,127.0,133.0,126.0,128.0,18.0,-105.0,-82.0,127.0,127.0,127.0,108.0,83.0,-53.0
126.0,126.0,128.0,128.0,127.0,132.0,126.0,128.0,18.0,-105.0,-82.0,127.0,127.0,127.0,108.0,83.0,-53.0
126.0,125.0,131.0,128.0,127.0,133.0,126.0,128.0,18.0,-105.0,-82.0,127.0,127.0,127.0,108.0,83.0,-53.0
126.0,125.0,130.0,128.0,127.0,133.0,126.0,128.0,18.0,-105.0,-82.0,127.0,127.0,127.0,108.0,83.0,-53.0
126.0,126.0,130.0,128.0,127.0,134.0,126.0,128.0,18.0,-105.0,-82.0,127.0,127.0,127.0,108.0,83.0,-53.0
126.0,126.0,129.0,128.0,127.0,134.0,126.0,128.0,18.0,-105.0,-82.0,127.0,127.0,127.0,108.0,83.0,-53.0
126.0,126.0,129.0,128.0,127.0,134.0,126.0,128.0,18.0,-105.0,-82.0,127.0,127.0,127.0,108.0,83.0,-53.0
126.0,126.0,129.0,128.0,127.0,133.0,126.0,128.0,18.0,-105.0,-82.0,127.0,127.0,127.0,108.0,83.0,-53.0
126.0,127.0,125.0,128.0,127.0,135.0,126.0,128.0,18.0,-105.0,-82.0,127.0,127.0,127.0,108.0,83.0,-53.0
126.0,127.0,124.0,128.0,127.0,134.0,126.0,128.0,18.0,-105.0,-82.0,127.0,127.0,127.0,108.0,83.0,-53.0
126.0,127.0,124.0,128.0,127.0,134.0,126.0,128.0,18.0,-105.0,-82.0,127.0,127.0,127.0,108.0,83.0,-53.0
126.0,126.0,127.0,128.0,127.0,133.0,126.0,128.0,18.0,-105.0,-82.0,127.0,127.0,127.0,108.0,83.0,-53.0
126.0,126.0,127.0,128.0,127.0,133.0,126.0,128.0,18.0,-105.0,-82.0,127.0,127.0,127.0,108.0,83.0,-53.0
126.0,126.0,126.0,128.0,127.0,135.0,126.0,128.0,18.0,-105.0,-82.0,127.0,127.0,127.0,108.0,83.0,-53.0
126.0,126.0,126.0,128.0,127.0,135.0,126.0,128.0,18.0,-105.0,-82.0,127.0,127.0,127.0,108.0,83.0,-53.0
126.0,126.0,125.0,128.0,127.0,134.0,126.0,128.0,18.0,-105.0,-82.0,127.0,127.0,127.0,108.0,83.0,-53.0
126.0,127.0,125.0,128.0,127.0,135.0,126.0,128.0,18.0,-105.0,-82.0,127.0,127.0,127.0,108.0,83.0,-53.0
126.0,127.0,125.0,128.0,127.0,135.0,126.0,128.0,18.0,-105.0,-82.0,127.0,127.0,127.0,108.0,83.0,-53.0
126.0,126.0,124.0,128.0,127.0,133.0,126.0,128.0,18.0,-105.0,-82.0,127.0,127.0,127.0,109.0,83.0,-53.0
126.0,126.0,124.0,128.0,127.0,132.0,126.0,128.0,18.0,-105.0,-82.0,127.0,127.0,127.0,109.0,83.0,-53.0
126.0,126.0,126.0,128.0,127.0,133.0,126.0,128.0,18.0,-105.0,-82.0,127.0,127.0,127.0,109.0,83.0,-53.0
126.0,126.0,126.0,128.0,127.0,133.0,126.0,128.0,18.0,-105.0,-82.0,127.0,127.0,127.0,109.0,83.0,-53.0
126.0,126.0,126.0,128.0,127.0,132.0,126.0,128.0,18.0,-105.0,-82.0,127.0,127.0,127.0,109.0,83.0,-53.0
126.0,126.0,125.0,128.0,127.0,132.0,126.0,128.0,18.0,-105.0,-82.0,127.0,127.0,127.0,109.0,83.0,-53.0
126.0,126.0,125.0,128.0,127.0,132.0,126.0,128.0,18.0,-105.0,-82.0,127.0,127.0,127.0,109.0,83.0,-53.0
126.0,126.0,125.0,128.0,127.0,133.0,126.0,128.0,18.0,-105.0,-82.0,127.0,127.0,127.0,109.0,83.0,-53.0
126.0,126.0,124.0,128.0,127.0,133.0,126.0,128.0,18.0,-105.0,-82.0,127.0,127.0,127.0,109.0,83.0,-53.0
126.0,126.0,124.0,128.0,127.0,133.0,126.0,128.0,18.0,-105.0,-82.0,127.0,127.0,127.0,109.0,83.0,-53.0
127.0,127.0,126.0,128.0,127.0,132.0,127.0,128.0,18.0,-105.0,-82.0,127.0,127.0,127.0,109.0,83.0,-53.0
127.0,125.0,128.0,128.0,126.0,132.0,127.0,128.0,18.0,-105.0,-82.0,127.0,127.0,127.0,109.0,83.0,-53.0
127.0,125.0,128.0,128.0,126.0,132.0,127.0,128.0,18.0,-105.0,-82.0,127.0,127.0,127.0,109.0,83.0,-53.0
127.0,126.0,128.0,128.0,126.0,131.0,127.0,128.0,18.0,-105.0,-82.0,127.0,127.0,127.0,109.0,83.0,-53.0
127.0,126.0,128.0,128.0,126.0,131.0,127.0,128.0,18.0,-105.0,-82.0,127.0,127.0,127.0,109.0,83.0,-53.0
127.0,126.0,128.0,128.0,126.0,131.0,127.0,128.0,18.0,-105.0,-82.0,127.0,127.0,127.0,109.0,83.0,-53.0
127.0,126.0,128.0,128.0,126.0,131.0,127.0,128.0,18.0,-105.0,-82.0,127.0,127.0,127.0,109.0,83.0,-53.0
127.0,126.0,127.0,128.0,126.0,131.0,127.0,128.0,18.0,-105.0,-82.0,127.0,127.0,127.0,109.0,83.0,-53.0
127.0,126.0,127.0,128.0,126.0,131.0,127.0,128.0,18.0,-105.0,-82.0,127.0,127.0,127.0,109.0,83.0,-53.0
127.0,126.0,126.0,128.0,127.0,132.0,127.0,128.0,18.0,-105.0,-82.0,127.0,127.0,127.0,109.0,83.0,-53.0
127.0,126.0,127.0,128.0,127.0,133.0,126.0,128.0,18.0,-105.0,-82.0,127.0,127.0,127.0,109.0,83.0,-53.0
127.0,126.0,127.0,128.0,127.0,133.0,126.0,128.0,18.0,-105.0,-82.0,127.0,127.0,127.0,109.0,83.0,-53.0
127.0,126.0,126.0,128.0,127.0,134.0,126.0,128.0,18.0,-105.0,-82.0,127.0,127.0,127.0,109.0,83.0,-53.0
127.0,126.0,126.0,128.0,127.0,134.0,126.0,128.0,18.0,-105.0,-82.0,127.0,127.0,127.0,109.0,83.0,-53.0
127.0,126.0,126.0,128.0,127.0,134.0,127.0,128.0,18.0,-105.0,-82.0,127.0,127.0,127.0,109.0,83.0,-53.0
127.0,126.0,126.0,128.0,127.0,133.0,127.0,128.0,18.0,-105.0,-82.0,127.0,127.0,127.0,109.0,83.0,-53.0
127.0,126.0,126.0,128.0,127.0,133.0,127.0,128.0,18.0,-105.0,-82.0,127.0,127.0,127.0,109.0,83.0,-53.0
127.0,127.0,126.0,128.0,127.0,133.0,127.0,128.0,18.0,-105.0,-82.0,127.0,127.0,127.0,109.0,83.0,-53.0
127.0,126.0,126.0,128.0,127.0,133.0,127.0,128.0,18.0,-105.0,-82.0,127.0,127.0,127.0,109.0,83.0,-53.0
127.0,126.0,126.0,128.0,127.0,132.0,127.0,128.0,18.0,-105.0,-82.0,127.0,127.0,127.0,109.0,83.0,-53.0
127.0,126.0,128.0,127.0,126.0,133.0,126.0,128.0,18.0,-105.0,-82.0,127.0,127.0,127.0,109.0,83.0,-52.0
127.0,126.0,127.0,127.0,126.0,134.0,126.0,128.0,18.0,-105.0,-82.0,127.0,127.0,127.0,109.0,83.0,-52.0
127.0,127.0,127.0,127.0,127.0,134.0,126.0,128.0,18.0,-105.0,-82.0,127.0,127.0,127.0,109.0,83.0,-52.0
127.0,127.0,127.0,127.0,126.0,134.0,126.0,128.0,18.0,-105.0,-82.0,127.0,127.0,127.0,109.0,83.0,-52.0
127.0,127.0,127.0,127.0,126.0,134.0,126.0,128.0,18.0,-105.0,-82.0,127.0,127.0,127.0,109.0,83.0,-52.0
127.0,127.0,127.0,127.0,126.0,134.0,126.0,128.0,18.0,-105.0,-82.0,127.0,127.0,127.0,109.0,83.0,-52.0
127.0,127.0,127.0,128.0,127.0,133.0,126.0,128.0,18.0,-105.0,-82.0,127.0,127.0,127.0,109.0,83.0,-52.0
127.0,127.0,127.0,128.0,127.0,133.0,126.0,128.0,18.0,-105.0,-82.0,127.0,127.0,127.0,109.0,83.0,-52.0
127.0,127.0,127.0,128.0,127.0,132.0,126.0,128.0,18.0,-105.0,-82.0,127.0,127.0,127.0,109.0,83.0,-52.0
127.0,126.0,128.0,127.0,126.0,133.0,126.0,128.0,18.0,-105.0,-82.0,127.0,127.0,127.0,109.0,83.0,-52.0
127.0,127.0,128.0,128.0,126.0,133.0,126.0,128.0,18.0,-105.0,-82.0,127.0,127.0,127.0,109.0,83.0,-52.0
126.0,126.0,128.0,128.0,127.0,133.0,126.0,128.0,18.0,-105.0,-82.0,127.0,127.0,127.0,109.0,83.0,-52.0
126.0,126.0,128.0,128.0,127.0,133.0,126.0,128.0,18.0,-105.0,-82.0,127.0,127.0,127.0,109.0,83.0,-52.0
126.0,126.0,128.0,128.0,127.0,133.0,126.0,128.0,18.0,-105.0,-82.0,127.0,127.0,127.0,109.0,83.0,-52.0
126.0,126.0,128.0,128.0,127.0,133.0,126.0,128.0,18.0,-105.0,-82.0,127.0,127.0,127.0,109.0,83.0,-52.0
126.0,126.0,127.0,128.0,127.0,133.0,126.0,128.0,18.0,-105.0,-82.0,127.0,127.0,127.0,109.0,83.0,-52.0
126.0,126.0,127.0,128.0,127.0,132.0,126.0,128.0,18.0,-105.0,-82.0,127.0,127.0,127.0,109.0,83.0,-52.0
127.0,127.0,128.0,128.0,127.0,132.0,126.0,128.0,18.0,-105.0,-82.0,127.0,127.0,127.0,109.0,83.0,-52.0
127.0,127.0,128.0,128.0,126.0,132.0,126.0,128.0,18.0,-105.0,-82.0,127.0,127.0,127.0,109.0,83.0,-52.0
127.0,127.0,128.0,128.0,126.0,132.0,126.0,128.0,18.0,-105.0,-82.0,127.0,127.0,127.0,109.0,83.0,-52.0
127.0,126.0,127.0,127.0,126.0,134.0,126.0,128.0,17.0,-106.0,-82.0,127.0,127.0,127.0,109.0,83.0,-52.0
127.0,126.0,127.0,128.0,127.0,133.0,126.0,128.0,17.0,-106.0,-82.0,127.0,127.0,127.0,109.0,83.0,-52.0
127.0,126.0,127.0,128.0,127.0,133.0,126.0,128.0,17.0,-106.0,-82.0,127.0,127.0,127.0,109.0,83.0,-52.0
127.0,126.0,127.0,128.0,126.0,133.0,126.0,128.0,17.0,-106.0,-82.0,127.0,127.0,127.0,109.0,83.0,-52.0
127.0,127.0,126.0,128.0,127.0,133.0,127.0,128.0,17.0,-106.0,-82.0,127.0,127.0,127.0,109.0,83.0,-52.0
127.0,127.0,126.0,128.0,127.0,133.0,127.0,128.0,17.0,-106.0,-82.0,127.0,127.0,127.0,109.0,83.0,-52.0
127.0,126.0,128.0,127.0,126.0,132.0,126.0,128.0,17.0,-106.0,-82.0,127.0,127.0,127.0,109.0,83.0,-52.0
127.0,126.0,128.0,127.0,126.0,132.0,126.0,128.0,17.0,-106.0,-82.0,127.0,127.0,127.0,109.0,83.0,-52.0
127.0,126.0,128.0,127.0,126.0,132.0,126.0,128.0,17.0,-106.0,-82.0,127.0,127.0,127.0,109.0,83.0,-52.0
127.0,126.0,127.0,127.0,126.0,133.0,126.0,128.0,17.0,-106.0,-82.0,127.0,127.0,127.0,109.0,83.0,-52.0
127.0,127.0,125.0,128.0,127.0,133.0,126.0,128.0,17.0,-106.0,-82.0,127.0,127.0,127.0,109.0,83.0,-52.0
127.0,127.0,125.0,128.0,127.0,133.0,126.0,128.0,17.0,-106.0,-82.0,127.0,127.0,127.0,109.0,83.0,-52.0
127.0,127.0,125.0,128.0,127.0,133.0,126.0,128.0,17.0,-106.0,-82.0,127.0,127.0,127.0,109.0,83.0,-52.0
127.0,127.0,125.0,128.0,127.0,133.0,126.0,128.0,17.0,-106.0,-82.0,127.0,127.0,127.0,109.0,83.0,-52.0
127.0,127.0,125.0,128.0,127.0,132.0,127.0,128.0,17.0,-106.0,-82.0,127.0,127.0,127.0,109.0,83.0,-52.0
127.0,128.0,126.0,127.0,126.0,132.0,126.0,128.0,17.0,-106.0,-82.0,127.0,127.0,127.0,109.0,83.0,-52.0
127.0,128.0,126.0,127.0,126.0,132.0,126.0,128.0,17.0,-106.0,-82.0,127.0,127.0,127.0,109.0,83.0,-52.0
127.0,128.0,126.0,127.0,126.0,132.0,126.0,128.0,17.0,-106.0,-82.0,127.0,127.0,127.0,109.0,83.0,-52.0
127.0,128.0,126.0,127.0,126.0,132.0,126.0,128.0,17.0,-106.0,-82.0,127.0,127.0,127.0,109.0,83.0,-52.0
127.0,128.0,125.0,128.0,127.0,133.0,126.0,128.0,17.0,-106.0,-82.0,127.0,127.0,127.0,109.0,83.0,-52.0
127.0,126.0,126.0,128.0,126.0,133.0,126.0,128.0,17.0,-105.0,-81.0,127.0,127.0,127.0,110.0,83.0,-52.0
127.0,126.0,126.0,128.0,126.0,133.0,126.0,128.0,17.0,-105.0,-81.0,127.0,127.0,127.0,110.0,83.0,-52.0
127.0,126.0,125.0,128.0,127.0,133.0,126.0,128.0,17.0,-105.0,-81.0,127.0,127.0,127.0,110.0,83.0,-52.0
127.0,126.0,125.0,128.0,126.0,132.0,126.0,128.0,17.0,-105.0,-81.0,127.0,127.0,127.0,110.0,83.0,-52.0
127.0,126.0,126.0,128.0,126.0,133.0,126.0,128.0,17.0,-105.0,-81.0,127.0,127.0,127.0,110.0,83.0,-52.0
127.0,126.0,126.0,128.0,126.0,133.0,126.0,128.0,17.0,-105.0,-81.0,127.0,127.0,127.0,110.0,83.0,-52.0
127.0,126.0,126.0,128.0,126.0,133.0,126.0,128.0,17.0,-105.0,-81.0,127.0,127.0,127.0,110.0,83.0,-52.0
127.0,126.0,126.0,128.0,126.0,133.0,126.0,128.0,17.0,-105.0,-81.0,127.0,127.0,127.0,110.0,83.0,-52.0
127.0,126.0,126.0,128.0,126.0,134.0,126.0,128.0,17.0,-105.0,-81.0,127.0,127.0,127.0,110.0,83.0,-52.0
127.0,126.0,126.0,128.0,126.0,134.0,126.0,128.0,17.0,-105.0,-81.0,127.0,127.0,127.0,110.0,83.0,-52.0
127.0,126.0,124.0,127.0,127.0,134.0,126.0,128.0,17.0,-105.0,-81.0,127.0,127.0,127.0,110.0,83.0,-52.0
127.0,126.0,123.0,128.0,127.0,134.0,126.0,128.0,17.0,-105.0,-81.0,127.0,127.0,127.0,110.0,83.0,-52.0
127.0,126.0,123.0,128.0,127.0,134.0,127.0,128.0,17.0,-105.0,-81.0,127.0,127.0,127.0,110.0,83.0,-52.0
127.0,126.0,125.0,127.0,126.0,133.0,126.0,128.0,17.0,-105.0,-81.0,127.0,127.0,127.0,110.0,83.0,-52.0
127.0,126.0,125.0,127.0,126.0,133.0,126.0,128.0,17.0,-105.0,-81.0,127.0,127.0,127.0,110.0,83.0,-52.0
127.0,126.0,125.0,127.0,126.0,133.0,126.0,128.0,17.0,-105.0,-81.0,127.0,127.0,127.0,110.0,83.0,-52.0
127.0,126.0,125.0,127.0,126.0,133.0,126.0,128.0,17.0,-105.0,-81.0,127.0,127.0,127.0,110.0,83.0,-52.0
127.0,126.0,124.0,127.0,126.0,134.0,126.0,128.0,17.0,-105.0,-81.0,127.0,127.0,127.0,110.0,83.0,-52.0
127.0,126.0,124.0,127.0,126.0,134.0,126.0,128.0,17.0,-105.0,-81.0,127.0,127.0,127.0,110.0,83.0,-52.0
127.0,126.0,124.0,127.0,126.0,134.0,126.0,128.0,17.0,-105.0,-81.0,127.0,127.0,127.0,110.0,83.0,-52.0
127.0,126.0,124.0,128.0,127.0,133.0,126.0,128.0,17.0,-105.0,-81.0,127.0,127.0,127.0,110.0,83.0,-52.0
127.0,126.0,123.0,128.0,127.0,132.0,126.0,128.0,17.0,-105.0,-81.0,127.0,127.0,127.0,110.0,83.0,-52.0
127.0,125.0,125.0,127.0,126.0,131.0,126.0,128.0,17.0,-105.0,-81.0,127.0,127.0,127.0,110.0,83.0,-52.0
127.0,125.0,125.0,127.0,126.0,131.0,126.0,128.0,17.0,-105.0,-81.0,127.0,127.0,127.0,110.0,83.0,-52.0
127.0,125.0,125.0,127.0,126.0,131.0,126.0,128.0,17.0,-105.0,-81.0,127.0,127.0,127.0,110.0,83.0,-52.0
127.0,125.0,125.0,127.0,126.0,131.0,126.0,128.0,17.0,-105.0,-81.0,127.0,127.0,127.0,110.0,83.0,-52.0
127.0,125.0,125.0,127.0,126.0,131.0,126.0,128.0,17.0,-105.0,-81.0,127.0,127.0,127.0,110.0,83.0,-52.0
127.0,125.0,125.0,128.0,126.0,131.0,126.0,128.0,17.0,-105.0,-81.0,127.0,127.0,127.0,110.0,83.0,-52.0
127.0,125.0,125.0,128.0,126.0,131.0,126.0,128.0,17.0,-105.0,-81.0,127.0,127.0,127.0,110.0,83.0,-52.0
127.0,126.0,124.0,128.0,127.0,132.0,126.0,128.0,17.0,-105.0,-81.0,127.0,127.0,127.0,110.0,83.0,-52.0
127.0,125.0,125.0,128.0,127.0,131.0,127.0,128.0,17.0,-105.0,-81.0,127.0,127.0,127.0,110.0,83.0,-52.0
127.0,125.0,125.0,128.0,127.0,134.0,126.0,128.0,17.0,-105.0,-81.0,127.0,127.0,127.0,110.0,83.0,-52.0
127.0,125.0,126.0,128.0,127.0,134.0,126.0,128.0,17.0,-105.0,-81.0,127.0,127.0,127.0,110.0,83.0,-52.0
127.0,125.0,126.0,128.0,127.0,134.0,126.0,128.0,17.0,-105.0,-81.0,127.0,127.0,127.0,110.0,83.0,-52.0
127.0,125.0,126.0,128.0,127.0,133.0,126.0,128.0,17.0,-105.0,-81.0,127.0,127.0,127.0,110.0,83.0,-52.0
127.0,125.0,126.0,128.0,127.0,133.0,126.0,128.0,17.0,-105.0,-81.0,127.0,127.0,127.0,110.0,83.0,-52.0
127.0,125.0,126.0,128.0,127.0,133.0,126.0,128.0,17.0,-105.0,-81.0,127.0,127.0,127.0,110.0,83.0,-52.0
127.0,125.0,126.0,128.0,127.0,132.0,126.0,128.0,17.0,-105.0,-81.0,127.0,127.0,127.0,110.0,83.0,-52.0
127.0,125.0,126.0,128.0,127.0,132.0,127.0,128.0,17.0,-105.0,-81.0,127.0,127.0,127.0,110.0,83.0,-52.0
127.0,125.0,126.0,128.0,127.0,132.0,127.0,128.0,17.0,-105.0,-81.0,127.0,127.0,127.0,110.0,83.0,-52.0
127.0,125.0,124.0,127.0,126.0,135.0,126.0,128.0,17.0,-105.0,-81.0,127.0,127.0,127.0,110.0,83.0,-52.0
127.0,125.0,124.0,127.0,126.0,135.0,126.0,128.0,17.0,-105.0,-81.0,127.0,127.0,127.0,110.0,83.0,-52.0
127.0,125.0,124.0,127.0,127.0,135.0,126.0,128.0,17.0,-105.0,-81.0,127.0,127.0,127.0,110.0,83.0,-52.0
127.0,125.0,124.0,127.0,126.0,135.0,126.0,128.0,17.0,-105.0,-81.0,127.0,127.0,127.0,110.0,83.0,-52.0
127.0,125.0,124.0,127.0,127.0,134.0,126.0,128.0,17.0,-105.0,-81.0,127.0,127.0,127.0,110.0,83.0,-52.0
127.0,125.0,124.0,127.0,127.0,134.0,126.0,128.0,17.0,-105.0,-81.0,127.0,127.0,127.0,110.0,83.0,-52.0
127.0,125.0,123.0,127.0,127.0,134.0,126.0,128.0,17.0,-105.0,-81.0,127.0,127.0,127.0,110.0,83.0,-52.0
127.0,125.0,123.0,127.0,126.0,133.0,126.0,128.0,17.0,-105.0,-81.0,127.0,127.0,127.0,110.0,83.0,-52.0
127.0,126.0,123.0,127.0,126.0,133.0,126.0,128.0,17.0,-105.0,-81.0,127.0,127.0,127.0,110.0,83.0,-52.0
127.0,126.0,123.0,127.0,126.0,133.0,127.0,128.0,17.0,-105.0,-81.0,127.0,127.0,127.0,110.0,83.0,-52.0
127.0,125.0,124.0,127.0,126.0,134.0,126.0,128.0,18.0,-105.0,-81.0,127.0,127.0,127.0,110.0,83.0,-52.0
127.0,125.0,124.0,127.0,126.0,134.0,126.0,128.0,18.0,-105.0,-81.0,127.0,127.0,127.0,110.0,83.0,-52.0
127.0,125.0,125.0,127.0,126.0,134.0,126.0,128.0,18.0,-105.0,-81.0,127.0,127.0,127.0,110.0,83.0,-52.0
127.0,125.0,125.0,127.0,127.0,134.0,126.0,128.0,18.0,-105.0,-81.0,127.0,127.0,127.0,110.0,83.0,-52.0
127.0,125.0,125.0,128.0,127.0,134.0,126.0,128.0,18.0,-105.0,-81.0,127.0,127.0,127.0,110.0,83.0,-52.0
127.0,125.0,125.0,128.0,127.0,133.0,126.0,128.0,18.0,-105.0,-81.0,127.0,127.0,127.0,110.0,83.0,-52.0
127.0,125.0,125.0,128.0,127.0,133.0,126.0,128.0,18.0,-105.0,-81.0,127.0,127.0,127.0,110.0,83.0,-52.0
127.0,126.0,125.0,128.0,127.0,133.0,126.0,128.0,18.0,-105.0,-81.0,127.0,127.0,127.0,110.0,83.0,-52.0
127.0,126.0,125.0,128.0,127.0,132.0,127.0,128.0,18.0,-105.0,-81.0,127.0,127.0,127.0,110.0,83.0,-52.0
127.0,125.0,124.0,127.0,126.0,135.0,126.0,128.0,18.0,-105.0,-81.0,127.0,127.0,127.0,110.0,83.0,-52.0
127.0,125.0,131.0,127.0,126.0,134.0,126.0,128.0,18.0,-105.0,-81.0,127.0,127.0,127.0,110.0,83.0,-52.0
127.0,125.0,131.0,127.0,126.0,134.0,126.0,128.0,18.0,-105.0,-81.0,127.0,127.0,127.0,110.0,83.0,-52.0
127.0,125.0,131.0,127.0,126.0,134.0,126.0,128.0,18.0,-105.0,-81.0,127.0,127.0,127.0,110.0,83.0,-52.0
127.0,125.0,131.0,127.0,126.0,133.0,126.0,128.0,18.0,-105.0,-81.0,127.0,127.0,127.0,110.0,83.0,-52.0
127.0,125.0,131.0,127.0,127.0,133.0,126.0,128.0,18.0,-105.0,-81.0,127.0,127.0,127.0,110.0,83.0,-52.0
127.0,126.0,131.0,127.0,126.0,133.0,126.0,128.0,18.0,-105.0,-81.0,127.0,127.0,127.0,110.0,83.0,-52.0
127.0,125.0,131.0,127.0,126.0,132.0,126.0,128.0,18.0,-105.0,-81.0,127.0,127.0,127.0,110.0,83.0,-52.0
127.0,126.0,131.0,127.0,126.0,132.0,126.0,128.0,18.0,-105.0,-81.0,127.0,127.0,127.0,110.0,83.0,-52.0
127.0,125.0,130.0,127.0,127.0,134.0,126.0,128.0,18.0,-105.0,-81.0,127.0,127.0,127.0,110.0,83.0,-52.0
127.0,125.0,130.0,127.0,127.0,134.0,126.0,128.0,18.0,-105.0,-81.0,127.0,127.0,127.0,110.0,83.0,-52.0
127.0,125.0,132.0,127.0,126.0,134.0,126.0,128.0,19.0,-105.0,-80.0,127.0,127.0,127.0,110.0,83.0,-52.0
127.0,125.0,132.0,127.0,126.0,134.0,126.0,128.0,19.0,-105.0,-80.0,127.0,127.0,127.0,110.0,83.0,-52.0
127.0,125.0,132.0,127.0,126.0,134.0,126.0,128.0,19.0,-105.0,-80.0,127.0,127.0,127.0,110.0,83.0,-52.0
127.0,125.0,132.0,127.0,126.0,133.0,126.0,128.0,19.0,-105.0,-80.0,127.0,127.0,127.0,110.0,83.0,-52.0
127.0,125.0,132.0,127.0,126.0,133.0,126.0,128.0,19.0,-105.0,-80.0,127.0,127.0,127.0,110.0,83.0,-52.0
127.0,125.0,132.0,127.0,126.0,133.0,126.0,128.0,19.0,-105.0,-80.0,127.0,127.0,127.0,110.0,83.0,-52.0
127.0,125.0,131.0,128.0,126.0,133.0,126.0,128.0,19.0,-105.0,-80.0,127.0,127.0,127.0,110.0,83.0,-52.0
127.0,125.0,132.0,127.0,126.0,135.0,126.0,128.0,19.0,-105.0,-80.0,127.0,127.0,127.0,110.0,83.0,-52.0
127.0,125.0,132.0,127.0,126.0,134.0,126.0,128.0,19.0,-105.0,-80.0,127.0,127.0,127.0,110.0,83.0,-52.0
127.0,125.0,132.0,127.0,126.0,134.0,126.0,128.0,19.0,-105.0,-80.0,127.0,127.0,127.0,110.0,83.0,-52.0
127.0,126.0,131.0,127.0,126.0,135.0,126.0,128.0,19.0,-105.0,-80.0,127.0,127.0,127.0,110.0,83.0,-52.0
127.0,125.0,131.0,127.0,126.0,135.0,126.0,128.0,19.0,-105.0,-80.0,127.0,127.0,127.0,110.0,83.0,-52.0
127.0,126.0,131.0,128.0,126.0,135.0,126.0,128.0,19.0,-105.0,-80.0,127.0,127.0,127.0,110.0,83.0,-52.0
127.0,126.0,131.0,128.0,126.0,134.0,126.0,128.0,19.0,-105.0,-80.0,127.0,127.0,127.0,110.0,83.0,-52.0
127.0,126.0,131.0,128.0,126.0,134.0,126.0,128.0,19.0,-105.0,-80.0,127.0,127.0,127.0,110.0,83.0,-52.0
127.0,126.0,130.0,128.0,126.0,134.0,126.0,128.0,19.0,-105.0,-80.0,127.0,127.0,127.0,110.0,83.0,-52.0
127.0,126.0,131.0,127.0,126.0,136.0,126.0,128.0,19.0,-105.0,-80.0,127.0,127.0,127.0,110.0,83.0,-52.0
127.0,126.0,131.0,127.0,126.0,136.0,126.0,128.0,19.0,-105.0,-80.0,127.0,127.0,127.0,110.0,83.0,-52.0
127.0,126.0,131.0,127.0,126.0,136.0,126.0,128.0,19.0,-105.0,-80.0,127.0,127.0,127.0,110.0,83.0,-52.0
127.0,126.0,131.0,127.0,126.0,136.0,126.0,128.0,19.0,-105.0,-80.0,127.0,127.0,127.0,110.0,83.0,-52.0
127.0,126.0,132.0,127.0,126.0,134.0,126.0,128.0,20.0,-105.0,-80.0,127.0,127.0,127.0,110.0,83.0,-52.0
127.0,126.0,132.0,127.0,126.0,134.0,126.0,128.0,20.0,-105.0,-80.0,127.0,127.0,127.0,110.0,83.0,-52.0
127.0,125.0,132.0,127.0,126.0,133.0,126.0,128.0,20.0,-105.0,-80.0,127.0,127.0,127.0,110.0,83.0,-52.0
127.0,125.0,132.0,127.0,126.0,133.0,126.0,128.0,20.0,-105.0,-80.0,127.0,127.0,127.0,110.0,83.0,-52.0
127.0,125.0,132.0,127.0,126.0,133.0,126.0,128.0,20.0,-105.0,-80.0,127.0,127.0,127.0,110.0,83.0,-52.0
127.0,127.0,131.0,127.0,126.0,135.0,126.0,128.0,20.0,-105.0,-80.0,127.0,127.0,127.0,110.0,83.0,-52.0
127.0,127.0,132.0,127.0,126.0,135.0,126.0,128.0,20.0,-105.0,-80.0,127.0,127.0,127.0,110.0,83.0,-52.0
127.0,127.0,132.0,127.0,126.0,135.0,126.0,128.0,20.0,-105.0,-80.0,127.0,127.0,127.0,110.0,83.0,-52.0
127.0,126.0,132.0,127.0,126.0,135.0,126.0,128.0,20.0,-105.0,-80.0,127.0,127.0,127.0,110.0,83.0,-52.0
127.0,126.0,132.0,127.0,126.0,134.0,126.0,128.0,20.0,-105.0,-80.0,127.0,127.0,127.0,110.0,83.0,-52.0
127.0,126.0,133.0,127.0,126.0,133.0,126.0,128.0,21.0,-105.0,-80.0,127.0,127.0,127.0,110.0,83.0,-52.0
127.0,126.0,133.0,127.0,126.0,133.0,126.0,127.0,21.0,-105.0,-80.0,127.0,127.0,127.0,110.0,83.0,-52.0
126.0,126.0,133.0,127.0,126.0,134.0,126.0,128.0,21.0,-105.0,-80.0,127.0,127.0,127.0,110.0,83.0,-52.0
126.0,126.0,133.0,127.0,126.0,134.0,126.0,128.0,21.0,-105.0,-80.0,127.0,127.0,127.0,110.0,83.0,-52.0
127.0,125.0,134.0,127.0,126.0,132.0,126.0,127.0,21.0,-105.0,-80.0,127.0,127.0,127.0,110.0,83.0,-52.0
127.0,125.0,134.0,127.0,126.0,132.0,126.0,127.0,21.0,-105.0,-80.0,127.0,127.0,127.0,110.0,83.0,-52.0
127.0,125.0,133.0,127.0,126.0,134.0,126.0,127.0,21.0,-105.0,-80.0,127.0,127.0,127.0,110.0,83.0,-52.0
127.0,126.0,134.0,127.0,126.0,134.0,126.0,128.0,21.0,-105.0,-80.0,127.0,127.0,127.0,110.0,83.0,-52.0
127.0,126.0,134.0,127.0,126.0,133.0,126.0,128.0,21.0,-105.0,-80.0,127.0,127.0,127.0,110.0,83.0,-52.0
127.0,126.0,134.0,127.0,126.0,133.0,126.0,128.0,21.0,-105.0,-80.0,127.0,127.0,127.0,110.0,83.0,-52.0
127.0,126.0,132.0,127.0,127.0,131.0,126.0,128.0,21.0,-105.0,-80.0,127.0,127.0,127.0,110.0,83.0,-52.0
127.0,126.0,132.0,128.0,127.0,132.0,126.0,128.0,21.0,-105.0,-80.0,127.0,127.0,127.0,110.0,83.0,-52.0
127.0,127.0,131.0,128.0,127.0,132.0,126.0,128.0,21.0,-105.0,-80.0,127.0,127.0,127.0,110.0,83.0,-52.0
127.0,125.0,134.0,127.0,126.0,131.0,126.0,127.0,21.0,-105.0,-80.0,127.0,127.0,127.0,110.0,83.0,-52.0
127.0,125.0,134.0,127.0,126.0,131.0,126.0,127.0,21.0,-105.0,-80.0,127.0,127.0,127.0,110.0,83.0,-52.0
127.0,126.0,133.0,127.0,126.0,132.0,126.0,128.0,21.0,-105.0,-80.0,127.0,127.0,127.0,110.0,83.0,-52.0
127.0,126.0,133.0,127.0,126.0,132.0,126.0,128.0,21.0,-105.0,-80.0,127.0,127.0,127.0,110.0,83.0,-52.0
127.0,126.0,133.0,127.0,126.0,132.0,126.0,128.0,21.0,-105.0,-80.0,127.0,127.0,127.0,110.0,83.0,-52.0
127.0,126.0,133.0,127.0,126.0,132.0,126.0,128.0,21.0,-105.0,-80.0,127.0,127.0,127.0,110.0,83.0,-52.0
127.0,126.0,133.0,127.0,127.0,132.0,126.0,128.0,21.0,-105.0,-80.0,127.0,127.0,127.0,110.0,83.0,-52.0
127.0,126.0,132.0,127.0,126.0,132.0,126.0,128.0,21.0,-105.0,-79.0,127.0,127.0,127.0,111.0,83.0,-52.0
127.0,125.0,134.0,127.0,126.0,129.0,126.0,128.0,21.0,-105.0,-79.0,127.0,127.0,127.0,111.0,83.0,-52.0
127.0,125.0,134.0,127.0,126.0,130.0,126.0,127.0,21.0,-105.0,-79.0,127.0,127.0,127.0,111.0,83.0,-52.0
127.0,125.0,134.0,127.0,126.0,130.0,126.0,128.0,21.0,-105.0,-79.0,127.0,127.0,127.0,111.0,83.0,-52.0
127.0,126.0,133.0,127.0,126.0,132.0,126.0,128.0,21.0,-105.0,-79.0,127.0,127.0,127.0,111.0,83.0,-52.0
127.0,126.0,133.0,127.0,126.0,132.0,126.0,128.0,21.0,-105.0,-79.0,127.0,127.0,127.0,111.0,83.0,-52.0
127.0,126.0,133.0,127.0,126.0,132.0,126.0,128.0,21.0,-105.0,-79.0,127.0,127.0,127.0,111.0,83.0,-52.0
127.0,126.0,133.0,127.0,126.0,131.0,126.0,128.0,21.0,-105.0,-79.0,127.0,127.0,127.0,111.0,83.0,-52.0
127.0,126.0,133.0,127.0,126.0,131.0,126.0,128.0,21.0,-105.0,-79.0,127.0,127.0,127.0,111.0,83.0,-52.0
127.0,126.0,133.0,127.0,126.0,131.0,126.0,128.0,21.0,-105.0,-79.0,127.0,127.0,127.0,111.0,83.0,-52.0
127.0,125.0,132.0,127.0,126.0,130.0,126.0,127.0,21.0,-104.0,-79.0,127.0,127.0,127.0,111.0,83.0,-52.0
127.0,125.0,132.0,127.0,126.0,130.0,126.0,128.0,21.0,-104.0,-79.0,127.0,127.0,127.0,111.0,83.0,-52.0
127.0,125.0,132.0,127.0,126.0,131.0,126.0,128.0,21.0,-104.0,-79.0,127.0,127.0,127.0,111.0,83.0,-52.0
127.0,126.0,131.0,127.0,127.0,132.0,126.0,128.0,21.0,-104.0,-79.0,127.0,127.0,127.0,111.0,83.0,-52.0
127.0,126.0,131.0,127.0,127.0,132.0,126.0,128.0,21.0,-104.0,-79.0,127.0,127.0,127.0,111.0,83.0,-52.0
127.0,126.0,131.0,127.0,127.0,132.0,126.0,128.0,21.0,-104.0,-79.0,127.0,127.0,127.0,111.0,83.0,-52.0
127.0,126.0,131.0,127.0,127.0,132.0,126.0,128.0,21.0,-104.0,-79.0,127.0,127.0,127.0,111.0,83.0,-52.0
127.0,126.0,131.0,127.0,127.0,132.0,126.0,128.0,21.0,-104.0,-79.0,127.0,127.0,127.0,111.0,83.0,-52.0
127.0,126.0,131.0,127.0,127.0,132.0,126.0,128.0,21.0,-104.0,-79.0,127.0,127.0,127.0,111.0,83.0,-52.0
127.0,126.0,130.0,127.0,127.0,132.0,126.0,128.0,21.0,-104.0,-79.0,127.0,127.0,127.0,111.0,83.0,-52.0
127.0,126.0,130.0,127.0,126.0,131.0,126.0,127.0,21.0,-104.0,-79.0,127.0,127.0,127.0,111.0,83.0,-52.0
127.0,126.0,130.0,127.0,126.0,131.0,126.0,127.0,21.0,-104.0,-79.0,127.0,127.0,127.0,111.0,83.0,-52.0
127.0,127.0,130.0,127.0,126.0,132.0,126.0,128.0,21.0,-104.0,-79.0,127.0,127.0,127.0,111.0,83.0,-52.0
127.0,127.0,129.0,127.0,126.0,133.0,126.0,128.0,21.0,-104.0,-79.0,127.0,127.0,127.0,111.0,83.0,-52.0
127.0,127.0,130.0,127.0,126.0,133.0,126.0,128.0,21.0,-104.0,-79.0,127.0,127.0,127.0,111.0,83.0,-52.0
127.0,127.0,130.0,127.0,126.0,132.0,126.0,128.0,21.0,-104.0,-79.0,127.0,127.0,127.0,111.0,83.0,-52.0
127.0,126.0,130.0,127.0,126.0,132.0,126.0,128.0,21.0,-104.0,-79.0,127.0,127.0,127.0,111.0,83.0,-52.0
127.0,126.0,130.0,127.0,126.0,132.0,126.0,128.0,21.0,-104.0,-79.0,127.0,127.0,127.0,111.0,83.0,-52.0
127.0,126.0,130.0,127.0,126.0,132.0,126.0,127.0,21.0,-104.0,-79.0,127.0,127.0,127.0,111.0,83.0,-52.0
127.0,125.0,130.0,127.0,126.0,130.0,126.0,127.0,21.0,-104.0,-79.0,127.0,127.0,127.0,111.0,83.0,-52.0
127.0,125.0,128.0,127.0,126.0,134.0,126.0,128.0,20.0,-103.0,-79.0,127.0,127.0,127.0,111.0,83.0,-52.0
127.0,125.0,128.0,127.0,126.0,133.0,126.0,128.0,20.0,-103.0,-79.0,127.0,127.0,127.0,111.0,83.0,-52.0
127.0,125.0,128.0,127.0,126.0,133.0,126.0,128.0,20.0,-103.0,-79.0,127.0,127.0,127.0,111.0,83.0,-52.0
127.0,125.0,128.0,127.0,126.0,133.0,126.0,128.0,20.0,-103.0,-79.0,127.0,127.0,127.0,111.0,83.0,-52.0
127.0,125.0,128.0,127.0,126.0,133.0,126.0,128.0,20.0,-103.0,-79.0,127.0,127.0,127.0,111.0,83.0,-52.0
127.0,125.0,128.0,127.0,126.0,133.0,127.0,128.0,20.0,-103.0,-79.0,127.0,127.0,127.0,111.0,83.0,-52.0
127.0,125.0,128.0,127.0,126.0,133.0,127.0,128.0,20.0,-103.0,-79.0,127.0,127.0,127.0,111.0,83.0,-52.0
127.0,126.0,128.0,127.0,126.0,132.0,127.0,128.0,20.0,-103.0,-79.0,127.0,127.0,127.0,111.0,83.0,-52.0
127.0,125.0,127.0,127.0,126.0,133.0,126.0,128.0,20.0,-103.0,-79.0,127.0,127.0,127.0,111.0,83.0,-52.0
127.0,125.0,128.0,127.0,126.0,134.0,126.0,128.0,20.0,-103.0,-79.0,127.0,127.0,127.0,111.0,83.0,-52.0
127.0,125.0,129.0,127.0,126.0,135.0,126.0,128.0,20.0,-103.0,-80.0,127.0,127.0,127.0,111.0,83.0,-52.0
127.0,125.0,129.0,127.0,126.0,134.0,126.0,128.0,20.0,-103.0,-80.0,127.0,127.0,127.0,111.0,83.0,-52.0
127.0,125.0,129.0,127.0,127.0,134.0,126.0,128.0,20.0,-103.0,-80.0,127.0,127.0,127.0,111.0,83.0,-52.0
127.0,125.0,129.0,127.0,126.0,134.0,126.0,128.0,20.0,-103.0,-80.0,127.0,127.0,127.0,111.0,83.0,-52.0
127.0,125.0,129.0,127.0,126.0,134.0,126.0,128.0,20.0,-103.0,-80.0,127.0,127.0,127.0,111.0,83.0,-52.0
127.0,126.0,129.0,127.0,126.0,134.0,126.0,128.0,20.0,-103.0,-80.0,127.0,127.0,127.0,111.0,83.0,-52.0
127.0,126.0,129.0,127.0,127.0,134.0,127.0,128.0,20.0,-103.0,-80.0,127.0,127.0,127.0,111.0,83.0,-52.0
127.0,126.0,128.0,127.0,126.0,135.0,126.0,128.0,20.0,-103.0,-80.0,127.0,127.0,127.0,111.0,83.0,-52.0
127.0,126.0,128.0,127.0,126.0,135.0,126.0,128.0,20.0,-103.0,-80.0,127.0,127.0,127.0,111.0,83.0,-52.0
127.0,126.0,128.0,127.0,127.0,135.0,126.0,128.0,20.0,-103.0,-80.0,127.0,127.0,127.0,111.0,83.0,-52.0
127.0,126.0,130.0,127.0,126.0,135.0,126.0,128.0,20.0,-103.0,-80.0,127.0,127.0,127.0,111.0,83.0,-52.0
127.0,126.0,130.0,127.0,126.0,135.0,126.0,128.0,20.0,-103.0,-80.0,127.0,127.0,127.0,111.0,83.0,-52.0
127.0,126.0,130.0,127.0,127.0,135.0,126.0,128.0,20.0,-103.0,-80.0,127.0,127.0,127.0,111.0,83.0,-52.0
127.0,126.0,131.0,127.0,127.0,134.0,126.0,128.0,20.0,-103.0,-80.0,127.0,127.0,127.0,111.0,83.0,-52.0
127.0,126.0,130.0,127.0,127.0,134.0,126.0,128.0,20.0,-103.0,-80.0,127.0,127.0,127.0,111.0,83.0,-52.0
127.0,126.0,131.0,127.0,127.0,134.0,126.0,128.0,20.0,-103.0,-80.0,127.0,127.0,127.0,111.0,83.0,-52.0
127.0,126.0,129.0,127.0,127.0,136.0,126.0,128.0,20.0,-103.0,-80.0,127.0,127.0,127.0,111.0,83.0,-52.0
127.0,126.0,129.0,127.0,127.0,136.0,126.0,128.0,20.0,-103.0,-80.0,127.0,127.0,127.0,111.0,83.0,-52.0
127.0,126.0,130.0,127.0,127.0,136.0,126.0,128.0,20.0,-103.0,-80.0,127.0,127.0,127.0,111.0,83.0,-52.0
127.0,126.0,130.0,127.0,127.0,135.0,126.0,128.0,20.0,-103.0,-80.0,127.0,127.0,127.0,111.0,83.0,-52.0
127.0,125.0,132.0,127.0,126.0,134.0,126.0,128.0,20.0,-103.0,-80.0,127.0,127.0,127.0,111.0,83.0,-52.0
127.0,125.0,132.0,127.0,126.0,134.0,126.0,128.0,20.0,-103.0,-80.0,127.0,127.0,127.0,111.0,83.0,-52.0
127.0,126.0,131.0,127.0,127.0,135.0,126.0,128.0,20.0,-103.0,-80.0,127.0,127.0,127.0,111.0,83.0,-52.0
127.0,126.0,131.0,127.0,127.0,135.0,126.0,128.0,20.0,-103.0,-80.0,127.0,127.0,127.0,111.0,83.0,-52.0
127.0,126.0,131.0,127.0,127.0,135.0,126.0,128.0,20.0,-103.0,-80.0,127.0,127.0,127.0,111.0,83.0,-52.0
127.0,125.0,132.0,127.0,126.0,133.0,126.0,127.0,20.0,-103.0,-80.0,127.0,127.0,127.0,111.0,83.0,-52.0
127.0,126.0,131.0,127.0,127.0,134.0,126.0,128.0,20.0,-103.0,-80.0,127.0,127.0,127.0,111.0,83.0,-52.0
127.0,125.0,132.0,127.0,127.0,134.0,126.0,128.0,20.0,-103.0,-80.0,127.0,127.0,127.0,111.0,83.0,-52.0
127.0,125.0,132.0,127.0,127.0,134.0,126.0,128.0,20.0,-103.0,-80.0,127.0,127.0,127.0,111.0,83.0,-52.0
127.0,125.0,132.0,127.0,127.0,134.0,126.0,128.0,20.0,-103.0,-80.0,127.0,127.0,127.0,111.0,83.0,-52.0
127.0,125.0,129.0,127.0,126.0,135.0,126.0,128.0,20.0,-103.0,-80.0,127.0,127.0,127.0,111.0,83.0,-52.0
127.0,126.0,129.0,127.0,127.0,136.0,126.0,128.0,20.0,-103.0,-80.0,127.0,127.0,127.0,111.0,83.0,-52.0
127.0,126.0,129.0,127.0,127.0,137.0,126.0,128.0,20.0,-103.0,-80.0,127.0,127.0,127.0,111.0,83.0,-52.0
127.0,126.0,128.0,127.0,127.0,136.0,126.0,128.0,20.0,-103.0,-80.0,127.0,127.0,127.0,111.0,83.0,-52.0
127.0,125.0,129.0,127.0,126.0,134.0,126.0,128.0,20.0,-103.0,-80.0,127.0,127.0,127.0,111.0,83.0,-52.0
127.0,125.0,129.0,127.0,126.0,135.0,126.0,128.0,20.0,-103.0,-80.0,127.0,127.0,127.0,111.0,83.0,-52.0
127.0,125.0,129.0,127.0,126.0,136.0,126.0,128.0,20.0,-103.0,-80.0,127.0,127.0,127.0,111.0,83.0,-52.0
127.0,125.0,129.0,127.0,126.0,136.0,126.0,128.0,20.0,-103.0,-80.0,127.0,127.0,127.0,111.0,83.0,-52.0
127.0,125.0,129.0,127.0,126.0,135.0,126.0,128.0,20.0,-103.0,-80.0,127.0,127.0,127.0,111.0,83.0,-52.0
127.0,125.0,129.0,127.0,126.0,135.0,126.0,128.0,20.0,-103.0,-80.0,127.0,127.0,127.0,111.0,83.0,-52.0
127.0,126.0,129.0,127.0,127.0,138.0,126.0,128.0,20.0,-103.0,-79.0,127.0,127.0,127.0,111.0,83.0,-52.0
127.0,126.0,128.0,127.0,127.0,139.0,126.0,128.0,20.0,-103.0,-79.0,127.0,127.0,127.0,111.0,83.0,-52.0
127.0,126.0,128.0,127.0,127.0,139.0,126.0,128.0,20.0,-103.0,-79.0,127.0,127.0,127.0,111.0,83.0,-52.0
127.0,125.0,129.0,127.0,127.0,136.0,126.0,128.0,20.0,-103.0,-79.0,127.0,127.0,127.0,111.0,83.0,-52.0
127.0,126.0,129.0,127.0,127.0,137.0,126.0,128.0,20.0,-103.0,-79.0,127.0,127.0,127.0,111.0,83.0,-52.0
127.0,126.0,129.0,127.0,127.0,138.0,126.0,128.0,20.0,-103.0,-79.0,127.0,127.0,127.0,111.0,83.0,-52.0
127.0,126.0,129.0,127.0,127.0,138.0,126.0,128.0,20.0,-103.0,-79.0,127.0,127.0,127.0,111.0,83.0,-52.0
127.0,126.0,129.0,127.0,127.0,137.0,126.0,128.0,20.0,-103.0,-79.0,127.0,127.0,127.0,111.0,83.0,-52.0
127.0,126.0,129.0,127.0,127.0,137.0,126.0,128.0,20.0,-103.0,-79.0,127.0,127.0,127.0,111.0,83.0,-52.0
127.0,126.0,129.0,127.0,127.0,137.0,126.0,128.0,20.0,-103.0,-79.0,127.0,127.0,127.0,111.0,83.0,-52.0
126.0,126.0,129.0,127.0,127.0,139.0,126.0,128.0,21.0,-103.0,-79.0,127.0,127.0,127.0,111.0,84.0,-52.0
126.0,126.0,129.0,127.0,127.0,139.0,126.0,128.0,21.0,-103.0,-79.0,127.0,127.0,127.0,111.0,84.0,-52.0
127.0,125.0,129.0,127.0,127.0,136.0,126.0,127.0,21.0,-103.0,-79.0,127.0,127.0,127.0,111.0,84.0,-52.0
127.0,125.0,128.0,127.0,127.0,138.0,126.0,128.0,21.0,-103.0,-79.0,127.0,127.0,127.0,111.0,84.0,-52.0
127.0,125.0,129.0,127.0,127.0,138.0,126.0,128.0,21.0,-103.0,-79.0,127.0,127.0,127.0,111.0,84.0,-52.0
127.0,125.0,129.0,127.0,127.0,138.0,126.0,128.0,21.0,-103.0,-79.0,127.0,127.0,127.0,111.0,84.0,-52.0
127.0,125.0,129.0,127.0,127.0,138.0,126.0,128.0,21.0,-103.0,-79.0,127.0,127.0,127.0,111.0,84.0,-52.0
127.0,125.0,129.0,127.0,127.0,138.0,126.0,128.0,21.0,-103.0,-79.0,127.0,127.0,127.0,111.0,84.0,-52.0
127.0,125.0,129.0,127.0,127.0,137.0,126.0,128.0,21.0,-103.0,-79.0,127.0,127.0,127.0,111.0,84.0,-52.0
126.0,126.0,129.0,127.0,127.0,138.0,126.0,128.0,21.0,-103.0,-79.0,127.0,127.0,127.0,111.0,84.0,-52.0
127.0,126.0,131.0,127.0,127.0,138.0,126.0,128.0,22.0,-103.0,-79.0,127.0,127.0,127.0,111.0,84.0,-51.0
127.0,125.0,131.0,127.0,127.0,136.0,126.0,127.0,22.0,-103.0,-79.0,127.0,127.0,127.0,111.0,84.0,-51.0
127.0,126.0,131.0,127.0,127.0,138.0,126.0,128.0,22.0,-103.0,-79.0,127.0,127.0,127.0,111.0,84.0,-51.0
127.0,126.0,131.0,127.0,127.0,138.0,126.0,128.0,22.0,-103.0,-79.0,127.0,127.0,127.0,111.0,84.0,-51.0
127.0,126.0,131.0,127.0,127.0,138.0,126.0,128.0,22.0,-103.0,-79.0,127.0,127.0,127.0,111.0,84.0,-51.0
127.0,126.0,131.0,127.0,127.0,138.0,126.0,128.0,22.0,-103.0,-79.0,127.0,127.0,127.0,111.0,84.0,-51.0
127.0,126.0,131.0,127.0,127.0,137.0,126.0,128.0,22.0,-103.0,-79.0,127.0,127.0,127.0,111.0,84.0,-51.0
127.0,126.0,131.0,127.0,127.0,137.0,126.0,128.0,22.0,-103.0,-79.0,127.0,127.0,127.0,111.0,84.0,-51.0
127.0,126.0,131.0,127.0,127.0,138.0,126.0,128.0,22.0,-103.0,-79.0,127.0,127.0,127.0,111.0,84.0,-51.0
127.0,126.0,131.0,127.0,127.0,139.0,126.0,128.0,22.0,-103.0,-79.0,127.0,127.0,127.0,111.0,84.0,-51.0
127.0,125.0,131.0,127.0,126.0,136.0,126.0,128.0,23.0,-103.0,-79.0,127.0,127.0,127.0,111.0,84.0,-51.0
127.0,126.0,131.0,127.0,126.0,137.0,126.0,128.0,23.0,-103.0,-79.0,127.0,127.0,127.0,111.0,84.0,-51.0
127.0,126.0,131.0,127.0,126.0,138.0,126.0,128.0,23.0,-103.0,-79.0,127.0,127.0,127.0,111.0,84.0,-51.0
127.0,126.0,131.0,127.0,126.0,138.0,126.0,128.0,23.0,-103.0,-79.0,127.0,127.0,127.0,111.0,84.0,-51.0
127.0,125.0,131.0,127.0,126.0,137.0,126.0,128.0,23.0,-103.0,-79.0,127.0,127.0,127.0,111.0,84.0,-51.0
127.0,125.0,131.0,127.0,126.0,137.0,126.0,128.0,23.0,-103.0,-79.0,127.0,127.0,127.0,111.0,84.0,-51.0
127.0,125.0,131.0,127.0,126.0,137.0,126.0,128.0,23.0,-103.0,-79.0,127.0,127.0,127.0,111.0,84.0,-51.0
127.0,126.0,131.0,127.0,126.0,138.0,126.0,128.0,23.0,-103.0,-79.0,127.0,127.0,127.0,111.0,84.0,-51.0
127.0,126.0,131.0,127.0,126.0,138.0,126.0,128.0,23.0,-103.0,-79.0,127.0,127.0,127.0,111.0,84.0,-51.0
127.0,126.0,131.0,127.0,126.0,138.0,126.0,128.0,23.0,-103.0,-79.0,127.0,127.0,127.0,111.0,84.0,-51.0
127.0,125.0,129.0,127.0,126.0,136.0,126.0,128.0,23.0,-104.0,-79.0,127.0,127.0,127.0,111.0,84.0,-51.0
127.0,126.0,129.0,127.0,126.0,137.0,126.0,128.0,23.0,-104.0,-79.0,127.0,127.0,127.0,111.0,84.0,-51.0
127.0,126.0,129.0,127.0,126.0,137.0,126.0,128.0,23.0,-104.0,-79.0,127.0,127.0,127.0,111.0,84.0,-51.0
127.0,126.0,129.0,127.0,126.0,137.0,126.0,128.0,23.0,-104.0,-79.0,127.0,127.0,127.0,111.0,84.0,-51.0
127.0,126.0,129.0,127.0,126.0,137.0,126.0,128.0,23.0,-104.0,-79.0,127.0,127.0,127.0,111.0,84.0,-51.0
127.0,126.0,129.0,127.0,126.0,137.0,126.0,128.0,23.0,-104.0,-79.0,127.0,127.0,127.0,111.0,84.0,-51.0
127.0,126.0,129.0,127.0,126.0,137.0,126.0,128.0,23.0,-104.0,-79.0,127.0,127.0,127.0,111.0,84.0,-51.0
127.0,126.0,128.0,127.0,127.0,138.0,126.0,128.0,23.0,-104.0,-79.0,127.0,127.0,127.0,111.0,84.0,-51.0
127.0,126.0,128.0,127.0,127.0,138.0,126.0,128.0,23.0,-104.0,-79.0,127.0,127.0,127.0,111.0,84.0,-51.0
127.0,125.0,129.0,127.0,126.0,135.0,126.0,128.0,23.0,-104.0,-79.0,127.0,127.0,127.0,111.0,84.0,-51.0
127.0,125.0,128.0,127.0,127.0,136.0,126.0,128.0,23.0,-104.0,-79.0,127.0,127.0,127.0,111.0,84.0,-51.0
127.0,125.0,128.0,127.0,127.0,136.0,126.0,128.0,23.0,-104.0,-79.0,127.0,127.0,127.0,111.0,84.0,-51.0
127.0,125.0,128.0,127.0,127.0,136.0,126.0,128.0,23.0,-104.0,-79.0,127.0,127.0,127.0,111.0,84.0,-51.0
127.0,125.0,128.0,127.0,127.0,136.0,126.0,128.0,23.0,-104.0,-79.0,127.0,127.0,127.0,111.0,84.0,-51.0
127.0,125.0,128.0,127.0,127.0,136.0,126.0,128.0,23.0,-104.0,-79.0,127.0,127.0,127.0,111.0,84.0,-51.0
127.0,125.0,128.0,127.0,126.0,136.0,126.0,128.0,23.0,-104.0,-79.0,127.0,127.0,127.0,111.0,84.0,-51.0
127.0,126.0,128.0,127.0,127.0,137.0,126.0,128.0,23.0,-104.0,-79.0,127.0,127.0,127.0,111.0,84.0,-51.0
127.0,126.0,128.0,127.0,127.0,137.0,126.0,128.0,23.0,-104.0,-79.0,127.0,127.0,127.0,111.0,84.0,-51.0
127.0,125.0,129.0,127.0,127.0,134.0,126.0,128.0,23.0,-104.0,-79.0,127.0,127.0,127.0,111.0,84.0,-51.0
127.0,125.0,128.0,127.0,127.0,135.0,126.0,128.0,23.0,-104.0,-79.0,127.0,127.0,127.0,111.0,84.0,-51.0
127.0,125.0,128.0,126.0,126.0,135.0,126.0,128.0,23.0,-105.0,-79.0,127.0,127.0,127.0,111.0,84.0,-51.0
127.0,125.0,128.0,126.0,126.0,135.0,126.0,128.0,23.0,-105.0,-79.0,127.0,127.0,127.0,111.0,84.0,-51.0
127.0,125.0,128.0,126.0,126.0,135.0,126.0,128.0,23.0,-105.0,-79.0,127.0,127.0,127.0,111.0,84.0,-51.0
127.0,125.0,128.0,127.0,126.0,135.0,126.0,128.0,23.0,-105.0,-79.0,127.0,127.0,127.0,111.0,84.0,-51.0
127.0,125.0,128.0,127.0,126.0,135.0,126.0,128.0,23.0,-105.0,-79.0,127.0,127.0,127.0,111.0,84.0,-51.0
127.0,125.0,128.0,127.0,126.0,134.0,126.0,128.0,23.0,-105.0,-79.0,127.0,127.0,127.0,111.0,84.0,-51.0
127.0,125.0,127.0,127.0,126.0,135.0,126.0,128.0,23.0,-105.0,-79.0,127.0,127.0,127.0,111.0,84.0,-51.0
127.0,125.0,127.0,127.0,126.0,135.0,126.0,128.0,23.0,-105.0,-79.0,127.0,127.0,127.0,111.0,84.0,-51.0
127.0,125.0,127.0,127.0,126.0,135.0,126.0,128.0,23.0,-105.0,-79.0,127.0,127.0,127.0,111.0,84.0,-51.0
127.0,125.0,127.0,126.0,126.0,135.0,126.0,128.0,23.0,-105.0,-79.0,127.0,127.0,127.0,111.0,84.0,-51.0
127.0,125.0,126.0,126.0,126.0,137.0,126.0,128.0,22.0,-105.0,-79.0,127.0,127.0,127.0,111.0,84.0,-51.0
127.0,126.0,125.0,126.0,127.0,138.0,126.0,128.0,22.0,-105.0,-79.0,127.0,127.0,127.0,111.0,84.0,-51.0
127.0,126.0,125.0,126.0,127.0,138.0,126.0,128.0,22.0,-105.0,-79.0,127.0,127.0,127.0,111.0,84.0,-51.0
127.0,126.0,126.0,126.0,127.0,138.0,126.0,128.0,22.0,-105.0,-79.0,127.0,127.0,127.0,111.0,84.0,-51.0
127.0,126.0,126.0,126.0,127.0,138.0,126.0,128.0,22.0,-105.0,-79.0,127.0,127.0,127.0,111.0,84.0,-51.0
127.0,126.0,126.0,126.0,127.0,138.0,126.0,128.0,22.0,-105.0,-79.0,127.0,127.0,127.0,111.0,84.0,-51.0
127.0,126.0,125.0,127.0,127.0,138.0,126.0,128.0,22.0,-105.0,-79.0,127.0,127.0,127.0,111.0,84.0,-51.0
127.0,126.0,125.0,127.0,127.0,138.0,126.0,128.0,22.0,-105.0,-79.0,127.0,127.0,127.0,111.0,84.0,-51.0
127.0,126.0,125.0,126.0,127.0,138.0,126.0,128.0,22.0,-105.0,-79.0,127.0,127.0,127.0,111.0,84.0,-51.0
127.0,125.0,126.0,126.0,126.0,137.0,126.0,128.0,22.0,-105.0,-79.0,127.0,127.0,127.0,111.0,84.0,-51.0
127.0,126.0,126.0,126.0,126.0,137.0,126.0,128.0,22.0,-105.0,-79.0,127.0,127.0,127.0,111.0,84.0,-51.0
127.0,126.0,126.0,126.0,126.0,137.0,126.0,128.0,22.0,-105.0,-79.0,127.0,127.0,127.0,111.0,84.0,-51.0
127.0,126.0,126.0,126.0,126.0,137.0,126.0,128.0,22.0,-105.0,-79.0,127.0,127.0,127.0,111.0,84.0,-51.0
127.0,126.0,126.0,126.0,126.0,137.0,126.0,128.0,22.0,-105.0,-79.0,127.0,127.0,127.0,111.0,84.0,-51.0
127.0,126.0,126.0,126.0,126.0,137.0,126.0,128.0,22.0,-105.0,-79.0,127.0,127.0,127.0,111.0,84.0,-51.0
127.0,126.0,126.0,126.0,127.0,136.0,126.0,128.0,22.0,-105.0,-79.0,127.0,127.0,127.0,111.0,84.0,-51.0
127.0,126.0,126.0,126.0,127.0,136.0,126.0,128.0,22.0,-105.0,-79.0,127.0,127.0,127.0,111.0,84.0,-51.0
127.0,125.0,126.0,126.0,127.0,136.0,126.0,128.0,22.0,-105.0,-79.0,127.0,127.0,127.0,111.0,84.0,-51.0
127.0,126.0,127.0,126.0,127.0,136.0,126.0,128.0,22.0,-105.0,-79.0,127.0,127.0,127.0,111.0,84.0,-51.0
127.0,126.0,127.0,126.0,126.0,136.0,126.0,128.0,22.0,-105.0,-79.0,127.0,127.0,127.0,111.0,84.0,-51.0
127.0,125.0,126.0,127.0,127.0,138.0,126.0,128.0,21.0,-105.0,-80.0,127.0,127.0,127.0,111.0,84.0,-51.0
127.0,125.0,126.0,127.0,127.0,137.0,126.0,128.0,21.0,-105.0,-80.0,127.0,127.0,127.0,111.0,84.0,-51.0
127.0,125.0,126.0,127.0,127.0,137.0,126.0,128.0,21.0,-105.0,-80.0,127.0,127.0,127.0,111.0,84.0,-51.0
127.0,126.0,125.0,127.0,127.0,137.0,126.0,128.0,21.0,-105.0,-80.0,127.0,127.0,127.0,111.0,84.0,-51.0
126.0,125.0,125.0,127.0,127.0,136.0,126.0,128.0,21.0,-105.0,-80.0,127.0,127.0,127.0,111.0,84.0,-51.0
127.0,125.0,126.0,127.0,126.0,136.0,126.0,128.0,21.0,-105.0,-80.0,127.0,127.0,127.0,111.0,84.0,-51.0
127.0,125.0,126.0,127.0,126.0,136.0,126.0,128.0,21.0,-105.0,-80.0,127.0,127.0,127.0,111.0,84.0,-51.0
126.0,125.0,126.0,127.0,126.0,136.0,126.0,127.0,21.0,-105.0,-80.0,127.0,127.0,127.0,111.0,84.0,-51.0
127.0,125.0,126.0,127.0,126.0,136.0,126.0,128.0,21.0,-105.0,-80.0,127.0,127.0,127.0,111.0,84.0,-51.0
126.0,125.0,126.0,127.0,126.0,137.0,126.0,128.0,21.0,-105.0,-80.0,127.0,127.0,127.0,111.0,84.0,-51.0
127.0,126.0,126.0,126.0,126.0,138.0,126.0,128.0,21.0,-106.0,-80.0,127.0,127.0,127.0,111.0,84.0,-51.0
127.0,126.0,126.0,126.0,126.0,137.0,126.0,128.0,21.0,-106.0,-80.0,127.0,127.0,127.0,111.0,84.0,-51.0
127.0,126.0,125.0,126.0,127.0,136.0,126.0,128.0,21.0,-106.0,-80.0,127.0,127.0,127.0,111.0,84.0,-51.0
127.0,126.0,125.0,126.0,127.0,136.0,126.0,128.0,21.0,-106.0,-80.0,127.0,127.0,127.0,111.0,84.0,-51.0
127.0,126.0,125.0,126.0,127.0,136.0,126.0,128.0,21.0,-106.0,-80.0,127.0,127.0,127.0,111.0,84.0,-51.0
127.0,126.0,126.0,126.0,126.0,136.0,126.0,128.0,21.0,-106.0,-80.0,127.0,127.0,127.0,111.0,84.0,-51.0
127.0,126.0,126.0,126.0,126.0,136.0,126.0,128.0,21.0,-106.0,-80.0,127.0,127.0,127.0,111.0,84.0,-51.0
127.0,126.0,126.0,126.0,126.0,136.0,126.0,128.0,21.0,-106.0,-80.0,127.0,127.0,127.0,111.0,84.0,-51.0
127.0,126.0,126.0,126.0,126.0,137.0,126.0,128.0,21.0,-106.0,-80.0,127.0,127.0,127.0,111.0,84.0,-51.0
127.0,126.0,126.0,126.0,126.0,138.0,126.0,128.0,21.0,-106.0,-80.0,127.0,127.0,127.0,111.0,84.0,-51.0
127.0,126.0,130.0,126.0,127.0,136.0,126.0,128.0,20.0,-106.0,-80.0,127.0,127.0,127.0,111.0,84.0,-51.0
127.0,126.0,128.0,126.0,126.0,135.0,126.0,128.0,20.0,-106.0,-80.0,127.0,127.0,127.0,111.0,84.0,-51.0
127.0,126.0,129.0,126.0,127.0,135.0,126.0,128.0,20.0,-106.0,-80.0,127.0,127.0,127.0,111.0,84.0,-51.0
127.0,126.0,129.0,126.0,127.0,135.0,126.0,128.0,20.0,-106.0,-80.0,127.0,127.0,127.0,111.0,84.0,-51.0
127.0,125.0,129.0,126.0,127.0,135.0,126.0,128.0,20.0,-106.0,-80.0,127.0,127.0,127.0,111.0,84.0,-51.0
127.0,125.0,129.0,126.0,126.0,135.0,126.0,128.0,20.0,-106.0,-80.0,127.0,127.0,127.0,111.0,84.0,-51.0
127.0,125.0,130.0,126.0,127.0,135.0,126.0,128.0,20.0,-106.0,-80.0,127.0,127.0,127.0,111.0,84.0,-51.0
127.0,126.0,130.0,126.0,127.0,136.0,126.0,128.0,20.0,-106.0,-80.0,127.0,127.0,127.0,111.0,84.0,-51.0
127.0,126.0,130.0,126.0,127.0,136.0,126.0,128.0,20.0,-106.0,-80.0,127.0,127.0,127.0,111.0,84.0,-51.0
127.0,126.0,130.0,126.0,127.0,136.0,126.0,128.0,20.0,-106.0,-80.0,127.0,127.0,127.0,111.0,84.0,-51.0
127.0,126.0,132.0,126.0,126.0,134.0,126.0,128.0,19.0,-106.0,-81.0,127.0,127.0,127.0,111.0,84.0,-51.0
127.0,126.0,132.0,126.0,126.0,135.0,126.0,128.0,19.0,-106.0,-81.0,127.0,127.0,127.0,111.0,84.0,-51.0
127.0,126.0,133.0,126.0,126.0,135.0,126.0,128.0,19.0,-106.0,-81.0,127.0,127.0,127.0,111.0,84.0,-51.0
127.0,126.0,133.0,126.0,126.0,135.0,126.0,128.0,19.0,-106.0,-81.0,127.0,127.0,127.0,111.0,84.0,-51.0
127.0,125.0,133.0,126.0,126.0,135.0,126.0,128.0,19.0,-106.0,-81.0,127.0,127.0,127.0,111.0,84.0,-51.0
127.0,125.0,133.0,126.0,126.0,135.0,126.0,128.0,19.0,-106.0,-81.0,127.0,127.0,127.0,111.0,84.0,-51.0
127.0,125.0,133.0,126.0,126.0,135.0,126.0,128.0,19.0,-106.0,-81.0,127.0,127.0,127.0,111.0,84.0,-51.0
127.0,126.0,133.0,127.0,126.0,136.0,126.0,128.0,19.0,-106.0,-81.0,127.0,127.0,127.0,111.0,84.0,-51.0
127.0,126.0,133.0,127.0,126.0,136.0,126.0,128.0,19.0,-106.0,-81.0,127.0,127.0,127.0,111.0,84.0,-51.0
127.0,126.0,133.0,127.0,126.0,136.0,126.0,128.0,19.0,-106.0,-81.0,127.0,127.0,127.0,111.0,84.0,-51.0
127.0,126.0,132.0,127.0,126.0,136.0,126.0,128.0,17.0,-106.0,-81.0,127.0,127.0,127.0,111.0,84.0,-51.0
127.0,125.0,132.0,127.0,126.0,136.0,126.0,128.0,17.0,-106.0,-81.0,127.0,127.0,127.0,111.0,84.0,-51.0
127.0,125.0,132.0,127.0,126.0,136.0,126.0,128.0,17.0,-106.0,-81.0,127.0,127.0,127.0,111.0,84.0,-51.0
127.0,125.0,132.0,127.0,126.0,136.0,126.0,128.0,17.0,-106.0,-81.0,127.0,127.0,127.0,111.0,84.0,-51.0
127.0,125.0,132.0,127.0,126.0,136.0,126.0,128.0,17.0,-106.0,-81.0,127.0,127.0,127.0,111.0,84.0,-51.0
127.0,125.0,132.0,127.0,126.0,136.0,126.0,128.0,17.0,-106.0,-81.0,127.0,127.0,127.0,111.0,84.0,-51.0
127.0,126.0,131.0,127.0,126.0,137.0,126.0,128.0,17.0,-106.0,-81.0,127.0,127.0,127.0,111.0,84.0,-51.0
127.0,126.0,131.0,127.0,126.0,137.0,126.0,128.0,17.0,-106.0,-81.0,127.0,127.0,127.0,111.0,84.0,-51.0
127.0,126.0,131.0,127.0,126.0,137.0,126.0,128.0,17.0,-106.0,-81.0,127.0,127.0,127.0,111.0,84.0,-51.0
127.0,125.0,132.0,127.0,126.0,135.0,126.0,128.0,17.0,-106.0,-81.0,127.0,127.0,127.0,111.0,84.0,-51.0
127.0,125.0,127.0,127.0,126.0,136.0,126.0,128.0,16.0,-106.0,-82.0,127.0,127.0,127.0,111.0,84.0,-51.0
127.0,125.0,127.0,127.0,126.0,136.0,126.0,128.0,16.0,-106.0,-82.0,127.0,127.0,127.0,111.0,84.0,-51.0
127.0,125.0,127.0,127.0,126.0,136.0,126.0,128.0,16.0,-106.0,-82.0,127.0,127.0,127.0,111.0,84.0,-51.0
127.0,125.0,127.0,127.0,126.0,136.0,126.0,128.0,16.0,-106.0,-82.0,127.0,127.0,127.0,111.0,84.0,-51.0
127.0,125.0,127.0,127.0,126.0,136.0,126.0,128.0,16.0,-106.0,-82.0,127.0,127.0,127.0,111.0,84.0,-51.0
127.0,125.0,127.0,127.0,126.0,136.0,126.0,128.0,16.0,-106.0,-82.0,127.0,127.0,127.0,111.0,84.0,-51.0
127.0,125.0,127.0,127.0,126.0,136.0,126.0,128.0,16.0,-106.0,-82.0,127.0,127.0,127.0,111.0,84.0,-51.0
127.0,125.0,127.0,127.0,126.0,136.0,126.0,128.0,16.0,-106.0,-82.0,127.0,127.0,127.0,111.0,84.0,-51.0
127.0,125.0,127.0,127.0,126.0,136.0,126.0,128.0,16.0,-106.0,-82.0,127.0,127.0,127.0,111.0,84.0,-51.0
127.0,125.0,127.0,127.0,126.0,136.0,126.0,128.0,16.0,-106.0,-82.0,127.0,127.0,127.0,111.0,84.0,-51.0
127.0,125.0,124.0,127.0,126.0,137.0,126.0,128.0,15.0,-106.0,-83.0,127.0,127.0,127.0,111.0,84.0,-51.0
127.0,125.0,124.0,127.0,127.0,138.0,126.0,128.0,15.0,-106.0,-83.0,127.0,127.0,127.0,111.0,84.0,-51.0
127.0,125.0,124.0,127.0,127.0,138.0,126.0,128.0,15.0,-106.0,-83.0,127.0,127.0,127.0,111.0,84.0,-51.0
127.0,125.0,124.0,127.0,127.0,138.0,126.0,128.0,15.0,-106.0,-83.0,127.0,127.0,127.0,111.0,84.0,-51.0
127.0,125.0,124.0,127.0,127.0,138.0,126.0,128.0,15.0,-106.0,-83.0,127.0,127.0,127.0,111.0,84.0,-51.0
127.0,125.0,124.0,127.0,127.0,138.0,126.0,128.0,15.0,-106.0,-83.0,127.0,127.0,127.0,111.0,84.0,-51.0
127.0,125.0,124.0,127.0,127.0,138.0,126.0,128.0,15.0,-106.0,-83.0,127.0,127.0,127.0,111.0,84.0,-51.0
127.0,125.0,124.0,127.0,126.0,136.0,126.0,128.0,15.0,-106.0,-83.0,127.0,127.0,127.0,111.0,84.0,-51.0
127.0,125.0,124.0,127.0,126.0,136.0,126.0,128.0,15.0,-106.0,-83.0,127.0,127.0,127.0,111.0,84.0,-51.0
127.0,125.0,124.0,127.0,126.0,137.0,126.0,128.0,15.0,-106.0,-83.0,127.0,127.0,127.0,111.0,84.0,-51.0
127.0,126.0,125.0,127.0,127.0,140.0,126.0,128.0,16.0,-105.0,-83.0,127.0,127.0,127.0,111.0,84.0,-51.0
127.0,126.0,125.0,127.0,127.0,141.0,126.0,128.0,16.0,-105.0,-83.0,127.0,127.0,127.0,111.0,84.0,-51.0
127.0,126.0,125.0,127.0,127.0,140.0,126.0,128.0,16.0,-105.0,-83.0,127.0,127.0,127.0,111.0,84.0,-51.0
127.0,126.0,125.0,127.0,127.0,140.0,126.0,128.0,16.0,-105.0,-83.0,127.0,127.0,127.0,111.0,84.0,-51.0
127.0,126.0,125.0,127.0,127.0,140.0,126.0,128.0,16.0,-105.0,-83.0,127.0,127.0,127.0,111.0,84.0,-51.0
127.0,126.0,125.0,127.0,127.0,140.0,126.0,128.0,16.0,-105.0,-83.0,127.0,127.0,127.0,111.0,84.0,-51.0
127.0,126.0,124.0,127.0,127.0,138.0,126.0,128.0,16.0,-105.0,-83.0,127.0,127.0,127.0,111.0,84.0,-51.0
127.0,126.0,124.0,127.0,127.0,138.0,126.0,128.0,16.0,-105.0,-83.0,127.0,127.0,127.0,111.0,84.0,-51.0
127.0,126.0,125.0,127.0,127.0,139.0,126.0,128.0,16.0,-105.0,-83.0,127.0,127.0,127.0,111.0,84.0,-51.0
127.0,126.0,125.0,127.0,127.0,139.0,126.0,128.0,16.0,-105.0,-83.0,127.0,127.0,127.0,111.0,84.0,-51.0
127.0,126.0,127.0,127.0,127.0,139.0,126.0,128.0,16.0,-106.0,-83.0,127.0,127.0,127.0,111.0,84.0,-51.0
127.0,126.0,128.0,127.0,127.0,139.0,126.0,128.0,16.0,-106.0,-83.0,127.0,127.0,127.0,111.0,84.0,-51.0
127.0,126.0,128.0,127.0,127.0,139.0,127.0,128.0,16.0,-106.0,-83.0,127.0,127.0,127.0,111.0,84.0,-51.0
127.0,126.0,128.0,127.0,127.0,139.0,127.0,128.0,16.0,-106.0,-83.0,127.0,127.0,127.0,111.0,84.0,-51.0
127.0,126.0,128.0,127.0,127.0,139.0,127.0,128.0,16.0,-106.0,-83.0,127.0,127.0,127.0,111.0,84.0,-51.0
127.0,126.0,127.0,127.0,127.0,138.0,127.0,128.0,16.0,-106.0,-83.0,127.0,127.0,127.0,111.0,84.0,-51.0
127.0,126.0,127.0,127.0,127.0,138.0,127.0,128.0,16.0,-106.0,-83.0,127.0,127.0,127.0,111.0,84.0,-51.0
127.0,126.0,127.0,127.0,127.0,138.0,127.0,128.0,16.0,-106.0,-83.0,127.0,127.0,127.0,111.0,84.0,-51.0
127.0,126.0,128.0,127.0,127.0,138.0,127.0,128.0,16.0,-106.0,-83.0,127.0,127.0,127.0,111.0,84.0,-51.0
127.0,126.0,127.0,127.0,127.0,139.0,126.0,128.0,16.0,-106.0,-83.0,127.0,127.0,127.0,111.0,84.0,-51.0
127.0,126.0,129.0,128.0,127.0,144.0,127.0,128.0,17.0,-106.0,-82.0,127.0,127.0,127.0,111.0,84.0,-51.0
127.0,126.0,129.0,128.0,127.0,143.0,126.0,128.0,17.0,-106.0,-82.0,127.0,127.0,127.0,111.0,84.0,-51.0
127.0,126.0,129.0,128.0,127.0,144.0,126.0,128.0,17.0,-106.0,-82.0,127.0,127.0,127.0,111.0,84.0,-51.0
127.0,126.0,129.0,128.0,127.0,144.0,127.0,128.0,17.0,-106.0,-82.0,127.0,127.0,127.0,111.0,84.0,-51.0
127.0,126.0,128.0,128.0,127.0,142.0,127.0,128.0,17.0,-106.0,-82.0,127.0,127.0,127.0,111.0,84.0,-51.0
127.0,126.0,128.0,128.0,127.0,143.0,127.0,128.0,17.0,-106.0,-82.0,127.0,127.0,127.0,111.0,84.0,-51.0
127.0,126.0,128.0,128.0,127.0,143.0,126.0,128.0,17.0,-106.0,-82.0,127.0,127.0,127.0,111.0,84.0,-51.0
127.0,126.0,128.0,128.0,127.0,143.0,126.0,128.0,17.0,-106.0,-82.0,127.0,127.0,127.0,111.0,84.0,-51.0
127.0,126.0,129.0,128.0,127.0,143.0,126.0,128.0,17.0,-106.0,-82.0,127.0,127.0,127.0,111.0,84.0,-51.0
127.0,126.0,129.0,128.0,127.0,143.0,126.0,128.0,17.0,-106.0,-82.0,127.0,127.0,127.0,111.0,84.0,-51.0
127.0,126.0,128.0,127.0,127.0,149.0,126.0,128.0,18.0,-107.0,-82.0,127.0,127.0,127.0,111.0,84.0,-51.0
127.0,126.0,128.0,127.0,127.0,149.0,126.0,128.0,18.0,-107.0,-82.0,127.0,127.0,127.0,111.0,84.0,-51.0
127.0,126.0,128.0,127.0,127.0,149.0,126.0,128.0,18.0,-107.0,-82.0,127.0,127.0,127.0,111.0,84.0,-51.0
127.0,126.0,127.0,128.0,127.0,147.0,126.0,128.0,18.0,-107.0,-82.0,127.0,127.0,127.0,111.0,84.0,-51.0
127.0,126.0,127.0,128.0,127.0,147.0,126.0,128.0,18.0,-107.0,-82.0,127.0,127.0,127.0,111.0,84.0,-51.0
127.0,126.0,128.0,128.0,127.0,147.0,126.0,128.0,18.0,-107.0,-82.0,127.0,127.0,127.0,111.0,84.0,-51.0
127.0,126.0,128.0,128.0,126.0,148.0,126.0,128.0,18.0,-107.0,-82.0,127.0,127.0,127.0,111.0,84.0,-51.0
127.0,126.0,128.0,127.0,127.0,148.0,126.0,128.0,18.0,-107.0,-82.0,127.0,127.0,127.0,111.0,84.0,-51.0
127.0,126.0,127.0,127.0,127.0,149.0,126.0,128.0,18.0,-107.0,-82.0,127.0,127.0,127.0,111.0,84.0,-51.0
127.0,126.0,128.0,127.0,127.0,149.0,126.0,128.0,18.0,-107.0,-82.0,127.0,127.0,127.0,111.0,84.0,-51.0
127.0,126.0,127.0,127.0,126.0,147.0,126.0,128.0,19.0,-106.0,-81.0,127.0,127.0,127.0,111.0,84.0,-51.0
127.0,126.0,127.0,127.0,126.0,147.0,126.0,128.0,19.0,-106.0,-81.0,127.0,127.0,127.0,111.0,84.0,-51.0
127.0,126.0,126.0,128.0,127.0,147.0,126.0,128.0,19.0,-106.0,-81.0,127.0,127.0,127.0,111.0,84.0,-51.0
127.0,126.0,126.0,128.0,126.0,147.0,126.0,128.0,19.0,-106.0,-81.0,127.0,127.0,127.0,111.0,84.0,-51.0
127.0,126.0,126.0,127.0,126.0,147.0,126.0,128.0,19.0,-106.0,-81.0,127.0,127.0,127.0,111.0,84.0,-51.0
127.0,126.0,127.0,127.0,126.0,147.0,126.0,128.0,19.0,-106.0,-81.0,127.0,127.0,127.0,111.0,84.0,-51.0
127.0,126.0,127.0,127.0,126.0,147.0,126.0,128.0,19.0,-106.0,-81.0,127.0,127.0,127.0,111.0,84.0,-51.0
127.0,126.0,126.0,127.0,127.0,148.0,126.0,128.0,19.0,-106.0,-81.0,127.0,127.0,127.0,111.0,84.0,-51.0
127.0,126.0,126.0,127.0,126.0,148.0,126.0,128.0,19.0,-106.0,-81.0,127.0,127.0,127.0,111.0,84.0,-51.0
127.0,126.0,127.0,127.0,126.0,148.0,126.0,128.0,19.0,-106.0,-81.0,127.0,127.0,127.0,111.0,84.0,-51.0
127.0,126.0,128.0,127.0,126.0,138.0,126.0,128.0,19.0,-106.0,-81.0,127.0,127.0,127.0,111.0,84.0,-51.0
127.0,126.0,127.0,127.0,127.0,137.0,126.0,128.0,19.0,-106.0,-81.0,127.0,127.0,127.0,111.0,84.0,-51.0
127.0,126.0,127.0,127.0,126.0,137.0,126.0,128.0,19.0,-106.0,-81.0,127.0,127.0,127.0,111.0,84.0,-51.0
127.0,126.0,127.0,127.0,126.0,136.0,126.0,128.0,19.0,-106.0,-81.0,127.0,127.0,127.0,111.0,84.0,-51.0
127.0,126.0,128.0,127.0,126.0,137.0,126.0,128.0,19.0,-106.0,-81.0,127.0,127.0,127.0,111.0,84.0,-51.0
127.0,126.0,128.0,127.0,126.0,137.0,126.0,128.0,19.0,-106.0,-81.0,127.0,127.0,127.0,111.0,84.0,-51.0
127.0,126.0,128.0,127.0,126.0,138.0,126.0,128.0,19.0,-106.0,-81.0,127.0,127.0,127.0,111.0,84.0,-51.0
127.0,126.0,128.0,127.0,126.0,138.0,126.0,128.0,19.0,-106.0,-81.0,127.0,127.0,127.0,111.0,84.0,-51.0
127.0,126.0,128.0,127.0,126.0,138.0,126.0,128.0,19.0,-106.0,-81.0,127.0,127.0,127.0,111.0,84.0,-51.0
127.0,126.0,128.0,127.0,126.0,138.0,126.0,128.0,19.0,-106.0,-81.0,127.0,127.0,127.0,111.0,84.0,-51.0
127.0,126.0,128.0,128.0,126.0,133.0,126.0,128.0,19.0,-106.0,-81.0,127.0,127.0,127.0,111.0,84.0,-51.0
127.0,126.0,128.0,127.0,126.0,133.0,126.0,128.0,19.0,-106.0,-81.0,127.0,127.0,127.0,111.0,84.0,-51.0
127.0,125.0,129.0,127.0,126.0,133.0,126.0,128.0,19.0,-106.0,-81.0,127.0,127.0,127.0,111.0,84.0,-51.0
127.0,125.0,129.0,127.0,126.0,134.0,126.0,128.0,19.0,-106.0,-81.0,127.0,127.0,127.0,111.0,84.0,-51.0
127.0,125.0,129.0,127.0,126.0,134.0,126.0,128.0,19.0,-106.0,-81.0,127.0,127.0,127.0,111.0,84.0,-51.0
127.0,125.0,129.0,127.0,126.0,134.0,126.0,128.0,19.0,-106.0,-81.0,127.0,127.0,127.0,111.0,84.0,-51.0
127.0,125.0,129.0,127.0,126.0,134.0,126.0,128.0,19.0,-106.0,-81.0,127.0,127.0,127.0,111.0,84.0,-51.0
127.0,125.0,129.0,127.0,126.0,134.0,126.0,128.0,19.0,-106.0,-81.0,127.0,127.0,127.0,111.0,84.0,-51.0
127.0,126.0,128.0,127.0,126.0,136.0,126.0,128.0,19.0,-106.0,-81.0,127.0,127.0,127.0,111.0,84.0,-51.0
127.0,126.0,128.0,127.0,126.0,136.0,126.0,128.0,19.0,-106.0,-81.0,127.0,127.0,127.0,111.0,84.0,-51.0
127.0,126.0,127.0,127.0,126.0,135.0,126.0,128.0,19.0,-106.0,-80.0,127.0,127.0,127.0,111.0,84.0,-51.0
126.0,126.0,127.0,127.0,126.0,136.0,126.0,128.0,19.0,-106.0,-80.0,127.0,127.0,127.0,111.0,84.0,-51.0
126.0,126.0,127.0,127.0,126.0,137.0,126.0,128.0,19.0,-106.0,-80.0,127.0,127.0,127.0,111.0,84.0,-51.0
127.0,126.0,127.0,127.0,126.0,137.0,126.0,128.0,19.0,-106.0,-80.0,127.0,127.0,127.0,111.0,84.0,-51.0
127.0,126.0,127.0,127.0,126.0,137.0,126.0,128.0,19.0,-106.0,-80.0,127.0,127.0,127.0,111.0,84.0,-51.0
127.0,126.0,128.0,127.0,126.0,137.0,126.0,128.0,19.0,-106.0,-80.0,127.0,127.0,127.0,111.0,84.0,-51.0
127.0,126.0,128.0,127.0,126.0,137.0,126.0,128.0,19.0,-106.0,-80.0,127.0,127.0,127.0,111.0,84.0,-51.0
127.0,126.0,128.0,127.0,126.0,136.0,126.0,128.0,19.0,-106.0,-80.0,127.0,127.0,127.0,111.0,84.0,-51.0
127.0,126.0,128.0,127.0,126.0,136.0,126.0,128.0,19.0,-106.0,-80.0,127.0,127.0,127.0,111.0,84.0,-51.0
127.0,126.0,127.0,127.0,126.0,135.0,126.0,128.0,19.0,-106.0,-80.0,127.0,127.0,127.0,111.0,84.0,-51.0
126.0,127.0,125.0,128.0,127.0,137.0,126.0,128.0,19.0,-106.0,-80.0,127.0,127.0,127.0,111.0,84.0,-51.0
126.0,127.0,125.0,128.0,127.0,137.0,126.0,128.0,19.0,-106.0,-80.0,127.0,127.0,127.0,111.0,84.0,-51.0
127.0,127.0,126.0,128.0,127.0,137.0,126.0,128.0,19.0,-106.0,-80.0,127.0,127.0,127.0,111.0,84.0,-51.0
127.0,126.0,126.0,128.0,127.0,137.0,126.0,128.0,19.0,-106.0,-80.0,127.0,127.0,127.0,111.0,84.0,-51.0
126.0,126.0,126.0,128.0,127.0,138.0,126.0,128.0,19.0,-106.0,-80.0,127.0,127.0,127.0,111.0,84.0,-51.0
127.0,126.0,126.0,128.0,127.0,138.0,126.0,128.0,19.0,-106.0,-80.0,127.0,127.0,127.0,111.0,84.0,-51.0
127.0,126.0,126.0,127.0,127.0,137.0,126.0,128.0,19.0,-106.0,-80.0,127.0,127.0,127.0,111.0,84.0,-51.0
127.0,126.0,126.0,127.0,127.0,137.0,126.0,128.0,19.0,-106.0,-80.0,127.0,127.0,127.0,111.0,84.0,-51.0
127.0,126.0,125.0,128.0,127.0,135.0,126.0,128.0,19.0,-106.0,-80.0,127.0,127.0,127.0,111.0,84.0,-51.0
126.0,126.0,125.0,128.0,127.0,136.0,126.0,128.0,19.0,-106.0,-80.0,127.0,127.0,127.0,111.0,84.0,-51.0
127.0,127.0,125.0,128.0,127.0,137.0,126.0,128.0,19.0,-105.0,-80.0,127.0,127.0,127.0,111.0,84.0,-51.0
127.0,126.0,125.0,128.0,127.0,137.0,126.0,128.0,19.0,-105.0,-80.0,127.0,127.0,127.0,111.0,84.0,-51.0
127.0,126.0,125.0,128.0,127.0,137.0,126.0,128.0,19.0,-105.0,-80.0,127.0,127.0,127.0,111.0,84.0,-51.0
127.0,126.0,125.0,127.0,127.0,137.0,126.0,128.0,19.0,-105.0,-80.0,127.0,127.0,127.0,111.0,84.0,-51.0
127.0,126.0,125.0,128.0,127.0,137.0,126.0,128.0,19.0,-105.0,-80.0,127.0,127.0,127.0,111.0,84.0,-51.0
127.0,126.0,126.0,128.0,127.0,137.0,126.0,128.0,19.0,-105.0,-80.0,127.0,127.0,127.0,111.0,84.0,-51.0
127.0,126.0,126.0,127.0,127.0,137.0,126.0,128.0,19.0,-105.0,-80.0,127.0,127.0,127.0,111.0,84.0,-51.0
127.0,126.0,125.0,128.0,127.0,135.0,126.0,128.0,19.0,-105.0,-80.0,127.0,127.0,127.0,111.0,84.0,-51.0
127.0,126.0,125.0,128.0,127.0,135.0,126.0,128.0,19.0,-105.0,-80.0,127.0,127.0,127.0,111.0,84.0,-51.0
