emg1,emg2,emg3,emg4,emg5,emg6,emg7,emg8,acc_x,acc_y,acc_z,gyro_x,gyro_y,gyro_z,angle_pitch,angle_roll,angle_yaw
127.0,126.0,139.0,114.0,126.0,111.0,127.0,129.0,21.0,-101.0,-84.0,127.0,127.0,127.0,106.0,84.0,-50.0
127.0,126.0,139.0,114.0,126.0,110.0,127.0,129.0,21.0,-101.0,-84.0,127.0,127.0,127.0,106.0,84.0,-50.0
127.0,127.0,139.0,114.0,126.0,110.0,127.0,129.0,21.0,-101.0,-84.0,127.0,127.0,127.0,106.0,84.0,-50.0
127.0,126.0,136.0,119.0,126.0,114.0,126.0,126.0,21.0,-101.0,-84.0,127.0,127.0,127.0,106.0,84.0,-50.0
127.0,126.0,136.0,118.0,126.0,113.0,126.0,126.0,21.0,-101.0,-84.0,127.0,127.0,127.0,106.0,84.0,-50.0
126.0,126.0,136.0,117.0,126.0,113.0,126.0,126.0,21.0,-101.0,-84.0,127.0,127.0,127.0,106.0,84.0,-50.0
127.0,126.0,138.0,119.0,127.0,114.0,126.0,125.0,20.0,-100.0,-84.0,127.0,127.0,127.0,106.0,84.0,-50.0
126.0,127.0,138.0,119.0,127.0,114.0,127.0,125.0,20.0,-100.0,-84.0,127.0,127.0,127.0,106.0,84.0,-50.0
126.0,127.0,138.0,119.0,127.0,113.0,127.0,124.0,20.0,-100.0,-84.0,127.0,127.0,127.0,106.0,84.0,-50.0
126.0,127.0,137.0,119.0,127.0,113.0,127.0,124.0,20.0,-100.0,-84.0,127.0,127.0,127.0,106.0,84.0,-50.0
126.0,127.0,137.0,119.0,127.0,112.0,127.0,124.0,20.0,-100.0,-84.0,127.0,127.0,127.0,106.0,84.0,-50.0
127.0,127.0,137.0,119.0,127.0,112.0,127.0,124.0,20.0,-100.0,-84.0,127.0,127.0,127.0,106.0,84.0,-50.0
127.0,125.0,139.0,120.0,126.0,113.0,126.0,127.0,20.0,-100.0,-84.0,127.0,127.0,127.0,106.0,84.0,-50.0
127.0,125.0,139.0,120.0,126.0,113.0,126.0,127.0,20.0,-100.0,-84.0,127.0,127.0,127.0,106.0,84.0,-50.0
127.0,126.0,138.0,120.0,126.0,115.0,126.0,126.0,20.0,-100.0,-84.0,127.0,127.0,127.0,106.0,84.0,-50.0
127.0,126.0,138.0,119.0,126.0,115.0,126.0,126.0,20.0,-100.0,-84.0,127.0,127.0,127.0,106.0,84.0,-50.0
127.0,126.0,139.0,118.0,126.0,112.0,126.0,129.0,19.0,-100.0,-84.0,127.0,127.0,127.0,106.0,84.0,-50.0
127.0,127.0,139.0,118.0,126.0,112.0,127.0,129.0,19.0,-100.0,-84.0,127.0,127.0,127.0,106.0,84.0,-50.0
127.0,127.0,138.0,118.0,126.0,112.0,127.0,129.0,19.0,-100.0,-84.0,127.0,127.0,127.0,106.0,84.0,-50.0
127.0,127.0,138.0,118.0,127.0,111.0,127.0,129.0,19.0,-100.0,-84.0,127.0,127.0,127.0,106.0,84.0,-50.0
127.0,125.0,142.0,116.0,126.0,110.0,126.0,129.0,19.0,-100.0,-84.0,127.0,127.0,127.0,106.0,84.0,-50.0
127.0,125.0,141.0,116.0,125.0,111.0,126.0,129.0,19.0,-100.0,-84.0,127.0,127.0,127.0,106.0,84.0,-50.0
127.0,125.0,141.0,115.0,125.0,110.0,127.0,129.0,19.0,-100.0,-84.0,127.0,127.0,127.0,106.0,84.0,-50.0
127.0,125.0,141.0,116.0,125.0,110.0,127.0,129.0,19.0,-100.0,-84.0,127.0,127.0,127.0,106.0,84.0,-50.0
127.0,125.0,140.0,116.0,126.0,110.0,127.0,129.0,19.0,-100.0,-84.0,127.0,127.0,127.0,106.0,84.0,-50.0
127.0,126.0,140.0,117.0,126.0,110.0,127.0,129.0,19.0,-100.0,-84.0,127.0,127.0,127.0,106.0,84.0,-50.0
128.0,127.0,132.0,122.0,128.0,114.0,127.0,128.0,18.0,-101.0,-84.0,127.0,127.0,127.0,106.0,84.0,-50.0
128.0,127.0,132.0,122.0,128.0,114.0,127.0,128.0,18.0,-101.0,-84.0,127.0,127.0,127.0,106.0,84.0,-50.0
128.0,127.0,131.0,122.0,128.0,113.0,127.0,128.0,18.0,-101.0,-84.0,127.0,127.0,127.0,106.0,84.0,-50.0
128.0,127.0,134.0,123.0,128.0,115.0,126.0,128.0,18.0,-101.0,-84.0,127.0,127.0,127.0,106.0,84.0,-50.0
128.0,127.0,134.0,122.0,128.0,116.0,126.0,128.0,18.0,-101.0,-84.0,127.0,127.0,127.0,106.0,84.0,-50.0
128.0,127.0,133.0,122.0,128.0,115.0,127.0,128.0,18.0,-101.0,-84.0,127.0,127.0,127.0,106.0,84.0,-50.0
128.0,127.0,133.0,122.0,128.0,115.0,127.0,128.0,18.0,-101.0,-84.0,127.0,127.0,127.0,106.0,84.0,-50.0
128.0,127.0,133.0,122.0,128.0,115.0,127.0,128.0,18.0,-101.0,-84.0,127.0,127.0,127.0,106.0,84.0,-50.0
128.0,127.0,133.0,122.0,128.0,115.0,127.0,128.0,18.0,-101.0,-84.0,127.0,127.0,127.0,106.0,84.0,-50.0
128.0,127.0,132.0,122.0,128.0,114.0,127.0,128.0,18.0,-101.0,-84.0,127.0,127.0,127.0,106.0,84.0,-50.0
126.0,127.0,129.0,121.0,128.0,113.0,127.0,128.0,17.0,-101.0,-84.0,127.0,127.0,127.0,106.0,84.0,-50.0
126.0,128.0,129.0,121.0,128.0,112.0,127.0,128.0,17.0,-101.0,-84.0,127.0,127.0,127.0,106.0,84.0,-50.0
126.0,127.0,130.0,118.0,127.0,116.0,126.0,129.0,17.0,-101.0,-84.0,127.0,127.0,127.0,106.0,84.0,-50.0
126.0,127.0,130.0,119.0,127.0,116.0,126.0,129.0,17.0,-101.0,-84.0,127.0,127.0,127.0,106.0,84.0,-50.0
126.0,127.0,130.0,120.0,127.0,116.0,127.0,129.0,17.0,-101.0,-84.0,127.0,127.0,127.0,106.0,84.0,-50.0
126.0,127.0,130.0,120.0,127.0,115.0,127.0,128.0,17.0,-101.0,-84.0,127.0,127.0,127.0,106.0,84.0,-50.0
126.0,127.0,129.0,120.0,127.0,115.0,127.0,128.0,17.0,-101.0,-84.0,127.0,127.0,127.0,106.0,84.0,-50.0
126.0,127.0,129.0,120.0,127.0,115.0,127.0,128.0,17.0,-101.0,-84.0,127.0,127.0,127.0,106.0,84.0,-50.0
126.0,127.0,129.0,121.0,128.0,114.0,127.0,128.0,17.0,-101.0,-84.0,127.0,127.0,127.0,106.0,84.0,-50.0
126.0,127.0,129.0,121.0,128.0,114.0,127.0,128.0,17.0,-101.0,-84.0,127.0,127.0,127.0,106.0,84.0,-50.0
128.0,128.0,126.0,121.0,128.0,113.0,127.0,128.0,16.0,-101.0,-84.0,127.0,127.0,127.0,106.0,84.0,-50.0
126.0,127.0,128.0,122.0,128.0,116.0,126.0,124.0,16.0,-101.0,-84.0,127.0,127.0,127.0,106.0,84.0,-50.0
126.0,128.0,128.0,121.0,128.0,116.0,126.0,124.0,16.0,-101.0,-84.0,127.0,127.0,127.0,106.0,84.0,-50.0
126.0,128.0,128.0,121.0,128.0,116.0,126.0,125.0,16.0,-101.0,-84.0,127.0,127.0,127.0,106.0,84.0,-50.0
127.0,128.0,127.0,121.0,128.0,116.0,126.0,125.0,16.0,-101.0,-84.0,127.0,127.0,127.0,106.0,84.0,-50.0
127.0,128.0,127.0,121.0,128.0,115.0,127.0,126.0,16.0,-101.0,-84.0,127.0,127.0,127.0,106.0,84.0,-50.0
127.0,128.0,127.0,121.0,128.0,115.0,127.0,126.0,16.0,-101.0,-84.0,127.0,127.0,127.0,106.0,84.0,-50.0
127.0,128.0,127.0,121.0,128.0,114.0,127.0,127.0,16.0,-101.0,-84.0,127.0,127.0,127.0,106.0,84.0,-50.0
128.0,128.0,126.0,121.0,128.0,114.0,127.0,127.0,16.0,-101.0,-84.0,127.0,127.0,127.0,106.0,84.0,-50.0
128.0,128.0,126.0,121.0,128.0,113.0,127.0,127.0,16.0,-101.0,-84.0,127.0,127.0,127.0,106.0,84.0,-50.0
126.0,126.0,128.0,124.0,128.0,116.0,126.0,128.0,16.0,-101.0,-84.0,127.0,127.0,127.0,106.0,84.0,-50.0
126.0,127.0,128.0,125.0,128.0,117.0,126.0,128.0,16.0,-101.0,-84.0,127.0,127.0,127.0,106.0,84.0,-50.0
126.0,127.0,128.0,125.0,128.0,117.0,126.0,128.0,16.0,-101.0,-84.0,127.0,127.0,127.0,106.0,84.0,-50.0
126.0,127.0,128.0,126.0,128.0,116.0,126.0,128.0,16.0,-101.0,-84.0,127.0,127.0,127.0,106.0,84.0,-50.0
126.0,127.0,128.0,126.0,128.0,116.0,126.0,128.0,16.0,-101.0,-84.0,127.0,127.0,127.0,106.0,84.0,-50.0
126.0,127.0,128.0,125.0,128.0,116.0,127.0,128.0,16.0,-101.0,-84.0,127.0,127.0,127.0,106.0,84.0,-50.0
126.0,127.0,127.0,125.0,128.0,115.0,127.0,128.0,16.0,-101.0,-84.0,127.0,127.0,127.0,106.0,84.0,-50.0
126.0,127.0,127.0,125.0,128.0,115.0,127.0,128.0,16.0,-101.0,-84.0,127.0,127.0,127.0,106.0,84.0,-50.0
126.0,127.0,127.0,124.0,128.0,114.0,127.0,129.0,16.0,-101.0,-84.0,127.0,127.0,127.0,106.0,84.0,-50.0
126.0,127.0,127.0,124.0,128.0,113.0,127.0,129.0,16.0,-101.0,-84.0,127.0,127.0,127.0,106.0,84.0,-50.0
127.0,126.0,127.0,121.0,126.0,116.0,126.0,126.0,16.0,-101.0,-84.0,127.0,127.0,127.0,106.0,84.0,-50.0
127.0,127.0,127.0,120.0,126.0,116.0,126.0,126.0,16.0,-101.0,-84.0,127.0,127.0,127.0,106.0,84.0,-50.0
127.0,126.0,127.0,119.0,126.0,116.0,126.0,127.0,16.0,-101.0,-84.0,127.0,127.0,127.0,106.0,84.0,-50.0
127.0,126.0,127.0,119.0,126.0,115.0,126.0,127.0,16.0,-101.0,-84.0,127.0,127.0,127.0,106.0,84.0,-50.0
127.0,127.0,127.0,118.0,126.0,115.0,126.0,127.0,16.0,-101.0,-84.0,127.0,127.0,127.0,106.0,84.0,-50.0
127.0,127.0,127.0,118.0,126.0,115.0,127.0,127.0,16.0,-101.0,-84.0,127.0,127.0,127.0,106.0,84.0,-50.0
127.0,127.0,126.0,119.0,126.0,114.0,127.0,128.0,16.0,-101.0,-84.0,127.0,127.0,127.0,106.0,84.0,-50.0
127.0,127.0,126.0,119.0,126.0,114.0,127.0,128.0,16.0,-101.0,-84.0,127.0,127.0,127.0,106.0,84.0,-50.0
127.0,127.0,126.0,119.0,126.0,113.0,127.0,129.0,16.0,-101.0,-84.0,127.0,127.0,127.0,106.0,84.0,-50.0
127.0,126.0,127.0,121.0,126.0,115.0,126.0,126.0,16.0,-101.0,-84.0,127.0,127.0,127.0,106.0,84.0,-50.0
127.0,127.0,128.0,120.0,127.0,113.0,127.0,128.0,17.0,-101.0,-85.0,127.0,127.0,127.0,106.0,84.0,-50.0
127.0,127.0,128.0,120.0,127.0,113.0,127.0,128.0,17.0,-101.0,-85.0,127.0,127.0,127.0,106.0,84.0,-50.0
127.0,127.0,128.0,121.0,127.0,113.0,127.0,129.0,17.0,-101.0,-85.0,127.0,127.0,127.0,106.0,84.0,-50.0
127.0,127.0,128.0,121.0,127.0,113.0,127.0,129.0,17.0,-101.0,-85.0,127.0,127.0,127.0,106.0,84.0,-50.0
127.0,127.0,128.0,121.0,126.0,112.0,127.0,129.0,17.0,-101.0,-85.0,127.0,127.0,127.0,106.0,84.0,-50.0
127.0,127.0,128.0,121.0,126.0,112.0,127.0,129.0,17.0,-101.0,-85.0,127.0,127.0,127.0,106.0,84.0,-50.0
127.0,127.0,127.0,121.0,126.0,111.0,127.0,129.0,17.0,-101.0,-85.0,127.0,127.0,127.0,106.0,84.0,-50.0
126.0,127.0,127.0,121.0,126.0,111.0,127.0,129.0,17.0,-101.0,-85.0,127.0,127.0,127.0,106.0,84.0,-50.0
127.0,127.0,128.0,120.0,128.0,112.0,126.0,126.0,17.0,-101.0,-85.0,127.0,127.0,127.0,106.0,84.0,-50.0
127.0,127.0,128.0,120.0,127.0,114.0,126.0,127.0,17.0,-101.0,-85.0,127.0,127.0,127.0,106.0,84.0,-50.0
127.0,127.0,130.0,118.0,126.0,116.0,126.0,126.0,18.0,-101.0,-85.0,127.0,127.0,127.0,106.0,84.0,-50.0
127.0,126.0,130.0,116.0,126.0,115.0,126.0,127.0,18.0,-101.0,-85.0,127.0,127.0,127.0,106.0,84.0,-50.0
126.0,126.0,129.0,115.0,126.0,115.0,126.0,127.0,18.0,-101.0,-85.0,127.0,127.0,127.0,106.0,84.0,-50.0
126.0,126.0,129.0,114.0,126.0,115.0,126.0,128.0,18.0,-101.0,-85.0,127.0,127.0,127.0,106.0,84.0,-50.0
126.0,126.0,129.0,114.0,126.0,114.0,127.0,128.0,18.0,-101.0,-85.0,127.0,127.0,127.0,106.0,84.0,-50.0
126.0,126.0,129.0,114.0,126.0,114.0,127.0,128.0,18.0,-101.0,-85.0,127.0,127.0,127.0,106.0,84.0,-50.0
126.0,126.0,129.0,115.0,126.0,114.0,127.0,129.0,18.0,-101.0,-85.0,127.0,127.0,127.0,106.0,84.0,-50.0
127.0,127.0,130.0,121.0,127.0,114.0,126.0,126.0,18.0,-101.0,-85.0,127.0,127.0,127.0,106.0,84.0,-50.0
127.0,127.0,130.0,120.0,127.0,116.0,126.0,126.0,18.0,-101.0,-85.0,127.0,127.0,127.0,106.0,84.0,-50.0
127.0,127.0,130.0,119.0,127.0,116.0,126.0,126.0,18.0,-101.0,-85.0,127.0,127.0,127.0,106.0,84.0,-50.0
127.0,126.0,132.0,119.0,126.0,114.0,126.0,128.0,19.0,-101.0,-86.0,127.0,127.0,127.0,106.0,84.0,-50.0
127.0,126.0,132.0,119.0,126.0,114.0,126.0,128.0,19.0,-101.0,-86.0,127.0,127.0,127.0,106.0,84.0,-50.0
127.0,126.0,132.0,120.0,126.0,114.0,126.0,128.0,19.0,-101.0,-86.0,127.0,127.0,127.0,106.0,84.0,-50.0
127.0,126.0,133.0,121.0,127.0,113.0,126.0,127.0,19.0,-101.0,-86.0,127.0,127.0,127.0,106.0,84.0,-50.0
127.0,126.0,133.0,121.0,127.0,113.0,127.0,127.0,19.0,-101.0,-86.0,127.0,127.0,127.0,106.0,84.0,-50.0
127.0,127.0,133.0,122.0,127.0,112.0,127.0,126.0,19.0,-101.0,-86.0,127.0,127.0,127.0,106.0,84.0,-50.0
128.0,126.0,134.0,120.0,126.0,112.0,127.0,128.0,19.0,-101.0,-86.0,127.0,127.0,127.0,106.0,84.0,-50.0
127.0,126.0,134.0,120.0,126.0,112.0,127.0,128.0,19.0,-101.0,-86.0,127.0,127.0,127.0,106.0,84.0,-50.0
127.0,126.0,133.0,120.0,126.0,112.0,127.0,128.0,19.0,-101.0,-86.0,127.0,127.0,127.0,106.0,84.0,-50.0
127.0,126.0,133.0,120.0,126.0,112.0,127.0,128.0,19.0,-101.0,-86.0,127.0,127.0,127.0,106.0,84.0,-50.0
126.0,125.0,131.0,120.0,127.0,114.0,126.0,130.0,19.0,-101.0,-86.0,127.0,127.0,127.0,106.0,84.0,-50.0
126.0,125.0,131.0,119.0,127.0,114.0,126.0,130.0,19.0,-101.0,-86.0,127.0,127.0,127.0,106.0,84.0,-50.0
126.0,125.0,131.0,118.0,127.0,113.0,126.0,129.0,19.0,-101.0,-86.0,127.0,127.0,127.0,106.0,84.0,-50.0
126.0,125.0,131.0,117.0,127.0,113.0,126.0,129.0,19.0,-101.0,-86.0,127.0,127.0,127.0,106.0,84.0,-50.0
126.0,126.0,131.0,116.0,127.0,112.0,126.0,128.0,19.0,-101.0,-86.0,127.0,127.0,127.0,106.0,84.0,-50.0
125.0,126.0,133.0,123.0,127.0,116.0,126.0,129.0,19.0,-101.0,-86.0,127.0,127.0,127.0,106.0,84.0,-50.0
125.0,126.0,132.0,122.0,127.0,116.0,126.0,129.0,19.0,-101.0,-86.0,127.0,127.0,127.0,106.0,84.0,-50.0
125.0,126.0,132.0,122.0,127.0,116.0,126.0,129.0,19.0,-101.0,-86.0,127.0,127.0,127.0,106.0,84.0,-50.0
125.0,125.0,132.0,121.0,127.0,115.0,126.0,130.0,19.0,-101.0,-86.0,127.0,127.0,127.0,106.0,84.0,-50.0
126.0,125.0,131.0,121.0,127.0,115.0,126.0,130.0,19.0,-101.0,-86.0,127.0,127.0,127.0,106.0,84.0,-50.0
126.0,127.0,130.0,123.0,128.0,111.0,127.0,129.0,19.0,-101.0,-86.0,127.0,127.0,127.0,106.0,84.0,-50.0
126.0,127.0,130.0,122.0,128.0,110.0,127.0,129.0,19.0,-101.0,-86.0,127.0,127.0,127.0,106.0,84.0,-50.0
126.0,127.0,131.0,122.0,128.0,110.0,127.0,128.0,19.0,-101.0,-86.0,127.0,127.0,127.0,106.0,84.0,-50.0
126.0,127.0,130.0,122.0,128.0,110.0,127.0,128.0,19.0,-101.0,-86.0,127.0,127.0,127.0,106.0,84.0,-50.0
126.0,127.0,131.0,125.0,127.0,113.0,127.0,129.0,19.0,-101.0,-86.0,127.0,127.0,127.0,106.0,84.0,-50.0
125.0,127.0,131.0,124.0,127.0,113.0,127.0,129.0,19.0,-101.0,-86.0,127.0,127.0,127.0,106.0,84.0,-50.0
125.0,127.0,131.0,124.0,127.0,113.0,127.0,129.0,19.0,-101.0,-86.0,127.0,127.0,127.0,106.0,84.0,-50.0
125.0,127.0,130.0,124.0,127.0,112.0,127.0,129.0,19.0,-101.0,-86.0,127.0,127.0,127.0,106.0,84.0,-50.0
125.0,127.0,130.0,123.0,127.0,112.0,127.0,129.0,19.0,-101.0,-86.0,127.0,127.0,127.0,106.0,84.0,-50.0
126.0,127.0,130.0,123.0,128.0,111.0,127.0,129.0,19.0,-101.0,-86.0,127.0,127.0,127.0,106.0,84.0,-50.0
127.0,126.0,128.0,123.0,127.0,112.0,127.0,129.0,18.0,-102.0,-85.0,127.0,127.0,127.0,106.0,84.0,-50.0
127.0,126.0,128.0,123.0,127.0,112.0,127.0,129.0,18.0,-102.0,-85.0,127.0,127.0,127.0,106.0,84.0,-50.0
127.0,126.0,128.0,123.0,127.0,111.0,127.0,129.0,18.0,-102.0,-85.0,127.0,127.0,127.0,106.0,84.0,-50.0
127.0,126.0,128.0,121.0,127.0,114.0,126.0,128.0,18.0,-102.0,-85.0,127.0,127.0,127.0,106.0,84.0,-50.0
127.0,126.0,128.0,121.0,126.0,114.0,126.0,128.0,18.0,-102.0,-85.0,127.0,127.0,127.0,106.0,84.0,-50.0
127.0,126.0,128.0,120.0,126.0,114.0,126.0,128.0,18.0,-102.0,-85.0,127.0,127.0,127.0,106.0,84.0,-50.0
127.0,126.0,128.0,121.0,127.0,114.0,126.0,129.0,18.0,-102.0,-85.0,127.0,127.0,127.0,106.0,84.0,-50.0
127.0,126.0,128.0,122.0,127.0,113.0,126.0,129.0,18.0,-102.0,-85.0,127.0,127.0,127.0,106.0,84.0,-50.0
127.0,126.0,128.0,122.0,127.0,113.0,127.0,129.0,18.0,-102.0,-85.0,127.0,127.0,127.0,106.0,84.0,-50.0
127.0,126.0,128.0,123.0,127.0,113.0,127.0,129.0,18.0,-102.0,-85.0,127.0,127.0,127.0,106.0,84.0,-50.0
128.0,126.0,130.0,124.0,127.0,114.0,126.0,127.0,17.0,-102.0,-85.0,127.0,127.0,127.0,106.0,84.0,-50.0
127.0,126.0,129.0,124.0,127.0,117.0,125.0,127.0,17.0,-102.0,-85.0,127.0,127.0,127.0,106.0,84.0,-50.0
127.0,126.0,129.0,124.0,127.0,117.0,125.0,128.0,17.0,-102.0,-85.0,127.0,127.0,127.0,106.0,84.0,-50.0
127.0,126.0,129.0,124.0,127.0,117.0,126.0,128.0,17.0,-102.0,-85.0,127.0,127.0,127.0,106.0,84.0,-50.0
128.0,126.0,129.0,124.0,127.0,117.0,126.0,128.0,17.0,-102.0,-85.0,127.0,127.0,127.0,106.0,84.0,-50.0
128.0,126.0,129.0,124.0,127.0,117.0,126.0,128.0,17.0,-102.0,-85.0,127.0,127.0,127.0,106.0,84.0,-50.0
128.0,126.0,129.0,125.0,127.0,116.0,126.0,128.0,17.0,-102.0,-85.0,127.0,127.0,127.0,106.0,84.0,-50.0
128.0,126.0,129.0,125.0,127.0,116.0,126.0,128.0,17.0,-102.0,-85.0,127.0,127.0,127.0,106.0,84.0,-50.0
128.0,126.0,129.0,125.0,127.0,116.0,126.0,128.0,17.0,-102.0,-85.0,127.0,127.0,127.0,106.0,84.0,-50.0
128.0,126.0,129.0,124.0,127.0,115.0,126.0,127.0,17.0,-102.0,-85.0,127.0,127.0,127.0,106.0,84.0,-50.0
125.0,126.0,128.0,122.0,127.0,116.0,126.0,129.0,16.0,-102.0,-84.0,127.0,127.0,127.0,106.0,84.0,-50.0
125.0,126.0,129.0,123.0,127.0,116.0,126.0,129.0,16.0,-102.0,-84.0,127.0,127.0,127.0,106.0,84.0,-50.0
125.0,126.0,129.0,123.0,127.0,115.0,126.0,128.0,16.0,-102.0,-84.0,127.0,127.0,127.0,106.0,84.0,-50.0
125.0,126.0,129.0,123.0,127.0,115.0,126.0,128.0,16.0,-102.0,-84.0,127.0,127.0,127.0,106.0,84.0,-50.0
125.0,126.0,129.0,123.0,127.0,115.0,126.0,128.0,16.0,-102.0,-84.0,127.0,127.0,127.0,106.0,84.0,-50.0
125.0,126.0,129.0,123.0,127.0,114.0,126.0,128.0,16.0,-102.0,-84.0,127.0,127.0,127.0,106.0,84.0,-50.0
125.0,126.0,128.0,123.0,127.0,114.0,126.0,128.0,16.0,-102.0,-84.0,127.0,127.0,127.0,106.0,84.0,-50.0
126.0,127.0,128.0,123.0,127.0,114.0,126.0,128.0,16.0,-102.0,-84.0,127.0,127.0,127.0,106.0,84.0,-50.0
126.0,127.0,128.0,123.0,127.0,113.0,127.0,128.0,16.0,-102.0,-84.0,127.0,127.0,127.0,106.0,84.0,-50.0
126.0,127.0,127.0,123.0,127.0,112.0,127.0,128.0,16.0,-102.0,-84.0,127.0,127.0,127.0,106.0,84.0,-50.0
127.0,126.0,127.0,123.0,127.0,115.0,126.0,127.0,16.0,-101.0,-84.0,127.0,127.0,127.0,106.0,84.0,-50.0
127.0,126.0,127.0,123.0,127.0,115.0,126.0,127.0,16.0,-101.0,-84.0,127.0,127.0,127.0,106.0,84.0,-50.0
127.0,126.0,127.0,123.0,127.0,115.0,126.0,127.0,16.0,-101.0,-84.0,127.0,127.0,127.0,106.0,84.0,-50.0
127.0,126.0,127.0,123.0,127.0,115.0,126.0,127.0,16.0,-101.0,-84.0,127.0,127.0,127.0,106.0,84.0,-50.0
127.0,126.0,127.0,123.0,126.0,115.0,127.0,127.0,16.0,-101.0,-84.0,127.0,127.0,127.0,106.0,84.0,-50.0
127.0,126.0,127.0,123.0,126.0,114.0,127.0,127.0,16.0,-101.0,-84.0,127.0,127.0,127.0,106.0,84.0,-50.0
127.0,126.0,126.0,123.0,126.0,114.0,127.0,127.0,16.0,-101.0,-84.0,127.0,127.0,127.0,106.0,84.0,-50.0
127.0,126.0,126.0,123.0,126.0,113.0,127.0,127.0,16.0,-101.0,-84.0,127.0,127.0,127.0,106.0,84.0,-50.0
127.0,126.0,126.0,123.0,126.0,113.0,127.0,128.0,16.0,-101.0,-84.0,127.0,127.0,127.0,106.0,84.0,-50.0
127.0,126.0,127.0,123.0,127.0,115.0,126.0,127.0,16.0,-101.0,-84.0,127.0,127.0,127.0,106.0,84.0,-50.0
127.0,126.0,126.0,125.0,126.0,115.0,126.0,129.0,16.0,-101.0,-84.0,127.0,127.0,127.0,106.0,84.0,-50.0
127.0,126.0,126.0,124.0,126.0,115.0,127.0,129.0,16.0,-101.0,-84.0,127.0,127.0,127.0,106.0,84.0,-50.0
127.0,126.0,126.0,124.0,126.0,115.0,127.0,129.0,16.0,-101.0,-84.0,127.0,127.0,127.0,106.0,84.0,-50.0
126.0,126.0,127.0,124.0,126.0,114.0,127.0,129.0,16.0,-101.0,-84.0,127.0,127.0,127.0,106.0,84.0,-50.0
126.0,126.0,126.0,124.0,126.0,114.0,127.0,129.0,16.0,-101.0,-84.0,127.0,127.0,127.0,106.0,84.0,-50.0
127.0,126.0,126.0,124.0,126.0,113.0,127.0,129.0,16.0,-101.0,-84.0,127.0,127.0,127.0,106.0,84.0,-50.0
127.0,126.0,125.0,123.0,126.0,113.0,127.0,129.0,16.0,-101.0,-84.0,127.0,127.0,127.0,106.0,84.0,-50.0
127.0,126.0,125.0,123.0,126.0,112.0,127.0,128.0,16.0,-101.0,-84.0,127.0,127.0,127.0,106.0,84.0,-50.0
126.0,127.0,126.0,125.0,127.0,115.0,126.0,127.0,16.0,-101.0,-84.0,127.0,127.0,127.0,106.0,84.0,-50.0
126.0,126.0,126.0,125.0,127.0,115.0,126.0,128.0,16.0,-101.0,-84.0,127.0,127.0,127.0,106.0,84.0,-50.0
127.0,127.0,127.0,122.0,126.0,112.0,127.0,130.0,16.0,-101.0,-84.0,127.0,127.0,127.0,106.0,84.0,-50.0
127.0,127.0,127.0,122.0,126.0,112.0,127.0,130.0,16.0,-101.0,-84.0,127.0,127.0,127.0,106.0,84.0,-50.0
128.0,127.0,127.0,122.0,126.0,112.0,127.0,130.0,16.0,-101.0,-84.0,127.0,127.0,127.0,106.0,84.0,-50.0
128.0,127.0,127.0,122.0,126.0,111.0,127.0,131.0,16.0,-101.0,-84.0,127.0,127.0,127.0,106.0,84.0,-50.0
128.0,127.0,126.0,122.0,126.0,111.0,127.0,131.0,16.0,-101.0,-84.0,127.0,127.0,127.0,106.0,84.0,-50.0
129.0,127.0,126.0,123.0,126.0,111.0,127.0,131.0,16.0,-101.0,-84.0,127.0,127.0,127.0,106.0,84.0,-50.0
129.0,127.0,126.0,122.0,126.0,112.0,127.0,131.0,16.0,-101.0,-84.0,127.0,127.0,127.0,106.0,84.0,-50.0
127.0,126.0,127.0,121.0,126.0,110.0,127.0,130.0,16.0,-101.0,-84.0,127.0,127.0,127.0,106.0,84.0,-50.0
127.0,126.0,127.0,121.0,126.0,110.0,127.0,130.0,16.0,-101.0,-84.0,127.0,127.0,127.0,106.0,84.0,-50.0
127.0,126.0,127.0,122.0,126.0,111.0,127.0,130.0,16.0,-101.0,-84.0,127.0,127.0,127.0,106.0,84.0,-50.0
127.0,127.0,124.0,125.0,128.0,112.0,127.0,128.0,17.0,-101.0,-84.0,127.0,127.0,127.0,106.0,84.0,-50.0
127.0,127.0,124.0,125.0,128.0,112.0,127.0,128.0,17.0,-101.0,-84.0,127.0,127.0,127.0,106.0,84.0,-50.0
127.0,127.0,124.0,125.0,128.0,111.0,127.0,128.0,17.0,-101.0,-84.0,127.0,127.0,127.0,106.0,84.0,-50.0
127.0,127.0,123.0,125.0,128.0,111.0,127.0,128.0,17.0,-101.0,-84.0,127.0,127.0,127.0,106.0,84.0,-50.0
127.0,127.0,123.0,125.0,128.0,111.0,127.0,128.0,17.0,-101.0,-84.0,127.0,127.0,127.0,106.0,84.0,-50.0
127.0,127.0,123.0,125.0,128.0,112.0,127.0,128.0,17.0,-101.0,-84.0,127.0,127.0,127.0,106.0,84.0,-50.0
127.0,126.0,125.0,122.0,127.0,110.0,127.0,129.0,17.0,-101.0,-84.0,127.0,127.0,127.0,106.0,84.0,-50.0
127.0,126.0,125.0,123.0,127.0,110.0,127.0,129.0,17.0,-101.0,-84.0,127.0,127.0,127.0,106.0,84.0,-50.0
127.0,126.0,125.0,124.0,128.0,110.0,127.0,128.0,17.0,-101.0,-84.0,127.0,127.0,127.0,106.0,84.0,-50.0
127.0,127.0,124.0,124.0,128.0,112.0,127.0,128.0,17.0,-101.0,-84.0,127.0,127.0,127.0,106.0,84.0,-50.0
127.0,126.0,130.0,125.0,127.0,111.0,127.0,128.0,18.0,-100.0,-85.0,127.0,127.0,127.0,106.0,84.0,-50.0
127.0,126.0,130.0,125.0,127.0,111.0,127.0,128.0,18.0,-100.0,-85.0,127.0,127.0,127.0,106.0,84.0,-50.0
127.0,126.0,129.0,125.0,127.0,110.0,127.0,128.0,18.0,-100.0,-85.0,127.0,127.0,127.0,106.0,84.0,-50.0
127.0,126.0,129.0,125.0,127.0,110.0,127.0,128.0,18.0,-100.0,-85.0,127.0,127.0,127.0,106.0,84.0,-50.0
127.0,126.0,129.0,125.0,127.0,111.0,126.0,128.0,18.0,-100.0,-85.0,127.0,127.0,127.0,106.0,84.0,-50.0
127.0,126.0,130.0,124.0,127.0,109.0,127.0,128.0,18.0,-100.0,-85.0,127.0,127.0,127.0,106.0,84.0,-50.0
127.0,126.0,130.0,124.0,127.0,109.0,127.0,128.0,18.0,-100.0,-85.0,127.0,127.0,127.0,106.0,84.0,-50.0
127.0,126.0,130.0,124.0,127.0,109.0,127.0,128.0,18.0,-100.0,-85.0,127.0,127.0,127.0,106.0,84.0,-50.0
127.0,126.0,130.0,124.0,127.0,111.0,126.0,128.0,18.0,-100.0,-85.0,127.0,127.0,127.0,106.0,84.0,-50.0
127.0,126.0,130.0,124.0,127.0,111.0,127.0,128.0,18.0,-100.0,-85.0,127.0,127.0,127.0,106.0,84.0,-50.0
126.0,126.0,134.0,126.0,127.0,114.0,126.0,128.0,19.0,-100.0,-85.0,127.0,127.0,127.0,106.0,84.0,-50.0
126.0,126.0,134.0,126.0,127.0,113.0,127.0,127.0,19.0,-100.0,-85.0,127.0,127.0,127.0,106.0,84.0,-50.0
126.0,126.0,134.0,126.0,127.0,113.0,127.0,127.0,19.0,-100.0,-85.0,127.0,127.0,127.0,106.0,84.0,-50.0
126.0,126.0,134.0,127.0,127.0,112.0,127.0,127.0,19.0,-100.0,-85.0,127.0,127.0,127.0,106.0,84.0,-50.0
127.0,126.0,133.0,126.0,127.0,115.0,126.0,128.0,19.0,-100.0,-85.0,127.0,127.0,127.0,106.0,84.0,-50.0
127.0,126.0,133.0,126.0,127.0,115.0,126.0,128.0,19.0,-100.0,-85.0,127.0,127.0,127.0,106.0,84.0,-50.0
127.0,126.0,133.0,126.0,127.0,115.0,126.0,128.0,19.0,-100.0,-85.0,127.0,127.0,127.0,106.0,84.0,-50.0
127.0,126.0,133.0,126.0,127.0,114.0,126.0,128.0,19.0,-100.0,-85.0,127.0,127.0,127.0,106.0,84.0,-50.0
126.0,126.0,133.0,125.0,127.0,114.0,126.0,128.0,19.0,-100.0,-85.0,127.0,127.0,127.0,106.0,84.0,-50.0
126.0,126.0,133.0,126.0,127.0,114.0,126.0,128.0,19.0,-100.0,-85.0,127.0,127.0,127.0,106.0,84.0,-50.0
126.0,125.0,141.0,125.0,127.0,113.0,127.0,128.0,19.0,-100.0,-85.0,127.0,127.0,127.0,106.0,84.0,-50.0
126.0,125.0,141.0,125.0,127.0,113.0,127.0,128.0,19.0,-100.0,-85.0,127.0,127.0,127.0,106.0,84.0,-50.0
126.0,125.0,140.0,125.0,127.0,112.0,127.0,128.0,19.0,-100.0,-85.0,127.0,127.0,127.0,106.0,84.0,-50.0
126.0,125.0,143.0,124.0,126.0,116.0,126.0,128.0,19.0,-100.0,-85.0,127.0,127.0,127.0,106.0,84.0,-50.0
126.0,125.0,143.0,124.0,126.0,116.0,127.0,128.0,19.0,-100.0,-85.0,127.0,127.0,127.0,106.0,84.0,-50.0
126.0,126.0,143.0,124.0,126.0,115.0,127.0,128.0,19.0,-100.0,-85.0,127.0,127.0,127.0,106.0,84.0,-50.0
126.0,125.0,142.0,124.0,126.0,115.0,127.0,128.0,19.0,-100.0,-85.0,127.0,127.0,127.0,106.0,84.0,-50.0
126.0,125.0,142.0,124.0,126.0,115.0,127.0,128.0,19.0,-100.0,-85.0,127.0,127.0,127.0,106.0,84.0,-50.0
126.0,125.0,142.0,124.0,127.0,114.0,127.0,128.0,19.0,-100.0,-85.0,127.0,127.0,127.0,106.0,84.0,-50.0
126.0,125.0,141.0,124.0,126.0,114.0,127.0,128.0,19.0,-100.0,-85.0,127.0,127.0,127.0,106.0,84.0,-50.0
127.0,126.0,126.0,127.0,128.0,113.0,127.0,128.0,19.0,-101.0,-84.0,127.0,127.0,127.0,106.0,84.0,-50.0
127.0,126.0,126.0,127.0,128.0,112.0,127.0,128.0,19.0,-101.0,-84.0,127.0,127.0,127.0,106.0,84.0,-50.0
127.0,126.0,128.0,127.0,127.0,115.0,127.0,128.0,19.0,-101.0,-84.0,127.0,127.0,127.0,106.0,84.0,-50.0
127.0,126.0,128.0,127.0,127.0,115.0,127.0,128.0,19.0,-101.0,-84.0,127.0,127.0,127.0,106.0,84.0,-50.0
127.0,126.0,127.0,127.0,127.0,115.0,127.0,128.0,19.0,-101.0,-84.0,127.0,127.0,127.0,106.0,84.0,-50.0
127.0,126.0,127.0,127.0,127.0,115.0,127.0,128.0,19.0,-101.0,-84.0,127.0,127.0,127.0,106.0,84.0,-50.0
127.0,126.0,127.0,127.0,127.0,114.0,127.0,128.0,19.0,-101.0,-84.0,127.0,127.0,127.0,106.0,84.0,-50.0
127.0,126.0,127.0,127.0,127.0,114.0,127.0,128.0,19.0,-101.0,-84.0,127.0,127.0,127.0,106.0,84.0,-50.0
127.0,126.0,127.0,127.0,127.0,114.0,127.0,128.0,19.0,-101.0,-84.0,127.0,127.0,127.0,106.0,84.0,-50.0
127.0,126.0,127.0,127.0,128.0,113.0,127.0,128.0,19.0,-101.0,-84.0,127.0,127.0,127.0,106.0,84.0,-50.0
126.0,125.0,129.0,128.0,126.0,112.0,127.0,127.0,18.0,-101.0,-84.0,127.0,127.0,127.0,106.0,84.0,-50.0
126.0,125.0,129.0,130.0,127.0,115.0,126.0,127.0,18.0,-101.0,-84.0,127.0,127.0,127.0,106.0,84.0,-50.0
126.0,125.0,129.0,130.0,127.0,115.0,126.0,127.0,18.0,-101.0,-84.0,127.0,127.0,127.0,106.0,84.0,-50.0
126.0,125.0,129.0,130.0,127.0,115.0,126.0,127.0,18.0,-101.0,-84.0,127.0,127.0,127.0,106.0,84.0,-50.0
126.0,125.0,129.0,130.0,127.0,114.0,127.0,127.0,18.0,-101.0,-84.0,127.0,127.0,127.0,106.0,84.0,-50.0
126.0,125.0,129.0,130.0,127.0,114.0,127.0,127.0,18.0,-101.0,-84.0,127.0,127.0,127.0,106.0,84.0,-50.0
126.0,125.0,129.0,129.0,127.0,114.0,127.0,127.0,18.0,-101.0,-84.0,127.0,127.0,127.0,106.0,84.0,-50.0
126.0,125.0,129.0,129.0,126.0,113.0,127.0,127.0,18.0,-101.0,-84.0,127.0,127.0,127.0,106.0,84.0,-50.0
126.0,125.0,129.0,129.0,126.0,113.0,127.0,127.0,18.0,-101.0,-84.0,127.0,127.0,127.0,106.0,84.0,-50.0
126.0,125.0,129.0,129.0,126.0,113.0,127.0,127.0,18.0,-101.0,-84.0,127.0,127.0,127.0,106.0,84.0,-50.0
126.0,125.0,127.0,132.0,127.0,118.0,126.0,127.0,17.0,-101.0,-83.0,127.0,127.0,127.0,106.0,84.0,-50.0
126.0,125.0,127.0,132.0,126.0,117.0,126.0,127.0,17.0,-101.0,-83.0,127.0,127.0,127.0,106.0,84.0,-50.0
126.0,125.0,126.0,132.0,126.0,118.0,126.0,127.0,17.0,-101.0,-83.0,127.0,127.0,127.0,106.0,84.0,-50.0
126.0,125.0,126.0,132.0,126.0,117.0,126.0,127.0,17.0,-101.0,-83.0,127.0,127.0,127.0,106.0,84.0,-50.0
126.0,125.0,126.0,132.0,126.0,117.0,126.0,127.0,17.0,-101.0,-83.0,127.0,127.0,127.0,106.0,84.0,-50.0
126.0,125.0,126.0,132.0,126.0,116.0,127.0,127.0,17.0,-101.0,-83.0,127.0,127.0,127.0,106.0,84.0,-50.0
126.0,125.0,126.0,132.0,126.0,116.0,127.0,127.0,17.0,-101.0,-83.0,127.0,127.0,127.0,106.0,84.0,-50.0
126.0,125.0,126.0,132.0,126.0,115.0,127.0,127.0,17.0,-101.0,-83.0,127.0,127.0,127.0,106.0,84.0,-50.0
126.0,125.0,126.0,132.0,126.0,115.0,127.0,127.0,17.0,-101.0,-83.0,127.0,127.0,127.0,106.0,84.0,-50.0
126.0,125.0,126.0,132.0,126.0,115.0,127.0,127.0,17.0,-101.0,-83.0,127.0,127.0,127.0,106.0,84.0,-50.0
126.0,126.0,123.0,138.0,127.0,116.0,127.0,127.0,16.0,-101.0,-83.0,127.0,127.0,127.0,106.0,84.0,-50.0
126.0,126.0,123.0,139.0,127.0,116.0,127.0,127.0,16.0,-101.0,-83.0,127.0,127.0,127.0,106.0,84.0,-50.0
126.0,126.0,123.0,139.0,127.0,116.0,127.0,127.0,16.0,-101.0,-83.0,127.0,127.0,127.0,106.0,84.0,-50.0
126.0,126.0,123.0,139.0,127.0,115.0,127.0,127.0,16.0,-101.0,-83.0,127.0,127.0,127.0,106.0,84.0,-50.0
126.0,126.0,123.0,139.0,127.0,115.0,127.0,127.0,16.0,-101.0,-83.0,127.0,127.0,127.0,106.0,84.0,-50.0
126.0,126.0,123.0,139.0,127.0,115.0,127.0,127.0,16.0,-101.0,-83.0,127.0,127.0,127.0,106.0,84.0,-50.0
126.0,126.0,123.0,139.0,127.0,116.0,127.0,127.0,16.0,-101.0,-83.0,127.0,127.0,127.0,106.0,84.0,-50.0
126.0,126.0,122.0,140.0,127.0,116.0,127.0,127.0,16.0,-101.0,-83.0,127.0,127.0,127.0,106.0,84.0,-50.0
126.0,126.0,122.0,140.0,127.0,116.0,127.0,127.0,16.0,-101.0,-83.0,127.0,127.0,127.0,106.0,84.0,-50.0
126.0,125.0,123.0,138.0,127.0,115.0,127.0,127.0,16.0,-101.0,-83.0,127.0,127.0,127.0,106.0,84.0,-50.0
126.0,126.0,124.0,142.0,127.0,115.0,126.0,127.0,16.0,-101.0,-82.0,127.0,127.0,127.0,106.0,84.0,-50.0
126.0,126.0,123.0,142.0,127.0,115.0,127.0,127.0,16.0,-101.0,-82.0,127.0,127.0,127.0,106.0,84.0,-50.0
126.0,126.0,123.0,142.0,127.0,114.0,127.0,127.0,16.0,-101.0,-82.0,127.0,127.0,127.0,106.0,84.0,-50.0
126.0,126.0,123.0,142.0,127.0,114.0,127.0,127.0,16.0,-101.0,-82.0,127.0,127.0,127.0,106.0,84.0,-50.0
126.0,126.0,123.0,142.0,127.0,114.0,127.0,127.0,16.0,-101.0,-82.0,127.0,127.0,127.0,106.0,84.0,-50.0
126.0,126.0,123.0,142.0,127.0,115.0,126.0,127.0,16.0,-101.0,-82.0,127.0,127.0,127.0,106.0,84.0,-50.0
126.0,127.0,123.0,142.0,127.0,115.0,127.0,127.0,16.0,-101.0,-82.0,127.0,127.0,127.0,106.0,84.0,-50.0
126.0,126.0,123.0,142.0,127.0,115.0,127.0,127.0,16.0,-101.0,-82.0,127.0,127.0,127.0,106.0,84.0,-50.0
126.0,125.0,124.0,142.0,127.0,113.0,126.0,127.0,16.0,-101.0,-82.0,127.0,127.0,127.0,106.0,84.0,-50.0
126.0,126.0,124.0,142.0,127.0,115.0,126.0,127.0,16.0,-101.0,-82.0,127.0,127.0,127.0,106.0,84.0,-50.0
126.0,126.0,113.0,144.0,126.0,115.0,127.0,127.0,16.0,-101.0,-82.0,127.0,127.0,127.0,106.0,84.0,-50.0
126.0,126.0,113.0,144.0,126.0,114.0,127.0,127.0,16.0,-101.0,-82.0,127.0,127.0,127.0,106.0,84.0,-50.0
126.0,126.0,113.0,144.0,126.0,114.0,127.0,127.0,16.0,-101.0,-82.0,127.0,127.0,127.0,106.0,84.0,-50.0
126.0,126.0,113.0,145.0,126.0,114.0,127.0,127.0,16.0,-101.0,-82.0,127.0,127.0,127.0,106.0,84.0,-50.0
126.0,126.0,113.0,145.0,126.0,113.0,127.0,127.0,16.0,-101.0,-82.0,127.0,127.0,127.0,106.0,84.0,-50.0
126.0,126.0,113.0,145.0,126.0,113.0,127.0,127.0,16.0,-101.0,-82.0,127.0,127.0,127.0,106.0,84.0,-50.0
126.0,126.0,113.0,146.0,127.0,112.0,127.0,127.0,16.0,-101.0,-82.0,127.0,127.0,127.0,106.0,84.0,-50.0
126.0,126.0,113.0,144.0,126.0,115.0,126.0,127.0,16.0,-101.0,-82.0,127.0,127.0,127.0,106.0,84.0,-50.0
126.0,126.0,113.0,144.0,126.0,116.0,126.0,127.0,16.0,-101.0,-82.0,127.0,127.0,127.0,106.0,84.0,-50.0
126.0,126.0,113.0,144.0,126.0,116.0,126.0,127.0,16.0,-101.0,-82.0,127.0,127.0,127.0,106.0,84.0,-50.0
127.0,127.0,121.0,145.0,127.0,110.0,127.0,127.0,16.0,-102.0,-82.0,127.0,127.0,127.0,106.0,84.0,-50.0
127.0,127.0,121.0,145.0,127.0,110.0,127.0,127.0,16.0,-102.0,-82.0,127.0,127.0,127.0,106.0,84.0,-50.0
127.0,127.0,121.0,145.0,127.0,110.0,127.0,127.0,16.0,-102.0,-82.0,127.0,127.0,127.0,106.0,84.0,-50.0
127.0,127.0,121.0,145.0,127.0,110.0,127.0,127.0,16.0,-102.0,-82.0,127.0,127.0,127.0,106.0,84.0,-50.0
127.0,127.0,121.0,145.0,127.0,110.0,127.0,127.0,16.0,-102.0,-82.0,127.0,127.0,127.0,106.0,84.0,-50.0
127.0,127.0,121.0,145.0,127.0,110.0,127.0,127.0,16.0,-102.0,-82.0,127.0,127.0,127.0,106.0,84.0,-50.0
127.0,127.0,120.0,145.0,127.0,109.0,127.0,127.0,16.0,-102.0,-82.0,127.0,127.0,127.0,106.0,84.0,-50.0
127.0,126.0,121.0,145.0,127.0,109.0,127.0,127.0,16.0,-102.0,-82.0,127.0,127.0,127.0,106.0,84.0,-50.0
127.0,127.0,121.0,145.0,127.0,109.0,127.0,127.0,16.0,-102.0,-82.0,127.0,127.0,127.0,106.0,84.0,-50.0
127.0,126.0,121.0,145.0,127.0,109.0,127.0,127.0,16.0,-102.0,-82.0,127.0,127.0,127.0,106.0,84.0,-50.0
127.0,128.0,89.0,143.0,127.0,109.0,127.0,127.0,17.0,-102.0,-82.0,127.0,127.0,127.0,106.0,84.0,-50.0
127.0,128.0,88.0,143.0,127.0,109.0,127.0,127.0,17.0,-102.0,-82.0,127.0,127.0,127.0,106.0,84.0,-50.0
127.0,128.0,86.0,143.0,127.0,109.0,127.0,127.0,17.0,-102.0,-82.0,127.0,127.0,127.0,106.0,84.0,-50.0
127.0,128.0,84.0,143.0,127.0,108.0,127.0,127.0,17.0,-102.0,-82.0,127.0,127.0,127.0,106.0,84.0,-50.0
127.0,127.0,100.0,144.0,127.0,108.0,127.0,127.0,17.0,-102.0,-82.0,127.0,127.0,127.0,106.0,84.0,-50.0
127.0,128.0,98.0,144.0,127.0,108.0,127.0,127.0,17.0,-102.0,-82.0,127.0,127.0,127.0,106.0,84.0,-50.0
127.0,128.0,96.0,144.0,127.0,108.0,127.0,127.0,17.0,-102.0,-82.0,127.0,127.0,127.0,106.0,84.0,-50.0
127.0,128.0,95.0,143.0,127.0,108.0,127.0,127.0,17.0,-102.0,-82.0,127.0,127.0,127.0,106.0,84.0,-50.0
127.0,128.0,93.0,143.0,127.0,108.0,127.0,127.0,17.0,-102.0,-82.0,127.0,127.0,127.0,106.0,84.0,-50.0
127.0,128.0,91.0,143.0,127.0,109.0,127.0,127.0,17.0,-102.0,-82.0,127.0,127.0,127.0,106.0,84.0,-50.0
127.0,127.0,56.0,140.0,127.0,111.0,127.0,127.0,19.0,-102.0,-82.0,127.0,127.0,127.0,106.0,84.0,-50.0
127.0,128.0,57.0,140.0,127.0,111.0,127.0,127.0,19.0,-102.0,-82.0,127.0,127.0,127.0,106.0,84.0,-50.0
127.0,127.0,58.0,140.0,127.0,110.0,127.0,127.0,19.0,-102.0,-82.0,127.0,127.0,127.0,106.0,84.0,-50.0
127.0,127.0,54.0,142.0,127.0,110.0,127.0,127.0,19.0,-102.0,-82.0,127.0,127.0,127.0,106.0,84.0,-50.0
127.0,127.0,54.0,142.0,127.0,110.0,127.0,127.0,19.0,-102.0,-82.0,127.0,127.0,127.0,106.0,84.0,-50.0
127.0,127.0,54.0,141.0,127.0,109.0,127.0,127.0,19.0,-102.0,-82.0,127.0,127.0,127.0,106.0,84.0,-50.0
127.0,127.0,55.0,141.0,127.0,109.0,127.0,127.0,19.0,-102.0,-82.0,127.0,127.0,127.0,106.0,84.0,-50.0
127.0,127.0,55.0,141.0,127.0,109.0,127.0,127.0,19.0,-102.0,-82.0,127.0,127.0,127.0,106.0,84.0,-50.0
127.0,127.0,55.0,141.0,127.0,110.0,127.0,127.0,19.0,-102.0,-82.0,127.0,127.0,127.0,106.0,84.0,-50.0
127.0,128.0,56.0,141.0,127.0,111.0,127.0,127.0,19.0,-102.0,-82.0,127.0,127.0,127.0,106.0,84.0,-50.0
126.0,127.0,106.0,139.0,127.0,112.0,126.0,127.0,20.0,-102.0,-82.0,127.0,127.0,127.0,106.0,84.0,-50.0
126.0,126.0,107.0,139.0,127.0,112.0,126.0,127.0,20.0,-102.0,-82.0,127.0,127.0,127.0,106.0,84.0,-50.0
126.0,126.0,99.0,139.0,127.0,111.0,126.0,127.0,20.0,-102.0,-82.0,127.0,127.0,127.0,106.0,84.0,-50.0
126.0,126.0,100.0,139.0,127.0,111.0,126.0,127.0,20.0,-102.0,-82.0,127.0,127.0,127.0,106.0,84.0,-50.0
126.0,126.0,101.0,139.0,127.0,111.0,126.0,127.0,20.0,-102.0,-82.0,127.0,127.0,127.0,106.0,84.0,-50.0
126.0,126.0,102.0,139.0,127.0,111.0,126.0,127.0,20.0,-102.0,-82.0,127.0,127.0,127.0,106.0,84.0,-50.0
126.0,126.0,103.0,139.0,127.0,111.0,126.0,127.0,20.0,-102.0,-82.0,127.0,127.0,127.0,106.0,84.0,-50.0
126.0,126.0,104.0,139.0,127.0,111.0,126.0,127.0,20.0,-102.0,-82.0,127.0,127.0,127.0,106.0,84.0,-50.0
126.0,127.0,104.0,139.0,127.0,112.0,126.0,127.0,20.0,-102.0,-82.0,127.0,127.0,127.0,106.0,84.0,-50.0
126.0,127.0,105.0,139.0,127.0,112.0,126.0,127.0,20.0,-102.0,-82.0,127.0,127.0,127.0,106.0,84.0,-50.0
126.0,127.0,140.0,138.0,127.0,113.0,127.0,127.0,21.0,-102.0,-82.0,126.0,127.0,127.0,106.0,84.0,-50.0
126.0,127.0,138.0,138.0,127.0,113.0,126.0,127.0,21.0,-102.0,-82.0,126.0,127.0,127.0,106.0,84.0,-50.0
126.0,126.0,139.0,138.0,127.0,113.0,126.0,127.0,21.0,-102.0,-82.0,126.0,127.0,127.0,106.0,84.0,-50.0
126.0,126.0,139.0,138.0,127.0,113.0,126.0,127.0,21.0,-102.0,-82.0,126.0,127.0,127.0,106.0,84.0,-50.0
126.0,126.0,140.0,138.0,127.0,112.0,126.0,127.0,21.0,-102.0,-82.0,126.0,127.0,127.0,106.0,84.0,-50.0
126.0,126.0,140.0,138.0,127.0,113.0,126.0,127.0,21.0,-102.0,-82.0,126.0,127.0,127.0,106.0,84.0,-50.0
126.0,127.0,140.0,138.0,127.0,113.0,126.0,127.0,21.0,-102.0,-82.0,126.0,127.0,127.0,106.0,84.0,-50.0
126.0,127.0,140.0,138.0,127.0,114.0,126.0,127.0,21.0,-102.0,-82.0,126.0,127.0,127.0,106.0,84.0,-50.0
126.0,127.0,140.0,138.0,127.0,114.0,127.0,127.0,21.0,-102.0,-82.0,126.0,127.0,127.0,106.0,84.0,-50.0
126.0,127.0,140.0,138.0,127.0,114.0,127.0,127.0,21.0,-102.0,-82.0,126.0,127.0,127.0,106.0,84.0,-50.0
127.0,126.0,148.0,138.0,127.0,111.0,126.0,127.0,22.0,-103.0,-82.0,126.0,127.0,127.0,106.0,84.0,-50.0
127.0,127.0,148.0,138.0,127.0,111.0,127.0,127.0,22.0,-103.0,-82.0,126.0,127.0,127.0,106.0,84.0,-50.0
127.0,127.0,148.0,138.0,127.0,111.0,127.0,127.0,22.0,-103.0,-82.0,126.0,127.0,127.0,106.0,84.0,-50.0
127.0,127.0,148.0,139.0,127.0,111.0,127.0,127.0,22.0,-103.0,-82.0,126.0,127.0,127.0,106.0,84.0,-50.0
127.0,127.0,148.0,139.0,127.0,111.0,127.0,127.0,22.0,-103.0,-82.0,126.0,127.0,127.0,106.0,84.0,-50.0
127.0,127.0,148.0,139.0,127.0,110.0,127.0,127.0,22.0,-103.0,-82.0,126.0,127.0,127.0,106.0,84.0,-50.0
127.0,127.0,148.0,139.0,127.0,110.0,127.0,127.0,22.0,-103.0,-82.0,126.0,127.0,127.0,106.0,84.0,-50.0
127.0,127.0,148.0,140.0,127.0,110.0,127.0,127.0,22.0,-103.0,-82.0,126.0,127.0,127.0,106.0,84.0,-50.0
127.0,127.0,148.0,140.0,127.0,110.0,127.0,127.0,22.0,-103.0,-82.0,126.0,127.0,127.0,106.0,84.0,-50.0
127.0,127.0,148.0,141.0,127.0,109.0,127.0,127.0,22.0,-103.0,-82.0,126.0,127.0,127.0,106.0,84.0,-50.0
127.0,126.0,151.0,139.0,127.0,111.0,127.0,127.0,21.0,-104.0,-82.0,126.0,127.0,127.0,106.0,84.0,-50.0
127.0,126.0,151.0,139.0,127.0,111.0,127.0,127.0,21.0,-104.0,-82.0,126.0,127.0,127.0,106.0,84.0,-50.0
126.0,127.0,151.0,139.0,127.0,112.0,126.0,127.0,21.0,-104.0,-82.0,126.0,127.0,127.0,106.0,84.0,-50.0
126.0,127.0,151.0,139.0,127.0,113.0,127.0,127.0,21.0,-104.0,-82.0,126.0,127.0,127.0,106.0,84.0,-50.0
127.0,127.0,151.0,139.0,127.0,112.0,127.0,127.0,21.0,-104.0,-82.0,126.0,127.0,127.0,106.0,84.0,-50.0
126.0,127.0,151.0,139.0,127.0,112.0,127.0,127.0,21.0,-104.0,-82.0,126.0,127.0,127.0,106.0,84.0,-50.0
126.0,127.0,151.0,139.0,127.0,112.0,127.0,127.0,21.0,-104.0,-82.0,126.0,127.0,127.0,106.0,84.0,-50.0
126.0,127.0,151.0,139.0,127.0,112.0,127.0,127.0,21.0,-104.0,-82.0,126.0,127.0,127.0,106.0,84.0,-50.0
126.0,127.0,150.0,139.0,128.0,113.0,127.0,127.0,21.0,-104.0,-82.0,126.0,127.0,127.0,106.0,84.0,-50.0
127.0,126.0,151.0,139.0,127.0,110.0,127.0,127.0,21.0,-104.0,-82.0,126.0,127.0,127.0,106.0,84.0,-50.0
126.0,125.0,150.0,137.0,127.0,112.0,126.0,127.0,20.0,-105.0,-81.0,127.0,127.0,127.0,106.0,84.0,-50.0
126.0,126.0,149.0,137.0,127.0,114.0,126.0,127.0,20.0,-105.0,-81.0,127.0,127.0,127.0,106.0,84.0,-50.0
126.0,126.0,149.0,137.0,127.0,114.0,126.0,127.0,20.0,-105.0,-81.0,127.0,127.0,127.0,106.0,84.0,-50.0
126.0,126.0,149.0,137.0,127.0,114.0,126.0,127.0,20.0,-105.0,-81.0,127.0,127.0,127.0,106.0,84.0,-50.0
126.0,126.0,148.0,137.0,127.0,114.0,126.0,127.0,20.0,-105.0,-81.0,127.0,127.0,127.0,106.0,84.0,-50.0
126.0,126.0,148.0,137.0,127.0,113.0,126.0,127.0,20.0,-105.0,-81.0,127.0,127.0,127.0,106.0,84.0,-50.0
126.0,126.0,148.0,137.0,128.0,113.0,126.0,127.0,20.0,-105.0,-81.0,127.0,127.0,127.0,106.0,84.0,-50.0
126.0,126.0,148.0,137.0,128.0,114.0,126.0,127.0,20.0,-105.0,-81.0,127.0,127.0,127.0,106.0,84.0,-50.0
127.0,126.0,151.0,138.0,127.0,112.0,126.0,127.0,20.0,-105.0,-81.0,127.0,127.0,127.0,106.0,84.0,-50.0
127.0,125.0,151.0,138.0,127.0,112.0,126.0,127.0,20.0,-105.0,-81.0,127.0,127.0,127.0,106.0,84.0,-50.0
126.0,126.0,152.0,138.0,128.0,113.0,126.0,127.0,19.0,-105.0,-80.0,127.0,127.0,127.0,106.0,84.0,-50.0
126.0,126.0,151.0,138.0,128.0,113.0,126.0,128.0,19.0,-105.0,-80.0,127.0,127.0,127.0,106.0,84.0,-50.0
126.0,126.0,151.0,138.0,128.0,113.0,126.0,128.0,19.0,-105.0,-80.0,127.0,127.0,127.0,106.0,84.0,-50.0
126.0,126.0,151.0,138.0,128.0,112.0,126.0,128.0,19.0,-105.0,-80.0,127.0,127.0,127.0,106.0,84.0,-50.0
126.0,126.0,151.0,138.0,128.0,112.0,126.0,127.0,19.0,-105.0,-80.0,127.0,127.0,127.0,106.0,84.0,-50.0
126.0,126.0,151.0,138.0,128.0,112.0,126.0,128.0,19.0,-105.0,-80.0,127.0,127.0,127.0,106.0,84.0,-50.0
126.0,127.0,151.0,138.0,128.0,112.0,126.0,127.0,19.0,-105.0,-80.0,127.0,127.0,127.0,106.0,84.0,-50.0
126.0,126.0,152.0,137.0,128.0,111.0,126.0,128.0,19.0,-105.0,-80.0,127.0,127.0,127.0,106.0,84.0,-50.0
126.0,126.0,152.0,137.0,128.0,111.0,126.0,127.0,19.0,-105.0,-80.0,127.0,127.0,127.0,106.0,84.0,-50.0
126.0,126.0,152.0,137.0,128.0,111.0,126.0,127.0,19.0,-105.0,-80.0,127.0,127.0,127.0,106.0,84.0,-50.0
126.0,126.0,148.0,137.0,128.0,111.0,126.0,128.0,19.0,-105.0,-80.0,127.0,127.0,127.0,106.0,84.0,-50.0
126.0,126.0,148.0,136.0,128.0,111.0,127.0,128.0,19.0,-105.0,-80.0,127.0,127.0,127.0,106.0,84.0,-50.0
126.0,126.0,148.0,136.0,128.0,110.0,127.0,128.0,19.0,-105.0,-80.0,127.0,127.0,127.0,106.0,84.0,-50.0
126.0,126.0,148.0,136.0,128.0,110.0,127.0,128.0,19.0,-105.0,-80.0,127.0,127.0,127.0,106.0,84.0,-50.0
126.0,126.0,148.0,136.0,128.0,110.0,127.0,128.0,19.0,-105.0,-80.0,127.0,127.0,127.0,106.0,84.0,-50.0
126.0,126.0,148.0,136.0,128.0,109.0,127.0,128.0,19.0,-105.0,-80.0,127.0,127.0,127.0,106.0,84.0,-50.0
126.0,126.0,148.0,137.0,128.0,112.0,126.0,128.0,19.0,-105.0,-80.0,127.0,127.0,127.0,106.0,84.0,-50.0
126.0,126.0,148.0,137.0,128.0,112.0,126.0,128.0,19.0,-105.0,-80.0,127.0,127.0,127.0,106.0,84.0,-50.0
126.0,126.0,148.0,137.0,128.0,111.0,126.0,128.0,19.0,-105.0,-80.0,127.0,127.0,127.0,106.0,84.0,-50.0
126.0,126.0,148.0,137.0,128.0,111.0,126.0,128.0,19.0,-105.0,-80.0,127.0,127.0,127.0,106.0,84.0,-50.0
126.0,126.0,142.0,135.0,127.0,109.0,126.0,128.0,18.0,-105.0,-80.0,127.0,127.0,127.0,107.0,84.0,-50.0
126.0,126.0,142.0,135.0,127.0,108.0,126.0,128.0,18.0,-105.0,-80.0,127.0,127.0,127.0,107.0,84.0,-50.0
126.0,126.0,142.0,135.0,127.0,108.0,126.0,128.0,18.0,-105.0,-80.0,127.0,127.0,127.0,107.0,84.0,-50.0
126.0,126.0,142.0,135.0,127.0,108.0,126.0,128.0,18.0,-105.0,-80.0,127.0,127.0,127.0,107.0,84.0,-50.0
126.0,126.0,142.0,135.0,127.0,107.0,126.0,128.0,18.0,-105.0,-80.0,127.0,127.0,127.0,107.0,84.0,-50.0
126.0,126.0,143.0,135.0,127.0,110.0,126.0,128.0,18.0,-105.0,-80.0,127.0,127.0,127.0,107.0,84.0,-50.0
126.0,126.0,143.0,135.0,127.0,110.0,126.0,128.0,18.0,-105.0,-80.0,127.0,127.0,127.0,107.0,84.0,-50.0
126.0,126.0,142.0,135.0,127.0,110.0,126.0,128.0,18.0,-105.0,-80.0,127.0,127.0,127.0,107.0,84.0,-50.0
126.0,126.0,142.0,135.0,127.0,110.0,126.0,128.0,18.0,-105.0,-80.0,127.0,127.0,127.0,107.0,84.0,-50.0
126.0,126.0,142.0,135.0,127.0,109.0,126.0,128.0,18.0,-105.0,-80.0,127.0,127.0,127.0,107.0,84.0,-50.0
126.0,127.0,140.0,136.0,126.0,107.0,126.0,128.0,18.0,-104.0,-80.0,127.0,127.0,127.0,107.0,84.0,-50.0
126.0,126.0,140.0,136.0,126.0,106.0,126.0,128.0,18.0,-104.0,-80.0,127.0,127.0,127.0,107.0,84.0,-50.0
126.0,127.0,139.0,136.0,126.0,106.0,126.0,128.0,18.0,-104.0,-80.0,127.0,127.0,127.0,107.0,84.0,-50.0
126.0,127.0,139.0,136.0,126.0,106.0,126.0,128.0,18.0,-104.0,-80.0,127.0,127.0,127.0,107.0,84.0,-50.0
126.0,126.0,141.0,136.0,126.0,109.0,126.0,128.0,18.0,-104.0,-80.0,127.0,127.0,127.0,107.0,84.0,-50.0
126.0,126.0,140.0,136.0,126.0,109.0,126.0,128.0,18.0,-104.0,-80.0,127.0,127.0,127.0,107.0,84.0,-50.0
126.0,127.0,140.0,136.0,126.0,109.0,126.0,128.0,18.0,-104.0,-80.0,127.0,127.0,127.0,107.0,84.0,-50.0
126.0,126.0,140.0,136.0,126.0,108.0,126.0,128.0,18.0,-104.0,-80.0,127.0,127.0,127.0,107.0,84.0,-50.0
126.0,126.0,140.0,136.0,126.0,108.0,126.0,128.0,18.0,-104.0,-80.0,127.0,127.0,127.0,107.0,84.0,-50.0
126.0,127.0,140.0,136.0,126.0,107.0,126.0,128.0,18.0,-104.0,-80.0,127.0,127.0,127.0,107.0,84.0,-50.0
126.0,126.0,133.0,136.0,126.0,106.0,126.0,128.0,19.0,-104.0,-80.0,127.0,127.0,127.0,107.0,84.0,-50.0
126.0,126.0,133.0,136.0,126.0,106.0,126.0,128.0,19.0,-104.0,-80.0,127.0,127.0,127.0,107.0,84.0,-50.0
126.0,126.0,133.0,136.0,126.0,106.0,127.0,128.0,19.0,-104.0,-80.0,127.0,127.0,127.0,107.0,84.0,-50.0
126.0,126.0,134.0,136.0,127.0,108.0,126.0,128.0,19.0,-104.0,-80.0,127.0,127.0,127.0,107.0,84.0,-50.0
126.0,126.0,134.0,136.0,127.0,108.0,126.0,128.0,19.0,-104.0,-80.0,127.0,127.0,127.0,107.0,84.0,-50.0
126.0,126.0,134.0,136.0,127.0,108.0,126.0,128.0,19.0,-104.0,-80.0,127.0,127.0,127.0,107.0,84.0,-50.0
126.0,126.0,134.0,136.0,127.0,108.0,126.0,128.0,19.0,-104.0,-80.0,127.0,127.0,127.0,107.0,84.0,-50.0
126.0,126.0,134.0,136.0,126.0,107.0,126.0,128.0,19.0,-104.0,-80.0,127.0,127.0,127.0,107.0,84.0,-50.0
126.0,126.0,134.0,136.0,126.0,107.0,126.0,128.0,19.0,-104.0,-80.0,127.0,127.0,127.0,107.0,84.0,-50.0
126.0,126.0,134.0,136.0,126.0,106.0,126.0,128.0,19.0,-104.0,-80.0,127.0,127.0,127.0,107.0,84.0,-50.0
127.0,127.0,128.0,136.0,127.0,108.0,127.0,128.0,20.0,-104.0,-80.0,127.0,127.0,127.0,107.0,84.0,-50.0
127.0,127.0,128.0,136.0,127.0,108.0,127.0,128.0,20.0,-104.0,-80.0,127.0,127.0,127.0,107.0,84.0,-50.0
127.0,126.0,130.0,135.0,126.0,106.0,126.0,128.0,20.0,-104.0,-80.0,127.0,127.0,127.0,107.0,84.0,-50.0
127.0,126.0,129.0,135.0,126.0,107.0,126.0,128.0,20.0,-104.0,-80.0,127.0,127.0,127.0,107.0,84.0,-50.0
127.0,126.0,129.0,136.0,126.0,107.0,126.0,128.0,20.0,-104.0,-80.0,127.0,127.0,127.0,107.0,84.0,-50.0
127.0,126.0,129.0,136.0,127.0,107.0,127.0,128.0,20.0,-104.0,-80.0,127.0,127.0,127.0,107.0,84.0,-50.0
127.0,126.0,129.0,136.0,127.0,107.0,127.0,128.0,20.0,-104.0,-80.0,127.0,127.0,127.0,107.0,84.0,-50.0
127.0,126.0,129.0,136.0,127.0,107.0,127.0,128.0,20.0,-104.0,-80.0,127.0,127.0,127.0,107.0,84.0,-50.0
127.0,126.0,129.0,136.0,127.0,107.0,127.0,128.0,20.0,-104.0,-80.0,127.0,127.0,127.0,107.0,84.0,-50.0
127.0,127.0,128.0,136.0,127.0,108.0,127.0,128.0,20.0,-104.0,-80.0,127.0,127.0,127.0,107.0,84.0,-50.0
126.0,126.0,129.0,135.0,126.0,108.0,126.0,128.0,21.0,-104.0,-80.0,127.0,127.0,127.0,107.0,84.0,-50.0
126.0,125.0,130.0,134.0,126.0,106.0,126.0,127.0,21.0,-104.0,-80.0,127.0,127.0,127.0,107.0,84.0,-50.0
126.0,126.0,129.0,134.0,126.0,108.0,126.0,128.0,21.0,-104.0,-80.0,127.0,127.0,127.0,107.0,84.0,-50.0
126.0,126.0,129.0,134.0,126.0,108.0,126.0,128.0,21.0,-104.0,-80.0,127.0,127.0,127.0,107.0,84.0,-50.0
126.0,126.0,129.0,134.0,126.0,108.0,126.0,128.0,21.0,-104.0,-80.0,127.0,127.0,127.0,107.0,84.0,-50.0
126.0,126.0,130.0,134.0,126.0,107.0,126.0,128.0,21.0,-104.0,-80.0,127.0,127.0,127.0,107.0,84.0,-50.0
126.0,126.0,129.0,134.0,126.0,107.0,126.0,128.0,21.0,-104.0,-80.0,127.0,127.0,127.0,107.0,84.0,-50.0
126.0,126.0,129.0,134.0,126.0,107.0,126.0,128.0,21.0,-104.0,-80.0,127.0,127.0,127.0,107.0,84.0,-50.0
126.0,126.0,129.0,134.0,126.0,108.0,126.0,128.0,21.0,-104.0,-80.0,127.0,127.0,127.0,107.0,84.0,-50.0
126.0,126.0,129.0,135.0,126.0,109.0,126.0,128.0,21.0,-104.0,-80.0,127.0,127.0,127.0,107.0,84.0,-50.0
126.0,126.0,132.0,133.0,126.0,105.0,126.0,128.0,22.0,-104.0,-80.0,127.0,127.0,127.0,108.0,84.0,-50.0
126.0,126.0,132.0,133.0,126.0,106.0,126.0,128.0,22.0,-104.0,-80.0,127.0,127.0,127.0,108.0,84.0,-50.0
126.0,126.0,132.0,133.0,126.0,106.0,126.0,128.0,22.0,-104.0,-80.0,127.0,127.0,127.0,108.0,84.0,-50.0
126.0,126.0,132.0,133.0,126.0,106.0,126.0,128.0,22.0,-104.0,-80.0,127.0,127.0,127.0,108.0,84.0,-50.0
126.0,126.0,132.0,133.0,126.0,106.0,126.0,128.0,22.0,-104.0,-80.0,127.0,127.0,127.0,108.0,84.0,-50.0
126.0,126.0,132.0,133.0,126.0,106.0,126.0,128.0,22.0,-104.0,-80.0,127.0,127.0,127.0,108.0,84.0,-50.0
126.0,126.0,131.0,133.0,126.0,106.0,126.0,128.0,22.0,-104.0,-80.0,127.0,127.0,127.0,108.0,84.0,-50.0
126.0,127.0,131.0,133.0,126.0,107.0,126.0,128.0,22.0,-104.0,-80.0,127.0,127.0,127.0,108.0,84.0,-50.0
126.0,127.0,131.0,133.0,126.0,107.0,126.0,128.0,22.0,-104.0,-80.0,127.0,127.0,127.0,108.0,84.0,-50.0
126.0,127.0,131.0,133.0,126.0,107.0,126.0,128.0,22.0,-104.0,-80.0,127.0,127.0,127.0,108.0,84.0,-50.0
126.0,126.0,132.0,133.0,126.0,105.0,126.0,126.0,22.0,-105.0,-80.0,127.0,127.0,127.0,108.0,84.0,-50.0
126.0,126.0,132.0,133.0,127.0,105.0,126.0,126.0,22.0,-105.0,-80.0,127.0,127.0,127.0,108.0,84.0,-50.0
126.0,126.0,133.0,133.0,127.0,105.0,126.0,127.0,22.0,-105.0,-80.0,127.0,127.0,127.0,108.0,84.0,-50.0
126.0,126.0,133.0,133.0,126.0,105.0,126.0,127.0,22.0,-105.0,-80.0,127.0,127.0,127.0,108.0,84.0,-50.0
126.0,126.0,133.0,133.0,127.0,105.0,126.0,127.0,22.0,-105.0,-80.0,127.0,127.0,127.0,108.0,84.0,-50.0
126.0,126.0,133.0,133.0,126.0,105.0,127.0,128.0,22.0,-105.0,-80.0,127.0,127.0,127.0,108.0,84.0,-50.0
126.0,127.0,132.0,133.0,127.0,106.0,126.0,128.0,22.0,-105.0,-80.0,127.0,127.0,127.0,108.0,84.0,-50.0
126.0,127.0,132.0,133.0,127.0,106.0,126.0,128.0,22.0,-105.0,-80.0,127.0,127.0,127.0,108.0,84.0,-50.0
126.0,127.0,132.0,133.0,127.0,106.0,127.0,128.0,22.0,-105.0,-80.0,127.0,127.0,127.0,108.0,84.0,-50.0
126.0,126.0,133.0,133.0,126.0,104.0,126.0,126.0,22.0,-105.0,-80.0,127.0,127.0,127.0,108.0,84.0,-50.0
127.0,126.0,132.0,132.0,126.0,104.0,126.0,128.0,21.0,-105.0,-80.0,127.0,127.0,127.0,108.0,84.0,-50.0
127.0,126.0,132.0,132.0,126.0,104.0,126.0,128.0,21.0,-105.0,-80.0,127.0,127.0,127.0,108.0,84.0,-50.0
127.0,126.0,132.0,132.0,126.0,104.0,126.0,128.0,21.0,-105.0,-80.0,127.0,127.0,127.0,108.0,84.0,-50.0
127.0,126.0,132.0,132.0,126.0,104.0,126.0,128.0,21.0,-105.0,-80.0,127.0,127.0,127.0,108.0,84.0,-50.0
127.0,126.0,132.0,132.0,126.0,104.0,126.0,128.0,21.0,-105.0,-80.0,127.0,127.0,127.0,108.0,84.0,-50.0
127.0,126.0,132.0,132.0,126.0,104.0,126.0,128.0,21.0,-105.0,-80.0,127.0,127.0,127.0,108.0,84.0,-50.0
127.0,127.0,131.0,132.0,127.0,105.0,126.0,128.0,21.0,-105.0,-80.0,127.0,127.0,127.0,108.0,84.0,-50.0
127.0,127.0,131.0,133.0,127.0,105.0,126.0,128.0,21.0,-105.0,-80.0,127.0,127.0,127.0,108.0,84.0,-50.0
127.0,126.0,133.0,132.0,126.0,102.0,126.0,128.0,21.0,-105.0,-80.0,127.0,127.0,127.0,108.0,84.0,-50.0
127.0,126.0,132.0,132.0,126.0,104.0,126.0,128.0,21.0,-105.0,-80.0,127.0,127.0,127.0,108.0,84.0,-50.0
127.0,126.0,134.0,132.0,126.0,106.0,126.0,128.0,20.0,-105.0,-80.0,127.0,127.0,127.0,108.0,84.0,-50.0
127.0,126.0,134.0,132.0,126.0,106.0,126.0,128.0,20.0,-105.0,-80.0,127.0,127.0,127.0,108.0,84.0,-50.0
127.0,126.0,134.0,132.0,126.0,105.0,126.0,128.0,20.0,-105.0,-80.0,127.0,127.0,127.0,108.0,84.0,-50.0
127.0,126.0,134.0,132.0,126.0,105.0,126.0,128.0,20.0,-105.0,-80.0,127.0,127.0,127.0,108.0,84.0,-50.0
126.0,126.0,133.0,132.0,126.0,106.0,126.0,128.0,20.0,-105.0,-80.0,127.0,127.0,127.0,108.0,84.0,-50.0
126.0,126.0,133.0,132.0,126.0,107.0,126.0,128.0,20.0,-105.0,-80.0,127.0,127.0,127.0,108.0,84.0,-50.0
127.0,125.0,135.0,132.0,126.0,104.0,126.0,128.0,20.0,-105.0,-80.0,127.0,127.0,127.0,108.0,84.0,-50.0
127.0,125.0,135.0,132.0,126.0,104.0,126.0,128.0,20.0,-105.0,-80.0,127.0,127.0,127.0,108.0,84.0,-50.0
127.0,126.0,134.0,132.0,126.0,105.0,126.0,128.0,20.0,-105.0,-80.0,127.0,127.0,127.0,108.0,84.0,-50.0
127.0,126.0,134.0,132.0,126.0,106.0,126.0,128.0,20.0,-105.0,-80.0,127.0,127.0,127.0,108.0,84.0,-50.0
126.0,126.0,131.0,131.0,126.0,107.0,126.0,128.0,19.0,-106.0,-80.0,127.0,127.0,127.0,108.0,84.0,-50.0
126.0,126.0,131.0,131.0,126.0,107.0,126.0,128.0,19.0,-106.0,-80.0,127.0,127.0,127.0,108.0,84.0,-50.0
126.0,126.0,131.0,131.0,126.0,107.0,126.0,128.0,19.0,-106.0,-80.0,127.0,127.0,127.0,108.0,84.0,-50.0
126.0,126.0,130.0,131.0,126.0,107.0,126.0,128.0,19.0,-106.0,-80.0,127.0,127.0,127.0,108.0,84.0,-50.0
126.0,126.0,130.0,131.0,126.0,108.0,126.0,128.0,19.0,-106.0,-80.0,127.0,127.0,127.0,108.0,84.0,-50.0
127.0,125.0,132.0,131.0,126.0,105.0,126.0,128.0,19.0,-106.0,-80.0,127.0,127.0,127.0,108.0,84.0,-50.0
127.0,125.0,132.0,131.0,126.0,105.0,126.0,128.0,19.0,-106.0,-80.0,127.0,127.0,127.0,108.0,84.0,-50.0
126.0,125.0,132.0,131.0,126.0,107.0,126.0,128.0,19.0,-106.0,-80.0,127.0,127.0,127.0,108.0,84.0,-50.0
126.0,126.0,131.0,131.0,126.0,107.0,126.0,128.0,19.0,-106.0,-80.0,127.0,127.0,127.0,108.0,84.0,-50.0
126.0,126.0,131.0,131.0,126.0,107.0,126.0,128.0,19.0,-106.0,-80.0,127.0,127.0,127.0,108.0,84.0,-50.0
126.0,126.0,126.0,131.0,126.0,107.0,126.0,128.0,18.0,-106.0,-80.0,127.0,127.0,127.0,108.0,84.0,-50.0
126.0,126.0,126.0,131.0,126.0,108.0,126.0,128.0,18.0,-106.0,-80.0,127.0,127.0,127.0,108.0,84.0,-50.0
126.0,127.0,125.0,131.0,126.0,108.0,126.0,128.0,18.0,-106.0,-80.0,127.0,127.0,127.0,108.0,84.0,-50.0
126.0,127.0,125.0,131.0,126.0,109.0,126.0,128.0,18.0,-106.0,-80.0,127.0,127.0,127.0,108.0,84.0,-50.0
126.0,126.0,127.0,131.0,126.0,106.0,126.0,128.0,18.0,-106.0,-80.0,127.0,127.0,127.0,108.0,84.0,-50.0
126.0,126.0,127.0,131.0,126.0,106.0,126.0,128.0,18.0,-106.0,-80.0,127.0,127.0,127.0,108.0,84.0,-50.0
126.0,126.0,126.0,131.0,126.0,107.0,126.0,128.0,18.0,-106.0,-80.0,127.0,127.0,127.0,108.0,84.0,-50.0
126.0,126.0,126.0,131.0,126.0,108.0,126.0,128.0,18.0,-106.0,-80.0,127.0,127.0,127.0,108.0,84.0,-50.0
126.0,126.0,126.0,131.0,126.0,108.0,126.0,128.0,18.0,-106.0,-80.0,127.0,127.0,127.0,108.0,84.0,-50.0
126.0,126.0,126.0,131.0,126.0,108.0,126.0,128.0,18.0,-106.0,-80.0,127.0,127.0,127.0,108.0,84.0,-50.0
126.0,126.0,126.0,131.0,126.0,106.0,126.0,128.0,17.0,-105.0,-79.0,127.0,127.0,127.0,108.0,84.0,-50.0
126.0,126.0,126.0,131.0,126.0,106.0,126.0,128.0,17.0,-105.0,-79.0,127.0,127.0,127.0,108.0,84.0,-50.0
126.0,126.0,126.0,131.0,126.0,105.0,126.0,128.0,17.0,-105.0,-79.0,127.0,127.0,127.0,108.0,84.0,-50.0
126.0,126.0,126.0,131.0,126.0,107.0,126.0,128.0,17.0,-105.0,-79.0,127.0,127.0,127.0,108.0,84.0,-50.0
126.0,126.0,126.0,131.0,126.0,107.0,126.0,128.0,17.0,-105.0,-79.0,127.0,127.0,127.0,108.0,84.0,-50.0
126.0,126.0,126.0,131.0,126.0,106.0,126.0,128.0,17.0,-105.0,-79.0,127.0,127.0,127.0,108.0,84.0,-50.0
126.0,126.0,126.0,131.0,126.0,106.0,126.0,128.0,17.0,-105.0,-79.0,127.0,127.0,127.0,108.0,84.0,-50.0
126.0,126.0,126.0,131.0,126.0,106.0,126.0,128.0,17.0,-105.0,-79.0,127.0,127.0,127.0,108.0,84.0,-50.0
126.0,126.0,126.0,131.0,126.0,106.0,126.0,128.0,17.0,-105.0,-79.0,127.0,127.0,127.0,108.0,84.0,-50.0
126.0,126.0,126.0,131.0,126.0,106.0,126.0,128.0,17.0,-105.0,-79.0,127.0,127.0,127.0,108.0,84.0,-50.0
126.0,126.0,124.0,130.0,126.0,107.0,126.0,128.0,17.0,-105.0,-79.0,127.0,127.0,127.0,109.0,84.0,-50.0
126.0,127.0,123.0,130.0,126.0,108.0,126.0,128.0,17.0,-105.0,-79.0,127.0,127.0,127.0,109.0,84.0,-50.0
126.0,125.0,125.0,130.0,126.0,105.0,126.0,128.0,17.0,-105.0,-79.0,127.0,127.0,127.0,109.0,84.0,-50.0
126.0,126.0,125.0,130.0,126.0,106.0,126.0,128.0,17.0,-105.0,-79.0,127.0,127.0,127.0,109.0,84.0,-50.0
126.0,126.0,125.0,130.0,126.0,106.0,126.0,128.0,17.0,-105.0,-79.0,127.0,127.0,127.0,109.0,84.0,-50.0
126.0,126.0,124.0,130.0,126.0,108.0,126.0,128.0,17.0,-105.0,-79.0,127.0,127.0,127.0,109.0,84.0,-50.0
126.0,126.0,124.0,130.0,126.0,108.0,126.0,128.0,17.0,-105.0,-79.0,127.0,127.0,127.0,109.0,84.0,-50.0
126.0,126.0,124.0,130.0,126.0,107.0,126.0,128.0,17.0,-105.0,-79.0,127.0,127.0,127.0,109.0,84.0,-50.0
126.0,126.0,124.0,130.0,126.0,107.0,126.0,128.0,17.0,-105.0,-79.0,127.0,127.0,127.0,109.0,84.0,-50.0
126.0,126.0,124.0,130.0,126.0,107.0,126.0,128.0,17.0,-105.0,-79.0,127.0,127.0,127.0,109.0,84.0,-50.0
126.0,126.0,122.0,130.0,127.0,107.0,126.0,128.0,18.0,-105.0,-79.0,127.0,127.0,127.0,109.0,84.0,-50.0
126.0,125.0,124.0,130.0,127.0,104.0,126.0,128.0,18.0,-105.0,-79.0,127.0,127.0,127.0,109.0,84.0,-50.0
126.0,126.0,124.0,130.0,127.0,104.0,126.0,128.0,18.0,-105.0,-79.0,127.0,127.0,127.0,109.0,84.0,-50.0
126.0,126.0,123.0,130.0,127.0,105.0,126.0,128.0,18.0,-105.0,-79.0,127.0,127.0,127.0,109.0,84.0,-50.0
126.0,126.0,123.0,130.0,127.0,106.0,126.0,128.0,18.0,-105.0,-79.0,127.0,127.0,127.0,109.0,84.0,-50.0
126.0,126.0,123.0,130.0,127.0,106.0,126.0,128.0,18.0,-105.0,-79.0,127.0,127.0,127.0,109.0,84.0,-50.0
126.0,126.0,123.0,130.0,127.0,106.0,126.0,128.0,18.0,-105.0,-79.0,127.0,127.0,127.0,109.0,84.0,-50.0
126.0,126.0,123.0,130.0,127.0,106.0,126.0,128.0,18.0,-105.0,-79.0,127.0,127.0,127.0,109.0,84.0,-50.0
126.0,126.0,123.0,130.0,127.0,106.0,126.0,128.0,18.0,-105.0,-79.0,127.0,127.0,127.0,109.0,84.0,-50.0
126.0,126.0,123.0,130.0,127.0,106.0,126.0,128.0,18.0,-105.0,-79.0,127.0,127.0,127.0,109.0,84.0,-50.0
126.0,126.0,123.0,130.0,126.0,105.0,126.0,128.0,19.0,-105.0,-79.0,127.0,127.0,127.0,109.0,84.0,-50.0
126.0,126.0,123.0,130.0,126.0,105.0,126.0,128.0,19.0,-105.0,-79.0,127.0,127.0,127.0,109.0,84.0,-50.0
126.0,126.0,123.0,130.0,126.0,105.0,126.0,128.0,19.0,-105.0,-79.0,127.0,127.0,127.0,109.0,84.0,-50.0
126.0,127.0,123.0,130.0,126.0,107.0,126.0,128.0,19.0,-105.0,-79.0,127.0,127.0,127.0,109.0,84.0,-50.0
126.0,127.0,123.0,130.0,126.0,107.0,126.0,128.0,19.0,-105.0,-79.0,127.0,127.0,127.0,109.0,84.0,-50.0
126.0,127.0,123.0,130.0,126.0,107.0,126.0,128.0,19.0,-105.0,-79.0,127.0,127.0,127.0,109.0,84.0,-50.0
126.0,126.0,123.0,130.0,126.0,107.0,126.0,128.0,19.0,-105.0,-79.0,127.0,127.0,127.0,109.0,84.0,-50.0
126.0,127.0,123.0,130.0,126.0,107.0,127.0,128.0,19.0,-105.0,-79.0,127.0,127.0,127.0,109.0,84.0,-50.0
126.0,127.0,123.0,130.0,126.0,106.0,127.0,128.0,19.0,-105.0,-79.0,127.0,127.0,127.0,109.0,84.0,-50.0
126.0,127.0,122.0,130.0,127.0,107.0,126.0,128.0,19.0,-105.0,-79.0,127.0,127.0,127.0,109.0,84.0,-50.0
126.0,126.0,127.0,129.0,126.0,108.0,126.0,128.0,20.0,-106.0,-80.0,127.0,127.0,127.0,109.0,84.0,-50.0
126.0,126.0,127.0,129.0,127.0,108.0,126.0,128.0,20.0,-106.0,-80.0,127.0,127.0,127.0,109.0,84.0,-50.0
126.0,126.0,128.0,129.0,126.0,108.0,126.0,128.0,20.0,-106.0,-80.0,127.0,127.0,127.0,109.0,84.0,-50.0
126.0,126.0,128.0,129.0,126.0,108.0,126.0,128.0,20.0,-106.0,-80.0,127.0,127.0,127.0,109.0,84.0,-50.0
126.0,126.0,128.0,129.0,126.0,108.0,126.0,128.0,20.0,-106.0,-80.0,127.0,127.0,127.0,109.0,84.0,-50.0
126.0,126.0,128.0,129.0,126.0,107.0,126.0,128.0,20.0,-106.0,-80.0,127.0,127.0,127.0,109.0,84.0,-50.0
126.0,126.0,128.0,129.0,126.0,107.0,126.0,128.0,20.0,-106.0,-80.0,127.0,127.0,127.0,109.0,84.0,-50.0
126.0,126.0,129.0,129.0,126.0,107.0,126.0,128.0,20.0,-106.0,-80.0,127.0,127.0,127.0,109.0,84.0,-50.0
126.0,126.0,129.0,129.0,126.0,107.0,126.0,128.0,20.0,-106.0,-80.0,127.0,127.0,127.0,109.0,84.0,-50.0
126.0,126.0,127.0,129.0,126.0,108.0,126.0,128.0,20.0,-106.0,-80.0,127.0,127.0,127.0,109.0,84.0,-50.0
126.0,126.0,133.0,129.0,127.0,109.0,126.0,128.0,21.0,-106.0,-80.0,127.0,127.0,127.0,109.0,84.0,-50.0
126.0,126.0,133.0,129.0,126.0,109.0,126.0,128.0,21.0,-106.0,-80.0,127.0,127.0,127.0,109.0,84.0,-50.0
127.0,126.0,133.0,129.0,126.0,108.0,126.0,128.0,21.0,-106.0,-80.0,127.0,127.0,127.0,109.0,84.0,-50.0
126.0,126.0,133.0,129.0,126.0,108.0,126.0,128.0,21.0,-106.0,-80.0,127.0,127.0,127.0,109.0,84.0,-50.0
126.0,126.0,133.0,129.0,126.0,108.0,126.0,128.0,21.0,-106.0,-80.0,127.0,127.0,127.0,109.0,84.0,-50.0
126.0,126.0,133.0,129.0,126.0,107.0,126.0,128.0,21.0,-106.0,-80.0,127.0,127.0,127.0,109.0,84.0,-50.0
126.0,126.0,133.0,129.0,126.0,107.0,126.0,128.0,21.0,-106.0,-80.0,127.0,127.0,127.0,109.0,84.0,-50.0
126.0,126.0,133.0,129.0,126.0,106.0,126.0,128.0,21.0,-106.0,-80.0,127.0,127.0,127.0,109.0,84.0,-50.0
126.0,126.0,133.0,129.0,127.0,109.0,126.0,128.0,21.0,-106.0,-80.0,127.0,127.0,127.0,109.0,84.0,-50.0
126.0,126.0,133.0,129.0,127.0,109.0,126.0,128.0,21.0,-106.0,-80.0,127.0,127.0,127.0,109.0,84.0,-50.0
126.0,126.0,133.0,129.0,126.0,106.0,126.0,128.0,22.0,-106.0,-80.0,127.0,127.0,127.0,110.0,84.0,-50.0
126.0,126.0,133.0,129.0,126.0,106.0,126.0,128.0,22.0,-106.0,-80.0,127.0,127.0,127.0,110.0,84.0,-50.0
126.0,126.0,133.0,129.0,126.0,106.0,126.0,128.0,22.0,-106.0,-80.0,127.0,127.0,127.0,110.0,84.0,-50.0
126.0,126.0,133.0,129.0,126.0,105.0,126.0,128.0,22.0,-106.0,-80.0,127.0,127.0,127.0,110.0,84.0,-50.0
126.0,126.0,133.0,129.0,126.0,105.0,126.0,128.0,22.0,-106.0,-80.0,127.0,127.0,127.0,110.0,84.0,-50.0
126.0,126.0,133.0,129.0,126.0,105.0,127.0,128.0,22.0,-106.0,-80.0,127.0,127.0,127.0,110.0,84.0,-50.0
126.0,126.0,133.0,129.0,126.0,104.0,127.0,128.0,22.0,-106.0,-80.0,127.0,127.0,127.0,110.0,84.0,-50.0
126.0,126.0,133.0,129.0,126.0,106.0,126.0,128.0,22.0,-106.0,-80.0,127.0,127.0,127.0,110.0,84.0,-50.0
126.0,126.0,133.0,129.0,126.0,106.0,126.0,128.0,22.0,-106.0,-80.0,127.0,127.0,127.0,110.0,84.0,-50.0
126.0,126.0,133.0,129.0,126.0,106.0,126.0,128.0,22.0,-106.0,-80.0,127.0,127.0,127.0,110.0,84.0,-50.0
127.0,126.0,131.0,129.0,127.0,106.0,126.0,128.0,21.0,-107.0,-79.0,127.0,127.0,127.0,110.0,84.0,-50.0
127.0,126.0,131.0,129.0,127.0,106.0,126.0,128.0,21.0,-107.0,-79.0,127.0,127.0,127.0,110.0,84.0,-50.0
127.0,126.0,131.0,129.0,127.0,105.0,127.0,128.0,21.0,-107.0,-79.0,127.0,127.0,127.0,110.0,84.0,-50.0
127.0,126.0,131.0,129.0,127.0,105.0,127.0,128.0,21.0,-107.0,-79.0,127.0,127.0,127.0,110.0,84.0,-50.0
127.0,126.0,130.0,129.0,127.0,105.0,127.0,128.0,21.0,-107.0,-79.0,127.0,127.0,127.0,110.0,84.0,-50.0
127.0,126.0,130.0,129.0,127.0,105.0,127.0,128.0,21.0,-107.0,-79.0,127.0,127.0,127.0,110.0,84.0,-50.0
127.0,126.0,131.0,129.0,127.0,106.0,126.0,128.0,21.0,-107.0,-79.0,127.0,127.0,127.0,110.0,84.0,-50.0
127.0,126.0,131.0,129.0,127.0,106.0,126.0,128.0,21.0,-107.0,-79.0,127.0,127.0,127.0,110.0,84.0,-50.0
127.0,126.0,131.0,129.0,127.0,106.0,126.0,128.0,21.0,-107.0,-79.0,127.0,127.0,127.0,110.0,84.0,-50.0
127.0,126.0,131.0,129.0,127.0,106.0,126.0,128.0,21.0,-107.0,-79.0,127.0,127.0,127.0,110.0,84.0,-50.0
127.0,125.0,128.0,129.0,127.0,107.0,126.0,128.0,20.0,-107.0,-79.0,127.0,127.0,127.0,110.0,84.0,-50.0
127.0,125.0,128.0,128.0,127.0,107.0,126.0,128.0,20.0,-107.0,-79.0,127.0,127.0,127.0,110.0,84.0,-50.0
126.0,126.0,128.0,129.0,127.0,108.0,126.0,128.0,20.0,-107.0,-79.0,127.0,127.0,127.0,110.0,84.0,-50.0
126.0,126.0,128.0,129.0,127.0,108.0,126.0,128.0,20.0,-107.0,-79.0,127.0,127.0,127.0,110.0,84.0,-50.0
126.0,126.0,128.0,129.0,127.0,108.0,126.0,128.0,20.0,-107.0,-79.0,127.0,127.0,127.0,110.0,84.0,-50.0
126.0,125.0,128.0,128.0,127.0,106.0,126.0,128.0,20.0,-107.0,-79.0,127.0,127.0,127.0,110.0,84.0,-50.0
127.0,125.0,128.0,128.0,127.0,107.0,126.0,128.0,20.0,-107.0,-79.0,127.0,127.0,127.0,110.0,84.0,-50.0
127.0,125.0,128.0,128.0,127.0,107.0,126.0,128.0,20.0,-107.0,-79.0,127.0,127.0,127.0,110.0,84.0,-50.0
127.0,125.0,128.0,128.0,127.0,107.0,126.0,128.0,20.0,-107.0,-79.0,127.0,127.0,127.0,110.0,84.0,-50.0
127.0,125.0,128.0,128.0,127.0,107.0,126.0,128.0,20.0,-107.0,-79.0,127.0,127.0,127.0,110.0,84.0,-50.0
127.0,125.0,125.0,128.0,127.0,108.0,126.0,128.0,19.0,-107.0,-79.0,127.0,127.0,127.0,111.0,84.0,-50.0
126.0,126.0,124.0,128.0,127.0,109.0,126.0,128.0,19.0,-107.0,-79.0,127.0,127.0,127.0,111.0,84.0,-50.0
127.0,126.0,124.0,128.0,127.0,109.0,126.0,128.0,19.0,-107.0,-79.0,127.0,127.0,127.0,111.0,84.0,-50.0
126.0,126.0,124.0,128.0,127.0,109.0,126.0,128.0,19.0,-107.0,-79.0,127.0,127.0,127.0,111.0,84.0,-50.0
126.0,125.0,125.0,127.0,126.0,106.0,126.0,128.0,19.0,-107.0,-79.0,127.0,127.0,127.0,111.0,84.0,-50.0
127.0,125.0,125.0,128.0,127.0,108.0,126.0,128.0,19.0,-107.0,-79.0,127.0,127.0,127.0,111.0,84.0,-50.0
127.0,125.0,125.0,128.0,127.0,108.0,126.0,128.0,19.0,-107.0,-79.0,127.0,127.0,127.0,111.0,84.0,-50.0
127.0,125.0,125.0,128.0,127.0,108.0,126.0,128.0,19.0,-107.0,-79.0,127.0,127.0,127.0,111.0,84.0,-50.0
127.0,125.0,125.0,128.0,127.0,108.0,126.0,128.0,19.0,-107.0,-79.0,127.0,127.0,127.0,111.0,84.0,-50.0
127.0,125.0,125.0,128.0,127.0,108.0,126.0,128.0,19.0,-107.0,-79.0,127.0,127.0,127.0,111.0,84.0,-50.0
126.0,126.0,121.0,128.0,127.0,108.0,126.0,128.0,18.0,-106.0,-79.0,127.0,127.0,127.0,111.0,84.0,-50.0
126.0,126.0,121.0,128.0,127.0,109.0,126.0,128.0,18.0,-106.0,-79.0,127.0,127.0,127.0,111.0,84.0,-50.0
126.0,126.0,121.0,128.0,127.0,109.0,126.0,128.0,18.0,-106.0,-79.0,127.0,127.0,127.0,111.0,84.0,-50.0
127.0,126.0,123.0,129.0,127.0,105.0,126.0,128.0,18.0,-106.0,-79.0,127.0,127.0,127.0,111.0,84.0,-50.0
126.0,126.0,122.0,129.0,127.0,107.0,126.0,128.0,18.0,-106.0,-79.0,127.0,127.0,127.0,111.0,84.0,-50.0
126.0,126.0,122.0,129.0,127.0,108.0,126.0,128.0,18.0,-106.0,-79.0,127.0,127.0,127.0,111.0,84.0,-50.0
126.0,126.0,122.0,129.0,127.0,107.0,126.0,128.0,18.0,-106.0,-79.0,127.0,127.0,127.0,111.0,84.0,-50.0
126.0,126.0,122.0,129.0,127.0,107.0,126.0,128.0,18.0,-106.0,-79.0,127.0,127.0,127.0,111.0,84.0,-50.0
126.0,126.0,122.0,129.0,127.0,107.0,126.0,128.0,18.0,-106.0,-79.0,127.0,127.0,127.0,111.0,84.0,-50.0
126.0,125.0,122.0,128.0,127.0,107.0,126.0,128.0,18.0,-106.0,-79.0,127.0,127.0,127.0,111.0,84.0,-50.0
126.0,125.0,121.0,128.0,127.0,109.0,126.0,128.0,18.0,-106.0,-78.0,127.0,127.0,127.0,111.0,84.0,-50.0
126.0,125.0,121.0,128.0,127.0,109.0,126.0,128.0,18.0,-106.0,-78.0,127.0,127.0,127.0,111.0,84.0,-50.0
126.0,126.0,121.0,128.0,127.0,106.0,126.0,128.0,18.0,-106.0,-78.0,127.0,127.0,127.0,111.0,84.0,-50.0
126.0,127.0,121.0,128.0,127.0,108.0,126.0,128.0,18.0,-106.0,-78.0,127.0,127.0,127.0,111.0,84.0,-50.0
126.0,126.0,121.0,128.0,127.0,108.0,126.0,128.0,18.0,-106.0,-78.0,127.0,127.0,127.0,111.0,84.0,-50.0
127.0,126.0,121.0,128.0,127.0,108.0,126.0,128.0,18.0,-106.0,-78.0,127.0,127.0,127.0,111.0,84.0,-50.0
126.0,126.0,121.0,128.0,127.0,108.0,126.0,128.0,18.0,-106.0,-78.0,127.0,127.0,127.0,111.0,84.0,-50.0
126.0,125.0,121.0,128.0,127.0,108.0,126.0,128.0,18.0,-106.0,-78.0,127.0,127.0,127.0,111.0,84.0,-50.0
126.0,125.0,121.0,128.0,127.0,108.0,126.0,128.0,18.0,-106.0,-78.0,127.0,127.0,127.0,111.0,84.0,-50.0
126.0,125.0,121.0,128.0,127.0,109.0,126.0,128.0,18.0,-106.0,-78.0,127.0,127.0,127.0,111.0,84.0,-50.0
126.0,126.0,121.0,128.0,127.0,109.0,126.0,128.0,17.0,-106.0,-78.0,127.0,127.0,127.0,111.0,84.0,-50.0
126.0,125.0,122.0,128.0,126.0,106.0,126.0,128.0,17.0,-106.0,-78.0,127.0,127.0,127.0,111.0,84.0,-50.0
126.0,126.0,122.0,128.0,127.0,107.0,126.0,128.0,17.0,-106.0,-78.0,127.0,127.0,127.0,111.0,84.0,-50.0
126.0,126.0,121.0,128.0,127.0,108.0,126.0,128.0,17.0,-106.0,-78.0,127.0,127.0,127.0,111.0,84.0,-50.0
126.0,126.0,121.0,128.0,127.0,108.0,126.0,128.0,17.0,-106.0,-78.0,127.0,127.0,127.0,111.0,84.0,-50.0
126.0,126.0,122.0,128.0,127.0,108.0,126.0,128.0,17.0,-106.0,-78.0,127.0,127.0,127.0,111.0,84.0,-50.0
126.0,126.0,122.0,128.0,126.0,107.0,126.0,128.0,17.0,-106.0,-78.0,127.0,127.0,127.0,111.0,84.0,-50.0
126.0,126.0,121.0,128.0,126.0,107.0,126.0,128.0,17.0,-106.0,-78.0,127.0,127.0,127.0,111.0,84.0,-50.0
126.0,126.0,121.0,128.0,127.0,108.0,126.0,128.0,17.0,-106.0,-78.0,127.0,127.0,127.0,111.0,84.0,-50.0
126.0,126.0,121.0,128.0,127.0,109.0,126.0,128.0,17.0,-106.0,-78.0,127.0,127.0,127.0,111.0,84.0,-50.0
126.0,125.0,122.0,128.0,126.0,106.0,126.0,128.0,18.0,-106.0,-79.0,127.0,127.0,127.0,111.0,84.0,-50.0
126.0,126.0,122.0,128.0,126.0,107.0,126.0,128.0,18.0,-106.0,-79.0,127.0,127.0,127.0,111.0,84.0,-50.0
126.0,126.0,122.0,128.0,127.0,108.0,126.0,128.0,18.0,-106.0,-79.0,127.0,127.0,127.0,111.0,84.0,-50.0
126.0,126.0,122.0,128.0,127.0,108.0,126.0,128.0,18.0,-106.0,-79.0,127.0,127.0,127.0,111.0,84.0,-50.0
126.0,126.0,122.0,128.0,127.0,107.0,126.0,128.0,18.0,-106.0,-79.0,127.0,127.0,127.0,111.0,84.0,-50.0
126.0,126.0,122.0,128.0,127.0,107.0,126.0,128.0,18.0,-106.0,-79.0,127.0,127.0,127.0,111.0,84.0,-50.0
126.0,126.0,122.0,128.0,127.0,107.0,126.0,128.0,18.0,-106.0,-79.0,127.0,127.0,127.0,111.0,84.0,-50.0
126.0,126.0,122.0,128.0,127.0,108.0,126.0,128.0,18.0,-106.0,-79.0,127.0,127.0,127.0,111.0,84.0,-50.0
126.0,126.0,121.0,128.0,127.0,109.0,126.0,128.0,18.0,-106.0,-79.0,127.0,127.0,127.0,111.0,84.0,-50.0
126.0,126.0,121.0,128.0,127.0,109.0,126.0,128.0,18.0,-106.0,-79.0,127.0,127.0,127.0,111.0,84.0,-50.0
127.0,126.0,123.0,128.0,126.0,107.0,126.0,128.0,19.0,-106.0,-79.0,127.0,127.0,127.0,111.0,84.0,-50.0
127.0,126.0,123.0,128.0,126.0,108.0,126.0,128.0,19.0,-106.0,-79.0,127.0,127.0,127.0,111.0,84.0,-50.0
127.0,126.0,123.0,128.0,126.0,108.0,126.0,128.0,19.0,-106.0,-79.0,127.0,127.0,127.0,111.0,84.0,-50.0
127.0,126.0,123.0,128.0,126.0,108.0,126.0,128.0,19.0,-106.0,-79.0,127.0,127.0,127.0,111.0,84.0,-50.0
126.0,126.0,123.0,128.0,126.0,108.0,126.0,128.0,19.0,-106.0,-79.0,127.0,127.0,127.0,111.0,84.0,-50.0
126.0,126.0,123.0,128.0,126.0,108.0,126.0,128.0,19.0,-106.0,-79.0,127.0,127.0,127.0,111.0,84.0,-50.0
126.0,126.0,123.0,128.0,126.0,108.0,126.0,128.0,19.0,-106.0,-79.0,127.0,127.0,127.0,111.0,84.0,-50.0
126.0,126.0,122.0,128.0,127.0,109.0,126.0,128.0,19.0,-106.0,-79.0,127.0,127.0,127.0,111.0,84.0,-50.0
126.0,126.0,122.0,128.0,127.0,109.0,126.0,128.0,19.0,-106.0,-79.0,127.0,127.0,127.0,111.0,84.0,-50.0
127.0,126.0,123.0,128.0,126.0,106.0,126.0,128.0,19.0,-106.0,-79.0,127.0,127.0,127.0,111.0,84.0,-50.0
126.0,125.0,127.0,128.0,126.0,110.0,126.0,128.0,20.0,-106.0,-79.0,127.0,127.0,127.0,111.0,84.0,-50.0
126.0,125.0,127.0,128.0,126.0,110.0,126.0,128.0,20.0,-106.0,-79.0,127.0,127.0,127.0,111.0,84.0,-50.0
126.0,125.0,127.0,128.0,126.0,110.0,126.0,128.0,20.0,-106.0,-79.0,127.0,127.0,127.0,111.0,84.0,-50.0
126.0,125.0,127.0,128.0,126.0,110.0,126.0,128.0,20.0,-106.0,-79.0,127.0,127.0,127.0,111.0,84.0,-50.0
126.0,125.0,127.0,128.0,126.0,110.0,126.0,128.0,20.0,-106.0,-79.0,127.0,127.0,127.0,111.0,84.0,-50.0
126.0,126.0,127.0,128.0,126.0,109.0,126.0,128.0,20.0,-106.0,-79.0,127.0,127.0,127.0,111.0,84.0,-50.0
126.0,126.0,127.0,128.0,126.0,109.0,127.0,128.0,20.0,-106.0,-79.0,127.0,127.0,127.0,111.0,84.0,-50.0
127.0,126.0,127.0,128.0,126.0,109.0,127.0,128.0,20.0,-106.0,-79.0,127.0,127.0,127.0,111.0,84.0,-50.0
126.0,125.0,126.0,128.0,126.0,110.0,126.0,128.0,20.0,-106.0,-79.0,127.0,127.0,127.0,111.0,84.0,-50.0
126.0,125.0,126.0,128.0,126.0,110.0,126.0,128.0,20.0,-106.0,-79.0,127.0,127.0,127.0,111.0,84.0,-50.0
126.0,125.0,129.0,128.0,127.0,110.0,126.0,128.0,21.0,-106.0,-79.0,127.0,127.0,127.0,111.0,84.0,-50.0
126.0,125.0,129.0,128.0,127.0,110.0,126.0,128.0,21.0,-106.0,-79.0,127.0,127.0,127.0,111.0,84.0,-50.0
126.0,125.0,129.0,128.0,127.0,109.0,126.0,128.0,21.0,-106.0,-79.0,127.0,127.0,127.0,111.0,84.0,-50.0
126.0,125.0,129.0,128.0,127.0,109.0,126.0,128.0,21.0,-106.0,-79.0,127.0,127.0,127.0,111.0,84.0,-50.0
126.0,125.0,129.0,128.0,126.0,109.0,126.0,128.0,21.0,-106.0,-79.0,127.0,127.0,127.0,111.0,84.0,-50.0
126.0,126.0,129.0,128.0,127.0,111.0,126.0,128.0,21.0,-106.0,-79.0,127.0,127.0,127.0,111.0,84.0,-50.0
126.0,126.0,129.0,128.0,127.0,111.0,126.0,128.0,21.0,-106.0,-79.0,127.0,127.0,127.0,111.0,84.0,-50.0
126.0,125.0,130.0,128.0,126.0,108.0,126.0,128.0,21.0,-106.0,-79.0,127.0,127.0,127.0,111.0,84.0,-50.0
126.0,125.0,130.0,128.0,126.0,108.0,126.0,128.0,21.0,-106.0,-79.0,127.0,127.0,127.0,111.0,84.0,-50.0
126.0,125.0,129.0,128.0,127.0,110.0,126.0,128.0,21.0,-106.0,-79.0,127.0,127.0,127.0,111.0,84.0,-50.0
126.0,125.0,129.0,128.0,127.0,109.0,126.0,128.0,22.0,-107.0,-79.0,127.0,127.0,127.0,111.0,84.0,-50.0
126.0,125.0,129.0,128.0,127.0,108.0,126.0,128.0,22.0,-107.0,-79.0,127.0,127.0,127.0,111.0,84.0,-50.0
126.0,125.0,129.0,128.0,127.0,108.0,126.0,128.0,22.0,-107.0,-79.0,127.0,127.0,127.0,111.0,84.0,-50.0
126.0,125.0,129.0,128.0,127.0,108.0,126.0,128.0,22.0,-107.0,-79.0,127.0,127.0,127.0,111.0,84.0,-50.0
126.0,126.0,128.0,128.0,127.0,109.0,126.0,128.0,22.0,-107.0,-79.0,127.0,127.0,127.0,111.0,84.0,-50.0
126.0,126.0,128.0,128.0,127.0,109.0,126.0,128.0,22.0,-107.0,-79.0,127.0,127.0,127.0,111.0,84.0,-50.0
126.0,125.0,129.0,127.0,127.0,106.0,126.0,128.0,22.0,-107.0,-79.0,127.0,127.0,127.0,111.0,84.0,-50.0
126.0,125.0,129.0,127.0,127.0,107.0,126.0,128.0,22.0,-107.0,-79.0,127.0,127.0,127.0,111.0,84.0,-50.0
126.0,125.0,129.0,127.0,127.0,108.0,126.0,128.0,22.0,-107.0,-79.0,127.0,127.0,127.0,111.0,84.0,-50.0
126.0,125.0,129.0,128.0,127.0,109.0,126.0,128.0,22.0,-107.0,-79.0,127.0,127.0,127.0,111.0,84.0,-50.0
127.0,126.0,129.0,128.0,127.0,108.0,126.0,128.0,21.0,-107.0,-79.0,127.0,127.0,127.0,111.0,84.0,-50.0
126.0,126.0,129.0,128.0,127.0,108.0,126.0,128.0,21.0,-107.0,-79.0,127.0,127.0,127.0,111.0,84.0,-50.0
127.0,126.0,128.0,128.0,127.0,108.0,126.0,128.0,21.0,-107.0,-79.0,127.0,127.0,127.0,111.0,84.0,-50.0
126.0,126.0,128.0,128.0,127.0,109.0,126.0,128.0,21.0,-107.0,-79.0,127.0,127.0,127.0,111.0,84.0,-50.0
127.0,125.0,129.0,128.0,126.0,105.0,126.0,128.0,21.0,-107.0,-79.0,127.0,127.0,127.0,111.0,84.0,-50.0
127.0,126.0,129.0,128.0,126.0,106.0,126.0,128.0,21.0,-107.0,-79.0,127.0,127.0,127.0,111.0,84.0,-50.0
127.0,126.0,129.0,128.0,126.0,106.0,126.0,128.0,21.0,-107.0,-79.0,127.0,127.0,127.0,111.0,84.0,-50.0
127.0,126.0,128.0,128.0,127.0,108.0,126.0,128.0,21.0,-107.0,-79.0,127.0,127.0,127.0,111.0,84.0,-50.0
127.0,126.0,128.0,128.0,127.0,108.0,126.0,128.0,21.0,-107.0,-79.0,127.0,127.0,127.0,111.0,84.0,-50.0
127.0,126.0,129.0,128.0,127.0,108.0,126.0,128.0,21.0,-107.0,-79.0,127.0,127.0,127.0,111.0,84.0,-50.0
127.0,125.0,130.0,127.0,126.0,110.0,126.0,128.0,20.0,-108.0,-79.0,127.0,127.0,127.0,111.0,84.0,-50.0
127.0,126.0,130.0,127.0,126.0,110.0,126.0,128.0,20.0,-108.0,-79.0,127.0,127.0,127.0,111.0,84.0,-50.0
127.0,126.0,130.0,127.0,126.0,111.0,126.0,128.0,20.0,-108.0,-79.0,127.0,127.0,127.0,111.0,84.0,-50.0
127.0,125.0,130.0,127.0,126.0,108.0,126.0,128.0,20.0,-108.0,-79.0,127.0,127.0,127.0,111.0,84.0,-50.0
127.0,125.0,130.0,127.0,126.0,108.0,126.0,128.0,20.0,-108.0,-79.0,127.0,127.0,127.0,111.0,84.0,-50.0
127.0,125.0,130.0,127.0,126.0,108.0,126.0,128.0,20.0,-108.0,-79.0,127.0,127.0,127.0,111.0,84.0,-50.0
127.0,125.0,130.0,127.0,126.0,110.0,126.0,128.0,20.0,-108.0,-79.0,127.0,127.0,127.0,111.0,84.0,-50.0
127.0,126.0,130.0,127.0,126.0,111.0,126.0,128.0,20.0,-108.0,-79.0,127.0,127.0,127.0,111.0,84.0,-50.0
127.0,126.0,130.0,127.0,126.0,111.0,126.0,128.0,20.0,-108.0,-79.0,127.0,127.0,127.0,111.0,84.0,-50.0
127.0,125.0,130.0,127.0,126.0,110.0,126.0,128.0,20.0,-108.0,-79.0,127.0,127.0,127.0,111.0,84.0,-50.0
127.0,125.0,132.0,127.0,127.0,113.0,126.0,128.0,19.0,-108.0,-79.0,127.0,127.0,127.0,111.0,84.0,-50.0
127.0,126.0,132.0,127.0,127.0,113.0,126.0,128.0,19.0,-108.0,-79.0,127.0,127.0,127.0,111.0,84.0,-50.0
127.0,125.0,132.0,127.0,127.0,110.0,126.0,127.0,19.0,-108.0,-79.0,127.0,127.0,127.0,111.0,84.0,-50.0
127.0,125.0,132.0,127.0,126.0,111.0,126.0,127.0,19.0,-108.0,-79.0,127.0,127.0,127.0,111.0,84.0,-50.0
127.0,125.0,132.0,127.0,127.0,111.0,126.0,127.0,19.0,-108.0,-79.0,127.0,127.0,127.0,111.0,84.0,-50.0
127.0,125.0,132.0,127.0,127.0,112.0,126.0,128.0,19.0,-108.0,-79.0,127.0,127.0,127.0,111.0,84.0,-50.0
127.0,126.0,132.0,127.0,127.0,113.0,126.0,128.0,19.0,-108.0,-79.0,127.0,127.0,127.0,111.0,84.0,-50.0
127.0,126.0,132.0,127.0,127.0,113.0,126.0,128.0,19.0,-108.0,-79.0,127.0,127.0,127.0,111.0,84.0,-50.0
127.0,125.0,132.0,127.0,127.0,113.0,126.0,128.0,19.0,-108.0,-79.0,127.0,127.0,127.0,111.0,84.0,-50.0
127.0,125.0,132.0,127.0,127.0,113.0,126.0,128.0,19.0,-108.0,-79.0,127.0,127.0,127.0,111.0,84.0,-50.0
126.0,126.0,130.0,127.0,127.0,111.0,126.0,128.0,19.0,-107.0,-78.0,127.0,127.0,127.0,112.0,84.0,-50.0
126.0,126.0,130.0,127.0,127.0,112.0,126.0,128.0,19.0,-107.0,-78.0,127.0,127.0,127.0,112.0,84.0,-50.0
126.0,126.0,130.0,127.0,127.0,112.0,126.0,128.0,19.0,-107.0,-78.0,127.0,127.0,127.0,112.0,84.0,-50.0
126.0,126.0,130.0,127.0,127.0,112.0,126.0,128.0,19.0,-107.0,-78.0,127.0,127.0,127.0,112.0,84.0,-50.0
126.0,126.0,130.0,127.0,127.0,112.0,126.0,128.0,19.0,-107.0,-78.0,127.0,127.0,127.0,112.0,84.0,-50.0
126.0,125.0,130.0,127.0,127.0,112.0,126.0,128.0,19.0,-107.0,-78.0,127.0,127.0,127.0,112.0,84.0,-50.0
126.0,125.0,130.0,127.0,127.0,112.0,126.0,128.0,19.0,-107.0,-78.0,127.0,127.0,127.0,112.0,84.0,-50.0
126.0,126.0,130.0,127.0,127.0,111.0,126.0,128.0,19.0,-107.0,-78.0,127.0,127.0,127.0,112.0,84.0,-50.0
127.0,125.0,131.0,127.0,127.0,111.0,126.0,128.0,19.0,-107.0,-78.0,127.0,127.0,127.0,112.0,84.0,-50.0
126.0,126.0,130.0,127.0,127.0,111.0,126.0,128.0,19.0,-107.0,-78.0,127.0,127.0,127.0,112.0,84.0,-50.0
127.0,126.0,128.0,126.0,126.0,113.0,126.0,128.0,18.0,-107.0,-78.0,127.0,127.0,127.0,112.0,84.0,-50.0
127.0,126.0,128.0,127.0,127.0,114.0,126.0,128.0,18.0,-107.0,-78.0,127.0,127.0,127.0,112.0,84.0,-50.0
127.0,126.0,128.0,127.0,127.0,114.0,126.0,128.0,18.0,-107.0,-78.0,127.0,127.0,127.0,112.0,84.0,-50.0
127.0,126.0,128.0,127.0,126.0,114.0,126.0,128.0,18.0,-107.0,-78.0,127.0,127.0,127.0,112.0,84.0,-50.0
127.0,126.0,128.0,126.0,126.0,113.0,126.0,128.0,18.0,-107.0,-78.0,127.0,127.0,127.0,112.0,84.0,-50.0
127.0,126.0,129.0,126.0,126.0,113.0,126.0,128.0,18.0,-107.0,-78.0,127.0,127.0,127.0,112.0,84.0,-50.0
127.0,126.0,129.0,126.0,126.0,113.0,126.0,128.0,18.0,-107.0,-78.0,127.0,127.0,127.0,112.0,84.0,-50.0
127.0,126.0,129.0,127.0,126.0,113.0,126.0,128.0,18.0,-107.0,-78.0,127.0,127.0,127.0,112.0,84.0,-50.0
127.0,126.0,128.0,127.0,126.0,113.0,126.0,128.0,18.0,-107.0,-78.0,127.0,127.0,127.0,112.0,84.0,-50.0
127.0,126.0,129.0,127.0,126.0,113.0,126.0,128.0,18.0,-107.0,-78.0,127.0,127.0,127.0,112.0,84.0,-50.0
127.0,125.0,129.0,127.0,126.0,110.0,126.0,128.0,18.0,-107.0,-78.0,127.0,127.0,127.0,112.0,84.0,-50.0
127.0,125.0,129.0,127.0,126.0,111.0,126.0,128.0,18.0,-107.0,-78.0,127.0,127.0,127.0,112.0,84.0,-50.0
127.0,126.0,129.0,127.0,126.0,111.0,126.0,128.0,18.0,-107.0,-78.0,127.0,127.0,127.0,112.0,84.0,-50.0
127.0,126.0,129.0,127.0,127.0,112.0,126.0,128.0,18.0,-107.0,-78.0,127.0,127.0,127.0,112.0,84.0,-50.0
127.0,126.0,129.0,127.0,127.0,112.0,126.0,128.0,18.0,-107.0,-78.0,127.0,127.0,127.0,112.0,84.0,-50.0
127.0,126.0,129.0,127.0,127.0,112.0,126.0,128.0,18.0,-107.0,-78.0,127.0,127.0,127.0,112.0,84.0,-50.0
127.0,126.0,129.0,127.0,127.0,112.0,126.0,128.0,18.0,-107.0,-78.0,127.0,127.0,127.0,112.0,84.0,-50.0
127.0,126.0,129.0,127.0,127.0,112.0,126.0,128.0,18.0,-107.0,-78.0,127.0,127.0,127.0,112.0,84.0,-50.0
127.0,126.0,129.0,127.0,127.0,112.0,126.0,128.0,18.0,-107.0,-78.0,127.0,127.0,127.0,112.0,84.0,-50.0
127.0,126.0,129.0,127.0,127.0,110.0,126.0,128.0,18.0,-107.0,-78.0,127.0,127.0,127.0,112.0,84.0,-50.0
127.0,126.0,127.0,127.0,127.0,109.0,126.0,128.0,18.0,-107.0,-78.0,127.0,127.0,127.0,112.0,84.0,-50.0
127.0,125.0,127.0,127.0,127.0,109.0,126.0,128.0,18.0,-107.0,-78.0,127.0,127.0,127.0,112.0,84.0,-50.0
127.0,125.0,127.0,127.0,127.0,109.0,126.0,128.0,18.0,-107.0,-78.0,127.0,127.0,127.0,112.0,84.0,-50.0
127.0,126.0,127.0,127.0,127.0,109.0,126.0,128.0,18.0,-107.0,-78.0,127.0,127.0,127.0,112.0,84.0,-50.0
127.0,126.0,127.0,127.0,127.0,109.0,126.0,128.0,18.0,-107.0,-78.0,127.0,127.0,127.0,112.0,84.0,-50.0
127.0,126.0,126.0,127.0,127.0,111.0,126.0,128.0,18.0,-107.0,-78.0,127.0,127.0,127.0,112.0,84.0,-50.0
127.0,126.0,126.0,127.0,127.0,111.0,126.0,128.0,18.0,-107.0,-78.0,127.0,127.0,127.0,112.0,84.0,-50.0
127.0,126.0,126.0,127.0,127.0,111.0,126.0,128.0,18.0,-107.0,-78.0,127.0,127.0,127.0,112.0,84.0,-50.0
127.0,126.0,127.0,127.0,127.0,108.0,126.0,128.0,18.0,-107.0,-78.0,127.0,127.0,127.0,112.0,84.0,-50.0
127.0,125.0,127.0,127.0,127.0,108.0,126.0,128.0,18.0,-107.0,-78.0,127.0,127.0,127.0,112.0,84.0,-50.0
127.0,127.0,124.0,127.0,127.0,113.0,126.0,128.0,19.0,-107.0,-79.0,127.0,127.0,127.0,112.0,84.0,-50.0
127.0,126.0,124.0,127.0,127.0,113.0,126.0,128.0,19.0,-107.0,-79.0,127.0,127.0,127.0,112.0,84.0,-50.0
127.0,126.0,124.0,127.0,127.0,113.0,126.0,128.0,19.0,-107.0,-79.0,127.0,127.0,127.0,112.0,84.0,-50.0
127.0,126.0,124.0,127.0,127.0,113.0,126.0,128.0,19.0,-107.0,-79.0,127.0,127.0,127.0,112.0,84.0,-50.0
127.0,126.0,124.0,127.0,127.0,113.0,126.0,128.0,19.0,-107.0,-79.0,127.0,127.0,127.0,112.0,84.0,-50.0
127.0,126.0,124.0,127.0,127.0,112.0,126.0,128.0,19.0,-107.0,-79.0,127.0,127.0,127.0,112.0,84.0,-50.0
127.0,126.0,124.0,127.0,127.0,112.0,127.0,128.0,19.0,-107.0,-79.0,127.0,127.0,127.0,112.0,84.0,-50.0
127.0,126.0,124.0,127.0,126.0,112.0,126.0,128.0,19.0,-107.0,-79.0,127.0,127.0,127.0,112.0,84.0,-50.0
127.0,127.0,123.0,127.0,127.0,113.0,126.0,128.0,19.0,-107.0,-79.0,127.0,127.0,127.0,112.0,84.0,-50.0
127.0,127.0,124.0,127.0,127.0,113.0,126.0,128.0,19.0,-107.0,-79.0,127.0,127.0,127.0,112.0,84.0,-50.0
127.0,126.0,126.0,127.0,127.0,113.0,126.0,128.0,20.0,-107.0,-79.0,127.0,127.0,127.0,112.0,84.0,-50.0
127.0,126.0,126.0,127.0,127.0,113.0,126.0,128.0,20.0,-107.0,-79.0,127.0,127.0,127.0,112.0,84.0,-50.0
127.0,126.0,126.0,127.0,127.0,113.0,126.0,128.0,20.0,-107.0,-79.0,127.0,127.0,127.0,112.0,84.0,-50.0
127.0,126.0,126.0,127.0,127.0,113.0,126.0,128.0,20.0,-107.0,-79.0,127.0,127.0,127.0,112.0,84.0,-50.0
127.0,126.0,126.0,127.0,127.0,113.0,126.0,128.0,20.0,-107.0,-79.0,127.0,127.0,127.0,112.0,84.0,-50.0
127.0,126.0,126.0,127.0,127.0,112.0,126.0,128.0,20.0,-107.0,-79.0,127.0,127.0,127.0,112.0,84.0,-50.0
127.0,126.0,125.0,127.0,127.0,111.0,126.0,128.0,20.0,-107.0,-79.0,127.0,127.0,127.0,112.0,84.0,-50.0
127.0,126.0,125.0,127.0,127.0,113.0,126.0,128.0,20.0,-107.0,-79.0,127.0,127.0,127.0,112.0,84.0,-50.0
127.0,126.0,125.0,127.0,127.0,113.0,126.0,128.0,20.0,-107.0,-79.0,127.0,127.0,127.0,112.0,84.0,-50.0
127.0,126.0,126.0,127.0,127.0,113.0,126.0,128.0,20.0,-107.0,-79.0,127.0,127.0,127.0,112.0,84.0,-50.0
127.0,126.0,128.0,127.0,127.0,114.0,126.0,128.0,21.0,-107.0,-79.0,127.0,127.0,127.0,112.0,84.0,-50.0
127.0,126.0,128.0,127.0,127.0,114.0,126.0,128.0,21.0,-107.0,-79.0,127.0,127.0,127.0,112.0,84.0,-50.0
127.0,126.0,128.0,127.0,127.0,114.0,126.0,128.0,21.0,-107.0,-79.0,127.0,127.0,127.0,112.0,84.0,-50.0
127.0,126.0,128.0,127.0,127.0,114.0,126.0,128.0,21.0,-107.0,-79.0,127.0,127.0,127.0,112.0,84.0,-50.0
127.0,126.0,128.0,127.0,127.0,113.0,126.0,128.0,21.0,-107.0,-79.0,127.0,127.0,127.0,112.0,84.0,-50.0
126.0,126.0,128.0,127.0,126.0,112.0,126.0,128.0,21.0,-107.0,-79.0,127.0,127.0,127.0,112.0,84.0,-50.0
126.0,126.0,127.0,127.0,127.0,114.0,126.0,128.0,21.0,-107.0,-79.0,127.0,127.0,127.0,112.0,84.0,-50.0
126.0,126.0,127.0,127.0,127.0,114.0,126.0,128.0,21.0,-107.0,-79.0,127.0,127.0,127.0,112.0,84.0,-50.0
127.0,126.0,128.0,127.0,127.0,114.0,126.0,128.0,21.0,-107.0,-79.0,127.0,127.0,127.0,112.0,84.0,-50.0
127.0,126.0,128.0,127.0,127.0,114.0,126.0,128.0,21.0,-107.0,-79.0,127.0,127.0,127.0,112.0,84.0,-50.0
127.0,126.0,131.0,127.0,127.0,113.0,126.0,128.0,22.0,-107.0,-79.0,127.0,127.0,127.0,112.0,84.0,-50.0
127.0,126.0,131.0,127.0,126.0,113.0,127.0,128.0,22.0,-107.0,-79.0,127.0,127.0,127.0,112.0,84.0,-50.0
127.0,126.0,131.0,127.0,126.0,112.0,127.0,128.0,22.0,-107.0,-79.0,127.0,127.0,127.0,112.0,84.0,-50.0
127.0,126.0,131.0,127.0,127.0,112.0,127.0,128.0,22.0,-107.0,-79.0,127.0,127.0,127.0,112.0,84.0,-50.0
126.0,126.0,130.0,127.0,126.0,111.0,126.0,128.0,22.0,-107.0,-79.0,127.0,127.0,127.0,112.0,84.0,-50.0
126.0,126.0,130.0,127.0,126.0,112.0,126.0,128.0,22.0,-107.0,-79.0,127.0,127.0,127.0,112.0,84.0,-50.0
127.0,126.0,130.0,127.0,126.0,113.0,126.0,128.0,22.0,-107.0,-79.0,127.0,127.0,127.0,112.0,84.0,-50.0
127.0,126.0,130.0,127.0,127.0,113.0,126.0,128.0,22.0,-107.0,-79.0,127.0,127.0,127.0,112.0,84.0,-50.0
127.0,126.0,131.0,127.0,127.0,113.0,126.0,128.0,22.0,-107.0,-79.0,127.0,127.0,127.0,112.0,84.0,-50.0
127.0,126.0,131.0,127.0,127.0,113.0,126.0,128.0,22.0,-107.0,-79.0,127.0,127.0,127.0,112.0,84.0,-50.0
127.0,126.0,131.0,127.0,126.0,112.0,126.0,128.0,22.0,-108.0,-79.0,127.0,127.0,127.0,112.0,84.0,-50.0
127.0,126.0,131.0,127.0,126.0,111.0,126.0,128.0,22.0,-108.0,-79.0,127.0,127.0,127.0,112.0,84.0,-50.0
127.0,126.0,131.0,127.0,126.0,111.0,126.0,128.0,22.0,-108.0,-79.0,127.0,127.0,127.0,112.0,84.0,-50.0
127.0,126.0,131.0,127.0,126.0,110.0,126.0,128.0,22.0,-108.0,-79.0,127.0,127.0,127.0,112.0,84.0,-50.0
126.0,126.0,131.0,127.0,126.0,111.0,126.0,128.0,22.0,-108.0,-79.0,127.0,127.0,127.0,112.0,84.0,-50.0
127.0,126.0,131.0,127.0,126.0,112.0,126.0,128.0,22.0,-108.0,-79.0,127.0,127.0,127.0,112.0,84.0,-50.0
127.0,126.0,131.0,127.0,126.0,112.0,126.0,128.0,22.0,-108.0,-79.0,127.0,127.0,127.0,112.0,84.0,-50.0
127.0,126.0,131.0,127.0,126.0,112.0,126.0,128.0,22.0,-108.0,-79.0,127.0,127.0,127.0,112.0,84.0,-50.0
127.0,126.0,131.0,127.0,126.0,112.0,126.0,128.0,22.0,-108.0,-79.0,127.0,127.0,127.0,112.0,84.0,-50.0
127.0,126.0,131.0,127.0,126.0,112.0,126.0,128.0,22.0,-108.0,-79.0,127.0,127.0,127.0,112.0,84.0,-50.0
127.0,126.0,132.0,127.0,126.0,113.0,126.0,128.0,21.0,-108.0,-79.0,127.0,127.0,127.0,112.0,84.0,-50.0
127.0,126.0,132.0,127.0,126.0,113.0,126.0,128.0,21.0,-108.0,-79.0,127.0,127.0,127.0,112.0,84.0,-50.0
127.0,126.0,131.0,127.0,126.0,111.0,126.0,128.0,21.0,-108.0,-79.0,127.0,127.0,127.0,112.0,84.0,-50.0
127.0,126.0,131.0,127.0,126.0,112.0,126.0,128.0,21.0,-108.0,-79.0,127.0,127.0,127.0,112.0,84.0,-50.0
127.0,126.0,131.0,127.0,126.0,113.0,126.0,128.0,21.0,-108.0,-79.0,127.0,127.0,127.0,112.0,84.0,-50.0
127.0,126.0,131.0,127.0,126.0,113.0,126.0,128.0,21.0,-108.0,-79.0,127.0,127.0,127.0,112.0,84.0,-50.0
127.0,126.0,131.0,127.0,126.0,113.0,126.0,128.0,21.0,-108.0,-79.0,127.0,127.0,127.0,112.0,84.0,-50.0
127.0,126.0,132.0,127.0,126.0,113.0,126.0,128.0,21.0,-108.0,-79.0,127.0,127.0,127.0,112.0,84.0,-50.0
127.0,126.0,132.0,127.0,126.0,113.0,126.0,128.0,21.0,-108.0,-79.0,127.0,127.0,127.0,112.0,84.0,-50.0
127.0,126.0,132.0,127.0,126.0,113.0,126.0,128.0,21.0,-108.0,-79.0,127.0,127.0,127.0,112.0,84.0,-50.0
126.0,126.0,129.0,127.0,127.0,112.0,126.0,128.0,20.0,-108.0,-79.0,127.0,127.0,127.0,113.0,84.0,-50.0
127.0,126.0,130.0,127.0,126.0,111.0,126.0,128.0,20.0,-108.0,-79.0,127.0,127.0,127.0,113.0,84.0,-50.0
126.0,126.0,130.0,127.0,126.0,111.0,126.0,128.0,20.0,-108.0,-79.0,127.0,127.0,127.0,113.0,84.0,-50.0
126.0,126.0,130.0,126.0,126.0,113.0,126.0,128.0,20.0,-108.0,-79.0,127.0,127.0,127.0,113.0,84.0,-50.0
126.0,126.0,130.0,127.0,126.0,113.0,126.0,128.0,20.0,-108.0,-79.0,127.0,127.0,127.0,113.0,84.0,-50.0
126.0,126.0,130.0,127.0,126.0,113.0,126.0,128.0,20.0,-108.0,-79.0,127.0,127.0,127.0,113.0,84.0,-50.0
126.0,126.0,130.0,127.0,126.0,113.0,126.0,128.0,20.0,-108.0,-79.0,127.0,127.0,127.0,113.0,84.0,-50.0
126.0,126.0,130.0,127.0,126.0,113.0,126.0,128.0,20.0,-108.0,-79.0,127.0,127.0,127.0,113.0,84.0,-50.0
126.0,126.0,130.0,127.0,126.0,113.0,126.0,128.0,20.0,-108.0,-79.0,127.0,127.0,127.0,113.0,84.0,-50.0
126.0,126.0,130.0,127.0,127.0,113.0,126.0,128.0,20.0,-108.0,-79.0,127.0,127.0,127.0,113.0,84.0,-50.0
126.0,125.0,127.0,127.0,127.0,109.0,126.0,128.0,19.0,-108.0,-78.0,127.0,127.0,127.0,113.0,84.0,-50.0
126.0,125.0,127.0,127.0,127.0,109.0,126.0,128.0,19.0,-108.0,-78.0,127.0,127.0,127.0,113.0,84.0,-50.0
126.0,125.0,127.0,127.0,127.0,109.0,126.0,128.0,19.0,-108.0,-78.0,127.0,127.0,127.0,113.0,84.0,-50.0
126.0,125.0,127.0,127.0,127.0,109.0,126.0,128.0,19.0,-108.0,-78.0,127.0,127.0,127.0,113.0,84.0,-50.0
126.0,125.0,127.0,127.0,127.0,109.0,126.0,128.0,19.0,-108.0,-78.0,127.0,127.0,127.0,113.0,84.0,-50.0
126.0,126.0,127.0,127.0,127.0,111.0,126.0,128.0,19.0,-108.0,-78.0,127.0,127.0,127.0,113.0,84.0,-50.0
126.0,126.0,126.0,127.0,127.0,111.0,126.0,128.0,19.0,-108.0,-78.0,127.0,127.0,127.0,113.0,84.0,-50.0
126.0,126.0,126.0,127.0,127.0,111.0,126.0,128.0,19.0,-108.0,-78.0,127.0,127.0,127.0,113.0,84.0,-50.0
126.0,126.0,126.0,127.0,127.0,111.0,126.0,128.0,19.0,-108.0,-78.0,127.0,127.0,127.0,113.0,84.0,-50.0
126.0,126.0,126.0,127.0,127.0,111.0,126.0,128.0,19.0,-108.0,-78.0,127.0,127.0,127.0,113.0,84.0,-50.0
126.0,126.0,126.0,127.0,127.0,112.0,126.0,128.0,18.0,-107.0,-78.0,127.0,127.0,127.0,113.0,84.0,-50.0
126.0,126.0,126.0,127.0,127.0,112.0,126.0,128.0,18.0,-107.0,-78.0,127.0,127.0,127.0,113.0,84.0,-50.0
126.0,126.0,126.0,127.0,126.0,112.0,126.0,128.0,18.0,-107.0,-78.0,127.0,127.0,127.0,113.0,84.0,-50.0
126.0,126.0,126.0,127.0,126.0,112.0,126.0,128.0,18.0,-107.0,-78.0,127.0,127.0,127.0,113.0,84.0,-50.0
126.0,126.0,126.0,127.0,126.0,112.0,126.0,128.0,18.0,-107.0,-78.0,127.0,127.0,127.0,113.0,84.0,-50.0
126.0,126.0,126.0,127.0,126.0,111.0,126.0,128.0,18.0,-107.0,-78.0,127.0,127.0,127.0,113.0,84.0,-50.0
126.0,126.0,126.0,127.0,126.0,111.0,126.0,128.0,18.0,-107.0,-78.0,127.0,127.0,127.0,113.0,84.0,-50.0
126.0,125.0,126.0,127.0,126.0,111.0,126.0,128.0,18.0,-107.0,-78.0,127.0,127.0,127.0,113.0,84.0,-50.0
126.0,125.0,126.0,127.0,126.0,111.0,126.0,128.0,18.0,-107.0,-78.0,127.0,127.0,127.0,113.0,84.0,-50.0
126.0,126.0,125.0,127.0,127.0,111.0,126.0,128.0,18.0,-107.0,-78.0,127.0,127.0,127.0,113.0,84.0,-50.0
127.0,126.0,125.0,127.0,127.0,111.0,126.0,128.0,17.0,-107.0,-78.0,127.0,127.0,127.0,113.0,84.0,-50.0
127.0,126.0,125.0,127.0,127.0,111.0,126.0,128.0,17.0,-107.0,-78.0,127.0,127.0,127.0,113.0,84.0,-50.0
127.0,126.0,126.0,127.0,127.0,111.0,126.0,128.0,17.0,-107.0,-78.0,127.0,127.0,127.0,113.0,84.0,-50.0
127.0,126.0,126.0,127.0,127.0,111.0,126.0,128.0,17.0,-107.0,-78.0,127.0,127.0,127.0,113.0,84.0,-50.0
127.0,126.0,126.0,127.0,127.0,111.0,126.0,128.0,17.0,-107.0,-78.0,127.0,127.0,127.0,113.0,84.0,-50.0
127.0,126.0,126.0,127.0,127.0,111.0,126.0,128.0,17.0,-107.0,-78.0,127.0,127.0,127.0,113.0,84.0,-50.0
127.0,126.0,126.0,127.0,127.0,111.0,126.0,128.0,17.0,-107.0,-78.0,127.0,127.0,127.0,113.0,84.0,-50.0
127.0,126.0,126.0,128.0,127.0,110.0,126.0,128.0,17.0,-107.0,-78.0,127.0,127.0,127.0,113.0,84.0,-50.0
127.0,127.0,125.0,127.0,127.0,111.0,126.0,128.0,17.0,-107.0,-78.0,127.0,127.0,127.0,113.0,84.0,-50.0
127.0,127.0,125.0,127.0,127.0,111.0,126.0,128.0,17.0,-107.0,-78.0,127.0,127.0,127.0,113.0,84.0,-50.0
126.0,126.0,125.0,127.0,126.0,112.0,126.0,128.0,17.0,-107.0,-78.0,127.0,127.0,127.0,113.0,84.0,-50.0
127.0,126.0,125.0,127.0,126.0,112.0,126.0,128.0,17.0,-107.0,-78.0,127.0,127.0,127.0,113.0,84.0,-50.0
127.0,126.0,125.0,127.0,126.0,112.0,126.0,128.0,17.0,-107.0,-78.0,127.0,127.0,127.0,113.0,84.0,-50.0
127.0,126.0,125.0,127.0,126.0,112.0,126.0,128.0,17.0,-107.0,-78.0,127.0,127.0,127.0,113.0,84.0,-50.0
127.0,126.0,125.0,127.0,126.0,112.0,127.0,128.0,17.0,-107.0,-78.0,127.0,127.0,127.0,113.0,84.0,-50.0
127.0,126.0,125.0,127.0,126.0,111.0,126.0,128.0,17.0,-107.0,-78.0,127.0,127.0,127.0,113.0,84.0,-50.0
127.0,126.0,125.0,127.0,126.0,111.0,127.0,128.0,17.0,-107.0,-78.0,127.0,127.0,127.0,113.0,84.0,-50.0
126.0,126.0,124.0,127.0,127.0,112.0,126.0,128.0,17.0,-107.0,-78.0,127.0,127.0,127.0,113.0,84.0,-50.0
126.0,126.0,124.0,127.0,126.0,112.0,126.0,128.0,17.0,-107.0,-78.0,127.0,127.0,127.0,113.0,84.0,-50.0
126.0,126.0,125.0,127.0,126.0,112.0,126.0,128.0,17.0,-107.0,-78.0,127.0,127.0,127.0,113.0,84.0,-50.0
126.0,127.0,124.0,128.0,127.0,113.0,127.0,128.0,18.0,-107.0,-78.0,127.0,127.0,127.0,113.0,84.0,-50.0
126.0,126.0,124.0,127.0,127.0,113.0,127.0,128.0,18.0,-107.0,-78.0,127.0,127.0,127.0,113.0,84.0,-50.0
127.0,126.0,125.0,127.0,127.0,112.0,127.0,128.0,18.0,-107.0,-78.0,127.0,127.0,127.0,113.0,84.0,-50.0
126.0,126.0,125.0,127.0,127.0,112.0,127.0,128.0,18.0,-107.0,-78.0,127.0,127.0,127.0,113.0,84.0,-50.0
126.0,126.0,125.0,127.0,127.0,112.0,127.0,128.0,18.0,-107.0,-78.0,127.0,127.0,127.0,113.0,84.0,-50.0
127.0,126.0,125.0,127.0,126.0,111.0,127.0,128.0,18.0,-107.0,-78.0,127.0,127.0,127.0,113.0,84.0,-50.0
126.0,127.0,124.0,128.0,127.0,112.0,127.0,128.0,18.0,-107.0,-78.0,127.0,127.0,127.0,113.0,84.0,-50.0
126.0,127.0,124.0,128.0,127.0,113.0,126.0,128.0,18.0,-107.0,-78.0,127.0,127.0,127.0,113.0,84.0,-50.0
126.0,127.0,124.0,128.0,127.0,113.0,127.0,128.0,18.0,-107.0,-78.0,127.0,127.0,127.0,113.0,84.0,-50.0
126.0,126.0,124.0,128.0,127.0,113.0,127.0,128.0,18.0,-107.0,-78.0,127.0,127.0,127.0,113.0,84.0,-50.0
127.0,126.0,126.0,127.0,127.0,114.0,126.0,128.0,19.0,-107.0,-79.0,127.0,127.0,127.0,113.0,84.0,-50.0
127.0,126.0,127.0,127.0,126.0,113.0,126.0,128.0,19.0,-107.0,-79.0,127.0,127.0,127.0,113.0,84.0,-50.0
127.0,126.0,127.0,127.0,127.0,113.0,126.0,128.0,19.0,-107.0,-79.0,127.0,127.0,127.0,113.0,84.0,-50.0
127.0,126.0,127.0,127.0,126.0,113.0,126.0,128.0,19.0,-107.0,-79.0,127.0,127.0,127.0,113.0,84.0,-50.0
127.0,126.0,127.0,128.0,126.0,113.0,126.0,128.0,19.0,-107.0,-79.0,127.0,127.0,127.0,113.0,84.0,-50.0
127.0,127.0,125.0,128.0,127.0,113.0,126.0,128.0,19.0,-107.0,-79.0,127.0,127.0,127.0,113.0,84.0,-50.0
127.0,126.0,126.0,128.0,127.0,113.0,126.0,128.0,19.0,-107.0,-79.0,127.0,127.0,127.0,113.0,84.0,-50.0
127.0,126.0,126.0,128.0,127.0,114.0,126.0,128.0,19.0,-107.0,-79.0,127.0,127.0,127.0,113.0,84.0,-50.0
127.0,126.0,126.0,128.0,127.0,113.0,126.0,128.0,19.0,-107.0,-79.0,127.0,127.0,127.0,113.0,84.0,-50.0
127.0,126.0,126.0,127.0,127.0,114.0,126.0,128.0,19.0,-107.0,-79.0,127.0,127.0,127.0,113.0,84.0,-50.0
127.0,126.0,128.0,127.0,126.0,115.0,126.0,128.0,20.0,-107.0,-79.0,127.0,127.0,127.0,113.0,84.0,-50.0
127.0,126.0,128.0,127.0,126.0,115.0,126.0,128.0,20.0,-107.0,-79.0,127.0,127.0,127.0,113.0,84.0,-50.0
127.0,126.0,129.0,127.0,126.0,115.0,126.0,128.0,20.0,-107.0,-79.0,127.0,127.0,127.0,113.0,84.0,-50.0
127.0,126.0,129.0,127.0,126.0,114.0,126.0,128.0,20.0,-107.0,-79.0,127.0,127.0,127.0,113.0,84.0,-50.0
127.0,126.0,127.0,127.0,126.0,115.0,126.0,128.0,20.0,-107.0,-79.0,127.0,127.0,127.0,113.0,84.0,-50.0
127.0,126.0,127.0,127.0,126.0,115.0,126.0,128.0,20.0,-107.0,-79.0,127.0,127.0,127.0,113.0,84.0,-50.0
127.0,126.0,128.0,127.0,126.0,115.0,126.0,128.0,20.0,-107.0,-79.0,127.0,127.0,127.0,113.0,84.0,-50.0
127.0,126.0,128.0,127.0,126.0,115.0,126.0,128.0,20.0,-107.0,-79.0,127.0,127.0,127.0,113.0,84.0,-50.0
127.0,126.0,128.0,127.0,126.0,115.0,126.0,128.0,20.0,-107.0,-79.0,127.0,127.0,127.0,113.0,84.0,-50.0
127.0,126.0,128.0,127.0,126.0,115.0,126.0,128.0,20.0,-107.0,-79.0,127.0,127.0,127.0,113.0,84.0,-50.0
126.0,126.0,128.0,127.0,127.0,113.0,126.0,128.0,21.0,-107.0,-79.0,127.0,127.0,127.0,113.0,84.0,-50.0
126.0,126.0,128.0,127.0,127.0,113.0,126.0,128.0,21.0,-107.0,-79.0,127.0,127.0,127.0,113.0,84.0,-50.0
126.0,126.0,129.0,127.0,127.0,113.0,126.0,128.0,21.0,-107.0,-79.0,127.0,127.0,127.0,113.0,84.0,-50.0
126.0,126.0,128.0,127.0,127.0,113.0,126.0,128.0,21.0,-107.0,-79.0,127.0,127.0,127.0,113.0,84.0,-50.0
126.0,126.0,128.0,127.0,127.0,114.0,126.0,128.0,21.0,-107.0,-79.0,127.0,127.0,127.0,113.0,84.0,-50.0
126.0,126.0,128.0,127.0,127.0,114.0,126.0,128.0,21.0,-107.0,-79.0,127.0,127.0,127.0,113.0,84.0,-50.0
127.0,126.0,128.0,127.0,127.0,114.0,126.0,128.0,21.0,-107.0,-79.0,127.0,127.0,127.0,113.0,84.0,-50.0
126.0,126.0,128.0,127.0,127.0,114.0,126.0,128.0,21.0,-107.0,-79.0,127.0,127.0,127.0,113.0,84.0,-50.0
127.0,126.0,128.0,127.0,127.0,114.0,126.0,128.0,21.0,-107.0,-79.0,127.0,127.0,127.0,113.0,84.0,-50.0
126.0,126.0,128.0,127.0,127.0,114.0,126.0,128.0,21.0,-107.0,-79.0,127.0,127.0,127.0,113.0,84.0,-50.0
127.0,126.0,128.0,127.0,126.0,112.0,126.0,128.0,21.0,-107.0,-79.0,127.0,127.0,127.0,113.0,84.0,-50.0
127.0,126.0,128.0,127.0,126.0,113.0,126.0,128.0,21.0,-107.0,-79.0,127.0,127.0,127.0,113.0,84.0,-50.0
127.0,126.0,128.0,127.0,126.0,109.0,127.0,128.0,21.0,-107.0,-79.0,127.0,127.0,127.0,113.0,84.0,-50.0
127.0,126.0,128.0,127.0,126.0,110.0,126.0,128.0,21.0,-107.0,-79.0,127.0,127.0,127.0,113.0,84.0,-50.0
127.0,126.0,128.0,127.0,126.0,110.0,126.0,128.0,21.0,-107.0,-79.0,127.0,127.0,127.0,113.0,84.0,-50.0
127.0,126.0,128.0,127.0,126.0,111.0,126.0,128.0,21.0,-107.0,-79.0,127.0,127.0,127.0,113.0,84.0,-50.0
127.0,126.0,128.0,127.0,126.0,112.0,126.0,128.0,21.0,-107.0,-79.0,127.0,127.0,127.0,113.0,84.0,-50.0
127.0,126.0,128.0,127.0,126.0,112.0,126.0,128.0,21.0,-107.0,-79.0,127.0,127.0,127.0,113.0,84.0,-50.0
127.0,126.0,128.0,127.0,126.0,112.0,126.0,128.0,21.0,-107.0,-79.0,127.0,127.0,127.0,113.0,84.0,-50.0
127.0,126.0,128.0,127.0,126.0,112.0,126.0,128.0,21.0,-107.0,-79.0,127.0,127.0,127.0,113.0,84.0,-50.0
127.0,125.0,129.0,127.0,126.0,113.0,126.0,128.0,20.0,-108.0,-79.0,127.0,127.0,127.0,113.0,84.0,-50.0
127.0,126.0,128.0,127.0,126.0,113.0,126.0,128.0,20.0,-108.0,-79.0,127.0,127.0,127.0,113.0,84.0,-50.0
127.0,126.0,128.0,127.0,126.0,113.0,126.0,128.0,20.0,-108.0,-79.0,127.0,127.0,127.0,113.0,84.0,-50.0
127.0,126.0,128.0,127.0,126.0,114.0,126.0,128.0,20.0,-108.0,-79.0,127.0,127.0,127.0,113.0,84.0,-50.0
127.0,126.0,128.0,127.0,126.0,113.0,126.0,128.0,20.0,-108.0,-79.0,127.0,127.0,127.0,113.0,84.0,-50.0
127.0,125.0,128.0,127.0,126.0,113.0,126.0,127.0,20.0,-108.0,-79.0,127.0,127.0,127.0,113.0,84.0,-50.0
127.0,125.0,129.0,127.0,126.0,114.0,126.0,128.0,20.0,-108.0,-79.0,127.0,127.0,127.0,113.0,84.0,-50.0
127.0,125.0,129.0,127.0,126.0,113.0,126.0,128.0,20.0,-108.0,-79.0,127.0,127.0,127.0,113.0,84.0,-50.0
127.0,125.0,129.0,127.0,126.0,113.0,126.0,128.0,20.0,-108.0,-79.0,127.0,127.0,127.0,113.0,84.0,-50.0
126.0,125.0,129.0,127.0,126.0,113.0,126.0,128.0,20.0,-108.0,-79.0,127.0,127.0,127.0,113.0,84.0,-50.0
126.0,126.0,127.0,127.0,126.0,114.0,126.0,128.0,19.0,-108.0,-79.0,127.0,127.0,127.0,113.0,84.0,-50.0
126.0,126.0,128.0,127.0,126.0,114.0,126.0,128.0,19.0,-108.0,-79.0,127.0,127.0,127.0,113.0,84.0,-50.0
126.0,126.0,128.0,127.0,126.0,115.0,126.0,128.0,19.0,-108.0,-79.0,127.0,127.0,127.0,113.0,84.0,-50.0
126.0,125.0,128.0,127.0,126.0,114.0,126.0,128.0,19.0,-108.0,-79.0,127.0,127.0,127.0,113.0,84.0,-50.0
126.0,125.0,128.0,127.0,126.0,114.0,126.0,128.0,19.0,-108.0,-79.0,127.0,127.0,127.0,113.0,84.0,-50.0
126.0,125.0,128.0,127.0,126.0,114.0,126.0,128.0,19.0,-108.0,-79.0,127.0,127.0,127.0,113.0,84.0,-50.0
126.0,125.0,128.0,127.0,126.0,114.0,126.0,128.0,19.0,-108.0,-79.0,127.0,127.0,127.0,113.0,84.0,-50.0
126.0,125.0,128.0,127.0,126.0,114.0,126.0,128.0,19.0,-108.0,-79.0,127.0,127.0,127.0,113.0,84.0,-50.0
126.0,125.0,128.0,127.0,126.0,114.0,126.0,128.0,19.0,-108.0,-79.0,127.0,127.0,127.0,113.0,84.0,-50.0
126.0,125.0,128.0,127.0,126.0,114.0,126.0,128.0,19.0,-108.0,-79.0,127.0,127.0,127.0,113.0,84.0,-50.0
126.0,126.0,126.0,127.0,127.0,115.0,126.0,128.0,18.0,-107.0,-79.0,127.0,127.0,127.0,113.0,84.0,-50.0
126.0,126.0,126.0,127.0,127.0,115.0,126.0,128.0,18.0,-107.0,-79.0,127.0,127.0,127.0,113.0,84.0,-50.0
126.0,126.0,126.0,127.0,126.0,115.0,126.0,128.0,18.0,-107.0,-79.0,127.0,127.0,127.0,113.0,84.0,-50.0
126.0,126.0,126.0,127.0,126.0,115.0,126.0,128.0,18.0,-107.0,-79.0,127.0,127.0,127.0,113.0,84.0,-50.0
126.0,126.0,126.0,127.0,126.0,115.0,126.0,128.0,18.0,-107.0,-79.0,127.0,127.0,127.0,113.0,84.0,-50.0
126.0,126.0,127.0,127.0,126.0,114.0,126.0,128.0,18.0,-107.0,-79.0,127.0,127.0,127.0,113.0,84.0,-50.0
126.0,126.0,127.0,127.0,126.0,114.0,126.0,128.0,18.0,-107.0,-79.0,127.0,127.0,127.0,113.0,84.0,-50.0
126.0,126.0,127.0,127.0,127.0,114.0,126.0,128.0,18.0,-107.0,-79.0,127.0,127.0,127.0,113.0,84.0,-50.0
126.0,126.0,127.0,127.0,127.0,114.0,126.0,128.0,18.0,-107.0,-79.0,127.0,127.0,127.0,113.0,84.0,-50.0
126.0,126.0,126.0,127.0,127.0,115.0,126.0,128.0,18.0,-107.0,-79.0,127.0,127.0,127.0,113.0,84.0,-50.0
127.0,126.0,126.0,127.0,126.0,117.0,126.0,128.0,17.0,-107.0,-78.0,127.0,127.0,127.0,113.0,84.0,-50.0
127.0,126.0,126.0,127.0,126.0,116.0,126.0,128.0,17.0,-107.0,-78.0,127.0,127.0,127.0,113.0,84.0,-50.0
127.0,126.0,126.0,127.0,126.0,116.0,126.0,128.0,17.0,-107.0,-78.0,127.0,127.0,127.0,113.0,84.0,-50.0
127.0,126.0,126.0,127.0,126.0,116.0,126.0,128.0,17.0,-107.0,-78.0,127.0,127.0,127.0,113.0,84.0,-50.0
127.0,126.0,126.0,127.0,126.0,116.0,126.0,128.0,17.0,-107.0,-78.0,127.0,127.0,127.0,113.0,84.0,-50.0
127.0,125.0,126.0,127.0,126.0,116.0,126.0,128.0,17.0,-107.0,-78.0,127.0,127.0,127.0,113.0,84.0,-50.0
127.0,126.0,126.0,127.0,126.0,116.0,126.0,128.0,17.0,-107.0,-78.0,127.0,127.0,127.0,113.0,84.0,-50.0
126.0,126.0,125.0,127.0,127.0,116.0,126.0,128.0,17.0,-107.0,-78.0,127.0,127.0,127.0,113.0,84.0,-50.0
126.0,126.0,125.0,127.0,126.0,116.0,126.0,128.0,17.0,-107.0,-78.0,127.0,127.0,127.0,113.0,84.0,-50.0
127.0,126.0,125.0,127.0,126.0,116.0,126.0,128.0,17.0,-107.0,-78.0,127.0,127.0,127.0,113.0,84.0,-50.0
127.0,126.0,126.0,128.0,127.0,117.0,126.0,128.0,16.0,-107.0,-78.0,127.0,127.0,127.0,113.0,84.0,-50.0
127.0,126.0,126.0,128.0,127.0,117.0,127.0,128.0,16.0,-107.0,-78.0,127.0,127.0,127.0,113.0,84.0,-50.0
127.0,126.0,126.0,127.0,127.0,117.0,126.0,128.0,16.0,-107.0,-78.0,127.0,127.0,127.0,113.0,84.0,-50.0
127.0,126.0,126.0,127.0,127.0,116.0,126.0,128.0,16.0,-107.0,-78.0,127.0,127.0,127.0,113.0,84.0,-50.0
127.0,126.0,126.0,127.0,127.0,116.0,127.0,128.0,16.0,-107.0,-78.0,127.0,127.0,127.0,113.0,84.0,-50.0
127.0,126.0,126.0,127.0,127.0,116.0,126.0,128.0,16.0,-107.0,-78.0,127.0,127.0,127.0,113.0,84.0,-50.0
127.0,127.0,125.0,128.0,127.0,117.0,127.0,128.0,16.0,-107.0,-78.0,127.0,127.0,127.0,113.0,84.0,-50.0
127.0,127.0,125.0,128.0,127.0,117.0,127.0,128.0,16.0,-107.0,-78.0,127.0,127.0,127.0,113.0,84.0,-50.0
127.0,127.0,126.0,128.0,127.0,117.0,126.0,128.0,16.0,-107.0,-78.0,127.0,127.0,127.0,113.0,84.0,-50.0
127.0,126.0,126.0,128.0,127.0,117.0,126.0,128.0,16.0,-107.0,-78.0,127.0,127.0,127.0,113.0,84.0,-50.0
127.0,126.0,126.0,127.0,127.0,116.0,126.0,128.0,17.0,-107.0,-79.0,127.0,127.0,127.0,113.0,84.0,-50.0
127.0,126.0,126.0,127.0,127.0,116.0,126.0,128.0,17.0,-107.0,-79.0,127.0,127.0,127.0,113.0,84.0,-50.0
127.0,126.0,126.0,127.0,127.0,116.0,126.0,128.0,17.0,-107.0,-79.0,127.0,127.0,127.0,113.0,84.0,-50.0
127.0,126.0,126.0,127.0,127.0,115.0,126.0,128.0,17.0,-107.0,-79.0,127.0,127.0,127.0,113.0,84.0,-50.0
127.0,126.0,126.0,127.0,127.0,115.0,126.0,128.0,17.0,-107.0,-79.0,127.0,127.0,127.0,113.0,84.0,-50.0
127.0,127.0,124.0,127.0,127.0,116.0,126.0,128.0,17.0,-107.0,-79.0,127.0,127.0,127.0,113.0,84.0,-50.0
127.0,127.0,125.0,127.0,127.0,116.0,126.0,128.0,17.0,-107.0,-79.0,127.0,127.0,127.0,113.0,84.0,-50.0
127.0,127.0,125.0,127.0,127.0,116.0,126.0,128.0,17.0,-107.0,-79.0,127.0,127.0,127.0,113.0,84.0,-50.0
127.0,126.0,125.0,127.0,127.0,116.0,126.0,128.0,17.0,-107.0,-79.0,127.0,127.0,127.0,113.0,84.0,-50.0
127.0,126.0,125.0,127.0,127.0,116.0,126.0,128.0,17.0,-107.0,-79.0,127.0,127.0,127.0,113.0,84.0,-50.0
127.0,126.0,126.0,127.0,127.0,117.0,126.0,128.0,18.0,-107.0,-79.0,127.0,127.0,127.0,113.0,84.0,-50.0
127.0,126.0,126.0,127.0,127.0,117.0,126.0,128.0,18.0,-107.0,-79.0,127.0,127.0,127.0,113.0,84.0,-50.0
127.0,126.0,126.0,127.0,127.0,117.0,126.0,128.0,18.0,-107.0,-79.0,127.0,127.0,127.0,113.0,84.0,-50.0
127.0,126.0,126.0,127.0,127.0,117.0,126.0,128.0,18.0,-107.0,-79.0,127.0,127.0,127.0,113.0,84.0,-50.0
127.0,127.0,125.0,128.0,127.0,116.0,126.0,128.0,18.0,-107.0,-79.0,127.0,127.0,127.0,113.0,84.0,-50.0
127.0,127.0,125.0,127.0,127.0,116.0,126.0,128.0,18.0,-107.0,-79.0,127.0,127.0,127.0,113.0,84.0,-50.0
127.0,126.0,125.0,127.0,127.0,116.0,126.0,128.0,18.0,-107.0,-79.0,127.0,127.0,127.0,113.0,84.0,-50.0
127.0,126.0,125.0,127.0,127.0,117.0,126.0,128.0,18.0,-107.0,-79.0,127.0,127.0,127.0,113.0,84.0,-50.0
127.0,126.0,125.0,127.0,127.0,117.0,126.0,128.0,18.0,-107.0,-79.0,127.0,127.0,127.0,113.0,84.0,-50.0
127.0,126.0,126.0,127.0,127.0,117.0,126.0,128.0,18.0,-107.0,-79.0,127.0,127.0,127.0,113.0,84.0,-50.0
127.0,126.0,126.0,127.0,126.0,123.0,126.0,128.0,19.0,-107.0,-79.0,127.0,127.0,127.0,113.0,84.0,-50.0
127.0,126.0,126.0,127.0,126.0,124.0,126.0,128.0,19.0,-107.0,-79.0,127.0,127.0,127.0,113.0,84.0,-50.0
127.0,127.0,126.0,127.0,126.0,125.0,126.0,128.0,19.0,-107.0,-79.0,127.0,127.0,127.0,113.0,84.0,-50.0
127.0,126.0,125.0,128.0,127.0,119.0,126.0,128.0,19.0,-107.0,-79.0,127.0,127.0,127.0,113.0,84.0,-50.0
127.0,126.0,126.0,128.0,126.0,120.0,126.0,128.0,19.0,-107.0,-79.0,127.0,127.0,127.0,113.0,84.0,-50.0
127.0,127.0,125.0,127.0,127.0,122.0,126.0,128.0,19.0,-107.0,-79.0,127.0,127.0,127.0,113.0,84.0,-50.0
127.0,127.0,125.0,127.0,127.0,122.0,126.0,128.0,19.0,-107.0,-79.0,127.0,127.0,127.0,113.0,84.0,-50.0
127.0,126.0,126.0,127.0,127.0,123.0,126.0,128.0,19.0,-107.0,-79.0,127.0,127.0,127.0,113.0,84.0,-50.0
127.0,126.0,126.0,127.0,126.0,123.0,126.0,128.0,19.0,-107.0,-79.0,127.0,127.0,127.0,113.0,84.0,-50.0
127.0,126.0,126.0,127.0,126.0,123.0,126.0,128.0,19.0,-107.0,-79.0,127.0,127.0,127.0,113.0,84.0,-50.0
127.0,126.0,128.0,127.0,126.0,124.0,126.0,128.0,21.0,-107.0,-80.0,127.0,127.0,127.0,113.0,84.0,-50.0
127.0,126.0,127.0,127.0,126.0,125.0,126.0,128.0,21.0,-107.0,-80.0,127.0,127.0,127.0,113.0,84.0,-50.0
127.0,126.0,127.0,127.0,126.0,121.0,126.0,128.0,21.0,-107.0,-80.0,127.0,127.0,127.0,113.0,84.0,-50.0
127.0,126.0,128.0,127.0,126.0,121.0,126.0,128.0,21.0,-107.0,-80.0,127.0,127.0,127.0,113.0,84.0,-50.0
127.0,126.0,127.0,127.0,126.0,122.0,126.0,128.0,21.0,-107.0,-80.0,127.0,127.0,127.0,113.0,84.0,-50.0
127.0,126.0,127.0,127.0,126.0,123.0,126.0,128.0,21.0,-107.0,-80.0,127.0,127.0,127.0,113.0,84.0,-50.0
127.0,126.0,127.0,127.0,126.0,123.0,126.0,128.0,21.0,-107.0,-80.0,127.0,127.0,127.0,113.0,84.0,-50.0
127.0,126.0,128.0,127.0,126.0,123.0,126.0,128.0,21.0,-107.0,-80.0,127.0,127.0,127.0,113.0,84.0,-50.0
127.0,126.0,128.0,127.0,126.0,123.0,126.0,128.0,21.0,-107.0,-80.0,127.0,127.0,127.0,113.0,84.0,-50.0
127.0,126.0,128.0,127.0,126.0,123.0,126.0,128.0,21.0,-107.0,-80.0,127.0,127.0,127.0,113.0,84.0,-50.0
126.0,126.0,128.0,127.0,126.0,120.0,126.0,128.0,22.0,-107.0,-80.0,127.0,127.0,127.0,113.0,84.0,-50.0
127.0,126.0,128.0,127.0,126.0,116.0,127.0,128.0,22.0,-107.0,-80.0,127.0,127.0,127.0,113.0,84.0,-50.0
127.0,126.0,128.0,127.0,126.0,117.0,127.0,128.0,22.0,-107.0,-80.0,127.0,127.0,127.0,113.0,84.0,-50.0
127.0,126.0,128.0,127.0,126.0,117.0,126.0,128.0,22.0,-107.0,-80.0,127.0,127.0,127.0,113.0,84.0,-50.0
127.0,127.0,128.0,127.0,126.0,119.0,126.0,128.0,22.0,-107.0,-80.0,127.0,127.0,127.0,113.0,84.0,-50.0
127.0,126.0,128.0,127.0,126.0,119.0,126.0,128.0,22.0,-107.0,-80.0,127.0,127.0,127.0,113.0,84.0,-50.0
127.0,126.0,128.0,127.0,126.0,119.0,126.0,128.0,22.0,-107.0,-80.0,127.0,127.0,127.0,113.0,84.0,-50.0
127.0,126.0,128.0,127.0,126.0,118.0,126.0,128.0,22.0,-107.0,-80.0,127.0,127.0,127.0,113.0,84.0,-50.0
127.0,126.0,128.0,127.0,126.0,119.0,126.0,128.0,22.0,-107.0,-80.0,127.0,127.0,127.0,113.0,84.0,-50.0
127.0,126.0,128.0,127.0,126.0,119.0,126.0,128.0,22.0,-107.0,-80.0,127.0,127.0,127.0,113.0,84.0,-50.0
127.0,126.0,128.0,128.0,127.0,114.0,127.0,128.0,22.0,-108.0,-80.0,127.0,127.0,127.0,113.0,84.0,-50.0
127.0,126.0,128.0,128.0,127.0,115.0,127.0,128.0,22.0,-108.0,-80.0,127.0,127.0,127.0,113.0,84.0,-50.0
127.0,126.0,128.0,127.0,127.0,115.0,126.0,128.0,22.0,-108.0,-80.0,127.0,127.0,127.0,113.0,84.0,-50.0
126.0,126.0,128.0,127.0,127.0,117.0,126.0,128.0,22.0,-108.0,-80.0,127.0,127.0,127.0,113.0,84.0,-50.0
127.0,126.0,128.0,127.0,127.0,117.0,126.0,128.0,22.0,-108.0,-80.0,127.0,127.0,127.0,113.0,84.0,-50.0
127.0,126.0,128.0,127.0,127.0,117.0,126.0,128.0,22.0,-108.0,-80.0,127.0,127.0,127.0,113.0,84.0,-50.0
127.0,126.0,128.0,127.0,127.0,117.0,126.0,128.0,22.0,-108.0,-80.0,127.0,127.0,127.0,113.0,84.0,-50.0
127.0,126.0,128.0,127.0,127.0,117.0,126.0,128.0,22.0,-108.0,-80.0,127.0,127.0,127.0,113.0,84.0,-50.0
127.0,126.0,128.0,127.0,127.0,117.0,126.0,128.0,22.0,-108.0,-80.0,127.0,127.0,127.0,113.0,84.0,-50.0
127.0,126.0,128.0,127.0,127.0,119.0,126.0,128.0,22.0,-108.0,-80.0,127.0,127.0,127.0,113.0,84.0,-50.0
127.0,126.0,128.0,127.0,127.0,115.0,126.0,128.0,21.0,-108.0,-79.0,127.0,127.0,127.0,113.0,84.0,-50.0
127.0,126.0,128.0,127.0,126.0,115.0,126.0,128.0,21.0,-108.0,-79.0,127.0,127.0,127.0,113.0,84.0,-50.0
127.0,126.0,128.0,127.0,127.0,117.0,126.0,128.0,21.0,-108.0,-79.0,127.0,127.0,127.0,113.0,84.0,-50.0
127.0,126.0,128.0,127.0,126.0,118.0,126.0,128.0,21.0,-108.0,-79.0,127.0,127.0,127.0,113.0,84.0,-50.0
127.0,126.0,128.0,127.0,126.0,117.0,126.0,128.0,21.0,-108.0,-79.0,127.0,127.0,127.0,113.0,84.0,-50.0
127.0,125.0,129.0,127.0,126.0,117.0,126.0,128.0,21.0,-108.0,-79.0,127.0,127.0,127.0,113.0,84.0,-50.0
127.0,125.0,129.0,127.0,126.0,117.0,126.0,128.0,21.0,-108.0,-79.0,127.0,127.0,127.0,113.0,84.0,-50.0
127.0,125.0,129.0,127.0,126.0,117.0,126.0,128.0,21.0,-108.0,-79.0,127.0,127.0,127.0,113.0,84.0,-50.0
127.0,126.0,129.0,127.0,126.0,119.0,126.0,128.0,21.0,-108.0,-79.0,127.0,127.0,127.0,113.0,84.0,-50.0
127.0,126.0,128.0,127.0,127.0,114.0,126.0,128.0,21.0,-108.0,-79.0,127.0,127.0,127.0,113.0,84.0,-50.0
127.0,125.0,128.0,127.0,127.0,116.0,126.0,128.0,19.0,-108.0,-79.0,127.0,127.0,127.0,113.0,84.0,-50.0
127.0,126.0,128.0,127.0,127.0,117.0,126.0,128.0,19.0,-108.0,-79.0,127.0,127.0,127.0,113.0,84.0,-50.0
127.0,126.0,128.0,127.0,127.0,118.0,126.0,128.0,19.0,-108.0,-79.0,127.0,127.0,127.0,113.0,84.0,-50.0
127.0,126.0,128.0,127.0,127.0,118.0,126.0,128.0,19.0,-108.0,-79.0,127.0,127.0,127.0,113.0,84.0,-50.0
127.0,125.0,128.0,127.0,127.0,118.0,126.0,128.0,19.0,-108.0,-79.0,127.0,127.0,127.0,113.0,84.0,-50.0
127.0,125.0,128.0,127.0,127.0,118.0,126.0,128.0,19.0,-108.0,-79.0,127.0,127.0,127.0,113.0,84.0,-50.0
127.0,125.0,128.0,127.0,127.0,118.0,126.0,128.0,19.0,-108.0,-79.0,127.0,127.0,127.0,113.0,84.0,-50.0
127.0,126.0,128.0,126.0,127.0,119.0,126.0,128.0,19.0,-108.0,-79.0,127.0,127.0,127.0,113.0,84.0,-50.0
127.0,126.0,128.0,127.0,126.0,115.0,126.0,128.0,19.0,-108.0,-79.0,127.0,127.0,127.0,113.0,84.0,-50.0
127.0,125.0,128.0,127.0,127.0,115.0,126.0,128.0,19.0,-108.0,-79.0,127.0,127.0,127.0,113.0,84.0,-50.0
127.0,126.0,127.0,127.0,126.0,116.0,126.0,128.0,18.0,-107.0,-79.0,127.0,127.0,127.0,113.0,84.0,-50.0
127.0,126.0,127.0,127.0,126.0,116.0,126.0,128.0,18.0,-107.0,-79.0,127.0,127.0,127.0,113.0,84.0,-50.0
127.0,125.0,127.0,127.0,126.0,116.0,126.0,128.0,18.0,-107.0,-79.0,127.0,127.0,127.0,113.0,84.0,-50.0
127.0,125.0,128.0,127.0,126.0,116.0,126.0,128.0,18.0,-107.0,-79.0,127.0,127.0,127.0,113.0,84.0,-50.0
127.0,125.0,128.0,127.0,126.0,116.0,126.0,128.0,18.0,-107.0,-79.0,127.0,127.0,127.0,113.0,84.0,-50.0
127.0,125.0,128.0,127.0,126.0,116.0,126.0,128.0,18.0,-107.0,-79.0,127.0,127.0,127.0,113.0,84.0,-50.0
127.0,125.0,128.0,127.0,126.0,116.0,126.0,128.0,18.0,-107.0,-79.0,127.0,127.0,127.0,113.0,84.0,-50.0
127.0,126.0,127.0,127.0,127.0,116.0,127.0,128.0,18.0,-107.0,-79.0,127.0,127.0,127.0,113.0,84.0,-50.0
127.0,126.0,127.0,127.0,127.0,116.0,126.0,128.0,18.0,-107.0,-79.0,127.0,127.0,127.0,113.0,84.0,-50.0
127.0,126.0,127.0,127.0,127.0,116.0,127.0,128.0,18.0,-107.0,-79.0,127.0,127.0,127.0,113.0,84.0,-50.0
126.0,126.0,127.0,126.0,126.0,116.0,126.0,128.0,17.0,-107.0,-79.0,127.0,127.0,127.0,113.0,84.0,-50.0
127.0,126.0,127.0,126.0,126.0,117.0,126.0,128.0,17.0,-107.0,-79.0,127.0,127.0,127.0,113.0,84.0,-50.0
126.0,126.0,127.0,126.0,126.0,116.0,126.0,128.0,17.0,-107.0,-79.0,127.0,127.0,127.0,113.0,84.0,-50.0
126.0,126.0,127.0,126.0,126.0,116.0,126.0,128.0,17.0,-107.0,-79.0,127.0,127.0,127.0,113.0,84.0,-50.0
126.0,126.0,127.0,126.0,126.0,116.0,126.0,128.0,17.0,-107.0,-79.0,127.0,127.0,127.0,113.0,84.0,-50.0
126.0,126.0,128.0,126.0,126.0,116.0,126.0,128.0,17.0,-107.0,-79.0,127.0,127.0,127.0,113.0,84.0,-50.0
126.0,127.0,126.0,127.0,126.0,116.0,126.0,128.0,17.0,-107.0,-79.0,127.0,127.0,127.0,113.0,84.0,-50.0
126.0,126.0,126.0,127.0,126.0,116.0,126.0,128.0,17.0,-107.0,-79.0,127.0,127.0,127.0,113.0,84.0,-50.0
127.0,126.0,127.0,127.0,126.0,117.0,126.0,128.0,17.0,-107.0,-79.0,127.0,127.0,127.0,113.0,84.0,-50.0
126.0,126.0,127.0,127.0,126.0,117.0,126.0,128.0,17.0,-107.0,-79.0,127.0,127.0,127.0,113.0,84.0,-50.0
127.0,126.0,127.0,127.0,127.0,115.0,126.0,128.0,17.0,-107.0,-79.0,127.0,127.0,127.0,113.0,84.0,-50.0
127.0,126.0,127.0,127.0,127.0,116.0,126.0,128.0,17.0,-107.0,-79.0,127.0,127.0,127.0,113.0,84.0,-50.0
127.0,126.0,126.0,127.0,127.0,117.0,126.0,128.0,17.0,-107.0,-79.0,127.0,127.0,127.0,113.0,84.0,-50.0
127.0,126.0,126.0,127.0,127.0,117.0,126.0,128.0,17.0,-107.0,-79.0,127.0,127.0,127.0,113.0,84.0,-50.0
127.0,126.0,127.0,127.0,127.0,117.0,126.0,128.0,17.0,-107.0,-79.0,127.0,127.0,127.0,113.0,84.0,-50.0
126.0,126.0,126.0,128.0,127.0,114.0,126.0,128.0,17.0,-107.0,-79.0,127.0,127.0,127.0,113.0,84.0,-50.0
127.0,126.0,126.0,127.0,127.0,115.0,126.0,128.0,17.0,-107.0,-79.0,127.0,127.0,127.0,113.0,84.0,-50.0
127.0,126.0,126.0,127.0,127.0,115.0,126.0,128.0,17.0,-107.0,-79.0,127.0,127.0,127.0,113.0,84.0,-50.0
127.0,126.0,126.0,127.0,127.0,115.0,126.0,128.0,17.0,-107.0,-79.0,127.0,127.0,127.0,113.0,84.0,-50.0
127.0,126.0,127.0,127.0,127.0,115.0,126.0,128.0,17.0,-107.0,-79.0,127.0,127.0,127.0,113.0,84.0,-50.0
127.0,126.0,126.0,127.0,126.0,115.0,126.0,128.0,17.0,-107.0,-79.0,127.0,127.0,127.0,113.0,84.0,-50.0
127.0,126.0,126.0,127.0,126.0,116.0,126.0,128.0,17.0,-107.0,-79.0,127.0,127.0,127.0,113.0,84.0,-50.0
127.0,126.0,126.0,127.0,126.0,117.0,126.0,128.0,17.0,-107.0,-79.0,127.0,127.0,127.0,113.0,84.0,-50.0
127.0,126.0,126.0,127.0,126.0,116.0,126.0,128.0,17.0,-107.0,-79.0,127.0,127.0,127.0,113.0,84.0,-50.0
126.0,126.0,125.0,127.0,126.0,113.0,126.0,128.0,17.0,-107.0,-79.0,127.0,127.0,127.0,113.0,84.0,-50.0
126.0,127.0,125.0,127.0,126.0,114.0,126.0,128.0,17.0,-107.0,-79.0,127.0,127.0,127.0,113.0,84.0,-50.0
127.0,126.0,126.0,127.0,126.0,115.0,126.0,128.0,17.0,-107.0,-79.0,127.0,127.0,127.0,113.0,84.0,-50.0
127.0,126.0,126.0,127.0,126.0,115.0,126.0,128.0,17.0,-107.0,-79.0,127.0,127.0,127.0,113.0,84.0,-50.0
127.0,126.0,126.0,127.0,126.0,114.0,126.0,128.0,17.0,-107.0,-79.0,127.0,127.0,127.0,113.0,84.0,-50.0
127.0,126.0,126.0,127.0,126.0,115.0,126.0,128.0,17.0,-107.0,-79.0,127.0,127.0,127.0,113.0,84.0,-50.0
127.0,126.0,126.0,127.0,127.0,115.0,126.0,128.0,18.0,-107.0,-79.0,127.0,127.0,127.0,113.0,84.0,-50.0
127.0,126.0,126.0,127.0,127.0,115.0,126.0,128.0,18.0,-107.0,-79.0,127.0,127.0,127.0,113.0,84.0,-50.0
127.0,126.0,126.0,127.0,127.0,115.0,127.0,128.0,18.0,-107.0,-79.0,127.0,127.0,127.0,113.0,84.0,-50.0
127.0,126.0,125.0,128.0,127.0,113.0,127.0,128.0,18.0,-107.0,-79.0,127.0,127.0,127.0,113.0,84.0,-50.0
127.0,126.0,125.0,128.0,127.0,113.0,127.0,128.0,18.0,-107.0,-79.0,127.0,127.0,127.0,113.0,84.0,-50.0
127.0,126.0,125.0,127.0,127.0,113.0,127.0,128.0,18.0,-107.0,-79.0,127.0,127.0,127.0,113.0,84.0,-50.0
127.0,126.0,125.0,127.0,127.0,114.0,126.0,128.0,18.0,-107.0,-79.0,127.0,127.0,127.0,113.0,84.0,-50.0
127.0,126.0,125.0,127.0,127.0,115.0,126.0,128.0,18.0,-107.0,-79.0,127.0,127.0,127.0,113.0,84.0,-50.0
127.0,126.0,125.0,127.0,127.0,115.0,126.0,128.0,18.0,-107.0,-79.0,127.0,127.0,127.0,113.0,84.0,-50.0
127.0,126.0,125.0,127.0,127.0,115.0,126.0,128.0,18.0,-107.0,-79.0,127.0,127.0,127.0,113.0,84.0,-50.0
127.0,127.0,126.0,128.0,127.0,118.0,126.0,128.0,19.0,-107.0,-79.0,127.0,127.0,127.0,113.0,84.0,-50.0
127.0,127.0,126.0,128.0,127.0,117.0,126.0,128.0,19.0,-107.0,-79.0,127.0,127.0,127.0,113.0,84.0,-50.0
127.0,127.0,125.0,128.0,127.0,114.0,127.0,128.0,19.0,-107.0,-79.0,127.0,127.0,127.0,113.0,84.0,-50.0
127.0,127.0,125.0,128.0,127.0,114.0,127.0,128.0,19.0,-107.0,-79.0,127.0,127.0,127.0,113.0,84.0,-50.0
127.0,127.0,126.0,128.0,127.0,114.0,127.0,128.0,19.0,-107.0,-79.0,127.0,127.0,127.0,113.0,84.0,-50.0
127.0,127.0,126.0,128.0,127.0,114.0,126.0,128.0,19.0,-107.0,-79.0,127.0,127.0,127.0,113.0,84.0,-50.0
127.0,127.0,126.0,128.0,127.0,116.0,126.0,128.0,19.0,-107.0,-79.0,127.0,127.0,127.0,113.0,84.0,-50.0
127.0,127.0,126.0,128.0,127.0,116.0,126.0,128.0,19.0,-107.0,-79.0,127.0,127.0,127.0,113.0,84.0,-50.0
127.0,126.0,126.0,128.0,127.0,116.0,126.0,128.0,19.0,-107.0,-79.0,127.0,127.0,127.0,113.0,84.0,-50.0
127.0,127.0,126.0,128.0,127.0,117.0,126.0,128.0,19.0,-107.0,-79.0,127.0,127.0,127.0,113.0,84.0,-50.0
127.0,126.0,128.0,127.0,127.0,117.0,126.0,128.0,21.0,-107.0,-79.0,127.0,127.0,127.0,113.0,84.0,-50.0
127.0,126.0,128.0,127.0,127.0,113.0,126.0,128.0,21.0,-107.0,-79.0,127.0,127.0,127.0,113.0,84.0,-50.0
127.0,126.0,127.0,127.0,127.0,115.0,126.0,128.0,21.0,-107.0,-79.0,127.0,127.0,127.0,113.0,84.0,-50.0
127.0,126.0,128.0,127.0,127.0,115.0,126.0,128.0,21.0,-107.0,-79.0,127.0,127.0,127.0,113.0,84.0,-50.0
127.0,126.0,128.0,127.0,127.0,115.0,126.0,128.0,21.0,-107.0,-79.0,127.0,127.0,127.0,113.0,84.0,-50.0
127.0,126.0,128.0,127.0,126.0,115.0,126.0,128.0,21.0,-107.0,-79.0,127.0,127.0,127.0,113.0,84.0,-50.0
127.0,126.0,128.0,127.0,126.0,115.0,126.0,128.0,21.0,-107.0,-79.0,127.0,127.0,127.0,113.0,84.0,-50.0
127.0,126.0,128.0,127.0,126.0,115.0,126.0,128.0,21.0,-107.0,-79.0,127.0,127.0,127.0,113.0,84.0,-50.0
127.0,126.0,128.0,127.0,126.0,117.0,126.0,128.0,21.0,-107.0,-79.0,127.0,127.0,127.0,113.0,84.0,-50.0
127.0,126.0,128.0,127.0,127.0,117.0,126.0,128.0,21.0,-107.0,-79.0,127.0,127.0,127.0,113.0,84.0,-50.0
126.0,126.0,127.0,127.0,126.0,113.0,126.0,128.0,22.0,-107.0,-79.0,127.0,127.0,127.0,113.0,84.0,-50.0
126.0,127.0,127.0,127.0,127.0,114.0,126.0,128.0,22.0,-107.0,-79.0,127.0,127.0,127.0,113.0,84.0,-50.0
126.0,127.0,127.0,127.0,127.0,115.0,126.0,128.0,22.0,-107.0,-79.0,127.0,127.0,127.0,113.0,84.0,-50.0
126.0,126.0,127.0,127.0,127.0,115.0,126.0,128.0,22.0,-107.0,-79.0,127.0,127.0,127.0,113.0,84.0,-50.0
126.0,126.0,128.0,127.0,126.0,115.0,126.0,128.0,22.0,-107.0,-79.0,127.0,127.0,127.0,113.0,84.0,-50.0
126.0,126.0,128.0,127.0,127.0,115.0,126.0,128.0,22.0,-107.0,-79.0,127.0,127.0,127.0,113.0,84.0,-50.0
126.0,126.0,128.0,127.0,126.0,115.0,126.0,128.0,22.0,-107.0,-79.0,127.0,127.0,127.0,113.0,84.0,-50.0
126.0,126.0,128.0,127.0,127.0,116.0,126.0,128.0,22.0,-107.0,-79.0,127.0,127.0,127.0,113.0,84.0,-50.0
126.0,126.0,127.0,127.0,127.0,117.0,126.0,128.0,22.0,-107.0,-79.0,127.0,127.0,127.0,113.0,84.0,-50.0
126.0,126.0,128.0,127.0,127.0,117.0,126.0,128.0,22.0,-107.0,-79.0,127.0,127.0,127.0,113.0,84.0,-50.0
126.0,126.0,127.0,127.0,127.0,113.0,126.0,128.0,22.0,-107.0,-79.0,127.0,127.0,127.0,113.0,84.0,-50.0
126.0,126.0,127.0,127.0,127.0,114.0,126.0,128.0,22.0,-107.0,-79.0,127.0,127.0,127.0,113.0,84.0,-50.0
126.0,126.0,127.0,127.0,127.0,114.0,126.0,128.0,22.0,-107.0,-79.0,127.0,127.0,127.0,113.0,84.0,-50.0
126.0,126.0,127.0,127.0,127.0,114.0,126.0,128.0,22.0,-107.0,-79.0,127.0,127.0,127.0,113.0,84.0,-50.0
126.0,126.0,127.0,127.0,126.0,114.0,126.0,128.0,22.0,-107.0,-79.0,127.0,127.0,127.0,113.0,84.0,-50.0
126.0,126.0,128.0,127.0,126.0,114.0,126.0,128.0,22.0,-107.0,-79.0,127.0,127.0,127.0,113.0,84.0,-50.0
126.0,126.0,127.0,127.0,126.0,114.0,126.0,128.0,22.0,-107.0,-79.0,127.0,127.0,127.0,113.0,84.0,-50.0
126.0,126.0,127.0,127.0,127.0,115.0,126.0,128.0,22.0,-107.0,-79.0,127.0,127.0,127.0,113.0,84.0,-50.0
126.0,126.0,127.0,127.0,127.0,116.0,126.0,128.0,22.0,-107.0,-79.0,127.0,127.0,127.0,113.0,84.0,-50.0
126.0,126.0,127.0,127.0,127.0,111.0,126.0,128.0,22.0,-107.0,-79.0,127.0,127.0,127.0,113.0,84.0,-50.0
127.0,126.0,128.0,127.0,127.0,114.0,126.0,128.0,21.0,-108.0,-79.0,127.0,127.0,127.0,113.0,84.0,-50.0
127.0,126.0,128.0,127.0,127.0,114.0,126.0,128.0,21.0,-108.0,-79.0,127.0,127.0,127.0,113.0,84.0,-50.0
127.0,126.0,128.0,127.0,127.0,114.0,126.0,128.0,21.0,-108.0,-79.0,127.0,127.0,127.0,113.0,84.0,-50.0
127.0,126.0,128.0,127.0,126.0,114.0,126.0,128.0,21.0,-108.0,-79.0,127.0,127.0,127.0,113.0,84.0,-50.0
127.0,126.0,128.0,127.0,126.0,115.0,126.0,128.0,21.0,-108.0,-79.0,127.0,127.0,127.0,113.0,84.0,-50.0
127.0,126.0,128.0,127.0,126.0,115.0,126.0,128.0,21.0,-108.0,-79.0,127.0,127.0,127.0,113.0,84.0,-50.0
127.0,126.0,128.0,127.0,126.0,116.0,126.0,128.0,21.0,-108.0,-79.0,127.0,127.0,127.0,113.0,84.0,-50.0
127.0,126.0,128.0,127.0,126.0,117.0,126.0,128.0,21.0,-108.0,-79.0,127.0,127.0,127.0,113.0,84.0,-50.0
127.0,126.0,128.0,128.0,127.0,112.0,126.0,128.0,21.0,-108.0,-79.0,127.0,127.0,127.0,113.0,84.0,-50.0
126.0,126.0,128.0,127.0,127.0,113.0,126.0,128.0,21.0,-108.0,-79.0,127.0,127.0,127.0,113.0,84.0,-50.0
127.0,125.0,128.0,127.0,127.0,115.0,126.0,128.0,20.0,-108.0,-79.0,127.0,127.0,127.0,113.0,84.0,-50.0
127.0,125.0,128.0,127.0,127.0,115.0,126.0,128.0,20.0,-108.0,-79.0,127.0,127.0,127.0,113.0,84.0,-50.0
127.0,125.0,129.0,127.0,126.0,115.0,126.0,128.0,20.0,-108.0,-79.0,127.0,127.0,127.0,113.0,84.0,-50.0
127.0,125.0,129.0,127.0,126.0,115.0,126.0,128.0,20.0,-108.0,-79.0,127.0,127.0,127.0,113.0,84.0,-50.0
127.0,125.0,129.0,127.0,126.0,115.0,126.0,128.0,20.0,-108.0,-79.0,127.0,127.0,127.0,113.0,84.0,-50.0
127.0,125.0,129.0,127.0,126.0,115.0,126.0,128.0,20.0,-108.0,-79.0,127.0,127.0,127.0,113.0,84.0,-50.0
127.0,125.0,129.0,127.0,126.0,115.0,126.0,128.0,20.0,-108.0,-79.0,127.0,127.0,127.0,113.0,84.0,-50.0
127.0,126.0,128.0,127.0,127.0,114.0,126.0,128.0,20.0,-108.0,-79.0,127.0,127.0,127.0,113.0,84.0,-50.0
127.0,126.0,128.0,127.0,127.0,114.0,126.0,128.0,20.0,-108.0,-79.0,127.0,127.0,127.0,113.0,84.0,-50.0
127.0,125.0,128.0,127.0,127.0,114.0,126.0,128.0,20.0,-108.0,-79.0,127.0,127.0,127.0,113.0,84.0,-50.0
126.0,126.0,128.0,127.0,126.0,115.0,126.0,128.0,19.0,-107.0,-78.0,127.0,127.0,127.0,113.0,84.0,-50.0
126.0,126.0,128.0,127.0,126.0,116.0,126.0,128.0,19.0,-107.0,-78.0,127.0,127.0,127.0,113.0,84.0,-50.0
126.0,126.0,128.0,127.0,126.0,117.0,126.0,128.0,19.0,-107.0,-78.0,127.0,127.0,127.0,113.0,84.0,-50.0
126.0,126.0,128.0,127.0,126.0,117.0,126.0,128.0,19.0,-107.0,-78.0,127.0,127.0,127.0,113.0,84.0,-50.0
126.0,126.0,128.0,127.0,126.0,116.0,126.0,128.0,19.0,-107.0,-78.0,127.0,127.0,127.0,113.0,84.0,-50.0
126.0,126.0,128.0,127.0,126.0,116.0,126.0,128.0,19.0,-107.0,-78.0,127.0,127.0,127.0,113.0,84.0,-50.0
126.0,126.0,127.0,127.0,127.0,115.0,126.0,128.0,19.0,-107.0,-78.0,127.0,127.0,127.0,113.0,84.0,-50.0
126.0,126.0,128.0,127.0,127.0,114.0,126.0,128.0,19.0,-107.0,-78.0,127.0,127.0,127.0,113.0,84.0,-50.0
126.0,126.0,128.0,127.0,126.0,114.0,126.0,128.0,19.0,-107.0,-78.0,127.0,127.0,127.0,113.0,84.0,-50.0
126.0,126.0,128.0,127.0,127.0,115.0,126.0,128.0,19.0,-107.0,-78.0,127.0,127.0,127.0,113.0,84.0,-50.0
126.0,126.0,127.0,127.0,127.0,116.0,126.0,128.0,18.0,-107.0,-78.0,127.0,127.0,127.0,113.0,84.0,-50.0
126.0,126.0,127.0,127.0,127.0,116.0,126.0,128.0,18.0,-107.0,-78.0,127.0,127.0,127.0,113.0,84.0,-50.0
127.0,126.0,127.0,127.0,127.0,116.0,126.0,128.0,18.0,-107.0,-78.0,127.0,127.0,127.0,113.0,84.0,-50.0
127.0,126.0,127.0,127.0,127.0,116.0,126.0,128.0,18.0,-107.0,-78.0,127.0,127.0,127.0,113.0,84.0,-50.0
127.0,126.0,127.0,127.0,127.0,116.0,126.0,128.0,18.0,-107.0,-78.0,127.0,127.0,127.0,113.0,84.0,-50.0
126.0,126.0,126.0,128.0,127.0,114.0,126.0,128.0,18.0,-107.0,-78.0,127.0,127.0,127.0,113.0,84.0,-50.0
126.0,126.0,127.0,128.0,127.0,114.0,126.0,128.0,18.0,-107.0,-78.0,127.0,127.0,127.0,113.0,84.0,-50.0
126.0,126.0,127.0,128.0,127.0,114.0,126.0,128.0,18.0,-107.0,-78.0,127.0,127.0,127.0,113.0,84.0,-50.0
127.0,126.0,127.0,128.0,127.0,114.0,126.0,128.0,18.0,-107.0,-78.0,127.0,127.0,127.0,113.0,84.0,-50.0
127.0,126.0,127.0,127.0,127.0,114.0,126.0,128.0,18.0,-107.0,-78.0,127.0,127.0,127.0,113.0,84.0,-50.0
127.0,126.0,127.0,127.0,127.0,116.0,126.0,128.0,17.0,-107.0,-78.0,127.0,127.0,127.0,113.0,84.0,-50.0
127.0,126.0,127.0,127.0,126.0,116.0,126.0,128.0,17.0,-107.0,-78.0,127.0,127.0,127.0,113.0,84.0,-50.0
127.0,126.0,127.0,127.0,126.0,116.0,126.0,128.0,17.0,-107.0,-78.0,127.0,127.0,127.0,113.0,84.0,-50.0
127.0,126.0,127.0,127.0,126.0,116.0,126.0,128.0,17.0,-107.0,-78.0,127.0,127.0,127.0,113.0,84.0,-50.0
127.0,127.0,126.0,127.0,127.0,114.0,126.0,128.0,17.0,-107.0,-78.0,127.0,127.0,127.0,113.0,84.0,-50.0
127.0,126.0,127.0,127.0,127.0,114.0,126.0,128.0,17.0,-107.0,-78.0,127.0,127.0,127.0,113.0,84.0,-50.0
127.0,126.0,127.0,127.0,127.0,114.0,126.0,128.0,17.0,-107.0,-78.0,127.0,127.0,127.0,113.0,84.0,-50.0
127.0,126.0,127.0,127.0,126.0,114.0,126.0,128.0,17.0,-107.0,-78.0,127.0,127.0,127.0,113.0,84.0,-50.0
127.0,126.0,127.0,127.0,126.0,114.0,126.0,128.0,17.0,-107.0,-78.0,127.0,127.0,127.0,113.0,84.0,-50.0
127.0,126.0,127.0,127.0,126.0,116.0,126.0,128.0,17.0,-107.0,-78.0,127.0,127.0,127.0,113.0,84.0,-50.0
127.0,126.0,126.0,127.0,127.0,117.0,126.0,128.0,17.0,-107.0,-78.0,127.0,127.0,127.0,113.0,84.0,-50.0
127.0,126.0,126.0,127.0,126.0,117.0,126.0,128.0,17.0,-107.0,-78.0,127.0,127.0,127.0,113.0,84.0,-50.0
127.0,126.0,126.0,127.0,126.0,117.0,126.0,128.0,17.0,-107.0,-78.0,127.0,127.0,127.0,113.0,84.0,-50.0
127.0,127.0,126.0,127.0,127.0,115.0,126.0,128.0,17.0,-107.0,-78.0,127.0,127.0,127.0,113.0,84.0,-50.0
127.0,126.0,126.0,127.0,127.0,115.0,126.0,128.0,17.0,-107.0,-78.0,127.0,127.0,127.0,113.0,84.0,-50.0
127.0,126.0,126.0,127.0,127.0,114.0,126.0,128.0,17.0,-107.0,-78.0,127.0,127.0,127.0,113.0,84.0,-50.0
127.0,126.0,126.0,127.0,127.0,115.0,126.0,128.0,17.0,-107.0,-78.0,127.0,127.0,127.0,113.0,84.0,-50.0
127.0,126.0,126.0,127.0,126.0,115.0,126.0,128.0,17.0,-107.0,-78.0,127.0,127.0,127.0,113.0,84.0,-50.0
127.0,126.0,126.0,127.0,127.0,116.0,126.0,128.0,17.0,-107.0,-78.0,127.0,127.0,127.0,113.0,84.0,-50.0
127.0,126.0,126.0,127.0,127.0,117.0,126.0,128.0,17.0,-107.0,-78.0,127.0,127.0,127.0,113.0,84.0,-50.0
127.0,128.0,126.0,127.0,126.0,116.0,126.0,128.0,18.0,-107.0,-79.0,127.0,127.0,127.0,113.0,84.0,-50.0
