emg1,emg2,emg3,emg4,emg5,emg6,emg7,emg8,acc_x,acc_y,acc_z,gyro_x,gyro_y,gyro_z,angle_pitch,angle_roll,angle_yaw
127.0,127.0,126.0,132.0,127.0,139.0,127.0,128.0,21.0,-107.0,-79.0,127.0,127.0,127.0,111.0,84.0,-50.0
127.0,126.0,127.0,131.0,127.0,139.0,127.0,128.0,21.0,-107.0,-79.0,127.0,127.0,127.0,111.0,84.0,-50.0
127.0,126.0,127.0,131.0,127.0,139.0,127.0,128.0,21.0,-107.0,-79.0,127.0,127.0,127.0,111.0,84.0,-50.0
127.0,126.0,126.0,132.0,127.0,139.0,127.0,128.0,21.0,-107.0,-79.0,127.0,127.0,127.0,111.0,84.0,-50.0
127.0,126.0,123.0,132.0,127.0,140.0,126.0,128.0,20.0,-107.0,-79.0,127.0,127.0,127.0,111.0,84.0,-50.0
127.0,126.0,123.0,132.0,127.0,140.0,127.0,128.0,20.0,-107.0,-79.0,127.0,127.0,127.0,111.0,84.0,-50.0
127.0,126.0,123.0,132.0,127.0,140.0,127.0,128.0,20.0,-107.0,-79.0,127.0,127.0,127.0,111.0,84.0,-50.0
127.0,126.0,123.0,132.0,127.0,139.0,127.0,128.0,20.0,-107.0,-79.0,127.0,127.0,127.0,111.0,84.0,-50.0
127.0,126.0,123.0,132.0,127.0,140.0,127.0,128.0,20.0,-107.0,-79.0,127.0,127.0,127.0,111.0,84.0,-50.0
127.0,126.0,123.0,133.0,127.0,139.0,127.0,128.0,20.0,-107.0,-79.0,127.0,127.0,127.0,111.0,84.0,-50.0
127.0,126.0,125.0,132.0,127.0,139.0,126.0,128.0,20.0,-107.0,-79.0,127.0,127.0,127.0,111.0,84.0,-50.0
127.0,126.0,124.0,132.0,127.0,139.0,126.0,128.0,20.0,-107.0,-79.0,127.0,127.0,127.0,111.0,84.0,-50.0
127.0,126.0,124.0,132.0,127.0,139.0,127.0,128.0,20.0,-107.0,-79.0,127.0,127.0,127.0,111.0,84.0,-50.0
127.0,126.0,124.0,132.0,127.0,140.0,126.0,128.0,20.0,-107.0,-79.0,127.0,127.0,127.0,111.0,84.0,-50.0
126.0,126.0,120.0,132.0,127.0,139.0,127.0,128.0,19.0,-107.0,-79.0,127.0,127.0,127.0,111.0,84.0,-50.0
126.0,126.0,120.0,132.0,127.0,138.0,127.0,128.0,19.0,-107.0,-79.0,127.0,127.0,127.0,111.0,84.0,-50.0
126.0,126.0,120.0,132.0,127.0,138.0,127.0,128.0,19.0,-107.0,-79.0,127.0,127.0,127.0,111.0,84.0,-50.0
126.0,126.0,120.0,132.0,127.0,138.0,127.0,128.0,19.0,-107.0,-79.0,127.0,127.0,127.0,111.0,84.0,-50.0
126.0,126.0,120.0,131.0,127.0,137.0,127.0,128.0,19.0,-107.0,-79.0,127.0,127.0,127.0,111.0,84.0,-50.0
127.0,125.0,121.0,132.0,127.0,139.0,127.0,128.0,19.0,-107.0,-79.0,127.0,127.0,127.0,111.0,84.0,-50.0
126.0,126.0,121.0,132.0,127.0,138.0,127.0,128.0,19.0,-107.0,-79.0,127.0,127.0,127.0,111.0,84.0,-50.0
127.0,126.0,121.0,132.0,127.0,138.0,127.0,128.0,19.0,-107.0,-79.0,127.0,127.0,127.0,111.0,84.0,-50.0
126.0,126.0,120.0,132.0,127.0,138.0,127.0,128.0,19.0,-107.0,-79.0,127.0,127.0,127.0,111.0,84.0,-50.0
126.0,126.0,120.0,132.0,127.0,139.0,127.0,128.0,19.0,-107.0,-79.0,127.0,127.0,127.0,111.0,84.0,-50.0
126.0,126.0,125.0,132.0,126.0,137.0,127.0,128.0,18.0,-107.0,-78.0,127.0,127.0,127.0,111.0,84.0,-50.0
126.0,126.0,125.0,132.0,126.0,136.0,127.0,128.0,18.0,-107.0,-78.0,127.0,127.0,127.0,111.0,84.0,-50.0
126.0,126.0,125.0,132.0,126.0,136.0,127.0,128.0,18.0,-107.0,-78.0,127.0,127.0,127.0,111.0,84.0,-50.0
126.0,126.0,125.0,132.0,126.0,136.0,127.0,128.0,18.0,-107.0,-78.0,127.0,127.0,127.0,111.0,84.0,-50.0
127.0,127.0,126.0,131.0,126.0,137.0,127.0,128.0,18.0,-107.0,-78.0,127.0,127.0,127.0,111.0,84.0,-50.0
127.0,127.0,126.0,131.0,126.0,137.0,127.0,128.0,18.0,-107.0,-78.0,127.0,127.0,127.0,111.0,84.0,-50.0
127.0,127.0,126.0,131.0,126.0,136.0,127.0,128.0,18.0,-107.0,-78.0,127.0,127.0,127.0,111.0,84.0,-50.0
126.0,127.0,126.0,131.0,126.0,136.0,127.0,128.0,18.0,-107.0,-78.0,127.0,127.0,127.0,111.0,84.0,-50.0
126.0,127.0,126.0,131.0,126.0,137.0,127.0,128.0,18.0,-107.0,-78.0,127.0,127.0,127.0,111.0,84.0,-50.0
126.0,126.0,125.0,131.0,126.0,137.0,127.0,128.0,18.0,-107.0,-78.0,127.0,127.0,127.0,111.0,84.0,-50.0
126.0,127.0,126.0,135.0,127.0,136.0,127.0,128.0,17.0,-107.0,-78.0,127.0,127.0,127.0,111.0,84.0,-50.0
126.0,128.0,126.0,135.0,127.0,136.0,127.0,128.0,17.0,-107.0,-78.0,127.0,127.0,127.0,111.0,84.0,-50.0
126.0,127.0,126.0,136.0,127.0,135.0,127.0,128.0,17.0,-107.0,-78.0,127.0,127.0,127.0,111.0,84.0,-50.0
127.0,126.0,127.0,132.0,127.0,135.0,127.0,128.0,17.0,-107.0,-78.0,127.0,127.0,127.0,111.0,84.0,-50.0
126.0,126.0,127.0,133.0,127.0,135.0,127.0,128.0,17.0,-107.0,-78.0,127.0,127.0,127.0,111.0,84.0,-50.0
126.0,126.0,127.0,133.0,127.0,134.0,127.0,128.0,17.0,-107.0,-78.0,127.0,127.0,127.0,111.0,84.0,-50.0
126.0,127.0,126.0,133.0,127.0,134.0,127.0,128.0,17.0,-107.0,-78.0,127.0,127.0,127.0,111.0,84.0,-50.0
126.0,127.0,126.0,133.0,127.0,135.0,127.0,128.0,17.0,-107.0,-78.0,127.0,127.0,127.0,111.0,84.0,-50.0
126.0,127.0,126.0,134.0,127.0,135.0,127.0,128.0,17.0,-107.0,-78.0,127.0,127.0,127.0,111.0,84.0,-50.0
126.0,127.0,126.0,134.0,127.0,135.0,127.0,128.0,17.0,-107.0,-78.0,127.0,127.0,127.0,111.0,84.0,-50.0
127.0,127.0,114.0,134.0,127.0,131.0,127.0,128.0,17.0,-106.0,-78.0,127.0,127.0,127.0,111.0,84.0,-50.0
127.0,127.0,113.0,134.0,127.0,131.0,127.0,128.0,17.0,-106.0,-78.0,127.0,127.0,127.0,111.0,84.0,-50.0
127.0,127.0,120.0,134.0,127.0,133.0,127.0,128.0,17.0,-106.0,-78.0,127.0,127.0,127.0,111.0,84.0,-50.0
127.0,127.0,119.0,134.0,127.0,133.0,127.0,128.0,17.0,-106.0,-78.0,127.0,127.0,127.0,111.0,84.0,-50.0
127.0,127.0,119.0,134.0,127.0,133.0,127.0,128.0,17.0,-106.0,-78.0,127.0,127.0,127.0,111.0,84.0,-50.0
127.0,127.0,118.0,134.0,127.0,133.0,127.0,128.0,17.0,-106.0,-78.0,127.0,127.0,127.0,111.0,84.0,-50.0
127.0,127.0,117.0,134.0,127.0,132.0,127.0,128.0,17.0,-106.0,-78.0,127.0,127.0,127.0,111.0,84.0,-50.0
127.0,127.0,116.0,134.0,127.0,132.0,127.0,128.0,17.0,-106.0,-78.0,127.0,127.0,127.0,111.0,84.0,-50.0
127.0,127.0,115.0,134.0,127.0,131.0,127.0,128.0,17.0,-106.0,-78.0,127.0,127.0,127.0,111.0,84.0,-50.0
127.0,127.0,115.0,134.0,127.0,131.0,127.0,128.0,17.0,-106.0,-78.0,127.0,127.0,127.0,111.0,84.0,-50.0
127.0,127.0,118.0,134.0,127.0,129.0,127.0,128.0,18.0,-106.0,-78.0,127.0,127.0,127.0,111.0,84.0,-50.0
127.0,126.0,116.0,133.0,127.0,130.0,127.0,128.0,18.0,-106.0,-78.0,127.0,127.0,127.0,111.0,84.0,-50.0
127.0,126.0,116.0,133.0,127.0,131.0,127.0,128.0,18.0,-106.0,-78.0,127.0,127.0,127.0,111.0,84.0,-50.0
127.0,127.0,116.0,134.0,127.0,131.0,127.0,128.0,18.0,-106.0,-78.0,127.0,127.0,127.0,111.0,84.0,-50.0
127.0,126.0,116.0,134.0,127.0,130.0,127.0,128.0,18.0,-106.0,-78.0,127.0,127.0,127.0,111.0,84.0,-50.0
127.0,127.0,117.0,134.0,127.0,130.0,127.0,128.0,18.0,-106.0,-78.0,127.0,127.0,127.0,111.0,84.0,-50.0
127.0,127.0,117.0,134.0,127.0,129.0,127.0,128.0,18.0,-106.0,-78.0,127.0,127.0,127.0,111.0,84.0,-50.0
127.0,127.0,118.0,134.0,127.0,129.0,127.0,128.0,18.0,-106.0,-78.0,127.0,127.0,127.0,111.0,84.0,-50.0
127.0,127.0,118.0,134.0,127.0,129.0,127.0,128.0,18.0,-106.0,-78.0,127.0,127.0,127.0,111.0,84.0,-50.0
127.0,127.0,118.0,134.0,127.0,130.0,127.0,128.0,18.0,-106.0,-78.0,127.0,127.0,127.0,111.0,84.0,-50.0
126.0,126.0,134.0,134.0,127.0,125.0,127.0,128.0,19.0,-106.0,-79.0,127.0,127.0,127.0,111.0,84.0,-50.0
126.0,127.0,133.0,135.0,128.0,126.0,127.0,128.0,19.0,-106.0,-79.0,127.0,127.0,127.0,111.0,84.0,-50.0
126.0,127.0,133.0,135.0,128.0,127.0,127.0,128.0,19.0,-106.0,-79.0,127.0,127.0,127.0,111.0,84.0,-50.0
126.0,127.0,133.0,135.0,128.0,126.0,127.0,128.0,19.0,-106.0,-79.0,127.0,127.0,127.0,111.0,84.0,-50.0
126.0,127.0,133.0,135.0,128.0,126.0,127.0,128.0,19.0,-106.0,-79.0,127.0,127.0,127.0,111.0,84.0,-50.0
126.0,127.0,133.0,135.0,128.0,125.0,127.0,128.0,19.0,-106.0,-79.0,127.0,127.0,127.0,111.0,84.0,-50.0
126.0,127.0,133.0,135.0,128.0,125.0,127.0,128.0,19.0,-106.0,-79.0,127.0,127.0,127.0,111.0,84.0,-50.0
126.0,127.0,132.0,135.0,127.0,126.0,127.0,128.0,19.0,-106.0,-79.0,127.0,127.0,127.0,111.0,84.0,-50.0
126.0,128.0,132.0,135.0,128.0,126.0,127.0,128.0,19.0,-106.0,-79.0,127.0,127.0,127.0,111.0,84.0,-50.0
126.0,128.0,132.0,135.0,127.0,126.0,127.0,128.0,19.0,-106.0,-79.0,127.0,127.0,127.0,111.0,84.0,-50.0
126.0,127.0,137.0,133.0,128.0,128.0,127.0,128.0,20.0,-106.0,-79.0,127.0,127.0,127.0,111.0,84.0,-50.0
126.0,127.0,137.0,133.0,128.0,128.0,127.0,128.0,20.0,-106.0,-79.0,127.0,127.0,127.0,111.0,84.0,-50.0
126.0,127.0,137.0,133.0,128.0,128.0,127.0,128.0,20.0,-106.0,-79.0,127.0,127.0,127.0,111.0,84.0,-50.0
126.0,127.0,137.0,134.0,128.0,127.0,127.0,128.0,20.0,-106.0,-79.0,127.0,127.0,127.0,111.0,84.0,-50.0
127.0,127.0,137.0,134.0,128.0,127.0,127.0,128.0,20.0,-106.0,-79.0,127.0,127.0,127.0,111.0,84.0,-50.0
126.0,127.0,137.0,134.0,128.0,127.0,127.0,128.0,20.0,-106.0,-79.0,127.0,127.0,127.0,111.0,84.0,-50.0
126.0,127.0,136.0,134.0,128.0,128.0,127.0,128.0,20.0,-106.0,-79.0,127.0,127.0,127.0,111.0,84.0,-50.0
126.0,127.0,136.0,134.0,128.0,128.0,127.0,128.0,20.0,-106.0,-79.0,127.0,127.0,127.0,111.0,84.0,-50.0
126.0,127.0,136.0,134.0,128.0,128.0,127.0,128.0,20.0,-106.0,-79.0,127.0,127.0,127.0,111.0,84.0,-50.0
127.0,126.0,138.0,133.0,127.0,126.0,127.0,128.0,20.0,-106.0,-79.0,127.0,127.0,127.0,111.0,84.0,-50.0
126.0,127.0,136.0,135.0,127.0,133.0,126.0,128.0,21.0,-106.0,-79.0,127.0,127.0,127.0,111.0,84.0,-50.0
126.0,127.0,136.0,135.0,128.0,132.0,126.0,128.0,21.0,-106.0,-79.0,127.0,127.0,127.0,111.0,84.0,-50.0
126.0,127.0,136.0,135.0,128.0,132.0,127.0,128.0,21.0,-106.0,-79.0,127.0,127.0,127.0,111.0,84.0,-50.0
126.0,127.0,136.0,135.0,128.0,132.0,127.0,128.0,21.0,-106.0,-79.0,127.0,127.0,127.0,111.0,84.0,-50.0
126.0,127.0,136.0,135.0,128.0,132.0,127.0,128.0,21.0,-106.0,-79.0,127.0,127.0,127.0,111.0,84.0,-50.0
126.0,127.0,135.0,135.0,128.0,132.0,126.0,128.0,21.0,-106.0,-79.0,127.0,127.0,127.0,111.0,84.0,-50.0
126.0,127.0,135.0,135.0,128.0,133.0,127.0,128.0,21.0,-106.0,-79.0,127.0,127.0,127.0,111.0,84.0,-50.0
126.0,126.0,137.0,134.0,127.0,131.0,126.0,128.0,21.0,-106.0,-79.0,127.0,127.0,127.0,111.0,84.0,-50.0
126.0,126.0,137.0,134.0,127.0,131.0,126.0,127.0,21.0,-106.0,-79.0,127.0,127.0,127.0,111.0,84.0,-50.0
126.0,126.0,136.0,135.0,127.0,132.0,126.0,128.0,21.0,-106.0,-79.0,127.0,127.0,127.0,111.0,84.0,-50.0
126.0,127.0,132.0,134.0,128.0,136.0,127.0,128.0,21.0,-106.0,-79.0,127.0,127.0,127.0,111.0,84.0,-50.0
126.0,127.0,132.0,134.0,127.0,136.0,127.0,128.0,21.0,-106.0,-79.0,127.0,127.0,127.0,111.0,84.0,-50.0
126.0,126.0,131.0,134.0,127.0,135.0,127.0,128.0,21.0,-106.0,-79.0,127.0,127.0,127.0,111.0,84.0,-50.0
126.0,126.0,131.0,134.0,127.0,135.0,127.0,128.0,21.0,-106.0,-79.0,127.0,127.0,127.0,111.0,84.0,-50.0
126.0,126.0,131.0,134.0,127.0,135.0,127.0,128.0,21.0,-106.0,-79.0,127.0,127.0,127.0,111.0,84.0,-50.0
126.0,126.0,130.0,134.0,127.0,136.0,127.0,128.0,21.0,-106.0,-79.0,127.0,127.0,127.0,111.0,84.0,-50.0
126.0,127.0,134.0,133.0,127.0,135.0,126.0,128.0,21.0,-106.0,-79.0,127.0,127.0,127.0,111.0,84.0,-50.0
126.0,127.0,134.0,133.0,127.0,135.0,127.0,128.0,21.0,-106.0,-79.0,127.0,127.0,127.0,111.0,84.0,-50.0
126.0,127.0,133.0,134.0,127.0,136.0,126.0,128.0,21.0,-106.0,-79.0,127.0,127.0,127.0,111.0,84.0,-50.0
126.0,128.0,132.0,134.0,128.0,136.0,126.0,128.0,21.0,-106.0,-79.0,127.0,127.0,127.0,111.0,84.0,-50.0
126.0,127.0,129.0,134.0,127.0,139.0,127.0,128.0,21.0,-106.0,-79.0,127.0,127.0,127.0,111.0,84.0,-50.0
126.0,127.0,129.0,133.0,127.0,138.0,127.0,128.0,21.0,-106.0,-79.0,127.0,127.0,127.0,111.0,84.0,-50.0
126.0,127.0,129.0,133.0,127.0,139.0,127.0,128.0,21.0,-106.0,-79.0,127.0,127.0,127.0,111.0,84.0,-50.0
126.0,127.0,129.0,133.0,127.0,139.0,127.0,128.0,21.0,-106.0,-79.0,127.0,127.0,127.0,111.0,84.0,-50.0
126.0,127.0,128.0,133.0,127.0,140.0,127.0,128.0,21.0,-106.0,-79.0,127.0,127.0,127.0,111.0,84.0,-50.0
126.0,126.0,131.0,134.0,127.0,138.0,126.0,128.0,21.0,-106.0,-79.0,127.0,127.0,127.0,111.0,84.0,-50.0
126.0,126.0,130.0,134.0,127.0,138.0,126.0,128.0,21.0,-106.0,-79.0,127.0,127.0,127.0,111.0,84.0,-50.0
126.0,126.0,130.0,133.0,127.0,139.0,126.0,128.0,21.0,-106.0,-79.0,127.0,127.0,127.0,111.0,84.0,-50.0
126.0,127.0,129.0,134.0,127.0,139.0,126.0,128.0,21.0,-106.0,-79.0,127.0,127.0,127.0,111.0,84.0,-50.0
126.0,127.0,129.0,134.0,127.0,139.0,127.0,128.0,21.0,-106.0,-79.0,127.0,127.0,127.0,111.0,84.0,-50.0
126.0,127.0,126.0,131.0,127.0,139.0,127.0,128.0,20.0,-106.0,-79.0,127.0,127.0,127.0,111.0,84.0,-50.0
126.0,127.0,126.0,132.0,127.0,138.0,127.0,128.0,20.0,-106.0,-79.0,127.0,127.0,127.0,111.0,84.0,-50.0
126.0,127.0,126.0,132.0,127.0,138.0,127.0,128.0,20.0,-106.0,-79.0,127.0,127.0,127.0,111.0,84.0,-50.0
126.0,127.0,126.0,133.0,127.0,139.0,127.0,128.0,20.0,-106.0,-79.0,127.0,127.0,127.0,111.0,84.0,-50.0
127.0,126.0,128.0,130.0,127.0,138.0,127.0,128.0,20.0,-106.0,-79.0,127.0,127.0,127.0,111.0,84.0,-50.0
127.0,126.0,128.0,130.0,127.0,138.0,127.0,128.0,20.0,-106.0,-79.0,127.0,127.0,127.0,111.0,84.0,-50.0
126.0,126.0,127.0,130.0,127.0,139.0,127.0,128.0,20.0,-106.0,-79.0,127.0,127.0,127.0,111.0,84.0,-50.0
126.0,126.0,127.0,130.0,127.0,140.0,127.0,128.0,20.0,-106.0,-79.0,127.0,127.0,127.0,111.0,84.0,-50.0
126.0,127.0,126.0,130.0,127.0,139.0,127.0,128.0,20.0,-106.0,-79.0,127.0,127.0,127.0,111.0,84.0,-50.0
126.0,127.0,126.0,131.0,127.0,139.0,127.0,128.0,20.0,-106.0,-79.0,127.0,127.0,127.0,111.0,84.0,-50.0
126.0,127.0,123.0,136.0,128.0,138.0,127.0,128.0,19.0,-106.0,-78.0,127.0,127.0,127.0,111.0,84.0,-50.0
126.0,127.0,122.0,136.0,128.0,137.0,127.0,128.0,19.0,-106.0,-78.0,127.0,127.0,127.0,111.0,84.0,-50.0
126.0,127.0,122.0,136.0,128.0,138.0,127.0,128.0,19.0,-106.0,-78.0,127.0,127.0,127.0,111.0,84.0,-50.0
127.0,126.0,125.0,134.0,127.0,137.0,127.0,128.0,19.0,-106.0,-78.0,127.0,127.0,127.0,111.0,84.0,-50.0
126.0,126.0,125.0,134.0,127.0,137.0,127.0,128.0,19.0,-106.0,-78.0,127.0,127.0,127.0,111.0,84.0,-50.0
126.0,126.0,125.0,135.0,128.0,137.0,127.0,128.0,19.0,-106.0,-78.0,127.0,127.0,127.0,111.0,84.0,-50.0
126.0,127.0,124.0,135.0,128.0,138.0,127.0,128.0,19.0,-106.0,-78.0,127.0,127.0,127.0,111.0,84.0,-50.0
126.0,127.0,124.0,136.0,128.0,139.0,127.0,128.0,19.0,-106.0,-78.0,127.0,127.0,127.0,111.0,84.0,-50.0
126.0,127.0,123.0,136.0,128.0,138.0,127.0,128.0,19.0,-106.0,-78.0,127.0,127.0,127.0,111.0,84.0,-50.0
126.0,127.0,123.0,136.0,128.0,138.0,127.0,128.0,19.0,-106.0,-78.0,127.0,127.0,127.0,111.0,84.0,-50.0
126.0,126.0,122.0,132.0,126.0,136.0,127.0,128.0,19.0,-106.0,-78.0,127.0,127.0,127.0,111.0,84.0,-50.0
126.0,126.0,122.0,132.0,126.0,136.0,127.0,128.0,19.0,-106.0,-78.0,127.0,127.0,127.0,111.0,84.0,-50.0
126.0,125.0,122.0,133.0,126.0,137.0,126.0,127.0,19.0,-106.0,-78.0,127.0,127.0,127.0,111.0,84.0,-50.0
126.0,125.0,122.0,133.0,126.0,137.0,126.0,127.0,19.0,-106.0,-78.0,127.0,127.0,127.0,111.0,84.0,-50.0
126.0,125.0,122.0,133.0,126.0,137.0,126.0,127.0,19.0,-106.0,-78.0,127.0,127.0,127.0,111.0,84.0,-50.0
126.0,125.0,122.0,133.0,126.0,137.0,126.0,127.0,19.0,-106.0,-78.0,127.0,127.0,127.0,111.0,84.0,-50.0
126.0,125.0,122.0,133.0,126.0,136.0,126.0,128.0,19.0,-106.0,-78.0,127.0,127.0,127.0,111.0,84.0,-50.0
126.0,126.0,122.0,133.0,126.0,136.0,126.0,128.0,19.0,-106.0,-78.0,127.0,127.0,127.0,111.0,84.0,-50.0
126.0,126.0,122.0,133.0,126.0,136.0,127.0,128.0,19.0,-106.0,-78.0,127.0,127.0,127.0,111.0,84.0,-50.0
126.0,126.0,122.0,133.0,126.0,136.0,127.0,128.0,19.0,-106.0,-78.0,127.0,127.0,127.0,111.0,84.0,-50.0
126.0,126.0,109.0,130.0,126.0,138.0,126.0,128.0,18.0,-106.0,-78.0,127.0,127.0,127.0,111.0,84.0,-50.0
127.0,126.0,115.0,124.0,126.0,139.0,126.0,128.0,18.0,-106.0,-78.0,127.0,127.0,127.0,111.0,84.0,-50.0
126.0,126.0,114.0,124.0,126.0,139.0,126.0,128.0,18.0,-106.0,-78.0,127.0,127.0,127.0,111.0,84.0,-50.0
126.0,126.0,113.0,124.0,126.0,139.0,126.0,128.0,18.0,-106.0,-78.0,127.0,127.0,127.0,111.0,84.0,-50.0
126.0,126.0,113.0,124.0,126.0,138.0,127.0,128.0,18.0,-106.0,-78.0,127.0,127.0,127.0,111.0,84.0,-50.0
126.0,126.0,112.0,125.0,126.0,138.0,126.0,128.0,18.0,-106.0,-78.0,127.0,127.0,127.0,111.0,84.0,-50.0
126.0,126.0,111.0,126.0,126.0,138.0,126.0,128.0,18.0,-106.0,-78.0,127.0,127.0,127.0,111.0,84.0,-50.0
126.0,126.0,110.0,127.0,126.0,139.0,126.0,128.0,18.0,-106.0,-78.0,127.0,127.0,127.0,111.0,84.0,-50.0
126.0,126.0,109.0,128.0,126.0,139.0,126.0,128.0,18.0,-106.0,-78.0,127.0,127.0,127.0,111.0,84.0,-50.0
126.0,126.0,109.0,129.0,126.0,138.0,126.0,128.0,18.0,-106.0,-78.0,127.0,127.0,127.0,111.0,84.0,-50.0
127.0,126.0,104.0,133.0,127.0,136.0,126.0,128.0,18.0,-105.0,-77.0,127.0,127.0,127.0,111.0,84.0,-50.0
127.0,126.0,104.0,133.0,127.0,136.0,127.0,128.0,18.0,-105.0,-77.0,127.0,127.0,127.0,111.0,84.0,-50.0
127.0,126.0,104.0,133.0,127.0,136.0,127.0,128.0,18.0,-105.0,-77.0,127.0,127.0,127.0,111.0,84.0,-50.0
127.0,126.0,103.0,134.0,127.0,136.0,127.0,128.0,18.0,-105.0,-77.0,127.0,127.0,127.0,111.0,84.0,-50.0
127.0,126.0,103.0,134.0,127.0,135.0,127.0,128.0,18.0,-105.0,-77.0,127.0,127.0,127.0,111.0,84.0,-50.0
127.0,126.0,102.0,134.0,127.0,135.0,127.0,128.0,18.0,-105.0,-77.0,127.0,127.0,127.0,111.0,84.0,-50.0
126.0,127.0,102.0,134.0,127.0,136.0,127.0,128.0,18.0,-105.0,-77.0,127.0,127.0,127.0,111.0,84.0,-50.0
126.0,127.0,101.0,133.0,127.0,136.0,127.0,128.0,18.0,-105.0,-77.0,127.0,127.0,127.0,111.0,84.0,-50.0
126.0,127.0,100.0,133.0,127.0,136.0,127.0,128.0,18.0,-105.0,-77.0,127.0,127.0,127.0,111.0,84.0,-50.0
126.0,127.0,100.0,132.0,127.0,135.0,127.0,128.0,18.0,-105.0,-77.0,127.0,127.0,127.0,111.0,84.0,-50.0
127.0,126.0,105.0,126.0,127.0,134.0,126.0,128.0,19.0,-105.0,-77.0,127.0,127.0,127.0,111.0,84.0,-50.0
127.0,126.0,104.0,127.0,127.0,134.0,127.0,128.0,19.0,-105.0,-77.0,127.0,127.0,127.0,111.0,84.0,-50.0
127.0,127.0,103.0,127.0,126.0,134.0,127.0,128.0,19.0,-105.0,-77.0,127.0,127.0,127.0,111.0,84.0,-50.0
127.0,127.0,102.0,127.0,127.0,133.0,127.0,128.0,19.0,-105.0,-77.0,127.0,127.0,127.0,111.0,84.0,-50.0
127.0,127.0,102.0,127.0,127.0,133.0,127.0,128.0,19.0,-105.0,-77.0,127.0,127.0,127.0,111.0,84.0,-50.0
126.0,127.0,101.0,128.0,127.0,134.0,127.0,128.0,19.0,-105.0,-77.0,127.0,127.0,127.0,111.0,84.0,-50.0
126.0,127.0,101.0,128.0,127.0,134.0,127.0,128.0,19.0,-105.0,-77.0,127.0,127.0,127.0,111.0,84.0,-50.0
127.0,127.0,101.0,129.0,127.0,134.0,127.0,128.0,19.0,-105.0,-77.0,127.0,127.0,127.0,111.0,84.0,-50.0
127.0,128.0,101.0,129.0,128.0,134.0,127.0,128.0,19.0,-105.0,-77.0,127.0,127.0,127.0,111.0,84.0,-50.0
127.0,126.0,106.0,126.0,126.0,134.0,126.0,128.0,19.0,-105.0,-77.0,127.0,127.0,127.0,111.0,84.0,-50.0
126.0,126.0,116.0,131.0,127.0,132.0,126.0,128.0,20.0,-106.0,-77.0,127.0,127.0,127.0,111.0,84.0,-50.0
126.0,126.0,117.0,132.0,127.0,131.0,126.0,128.0,20.0,-106.0,-77.0,127.0,127.0,127.0,111.0,84.0,-50.0
126.0,126.0,118.0,133.0,127.0,131.0,126.0,127.0,20.0,-106.0,-77.0,127.0,127.0,127.0,111.0,84.0,-50.0
126.0,126.0,119.0,134.0,127.0,130.0,127.0,127.0,20.0,-106.0,-77.0,127.0,127.0,127.0,111.0,84.0,-50.0
126.0,126.0,120.0,134.0,128.0,130.0,127.0,127.0,20.0,-106.0,-77.0,127.0,127.0,127.0,111.0,84.0,-50.0
126.0,126.0,121.0,134.0,128.0,129.0,127.0,127.0,20.0,-106.0,-77.0,127.0,127.0,127.0,111.0,84.0,-50.0
126.0,127.0,122.0,134.0,128.0,129.0,127.0,127.0,20.0,-106.0,-77.0,127.0,127.0,127.0,111.0,84.0,-50.0
126.0,127.0,123.0,134.0,128.0,128.0,127.0,127.0,20.0,-106.0,-77.0,127.0,127.0,127.0,111.0,84.0,-50.0
126.0,127.0,114.0,130.0,126.0,132.0,127.0,129.0,20.0,-106.0,-77.0,127.0,127.0,127.0,111.0,84.0,-50.0
126.0,126.0,115.0,131.0,126.0,132.0,126.0,128.0,20.0,-106.0,-77.0,127.0,127.0,127.0,111.0,84.0,-50.0
127.0,126.0,138.0,130.0,127.0,131.0,127.0,128.0,21.0,-106.0,-77.0,127.0,127.0,127.0,111.0,84.0,-50.0
127.0,126.0,138.0,130.0,127.0,130.0,127.0,129.0,21.0,-106.0,-77.0,127.0,127.0,127.0,111.0,84.0,-50.0
127.0,126.0,138.0,130.0,127.0,130.0,127.0,129.0,21.0,-106.0,-77.0,127.0,127.0,127.0,111.0,84.0,-50.0
127.0,126.0,138.0,129.0,127.0,130.0,127.0,129.0,21.0,-106.0,-77.0,127.0,127.0,127.0,111.0,84.0,-50.0
127.0,126.0,139.0,129.0,127.0,129.0,127.0,129.0,21.0,-106.0,-77.0,127.0,127.0,127.0,111.0,84.0,-50.0
127.0,127.0,139.0,128.0,127.0,129.0,127.0,128.0,21.0,-106.0,-77.0,127.0,127.0,127.0,111.0,84.0,-50.0
127.0,127.0,139.0,128.0,127.0,129.0,127.0,128.0,21.0,-106.0,-77.0,127.0,127.0,127.0,111.0,84.0,-50.0
127.0,126.0,137.0,130.0,127.0,131.0,126.0,127.0,21.0,-106.0,-77.0,127.0,127.0,127.0,111.0,84.0,-50.0
127.0,126.0,137.0,130.0,127.0,131.0,126.0,128.0,21.0,-106.0,-77.0,127.0,127.0,127.0,111.0,84.0,-50.0
127.0,126.0,137.0,130.0,127.0,131.0,127.0,128.0,21.0,-106.0,-77.0,127.0,127.0,127.0,111.0,84.0,-50.0
126.0,126.0,143.0,130.0,127.0,134.0,127.0,129.0,23.0,-106.0,-77.0,127.0,127.0,127.0,111.0,84.0,-50.0
126.0,127.0,143.0,130.0,127.0,134.0,127.0,128.0,23.0,-106.0,-77.0,127.0,127.0,127.0,111.0,84.0,-50.0
126.0,127.0,143.0,129.0,127.0,133.0,127.0,128.0,23.0,-106.0,-77.0,127.0,127.0,127.0,111.0,84.0,-50.0
126.0,127.0,143.0,129.0,127.0,133.0,127.0,128.0,23.0,-106.0,-77.0,127.0,127.0,127.0,111.0,84.0,-50.0
126.0,127.0,143.0,129.0,127.0,133.0,127.0,128.0,23.0,-106.0,-77.0,127.0,127.0,127.0,111.0,84.0,-50.0
126.0,127.0,143.0,129.0,127.0,132.0,127.0,128.0,23.0,-106.0,-77.0,127.0,127.0,127.0,111.0,84.0,-50.0
126.0,126.0,144.0,130.0,127.0,135.0,127.0,128.0,23.0,-106.0,-77.0,127.0,127.0,127.0,111.0,84.0,-50.0
126.0,126.0,144.0,130.0,127.0,135.0,127.0,128.0,23.0,-106.0,-77.0,127.0,127.0,127.0,111.0,84.0,-50.0
126.0,126.0,143.0,131.0,127.0,135.0,127.0,128.0,23.0,-106.0,-77.0,127.0,127.0,127.0,111.0,84.0,-50.0
126.0,126.0,143.0,131.0,127.0,135.0,127.0,128.0,23.0,-106.0,-77.0,127.0,127.0,127.0,111.0,84.0,-50.0
126.0,126.0,138.0,129.0,127.0,132.0,127.0,127.0,24.0,-107.0,-77.0,127.0,127.0,127.0,111.0,84.0,-50.0
126.0,126.0,138.0,129.0,127.0,131.0,127.0,127.0,24.0,-107.0,-77.0,127.0,127.0,127.0,111.0,84.0,-50.0
126.0,126.0,138.0,129.0,127.0,131.0,127.0,127.0,24.0,-107.0,-77.0,127.0,127.0,127.0,111.0,84.0,-50.0
126.0,126.0,138.0,129.0,127.0,131.0,127.0,127.0,24.0,-107.0,-77.0,127.0,127.0,127.0,111.0,84.0,-50.0
126.0,126.0,138.0,129.0,127.0,131.0,127.0,127.0,24.0,-107.0,-77.0,127.0,127.0,127.0,111.0,84.0,-50.0
125.0,126.0,137.0,127.0,126.0,133.0,126.0,126.0,24.0,-107.0,-77.0,127.0,127.0,127.0,111.0,84.0,-50.0
125.0,126.0,137.0,127.0,126.0,133.0,126.0,126.0,24.0,-107.0,-77.0,127.0,127.0,127.0,111.0,84.0,-50.0
125.0,126.0,137.0,128.0,126.0,133.0,126.0,126.0,24.0,-107.0,-77.0,127.0,127.0,127.0,111.0,84.0,-50.0
125.0,126.0,137.0,128.0,126.0,133.0,126.0,127.0,24.0,-107.0,-77.0,127.0,127.0,127.0,111.0,84.0,-50.0
126.0,126.0,138.0,129.0,126.0,132.0,127.0,127.0,24.0,-107.0,-77.0,127.0,127.0,127.0,111.0,84.0,-50.0
124.0,125.0,126.0,123.0,126.0,133.0,127.0,126.0,24.0,-107.0,-77.0,127.0,127.0,127.0,111.0,84.0,-50.0
123.0,125.0,124.0,123.0,125.0,134.0,127.0,126.0,24.0,-107.0,-77.0,127.0,127.0,127.0,111.0,84.0,-50.0
123.0,126.0,123.0,124.0,126.0,134.0,127.0,126.0,24.0,-107.0,-77.0,127.0,127.0,127.0,111.0,84.0,-50.0
123.0,126.0,123.0,124.0,126.0,134.0,127.0,125.0,24.0,-107.0,-77.0,127.0,127.0,127.0,111.0,84.0,-50.0
126.0,125.0,129.0,124.0,126.0,133.0,127.0,127.0,24.0,-107.0,-77.0,127.0,127.0,127.0,111.0,84.0,-50.0
125.0,126.0,128.0,124.0,126.0,134.0,127.0,127.0,24.0,-107.0,-77.0,127.0,127.0,127.0,111.0,84.0,-50.0
125.0,126.0,128.0,123.0,126.0,134.0,127.0,126.0,24.0,-107.0,-77.0,127.0,127.0,127.0,111.0,84.0,-50.0
125.0,126.0,127.0,123.0,126.0,134.0,127.0,126.0,24.0,-107.0,-77.0,127.0,127.0,127.0,111.0,84.0,-50.0
125.0,126.0,127.0,123.0,126.0,133.0,127.0,126.0,24.0,-107.0,-77.0,127.0,127.0,127.0,111.0,84.0,-50.0
124.0,125.0,126.0,123.0,126.0,133.0,127.0,126.0,24.0,-107.0,-77.0,127.0,127.0,127.0,111.0,84.0,-50.0
127.0,127.0,132.0,132.0,127.0,135.0,127.0,128.0,24.0,-107.0,-77.0,127.0,127.0,127.0,111.0,84.0,-50.0
127.0,128.0,132.0,132.0,127.0,136.0,127.0,128.0,24.0,-107.0,-77.0,127.0,127.0,127.0,111.0,84.0,-50.0
127.0,128.0,131.0,131.0,127.0,136.0,126.0,128.0,24.0,-107.0,-77.0,127.0,127.0,127.0,111.0,84.0,-50.0
127.0,126.0,132.0,134.0,126.0,135.0,126.0,128.0,24.0,-107.0,-77.0,127.0,127.0,127.0,111.0,84.0,-50.0
127.0,126.0,132.0,135.0,127.0,136.0,126.0,128.0,24.0,-107.0,-77.0,127.0,127.0,127.0,111.0,84.0,-50.0
127.0,127.0,132.0,135.0,127.0,136.0,126.0,128.0,24.0,-107.0,-77.0,127.0,127.0,127.0,111.0,84.0,-50.0
127.0,127.0,133.0,135.0,127.0,136.0,126.0,128.0,24.0,-107.0,-77.0,127.0,127.0,127.0,111.0,84.0,-50.0
127.0,127.0,133.0,134.0,127.0,136.0,127.0,128.0,24.0,-107.0,-77.0,127.0,127.0,127.0,111.0,84.0,-50.0
127.0,127.0,132.0,133.0,127.0,135.0,127.0,128.0,24.0,-107.0,-77.0,127.0,127.0,127.0,111.0,84.0,-50.0
127.0,127.0,132.0,133.0,127.0,135.0,127.0,128.0,24.0,-107.0,-77.0,127.0,127.0,127.0,111.0,84.0,-50.0
127.0,127.0,134.0,132.0,127.0,138.0,126.0,128.0,23.0,-107.0,-77.0,127.0,127.0,127.0,111.0,84.0,-50.0
128.0,128.0,135.0,133.0,127.0,137.0,126.0,128.0,23.0,-107.0,-77.0,127.0,127.0,127.0,111.0,84.0,-50.0
126.0,125.0,133.0,127.0,126.0,138.0,126.0,124.0,23.0,-107.0,-77.0,127.0,127.0,127.0,111.0,84.0,-50.0
125.0,125.0,133.0,127.0,126.0,138.0,126.0,125.0,23.0,-107.0,-77.0,127.0,127.0,127.0,111.0,84.0,-50.0
125.0,125.0,133.0,128.0,126.0,139.0,126.0,126.0,23.0,-107.0,-77.0,127.0,127.0,127.0,111.0,84.0,-50.0
125.0,126.0,132.0,128.0,127.0,138.0,126.0,127.0,23.0,-107.0,-77.0,127.0,127.0,127.0,111.0,84.0,-50.0
126.0,126.0,133.0,129.0,127.0,138.0,126.0,127.0,23.0,-107.0,-77.0,127.0,127.0,127.0,111.0,84.0,-50.0
126.0,126.0,133.0,130.0,127.0,137.0,126.0,128.0,23.0,-107.0,-77.0,127.0,127.0,127.0,111.0,84.0,-50.0
126.0,127.0,134.0,130.0,127.0,137.0,126.0,128.0,23.0,-107.0,-77.0,127.0,127.0,127.0,111.0,84.0,-50.0
127.0,127.0,134.0,131.0,127.0,137.0,126.0,127.0,23.0,-107.0,-77.0,127.0,127.0,127.0,111.0,84.0,-50.0
128.0,127.0,124.0,135.0,126.0,136.0,127.0,128.0,22.0,-106.0,-76.0,127.0,127.0,127.0,111.0,84.0,-50.0
127.0,126.0,134.0,139.0,127.0,135.0,127.0,129.0,22.0,-106.0,-76.0,127.0,127.0,127.0,111.0,84.0,-50.0
127.0,126.0,133.0,138.0,127.0,136.0,127.0,128.0,22.0,-106.0,-76.0,127.0,127.0,127.0,111.0,84.0,-50.0
126.0,126.0,132.0,138.0,127.0,136.0,128.0,128.0,22.0,-106.0,-76.0,127.0,127.0,127.0,111.0,84.0,-50.0
126.0,126.0,131.0,137.0,127.0,136.0,128.0,128.0,22.0,-106.0,-76.0,127.0,127.0,127.0,111.0,84.0,-50.0
126.0,126.0,130.0,136.0,126.0,136.0,128.0,127.0,22.0,-106.0,-76.0,127.0,127.0,127.0,111.0,84.0,-50.0
127.0,126.0,129.0,135.0,126.0,135.0,128.0,128.0,22.0,-106.0,-76.0,127.0,127.0,127.0,111.0,84.0,-50.0
127.0,126.0,128.0,135.0,126.0,135.0,127.0,128.0,22.0,-106.0,-76.0,127.0,127.0,127.0,111.0,84.0,-50.0
128.0,126.0,127.0,135.0,126.0,135.0,127.0,129.0,22.0,-106.0,-76.0,127.0,127.0,127.0,111.0,84.0,-50.0
128.0,126.0,125.0,135.0,126.0,137.0,127.0,129.0,22.0,-106.0,-76.0,127.0,127.0,127.0,111.0,84.0,-50.0
129.0,127.0,138.0,128.0,127.0,137.0,128.0,129.0,21.0,-105.0,-75.0,127.0,127.0,127.0,111.0,84.0,-50.0
129.0,128.0,139.0,130.0,127.0,138.0,128.0,129.0,21.0,-105.0,-75.0,127.0,127.0,127.0,111.0,84.0,-50.0
129.0,128.0,140.0,131.0,127.0,139.0,128.0,129.0,21.0,-105.0,-75.0,127.0,127.0,127.0,111.0,84.0,-50.0
129.0,128.0,141.0,133.0,127.0,138.0,128.0,129.0,21.0,-105.0,-75.0,127.0,127.0,127.0,111.0,84.0,-50.0
129.0,128.0,141.0,135.0,128.0,138.0,128.0,129.0,21.0,-105.0,-75.0,127.0,127.0,127.0,111.0,84.0,-50.0
129.0,128.0,142.0,136.0,128.0,137.0,128.0,129.0,21.0,-105.0,-75.0,127.0,127.0,127.0,111.0,84.0,-50.0
129.0,128.0,142.0,136.0,127.0,137.0,128.0,129.0,21.0,-105.0,-75.0,127.0,127.0,127.0,111.0,84.0,-50.0
129.0,128.0,142.0,135.0,127.0,137.0,128.0,128.0,21.0,-105.0,-75.0,127.0,127.0,127.0,111.0,84.0,-50.0
128.0,128.0,141.0,134.0,127.0,138.0,128.0,128.0,21.0,-105.0,-75.0,127.0,127.0,127.0,111.0,84.0,-50.0
128.0,128.0,141.0,132.0,127.0,138.0,128.0,128.0,21.0,-105.0,-75.0,127.0,127.0,127.0,111.0,84.0,-50.0
127.0,127.0,145.0,144.0,127.0,138.0,127.0,127.0,21.0,-105.0,-74.0,127.0,127.0,127.0,111.0,84.0,-50.0
127.0,127.0,146.0,143.0,127.0,138.0,127.0,127.0,21.0,-105.0,-74.0,127.0,127.0,127.0,111.0,84.0,-50.0
127.0,127.0,146.0,143.0,127.0,138.0,127.0,127.0,21.0,-105.0,-74.0,127.0,127.0,127.0,111.0,84.0,-50.0
127.0,128.0,146.0,143.0,127.0,138.0,127.0,127.0,21.0,-105.0,-74.0,127.0,127.0,127.0,111.0,84.0,-50.0
127.0,128.0,146.0,143.0,127.0,139.0,127.0,127.0,21.0,-105.0,-74.0,127.0,127.0,127.0,111.0,84.0,-50.0
127.0,128.0,147.0,143.0,127.0,138.0,127.0,127.0,21.0,-105.0,-74.0,127.0,127.0,127.0,111.0,84.0,-50.0
127.0,128.0,147.0,144.0,127.0,138.0,127.0,127.0,21.0,-105.0,-74.0,127.0,127.0,127.0,111.0,84.0,-50.0
127.0,128.0,148.0,144.0,127.0,138.0,127.0,127.0,21.0,-105.0,-74.0,127.0,127.0,127.0,111.0,84.0,-50.0
127.0,128.0,148.0,145.0,127.0,138.0,127.0,127.0,21.0,-105.0,-74.0,127.0,127.0,127.0,111.0,84.0,-50.0
126.0,127.0,145.0,144.0,127.0,138.0,127.0,127.0,21.0,-105.0,-74.0,127.0,127.0,127.0,111.0,84.0,-50.0
127.0,128.0,133.0,151.0,128.0,139.0,126.0,127.0,22.0,-104.0,-74.0,127.0,127.0,127.0,111.0,84.0,-50.0
127.0,128.0,132.0,151.0,128.0,139.0,126.0,127.0,22.0,-104.0,-74.0,127.0,127.0,127.0,111.0,84.0,-50.0
127.0,129.0,131.0,151.0,128.0,139.0,126.0,127.0,22.0,-104.0,-74.0,127.0,127.0,127.0,111.0,84.0,-50.0
127.0,130.0,129.0,151.0,129.0,140.0,126.0,127.0,22.0,-104.0,-74.0,127.0,127.0,127.0,111.0,84.0,-50.0
127.0,130.0,129.0,151.0,129.0,140.0,126.0,128.0,22.0,-104.0,-74.0,127.0,127.0,127.0,111.0,84.0,-50.0
127.0,130.0,129.0,151.0,129.0,140.0,127.0,128.0,22.0,-104.0,-74.0,127.0,127.0,127.0,111.0,84.0,-50.0
127.0,130.0,128.0,150.0,129.0,140.0,127.0,128.0,22.0,-104.0,-74.0,127.0,127.0,127.0,111.0,84.0,-50.0
127.0,129.0,128.0,149.0,129.0,140.0,127.0,128.0,22.0,-104.0,-74.0,127.0,127.0,127.0,111.0,84.0,-50.0
127.0,127.0,135.0,150.0,128.0,140.0,126.0,127.0,22.0,-104.0,-74.0,127.0,127.0,127.0,111.0,84.0,-50.0
127.0,128.0,134.0,151.0,128.0,140.0,126.0,127.0,22.0,-104.0,-74.0,127.0,127.0,127.0,111.0,84.0,-50.0
128.0,128.0,132.0,146.0,130.0,143.0,128.0,128.0,24.0,-105.0,-73.0,127.0,127.0,127.0,111.0,84.0,-50.0
128.0,128.0,132.0,145.0,131.0,143.0,128.0,128.0,24.0,-105.0,-73.0,127.0,127.0,127.0,111.0,84.0,-50.0
128.0,128.0,131.0,145.0,131.0,144.0,128.0,128.0,24.0,-105.0,-73.0,127.0,127.0,127.0,111.0,84.0,-50.0
128.0,128.0,130.0,145.0,131.0,144.0,128.0,128.0,24.0,-105.0,-73.0,127.0,127.0,127.0,111.0,84.0,-50.0
128.0,128.0,129.0,145.0,131.0,143.0,128.0,128.0,24.0,-105.0,-73.0,127.0,127.0,127.0,111.0,84.0,-50.0
128.0,128.0,129.0,144.0,130.0,143.0,128.0,128.0,24.0,-105.0,-73.0,127.0,127.0,127.0,111.0,84.0,-50.0
128.0,128.0,128.0,144.0,130.0,143.0,128.0,128.0,24.0,-105.0,-73.0,127.0,127.0,127.0,111.0,84.0,-50.0
128.0,127.0,134.0,145.0,131.0,144.0,127.0,128.0,24.0,-105.0,-73.0,127.0,127.0,127.0,111.0,84.0,-50.0
128.0,128.0,133.0,145.0,131.0,144.0,127.0,128.0,24.0,-105.0,-73.0,127.0,127.0,127.0,111.0,84.0,-50.0
128.0,127.0,133.0,145.0,130.0,143.0,127.0,128.0,24.0,-105.0,-73.0,127.0,127.0,127.0,111.0,84.0,-50.0
127.0,126.0,119.0,120.0,131.0,144.0,128.0,129.0,27.0,-106.0,-74.0,-128.0,127.0,127.0,111.0,84.0,-50.0
127.0,126.0,119.0,121.0,131.0,144.0,128.0,129.0,27.0,-106.0,-74.0,-128.0,127.0,127.0,111.0,84.0,-50.0
127.0,127.0,119.0,123.0,131.0,144.0,128.0,130.0,27.0,-106.0,-74.0,-128.0,127.0,127.0,111.0,84.0,-50.0
127.0,127.0,119.0,125.0,132.0,143.0,128.0,131.0,27.0,-106.0,-74.0,-128.0,127.0,127.0,111.0,84.0,-50.0
127.0,128.0,119.0,125.0,132.0,142.0,129.0,132.0,27.0,-106.0,-74.0,-128.0,127.0,127.0,111.0,84.0,-50.0
128.0,128.0,119.0,126.0,132.0,141.0,129.0,132.0,27.0,-106.0,-74.0,-128.0,127.0,127.0,111.0,84.0,-50.0
127.0,126.0,120.0,121.0,131.0,146.0,127.0,127.0,27.0,-106.0,-74.0,-128.0,127.0,127.0,111.0,84.0,-50.0
127.0,126.0,120.0,120.0,131.0,145.0,127.0,127.0,27.0,-106.0,-74.0,-128.0,127.0,127.0,111.0,84.0,-50.0
127.0,126.0,120.0,119.0,131.0,145.0,127.0,128.0,27.0,-106.0,-74.0,-128.0,127.0,127.0,111.0,84.0,-50.0
127.0,126.0,119.0,119.0,131.0,145.0,128.0,128.0,27.0,-106.0,-74.0,-128.0,127.0,127.0,111.0,84.0,-50.0
127.0,126.0,104.0,116.0,129.0,152.0,128.0,128.0,29.0,-107.0,-75.0,-128.0,127.0,127.0,111.0,84.0,-50.0
127.0,126.0,103.0,116.0,129.0,152.0,128.0,128.0,29.0,-107.0,-75.0,-128.0,127.0,127.0,111.0,84.0,-50.0
127.0,126.0,102.0,116.0,129.0,152.0,128.0,128.0,29.0,-107.0,-75.0,-128.0,127.0,127.0,111.0,84.0,-50.0
127.0,126.0,102.0,116.0,129.0,152.0,128.0,128.0,29.0,-107.0,-75.0,-128.0,127.0,127.0,111.0,84.0,-50.0
127.0,126.0,101.0,116.0,129.0,153.0,128.0,128.0,29.0,-107.0,-75.0,-128.0,127.0,127.0,111.0,84.0,-50.0
127.0,126.0,108.0,118.0,129.0,151.0,127.0,128.0,29.0,-107.0,-75.0,-128.0,127.0,127.0,111.0,84.0,-50.0
127.0,126.0,107.0,118.0,129.0,151.0,127.0,128.0,29.0,-107.0,-75.0,-128.0,127.0,127.0,111.0,84.0,-50.0
127.0,126.0,106.0,117.0,129.0,151.0,127.0,128.0,29.0,-107.0,-75.0,-128.0,127.0,127.0,111.0,84.0,-50.0
127.0,126.0,105.0,117.0,129.0,151.0,127.0,128.0,29.0,-107.0,-75.0,-128.0,127.0,127.0,111.0,84.0,-50.0
127.0,126.0,104.0,117.0,129.0,152.0,128.0,128.0,29.0,-107.0,-75.0,-128.0,127.0,127.0,111.0,84.0,-50.0
126.0,128.0,83.0,113.0,125.0,70.0,125.0,128.0,30.0,-107.0,-76.0,-128.0,127.0,127.0,111.0,84.0,-50.0
126.0,129.0,83.0,114.0,125.0,67.0,125.0,128.0,30.0,-107.0,-76.0,-128.0,127.0,127.0,111.0,84.0,-50.0
126.0,129.0,84.0,114.0,125.0,63.0,125.0,128.0,30.0,-107.0,-76.0,-128.0,127.0,127.0,111.0,84.0,-50.0
126.0,129.0,85.0,114.0,125.0,60.0,125.0,128.0,30.0,-107.0,-76.0,-128.0,127.0,127.0,111.0,84.0,-50.0
126.0,126.0,81.0,111.0,125.0,87.0,125.0,128.0,30.0,-107.0,-76.0,-128.0,127.0,127.0,111.0,84.0,-50.0
126.0,126.0,81.0,111.0,125.0,84.0,125.0,128.0,30.0,-107.0,-76.0,-128.0,127.0,127.0,111.0,84.0,-50.0
126.0,126.0,81.0,111.0,125.0,81.0,125.0,128.0,30.0,-107.0,-76.0,-128.0,127.0,127.0,111.0,84.0,-50.0
126.0,127.0,81.0,111.0,125.0,78.0,125.0,128.0,30.0,-107.0,-76.0,-128.0,127.0,127.0,111.0,84.0,-50.0
126.0,127.0,81.0,111.0,125.0,76.0,125.0,128.0,30.0,-107.0,-76.0,-128.0,127.0,127.0,111.0,84.0,-50.0
126.0,128.0,82.0,112.0,125.0,73.0,125.0,128.0,30.0,-107.0,-76.0,-128.0,127.0,127.0,111.0,84.0,-50.0
128.0,128.0,111.0,111.0,122.0,10.0,125.0,128.0,29.0,-107.0,-77.0,-128.0,127.0,127.0,111.0,84.0,-50.0
128.0,128.0,111.0,110.0,122.0,10.0,125.0,128.0,29.0,-107.0,-77.0,-128.0,127.0,127.0,111.0,84.0,-50.0
128.0,128.0,111.0,110.0,122.0,10.0,125.0,128.0,29.0,-107.0,-77.0,-128.0,127.0,127.0,111.0,84.0,-50.0
128.0,127.0,112.0,115.0,123.0,9.0,124.0,128.0,29.0,-107.0,-77.0,-128.0,127.0,127.0,111.0,84.0,-50.0
128.0,127.0,112.0,115.0,123.0,9.0,124.0,128.0,29.0,-107.0,-77.0,-128.0,127.0,127.0,111.0,84.0,-50.0
128.0,128.0,112.0,114.0,123.0,9.0,124.0,128.0,29.0,-107.0,-77.0,-128.0,127.0,127.0,111.0,84.0,-50.0
128.0,128.0,112.0,114.0,123.0,9.0,124.0,128.0,29.0,-107.0,-77.0,-128.0,127.0,127.0,111.0,84.0,-50.0
128.0,128.0,112.0,113.0,123.0,9.0,124.0,128.0,29.0,-107.0,-77.0,-128.0,127.0,127.0,111.0,84.0,-50.0
128.0,128.0,112.0,112.0,123.0,9.0,125.0,128.0,29.0,-107.0,-77.0,-128.0,127.0,127.0,111.0,84.0,-50.0
128.0,128.0,112.0,112.0,123.0,9.0,125.0,128.0,29.0,-107.0,-77.0,-128.0,127.0,127.0,111.0,84.0,-50.0
126.0,127.0,138.0,111.0,122.0,70.0,125.0,125.0,26.0,-105.0,-78.0,-128.0,127.0,127.0,111.0,84.0,-50.0
127.0,125.0,142.0,109.0,120.0,61.0,123.0,127.0,26.0,-105.0,-78.0,-128.0,127.0,127.0,111.0,84.0,-50.0
127.0,126.0,141.0,109.0,121.0,63.0,124.0,126.0,26.0,-105.0,-78.0,-128.0,127.0,127.0,111.0,84.0,-50.0
126.0,126.0,141.0,108.0,121.0,64.0,124.0,126.0,26.0,-105.0,-78.0,-128.0,127.0,127.0,111.0,84.0,-50.0
126.0,126.0,141.0,108.0,121.0,65.0,124.0,126.0,26.0,-105.0,-78.0,-128.0,127.0,127.0,111.0,84.0,-50.0
126.0,127.0,141.0,108.0,121.0,67.0,124.0,126.0,26.0,-105.0,-78.0,-128.0,127.0,127.0,111.0,84.0,-50.0
126.0,127.0,141.0,109.0,122.0,68.0,124.0,125.0,26.0,-105.0,-78.0,-128.0,127.0,127.0,111.0,84.0,-50.0
126.0,127.0,140.0,109.0,122.0,69.0,124.0,125.0,26.0,-105.0,-78.0,-128.0,127.0,127.0,111.0,84.0,-50.0
126.0,127.0,140.0,109.0,122.0,69.0,124.0,125.0,26.0,-105.0,-78.0,-128.0,127.0,127.0,111.0,84.0,-50.0
126.0,127.0,139.0,110.0,122.0,69.0,125.0,125.0,26.0,-105.0,-78.0,-128.0,127.0,127.0,111.0,84.0,-50.0
128.0,126.0,130.0,113.0,122.0,100.0,125.0,128.0,22.0,-103.0,-79.0,-128.0,127.0,127.0,111.0,84.0,-50.0
128.0,126.0,129.0,114.0,122.0,101.0,125.0,128.0,22.0,-103.0,-79.0,-128.0,127.0,127.0,111.0,84.0,-50.0
128.0,126.0,130.0,115.0,122.0,102.0,125.0,128.0,22.0,-103.0,-79.0,-128.0,127.0,127.0,111.0,84.0,-50.0
128.0,126.0,130.0,115.0,122.0,102.0,125.0,128.0,22.0,-103.0,-79.0,-128.0,127.0,127.0,111.0,84.0,-50.0
128.0,127.0,130.0,116.0,122.0,102.0,125.0,128.0,22.0,-103.0,-79.0,-128.0,127.0,127.0,111.0,84.0,-50.0
128.0,127.0,130.0,116.0,122.0,102.0,125.0,128.0,22.0,-103.0,-79.0,-128.0,127.0,127.0,111.0,84.0,-50.0
128.0,127.0,129.0,116.0,122.0,102.0,125.0,128.0,22.0,-103.0,-79.0,-128.0,127.0,127.0,111.0,84.0,-50.0
128.0,127.0,129.0,116.0,122.0,103.0,125.0,128.0,22.0,-103.0,-79.0,-128.0,127.0,127.0,111.0,84.0,-50.0
128.0,127.0,129.0,117.0,122.0,104.0,125.0,128.0,22.0,-103.0,-79.0,-128.0,127.0,127.0,111.0,84.0,-50.0
128.0,127.0,129.0,117.0,122.0,104.0,125.0,128.0,22.0,-103.0,-79.0,-128.0,127.0,127.0,111.0,84.0,-50.0
128.0,126.0,124.0,113.0,123.0,112.0,125.0,128.0,18.0,-101.0,-80.0,-128.0,127.0,127.0,111.0,84.0,-50.0
128.0,126.0,123.0,113.0,123.0,112.0,125.0,128.0,18.0,-101.0,-80.0,-128.0,127.0,127.0,111.0,84.0,-50.0
128.0,126.0,123.0,114.0,123.0,112.0,125.0,128.0,18.0,-101.0,-80.0,-128.0,127.0,127.0,111.0,84.0,-50.0
128.0,126.0,123.0,114.0,123.0,112.0,126.0,128.0,18.0,-101.0,-80.0,-128.0,127.0,127.0,111.0,84.0,-50.0
128.0,126.0,122.0,114.0,123.0,112.0,126.0,128.0,18.0,-101.0,-80.0,-128.0,127.0,127.0,111.0,84.0,-50.0
128.0,126.0,121.0,115.0,123.0,111.0,126.0,128.0,18.0,-101.0,-80.0,-128.0,127.0,127.0,111.0,84.0,-50.0
128.0,126.0,121.0,115.0,123.0,113.0,126.0,128.0,18.0,-101.0,-80.0,-128.0,127.0,127.0,111.0,84.0,-50.0
127.0,126.0,120.0,115.0,123.0,113.0,126.0,128.0,18.0,-101.0,-80.0,-128.0,127.0,127.0,111.0,84.0,-50.0
128.0,127.0,120.0,115.0,123.0,113.0,126.0,128.0,18.0,-101.0,-80.0,-128.0,127.0,127.0,111.0,84.0,-50.0
128.0,125.0,125.0,113.0,123.0,111.0,125.0,128.0,18.0,-101.0,-80.0,-128.0,127.0,127.0,111.0,84.0,-50.0
128.0,127.0,115.0,110.0,124.0,114.0,126.0,129.0,15.0,-101.0,-81.0,-128.0,127.0,127.0,111.0,84.0,-50.0
128.0,127.0,114.0,111.0,124.0,114.0,126.0,129.0,15.0,-101.0,-81.0,-128.0,127.0,127.0,111.0,84.0,-50.0
129.0,127.0,114.0,111.0,124.0,113.0,126.0,129.0,15.0,-101.0,-81.0,-128.0,127.0,127.0,111.0,84.0,-50.0
129.0,128.0,114.0,111.0,124.0,113.0,126.0,129.0,15.0,-101.0,-81.0,-128.0,127.0,127.0,111.0,84.0,-50.0
128.0,129.0,115.0,111.0,124.0,112.0,126.0,128.0,15.0,-101.0,-81.0,-128.0,127.0,127.0,111.0,84.0,-50.0
128.0,129.0,114.0,111.0,125.0,113.0,126.0,128.0,15.0,-101.0,-81.0,-128.0,127.0,127.0,111.0,84.0,-50.0
128.0,129.0,114.0,111.0,125.0,113.0,127.0,128.0,15.0,-101.0,-81.0,-128.0,127.0,127.0,111.0,84.0,-50.0
128.0,128.0,114.0,111.0,125.0,113.0,127.0,128.0,15.0,-101.0,-81.0,-128.0,127.0,127.0,111.0,84.0,-50.0
128.0,126.0,116.0,107.0,124.0,113.0,126.0,129.0,15.0,-101.0,-81.0,-128.0,127.0,127.0,111.0,84.0,-50.0
128.0,126.0,115.0,109.0,124.0,114.0,126.0,129.0,15.0,-101.0,-81.0,-128.0,127.0,127.0,111.0,84.0,-50.0
126.0,125.0,116.0,107.0,125.0,110.0,126.0,128.0,14.0,-101.0,-82.0,-128.0,127.0,127.0,111.0,84.0,-50.0
127.0,125.0,115.0,107.0,125.0,109.0,126.0,128.0,14.0,-101.0,-82.0,-128.0,127.0,127.0,111.0,84.0,-50.0
127.0,125.0,115.0,107.0,125.0,109.0,126.0,128.0,14.0,-101.0,-82.0,-128.0,127.0,127.0,111.0,84.0,-50.0
126.0,125.0,116.0,107.0,125.0,109.0,126.0,128.0,14.0,-101.0,-82.0,-128.0,127.0,127.0,111.0,84.0,-50.0
126.0,125.0,116.0,107.0,125.0,109.0,126.0,127.0,14.0,-101.0,-82.0,-128.0,127.0,127.0,111.0,84.0,-50.0
127.0,125.0,117.0,108.0,125.0,108.0,127.0,127.0,14.0,-101.0,-82.0,-128.0,127.0,127.0,111.0,84.0,-50.0
127.0,126.0,118.0,108.0,125.0,108.0,127.0,128.0,14.0,-101.0,-82.0,-128.0,127.0,127.0,111.0,84.0,-50.0
128.0,125.0,117.0,107.0,126.0,111.0,126.0,128.0,14.0,-101.0,-82.0,-128.0,127.0,127.0,111.0,84.0,-50.0
127.0,125.0,116.0,107.0,125.0,110.0,126.0,128.0,14.0,-101.0,-82.0,-128.0,127.0,127.0,111.0,84.0,-50.0
127.0,125.0,116.0,107.0,125.0,110.0,126.0,128.0,14.0,-101.0,-82.0,-128.0,127.0,127.0,111.0,84.0,-50.0
126.0,127.0,123.0,110.0,127.0,111.0,126.0,125.0,14.0,-101.0,-82.0,127.0,127.0,127.0,111.0,84.0,-50.0
126.0,127.0,123.0,111.0,127.0,111.0,126.0,126.0,14.0,-101.0,-82.0,127.0,127.0,127.0,111.0,84.0,-50.0
126.0,127.0,123.0,113.0,127.0,111.0,126.0,127.0,14.0,-101.0,-82.0,127.0,127.0,127.0,111.0,84.0,-50.0
127.0,127.0,124.0,114.0,127.0,111.0,127.0,127.0,14.0,-101.0,-82.0,127.0,127.0,127.0,111.0,84.0,-50.0
127.0,127.0,124.0,116.0,127.0,110.0,127.0,128.0,14.0,-101.0,-82.0,127.0,127.0,127.0,111.0,84.0,-50.0
127.0,127.0,124.0,116.0,127.0,110.0,127.0,128.0,14.0,-101.0,-82.0,127.0,127.0,127.0,111.0,84.0,-50.0
127.0,126.0,123.0,98.0,125.0,111.0,126.0,127.0,14.0,-101.0,-82.0,127.0,127.0,127.0,111.0,84.0,-50.0
127.0,126.0,123.0,102.0,126.0,111.0,126.0,126.0,14.0,-101.0,-82.0,127.0,127.0,127.0,111.0,84.0,-50.0
127.0,126.0,123.0,105.0,126.0,111.0,126.0,125.0,14.0,-101.0,-82.0,127.0,127.0,127.0,111.0,84.0,-50.0
126.0,126.0,123.0,108.0,126.0,110.0,126.0,125.0,14.0,-101.0,-82.0,127.0,127.0,127.0,111.0,84.0,-50.0
128.0,127.0,132.0,112.0,127.0,109.0,126.0,129.0,15.0,-100.0,-82.0,127.0,127.0,127.0,111.0,84.0,-50.0
128.0,127.0,131.0,112.0,127.0,109.0,126.0,129.0,15.0,-100.0,-82.0,127.0,127.0,127.0,111.0,84.0,-50.0
128.0,127.0,131.0,112.0,127.0,108.0,126.0,129.0,15.0,-100.0,-82.0,127.0,127.0,127.0,111.0,84.0,-50.0
128.0,127.0,131.0,112.0,127.0,108.0,126.0,129.0,15.0,-100.0,-82.0,127.0,127.0,127.0,111.0,84.0,-50.0
128.0,127.0,130.0,112.0,126.0,107.0,127.0,129.0,15.0,-100.0,-82.0,127.0,127.0,127.0,111.0,84.0,-50.0
128.0,127.0,133.0,112.0,128.0,109.0,126.0,128.0,15.0,-100.0,-82.0,127.0,127.0,127.0,111.0,84.0,-50.0
128.0,127.0,133.0,113.0,128.0,108.0,126.0,128.0,15.0,-100.0,-82.0,127.0,127.0,127.0,111.0,84.0,-50.0
128.0,127.0,133.0,112.0,128.0,108.0,126.0,129.0,15.0,-100.0,-82.0,127.0,127.0,127.0,111.0,84.0,-50.0
128.0,127.0,133.0,112.0,128.0,108.0,126.0,129.0,15.0,-100.0,-82.0,127.0,127.0,127.0,111.0,84.0,-50.0
128.0,127.0,132.0,112.0,127.0,108.0,126.0,129.0,15.0,-100.0,-82.0,127.0,127.0,127.0,111.0,84.0,-50.0
128.0,127.0,129.0,111.0,127.0,108.0,127.0,126.0,17.0,-100.0,-82.0,127.0,127.0,127.0,110.0,84.0,-50.0
128.0,128.0,129.0,112.0,127.0,108.0,127.0,127.0,17.0,-100.0,-82.0,127.0,127.0,127.0,110.0,84.0,-50.0
128.0,128.0,129.0,113.0,127.0,107.0,127.0,127.0,17.0,-100.0,-82.0,127.0,127.0,127.0,110.0,84.0,-50.0
128.0,128.0,129.0,113.0,127.0,107.0,127.0,127.0,17.0,-100.0,-82.0,127.0,127.0,127.0,110.0,84.0,-50.0
128.0,126.0,131.0,108.0,126.0,108.0,126.0,127.0,17.0,-100.0,-82.0,127.0,127.0,127.0,110.0,84.0,-50.0
128.0,126.0,130.0,107.0,126.0,107.0,126.0,127.0,17.0,-100.0,-82.0,127.0,127.0,127.0,110.0,84.0,-50.0
128.0,126.0,130.0,107.0,126.0,107.0,127.0,126.0,17.0,-100.0,-82.0,127.0,127.0,127.0,110.0,84.0,-50.0
128.0,126.0,130.0,107.0,126.0,107.0,126.0,126.0,17.0,-100.0,-82.0,127.0,127.0,127.0,110.0,84.0,-50.0
128.0,127.0,130.0,108.0,126.0,107.0,126.0,126.0,17.0,-100.0,-82.0,127.0,127.0,127.0,110.0,84.0,-50.0
128.0,127.0,129.0,110.0,126.0,108.0,126.0,126.0,17.0,-100.0,-82.0,127.0,127.0,127.0,110.0,84.0,-50.0
126.0,127.0,129.0,112.0,127.0,108.0,127.0,129.0,19.0,-100.0,-82.0,127.0,127.0,127.0,110.0,84.0,-50.0
126.0,127.0,129.0,112.0,127.0,108.0,127.0,129.0,19.0,-100.0,-82.0,127.0,127.0,127.0,110.0,84.0,-50.0
126.0,127.0,129.0,112.0,127.0,108.0,127.0,129.0,19.0,-100.0,-82.0,127.0,127.0,127.0,110.0,84.0,-50.0
127.0,126.0,132.0,113.0,128.0,108.0,127.0,130.0,19.0,-100.0,-82.0,127.0,127.0,127.0,110.0,84.0,-50.0
126.0,126.0,132.0,113.0,128.0,108.0,127.0,129.0,19.0,-100.0,-82.0,127.0,127.0,127.0,110.0,84.0,-50.0
126.0,126.0,131.0,113.0,128.0,108.0,127.0,129.0,19.0,-100.0,-82.0,127.0,127.0,127.0,110.0,84.0,-50.0
126.0,126.0,131.0,113.0,127.0,108.0,127.0,129.0,19.0,-100.0,-82.0,127.0,127.0,127.0,110.0,84.0,-50.0
126.0,127.0,131.0,112.0,127.0,108.0,127.0,129.0,19.0,-100.0,-82.0,127.0,127.0,127.0,110.0,84.0,-50.0
126.0,127.0,130.0,112.0,127.0,109.0,127.0,129.0,19.0,-100.0,-82.0,127.0,127.0,127.0,110.0,84.0,-50.0
126.0,127.0,130.0,112.0,127.0,109.0,127.0,129.0,19.0,-100.0,-82.0,127.0,127.0,127.0,110.0,84.0,-50.0
127.0,127.0,122.0,117.0,128.0,105.0,127.0,128.0,21.0,-101.0,-82.0,127.0,127.0,127.0,110.0,84.0,-50.0
127.0,128.0,122.0,117.0,128.0,105.0,127.0,128.0,21.0,-101.0,-82.0,127.0,127.0,127.0,110.0,84.0,-50.0
127.0,126.0,124.0,118.0,128.0,107.0,127.0,128.0,21.0,-101.0,-82.0,127.0,127.0,127.0,110.0,84.0,-50.0
127.0,126.0,123.0,118.0,128.0,106.0,127.0,129.0,21.0,-101.0,-82.0,127.0,127.0,127.0,110.0,84.0,-50.0
127.0,126.0,123.0,118.0,128.0,106.0,127.0,129.0,21.0,-101.0,-82.0,127.0,127.0,127.0,110.0,84.0,-50.0
127.0,126.0,123.0,118.0,128.0,106.0,127.0,128.0,21.0,-101.0,-82.0,127.0,127.0,127.0,110.0,84.0,-50.0
127.0,127.0,123.0,118.0,128.0,106.0,127.0,128.0,21.0,-101.0,-82.0,127.0,127.0,127.0,110.0,84.0,-50.0
127.0,127.0,122.0,117.0,128.0,107.0,127.0,129.0,21.0,-101.0,-82.0,127.0,127.0,127.0,110.0,84.0,-50.0
127.0,127.0,122.0,117.0,128.0,106.0,127.0,129.0,21.0,-101.0,-82.0,127.0,127.0,127.0,110.0,84.0,-50.0
127.0,127.0,122.0,117.0,128.0,106.0,127.0,129.0,21.0,-101.0,-82.0,127.0,127.0,127.0,110.0,84.0,-50.0
128.0,127.0,121.0,116.0,124.0,93.0,126.0,128.0,21.0,-102.0,-82.0,127.0,127.0,127.0,110.0,84.0,-50.0
127.0,126.0,122.0,114.0,125.0,98.0,126.0,128.0,21.0,-102.0,-82.0,127.0,127.0,127.0,110.0,84.0,-50.0
127.0,126.0,122.0,114.0,125.0,97.0,126.0,128.0,21.0,-102.0,-82.0,127.0,127.0,127.0,110.0,84.0,-50.0
127.0,126.0,122.0,114.0,125.0,96.0,126.0,128.0,21.0,-102.0,-82.0,127.0,127.0,127.0,110.0,84.0,-50.0
127.0,126.0,122.0,114.0,125.0,96.0,126.0,128.0,21.0,-102.0,-82.0,127.0,127.0,127.0,110.0,84.0,-50.0
127.0,126.0,121.0,114.0,125.0,96.0,126.0,128.0,21.0,-102.0,-82.0,127.0,127.0,127.0,110.0,84.0,-50.0
127.0,127.0,121.0,115.0,125.0,96.0,126.0,128.0,21.0,-102.0,-82.0,127.0,127.0,127.0,110.0,84.0,-50.0
128.0,127.0,121.0,115.0,125.0,96.0,126.0,128.0,21.0,-102.0,-82.0,127.0,127.0,127.0,110.0,84.0,-50.0
128.0,127.0,121.0,116.0,125.0,95.0,126.0,128.0,21.0,-102.0,-82.0,127.0,127.0,127.0,110.0,84.0,-50.0
128.0,127.0,121.0,116.0,125.0,94.0,126.0,128.0,21.0,-102.0,-82.0,127.0,127.0,127.0,110.0,84.0,-50.0
127.0,126.0,120.0,112.0,127.0,81.0,126.0,127.0,21.0,-101.0,-81.0,127.0,127.0,127.0,110.0,84.0,-50.0
127.0,126.0,121.0,112.0,127.0,80.0,126.0,127.0,21.0,-101.0,-81.0,127.0,127.0,127.0,110.0,84.0,-50.0
127.0,126.0,121.0,113.0,127.0,80.0,126.0,127.0,21.0,-101.0,-81.0,127.0,127.0,127.0,110.0,84.0,-50.0
127.0,126.0,121.0,114.0,127.0,80.0,126.0,127.0,21.0,-101.0,-81.0,127.0,127.0,127.0,110.0,84.0,-50.0
127.0,127.0,122.0,115.0,127.0,79.0,126.0,127.0,21.0,-101.0,-81.0,127.0,127.0,127.0,110.0,84.0,-50.0
127.0,127.0,121.0,116.0,127.0,81.0,126.0,128.0,21.0,-101.0,-81.0,127.0,127.0,127.0,110.0,84.0,-50.0
127.0,127.0,121.0,116.0,128.0,81.0,126.0,128.0,21.0,-101.0,-81.0,127.0,127.0,127.0,110.0,84.0,-50.0
127.0,127.0,121.0,117.0,128.0,80.0,127.0,128.0,21.0,-101.0,-81.0,127.0,127.0,127.0,110.0,84.0,-50.0
126.0,127.0,121.0,117.0,128.0,80.0,127.0,128.0,21.0,-101.0,-81.0,127.0,127.0,127.0,110.0,84.0,-50.0
126.0,127.0,121.0,118.0,128.0,79.0,127.0,128.0,21.0,-101.0,-81.0,127.0,127.0,127.0,110.0,84.0,-50.0
126.0,125.0,133.0,118.0,127.0,79.0,126.0,127.0,20.0,-101.0,-81.0,127.0,127.0,127.0,110.0,84.0,-50.0
126.0,125.0,133.0,118.0,126.0,79.0,126.0,127.0,20.0,-101.0,-81.0,127.0,127.0,127.0,110.0,84.0,-50.0
127.0,125.0,133.0,118.0,126.0,79.0,126.0,126.0,20.0,-101.0,-81.0,127.0,127.0,127.0,110.0,84.0,-50.0
127.0,125.0,133.0,118.0,126.0,78.0,126.0,127.0,20.0,-101.0,-81.0,127.0,127.0,127.0,110.0,84.0,-50.0
127.0,125.0,132.0,118.0,126.0,78.0,126.0,127.0,20.0,-101.0,-81.0,127.0,127.0,127.0,110.0,84.0,-50.0
127.0,125.0,132.0,118.0,126.0,78.0,126.0,127.0,20.0,-101.0,-81.0,127.0,127.0,127.0,110.0,84.0,-50.0
127.0,126.0,132.0,119.0,126.0,78.0,126.0,127.0,20.0,-101.0,-81.0,127.0,127.0,127.0,110.0,84.0,-50.0
127.0,126.0,131.0,119.0,126.0,78.0,126.0,127.0,20.0,-101.0,-81.0,127.0,127.0,127.0,110.0,84.0,-50.0
127.0,126.0,131.0,120.0,126.0,79.0,126.0,128.0,20.0,-101.0,-81.0,127.0,127.0,127.0,110.0,84.0,-50.0
126.0,125.0,133.0,118.0,127.0,79.0,126.0,127.0,20.0,-101.0,-81.0,127.0,127.0,127.0,110.0,84.0,-50.0
126.0,128.0,125.0,116.0,126.0,91.0,126.0,128.0,19.0,-100.0,-81.0,127.0,127.0,127.0,109.0,84.0,-50.0
126.0,127.0,126.0,116.0,126.0,91.0,126.0,128.0,19.0,-100.0,-81.0,127.0,127.0,127.0,109.0,84.0,-50.0
126.0,127.0,126.0,117.0,126.0,91.0,126.0,127.0,19.0,-100.0,-81.0,127.0,127.0,127.0,109.0,84.0,-50.0
126.0,126.0,126.0,117.0,126.0,91.0,127.0,127.0,19.0,-100.0,-81.0,127.0,127.0,127.0,109.0,84.0,-50.0
126.0,126.0,125.0,118.0,126.0,91.0,127.0,127.0,19.0,-100.0,-81.0,127.0,127.0,127.0,109.0,84.0,-50.0
126.0,126.0,125.0,118.0,126.0,91.0,127.0,127.0,19.0,-100.0,-81.0,127.0,127.0,127.0,109.0,84.0,-50.0
126.0,126.0,125.0,118.0,126.0,91.0,127.0,127.0,19.0,-100.0,-81.0,127.0,127.0,127.0,109.0,84.0,-50.0
126.0,126.0,124.0,118.0,127.0,91.0,127.0,127.0,19.0,-100.0,-81.0,127.0,127.0,127.0,109.0,84.0,-50.0
127.0,127.0,126.0,116.0,127.0,89.0,127.0,128.0,19.0,-100.0,-81.0,127.0,127.0,127.0,109.0,84.0,-50.0
127.0,128.0,126.0,116.0,126.0,89.0,127.0,128.0,19.0,-100.0,-81.0,127.0,127.0,127.0,109.0,84.0,-50.0
127.0,126.0,127.0,120.0,128.0,105.0,127.0,128.0,19.0,-101.0,-81.0,127.0,127.0,127.0,109.0,84.0,-50.0
127.0,126.0,127.0,120.0,128.0,105.0,127.0,127.0,19.0,-101.0,-81.0,127.0,127.0,127.0,109.0,84.0,-50.0
127.0,126.0,127.0,120.0,128.0,104.0,127.0,127.0,19.0,-101.0,-81.0,127.0,127.0,127.0,109.0,84.0,-50.0
127.0,126.0,127.0,119.0,128.0,104.0,127.0,127.0,19.0,-101.0,-81.0,127.0,127.0,127.0,109.0,84.0,-50.0
127.0,126.0,126.0,119.0,128.0,104.0,127.0,127.0,19.0,-101.0,-81.0,127.0,127.0,127.0,109.0,84.0,-50.0
127.0,126.0,126.0,119.0,128.0,104.0,127.0,127.0,19.0,-101.0,-81.0,127.0,127.0,127.0,109.0,84.0,-50.0
127.0,125.0,129.0,119.0,127.0,103.0,127.0,128.0,19.0,-101.0,-81.0,127.0,127.0,127.0,109.0,84.0,-50.0
127.0,126.0,128.0,120.0,127.0,103.0,127.0,128.0,19.0,-101.0,-81.0,127.0,127.0,127.0,109.0,84.0,-50.0
127.0,126.0,128.0,120.0,128.0,103.0,127.0,128.0,19.0,-101.0,-81.0,127.0,127.0,127.0,109.0,84.0,-50.0
127.0,126.0,127.0,120.0,128.0,104.0,126.0,128.0,19.0,-101.0,-81.0,127.0,127.0,127.0,109.0,84.0,-50.0
128.0,127.0,127.0,116.0,127.0,107.0,127.0,129.0,18.0,-101.0,-80.0,127.0,127.0,127.0,109.0,84.0,-50.0
127.0,127.0,127.0,116.0,127.0,107.0,127.0,129.0,18.0,-101.0,-80.0,127.0,127.0,127.0,109.0,84.0,-50.0
127.0,127.0,127.0,117.0,127.0,106.0,127.0,129.0,18.0,-101.0,-80.0,127.0,127.0,127.0,109.0,84.0,-50.0
127.0,127.0,127.0,117.0,127.0,106.0,127.0,128.0,18.0,-101.0,-80.0,127.0,127.0,127.0,109.0,84.0,-50.0
127.0,127.0,126.0,117.0,127.0,105.0,127.0,128.0,18.0,-101.0,-80.0,127.0,127.0,127.0,109.0,84.0,-50.0
127.0,126.0,128.0,115.0,126.0,107.0,127.0,129.0,18.0,-101.0,-80.0,127.0,127.0,127.0,109.0,84.0,-50.0
127.0,126.0,128.0,115.0,127.0,107.0,127.0,129.0,18.0,-101.0,-80.0,127.0,127.0,127.0,109.0,84.0,-50.0
128.0,126.0,128.0,115.0,127.0,107.0,127.0,130.0,18.0,-101.0,-80.0,127.0,127.0,127.0,109.0,84.0,-50.0
128.0,127.0,127.0,115.0,127.0,107.0,126.0,130.0,18.0,-101.0,-80.0,127.0,127.0,127.0,109.0,84.0,-50.0
128.0,127.0,127.0,116.0,127.0,108.0,127.0,130.0,18.0,-101.0,-80.0,127.0,127.0,127.0,109.0,84.0,-50.0
126.0,127.0,131.0,115.0,126.0,104.0,126.0,127.0,19.0,-101.0,-80.0,127.0,127.0,127.0,109.0,84.0,-50.0
126.0,127.0,132.0,116.0,126.0,103.0,126.0,127.0,19.0,-101.0,-80.0,127.0,127.0,127.0,109.0,84.0,-50.0
126.0,127.0,132.0,117.0,127.0,103.0,126.0,128.0,19.0,-101.0,-80.0,127.0,127.0,127.0,109.0,84.0,-50.0
126.0,127.0,132.0,117.0,127.0,103.0,127.0,128.0,19.0,-101.0,-80.0,127.0,127.0,127.0,109.0,84.0,-50.0
127.0,126.0,132.0,114.0,127.0,102.0,126.0,127.0,19.0,-101.0,-80.0,127.0,127.0,127.0,109.0,84.0,-50.0
126.0,126.0,132.0,113.0,127.0,102.0,126.0,127.0,19.0,-101.0,-80.0,127.0,127.0,127.0,109.0,84.0,-50.0
126.0,126.0,132.0,113.0,127.0,102.0,126.0,127.0,19.0,-101.0,-80.0,127.0,127.0,127.0,109.0,84.0,-50.0
126.0,126.0,131.0,112.0,126.0,103.0,126.0,127.0,19.0,-101.0,-80.0,127.0,127.0,127.0,109.0,84.0,-50.0
126.0,127.0,131.0,113.0,126.0,104.0,126.0,127.0,19.0,-101.0,-80.0,127.0,127.0,127.0,109.0,84.0,-50.0
126.0,127.0,131.0,113.0,126.0,104.0,126.0,127.0,19.0,-101.0,-80.0,127.0,127.0,127.0,109.0,84.0,-50.0
127.0,127.0,132.0,122.0,128.0,111.0,127.0,128.0,20.0,-101.0,-81.0,127.0,127.0,127.0,109.0,84.0,-50.0
127.0,127.0,132.0,122.0,128.0,111.0,128.0,128.0,20.0,-101.0,-81.0,127.0,127.0,127.0,109.0,84.0,-50.0
127.0,127.0,132.0,121.0,128.0,111.0,128.0,128.0,20.0,-101.0,-81.0,127.0,127.0,127.0,109.0,84.0,-50.0
126.0,128.0,131.0,119.0,127.0,111.0,127.0,128.0,20.0,-101.0,-81.0,127.0,127.0,127.0,109.0,84.0,-50.0
126.0,127.0,132.0,120.0,127.0,111.0,127.0,128.0,20.0,-101.0,-81.0,127.0,127.0,127.0,109.0,84.0,-50.0
126.0,127.0,132.0,121.0,127.0,111.0,127.0,128.0,20.0,-101.0,-81.0,127.0,127.0,127.0,109.0,84.0,-50.0
126.0,127.0,132.0,121.0,127.0,111.0,127.0,128.0,20.0,-101.0,-81.0,127.0,127.0,127.0,109.0,84.0,-50.0
126.0,127.0,132.0,122.0,127.0,111.0,127.0,128.0,20.0,-101.0,-81.0,127.0,127.0,127.0,109.0,84.0,-50.0
127.0,127.0,132.0,122.0,127.0,111.0,127.0,128.0,20.0,-101.0,-81.0,127.0,127.0,127.0,109.0,84.0,-50.0
126.0,127.0,132.0,122.0,128.0,111.0,127.0,128.0,20.0,-101.0,-81.0,127.0,127.0,127.0,109.0,84.0,-50.0
127.0,129.0,132.0,121.0,127.0,119.0,127.0,128.0,21.0,-101.0,-81.0,127.0,127.0,127.0,109.0,84.0,-50.0
127.0,128.0,131.0,121.0,127.0,118.0,127.0,128.0,21.0,-101.0,-81.0,127.0,127.0,127.0,109.0,84.0,-50.0
127.0,126.0,134.0,120.0,126.0,121.0,127.0,128.0,21.0,-101.0,-81.0,127.0,127.0,127.0,109.0,84.0,-50.0
127.0,126.0,134.0,121.0,126.0,121.0,127.0,128.0,21.0,-101.0,-81.0,127.0,127.0,127.0,109.0,84.0,-50.0
127.0,126.0,134.0,121.0,126.0,121.0,127.0,128.0,21.0,-101.0,-81.0,127.0,127.0,127.0,109.0,84.0,-50.0
127.0,127.0,134.0,121.0,126.0,121.0,127.0,128.0,21.0,-101.0,-81.0,127.0,127.0,127.0,109.0,84.0,-50.0
127.0,127.0,133.0,121.0,127.0,120.0,127.0,128.0,21.0,-101.0,-81.0,127.0,127.0,127.0,109.0,84.0,-50.0
127.0,127.0,133.0,121.0,127.0,120.0,127.0,128.0,21.0,-101.0,-81.0,127.0,127.0,127.0,109.0,84.0,-50.0
127.0,128.0,132.0,121.0,127.0,119.0,127.0,128.0,21.0,-101.0,-81.0,127.0,127.0,127.0,109.0,84.0,-50.0
127.0,128.0,132.0,121.0,127.0,119.0,127.0,128.0,21.0,-101.0,-81.0,127.0,127.0,127.0,109.0,84.0,-50.0
127.0,127.0,134.0,118.0,126.0,120.0,127.0,128.0,22.0,-102.0,-81.0,127.0,127.0,127.0,109.0,84.0,-50.0
126.0,126.0,134.0,118.0,126.0,123.0,126.0,128.0,22.0,-102.0,-81.0,127.0,127.0,127.0,109.0,84.0,-50.0
126.0,126.0,134.0,118.0,126.0,123.0,126.0,128.0,22.0,-102.0,-81.0,127.0,127.0,127.0,109.0,84.0,-50.0
127.0,126.0,134.0,118.0,126.0,123.0,126.0,128.0,22.0,-102.0,-81.0,127.0,127.0,127.0,109.0,84.0,-50.0
127.0,126.0,134.0,118.0,126.0,123.0,127.0,128.0,22.0,-102.0,-81.0,127.0,127.0,127.0,109.0,84.0,-50.0
127.0,126.0,134.0,118.0,126.0,122.0,127.0,128.0,22.0,-102.0,-81.0,127.0,127.0,127.0,109.0,84.0,-50.0
127.0,126.0,134.0,117.0,126.0,122.0,127.0,128.0,22.0,-102.0,-81.0,127.0,127.0,127.0,109.0,84.0,-50.0
127.0,126.0,134.0,117.0,126.0,121.0,127.0,128.0,22.0,-102.0,-81.0,127.0,127.0,127.0,109.0,84.0,-50.0
127.0,127.0,134.0,117.0,126.0,121.0,127.0,128.0,22.0,-102.0,-81.0,127.0,127.0,127.0,109.0,84.0,-50.0
127.0,127.0,134.0,118.0,126.0,121.0,127.0,128.0,22.0,-102.0,-81.0,127.0,127.0,127.0,109.0,84.0,-50.0
127.0,126.0,133.0,119.0,126.0,121.0,126.0,128.0,23.0,-102.0,-81.0,127.0,127.0,127.0,109.0,84.0,-50.0
127.0,126.0,132.0,121.0,126.0,123.0,126.0,128.0,23.0,-102.0,-81.0,127.0,127.0,127.0,109.0,84.0,-50.0
127.0,127.0,133.0,123.0,127.0,123.0,126.0,128.0,23.0,-102.0,-81.0,127.0,127.0,127.0,109.0,84.0,-50.0
127.0,127.0,133.0,124.0,127.0,122.0,126.0,128.0,23.0,-102.0,-81.0,127.0,127.0,127.0,109.0,84.0,-50.0
127.0,127.0,133.0,124.0,127.0,122.0,126.0,127.0,23.0,-102.0,-81.0,127.0,127.0,127.0,109.0,84.0,-50.0
127.0,127.0,132.0,124.0,127.0,121.0,126.0,127.0,23.0,-102.0,-81.0,127.0,127.0,127.0,109.0,84.0,-50.0
127.0,127.0,132.0,124.0,127.0,121.0,127.0,127.0,23.0,-102.0,-81.0,127.0,127.0,127.0,109.0,84.0,-50.0
127.0,128.0,131.0,124.0,127.0,122.0,127.0,128.0,23.0,-102.0,-81.0,127.0,127.0,127.0,109.0,84.0,-50.0
127.0,128.0,131.0,124.0,128.0,122.0,127.0,128.0,23.0,-102.0,-81.0,127.0,127.0,127.0,109.0,84.0,-50.0
127.0,128.0,131.0,124.0,128.0,122.0,127.0,128.0,23.0,-102.0,-81.0,127.0,127.0,127.0,109.0,84.0,-50.0
126.0,126.0,129.0,119.0,127.0,123.0,126.0,127.0,22.0,-102.0,-81.0,127.0,127.0,127.0,109.0,84.0,-50.0
126.0,126.0,129.0,120.0,127.0,123.0,126.0,127.0,22.0,-102.0,-81.0,127.0,127.0,127.0,109.0,84.0,-50.0
126.0,126.0,129.0,120.0,127.0,123.0,126.0,127.0,22.0,-102.0,-81.0,127.0,127.0,127.0,109.0,84.0,-50.0
127.0,126.0,129.0,120.0,127.0,122.0,126.0,128.0,22.0,-102.0,-81.0,127.0,127.0,127.0,109.0,84.0,-50.0
127.0,126.0,129.0,120.0,127.0,122.0,126.0,128.0,22.0,-102.0,-81.0,127.0,127.0,127.0,109.0,84.0,-50.0
127.0,126.0,129.0,120.0,127.0,122.0,126.0,129.0,22.0,-102.0,-81.0,127.0,127.0,127.0,109.0,84.0,-50.0
127.0,127.0,128.0,120.0,127.0,123.0,126.0,129.0,22.0,-102.0,-81.0,127.0,127.0,127.0,109.0,84.0,-50.0
127.0,127.0,128.0,120.0,127.0,124.0,127.0,129.0,22.0,-102.0,-81.0,127.0,127.0,127.0,109.0,84.0,-50.0
127.0,127.0,128.0,120.0,127.0,123.0,127.0,129.0,22.0,-102.0,-81.0,127.0,127.0,127.0,109.0,84.0,-50.0
126.0,126.0,129.0,119.0,127.0,121.0,126.0,126.0,22.0,-102.0,-81.0,127.0,127.0,127.0,109.0,84.0,-50.0
127.0,126.0,129.0,116.0,127.0,126.0,126.0,128.0,21.0,-102.0,-81.0,127.0,127.0,127.0,109.0,84.0,-50.0
127.0,126.0,129.0,116.0,127.0,126.0,126.0,128.0,21.0,-102.0,-81.0,127.0,127.0,127.0,109.0,84.0,-50.0
127.0,126.0,129.0,116.0,127.0,126.0,126.0,128.0,21.0,-102.0,-81.0,127.0,127.0,127.0,109.0,84.0,-50.0
127.0,126.0,129.0,117.0,128.0,125.0,126.0,128.0,21.0,-102.0,-81.0,127.0,127.0,127.0,109.0,84.0,-50.0
127.0,126.0,129.0,118.0,128.0,125.0,126.0,128.0,21.0,-102.0,-81.0,127.0,127.0,127.0,109.0,84.0,-50.0
127.0,127.0,128.0,119.0,128.0,126.0,126.0,128.0,21.0,-102.0,-81.0,127.0,127.0,127.0,109.0,84.0,-50.0
127.0,127.0,128.0,121.0,128.0,127.0,126.0,128.0,21.0,-102.0,-81.0,127.0,127.0,127.0,109.0,84.0,-50.0
127.0,127.0,127.0,122.0,128.0,126.0,127.0,128.0,21.0,-102.0,-81.0,127.0,127.0,127.0,109.0,84.0,-50.0
127.0,126.0,129.0,117.0,127.0,124.0,126.0,128.0,21.0,-102.0,-81.0,127.0,127.0,127.0,109.0,84.0,-50.0
127.0,126.0,129.0,116.0,127.0,126.0,126.0,128.0,21.0,-102.0,-81.0,127.0,127.0,127.0,109.0,84.0,-50.0
127.0,127.0,128.0,120.0,127.0,127.0,126.0,128.0,20.0,-102.0,-80.0,127.0,127.0,127.0,109.0,84.0,-50.0
127.0,127.0,128.0,120.0,127.0,126.0,126.0,128.0,20.0,-102.0,-80.0,127.0,127.0,127.0,109.0,84.0,-50.0
127.0,127.0,128.0,121.0,127.0,126.0,126.0,128.0,20.0,-102.0,-80.0,127.0,127.0,127.0,109.0,84.0,-50.0
127.0,126.0,127.0,121.0,127.0,126.0,126.0,128.0,20.0,-102.0,-80.0,127.0,127.0,127.0,109.0,84.0,-50.0
127.0,126.0,127.0,120.0,127.0,126.0,126.0,128.0,20.0,-102.0,-80.0,127.0,127.0,127.0,109.0,84.0,-50.0
127.0,126.0,126.0,121.0,127.0,127.0,126.0,128.0,20.0,-102.0,-80.0,127.0,127.0,127.0,109.0,84.0,-50.0
127.0,127.0,126.0,120.0,127.0,127.0,126.0,128.0,20.0,-102.0,-80.0,127.0,127.0,127.0,109.0,84.0,-50.0
127.0,126.0,129.0,120.0,126.0,125.0,126.0,128.0,20.0,-102.0,-80.0,127.0,127.0,127.0,109.0,84.0,-50.0
127.0,127.0,129.0,120.0,127.0,126.0,126.0,128.0,20.0,-102.0,-80.0,127.0,127.0,127.0,109.0,84.0,-50.0
127.0,127.0,128.0,120.0,127.0,127.0,126.0,128.0,20.0,-102.0,-80.0,127.0,127.0,127.0,109.0,84.0,-50.0
126.0,126.0,126.0,120.0,127.0,126.0,127.0,128.0,19.0,-102.0,-80.0,127.0,127.0,127.0,109.0,84.0,-50.0
126.0,126.0,125.0,120.0,127.0,126.0,127.0,128.0,19.0,-102.0,-80.0,127.0,127.0,127.0,109.0,84.0,-50.0
126.0,126.0,125.0,120.0,127.0,126.0,127.0,128.0,19.0,-102.0,-80.0,127.0,127.0,127.0,109.0,84.0,-50.0
126.0,126.0,125.0,120.0,127.0,125.0,127.0,128.0,19.0,-102.0,-80.0,127.0,127.0,127.0,109.0,84.0,-50.0
126.0,126.0,125.0,120.0,127.0,125.0,127.0,128.0,19.0,-102.0,-80.0,127.0,127.0,127.0,109.0,84.0,-50.0
126.0,126.0,125.0,120.0,127.0,124.0,127.0,128.0,19.0,-102.0,-80.0,127.0,127.0,127.0,109.0,84.0,-50.0
127.0,125.0,127.0,120.0,127.0,125.0,127.0,128.0,19.0,-102.0,-80.0,127.0,127.0,127.0,109.0,84.0,-50.0
126.0,126.0,127.0,120.0,127.0,126.0,126.0,128.0,19.0,-102.0,-80.0,127.0,127.0,127.0,109.0,84.0,-50.0
126.0,126.0,126.0,120.0,127.0,127.0,126.0,128.0,19.0,-102.0,-80.0,127.0,127.0,127.0,109.0,84.0,-50.0
126.0,126.0,126.0,120.0,127.0,127.0,126.0,128.0,19.0,-102.0,-80.0,127.0,127.0,127.0,109.0,84.0,-50.0
127.0,127.0,125.0,121.0,127.0,127.0,127.0,128.0,18.0,-102.0,-80.0,127.0,127.0,127.0,109.0,84.0,-50.0
127.0,127.0,125.0,121.0,127.0,127.0,127.0,128.0,18.0,-102.0,-80.0,127.0,127.0,127.0,109.0,84.0,-50.0
127.0,127.0,125.0,121.0,127.0,126.0,127.0,128.0,18.0,-102.0,-80.0,127.0,127.0,127.0,109.0,84.0,-50.0
127.0,127.0,125.0,121.0,127.0,125.0,127.0,128.0,18.0,-102.0,-80.0,127.0,127.0,127.0,109.0,84.0,-50.0
127.0,127.0,125.0,122.0,127.0,125.0,127.0,128.0,18.0,-102.0,-80.0,127.0,127.0,127.0,109.0,84.0,-50.0
127.0,126.0,126.0,121.0,127.0,126.0,126.0,128.0,18.0,-102.0,-80.0,127.0,127.0,127.0,109.0,84.0,-50.0
127.0,127.0,125.0,121.0,127.0,127.0,126.0,128.0,18.0,-102.0,-80.0,127.0,127.0,127.0,109.0,84.0,-50.0
127.0,127.0,125.0,121.0,127.0,127.0,126.0,128.0,18.0,-102.0,-80.0,127.0,127.0,127.0,109.0,84.0,-50.0
127.0,127.0,125.0,121.0,127.0,127.0,126.0,128.0,18.0,-102.0,-80.0,127.0,127.0,127.0,109.0,84.0,-50.0
127.0,127.0,125.0,121.0,127.0,127.0,127.0,128.0,18.0,-102.0,-80.0,127.0,127.0,127.0,109.0,84.0,-50.0
127.0,127.0,127.0,127.0,128.0,126.0,127.0,128.0,18.0,-102.0,-80.0,127.0,127.0,127.0,109.0,84.0,-50.0
127.0,127.0,127.0,127.0,128.0,125.0,127.0,128.0,18.0,-102.0,-80.0,127.0,127.0,127.0,109.0,84.0,-50.0
127.0,127.0,127.0,126.0,128.0,125.0,127.0,128.0,18.0,-102.0,-80.0,127.0,127.0,127.0,109.0,84.0,-50.0
127.0,127.0,127.0,126.0,128.0,124.0,127.0,128.0,18.0,-102.0,-80.0,127.0,127.0,127.0,109.0,84.0,-50.0
127.0,126.0,128.0,124.0,127.0,126.0,126.0,128.0,18.0,-102.0,-80.0,127.0,127.0,127.0,109.0,84.0,-50.0
127.0,126.0,128.0,125.0,127.0,126.0,126.0,127.0,18.0,-102.0,-80.0,127.0,127.0,127.0,109.0,84.0,-50.0
127.0,126.0,128.0,126.0,127.0,127.0,126.0,128.0,18.0,-102.0,-80.0,127.0,127.0,127.0,109.0,84.0,-50.0
127.0,126.0,128.0,127.0,128.0,127.0,126.0,128.0,18.0,-102.0,-80.0,127.0,127.0,127.0,109.0,84.0,-50.0
127.0,127.0,128.0,127.0,128.0,127.0,126.0,128.0,18.0,-102.0,-80.0,127.0,127.0,127.0,109.0,84.0,-50.0
127.0,127.0,128.0,127.0,128.0,126.0,127.0,128.0,18.0,-102.0,-80.0,127.0,127.0,127.0,109.0,84.0,-50.0
127.0,127.0,129.0,122.0,127.0,125.0,127.0,128.0,18.0,-102.0,-80.0,127.0,127.0,127.0,109.0,84.0,-50.0
127.0,127.0,128.0,122.0,127.0,125.0,127.0,128.0,18.0,-102.0,-80.0,127.0,127.0,127.0,109.0,84.0,-50.0
127.0,127.0,128.0,122.0,127.0,124.0,127.0,128.0,18.0,-102.0,-80.0,127.0,127.0,127.0,109.0,84.0,-50.0
127.0,127.0,129.0,120.0,127.0,125.0,127.0,128.0,18.0,-102.0,-80.0,127.0,127.0,127.0,109.0,84.0,-50.0
127.0,127.0,129.0,120.0,127.0,125.0,127.0,128.0,18.0,-102.0,-80.0,127.0,127.0,127.0,109.0,84.0,-50.0
127.0,127.0,129.0,120.0,127.0,126.0,127.0,128.0,18.0,-102.0,-80.0,127.0,127.0,127.0,109.0,84.0,-50.0
127.0,127.0,129.0,121.0,127.0,126.0,127.0,128.0,18.0,-102.0,-80.0,127.0,127.0,127.0,109.0,84.0,-50.0
127.0,127.0,129.0,121.0,127.0,126.0,127.0,128.0,18.0,-102.0,-80.0,127.0,127.0,127.0,109.0,84.0,-50.0
127.0,127.0,129.0,121.0,127.0,126.0,127.0,128.0,18.0,-102.0,-80.0,127.0,127.0,127.0,109.0,84.0,-50.0
127.0,127.0,129.0,121.0,127.0,126.0,127.0,128.0,18.0,-102.0,-80.0,127.0,127.0,127.0,109.0,84.0,-50.0
127.0,127.0,127.0,122.0,127.0,124.0,127.0,128.0,19.0,-102.0,-81.0,127.0,127.0,127.0,109.0,84.0,-50.0
127.0,126.0,129.0,121.0,126.0,124.0,127.0,128.0,19.0,-102.0,-81.0,127.0,127.0,127.0,109.0,84.0,-50.0
127.0,126.0,128.0,121.0,126.0,124.0,127.0,128.0,19.0,-102.0,-81.0,127.0,127.0,127.0,109.0,84.0,-50.0
127.0,126.0,128.0,121.0,127.0,124.0,127.0,128.0,19.0,-102.0,-81.0,127.0,127.0,127.0,109.0,84.0,-50.0
127.0,126.0,128.0,121.0,126.0,123.0,127.0,128.0,19.0,-102.0,-81.0,127.0,127.0,127.0,109.0,84.0,-50.0
127.0,126.0,128.0,121.0,127.0,124.0,127.0,128.0,19.0,-102.0,-81.0,127.0,127.0,127.0,109.0,84.0,-50.0
127.0,127.0,128.0,122.0,127.0,124.0,127.0,128.0,19.0,-102.0,-81.0,127.0,127.0,127.0,109.0,84.0,-50.0
127.0,127.0,127.0,122.0,127.0,125.0,127.0,128.0,19.0,-102.0,-81.0,127.0,127.0,127.0,109.0,84.0,-50.0
127.0,127.0,127.0,122.0,127.0,125.0,127.0,128.0,19.0,-102.0,-81.0,127.0,127.0,127.0,109.0,84.0,-50.0
127.0,127.0,127.0,122.0,127.0,125.0,127.0,128.0,19.0,-102.0,-81.0,127.0,127.0,127.0,109.0,84.0,-50.0
127.0,126.0,130.0,119.0,126.0,127.0,126.0,128.0,20.0,-102.0,-81.0,127.0,127.0,127.0,109.0,84.0,-50.0
127.0,126.0,130.0,120.0,126.0,127.0,126.0,128.0,20.0,-102.0,-81.0,127.0,127.0,127.0,109.0,84.0,-50.0
127.0,126.0,130.0,121.0,126.0,127.0,126.0,128.0,20.0,-102.0,-81.0,127.0,127.0,127.0,109.0,84.0,-50.0
127.0,126.0,130.0,121.0,126.0,126.0,126.0,128.0,20.0,-102.0,-81.0,127.0,127.0,127.0,109.0,84.0,-50.0
127.0,127.0,130.0,122.0,126.0,126.0,127.0,128.0,20.0,-102.0,-81.0,127.0,127.0,127.0,109.0,84.0,-50.0
127.0,127.0,130.0,122.0,126.0,126.0,127.0,128.0,20.0,-102.0,-81.0,127.0,127.0,127.0,109.0,84.0,-50.0
127.0,127.0,130.0,122.0,126.0,125.0,127.0,128.0,20.0,-102.0,-81.0,127.0,127.0,127.0,109.0,84.0,-50.0
127.0,127.0,130.0,122.0,126.0,125.0,127.0,128.0,20.0,-102.0,-81.0,127.0,127.0,127.0,109.0,84.0,-50.0
127.0,126.0,130.0,122.0,127.0,125.0,127.0,128.0,20.0,-102.0,-81.0,127.0,127.0,127.0,109.0,84.0,-50.0
127.0,126.0,130.0,122.0,127.0,124.0,127.0,128.0,20.0,-102.0,-81.0,127.0,127.0,127.0,109.0,84.0,-50.0
127.0,126.0,131.0,122.0,127.0,129.0,126.0,128.0,21.0,-102.0,-81.0,127.0,127.0,127.0,109.0,84.0,-50.0
127.0,126.0,130.0,122.0,127.0,129.0,126.0,128.0,21.0,-102.0,-81.0,127.0,127.0,127.0,109.0,84.0,-50.0
127.0,126.0,130.0,122.0,127.0,129.0,126.0,128.0,21.0,-102.0,-81.0,127.0,127.0,127.0,109.0,84.0,-50.0
127.0,126.0,130.0,122.0,127.0,129.0,126.0,128.0,21.0,-102.0,-81.0,127.0,127.0,127.0,109.0,84.0,-50.0
127.0,126.0,130.0,122.0,127.0,129.0,127.0,128.0,21.0,-102.0,-81.0,127.0,127.0,127.0,109.0,84.0,-50.0
127.0,126.0,130.0,122.0,127.0,128.0,127.0,128.0,21.0,-102.0,-81.0,127.0,127.0,127.0,109.0,84.0,-50.0
127.0,126.0,130.0,122.0,127.0,128.0,127.0,128.0,21.0,-102.0,-81.0,127.0,127.0,127.0,109.0,84.0,-50.0
127.0,126.0,130.0,122.0,127.0,128.0,127.0,128.0,21.0,-102.0,-81.0,127.0,127.0,127.0,109.0,84.0,-50.0
127.0,126.0,129.0,122.0,127.0,127.0,127.0,128.0,21.0,-102.0,-81.0,127.0,127.0,127.0,109.0,84.0,-50.0
127.0,126.0,131.0,122.0,127.0,129.0,126.0,128.0,21.0,-102.0,-81.0,127.0,127.0,127.0,109.0,84.0,-50.0
127.0,127.0,127.0,122.0,127.0,131.0,126.0,128.0,22.0,-102.0,-81.0,127.0,127.0,127.0,109.0,84.0,-50.0
127.0,127.0,127.0,122.0,127.0,130.0,127.0,128.0,22.0,-102.0,-81.0,127.0,127.0,127.0,109.0,84.0,-50.0
127.0,127.0,127.0,122.0,127.0,130.0,127.0,128.0,22.0,-102.0,-81.0,127.0,127.0,127.0,109.0,84.0,-50.0
127.0,127.0,126.0,122.0,127.0,130.0,127.0,128.0,22.0,-102.0,-81.0,127.0,127.0,127.0,109.0,84.0,-50.0
127.0,127.0,126.0,122.0,127.0,130.0,127.0,128.0,22.0,-102.0,-81.0,127.0,127.0,127.0,109.0,84.0,-50.0
127.0,127.0,126.0,122.0,127.0,129.0,127.0,128.0,22.0,-102.0,-81.0,127.0,127.0,127.0,109.0,84.0,-50.0
127.0,127.0,126.0,122.0,127.0,129.0,127.0,128.0,22.0,-102.0,-81.0,127.0,127.0,127.0,109.0,84.0,-50.0
127.0,127.0,126.0,122.0,127.0,128.0,127.0,128.0,22.0,-102.0,-81.0,127.0,127.0,127.0,109.0,84.0,-50.0
127.0,126.0,127.0,123.0,127.0,131.0,126.0,128.0,22.0,-102.0,-81.0,127.0,127.0,127.0,109.0,84.0,-50.0
127.0,126.0,127.0,123.0,127.0,131.0,126.0,128.0,22.0,-102.0,-81.0,127.0,127.0,127.0,109.0,84.0,-50.0
127.0,126.0,126.0,125.0,127.0,126.0,127.0,128.0,21.0,-103.0,-81.0,127.0,127.0,127.0,109.0,84.0,-50.0
127.0,126.0,126.0,124.0,127.0,125.0,127.0,128.0,21.0,-103.0,-81.0,127.0,127.0,127.0,109.0,84.0,-50.0
127.0,126.0,126.0,124.0,127.0,125.0,127.0,128.0,21.0,-103.0,-81.0,127.0,127.0,127.0,109.0,84.0,-50.0
127.0,126.0,126.0,124.0,127.0,126.0,127.0,128.0,21.0,-103.0,-81.0,127.0,127.0,127.0,109.0,84.0,-50.0
127.0,127.0,125.0,125.0,127.0,127.0,127.0,128.0,21.0,-103.0,-81.0,127.0,127.0,127.0,109.0,84.0,-50.0
127.0,127.0,126.0,125.0,127.0,127.0,127.0,128.0,21.0,-103.0,-81.0,127.0,127.0,127.0,109.0,84.0,-50.0
127.0,127.0,126.0,125.0,127.0,126.0,127.0,128.0,21.0,-103.0,-81.0,127.0,127.0,127.0,109.0,84.0,-50.0
127.0,126.0,127.0,125.0,127.0,126.0,126.0,128.0,21.0,-103.0,-81.0,127.0,127.0,127.0,109.0,84.0,-50.0
127.0,126.0,126.0,125.0,127.0,126.0,127.0,128.0,21.0,-103.0,-81.0,127.0,127.0,127.0,109.0,84.0,-50.0
127.0,126.0,126.0,125.0,127.0,126.0,127.0,128.0,21.0,-103.0,-81.0,127.0,127.0,127.0,109.0,84.0,-50.0
127.0,126.0,128.0,126.0,126.0,129.0,126.0,128.0,21.0,-103.0,-81.0,127.0,127.0,127.0,109.0,84.0,-50.0
127.0,126.0,128.0,125.0,126.0,129.0,126.0,128.0,21.0,-103.0,-81.0,127.0,127.0,127.0,109.0,84.0,-50.0
127.0,126.0,128.0,125.0,126.0,128.0,126.0,128.0,21.0,-103.0,-81.0,127.0,127.0,127.0,109.0,84.0,-50.0
127.0,126.0,128.0,125.0,126.0,128.0,126.0,128.0,21.0,-103.0,-81.0,127.0,127.0,127.0,109.0,84.0,-50.0
127.0,126.0,128.0,125.0,126.0,127.0,126.0,128.0,21.0,-103.0,-81.0,127.0,127.0,127.0,109.0,84.0,-50.0
127.0,126.0,128.0,125.0,127.0,127.0,126.0,128.0,21.0,-103.0,-81.0,127.0,127.0,127.0,109.0,84.0,-50.0
127.0,126.0,129.0,126.0,126.0,129.0,126.0,128.0,21.0,-103.0,-81.0,127.0,127.0,127.0,109.0,84.0,-50.0
127.0,126.0,129.0,126.0,126.0,129.0,126.0,128.0,21.0,-103.0,-81.0,127.0,127.0,127.0,109.0,84.0,-50.0
127.0,126.0,128.0,126.0,126.0,129.0,126.0,128.0,21.0,-103.0,-81.0,127.0,127.0,127.0,109.0,84.0,-50.0
127.0,126.0,128.0,126.0,126.0,129.0,126.0,128.0,21.0,-103.0,-81.0,127.0,127.0,127.0,109.0,84.0,-50.0
127.0,126.0,130.0,125.0,127.0,128.0,126.0,128.0,20.0,-103.0,-80.0,127.0,127.0,127.0,109.0,84.0,-50.0
127.0,126.0,130.0,125.0,127.0,127.0,126.0,128.0,20.0,-103.0,-80.0,127.0,127.0,127.0,109.0,84.0,-50.0
127.0,126.0,130.0,125.0,127.0,127.0,126.0,128.0,20.0,-103.0,-80.0,127.0,127.0,127.0,109.0,84.0,-50.0
127.0,126.0,130.0,125.0,127.0,126.0,126.0,128.0,20.0,-103.0,-80.0,127.0,127.0,127.0,109.0,84.0,-50.0
127.0,126.0,129.0,125.0,127.0,126.0,126.0,128.0,20.0,-103.0,-80.0,127.0,127.0,127.0,109.0,84.0,-50.0
127.0,126.0,131.0,124.0,127.0,127.0,126.0,128.0,20.0,-103.0,-80.0,127.0,127.0,127.0,109.0,84.0,-50.0
127.0,126.0,130.0,124.0,127.0,128.0,126.0,128.0,20.0,-103.0,-80.0,127.0,127.0,127.0,109.0,84.0,-50.0
127.0,126.0,130.0,124.0,127.0,128.0,126.0,128.0,20.0,-103.0,-80.0,127.0,127.0,127.0,109.0,84.0,-50.0
127.0,126.0,130.0,124.0,127.0,128.0,126.0,128.0,20.0,-103.0,-80.0,127.0,127.0,127.0,109.0,84.0,-50.0
127.0,126.0,130.0,124.0,127.0,128.0,126.0,128.0,20.0,-103.0,-80.0,127.0,127.0,127.0,109.0,84.0,-50.0
126.0,126.0,130.0,126.0,127.0,127.0,126.0,128.0,19.0,-103.0,-80.0,127.0,127.0,127.0,109.0,84.0,-50.0
126.0,126.0,130.0,126.0,127.0,126.0,127.0,128.0,19.0,-103.0,-80.0,127.0,127.0,127.0,109.0,84.0,-50.0
126.0,126.0,130.0,127.0,127.0,126.0,127.0,128.0,19.0,-103.0,-80.0,127.0,127.0,127.0,109.0,84.0,-50.0
126.0,126.0,130.0,127.0,127.0,126.0,127.0,128.0,19.0,-103.0,-80.0,127.0,127.0,127.0,109.0,84.0,-50.0
126.0,126.0,130.0,125.0,127.0,127.0,126.0,128.0,19.0,-103.0,-80.0,127.0,127.0,127.0,109.0,84.0,-50.0
126.0,126.0,130.0,126.0,127.0,128.0,126.0,128.0,19.0,-103.0,-80.0,127.0,127.0,127.0,109.0,84.0,-50.0
126.0,126.0,130.0,126.0,127.0,128.0,126.0,128.0,19.0,-103.0,-80.0,127.0,127.0,127.0,109.0,84.0,-50.0
126.0,126.0,130.0,126.0,127.0,128.0,126.0,128.0,19.0,-103.0,-80.0,127.0,127.0,127.0,109.0,84.0,-50.0
126.0,126.0,130.0,126.0,127.0,127.0,126.0,128.0,19.0,-103.0,-80.0,127.0,127.0,127.0,109.0,84.0,-50.0
126.0,127.0,130.0,126.0,127.0,127.0,126.0,128.0,19.0,-103.0,-80.0,127.0,127.0,127.0,109.0,84.0,-50.0
126.0,127.0,131.0,128.0,127.0,125.0,126.0,128.0,18.0,-103.0,-79.0,127.0,127.0,127.0,109.0,84.0,-50.0
126.0,127.0,130.0,128.0,127.0,125.0,126.0,128.0,18.0,-103.0,-79.0,127.0,127.0,127.0,109.0,84.0,-50.0
126.0,127.0,130.0,128.0,127.0,125.0,127.0,128.0,18.0,-103.0,-79.0,127.0,127.0,127.0,109.0,84.0,-50.0
127.0,126.0,132.0,129.0,127.0,124.0,126.0,128.0,18.0,-103.0,-79.0,127.0,127.0,127.0,109.0,84.0,-50.0
127.0,126.0,132.0,129.0,127.0,124.0,126.0,128.0,18.0,-103.0,-79.0,127.0,127.0,127.0,109.0,84.0,-50.0
127.0,126.0,132.0,128.0,127.0,124.0,126.0,128.0,18.0,-103.0,-79.0,127.0,127.0,127.0,109.0,84.0,-50.0
127.0,126.0,132.0,128.0,127.0,124.0,126.0,128.0,18.0,-103.0,-79.0,127.0,127.0,127.0,109.0,84.0,-50.0
126.0,126.0,132.0,128.0,127.0,123.0,126.0,128.0,18.0,-103.0,-79.0,127.0,127.0,127.0,109.0,84.0,-50.0
126.0,126.0,131.0,128.0,127.0,124.0,126.0,128.0,18.0,-103.0,-79.0,127.0,127.0,127.0,109.0,84.0,-50.0
126.0,126.0,131.0,128.0,127.0,124.0,126.0,128.0,18.0,-103.0,-79.0,127.0,127.0,127.0,109.0,84.0,-50.0
127.0,127.0,129.0,126.0,127.0,123.0,127.0,128.0,18.0,-104.0,-79.0,127.0,127.0,127.0,109.0,84.0,-50.0
127.0,127.0,128.0,126.0,127.0,123.0,127.0,128.0,18.0,-104.0,-79.0,127.0,127.0,127.0,109.0,84.0,-50.0
127.0,126.0,129.0,125.0,127.0,124.0,126.0,128.0,18.0,-104.0,-79.0,127.0,127.0,127.0,109.0,84.0,-50.0
127.0,127.0,129.0,125.0,127.0,125.0,126.0,128.0,18.0,-104.0,-79.0,127.0,127.0,127.0,109.0,84.0,-50.0
127.0,127.0,129.0,125.0,127.0,125.0,126.0,128.0,18.0,-104.0,-79.0,127.0,127.0,127.0,109.0,84.0,-50.0
127.0,127.0,129.0,126.0,127.0,125.0,127.0,128.0,18.0,-104.0,-79.0,127.0,127.0,127.0,109.0,84.0,-50.0
127.0,127.0,129.0,126.0,127.0,125.0,127.0,128.0,18.0,-104.0,-79.0,127.0,127.0,127.0,109.0,84.0,-50.0
127.0,127.0,129.0,126.0,127.0,124.0,127.0,128.0,18.0,-104.0,-79.0,127.0,127.0,127.0,109.0,84.0,-50.0
127.0,127.0,129.0,126.0,127.0,124.0,127.0,128.0,18.0,-104.0,-79.0,127.0,127.0,127.0,109.0,84.0,-50.0
127.0,127.0,129.0,126.0,127.0,124.0,127.0,128.0,18.0,-104.0,-79.0,127.0,127.0,127.0,109.0,84.0,-50.0
127.0,127.0,125.0,128.0,127.0,123.0,127.0,128.0,18.0,-104.0,-79.0,127.0,127.0,127.0,109.0,84.0,-50.0
127.0,127.0,126.0,125.0,127.0,125.0,126.0,128.0,18.0,-104.0,-79.0,127.0,127.0,127.0,109.0,84.0,-50.0
127.0,127.0,126.0,125.0,127.0,126.0,126.0,128.0,18.0,-104.0,-79.0,127.0,127.0,127.0,109.0,84.0,-50.0
127.0,127.0,125.0,125.0,127.0,126.0,126.0,128.0,18.0,-104.0,-79.0,127.0,127.0,127.0,109.0,84.0,-50.0
127.0,127.0,125.0,126.0,127.0,126.0,126.0,128.0,18.0,-104.0,-79.0,127.0,127.0,127.0,109.0,84.0,-50.0
127.0,127.0,125.0,126.0,127.0,125.0,126.0,128.0,18.0,-104.0,-79.0,127.0,127.0,127.0,109.0,84.0,-50.0
127.0,127.0,125.0,126.0,127.0,125.0,126.0,128.0,18.0,-104.0,-79.0,127.0,127.0,127.0,109.0,84.0,-50.0
127.0,127.0,125.0,127.0,127.0,125.0,126.0,128.0,18.0,-104.0,-79.0,127.0,127.0,127.0,109.0,84.0,-50.0
127.0,127.0,125.0,127.0,127.0,124.0,127.0,128.0,18.0,-104.0,-79.0,127.0,127.0,127.0,109.0,84.0,-50.0
127.0,127.0,125.0,128.0,127.0,124.0,127.0,128.0,18.0,-104.0,-79.0,127.0,127.0,127.0,109.0,84.0,-50.0
127.0,126.0,117.0,126.0,126.0,122.0,126.0,128.0,19.0,-104.0,-79.0,127.0,127.0,127.0,109.0,84.0,-50.0
126.0,126.0,117.0,127.0,127.0,121.0,126.0,128.0,19.0,-104.0,-79.0,127.0,127.0,127.0,109.0,84.0,-50.0
126.0,126.0,117.0,127.0,127.0,122.0,126.0,128.0,19.0,-104.0,-79.0,127.0,127.0,127.0,109.0,84.0,-50.0
126.0,127.0,117.0,127.0,127.0,121.0,126.0,128.0,19.0,-104.0,-79.0,127.0,127.0,127.0,109.0,84.0,-50.0
126.0,127.0,117.0,127.0,127.0,121.0,127.0,128.0,19.0,-104.0,-79.0,127.0,127.0,127.0,109.0,84.0,-50.0
126.0,127.0,117.0,128.0,127.0,121.0,127.0,128.0,19.0,-104.0,-79.0,127.0,127.0,127.0,109.0,84.0,-50.0
127.0,127.0,117.0,128.0,127.0,121.0,127.0,127.0,19.0,-104.0,-79.0,127.0,127.0,127.0,109.0,84.0,-50.0
126.0,127.0,117.0,128.0,127.0,121.0,126.0,128.0,19.0,-104.0,-79.0,127.0,127.0,127.0,109.0,84.0,-50.0
126.0,128.0,116.0,128.0,127.0,122.0,126.0,128.0,19.0,-104.0,-79.0,127.0,127.0,127.0,109.0,84.0,-50.0
126.0,128.0,116.0,128.0,127.0,122.0,126.0,128.0,19.0,-104.0,-79.0,127.0,127.0,127.0,109.0,84.0,-50.0
126.0,127.0,122.0,128.0,126.0,122.0,126.0,128.0,21.0,-104.0,-79.0,127.0,127.0,127.0,109.0,84.0,-50.0
126.0,128.0,122.0,128.0,127.0,122.0,126.0,128.0,21.0,-104.0,-79.0,127.0,127.0,127.0,109.0,84.0,-50.0
126.0,127.0,121.0,128.0,127.0,122.0,126.0,128.0,21.0,-104.0,-79.0,127.0,127.0,127.0,109.0,84.0,-50.0
126.0,127.0,121.0,128.0,126.0,122.0,126.0,128.0,21.0,-104.0,-79.0,127.0,127.0,127.0,109.0,84.0,-50.0
126.0,128.0,120.0,128.0,127.0,122.0,126.0,128.0,21.0,-104.0,-79.0,127.0,127.0,127.0,109.0,84.0,-50.0
126.0,128.0,119.0,128.0,127.0,122.0,126.0,128.0,21.0,-104.0,-79.0,127.0,127.0,127.0,109.0,84.0,-50.0
126.0,128.0,119.0,128.0,127.0,121.0,127.0,128.0,21.0,-104.0,-79.0,127.0,127.0,127.0,109.0,84.0,-50.0
126.0,128.0,118.0,128.0,127.0,121.0,127.0,128.0,21.0,-104.0,-79.0,127.0,127.0,127.0,109.0,84.0,-50.0
127.0,128.0,118.0,128.0,127.0,120.0,127.0,128.0,21.0,-104.0,-79.0,127.0,127.0,127.0,109.0,84.0,-50.0
126.0,127.0,123.0,128.0,126.0,121.0,126.0,128.0,21.0,-104.0,-79.0,127.0,127.0,127.0,109.0,84.0,-50.0
127.0,127.0,83.0,130.0,126.0,122.0,126.0,128.0,22.0,-104.0,-79.0,127.0,127.0,127.0,109.0,84.0,-50.0
127.0,127.0,83.0,130.0,126.0,122.0,126.0,128.0,22.0,-104.0,-79.0,127.0,127.0,127.0,109.0,84.0,-50.0
127.0,127.0,83.0,130.0,126.0,122.0,126.0,128.0,22.0,-104.0,-79.0,127.0,127.0,127.0,109.0,84.0,-50.0
127.0,127.0,83.0,130.0,127.0,121.0,126.0,128.0,22.0,-104.0,-79.0,127.0,127.0,127.0,109.0,84.0,-50.0
127.0,127.0,83.0,131.0,127.0,121.0,126.0,128.0,22.0,-104.0,-79.0,127.0,127.0,127.0,109.0,84.0,-50.0
127.0,127.0,83.0,131.0,127.0,121.0,126.0,128.0,22.0,-104.0,-79.0,127.0,127.0,127.0,109.0,84.0,-50.0
127.0,127.0,83.0,131.0,127.0,120.0,126.0,128.0,22.0,-104.0,-79.0,127.0,127.0,127.0,109.0,84.0,-50.0
127.0,127.0,83.0,131.0,127.0,120.0,126.0,128.0,22.0,-104.0,-79.0,127.0,127.0,127.0,109.0,84.0,-50.0
127.0,126.0,84.0,129.0,126.0,121.0,126.0,127.0,22.0,-104.0,-79.0,127.0,127.0,127.0,109.0,84.0,-50.0
127.0,127.0,84.0,129.0,126.0,122.0,126.0,128.0,22.0,-104.0,-79.0,127.0,127.0,127.0,109.0,84.0,-50.0
127.0,127.0,115.0,129.0,126.0,118.0,126.0,128.0,23.0,-104.0,-79.0,127.0,127.0,127.0,109.0,84.0,-50.0
126.0,127.0,115.0,129.0,126.0,118.0,126.0,128.0,23.0,-104.0,-79.0,127.0,127.0,127.0,109.0,84.0,-50.0
126.0,127.0,116.0,129.0,126.0,117.0,126.0,128.0,23.0,-104.0,-79.0,127.0,127.0,127.0,109.0,84.0,-50.0
126.0,127.0,117.0,129.0,126.0,117.0,126.0,128.0,23.0,-104.0,-79.0,127.0,127.0,127.0,109.0,84.0,-50.0
126.0,127.0,118.0,129.0,126.0,117.0,126.0,128.0,23.0,-104.0,-79.0,127.0,127.0,127.0,109.0,84.0,-50.0
126.0,127.0,119.0,129.0,126.0,116.0,127.0,128.0,23.0,-104.0,-79.0,127.0,127.0,127.0,109.0,84.0,-50.0
126.0,127.0,120.0,130.0,126.0,116.0,127.0,128.0,23.0,-104.0,-79.0,127.0,127.0,127.0,109.0,84.0,-50.0
127.0,126.0,112.0,130.0,126.0,116.0,126.0,128.0,23.0,-104.0,-79.0,127.0,127.0,127.0,109.0,84.0,-50.0
126.0,126.0,113.0,129.0,126.0,117.0,126.0,128.0,23.0,-104.0,-79.0,127.0,127.0,127.0,109.0,84.0,-50.0
126.0,127.0,114.0,129.0,126.0,118.0,126.0,128.0,23.0,-104.0,-79.0,127.0,127.0,127.0,109.0,84.0,-50.0
126.0,127.0,150.0,133.0,127.0,118.0,126.0,128.0,22.0,-104.0,-79.0,127.0,127.0,127.0,109.0,84.0,-50.0
126.0,127.0,150.0,133.0,127.0,117.0,126.0,128.0,22.0,-104.0,-79.0,127.0,127.0,127.0,109.0,84.0,-50.0
126.0,127.0,150.0,133.0,127.0,117.0,126.0,128.0,22.0,-104.0,-79.0,127.0,127.0,127.0,109.0,84.0,-50.0
126.0,127.0,151.0,133.0,127.0,117.0,126.0,128.0,22.0,-104.0,-79.0,127.0,127.0,127.0,109.0,84.0,-50.0
127.0,127.0,150.0,133.0,127.0,117.0,127.0,128.0,22.0,-104.0,-79.0,127.0,127.0,127.0,109.0,84.0,-50.0
127.0,127.0,150.0,133.0,127.0,117.0,127.0,128.0,22.0,-104.0,-79.0,127.0,127.0,127.0,109.0,84.0,-50.0
126.0,126.0,149.0,132.0,127.0,116.0,126.0,128.0,22.0,-104.0,-79.0,127.0,127.0,127.0,109.0,84.0,-50.0
126.0,126.0,149.0,132.0,127.0,117.0,126.0,128.0,22.0,-104.0,-79.0,127.0,127.0,127.0,109.0,84.0,-50.0
126.0,127.0,149.0,132.0,127.0,118.0,126.0,128.0,22.0,-104.0,-79.0,127.0,127.0,127.0,109.0,84.0,-50.0
126.0,127.0,149.0,133.0,127.0,118.0,126.0,128.0,22.0,-104.0,-79.0,127.0,127.0,127.0,109.0,84.0,-50.0
126.0,125.0,156.0,134.0,126.0,117.0,126.0,127.0,22.0,-104.0,-78.0,127.0,127.0,127.0,109.0,84.0,-50.0
126.0,125.0,156.0,134.0,126.0,117.0,126.0,127.0,22.0,-104.0,-78.0,127.0,127.0,127.0,109.0,84.0,-50.0
126.0,125.0,156.0,134.0,126.0,118.0,126.0,127.0,22.0,-104.0,-78.0,127.0,127.0,127.0,109.0,84.0,-50.0
126.0,126.0,155.0,134.0,126.0,119.0,126.0,127.0,22.0,-104.0,-78.0,127.0,127.0,127.0,109.0,84.0,-50.0
127.0,125.0,157.0,135.0,127.0,118.0,126.0,127.0,22.0,-104.0,-78.0,127.0,127.0,127.0,109.0,84.0,-50.0
127.0,125.0,157.0,135.0,127.0,118.0,126.0,127.0,22.0,-104.0,-78.0,127.0,127.0,127.0,109.0,84.0,-50.0
127.0,125.0,157.0,135.0,126.0,118.0,126.0,127.0,22.0,-104.0,-78.0,127.0,127.0,127.0,109.0,84.0,-50.0
127.0,125.0,157.0,135.0,126.0,118.0,126.0,127.0,22.0,-104.0,-78.0,127.0,127.0,127.0,109.0,84.0,-50.0
126.0,125.0,156.0,135.0,126.0,118.0,126.0,127.0,22.0,-104.0,-78.0,127.0,127.0,127.0,109.0,84.0,-50.0
126.0,125.0,156.0,134.0,126.0,117.0,126.0,127.0,22.0,-104.0,-78.0,127.0,127.0,127.0,109.0,84.0,-50.0
126.0,126.0,148.0,137.0,126.0,122.0,126.0,127.0,21.0,-104.0,-78.0,127.0,127.0,127.0,109.0,84.0,-50.0
126.0,126.0,148.0,137.0,126.0,121.0,126.0,127.0,21.0,-104.0,-78.0,127.0,127.0,127.0,109.0,84.0,-50.0
126.0,126.0,148.0,137.0,126.0,121.0,127.0,127.0,21.0,-104.0,-78.0,127.0,127.0,127.0,109.0,84.0,-50.0
126.0,126.0,151.0,137.0,127.0,121.0,126.0,127.0,21.0,-104.0,-78.0,127.0,127.0,127.0,109.0,84.0,-50.0
126.0,126.0,151.0,137.0,127.0,121.0,126.0,127.0,21.0,-104.0,-78.0,127.0,127.0,127.0,109.0,84.0,-50.0
126.0,126.0,150.0,137.0,127.0,121.0,126.0,128.0,21.0,-104.0,-78.0,127.0,127.0,127.0,109.0,84.0,-50.0
126.0,126.0,150.0,137.0,127.0,122.0,126.0,128.0,21.0,-104.0,-78.0,127.0,127.0,127.0,109.0,84.0,-50.0
126.0,126.0,149.0,137.0,127.0,122.0,126.0,128.0,21.0,-104.0,-78.0,127.0,127.0,127.0,109.0,84.0,-50.0
126.0,126.0,149.0,137.0,126.0,122.0,126.0,128.0,21.0,-104.0,-78.0,127.0,127.0,127.0,109.0,84.0,-50.0
126.0,126.0,149.0,137.0,126.0,122.0,126.0,127.0,21.0,-104.0,-78.0,127.0,127.0,127.0,109.0,84.0,-50.0
126.0,126.0,141.0,136.0,127.0,125.0,127.0,127.0,20.0,-104.0,-78.0,127.0,127.0,127.0,109.0,84.0,-50.0
126.0,126.0,141.0,136.0,127.0,124.0,127.0,127.0,20.0,-104.0,-78.0,127.0,127.0,127.0,109.0,84.0,-50.0
126.0,126.0,143.0,135.0,127.0,123.0,127.0,127.0,20.0,-104.0,-78.0,127.0,127.0,127.0,109.0,84.0,-50.0
126.0,126.0,143.0,135.0,127.0,123.0,127.0,127.0,20.0,-104.0,-78.0,127.0,127.0,127.0,109.0,84.0,-50.0
126.0,126.0,143.0,135.0,127.0,124.0,126.0,127.0,20.0,-104.0,-78.0,127.0,127.0,127.0,109.0,84.0,-50.0
126.0,126.0,142.0,135.0,127.0,125.0,127.0,128.0,20.0,-104.0,-78.0,127.0,127.0,127.0,109.0,84.0,-50.0
126.0,126.0,142.0,135.0,127.0,125.0,126.0,128.0,20.0,-104.0,-78.0,127.0,127.0,127.0,109.0,84.0,-50.0
126.0,126.0,142.0,135.0,127.0,125.0,127.0,128.0,20.0,-104.0,-78.0,127.0,127.0,127.0,109.0,84.0,-50.0
126.0,126.0,141.0,135.0,127.0,125.0,127.0,128.0,20.0,-104.0,-78.0,127.0,127.0,127.0,109.0,84.0,-50.0
126.0,126.0,141.0,136.0,127.0,125.0,127.0,127.0,20.0,-104.0,-78.0,127.0,127.0,127.0,109.0,84.0,-50.0
126.0,126.0,140.0,140.0,127.0,127.0,127.0,128.0,19.0,-104.0,-78.0,127.0,127.0,127.0,109.0,84.0,-50.0
126.0,126.0,141.0,136.0,127.0,126.0,127.0,128.0,19.0,-104.0,-78.0,127.0,127.0,127.0,109.0,84.0,-50.0
126.0,125.0,141.0,136.0,127.0,127.0,127.0,128.0,19.0,-104.0,-78.0,127.0,127.0,127.0,109.0,84.0,-50.0
126.0,126.0,141.0,136.0,127.0,127.0,126.0,128.0,19.0,-104.0,-78.0,127.0,127.0,127.0,109.0,84.0,-50.0
126.0,126.0,141.0,137.0,127.0,128.0,126.0,128.0,19.0,-104.0,-78.0,127.0,127.0,127.0,109.0,84.0,-50.0
126.0,126.0,141.0,137.0,127.0,128.0,126.0,128.0,19.0,-104.0,-78.0,127.0,127.0,127.0,109.0,84.0,-50.0
126.0,126.0,141.0,138.0,127.0,128.0,127.0,128.0,19.0,-104.0,-78.0,127.0,127.0,127.0,109.0,84.0,-50.0
126.0,126.0,141.0,139.0,127.0,127.0,127.0,128.0,19.0,-104.0,-78.0,127.0,127.0,127.0,109.0,84.0,-50.0
126.0,126.0,140.0,139.0,127.0,127.0,127.0,128.0,19.0,-104.0,-78.0,127.0,127.0,127.0,109.0,84.0,-50.0
126.0,126.0,140.0,139.0,127.0,127.0,127.0,128.0,19.0,-104.0,-78.0,127.0,127.0,127.0,109.0,84.0,-50.0
127.0,126.0,140.0,138.0,127.0,124.0,127.0,128.0,19.0,-104.0,-78.0,127.0,127.0,127.0,109.0,84.0,-50.0
127.0,126.0,140.0,138.0,127.0,124.0,127.0,128.0,19.0,-104.0,-78.0,127.0,127.0,127.0,109.0,84.0,-50.0
127.0,126.0,140.0,138.0,127.0,124.0,127.0,128.0,19.0,-104.0,-78.0,127.0,127.0,127.0,109.0,84.0,-50.0
127.0,126.0,140.0,138.0,127.0,125.0,127.0,128.0,19.0,-104.0,-78.0,127.0,127.0,127.0,109.0,84.0,-50.0
127.0,126.0,140.0,138.0,127.0,125.0,127.0,128.0,19.0,-104.0,-78.0,127.0,127.0,127.0,109.0,84.0,-50.0
127.0,126.0,140.0,138.0,127.0,124.0,127.0,128.0,19.0,-104.0,-78.0,127.0,127.0,127.0,109.0,84.0,-50.0
127.0,126.0,139.0,138.0,127.0,124.0,127.0,128.0,19.0,-104.0,-78.0,127.0,127.0,127.0,109.0,84.0,-50.0
127.0,126.0,139.0,138.0,128.0,124.0,127.0,128.0,19.0,-104.0,-78.0,127.0,127.0,127.0,109.0,84.0,-50.0
127.0,126.0,139.0,138.0,127.0,124.0,127.0,128.0,19.0,-104.0,-78.0,127.0,127.0,127.0,109.0,84.0,-50.0
127.0,126.0,139.0,138.0,127.0,123.0,127.0,128.0,19.0,-104.0,-78.0,127.0,127.0,127.0,109.0,84.0,-50.0
127.0,126.0,133.0,134.0,127.0,122.0,127.0,128.0,19.0,-104.0,-78.0,127.0,127.0,127.0,109.0,84.0,-50.0
127.0,126.0,133.0,134.0,127.0,122.0,127.0,128.0,19.0,-104.0,-78.0,127.0,127.0,127.0,109.0,84.0,-50.0
126.0,126.0,132.0,133.0,127.0,124.0,127.0,128.0,19.0,-104.0,-78.0,127.0,127.0,127.0,109.0,84.0,-50.0
126.0,126.0,131.0,133.0,127.0,124.0,127.0,128.0,19.0,-104.0,-78.0,127.0,127.0,127.0,109.0,84.0,-50.0
126.0,126.0,130.0,133.0,127.0,124.0,127.0,128.0,19.0,-104.0,-78.0,127.0,127.0,127.0,109.0,84.0,-50.0
126.0,126.0,130.0,132.0,127.0,124.0,127.0,128.0,19.0,-104.0,-78.0,127.0,127.0,127.0,109.0,84.0,-50.0
126.0,126.0,130.0,132.0,127.0,123.0,127.0,128.0,19.0,-104.0,-78.0,127.0,127.0,127.0,109.0,84.0,-50.0
126.0,126.0,129.0,132.0,127.0,123.0,127.0,128.0,19.0,-104.0,-78.0,127.0,127.0,127.0,109.0,84.0,-50.0
126.0,126.0,129.0,132.0,127.0,123.0,127.0,128.0,19.0,-104.0,-78.0,127.0,127.0,127.0,109.0,84.0,-50.0
127.0,126.0,134.0,135.0,127.0,122.0,127.0,128.0,19.0,-104.0,-78.0,127.0,127.0,127.0,109.0,84.0,-50.0
127.0,126.0,128.0,139.0,127.0,123.0,127.0,128.0,20.0,-104.0,-79.0,127.0,127.0,127.0,109.0,84.0,-50.0
127.0,126.0,128.0,139.0,127.0,124.0,127.0,128.0,20.0,-104.0,-79.0,127.0,127.0,127.0,109.0,84.0,-50.0
127.0,127.0,128.0,138.0,127.0,124.0,127.0,128.0,20.0,-104.0,-79.0,127.0,127.0,127.0,109.0,84.0,-50.0
127.0,127.0,128.0,138.0,127.0,124.0,127.0,128.0,20.0,-104.0,-79.0,127.0,127.0,127.0,109.0,84.0,-50.0
127.0,127.0,128.0,137.0,128.0,124.0,127.0,128.0,20.0,-104.0,-79.0,127.0,127.0,127.0,109.0,84.0,-50.0
127.0,127.0,127.0,136.0,128.0,124.0,127.0,128.0,20.0,-104.0,-79.0,127.0,127.0,127.0,109.0,84.0,-50.0
127.0,127.0,127.0,135.0,128.0,123.0,127.0,128.0,20.0,-104.0,-79.0,127.0,127.0,127.0,109.0,84.0,-50.0
127.0,127.0,127.0,135.0,128.0,123.0,127.0,128.0,20.0,-104.0,-79.0,127.0,127.0,127.0,109.0,84.0,-50.0
127.0,126.0,128.0,139.0,127.0,123.0,127.0,128.0,20.0,-104.0,-79.0,127.0,127.0,127.0,109.0,84.0,-50.0
127.0,126.0,128.0,139.0,127.0,123.0,127.0,128.0,20.0,-104.0,-79.0,127.0,127.0,127.0,109.0,84.0,-50.0
126.0,126.0,128.0,130.0,127.0,123.0,126.0,128.0,21.0,-104.0,-79.0,127.0,127.0,127.0,109.0,84.0,-50.0
126.0,126.0,128.0,130.0,127.0,124.0,126.0,128.0,21.0,-104.0,-79.0,127.0,127.0,127.0,109.0,84.0,-50.0
126.0,126.0,128.0,130.0,127.0,123.0,126.0,128.0,21.0,-104.0,-79.0,127.0,127.0,127.0,109.0,84.0,-50.0
126.0,126.0,129.0,130.0,127.0,123.0,126.0,128.0,21.0,-104.0,-79.0,127.0,127.0,127.0,109.0,84.0,-50.0
126.0,126.0,129.0,130.0,127.0,123.0,127.0,128.0,21.0,-104.0,-79.0,127.0,127.0,127.0,109.0,84.0,-50.0
126.0,126.0,129.0,131.0,127.0,123.0,127.0,128.0,21.0,-104.0,-79.0,127.0,127.0,127.0,109.0,84.0,-50.0
126.0,126.0,129.0,131.0,127.0,122.0,127.0,128.0,21.0,-104.0,-79.0,127.0,127.0,127.0,109.0,84.0,-50.0
127.0,126.0,128.0,131.0,127.0,123.0,126.0,128.0,21.0,-104.0,-79.0,127.0,127.0,127.0,109.0,84.0,-50.0
127.0,126.0,128.0,131.0,127.0,123.0,126.0,128.0,21.0,-104.0,-79.0,127.0,127.0,127.0,109.0,84.0,-50.0
127.0,126.0,128.0,131.0,127.0,122.0,126.0,128.0,21.0,-104.0,-79.0,127.0,127.0,127.0,109.0,84.0,-50.0
127.0,125.0,135.0,129.0,126.0,119.0,126.0,128.0,22.0,-104.0,-79.0,127.0,127.0,127.0,109.0,84.0,-50.0
127.0,126.0,135.0,129.0,126.0,119.0,126.0,128.0,22.0,-104.0,-79.0,127.0,127.0,127.0,109.0,84.0,-50.0
126.0,126.0,135.0,129.0,127.0,119.0,126.0,128.0,22.0,-104.0,-79.0,127.0,127.0,127.0,109.0,84.0,-50.0
126.0,126.0,135.0,130.0,127.0,120.0,126.0,128.0,22.0,-104.0,-79.0,127.0,127.0,127.0,109.0,84.0,-50.0
126.0,126.0,136.0,130.0,127.0,120.0,126.0,128.0,22.0,-104.0,-79.0,127.0,127.0,127.0,109.0,84.0,-50.0
126.0,126.0,136.0,130.0,127.0,120.0,126.0,128.0,22.0,-104.0,-79.0,127.0,127.0,127.0,109.0,84.0,-50.0
127.0,125.0,134.0,129.0,126.0,119.0,126.0,128.0,22.0,-104.0,-79.0,127.0,127.0,127.0,109.0,84.0,-50.0
127.0,125.0,134.0,129.0,126.0,119.0,126.0,128.0,22.0,-104.0,-79.0,127.0,127.0,127.0,109.0,84.0,-50.0
127.0,125.0,134.0,129.0,126.0,119.0,126.0,128.0,22.0,-104.0,-79.0,127.0,127.0,127.0,109.0,84.0,-50.0
127.0,125.0,134.0,129.0,126.0,119.0,126.0,128.0,22.0,-104.0,-79.0,127.0,127.0,127.0,109.0,84.0,-50.0
126.0,126.0,144.0,130.0,127.0,120.0,126.0,128.0,22.0,-105.0,-79.0,127.0,127.0,127.0,109.0,84.0,-50.0
127.0,126.0,144.0,130.0,127.0,120.0,126.0,128.0,22.0,-105.0,-79.0,127.0,127.0,127.0,109.0,84.0,-50.0
127.0,126.0,144.0,130.0,127.0,119.0,126.0,128.0,22.0,-105.0,-79.0,127.0,127.0,127.0,109.0,84.0,-50.0
126.0,126.0,143.0,130.0,127.0,119.0,126.0,128.0,22.0,-105.0,-79.0,127.0,127.0,127.0,109.0,84.0,-50.0
126.0,126.0,143.0,130.0,127.0,118.0,126.0,128.0,22.0,-105.0,-79.0,127.0,127.0,127.0,109.0,84.0,-50.0
127.0,126.0,144.0,130.0,126.0,120.0,126.0,128.0,22.0,-105.0,-79.0,127.0,127.0,127.0,109.0,84.0,-50.0
127.0,126.0,143.0,130.0,127.0,121.0,126.0,128.0,22.0,-105.0,-79.0,127.0,127.0,127.0,109.0,84.0,-50.0
127.0,126.0,144.0,130.0,127.0,121.0,126.0,128.0,22.0,-105.0,-79.0,127.0,127.0,127.0,109.0,84.0,-50.0
127.0,126.0,144.0,130.0,127.0,120.0,126.0,128.0,22.0,-105.0,-79.0,127.0,127.0,127.0,109.0,84.0,-50.0
127.0,126.0,144.0,130.0,127.0,120.0,126.0,128.0,22.0,-105.0,-79.0,127.0,127.0,127.0,109.0,84.0,-50.0
127.0,126.0,141.0,131.0,127.0,119.0,126.0,128.0,22.0,-106.0,-79.0,127.0,127.0,127.0,109.0,84.0,-50.0
127.0,126.0,141.0,131.0,127.0,118.0,126.0,128.0,22.0,-106.0,-79.0,127.0,127.0,127.0,109.0,84.0,-50.0
126.0,126.0,141.0,131.0,127.0,118.0,126.0,128.0,22.0,-106.0,-79.0,127.0,127.0,127.0,109.0,84.0,-50.0
127.0,126.0,141.0,131.0,127.0,117.0,127.0,128.0,22.0,-106.0,-79.0,127.0,127.0,127.0,109.0,84.0,-50.0
126.0,126.0,140.0,129.0,127.0,118.0,126.0,128.0,22.0,-106.0,-79.0,127.0,127.0,127.0,109.0,84.0,-50.0
126.0,126.0,140.0,129.0,127.0,119.0,126.0,128.0,22.0,-106.0,-79.0,127.0,127.0,127.0,109.0,84.0,-50.0
127.0,126.0,140.0,130.0,127.0,119.0,126.0,128.0,22.0,-106.0,-79.0,127.0,127.0,127.0,109.0,84.0,-50.0
126.0,126.0,140.0,130.0,127.0,119.0,126.0,128.0,22.0,-106.0,-79.0,127.0,127.0,127.0,109.0,84.0,-50.0
126.0,126.0,141.0,131.0,127.0,119.0,126.0,128.0,22.0,-106.0,-79.0,127.0,127.0,127.0,109.0,84.0,-50.0
127.0,126.0,141.0,131.0,127.0,119.0,126.0,128.0,22.0,-106.0,-79.0,127.0,127.0,127.0,109.0,84.0,-50.0
127.0,126.0,135.0,129.0,127.0,119.0,126.0,128.0,21.0,-106.0,-79.0,127.0,127.0,127.0,109.0,84.0,-50.0
127.0,126.0,134.0,129.0,127.0,119.0,126.0,128.0,21.0,-106.0,-79.0,127.0,127.0,127.0,109.0,84.0,-50.0
127.0,126.0,134.0,130.0,127.0,118.0,126.0,128.0,21.0,-106.0,-79.0,127.0,127.0,127.0,109.0,84.0,-50.0
127.0,126.0,135.0,127.0,126.0,119.0,126.0,128.0,21.0,-106.0,-79.0,127.0,127.0,127.0,109.0,84.0,-50.0
127.0,126.0,135.0,127.0,126.0,120.0,126.0,128.0,21.0,-106.0,-79.0,127.0,127.0,127.0,109.0,84.0,-50.0
127.0,126.0,135.0,128.0,126.0,120.0,126.0,128.0,21.0,-106.0,-79.0,127.0,127.0,127.0,109.0,84.0,-50.0
127.0,126.0,135.0,128.0,127.0,120.0,126.0,128.0,21.0,-106.0,-79.0,127.0,127.0,127.0,109.0,84.0,-50.0
127.0,126.0,135.0,129.0,127.0,120.0,126.0,128.0,21.0,-106.0,-79.0,127.0,127.0,127.0,109.0,84.0,-50.0
127.0,126.0,135.0,129.0,127.0,120.0,126.0,128.0,21.0,-106.0,-79.0,127.0,127.0,127.0,109.0,84.0,-50.0
127.0,126.0,135.0,129.0,127.0,119.0,126.0,128.0,21.0,-106.0,-79.0,127.0,127.0,127.0,109.0,84.0,-50.0
127.0,126.0,126.0,130.0,126.0,120.0,126.0,128.0,20.0,-106.0,-79.0,127.0,127.0,127.0,109.0,84.0,-50.0
127.0,126.0,125.0,130.0,126.0,120.0,126.0,128.0,20.0,-106.0,-79.0,127.0,127.0,127.0,109.0,84.0,-50.0
127.0,125.0,127.0,130.0,127.0,121.0,126.0,128.0,20.0,-106.0,-79.0,127.0,127.0,127.0,109.0,84.0,-50.0
127.0,125.0,127.0,130.0,127.0,122.0,126.0,128.0,20.0,-106.0,-79.0,127.0,127.0,127.0,109.0,84.0,-50.0
127.0,125.0,126.0,130.0,127.0,122.0,126.0,128.0,20.0,-106.0,-79.0,127.0,127.0,127.0,109.0,84.0,-50.0
127.0,125.0,126.0,130.0,127.0,122.0,126.0,128.0,20.0,-106.0,-79.0,127.0,127.0,127.0,109.0,84.0,-50.0
127.0,125.0,126.0,130.0,127.0,121.0,126.0,128.0,20.0,-106.0,-79.0,127.0,127.0,127.0,109.0,84.0,-50.0
127.0,125.0,126.0,130.0,127.0,121.0,126.0,128.0,20.0,-106.0,-79.0,127.0,127.0,127.0,109.0,84.0,-50.0
127.0,125.0,126.0,130.0,127.0,121.0,126.0,128.0,20.0,-106.0,-79.0,127.0,127.0,127.0,109.0,84.0,-50.0
127.0,125.0,126.0,130.0,126.0,121.0,126.0,128.0,20.0,-106.0,-79.0,127.0,127.0,127.0,109.0,84.0,-50.0
126.0,126.0,119.0,130.0,127.0,118.0,126.0,128.0,19.0,-105.0,-79.0,127.0,127.0,127.0,109.0,84.0,-50.0
126.0,126.0,119.0,128.0,126.0,118.0,126.0,128.0,19.0,-105.0,-79.0,127.0,127.0,127.0,109.0,84.0,-50.0
127.0,126.0,119.0,128.0,127.0,119.0,126.0,128.0,19.0,-105.0,-79.0,127.0,127.0,127.0,109.0,84.0,-50.0
126.0,126.0,119.0,129.0,127.0,120.0,126.0,128.0,19.0,-105.0,-79.0,127.0,127.0,127.0,109.0,84.0,-50.0
126.0,126.0,119.0,129.0,127.0,120.0,126.0,128.0,19.0,-105.0,-79.0,127.0,127.0,127.0,109.0,84.0,-50.0
126.0,126.0,118.0,129.0,127.0,119.0,126.0,128.0,19.0,-105.0,-79.0,127.0,127.0,127.0,109.0,84.0,-50.0
126.0,126.0,118.0,129.0,127.0,119.0,126.0,128.0,19.0,-105.0,-79.0,127.0,127.0,127.0,109.0,84.0,-50.0
126.0,126.0,118.0,130.0,127.0,119.0,126.0,128.0,19.0,-105.0,-79.0,127.0,127.0,127.0,109.0,84.0,-50.0
126.0,126.0,118.0,130.0,127.0,119.0,126.0,128.0,19.0,-105.0,-79.0,127.0,127.0,127.0,109.0,84.0,-50.0
126.0,126.0,119.0,130.0,127.0,119.0,126.0,128.0,19.0,-105.0,-79.0,127.0,127.0,127.0,109.0,84.0,-50.0
126.0,125.0,117.0,128.0,126.0,118.0,126.0,128.0,19.0,-105.0,-78.0,127.0,127.0,127.0,109.0,84.0,-50.0
126.0,125.0,117.0,128.0,126.0,120.0,126.0,128.0,19.0,-105.0,-78.0,127.0,127.0,127.0,109.0,84.0,-50.0
126.0,125.0,117.0,128.0,126.0,120.0,126.0,128.0,19.0,-105.0,-78.0,127.0,127.0,127.0,109.0,84.0,-50.0
126.0,125.0,117.0,128.0,126.0,120.0,126.0,128.0,19.0,-105.0,-78.0,127.0,127.0,127.0,109.0,84.0,-50.0
126.0,125.0,117.0,128.0,126.0,120.0,126.0,128.0,19.0,-105.0,-78.0,127.0,127.0,127.0,109.0,84.0,-50.0
126.0,125.0,117.0,128.0,126.0,119.0,126.0,128.0,19.0,-105.0,-78.0,127.0,127.0,127.0,109.0,84.0,-50.0
126.0,125.0,117.0,128.0,126.0,119.0,126.0,128.0,19.0,-105.0,-78.0,127.0,127.0,127.0,109.0,84.0,-50.0
126.0,126.0,117.0,128.0,126.0,119.0,126.0,128.0,19.0,-105.0,-78.0,127.0,127.0,127.0,109.0,84.0,-50.0
126.0,125.0,117.0,128.0,126.0,119.0,126.0,128.0,19.0,-105.0,-78.0,127.0,127.0,127.0,109.0,84.0,-50.0
126.0,125.0,117.0,128.0,126.0,118.0,126.0,128.0,19.0,-105.0,-78.0,127.0,127.0,127.0,109.0,84.0,-50.0
126.0,126.0,119.0,127.0,126.0,120.0,126.0,128.0,19.0,-105.0,-78.0,127.0,127.0,127.0,109.0,84.0,-50.0
127.0,126.0,119.0,127.0,126.0,120.0,126.0,128.0,19.0,-105.0,-78.0,127.0,127.0,127.0,109.0,84.0,-50.0
127.0,126.0,119.0,127.0,126.0,120.0,126.0,128.0,19.0,-105.0,-78.0,127.0,127.0,127.0,109.0,84.0,-50.0
127.0,126.0,119.0,127.0,126.0,120.0,126.0,128.0,19.0,-105.0,-78.0,127.0,127.0,127.0,109.0,84.0,-50.0
126.0,126.0,119.0,127.0,126.0,120.0,126.0,128.0,19.0,-105.0,-78.0,127.0,127.0,127.0,109.0,84.0,-50.0
127.0,126.0,119.0,128.0,126.0,120.0,126.0,128.0,19.0,-105.0,-78.0,127.0,127.0,127.0,109.0,84.0,-50.0
127.0,126.0,119.0,128.0,126.0,119.0,127.0,128.0,19.0,-105.0,-78.0,127.0,127.0,127.0,109.0,84.0,-50.0
126.0,126.0,119.0,129.0,126.0,119.0,127.0,128.0,19.0,-105.0,-78.0,127.0,127.0,127.0,109.0,84.0,-50.0
126.0,126.0,119.0,129.0,126.0,118.0,127.0,128.0,19.0,-105.0,-78.0,127.0,127.0,127.0,109.0,84.0,-50.0
127.0,125.0,119.0,127.0,126.0,119.0,126.0,128.0,19.0,-105.0,-78.0,127.0,127.0,127.0,109.0,84.0,-50.0
127.0,126.0,121.0,128.0,126.0,117.0,126.0,128.0,19.0,-105.0,-78.0,127.0,127.0,127.0,109.0,84.0,-50.0
127.0,126.0,121.0,129.0,126.0,117.0,126.0,128.0,19.0,-105.0,-78.0,127.0,127.0,127.0,109.0,84.0,-50.0
126.0,126.0,121.0,129.0,126.0,118.0,126.0,128.0,19.0,-105.0,-78.0,127.0,127.0,127.0,109.0,84.0,-50.0
127.0,127.0,121.0,129.0,127.0,119.0,126.0,128.0,19.0,-105.0,-78.0,127.0,127.0,127.0,109.0,84.0,-50.0
126.0,127.0,121.0,129.0,127.0,119.0,126.0,128.0,19.0,-105.0,-78.0,127.0,127.0,127.0,109.0,84.0,-50.0
127.0,127.0,122.0,129.0,127.0,118.0,127.0,128.0,19.0,-105.0,-78.0,127.0,127.0,127.0,109.0,84.0,-50.0
126.0,127.0,122.0,130.0,127.0,118.0,127.0,128.0,19.0,-105.0,-78.0,127.0,127.0,127.0,109.0,84.0,-50.0
127.0,127.0,122.0,130.0,127.0,118.0,127.0,128.0,19.0,-105.0,-78.0,127.0,127.0,127.0,109.0,84.0,-50.0
126.0,125.0,121.0,128.0,126.0,117.0,126.0,128.0,19.0,-105.0,-78.0,127.0,127.0,127.0,109.0,84.0,-50.0
127.0,125.0,121.0,128.0,126.0,117.0,126.0,128.0,19.0,-105.0,-78.0,127.0,127.0,127.0,109.0,84.0,-50.0
126.0,126.0,122.0,129.0,126.0,120.0,126.0,128.0,20.0,-105.0,-79.0,127.0,127.0,127.0,109.0,84.0,-50.0
126.0,126.0,122.0,129.0,126.0,119.0,126.0,128.0,20.0,-105.0,-79.0,127.0,127.0,127.0,109.0,84.0,-50.0
126.0,126.0,122.0,129.0,126.0,119.0,126.0,128.0,20.0,-105.0,-79.0,127.0,127.0,127.0,109.0,84.0,-50.0
126.0,126.0,122.0,129.0,126.0,119.0,126.0,128.0,20.0,-105.0,-79.0,127.0,127.0,127.0,109.0,84.0,-50.0
127.0,126.0,122.0,130.0,126.0,118.0,126.0,128.0,20.0,-105.0,-79.0,127.0,127.0,127.0,109.0,84.0,-50.0
126.0,126.0,122.0,130.0,126.0,118.0,126.0,128.0,20.0,-105.0,-79.0,127.0,127.0,127.0,109.0,84.0,-50.0
127.0,126.0,122.0,130.0,127.0,118.0,126.0,128.0,20.0,-105.0,-79.0,127.0,127.0,127.0,109.0,84.0,-50.0
126.0,126.0,122.0,129.0,127.0,120.0,126.0,128.0,20.0,-105.0,-79.0,127.0,127.0,127.0,109.0,84.0,-50.0
126.0,126.0,122.0,129.0,126.0,120.0,126.0,128.0,20.0,-105.0,-79.0,127.0,127.0,127.0,109.0,84.0,-50.0
126.0,126.0,122.0,129.0,126.0,120.0,126.0,128.0,20.0,-105.0,-79.0,127.0,127.0,127.0,109.0,84.0,-50.0
126.0,126.0,123.0,129.0,126.0,119.0,126.0,128.0,21.0,-105.0,-79.0,127.0,127.0,127.0,109.0,84.0,-50.0
126.0,126.0,123.0,128.0,126.0,119.0,126.0,128.0,21.0,-105.0,-79.0,127.0,127.0,127.0,109.0,84.0,-50.0
126.0,126.0,123.0,128.0,126.0,119.0,126.0,128.0,21.0,-105.0,-79.0,127.0,127.0,127.0,109.0,84.0,-50.0
126.0,126.0,123.0,128.0,126.0,118.0,126.0,128.0,21.0,-105.0,-79.0,127.0,127.0,127.0,109.0,84.0,-50.0
126.0,126.0,123.0,128.0,126.0,118.0,126.0,128.0,21.0,-105.0,-79.0,127.0,127.0,127.0,109.0,84.0,-50.0
126.0,126.0,124.0,129.0,126.0,120.0,126.0,128.0,21.0,-105.0,-79.0,127.0,127.0,127.0,109.0,84.0,-50.0
126.0,126.0,124.0,129.0,126.0,120.0,126.0,128.0,21.0,-105.0,-79.0,127.0,127.0,127.0,109.0,84.0,-50.0
126.0,126.0,124.0,129.0,126.0,120.0,126.0,128.0,21.0,-105.0,-79.0,127.0,127.0,127.0,109.0,84.0,-50.0
126.0,126.0,124.0,129.0,126.0,119.0,126.0,128.0,21.0,-105.0,-79.0,127.0,127.0,127.0,109.0,84.0,-50.0
126.0,126.0,123.0,128.0,126.0,119.0,126.0,128.0,21.0,-105.0,-79.0,127.0,127.0,127.0,109.0,84.0,-50.0
126.0,126.0,128.0,129.0,127.0,119.0,126.0,128.0,22.0,-105.0,-79.0,127.0,127.0,127.0,109.0,84.0,-50.0
126.0,126.0,128.0,129.0,127.0,119.0,126.0,128.0,22.0,-105.0,-79.0,127.0,127.0,127.0,109.0,84.0,-50.0
126.0,126.0,128.0,129.0,127.0,119.0,126.0,128.0,22.0,-105.0,-79.0,127.0,127.0,127.0,109.0,84.0,-50.0
126.0,126.0,128.0,129.0,127.0,118.0,127.0,128.0,22.0,-105.0,-79.0,127.0,127.0,127.0,109.0,84.0,-50.0
126.0,126.0,127.0,128.0,126.0,120.0,126.0,128.0,22.0,-105.0,-79.0,127.0,127.0,127.0,109.0,84.0,-50.0
126.0,126.0,127.0,128.0,126.0,120.0,126.0,128.0,22.0,-105.0,-79.0,127.0,127.0,127.0,109.0,84.0,-50.0
126.0,126.0,127.0,128.0,126.0,120.0,126.0,128.0,22.0,-105.0,-79.0,127.0,127.0,127.0,109.0,84.0,-50.0
126.0,126.0,128.0,129.0,126.0,120.0,126.0,128.0,22.0,-105.0,-79.0,127.0,127.0,127.0,109.0,84.0,-50.0
126.0,126.0,128.0,129.0,126.0,120.0,126.0,128.0,22.0,-105.0,-79.0,127.0,127.0,127.0,109.0,84.0,-50.0
126.0,126.0,128.0,129.0,127.0,120.0,126.0,128.0,22.0,-105.0,-79.0,127.0,127.0,127.0,109.0,84.0,-50.0
126.0,126.0,129.0,127.0,127.0,119.0,126.0,128.0,22.0,-105.0,-79.0,127.0,127.0,127.0,110.0,84.0,-50.0
126.0,126.0,129.0,127.0,127.0,118.0,126.0,128.0,22.0,-105.0,-79.0,127.0,127.0,127.0,110.0,84.0,-50.0
126.0,126.0,129.0,127.0,127.0,118.0,126.0,128.0,22.0,-105.0,-79.0,127.0,127.0,127.0,110.0,84.0,-50.0
127.0,126.0,129.0,127.0,127.0,120.0,126.0,128.0,22.0,-105.0,-79.0,127.0,127.0,127.0,110.0,84.0,-50.0
126.0,126.0,129.0,127.0,127.0,120.0,126.0,128.0,22.0,-105.0,-79.0,127.0,127.0,127.0,110.0,84.0,-50.0
127.0,126.0,129.0,127.0,126.0,119.0,126.0,128.0,22.0,-105.0,-79.0,127.0,127.0,127.0,110.0,84.0,-50.0
126.0,126.0,129.0,127.0,127.0,119.0,126.0,128.0,22.0,-105.0,-79.0,127.0,127.0,127.0,110.0,84.0,-50.0
126.0,126.0,129.0,127.0,127.0,119.0,126.0,128.0,22.0,-105.0,-79.0,127.0,127.0,127.0,110.0,84.0,-50.0
126.0,126.0,129.0,127.0,127.0,119.0,126.0,128.0,22.0,-105.0,-79.0,127.0,127.0,127.0,110.0,84.0,-50.0
126.0,126.0,129.0,127.0,127.0,119.0,126.0,128.0,22.0,-105.0,-79.0,127.0,127.0,127.0,110.0,84.0,-50.0
127.0,126.0,128.0,128.0,127.0,118.0,126.0,128.0,22.0,-106.0,-79.0,127.0,127.0,127.0,110.0,84.0,-50.0
127.0,126.0,128.0,128.0,127.0,117.0,126.0,128.0,22.0,-106.0,-79.0,127.0,127.0,127.0,110.0,84.0,-50.0
126.0,126.0,128.0,128.0,126.0,119.0,126.0,128.0,22.0,-106.0,-79.0,127.0,127.0,127.0,110.0,84.0,-50.0
126.0,126.0,128.0,128.0,127.0,119.0,126.0,128.0,22.0,-106.0,-79.0,127.0,127.0,127.0,110.0,84.0,-50.0
126.0,126.0,128.0,128.0,127.0,119.0,126.0,128.0,22.0,-106.0,-79.0,127.0,127.0,127.0,110.0,84.0,-50.0
127.0,126.0,128.0,128.0,126.0,119.0,126.0,128.0,22.0,-106.0,-79.0,127.0,127.0,127.0,110.0,84.0,-50.0
127.0,126.0,128.0,128.0,126.0,119.0,126.0,128.0,22.0,-106.0,-79.0,127.0,127.0,127.0,110.0,84.0,-50.0
127.0,126.0,128.0,128.0,127.0,119.0,126.0,128.0,22.0,-106.0,-79.0,127.0,127.0,127.0,110.0,84.0,-50.0
127.0,126.0,128.0,128.0,127.0,118.0,126.0,128.0,22.0,-106.0,-79.0,127.0,127.0,127.0,110.0,84.0,-50.0
127.0,126.0,128.0,128.0,127.0,118.0,126.0,128.0,22.0,-106.0,-79.0,127.0,127.0,127.0,110.0,84.0,-50.0
126.0,125.0,129.0,127.0,126.0,118.0,126.0,128.0,21.0,-106.0,-79.0,127.0,127.0,127.0,110.0,84.0,-50.0
126.0,126.0,129.0,127.0,126.0,120.0,126.0,128.0,21.0,-106.0,-79.0,127.0,127.0,127.0,110.0,84.0,-50.0
126.0,126.0,129.0,127.0,126.0,120.0,126.0,128.0,21.0,-106.0,-79.0,127.0,127.0,127.0,110.0,84.0,-50.0
126.0,126.0,129.0,127.0,126.0,120.0,126.0,128.0,21.0,-106.0,-79.0,127.0,127.0,127.0,110.0,84.0,-50.0
126.0,126.0,129.0,127.0,126.0,120.0,126.0,128.0,21.0,-106.0,-79.0,127.0,127.0,127.0,110.0,84.0,-50.0
126.0,125.0,129.0,127.0,126.0,120.0,126.0,128.0,21.0,-106.0,-79.0,127.0,127.0,127.0,110.0,84.0,-50.0
126.0,125.0,129.0,127.0,126.0,120.0,126.0,128.0,21.0,-106.0,-79.0,127.0,127.0,127.0,110.0,84.0,-50.0
126.0,126.0,130.0,127.0,126.0,120.0,126.0,128.0,21.0,-106.0,-79.0,127.0,127.0,127.0,110.0,84.0,-50.0
126.0,125.0,130.0,127.0,126.0,119.0,126.0,128.0,21.0,-106.0,-79.0,127.0,127.0,127.0,110.0,84.0,-50.0
126.0,125.0,129.0,127.0,126.0,119.0,126.0,128.0,21.0,-106.0,-79.0,127.0,127.0,127.0,110.0,84.0,-50.0
126.0,125.0,131.0,127.0,126.0,120.0,126.0,128.0,20.0,-106.0,-79.0,127.0,127.0,127.0,110.0,84.0,-50.0
126.0,126.0,130.0,127.0,126.0,120.0,126.0,128.0,20.0,-106.0,-79.0,127.0,127.0,127.0,110.0,84.0,-50.0
126.0,126.0,130.0,127.0,126.0,120.0,126.0,128.0,20.0,-106.0,-79.0,127.0,127.0,127.0,110.0,84.0,-50.0
126.0,126.0,130.0,126.0,126.0,120.0,126.0,128.0,20.0,-106.0,-79.0,127.0,127.0,127.0,110.0,84.0,-50.0
126.0,126.0,130.0,126.0,126.0,120.0,126.0,128.0,20.0,-106.0,-79.0,127.0,127.0,127.0,110.0,84.0,-50.0
126.0,126.0,130.0,127.0,126.0,120.0,126.0,128.0,20.0,-106.0,-79.0,127.0,127.0,127.0,110.0,84.0,-50.0
126.0,126.0,130.0,127.0,126.0,120.0,126.0,128.0,20.0,-106.0,-79.0,127.0,127.0,127.0,110.0,84.0,-50.0
126.0,126.0,130.0,127.0,126.0,119.0,126.0,128.0,20.0,-106.0,-79.0,127.0,127.0,127.0,110.0,84.0,-50.0
126.0,126.0,130.0,127.0,126.0,119.0,126.0,128.0,20.0,-106.0,-79.0,127.0,127.0,127.0,110.0,84.0,-50.0
126.0,126.0,130.0,127.0,126.0,119.0,126.0,128.0,20.0,-106.0,-79.0,127.0,127.0,127.0,110.0,84.0,-50.0
126.0,125.0,127.0,128.0,127.0,118.0,126.0,128.0,19.0,-105.0,-78.0,127.0,127.0,127.0,110.0,84.0,-50.0
126.0,125.0,127.0,128.0,127.0,118.0,126.0,128.0,19.0,-105.0,-78.0,127.0,127.0,127.0,110.0,84.0,-50.0
126.0,125.0,127.0,128.0,127.0,119.0,126.0,128.0,19.0,-105.0,-78.0,127.0,127.0,127.0,110.0,84.0,-50.0
126.0,126.0,126.0,128.0,127.0,120.0,126.0,128.0,19.0,-105.0,-78.0,127.0,127.0,127.0,110.0,84.0,-50.0
126.0,126.0,126.0,128.0,127.0,120.0,126.0,128.0,19.0,-105.0,-78.0,127.0,127.0,127.0,110.0,84.0,-50.0
126.0,126.0,126.0,128.0,127.0,119.0,126.0,128.0,19.0,-105.0,-78.0,127.0,127.0,127.0,110.0,84.0,-50.0
126.0,125.0,126.0,128.0,127.0,119.0,126.0,128.0,19.0,-105.0,-78.0,127.0,127.0,127.0,110.0,84.0,-50.0
126.0,126.0,126.0,128.0,127.0,119.0,126.0,128.0,19.0,-105.0,-78.0,127.0,127.0,127.0,110.0,84.0,-50.0
126.0,126.0,126.0,128.0,127.0,119.0,126.0,128.0,19.0,-105.0,-78.0,127.0,127.0,127.0,110.0,84.0,-50.0
126.0,125.0,127.0,128.0,127.0,117.0,126.0,128.0,19.0,-105.0,-78.0,127.0,127.0,127.0,110.0,84.0,-50.0
126.0,126.0,125.0,128.0,127.0,120.0,126.0,128.0,18.0,-105.0,-78.0,127.0,127.0,127.0,110.0,84.0,-50.0
126.0,126.0,125.0,128.0,127.0,120.0,126.0,128.0,18.0,-105.0,-78.0,127.0,127.0,127.0,110.0,84.0,-50.0
126.0,126.0,125.0,128.0,127.0,120.0,126.0,128.0,18.0,-105.0,-78.0,127.0,127.0,127.0,110.0,84.0,-50.0
126.0,126.0,125.0,128.0,127.0,120.0,126.0,128.0,18.0,-105.0,-78.0,127.0,127.0,127.0,110.0,84.0,-50.0
126.0,126.0,125.0,128.0,127.0,119.0,126.0,128.0,18.0,-105.0,-78.0,127.0,127.0,127.0,110.0,84.0,-50.0
126.0,126.0,125.0,128.0,127.0,119.0,126.0,128.0,18.0,-105.0,-78.0,127.0,127.0,127.0,110.0,84.0,-50.0
126.0,126.0,125.0,128.0,127.0,119.0,126.0,128.0,18.0,-105.0,-78.0,127.0,127.0,127.0,110.0,84.0,-50.0
126.0,126.0,125.0,129.0,127.0,119.0,126.0,128.0,18.0,-105.0,-78.0,127.0,127.0,127.0,110.0,84.0,-50.0
126.0,126.0,125.0,128.0,127.0,120.0,126.0,128.0,18.0,-105.0,-78.0,127.0,127.0,127.0,110.0,84.0,-50.0
126.0,126.0,125.0,128.0,127.0,120.0,126.0,128.0,18.0,-105.0,-78.0,127.0,127.0,127.0,110.0,84.0,-50.0
126.0,125.0,126.0,128.0,126.0,120.0,126.0,128.0,18.0,-105.0,-78.0,127.0,127.0,127.0,110.0,84.0,-50.0
126.0,125.0,126.0,128.0,127.0,120.0,126.0,128.0,18.0,-105.0,-78.0,127.0,127.0,127.0,110.0,84.0,-50.0
126.0,125.0,126.0,128.0,127.0,120.0,126.0,128.0,18.0,-105.0,-78.0,127.0,127.0,127.0,110.0,84.0,-50.0
126.0,125.0,126.0,128.0,126.0,119.0,127.0,128.0,18.0,-105.0,-78.0,127.0,127.0,127.0,110.0,84.0,-50.0
126.0,125.0,126.0,128.0,126.0,119.0,127.0,128.0,18.0,-105.0,-78.0,127.0,127.0,127.0,110.0,84.0,-50.0
126.0,125.0,126.0,128.0,127.0,119.0,127.0,128.0,18.0,-105.0,-78.0,127.0,127.0,127.0,110.0,84.0,-50.0
126.0,125.0,126.0,128.0,127.0,119.0,127.0,128.0,18.0,-105.0,-78.0,127.0,127.0,127.0,110.0,84.0,-50.0
126.0,126.0,126.0,128.0,126.0,120.0,126.0,128.0,18.0,-105.0,-78.0,127.0,127.0,127.0,110.0,84.0,-50.0
126.0,126.0,126.0,128.0,126.0,120.0,126.0,128.0,18.0,-105.0,-78.0,127.0,127.0,127.0,110.0,84.0,-50.0
126.0,126.0,126.0,128.0,127.0,120.0,126.0,128.0,18.0,-105.0,-78.0,127.0,127.0,127.0,110.0,84.0,-50.0
126.0,126.0,126.0,128.0,127.0,119.0,127.0,128.0,18.0,-105.0,-78.0,127.0,127.0,127.0,110.0,84.0,-50.0
126.0,125.0,126.0,128.0,127.0,119.0,126.0,128.0,18.0,-105.0,-78.0,127.0,127.0,127.0,110.0,84.0,-50.0
126.0,126.0,126.0,128.0,127.0,119.0,127.0,128.0,18.0,-105.0,-78.0,127.0,127.0,127.0,110.0,84.0,-50.0
126.0,126.0,126.0,128.0,127.0,119.0,127.0,128.0,18.0,-105.0,-78.0,127.0,127.0,127.0,110.0,84.0,-50.0
126.0,126.0,126.0,128.0,127.0,119.0,127.0,128.0,18.0,-105.0,-78.0,127.0,127.0,127.0,110.0,84.0,-50.0
126.0,126.0,126.0,128.0,127.0,118.0,127.0,128.0,18.0,-105.0,-78.0,127.0,127.0,127.0,110.0,84.0,-50.0
126.0,126.0,126.0,128.0,127.0,120.0,126.0,128.0,18.0,-105.0,-78.0,127.0,127.0,127.0,110.0,84.0,-50.0
126.0,126.0,126.0,128.0,127.0,120.0,126.0,128.0,18.0,-105.0,-78.0,127.0,127.0,127.0,110.0,84.0,-50.0
126.0,126.0,126.0,128.0,127.0,120.0,126.0,128.0,18.0,-105.0,-78.0,127.0,127.0,127.0,110.0,84.0,-50.0
126.0,126.0,126.0,128.0,127.0,120.0,126.0,128.0,18.0,-105.0,-78.0,127.0,127.0,127.0,110.0,84.0,-50.0
127.0,125.0,126.0,129.0,127.0,119.0,126.0,128.0,19.0,-105.0,-79.0,127.0,127.0,127.0,110.0,84.0,-50.0
126.0,125.0,126.0,129.0,127.0,119.0,127.0,128.0,19.0,-105.0,-79.0,127.0,127.0,127.0,110.0,84.0,-50.0
126.0,125.0,126.0,129.0,127.0,119.0,127.0,128.0,19.0,-105.0,-79.0,127.0,127.0,127.0,110.0,84.0,-50.0
126.0,125.0,126.0,128.0,127.0,118.0,127.0,128.0,19.0,-105.0,-79.0,127.0,127.0,127.0,110.0,84.0,-50.0
126.0,125.0,126.0,129.0,127.0,118.0,127.0,128.0,19.0,-105.0,-79.0,127.0,127.0,127.0,110.0,84.0,-50.0
127.0,126.0,126.0,128.0,127.0,120.0,126.0,128.0,19.0,-105.0,-79.0,127.0,127.0,127.0,110.0,84.0,-50.0
127.0,126.0,126.0,128.0,127.0,120.0,126.0,128.0,19.0,-105.0,-79.0,127.0,127.0,127.0,110.0,84.0,-50.0
127.0,126.0,126.0,128.0,127.0,120.0,126.0,128.0,19.0,-105.0,-79.0,127.0,127.0,127.0,110.0,84.0,-50.0
127.0,126.0,126.0,128.0,127.0,120.0,126.0,128.0,19.0,-105.0,-79.0,127.0,127.0,127.0,110.0,84.0,-50.0
127.0,125.0,126.0,129.0,127.0,119.0,126.0,128.0,19.0,-105.0,-79.0,127.0,127.0,127.0,110.0,84.0,-50.0
126.0,125.0,128.0,128.0,126.0,120.0,126.0,128.0,20.0,-105.0,-79.0,127.0,127.0,127.0,110.0,84.0,-50.0
126.0,125.0,128.0,128.0,126.0,120.0,126.0,128.0,20.0,-105.0,-79.0,127.0,127.0,127.0,110.0,84.0,-50.0
126.0,125.0,128.0,128.0,126.0,120.0,126.0,128.0,20.0,-105.0,-79.0,127.0,127.0,127.0,110.0,84.0,-50.0
126.0,125.0,128.0,128.0,126.0,119.0,126.0,128.0,20.0,-105.0,-79.0,127.0,127.0,127.0,110.0,84.0,-50.0
126.0,126.0,127.0,128.0,126.0,121.0,126.0,128.0,20.0,-105.0,-79.0,127.0,127.0,127.0,110.0,84.0,-50.0
126.0,126.0,127.0,128.0,126.0,121.0,126.0,128.0,20.0,-105.0,-79.0,127.0,127.0,127.0,110.0,84.0,-50.0
126.0,126.0,127.0,128.0,126.0,121.0,126.0,128.0,20.0,-105.0,-79.0,127.0,127.0,127.0,110.0,84.0,-50.0
126.0,126.0,128.0,128.0,126.0,121.0,126.0,128.0,20.0,-105.0,-79.0,127.0,127.0,127.0,110.0,84.0,-50.0
126.0,125.0,128.0,128.0,126.0,120.0,126.0,128.0,20.0,-105.0,-79.0,127.0,127.0,127.0,110.0,84.0,-50.0
126.0,125.0,128.0,128.0,126.0,120.0,126.0,128.0,20.0,-105.0,-79.0,127.0,127.0,127.0,110.0,84.0,-50.0
127.0,126.0,133.0,128.0,127.0,120.0,126.0,128.0,21.0,-105.0,-79.0,127.0,127.0,127.0,110.0,84.0,-50.0
127.0,126.0,133.0,128.0,127.0,119.0,126.0,128.0,21.0,-105.0,-79.0,127.0,127.0,127.0,110.0,84.0,-50.0
127.0,126.0,133.0,128.0,127.0,119.0,126.0,128.0,21.0,-105.0,-79.0,127.0,127.0,127.0,110.0,84.0,-50.0
127.0,126.0,132.0,128.0,127.0,121.0,126.0,128.0,21.0,-105.0,-79.0,127.0,127.0,127.0,110.0,84.0,-50.0
127.0,126.0,132.0,128.0,127.0,121.0,126.0,128.0,21.0,-105.0,-79.0,127.0,127.0,127.0,110.0,84.0,-50.0
127.0,126.0,132.0,128.0,127.0,121.0,126.0,128.0,21.0,-105.0,-79.0,127.0,127.0,127.0,110.0,84.0,-50.0
127.0,126.0,132.0,128.0,127.0,121.0,126.0,128.0,21.0,-105.0,-79.0,127.0,127.0,127.0,110.0,84.0,-50.0
127.0,126.0,132.0,128.0,127.0,121.0,126.0,128.0,21.0,-105.0,-79.0,127.0,127.0,127.0,110.0,84.0,-50.0
127.0,126.0,133.0,128.0,127.0,120.0,126.0,128.0,21.0,-105.0,-79.0,127.0,127.0,127.0,110.0,84.0,-50.0
127.0,126.0,133.0,128.0,127.0,120.0,126.0,128.0,21.0,-105.0,-79.0,127.0,127.0,127.0,110.0,84.0,-50.0
126.0,126.0,133.0,128.0,126.0,119.0,126.0,128.0,21.0,-105.0,-79.0,127.0,127.0,127.0,110.0,84.0,-50.0
126.0,126.0,133.0,128.0,127.0,119.0,126.0,128.0,21.0,-105.0,-79.0,127.0,127.0,127.0,110.0,84.0,-50.0
126.0,126.0,133.0,128.0,127.0,120.0,126.0,128.0,21.0,-105.0,-79.0,127.0,127.0,127.0,110.0,84.0,-50.0
127.0,126.0,133.0,128.0,127.0,120.0,126.0,128.0,21.0,-105.0,-79.0,127.0,127.0,127.0,110.0,84.0,-50.0
126.0,126.0,133.0,128.0,127.0,120.0,126.0,128.0,21.0,-105.0,-79.0,127.0,127.0,127.0,110.0,84.0,-50.0
127.0,126.0,133.0,128.0,127.0,120.0,126.0,128.0,21.0,-105.0,-79.0,127.0,127.0,127.0,110.0,84.0,-50.0
126.0,126.0,133.0,128.0,127.0,120.0,126.0,128.0,21.0,-105.0,-79.0,127.0,127.0,127.0,110.0,84.0,-50.0
126.0,126.0,133.0,128.0,127.0,120.0,126.0,128.0,21.0,-105.0,-79.0,127.0,127.0,127.0,110.0,84.0,-50.0
126.0,126.0,133.0,128.0,127.0,119.0,126.0,128.0,21.0,-105.0,-79.0,127.0,127.0,127.0,110.0,84.0,-50.0
126.0,126.0,133.0,128.0,127.0,119.0,126.0,128.0,21.0,-105.0,-79.0,127.0,127.0,127.0,110.0,84.0,-50.0
126.0,126.0,130.0,128.0,127.0,121.0,126.0,128.0,21.0,-106.0,-79.0,127.0,127.0,127.0,111.0,84.0,-50.0
126.0,125.0,131.0,128.0,127.0,118.0,126.0,127.0,21.0,-106.0,-79.0,127.0,127.0,127.0,111.0,84.0,-50.0
126.0,126.0,131.0,128.0,127.0,119.0,126.0,127.0,21.0,-106.0,-79.0,127.0,127.0,127.0,111.0,84.0,-50.0
126.0,126.0,131.0,128.0,127.0,120.0,126.0,127.0,21.0,-106.0,-79.0,127.0,127.0,127.0,111.0,84.0,-50.0
126.0,126.0,131.0,128.0,127.0,120.0,126.0,127.0,21.0,-106.0,-79.0,127.0,127.0,127.0,111.0,84.0,-50.0
126.0,126.0,131.0,128.0,127.0,120.0,126.0,128.0,21.0,-106.0,-79.0,127.0,127.0,127.0,111.0,84.0,-50.0
126.0,126.0,131.0,128.0,127.0,120.0,126.0,128.0,21.0,-106.0,-79.0,127.0,127.0,127.0,111.0,84.0,-50.0
126.0,126.0,131.0,128.0,127.0,120.0,126.0,128.0,21.0,-106.0,-79.0,127.0,127.0,127.0,111.0,84.0,-50.0
126.0,126.0,131.0,128.0,127.0,120.0,126.0,128.0,21.0,-106.0,-79.0,127.0,127.0,127.0,111.0,84.0,-50.0
126.0,126.0,130.0,128.0,127.0,121.0,126.0,128.0,21.0,-106.0,-79.0,127.0,127.0,127.0,111.0,84.0,-50.0
127.0,125.0,129.0,127.0,126.0,120.0,126.0,128.0,20.0,-106.0,-79.0,127.0,127.0,127.0,111.0,84.0,-50.0
127.0,126.0,129.0,127.0,126.0,121.0,126.0,128.0,20.0,-106.0,-79.0,127.0,127.0,127.0,111.0,84.0,-50.0
127.0,126.0,129.0,127.0,126.0,122.0,126.0,128.0,20.0,-106.0,-79.0,127.0,127.0,127.0,111.0,84.0,-50.0
127.0,126.0,129.0,127.0,126.0,122.0,126.0,128.0,20.0,-106.0,-79.0,127.0,127.0,127.0,111.0,84.0,-50.0
127.0,126.0,129.0,127.0,126.0,122.0,126.0,128.0,20.0,-106.0,-79.0,127.0,127.0,127.0,111.0,84.0,-50.0
127.0,126.0,129.0,127.0,126.0,121.0,126.0,128.0,20.0,-106.0,-79.0,127.0,127.0,127.0,111.0,84.0,-50.0
127.0,126.0,129.0,128.0,126.0,122.0,126.0,128.0,20.0,-106.0,-79.0,127.0,127.0,127.0,111.0,84.0,-50.0
127.0,126.0,129.0,128.0,126.0,122.0,126.0,128.0,20.0,-106.0,-79.0,127.0,127.0,127.0,111.0,84.0,-50.0
127.0,126.0,128.0,128.0,127.0,123.0,126.0,128.0,20.0,-106.0,-79.0,127.0,127.0,127.0,111.0,84.0,-50.0
127.0,126.0,128.0,128.0,127.0,123.0,126.0,128.0,20.0,-106.0,-79.0,127.0,127.0,127.0,111.0,84.0,-50.0
127.0,125.0,128.0,128.0,126.0,121.0,126.0,127.0,19.0,-106.0,-79.0,127.0,127.0,127.0,111.0,84.0,-50.0
126.0,126.0,128.0,128.0,126.0,122.0,126.0,127.0,19.0,-106.0,-79.0,127.0,127.0,127.0,111.0,84.0,-50.0
126.0,126.0,128.0,128.0,127.0,122.0,126.0,128.0,19.0,-106.0,-79.0,127.0,127.0,127.0,111.0,84.0,-50.0
127.0,126.0,128.0,128.0,126.0,122.0,126.0,128.0,19.0,-106.0,-79.0,127.0,127.0,127.0,111.0,84.0,-50.0
126.0,126.0,128.0,128.0,127.0,122.0,126.0,128.0,19.0,-106.0,-79.0,127.0,127.0,127.0,111.0,84.0,-50.0
127.0,126.0,128.0,128.0,127.0,122.0,126.0,128.0,19.0,-106.0,-79.0,127.0,127.0,127.0,111.0,84.0,-50.0
126.0,126.0,128.0,128.0,127.0,122.0,126.0,128.0,19.0,-106.0,-79.0,127.0,127.0,127.0,111.0,84.0,-50.0
126.0,126.0,127.0,128.0,127.0,123.0,126.0,128.0,19.0,-106.0,-79.0,127.0,127.0,127.0,111.0,84.0,-50.0
126.0,126.0,127.0,128.0,127.0,123.0,126.0,128.0,19.0,-106.0,-79.0,127.0,127.0,127.0,111.0,84.0,-50.0
127.0,125.0,128.0,128.0,126.0,120.0,126.0,127.0,19.0,-106.0,-79.0,127.0,127.0,127.0,111.0,84.0,-50.0
126.0,126.0,126.0,127.0,127.0,122.0,126.0,128.0,19.0,-106.0,-79.0,127.0,127.0,127.0,111.0,84.0,-50.0
126.0,126.0,126.0,128.0,127.0,123.0,126.0,128.0,19.0,-106.0,-79.0,127.0,127.0,127.0,111.0,84.0,-50.0
126.0,126.0,126.0,128.0,127.0,122.0,126.0,128.0,19.0,-106.0,-79.0,127.0,127.0,127.0,111.0,84.0,-50.0
126.0,126.0,126.0,128.0,127.0,122.0,126.0,128.0,19.0,-106.0,-79.0,127.0,127.0,127.0,111.0,84.0,-50.0
126.0,126.0,126.0,128.0,127.0,122.0,126.0,128.0,19.0,-106.0,-79.0,127.0,127.0,127.0,111.0,84.0,-50.0
126.0,126.0,126.0,128.0,127.0,122.0,126.0,128.0,19.0,-106.0,-79.0,127.0,127.0,127.0,111.0,84.0,-50.0
126.0,126.0,126.0,128.0,127.0,121.0,126.0,128.0,19.0,-106.0,-79.0,127.0,127.0,127.0,111.0,84.0,-50.0
126.0,125.0,126.0,128.0,126.0,121.0,126.0,128.0,19.0,-106.0,-79.0,127.0,127.0,127.0,111.0,84.0,-50.0
126.0,125.0,126.0,128.0,126.0,120.0,126.0,127.0,19.0,-106.0,-79.0,127.0,127.0,127.0,111.0,84.0,-50.0
126.0,125.0,126.0,128.0,126.0,121.0,126.0,127.0,19.0,-106.0,-79.0,127.0,127.0,127.0,111.0,84.0,-50.0
126.0,126.0,125.0,128.0,127.0,123.0,126.0,128.0,18.0,-106.0,-79.0,127.0,127.0,127.0,111.0,84.0,-50.0
126.0,126.0,125.0,128.0,127.0,123.0,126.0,128.0,18.0,-106.0,-79.0,127.0,127.0,127.0,111.0,84.0,-50.0
126.0,126.0,125.0,128.0,127.0,123.0,126.0,128.0,18.0,-106.0,-79.0,127.0,127.0,127.0,111.0,84.0,-50.0
126.0,126.0,125.0,128.0,127.0,123.0,126.0,128.0,18.0,-106.0,-79.0,127.0,127.0,127.0,111.0,84.0,-50.0
126.0,126.0,125.0,128.0,127.0,123.0,126.0,128.0,18.0,-106.0,-79.0,127.0,127.0,127.0,111.0,84.0,-50.0
126.0,126.0,125.0,128.0,127.0,122.0,127.0,128.0,18.0,-106.0,-79.0,127.0,127.0,127.0,111.0,84.0,-50.0
126.0,126.0,125.0,128.0,127.0,122.0,127.0,128.0,18.0,-106.0,-79.0,127.0,127.0,127.0,111.0,84.0,-50.0
126.0,126.0,125.0,128.0,127.0,122.0,126.0,128.0,18.0,-106.0,-79.0,127.0,127.0,127.0,111.0,84.0,-50.0
126.0,126.0,125.0,128.0,127.0,122.0,126.0,128.0,18.0,-106.0,-79.0,127.0,127.0,127.0,111.0,84.0,-50.0
126.0,126.0,125.0,128.0,127.0,123.0,126.0,128.0,18.0,-106.0,-79.0,127.0,127.0,127.0,111.0,84.0,-50.0
126.0,126.0,126.0,128.0,126.0,123.0,126.0,128.0,18.0,-106.0,-79.0,127.0,127.0,127.0,111.0,84.0,-50.0
126.0,126.0,126.0,128.0,126.0,123.0,126.0,128.0,18.0,-106.0,-79.0,127.0,127.0,127.0,111.0,84.0,-50.0
127.0,126.0,126.0,128.0,127.0,123.0,127.0,128.0,18.0,-106.0,-79.0,127.0,127.0,127.0,111.0,84.0,-50.0
127.0,126.0,126.0,128.0,127.0,123.0,127.0,128.0,18.0,-106.0,-79.0,127.0,127.0,127.0,111.0,84.0,-50.0
127.0,126.0,126.0,128.0,127.0,122.0,127.0,128.0,18.0,-106.0,-79.0,127.0,127.0,127.0,111.0,84.0,-50.0
126.0,126.0,125.0,128.0,126.0,121.0,126.0,128.0,18.0,-106.0,-79.0,127.0,127.0,127.0,111.0,84.0,-50.0
126.0,126.0,126.0,128.0,126.0,121.0,126.0,128.0,18.0,-106.0,-79.0,127.0,127.0,127.0,111.0,84.0,-50.0
126.0,126.0,126.0,128.0,126.0,121.0,126.0,128.0,18.0,-106.0,-79.0,127.0,127.0,127.0,111.0,84.0,-50.0
126.0,126.0,125.0,128.0,126.0,123.0,126.0,128.0,18.0,-106.0,-79.0,127.0,127.0,127.0,111.0,84.0,-50.0
126.0,126.0,125.0,128.0,126.0,123.0,126.0,128.0,18.0,-106.0,-79.0,127.0,127.0,127.0,111.0,84.0,-50.0
126.0,126.0,125.0,129.0,127.0,122.0,126.0,128.0,18.0,-106.0,-79.0,127.0,127.0,127.0,111.0,84.0,-50.0
126.0,126.0,125.0,129.0,127.0,122.0,126.0,128.0,18.0,-106.0,-79.0,127.0,127.0,127.0,111.0,84.0,-50.0
126.0,126.0,125.0,129.0,127.0,122.0,126.0,128.0,18.0,-106.0,-79.0,127.0,127.0,127.0,111.0,84.0,-50.0
126.0,126.0,125.0,129.0,127.0,121.0,127.0,128.0,18.0,-106.0,-79.0,127.0,127.0,127.0,111.0,84.0,-50.0
126.0,126.0,125.0,128.0,127.0,120.0,126.0,128.0,18.0,-106.0,-79.0,127.0,127.0,127.0,111.0,84.0,-50.0
126.0,126.0,125.0,128.0,127.0,120.0,126.0,128.0,18.0,-106.0,-79.0,127.0,127.0,127.0,111.0,84.0,-50.0
126.0,126.0,125.0,128.0,127.0,120.0,126.0,128.0,18.0,-106.0,-79.0,127.0,127.0,127.0,111.0,84.0,-50.0
126.0,126.0,125.0,128.0,127.0,121.0,126.0,128.0,18.0,-106.0,-79.0,127.0,127.0,127.0,111.0,84.0,-50.0
126.0,126.0,125.0,129.0,127.0,122.0,126.0,128.0,18.0,-106.0,-79.0,127.0,127.0,127.0,111.0,84.0,-50.0
126.0,126.0,125.0,129.0,127.0,122.0,126.0,128.0,18.0,-106.0,-79.0,127.0,127.0,127.0,111.0,84.0,-50.0
126.0,127.0,124.0,128.0,126.0,121.0,126.0,128.0,19.0,-105.0,-79.0,127.0,127.0,127.0,111.0,84.0,-50.0
126.0,127.0,124.0,128.0,127.0,121.0,126.0,128.0,19.0,-105.0,-79.0,127.0,127.0,127.0,111.0,84.0,-50.0
126.0,127.0,124.0,128.0,127.0,121.0,126.0,128.0,19.0,-105.0,-79.0,127.0,127.0,127.0,111.0,84.0,-50.0
126.0,126.0,124.0,128.0,127.0,119.0,126.0,128.0,19.0,-105.0,-79.0,127.0,127.0,127.0,111.0,84.0,-50.0
126.0,126.0,125.0,128.0,127.0,120.0,126.0,128.0,19.0,-105.0,-79.0,127.0,127.0,127.0,111.0,84.0,-50.0
126.0,126.0,125.0,128.0,127.0,120.0,126.0,128.0,19.0,-105.0,-79.0,127.0,127.0,127.0,111.0,84.0,-50.0
126.0,127.0,124.0,128.0,127.0,120.0,126.0,128.0,19.0,-105.0,-79.0,127.0,127.0,127.0,111.0,84.0,-50.0
126.0,127.0,124.0,128.0,127.0,121.0,126.0,128.0,19.0,-105.0,-79.0,127.0,127.0,127.0,111.0,84.0,-50.0
126.0,127.0,124.0,128.0,127.0,121.0,126.0,128.0,19.0,-105.0,-79.0,127.0,127.0,127.0,111.0,84.0,-50.0
126.0,127.0,124.0,128.0,127.0,121.0,126.0,128.0,19.0,-105.0,-79.0,127.0,127.0,127.0,111.0,84.0,-50.0
126.0,126.0,125.0,127.0,126.0,121.0,126.0,128.0,20.0,-105.0,-79.0,127.0,127.0,127.0,111.0,84.0,-50.0
126.0,126.0,126.0,127.0,126.0,120.0,126.0,128.0,20.0,-105.0,-79.0,127.0,127.0,127.0,111.0,84.0,-50.0
126.0,125.0,125.0,128.0,126.0,118.0,126.0,128.0,20.0,-105.0,-79.0,127.0,127.0,127.0,111.0,84.0,-50.0
126.0,125.0,126.0,128.0,126.0,118.0,126.0,128.0,20.0,-105.0,-79.0,127.0,127.0,127.0,111.0,84.0,-50.0
127.0,125.0,126.0,127.0,126.0,119.0,126.0,128.0,20.0,-105.0,-79.0,127.0,127.0,127.0,111.0,84.0,-50.0
127.0,125.0,126.0,127.0,126.0,119.0,126.0,128.0,20.0,-105.0,-79.0,127.0,127.0,127.0,111.0,84.0,-50.0
126.0,125.0,126.0,127.0,126.0,118.0,126.0,128.0,20.0,-105.0,-79.0,127.0,127.0,127.0,111.0,84.0,-50.0
126.0,125.0,126.0,127.0,126.0,119.0,126.0,128.0,20.0,-105.0,-79.0,127.0,127.0,127.0,111.0,84.0,-50.0
126.0,126.0,126.0,127.0,126.0,119.0,126.0,128.0,20.0,-105.0,-79.0,127.0,127.0,127.0,111.0,84.0,-50.0
126.0,126.0,125.0,127.0,126.0,121.0,126.0,128.0,20.0,-105.0,-79.0,127.0,127.0,127.0,111.0,84.0,-50.0
126.0,126.0,127.0,127.0,127.0,121.0,126.0,128.0,21.0,-105.0,-79.0,127.0,127.0,127.0,111.0,84.0,-50.0
126.0,126.0,126.0,128.0,127.0,121.0,126.0,128.0,21.0,-105.0,-79.0,127.0,127.0,127.0,111.0,84.0,-50.0
126.0,126.0,126.0,128.0,127.0,122.0,126.0,128.0,21.0,-105.0,-79.0,127.0,127.0,127.0,111.0,84.0,-50.0
