emg1,emg2,emg3,emg4,emg5,emg6,emg7,emg8,acc_x,acc_y,acc_z,gyro_x,gyro_y,gyro_z,angle_pitch,angle_roll,angle_yaw
127.0,127.0,126.0,128.0,127.0,123.0,127.0,128.0,19.0,-106.0,-79.0,127.0,127.0,127.0,111.0,84.0,-50.0
127.0,126.0,126.0,127.0,127.0,123.0,127.0,128.0,19.0,-106.0,-79.0,127.0,127.0,127.0,111.0,84.0,-50.0
127.0,126.0,126.0,127.0,127.0,123.0,127.0,128.0,19.0,-106.0,-79.0,127.0,127.0,127.0,111.0,84.0,-50.0
127.0,126.0,126.0,127.0,127.0,123.0,126.0,128.0,19.0,-106.0,-79.0,127.0,127.0,127.0,111.0,84.0,-50.0
127.0,126.0,127.0,127.0,127.0,122.0,126.0,128.0,19.0,-106.0,-79.0,127.0,127.0,127.0,111.0,84.0,-50.0
127.0,126.0,127.0,127.0,127.0,122.0,126.0,128.0,19.0,-106.0,-79.0,127.0,127.0,127.0,111.0,84.0,-50.0
127.0,126.0,127.0,127.0,127.0,122.0,126.0,128.0,19.0,-106.0,-79.0,127.0,127.0,127.0,111.0,84.0,-50.0
127.0,127.0,127.0,126.0,127.0,123.0,126.0,128.0,20.0,-106.0,-79.0,127.0,127.0,127.0,111.0,84.0,-50.0
127.0,126.0,127.0,126.0,127.0,123.0,126.0,128.0,20.0,-106.0,-79.0,127.0,127.0,127.0,111.0,84.0,-50.0
127.0,126.0,127.0,126.0,127.0,123.0,126.0,128.0,20.0,-106.0,-79.0,127.0,127.0,127.0,111.0,84.0,-50.0
127.0,126.0,127.0,126.0,127.0,123.0,126.0,128.0,20.0,-106.0,-79.0,127.0,127.0,127.0,111.0,84.0,-50.0
127.0,126.0,127.0,125.0,127.0,123.0,126.0,128.0,20.0,-106.0,-79.0,127.0,127.0,127.0,111.0,84.0,-50.0
127.0,126.0,128.0,125.0,127.0,123.0,126.0,128.0,20.0,-106.0,-79.0,127.0,127.0,127.0,111.0,84.0,-50.0
127.0,126.0,128.0,125.0,127.0,123.0,126.0,128.0,20.0,-106.0,-79.0,127.0,127.0,127.0,111.0,84.0,-50.0
127.0,126.0,128.0,125.0,127.0,122.0,126.0,128.0,20.0,-106.0,-79.0,127.0,127.0,127.0,111.0,84.0,-50.0
127.0,126.0,128.0,126.0,127.0,122.0,126.0,128.0,20.0,-106.0,-79.0,127.0,127.0,127.0,111.0,84.0,-50.0
127.0,127.0,126.0,126.0,127.0,123.0,126.0,128.0,20.0,-106.0,-79.0,127.0,127.0,127.0,111.0,84.0,-50.0
127.0,126.0,128.0,127.0,127.0,123.0,126.0,128.0,21.0,-106.0,-79.0,127.0,127.0,127.0,111.0,84.0,-50.0
126.0,126.0,128.0,127.0,127.0,124.0,126.0,128.0,21.0,-106.0,-79.0,127.0,127.0,127.0,111.0,84.0,-50.0
127.0,126.0,128.0,127.0,127.0,124.0,126.0,128.0,21.0,-106.0,-79.0,127.0,127.0,127.0,111.0,84.0,-50.0
127.0,126.0,128.0,127.0,127.0,123.0,126.0,128.0,21.0,-106.0,-79.0,127.0,127.0,127.0,111.0,84.0,-50.0
127.0,126.0,128.0,127.0,127.0,123.0,126.0,128.0,21.0,-106.0,-79.0,127.0,127.0,127.0,111.0,84.0,-50.0
127.0,126.0,128.0,127.0,127.0,123.0,126.0,128.0,21.0,-106.0,-79.0,127.0,127.0,127.0,111.0,84.0,-50.0
127.0,125.0,129.0,127.0,127.0,123.0,126.0,128.0,21.0,-106.0,-79.0,127.0,127.0,127.0,111.0,84.0,-50.0
127.0,125.0,129.0,127.0,127.0,123.0,126.0,128.0,21.0,-106.0,-79.0,127.0,127.0,127.0,111.0,84.0,-50.0
126.0,126.0,127.0,128.0,127.0,123.0,126.0,128.0,21.0,-106.0,-79.0,127.0,127.0,127.0,111.0,84.0,-50.0
127.0,126.0,128.0,128.0,127.0,123.0,126.0,128.0,21.0,-106.0,-79.0,127.0,127.0,127.0,111.0,84.0,-50.0
127.0,126.0,128.0,127.0,127.0,123.0,126.0,128.0,22.0,-107.0,-79.0,127.0,127.0,127.0,111.0,84.0,-50.0
127.0,126.0,128.0,127.0,127.0,123.0,126.0,128.0,22.0,-107.0,-79.0,127.0,127.0,127.0,111.0,84.0,-50.0
127.0,126.0,128.0,127.0,127.0,123.0,126.0,128.0,22.0,-107.0,-79.0,127.0,127.0,127.0,111.0,84.0,-50.0
127.0,126.0,128.0,127.0,127.0,123.0,126.0,128.0,22.0,-107.0,-79.0,127.0,127.0,127.0,111.0,84.0,-50.0
127.0,126.0,128.0,127.0,127.0,123.0,126.0,128.0,22.0,-107.0,-79.0,127.0,127.0,127.0,111.0,84.0,-50.0
127.0,126.0,128.0,127.0,127.0,124.0,126.0,128.0,22.0,-107.0,-79.0,127.0,127.0,127.0,111.0,84.0,-50.0
127.0,126.0,128.0,127.0,127.0,124.0,126.0,128.0,22.0,-107.0,-79.0,127.0,127.0,127.0,111.0,84.0,-50.0
127.0,126.0,128.0,127.0,127.0,121.0,126.0,128.0,22.0,-107.0,-79.0,127.0,127.0,127.0,111.0,84.0,-50.0
127.0,126.0,128.0,127.0,126.0,121.0,126.0,128.0,22.0,-107.0,-79.0,127.0,127.0,127.0,111.0,84.0,-50.0
127.0,126.0,128.0,127.0,127.0,123.0,126.0,128.0,22.0,-107.0,-79.0,127.0,127.0,127.0,111.0,84.0,-50.0
127.0,126.0,128.0,127.0,127.0,122.0,126.0,128.0,22.0,-107.0,-79.0,127.0,127.0,127.0,111.0,84.0,-50.0
127.0,126.0,128.0,127.0,127.0,122.0,126.0,128.0,22.0,-107.0,-79.0,127.0,127.0,127.0,111.0,84.0,-50.0
127.0,126.0,128.0,127.0,127.0,122.0,126.0,128.0,22.0,-107.0,-79.0,127.0,127.0,127.0,111.0,84.0,-50.0
127.0,126.0,128.0,127.0,127.0,122.0,126.0,128.0,22.0,-107.0,-79.0,127.0,127.0,127.0,111.0,84.0,-50.0
127.0,126.0,128.0,127.0,127.0,123.0,126.0,128.0,22.0,-107.0,-79.0,127.0,127.0,127.0,111.0,84.0,-50.0
127.0,126.0,128.0,127.0,127.0,124.0,126.0,128.0,22.0,-107.0,-79.0,127.0,127.0,127.0,111.0,84.0,-50.0
127.0,126.0,128.0,127.0,127.0,120.0,127.0,128.0,22.0,-107.0,-79.0,127.0,127.0,127.0,111.0,84.0,-50.0
127.0,126.0,128.0,127.0,127.0,120.0,126.0,128.0,22.0,-107.0,-79.0,127.0,127.0,127.0,111.0,84.0,-50.0
127.0,126.0,128.0,127.0,127.0,122.0,126.0,128.0,22.0,-107.0,-79.0,127.0,127.0,127.0,111.0,84.0,-50.0
127.0,126.0,128.0,127.0,127.0,122.0,126.0,128.0,22.0,-107.0,-79.0,127.0,127.0,127.0,111.0,84.0,-50.0
127.0,125.0,128.0,126.0,126.0,122.0,126.0,128.0,21.0,-107.0,-79.0,127.0,127.0,127.0,111.0,84.0,-50.0
127.0,125.0,128.0,126.0,126.0,122.0,126.0,128.0,21.0,-107.0,-79.0,127.0,127.0,127.0,111.0,84.0,-50.0
127.0,125.0,129.0,126.0,126.0,122.0,126.0,128.0,21.0,-107.0,-79.0,127.0,127.0,127.0,111.0,84.0,-50.0
127.0,125.0,128.0,126.0,126.0,123.0,126.0,128.0,21.0,-107.0,-79.0,127.0,127.0,127.0,111.0,84.0,-50.0
127.0,126.0,128.0,126.0,127.0,124.0,126.0,128.0,21.0,-107.0,-79.0,127.0,127.0,127.0,111.0,84.0,-50.0
127.0,126.0,128.0,126.0,126.0,120.0,126.0,128.0,21.0,-107.0,-79.0,127.0,127.0,127.0,111.0,84.0,-50.0
127.0,126.0,128.0,126.0,126.0,120.0,126.0,127.0,21.0,-107.0,-79.0,127.0,127.0,127.0,111.0,84.0,-50.0
127.0,126.0,128.0,126.0,126.0,122.0,126.0,128.0,21.0,-107.0,-79.0,127.0,127.0,127.0,111.0,84.0,-50.0
127.0,126.0,128.0,126.0,126.0,122.0,126.0,128.0,21.0,-107.0,-79.0,127.0,127.0,127.0,111.0,84.0,-50.0
127.0,126.0,128.0,126.0,126.0,122.0,126.0,128.0,21.0,-107.0,-79.0,127.0,127.0,127.0,111.0,84.0,-50.0
127.0,125.0,129.0,127.0,126.0,124.0,126.0,128.0,19.0,-107.0,-79.0,127.0,127.0,127.0,111.0,84.0,-50.0
127.0,125.0,129.0,127.0,126.0,124.0,126.0,128.0,19.0,-107.0,-79.0,127.0,127.0,127.0,111.0,84.0,-50.0
127.0,125.0,129.0,127.0,126.0,125.0,126.0,128.0,19.0,-107.0,-79.0,127.0,127.0,127.0,111.0,84.0,-50.0
127.0,126.0,129.0,127.0,126.0,126.0,126.0,128.0,19.0,-107.0,-79.0,127.0,127.0,127.0,111.0,84.0,-50.0
127.0,125.0,129.0,125.0,126.0,122.0,126.0,128.0,19.0,-107.0,-79.0,127.0,127.0,127.0,111.0,84.0,-50.0
127.0,125.0,129.0,125.0,126.0,122.0,126.0,128.0,19.0,-107.0,-79.0,127.0,127.0,127.0,111.0,84.0,-50.0
127.0,126.0,129.0,126.0,126.0,123.0,126.0,128.0,19.0,-107.0,-79.0,127.0,127.0,127.0,111.0,84.0,-50.0
127.0,126.0,129.0,126.0,126.0,124.0,126.0,128.0,19.0,-107.0,-79.0,127.0,127.0,127.0,111.0,84.0,-50.0
127.0,126.0,129.0,126.0,126.0,124.0,126.0,128.0,19.0,-107.0,-79.0,127.0,127.0,127.0,111.0,84.0,-50.0
127.0,125.0,129.0,126.0,126.0,124.0,126.0,128.0,19.0,-107.0,-79.0,127.0,127.0,127.0,111.0,84.0,-50.0
127.0,125.0,127.0,127.0,127.0,124.0,126.0,128.0,18.0,-107.0,-78.0,127.0,127.0,127.0,111.0,84.0,-50.0
127.0,125.0,128.0,127.0,126.0,124.0,126.0,128.0,18.0,-107.0,-78.0,127.0,127.0,127.0,111.0,84.0,-50.0
127.0,125.0,128.0,127.0,126.0,124.0,126.0,128.0,18.0,-107.0,-78.0,127.0,127.0,127.0,111.0,84.0,-50.0
127.0,125.0,127.0,127.0,126.0,121.0,127.0,128.0,18.0,-107.0,-78.0,127.0,127.0,127.0,111.0,84.0,-50.0
127.0,126.0,127.0,126.0,126.0,122.0,126.0,128.0,18.0,-107.0,-78.0,127.0,127.0,127.0,111.0,84.0,-50.0
126.0,126.0,127.0,126.0,126.0,123.0,126.0,128.0,18.0,-107.0,-78.0,127.0,127.0,127.0,111.0,84.0,-50.0
126.0,126.0,127.0,126.0,127.0,124.0,126.0,128.0,18.0,-107.0,-78.0,127.0,127.0,127.0,111.0,84.0,-50.0
127.0,126.0,127.0,126.0,127.0,124.0,126.0,128.0,18.0,-107.0,-78.0,127.0,127.0,127.0,111.0,84.0,-50.0
127.0,126.0,127.0,127.0,127.0,124.0,126.0,128.0,18.0,-107.0,-78.0,127.0,127.0,127.0,111.0,84.0,-50.0
127.0,125.0,127.0,127.0,127.0,124.0,126.0,128.0,18.0,-107.0,-78.0,127.0,127.0,127.0,111.0,84.0,-50.0
126.0,126.0,126.0,127.0,126.0,123.0,126.0,128.0,18.0,-106.0,-78.0,127.0,127.0,127.0,111.0,84.0,-50.0
126.0,126.0,126.0,127.0,127.0,125.0,126.0,128.0,18.0,-106.0,-78.0,127.0,127.0,127.0,111.0,84.0,-50.0
127.0,126.0,126.0,127.0,127.0,121.0,127.0,128.0,18.0,-106.0,-78.0,127.0,127.0,127.0,111.0,84.0,-50.0
127.0,126.0,126.0,127.0,127.0,121.0,127.0,128.0,18.0,-106.0,-78.0,127.0,127.0,127.0,111.0,84.0,-50.0
126.0,126.0,126.0,127.0,126.0,122.0,126.0,128.0,18.0,-106.0,-78.0,127.0,127.0,127.0,111.0,84.0,-50.0
127.0,126.0,126.0,127.0,127.0,123.0,126.0,128.0,18.0,-106.0,-78.0,127.0,127.0,127.0,111.0,84.0,-50.0
126.0,126.0,126.0,127.0,127.0,123.0,126.0,128.0,18.0,-106.0,-78.0,127.0,127.0,127.0,111.0,84.0,-50.0
126.0,126.0,126.0,127.0,126.0,123.0,126.0,128.0,18.0,-106.0,-78.0,127.0,127.0,127.0,111.0,84.0,-50.0
126.0,126.0,126.0,127.0,126.0,123.0,126.0,128.0,18.0,-106.0,-78.0,127.0,127.0,127.0,111.0,84.0,-50.0
126.0,126.0,126.0,127.0,126.0,123.0,126.0,128.0,18.0,-106.0,-78.0,127.0,127.0,127.0,111.0,84.0,-50.0
127.0,126.0,126.0,127.0,127.0,124.0,126.0,128.0,17.0,-106.0,-78.0,127.0,127.0,127.0,111.0,84.0,-50.0
127.0,126.0,126.0,127.0,126.0,120.0,127.0,128.0,17.0,-106.0,-78.0,127.0,127.0,127.0,111.0,84.0,-50.0
127.0,126.0,126.0,127.0,126.0,120.0,127.0,128.0,17.0,-106.0,-78.0,127.0,127.0,127.0,111.0,84.0,-50.0
127.0,126.0,126.0,127.0,127.0,121.0,126.0,128.0,17.0,-106.0,-78.0,127.0,127.0,127.0,111.0,84.0,-50.0
127.0,126.0,126.0,127.0,127.0,122.0,126.0,128.0,17.0,-106.0,-78.0,127.0,127.0,127.0,111.0,84.0,-50.0
127.0,126.0,126.0,127.0,127.0,122.0,126.0,128.0,17.0,-106.0,-78.0,127.0,127.0,127.0,111.0,84.0,-50.0
127.0,126.0,126.0,127.0,127.0,122.0,126.0,128.0,17.0,-106.0,-78.0,127.0,127.0,127.0,111.0,84.0,-50.0
127.0,126.0,126.0,127.0,127.0,122.0,126.0,128.0,17.0,-106.0,-78.0,127.0,127.0,127.0,111.0,84.0,-50.0
127.0,126.0,127.0,127.0,127.0,122.0,126.0,128.0,17.0,-106.0,-78.0,127.0,127.0,127.0,111.0,84.0,-50.0
127.0,126.0,127.0,127.0,127.0,122.0,126.0,128.0,17.0,-106.0,-78.0,127.0,127.0,127.0,111.0,84.0,-50.0
127.0,126.0,126.0,127.0,127.0,120.0,127.0,128.0,17.0,-106.0,-78.0,127.0,127.0,127.0,111.0,84.0,-50.0
127.0,126.0,126.0,127.0,127.0,120.0,126.0,128.0,17.0,-106.0,-78.0,127.0,127.0,127.0,111.0,84.0,-50.0
126.0,126.0,126.0,127.0,127.0,121.0,126.0,128.0,17.0,-106.0,-78.0,127.0,127.0,127.0,111.0,84.0,-50.0
126.0,126.0,126.0,127.0,127.0,122.0,126.0,128.0,17.0,-106.0,-78.0,127.0,127.0,127.0,111.0,84.0,-50.0
127.0,126.0,126.0,126.0,127.0,123.0,126.0,128.0,17.0,-106.0,-78.0,127.0,127.0,127.0,111.0,84.0,-50.0
127.0,126.0,127.0,126.0,127.0,123.0,126.0,128.0,17.0,-106.0,-78.0,127.0,127.0,127.0,111.0,84.0,-50.0
127.0,126.0,127.0,126.0,126.0,123.0,126.0,128.0,17.0,-106.0,-78.0,127.0,127.0,127.0,111.0,84.0,-50.0
127.0,126.0,127.0,126.0,126.0,123.0,126.0,128.0,17.0,-106.0,-78.0,127.0,127.0,127.0,111.0,84.0,-50.0
127.0,126.0,127.0,126.0,126.0,123.0,126.0,128.0,17.0,-106.0,-78.0,127.0,127.0,127.0,111.0,84.0,-50.0
127.0,126.0,127.0,126.0,126.0,122.0,126.0,128.0,17.0,-106.0,-78.0,127.0,127.0,127.0,111.0,84.0,-50.0
127.0,127.0,126.0,127.0,127.0,122.0,127.0,128.0,18.0,-106.0,-78.0,127.0,127.0,127.0,111.0,84.0,-50.0
127.0,126.0,126.0,127.0,127.0,123.0,127.0,128.0,18.0,-106.0,-78.0,127.0,127.0,127.0,111.0,84.0,-50.0
127.0,127.0,126.0,127.0,127.0,124.0,127.0,128.0,18.0,-106.0,-78.0,127.0,127.0,127.0,111.0,84.0,-50.0
127.0,127.0,126.0,127.0,127.0,124.0,127.0,128.0,18.0,-106.0,-78.0,127.0,127.0,127.0,111.0,84.0,-50.0
127.0,126.0,126.0,127.0,127.0,124.0,127.0,128.0,18.0,-106.0,-78.0,127.0,127.0,127.0,111.0,84.0,-50.0
127.0,126.0,126.0,127.0,127.0,123.0,127.0,128.0,18.0,-106.0,-78.0,127.0,127.0,127.0,111.0,84.0,-50.0
127.0,126.0,127.0,127.0,127.0,123.0,127.0,128.0,18.0,-106.0,-78.0,127.0,127.0,127.0,111.0,84.0,-50.0
127.0,126.0,127.0,127.0,127.0,123.0,127.0,128.0,18.0,-106.0,-78.0,127.0,127.0,127.0,111.0,84.0,-50.0
127.0,126.0,126.0,127.0,127.0,125.0,126.0,128.0,18.0,-106.0,-78.0,127.0,127.0,127.0,111.0,84.0,-50.0
127.0,127.0,126.0,127.0,127.0,122.0,127.0,128.0,18.0,-106.0,-78.0,127.0,127.0,127.0,111.0,84.0,-50.0
127.0,126.0,127.0,127.0,127.0,122.0,126.0,128.0,20.0,-106.0,-78.0,127.0,127.0,127.0,111.0,84.0,-50.0
127.0,126.0,127.0,127.0,127.0,122.0,126.0,128.0,20.0,-106.0,-78.0,127.0,127.0,127.0,111.0,84.0,-50.0
127.0,126.0,127.0,127.0,127.0,122.0,126.0,128.0,20.0,-106.0,-78.0,127.0,127.0,127.0,111.0,84.0,-50.0
127.0,126.0,127.0,127.0,127.0,122.0,126.0,128.0,20.0,-106.0,-78.0,127.0,127.0,127.0,111.0,84.0,-50.0
127.0,126.0,128.0,127.0,126.0,122.0,126.0,128.0,20.0,-106.0,-78.0,127.0,127.0,127.0,111.0,84.0,-50.0
127.0,126.0,128.0,127.0,126.0,122.0,126.0,128.0,20.0,-106.0,-78.0,127.0,127.0,127.0,111.0,84.0,-50.0
127.0,126.0,128.0,127.0,126.0,122.0,126.0,128.0,20.0,-106.0,-78.0,127.0,127.0,127.0,111.0,84.0,-50.0
127.0,126.0,128.0,127.0,126.0,122.0,126.0,128.0,20.0,-106.0,-78.0,127.0,127.0,127.0,111.0,84.0,-50.0
127.0,127.0,126.0,127.0,127.0,122.0,126.0,128.0,20.0,-106.0,-78.0,127.0,127.0,127.0,111.0,84.0,-50.0
127.0,127.0,127.0,127.0,127.0,122.0,126.0,128.0,20.0,-106.0,-78.0,127.0,127.0,127.0,111.0,84.0,-50.0
126.0,126.0,128.0,127.0,126.0,124.0,126.0,128.0,21.0,-106.0,-78.0,127.0,127.0,127.0,111.0,84.0,-50.0
127.0,126.0,128.0,126.0,126.0,124.0,126.0,128.0,21.0,-106.0,-78.0,127.0,127.0,127.0,111.0,84.0,-50.0
127.0,126.0,128.0,126.0,126.0,124.0,126.0,128.0,21.0,-106.0,-78.0,127.0,127.0,127.0,111.0,84.0,-50.0
127.0,126.0,128.0,126.0,126.0,124.0,126.0,128.0,21.0,-106.0,-78.0,127.0,127.0,127.0,111.0,84.0,-50.0
127.0,126.0,128.0,126.0,126.0,124.0,126.0,128.0,21.0,-106.0,-78.0,127.0,127.0,127.0,111.0,84.0,-50.0
127.0,126.0,128.0,126.0,126.0,124.0,126.0,128.0,21.0,-106.0,-78.0,127.0,127.0,127.0,111.0,84.0,-50.0
127.0,126.0,129.0,126.0,126.0,124.0,126.0,128.0,21.0,-106.0,-78.0,127.0,127.0,127.0,111.0,84.0,-50.0
126.0,126.0,127.0,127.0,127.0,124.0,126.0,128.0,21.0,-106.0,-78.0,127.0,127.0,127.0,111.0,84.0,-50.0
126.0,126.0,127.0,127.0,127.0,124.0,126.0,128.0,21.0,-106.0,-78.0,127.0,127.0,127.0,111.0,84.0,-50.0
126.0,126.0,127.0,127.0,126.0,124.0,126.0,128.0,21.0,-106.0,-78.0,127.0,127.0,127.0,111.0,84.0,-50.0
127.0,126.0,128.0,127.0,127.0,125.0,126.0,128.0,22.0,-106.0,-79.0,127.0,127.0,127.0,111.0,84.0,-50.0
127.0,126.0,128.0,127.0,127.0,125.0,126.0,128.0,22.0,-106.0,-79.0,127.0,127.0,127.0,111.0,84.0,-50.0
127.0,126.0,128.0,127.0,127.0,125.0,126.0,128.0,22.0,-106.0,-79.0,127.0,127.0,127.0,111.0,84.0,-50.0
127.0,126.0,129.0,127.0,127.0,124.0,126.0,128.0,22.0,-106.0,-79.0,127.0,127.0,127.0,111.0,84.0,-50.0
127.0,126.0,129.0,127.0,127.0,124.0,126.0,128.0,22.0,-106.0,-79.0,127.0,127.0,127.0,111.0,84.0,-50.0
127.0,126.0,129.0,126.0,127.0,124.0,126.0,128.0,22.0,-106.0,-79.0,127.0,127.0,127.0,111.0,84.0,-50.0
126.0,127.0,127.0,127.0,127.0,124.0,126.0,128.0,22.0,-106.0,-79.0,127.0,127.0,127.0,111.0,84.0,-50.0
126.0,127.0,127.0,127.0,127.0,124.0,126.0,128.0,22.0,-106.0,-79.0,127.0,127.0,127.0,111.0,84.0,-50.0
126.0,127.0,128.0,127.0,127.0,125.0,126.0,128.0,22.0,-106.0,-79.0,127.0,127.0,127.0,111.0,84.0,-50.0
127.0,126.0,128.0,127.0,127.0,125.0,126.0,128.0,22.0,-106.0,-79.0,127.0,127.0,127.0,111.0,84.0,-50.0
126.0,126.0,128.0,126.0,127.0,124.0,126.0,128.0,22.0,-107.0,-79.0,127.0,127.0,127.0,111.0,84.0,-50.0
126.0,126.0,128.0,126.0,126.0,124.0,126.0,128.0,22.0,-107.0,-79.0,127.0,127.0,127.0,111.0,84.0,-50.0
126.0,126.0,129.0,126.0,126.0,124.0,126.0,128.0,22.0,-107.0,-79.0,127.0,127.0,127.0,111.0,84.0,-50.0
126.0,126.0,129.0,126.0,126.0,124.0,126.0,128.0,22.0,-107.0,-79.0,127.0,127.0,127.0,111.0,84.0,-50.0
126.0,126.0,129.0,126.0,126.0,123.0,126.0,128.0,22.0,-107.0,-79.0,127.0,127.0,127.0,111.0,84.0,-50.0
126.0,127.0,127.0,127.0,127.0,123.0,126.0,128.0,22.0,-107.0,-79.0,127.0,127.0,127.0,111.0,84.0,-50.0
126.0,127.0,127.0,127.0,127.0,124.0,126.0,128.0,22.0,-107.0,-79.0,127.0,127.0,127.0,111.0,84.0,-50.0
126.0,127.0,128.0,127.0,127.0,124.0,126.0,128.0,22.0,-107.0,-79.0,127.0,127.0,127.0,111.0,84.0,-50.0
126.0,126.0,128.0,127.0,127.0,124.0,126.0,128.0,22.0,-107.0,-79.0,127.0,127.0,127.0,111.0,84.0,-50.0
126.0,126.0,128.0,127.0,127.0,124.0,126.0,128.0,22.0,-107.0,-79.0,127.0,127.0,127.0,111.0,84.0,-50.0
127.0,126.0,129.0,126.0,126.0,124.0,126.0,128.0,21.0,-107.0,-78.0,127.0,127.0,127.0,111.0,84.0,-50.0
127.0,126.0,129.0,126.0,126.0,124.0,126.0,128.0,21.0,-107.0,-78.0,127.0,127.0,127.0,111.0,84.0,-50.0
127.0,126.0,129.0,126.0,126.0,124.0,126.0,128.0,21.0,-107.0,-78.0,127.0,127.0,127.0,111.0,84.0,-50.0
127.0,126.0,129.0,126.0,126.0,124.0,126.0,128.0,21.0,-107.0,-78.0,127.0,127.0,127.0,111.0,84.0,-50.0
126.0,126.0,128.0,127.0,127.0,123.0,126.0,128.0,21.0,-107.0,-78.0,127.0,127.0,127.0,111.0,84.0,-50.0
126.0,127.0,128.0,127.0,127.0,124.0,126.0,128.0,21.0,-107.0,-78.0,127.0,127.0,127.0,111.0,84.0,-50.0
127.0,127.0,128.0,126.0,126.0,124.0,126.0,128.0,21.0,-107.0,-78.0,127.0,127.0,127.0,111.0,84.0,-50.0
127.0,126.0,128.0,126.0,126.0,124.0,126.0,128.0,21.0,-107.0,-78.0,127.0,127.0,127.0,111.0,84.0,-50.0
127.0,126.0,128.0,126.0,126.0,124.0,126.0,128.0,21.0,-107.0,-78.0,127.0,127.0,127.0,111.0,84.0,-50.0
127.0,126.0,129.0,126.0,126.0,124.0,126.0,128.0,21.0,-107.0,-78.0,127.0,127.0,127.0,111.0,84.0,-50.0
127.0,126.0,129.0,126.0,126.0,125.0,126.0,128.0,20.0,-107.0,-78.0,127.0,127.0,127.0,111.0,84.0,-50.0
127.0,125.0,129.0,126.0,126.0,125.0,126.0,128.0,20.0,-107.0,-78.0,127.0,127.0,127.0,111.0,84.0,-50.0
127.0,125.0,129.0,126.0,126.0,125.0,126.0,128.0,20.0,-107.0,-78.0,127.0,127.0,127.0,111.0,84.0,-50.0
126.0,126.0,128.0,126.0,126.0,123.0,126.0,128.0,20.0,-107.0,-78.0,127.0,127.0,127.0,111.0,84.0,-50.0
126.0,126.0,128.0,127.0,126.0,124.0,126.0,128.0,20.0,-107.0,-78.0,127.0,127.0,127.0,111.0,84.0,-50.0
127.0,126.0,128.0,126.0,126.0,125.0,126.0,128.0,20.0,-107.0,-78.0,127.0,127.0,127.0,111.0,84.0,-50.0
127.0,126.0,128.0,126.0,126.0,125.0,126.0,128.0,20.0,-107.0,-78.0,127.0,127.0,127.0,111.0,84.0,-50.0
127.0,126.0,129.0,126.0,126.0,125.0,126.0,128.0,20.0,-107.0,-78.0,127.0,127.0,127.0,111.0,84.0,-50.0
127.0,126.0,129.0,126.0,126.0,125.0,126.0,128.0,20.0,-107.0,-78.0,127.0,127.0,127.0,111.0,84.0,-50.0
127.0,126.0,129.0,126.0,126.0,125.0,126.0,128.0,20.0,-107.0,-78.0,127.0,127.0,127.0,111.0,84.0,-50.0
126.0,126.0,127.0,126.0,127.0,124.0,126.0,128.0,19.0,-107.0,-78.0,127.0,127.0,127.0,111.0,84.0,-50.0
126.0,126.0,127.0,126.0,127.0,124.0,126.0,128.0,19.0,-107.0,-78.0,127.0,127.0,127.0,111.0,84.0,-50.0
126.0,126.0,127.0,126.0,126.0,123.0,126.0,128.0,19.0,-107.0,-78.0,127.0,127.0,127.0,111.0,84.0,-50.0
126.0,127.0,126.0,126.0,127.0,124.0,126.0,128.0,19.0,-107.0,-78.0,127.0,127.0,127.0,111.0,84.0,-50.0
126.0,126.0,126.0,126.0,127.0,125.0,126.0,128.0,19.0,-107.0,-78.0,127.0,127.0,127.0,111.0,84.0,-50.0
126.0,126.0,127.0,126.0,127.0,125.0,126.0,128.0,19.0,-107.0,-78.0,127.0,127.0,127.0,111.0,84.0,-50.0
126.0,126.0,127.0,126.0,127.0,125.0,126.0,128.0,19.0,-107.0,-78.0,127.0,127.0,127.0,111.0,84.0,-50.0
126.0,126.0,127.0,126.0,127.0,125.0,126.0,128.0,19.0,-107.0,-78.0,127.0,127.0,127.0,111.0,84.0,-50.0
126.0,126.0,127.0,126.0,127.0,125.0,126.0,128.0,19.0,-107.0,-78.0,127.0,127.0,127.0,111.0,84.0,-50.0
126.0,126.0,127.0,126.0,127.0,125.0,126.0,128.0,19.0,-107.0,-78.0,127.0,127.0,127.0,111.0,84.0,-50.0
127.0,126.0,127.0,126.0,127.0,123.0,126.0,128.0,19.0,-107.0,-78.0,127.0,127.0,127.0,111.0,84.0,-50.0
126.0,126.0,127.0,127.0,127.0,120.0,126.0,128.0,19.0,-107.0,-78.0,127.0,127.0,127.0,111.0,84.0,-50.0
126.0,126.0,127.0,127.0,127.0,120.0,126.0,128.0,19.0,-107.0,-78.0,127.0,127.0,127.0,111.0,84.0,-50.0
126.0,126.0,127.0,126.0,127.0,121.0,126.0,128.0,19.0,-107.0,-78.0,127.0,127.0,127.0,111.0,84.0,-50.0
127.0,126.0,127.0,126.0,127.0,121.0,126.0,128.0,19.0,-107.0,-78.0,127.0,127.0,127.0,111.0,84.0,-50.0
126.0,126.0,127.0,126.0,127.0,123.0,126.0,128.0,19.0,-107.0,-78.0,127.0,127.0,127.0,111.0,84.0,-50.0
126.0,126.0,127.0,126.0,127.0,123.0,126.0,128.0,19.0,-107.0,-78.0,127.0,127.0,127.0,111.0,84.0,-50.0
127.0,126.0,127.0,126.0,127.0,123.0,126.0,128.0,19.0,-107.0,-78.0,127.0,127.0,127.0,111.0,84.0,-50.0
127.0,126.0,127.0,126.0,127.0,123.0,126.0,128.0,19.0,-107.0,-78.0,127.0,127.0,127.0,111.0,84.0,-50.0
127.0,126.0,127.0,126.0,127.0,123.0,126.0,128.0,19.0,-107.0,-78.0,127.0,127.0,127.0,111.0,84.0,-50.0
127.0,127.0,125.0,127.0,127.0,123.0,126.0,128.0,18.0,-107.0,-78.0,127.0,127.0,127.0,111.0,84.0,-50.0
127.0,126.0,125.0,127.0,127.0,123.0,126.0,128.0,18.0,-107.0,-78.0,127.0,127.0,127.0,111.0,84.0,-50.0
127.0,126.0,126.0,127.0,127.0,124.0,126.0,128.0,18.0,-107.0,-78.0,127.0,127.0,127.0,111.0,84.0,-50.0
127.0,126.0,126.0,127.0,127.0,124.0,126.0,128.0,18.0,-107.0,-78.0,127.0,127.0,127.0,111.0,84.0,-50.0
127.0,126.0,126.0,127.0,126.0,124.0,126.0,128.0,18.0,-107.0,-78.0,127.0,127.0,127.0,111.0,84.0,-50.0
127.0,126.0,126.0,127.0,127.0,124.0,126.0,128.0,18.0,-107.0,-78.0,127.0,127.0,127.0,111.0,84.0,-50.0
127.0,126.0,126.0,127.0,126.0,123.0,126.0,128.0,18.0,-107.0,-78.0,127.0,127.0,127.0,111.0,84.0,-50.0
127.0,126.0,127.0,126.0,126.0,123.0,126.0,128.0,18.0,-107.0,-78.0,127.0,127.0,127.0,111.0,84.0,-50.0
127.0,125.0,127.0,126.0,126.0,123.0,126.0,128.0,18.0,-107.0,-78.0,127.0,127.0,127.0,111.0,84.0,-50.0
126.0,127.0,125.0,127.0,127.0,123.0,126.0,128.0,18.0,-107.0,-78.0,127.0,127.0,127.0,111.0,84.0,-50.0
127.0,127.0,126.0,127.0,127.0,123.0,127.0,128.0,18.0,-106.0,-78.0,127.0,127.0,127.0,111.0,84.0,-50.0
127.0,127.0,126.0,127.0,127.0,124.0,127.0,128.0,18.0,-106.0,-78.0,127.0,127.0,127.0,111.0,84.0,-50.0
127.0,126.0,126.0,127.0,127.0,124.0,127.0,128.0,18.0,-106.0,-78.0,127.0,127.0,127.0,111.0,84.0,-50.0
127.0,126.0,127.0,127.0,127.0,124.0,127.0,128.0,18.0,-106.0,-78.0,127.0,127.0,127.0,111.0,84.0,-50.0
127.0,126.0,127.0,127.0,127.0,124.0,127.0,128.0,18.0,-106.0,-78.0,127.0,127.0,127.0,111.0,84.0,-50.0
127.0,126.0,127.0,127.0,127.0,124.0,127.0,128.0,18.0,-106.0,-78.0,127.0,127.0,127.0,111.0,84.0,-50.0
127.0,126.0,127.0,127.0,127.0,124.0,127.0,128.0,18.0,-106.0,-78.0,127.0,127.0,127.0,111.0,84.0,-50.0
127.0,126.0,128.0,127.0,126.0,123.0,127.0,128.0,18.0,-106.0,-78.0,127.0,127.0,127.0,111.0,84.0,-50.0
127.0,127.0,126.0,127.0,127.0,123.0,127.0,128.0,18.0,-106.0,-78.0,127.0,127.0,127.0,111.0,84.0,-50.0
127.0,127.0,126.0,127.0,127.0,123.0,127.0,128.0,18.0,-106.0,-78.0,127.0,127.0,127.0,111.0,84.0,-50.0
127.0,127.0,125.0,127.0,127.0,124.0,127.0,128.0,19.0,-106.0,-78.0,127.0,127.0,127.0,111.0,84.0,-50.0
127.0,126.0,125.0,127.0,127.0,124.0,127.0,128.0,19.0,-106.0,-78.0,127.0,127.0,127.0,111.0,84.0,-50.0
127.0,126.0,126.0,127.0,127.0,124.0,127.0,128.0,19.0,-106.0,-78.0,127.0,127.0,127.0,111.0,84.0,-50.0
127.0,126.0,126.0,127.0,127.0,124.0,127.0,128.0,19.0,-106.0,-78.0,127.0,127.0,127.0,111.0,84.0,-50.0
127.0,126.0,126.0,127.0,127.0,124.0,127.0,128.0,19.0,-106.0,-78.0,127.0,127.0,127.0,111.0,84.0,-50.0
127.0,126.0,126.0,127.0,127.0,124.0,127.0,128.0,19.0,-106.0,-78.0,127.0,127.0,127.0,111.0,84.0,-50.0
127.0,126.0,127.0,127.0,127.0,124.0,127.0,128.0,19.0,-106.0,-78.0,127.0,127.0,127.0,111.0,84.0,-50.0
126.0,127.0,125.0,127.0,127.0,124.0,127.0,128.0,19.0,-106.0,-78.0,127.0,127.0,127.0,111.0,84.0,-50.0
126.0,127.0,125.0,127.0,127.0,124.0,127.0,128.0,19.0,-106.0,-78.0,127.0,127.0,127.0,111.0,84.0,-50.0
127.0,127.0,125.0,127.0,127.0,124.0,127.0,128.0,19.0,-106.0,-78.0,127.0,127.0,127.0,111.0,84.0,-50.0
127.0,126.0,126.0,127.0,126.0,136.0,126.0,128.0,20.0,-106.0,-79.0,127.0,127.0,127.0,111.0,84.0,-50.0
127.0,126.0,126.0,127.0,126.0,136.0,126.0,128.0,20.0,-106.0,-79.0,127.0,127.0,127.0,111.0,84.0,-50.0
127.0,126.0,126.0,127.0,126.0,136.0,126.0,128.0,20.0,-106.0,-79.0,127.0,127.0,127.0,111.0,84.0,-50.0
127.0,126.0,127.0,127.0,126.0,136.0,126.0,128.0,20.0,-106.0,-79.0,127.0,127.0,127.0,111.0,84.0,-50.0
127.0,126.0,127.0,127.0,126.0,136.0,126.0,128.0,20.0,-106.0,-79.0,127.0,127.0,127.0,111.0,84.0,-50.0
127.0,126.0,127.0,127.0,126.0,136.0,126.0,128.0,20.0,-106.0,-79.0,127.0,127.0,127.0,111.0,84.0,-50.0
126.0,127.0,125.0,127.0,127.0,135.0,126.0,128.0,20.0,-106.0,-79.0,127.0,127.0,127.0,111.0,84.0,-50.0
126.0,127.0,125.0,127.0,127.0,136.0,126.0,128.0,20.0,-106.0,-79.0,127.0,127.0,127.0,111.0,84.0,-50.0
126.0,127.0,125.0,127.0,127.0,136.0,126.0,128.0,20.0,-106.0,-79.0,127.0,127.0,127.0,111.0,84.0,-50.0
126.0,126.0,126.0,127.0,126.0,136.0,126.0,128.0,20.0,-106.0,-79.0,127.0,127.0,127.0,111.0,84.0,-50.0
126.0,126.0,126.0,127.0,127.0,135.0,126.0,128.0,21.0,-107.0,-79.0,127.0,127.0,127.0,111.0,84.0,-50.0
126.0,126.0,127.0,127.0,127.0,135.0,126.0,128.0,21.0,-107.0,-79.0,127.0,127.0,127.0,111.0,84.0,-50.0
126.0,126.0,127.0,126.0,127.0,135.0,126.0,128.0,21.0,-107.0,-79.0,127.0,127.0,127.0,111.0,84.0,-50.0
126.0,126.0,127.0,126.0,126.0,134.0,126.0,128.0,21.0,-107.0,-79.0,127.0,127.0,127.0,111.0,84.0,-50.0
126.0,125.0,127.0,126.0,126.0,134.0,126.0,128.0,21.0,-107.0,-79.0,127.0,127.0,127.0,111.0,84.0,-50.0
126.0,127.0,126.0,127.0,127.0,133.0,126.0,128.0,21.0,-107.0,-79.0,127.0,127.0,127.0,111.0,84.0,-50.0
126.0,127.0,126.0,127.0,127.0,134.0,126.0,128.0,21.0,-107.0,-79.0,127.0,127.0,127.0,111.0,84.0,-50.0
126.0,127.0,126.0,127.0,127.0,134.0,126.0,128.0,21.0,-107.0,-79.0,127.0,127.0,127.0,111.0,84.0,-50.0
126.0,127.0,126.0,127.0,127.0,135.0,126.0,128.0,21.0,-107.0,-79.0,127.0,127.0,127.0,111.0,84.0,-50.0
126.0,126.0,126.0,127.0,127.0,135.0,126.0,128.0,21.0,-107.0,-79.0,127.0,127.0,127.0,111.0,84.0,-50.0
127.0,126.0,128.0,127.0,126.0,131.0,126.0,128.0,22.0,-107.0,-79.0,127.0,127.0,127.0,111.0,84.0,-50.0
127.0,126.0,128.0,127.0,126.0,131.0,126.0,128.0,22.0,-107.0,-79.0,127.0,127.0,127.0,111.0,84.0,-50.0
127.0,126.0,128.0,127.0,126.0,131.0,126.0,128.0,22.0,-107.0,-79.0,127.0,127.0,127.0,111.0,84.0,-50.0
127.0,125.0,128.0,127.0,126.0,131.0,126.0,128.0,22.0,-107.0,-79.0,127.0,127.0,127.0,111.0,84.0,-50.0
127.0,126.0,127.0,127.0,127.0,128.0,127.0,128.0,22.0,-107.0,-79.0,127.0,127.0,127.0,111.0,84.0,-50.0
127.0,126.0,127.0,127.0,127.0,129.0,126.0,128.0,22.0,-107.0,-79.0,127.0,127.0,127.0,111.0,84.0,-50.0
127.0,126.0,127.0,127.0,127.0,129.0,126.0,128.0,22.0,-107.0,-79.0,127.0,127.0,127.0,111.0,84.0,-50.0
127.0,126.0,127.0,127.0,127.0,131.0,126.0,128.0,22.0,-107.0,-79.0,127.0,127.0,127.0,111.0,84.0,-50.0
127.0,126.0,127.0,127.0,127.0,131.0,126.0,128.0,22.0,-107.0,-79.0,127.0,127.0,127.0,111.0,84.0,-50.0
127.0,126.0,127.0,127.0,127.0,131.0,126.0,128.0,22.0,-107.0,-79.0,127.0,127.0,127.0,111.0,84.0,-50.0
127.0,126.0,129.0,127.0,126.0,171.0,126.0,128.0,22.0,-107.0,-79.0,127.0,127.0,127.0,111.0,84.0,-50.0
127.0,126.0,129.0,127.0,126.0,174.0,126.0,128.0,22.0,-107.0,-79.0,127.0,127.0,127.0,111.0,84.0,-50.0
127.0,126.0,129.0,127.0,126.0,176.0,126.0,128.0,22.0,-107.0,-79.0,127.0,127.0,127.0,111.0,84.0,-50.0
127.0,127.0,128.0,127.0,126.0,151.0,126.0,128.0,22.0,-107.0,-79.0,127.0,127.0,127.0,111.0,84.0,-50.0
126.0,127.0,128.0,127.0,126.0,154.0,126.0,128.0,22.0,-107.0,-79.0,127.0,127.0,127.0,111.0,84.0,-50.0
126.0,126.0,128.0,127.0,126.0,157.0,126.0,128.0,22.0,-107.0,-79.0,127.0,127.0,127.0,111.0,84.0,-50.0
127.0,127.0,128.0,127.0,126.0,160.0,126.0,128.0,22.0,-107.0,-79.0,127.0,127.0,127.0,111.0,84.0,-50.0
126.0,126.0,128.0,127.0,126.0,163.0,126.0,128.0,22.0,-107.0,-79.0,127.0,127.0,127.0,111.0,84.0,-50.0
126.0,126.0,128.0,127.0,126.0,166.0,126.0,128.0,22.0,-107.0,-79.0,127.0,127.0,127.0,111.0,84.0,-50.0
127.0,126.0,129.0,127.0,126.0,169.0,126.0,128.0,22.0,-107.0,-79.0,127.0,127.0,127.0,111.0,84.0,-50.0
127.0,125.0,129.0,127.0,126.0,254.0,126.0,128.0,21.0,-107.0,-79.0,127.0,127.0,127.0,111.0,84.0,-50.0
127.0,125.0,129.0,126.0,126.0,254.0,126.0,128.0,21.0,-107.0,-79.0,127.0,127.0,127.0,111.0,84.0,-50.0
127.0,125.0,128.0,127.0,127.0,254.0,126.0,128.0,21.0,-107.0,-79.0,127.0,127.0,127.0,111.0,84.0,-50.0
127.0,125.0,128.0,127.0,127.0,254.0,126.0,127.0,21.0,-107.0,-79.0,127.0,127.0,127.0,111.0,84.0,-50.0
127.0,125.0,128.0,127.0,127.0,254.0,126.0,128.0,21.0,-107.0,-79.0,127.0,127.0,127.0,111.0,84.0,-50.0
127.0,125.0,128.0,127.0,126.0,254.0,126.0,127.0,21.0,-107.0,-79.0,127.0,127.0,127.0,111.0,84.0,-50.0
127.0,125.0,129.0,127.0,126.0,254.0,126.0,128.0,21.0,-107.0,-79.0,127.0,127.0,127.0,111.0,84.0,-50.0
127.0,125.0,129.0,127.0,126.0,254.0,126.0,128.0,21.0,-107.0,-79.0,127.0,127.0,127.0,111.0,84.0,-50.0
127.0,125.0,128.0,127.0,126.0,254.0,126.0,127.0,21.0,-107.0,-79.0,127.0,127.0,127.0,111.0,84.0,-50.0
127.0,125.0,129.0,127.0,126.0,254.0,126.0,128.0,21.0,-107.0,-79.0,127.0,127.0,127.0,111.0,84.0,-50.0
127.0,125.0,128.0,126.0,126.0,254.0,126.0,128.0,20.0,-107.0,-78.0,127.0,127.0,127.0,111.0,84.0,-50.0
127.0,126.0,127.0,127.0,127.0,254.0,126.0,128.0,20.0,-107.0,-78.0,127.0,127.0,127.0,111.0,84.0,-50.0
127.0,126.0,127.0,127.0,127.0,254.0,126.0,128.0,20.0,-107.0,-78.0,127.0,127.0,127.0,111.0,84.0,-50.0
127.0,126.0,127.0,127.0,127.0,254.0,126.0,128.0,20.0,-107.0,-78.0,127.0,127.0,127.0,111.0,84.0,-50.0
127.0,126.0,127.0,126.0,127.0,254.0,126.0,128.0,20.0,-107.0,-78.0,127.0,127.0,127.0,111.0,84.0,-50.0
127.0,126.0,127.0,126.0,127.0,254.0,126.0,128.0,20.0,-107.0,-78.0,127.0,127.0,127.0,111.0,84.0,-50.0
127.0,126.0,127.0,126.0,126.0,254.0,126.0,128.0,20.0,-107.0,-78.0,127.0,127.0,127.0,111.0,84.0,-50.0
127.0,125.0,128.0,126.0,126.0,254.0,126.0,128.0,20.0,-107.0,-78.0,127.0,127.0,127.0,111.0,84.0,-50.0
127.0,125.0,128.0,126.0,126.0,254.0,126.0,128.0,20.0,-107.0,-78.0,127.0,127.0,127.0,111.0,84.0,-50.0
127.0,125.0,128.0,126.0,126.0,254.0,126.0,128.0,20.0,-107.0,-78.0,127.0,127.0,127.0,111.0,84.0,-50.0
126.0,127.0,126.0,127.0,127.0,254.0,126.0,128.0,19.0,-107.0,-78.0,127.0,127.0,127.0,111.0,84.0,-50.0
126.0,127.0,126.0,127.0,127.0,254.0,126.0,128.0,19.0,-107.0,-78.0,127.0,127.0,127.0,111.0,84.0,-50.0
126.0,127.0,126.0,127.0,127.0,254.0,126.0,128.0,19.0,-107.0,-78.0,127.0,127.0,127.0,111.0,84.0,-50.0
126.0,127.0,126.0,127.0,127.0,254.0,126.0,128.0,19.0,-107.0,-78.0,127.0,127.0,127.0,111.0,84.0,-50.0
126.0,127.0,126.0,127.0,127.0,254.0,126.0,128.0,19.0,-107.0,-78.0,127.0,127.0,127.0,111.0,84.0,-50.0
126.0,126.0,126.0,127.0,127.0,254.0,126.0,128.0,19.0,-107.0,-78.0,127.0,127.0,127.0,111.0,84.0,-50.0
126.0,126.0,127.0,127.0,127.0,254.0,126.0,128.0,19.0,-107.0,-78.0,127.0,127.0,127.0,111.0,84.0,-50.0
126.0,126.0,127.0,127.0,127.0,254.0,126.0,128.0,19.0,-107.0,-78.0,127.0,127.0,127.0,111.0,84.0,-50.0
126.0,126.0,127.0,127.0,127.0,254.0,126.0,128.0,19.0,-107.0,-78.0,127.0,127.0,127.0,111.0,84.0,-50.0
126.0,126.0,127.0,127.0,127.0,254.0,126.0,128.0,19.0,-107.0,-78.0,127.0,127.0,127.0,111.0,84.0,-50.0
126.0,127.0,124.0,127.0,127.0,254.0,127.0,128.0,19.0,-106.0,-78.0,127.0,127.0,127.0,111.0,84.0,-50.0
126.0,127.0,125.0,127.0,127.0,254.0,126.0,128.0,19.0,-106.0,-78.0,127.0,127.0,127.0,111.0,84.0,-50.0
126.0,127.0,125.0,127.0,127.0,254.0,126.0,128.0,19.0,-106.0,-78.0,127.0,127.0,127.0,111.0,84.0,-50.0
126.0,126.0,125.0,127.0,127.0,254.0,126.0,128.0,19.0,-106.0,-78.0,127.0,127.0,127.0,111.0,84.0,-50.0
126.0,126.0,125.0,127.0,127.0,254.0,126.0,128.0,19.0,-106.0,-78.0,127.0,127.0,127.0,111.0,84.0,-50.0
126.0,126.0,126.0,127.0,127.0,254.0,126.0,128.0,19.0,-106.0,-78.0,127.0,127.0,127.0,111.0,84.0,-50.0
126.0,126.0,126.0,127.0,127.0,254.0,126.0,128.0,19.0,-106.0,-78.0,127.0,127.0,127.0,111.0,84.0,-50.0
127.0,126.0,126.0,127.0,126.0,254.0,126.0,128.0,19.0,-106.0,-78.0,127.0,127.0,127.0,111.0,84.0,-50.0
127.0,126.0,126.0,126.0,126.0,254.0,126.0,128.0,19.0,-106.0,-78.0,127.0,127.0,127.0,111.0,84.0,-50.0
126.0,127.0,124.0,127.0,127.0,254.0,127.0,128.0,19.0,-106.0,-78.0,127.0,127.0,127.0,111.0,84.0,-50.0
126.0,127.0,125.0,128.0,127.0,254.0,127.0,128.0,18.0,-106.0,-78.0,127.0,127.0,127.0,111.0,84.0,-50.0
126.0,127.0,126.0,128.0,127.0,254.0,127.0,128.0,18.0,-106.0,-78.0,127.0,127.0,127.0,111.0,84.0,-50.0
126.0,126.0,126.0,127.0,127.0,254.0,127.0,128.0,18.0,-106.0,-78.0,127.0,127.0,127.0,111.0,84.0,-50.0
127.0,126.0,126.0,127.0,127.0,254.0,127.0,128.0,18.0,-106.0,-78.0,127.0,127.0,127.0,111.0,84.0,-50.0
127.0,126.0,126.0,127.0,127.0,254.0,127.0,128.0,18.0,-106.0,-78.0,127.0,127.0,127.0,111.0,84.0,-50.0
126.0,126.0,127.0,127.0,127.0,254.0,127.0,128.0,18.0,-106.0,-78.0,127.0,127.0,127.0,111.0,84.0,-50.0
127.0,126.0,127.0,127.0,127.0,254.0,126.0,128.0,18.0,-106.0,-78.0,127.0,127.0,127.0,111.0,84.0,-50.0
127.0,126.0,127.0,127.0,127.0,254.0,126.0,128.0,18.0,-106.0,-78.0,127.0,127.0,127.0,111.0,84.0,-50.0
126.0,127.0,125.0,128.0,127.0,254.0,127.0,128.0,18.0,-106.0,-78.0,127.0,127.0,127.0,111.0,84.0,-50.0
126.0,127.0,125.0,128.0,127.0,254.0,127.0,128.0,18.0,-106.0,-78.0,127.0,127.0,127.0,111.0,84.0,-50.0
127.0,127.0,125.0,127.0,127.0,225.0,126.0,128.0,19.0,-106.0,-78.0,127.0,127.0,127.0,111.0,84.0,-50.0
127.0,127.0,126.0,127.0,127.0,224.0,126.0,128.0,19.0,-106.0,-78.0,127.0,127.0,127.0,111.0,84.0,-50.0
127.0,127.0,126.0,127.0,127.0,223.0,126.0,128.0,19.0,-106.0,-78.0,127.0,127.0,127.0,111.0,84.0,-50.0
127.0,126.0,126.0,127.0,127.0,222.0,126.0,128.0,19.0,-106.0,-78.0,127.0,127.0,127.0,111.0,84.0,-50.0
127.0,126.0,126.0,127.0,127.0,221.0,126.0,128.0,19.0,-106.0,-78.0,127.0,127.0,127.0,111.0,84.0,-50.0
127.0,126.0,126.0,127.0,127.0,220.0,126.0,128.0,19.0,-106.0,-78.0,127.0,127.0,127.0,111.0,84.0,-50.0
127.0,126.0,127.0,127.0,127.0,219.0,126.0,128.0,19.0,-106.0,-78.0,127.0,127.0,127.0,111.0,84.0,-50.0
127.0,127.0,125.0,127.0,127.0,227.0,126.0,128.0,19.0,-106.0,-78.0,127.0,127.0,127.0,111.0,84.0,-50.0
127.0,127.0,125.0,127.0,127.0,227.0,127.0,128.0,19.0,-106.0,-78.0,127.0,127.0,127.0,111.0,84.0,-50.0
127.0,127.0,125.0,127.0,127.0,226.0,127.0,128.0,19.0,-106.0,-78.0,127.0,127.0,127.0,111.0,84.0,-50.0
127.0,127.0,125.0,127.0,126.0,189.0,126.0,128.0,19.0,-106.0,-78.0,127.0,127.0,127.0,111.0,84.0,-50.0
127.0,126.0,126.0,127.0,127.0,189.0,126.0,128.0,19.0,-106.0,-78.0,127.0,127.0,127.0,111.0,84.0,-50.0
127.0,126.0,126.0,127.0,126.0,189.0,126.0,128.0,19.0,-106.0,-78.0,127.0,127.0,127.0,111.0,84.0,-50.0
127.0,126.0,126.0,127.0,126.0,188.0,127.0,128.0,19.0,-106.0,-78.0,127.0,127.0,127.0,111.0,84.0,-50.0
127.0,126.0,126.0,127.0,126.0,188.0,126.0,128.0,19.0,-106.0,-78.0,127.0,127.0,127.0,111.0,84.0,-50.0
127.0,126.0,126.0,127.0,126.0,187.0,127.0,128.0,19.0,-106.0,-78.0,127.0,127.0,127.0,111.0,84.0,-50.0
127.0,127.0,125.0,128.0,127.0,189.0,126.0,128.0,19.0,-106.0,-78.0,127.0,127.0,127.0,111.0,84.0,-50.0
127.0,127.0,125.0,128.0,127.0,190.0,126.0,128.0,19.0,-106.0,-78.0,127.0,127.0,127.0,111.0,84.0,-50.0
127.0,127.0,125.0,127.0,127.0,190.0,127.0,128.0,19.0,-106.0,-78.0,127.0,127.0,127.0,111.0,84.0,-50.0
127.0,127.0,125.0,127.0,127.0,190.0,126.0,128.0,19.0,-106.0,-78.0,127.0,127.0,127.0,111.0,84.0,-50.0
127.0,126.0,125.0,127.0,127.0,178.0,126.0,128.0,20.0,-106.0,-79.0,127.0,127.0,127.0,111.0,84.0,-50.0
127.0,126.0,126.0,127.0,127.0,178.0,126.0,128.0,20.0,-106.0,-79.0,127.0,127.0,127.0,111.0,84.0,-50.0
127.0,126.0,126.0,127.0,126.0,178.0,126.0,128.0,20.0,-106.0,-79.0,127.0,127.0,127.0,111.0,84.0,-50.0
127.0,126.0,126.0,127.0,126.0,178.0,126.0,128.0,20.0,-106.0,-79.0,127.0,127.0,127.0,111.0,84.0,-50.0
127.0,126.0,126.0,127.0,126.0,178.0,126.0,128.0,20.0,-106.0,-79.0,127.0,127.0,127.0,111.0,84.0,-50.0
126.0,127.0,125.0,127.0,127.0,177.0,127.0,128.0,20.0,-106.0,-79.0,127.0,127.0,127.0,111.0,84.0,-50.0
126.0,127.0,124.0,127.0,127.0,178.0,126.0,128.0,20.0,-106.0,-79.0,127.0,127.0,127.0,111.0,84.0,-50.0
126.0,127.0,124.0,127.0,127.0,178.0,126.0,128.0,20.0,-106.0,-79.0,127.0,127.0,127.0,111.0,84.0,-50.0
127.0,127.0,125.0,127.0,127.0,178.0,126.0,128.0,20.0,-106.0,-79.0,127.0,127.0,127.0,111.0,84.0,-50.0
127.0,127.0,125.0,127.0,127.0,178.0,126.0,128.0,20.0,-106.0,-79.0,127.0,127.0,127.0,111.0,84.0,-50.0
127.0,126.0,127.0,127.0,127.0,175.0,126.0,128.0,22.0,-106.0,-79.0,127.0,127.0,127.0,111.0,84.0,-50.0
127.0,126.0,127.0,127.0,127.0,175.0,126.0,128.0,22.0,-106.0,-79.0,127.0,127.0,127.0,111.0,84.0,-50.0
127.0,126.0,128.0,127.0,127.0,175.0,126.0,128.0,22.0,-106.0,-79.0,127.0,127.0,127.0,111.0,84.0,-50.0
127.0,126.0,128.0,127.0,127.0,175.0,126.0,128.0,22.0,-106.0,-79.0,127.0,127.0,127.0,111.0,84.0,-50.0
126.0,126.0,126.0,127.0,127.0,172.0,127.0,128.0,22.0,-106.0,-79.0,127.0,127.0,127.0,111.0,84.0,-50.0
126.0,126.0,127.0,127.0,127.0,172.0,127.0,128.0,22.0,-106.0,-79.0,127.0,127.0,127.0,111.0,84.0,-50.0
126.0,126.0,127.0,127.0,127.0,173.0,127.0,128.0,22.0,-106.0,-79.0,127.0,127.0,127.0,111.0,84.0,-50.0
126.0,126.0,127.0,127.0,127.0,173.0,126.0,128.0,22.0,-106.0,-79.0,127.0,127.0,127.0,111.0,84.0,-50.0
126.0,126.0,127.0,127.0,127.0,174.0,126.0,128.0,22.0,-106.0,-79.0,127.0,127.0,127.0,111.0,84.0,-50.0
126.0,126.0,127.0,127.0,127.0,175.0,126.0,128.0,22.0,-106.0,-79.0,127.0,127.0,127.0,111.0,84.0,-50.0
126.0,126.0,128.0,127.0,126.0,172.0,126.0,128.0,22.0,-106.0,-79.0,127.0,127.0,127.0,111.0,84.0,-50.0
127.0,126.0,128.0,127.0,126.0,172.0,126.0,128.0,22.0,-106.0,-79.0,127.0,127.0,127.0,111.0,84.0,-50.0
127.0,126.0,129.0,127.0,126.0,172.0,126.0,128.0,22.0,-106.0,-79.0,127.0,127.0,127.0,111.0,84.0,-50.0
126.0,127.0,127.0,127.0,127.0,172.0,126.0,128.0,22.0,-106.0,-79.0,127.0,127.0,127.0,111.0,84.0,-50.0
126.0,127.0,127.0,127.0,127.0,172.0,126.0,128.0,22.0,-106.0,-79.0,127.0,127.0,127.0,111.0,84.0,-50.0
126.0,127.0,127.0,127.0,127.0,172.0,126.0,128.0,22.0,-106.0,-79.0,127.0,127.0,127.0,111.0,84.0,-50.0
126.0,127.0,127.0,127.0,127.0,172.0,126.0,128.0,22.0,-106.0,-79.0,127.0,127.0,127.0,111.0,84.0,-50.0
126.0,126.0,128.0,127.0,127.0,172.0,126.0,128.0,22.0,-106.0,-79.0,127.0,127.0,127.0,111.0,84.0,-50.0
126.0,126.0,128.0,127.0,126.0,172.0,126.0,128.0,22.0,-106.0,-79.0,127.0,127.0,127.0,111.0,84.0,-50.0
126.0,126.0,128.0,127.0,126.0,172.0,126.0,128.0,22.0,-106.0,-79.0,127.0,127.0,127.0,111.0,84.0,-50.0
127.0,126.0,128.0,127.0,127.0,172.0,126.0,128.0,22.0,-107.0,-79.0,127.0,127.0,127.0,111.0,84.0,-50.0
127.0,126.0,128.0,126.0,127.0,172.0,126.0,128.0,22.0,-107.0,-79.0,127.0,127.0,127.0,111.0,84.0,-50.0
126.0,127.0,127.0,127.0,127.0,172.0,126.0,128.0,22.0,-107.0,-79.0,127.0,127.0,127.0,111.0,84.0,-50.0
126.0,127.0,127.0,127.0,127.0,172.0,126.0,128.0,22.0,-107.0,-79.0,127.0,127.0,127.0,111.0,84.0,-50.0
126.0,127.0,127.0,127.0,127.0,172.0,126.0,128.0,22.0,-107.0,-79.0,127.0,127.0,127.0,111.0,84.0,-50.0
126.0,127.0,127.0,127.0,127.0,172.0,126.0,128.0,22.0,-107.0,-79.0,127.0,127.0,127.0,111.0,84.0,-50.0
127.0,127.0,127.0,127.0,127.0,172.0,126.0,128.0,22.0,-107.0,-79.0,127.0,127.0,127.0,111.0,84.0,-50.0
126.0,126.0,128.0,127.0,127.0,172.0,126.0,128.0,22.0,-107.0,-79.0,127.0,127.0,127.0,111.0,84.0,-50.0
127.0,126.0,128.0,127.0,127.0,172.0,126.0,128.0,22.0,-107.0,-79.0,127.0,127.0,127.0,111.0,84.0,-50.0
127.0,126.0,128.0,127.0,127.0,172.0,126.0,128.0,22.0,-107.0,-79.0,127.0,127.0,127.0,111.0,84.0,-50.0
127.0,125.0,129.0,126.0,126.0,172.0,126.0,128.0,21.0,-107.0,-79.0,127.0,127.0,127.0,111.0,84.0,-50.0
127.0,127.0,127.0,127.0,127.0,171.0,126.0,128.0,21.0,-107.0,-79.0,127.0,127.0,127.0,111.0,84.0,-50.0
127.0,127.0,127.0,127.0,127.0,171.0,126.0,128.0,21.0,-107.0,-79.0,127.0,127.0,127.0,111.0,84.0,-50.0
127.0,127.0,127.0,127.0,127.0,171.0,126.0,128.0,21.0,-107.0,-79.0,127.0,127.0,127.0,111.0,84.0,-50.0
127.0,126.0,127.0,127.0,127.0,172.0,126.0,128.0,21.0,-107.0,-79.0,127.0,127.0,127.0,111.0,84.0,-50.0
127.0,126.0,127.0,127.0,127.0,172.0,126.0,128.0,21.0,-107.0,-79.0,127.0,127.0,127.0,111.0,84.0,-50.0
127.0,126.0,128.0,127.0,127.0,171.0,126.0,128.0,21.0,-107.0,-79.0,127.0,127.0,127.0,111.0,84.0,-50.0
127.0,126.0,128.0,127.0,127.0,172.0,126.0,128.0,21.0,-107.0,-79.0,127.0,127.0,127.0,111.0,84.0,-50.0
127.0,126.0,128.0,127.0,127.0,171.0,126.0,128.0,21.0,-107.0,-79.0,127.0,127.0,127.0,111.0,84.0,-50.0
127.0,126.0,128.0,127.0,126.0,171.0,126.0,128.0,21.0,-107.0,-79.0,127.0,127.0,127.0,111.0,84.0,-50.0
127.0,127.0,127.0,127.0,127.0,170.0,126.0,128.0,20.0,-107.0,-78.0,127.0,127.0,127.0,111.0,84.0,-50.0
127.0,126.0,127.0,127.0,127.0,170.0,126.0,128.0,20.0,-107.0,-78.0,127.0,127.0,127.0,111.0,84.0,-50.0
127.0,126.0,127.0,127.0,127.0,170.0,126.0,128.0,20.0,-107.0,-78.0,127.0,127.0,127.0,111.0,84.0,-50.0
127.0,126.0,127.0,127.0,127.0,170.0,126.0,128.0,20.0,-107.0,-78.0,127.0,127.0,127.0,111.0,84.0,-50.0
127.0,126.0,128.0,127.0,127.0,170.0,126.0,128.0,20.0,-107.0,-78.0,127.0,127.0,127.0,111.0,84.0,-50.0
127.0,126.0,128.0,127.0,127.0,170.0,126.0,128.0,20.0,-107.0,-78.0,127.0,127.0,127.0,111.0,84.0,-50.0
127.0,126.0,128.0,127.0,127.0,170.0,126.0,128.0,20.0,-107.0,-78.0,127.0,127.0,127.0,111.0,84.0,-50.0
127.0,125.0,128.0,127.0,127.0,170.0,126.0,128.0,20.0,-107.0,-78.0,127.0,127.0,127.0,111.0,84.0,-50.0
127.0,125.0,129.0,127.0,127.0,170.0,126.0,128.0,20.0,-107.0,-78.0,127.0,127.0,127.0,111.0,84.0,-50.0
127.0,125.0,129.0,127.0,126.0,170.0,126.0,128.0,20.0,-107.0,-78.0,127.0,127.0,127.0,111.0,84.0,-50.0
126.0,127.0,126.0,127.0,127.0,168.0,127.0,128.0,19.0,-107.0,-78.0,127.0,127.0,127.0,111.0,84.0,-50.0
126.0,127.0,126.0,127.0,127.0,168.0,127.0,128.0,19.0,-107.0,-78.0,127.0,127.0,127.0,111.0,84.0,-50.0
126.0,127.0,126.0,127.0,127.0,169.0,127.0,128.0,19.0,-107.0,-78.0,127.0,127.0,127.0,111.0,84.0,-50.0
126.0,126.0,126.0,127.0,127.0,169.0,127.0,128.0,19.0,-107.0,-78.0,127.0,127.0,127.0,111.0,84.0,-50.0
127.0,126.0,126.0,127.0,127.0,168.0,127.0,128.0,19.0,-107.0,-78.0,127.0,127.0,127.0,111.0,84.0,-50.0
127.0,126.0,127.0,127.0,126.0,168.0,127.0,128.0,19.0,-107.0,-78.0,127.0,127.0,127.0,111.0,84.0,-50.0
127.0,126.0,127.0,127.0,126.0,168.0,127.0,128.0,19.0,-107.0,-78.0,127.0,127.0,127.0,111.0,84.0,-50.0
127.0,126.0,127.0,127.0,126.0,168.0,127.0,128.0,19.0,-107.0,-78.0,127.0,127.0,127.0,111.0,84.0,-50.0
127.0,126.0,127.0,127.0,126.0,168.0,126.0,128.0,19.0,-107.0,-78.0,127.0,127.0,127.0,111.0,84.0,-50.0
126.0,127.0,126.0,128.0,127.0,169.0,127.0,128.0,19.0,-107.0,-78.0,127.0,127.0,127.0,111.0,84.0,-50.0
126.0,127.0,125.0,127.0,127.0,166.0,127.0,128.0,18.0,-106.0,-78.0,127.0,127.0,127.0,111.0,84.0,-50.0
127.0,127.0,125.0,127.0,127.0,166.0,127.0,128.0,18.0,-106.0,-78.0,127.0,127.0,127.0,111.0,84.0,-50.0
127.0,127.0,126.0,127.0,127.0,166.0,127.0,128.0,18.0,-106.0,-78.0,127.0,127.0,127.0,111.0,84.0,-50.0
127.0,126.0,126.0,127.0,127.0,166.0,127.0,128.0,18.0,-106.0,-78.0,127.0,127.0,127.0,111.0,84.0,-50.0
127.0,126.0,126.0,127.0,126.0,166.0,127.0,128.0,18.0,-106.0,-78.0,127.0,127.0,127.0,111.0,84.0,-50.0
127.0,126.0,126.0,127.0,126.0,166.0,127.0,128.0,18.0,-106.0,-78.0,127.0,127.0,127.0,111.0,84.0,-50.0
127.0,126.0,127.0,127.0,126.0,166.0,127.0,128.0,18.0,-106.0,-78.0,127.0,127.0,127.0,111.0,84.0,-50.0
127.0,126.0,127.0,127.0,126.0,166.0,127.0,128.0,18.0,-106.0,-78.0,127.0,127.0,127.0,111.0,84.0,-50.0
126.0,127.0,125.0,128.0,127.0,166.0,127.0,128.0,18.0,-106.0,-78.0,127.0,127.0,127.0,111.0,84.0,-50.0
126.0,127.0,125.0,127.0,127.0,166.0,127.0,128.0,18.0,-106.0,-78.0,127.0,127.0,127.0,111.0,84.0,-50.0
127.0,127.0,126.0,127.0,127.0,164.0,127.0,128.0,18.0,-106.0,-78.0,127.0,127.0,127.0,111.0,84.0,-50.0
127.0,126.0,126.0,127.0,127.0,164.0,127.0,128.0,18.0,-106.0,-78.0,127.0,127.0,127.0,111.0,84.0,-50.0
127.0,126.0,126.0,127.0,127.0,164.0,127.0,128.0,18.0,-106.0,-78.0,127.0,127.0,127.0,111.0,84.0,-50.0
127.0,126.0,127.0,127.0,126.0,164.0,127.0,128.0,18.0,-106.0,-78.0,127.0,127.0,127.0,111.0,84.0,-50.0
127.0,126.0,127.0,127.0,126.0,164.0,126.0,128.0,18.0,-106.0,-78.0,127.0,127.0,127.0,111.0,84.0,-50.0
127.0,126.0,127.0,126.0,126.0,164.0,127.0,128.0,18.0,-106.0,-78.0,127.0,127.0,127.0,111.0,84.0,-50.0
127.0,126.0,127.0,126.0,126.0,164.0,126.0,128.0,18.0,-106.0,-78.0,127.0,127.0,127.0,111.0,84.0,-50.0
127.0,127.0,125.0,127.0,127.0,164.0,127.0,128.0,18.0,-106.0,-78.0,127.0,127.0,127.0,111.0,84.0,-50.0
127.0,127.0,126.0,127.0,127.0,164.0,127.0,128.0,18.0,-106.0,-78.0,127.0,127.0,127.0,111.0,84.0,-50.0
127.0,127.0,126.0,127.0,127.0,164.0,127.0,128.0,18.0,-106.0,-78.0,127.0,127.0,127.0,111.0,84.0,-50.0
127.0,127.0,126.0,127.0,127.0,161.0,127.0,128.0,18.0,-106.0,-78.0,127.0,127.0,127.0,111.0,84.0,-50.0
127.0,126.0,126.0,127.0,127.0,161.0,127.0,128.0,18.0,-106.0,-78.0,127.0,127.0,127.0,111.0,84.0,-50.0
127.0,126.0,127.0,127.0,127.0,161.0,127.0,128.0,18.0,-106.0,-78.0,127.0,127.0,127.0,111.0,84.0,-50.0
127.0,126.0,127.0,127.0,127.0,161.0,127.0,128.0,18.0,-106.0,-78.0,127.0,127.0,127.0,111.0,84.0,-50.0
127.0,126.0,127.0,127.0,127.0,161.0,127.0,128.0,18.0,-106.0,-78.0,127.0,127.0,127.0,111.0,84.0,-50.0
127.0,127.0,126.0,127.0,127.0,162.0,126.0,128.0,18.0,-106.0,-78.0,127.0,127.0,127.0,111.0,84.0,-50.0
127.0,127.0,126.0,128.0,127.0,159.0,127.0,128.0,18.0,-106.0,-78.0,127.0,127.0,127.0,111.0,84.0,-50.0
127.0,127.0,126.0,127.0,127.0,159.0,127.0,128.0,18.0,-106.0,-78.0,127.0,127.0,127.0,111.0,84.0,-50.0
127.0,127.0,126.0,127.0,127.0,160.0,127.0,128.0,18.0,-106.0,-78.0,127.0,127.0,127.0,111.0,84.0,-50.0
127.0,127.0,126.0,127.0,127.0,161.0,127.0,128.0,18.0,-106.0,-78.0,127.0,127.0,127.0,111.0,84.0,-50.0
127.0,126.0,125.0,127.0,127.0,159.0,127.0,128.0,19.0,-106.0,-78.0,127.0,127.0,127.0,111.0,84.0,-50.0
127.0,126.0,126.0,127.0,127.0,159.0,127.0,128.0,19.0,-106.0,-78.0,127.0,127.0,127.0,111.0,84.0,-50.0
127.0,126.0,126.0,127.0,127.0,159.0,127.0,128.0,19.0,-106.0,-78.0,127.0,127.0,127.0,111.0,84.0,-50.0
127.0,126.0,126.0,127.0,127.0,159.0,127.0,128.0,19.0,-106.0,-78.0,127.0,127.0,127.0,111.0,84.0,-50.0
126.0,127.0,125.0,128.0,127.0,159.0,127.0,128.0,19.0,-106.0,-78.0,127.0,127.0,127.0,111.0,84.0,-50.0
126.0,127.0,125.0,128.0,127.0,159.0,127.0,128.0,19.0,-106.0,-78.0,127.0,127.0,127.0,111.0,84.0,-50.0
126.0,127.0,125.0,128.0,127.0,159.0,127.0,128.0,19.0,-106.0,-78.0,127.0,127.0,127.0,111.0,84.0,-50.0
126.0,127.0,125.0,128.0,127.0,159.0,127.0,128.0,19.0,-106.0,-78.0,127.0,127.0,127.0,111.0,84.0,-50.0
127.0,127.0,125.0,128.0,127.0,159.0,127.0,128.0,19.0,-106.0,-78.0,127.0,127.0,127.0,111.0,84.0,-50.0
127.0,127.0,125.0,128.0,127.0,159.0,127.0,128.0,19.0,-106.0,-78.0,127.0,127.0,127.0,111.0,84.0,-50.0
126.0,126.0,126.0,128.0,127.0,158.0,127.0,128.0,20.0,-106.0,-79.0,127.0,127.0,127.0,111.0,84.0,-50.0
126.0,126.0,126.0,128.0,127.0,158.0,127.0,128.0,20.0,-106.0,-79.0,127.0,127.0,127.0,111.0,84.0,-50.0
126.0,126.0,126.0,127.0,127.0,158.0,127.0,128.0,20.0,-106.0,-79.0,127.0,127.0,127.0,111.0,84.0,-50.0
126.0,128.0,124.0,128.0,127.0,158.0,127.0,128.0,20.0,-106.0,-79.0,127.0,127.0,127.0,111.0,84.0,-50.0
126.0,127.0,124.0,128.0,127.0,158.0,127.0,128.0,20.0,-106.0,-79.0,127.0,127.0,127.0,111.0,84.0,-50.0
126.0,127.0,125.0,128.0,127.0,158.0,127.0,128.0,20.0,-106.0,-79.0,127.0,127.0,127.0,111.0,84.0,-50.0
126.0,127.0,125.0,128.0,127.0,158.0,127.0,128.0,20.0,-106.0,-79.0,127.0,127.0,127.0,111.0,84.0,-50.0
126.0,127.0,125.0,128.0,127.0,158.0,127.0,128.0,20.0,-106.0,-79.0,127.0,127.0,127.0,111.0,84.0,-50.0
126.0,127.0,125.0,128.0,127.0,158.0,127.0,128.0,20.0,-106.0,-79.0,127.0,127.0,127.0,111.0,84.0,-50.0
126.0,127.0,126.0,128.0,127.0,158.0,127.0,128.0,20.0,-106.0,-79.0,127.0,127.0,127.0,111.0,84.0,-50.0
127.0,126.0,127.0,127.0,127.0,158.0,126.0,128.0,21.0,-106.0,-79.0,127.0,127.0,127.0,111.0,84.0,-50.0
127.0,126.0,127.0,127.0,126.0,158.0,126.0,128.0,21.0,-106.0,-79.0,127.0,127.0,127.0,111.0,84.0,-50.0
126.0,127.0,126.0,127.0,127.0,157.0,126.0,128.0,21.0,-106.0,-79.0,127.0,127.0,127.0,111.0,84.0,-50.0
126.0,127.0,126.0,127.0,127.0,157.0,126.0,128.0,21.0,-106.0,-79.0,127.0,127.0,127.0,111.0,84.0,-50.0
126.0,127.0,126.0,127.0,127.0,157.0,126.0,128.0,21.0,-106.0,-79.0,127.0,127.0,127.0,111.0,84.0,-50.0
126.0,127.0,126.0,127.0,127.0,157.0,126.0,128.0,21.0,-106.0,-79.0,127.0,127.0,127.0,111.0,84.0,-50.0
126.0,127.0,126.0,127.0,127.0,158.0,126.0,128.0,21.0,-106.0,-79.0,127.0,127.0,127.0,111.0,84.0,-50.0
126.0,127.0,126.0,127.0,127.0,158.0,126.0,128.0,21.0,-106.0,-79.0,127.0,127.0,127.0,111.0,84.0,-50.0
126.0,126.0,126.0,127.0,127.0,158.0,126.0,128.0,21.0,-106.0,-79.0,127.0,127.0,127.0,111.0,84.0,-50.0
127.0,126.0,127.0,127.0,127.0,158.0,126.0,128.0,21.0,-106.0,-79.0,127.0,127.0,127.0,111.0,84.0,-50.0
126.0,126.0,128.0,127.0,127.0,160.0,126.0,128.0,22.0,-106.0,-79.0,127.0,127.0,127.0,111.0,84.0,-50.0
126.0,127.0,127.0,128.0,127.0,156.0,127.0,128.0,22.0,-106.0,-79.0,127.0,127.0,127.0,111.0,84.0,-50.0
126.0,127.0,127.0,128.0,127.0,157.0,126.0,128.0,22.0,-106.0,-79.0,127.0,127.0,127.0,111.0,84.0,-50.0
126.0,127.0,127.0,128.0,127.0,158.0,126.0,128.0,22.0,-106.0,-79.0,127.0,127.0,127.0,111.0,84.0,-50.0
126.0,127.0,127.0,128.0,127.0,157.0,126.0,128.0,22.0,-106.0,-79.0,127.0,127.0,127.0,111.0,84.0,-50.0
126.0,127.0,127.0,128.0,127.0,157.0,127.0,128.0,22.0,-106.0,-79.0,127.0,127.0,127.0,111.0,84.0,-50.0
126.0,127.0,127.0,127.0,127.0,158.0,126.0,128.0,22.0,-106.0,-79.0,127.0,127.0,127.0,111.0,84.0,-50.0
126.0,126.0,127.0,127.0,127.0,158.0,126.0,128.0,22.0,-106.0,-79.0,127.0,127.0,127.0,111.0,84.0,-50.0
126.0,127.0,127.0,127.0,127.0,159.0,126.0,128.0,22.0,-106.0,-79.0,127.0,127.0,127.0,111.0,84.0,-50.0
126.0,127.0,127.0,127.0,127.0,160.0,126.0,128.0,22.0,-106.0,-79.0,127.0,127.0,127.0,111.0,84.0,-50.0
126.0,126.0,126.0,128.0,127.0,155.0,127.0,128.0,22.0,-107.0,-79.0,127.0,127.0,127.0,111.0,84.0,-50.0
126.0,127.0,126.0,128.0,127.0,157.0,126.0,128.0,22.0,-107.0,-79.0,127.0,127.0,127.0,111.0,84.0,-50.0
126.0,127.0,126.0,128.0,127.0,157.0,127.0,128.0,22.0,-107.0,-79.0,127.0,127.0,127.0,111.0,84.0,-50.0
126.0,127.0,126.0,128.0,127.0,157.0,127.0,128.0,22.0,-107.0,-79.0,127.0,127.0,127.0,111.0,84.0,-50.0
126.0,127.0,127.0,128.0,127.0,157.0,127.0,128.0,22.0,-107.0,-79.0,127.0,127.0,127.0,111.0,84.0,-50.0
126.0,127.0,127.0,128.0,127.0,157.0,127.0,128.0,22.0,-107.0,-79.0,127.0,127.0,127.0,111.0,84.0,-50.0
126.0,127.0,127.0,127.0,127.0,157.0,126.0,128.0,22.0,-107.0,-79.0,127.0,127.0,127.0,111.0,84.0,-50.0
126.0,127.0,127.0,127.0,127.0,158.0,126.0,128.0,22.0,-107.0,-79.0,127.0,127.0,127.0,111.0,84.0,-50.0
126.0,127.0,127.0,127.0,127.0,159.0,126.0,128.0,22.0,-107.0,-79.0,127.0,127.0,127.0,111.0,84.0,-50.0
126.0,126.0,127.0,127.0,127.0,159.0,126.0,128.0,22.0,-107.0,-79.0,127.0,127.0,127.0,111.0,84.0,-50.0
126.0,127.0,127.0,127.0,127.0,157.0,126.0,128.0,22.0,-107.0,-79.0,127.0,127.0,127.0,111.0,84.0,-50.0
127.0,127.0,127.0,127.0,127.0,158.0,126.0,128.0,22.0,-107.0,-79.0,127.0,127.0,127.0,111.0,84.0,-50.0
127.0,127.0,127.0,127.0,127.0,158.0,126.0,128.0,22.0,-107.0,-79.0,127.0,127.0,127.0,111.0,84.0,-50.0
127.0,126.0,127.0,127.0,127.0,158.0,126.0,128.0,22.0,-107.0,-79.0,127.0,127.0,127.0,111.0,84.0,-50.0
127.0,126.0,127.0,127.0,127.0,158.0,126.0,128.0,22.0,-107.0,-79.0,127.0,127.0,127.0,111.0,84.0,-50.0
127.0,126.0,127.0,127.0,127.0,158.0,126.0,128.0,22.0,-107.0,-79.0,127.0,127.0,127.0,111.0,84.0,-50.0
127.0,126.0,127.0,127.0,127.0,159.0,126.0,128.0,22.0,-107.0,-79.0,127.0,127.0,127.0,111.0,84.0,-50.0
127.0,126.0,127.0,127.0,127.0,160.0,126.0,128.0,22.0,-107.0,-79.0,127.0,127.0,127.0,111.0,84.0,-50.0
127.0,126.0,127.0,127.0,127.0,160.0,126.0,128.0,22.0,-107.0,-79.0,127.0,127.0,127.0,111.0,84.0,-50.0
126.0,127.0,127.0,127.0,127.0,156.0,127.0,128.0,22.0,-107.0,-79.0,127.0,127.0,127.0,111.0,84.0,-50.0
127.0,127.0,127.0,127.0,127.0,158.0,126.0,128.0,20.0,-107.0,-79.0,127.0,127.0,127.0,111.0,84.0,-50.0
127.0,126.0,127.0,127.0,127.0,158.0,126.0,128.0,20.0,-107.0,-79.0,127.0,127.0,127.0,111.0,84.0,-50.0
127.0,126.0,127.0,127.0,127.0,158.0,126.0,128.0,20.0,-107.0,-79.0,127.0,127.0,127.0,111.0,84.0,-50.0
127.0,126.0,127.0,127.0,127.0,158.0,126.0,128.0,20.0,-107.0,-79.0,127.0,127.0,127.0,111.0,84.0,-50.0
127.0,126.0,127.0,127.0,127.0,159.0,126.0,128.0,20.0,-107.0,-79.0,127.0,127.0,127.0,111.0,84.0,-50.0
127.0,126.0,127.0,127.0,127.0,159.0,126.0,128.0,20.0,-107.0,-79.0,127.0,127.0,127.0,111.0,84.0,-50.0
127.0,126.0,127.0,127.0,127.0,160.0,126.0,128.0,20.0,-107.0,-79.0,127.0,127.0,127.0,111.0,84.0,-50.0
127.0,126.0,127.0,127.0,127.0,160.0,126.0,128.0,20.0,-107.0,-79.0,127.0,127.0,127.0,111.0,84.0,-50.0
127.0,126.0,127.0,127.0,127.0,157.0,126.0,128.0,20.0,-107.0,-79.0,127.0,127.0,127.0,111.0,84.0,-50.0
127.0,127.0,127.0,127.0,127.0,158.0,126.0,128.0,20.0,-107.0,-79.0,127.0,127.0,127.0,111.0,84.0,-50.0
126.0,126.0,126.0,127.0,127.0,153.0,127.0,128.0,19.0,-107.0,-78.0,127.0,127.0,127.0,111.0,84.0,-50.0
126.0,126.0,127.0,127.0,127.0,153.0,127.0,127.0,19.0,-107.0,-78.0,127.0,127.0,127.0,111.0,84.0,-50.0
126.0,126.0,127.0,127.0,126.0,153.0,127.0,127.0,19.0,-107.0,-78.0,127.0,127.0,127.0,111.0,84.0,-50.0
126.0,126.0,127.0,127.0,126.0,154.0,126.0,127.0,19.0,-107.0,-78.0,127.0,127.0,127.0,111.0,84.0,-50.0
126.0,126.0,127.0,127.0,126.0,154.0,126.0,127.0,19.0,-107.0,-78.0,127.0,127.0,127.0,111.0,84.0,-50.0
127.0,126.0,127.0,127.0,126.0,154.0,126.0,127.0,19.0,-107.0,-78.0,127.0,127.0,127.0,111.0,84.0,-50.0
127.0,126.0,127.0,127.0,126.0,154.0,126.0,127.0,19.0,-107.0,-78.0,127.0,127.0,127.0,111.0,84.0,-50.0
126.0,126.0,126.0,127.0,127.0,153.0,127.0,128.0,19.0,-107.0,-78.0,127.0,127.0,127.0,111.0,84.0,-50.0
126.0,126.0,126.0,127.0,127.0,153.0,127.0,128.0,19.0,-107.0,-78.0,127.0,127.0,127.0,111.0,84.0,-50.0
126.0,126.0,126.0,127.0,127.0,153.0,127.0,127.0,19.0,-107.0,-78.0,127.0,127.0,127.0,111.0,84.0,-50.0
126.0,127.0,126.0,127.0,127.0,153.0,126.0,128.0,19.0,-106.0,-78.0,127.0,127.0,127.0,111.0,84.0,-50.0
126.0,127.0,126.0,127.0,127.0,154.0,126.0,128.0,19.0,-106.0,-78.0,127.0,127.0,127.0,111.0,84.0,-50.0
127.0,127.0,126.0,127.0,127.0,154.0,126.0,128.0,19.0,-106.0,-78.0,127.0,127.0,127.0,111.0,84.0,-50.0
127.0,127.0,126.0,127.0,127.0,154.0,126.0,128.0,19.0,-106.0,-78.0,127.0,127.0,127.0,111.0,84.0,-50.0
126.0,127.0,126.0,127.0,127.0,155.0,126.0,128.0,19.0,-106.0,-78.0,127.0,127.0,127.0,111.0,84.0,-50.0
126.0,127.0,126.0,127.0,127.0,155.0,126.0,128.0,19.0,-106.0,-78.0,127.0,127.0,127.0,111.0,84.0,-50.0
126.0,127.0,125.0,127.0,127.0,152.0,127.0,128.0,19.0,-106.0,-78.0,127.0,127.0,127.0,111.0,84.0,-50.0
126.0,127.0,126.0,127.0,127.0,152.0,127.0,128.0,19.0,-106.0,-78.0,127.0,127.0,127.0,111.0,84.0,-50.0
126.0,127.0,126.0,127.0,127.0,152.0,127.0,128.0,19.0,-106.0,-78.0,127.0,127.0,127.0,111.0,84.0,-50.0
126.0,127.0,126.0,127.0,127.0,152.0,127.0,128.0,19.0,-106.0,-78.0,127.0,127.0,127.0,111.0,84.0,-50.0
126.0,126.0,126.0,127.0,127.0,152.0,127.0,128.0,18.0,-106.0,-78.0,127.0,127.0,127.0,111.0,84.0,-50.0
126.0,126.0,126.0,127.0,126.0,152.0,126.0,128.0,18.0,-106.0,-78.0,127.0,127.0,127.0,111.0,84.0,-50.0
126.0,126.0,126.0,127.0,126.0,153.0,126.0,128.0,18.0,-106.0,-78.0,127.0,127.0,127.0,111.0,84.0,-50.0
126.0,126.0,126.0,127.0,126.0,154.0,126.0,128.0,18.0,-106.0,-78.0,127.0,127.0,127.0,111.0,84.0,-50.0
126.0,126.0,126.0,127.0,126.0,154.0,126.0,128.0,18.0,-106.0,-78.0,127.0,127.0,127.0,111.0,84.0,-50.0
126.0,127.0,125.0,128.0,127.0,150.0,127.0,127.0,18.0,-106.0,-78.0,127.0,127.0,127.0,111.0,84.0,-50.0
126.0,127.0,125.0,128.0,127.0,151.0,127.0,127.0,18.0,-106.0,-78.0,127.0,127.0,127.0,111.0,84.0,-50.0
126.0,127.0,125.0,128.0,127.0,152.0,126.0,128.0,18.0,-106.0,-78.0,127.0,127.0,127.0,111.0,84.0,-50.0
126.0,127.0,125.0,127.0,127.0,152.0,126.0,128.0,18.0,-106.0,-78.0,127.0,127.0,127.0,111.0,84.0,-50.0
126.0,126.0,125.0,127.0,127.0,152.0,127.0,128.0,18.0,-106.0,-78.0,127.0,127.0,127.0,111.0,84.0,-50.0
127.0,126.0,125.0,127.0,127.0,153.0,127.0,128.0,19.0,-106.0,-78.0,127.0,127.0,127.0,111.0,84.0,-50.0
127.0,126.0,126.0,127.0,127.0,153.0,126.0,128.0,19.0,-106.0,-78.0,127.0,127.0,127.0,111.0,84.0,-50.0
127.0,127.0,125.0,127.0,127.0,155.0,126.0,128.0,19.0,-106.0,-78.0,127.0,127.0,127.0,111.0,84.0,-50.0
127.0,127.0,126.0,127.0,127.0,155.0,126.0,128.0,19.0,-106.0,-78.0,127.0,127.0,127.0,111.0,84.0,-50.0
127.0,127.0,125.0,127.0,127.0,151.0,127.0,128.0,19.0,-106.0,-78.0,127.0,127.0,127.0,111.0,84.0,-50.0
127.0,127.0,125.0,127.0,127.0,152.0,127.0,128.0,19.0,-106.0,-78.0,127.0,127.0,127.0,111.0,84.0,-50.0
127.0,127.0,125.0,127.0,127.0,153.0,127.0,128.0,19.0,-106.0,-78.0,127.0,127.0,127.0,111.0,84.0,-50.0
127.0,127.0,125.0,127.0,127.0,153.0,127.0,128.0,19.0,-106.0,-78.0,127.0,127.0,127.0,111.0,84.0,-50.0
127.0,127.0,125.0,127.0,127.0,153.0,127.0,128.0,19.0,-106.0,-78.0,127.0,127.0,127.0,111.0,84.0,-50.0
127.0,126.0,125.0,127.0,127.0,153.0,127.0,128.0,19.0,-106.0,-78.0,127.0,127.0,127.0,111.0,84.0,-50.0
127.0,127.0,126.0,127.0,127.0,153.0,127.0,128.0,19.0,-106.0,-78.0,127.0,127.0,127.0,111.0,84.0,-50.0
127.0,127.0,126.0,127.0,127.0,154.0,126.0,128.0,19.0,-106.0,-78.0,127.0,127.0,127.0,111.0,84.0,-50.0
127.0,127.0,126.0,127.0,127.0,155.0,126.0,128.0,19.0,-106.0,-78.0,127.0,127.0,127.0,111.0,84.0,-50.0
127.0,127.0,125.0,128.0,127.0,151.0,127.0,128.0,19.0,-106.0,-78.0,127.0,127.0,127.0,111.0,84.0,-50.0
127.0,127.0,125.0,128.0,127.0,151.0,127.0,128.0,19.0,-106.0,-78.0,127.0,127.0,127.0,111.0,84.0,-50.0
127.0,128.0,125.0,128.0,127.0,152.0,127.0,128.0,19.0,-106.0,-78.0,127.0,127.0,127.0,111.0,84.0,-50.0
127.0,127.0,125.0,128.0,127.0,153.0,127.0,128.0,19.0,-106.0,-78.0,127.0,127.0,127.0,111.0,84.0,-50.0
127.0,127.0,125.0,128.0,127.0,153.0,127.0,128.0,19.0,-106.0,-78.0,127.0,127.0,127.0,111.0,84.0,-50.0
127.0,127.0,126.0,128.0,127.0,152.0,127.0,128.0,19.0,-106.0,-78.0,127.0,127.0,127.0,111.0,84.0,-50.0
127.0,127.0,126.0,128.0,127.0,153.0,127.0,128.0,19.0,-106.0,-78.0,127.0,127.0,127.0,111.0,84.0,-50.0
127.0,127.0,126.0,127.0,127.0,155.0,126.0,128.0,20.0,-106.0,-79.0,127.0,127.0,127.0,111.0,84.0,-50.0
127.0,127.0,126.0,127.0,127.0,155.0,126.0,128.0,20.0,-106.0,-79.0,127.0,127.0,127.0,111.0,84.0,-50.0
127.0,127.0,125.0,128.0,127.0,151.0,127.0,128.0,20.0,-106.0,-79.0,127.0,127.0,127.0,111.0,84.0,-50.0
127.0,127.0,125.0,128.0,127.0,151.0,127.0,128.0,20.0,-106.0,-79.0,127.0,127.0,127.0,111.0,84.0,-50.0
127.0,127.0,125.0,128.0,127.0,153.0,127.0,128.0,20.0,-106.0,-79.0,127.0,127.0,127.0,111.0,84.0,-50.0
127.0,127.0,125.0,128.0,127.0,153.0,127.0,128.0,20.0,-106.0,-79.0,127.0,127.0,127.0,111.0,84.0,-50.0
127.0,127.0,125.0,128.0,127.0,153.0,127.0,128.0,20.0,-106.0,-79.0,127.0,127.0,127.0,111.0,84.0,-50.0
127.0,127.0,125.0,128.0,127.0,153.0,127.0,128.0,20.0,-106.0,-79.0,127.0,127.0,127.0,111.0,84.0,-50.0
127.0,127.0,125.0,128.0,127.0,153.0,127.0,128.0,20.0,-106.0,-79.0,127.0,127.0,127.0,111.0,84.0,-50.0
127.0,127.0,126.0,128.0,127.0,153.0,127.0,128.0,20.0,-106.0,-79.0,127.0,127.0,127.0,111.0,84.0,-50.0
127.0,126.0,127.0,127.0,126.0,158.0,126.0,128.0,22.0,-106.0,-79.0,127.0,127.0,127.0,111.0,84.0,-50.0
127.0,127.0,127.0,127.0,126.0,154.0,127.0,128.0,22.0,-106.0,-79.0,127.0,127.0,127.0,111.0,84.0,-50.0
126.0,127.0,127.0,127.0,126.0,154.0,127.0,128.0,22.0,-106.0,-79.0,127.0,127.0,127.0,111.0,84.0,-50.0
127.0,127.0,126.0,127.0,126.0,155.0,126.0,128.0,22.0,-106.0,-79.0,127.0,127.0,127.0,111.0,84.0,-50.0
127.0,127.0,126.0,127.0,126.0,156.0,126.0,128.0,22.0,-106.0,-79.0,127.0,127.0,127.0,111.0,84.0,-50.0
127.0,127.0,126.0,127.0,126.0,156.0,126.0,128.0,22.0,-106.0,-79.0,127.0,127.0,127.0,111.0,84.0,-50.0
127.0,126.0,127.0,127.0,126.0,156.0,126.0,128.0,22.0,-106.0,-79.0,127.0,127.0,127.0,111.0,84.0,-50.0
127.0,126.0,127.0,127.0,126.0,156.0,126.0,128.0,22.0,-106.0,-79.0,127.0,127.0,127.0,111.0,84.0,-50.0
127.0,126.0,127.0,127.0,126.0,156.0,126.0,128.0,22.0,-106.0,-79.0,127.0,127.0,127.0,111.0,84.0,-50.0
127.0,126.0,127.0,127.0,126.0,157.0,126.0,128.0,22.0,-106.0,-79.0,127.0,127.0,127.0,111.0,84.0,-50.0
126.0,126.0,127.0,128.0,127.0,154.0,126.0,128.0,22.0,-106.0,-79.0,127.0,127.0,127.0,111.0,84.0,-50.0
126.0,127.0,127.0,128.0,127.0,154.0,126.0,128.0,22.0,-106.0,-79.0,127.0,127.0,127.0,111.0,84.0,-50.0
126.0,127.0,127.0,128.0,127.0,155.0,126.0,128.0,22.0,-106.0,-79.0,127.0,127.0,127.0,111.0,84.0,-50.0
126.0,127.0,127.0,128.0,127.0,156.0,126.0,128.0,22.0,-106.0,-79.0,127.0,127.0,127.0,111.0,84.0,-50.0
126.0,127.0,127.0,128.0,127.0,156.0,126.0,128.0,22.0,-106.0,-79.0,127.0,127.0,127.0,111.0,84.0,-50.0
126.0,127.0,127.0,128.0,127.0,156.0,126.0,128.0,22.0,-106.0,-79.0,127.0,127.0,127.0,111.0,84.0,-50.0
126.0,126.0,127.0,127.0,127.0,156.0,126.0,128.0,22.0,-106.0,-79.0,127.0,127.0,127.0,111.0,84.0,-50.0
126.0,126.0,127.0,127.0,127.0,156.0,126.0,128.0,22.0,-106.0,-79.0,127.0,127.0,127.0,111.0,84.0,-50.0
126.0,126.0,127.0,127.0,127.0,157.0,126.0,128.0,22.0,-106.0,-79.0,127.0,127.0,127.0,111.0,84.0,-50.0
126.0,126.0,127.0,127.0,127.0,158.0,126.0,128.0,22.0,-106.0,-79.0,127.0,127.0,127.0,111.0,84.0,-50.0
126.0,127.0,127.0,128.0,127.0,154.0,127.0,128.0,22.0,-107.0,-79.0,127.0,127.0,127.0,111.0,84.0,-50.0
126.0,127.0,127.0,128.0,127.0,154.0,127.0,128.0,22.0,-107.0,-79.0,127.0,127.0,127.0,111.0,84.0,-50.0
126.0,126.0,127.0,127.0,127.0,154.0,127.0,128.0,22.0,-107.0,-79.0,127.0,127.0,127.0,111.0,84.0,-50.0
126.0,126.0,127.0,127.0,127.0,154.0,127.0,128.0,22.0,-107.0,-79.0,127.0,127.0,127.0,111.0,84.0,-50.0
126.0,126.0,127.0,127.0,127.0,154.0,127.0,128.0,22.0,-107.0,-79.0,127.0,127.0,127.0,111.0,84.0,-50.0
126.0,126.0,127.0,127.0,127.0,154.0,127.0,128.0,22.0,-107.0,-79.0,127.0,127.0,127.0,111.0,84.0,-50.0
126.0,126.0,127.0,127.0,127.0,155.0,127.0,128.0,22.0,-107.0,-79.0,127.0,127.0,127.0,111.0,84.0,-50.0
127.0,126.0,127.0,127.0,127.0,155.0,127.0,128.0,22.0,-107.0,-79.0,127.0,127.0,127.0,111.0,84.0,-50.0
127.0,126.0,127.0,127.0,126.0,155.0,126.0,128.0,22.0,-107.0,-79.0,127.0,127.0,127.0,111.0,84.0,-50.0
126.0,127.0,126.0,128.0,127.0,154.0,127.0,128.0,22.0,-107.0,-79.0,127.0,127.0,127.0,111.0,84.0,-50.0
126.0,126.0,127.0,127.0,127.0,155.0,127.0,128.0,21.0,-107.0,-78.0,127.0,127.0,127.0,111.0,84.0,-50.0
126.0,126.0,127.0,127.0,127.0,155.0,127.0,128.0,21.0,-107.0,-78.0,127.0,127.0,127.0,111.0,84.0,-50.0
126.0,126.0,127.0,127.0,127.0,155.0,127.0,128.0,21.0,-107.0,-78.0,127.0,127.0,127.0,111.0,84.0,-50.0
126.0,126.0,127.0,127.0,127.0,155.0,126.0,128.0,21.0,-107.0,-78.0,127.0,127.0,127.0,111.0,84.0,-50.0
126.0,126.0,127.0,127.0,127.0,157.0,126.0,128.0,21.0,-107.0,-78.0,127.0,127.0,127.0,111.0,84.0,-50.0
126.0,126.0,127.0,127.0,127.0,157.0,126.0,128.0,21.0,-107.0,-78.0,127.0,127.0,127.0,111.0,84.0,-50.0
127.0,126.0,127.0,127.0,127.0,157.0,126.0,128.0,21.0,-107.0,-78.0,127.0,127.0,127.0,111.0,84.0,-50.0
127.0,126.0,128.0,127.0,127.0,157.0,126.0,128.0,21.0,-107.0,-78.0,127.0,127.0,127.0,111.0,84.0,-50.0
126.0,127.0,126.0,127.0,127.0,155.0,126.0,128.0,21.0,-107.0,-78.0,127.0,127.0,127.0,111.0,84.0,-50.0
126.0,127.0,126.0,127.0,127.0,155.0,127.0,128.0,21.0,-107.0,-78.0,127.0,127.0,127.0,111.0,84.0,-50.0
127.0,126.0,127.0,127.0,127.0,158.0,126.0,128.0,20.0,-107.0,-78.0,127.0,127.0,127.0,111.0,84.0,-50.0
127.0,126.0,127.0,127.0,127.0,158.0,126.0,128.0,20.0,-107.0,-78.0,127.0,127.0,127.0,111.0,84.0,-50.0
127.0,126.0,127.0,127.0,127.0,158.0,126.0,128.0,20.0,-107.0,-78.0,127.0,127.0,127.0,111.0,84.0,-50.0
127.0,126.0,127.0,127.0,127.0,159.0,126.0,128.0,20.0,-107.0,-78.0,127.0,127.0,127.0,111.0,84.0,-50.0
127.0,126.0,127.0,127.0,127.0,160.0,126.0,128.0,20.0,-107.0,-78.0,127.0,127.0,127.0,111.0,84.0,-50.0
127.0,126.0,127.0,127.0,127.0,160.0,126.0,128.0,20.0,-107.0,-78.0,127.0,127.0,127.0,111.0,84.0,-50.0
127.0,126.0,128.0,127.0,127.0,160.0,126.0,128.0,20.0,-107.0,-78.0,127.0,127.0,127.0,111.0,84.0,-50.0
126.0,127.0,127.0,127.0,127.0,158.0,126.0,128.0,20.0,-107.0,-78.0,127.0,127.0,127.0,111.0,84.0,-50.0
127.0,126.0,127.0,127.0,127.0,158.0,126.0,128.0,20.0,-107.0,-78.0,127.0,127.0,127.0,111.0,84.0,-50.0
127.0,126.0,127.0,127.0,127.0,158.0,126.0,128.0,20.0,-107.0,-78.0,127.0,127.0,127.0,111.0,84.0,-50.0
126.0,126.0,126.0,127.0,127.0,158.0,126.0,128.0,19.0,-106.0,-78.0,127.0,127.0,127.0,111.0,84.0,-50.0
126.0,126.0,126.0,127.0,127.0,158.0,127.0,128.0,19.0,-106.0,-78.0,127.0,127.0,127.0,111.0,84.0,-50.0
126.0,127.0,126.0,127.0,127.0,159.0,126.0,128.0,19.0,-106.0,-78.0,127.0,127.0,127.0,111.0,84.0,-50.0
126.0,127.0,126.0,127.0,127.0,159.0,126.0,128.0,19.0,-106.0,-78.0,127.0,127.0,127.0,111.0,84.0,-50.0
126.0,126.0,126.0,127.0,127.0,159.0,126.0,128.0,19.0,-106.0,-78.0,127.0,127.0,127.0,111.0,84.0,-50.0
126.0,126.0,127.0,127.0,127.0,159.0,126.0,128.0,19.0,-106.0,-78.0,127.0,127.0,127.0,111.0,84.0,-50.0
126.0,127.0,126.0,127.0,127.0,158.0,126.0,128.0,19.0,-106.0,-78.0,127.0,127.0,127.0,111.0,84.0,-50.0
126.0,127.0,126.0,127.0,127.0,158.0,127.0,128.0,19.0,-106.0,-78.0,127.0,127.0,127.0,111.0,84.0,-50.0
126.0,127.0,126.0,127.0,127.0,158.0,127.0,128.0,19.0,-106.0,-78.0,127.0,127.0,127.0,111.0,84.0,-50.0
126.0,127.0,126.0,127.0,127.0,158.0,127.0,128.0,19.0,-106.0,-78.0,127.0,127.0,127.0,111.0,84.0,-50.0
126.0,127.0,126.0,127.0,127.0,155.0,127.0,128.0,18.0,-106.0,-78.0,127.0,127.0,127.0,111.0,84.0,-50.0
126.0,127.0,126.0,127.0,127.0,156.0,126.0,128.0,18.0,-106.0,-78.0,127.0,127.0,127.0,111.0,84.0,-50.0
126.0,127.0,126.0,127.0,127.0,157.0,126.0,128.0,18.0,-106.0,-78.0,127.0,127.0,127.0,111.0,84.0,-50.0
126.0,127.0,126.0,127.0,127.0,157.0,126.0,128.0,18.0,-106.0,-78.0,127.0,127.0,127.0,111.0,84.0,-50.0
126.0,127.0,127.0,127.0,127.0,157.0,126.0,128.0,18.0,-106.0,-78.0,127.0,127.0,127.0,111.0,84.0,-50.0
126.0,127.0,126.0,127.0,127.0,155.0,127.0,128.0,18.0,-106.0,-78.0,127.0,127.0,127.0,111.0,84.0,-50.0
126.0,127.0,126.0,127.0,127.0,155.0,127.0,128.0,18.0,-106.0,-78.0,127.0,127.0,127.0,111.0,84.0,-50.0
126.0,127.0,126.0,127.0,127.0,155.0,127.0,128.0,18.0,-106.0,-78.0,127.0,127.0,127.0,111.0,84.0,-50.0
126.0,127.0,126.0,127.0,127.0,155.0,127.0,128.0,18.0,-106.0,-78.0,127.0,127.0,127.0,111.0,84.0,-50.0
126.0,127.0,126.0,127.0,127.0,155.0,127.0,128.0,18.0,-106.0,-78.0,127.0,127.0,127.0,111.0,84.0,-50.0
126.0,127.0,126.0,127.0,127.0,153.0,127.0,128.0,17.0,-106.0,-78.0,127.0,127.0,127.0,111.0,84.0,-50.0
126.0,127.0,126.0,127.0,127.0,154.0,127.0,128.0,17.0,-106.0,-78.0,127.0,127.0,127.0,111.0,84.0,-50.0
126.0,127.0,126.0,127.0,127.0,154.0,127.0,128.0,17.0,-106.0,-78.0,127.0,127.0,127.0,111.0,84.0,-50.0
126.0,126.0,126.0,127.0,127.0,154.0,127.0,128.0,17.0,-106.0,-78.0,127.0,127.0,127.0,111.0,84.0,-50.0
126.0,127.0,125.0,128.0,127.0,152.0,127.0,128.0,17.0,-106.0,-78.0,127.0,127.0,127.0,111.0,84.0,-50.0
126.0,127.0,125.0,128.0,127.0,152.0,127.0,128.0,17.0,-106.0,-78.0,127.0,127.0,127.0,111.0,84.0,-50.0
126.0,127.0,125.0,128.0,127.0,152.0,127.0,128.0,17.0,-106.0,-78.0,127.0,127.0,127.0,111.0,84.0,-50.0
126.0,127.0,126.0,128.0,127.0,152.0,127.0,128.0,17.0,-106.0,-78.0,127.0,127.0,127.0,111.0,84.0,-50.0
126.0,127.0,126.0,128.0,127.0,152.0,127.0,128.0,17.0,-106.0,-78.0,127.0,127.0,127.0,111.0,84.0,-50.0
126.0,127.0,126.0,128.0,127.0,152.0,127.0,128.0,17.0,-106.0,-78.0,127.0,127.0,127.0,111.0,84.0,-50.0
127.0,127.0,126.0,127.0,127.0,153.0,127.0,128.0,17.0,-106.0,-78.0,127.0,127.0,127.0,111.0,84.0,-50.0
127.0,127.0,126.0,127.0,127.0,153.0,126.0,128.0,17.0,-106.0,-78.0,127.0,127.0,127.0,111.0,84.0,-50.0
127.0,127.0,126.0,127.0,127.0,154.0,126.0,128.0,17.0,-106.0,-78.0,127.0,127.0,127.0,111.0,84.0,-50.0
127.0,127.0,126.0,128.0,127.0,151.0,127.0,128.0,17.0,-106.0,-78.0,127.0,127.0,127.0,111.0,84.0,-50.0
127.0,127.0,126.0,128.0,127.0,151.0,127.0,128.0,17.0,-106.0,-78.0,127.0,127.0,127.0,111.0,84.0,-50.0
127.0,127.0,126.0,128.0,127.0,151.0,127.0,128.0,17.0,-106.0,-78.0,127.0,127.0,127.0,111.0,84.0,-50.0
127.0,127.0,126.0,128.0,127.0,151.0,127.0,128.0,17.0,-106.0,-78.0,127.0,127.0,127.0,111.0,84.0,-50.0
127.0,127.0,126.0,128.0,127.0,151.0,127.0,128.0,17.0,-106.0,-78.0,127.0,127.0,127.0,111.0,84.0,-50.0
127.0,127.0,126.0,128.0,127.0,151.0,127.0,128.0,17.0,-106.0,-78.0,127.0,127.0,127.0,111.0,84.0,-50.0
127.0,127.0,126.0,127.0,127.0,152.0,127.0,128.0,17.0,-106.0,-78.0,127.0,127.0,127.0,111.0,84.0,-50.0
127.0,126.0,126.0,127.0,126.0,153.0,127.0,128.0,18.0,-106.0,-78.0,127.0,127.0,127.0,111.0,84.0,-50.0
127.0,126.0,126.0,127.0,126.0,153.0,127.0,128.0,18.0,-106.0,-78.0,127.0,127.0,127.0,111.0,84.0,-50.0
127.0,127.0,124.0,128.0,127.0,153.0,127.0,128.0,18.0,-106.0,-78.0,127.0,127.0,127.0,111.0,84.0,-50.0
126.0,127.0,125.0,128.0,127.0,153.0,127.0,128.0,18.0,-106.0,-78.0,127.0,127.0,127.0,111.0,84.0,-50.0
127.0,127.0,125.0,128.0,127.0,153.0,127.0,128.0,18.0,-106.0,-78.0,127.0,127.0,127.0,111.0,84.0,-50.0
127.0,127.0,125.0,128.0,127.0,153.0,127.0,128.0,18.0,-106.0,-78.0,127.0,127.0,127.0,111.0,84.0,-50.0
127.0,127.0,125.0,127.0,127.0,153.0,127.0,128.0,18.0,-106.0,-78.0,127.0,127.0,127.0,111.0,84.0,-50.0
127.0,127.0,125.0,127.0,127.0,153.0,127.0,128.0,18.0,-106.0,-78.0,127.0,127.0,127.0,111.0,84.0,-50.0
127.0,127.0,126.0,127.0,127.0,153.0,127.0,128.0,18.0,-106.0,-78.0,127.0,127.0,127.0,111.0,84.0,-50.0
127.0,126.0,126.0,127.0,126.0,152.0,127.0,128.0,18.0,-106.0,-78.0,127.0,127.0,127.0,111.0,84.0,-50.0
127.0,127.0,126.0,128.0,127.0,148.0,127.0,128.0,19.0,-106.0,-79.0,127.0,127.0,127.0,111.0,84.0,-50.0
126.0,127.0,125.0,128.0,127.0,149.0,127.0,128.0,19.0,-106.0,-79.0,127.0,127.0,127.0,111.0,84.0,-50.0
126.0,127.0,125.0,128.0,127.0,150.0,127.0,128.0,19.0,-106.0,-79.0,127.0,127.0,127.0,111.0,84.0,-50.0
127.0,127.0,125.0,128.0,127.0,150.0,127.0,128.0,19.0,-106.0,-79.0,127.0,127.0,127.0,111.0,84.0,-50.0
127.0,127.0,125.0,128.0,127.0,150.0,127.0,128.0,19.0,-106.0,-79.0,127.0,127.0,127.0,111.0,84.0,-50.0
127.0,127.0,126.0,127.0,127.0,149.0,127.0,128.0,19.0,-106.0,-79.0,127.0,127.0,127.0,111.0,84.0,-50.0
127.0,127.0,126.0,127.0,127.0,150.0,127.0,128.0,19.0,-106.0,-79.0,127.0,127.0,127.0,111.0,84.0,-50.0
127.0,127.0,126.0,127.0,127.0,150.0,126.0,128.0,19.0,-106.0,-79.0,127.0,127.0,127.0,111.0,84.0,-50.0
127.0,127.0,126.0,127.0,127.0,151.0,126.0,128.0,19.0,-106.0,-79.0,127.0,127.0,127.0,111.0,84.0,-50.0
127.0,127.0,126.0,127.0,127.0,151.0,126.0,128.0,19.0,-106.0,-79.0,127.0,127.0,127.0,111.0,84.0,-50.0
126.0,127.0,126.0,128.0,127.0,146.0,126.0,128.0,21.0,-106.0,-79.0,127.0,127.0,127.0,111.0,84.0,-50.0
126.0,127.0,126.0,128.0,127.0,148.0,126.0,128.0,21.0,-106.0,-79.0,127.0,127.0,127.0,111.0,84.0,-50.0
126.0,127.0,126.0,128.0,127.0,148.0,126.0,128.0,21.0,-106.0,-79.0,127.0,127.0,127.0,111.0,84.0,-50.0
126.0,127.0,127.0,128.0,127.0,147.0,126.0,128.0,21.0,-106.0,-79.0,127.0,127.0,127.0,111.0,84.0,-50.0
126.0,127.0,127.0,128.0,127.0,147.0,126.0,128.0,21.0,-106.0,-79.0,127.0,127.0,127.0,111.0,84.0,-50.0
126.0,127.0,127.0,127.0,127.0,148.0,126.0,128.0,21.0,-106.0,-79.0,127.0,127.0,127.0,111.0,84.0,-50.0
126.0,127.0,127.0,127.0,127.0,148.0,126.0,128.0,21.0,-106.0,-79.0,127.0,127.0,127.0,111.0,84.0,-50.0
126.0,127.0,127.0,127.0,127.0,149.0,126.0,128.0,21.0,-106.0,-79.0,127.0,127.0,127.0,111.0,84.0,-50.0
126.0,127.0,127.0,127.0,127.0,149.0,126.0,128.0,21.0,-106.0,-79.0,127.0,127.0,127.0,111.0,84.0,-50.0
126.0,127.0,127.0,128.0,127.0,146.0,127.0,128.0,21.0,-106.0,-79.0,127.0,127.0,127.0,111.0,84.0,-50.0
126.0,127.0,127.0,127.0,127.0,146.0,127.0,128.0,22.0,-106.0,-79.0,127.0,127.0,127.0,111.0,84.0,-50.0
127.0,127.0,127.0,127.0,127.0,146.0,127.0,128.0,22.0,-106.0,-79.0,127.0,127.0,127.0,111.0,84.0,-50.0
127.0,127.0,127.0,127.0,127.0,146.0,127.0,128.0,22.0,-106.0,-79.0,127.0,127.0,127.0,111.0,84.0,-50.0
127.0,127.0,127.0,127.0,127.0,146.0,127.0,128.0,22.0,-106.0,-79.0,127.0,127.0,127.0,111.0,84.0,-50.0
127.0,127.0,127.0,127.0,127.0,146.0,127.0,128.0,22.0,-106.0,-79.0,127.0,127.0,127.0,111.0,84.0,-50.0
127.0,127.0,127.0,127.0,127.0,146.0,127.0,128.0,22.0,-106.0,-79.0,127.0,127.0,127.0,111.0,84.0,-50.0
126.0,127.0,127.0,127.0,127.0,148.0,126.0,128.0,22.0,-106.0,-79.0,127.0,127.0,127.0,111.0,84.0,-50.0
126.0,127.0,127.0,127.0,127.0,148.0,126.0,128.0,22.0,-106.0,-79.0,127.0,127.0,127.0,111.0,84.0,-50.0
126.0,127.0,127.0,127.0,127.0,144.0,127.0,128.0,22.0,-106.0,-79.0,127.0,127.0,127.0,111.0,84.0,-50.0
126.0,127.0,127.0,127.0,127.0,145.0,127.0,128.0,22.0,-106.0,-79.0,127.0,127.0,127.0,111.0,84.0,-50.0
126.0,127.0,126.0,127.0,127.0,147.0,126.0,128.0,22.0,-107.0,-79.0,127.0,127.0,127.0,111.0,84.0,-50.0
126.0,127.0,126.0,127.0,127.0,147.0,126.0,128.0,22.0,-107.0,-79.0,127.0,127.0,127.0,111.0,84.0,-50.0
127.0,127.0,127.0,127.0,127.0,147.0,127.0,128.0,22.0,-107.0,-79.0,127.0,127.0,127.0,111.0,84.0,-50.0
127.0,127.0,127.0,127.0,127.0,147.0,126.0,128.0,22.0,-107.0,-79.0,127.0,127.0,127.0,111.0,84.0,-50.0
127.0,127.0,127.0,127.0,127.0,147.0,126.0,128.0,22.0,-107.0,-79.0,127.0,127.0,127.0,111.0,84.0,-50.0
127.0,127.0,127.0,127.0,127.0,148.0,126.0,128.0,22.0,-107.0,-79.0,127.0,127.0,127.0,111.0,84.0,-50.0
127.0,127.0,127.0,127.0,127.0,149.0,126.0,128.0,22.0,-107.0,-79.0,127.0,127.0,127.0,111.0,84.0,-50.0
126.0,127.0,126.0,127.0,127.0,145.0,127.0,128.0,22.0,-107.0,-79.0,127.0,127.0,127.0,111.0,84.0,-50.0
126.0,127.0,126.0,127.0,127.0,145.0,127.0,128.0,22.0,-107.0,-79.0,127.0,127.0,127.0,111.0,84.0,-50.0
126.0,127.0,126.0,127.0,127.0,146.0,126.0,128.0,22.0,-107.0,-79.0,127.0,127.0,127.0,111.0,84.0,-50.0
127.0,127.0,127.0,127.0,127.0,149.0,127.0,128.0,21.0,-107.0,-79.0,127.0,127.0,127.0,111.0,84.0,-50.0
127.0,127.0,127.0,127.0,127.0,149.0,127.0,128.0,21.0,-107.0,-79.0,127.0,127.0,127.0,111.0,84.0,-50.0
127.0,127.0,127.0,127.0,127.0,149.0,127.0,128.0,21.0,-107.0,-79.0,127.0,127.0,127.0,111.0,84.0,-50.0
127.0,126.0,127.0,127.0,127.0,149.0,127.0,128.0,21.0,-107.0,-79.0,127.0,127.0,127.0,111.0,84.0,-50.0
127.0,126.0,127.0,127.0,127.0,150.0,126.0,128.0,21.0,-107.0,-79.0,127.0,127.0,127.0,111.0,84.0,-50.0
127.0,127.0,127.0,127.0,127.0,151.0,126.0,128.0,21.0,-107.0,-79.0,127.0,127.0,127.0,111.0,84.0,-50.0
127.0,127.0,127.0,128.0,127.0,147.0,127.0,128.0,21.0,-107.0,-79.0,127.0,127.0,127.0,111.0,84.0,-50.0
127.0,127.0,127.0,127.0,127.0,147.0,127.0,128.0,21.0,-107.0,-79.0,127.0,127.0,127.0,111.0,84.0,-50.0
127.0,127.0,126.0,127.0,127.0,148.0,127.0,128.0,21.0,-107.0,-79.0,127.0,127.0,127.0,111.0,84.0,-50.0
127.0,127.0,126.0,127.0,127.0,149.0,127.0,128.0,21.0,-107.0,-79.0,127.0,127.0,127.0,111.0,84.0,-50.0
127.0,126.0,127.0,127.0,127.0,149.0,126.0,128.0,20.0,-107.0,-78.0,127.0,127.0,127.0,111.0,84.0,-50.0
127.0,126.0,127.0,127.0,127.0,149.0,126.0,128.0,20.0,-107.0,-78.0,127.0,127.0,127.0,111.0,84.0,-50.0
127.0,126.0,127.0,127.0,127.0,149.0,126.0,128.0,20.0,-107.0,-78.0,127.0,127.0,127.0,111.0,84.0,-50.0
127.0,126.0,127.0,127.0,126.0,150.0,126.0,128.0,20.0,-107.0,-78.0,127.0,127.0,127.0,111.0,84.0,-50.0
127.0,126.0,127.0,127.0,127.0,151.0,126.0,128.0,20.0,-107.0,-78.0,127.0,127.0,127.0,111.0,84.0,-50.0
127.0,126.0,127.0,127.0,127.0,147.0,126.0,128.0,20.0,-107.0,-78.0,127.0,127.0,127.0,111.0,84.0,-50.0
127.0,126.0,127.0,127.0,126.0,147.0,126.0,128.0,20.0,-107.0,-78.0,127.0,127.0,127.0,111.0,84.0,-50.0
127.0,126.0,126.0,127.0,127.0,148.0,126.0,128.0,20.0,-107.0,-78.0,127.0,127.0,127.0,111.0,84.0,-50.0
127.0,126.0,126.0,127.0,127.0,149.0,126.0,128.0,20.0,-107.0,-78.0,127.0,127.0,127.0,111.0,84.0,-50.0
127.0,126.0,126.0,127.0,127.0,149.0,126.0,128.0,20.0,-107.0,-78.0,127.0,127.0,127.0,111.0,84.0,-50.0
126.0,126.0,125.0,127.0,127.0,148.0,126.0,128.0,19.0,-107.0,-78.0,127.0,127.0,127.0,111.0,84.0,-50.0
127.0,126.0,125.0,127.0,127.0,148.0,126.0,128.0,19.0,-107.0,-78.0,127.0,127.0,127.0,111.0,84.0,-50.0
126.0,126.0,125.0,127.0,127.0,148.0,126.0,128.0,19.0,-107.0,-78.0,127.0,127.0,127.0,111.0,84.0,-50.0
127.0,127.0,125.0,127.0,127.0,149.0,126.0,128.0,19.0,-107.0,-78.0,127.0,127.0,127.0,111.0,84.0,-50.0
127.0,126.0,125.0,128.0,127.0,146.0,127.0,128.0,19.0,-107.0,-78.0,127.0,127.0,127.0,111.0,84.0,-50.0
127.0,127.0,125.0,127.0,127.0,147.0,127.0,128.0,19.0,-107.0,-78.0,127.0,127.0,127.0,111.0,84.0,-50.0
126.0,127.0,125.0,127.0,127.0,147.0,126.0,128.0,19.0,-107.0,-78.0,127.0,127.0,127.0,111.0,84.0,-50.0
126.0,127.0,125.0,127.0,127.0,148.0,126.0,128.0,19.0,-107.0,-78.0,127.0,127.0,127.0,111.0,84.0,-50.0
126.0,127.0,125.0,127.0,127.0,148.0,127.0,128.0,19.0,-107.0,-78.0,127.0,127.0,127.0,111.0,84.0,-50.0
126.0,126.0,125.0,127.0,127.0,148.0,126.0,128.0,19.0,-107.0,-78.0,127.0,127.0,127.0,111.0,84.0,-50.0
127.0,127.0,126.0,127.0,127.0,148.0,127.0,128.0,18.0,-107.0,-78.0,127.0,127.0,127.0,111.0,84.0,-50.0
126.0,126.0,126.0,127.0,127.0,148.0,127.0,128.0,18.0,-107.0,-78.0,127.0,127.0,127.0,111.0,84.0,-50.0
126.0,127.0,126.0,127.0,127.0,150.0,126.0,128.0,18.0,-107.0,-78.0,127.0,127.0,127.0,111.0,84.0,-50.0
126.0,127.0,126.0,127.0,127.0,146.0,127.0,128.0,18.0,-107.0,-78.0,127.0,127.0,127.0,111.0,84.0,-50.0
126.0,127.0,125.0,127.0,127.0,146.0,127.0,128.0,18.0,-107.0,-78.0,127.0,127.0,127.0,111.0,84.0,-50.0
126.0,127.0,125.0,127.0,127.0,147.0,127.0,128.0,18.0,-107.0,-78.0,127.0,127.0,127.0,111.0,84.0,-50.0
126.0,127.0,125.0,127.0,127.0,148.0,127.0,128.0,18.0,-107.0,-78.0,127.0,127.0,127.0,111.0,84.0,-50.0
126.0,127.0,125.0,127.0,127.0,148.0,127.0,128.0,18.0,-107.0,-78.0,127.0,127.0,127.0,111.0,84.0,-50.0
127.0,127.0,125.0,127.0,127.0,148.0,127.0,128.0,18.0,-107.0,-78.0,127.0,127.0,127.0,111.0,84.0,-50.0
126.0,127.0,126.0,127.0,127.0,148.0,127.0,128.0,18.0,-107.0,-78.0,127.0,127.0,127.0,111.0,84.0,-50.0
127.0,126.0,126.0,127.0,126.0,147.0,127.0,128.0,18.0,-107.0,-78.0,127.0,127.0,127.0,111.0,84.0,-50.0
127.0,126.0,127.0,127.0,126.0,147.0,127.0,128.0,18.0,-107.0,-78.0,127.0,127.0,127.0,111.0,84.0,-50.0
126.0,127.0,125.0,127.0,127.0,146.0,127.0,128.0,18.0,-107.0,-78.0,127.0,127.0,127.0,111.0,84.0,-50.0
127.0,127.0,126.0,127.0,127.0,147.0,127.0,128.0,18.0,-107.0,-78.0,127.0,127.0,127.0,111.0,84.0,-50.0
126.0,127.0,126.0,127.0,127.0,146.0,127.0,128.0,18.0,-107.0,-78.0,127.0,127.0,127.0,111.0,84.0,-50.0
127.0,127.0,126.0,127.0,127.0,146.0,127.0,128.0,18.0,-107.0,-78.0,127.0,127.0,127.0,111.0,84.0,-50.0
126.0,126.0,126.0,127.0,127.0,147.0,127.0,128.0,18.0,-107.0,-78.0,127.0,127.0,127.0,111.0,84.0,-50.0
126.0,126.0,126.0,127.0,127.0,147.0,127.0,128.0,18.0,-107.0,-78.0,127.0,127.0,127.0,111.0,84.0,-50.0
126.0,126.0,126.0,127.0,127.0,147.0,127.0,128.0,18.0,-107.0,-78.0,127.0,127.0,127.0,111.0,84.0,-50.0
127.0,126.0,126.0,127.0,126.0,147.0,127.0,128.0,18.0,-107.0,-78.0,127.0,127.0,127.0,111.0,84.0,-50.0
127.0,127.0,126.0,128.0,127.0,148.0,127.0,128.0,17.0,-107.0,-78.0,127.0,127.0,127.0,111.0,84.0,-50.0
126.0,128.0,125.0,128.0,127.0,148.0,127.0,128.0,17.0,-107.0,-78.0,127.0,127.0,127.0,111.0,84.0,-50.0
126.0,128.0,125.0,128.0,127.0,148.0,127.0,128.0,17.0,-107.0,-78.0,127.0,127.0,127.0,111.0,84.0,-50.0
126.0,127.0,125.0,128.0,127.0,148.0,127.0,128.0,17.0,-107.0,-78.0,127.0,127.0,127.0,111.0,84.0,-50.0
126.0,127.0,125.0,128.0,127.0,147.0,127.0,128.0,17.0,-107.0,-78.0,127.0,127.0,127.0,111.0,84.0,-50.0
126.0,127.0,125.0,128.0,127.0,147.0,127.0,128.0,17.0,-107.0,-78.0,127.0,127.0,127.0,111.0,84.0,-50.0
126.0,127.0,125.0,128.0,127.0,147.0,127.0,128.0,17.0,-107.0,-78.0,127.0,127.0,127.0,111.0,84.0,-50.0
126.0,127.0,125.0,128.0,127.0,149.0,127.0,128.0,17.0,-107.0,-78.0,127.0,127.0,127.0,111.0,84.0,-50.0
126.0,127.0,125.0,128.0,127.0,149.0,127.0,128.0,17.0,-107.0,-78.0,127.0,127.0,127.0,111.0,84.0,-50.0
126.0,127.0,126.0,128.0,127.0,148.0,127.0,128.0,17.0,-107.0,-78.0,127.0,127.0,127.0,111.0,84.0,-50.0
127.0,128.0,124.0,128.0,127.0,147.0,127.0,128.0,18.0,-107.0,-79.0,127.0,127.0,127.0,111.0,84.0,-50.0
127.0,128.0,124.0,128.0,127.0,147.0,127.0,128.0,18.0,-107.0,-79.0,127.0,127.0,127.0,111.0,84.0,-50.0
127.0,127.0,124.0,128.0,127.0,146.0,127.0,128.0,18.0,-107.0,-79.0,127.0,127.0,127.0,111.0,84.0,-50.0
127.0,127.0,125.0,128.0,127.0,146.0,127.0,128.0,18.0,-107.0,-79.0,127.0,127.0,127.0,111.0,84.0,-50.0
127.0,127.0,125.0,128.0,127.0,146.0,127.0,128.0,18.0,-107.0,-79.0,127.0,127.0,127.0,111.0,84.0,-50.0
127.0,127.0,125.0,127.0,127.0,147.0,127.0,128.0,18.0,-107.0,-79.0,127.0,127.0,127.0,111.0,84.0,-50.0
127.0,127.0,124.0,127.0,127.0,148.0,127.0,128.0,18.0,-107.0,-79.0,127.0,127.0,127.0,111.0,84.0,-50.0
127.0,127.0,125.0,127.0,127.0,148.0,127.0,128.0,18.0,-107.0,-79.0,127.0,127.0,127.0,111.0,84.0,-50.0
127.0,127.0,125.0,127.0,127.0,148.0,127.0,128.0,18.0,-107.0,-79.0,127.0,127.0,127.0,111.0,84.0,-50.0
127.0,127.0,125.0,127.0,127.0,148.0,127.0,128.0,18.0,-107.0,-79.0,127.0,127.0,127.0,111.0,84.0,-50.0
127.0,128.0,124.0,129.0,127.0,147.0,127.0,128.0,19.0,-107.0,-79.0,127.0,127.0,127.0,111.0,84.0,-50.0
127.0,128.0,124.0,129.0,127.0,147.0,127.0,128.0,19.0,-107.0,-79.0,127.0,127.0,127.0,111.0,84.0,-50.0
127.0,127.0,124.0,129.0,127.0,147.0,127.0,128.0,19.0,-107.0,-79.0,127.0,127.0,127.0,111.0,84.0,-50.0
127.0,127.0,124.0,129.0,127.0,147.0,127.0,128.0,19.0,-107.0,-79.0,127.0,127.0,127.0,111.0,84.0,-50.0
127.0,127.0,125.0,128.0,127.0,147.0,127.0,128.0,19.0,-107.0,-79.0,127.0,127.0,127.0,111.0,84.0,-50.0
126.0,127.0,124.0,128.0,127.0,148.0,127.0,128.0,19.0,-107.0,-79.0,127.0,127.0,127.0,111.0,84.0,-50.0
127.0,127.0,124.0,128.0,127.0,148.0,127.0,128.0,19.0,-107.0,-79.0,127.0,127.0,127.0,111.0,84.0,-50.0
127.0,127.0,125.0,128.0,127.0,149.0,127.0,128.0,19.0,-107.0,-79.0,127.0,127.0,127.0,111.0,84.0,-50.0
127.0,127.0,125.0,128.0,127.0,149.0,127.0,128.0,19.0,-107.0,-79.0,127.0,127.0,127.0,111.0,84.0,-50.0
127.0,128.0,124.0,129.0,127.0,147.0,127.0,128.0,19.0,-107.0,-79.0,127.0,127.0,127.0,111.0,84.0,-50.0
126.0,127.0,126.0,128.0,127.0,146.0,126.0,128.0,21.0,-107.0,-79.0,127.0,127.0,127.0,111.0,84.0,-50.0
126.0,127.0,126.0,127.0,127.0,145.0,127.0,128.0,21.0,-107.0,-79.0,127.0,127.0,127.0,111.0,84.0,-50.0
126.0,127.0,126.0,127.0,127.0,145.0,126.0,128.0,21.0,-107.0,-79.0,127.0,127.0,127.0,111.0,84.0,-50.0
126.0,127.0,126.0,127.0,127.0,145.0,126.0,128.0,21.0,-107.0,-79.0,127.0,127.0,127.0,111.0,84.0,-50.0
126.0,127.0,126.0,127.0,127.0,147.0,126.0,128.0,21.0,-107.0,-79.0,127.0,127.0,127.0,111.0,84.0,-50.0
126.0,127.0,126.0,127.0,126.0,147.0,126.0,128.0,21.0,-107.0,-79.0,127.0,127.0,127.0,111.0,84.0,-50.0
126.0,127.0,126.0,127.0,126.0,147.0,126.0,128.0,21.0,-107.0,-79.0,127.0,127.0,127.0,111.0,84.0,-50.0
127.0,127.0,126.0,127.0,126.0,147.0,126.0,128.0,21.0,-107.0,-79.0,127.0,127.0,127.0,111.0,84.0,-50.0
126.0,127.0,126.0,128.0,127.0,146.0,127.0,128.0,21.0,-107.0,-79.0,127.0,127.0,127.0,111.0,84.0,-50.0
126.0,127.0,126.0,128.0,127.0,146.0,126.0,128.0,21.0,-107.0,-79.0,127.0,127.0,127.0,111.0,84.0,-50.0
126.0,127.0,127.0,127.0,127.0,146.0,127.0,128.0,22.0,-107.0,-79.0,127.0,127.0,127.0,111.0,84.0,-50.0
126.0,127.0,127.0,127.0,127.0,146.0,127.0,128.0,22.0,-107.0,-79.0,127.0,127.0,127.0,111.0,84.0,-50.0
126.0,127.0,127.0,127.0,127.0,147.0,127.0,128.0,22.0,-107.0,-79.0,127.0,127.0,127.0,111.0,84.0,-50.0
126.0,127.0,127.0,127.0,127.0,147.0,127.0,128.0,22.0,-107.0,-79.0,127.0,127.0,127.0,111.0,84.0,-50.0
126.0,127.0,127.0,127.0,127.0,148.0,126.0,128.0,22.0,-107.0,-79.0,127.0,127.0,127.0,111.0,84.0,-50.0
126.0,127.0,127.0,127.0,127.0,148.0,127.0,128.0,22.0,-107.0,-79.0,127.0,127.0,127.0,111.0,84.0,-50.0
126.0,127.0,127.0,127.0,127.0,149.0,126.0,128.0,22.0,-107.0,-79.0,127.0,127.0,127.0,111.0,84.0,-50.0
126.0,127.0,127.0,128.0,127.0,146.0,127.0,128.0,22.0,-107.0,-79.0,127.0,127.0,127.0,111.0,84.0,-50.0
126.0,127.0,127.0,128.0,127.0,146.0,127.0,128.0,22.0,-107.0,-79.0,127.0,127.0,127.0,111.0,84.0,-50.0
126.0,127.0,127.0,127.0,127.0,146.0,127.0,128.0,22.0,-107.0,-79.0,127.0,127.0,127.0,111.0,84.0,-50.0
126.0,127.0,126.0,128.0,127.0,148.0,127.0,128.0,22.0,-107.0,-79.0,127.0,127.0,127.0,111.0,84.0,-50.0
126.0,127.0,126.0,128.0,127.0,148.0,127.0,128.0,22.0,-107.0,-79.0,127.0,127.0,127.0,111.0,84.0,-50.0
127.0,127.0,127.0,128.0,127.0,147.0,127.0,128.0,22.0,-107.0,-79.0,127.0,127.0,127.0,111.0,84.0,-50.0
127.0,127.0,127.0,128.0,127.0,147.0,127.0,128.0,22.0,-107.0,-79.0,127.0,127.0,127.0,111.0,84.0,-50.0
127.0,127.0,127.0,128.0,127.0,147.0,127.0,128.0,22.0,-107.0,-79.0,127.0,127.0,127.0,111.0,84.0,-50.0
127.0,126.0,127.0,127.0,127.0,147.0,127.0,128.0,22.0,-107.0,-79.0,127.0,127.0,127.0,111.0,84.0,-50.0
126.0,127.0,126.0,128.0,127.0,148.0,127.0,128.0,22.0,-107.0,-79.0,127.0,127.0,127.0,111.0,84.0,-50.0
126.0,127.0,126.0,128.0,127.0,148.0,127.0,128.0,22.0,-107.0,-79.0,127.0,127.0,127.0,111.0,84.0,-50.0
126.0,127.0,126.0,128.0,127.0,148.0,127.0,128.0,22.0,-107.0,-79.0,127.0,127.0,127.0,111.0,84.0,-50.0
127.0,127.0,126.0,128.0,127.0,148.0,127.0,128.0,22.0,-107.0,-79.0,127.0,127.0,127.0,111.0,84.0,-50.0
126.0,127.0,127.0,127.0,127.0,148.0,127.0,128.0,21.0,-108.0,-79.0,127.0,127.0,127.0,111.0,84.0,-50.0
127.0,127.0,127.0,127.0,127.0,147.0,127.0,128.0,21.0,-108.0,-79.0,127.0,127.0,127.0,111.0,84.0,-50.0
127.0,127.0,127.0,127.0,127.0,147.0,127.0,128.0,21.0,-108.0,-79.0,127.0,127.0,127.0,111.0,84.0,-50.0
127.0,127.0,127.0,127.0,127.0,147.0,127.0,128.0,21.0,-108.0,-79.0,127.0,127.0,127.0,111.0,84.0,-50.0
127.0,126.0,127.0,127.0,127.0,147.0,127.0,128.0,21.0,-108.0,-79.0,127.0,127.0,127.0,111.0,84.0,-50.0
126.0,128.0,126.0,128.0,127.0,148.0,127.0,128.0,21.0,-108.0,-79.0,127.0,127.0,127.0,111.0,84.0,-50.0
126.0,127.0,126.0,128.0,127.0,148.0,127.0,128.0,21.0,-108.0,-79.0,127.0,127.0,127.0,111.0,84.0,-50.0
126.0,127.0,126.0,127.0,127.0,148.0,127.0,128.0,21.0,-108.0,-79.0,127.0,127.0,127.0,111.0,84.0,-50.0
126.0,127.0,126.0,127.0,127.0,148.0,127.0,128.0,21.0,-108.0,-79.0,127.0,127.0,127.0,111.0,84.0,-50.0
126.0,127.0,127.0,127.0,127.0,147.0,127.0,128.0,21.0,-108.0,-79.0,127.0,127.0,127.0,111.0,84.0,-50.0
127.0,126.0,127.0,127.0,127.0,146.0,126.0,128.0,20.0,-108.0,-78.0,127.0,127.0,127.0,111.0,84.0,-50.0
127.0,127.0,126.0,127.0,127.0,148.0,126.0,128.0,20.0,-108.0,-78.0,127.0,127.0,127.0,111.0,84.0,-50.0
127.0,126.0,127.0,127.0,127.0,148.0,126.0,128.0,20.0,-108.0,-78.0,127.0,127.0,127.0,111.0,84.0,-50.0
127.0,126.0,127.0,127.0,127.0,148.0,126.0,128.0,20.0,-108.0,-78.0,127.0,127.0,127.0,111.0,84.0,-50.0
127.0,127.0,126.0,127.0,127.0,145.0,127.0,128.0,20.0,-108.0,-78.0,127.0,127.0,127.0,111.0,84.0,-50.0
127.0,127.0,126.0,127.0,127.0,147.0,126.0,128.0,20.0,-108.0,-78.0,127.0,127.0,127.0,111.0,84.0,-50.0
127.0,127.0,126.0,127.0,127.0,147.0,126.0,128.0,20.0,-108.0,-78.0,127.0,127.0,127.0,111.0,84.0,-50.0
127.0,127.0,126.0,127.0,127.0,147.0,126.0,128.0,20.0,-108.0,-78.0,127.0,127.0,127.0,111.0,84.0,-50.0
127.0,127.0,127.0,127.0,127.0,146.0,126.0,128.0,20.0,-108.0,-78.0,127.0,127.0,127.0,111.0,84.0,-50.0
127.0,126.0,127.0,127.0,127.0,146.0,126.0,128.0,20.0,-108.0,-78.0,127.0,127.0,127.0,111.0,84.0,-50.0
126.0,127.0,127.0,127.0,127.0,147.0,126.0,128.0,19.0,-107.0,-78.0,127.0,127.0,127.0,111.0,84.0,-50.0
126.0,127.0,127.0,127.0,127.0,147.0,126.0,128.0,19.0,-107.0,-78.0,127.0,127.0,127.0,111.0,84.0,-50.0
126.0,127.0,127.0,127.0,127.0,147.0,126.0,128.0,19.0,-107.0,-78.0,127.0,127.0,127.0,111.0,84.0,-50.0
126.0,127.0,127.0,128.0,127.0,144.0,127.0,128.0,19.0,-107.0,-78.0,127.0,127.0,127.0,111.0,84.0,-50.0
126.0,127.0,126.0,127.0,127.0,146.0,126.0,128.0,19.0,-107.0,-78.0,127.0,127.0,127.0,111.0,84.0,-50.0
126.0,127.0,126.0,127.0,127.0,146.0,127.0,128.0,19.0,-107.0,-78.0,127.0,127.0,127.0,111.0,84.0,-50.0
126.0,127.0,126.0,127.0,127.0,146.0,127.0,128.0,19.0,-107.0,-78.0,127.0,127.0,127.0,111.0,84.0,-50.0
126.0,127.0,127.0,127.0,127.0,146.0,127.0,128.0,19.0,-107.0,-78.0,127.0,127.0,127.0,111.0,84.0,-50.0
126.0,127.0,127.0,127.0,127.0,146.0,127.0,128.0,19.0,-107.0,-78.0,127.0,127.0,127.0,111.0,84.0,-50.0
126.0,127.0,127.0,127.0,127.0,146.0,127.0,128.0,19.0,-107.0,-78.0,127.0,127.0,127.0,111.0,84.0,-50.0
126.0,127.0,126.0,127.0,127.0,146.0,127.0,128.0,18.0,-107.0,-77.0,127.0,127.0,127.0,111.0,84.0,-50.0
126.0,127.0,126.0,127.0,127.0,146.0,127.0,128.0,18.0,-107.0,-77.0,127.0,127.0,127.0,111.0,84.0,-50.0
126.0,127.0,126.0,128.0,127.0,143.0,127.0,128.0,18.0,-107.0,-77.0,127.0,127.0,127.0,111.0,84.0,-50.0
126.0,127.0,125.0,128.0,127.0,144.0,127.0,128.0,18.0,-107.0,-77.0,127.0,127.0,127.0,111.0,84.0,-50.0
126.0,128.0,125.0,128.0,127.0,145.0,127.0,128.0,18.0,-107.0,-77.0,127.0,127.0,127.0,111.0,84.0,-50.0
126.0,127.0,125.0,128.0,127.0,145.0,127.0,128.0,18.0,-107.0,-77.0,127.0,127.0,127.0,111.0,84.0,-50.0
126.0,127.0,126.0,128.0,127.0,145.0,127.0,128.0,18.0,-107.0,-77.0,127.0,127.0,127.0,111.0,84.0,-50.0
126.0,127.0,126.0,128.0,127.0,145.0,127.0,128.0,18.0,-107.0,-77.0,127.0,127.0,127.0,111.0,84.0,-50.0
126.0,127.0,126.0,128.0,127.0,145.0,127.0,128.0,18.0,-107.0,-77.0,127.0,127.0,127.0,111.0,84.0,-50.0
126.0,127.0,126.0,127.0,127.0,145.0,127.0,128.0,18.0,-107.0,-77.0,127.0,127.0,127.0,111.0,84.0,-50.0
127.0,127.0,126.0,128.0,127.0,146.0,127.0,128.0,18.0,-107.0,-77.0,127.0,127.0,127.0,111.0,84.0,-50.0
126.0,127.0,125.0,128.0,127.0,143.0,127.0,128.0,18.0,-107.0,-77.0,127.0,127.0,127.0,111.0,84.0,-50.0
126.0,127.0,125.0,128.0,127.0,144.0,127.0,128.0,18.0,-107.0,-77.0,127.0,127.0,127.0,111.0,84.0,-50.0
126.0,128.0,125.0,128.0,127.0,144.0,127.0,128.0,18.0,-107.0,-77.0,127.0,127.0,127.0,111.0,84.0,-50.0
126.0,127.0,125.0,128.0,127.0,144.0,127.0,128.0,18.0,-107.0,-77.0,127.0,127.0,127.0,111.0,84.0,-50.0
126.0,127.0,125.0,128.0,127.0,144.0,127.0,128.0,18.0,-107.0,-77.0,127.0,127.0,127.0,111.0,84.0,-50.0
126.0,127.0,126.0,128.0,127.0,144.0,127.0,128.0,18.0,-107.0,-77.0,127.0,127.0,127.0,111.0,84.0,-50.0
126.0,127.0,126.0,128.0,127.0,144.0,127.0,128.0,18.0,-107.0,-77.0,127.0,127.0,127.0,111.0,84.0,-50.0
126.0,127.0,126.0,128.0,127.0,145.0,127.0,128.0,18.0,-107.0,-77.0,127.0,127.0,127.0,111.0,84.0,-50.0
127.0,127.0,125.0,128.0,127.0,146.0,127.0,128.0,18.0,-107.0,-77.0,127.0,127.0,127.0,111.0,84.0,-50.0
126.0,127.0,125.0,128.0,127.0,143.0,127.0,128.0,17.0,-107.0,-77.0,127.0,127.0,127.0,111.0,84.0,-50.0
126.0,127.0,125.0,128.0,127.0,143.0,127.0,128.0,17.0,-107.0,-77.0,127.0,127.0,127.0,111.0,84.0,-50.0
126.0,127.0,125.0,128.0,127.0,144.0,127.0,128.0,17.0,-107.0,-77.0,127.0,127.0,127.0,111.0,84.0,-50.0
126.0,127.0,125.0,128.0,127.0,144.0,127.0,128.0,17.0,-107.0,-77.0,127.0,127.0,127.0,111.0,84.0,-50.0
126.0,127.0,125.0,128.0,127.0,144.0,127.0,128.0,17.0,-107.0,-77.0,127.0,127.0,127.0,111.0,84.0,-50.0
126.0,127.0,125.0,128.0,127.0,144.0,127.0,128.0,17.0,-107.0,-77.0,127.0,127.0,127.0,111.0,84.0,-50.0
126.0,127.0,125.0,127.0,127.0,144.0,127.0,128.0,17.0,-107.0,-77.0,127.0,127.0,127.0,111.0,84.0,-50.0
126.0,127.0,125.0,127.0,127.0,144.0,126.0,128.0,17.0,-107.0,-77.0,127.0,127.0,127.0,111.0,84.0,-50.0
126.0,127.0,125.0,127.0,127.0,145.0,126.0,128.0,17.0,-107.0,-77.0,127.0,127.0,127.0,111.0,84.0,-50.0
126.0,127.0,125.0,127.0,127.0,145.0,126.0,128.0,17.0,-107.0,-77.0,127.0,127.0,127.0,111.0,84.0,-50.0
126.0,127.0,125.0,128.0,126.0,143.0,127.0,128.0,18.0,-106.0,-78.0,127.0,127.0,127.0,111.0,84.0,-50.0
126.0,127.0,125.0,128.0,127.0,145.0,127.0,128.0,18.0,-106.0,-78.0,127.0,127.0,127.0,111.0,84.0,-50.0
126.0,127.0,125.0,128.0,127.0,145.0,127.0,128.0,18.0,-106.0,-78.0,127.0,127.0,127.0,111.0,84.0,-50.0
126.0,127.0,125.0,128.0,127.0,144.0,127.0,128.0,18.0,-106.0,-78.0,127.0,127.0,127.0,111.0,84.0,-50.0
126.0,127.0,125.0,128.0,127.0,144.0,127.0,128.0,18.0,-106.0,-78.0,127.0,127.0,127.0,111.0,84.0,-50.0
126.0,127.0,125.0,128.0,127.0,144.0,127.0,128.0,18.0,-106.0,-78.0,127.0,127.0,127.0,111.0,84.0,-50.0
126.0,127.0,125.0,127.0,127.0,144.0,126.0,128.0,18.0,-106.0,-78.0,127.0,127.0,127.0,111.0,84.0,-50.0
126.0,127.0,125.0,127.0,127.0,146.0,126.0,128.0,18.0,-106.0,-78.0,127.0,127.0,127.0,111.0,84.0,-50.0
126.0,127.0,125.0,127.0,127.0,146.0,126.0,128.0,18.0,-106.0,-78.0,127.0,127.0,127.0,111.0,84.0,-50.0
126.0,127.0,125.0,128.0,127.0,143.0,127.0,128.0,18.0,-106.0,-78.0,127.0,127.0,127.0,111.0,84.0,-50.0
126.0,128.0,125.0,128.0,127.0,145.0,127.0,128.0,19.0,-106.0,-78.0,127.0,127.0,127.0,111.0,84.0,-50.0
126.0,128.0,125.0,128.0,127.0,145.0,127.0,128.0,19.0,-106.0,-78.0,127.0,127.0,127.0,111.0,84.0,-50.0
126.0,127.0,125.0,128.0,127.0,145.0,127.0,128.0,19.0,-106.0,-78.0,127.0,127.0,127.0,111.0,84.0,-50.0
126.0,127.0,125.0,128.0,127.0,144.0,127.0,128.0,19.0,-106.0,-78.0,127.0,127.0,127.0,111.0,84.0,-50.0
126.0,127.0,125.0,128.0,127.0,145.0,127.0,128.0,19.0,-106.0,-78.0,127.0,127.0,127.0,111.0,84.0,-50.0
126.0,127.0,125.0,128.0,127.0,145.0,127.0,128.0,19.0,-106.0,-78.0,127.0,127.0,127.0,111.0,84.0,-50.0
126.0,127.0,125.0,128.0,127.0,146.0,126.0,128.0,19.0,-106.0,-78.0,127.0,127.0,127.0,111.0,84.0,-50.0
126.0,127.0,125.0,128.0,127.0,146.0,126.0,128.0,19.0,-106.0,-78.0,127.0,127.0,127.0,111.0,84.0,-50.0
126.0,127.0,125.0,128.0,127.0,143.0,127.0,128.0,19.0,-106.0,-78.0,127.0,127.0,127.0,111.0,84.0,-50.0
126.0,127.0,125.0,128.0,127.0,143.0,127.0,128.0,19.0,-106.0,-78.0,127.0,127.0,127.0,111.0,84.0,-50.0
126.0,128.0,125.0,128.0,127.0,146.0,127.0,128.0,20.0,-106.0,-79.0,127.0,127.0,127.0,111.0,84.0,-50.0
126.0,127.0,125.0,128.0,127.0,146.0,127.0,128.0,20.0,-106.0,-79.0,127.0,127.0,127.0,111.0,84.0,-50.0
126.0,127.0,125.0,128.0,127.0,146.0,127.0,128.0,20.0,-106.0,-79.0,127.0,127.0,127.0,111.0,84.0,-50.0
127.0,127.0,126.0,128.0,127.0,146.0,127.0,128.0,20.0,-106.0,-79.0,127.0,127.0,127.0,111.0,84.0,-50.0
127.0,127.0,126.0,127.0,127.0,146.0,127.0,128.0,20.0,-106.0,-79.0,127.0,127.0,127.0,111.0,84.0,-50.0
127.0,127.0,126.0,127.0,127.0,146.0,127.0,128.0,20.0,-106.0,-79.0,127.0,127.0,127.0,111.0,84.0,-50.0
127.0,127.0,126.0,127.0,127.0,146.0,127.0,128.0,20.0,-106.0,-79.0,127.0,127.0,127.0,111.0,84.0,-50.0
126.0,127.0,126.0,128.0,127.0,144.0,127.0,128.0,20.0,-106.0,-79.0,127.0,127.0,127.0,111.0,84.0,-50.0
126.0,127.0,126.0,128.0,127.0,144.0,127.0,128.0,20.0,-106.0,-79.0,127.0,127.0,127.0,111.0,84.0,-50.0
126.0,128.0,125.0,128.0,127.0,146.0,127.0,128.0,20.0,-106.0,-79.0,127.0,127.0,127.0,111.0,84.0,-50.0
127.0,128.0,126.0,128.0,127.0,149.0,127.0,128.0,21.0,-107.0,-79.0,127.0,127.0,127.0,111.0,84.0,-50.0
127.0,127.0,126.0,128.0,127.0,149.0,127.0,128.0,21.0,-107.0,-79.0,127.0,127.0,127.0,111.0,84.0,-50.0
127.0,127.0,126.0,128.0,127.0,149.0,127.0,128.0,21.0,-107.0,-79.0,127.0,127.0,127.0,111.0,84.0,-50.0
127.0,127.0,126.0,128.0,127.0,149.0,127.0,128.0,21.0,-107.0,-79.0,127.0,127.0,127.0,111.0,84.0,-50.0
126.0,127.0,126.0,127.0,127.0,150.0,127.0,128.0,21.0,-107.0,-79.0,127.0,127.0,127.0,111.0,84.0,-50.0
127.0,127.0,126.0,127.0,127.0,151.0,127.0,128.0,21.0,-107.0,-79.0,127.0,127.0,127.0,111.0,84.0,-50.0
126.0,128.0,126.0,128.0,127.0,148.0,127.0,128.0,21.0,-107.0,-79.0,127.0,127.0,127.0,111.0,84.0,-50.0
127.0,127.0,126.0,128.0,127.0,148.0,127.0,128.0,21.0,-107.0,-79.0,127.0,127.0,127.0,111.0,84.0,-50.0
126.0,128.0,125.0,128.0,127.0,149.0,127.0,128.0,21.0,-107.0,-79.0,127.0,127.0,127.0,111.0,84.0,-50.0
127.0,128.0,126.0,128.0,127.0,149.0,127.0,128.0,21.0,-107.0,-79.0,127.0,127.0,127.0,111.0,84.0,-50.0
126.0,127.0,126.0,128.0,127.0,149.0,127.0,128.0,21.0,-107.0,-79.0,127.0,127.0,127.0,111.0,84.0,-50.0
127.0,127.0,126.0,128.0,127.0,149.0,127.0,128.0,21.0,-107.0,-79.0,127.0,127.0,127.0,111.0,84.0,-50.0
126.0,127.0,126.0,128.0,127.0,149.0,127.0,128.0,21.0,-107.0,-79.0,127.0,127.0,127.0,111.0,84.0,-50.0
127.0,127.0,127.0,128.0,127.0,149.0,127.0,128.0,21.0,-107.0,-79.0,127.0,127.0,127.0,111.0,84.0,-50.0
127.0,127.0,127.0,127.0,127.0,149.0,127.0,128.0,21.0,-107.0,-79.0,127.0,127.0,127.0,111.0,84.0,-50.0
126.0,127.0,126.0,128.0,127.0,147.0,127.0,128.0,21.0,-107.0,-79.0,127.0,127.0,127.0,111.0,84.0,-50.0
126.0,127.0,126.0,128.0,127.0,147.0,127.0,128.0,21.0,-107.0,-79.0,127.0,127.0,127.0,111.0,84.0,-50.0
126.0,127.0,126.0,128.0,127.0,148.0,127.0,128.0,21.0,-107.0,-79.0,127.0,127.0,127.0,111.0,84.0,-50.0
126.0,127.0,126.0,128.0,127.0,149.0,127.0,128.0,21.0,-107.0,-79.0,127.0,127.0,127.0,111.0,84.0,-50.0
126.0,127.0,126.0,128.0,127.0,149.0,127.0,128.0,21.0,-107.0,-79.0,127.0,127.0,127.0,111.0,84.0,-50.0
126.0,127.0,126.0,128.0,127.0,149.0,126.0,128.0,21.0,-107.0,-79.0,127.0,127.0,127.0,111.0,84.0,-50.0
126.0,127.0,126.0,128.0,127.0,149.0,126.0,128.0,21.0,-107.0,-79.0,127.0,127.0,127.0,111.0,84.0,-50.0
126.0,127.0,126.0,128.0,127.0,149.0,126.0,128.0,21.0,-107.0,-79.0,127.0,127.0,127.0,111.0,84.0,-50.0
126.0,127.0,127.0,128.0,127.0,149.0,126.0,128.0,21.0,-107.0,-79.0,127.0,127.0,127.0,111.0,84.0,-50.0
126.0,127.0,126.0,128.0,127.0,148.0,127.0,128.0,21.0,-107.0,-79.0,127.0,127.0,127.0,111.0,84.0,-50.0
126.0,127.0,126.0,128.0,127.0,148.0,127.0,128.0,21.0,-107.0,-79.0,127.0,127.0,127.0,111.0,84.0,-50.0
126.0,127.0,126.0,128.0,127.0,149.0,126.0,128.0,21.0,-107.0,-79.0,127.0,127.0,127.0,111.0,84.0,-50.0
126.0,128.0,126.0,128.0,127.0,150.0,126.0,128.0,21.0,-107.0,-79.0,127.0,127.0,127.0,111.0,84.0,-50.0
126.0,127.0,126.0,128.0,127.0,150.0,126.0,128.0,21.0,-107.0,-79.0,127.0,127.0,127.0,111.0,84.0,-50.0
126.0,127.0,126.0,128.0,127.0,149.0,126.0,128.0,21.0,-107.0,-79.0,127.0,127.0,127.0,111.0,84.0,-50.0
126.0,127.0,127.0,127.0,127.0,144.0,126.0,128.0,20.0,-107.0,-78.0,127.0,127.0,127.0,111.0,84.0,-50.0
127.0,127.0,127.0,127.0,127.0,144.0,126.0,128.0,20.0,-107.0,-78.0,127.0,127.0,127.0,111.0,84.0,-50.0
127.0,126.0,127.0,127.0,127.0,143.0,126.0,128.0,20.0,-107.0,-78.0,127.0,127.0,127.0,111.0,84.0,-50.0
126.0,127.0,126.0,127.0,127.0,143.0,126.0,128.0,20.0,-107.0,-78.0,127.0,127.0,127.0,111.0,84.0,-50.0
126.0,127.0,126.0,127.0,127.0,143.0,126.0,128.0,20.0,-107.0,-78.0,127.0,127.0,127.0,111.0,84.0,-50.0
126.0,127.0,126.0,127.0,127.0,143.0,126.0,128.0,20.0,-107.0,-78.0,127.0,127.0,127.0,111.0,84.0,-50.0
126.0,127.0,126.0,127.0,127.0,144.0,126.0,128.0,20.0,-107.0,-78.0,127.0,127.0,127.0,111.0,84.0,-50.0
126.0,127.0,126.0,127.0,127.0,144.0,126.0,128.0,20.0,-107.0,-78.0,127.0,127.0,127.0,111.0,84.0,-50.0
126.0,127.0,126.0,127.0,127.0,144.0,126.0,128.0,20.0,-107.0,-78.0,127.0,127.0,127.0,111.0,84.0,-50.0
126.0,127.0,127.0,127.0,127.0,144.0,126.0,128.0,20.0,-107.0,-78.0,127.0,127.0,127.0,111.0,84.0,-50.0
126.0,127.0,126.0,128.0,127.0,142.0,127.0,128.0,19.0,-107.0,-78.0,127.0,127.0,127.0,111.0,84.0,-50.0
126.0,127.0,126.0,128.0,127.0,141.0,127.0,128.0,19.0,-107.0,-78.0,127.0,127.0,127.0,111.0,84.0,-50.0
126.0,127.0,126.0,128.0,127.0,140.0,127.0,128.0,19.0,-107.0,-78.0,127.0,127.0,127.0,111.0,84.0,-50.0
126.0,127.0,126.0,128.0,127.0,141.0,127.0,128.0,19.0,-107.0,-78.0,127.0,127.0,127.0,111.0,84.0,-50.0
126.0,127.0,126.0,128.0,127.0,141.0,127.0,128.0,19.0,-107.0,-78.0,127.0,127.0,127.0,111.0,84.0,-50.0
126.0,128.0,125.0,128.0,127.0,142.0,127.0,128.0,19.0,-107.0,-78.0,127.0,127.0,127.0,111.0,84.0,-50.0
126.0,127.0,125.0,128.0,127.0,142.0,127.0,128.0,19.0,-107.0,-78.0,127.0,127.0,127.0,111.0,84.0,-50.0
126.0,127.0,125.0,128.0,127.0,142.0,127.0,128.0,19.0,-107.0,-78.0,127.0,127.0,127.0,111.0,84.0,-50.0
126.0,127.0,126.0,128.0,127.0,142.0,127.0,128.0,19.0,-107.0,-78.0,127.0,127.0,127.0,111.0,84.0,-50.0
126.0,127.0,126.0,128.0,127.0,142.0,126.0,128.0,19.0,-107.0,-78.0,127.0,127.0,127.0,111.0,84.0,-50.0
126.0,127.0,126.0,127.0,127.0,141.0,127.0,128.0,18.0,-107.0,-78.0,127.0,127.0,127.0,111.0,84.0,-50.0
126.0,127.0,125.0,127.0,127.0,140.0,127.0,128.0,18.0,-107.0,-78.0,127.0,127.0,127.0,111.0,84.0,-50.0
126.0,127.0,125.0,127.0,127.0,140.0,127.0,128.0,18.0,-107.0,-78.0,127.0,127.0,127.0,111.0,84.0,-50.0
126.0,127.0,125.0,127.0,127.0,140.0,127.0,128.0,18.0,-107.0,-78.0,127.0,127.0,127.0,111.0,84.0,-50.0
126.0,127.0,125.0,128.0,127.0,141.0,126.0,128.0,18.0,-107.0,-78.0,127.0,127.0,127.0,111.0,84.0,-50.0
126.0,127.0,125.0,128.0,127.0,141.0,126.0,128.0,18.0,-107.0,-78.0,127.0,127.0,127.0,111.0,84.0,-50.0
126.0,127.0,125.0,128.0,127.0,141.0,127.0,128.0,18.0,-107.0,-78.0,127.0,127.0,127.0,111.0,84.0,-50.0
126.0,127.0,125.0,128.0,127.0,141.0,127.0,128.0,18.0,-107.0,-78.0,127.0,127.0,127.0,111.0,84.0,-50.0
126.0,127.0,125.0,127.0,127.0,141.0,126.0,128.0,18.0,-107.0,-78.0,127.0,127.0,127.0,111.0,84.0,-50.0
126.0,127.0,126.0,127.0,127.0,141.0,127.0,128.0,18.0,-107.0,-78.0,127.0,127.0,127.0,111.0,84.0,-50.0
126.0,127.0,125.0,128.0,127.0,141.0,127.0,128.0,17.0,-107.0,-78.0,127.0,127.0,127.0,111.0,84.0,-50.0
126.0,127.0,125.0,128.0,127.0,141.0,127.0,128.0,17.0,-107.0,-78.0,127.0,127.0,127.0,111.0,84.0,-50.0
126.0,127.0,125.0,128.0,127.0,141.0,127.0,128.0,17.0,-107.0,-78.0,127.0,127.0,127.0,111.0,84.0,-50.0
126.0,128.0,125.0,128.0,127.0,142.0,127.0,128.0,17.0,-107.0,-78.0,127.0,127.0,127.0,111.0,84.0,-50.0
126.0,128.0,125.0,128.0,127.0,142.0,127.0,128.0,17.0,-107.0,-78.0,127.0,127.0,127.0,111.0,84.0,-50.0
126.0,127.0,125.0,128.0,127.0,142.0,127.0,128.0,17.0,-107.0,-78.0,127.0,127.0,127.0,111.0,84.0,-50.0
126.0,127.0,125.0,128.0,127.0,142.0,127.0,128.0,17.0,-107.0,-78.0,127.0,127.0,127.0,111.0,84.0,-50.0
126.0,127.0,125.0,128.0,127.0,142.0,127.0,128.0,17.0,-107.0,-78.0,127.0,127.0,127.0,111.0,84.0,-50.0
127.0,127.0,125.0,128.0,127.0,142.0,127.0,128.0,17.0,-107.0,-78.0,127.0,127.0,127.0,111.0,84.0,-50.0
127.0,127.0,126.0,128.0,127.0,142.0,127.0,128.0,17.0,-107.0,-78.0,127.0,127.0,127.0,111.0,84.0,-50.0
126.0,127.0,125.0,128.0,127.0,142.0,127.0,128.0,17.0,-107.0,-78.0,127.0,127.0,127.0,111.0,84.0,-50.0
127.0,127.0,125.0,128.0,127.0,142.0,127.0,128.0,17.0,-107.0,-78.0,127.0,127.0,127.0,111.0,84.0,-50.0
126.0,127.0,124.0,128.0,127.0,143.0,127.0,128.0,17.0,-107.0,-78.0,127.0,127.0,127.0,111.0,84.0,-50.0
127.0,127.0,124.0,128.0,127.0,143.0,127.0,128.0,17.0,-107.0,-78.0,127.0,127.0,127.0,111.0,84.0,-50.0
126.0,127.0,124.0,128.0,127.0,143.0,127.0,128.0,17.0,-107.0,-78.0,127.0,127.0,127.0,111.0,84.0,-50.0
127.0,127.0,125.0,128.0,127.0,143.0,127.0,128.0,17.0,-107.0,-78.0,127.0,127.0,127.0,111.0,84.0,-50.0
127.0,127.0,125.0,128.0,127.0,143.0,127.0,128.0,17.0,-107.0,-78.0,127.0,127.0,127.0,111.0,84.0,-50.0
127.0,127.0,125.0,128.0,127.0,143.0,127.0,128.0,17.0,-107.0,-78.0,127.0,127.0,127.0,111.0,84.0,-50.0
127.0,127.0,125.0,128.0,127.0,143.0,127.0,128.0,17.0,-107.0,-78.0,127.0,127.0,127.0,111.0,84.0,-50.0
126.0,127.0,124.0,128.0,127.0,142.0,127.0,128.0,17.0,-107.0,-78.0,127.0,127.0,127.0,111.0,84.0,-50.0
126.0,127.0,125.0,128.0,127.0,142.0,127.0,128.0,18.0,-107.0,-79.0,127.0,127.0,127.0,111.0,84.0,-50.0
126.0,127.0,125.0,128.0,127.0,141.0,127.0,128.0,18.0,-107.0,-79.0,127.0,127.0,127.0,111.0,84.0,-50.0
126.0,127.0,125.0,128.0,127.0,141.0,127.0,128.0,18.0,-107.0,-79.0,127.0,127.0,127.0,111.0,84.0,-50.0
126.0,127.0,125.0,128.0,127.0,142.0,127.0,128.0,18.0,-107.0,-79.0,127.0,127.0,127.0,111.0,84.0,-50.0
126.0,127.0,125.0,128.0,127.0,143.0,127.0,128.0,18.0,-107.0,-79.0,127.0,127.0,127.0,111.0,84.0,-50.0
126.0,128.0,125.0,128.0,127.0,144.0,127.0,128.0,18.0,-107.0,-79.0,127.0,127.0,127.0,111.0,84.0,-50.0
126.0,127.0,125.0,128.0,127.0,144.0,127.0,128.0,18.0,-107.0,-79.0,127.0,127.0,127.0,111.0,84.0,-50.0
126.0,127.0,125.0,128.0,127.0,143.0,127.0,128.0,18.0,-107.0,-79.0,127.0,127.0,127.0,111.0,84.0,-50.0
126.0,127.0,125.0,128.0,127.0,141.0,127.0,128.0,18.0,-107.0,-79.0,127.0,127.0,127.0,111.0,84.0,-50.0
126.0,127.0,125.0,128.0,127.0,141.0,127.0,128.0,18.0,-107.0,-79.0,127.0,127.0,127.0,111.0,84.0,-50.0
127.0,128.0,124.0,128.0,127.0,145.0,127.0,128.0,19.0,-107.0,-79.0,127.0,127.0,127.0,111.0,84.0,-50.0
127.0,128.0,125.0,128.0,127.0,145.0,127.0,128.0,19.0,-107.0,-79.0,127.0,127.0,127.0,111.0,84.0,-50.0
127.0,128.0,125.0,128.0,127.0,145.0,127.0,128.0,19.0,-107.0,-79.0,127.0,127.0,127.0,111.0,84.0,-50.0
127.0,127.0,125.0,128.0,127.0,145.0,127.0,128.0,19.0,-107.0,-79.0,127.0,127.0,127.0,111.0,84.0,-50.0
127.0,127.0,125.0,128.0,127.0,145.0,127.0,128.0,19.0,-107.0,-79.0,127.0,127.0,127.0,111.0,84.0,-50.0
127.0,127.0,125.0,128.0,127.0,145.0,127.0,128.0,19.0,-107.0,-79.0,127.0,127.0,127.0,111.0,84.0,-50.0
127.0,127.0,125.0,128.0,127.0,145.0,127.0,128.0,19.0,-107.0,-79.0,127.0,127.0,127.0,111.0,84.0,-50.0
126.0,128.0,124.0,128.0,127.0,145.0,127.0,128.0,19.0,-107.0,-79.0,127.0,127.0,127.0,111.0,84.0,-50.0
126.0,128.0,124.0,128.0,127.0,145.0,127.0,128.0,19.0,-107.0,-79.0,127.0,127.0,127.0,111.0,84.0,-50.0
126.0,128.0,124.0,128.0,127.0,145.0,127.0,128.0,19.0,-107.0,-79.0,127.0,127.0,127.0,111.0,84.0,-50.0
127.0,127.0,126.0,128.0,127.0,145.0,127.0,128.0,20.0,-107.0,-79.0,127.0,127.0,127.0,111.0,84.0,-50.0
127.0,127.0,126.0,128.0,127.0,145.0,127.0,128.0,20.0,-107.0,-79.0,127.0,127.0,127.0,111.0,84.0,-50.0
127.0,127.0,126.0,128.0,127.0,145.0,127.0,128.0,20.0,-107.0,-79.0,127.0,127.0,127.0,111.0,84.0,-50.0
127.0,127.0,126.0,128.0,127.0,145.0,127.0,128.0,20.0,-107.0,-79.0,127.0,127.0,127.0,111.0,84.0,-50.0
127.0,127.0,126.0,128.0,127.0,145.0,127.0,128.0,20.0,-107.0,-79.0,127.0,127.0,127.0,111.0,84.0,-50.0
126.0,127.0,125.0,128.0,127.0,144.0,127.0,128.0,20.0,-107.0,-79.0,127.0,127.0,127.0,111.0,84.0,-50.0
126.0,128.0,125.0,128.0,127.0,145.0,127.0,128.0,20.0,-107.0,-79.0,127.0,127.0,127.0,111.0,84.0,-50.0
126.0,128.0,125.0,128.0,127.0,145.0,127.0,128.0,20.0,-107.0,-79.0,127.0,127.0,127.0,111.0,84.0,-50.0
126.0,128.0,125.0,128.0,127.0,145.0,127.0,128.0,20.0,-107.0,-79.0,127.0,127.0,127.0,111.0,84.0,-50.0
127.0,127.0,125.0,128.0,127.0,145.0,127.0,128.0,20.0,-107.0,-79.0,127.0,127.0,127.0,111.0,84.0,-50.0
126.0,127.0,125.0,128.0,127.0,144.0,127.0,128.0,21.0,-107.0,-80.0,127.0,127.0,127.0,111.0,84.0,-50.0
126.0,127.0,126.0,128.0,127.0,144.0,127.0,128.0,21.0,-107.0,-80.0,127.0,127.0,127.0,111.0,84.0,-50.0
126.0,127.0,126.0,128.0,127.0,144.0,127.0,128.0,21.0,-107.0,-80.0,127.0,127.0,127.0,111.0,84.0,-50.0
126.0,127.0,126.0,128.0,127.0,144.0,127.0,128.0,21.0,-107.0,-80.0,127.0,127.0,127.0,111.0,84.0,-50.0
126.0,127.0,125.0,128.0,127.0,143.0,127.0,128.0,21.0,-107.0,-80.0,127.0,127.0,127.0,111.0,84.0,-50.0
126.0,127.0,125.0,128.0,127.0,144.0,126.0,128.0,21.0,-107.0,-80.0,127.0,127.0,127.0,111.0,84.0,-50.0
126.0,128.0,125.0,128.0,127.0,145.0,126.0,128.0,21.0,-107.0,-80.0,127.0,127.0,127.0,111.0,84.0,-50.0
126.0,128.0,125.0,128.0,127.0,145.0,127.0,128.0,21.0,-107.0,-80.0,127.0,127.0,127.0,111.0,84.0,-50.0
126.0,128.0,125.0,128.0,127.0,144.0,127.0,128.0,21.0,-107.0,-80.0,127.0,127.0,127.0,111.0,84.0,-50.0
126.0,127.0,125.0,128.0,127.0,144.0,126.0,128.0,21.0,-107.0,-80.0,127.0,127.0,127.0,111.0,84.0,-50.0
127.0,127.0,126.0,128.0,127.0,144.0,127.0,128.0,22.0,-107.0,-80.0,127.0,127.0,127.0,111.0,84.0,-50.0
127.0,127.0,126.0,128.0,127.0,144.0,127.0,128.0,22.0,-107.0,-80.0,127.0,127.0,127.0,111.0,84.0,-50.0
127.0,127.0,126.0,128.0,127.0,144.0,127.0,128.0,22.0,-107.0,-80.0,127.0,127.0,127.0,111.0,84.0,-50.0
127.0,128.0,126.0,128.0,127.0,143.0,127.0,128.0,22.0,-107.0,-80.0,127.0,127.0,127.0,111.0,84.0,-50.0
127.0,128.0,126.0,128.0,127.0,143.0,127.0,128.0,22.0,-107.0,-80.0,127.0,127.0,127.0,111.0,84.0,-50.0
127.0,128.0,125.0,128.0,127.0,144.0,127.0,128.0,22.0,-107.0,-80.0,127.0,127.0,127.0,111.0,84.0,-50.0
127.0,128.0,126.0,128.0,127.0,144.0,127.0,128.0,22.0,-107.0,-80.0,127.0,127.0,127.0,111.0,84.0,-50.0
127.0,128.0,126.0,128.0,127.0,144.0,127.0,128.0,22.0,-107.0,-80.0,127.0,127.0,127.0,111.0,84.0,-50.0
127.0,128.0,126.0,128.0,127.0,144.0,127.0,128.0,22.0,-107.0,-80.0,127.0,127.0,127.0,111.0,84.0,-50.0
127.0,128.0,126.0,128.0,127.0,144.0,127.0,128.0,22.0,-107.0,-80.0,127.0,127.0,127.0,111.0,84.0,-50.0
127.0,127.0,126.0,127.0,127.0,144.0,127.0,128.0,21.0,-108.0,-79.0,127.0,127.0,127.0,111.0,84.0,-50.0
127.0,127.0,126.0,127.0,127.0,144.0,127.0,128.0,21.0,-108.0,-79.0,127.0,127.0,127.0,111.0,84.0,-50.0
126.0,127.0,126.0,128.0,127.0,143.0,127.0,128.0,21.0,-108.0,-79.0,127.0,127.0,127.0,111.0,84.0,-50.0
126.0,127.0,126.0,128.0,127.0,143.0,127.0,128.0,21.0,-108.0,-79.0,127.0,127.0,127.0,111.0,84.0,-50.0
126.0,127.0,125.0,128.0,127.0,144.0,127.0,128.0,21.0,-108.0,-79.0,127.0,127.0,127.0,111.0,84.0,-50.0
126.0,127.0,125.0,128.0,127.0,145.0,127.0,128.0,21.0,-108.0,-79.0,127.0,127.0,127.0,111.0,84.0,-50.0
126.0,127.0,126.0,128.0,127.0,144.0,127.0,128.0,21.0,-108.0,-79.0,127.0,127.0,127.0,111.0,84.0,-50.0
127.0,127.0,126.0,128.0,127.0,144.0,127.0,128.0,21.0,-108.0,-79.0,127.0,127.0,127.0,111.0,84.0,-50.0
127.0,127.0,126.0,127.0,127.0,144.0,127.0,128.0,21.0,-108.0,-79.0,127.0,127.0,127.0,111.0,84.0,-50.0
127.0,127.0,126.0,127.0,127.0,144.0,127.0,128.0,21.0,-108.0,-79.0,127.0,127.0,127.0,111.0,84.0,-50.0
127.0,127.0,127.0,128.0,127.0,143.0,127.0,128.0,20.0,-108.0,-79.0,127.0,127.0,127.0,111.0,84.0,-50.0
126.0,127.0,126.0,128.0,127.0,142.0,127.0,128.0,20.0,-108.0,-79.0,127.0,127.0,127.0,111.0,84.0,-50.0
126.0,127.0,126.0,128.0,127.0,142.0,127.0,128.0,20.0,-108.0,-79.0,127.0,127.0,127.0,111.0,84.0,-50.0
126.0,127.0,126.0,128.0,127.0,143.0,127.0,128.0,20.0,-108.0,-79.0,127.0,127.0,127.0,111.0,84.0,-50.0
126.0,127.0,126.0,128.0,127.0,143.0,126.0,128.0,20.0,-108.0,-79.0,127.0,127.0,127.0,111.0,84.0,-50.0
126.0,127.0,126.0,128.0,127.0,143.0,127.0,128.0,20.0,-108.0,-79.0,127.0,127.0,127.0,111.0,84.0,-50.0
126.0,127.0,126.0,128.0,127.0,143.0,127.0,128.0,20.0,-108.0,-79.0,127.0,127.0,127.0,111.0,84.0,-50.0
126.0,127.0,126.0,128.0,127.0,143.0,127.0,128.0,20.0,-108.0,-79.0,127.0,127.0,127.0,111.0,84.0,-50.0
127.0,127.0,126.0,128.0,127.0,143.0,126.0,128.0,20.0,-108.0,-79.0,127.0,127.0,127.0,111.0,84.0,-50.0
127.0,127.0,127.0,128.0,127.0,143.0,127.0,128.0,20.0,-108.0,-79.0,127.0,127.0,127.0,111.0,84.0,-50.0
126.0,127.0,126.0,128.0,127.0,141.0,127.0,128.0,19.0,-107.0,-79.0,127.0,127.0,127.0,111.0,84.0,-50.0
126.0,127.0,126.0,128.0,127.0,141.0,127.0,128.0,19.0,-107.0,-79.0,127.0,127.0,127.0,111.0,84.0,-50.0
126.0,127.0,126.0,128.0,127.0,142.0,127.0,128.0,19.0,-107.0,-79.0,127.0,127.0,127.0,111.0,84.0,-50.0
126.0,127.0,126.0,128.0,127.0,142.0,127.0,128.0,19.0,-107.0,-79.0,127.0,127.0,127.0,111.0,84.0,-50.0
126.0,127.0,126.0,128.0,127.0,142.0,127.0,128.0,19.0,-107.0,-79.0,127.0,127.0,127.0,111.0,84.0,-50.0
126.0,127.0,126.0,128.0,127.0,142.0,127.0,128.0,19.0,-107.0,-79.0,127.0,127.0,127.0,111.0,84.0,-50.0
126.0,127.0,126.0,128.0,127.0,142.0,127.0,128.0,19.0,-107.0,-79.0,127.0,127.0,127.0,111.0,84.0,-50.0
126.0,127.0,126.0,128.0,127.0,142.0,127.0,128.0,19.0,-107.0,-79.0,127.0,127.0,127.0,111.0,84.0,-50.0
126.0,127.0,126.0,128.0,127.0,142.0,127.0,128.0,19.0,-107.0,-79.0,127.0,127.0,127.0,111.0,84.0,-50.0
126.0,127.0,126.0,128.0,127.0,141.0,127.0,128.0,19.0,-107.0,-79.0,127.0,127.0,127.0,111.0,84.0,-50.0
126.0,127.0,126.0,127.0,127.0,139.0,127.0,128.0,18.0,-107.0,-78.0,127.0,127.0,127.0,111.0,84.0,-50.0
126.0,127.0,126.0,127.0,127.0,139.0,127.0,128.0,18.0,-107.0,-78.0,127.0,127.0,127.0,111.0,84.0,-50.0
126.0,127.0,126.0,127.0,127.0,139.0,127.0,128.0,18.0,-107.0,-78.0,127.0,127.0,127.0,111.0,84.0,-50.0
127.0,127.0,126.0,127.0,127.0,139.0,127.0,128.0,18.0,-107.0,-78.0,127.0,127.0,127.0,111.0,84.0,-50.0
126.0,127.0,125.0,127.0,127.0,139.0,127.0,128.0,18.0,-107.0,-78.0,127.0,127.0,127.0,111.0,84.0,-50.0
126.0,127.0,125.0,127.0,127.0,141.0,127.0,128.0,18.0,-107.0,-78.0,127.0,127.0,127.0,111.0,84.0,-50.0
126.0,127.0,125.0,127.0,127.0,141.0,127.0,128.0,18.0,-107.0,-78.0,127.0,127.0,127.0,111.0,84.0,-50.0
126.0,127.0,125.0,127.0,127.0,141.0,127.0,128.0,18.0,-107.0,-78.0,127.0,127.0,127.0,111.0,84.0,-50.0
127.0,127.0,125.0,127.0,127.0,140.0,127.0,128.0,18.0,-107.0,-78.0,127.0,127.0,127.0,111.0,84.0,-50.0
126.0,127.0,126.0,127.0,127.0,139.0,127.0,128.0,18.0,-107.0,-78.0,127.0,127.0,127.0,111.0,84.0,-50.0
126.0,127.0,125.0,128.0,127.0,141.0,127.0,128.0,18.0,-107.0,-78.0,127.0,127.0,127.0,111.0,84.0,-50.0
126.0,127.0,125.0,128.0,127.0,140.0,127.0,128.0,18.0,-107.0,-78.0,127.0,127.0,127.0,111.0,84.0,-50.0
126.0,127.0,125.0,128.0,127.0,141.0,127.0,128.0,18.0,-107.0,-78.0,127.0,127.0,127.0,111.0,84.0,-50.0
126.0,127.0,125.0,128.0,127.0,140.0,127.0,128.0,18.0,-107.0,-78.0,127.0,127.0,127.0,111.0,84.0,-50.0
126.0,127.0,125.0,128.0,127.0,140.0,127.0,128.0,18.0,-107.0,-78.0,127.0,127.0,127.0,111.0,84.0,-50.0
126.0,127.0,126.0,128.0,127.0,140.0,127.0,128.0,18.0,-107.0,-78.0,127.0,127.0,127.0,111.0,84.0,-50.0
126.0,127.0,126.0,128.0,127.0,140.0,127.0,128.0,18.0,-107.0,-78.0,127.0,127.0,127.0,111.0,84.0,-50.0
126.0,127.0,126.0,128.0,127.0,139.0,127.0,128.0,18.0,-107.0,-78.0,127.0,127.0,127.0,111.0,84.0,-50.0
126.0,128.0,125.0,128.0,127.0,141.0,127.0,128.0,18.0,-107.0,-78.0,127.0,127.0,127.0,111.0,84.0,-50.0
126.0,128.0,125.0,128.0,127.0,141.0,127.0,128.0,18.0,-107.0,-78.0,127.0,127.0,127.0,111.0,84.0,-50.0
127.0,127.0,125.0,128.0,127.0,139.0,127.0,128.0,17.0,-107.0,-79.0,127.0,127.0,127.0,111.0,84.0,-50.0
127.0,128.0,125.0,128.0,127.0,140.0,127.0,128.0,17.0,-107.0,-79.0,127.0,127.0,127.0,111.0,84.0,-50.0
127.0,127.0,125.0,128.0,127.0,139.0,127.0,128.0,17.0,-107.0,-79.0,127.0,127.0,127.0,111.0,84.0,-50.0
127.0,127.0,125.0,128.0,127.0,139.0,127.0,128.0,17.0,-107.0,-79.0,127.0,127.0,127.0,111.0,84.0,-50.0
127.0,127.0,125.0,128.0,127.0,139.0,127.0,128.0,17.0,-107.0,-79.0,127.0,127.0,127.0,111.0,84.0,-50.0
127.0,127.0,125.0,128.0,127.0,139.0,127.0,128.0,17.0,-107.0,-79.0,127.0,127.0,127.0,111.0,84.0,-50.0
127.0,127.0,126.0,128.0,127.0,138.0,127.0,128.0,17.0,-107.0,-79.0,127.0,127.0,127.0,111.0,84.0,-50.0
127.0,128.0,125.0,128.0,127.0,140.0,127.0,128.0,17.0,-107.0,-79.0,127.0,127.0,127.0,111.0,84.0,-50.0
127.0,128.0,125.0,128.0,127.0,140.0,127.0,128.0,17.0,-107.0,-79.0,127.0,127.0,127.0,111.0,84.0,-50.0
127.0,128.0,125.0,128.0,127.0,140.0,127.0,128.0,17.0,-107.0,-79.0,127.0,127.0,127.0,111.0,84.0,-50.0
126.0,128.0,124.0,128.0,127.0,139.0,127.0,128.0,18.0,-106.0,-79.0,127.0,127.0,127.0,111.0,84.0,-50.0
126.0,128.0,124.0,128.0,127.0,139.0,127.0,128.0,18.0,-106.0,-79.0,127.0,127.0,127.0,111.0,84.0,-50.0
126.0,128.0,124.0,128.0,127.0,138.0,127.0,128.0,18.0,-106.0,-79.0,127.0,127.0,127.0,111.0,84.0,-50.0
126.0,127.0,125.0,128.0,127.0,138.0,127.0,128.0,18.0,-106.0,-79.0,127.0,127.0,127.0,111.0,84.0,-50.0
126.0,127.0,125.0,128.0,127.0,138.0,127.0,128.0,18.0,-106.0,-79.0,127.0,127.0,127.0,111.0,84.0,-50.0
126.0,127.0,125.0,128.0,127.0,138.0,127.0,128.0,18.0,-106.0,-79.0,127.0,127.0,127.0,111.0,84.0,-50.0
126.0,128.0,124.0,128.0,127.0,139.0,127.0,128.0,18.0,-106.0,-79.0,127.0,127.0,127.0,111.0,84.0,-50.0
126.0,128.0,124.0,128.0,127.0,139.0,127.0,128.0,18.0,-106.0,-79.0,127.0,127.0,127.0,111.0,84.0,-50.0
126.0,128.0,124.0,127.0,127.0,139.0,127.0,128.0,18.0,-106.0,-79.0,127.0,127.0,127.0,111.0,84.0,-50.0
126.0,128.0,124.0,128.0,127.0,139.0,127.0,128.0,18.0,-106.0,-79.0,127.0,127.0,127.0,111.0,84.0,-50.0
126.0,128.0,124.0,128.0,127.0,141.0,127.0,128.0,19.0,-106.0,-79.0,127.0,127.0,127.0,111.0,84.0,-50.0
126.0,128.0,125.0,128.0,127.0,141.0,127.0,128.0,19.0,-106.0,-79.0,127.0,127.0,127.0,111.0,84.0,-50.0
126.0,128.0,125.0,128.0,127.0,141.0,127.0,128.0,19.0,-106.0,-79.0,127.0,127.0,127.0,111.0,84.0,-50.0
126.0,127.0,125.0,128.0,127.0,141.0,127.0,128.0,19.0,-106.0,-79.0,127.0,127.0,127.0,111.0,84.0,-50.0
126.0,127.0,125.0,128.0,127.0,140.0,127.0,128.0,19.0,-106.0,-79.0,127.0,127.0,127.0,111.0,84.0,-50.0
126.0,128.0,124.0,128.0,127.0,141.0,127.0,128.0,19.0,-106.0,-79.0,127.0,127.0,127.0,111.0,84.0,-50.0
126.0,128.0,124.0,128.0,127.0,141.0,127.0,128.0,19.0,-106.0,-79.0,127.0,127.0,127.0,111.0,84.0,-50.0
126.0,128.0,124.0,128.0,127.0,141.0,127.0,128.0,19.0,-106.0,-79.0,127.0,127.0,127.0,111.0,84.0,-50.0
126.0,128.0,124.0,128.0,127.0,141.0,127.0,128.0,19.0,-106.0,-79.0,127.0,127.0,127.0,111.0,84.0,-50.0
126.0,128.0,124.0,128.0,127.0,141.0,127.0,128.0,19.0,-106.0,-79.0,127.0,127.0,127.0,111.0,84.0,-50.0
127.0,127.0,125.0,128.0,127.0,143.0,127.0,128.0,20.0,-106.0,-79.0,127.0,127.0,127.0,111.0,84.0,-50.0
127.0,127.0,126.0,128.0,126.0,143.0,127.0,128.0,20.0,-106.0,-79.0,127.0,127.0,127.0,111.0,84.0,-50.0
127.0,127.0,126.0,128.0,127.0,143.0,127.0,128.0,20.0,-106.0,-79.0,127.0,127.0,127.0,111.0,84.0,-50.0
127.0,127.0,126.0,128.0,126.0,143.0,127.0,128.0,20.0,-106.0,-79.0,127.0,127.0,127.0,111.0,84.0,-50.0
126.0,128.0,125.0,128.0,127.0,143.0,127.0,128.0,20.0,-106.0,-79.0,127.0,127.0,127.0,111.0,84.0,-50.0
126.0,128.0,125.0,128.0,127.0,143.0,127.0,128.0,20.0,-106.0,-79.0,127.0,127.0,127.0,111.0,84.0,-50.0
126.0,128.0,125.0,128.0,127.0,143.0,127.0,128.0,20.0,-106.0,-79.0,127.0,127.0,127.0,111.0,84.0,-50.0
126.0,127.0,125.0,128.0,127.0,143.0,127.0,128.0,20.0,-106.0,-79.0,127.0,127.0,127.0,111.0,84.0,-50.0
127.0,127.0,125.0,128.0,127.0,143.0,127.0,128.0,20.0,-106.0,-79.0,127.0,127.0,127.0,111.0,84.0,-50.0
127.0,127.0,125.0,128.0,127.0,143.0,127.0,128.0,20.0,-106.0,-79.0,127.0,127.0,127.0,111.0,84.0,-50.0
127.0,127.0,126.0,128.0,127.0,143.0,127.0,128.0,21.0,-107.0,-79.0,127.0,127.0,127.0,111.0,84.0,-50.0
127.0,127.0,126.0,128.0,127.0,143.0,127.0,128.0,21.0,-107.0,-79.0,127.0,127.0,127.0,111.0,84.0,-50.0
127.0,127.0,127.0,128.0,127.0,143.0,127.0,128.0,21.0,-107.0,-79.0,127.0,127.0,127.0,111.0,84.0,-50.0
126.0,128.0,126.0,128.0,127.0,144.0,127.0,128.0,21.0,-107.0,-79.0,127.0,127.0,127.0,111.0,84.0,-50.0
126.0,128.0,126.0,128.0,127.0,144.0,127.0,128.0,21.0,-107.0,-79.0,127.0,127.0,127.0,111.0,84.0,-50.0
127.0,128.0,126.0,128.0,127.0,144.0,127.0,128.0,21.0,-107.0,-79.0,127.0,127.0,127.0,111.0,84.0,-50.0
127.0,128.0,126.0,128.0,127.0,144.0,127.0,128.0,21.0,-107.0,-79.0,127.0,127.0,127.0,111.0,84.0,-50.0
126.0,128.0,126.0,128.0,127.0,144.0,127.0,128.0,21.0,-107.0,-79.0,127.0,127.0,127.0,111.0,84.0,-50.0
127.0,128.0,126.0,128.0,127.0,144.0,127.0,128.0,21.0,-107.0,-79.0,127.0,127.0,127.0,111.0,84.0,-50.0
127.0,127.0,126.0,128.0,127.0,144.0,127.0,128.0,21.0,-107.0,-79.0,127.0,127.0,127.0,111.0,84.0,-50.0
126.0,127.0,126.0,128.0,127.0,143.0,127.0,128.0,22.0,-107.0,-79.0,127.0,127.0,127.0,111.0,84.0,-50.0
126.0,127.0,126.0,128.0,127.0,142.0,127.0,128.0,22.0,-107.0,-79.0,127.0,127.0,127.0,111.0,84.0,-50.0
126.0,128.0,126.0,128.0,127.0,143.0,127.0,128.0,22.0,-107.0,-79.0,127.0,127.0,127.0,111.0,84.0,-50.0
126.0,128.0,126.0,128.0,127.0,143.0,127.0,128.0,22.0,-107.0,-79.0,127.0,127.0,127.0,111.0,84.0,-50.0
126.0,128.0,126.0,128.0,127.0,143.0,127.0,128.0,22.0,-107.0,-79.0,127.0,127.0,127.0,111.0,84.0,-50.0
126.0,128.0,126.0,128.0,127.0,143.0,127.0,128.0,22.0,-107.0,-79.0,127.0,127.0,127.0,111.0,84.0,-50.0
126.0,128.0,126.0,128.0,127.0,143.0,127.0,128.0,22.0,-107.0,-79.0,127.0,127.0,127.0,111.0,84.0,-50.0
126.0,128.0,126.0,128.0,127.0,143.0,127.0,128.0,22.0,-107.0,-79.0,127.0,127.0,127.0,111.0,84.0,-50.0
126.0,128.0,126.0,128.0,127.0,143.0,127.0,128.0,22.0,-107.0,-79.0,127.0,127.0,127.0,111.0,84.0,-50.0
126.0,128.0,126.0,128.0,127.0,143.0,127.0,128.0,22.0,-107.0,-79.0,127.0,127.0,127.0,111.0,84.0,-50.0
126.0,127.0,126.0,127.0,127.0,141.0,127.0,128.0,21.0,-107.0,-79.0,127.0,127.0,127.0,111.0,84.0,-50.0
126.0,127.0,126.0,127.0,127.0,139.0,127.0,128.0,21.0,-107.0,-79.0,127.0,127.0,127.0,111.0,84.0,-50.0
126.0,127.0,126.0,127.0,127.0,139.0,127.0,128.0,21.0,-107.0,-79.0,127.0,127.0,127.0,111.0,84.0,-50.0
126.0,127.0,126.0,128.0,127.0,140.0,127.0,128.0,21.0,-107.0,-79.0,127.0,127.0,127.0,111.0,84.0,-50.0
126.0,127.0,126.0,127.0,127.0,140.0,127.0,128.0,21.0,-107.0,-79.0,127.0,127.0,127.0,111.0,84.0,-50.0
126.0,127.0,126.0,127.0,127.0,141.0,127.0,128.0,21.0,-107.0,-79.0,127.0,127.0,127.0,111.0,84.0,-50.0
126.0,127.0,126.0,127.0,127.0,141.0,127.0,128.0,21.0,-107.0,-79.0,127.0,127.0,127.0,111.0,84.0,-50.0
126.0,127.0,126.0,127.0,127.0,141.0,127.0,128.0,21.0,-107.0,-79.0,127.0,127.0,127.0,111.0,84.0,-50.0
126.0,127.0,126.0,127.0,127.0,141.0,127.0,128.0,21.0,-107.0,-79.0,127.0,127.0,127.0,111.0,84.0,-50.0
126.0,127.0,126.0,127.0,127.0,141.0,127.0,128.0,21.0,-107.0,-79.0,127.0,127.0,127.0,111.0,84.0,-50.0
126.0,127.0,126.0,127.0,127.0,141.0,127.0,128.0,20.0,-107.0,-78.0,127.0,127.0,127.0,111.0,84.0,-50.0
126.0,127.0,126.0,127.0,127.0,141.0,127.0,128.0,20.0,-107.0,-78.0,127.0,127.0,127.0,111.0,84.0,-50.0
126.0,127.0,126.0,127.0,127.0,141.0,127.0,128.0,20.0,-107.0,-78.0,127.0,127.0,127.0,111.0,84.0,-50.0
126.0,127.0,126.0,127.0,127.0,141.0,127.0,128.0,20.0,-107.0,-78.0,127.0,127.0,127.0,111.0,84.0,-50.0
127.0,127.0,126.0,127.0,127.0,141.0,127.0,128.0,20.0,-107.0,-78.0,127.0,127.0,127.0,111.0,84.0,-50.0
127.0,127.0,126.0,127.0,127.0,141.0,127.0,128.0,20.0,-107.0,-78.0,127.0,127.0,127.0,111.0,84.0,-50.0
127.0,127.0,127.0,127.0,127.0,140.0,127.0,128.0,20.0,-107.0,-78.0,127.0,127.0,127.0,111.0,84.0,-50.0
127.0,126.0,127.0,127.0,127.0,140.0,127.0,128.0,20.0,-107.0,-78.0,127.0,127.0,127.0,111.0,84.0,-50.0
127.0,126.0,127.0,127.0,127.0,140.0,126.0,128.0,20.0,-107.0,-78.0,127.0,127.0,127.0,111.0,84.0,-50.0
127.0,126.0,127.0,127.0,127.0,140.0,126.0,128.0,20.0,-107.0,-78.0,127.0,127.0,127.0,111.0,84.0,-50.0
126.0,127.0,126.0,127.0,127.0,141.0,126.0,128.0,19.0,-107.0,-78.0,127.0,127.0,127.0,111.0,84.0,-50.0
126.0,127.0,126.0,127.0,127.0,141.0,126.0,128.0,19.0,-107.0,-78.0,127.0,127.0,127.0,111.0,84.0,-50.0
126.0,127.0,126.0,127.0,127.0,140.0,126.0,128.0,19.0,-107.0,-78.0,127.0,127.0,127.0,111.0,84.0,-50.0
126.0,127.0,126.0,127.0,127.0,140.0,127.0,128.0,19.0,-107.0,-78.0,127.0,127.0,127.0,111.0,84.0,-50.0
126.0,127.0,126.0,127.0,127.0,140.0,127.0,128.0,19.0,-107.0,-78.0,127.0,127.0,127.0,111.0,84.0,-50.0
126.0,127.0,126.0,127.0,127.0,140.0,127.0,128.0,19.0,-107.0,-78.0,127.0,127.0,127.0,111.0,84.0,-50.0
126.0,126.0,126.0,127.0,126.0,139.0,127.0,128.0,19.0,-107.0,-78.0,127.0,127.0,127.0,111.0,84.0,-50.0
126.0,126.0,126.0,127.0,126.0,139.0,127.0,128.0,19.0,-107.0,-78.0,127.0,127.0,127.0,111.0,84.0,-50.0
126.0,126.0,126.0,127.0,126.0,139.0,127.0,128.0,19.0,-107.0,-78.0,127.0,127.0,127.0,111.0,84.0,-50.0
126.0,127.0,126.0,127.0,127.0,141.0,126.0,128.0,19.0,-107.0,-78.0,127.0,127.0,127.0,111.0,84.0,-50.0
126.0,128.0,125.0,128.0,127.0,140.0,127.0,128.0,18.0,-107.0,-78.0,127.0,127.0,127.0,111.0,84.0,-50.0
126.0,127.0,125.0,128.0,127.0,140.0,127.0,128.0,18.0,-107.0,-78.0,127.0,127.0,127.0,111.0,84.0,-50.0
126.0,127.0,125.0,128.0,127.0,140.0,127.0,128.0,18.0,-107.0,-78.0,127.0,127.0,127.0,111.0,84.0,-50.0
126.0,127.0,125.0,128.0,127.0,139.0,127.0,128.0,18.0,-107.0,-78.0,127.0,127.0,127.0,111.0,84.0,-50.0
126.0,127.0,125.0,127.0,127.0,139.0,127.0,128.0,18.0,-107.0,-78.0,127.0,127.0,127.0,111.0,84.0,-50.0
127.0,127.0,126.0,127.0,127.0,139.0,127.0,128.0,18.0,-107.0,-78.0,127.0,127.0,127.0,111.0,84.0,-50.0
126.0,127.0,126.0,127.0,127.0,139.0,127.0,128.0,18.0,-107.0,-78.0,127.0,127.0,127.0,111.0,84.0,-50.0
127.0,127.0,126.0,127.0,127.0,139.0,127.0,128.0,18.0,-107.0,-78.0,127.0,127.0,127.0,111.0,84.0,-50.0
126.0,128.0,125.0,128.0,127.0,140.0,127.0,128.0,18.0,-107.0,-78.0,127.0,127.0,127.0,111.0,84.0,-50.0
126.0,128.0,125.0,128.0,127.0,140.0,127.0,128.0,18.0,-107.0,-78.0,127.0,127.0,127.0,111.0,84.0,-50.0
