emg1,emg2,emg3,emg4,emg5,emg6,emg7,emg8,acc_x,acc_y,acc_z,gyro_x,gyro_y,gyro_z,angle_pitch,angle_roll,angle_yaw
130.0,131.0,129.0,123.0,127.0,126.0,127.0,124.0,17.0,-96.0,-87.0,127.0,127.0,127.0,99.0,84.0,-76.0
129.0,135.0,123.0,124.0,127.0,127.0,129.0,129.0,17.0,-96.0,-87.0,127.0,127.0,127.0,99.0,84.0,-76.0
129.0,136.0,123.0,124.0,127.0,127.0,128.0,129.0,17.0,-96.0,-87.0,127.0,127.0,127.0,99.0,84.0,-76.0
129.0,136.0,123.0,124.0,127.0,127.0,128.0,129.0,17.0,-96.0,-87.0,127.0,127.0,127.0,99.0,84.0,-76.0
129.0,134.0,123.0,124.0,127.0,127.0,128.0,129.0,17.0,-96.0,-87.0,127.0,127.0,127.0,99.0,84.0,-76.0
129.0,133.0,123.0,124.0,127.0,127.0,128.0,128.0,17.0,-96.0,-87.0,127.0,127.0,127.0,99.0,84.0,-76.0
129.0,132.0,123.0,125.0,127.0,127.0,128.0,128.0,17.0,-96.0,-87.0,127.0,127.0,127.0,99.0,84.0,-76.0
129.0,131.0,123.0,125.0,128.0,126.0,128.0,128.0,17.0,-96.0,-87.0,127.0,127.0,127.0,99.0,84.0,-76.0
129.0,131.0,124.0,125.0,128.0,126.0,128.0,128.0,17.0,-96.0,-87.0,127.0,127.0,127.0,99.0,84.0,-76.0
130.0,131.0,123.0,124.0,127.0,127.0,130.0,129.0,17.0,-96.0,-87.0,127.0,127.0,127.0,99.0,84.0,-76.0
130.0,133.0,123.0,124.0,127.0,127.0,129.0,129.0,17.0,-96.0,-87.0,127.0,127.0,127.0,99.0,84.0,-76.0
128.0,132.0,123.0,125.0,127.0,126.0,125.0,128.0,18.0,-96.0,-87.0,127.0,127.0,127.0,99.0,84.0,-76.0
128.0,132.0,122.0,125.0,127.0,126.0,125.0,128.0,18.0,-96.0,-87.0,127.0,127.0,127.0,99.0,84.0,-76.0
128.0,132.0,123.0,125.0,127.0,126.0,125.0,128.0,18.0,-96.0,-87.0,127.0,127.0,127.0,99.0,84.0,-76.0
128.0,133.0,123.0,125.0,126.0,126.0,125.0,128.0,18.0,-96.0,-87.0,127.0,127.0,127.0,99.0,84.0,-76.0
128.0,132.0,123.0,125.0,126.0,126.0,125.0,128.0,18.0,-96.0,-87.0,127.0,127.0,127.0,99.0,84.0,-76.0
128.0,132.0,123.0,125.0,126.0,126.0,125.0,128.0,18.0,-96.0,-87.0,127.0,127.0,127.0,99.0,84.0,-76.0
128.0,132.0,123.0,125.0,126.0,126.0,125.0,127.0,18.0,-96.0,-87.0,127.0,127.0,127.0,99.0,84.0,-76.0
128.0,132.0,123.0,126.0,127.0,126.0,124.0,128.0,18.0,-96.0,-87.0,127.0,127.0,127.0,99.0,84.0,-76.0
128.0,132.0,123.0,125.0,127.0,126.0,125.0,128.0,18.0,-96.0,-87.0,127.0,127.0,127.0,99.0,84.0,-76.0
128.0,132.0,123.0,125.0,127.0,126.0,125.0,128.0,18.0,-96.0,-87.0,127.0,127.0,127.0,99.0,84.0,-76.0
127.0,132.0,123.0,126.0,128.0,127.0,128.0,128.0,19.0,-96.0,-87.0,127.0,127.0,127.0,99.0,84.0,-76.0
127.0,132.0,124.0,126.0,128.0,127.0,127.0,128.0,19.0,-96.0,-87.0,127.0,127.0,127.0,99.0,84.0,-76.0
127.0,132.0,124.0,126.0,128.0,127.0,127.0,128.0,19.0,-96.0,-87.0,127.0,127.0,127.0,99.0,84.0,-76.0
128.0,132.0,124.0,126.0,128.0,127.0,127.0,128.0,19.0,-96.0,-87.0,127.0,127.0,127.0,99.0,84.0,-76.0
127.0,132.0,124.0,126.0,128.0,127.0,127.0,128.0,19.0,-96.0,-87.0,127.0,127.0,127.0,99.0,84.0,-76.0
127.0,132.0,124.0,126.0,127.0,127.0,128.0,128.0,19.0,-96.0,-87.0,127.0,127.0,127.0,99.0,84.0,-76.0
127.0,131.0,122.0,126.0,128.0,127.0,130.0,128.0,19.0,-96.0,-87.0,127.0,127.0,127.0,99.0,84.0,-76.0
127.0,131.0,122.0,126.0,128.0,127.0,129.0,128.0,19.0,-96.0,-87.0,127.0,127.0,127.0,99.0,84.0,-76.0
127.0,131.0,123.0,126.0,128.0,127.0,129.0,127.0,19.0,-96.0,-87.0,127.0,127.0,127.0,99.0,84.0,-76.0
127.0,131.0,123.0,126.0,128.0,127.0,128.0,128.0,19.0,-96.0,-87.0,127.0,127.0,127.0,99.0,84.0,-76.0
126.0,133.0,119.0,125.0,128.0,127.0,129.0,129.0,19.0,-96.0,-87.0,127.0,127.0,127.0,99.0,84.0,-76.0
126.0,133.0,119.0,125.0,128.0,127.0,129.0,129.0,19.0,-96.0,-87.0,127.0,127.0,127.0,99.0,84.0,-76.0
126.0,132.0,119.0,125.0,128.0,127.0,128.0,129.0,19.0,-96.0,-87.0,127.0,127.0,127.0,99.0,84.0,-76.0
126.0,132.0,119.0,125.0,128.0,127.0,128.0,129.0,19.0,-96.0,-87.0,127.0,127.0,127.0,99.0,84.0,-76.0
126.0,131.0,120.0,125.0,128.0,127.0,128.0,129.0,19.0,-96.0,-87.0,127.0,127.0,127.0,99.0,84.0,-76.0
126.0,132.0,121.0,125.0,127.0,126.0,127.0,128.0,19.0,-96.0,-87.0,127.0,127.0,127.0,99.0,84.0,-76.0
126.0,133.0,121.0,125.0,127.0,126.0,128.0,129.0,19.0,-96.0,-87.0,127.0,127.0,127.0,99.0,84.0,-76.0
126.0,133.0,120.0,125.0,127.0,126.0,129.0,129.0,19.0,-96.0,-87.0,127.0,127.0,127.0,99.0,84.0,-76.0
126.0,133.0,119.0,125.0,127.0,126.0,129.0,129.0,19.0,-96.0,-87.0,127.0,127.0,127.0,99.0,84.0,-76.0
126.0,133.0,119.0,125.0,128.0,126.0,129.0,129.0,19.0,-96.0,-87.0,127.0,127.0,127.0,99.0,84.0,-76.0
128.0,128.0,127.0,125.0,127.0,127.0,134.0,129.0,20.0,-96.0,-88.0,127.0,127.0,127.0,99.0,84.0,-76.0
128.0,128.0,127.0,125.0,127.0,127.0,134.0,130.0,20.0,-96.0,-88.0,127.0,127.0,127.0,99.0,84.0,-76.0
128.0,127.0,127.0,125.0,127.0,127.0,133.0,130.0,20.0,-96.0,-88.0,127.0,127.0,127.0,99.0,84.0,-76.0
129.0,127.0,127.0,125.0,127.0,127.0,132.0,130.0,20.0,-96.0,-88.0,127.0,127.0,127.0,99.0,84.0,-76.0
128.0,129.0,127.0,124.0,127.0,126.0,128.0,128.0,20.0,-96.0,-88.0,127.0,127.0,127.0,99.0,84.0,-76.0
128.0,128.0,127.0,124.0,127.0,126.0,130.0,128.0,20.0,-96.0,-88.0,127.0,127.0,127.0,99.0,84.0,-76.0
128.0,128.0,127.0,125.0,127.0,126.0,131.0,128.0,20.0,-96.0,-88.0,127.0,127.0,127.0,99.0,84.0,-76.0
128.0,128.0,127.0,125.0,127.0,126.0,132.0,128.0,20.0,-96.0,-88.0,127.0,127.0,127.0,99.0,84.0,-76.0
128.0,128.0,127.0,125.0,127.0,126.0,133.0,129.0,20.0,-96.0,-88.0,127.0,127.0,127.0,99.0,84.0,-76.0
128.0,128.0,127.0,125.0,127.0,126.0,134.0,129.0,20.0,-96.0,-88.0,127.0,127.0,127.0,99.0,84.0,-76.0
130.0,129.0,128.0,123.0,126.0,127.0,126.0,128.0,20.0,-96.0,-88.0,127.0,127.0,127.0,99.0,84.0,-76.0
130.0,128.0,128.0,123.0,126.0,127.0,126.0,128.0,20.0,-96.0,-88.0,127.0,127.0,127.0,99.0,84.0,-76.0
130.0,129.0,128.0,124.0,126.0,127.0,127.0,128.0,20.0,-96.0,-88.0,127.0,127.0,127.0,99.0,84.0,-76.0
130.0,129.0,126.0,124.0,127.0,127.0,121.0,128.0,20.0,-96.0,-88.0,127.0,127.0,127.0,99.0,84.0,-76.0
130.0,129.0,126.0,124.0,127.0,127.0,121.0,128.0,20.0,-96.0,-88.0,127.0,127.0,127.0,99.0,84.0,-76.0
130.0,129.0,126.0,124.0,127.0,126.0,121.0,128.0,20.0,-96.0,-88.0,127.0,127.0,127.0,99.0,84.0,-76.0
130.0,129.0,127.0,124.0,127.0,127.0,122.0,128.0,20.0,-96.0,-88.0,127.0,127.0,127.0,99.0,84.0,-76.0
130.0,129.0,127.0,124.0,126.0,127.0,123.0,128.0,20.0,-96.0,-88.0,127.0,127.0,127.0,99.0,84.0,-76.0
130.0,128.0,127.0,123.0,126.0,127.0,124.0,128.0,20.0,-96.0,-88.0,127.0,127.0,127.0,99.0,84.0,-76.0
130.0,128.0,127.0,123.0,126.0,127.0,125.0,128.0,20.0,-96.0,-88.0,127.0,127.0,127.0,99.0,84.0,-76.0
130.0,129.0,129.0,125.0,127.0,127.0,120.0,129.0,20.0,-96.0,-88.0,127.0,127.0,127.0,99.0,84.0,-76.0
131.0,129.0,129.0,124.0,127.0,127.0,121.0,129.0,20.0,-96.0,-88.0,127.0,127.0,127.0,99.0,84.0,-76.0
130.0,129.0,127.0,125.0,128.0,126.0,124.0,126.0,20.0,-96.0,-88.0,127.0,127.0,127.0,99.0,84.0,-76.0
130.0,129.0,127.0,125.0,128.0,126.0,123.0,126.0,20.0,-96.0,-88.0,127.0,127.0,127.0,99.0,84.0,-76.0
130.0,129.0,127.0,125.0,127.0,126.0,123.0,127.0,20.0,-96.0,-88.0,127.0,127.0,127.0,99.0,84.0,-76.0
130.0,129.0,127.0,125.0,127.0,126.0,122.0,128.0,20.0,-96.0,-88.0,127.0,127.0,127.0,99.0,84.0,-76.0
130.0,129.0,127.0,125.0,127.0,126.0,121.0,128.0,20.0,-96.0,-88.0,127.0,127.0,127.0,99.0,84.0,-76.0
130.0,129.0,128.0,125.0,127.0,126.0,120.0,128.0,20.0,-96.0,-88.0,127.0,127.0,127.0,99.0,84.0,-76.0
130.0,129.0,128.0,125.0,127.0,127.0,120.0,129.0,20.0,-96.0,-88.0,127.0,127.0,127.0,99.0,84.0,-76.0
130.0,129.0,128.0,125.0,127.0,127.0,120.0,129.0,20.0,-96.0,-88.0,127.0,127.0,127.0,99.0,84.0,-76.0
142.0,128.0,126.0,122.0,125.0,127.0,121.0,128.0,20.0,-96.0,-88.0,127.0,127.0,127.0,99.0,84.0,-76.0
142.0,130.0,126.0,123.0,125.0,126.0,119.0,128.0,20.0,-96.0,-88.0,127.0,127.0,127.0,99.0,84.0,-76.0
142.0,130.0,126.0,123.0,125.0,126.0,119.0,128.0,20.0,-96.0,-88.0,127.0,127.0,127.0,99.0,84.0,-76.0
142.0,130.0,126.0,122.0,125.0,126.0,119.0,128.0,20.0,-96.0,-88.0,127.0,127.0,127.0,99.0,84.0,-76.0
142.0,129.0,126.0,122.0,125.0,126.0,119.0,128.0,20.0,-96.0,-88.0,127.0,127.0,127.0,99.0,84.0,-76.0
142.0,129.0,125.0,122.0,125.0,126.0,119.0,128.0,20.0,-96.0,-88.0,127.0,127.0,127.0,99.0,84.0,-76.0
142.0,129.0,126.0,122.0,125.0,126.0,119.0,128.0,20.0,-96.0,-88.0,127.0,127.0,127.0,99.0,84.0,-76.0
142.0,129.0,126.0,122.0,125.0,127.0,119.0,128.0,20.0,-96.0,-88.0,127.0,127.0,127.0,99.0,84.0,-76.0
142.0,128.0,126.0,122.0,125.0,127.0,120.0,128.0,20.0,-96.0,-88.0,127.0,127.0,127.0,99.0,84.0,-76.0
142.0,128.0,126.0,122.0,125.0,126.0,120.0,128.0,20.0,-96.0,-88.0,127.0,127.0,127.0,99.0,84.0,-76.0
148.0,133.0,130.0,124.0,125.0,127.0,128.0,127.0,19.0,-96.0,-88.0,127.0,127.0,127.0,99.0,84.0,-76.0
148.0,135.0,130.0,124.0,125.0,127.0,127.0,127.0,19.0,-96.0,-88.0,127.0,127.0,127.0,99.0,84.0,-76.0
148.0,137.0,130.0,124.0,125.0,127.0,127.0,128.0,19.0,-96.0,-88.0,127.0,127.0,127.0,99.0,84.0,-76.0
148.0,137.0,129.0,124.0,126.0,126.0,125.0,128.0,19.0,-96.0,-88.0,127.0,127.0,127.0,99.0,84.0,-76.0
148.0,136.0,129.0,124.0,126.0,127.0,124.0,128.0,19.0,-96.0,-88.0,127.0,127.0,127.0,99.0,84.0,-76.0
148.0,133.0,128.0,124.0,126.0,127.0,124.0,128.0,19.0,-96.0,-88.0,127.0,127.0,127.0,99.0,84.0,-76.0
148.0,130.0,128.0,124.0,126.0,127.0,123.0,128.0,19.0,-96.0,-88.0,127.0,127.0,127.0,99.0,84.0,-76.0
148.0,128.0,129.0,123.0,125.0,127.0,123.0,128.0,19.0,-96.0,-88.0,127.0,127.0,127.0,99.0,84.0,-76.0
147.0,127.0,128.0,123.0,125.0,127.0,122.0,128.0,19.0,-96.0,-88.0,127.0,127.0,127.0,99.0,84.0,-76.0
147.0,126.0,128.0,123.0,125.0,126.0,122.0,128.0,19.0,-96.0,-88.0,127.0,127.0,127.0,99.0,84.0,-76.0
142.0,128.0,128.0,124.0,128.0,127.0,125.0,128.0,18.0,-96.0,-88.0,127.0,127.0,127.0,99.0,84.0,-76.0
142.0,128.0,128.0,124.0,128.0,127.0,125.0,128.0,18.0,-96.0,-88.0,127.0,127.0,127.0,99.0,84.0,-76.0
142.0,129.0,128.0,124.0,128.0,127.0,125.0,128.0,18.0,-96.0,-88.0,127.0,127.0,127.0,99.0,84.0,-76.0
142.0,130.0,128.0,124.0,128.0,127.0,125.0,128.0,18.0,-96.0,-88.0,127.0,127.0,127.0,99.0,84.0,-76.0
142.0,130.0,128.0,124.0,128.0,127.0,125.0,128.0,18.0,-96.0,-88.0,127.0,127.0,127.0,99.0,84.0,-76.0
142.0,131.0,128.0,124.0,128.0,127.0,126.0,128.0,18.0,-96.0,-88.0,127.0,127.0,127.0,99.0,84.0,-76.0
142.0,130.0,128.0,124.0,128.0,127.0,125.0,127.0,18.0,-96.0,-88.0,127.0,127.0,127.0,99.0,84.0,-76.0
142.0,129.0,128.0,124.0,128.0,127.0,125.0,127.0,18.0,-96.0,-88.0,127.0,127.0,127.0,99.0,84.0,-76.0
141.0,128.0,128.0,124.0,127.0,127.0,125.0,127.0,18.0,-96.0,-88.0,127.0,127.0,127.0,99.0,84.0,-76.0
142.0,128.0,128.0,124.0,128.0,127.0,125.0,128.0,18.0,-96.0,-88.0,127.0,127.0,127.0,99.0,84.0,-76.0
138.0,129.0,126.0,125.0,129.0,126.0,130.0,129.0,17.0,-96.0,-88.0,127.0,127.0,127.0,99.0,84.0,-76.0
138.0,129.0,126.0,125.0,129.0,126.0,131.0,129.0,17.0,-96.0,-88.0,127.0,127.0,127.0,99.0,84.0,-76.0
138.0,129.0,126.0,125.0,129.0,126.0,132.0,129.0,17.0,-96.0,-88.0,127.0,127.0,127.0,99.0,84.0,-76.0
138.0,129.0,126.0,126.0,130.0,126.0,133.0,129.0,17.0,-96.0,-88.0,127.0,127.0,127.0,99.0,84.0,-76.0
138.0,128.0,125.0,126.0,130.0,127.0,133.0,129.0,17.0,-96.0,-88.0,127.0,127.0,127.0,99.0,84.0,-76.0
138.0,128.0,125.0,126.0,130.0,127.0,134.0,128.0,17.0,-96.0,-88.0,127.0,127.0,127.0,99.0,84.0,-76.0
138.0,128.0,125.0,126.0,130.0,127.0,133.0,128.0,17.0,-96.0,-88.0,127.0,127.0,127.0,99.0,84.0,-76.0
138.0,128.0,125.0,126.0,130.0,127.0,133.0,128.0,17.0,-96.0,-88.0,127.0,127.0,127.0,99.0,84.0,-76.0
138.0,130.0,126.0,125.0,129.0,126.0,129.0,129.0,17.0,-96.0,-88.0,127.0,127.0,127.0,99.0,84.0,-76.0
138.0,130.0,126.0,125.0,129.0,126.0,129.0,129.0,17.0,-96.0,-88.0,127.0,127.0,127.0,99.0,84.0,-76.0
135.0,130.0,122.0,124.0,127.0,127.0,125.0,127.0,17.0,-96.0,-88.0,127.0,127.0,127.0,99.0,84.0,-76.0
135.0,130.0,122.0,124.0,127.0,127.0,125.0,127.0,17.0,-96.0,-88.0,127.0,127.0,127.0,99.0,84.0,-76.0
135.0,130.0,122.0,124.0,127.0,127.0,125.0,127.0,17.0,-96.0,-88.0,127.0,127.0,127.0,99.0,84.0,-76.0
135.0,130.0,123.0,124.0,127.0,127.0,125.0,126.0,17.0,-96.0,-88.0,127.0,127.0,127.0,99.0,84.0,-76.0
135.0,130.0,123.0,124.0,127.0,127.0,125.0,126.0,17.0,-96.0,-88.0,127.0,127.0,127.0,99.0,84.0,-76.0
135.0,130.0,123.0,124.0,127.0,127.0,125.0,126.0,17.0,-96.0,-88.0,127.0,127.0,127.0,99.0,84.0,-76.0
135.0,130.0,122.0,124.0,127.0,127.0,124.0,127.0,17.0,-96.0,-88.0,127.0,127.0,127.0,99.0,84.0,-76.0
135.0,130.0,122.0,124.0,127.0,127.0,124.0,127.0,17.0,-96.0,-88.0,127.0,127.0,127.0,99.0,84.0,-76.0
135.0,130.0,122.0,124.0,127.0,127.0,124.0,127.0,17.0,-96.0,-88.0,127.0,127.0,127.0,99.0,84.0,-76.0
135.0,130.0,122.0,124.0,127.0,127.0,125.0,127.0,17.0,-96.0,-88.0,127.0,127.0,127.0,99.0,84.0,-76.0
133.0,130.0,123.0,126.0,129.0,127.0,127.0,128.0,18.0,-96.0,-87.0,127.0,127.0,127.0,99.0,84.0,-76.0
133.0,130.0,123.0,126.0,128.0,127.0,127.0,128.0,18.0,-96.0,-87.0,127.0,127.0,127.0,99.0,84.0,-76.0
133.0,130.0,123.0,126.0,128.0,127.0,127.0,128.0,18.0,-96.0,-87.0,127.0,127.0,127.0,99.0,84.0,-76.0
133.0,130.0,122.0,126.0,128.0,127.0,127.0,128.0,18.0,-96.0,-87.0,127.0,127.0,127.0,99.0,84.0,-76.0
133.0,130.0,122.0,126.0,128.0,127.0,127.0,127.0,18.0,-96.0,-87.0,127.0,127.0,127.0,99.0,84.0,-76.0
134.0,130.0,123.0,127.0,130.0,126.0,127.0,128.0,18.0,-96.0,-87.0,127.0,127.0,127.0,99.0,84.0,-76.0
134.0,130.0,123.0,127.0,130.0,126.0,127.0,128.0,18.0,-96.0,-87.0,127.0,127.0,127.0,99.0,84.0,-76.0
134.0,130.0,123.0,126.0,130.0,126.0,127.0,128.0,18.0,-96.0,-87.0,127.0,127.0,127.0,99.0,84.0,-76.0
134.0,130.0,123.0,126.0,129.0,126.0,127.0,128.0,18.0,-96.0,-87.0,127.0,127.0,127.0,99.0,84.0,-76.0
134.0,130.0,123.0,126.0,129.0,127.0,127.0,128.0,18.0,-96.0,-87.0,127.0,127.0,127.0,99.0,84.0,-76.0
131.0,130.0,122.0,127.0,128.0,127.0,125.0,128.0,18.0,-96.0,-87.0,127.0,127.0,127.0,99.0,84.0,-76.0
131.0,130.0,122.0,127.0,128.0,127.0,125.0,128.0,18.0,-96.0,-87.0,127.0,127.0,127.0,99.0,84.0,-76.0
131.0,130.0,122.0,127.0,128.0,127.0,125.0,128.0,18.0,-96.0,-87.0,127.0,127.0,127.0,99.0,84.0,-76.0
131.0,130.0,122.0,127.0,128.0,127.0,125.0,128.0,18.0,-96.0,-87.0,127.0,127.0,127.0,99.0,84.0,-76.0
131.0,131.0,122.0,126.0,128.0,126.0,126.0,128.0,18.0,-96.0,-87.0,127.0,127.0,127.0,99.0,84.0,-76.0
131.0,131.0,122.0,126.0,128.0,126.0,126.0,128.0,18.0,-96.0,-87.0,127.0,127.0,127.0,99.0,84.0,-76.0
131.0,131.0,122.0,126.0,128.0,126.0,125.0,128.0,18.0,-96.0,-87.0,127.0,127.0,127.0,99.0,84.0,-76.0
131.0,131.0,122.0,127.0,128.0,126.0,125.0,128.0,18.0,-96.0,-87.0,127.0,127.0,127.0,99.0,84.0,-76.0
131.0,131.0,122.0,127.0,128.0,127.0,125.0,128.0,18.0,-96.0,-87.0,127.0,127.0,127.0,99.0,84.0,-76.0
131.0,130.0,122.0,127.0,128.0,127.0,125.0,128.0,18.0,-96.0,-87.0,127.0,127.0,127.0,99.0,84.0,-76.0
129.0,129.0,125.0,127.0,128.0,127.0,127.0,127.0,19.0,-96.0,-87.0,127.0,127.0,127.0,99.0,84.0,-76.0
129.0,129.0,125.0,127.0,128.0,127.0,127.0,127.0,19.0,-96.0,-87.0,127.0,127.0,127.0,99.0,84.0,-76.0
129.0,129.0,125.0,127.0,128.0,127.0,128.0,127.0,19.0,-96.0,-87.0,127.0,127.0,127.0,99.0,84.0,-76.0
129.0,130.0,124.0,127.0,128.0,126.0,128.0,129.0,19.0,-96.0,-87.0,127.0,127.0,127.0,99.0,84.0,-76.0
129.0,130.0,124.0,127.0,128.0,126.0,127.0,128.0,19.0,-96.0,-87.0,127.0,127.0,127.0,99.0,84.0,-76.0
129.0,130.0,124.0,127.0,128.0,126.0,127.0,128.0,19.0,-96.0,-87.0,127.0,127.0,127.0,99.0,84.0,-76.0
129.0,130.0,124.0,127.0,128.0,126.0,126.0,128.0,19.0,-96.0,-87.0,127.0,127.0,127.0,99.0,84.0,-76.0
129.0,130.0,124.0,127.0,128.0,126.0,126.0,128.0,19.0,-96.0,-87.0,127.0,127.0,127.0,99.0,84.0,-76.0
129.0,130.0,124.0,127.0,128.0,126.0,126.0,127.0,19.0,-96.0,-87.0,127.0,127.0,127.0,99.0,84.0,-76.0
129.0,130.0,124.0,127.0,128.0,126.0,126.0,127.0,19.0,-96.0,-87.0,127.0,127.0,127.0,99.0,84.0,-76.0
123.0,127.0,129.0,125.0,129.0,127.0,129.0,127.0,19.0,-96.0,-87.0,127.0,127.0,127.0,99.0,84.0,-76.0
123.0,127.0,129.0,125.0,129.0,127.0,129.0,128.0,19.0,-96.0,-87.0,127.0,127.0,127.0,99.0,84.0,-76.0
123.0,128.0,128.0,125.0,127.0,126.0,125.0,128.0,19.0,-96.0,-87.0,127.0,127.0,127.0,99.0,84.0,-76.0
123.0,128.0,128.0,125.0,127.0,126.0,125.0,128.0,19.0,-96.0,-87.0,127.0,127.0,127.0,99.0,84.0,-76.0
123.0,128.0,128.0,125.0,127.0,126.0,126.0,128.0,19.0,-96.0,-87.0,127.0,127.0,127.0,99.0,84.0,-76.0
123.0,128.0,128.0,125.0,128.0,127.0,126.0,127.0,19.0,-96.0,-87.0,127.0,127.0,127.0,99.0,84.0,-76.0
123.0,128.0,128.0,125.0,128.0,127.0,127.0,127.0,19.0,-96.0,-87.0,127.0,127.0,127.0,99.0,84.0,-76.0
123.0,127.0,128.0,125.0,128.0,127.0,128.0,127.0,19.0,-96.0,-87.0,127.0,127.0,127.0,99.0,84.0,-76.0
123.0,127.0,129.0,125.0,128.0,127.0,128.0,127.0,19.0,-96.0,-87.0,127.0,127.0,127.0,99.0,84.0,-76.0
123.0,127.0,129.0,125.0,128.0,127.0,129.0,127.0,19.0,-96.0,-87.0,127.0,127.0,127.0,99.0,84.0,-76.0
115.0,124.0,128.0,125.0,129.0,126.0,125.0,128.0,19.0,-95.0,-87.0,127.0,127.0,127.0,99.0,84.0,-76.0
118.0,126.0,127.0,124.0,129.0,127.0,125.0,128.0,19.0,-95.0,-87.0,127.0,127.0,127.0,99.0,84.0,-76.0
118.0,126.0,126.0,125.0,129.0,127.0,125.0,128.0,19.0,-95.0,-87.0,127.0,127.0,127.0,99.0,84.0,-76.0
117.0,126.0,126.0,125.0,129.0,127.0,124.0,128.0,19.0,-95.0,-87.0,127.0,127.0,127.0,99.0,84.0,-76.0
117.0,125.0,127.0,125.0,129.0,127.0,125.0,128.0,19.0,-95.0,-87.0,127.0,127.0,127.0,99.0,84.0,-76.0
117.0,125.0,127.0,125.0,129.0,127.0,125.0,128.0,19.0,-95.0,-87.0,127.0,127.0,127.0,99.0,84.0,-76.0
116.0,124.0,127.0,125.0,129.0,127.0,125.0,128.0,19.0,-95.0,-87.0,127.0,127.0,127.0,99.0,84.0,-76.0
116.0,124.0,127.0,125.0,129.0,127.0,125.0,128.0,19.0,-95.0,-87.0,127.0,127.0,127.0,99.0,84.0,-76.0
116.0,123.0,128.0,125.0,129.0,127.0,125.0,128.0,19.0,-95.0,-87.0,127.0,127.0,127.0,99.0,84.0,-76.0
116.0,124.0,128.0,125.0,129.0,126.0,125.0,128.0,19.0,-95.0,-87.0,127.0,127.0,127.0,99.0,84.0,-76.0
114.0,122.0,125.0,125.0,128.0,127.0,127.0,129.0,19.0,-95.0,-87.0,127.0,127.0,127.0,99.0,84.0,-76.0
114.0,122.0,125.0,125.0,128.0,127.0,127.0,129.0,19.0,-95.0,-87.0,127.0,127.0,127.0,99.0,84.0,-76.0
114.0,123.0,125.0,125.0,128.0,127.0,126.0,129.0,19.0,-95.0,-87.0,127.0,127.0,127.0,99.0,84.0,-76.0
114.0,123.0,125.0,125.0,128.0,127.0,125.0,129.0,19.0,-95.0,-87.0,127.0,127.0,127.0,99.0,84.0,-76.0
114.0,123.0,124.0,125.0,128.0,127.0,125.0,128.0,19.0,-95.0,-87.0,127.0,127.0,127.0,99.0,84.0,-76.0
114.0,123.0,124.0,125.0,128.0,127.0,125.0,128.0,19.0,-95.0,-87.0,127.0,127.0,127.0,99.0,84.0,-76.0
114.0,123.0,124.0,124.0,128.0,127.0,125.0,128.0,19.0,-95.0,-87.0,127.0,127.0,127.0,99.0,84.0,-76.0
114.0,123.0,124.0,124.0,129.0,127.0,125.0,128.0,19.0,-95.0,-87.0,127.0,127.0,127.0,99.0,84.0,-76.0
114.0,124.0,123.0,124.0,129.0,127.0,125.0,128.0,19.0,-95.0,-87.0,127.0,127.0,127.0,99.0,84.0,-76.0
114.0,124.0,123.0,124.0,129.0,127.0,125.0,128.0,19.0,-95.0,-87.0,127.0,127.0,127.0,99.0,84.0,-76.0
116.0,123.0,123.0,125.0,130.0,126.0,130.0,129.0,19.0,-95.0,-87.0,127.0,127.0,127.0,99.0,84.0,-76.0
116.0,123.0,124.0,125.0,129.0,127.0,130.0,129.0,19.0,-95.0,-87.0,127.0,127.0,127.0,99.0,84.0,-76.0
116.0,123.0,124.0,125.0,129.0,126.0,130.0,128.0,19.0,-95.0,-87.0,127.0,127.0,127.0,99.0,84.0,-76.0
117.0,123.0,124.0,125.0,129.0,127.0,130.0,128.0,19.0,-95.0,-87.0,127.0,127.0,127.0,99.0,84.0,-76.0
117.0,123.0,124.0,124.0,129.0,127.0,130.0,128.0,19.0,-95.0,-87.0,127.0,127.0,127.0,99.0,84.0,-76.0
117.0,123.0,125.0,124.0,129.0,127.0,130.0,127.0,19.0,-95.0,-87.0,127.0,127.0,127.0,99.0,84.0,-76.0
117.0,123.0,125.0,124.0,128.0,127.0,130.0,127.0,19.0,-95.0,-87.0,127.0,127.0,127.0,99.0,84.0,-76.0
117.0,123.0,125.0,124.0,128.0,127.0,131.0,127.0,19.0,-95.0,-87.0,127.0,127.0,127.0,99.0,84.0,-76.0
118.0,123.0,126.0,124.0,128.0,127.0,131.0,127.0,19.0,-95.0,-87.0,127.0,127.0,127.0,99.0,84.0,-76.0
116.0,123.0,123.0,125.0,130.0,126.0,130.0,129.0,19.0,-95.0,-87.0,127.0,127.0,127.0,99.0,84.0,-76.0
123.0,122.0,125.0,124.0,128.0,126.0,119.0,128.0,18.0,-95.0,-87.0,127.0,127.0,127.0,99.0,84.0,-76.0
123.0,123.0,125.0,124.0,127.0,126.0,119.0,128.0,18.0,-95.0,-87.0,127.0,127.0,127.0,99.0,84.0,-76.0
123.0,123.0,125.0,124.0,127.0,126.0,119.0,128.0,18.0,-95.0,-87.0,127.0,127.0,127.0,99.0,84.0,-76.0
123.0,123.0,125.0,124.0,127.0,126.0,119.0,128.0,18.0,-95.0,-87.0,127.0,127.0,127.0,99.0,84.0,-76.0
123.0,122.0,125.0,124.0,127.0,126.0,119.0,128.0,18.0,-95.0,-87.0,127.0,127.0,127.0,99.0,84.0,-76.0
124.0,122.0,125.0,124.0,127.0,127.0,120.0,128.0,18.0,-95.0,-87.0,127.0,127.0,127.0,99.0,84.0,-76.0
124.0,121.0,125.0,124.0,127.0,127.0,120.0,128.0,18.0,-95.0,-87.0,127.0,127.0,127.0,99.0,84.0,-76.0
124.0,121.0,125.0,124.0,127.0,127.0,120.0,128.0,18.0,-95.0,-87.0,127.0,127.0,127.0,99.0,84.0,-76.0
123.0,122.0,125.0,124.0,128.0,126.0,120.0,129.0,18.0,-95.0,-87.0,127.0,127.0,127.0,99.0,84.0,-76.0
123.0,122.0,125.0,124.0,128.0,126.0,119.0,128.0,18.0,-95.0,-87.0,127.0,127.0,127.0,99.0,84.0,-76.0
134.0,120.0,125.0,124.0,128.0,127.0,126.0,127.0,18.0,-95.0,-87.0,127.0,127.0,127.0,99.0,84.0,-76.0
133.0,120.0,125.0,124.0,128.0,127.0,126.0,127.0,18.0,-95.0,-87.0,127.0,127.0,127.0,99.0,84.0,-76.0
133.0,120.0,125.0,124.0,128.0,127.0,126.0,127.0,18.0,-95.0,-87.0,127.0,127.0,127.0,99.0,84.0,-76.0
133.0,120.0,125.0,124.0,128.0,127.0,126.0,127.0,18.0,-95.0,-87.0,127.0,127.0,127.0,99.0,84.0,-76.0
133.0,120.0,124.0,124.0,128.0,127.0,126.0,127.0,18.0,-95.0,-87.0,127.0,127.0,127.0,99.0,84.0,-76.0
132.0,120.0,125.0,124.0,128.0,127.0,127.0,127.0,18.0,-95.0,-87.0,127.0,127.0,127.0,99.0,84.0,-76.0
132.0,120.0,125.0,124.0,128.0,127.0,127.0,127.0,18.0,-95.0,-87.0,127.0,127.0,127.0,99.0,84.0,-76.0
134.0,120.0,125.0,124.0,128.0,126.0,125.0,127.0,18.0,-95.0,-87.0,127.0,127.0,127.0,99.0,84.0,-76.0
134.0,120.0,125.0,124.0,128.0,126.0,125.0,127.0,18.0,-95.0,-87.0,127.0,127.0,127.0,99.0,84.0,-76.0
134.0,120.0,125.0,124.0,128.0,127.0,126.0,127.0,18.0,-95.0,-87.0,127.0,127.0,127.0,99.0,84.0,-76.0
124.0,124.0,123.0,126.0,128.0,127.0,127.0,128.0,18.0,-95.0,-86.0,127.0,127.0,127.0,99.0,84.0,-76.0
124.0,124.0,123.0,126.0,128.0,127.0,127.0,128.0,18.0,-95.0,-86.0,127.0,127.0,127.0,99.0,84.0,-76.0
124.0,123.0,123.0,126.0,128.0,127.0,127.0,128.0,18.0,-95.0,-86.0,127.0,127.0,127.0,99.0,84.0,-76.0
124.0,123.0,123.0,126.0,128.0,127.0,127.0,128.0,18.0,-95.0,-86.0,127.0,127.0,127.0,99.0,84.0,-76.0
124.0,123.0,123.0,126.0,128.0,127.0,127.0,128.0,18.0,-95.0,-86.0,127.0,127.0,127.0,99.0,84.0,-76.0
124.0,123.0,123.0,126.0,128.0,127.0,127.0,128.0,18.0,-95.0,-86.0,127.0,127.0,127.0,99.0,84.0,-76.0
125.0,127.0,123.0,125.0,128.0,126.0,126.0,128.0,18.0,-95.0,-86.0,127.0,127.0,127.0,99.0,84.0,-76.0
125.0,127.0,123.0,126.0,128.0,126.0,126.0,128.0,18.0,-95.0,-86.0,127.0,127.0,127.0,99.0,84.0,-76.0
125.0,126.0,123.0,126.0,128.0,126.0,126.0,128.0,18.0,-95.0,-86.0,127.0,127.0,127.0,99.0,84.0,-76.0
124.0,125.0,123.0,126.0,128.0,126.0,126.0,128.0,18.0,-95.0,-86.0,127.0,127.0,127.0,99.0,84.0,-76.0
123.0,125.0,122.0,126.0,128.0,127.0,125.0,128.0,17.0,-95.0,-86.0,127.0,127.0,127.0,99.0,84.0,-76.0
123.0,125.0,122.0,126.0,128.0,127.0,125.0,128.0,17.0,-95.0,-86.0,127.0,127.0,127.0,99.0,84.0,-76.0
123.0,125.0,122.0,126.0,128.0,127.0,125.0,128.0,17.0,-95.0,-86.0,127.0,127.0,127.0,99.0,84.0,-76.0
123.0,125.0,123.0,126.0,128.0,127.0,125.0,128.0,17.0,-95.0,-86.0,127.0,127.0,127.0,99.0,84.0,-76.0
123.0,125.0,123.0,126.0,128.0,127.0,125.0,128.0,17.0,-95.0,-86.0,127.0,127.0,127.0,99.0,84.0,-76.0
123.0,125.0,122.0,126.0,128.0,126.0,126.0,128.0,17.0,-95.0,-86.0,127.0,127.0,127.0,99.0,84.0,-76.0
123.0,125.0,122.0,126.0,128.0,126.0,126.0,128.0,17.0,-95.0,-86.0,127.0,127.0,127.0,99.0,84.0,-76.0
123.0,125.0,122.0,126.0,128.0,126.0,126.0,128.0,17.0,-95.0,-86.0,127.0,127.0,127.0,99.0,84.0,-76.0
123.0,125.0,122.0,126.0,128.0,126.0,126.0,128.0,17.0,-95.0,-86.0,127.0,127.0,127.0,99.0,84.0,-76.0
123.0,125.0,122.0,126.0,128.0,126.0,126.0,128.0,17.0,-95.0,-86.0,127.0,127.0,127.0,99.0,84.0,-76.0
122.0,126.0,125.0,127.0,130.0,126.0,130.0,129.0,17.0,-96.0,-86.0,127.0,127.0,127.0,99.0,84.0,-76.0
122.0,126.0,125.0,127.0,130.0,126.0,130.0,129.0,17.0,-96.0,-86.0,127.0,127.0,127.0,99.0,84.0,-76.0
122.0,126.0,125.0,127.0,130.0,127.0,131.0,129.0,17.0,-96.0,-86.0,127.0,127.0,127.0,99.0,84.0,-76.0
122.0,126.0,125.0,127.0,130.0,127.0,132.0,129.0,17.0,-96.0,-86.0,127.0,127.0,127.0,99.0,84.0,-76.0
122.0,126.0,125.0,126.0,129.0,126.0,129.0,128.0,17.0,-96.0,-86.0,127.0,127.0,127.0,99.0,84.0,-76.0
122.0,126.0,125.0,126.0,129.0,126.0,129.0,128.0,17.0,-96.0,-86.0,127.0,127.0,127.0,99.0,84.0,-76.0
122.0,126.0,125.0,126.0,129.0,126.0,129.0,128.0,17.0,-96.0,-86.0,127.0,127.0,127.0,99.0,84.0,-76.0
122.0,126.0,125.0,126.0,129.0,126.0,129.0,128.0,17.0,-96.0,-86.0,127.0,127.0,127.0,99.0,84.0,-76.0
122.0,126.0,125.0,126.0,129.0,126.0,130.0,129.0,17.0,-96.0,-86.0,127.0,127.0,127.0,99.0,84.0,-76.0
122.0,126.0,125.0,127.0,130.0,126.0,130.0,129.0,17.0,-96.0,-86.0,127.0,127.0,127.0,99.0,84.0,-76.0
120.0,124.0,122.0,127.0,129.0,126.0,131.0,128.0,18.0,-96.0,-86.0,127.0,127.0,127.0,99.0,84.0,-76.0
120.0,124.0,122.0,127.0,129.0,127.0,131.0,128.0,18.0,-96.0,-86.0,127.0,127.0,127.0,99.0,84.0,-76.0
120.0,124.0,122.0,127.0,129.0,126.0,130.0,128.0,18.0,-96.0,-86.0,127.0,127.0,127.0,99.0,84.0,-76.0
121.0,124.0,123.0,127.0,128.0,127.0,127.0,128.0,18.0,-96.0,-86.0,127.0,127.0,127.0,99.0,84.0,-76.0
120.0,124.0,123.0,127.0,128.0,127.0,127.0,128.0,18.0,-96.0,-86.0,127.0,127.0,127.0,99.0,84.0,-76.0
120.0,124.0,123.0,127.0,128.0,127.0,128.0,128.0,18.0,-96.0,-86.0,127.0,127.0,127.0,99.0,84.0,-76.0
120.0,125.0,122.0,127.0,129.0,126.0,128.0,128.0,18.0,-96.0,-86.0,127.0,127.0,127.0,99.0,84.0,-76.0
120.0,125.0,122.0,127.0,129.0,126.0,129.0,128.0,18.0,-96.0,-86.0,127.0,127.0,127.0,99.0,84.0,-76.0
120.0,124.0,122.0,127.0,129.0,126.0,130.0,128.0,18.0,-96.0,-86.0,127.0,127.0,127.0,99.0,84.0,-76.0
120.0,124.0,122.0,127.0,129.0,126.0,130.0,128.0,18.0,-96.0,-86.0,127.0,127.0,127.0,99.0,84.0,-76.0
117.0,123.0,125.0,127.0,128.0,127.0,126.0,128.0,19.0,-95.0,-86.0,127.0,127.0,127.0,99.0,84.0,-76.0
117.0,123.0,125.0,127.0,128.0,126.0,126.0,128.0,19.0,-95.0,-86.0,127.0,127.0,127.0,99.0,84.0,-76.0
118.0,123.0,125.0,128.0,128.0,127.0,127.0,128.0,19.0,-95.0,-86.0,127.0,127.0,127.0,99.0,84.0,-76.0
118.0,124.0,125.0,128.0,128.0,127.0,127.0,128.0,19.0,-95.0,-86.0,127.0,127.0,127.0,99.0,84.0,-76.0
118.0,124.0,125.0,128.0,128.0,127.0,127.0,128.0,19.0,-95.0,-86.0,127.0,127.0,127.0,99.0,84.0,-76.0
117.0,124.0,125.0,127.0,128.0,126.0,127.0,128.0,19.0,-95.0,-86.0,127.0,127.0,127.0,99.0,84.0,-76.0
117.0,124.0,125.0,127.0,128.0,127.0,127.0,128.0,19.0,-95.0,-86.0,127.0,127.0,127.0,99.0,84.0,-76.0
117.0,124.0,125.0,127.0,128.0,127.0,127.0,128.0,19.0,-95.0,-86.0,127.0,127.0,127.0,99.0,84.0,-76.0
117.0,124.0,125.0,127.0,128.0,127.0,127.0,128.0,19.0,-95.0,-86.0,127.0,127.0,127.0,99.0,84.0,-76.0
117.0,123.0,125.0,127.0,128.0,127.0,127.0,128.0,19.0,-95.0,-86.0,127.0,127.0,127.0,99.0,84.0,-76.0
111.0,119.0,128.0,127.0,127.0,127.0,125.0,128.0,20.0,-95.0,-86.0,127.0,127.0,127.0,99.0,84.0,-76.0
112.0,121.0,128.0,127.0,127.0,127.0,125.0,128.0,20.0,-95.0,-86.0,127.0,127.0,127.0,99.0,84.0,-76.0
111.0,121.0,128.0,127.0,127.0,127.0,125.0,128.0,20.0,-95.0,-86.0,127.0,127.0,127.0,99.0,84.0,-76.0
111.0,121.0,128.0,127.0,127.0,127.0,125.0,128.0,20.0,-95.0,-86.0,127.0,127.0,127.0,99.0,84.0,-76.0
111.0,120.0,128.0,127.0,127.0,127.0,125.0,128.0,20.0,-95.0,-86.0,127.0,127.0,127.0,99.0,84.0,-76.0
111.0,120.0,128.0,127.0,127.0,127.0,125.0,128.0,20.0,-95.0,-86.0,127.0,127.0,127.0,99.0,84.0,-76.0
111.0,120.0,128.0,127.0,127.0,127.0,125.0,128.0,20.0,-95.0,-86.0,127.0,127.0,127.0,99.0,84.0,-76.0
111.0,120.0,128.0,127.0,127.0,127.0,125.0,128.0,20.0,-95.0,-86.0,127.0,127.0,127.0,99.0,84.0,-76.0
111.0,120.0,128.0,127.0,127.0,127.0,125.0,128.0,20.0,-95.0,-86.0,127.0,127.0,127.0,99.0,84.0,-76.0
111.0,120.0,128.0,127.0,127.0,127.0,125.0,128.0,20.0,-95.0,-86.0,127.0,127.0,127.0,99.0,84.0,-76.0
113.0,118.0,128.0,126.0,126.0,127.0,126.0,128.0,20.0,-95.0,-86.0,127.0,127.0,127.0,99.0,84.0,-76.0
113.0,118.0,127.0,126.0,126.0,126.0,126.0,128.0,20.0,-95.0,-86.0,127.0,127.0,127.0,99.0,84.0,-76.0
113.0,118.0,127.0,126.0,126.0,127.0,126.0,128.0,20.0,-95.0,-86.0,127.0,127.0,127.0,99.0,84.0,-76.0
113.0,118.0,127.0,126.0,126.0,127.0,126.0,128.0,20.0,-95.0,-86.0,127.0,127.0,127.0,99.0,84.0,-76.0
113.0,118.0,127.0,126.0,126.0,127.0,126.0,128.0,20.0,-95.0,-86.0,127.0,127.0,127.0,99.0,84.0,-76.0
113.0,118.0,127.0,126.0,126.0,127.0,126.0,128.0,20.0,-95.0,-86.0,127.0,127.0,127.0,99.0,84.0,-76.0
114.0,118.0,127.0,126.0,126.0,127.0,127.0,128.0,20.0,-95.0,-86.0,127.0,127.0,127.0,99.0,84.0,-76.0
114.0,118.0,127.0,126.0,126.0,127.0,127.0,128.0,20.0,-95.0,-86.0,127.0,127.0,127.0,99.0,84.0,-76.0
114.0,118.0,127.0,126.0,127.0,127.0,127.0,128.0,20.0,-95.0,-86.0,127.0,127.0,127.0,99.0,84.0,-76.0
114.0,118.0,127.0,126.0,126.0,127.0,127.0,128.0,20.0,-95.0,-86.0,127.0,127.0,127.0,99.0,84.0,-76.0
115.0,118.0,126.0,128.0,129.0,127.0,128.0,128.0,19.0,-95.0,-86.0,127.0,127.0,127.0,99.0,84.0,-76.0
115.0,118.0,126.0,128.0,129.0,127.0,128.0,128.0,19.0,-95.0,-86.0,127.0,127.0,127.0,99.0,84.0,-76.0
115.0,118.0,127.0,128.0,129.0,127.0,128.0,128.0,19.0,-95.0,-86.0,127.0,127.0,127.0,99.0,84.0,-76.0
115.0,118.0,127.0,128.0,129.0,127.0,128.0,128.0,19.0,-95.0,-86.0,127.0,127.0,127.0,99.0,84.0,-76.0
115.0,117.0,127.0,128.0,129.0,127.0,128.0,128.0,19.0,-95.0,-86.0,127.0,127.0,127.0,99.0,84.0,-76.0
115.0,117.0,127.0,128.0,129.0,127.0,128.0,128.0,19.0,-95.0,-86.0,127.0,127.0,127.0,99.0,84.0,-76.0
115.0,117.0,127.0,128.0,129.0,127.0,128.0,128.0,19.0,-95.0,-86.0,127.0,127.0,127.0,99.0,84.0,-76.0
115.0,117.0,127.0,128.0,129.0,127.0,128.0,128.0,19.0,-95.0,-86.0,127.0,127.0,127.0,99.0,84.0,-76.0
115.0,118.0,126.0,127.0,129.0,127.0,128.0,128.0,19.0,-95.0,-86.0,127.0,127.0,127.0,99.0,84.0,-76.0
115.0,118.0,126.0,127.0,129.0,126.0,128.0,128.0,19.0,-95.0,-86.0,127.0,127.0,127.0,99.0,84.0,-76.0
115.0,111.0,127.0,136.0,131.0,126.0,130.0,129.0,18.0,-95.0,-87.0,127.0,127.0,127.0,99.0,84.0,-76.0
115.0,111.0,127.0,137.0,131.0,127.0,130.0,129.0,18.0,-95.0,-87.0,127.0,127.0,127.0,99.0,84.0,-76.0
115.0,111.0,127.0,137.0,131.0,127.0,130.0,129.0,18.0,-95.0,-87.0,127.0,127.0,127.0,99.0,84.0,-76.0
115.0,111.0,127.0,137.0,131.0,127.0,129.0,129.0,18.0,-95.0,-87.0,127.0,127.0,127.0,99.0,84.0,-76.0
115.0,110.0,127.0,137.0,131.0,127.0,129.0,128.0,18.0,-95.0,-87.0,127.0,127.0,127.0,99.0,84.0,-76.0
115.0,110.0,127.0,137.0,131.0,127.0,129.0,128.0,18.0,-95.0,-87.0,127.0,127.0,127.0,99.0,84.0,-76.0
114.0,110.0,127.0,137.0,131.0,127.0,128.0,128.0,18.0,-95.0,-87.0,127.0,127.0,127.0,99.0,84.0,-76.0
115.0,112.0,127.0,136.0,131.0,126.0,129.0,129.0,18.0,-95.0,-87.0,127.0,127.0,127.0,99.0,84.0,-76.0
115.0,112.0,127.0,136.0,131.0,127.0,130.0,129.0,18.0,-95.0,-87.0,127.0,127.0,127.0,99.0,84.0,-76.0
115.0,111.0,127.0,136.0,131.0,126.0,130.0,129.0,18.0,-95.0,-87.0,127.0,127.0,127.0,99.0,84.0,-76.0
110.0,91.0,125.0,140.0,130.0,126.0,122.0,127.0,18.0,-95.0,-86.0,126.0,127.0,127.0,99.0,84.0,-76.0
110.0,90.0,125.0,140.0,130.0,126.0,122.0,127.0,18.0,-95.0,-86.0,126.0,127.0,127.0,99.0,84.0,-76.0
110.0,90.0,125.0,140.0,129.0,126.0,122.0,127.0,18.0,-95.0,-86.0,126.0,127.0,127.0,99.0,84.0,-76.0
110.0,90.0,125.0,140.0,129.0,127.0,122.0,127.0,18.0,-95.0,-86.0,126.0,127.0,127.0,99.0,84.0,-76.0
110.0,90.0,125.0,140.0,129.0,127.0,122.0,127.0,18.0,-95.0,-86.0,126.0,127.0,127.0,99.0,84.0,-76.0
110.0,90.0,125.0,140.0,129.0,127.0,122.0,127.0,18.0,-95.0,-86.0,126.0,127.0,127.0,99.0,84.0,-76.0
111.0,91.0,126.0,140.0,129.0,126.0,123.0,127.0,18.0,-95.0,-86.0,126.0,127.0,127.0,99.0,84.0,-76.0
111.0,91.0,126.0,140.0,129.0,126.0,122.0,127.0,18.0,-95.0,-86.0,126.0,127.0,127.0,99.0,84.0,-76.0
111.0,91.0,126.0,140.0,129.0,126.0,123.0,127.0,18.0,-95.0,-86.0,126.0,127.0,127.0,99.0,84.0,-76.0
110.0,91.0,125.0,140.0,130.0,126.0,122.0,127.0,18.0,-95.0,-86.0,126.0,127.0,127.0,99.0,84.0,-76.0
109.0,97.0,124.0,134.0,125.0,127.0,120.0,127.0,18.0,-95.0,-86.0,126.0,127.0,127.0,99.0,84.0,-76.0
109.0,97.0,124.0,134.0,125.0,126.0,120.0,127.0,18.0,-95.0,-86.0,126.0,127.0,127.0,99.0,84.0,-76.0
109.0,97.0,124.0,134.0,125.0,127.0,120.0,127.0,18.0,-95.0,-86.0,126.0,127.0,127.0,99.0,84.0,-76.0
110.0,98.0,125.0,134.0,125.0,127.0,120.0,127.0,18.0,-95.0,-86.0,126.0,127.0,127.0,99.0,84.0,-76.0
110.0,98.0,125.0,134.0,125.0,127.0,120.0,127.0,18.0,-95.0,-86.0,126.0,127.0,127.0,99.0,84.0,-76.0
108.0,96.0,124.0,134.0,125.0,126.0,119.0,127.0,18.0,-95.0,-86.0,126.0,127.0,127.0,99.0,84.0,-76.0
109.0,96.0,124.0,134.0,125.0,126.0,119.0,127.0,18.0,-95.0,-86.0,126.0,127.0,127.0,99.0,84.0,-76.0
109.0,96.0,124.0,134.0,125.0,126.0,120.0,127.0,18.0,-95.0,-86.0,126.0,127.0,127.0,99.0,84.0,-76.0
109.0,97.0,124.0,134.0,125.0,126.0,120.0,127.0,18.0,-95.0,-86.0,126.0,127.0,127.0,99.0,84.0,-76.0
109.0,97.0,124.0,134.0,125.0,126.0,120.0,127.0,18.0,-95.0,-86.0,126.0,127.0,127.0,99.0,84.0,-76.0
118.0,109.0,127.0,133.0,125.0,127.0,125.0,128.0,18.0,-95.0,-86.0,126.0,127.0,127.0,99.0,84.0,-76.0
118.0,109.0,127.0,133.0,125.0,127.0,126.0,128.0,18.0,-95.0,-86.0,126.0,127.0,127.0,99.0,84.0,-76.0
118.0,110.0,127.0,133.0,125.0,127.0,125.0,128.0,18.0,-95.0,-86.0,126.0,127.0,127.0,99.0,84.0,-76.0
118.0,110.0,127.0,133.0,125.0,127.0,126.0,128.0,18.0,-95.0,-86.0,126.0,127.0,127.0,99.0,84.0,-76.0
117.0,108.0,127.0,133.0,125.0,127.0,125.0,128.0,18.0,-95.0,-86.0,126.0,127.0,127.0,99.0,84.0,-76.0
117.0,108.0,127.0,133.0,125.0,127.0,125.0,128.0,18.0,-95.0,-86.0,126.0,127.0,127.0,99.0,84.0,-76.0
117.0,108.0,127.0,133.0,125.0,127.0,125.0,128.0,18.0,-95.0,-86.0,126.0,127.0,127.0,99.0,84.0,-76.0
117.0,109.0,127.0,133.0,125.0,127.0,125.0,128.0,18.0,-95.0,-86.0,126.0,127.0,127.0,99.0,84.0,-76.0
117.0,109.0,127.0,133.0,125.0,127.0,125.0,128.0,18.0,-95.0,-86.0,126.0,127.0,127.0,99.0,84.0,-76.0
117.0,109.0,127.0,133.0,125.0,127.0,125.0,128.0,18.0,-95.0,-86.0,126.0,127.0,127.0,99.0,84.0,-76.0
119.0,113.0,124.0,132.0,127.0,127.0,132.0,128.0,18.0,-96.0,-86.0,126.0,127.0,127.0,100.0,84.0,-76.0
119.0,113.0,123.0,132.0,127.0,127.0,132.0,128.0,18.0,-96.0,-86.0,126.0,127.0,127.0,100.0,84.0,-76.0
119.0,113.0,123.0,132.0,127.0,127.0,132.0,128.0,18.0,-96.0,-86.0,126.0,127.0,127.0,100.0,84.0,-76.0
119.0,112.0,126.0,132.0,126.0,127.0,131.0,128.0,18.0,-96.0,-86.0,126.0,127.0,127.0,100.0,84.0,-76.0
119.0,112.0,126.0,132.0,126.0,127.0,131.0,128.0,18.0,-96.0,-86.0,126.0,127.0,127.0,100.0,84.0,-76.0
119.0,112.0,125.0,132.0,127.0,127.0,131.0,128.0,18.0,-96.0,-86.0,126.0,127.0,127.0,100.0,84.0,-76.0
119.0,113.0,125.0,132.0,127.0,127.0,131.0,128.0,18.0,-96.0,-86.0,126.0,127.0,127.0,100.0,84.0,-76.0
119.0,113.0,124.0,132.0,127.0,127.0,131.0,128.0,18.0,-96.0,-86.0,126.0,127.0,127.0,100.0,84.0,-76.0
119.0,113.0,124.0,132.0,127.0,127.0,131.0,128.0,18.0,-96.0,-86.0,126.0,127.0,127.0,100.0,84.0,-76.0
119.0,113.0,124.0,132.0,127.0,127.0,131.0,128.0,18.0,-96.0,-86.0,126.0,127.0,127.0,100.0,84.0,-76.0
119.0,113.0,122.0,136.0,129.0,126.0,136.0,128.0,19.0,-98.0,-85.0,126.0,127.0,127.0,101.0,84.0,-76.0
119.0,113.0,122.0,136.0,129.0,126.0,136.0,128.0,19.0,-98.0,-85.0,126.0,127.0,127.0,101.0,84.0,-76.0
119.0,113.0,123.0,135.0,129.0,127.0,135.0,128.0,19.0,-98.0,-85.0,126.0,127.0,127.0,101.0,84.0,-76.0
119.0,113.0,122.0,135.0,129.0,127.0,135.0,128.0,19.0,-98.0,-85.0,126.0,127.0,127.0,101.0,84.0,-76.0
119.0,113.0,122.0,135.0,129.0,127.0,135.0,128.0,19.0,-98.0,-85.0,126.0,127.0,127.0,101.0,84.0,-76.0
119.0,113.0,122.0,135.0,129.0,127.0,135.0,128.0,19.0,-98.0,-85.0,126.0,127.0,127.0,101.0,84.0,-76.0
119.0,113.0,122.0,135.0,129.0,127.0,136.0,128.0,19.0,-98.0,-85.0,126.0,127.0,127.0,101.0,84.0,-76.0
119.0,113.0,122.0,135.0,129.0,127.0,136.0,128.0,19.0,-98.0,-85.0,126.0,127.0,127.0,101.0,84.0,-76.0
119.0,113.0,122.0,135.0,129.0,127.0,136.0,128.0,19.0,-98.0,-85.0,126.0,127.0,127.0,101.0,84.0,-76.0
119.0,113.0,122.0,136.0,129.0,127.0,136.0,128.0,19.0,-98.0,-85.0,126.0,127.0,127.0,101.0,84.0,-76.0
114.0,112.0,120.0,138.0,131.0,126.0,131.0,128.0,19.0,-98.0,-85.0,126.0,127.0,127.0,101.0,84.0,-76.0
115.0,112.0,121.0,138.0,131.0,127.0,133.0,128.0,19.0,-98.0,-85.0,126.0,127.0,127.0,101.0,84.0,-76.0
115.0,112.0,120.0,138.0,131.0,127.0,133.0,128.0,19.0,-98.0,-85.0,126.0,127.0,127.0,101.0,84.0,-76.0
115.0,112.0,120.0,138.0,132.0,126.0,132.0,128.0,19.0,-98.0,-85.0,126.0,127.0,127.0,101.0,84.0,-76.0
114.0,112.0,120.0,138.0,132.0,126.0,132.0,128.0,19.0,-98.0,-85.0,126.0,127.0,127.0,101.0,84.0,-76.0
114.0,112.0,120.0,138.0,131.0,127.0,132.0,128.0,19.0,-98.0,-85.0,126.0,127.0,127.0,101.0,84.0,-76.0
114.0,112.0,120.0,138.0,131.0,127.0,132.0,128.0,19.0,-98.0,-85.0,126.0,127.0,127.0,101.0,84.0,-76.0
114.0,112.0,120.0,138.0,131.0,126.0,132.0,128.0,19.0,-98.0,-85.0,126.0,127.0,127.0,101.0,84.0,-76.0
114.0,112.0,120.0,138.0,131.0,126.0,131.0,128.0,19.0,-98.0,-85.0,126.0,127.0,127.0,101.0,84.0,-76.0
114.0,112.0,120.0,138.0,131.0,126.0,131.0,128.0,19.0,-98.0,-85.0,126.0,127.0,127.0,101.0,84.0,-76.0
109.0,108.0,119.0,136.0,129.0,127.0,124.0,127.0,20.0,-97.0,-85.0,126.0,127.0,127.0,101.0,84.0,-76.0
109.0,108.0,119.0,136.0,128.0,127.0,123.0,127.0,20.0,-97.0,-85.0,126.0,127.0,127.0,101.0,84.0,-76.0
109.0,108.0,119.0,136.0,128.0,127.0,123.0,127.0,20.0,-97.0,-85.0,126.0,127.0,127.0,101.0,84.0,-76.0
109.0,108.0,118.0,136.0,128.0,127.0,123.0,127.0,20.0,-97.0,-85.0,126.0,127.0,127.0,101.0,84.0,-76.0
109.0,108.0,118.0,135.0,128.0,127.0,123.0,127.0,20.0,-97.0,-85.0,126.0,127.0,127.0,101.0,84.0,-76.0
109.0,108.0,118.0,135.0,128.0,127.0,123.0,127.0,20.0,-97.0,-85.0,126.0,127.0,127.0,101.0,84.0,-76.0
109.0,108.0,118.0,135.0,128.0,127.0,123.0,127.0,20.0,-97.0,-85.0,126.0,127.0,127.0,101.0,84.0,-76.0
108.0,108.0,118.0,135.0,128.0,127.0,123.0,127.0,20.0,-97.0,-85.0,126.0,127.0,127.0,101.0,84.0,-76.0
108.0,108.0,117.0,135.0,128.0,126.0,122.0,127.0,20.0,-97.0,-85.0,126.0,127.0,127.0,101.0,84.0,-76.0
108.0,108.0,117.0,135.0,128.0,127.0,122.0,127.0,20.0,-97.0,-85.0,126.0,127.0,127.0,101.0,84.0,-76.0
109.0,107.0,119.0,132.0,125.0,127.0,119.0,127.0,21.0,-96.0,-85.0,125.0,127.0,127.0,101.0,84.0,-76.0
109.0,108.0,119.0,132.0,125.0,127.0,119.0,127.0,21.0,-96.0,-85.0,125.0,127.0,127.0,101.0,84.0,-76.0
109.0,108.0,119.0,132.0,125.0,127.0,119.0,127.0,21.0,-96.0,-85.0,125.0,127.0,127.0,101.0,84.0,-76.0
110.0,108.0,120.0,132.0,125.0,127.0,119.0,127.0,21.0,-96.0,-85.0,125.0,127.0,127.0,101.0,84.0,-76.0
110.0,108.0,120.0,132.0,125.0,127.0,119.0,127.0,21.0,-96.0,-85.0,125.0,127.0,127.0,101.0,84.0,-76.0
110.0,108.0,120.0,132.0,125.0,127.0,119.0,127.0,21.0,-96.0,-85.0,125.0,127.0,127.0,101.0,84.0,-76.0
110.0,108.0,120.0,132.0,125.0,127.0,119.0,127.0,21.0,-96.0,-85.0,125.0,127.0,127.0,101.0,84.0,-76.0
110.0,109.0,121.0,132.0,125.0,126.0,119.0,127.0,21.0,-96.0,-85.0,125.0,127.0,127.0,101.0,84.0,-76.0
110.0,109.0,121.0,132.0,125.0,126.0,119.0,127.0,21.0,-96.0,-85.0,125.0,127.0,127.0,101.0,84.0,-76.0
109.0,107.0,119.0,132.0,125.0,127.0,119.0,127.0,21.0,-96.0,-85.0,125.0,127.0,127.0,101.0,84.0,-76.0
121.0,114.0,132.0,130.0,125.0,127.0,121.0,128.0,22.0,-96.0,-84.0,125.0,127.0,127.0,101.0,84.0,-76.0
121.0,114.0,132.0,130.0,125.0,127.0,121.0,128.0,22.0,-96.0,-84.0,125.0,127.0,127.0,101.0,84.0,-76.0
121.0,114.0,132.0,130.0,125.0,127.0,122.0,128.0,22.0,-96.0,-84.0,125.0,127.0,127.0,101.0,84.0,-76.0
122.0,115.0,132.0,130.0,125.0,127.0,122.0,128.0,22.0,-96.0,-84.0,125.0,127.0,127.0,101.0,84.0,-76.0
122.0,115.0,132.0,130.0,125.0,127.0,122.0,128.0,22.0,-96.0,-84.0,125.0,127.0,127.0,101.0,84.0,-76.0
122.0,115.0,132.0,130.0,125.0,127.0,122.0,128.0,22.0,-96.0,-84.0,125.0,127.0,127.0,101.0,84.0,-76.0
123.0,115.0,132.0,130.0,125.0,126.0,122.0,128.0,22.0,-96.0,-84.0,125.0,127.0,127.0,101.0,84.0,-76.0
123.0,115.0,133.0,130.0,125.0,126.0,122.0,128.0,22.0,-96.0,-84.0,125.0,127.0,127.0,101.0,84.0,-76.0
120.0,113.0,132.0,130.0,125.0,127.0,121.0,128.0,22.0,-96.0,-84.0,125.0,127.0,127.0,101.0,84.0,-76.0
120.0,114.0,132.0,130.0,125.0,127.0,122.0,128.0,22.0,-96.0,-84.0,125.0,127.0,127.0,101.0,84.0,-76.0
128.0,118.0,136.0,130.0,126.0,126.0,129.0,128.0,21.0,-97.0,-83.0,125.0,127.0,127.0,101.0,84.0,-76.0
128.0,118.0,136.0,130.0,126.0,126.0,129.0,128.0,21.0,-97.0,-83.0,125.0,127.0,127.0,101.0,84.0,-76.0
128.0,118.0,136.0,130.0,126.0,127.0,129.0,128.0,21.0,-97.0,-83.0,125.0,127.0,127.0,101.0,84.0,-76.0
128.0,118.0,136.0,130.0,126.0,127.0,129.0,128.0,21.0,-97.0,-83.0,125.0,127.0,127.0,101.0,84.0,-76.0
128.0,118.0,136.0,130.0,126.0,127.0,129.0,128.0,21.0,-97.0,-83.0,125.0,127.0,127.0,101.0,84.0,-76.0
128.0,118.0,136.0,130.0,126.0,126.0,129.0,128.0,21.0,-97.0,-83.0,125.0,127.0,127.0,101.0,84.0,-76.0
128.0,118.0,135.0,130.0,127.0,126.0,129.0,128.0,21.0,-97.0,-83.0,125.0,127.0,127.0,101.0,84.0,-76.0
128.0,117.0,136.0,130.0,126.0,127.0,128.0,128.0,21.0,-97.0,-83.0,125.0,127.0,127.0,101.0,84.0,-76.0
128.0,118.0,136.0,130.0,126.0,127.0,129.0,128.0,21.0,-97.0,-83.0,125.0,127.0,127.0,101.0,84.0,-76.0
128.0,118.0,136.0,130.0,126.0,126.0,128.0,128.0,21.0,-97.0,-83.0,125.0,127.0,127.0,101.0,84.0,-76.0
127.0,114.0,138.0,128.0,127.0,127.0,127.0,128.0,21.0,-99.0,-82.0,125.0,127.0,127.0,102.0,84.0,-76.0
128.0,114.0,138.0,128.0,127.0,127.0,127.0,128.0,21.0,-99.0,-82.0,125.0,127.0,127.0,102.0,84.0,-76.0
128.0,114.0,138.0,128.0,127.0,127.0,127.0,128.0,21.0,-99.0,-82.0,125.0,127.0,127.0,102.0,84.0,-76.0
128.0,114.0,138.0,128.0,127.0,127.0,127.0,128.0,21.0,-99.0,-82.0,125.0,127.0,127.0,102.0,84.0,-76.0
128.0,114.0,138.0,128.0,127.0,127.0,127.0,128.0,21.0,-99.0,-82.0,125.0,127.0,127.0,102.0,84.0,-76.0
127.0,115.0,138.0,128.0,127.0,127.0,127.0,128.0,21.0,-99.0,-82.0,125.0,127.0,127.0,102.0,84.0,-76.0
127.0,115.0,138.0,128.0,127.0,127.0,127.0,128.0,21.0,-99.0,-82.0,125.0,127.0,127.0,102.0,84.0,-76.0
127.0,115.0,138.0,128.0,127.0,127.0,127.0,128.0,21.0,-99.0,-82.0,125.0,127.0,127.0,102.0,84.0,-76.0
127.0,115.0,138.0,128.0,127.0,127.0,127.0,128.0,21.0,-99.0,-82.0,125.0,127.0,127.0,102.0,84.0,-76.0
128.0,114.0,138.0,128.0,127.0,127.0,127.0,128.0,21.0,-99.0,-82.0,125.0,127.0,127.0,102.0,84.0,-76.0
126.0,114.0,133.0,129.0,127.0,127.0,124.0,128.0,21.0,-100.0,-82.0,126.0,127.0,127.0,103.0,84.0,-76.0
126.0,114.0,133.0,129.0,127.0,126.0,124.0,128.0,21.0,-100.0,-82.0,126.0,127.0,127.0,103.0,84.0,-76.0
126.0,114.0,133.0,129.0,127.0,127.0,124.0,128.0,21.0,-100.0,-82.0,126.0,127.0,127.0,103.0,84.0,-76.0
126.0,114.0,133.0,129.0,127.0,127.0,124.0,128.0,21.0,-100.0,-82.0,126.0,127.0,127.0,103.0,84.0,-76.0
127.0,113.0,135.0,128.0,126.0,127.0,124.0,128.0,21.0,-100.0,-82.0,126.0,127.0,127.0,103.0,84.0,-76.0
126.0,114.0,134.0,128.0,127.0,127.0,124.0,128.0,21.0,-100.0,-82.0,126.0,127.0,127.0,103.0,84.0,-76.0
126.0,114.0,134.0,128.0,127.0,127.0,124.0,128.0,21.0,-100.0,-82.0,126.0,127.0,127.0,103.0,84.0,-76.0
126.0,113.0,134.0,129.0,127.0,127.0,124.0,128.0,21.0,-100.0,-82.0,126.0,127.0,127.0,103.0,84.0,-76.0
126.0,113.0,134.0,129.0,127.0,127.0,124.0,128.0,21.0,-100.0,-82.0,126.0,127.0,127.0,103.0,84.0,-76.0
126.0,114.0,134.0,129.0,127.0,127.0,124.0,128.0,21.0,-100.0,-82.0,126.0,127.0,127.0,103.0,84.0,-76.0
119.0,115.0,124.0,130.0,127.0,127.0,124.0,128.0,21.0,-100.0,-81.0,126.0,127.0,127.0,104.0,84.0,-76.0
119.0,115.0,124.0,130.0,127.0,127.0,124.0,128.0,21.0,-100.0,-81.0,126.0,127.0,127.0,104.0,84.0,-76.0
119.0,115.0,123.0,130.0,127.0,127.0,124.0,128.0,21.0,-100.0,-81.0,126.0,127.0,127.0,104.0,84.0,-76.0
120.0,114.0,126.0,130.0,127.0,127.0,124.0,128.0,21.0,-100.0,-81.0,126.0,127.0,127.0,104.0,84.0,-76.0
120.0,115.0,125.0,131.0,127.0,127.0,124.0,128.0,21.0,-100.0,-81.0,126.0,127.0,127.0,104.0,84.0,-76.0
120.0,115.0,125.0,131.0,127.0,127.0,124.0,128.0,21.0,-100.0,-81.0,126.0,127.0,127.0,104.0,84.0,-76.0
120.0,115.0,125.0,131.0,127.0,127.0,124.0,128.0,21.0,-100.0,-81.0,126.0,127.0,127.0,104.0,84.0,-76.0
120.0,115.0,125.0,131.0,127.0,127.0,124.0,128.0,21.0,-100.0,-81.0,126.0,127.0,127.0,104.0,84.0,-76.0
120.0,115.0,125.0,131.0,127.0,127.0,124.0,128.0,21.0,-100.0,-81.0,126.0,127.0,127.0,104.0,84.0,-76.0
119.0,115.0,124.0,131.0,127.0,127.0,124.0,128.0,21.0,-100.0,-81.0,126.0,127.0,127.0,104.0,84.0,-76.0
115.0,117.0,120.0,131.0,127.0,127.0,125.0,128.0,22.0,-99.0,-80.0,126.0,127.0,127.0,104.0,84.0,-76.0
115.0,117.0,120.0,131.0,127.0,127.0,125.0,128.0,22.0,-99.0,-80.0,126.0,127.0,127.0,104.0,84.0,-76.0
115.0,116.0,121.0,130.0,126.0,127.0,124.0,127.0,22.0,-99.0,-80.0,126.0,127.0,127.0,104.0,84.0,-76.0
115.0,116.0,121.0,130.0,127.0,127.0,124.0,128.0,22.0,-99.0,-80.0,126.0,127.0,127.0,104.0,84.0,-76.0
115.0,116.0,121.0,130.0,127.0,127.0,124.0,128.0,22.0,-99.0,-80.0,126.0,127.0,127.0,104.0,84.0,-76.0
115.0,117.0,121.0,131.0,127.0,127.0,124.0,127.0,22.0,-99.0,-80.0,126.0,127.0,127.0,104.0,84.0,-76.0
115.0,117.0,121.0,131.0,127.0,127.0,125.0,128.0,22.0,-99.0,-80.0,126.0,127.0,127.0,104.0,84.0,-76.0
115.0,117.0,121.0,131.0,127.0,127.0,125.0,128.0,22.0,-99.0,-80.0,126.0,127.0,127.0,104.0,84.0,-76.0
115.0,117.0,121.0,131.0,127.0,127.0,125.0,128.0,22.0,-99.0,-80.0,126.0,127.0,127.0,104.0,84.0,-76.0
115.0,117.0,120.0,131.0,127.0,127.0,124.0,128.0,22.0,-99.0,-80.0,126.0,127.0,127.0,104.0,84.0,-76.0
116.0,120.0,120.0,131.0,128.0,127.0,128.0,128.0,22.0,-99.0,-80.0,125.0,127.0,127.0,104.0,84.0,-76.0
115.0,119.0,121.0,131.0,128.0,127.0,127.0,127.0,22.0,-99.0,-80.0,125.0,127.0,127.0,104.0,84.0,-76.0
115.0,119.0,120.0,131.0,128.0,127.0,127.0,128.0,22.0,-99.0,-80.0,125.0,127.0,127.0,104.0,84.0,-76.0
115.0,119.0,120.0,131.0,128.0,127.0,127.0,128.0,22.0,-99.0,-80.0,125.0,127.0,127.0,104.0,84.0,-76.0
116.0,120.0,120.0,131.0,128.0,127.0,127.0,128.0,22.0,-99.0,-80.0,125.0,127.0,127.0,104.0,84.0,-76.0
116.0,120.0,120.0,131.0,128.0,127.0,128.0,128.0,22.0,-99.0,-80.0,125.0,127.0,127.0,104.0,84.0,-76.0
116.0,120.0,120.0,131.0,128.0,127.0,128.0,128.0,22.0,-99.0,-80.0,125.0,127.0,127.0,104.0,84.0,-76.0
116.0,120.0,120.0,131.0,128.0,127.0,128.0,128.0,22.0,-99.0,-80.0,125.0,127.0,127.0,104.0,84.0,-76.0
116.0,120.0,120.0,131.0,128.0,126.0,127.0,128.0,22.0,-99.0,-80.0,125.0,127.0,127.0,104.0,84.0,-76.0
116.0,120.0,120.0,131.0,128.0,126.0,128.0,128.0,22.0,-99.0,-80.0,125.0,127.0,127.0,104.0,84.0,-76.0
118.0,121.0,122.0,131.0,128.0,127.0,128.0,128.0,22.0,-99.0,-80.0,126.0,127.0,127.0,104.0,84.0,-76.0
118.0,121.0,121.0,131.0,128.0,127.0,128.0,128.0,22.0,-99.0,-80.0,126.0,127.0,127.0,104.0,84.0,-76.0
118.0,121.0,121.0,131.0,128.0,126.0,128.0,128.0,22.0,-99.0,-80.0,126.0,127.0,127.0,104.0,84.0,-76.0
118.0,121.0,121.0,131.0,128.0,127.0,128.0,128.0,22.0,-99.0,-80.0,126.0,127.0,127.0,104.0,84.0,-76.0
118.0,121.0,121.0,131.0,128.0,127.0,128.0,128.0,22.0,-99.0,-80.0,126.0,127.0,127.0,104.0,84.0,-76.0
118.0,121.0,121.0,131.0,128.0,127.0,128.0,128.0,22.0,-99.0,-80.0,126.0,127.0,127.0,104.0,84.0,-76.0
118.0,121.0,121.0,131.0,128.0,127.0,128.0,128.0,22.0,-99.0,-80.0,126.0,127.0,127.0,104.0,84.0,-76.0
118.0,121.0,121.0,131.0,128.0,126.0,128.0,128.0,22.0,-99.0,-80.0,126.0,127.0,127.0,104.0,84.0,-76.0
118.0,121.0,121.0,131.0,128.0,126.0,128.0,128.0,22.0,-99.0,-80.0,126.0,127.0,127.0,104.0,84.0,-76.0
118.0,121.0,121.0,131.0,128.0,126.0,128.0,128.0,22.0,-99.0,-80.0,126.0,127.0,127.0,104.0,84.0,-76.0
118.0,121.0,124.0,131.0,128.0,127.0,128.0,128.0,23.0,-100.0,-79.0,126.0,127.0,127.0,105.0,84.0,-76.0
118.0,121.0,124.0,131.0,128.0,127.0,128.0,128.0,23.0,-100.0,-79.0,126.0,127.0,127.0,105.0,84.0,-76.0
118.0,121.0,124.0,131.0,128.0,127.0,128.0,128.0,23.0,-100.0,-79.0,126.0,127.0,127.0,105.0,84.0,-76.0
118.0,121.0,125.0,131.0,128.0,127.0,128.0,128.0,23.0,-100.0,-79.0,126.0,127.0,127.0,105.0,84.0,-76.0
118.0,121.0,125.0,131.0,128.0,127.0,128.0,128.0,23.0,-100.0,-79.0,126.0,127.0,127.0,105.0,84.0,-76.0
118.0,121.0,125.0,131.0,128.0,127.0,128.0,128.0,23.0,-100.0,-79.0,126.0,127.0,127.0,105.0,84.0,-76.0
118.0,121.0,124.0,131.0,128.0,126.0,128.0,128.0,23.0,-100.0,-79.0,126.0,127.0,127.0,105.0,84.0,-76.0
118.0,122.0,124.0,131.0,128.0,127.0,128.0,128.0,23.0,-100.0,-79.0,126.0,127.0,127.0,105.0,84.0,-76.0
118.0,122.0,125.0,131.0,128.0,126.0,128.0,128.0,23.0,-100.0,-79.0,126.0,127.0,127.0,105.0,84.0,-76.0
118.0,121.0,125.0,131.0,128.0,127.0,128.0,128.0,23.0,-100.0,-79.0,126.0,127.0,127.0,105.0,84.0,-76.0
117.0,121.0,126.0,130.0,127.0,127.0,127.0,128.0,23.0,-100.0,-79.0,126.0,127.0,127.0,105.0,84.0,-76.0
117.0,121.0,126.0,130.0,127.0,127.0,127.0,128.0,23.0,-100.0,-79.0,126.0,127.0,127.0,105.0,84.0,-76.0
117.0,121.0,126.0,130.0,127.0,127.0,127.0,128.0,23.0,-100.0,-79.0,126.0,127.0,127.0,105.0,84.0,-76.0
117.0,121.0,125.0,130.0,127.0,127.0,127.0,128.0,23.0,-100.0,-79.0,126.0,127.0,127.0,105.0,84.0,-76.0
117.0,121.0,125.0,130.0,127.0,127.0,127.0,128.0,23.0,-100.0,-79.0,126.0,127.0,127.0,105.0,84.0,-76.0
117.0,121.0,125.0,130.0,127.0,126.0,127.0,128.0,23.0,-100.0,-79.0,126.0,127.0,127.0,105.0,84.0,-76.0
117.0,121.0,125.0,130.0,127.0,126.0,127.0,128.0,23.0,-100.0,-79.0,126.0,127.0,127.0,105.0,84.0,-76.0
117.0,121.0,125.0,130.0,127.0,126.0,127.0,128.0,23.0,-100.0,-79.0,126.0,127.0,127.0,105.0,84.0,-76.0
117.0,120.0,126.0,130.0,127.0,127.0,127.0,128.0,23.0,-100.0,-79.0,126.0,127.0,127.0,105.0,84.0,-76.0
117.0,121.0,126.0,130.0,127.0,127.0,127.0,128.0,23.0,-100.0,-79.0,126.0,127.0,127.0,105.0,84.0,-76.0
115.0,119.0,125.0,130.0,126.0,127.0,127.0,127.0,23.0,-100.0,-79.0,126.0,127.0,127.0,106.0,84.0,-76.0
115.0,119.0,125.0,130.0,126.0,127.0,127.0,128.0,23.0,-100.0,-79.0,126.0,127.0,127.0,106.0,84.0,-76.0
115.0,119.0,125.0,130.0,126.0,127.0,127.0,127.0,23.0,-100.0,-79.0,126.0,127.0,127.0,106.0,84.0,-76.0
115.0,119.0,125.0,130.0,126.0,127.0,127.0,127.0,23.0,-100.0,-79.0,126.0,127.0,127.0,106.0,84.0,-76.0
115.0,120.0,125.0,130.0,126.0,127.0,127.0,127.0,23.0,-100.0,-79.0,126.0,127.0,127.0,106.0,84.0,-76.0
115.0,119.0,125.0,130.0,126.0,127.0,127.0,127.0,23.0,-100.0,-79.0,126.0,127.0,127.0,106.0,84.0,-76.0
114.0,119.0,125.0,130.0,126.0,127.0,127.0,127.0,23.0,-100.0,-79.0,126.0,127.0,127.0,106.0,84.0,-76.0
115.0,119.0,126.0,130.0,127.0,127.0,127.0,128.0,23.0,-100.0,-79.0,126.0,127.0,127.0,106.0,84.0,-76.0
115.0,119.0,126.0,130.0,126.0,127.0,127.0,128.0,23.0,-100.0,-79.0,126.0,127.0,127.0,106.0,84.0,-76.0
115.0,119.0,125.0,130.0,126.0,127.0,127.0,127.0,23.0,-100.0,-79.0,126.0,127.0,127.0,106.0,84.0,-76.0
115.0,120.0,123.0,131.0,127.0,126.0,127.0,128.0,23.0,-100.0,-78.0,126.0,127.0,127.0,106.0,84.0,-76.0
115.0,121.0,123.0,131.0,127.0,126.0,127.0,128.0,23.0,-100.0,-78.0,126.0,127.0,127.0,106.0,84.0,-76.0
115.0,121.0,123.0,131.0,127.0,126.0,127.0,128.0,23.0,-100.0,-78.0,126.0,127.0,127.0,106.0,84.0,-76.0
115.0,121.0,123.0,131.0,127.0,126.0,127.0,128.0,23.0,-100.0,-78.0,126.0,127.0,127.0,106.0,84.0,-76.0
115.0,121.0,122.0,131.0,127.0,126.0,127.0,128.0,23.0,-100.0,-78.0,126.0,127.0,127.0,106.0,84.0,-76.0
115.0,121.0,122.0,131.0,127.0,126.0,127.0,128.0,23.0,-100.0,-78.0,126.0,127.0,127.0,106.0,84.0,-76.0
115.0,120.0,124.0,130.0,127.0,127.0,127.0,128.0,23.0,-100.0,-78.0,126.0,127.0,127.0,106.0,84.0,-76.0
115.0,120.0,124.0,130.0,127.0,127.0,127.0,128.0,23.0,-100.0,-78.0,126.0,127.0,127.0,106.0,84.0,-76.0
115.0,120.0,124.0,130.0,127.0,127.0,127.0,128.0,23.0,-100.0,-78.0,126.0,127.0,127.0,106.0,84.0,-76.0
115.0,120.0,124.0,131.0,127.0,127.0,127.0,128.0,23.0,-100.0,-78.0,126.0,127.0,127.0,106.0,84.0,-76.0
117.0,125.0,113.0,131.0,127.0,126.0,127.0,128.0,22.0,-100.0,-78.0,126.0,127.0,127.0,106.0,84.0,-76.0
117.0,125.0,113.0,131.0,127.0,126.0,127.0,128.0,22.0,-100.0,-78.0,126.0,127.0,127.0,106.0,84.0,-76.0
117.0,125.0,113.0,131.0,127.0,126.0,127.0,128.0,22.0,-100.0,-78.0,126.0,127.0,127.0,106.0,84.0,-76.0
117.0,125.0,113.0,131.0,127.0,126.0,127.0,128.0,22.0,-100.0,-78.0,126.0,127.0,127.0,106.0,84.0,-76.0
118.0,125.0,113.0,131.0,127.0,126.0,127.0,128.0,22.0,-100.0,-78.0,126.0,127.0,127.0,106.0,84.0,-76.0
117.0,124.0,114.0,131.0,127.0,127.0,127.0,128.0,22.0,-100.0,-78.0,126.0,127.0,127.0,106.0,84.0,-76.0
117.0,124.0,114.0,131.0,127.0,127.0,127.0,128.0,22.0,-100.0,-78.0,126.0,127.0,127.0,106.0,84.0,-76.0
117.0,124.0,114.0,131.0,127.0,127.0,127.0,128.0,22.0,-100.0,-78.0,126.0,127.0,127.0,106.0,84.0,-76.0
117.0,124.0,114.0,131.0,127.0,127.0,127.0,128.0,22.0,-100.0,-78.0,126.0,127.0,127.0,106.0,84.0,-76.0
117.0,124.0,113.0,131.0,127.0,126.0,127.0,128.0,22.0,-100.0,-78.0,126.0,127.0,127.0,106.0,84.0,-76.0
120.0,125.0,110.0,132.0,128.0,126.0,128.0,128.0,22.0,-101.0,-78.0,126.0,127.0,127.0,106.0,84.0,-76.0
120.0,125.0,110.0,132.0,128.0,126.0,128.0,128.0,22.0,-101.0,-78.0,126.0,127.0,127.0,106.0,84.0,-76.0
120.0,125.0,110.0,132.0,128.0,126.0,128.0,128.0,22.0,-101.0,-78.0,126.0,127.0,127.0,106.0,84.0,-76.0
120.0,125.0,113.0,132.0,128.0,126.0,128.0,128.0,22.0,-101.0,-78.0,126.0,127.0,127.0,106.0,84.0,-76.0
120.0,125.0,113.0,132.0,128.0,126.0,128.0,128.0,22.0,-101.0,-78.0,126.0,127.0,127.0,106.0,84.0,-76.0
120.0,124.0,112.0,132.0,128.0,127.0,128.0,128.0,22.0,-101.0,-78.0,126.0,127.0,127.0,106.0,84.0,-76.0
120.0,124.0,112.0,132.0,128.0,126.0,128.0,128.0,22.0,-101.0,-78.0,126.0,127.0,127.0,106.0,84.0,-76.0
120.0,124.0,112.0,132.0,128.0,126.0,128.0,128.0,22.0,-101.0,-78.0,126.0,127.0,127.0,106.0,84.0,-76.0
120.0,125.0,111.0,132.0,128.0,126.0,128.0,128.0,22.0,-101.0,-78.0,126.0,127.0,127.0,106.0,84.0,-76.0
120.0,125.0,111.0,132.0,128.0,126.0,128.0,128.0,22.0,-101.0,-78.0,126.0,127.0,127.0,106.0,84.0,-76.0
120.0,123.0,120.0,133.0,128.0,126.0,128.0,128.0,22.0,-101.0,-77.0,126.0,127.0,127.0,107.0,84.0,-76.0
120.0,123.0,120.0,133.0,128.0,126.0,128.0,128.0,22.0,-101.0,-77.0,126.0,127.0,127.0,107.0,84.0,-76.0
120.0,123.0,118.0,132.0,128.0,127.0,128.0,128.0,22.0,-101.0,-77.0,126.0,127.0,127.0,107.0,84.0,-76.0
120.0,123.0,118.0,133.0,128.0,127.0,128.0,128.0,22.0,-101.0,-77.0,126.0,127.0,127.0,107.0,84.0,-76.0
120.0,123.0,118.0,133.0,128.0,127.0,128.0,128.0,22.0,-101.0,-77.0,126.0,127.0,127.0,107.0,84.0,-76.0
120.0,123.0,119.0,133.0,128.0,127.0,128.0,128.0,22.0,-101.0,-77.0,126.0,127.0,127.0,107.0,84.0,-76.0
120.0,123.0,119.0,133.0,128.0,127.0,128.0,128.0,22.0,-101.0,-77.0,126.0,127.0,127.0,107.0,84.0,-76.0
120.0,123.0,119.0,133.0,128.0,126.0,128.0,128.0,22.0,-101.0,-77.0,126.0,127.0,127.0,107.0,84.0,-76.0
120.0,123.0,119.0,133.0,128.0,126.0,128.0,128.0,22.0,-101.0,-77.0,126.0,127.0,127.0,107.0,84.0,-76.0
120.0,123.0,119.0,133.0,128.0,126.0,128.0,128.0,22.0,-101.0,-77.0,126.0,127.0,127.0,107.0,84.0,-76.0
118.0,122.0,129.0,132.0,128.0,127.0,128.0,128.0,23.0,-101.0,-77.0,126.0,127.0,127.0,107.0,84.0,-76.0
118.0,123.0,129.0,132.0,128.0,127.0,128.0,128.0,23.0,-101.0,-77.0,126.0,127.0,127.0,107.0,84.0,-76.0
118.0,123.0,129.0,132.0,128.0,127.0,128.0,128.0,23.0,-101.0,-77.0,126.0,127.0,127.0,107.0,84.0,-76.0
118.0,123.0,129.0,132.0,128.0,127.0,128.0,128.0,23.0,-101.0,-77.0,126.0,127.0,127.0,107.0,84.0,-76.0
118.0,123.0,129.0,132.0,128.0,127.0,128.0,128.0,23.0,-101.0,-77.0,126.0,127.0,127.0,107.0,84.0,-76.0
118.0,123.0,128.0,132.0,128.0,127.0,128.0,128.0,23.0,-101.0,-77.0,126.0,127.0,127.0,107.0,84.0,-76.0
118.0,123.0,128.0,132.0,128.0,127.0,128.0,128.0,23.0,-101.0,-77.0,126.0,127.0,127.0,107.0,84.0,-76.0
118.0,122.0,128.0,132.0,128.0,127.0,128.0,128.0,23.0,-101.0,-77.0,126.0,127.0,127.0,107.0,84.0,-76.0
118.0,122.0,128.0,132.0,128.0,127.0,128.0,128.0,23.0,-101.0,-77.0,126.0,127.0,127.0,107.0,84.0,-76.0
118.0,122.0,129.0,132.0,128.0,127.0,128.0,128.0,23.0,-101.0,-77.0,126.0,127.0,127.0,107.0,84.0,-76.0
118.0,122.0,131.0,132.0,128.0,127.0,125.0,128.0,24.0,-101.0,-76.0,126.0,127.0,127.0,108.0,84.0,-76.0
118.0,122.0,131.0,132.0,128.0,127.0,125.0,128.0,24.0,-101.0,-76.0,126.0,127.0,127.0,108.0,84.0,-76.0
119.0,122.0,131.0,132.0,128.0,127.0,125.0,128.0,24.0,-101.0,-76.0,126.0,127.0,127.0,108.0,84.0,-76.0
119.0,122.0,131.0,132.0,128.0,127.0,125.0,128.0,24.0,-101.0,-76.0,126.0,127.0,127.0,108.0,84.0,-76.0
119.0,122.0,131.0,132.0,128.0,127.0,125.0,128.0,24.0,-101.0,-76.0,126.0,127.0,127.0,108.0,84.0,-76.0
118.0,122.0,131.0,132.0,128.0,126.0,125.0,128.0,24.0,-101.0,-76.0,126.0,127.0,127.0,108.0,84.0,-76.0
118.0,122.0,131.0,132.0,128.0,126.0,125.0,128.0,24.0,-101.0,-76.0,126.0,127.0,127.0,108.0,84.0,-76.0
118.0,122.0,131.0,132.0,128.0,126.0,125.0,128.0,24.0,-101.0,-76.0,126.0,127.0,127.0,108.0,84.0,-76.0
118.0,122.0,131.0,132.0,128.0,126.0,125.0,128.0,24.0,-101.0,-76.0,126.0,127.0,127.0,108.0,84.0,-76.0
118.0,122.0,131.0,132.0,128.0,126.0,125.0,128.0,24.0,-101.0,-76.0,126.0,127.0,127.0,108.0,84.0,-76.0
115.0,119.0,127.0,132.0,127.0,127.0,124.0,127.0,24.0,-102.0,-76.0,126.0,127.0,127.0,108.0,84.0,-76.0
115.0,119.0,127.0,132.0,127.0,127.0,124.0,127.0,24.0,-102.0,-76.0,126.0,127.0,127.0,108.0,84.0,-76.0
115.0,119.0,126.0,132.0,127.0,127.0,124.0,127.0,24.0,-102.0,-76.0,126.0,127.0,127.0,108.0,84.0,-76.0
115.0,119.0,126.0,132.0,127.0,127.0,124.0,127.0,24.0,-102.0,-76.0,126.0,127.0,127.0,108.0,84.0,-76.0
115.0,119.0,126.0,132.0,127.0,127.0,124.0,127.0,24.0,-102.0,-76.0,126.0,127.0,127.0,108.0,84.0,-76.0
115.0,120.0,125.0,132.0,127.0,126.0,124.0,128.0,24.0,-102.0,-76.0,126.0,127.0,127.0,108.0,84.0,-76.0
115.0,120.0,125.0,133.0,127.0,126.0,124.0,128.0,24.0,-102.0,-76.0,126.0,127.0,127.0,108.0,84.0,-76.0
115.0,120.0,125.0,133.0,127.0,126.0,124.0,128.0,24.0,-102.0,-76.0,126.0,127.0,127.0,108.0,84.0,-76.0
114.0,120.0,125.0,133.0,127.0,126.0,124.0,128.0,24.0,-102.0,-76.0,126.0,127.0,127.0,108.0,84.0,-76.0
115.0,119.0,127.0,132.0,127.0,127.0,124.0,128.0,24.0,-102.0,-76.0,126.0,127.0,127.0,108.0,84.0,-76.0
113.0,121.0,119.0,133.0,127.0,127.0,127.0,128.0,24.0,-102.0,-76.0,126.0,127.0,127.0,108.0,84.0,-76.0
113.0,121.0,119.0,133.0,127.0,127.0,127.0,128.0,24.0,-102.0,-76.0,126.0,127.0,127.0,108.0,84.0,-76.0
113.0,122.0,119.0,133.0,127.0,127.0,127.0,128.0,24.0,-102.0,-76.0,126.0,127.0,127.0,108.0,84.0,-76.0
113.0,122.0,118.0,133.0,127.0,127.0,127.0,128.0,24.0,-102.0,-76.0,126.0,127.0,127.0,108.0,84.0,-76.0
113.0,122.0,118.0,133.0,127.0,127.0,127.0,128.0,24.0,-102.0,-76.0,126.0,127.0,127.0,108.0,84.0,-76.0
113.0,122.0,118.0,133.0,127.0,127.0,127.0,128.0,24.0,-102.0,-76.0,126.0,127.0,127.0,108.0,84.0,-76.0
113.0,122.0,118.0,133.0,127.0,127.0,128.0,128.0,24.0,-102.0,-76.0,126.0,127.0,127.0,108.0,84.0,-76.0
113.0,122.0,117.0,133.0,127.0,126.0,127.0,128.0,24.0,-102.0,-76.0,126.0,127.0,127.0,108.0,84.0,-76.0
112.0,121.0,120.0,133.0,127.0,127.0,127.0,128.0,24.0,-102.0,-76.0,126.0,127.0,127.0,108.0,84.0,-76.0
112.0,121.0,119.0,133.0,127.0,127.0,127.0,128.0,24.0,-102.0,-76.0,126.0,127.0,127.0,108.0,84.0,-76.0
117.0,125.0,120.0,133.0,127.0,127.0,128.0,128.0,25.0,-102.0,-76.0,126.0,127.0,127.0,108.0,84.0,-76.0
117.0,125.0,120.0,133.0,127.0,127.0,128.0,128.0,25.0,-102.0,-76.0,126.0,127.0,127.0,108.0,84.0,-76.0
118.0,125.0,120.0,133.0,127.0,127.0,128.0,128.0,25.0,-102.0,-76.0,126.0,127.0,127.0,108.0,84.0,-76.0
117.0,126.0,120.0,133.0,128.0,126.0,128.0,128.0,25.0,-102.0,-76.0,126.0,127.0,127.0,108.0,84.0,-76.0
117.0,126.0,120.0,134.0,128.0,127.0,128.0,128.0,25.0,-102.0,-76.0,126.0,127.0,127.0,108.0,84.0,-76.0
118.0,126.0,121.0,134.0,127.0,127.0,128.0,128.0,25.0,-102.0,-76.0,126.0,127.0,127.0,108.0,84.0,-76.0
118.0,126.0,121.0,134.0,127.0,127.0,128.0,128.0,25.0,-102.0,-76.0,126.0,127.0,127.0,108.0,84.0,-76.0
117.0,124.0,120.0,133.0,127.0,127.0,128.0,128.0,25.0,-102.0,-76.0,126.0,127.0,127.0,108.0,84.0,-76.0
117.0,124.0,120.0,133.0,127.0,127.0,128.0,128.0,25.0,-102.0,-76.0,126.0,127.0,127.0,108.0,84.0,-76.0
117.0,125.0,120.0,133.0,127.0,127.0,128.0,128.0,25.0,-102.0,-76.0,126.0,127.0,127.0,108.0,84.0,-76.0
119.0,128.0,127.0,134.0,127.0,127.0,127.0,128.0,25.0,-103.0,-76.0,126.0,127.0,127.0,109.0,84.0,-76.0
119.0,128.0,127.0,134.0,127.0,127.0,127.0,128.0,25.0,-103.0,-76.0,126.0,127.0,127.0,109.0,84.0,-76.0
119.0,128.0,127.0,134.0,127.0,126.0,127.0,128.0,25.0,-103.0,-76.0,126.0,127.0,127.0,109.0,84.0,-76.0
119.0,128.0,126.0,134.0,127.0,126.0,127.0,128.0,25.0,-103.0,-76.0,126.0,127.0,127.0,109.0,84.0,-76.0
119.0,128.0,126.0,134.0,127.0,127.0,127.0,128.0,25.0,-103.0,-76.0,126.0,127.0,127.0,109.0,84.0,-76.0
119.0,128.0,126.0,134.0,127.0,127.0,127.0,128.0,25.0,-103.0,-76.0,126.0,127.0,127.0,109.0,84.0,-76.0
119.0,128.0,128.0,134.0,127.0,127.0,127.0,128.0,25.0,-103.0,-76.0,126.0,127.0,127.0,109.0,84.0,-76.0
119.0,128.0,128.0,134.0,127.0,127.0,127.0,128.0,25.0,-103.0,-76.0,126.0,127.0,127.0,109.0,84.0,-76.0
119.0,128.0,128.0,134.0,127.0,127.0,127.0,128.0,25.0,-103.0,-76.0,126.0,127.0,127.0,109.0,84.0,-76.0
119.0,128.0,128.0,134.0,127.0,127.0,127.0,128.0,25.0,-103.0,-76.0,126.0,127.0,127.0,109.0,84.0,-76.0
117.0,126.0,123.0,134.0,127.0,127.0,125.0,128.0,25.0,-103.0,-76.0,126.0,127.0,127.0,109.0,84.0,-76.0
117.0,126.0,122.0,134.0,127.0,126.0,125.0,128.0,25.0,-103.0,-76.0,126.0,127.0,127.0,109.0,84.0,-76.0
117.0,126.0,122.0,135.0,127.0,126.0,125.0,128.0,25.0,-103.0,-76.0,126.0,127.0,127.0,109.0,84.0,-76.0
117.0,126.0,122.0,135.0,127.0,126.0,125.0,128.0,25.0,-103.0,-76.0,126.0,127.0,127.0,109.0,84.0,-76.0
117.0,126.0,122.0,135.0,127.0,126.0,125.0,128.0,25.0,-103.0,-76.0,126.0,127.0,127.0,109.0,84.0,-76.0
117.0,126.0,124.0,134.0,127.0,127.0,125.0,127.0,25.0,-103.0,-76.0,126.0,127.0,127.0,109.0,84.0,-76.0
117.0,126.0,123.0,134.0,127.0,127.0,125.0,128.0,25.0,-103.0,-76.0,126.0,127.0,127.0,109.0,84.0,-76.0
117.0,126.0,123.0,134.0,127.0,127.0,125.0,128.0,25.0,-103.0,-76.0,126.0,127.0,127.0,109.0,84.0,-76.0
117.0,126.0,123.0,134.0,127.0,127.0,125.0,128.0,25.0,-103.0,-76.0,126.0,127.0,127.0,109.0,84.0,-76.0
117.0,126.0,123.0,134.0,127.0,127.0,125.0,128.0,25.0,-103.0,-76.0,126.0,127.0,127.0,109.0,84.0,-76.0
114.0,123.0,123.0,135.0,127.0,127.0,125.0,128.0,25.0,-103.0,-75.0,126.0,127.0,127.0,110.0,84.0,-76.0
114.0,123.0,123.0,135.0,127.0,127.0,125.0,128.0,25.0,-103.0,-75.0,126.0,127.0,127.0,110.0,84.0,-76.0
114.0,123.0,123.0,135.0,127.0,127.0,125.0,128.0,25.0,-103.0,-75.0,126.0,127.0,127.0,110.0,84.0,-76.0
114.0,123.0,123.0,135.0,127.0,127.0,125.0,128.0,25.0,-103.0,-75.0,126.0,127.0,127.0,110.0,84.0,-76.0
114.0,123.0,124.0,134.0,127.0,127.0,125.0,128.0,25.0,-103.0,-75.0,126.0,127.0,127.0,110.0,84.0,-76.0
114.0,123.0,124.0,134.0,127.0,127.0,125.0,128.0,25.0,-103.0,-75.0,126.0,127.0,127.0,110.0,84.0,-76.0
114.0,123.0,124.0,135.0,127.0,127.0,125.0,128.0,25.0,-103.0,-75.0,126.0,127.0,127.0,110.0,84.0,-76.0
114.0,123.0,124.0,135.0,127.0,127.0,125.0,128.0,25.0,-103.0,-75.0,126.0,127.0,127.0,110.0,84.0,-76.0
114.0,123.0,124.0,135.0,127.0,127.0,125.0,128.0,25.0,-103.0,-75.0,126.0,127.0,127.0,110.0,84.0,-76.0
114.0,123.0,123.0,135.0,127.0,127.0,125.0,128.0,25.0,-103.0,-75.0,126.0,127.0,127.0,110.0,84.0,-76.0
117.0,123.0,127.0,135.0,127.0,126.0,125.0,128.0,25.0,-103.0,-75.0,126.0,127.0,127.0,110.0,84.0,-76.0
117.0,123.0,127.0,135.0,127.0,126.0,125.0,128.0,25.0,-103.0,-75.0,126.0,127.0,127.0,110.0,84.0,-76.0
117.0,123.0,127.0,135.0,127.0,126.0,125.0,128.0,25.0,-103.0,-75.0,126.0,127.0,127.0,110.0,84.0,-76.0
117.0,123.0,128.0,135.0,127.0,126.0,125.0,128.0,25.0,-103.0,-75.0,126.0,127.0,127.0,110.0,84.0,-76.0
117.0,123.0,127.0,135.0,127.0,126.0,125.0,128.0,25.0,-103.0,-75.0,126.0,127.0,127.0,110.0,84.0,-76.0
117.0,123.0,127.0,135.0,127.0,127.0,125.0,128.0,25.0,-103.0,-75.0,126.0,127.0,127.0,110.0,84.0,-76.0
117.0,123.0,127.0,135.0,127.0,127.0,126.0,128.0,25.0,-103.0,-75.0,126.0,127.0,127.0,110.0,84.0,-76.0
117.0,123.0,128.0,135.0,127.0,127.0,126.0,128.0,25.0,-103.0,-75.0,126.0,127.0,127.0,110.0,84.0,-76.0
117.0,123.0,127.0,135.0,127.0,127.0,126.0,128.0,25.0,-103.0,-75.0,126.0,127.0,127.0,110.0,84.0,-76.0
117.0,123.0,127.0,135.0,127.0,126.0,125.0,128.0,25.0,-103.0,-75.0,126.0,127.0,127.0,110.0,84.0,-76.0
119.0,123.0,124.0,135.0,128.0,126.0,125.0,128.0,25.0,-103.0,-75.0,126.0,127.0,127.0,111.0,84.0,-76.0
119.0,123.0,124.0,135.0,127.0,126.0,125.0,128.0,25.0,-103.0,-75.0,126.0,127.0,127.0,111.0,84.0,-76.0
119.0,123.0,125.0,135.0,127.0,127.0,125.0,128.0,25.0,-103.0,-75.0,126.0,127.0,127.0,111.0,84.0,-76.0
119.0,123.0,124.0,135.0,127.0,127.0,124.0,128.0,25.0,-103.0,-75.0,126.0,127.0,127.0,111.0,84.0,-76.0
119.0,123.0,124.0,135.0,128.0,127.0,125.0,128.0,25.0,-103.0,-75.0,126.0,127.0,127.0,111.0,84.0,-76.0
119.0,123.0,124.0,135.0,127.0,127.0,125.0,128.0,25.0,-103.0,-75.0,126.0,127.0,127.0,111.0,84.0,-76.0
119.0,123.0,124.0,135.0,127.0,127.0,125.0,128.0,25.0,-103.0,-75.0,126.0,127.0,127.0,111.0,84.0,-76.0
119.0,123.0,124.0,135.0,127.0,127.0,125.0,128.0,25.0,-103.0,-75.0,126.0,127.0,127.0,111.0,84.0,-76.0
119.0,123.0,124.0,135.0,127.0,127.0,125.0,128.0,25.0,-103.0,-75.0,126.0,127.0,127.0,111.0,84.0,-76.0
119.0,123.0,124.0,135.0,128.0,126.0,124.0,128.0,25.0,-103.0,-75.0,126.0,127.0,127.0,111.0,84.0,-76.0
120.0,124.0,126.0,134.0,127.0,126.0,125.0,128.0,25.0,-103.0,-74.0,126.0,127.0,127.0,111.0,84.0,-76.0
120.0,124.0,126.0,134.0,126.0,127.0,125.0,127.0,25.0,-103.0,-74.0,126.0,127.0,127.0,111.0,84.0,-76.0
120.0,124.0,126.0,134.0,127.0,126.0,125.0,127.0,25.0,-103.0,-74.0,126.0,127.0,127.0,111.0,84.0,-76.0
120.0,124.0,126.0,134.0,127.0,127.0,125.0,128.0,25.0,-103.0,-74.0,126.0,127.0,127.0,111.0,84.0,-76.0
120.0,124.0,126.0,134.0,127.0,127.0,125.0,128.0,25.0,-103.0,-74.0,126.0,127.0,127.0,111.0,84.0,-76.0
120.0,124.0,126.0,134.0,127.0,127.0,125.0,128.0,25.0,-103.0,-74.0,126.0,127.0,127.0,111.0,84.0,-76.0
120.0,124.0,126.0,134.0,127.0,127.0,125.0,128.0,25.0,-103.0,-74.0,126.0,127.0,127.0,111.0,84.0,-76.0
120.0,124.0,126.0,134.0,127.0,127.0,125.0,128.0,25.0,-103.0,-74.0,126.0,127.0,127.0,111.0,84.0,-76.0
120.0,124.0,126.0,134.0,127.0,126.0,125.0,128.0,25.0,-103.0,-74.0,126.0,127.0,127.0,111.0,84.0,-76.0
120.0,124.0,126.0,134.0,127.0,126.0,125.0,128.0,25.0,-103.0,-74.0,126.0,127.0,127.0,111.0,84.0,-76.0
120.0,125.0,131.0,134.0,126.0,127.0,126.0,127.0,25.0,-103.0,-74.0,126.0,127.0,127.0,111.0,85.0,-76.0
120.0,125.0,131.0,134.0,126.0,127.0,126.0,127.0,25.0,-103.0,-74.0,126.0,127.0,127.0,111.0,85.0,-76.0
120.0,125.0,131.0,134.0,126.0,127.0,126.0,127.0,25.0,-103.0,-74.0,126.0,127.0,127.0,111.0,85.0,-76.0
120.0,125.0,131.0,134.0,126.0,127.0,126.0,128.0,25.0,-103.0,-74.0,126.0,127.0,127.0,111.0,85.0,-76.0
120.0,125.0,131.0,134.0,126.0,127.0,126.0,127.0,25.0,-103.0,-74.0,126.0,127.0,127.0,111.0,85.0,-76.0
120.0,125.0,131.0,134.0,126.0,127.0,126.0,127.0,25.0,-103.0,-74.0,126.0,127.0,127.0,111.0,85.0,-76.0
120.0,125.0,131.0,134.0,126.0,127.0,126.0,127.0,25.0,-103.0,-74.0,126.0,127.0,127.0,111.0,85.0,-76.0
120.0,125.0,131.0,134.0,126.0,127.0,126.0,127.0,25.0,-103.0,-74.0,126.0,127.0,127.0,111.0,85.0,-76.0
120.0,125.0,131.0,134.0,126.0,127.0,126.0,127.0,25.0,-103.0,-74.0,126.0,127.0,127.0,111.0,85.0,-76.0
120.0,125.0,131.0,134.0,126.0,127.0,126.0,128.0,25.0,-103.0,-74.0,126.0,127.0,127.0,111.0,85.0,-76.0
121.0,124.0,131.0,132.0,126.0,127.0,126.0,127.0,25.0,-104.0,-74.0,126.0,127.0,127.0,111.0,85.0,-76.0
121.0,124.0,131.0,132.0,126.0,127.0,126.0,128.0,25.0,-104.0,-74.0,126.0,127.0,127.0,111.0,85.0,-76.0
121.0,124.0,131.0,132.0,126.0,127.0,126.0,127.0,25.0,-104.0,-74.0,126.0,127.0,127.0,111.0,85.0,-76.0
120.0,125.0,131.0,132.0,126.0,126.0,126.0,128.0,25.0,-104.0,-74.0,126.0,127.0,127.0,111.0,85.0,-76.0
120.0,125.0,130.0,132.0,126.0,127.0,126.0,128.0,25.0,-104.0,-74.0,126.0,127.0,127.0,111.0,85.0,-76.0
121.0,125.0,130.0,132.0,126.0,127.0,126.0,128.0,25.0,-104.0,-74.0,126.0,127.0,127.0,111.0,85.0,-76.0
121.0,124.0,130.0,132.0,126.0,127.0,126.0,128.0,25.0,-104.0,-74.0,126.0,127.0,127.0,111.0,85.0,-76.0
121.0,125.0,130.0,132.0,126.0,126.0,126.0,128.0,25.0,-104.0,-74.0,126.0,127.0,127.0,111.0,85.0,-76.0
121.0,125.0,130.0,132.0,126.0,127.0,127.0,128.0,25.0,-104.0,-74.0,126.0,127.0,127.0,111.0,85.0,-76.0
121.0,124.0,131.0,132.0,126.0,127.0,126.0,128.0,25.0,-104.0,-74.0,126.0,127.0,127.0,111.0,85.0,-76.0
122.0,124.0,126.0,132.0,126.0,127.0,127.0,128.0,25.0,-104.0,-74.0,126.0,127.0,127.0,112.0,85.0,-76.0
122.0,124.0,126.0,132.0,126.0,127.0,127.0,128.0,25.0,-104.0,-74.0,126.0,127.0,127.0,112.0,85.0,-76.0
122.0,124.0,125.0,132.0,126.0,126.0,127.0,128.0,25.0,-104.0,-74.0,126.0,127.0,127.0,112.0,85.0,-76.0
121.0,125.0,125.0,132.0,126.0,126.0,127.0,128.0,25.0,-104.0,-74.0,126.0,127.0,127.0,112.0,85.0,-76.0
122.0,124.0,125.0,132.0,126.0,126.0,127.0,128.0,25.0,-104.0,-74.0,126.0,127.0,127.0,112.0,85.0,-76.0
122.0,124.0,125.0,132.0,126.0,127.0,127.0,128.0,25.0,-104.0,-74.0,126.0,127.0,127.0,112.0,85.0,-76.0
122.0,124.0,124.0,132.0,126.0,126.0,127.0,128.0,25.0,-104.0,-74.0,126.0,127.0,127.0,112.0,85.0,-76.0
122.0,124.0,127.0,132.0,126.0,127.0,127.0,128.0,25.0,-104.0,-74.0,126.0,127.0,127.0,112.0,85.0,-76.0
122.0,124.0,127.0,132.0,126.0,127.0,127.0,128.0,25.0,-104.0,-74.0,126.0,127.0,127.0,112.0,85.0,-76.0
122.0,124.0,127.0,132.0,126.0,127.0,127.0,128.0,25.0,-104.0,-74.0,126.0,127.0,127.0,112.0,85.0,-76.0
122.0,125.0,132.0,132.0,126.0,127.0,127.0,128.0,25.0,-104.0,-73.0,126.0,127.0,127.0,112.0,85.0,-76.0
121.0,125.0,132.0,132.0,126.0,126.0,127.0,128.0,25.0,-104.0,-73.0,126.0,127.0,127.0,112.0,85.0,-76.0
121.0,125.0,132.0,132.0,126.0,126.0,127.0,128.0,25.0,-104.0,-73.0,126.0,127.0,127.0,112.0,85.0,-76.0
121.0,125.0,133.0,132.0,127.0,126.0,127.0,128.0,25.0,-104.0,-73.0,126.0,127.0,127.0,112.0,85.0,-76.0
121.0,125.0,133.0,132.0,126.0,126.0,127.0,128.0,25.0,-104.0,-73.0,126.0,127.0,127.0,112.0,85.0,-76.0
121.0,125.0,134.0,132.0,127.0,126.0,127.0,128.0,25.0,-104.0,-73.0,126.0,127.0,127.0,112.0,85.0,-76.0
122.0,125.0,130.0,132.0,126.0,127.0,127.0,128.0,25.0,-104.0,-73.0,126.0,127.0,127.0,112.0,85.0,-76.0
122.0,125.0,130.0,132.0,126.0,127.0,127.0,128.0,25.0,-104.0,-73.0,126.0,127.0,127.0,112.0,85.0,-76.0
122.0,125.0,131.0,132.0,126.0,127.0,127.0,128.0,25.0,-104.0,-73.0,126.0,127.0,127.0,112.0,85.0,-76.0
122.0,125.0,131.0,132.0,126.0,127.0,127.0,128.0,25.0,-104.0,-73.0,126.0,127.0,127.0,112.0,85.0,-76.0
121.0,125.0,133.0,131.0,126.0,126.0,127.0,128.0,25.0,-103.0,-73.0,126.0,127.0,127.0,112.0,85.0,-76.0
121.0,125.0,132.0,131.0,126.0,126.0,127.0,128.0,25.0,-103.0,-73.0,126.0,127.0,127.0,112.0,85.0,-76.0
121.0,125.0,132.0,131.0,127.0,126.0,127.0,128.0,25.0,-103.0,-73.0,126.0,127.0,127.0,112.0,85.0,-76.0
121.0,125.0,132.0,132.0,127.0,126.0,127.0,128.0,25.0,-103.0,-73.0,126.0,127.0,127.0,112.0,85.0,-76.0
121.0,125.0,132.0,132.0,127.0,126.0,127.0,128.0,25.0,-103.0,-73.0,126.0,127.0,127.0,112.0,85.0,-76.0
121.0,125.0,134.0,131.0,126.0,126.0,127.0,128.0,25.0,-103.0,-73.0,126.0,127.0,127.0,112.0,85.0,-76.0
121.0,125.0,133.0,131.0,126.0,127.0,127.0,128.0,25.0,-103.0,-73.0,126.0,127.0,127.0,112.0,85.0,-76.0
121.0,124.0,133.0,131.0,126.0,127.0,127.0,128.0,25.0,-103.0,-73.0,126.0,127.0,127.0,112.0,85.0,-76.0
122.0,125.0,133.0,131.0,126.0,127.0,127.0,128.0,25.0,-103.0,-73.0,126.0,127.0,127.0,112.0,85.0,-76.0
121.0,125.0,133.0,131.0,126.0,127.0,127.0,128.0,25.0,-103.0,-73.0,126.0,127.0,127.0,112.0,85.0,-76.0
121.0,125.0,129.0,131.0,127.0,126.0,127.0,128.0,25.0,-103.0,-73.0,127.0,127.0,127.0,113.0,85.0,-76.0
121.0,125.0,129.0,131.0,127.0,126.0,127.0,128.0,25.0,-103.0,-73.0,127.0,127.0,127.0,113.0,85.0,-76.0
121.0,125.0,129.0,131.0,127.0,126.0,127.0,128.0,25.0,-103.0,-73.0,127.0,127.0,127.0,113.0,85.0,-76.0
121.0,125.0,129.0,131.0,127.0,126.0,127.0,128.0,25.0,-103.0,-73.0,127.0,127.0,127.0,113.0,85.0,-76.0
121.0,124.0,131.0,131.0,126.0,126.0,127.0,128.0,25.0,-103.0,-73.0,127.0,127.0,127.0,113.0,85.0,-76.0
121.0,124.0,131.0,131.0,126.0,127.0,127.0,128.0,25.0,-103.0,-73.0,127.0,127.0,127.0,113.0,85.0,-76.0
121.0,124.0,130.0,131.0,126.0,127.0,127.0,127.0,25.0,-103.0,-73.0,127.0,127.0,127.0,113.0,85.0,-76.0
121.0,124.0,130.0,131.0,126.0,127.0,127.0,127.0,25.0,-103.0,-73.0,127.0,127.0,127.0,113.0,85.0,-76.0
121.0,124.0,130.0,131.0,127.0,127.0,127.0,127.0,25.0,-103.0,-73.0,127.0,127.0,127.0,113.0,85.0,-76.0
121.0,125.0,130.0,131.0,127.0,126.0,127.0,127.0,25.0,-103.0,-73.0,127.0,127.0,127.0,113.0,85.0,-76.0
120.0,125.0,127.0,131.0,127.0,127.0,126.0,128.0,24.0,-103.0,-73.0,127.0,127.0,127.0,113.0,85.0,-76.0
120.0,125.0,127.0,131.0,127.0,127.0,126.0,128.0,24.0,-103.0,-73.0,127.0,127.0,127.0,113.0,85.0,-76.0
120.0,125.0,127.0,131.0,127.0,127.0,126.0,128.0,24.0,-103.0,-73.0,127.0,127.0,127.0,113.0,85.0,-76.0
120.0,125.0,128.0,131.0,127.0,127.0,126.0,128.0,24.0,-103.0,-73.0,127.0,127.0,127.0,113.0,85.0,-76.0
120.0,125.0,128.0,131.0,127.0,127.0,126.0,128.0,24.0,-103.0,-73.0,127.0,127.0,127.0,113.0,85.0,-76.0
120.0,125.0,128.0,131.0,127.0,127.0,126.0,128.0,24.0,-103.0,-73.0,127.0,127.0,127.0,113.0,85.0,-76.0
120.0,125.0,128.0,131.0,127.0,127.0,126.0,128.0,24.0,-103.0,-73.0,127.0,127.0,127.0,113.0,85.0,-76.0
120.0,125.0,128.0,131.0,127.0,127.0,126.0,128.0,24.0,-103.0,-73.0,127.0,127.0,127.0,113.0,85.0,-76.0
120.0,125.0,128.0,131.0,127.0,127.0,126.0,128.0,24.0,-103.0,-73.0,127.0,127.0,127.0,113.0,85.0,-76.0
120.0,125.0,127.0,131.0,127.0,127.0,126.0,128.0,24.0,-103.0,-73.0,127.0,127.0,127.0,113.0,85.0,-76.0
121.0,124.0,123.0,131.0,127.0,127.0,128.0,128.0,24.0,-103.0,-73.0,127.0,127.0,127.0,113.0,85.0,-76.0
121.0,124.0,123.0,131.0,127.0,127.0,128.0,128.0,24.0,-103.0,-73.0,127.0,127.0,127.0,113.0,85.0,-76.0
121.0,124.0,123.0,131.0,127.0,126.0,127.0,128.0,24.0,-103.0,-73.0,127.0,127.0,127.0,113.0,85.0,-76.0
121.0,124.0,123.0,131.0,127.0,126.0,127.0,128.0,24.0,-103.0,-73.0,127.0,127.0,127.0,113.0,85.0,-76.0
121.0,124.0,123.0,131.0,127.0,126.0,127.0,128.0,24.0,-103.0,-73.0,127.0,127.0,127.0,113.0,85.0,-76.0
121.0,124.0,123.0,131.0,127.0,126.0,127.0,128.0,24.0,-103.0,-73.0,127.0,127.0,127.0,113.0,85.0,-76.0
121.0,124.0,123.0,131.0,127.0,126.0,127.0,128.0,24.0,-103.0,-73.0,127.0,127.0,127.0,113.0,85.0,-76.0
121.0,124.0,123.0,131.0,127.0,126.0,127.0,128.0,24.0,-103.0,-73.0,127.0,127.0,127.0,113.0,85.0,-76.0
121.0,124.0,123.0,131.0,127.0,127.0,127.0,128.0,24.0,-103.0,-73.0,127.0,127.0,127.0,113.0,85.0,-76.0
121.0,124.0,123.0,131.0,127.0,127.0,127.0,128.0,24.0,-103.0,-73.0,127.0,127.0,127.0,113.0,85.0,-76.0
124.0,125.0,124.0,131.0,127.0,127.0,127.0,128.0,24.0,-103.0,-73.0,127.0,127.0,127.0,113.0,85.0,-76.0
124.0,125.0,122.0,131.0,127.0,126.0,127.0,128.0,24.0,-103.0,-73.0,127.0,127.0,127.0,113.0,85.0,-76.0
124.0,125.0,122.0,131.0,127.0,126.0,127.0,128.0,24.0,-103.0,-73.0,127.0,127.0,127.0,113.0,85.0,-76.0
124.0,125.0,122.0,131.0,127.0,126.0,127.0,128.0,24.0,-103.0,-73.0,127.0,127.0,127.0,113.0,85.0,-76.0
124.0,125.0,123.0,131.0,127.0,127.0,127.0,128.0,24.0,-103.0,-73.0,127.0,127.0,127.0,113.0,85.0,-76.0
124.0,125.0,123.0,131.0,127.0,127.0,127.0,128.0,24.0,-103.0,-73.0,127.0,127.0,127.0,113.0,85.0,-76.0
124.0,125.0,123.0,131.0,127.0,127.0,127.0,128.0,24.0,-103.0,-73.0,127.0,127.0,127.0,113.0,85.0,-76.0
124.0,125.0,123.0,131.0,127.0,127.0,127.0,128.0,24.0,-103.0,-73.0,127.0,127.0,127.0,113.0,85.0,-76.0
124.0,125.0,124.0,131.0,127.0,127.0,127.0,128.0,24.0,-103.0,-73.0,127.0,127.0,127.0,113.0,85.0,-76.0
124.0,125.0,124.0,131.0,127.0,127.0,127.0,128.0,24.0,-103.0,-73.0,127.0,127.0,127.0,113.0,85.0,-76.0
123.0,124.0,123.0,130.0,127.0,127.0,127.0,128.0,24.0,-104.0,-73.0,127.0,127.0,127.0,113.0,85.0,-76.0
123.0,125.0,123.0,131.0,127.0,127.0,127.0,128.0,24.0,-104.0,-73.0,127.0,127.0,127.0,113.0,85.0,-76.0
123.0,125.0,123.0,131.0,127.0,127.0,127.0,128.0,24.0,-104.0,-73.0,127.0,127.0,127.0,113.0,85.0,-76.0
123.0,125.0,123.0,131.0,127.0,127.0,127.0,128.0,24.0,-104.0,-73.0,127.0,127.0,127.0,113.0,85.0,-76.0
123.0,125.0,123.0,131.0,127.0,127.0,127.0,128.0,24.0,-104.0,-73.0,127.0,127.0,127.0,113.0,85.0,-76.0
123.0,125.0,123.0,131.0,127.0,127.0,127.0,128.0,24.0,-104.0,-73.0,127.0,127.0,127.0,113.0,85.0,-76.0
123.0,125.0,122.0,131.0,127.0,127.0,127.0,127.0,24.0,-104.0,-73.0,127.0,127.0,127.0,113.0,85.0,-76.0
123.0,125.0,122.0,131.0,127.0,127.0,127.0,127.0,24.0,-104.0,-73.0,127.0,127.0,127.0,113.0,85.0,-76.0
123.0,125.0,122.0,131.0,127.0,127.0,127.0,128.0,24.0,-104.0,-73.0,127.0,127.0,127.0,113.0,85.0,-76.0
123.0,125.0,122.0,131.0,127.0,127.0,127.0,127.0,24.0,-104.0,-73.0,127.0,127.0,127.0,113.0,85.0,-76.0
121.0,124.0,121.0,131.0,127.0,127.0,127.0,128.0,24.0,-104.0,-73.0,127.0,127.0,127.0,113.0,85.0,-76.0
121.0,124.0,121.0,131.0,127.0,127.0,127.0,128.0,24.0,-104.0,-73.0,127.0,127.0,127.0,113.0,85.0,-76.0
121.0,124.0,121.0,131.0,127.0,127.0,127.0,128.0,24.0,-104.0,-73.0,127.0,127.0,127.0,113.0,85.0,-76.0
121.0,124.0,121.0,131.0,127.0,127.0,127.0,128.0,24.0,-104.0,-73.0,127.0,127.0,127.0,113.0,85.0,-76.0
122.0,124.0,121.0,131.0,127.0,127.0,127.0,127.0,24.0,-104.0,-73.0,127.0,127.0,127.0,113.0,85.0,-76.0
122.0,124.0,121.0,131.0,127.0,127.0,127.0,127.0,24.0,-104.0,-73.0,127.0,127.0,127.0,113.0,85.0,-76.0
121.0,124.0,121.0,131.0,127.0,127.0,127.0,127.0,24.0,-104.0,-73.0,127.0,127.0,127.0,113.0,85.0,-76.0
121.0,124.0,121.0,131.0,127.0,127.0,127.0,127.0,24.0,-104.0,-73.0,127.0,127.0,127.0,113.0,85.0,-76.0
122.0,124.0,121.0,131.0,127.0,127.0,127.0,127.0,24.0,-104.0,-73.0,127.0,127.0,127.0,113.0,85.0,-76.0
121.0,124.0,121.0,131.0,127.0,127.0,127.0,127.0,24.0,-104.0,-73.0,127.0,127.0,127.0,113.0,85.0,-76.0
120.0,124.0,117.0,131.0,127.0,127.0,127.0,127.0,25.0,-104.0,-73.0,127.0,127.0,127.0,113.0,85.0,-76.0
120.0,123.0,117.0,131.0,127.0,127.0,127.0,127.0,25.0,-104.0,-73.0,127.0,127.0,127.0,113.0,85.0,-76.0
120.0,123.0,117.0,131.0,127.0,127.0,127.0,127.0,25.0,-104.0,-73.0,127.0,127.0,127.0,113.0,85.0,-76.0
120.0,123.0,116.0,130.0,127.0,127.0,127.0,127.0,25.0,-104.0,-73.0,127.0,127.0,127.0,113.0,85.0,-76.0
120.0,124.0,116.0,131.0,127.0,127.0,127.0,127.0,25.0,-104.0,-73.0,127.0,127.0,127.0,113.0,85.0,-76.0
120.0,124.0,116.0,131.0,127.0,127.0,127.0,127.0,25.0,-104.0,-73.0,127.0,127.0,127.0,113.0,85.0,-76.0
120.0,124.0,115.0,131.0,127.0,127.0,127.0,127.0,25.0,-104.0,-73.0,127.0,127.0,127.0,113.0,85.0,-76.0
120.0,124.0,115.0,131.0,127.0,127.0,127.0,127.0,25.0,-104.0,-73.0,127.0,127.0,127.0,113.0,85.0,-76.0
120.0,124.0,117.0,131.0,127.0,127.0,127.0,127.0,25.0,-104.0,-73.0,127.0,127.0,127.0,113.0,85.0,-76.0
120.0,124.0,117.0,131.0,127.0,127.0,127.0,127.0,25.0,-104.0,-73.0,127.0,127.0,127.0,113.0,85.0,-76.0
119.0,125.0,117.0,131.0,127.0,127.0,126.0,127.0,25.0,-104.0,-73.0,127.0,127.0,127.0,113.0,85.0,-76.0
119.0,125.0,117.0,131.0,127.0,127.0,126.0,127.0,25.0,-104.0,-73.0,127.0,127.0,127.0,113.0,85.0,-76.0
119.0,125.0,117.0,131.0,127.0,126.0,126.0,127.0,25.0,-104.0,-73.0,127.0,127.0,127.0,113.0,85.0,-76.0
119.0,125.0,116.0,132.0,127.0,126.0,125.0,127.0,25.0,-104.0,-73.0,127.0,127.0,127.0,113.0,85.0,-76.0
119.0,125.0,116.0,132.0,127.0,126.0,126.0,127.0,25.0,-104.0,-73.0,127.0,127.0,127.0,113.0,85.0,-76.0
119.0,125.0,116.0,132.0,127.0,126.0,126.0,127.0,25.0,-104.0,-73.0,127.0,127.0,127.0,113.0,85.0,-76.0
119.0,125.0,117.0,131.0,127.0,127.0,126.0,127.0,25.0,-104.0,-73.0,127.0,127.0,127.0,113.0,85.0,-76.0
119.0,125.0,117.0,131.0,127.0,127.0,125.0,127.0,25.0,-104.0,-73.0,127.0,127.0,127.0,113.0,85.0,-76.0
119.0,125.0,117.0,131.0,127.0,127.0,126.0,127.0,25.0,-104.0,-73.0,127.0,127.0,127.0,113.0,85.0,-76.0
119.0,125.0,117.0,131.0,127.0,127.0,126.0,127.0,25.0,-104.0,-73.0,127.0,127.0,127.0,113.0,85.0,-76.0
121.0,124.0,123.0,131.0,126.0,127.0,126.0,127.0,25.0,-104.0,-73.0,127.0,127.0,127.0,113.0,85.0,-76.0
121.0,124.0,123.0,131.0,126.0,127.0,126.0,127.0,25.0,-104.0,-73.0,127.0,127.0,127.0,113.0,85.0,-76.0
121.0,124.0,123.0,131.0,126.0,127.0,126.0,127.0,25.0,-104.0,-73.0,127.0,127.0,127.0,113.0,85.0,-76.0
121.0,124.0,123.0,131.0,126.0,127.0,126.0,127.0,25.0,-104.0,-73.0,127.0,127.0,127.0,113.0,85.0,-76.0
121.0,124.0,123.0,131.0,126.0,127.0,126.0,127.0,25.0,-104.0,-73.0,127.0,127.0,127.0,113.0,85.0,-76.0
122.0,124.0,124.0,131.0,126.0,127.0,126.0,127.0,25.0,-104.0,-73.0,127.0,127.0,127.0,113.0,85.0,-76.0
121.0,124.0,122.0,131.0,126.0,126.0,126.0,127.0,25.0,-104.0,-73.0,127.0,127.0,127.0,113.0,85.0,-76.0
121.0,124.0,122.0,131.0,126.0,126.0,126.0,127.0,25.0,-104.0,-73.0,127.0,127.0,127.0,113.0,85.0,-76.0
121.0,124.0,123.0,131.0,126.0,126.0,126.0,127.0,25.0,-104.0,-73.0,127.0,127.0,127.0,113.0,85.0,-76.0
121.0,124.0,123.0,131.0,126.0,126.0,126.0,127.0,25.0,-104.0,-73.0,127.0,127.0,127.0,113.0,85.0,-76.0
123.0,125.0,126.0,131.0,126.0,127.0,127.0,127.0,25.0,-104.0,-73.0,127.0,127.0,127.0,114.0,85.0,-76.0
123.0,125.0,125.0,131.0,126.0,127.0,127.0,127.0,25.0,-104.0,-73.0,127.0,127.0,127.0,114.0,85.0,-76.0
123.0,125.0,125.0,131.0,126.0,127.0,127.0,127.0,25.0,-104.0,-73.0,127.0,127.0,127.0,114.0,85.0,-76.0
123.0,125.0,125.0,131.0,126.0,127.0,127.0,127.0,25.0,-104.0,-73.0,127.0,127.0,127.0,114.0,85.0,-76.0
123.0,125.0,125.0,131.0,126.0,127.0,127.0,127.0,25.0,-104.0,-73.0,127.0,127.0,127.0,114.0,85.0,-76.0
123.0,125.0,126.0,131.0,126.0,126.0,127.0,127.0,25.0,-104.0,-73.0,127.0,127.0,127.0,114.0,85.0,-76.0
123.0,125.0,126.0,131.0,126.0,126.0,127.0,128.0,25.0,-104.0,-73.0,127.0,127.0,127.0,114.0,85.0,-76.0
123.0,125.0,126.0,131.0,126.0,126.0,127.0,128.0,25.0,-104.0,-73.0,127.0,127.0,127.0,114.0,85.0,-76.0
123.0,125.0,126.0,131.0,126.0,127.0,127.0,127.0,25.0,-104.0,-73.0,127.0,127.0,127.0,114.0,85.0,-76.0
123.0,125.0,126.0,131.0,126.0,127.0,127.0,127.0,25.0,-104.0,-73.0,127.0,127.0,127.0,114.0,85.0,-76.0
124.0,125.0,128.0,131.0,126.0,127.0,127.0,128.0,25.0,-104.0,-73.0,127.0,127.0,127.0,114.0,85.0,-76.0
123.0,125.0,128.0,131.0,126.0,127.0,127.0,127.0,25.0,-104.0,-73.0,127.0,127.0,127.0,114.0,85.0,-76.0
123.0,125.0,128.0,131.0,126.0,127.0,127.0,127.0,25.0,-104.0,-73.0,127.0,127.0,127.0,114.0,85.0,-76.0
123.0,125.0,128.0,131.0,127.0,126.0,126.0,128.0,25.0,-104.0,-73.0,127.0,127.0,127.0,114.0,85.0,-76.0
124.0,125.0,128.0,131.0,126.0,126.0,126.0,128.0,25.0,-104.0,-73.0,127.0,127.0,127.0,114.0,85.0,-76.0
123.0,125.0,128.0,131.0,126.0,126.0,126.0,128.0,25.0,-104.0,-73.0,127.0,127.0,127.0,114.0,85.0,-76.0
123.0,126.0,128.0,131.0,126.0,126.0,127.0,128.0,25.0,-104.0,-73.0,127.0,127.0,127.0,114.0,85.0,-76.0
124.0,126.0,128.0,131.0,126.0,126.0,127.0,128.0,25.0,-104.0,-73.0,127.0,127.0,127.0,114.0,85.0,-76.0
123.0,126.0,128.0,131.0,127.0,126.0,127.0,128.0,25.0,-104.0,-73.0,127.0,127.0,127.0,114.0,85.0,-76.0
123.0,125.0,128.0,131.0,126.0,126.0,127.0,128.0,25.0,-104.0,-73.0,127.0,127.0,127.0,114.0,85.0,-76.0
124.0,126.0,129.0,130.0,127.0,127.0,126.0,128.0,25.0,-104.0,-73.0,127.0,127.0,127.0,114.0,86.0,-75.0
123.0,126.0,129.0,130.0,127.0,126.0,126.0,128.0,25.0,-104.0,-73.0,127.0,127.0,127.0,114.0,86.0,-75.0
124.0,125.0,129.0,130.0,126.0,127.0,126.0,128.0,25.0,-104.0,-73.0,127.0,127.0,127.0,114.0,86.0,-75.0
124.0,125.0,129.0,130.0,126.0,126.0,126.0,127.0,25.0,-104.0,-73.0,127.0,127.0,127.0,114.0,86.0,-75.0
124.0,126.0,129.0,130.0,126.0,126.0,126.0,128.0,25.0,-104.0,-73.0,127.0,127.0,127.0,114.0,86.0,-75.0
124.0,126.0,129.0,130.0,126.0,127.0,126.0,128.0,25.0,-104.0,-73.0,127.0,127.0,127.0,114.0,86.0,-75.0
124.0,126.0,129.0,130.0,126.0,126.0,126.0,128.0,25.0,-104.0,-73.0,127.0,127.0,127.0,114.0,86.0,-75.0
124.0,126.0,129.0,130.0,126.0,127.0,126.0,128.0,25.0,-104.0,-73.0,127.0,127.0,127.0,114.0,86.0,-75.0
124.0,126.0,129.0,130.0,126.0,127.0,126.0,128.0,25.0,-104.0,-73.0,127.0,127.0,127.0,114.0,86.0,-75.0
124.0,126.0,129.0,130.0,126.0,126.0,126.0,128.0,25.0,-104.0,-73.0,127.0,127.0,127.0,114.0,86.0,-75.0
123.0,125.0,134.0,130.0,126.0,126.0,126.0,128.0,25.0,-104.0,-73.0,127.0,127.0,127.0,114.0,86.0,-75.0
124.0,124.0,134.0,130.0,126.0,127.0,126.0,128.0,25.0,-104.0,-73.0,127.0,127.0,127.0,114.0,86.0,-75.0
124.0,124.0,134.0,130.0,126.0,127.0,126.0,128.0,25.0,-104.0,-73.0,127.0,127.0,127.0,114.0,86.0,-75.0
123.0,125.0,133.0,130.0,126.0,127.0,126.0,128.0,25.0,-104.0,-73.0,127.0,127.0,127.0,114.0,86.0,-75.0
123.0,125.0,134.0,130.0,126.0,127.0,126.0,128.0,25.0,-104.0,-73.0,127.0,127.0,127.0,114.0,86.0,-75.0
124.0,125.0,134.0,130.0,126.0,127.0,126.0,128.0,25.0,-104.0,-73.0,127.0,127.0,127.0,114.0,86.0,-75.0
123.0,125.0,134.0,130.0,126.0,127.0,126.0,128.0,25.0,-104.0,-73.0,127.0,127.0,127.0,114.0,86.0,-75.0
123.0,125.0,134.0,130.0,126.0,127.0,126.0,128.0,25.0,-104.0,-73.0,127.0,127.0,127.0,114.0,86.0,-75.0
123.0,125.0,134.0,130.0,126.0,127.0,126.0,128.0,25.0,-104.0,-73.0,127.0,127.0,127.0,114.0,86.0,-75.0
123.0,125.0,134.0,130.0,126.0,126.0,126.0,128.0,25.0,-104.0,-73.0,127.0,127.0,127.0,114.0,86.0,-75.0
124.0,125.0,137.0,130.0,126.0,127.0,126.0,128.0,25.0,-104.0,-73.0,127.0,127.0,127.0,114.0,86.0,-75.0
124.0,125.0,136.0,130.0,126.0,127.0,126.0,128.0,25.0,-104.0,-73.0,127.0,127.0,127.0,114.0,86.0,-75.0
123.0,125.0,136.0,130.0,126.0,127.0,126.0,128.0,25.0,-104.0,-73.0,127.0,127.0,127.0,114.0,86.0,-75.0
123.0,125.0,136.0,130.0,126.0,127.0,126.0,128.0,25.0,-104.0,-73.0,127.0,127.0,127.0,114.0,86.0,-75.0
124.0,125.0,136.0,130.0,126.0,127.0,126.0,128.0,25.0,-104.0,-73.0,127.0,127.0,127.0,114.0,86.0,-75.0
124.0,125.0,136.0,130.0,126.0,127.0,126.0,128.0,25.0,-104.0,-73.0,127.0,127.0,127.0,114.0,86.0,-75.0
124.0,125.0,136.0,130.0,126.0,127.0,126.0,128.0,25.0,-104.0,-73.0,127.0,127.0,127.0,114.0,86.0,-75.0
124.0,125.0,136.0,130.0,126.0,127.0,127.0,128.0,25.0,-104.0,-73.0,127.0,127.0,127.0,114.0,86.0,-75.0
123.0,125.0,135.0,130.0,126.0,126.0,126.0,128.0,25.0,-104.0,-73.0,127.0,127.0,127.0,114.0,86.0,-75.0
124.0,125.0,135.0,130.0,126.0,126.0,126.0,128.0,25.0,-104.0,-73.0,127.0,127.0,127.0,114.0,86.0,-75.0
124.0,124.0,135.0,130.0,126.0,127.0,126.0,127.0,25.0,-104.0,-73.0,127.0,127.0,127.0,114.0,86.0,-75.0
124.0,125.0,135.0,130.0,126.0,126.0,126.0,128.0,25.0,-104.0,-73.0,127.0,127.0,127.0,114.0,86.0,-75.0
124.0,125.0,135.0,130.0,126.0,126.0,126.0,128.0,25.0,-104.0,-73.0,127.0,127.0,127.0,114.0,86.0,-75.0
124.0,125.0,135.0,130.0,126.0,127.0,126.0,128.0,25.0,-104.0,-73.0,127.0,127.0,127.0,114.0,86.0,-75.0
124.0,125.0,135.0,130.0,126.0,127.0,126.0,128.0,25.0,-104.0,-73.0,127.0,127.0,127.0,114.0,86.0,-75.0
124.0,125.0,135.0,130.0,126.0,127.0,126.0,128.0,25.0,-104.0,-73.0,127.0,127.0,127.0,114.0,86.0,-75.0
124.0,125.0,135.0,130.0,126.0,127.0,126.0,128.0,25.0,-104.0,-73.0,127.0,127.0,127.0,114.0,86.0,-75.0
123.0,125.0,134.0,130.0,126.0,126.0,126.0,128.0,25.0,-104.0,-73.0,127.0,127.0,127.0,114.0,86.0,-75.0
124.0,125.0,134.0,130.0,127.0,126.0,126.0,128.0,25.0,-104.0,-73.0,127.0,127.0,127.0,114.0,86.0,-75.0
124.0,124.0,136.0,130.0,126.0,127.0,126.0,128.0,25.0,-104.0,-73.0,127.0,127.0,127.0,114.0,86.0,-75.0
124.0,125.0,130.0,130.0,127.0,127.0,126.0,128.0,25.0,-105.0,-73.0,127.0,127.0,127.0,114.0,86.0,-75.0
124.0,125.0,130.0,130.0,127.0,127.0,126.0,128.0,25.0,-105.0,-73.0,127.0,127.0,127.0,114.0,86.0,-75.0
124.0,125.0,130.0,130.0,127.0,127.0,127.0,128.0,25.0,-105.0,-73.0,127.0,127.0,127.0,114.0,86.0,-75.0
124.0,125.0,129.0,130.0,127.0,127.0,127.0,128.0,25.0,-105.0,-73.0,127.0,127.0,127.0,114.0,86.0,-75.0
124.0,125.0,129.0,130.0,127.0,127.0,127.0,128.0,25.0,-105.0,-73.0,127.0,127.0,127.0,114.0,86.0,-75.0
124.0,125.0,129.0,130.0,127.0,127.0,127.0,128.0,25.0,-105.0,-73.0,127.0,127.0,127.0,114.0,86.0,-75.0
124.0,125.0,129.0,130.0,127.0,126.0,126.0,128.0,25.0,-105.0,-73.0,127.0,127.0,127.0,114.0,86.0,-75.0
124.0,125.0,128.0,130.0,127.0,127.0,126.0,128.0,25.0,-105.0,-73.0,127.0,127.0,127.0,114.0,86.0,-75.0
124.0,124.0,131.0,130.0,127.0,127.0,127.0,128.0,25.0,-105.0,-73.0,127.0,127.0,127.0,114.0,86.0,-75.0
124.0,124.0,131.0,130.0,127.0,127.0,127.0,128.0,25.0,-105.0,-73.0,127.0,127.0,127.0,114.0,86.0,-75.0
124.0,125.0,124.0,130.0,127.0,127.0,126.0,128.0,25.0,-105.0,-73.0,127.0,127.0,127.0,115.0,86.0,-75.0
124.0,125.0,124.0,130.0,127.0,127.0,127.0,128.0,25.0,-105.0,-73.0,127.0,127.0,127.0,115.0,86.0,-75.0
124.0,125.0,123.0,130.0,127.0,127.0,127.0,128.0,25.0,-105.0,-73.0,127.0,127.0,127.0,115.0,86.0,-75.0
124.0,125.0,123.0,131.0,127.0,127.0,127.0,128.0,25.0,-105.0,-73.0,127.0,127.0,127.0,115.0,86.0,-75.0
124.0,125.0,123.0,131.0,127.0,127.0,127.0,128.0,25.0,-105.0,-73.0,127.0,127.0,127.0,115.0,86.0,-75.0
124.0,125.0,122.0,131.0,127.0,127.0,126.0,128.0,25.0,-105.0,-73.0,127.0,127.0,127.0,115.0,86.0,-75.0
124.0,125.0,122.0,131.0,127.0,126.0,126.0,128.0,25.0,-105.0,-73.0,127.0,127.0,127.0,115.0,86.0,-75.0
124.0,124.0,126.0,130.0,127.0,127.0,127.0,128.0,25.0,-105.0,-73.0,127.0,127.0,127.0,115.0,86.0,-75.0
124.0,124.0,126.0,130.0,127.0,127.0,127.0,128.0,25.0,-105.0,-73.0,127.0,127.0,127.0,115.0,86.0,-75.0
124.0,125.0,125.0,130.0,127.0,126.0,126.0,128.0,25.0,-105.0,-73.0,127.0,127.0,127.0,115.0,86.0,-75.0
124.0,125.0,103.0,131.0,128.0,127.0,126.0,128.0,25.0,-105.0,-73.0,127.0,127.0,127.0,115.0,86.0,-75.0
124.0,125.0,102.0,131.0,128.0,127.0,127.0,128.0,25.0,-105.0,-73.0,127.0,127.0,127.0,115.0,86.0,-75.0
124.0,125.0,102.0,131.0,128.0,127.0,127.0,128.0,25.0,-105.0,-73.0,127.0,127.0,127.0,115.0,86.0,-75.0
124.0,125.0,101.0,131.0,128.0,127.0,127.0,128.0,25.0,-105.0,-73.0,127.0,127.0,127.0,115.0,86.0,-75.0
124.0,125.0,100.0,131.0,128.0,127.0,126.0,128.0,25.0,-105.0,-73.0,127.0,127.0,127.0,115.0,86.0,-75.0
124.0,125.0,98.0,131.0,128.0,127.0,126.0,128.0,25.0,-105.0,-73.0,127.0,127.0,127.0,115.0,86.0,-75.0
124.0,124.0,106.0,131.0,128.0,127.0,127.0,128.0,25.0,-105.0,-73.0,127.0,127.0,127.0,115.0,86.0,-75.0
124.0,124.0,105.0,131.0,128.0,127.0,126.0,128.0,25.0,-105.0,-73.0,127.0,127.0,127.0,115.0,86.0,-75.0
124.0,125.0,104.0,131.0,128.0,127.0,126.0,128.0,25.0,-105.0,-73.0,127.0,127.0,127.0,115.0,86.0,-75.0
124.0,125.0,104.0,131.0,128.0,127.0,126.0,128.0,25.0,-105.0,-73.0,127.0,127.0,127.0,115.0,86.0,-75.0
124.0,124.0,111.0,131.0,128.0,127.0,126.0,127.0,25.0,-105.0,-73.0,127.0,127.0,127.0,115.0,86.0,-75.0
124.0,124.0,112.0,131.0,128.0,127.0,126.0,127.0,25.0,-105.0,-73.0,127.0,127.0,127.0,115.0,86.0,-75.0
124.0,124.0,112.0,131.0,129.0,127.0,127.0,128.0,25.0,-105.0,-73.0,127.0,127.0,127.0,115.0,86.0,-75.0
124.0,125.0,113.0,131.0,129.0,127.0,127.0,127.0,25.0,-105.0,-73.0,127.0,127.0,127.0,115.0,86.0,-75.0
124.0,125.0,113.0,132.0,129.0,126.0,126.0,128.0,25.0,-105.0,-73.0,127.0,127.0,127.0,115.0,86.0,-75.0
124.0,124.0,109.0,131.0,128.0,127.0,126.0,127.0,25.0,-105.0,-73.0,127.0,127.0,127.0,115.0,86.0,-75.0
124.0,124.0,109.0,131.0,128.0,127.0,126.0,127.0,25.0,-105.0,-73.0,127.0,127.0,127.0,115.0,86.0,-75.0
124.0,124.0,109.0,131.0,128.0,127.0,126.0,127.0,25.0,-105.0,-73.0,127.0,127.0,127.0,115.0,86.0,-75.0
124.0,125.0,110.0,131.0,128.0,127.0,126.0,128.0,25.0,-105.0,-73.0,127.0,127.0,127.0,115.0,86.0,-75.0
124.0,125.0,110.0,131.0,128.0,127.0,126.0,127.0,25.0,-105.0,-73.0,127.0,127.0,127.0,115.0,86.0,-75.0
124.0,124.0,122.0,132.0,128.0,127.0,128.0,128.0,25.0,-105.0,-73.0,127.0,127.0,127.0,115.0,86.0,-75.0
123.0,124.0,122.0,132.0,128.0,127.0,128.0,128.0,25.0,-105.0,-73.0,127.0,127.0,127.0,115.0,86.0,-75.0
123.0,124.0,122.0,132.0,128.0,127.0,128.0,128.0,25.0,-105.0,-73.0,127.0,127.0,127.0,115.0,86.0,-75.0
123.0,124.0,122.0,132.0,128.0,127.0,128.0,128.0,25.0,-105.0,-73.0,127.0,127.0,127.0,115.0,86.0,-75.0
124.0,124.0,122.0,132.0,128.0,127.0,128.0,128.0,25.0,-105.0,-73.0,127.0,127.0,127.0,115.0,86.0,-75.0
124.0,124.0,121.0,132.0,128.0,127.0,128.0,128.0,25.0,-105.0,-73.0,127.0,127.0,127.0,115.0,86.0,-75.0
124.0,124.0,122.0,132.0,128.0,127.0,128.0,128.0,25.0,-105.0,-73.0,127.0,127.0,127.0,115.0,86.0,-75.0
124.0,124.0,122.0,132.0,128.0,127.0,128.0,128.0,25.0,-105.0,-73.0,127.0,127.0,127.0,115.0,86.0,-75.0
124.0,124.0,122.0,132.0,128.0,127.0,128.0,128.0,25.0,-105.0,-73.0,127.0,127.0,127.0,115.0,86.0,-75.0
124.0,124.0,122.0,132.0,128.0,127.0,128.0,128.0,25.0,-105.0,-73.0,127.0,127.0,127.0,115.0,86.0,-75.0
123.0,124.0,130.0,132.0,127.0,127.0,129.0,128.0,25.0,-105.0,-73.0,127.0,127.0,127.0,115.0,86.0,-75.0
124.0,124.0,130.0,132.0,127.0,127.0,129.0,128.0,25.0,-105.0,-73.0,127.0,127.0,127.0,115.0,86.0,-75.0
124.0,125.0,129.0,132.0,127.0,126.0,129.0,128.0,25.0,-105.0,-73.0,127.0,127.0,127.0,115.0,86.0,-75.0
123.0,124.0,130.0,132.0,128.0,127.0,128.0,128.0,25.0,-105.0,-73.0,127.0,127.0,127.0,115.0,86.0,-75.0
123.0,124.0,130.0,132.0,128.0,127.0,129.0,128.0,25.0,-105.0,-73.0,127.0,127.0,127.0,115.0,86.0,-75.0
123.0,124.0,130.0,132.0,127.0,127.0,129.0,128.0,25.0,-105.0,-73.0,127.0,127.0,127.0,115.0,86.0,-75.0
123.0,124.0,130.0,132.0,127.0,127.0,129.0,128.0,25.0,-105.0,-73.0,127.0,127.0,127.0,115.0,86.0,-75.0
123.0,124.0,130.0,132.0,127.0,127.0,129.0,128.0,25.0,-105.0,-73.0,127.0,127.0,127.0,115.0,86.0,-75.0
123.0,124.0,130.0,132.0,127.0,127.0,129.0,128.0,25.0,-105.0,-73.0,127.0,127.0,127.0,115.0,86.0,-75.0
123.0,124.0,130.0,132.0,127.0,126.0,129.0,128.0,25.0,-105.0,-73.0,127.0,127.0,127.0,115.0,86.0,-75.0
134.0,124.0,125.0,131.0,126.0,127.0,128.0,128.0,25.0,-105.0,-73.0,127.0,127.0,127.0,115.0,86.0,-75.0
134.0,124.0,125.0,131.0,126.0,127.0,128.0,128.0,25.0,-105.0,-73.0,127.0,127.0,127.0,115.0,86.0,-75.0
135.0,124.0,126.0,131.0,126.0,127.0,128.0,128.0,25.0,-105.0,-73.0,127.0,127.0,127.0,115.0,86.0,-75.0
135.0,124.0,126.0,131.0,126.0,127.0,128.0,128.0,25.0,-105.0,-73.0,127.0,127.0,127.0,115.0,86.0,-75.0
135.0,124.0,126.0,131.0,126.0,127.0,128.0,128.0,25.0,-105.0,-73.0,127.0,127.0,127.0,115.0,86.0,-75.0
135.0,124.0,126.0,131.0,126.0,127.0,128.0,128.0,25.0,-105.0,-73.0,127.0,127.0,127.0,115.0,86.0,-75.0
135.0,124.0,125.0,131.0,126.0,127.0,128.0,128.0,25.0,-105.0,-73.0,127.0,127.0,127.0,115.0,86.0,-75.0
135.0,124.0,125.0,131.0,126.0,127.0,128.0,128.0,25.0,-105.0,-73.0,127.0,127.0,127.0,115.0,86.0,-75.0
134.0,124.0,125.0,131.0,126.0,127.0,128.0,128.0,25.0,-105.0,-73.0,127.0,127.0,127.0,115.0,86.0,-75.0
134.0,124.0,125.0,131.0,126.0,126.0,128.0,128.0,25.0,-105.0,-73.0,127.0,127.0,127.0,115.0,86.0,-75.0
127.0,125.0,128.0,131.0,126.0,126.0,125.0,127.0,25.0,-104.0,-73.0,127.0,127.0,127.0,115.0,86.0,-75.0
128.0,124.0,128.0,131.0,126.0,126.0,125.0,127.0,25.0,-104.0,-73.0,127.0,127.0,127.0,115.0,86.0,-75.0
128.0,125.0,128.0,131.0,126.0,127.0,125.0,127.0,25.0,-104.0,-73.0,127.0,127.0,127.0,115.0,86.0,-75.0
128.0,124.0,128.0,131.0,126.0,127.0,125.0,127.0,25.0,-104.0,-73.0,127.0,127.0,127.0,115.0,86.0,-75.0
128.0,124.0,128.0,131.0,126.0,127.0,125.0,127.0,25.0,-104.0,-73.0,127.0,127.0,127.0,115.0,86.0,-75.0
128.0,124.0,128.0,131.0,126.0,126.0,125.0,127.0,25.0,-104.0,-73.0,127.0,127.0,127.0,115.0,86.0,-75.0
128.0,124.0,128.0,131.0,126.0,127.0,125.0,127.0,25.0,-104.0,-73.0,127.0,127.0,127.0,115.0,86.0,-75.0
128.0,125.0,128.0,131.0,126.0,126.0,125.0,127.0,25.0,-104.0,-73.0,127.0,127.0,127.0,115.0,86.0,-75.0
127.0,125.0,128.0,131.0,126.0,126.0,125.0,127.0,25.0,-104.0,-73.0,127.0,127.0,127.0,115.0,86.0,-75.0
127.0,125.0,128.0,131.0,126.0,126.0,125.0,127.0,25.0,-104.0,-73.0,127.0,127.0,127.0,115.0,86.0,-75.0
125.0,125.0,131.0,131.0,126.0,127.0,125.0,127.0,25.0,-104.0,-73.0,127.0,127.0,127.0,115.0,86.0,-75.0
124.0,125.0,131.0,131.0,126.0,127.0,125.0,128.0,25.0,-104.0,-73.0,127.0,127.0,127.0,115.0,86.0,-75.0
124.0,125.0,131.0,131.0,126.0,127.0,125.0,127.0,25.0,-104.0,-73.0,127.0,127.0,127.0,115.0,86.0,-75.0
124.0,125.0,131.0,131.0,126.0,127.0,125.0,127.0,25.0,-104.0,-73.0,127.0,127.0,127.0,115.0,86.0,-75.0
124.0,125.0,131.0,131.0,126.0,127.0,125.0,127.0,25.0,-104.0,-73.0,127.0,127.0,127.0,115.0,86.0,-75.0
124.0,125.0,131.0,131.0,126.0,127.0,125.0,127.0,25.0,-104.0,-73.0,127.0,127.0,127.0,115.0,86.0,-75.0
124.0,125.0,130.0,131.0,126.0,126.0,125.0,127.0,25.0,-104.0,-73.0,127.0,127.0,127.0,115.0,86.0,-75.0
124.0,125.0,130.0,131.0,126.0,126.0,125.0,127.0,25.0,-104.0,-73.0,127.0,127.0,127.0,115.0,86.0,-75.0
124.0,125.0,130.0,131.0,126.0,126.0,125.0,127.0,25.0,-104.0,-73.0,127.0,127.0,127.0,115.0,86.0,-75.0
124.0,125.0,130.0,131.0,126.0,126.0,125.0,127.0,25.0,-104.0,-73.0,127.0,127.0,127.0,115.0,86.0,-75.0
122.0,125.0,136.0,131.0,126.0,126.0,124.0,127.0,25.0,-104.0,-73.0,127.0,127.0,127.0,115.0,86.0,-75.0
122.0,125.0,136.0,131.0,126.0,127.0,124.0,127.0,25.0,-104.0,-73.0,127.0,127.0,127.0,115.0,86.0,-75.0
122.0,125.0,136.0,131.0,126.0,127.0,124.0,127.0,25.0,-104.0,-73.0,127.0,127.0,127.0,115.0,86.0,-75.0
122.0,125.0,136.0,131.0,126.0,127.0,124.0,127.0,25.0,-104.0,-73.0,127.0,127.0,127.0,115.0,86.0,-75.0
122.0,125.0,136.0,131.0,126.0,127.0,124.0,127.0,25.0,-104.0,-73.0,127.0,127.0,127.0,115.0,86.0,-75.0
122.0,125.0,136.0,131.0,126.0,126.0,124.0,127.0,25.0,-104.0,-73.0,127.0,127.0,127.0,115.0,86.0,-75.0
122.0,126.0,135.0,131.0,126.0,126.0,124.0,128.0,25.0,-104.0,-73.0,127.0,127.0,127.0,115.0,86.0,-75.0
122.0,126.0,135.0,131.0,126.0,126.0,124.0,128.0,25.0,-104.0,-73.0,127.0,127.0,127.0,115.0,86.0,-75.0
122.0,125.0,135.0,131.0,126.0,126.0,124.0,127.0,25.0,-104.0,-73.0,127.0,127.0,127.0,115.0,86.0,-75.0
122.0,125.0,136.0,131.0,126.0,126.0,124.0,127.0,25.0,-104.0,-73.0,127.0,127.0,127.0,115.0,86.0,-75.0
123.0,125.0,131.0,130.0,126.0,127.0,124.0,128.0,25.0,-104.0,-73.0,127.0,127.0,127.0,115.0,86.0,-75.0
124.0,125.0,131.0,130.0,126.0,127.0,124.0,128.0,25.0,-104.0,-73.0,127.0,127.0,127.0,115.0,86.0,-75.0
124.0,125.0,131.0,130.0,126.0,127.0,125.0,128.0,25.0,-104.0,-73.0,127.0,127.0,127.0,115.0,86.0,-75.0
124.0,125.0,131.0,130.0,126.0,127.0,124.0,128.0,25.0,-104.0,-73.0,127.0,127.0,127.0,115.0,86.0,-75.0
123.0,126.0,130.0,130.0,126.0,126.0,124.0,128.0,25.0,-104.0,-73.0,127.0,127.0,127.0,115.0,86.0,-75.0
123.0,126.0,130.0,130.0,126.0,126.0,124.0,128.0,25.0,-104.0,-73.0,127.0,127.0,127.0,115.0,86.0,-75.0
123.0,126.0,130.0,131.0,126.0,126.0,124.0,128.0,25.0,-104.0,-73.0,127.0,127.0,127.0,115.0,86.0,-75.0
124.0,125.0,132.0,130.0,126.0,127.0,124.0,128.0,25.0,-104.0,-73.0,127.0,127.0,127.0,115.0,86.0,-75.0
123.0,125.0,132.0,130.0,126.0,127.0,124.0,128.0,25.0,-104.0,-73.0,127.0,127.0,127.0,115.0,86.0,-75.0
123.0,125.0,131.0,130.0,126.0,127.0,124.0,128.0,25.0,-104.0,-73.0,127.0,127.0,127.0,115.0,86.0,-75.0
124.0,125.0,130.0,131.0,127.0,127.0,126.0,128.0,25.0,-104.0,-73.0,127.0,127.0,127.0,115.0,86.0,-75.0
124.0,125.0,130.0,131.0,127.0,127.0,126.0,128.0,25.0,-104.0,-73.0,127.0,127.0,127.0,115.0,86.0,-75.0
124.0,125.0,129.0,131.0,127.0,127.0,126.0,128.0,25.0,-104.0,-73.0,127.0,127.0,127.0,115.0,86.0,-75.0
124.0,125.0,129.0,131.0,127.0,126.0,126.0,128.0,25.0,-104.0,-73.0,127.0,127.0,127.0,115.0,86.0,-75.0
124.0,125.0,129.0,131.0,127.0,126.0,126.0,128.0,25.0,-104.0,-73.0,127.0,127.0,127.0,115.0,86.0,-75.0
124.0,125.0,128.0,131.0,127.0,126.0,126.0,128.0,25.0,-104.0,-73.0,127.0,127.0,127.0,115.0,86.0,-75.0
124.0,124.0,131.0,130.0,127.0,127.0,126.0,127.0,25.0,-104.0,-73.0,127.0,127.0,127.0,115.0,86.0,-75.0
124.0,125.0,130.0,130.0,127.0,127.0,126.0,127.0,25.0,-104.0,-73.0,127.0,127.0,127.0,115.0,86.0,-75.0
124.0,125.0,130.0,130.0,127.0,126.0,126.0,128.0,25.0,-104.0,-73.0,127.0,127.0,127.0,115.0,86.0,-75.0
124.0,125.0,130.0,131.0,127.0,127.0,126.0,128.0,25.0,-104.0,-73.0,127.0,127.0,127.0,115.0,86.0,-75.0
125.0,125.0,131.0,131.0,127.0,127.0,127.0,128.0,25.0,-104.0,-73.0,127.0,127.0,127.0,115.0,86.0,-75.0
125.0,125.0,131.0,131.0,127.0,127.0,127.0,128.0,25.0,-104.0,-73.0,127.0,127.0,127.0,115.0,86.0,-75.0
125.0,125.0,131.0,131.0,127.0,127.0,127.0,128.0,25.0,-104.0,-73.0,127.0,127.0,127.0,115.0,86.0,-75.0
125.0,125.0,131.0,131.0,127.0,127.0,127.0,127.0,25.0,-104.0,-73.0,127.0,127.0,127.0,115.0,86.0,-75.0
125.0,125.0,130.0,131.0,127.0,127.0,127.0,128.0,25.0,-104.0,-73.0,127.0,127.0,127.0,115.0,86.0,-75.0
125.0,125.0,130.0,131.0,127.0,127.0,127.0,128.0,25.0,-104.0,-73.0,127.0,127.0,127.0,115.0,86.0,-75.0
125.0,124.0,130.0,131.0,127.0,127.0,127.0,128.0,25.0,-104.0,-73.0,127.0,127.0,127.0,115.0,86.0,-75.0
125.0,124.0,130.0,131.0,127.0,127.0,127.0,128.0,25.0,-104.0,-73.0,127.0,127.0,127.0,115.0,86.0,-75.0
125.0,125.0,130.0,131.0,127.0,127.0,127.0,128.0,25.0,-104.0,-73.0,127.0,127.0,127.0,115.0,86.0,-75.0
125.0,124.0,130.0,131.0,127.0,127.0,127.0,128.0,25.0,-104.0,-73.0,127.0,127.0,127.0,115.0,86.0,-75.0
125.0,126.0,134.0,131.0,127.0,126.0,127.0,128.0,25.0,-104.0,-73.0,127.0,127.0,127.0,115.0,86.0,-75.0
125.0,126.0,134.0,131.0,127.0,126.0,127.0,128.0,25.0,-104.0,-73.0,127.0,127.0,127.0,115.0,86.0,-75.0
125.0,126.0,134.0,131.0,127.0,126.0,127.0,127.0,25.0,-104.0,-73.0,127.0,127.0,127.0,115.0,86.0,-75.0
125.0,126.0,134.0,131.0,127.0,126.0,127.0,128.0,25.0,-104.0,-73.0,127.0,127.0,127.0,115.0,86.0,-75.0
125.0,125.0,134.0,131.0,127.0,127.0,126.0,127.0,25.0,-104.0,-73.0,127.0,127.0,127.0,115.0,86.0,-75.0
125.0,125.0,134.0,131.0,127.0,127.0,127.0,127.0,25.0,-104.0,-73.0,127.0,127.0,127.0,115.0,86.0,-75.0
125.0,125.0,134.0,131.0,127.0,127.0,127.0,127.0,25.0,-104.0,-73.0,127.0,127.0,127.0,115.0,86.0,-75.0
125.0,125.0,134.0,131.0,127.0,127.0,127.0,127.0,25.0,-104.0,-73.0,127.0,127.0,127.0,115.0,86.0,-75.0
125.0,125.0,134.0,131.0,127.0,126.0,126.0,127.0,25.0,-104.0,-73.0,127.0,127.0,127.0,115.0,86.0,-75.0
125.0,126.0,134.0,131.0,127.0,126.0,126.0,128.0,25.0,-104.0,-73.0,127.0,127.0,127.0,115.0,86.0,-75.0
125.0,126.0,136.0,131.0,127.0,127.0,127.0,127.0,25.0,-104.0,-73.0,127.0,127.0,127.0,115.0,86.0,-75.0
125.0,126.0,136.0,131.0,127.0,127.0,127.0,127.0,25.0,-104.0,-73.0,127.0,127.0,127.0,115.0,86.0,-75.0
125.0,126.0,136.0,131.0,127.0,127.0,127.0,127.0,25.0,-104.0,-73.0,127.0,127.0,127.0,115.0,86.0,-75.0
125.0,126.0,137.0,131.0,127.0,127.0,127.0,127.0,25.0,-104.0,-73.0,127.0,127.0,127.0,115.0,86.0,-75.0
125.0,126.0,137.0,131.0,127.0,127.0,127.0,127.0,25.0,-104.0,-73.0,127.0,127.0,127.0,115.0,86.0,-75.0
125.0,126.0,137.0,131.0,127.0,127.0,127.0,127.0,25.0,-104.0,-73.0,127.0,127.0,127.0,115.0,86.0,-75.0
125.0,126.0,137.0,131.0,127.0,127.0,127.0,127.0,25.0,-104.0,-73.0,127.0,127.0,127.0,115.0,86.0,-75.0
125.0,126.0,137.0,131.0,127.0,127.0,127.0,127.0,25.0,-104.0,-73.0,127.0,127.0,127.0,115.0,86.0,-75.0
125.0,126.0,136.0,131.0,127.0,126.0,127.0,127.0,25.0,-104.0,-73.0,127.0,127.0,127.0,115.0,86.0,-75.0
125.0,126.0,136.0,131.0,127.0,126.0,127.0,127.0,25.0,-104.0,-73.0,127.0,127.0,127.0,115.0,86.0,-75.0
125.0,127.0,132.0,131.0,126.0,126.0,126.0,128.0,25.0,-104.0,-73.0,127.0,127.0,127.0,115.0,86.0,-74.0
125.0,127.0,132.0,131.0,126.0,126.0,126.0,128.0,25.0,-104.0,-73.0,127.0,127.0,127.0,115.0,86.0,-74.0
125.0,126.0,134.0,131.0,126.0,126.0,126.0,128.0,25.0,-104.0,-73.0,127.0,127.0,127.0,115.0,86.0,-74.0
125.0,126.0,134.0,131.0,126.0,126.0,126.0,128.0,25.0,-104.0,-73.0,127.0,127.0,127.0,115.0,86.0,-74.0
125.0,126.0,134.0,131.0,126.0,126.0,126.0,128.0,25.0,-104.0,-73.0,127.0,127.0,127.0,115.0,86.0,-74.0
125.0,126.0,134.0,131.0,126.0,126.0,126.0,128.0,25.0,-104.0,-73.0,127.0,127.0,127.0,115.0,86.0,-74.0
125.0,126.0,134.0,131.0,126.0,126.0,126.0,128.0,25.0,-104.0,-73.0,127.0,127.0,127.0,115.0,86.0,-74.0
125.0,126.0,133.0,130.0,126.0,126.0,126.0,128.0,25.0,-104.0,-73.0,127.0,127.0,127.0,115.0,86.0,-74.0
125.0,126.0,133.0,131.0,126.0,126.0,126.0,128.0,25.0,-104.0,-73.0,127.0,127.0,127.0,115.0,86.0,-74.0
125.0,126.0,133.0,131.0,126.0,126.0,126.0,128.0,25.0,-104.0,-73.0,127.0,127.0,127.0,115.0,86.0,-74.0
125.0,125.0,133.0,130.0,126.0,127.0,127.0,127.0,25.0,-104.0,-73.0,127.0,127.0,127.0,115.0,86.0,-74.0
125.0,125.0,133.0,130.0,126.0,127.0,127.0,127.0,25.0,-104.0,-73.0,127.0,127.0,127.0,115.0,86.0,-74.0
125.0,125.0,133.0,130.0,126.0,127.0,127.0,127.0,25.0,-104.0,-73.0,127.0,127.0,127.0,115.0,86.0,-74.0
125.0,125.0,133.0,130.0,126.0,127.0,127.0,127.0,25.0,-104.0,-73.0,127.0,127.0,127.0,115.0,86.0,-74.0
125.0,125.0,133.0,130.0,126.0,127.0,127.0,127.0,25.0,-104.0,-73.0,127.0,127.0,127.0,115.0,86.0,-74.0
125.0,125.0,133.0,130.0,126.0,127.0,127.0,127.0,25.0,-104.0,-73.0,127.0,127.0,127.0,115.0,86.0,-74.0
125.0,125.0,133.0,130.0,126.0,127.0,127.0,127.0,25.0,-104.0,-73.0,127.0,127.0,127.0,115.0,86.0,-74.0
125.0,125.0,133.0,130.0,126.0,127.0,127.0,127.0,25.0,-104.0,-73.0,127.0,127.0,127.0,115.0,86.0,-74.0
125.0,125.0,133.0,130.0,126.0,127.0,127.0,127.0,25.0,-104.0,-73.0,127.0,127.0,127.0,115.0,86.0,-74.0
125.0,125.0,133.0,130.0,126.0,127.0,127.0,127.0,25.0,-104.0,-73.0,127.0,127.0,127.0,115.0,86.0,-74.0
125.0,126.0,132.0,130.0,126.0,126.0,127.0,127.0,25.0,-104.0,-73.0,127.0,127.0,127.0,115.0,86.0,-74.0
125.0,126.0,132.0,130.0,126.0,126.0,127.0,127.0,25.0,-104.0,-73.0,127.0,127.0,127.0,115.0,86.0,-74.0
125.0,126.0,132.0,130.0,126.0,126.0,127.0,127.0,25.0,-104.0,-73.0,127.0,127.0,127.0,115.0,86.0,-74.0
125.0,126.0,132.0,130.0,126.0,126.0,127.0,127.0,25.0,-104.0,-73.0,127.0,127.0,127.0,115.0,86.0,-74.0
125.0,126.0,131.0,130.0,126.0,126.0,127.0,127.0,25.0,-104.0,-73.0,127.0,127.0,127.0,115.0,86.0,-74.0
125.0,126.0,131.0,130.0,126.0,126.0,127.0,127.0,25.0,-104.0,-73.0,127.0,127.0,127.0,115.0,86.0,-74.0
125.0,126.0,131.0,130.0,126.0,126.0,127.0,127.0,25.0,-104.0,-73.0,127.0,127.0,127.0,115.0,86.0,-74.0
125.0,126.0,131.0,130.0,126.0,127.0,127.0,127.0,25.0,-104.0,-73.0,127.0,127.0,127.0,115.0,86.0,-74.0
125.0,126.0,130.0,130.0,126.0,127.0,127.0,127.0,25.0,-104.0,-73.0,127.0,127.0,127.0,115.0,86.0,-74.0
125.0,126.0,130.0,130.0,126.0,127.0,127.0,127.0,25.0,-104.0,-73.0,127.0,127.0,127.0,115.0,86.0,-74.0
125.0,127.0,129.0,130.0,127.0,126.0,126.0,128.0,25.0,-104.0,-73.0,127.0,127.0,127.0,115.0,86.0,-74.0
125.0,127.0,129.0,130.0,127.0,126.0,126.0,128.0,25.0,-104.0,-73.0,127.0,127.0,127.0,115.0,86.0,-74.0
125.0,127.0,129.0,130.0,127.0,126.0,126.0,128.0,25.0,-104.0,-73.0,127.0,127.0,127.0,115.0,86.0,-74.0
125.0,127.0,129.0,130.0,127.0,126.0,126.0,128.0,25.0,-104.0,-73.0,127.0,127.0,127.0,115.0,86.0,-74.0
125.0,127.0,129.0,130.0,127.0,126.0,127.0,128.0,25.0,-104.0,-73.0,127.0,127.0,127.0,115.0,86.0,-74.0
125.0,127.0,129.0,130.0,126.0,126.0,127.0,127.0,25.0,-104.0,-73.0,127.0,127.0,127.0,115.0,86.0,-74.0
125.0,127.0,129.0,130.0,126.0,127.0,127.0,127.0,25.0,-104.0,-73.0,127.0,127.0,127.0,115.0,86.0,-74.0
125.0,127.0,129.0,130.0,126.0,127.0,127.0,127.0,25.0,-104.0,-73.0,127.0,127.0,127.0,115.0,86.0,-74.0
125.0,127.0,129.0,130.0,126.0,127.0,127.0,127.0,25.0,-104.0,-73.0,127.0,127.0,127.0,115.0,86.0,-74.0
125.0,127.0,128.0,130.0,127.0,126.0,126.0,128.0,25.0,-104.0,-73.0,127.0,127.0,127.0,115.0,86.0,-74.0
125.0,127.0,131.0,130.0,127.0,126.0,127.0,128.0,25.0,-104.0,-73.0,127.0,127.0,127.0,115.0,86.0,-74.0
125.0,127.0,131.0,130.0,127.0,126.0,127.0,128.0,25.0,-104.0,-73.0,127.0,127.0,127.0,115.0,86.0,-74.0
125.0,127.0,131.0,130.0,127.0,126.0,127.0,128.0,25.0,-104.0,-73.0,127.0,127.0,127.0,115.0,86.0,-74.0
125.0,127.0,131.0,129.0,127.0,127.0,127.0,128.0,25.0,-104.0,-73.0,127.0,127.0,127.0,115.0,86.0,-74.0
125.0,127.0,131.0,129.0,127.0,127.0,127.0,127.0,25.0,-104.0,-73.0,127.0,127.0,127.0,115.0,86.0,-74.0
125.0,127.0,131.0,129.0,127.0,127.0,127.0,127.0,25.0,-104.0,-73.0,127.0,127.0,127.0,115.0,86.0,-74.0
125.0,126.0,131.0,129.0,127.0,127.0,127.0,127.0,25.0,-104.0,-73.0,127.0,127.0,127.0,115.0,86.0,-74.0
125.0,126.0,132.0,130.0,127.0,127.0,127.0,127.0,25.0,-104.0,-73.0,127.0,127.0,127.0,115.0,86.0,-74.0
125.0,127.0,131.0,130.0,127.0,126.0,127.0,127.0,25.0,-104.0,-73.0,127.0,127.0,127.0,115.0,86.0,-74.0
125.0,127.0,131.0,129.0,127.0,126.0,127.0,128.0,25.0,-104.0,-73.0,127.0,127.0,127.0,115.0,86.0,-74.0
125.0,127.0,130.0,130.0,127.0,126.0,127.0,128.0,25.0,-104.0,-73.0,127.0,127.0,127.0,115.0,86.0,-74.0
125.0,127.0,130.0,130.0,127.0,126.0,127.0,128.0,25.0,-104.0,-73.0,127.0,127.0,127.0,115.0,86.0,-74.0
125.0,127.0,130.0,130.0,127.0,127.0,127.0,128.0,25.0,-104.0,-73.0,127.0,127.0,127.0,115.0,86.0,-74.0
125.0,126.0,130.0,130.0,127.0,127.0,127.0,128.0,25.0,-104.0,-73.0,127.0,127.0,127.0,115.0,86.0,-74.0
125.0,127.0,130.0,130.0,127.0,127.0,127.0,128.0,25.0,-104.0,-73.0,127.0,127.0,127.0,115.0,86.0,-74.0
125.0,127.0,130.0,130.0,127.0,126.0,127.0,128.0,25.0,-104.0,-73.0,127.0,127.0,127.0,115.0,86.0,-74.0
125.0,127.0,129.0,130.0,127.0,126.0,127.0,128.0,25.0,-104.0,-73.0,127.0,127.0,127.0,115.0,86.0,-74.0
126.0,126.0,131.0,130.0,127.0,127.0,127.0,128.0,25.0,-104.0,-73.0,127.0,127.0,127.0,115.0,86.0,-74.0
125.0,126.0,131.0,130.0,127.0,127.0,127.0,128.0,25.0,-104.0,-73.0,127.0,127.0,127.0,115.0,86.0,-74.0
125.0,127.0,131.0,130.0,127.0,127.0,127.0,128.0,25.0,-104.0,-73.0,127.0,127.0,127.0,115.0,86.0,-74.0
125.0,126.0,127.0,129.0,127.0,127.0,127.0,128.0,25.0,-104.0,-73.0,127.0,127.0,127.0,115.0,86.0,-74.0
125.0,126.0,127.0,129.0,127.0,127.0,127.0,128.0,25.0,-104.0,-73.0,127.0,127.0,127.0,115.0,86.0,-74.0
125.0,126.0,127.0,129.0,127.0,127.0,127.0,128.0,25.0,-104.0,-73.0,127.0,127.0,127.0,115.0,86.0,-74.0
125.0,126.0,127.0,129.0,127.0,127.0,127.0,128.0,25.0,-104.0,-73.0,127.0,127.0,127.0,115.0,86.0,-74.0
125.0,126.0,127.0,129.0,127.0,127.0,127.0,128.0,25.0,-104.0,-73.0,127.0,127.0,127.0,115.0,86.0,-74.0
125.0,127.0,126.0,129.0,127.0,127.0,127.0,128.0,25.0,-104.0,-73.0,127.0,127.0,127.0,115.0,86.0,-74.0
125.0,126.0,128.0,129.0,127.0,127.0,127.0,128.0,25.0,-104.0,-73.0,127.0,127.0,127.0,115.0,86.0,-74.0
125.0,126.0,128.0,129.0,127.0,127.0,127.0,128.0,25.0,-104.0,-73.0,127.0,127.0,127.0,115.0,86.0,-74.0
125.0,126.0,128.0,129.0,127.0,127.0,127.0,128.0,25.0,-104.0,-73.0,127.0,127.0,127.0,115.0,86.0,-74.0
125.0,127.0,127.0,129.0,127.0,127.0,127.0,128.0,25.0,-104.0,-73.0,127.0,127.0,127.0,115.0,86.0,-74.0
125.0,126.0,131.0,129.0,127.0,127.0,127.0,128.0,25.0,-104.0,-73.0,127.0,127.0,127.0,115.0,86.0,-74.0
125.0,126.0,131.0,129.0,127.0,127.0,127.0,128.0,25.0,-104.0,-73.0,127.0,127.0,127.0,115.0,86.0,-74.0
125.0,126.0,130.0,129.0,127.0,127.0,127.0,127.0,25.0,-104.0,-73.0,127.0,127.0,127.0,115.0,86.0,-74.0
125.0,126.0,130.0,129.0,127.0,127.0,127.0,127.0,25.0,-104.0,-73.0,127.0,127.0,127.0,115.0,86.0,-74.0
125.0,127.0,129.0,129.0,127.0,126.0,127.0,128.0,25.0,-104.0,-73.0,127.0,127.0,127.0,115.0,86.0,-74.0
125.0,126.0,132.0,129.0,127.0,127.0,127.0,127.0,25.0,-104.0,-73.0,127.0,127.0,127.0,115.0,86.0,-74.0
125.0,126.0,132.0,129.0,127.0,127.0,127.0,127.0,25.0,-104.0,-73.0,127.0,127.0,127.0,115.0,86.0,-74.0
125.0,126.0,131.0,129.0,127.0,127.0,127.0,127.0,25.0,-104.0,-73.0,127.0,127.0,127.0,115.0,86.0,-74.0
125.0,126.0,131.0,129.0,127.0,127.0,127.0,128.0,25.0,-104.0,-73.0,127.0,127.0,127.0,115.0,86.0,-74.0
125.0,126.0,131.0,129.0,127.0,127.0,127.0,128.0,25.0,-104.0,-73.0,127.0,127.0,127.0,115.0,86.0,-74.0
125.0,126.0,131.0,129.0,126.0,127.0,126.0,127.0,25.0,-104.0,-73.0,127.0,127.0,127.0,115.0,86.0,-74.0
125.0,126.0,131.0,129.0,126.0,127.0,126.0,127.0,25.0,-104.0,-73.0,127.0,127.0,127.0,115.0,86.0,-74.0
125.0,126.0,131.0,129.0,126.0,127.0,126.0,127.0,25.0,-104.0,-73.0,127.0,127.0,127.0,115.0,86.0,-74.0
125.0,126.0,131.0,129.0,126.0,127.0,126.0,127.0,25.0,-104.0,-73.0,127.0,127.0,127.0,115.0,86.0,-74.0
125.0,126.0,131.0,129.0,126.0,127.0,126.0,127.0,25.0,-104.0,-73.0,127.0,127.0,127.0,115.0,86.0,-74.0
125.0,126.0,131.0,129.0,126.0,127.0,126.0,127.0,25.0,-104.0,-73.0,127.0,127.0,127.0,115.0,86.0,-74.0
125.0,126.0,131.0,129.0,126.0,127.0,126.0,127.0,25.0,-104.0,-73.0,127.0,127.0,127.0,115.0,86.0,-74.0
125.0,126.0,131.0,129.0,126.0,127.0,126.0,127.0,25.0,-104.0,-73.0,127.0,127.0,127.0,115.0,86.0,-74.0
125.0,126.0,131.0,129.0,126.0,127.0,126.0,127.0,25.0,-104.0,-73.0,127.0,127.0,127.0,115.0,86.0,-74.0
125.0,126.0,131.0,129.0,126.0,127.0,126.0,127.0,25.0,-104.0,-73.0,127.0,127.0,127.0,115.0,86.0,-74.0
125.0,126.0,132.0,129.0,126.0,127.0,126.0,127.0,25.0,-104.0,-73.0,127.0,127.0,127.0,115.0,86.0,-74.0
125.0,126.0,132.0,129.0,126.0,127.0,127.0,127.0,25.0,-104.0,-73.0,127.0,127.0,127.0,115.0,86.0,-74.0
126.0,126.0,132.0,129.0,126.0,127.0,127.0,127.0,25.0,-104.0,-73.0,127.0,127.0,127.0,115.0,86.0,-74.0
125.0,126.0,132.0,129.0,126.0,126.0,126.0,127.0,25.0,-104.0,-73.0,127.0,127.0,127.0,115.0,86.0,-74.0
125.0,126.0,132.0,129.0,126.0,126.0,126.0,127.0,25.0,-104.0,-73.0,127.0,127.0,127.0,115.0,86.0,-74.0
125.0,126.0,132.0,129.0,126.0,126.0,126.0,127.0,25.0,-104.0,-73.0,127.0,127.0,127.0,115.0,86.0,-74.0
125.0,126.0,132.0,129.0,126.0,127.0,126.0,127.0,25.0,-104.0,-73.0,127.0,127.0,127.0,115.0,86.0,-74.0
125.0,126.0,132.0,129.0,126.0,127.0,126.0,127.0,25.0,-104.0,-73.0,127.0,127.0,127.0,115.0,86.0,-74.0
125.0,126.0,132.0,129.0,126.0,127.0,126.0,127.0,25.0,-104.0,-73.0,127.0,127.0,127.0,115.0,86.0,-74.0
125.0,126.0,132.0,129.0,126.0,127.0,126.0,127.0,25.0,-104.0,-73.0,127.0,127.0,127.0,115.0,86.0,-74.0
126.0,126.0,132.0,129.0,127.0,127.0,127.0,128.0,25.0,-104.0,-73.0,127.0,127.0,127.0,115.0,86.0,-74.0
126.0,126.0,132.0,129.0,127.0,127.0,127.0,127.0,25.0,-104.0,-73.0,127.0,127.0,127.0,115.0,86.0,-74.0
125.0,126.0,132.0,129.0,127.0,126.0,126.0,128.0,25.0,-104.0,-73.0,127.0,127.0,127.0,115.0,86.0,-74.0
125.0,126.0,132.0,129.0,127.0,126.0,126.0,128.0,25.0,-104.0,-73.0,127.0,127.0,127.0,115.0,86.0,-74.0
125.0,126.0,132.0,129.0,127.0,126.0,126.0,128.0,25.0,-104.0,-73.0,127.0,127.0,127.0,115.0,86.0,-74.0
125.0,126.0,132.0,129.0,127.0,126.0,127.0,128.0,25.0,-104.0,-73.0,127.0,127.0,127.0,115.0,86.0,-74.0
126.0,126.0,132.0,129.0,127.0,127.0,126.0,128.0,25.0,-104.0,-73.0,127.0,127.0,127.0,115.0,86.0,-74.0
126.0,126.0,132.0,129.0,127.0,127.0,127.0,128.0,25.0,-104.0,-73.0,127.0,127.0,127.0,115.0,86.0,-74.0
126.0,126.0,132.0,129.0,127.0,127.0,127.0,128.0,25.0,-104.0,-73.0,127.0,127.0,127.0,115.0,86.0,-74.0
126.0,126.0,132.0,129.0,127.0,127.0,127.0,128.0,25.0,-104.0,-73.0,127.0,127.0,127.0,115.0,86.0,-74.0
126.0,126.0,131.0,129.0,127.0,127.0,127.0,128.0,25.0,-105.0,-73.0,127.0,127.0,127.0,115.0,86.0,-74.0
126.0,126.0,132.0,129.0,127.0,126.0,126.0,128.0,25.0,-105.0,-73.0,127.0,127.0,127.0,115.0,86.0,-74.0
126.0,126.0,132.0,129.0,127.0,126.0,126.0,128.0,25.0,-105.0,-73.0,127.0,127.0,127.0,115.0,86.0,-74.0
126.0,126.0,131.0,129.0,127.0,126.0,126.0,128.0,25.0,-105.0,-73.0,127.0,127.0,127.0,115.0,86.0,-74.0
126.0,126.0,131.0,129.0,127.0,127.0,127.0,128.0,25.0,-105.0,-73.0,127.0,127.0,127.0,115.0,86.0,-74.0
126.0,126.0,131.0,129.0,127.0,127.0,127.0,128.0,25.0,-105.0,-73.0,127.0,127.0,127.0,115.0,86.0,-74.0
126.0,126.0,131.0,129.0,127.0,127.0,127.0,128.0,25.0,-105.0,-73.0,127.0,127.0,127.0,115.0,86.0,-74.0
126.0,126.0,132.0,129.0,127.0,127.0,127.0,128.0,25.0,-105.0,-73.0,127.0,127.0,127.0,115.0,86.0,-74.0
126.0,126.0,132.0,129.0,127.0,127.0,127.0,128.0,25.0,-105.0,-73.0,127.0,127.0,127.0,115.0,86.0,-74.0
126.0,126.0,131.0,129.0,127.0,127.0,127.0,128.0,25.0,-105.0,-73.0,127.0,127.0,127.0,115.0,86.0,-74.0
126.0,127.0,129.0,129.0,127.0,127.0,126.0,128.0,25.0,-105.0,-73.0,127.0,127.0,127.0,115.0,86.0,-74.0
126.0,127.0,129.0,129.0,127.0,126.0,126.0,128.0,25.0,-105.0,-73.0,127.0,127.0,127.0,115.0,86.0,-74.0
126.0,127.0,129.0,129.0,127.0,127.0,126.0,128.0,25.0,-105.0,-73.0,127.0,127.0,127.0,115.0,86.0,-74.0
126.0,127.0,129.0,129.0,127.0,127.0,127.0,128.0,25.0,-105.0,-73.0,127.0,127.0,127.0,115.0,86.0,-74.0
126.0,127.0,129.0,128.0,127.0,127.0,127.0,128.0,25.0,-105.0,-73.0,127.0,127.0,127.0,115.0,86.0,-74.0
126.0,127.0,129.0,129.0,127.0,127.0,127.0,128.0,25.0,-105.0,-73.0,127.0,127.0,127.0,115.0,86.0,-74.0
126.0,127.0,129.0,129.0,127.0,127.0,127.0,128.0,25.0,-105.0,-73.0,127.0,127.0,127.0,115.0,86.0,-74.0
126.0,127.0,129.0,129.0,126.0,127.0,127.0,127.0,25.0,-105.0,-73.0,127.0,127.0,127.0,115.0,86.0,-74.0
126.0,127.0,129.0,129.0,127.0,127.0,127.0,128.0,25.0,-105.0,-73.0,127.0,127.0,127.0,115.0,86.0,-74.0
126.0,127.0,129.0,129.0,127.0,127.0,127.0,127.0,25.0,-105.0,-73.0,127.0,127.0,127.0,115.0,86.0,-74.0
126.0,126.0,128.0,128.0,127.0,126.0,126.0,128.0,25.0,-105.0,-73.0,127.0,127.0,127.0,115.0,86.0,-74.0
126.0,126.0,128.0,128.0,127.0,127.0,126.0,128.0,25.0,-105.0,-73.0,127.0,127.0,127.0,115.0,86.0,-74.0
126.0,126.0,128.0,128.0,127.0,127.0,126.0,128.0,25.0,-105.0,-73.0,127.0,127.0,127.0,115.0,86.0,-74.0
126.0,126.0,128.0,128.0,127.0,127.0,127.0,127.0,25.0,-105.0,-73.0,127.0,127.0,127.0,115.0,86.0,-74.0
126.0,126.0,128.0,128.0,127.0,127.0,127.0,128.0,25.0,-105.0,-73.0,127.0,127.0,127.0,115.0,86.0,-74.0
126.0,126.0,128.0,128.0,127.0,126.0,127.0,128.0,25.0,-105.0,-73.0,127.0,127.0,127.0,115.0,86.0,-74.0
126.0,127.0,127.0,128.0,127.0,126.0,126.0,128.0,25.0,-105.0,-73.0,127.0,127.0,127.0,115.0,86.0,-74.0
126.0,127.0,127.0,128.0,127.0,126.0,127.0,128.0,25.0,-105.0,-73.0,127.0,127.0,127.0,115.0,86.0,-74.0
126.0,127.0,127.0,129.0,127.0,126.0,127.0,128.0,25.0,-105.0,-73.0,127.0,127.0,127.0,115.0,86.0,-74.0
126.0,126.0,128.0,128.0,127.0,126.0,126.0,128.0,25.0,-105.0,-73.0,127.0,127.0,127.0,115.0,86.0,-74.0
126.0,126.0,128.0,128.0,127.0,127.0,126.0,127.0,25.0,-105.0,-73.0,127.0,127.0,127.0,115.0,86.0,-74.0
126.0,126.0,128.0,128.0,127.0,127.0,126.0,127.0,25.0,-105.0,-73.0,127.0,127.0,127.0,115.0,86.0,-74.0
126.0,126.0,128.0,128.0,127.0,127.0,127.0,127.0,25.0,-105.0,-73.0,127.0,127.0,127.0,115.0,86.0,-74.0
126.0,126.0,127.0,128.0,126.0,127.0,126.0,127.0,25.0,-105.0,-73.0,127.0,127.0,127.0,115.0,86.0,-74.0
126.0,126.0,127.0,128.0,126.0,127.0,126.0,127.0,25.0,-105.0,-73.0,127.0,127.0,127.0,115.0,86.0,-74.0
126.0,126.0,126.0,128.0,127.0,126.0,126.0,127.0,25.0,-105.0,-73.0,127.0,127.0,127.0,115.0,86.0,-74.0
126.0,126.0,126.0,128.0,126.0,127.0,126.0,127.0,25.0,-105.0,-73.0,127.0,127.0,127.0,115.0,86.0,-74.0
126.0,126.0,126.0,128.0,127.0,126.0,126.0,127.0,25.0,-105.0,-73.0,127.0,127.0,127.0,115.0,86.0,-74.0
126.0,126.0,128.0,128.0,127.0,127.0,126.0,127.0,25.0,-105.0,-73.0,127.0,127.0,127.0,115.0,86.0,-74.0
126.0,126.0,128.0,128.0,127.0,127.0,126.0,127.0,25.0,-105.0,-73.0,127.0,127.0,127.0,115.0,86.0,-74.0
126.0,126.0,128.0,128.0,127.0,127.0,127.0,128.0,25.0,-105.0,-73.0,127.0,127.0,127.0,115.0,86.0,-74.0
126.0,126.0,128.0,128.0,127.0,127.0,127.0,128.0,25.0,-105.0,-73.0,127.0,127.0,127.0,115.0,86.0,-74.0
126.0,126.0,128.0,128.0,127.0,127.0,127.0,128.0,25.0,-105.0,-73.0,127.0,127.0,127.0,115.0,86.0,-74.0
126.0,126.0,128.0,128.0,127.0,127.0,127.0,128.0,25.0,-105.0,-73.0,127.0,127.0,127.0,115.0,86.0,-74.0
126.0,127.0,127.0,128.0,127.0,126.0,126.0,128.0,25.0,-105.0,-73.0,127.0,127.0,127.0,115.0,86.0,-74.0
126.0,127.0,127.0,128.0,127.0,126.0,127.0,128.0,25.0,-105.0,-73.0,127.0,127.0,127.0,115.0,86.0,-74.0
126.0,127.0,127.0,128.0,127.0,126.0,127.0,128.0,25.0,-105.0,-73.0,127.0,127.0,127.0,115.0,86.0,-74.0
126.0,126.0,129.0,128.0,127.0,127.0,126.0,128.0,25.0,-105.0,-73.0,127.0,127.0,127.0,115.0,86.0,-74.0
126.0,127.0,128.0,128.0,127.0,126.0,126.0,128.0,25.0,-105.0,-73.0,127.0,127.0,127.0,115.0,86.0,-74.0
126.0,127.0,128.0,128.0,127.0,127.0,126.0,128.0,25.0,-105.0,-73.0,127.0,127.0,127.0,115.0,86.0,-74.0
126.0,127.0,127.0,128.0,127.0,127.0,127.0,128.0,25.0,-105.0,-73.0,127.0,127.0,127.0,115.0,86.0,-74.0
126.0,127.0,127.0,128.0,127.0,127.0,127.0,128.0,25.0,-105.0,-73.0,127.0,127.0,127.0,115.0,86.0,-74.0
126.0,127.0,127.0,128.0,127.0,127.0,127.0,128.0,25.0,-105.0,-73.0,127.0,127.0,127.0,115.0,86.0,-74.0
126.0,127.0,126.0,128.0,127.0,126.0,126.0,128.0,25.0,-105.0,-73.0,127.0,127.0,127.0,115.0,86.0,-74.0
126.0,127.0,126.0,128.0,127.0,126.0,126.0,128.0,25.0,-105.0,-73.0,127.0,127.0,127.0,115.0,86.0,-74.0
126.0,127.0,126.0,128.0,127.0,126.0,127.0,128.0,25.0,-105.0,-73.0,127.0,127.0,127.0,115.0,86.0,-74.0
127.0,126.0,128.0,128.0,127.0,127.0,127.0,128.0,25.0,-105.0,-73.0,127.0,127.0,127.0,115.0,86.0,-74.0
126.0,127.0,127.0,128.0,127.0,127.0,126.0,128.0,25.0,-105.0,-73.0,127.0,127.0,127.0,115.0,86.0,-74.0
126.0,127.0,127.0,128.0,127.0,127.0,126.0,128.0,25.0,-105.0,-73.0,127.0,127.0,127.0,115.0,86.0,-74.0
126.0,127.0,127.0,128.0,127.0,127.0,127.0,128.0,25.0,-105.0,-73.0,127.0,127.0,127.0,115.0,86.0,-74.0
126.0,126.0,126.0,128.0,126.0,127.0,126.0,128.0,25.0,-105.0,-73.0,127.0,127.0,127.0,115.0,86.0,-74.0
126.0,126.0,126.0,128.0,126.0,127.0,126.0,128.0,25.0,-105.0,-73.0,127.0,127.0,127.0,115.0,86.0,-74.0
126.0,126.0,125.0,128.0,126.0,126.0,126.0,128.0,25.0,-105.0,-73.0,127.0,127.0,127.0,115.0,86.0,-74.0
126.0,127.0,125.0,128.0,126.0,126.0,126.0,128.0,25.0,-105.0,-73.0,127.0,127.0,127.0,115.0,86.0,-74.0
126.0,126.0,125.0,128.0,126.0,126.0,126.0,128.0,25.0,-105.0,-73.0,127.0,127.0,127.0,115.0,86.0,-74.0
126.0,126.0,127.0,128.0,126.0,127.0,126.0,127.0,25.0,-105.0,-73.0,127.0,127.0,127.0,115.0,86.0,-74.0
126.0,126.0,126.0,128.0,126.0,126.0,126.0,128.0,25.0,-105.0,-73.0,127.0,127.0,127.0,115.0,86.0,-74.0
126.0,126.0,126.0,128.0,126.0,127.0,126.0,128.0,25.0,-105.0,-73.0,127.0,127.0,127.0,115.0,86.0,-74.0
126.0,126.0,126.0,128.0,126.0,126.0,126.0,128.0,25.0,-105.0,-73.0,127.0,127.0,127.0,115.0,86.0,-74.0
126.0,126.0,126.0,128.0,126.0,127.0,126.0,128.0,25.0,-105.0,-73.0,127.0,127.0,127.0,115.0,86.0,-74.0
127.0,126.0,127.0,128.0,127.0,127.0,127.0,128.0,25.0,-105.0,-73.0,127.0,127.0,127.0,115.0,86.0,-74.0
126.0,126.0,126.0,128.0,127.0,126.0,126.0,128.0,25.0,-105.0,-73.0,127.0,127.0,127.0,115.0,86.0,-74.0
126.0,127.0,126.0,128.0,127.0,126.0,126.0,128.0,25.0,-105.0,-73.0,127.0,127.0,127.0,115.0,86.0,-74.0
127.0,127.0,126.0,128.0,127.0,126.0,126.0,128.0,25.0,-105.0,-73.0,127.0,127.0,127.0,115.0,86.0,-74.0
127.0,126.0,128.0,128.0,127.0,127.0,127.0,128.0,25.0,-105.0,-73.0,127.0,127.0,127.0,115.0,86.0,-74.0
127.0,126.0,127.0,128.0,127.0,126.0,126.0,128.0,25.0,-105.0,-73.0,127.0,127.0,127.0,115.0,86.0,-74.0
127.0,126.0,127.0,128.0,127.0,127.0,126.0,128.0,25.0,-105.0,-73.0,127.0,127.0,127.0,115.0,86.0,-74.0
127.0,126.0,127.0,128.0,127.0,126.0,126.0,128.0,25.0,-105.0,-73.0,127.0,127.0,127.0,115.0,86.0,-74.0
127.0,126.0,127.0,128.0,127.0,127.0,126.0,128.0,25.0,-105.0,-73.0,127.0,127.0,127.0,115.0,86.0,-74.0
127.0,126.0,127.0,128.0,127.0,127.0,127.0,128.0,25.0,-105.0,-73.0,127.0,127.0,127.0,115.0,86.0,-74.0
126.0,127.0,126.0,128.0,127.0,126.0,127.0,128.0,25.0,-105.0,-73.0,127.0,127.0,127.0,115.0,86.0,-74.0
126.0,127.0,125.0,128.0,127.0,126.0,126.0,128.0,25.0,-105.0,-73.0,127.0,127.0,127.0,115.0,86.0,-74.0
126.0,126.0,127.0,128.0,127.0,127.0,127.0,127.0,25.0,-105.0,-73.0,127.0,127.0,127.0,115.0,86.0,-74.0
126.0,126.0,127.0,128.0,127.0,127.0,127.0,128.0,25.0,-105.0,-73.0,127.0,127.0,127.0,115.0,86.0,-74.0
126.0,126.0,126.0,128.0,127.0,126.0,126.0,128.0,25.0,-105.0,-73.0,127.0,127.0,127.0,115.0,86.0,-74.0
126.0,127.0,126.0,128.0,127.0,126.0,127.0,128.0,25.0,-105.0,-73.0,127.0,127.0,127.0,115.0,86.0,-74.0
126.0,127.0,126.0,128.0,127.0,126.0,127.0,128.0,25.0,-105.0,-73.0,127.0,127.0,127.0,115.0,86.0,-74.0
126.0,127.0,126.0,128.0,127.0,127.0,127.0,128.0,25.0,-105.0,-73.0,127.0,127.0,127.0,115.0,86.0,-74.0
126.0,126.0,126.0,128.0,127.0,126.0,127.0,128.0,25.0,-105.0,-73.0,127.0,127.0,127.0,115.0,86.0,-74.0
126.0,126.0,126.0,128.0,127.0,127.0,127.0,128.0,25.0,-105.0,-73.0,127.0,127.0,127.0,115.0,86.0,-74.0
126.0,126.0,125.0,128.0,127.0,126.0,126.0,128.0,25.0,-105.0,-73.0,127.0,127.0,127.0,115.0,86.0,-74.0
126.0,126.0,127.0,128.0,127.0,127.0,126.0,127.0,25.0,-105.0,-73.0,127.0,127.0,127.0,115.0,86.0,-74.0
126.0,126.0,127.0,128.0,127.0,127.0,126.0,128.0,25.0,-105.0,-73.0,127.0,127.0,127.0,115.0,86.0,-74.0
