emg1,emg2,emg3,emg4,emg5,emg6,emg7,emg8,acc_x,acc_y,acc_z,gyro_x,gyro_y,gyro_z,angle_pitch,angle_roll,angle_yaw
127.0,127.0,127.0,127.0,127.0,139.0,127.0,128.0,14.0,-103.0,-86.0,127.0,127.0,127.0,108.0,82.0,-5.0
127.0,127.0,127.0,127.0,127.0,139.0,127.0,128.0,14.0,-103.0,-86.0,127.0,127.0,127.0,108.0,82.0,-5.0
127.0,126.0,127.0,127.0,127.0,138.0,127.0,127.0,14.0,-103.0,-86.0,127.0,127.0,127.0,108.0,82.0,-5.0
126.0,126.0,127.0,127.0,127.0,138.0,127.0,127.0,14.0,-103.0,-86.0,127.0,127.0,127.0,108.0,82.0,-5.0
126.0,126.0,127.0,127.0,127.0,138.0,127.0,127.0,14.0,-103.0,-86.0,127.0,127.0,127.0,108.0,82.0,-5.0
126.0,126.0,127.0,127.0,127.0,138.0,127.0,127.0,14.0,-103.0,-86.0,127.0,127.0,127.0,108.0,82.0,-5.0
127.0,126.0,127.0,127.0,127.0,138.0,127.0,127.0,14.0,-103.0,-86.0,127.0,127.0,127.0,108.0,82.0,-5.0
126.0,126.0,127.0,127.0,127.0,138.0,127.0,127.0,14.0,-103.0,-86.0,127.0,127.0,127.0,108.0,82.0,-5.0
127.0,126.0,127.0,127.0,127.0,138.0,127.0,127.0,14.0,-103.0,-86.0,127.0,127.0,127.0,108.0,82.0,-5.0
127.0,126.0,127.0,127.0,127.0,138.0,127.0,127.0,14.0,-103.0,-86.0,127.0,127.0,127.0,108.0,82.0,-5.0
126.0,126.0,127.0,127.0,127.0,138.0,127.0,127.0,14.0,-103.0,-86.0,127.0,127.0,127.0,108.0,82.0,-5.0
126.0,126.0,127.0,127.0,127.0,138.0,127.0,127.0,14.0,-103.0,-86.0,127.0,127.0,127.0,108.0,82.0,-5.0
126.0,127.0,127.0,127.0,127.0,141.0,127.0,128.0,14.0,-103.0,-86.0,127.0,127.0,127.0,108.0,82.0,-5.0
126.0,127.0,127.0,127.0,127.0,141.0,127.0,128.0,14.0,-103.0,-86.0,127.0,127.0,127.0,108.0,82.0,-5.0
126.0,127.0,127.0,127.0,127.0,141.0,127.0,128.0,14.0,-103.0,-86.0,127.0,127.0,127.0,108.0,82.0,-5.0
126.0,127.0,127.0,127.0,127.0,140.0,127.0,128.0,14.0,-103.0,-86.0,127.0,127.0,127.0,108.0,82.0,-5.0
126.0,127.0,127.0,127.0,127.0,139.0,127.0,128.0,14.0,-103.0,-86.0,127.0,127.0,127.0,108.0,82.0,-5.0
126.0,127.0,127.0,127.0,127.0,139.0,127.0,128.0,14.0,-103.0,-86.0,127.0,127.0,127.0,108.0,82.0,-5.0
126.0,127.0,127.0,127.0,127.0,139.0,127.0,128.0,14.0,-103.0,-86.0,127.0,127.0,127.0,108.0,82.0,-5.0
126.0,127.0,127.0,127.0,127.0,140.0,126.0,128.0,14.0,-103.0,-86.0,127.0,127.0,127.0,108.0,82.0,-5.0
126.0,127.0,127.0,127.0,127.0,141.0,126.0,128.0,14.0,-103.0,-86.0,127.0,127.0,127.0,108.0,82.0,-5.0
126.0,127.0,127.0,127.0,127.0,141.0,126.0,128.0,14.0,-103.0,-86.0,127.0,127.0,127.0,108.0,82.0,-5.0
127.0,127.0,127.0,127.0,127.0,141.0,126.0,128.0,15.0,-103.0,-86.0,127.0,127.0,127.0,108.0,82.0,-5.0
127.0,127.0,127.0,127.0,127.0,141.0,126.0,128.0,15.0,-103.0,-86.0,127.0,127.0,127.0,108.0,82.0,-5.0
126.0,127.0,127.0,127.0,127.0,140.0,126.0,128.0,15.0,-103.0,-86.0,127.0,127.0,127.0,108.0,82.0,-5.0
127.0,127.0,127.0,127.0,127.0,140.0,126.0,128.0,15.0,-103.0,-86.0,127.0,127.0,127.0,108.0,82.0,-5.0
127.0,127.0,127.0,127.0,127.0,139.0,126.0,128.0,15.0,-103.0,-86.0,127.0,127.0,127.0,108.0,82.0,-5.0
127.0,127.0,127.0,127.0,127.0,140.0,127.0,128.0,15.0,-103.0,-86.0,127.0,127.0,127.0,108.0,82.0,-5.0
127.0,127.0,127.0,127.0,127.0,140.0,126.0,128.0,15.0,-103.0,-86.0,127.0,127.0,127.0,108.0,82.0,-5.0
126.0,127.0,127.0,127.0,127.0,141.0,126.0,128.0,15.0,-103.0,-86.0,127.0,127.0,127.0,108.0,82.0,-5.0
127.0,127.0,127.0,127.0,127.0,141.0,126.0,128.0,15.0,-103.0,-86.0,127.0,127.0,127.0,108.0,82.0,-5.0
127.0,127.0,127.0,127.0,127.0,141.0,126.0,128.0,15.0,-103.0,-86.0,127.0,127.0,127.0,108.0,82.0,-5.0
127.0,127.0,127.0,127.0,127.0,141.0,126.0,128.0,15.0,-103.0,-86.0,127.0,127.0,127.0,108.0,82.0,-5.0
126.0,127.0,127.0,127.0,127.0,140.0,127.0,128.0,15.0,-103.0,-86.0,127.0,127.0,127.0,108.0,82.0,-5.0
126.0,127.0,127.0,127.0,127.0,140.0,127.0,128.0,15.0,-103.0,-86.0,127.0,127.0,127.0,108.0,82.0,-5.0
126.0,127.0,127.0,127.0,127.0,140.0,127.0,128.0,15.0,-103.0,-86.0,127.0,127.0,127.0,108.0,82.0,-5.0
126.0,127.0,127.0,127.0,127.0,140.0,127.0,128.0,15.0,-103.0,-86.0,127.0,127.0,127.0,108.0,82.0,-5.0
126.0,127.0,127.0,127.0,127.0,140.0,127.0,127.0,15.0,-103.0,-86.0,127.0,127.0,127.0,108.0,82.0,-5.0
126.0,127.0,127.0,127.0,127.0,141.0,126.0,127.0,15.0,-103.0,-86.0,127.0,127.0,127.0,108.0,82.0,-5.0
126.0,127.0,127.0,127.0,127.0,141.0,126.0,128.0,15.0,-103.0,-86.0,127.0,127.0,127.0,108.0,82.0,-5.0
126.0,127.0,127.0,127.0,127.0,141.0,126.0,128.0,15.0,-103.0,-86.0,127.0,127.0,127.0,108.0,82.0,-5.0
127.0,127.0,127.0,127.0,127.0,141.0,127.0,128.0,15.0,-103.0,-86.0,127.0,127.0,127.0,108.0,82.0,-5.0
126.0,127.0,127.0,127.0,127.0,139.0,127.0,128.0,16.0,-103.0,-85.0,127.0,127.0,127.0,108.0,82.0,-5.0
127.0,127.0,127.0,127.0,127.0,139.0,127.0,128.0,16.0,-103.0,-85.0,127.0,127.0,127.0,108.0,82.0,-5.0
126.0,126.0,127.0,127.0,127.0,139.0,127.0,128.0,16.0,-103.0,-85.0,127.0,127.0,127.0,108.0,82.0,-5.0
127.0,127.0,127.0,127.0,127.0,139.0,127.0,128.0,16.0,-103.0,-85.0,127.0,127.0,127.0,108.0,82.0,-5.0
126.0,126.0,127.0,127.0,127.0,139.0,127.0,128.0,16.0,-103.0,-85.0,127.0,127.0,127.0,108.0,82.0,-5.0
126.0,127.0,127.0,127.0,127.0,140.0,126.0,128.0,16.0,-103.0,-85.0,127.0,127.0,127.0,108.0,82.0,-5.0
126.0,127.0,127.0,127.0,127.0,140.0,127.0,128.0,16.0,-103.0,-85.0,127.0,127.0,127.0,108.0,82.0,-5.0
126.0,127.0,127.0,127.0,127.0,140.0,127.0,128.0,16.0,-103.0,-85.0,127.0,127.0,127.0,108.0,82.0,-5.0
127.0,127.0,127.0,127.0,127.0,140.0,127.0,128.0,16.0,-103.0,-85.0,127.0,127.0,127.0,108.0,82.0,-5.0
127.0,127.0,127.0,127.0,127.0,140.0,127.0,128.0,16.0,-103.0,-85.0,127.0,127.0,127.0,108.0,82.0,-5.0
127.0,127.0,127.0,127.0,127.0,138.0,127.0,128.0,16.0,-103.0,-85.0,127.0,127.0,127.0,108.0,82.0,-5.0
127.0,127.0,127.0,127.0,127.0,138.0,127.0,128.0,16.0,-103.0,-85.0,127.0,127.0,127.0,108.0,82.0,-5.0
127.0,127.0,127.0,127.0,127.0,138.0,127.0,128.0,16.0,-103.0,-85.0,127.0,127.0,127.0,108.0,82.0,-5.0
127.0,127.0,127.0,127.0,127.0,138.0,127.0,128.0,16.0,-103.0,-85.0,127.0,127.0,127.0,108.0,82.0,-5.0
127.0,127.0,127.0,127.0,127.0,139.0,126.0,127.0,16.0,-103.0,-85.0,127.0,127.0,127.0,108.0,82.0,-5.0
127.0,127.0,127.0,127.0,127.0,139.0,126.0,128.0,16.0,-103.0,-85.0,127.0,127.0,127.0,108.0,82.0,-5.0
127.0,127.0,127.0,127.0,127.0,139.0,126.0,128.0,16.0,-103.0,-85.0,127.0,127.0,127.0,108.0,82.0,-5.0
127.0,127.0,127.0,127.0,127.0,139.0,126.0,128.0,16.0,-103.0,-85.0,127.0,127.0,127.0,108.0,82.0,-5.0
127.0,127.0,127.0,127.0,127.0,139.0,127.0,128.0,16.0,-103.0,-85.0,127.0,127.0,127.0,108.0,82.0,-5.0
126.0,127.0,127.0,128.0,127.0,138.0,126.0,128.0,16.0,-103.0,-85.0,127.0,127.0,127.0,108.0,82.0,-5.0
126.0,127.0,127.0,127.0,127.0,138.0,127.0,127.0,16.0,-103.0,-85.0,127.0,127.0,127.0,108.0,82.0,-5.0
126.0,127.0,127.0,127.0,127.0,138.0,126.0,127.0,16.0,-103.0,-85.0,127.0,127.0,127.0,108.0,82.0,-5.0
126.0,127.0,127.0,127.0,127.0,138.0,127.0,127.0,16.0,-103.0,-85.0,127.0,127.0,127.0,108.0,82.0,-5.0
126.0,127.0,126.0,127.0,127.0,139.0,126.0,127.0,16.0,-103.0,-85.0,127.0,127.0,127.0,108.0,82.0,-5.0
126.0,127.0,127.0,127.0,127.0,140.0,126.0,127.0,16.0,-103.0,-85.0,127.0,127.0,127.0,108.0,82.0,-5.0
126.0,127.0,127.0,127.0,127.0,140.0,126.0,127.0,16.0,-103.0,-85.0,127.0,127.0,127.0,108.0,82.0,-5.0
126.0,127.0,127.0,127.0,127.0,139.0,126.0,127.0,16.0,-103.0,-85.0,127.0,127.0,127.0,108.0,82.0,-5.0
127.0,127.0,127.0,127.0,127.0,139.0,126.0,127.0,16.0,-103.0,-85.0,127.0,127.0,127.0,108.0,82.0,-5.0
126.0,127.0,126.0,127.0,127.0,138.0,126.0,127.0,16.0,-103.0,-85.0,127.0,127.0,127.0,108.0,82.0,-5.0
126.0,127.0,127.0,127.0,127.0,138.0,126.0,127.0,16.0,-103.0,-85.0,127.0,127.0,127.0,108.0,82.0,-5.0
126.0,127.0,127.0,127.0,127.0,138.0,127.0,127.0,16.0,-103.0,-85.0,127.0,127.0,127.0,108.0,82.0,-5.0
126.0,127.0,127.0,127.0,127.0,138.0,126.0,127.0,16.0,-103.0,-85.0,127.0,127.0,127.0,108.0,82.0,-5.0
126.0,127.0,127.0,127.0,127.0,139.0,126.0,127.0,16.0,-103.0,-85.0,127.0,127.0,127.0,108.0,82.0,-5.0
126.0,127.0,127.0,127.0,127.0,140.0,126.0,127.0,16.0,-103.0,-85.0,127.0,127.0,127.0,108.0,82.0,-5.0
126.0,127.0,127.0,127.0,127.0,140.0,126.0,127.0,16.0,-103.0,-85.0,127.0,127.0,127.0,108.0,82.0,-5.0
126.0,127.0,127.0,127.0,127.0,140.0,126.0,127.0,16.0,-103.0,-85.0,127.0,127.0,127.0,108.0,82.0,-5.0
126.0,127.0,127.0,127.0,127.0,140.0,126.0,127.0,16.0,-103.0,-85.0,127.0,127.0,127.0,108.0,82.0,-5.0
126.0,127.0,127.0,127.0,127.0,139.0,126.0,127.0,16.0,-103.0,-85.0,127.0,127.0,127.0,108.0,82.0,-5.0
126.0,127.0,126.0,127.0,127.0,138.0,126.0,127.0,16.0,-103.0,-85.0,127.0,127.0,127.0,108.0,82.0,-5.0
126.0,127.0,127.0,127.0,127.0,138.0,127.0,127.0,16.0,-103.0,-85.0,127.0,127.0,127.0,108.0,82.0,-5.0
126.0,126.0,127.0,127.0,127.0,137.0,127.0,127.0,17.0,-103.0,-84.0,127.0,127.0,127.0,108.0,82.0,-5.0
126.0,126.0,127.0,127.0,127.0,136.0,127.0,128.0,17.0,-103.0,-84.0,127.0,127.0,127.0,108.0,82.0,-5.0
126.0,126.0,127.0,127.0,127.0,136.0,127.0,127.0,17.0,-103.0,-84.0,127.0,127.0,127.0,108.0,82.0,-5.0
126.0,126.0,127.0,127.0,127.0,137.0,127.0,127.0,17.0,-103.0,-84.0,127.0,127.0,127.0,108.0,82.0,-5.0
126.0,126.0,127.0,127.0,126.0,137.0,126.0,127.0,17.0,-103.0,-84.0,127.0,127.0,127.0,108.0,82.0,-5.0
126.0,127.0,127.0,127.0,127.0,138.0,126.0,127.0,17.0,-103.0,-84.0,127.0,127.0,127.0,108.0,82.0,-5.0
126.0,126.0,127.0,127.0,127.0,137.0,127.0,128.0,17.0,-103.0,-84.0,127.0,127.0,127.0,108.0,82.0,-5.0
126.0,126.0,127.0,127.0,127.0,137.0,127.0,128.0,17.0,-103.0,-84.0,127.0,127.0,127.0,108.0,82.0,-5.0
126.0,126.0,127.0,127.0,127.0,137.0,127.0,128.0,17.0,-103.0,-84.0,127.0,127.0,127.0,108.0,82.0,-5.0
126.0,126.0,127.0,127.0,127.0,136.0,127.0,128.0,17.0,-103.0,-84.0,127.0,127.0,127.0,108.0,82.0,-5.0
127.0,127.0,127.0,127.0,127.0,139.0,127.0,128.0,17.0,-103.0,-84.0,127.0,127.0,127.0,108.0,82.0,-5.0
126.0,127.0,127.0,127.0,127.0,139.0,127.0,128.0,17.0,-103.0,-84.0,127.0,127.0,127.0,108.0,82.0,-5.0
126.0,127.0,127.0,127.0,127.0,139.0,127.0,128.0,17.0,-103.0,-84.0,127.0,127.0,127.0,108.0,82.0,-5.0
127.0,126.0,127.0,127.0,127.0,138.0,127.0,128.0,17.0,-103.0,-84.0,127.0,127.0,127.0,108.0,82.0,-5.0
127.0,126.0,127.0,127.0,127.0,138.0,127.0,128.0,17.0,-103.0,-84.0,127.0,127.0,127.0,108.0,82.0,-5.0
126.0,127.0,127.0,127.0,127.0,137.0,127.0,128.0,17.0,-103.0,-84.0,127.0,127.0,127.0,108.0,82.0,-5.0
127.0,127.0,127.0,127.0,127.0,137.0,127.0,128.0,17.0,-103.0,-84.0,127.0,127.0,127.0,108.0,82.0,-5.0
126.0,127.0,127.0,127.0,127.0,138.0,127.0,128.0,17.0,-103.0,-84.0,127.0,127.0,127.0,108.0,82.0,-5.0
126.0,127.0,127.0,127.0,127.0,139.0,127.0,128.0,17.0,-103.0,-84.0,127.0,127.0,127.0,108.0,82.0,-5.0
126.0,127.0,127.0,127.0,127.0,139.0,127.0,128.0,17.0,-103.0,-84.0,127.0,127.0,127.0,108.0,82.0,-5.0
127.0,127.0,127.0,127.0,127.0,138.0,127.0,128.0,17.0,-103.0,-84.0,127.0,127.0,127.0,108.0,82.0,-5.0
127.0,127.0,127.0,127.0,127.0,139.0,126.0,128.0,17.0,-103.0,-84.0,127.0,127.0,127.0,108.0,82.0,-5.0
127.0,127.0,127.0,128.0,127.0,138.0,127.0,128.0,17.0,-103.0,-84.0,127.0,127.0,127.0,108.0,82.0,-5.0
126.0,127.0,127.0,127.0,127.0,137.0,127.0,128.0,17.0,-103.0,-84.0,127.0,127.0,127.0,108.0,82.0,-5.0
126.0,127.0,127.0,127.0,127.0,137.0,127.0,128.0,17.0,-103.0,-84.0,127.0,127.0,127.0,108.0,82.0,-5.0
127.0,127.0,127.0,127.0,127.0,137.0,127.0,128.0,17.0,-103.0,-84.0,127.0,127.0,127.0,108.0,82.0,-5.0
126.0,127.0,126.0,127.0,127.0,138.0,126.0,128.0,17.0,-103.0,-84.0,127.0,127.0,127.0,108.0,82.0,-5.0
127.0,127.0,126.0,127.0,127.0,139.0,126.0,128.0,17.0,-103.0,-84.0,127.0,127.0,127.0,108.0,82.0,-5.0
127.0,127.0,126.0,127.0,127.0,139.0,126.0,128.0,17.0,-103.0,-84.0,127.0,127.0,127.0,108.0,82.0,-5.0
127.0,127.0,127.0,128.0,127.0,139.0,127.0,128.0,17.0,-103.0,-84.0,127.0,127.0,127.0,108.0,82.0,-5.0
126.0,127.0,127.0,127.0,127.0,138.0,126.0,128.0,17.0,-104.0,-83.0,127.0,127.0,127.0,108.0,82.0,-5.0
126.0,127.0,127.0,127.0,127.0,138.0,126.0,128.0,17.0,-104.0,-83.0,127.0,127.0,127.0,108.0,82.0,-5.0
126.0,127.0,127.0,127.0,127.0,137.0,126.0,128.0,17.0,-104.0,-83.0,127.0,127.0,127.0,108.0,82.0,-5.0
126.0,127.0,127.0,127.0,127.0,137.0,126.0,128.0,17.0,-104.0,-83.0,127.0,127.0,127.0,108.0,82.0,-5.0
126.0,127.0,127.0,127.0,127.0,137.0,126.0,128.0,17.0,-104.0,-83.0,127.0,127.0,127.0,108.0,82.0,-5.0
126.0,127.0,127.0,127.0,127.0,137.0,126.0,128.0,17.0,-104.0,-83.0,127.0,127.0,127.0,108.0,82.0,-5.0
126.0,127.0,127.0,127.0,127.0,138.0,126.0,128.0,17.0,-104.0,-83.0,127.0,127.0,127.0,108.0,82.0,-5.0
126.0,127.0,127.0,127.0,127.0,138.0,126.0,128.0,17.0,-104.0,-83.0,127.0,127.0,127.0,108.0,82.0,-5.0
126.0,127.0,127.0,127.0,127.0,138.0,126.0,128.0,17.0,-104.0,-83.0,127.0,127.0,127.0,108.0,82.0,-5.0
126.0,127.0,127.0,127.0,127.0,138.0,126.0,128.0,17.0,-104.0,-83.0,127.0,127.0,127.0,108.0,82.0,-5.0
127.0,126.0,127.0,127.0,127.0,138.0,127.0,128.0,18.0,-104.0,-83.0,127.0,127.0,127.0,108.0,82.0,-5.0
126.0,127.0,126.0,127.0,127.0,137.0,126.0,128.0,18.0,-104.0,-83.0,127.0,127.0,127.0,108.0,82.0,-5.0
126.0,127.0,126.0,127.0,127.0,137.0,127.0,128.0,18.0,-104.0,-83.0,127.0,127.0,127.0,108.0,82.0,-5.0
126.0,127.0,126.0,127.0,127.0,137.0,126.0,128.0,18.0,-104.0,-83.0,127.0,127.0,127.0,108.0,82.0,-5.0
126.0,126.0,126.0,127.0,127.0,137.0,126.0,127.0,18.0,-104.0,-83.0,127.0,127.0,127.0,108.0,82.0,-5.0
126.0,127.0,126.0,127.0,127.0,138.0,126.0,128.0,18.0,-104.0,-83.0,127.0,127.0,127.0,108.0,82.0,-5.0
126.0,127.0,126.0,127.0,127.0,138.0,126.0,128.0,18.0,-104.0,-83.0,127.0,127.0,127.0,108.0,82.0,-5.0
126.0,127.0,126.0,127.0,127.0,138.0,126.0,128.0,18.0,-104.0,-83.0,127.0,127.0,127.0,108.0,82.0,-5.0
127.0,127.0,126.0,127.0,127.0,138.0,126.0,128.0,18.0,-104.0,-83.0,127.0,127.0,127.0,108.0,82.0,-5.0
127.0,127.0,126.0,127.0,127.0,138.0,127.0,128.0,18.0,-104.0,-83.0,127.0,127.0,127.0,108.0,82.0,-5.0
127.0,127.0,126.0,127.0,127.0,136.0,127.0,128.0,18.0,-104.0,-83.0,127.0,127.0,127.0,108.0,82.0,-5.0
127.0,127.0,126.0,127.0,127.0,136.0,127.0,128.0,18.0,-104.0,-83.0,127.0,127.0,127.0,108.0,82.0,-5.0
127.0,127.0,126.0,127.0,127.0,136.0,127.0,128.0,18.0,-104.0,-83.0,127.0,127.0,127.0,108.0,82.0,-5.0
127.0,127.0,126.0,127.0,127.0,136.0,127.0,128.0,18.0,-104.0,-83.0,127.0,127.0,127.0,108.0,82.0,-5.0
127.0,127.0,126.0,127.0,127.0,138.0,126.0,128.0,18.0,-104.0,-83.0,127.0,127.0,127.0,108.0,82.0,-5.0
127.0,127.0,126.0,128.0,127.0,138.0,126.0,128.0,18.0,-104.0,-83.0,127.0,127.0,127.0,108.0,82.0,-5.0
127.0,127.0,126.0,128.0,127.0,138.0,127.0,128.0,18.0,-104.0,-83.0,127.0,127.0,127.0,108.0,82.0,-5.0
127.0,127.0,126.0,127.0,127.0,138.0,127.0,128.0,18.0,-104.0,-83.0,127.0,127.0,127.0,108.0,82.0,-5.0
127.0,127.0,126.0,127.0,127.0,138.0,127.0,128.0,18.0,-104.0,-83.0,127.0,127.0,127.0,108.0,82.0,-5.0
127.0,127.0,126.0,127.0,127.0,138.0,127.0,128.0,18.0,-104.0,-83.0,127.0,127.0,127.0,108.0,82.0,-5.0
126.0,127.0,127.0,127.0,127.0,136.0,126.0,127.0,18.0,-104.0,-83.0,127.0,127.0,127.0,108.0,82.0,-5.0
126.0,127.0,127.0,127.0,127.0,136.0,126.0,127.0,18.0,-104.0,-83.0,127.0,127.0,127.0,108.0,82.0,-5.0
126.0,127.0,127.0,127.0,127.0,136.0,126.0,127.0,18.0,-104.0,-83.0,127.0,127.0,127.0,108.0,82.0,-5.0
126.0,127.0,126.0,127.0,127.0,138.0,126.0,127.0,18.0,-104.0,-83.0,127.0,127.0,127.0,108.0,82.0,-5.0
126.0,127.0,126.0,127.0,127.0,138.0,126.0,127.0,18.0,-104.0,-83.0,127.0,127.0,127.0,108.0,82.0,-5.0
126.0,127.0,126.0,127.0,127.0,138.0,126.0,127.0,18.0,-104.0,-83.0,127.0,127.0,127.0,108.0,82.0,-5.0
126.0,127.0,126.0,127.0,127.0,138.0,126.0,128.0,18.0,-104.0,-83.0,127.0,127.0,127.0,108.0,82.0,-5.0
126.0,127.0,126.0,127.0,127.0,138.0,126.0,128.0,18.0,-104.0,-83.0,127.0,127.0,127.0,108.0,82.0,-5.0
126.0,127.0,127.0,127.0,127.0,138.0,126.0,128.0,18.0,-104.0,-83.0,127.0,127.0,127.0,108.0,82.0,-5.0
126.0,127.0,127.0,127.0,127.0,136.0,126.0,128.0,18.0,-104.0,-83.0,127.0,127.0,127.0,108.0,82.0,-5.0
126.0,127.0,126.0,127.0,127.0,137.0,126.0,128.0,18.0,-104.0,-82.0,127.0,127.0,127.0,108.0,82.0,-5.0
126.0,127.0,126.0,127.0,127.0,137.0,126.0,127.0,18.0,-104.0,-82.0,127.0,127.0,127.0,108.0,82.0,-5.0
126.0,127.0,126.0,127.0,127.0,138.0,126.0,127.0,18.0,-104.0,-82.0,127.0,127.0,127.0,108.0,82.0,-5.0
126.0,127.0,126.0,127.0,127.0,138.0,126.0,128.0,18.0,-104.0,-82.0,127.0,127.0,127.0,108.0,82.0,-5.0
126.0,127.0,126.0,127.0,127.0,138.0,126.0,128.0,18.0,-104.0,-82.0,127.0,127.0,127.0,108.0,82.0,-5.0
126.0,127.0,126.0,127.0,127.0,138.0,127.0,128.0,18.0,-104.0,-82.0,127.0,127.0,127.0,108.0,82.0,-5.0
126.0,127.0,126.0,127.0,127.0,138.0,126.0,128.0,18.0,-104.0,-82.0,127.0,127.0,127.0,108.0,82.0,-5.0
126.0,127.0,126.0,127.0,127.0,138.0,127.0,128.0,18.0,-104.0,-82.0,127.0,127.0,127.0,108.0,82.0,-5.0
126.0,127.0,126.0,127.0,127.0,137.0,127.0,128.0,18.0,-104.0,-82.0,127.0,127.0,127.0,108.0,82.0,-5.0
126.0,127.0,126.0,127.0,127.0,137.0,127.0,127.0,18.0,-104.0,-82.0,127.0,127.0,127.0,108.0,82.0,-5.0
127.0,126.0,127.0,127.0,127.0,135.0,127.0,128.0,18.0,-104.0,-82.0,127.0,127.0,127.0,108.0,82.0,-5.0
127.0,126.0,127.0,127.0,127.0,135.0,127.0,128.0,18.0,-104.0,-82.0,127.0,127.0,127.0,108.0,82.0,-5.0
127.0,126.0,126.0,127.0,127.0,135.0,127.0,128.0,18.0,-104.0,-82.0,127.0,127.0,127.0,108.0,82.0,-5.0
127.0,126.0,127.0,127.0,127.0,135.0,127.0,128.0,18.0,-104.0,-82.0,127.0,127.0,127.0,108.0,82.0,-5.0
126.0,126.0,126.0,127.0,127.0,136.0,126.0,128.0,18.0,-104.0,-82.0,127.0,127.0,127.0,108.0,82.0,-5.0
127.0,127.0,126.0,127.0,127.0,137.0,127.0,128.0,18.0,-104.0,-82.0,127.0,127.0,127.0,108.0,82.0,-5.0
127.0,126.0,127.0,127.0,127.0,137.0,127.0,128.0,18.0,-104.0,-82.0,127.0,127.0,127.0,108.0,82.0,-5.0
127.0,126.0,127.0,127.0,127.0,135.0,127.0,128.0,18.0,-104.0,-82.0,127.0,127.0,127.0,108.0,82.0,-5.0
127.0,126.0,127.0,127.0,127.0,135.0,127.0,128.0,18.0,-104.0,-82.0,127.0,127.0,127.0,108.0,82.0,-5.0
127.0,126.0,127.0,127.0,127.0,135.0,127.0,128.0,18.0,-104.0,-82.0,127.0,127.0,127.0,108.0,82.0,-5.0
126.0,127.0,126.0,127.0,127.0,136.0,127.0,128.0,18.0,-104.0,-82.0,127.0,127.0,127.0,108.0,82.0,-5.0
126.0,127.0,126.0,127.0,127.0,136.0,127.0,128.0,18.0,-104.0,-82.0,127.0,127.0,127.0,108.0,82.0,-5.0
126.0,127.0,126.0,127.0,126.0,136.0,127.0,128.0,18.0,-104.0,-82.0,127.0,127.0,127.0,108.0,82.0,-5.0
127.0,126.0,127.0,127.0,127.0,136.0,127.0,128.0,18.0,-104.0,-82.0,127.0,127.0,127.0,108.0,82.0,-5.0
126.0,126.0,127.0,127.0,127.0,136.0,127.0,128.0,18.0,-104.0,-82.0,127.0,127.0,127.0,108.0,82.0,-5.0
126.0,126.0,126.0,127.0,126.0,136.0,127.0,128.0,18.0,-104.0,-82.0,127.0,127.0,127.0,108.0,82.0,-5.0
126.0,126.0,126.0,127.0,126.0,135.0,127.0,128.0,18.0,-104.0,-82.0,127.0,127.0,127.0,108.0,82.0,-5.0
126.0,127.0,126.0,127.0,126.0,136.0,126.0,128.0,18.0,-104.0,-82.0,127.0,127.0,127.0,108.0,82.0,-5.0
126.0,127.0,126.0,127.0,127.0,137.0,126.0,128.0,18.0,-104.0,-82.0,127.0,127.0,127.0,108.0,82.0,-5.0
126.0,127.0,126.0,127.0,127.0,136.0,126.0,128.0,18.0,-104.0,-82.0,127.0,127.0,127.0,108.0,82.0,-5.0
127.0,127.0,126.0,127.0,127.0,138.0,127.0,128.0,18.0,-104.0,-82.0,127.0,127.0,127.0,108.0,82.0,-5.0
127.0,127.0,126.0,127.0,127.0,138.0,127.0,128.0,18.0,-104.0,-82.0,127.0,127.0,127.0,108.0,82.0,-5.0
126.0,126.0,126.0,127.0,127.0,138.0,127.0,128.0,18.0,-104.0,-82.0,127.0,127.0,127.0,108.0,82.0,-5.0
126.0,126.0,126.0,127.0,127.0,137.0,127.0,128.0,18.0,-104.0,-82.0,127.0,127.0,127.0,108.0,82.0,-5.0
126.0,126.0,126.0,127.0,127.0,137.0,127.0,128.0,18.0,-104.0,-82.0,127.0,127.0,127.0,108.0,82.0,-5.0
127.0,127.0,126.0,127.0,127.0,136.0,127.0,128.0,18.0,-104.0,-82.0,127.0,127.0,127.0,108.0,82.0,-5.0
127.0,127.0,126.0,127.0,127.0,137.0,127.0,128.0,18.0,-104.0,-82.0,127.0,127.0,127.0,108.0,82.0,-5.0
127.0,127.0,126.0,127.0,127.0,138.0,127.0,128.0,18.0,-104.0,-82.0,127.0,127.0,127.0,108.0,82.0,-5.0
127.0,127.0,126.0,127.0,127.0,138.0,127.0,128.0,18.0,-104.0,-82.0,127.0,127.0,127.0,108.0,82.0,-5.0
127.0,127.0,126.0,127.0,127.0,138.0,127.0,128.0,18.0,-104.0,-82.0,127.0,127.0,127.0,108.0,82.0,-5.0
127.0,127.0,127.0,127.0,126.0,138.0,126.0,128.0,18.0,-104.0,-82.0,127.0,127.0,127.0,108.0,82.0,-5.0
127.0,127.0,127.0,127.0,127.0,138.0,126.0,128.0,18.0,-104.0,-82.0,127.0,127.0,127.0,108.0,82.0,-5.0
127.0,127.0,127.0,127.0,126.0,137.0,126.0,127.0,18.0,-104.0,-82.0,127.0,127.0,127.0,108.0,82.0,-5.0
127.0,127.0,127.0,127.0,127.0,138.0,126.0,128.0,18.0,-104.0,-82.0,127.0,127.0,127.0,108.0,82.0,-5.0
127.0,127.0,127.0,127.0,126.0,136.0,126.0,128.0,18.0,-104.0,-82.0,127.0,127.0,127.0,108.0,82.0,-5.0
127.0,127.0,127.0,127.0,126.0,137.0,126.0,127.0,18.0,-104.0,-82.0,127.0,127.0,127.0,108.0,82.0,-5.0
127.0,127.0,127.0,127.0,127.0,138.0,126.0,128.0,18.0,-104.0,-82.0,127.0,127.0,127.0,108.0,82.0,-5.0
127.0,127.0,127.0,127.0,127.0,138.0,126.0,128.0,18.0,-104.0,-82.0,127.0,127.0,127.0,108.0,82.0,-5.0
127.0,127.0,127.0,127.0,126.0,138.0,126.0,128.0,18.0,-104.0,-82.0,127.0,127.0,127.0,108.0,82.0,-5.0
127.0,127.0,127.0,127.0,126.0,138.0,126.0,128.0,18.0,-104.0,-82.0,127.0,127.0,127.0,108.0,82.0,-5.0
127.0,127.0,127.0,127.0,127.0,138.0,127.0,128.0,19.0,-103.0,-82.0,127.0,127.0,127.0,108.0,82.0,-5.0
127.0,127.0,127.0,127.0,127.0,138.0,127.0,128.0,19.0,-103.0,-82.0,127.0,127.0,127.0,108.0,82.0,-5.0
127.0,127.0,127.0,127.0,127.0,138.0,127.0,128.0,19.0,-103.0,-82.0,127.0,127.0,127.0,108.0,82.0,-5.0
127.0,127.0,127.0,127.0,127.0,137.0,126.0,128.0,19.0,-103.0,-82.0,127.0,127.0,127.0,108.0,82.0,-5.0
127.0,128.0,127.0,127.0,127.0,138.0,126.0,127.0,19.0,-103.0,-82.0,127.0,127.0,127.0,108.0,82.0,-5.0
127.0,128.0,127.0,127.0,127.0,138.0,126.0,128.0,19.0,-103.0,-82.0,127.0,127.0,127.0,108.0,82.0,-5.0
127.0,128.0,127.0,127.0,127.0,138.0,126.0,128.0,19.0,-103.0,-82.0,127.0,127.0,127.0,108.0,82.0,-5.0
127.0,127.0,127.0,127.0,127.0,138.0,127.0,128.0,19.0,-103.0,-82.0,127.0,127.0,127.0,108.0,82.0,-5.0
127.0,127.0,127.0,127.0,127.0,138.0,127.0,128.0,19.0,-103.0,-82.0,127.0,127.0,127.0,108.0,82.0,-5.0
127.0,127.0,127.0,127.0,127.0,138.0,127.0,128.0,19.0,-103.0,-82.0,127.0,127.0,127.0,108.0,82.0,-5.0
127.0,126.0,127.0,127.0,127.0,138.0,127.0,128.0,19.0,-103.0,-82.0,127.0,127.0,127.0,108.0,82.0,-5.0
127.0,126.0,127.0,127.0,127.0,138.0,126.0,128.0,19.0,-103.0,-82.0,127.0,127.0,127.0,108.0,82.0,-5.0
127.0,127.0,127.0,127.0,127.0,137.0,127.0,128.0,19.0,-103.0,-82.0,127.0,127.0,127.0,108.0,82.0,-5.0
127.0,127.0,126.0,127.0,127.0,137.0,126.0,128.0,19.0,-103.0,-82.0,127.0,127.0,127.0,108.0,82.0,-5.0
127.0,127.0,126.0,127.0,127.0,138.0,126.0,128.0,19.0,-103.0,-82.0,127.0,127.0,127.0,108.0,82.0,-5.0
127.0,127.0,126.0,127.0,127.0,138.0,126.0,128.0,19.0,-103.0,-82.0,127.0,127.0,127.0,108.0,82.0,-5.0
127.0,127.0,126.0,127.0,127.0,138.0,126.0,128.0,19.0,-103.0,-82.0,127.0,127.0,127.0,108.0,82.0,-5.0
127.0,127.0,126.0,127.0,127.0,138.0,126.0,128.0,19.0,-103.0,-82.0,127.0,127.0,127.0,108.0,82.0,-5.0
127.0,127.0,126.0,127.0,127.0,138.0,126.0,128.0,19.0,-103.0,-82.0,127.0,127.0,127.0,108.0,82.0,-5.0
127.0,127.0,127.0,127.0,127.0,138.0,127.0,128.0,19.0,-103.0,-82.0,127.0,127.0,127.0,108.0,82.0,-5.0
127.0,127.0,126.0,127.0,127.0,136.0,127.0,128.0,19.0,-103.0,-82.0,127.0,127.0,127.0,108.0,82.0,-5.0
126.0,127.0,126.0,127.0,127.0,136.0,127.0,128.0,19.0,-103.0,-82.0,127.0,127.0,127.0,108.0,82.0,-5.0
126.0,127.0,126.0,127.0,127.0,136.0,126.0,128.0,19.0,-103.0,-82.0,127.0,127.0,127.0,108.0,82.0,-5.0
126.0,127.0,126.0,127.0,127.0,138.0,126.0,128.0,19.0,-103.0,-82.0,127.0,127.0,127.0,108.0,82.0,-5.0
127.0,127.0,126.0,127.0,127.0,138.0,126.0,128.0,19.0,-103.0,-82.0,127.0,127.0,127.0,108.0,82.0,-5.0
127.0,127.0,126.0,127.0,127.0,137.0,126.0,128.0,19.0,-103.0,-82.0,127.0,127.0,127.0,108.0,82.0,-5.0
127.0,127.0,127.0,127.0,127.0,137.0,126.0,128.0,19.0,-103.0,-82.0,127.0,127.0,127.0,108.0,82.0,-5.0
127.0,127.0,127.0,127.0,127.0,137.0,127.0,128.0,19.0,-103.0,-82.0,127.0,127.0,127.0,108.0,82.0,-5.0
127.0,127.0,127.0,127.0,127.0,137.0,127.0,128.0,19.0,-103.0,-82.0,127.0,127.0,127.0,108.0,82.0,-5.0
127.0,127.0,127.0,127.0,127.0,137.0,127.0,128.0,19.0,-103.0,-82.0,127.0,127.0,127.0,108.0,82.0,-5.0
127.0,127.0,127.0,127.0,127.0,137.0,126.0,128.0,19.0,-103.0,-82.0,127.0,127.0,127.0,108.0,82.0,-5.0
127.0,127.0,127.0,127.0,127.0,137.0,126.0,128.0,19.0,-103.0,-82.0,127.0,127.0,127.0,108.0,82.0,-5.0
127.0,127.0,127.0,127.0,127.0,138.0,126.0,128.0,19.0,-103.0,-82.0,127.0,127.0,127.0,108.0,82.0,-5.0
127.0,127.0,127.0,127.0,127.0,138.0,126.0,128.0,19.0,-103.0,-82.0,127.0,127.0,127.0,108.0,82.0,-5.0
127.0,127.0,127.0,127.0,127.0,138.0,126.0,128.0,19.0,-103.0,-82.0,127.0,127.0,127.0,108.0,82.0,-5.0
127.0,127.0,127.0,127.0,127.0,138.0,126.0,128.0,19.0,-103.0,-82.0,127.0,127.0,127.0,108.0,82.0,-5.0
127.0,127.0,127.0,127.0,127.0,138.0,126.0,128.0,19.0,-103.0,-82.0,127.0,127.0,127.0,108.0,82.0,-5.0
127.0,127.0,127.0,127.0,127.0,138.0,126.0,128.0,19.0,-103.0,-82.0,127.0,127.0,127.0,108.0,82.0,-5.0
127.0,127.0,127.0,127.0,127.0,137.0,126.0,128.0,19.0,-103.0,-82.0,127.0,127.0,127.0,108.0,82.0,-5.0
127.0,127.0,127.0,128.0,127.0,137.0,126.0,128.0,19.0,-103.0,-82.0,127.0,127.0,127.0,108.0,82.0,-5.0
126.0,126.0,128.0,128.0,128.0,136.0,128.0,128.0,19.0,-103.0,-82.0,127.0,127.0,127.0,108.0,82.0,-5.0
127.0,126.0,128.0,128.0,128.0,136.0,129.0,128.0,19.0,-103.0,-82.0,127.0,127.0,127.0,108.0,82.0,-5.0
126.0,126.0,128.0,128.0,128.0,136.0,129.0,128.0,19.0,-103.0,-82.0,127.0,127.0,127.0,108.0,82.0,-5.0
127.0,126.0,128.0,128.0,128.0,136.0,129.0,128.0,19.0,-103.0,-82.0,127.0,127.0,127.0,108.0,82.0,-5.0
127.0,127.0,127.0,128.0,128.0,137.0,129.0,128.0,19.0,-103.0,-82.0,127.0,127.0,127.0,108.0,82.0,-5.0
127.0,127.0,127.0,128.0,128.0,138.0,129.0,128.0,19.0,-103.0,-82.0,127.0,127.0,127.0,108.0,82.0,-5.0
127.0,127.0,127.0,128.0,128.0,138.0,129.0,128.0,19.0,-103.0,-82.0,127.0,127.0,127.0,108.0,82.0,-5.0
126.0,126.0,127.0,128.0,128.0,138.0,129.0,128.0,19.0,-103.0,-82.0,127.0,127.0,127.0,108.0,82.0,-5.0
126.0,126.0,128.0,128.0,128.0,136.0,128.0,128.0,19.0,-103.0,-82.0,127.0,127.0,127.0,108.0,82.0,-5.0
126.0,126.0,128.0,128.0,128.0,136.0,128.0,128.0,19.0,-103.0,-82.0,127.0,127.0,127.0,108.0,82.0,-5.0
126.0,128.0,126.0,129.0,128.0,103.0,128.0,127.0,19.0,-103.0,-82.0,127.0,127.0,127.0,108.0,82.0,-5.0
126.0,128.0,126.0,129.0,128.0,100.0,128.0,127.0,19.0,-103.0,-82.0,127.0,127.0,127.0,108.0,82.0,-5.0
126.0,128.0,126.0,129.0,128.0,96.0,128.0,126.0,19.0,-103.0,-82.0,127.0,127.0,127.0,108.0,82.0,-5.0
126.0,127.0,126.0,129.0,128.0,92.0,128.0,126.0,19.0,-103.0,-82.0,127.0,127.0,127.0,108.0,82.0,-5.0
126.0,127.0,126.0,129.0,128.0,88.0,128.0,126.0,19.0,-103.0,-82.0,127.0,127.0,127.0,108.0,82.0,-5.0
126.0,127.0,126.0,129.0,128.0,84.0,129.0,126.0,19.0,-103.0,-82.0,127.0,127.0,127.0,108.0,82.0,-5.0
125.0,127.0,127.0,129.0,128.0,79.0,129.0,126.0,19.0,-103.0,-82.0,127.0,127.0,127.0,108.0,82.0,-5.0
126.0,127.0,127.0,129.0,128.0,111.0,128.0,127.0,19.0,-103.0,-82.0,127.0,127.0,127.0,108.0,82.0,-5.0
126.0,127.0,127.0,129.0,128.0,108.0,128.0,127.0,19.0,-103.0,-82.0,127.0,127.0,127.0,108.0,82.0,-5.0
126.0,127.0,127.0,129.0,128.0,105.0,128.0,127.0,19.0,-103.0,-82.0,127.0,127.0,127.0,108.0,82.0,-5.0
125.0,130.0,121.0,128.0,134.0,0.0,128.0,127.0,19.0,-102.0,-83.0,127.0,127.0,127.0,108.0,82.0,-5.0
125.0,130.0,122.0,129.0,134.0,0.0,128.0,127.0,19.0,-102.0,-83.0,127.0,127.0,127.0,108.0,82.0,-5.0
125.0,130.0,122.0,129.0,135.0,0.0,127.0,127.0,19.0,-102.0,-83.0,127.0,127.0,127.0,108.0,82.0,-5.0
125.0,130.0,122.0,130.0,136.0,0.0,126.0,127.0,19.0,-102.0,-83.0,127.0,127.0,127.0,108.0,82.0,-5.0
125.0,130.0,122.0,131.0,137.0,0.0,126.0,126.0,19.0,-102.0,-83.0,127.0,127.0,127.0,108.0,82.0,-5.0
125.0,130.0,122.0,132.0,138.0,0.0,125.0,126.0,19.0,-102.0,-83.0,127.0,127.0,127.0,108.0,82.0,-5.0
125.0,130.0,121.0,128.0,132.0,0.0,127.0,126.0,19.0,-102.0,-83.0,127.0,127.0,127.0,108.0,82.0,-5.0
125.0,130.0,121.0,128.0,133.0,0.0,128.0,127.0,19.0,-102.0,-83.0,127.0,127.0,127.0,108.0,82.0,-5.0
125.0,130.0,121.0,128.0,133.0,0.0,128.0,127.0,19.0,-102.0,-83.0,127.0,127.0,127.0,108.0,82.0,-5.0
125.0,130.0,121.0,128.0,133.0,0.0,128.0,127.0,19.0,-102.0,-83.0,127.0,127.0,127.0,108.0,82.0,-5.0
117.0,132.0,115.0,139.0,147.0,0.0,129.0,127.0,20.0,-102.0,-84.0,-128.0,127.0,127.0,108.0,82.0,-5.0
117.0,132.0,114.0,140.0,148.0,0.0,129.0,127.0,20.0,-102.0,-84.0,-128.0,127.0,127.0,108.0,82.0,-5.0
117.0,131.0,114.0,141.0,148.0,0.0,128.0,127.0,20.0,-102.0,-84.0,-128.0,127.0,127.0,108.0,82.0,-5.0
117.0,131.0,113.0,141.0,148.0,0.0,128.0,127.0,20.0,-102.0,-84.0,-128.0,127.0,127.0,108.0,82.0,-5.0
117.0,130.0,113.0,142.0,148.0,0.0,127.0,127.0,20.0,-102.0,-84.0,-128.0,127.0,127.0,108.0,82.0,-5.0
117.0,132.0,117.0,136.0,147.0,0.0,125.0,125.0,20.0,-102.0,-84.0,-128.0,127.0,127.0,108.0,82.0,-5.0
117.0,132.0,116.0,137.0,147.0,0.0,126.0,126.0,20.0,-102.0,-84.0,-128.0,127.0,127.0,108.0,82.0,-5.0
117.0,132.0,116.0,137.0,147.0,0.0,127.0,126.0,20.0,-102.0,-84.0,-128.0,127.0,127.0,108.0,82.0,-5.0
117.0,132.0,116.0,138.0,147.0,0.0,128.0,127.0,20.0,-102.0,-84.0,-128.0,127.0,127.0,108.0,82.0,-5.0
117.0,132.0,115.0,139.0,147.0,0.0,128.0,127.0,20.0,-102.0,-84.0,-128.0,127.0,127.0,108.0,82.0,-5.0
126.0,130.0,91.0,163.0,158.0,254.0,153.0,130.0,21.0,-102.0,-85.0,-127.0,127.0,127.0,108.0,82.0,-5.0
126.0,128.0,90.0,163.0,158.0,254.0,152.0,130.0,21.0,-102.0,-85.0,-127.0,127.0,127.0,108.0,82.0,-5.0
126.0,127.0,90.0,164.0,158.0,254.0,151.0,130.0,21.0,-102.0,-85.0,-127.0,127.0,127.0,108.0,82.0,-5.0
126.0,126.0,89.0,164.0,159.0,254.0,151.0,129.0,21.0,-102.0,-85.0,-127.0,127.0,127.0,108.0,82.0,-5.0
124.0,131.0,94.0,161.0,157.0,138.0,145.0,128.0,21.0,-102.0,-85.0,-127.0,127.0,127.0,108.0,82.0,-5.0
125.0,131.0,94.0,162.0,157.0,161.0,147.0,129.0,21.0,-102.0,-85.0,-127.0,127.0,127.0,108.0,82.0,-5.0
125.0,131.0,93.0,162.0,158.0,186.0,150.0,129.0,21.0,-102.0,-85.0,-127.0,127.0,127.0,108.0,82.0,-5.0
125.0,131.0,93.0,162.0,158.0,212.0,151.0,129.0,21.0,-102.0,-85.0,-127.0,127.0,127.0,108.0,82.0,-5.0
125.0,132.0,92.0,163.0,158.0,239.0,152.0,130.0,21.0,-102.0,-85.0,-127.0,127.0,127.0,108.0,82.0,-5.0
126.0,131.0,92.0,163.0,158.0,254.0,153.0,130.0,21.0,-102.0,-85.0,-127.0,127.0,127.0,108.0,82.0,-5.0
117.0,94.0,68.0,149.0,168.0,254.0,230.0,128.0,21.0,-106.0,-84.0,-125.0,-128.0,126.0,108.0,82.0,-5.0
117.0,95.0,68.0,148.0,167.0,254.0,229.0,127.0,21.0,-106.0,-84.0,-125.0,-128.0,126.0,108.0,82.0,-5.0
116.0,96.0,68.0,148.0,166.0,254.0,229.0,127.0,21.0,-106.0,-84.0,-125.0,-128.0,126.0,108.0,82.0,-5.0
121.0,101.0,74.0,155.0,176.0,254.0,229.0,128.0,21.0,-106.0,-84.0,-125.0,-128.0,126.0,108.0,82.0,-5.0
121.0,98.0,73.0,154.0,175.0,254.0,229.0,128.0,21.0,-106.0,-84.0,-125.0,-128.0,126.0,108.0,82.0,-5.0
120.0,96.0,73.0,154.0,174.0,254.0,229.0,128.0,21.0,-106.0,-84.0,-125.0,-128.0,126.0,108.0,82.0,-5.0
119.0,95.0,72.0,153.0,173.0,254.0,230.0,128.0,21.0,-106.0,-84.0,-125.0,-128.0,126.0,108.0,82.0,-5.0
119.0,94.0,71.0,152.0,172.0,254.0,230.0,128.0,21.0,-106.0,-84.0,-125.0,-128.0,126.0,108.0,82.0,-5.0
118.0,94.0,70.0,151.0,171.0,254.0,230.0,128.0,21.0,-106.0,-84.0,-125.0,-128.0,126.0,108.0,82.0,-5.0
118.0,94.0,69.0,150.0,170.0,254.0,230.0,128.0,21.0,-106.0,-84.0,-125.0,-128.0,126.0,108.0,82.0,-5.0
100.0,76.0,18.0,120.0,75.0,254.0,78.0,122.0,19.0,-111.0,-84.0,-124.0,-128.0,126.0,108.0,82.0,-5.0
100.0,77.0,19.0,121.0,74.0,254.0,78.0,122.0,19.0,-111.0,-84.0,-124.0,-128.0,126.0,108.0,82.0,-5.0
95.0,65.0,16.0,118.0,84.0,254.0,98.0,122.0,19.0,-111.0,-84.0,-124.0,-128.0,126.0,108.0,82.0,-5.0
95.0,66.0,15.0,118.0,83.0,254.0,95.0,121.0,19.0,-111.0,-84.0,-124.0,-128.0,126.0,108.0,82.0,-5.0
95.0,67.0,14.0,118.0,82.0,254.0,91.0,121.0,19.0,-111.0,-84.0,-124.0,-128.0,126.0,108.0,82.0,-5.0
96.0,68.0,14.0,119.0,80.0,254.0,88.0,121.0,19.0,-111.0,-84.0,-124.0,-128.0,126.0,108.0,82.0,-5.0
96.0,70.0,15.0,119.0,79.0,254.0,86.0,121.0,19.0,-111.0,-84.0,-124.0,-128.0,126.0,108.0,82.0,-5.0
97.0,72.0,15.0,120.0,78.0,254.0,84.0,121.0,19.0,-111.0,-84.0,-124.0,-128.0,126.0,108.0,82.0,-5.0
98.0,73.0,16.0,120.0,77.0,254.0,82.0,121.0,19.0,-111.0,-84.0,-124.0,-128.0,126.0,108.0,82.0,-5.0
98.0,75.0,18.0,120.0,76.0,254.0,80.0,122.0,19.0,-111.0,-84.0,-124.0,-128.0,126.0,108.0,82.0,-5.0
154.0,127.0,115.0,125.0,74.0,254.0,94.0,131.0,17.0,-113.0,-86.0,-122.0,-128.0,126.0,109.0,82.0,-5.0
149.0,122.0,83.0,126.0,68.0,254.0,82.0,131.0,17.0,-113.0,-86.0,-122.0,-128.0,126.0,109.0,82.0,-5.0
150.0,123.0,86.0,126.0,69.0,254.0,84.0,131.0,17.0,-113.0,-86.0,-122.0,-128.0,126.0,109.0,82.0,-5.0
150.0,123.0,90.0,126.0,69.0,254.0,85.0,131.0,17.0,-113.0,-86.0,-122.0,-128.0,126.0,109.0,82.0,-5.0
151.0,124.0,94.0,125.0,70.0,254.0,87.0,131.0,17.0,-113.0,-86.0,-122.0,-128.0,126.0,109.0,82.0,-5.0
151.0,125.0,97.0,125.0,70.0,254.0,89.0,131.0,17.0,-113.0,-86.0,-122.0,-128.0,126.0,109.0,82.0,-5.0
152.0,125.0,100.0,125.0,71.0,254.0,90.0,132.0,17.0,-113.0,-86.0,-122.0,-128.0,126.0,109.0,82.0,-5.0
152.0,126.0,103.0,125.0,72.0,254.0,92.0,131.0,17.0,-113.0,-86.0,-122.0,-128.0,126.0,109.0,82.0,-5.0
153.0,126.0,107.0,125.0,72.0,254.0,93.0,131.0,17.0,-113.0,-86.0,-122.0,-128.0,126.0,109.0,82.0,-5.0
154.0,127.0,111.0,125.0,73.0,254.0,93.0,131.0,17.0,-113.0,-86.0,-122.0,-128.0,126.0,109.0,82.0,-5.0
159.0,138.0,233.0,116.0,105.0,254.0,122.0,130.0,16.0,-106.0,-87.0,-122.0,-128.0,126.0,109.0,82.0,-5.0
159.0,138.0,235.0,116.0,105.0,254.0,121.0,129.0,16.0,-106.0,-87.0,-122.0,-128.0,126.0,109.0,82.0,-5.0
159.0,139.0,236.0,117.0,106.0,254.0,120.0,129.0,16.0,-106.0,-87.0,-122.0,-128.0,126.0,109.0,82.0,-5.0
158.0,139.0,238.0,117.0,107.0,254.0,120.0,128.0,16.0,-106.0,-87.0,-122.0,-128.0,126.0,109.0,82.0,-5.0
158.0,139.0,239.0,118.0,108.0,254.0,119.0,128.0,16.0,-106.0,-87.0,-122.0,-128.0,126.0,109.0,82.0,-5.0
158.0,138.0,240.0,118.0,109.0,254.0,118.0,128.0,16.0,-106.0,-87.0,-122.0,-128.0,126.0,109.0,82.0,-5.0
158.0,137.0,241.0,119.0,110.0,254.0,118.0,128.0,16.0,-106.0,-87.0,-122.0,-128.0,126.0,109.0,82.0,-5.0
157.0,137.0,243.0,119.0,111.0,254.0,117.0,128.0,16.0,-106.0,-87.0,-122.0,-128.0,126.0,109.0,82.0,-5.0
157.0,137.0,243.0,120.0,112.0,254.0,117.0,128.0,16.0,-106.0,-87.0,-122.0,-128.0,126.0,109.0,82.0,-5.0
157.0,136.0,245.0,120.0,112.0,254.0,116.0,127.0,16.0,-106.0,-87.0,-122.0,-128.0,126.0,109.0,82.0,-5.0
152.0,139.0,220.0,129.0,139.0,254.0,113.0,128.0,16.0,-98.0,-88.0,-124.0,-128.0,126.0,109.0,82.0,-5.0
152.0,138.0,219.0,129.0,138.0,254.0,112.0,128.0,16.0,-98.0,-88.0,-124.0,-128.0,126.0,109.0,82.0,-5.0
152.0,138.0,218.0,129.0,138.0,254.0,111.0,128.0,16.0,-98.0,-88.0,-124.0,-128.0,126.0,109.0,82.0,-5.0
152.0,139.0,217.0,130.0,137.0,254.0,110.0,128.0,16.0,-98.0,-88.0,-124.0,-128.0,126.0,109.0,82.0,-5.0
152.0,139.0,215.0,129.0,137.0,254.0,109.0,128.0,16.0,-98.0,-88.0,-124.0,-128.0,126.0,109.0,82.0,-5.0
152.0,139.0,214.0,129.0,136.0,254.0,108.0,128.0,16.0,-98.0,-88.0,-124.0,-128.0,126.0,109.0,82.0,-5.0
152.0,139.0,212.0,129.0,135.0,254.0,107.0,128.0,16.0,-98.0,-88.0,-124.0,-128.0,126.0,109.0,82.0,-5.0
152.0,140.0,210.0,129.0,134.0,254.0,107.0,128.0,16.0,-98.0,-88.0,-124.0,-128.0,126.0,109.0,82.0,-5.0
152.0,141.0,209.0,128.0,133.0,254.0,107.0,128.0,16.0,-98.0,-88.0,-124.0,-128.0,126.0,109.0,82.0,-5.0
152.0,139.0,222.0,129.0,139.0,254.0,114.0,128.0,16.0,-98.0,-88.0,-124.0,-128.0,126.0,109.0,82.0,-5.0
148.0,138.0,156.0,108.0,109.0,254.0,123.0,130.0,17.0,-96.0,-89.0,-125.0,-128.0,126.0,108.0,82.0,-5.0
148.0,138.0,155.0,108.0,109.0,254.0,122.0,130.0,17.0,-96.0,-89.0,-125.0,-128.0,126.0,108.0,82.0,-5.0
148.0,138.0,154.0,107.0,109.0,254.0,121.0,130.0,17.0,-96.0,-89.0,-125.0,-128.0,126.0,108.0,82.0,-5.0
148.0,138.0,153.0,107.0,108.0,254.0,120.0,130.0,17.0,-96.0,-89.0,-125.0,-128.0,126.0,108.0,82.0,-5.0
148.0,138.0,152.0,106.0,108.0,254.0,119.0,130.0,17.0,-96.0,-89.0,-125.0,-128.0,126.0,108.0,82.0,-5.0
148.0,138.0,151.0,106.0,108.0,254.0,119.0,130.0,17.0,-96.0,-89.0,-125.0,-128.0,126.0,108.0,82.0,-5.0
148.0,137.0,149.0,106.0,107.0,254.0,119.0,130.0,17.0,-96.0,-89.0,-125.0,-128.0,126.0,108.0,82.0,-5.0
148.0,137.0,148.0,105.0,107.0,254.0,119.0,130.0,17.0,-96.0,-89.0,-125.0,-128.0,126.0,108.0,82.0,-5.0
148.0,138.0,159.0,110.0,110.0,254.0,125.0,130.0,17.0,-96.0,-89.0,-125.0,-128.0,126.0,108.0,82.0,-5.0
148.0,138.0,157.0,109.0,110.0,254.0,124.0,130.0,17.0,-96.0,-89.0,-125.0,-128.0,126.0,108.0,82.0,-5.0
151.0,136.0,138.0,106.0,112.0,254.0,127.0,131.0,15.0,-100.0,-91.0,-126.0,-128.0,126.0,108.0,82.0,-5.0
152.0,136.0,137.0,106.0,112.0,254.0,125.0,131.0,15.0,-100.0,-91.0,-126.0,-128.0,126.0,108.0,82.0,-5.0
152.0,135.0,137.0,106.0,112.0,254.0,124.0,131.0,15.0,-100.0,-91.0,-126.0,-128.0,126.0,108.0,82.0,-5.0
152.0,135.0,137.0,106.0,112.0,254.0,122.0,131.0,15.0,-100.0,-91.0,-126.0,-128.0,126.0,108.0,82.0,-5.0
152.0,135.0,136.0,106.0,112.0,254.0,120.0,131.0,15.0,-100.0,-91.0,-126.0,-128.0,126.0,108.0,82.0,-5.0
152.0,135.0,136.0,106.0,112.0,254.0,119.0,131.0,15.0,-100.0,-91.0,-126.0,-128.0,126.0,108.0,82.0,-5.0
152.0,135.0,135.0,107.0,112.0,254.0,119.0,130.0,15.0,-100.0,-91.0,-126.0,-128.0,126.0,108.0,82.0,-5.0
151.0,136.0,138.0,106.0,111.0,254.0,132.0,131.0,15.0,-100.0,-91.0,-126.0,-128.0,126.0,108.0,82.0,-5.0
151.0,136.0,138.0,106.0,112.0,254.0,131.0,131.0,15.0,-100.0,-91.0,-126.0,-128.0,126.0,108.0,82.0,-5.0
151.0,136.0,138.0,106.0,112.0,254.0,129.0,131.0,15.0,-100.0,-91.0,-126.0,-128.0,126.0,108.0,82.0,-5.0
151.0,134.0,135.0,112.0,119.0,254.0,129.0,130.0,14.0,-101.0,-94.0,-126.0,127.0,126.0,107.0,82.0,-5.0
151.0,134.0,134.0,112.0,120.0,254.0,128.0,130.0,14.0,-101.0,-94.0,-126.0,127.0,126.0,107.0,82.0,-5.0
151.0,134.0,133.0,112.0,120.0,254.0,127.0,130.0,14.0,-101.0,-94.0,-126.0,127.0,126.0,107.0,82.0,-5.0
151.0,134.0,133.0,112.0,120.0,254.0,126.0,129.0,14.0,-101.0,-94.0,-126.0,127.0,126.0,107.0,82.0,-5.0
151.0,134.0,133.0,112.0,120.0,254.0,125.0,129.0,14.0,-101.0,-94.0,-126.0,127.0,126.0,107.0,82.0,-5.0
150.0,134.0,132.0,112.0,120.0,254.0,124.0,129.0,14.0,-101.0,-94.0,-126.0,127.0,126.0,107.0,82.0,-5.0
152.0,133.0,137.0,112.0,120.0,254.0,130.0,129.0,14.0,-101.0,-94.0,-126.0,127.0,126.0,107.0,82.0,-5.0
151.0,134.0,137.0,112.0,120.0,254.0,130.0,129.0,14.0,-101.0,-94.0,-126.0,127.0,126.0,107.0,82.0,-5.0
151.0,134.0,136.0,112.0,120.0,254.0,130.0,130.0,14.0,-101.0,-94.0,-126.0,127.0,126.0,107.0,82.0,-5.0
151.0,134.0,136.0,112.0,120.0,254.0,130.0,130.0,14.0,-101.0,-94.0,-126.0,127.0,126.0,107.0,82.0,-5.0
147.0,131.0,127.0,113.0,126.0,254.0,119.0,128.0,14.0,-100.0,-96.0,-127.0,127.0,127.0,106.0,82.0,-5.0
147.0,131.0,127.0,113.0,126.0,254.0,120.0,128.0,14.0,-100.0,-96.0,-127.0,127.0,127.0,106.0,82.0,-5.0
146.0,131.0,127.0,113.0,126.0,254.0,120.0,128.0,14.0,-100.0,-96.0,-127.0,127.0,127.0,106.0,82.0,-5.0
146.0,131.0,127.0,113.0,126.0,254.0,121.0,128.0,14.0,-100.0,-96.0,-127.0,127.0,127.0,106.0,82.0,-5.0
146.0,131.0,127.0,113.0,126.0,254.0,121.0,128.0,14.0,-100.0,-96.0,-127.0,127.0,127.0,106.0,82.0,-5.0
147.0,135.0,130.0,113.0,126.0,254.0,121.0,129.0,14.0,-100.0,-96.0,-127.0,127.0,127.0,106.0,82.0,-5.0
147.0,133.0,129.0,113.0,126.0,254.0,120.0,129.0,14.0,-100.0,-96.0,-127.0,127.0,127.0,106.0,82.0,-5.0
147.0,133.0,128.0,113.0,126.0,254.0,120.0,128.0,14.0,-100.0,-96.0,-127.0,127.0,127.0,106.0,82.0,-5.0
147.0,132.0,128.0,113.0,126.0,254.0,119.0,128.0,14.0,-100.0,-96.0,-127.0,127.0,127.0,106.0,82.0,-5.0
147.0,132.0,127.0,113.0,126.0,254.0,119.0,128.0,14.0,-100.0,-96.0,-127.0,127.0,127.0,106.0,82.0,-5.0
144.0,134.0,126.0,115.0,126.0,254.0,128.0,128.0,13.0,-98.0,-98.0,-128.0,127.0,127.0,106.0,82.0,-5.0
143.0,133.0,126.0,115.0,126.0,254.0,128.0,128.0,13.0,-98.0,-98.0,-128.0,127.0,127.0,106.0,82.0,-5.0
143.0,132.0,126.0,115.0,126.0,254.0,128.0,128.0,13.0,-98.0,-98.0,-128.0,127.0,127.0,106.0,82.0,-5.0
143.0,132.0,126.0,115.0,126.0,254.0,129.0,128.0,13.0,-98.0,-98.0,-128.0,127.0,127.0,106.0,82.0,-5.0
144.0,132.0,127.0,115.0,126.0,254.0,126.0,129.0,13.0,-98.0,-98.0,-128.0,127.0,127.0,106.0,82.0,-5.0
144.0,134.0,126.0,115.0,125.0,254.0,126.0,129.0,13.0,-98.0,-98.0,-128.0,127.0,127.0,106.0,82.0,-5.0
144.0,135.0,126.0,115.0,126.0,254.0,127.0,129.0,13.0,-98.0,-98.0,-128.0,127.0,127.0,106.0,82.0,-5.0
144.0,136.0,126.0,115.0,126.0,254.0,127.0,128.0,13.0,-98.0,-98.0,-128.0,127.0,127.0,106.0,82.0,-5.0
144.0,136.0,127.0,115.0,126.0,254.0,127.0,128.0,13.0,-98.0,-98.0,-128.0,127.0,127.0,106.0,82.0,-5.0
144.0,135.0,127.0,115.0,126.0,254.0,128.0,128.0,13.0,-98.0,-98.0,-128.0,127.0,127.0,106.0,82.0,-5.0
141.0,128.0,125.0,116.0,125.0,254.0,123.0,128.0,11.0,-98.0,-99.0,-128.0,127.0,127.0,105.0,82.0,-5.0
141.0,128.0,125.0,116.0,125.0,254.0,123.0,129.0,11.0,-98.0,-99.0,-128.0,127.0,127.0,105.0,82.0,-5.0
142.0,129.0,125.0,116.0,124.0,254.0,123.0,129.0,11.0,-98.0,-99.0,-128.0,127.0,127.0,105.0,82.0,-5.0
141.0,132.0,126.0,118.0,125.0,254.0,122.0,128.0,11.0,-98.0,-99.0,-128.0,127.0,127.0,105.0,82.0,-5.0
141.0,130.0,126.0,118.0,125.0,254.0,122.0,127.0,11.0,-98.0,-99.0,-128.0,127.0,127.0,105.0,82.0,-5.0
141.0,128.0,126.0,118.0,125.0,254.0,122.0,127.0,11.0,-98.0,-99.0,-128.0,127.0,127.0,105.0,82.0,-5.0
141.0,127.0,125.0,117.0,125.0,254.0,122.0,127.0,11.0,-98.0,-99.0,-128.0,127.0,127.0,105.0,82.0,-5.0
141.0,127.0,125.0,117.0,125.0,254.0,122.0,127.0,11.0,-98.0,-99.0,-128.0,127.0,127.0,105.0,82.0,-5.0
141.0,127.0,125.0,117.0,125.0,254.0,123.0,128.0,11.0,-98.0,-99.0,-128.0,127.0,127.0,105.0,82.0,-5.0
141.0,127.0,125.0,117.0,125.0,254.0,123.0,128.0,11.0,-98.0,-99.0,-128.0,127.0,127.0,105.0,82.0,-5.0
140.0,131.0,126.0,118.0,127.0,254.0,118.0,129.0,9.0,-99.0,-100.0,-128.0,127.0,127.0,104.0,82.0,-5.0
141.0,129.0,127.0,117.0,126.0,254.0,126.0,130.0,9.0,-99.0,-100.0,-128.0,127.0,127.0,104.0,82.0,-5.0
141.0,129.0,127.0,117.0,126.0,254.0,125.0,130.0,9.0,-99.0,-100.0,-128.0,127.0,127.0,104.0,82.0,-5.0
141.0,129.0,128.0,117.0,126.0,254.0,124.0,130.0,9.0,-99.0,-100.0,-128.0,127.0,127.0,104.0,82.0,-5.0
141.0,129.0,128.0,117.0,126.0,254.0,123.0,130.0,9.0,-99.0,-100.0,-128.0,127.0,127.0,104.0,82.0,-5.0
141.0,129.0,127.0,117.0,126.0,254.0,121.0,130.0,9.0,-99.0,-100.0,-128.0,127.0,127.0,104.0,82.0,-5.0
141.0,129.0,127.0,118.0,126.0,254.0,120.0,130.0,9.0,-99.0,-100.0,-128.0,127.0,127.0,104.0,82.0,-5.0
140.0,129.0,126.0,118.0,126.0,254.0,119.0,129.0,9.0,-99.0,-100.0,-128.0,127.0,127.0,104.0,82.0,-5.0
140.0,130.0,126.0,118.0,127.0,254.0,119.0,129.0,9.0,-99.0,-100.0,-128.0,127.0,127.0,104.0,82.0,-5.0
140.0,130.0,126.0,118.0,127.0,254.0,119.0,129.0,9.0,-99.0,-100.0,-128.0,127.0,127.0,104.0,82.0,-5.0
139.0,131.0,127.0,121.0,129.0,254.0,123.0,129.0,9.0,-99.0,-100.0,-128.0,127.0,127.0,104.0,82.0,-5.0
139.0,131.0,127.0,120.0,129.0,254.0,122.0,129.0,9.0,-99.0,-100.0,-128.0,127.0,127.0,104.0,82.0,-5.0
139.0,132.0,127.0,120.0,129.0,254.0,122.0,129.0,9.0,-99.0,-100.0,-128.0,127.0,127.0,104.0,82.0,-5.0
139.0,133.0,127.0,120.0,129.0,254.0,121.0,129.0,9.0,-99.0,-100.0,-128.0,127.0,127.0,104.0,82.0,-5.0
139.0,133.0,127.0,120.0,128.0,254.0,121.0,129.0,9.0,-99.0,-100.0,-128.0,127.0,127.0,104.0,82.0,-5.0
139.0,134.0,127.0,119.0,128.0,254.0,121.0,128.0,9.0,-99.0,-100.0,-128.0,127.0,127.0,104.0,82.0,-5.0
139.0,135.0,127.0,119.0,128.0,254.0,121.0,128.0,9.0,-99.0,-100.0,-128.0,127.0,127.0,104.0,82.0,-5.0
139.0,135.0,127.0,119.0,128.0,254.0,121.0,128.0,9.0,-99.0,-100.0,-128.0,127.0,127.0,104.0,82.0,-5.0
139.0,134.0,127.0,119.0,128.0,254.0,121.0,128.0,9.0,-99.0,-100.0,-128.0,127.0,127.0,104.0,82.0,-5.0
139.0,133.0,127.0,119.0,128.0,254.0,121.0,128.0,9.0,-99.0,-100.0,-128.0,127.0,127.0,104.0,82.0,-5.0
138.0,130.0,126.0,120.0,131.0,254.0,135.0,129.0,9.0,-98.0,-100.0,-128.0,127.0,127.0,103.0,82.0,-5.0
138.0,131.0,126.0,120.0,131.0,254.0,132.0,129.0,9.0,-98.0,-100.0,-128.0,127.0,127.0,103.0,82.0,-5.0
138.0,131.0,126.0,120.0,131.0,254.0,130.0,129.0,9.0,-98.0,-100.0,-128.0,127.0,127.0,103.0,82.0,-5.0
138.0,131.0,126.0,120.0,131.0,254.0,128.0,129.0,9.0,-98.0,-100.0,-128.0,127.0,127.0,103.0,82.0,-5.0
138.0,130.0,126.0,120.0,131.0,254.0,127.0,129.0,9.0,-98.0,-100.0,-128.0,127.0,127.0,103.0,82.0,-5.0
138.0,130.0,127.0,120.0,131.0,254.0,126.0,129.0,9.0,-98.0,-100.0,-128.0,127.0,127.0,103.0,82.0,-5.0
138.0,130.0,127.0,120.0,131.0,254.0,125.0,129.0,9.0,-98.0,-100.0,-128.0,127.0,127.0,103.0,82.0,-5.0
138.0,130.0,127.0,120.0,131.0,254.0,124.0,129.0,9.0,-98.0,-100.0,-128.0,127.0,127.0,103.0,82.0,-5.0
138.0,129.0,127.0,120.0,131.0,254.0,124.0,129.0,9.0,-98.0,-100.0,-128.0,127.0,127.0,103.0,82.0,-5.0
138.0,130.0,126.0,120.0,130.0,254.0,137.0,129.0,9.0,-98.0,-100.0,-128.0,127.0,127.0,103.0,82.0,-5.0
137.0,132.0,127.0,121.0,129.0,254.0,120.0,130.0,9.0,-98.0,-100.0,127.0,127.0,127.0,102.0,82.0,-5.0
137.0,132.0,127.0,121.0,129.0,254.0,121.0,130.0,9.0,-98.0,-100.0,127.0,127.0,127.0,102.0,82.0,-5.0
137.0,131.0,127.0,121.0,129.0,254.0,121.0,130.0,9.0,-98.0,-100.0,127.0,127.0,127.0,102.0,82.0,-5.0
136.0,130.0,127.0,121.0,129.0,254.0,121.0,131.0,9.0,-98.0,-100.0,127.0,127.0,127.0,102.0,82.0,-5.0
136.0,128.0,127.0,121.0,128.0,254.0,122.0,131.0,9.0,-98.0,-100.0,127.0,127.0,127.0,102.0,82.0,-5.0
136.0,128.0,127.0,120.0,128.0,254.0,123.0,131.0,9.0,-98.0,-100.0,127.0,127.0,127.0,102.0,82.0,-5.0
136.0,127.0,127.0,120.0,128.0,254.0,124.0,131.0,9.0,-98.0,-100.0,127.0,127.0,127.0,102.0,82.0,-5.0
136.0,127.0,126.0,120.0,128.0,254.0,124.0,131.0,9.0,-98.0,-100.0,127.0,127.0,127.0,102.0,82.0,-5.0
136.0,130.0,127.0,122.0,130.0,254.0,121.0,129.0,9.0,-98.0,-100.0,127.0,127.0,127.0,102.0,82.0,-5.0
136.0,131.0,127.0,122.0,130.0,254.0,120.0,129.0,9.0,-98.0,-100.0,127.0,127.0,127.0,102.0,82.0,-5.0
136.0,126.0,127.0,124.0,127.0,254.0,125.0,128.0,9.0,-98.0,-100.0,127.0,127.0,127.0,101.0,82.0,-5.0
136.0,127.0,127.0,124.0,127.0,254.0,126.0,128.0,9.0,-98.0,-100.0,127.0,127.0,127.0,101.0,82.0,-5.0
136.0,127.0,127.0,124.0,127.0,254.0,127.0,128.0,9.0,-98.0,-100.0,127.0,127.0,127.0,101.0,82.0,-5.0
136.0,127.0,128.0,124.0,127.0,254.0,127.0,128.0,9.0,-98.0,-100.0,127.0,127.0,127.0,101.0,82.0,-5.0
136.0,127.0,128.0,125.0,127.0,254.0,127.0,128.0,9.0,-98.0,-100.0,127.0,127.0,127.0,101.0,82.0,-5.0
136.0,127.0,128.0,125.0,127.0,254.0,127.0,128.0,9.0,-98.0,-100.0,127.0,127.0,127.0,101.0,82.0,-5.0
136.0,127.0,127.0,125.0,128.0,254.0,127.0,128.0,9.0,-98.0,-100.0,127.0,127.0,127.0,101.0,82.0,-5.0
136.0,126.0,126.0,123.0,127.0,254.0,121.0,128.0,9.0,-98.0,-100.0,127.0,127.0,127.0,101.0,82.0,-5.0
136.0,126.0,126.0,124.0,127.0,254.0,122.0,128.0,9.0,-98.0,-100.0,127.0,127.0,127.0,101.0,82.0,-5.0
136.0,126.0,126.0,124.0,127.0,254.0,124.0,128.0,9.0,-98.0,-100.0,127.0,127.0,127.0,101.0,82.0,-5.0
135.0,127.0,123.0,122.0,123.0,254.0,121.0,129.0,8.0,-98.0,-100.0,127.0,127.0,127.0,101.0,82.0,-5.0
135.0,127.0,123.0,122.0,124.0,254.0,121.0,129.0,8.0,-98.0,-100.0,127.0,127.0,127.0,101.0,82.0,-5.0
135.0,127.0,123.0,122.0,124.0,254.0,122.0,129.0,8.0,-98.0,-100.0,127.0,127.0,127.0,101.0,82.0,-5.0
135.0,127.0,124.0,122.0,124.0,254.0,123.0,129.0,8.0,-98.0,-100.0,127.0,127.0,127.0,101.0,82.0,-5.0
135.0,127.0,124.0,122.0,124.0,254.0,123.0,129.0,8.0,-98.0,-100.0,127.0,127.0,127.0,101.0,82.0,-5.0
135.0,128.0,125.0,122.0,124.0,254.0,124.0,128.0,8.0,-98.0,-100.0,127.0,127.0,127.0,101.0,82.0,-5.0
135.0,128.0,124.0,121.0,123.0,254.0,121.0,128.0,8.0,-98.0,-100.0,127.0,127.0,127.0,101.0,82.0,-5.0
135.0,128.0,124.0,121.0,123.0,254.0,121.0,129.0,8.0,-98.0,-100.0,127.0,127.0,127.0,101.0,82.0,-5.0
135.0,128.0,123.0,121.0,123.0,254.0,121.0,129.0,8.0,-98.0,-100.0,127.0,127.0,127.0,101.0,82.0,-5.0
135.0,127.0,123.0,121.0,123.0,254.0,121.0,129.0,8.0,-98.0,-100.0,127.0,127.0,127.0,101.0,82.0,-5.0
134.0,129.0,127.0,122.0,125.0,254.0,118.0,130.0,8.0,-98.0,-100.0,127.0,127.0,127.0,100.0,82.0,-5.0
134.0,129.0,127.0,122.0,124.0,254.0,117.0,130.0,8.0,-98.0,-100.0,127.0,127.0,127.0,100.0,82.0,-5.0
134.0,129.0,127.0,122.0,124.0,254.0,116.0,130.0,8.0,-98.0,-100.0,127.0,127.0,127.0,100.0,82.0,-5.0
134.0,129.0,127.0,122.0,124.0,254.0,115.0,129.0,8.0,-98.0,-100.0,127.0,127.0,127.0,100.0,82.0,-5.0
134.0,128.0,126.0,122.0,124.0,254.0,114.0,129.0,8.0,-98.0,-100.0,127.0,127.0,127.0,100.0,82.0,-5.0
135.0,128.0,128.0,123.0,125.0,254.0,124.0,129.0,8.0,-98.0,-100.0,127.0,127.0,127.0,100.0,82.0,-5.0
135.0,129.0,128.0,123.0,125.0,254.0,123.0,130.0,8.0,-98.0,-100.0,127.0,127.0,127.0,100.0,82.0,-5.0
134.0,129.0,128.0,123.0,125.0,254.0,121.0,130.0,8.0,-98.0,-100.0,127.0,127.0,127.0,100.0,82.0,-5.0
134.0,129.0,128.0,123.0,125.0,254.0,120.0,130.0,8.0,-98.0,-100.0,127.0,127.0,127.0,100.0,82.0,-5.0
134.0,129.0,127.0,122.0,125.0,254.0,119.0,130.0,8.0,-98.0,-100.0,127.0,127.0,127.0,100.0,82.0,-5.0
134.0,128.0,127.0,123.0,128.0,254.0,139.0,129.0,8.0,-98.0,-100.0,127.0,127.0,127.0,99.0,82.0,-5.0
134.0,130.0,127.0,123.0,128.0,254.0,140.0,129.0,8.0,-98.0,-100.0,127.0,127.0,127.0,99.0,82.0,-5.0
134.0,132.0,127.0,123.0,128.0,254.0,141.0,129.0,8.0,-98.0,-100.0,127.0,127.0,127.0,99.0,82.0,-5.0
134.0,134.0,127.0,123.0,128.0,254.0,141.0,129.0,8.0,-98.0,-100.0,127.0,127.0,127.0,99.0,82.0,-5.0
133.0,125.0,126.0,123.0,127.0,254.0,130.0,128.0,8.0,-98.0,-100.0,127.0,127.0,127.0,99.0,82.0,-5.0
133.0,125.0,126.0,123.0,127.0,254.0,132.0,128.0,8.0,-98.0,-100.0,127.0,127.0,127.0,99.0,82.0,-5.0
134.0,125.0,126.0,123.0,127.0,254.0,133.0,128.0,8.0,-98.0,-100.0,127.0,127.0,127.0,99.0,82.0,-5.0
134.0,125.0,126.0,123.0,127.0,254.0,135.0,128.0,8.0,-98.0,-100.0,127.0,127.0,127.0,99.0,82.0,-5.0
134.0,125.0,127.0,123.0,127.0,254.0,136.0,129.0,8.0,-98.0,-100.0,127.0,127.0,127.0,99.0,82.0,-5.0
134.0,126.0,127.0,123.0,127.0,254.0,138.0,129.0,8.0,-98.0,-100.0,127.0,127.0,127.0,99.0,82.0,-5.0
133.0,123.0,126.0,124.0,128.0,234.0,124.0,128.0,8.0,-98.0,-99.0,127.0,127.0,127.0,99.0,82.0,-5.0
133.0,122.0,126.0,123.0,127.0,233.0,124.0,128.0,8.0,-98.0,-99.0,127.0,127.0,127.0,99.0,82.0,-5.0
133.0,122.0,126.0,123.0,127.0,232.0,124.0,128.0,8.0,-98.0,-99.0,127.0,127.0,127.0,99.0,82.0,-5.0
134.0,130.0,125.0,123.0,127.0,243.0,123.0,128.0,8.0,-98.0,-99.0,127.0,127.0,127.0,99.0,82.0,-5.0
134.0,128.0,125.0,123.0,127.0,242.0,124.0,128.0,8.0,-98.0,-99.0,127.0,127.0,127.0,99.0,82.0,-5.0
133.0,128.0,125.0,123.0,127.0,241.0,125.0,128.0,8.0,-98.0,-99.0,127.0,127.0,127.0,99.0,82.0,-5.0
133.0,127.0,125.0,123.0,127.0,240.0,126.0,128.0,8.0,-98.0,-99.0,127.0,127.0,127.0,99.0,82.0,-5.0
133.0,127.0,124.0,123.0,128.0,238.0,126.0,128.0,8.0,-98.0,-99.0,127.0,127.0,127.0,99.0,82.0,-5.0
133.0,126.0,125.0,123.0,128.0,237.0,126.0,128.0,8.0,-98.0,-99.0,127.0,127.0,127.0,99.0,82.0,-5.0
133.0,124.0,125.0,124.0,128.0,236.0,125.0,128.0,8.0,-98.0,-99.0,127.0,127.0,127.0,99.0,82.0,-5.0
133.0,126.0,122.0,122.0,129.0,180.0,129.0,129.0,8.0,-99.0,-99.0,127.0,127.0,127.0,99.0,82.0,-5.0
133.0,127.0,122.0,122.0,129.0,180.0,129.0,129.0,8.0,-99.0,-99.0,127.0,127.0,127.0,99.0,82.0,-5.0
132.0,126.0,122.0,123.0,127.0,186.0,127.0,128.0,8.0,-99.0,-99.0,127.0,127.0,127.0,99.0,82.0,-5.0
132.0,126.0,121.0,123.0,127.0,185.0,127.0,128.0,8.0,-99.0,-99.0,127.0,127.0,127.0,99.0,82.0,-5.0
132.0,126.0,121.0,123.0,128.0,184.0,128.0,128.0,8.0,-99.0,-99.0,127.0,127.0,127.0,99.0,82.0,-5.0
133.0,126.0,121.0,123.0,128.0,184.0,129.0,128.0,8.0,-99.0,-99.0,127.0,127.0,127.0,99.0,82.0,-5.0
133.0,126.0,122.0,123.0,128.0,183.0,130.0,128.0,8.0,-99.0,-99.0,127.0,127.0,127.0,99.0,82.0,-5.0
133.0,126.0,122.0,123.0,128.0,182.0,130.0,129.0,8.0,-99.0,-99.0,127.0,127.0,127.0,99.0,82.0,-5.0
133.0,126.0,122.0,123.0,129.0,182.0,130.0,129.0,8.0,-99.0,-99.0,127.0,127.0,127.0,99.0,82.0,-5.0
133.0,126.0,122.0,123.0,129.0,181.0,129.0,129.0,8.0,-99.0,-99.0,127.0,127.0,127.0,99.0,82.0,-5.0
133.0,127.0,126.0,123.0,128.0,162.0,125.0,125.0,9.0,-99.0,-99.0,127.0,127.0,127.0,99.0,82.0,-5.0
132.0,127.0,126.0,123.0,126.0,164.0,123.0,127.0,9.0,-99.0,-99.0,127.0,127.0,127.0,99.0,82.0,-5.0
132.0,127.0,126.0,123.0,126.0,164.0,124.0,127.0,9.0,-99.0,-99.0,127.0,127.0,127.0,99.0,82.0,-5.0
132.0,127.0,126.0,123.0,126.0,163.0,125.0,126.0,9.0,-99.0,-99.0,127.0,127.0,127.0,99.0,82.0,-5.0
132.0,127.0,126.0,123.0,127.0,163.0,125.0,127.0,9.0,-99.0,-99.0,127.0,127.0,127.0,99.0,82.0,-5.0
132.0,127.0,127.0,123.0,127.0,163.0,124.0,127.0,9.0,-99.0,-99.0,127.0,127.0,127.0,99.0,82.0,-5.0
133.0,127.0,127.0,124.0,127.0,163.0,123.0,126.0,9.0,-99.0,-99.0,127.0,127.0,127.0,99.0,82.0,-5.0
133.0,127.0,126.0,124.0,127.0,162.0,123.0,126.0,9.0,-99.0,-99.0,127.0,127.0,127.0,99.0,82.0,-5.0
133.0,127.0,126.0,124.0,128.0,162.0,123.0,126.0,9.0,-99.0,-99.0,127.0,127.0,127.0,99.0,82.0,-5.0
133.0,127.0,126.0,124.0,128.0,162.0,124.0,126.0,9.0,-99.0,-99.0,127.0,127.0,127.0,99.0,82.0,-5.0
132.0,125.0,127.0,125.0,128.0,157.0,126.0,128.0,10.0,-100.0,-98.0,127.0,127.0,127.0,99.0,82.0,-5.0
132.0,125.0,127.0,125.0,128.0,157.0,127.0,128.0,10.0,-100.0,-98.0,127.0,127.0,127.0,99.0,82.0,-5.0
132.0,124.0,127.0,125.0,128.0,157.0,127.0,129.0,10.0,-100.0,-98.0,127.0,127.0,127.0,99.0,82.0,-5.0
132.0,124.0,127.0,125.0,128.0,157.0,128.0,129.0,10.0,-100.0,-98.0,127.0,127.0,127.0,99.0,82.0,-5.0
132.0,124.0,127.0,125.0,128.0,157.0,129.0,129.0,10.0,-100.0,-98.0,127.0,127.0,127.0,99.0,82.0,-5.0
132.0,124.0,127.0,125.0,129.0,157.0,130.0,129.0,10.0,-100.0,-98.0,127.0,127.0,127.0,99.0,82.0,-5.0
132.0,124.0,128.0,125.0,129.0,156.0,132.0,129.0,10.0,-100.0,-98.0,127.0,127.0,127.0,99.0,82.0,-5.0
132.0,124.0,128.0,125.0,129.0,156.0,133.0,129.0,10.0,-100.0,-98.0,127.0,127.0,127.0,99.0,82.0,-5.0
132.0,124.0,128.0,125.0,129.0,156.0,134.0,129.0,10.0,-100.0,-98.0,127.0,127.0,127.0,99.0,82.0,-5.0
132.0,125.0,128.0,126.0,130.0,156.0,134.0,129.0,10.0,-100.0,-98.0,127.0,127.0,127.0,99.0,82.0,-5.0
132.0,124.0,126.0,124.0,129.0,154.0,125.0,130.0,10.0,-100.0,-98.0,127.0,127.0,127.0,99.0,82.0,-5.0
132.0,124.0,126.0,124.0,129.0,154.0,123.0,129.0,10.0,-100.0,-98.0,127.0,127.0,127.0,99.0,82.0,-5.0
132.0,123.0,126.0,124.0,128.0,154.0,121.0,129.0,10.0,-100.0,-98.0,127.0,127.0,127.0,99.0,82.0,-5.0
132.0,123.0,126.0,124.0,128.0,154.0,119.0,128.0,10.0,-100.0,-98.0,127.0,127.0,127.0,99.0,82.0,-5.0
132.0,123.0,126.0,124.0,128.0,154.0,119.0,128.0,10.0,-100.0,-98.0,127.0,127.0,127.0,99.0,82.0,-5.0
132.0,123.0,126.0,123.0,128.0,154.0,118.0,128.0,10.0,-100.0,-98.0,127.0,127.0,127.0,99.0,82.0,-5.0
132.0,123.0,126.0,123.0,127.0,154.0,119.0,127.0,10.0,-100.0,-98.0,127.0,127.0,127.0,99.0,82.0,-5.0
132.0,124.0,126.0,123.0,127.0,154.0,119.0,127.0,10.0,-100.0,-98.0,127.0,127.0,127.0,99.0,82.0,-5.0
132.0,126.0,126.0,123.0,127.0,154.0,120.0,127.0,10.0,-100.0,-98.0,127.0,127.0,127.0,99.0,82.0,-5.0
132.0,124.0,125.0,124.0,129.0,154.0,127.0,130.0,10.0,-100.0,-98.0,127.0,127.0,127.0,99.0,82.0,-5.0
132.0,127.0,127.0,126.0,128.0,154.0,121.0,129.0,11.0,-100.0,-99.0,127.0,127.0,127.0,98.0,82.0,-5.0
131.0,127.0,127.0,126.0,128.0,154.0,121.0,129.0,11.0,-100.0,-99.0,127.0,127.0,127.0,98.0,82.0,-5.0
132.0,127.0,127.0,126.0,128.0,154.0,121.0,128.0,11.0,-100.0,-99.0,127.0,127.0,127.0,98.0,82.0,-5.0
131.0,127.0,126.0,126.0,128.0,154.0,121.0,128.0,11.0,-100.0,-99.0,127.0,127.0,127.0,98.0,82.0,-5.0
131.0,127.0,126.0,126.0,128.0,154.0,121.0,128.0,11.0,-100.0,-99.0,127.0,127.0,127.0,98.0,82.0,-5.0
131.0,126.0,126.0,126.0,128.0,154.0,122.0,128.0,11.0,-100.0,-99.0,127.0,127.0,127.0,98.0,82.0,-5.0
131.0,126.0,127.0,126.0,128.0,154.0,123.0,128.0,11.0,-100.0,-99.0,127.0,127.0,127.0,98.0,82.0,-5.0
131.0,126.0,127.0,126.0,128.0,154.0,124.0,128.0,11.0,-100.0,-99.0,127.0,127.0,127.0,98.0,82.0,-5.0
131.0,127.0,126.0,126.0,128.0,154.0,121.0,129.0,11.0,-100.0,-99.0,127.0,127.0,127.0,98.0,82.0,-5.0
131.0,127.0,127.0,126.0,128.0,154.0,121.0,129.0,11.0,-100.0,-99.0,127.0,127.0,127.0,98.0,82.0,-5.0
131.0,130.0,126.0,126.0,128.0,153.0,131.0,129.0,11.0,-100.0,-99.0,127.0,127.0,127.0,98.0,81.0,-5.0
132.0,132.0,126.0,126.0,127.0,153.0,131.0,129.0,11.0,-100.0,-99.0,127.0,127.0,127.0,98.0,81.0,-5.0
132.0,133.0,126.0,125.0,127.0,153.0,130.0,129.0,11.0,-100.0,-99.0,127.0,127.0,127.0,98.0,81.0,-5.0
132.0,134.0,126.0,125.0,127.0,153.0,130.0,129.0,11.0,-100.0,-99.0,127.0,127.0,127.0,98.0,81.0,-5.0
132.0,132.0,127.0,125.0,127.0,153.0,130.0,129.0,11.0,-100.0,-99.0,127.0,127.0,127.0,98.0,81.0,-5.0
132.0,130.0,126.0,125.0,127.0,153.0,130.0,129.0,11.0,-100.0,-99.0,127.0,127.0,127.0,98.0,81.0,-5.0
132.0,128.0,126.0,125.0,128.0,153.0,130.0,129.0,11.0,-100.0,-99.0,127.0,127.0,127.0,98.0,81.0,-5.0
131.0,127.0,126.0,126.0,127.0,153.0,132.0,128.0,11.0,-100.0,-99.0,127.0,127.0,127.0,98.0,81.0,-5.0
131.0,127.0,126.0,126.0,128.0,153.0,131.0,129.0,11.0,-100.0,-99.0,127.0,127.0,127.0,98.0,81.0,-5.0
131.0,129.0,126.0,126.0,128.0,153.0,131.0,129.0,11.0,-100.0,-99.0,127.0,127.0,127.0,98.0,81.0,-5.0
132.0,122.0,127.0,126.0,128.0,153.0,133.0,128.0,11.0,-100.0,-99.0,127.0,127.0,127.0,98.0,81.0,-5.0
132.0,122.0,128.0,127.0,128.0,153.0,133.0,128.0,11.0,-100.0,-99.0,127.0,127.0,127.0,98.0,81.0,-5.0
132.0,122.0,127.0,127.0,128.0,153.0,133.0,128.0,11.0,-100.0,-99.0,127.0,127.0,127.0,98.0,81.0,-5.0
132.0,122.0,127.0,127.0,128.0,153.0,133.0,128.0,11.0,-100.0,-99.0,127.0,127.0,127.0,98.0,81.0,-5.0
132.0,122.0,126.0,126.0,128.0,153.0,132.0,128.0,11.0,-100.0,-99.0,127.0,127.0,127.0,98.0,81.0,-5.0
132.0,123.0,125.0,126.0,128.0,153.0,132.0,128.0,11.0,-100.0,-99.0,127.0,127.0,127.0,98.0,81.0,-5.0
131.0,123.0,128.0,125.0,127.0,153.0,132.0,128.0,11.0,-100.0,-99.0,127.0,127.0,127.0,98.0,81.0,-5.0
131.0,123.0,127.0,125.0,127.0,153.0,132.0,128.0,11.0,-100.0,-99.0,127.0,127.0,127.0,98.0,81.0,-5.0
131.0,122.0,127.0,126.0,128.0,153.0,133.0,128.0,11.0,-100.0,-99.0,127.0,127.0,127.0,98.0,81.0,-5.0
131.0,122.0,127.0,126.0,128.0,153.0,133.0,128.0,11.0,-100.0,-99.0,127.0,127.0,127.0,98.0,81.0,-5.0
131.0,125.0,126.0,124.0,127.0,153.0,125.0,129.0,11.0,-100.0,-99.0,127.0,127.0,127.0,97.0,81.0,-5.0
131.0,124.0,126.0,124.0,127.0,153.0,125.0,129.0,11.0,-100.0,-99.0,127.0,127.0,127.0,97.0,81.0,-5.0
131.0,123.0,126.0,124.0,127.0,153.0,126.0,129.0,11.0,-100.0,-99.0,127.0,127.0,127.0,97.0,81.0,-5.0
131.0,123.0,126.0,124.0,127.0,153.0,127.0,128.0,11.0,-100.0,-99.0,127.0,127.0,127.0,97.0,81.0,-5.0
131.0,122.0,125.0,125.0,127.0,153.0,128.0,128.0,11.0,-100.0,-99.0,127.0,127.0,127.0,97.0,81.0,-5.0
131.0,129.0,126.0,124.0,126.0,153.0,124.0,129.0,11.0,-100.0,-99.0,127.0,127.0,127.0,97.0,81.0,-5.0
130.0,128.0,126.0,124.0,126.0,153.0,124.0,129.0,11.0,-100.0,-99.0,127.0,127.0,127.0,97.0,81.0,-5.0
130.0,128.0,126.0,124.0,126.0,153.0,124.0,129.0,11.0,-100.0,-99.0,127.0,127.0,127.0,97.0,81.0,-5.0
131.0,127.0,127.0,124.0,127.0,153.0,125.0,130.0,11.0,-100.0,-99.0,127.0,127.0,127.0,97.0,81.0,-5.0
131.0,126.0,127.0,125.0,127.0,153.0,125.0,130.0,11.0,-100.0,-99.0,127.0,127.0,127.0,97.0,81.0,-5.0
131.0,126.0,129.0,128.0,129.0,153.0,135.0,130.0,11.0,-100.0,-99.0,127.0,127.0,127.0,97.0,81.0,-5.0
131.0,126.0,128.0,127.0,129.0,153.0,136.0,130.0,11.0,-100.0,-99.0,127.0,127.0,127.0,97.0,81.0,-5.0
132.0,126.0,128.0,127.0,129.0,153.0,136.0,130.0,11.0,-100.0,-99.0,127.0,127.0,127.0,97.0,81.0,-5.0
132.0,126.0,128.0,127.0,129.0,153.0,136.0,129.0,11.0,-100.0,-99.0,127.0,127.0,127.0,97.0,81.0,-5.0
131.0,126.0,129.0,128.0,130.0,153.0,132.0,128.0,11.0,-100.0,-99.0,127.0,127.0,127.0,97.0,81.0,-5.0
131.0,125.0,129.0,128.0,130.0,152.0,132.0,128.0,11.0,-100.0,-99.0,127.0,127.0,127.0,97.0,81.0,-5.0
131.0,126.0,129.0,128.0,130.0,152.0,132.0,128.0,11.0,-100.0,-99.0,127.0,127.0,127.0,97.0,81.0,-5.0
131.0,126.0,129.0,128.0,130.0,153.0,133.0,129.0,11.0,-100.0,-99.0,127.0,127.0,127.0,97.0,81.0,-5.0
131.0,126.0,129.0,128.0,130.0,153.0,134.0,129.0,11.0,-100.0,-99.0,127.0,127.0,127.0,97.0,81.0,-5.0
131.0,126.0,129.0,128.0,130.0,153.0,134.0,129.0,11.0,-100.0,-99.0,127.0,127.0,127.0,97.0,81.0,-5.0
132.0,135.0,127.0,125.0,127.0,153.0,129.0,129.0,11.0,-100.0,-99.0,127.0,127.0,127.0,97.0,81.0,-5.0
131.0,132.0,127.0,125.0,126.0,153.0,128.0,129.0,11.0,-100.0,-99.0,127.0,127.0,127.0,97.0,81.0,-5.0
131.0,131.0,127.0,125.0,126.0,153.0,128.0,129.0,11.0,-100.0,-99.0,127.0,127.0,127.0,97.0,81.0,-5.0
131.0,130.0,126.0,126.0,127.0,152.0,130.0,129.0,11.0,-100.0,-99.0,127.0,127.0,127.0,97.0,81.0,-5.0
131.0,134.0,126.0,126.0,127.0,153.0,130.0,129.0,11.0,-100.0,-99.0,127.0,127.0,127.0,97.0,81.0,-5.0
131.0,137.0,126.0,126.0,127.0,153.0,131.0,129.0,11.0,-100.0,-99.0,127.0,127.0,127.0,97.0,81.0,-5.0
132.0,140.0,126.0,126.0,127.0,153.0,130.0,129.0,11.0,-100.0,-99.0,127.0,127.0,127.0,97.0,81.0,-5.0
132.0,141.0,126.0,126.0,127.0,153.0,130.0,129.0,11.0,-100.0,-99.0,127.0,127.0,127.0,97.0,81.0,-5.0
132.0,141.0,127.0,126.0,127.0,152.0,129.0,129.0,11.0,-100.0,-99.0,127.0,127.0,127.0,97.0,81.0,-5.0
132.0,138.0,127.0,125.0,127.0,153.0,129.0,129.0,11.0,-100.0,-99.0,127.0,127.0,127.0,97.0,81.0,-5.0
131.0,121.0,126.0,126.0,127.0,152.0,127.0,128.0,11.0,-100.0,-99.0,127.0,127.0,127.0,97.0,81.0,-5.0
131.0,122.0,126.0,126.0,127.0,153.0,127.0,128.0,11.0,-100.0,-99.0,127.0,127.0,127.0,97.0,81.0,-5.0
131.0,123.0,124.0,125.0,127.0,152.0,122.0,128.0,11.0,-100.0,-99.0,127.0,127.0,127.0,97.0,81.0,-5.0
131.0,123.0,124.0,125.0,126.0,152.0,123.0,128.0,11.0,-100.0,-99.0,127.0,127.0,127.0,97.0,81.0,-5.0
131.0,122.0,124.0,125.0,126.0,152.0,123.0,128.0,11.0,-100.0,-99.0,127.0,127.0,127.0,97.0,81.0,-5.0
131.0,122.0,124.0,125.0,126.0,153.0,124.0,128.0,11.0,-100.0,-99.0,127.0,127.0,127.0,97.0,81.0,-5.0
131.0,121.0,125.0,125.0,126.0,153.0,125.0,128.0,11.0,-100.0,-99.0,127.0,127.0,127.0,97.0,81.0,-5.0
131.0,121.0,125.0,126.0,127.0,153.0,125.0,128.0,11.0,-100.0,-99.0,127.0,127.0,127.0,97.0,81.0,-5.0
131.0,121.0,126.0,126.0,127.0,153.0,126.0,128.0,11.0,-100.0,-99.0,127.0,127.0,127.0,97.0,81.0,-5.0
131.0,121.0,126.0,126.0,127.0,153.0,126.0,128.0,11.0,-100.0,-99.0,127.0,127.0,127.0,97.0,81.0,-5.0
131.0,125.0,128.0,126.0,128.0,152.0,128.0,127.0,11.0,-99.0,-99.0,127.0,127.0,127.0,96.0,81.0,-5.0
131.0,125.0,125.0,125.0,126.0,152.0,126.0,129.0,11.0,-99.0,-99.0,127.0,127.0,127.0,96.0,81.0,-5.0
131.0,125.0,124.0,125.0,126.0,152.0,126.0,129.0,11.0,-99.0,-99.0,127.0,127.0,127.0,96.0,81.0,-5.0
131.0,125.0,125.0,126.0,126.0,152.0,126.0,128.0,11.0,-99.0,-99.0,127.0,127.0,127.0,96.0,81.0,-5.0
131.0,125.0,125.0,126.0,127.0,152.0,127.0,128.0,11.0,-99.0,-99.0,127.0,127.0,127.0,96.0,81.0,-5.0
131.0,125.0,125.0,126.0,127.0,152.0,127.0,128.0,11.0,-99.0,-99.0,127.0,127.0,127.0,96.0,81.0,-5.0
131.0,124.0,126.0,126.0,127.0,152.0,127.0,127.0,11.0,-99.0,-99.0,127.0,127.0,127.0,96.0,81.0,-5.0
131.0,125.0,126.0,126.0,127.0,152.0,127.0,127.0,11.0,-99.0,-99.0,127.0,127.0,127.0,96.0,81.0,-5.0
131.0,125.0,127.0,126.0,127.0,152.0,127.0,127.0,11.0,-99.0,-99.0,127.0,127.0,127.0,96.0,81.0,-5.0
131.0,125.0,127.0,126.0,127.0,152.0,128.0,127.0,11.0,-99.0,-99.0,127.0,127.0,127.0,96.0,81.0,-5.0
131.0,125.0,127.0,127.0,128.0,152.0,127.0,128.0,10.0,-99.0,-99.0,127.0,127.0,127.0,96.0,81.0,-5.0
131.0,125.0,127.0,127.0,128.0,152.0,127.0,129.0,10.0,-99.0,-99.0,127.0,127.0,127.0,96.0,81.0,-5.0
131.0,125.0,127.0,126.0,127.0,152.0,127.0,129.0,10.0,-99.0,-99.0,127.0,127.0,127.0,96.0,81.0,-5.0
131.0,125.0,127.0,126.0,127.0,152.0,128.0,128.0,10.0,-99.0,-99.0,127.0,127.0,127.0,96.0,81.0,-5.0
131.0,125.0,127.0,126.0,127.0,152.0,127.0,128.0,10.0,-99.0,-99.0,127.0,127.0,127.0,96.0,81.0,-5.0
131.0,125.0,127.0,126.0,127.0,152.0,127.0,128.0,10.0,-99.0,-99.0,127.0,127.0,127.0,96.0,81.0,-5.0
131.0,125.0,127.0,126.0,127.0,152.0,127.0,128.0,10.0,-99.0,-99.0,127.0,127.0,127.0,96.0,81.0,-5.0
131.0,125.0,126.0,126.0,128.0,152.0,126.0,128.0,10.0,-99.0,-99.0,127.0,127.0,127.0,96.0,81.0,-5.0
131.0,126.0,126.0,127.0,128.0,152.0,126.0,128.0,10.0,-99.0,-99.0,127.0,127.0,127.0,96.0,81.0,-5.0
131.0,125.0,126.0,127.0,128.0,152.0,125.0,128.0,10.0,-99.0,-99.0,127.0,127.0,127.0,96.0,81.0,-5.0
131.0,127.0,128.0,126.0,127.0,153.0,125.0,130.0,10.0,-99.0,-99.0,127.0,127.0,127.0,96.0,81.0,-5.0
131.0,127.0,128.0,126.0,127.0,153.0,122.0,129.0,10.0,-99.0,-99.0,127.0,127.0,127.0,96.0,81.0,-5.0
131.0,128.0,127.0,126.0,127.0,153.0,120.0,129.0,10.0,-99.0,-99.0,127.0,127.0,127.0,96.0,81.0,-5.0
131.0,128.0,127.0,126.0,127.0,153.0,118.0,129.0,10.0,-99.0,-99.0,127.0,127.0,127.0,96.0,81.0,-5.0
131.0,129.0,127.0,126.0,127.0,153.0,117.0,129.0,10.0,-99.0,-99.0,127.0,127.0,127.0,96.0,81.0,-5.0
131.0,130.0,127.0,126.0,127.0,153.0,116.0,128.0,10.0,-99.0,-99.0,127.0,127.0,127.0,96.0,81.0,-5.0
131.0,131.0,127.0,126.0,126.0,153.0,116.0,128.0,10.0,-99.0,-99.0,127.0,127.0,127.0,96.0,81.0,-5.0
131.0,132.0,127.0,126.0,126.0,153.0,115.0,128.0,10.0,-99.0,-99.0,127.0,127.0,127.0,96.0,81.0,-5.0
131.0,131.0,127.0,126.0,126.0,153.0,116.0,128.0,10.0,-99.0,-99.0,127.0,127.0,127.0,96.0,81.0,-5.0
131.0,127.0,128.0,126.0,127.0,153.0,127.0,130.0,10.0,-99.0,-99.0,127.0,127.0,127.0,96.0,81.0,-5.0
130.0,123.0,128.0,126.0,126.0,152.0,126.0,128.0,10.0,-99.0,-99.0,127.0,127.0,127.0,96.0,81.0,-5.0
130.0,123.0,128.0,126.0,126.0,153.0,126.0,128.0,10.0,-99.0,-99.0,127.0,127.0,127.0,96.0,81.0,-5.0
130.0,123.0,128.0,125.0,126.0,153.0,126.0,128.0,10.0,-99.0,-99.0,127.0,127.0,127.0,96.0,81.0,-5.0
130.0,123.0,128.0,126.0,126.0,153.0,125.0,128.0,10.0,-99.0,-99.0,127.0,127.0,127.0,96.0,81.0,-5.0
130.0,123.0,127.0,126.0,126.0,153.0,124.0,128.0,10.0,-99.0,-99.0,127.0,127.0,127.0,96.0,81.0,-5.0
130.0,123.0,127.0,126.0,127.0,153.0,124.0,128.0,10.0,-99.0,-99.0,127.0,127.0,127.0,96.0,81.0,-5.0
131.0,124.0,127.0,126.0,127.0,153.0,123.0,128.0,10.0,-99.0,-99.0,127.0,127.0,127.0,96.0,81.0,-5.0
131.0,124.0,127.0,126.0,127.0,153.0,122.0,128.0,10.0,-99.0,-99.0,127.0,127.0,127.0,96.0,81.0,-5.0
131.0,124.0,128.0,126.0,126.0,152.0,126.0,128.0,10.0,-99.0,-99.0,127.0,127.0,127.0,96.0,81.0,-5.0
131.0,123.0,128.0,126.0,126.0,152.0,126.0,128.0,10.0,-99.0,-99.0,127.0,127.0,127.0,96.0,81.0,-5.0
130.0,123.0,125.0,127.0,128.0,153.0,133.0,128.0,10.0,-99.0,-99.0,127.0,127.0,127.0,96.0,81.0,-5.0
130.0,123.0,125.0,127.0,128.0,153.0,133.0,128.0,10.0,-99.0,-99.0,127.0,127.0,127.0,96.0,81.0,-5.0
130.0,124.0,126.0,127.0,128.0,153.0,134.0,128.0,10.0,-99.0,-99.0,127.0,127.0,127.0,96.0,81.0,-5.0
131.0,124.0,126.0,127.0,128.0,153.0,134.0,128.0,10.0,-99.0,-99.0,127.0,127.0,127.0,96.0,81.0,-5.0
131.0,124.0,126.0,126.0,128.0,153.0,134.0,128.0,10.0,-99.0,-99.0,127.0,127.0,127.0,96.0,81.0,-5.0
131.0,124.0,127.0,126.0,128.0,153.0,134.0,128.0,10.0,-99.0,-99.0,127.0,127.0,127.0,96.0,81.0,-5.0
131.0,124.0,127.0,126.0,128.0,153.0,134.0,128.0,10.0,-99.0,-99.0,127.0,127.0,127.0,96.0,81.0,-5.0
130.0,123.0,125.0,127.0,128.0,153.0,130.0,128.0,10.0,-99.0,-99.0,127.0,127.0,127.0,96.0,81.0,-5.0
130.0,123.0,125.0,127.0,128.0,153.0,131.0,128.0,10.0,-99.0,-99.0,127.0,127.0,127.0,96.0,81.0,-5.0
130.0,123.0,125.0,127.0,128.0,153.0,132.0,128.0,10.0,-99.0,-99.0,127.0,127.0,127.0,96.0,81.0,-5.0
130.0,134.0,127.0,127.0,127.0,153.0,119.0,127.0,10.0,-99.0,-99.0,127.0,127.0,127.0,96.0,81.0,-5.0
130.0,133.0,127.0,127.0,127.0,153.0,120.0,127.0,10.0,-99.0,-99.0,127.0,127.0,127.0,96.0,81.0,-5.0
130.0,131.0,128.0,127.0,127.0,153.0,122.0,127.0,10.0,-99.0,-99.0,127.0,127.0,127.0,96.0,81.0,-5.0
130.0,130.0,128.0,127.0,127.0,153.0,123.0,126.0,10.0,-99.0,-99.0,127.0,127.0,127.0,96.0,81.0,-5.0
130.0,128.0,128.0,127.0,127.0,153.0,124.0,126.0,10.0,-99.0,-99.0,127.0,127.0,127.0,96.0,81.0,-5.0
130.0,127.0,129.0,128.0,127.0,153.0,125.0,126.0,10.0,-99.0,-99.0,127.0,127.0,127.0,96.0,81.0,-5.0
130.0,129.0,127.0,127.0,127.0,153.0,115.0,127.0,10.0,-99.0,-99.0,127.0,127.0,127.0,96.0,81.0,-5.0
130.0,131.0,126.0,127.0,127.0,153.0,116.0,127.0,10.0,-99.0,-99.0,127.0,127.0,127.0,96.0,81.0,-5.0
130.0,132.0,126.0,127.0,126.0,153.0,116.0,127.0,10.0,-99.0,-99.0,127.0,127.0,127.0,96.0,81.0,-5.0
130.0,134.0,126.0,126.0,126.0,153.0,117.0,127.0,10.0,-99.0,-99.0,127.0,127.0,127.0,96.0,81.0,-5.0
130.0,126.0,127.0,129.0,128.0,153.0,129.0,130.0,10.0,-99.0,-99.0,127.0,127.0,127.0,96.0,81.0,-5.0
130.0,126.0,127.0,129.0,128.0,153.0,129.0,130.0,10.0,-99.0,-99.0,127.0,127.0,127.0,96.0,81.0,-5.0
130.0,126.0,127.0,129.0,128.0,153.0,129.0,130.0,10.0,-99.0,-99.0,127.0,127.0,127.0,96.0,81.0,-5.0
130.0,126.0,127.0,129.0,128.0,153.0,130.0,129.0,10.0,-99.0,-99.0,127.0,127.0,127.0,96.0,81.0,-5.0
130.0,126.0,126.0,129.0,128.0,153.0,130.0,129.0,10.0,-99.0,-99.0,127.0,127.0,127.0,96.0,81.0,-5.0
130.0,125.0,126.0,129.0,128.0,153.0,129.0,128.0,10.0,-99.0,-99.0,127.0,127.0,127.0,96.0,81.0,-5.0
130.0,125.0,127.0,129.0,128.0,153.0,129.0,129.0,10.0,-99.0,-99.0,127.0,127.0,127.0,96.0,81.0,-5.0
130.0,125.0,127.0,129.0,128.0,153.0,129.0,129.0,10.0,-99.0,-99.0,127.0,127.0,127.0,96.0,81.0,-5.0
130.0,125.0,127.0,129.0,128.0,153.0,129.0,129.0,10.0,-99.0,-99.0,127.0,127.0,127.0,96.0,81.0,-5.0
130.0,126.0,127.0,129.0,128.0,153.0,129.0,129.0,10.0,-99.0,-99.0,127.0,127.0,127.0,96.0,81.0,-5.0
130.0,125.0,126.0,129.0,127.0,153.0,123.0,128.0,10.0,-99.0,-99.0,127.0,127.0,127.0,96.0,81.0,-5.0
130.0,125.0,126.0,129.0,127.0,153.0,122.0,128.0,10.0,-99.0,-99.0,127.0,127.0,127.0,96.0,81.0,-5.0
130.0,125.0,126.0,129.0,127.0,153.0,122.0,128.0,10.0,-99.0,-99.0,127.0,127.0,127.0,96.0,81.0,-5.0
130.0,125.0,126.0,129.0,127.0,153.0,122.0,128.0,10.0,-99.0,-99.0,127.0,127.0,127.0,96.0,81.0,-5.0
130.0,124.0,127.0,129.0,127.0,153.0,127.0,128.0,10.0,-99.0,-99.0,127.0,127.0,127.0,96.0,81.0,-5.0
130.0,124.0,127.0,129.0,128.0,153.0,126.0,128.0,10.0,-99.0,-99.0,127.0,127.0,127.0,96.0,81.0,-5.0
130.0,124.0,127.0,129.0,128.0,153.0,125.0,128.0,10.0,-99.0,-99.0,127.0,127.0,127.0,96.0,81.0,-5.0
130.0,124.0,127.0,129.0,128.0,153.0,125.0,128.0,10.0,-99.0,-99.0,127.0,127.0,127.0,96.0,81.0,-5.0
130.0,125.0,127.0,129.0,128.0,153.0,124.0,128.0,10.0,-99.0,-99.0,127.0,127.0,127.0,96.0,81.0,-5.0
130.0,125.0,127.0,129.0,127.0,153.0,123.0,128.0,10.0,-99.0,-99.0,127.0,127.0,127.0,96.0,81.0,-5.0
129.0,127.0,126.0,128.0,126.0,153.0,123.0,127.0,11.0,-99.0,-99.0,127.0,127.0,127.0,96.0,81.0,-5.0
130.0,127.0,127.0,128.0,126.0,153.0,123.0,127.0,11.0,-99.0,-99.0,127.0,127.0,127.0,96.0,81.0,-5.0
129.0,125.0,126.0,127.0,126.0,153.0,123.0,127.0,11.0,-99.0,-99.0,127.0,127.0,127.0,96.0,81.0,-5.0
129.0,125.0,126.0,127.0,126.0,153.0,123.0,127.0,11.0,-99.0,-99.0,127.0,127.0,127.0,96.0,81.0,-5.0
129.0,125.0,126.0,127.0,126.0,153.0,123.0,127.0,11.0,-99.0,-99.0,127.0,127.0,127.0,96.0,81.0,-5.0
129.0,126.0,126.0,127.0,126.0,153.0,123.0,127.0,11.0,-99.0,-99.0,127.0,127.0,127.0,96.0,81.0,-5.0
129.0,126.0,126.0,127.0,126.0,153.0,123.0,127.0,11.0,-99.0,-99.0,127.0,127.0,127.0,96.0,81.0,-5.0
129.0,126.0,126.0,127.0,126.0,153.0,123.0,127.0,11.0,-99.0,-99.0,127.0,127.0,127.0,96.0,81.0,-5.0
129.0,126.0,126.0,128.0,126.0,153.0,123.0,127.0,11.0,-99.0,-99.0,127.0,127.0,127.0,96.0,81.0,-5.0
129.0,126.0,126.0,128.0,126.0,153.0,123.0,127.0,11.0,-99.0,-99.0,127.0,127.0,127.0,96.0,81.0,-5.0
129.0,124.0,126.0,127.0,126.0,152.0,125.0,128.0,11.0,-99.0,-99.0,127.0,127.0,127.0,96.0,80.0,-5.0
130.0,131.0,127.0,127.0,127.0,152.0,124.0,127.0,11.0,-99.0,-99.0,127.0,127.0,127.0,96.0,80.0,-5.0
130.0,129.0,127.0,127.0,127.0,152.0,124.0,127.0,11.0,-99.0,-99.0,127.0,127.0,127.0,96.0,80.0,-5.0
130.0,128.0,127.0,127.0,127.0,152.0,125.0,127.0,11.0,-99.0,-99.0,127.0,127.0,127.0,96.0,80.0,-5.0
130.0,127.0,126.0,127.0,127.0,152.0,125.0,127.0,11.0,-99.0,-99.0,127.0,127.0,127.0,96.0,80.0,-5.0
130.0,126.0,126.0,127.0,127.0,152.0,125.0,128.0,11.0,-99.0,-99.0,127.0,127.0,127.0,96.0,80.0,-5.0
129.0,126.0,126.0,127.0,127.0,152.0,124.0,128.0,11.0,-99.0,-99.0,127.0,127.0,127.0,96.0,80.0,-5.0
129.0,125.0,126.0,127.0,127.0,152.0,125.0,128.0,11.0,-99.0,-99.0,127.0,127.0,127.0,96.0,80.0,-5.0
129.0,125.0,126.0,127.0,126.0,152.0,125.0,128.0,11.0,-99.0,-99.0,127.0,127.0,127.0,96.0,80.0,-5.0
129.0,124.0,126.0,127.0,126.0,152.0,125.0,128.0,11.0,-99.0,-99.0,127.0,127.0,127.0,96.0,80.0,-5.0
129.0,134.0,126.0,127.0,127.0,152.0,126.0,128.0,11.0,-99.0,-99.0,127.0,127.0,127.0,96.0,80.0,-5.0
129.0,132.0,126.0,127.0,127.0,152.0,126.0,128.0,11.0,-99.0,-99.0,127.0,127.0,127.0,96.0,80.0,-5.0
129.0,129.0,127.0,127.0,127.0,152.0,126.0,128.0,11.0,-99.0,-99.0,127.0,127.0,127.0,96.0,80.0,-5.0
129.0,128.0,128.0,127.0,127.0,152.0,126.0,128.0,11.0,-99.0,-99.0,127.0,127.0,127.0,96.0,80.0,-5.0
129.0,127.0,128.0,127.0,127.0,152.0,125.0,128.0,11.0,-99.0,-99.0,127.0,127.0,127.0,96.0,80.0,-5.0
129.0,126.0,128.0,127.0,127.0,152.0,124.0,128.0,11.0,-99.0,-99.0,127.0,127.0,127.0,96.0,80.0,-5.0
129.0,126.0,128.0,127.0,127.0,152.0,123.0,128.0,11.0,-99.0,-99.0,127.0,127.0,127.0,96.0,80.0,-5.0
129.0,126.0,128.0,127.0,127.0,153.0,122.0,127.0,11.0,-99.0,-99.0,127.0,127.0,127.0,96.0,80.0,-5.0
129.0,125.0,128.0,127.0,127.0,153.0,121.0,127.0,11.0,-99.0,-99.0,127.0,127.0,127.0,96.0,80.0,-5.0
129.0,125.0,128.0,127.0,127.0,153.0,120.0,126.0,11.0,-99.0,-99.0,127.0,127.0,127.0,96.0,80.0,-5.0
129.0,126.0,127.0,128.0,128.0,152.0,127.0,128.0,11.0,-99.0,-100.0,127.0,127.0,127.0,96.0,80.0,-5.0
129.0,126.0,127.0,128.0,128.0,152.0,127.0,129.0,11.0,-99.0,-100.0,127.0,127.0,127.0,96.0,80.0,-5.0
129.0,126.0,127.0,128.0,128.0,152.0,128.0,129.0,11.0,-99.0,-100.0,127.0,127.0,127.0,96.0,80.0,-5.0
129.0,126.0,127.0,128.0,128.0,152.0,128.0,129.0,11.0,-99.0,-100.0,127.0,127.0,127.0,96.0,80.0,-5.0
129.0,126.0,127.0,128.0,128.0,152.0,128.0,128.0,11.0,-99.0,-100.0,127.0,127.0,127.0,96.0,80.0,-5.0
129.0,126.0,127.0,128.0,128.0,153.0,129.0,128.0,11.0,-99.0,-100.0,127.0,127.0,127.0,96.0,80.0,-5.0
129.0,126.0,127.0,128.0,128.0,153.0,129.0,128.0,11.0,-99.0,-100.0,127.0,127.0,127.0,96.0,80.0,-5.0
129.0,126.0,127.0,128.0,128.0,153.0,129.0,128.0,11.0,-99.0,-100.0,127.0,127.0,127.0,96.0,80.0,-5.0
129.0,126.0,127.0,128.0,128.0,153.0,129.0,128.0,11.0,-99.0,-100.0,127.0,127.0,127.0,96.0,80.0,-5.0
129.0,126.0,127.0,128.0,128.0,153.0,129.0,128.0,11.0,-99.0,-100.0,127.0,127.0,127.0,96.0,80.0,-5.0
129.0,123.0,127.0,128.0,127.0,152.0,130.0,127.0,11.0,-99.0,-100.0,127.0,127.0,127.0,96.0,80.0,-5.0
129.0,123.0,127.0,128.0,128.0,152.0,131.0,127.0,11.0,-99.0,-100.0,127.0,127.0,127.0,96.0,80.0,-5.0
129.0,124.0,127.0,128.0,128.0,152.0,132.0,128.0,11.0,-99.0,-100.0,127.0,127.0,127.0,96.0,80.0,-5.0
129.0,124.0,128.0,128.0,128.0,152.0,133.0,128.0,11.0,-99.0,-100.0,127.0,127.0,127.0,96.0,80.0,-5.0
129.0,124.0,128.0,128.0,128.0,152.0,134.0,128.0,11.0,-99.0,-100.0,127.0,127.0,127.0,96.0,80.0,-5.0
129.0,124.0,128.0,128.0,128.0,152.0,134.0,129.0,11.0,-99.0,-100.0,127.0,127.0,127.0,96.0,80.0,-5.0
129.0,124.0,128.0,128.0,128.0,152.0,134.0,129.0,11.0,-99.0,-100.0,127.0,127.0,127.0,96.0,80.0,-5.0
129.0,124.0,127.0,128.0,128.0,152.0,133.0,129.0,11.0,-99.0,-100.0,127.0,127.0,127.0,96.0,80.0,-5.0
129.0,124.0,127.0,128.0,128.0,153.0,133.0,129.0,11.0,-99.0,-100.0,127.0,127.0,127.0,96.0,80.0,-5.0
129.0,123.0,127.0,128.0,127.0,152.0,129.0,127.0,11.0,-99.0,-100.0,127.0,127.0,127.0,96.0,80.0,-5.0
129.0,126.0,126.0,127.0,126.0,153.0,124.0,128.0,11.0,-99.0,-100.0,127.0,127.0,127.0,96.0,80.0,-5.0
129.0,126.0,126.0,127.0,126.0,153.0,124.0,128.0,11.0,-99.0,-100.0,127.0,127.0,127.0,96.0,80.0,-5.0
129.0,126.0,126.0,127.0,126.0,153.0,124.0,128.0,11.0,-99.0,-100.0,127.0,127.0,127.0,96.0,80.0,-5.0
129.0,126.0,126.0,127.0,127.0,153.0,123.0,128.0,11.0,-99.0,-100.0,127.0,127.0,127.0,96.0,80.0,-5.0
129.0,126.0,126.0,127.0,127.0,153.0,124.0,128.0,11.0,-99.0,-100.0,127.0,127.0,127.0,96.0,80.0,-5.0
129.0,125.0,126.0,127.0,126.0,153.0,124.0,128.0,11.0,-99.0,-100.0,127.0,127.0,127.0,96.0,80.0,-5.0
129.0,125.0,126.0,127.0,126.0,153.0,124.0,128.0,11.0,-99.0,-100.0,127.0,127.0,127.0,96.0,80.0,-5.0
129.0,125.0,126.0,127.0,126.0,153.0,124.0,128.0,11.0,-99.0,-100.0,127.0,127.0,127.0,96.0,80.0,-5.0
129.0,125.0,126.0,127.0,126.0,153.0,125.0,128.0,11.0,-99.0,-100.0,127.0,127.0,127.0,96.0,80.0,-5.0
129.0,126.0,126.0,127.0,126.0,153.0,124.0,128.0,11.0,-99.0,-100.0,127.0,127.0,127.0,96.0,80.0,-5.0
129.0,126.0,128.0,128.0,127.0,152.0,127.0,128.0,11.0,-99.0,-100.0,127.0,127.0,127.0,96.0,80.0,-5.0
129.0,126.0,128.0,128.0,127.0,152.0,127.0,128.0,11.0,-99.0,-100.0,127.0,127.0,127.0,96.0,80.0,-5.0
129.0,126.0,128.0,128.0,127.0,152.0,127.0,128.0,11.0,-99.0,-100.0,127.0,127.0,127.0,96.0,80.0,-5.0
129.0,126.0,127.0,128.0,127.0,152.0,127.0,128.0,11.0,-99.0,-100.0,127.0,127.0,127.0,96.0,80.0,-5.0
129.0,125.0,127.0,128.0,127.0,152.0,127.0,128.0,11.0,-99.0,-100.0,127.0,127.0,127.0,96.0,80.0,-5.0
129.0,126.0,127.0,128.0,127.0,152.0,127.0,128.0,11.0,-99.0,-100.0,127.0,127.0,127.0,96.0,80.0,-5.0
129.0,125.0,128.0,128.0,127.0,152.0,127.0,128.0,11.0,-99.0,-100.0,127.0,127.0,127.0,96.0,80.0,-5.0
129.0,125.0,128.0,128.0,127.0,152.0,127.0,128.0,11.0,-99.0,-100.0,127.0,127.0,127.0,96.0,80.0,-5.0
129.0,126.0,128.0,128.0,127.0,152.0,127.0,128.0,11.0,-99.0,-100.0,127.0,127.0,127.0,96.0,80.0,-5.0
129.0,126.0,128.0,128.0,127.0,152.0,127.0,128.0,11.0,-99.0,-100.0,127.0,127.0,127.0,96.0,80.0,-5.0
128.0,125.0,126.0,128.0,127.0,152.0,127.0,129.0,11.0,-99.0,-100.0,127.0,127.0,127.0,96.0,80.0,-5.0
128.0,125.0,127.0,128.0,127.0,152.0,127.0,129.0,11.0,-99.0,-100.0,127.0,127.0,127.0,96.0,80.0,-5.0
128.0,125.0,127.0,128.0,127.0,152.0,127.0,128.0,11.0,-99.0,-100.0,127.0,127.0,127.0,96.0,80.0,-5.0
128.0,125.0,127.0,128.0,127.0,152.0,127.0,128.0,11.0,-99.0,-100.0,127.0,127.0,127.0,96.0,80.0,-5.0
128.0,125.0,126.0,128.0,127.0,152.0,127.0,128.0,11.0,-99.0,-100.0,127.0,127.0,127.0,96.0,80.0,-5.0
128.0,125.0,127.0,128.0,127.0,152.0,127.0,128.0,11.0,-99.0,-100.0,127.0,127.0,127.0,96.0,80.0,-5.0
128.0,125.0,127.0,128.0,127.0,152.0,127.0,128.0,11.0,-99.0,-100.0,127.0,127.0,127.0,96.0,80.0,-5.0
128.0,125.0,127.0,128.0,127.0,152.0,127.0,128.0,11.0,-99.0,-100.0,127.0,127.0,127.0,96.0,80.0,-5.0
128.0,125.0,126.0,128.0,127.0,152.0,127.0,129.0,11.0,-99.0,-100.0,127.0,127.0,127.0,96.0,80.0,-5.0
128.0,125.0,126.0,128.0,127.0,152.0,127.0,129.0,11.0,-99.0,-100.0,127.0,127.0,127.0,96.0,80.0,-5.0
127.0,127.0,126.0,128.0,127.0,152.0,128.0,127.0,11.0,-99.0,-100.0,127.0,127.0,127.0,96.0,80.0,-5.0
127.0,128.0,127.0,128.0,127.0,152.0,128.0,128.0,11.0,-99.0,-100.0,127.0,127.0,127.0,96.0,80.0,-5.0
127.0,129.0,127.0,128.0,127.0,152.0,128.0,128.0,11.0,-99.0,-100.0,127.0,127.0,127.0,96.0,80.0,-5.0
127.0,129.0,127.0,128.0,127.0,152.0,128.0,128.0,11.0,-99.0,-100.0,127.0,127.0,127.0,96.0,80.0,-5.0
127.0,124.0,127.0,128.0,127.0,152.0,128.0,128.0,11.0,-99.0,-100.0,127.0,127.0,127.0,96.0,80.0,-5.0
127.0,124.0,127.0,128.0,127.0,152.0,128.0,128.0,11.0,-99.0,-100.0,127.0,127.0,127.0,96.0,80.0,-5.0
127.0,124.0,127.0,128.0,127.0,152.0,128.0,127.0,11.0,-99.0,-100.0,127.0,127.0,127.0,96.0,80.0,-5.0
127.0,125.0,126.0,128.0,127.0,152.0,127.0,127.0,11.0,-99.0,-100.0,127.0,127.0,127.0,96.0,80.0,-5.0
127.0,126.0,126.0,128.0,127.0,152.0,127.0,127.0,11.0,-99.0,-100.0,127.0,127.0,127.0,96.0,80.0,-5.0
127.0,126.0,126.0,128.0,127.0,152.0,127.0,127.0,11.0,-99.0,-100.0,127.0,127.0,127.0,96.0,80.0,-5.0
121.0,123.0,127.0,129.0,127.0,152.0,129.0,128.0,10.0,-99.0,-100.0,127.0,127.0,127.0,95.0,80.0,-5.0
121.0,123.0,126.0,129.0,127.0,152.0,129.0,128.0,10.0,-99.0,-100.0,127.0,127.0,127.0,95.0,80.0,-5.0
121.0,123.0,126.0,128.0,127.0,152.0,129.0,128.0,10.0,-99.0,-100.0,127.0,127.0,127.0,95.0,80.0,-5.0
122.0,123.0,127.0,128.0,127.0,152.0,128.0,128.0,10.0,-99.0,-100.0,127.0,127.0,127.0,95.0,80.0,-5.0
121.0,123.0,127.0,129.0,127.0,152.0,128.0,128.0,10.0,-99.0,-100.0,127.0,127.0,127.0,95.0,80.0,-5.0
121.0,123.0,127.0,129.0,128.0,152.0,129.0,128.0,10.0,-99.0,-100.0,127.0,127.0,127.0,95.0,80.0,-5.0
121.0,123.0,127.0,129.0,128.0,152.0,129.0,128.0,10.0,-99.0,-100.0,127.0,127.0,127.0,95.0,80.0,-5.0
121.0,123.0,127.0,129.0,128.0,152.0,129.0,128.0,10.0,-99.0,-100.0,127.0,127.0,127.0,95.0,80.0,-5.0
121.0,123.0,127.0,129.0,127.0,152.0,129.0,128.0,10.0,-99.0,-100.0,127.0,127.0,127.0,95.0,80.0,-5.0
121.0,122.0,127.0,129.0,127.0,152.0,129.0,128.0,10.0,-99.0,-100.0,127.0,127.0,127.0,95.0,80.0,-5.0
117.0,122.0,127.0,129.0,127.0,152.0,128.0,128.0,10.0,-99.0,-100.0,127.0,127.0,127.0,95.0,80.0,-5.0
117.0,122.0,126.0,129.0,127.0,152.0,128.0,128.0,10.0,-99.0,-100.0,127.0,127.0,127.0,95.0,80.0,-5.0
116.0,122.0,127.0,129.0,127.0,152.0,128.0,128.0,10.0,-99.0,-100.0,127.0,127.0,127.0,95.0,80.0,-5.0
116.0,122.0,127.0,129.0,127.0,152.0,129.0,128.0,10.0,-99.0,-100.0,127.0,127.0,127.0,95.0,80.0,-5.0
116.0,123.0,127.0,129.0,127.0,152.0,129.0,128.0,10.0,-99.0,-100.0,127.0,127.0,127.0,95.0,80.0,-5.0
116.0,122.0,127.0,129.0,127.0,152.0,129.0,128.0,10.0,-99.0,-100.0,127.0,127.0,127.0,95.0,80.0,-5.0
117.0,122.0,127.0,129.0,127.0,152.0,129.0,128.0,10.0,-99.0,-100.0,127.0,127.0,127.0,95.0,80.0,-5.0
117.0,122.0,127.0,129.0,127.0,152.0,129.0,128.0,10.0,-99.0,-100.0,127.0,127.0,127.0,95.0,80.0,-5.0
117.0,122.0,127.0,129.0,127.0,152.0,129.0,128.0,10.0,-99.0,-100.0,127.0,127.0,127.0,95.0,80.0,-5.0
117.0,122.0,127.0,129.0,127.0,152.0,129.0,128.0,10.0,-99.0,-100.0,127.0,127.0,127.0,95.0,80.0,-5.0
113.0,121.0,126.0,128.0,127.0,152.0,129.0,128.0,10.0,-98.0,-100.0,127.0,127.0,127.0,95.0,80.0,-5.0
114.0,122.0,126.0,127.0,127.0,152.0,128.0,128.0,10.0,-98.0,-100.0,127.0,127.0,127.0,95.0,80.0,-5.0
114.0,122.0,126.0,127.0,127.0,152.0,128.0,128.0,10.0,-98.0,-100.0,127.0,127.0,127.0,95.0,80.0,-5.0
113.0,122.0,126.0,127.0,127.0,152.0,128.0,128.0,10.0,-98.0,-100.0,127.0,127.0,127.0,95.0,80.0,-5.0
114.0,122.0,126.0,127.0,127.0,152.0,128.0,128.0,10.0,-98.0,-100.0,127.0,127.0,127.0,95.0,80.0,-5.0
114.0,122.0,126.0,128.0,127.0,152.0,128.0,128.0,10.0,-98.0,-100.0,127.0,127.0,127.0,95.0,80.0,-5.0
113.0,122.0,126.0,128.0,127.0,152.0,128.0,128.0,10.0,-98.0,-100.0,127.0,127.0,127.0,95.0,80.0,-5.0
113.0,121.0,126.0,128.0,127.0,152.0,129.0,128.0,10.0,-98.0,-100.0,127.0,127.0,127.0,95.0,80.0,-5.0
113.0,121.0,126.0,128.0,127.0,152.0,129.0,128.0,10.0,-98.0,-100.0,127.0,127.0,127.0,95.0,80.0,-5.0
113.0,121.0,126.0,128.0,127.0,152.0,129.0,128.0,10.0,-98.0,-100.0,127.0,127.0,127.0,95.0,80.0,-5.0
111.0,119.0,126.0,128.0,127.0,151.0,132.0,128.0,10.0,-98.0,-100.0,126.0,127.0,127.0,95.0,80.0,-5.0
111.0,120.0,126.0,128.0,128.0,151.0,132.0,128.0,10.0,-98.0,-100.0,126.0,127.0,127.0,95.0,80.0,-5.0
111.0,120.0,126.0,128.0,127.0,151.0,132.0,128.0,10.0,-98.0,-100.0,126.0,127.0,127.0,95.0,80.0,-5.0
111.0,120.0,126.0,128.0,127.0,151.0,132.0,128.0,10.0,-98.0,-100.0,126.0,127.0,127.0,95.0,80.0,-5.0
111.0,120.0,127.0,128.0,127.0,151.0,132.0,128.0,10.0,-98.0,-100.0,126.0,127.0,127.0,95.0,80.0,-5.0
111.0,120.0,127.0,128.0,127.0,151.0,132.0,128.0,10.0,-98.0,-100.0,126.0,127.0,127.0,95.0,80.0,-5.0
110.0,120.0,127.0,128.0,127.0,151.0,132.0,128.0,10.0,-98.0,-100.0,126.0,127.0,127.0,95.0,80.0,-5.0
110.0,120.0,127.0,128.0,127.0,151.0,132.0,128.0,10.0,-98.0,-100.0,126.0,127.0,127.0,95.0,80.0,-5.0
110.0,120.0,127.0,128.0,127.0,151.0,132.0,128.0,10.0,-98.0,-100.0,126.0,127.0,127.0,95.0,80.0,-5.0
109.0,120.0,127.0,128.0,127.0,151.0,132.0,128.0,10.0,-98.0,-100.0,126.0,127.0,127.0,95.0,80.0,-5.0
91.0,125.0,126.0,129.0,128.0,151.0,132.0,128.0,9.0,-98.0,-100.0,126.0,127.0,127.0,95.0,80.0,-5.0
91.0,125.0,126.0,129.0,128.0,151.0,132.0,128.0,9.0,-98.0,-100.0,126.0,127.0,127.0,95.0,80.0,-5.0
91.0,125.0,126.0,129.0,128.0,151.0,132.0,128.0,9.0,-98.0,-100.0,126.0,127.0,127.0,95.0,80.0,-5.0
91.0,125.0,126.0,129.0,128.0,151.0,132.0,128.0,9.0,-98.0,-100.0,126.0,127.0,127.0,95.0,80.0,-5.0
90.0,125.0,126.0,129.0,128.0,151.0,132.0,128.0,9.0,-98.0,-100.0,126.0,127.0,127.0,95.0,80.0,-5.0
90.0,125.0,126.0,129.0,128.0,151.0,132.0,128.0,9.0,-98.0,-100.0,126.0,127.0,127.0,95.0,80.0,-5.0
90.0,125.0,126.0,129.0,128.0,151.0,132.0,128.0,9.0,-98.0,-100.0,126.0,127.0,127.0,95.0,80.0,-5.0
90.0,125.0,126.0,129.0,128.0,151.0,131.0,128.0,9.0,-98.0,-100.0,126.0,127.0,127.0,95.0,80.0,-5.0
90.0,125.0,126.0,129.0,128.0,151.0,132.0,128.0,9.0,-98.0,-100.0,126.0,127.0,127.0,95.0,80.0,-5.0
91.0,124.0,126.0,129.0,128.0,151.0,132.0,128.0,9.0,-98.0,-100.0,126.0,127.0,127.0,95.0,80.0,-5.0
90.0,124.0,126.0,129.0,130.0,150.0,128.0,128.0,9.0,-98.0,-100.0,126.0,126.0,127.0,95.0,80.0,-5.0
90.0,124.0,126.0,129.0,130.0,150.0,128.0,128.0,9.0,-98.0,-100.0,126.0,126.0,127.0,95.0,80.0,-5.0
90.0,124.0,126.0,129.0,130.0,150.0,128.0,128.0,9.0,-98.0,-100.0,126.0,126.0,127.0,95.0,80.0,-5.0
90.0,124.0,126.0,129.0,130.0,150.0,128.0,128.0,9.0,-98.0,-100.0,126.0,126.0,127.0,95.0,80.0,-5.0
90.0,124.0,126.0,129.0,130.0,150.0,128.0,128.0,9.0,-98.0,-100.0,126.0,126.0,127.0,95.0,80.0,-5.0
90.0,124.0,125.0,129.0,130.0,150.0,128.0,128.0,9.0,-98.0,-100.0,126.0,126.0,127.0,95.0,80.0,-5.0
90.0,123.0,126.0,129.0,130.0,150.0,128.0,128.0,9.0,-98.0,-100.0,126.0,126.0,127.0,95.0,80.0,-5.0
90.0,123.0,125.0,129.0,130.0,150.0,128.0,128.0,9.0,-98.0,-100.0,126.0,126.0,127.0,95.0,80.0,-5.0
90.0,124.0,126.0,129.0,130.0,150.0,129.0,128.0,9.0,-98.0,-100.0,126.0,126.0,127.0,95.0,80.0,-5.0
90.0,124.0,126.0,129.0,130.0,150.0,129.0,128.0,9.0,-98.0,-100.0,126.0,126.0,127.0,95.0,80.0,-5.0
93.0,119.0,126.0,129.0,131.0,149.0,125.0,128.0,9.0,-97.0,-99.0,126.0,126.0,127.0,95.0,80.0,-5.0
93.0,119.0,126.0,129.0,131.0,149.0,125.0,128.0,9.0,-97.0,-99.0,126.0,126.0,127.0,95.0,80.0,-5.0
93.0,119.0,126.0,129.0,131.0,149.0,125.0,128.0,9.0,-97.0,-99.0,126.0,126.0,127.0,95.0,80.0,-5.0
93.0,119.0,126.0,129.0,131.0,149.0,125.0,128.0,9.0,-97.0,-99.0,126.0,126.0,127.0,95.0,80.0,-5.0
93.0,119.0,126.0,129.0,131.0,149.0,125.0,128.0,9.0,-97.0,-99.0,126.0,126.0,127.0,95.0,80.0,-5.0
93.0,119.0,126.0,129.0,131.0,149.0,125.0,128.0,9.0,-97.0,-99.0,126.0,126.0,127.0,95.0,80.0,-5.0
94.0,119.0,126.0,129.0,131.0,149.0,125.0,128.0,9.0,-97.0,-99.0,126.0,126.0,127.0,95.0,80.0,-5.0
92.0,119.0,126.0,129.0,131.0,149.0,126.0,128.0,9.0,-97.0,-99.0,126.0,126.0,127.0,95.0,80.0,-5.0
93.0,119.0,126.0,129.0,131.0,149.0,125.0,128.0,9.0,-97.0,-99.0,126.0,126.0,127.0,95.0,80.0,-5.0
93.0,119.0,126.0,129.0,131.0,149.0,125.0,128.0,9.0,-97.0,-99.0,126.0,126.0,127.0,95.0,80.0,-5.0
100.0,118.0,125.0,128.0,132.0,148.0,123.0,127.0,10.0,-96.0,-99.0,125.0,126.0,127.0,95.0,80.0,-5.0
100.0,118.0,125.0,128.0,132.0,147.0,123.0,127.0,10.0,-96.0,-99.0,125.0,126.0,127.0,95.0,80.0,-5.0
100.0,118.0,125.0,128.0,132.0,147.0,123.0,127.0,10.0,-96.0,-99.0,125.0,126.0,127.0,95.0,80.0,-5.0
100.0,118.0,125.0,128.0,132.0,147.0,123.0,127.0,10.0,-96.0,-99.0,125.0,126.0,127.0,95.0,80.0,-5.0
100.0,118.0,125.0,128.0,132.0,147.0,123.0,127.0,10.0,-96.0,-99.0,125.0,126.0,127.0,95.0,80.0,-5.0
100.0,118.0,125.0,128.0,132.0,147.0,123.0,127.0,10.0,-96.0,-99.0,125.0,126.0,127.0,95.0,80.0,-5.0
100.0,117.0,125.0,128.0,132.0,148.0,123.0,127.0,10.0,-96.0,-99.0,125.0,126.0,127.0,95.0,80.0,-5.0
99.0,118.0,125.0,128.0,132.0,148.0,123.0,127.0,10.0,-96.0,-99.0,125.0,126.0,127.0,95.0,80.0,-5.0
100.0,118.0,125.0,128.0,132.0,148.0,123.0,127.0,10.0,-96.0,-99.0,125.0,126.0,127.0,95.0,80.0,-5.0
100.0,118.0,125.0,128.0,133.0,148.0,123.0,127.0,10.0,-96.0,-99.0,125.0,126.0,127.0,95.0,80.0,-5.0
106.0,120.0,127.0,129.0,133.0,135.0,123.0,127.0,10.0,-96.0,-98.0,125.0,126.0,127.0,95.0,80.0,-5.0
106.0,120.0,128.0,129.0,133.0,134.0,124.0,127.0,10.0,-96.0,-98.0,125.0,126.0,127.0,95.0,80.0,-5.0
106.0,121.0,127.0,129.0,133.0,132.0,123.0,127.0,10.0,-96.0,-98.0,125.0,126.0,127.0,95.0,80.0,-5.0
106.0,121.0,127.0,129.0,133.0,131.0,123.0,127.0,10.0,-96.0,-98.0,125.0,126.0,127.0,95.0,80.0,-5.0
106.0,121.0,128.0,129.0,133.0,129.0,123.0,127.0,10.0,-96.0,-98.0,125.0,126.0,127.0,95.0,80.0,-5.0
105.0,120.0,127.0,128.0,133.0,139.0,124.0,127.0,10.0,-96.0,-98.0,125.0,126.0,127.0,95.0,80.0,-5.0
105.0,120.0,127.0,128.0,133.0,138.0,123.0,127.0,10.0,-96.0,-98.0,125.0,126.0,127.0,95.0,80.0,-5.0
105.0,120.0,127.0,128.0,133.0,138.0,123.0,127.0,10.0,-96.0,-98.0,125.0,126.0,127.0,95.0,80.0,-5.0
105.0,120.0,127.0,128.0,133.0,137.0,124.0,127.0,10.0,-96.0,-98.0,125.0,126.0,127.0,95.0,80.0,-5.0
105.0,120.0,127.0,128.0,133.0,136.0,124.0,127.0,10.0,-96.0,-98.0,125.0,126.0,127.0,95.0,80.0,-5.0
113.0,119.0,130.0,127.0,130.0,0.0,120.0,127.0,11.0,-97.0,-97.0,125.0,126.0,127.0,95.0,80.0,-5.0
113.0,119.0,130.0,127.0,130.0,0.0,120.0,127.0,11.0,-97.0,-97.0,125.0,126.0,127.0,95.0,80.0,-5.0
113.0,120.0,130.0,127.0,130.0,0.0,120.0,127.0,11.0,-97.0,-97.0,125.0,126.0,127.0,95.0,80.0,-5.0
113.0,120.0,130.0,127.0,130.0,0.0,120.0,127.0,11.0,-97.0,-97.0,125.0,126.0,127.0,95.0,80.0,-5.0
112.0,119.0,130.0,127.0,130.0,0.0,121.0,127.0,11.0,-97.0,-97.0,125.0,126.0,127.0,95.0,80.0,-5.0
112.0,119.0,130.0,127.0,130.0,0.0,120.0,127.0,11.0,-97.0,-97.0,125.0,126.0,127.0,95.0,80.0,-5.0
112.0,119.0,130.0,127.0,130.0,0.0,120.0,127.0,11.0,-97.0,-97.0,125.0,126.0,127.0,95.0,80.0,-5.0
112.0,119.0,130.0,127.0,130.0,0.0,120.0,127.0,11.0,-97.0,-97.0,125.0,126.0,127.0,95.0,80.0,-5.0
113.0,119.0,130.0,127.0,130.0,0.0,120.0,127.0,11.0,-97.0,-97.0,125.0,126.0,127.0,95.0,80.0,-5.0
113.0,119.0,130.0,127.0,130.0,0.0,120.0,127.0,11.0,-97.0,-97.0,125.0,126.0,127.0,95.0,80.0,-5.0
117.0,122.0,128.0,127.0,129.0,0.0,122.0,127.0,11.0,-98.0,-96.0,125.0,126.0,127.0,95.0,80.0,-5.0
117.0,122.0,129.0,127.0,129.0,0.0,122.0,127.0,11.0,-98.0,-96.0,125.0,126.0,127.0,95.0,80.0,-5.0
117.0,122.0,129.0,127.0,129.0,0.0,122.0,127.0,11.0,-98.0,-96.0,125.0,126.0,127.0,95.0,80.0,-5.0
117.0,121.0,129.0,126.0,129.0,0.0,121.0,127.0,11.0,-98.0,-96.0,125.0,126.0,127.0,95.0,80.0,-5.0
117.0,121.0,129.0,126.0,129.0,0.0,121.0,127.0,11.0,-98.0,-96.0,125.0,126.0,127.0,95.0,80.0,-5.0
117.0,122.0,128.0,126.0,129.0,0.0,121.0,127.0,11.0,-98.0,-96.0,125.0,126.0,127.0,95.0,80.0,-5.0
117.0,122.0,128.0,126.0,129.0,0.0,122.0,127.0,11.0,-98.0,-96.0,125.0,126.0,127.0,95.0,80.0,-5.0
117.0,122.0,128.0,126.0,129.0,0.0,122.0,127.0,11.0,-98.0,-96.0,125.0,126.0,127.0,95.0,80.0,-5.0
117.0,122.0,128.0,127.0,129.0,0.0,122.0,127.0,11.0,-98.0,-96.0,125.0,126.0,127.0,95.0,80.0,-5.0
117.0,122.0,128.0,127.0,129.0,0.0,122.0,127.0,11.0,-98.0,-96.0,125.0,126.0,127.0,95.0,80.0,-5.0
118.0,124.0,128.0,128.0,128.0,0.0,125.0,127.0,12.0,-99.0,-95.0,125.0,126.0,127.0,95.0,80.0,-5.0
118.0,124.0,128.0,128.0,128.0,0.0,125.0,127.0,12.0,-99.0,-95.0,125.0,126.0,127.0,95.0,80.0,-5.0
118.0,125.0,127.0,128.0,128.0,0.0,124.0,127.0,12.0,-99.0,-95.0,125.0,126.0,127.0,95.0,80.0,-5.0
118.0,125.0,127.0,128.0,129.0,0.0,124.0,128.0,12.0,-99.0,-95.0,125.0,126.0,127.0,95.0,80.0,-5.0
118.0,125.0,127.0,128.0,129.0,0.0,124.0,127.0,12.0,-99.0,-95.0,125.0,126.0,127.0,95.0,80.0,-5.0
118.0,125.0,127.0,128.0,128.0,0.0,124.0,127.0,12.0,-99.0,-95.0,125.0,126.0,127.0,95.0,80.0,-5.0
118.0,125.0,127.0,128.0,128.0,0.0,124.0,127.0,12.0,-99.0,-95.0,125.0,126.0,127.0,95.0,80.0,-5.0
118.0,124.0,127.0,128.0,128.0,0.0,124.0,127.0,12.0,-99.0,-95.0,125.0,126.0,127.0,95.0,80.0,-5.0
118.0,124.0,127.0,128.0,129.0,0.0,124.0,127.0,12.0,-99.0,-95.0,125.0,126.0,127.0,95.0,80.0,-5.0
118.0,124.0,127.0,128.0,128.0,0.0,125.0,127.0,12.0,-99.0,-95.0,125.0,126.0,127.0,95.0,80.0,-5.0
119.0,126.0,124.0,128.0,128.0,0.0,126.0,127.0,12.0,-99.0,-94.0,125.0,126.0,127.0,95.0,80.0,-5.0
118.0,126.0,125.0,128.0,129.0,0.0,125.0,127.0,12.0,-99.0,-94.0,125.0,126.0,127.0,95.0,80.0,-5.0
118.0,126.0,125.0,128.0,129.0,0.0,126.0,127.0,12.0,-99.0,-94.0,125.0,126.0,127.0,95.0,80.0,-5.0
118.0,126.0,125.0,128.0,128.0,0.0,126.0,127.0,12.0,-99.0,-94.0,125.0,126.0,127.0,95.0,80.0,-5.0
118.0,126.0,125.0,128.0,128.0,0.0,126.0,127.0,12.0,-99.0,-94.0,125.0,126.0,127.0,95.0,80.0,-5.0
118.0,126.0,125.0,128.0,128.0,0.0,126.0,127.0,12.0,-99.0,-94.0,125.0,126.0,127.0,95.0,80.0,-5.0
118.0,126.0,124.0,128.0,128.0,0.0,126.0,127.0,12.0,-99.0,-94.0,125.0,126.0,127.0,95.0,80.0,-5.0
119.0,126.0,124.0,128.0,128.0,0.0,126.0,127.0,12.0,-99.0,-94.0,125.0,126.0,127.0,95.0,80.0,-5.0
119.0,126.0,124.0,128.0,128.0,0.0,126.0,127.0,12.0,-99.0,-94.0,125.0,126.0,127.0,95.0,80.0,-5.0
119.0,126.0,124.0,128.0,128.0,0.0,126.0,127.0,12.0,-99.0,-94.0,125.0,126.0,127.0,95.0,80.0,-5.0
119.0,126.0,126.0,128.0,128.0,0.0,126.0,127.0,13.0,-100.0,-94.0,125.0,126.0,127.0,95.0,80.0,-5.0
119.0,126.0,126.0,128.0,128.0,0.0,127.0,127.0,13.0,-100.0,-94.0,125.0,126.0,127.0,95.0,80.0,-5.0
119.0,126.0,126.0,128.0,128.0,0.0,127.0,127.0,13.0,-100.0,-94.0,125.0,126.0,127.0,95.0,80.0,-5.0
119.0,126.0,126.0,128.0,128.0,0.0,127.0,127.0,13.0,-100.0,-94.0,125.0,126.0,127.0,95.0,80.0,-5.0
119.0,126.0,126.0,128.0,128.0,0.0,127.0,127.0,13.0,-100.0,-94.0,125.0,126.0,127.0,95.0,80.0,-5.0
119.0,126.0,126.0,128.0,128.0,0.0,126.0,127.0,13.0,-100.0,-94.0,125.0,126.0,127.0,95.0,80.0,-5.0
119.0,126.0,126.0,128.0,128.0,0.0,126.0,127.0,13.0,-100.0,-94.0,125.0,126.0,127.0,95.0,80.0,-5.0
119.0,126.0,126.0,128.0,127.0,0.0,127.0,127.0,13.0,-100.0,-94.0,125.0,126.0,127.0,95.0,80.0,-5.0
119.0,126.0,126.0,128.0,127.0,0.0,127.0,127.0,13.0,-100.0,-94.0,125.0,126.0,127.0,95.0,80.0,-5.0
119.0,126.0,126.0,128.0,127.0,0.0,127.0,127.0,13.0,-100.0,-94.0,125.0,126.0,127.0,95.0,80.0,-5.0
118.0,125.0,126.0,128.0,126.0,0.0,127.0,127.0,13.0,-100.0,-93.0,125.0,126.0,127.0,96.0,80.0,-5.0
118.0,125.0,126.0,128.0,126.0,0.0,127.0,127.0,13.0,-100.0,-93.0,125.0,126.0,127.0,96.0,80.0,-5.0
118.0,125.0,126.0,128.0,126.0,0.0,127.0,127.0,13.0,-100.0,-93.0,125.0,126.0,127.0,96.0,80.0,-5.0
118.0,125.0,126.0,128.0,126.0,0.0,127.0,127.0,13.0,-100.0,-93.0,125.0,126.0,127.0,96.0,80.0,-5.0
118.0,125.0,125.0,128.0,126.0,0.0,127.0,127.0,13.0,-100.0,-93.0,125.0,126.0,127.0,96.0,80.0,-5.0
118.0,125.0,125.0,128.0,126.0,0.0,127.0,127.0,13.0,-100.0,-93.0,125.0,126.0,127.0,96.0,80.0,-5.0
118.0,125.0,126.0,128.0,126.0,0.0,127.0,127.0,13.0,-100.0,-93.0,125.0,126.0,127.0,96.0,80.0,-5.0
118.0,125.0,126.0,128.0,126.0,0.0,127.0,127.0,13.0,-100.0,-93.0,125.0,126.0,127.0,96.0,80.0,-5.0
118.0,125.0,126.0,128.0,126.0,0.0,127.0,127.0,13.0,-100.0,-93.0,125.0,126.0,127.0,96.0,80.0,-5.0
118.0,125.0,126.0,128.0,126.0,0.0,127.0,127.0,13.0,-100.0,-93.0,125.0,126.0,127.0,96.0,80.0,-5.0
119.0,126.0,126.0,128.0,125.0,0.0,126.0,127.0,14.0,-100.0,-92.0,125.0,126.0,127.0,96.0,80.0,-5.0
119.0,126.0,126.0,128.0,125.0,0.0,126.0,127.0,14.0,-100.0,-92.0,125.0,126.0,127.0,96.0,80.0,-5.0
119.0,126.0,126.0,128.0,125.0,0.0,126.0,127.0,14.0,-100.0,-92.0,125.0,126.0,127.0,96.0,80.0,-5.0
119.0,126.0,126.0,128.0,125.0,0.0,126.0,127.0,14.0,-100.0,-92.0,125.0,126.0,127.0,96.0,80.0,-5.0
120.0,126.0,126.0,128.0,125.0,0.0,126.0,127.0,14.0,-100.0,-92.0,125.0,126.0,127.0,96.0,80.0,-5.0
120.0,126.0,126.0,128.0,125.0,0.0,126.0,127.0,14.0,-100.0,-92.0,125.0,126.0,127.0,96.0,80.0,-5.0
120.0,126.0,126.0,128.0,125.0,0.0,126.0,127.0,14.0,-100.0,-92.0,125.0,126.0,127.0,96.0,80.0,-5.0
119.0,125.0,126.0,128.0,125.0,0.0,126.0,127.0,14.0,-100.0,-92.0,125.0,126.0,127.0,96.0,80.0,-5.0
119.0,126.0,126.0,128.0,125.0,0.0,126.0,127.0,14.0,-100.0,-92.0,125.0,126.0,127.0,96.0,80.0,-5.0
119.0,125.0,126.0,128.0,125.0,0.0,126.0,127.0,14.0,-100.0,-92.0,125.0,126.0,127.0,96.0,80.0,-5.0
122.0,126.0,126.0,128.0,125.0,0.0,126.0,127.0,15.0,-100.0,-92.0,125.0,126.0,127.0,96.0,80.0,-5.0
122.0,126.0,126.0,128.0,125.0,0.0,127.0,127.0,15.0,-100.0,-92.0,125.0,126.0,127.0,96.0,80.0,-5.0
122.0,126.0,126.0,128.0,125.0,0.0,127.0,127.0,15.0,-100.0,-92.0,125.0,126.0,127.0,96.0,80.0,-5.0
122.0,126.0,126.0,128.0,125.0,0.0,127.0,127.0,15.0,-100.0,-92.0,125.0,126.0,127.0,96.0,80.0,-5.0
122.0,126.0,126.0,128.0,125.0,0.0,127.0,127.0,15.0,-100.0,-92.0,125.0,126.0,127.0,96.0,80.0,-5.0
122.0,126.0,126.0,128.0,125.0,0.0,127.0,127.0,15.0,-100.0,-92.0,125.0,126.0,127.0,96.0,80.0,-5.0
122.0,126.0,126.0,128.0,125.0,0.0,126.0,127.0,15.0,-100.0,-92.0,125.0,126.0,127.0,96.0,80.0,-5.0
122.0,126.0,126.0,128.0,125.0,0.0,126.0,127.0,15.0,-100.0,-92.0,125.0,126.0,127.0,96.0,80.0,-5.0
122.0,126.0,126.0,128.0,125.0,0.0,126.0,127.0,15.0,-100.0,-92.0,125.0,126.0,127.0,96.0,80.0,-5.0
122.0,126.0,126.0,128.0,125.0,0.0,126.0,127.0,15.0,-100.0,-92.0,125.0,126.0,127.0,96.0,80.0,-5.0
124.0,126.0,127.0,128.0,125.0,0.0,128.0,128.0,15.0,-100.0,-91.0,125.0,126.0,127.0,97.0,80.0,-5.0
124.0,126.0,127.0,128.0,125.0,0.0,128.0,128.0,15.0,-100.0,-91.0,125.0,126.0,127.0,97.0,80.0,-5.0
124.0,126.0,127.0,128.0,125.0,0.0,128.0,128.0,15.0,-100.0,-91.0,125.0,126.0,127.0,97.0,80.0,-5.0
124.0,126.0,127.0,128.0,125.0,0.0,128.0,128.0,15.0,-100.0,-91.0,125.0,126.0,127.0,97.0,80.0,-5.0
124.0,126.0,127.0,128.0,125.0,0.0,128.0,128.0,15.0,-100.0,-91.0,125.0,126.0,127.0,97.0,80.0,-5.0
124.0,126.0,127.0,128.0,124.0,0.0,127.0,127.0,15.0,-100.0,-91.0,125.0,126.0,127.0,97.0,80.0,-5.0
124.0,126.0,127.0,128.0,124.0,0.0,127.0,127.0,15.0,-100.0,-91.0,125.0,126.0,127.0,97.0,80.0,-5.0
124.0,126.0,127.0,128.0,125.0,0.0,127.0,127.0,15.0,-100.0,-91.0,125.0,126.0,127.0,97.0,80.0,-5.0
124.0,126.0,127.0,128.0,125.0,0.0,127.0,128.0,15.0,-100.0,-91.0,125.0,126.0,127.0,97.0,80.0,-5.0
124.0,126.0,127.0,128.0,125.0,0.0,128.0,128.0,15.0,-100.0,-91.0,125.0,126.0,127.0,97.0,80.0,-5.0
124.0,126.0,128.0,128.0,125.0,0.0,128.0,127.0,15.0,-101.0,-90.0,126.0,126.0,127.0,98.0,80.0,-5.0
124.0,126.0,128.0,128.0,125.0,0.0,128.0,127.0,15.0,-101.0,-90.0,126.0,126.0,127.0,98.0,80.0,-5.0
124.0,126.0,128.0,128.0,125.0,0.0,128.0,127.0,15.0,-101.0,-90.0,126.0,126.0,127.0,98.0,80.0,-5.0
124.0,126.0,128.0,128.0,125.0,0.0,128.0,127.0,15.0,-101.0,-90.0,126.0,126.0,127.0,98.0,80.0,-5.0
124.0,127.0,128.0,128.0,126.0,0.0,128.0,127.0,15.0,-101.0,-90.0,126.0,126.0,127.0,98.0,80.0,-5.0
124.0,127.0,128.0,128.0,126.0,0.0,127.0,127.0,15.0,-101.0,-90.0,126.0,126.0,127.0,98.0,80.0,-5.0
124.0,127.0,128.0,128.0,126.0,0.0,128.0,127.0,15.0,-101.0,-90.0,126.0,126.0,127.0,98.0,80.0,-5.0
124.0,126.0,128.0,128.0,126.0,0.0,128.0,127.0,15.0,-101.0,-90.0,126.0,126.0,127.0,98.0,80.0,-5.0
124.0,126.0,128.0,128.0,126.0,0.0,128.0,127.0,15.0,-101.0,-90.0,126.0,126.0,127.0,98.0,80.0,-5.0
124.0,126.0,128.0,128.0,126.0,0.0,128.0,127.0,15.0,-101.0,-90.0,126.0,126.0,127.0,98.0,80.0,-5.0
124.0,126.0,127.0,129.0,126.0,0.0,128.0,127.0,15.0,-102.0,-90.0,126.0,127.0,127.0,99.0,80.0,-5.0
124.0,126.0,127.0,129.0,126.0,0.0,128.0,128.0,15.0,-102.0,-90.0,126.0,127.0,127.0,99.0,80.0,-5.0
124.0,126.0,127.0,129.0,126.0,0.0,128.0,128.0,15.0,-102.0,-90.0,126.0,127.0,127.0,99.0,80.0,-5.0
124.0,126.0,127.0,128.0,126.0,0.0,127.0,127.0,15.0,-102.0,-90.0,126.0,127.0,127.0,99.0,80.0,-5.0
124.0,126.0,127.0,128.0,126.0,0.0,128.0,127.0,15.0,-102.0,-90.0,126.0,127.0,127.0,99.0,80.0,-5.0
124.0,126.0,127.0,128.0,126.0,0.0,128.0,127.0,15.0,-102.0,-90.0,126.0,127.0,127.0,99.0,80.0,-5.0
124.0,126.0,127.0,128.0,126.0,0.0,128.0,127.0,15.0,-102.0,-90.0,126.0,127.0,127.0,99.0,80.0,-5.0
124.0,126.0,127.0,128.0,126.0,0.0,128.0,127.0,15.0,-102.0,-90.0,126.0,127.0,127.0,99.0,80.0,-5.0
124.0,126.0,127.0,128.0,126.0,0.0,128.0,127.0,15.0,-102.0,-90.0,126.0,127.0,127.0,99.0,80.0,-5.0
124.0,126.0,127.0,128.0,126.0,0.0,128.0,127.0,15.0,-102.0,-90.0,126.0,127.0,127.0,99.0,80.0,-5.0
123.0,127.0,127.0,128.0,127.0,0.0,127.0,128.0,16.0,-102.0,-89.0,126.0,127.0,127.0,99.0,80.0,-5.0
123.0,127.0,127.0,128.0,127.0,0.0,127.0,128.0,16.0,-102.0,-89.0,126.0,127.0,127.0,99.0,80.0,-5.0
123.0,126.0,127.0,128.0,127.0,0.0,127.0,127.0,16.0,-102.0,-89.0,126.0,127.0,127.0,99.0,80.0,-5.0
123.0,126.0,127.0,128.0,127.0,0.0,127.0,127.0,16.0,-102.0,-89.0,126.0,127.0,127.0,99.0,80.0,-5.0
123.0,126.0,127.0,128.0,127.0,0.0,127.0,128.0,16.0,-102.0,-89.0,126.0,127.0,127.0,99.0,80.0,-5.0
123.0,126.0,127.0,128.0,127.0,0.0,127.0,128.0,16.0,-102.0,-89.0,126.0,127.0,127.0,99.0,80.0,-5.0
123.0,126.0,127.0,128.0,127.0,0.0,127.0,128.0,16.0,-102.0,-89.0,126.0,127.0,127.0,99.0,80.0,-5.0
123.0,126.0,127.0,128.0,127.0,0.0,127.0,128.0,16.0,-102.0,-89.0,126.0,127.0,127.0,99.0,80.0,-5.0
123.0,126.0,127.0,128.0,127.0,0.0,127.0,127.0,16.0,-102.0,-89.0,126.0,127.0,127.0,99.0,80.0,-5.0
123.0,127.0,127.0,128.0,127.0,0.0,127.0,128.0,16.0,-102.0,-89.0,126.0,127.0,127.0,99.0,80.0,-5.0
122.0,126.0,126.0,128.0,126.0,0.0,127.0,127.0,16.0,-102.0,-89.0,126.0,127.0,127.0,99.0,80.0,-5.0
122.0,126.0,126.0,128.0,126.0,0.0,127.0,127.0,16.0,-102.0,-89.0,126.0,127.0,127.0,99.0,80.0,-5.0
122.0,126.0,126.0,128.0,126.0,0.0,127.0,127.0,16.0,-102.0,-89.0,126.0,127.0,127.0,99.0,80.0,-5.0
122.0,126.0,126.0,128.0,126.0,0.0,127.0,127.0,16.0,-102.0,-89.0,126.0,127.0,127.0,99.0,80.0,-5.0
122.0,126.0,126.0,128.0,126.0,0.0,127.0,127.0,16.0,-102.0,-89.0,126.0,127.0,127.0,99.0,80.0,-5.0
122.0,126.0,126.0,128.0,126.0,0.0,127.0,127.0,16.0,-102.0,-89.0,126.0,127.0,127.0,99.0,80.0,-5.0
122.0,126.0,126.0,128.0,126.0,0.0,127.0,127.0,16.0,-102.0,-89.0,126.0,127.0,127.0,99.0,80.0,-5.0
122.0,126.0,126.0,128.0,126.0,0.0,127.0,127.0,16.0,-102.0,-89.0,126.0,127.0,127.0,99.0,80.0,-5.0
122.0,126.0,126.0,128.0,127.0,0.0,126.0,127.0,16.0,-102.0,-89.0,126.0,127.0,127.0,99.0,80.0,-5.0
122.0,126.0,126.0,128.0,126.0,0.0,126.0,127.0,16.0,-102.0,-89.0,126.0,127.0,127.0,99.0,80.0,-5.0
122.0,126.0,126.0,128.0,126.0,0.0,127.0,127.0,16.0,-101.0,-89.0,126.0,127.0,127.0,100.0,80.0,-5.0
122.0,126.0,126.0,128.0,126.0,0.0,127.0,127.0,16.0,-101.0,-89.0,126.0,127.0,127.0,100.0,80.0,-5.0
122.0,126.0,126.0,128.0,126.0,0.0,127.0,127.0,16.0,-101.0,-89.0,126.0,127.0,127.0,100.0,80.0,-5.0
122.0,126.0,126.0,128.0,126.0,0.0,127.0,127.0,16.0,-101.0,-89.0,126.0,127.0,127.0,100.0,80.0,-5.0
122.0,126.0,127.0,128.0,126.0,0.0,127.0,127.0,16.0,-101.0,-89.0,126.0,127.0,127.0,100.0,80.0,-5.0
122.0,126.0,126.0,128.0,126.0,0.0,127.0,127.0,16.0,-101.0,-89.0,126.0,127.0,127.0,100.0,80.0,-5.0
122.0,126.0,126.0,128.0,127.0,0.0,127.0,127.0,16.0,-101.0,-89.0,126.0,127.0,127.0,100.0,80.0,-5.0
122.0,126.0,126.0,128.0,127.0,0.0,127.0,127.0,16.0,-101.0,-89.0,126.0,127.0,127.0,100.0,80.0,-5.0
123.0,126.0,126.0,128.0,127.0,0.0,127.0,127.0,16.0,-101.0,-89.0,126.0,127.0,127.0,100.0,80.0,-5.0
123.0,126.0,126.0,128.0,127.0,0.0,127.0,127.0,16.0,-101.0,-89.0,126.0,127.0,127.0,100.0,80.0,-5.0
124.0,127.0,127.0,128.0,127.0,0.0,127.0,127.0,16.0,-101.0,-88.0,126.0,127.0,127.0,100.0,80.0,-5.0
124.0,127.0,127.0,129.0,127.0,0.0,127.0,127.0,16.0,-101.0,-88.0,126.0,127.0,127.0,100.0,80.0,-5.0
124.0,127.0,127.0,129.0,127.0,0.0,127.0,128.0,16.0,-101.0,-88.0,126.0,127.0,127.0,100.0,80.0,-5.0
124.0,127.0,127.0,129.0,127.0,0.0,127.0,128.0,16.0,-101.0,-88.0,126.0,127.0,127.0,100.0,80.0,-5.0
124.0,127.0,127.0,129.0,127.0,0.0,127.0,128.0,16.0,-101.0,-88.0,126.0,127.0,127.0,100.0,80.0,-5.0
124.0,127.0,127.0,129.0,127.0,0.0,127.0,128.0,16.0,-101.0,-88.0,126.0,127.0,127.0,100.0,80.0,-5.0
124.0,127.0,127.0,129.0,127.0,0.0,127.0,128.0,16.0,-101.0,-88.0,126.0,127.0,127.0,100.0,80.0,-5.0
124.0,127.0,127.0,129.0,127.0,0.0,127.0,128.0,16.0,-101.0,-88.0,126.0,127.0,127.0,100.0,80.0,-5.0
124.0,127.0,127.0,129.0,127.0,0.0,127.0,128.0,16.0,-101.0,-88.0,126.0,127.0,127.0,100.0,80.0,-5.0
124.0,127.0,127.0,128.0,127.0,0.0,127.0,127.0,16.0,-101.0,-88.0,126.0,127.0,127.0,100.0,80.0,-5.0
124.0,127.0,127.0,128.0,127.0,0.0,127.0,128.0,17.0,-102.0,-88.0,126.0,127.0,127.0,101.0,80.0,-5.0
124.0,127.0,127.0,128.0,127.0,0.0,127.0,128.0,17.0,-102.0,-88.0,126.0,127.0,127.0,101.0,80.0,-5.0
124.0,127.0,127.0,128.0,127.0,0.0,127.0,128.0,17.0,-102.0,-88.0,126.0,127.0,127.0,101.0,80.0,-5.0
124.0,127.0,127.0,128.0,127.0,0.0,127.0,128.0,17.0,-102.0,-88.0,126.0,127.0,127.0,101.0,80.0,-5.0
124.0,127.0,127.0,128.0,127.0,0.0,127.0,128.0,17.0,-102.0,-88.0,126.0,127.0,127.0,101.0,80.0,-5.0
124.0,127.0,127.0,128.0,127.0,0.0,127.0,128.0,17.0,-102.0,-88.0,126.0,127.0,127.0,101.0,80.0,-5.0
124.0,127.0,127.0,128.0,127.0,0.0,127.0,128.0,17.0,-102.0,-88.0,126.0,127.0,127.0,101.0,80.0,-5.0
124.0,127.0,127.0,128.0,127.0,0.0,127.0,128.0,17.0,-102.0,-88.0,126.0,127.0,127.0,101.0,80.0,-5.0
124.0,126.0,127.0,128.0,126.0,0.0,127.0,128.0,17.0,-102.0,-88.0,126.0,127.0,127.0,101.0,80.0,-5.0
124.0,127.0,127.0,128.0,127.0,0.0,127.0,128.0,17.0,-102.0,-88.0,126.0,127.0,127.0,101.0,80.0,-5.0
124.0,127.0,127.0,129.0,127.0,0.0,127.0,128.0,17.0,-102.0,-87.0,126.0,127.0,127.0,101.0,80.0,-5.0
124.0,127.0,127.0,129.0,127.0,0.0,127.0,128.0,17.0,-102.0,-87.0,126.0,127.0,127.0,101.0,80.0,-5.0
124.0,127.0,127.0,129.0,127.0,0.0,127.0,128.0,17.0,-102.0,-87.0,126.0,127.0,127.0,101.0,80.0,-5.0
124.0,127.0,128.0,129.0,127.0,0.0,127.0,128.0,17.0,-102.0,-87.0,126.0,127.0,127.0,101.0,80.0,-5.0
124.0,127.0,127.0,129.0,127.0,0.0,127.0,128.0,17.0,-102.0,-87.0,126.0,127.0,127.0,101.0,80.0,-5.0
124.0,127.0,127.0,129.0,127.0,0.0,127.0,128.0,17.0,-102.0,-87.0,126.0,127.0,127.0,101.0,80.0,-5.0
124.0,127.0,127.0,129.0,127.0,0.0,127.0,128.0,17.0,-102.0,-87.0,126.0,127.0,127.0,101.0,80.0,-5.0
124.0,127.0,127.0,128.0,127.0,0.0,127.0,128.0,17.0,-102.0,-87.0,126.0,127.0,127.0,101.0,80.0,-5.0
124.0,127.0,127.0,128.0,127.0,0.0,127.0,128.0,17.0,-102.0,-87.0,126.0,127.0,127.0,101.0,80.0,-5.0
124.0,127.0,127.0,129.0,127.0,0.0,127.0,128.0,17.0,-102.0,-87.0,126.0,127.0,127.0,101.0,80.0,-5.0
124.0,126.0,127.0,128.0,127.0,0.0,127.0,128.0,17.0,-102.0,-87.0,126.0,127.0,127.0,101.0,80.0,-5.0
124.0,126.0,127.0,128.0,127.0,0.0,127.0,128.0,17.0,-102.0,-87.0,126.0,127.0,127.0,101.0,80.0,-5.0
124.0,126.0,127.0,128.0,127.0,0.0,127.0,128.0,17.0,-102.0,-87.0,126.0,127.0,127.0,101.0,80.0,-5.0
124.0,127.0,127.0,128.0,127.0,0.0,127.0,127.0,17.0,-102.0,-87.0,126.0,127.0,127.0,101.0,80.0,-5.0
124.0,127.0,127.0,128.0,127.0,0.0,127.0,128.0,17.0,-102.0,-87.0,126.0,127.0,127.0,101.0,80.0,-5.0
124.0,126.0,127.0,128.0,126.0,0.0,127.0,127.0,17.0,-102.0,-87.0,126.0,127.0,127.0,101.0,80.0,-5.0
124.0,126.0,127.0,128.0,126.0,0.0,127.0,127.0,17.0,-102.0,-87.0,126.0,127.0,127.0,101.0,80.0,-5.0
124.0,126.0,127.0,128.0,127.0,0.0,127.0,127.0,17.0,-102.0,-87.0,126.0,127.0,127.0,101.0,80.0,-5.0
124.0,126.0,127.0,128.0,127.0,0.0,127.0,127.0,17.0,-102.0,-87.0,126.0,127.0,127.0,101.0,80.0,-5.0
124.0,126.0,127.0,128.0,127.0,0.0,127.0,127.0,17.0,-102.0,-87.0,126.0,127.0,127.0,101.0,80.0,-5.0
123.0,126.0,126.0,128.0,126.0,0.0,126.0,127.0,17.0,-102.0,-87.0,127.0,127.0,127.0,102.0,80.0,-5.0
123.0,126.0,126.0,128.0,126.0,0.0,126.0,127.0,17.0,-102.0,-87.0,127.0,127.0,127.0,102.0,80.0,-5.0
123.0,126.0,126.0,128.0,126.0,0.0,126.0,127.0,17.0,-102.0,-87.0,127.0,127.0,127.0,102.0,80.0,-5.0
123.0,126.0,126.0,128.0,126.0,0.0,126.0,127.0,17.0,-102.0,-87.0,127.0,127.0,127.0,102.0,80.0,-5.0
123.0,126.0,126.0,128.0,126.0,0.0,126.0,127.0,17.0,-102.0,-87.0,127.0,127.0,127.0,102.0,80.0,-5.0
123.0,126.0,126.0,128.0,126.0,0.0,126.0,127.0,17.0,-102.0,-87.0,127.0,127.0,127.0,102.0,80.0,-5.0
123.0,126.0,126.0,128.0,126.0,0.0,126.0,127.0,17.0,-102.0,-87.0,127.0,127.0,127.0,102.0,80.0,-5.0
123.0,126.0,126.0,128.0,126.0,0.0,126.0,127.0,17.0,-102.0,-87.0,127.0,127.0,127.0,102.0,80.0,-5.0
123.0,126.0,126.0,128.0,126.0,0.0,126.0,127.0,17.0,-102.0,-87.0,127.0,127.0,127.0,102.0,80.0,-5.0
123.0,126.0,126.0,128.0,126.0,0.0,126.0,127.0,17.0,-102.0,-87.0,127.0,127.0,127.0,102.0,80.0,-5.0
123.0,126.0,127.0,129.0,127.0,0.0,127.0,127.0,17.0,-102.0,-86.0,127.0,127.0,127.0,102.0,81.0,-5.0
123.0,126.0,126.0,128.0,127.0,0.0,127.0,127.0,17.0,-102.0,-86.0,127.0,127.0,127.0,102.0,81.0,-5.0
123.0,127.0,126.0,128.0,127.0,0.0,127.0,127.0,17.0,-102.0,-86.0,127.0,127.0,127.0,102.0,81.0,-5.0
123.0,126.0,127.0,128.0,127.0,0.0,127.0,127.0,17.0,-102.0,-86.0,127.0,127.0,127.0,102.0,81.0,-5.0
123.0,126.0,127.0,128.0,127.0,0.0,127.0,127.0,17.0,-102.0,-86.0,127.0,127.0,127.0,102.0,81.0,-5.0
123.0,126.0,126.0,128.0,127.0,0.0,126.0,127.0,17.0,-102.0,-86.0,127.0,127.0,127.0,102.0,81.0,-5.0
123.0,126.0,126.0,128.0,127.0,0.0,127.0,127.0,17.0,-102.0,-86.0,127.0,127.0,127.0,102.0,81.0,-5.0
123.0,126.0,127.0,128.0,127.0,0.0,127.0,127.0,17.0,-102.0,-86.0,127.0,127.0,127.0,102.0,81.0,-5.0
123.0,126.0,127.0,129.0,127.0,0.0,127.0,127.0,17.0,-102.0,-86.0,127.0,127.0,127.0,102.0,81.0,-5.0
123.0,126.0,127.0,128.0,127.0,0.0,127.0,127.0,17.0,-102.0,-86.0,127.0,127.0,127.0,102.0,81.0,-5.0
124.0,127.0,126.0,129.0,127.0,0.0,127.0,127.0,17.0,-101.0,-86.0,127.0,127.0,127.0,103.0,81.0,-5.0
124.0,127.0,126.0,129.0,127.0,0.0,127.0,128.0,17.0,-101.0,-86.0,127.0,127.0,127.0,103.0,81.0,-5.0
124.0,127.0,127.0,129.0,127.0,0.0,127.0,127.0,17.0,-101.0,-86.0,127.0,127.0,127.0,103.0,81.0,-5.0
124.0,127.0,127.0,129.0,127.0,0.0,127.0,127.0,17.0,-101.0,-86.0,127.0,127.0,127.0,103.0,81.0,-5.0
124.0,127.0,127.0,129.0,127.0,0.0,127.0,127.0,17.0,-101.0,-86.0,127.0,127.0,127.0,103.0,81.0,-5.0
124.0,127.0,127.0,129.0,127.0,0.0,127.0,127.0,17.0,-101.0,-86.0,127.0,127.0,127.0,103.0,81.0,-5.0
124.0,127.0,127.0,129.0,127.0,0.0,127.0,127.0,17.0,-101.0,-86.0,127.0,127.0,127.0,103.0,81.0,-5.0
124.0,127.0,127.0,129.0,127.0,0.0,127.0,127.0,17.0,-101.0,-86.0,127.0,127.0,127.0,103.0,81.0,-5.0
124.0,127.0,127.0,129.0,127.0,0.0,127.0,127.0,17.0,-101.0,-86.0,127.0,127.0,127.0,103.0,81.0,-5.0
124.0,127.0,127.0,129.0,127.0,0.0,127.0,127.0,17.0,-101.0,-86.0,127.0,127.0,127.0,103.0,81.0,-5.0
124.0,128.0,128.0,129.0,128.0,0.0,127.0,128.0,17.0,-101.0,-86.0,127.0,127.0,127.0,103.0,81.0,-5.0
124.0,128.0,127.0,129.0,128.0,0.0,127.0,128.0,17.0,-101.0,-86.0,127.0,127.0,127.0,103.0,81.0,-5.0
124.0,128.0,127.0,129.0,128.0,0.0,127.0,128.0,17.0,-101.0,-86.0,127.0,127.0,127.0,103.0,81.0,-5.0
124.0,128.0,128.0,129.0,128.0,0.0,127.0,128.0,17.0,-101.0,-86.0,127.0,127.0,127.0,103.0,81.0,-5.0
124.0,128.0,128.0,129.0,128.0,0.0,127.0,128.0,17.0,-101.0,-86.0,127.0,127.0,127.0,103.0,81.0,-5.0
124.0,128.0,128.0,129.0,128.0,0.0,127.0,128.0,17.0,-101.0,-86.0,127.0,127.0,127.0,103.0,81.0,-5.0
124.0,128.0,128.0,129.0,128.0,0.0,127.0,128.0,17.0,-101.0,-86.0,127.0,127.0,127.0,103.0,81.0,-5.0
124.0,128.0,128.0,129.0,128.0,0.0,127.0,128.0,17.0,-101.0,-86.0,127.0,127.0,127.0,103.0,81.0,-5.0
124.0,128.0,128.0,129.0,128.0,0.0,127.0,128.0,17.0,-101.0,-86.0,127.0,127.0,127.0,103.0,81.0,-5.0
124.0,128.0,128.0,129.0,128.0,0.0,127.0,128.0,17.0,-101.0,-86.0,127.0,127.0,127.0,103.0,81.0,-5.0
124.0,128.0,126.0,128.0,127.0,0.0,126.0,127.0,17.0,-102.0,-85.0,127.0,127.0,127.0,104.0,81.0,-5.0
124.0,128.0,126.0,128.0,127.0,0.0,126.0,127.0,17.0,-102.0,-85.0,127.0,127.0,127.0,104.0,81.0,-5.0
124.0,127.0,126.0,129.0,127.0,0.0,126.0,127.0,17.0,-102.0,-85.0,127.0,127.0,127.0,104.0,81.0,-5.0
124.0,127.0,126.0,129.0,127.0,0.0,126.0,127.0,17.0,-102.0,-85.0,127.0,127.0,127.0,104.0,81.0,-5.0
124.0,127.0,126.0,129.0,127.0,0.0,126.0,127.0,17.0,-102.0,-85.0,127.0,127.0,127.0,104.0,81.0,-5.0
124.0,127.0,126.0,129.0,127.0,0.0,127.0,127.0,17.0,-102.0,-85.0,127.0,127.0,127.0,104.0,81.0,-5.0
124.0,127.0,126.0,129.0,127.0,0.0,127.0,128.0,17.0,-102.0,-85.0,127.0,127.0,127.0,104.0,81.0,-5.0
124.0,127.0,126.0,129.0,127.0,0.0,127.0,128.0,17.0,-102.0,-85.0,127.0,127.0,127.0,104.0,81.0,-5.0
124.0,127.0,126.0,129.0,127.0,0.0,127.0,128.0,17.0,-102.0,-85.0,127.0,127.0,127.0,104.0,81.0,-5.0
124.0,127.0,126.0,129.0,127.0,0.0,127.0,128.0,17.0,-102.0,-85.0,127.0,127.0,127.0,104.0,81.0,-5.0
124.0,127.0,126.0,128.0,128.0,0.0,127.0,127.0,17.0,-102.0,-85.0,127.0,127.0,127.0,104.0,81.0,-5.0
124.0,127.0,126.0,128.0,128.0,0.0,127.0,127.0,17.0,-102.0,-85.0,127.0,127.0,127.0,104.0,81.0,-5.0
124.0,127.0,126.0,128.0,128.0,0.0,127.0,127.0,17.0,-102.0,-85.0,127.0,127.0,127.0,104.0,81.0,-5.0
124.0,127.0,126.0,128.0,128.0,0.0,127.0,127.0,17.0,-102.0,-85.0,127.0,127.0,127.0,104.0,81.0,-5.0
124.0,127.0,126.0,128.0,128.0,0.0,127.0,128.0,17.0,-102.0,-85.0,127.0,127.0,127.0,104.0,81.0,-5.0
124.0,127.0,126.0,128.0,128.0,0.0,127.0,128.0,17.0,-102.0,-85.0,127.0,127.0,127.0,104.0,81.0,-5.0
124.0,127.0,126.0,128.0,128.0,0.0,127.0,128.0,17.0,-102.0,-85.0,127.0,127.0,127.0,104.0,81.0,-5.0
124.0,127.0,126.0,129.0,128.0,0.0,127.0,128.0,17.0,-102.0,-85.0,127.0,127.0,127.0,104.0,81.0,-5.0
124.0,127.0,126.0,129.0,128.0,0.0,127.0,128.0,17.0,-102.0,-85.0,127.0,127.0,127.0,104.0,81.0,-5.0
124.0,127.0,126.0,128.0,128.0,0.0,127.0,127.0,17.0,-102.0,-85.0,127.0,127.0,127.0,104.0,81.0,-5.0
123.0,127.0,124.0,128.0,128.0,19.0,126.0,127.0,17.0,-101.0,-85.0,127.0,127.0,127.0,104.0,81.0,-5.0
123.0,127.0,124.0,128.0,128.0,21.0,126.0,127.0,17.0,-101.0,-85.0,127.0,127.0,127.0,104.0,81.0,-5.0
123.0,127.0,124.0,128.0,128.0,23.0,126.0,127.0,17.0,-101.0,-85.0,127.0,127.0,127.0,104.0,81.0,-5.0
123.0,127.0,124.0,129.0,128.0,25.0,126.0,127.0,17.0,-101.0,-85.0,127.0,127.0,127.0,104.0,81.0,-5.0
123.0,127.0,125.0,129.0,128.0,27.0,126.0,127.0,17.0,-101.0,-85.0,127.0,127.0,127.0,104.0,81.0,-5.0
123.0,127.0,125.0,129.0,128.0,29.0,126.0,127.0,17.0,-101.0,-85.0,127.0,127.0,127.0,104.0,81.0,-5.0
123.0,127.0,125.0,129.0,128.0,31.0,126.0,127.0,17.0,-101.0,-85.0,127.0,127.0,127.0,104.0,81.0,-5.0
123.0,127.0,125.0,129.0,128.0,33.0,127.0,127.0,17.0,-101.0,-85.0,127.0,127.0,127.0,104.0,81.0,-5.0
123.0,127.0,124.0,128.0,128.0,15.0,126.0,127.0,17.0,-101.0,-85.0,127.0,127.0,127.0,104.0,81.0,-5.0
123.0,127.0,124.0,128.0,128.0,17.0,126.0,127.0,17.0,-101.0,-85.0,127.0,127.0,127.0,104.0,81.0,-5.0
122.0,127.0,125.0,129.0,127.0,115.0,126.0,127.0,17.0,-101.0,-85.0,127.0,127.0,127.0,104.0,82.0,-5.0
122.0,127.0,125.0,129.0,127.0,116.0,126.0,127.0,17.0,-101.0,-85.0,127.0,127.0,127.0,104.0,82.0,-5.0
122.0,127.0,125.0,129.0,127.0,117.0,126.0,127.0,17.0,-101.0,-85.0,127.0,127.0,127.0,104.0,82.0,-5.0
122.0,127.0,125.0,129.0,127.0,118.0,126.0,127.0,17.0,-101.0,-85.0,127.0,127.0,127.0,104.0,82.0,-5.0
122.0,127.0,125.0,129.0,127.0,119.0,126.0,127.0,17.0,-101.0,-85.0,127.0,127.0,127.0,104.0,82.0,-5.0
122.0,127.0,125.0,129.0,127.0,120.0,126.0,127.0,17.0,-101.0,-85.0,127.0,127.0,127.0,104.0,82.0,-5.0
122.0,127.0,125.0,129.0,127.0,120.0,126.0,127.0,17.0,-101.0,-85.0,127.0,127.0,127.0,104.0,82.0,-5.0
122.0,127.0,125.0,129.0,127.0,112.0,126.0,127.0,17.0,-101.0,-85.0,127.0,127.0,127.0,104.0,82.0,-5.0
122.0,127.0,125.0,128.0,127.0,113.0,126.0,127.0,17.0,-101.0,-85.0,127.0,127.0,127.0,104.0,82.0,-5.0
122.0,127.0,125.0,129.0,127.0,114.0,126.0,127.0,17.0,-101.0,-85.0,127.0,127.0,127.0,104.0,82.0,-5.0
123.0,128.0,127.0,129.0,127.0,148.0,127.0,127.0,17.0,-101.0,-85.0,127.0,127.0,127.0,105.0,82.0,-5.0
123.0,127.0,127.0,129.0,127.0,148.0,127.0,127.0,17.0,-101.0,-85.0,127.0,127.0,127.0,105.0,82.0,-5.0
123.0,127.0,127.0,129.0,127.0,148.0,127.0,127.0,17.0,-101.0,-85.0,127.0,127.0,127.0,105.0,82.0,-5.0
123.0,128.0,127.0,129.0,127.0,148.0,127.0,127.0,17.0,-101.0,-85.0,127.0,127.0,127.0,105.0,82.0,-5.0
123.0,128.0,127.0,129.0,127.0,148.0,127.0,127.0,17.0,-101.0,-85.0,127.0,127.0,127.0,105.0,82.0,-5.0
123.0,128.0,127.0,129.0,127.0,149.0,127.0,127.0,17.0,-101.0,-85.0,127.0,127.0,127.0,105.0,82.0,-5.0
122.0,127.0,127.0,128.0,127.0,145.0,127.0,127.0,17.0,-101.0,-85.0,127.0,127.0,127.0,105.0,82.0,-5.0
122.0,127.0,127.0,128.0,127.0,145.0,127.0,127.0,17.0,-101.0,-85.0,127.0,127.0,127.0,105.0,82.0,-5.0
122.0,127.0,127.0,128.0,127.0,146.0,127.0,127.0,17.0,-101.0,-85.0,127.0,127.0,127.0,105.0,82.0,-5.0
122.0,128.0,127.0,129.0,127.0,147.0,127.0,127.0,17.0,-101.0,-85.0,127.0,127.0,127.0,105.0,82.0,-5.0
124.0,128.0,126.0,129.0,127.0,155.0,127.0,128.0,17.0,-101.0,-85.0,127.0,127.0,127.0,105.0,82.0,-5.0
124.0,128.0,126.0,129.0,127.0,154.0,127.0,128.0,17.0,-101.0,-85.0,127.0,127.0,127.0,105.0,82.0,-5.0
124.0,127.0,126.0,129.0,127.0,154.0,127.0,128.0,17.0,-101.0,-85.0,127.0,127.0,127.0,105.0,82.0,-5.0
124.0,127.0,126.0,129.0,127.0,154.0,127.0,128.0,17.0,-101.0,-85.0,127.0,127.0,127.0,105.0,82.0,-5.0
124.0,127.0,126.0,129.0,127.0,153.0,127.0,128.0,17.0,-101.0,-85.0,127.0,127.0,127.0,105.0,82.0,-5.0
124.0,128.0,126.0,129.0,127.0,155.0,127.0,128.0,17.0,-101.0,-85.0,127.0,127.0,127.0,105.0,82.0,-5.0
124.0,128.0,126.0,129.0,127.0,155.0,127.0,128.0,17.0,-101.0,-85.0,127.0,127.0,127.0,105.0,82.0,-5.0
124.0,128.0,126.0,129.0,127.0,155.0,127.0,128.0,17.0,-101.0,-85.0,127.0,127.0,127.0,105.0,82.0,-5.0
124.0,128.0,126.0,129.0,127.0,155.0,127.0,128.0,17.0,-101.0,-85.0,127.0,127.0,127.0,105.0,82.0,-5.0
124.0,128.0,126.0,129.0,127.0,155.0,127.0,128.0,17.0,-101.0,-85.0,127.0,127.0,127.0,105.0,82.0,-5.0
124.0,127.0,128.0,129.0,126.0,153.0,126.0,127.0,17.0,-101.0,-85.0,127.0,127.0,127.0,105.0,82.0,-5.0
124.0,127.0,128.0,129.0,126.0,153.0,126.0,127.0,17.0,-101.0,-85.0,127.0,127.0,127.0,105.0,82.0,-5.0
124.0,127.0,128.0,129.0,126.0,153.0,127.0,127.0,17.0,-101.0,-85.0,127.0,127.0,127.0,105.0,82.0,-5.0
124.0,127.0,128.0,129.0,126.0,153.0,127.0,127.0,17.0,-101.0,-85.0,127.0,127.0,127.0,105.0,82.0,-5.0
124.0,127.0,128.0,129.0,126.0,154.0,126.0,127.0,17.0,-101.0,-85.0,127.0,127.0,127.0,105.0,82.0,-5.0
124.0,128.0,128.0,129.0,126.0,154.0,126.0,127.0,17.0,-101.0,-85.0,127.0,127.0,127.0,105.0,82.0,-5.0
124.0,127.0,128.0,129.0,127.0,154.0,126.0,127.0,17.0,-101.0,-85.0,127.0,127.0,127.0,105.0,82.0,-5.0
124.0,127.0,128.0,129.0,127.0,154.0,126.0,127.0,17.0,-101.0,-85.0,127.0,127.0,127.0,105.0,82.0,-5.0
124.0,127.0,128.0,129.0,126.0,154.0,126.0,127.0,17.0,-101.0,-85.0,127.0,127.0,127.0,105.0,82.0,-5.0
124.0,127.0,128.0,129.0,127.0,154.0,126.0,127.0,17.0,-101.0,-85.0,127.0,127.0,127.0,105.0,82.0,-5.0
124.0,127.0,126.0,129.0,126.0,150.0,126.0,127.0,17.0,-101.0,-85.0,127.0,127.0,127.0,106.0,82.0,-5.0
124.0,127.0,126.0,129.0,126.0,150.0,126.0,127.0,17.0,-101.0,-85.0,127.0,127.0,127.0,106.0,82.0,-5.0
124.0,127.0,126.0,129.0,126.0,150.0,126.0,127.0,17.0,-101.0,-85.0,127.0,127.0,127.0,106.0,82.0,-5.0
124.0,126.0,126.0,128.0,126.0,151.0,125.0,127.0,17.0,-101.0,-85.0,127.0,127.0,127.0,106.0,82.0,-5.0
124.0,127.0,126.0,128.0,126.0,151.0,125.0,127.0,17.0,-101.0,-85.0,127.0,127.0,127.0,106.0,82.0,-5.0
124.0,127.0,126.0,128.0,126.0,151.0,125.0,127.0,17.0,-101.0,-85.0,127.0,127.0,127.0,106.0,82.0,-5.0
124.0,127.0,126.0,128.0,126.0,151.0,125.0,127.0,17.0,-101.0,-85.0,127.0,127.0,127.0,106.0,82.0,-5.0
124.0,127.0,126.0,128.0,126.0,151.0,125.0,127.0,17.0,-101.0,-85.0,127.0,127.0,127.0,106.0,82.0,-5.0
124.0,127.0,126.0,129.0,126.0,151.0,125.0,127.0,17.0,-101.0,-85.0,127.0,127.0,127.0,106.0,82.0,-5.0
124.0,127.0,126.0,129.0,126.0,151.0,126.0,127.0,17.0,-101.0,-85.0,127.0,127.0,127.0,106.0,82.0,-5.0
123.0,127.0,127.0,129.0,126.0,149.0,126.0,127.0,18.0,-101.0,-85.0,127.0,127.0,127.0,106.0,82.0,-5.0
123.0,127.0,128.0,129.0,126.0,149.0,126.0,127.0,18.0,-101.0,-85.0,127.0,127.0,127.0,106.0,82.0,-5.0
123.0,127.0,127.0,128.0,126.0,150.0,126.0,127.0,18.0,-101.0,-85.0,127.0,127.0,127.0,106.0,82.0,-5.0
123.0,127.0,127.0,129.0,126.0,150.0,126.0,127.0,18.0,-101.0,-85.0,127.0,127.0,127.0,106.0,82.0,-5.0
123.0,127.0,127.0,129.0,126.0,151.0,126.0,127.0,18.0,-101.0,-85.0,127.0,127.0,127.0,106.0,82.0,-5.0
123.0,127.0,127.0,129.0,126.0,150.0,126.0,127.0,18.0,-101.0,-85.0,127.0,127.0,127.0,106.0,82.0,-5.0
123.0,127.0,127.0,129.0,126.0,150.0,126.0,127.0,18.0,-101.0,-85.0,127.0,127.0,127.0,106.0,82.0,-5.0
123.0,127.0,127.0,129.0,126.0,150.0,126.0,127.0,18.0,-101.0,-85.0,127.0,127.0,127.0,106.0,82.0,-5.0
123.0,127.0,127.0,129.0,126.0,150.0,126.0,127.0,18.0,-101.0,-85.0,127.0,127.0,127.0,106.0,82.0,-5.0
123.0,127.0,127.0,129.0,126.0,149.0,126.0,127.0,18.0,-101.0,-85.0,127.0,127.0,127.0,106.0,82.0,-5.0
124.0,128.0,125.0,129.0,127.0,150.0,127.0,128.0,18.0,-101.0,-84.0,127.0,127.0,127.0,106.0,82.0,-5.0
124.0,128.0,125.0,129.0,127.0,149.0,126.0,127.0,18.0,-101.0,-84.0,127.0,127.0,127.0,106.0,82.0,-5.0
124.0,128.0,125.0,129.0,127.0,151.0,126.0,127.0,18.0,-101.0,-84.0,127.0,127.0,127.0,106.0,82.0,-5.0
124.0,128.0,125.0,129.0,127.0,151.0,126.0,127.0,18.0,-101.0,-84.0,127.0,127.0,127.0,106.0,82.0,-5.0
124.0,128.0,125.0,129.0,127.0,151.0,126.0,127.0,18.0,-101.0,-84.0,127.0,127.0,127.0,106.0,82.0,-5.0
124.0,128.0,125.0,129.0,127.0,150.0,126.0,127.0,18.0,-101.0,-84.0,127.0,127.0,127.0,106.0,82.0,-5.0
124.0,128.0,125.0,129.0,127.0,151.0,127.0,127.0,18.0,-101.0,-84.0,127.0,127.0,127.0,106.0,82.0,-5.0
124.0,128.0,125.0,129.0,127.0,150.0,127.0,128.0,18.0,-101.0,-84.0,127.0,127.0,127.0,106.0,82.0,-5.0
124.0,128.0,125.0,129.0,127.0,150.0,127.0,128.0,18.0,-101.0,-84.0,127.0,127.0,127.0,106.0,82.0,-5.0
124.0,128.0,125.0,129.0,127.0,150.0,127.0,127.0,18.0,-101.0,-84.0,127.0,127.0,127.0,106.0,82.0,-5.0
124.0,127.0,128.0,129.0,127.0,148.0,127.0,127.0,18.0,-101.0,-84.0,127.0,127.0,127.0,106.0,82.0,-5.0
124.0,128.0,128.0,129.0,127.0,149.0,127.0,127.0,18.0,-101.0,-84.0,127.0,127.0,127.0,106.0,82.0,-5.0
124.0,127.0,128.0,129.0,127.0,149.0,127.0,127.0,18.0,-101.0,-84.0,127.0,127.0,127.0,106.0,82.0,-5.0
124.0,127.0,128.0,129.0,127.0,149.0,127.0,127.0,18.0,-101.0,-84.0,127.0,127.0,127.0,106.0,82.0,-5.0
124.0,127.0,128.0,129.0,127.0,148.0,127.0,127.0,18.0,-101.0,-84.0,127.0,127.0,127.0,106.0,82.0,-5.0
124.0,127.0,128.0,129.0,127.0,148.0,127.0,127.0,18.0,-101.0,-84.0,127.0,127.0,127.0,106.0,82.0,-5.0
124.0,127.0,128.0,129.0,127.0,148.0,127.0,127.0,18.0,-101.0,-84.0,127.0,127.0,127.0,106.0,82.0,-5.0
124.0,127.0,128.0,129.0,127.0,148.0,127.0,127.0,18.0,-101.0,-84.0,127.0,127.0,127.0,106.0,82.0,-5.0
124.0,127.0,128.0,129.0,127.0,148.0,127.0,127.0,18.0,-101.0,-84.0,127.0,127.0,127.0,106.0,82.0,-5.0
124.0,127.0,128.0,129.0,127.0,147.0,127.0,127.0,18.0,-101.0,-84.0,127.0,127.0,127.0,106.0,82.0,-5.0
124.0,127.0,126.0,129.0,127.0,149.0,127.0,127.0,18.0,-101.0,-84.0,127.0,127.0,127.0,106.0,82.0,-5.0
124.0,127.0,126.0,129.0,127.0,150.0,127.0,127.0,18.0,-101.0,-84.0,127.0,127.0,127.0,106.0,82.0,-5.0
124.0,127.0,126.0,129.0,127.0,150.0,127.0,127.0,18.0,-101.0,-84.0,127.0,127.0,127.0,106.0,82.0,-5.0
124.0,127.0,126.0,129.0,127.0,149.0,127.0,127.0,18.0,-101.0,-84.0,127.0,127.0,127.0,106.0,82.0,-5.0
124.0,127.0,126.0,129.0,127.0,149.0,127.0,127.0,18.0,-101.0,-84.0,127.0,127.0,127.0,106.0,82.0,-5.0
124.0,127.0,126.0,130.0,127.0,149.0,127.0,127.0,18.0,-101.0,-84.0,127.0,127.0,127.0,106.0,82.0,-5.0
124.0,127.0,126.0,130.0,127.0,149.0,127.0,128.0,18.0,-101.0,-84.0,127.0,127.0,127.0,106.0,82.0,-5.0
124.0,127.0,126.0,130.0,127.0,149.0,127.0,127.0,18.0,-101.0,-84.0,127.0,127.0,127.0,106.0,82.0,-5.0
124.0,127.0,126.0,129.0,127.0,148.0,127.0,127.0,18.0,-101.0,-84.0,127.0,127.0,127.0,106.0,82.0,-5.0
124.0,127.0,126.0,129.0,127.0,148.0,127.0,127.0,18.0,-101.0,-84.0,127.0,127.0,127.0,106.0,82.0,-5.0
123.0,127.0,125.0,130.0,127.0,145.0,126.0,127.0,18.0,-101.0,-84.0,127.0,127.0,127.0,106.0,82.0,-5.0
122.0,127.0,125.0,129.0,127.0,145.0,127.0,127.0,18.0,-101.0,-84.0,127.0,127.0,127.0,106.0,82.0,-5.0
122.0,127.0,125.0,130.0,127.0,146.0,126.0,127.0,18.0,-101.0,-84.0,127.0,127.0,127.0,106.0,82.0,-5.0
122.0,127.0,125.0,130.0,127.0,147.0,126.0,127.0,18.0,-101.0,-84.0,127.0,127.0,127.0,106.0,82.0,-5.0
122.0,127.0,124.0,130.0,127.0,147.0,126.0,127.0,18.0,-101.0,-84.0,127.0,127.0,127.0,106.0,82.0,-5.0
122.0,127.0,124.0,130.0,127.0,146.0,127.0,127.0,18.0,-101.0,-84.0,127.0,127.0,127.0,106.0,82.0,-5.0
122.0,127.0,124.0,130.0,127.0,146.0,127.0,127.0,18.0,-101.0,-84.0,127.0,127.0,127.0,106.0,82.0,-5.0
123.0,127.0,126.0,129.0,127.0,146.0,127.0,127.0,18.0,-101.0,-84.0,127.0,127.0,127.0,106.0,82.0,-5.0
123.0,127.0,126.0,129.0,127.0,145.0,127.0,127.0,18.0,-101.0,-84.0,127.0,127.0,127.0,106.0,82.0,-5.0
123.0,127.0,126.0,129.0,127.0,145.0,127.0,127.0,18.0,-101.0,-84.0,127.0,127.0,127.0,106.0,82.0,-5.0
