emg1,emg2,emg3,emg4,emg5,emg6,emg7,emg8,acc_x,acc_y,acc_z,gyro_x,gyro_y,gyro_z,angle_pitch,angle_roll,angle_yaw
126.0,128.0,126.0,128.0,126.0,129.0,126.0,125.0,-1.0,102.0,-66.0,127.0,127.0,127.0,-117.0,-91.0,111.0
126.0,128.0,127.0,127.0,126.0,128.0,126.0,125.0,-1.0,102.0,-66.0,127.0,127.0,127.0,-117.0,-91.0,111.0
126.0,128.0,127.0,127.0,127.0,128.0,126.0,125.0,-1.0,102.0,-66.0,127.0,127.0,127.0,-117.0,-91.0,111.0
126.0,128.0,127.0,127.0,127.0,128.0,126.0,125.0,-1.0,102.0,-66.0,127.0,127.0,127.0,-117.0,-91.0,111.0
126.0,128.0,127.0,127.0,127.0,128.0,126.0,125.0,-1.0,102.0,-66.0,127.0,127.0,127.0,-117.0,-91.0,111.0
126.0,128.0,126.0,127.0,126.0,128.0,126.0,125.0,-1.0,102.0,-66.0,127.0,127.0,127.0,-117.0,-91.0,111.0
126.0,128.0,126.0,128.0,126.0,129.0,126.0,125.0,-1.0,102.0,-66.0,127.0,127.0,127.0,-117.0,-91.0,111.0
126.0,128.0,127.0,127.0,126.0,127.0,127.0,124.0,-1.0,102.0,-66.0,127.0,127.0,127.0,-117.0,-91.0,111.0
126.0,128.0,126.0,127.0,126.0,127.0,126.0,124.0,-1.0,102.0,-66.0,127.0,127.0,127.0,-117.0,-91.0,111.0
126.0,128.0,127.0,127.0,126.0,127.0,126.0,124.0,-1.0,102.0,-66.0,127.0,127.0,127.0,-117.0,-91.0,111.0
126.0,128.0,127.0,127.0,126.0,127.0,127.0,124.0,-1.0,102.0,-66.0,127.0,127.0,127.0,-117.0,-91.0,111.0
126.0,128.0,127.0,127.0,126.0,127.0,127.0,124.0,-1.0,102.0,-66.0,127.0,127.0,127.0,-117.0,-91.0,111.0
126.0,128.0,127.0,127.0,126.0,127.0,127.0,124.0,-1.0,102.0,-66.0,127.0,127.0,127.0,-117.0,-91.0,111.0
126.0,128.0,127.0,127.0,126.0,127.0,127.0,124.0,-1.0,102.0,-66.0,127.0,127.0,127.0,-117.0,-91.0,111.0
126.0,128.0,127.0,127.0,126.0,127.0,127.0,124.0,-1.0,102.0,-66.0,127.0,127.0,127.0,-117.0,-91.0,111.0
126.0,128.0,127.0,127.0,126.0,127.0,127.0,124.0,-1.0,102.0,-66.0,127.0,127.0,127.0,-117.0,-91.0,111.0
126.0,128.0,127.0,127.0,126.0,127.0,127.0,124.0,-1.0,102.0,-66.0,127.0,127.0,127.0,-117.0,-91.0,111.0
126.0,128.0,127.0,127.0,126.0,127.0,126.0,124.0,-1.0,102.0,-66.0,127.0,127.0,127.0,-117.0,-91.0,111.0
126.0,128.0,127.0,127.0,126.0,127.0,126.0,124.0,-1.0,102.0,-66.0,127.0,127.0,127.0,-117.0,-91.0,111.0
126.0,128.0,127.0,127.0,126.0,128.0,126.0,124.0,-1.0,102.0,-66.0,127.0,127.0,127.0,-117.0,-91.0,111.0
126.0,128.0,127.0,127.0,126.0,128.0,126.0,124.0,-1.0,102.0,-66.0,127.0,127.0,127.0,-117.0,-91.0,111.0
126.0,128.0,127.0,127.0,126.0,128.0,126.0,124.0,-1.0,102.0,-66.0,127.0,127.0,127.0,-117.0,-91.0,111.0
126.0,128.0,127.0,127.0,126.0,128.0,126.0,124.0,-1.0,102.0,-66.0,127.0,127.0,127.0,-117.0,-91.0,111.0
126.0,128.0,127.0,127.0,126.0,128.0,126.0,124.0,-1.0,102.0,-66.0,127.0,127.0,127.0,-117.0,-91.0,111.0
126.0,128.0,127.0,127.0,126.0,128.0,126.0,124.0,-1.0,102.0,-66.0,127.0,127.0,127.0,-117.0,-91.0,111.0
126.0,128.0,127.0,127.0,126.0,128.0,126.0,124.0,-1.0,102.0,-66.0,127.0,127.0,127.0,-117.0,-91.0,111.0
126.0,128.0,127.0,127.0,126.0,128.0,126.0,124.0,-1.0,102.0,-66.0,127.0,127.0,127.0,-117.0,-91.0,111.0
126.0,128.0,127.0,127.0,126.0,127.0,126.0,124.0,-1.0,102.0,-66.0,127.0,127.0,127.0,-117.0,-91.0,111.0
127.0,128.0,127.0,127.0,127.0,127.0,126.0,124.0,-1.0,102.0,-66.0,127.0,127.0,127.0,-117.0,-91.0,111.0
127.0,128.0,127.0,127.0,127.0,127.0,126.0,124.0,-1.0,102.0,-66.0,127.0,127.0,127.0,-117.0,-91.0,111.0
127.0,128.0,126.0,127.0,126.0,128.0,125.0,124.0,-1.0,102.0,-66.0,127.0,127.0,127.0,-117.0,-91.0,111.0
127.0,128.0,126.0,127.0,126.0,128.0,125.0,124.0,-1.0,102.0,-66.0,127.0,127.0,127.0,-117.0,-91.0,111.0
127.0,128.0,126.0,128.0,126.0,128.0,125.0,124.0,-1.0,102.0,-66.0,127.0,127.0,127.0,-117.0,-91.0,111.0
127.0,128.0,127.0,127.0,126.0,128.0,125.0,124.0,-1.0,102.0,-66.0,127.0,127.0,127.0,-117.0,-91.0,111.0
126.0,128.0,127.0,127.0,126.0,128.0,125.0,124.0,-1.0,102.0,-66.0,127.0,127.0,127.0,-117.0,-91.0,111.0
126.0,128.0,126.0,127.0,126.0,128.0,125.0,124.0,-1.0,102.0,-66.0,127.0,127.0,127.0,-117.0,-91.0,111.0
126.0,128.0,127.0,127.0,126.0,127.0,126.0,124.0,-1.0,102.0,-66.0,127.0,127.0,127.0,-117.0,-91.0,111.0
127.0,128.0,127.0,128.0,127.0,128.0,125.0,124.0,-1.0,102.0,-66.0,127.0,127.0,127.0,-117.0,-91.0,111.0
127.0,128.0,127.0,127.0,127.0,128.0,125.0,125.0,-1.0,102.0,-66.0,127.0,127.0,127.0,-117.0,-91.0,111.0
127.0,128.0,126.0,127.0,126.0,128.0,125.0,125.0,-1.0,102.0,-66.0,127.0,127.0,127.0,-117.0,-91.0,111.0
127.0,128.0,127.0,128.0,126.0,128.0,124.0,125.0,-1.0,102.0,-66.0,127.0,127.0,127.0,-117.0,-91.0,111.0
127.0,128.0,127.0,128.0,126.0,128.0,125.0,125.0,-1.0,102.0,-66.0,127.0,127.0,127.0,-117.0,-91.0,111.0
127.0,128.0,127.0,128.0,126.0,128.0,125.0,125.0,-1.0,102.0,-66.0,127.0,127.0,127.0,-117.0,-91.0,111.0
127.0,128.0,127.0,128.0,126.0,128.0,125.0,125.0,-1.0,102.0,-66.0,127.0,127.0,127.0,-117.0,-91.0,111.0
127.0,128.0,127.0,128.0,126.0,128.0,125.0,125.0,-1.0,102.0,-66.0,127.0,127.0,127.0,-117.0,-91.0,111.0
127.0,128.0,127.0,128.0,126.0,128.0,125.0,125.0,-1.0,102.0,-66.0,127.0,127.0,127.0,-117.0,-91.0,111.0
127.0,128.0,127.0,127.0,126.0,127.0,125.0,125.0,-1.0,102.0,-66.0,127.0,127.0,127.0,-117.0,-91.0,111.0
126.0,128.0,127.0,127.0,126.0,128.0,125.0,124.0,-1.0,102.0,-66.0,127.0,127.0,127.0,-117.0,-91.0,111.0
127.0,128.0,127.0,127.0,126.0,128.0,125.0,125.0,-1.0,102.0,-66.0,127.0,127.0,127.0,-117.0,-91.0,111.0
126.0,128.0,127.0,127.0,126.0,129.0,125.0,125.0,-1.0,102.0,-66.0,127.0,127.0,127.0,-117.0,-91.0,111.0
127.0,128.0,127.0,127.0,126.0,129.0,125.0,125.0,-1.0,102.0,-66.0,127.0,127.0,127.0,-117.0,-91.0,111.0
127.0,128.0,127.0,127.0,126.0,129.0,125.0,125.0,-1.0,102.0,-66.0,127.0,127.0,127.0,-117.0,-91.0,111.0
127.0,128.0,127.0,127.0,126.0,128.0,125.0,125.0,-1.0,102.0,-66.0,127.0,127.0,127.0,-117.0,-91.0,111.0
126.0,128.0,127.0,127.0,126.0,128.0,125.0,125.0,-1.0,102.0,-66.0,127.0,127.0,127.0,-117.0,-91.0,111.0
126.0,128.0,127.0,127.0,126.0,128.0,125.0,125.0,-1.0,102.0,-66.0,127.0,127.0,127.0,-117.0,-91.0,111.0
126.0,128.0,127.0,127.0,127.0,128.0,126.0,125.0,-1.0,102.0,-66.0,127.0,127.0,127.0,-117.0,-91.0,111.0
126.0,128.0,127.0,127.0,126.0,128.0,125.0,125.0,-1.0,102.0,-66.0,127.0,127.0,127.0,-117.0,-91.0,111.0
127.0,128.0,126.0,127.0,126.0,128.0,125.0,125.0,-1.0,102.0,-66.0,127.0,127.0,127.0,-117.0,-91.0,111.0
127.0,128.0,126.0,127.0,126.0,128.0,125.0,125.0,-1.0,102.0,-66.0,127.0,127.0,127.0,-117.0,-91.0,111.0
127.0,128.0,126.0,127.0,126.0,128.0,125.0,125.0,-1.0,102.0,-66.0,127.0,127.0,127.0,-117.0,-91.0,111.0
127.0,128.0,127.0,127.0,126.0,128.0,125.0,125.0,-1.0,102.0,-66.0,127.0,127.0,127.0,-117.0,-91.0,111.0
127.0,128.0,127.0,127.0,126.0,128.0,125.0,125.0,-1.0,102.0,-66.0,127.0,127.0,127.0,-117.0,-91.0,111.0
127.0,128.0,127.0,127.0,126.0,128.0,125.0,125.0,-1.0,102.0,-66.0,127.0,127.0,127.0,-117.0,-91.0,111.0
127.0,128.0,127.0,127.0,126.0,128.0,125.0,125.0,-1.0,102.0,-66.0,127.0,127.0,127.0,-117.0,-91.0,111.0
127.0,128.0,127.0,127.0,126.0,128.0,126.0,125.0,-1.0,102.0,-66.0,127.0,127.0,127.0,-117.0,-91.0,111.0
126.0,128.0,127.0,127.0,126.0,128.0,126.0,124.0,-1.0,102.0,-66.0,127.0,127.0,127.0,-117.0,-91.0,111.0
127.0,128.0,127.0,127.0,126.0,128.0,126.0,125.0,-1.0,102.0,-66.0,127.0,127.0,127.0,-117.0,-91.0,111.0
127.0,128.0,127.0,128.0,126.0,129.0,125.0,124.0,-1.0,102.0,-66.0,127.0,127.0,127.0,-117.0,-91.0,111.0
127.0,128.0,127.0,128.0,126.0,128.0,125.0,124.0,-1.0,102.0,-66.0,127.0,127.0,127.0,-117.0,-91.0,111.0
127.0,128.0,127.0,128.0,126.0,128.0,125.0,124.0,-1.0,102.0,-66.0,127.0,127.0,127.0,-117.0,-91.0,111.0
127.0,128.0,127.0,128.0,126.0,128.0,125.0,124.0,-1.0,102.0,-66.0,127.0,127.0,127.0,-117.0,-91.0,111.0
127.0,128.0,127.0,128.0,126.0,128.0,125.0,125.0,-1.0,102.0,-66.0,127.0,127.0,127.0,-117.0,-91.0,111.0
127.0,128.0,127.0,128.0,126.0,128.0,125.0,124.0,-1.0,102.0,-66.0,127.0,127.0,127.0,-117.0,-91.0,111.0
127.0,128.0,127.0,128.0,126.0,128.0,125.0,124.0,-1.0,102.0,-66.0,127.0,127.0,127.0,-117.0,-91.0,111.0
127.0,128.0,127.0,128.0,126.0,128.0,125.0,124.0,-1.0,102.0,-66.0,127.0,127.0,127.0,-117.0,-91.0,111.0
127.0,128.0,127.0,128.0,127.0,128.0,125.0,124.0,-1.0,102.0,-66.0,127.0,127.0,127.0,-117.0,-91.0,111.0
126.0,128.0,127.0,127.0,126.0,128.0,125.0,124.0,-1.0,102.0,-66.0,127.0,127.0,127.0,-117.0,-91.0,111.0
127.0,128.0,126.0,128.0,126.0,128.0,125.0,125.0,-1.0,102.0,-66.0,127.0,127.0,127.0,-117.0,-91.0,111.0
127.0,128.0,127.0,128.0,126.0,128.0,125.0,124.0,-1.0,102.0,-66.0,127.0,127.0,127.0,-117.0,-91.0,111.0
126.0,128.0,127.0,128.0,126.0,128.0,125.0,124.0,-1.0,102.0,-66.0,127.0,127.0,127.0,-117.0,-91.0,111.0
126.0,128.0,127.0,128.0,126.0,128.0,125.0,125.0,-1.0,102.0,-66.0,127.0,127.0,127.0,-117.0,-91.0,111.0
127.0,128.0,127.0,128.0,126.0,128.0,125.0,124.0,-1.0,102.0,-66.0,127.0,127.0,127.0,-117.0,-91.0,111.0
126.0,128.0,127.0,128.0,127.0,128.0,125.0,124.0,-1.0,102.0,-66.0,127.0,127.0,127.0,-117.0,-91.0,111.0
126.0,128.0,127.0,128.0,126.0,128.0,125.0,124.0,-1.0,102.0,-66.0,127.0,127.0,127.0,-117.0,-91.0,111.0
126.0,128.0,127.0,128.0,126.0,128.0,125.0,124.0,-1.0,102.0,-66.0,127.0,127.0,127.0,-117.0,-91.0,111.0
126.0,128.0,127.0,128.0,126.0,128.0,125.0,124.0,-1.0,102.0,-66.0,127.0,127.0,127.0,-117.0,-91.0,111.0
127.0,128.0,126.0,128.0,126.0,128.0,125.0,125.0,-1.0,102.0,-66.0,127.0,127.0,127.0,-117.0,-91.0,111.0
126.0,128.0,127.0,127.0,126.0,127.0,126.0,124.0,-1.0,102.0,-66.0,127.0,127.0,127.0,-117.0,-91.0,111.0
127.0,128.0,127.0,127.0,126.0,127.0,126.0,124.0,-1.0,102.0,-66.0,127.0,127.0,127.0,-117.0,-91.0,111.0
127.0,128.0,127.0,127.0,126.0,128.0,126.0,124.0,-1.0,102.0,-66.0,127.0,127.0,127.0,-117.0,-91.0,111.0
127.0,128.0,127.0,127.0,126.0,127.0,126.0,124.0,-1.0,102.0,-66.0,127.0,127.0,127.0,-117.0,-91.0,111.0
127.0,128.0,127.0,127.0,126.0,127.0,126.0,124.0,-1.0,102.0,-66.0,127.0,127.0,127.0,-117.0,-91.0,111.0
126.0,127.0,127.0,127.0,127.0,127.0,126.0,124.0,-1.0,102.0,-66.0,127.0,127.0,127.0,-117.0,-91.0,111.0
126.0,128.0,127.0,127.0,126.0,127.0,126.0,124.0,-1.0,102.0,-66.0,127.0,127.0,127.0,-117.0,-91.0,111.0
126.0,128.0,127.0,127.0,127.0,127.0,126.0,124.0,-1.0,102.0,-66.0,127.0,127.0,127.0,-117.0,-91.0,111.0
126.0,128.0,127.0,127.0,127.0,127.0,126.0,124.0,-1.0,102.0,-66.0,127.0,127.0,127.0,-117.0,-91.0,111.0
126.0,128.0,127.0,127.0,127.0,127.0,126.0,124.0,-1.0,102.0,-66.0,127.0,127.0,127.0,-117.0,-91.0,111.0
126.0,128.0,127.0,127.0,126.0,128.0,125.0,124.0,-1.0,102.0,-66.0,127.0,127.0,127.0,-117.0,-91.0,111.0
127.0,128.0,126.0,127.0,126.0,127.0,125.0,124.0,-1.0,102.0,-66.0,127.0,127.0,127.0,-117.0,-91.0,111.0
126.0,128.0,127.0,127.0,126.0,127.0,125.0,124.0,-1.0,102.0,-66.0,127.0,127.0,127.0,-117.0,-91.0,111.0
126.0,128.0,127.0,127.0,127.0,127.0,126.0,124.0,-1.0,102.0,-66.0,127.0,127.0,127.0,-117.0,-91.0,111.0
127.0,128.0,126.0,127.0,126.0,128.0,125.0,124.0,-1.0,102.0,-66.0,127.0,127.0,127.0,-117.0,-91.0,111.0
127.0,128.0,126.0,127.0,126.0,128.0,125.0,124.0,-1.0,102.0,-66.0,127.0,127.0,127.0,-117.0,-91.0,111.0
126.0,128.0,126.0,127.0,126.0,128.0,125.0,124.0,-1.0,102.0,-66.0,127.0,127.0,127.0,-117.0,-91.0,111.0
126.0,128.0,126.0,127.0,126.0,128.0,125.0,124.0,-1.0,102.0,-66.0,127.0,127.0,127.0,-117.0,-91.0,111.0
126.0,128.0,126.0,127.0,126.0,128.0,125.0,124.0,-1.0,102.0,-66.0,127.0,127.0,127.0,-117.0,-91.0,111.0
127.0,128.0,126.0,127.0,126.0,128.0,125.0,124.0,-1.0,102.0,-66.0,127.0,127.0,127.0,-117.0,-91.0,111.0
126.0,128.0,127.0,127.0,126.0,128.0,124.0,124.0,-1.0,102.0,-66.0,127.0,127.0,127.0,-117.0,-91.0,111.0
126.0,128.0,127.0,127.0,126.0,128.0,125.0,125.0,-1.0,102.0,-66.0,127.0,127.0,127.0,-117.0,-91.0,111.0
126.0,128.0,127.0,127.0,126.0,127.0,125.0,125.0,-1.0,102.0,-66.0,127.0,127.0,127.0,-117.0,-91.0,111.0
127.0,128.0,126.0,127.0,126.0,128.0,124.0,124.0,-1.0,102.0,-66.0,127.0,127.0,127.0,-117.0,-91.0,111.0
127.0,128.0,126.0,127.0,126.0,128.0,124.0,124.0,-1.0,102.0,-66.0,127.0,127.0,127.0,-117.0,-91.0,111.0
127.0,128.0,126.0,127.0,126.0,128.0,124.0,125.0,-1.0,102.0,-66.0,127.0,127.0,127.0,-117.0,-91.0,111.0
127.0,128.0,126.0,127.0,126.0,128.0,124.0,124.0,-1.0,102.0,-66.0,127.0,127.0,127.0,-117.0,-91.0,111.0
126.0,128.0,127.0,127.0,126.0,128.0,124.0,124.0,-1.0,102.0,-66.0,127.0,127.0,127.0,-117.0,-91.0,111.0
127.0,128.0,127.0,127.0,126.0,128.0,124.0,125.0,-1.0,102.0,-66.0,127.0,127.0,127.0,-117.0,-91.0,111.0
127.0,128.0,127.0,127.0,126.0,128.0,124.0,124.0,-1.0,102.0,-66.0,127.0,127.0,127.0,-117.0,-91.0,111.0
127.0,128.0,127.0,127.0,126.0,128.0,125.0,125.0,-1.0,102.0,-66.0,127.0,127.0,127.0,-117.0,-91.0,111.0
127.0,128.0,127.0,127.0,126.0,127.0,125.0,124.0,-1.0,102.0,-66.0,127.0,127.0,127.0,-117.0,-91.0,111.0
127.0,128.0,127.0,128.0,126.0,128.0,125.0,125.0,-1.0,102.0,-66.0,127.0,127.0,127.0,-117.0,-91.0,111.0
127.0,128.0,127.0,128.0,126.0,128.0,125.0,125.0,-1.0,102.0,-66.0,127.0,127.0,127.0,-117.0,-91.0,111.0
127.0,128.0,127.0,128.0,126.0,128.0,125.0,125.0,-1.0,102.0,-66.0,127.0,127.0,127.0,-117.0,-91.0,111.0
127.0,128.0,127.0,128.0,126.0,128.0,125.0,125.0,-1.0,102.0,-66.0,127.0,127.0,127.0,-117.0,-91.0,111.0
127.0,128.0,127.0,127.0,126.0,128.0,125.0,125.0,-1.0,102.0,-66.0,127.0,127.0,127.0,-117.0,-91.0,111.0
127.0,128.0,127.0,128.0,126.0,128.0,125.0,125.0,-1.0,102.0,-66.0,127.0,127.0,127.0,-117.0,-91.0,111.0
127.0,128.0,127.0,127.0,126.0,128.0,125.0,125.0,-1.0,102.0,-66.0,127.0,127.0,127.0,-117.0,-91.0,111.0
127.0,128.0,127.0,127.0,126.0,128.0,125.0,125.0,-1.0,102.0,-66.0,127.0,127.0,127.0,-117.0,-91.0,111.0
126.0,128.0,127.0,127.0,127.0,128.0,126.0,125.0,-1.0,102.0,-66.0,127.0,127.0,127.0,-117.0,-91.0,111.0
126.0,128.0,127.0,127.0,127.0,128.0,126.0,125.0,-1.0,102.0,-66.0,127.0,127.0,127.0,-117.0,-91.0,111.0
126.0,128.0,127.0,127.0,126.0,129.0,126.0,125.0,-1.0,102.0,-66.0,127.0,127.0,127.0,-117.0,-91.0,111.0
126.0,128.0,127.0,127.0,126.0,129.0,126.0,125.0,-1.0,102.0,-66.0,127.0,127.0,127.0,-117.0,-91.0,111.0
126.0,128.0,127.0,127.0,127.0,129.0,126.0,125.0,-1.0,102.0,-66.0,127.0,127.0,127.0,-117.0,-91.0,111.0
126.0,128.0,127.0,127.0,126.0,128.0,126.0,125.0,-1.0,102.0,-66.0,127.0,127.0,127.0,-117.0,-91.0,111.0
126.0,128.0,127.0,127.0,127.0,128.0,126.0,125.0,-1.0,102.0,-66.0,127.0,127.0,127.0,-117.0,-91.0,111.0
126.0,128.0,127.0,127.0,127.0,128.0,126.0,125.0,-1.0,102.0,-66.0,127.0,127.0,127.0,-117.0,-91.0,111.0
126.0,128.0,127.0,127.0,127.0,128.0,126.0,125.0,-1.0,102.0,-66.0,127.0,127.0,127.0,-117.0,-91.0,111.0
126.0,128.0,127.0,127.0,127.0,128.0,126.0,125.0,-1.0,102.0,-66.0,127.0,127.0,127.0,-117.0,-91.0,111.0
126.0,128.0,127.0,127.0,126.0,128.0,126.0,125.0,-1.0,102.0,-66.0,127.0,127.0,127.0,-117.0,-91.0,111.0
127.0,128.0,127.0,127.0,126.0,128.0,126.0,125.0,-1.0,102.0,-66.0,127.0,127.0,127.0,-117.0,-91.0,111.0
127.0,128.0,127.0,127.0,126.0,128.0,125.0,125.0,-1.0,102.0,-66.0,127.0,127.0,127.0,-117.0,-91.0,111.0
126.0,128.0,127.0,127.0,126.0,128.0,126.0,125.0,-1.0,102.0,-66.0,127.0,127.0,127.0,-117.0,-91.0,111.0
126.0,128.0,127.0,127.0,126.0,128.0,126.0,125.0,-1.0,102.0,-66.0,127.0,127.0,127.0,-117.0,-91.0,111.0
126.0,128.0,127.0,127.0,126.0,128.0,126.0,125.0,-1.0,102.0,-66.0,127.0,127.0,127.0,-117.0,-91.0,111.0
126.0,128.0,127.0,127.0,126.0,128.0,126.0,125.0,-1.0,102.0,-66.0,127.0,127.0,127.0,-117.0,-91.0,111.0
126.0,128.0,127.0,127.0,126.0,128.0,126.0,125.0,-1.0,102.0,-66.0,127.0,127.0,127.0,-117.0,-91.0,111.0
126.0,128.0,127.0,127.0,126.0,128.0,126.0,125.0,-1.0,102.0,-66.0,127.0,127.0,127.0,-117.0,-91.0,111.0
126.0,128.0,127.0,127.0,126.0,128.0,126.0,125.0,-1.0,102.0,-66.0,127.0,127.0,127.0,-117.0,-91.0,111.0
127.0,128.0,127.0,127.0,126.0,128.0,126.0,125.0,-1.0,102.0,-66.0,127.0,127.0,127.0,-117.0,-91.0,111.0
127.0,128.0,127.0,127.0,126.0,128.0,126.0,125.0,-1.0,102.0,-66.0,127.0,127.0,127.0,-117.0,-91.0,111.0
126.0,128.0,127.0,127.0,126.0,128.0,126.0,125.0,-1.0,102.0,-66.0,127.0,127.0,127.0,-117.0,-91.0,111.0
126.0,128.0,127.0,127.0,126.0,128.0,126.0,125.0,-1.0,102.0,-66.0,127.0,127.0,127.0,-117.0,-91.0,111.0
126.0,128.0,127.0,127.0,126.0,128.0,126.0,125.0,-1.0,102.0,-66.0,127.0,127.0,127.0,-117.0,-91.0,111.0
126.0,128.0,127.0,127.0,126.0,128.0,126.0,125.0,-1.0,102.0,-66.0,127.0,127.0,127.0,-117.0,-91.0,111.0
126.0,128.0,127.0,127.0,126.0,128.0,126.0,125.0,-1.0,102.0,-66.0,127.0,127.0,127.0,-117.0,-91.0,111.0
126.0,128.0,127.0,127.0,126.0,128.0,126.0,125.0,-1.0,102.0,-66.0,127.0,127.0,127.0,-117.0,-91.0,111.0
126.0,128.0,127.0,127.0,126.0,128.0,126.0,125.0,-1.0,102.0,-66.0,127.0,127.0,127.0,-117.0,-91.0,111.0
126.0,128.0,127.0,127.0,126.0,128.0,126.0,125.0,-1.0,102.0,-66.0,127.0,127.0,127.0,-117.0,-91.0,111.0
127.0,128.0,127.0,128.0,126.0,128.0,126.0,125.0,-1.0,102.0,-66.0,127.0,127.0,127.0,-117.0,-91.0,111.0
127.0,128.0,127.0,128.0,126.0,128.0,126.0,125.0,-1.0,102.0,-66.0,127.0,127.0,127.0,-117.0,-91.0,111.0
126.0,128.0,127.0,128.0,126.0,128.0,126.0,125.0,-1.0,102.0,-66.0,127.0,127.0,127.0,-117.0,-91.0,111.0
126.0,128.0,127.0,128.0,126.0,128.0,126.0,125.0,-1.0,102.0,-66.0,127.0,127.0,127.0,-117.0,-91.0,111.0
126.0,128.0,127.0,128.0,126.0,128.0,126.0,125.0,-1.0,102.0,-66.0,127.0,127.0,127.0,-117.0,-91.0,111.0
126.0,128.0,127.0,128.0,126.0,128.0,126.0,125.0,-1.0,102.0,-66.0,127.0,127.0,127.0,-117.0,-91.0,111.0
126.0,128.0,127.0,127.0,126.0,128.0,126.0,125.0,-1.0,102.0,-66.0,127.0,127.0,127.0,-117.0,-91.0,111.0
126.0,128.0,127.0,127.0,126.0,128.0,126.0,125.0,-1.0,102.0,-66.0,127.0,127.0,127.0,-117.0,-91.0,111.0
126.0,128.0,127.0,127.0,126.0,128.0,126.0,125.0,-1.0,102.0,-66.0,127.0,127.0,127.0,-117.0,-91.0,111.0
127.0,128.0,127.0,127.0,126.0,128.0,126.0,125.0,-1.0,102.0,-66.0,127.0,127.0,127.0,-117.0,-91.0,111.0
126.0,128.0,127.0,127.0,127.0,127.0,127.0,125.0,-1.0,102.0,-66.0,127.0,127.0,127.0,-117.0,-91.0,111.0
126.0,128.0,127.0,127.0,126.0,127.0,126.0,125.0,-1.0,102.0,-66.0,127.0,127.0,127.0,-117.0,-91.0,111.0
127.0,128.0,127.0,127.0,126.0,128.0,126.0,125.0,-1.0,102.0,-66.0,127.0,127.0,127.0,-117.0,-91.0,111.0
127.0,128.0,127.0,127.0,126.0,128.0,126.0,125.0,-1.0,102.0,-66.0,127.0,127.0,127.0,-117.0,-91.0,111.0
126.0,128.0,127.0,127.0,126.0,128.0,126.0,125.0,-1.0,102.0,-66.0,127.0,127.0,127.0,-117.0,-91.0,111.0
126.0,128.0,127.0,127.0,126.0,128.0,126.0,125.0,-1.0,102.0,-66.0,127.0,127.0,127.0,-117.0,-91.0,111.0
126.0,128.0,127.0,127.0,126.0,128.0,126.0,125.0,-1.0,102.0,-66.0,127.0,127.0,127.0,-117.0,-91.0,111.0
126.0,128.0,127.0,127.0,127.0,127.0,127.0,125.0,-1.0,102.0,-66.0,127.0,127.0,127.0,-117.0,-91.0,111.0
126.0,128.0,127.0,127.0,127.0,127.0,127.0,125.0,-1.0,102.0,-66.0,127.0,127.0,127.0,-117.0,-91.0,111.0
126.0,128.0,127.0,127.0,127.0,127.0,127.0,125.0,-1.0,102.0,-66.0,127.0,127.0,127.0,-117.0,-91.0,111.0
126.0,128.0,127.0,127.0,126.0,128.0,126.0,124.0,-1.0,102.0,-66.0,127.0,127.0,127.0,-117.0,-91.0,111.0
126.0,128.0,127.0,127.0,126.0,127.0,126.0,124.0,-1.0,102.0,-66.0,127.0,127.0,127.0,-117.0,-91.0,111.0
126.0,128.0,127.0,127.0,126.0,127.0,126.0,124.0,-1.0,102.0,-66.0,127.0,127.0,127.0,-117.0,-91.0,111.0
126.0,128.0,127.0,127.0,126.0,127.0,126.0,124.0,-1.0,102.0,-66.0,127.0,127.0,127.0,-117.0,-91.0,111.0
126.0,128.0,127.0,127.0,126.0,127.0,126.0,124.0,-1.0,102.0,-66.0,127.0,127.0,127.0,-117.0,-91.0,111.0
126.0,128.0,127.0,127.0,126.0,127.0,126.0,124.0,-1.0,102.0,-66.0,127.0,127.0,127.0,-117.0,-91.0,111.0
126.0,128.0,127.0,127.0,126.0,128.0,126.0,125.0,-1.0,102.0,-66.0,127.0,127.0,127.0,-117.0,-91.0,111.0
126.0,128.0,127.0,127.0,126.0,128.0,126.0,125.0,-1.0,102.0,-66.0,127.0,127.0,127.0,-117.0,-91.0,111.0
126.0,128.0,127.0,127.0,126.0,128.0,126.0,125.0,-1.0,102.0,-66.0,127.0,127.0,127.0,-117.0,-91.0,111.0
126.0,128.0,127.0,127.0,126.0,128.0,126.0,125.0,-1.0,102.0,-66.0,127.0,127.0,127.0,-117.0,-91.0,111.0
126.0,128.0,127.0,127.0,126.0,127.0,125.0,124.0,-1.0,102.0,-66.0,127.0,127.0,127.0,-117.0,-91.0,111.0
126.0,128.0,127.0,127.0,126.0,127.0,125.0,124.0,-1.0,102.0,-66.0,127.0,127.0,127.0,-117.0,-91.0,111.0
126.0,128.0,127.0,127.0,126.0,127.0,125.0,124.0,-1.0,102.0,-66.0,127.0,127.0,127.0,-117.0,-91.0,111.0
126.0,128.0,127.0,127.0,126.0,127.0,126.0,124.0,-1.0,102.0,-66.0,127.0,127.0,127.0,-117.0,-91.0,111.0
126.0,128.0,127.0,127.0,126.0,127.0,126.0,124.0,-1.0,102.0,-66.0,127.0,127.0,127.0,-117.0,-91.0,111.0
126.0,128.0,127.0,128.0,126.0,128.0,125.0,125.0,-1.0,102.0,-66.0,127.0,127.0,127.0,-117.0,-91.0,111.0
126.0,128.0,127.0,127.0,126.0,128.0,125.0,124.0,-1.0,102.0,-66.0,127.0,127.0,127.0,-117.0,-91.0,111.0
126.0,128.0,127.0,127.0,126.0,128.0,125.0,125.0,-1.0,102.0,-66.0,127.0,127.0,127.0,-117.0,-91.0,111.0
126.0,128.0,127.0,127.0,126.0,128.0,125.0,124.0,-1.0,102.0,-66.0,127.0,127.0,127.0,-117.0,-91.0,111.0
126.0,128.0,127.0,127.0,126.0,128.0,125.0,124.0,-1.0,102.0,-66.0,127.0,127.0,127.0,-117.0,-91.0,111.0
126.0,128.0,127.0,127.0,126.0,127.0,126.0,125.0,-1.0,102.0,-66.0,127.0,127.0,127.0,-117.0,-91.0,111.0
126.0,128.0,127.0,127.0,126.0,127.0,126.0,125.0,-1.0,102.0,-66.0,127.0,127.0,127.0,-117.0,-91.0,111.0
126.0,128.0,127.0,127.0,126.0,127.0,126.0,125.0,-1.0,102.0,-66.0,127.0,127.0,127.0,-117.0,-91.0,111.0
127.0,128.0,127.0,127.0,126.0,127.0,126.0,125.0,-1.0,102.0,-66.0,127.0,127.0,127.0,-117.0,-91.0,111.0
126.0,128.0,126.0,127.0,126.0,128.0,125.0,125.0,-1.0,102.0,-66.0,127.0,127.0,127.0,-117.0,-91.0,111.0
126.0,128.0,127.0,127.0,126.0,128.0,125.0,125.0,-1.0,102.0,-66.0,127.0,127.0,127.0,-117.0,-91.0,111.0
126.0,128.0,127.0,127.0,126.0,128.0,125.0,125.0,-1.0,102.0,-66.0,127.0,127.0,127.0,-117.0,-91.0,111.0
126.0,128.0,127.0,127.0,126.0,128.0,126.0,125.0,-1.0,102.0,-66.0,127.0,127.0,127.0,-117.0,-91.0,111.0
126.0,128.0,127.0,127.0,126.0,128.0,126.0,125.0,-1.0,102.0,-66.0,127.0,127.0,127.0,-117.0,-91.0,111.0
126.0,128.0,127.0,127.0,126.0,128.0,126.0,125.0,-1.0,102.0,-66.0,127.0,127.0,127.0,-117.0,-91.0,111.0
126.0,128.0,126.0,127.0,127.0,128.0,126.0,125.0,-1.0,102.0,-66.0,127.0,127.0,127.0,-117.0,-91.0,111.0
126.0,127.0,126.0,127.0,127.0,128.0,126.0,125.0,-1.0,102.0,-66.0,127.0,127.0,127.0,-117.0,-91.0,111.0
126.0,127.0,126.0,127.0,127.0,128.0,126.0,125.0,-1.0,102.0,-66.0,127.0,127.0,127.0,-117.0,-91.0,111.0
127.0,128.0,127.0,127.0,127.0,129.0,126.0,125.0,-1.0,102.0,-66.0,127.0,127.0,127.0,-117.0,-91.0,111.0
127.0,128.0,127.0,127.0,127.0,129.0,126.0,125.0,-1.0,102.0,-66.0,127.0,127.0,127.0,-117.0,-91.0,111.0
127.0,128.0,127.0,127.0,127.0,128.0,126.0,125.0,-1.0,102.0,-66.0,127.0,127.0,127.0,-117.0,-91.0,111.0
127.0,128.0,127.0,127.0,127.0,128.0,126.0,125.0,-1.0,102.0,-66.0,127.0,127.0,127.0,-117.0,-91.0,111.0
127.0,128.0,126.0,127.0,127.0,129.0,126.0,125.0,-1.0,102.0,-66.0,127.0,127.0,127.0,-117.0,-91.0,111.0
127.0,128.0,126.0,127.0,127.0,128.0,126.0,125.0,-1.0,102.0,-66.0,127.0,127.0,127.0,-117.0,-91.0,111.0
126.0,128.0,126.0,127.0,127.0,128.0,126.0,125.0,-1.0,102.0,-66.0,127.0,127.0,127.0,-117.0,-91.0,111.0
126.0,128.0,127.0,127.0,127.0,128.0,126.0,125.0,-1.0,102.0,-66.0,127.0,127.0,127.0,-117.0,-91.0,111.0
126.0,128.0,127.0,127.0,127.0,127.0,126.0,125.0,-1.0,102.0,-66.0,127.0,127.0,127.0,-117.0,-91.0,111.0
126.0,128.0,126.0,127.0,126.0,128.0,125.0,124.0,-1.0,102.0,-66.0,127.0,127.0,127.0,-117.0,-91.0,111.0
127.0,128.0,127.0,127.0,126.0,128.0,125.0,125.0,-1.0,102.0,-66.0,127.0,127.0,127.0,-117.0,-91.0,111.0
126.0,128.0,127.0,127.0,126.0,128.0,125.0,124.0,-1.0,102.0,-66.0,127.0,127.0,127.0,-117.0,-91.0,111.0
126.0,128.0,127.0,127.0,127.0,128.0,126.0,125.0,-1.0,102.0,-66.0,127.0,127.0,127.0,-117.0,-91.0,111.0
126.0,128.0,127.0,127.0,126.0,128.0,126.0,124.0,-1.0,102.0,-66.0,127.0,127.0,127.0,-117.0,-91.0,111.0
126.0,128.0,127.0,127.0,127.0,128.0,126.0,124.0,-1.0,102.0,-66.0,127.0,127.0,127.0,-117.0,-91.0,111.0
126.0,128.0,127.0,127.0,127.0,128.0,126.0,125.0,-1.0,102.0,-66.0,127.0,127.0,127.0,-117.0,-91.0,111.0
126.0,128.0,127.0,127.0,127.0,128.0,126.0,125.0,-1.0,102.0,-66.0,127.0,127.0,127.0,-117.0,-91.0,111.0
126.0,128.0,127.0,127.0,127.0,128.0,126.0,125.0,-1.0,102.0,-66.0,127.0,127.0,127.0,-117.0,-91.0,111.0
126.0,128.0,126.0,127.0,126.0,128.0,125.0,125.0,-1.0,102.0,-66.0,127.0,127.0,127.0,-117.0,-91.0,111.0
126.0,128.0,127.0,127.0,126.0,128.0,125.0,125.0,-1.0,102.0,-66.0,127.0,127.0,127.0,-117.0,-91.0,111.0
126.0,128.0,127.0,127.0,126.0,128.0,125.0,125.0,-1.0,102.0,-66.0,127.0,127.0,127.0,-117.0,-91.0,111.0
126.0,128.0,127.0,127.0,126.0,128.0,125.0,125.0,-1.0,102.0,-66.0,127.0,127.0,127.0,-117.0,-91.0,111.0
126.0,128.0,127.0,127.0,126.0,128.0,125.0,125.0,-1.0,102.0,-66.0,127.0,127.0,127.0,-117.0,-91.0,111.0
126.0,128.0,127.0,127.0,126.0,128.0,126.0,125.0,-1.0,102.0,-66.0,127.0,127.0,127.0,-117.0,-91.0,111.0
126.0,128.0,127.0,127.0,127.0,128.0,126.0,125.0,-1.0,102.0,-66.0,127.0,127.0,127.0,-117.0,-91.0,111.0
126.0,128.0,127.0,127.0,127.0,128.0,126.0,125.0,-1.0,102.0,-66.0,127.0,127.0,127.0,-117.0,-91.0,111.0
126.0,128.0,127.0,127.0,127.0,128.0,126.0,125.0,-1.0,102.0,-66.0,127.0,127.0,127.0,-117.0,-91.0,111.0
127.0,128.0,127.0,127.0,126.0,128.0,126.0,125.0,-1.0,102.0,-66.0,127.0,127.0,127.0,-117.0,-91.0,111.0
127.0,128.0,127.0,127.0,126.0,128.0,126.0,125.0,-1.0,102.0,-66.0,127.0,127.0,127.0,-117.0,-91.0,111.0
126.0,128.0,127.0,127.0,126.0,128.0,126.0,125.0,-1.0,102.0,-66.0,127.0,127.0,127.0,-117.0,-91.0,111.0
126.0,128.0,127.0,127.0,126.0,128.0,127.0,125.0,-1.0,102.0,-66.0,127.0,127.0,127.0,-117.0,-91.0,111.0
126.0,128.0,127.0,126.0,126.0,127.0,127.0,125.0,-1.0,102.0,-66.0,127.0,127.0,127.0,-117.0,-91.0,111.0
126.0,128.0,127.0,126.0,126.0,127.0,127.0,125.0,-1.0,102.0,-66.0,127.0,127.0,127.0,-117.0,-91.0,111.0
126.0,128.0,127.0,126.0,126.0,127.0,127.0,125.0,-1.0,102.0,-66.0,127.0,127.0,127.0,-117.0,-91.0,111.0
126.0,128.0,127.0,126.0,126.0,127.0,127.0,125.0,-1.0,102.0,-66.0,127.0,127.0,127.0,-117.0,-91.0,111.0
126.0,128.0,127.0,126.0,126.0,127.0,127.0,125.0,-1.0,102.0,-66.0,127.0,127.0,127.0,-117.0,-91.0,111.0
126.0,128.0,127.0,126.0,126.0,127.0,127.0,125.0,-1.0,102.0,-66.0,127.0,127.0,127.0,-117.0,-91.0,111.0
127.0,128.0,127.0,125.0,125.0,125.0,127.0,125.0,-1.0,101.0,-66.0,127.0,127.0,127.0,-117.0,-91.0,111.0
127.0,128.0,126.0,124.0,125.0,125.0,127.0,125.0,-1.0,101.0,-66.0,127.0,127.0,127.0,-117.0,-91.0,111.0
127.0,128.0,126.0,125.0,124.0,125.0,126.0,125.0,-1.0,101.0,-66.0,127.0,127.0,127.0,-117.0,-91.0,111.0
127.0,128.0,126.0,125.0,124.0,126.0,126.0,125.0,-1.0,101.0,-66.0,127.0,127.0,127.0,-117.0,-91.0,111.0
127.0,128.0,125.0,125.0,125.0,126.0,126.0,125.0,-1.0,101.0,-66.0,127.0,127.0,127.0,-117.0,-91.0,111.0
127.0,128.0,125.0,125.0,125.0,126.0,126.0,125.0,-1.0,101.0,-66.0,127.0,127.0,127.0,-117.0,-91.0,111.0
127.0,128.0,125.0,125.0,125.0,126.0,126.0,125.0,-1.0,101.0,-66.0,127.0,127.0,127.0,-117.0,-91.0,111.0
127.0,128.0,125.0,125.0,125.0,126.0,126.0,125.0,-1.0,101.0,-66.0,127.0,127.0,127.0,-117.0,-91.0,111.0
127.0,128.0,124.0,125.0,124.0,126.0,126.0,125.0,-1.0,101.0,-66.0,127.0,127.0,127.0,-117.0,-91.0,111.0
127.0,128.0,127.0,125.0,125.0,124.0,127.0,125.0,-1.0,101.0,-66.0,127.0,127.0,127.0,-117.0,-91.0,111.0
127.0,129.0,127.0,175.0,124.0,128.0,127.0,124.0,-1.0,101.0,-66.0,127.0,127.0,127.0,-117.0,-91.0,111.0
127.0,129.0,127.0,179.0,124.0,128.0,127.0,124.0,-1.0,101.0,-66.0,127.0,127.0,127.0,-117.0,-91.0,111.0
127.0,129.0,127.0,183.0,125.0,129.0,128.0,123.0,-1.0,101.0,-66.0,127.0,127.0,127.0,-117.0,-91.0,111.0
127.0,129.0,126.0,187.0,125.0,129.0,128.0,123.0,-1.0,101.0,-66.0,127.0,127.0,127.0,-117.0,-91.0,111.0
127.0,129.0,126.0,192.0,125.0,130.0,128.0,123.0,-1.0,101.0,-66.0,127.0,127.0,127.0,-117.0,-91.0,111.0
127.0,129.0,125.0,196.0,125.0,130.0,129.0,123.0,-1.0,101.0,-66.0,127.0,127.0,127.0,-117.0,-91.0,111.0
127.0,129.0,125.0,202.0,125.0,130.0,129.0,123.0,-1.0,101.0,-66.0,127.0,127.0,127.0,-117.0,-91.0,111.0
127.0,129.0,125.0,207.0,125.0,130.0,129.0,123.0,-1.0,101.0,-66.0,127.0,127.0,127.0,-117.0,-91.0,111.0
127.0,129.0,127.0,168.0,124.0,127.0,126.0,124.0,-1.0,101.0,-66.0,127.0,127.0,127.0,-117.0,-91.0,111.0
127.0,129.0,127.0,171.0,124.0,127.0,127.0,124.0,-1.0,101.0,-66.0,127.0,127.0,127.0,-117.0,-91.0,111.0
129.0,125.0,135.0,254.0,112.0,125.0,137.0,112.0,-1.0,101.0,-65.0,127.0,127.0,127.0,-117.0,-91.0,111.0
129.0,125.0,134.0,254.0,112.0,125.0,138.0,112.0,-1.0,101.0,-65.0,127.0,127.0,127.0,-117.0,-91.0,111.0
129.0,125.0,133.0,254.0,112.0,126.0,137.0,112.0,-1.0,101.0,-65.0,127.0,127.0,127.0,-117.0,-91.0,111.0
129.0,125.0,133.0,254.0,112.0,125.0,137.0,112.0,-1.0,101.0,-65.0,127.0,127.0,127.0,-117.0,-91.0,111.0
129.0,125.0,133.0,254.0,111.0,125.0,137.0,112.0,-1.0,101.0,-65.0,127.0,127.0,127.0,-117.0,-91.0,111.0
129.0,125.0,134.0,254.0,111.0,125.0,136.0,112.0,-1.0,101.0,-65.0,127.0,127.0,127.0,-117.0,-91.0,111.0
129.0,125.0,134.0,254.0,111.0,126.0,136.0,112.0,-1.0,101.0,-65.0,127.0,127.0,127.0,-117.0,-91.0,111.0
129.0,127.0,137.0,254.0,112.0,124.0,137.0,113.0,-1.0,101.0,-65.0,127.0,127.0,127.0,-117.0,-91.0,111.0
129.0,127.0,136.0,254.0,112.0,125.0,137.0,113.0,-1.0,101.0,-65.0,127.0,127.0,127.0,-117.0,-91.0,111.0
129.0,126.0,135.0,254.0,112.0,125.0,137.0,113.0,-1.0,101.0,-65.0,127.0,127.0,127.0,-117.0,-91.0,111.0
131.0,113.0,138.0,121.0,95.0,103.0,124.0,110.0,-1.0,100.0,-64.0,126.0,127.0,127.0,-117.0,-91.0,111.0
131.0,113.0,137.0,106.0,94.0,103.0,124.0,110.0,-1.0,100.0,-64.0,126.0,127.0,127.0,-117.0,-91.0,111.0
131.0,113.0,137.0,91.0,93.0,102.0,124.0,110.0,-1.0,100.0,-64.0,126.0,127.0,127.0,-117.0,-91.0,111.0
131.0,112.0,137.0,77.0,92.0,101.0,124.0,109.0,-1.0,100.0,-64.0,126.0,127.0,127.0,-117.0,-91.0,111.0
131.0,112.0,137.0,64.0,90.0,100.0,124.0,108.0,-1.0,100.0,-64.0,126.0,127.0,127.0,-117.0,-91.0,111.0
131.0,112.0,137.0,52.0,89.0,99.0,124.0,108.0,-1.0,100.0,-64.0,126.0,127.0,127.0,-117.0,-91.0,111.0
131.0,115.0,139.0,183.0,100.0,106.0,124.0,110.0,-1.0,100.0,-64.0,126.0,127.0,127.0,-117.0,-91.0,111.0
131.0,115.0,138.0,168.0,98.0,106.0,124.0,110.0,-1.0,100.0,-64.0,126.0,127.0,127.0,-117.0,-91.0,111.0
131.0,114.0,138.0,153.0,98.0,105.0,124.0,110.0,-1.0,100.0,-64.0,126.0,127.0,127.0,-117.0,-91.0,111.0
131.0,114.0,138.0,137.0,97.0,104.0,124.0,110.0,-1.0,100.0,-64.0,126.0,127.0,127.0,-117.0,-91.0,111.0
130.0,86.0,110.0,14.0,1.0,38.0,129.0,130.0,-1.0,100.0,-64.0,124.0,126.0,126.0,-117.0,-91.0,111.0
130.0,84.0,110.0,16.0,0.0,37.0,129.0,132.0,-1.0,100.0,-64.0,124.0,126.0,126.0,-117.0,-91.0,111.0
130.0,83.0,110.0,18.0,0.0,36.0,129.0,133.0,-1.0,100.0,-64.0,124.0,126.0,126.0,-117.0,-91.0,111.0
130.0,82.0,110.0,20.0,0.0,35.0,130.0,134.0,-1.0,100.0,-64.0,124.0,126.0,126.0,-117.0,-91.0,111.0
130.0,81.0,110.0,22.0,0.0,34.0,131.0,135.0,-1.0,100.0,-64.0,124.0,126.0,126.0,-117.0,-91.0,111.0
130.0,92.0,114.0,5.0,15.0,44.0,126.0,125.0,-1.0,100.0,-64.0,124.0,126.0,126.0,-117.0,-91.0,111.0
131.0,91.0,113.0,7.0,13.0,43.0,126.0,127.0,-1.0,100.0,-64.0,124.0,126.0,126.0,-117.0,-91.0,111.0
131.0,90.0,112.0,8.0,11.0,42.0,128.0,128.0,-1.0,100.0,-64.0,124.0,126.0,126.0,-117.0,-91.0,111.0
130.0,89.0,111.0,10.0,8.0,41.0,128.0,128.0,-1.0,100.0,-64.0,124.0,126.0,126.0,-117.0,-91.0,111.0
130.0,87.0,111.0,12.0,5.0,40.0,128.0,129.0,-1.0,100.0,-64.0,124.0,126.0,126.0,-117.0,-91.0,111.0
140.0,63.0,157.0,100.0,124.0,60.0,170.0,195.0,-1.0,104.0,-63.0,121.0,126.0,126.0,-117.0,-91.0,111.0
140.0,64.0,159.0,101.0,128.0,61.0,172.0,195.0,-1.0,104.0,-63.0,121.0,126.0,126.0,-117.0,-91.0,111.0
140.0,65.0,160.0,102.0,132.0,63.0,173.0,196.0,-1.0,104.0,-63.0,121.0,126.0,126.0,-117.0,-91.0,111.0
139.0,66.0,162.0,103.0,136.0,65.0,175.0,196.0,-1.0,104.0,-63.0,121.0,126.0,126.0,-117.0,-91.0,111.0
141.0,57.0,152.0,94.0,97.0,47.0,160.0,188.0,-1.0,104.0,-63.0,121.0,126.0,126.0,-117.0,-91.0,111.0
141.0,58.0,153.0,95.0,101.0,49.0,161.0,189.0,-1.0,104.0,-63.0,121.0,126.0,126.0,-117.0,-91.0,111.0
141.0,59.0,153.0,96.0,106.0,51.0,163.0,190.0,-1.0,104.0,-63.0,121.0,126.0,126.0,-117.0,-91.0,111.0
141.0,59.0,154.0,97.0,110.0,53.0,165.0,191.0,-1.0,104.0,-63.0,121.0,126.0,126.0,-117.0,-91.0,111.0
141.0,61.0,154.0,98.0,115.0,56.0,167.0,193.0,-1.0,104.0,-63.0,121.0,126.0,126.0,-117.0,-91.0,111.0
141.0,62.0,155.0,99.0,119.0,58.0,168.0,194.0,-1.0,104.0,-63.0,121.0,126.0,126.0,-117.0,-91.0,111.0
111.0,71.0,150.0,128.0,183.0,104.0,145.0,156.0,-1.0,107.0,-65.0,120.0,126.0,126.0,-117.0,-91.0,110.0
110.0,70.0,149.0,128.0,182.0,104.0,142.0,156.0,-1.0,107.0,-65.0,120.0,126.0,126.0,-117.0,-91.0,110.0
110.0,70.0,149.0,128.0,181.0,105.0,139.0,155.0,-1.0,107.0,-65.0,120.0,126.0,126.0,-117.0,-91.0,110.0
115.0,74.0,157.0,126.0,191.0,99.0,165.0,165.0,-1.0,107.0,-65.0,120.0,126.0,126.0,-117.0,-91.0,110.0
114.0,74.0,155.0,126.0,190.0,99.0,162.0,163.0,-1.0,107.0,-65.0,120.0,126.0,126.0,-117.0,-91.0,110.0
114.0,73.0,154.0,127.0,189.0,100.0,159.0,162.0,-1.0,107.0,-65.0,120.0,126.0,126.0,-117.0,-91.0,110.0
113.0,72.0,152.0,127.0,188.0,100.0,156.0,160.0,-1.0,107.0,-65.0,120.0,126.0,126.0,-117.0,-91.0,110.0
112.0,72.0,151.0,127.0,187.0,102.0,153.0,159.0,-1.0,107.0,-65.0,120.0,126.0,126.0,-117.0,-91.0,110.0
112.0,71.0,150.0,127.0,186.0,102.0,150.0,158.0,-1.0,107.0,-65.0,120.0,126.0,126.0,-117.0,-91.0,110.0
111.0,71.0,150.0,128.0,184.0,103.0,148.0,157.0,-1.0,107.0,-65.0,120.0,126.0,126.0,-117.0,-91.0,110.0
102.0,62.0,98.0,136.0,113.0,146.0,59.0,127.0,-1.0,103.0,-67.0,119.0,126.0,126.0,-117.0,-91.0,110.0
101.0,62.0,99.0,136.0,113.0,147.0,59.0,127.0,-1.0,103.0,-67.0,119.0,126.0,126.0,-117.0,-91.0,110.0
102.0,59.0,94.0,135.0,119.0,142.0,60.0,133.0,-1.0,103.0,-67.0,119.0,126.0,126.0,-117.0,-91.0,110.0
102.0,59.0,94.0,136.0,118.0,143.0,60.0,132.0,-1.0,103.0,-67.0,119.0,126.0,126.0,-117.0,-91.0,110.0
102.0,59.0,94.0,136.0,117.0,143.0,59.0,131.0,-1.0,103.0,-67.0,119.0,126.0,126.0,-117.0,-91.0,110.0
102.0,60.0,95.0,136.0,117.0,144.0,59.0,130.0,-1.0,103.0,-67.0,119.0,126.0,126.0,-117.0,-91.0,110.0
102.0,60.0,95.0,136.0,116.0,144.0,59.0,130.0,-1.0,103.0,-67.0,119.0,126.0,126.0,-117.0,-91.0,110.0
102.0,60.0,96.0,136.0,115.0,145.0,59.0,129.0,-1.0,103.0,-67.0,119.0,126.0,126.0,-117.0,-91.0,110.0
102.0,61.0,97.0,136.0,114.0,145.0,59.0,129.0,-1.0,103.0,-67.0,119.0,126.0,126.0,-117.0,-91.0,110.0
102.0,61.0,98.0,136.0,114.0,145.0,59.0,128.0,-1.0,103.0,-67.0,119.0,126.0,126.0,-117.0,-91.0,110.0
99.0,88.0,139.0,138.0,202.0,164.0,76.0,73.0,-1.0,97.0,-67.0,120.0,126.0,126.0,-116.0,-91.0,109.0
98.0,84.0,135.0,138.0,181.0,164.0,70.0,83.0,-1.0,97.0,-67.0,120.0,126.0,126.0,-116.0,-91.0,109.0
98.0,84.0,135.0,138.0,184.0,164.0,71.0,82.0,-1.0,97.0,-67.0,120.0,126.0,126.0,-116.0,-91.0,109.0
98.0,85.0,136.0,138.0,186.0,164.0,72.0,81.0,-1.0,97.0,-67.0,120.0,126.0,126.0,-116.0,-91.0,109.0
98.0,85.0,137.0,138.0,189.0,164.0,72.0,80.0,-1.0,97.0,-67.0,120.0,126.0,126.0,-116.0,-91.0,109.0
98.0,86.0,138.0,138.0,191.0,165.0,73.0,78.0,-1.0,97.0,-67.0,120.0,126.0,126.0,-116.0,-91.0,109.0
98.0,86.0,139.0,138.0,194.0,165.0,74.0,76.0,-1.0,97.0,-67.0,120.0,126.0,126.0,-116.0,-91.0,109.0
99.0,87.0,139.0,138.0,196.0,165.0,75.0,75.0,-1.0,97.0,-67.0,120.0,126.0,126.0,-116.0,-91.0,109.0
99.0,88.0,139.0,138.0,198.0,164.0,75.0,74.0,-1.0,97.0,-67.0,120.0,126.0,126.0,-116.0,-91.0,109.0
99.0,88.0,139.0,138.0,200.0,164.0,76.0,73.0,-1.0,97.0,-67.0,120.0,126.0,126.0,-116.0,-91.0,109.0
104.0,91.0,123.0,136.0,204.0,166.0,94.0,65.0,-1.0,96.0,-68.0,121.0,126.0,126.0,-115.0,-91.0,109.0
105.0,91.0,122.0,137.0,203.0,166.0,94.0,65.0,-1.0,96.0,-68.0,121.0,126.0,126.0,-115.0,-91.0,109.0
105.0,91.0,122.0,136.0,201.0,166.0,95.0,65.0,-1.0,96.0,-68.0,121.0,126.0,126.0,-115.0,-91.0,109.0
105.0,90.0,122.0,137.0,200.0,165.0,95.0,65.0,-1.0,96.0,-68.0,121.0,126.0,126.0,-115.0,-91.0,109.0
105.0,90.0,121.0,136.0,199.0,165.0,95.0,65.0,-1.0,96.0,-68.0,121.0,126.0,126.0,-115.0,-91.0,109.0
105.0,90.0,120.0,137.0,197.0,165.0,96.0,65.0,-1.0,96.0,-68.0,121.0,126.0,126.0,-115.0,-91.0,109.0
106.0,90.0,120.0,137.0,196.0,165.0,96.0,65.0,-1.0,96.0,-68.0,121.0,126.0,126.0,-115.0,-91.0,109.0
106.0,89.0,119.0,137.0,195.0,165.0,96.0,65.0,-1.0,96.0,-68.0,121.0,126.0,126.0,-115.0,-91.0,109.0
105.0,89.0,119.0,137.0,193.0,165.0,96.0,66.0,-1.0,96.0,-68.0,121.0,126.0,126.0,-115.0,-91.0,109.0
106.0,89.0,119.0,137.0,192.0,165.0,96.0,66.0,-1.0,96.0,-68.0,121.0,126.0,126.0,-115.0,-91.0,109.0
108.0,90.0,127.0,137.0,158.0,158.0,106.0,75.0,-1.0,98.0,-69.0,121.0,126.0,126.0,-115.0,-91.0,109.0
109.0,90.0,128.0,137.0,158.0,159.0,106.0,75.0,-1.0,98.0,-69.0,121.0,126.0,126.0,-115.0,-91.0,109.0
109.0,91.0,128.0,137.0,158.0,159.0,106.0,75.0,-1.0,98.0,-69.0,121.0,126.0,126.0,-115.0,-91.0,109.0
109.0,91.0,128.0,137.0,158.0,158.0,107.0,76.0,-1.0,98.0,-69.0,121.0,126.0,126.0,-115.0,-91.0,109.0
109.0,92.0,129.0,137.0,157.0,158.0,107.0,76.0,-1.0,98.0,-69.0,121.0,126.0,126.0,-115.0,-91.0,109.0
109.0,92.0,129.0,137.0,157.0,158.0,108.0,77.0,-1.0,98.0,-69.0,121.0,126.0,126.0,-115.0,-91.0,109.0
109.0,92.0,129.0,137.0,157.0,158.0,108.0,77.0,-1.0,98.0,-69.0,121.0,126.0,126.0,-115.0,-91.0,109.0
110.0,93.0,129.0,137.0,156.0,159.0,108.0,77.0,-1.0,98.0,-69.0,121.0,126.0,126.0,-115.0,-91.0,109.0
110.0,94.0,130.0,137.0,156.0,158.0,108.0,78.0,-1.0,98.0,-69.0,121.0,126.0,126.0,-115.0,-91.0,109.0
108.0,90.0,127.0,137.0,159.0,157.0,106.0,74.0,-1.0,98.0,-69.0,121.0,126.0,126.0,-115.0,-91.0,109.0
113.0,105.0,117.0,137.0,153.0,155.0,115.0,69.0,-1.0,98.0,-71.0,122.0,127.0,126.0,-115.0,-91.0,109.0
113.0,105.0,117.0,137.0,153.0,155.0,115.0,69.0,-1.0,98.0,-71.0,122.0,127.0,126.0,-115.0,-91.0,109.0
113.0,105.0,117.0,137.0,153.0,155.0,115.0,69.0,-1.0,98.0,-71.0,122.0,127.0,126.0,-115.0,-91.0,109.0
113.0,105.0,117.0,137.0,153.0,155.0,116.0,69.0,-1.0,98.0,-71.0,122.0,127.0,126.0,-115.0,-91.0,109.0
113.0,105.0,117.0,137.0,153.0,155.0,116.0,69.0,-1.0,98.0,-71.0,122.0,127.0,126.0,-115.0,-91.0,109.0
113.0,106.0,118.0,137.0,153.0,155.0,116.0,68.0,-1.0,98.0,-71.0,122.0,127.0,126.0,-115.0,-91.0,109.0
113.0,106.0,119.0,137.0,153.0,154.0,117.0,68.0,-1.0,98.0,-71.0,122.0,127.0,126.0,-115.0,-91.0,109.0
113.0,106.0,119.0,136.0,153.0,154.0,117.0,67.0,-1.0,98.0,-71.0,122.0,127.0,126.0,-115.0,-91.0,109.0
113.0,105.0,118.0,137.0,153.0,156.0,114.0,71.0,-1.0,98.0,-71.0,122.0,127.0,126.0,-115.0,-91.0,109.0
113.0,105.0,118.0,137.0,153.0,155.0,115.0,70.0,-1.0,98.0,-71.0,122.0,127.0,126.0,-115.0,-91.0,109.0
115.0,109.0,124.0,136.0,150.0,150.0,124.0,81.0,-1.0,97.0,-73.0,123.0,127.0,127.0,-114.0,-91.0,109.0
115.0,109.0,125.0,136.0,150.0,150.0,124.0,81.0,-1.0,97.0,-73.0,123.0,127.0,127.0,-114.0,-91.0,109.0
115.0,109.0,126.0,136.0,150.0,150.0,125.0,81.0,-1.0,97.0,-73.0,123.0,127.0,127.0,-114.0,-91.0,109.0
115.0,110.0,127.0,136.0,150.0,150.0,125.0,82.0,-1.0,97.0,-73.0,123.0,127.0,127.0,-114.0,-91.0,109.0
115.0,110.0,127.0,136.0,150.0,150.0,125.0,82.0,-1.0,97.0,-73.0,123.0,127.0,127.0,-114.0,-91.0,109.0
115.0,110.0,128.0,136.0,150.0,150.0,125.0,82.0,-1.0,97.0,-73.0,123.0,127.0,127.0,-114.0,-91.0,109.0
115.0,110.0,128.0,136.0,150.0,150.0,125.0,82.0,-1.0,97.0,-73.0,123.0,127.0,127.0,-114.0,-91.0,109.0
115.0,109.0,121.0,136.0,150.0,150.0,123.0,80.0,-1.0,97.0,-73.0,123.0,127.0,127.0,-114.0,-91.0,109.0
115.0,109.0,122.0,136.0,150.0,150.0,123.0,80.0,-1.0,97.0,-73.0,123.0,127.0,127.0,-114.0,-91.0,109.0
115.0,109.0,123.0,136.0,150.0,150.0,124.0,81.0,-1.0,97.0,-73.0,123.0,127.0,127.0,-114.0,-91.0,109.0
116.0,111.0,123.0,137.0,142.0,151.0,128.0,88.0,-1.0,96.0,-75.0,123.0,127.0,127.0,-113.0,-90.0,109.0
116.0,111.0,123.0,137.0,142.0,150.0,129.0,89.0,-1.0,96.0,-75.0,123.0,127.0,127.0,-113.0,-90.0,109.0
116.0,112.0,122.0,137.0,141.0,150.0,129.0,90.0,-1.0,96.0,-75.0,123.0,127.0,127.0,-113.0,-90.0,109.0
116.0,112.0,121.0,137.0,141.0,149.0,129.0,90.0,-1.0,96.0,-75.0,123.0,127.0,127.0,-113.0,-90.0,109.0
116.0,112.0,120.0,137.0,141.0,149.0,129.0,90.0,-1.0,96.0,-75.0,123.0,127.0,127.0,-113.0,-90.0,109.0
116.0,112.0,119.0,137.0,141.0,148.0,129.0,90.0,-1.0,96.0,-75.0,123.0,127.0,127.0,-113.0,-90.0,109.0
116.0,110.0,124.0,137.0,143.0,152.0,128.0,84.0,-1.0,96.0,-75.0,123.0,127.0,127.0,-113.0,-90.0,109.0
116.0,110.0,124.0,137.0,143.0,151.0,128.0,85.0,-1.0,96.0,-75.0,123.0,127.0,127.0,-113.0,-90.0,109.0
116.0,111.0,124.0,137.0,143.0,151.0,128.0,86.0,-1.0,96.0,-75.0,123.0,127.0,127.0,-113.0,-90.0,109.0
116.0,111.0,123.0,137.0,142.0,151.0,128.0,87.0,-1.0,96.0,-75.0,123.0,127.0,127.0,-113.0,-90.0,109.0
117.0,114.0,113.0,136.0,129.0,146.0,129.0,95.0,-1.0,94.0,-78.0,124.0,127.0,127.0,-113.0,-90.0,109.0
117.0,114.0,114.0,136.0,129.0,146.0,129.0,95.0,-1.0,94.0,-78.0,124.0,127.0,127.0,-113.0,-90.0,109.0
117.0,114.0,115.0,136.0,129.0,146.0,129.0,95.0,-1.0,94.0,-78.0,124.0,127.0,127.0,-113.0,-90.0,109.0
117.0,114.0,116.0,136.0,129.0,146.0,129.0,95.0,-1.0,94.0,-78.0,124.0,127.0,127.0,-113.0,-90.0,109.0
117.0,114.0,116.0,136.0,129.0,146.0,129.0,95.0,-1.0,94.0,-78.0,124.0,127.0,127.0,-113.0,-90.0,109.0
117.0,113.0,114.0,136.0,130.0,147.0,128.0,94.0,-1.0,94.0,-78.0,124.0,127.0,127.0,-113.0,-90.0,109.0
117.0,113.0,113.0,136.0,130.0,147.0,128.0,94.0,-1.0,94.0,-78.0,124.0,127.0,127.0,-113.0,-90.0,109.0
117.0,114.0,113.0,136.0,130.0,147.0,128.0,94.0,-1.0,94.0,-78.0,124.0,127.0,127.0,-113.0,-90.0,109.0
117.0,114.0,113.0,136.0,129.0,147.0,128.0,94.0,-1.0,94.0,-78.0,124.0,127.0,127.0,-113.0,-90.0,109.0
117.0,114.0,113.0,136.0,129.0,147.0,128.0,95.0,-1.0,94.0,-78.0,124.0,127.0,127.0,-113.0,-90.0,109.0
118.0,118.0,122.0,137.0,122.0,144.0,132.0,98.0,-1.0,93.0,-80.0,124.0,127.0,127.0,-112.0,-90.0,109.0
118.0,118.0,123.0,137.0,122.0,144.0,132.0,98.0,-1.0,93.0,-80.0,124.0,127.0,127.0,-112.0,-90.0,109.0
118.0,117.0,124.0,137.0,122.0,144.0,133.0,98.0,-1.0,93.0,-80.0,124.0,127.0,127.0,-112.0,-90.0,109.0
118.0,117.0,125.0,137.0,122.0,144.0,133.0,98.0,-1.0,93.0,-80.0,124.0,127.0,127.0,-112.0,-90.0,109.0
118.0,117.0,122.0,137.0,121.0,144.0,131.0,98.0,-1.0,93.0,-80.0,124.0,127.0,127.0,-112.0,-90.0,109.0
118.0,117.0,121.0,137.0,121.0,144.0,131.0,98.0,-1.0,93.0,-80.0,124.0,127.0,127.0,-112.0,-90.0,109.0
118.0,117.0,121.0,137.0,122.0,144.0,131.0,98.0,-1.0,93.0,-80.0,124.0,127.0,127.0,-112.0,-90.0,109.0
118.0,117.0,121.0,137.0,122.0,144.0,131.0,98.0,-1.0,93.0,-80.0,124.0,127.0,127.0,-112.0,-90.0,109.0
118.0,117.0,121.0,137.0,122.0,144.0,131.0,98.0,-1.0,93.0,-80.0,124.0,127.0,127.0,-112.0,-90.0,109.0
118.0,118.0,122.0,137.0,122.0,144.0,132.0,98.0,-1.0,93.0,-80.0,124.0,127.0,127.0,-112.0,-90.0,109.0
118.0,116.0,118.0,137.0,122.0,143.0,131.0,101.0,-1.0,92.0,-82.0,125.0,127.0,127.0,-111.0,-90.0,109.0
118.0,116.0,117.0,137.0,122.0,143.0,130.0,101.0,-1.0,92.0,-82.0,125.0,127.0,127.0,-111.0,-90.0,109.0
118.0,116.0,122.0,137.0,122.0,142.0,131.0,101.0,-1.0,92.0,-82.0,125.0,127.0,127.0,-111.0,-90.0,109.0
118.0,116.0,122.0,137.0,122.0,142.0,131.0,101.0,-1.0,92.0,-82.0,125.0,127.0,127.0,-111.0,-90.0,109.0
118.0,116.0,121.0,137.0,122.0,142.0,131.0,101.0,-1.0,92.0,-82.0,125.0,127.0,127.0,-111.0,-90.0,109.0
118.0,116.0,121.0,137.0,122.0,143.0,131.0,100.0,-1.0,92.0,-82.0,125.0,127.0,127.0,-111.0,-90.0,109.0
118.0,116.0,120.0,137.0,122.0,143.0,131.0,101.0,-1.0,92.0,-82.0,125.0,127.0,127.0,-111.0,-90.0,109.0
118.0,116.0,120.0,137.0,122.0,143.0,131.0,101.0,-1.0,92.0,-82.0,125.0,127.0,127.0,-111.0,-90.0,109.0
118.0,116.0,119.0,137.0,123.0,143.0,131.0,101.0,-1.0,92.0,-82.0,125.0,127.0,127.0,-111.0,-90.0,109.0
118.0,116.0,118.0,137.0,122.0,143.0,131.0,101.0,-1.0,92.0,-82.0,125.0,127.0,127.0,-111.0,-90.0,109.0
119.0,117.0,120.0,137.0,121.0,146.0,133.0,102.0,-1.0,91.0,-82.0,125.0,127.0,127.0,-110.0,-89.0,109.0
119.0,118.0,132.0,137.0,121.0,147.0,132.0,102.0,-1.0,91.0,-82.0,125.0,127.0,127.0,-110.0,-89.0,109.0
119.0,118.0,131.0,137.0,121.0,147.0,132.0,102.0,-1.0,91.0,-82.0,125.0,127.0,127.0,-110.0,-89.0,109.0
119.0,118.0,130.0,137.0,121.0,147.0,133.0,102.0,-1.0,91.0,-82.0,125.0,127.0,127.0,-110.0,-89.0,109.0
119.0,117.0,129.0,137.0,121.0,147.0,132.0,102.0,-1.0,91.0,-82.0,125.0,127.0,127.0,-110.0,-89.0,109.0
119.0,117.0,128.0,137.0,121.0,147.0,132.0,101.0,-1.0,91.0,-82.0,125.0,127.0,127.0,-110.0,-89.0,109.0
119.0,117.0,127.0,137.0,121.0,146.0,133.0,101.0,-1.0,91.0,-82.0,125.0,127.0,127.0,-110.0,-89.0,109.0
119.0,117.0,126.0,137.0,121.0,146.0,133.0,101.0,-1.0,91.0,-82.0,125.0,127.0,127.0,-110.0,-89.0,109.0
119.0,117.0,124.0,137.0,121.0,146.0,133.0,102.0,-1.0,91.0,-82.0,125.0,127.0,127.0,-110.0,-89.0,109.0
119.0,117.0,122.0,137.0,121.0,146.0,133.0,102.0,-1.0,91.0,-82.0,125.0,127.0,127.0,-110.0,-89.0,109.0
119.0,119.0,128.0,138.0,121.0,151.0,129.0,106.0,-1.0,90.0,-83.0,125.0,127.0,127.0,-110.0,-89.0,109.0
119.0,119.0,128.0,138.0,121.0,151.0,129.0,105.0,-1.0,90.0,-83.0,125.0,127.0,127.0,-110.0,-89.0,109.0
119.0,119.0,128.0,138.0,121.0,151.0,129.0,105.0,-1.0,90.0,-83.0,125.0,127.0,127.0,-110.0,-89.0,109.0
119.0,119.0,128.0,138.0,121.0,151.0,130.0,105.0,-1.0,90.0,-83.0,125.0,127.0,127.0,-110.0,-89.0,109.0
119.0,120.0,128.0,138.0,121.0,151.0,130.0,104.0,-1.0,90.0,-83.0,125.0,127.0,127.0,-110.0,-89.0,109.0
119.0,120.0,127.0,138.0,121.0,151.0,130.0,104.0,-1.0,90.0,-83.0,125.0,127.0,127.0,-110.0,-89.0,109.0
119.0,120.0,127.0,138.0,121.0,150.0,130.0,103.0,-1.0,90.0,-83.0,125.0,127.0,127.0,-110.0,-89.0,109.0
119.0,120.0,127.0,138.0,121.0,150.0,130.0,103.0,-1.0,90.0,-83.0,125.0,127.0,127.0,-110.0,-89.0,109.0
119.0,120.0,126.0,138.0,121.0,150.0,130.0,104.0,-1.0,90.0,-83.0,125.0,127.0,127.0,-110.0,-89.0,109.0
119.0,120.0,126.0,138.0,121.0,150.0,130.0,104.0,-1.0,90.0,-83.0,125.0,127.0,127.0,-110.0,-89.0,109.0
120.0,118.0,125.0,137.0,120.0,151.0,129.0,106.0,-1.0,90.0,-83.0,126.0,127.0,127.0,-109.0,-89.0,109.0
120.0,118.0,125.0,137.0,120.0,151.0,129.0,107.0,-1.0,90.0,-83.0,126.0,127.0,127.0,-109.0,-89.0,109.0
120.0,118.0,125.0,137.0,120.0,150.0,130.0,107.0,-1.0,90.0,-83.0,126.0,127.0,127.0,-109.0,-89.0,109.0
120.0,118.0,126.0,137.0,120.0,150.0,130.0,107.0,-1.0,90.0,-83.0,126.0,127.0,127.0,-109.0,-89.0,109.0
120.0,118.0,127.0,137.0,120.0,150.0,130.0,107.0,-1.0,90.0,-83.0,126.0,127.0,127.0,-109.0,-89.0,109.0
120.0,118.0,127.0,137.0,120.0,150.0,130.0,107.0,-1.0,90.0,-83.0,126.0,127.0,127.0,-109.0,-89.0,109.0
120.0,118.0,127.0,137.0,121.0,150.0,130.0,107.0,-1.0,90.0,-83.0,126.0,127.0,127.0,-109.0,-89.0,109.0
120.0,118.0,126.0,137.0,121.0,150.0,130.0,107.0,-1.0,90.0,-83.0,126.0,127.0,127.0,-109.0,-89.0,109.0
120.0,118.0,125.0,137.0,121.0,150.0,131.0,107.0,-1.0,90.0,-83.0,126.0,127.0,127.0,-109.0,-89.0,109.0
120.0,118.0,125.0,137.0,120.0,151.0,129.0,106.0,-1.0,90.0,-83.0,126.0,127.0,127.0,-109.0,-89.0,109.0
120.0,120.0,123.0,138.0,120.0,147.0,130.0,108.0,-1.0,89.0,-84.0,126.0,127.0,127.0,-108.0,-89.0,109.0
120.0,120.0,123.0,138.0,120.0,147.0,130.0,108.0,-1.0,89.0,-84.0,126.0,127.0,127.0,-108.0,-89.0,109.0
120.0,120.0,123.0,138.0,121.0,146.0,130.0,108.0,-1.0,89.0,-84.0,126.0,127.0,127.0,-108.0,-89.0,109.0
120.0,120.0,123.0,138.0,121.0,146.0,130.0,109.0,-1.0,89.0,-84.0,126.0,127.0,127.0,-108.0,-89.0,109.0
120.0,120.0,124.0,138.0,121.0,146.0,130.0,109.0,-1.0,89.0,-84.0,126.0,127.0,127.0,-108.0,-89.0,109.0
120.0,120.0,125.0,138.0,121.0,146.0,130.0,109.0,-1.0,89.0,-84.0,126.0,127.0,127.0,-108.0,-89.0,109.0
120.0,120.0,127.0,138.0,121.0,146.0,130.0,109.0,-1.0,89.0,-84.0,126.0,127.0,127.0,-108.0,-89.0,109.0
120.0,120.0,128.0,138.0,121.0,146.0,130.0,109.0,-1.0,89.0,-84.0,126.0,127.0,127.0,-108.0,-89.0,109.0
120.0,120.0,124.0,137.0,120.0,148.0,130.0,108.0,-1.0,89.0,-84.0,126.0,127.0,127.0,-108.0,-89.0,109.0
120.0,120.0,124.0,137.0,120.0,147.0,130.0,108.0,-1.0,89.0,-84.0,126.0,127.0,127.0,-108.0,-89.0,109.0
121.0,120.0,128.0,138.0,122.0,145.0,129.0,110.0,-1.0,89.0,-84.0,126.0,127.0,127.0,-108.0,-89.0,109.0
121.0,120.0,128.0,138.0,122.0,145.0,129.0,110.0,-1.0,89.0,-84.0,126.0,127.0,127.0,-108.0,-89.0,109.0
121.0,121.0,129.0,138.0,122.0,144.0,130.0,110.0,-1.0,89.0,-84.0,126.0,127.0,127.0,-108.0,-89.0,109.0
120.0,120.0,129.0,138.0,122.0,144.0,130.0,109.0,-1.0,89.0,-84.0,126.0,127.0,127.0,-108.0,-89.0,109.0
120.0,121.0,130.0,137.0,122.0,143.0,130.0,109.0,-1.0,89.0,-84.0,126.0,127.0,127.0,-108.0,-89.0,109.0
120.0,121.0,131.0,137.0,122.0,143.0,130.0,108.0,-1.0,89.0,-84.0,126.0,127.0,127.0,-108.0,-89.0,109.0
120.0,121.0,131.0,138.0,122.0,143.0,130.0,108.0,-1.0,89.0,-84.0,126.0,127.0,127.0,-108.0,-89.0,109.0
121.0,120.0,126.0,138.0,122.0,146.0,129.0,110.0,-1.0,89.0,-84.0,126.0,127.0,127.0,-108.0,-89.0,109.0
121.0,120.0,127.0,138.0,122.0,146.0,129.0,110.0,-1.0,89.0,-84.0,126.0,127.0,127.0,-108.0,-89.0,109.0
121.0,120.0,127.0,138.0,122.0,146.0,129.0,110.0,-1.0,89.0,-84.0,126.0,127.0,127.0,-108.0,-89.0,109.0
121.0,122.0,120.0,138.0,125.0,142.0,128.0,112.0,-1.0,88.0,-83.0,126.0,127.0,127.0,-107.0,-89.0,109.0
121.0,122.0,119.0,138.0,124.0,142.0,128.0,112.0,-1.0,88.0,-83.0,126.0,127.0,127.0,-107.0,-89.0,109.0
121.0,122.0,119.0,138.0,124.0,142.0,128.0,112.0,-1.0,88.0,-83.0,126.0,127.0,127.0,-107.0,-89.0,109.0
121.0,122.0,119.0,138.0,124.0,142.0,128.0,112.0,-1.0,88.0,-83.0,126.0,127.0,127.0,-107.0,-89.0,109.0
121.0,123.0,120.0,138.0,124.0,141.0,128.0,112.0,-1.0,88.0,-83.0,126.0,127.0,127.0,-107.0,-89.0,109.0
121.0,123.0,120.0,138.0,124.0,141.0,128.0,112.0,-1.0,88.0,-83.0,126.0,127.0,127.0,-107.0,-89.0,109.0
121.0,122.0,124.0,138.0,124.0,143.0,128.0,112.0,-1.0,88.0,-83.0,126.0,127.0,127.0,-107.0,-89.0,109.0
121.0,122.0,123.0,138.0,125.0,143.0,128.0,112.0,-1.0,88.0,-83.0,126.0,127.0,127.0,-107.0,-89.0,109.0
121.0,122.0,122.0,138.0,125.0,143.0,128.0,112.0,-1.0,88.0,-83.0,126.0,127.0,127.0,-107.0,-89.0,109.0
121.0,122.0,121.0,138.0,125.0,143.0,128.0,112.0,-1.0,88.0,-83.0,126.0,127.0,127.0,-107.0,-89.0,109.0
121.0,121.0,126.0,138.0,125.0,139.0,128.0,117.0,-1.0,88.0,-83.0,126.0,127.0,127.0,-106.0,-89.0,109.0
121.0,121.0,126.0,138.0,125.0,139.0,128.0,117.0,-1.0,88.0,-83.0,126.0,127.0,127.0,-106.0,-89.0,109.0
121.0,121.0,126.0,138.0,125.0,139.0,129.0,117.0,-1.0,88.0,-83.0,126.0,127.0,127.0,-106.0,-89.0,109.0
121.0,121.0,126.0,138.0,125.0,139.0,129.0,117.0,-1.0,88.0,-83.0,126.0,127.0,127.0,-106.0,-89.0,109.0
121.0,121.0,126.0,138.0,125.0,139.0,129.0,117.0,-1.0,88.0,-83.0,126.0,127.0,127.0,-106.0,-89.0,109.0
121.0,121.0,126.0,138.0,125.0,140.0,127.0,115.0,-1.0,88.0,-83.0,126.0,127.0,127.0,-106.0,-89.0,109.0
121.0,121.0,126.0,138.0,125.0,140.0,127.0,116.0,-1.0,88.0,-83.0,126.0,127.0,127.0,-106.0,-89.0,109.0
121.0,121.0,127.0,138.0,125.0,140.0,127.0,116.0,-1.0,88.0,-83.0,126.0,127.0,127.0,-106.0,-89.0,109.0
121.0,121.0,127.0,138.0,125.0,140.0,127.0,116.0,-1.0,88.0,-83.0,126.0,127.0,127.0,-106.0,-89.0,109.0
121.0,121.0,126.0,138.0,125.0,140.0,128.0,116.0,-1.0,88.0,-83.0,126.0,127.0,127.0,-106.0,-89.0,109.0
122.0,122.0,124.0,138.0,125.0,138.0,129.0,117.0,-1.0,87.0,-83.0,126.0,127.0,127.0,-106.0,-89.0,109.0
122.0,122.0,124.0,138.0,124.0,138.0,129.0,117.0,-1.0,87.0,-83.0,126.0,127.0,127.0,-106.0,-89.0,109.0
122.0,123.0,125.0,138.0,124.0,138.0,129.0,117.0,-1.0,87.0,-83.0,126.0,127.0,127.0,-106.0,-89.0,109.0
122.0,122.0,125.0,138.0,124.0,138.0,129.0,117.0,-1.0,87.0,-83.0,126.0,127.0,127.0,-106.0,-89.0,109.0
121.0,122.0,122.0,138.0,126.0,139.0,129.0,117.0,-1.0,87.0,-83.0,126.0,127.0,127.0,-106.0,-89.0,109.0
121.0,122.0,122.0,138.0,125.0,140.0,128.0,116.0,-1.0,87.0,-83.0,126.0,127.0,127.0,-106.0,-89.0,109.0
121.0,122.0,122.0,138.0,125.0,140.0,128.0,117.0,-1.0,87.0,-83.0,126.0,127.0,127.0,-106.0,-89.0,109.0
121.0,122.0,123.0,138.0,125.0,139.0,129.0,117.0,-1.0,87.0,-83.0,126.0,127.0,127.0,-106.0,-89.0,109.0
121.0,122.0,123.0,138.0,125.0,138.0,129.0,117.0,-1.0,87.0,-83.0,126.0,127.0,127.0,-106.0,-89.0,109.0
122.0,122.0,124.0,138.0,125.0,138.0,129.0,117.0,-1.0,87.0,-83.0,126.0,127.0,127.0,-106.0,-89.0,109.0
122.0,124.0,129.0,138.0,124.0,139.0,127.0,117.0,-1.0,87.0,-84.0,126.0,127.0,127.0,-105.0,-89.0,109.0
122.0,124.0,128.0,138.0,124.0,139.0,127.0,117.0,-1.0,87.0,-84.0,126.0,127.0,127.0,-105.0,-89.0,109.0
122.0,124.0,128.0,138.0,124.0,139.0,127.0,117.0,-1.0,87.0,-84.0,126.0,127.0,127.0,-105.0,-89.0,109.0
122.0,122.0,128.0,138.0,124.0,139.0,129.0,117.0,-1.0,87.0,-84.0,126.0,127.0,127.0,-105.0,-89.0,109.0
122.0,123.0,128.0,138.0,124.0,140.0,128.0,117.0,-1.0,87.0,-84.0,126.0,127.0,127.0,-105.0,-89.0,109.0
122.0,123.0,128.0,138.0,124.0,140.0,128.0,117.0,-1.0,87.0,-84.0,126.0,127.0,127.0,-105.0,-89.0,109.0
122.0,123.0,128.0,138.0,124.0,140.0,127.0,117.0,-1.0,87.0,-84.0,126.0,127.0,127.0,-105.0,-89.0,109.0
122.0,123.0,129.0,138.0,125.0,139.0,127.0,117.0,-1.0,87.0,-84.0,126.0,127.0,127.0,-105.0,-89.0,109.0
122.0,124.0,129.0,138.0,125.0,139.0,127.0,117.0,-1.0,87.0,-84.0,126.0,127.0,127.0,-105.0,-89.0,109.0
122.0,124.0,129.0,138.0,125.0,139.0,127.0,117.0,-1.0,87.0,-84.0,126.0,127.0,127.0,-105.0,-89.0,109.0
123.0,121.0,126.0,138.0,123.0,139.0,128.0,112.0,-1.0,87.0,-84.0,126.0,127.0,127.0,-104.0,-89.0,109.0
123.0,121.0,126.0,138.0,123.0,139.0,128.0,112.0,-1.0,87.0,-84.0,126.0,127.0,127.0,-104.0,-89.0,109.0
122.0,122.0,131.0,138.0,124.0,138.0,128.0,112.0,-1.0,87.0,-84.0,126.0,127.0,127.0,-104.0,-89.0,109.0
123.0,122.0,131.0,138.0,123.0,139.0,128.0,112.0,-1.0,87.0,-84.0,126.0,127.0,127.0,-104.0,-89.0,109.0
123.0,122.0,130.0,138.0,123.0,139.0,128.0,112.0,-1.0,87.0,-84.0,126.0,127.0,127.0,-104.0,-89.0,109.0
122.0,122.0,130.0,138.0,123.0,139.0,128.0,112.0,-1.0,87.0,-84.0,126.0,127.0,127.0,-104.0,-89.0,109.0
122.0,122.0,129.0,138.0,123.0,138.0,128.0,112.0,-1.0,87.0,-84.0,126.0,127.0,127.0,-104.0,-89.0,109.0
122.0,122.0,129.0,138.0,123.0,138.0,128.0,112.0,-1.0,87.0,-84.0,126.0,127.0,127.0,-104.0,-89.0,109.0
123.0,121.0,128.0,138.0,123.0,138.0,128.0,112.0,-1.0,87.0,-84.0,126.0,127.0,127.0,-104.0,-89.0,109.0
123.0,121.0,127.0,137.0,123.0,139.0,128.0,112.0,-1.0,87.0,-84.0,126.0,127.0,127.0,-104.0,-89.0,109.0
123.0,123.0,131.0,138.0,124.0,140.0,128.0,120.0,-1.0,87.0,-84.0,127.0,127.0,127.0,-103.0,-89.0,109.0
123.0,122.0,132.0,137.0,124.0,139.0,129.0,118.0,-1.0,87.0,-84.0,127.0,127.0,127.0,-103.0,-89.0,109.0
123.0,123.0,133.0,137.0,124.0,139.0,128.0,117.0,-1.0,87.0,-84.0,127.0,127.0,127.0,-103.0,-89.0,109.0
123.0,123.0,133.0,137.0,124.0,139.0,129.0,115.0,-1.0,87.0,-84.0,127.0,127.0,127.0,-103.0,-89.0,109.0
123.0,123.0,133.0,137.0,124.0,139.0,129.0,114.0,-1.0,87.0,-84.0,127.0,127.0,127.0,-103.0,-89.0,109.0
122.0,123.0,133.0,137.0,124.0,138.0,129.0,113.0,-1.0,87.0,-84.0,127.0,127.0,127.0,-103.0,-89.0,109.0
122.0,123.0,133.0,137.0,124.0,138.0,129.0,113.0,-1.0,87.0,-84.0,127.0,127.0,127.0,-103.0,-89.0,109.0
122.0,123.0,132.0,137.0,124.0,138.0,129.0,115.0,-1.0,87.0,-84.0,127.0,127.0,127.0,-103.0,-89.0,109.0
123.0,123.0,132.0,137.0,124.0,139.0,128.0,117.0,-1.0,87.0,-84.0,127.0,127.0,127.0,-103.0,-89.0,109.0
123.0,123.0,131.0,137.0,124.0,140.0,128.0,119.0,-1.0,87.0,-84.0,127.0,127.0,127.0,-103.0,-89.0,109.0
123.0,124.0,127.0,138.0,124.0,138.0,130.0,142.0,-1.0,86.0,-84.0,127.0,127.0,127.0,-103.0,-89.0,109.0
123.0,124.0,127.0,138.0,124.0,138.0,130.0,143.0,-1.0,86.0,-84.0,127.0,127.0,127.0,-103.0,-89.0,109.0
123.0,124.0,127.0,138.0,124.0,138.0,130.0,143.0,-1.0,86.0,-84.0,127.0,127.0,127.0,-103.0,-89.0,109.0
123.0,124.0,127.0,138.0,124.0,138.0,130.0,144.0,-1.0,86.0,-84.0,127.0,127.0,127.0,-103.0,-89.0,109.0
123.0,124.0,127.0,138.0,124.0,138.0,130.0,145.0,-1.0,86.0,-84.0,127.0,127.0,127.0,-103.0,-89.0,109.0
123.0,124.0,126.0,138.0,124.0,138.0,130.0,146.0,-1.0,86.0,-84.0,127.0,127.0,127.0,-103.0,-89.0,109.0
123.0,124.0,126.0,138.0,124.0,138.0,130.0,146.0,-1.0,86.0,-84.0,127.0,127.0,127.0,-103.0,-89.0,109.0
123.0,124.0,126.0,138.0,124.0,138.0,130.0,147.0,-1.0,86.0,-84.0,127.0,127.0,127.0,-103.0,-89.0,109.0
123.0,124.0,125.0,138.0,124.0,137.0,130.0,148.0,-1.0,86.0,-84.0,127.0,127.0,127.0,-103.0,-89.0,109.0
123.0,124.0,125.0,138.0,124.0,138.0,130.0,149.0,-1.0,86.0,-84.0,127.0,127.0,127.0,-103.0,-89.0,109.0
123.0,124.0,126.0,139.0,124.0,136.0,128.0,155.0,-1.0,86.0,-84.0,127.0,127.0,127.0,-102.0,-89.0,109.0
123.0,124.0,126.0,139.0,124.0,136.0,129.0,155.0,-1.0,86.0,-84.0,127.0,127.0,127.0,-102.0,-89.0,109.0
123.0,124.0,126.0,139.0,123.0,136.0,129.0,154.0,-1.0,86.0,-84.0,127.0,127.0,127.0,-102.0,-89.0,109.0
123.0,124.0,126.0,139.0,123.0,136.0,129.0,154.0,-1.0,86.0,-84.0,127.0,127.0,127.0,-102.0,-89.0,109.0
123.0,124.0,126.0,139.0,123.0,136.0,129.0,154.0,-1.0,86.0,-84.0,127.0,127.0,127.0,-102.0,-89.0,109.0
123.0,124.0,127.0,138.0,123.0,136.0,129.0,154.0,-1.0,86.0,-84.0,127.0,127.0,127.0,-102.0,-89.0,109.0
123.0,124.0,127.0,139.0,123.0,136.0,129.0,154.0,-1.0,86.0,-84.0,127.0,127.0,127.0,-102.0,-89.0,109.0
123.0,124.0,127.0,139.0,123.0,135.0,129.0,154.0,-1.0,86.0,-84.0,127.0,127.0,127.0,-102.0,-89.0,109.0
123.0,124.0,127.0,139.0,123.0,135.0,130.0,154.0,-1.0,86.0,-84.0,127.0,127.0,127.0,-102.0,-89.0,109.0
123.0,124.0,126.0,139.0,124.0,137.0,128.0,155.0,-1.0,86.0,-84.0,127.0,127.0,127.0,-102.0,-89.0,109.0
123.0,123.0,127.0,139.0,124.0,138.0,130.0,159.0,-1.0,86.0,-84.0,127.0,127.0,127.0,-101.0,-89.0,109.0
123.0,123.0,127.0,139.0,123.0,138.0,130.0,159.0,-1.0,86.0,-84.0,127.0,127.0,127.0,-101.0,-89.0,109.0
123.0,123.0,127.0,139.0,124.0,137.0,130.0,158.0,-1.0,86.0,-84.0,127.0,127.0,127.0,-101.0,-89.0,109.0
123.0,123.0,127.0,139.0,124.0,137.0,130.0,158.0,-1.0,86.0,-84.0,127.0,127.0,127.0,-101.0,-89.0,109.0
123.0,123.0,127.0,139.0,124.0,137.0,130.0,157.0,-1.0,86.0,-84.0,127.0,127.0,127.0,-101.0,-89.0,109.0
123.0,123.0,127.0,139.0,124.0,137.0,130.0,157.0,-1.0,86.0,-84.0,127.0,127.0,127.0,-101.0,-89.0,109.0
123.0,123.0,127.0,139.0,124.0,137.0,131.0,156.0,-1.0,86.0,-84.0,127.0,127.0,127.0,-101.0,-89.0,109.0
124.0,123.0,127.0,139.0,124.0,136.0,131.0,155.0,-1.0,86.0,-84.0,127.0,127.0,127.0,-101.0,-89.0,109.0
123.0,123.0,126.0,139.0,123.0,138.0,130.0,159.0,-1.0,86.0,-84.0,127.0,127.0,127.0,-101.0,-89.0,109.0
123.0,123.0,126.0,139.0,123.0,138.0,130.0,159.0,-1.0,86.0,-84.0,127.0,127.0,127.0,-101.0,-89.0,109.0
124.0,123.0,128.0,139.0,121.0,137.0,129.0,150.0,-1.0,86.0,-84.0,127.0,127.0,127.0,-101.0,-89.0,109.0
124.0,123.0,127.0,139.0,121.0,136.0,129.0,149.0,-1.0,86.0,-84.0,127.0,127.0,127.0,-101.0,-89.0,109.0
124.0,123.0,127.0,139.0,121.0,136.0,129.0,147.0,-1.0,86.0,-84.0,127.0,127.0,127.0,-101.0,-89.0,109.0
124.0,123.0,127.0,139.0,121.0,136.0,129.0,145.0,-1.0,86.0,-84.0,127.0,127.0,127.0,-101.0,-89.0,109.0
124.0,123.0,127.0,139.0,120.0,136.0,129.0,144.0,-1.0,86.0,-84.0,127.0,127.0,127.0,-101.0,-89.0,109.0
124.0,123.0,127.0,139.0,120.0,136.0,129.0,143.0,-1.0,86.0,-84.0,127.0,127.0,127.0,-101.0,-89.0,109.0
124.0,123.0,127.0,139.0,120.0,135.0,129.0,141.0,-1.0,86.0,-84.0,127.0,127.0,127.0,-101.0,-89.0,109.0
124.0,123.0,128.0,139.0,121.0,137.0,129.0,151.0,-1.0,86.0,-84.0,127.0,127.0,127.0,-101.0,-89.0,109.0
124.0,123.0,128.0,139.0,121.0,137.0,129.0,151.0,-1.0,86.0,-84.0,127.0,127.0,127.0,-101.0,-89.0,109.0
124.0,123.0,128.0,139.0,121.0,137.0,129.0,151.0,-1.0,86.0,-84.0,127.0,127.0,127.0,-101.0,-89.0,109.0
124.0,123.0,125.0,139.0,116.0,136.0,128.0,141.0,-1.0,86.0,-84.0,127.0,127.0,127.0,-101.0,-89.0,109.0
124.0,123.0,125.0,139.0,116.0,135.0,128.0,142.0,-1.0,86.0,-84.0,127.0,127.0,127.0,-101.0,-89.0,109.0
124.0,122.0,125.0,139.0,116.0,135.0,128.0,143.0,-1.0,86.0,-84.0,127.0,127.0,127.0,-101.0,-89.0,109.0
124.0,122.0,125.0,139.0,116.0,135.0,128.0,144.0,-1.0,86.0,-84.0,127.0,127.0,127.0,-101.0,-89.0,109.0
124.0,123.0,125.0,139.0,115.0,136.0,128.0,144.0,-1.0,86.0,-84.0,127.0,127.0,127.0,-101.0,-89.0,109.0
124.0,122.0,127.0,139.0,117.0,135.0,129.0,136.0,-1.0,86.0,-84.0,127.0,127.0,127.0,-101.0,-89.0,109.0
124.0,122.0,126.0,139.0,117.0,135.0,128.0,137.0,-1.0,86.0,-84.0,127.0,127.0,127.0,-101.0,-89.0,109.0
124.0,122.0,126.0,139.0,116.0,135.0,128.0,138.0,-1.0,86.0,-84.0,127.0,127.0,127.0,-101.0,-89.0,109.0
124.0,123.0,125.0,139.0,116.0,136.0,128.0,139.0,-1.0,86.0,-84.0,127.0,127.0,127.0,-101.0,-89.0,109.0
124.0,123.0,125.0,139.0,116.0,136.0,128.0,140.0,-1.0,86.0,-84.0,127.0,127.0,127.0,-101.0,-89.0,109.0
125.0,122.0,130.0,139.0,117.0,133.0,126.0,156.0,-1.0,86.0,-83.0,127.0,127.0,127.0,-101.0,-89.0,109.0
125.0,122.0,129.0,139.0,117.0,133.0,126.0,156.0,-1.0,86.0,-83.0,127.0,127.0,127.0,-101.0,-89.0,109.0
125.0,122.0,129.0,139.0,117.0,133.0,126.0,156.0,-1.0,86.0,-83.0,127.0,127.0,127.0,-101.0,-89.0,109.0
125.0,122.0,129.0,139.0,117.0,133.0,127.0,157.0,-1.0,86.0,-83.0,127.0,127.0,127.0,-101.0,-89.0,109.0
125.0,122.0,129.0,139.0,117.0,134.0,126.0,157.0,-1.0,86.0,-83.0,127.0,127.0,127.0,-101.0,-89.0,109.0
125.0,122.0,130.0,139.0,117.0,134.0,126.0,157.0,-1.0,86.0,-83.0,127.0,127.0,127.0,-101.0,-89.0,109.0
125.0,122.0,130.0,139.0,117.0,134.0,126.0,157.0,-1.0,86.0,-83.0,127.0,127.0,127.0,-101.0,-89.0,109.0
125.0,122.0,130.0,139.0,117.0,134.0,126.0,157.0,-1.0,86.0,-83.0,127.0,127.0,127.0,-101.0,-89.0,109.0
125.0,122.0,130.0,139.0,117.0,134.0,126.0,157.0,-1.0,86.0,-83.0,127.0,127.0,127.0,-101.0,-89.0,109.0
125.0,122.0,130.0,139.0,117.0,133.0,126.0,156.0,-1.0,86.0,-83.0,127.0,127.0,127.0,-101.0,-89.0,109.0
127.0,122.0,130.0,139.0,117.0,140.0,127.0,158.0,-1.0,86.0,-83.0,127.0,127.0,127.0,-100.0,-89.0,109.0
127.0,122.0,130.0,139.0,117.0,140.0,127.0,158.0,-1.0,86.0,-83.0,127.0,127.0,127.0,-100.0,-89.0,109.0
127.0,122.0,130.0,139.0,117.0,140.0,127.0,159.0,-1.0,86.0,-83.0,127.0,127.0,127.0,-100.0,-89.0,109.0
126.0,122.0,130.0,139.0,117.0,141.0,126.0,158.0,-1.0,86.0,-83.0,127.0,127.0,127.0,-100.0,-89.0,109.0
126.0,122.0,130.0,139.0,117.0,141.0,126.0,158.0,-1.0,86.0,-83.0,127.0,127.0,127.0,-100.0,-89.0,109.0
126.0,122.0,130.0,139.0,117.0,141.0,126.0,158.0,-1.0,86.0,-83.0,127.0,127.0,127.0,-100.0,-89.0,109.0
127.0,122.0,130.0,139.0,117.0,141.0,126.0,158.0,-1.0,86.0,-83.0,127.0,127.0,127.0,-100.0,-89.0,109.0
127.0,122.0,130.0,139.0,117.0,141.0,126.0,158.0,-1.0,86.0,-83.0,127.0,127.0,127.0,-100.0,-89.0,109.0
127.0,122.0,130.0,139.0,117.0,141.0,127.0,158.0,-1.0,86.0,-83.0,127.0,127.0,127.0,-100.0,-89.0,109.0
127.0,122.0,130.0,139.0,117.0,140.0,127.0,158.0,-1.0,86.0,-83.0,127.0,127.0,127.0,-100.0,-89.0,109.0
130.0,123.0,126.0,138.0,111.0,138.0,130.0,206.0,-1.0,86.0,-83.0,127.0,127.0,127.0,-100.0,-89.0,109.0
130.0,123.0,126.0,138.0,111.0,138.0,131.0,206.0,-1.0,86.0,-83.0,127.0,127.0,127.0,-100.0,-89.0,109.0
130.0,123.0,126.0,138.0,111.0,140.0,129.0,198.0,-1.0,86.0,-83.0,127.0,127.0,127.0,-100.0,-89.0,109.0
130.0,123.0,126.0,138.0,111.0,140.0,129.0,200.0,-1.0,86.0,-83.0,127.0,127.0,127.0,-100.0,-89.0,109.0
130.0,123.0,126.0,138.0,111.0,140.0,129.0,202.0,-1.0,86.0,-83.0,127.0,127.0,127.0,-100.0,-89.0,109.0
130.0,123.0,126.0,138.0,111.0,139.0,130.0,203.0,-1.0,86.0,-83.0,127.0,127.0,127.0,-100.0,-89.0,109.0
130.0,123.0,126.0,138.0,111.0,139.0,130.0,205.0,-1.0,86.0,-83.0,127.0,127.0,127.0,-100.0,-89.0,109.0
130.0,123.0,126.0,138.0,111.0,139.0,130.0,205.0,-1.0,86.0,-83.0,127.0,127.0,127.0,-100.0,-89.0,109.0
130.0,123.0,126.0,138.0,111.0,139.0,130.0,205.0,-1.0,86.0,-83.0,127.0,127.0,127.0,-100.0,-89.0,109.0
130.0,123.0,126.0,138.0,111.0,139.0,130.0,206.0,-1.0,86.0,-83.0,127.0,127.0,127.0,-100.0,-89.0,109.0
132.0,127.0,124.0,134.0,112.0,133.0,132.0,209.0,-1.0,86.0,-83.0,-128.0,127.0,127.0,-100.0,-89.0,109.0
131.0,126.0,124.0,135.0,111.0,136.0,132.0,207.0,-1.0,86.0,-83.0,-128.0,127.0,127.0,-100.0,-89.0,109.0
131.0,126.0,124.0,135.0,111.0,136.0,131.0,207.0,-1.0,86.0,-83.0,-128.0,127.0,127.0,-100.0,-89.0,109.0
131.0,126.0,124.0,135.0,111.0,136.0,131.0,207.0,-1.0,86.0,-83.0,-128.0,127.0,127.0,-100.0,-89.0,109.0
132.0,127.0,124.0,135.0,111.0,135.0,131.0,208.0,-1.0,86.0,-83.0,-128.0,127.0,127.0,-100.0,-89.0,109.0
132.0,127.0,124.0,135.0,111.0,135.0,131.0,208.0,-1.0,86.0,-83.0,-128.0,127.0,127.0,-100.0,-89.0,109.0
132.0,127.0,124.0,135.0,111.0,135.0,131.0,208.0,-1.0,86.0,-83.0,-128.0,127.0,127.0,-100.0,-89.0,109.0
132.0,127.0,124.0,135.0,111.0,134.0,132.0,209.0,-1.0,86.0,-83.0,-128.0,127.0,127.0,-100.0,-89.0,109.0
132.0,127.0,124.0,135.0,111.0,134.0,132.0,209.0,-1.0,86.0,-83.0,-128.0,127.0,127.0,-100.0,-89.0,109.0
132.0,127.0,124.0,134.0,112.0,133.0,132.0,209.0,-1.0,86.0,-83.0,-128.0,127.0,127.0,-100.0,-89.0,109.0
141.0,132.0,123.0,135.0,113.0,127.0,130.0,194.0,-1.0,86.0,-83.0,-128.0,127.0,127.0,-99.0,-89.0,109.0
141.0,132.0,123.0,135.0,113.0,127.0,130.0,193.0,-1.0,86.0,-83.0,-128.0,127.0,127.0,-99.0,-89.0,109.0
142.0,132.0,123.0,135.0,113.0,127.0,130.0,193.0,-1.0,86.0,-83.0,-128.0,127.0,127.0,-99.0,-89.0,109.0
142.0,132.0,123.0,135.0,113.0,127.0,129.0,192.0,-1.0,86.0,-83.0,-128.0,127.0,127.0,-99.0,-89.0,109.0
142.0,132.0,123.0,135.0,113.0,127.0,129.0,191.0,-1.0,86.0,-83.0,-128.0,127.0,127.0,-99.0,-89.0,109.0
142.0,132.0,123.0,136.0,113.0,127.0,129.0,191.0,-1.0,86.0,-83.0,-128.0,127.0,127.0,-99.0,-89.0,109.0
143.0,132.0,123.0,136.0,113.0,127.0,129.0,190.0,-1.0,86.0,-83.0,-128.0,127.0,127.0,-99.0,-89.0,109.0
143.0,132.0,123.0,136.0,113.0,127.0,128.0,189.0,-1.0,86.0,-83.0,-128.0,127.0,127.0,-99.0,-89.0,109.0
143.0,133.0,123.0,137.0,113.0,126.0,128.0,189.0,-1.0,86.0,-83.0,-128.0,127.0,127.0,-99.0,-89.0,109.0
143.0,133.0,124.0,137.0,113.0,126.0,129.0,188.0,-1.0,86.0,-83.0,-128.0,127.0,127.0,-99.0,-89.0,109.0
149.0,134.0,130.0,164.0,119.0,120.0,124.0,161.0,-1.0,85.0,-83.0,-128.0,127.0,127.0,-99.0,-89.0,109.0
149.0,134.0,131.0,165.0,119.0,120.0,124.0,161.0,-1.0,85.0,-83.0,-128.0,127.0,127.0,-99.0,-89.0,109.0
149.0,134.0,131.0,166.0,120.0,120.0,125.0,160.0,-1.0,85.0,-83.0,-128.0,127.0,127.0,-99.0,-89.0,109.0
150.0,134.0,131.0,167.0,120.0,120.0,125.0,160.0,-1.0,85.0,-83.0,-128.0,127.0,127.0,-99.0,-89.0,109.0
150.0,134.0,131.0,168.0,120.0,120.0,125.0,159.0,-1.0,85.0,-83.0,-128.0,127.0,127.0,-99.0,-89.0,109.0
150.0,134.0,131.0,169.0,120.0,120.0,125.0,159.0,-1.0,85.0,-83.0,-128.0,127.0,127.0,-99.0,-89.0,109.0
150.0,135.0,131.0,170.0,120.0,121.0,124.0,159.0,-1.0,85.0,-83.0,-128.0,127.0,127.0,-99.0,-89.0,109.0
150.0,135.0,131.0,171.0,120.0,121.0,124.0,158.0,-1.0,85.0,-83.0,-128.0,127.0,127.0,-99.0,-89.0,109.0
150.0,135.0,132.0,172.0,120.0,120.0,125.0,157.0,-1.0,85.0,-83.0,-128.0,127.0,127.0,-99.0,-89.0,109.0
149.0,134.0,130.0,163.0,119.0,120.0,125.0,162.0,-1.0,85.0,-83.0,-128.0,127.0,127.0,-99.0,-89.0,109.0
151.0,134.0,134.0,230.0,126.0,119.0,128.0,139.0,-1.0,84.0,-83.0,-127.0,127.0,127.0,-99.0,-89.0,109.0
151.0,134.0,134.0,231.0,126.0,119.0,128.0,139.0,-1.0,84.0,-83.0,-127.0,127.0,127.0,-99.0,-89.0,109.0
151.0,134.0,134.0,232.0,126.0,118.0,128.0,139.0,-1.0,84.0,-83.0,-127.0,127.0,127.0,-99.0,-89.0,109.0
151.0,134.0,134.0,233.0,126.0,118.0,129.0,139.0,-1.0,84.0,-83.0,-127.0,127.0,127.0,-99.0,-89.0,109.0
151.0,134.0,134.0,234.0,126.0,118.0,129.0,139.0,-1.0,84.0,-83.0,-127.0,127.0,127.0,-99.0,-89.0,109.0
151.0,134.0,134.0,235.0,127.0,118.0,129.0,139.0,-1.0,84.0,-83.0,-127.0,127.0,127.0,-99.0,-89.0,109.0
150.0,134.0,133.0,236.0,127.0,118.0,129.0,139.0,-1.0,84.0,-83.0,-127.0,127.0,127.0,-99.0,-89.0,109.0
150.0,134.0,133.0,237.0,127.0,117.0,129.0,139.0,-1.0,84.0,-83.0,-127.0,127.0,127.0,-99.0,-89.0,109.0
152.0,134.0,134.0,227.0,126.0,119.0,128.0,139.0,-1.0,84.0,-83.0,-127.0,127.0,127.0,-99.0,-89.0,109.0
152.0,134.0,134.0,229.0,126.0,119.0,127.0,139.0,-1.0,84.0,-83.0,-127.0,127.0,127.0,-99.0,-89.0,109.0
142.0,135.0,131.0,254.0,131.0,116.0,130.0,141.0,-1.0,84.0,-82.0,-127.0,127.0,127.0,-99.0,-89.0,109.0
142.0,135.0,131.0,254.0,131.0,116.0,130.0,140.0,-1.0,84.0,-82.0,-127.0,127.0,127.0,-99.0,-89.0,109.0
142.0,135.0,131.0,254.0,131.0,116.0,130.0,140.0,-1.0,84.0,-82.0,-127.0,127.0,127.0,-99.0,-89.0,109.0
141.0,135.0,130.0,254.0,131.0,116.0,130.0,140.0,-1.0,84.0,-82.0,-127.0,127.0,127.0,-99.0,-89.0,109.0
141.0,135.0,130.0,254.0,131.0,116.0,129.0,140.0,-1.0,84.0,-82.0,-127.0,127.0,127.0,-99.0,-89.0,109.0
141.0,135.0,130.0,254.0,131.0,116.0,129.0,140.0,-1.0,84.0,-82.0,-127.0,127.0,127.0,-99.0,-89.0,109.0
141.0,135.0,130.0,254.0,132.0,116.0,129.0,139.0,-1.0,84.0,-82.0,-127.0,127.0,127.0,-99.0,-89.0,109.0
142.0,135.0,131.0,254.0,130.0,116.0,130.0,141.0,-1.0,84.0,-82.0,-127.0,127.0,127.0,-99.0,-89.0,109.0
142.0,135.0,130.0,254.0,130.0,116.0,130.0,141.0,-1.0,84.0,-82.0,-127.0,127.0,127.0,-99.0,-89.0,109.0
142.0,135.0,130.0,254.0,130.0,116.0,130.0,141.0,-1.0,84.0,-82.0,-127.0,127.0,127.0,-99.0,-89.0,109.0
135.0,135.0,128.0,231.0,132.0,118.0,130.0,128.0,-1.0,85.0,-81.0,-126.0,127.0,127.0,-99.0,-89.0,109.0
135.0,135.0,128.0,231.0,132.0,118.0,130.0,127.0,-1.0,85.0,-81.0,-126.0,127.0,127.0,-99.0,-89.0,109.0
134.0,135.0,128.0,230.0,132.0,118.0,130.0,127.0,-1.0,85.0,-81.0,-126.0,127.0,127.0,-99.0,-89.0,109.0
134.0,135.0,128.0,229.0,132.0,117.0,130.0,127.0,-1.0,85.0,-81.0,-126.0,127.0,127.0,-99.0,-89.0,109.0
134.0,135.0,129.0,229.0,132.0,117.0,130.0,126.0,-1.0,85.0,-81.0,-126.0,127.0,127.0,-99.0,-89.0,109.0
134.0,135.0,129.0,228.0,132.0,118.0,130.0,126.0,-1.0,85.0,-81.0,-126.0,127.0,127.0,-99.0,-89.0,109.0
135.0,135.0,128.0,234.0,132.0,118.0,130.0,129.0,-1.0,85.0,-81.0,-126.0,127.0,127.0,-99.0,-89.0,109.0
135.0,135.0,128.0,233.0,132.0,118.0,130.0,129.0,-1.0,85.0,-81.0,-126.0,127.0,127.0,-99.0,-89.0,109.0
135.0,135.0,128.0,233.0,132.0,118.0,130.0,128.0,-1.0,85.0,-81.0,-126.0,127.0,127.0,-99.0,-89.0,109.0
135.0,135.0,128.0,232.0,132.0,118.0,130.0,128.0,-1.0,85.0,-81.0,-126.0,127.0,127.0,-99.0,-89.0,109.0
133.0,135.0,128.0,199.0,136.0,119.0,129.0,120.0,-1.0,86.0,-81.0,-126.0,127.0,127.0,-99.0,-89.0,109.0
133.0,135.0,128.0,198.0,137.0,119.0,129.0,120.0,-1.0,86.0,-81.0,-126.0,127.0,127.0,-99.0,-89.0,109.0
133.0,135.0,128.0,197.0,137.0,119.0,129.0,120.0,-1.0,86.0,-81.0,-126.0,127.0,127.0,-99.0,-89.0,109.0
133.0,135.0,128.0,196.0,137.0,119.0,129.0,120.0,-1.0,86.0,-81.0,-126.0,127.0,127.0,-99.0,-89.0,109.0
133.0,135.0,127.0,195.0,137.0,119.0,129.0,120.0,-1.0,86.0,-81.0,-126.0,127.0,127.0,-99.0,-89.0,109.0
133.0,135.0,128.0,203.0,136.0,119.0,129.0,120.0,-1.0,86.0,-81.0,-126.0,127.0,127.0,-99.0,-89.0,109.0
133.0,135.0,128.0,202.0,136.0,119.0,129.0,120.0,-1.0,86.0,-81.0,-126.0,127.0,127.0,-99.0,-89.0,109.0
133.0,135.0,128.0,201.0,136.0,119.0,129.0,120.0,-1.0,86.0,-81.0,-126.0,127.0,127.0,-99.0,-89.0,109.0
133.0,135.0,128.0,201.0,136.0,119.0,129.0,120.0,-1.0,86.0,-81.0,-126.0,127.0,127.0,-99.0,-89.0,109.0
133.0,135.0,128.0,200.0,136.0,119.0,129.0,120.0,-1.0,86.0,-81.0,-126.0,127.0,127.0,-99.0,-89.0,109.0
136.0,136.0,128.0,65.0,136.0,121.0,124.0,117.0,-1.0,87.0,-80.0,-126.0,127.0,127.0,-99.0,-89.0,109.0
136.0,136.0,127.0,63.0,136.0,121.0,124.0,117.0,-1.0,87.0,-80.0,-126.0,127.0,127.0,-99.0,-89.0,109.0
136.0,136.0,128.0,60.0,136.0,121.0,124.0,117.0,-1.0,87.0,-80.0,-126.0,127.0,127.0,-99.0,-89.0,109.0
136.0,136.0,128.0,57.0,136.0,121.0,125.0,117.0,-1.0,87.0,-80.0,-126.0,127.0,127.0,-99.0,-89.0,109.0
136.0,136.0,127.0,83.0,136.0,122.0,123.0,118.0,-1.0,87.0,-80.0,-126.0,127.0,127.0,-99.0,-89.0,109.0
136.0,136.0,127.0,80.0,136.0,122.0,123.0,118.0,-1.0,87.0,-80.0,-126.0,127.0,127.0,-99.0,-89.0,109.0
136.0,136.0,127.0,77.0,136.0,122.0,123.0,118.0,-1.0,87.0,-80.0,-126.0,127.0,127.0,-99.0,-89.0,109.0
136.0,136.0,127.0,74.0,136.0,121.0,123.0,118.0,-1.0,87.0,-80.0,-126.0,127.0,127.0,-99.0,-89.0,109.0
136.0,136.0,127.0,71.0,136.0,121.0,123.0,118.0,-1.0,87.0,-80.0,-126.0,127.0,127.0,-99.0,-89.0,109.0
136.0,136.0,127.0,68.0,136.0,121.0,123.0,117.0,-1.0,87.0,-80.0,-126.0,127.0,127.0,-99.0,-89.0,109.0
140.0,137.0,122.0,0.0,126.0,121.0,128.0,117.0,-1.0,88.0,-79.0,-126.0,127.0,127.0,-99.0,-89.0,109.0
140.0,137.0,122.0,0.0,126.0,121.0,129.0,117.0,-1.0,88.0,-79.0,-126.0,127.0,127.0,-99.0,-89.0,109.0
140.0,137.0,123.0,0.0,126.0,122.0,127.0,117.0,-1.0,88.0,-79.0,-126.0,127.0,127.0,-99.0,-89.0,109.0
140.0,137.0,123.0,0.0,126.0,122.0,127.0,117.0,-1.0,88.0,-79.0,-126.0,127.0,127.0,-99.0,-89.0,109.0
140.0,137.0,123.0,0.0,126.0,122.0,127.0,117.0,-1.0,88.0,-79.0,-126.0,127.0,127.0,-99.0,-89.0,109.0
140.0,137.0,123.0,0.0,126.0,122.0,127.0,117.0,-1.0,88.0,-79.0,-126.0,127.0,127.0,-99.0,-89.0,109.0
140.0,137.0,123.0,0.0,126.0,122.0,128.0,117.0,-1.0,88.0,-79.0,-126.0,127.0,127.0,-99.0,-89.0,109.0
140.0,137.0,123.0,0.0,126.0,122.0,128.0,117.0,-1.0,88.0,-79.0,-126.0,127.0,127.0,-99.0,-89.0,109.0
140.0,137.0,122.0,0.0,126.0,121.0,128.0,117.0,-1.0,88.0,-79.0,-126.0,127.0,127.0,-99.0,-89.0,109.0
140.0,137.0,122.0,0.0,126.0,121.0,128.0,117.0,-1.0,88.0,-79.0,-126.0,127.0,127.0,-99.0,-89.0,109.0
137.0,139.0,129.0,0.0,128.0,119.0,125.0,120.0,-1.0,89.0,-78.0,-126.0,127.0,127.0,-99.0,-89.0,109.0
138.0,138.0,128.0,0.0,129.0,120.0,124.0,119.0,-1.0,89.0,-78.0,-126.0,127.0,127.0,-99.0,-89.0,109.0
138.0,138.0,128.0,0.0,129.0,120.0,124.0,119.0,-1.0,89.0,-78.0,-126.0,127.0,127.0,-99.0,-89.0,109.0
137.0,138.0,128.0,0.0,129.0,120.0,124.0,119.0,-1.0,89.0,-78.0,-126.0,127.0,127.0,-99.0,-89.0,109.0
137.0,138.0,129.0,0.0,129.0,120.0,124.0,119.0,-1.0,89.0,-78.0,-126.0,127.0,127.0,-99.0,-89.0,109.0
137.0,138.0,129.0,0.0,128.0,120.0,124.0,120.0,-1.0,89.0,-78.0,-126.0,127.0,127.0,-99.0,-89.0,109.0
137.0,138.0,129.0,0.0,128.0,120.0,125.0,120.0,-1.0,89.0,-78.0,-126.0,127.0,127.0,-99.0,-89.0,109.0
137.0,139.0,129.0,0.0,128.0,120.0,125.0,120.0,-1.0,89.0,-78.0,-126.0,127.0,127.0,-99.0,-89.0,109.0
137.0,139.0,129.0,0.0,128.0,120.0,125.0,120.0,-1.0,89.0,-78.0,-126.0,127.0,127.0,-99.0,-89.0,109.0
137.0,138.0,129.0,0.0,128.0,120.0,125.0,120.0,-1.0,89.0,-78.0,-126.0,127.0,127.0,-99.0,-89.0,109.0
137.0,139.0,127.0,0.0,125.0,119.0,127.0,121.0,-1.0,90.0,-76.0,-126.0,127.0,127.0,-99.0,-89.0,109.0
137.0,139.0,127.0,0.0,126.0,119.0,127.0,121.0,-1.0,90.0,-76.0,-126.0,127.0,127.0,-99.0,-89.0,109.0
137.0,139.0,127.0,0.0,126.0,119.0,127.0,121.0,-1.0,90.0,-76.0,-126.0,127.0,127.0,-99.0,-89.0,109.0
137.0,139.0,127.0,0.0,126.0,119.0,127.0,121.0,-1.0,90.0,-76.0,-126.0,127.0,127.0,-99.0,-89.0,109.0
137.0,139.0,127.0,0.0,126.0,119.0,127.0,121.0,-1.0,90.0,-76.0,-126.0,127.0,127.0,-99.0,-89.0,109.0
137.0,139.0,127.0,0.0,127.0,119.0,127.0,121.0,-1.0,90.0,-76.0,-126.0,127.0,127.0,-99.0,-89.0,109.0
137.0,139.0,127.0,0.0,127.0,119.0,127.0,121.0,-1.0,90.0,-76.0,-126.0,127.0,127.0,-99.0,-89.0,109.0
137.0,139.0,127.0,0.0,127.0,119.0,127.0,121.0,-1.0,90.0,-76.0,-126.0,127.0,127.0,-99.0,-89.0,109.0
138.0,139.0,127.0,0.0,127.0,119.0,127.0,121.0,-1.0,90.0,-76.0,-126.0,127.0,127.0,-99.0,-89.0,109.0
138.0,139.0,127.0,0.0,128.0,119.0,127.0,121.0,-1.0,90.0,-76.0,-126.0,127.0,127.0,-99.0,-89.0,109.0
137.0,139.0,125.0,0.0,133.0,120.0,129.0,121.0,-1.0,91.0,-75.0,-126.0,127.0,127.0,-99.0,-89.0,109.0
137.0,139.0,125.0,1.0,134.0,120.0,129.0,121.0,-1.0,91.0,-75.0,-126.0,127.0,127.0,-99.0,-89.0,109.0
137.0,139.0,125.0,2.0,134.0,120.0,129.0,122.0,-1.0,91.0,-75.0,-126.0,127.0,127.0,-99.0,-89.0,109.0
137.0,139.0,125.0,2.0,134.0,120.0,129.0,122.0,-1.0,91.0,-75.0,-126.0,127.0,127.0,-99.0,-89.0,109.0
137.0,140.0,125.0,3.0,134.0,120.0,129.0,122.0,-1.0,91.0,-75.0,-126.0,127.0,127.0,-99.0,-89.0,109.0
137.0,139.0,126.0,4.0,134.0,120.0,129.0,123.0,-1.0,91.0,-75.0,-126.0,127.0,127.0,-99.0,-89.0,109.0
137.0,139.0,126.0,5.0,134.0,120.0,130.0,123.0,-1.0,91.0,-75.0,-126.0,127.0,127.0,-99.0,-89.0,109.0
137.0,140.0,126.0,6.0,134.0,119.0,130.0,123.0,-1.0,91.0,-75.0,-126.0,127.0,127.0,-99.0,-89.0,109.0
137.0,139.0,126.0,7.0,134.0,119.0,130.0,123.0,-1.0,91.0,-75.0,-126.0,127.0,127.0,-99.0,-89.0,109.0
137.0,139.0,125.0,0.0,133.0,120.0,129.0,121.0,-1.0,91.0,-75.0,-126.0,127.0,127.0,-99.0,-89.0,109.0
135.0,141.0,131.0,49.0,133.0,120.0,129.0,124.0,-1.0,91.0,-74.0,-126.0,127.0,127.0,-99.0,-89.0,109.0
135.0,141.0,131.0,49.0,132.0,121.0,129.0,124.0,-1.0,91.0,-74.0,-126.0,127.0,127.0,-99.0,-89.0,109.0
135.0,141.0,131.0,50.0,132.0,120.0,129.0,124.0,-1.0,91.0,-74.0,-126.0,127.0,127.0,-99.0,-89.0,109.0
135.0,141.0,131.0,50.0,132.0,120.0,129.0,123.0,-1.0,91.0,-74.0,-126.0,127.0,127.0,-99.0,-89.0,109.0
135.0,141.0,131.0,51.0,132.0,120.0,129.0,123.0,-1.0,91.0,-74.0,-126.0,127.0,127.0,-99.0,-89.0,109.0
135.0,141.0,131.0,51.0,132.0,120.0,129.0,123.0,-1.0,91.0,-74.0,-126.0,127.0,127.0,-99.0,-89.0,109.0
135.0,141.0,131.0,51.0,132.0,120.0,129.0,123.0,-1.0,91.0,-74.0,-126.0,127.0,127.0,-99.0,-89.0,109.0
135.0,141.0,131.0,52.0,132.0,120.0,129.0,123.0,-1.0,91.0,-74.0,-126.0,127.0,127.0,-99.0,-89.0,109.0
135.0,141.0,132.0,48.0,133.0,119.0,130.0,124.0,-1.0,91.0,-74.0,-126.0,127.0,127.0,-99.0,-89.0,109.0
135.0,141.0,131.0,48.0,133.0,120.0,130.0,124.0,-1.0,91.0,-74.0,-126.0,127.0,127.0,-99.0,-89.0,109.0
132.0,141.0,127.0,79.0,131.0,120.0,129.0,120.0,-1.0,92.0,-73.0,-127.0,127.0,127.0,-100.0,-89.0,109.0
131.0,141.0,127.0,79.0,131.0,120.0,129.0,120.0,-1.0,92.0,-73.0,-127.0,127.0,127.0,-100.0,-89.0,109.0
131.0,141.0,127.0,80.0,131.0,120.0,129.0,120.0,-1.0,92.0,-73.0,-127.0,127.0,127.0,-100.0,-89.0,109.0
131.0,141.0,127.0,80.0,131.0,120.0,129.0,119.0,-1.0,92.0,-73.0,-127.0,127.0,127.0,-100.0,-89.0,109.0
131.0,141.0,127.0,81.0,131.0,120.0,129.0,119.0,-1.0,92.0,-73.0,-127.0,127.0,127.0,-100.0,-89.0,109.0
131.0,141.0,127.0,81.0,131.0,120.0,129.0,119.0,-1.0,92.0,-73.0,-127.0,127.0,127.0,-100.0,-89.0,109.0
131.0,141.0,127.0,82.0,130.0,120.0,129.0,119.0,-1.0,92.0,-73.0,-127.0,127.0,127.0,-100.0,-89.0,109.0
131.0,141.0,128.0,77.0,132.0,119.0,130.0,120.0,-1.0,92.0,-73.0,-127.0,127.0,127.0,-100.0,-89.0,109.0
132.0,141.0,127.0,77.0,132.0,119.0,130.0,120.0,-1.0,92.0,-73.0,-127.0,127.0,127.0,-100.0,-89.0,109.0
131.0,141.0,127.0,78.0,131.0,119.0,129.0,120.0,-1.0,92.0,-73.0,-127.0,127.0,127.0,-100.0,-89.0,109.0
130.0,140.0,126.0,99.0,129.0,120.0,129.0,120.0,-1.0,92.0,-72.0,-127.0,127.0,127.0,-101.0,-89.0,109.0
130.0,140.0,126.0,99.0,129.0,120.0,129.0,120.0,-1.0,92.0,-72.0,-127.0,127.0,127.0,-101.0,-89.0,109.0
130.0,140.0,126.0,99.0,129.0,120.0,129.0,120.0,-1.0,92.0,-72.0,-127.0,127.0,127.0,-101.0,-89.0,109.0
130.0,140.0,126.0,99.0,129.0,120.0,129.0,120.0,-1.0,92.0,-72.0,-127.0,127.0,127.0,-101.0,-89.0,109.0
130.0,140.0,126.0,99.0,129.0,120.0,129.0,120.0,-1.0,92.0,-72.0,-127.0,127.0,127.0,-101.0,-89.0,109.0
130.0,140.0,125.0,100.0,128.0,120.0,128.0,120.0,-1.0,92.0,-72.0,-127.0,127.0,127.0,-101.0,-89.0,109.0
130.0,140.0,126.0,98.0,129.0,119.0,129.0,120.0,-1.0,92.0,-72.0,-127.0,127.0,127.0,-101.0,-89.0,109.0
130.0,140.0,126.0,98.0,129.0,119.0,129.0,120.0,-1.0,92.0,-72.0,-127.0,127.0,127.0,-101.0,-89.0,109.0
130.0,140.0,126.0,98.0,129.0,119.0,129.0,120.0,-1.0,92.0,-72.0,-127.0,127.0,127.0,-101.0,-89.0,109.0
130.0,140.0,125.0,99.0,129.0,120.0,129.0,120.0,-1.0,92.0,-72.0,-127.0,127.0,127.0,-101.0,-89.0,109.0
129.0,138.0,124.0,91.0,124.0,121.0,125.0,118.0,-1.0,93.0,-71.0,-127.0,127.0,127.0,-101.0,-89.0,109.0
129.0,138.0,124.0,90.0,124.0,121.0,126.0,118.0,-1.0,93.0,-71.0,-127.0,127.0,127.0,-101.0,-89.0,109.0
129.0,138.0,124.0,89.0,124.0,121.0,125.0,118.0,-1.0,93.0,-71.0,-127.0,127.0,127.0,-101.0,-89.0,109.0
129.0,138.0,124.0,89.0,124.0,121.0,125.0,118.0,-1.0,93.0,-71.0,-127.0,127.0,127.0,-101.0,-89.0,109.0
129.0,138.0,123.0,88.0,124.0,122.0,125.0,118.0,-1.0,93.0,-71.0,-127.0,127.0,127.0,-101.0,-89.0,109.0
129.0,138.0,125.0,94.0,125.0,120.0,126.0,118.0,-1.0,93.0,-71.0,-127.0,127.0,127.0,-101.0,-89.0,109.0
129.0,138.0,125.0,93.0,125.0,120.0,126.0,118.0,-1.0,93.0,-71.0,-127.0,127.0,127.0,-101.0,-89.0,109.0
129.0,138.0,124.0,93.0,125.0,120.0,126.0,118.0,-1.0,93.0,-71.0,-127.0,127.0,127.0,-101.0,-89.0,109.0
129.0,138.0,124.0,92.0,124.0,121.0,126.0,118.0,-1.0,93.0,-71.0,-127.0,127.0,127.0,-101.0,-89.0,109.0
129.0,138.0,124.0,91.0,124.0,121.0,125.0,118.0,-1.0,93.0,-71.0,-127.0,127.0,127.0,-101.0,-89.0,109.0
131.0,138.0,125.0,86.0,124.0,122.0,125.0,118.0,-1.0,93.0,-70.0,-127.0,127.0,127.0,-101.0,-89.0,109.0
131.0,138.0,125.0,86.0,124.0,122.0,125.0,118.0,-1.0,93.0,-70.0,-127.0,127.0,127.0,-101.0,-89.0,109.0
131.0,138.0,125.0,87.0,124.0,122.0,125.0,118.0,-1.0,93.0,-70.0,-127.0,127.0,127.0,-101.0,-89.0,109.0
131.0,138.0,125.0,87.0,124.0,122.0,125.0,118.0,-1.0,93.0,-70.0,-127.0,127.0,127.0,-101.0,-89.0,109.0
131.0,139.0,124.0,84.0,124.0,122.0,124.0,118.0,-1.0,93.0,-70.0,-127.0,127.0,127.0,-101.0,-89.0,109.0
131.0,138.0,124.0,84.0,124.0,122.0,124.0,118.0,-1.0,93.0,-70.0,-127.0,127.0,127.0,-101.0,-89.0,109.0
131.0,138.0,124.0,85.0,124.0,122.0,124.0,118.0,-1.0,93.0,-70.0,-127.0,127.0,127.0,-101.0,-89.0,109.0
131.0,138.0,124.0,85.0,124.0,122.0,124.0,118.0,-1.0,93.0,-70.0,-127.0,127.0,127.0,-101.0,-89.0,109.0
131.0,138.0,124.0,85.0,124.0,122.0,124.0,118.0,-1.0,93.0,-70.0,-127.0,127.0,127.0,-101.0,-89.0,109.0
131.0,138.0,125.0,86.0,124.0,122.0,124.0,118.0,-1.0,93.0,-70.0,-127.0,127.0,127.0,-101.0,-89.0,109.0
133.0,137.0,127.0,109.0,124.0,123.0,128.0,118.0,-1.0,94.0,-70.0,-127.0,127.0,127.0,-102.0,-89.0,109.0
133.0,137.0,127.0,110.0,124.0,123.0,128.0,118.0,-1.0,94.0,-70.0,-127.0,127.0,127.0,-102.0,-89.0,109.0
133.0,137.0,127.0,110.0,124.0,123.0,129.0,118.0,-1.0,94.0,-70.0,-127.0,127.0,127.0,-102.0,-89.0,109.0
133.0,137.0,127.0,107.0,124.0,123.0,128.0,118.0,-1.0,94.0,-70.0,-127.0,127.0,127.0,-102.0,-89.0,109.0
133.0,137.0,127.0,107.0,124.0,124.0,128.0,118.0,-1.0,94.0,-70.0,-127.0,127.0,127.0,-102.0,-89.0,109.0
133.0,137.0,127.0,108.0,124.0,123.0,128.0,118.0,-1.0,94.0,-70.0,-127.0,127.0,127.0,-102.0,-89.0,109.0
133.0,137.0,127.0,108.0,124.0,123.0,128.0,118.0,-1.0,94.0,-70.0,-127.0,127.0,127.0,-102.0,-89.0,109.0
133.0,137.0,127.0,108.0,124.0,123.0,128.0,118.0,-1.0,94.0,-70.0,-127.0,127.0,127.0,-102.0,-89.0,109.0
133.0,137.0,127.0,109.0,124.0,123.0,128.0,118.0,-1.0,94.0,-70.0,-127.0,127.0,127.0,-102.0,-89.0,109.0
133.0,137.0,127.0,109.0,124.0,123.0,128.0,118.0,-1.0,94.0,-70.0,-127.0,127.0,127.0,-102.0,-89.0,109.0
132.0,137.0,128.0,122.0,127.0,124.0,129.0,118.0,-1.0,94.0,-69.0,-127.0,127.0,127.0,-103.0,-89.0,109.0
132.0,137.0,128.0,122.0,127.0,124.0,129.0,118.0,-1.0,94.0,-69.0,-127.0,127.0,127.0,-103.0,-89.0,109.0
132.0,137.0,128.0,121.0,126.0,125.0,128.0,119.0,-1.0,94.0,-69.0,-127.0,127.0,127.0,-103.0,-89.0,109.0
132.0,137.0,128.0,121.0,126.0,125.0,128.0,119.0,-1.0,94.0,-69.0,-127.0,127.0,127.0,-103.0,-89.0,109.0
132.0,137.0,128.0,121.0,126.0,124.0,128.0,118.0,-1.0,94.0,-69.0,-127.0,127.0,127.0,-103.0,-89.0,109.0
132.0,137.0,128.0,121.0,127.0,124.0,128.0,118.0,-1.0,94.0,-69.0,-127.0,127.0,127.0,-103.0,-89.0,109.0
132.0,137.0,128.0,121.0,127.0,124.0,128.0,118.0,-1.0,94.0,-69.0,-127.0,127.0,127.0,-103.0,-89.0,109.0
132.0,137.0,128.0,121.0,127.0,124.0,128.0,118.0,-1.0,94.0,-69.0,-127.0,127.0,127.0,-103.0,-89.0,109.0
132.0,137.0,128.0,121.0,127.0,124.0,129.0,118.0,-1.0,94.0,-69.0,-127.0,127.0,127.0,-103.0,-89.0,109.0
132.0,137.0,128.0,121.0,127.0,124.0,129.0,118.0,-1.0,94.0,-69.0,-127.0,127.0,127.0,-103.0,-89.0,109.0
132.0,137.0,126.0,120.0,128.0,124.0,128.0,118.0,-1.0,94.0,-69.0,-127.0,127.0,127.0,-103.0,-89.0,109.0
132.0,137.0,126.0,120.0,128.0,125.0,127.0,118.0,-1.0,94.0,-69.0,-127.0,127.0,127.0,-103.0,-89.0,109.0
132.0,137.0,126.0,120.0,128.0,125.0,127.0,118.0,-1.0,94.0,-69.0,-127.0,127.0,127.0,-103.0,-89.0,109.0
132.0,137.0,126.0,120.0,128.0,125.0,127.0,118.0,-1.0,94.0,-69.0,-127.0,127.0,127.0,-103.0,-89.0,109.0
132.0,137.0,126.0,120.0,128.0,125.0,127.0,118.0,-1.0,94.0,-69.0,-127.0,127.0,127.0,-103.0,-89.0,109.0
132.0,137.0,126.0,120.0,128.0,125.0,127.0,118.0,-1.0,94.0,-69.0,-127.0,127.0,127.0,-103.0,-89.0,109.0
132.0,137.0,126.0,119.0,128.0,125.0,128.0,118.0,-1.0,94.0,-69.0,-127.0,127.0,127.0,-103.0,-89.0,109.0
132.0,137.0,126.0,119.0,128.0,125.0,128.0,118.0,-1.0,94.0,-69.0,-127.0,127.0,127.0,-103.0,-89.0,109.0
132.0,137.0,126.0,119.0,128.0,125.0,128.0,118.0,-1.0,94.0,-69.0,-127.0,127.0,127.0,-103.0,-89.0,109.0
132.0,137.0,126.0,119.0,128.0,125.0,128.0,118.0,-1.0,94.0,-69.0,-127.0,127.0,127.0,-103.0,-89.0,109.0
130.0,137.0,125.0,99.0,128.0,124.0,127.0,118.0,-1.0,95.0,-68.0,-127.0,127.0,127.0,-104.0,-89.0,109.0
130.0,137.0,125.0,99.0,128.0,124.0,127.0,118.0,-1.0,95.0,-68.0,-127.0,127.0,127.0,-104.0,-89.0,109.0
130.0,137.0,125.0,98.0,128.0,124.0,127.0,118.0,-1.0,95.0,-68.0,-127.0,127.0,127.0,-104.0,-89.0,109.0
130.0,137.0,125.0,98.0,127.0,124.0,127.0,118.0,-1.0,95.0,-68.0,-127.0,127.0,127.0,-104.0,-89.0,109.0
130.0,137.0,125.0,98.0,127.0,125.0,126.0,118.0,-1.0,95.0,-68.0,-127.0,127.0,127.0,-104.0,-89.0,109.0
130.0,137.0,125.0,98.0,127.0,125.0,127.0,118.0,-1.0,95.0,-68.0,-127.0,127.0,127.0,-104.0,-89.0,109.0
130.0,137.0,125.0,98.0,127.0,124.0,127.0,118.0,-1.0,95.0,-68.0,-127.0,127.0,127.0,-104.0,-89.0,109.0
130.0,137.0,125.0,98.0,127.0,124.0,127.0,118.0,-1.0,95.0,-68.0,-127.0,127.0,127.0,-104.0,-89.0,109.0
130.0,137.0,125.0,98.0,128.0,124.0,127.0,118.0,-1.0,95.0,-68.0,-127.0,127.0,127.0,-104.0,-89.0,109.0
130.0,137.0,125.0,98.0,127.0,124.0,127.0,118.0,-1.0,95.0,-68.0,-127.0,127.0,127.0,-104.0,-89.0,109.0
129.0,137.0,123.0,113.0,126.0,125.0,126.0,118.0,-1.0,95.0,-68.0,-128.0,127.0,127.0,-104.0,-89.0,109.0
129.0,137.0,123.0,113.0,126.0,125.0,125.0,118.0,-1.0,95.0,-68.0,-128.0,127.0,127.0,-104.0,-89.0,109.0
129.0,137.0,123.0,113.0,126.0,125.0,126.0,118.0,-1.0,95.0,-68.0,-128.0,127.0,127.0,-104.0,-89.0,109.0
129.0,137.0,123.0,114.0,126.0,124.0,126.0,118.0,-1.0,95.0,-68.0,-128.0,127.0,127.0,-104.0,-89.0,109.0
129.0,137.0,123.0,114.0,126.0,124.0,126.0,118.0,-1.0,95.0,-68.0,-128.0,127.0,127.0,-104.0,-89.0,109.0
129.0,136.0,123.0,115.0,126.0,124.0,126.0,118.0,-1.0,95.0,-68.0,-128.0,127.0,127.0,-104.0,-89.0,109.0
129.0,136.0,123.0,115.0,126.0,124.0,126.0,118.0,-1.0,95.0,-68.0,-128.0,127.0,127.0,-104.0,-89.0,109.0
129.0,136.0,123.0,115.0,126.0,124.0,126.0,118.0,-1.0,95.0,-68.0,-128.0,127.0,127.0,-104.0,-89.0,109.0
129.0,137.0,123.0,112.0,126.0,125.0,126.0,118.0,-1.0,95.0,-68.0,-128.0,127.0,127.0,-104.0,-89.0,109.0
129.0,137.0,123.0,112.0,126.0,125.0,125.0,118.0,-1.0,95.0,-68.0,-128.0,127.0,127.0,-104.0,-89.0,109.0
128.0,136.0,120.0,131.0,129.0,126.0,128.0,120.0,-1.0,95.0,-68.0,-128.0,127.0,127.0,-105.0,-89.0,109.0
128.0,136.0,120.0,131.0,129.0,126.0,128.0,120.0,-1.0,95.0,-68.0,-128.0,127.0,127.0,-105.0,-89.0,109.0
128.0,136.0,120.0,131.0,129.0,126.0,128.0,120.0,-1.0,95.0,-68.0,-128.0,127.0,127.0,-105.0,-89.0,109.0
128.0,136.0,120.0,131.0,129.0,126.0,128.0,120.0,-1.0,95.0,-68.0,-128.0,127.0,127.0,-105.0,-89.0,109.0
128.0,136.0,120.0,131.0,129.0,126.0,128.0,120.0,-1.0,95.0,-68.0,-128.0,127.0,127.0,-105.0,-89.0,109.0
128.0,136.0,121.0,131.0,130.0,125.0,129.0,120.0,-1.0,95.0,-68.0,-128.0,127.0,127.0,-105.0,-89.0,109.0
128.0,135.0,121.0,131.0,130.0,125.0,129.0,120.0,-1.0,95.0,-68.0,-128.0,127.0,127.0,-105.0,-89.0,109.0
128.0,136.0,119.0,130.0,128.0,126.0,128.0,120.0,-1.0,95.0,-68.0,-128.0,127.0,127.0,-105.0,-89.0,109.0
128.0,136.0,119.0,130.0,128.0,126.0,128.0,120.0,-1.0,95.0,-68.0,-128.0,127.0,127.0,-105.0,-89.0,109.0
128.0,136.0,120.0,131.0,129.0,126.0,128.0,120.0,-1.0,95.0,-68.0,-128.0,127.0,127.0,-105.0,-89.0,109.0
128.0,135.0,129.0,129.0,131.0,126.0,130.0,119.0,-1.0,96.0,-67.0,-128.0,127.0,127.0,-106.0,-89.0,110.0
128.0,135.0,129.0,129.0,131.0,126.0,130.0,119.0,-1.0,96.0,-67.0,-128.0,127.0,127.0,-106.0,-89.0,110.0
128.0,135.0,129.0,129.0,131.0,126.0,130.0,119.0,-1.0,96.0,-67.0,-128.0,127.0,127.0,-106.0,-89.0,110.0
128.0,135.0,129.0,129.0,131.0,126.0,130.0,119.0,-1.0,96.0,-67.0,-128.0,127.0,127.0,-106.0,-89.0,110.0
128.0,135.0,129.0,129.0,131.0,126.0,131.0,119.0,-1.0,96.0,-67.0,-128.0,127.0,127.0,-106.0,-89.0,110.0
128.0,135.0,129.0,129.0,131.0,126.0,130.0,119.0,-1.0,96.0,-67.0,-128.0,127.0,127.0,-106.0,-89.0,110.0
128.0,135.0,129.0,130.0,131.0,126.0,130.0,119.0,-1.0,96.0,-67.0,-128.0,127.0,127.0,-106.0,-89.0,110.0
128.0,135.0,129.0,130.0,131.0,126.0,130.0,119.0,-1.0,96.0,-67.0,-128.0,127.0,127.0,-106.0,-89.0,110.0
128.0,135.0,129.0,130.0,131.0,126.0,130.0,119.0,-1.0,96.0,-67.0,-128.0,127.0,127.0,-106.0,-89.0,110.0
128.0,135.0,129.0,130.0,131.0,126.0,130.0,119.0,-1.0,96.0,-67.0,-128.0,127.0,127.0,-106.0,-89.0,110.0
127.0,135.0,128.0,127.0,129.0,126.0,130.0,119.0,-1.0,96.0,-67.0,-128.0,127.0,127.0,-106.0,-89.0,110.0
127.0,135.0,128.0,127.0,129.0,126.0,130.0,119.0,-1.0,96.0,-67.0,-128.0,127.0,127.0,-106.0,-89.0,110.0
127.0,135.0,128.0,127.0,129.0,126.0,130.0,119.0,-1.0,96.0,-67.0,-128.0,127.0,127.0,-106.0,-89.0,110.0
127.0,135.0,128.0,127.0,129.0,126.0,131.0,119.0,-1.0,96.0,-67.0,-128.0,127.0,127.0,-106.0,-89.0,110.0
127.0,135.0,128.0,127.0,129.0,126.0,131.0,119.0,-1.0,96.0,-67.0,-128.0,127.0,127.0,-106.0,-89.0,110.0
127.0,135.0,128.0,127.0,129.0,127.0,130.0,119.0,-1.0,96.0,-67.0,-128.0,127.0,127.0,-106.0,-89.0,110.0
127.0,135.0,128.0,127.0,129.0,127.0,130.0,119.0,-1.0,96.0,-67.0,-128.0,127.0,127.0,-106.0,-89.0,110.0
127.0,135.0,128.0,127.0,129.0,127.0,130.0,119.0,-1.0,96.0,-67.0,-128.0,127.0,127.0,-106.0,-89.0,110.0
127.0,135.0,128.0,127.0,129.0,127.0,130.0,119.0,-1.0,96.0,-67.0,-128.0,127.0,127.0,-106.0,-89.0,110.0
127.0,135.0,128.0,127.0,129.0,126.0,130.0,119.0,-1.0,96.0,-67.0,-128.0,127.0,127.0,-106.0,-89.0,110.0
127.0,135.0,127.0,125.0,126.0,125.0,130.0,119.0,-1.0,96.0,-67.0,-128.0,127.0,127.0,-106.0,-89.0,110.0
127.0,135.0,127.0,125.0,126.0,125.0,130.0,119.0,-1.0,96.0,-67.0,-128.0,127.0,127.0,-106.0,-89.0,110.0
127.0,135.0,127.0,125.0,126.0,125.0,130.0,119.0,-1.0,96.0,-67.0,-128.0,127.0,127.0,-106.0,-89.0,110.0
127.0,135.0,127.0,125.0,126.0,125.0,130.0,119.0,-1.0,96.0,-67.0,-128.0,127.0,127.0,-106.0,-89.0,110.0
127.0,135.0,127.0,125.0,126.0,126.0,129.0,119.0,-1.0,96.0,-67.0,-128.0,127.0,127.0,-106.0,-89.0,110.0
127.0,135.0,127.0,125.0,126.0,126.0,129.0,119.0,-1.0,96.0,-67.0,-128.0,127.0,127.0,-106.0,-89.0,110.0
127.0,135.0,127.0,125.0,126.0,126.0,130.0,119.0,-1.0,96.0,-67.0,-128.0,127.0,127.0,-106.0,-89.0,110.0
127.0,135.0,127.0,125.0,126.0,126.0,129.0,119.0,-1.0,96.0,-67.0,-128.0,127.0,127.0,-106.0,-89.0,110.0
127.0,135.0,127.0,125.0,126.0,126.0,130.0,119.0,-1.0,96.0,-67.0,-128.0,127.0,127.0,-106.0,-89.0,110.0
127.0,135.0,127.0,125.0,126.0,125.0,130.0,119.0,-1.0,96.0,-67.0,-128.0,127.0,127.0,-106.0,-89.0,110.0
127.0,134.0,128.0,121.0,125.0,125.0,130.0,120.0,-1.0,96.0,-67.0,-128.0,127.0,127.0,-107.0,-89.0,110.0
127.0,134.0,128.0,121.0,125.0,125.0,130.0,120.0,-1.0,96.0,-67.0,-128.0,127.0,127.0,-107.0,-89.0,110.0
127.0,134.0,128.0,121.0,125.0,125.0,130.0,120.0,-1.0,96.0,-67.0,-128.0,127.0,127.0,-107.0,-89.0,110.0
127.0,134.0,127.0,122.0,125.0,125.0,129.0,120.0,-1.0,96.0,-67.0,-128.0,127.0,127.0,-107.0,-89.0,110.0
127.0,134.0,127.0,122.0,125.0,125.0,129.0,120.0,-1.0,96.0,-67.0,-128.0,127.0,127.0,-107.0,-89.0,110.0
127.0,134.0,127.0,122.0,125.0,125.0,129.0,120.0,-1.0,96.0,-67.0,-128.0,127.0,127.0,-107.0,-89.0,110.0
127.0,134.0,127.0,122.0,125.0,125.0,129.0,120.0,-1.0,96.0,-67.0,-128.0,127.0,127.0,-107.0,-89.0,110.0
127.0,134.0,127.0,121.0,125.0,125.0,129.0,120.0,-1.0,96.0,-67.0,-128.0,127.0,127.0,-107.0,-89.0,110.0
127.0,134.0,128.0,121.0,125.0,125.0,129.0,120.0,-1.0,96.0,-67.0,-128.0,127.0,127.0,-107.0,-89.0,110.0
127.0,134.0,128.0,121.0,125.0,125.0,130.0,120.0,-1.0,96.0,-67.0,-128.0,127.0,127.0,-107.0,-89.0,110.0
127.0,134.0,129.0,96.0,124.0,126.0,131.0,121.0,-1.0,96.0,-66.0,-128.0,127.0,127.0,-108.0,-89.0,110.0
127.0,134.0,129.0,96.0,124.0,126.0,131.0,121.0,-1.0,96.0,-66.0,-128.0,127.0,127.0,-108.0,-89.0,110.0
127.0,134.0,129.0,98.0,124.0,126.0,130.0,121.0,-1.0,96.0,-66.0,-128.0,127.0,127.0,-108.0,-89.0,110.0
127.0,134.0,129.0,98.0,124.0,126.0,130.0,121.0,-1.0,96.0,-66.0,-128.0,127.0,127.0,-108.0,-89.0,110.0
127.0,134.0,129.0,98.0,124.0,126.0,130.0,121.0,-1.0,96.0,-66.0,-128.0,127.0,127.0,-108.0,-89.0,110.0
127.0,134.0,129.0,97.0,124.0,126.0,130.0,121.0,-1.0,96.0,-66.0,-128.0,127.0,127.0,-108.0,-89.0,110.0
127.0,134.0,129.0,97.0,124.0,126.0,130.0,121.0,-1.0,96.0,-66.0,-128.0,127.0,127.0,-108.0,-89.0,110.0
127.0,134.0,129.0,96.0,124.0,126.0,130.0,121.0,-1.0,96.0,-66.0,-128.0,127.0,127.0,-108.0,-89.0,110.0
127.0,134.0,129.0,96.0,124.0,126.0,130.0,121.0,-1.0,96.0,-66.0,-128.0,127.0,127.0,-108.0,-89.0,110.0
127.0,134.0,129.0,96.0,124.0,126.0,131.0,121.0,-1.0,96.0,-66.0,-128.0,127.0,127.0,-108.0,-89.0,110.0
127.0,134.0,128.0,121.0,123.0,128.0,132.0,121.0,-1.0,96.0,-66.0,-128.0,127.0,127.0,-108.0,-89.0,110.0
126.0,134.0,129.0,115.0,123.0,126.0,132.0,120.0,-1.0,96.0,-66.0,-128.0,127.0,127.0,-108.0,-89.0,110.0
126.0,134.0,129.0,116.0,123.0,126.0,132.0,120.0,-1.0,96.0,-66.0,-128.0,127.0,127.0,-108.0,-89.0,110.0
127.0,134.0,129.0,116.0,123.0,127.0,132.0,121.0,-1.0,96.0,-66.0,-128.0,127.0,127.0,-108.0,-89.0,110.0
127.0,134.0,129.0,117.0,123.0,127.0,132.0,121.0,-1.0,96.0,-66.0,-128.0,127.0,127.0,-108.0,-89.0,110.0
127.0,134.0,129.0,118.0,123.0,127.0,132.0,121.0,-1.0,96.0,-66.0,-128.0,127.0,127.0,-108.0,-89.0,110.0
126.0,134.0,129.0,119.0,123.0,127.0,132.0,121.0,-1.0,96.0,-66.0,-128.0,127.0,127.0,-108.0,-89.0,110.0
127.0,134.0,129.0,119.0,123.0,127.0,132.0,120.0,-1.0,96.0,-66.0,-128.0,127.0,127.0,-108.0,-89.0,110.0
126.0,134.0,129.0,120.0,123.0,127.0,132.0,121.0,-1.0,96.0,-66.0,-128.0,127.0,127.0,-108.0,-89.0,110.0
127.0,134.0,128.0,121.0,123.0,127.0,132.0,121.0,-1.0,96.0,-66.0,-128.0,127.0,127.0,-108.0,-89.0,110.0
127.0,133.0,127.0,136.0,124.0,127.0,133.0,121.0,-1.0,96.0,-66.0,-128.0,127.0,127.0,-108.0,-89.0,110.0
127.0,133.0,127.0,137.0,124.0,127.0,133.0,121.0,-1.0,96.0,-66.0,-128.0,127.0,127.0,-108.0,-89.0,110.0
127.0,133.0,126.0,137.0,124.0,127.0,132.0,121.0,-1.0,96.0,-66.0,-128.0,127.0,127.0,-108.0,-89.0,110.0
127.0,133.0,127.0,137.0,124.0,127.0,132.0,121.0,-1.0,96.0,-66.0,-128.0,127.0,127.0,-108.0,-89.0,110.0
127.0,133.0,127.0,137.0,124.0,127.0,132.0,121.0,-1.0,96.0,-66.0,-128.0,127.0,127.0,-108.0,-89.0,110.0
127.0,133.0,127.0,137.0,124.0,127.0,132.0,121.0,-1.0,96.0,-66.0,-128.0,127.0,127.0,-108.0,-89.0,110.0
127.0,133.0,126.0,137.0,124.0,127.0,133.0,121.0,-1.0,96.0,-66.0,-128.0,127.0,127.0,-108.0,-89.0,110.0
127.0,133.0,126.0,137.0,124.0,127.0,133.0,121.0,-1.0,96.0,-66.0,-128.0,127.0,127.0,-108.0,-89.0,110.0
127.0,133.0,126.0,137.0,124.0,127.0,132.0,121.0,-1.0,96.0,-66.0,-128.0,127.0,127.0,-108.0,-89.0,110.0
127.0,133.0,126.0,137.0,124.0,128.0,132.0,121.0,-1.0,96.0,-66.0,-128.0,127.0,127.0,-108.0,-89.0,110.0
127.0,133.0,126.0,133.0,126.0,126.0,131.0,120.0,-1.0,96.0,-66.0,-128.0,127.0,127.0,-108.0,-89.0,110.0
127.0,133.0,125.0,133.0,126.0,127.0,131.0,121.0,-1.0,96.0,-66.0,-128.0,127.0,127.0,-108.0,-89.0,110.0
127.0,133.0,125.0,133.0,126.0,127.0,130.0,121.0,-1.0,96.0,-66.0,-128.0,127.0,127.0,-108.0,-89.0,110.0
127.0,133.0,125.0,133.0,126.0,127.0,130.0,121.0,-1.0,96.0,-66.0,-128.0,127.0,127.0,-108.0,-89.0,110.0
127.0,133.0,125.0,133.0,126.0,127.0,130.0,121.0,-1.0,96.0,-66.0,-128.0,127.0,127.0,-108.0,-89.0,110.0
127.0,133.0,125.0,133.0,126.0,127.0,130.0,121.0,-1.0,96.0,-66.0,-128.0,127.0,127.0,-108.0,-89.0,110.0
127.0,133.0,125.0,133.0,126.0,127.0,130.0,121.0,-1.0,96.0,-66.0,-128.0,127.0,127.0,-108.0,-89.0,110.0
127.0,133.0,125.0,133.0,126.0,127.0,130.0,121.0,-1.0,96.0,-66.0,-128.0,127.0,127.0,-108.0,-89.0,110.0
127.0,133.0,125.0,133.0,126.0,127.0,130.0,121.0,-1.0,96.0,-66.0,-128.0,127.0,127.0,-108.0,-89.0,110.0
127.0,133.0,126.0,133.0,126.0,126.0,131.0,120.0,-1.0,96.0,-66.0,-128.0,127.0,127.0,-108.0,-89.0,110.0
127.0,133.0,126.0,130.0,126.0,126.0,128.0,121.0,-1.0,96.0,-66.0,-128.0,127.0,127.0,-109.0,-89.0,110.0
127.0,133.0,126.0,130.0,126.0,127.0,127.0,121.0,-1.0,96.0,-66.0,-128.0,127.0,127.0,-109.0,-89.0,110.0
127.0,133.0,126.0,130.0,126.0,127.0,127.0,121.0,-1.0,96.0,-66.0,-128.0,127.0,127.0,-109.0,-89.0,110.0
127.0,133.0,126.0,130.0,127.0,126.0,127.0,121.0,-1.0,96.0,-66.0,-128.0,127.0,127.0,-109.0,-89.0,110.0
127.0,133.0,126.0,130.0,127.0,126.0,127.0,121.0,-1.0,96.0,-66.0,-128.0,127.0,127.0,-109.0,-89.0,110.0
127.0,133.0,126.0,130.0,127.0,127.0,127.0,121.0,-1.0,96.0,-66.0,-128.0,127.0,127.0,-109.0,-89.0,110.0
127.0,133.0,126.0,130.0,127.0,127.0,127.0,121.0,-1.0,96.0,-66.0,-128.0,127.0,127.0,-109.0,-89.0,110.0
127.0,133.0,126.0,130.0,126.0,127.0,127.0,121.0,-1.0,96.0,-66.0,-128.0,127.0,127.0,-109.0,-89.0,110.0
127.0,133.0,126.0,130.0,127.0,126.0,128.0,121.0,-1.0,96.0,-66.0,-128.0,127.0,127.0,-109.0,-89.0,110.0
127.0,133.0,126.0,130.0,127.0,126.0,128.0,121.0,-1.0,96.0,-66.0,-128.0,127.0,127.0,-109.0,-89.0,110.0
127.0,132.0,126.0,129.0,126.0,127.0,126.0,121.0,-1.0,96.0,-66.0,-128.0,127.0,127.0,-109.0,-89.0,110.0
127.0,132.0,126.0,128.0,127.0,127.0,126.0,121.0,-1.0,96.0,-66.0,-128.0,127.0,127.0,-109.0,-89.0,110.0
127.0,132.0,126.0,128.0,127.0,127.0,126.0,121.0,-1.0,96.0,-66.0,-128.0,127.0,127.0,-109.0,-89.0,110.0
127.0,132.0,126.0,128.0,127.0,127.0,126.0,121.0,-1.0,96.0,-66.0,-128.0,127.0,127.0,-109.0,-89.0,110.0
127.0,132.0,126.0,128.0,127.0,127.0,126.0,121.0,-1.0,96.0,-66.0,-128.0,127.0,127.0,-109.0,-89.0,110.0
127.0,132.0,126.0,128.0,127.0,127.0,126.0,121.0,-1.0,96.0,-66.0,-128.0,127.0,127.0,-109.0,-89.0,110.0
127.0,132.0,126.0,128.0,127.0,126.0,126.0,121.0,-1.0,96.0,-66.0,-128.0,127.0,127.0,-109.0,-89.0,110.0
127.0,132.0,126.0,129.0,127.0,126.0,126.0,121.0,-1.0,96.0,-66.0,-128.0,127.0,127.0,-109.0,-89.0,110.0
127.0,132.0,126.0,128.0,127.0,126.0,126.0,121.0,-1.0,96.0,-66.0,-128.0,127.0,127.0,-109.0,-89.0,110.0
127.0,132.0,126.0,128.0,127.0,127.0,126.0,121.0,-1.0,96.0,-66.0,-128.0,127.0,127.0,-109.0,-89.0,110.0
127.0,133.0,127.0,128.0,126.0,127.0,126.0,122.0,-1.0,96.0,-66.0,-128.0,127.0,127.0,-110.0,-89.0,110.0
127.0,133.0,127.0,128.0,127.0,127.0,126.0,122.0,-1.0,96.0,-66.0,-128.0,127.0,127.0,-110.0,-89.0,110.0
127.0,132.0,127.0,128.0,127.0,127.0,126.0,122.0,-1.0,96.0,-66.0,-128.0,127.0,127.0,-110.0,-89.0,110.0
127.0,133.0,127.0,129.0,127.0,127.0,126.0,122.0,-1.0,96.0,-66.0,-128.0,127.0,127.0,-110.0,-89.0,110.0
127.0,132.0,127.0,129.0,127.0,127.0,126.0,122.0,-1.0,96.0,-66.0,-128.0,127.0,127.0,-110.0,-89.0,110.0
127.0,132.0,127.0,128.0,126.0,127.0,127.0,122.0,-1.0,96.0,-66.0,-128.0,127.0,127.0,-110.0,-89.0,110.0
127.0,132.0,127.0,128.0,127.0,127.0,127.0,122.0,-1.0,96.0,-66.0,-128.0,127.0,127.0,-110.0,-89.0,110.0
127.0,132.0,127.0,128.0,127.0,127.0,127.0,122.0,-1.0,96.0,-66.0,-128.0,127.0,127.0,-110.0,-89.0,110.0
127.0,132.0,127.0,128.0,126.0,127.0,126.0,122.0,-1.0,96.0,-66.0,-128.0,127.0,127.0,-110.0,-89.0,110.0
127.0,133.0,127.0,128.0,126.0,127.0,126.0,122.0,-1.0,96.0,-66.0,-128.0,127.0,127.0,-110.0,-89.0,110.0
127.0,132.0,127.0,128.0,127.0,128.0,128.0,122.0,-1.0,96.0,-66.0,-128.0,127.0,127.0,-110.0,-89.0,110.0
127.0,132.0,127.0,128.0,128.0,128.0,128.0,122.0,-1.0,96.0,-66.0,-128.0,127.0,127.0,-110.0,-89.0,110.0
127.0,132.0,127.0,128.0,127.0,128.0,128.0,122.0,-1.0,96.0,-66.0,-128.0,127.0,127.0,-110.0,-89.0,110.0
127.0,132.0,128.0,128.0,128.0,127.0,128.0,122.0,-1.0,96.0,-66.0,-128.0,127.0,127.0,-110.0,-89.0,110.0
127.0,132.0,127.0,128.0,127.0,127.0,128.0,122.0,-1.0,96.0,-66.0,-128.0,127.0,127.0,-110.0,-89.0,110.0
127.0,132.0,127.0,128.0,127.0,127.0,128.0,122.0,-1.0,96.0,-66.0,-128.0,127.0,127.0,-110.0,-89.0,110.0
127.0,132.0,127.0,128.0,127.0,127.0,128.0,122.0,-1.0,96.0,-66.0,-128.0,127.0,127.0,-110.0,-89.0,110.0
127.0,132.0,127.0,128.0,127.0,127.0,128.0,122.0,-1.0,96.0,-66.0,-128.0,127.0,127.0,-110.0,-89.0,110.0
127.0,132.0,127.0,128.0,127.0,128.0,127.0,122.0,-1.0,96.0,-66.0,-128.0,127.0,127.0,-110.0,-89.0,110.0
127.0,132.0,127.0,128.0,127.0,128.0,127.0,122.0,-1.0,96.0,-66.0,-128.0,127.0,127.0,-110.0,-89.0,110.0
127.0,132.0,127.0,129.0,128.0,128.0,127.0,123.0,-1.0,96.0,-66.0,-128.0,127.0,127.0,-110.0,-89.0,110.0
127.0,132.0,127.0,129.0,128.0,128.0,127.0,123.0,-1.0,96.0,-66.0,-128.0,127.0,127.0,-110.0,-89.0,110.0
127.0,132.0,127.0,129.0,128.0,128.0,127.0,124.0,-1.0,96.0,-66.0,-128.0,127.0,127.0,-110.0,-89.0,110.0
127.0,132.0,127.0,128.0,128.0,127.0,127.0,123.0,-1.0,96.0,-66.0,-128.0,127.0,127.0,-110.0,-89.0,110.0
127.0,132.0,127.0,129.0,128.0,127.0,127.0,123.0,-1.0,96.0,-66.0,-128.0,127.0,127.0,-110.0,-89.0,110.0
127.0,132.0,127.0,129.0,128.0,127.0,127.0,123.0,-1.0,96.0,-66.0,-128.0,127.0,127.0,-110.0,-89.0,110.0
127.0,132.0,127.0,129.0,128.0,127.0,127.0,123.0,-1.0,96.0,-66.0,-128.0,127.0,127.0,-110.0,-89.0,110.0
127.0,132.0,127.0,129.0,128.0,128.0,127.0,124.0,-1.0,96.0,-66.0,-128.0,127.0,127.0,-110.0,-89.0,110.0
127.0,132.0,127.0,129.0,128.0,128.0,127.0,124.0,-1.0,96.0,-66.0,-128.0,127.0,127.0,-110.0,-89.0,110.0
127.0,132.0,127.0,129.0,128.0,128.0,127.0,124.0,-1.0,96.0,-66.0,-128.0,127.0,127.0,-110.0,-89.0,110.0
126.0,132.0,127.0,129.0,127.0,127.0,127.0,124.0,-1.0,96.0,-66.0,-128.0,127.0,127.0,-110.0,-89.0,110.0
126.0,132.0,127.0,129.0,127.0,127.0,127.0,124.0,-1.0,96.0,-66.0,-128.0,127.0,127.0,-110.0,-89.0,110.0
126.0,132.0,127.0,129.0,127.0,126.0,128.0,124.0,-1.0,96.0,-66.0,-128.0,127.0,127.0,-110.0,-89.0,110.0
126.0,132.0,127.0,129.0,127.0,126.0,128.0,124.0,-1.0,96.0,-66.0,-128.0,127.0,127.0,-110.0,-89.0,110.0
126.0,132.0,127.0,129.0,127.0,126.0,128.0,124.0,-1.0,96.0,-66.0,-128.0,127.0,127.0,-110.0,-89.0,110.0
126.0,132.0,127.0,129.0,127.0,126.0,128.0,124.0,-1.0,96.0,-66.0,-128.0,127.0,127.0,-110.0,-89.0,110.0
126.0,132.0,127.0,129.0,127.0,126.0,128.0,124.0,-1.0,96.0,-66.0,-128.0,127.0,127.0,-110.0,-89.0,110.0
126.0,132.0,127.0,129.0,127.0,126.0,128.0,124.0,-1.0,96.0,-66.0,-128.0,127.0,127.0,-110.0,-89.0,110.0
126.0,132.0,127.0,129.0,127.0,126.0,128.0,124.0,-1.0,96.0,-66.0,-128.0,127.0,127.0,-110.0,-89.0,110.0
126.0,132.0,127.0,129.0,127.0,127.0,127.0,124.0,-1.0,96.0,-66.0,-128.0,127.0,127.0,-110.0,-89.0,110.0
126.0,131.0,127.0,128.0,127.0,126.0,127.0,123.0,-1.0,96.0,-66.0,127.0,127.0,127.0,-110.0,-89.0,110.0
126.0,131.0,127.0,128.0,126.0,126.0,127.0,123.0,-1.0,96.0,-66.0,127.0,127.0,127.0,-110.0,-89.0,110.0
126.0,131.0,127.0,128.0,126.0,127.0,126.0,123.0,-1.0,96.0,-66.0,127.0,127.0,127.0,-110.0,-89.0,110.0
126.0,132.0,127.0,128.0,126.0,127.0,126.0,123.0,-1.0,96.0,-66.0,127.0,127.0,127.0,-110.0,-89.0,110.0
126.0,131.0,127.0,128.0,126.0,127.0,126.0,123.0,-1.0,96.0,-66.0,127.0,127.0,127.0,-110.0,-89.0,110.0
126.0,132.0,127.0,128.0,126.0,127.0,126.0,123.0,-1.0,96.0,-66.0,127.0,127.0,127.0,-110.0,-89.0,110.0
126.0,131.0,127.0,128.0,126.0,127.0,126.0,123.0,-1.0,96.0,-66.0,127.0,127.0,127.0,-110.0,-89.0,110.0
126.0,132.0,127.0,128.0,126.0,127.0,126.0,123.0,-1.0,96.0,-66.0,127.0,127.0,127.0,-110.0,-89.0,110.0
126.0,132.0,127.0,128.0,126.0,127.0,127.0,123.0,-1.0,96.0,-66.0,127.0,127.0,127.0,-110.0,-89.0,110.0
126.0,131.0,127.0,128.0,127.0,126.0,127.0,123.0,-1.0,96.0,-66.0,127.0,127.0,127.0,-110.0,-89.0,110.0
126.0,131.0,127.0,127.0,126.0,126.0,128.0,123.0,-1.0,96.0,-65.0,127.0,127.0,127.0,-111.0,-89.0,110.0
126.0,131.0,127.0,127.0,126.0,127.0,127.0,123.0,-1.0,96.0,-65.0,127.0,127.0,127.0,-111.0,-89.0,110.0
126.0,132.0,127.0,127.0,126.0,127.0,127.0,123.0,-1.0,96.0,-65.0,127.0,127.0,127.0,-111.0,-89.0,110.0
126.0,132.0,127.0,127.0,126.0,127.0,127.0,123.0,-1.0,96.0,-65.0,127.0,127.0,127.0,-111.0,-89.0,110.0
126.0,131.0,127.0,127.0,126.0,127.0,128.0,123.0,-1.0,96.0,-65.0,127.0,127.0,127.0,-111.0,-89.0,110.0
126.0,131.0,127.0,127.0,126.0,127.0,128.0,123.0,-1.0,96.0,-65.0,127.0,127.0,127.0,-111.0,-89.0,110.0
126.0,131.0,127.0,127.0,126.0,126.0,128.0,123.0,-1.0,96.0,-65.0,127.0,127.0,127.0,-111.0,-89.0,110.0
126.0,131.0,127.0,127.0,126.0,126.0,128.0,123.0,-1.0,96.0,-65.0,127.0,127.0,127.0,-111.0,-89.0,110.0
126.0,131.0,127.0,127.0,126.0,126.0,128.0,123.0,-1.0,96.0,-65.0,127.0,127.0,127.0,-111.0,-89.0,110.0
126.0,131.0,127.0,127.0,126.0,126.0,128.0,123.0,-1.0,96.0,-65.0,127.0,127.0,127.0,-111.0,-89.0,110.0
126.0,131.0,127.0,127.0,126.0,127.0,127.0,123.0,-1.0,96.0,-65.0,127.0,127.0,127.0,-111.0,-89.0,110.0
126.0,131.0,127.0,127.0,126.0,127.0,127.0,123.0,-1.0,96.0,-65.0,127.0,127.0,127.0,-111.0,-89.0,110.0
126.0,131.0,127.0,127.0,126.0,127.0,127.0,123.0,-1.0,96.0,-65.0,127.0,127.0,127.0,-111.0,-89.0,110.0
126.0,131.0,127.0,127.0,126.0,127.0,127.0,123.0,-1.0,96.0,-65.0,127.0,127.0,127.0,-111.0,-89.0,110.0
126.0,131.0,127.0,127.0,126.0,127.0,127.0,123.0,-1.0,96.0,-65.0,127.0,127.0,127.0,-111.0,-89.0,110.0
126.0,131.0,127.0,127.0,126.0,127.0,127.0,123.0,-1.0,96.0,-65.0,127.0,127.0,127.0,-111.0,-89.0,110.0
126.0,131.0,127.0,127.0,126.0,127.0,127.0,123.0,-1.0,96.0,-65.0,127.0,127.0,127.0,-111.0,-89.0,110.0
126.0,131.0,127.0,127.0,126.0,127.0,127.0,123.0,-1.0,96.0,-65.0,127.0,127.0,127.0,-111.0,-89.0,110.0
126.0,131.0,127.0,127.0,126.0,126.0,127.0,123.0,-1.0,96.0,-65.0,127.0,127.0,127.0,-111.0,-89.0,110.0
126.0,131.0,127.0,127.0,126.0,127.0,128.0,123.0,-1.0,96.0,-65.0,127.0,127.0,127.0,-111.0,-89.0,110.0
126.0,131.0,126.0,127.0,126.0,127.0,126.0,124.0,-1.0,96.0,-65.0,127.0,127.0,127.0,-111.0,-89.0,110.0
127.0,131.0,127.0,127.0,126.0,128.0,126.0,124.0,-1.0,96.0,-65.0,127.0,127.0,127.0,-111.0,-89.0,110.0
126.0,131.0,127.0,127.0,126.0,127.0,127.0,124.0,-1.0,96.0,-65.0,127.0,127.0,127.0,-111.0,-89.0,110.0
126.0,131.0,127.0,127.0,126.0,127.0,127.0,124.0,-1.0,96.0,-65.0,127.0,127.0,127.0,-111.0,-89.0,110.0
126.0,131.0,127.0,127.0,126.0,127.0,127.0,124.0,-1.0,96.0,-65.0,127.0,127.0,127.0,-111.0,-89.0,110.0
126.0,131.0,127.0,127.0,126.0,127.0,127.0,124.0,-1.0,96.0,-65.0,127.0,127.0,127.0,-111.0,-89.0,110.0
126.0,131.0,127.0,127.0,126.0,127.0,127.0,124.0,-1.0,96.0,-65.0,127.0,127.0,127.0,-111.0,-89.0,110.0
126.0,130.0,127.0,127.0,126.0,127.0,127.0,124.0,-1.0,96.0,-65.0,127.0,127.0,127.0,-111.0,-89.0,110.0
126.0,130.0,127.0,127.0,126.0,127.0,127.0,124.0,-1.0,96.0,-65.0,127.0,127.0,127.0,-111.0,-89.0,110.0
126.0,131.0,126.0,127.0,126.0,127.0,126.0,124.0,-1.0,96.0,-65.0,127.0,127.0,127.0,-111.0,-89.0,110.0
127.0,131.0,126.0,127.0,125.0,127.0,128.0,124.0,-1.0,96.0,-66.0,127.0,127.0,127.0,-112.0,-89.0,110.0
127.0,131.0,126.0,127.0,125.0,128.0,128.0,124.0,-1.0,96.0,-66.0,127.0,127.0,127.0,-112.0,-89.0,110.0
127.0,131.0,126.0,127.0,125.0,128.0,127.0,125.0,-1.0,96.0,-66.0,127.0,127.0,127.0,-112.0,-89.0,110.0
127.0,131.0,126.0,127.0,125.0,128.0,128.0,125.0,-1.0,96.0,-66.0,127.0,127.0,127.0,-112.0,-89.0,110.0
127.0,131.0,126.0,127.0,126.0,128.0,128.0,124.0,-1.0,96.0,-66.0,127.0,127.0,127.0,-112.0,-89.0,110.0
127.0,131.0,126.0,127.0,126.0,127.0,128.0,124.0,-1.0,96.0,-66.0,127.0,127.0,127.0,-112.0,-89.0,110.0
127.0,131.0,126.0,127.0,126.0,128.0,128.0,124.0,-1.0,96.0,-66.0,127.0,127.0,127.0,-112.0,-89.0,110.0
127.0,131.0,127.0,126.0,126.0,127.0,129.0,124.0,-1.0,96.0,-66.0,127.0,127.0,127.0,-112.0,-89.0,110.0
127.0,131.0,126.0,127.0,125.0,127.0,128.0,124.0,-1.0,96.0,-66.0,127.0,127.0,127.0,-112.0,-89.0,110.0
127.0,131.0,126.0,127.0,125.0,128.0,128.0,124.0,-1.0,96.0,-66.0,127.0,127.0,127.0,-112.0,-89.0,110.0
127.0,131.0,127.0,127.0,126.0,127.0,127.0,125.0,-1.0,96.0,-66.0,127.0,127.0,127.0,-112.0,-89.0,110.0
127.0,131.0,127.0,127.0,126.0,127.0,127.0,125.0,-1.0,96.0,-66.0,127.0,127.0,127.0,-112.0,-89.0,110.0
127.0,131.0,127.0,127.0,126.0,127.0,127.0,125.0,-1.0,96.0,-66.0,127.0,127.0,127.0,-112.0,-89.0,110.0
127.0,131.0,127.0,127.0,126.0,127.0,127.0,125.0,-1.0,96.0,-66.0,127.0,127.0,127.0,-112.0,-89.0,110.0
127.0,131.0,127.0,127.0,126.0,128.0,127.0,125.0,-1.0,96.0,-66.0,127.0,127.0,127.0,-112.0,-89.0,110.0
127.0,131.0,127.0,127.0,126.0,128.0,127.0,125.0,-1.0,96.0,-66.0,127.0,127.0,127.0,-112.0,-89.0,110.0
127.0,131.0,127.0,127.0,126.0,127.0,128.0,125.0,-1.0,96.0,-66.0,127.0,127.0,127.0,-112.0,-89.0,110.0
127.0,131.0,127.0,127.0,126.0,127.0,127.0,125.0,-1.0,96.0,-66.0,127.0,127.0,127.0,-112.0,-89.0,110.0
127.0,131.0,127.0,127.0,126.0,128.0,127.0,125.0,-1.0,96.0,-66.0,127.0,127.0,127.0,-112.0,-89.0,110.0
127.0,131.0,127.0,127.0,126.0,128.0,127.0,125.0,-1.0,96.0,-66.0,127.0,127.0,127.0,-112.0,-89.0,110.0
127.0,130.0,127.0,126.0,127.0,127.0,127.0,125.0,-1.0,97.0,-66.0,127.0,127.0,127.0,-112.0,-89.0,110.0
127.0,130.0,127.0,126.0,126.0,127.0,127.0,125.0,-1.0,97.0,-66.0,127.0,127.0,127.0,-112.0,-89.0,110.0
127.0,130.0,127.0,126.0,126.0,127.0,127.0,125.0,-1.0,97.0,-66.0,127.0,127.0,127.0,-112.0,-89.0,110.0
127.0,130.0,127.0,126.0,126.0,128.0,126.0,125.0,-1.0,97.0,-66.0,127.0,127.0,127.0,-112.0,-89.0,110.0
127.0,131.0,127.0,126.0,126.0,128.0,126.0,125.0,-1.0,97.0,-66.0,127.0,127.0,127.0,-112.0,-89.0,110.0
127.0,130.0,127.0,126.0,127.0,127.0,127.0,125.0,-1.0,97.0,-66.0,127.0,127.0,127.0,-112.0,-89.0,110.0
127.0,130.0,127.0,126.0,126.0,127.0,127.0,125.0,-1.0,97.0,-66.0,127.0,127.0,127.0,-112.0,-89.0,110.0
127.0,130.0,127.0,126.0,126.0,128.0,127.0,125.0,-1.0,97.0,-66.0,127.0,127.0,127.0,-112.0,-89.0,110.0
127.0,130.0,127.0,126.0,126.0,128.0,127.0,125.0,-1.0,97.0,-66.0,127.0,127.0,127.0,-112.0,-89.0,110.0
127.0,130.0,127.0,126.0,126.0,127.0,127.0,125.0,-1.0,97.0,-66.0,127.0,127.0,127.0,-112.0,-89.0,110.0
126.0,130.0,128.0,126.0,127.0,127.0,127.0,124.0,-1.0,97.0,-66.0,127.0,127.0,127.0,-113.0,-89.0,110.0
126.0,130.0,128.0,126.0,127.0,127.0,127.0,124.0,-1.0,97.0,-66.0,127.0,127.0,127.0,-113.0,-89.0,110.0
126.0,130.0,128.0,126.0,127.0,127.0,127.0,124.0,-1.0,97.0,-66.0,127.0,127.0,127.0,-113.0,-89.0,110.0
126.0,130.0,127.0,126.0,126.0,127.0,127.0,124.0,-1.0,97.0,-66.0,127.0,127.0,127.0,-113.0,-89.0,110.0
126.0,130.0,127.0,126.0,127.0,127.0,127.0,124.0,-1.0,97.0,-66.0,127.0,127.0,127.0,-113.0,-89.0,110.0
126.0,130.0,128.0,126.0,127.0,127.0,127.0,124.0,-1.0,97.0,-66.0,127.0,127.0,127.0,-113.0,-89.0,110.0
126.0,130.0,128.0,126.0,127.0,127.0,127.0,124.0,-1.0,97.0,-66.0,127.0,127.0,127.0,-113.0,-89.0,110.0
126.0,130.0,128.0,126.0,127.0,127.0,127.0,124.0,-1.0,97.0,-66.0,127.0,127.0,127.0,-113.0,-89.0,110.0
126.0,130.0,128.0,126.0,127.0,127.0,127.0,124.0,-1.0,97.0,-66.0,127.0,127.0,127.0,-113.0,-89.0,110.0
126.0,130.0,128.0,126.0,127.0,127.0,127.0,124.0,-1.0,97.0,-66.0,127.0,127.0,127.0,-113.0,-89.0,110.0
126.0,130.0,127.0,127.0,126.0,127.0,126.0,124.0,-1.0,97.0,-66.0,127.0,127.0,127.0,-113.0,-89.0,110.0
126.0,130.0,127.0,127.0,126.0,128.0,126.0,124.0,-1.0,97.0,-66.0,127.0,127.0,127.0,-113.0,-89.0,110.0
126.0,130.0,127.0,127.0,127.0,126.0,127.0,124.0,-1.0,97.0,-66.0,127.0,127.0,127.0,-113.0,-89.0,110.0
126.0,130.0,127.0,127.0,126.0,126.0,127.0,124.0,-1.0,97.0,-66.0,127.0,127.0,127.0,-113.0,-89.0,110.0
126.0,130.0,127.0,127.0,126.0,126.0,127.0,124.0,-1.0,97.0,-66.0,127.0,127.0,127.0,-113.0,-89.0,110.0
126.0,130.0,127.0,127.0,126.0,127.0,126.0,124.0,-1.0,97.0,-66.0,127.0,127.0,127.0,-113.0,-89.0,110.0
126.0,130.0,127.0,127.0,126.0,127.0,126.0,124.0,-1.0,97.0,-66.0,127.0,127.0,127.0,-113.0,-89.0,110.0
126.0,130.0,127.0,127.0,126.0,127.0,126.0,124.0,-1.0,97.0,-66.0,127.0,127.0,127.0,-113.0,-89.0,110.0
126.0,130.0,127.0,127.0,126.0,127.0,126.0,124.0,-1.0,97.0,-66.0,127.0,127.0,127.0,-113.0,-89.0,110.0
126.0,130.0,127.0,127.0,127.0,127.0,126.0,124.0,-1.0,97.0,-66.0,127.0,127.0,127.0,-113.0,-89.0,110.0
126.0,130.0,127.0,128.0,126.0,127.0,125.0,124.0,-1.0,97.0,-66.0,127.0,127.0,127.0,-113.0,-89.0,110.0
126.0,130.0,127.0,127.0,126.0,126.0,126.0,124.0,-1.0,97.0,-66.0,127.0,127.0,127.0,-113.0,-89.0,110.0
126.0,130.0,127.0,127.0,126.0,126.0,126.0,124.0,-1.0,97.0,-66.0,127.0,127.0,127.0,-113.0,-89.0,110.0
126.0,130.0,127.0,127.0,126.0,126.0,126.0,124.0,-1.0,97.0,-66.0,127.0,127.0,127.0,-113.0,-89.0,110.0
126.0,130.0,127.0,127.0,126.0,127.0,126.0,124.0,-1.0,97.0,-66.0,127.0,127.0,127.0,-113.0,-89.0,110.0
126.0,130.0,127.0,127.0,126.0,127.0,125.0,124.0,-1.0,97.0,-66.0,127.0,127.0,127.0,-113.0,-89.0,110.0
126.0,130.0,127.0,127.0,126.0,127.0,125.0,124.0,-1.0,97.0,-66.0,127.0,127.0,127.0,-113.0,-89.0,110.0
126.0,130.0,127.0,127.0,126.0,127.0,126.0,124.0,-1.0,97.0,-66.0,127.0,127.0,127.0,-113.0,-89.0,110.0
126.0,130.0,127.0,127.0,126.0,127.0,125.0,124.0,-1.0,97.0,-66.0,127.0,127.0,127.0,-113.0,-89.0,110.0
126.0,130.0,127.0,127.0,126.0,127.0,125.0,124.0,-1.0,97.0,-66.0,127.0,127.0,127.0,-113.0,-89.0,110.0
126.0,130.0,127.0,128.0,127.0,126.0,127.0,124.0,-1.0,98.0,-67.0,127.0,127.0,127.0,-113.0,-89.0,110.0
126.0,130.0,127.0,128.0,127.0,127.0,127.0,124.0,-1.0,98.0,-67.0,127.0,127.0,127.0,-113.0,-89.0,110.0
126.0,130.0,127.0,128.0,127.0,127.0,126.0,124.0,-1.0,98.0,-67.0,127.0,127.0,127.0,-113.0,-89.0,110.0
126.0,130.0,127.0,128.0,126.0,127.0,126.0,124.0,-1.0,98.0,-67.0,127.0,127.0,127.0,-113.0,-89.0,110.0
126.0,130.0,127.0,128.0,126.0,128.0,126.0,124.0,-1.0,98.0,-67.0,127.0,127.0,127.0,-113.0,-89.0,110.0
126.0,130.0,127.0,128.0,126.0,127.0,126.0,124.0,-1.0,98.0,-67.0,127.0,127.0,127.0,-113.0,-89.0,110.0
126.0,130.0,127.0,128.0,126.0,127.0,126.0,124.0,-1.0,98.0,-67.0,127.0,127.0,127.0,-113.0,-89.0,110.0
126.0,130.0,127.0,128.0,126.0,127.0,126.0,124.0,-1.0,98.0,-67.0,127.0,127.0,127.0,-113.0,-89.0,110.0
126.0,130.0,127.0,128.0,126.0,127.0,126.0,124.0,-1.0,98.0,-67.0,127.0,127.0,127.0,-113.0,-89.0,110.0
126.0,130.0,127.0,128.0,126.0,128.0,126.0,124.0,-1.0,98.0,-67.0,127.0,127.0,127.0,-113.0,-89.0,110.0
126.0,130.0,127.0,127.0,127.0,127.0,127.0,124.0,-1.0,98.0,-67.0,127.0,127.0,127.0,-113.0,-89.0,110.0
126.0,130.0,127.0,127.0,127.0,127.0,127.0,124.0,-1.0,98.0,-67.0,127.0,127.0,127.0,-113.0,-89.0,110.0
126.0,130.0,127.0,127.0,126.0,127.0,126.0,124.0,-1.0,98.0,-67.0,127.0,127.0,127.0,-113.0,-89.0,110.0
126.0,130.0,127.0,127.0,126.0,128.0,126.0,124.0,-1.0,98.0,-67.0,127.0,127.0,127.0,-113.0,-89.0,110.0
126.0,130.0,127.0,128.0,126.0,127.0,126.0,124.0,-1.0,98.0,-67.0,127.0,127.0,127.0,-113.0,-89.0,110.0
126.0,130.0,127.0,127.0,126.0,127.0,126.0,124.0,-1.0,98.0,-67.0,127.0,127.0,127.0,-113.0,-89.0,110.0
126.0,130.0,127.0,128.0,126.0,127.0,126.0,124.0,-1.0,98.0,-67.0,127.0,127.0,127.0,-113.0,-89.0,110.0
126.0,130.0,127.0,127.0,126.0,127.0,126.0,124.0,-1.0,98.0,-67.0,127.0,127.0,127.0,-113.0,-89.0,110.0
126.0,130.0,127.0,127.0,126.0,127.0,126.0,124.0,-1.0,98.0,-67.0,127.0,127.0,127.0,-113.0,-89.0,110.0
126.0,130.0,127.0,127.0,127.0,127.0,127.0,124.0,-1.0,98.0,-67.0,127.0,127.0,127.0,-113.0,-89.0,110.0
126.0,130.0,127.0,127.0,127.0,127.0,127.0,124.0,-1.0,99.0,-66.0,127.0,127.0,127.0,-113.0,-89.0,110.0
126.0,130.0,127.0,127.0,127.0,128.0,127.0,124.0,-1.0,99.0,-66.0,127.0,127.0,127.0,-113.0,-89.0,110.0
126.0,130.0,127.0,128.0,126.0,128.0,126.0,124.0,-1.0,99.0,-66.0,127.0,127.0,127.0,-113.0,-89.0,110.0
126.0,130.0,127.0,128.0,127.0,128.0,126.0,124.0,-1.0,99.0,-66.0,127.0,127.0,127.0,-113.0,-89.0,110.0
126.0,130.0,127.0,128.0,127.0,128.0,127.0,124.0,-1.0,99.0,-66.0,127.0,127.0,127.0,-113.0,-89.0,110.0
126.0,130.0,127.0,127.0,127.0,128.0,127.0,124.0,-1.0,99.0,-66.0,127.0,127.0,127.0,-113.0,-89.0,110.0
126.0,130.0,127.0,127.0,127.0,127.0,126.0,124.0,-1.0,99.0,-66.0,127.0,127.0,127.0,-113.0,-89.0,110.0
126.0,130.0,127.0,127.0,127.0,127.0,126.0,124.0,-1.0,99.0,-66.0,127.0,127.0,127.0,-113.0,-89.0,110.0
126.0,130.0,127.0,127.0,127.0,127.0,128.0,124.0,-1.0,99.0,-66.0,127.0,127.0,127.0,-113.0,-89.0,110.0
126.0,130.0,127.0,127.0,127.0,127.0,127.0,124.0,-1.0,99.0,-66.0,127.0,127.0,127.0,-113.0,-89.0,110.0
126.0,130.0,127.0,127.0,126.0,127.0,125.0,124.0,-1.0,99.0,-66.0,127.0,127.0,127.0,-113.0,-89.0,110.0
126.0,130.0,127.0,128.0,126.0,128.0,125.0,124.0,-1.0,99.0,-66.0,127.0,127.0,127.0,-113.0,-89.0,110.0
126.0,130.0,127.0,128.0,126.0,128.0,125.0,124.0,-1.0,99.0,-66.0,127.0,127.0,127.0,-113.0,-89.0,110.0
126.0,130.0,127.0,128.0,126.0,128.0,125.0,124.0,-1.0,99.0,-66.0,127.0,127.0,127.0,-113.0,-89.0,110.0
126.0,130.0,127.0,128.0,126.0,127.0,125.0,124.0,-1.0,99.0,-66.0,127.0,127.0,127.0,-113.0,-89.0,110.0
126.0,130.0,127.0,128.0,126.0,128.0,125.0,124.0,-1.0,99.0,-66.0,127.0,127.0,127.0,-113.0,-89.0,110.0
126.0,130.0,127.0,128.0,126.0,128.0,125.0,124.0,-1.0,99.0,-66.0,127.0,127.0,127.0,-113.0,-89.0,110.0
126.0,130.0,127.0,127.0,127.0,127.0,126.0,124.0,-1.0,99.0,-66.0,127.0,127.0,127.0,-113.0,-89.0,110.0
126.0,130.0,127.0,127.0,127.0,127.0,126.0,124.0,-1.0,99.0,-66.0,127.0,127.0,127.0,-113.0,-89.0,110.0
126.0,130.0,127.0,127.0,127.0,127.0,126.0,124.0,-1.0,99.0,-66.0,127.0,127.0,127.0,-113.0,-89.0,110.0
126.0,130.0,127.0,128.0,126.0,128.0,124.0,124.0,-1.0,99.0,-66.0,127.0,127.0,127.0,-114.0,-89.0,110.0
126.0,130.0,127.0,128.0,126.0,128.0,124.0,124.0,-1.0,99.0,-66.0,127.0,127.0,127.0,-114.0,-89.0,110.0
126.0,130.0,127.0,128.0,127.0,128.0,125.0,124.0,-1.0,99.0,-66.0,127.0,127.0,127.0,-114.0,-89.0,110.0
126.0,130.0,127.0,128.0,127.0,128.0,125.0,124.0,-1.0,99.0,-66.0,127.0,127.0,127.0,-114.0,-89.0,110.0
126.0,129.0,127.0,128.0,127.0,128.0,125.0,124.0,-1.0,99.0,-66.0,127.0,127.0,127.0,-114.0,-89.0,110.0
126.0,129.0,127.0,128.0,127.0,128.0,125.0,124.0,-1.0,99.0,-66.0,127.0,127.0,127.0,-114.0,-89.0,110.0
126.0,130.0,127.0,127.0,127.0,127.0,125.0,124.0,-1.0,99.0,-66.0,127.0,127.0,127.0,-114.0,-89.0,110.0
126.0,129.0,127.0,128.0,127.0,127.0,125.0,124.0,-1.0,99.0,-66.0,127.0,127.0,127.0,-114.0,-89.0,110.0
126.0,129.0,127.0,128.0,127.0,127.0,125.0,124.0,-1.0,99.0,-66.0,127.0,127.0,127.0,-114.0,-89.0,110.0
126.0,129.0,127.0,128.0,126.0,128.0,125.0,124.0,-1.0,99.0,-66.0,127.0,127.0,127.0,-114.0,-89.0,110.0
126.0,129.0,127.0,127.0,126.0,127.0,125.0,124.0,-1.0,99.0,-66.0,127.0,127.0,127.0,-114.0,-89.0,110.0
126.0,129.0,127.0,127.0,126.0,127.0,126.0,124.0,-1.0,99.0,-66.0,127.0,127.0,127.0,-114.0,-89.0,110.0
126.0,129.0,127.0,127.0,126.0,127.0,126.0,124.0,-1.0,99.0,-66.0,127.0,127.0,127.0,-114.0,-89.0,110.0
126.0,129.0,127.0,127.0,126.0,127.0,126.0,124.0,-1.0,99.0,-66.0,127.0,127.0,127.0,-114.0,-89.0,110.0
126.0,129.0,127.0,127.0,126.0,127.0,126.0,124.0,-1.0,99.0,-66.0,127.0,127.0,127.0,-114.0,-89.0,110.0
126.0,129.0,127.0,128.0,126.0,127.0,125.0,124.0,-1.0,99.0,-66.0,127.0,127.0,127.0,-114.0,-89.0,110.0
126.0,129.0,127.0,127.0,127.0,127.0,126.0,124.0,-1.0,99.0,-66.0,127.0,127.0,127.0,-114.0,-89.0,110.0
126.0,129.0,127.0,127.0,126.0,127.0,125.0,124.0,-1.0,99.0,-66.0,127.0,127.0,127.0,-114.0,-89.0,110.0
126.0,129.0,127.0,127.0,126.0,127.0,126.0,124.0,-1.0,99.0,-66.0,127.0,127.0,127.0,-114.0,-89.0,110.0
126.0,129.0,127.0,127.0,126.0,127.0,126.0,124.0,-1.0,99.0,-66.0,127.0,127.0,127.0,-114.0,-89.0,110.0
126.0,129.0,127.0,128.0,126.0,128.0,125.0,124.0,-1.0,99.0,-66.0,127.0,127.0,127.0,-114.0,-89.0,110.0
126.0,129.0,127.0,128.0,126.0,128.0,125.0,124.0,-1.0,99.0,-66.0,127.0,127.0,127.0,-114.0,-89.0,110.0
126.0,130.0,127.0,128.0,126.0,128.0,125.0,124.0,-1.0,99.0,-66.0,127.0,127.0,127.0,-114.0,-89.0,110.0
126.0,129.0,127.0,128.0,126.0,128.0,126.0,124.0,-1.0,99.0,-66.0,127.0,127.0,127.0,-114.0,-89.0,110.0
126.0,129.0,127.0,128.0,126.0,127.0,126.0,124.0,-1.0,99.0,-66.0,127.0,127.0,127.0,-114.0,-89.0,110.0
126.0,130.0,127.0,128.0,126.0,128.0,125.0,124.0,-1.0,99.0,-66.0,127.0,127.0,127.0,-114.0,-89.0,110.0
126.0,130.0,127.0,128.0,126.0,128.0,125.0,124.0,-1.0,99.0,-66.0,127.0,127.0,127.0,-114.0,-89.0,110.0
126.0,130.0,127.0,128.0,126.0,128.0,125.0,124.0,-1.0,99.0,-66.0,127.0,127.0,127.0,-114.0,-89.0,110.0
126.0,130.0,127.0,128.0,126.0,128.0,125.0,124.0,-1.0,99.0,-66.0,127.0,127.0,127.0,-114.0,-89.0,110.0
126.0,130.0,127.0,128.0,126.0,128.0,125.0,124.0,-1.0,99.0,-66.0,127.0,127.0,127.0,-114.0,-89.0,110.0
126.0,130.0,127.0,128.0,126.0,128.0,127.0,124.0,-1.0,99.0,-66.0,127.0,127.0,127.0,-114.0,-89.0,110.0
126.0,130.0,127.0,128.0,126.0,128.0,127.0,124.0,-1.0,99.0,-66.0,127.0,127.0,127.0,-114.0,-89.0,110.0
126.0,130.0,127.0,128.0,126.0,128.0,127.0,124.0,-1.0,99.0,-66.0,127.0,127.0,127.0,-114.0,-89.0,110.0
126.0,129.0,128.0,128.0,126.0,127.0,128.0,124.0,-1.0,99.0,-66.0,127.0,127.0,127.0,-114.0,-89.0,110.0
126.0,130.0,127.0,128.0,126.0,127.0,127.0,124.0,-1.0,99.0,-66.0,127.0,127.0,127.0,-114.0,-89.0,110.0
126.0,130.0,127.0,128.0,126.0,127.0,127.0,124.0,-1.0,99.0,-66.0,127.0,127.0,127.0,-114.0,-89.0,110.0
126.0,130.0,128.0,128.0,126.0,127.0,127.0,124.0,-1.0,99.0,-66.0,127.0,127.0,127.0,-114.0,-89.0,110.0
126.0,129.0,128.0,128.0,126.0,127.0,127.0,124.0,-1.0,99.0,-66.0,127.0,127.0,127.0,-114.0,-89.0,110.0
126.0,129.0,128.0,128.0,126.0,127.0,127.0,124.0,-1.0,99.0,-66.0,127.0,127.0,127.0,-114.0,-89.0,110.0
126.0,130.0,128.0,128.0,126.0,127.0,128.0,124.0,-1.0,99.0,-66.0,127.0,127.0,127.0,-114.0,-89.0,110.0
126.0,130.0,127.0,128.0,125.0,128.0,127.0,124.0,-1.0,99.0,-66.0,127.0,127.0,127.0,-115.0,-89.0,110.0
126.0,130.0,127.0,128.0,125.0,128.0,127.0,124.0,-1.0,99.0,-66.0,127.0,127.0,127.0,-115.0,-89.0,110.0
126.0,129.0,127.0,128.0,126.0,127.0,128.0,124.0,-1.0,99.0,-66.0,127.0,127.0,127.0,-115.0,-89.0,110.0
126.0,130.0,127.0,128.0,125.0,128.0,127.0,124.0,-1.0,99.0,-66.0,127.0,127.0,127.0,-115.0,-89.0,110.0
126.0,130.0,127.0,129.0,125.0,128.0,127.0,124.0,-1.0,99.0,-66.0,127.0,127.0,127.0,-115.0,-89.0,110.0
126.0,130.0,127.0,128.0,125.0,128.0,127.0,124.0,-1.0,99.0,-66.0,127.0,127.0,127.0,-115.0,-89.0,110.0
126.0,130.0,127.0,128.0,125.0,128.0,127.0,124.0,-1.0,99.0,-66.0,127.0,127.0,127.0,-115.0,-89.0,110.0
126.0,130.0,127.0,128.0,125.0,127.0,127.0,124.0,-1.0,99.0,-66.0,127.0,127.0,127.0,-115.0,-89.0,110.0
126.0,130.0,127.0,128.0,126.0,127.0,127.0,124.0,-1.0,99.0,-66.0,127.0,127.0,127.0,-115.0,-89.0,110.0
126.0,130.0,127.0,128.0,125.0,128.0,127.0,124.0,-1.0,99.0,-66.0,127.0,127.0,127.0,-115.0,-89.0,110.0
127.0,130.0,127.0,129.0,127.0,128.0,125.0,124.0,-1.0,99.0,-66.0,127.0,127.0,127.0,-115.0,-89.0,110.0
126.0,129.0,127.0,128.0,127.0,127.0,126.0,124.0,-1.0,99.0,-66.0,127.0,127.0,127.0,-115.0,-89.0,110.0
126.0,130.0,127.0,128.0,127.0,128.0,126.0,124.0,-1.0,99.0,-66.0,127.0,127.0,127.0,-115.0,-89.0,110.0
127.0,130.0,127.0,128.0,127.0,128.0,126.0,124.0,-1.0,99.0,-66.0,127.0,127.0,127.0,-115.0,-89.0,110.0
127.0,130.0,127.0,128.0,127.0,128.0,126.0,124.0,-1.0,99.0,-66.0,127.0,127.0,127.0,-115.0,-89.0,110.0
127.0,130.0,127.0,128.0,127.0,128.0,126.0,124.0,-1.0,99.0,-66.0,127.0,127.0,127.0,-115.0,-89.0,110.0
127.0,130.0,127.0,128.0,127.0,128.0,126.0,124.0,-1.0,99.0,-66.0,127.0,127.0,127.0,-115.0,-89.0,110.0
127.0,130.0,127.0,128.0,127.0,128.0,126.0,124.0,-1.0,99.0,-66.0,127.0,127.0,127.0,-115.0,-89.0,110.0
127.0,130.0,127.0,128.0,127.0,128.0,126.0,124.0,-1.0,99.0,-66.0,127.0,127.0,127.0,-115.0,-89.0,110.0
127.0,130.0,127.0,129.0,127.0,129.0,125.0,124.0,-1.0,99.0,-66.0,127.0,127.0,127.0,-115.0,-89.0,110.0
126.0,129.0,127.0,128.0,128.0,127.0,125.0,123.0,-1.0,99.0,-66.0,127.0,127.0,127.0,-115.0,-89.0,110.0
126.0,129.0,127.0,128.0,127.0,128.0,125.0,124.0,-1.0,99.0,-66.0,127.0,127.0,127.0,-115.0,-89.0,110.0
126.0,129.0,127.0,128.0,127.0,128.0,124.0,124.0,-1.0,99.0,-66.0,127.0,127.0,127.0,-115.0,-89.0,110.0
126.0,129.0,127.0,128.0,127.0,128.0,124.0,124.0,-1.0,99.0,-66.0,127.0,127.0,127.0,-115.0,-89.0,110.0
126.0,129.0,127.0,128.0,127.0,128.0,124.0,124.0,-1.0,99.0,-66.0,127.0,127.0,127.0,-115.0,-89.0,110.0
126.0,129.0,127.0,128.0,127.0,127.0,124.0,124.0,-1.0,99.0,-66.0,127.0,127.0,127.0,-115.0,-89.0,110.0
126.0,129.0,127.0,128.0,127.0,127.0,124.0,124.0,-1.0,99.0,-66.0,127.0,127.0,127.0,-115.0,-89.0,110.0
126.0,129.0,127.0,128.0,127.0,127.0,124.0,124.0,-1.0,99.0,-66.0,127.0,127.0,127.0,-115.0,-89.0,110.0
