emg1,emg2,emg3,emg4,emg5,emg6,emg7,emg8,acc_x,acc_y,acc_z,gyro_x,gyro_y,gyro_z,angle_pitch,angle_roll,angle_yaw
131.0,136.0,126.0,125.0,127.0,127.0,125.0,130.0,21.0,-93.0,-86.0,127.0,127.0,127.0,94.0,85.0,-77.0
131.0,136.0,126.0,125.0,127.0,126.0,124.0,130.0,21.0,-93.0,-86.0,127.0,127.0,127.0,94.0,85.0,-77.0
131.0,136.0,127.0,125.0,127.0,126.0,125.0,129.0,21.0,-93.0,-86.0,127.0,127.0,127.0,94.0,85.0,-77.0
131.0,136.0,127.0,125.0,127.0,126.0,125.0,129.0,21.0,-93.0,-86.0,127.0,127.0,127.0,94.0,85.0,-77.0
131.0,134.0,127.0,125.0,127.0,126.0,125.0,128.0,21.0,-93.0,-86.0,127.0,127.0,127.0,94.0,85.0,-77.0
131.0,135.0,126.0,126.0,128.0,127.0,128.0,130.0,21.0,-93.0,-86.0,127.0,127.0,127.0,94.0,85.0,-77.0
131.0,136.0,126.0,125.0,128.0,127.0,127.0,130.0,21.0,-93.0,-86.0,127.0,127.0,127.0,94.0,85.0,-77.0
131.0,136.0,126.0,126.0,128.0,127.0,126.0,131.0,21.0,-93.0,-86.0,127.0,127.0,127.0,94.0,85.0,-77.0
130.0,130.0,124.0,126.0,127.0,127.0,124.0,130.0,21.0,-93.0,-87.0,127.0,127.0,127.0,94.0,85.0,-77.0
130.0,130.0,124.0,126.0,127.0,127.0,124.0,130.0,21.0,-93.0,-87.0,127.0,127.0,127.0,94.0,85.0,-77.0
130.0,130.0,124.0,126.0,127.0,127.0,124.0,130.0,21.0,-93.0,-87.0,127.0,127.0,127.0,94.0,85.0,-77.0
130.0,129.0,124.0,126.0,127.0,127.0,124.0,130.0,21.0,-93.0,-87.0,127.0,127.0,127.0,94.0,85.0,-77.0
130.0,129.0,125.0,126.0,127.0,127.0,124.0,130.0,21.0,-93.0,-87.0,127.0,127.0,127.0,94.0,85.0,-77.0
131.0,129.0,125.0,126.0,127.0,127.0,124.0,130.0,21.0,-93.0,-87.0,127.0,127.0,127.0,94.0,85.0,-77.0
130.0,131.0,124.0,125.0,127.0,127.0,124.0,129.0,21.0,-93.0,-87.0,127.0,127.0,127.0,94.0,85.0,-77.0
130.0,131.0,124.0,125.0,127.0,127.0,124.0,129.0,21.0,-93.0,-87.0,127.0,127.0,127.0,94.0,85.0,-77.0
130.0,130.0,124.0,126.0,127.0,127.0,124.0,129.0,21.0,-93.0,-87.0,127.0,127.0,127.0,94.0,85.0,-77.0
130.0,130.0,124.0,126.0,127.0,127.0,124.0,129.0,21.0,-93.0,-87.0,127.0,127.0,127.0,94.0,85.0,-77.0
131.0,133.0,126.0,125.0,127.0,126.0,131.0,129.0,20.0,-93.0,-87.0,127.0,127.0,127.0,94.0,85.0,-77.0
131.0,134.0,126.0,125.0,127.0,126.0,131.0,129.0,20.0,-93.0,-87.0,127.0,127.0,127.0,94.0,85.0,-77.0
131.0,135.0,126.0,125.0,127.0,126.0,130.0,129.0,20.0,-93.0,-87.0,127.0,127.0,127.0,94.0,85.0,-77.0
131.0,136.0,126.0,125.0,127.0,126.0,130.0,129.0,20.0,-93.0,-87.0,127.0,127.0,127.0,94.0,85.0,-77.0
130.0,131.0,126.0,126.0,127.0,126.0,130.0,128.0,20.0,-93.0,-87.0,127.0,127.0,127.0,94.0,85.0,-77.0
130.0,131.0,125.0,125.0,127.0,126.0,130.0,128.0,20.0,-93.0,-87.0,127.0,127.0,127.0,94.0,85.0,-77.0
130.0,132.0,125.0,125.0,127.0,126.0,131.0,129.0,20.0,-93.0,-87.0,127.0,127.0,127.0,94.0,85.0,-77.0
130.0,131.0,126.0,125.0,127.0,126.0,131.0,129.0,20.0,-93.0,-87.0,127.0,127.0,127.0,94.0,85.0,-77.0
130.0,132.0,126.0,125.0,127.0,126.0,131.0,129.0,20.0,-93.0,-87.0,127.0,127.0,127.0,94.0,85.0,-77.0
130.0,132.0,126.0,125.0,127.0,126.0,131.0,129.0,20.0,-93.0,-87.0,127.0,127.0,127.0,94.0,85.0,-77.0
131.0,132.0,124.0,124.0,125.0,127.0,121.0,128.0,20.0,-93.0,-87.0,127.0,127.0,127.0,94.0,85.0,-77.0
131.0,131.0,124.0,124.0,126.0,127.0,121.0,128.0,20.0,-93.0,-87.0,127.0,127.0,127.0,94.0,85.0,-77.0
131.0,131.0,124.0,124.0,126.0,127.0,121.0,128.0,20.0,-93.0,-87.0,127.0,127.0,127.0,94.0,85.0,-77.0
131.0,135.0,125.0,126.0,126.0,127.0,124.0,129.0,20.0,-93.0,-87.0,127.0,127.0,127.0,94.0,85.0,-77.0
131.0,135.0,125.0,126.0,126.0,127.0,123.0,129.0,20.0,-93.0,-87.0,127.0,127.0,127.0,94.0,85.0,-77.0
131.0,136.0,125.0,125.0,126.0,127.0,123.0,128.0,20.0,-93.0,-87.0,127.0,127.0,127.0,94.0,85.0,-77.0
131.0,136.0,125.0,125.0,126.0,127.0,122.0,128.0,20.0,-93.0,-87.0,127.0,127.0,127.0,94.0,85.0,-77.0
131.0,135.0,124.0,125.0,126.0,127.0,122.0,128.0,20.0,-93.0,-87.0,127.0,127.0,127.0,94.0,85.0,-77.0
131.0,134.0,124.0,125.0,126.0,127.0,122.0,128.0,20.0,-93.0,-87.0,127.0,127.0,127.0,94.0,85.0,-77.0
131.0,133.0,124.0,124.0,125.0,127.0,121.0,128.0,20.0,-93.0,-87.0,127.0,127.0,127.0,94.0,85.0,-77.0
131.0,131.0,128.0,125.0,127.0,126.0,127.0,128.0,20.0,-94.0,-87.0,127.0,127.0,127.0,94.0,85.0,-77.0
131.0,131.0,128.0,125.0,127.0,127.0,127.0,128.0,20.0,-94.0,-87.0,127.0,127.0,127.0,94.0,85.0,-77.0
130.0,130.0,126.0,125.0,126.0,127.0,124.0,127.0,20.0,-94.0,-87.0,127.0,127.0,127.0,94.0,85.0,-77.0
130.0,130.0,126.0,125.0,126.0,127.0,124.0,127.0,20.0,-94.0,-87.0,127.0,127.0,127.0,94.0,85.0,-77.0
130.0,130.0,126.0,125.0,126.0,126.0,125.0,128.0,20.0,-94.0,-87.0,127.0,127.0,127.0,94.0,85.0,-77.0
130.0,130.0,127.0,125.0,126.0,127.0,125.0,128.0,20.0,-94.0,-87.0,127.0,127.0,127.0,94.0,85.0,-77.0
130.0,130.0,127.0,125.0,126.0,126.0,126.0,128.0,20.0,-94.0,-87.0,127.0,127.0,127.0,94.0,85.0,-77.0
130.0,130.0,127.0,125.0,127.0,126.0,126.0,128.0,20.0,-94.0,-87.0,127.0,127.0,127.0,94.0,85.0,-77.0
130.0,130.0,127.0,125.0,127.0,126.0,127.0,128.0,20.0,-94.0,-87.0,127.0,127.0,127.0,94.0,85.0,-77.0
131.0,130.0,127.0,125.0,127.0,126.0,127.0,128.0,20.0,-94.0,-87.0,127.0,127.0,127.0,94.0,85.0,-77.0
131.0,130.0,128.0,126.0,128.0,127.0,126.0,129.0,20.0,-94.0,-87.0,127.0,127.0,127.0,94.0,85.0,-77.0
130.0,129.0,129.0,126.0,128.0,127.0,128.0,129.0,20.0,-94.0,-87.0,127.0,127.0,127.0,94.0,85.0,-77.0
131.0,129.0,129.0,127.0,128.0,127.0,128.0,129.0,20.0,-94.0,-87.0,127.0,127.0,127.0,94.0,85.0,-77.0
131.0,129.0,129.0,127.0,128.0,127.0,128.0,129.0,20.0,-94.0,-87.0,127.0,127.0,127.0,94.0,85.0,-77.0
131.0,129.0,129.0,127.0,128.0,127.0,128.0,129.0,20.0,-94.0,-87.0,127.0,127.0,127.0,94.0,85.0,-77.0
131.0,129.0,129.0,127.0,128.0,127.0,128.0,129.0,20.0,-94.0,-87.0,127.0,127.0,127.0,94.0,85.0,-77.0
130.0,130.0,128.0,127.0,128.0,126.0,128.0,129.0,20.0,-94.0,-87.0,127.0,127.0,127.0,94.0,85.0,-77.0
131.0,130.0,128.0,127.0,128.0,126.0,127.0,129.0,20.0,-94.0,-87.0,127.0,127.0,127.0,94.0,85.0,-77.0
131.0,130.0,128.0,127.0,128.0,126.0,127.0,129.0,20.0,-94.0,-87.0,127.0,127.0,127.0,94.0,85.0,-77.0
131.0,130.0,128.0,127.0,128.0,127.0,127.0,129.0,20.0,-94.0,-87.0,127.0,127.0,127.0,94.0,85.0,-77.0
130.0,128.0,127.0,126.0,127.0,127.0,128.0,129.0,20.0,-94.0,-87.0,127.0,127.0,127.0,94.0,85.0,-77.0
130.0,128.0,127.0,126.0,127.0,127.0,128.0,128.0,20.0,-94.0,-87.0,127.0,127.0,127.0,94.0,85.0,-77.0
130.0,128.0,127.0,126.0,127.0,127.0,128.0,128.0,20.0,-94.0,-87.0,127.0,127.0,127.0,94.0,85.0,-77.0
130.0,128.0,127.0,126.0,127.0,127.0,128.0,128.0,20.0,-94.0,-87.0,127.0,127.0,127.0,94.0,85.0,-77.0
130.0,128.0,127.0,126.0,127.0,127.0,129.0,128.0,20.0,-94.0,-87.0,127.0,127.0,127.0,94.0,85.0,-77.0
130.0,128.0,127.0,126.0,127.0,126.0,129.0,128.0,20.0,-94.0,-87.0,127.0,127.0,127.0,94.0,85.0,-77.0
130.0,128.0,127.0,126.0,128.0,127.0,130.0,128.0,20.0,-94.0,-87.0,127.0,127.0,127.0,94.0,85.0,-77.0
130.0,128.0,127.0,126.0,128.0,127.0,131.0,129.0,20.0,-94.0,-87.0,127.0,127.0,127.0,94.0,85.0,-77.0
130.0,128.0,128.0,126.0,128.0,127.0,131.0,129.0,20.0,-94.0,-87.0,127.0,127.0,127.0,94.0,85.0,-77.0
131.0,128.0,127.0,126.0,128.0,127.0,131.0,129.0,20.0,-94.0,-87.0,127.0,127.0,127.0,94.0,85.0,-77.0
130.0,130.0,127.0,127.0,128.0,127.0,125.0,128.0,19.0,-94.0,-87.0,127.0,127.0,127.0,94.0,85.0,-77.0
130.0,130.0,127.0,127.0,128.0,127.0,125.0,128.0,19.0,-94.0,-87.0,127.0,127.0,127.0,94.0,85.0,-77.0
130.0,130.0,127.0,127.0,127.0,127.0,124.0,128.0,19.0,-94.0,-87.0,127.0,127.0,127.0,94.0,85.0,-77.0
130.0,130.0,127.0,127.0,127.0,127.0,123.0,128.0,19.0,-94.0,-87.0,127.0,127.0,127.0,94.0,85.0,-77.0
130.0,130.0,126.0,127.0,127.0,126.0,123.0,128.0,19.0,-94.0,-87.0,127.0,127.0,127.0,94.0,85.0,-77.0
130.0,130.0,126.0,127.0,127.0,126.0,122.0,128.0,19.0,-94.0,-87.0,127.0,127.0,127.0,94.0,85.0,-77.0
130.0,130.0,126.0,127.0,127.0,126.0,122.0,128.0,19.0,-94.0,-87.0,127.0,127.0,127.0,94.0,85.0,-77.0
130.0,130.0,126.0,127.0,127.0,126.0,123.0,128.0,19.0,-94.0,-87.0,127.0,127.0,127.0,94.0,85.0,-77.0
130.0,130.0,126.0,127.0,127.0,126.0,123.0,128.0,19.0,-94.0,-87.0,127.0,127.0,127.0,94.0,85.0,-77.0
130.0,131.0,127.0,127.0,128.0,127.0,125.0,128.0,19.0,-94.0,-87.0,127.0,127.0,127.0,94.0,85.0,-77.0
130.0,130.0,126.0,125.0,126.0,127.0,127.0,127.0,19.0,-94.0,-87.0,127.0,127.0,127.0,94.0,85.0,-77.0
130.0,130.0,126.0,125.0,126.0,127.0,127.0,127.0,19.0,-94.0,-87.0,127.0,127.0,127.0,94.0,85.0,-77.0
130.0,130.0,126.0,125.0,126.0,127.0,126.0,127.0,19.0,-94.0,-87.0,127.0,127.0,127.0,94.0,85.0,-77.0
130.0,130.0,126.0,125.0,126.0,126.0,126.0,127.0,19.0,-94.0,-87.0,127.0,127.0,127.0,94.0,85.0,-77.0
130.0,130.0,126.0,125.0,126.0,126.0,126.0,127.0,19.0,-94.0,-87.0,127.0,127.0,127.0,94.0,85.0,-77.0
130.0,129.0,126.0,125.0,126.0,126.0,126.0,128.0,19.0,-94.0,-87.0,127.0,127.0,127.0,94.0,85.0,-77.0
131.0,129.0,126.0,125.0,126.0,126.0,126.0,128.0,19.0,-94.0,-87.0,127.0,127.0,127.0,94.0,85.0,-77.0
131.0,129.0,126.0,125.0,126.0,126.0,126.0,128.0,19.0,-94.0,-87.0,127.0,127.0,127.0,94.0,85.0,-77.0
130.0,132.0,127.0,126.0,126.0,127.0,127.0,127.0,19.0,-94.0,-87.0,127.0,127.0,127.0,94.0,85.0,-77.0
130.0,131.0,127.0,125.0,126.0,127.0,127.0,127.0,19.0,-94.0,-87.0,127.0,127.0,127.0,94.0,85.0,-77.0
131.0,131.0,126.0,126.0,127.0,127.0,123.0,128.0,19.0,-94.0,-87.0,127.0,127.0,127.0,94.0,85.0,-77.0
131.0,130.0,126.0,126.0,127.0,127.0,123.0,128.0,19.0,-94.0,-87.0,127.0,127.0,127.0,94.0,85.0,-77.0
130.0,130.0,126.0,126.0,127.0,126.0,123.0,128.0,19.0,-94.0,-87.0,127.0,127.0,127.0,94.0,85.0,-77.0
130.0,130.0,126.0,126.0,127.0,126.0,123.0,128.0,19.0,-94.0,-87.0,127.0,127.0,127.0,94.0,85.0,-77.0
130.0,130.0,126.0,126.0,127.0,126.0,123.0,128.0,19.0,-94.0,-87.0,127.0,127.0,127.0,94.0,85.0,-77.0
131.0,129.0,127.0,126.0,127.0,126.0,123.0,128.0,19.0,-94.0,-87.0,127.0,127.0,127.0,94.0,85.0,-77.0
131.0,129.0,127.0,126.0,127.0,126.0,124.0,128.0,19.0,-94.0,-87.0,127.0,127.0,127.0,94.0,85.0,-77.0
131.0,133.0,125.0,125.0,127.0,126.0,122.0,129.0,19.0,-94.0,-87.0,127.0,127.0,127.0,94.0,85.0,-77.0
131.0,133.0,125.0,125.0,127.0,127.0,122.0,129.0,19.0,-94.0,-87.0,127.0,127.0,127.0,94.0,85.0,-77.0
131.0,132.0,126.0,125.0,127.0,127.0,123.0,128.0,19.0,-94.0,-87.0,127.0,127.0,127.0,94.0,85.0,-77.0
130.0,130.0,126.0,126.0,127.0,127.0,125.0,128.0,19.0,-94.0,-87.0,127.0,127.0,127.0,94.0,85.0,-77.0
130.0,130.0,126.0,126.0,127.0,126.0,125.0,128.0,19.0,-94.0,-87.0,127.0,127.0,127.0,94.0,85.0,-77.0
130.0,130.0,126.0,126.0,127.0,126.0,125.0,128.0,19.0,-94.0,-87.0,127.0,127.0,127.0,94.0,85.0,-77.0
130.0,130.0,126.0,126.0,127.0,126.0,125.0,128.0,19.0,-94.0,-87.0,127.0,127.0,127.0,94.0,85.0,-77.0
130.0,130.0,126.0,126.0,127.0,126.0,125.0,128.0,19.0,-94.0,-87.0,127.0,127.0,127.0,94.0,85.0,-77.0
130.0,130.0,126.0,125.0,127.0,127.0,125.0,128.0,19.0,-94.0,-87.0,127.0,127.0,127.0,94.0,85.0,-77.0
130.0,130.0,127.0,126.0,127.0,127.0,126.0,129.0,19.0,-94.0,-87.0,127.0,127.0,127.0,94.0,85.0,-77.0
130.0,130.0,127.0,126.0,127.0,127.0,126.0,129.0,19.0,-94.0,-87.0,127.0,127.0,127.0,94.0,85.0,-77.0
130.0,130.0,127.0,126.0,127.0,127.0,126.0,129.0,19.0,-94.0,-87.0,127.0,127.0,127.0,94.0,85.0,-77.0
130.0,130.0,127.0,126.0,127.0,127.0,125.0,128.0,19.0,-94.0,-87.0,127.0,127.0,127.0,94.0,85.0,-77.0
129.0,130.0,126.0,126.0,128.0,127.0,129.0,128.0,19.0,-94.0,-87.0,127.0,127.0,127.0,94.0,85.0,-77.0
129.0,130.0,127.0,126.0,128.0,127.0,129.0,129.0,19.0,-94.0,-87.0,127.0,127.0,127.0,94.0,85.0,-77.0
129.0,130.0,127.0,126.0,128.0,127.0,129.0,129.0,19.0,-94.0,-87.0,127.0,127.0,127.0,94.0,85.0,-77.0
129.0,130.0,127.0,126.0,128.0,127.0,129.0,129.0,19.0,-94.0,-87.0,127.0,127.0,127.0,94.0,85.0,-77.0
128.0,130.0,127.0,126.0,128.0,127.0,129.0,129.0,19.0,-94.0,-87.0,127.0,127.0,127.0,94.0,85.0,-77.0
128.0,130.0,125.0,125.0,128.0,127.0,128.0,128.0,19.0,-94.0,-87.0,127.0,127.0,127.0,94.0,85.0,-77.0
128.0,130.0,125.0,125.0,128.0,127.0,128.0,128.0,19.0,-94.0,-87.0,127.0,127.0,127.0,94.0,85.0,-77.0
128.0,130.0,125.0,125.0,128.0,127.0,128.0,128.0,19.0,-94.0,-87.0,127.0,127.0,127.0,94.0,85.0,-77.0
128.0,130.0,126.0,126.0,128.0,127.0,128.0,128.0,19.0,-94.0,-87.0,127.0,127.0,127.0,94.0,85.0,-77.0
129.0,130.0,126.0,126.0,128.0,127.0,128.0,128.0,19.0,-94.0,-87.0,127.0,127.0,127.0,94.0,85.0,-77.0
127.0,130.0,125.0,126.0,127.0,127.0,126.0,128.0,19.0,-94.0,-87.0,127.0,127.0,127.0,94.0,85.0,-77.0
127.0,129.0,125.0,126.0,127.0,127.0,126.0,128.0,19.0,-94.0,-87.0,127.0,127.0,127.0,94.0,85.0,-77.0
127.0,129.0,125.0,126.0,127.0,127.0,126.0,128.0,19.0,-94.0,-87.0,127.0,127.0,127.0,94.0,85.0,-77.0
127.0,129.0,125.0,126.0,127.0,127.0,126.0,128.0,19.0,-94.0,-87.0,127.0,127.0,127.0,94.0,85.0,-77.0
127.0,130.0,125.0,126.0,127.0,127.0,127.0,128.0,19.0,-94.0,-87.0,127.0,127.0,127.0,94.0,85.0,-77.0
127.0,130.0,125.0,126.0,127.0,127.0,127.0,128.0,19.0,-94.0,-87.0,127.0,127.0,127.0,94.0,85.0,-77.0
126.0,130.0,125.0,126.0,127.0,126.0,126.0,128.0,19.0,-94.0,-87.0,127.0,127.0,127.0,94.0,85.0,-77.0
126.0,130.0,125.0,126.0,127.0,126.0,126.0,128.0,19.0,-94.0,-87.0,127.0,127.0,127.0,94.0,85.0,-77.0
127.0,130.0,125.0,126.0,127.0,126.0,126.0,128.0,19.0,-94.0,-87.0,127.0,127.0,127.0,94.0,85.0,-77.0
127.0,130.0,125.0,126.0,127.0,126.0,126.0,128.0,19.0,-94.0,-87.0,127.0,127.0,127.0,94.0,85.0,-77.0
145.0,129.0,126.0,126.0,127.0,127.0,128.0,128.0,19.0,-94.0,-87.0,127.0,127.0,127.0,94.0,85.0,-77.0
145.0,129.0,126.0,126.0,127.0,127.0,128.0,128.0,19.0,-94.0,-87.0,127.0,127.0,127.0,94.0,85.0,-77.0
145.0,129.0,126.0,125.0,127.0,127.0,128.0,128.0,19.0,-94.0,-87.0,127.0,127.0,127.0,94.0,85.0,-77.0
146.0,129.0,126.0,126.0,127.0,127.0,128.0,128.0,19.0,-94.0,-87.0,127.0,127.0,127.0,94.0,85.0,-77.0
146.0,129.0,126.0,126.0,127.0,127.0,129.0,128.0,19.0,-94.0,-87.0,127.0,127.0,127.0,94.0,85.0,-77.0
146.0,129.0,126.0,126.0,127.0,127.0,129.0,128.0,19.0,-94.0,-87.0,127.0,127.0,127.0,94.0,85.0,-77.0
146.0,129.0,126.0,126.0,127.0,127.0,128.0,128.0,19.0,-94.0,-87.0,127.0,127.0,127.0,94.0,85.0,-77.0
146.0,129.0,126.0,126.0,127.0,127.0,128.0,128.0,19.0,-94.0,-87.0,127.0,127.0,127.0,94.0,85.0,-77.0
146.0,129.0,126.0,126.0,127.0,127.0,128.0,128.0,19.0,-94.0,-87.0,127.0,127.0,127.0,94.0,85.0,-77.0
145.0,129.0,126.0,126.0,127.0,127.0,128.0,128.0,19.0,-94.0,-87.0,127.0,127.0,127.0,94.0,85.0,-77.0
133.0,128.0,127.0,126.0,127.0,127.0,131.0,128.0,19.0,-94.0,-87.0,127.0,127.0,127.0,94.0,85.0,-77.0
133.0,128.0,128.0,126.0,127.0,127.0,131.0,128.0,19.0,-94.0,-87.0,127.0,127.0,127.0,94.0,85.0,-77.0
135.0,129.0,126.0,126.0,127.0,127.0,128.0,128.0,19.0,-94.0,-87.0,127.0,127.0,127.0,94.0,85.0,-77.0
135.0,129.0,126.0,126.0,127.0,127.0,128.0,128.0,19.0,-94.0,-87.0,127.0,127.0,127.0,94.0,85.0,-77.0
135.0,128.0,126.0,126.0,127.0,127.0,129.0,128.0,19.0,-94.0,-87.0,127.0,127.0,127.0,94.0,85.0,-77.0
134.0,128.0,126.0,126.0,127.0,126.0,129.0,128.0,19.0,-94.0,-87.0,127.0,127.0,127.0,94.0,85.0,-77.0
134.0,128.0,126.0,126.0,127.0,126.0,130.0,127.0,19.0,-94.0,-87.0,127.0,127.0,127.0,94.0,85.0,-77.0
134.0,128.0,127.0,126.0,127.0,126.0,130.0,127.0,19.0,-94.0,-87.0,127.0,127.0,127.0,94.0,85.0,-77.0
134.0,128.0,127.0,126.0,127.0,127.0,131.0,127.0,19.0,-94.0,-87.0,127.0,127.0,127.0,94.0,85.0,-77.0
134.0,128.0,127.0,126.0,127.0,127.0,131.0,128.0,19.0,-94.0,-87.0,127.0,127.0,127.0,94.0,85.0,-77.0
127.0,126.0,127.0,126.0,127.0,126.0,126.0,128.0,19.0,-94.0,-87.0,127.0,127.0,127.0,94.0,85.0,-77.0
128.0,126.0,126.0,126.0,126.0,127.0,127.0,128.0,19.0,-94.0,-87.0,127.0,127.0,127.0,94.0,85.0,-77.0
128.0,126.0,126.0,126.0,126.0,127.0,127.0,128.0,19.0,-94.0,-87.0,127.0,127.0,127.0,94.0,85.0,-77.0
128.0,126.0,127.0,126.0,126.0,127.0,126.0,128.0,19.0,-94.0,-87.0,127.0,127.0,127.0,94.0,85.0,-77.0
127.0,126.0,126.0,126.0,127.0,126.0,126.0,128.0,19.0,-94.0,-87.0,127.0,127.0,127.0,94.0,85.0,-77.0
127.0,126.0,126.0,126.0,127.0,126.0,126.0,128.0,19.0,-94.0,-87.0,127.0,127.0,127.0,94.0,85.0,-77.0
127.0,126.0,126.0,126.0,127.0,126.0,126.0,128.0,19.0,-94.0,-87.0,127.0,127.0,127.0,94.0,85.0,-77.0
127.0,126.0,127.0,126.0,127.0,126.0,126.0,128.0,19.0,-94.0,-87.0,127.0,127.0,127.0,94.0,85.0,-77.0
127.0,126.0,127.0,126.0,127.0,126.0,126.0,128.0,19.0,-94.0,-87.0,127.0,127.0,127.0,94.0,85.0,-77.0
127.0,126.0,127.0,126.0,127.0,126.0,126.0,128.0,19.0,-94.0,-87.0,127.0,127.0,127.0,94.0,85.0,-77.0
125.0,124.0,126.0,127.0,127.0,127.0,127.0,128.0,19.0,-94.0,-87.0,127.0,127.0,127.0,95.0,85.0,-77.0
125.0,123.0,126.0,127.0,127.0,127.0,126.0,128.0,19.0,-94.0,-87.0,127.0,127.0,127.0,95.0,85.0,-77.0
125.0,123.0,126.0,127.0,127.0,126.0,126.0,128.0,19.0,-94.0,-87.0,127.0,127.0,127.0,95.0,85.0,-77.0
125.0,123.0,126.0,127.0,127.0,126.0,126.0,128.0,19.0,-94.0,-87.0,127.0,127.0,127.0,95.0,85.0,-77.0
125.0,123.0,126.0,127.0,127.0,126.0,126.0,128.0,19.0,-94.0,-87.0,127.0,127.0,127.0,95.0,85.0,-77.0
125.0,123.0,126.0,127.0,127.0,126.0,126.0,128.0,19.0,-94.0,-87.0,127.0,127.0,127.0,95.0,85.0,-77.0
125.0,123.0,126.0,127.0,127.0,126.0,126.0,128.0,19.0,-94.0,-87.0,127.0,127.0,127.0,95.0,85.0,-77.0
125.0,123.0,126.0,127.0,127.0,126.0,126.0,128.0,19.0,-94.0,-87.0,127.0,127.0,127.0,95.0,85.0,-77.0
125.0,123.0,126.0,127.0,127.0,126.0,126.0,128.0,19.0,-94.0,-87.0,127.0,127.0,127.0,95.0,85.0,-77.0
125.0,123.0,127.0,127.0,127.0,126.0,126.0,128.0,19.0,-94.0,-87.0,127.0,127.0,127.0,95.0,85.0,-77.0
125.0,119.0,125.0,128.0,128.0,127.0,126.0,128.0,19.0,-94.0,-87.0,127.0,127.0,127.0,95.0,85.0,-77.0
125.0,119.0,126.0,128.0,128.0,127.0,126.0,128.0,19.0,-94.0,-87.0,127.0,127.0,127.0,95.0,85.0,-77.0
125.0,119.0,125.0,128.0,128.0,126.0,126.0,128.0,19.0,-94.0,-87.0,127.0,127.0,127.0,95.0,85.0,-77.0
125.0,119.0,125.0,128.0,128.0,126.0,126.0,128.0,19.0,-94.0,-87.0,127.0,127.0,127.0,95.0,85.0,-77.0
125.0,119.0,126.0,128.0,128.0,126.0,126.0,128.0,19.0,-94.0,-87.0,127.0,127.0,127.0,95.0,85.0,-77.0
125.0,119.0,126.0,128.0,128.0,126.0,126.0,128.0,19.0,-94.0,-87.0,127.0,127.0,127.0,95.0,85.0,-77.0
125.0,119.0,126.0,128.0,128.0,126.0,127.0,128.0,19.0,-94.0,-87.0,127.0,127.0,127.0,95.0,85.0,-77.0
125.0,118.0,126.0,128.0,128.0,126.0,127.0,128.0,19.0,-94.0,-87.0,127.0,127.0,127.0,95.0,85.0,-77.0
125.0,118.0,126.0,128.0,128.0,127.0,127.0,128.0,19.0,-94.0,-87.0,127.0,127.0,127.0,95.0,85.0,-77.0
125.0,119.0,125.0,128.0,128.0,127.0,126.0,128.0,19.0,-94.0,-87.0,127.0,127.0,127.0,95.0,85.0,-77.0
124.0,121.0,125.0,130.0,128.0,127.0,128.0,128.0,19.0,-94.0,-87.0,127.0,127.0,127.0,95.0,85.0,-77.0
124.0,122.0,125.0,130.0,128.0,126.0,128.0,128.0,19.0,-94.0,-87.0,127.0,127.0,127.0,95.0,85.0,-77.0
124.0,122.0,125.0,130.0,128.0,126.0,128.0,128.0,19.0,-94.0,-87.0,127.0,127.0,127.0,95.0,85.0,-77.0
124.0,120.0,125.0,130.0,128.0,126.0,128.0,128.0,19.0,-94.0,-87.0,127.0,127.0,127.0,95.0,85.0,-77.0
124.0,119.0,125.0,130.0,128.0,126.0,128.0,128.0,19.0,-94.0,-87.0,127.0,127.0,127.0,95.0,85.0,-77.0
124.0,117.0,125.0,130.0,128.0,126.0,128.0,128.0,19.0,-94.0,-87.0,127.0,127.0,127.0,95.0,85.0,-77.0
123.0,116.0,125.0,130.0,128.0,126.0,128.0,128.0,19.0,-94.0,-87.0,127.0,127.0,127.0,95.0,85.0,-77.0
124.0,118.0,124.0,129.0,128.0,127.0,128.0,128.0,19.0,-94.0,-87.0,127.0,127.0,127.0,95.0,85.0,-77.0
124.0,119.0,124.0,130.0,128.0,127.0,128.0,128.0,19.0,-94.0,-87.0,127.0,127.0,127.0,95.0,85.0,-77.0
124.0,120.0,125.0,129.0,128.0,127.0,128.0,128.0,19.0,-94.0,-87.0,127.0,127.0,127.0,95.0,85.0,-77.0
120.0,114.0,126.0,132.0,129.0,127.0,128.0,128.0,19.0,-94.0,-86.0,127.0,127.0,127.0,95.0,85.0,-77.0
120.0,114.0,126.0,132.0,128.0,127.0,128.0,128.0,19.0,-94.0,-86.0,127.0,127.0,127.0,95.0,85.0,-77.0
120.0,114.0,126.0,132.0,129.0,127.0,128.0,128.0,19.0,-94.0,-86.0,127.0,127.0,127.0,95.0,85.0,-77.0
120.0,114.0,126.0,132.0,129.0,127.0,128.0,128.0,19.0,-94.0,-86.0,127.0,127.0,127.0,95.0,85.0,-77.0
120.0,114.0,126.0,132.0,129.0,127.0,128.0,128.0,19.0,-94.0,-86.0,127.0,127.0,127.0,95.0,85.0,-77.0
120.0,114.0,126.0,132.0,129.0,127.0,128.0,128.0,19.0,-94.0,-86.0,127.0,127.0,127.0,95.0,85.0,-77.0
121.0,114.0,126.0,132.0,129.0,127.0,128.0,128.0,19.0,-94.0,-86.0,127.0,127.0,127.0,95.0,85.0,-77.0
121.0,114.0,126.0,132.0,129.0,127.0,128.0,128.0,19.0,-94.0,-86.0,127.0,127.0,127.0,95.0,85.0,-77.0
120.0,114.0,126.0,132.0,129.0,127.0,128.0,128.0,19.0,-94.0,-86.0,127.0,127.0,127.0,95.0,85.0,-77.0
120.0,114.0,126.0,132.0,129.0,127.0,128.0,128.0,19.0,-94.0,-86.0,127.0,127.0,127.0,95.0,85.0,-77.0
118.0,114.0,127.0,132.0,129.0,127.0,126.0,128.0,19.0,-94.0,-86.0,127.0,127.0,127.0,96.0,85.0,-77.0
118.0,114.0,127.0,132.0,129.0,127.0,126.0,128.0,19.0,-94.0,-86.0,127.0,127.0,127.0,96.0,85.0,-77.0
118.0,114.0,127.0,132.0,128.0,127.0,126.0,128.0,19.0,-94.0,-86.0,127.0,127.0,127.0,96.0,85.0,-77.0
118.0,114.0,127.0,132.0,128.0,127.0,126.0,128.0,19.0,-94.0,-86.0,127.0,127.0,127.0,96.0,85.0,-77.0
118.0,114.0,127.0,132.0,128.0,127.0,126.0,128.0,19.0,-94.0,-86.0,127.0,127.0,127.0,96.0,85.0,-77.0
118.0,114.0,126.0,132.0,129.0,127.0,126.0,128.0,19.0,-94.0,-86.0,127.0,127.0,127.0,96.0,85.0,-77.0
118.0,114.0,126.0,132.0,129.0,126.0,126.0,128.0,19.0,-94.0,-86.0,127.0,127.0,127.0,96.0,85.0,-77.0
118.0,114.0,126.0,132.0,129.0,126.0,126.0,128.0,19.0,-94.0,-86.0,127.0,127.0,127.0,96.0,85.0,-77.0
118.0,114.0,127.0,132.0,129.0,127.0,126.0,128.0,19.0,-94.0,-86.0,127.0,127.0,127.0,96.0,85.0,-77.0
118.0,114.0,127.0,132.0,129.0,127.0,126.0,128.0,19.0,-94.0,-86.0,127.0,127.0,127.0,96.0,85.0,-77.0
116.0,115.0,126.0,130.0,127.0,126.0,125.0,128.0,19.0,-94.0,-86.0,126.0,127.0,127.0,96.0,85.0,-77.0
116.0,115.0,126.0,130.0,127.0,126.0,125.0,128.0,19.0,-94.0,-86.0,126.0,127.0,127.0,96.0,85.0,-77.0
116.0,115.0,126.0,130.0,127.0,126.0,125.0,128.0,19.0,-94.0,-86.0,126.0,127.0,127.0,96.0,85.0,-77.0
116.0,115.0,126.0,130.0,127.0,127.0,125.0,128.0,19.0,-94.0,-86.0,126.0,127.0,127.0,96.0,85.0,-77.0
115.0,115.0,127.0,131.0,127.0,127.0,125.0,128.0,19.0,-94.0,-86.0,126.0,127.0,127.0,96.0,85.0,-77.0
115.0,115.0,126.0,131.0,128.0,126.0,125.0,128.0,19.0,-94.0,-86.0,126.0,127.0,127.0,96.0,85.0,-77.0
115.0,115.0,126.0,131.0,128.0,126.0,125.0,128.0,19.0,-94.0,-86.0,126.0,127.0,127.0,96.0,85.0,-77.0
115.0,115.0,126.0,131.0,128.0,126.0,125.0,128.0,19.0,-94.0,-86.0,126.0,127.0,127.0,96.0,85.0,-77.0
116.0,115.0,126.0,131.0,127.0,126.0,125.0,128.0,19.0,-94.0,-86.0,126.0,127.0,127.0,96.0,85.0,-77.0
116.0,115.0,126.0,131.0,128.0,126.0,125.0,128.0,19.0,-94.0,-86.0,126.0,127.0,127.0,96.0,85.0,-77.0
120.0,115.0,125.0,128.0,126.0,127.0,126.0,128.0,20.0,-94.0,-86.0,126.0,127.0,127.0,96.0,85.0,-77.0
120.0,114.0,125.0,128.0,126.0,127.0,126.0,128.0,20.0,-94.0,-86.0,126.0,127.0,127.0,96.0,85.0,-77.0
121.0,114.0,125.0,128.0,126.0,127.0,126.0,128.0,20.0,-94.0,-86.0,126.0,127.0,127.0,96.0,85.0,-77.0
120.0,115.0,125.0,128.0,126.0,127.0,126.0,128.0,20.0,-94.0,-86.0,126.0,127.0,127.0,96.0,85.0,-77.0
120.0,115.0,125.0,128.0,126.0,127.0,125.0,128.0,20.0,-94.0,-86.0,126.0,127.0,127.0,96.0,85.0,-77.0
120.0,115.0,124.0,128.0,126.0,126.0,125.0,128.0,20.0,-94.0,-86.0,126.0,127.0,127.0,96.0,85.0,-77.0
120.0,115.0,125.0,128.0,126.0,127.0,126.0,128.0,20.0,-94.0,-86.0,126.0,127.0,127.0,96.0,85.0,-77.0
120.0,115.0,125.0,128.0,126.0,126.0,126.0,128.0,20.0,-94.0,-86.0,126.0,127.0,127.0,96.0,85.0,-77.0
120.0,115.0,125.0,128.0,126.0,126.0,126.0,128.0,20.0,-94.0,-86.0,126.0,127.0,127.0,96.0,85.0,-77.0
120.0,115.0,125.0,128.0,126.0,127.0,126.0,128.0,20.0,-94.0,-86.0,126.0,127.0,127.0,96.0,85.0,-77.0
126.0,119.0,125.0,127.0,126.0,126.0,127.0,128.0,21.0,-94.0,-86.0,126.0,127.0,127.0,96.0,85.0,-77.0
126.0,119.0,125.0,127.0,126.0,127.0,128.0,128.0,21.0,-94.0,-86.0,126.0,127.0,127.0,96.0,85.0,-77.0
124.0,118.0,125.0,128.0,126.0,127.0,127.0,128.0,21.0,-94.0,-86.0,126.0,127.0,127.0,96.0,85.0,-77.0
124.0,118.0,124.0,128.0,126.0,126.0,127.0,128.0,21.0,-94.0,-86.0,126.0,127.0,127.0,96.0,85.0,-77.0
124.0,119.0,124.0,128.0,126.0,126.0,127.0,128.0,21.0,-94.0,-86.0,126.0,127.0,127.0,96.0,85.0,-77.0
124.0,119.0,124.0,128.0,126.0,126.0,127.0,128.0,21.0,-94.0,-86.0,126.0,127.0,127.0,96.0,85.0,-77.0
125.0,119.0,124.0,128.0,126.0,126.0,127.0,128.0,21.0,-94.0,-86.0,126.0,127.0,127.0,96.0,85.0,-77.0
125.0,119.0,124.0,128.0,126.0,126.0,127.0,128.0,21.0,-94.0,-86.0,126.0,127.0,127.0,96.0,85.0,-77.0
125.0,119.0,124.0,128.0,126.0,126.0,127.0,128.0,21.0,-94.0,-86.0,126.0,127.0,127.0,96.0,85.0,-77.0
125.0,119.0,125.0,128.0,126.0,126.0,127.0,128.0,21.0,-94.0,-86.0,126.0,127.0,127.0,96.0,85.0,-77.0
127.0,121.0,124.0,128.0,127.0,127.0,130.0,128.0,21.0,-94.0,-85.0,126.0,127.0,127.0,96.0,85.0,-77.0
127.0,121.0,124.0,128.0,127.0,127.0,130.0,128.0,21.0,-94.0,-85.0,126.0,127.0,127.0,96.0,85.0,-77.0
127.0,121.0,124.0,128.0,127.0,126.0,130.0,128.0,21.0,-94.0,-85.0,126.0,127.0,127.0,96.0,85.0,-77.0
127.0,121.0,124.0,128.0,127.0,126.0,130.0,128.0,21.0,-94.0,-85.0,126.0,127.0,127.0,96.0,85.0,-77.0
127.0,121.0,124.0,128.0,127.0,126.0,130.0,128.0,21.0,-94.0,-85.0,126.0,127.0,127.0,96.0,85.0,-77.0
127.0,121.0,124.0,128.0,127.0,126.0,130.0,128.0,21.0,-94.0,-85.0,126.0,127.0,127.0,96.0,85.0,-77.0
127.0,121.0,124.0,128.0,127.0,126.0,130.0,128.0,21.0,-94.0,-85.0,126.0,127.0,127.0,96.0,85.0,-77.0
127.0,121.0,124.0,128.0,127.0,126.0,130.0,128.0,21.0,-94.0,-85.0,126.0,127.0,127.0,96.0,85.0,-77.0
127.0,121.0,124.0,128.0,127.0,126.0,130.0,128.0,21.0,-94.0,-85.0,126.0,127.0,127.0,96.0,85.0,-77.0
127.0,121.0,124.0,128.0,127.0,127.0,130.0,128.0,21.0,-94.0,-85.0,126.0,127.0,127.0,96.0,85.0,-77.0
123.0,120.0,124.0,128.0,128.0,127.0,130.0,128.0,21.0,-95.0,-85.0,126.0,127.0,127.0,96.0,85.0,-77.0
122.0,120.0,124.0,128.0,128.0,127.0,130.0,128.0,21.0,-95.0,-85.0,126.0,127.0,127.0,96.0,85.0,-77.0
122.0,120.0,124.0,127.0,128.0,126.0,130.0,127.0,21.0,-95.0,-85.0,126.0,127.0,127.0,96.0,85.0,-77.0
122.0,120.0,124.0,128.0,128.0,126.0,130.0,127.0,21.0,-95.0,-85.0,126.0,127.0,127.0,96.0,85.0,-77.0
122.0,120.0,124.0,128.0,128.0,127.0,130.0,127.0,21.0,-95.0,-85.0,126.0,127.0,127.0,96.0,85.0,-77.0
122.0,120.0,124.0,128.0,128.0,127.0,130.0,127.0,21.0,-95.0,-85.0,126.0,127.0,127.0,96.0,85.0,-77.0
122.0,120.0,124.0,128.0,128.0,127.0,130.0,127.0,21.0,-95.0,-85.0,126.0,127.0,127.0,96.0,85.0,-77.0
122.0,120.0,124.0,128.0,128.0,126.0,130.0,127.0,21.0,-95.0,-85.0,126.0,127.0,127.0,96.0,85.0,-77.0
122.0,120.0,124.0,128.0,128.0,127.0,130.0,127.0,21.0,-95.0,-85.0,126.0,127.0,127.0,96.0,85.0,-77.0
122.0,119.0,124.0,128.0,128.0,127.0,130.0,128.0,21.0,-95.0,-85.0,126.0,127.0,127.0,96.0,85.0,-77.0
121.0,115.0,124.0,128.0,129.0,127.0,127.0,128.0,20.0,-95.0,-85.0,126.0,127.0,127.0,96.0,85.0,-77.0
121.0,115.0,124.0,128.0,129.0,126.0,127.0,128.0,20.0,-95.0,-85.0,126.0,127.0,127.0,96.0,85.0,-77.0
121.0,115.0,124.0,128.0,129.0,126.0,127.0,128.0,20.0,-95.0,-85.0,126.0,127.0,127.0,96.0,85.0,-77.0
121.0,115.0,124.0,128.0,129.0,126.0,127.0,128.0,20.0,-95.0,-85.0,126.0,127.0,127.0,96.0,85.0,-77.0
121.0,114.0,124.0,128.0,129.0,126.0,127.0,128.0,20.0,-95.0,-85.0,126.0,127.0,127.0,96.0,85.0,-77.0
121.0,114.0,124.0,128.0,129.0,126.0,127.0,128.0,20.0,-95.0,-85.0,126.0,127.0,127.0,96.0,85.0,-77.0
121.0,114.0,124.0,128.0,129.0,126.0,127.0,128.0,20.0,-95.0,-85.0,126.0,127.0,127.0,96.0,85.0,-77.0
121.0,114.0,124.0,128.0,128.0,126.0,127.0,128.0,20.0,-95.0,-85.0,126.0,127.0,127.0,96.0,85.0,-77.0
121.0,114.0,124.0,128.0,128.0,127.0,127.0,128.0,20.0,-95.0,-85.0,126.0,127.0,127.0,96.0,85.0,-77.0
121.0,115.0,125.0,128.0,129.0,127.0,127.0,128.0,20.0,-95.0,-85.0,126.0,127.0,127.0,96.0,85.0,-77.0
117.0,108.0,124.0,128.0,128.0,127.0,123.0,127.0,20.0,-94.0,-86.0,126.0,127.0,127.0,97.0,85.0,-77.0
117.0,107.0,124.0,128.0,128.0,127.0,123.0,127.0,20.0,-94.0,-86.0,126.0,127.0,127.0,97.0,85.0,-77.0
117.0,107.0,123.0,128.0,128.0,127.0,123.0,127.0,20.0,-94.0,-86.0,126.0,127.0,127.0,97.0,85.0,-77.0
117.0,107.0,123.0,128.0,128.0,127.0,122.0,127.0,20.0,-94.0,-86.0,126.0,127.0,127.0,97.0,85.0,-77.0
117.0,107.0,123.0,128.0,128.0,127.0,122.0,127.0,20.0,-94.0,-86.0,126.0,127.0,127.0,97.0,85.0,-77.0
117.0,106.0,123.0,128.0,128.0,127.0,122.0,127.0,20.0,-94.0,-86.0,126.0,127.0,127.0,97.0,85.0,-77.0
117.0,106.0,123.0,128.0,128.0,127.0,122.0,127.0,20.0,-94.0,-86.0,126.0,127.0,127.0,97.0,85.0,-77.0
117.0,105.0,124.0,128.0,127.0,127.0,122.0,127.0,20.0,-94.0,-86.0,126.0,127.0,127.0,97.0,85.0,-77.0
117.0,108.0,124.0,128.0,128.0,127.0,123.0,127.0,20.0,-94.0,-86.0,126.0,127.0,127.0,97.0,85.0,-77.0
117.0,108.0,124.0,128.0,128.0,127.0,123.0,127.0,20.0,-94.0,-86.0,126.0,127.0,127.0,97.0,85.0,-77.0
118.0,101.0,122.0,127.0,128.0,126.0,122.0,128.0,20.0,-93.0,-86.0,126.0,127.0,127.0,97.0,85.0,-77.0
118.0,101.0,122.0,128.0,128.0,126.0,122.0,128.0,20.0,-93.0,-86.0,126.0,127.0,127.0,97.0,85.0,-77.0
119.0,101.0,122.0,128.0,128.0,126.0,122.0,128.0,20.0,-93.0,-86.0,126.0,127.0,127.0,97.0,85.0,-77.0
119.0,101.0,122.0,127.0,128.0,127.0,122.0,128.0,20.0,-93.0,-86.0,126.0,127.0,127.0,97.0,85.0,-77.0
119.0,100.0,122.0,127.0,128.0,127.0,122.0,128.0,20.0,-93.0,-86.0,126.0,127.0,127.0,97.0,85.0,-77.0
119.0,100.0,122.0,127.0,128.0,127.0,122.0,128.0,20.0,-93.0,-86.0,126.0,127.0,127.0,97.0,85.0,-77.0
119.0,100.0,122.0,128.0,128.0,127.0,122.0,128.0,20.0,-93.0,-86.0,126.0,127.0,127.0,97.0,85.0,-77.0
118.0,101.0,122.0,127.0,128.0,127.0,121.0,128.0,20.0,-93.0,-86.0,126.0,127.0,127.0,97.0,85.0,-77.0
118.0,101.0,122.0,127.0,128.0,127.0,121.0,128.0,20.0,-93.0,-86.0,126.0,127.0,127.0,97.0,85.0,-77.0
118.0,101.0,122.0,127.0,128.0,126.0,121.0,128.0,20.0,-93.0,-86.0,126.0,127.0,127.0,97.0,85.0,-77.0
124.0,107.0,125.0,127.0,128.0,126.0,128.0,128.0,20.0,-94.0,-85.0,126.0,127.0,127.0,97.0,85.0,-77.0
125.0,107.0,125.0,127.0,128.0,127.0,128.0,128.0,20.0,-94.0,-85.0,126.0,127.0,127.0,97.0,85.0,-77.0
125.0,107.0,125.0,127.0,128.0,127.0,128.0,128.0,20.0,-94.0,-85.0,126.0,127.0,127.0,97.0,85.0,-77.0
125.0,108.0,125.0,127.0,128.0,127.0,128.0,128.0,20.0,-94.0,-85.0,126.0,127.0,127.0,97.0,85.0,-77.0
125.0,108.0,125.0,127.0,128.0,127.0,129.0,128.0,20.0,-94.0,-85.0,126.0,127.0,127.0,97.0,85.0,-77.0
125.0,108.0,126.0,127.0,128.0,127.0,129.0,128.0,20.0,-94.0,-85.0,126.0,127.0,127.0,97.0,85.0,-77.0
124.0,107.0,124.0,127.0,129.0,126.0,127.0,128.0,20.0,-94.0,-85.0,126.0,127.0,127.0,97.0,85.0,-77.0
124.0,107.0,124.0,127.0,128.0,126.0,128.0,128.0,20.0,-94.0,-85.0,126.0,127.0,127.0,97.0,85.0,-77.0
124.0,107.0,124.0,127.0,128.0,126.0,128.0,128.0,20.0,-94.0,-85.0,126.0,127.0,127.0,97.0,85.0,-77.0
124.0,107.0,125.0,127.0,128.0,126.0,128.0,128.0,20.0,-94.0,-85.0,126.0,127.0,127.0,97.0,85.0,-77.0
126.0,109.0,129.0,126.0,128.0,127.0,131.0,128.0,20.0,-95.0,-85.0,126.0,127.0,127.0,98.0,85.0,-77.0
126.0,109.0,130.0,126.0,128.0,127.0,131.0,128.0,20.0,-95.0,-85.0,126.0,127.0,127.0,98.0,85.0,-77.0
126.0,109.0,130.0,126.0,128.0,127.0,130.0,128.0,20.0,-95.0,-85.0,126.0,127.0,127.0,98.0,85.0,-77.0
126.0,109.0,131.0,126.0,128.0,127.0,130.0,128.0,20.0,-95.0,-85.0,126.0,127.0,127.0,98.0,85.0,-77.0
126.0,110.0,128.0,126.0,128.0,127.0,131.0,128.0,20.0,-95.0,-85.0,126.0,127.0,127.0,98.0,85.0,-77.0
126.0,110.0,128.0,126.0,128.0,127.0,131.0,128.0,20.0,-95.0,-85.0,126.0,127.0,127.0,98.0,85.0,-77.0
126.0,110.0,128.0,126.0,128.0,126.0,131.0,128.0,20.0,-95.0,-85.0,126.0,127.0,127.0,98.0,85.0,-77.0
126.0,110.0,128.0,126.0,128.0,127.0,131.0,128.0,20.0,-95.0,-85.0,126.0,127.0,127.0,98.0,85.0,-77.0
126.0,109.0,129.0,126.0,128.0,127.0,130.0,128.0,20.0,-95.0,-85.0,126.0,127.0,127.0,98.0,85.0,-77.0
126.0,109.0,129.0,126.0,128.0,127.0,131.0,128.0,20.0,-95.0,-85.0,126.0,127.0,127.0,98.0,85.0,-77.0
120.0,107.0,132.0,130.0,129.0,127.0,126.0,128.0,20.0,-96.0,-85.0,126.0,127.0,127.0,98.0,85.0,-77.0
120.0,107.0,132.0,131.0,129.0,127.0,126.0,128.0,20.0,-96.0,-85.0,126.0,127.0,127.0,98.0,85.0,-77.0
120.0,107.0,131.0,131.0,129.0,127.0,126.0,128.0,20.0,-96.0,-85.0,126.0,127.0,127.0,98.0,85.0,-77.0
121.0,107.0,132.0,129.0,129.0,127.0,126.0,128.0,20.0,-96.0,-85.0,126.0,127.0,127.0,98.0,85.0,-77.0
121.0,107.0,132.0,129.0,129.0,127.0,126.0,128.0,20.0,-96.0,-85.0,126.0,127.0,127.0,98.0,85.0,-77.0
121.0,107.0,132.0,129.0,129.0,127.0,126.0,128.0,20.0,-96.0,-85.0,126.0,127.0,127.0,98.0,85.0,-77.0
121.0,107.0,132.0,130.0,129.0,127.0,126.0,128.0,20.0,-96.0,-85.0,126.0,127.0,127.0,98.0,85.0,-77.0
121.0,107.0,132.0,130.0,129.0,127.0,126.0,128.0,20.0,-96.0,-85.0,126.0,127.0,127.0,98.0,85.0,-77.0
121.0,107.0,132.0,130.0,129.0,127.0,126.0,128.0,20.0,-96.0,-85.0,126.0,127.0,127.0,98.0,85.0,-77.0
121.0,107.0,132.0,130.0,129.0,127.0,126.0,128.0,20.0,-96.0,-85.0,126.0,127.0,127.0,98.0,85.0,-77.0
115.0,112.0,122.0,136.0,131.0,127.0,126.0,128.0,20.0,-97.0,-84.0,126.0,127.0,127.0,99.0,85.0,-77.0
115.0,113.0,122.0,136.0,131.0,127.0,126.0,128.0,20.0,-97.0,-84.0,126.0,127.0,127.0,99.0,85.0,-77.0
116.0,110.0,123.0,135.0,130.0,126.0,125.0,128.0,20.0,-97.0,-84.0,126.0,127.0,127.0,99.0,85.0,-77.0
116.0,111.0,123.0,135.0,130.0,127.0,125.0,128.0,20.0,-97.0,-84.0,126.0,127.0,127.0,99.0,85.0,-77.0
115.0,111.0,123.0,135.0,130.0,127.0,125.0,128.0,20.0,-97.0,-84.0,126.0,127.0,127.0,99.0,85.0,-77.0
115.0,111.0,123.0,135.0,130.0,127.0,125.0,128.0,20.0,-97.0,-84.0,126.0,127.0,127.0,99.0,85.0,-77.0
115.0,111.0,123.0,135.0,131.0,127.0,125.0,128.0,20.0,-97.0,-84.0,126.0,127.0,127.0,99.0,85.0,-77.0
115.0,112.0,122.0,135.0,130.0,127.0,126.0,128.0,20.0,-97.0,-84.0,126.0,127.0,127.0,99.0,85.0,-77.0
115.0,112.0,122.0,135.0,130.0,127.0,126.0,128.0,20.0,-97.0,-84.0,126.0,127.0,127.0,99.0,85.0,-77.0
115.0,112.0,122.0,136.0,130.0,127.0,126.0,128.0,20.0,-97.0,-84.0,126.0,127.0,127.0,99.0,85.0,-77.0
109.0,117.0,116.0,138.0,131.0,127.0,126.0,128.0,20.0,-97.0,-84.0,125.0,127.0,127.0,99.0,85.0,-77.0
110.0,117.0,117.0,138.0,131.0,127.0,126.0,128.0,20.0,-97.0,-84.0,125.0,127.0,127.0,99.0,85.0,-77.0
110.0,118.0,117.0,138.0,131.0,126.0,126.0,128.0,20.0,-97.0,-84.0,125.0,127.0,127.0,99.0,85.0,-77.0
110.0,118.0,116.0,138.0,131.0,126.0,126.0,128.0,20.0,-97.0,-84.0,125.0,127.0,127.0,99.0,85.0,-77.0
110.0,118.0,116.0,138.0,131.0,127.0,126.0,128.0,20.0,-97.0,-84.0,125.0,127.0,127.0,99.0,85.0,-77.0
110.0,118.0,116.0,138.0,131.0,127.0,126.0,128.0,20.0,-97.0,-84.0,125.0,127.0,127.0,99.0,85.0,-77.0
110.0,118.0,116.0,138.0,131.0,127.0,126.0,128.0,20.0,-97.0,-84.0,125.0,127.0,127.0,99.0,85.0,-77.0
110.0,118.0,116.0,138.0,131.0,127.0,126.0,128.0,20.0,-97.0,-84.0,125.0,127.0,127.0,99.0,85.0,-77.0
110.0,117.0,116.0,138.0,131.0,127.0,126.0,128.0,20.0,-97.0,-84.0,125.0,127.0,127.0,99.0,85.0,-77.0
109.0,117.0,116.0,138.0,131.0,127.0,126.0,128.0,20.0,-97.0,-84.0,125.0,127.0,127.0,99.0,85.0,-77.0
107.0,117.0,106.0,139.0,130.0,127.0,125.0,128.0,21.0,-97.0,-83.0,125.0,127.0,127.0,99.0,85.0,-77.0
107.0,118.0,106.0,139.0,130.0,127.0,125.0,128.0,21.0,-97.0,-83.0,125.0,127.0,127.0,99.0,85.0,-77.0
107.0,118.0,107.0,139.0,130.0,127.0,125.0,128.0,21.0,-97.0,-83.0,125.0,127.0,127.0,99.0,85.0,-77.0
108.0,117.0,107.0,139.0,130.0,127.0,125.0,128.0,21.0,-97.0,-83.0,125.0,127.0,127.0,99.0,85.0,-77.0
108.0,117.0,107.0,139.0,130.0,127.0,125.0,128.0,21.0,-97.0,-83.0,125.0,127.0,127.0,99.0,85.0,-77.0
108.0,117.0,107.0,139.0,130.0,127.0,125.0,127.0,21.0,-97.0,-83.0,125.0,127.0,127.0,99.0,85.0,-77.0
108.0,117.0,107.0,139.0,130.0,127.0,125.0,128.0,21.0,-97.0,-83.0,125.0,127.0,127.0,99.0,85.0,-77.0
108.0,117.0,107.0,139.0,129.0,127.0,125.0,127.0,21.0,-97.0,-83.0,125.0,127.0,127.0,99.0,85.0,-77.0
108.0,117.0,107.0,139.0,129.0,127.0,125.0,127.0,21.0,-97.0,-83.0,125.0,127.0,127.0,99.0,85.0,-77.0
108.0,116.0,107.0,139.0,129.0,127.0,125.0,127.0,21.0,-97.0,-83.0,125.0,127.0,127.0,99.0,85.0,-77.0
108.0,116.0,105.0,139.0,129.0,127.0,126.0,127.0,22.0,-97.0,-83.0,124.0,127.0,127.0,100.0,85.0,-77.0
108.0,116.0,105.0,139.0,129.0,127.0,126.0,127.0,22.0,-97.0,-83.0,124.0,127.0,127.0,100.0,85.0,-77.0
108.0,116.0,105.0,139.0,129.0,127.0,126.0,127.0,22.0,-97.0,-83.0,124.0,127.0,127.0,100.0,85.0,-77.0
108.0,116.0,105.0,139.0,129.0,127.0,126.0,127.0,22.0,-97.0,-83.0,124.0,127.0,127.0,100.0,85.0,-77.0
108.0,117.0,105.0,139.0,129.0,127.0,126.0,127.0,22.0,-97.0,-83.0,124.0,127.0,127.0,100.0,85.0,-77.0
108.0,116.0,105.0,139.0,129.0,127.0,126.0,128.0,22.0,-97.0,-83.0,124.0,127.0,127.0,100.0,85.0,-77.0
108.0,116.0,106.0,139.0,129.0,127.0,126.0,128.0,22.0,-97.0,-83.0,124.0,127.0,127.0,100.0,85.0,-77.0
108.0,116.0,106.0,139.0,129.0,127.0,126.0,127.0,22.0,-97.0,-83.0,124.0,127.0,127.0,100.0,85.0,-77.0
108.0,116.0,106.0,139.0,129.0,127.0,126.0,128.0,22.0,-97.0,-83.0,124.0,127.0,127.0,100.0,85.0,-77.0
108.0,116.0,105.0,139.0,129.0,127.0,126.0,127.0,22.0,-97.0,-83.0,124.0,127.0,127.0,100.0,85.0,-77.0
109.0,118.0,114.0,138.0,128.0,126.0,127.0,128.0,22.0,-98.0,-83.0,124.0,127.0,127.0,100.0,85.0,-77.0
109.0,118.0,115.0,138.0,128.0,127.0,127.0,128.0,22.0,-98.0,-83.0,124.0,127.0,127.0,100.0,85.0,-77.0
109.0,118.0,115.0,138.0,128.0,127.0,127.0,128.0,22.0,-98.0,-83.0,124.0,127.0,127.0,100.0,85.0,-77.0
109.0,118.0,115.0,138.0,128.0,127.0,127.0,128.0,22.0,-98.0,-83.0,124.0,127.0,127.0,100.0,85.0,-77.0
109.0,118.0,115.0,138.0,128.0,127.0,127.0,128.0,22.0,-98.0,-83.0,124.0,127.0,127.0,100.0,85.0,-77.0
109.0,118.0,115.0,138.0,128.0,127.0,127.0,128.0,22.0,-98.0,-83.0,124.0,127.0,127.0,100.0,85.0,-77.0
109.0,117.0,116.0,138.0,128.0,127.0,127.0,128.0,22.0,-98.0,-83.0,124.0,127.0,127.0,100.0,85.0,-77.0
109.0,117.0,116.0,138.0,128.0,127.0,127.0,128.0,22.0,-98.0,-83.0,124.0,127.0,127.0,100.0,85.0,-77.0
108.0,118.0,114.0,138.0,128.0,126.0,127.0,128.0,22.0,-98.0,-83.0,124.0,127.0,127.0,100.0,85.0,-77.0
109.0,118.0,114.0,138.0,128.0,127.0,127.0,128.0,22.0,-98.0,-83.0,124.0,127.0,127.0,100.0,85.0,-77.0
111.0,118.0,122.0,138.0,127.0,127.0,126.0,128.0,23.0,-98.0,-83.0,124.0,127.0,-128.0,101.0,85.0,-77.0
111.0,118.0,122.0,138.0,127.0,127.0,127.0,128.0,23.0,-98.0,-83.0,124.0,127.0,-128.0,101.0,85.0,-77.0
111.0,118.0,121.0,138.0,127.0,127.0,127.0,128.0,23.0,-98.0,-83.0,124.0,127.0,-128.0,101.0,85.0,-77.0
111.0,118.0,121.0,138.0,127.0,127.0,127.0,128.0,23.0,-98.0,-83.0,124.0,127.0,-128.0,101.0,85.0,-77.0
111.0,118.0,121.0,138.0,127.0,127.0,127.0,128.0,23.0,-98.0,-83.0,124.0,127.0,-128.0,101.0,85.0,-77.0
111.0,118.0,120.0,138.0,127.0,127.0,126.0,128.0,23.0,-98.0,-83.0,124.0,127.0,-128.0,101.0,85.0,-77.0
111.0,118.0,120.0,138.0,127.0,127.0,126.0,128.0,23.0,-98.0,-83.0,124.0,127.0,-128.0,101.0,85.0,-77.0
110.0,118.0,122.0,138.0,127.0,127.0,127.0,128.0,23.0,-98.0,-83.0,124.0,127.0,-128.0,101.0,85.0,-77.0
110.0,118.0,122.0,138.0,127.0,127.0,127.0,128.0,23.0,-98.0,-83.0,124.0,127.0,-128.0,101.0,85.0,-77.0
111.0,118.0,122.0,138.0,127.0,126.0,127.0,128.0,23.0,-98.0,-83.0,124.0,127.0,-128.0,101.0,85.0,-77.0
114.0,119.0,127.0,138.0,126.0,127.0,125.0,128.0,23.0,-99.0,-82.0,124.0,127.0,-128.0,101.0,85.0,-77.0
114.0,119.0,128.0,138.0,126.0,126.0,125.0,128.0,23.0,-99.0,-82.0,124.0,127.0,-128.0,101.0,85.0,-77.0
114.0,119.0,128.0,138.0,126.0,127.0,125.0,128.0,23.0,-99.0,-82.0,124.0,127.0,-128.0,101.0,85.0,-77.0
115.0,118.0,128.0,138.0,126.0,127.0,125.0,128.0,23.0,-99.0,-82.0,124.0,127.0,-128.0,101.0,85.0,-77.0
115.0,118.0,129.0,138.0,126.0,127.0,125.0,128.0,23.0,-99.0,-82.0,124.0,127.0,-128.0,101.0,85.0,-77.0
115.0,118.0,129.0,138.0,126.0,127.0,125.0,128.0,23.0,-99.0,-82.0,124.0,127.0,-128.0,101.0,85.0,-77.0
114.0,118.0,126.0,138.0,126.0,127.0,125.0,128.0,23.0,-99.0,-82.0,124.0,127.0,-128.0,101.0,85.0,-77.0
114.0,119.0,126.0,138.0,126.0,127.0,125.0,128.0,23.0,-99.0,-82.0,124.0,127.0,-128.0,101.0,85.0,-77.0
114.0,119.0,126.0,138.0,126.0,127.0,125.0,128.0,23.0,-99.0,-82.0,124.0,127.0,-128.0,101.0,85.0,-77.0
114.0,119.0,127.0,138.0,126.0,127.0,125.0,128.0,23.0,-99.0,-82.0,124.0,127.0,-128.0,101.0,85.0,-77.0
116.0,119.0,130.0,138.0,126.0,127.0,124.0,128.0,23.0,-100.0,-81.0,124.0,127.0,-128.0,102.0,85.0,-77.0
116.0,119.0,131.0,138.0,126.0,127.0,124.0,128.0,23.0,-100.0,-81.0,124.0,127.0,-128.0,102.0,85.0,-77.0
116.0,118.0,131.0,138.0,126.0,127.0,124.0,128.0,23.0,-100.0,-81.0,124.0,127.0,-128.0,102.0,85.0,-77.0
116.0,118.0,131.0,138.0,126.0,127.0,124.0,128.0,23.0,-100.0,-81.0,124.0,127.0,-128.0,102.0,85.0,-77.0
116.0,118.0,131.0,138.0,126.0,127.0,124.0,128.0,23.0,-100.0,-81.0,124.0,127.0,-128.0,102.0,85.0,-77.0
116.0,119.0,130.0,138.0,127.0,126.0,124.0,128.0,23.0,-100.0,-81.0,124.0,127.0,-128.0,102.0,85.0,-77.0
116.0,119.0,130.0,138.0,127.0,126.0,124.0,128.0,23.0,-100.0,-81.0,124.0,127.0,-128.0,102.0,85.0,-77.0
116.0,119.0,130.0,138.0,127.0,126.0,124.0,128.0,23.0,-100.0,-81.0,124.0,127.0,-128.0,102.0,85.0,-77.0
116.0,119.0,130.0,138.0,127.0,127.0,124.0,128.0,23.0,-100.0,-81.0,124.0,127.0,-128.0,102.0,85.0,-77.0
116.0,119.0,130.0,138.0,127.0,127.0,124.0,128.0,23.0,-100.0,-81.0,124.0,127.0,-128.0,102.0,85.0,-77.0
116.0,120.0,130.0,139.0,127.0,126.0,126.0,128.0,24.0,-100.0,-81.0,124.0,127.0,-128.0,103.0,85.0,-77.0
116.0,120.0,130.0,139.0,126.0,127.0,126.0,128.0,24.0,-100.0,-81.0,124.0,127.0,-128.0,103.0,85.0,-77.0
116.0,120.0,130.0,139.0,126.0,127.0,126.0,128.0,24.0,-100.0,-81.0,124.0,127.0,-128.0,103.0,85.0,-77.0
116.0,119.0,130.0,139.0,126.0,127.0,126.0,128.0,24.0,-100.0,-81.0,124.0,127.0,-128.0,103.0,85.0,-77.0
116.0,120.0,131.0,138.0,127.0,126.0,125.0,128.0,24.0,-100.0,-81.0,124.0,127.0,-128.0,103.0,85.0,-77.0
116.0,120.0,131.0,138.0,127.0,127.0,125.0,128.0,24.0,-100.0,-81.0,124.0,127.0,-128.0,103.0,85.0,-77.0
116.0,120.0,130.0,138.0,127.0,127.0,125.0,128.0,24.0,-100.0,-81.0,124.0,127.0,-128.0,103.0,85.0,-77.0
116.0,120.0,130.0,139.0,127.0,126.0,125.0,128.0,24.0,-100.0,-81.0,124.0,127.0,-128.0,103.0,85.0,-77.0
116.0,120.0,130.0,139.0,127.0,127.0,126.0,128.0,24.0,-100.0,-81.0,124.0,127.0,-128.0,103.0,85.0,-77.0
116.0,120.0,130.0,139.0,127.0,126.0,126.0,128.0,24.0,-100.0,-81.0,124.0,127.0,-128.0,103.0,85.0,-77.0
113.0,120.0,132.0,139.0,126.0,126.0,126.0,128.0,24.0,-101.0,-80.0,124.0,127.0,-128.0,104.0,85.0,-77.0
113.0,120.0,132.0,139.0,126.0,126.0,127.0,128.0,24.0,-101.0,-80.0,124.0,127.0,-128.0,104.0,85.0,-77.0
113.0,120.0,133.0,139.0,126.0,126.0,127.0,128.0,24.0,-101.0,-80.0,124.0,127.0,-128.0,104.0,85.0,-77.0
113.0,120.0,132.0,140.0,126.0,126.0,126.0,128.0,24.0,-101.0,-80.0,124.0,127.0,-128.0,104.0,85.0,-77.0
113.0,120.0,131.0,140.0,126.0,126.0,126.0,128.0,24.0,-101.0,-80.0,124.0,127.0,-128.0,104.0,85.0,-77.0
113.0,121.0,131.0,140.0,126.0,126.0,126.0,128.0,24.0,-101.0,-80.0,124.0,127.0,-128.0,104.0,85.0,-77.0
113.0,121.0,132.0,140.0,126.0,126.0,126.0,128.0,24.0,-101.0,-80.0,124.0,127.0,-128.0,104.0,85.0,-77.0
113.0,120.0,132.0,140.0,126.0,126.0,126.0,128.0,24.0,-101.0,-80.0,124.0,127.0,-128.0,104.0,85.0,-77.0
113.0,120.0,132.0,139.0,126.0,126.0,126.0,128.0,24.0,-101.0,-80.0,124.0,127.0,-128.0,104.0,85.0,-77.0
113.0,120.0,132.0,139.0,126.0,126.0,126.0,128.0,24.0,-101.0,-80.0,124.0,127.0,-128.0,104.0,85.0,-77.0
113.0,120.0,135.0,139.0,127.0,126.0,127.0,128.0,24.0,-101.0,-79.0,124.0,127.0,-128.0,104.0,85.0,-77.0
113.0,120.0,135.0,139.0,126.0,127.0,127.0,127.0,24.0,-101.0,-79.0,124.0,127.0,-128.0,104.0,85.0,-77.0
113.0,120.0,135.0,139.0,126.0,127.0,127.0,127.0,24.0,-101.0,-79.0,124.0,127.0,-128.0,104.0,85.0,-77.0
113.0,120.0,135.0,139.0,127.0,126.0,127.0,127.0,24.0,-101.0,-79.0,124.0,127.0,-128.0,104.0,85.0,-77.0
113.0,120.0,135.0,139.0,127.0,126.0,127.0,128.0,24.0,-101.0,-79.0,124.0,127.0,-128.0,104.0,85.0,-77.0
113.0,120.0,135.0,139.0,127.0,126.0,127.0,128.0,24.0,-101.0,-79.0,124.0,127.0,-128.0,104.0,85.0,-77.0
113.0,120.0,135.0,139.0,127.0,126.0,127.0,128.0,24.0,-101.0,-79.0,124.0,127.0,-128.0,104.0,85.0,-77.0
113.0,120.0,135.0,139.0,127.0,126.0,127.0,128.0,24.0,-101.0,-79.0,124.0,127.0,-128.0,104.0,85.0,-77.0
113.0,120.0,135.0,139.0,127.0,126.0,127.0,128.0,24.0,-101.0,-79.0,124.0,127.0,-128.0,104.0,85.0,-77.0
113.0,120.0,135.0,139.0,127.0,127.0,127.0,128.0,24.0,-101.0,-79.0,124.0,127.0,-128.0,104.0,85.0,-77.0
113.0,120.0,127.0,139.0,127.0,127.0,126.0,127.0,24.0,-101.0,-78.0,124.0,127.0,-128.0,104.0,85.0,-77.0
113.0,120.0,127.0,139.0,127.0,127.0,126.0,128.0,24.0,-101.0,-78.0,124.0,127.0,-128.0,104.0,85.0,-77.0
113.0,120.0,127.0,138.0,127.0,127.0,126.0,128.0,24.0,-101.0,-78.0,124.0,127.0,-128.0,104.0,85.0,-77.0
113.0,120.0,127.0,138.0,127.0,127.0,126.0,128.0,24.0,-101.0,-78.0,124.0,127.0,-128.0,104.0,85.0,-77.0
113.0,120.0,127.0,138.0,127.0,127.0,126.0,127.0,24.0,-101.0,-78.0,124.0,127.0,-128.0,104.0,85.0,-77.0
113.0,120.0,127.0,138.0,127.0,127.0,126.0,127.0,24.0,-101.0,-78.0,124.0,127.0,-128.0,104.0,85.0,-77.0
113.0,120.0,127.0,138.0,127.0,127.0,126.0,128.0,24.0,-101.0,-78.0,124.0,127.0,-128.0,104.0,85.0,-77.0
113.0,120.0,127.0,138.0,127.0,127.0,126.0,128.0,24.0,-101.0,-78.0,124.0,127.0,-128.0,104.0,85.0,-77.0
113.0,120.0,127.0,138.0,127.0,127.0,126.0,128.0,24.0,-101.0,-78.0,124.0,127.0,-128.0,104.0,85.0,-77.0
113.0,120.0,127.0,138.0,127.0,127.0,126.0,127.0,24.0,-101.0,-78.0,124.0,127.0,-128.0,104.0,85.0,-77.0
116.0,122.0,128.0,137.0,126.0,126.0,125.0,128.0,24.0,-101.0,-77.0,124.0,127.0,-128.0,105.0,85.0,-77.0
116.0,122.0,128.0,137.0,126.0,126.0,125.0,128.0,24.0,-101.0,-77.0,124.0,127.0,-128.0,105.0,85.0,-77.0
116.0,121.0,128.0,137.0,126.0,127.0,125.0,128.0,24.0,-101.0,-77.0,124.0,127.0,-128.0,105.0,85.0,-77.0
116.0,122.0,128.0,137.0,126.0,126.0,125.0,128.0,24.0,-101.0,-77.0,124.0,127.0,-128.0,105.0,85.0,-77.0
116.0,122.0,128.0,137.0,126.0,127.0,125.0,128.0,24.0,-101.0,-77.0,124.0,127.0,-128.0,105.0,85.0,-77.0
116.0,121.0,128.0,137.0,126.0,127.0,125.0,128.0,24.0,-101.0,-77.0,124.0,127.0,-128.0,105.0,85.0,-77.0
116.0,121.0,128.0,137.0,126.0,127.0,125.0,128.0,24.0,-101.0,-77.0,124.0,127.0,-128.0,105.0,85.0,-77.0
116.0,121.0,128.0,137.0,126.0,127.0,125.0,128.0,24.0,-101.0,-77.0,124.0,127.0,-128.0,105.0,85.0,-77.0
116.0,121.0,128.0,137.0,126.0,127.0,125.0,127.0,24.0,-101.0,-77.0,124.0,127.0,-128.0,105.0,85.0,-77.0
116.0,122.0,128.0,137.0,126.0,126.0,125.0,128.0,24.0,-101.0,-77.0,124.0,127.0,-128.0,105.0,85.0,-77.0
117.0,123.0,123.0,137.0,126.0,126.0,126.0,128.0,24.0,-102.0,-76.0,124.0,127.0,-128.0,106.0,85.0,-77.0
117.0,122.0,123.0,137.0,126.0,126.0,126.0,128.0,24.0,-102.0,-76.0,124.0,127.0,-128.0,106.0,85.0,-77.0
118.0,123.0,123.0,137.0,126.0,126.0,126.0,128.0,24.0,-102.0,-76.0,124.0,127.0,-128.0,106.0,85.0,-77.0
117.0,123.0,123.0,137.0,126.0,126.0,126.0,128.0,24.0,-102.0,-76.0,124.0,127.0,-128.0,106.0,85.0,-77.0
118.0,122.0,123.0,137.0,126.0,127.0,126.0,128.0,24.0,-102.0,-76.0,124.0,127.0,-128.0,106.0,85.0,-77.0
118.0,122.0,123.0,137.0,126.0,127.0,126.0,128.0,24.0,-102.0,-76.0,124.0,127.0,-128.0,106.0,85.0,-77.0
118.0,122.0,123.0,137.0,126.0,127.0,126.0,128.0,24.0,-102.0,-76.0,124.0,127.0,-128.0,106.0,85.0,-77.0
118.0,122.0,124.0,137.0,126.0,127.0,126.0,128.0,24.0,-102.0,-76.0,124.0,127.0,-128.0,106.0,85.0,-77.0
117.0,123.0,123.0,137.0,126.0,126.0,126.0,128.0,24.0,-102.0,-76.0,124.0,127.0,-128.0,106.0,85.0,-77.0
117.0,123.0,123.0,137.0,126.0,126.0,126.0,128.0,24.0,-102.0,-76.0,124.0,127.0,-128.0,106.0,85.0,-77.0
118.0,123.0,129.0,137.0,126.0,126.0,128.0,127.0,24.0,-102.0,-76.0,125.0,127.0,-128.0,106.0,85.0,-77.0
118.0,123.0,129.0,137.0,126.0,126.0,128.0,127.0,24.0,-102.0,-76.0,125.0,127.0,-128.0,106.0,85.0,-77.0
118.0,123.0,129.0,137.0,126.0,126.0,128.0,127.0,24.0,-102.0,-76.0,125.0,127.0,-128.0,106.0,85.0,-77.0
118.0,123.0,130.0,137.0,126.0,126.0,128.0,127.0,24.0,-102.0,-76.0,125.0,127.0,-128.0,106.0,85.0,-77.0
118.0,123.0,130.0,137.0,126.0,126.0,128.0,127.0,24.0,-102.0,-76.0,125.0,127.0,-128.0,106.0,85.0,-77.0
118.0,123.0,130.0,137.0,126.0,127.0,128.0,127.0,24.0,-102.0,-76.0,125.0,127.0,-128.0,106.0,85.0,-77.0
118.0,123.0,130.0,137.0,126.0,127.0,128.0,127.0,24.0,-102.0,-76.0,125.0,127.0,-128.0,106.0,85.0,-77.0
118.0,123.0,129.0,137.0,126.0,126.0,127.0,127.0,24.0,-102.0,-76.0,125.0,127.0,-128.0,106.0,85.0,-77.0
118.0,123.0,129.0,137.0,126.0,126.0,128.0,127.0,24.0,-102.0,-76.0,125.0,127.0,-128.0,106.0,85.0,-77.0
118.0,123.0,129.0,137.0,126.0,126.0,128.0,127.0,24.0,-102.0,-76.0,125.0,127.0,-128.0,106.0,85.0,-77.0
118.0,123.0,124.0,137.0,126.0,126.0,128.0,127.0,24.0,-102.0,-75.0,125.0,127.0,-128.0,107.0,85.0,-77.0
118.0,123.0,124.0,137.0,126.0,126.0,128.0,127.0,24.0,-102.0,-75.0,125.0,127.0,-128.0,107.0,85.0,-77.0
118.0,123.0,124.0,137.0,126.0,126.0,128.0,127.0,24.0,-102.0,-75.0,125.0,127.0,-128.0,107.0,85.0,-77.0
118.0,123.0,124.0,137.0,126.0,127.0,128.0,127.0,24.0,-102.0,-75.0,125.0,127.0,-128.0,107.0,85.0,-77.0
118.0,123.0,124.0,137.0,126.0,127.0,128.0,127.0,24.0,-102.0,-75.0,125.0,127.0,-128.0,107.0,85.0,-77.0
118.0,123.0,124.0,137.0,126.0,127.0,128.0,127.0,24.0,-102.0,-75.0,125.0,127.0,-128.0,107.0,85.0,-77.0
118.0,123.0,124.0,137.0,126.0,126.0,128.0,127.0,24.0,-102.0,-75.0,125.0,127.0,-128.0,107.0,85.0,-77.0
118.0,123.0,124.0,137.0,126.0,126.0,128.0,127.0,24.0,-102.0,-75.0,125.0,127.0,-128.0,107.0,85.0,-77.0
118.0,123.0,124.0,137.0,126.0,126.0,128.0,127.0,24.0,-102.0,-75.0,125.0,127.0,-128.0,107.0,85.0,-77.0
118.0,123.0,124.0,137.0,126.0,126.0,128.0,127.0,24.0,-102.0,-75.0,125.0,127.0,-128.0,107.0,85.0,-77.0
116.0,122.0,125.0,136.0,126.0,126.0,127.0,127.0,24.0,-102.0,-75.0,125.0,127.0,-128.0,108.0,85.0,-77.0
116.0,122.0,125.0,136.0,126.0,127.0,127.0,127.0,24.0,-102.0,-75.0,125.0,127.0,-128.0,108.0,85.0,-77.0
116.0,122.0,125.0,136.0,126.0,127.0,127.0,127.0,24.0,-102.0,-75.0,125.0,127.0,-128.0,108.0,85.0,-77.0
116.0,122.0,125.0,136.0,126.0,127.0,127.0,127.0,24.0,-102.0,-75.0,125.0,127.0,-128.0,108.0,85.0,-77.0
116.0,122.0,124.0,136.0,126.0,127.0,127.0,127.0,24.0,-102.0,-75.0,125.0,127.0,-128.0,108.0,85.0,-77.0
117.0,123.0,125.0,136.0,127.0,126.0,127.0,127.0,24.0,-102.0,-75.0,125.0,127.0,-128.0,108.0,85.0,-77.0
117.0,123.0,125.0,136.0,127.0,126.0,127.0,127.0,24.0,-102.0,-75.0,125.0,127.0,-128.0,108.0,85.0,-77.0
117.0,123.0,125.0,136.0,126.0,126.0,127.0,127.0,24.0,-102.0,-75.0,125.0,127.0,-128.0,108.0,85.0,-77.0
117.0,123.0,125.0,136.0,126.0,126.0,127.0,127.0,24.0,-102.0,-75.0,125.0,127.0,-128.0,108.0,85.0,-77.0
117.0,122.0,125.0,136.0,126.0,126.0,127.0,127.0,24.0,-102.0,-75.0,125.0,127.0,-128.0,108.0,85.0,-77.0
114.0,121.0,118.0,135.0,127.0,127.0,127.0,127.0,24.0,-102.0,-75.0,125.0,127.0,-128.0,108.0,85.0,-76.0
114.0,121.0,118.0,135.0,127.0,127.0,127.0,127.0,24.0,-102.0,-75.0,125.0,127.0,-128.0,108.0,85.0,-76.0
114.0,121.0,118.0,135.0,127.0,127.0,127.0,127.0,24.0,-102.0,-75.0,125.0,127.0,-128.0,108.0,85.0,-76.0
114.0,121.0,118.0,135.0,127.0,127.0,127.0,127.0,24.0,-102.0,-75.0,125.0,127.0,-128.0,108.0,85.0,-76.0
114.0,122.0,119.0,135.0,127.0,126.0,126.0,127.0,24.0,-102.0,-75.0,125.0,127.0,-128.0,108.0,85.0,-76.0
114.0,122.0,119.0,135.0,127.0,126.0,126.0,127.0,24.0,-102.0,-75.0,125.0,127.0,-128.0,108.0,85.0,-76.0
114.0,122.0,119.0,135.0,127.0,127.0,126.0,127.0,24.0,-102.0,-75.0,125.0,127.0,-128.0,108.0,85.0,-76.0
114.0,122.0,119.0,135.0,127.0,126.0,126.0,127.0,24.0,-102.0,-75.0,125.0,127.0,-128.0,108.0,85.0,-76.0
114.0,122.0,119.0,135.0,127.0,126.0,127.0,127.0,24.0,-102.0,-75.0,125.0,127.0,-128.0,108.0,85.0,-76.0
114.0,121.0,118.0,135.0,127.0,126.0,127.0,127.0,24.0,-102.0,-75.0,125.0,127.0,-128.0,108.0,85.0,-76.0
117.0,122.0,112.0,134.0,127.0,127.0,126.0,128.0,24.0,-102.0,-74.0,125.0,127.0,-128.0,108.0,85.0,-76.0
117.0,122.0,112.0,134.0,127.0,127.0,126.0,128.0,24.0,-102.0,-74.0,125.0,127.0,-128.0,108.0,85.0,-76.0
117.0,122.0,113.0,134.0,127.0,127.0,126.0,128.0,24.0,-102.0,-74.0,125.0,127.0,-128.0,108.0,85.0,-76.0
116.0,122.0,110.0,134.0,127.0,126.0,126.0,127.0,24.0,-102.0,-74.0,125.0,127.0,-128.0,108.0,85.0,-76.0
116.0,122.0,110.0,134.0,127.0,126.0,126.0,127.0,24.0,-102.0,-74.0,125.0,127.0,-128.0,108.0,85.0,-76.0
116.0,122.0,111.0,134.0,127.0,126.0,126.0,128.0,24.0,-102.0,-74.0,125.0,127.0,-128.0,108.0,85.0,-76.0
116.0,122.0,111.0,134.0,127.0,126.0,126.0,128.0,24.0,-102.0,-74.0,125.0,127.0,-128.0,108.0,85.0,-76.0
116.0,122.0,111.0,134.0,127.0,126.0,126.0,128.0,24.0,-102.0,-74.0,125.0,127.0,-128.0,108.0,85.0,-76.0
116.0,122.0,111.0,134.0,127.0,126.0,126.0,128.0,24.0,-102.0,-74.0,125.0,127.0,-128.0,108.0,85.0,-76.0
116.0,122.0,112.0,134.0,127.0,127.0,126.0,128.0,24.0,-102.0,-74.0,125.0,127.0,-128.0,108.0,85.0,-76.0
119.0,123.0,136.0,134.0,127.0,127.0,125.0,128.0,25.0,-102.0,-74.0,125.0,127.0,-128.0,109.0,85.0,-76.0
119.0,123.0,136.0,134.0,127.0,127.0,125.0,128.0,25.0,-102.0,-74.0,125.0,127.0,-128.0,109.0,85.0,-76.0
119.0,123.0,134.0,134.0,127.0,127.0,125.0,128.0,25.0,-102.0,-74.0,125.0,127.0,-128.0,109.0,85.0,-76.0
119.0,123.0,134.0,134.0,127.0,127.0,125.0,128.0,25.0,-102.0,-74.0,125.0,127.0,-128.0,109.0,85.0,-76.0
119.0,123.0,135.0,134.0,127.0,127.0,125.0,128.0,25.0,-102.0,-74.0,125.0,127.0,-128.0,109.0,85.0,-76.0
119.0,123.0,135.0,134.0,127.0,127.0,125.0,128.0,25.0,-102.0,-74.0,125.0,127.0,-128.0,109.0,85.0,-76.0
119.0,123.0,134.0,134.0,127.0,126.0,125.0,128.0,25.0,-102.0,-74.0,125.0,127.0,-128.0,109.0,85.0,-76.0
119.0,123.0,135.0,134.0,127.0,127.0,125.0,128.0,25.0,-102.0,-74.0,125.0,127.0,-128.0,109.0,85.0,-76.0
119.0,123.0,135.0,134.0,127.0,127.0,125.0,128.0,25.0,-102.0,-74.0,125.0,127.0,-128.0,109.0,85.0,-76.0
119.0,123.0,136.0,134.0,127.0,127.0,125.0,128.0,25.0,-102.0,-74.0,125.0,127.0,-128.0,109.0,85.0,-76.0
121.0,124.0,138.0,133.0,127.0,127.0,126.0,128.0,25.0,-103.0,-73.0,125.0,127.0,-128.0,110.0,85.0,-76.0
120.0,124.0,138.0,133.0,127.0,127.0,125.0,128.0,25.0,-103.0,-73.0,125.0,127.0,-128.0,110.0,85.0,-76.0
120.0,124.0,138.0,133.0,127.0,127.0,125.0,128.0,25.0,-103.0,-73.0,125.0,127.0,-128.0,110.0,85.0,-76.0
121.0,124.0,138.0,133.0,127.0,127.0,125.0,128.0,25.0,-103.0,-73.0,125.0,127.0,-128.0,110.0,85.0,-76.0
121.0,124.0,138.0,133.0,127.0,127.0,126.0,128.0,25.0,-103.0,-73.0,125.0,127.0,-128.0,110.0,85.0,-76.0
121.0,124.0,138.0,133.0,127.0,127.0,126.0,128.0,25.0,-103.0,-73.0,125.0,127.0,-128.0,110.0,85.0,-76.0
121.0,124.0,138.0,133.0,127.0,127.0,126.0,128.0,25.0,-103.0,-73.0,125.0,127.0,-128.0,110.0,85.0,-76.0
121.0,124.0,138.0,133.0,127.0,127.0,126.0,128.0,25.0,-103.0,-73.0,125.0,127.0,-128.0,110.0,85.0,-76.0
121.0,124.0,138.0,133.0,127.0,127.0,126.0,128.0,25.0,-103.0,-73.0,125.0,127.0,-128.0,110.0,85.0,-76.0
121.0,124.0,138.0,133.0,127.0,127.0,126.0,128.0,25.0,-103.0,-73.0,125.0,127.0,-128.0,110.0,85.0,-76.0
121.0,124.0,136.0,133.0,127.0,126.0,127.0,128.0,25.0,-103.0,-73.0,125.0,127.0,-128.0,110.0,85.0,-76.0
121.0,124.0,135.0,133.0,127.0,126.0,127.0,128.0,25.0,-103.0,-73.0,125.0,127.0,-128.0,110.0,85.0,-76.0
121.0,123.0,135.0,133.0,127.0,126.0,127.0,128.0,25.0,-103.0,-73.0,125.0,127.0,-128.0,110.0,85.0,-76.0
121.0,123.0,136.0,133.0,127.0,126.0,127.0,128.0,25.0,-103.0,-73.0,125.0,127.0,-128.0,110.0,85.0,-76.0
121.0,123.0,136.0,133.0,127.0,127.0,127.0,128.0,25.0,-103.0,-73.0,125.0,127.0,-128.0,110.0,85.0,-76.0
121.0,123.0,136.0,132.0,127.0,127.0,127.0,128.0,25.0,-103.0,-73.0,125.0,127.0,-128.0,110.0,85.0,-76.0
121.0,123.0,136.0,132.0,127.0,127.0,127.0,128.0,25.0,-103.0,-73.0,125.0,127.0,-128.0,110.0,85.0,-76.0
121.0,123.0,136.0,132.0,127.0,127.0,127.0,128.0,25.0,-103.0,-73.0,125.0,127.0,-128.0,110.0,85.0,-76.0
121.0,123.0,136.0,132.0,127.0,127.0,127.0,128.0,25.0,-103.0,-73.0,125.0,127.0,-128.0,110.0,85.0,-76.0
122.0,123.0,136.0,132.0,127.0,127.0,127.0,128.0,25.0,-103.0,-73.0,125.0,127.0,-128.0,110.0,85.0,-76.0
121.0,124.0,131.0,132.0,127.0,126.0,127.0,128.0,25.0,-103.0,-73.0,125.0,127.0,-128.0,111.0,85.0,-75.0
121.0,124.0,131.0,132.0,127.0,126.0,127.0,128.0,25.0,-103.0,-73.0,125.0,127.0,-128.0,111.0,85.0,-75.0
121.0,123.0,131.0,132.0,127.0,126.0,127.0,128.0,25.0,-103.0,-73.0,125.0,127.0,-128.0,111.0,85.0,-75.0
121.0,123.0,131.0,132.0,127.0,126.0,127.0,128.0,25.0,-103.0,-73.0,125.0,127.0,-128.0,111.0,85.0,-75.0
121.0,123.0,131.0,132.0,127.0,127.0,127.0,128.0,25.0,-103.0,-73.0,125.0,127.0,-128.0,111.0,85.0,-75.0
121.0,123.0,131.0,132.0,127.0,127.0,127.0,128.0,25.0,-103.0,-73.0,125.0,127.0,-128.0,111.0,85.0,-75.0
121.0,123.0,131.0,132.0,127.0,127.0,127.0,128.0,25.0,-103.0,-73.0,125.0,127.0,-128.0,111.0,85.0,-75.0
121.0,123.0,130.0,132.0,127.0,127.0,127.0,128.0,25.0,-103.0,-73.0,125.0,127.0,-128.0,111.0,85.0,-75.0
121.0,123.0,130.0,132.0,127.0,127.0,127.0,128.0,25.0,-103.0,-73.0,125.0,127.0,-128.0,111.0,85.0,-75.0
121.0,124.0,131.0,132.0,127.0,126.0,127.0,128.0,25.0,-103.0,-73.0,125.0,127.0,-128.0,111.0,85.0,-75.0
120.0,124.0,125.0,132.0,126.0,126.0,126.0,128.0,25.0,-103.0,-73.0,125.0,127.0,-128.0,111.0,85.0,-75.0
120.0,124.0,125.0,132.0,126.0,126.0,126.0,128.0,25.0,-103.0,-73.0,125.0,127.0,-128.0,111.0,85.0,-75.0
120.0,124.0,125.0,132.0,126.0,127.0,126.0,127.0,25.0,-103.0,-73.0,125.0,127.0,-128.0,111.0,85.0,-75.0
121.0,123.0,125.0,132.0,126.0,127.0,126.0,128.0,25.0,-103.0,-73.0,125.0,127.0,-128.0,111.0,85.0,-75.0
120.0,123.0,125.0,132.0,126.0,127.0,126.0,127.0,25.0,-103.0,-73.0,125.0,127.0,-128.0,111.0,85.0,-75.0
121.0,123.0,125.0,132.0,126.0,127.0,127.0,127.0,25.0,-103.0,-73.0,125.0,127.0,-128.0,111.0,85.0,-75.0
121.0,123.0,125.0,132.0,126.0,127.0,126.0,127.0,25.0,-103.0,-73.0,125.0,127.0,-128.0,111.0,85.0,-75.0
121.0,123.0,125.0,132.0,126.0,127.0,126.0,127.0,25.0,-103.0,-73.0,125.0,127.0,-128.0,111.0,85.0,-75.0
120.0,124.0,125.0,132.0,126.0,126.0,126.0,128.0,25.0,-103.0,-73.0,125.0,127.0,-128.0,111.0,85.0,-75.0
120.0,124.0,125.0,132.0,126.0,126.0,126.0,128.0,25.0,-103.0,-73.0,125.0,127.0,-128.0,111.0,85.0,-75.0
120.0,125.0,127.0,132.0,126.0,126.0,127.0,128.0,25.0,-103.0,-73.0,126.0,127.0,127.0,111.0,85.0,-75.0
120.0,125.0,127.0,132.0,126.0,126.0,127.0,128.0,25.0,-103.0,-73.0,126.0,127.0,127.0,111.0,85.0,-75.0
120.0,125.0,127.0,132.0,126.0,127.0,127.0,128.0,25.0,-103.0,-73.0,126.0,127.0,127.0,111.0,85.0,-75.0
120.0,125.0,127.0,132.0,126.0,127.0,127.0,128.0,25.0,-103.0,-73.0,126.0,127.0,127.0,111.0,85.0,-75.0
120.0,125.0,127.0,132.0,126.0,127.0,127.0,128.0,25.0,-103.0,-73.0,126.0,127.0,127.0,111.0,85.0,-75.0
120.0,125.0,127.0,132.0,126.0,127.0,127.0,128.0,25.0,-103.0,-73.0,126.0,127.0,127.0,111.0,85.0,-75.0
120.0,125.0,127.0,132.0,126.0,127.0,127.0,128.0,25.0,-103.0,-73.0,126.0,127.0,127.0,111.0,85.0,-75.0
120.0,125.0,127.0,131.0,126.0,126.0,127.0,128.0,25.0,-103.0,-73.0,126.0,127.0,127.0,111.0,85.0,-75.0
120.0,125.0,127.0,132.0,126.0,126.0,127.0,128.0,25.0,-103.0,-73.0,126.0,127.0,127.0,111.0,85.0,-75.0
120.0,125.0,127.0,132.0,126.0,126.0,127.0,128.0,25.0,-103.0,-73.0,126.0,127.0,127.0,111.0,85.0,-75.0
120.0,125.0,125.0,132.0,126.0,126.0,127.0,128.0,25.0,-103.0,-73.0,126.0,127.0,127.0,112.0,85.0,-75.0
120.0,125.0,124.0,132.0,126.0,127.0,127.0,128.0,25.0,-103.0,-73.0,126.0,127.0,127.0,112.0,85.0,-75.0
120.0,125.0,124.0,132.0,126.0,127.0,127.0,128.0,25.0,-103.0,-73.0,126.0,127.0,127.0,112.0,85.0,-75.0
120.0,125.0,125.0,132.0,126.0,127.0,127.0,128.0,25.0,-103.0,-73.0,126.0,127.0,127.0,112.0,85.0,-75.0
120.0,125.0,125.0,131.0,126.0,127.0,127.0,128.0,25.0,-103.0,-73.0,126.0,127.0,127.0,112.0,85.0,-75.0
120.0,126.0,124.0,131.0,126.0,126.0,127.0,128.0,25.0,-103.0,-73.0,126.0,127.0,127.0,112.0,85.0,-75.0
120.0,126.0,124.0,132.0,126.0,126.0,127.0,128.0,25.0,-103.0,-73.0,126.0,127.0,127.0,112.0,85.0,-75.0
120.0,126.0,124.0,132.0,126.0,127.0,127.0,128.0,25.0,-103.0,-73.0,126.0,127.0,127.0,112.0,85.0,-75.0
120.0,126.0,124.0,132.0,126.0,126.0,127.0,128.0,25.0,-103.0,-73.0,126.0,127.0,127.0,112.0,85.0,-75.0
120.0,126.0,124.0,132.0,126.0,126.0,127.0,128.0,25.0,-103.0,-73.0,126.0,127.0,127.0,112.0,85.0,-75.0
120.0,125.0,118.0,131.0,126.0,127.0,127.0,128.0,25.0,-103.0,-73.0,126.0,127.0,127.0,112.0,85.0,-75.0
120.0,125.0,118.0,131.0,126.0,127.0,127.0,128.0,25.0,-103.0,-73.0,126.0,127.0,127.0,112.0,85.0,-75.0
120.0,125.0,118.0,131.0,126.0,127.0,127.0,128.0,25.0,-103.0,-73.0,126.0,127.0,127.0,112.0,85.0,-75.0
120.0,125.0,119.0,130.0,126.0,127.0,127.0,128.0,25.0,-103.0,-73.0,126.0,127.0,127.0,112.0,85.0,-75.0
120.0,125.0,118.0,131.0,126.0,126.0,126.0,128.0,25.0,-103.0,-73.0,126.0,127.0,127.0,112.0,85.0,-75.0
120.0,125.0,118.0,131.0,126.0,126.0,126.0,128.0,25.0,-103.0,-73.0,126.0,127.0,127.0,112.0,85.0,-75.0
120.0,125.0,118.0,131.0,126.0,126.0,126.0,128.0,25.0,-103.0,-73.0,126.0,127.0,127.0,112.0,85.0,-75.0
120.0,125.0,118.0,131.0,126.0,126.0,126.0,128.0,25.0,-103.0,-73.0,126.0,127.0,127.0,112.0,85.0,-75.0
120.0,125.0,118.0,131.0,126.0,126.0,127.0,128.0,25.0,-103.0,-73.0,126.0,127.0,127.0,112.0,85.0,-75.0
120.0,125.0,118.0,131.0,126.0,126.0,127.0,128.0,25.0,-103.0,-73.0,126.0,127.0,127.0,112.0,85.0,-75.0
119.0,125.0,124.0,130.0,127.0,127.0,127.0,127.0,25.0,-103.0,-73.0,126.0,127.0,127.0,113.0,85.0,-75.0
119.0,125.0,124.0,130.0,127.0,127.0,127.0,127.0,25.0,-103.0,-73.0,126.0,127.0,127.0,113.0,85.0,-75.0
119.0,125.0,123.0,130.0,127.0,126.0,126.0,127.0,25.0,-103.0,-73.0,126.0,127.0,127.0,113.0,85.0,-75.0
119.0,125.0,126.0,130.0,127.0,127.0,127.0,127.0,25.0,-103.0,-73.0,126.0,127.0,127.0,113.0,85.0,-75.0
119.0,125.0,125.0,130.0,127.0,127.0,127.0,127.0,25.0,-103.0,-73.0,126.0,127.0,127.0,113.0,85.0,-75.0
119.0,125.0,125.0,130.0,127.0,127.0,127.0,127.0,25.0,-103.0,-73.0,126.0,127.0,127.0,113.0,85.0,-75.0
119.0,125.0,124.0,130.0,127.0,127.0,127.0,128.0,25.0,-103.0,-73.0,126.0,127.0,127.0,113.0,85.0,-75.0
119.0,125.0,124.0,130.0,127.0,127.0,127.0,128.0,25.0,-103.0,-73.0,126.0,127.0,127.0,113.0,85.0,-75.0
119.0,125.0,124.0,130.0,127.0,127.0,127.0,128.0,25.0,-103.0,-73.0,126.0,127.0,127.0,113.0,85.0,-75.0
119.0,125.0,124.0,130.0,127.0,127.0,127.0,127.0,25.0,-103.0,-73.0,126.0,127.0,127.0,113.0,85.0,-75.0
118.0,124.0,113.0,129.0,126.0,127.0,126.0,127.0,25.0,-104.0,-73.0,126.0,127.0,127.0,113.0,85.0,-74.0
118.0,124.0,113.0,129.0,126.0,126.0,126.0,127.0,25.0,-104.0,-73.0,126.0,127.0,127.0,113.0,85.0,-74.0
119.0,124.0,115.0,130.0,127.0,127.0,127.0,127.0,25.0,-104.0,-73.0,126.0,127.0,127.0,113.0,85.0,-74.0
119.0,124.0,115.0,130.0,127.0,127.0,127.0,127.0,25.0,-104.0,-73.0,126.0,127.0,127.0,113.0,85.0,-74.0
118.0,124.0,114.0,130.0,127.0,127.0,127.0,127.0,25.0,-104.0,-73.0,126.0,127.0,127.0,113.0,85.0,-74.0
118.0,125.0,114.0,130.0,127.0,127.0,126.0,127.0,25.0,-104.0,-73.0,126.0,127.0,127.0,113.0,85.0,-74.0
118.0,125.0,114.0,130.0,127.0,127.0,126.0,127.0,25.0,-104.0,-73.0,126.0,127.0,127.0,113.0,85.0,-74.0
118.0,124.0,114.0,130.0,127.0,127.0,126.0,127.0,25.0,-104.0,-73.0,126.0,127.0,127.0,113.0,85.0,-74.0
118.0,124.0,114.0,129.0,127.0,127.0,126.0,127.0,25.0,-104.0,-73.0,126.0,127.0,127.0,113.0,85.0,-74.0
118.0,124.0,113.0,129.0,127.0,127.0,126.0,127.0,25.0,-104.0,-73.0,126.0,127.0,127.0,113.0,85.0,-74.0
120.0,125.0,112.0,130.0,127.0,126.0,127.0,128.0,25.0,-104.0,-73.0,126.0,127.0,127.0,113.0,85.0,-74.0
119.0,124.0,111.0,130.0,127.0,127.0,127.0,127.0,25.0,-104.0,-73.0,126.0,127.0,127.0,113.0,85.0,-74.0
119.0,125.0,111.0,130.0,127.0,127.0,127.0,128.0,25.0,-104.0,-73.0,126.0,127.0,127.0,113.0,85.0,-74.0
119.0,125.0,111.0,130.0,127.0,127.0,127.0,128.0,25.0,-104.0,-73.0,126.0,127.0,127.0,113.0,85.0,-74.0
119.0,125.0,111.0,130.0,127.0,126.0,127.0,128.0,25.0,-104.0,-73.0,126.0,127.0,127.0,113.0,85.0,-74.0
119.0,125.0,111.0,130.0,127.0,127.0,127.0,128.0,25.0,-104.0,-73.0,126.0,127.0,127.0,113.0,85.0,-74.0
120.0,125.0,112.0,130.0,127.0,127.0,127.0,128.0,25.0,-104.0,-73.0,126.0,127.0,127.0,113.0,85.0,-74.0
120.0,125.0,112.0,130.0,127.0,127.0,127.0,128.0,25.0,-104.0,-73.0,126.0,127.0,127.0,113.0,85.0,-74.0
120.0,125.0,112.0,130.0,127.0,126.0,127.0,128.0,25.0,-104.0,-73.0,126.0,127.0,127.0,113.0,85.0,-74.0
120.0,125.0,113.0,130.0,127.0,127.0,127.0,128.0,25.0,-104.0,-73.0,126.0,127.0,127.0,113.0,85.0,-74.0
121.0,126.0,122.0,131.0,128.0,127.0,128.0,127.0,25.0,-104.0,-73.0,126.0,127.0,127.0,113.0,85.0,-74.0
121.0,126.0,122.0,130.0,128.0,127.0,128.0,127.0,25.0,-104.0,-73.0,126.0,127.0,127.0,113.0,85.0,-74.0
121.0,126.0,122.0,130.0,128.0,127.0,127.0,127.0,25.0,-104.0,-73.0,126.0,127.0,127.0,113.0,85.0,-74.0
121.0,126.0,122.0,130.0,128.0,127.0,127.0,127.0,25.0,-104.0,-73.0,126.0,127.0,127.0,113.0,85.0,-74.0
121.0,126.0,122.0,130.0,128.0,127.0,127.0,128.0,25.0,-104.0,-73.0,126.0,127.0,127.0,113.0,85.0,-74.0
121.0,126.0,122.0,130.0,128.0,127.0,127.0,128.0,25.0,-104.0,-73.0,126.0,127.0,127.0,113.0,85.0,-74.0
121.0,126.0,122.0,130.0,128.0,127.0,127.0,128.0,25.0,-104.0,-73.0,126.0,127.0,127.0,113.0,85.0,-74.0
121.0,126.0,122.0,130.0,128.0,127.0,127.0,128.0,25.0,-104.0,-73.0,126.0,127.0,127.0,113.0,85.0,-74.0
121.0,126.0,122.0,130.0,128.0,127.0,127.0,128.0,25.0,-104.0,-73.0,126.0,127.0,127.0,113.0,85.0,-74.0
121.0,126.0,122.0,130.0,128.0,126.0,127.0,127.0,25.0,-104.0,-73.0,126.0,127.0,127.0,113.0,85.0,-74.0
121.0,127.0,126.0,130.0,128.0,127.0,128.0,128.0,25.0,-104.0,-73.0,126.0,127.0,127.0,113.0,85.0,-74.0
122.0,127.0,126.0,131.0,128.0,127.0,128.0,128.0,25.0,-104.0,-73.0,126.0,127.0,127.0,113.0,85.0,-74.0
122.0,127.0,126.0,131.0,128.0,127.0,128.0,128.0,25.0,-104.0,-73.0,126.0,127.0,127.0,113.0,85.0,-74.0
122.0,127.0,126.0,131.0,128.0,127.0,128.0,128.0,25.0,-104.0,-73.0,126.0,127.0,127.0,113.0,85.0,-74.0
122.0,126.0,126.0,131.0,128.0,127.0,128.0,128.0,25.0,-104.0,-73.0,126.0,127.0,127.0,113.0,85.0,-74.0
122.0,126.0,126.0,131.0,128.0,127.0,128.0,128.0,25.0,-104.0,-73.0,126.0,127.0,127.0,113.0,85.0,-74.0
122.0,126.0,125.0,131.0,128.0,127.0,128.0,128.0,25.0,-104.0,-73.0,126.0,127.0,127.0,113.0,85.0,-74.0
122.0,126.0,125.0,131.0,128.0,127.0,128.0,128.0,25.0,-104.0,-73.0,126.0,127.0,127.0,113.0,85.0,-74.0
122.0,126.0,126.0,131.0,128.0,127.0,128.0,128.0,25.0,-104.0,-73.0,126.0,127.0,127.0,113.0,85.0,-74.0
121.0,127.0,127.0,131.0,128.0,127.0,128.0,128.0,25.0,-104.0,-73.0,126.0,127.0,127.0,113.0,85.0,-74.0
122.0,126.0,135.0,130.0,127.0,127.0,128.0,128.0,25.0,-104.0,-73.0,126.0,127.0,127.0,114.0,85.0,-74.0
122.0,126.0,136.0,130.0,127.0,127.0,128.0,128.0,25.0,-104.0,-73.0,126.0,127.0,127.0,114.0,85.0,-74.0
122.0,126.0,136.0,130.0,127.0,127.0,128.0,128.0,25.0,-104.0,-73.0,126.0,127.0,127.0,114.0,85.0,-74.0
122.0,126.0,136.0,130.0,127.0,127.0,127.0,128.0,25.0,-104.0,-73.0,126.0,127.0,127.0,114.0,85.0,-74.0
122.0,126.0,136.0,130.0,127.0,127.0,127.0,128.0,25.0,-104.0,-73.0,126.0,127.0,127.0,114.0,85.0,-74.0
122.0,126.0,137.0,130.0,127.0,127.0,127.0,128.0,25.0,-104.0,-73.0,126.0,127.0,127.0,114.0,85.0,-74.0
122.0,126.0,137.0,130.0,127.0,127.0,127.0,128.0,25.0,-104.0,-73.0,126.0,127.0,127.0,114.0,85.0,-74.0
122.0,126.0,137.0,130.0,127.0,127.0,128.0,128.0,25.0,-104.0,-73.0,126.0,127.0,127.0,114.0,85.0,-74.0
122.0,126.0,135.0,130.0,127.0,127.0,128.0,128.0,25.0,-104.0,-73.0,126.0,127.0,127.0,114.0,85.0,-74.0
122.0,126.0,135.0,130.0,127.0,127.0,127.0,128.0,25.0,-104.0,-73.0,126.0,127.0,127.0,114.0,85.0,-74.0
123.0,126.0,139.0,130.0,127.0,126.0,127.0,128.0,25.0,-105.0,-73.0,126.0,127.0,127.0,114.0,85.0,-74.0
123.0,126.0,139.0,130.0,127.0,127.0,127.0,128.0,25.0,-105.0,-73.0,126.0,127.0,127.0,114.0,85.0,-74.0
123.0,126.0,139.0,130.0,127.0,127.0,127.0,128.0,25.0,-105.0,-73.0,126.0,127.0,127.0,114.0,85.0,-74.0
123.0,126.0,139.0,130.0,126.0,127.0,127.0,128.0,25.0,-105.0,-73.0,126.0,127.0,127.0,114.0,85.0,-74.0
123.0,126.0,139.0,130.0,126.0,127.0,127.0,128.0,25.0,-105.0,-73.0,126.0,127.0,127.0,114.0,85.0,-74.0
123.0,126.0,139.0,130.0,126.0,127.0,127.0,128.0,25.0,-105.0,-73.0,126.0,127.0,127.0,114.0,85.0,-74.0
123.0,126.0,138.0,129.0,126.0,127.0,127.0,128.0,25.0,-105.0,-73.0,126.0,127.0,127.0,114.0,85.0,-74.0
122.0,126.0,139.0,130.0,127.0,126.0,127.0,128.0,25.0,-105.0,-73.0,126.0,127.0,127.0,114.0,85.0,-74.0
122.0,126.0,139.0,130.0,127.0,126.0,127.0,128.0,25.0,-105.0,-73.0,126.0,127.0,127.0,114.0,85.0,-74.0
122.0,126.0,139.0,130.0,127.0,126.0,127.0,128.0,25.0,-105.0,-73.0,126.0,127.0,127.0,114.0,85.0,-74.0
122.0,127.0,139.0,129.0,125.0,126.0,125.0,128.0,25.0,-105.0,-73.0,126.0,127.0,127.0,115.0,85.0,-74.0
122.0,127.0,139.0,129.0,125.0,126.0,125.0,128.0,25.0,-105.0,-73.0,126.0,127.0,127.0,115.0,85.0,-74.0
122.0,127.0,139.0,129.0,125.0,126.0,125.0,128.0,25.0,-105.0,-73.0,126.0,127.0,127.0,115.0,85.0,-74.0
122.0,127.0,139.0,129.0,125.0,126.0,125.0,128.0,25.0,-105.0,-73.0,126.0,127.0,127.0,115.0,85.0,-74.0
122.0,126.0,139.0,129.0,125.0,126.0,125.0,128.0,25.0,-105.0,-73.0,126.0,127.0,127.0,115.0,85.0,-74.0
122.0,126.0,140.0,129.0,125.0,127.0,125.0,128.0,25.0,-105.0,-73.0,126.0,127.0,127.0,115.0,85.0,-74.0
122.0,127.0,138.0,129.0,125.0,126.0,125.0,128.0,25.0,-105.0,-73.0,126.0,127.0,127.0,115.0,85.0,-74.0
122.0,127.0,138.0,129.0,125.0,126.0,125.0,128.0,25.0,-105.0,-73.0,126.0,127.0,127.0,115.0,85.0,-74.0
122.0,127.0,138.0,129.0,125.0,126.0,125.0,128.0,25.0,-105.0,-73.0,126.0,127.0,127.0,115.0,85.0,-74.0
122.0,127.0,138.0,129.0,125.0,126.0,125.0,128.0,25.0,-105.0,-73.0,126.0,127.0,127.0,115.0,85.0,-74.0
123.0,127.0,139.0,130.0,125.0,127.0,126.0,128.0,24.0,-105.0,-73.0,126.0,127.0,127.0,115.0,85.0,-74.0
123.0,127.0,139.0,130.0,125.0,127.0,126.0,128.0,24.0,-105.0,-73.0,126.0,127.0,127.0,115.0,85.0,-74.0
123.0,127.0,139.0,130.0,125.0,127.0,126.0,128.0,24.0,-105.0,-73.0,126.0,127.0,127.0,115.0,85.0,-74.0
123.0,127.0,139.0,130.0,125.0,127.0,126.0,128.0,24.0,-105.0,-73.0,126.0,127.0,127.0,115.0,85.0,-74.0
123.0,127.0,139.0,130.0,125.0,127.0,126.0,128.0,24.0,-105.0,-73.0,126.0,127.0,127.0,115.0,85.0,-74.0
123.0,127.0,139.0,129.0,125.0,127.0,126.0,128.0,24.0,-105.0,-73.0,126.0,127.0,127.0,115.0,85.0,-74.0
123.0,127.0,139.0,129.0,125.0,127.0,126.0,128.0,24.0,-105.0,-73.0,126.0,127.0,127.0,115.0,85.0,-74.0
123.0,127.0,139.0,130.0,125.0,127.0,126.0,128.0,24.0,-105.0,-73.0,126.0,127.0,127.0,115.0,85.0,-74.0
123.0,127.0,139.0,130.0,125.0,127.0,126.0,128.0,24.0,-105.0,-73.0,126.0,127.0,127.0,115.0,85.0,-74.0
123.0,127.0,139.0,130.0,125.0,127.0,126.0,127.0,24.0,-105.0,-73.0,126.0,127.0,127.0,115.0,85.0,-74.0
122.0,127.0,129.0,131.0,126.0,127.0,125.0,128.0,24.0,-105.0,-74.0,126.0,127.0,127.0,115.0,85.0,-74.0
122.0,127.0,129.0,131.0,126.0,127.0,125.0,128.0,24.0,-105.0,-74.0,126.0,127.0,127.0,115.0,85.0,-74.0
122.0,127.0,129.0,131.0,126.0,127.0,125.0,128.0,24.0,-105.0,-74.0,126.0,127.0,127.0,115.0,85.0,-74.0
122.0,127.0,129.0,131.0,126.0,127.0,125.0,128.0,24.0,-105.0,-74.0,126.0,127.0,127.0,115.0,85.0,-74.0
122.0,127.0,130.0,130.0,126.0,127.0,125.0,128.0,24.0,-105.0,-74.0,126.0,127.0,127.0,115.0,85.0,-74.0
122.0,126.0,130.0,130.0,126.0,127.0,125.0,128.0,24.0,-105.0,-74.0,126.0,127.0,127.0,115.0,85.0,-74.0
122.0,127.0,130.0,130.0,126.0,127.0,125.0,128.0,24.0,-105.0,-74.0,126.0,127.0,127.0,115.0,85.0,-74.0
122.0,127.0,130.0,130.0,126.0,127.0,125.0,128.0,24.0,-105.0,-74.0,126.0,127.0,127.0,115.0,85.0,-74.0
122.0,127.0,129.0,131.0,126.0,127.0,125.0,128.0,24.0,-105.0,-74.0,126.0,127.0,127.0,115.0,85.0,-74.0
122.0,127.0,129.0,131.0,126.0,127.0,125.0,128.0,24.0,-105.0,-74.0,126.0,127.0,127.0,115.0,85.0,-74.0
122.0,127.0,107.0,131.0,127.0,127.0,126.0,128.0,24.0,-105.0,-74.0,126.0,127.0,127.0,115.0,85.0,-74.0
122.0,127.0,107.0,132.0,127.0,127.0,126.0,128.0,24.0,-105.0,-74.0,126.0,127.0,127.0,115.0,85.0,-74.0
122.0,127.0,106.0,132.0,127.0,127.0,126.0,128.0,24.0,-105.0,-74.0,126.0,127.0,127.0,115.0,85.0,-74.0
122.0,127.0,111.0,131.0,127.0,127.0,126.0,128.0,24.0,-105.0,-74.0,126.0,127.0,127.0,115.0,85.0,-74.0
122.0,127.0,111.0,131.0,127.0,127.0,126.0,128.0,24.0,-105.0,-74.0,126.0,127.0,127.0,115.0,85.0,-74.0
122.0,127.0,110.0,131.0,127.0,127.0,126.0,128.0,24.0,-105.0,-74.0,126.0,127.0,127.0,115.0,85.0,-74.0
122.0,127.0,109.0,131.0,127.0,127.0,126.0,128.0,24.0,-105.0,-74.0,126.0,127.0,127.0,115.0,85.0,-74.0
122.0,127.0,108.0,131.0,127.0,126.0,126.0,128.0,24.0,-105.0,-74.0,126.0,127.0,127.0,115.0,85.0,-74.0
122.0,127.0,108.0,131.0,127.0,127.0,126.0,128.0,24.0,-105.0,-74.0,126.0,127.0,127.0,115.0,85.0,-74.0
122.0,127.0,107.0,131.0,127.0,127.0,126.0,128.0,24.0,-105.0,-74.0,126.0,127.0,127.0,115.0,85.0,-74.0
122.0,127.0,117.0,132.0,128.0,127.0,127.0,127.0,24.0,-105.0,-74.0,126.0,127.0,127.0,115.0,85.0,-74.0
122.0,127.0,117.0,132.0,128.0,127.0,127.0,127.0,24.0,-105.0,-74.0,126.0,127.0,127.0,115.0,85.0,-74.0
122.0,127.0,112.0,132.0,128.0,127.0,126.0,127.0,24.0,-105.0,-74.0,126.0,127.0,127.0,115.0,85.0,-74.0
122.0,127.0,113.0,132.0,128.0,127.0,127.0,127.0,24.0,-105.0,-74.0,126.0,127.0,127.0,115.0,85.0,-74.0
122.0,127.0,113.0,132.0,128.0,127.0,127.0,127.0,24.0,-105.0,-74.0,126.0,127.0,127.0,115.0,85.0,-74.0
122.0,127.0,114.0,132.0,128.0,127.0,127.0,127.0,24.0,-105.0,-74.0,126.0,127.0,127.0,115.0,85.0,-74.0
122.0,127.0,114.0,132.0,128.0,126.0,126.0,127.0,24.0,-105.0,-74.0,126.0,127.0,127.0,115.0,85.0,-74.0
122.0,127.0,114.0,132.0,128.0,127.0,127.0,127.0,24.0,-105.0,-74.0,126.0,127.0,127.0,115.0,85.0,-74.0
122.0,127.0,115.0,132.0,128.0,127.0,127.0,127.0,24.0,-105.0,-74.0,126.0,127.0,127.0,115.0,85.0,-74.0
122.0,127.0,116.0,132.0,128.0,127.0,127.0,127.0,24.0,-105.0,-74.0,126.0,127.0,127.0,115.0,85.0,-74.0
122.0,126.0,134.0,132.0,127.0,126.0,127.0,127.0,24.0,-105.0,-74.0,126.0,127.0,127.0,116.0,85.0,-74.0
122.0,126.0,133.0,132.0,127.0,126.0,127.0,127.0,24.0,-105.0,-74.0,126.0,127.0,127.0,116.0,85.0,-74.0
122.0,126.0,133.0,132.0,127.0,127.0,127.0,127.0,24.0,-105.0,-74.0,126.0,127.0,127.0,116.0,85.0,-74.0
122.0,126.0,133.0,132.0,127.0,126.0,127.0,127.0,24.0,-105.0,-74.0,126.0,127.0,127.0,116.0,85.0,-74.0
122.0,126.0,133.0,132.0,127.0,127.0,127.0,127.0,24.0,-105.0,-74.0,126.0,127.0,127.0,116.0,85.0,-74.0
122.0,126.0,133.0,132.0,127.0,126.0,127.0,127.0,24.0,-105.0,-74.0,126.0,127.0,127.0,116.0,85.0,-74.0
122.0,126.0,133.0,132.0,127.0,126.0,127.0,127.0,24.0,-105.0,-74.0,126.0,127.0,127.0,116.0,85.0,-74.0
122.0,126.0,134.0,132.0,127.0,126.0,127.0,127.0,24.0,-105.0,-74.0,126.0,127.0,127.0,116.0,85.0,-74.0
122.0,126.0,134.0,132.0,127.0,126.0,127.0,127.0,24.0,-105.0,-74.0,126.0,127.0,127.0,116.0,85.0,-74.0
122.0,126.0,134.0,132.0,127.0,126.0,127.0,127.0,24.0,-105.0,-74.0,126.0,127.0,127.0,116.0,85.0,-74.0
122.0,126.0,143.0,132.0,127.0,127.0,128.0,127.0,24.0,-105.0,-74.0,126.0,127.0,127.0,116.0,85.0,-74.0
122.0,126.0,143.0,132.0,127.0,127.0,128.0,127.0,24.0,-105.0,-74.0,126.0,127.0,127.0,116.0,85.0,-74.0
122.0,126.0,143.0,132.0,127.0,127.0,128.0,127.0,24.0,-105.0,-74.0,126.0,127.0,127.0,116.0,85.0,-74.0
122.0,126.0,143.0,132.0,127.0,127.0,128.0,127.0,24.0,-105.0,-74.0,126.0,127.0,127.0,116.0,85.0,-74.0
122.0,126.0,143.0,132.0,127.0,126.0,128.0,127.0,24.0,-105.0,-74.0,126.0,127.0,127.0,116.0,85.0,-74.0
122.0,126.0,142.0,132.0,127.0,126.0,128.0,128.0,24.0,-105.0,-74.0,126.0,127.0,127.0,116.0,85.0,-74.0
122.0,126.0,142.0,132.0,127.0,126.0,128.0,128.0,24.0,-105.0,-74.0,126.0,127.0,127.0,116.0,85.0,-74.0
122.0,126.0,143.0,132.0,127.0,126.0,128.0,128.0,24.0,-105.0,-74.0,126.0,127.0,127.0,116.0,85.0,-74.0
122.0,126.0,143.0,132.0,127.0,126.0,128.0,128.0,24.0,-105.0,-74.0,126.0,127.0,127.0,116.0,85.0,-74.0
122.0,126.0,143.0,132.0,127.0,126.0,128.0,128.0,24.0,-105.0,-74.0,126.0,127.0,127.0,116.0,85.0,-74.0
121.0,126.0,138.0,132.0,128.0,127.0,130.0,127.0,24.0,-105.0,-74.0,126.0,127.0,127.0,116.0,85.0,-74.0
121.0,126.0,138.0,132.0,128.0,127.0,130.0,127.0,24.0,-105.0,-74.0,126.0,127.0,127.0,116.0,85.0,-74.0
121.0,126.0,138.0,132.0,128.0,127.0,130.0,127.0,24.0,-105.0,-74.0,126.0,127.0,127.0,116.0,85.0,-74.0
121.0,126.0,137.0,132.0,128.0,126.0,130.0,128.0,24.0,-105.0,-74.0,126.0,127.0,127.0,116.0,85.0,-74.0
121.0,126.0,137.0,132.0,128.0,127.0,130.0,128.0,24.0,-105.0,-74.0,126.0,127.0,127.0,116.0,85.0,-74.0
121.0,126.0,137.0,132.0,128.0,127.0,130.0,128.0,24.0,-105.0,-74.0,126.0,127.0,127.0,116.0,85.0,-74.0
121.0,126.0,137.0,132.0,128.0,127.0,130.0,128.0,24.0,-105.0,-74.0,126.0,127.0,127.0,116.0,85.0,-74.0
121.0,126.0,137.0,132.0,128.0,127.0,130.0,128.0,24.0,-105.0,-74.0,126.0,127.0,127.0,116.0,85.0,-74.0
121.0,126.0,137.0,132.0,128.0,127.0,130.0,128.0,24.0,-105.0,-74.0,126.0,127.0,127.0,116.0,85.0,-74.0
121.0,126.0,138.0,132.0,128.0,127.0,130.0,128.0,24.0,-105.0,-74.0,126.0,127.0,127.0,116.0,85.0,-74.0
122.0,127.0,134.0,133.0,128.0,127.0,129.0,128.0,24.0,-105.0,-74.0,126.0,127.0,127.0,116.0,85.0,-74.0
122.0,127.0,134.0,133.0,128.0,127.0,129.0,128.0,24.0,-105.0,-74.0,126.0,127.0,127.0,116.0,85.0,-74.0
122.0,127.0,134.0,133.0,127.0,126.0,129.0,128.0,24.0,-105.0,-74.0,126.0,127.0,127.0,116.0,85.0,-74.0
122.0,128.0,133.0,133.0,128.0,126.0,129.0,128.0,24.0,-105.0,-74.0,126.0,127.0,127.0,116.0,85.0,-74.0
122.0,127.0,133.0,133.0,128.0,126.0,129.0,128.0,24.0,-105.0,-74.0,126.0,127.0,127.0,116.0,85.0,-74.0
122.0,127.0,132.0,133.0,127.0,126.0,129.0,128.0,24.0,-105.0,-74.0,126.0,127.0,127.0,116.0,85.0,-74.0
122.0,127.0,132.0,134.0,128.0,126.0,129.0,128.0,24.0,-105.0,-74.0,126.0,127.0,127.0,116.0,85.0,-74.0
122.0,127.0,132.0,133.0,127.0,126.0,129.0,128.0,24.0,-105.0,-74.0,126.0,127.0,127.0,116.0,85.0,-74.0
122.0,127.0,134.0,133.0,128.0,127.0,129.0,128.0,24.0,-105.0,-74.0,126.0,127.0,127.0,116.0,85.0,-74.0
122.0,127.0,134.0,133.0,128.0,127.0,129.0,128.0,24.0,-105.0,-74.0,126.0,127.0,127.0,116.0,85.0,-74.0
123.0,126.0,130.0,133.0,128.0,127.0,128.0,127.0,24.0,-105.0,-74.0,126.0,127.0,127.0,116.0,85.0,-74.0
122.0,126.0,130.0,133.0,127.0,127.0,128.0,127.0,24.0,-105.0,-74.0,126.0,127.0,127.0,116.0,85.0,-74.0
122.0,126.0,130.0,133.0,127.0,127.0,127.0,127.0,24.0,-105.0,-74.0,126.0,127.0,127.0,116.0,85.0,-74.0
122.0,126.0,130.0,133.0,127.0,127.0,127.0,127.0,24.0,-105.0,-74.0,126.0,127.0,127.0,116.0,85.0,-74.0
122.0,126.0,130.0,133.0,127.0,127.0,127.0,127.0,24.0,-105.0,-74.0,126.0,127.0,127.0,116.0,85.0,-74.0
122.0,127.0,129.0,133.0,127.0,127.0,127.0,127.0,24.0,-105.0,-74.0,126.0,127.0,127.0,116.0,85.0,-74.0
122.0,126.0,130.0,133.0,127.0,127.0,128.0,127.0,24.0,-105.0,-74.0,126.0,127.0,127.0,116.0,85.0,-74.0
122.0,126.0,130.0,133.0,127.0,127.0,128.0,127.0,24.0,-105.0,-74.0,126.0,127.0,127.0,116.0,85.0,-74.0
122.0,126.0,130.0,133.0,127.0,127.0,128.0,127.0,24.0,-105.0,-74.0,126.0,127.0,127.0,116.0,85.0,-74.0
122.0,126.0,130.0,133.0,127.0,127.0,128.0,127.0,24.0,-105.0,-74.0,126.0,127.0,127.0,116.0,85.0,-74.0
122.0,127.0,129.0,133.0,127.0,126.0,124.0,127.0,24.0,-105.0,-74.0,126.0,127.0,127.0,116.0,85.0,-74.0
122.0,127.0,130.0,133.0,127.0,127.0,124.0,127.0,24.0,-105.0,-74.0,126.0,127.0,127.0,116.0,85.0,-74.0
122.0,127.0,129.0,133.0,127.0,127.0,124.0,127.0,24.0,-105.0,-74.0,126.0,127.0,127.0,116.0,85.0,-74.0
122.0,127.0,130.0,133.0,127.0,127.0,124.0,127.0,24.0,-105.0,-74.0,126.0,127.0,127.0,116.0,85.0,-74.0
122.0,127.0,130.0,132.0,127.0,127.0,124.0,127.0,24.0,-105.0,-74.0,126.0,127.0,127.0,116.0,85.0,-74.0
122.0,127.0,130.0,132.0,127.0,127.0,124.0,127.0,24.0,-105.0,-74.0,126.0,127.0,127.0,116.0,85.0,-74.0
122.0,127.0,130.0,133.0,127.0,127.0,125.0,127.0,24.0,-105.0,-74.0,126.0,127.0,127.0,116.0,85.0,-74.0
122.0,127.0,130.0,133.0,127.0,127.0,124.0,127.0,24.0,-105.0,-74.0,126.0,127.0,127.0,116.0,85.0,-74.0
122.0,127.0,129.0,133.0,127.0,127.0,124.0,127.0,24.0,-105.0,-74.0,126.0,127.0,127.0,116.0,85.0,-74.0
122.0,127.0,129.0,133.0,127.0,126.0,124.0,127.0,24.0,-105.0,-74.0,126.0,127.0,127.0,116.0,85.0,-74.0
123.0,127.0,134.0,132.0,127.0,127.0,122.0,127.0,24.0,-105.0,-74.0,126.0,127.0,127.0,116.0,85.0,-74.0
123.0,127.0,134.0,132.0,127.0,127.0,122.0,127.0,24.0,-105.0,-74.0,126.0,127.0,127.0,116.0,85.0,-74.0
123.0,127.0,134.0,132.0,127.0,127.0,122.0,127.0,24.0,-105.0,-74.0,126.0,127.0,127.0,116.0,85.0,-74.0
123.0,127.0,134.0,132.0,127.0,127.0,122.0,127.0,24.0,-105.0,-74.0,126.0,127.0,127.0,116.0,85.0,-74.0
123.0,127.0,134.0,132.0,127.0,127.0,122.0,127.0,24.0,-105.0,-74.0,126.0,127.0,127.0,116.0,85.0,-74.0
123.0,127.0,134.0,132.0,127.0,127.0,122.0,127.0,24.0,-105.0,-74.0,126.0,127.0,127.0,116.0,85.0,-74.0
123.0,127.0,134.0,132.0,127.0,127.0,122.0,127.0,24.0,-105.0,-74.0,126.0,127.0,127.0,116.0,85.0,-74.0
123.0,127.0,134.0,132.0,127.0,126.0,122.0,127.0,24.0,-105.0,-74.0,126.0,127.0,127.0,116.0,85.0,-74.0
123.0,127.0,134.0,132.0,127.0,126.0,122.0,127.0,24.0,-105.0,-74.0,126.0,127.0,127.0,116.0,85.0,-74.0
123.0,127.0,134.0,132.0,127.0,126.0,122.0,127.0,24.0,-105.0,-74.0,126.0,127.0,127.0,116.0,85.0,-74.0
122.0,126.0,130.0,131.0,126.0,127.0,124.0,127.0,24.0,-105.0,-74.0,126.0,127.0,127.0,116.0,85.0,-74.0
123.0,126.0,129.0,131.0,126.0,127.0,124.0,127.0,24.0,-105.0,-74.0,126.0,127.0,127.0,116.0,85.0,-74.0
123.0,126.0,129.0,131.0,126.0,127.0,124.0,127.0,24.0,-105.0,-74.0,126.0,127.0,127.0,116.0,85.0,-74.0
123.0,126.0,129.0,131.0,126.0,127.0,124.0,127.0,24.0,-105.0,-74.0,126.0,127.0,127.0,116.0,85.0,-74.0
123.0,126.0,131.0,131.0,126.0,127.0,124.0,127.0,24.0,-105.0,-74.0,126.0,127.0,127.0,116.0,85.0,-74.0
123.0,126.0,131.0,131.0,126.0,127.0,124.0,127.0,24.0,-105.0,-74.0,126.0,127.0,127.0,116.0,85.0,-74.0
123.0,126.0,130.0,131.0,126.0,126.0,124.0,127.0,24.0,-105.0,-74.0,126.0,127.0,127.0,116.0,85.0,-74.0
123.0,127.0,130.0,131.0,126.0,126.0,124.0,127.0,24.0,-105.0,-74.0,126.0,127.0,127.0,116.0,85.0,-74.0
123.0,126.0,130.0,131.0,126.0,126.0,124.0,127.0,24.0,-105.0,-74.0,126.0,127.0,127.0,116.0,85.0,-74.0
123.0,126.0,130.0,131.0,126.0,127.0,124.0,127.0,24.0,-105.0,-74.0,126.0,127.0,127.0,116.0,85.0,-74.0
121.0,125.0,127.0,131.0,127.0,126.0,125.0,127.0,24.0,-105.0,-73.0,126.0,127.0,127.0,116.0,85.0,-74.0
121.0,125.0,128.0,131.0,127.0,126.0,126.0,127.0,24.0,-105.0,-73.0,126.0,127.0,127.0,116.0,85.0,-74.0
121.0,125.0,128.0,131.0,127.0,126.0,126.0,127.0,24.0,-105.0,-73.0,126.0,127.0,127.0,116.0,85.0,-74.0
122.0,125.0,129.0,131.0,126.0,127.0,125.0,127.0,24.0,-105.0,-73.0,126.0,127.0,127.0,116.0,85.0,-74.0
122.0,125.0,129.0,131.0,126.0,127.0,125.0,127.0,24.0,-105.0,-73.0,126.0,127.0,127.0,116.0,85.0,-74.0
122.0,125.0,128.0,131.0,127.0,126.0,125.0,127.0,24.0,-105.0,-73.0,126.0,127.0,127.0,116.0,85.0,-74.0
122.0,125.0,128.0,131.0,127.0,126.0,125.0,127.0,24.0,-105.0,-73.0,126.0,127.0,127.0,116.0,85.0,-74.0
122.0,125.0,128.0,131.0,127.0,126.0,125.0,127.0,24.0,-105.0,-73.0,126.0,127.0,127.0,116.0,85.0,-74.0
122.0,125.0,128.0,131.0,127.0,126.0,125.0,127.0,24.0,-105.0,-73.0,126.0,127.0,127.0,116.0,85.0,-74.0
121.0,125.0,127.0,131.0,127.0,126.0,125.0,127.0,24.0,-105.0,-73.0,126.0,127.0,127.0,116.0,85.0,-74.0
117.0,124.0,118.0,131.0,126.0,127.0,127.0,127.0,24.0,-105.0,-73.0,126.0,127.0,127.0,116.0,85.0,-74.0
117.0,125.0,117.0,131.0,127.0,126.0,127.0,127.0,24.0,-105.0,-73.0,126.0,127.0,127.0,116.0,85.0,-74.0
118.0,124.0,118.0,131.0,127.0,127.0,127.0,127.0,24.0,-105.0,-73.0,126.0,127.0,127.0,116.0,85.0,-74.0
117.0,124.0,118.0,131.0,127.0,127.0,127.0,127.0,24.0,-105.0,-73.0,126.0,127.0,127.0,116.0,85.0,-74.0
117.0,124.0,118.0,131.0,127.0,127.0,127.0,127.0,24.0,-105.0,-73.0,126.0,127.0,127.0,116.0,85.0,-74.0
117.0,125.0,117.0,131.0,127.0,127.0,127.0,127.0,24.0,-105.0,-73.0,126.0,127.0,127.0,116.0,85.0,-74.0
117.0,125.0,117.0,131.0,127.0,127.0,127.0,127.0,24.0,-105.0,-73.0,126.0,127.0,127.0,116.0,85.0,-74.0
117.0,125.0,117.0,131.0,127.0,127.0,127.0,127.0,24.0,-105.0,-73.0,126.0,127.0,127.0,116.0,85.0,-74.0
117.0,124.0,117.0,131.0,126.0,127.0,127.0,127.0,24.0,-105.0,-73.0,126.0,127.0,127.0,116.0,85.0,-74.0
117.0,124.0,118.0,131.0,126.0,127.0,127.0,127.0,24.0,-105.0,-73.0,126.0,127.0,127.0,116.0,85.0,-74.0
120.0,126.0,130.0,132.0,127.0,126.0,127.0,127.0,25.0,-105.0,-73.0,126.0,127.0,127.0,116.0,85.0,-74.0
119.0,126.0,130.0,131.0,127.0,127.0,128.0,127.0,25.0,-105.0,-73.0,126.0,127.0,127.0,116.0,85.0,-74.0
119.0,126.0,130.0,131.0,127.0,127.0,128.0,127.0,25.0,-105.0,-73.0,126.0,127.0,127.0,116.0,85.0,-74.0
119.0,126.0,130.0,131.0,127.0,127.0,128.0,127.0,25.0,-105.0,-73.0,126.0,127.0,127.0,116.0,85.0,-74.0
119.0,126.0,129.0,132.0,127.0,126.0,128.0,127.0,25.0,-105.0,-73.0,126.0,127.0,127.0,116.0,85.0,-74.0
119.0,126.0,130.0,132.0,127.0,127.0,128.0,127.0,25.0,-105.0,-73.0,126.0,127.0,127.0,116.0,85.0,-74.0
119.0,126.0,130.0,132.0,127.0,127.0,128.0,127.0,25.0,-105.0,-73.0,126.0,127.0,127.0,116.0,85.0,-74.0
119.0,126.0,130.0,132.0,127.0,127.0,128.0,127.0,25.0,-105.0,-73.0,126.0,127.0,127.0,116.0,85.0,-74.0
120.0,126.0,130.0,132.0,127.0,127.0,128.0,127.0,25.0,-105.0,-73.0,126.0,127.0,127.0,116.0,85.0,-74.0
120.0,126.0,131.0,131.0,127.0,127.0,128.0,127.0,25.0,-105.0,-73.0,126.0,127.0,127.0,116.0,85.0,-74.0
122.0,126.0,133.0,131.0,127.0,126.0,127.0,127.0,25.0,-105.0,-73.0,127.0,127.0,127.0,116.0,85.0,-74.0
122.0,126.0,134.0,131.0,127.0,126.0,127.0,127.0,25.0,-105.0,-73.0,127.0,127.0,127.0,116.0,85.0,-74.0
122.0,127.0,134.0,131.0,127.0,126.0,127.0,127.0,25.0,-105.0,-73.0,127.0,127.0,127.0,116.0,85.0,-74.0
122.0,127.0,134.0,131.0,127.0,127.0,128.0,127.0,25.0,-105.0,-73.0,127.0,127.0,127.0,116.0,85.0,-74.0
122.0,126.0,135.0,131.0,127.0,127.0,128.0,127.0,25.0,-105.0,-73.0,127.0,127.0,127.0,116.0,85.0,-74.0
122.0,126.0,135.0,131.0,127.0,127.0,128.0,127.0,25.0,-105.0,-73.0,127.0,127.0,127.0,116.0,85.0,-74.0
122.0,126.0,135.0,131.0,127.0,127.0,128.0,127.0,25.0,-105.0,-73.0,127.0,127.0,127.0,116.0,85.0,-74.0
122.0,126.0,136.0,131.0,127.0,127.0,128.0,127.0,25.0,-105.0,-73.0,127.0,127.0,127.0,116.0,85.0,-74.0
122.0,126.0,136.0,131.0,127.0,127.0,128.0,127.0,25.0,-105.0,-73.0,127.0,127.0,127.0,116.0,85.0,-74.0
122.0,126.0,136.0,131.0,127.0,127.0,128.0,127.0,25.0,-105.0,-73.0,127.0,127.0,127.0,116.0,85.0,-74.0
123.0,126.0,135.0,130.0,127.0,127.0,126.0,127.0,25.0,-105.0,-73.0,127.0,127.0,127.0,116.0,85.0,-73.0
123.0,126.0,135.0,130.0,127.0,127.0,126.0,127.0,25.0,-105.0,-73.0,127.0,127.0,127.0,116.0,85.0,-73.0
123.0,126.0,135.0,130.0,127.0,127.0,126.0,127.0,25.0,-105.0,-73.0,127.0,127.0,127.0,116.0,85.0,-73.0
123.0,125.0,135.0,130.0,127.0,127.0,126.0,127.0,25.0,-105.0,-73.0,127.0,127.0,127.0,116.0,85.0,-73.0
122.0,125.0,134.0,130.0,127.0,127.0,126.0,127.0,25.0,-105.0,-73.0,127.0,127.0,127.0,116.0,85.0,-73.0
122.0,126.0,134.0,130.0,127.0,127.0,126.0,127.0,25.0,-105.0,-73.0,127.0,127.0,127.0,116.0,85.0,-73.0
122.0,126.0,134.0,130.0,127.0,127.0,126.0,127.0,25.0,-105.0,-73.0,127.0,127.0,127.0,116.0,85.0,-73.0
123.0,125.0,134.0,130.0,127.0,127.0,126.0,127.0,25.0,-105.0,-73.0,127.0,127.0,127.0,116.0,85.0,-73.0
123.0,125.0,136.0,130.0,127.0,127.0,126.0,127.0,25.0,-105.0,-73.0,127.0,127.0,127.0,116.0,85.0,-73.0
122.0,126.0,135.0,130.0,127.0,127.0,126.0,127.0,25.0,-105.0,-73.0,127.0,127.0,127.0,116.0,85.0,-73.0
123.0,126.0,132.0,130.0,127.0,127.0,127.0,127.0,25.0,-105.0,-73.0,127.0,127.0,127.0,116.0,85.0,-73.0
123.0,126.0,132.0,131.0,127.0,127.0,127.0,128.0,25.0,-105.0,-73.0,127.0,127.0,127.0,116.0,85.0,-73.0
123.0,126.0,132.0,130.0,127.0,127.0,127.0,127.0,25.0,-105.0,-73.0,127.0,127.0,127.0,116.0,85.0,-73.0
123.0,126.0,132.0,130.0,127.0,127.0,127.0,127.0,25.0,-105.0,-73.0,127.0,127.0,127.0,116.0,85.0,-73.0
123.0,126.0,131.0,130.0,127.0,127.0,127.0,127.0,25.0,-105.0,-73.0,127.0,127.0,127.0,116.0,85.0,-73.0
123.0,126.0,131.0,131.0,127.0,127.0,127.0,128.0,25.0,-105.0,-73.0,127.0,127.0,127.0,116.0,85.0,-73.0
123.0,126.0,130.0,131.0,127.0,127.0,127.0,128.0,25.0,-105.0,-73.0,127.0,127.0,127.0,116.0,85.0,-73.0
123.0,125.0,133.0,130.0,127.0,127.0,127.0,127.0,25.0,-105.0,-73.0,127.0,127.0,127.0,116.0,85.0,-73.0
123.0,126.0,132.0,130.0,127.0,127.0,127.0,127.0,25.0,-105.0,-73.0,127.0,127.0,127.0,116.0,85.0,-73.0
123.0,126.0,132.0,130.0,127.0,127.0,127.0,128.0,25.0,-105.0,-73.0,127.0,127.0,127.0,116.0,85.0,-73.0
123.0,126.0,131.0,131.0,128.0,127.0,128.0,128.0,25.0,-105.0,-73.0,127.0,127.0,127.0,116.0,85.0,-73.0
123.0,126.0,131.0,131.0,128.0,127.0,128.0,128.0,25.0,-105.0,-73.0,127.0,127.0,127.0,116.0,85.0,-73.0
123.0,126.0,131.0,131.0,128.0,127.0,128.0,128.0,25.0,-105.0,-73.0,127.0,127.0,127.0,116.0,85.0,-73.0
123.0,127.0,131.0,130.0,128.0,126.0,128.0,127.0,25.0,-105.0,-73.0,127.0,127.0,127.0,116.0,85.0,-73.0
123.0,127.0,130.0,131.0,128.0,126.0,128.0,128.0,25.0,-105.0,-73.0,127.0,127.0,127.0,116.0,85.0,-73.0
123.0,127.0,130.0,131.0,128.0,126.0,128.0,128.0,25.0,-105.0,-73.0,127.0,127.0,127.0,116.0,85.0,-73.0
123.0,126.0,131.0,130.0,127.0,127.0,128.0,127.0,25.0,-105.0,-73.0,127.0,127.0,127.0,116.0,85.0,-73.0
123.0,126.0,131.0,130.0,128.0,127.0,128.0,127.0,25.0,-105.0,-73.0,127.0,127.0,127.0,116.0,85.0,-73.0
123.0,127.0,130.0,130.0,128.0,127.0,128.0,128.0,25.0,-105.0,-73.0,127.0,127.0,127.0,116.0,85.0,-73.0
123.0,126.0,130.0,131.0,128.0,127.0,128.0,128.0,25.0,-105.0,-73.0,127.0,127.0,127.0,116.0,85.0,-73.0
123.0,128.0,134.0,131.0,128.0,127.0,127.0,128.0,25.0,-105.0,-73.0,127.0,127.0,127.0,116.0,85.0,-73.0
123.0,128.0,134.0,131.0,128.0,127.0,127.0,128.0,25.0,-105.0,-73.0,127.0,127.0,127.0,116.0,85.0,-73.0
123.0,128.0,134.0,131.0,128.0,127.0,127.0,128.0,25.0,-105.0,-73.0,127.0,127.0,127.0,116.0,85.0,-73.0
123.0,128.0,134.0,131.0,128.0,127.0,127.0,128.0,25.0,-105.0,-73.0,127.0,127.0,127.0,116.0,85.0,-73.0
123.0,128.0,134.0,131.0,128.0,126.0,127.0,128.0,25.0,-105.0,-73.0,127.0,127.0,127.0,116.0,85.0,-73.0
124.0,127.0,134.0,130.0,128.0,127.0,127.0,127.0,25.0,-105.0,-73.0,127.0,127.0,127.0,116.0,85.0,-73.0
123.0,128.0,134.0,131.0,128.0,127.0,127.0,127.0,25.0,-105.0,-73.0,127.0,127.0,127.0,116.0,85.0,-73.0
123.0,128.0,134.0,131.0,128.0,127.0,127.0,128.0,25.0,-105.0,-73.0,127.0,127.0,127.0,116.0,85.0,-73.0
123.0,128.0,134.0,131.0,128.0,127.0,127.0,128.0,25.0,-105.0,-73.0,127.0,127.0,127.0,116.0,85.0,-73.0
123.0,128.0,134.0,131.0,128.0,127.0,127.0,128.0,25.0,-105.0,-73.0,127.0,127.0,127.0,116.0,85.0,-73.0
124.0,127.0,135.0,130.0,126.0,127.0,127.0,128.0,25.0,-106.0,-73.0,127.0,127.0,127.0,116.0,85.0,-73.0
124.0,127.0,135.0,130.0,126.0,127.0,127.0,128.0,25.0,-106.0,-73.0,127.0,127.0,127.0,116.0,85.0,-73.0
123.0,127.0,135.0,130.0,126.0,126.0,127.0,128.0,25.0,-106.0,-73.0,127.0,127.0,127.0,116.0,85.0,-73.0
124.0,128.0,134.0,130.0,126.0,126.0,127.0,128.0,25.0,-106.0,-73.0,127.0,127.0,127.0,116.0,85.0,-73.0
124.0,127.0,136.0,130.0,126.0,127.0,127.0,128.0,25.0,-106.0,-73.0,127.0,127.0,127.0,116.0,85.0,-73.0
124.0,127.0,136.0,130.0,126.0,127.0,127.0,128.0,25.0,-106.0,-73.0,127.0,127.0,127.0,116.0,85.0,-73.0
124.0,127.0,135.0,130.0,126.0,127.0,127.0,128.0,25.0,-106.0,-73.0,127.0,127.0,127.0,116.0,85.0,-73.0
124.0,127.0,135.0,130.0,126.0,127.0,127.0,128.0,25.0,-106.0,-73.0,127.0,127.0,127.0,116.0,85.0,-73.0
124.0,127.0,135.0,130.0,126.0,127.0,127.0,128.0,25.0,-106.0,-73.0,127.0,127.0,127.0,116.0,85.0,-73.0
124.0,127.0,135.0,130.0,126.0,127.0,127.0,128.0,25.0,-106.0,-73.0,127.0,127.0,127.0,116.0,85.0,-73.0
124.0,128.0,134.0,130.0,127.0,127.0,126.0,128.0,24.0,-106.0,-73.0,127.0,127.0,127.0,116.0,85.0,-73.0
124.0,128.0,133.0,130.0,127.0,126.0,126.0,128.0,24.0,-106.0,-73.0,127.0,127.0,127.0,116.0,85.0,-73.0
124.0,128.0,133.0,130.0,127.0,126.0,126.0,128.0,24.0,-106.0,-73.0,127.0,127.0,127.0,116.0,85.0,-73.0
124.0,128.0,133.0,130.0,127.0,126.0,126.0,128.0,24.0,-106.0,-73.0,127.0,127.0,127.0,116.0,85.0,-73.0
124.0,127.0,134.0,130.0,126.0,127.0,126.0,127.0,24.0,-106.0,-73.0,127.0,127.0,127.0,116.0,85.0,-73.0
124.0,127.0,133.0,130.0,127.0,127.0,126.0,128.0,24.0,-106.0,-73.0,127.0,127.0,127.0,116.0,85.0,-73.0
124.0,127.0,133.0,130.0,127.0,127.0,126.0,128.0,24.0,-106.0,-73.0,127.0,127.0,127.0,116.0,85.0,-73.0
124.0,127.0,134.0,130.0,127.0,127.0,126.0,128.0,24.0,-106.0,-73.0,127.0,127.0,127.0,116.0,85.0,-73.0
124.0,128.0,134.0,130.0,127.0,127.0,126.0,128.0,24.0,-106.0,-73.0,127.0,127.0,127.0,116.0,85.0,-73.0
124.0,128.0,134.0,130.0,127.0,127.0,126.0,128.0,24.0,-106.0,-73.0,127.0,127.0,127.0,116.0,85.0,-73.0
124.0,127.0,130.0,129.0,126.0,126.0,126.0,128.0,24.0,-106.0,-73.0,127.0,127.0,127.0,116.0,85.0,-73.0
124.0,127.0,129.0,129.0,126.0,126.0,126.0,128.0,24.0,-106.0,-73.0,127.0,127.0,127.0,116.0,85.0,-73.0
124.0,127.0,129.0,129.0,126.0,126.0,126.0,128.0,24.0,-106.0,-73.0,127.0,127.0,127.0,116.0,85.0,-73.0
124.0,127.0,132.0,129.0,126.0,127.0,126.0,127.0,24.0,-106.0,-73.0,127.0,127.0,127.0,116.0,85.0,-73.0
124.0,127.0,131.0,129.0,126.0,127.0,126.0,128.0,24.0,-106.0,-73.0,127.0,127.0,127.0,116.0,85.0,-73.0
124.0,127.0,130.0,129.0,126.0,127.0,126.0,128.0,24.0,-106.0,-73.0,127.0,127.0,127.0,116.0,85.0,-73.0
124.0,127.0,130.0,129.0,126.0,127.0,126.0,128.0,24.0,-106.0,-73.0,127.0,127.0,127.0,116.0,85.0,-73.0
124.0,127.0,130.0,130.0,126.0,127.0,126.0,128.0,24.0,-106.0,-73.0,127.0,127.0,127.0,116.0,85.0,-73.0
124.0,127.0,130.0,129.0,126.0,127.0,126.0,128.0,24.0,-106.0,-73.0,127.0,127.0,127.0,116.0,85.0,-73.0
124.0,127.0,130.0,129.0,126.0,127.0,126.0,128.0,24.0,-106.0,-73.0,127.0,127.0,127.0,116.0,85.0,-73.0
123.0,127.0,127.0,129.0,126.0,127.0,124.0,127.0,24.0,-106.0,-73.0,127.0,127.0,127.0,116.0,85.0,-73.0
124.0,126.0,129.0,129.0,125.0,127.0,125.0,127.0,24.0,-106.0,-73.0,127.0,127.0,127.0,116.0,85.0,-73.0
124.0,126.0,129.0,129.0,125.0,127.0,125.0,127.0,24.0,-106.0,-73.0,127.0,127.0,127.0,116.0,85.0,-73.0
124.0,126.0,128.0,129.0,126.0,127.0,125.0,128.0,24.0,-106.0,-73.0,127.0,127.0,127.0,116.0,85.0,-73.0
123.0,126.0,128.0,129.0,126.0,126.0,125.0,128.0,24.0,-106.0,-73.0,127.0,127.0,127.0,116.0,85.0,-73.0
123.0,126.0,127.0,129.0,126.0,127.0,125.0,128.0,24.0,-106.0,-73.0,127.0,127.0,127.0,116.0,85.0,-73.0
124.0,126.0,127.0,129.0,126.0,127.0,125.0,127.0,24.0,-106.0,-73.0,127.0,127.0,127.0,116.0,85.0,-73.0
123.0,126.0,127.0,129.0,126.0,127.0,125.0,127.0,24.0,-106.0,-73.0,127.0,127.0,127.0,116.0,85.0,-73.0
123.0,126.0,127.0,129.0,126.0,127.0,125.0,127.0,24.0,-106.0,-73.0,127.0,127.0,127.0,116.0,85.0,-73.0
123.0,127.0,127.0,129.0,126.0,126.0,124.0,127.0,24.0,-106.0,-73.0,127.0,127.0,127.0,116.0,85.0,-73.0
123.0,125.0,126.0,129.0,126.0,127.0,125.0,127.0,24.0,-105.0,-73.0,127.0,127.0,127.0,116.0,85.0,-73.0
123.0,125.0,126.0,129.0,126.0,127.0,125.0,127.0,24.0,-105.0,-73.0,127.0,127.0,127.0,116.0,85.0,-73.0
123.0,125.0,125.0,129.0,126.0,127.0,125.0,127.0,24.0,-105.0,-73.0,127.0,127.0,127.0,116.0,85.0,-73.0
123.0,125.0,125.0,129.0,126.0,127.0,125.0,127.0,24.0,-105.0,-73.0,127.0,127.0,127.0,116.0,85.0,-73.0
123.0,125.0,125.0,129.0,126.0,127.0,125.0,127.0,24.0,-105.0,-73.0,127.0,127.0,127.0,116.0,85.0,-73.0
123.0,125.0,125.0,129.0,126.0,127.0,125.0,127.0,24.0,-105.0,-73.0,127.0,127.0,127.0,116.0,85.0,-73.0
123.0,125.0,125.0,129.0,126.0,127.0,125.0,127.0,24.0,-105.0,-73.0,127.0,127.0,127.0,116.0,85.0,-73.0
123.0,125.0,125.0,129.0,126.0,127.0,125.0,127.0,24.0,-105.0,-73.0,127.0,127.0,127.0,116.0,85.0,-73.0
123.0,125.0,125.0,129.0,126.0,127.0,125.0,127.0,24.0,-105.0,-73.0,127.0,127.0,127.0,116.0,85.0,-73.0
123.0,125.0,125.0,129.0,126.0,127.0,125.0,127.0,24.0,-105.0,-73.0,127.0,127.0,127.0,116.0,85.0,-73.0
123.0,126.0,125.0,129.0,127.0,127.0,127.0,127.0,24.0,-105.0,-73.0,127.0,127.0,127.0,116.0,85.0,-73.0
123.0,126.0,125.0,129.0,127.0,127.0,127.0,127.0,24.0,-105.0,-73.0,127.0,127.0,127.0,116.0,85.0,-73.0
123.0,126.0,125.0,129.0,127.0,127.0,127.0,127.0,24.0,-105.0,-73.0,127.0,127.0,127.0,116.0,85.0,-73.0
123.0,126.0,125.0,129.0,127.0,127.0,127.0,127.0,24.0,-105.0,-73.0,127.0,127.0,127.0,116.0,85.0,-73.0
123.0,126.0,125.0,129.0,127.0,126.0,127.0,127.0,24.0,-105.0,-73.0,127.0,127.0,127.0,116.0,85.0,-73.0
123.0,126.0,124.0,129.0,127.0,127.0,127.0,127.0,24.0,-105.0,-73.0,127.0,127.0,127.0,116.0,85.0,-73.0
123.0,126.0,125.0,129.0,127.0,126.0,127.0,127.0,24.0,-105.0,-73.0,127.0,127.0,127.0,116.0,85.0,-73.0
123.0,126.0,125.0,129.0,127.0,127.0,127.0,127.0,24.0,-105.0,-73.0,127.0,127.0,127.0,116.0,85.0,-73.0
123.0,126.0,125.0,129.0,127.0,127.0,127.0,127.0,24.0,-105.0,-73.0,127.0,127.0,127.0,116.0,85.0,-73.0
123.0,126.0,125.0,129.0,127.0,127.0,127.0,127.0,24.0,-105.0,-73.0,127.0,127.0,127.0,116.0,85.0,-73.0
122.0,127.0,129.0,129.0,127.0,127.0,128.0,127.0,24.0,-105.0,-73.0,127.0,127.0,127.0,116.0,85.0,-73.0
122.0,127.0,129.0,129.0,127.0,127.0,128.0,127.0,24.0,-105.0,-73.0,127.0,127.0,127.0,116.0,85.0,-73.0
122.0,127.0,129.0,129.0,127.0,127.0,128.0,127.0,24.0,-105.0,-73.0,127.0,127.0,127.0,116.0,85.0,-73.0
122.0,127.0,128.0,129.0,127.0,127.0,128.0,127.0,24.0,-105.0,-73.0,127.0,127.0,127.0,116.0,85.0,-73.0
122.0,128.0,128.0,129.0,127.0,127.0,128.0,127.0,24.0,-105.0,-73.0,127.0,127.0,127.0,116.0,85.0,-73.0
122.0,127.0,128.0,129.0,127.0,127.0,128.0,127.0,24.0,-105.0,-73.0,127.0,127.0,127.0,116.0,85.0,-73.0
122.0,127.0,128.0,129.0,127.0,127.0,128.0,127.0,24.0,-105.0,-73.0,127.0,127.0,127.0,116.0,85.0,-73.0
122.0,127.0,128.0,129.0,127.0,127.0,128.0,127.0,24.0,-105.0,-73.0,127.0,127.0,127.0,116.0,85.0,-73.0
122.0,127.0,128.0,129.0,127.0,127.0,128.0,127.0,24.0,-105.0,-73.0,127.0,127.0,127.0,116.0,85.0,-73.0
122.0,127.0,128.0,129.0,127.0,127.0,128.0,127.0,24.0,-105.0,-73.0,127.0,127.0,127.0,116.0,85.0,-73.0
122.0,127.0,131.0,129.0,127.0,127.0,128.0,127.0,24.0,-106.0,-73.0,127.0,127.0,127.0,116.0,85.0,-73.0
122.0,127.0,131.0,129.0,127.0,127.0,128.0,127.0,24.0,-106.0,-73.0,127.0,127.0,127.0,116.0,85.0,-73.0
122.0,127.0,131.0,129.0,127.0,127.0,127.0,127.0,24.0,-106.0,-73.0,127.0,127.0,127.0,116.0,85.0,-73.0
122.0,128.0,130.0,129.0,127.0,126.0,127.0,127.0,24.0,-106.0,-73.0,127.0,127.0,127.0,116.0,85.0,-73.0
122.0,128.0,130.0,129.0,127.0,126.0,127.0,127.0,24.0,-106.0,-73.0,127.0,127.0,127.0,116.0,85.0,-73.0
122.0,128.0,130.0,129.0,127.0,127.0,127.0,127.0,24.0,-106.0,-73.0,127.0,127.0,127.0,116.0,85.0,-73.0
122.0,128.0,130.0,129.0,127.0,127.0,127.0,127.0,24.0,-106.0,-73.0,127.0,127.0,127.0,116.0,85.0,-73.0
122.0,128.0,131.0,129.0,127.0,127.0,127.0,127.0,24.0,-106.0,-73.0,127.0,127.0,127.0,116.0,85.0,-73.0
122.0,128.0,131.0,129.0,127.0,127.0,128.0,127.0,24.0,-106.0,-73.0,127.0,127.0,127.0,116.0,85.0,-73.0
122.0,127.0,131.0,129.0,127.0,127.0,128.0,127.0,24.0,-106.0,-73.0,127.0,127.0,127.0,116.0,85.0,-73.0
122.0,127.0,130.0,128.0,126.0,127.0,127.0,127.0,24.0,-106.0,-73.0,127.0,127.0,127.0,116.0,85.0,-73.0
122.0,127.0,130.0,128.0,126.0,127.0,127.0,127.0,24.0,-106.0,-73.0,127.0,127.0,127.0,116.0,85.0,-73.0
122.0,127.0,129.0,128.0,126.0,126.0,127.0,128.0,24.0,-106.0,-73.0,127.0,127.0,127.0,116.0,85.0,-73.0
122.0,127.0,129.0,128.0,126.0,126.0,127.0,128.0,24.0,-106.0,-73.0,127.0,127.0,127.0,116.0,85.0,-73.0
122.0,127.0,129.0,128.0,126.0,126.0,127.0,128.0,24.0,-106.0,-73.0,127.0,127.0,127.0,116.0,85.0,-73.0
122.0,126.0,129.0,128.0,126.0,126.0,127.0,128.0,24.0,-106.0,-73.0,127.0,127.0,127.0,116.0,85.0,-73.0
122.0,127.0,130.0,128.0,126.0,127.0,127.0,127.0,24.0,-106.0,-73.0,127.0,127.0,127.0,116.0,85.0,-73.0
122.0,127.0,130.0,128.0,126.0,127.0,127.0,127.0,24.0,-106.0,-73.0,127.0,127.0,127.0,116.0,85.0,-73.0
122.0,127.0,130.0,128.0,126.0,127.0,127.0,128.0,24.0,-106.0,-73.0,127.0,127.0,127.0,116.0,85.0,-73.0
122.0,127.0,130.0,128.0,126.0,127.0,127.0,127.0,24.0,-106.0,-73.0,127.0,127.0,127.0,116.0,85.0,-73.0
124.0,127.0,126.0,129.0,127.0,127.0,127.0,128.0,24.0,-106.0,-73.0,127.0,127.0,127.0,116.0,85.0,-73.0
124.0,128.0,125.0,129.0,127.0,126.0,127.0,128.0,24.0,-106.0,-73.0,127.0,127.0,127.0,116.0,85.0,-73.0
124.0,128.0,125.0,129.0,127.0,127.0,127.0,128.0,24.0,-106.0,-73.0,127.0,127.0,127.0,116.0,85.0,-73.0
124.0,128.0,125.0,129.0,127.0,126.0,127.0,128.0,24.0,-106.0,-73.0,127.0,127.0,127.0,116.0,85.0,-73.0
124.0,127.0,125.0,129.0,127.0,126.0,127.0,128.0,24.0,-106.0,-73.0,127.0,127.0,127.0,116.0,85.0,-73.0
124.0,127.0,126.0,129.0,127.0,126.0,127.0,128.0,24.0,-106.0,-73.0,127.0,127.0,127.0,116.0,85.0,-73.0
124.0,127.0,126.0,129.0,127.0,127.0,127.0,128.0,24.0,-106.0,-73.0,127.0,127.0,127.0,116.0,85.0,-73.0
124.0,127.0,126.0,129.0,127.0,127.0,127.0,128.0,24.0,-106.0,-73.0,127.0,127.0,127.0,116.0,85.0,-73.0
124.0,127.0,126.0,129.0,127.0,127.0,127.0,128.0,24.0,-106.0,-73.0,127.0,127.0,127.0,116.0,85.0,-73.0
124.0,127.0,126.0,129.0,127.0,127.0,127.0,128.0,24.0,-106.0,-73.0,127.0,127.0,127.0,116.0,85.0,-73.0
124.0,127.0,121.0,128.0,127.0,126.0,126.0,128.0,25.0,-106.0,-73.0,127.0,127.0,127.0,116.0,85.0,-73.0
124.0,127.0,121.0,129.0,127.0,126.0,126.0,128.0,25.0,-106.0,-73.0,127.0,127.0,127.0,116.0,85.0,-73.0
124.0,127.0,121.0,129.0,127.0,126.0,127.0,128.0,25.0,-106.0,-73.0,127.0,127.0,127.0,116.0,85.0,-73.0
124.0,127.0,121.0,129.0,127.0,127.0,127.0,128.0,25.0,-106.0,-73.0,127.0,127.0,127.0,116.0,85.0,-73.0
124.0,127.0,122.0,128.0,127.0,127.0,126.0,128.0,25.0,-106.0,-73.0,127.0,127.0,127.0,116.0,85.0,-73.0
124.0,127.0,122.0,128.0,127.0,127.0,127.0,128.0,25.0,-106.0,-73.0,127.0,127.0,127.0,116.0,85.0,-73.0
124.0,127.0,122.0,129.0,127.0,127.0,127.0,128.0,25.0,-106.0,-73.0,127.0,127.0,127.0,116.0,85.0,-73.0
125.0,127.0,122.0,129.0,127.0,127.0,127.0,128.0,25.0,-106.0,-73.0,127.0,127.0,127.0,116.0,85.0,-73.0
124.0,127.0,122.0,129.0,127.0,127.0,127.0,128.0,25.0,-106.0,-73.0,127.0,127.0,127.0,116.0,85.0,-73.0
125.0,127.0,122.0,129.0,127.0,127.0,127.0,128.0,25.0,-106.0,-73.0,127.0,127.0,127.0,116.0,85.0,-73.0
125.0,127.0,121.0,128.0,127.0,126.0,127.0,128.0,25.0,-106.0,-73.0,127.0,127.0,127.0,116.0,85.0,-73.0
125.0,127.0,121.0,128.0,127.0,126.0,127.0,128.0,25.0,-106.0,-73.0,127.0,127.0,127.0,116.0,85.0,-73.0
125.0,127.0,121.0,129.0,127.0,126.0,127.0,128.0,25.0,-106.0,-73.0,127.0,127.0,127.0,116.0,85.0,-73.0
125.0,127.0,122.0,128.0,127.0,126.0,127.0,128.0,25.0,-106.0,-73.0,127.0,127.0,127.0,116.0,85.0,-73.0
125.0,127.0,122.0,128.0,127.0,126.0,127.0,128.0,25.0,-106.0,-73.0,127.0,127.0,127.0,116.0,85.0,-73.0
125.0,127.0,122.0,128.0,127.0,127.0,127.0,128.0,25.0,-106.0,-73.0,127.0,127.0,127.0,116.0,85.0,-73.0
125.0,127.0,122.0,128.0,127.0,127.0,127.0,128.0,25.0,-106.0,-73.0,127.0,127.0,127.0,116.0,85.0,-73.0
125.0,127.0,122.0,128.0,127.0,127.0,127.0,128.0,25.0,-106.0,-73.0,127.0,127.0,127.0,116.0,85.0,-73.0
125.0,127.0,122.0,128.0,127.0,127.0,127.0,128.0,25.0,-106.0,-73.0,127.0,127.0,127.0,116.0,85.0,-73.0
125.0,127.0,121.0,128.0,126.0,126.0,127.0,128.0,25.0,-106.0,-73.0,127.0,127.0,127.0,116.0,85.0,-73.0
125.0,127.0,124.0,129.0,127.0,127.0,127.0,128.0,24.0,-106.0,-73.0,127.0,127.0,127.0,116.0,85.0,-73.0
125.0,127.0,124.0,129.0,127.0,127.0,127.0,128.0,24.0,-106.0,-73.0,127.0,127.0,127.0,116.0,85.0,-73.0
125.0,127.0,124.0,129.0,127.0,127.0,127.0,128.0,24.0,-106.0,-73.0,127.0,127.0,127.0,116.0,85.0,-73.0
125.0,127.0,124.0,129.0,127.0,127.0,127.0,128.0,24.0,-106.0,-73.0,127.0,127.0,127.0,116.0,85.0,-73.0
125.0,127.0,124.0,129.0,127.0,127.0,127.0,128.0,24.0,-106.0,-73.0,127.0,127.0,127.0,116.0,85.0,-73.0
125.0,127.0,124.0,129.0,127.0,127.0,127.0,128.0,24.0,-106.0,-73.0,127.0,127.0,127.0,116.0,85.0,-73.0
125.0,127.0,124.0,129.0,127.0,127.0,127.0,128.0,24.0,-106.0,-73.0,127.0,127.0,127.0,116.0,85.0,-73.0
125.0,127.0,124.0,129.0,127.0,127.0,127.0,128.0,24.0,-106.0,-73.0,127.0,127.0,127.0,116.0,85.0,-73.0
125.0,127.0,124.0,129.0,127.0,127.0,127.0,128.0,24.0,-106.0,-73.0,127.0,127.0,127.0,116.0,85.0,-73.0
125.0,127.0,124.0,129.0,127.0,127.0,127.0,128.0,24.0,-106.0,-73.0,127.0,127.0,127.0,116.0,85.0,-73.0
125.0,127.0,128.0,128.0,127.0,127.0,127.0,128.0,24.0,-106.0,-73.0,127.0,127.0,127.0,116.0,85.0,-73.0
125.0,126.0,127.0,128.0,126.0,127.0,127.0,128.0,24.0,-106.0,-73.0,127.0,127.0,127.0,116.0,85.0,-73.0
125.0,126.0,127.0,128.0,126.0,127.0,127.0,128.0,24.0,-106.0,-73.0,127.0,127.0,127.0,116.0,85.0,-73.0
125.0,127.0,127.0,128.0,126.0,127.0,127.0,128.0,24.0,-106.0,-73.0,127.0,127.0,127.0,116.0,85.0,-73.0
125.0,127.0,127.0,128.0,126.0,127.0,127.0,128.0,24.0,-106.0,-73.0,127.0,127.0,127.0,116.0,85.0,-73.0
125.0,127.0,127.0,128.0,126.0,127.0,126.0,128.0,24.0,-106.0,-73.0,127.0,127.0,127.0,116.0,85.0,-73.0
125.0,127.0,127.0,128.0,126.0,127.0,126.0,128.0,24.0,-106.0,-73.0,127.0,127.0,127.0,116.0,85.0,-73.0
125.0,127.0,127.0,128.0,127.0,127.0,127.0,128.0,24.0,-106.0,-73.0,127.0,127.0,127.0,116.0,85.0,-73.0
125.0,127.0,128.0,128.0,127.0,127.0,127.0,128.0,24.0,-106.0,-73.0,127.0,127.0,127.0,116.0,85.0,-73.0
125.0,127.0,128.0,128.0,127.0,127.0,127.0,128.0,24.0,-106.0,-73.0,127.0,127.0,127.0,116.0,85.0,-73.0
125.0,127.0,129.0,129.0,127.0,127.0,126.0,128.0,24.0,-106.0,-73.0,127.0,127.0,127.0,116.0,85.0,-73.0
125.0,127.0,129.0,129.0,127.0,127.0,127.0,128.0,24.0,-106.0,-73.0,127.0,127.0,127.0,116.0,85.0,-73.0
125.0,127.0,128.0,129.0,127.0,127.0,127.0,128.0,24.0,-106.0,-73.0,127.0,127.0,127.0,116.0,85.0,-73.0
125.0,127.0,128.0,128.0,127.0,127.0,127.0,128.0,24.0,-106.0,-73.0,127.0,127.0,127.0,116.0,85.0,-73.0
125.0,127.0,128.0,128.0,127.0,126.0,126.0,128.0,24.0,-106.0,-73.0,127.0,127.0,127.0,116.0,85.0,-73.0
125.0,127.0,127.0,129.0,127.0,127.0,126.0,128.0,24.0,-106.0,-73.0,127.0,127.0,127.0,116.0,85.0,-73.0
125.0,127.0,127.0,129.0,127.0,127.0,127.0,128.0,24.0,-106.0,-73.0,127.0,127.0,127.0,116.0,85.0,-73.0
125.0,127.0,127.0,128.0,127.0,126.0,127.0,128.0,24.0,-106.0,-73.0,127.0,127.0,127.0,116.0,85.0,-73.0
125.0,127.0,127.0,129.0,127.0,127.0,127.0,128.0,24.0,-106.0,-73.0,127.0,127.0,127.0,116.0,85.0,-73.0
125.0,127.0,127.0,129.0,127.0,127.0,127.0,128.0,24.0,-106.0,-73.0,127.0,127.0,127.0,116.0,85.0,-73.0
125.0,127.0,126.0,128.0,127.0,127.0,127.0,128.0,24.0,-106.0,-73.0,127.0,127.0,127.0,116.0,85.0,-73.0
125.0,127.0,126.0,128.0,127.0,127.0,127.0,128.0,24.0,-106.0,-73.0,127.0,127.0,127.0,116.0,85.0,-73.0
125.0,127.0,126.0,128.0,127.0,127.0,127.0,128.0,24.0,-106.0,-73.0,127.0,127.0,127.0,116.0,85.0,-73.0
125.0,127.0,125.0,128.0,127.0,126.0,126.0,128.0,24.0,-106.0,-73.0,127.0,127.0,127.0,116.0,85.0,-73.0
125.0,127.0,125.0,128.0,127.0,126.0,127.0,128.0,24.0,-106.0,-73.0,127.0,127.0,127.0,116.0,85.0,-73.0
125.0,127.0,125.0,128.0,127.0,127.0,127.0,128.0,24.0,-106.0,-73.0,127.0,127.0,127.0,116.0,85.0,-73.0
125.0,127.0,125.0,128.0,127.0,127.0,127.0,128.0,24.0,-106.0,-73.0,127.0,127.0,127.0,116.0,85.0,-73.0
125.0,127.0,125.0,128.0,127.0,127.0,127.0,128.0,24.0,-106.0,-73.0,127.0,127.0,127.0,116.0,85.0,-73.0
125.0,127.0,124.0,128.0,127.0,127.0,127.0,128.0,24.0,-106.0,-73.0,127.0,127.0,127.0,116.0,85.0,-73.0
125.0,127.0,126.0,128.0,127.0,127.0,127.0,128.0,24.0,-106.0,-73.0,127.0,127.0,127.0,116.0,85.0,-73.0
125.0,127.0,125.0,128.0,127.0,127.0,127.0,128.0,24.0,-106.0,-73.0,127.0,127.0,127.0,116.0,85.0,-73.0
125.0,127.0,125.0,128.0,127.0,127.0,127.0,128.0,24.0,-106.0,-73.0,127.0,127.0,127.0,116.0,85.0,-73.0
125.0,127.0,124.0,128.0,127.0,126.0,127.0,128.0,24.0,-106.0,-73.0,127.0,127.0,127.0,116.0,85.0,-73.0
125.0,127.0,124.0,128.0,127.0,126.0,126.0,128.0,24.0,-106.0,-73.0,127.0,127.0,127.0,116.0,85.0,-73.0
125.0,127.0,124.0,128.0,127.0,126.0,127.0,128.0,24.0,-106.0,-73.0,127.0,127.0,127.0,116.0,85.0,-73.0
125.0,127.0,124.0,128.0,127.0,126.0,127.0,128.0,24.0,-106.0,-73.0,127.0,127.0,127.0,116.0,85.0,-73.0
125.0,127.0,124.0,128.0,127.0,126.0,127.0,128.0,24.0,-106.0,-73.0,127.0,127.0,127.0,116.0,85.0,-73.0
125.0,127.0,124.0,128.0,127.0,126.0,127.0,128.0,24.0,-106.0,-73.0,127.0,127.0,127.0,116.0,85.0,-73.0
125.0,127.0,125.0,128.0,127.0,127.0,127.0,128.0,24.0,-106.0,-73.0,127.0,127.0,127.0,116.0,85.0,-73.0
125.0,127.0,125.0,128.0,127.0,127.0,127.0,128.0,24.0,-106.0,-73.0,127.0,127.0,127.0,116.0,85.0,-73.0
125.0,127.0,127.0,128.0,127.0,127.0,127.0,128.0,24.0,-106.0,-73.0,127.0,127.0,127.0,116.0,85.0,-73.0
125.0,127.0,127.0,128.0,127.0,126.0,127.0,128.0,24.0,-106.0,-73.0,127.0,127.0,127.0,116.0,85.0,-73.0
125.0,128.0,127.0,128.0,127.0,126.0,127.0,128.0,24.0,-106.0,-73.0,127.0,127.0,127.0,116.0,85.0,-73.0
125.0,127.0,127.0,128.0,127.0,126.0,127.0,128.0,24.0,-106.0,-73.0,127.0,127.0,127.0,116.0,85.0,-73.0
125.0,127.0,127.0,128.0,127.0,126.0,127.0,128.0,24.0,-106.0,-73.0,127.0,127.0,127.0,116.0,85.0,-73.0
125.0,127.0,127.0,128.0,127.0,126.0,127.0,128.0,24.0,-106.0,-73.0,127.0,127.0,127.0,116.0,85.0,-73.0
125.0,127.0,127.0,128.0,127.0,126.0,127.0,128.0,24.0,-106.0,-73.0,127.0,127.0,127.0,116.0,85.0,-73.0
125.0,127.0,127.0,128.0,127.0,127.0,127.0,128.0,24.0,-106.0,-73.0,127.0,127.0,127.0,116.0,85.0,-73.0
125.0,127.0,127.0,128.0,127.0,127.0,127.0,128.0,24.0,-106.0,-73.0,127.0,127.0,127.0,116.0,85.0,-73.0
125.0,127.0,127.0,128.0,127.0,127.0,127.0,128.0,24.0,-106.0,-73.0,127.0,127.0,127.0,116.0,85.0,-73.0
125.0,127.0,129.0,128.0,127.0,127.0,127.0,128.0,24.0,-106.0,-73.0,127.0,127.0,127.0,116.0,85.0,-73.0
125.0,127.0,128.0,128.0,127.0,126.0,126.0,128.0,24.0,-106.0,-73.0,127.0,127.0,127.0,116.0,85.0,-73.0
125.0,127.0,128.0,128.0,127.0,126.0,126.0,128.0,24.0,-106.0,-73.0,127.0,127.0,127.0,116.0,85.0,-73.0
125.0,127.0,128.0,128.0,127.0,126.0,126.0,128.0,24.0,-106.0,-73.0,127.0,127.0,127.0,116.0,85.0,-73.0
125.0,127.0,128.0,128.0,127.0,126.0,126.0,128.0,24.0,-106.0,-73.0,127.0,127.0,127.0,116.0,85.0,-73.0
125.0,127.0,128.0,128.0,127.0,126.0,126.0,128.0,24.0,-106.0,-73.0,127.0,127.0,127.0,116.0,85.0,-73.0
125.0,127.0,129.0,128.0,127.0,126.0,126.0,128.0,24.0,-106.0,-73.0,127.0,127.0,127.0,116.0,85.0,-73.0
125.0,127.0,129.0,128.0,127.0,127.0,127.0,128.0,24.0,-106.0,-73.0,127.0,127.0,127.0,116.0,85.0,-73.0
125.0,127.0,129.0,128.0,127.0,127.0,127.0,128.0,24.0,-106.0,-73.0,127.0,127.0,127.0,116.0,85.0,-73.0
125.0,127.0,129.0,128.0,127.0,127.0,127.0,128.0,24.0,-106.0,-73.0,127.0,127.0,127.0,116.0,85.0,-73.0
125.0,127.0,128.0,128.0,127.0,126.0,126.0,128.0,24.0,-106.0,-73.0,127.0,127.0,127.0,116.0,85.0,-73.0
125.0,127.0,128.0,128.0,127.0,126.0,126.0,128.0,24.0,-106.0,-73.0,127.0,127.0,127.0,116.0,85.0,-73.0
125.0,127.0,128.0,128.0,127.0,126.0,126.0,128.0,24.0,-106.0,-73.0,127.0,127.0,127.0,116.0,85.0,-73.0
126.0,127.0,128.0,128.0,127.0,126.0,126.0,128.0,24.0,-106.0,-73.0,127.0,127.0,127.0,116.0,85.0,-73.0
125.0,127.0,128.0,128.0,127.0,126.0,126.0,128.0,24.0,-106.0,-73.0,127.0,127.0,127.0,116.0,85.0,-73.0
125.0,127.0,129.0,128.0,127.0,127.0,126.0,128.0,24.0,-106.0,-73.0,127.0,127.0,127.0,116.0,85.0,-73.0
126.0,126.0,129.0,128.0,127.0,127.0,126.0,128.0,24.0,-106.0,-73.0,127.0,127.0,127.0,116.0,85.0,-73.0
126.0,126.0,129.0,128.0,127.0,127.0,126.0,128.0,24.0,-106.0,-73.0,127.0,127.0,127.0,116.0,85.0,-73.0
126.0,126.0,129.0,128.0,127.0,127.0,126.0,128.0,24.0,-106.0,-73.0,127.0,127.0,127.0,116.0,85.0,-73.0
126.0,126.0,129.0,128.0,127.0,127.0,126.0,128.0,24.0,-106.0,-73.0,127.0,127.0,127.0,116.0,85.0,-73.0
126.0,127.0,129.0,128.0,127.0,127.0,127.0,128.0,24.0,-106.0,-73.0,127.0,127.0,127.0,116.0,85.0,-73.0
126.0,127.0,128.0,128.0,127.0,127.0,127.0,128.0,24.0,-106.0,-73.0,127.0,127.0,127.0,116.0,85.0,-73.0
126.0,127.0,128.0,128.0,127.0,127.0,126.0,128.0,24.0,-106.0,-73.0,127.0,127.0,127.0,116.0,85.0,-73.0
126.0,127.0,127.0,128.0,127.0,127.0,126.0,128.0,24.0,-106.0,-73.0,127.0,127.0,127.0,116.0,85.0,-73.0
126.0,126.0,129.0,128.0,127.0,127.0,126.0,128.0,24.0,-106.0,-73.0,127.0,127.0,127.0,116.0,85.0,-73.0
126.0,127.0,129.0,128.0,127.0,127.0,126.0,128.0,24.0,-106.0,-73.0,127.0,127.0,127.0,116.0,85.0,-73.0
126.0,126.0,129.0,128.0,127.0,127.0,126.0,128.0,24.0,-106.0,-73.0,127.0,127.0,127.0,116.0,85.0,-73.0
126.0,127.0,129.0,128.0,127.0,127.0,126.0,128.0,24.0,-106.0,-73.0,127.0,127.0,127.0,116.0,85.0,-73.0
126.0,127.0,129.0,128.0,127.0,127.0,127.0,128.0,24.0,-106.0,-73.0,127.0,127.0,127.0,116.0,85.0,-73.0
126.0,127.0,129.0,128.0,127.0,127.0,127.0,128.0,24.0,-106.0,-73.0,127.0,127.0,127.0,116.0,85.0,-73.0
125.0,127.0,127.0,128.0,127.0,127.0,126.0,128.0,24.0,-106.0,-73.0,127.0,127.0,127.0,116.0,85.0,-73.0
126.0,127.0,127.0,128.0,127.0,127.0,126.0,128.0,24.0,-106.0,-73.0,127.0,127.0,127.0,116.0,85.0,-73.0
126.0,127.0,127.0,128.0,127.0,127.0,126.0,128.0,24.0,-106.0,-73.0,127.0,127.0,127.0,116.0,85.0,-73.0
126.0,126.0,128.0,128.0,126.0,127.0,126.0,128.0,24.0,-106.0,-73.0,127.0,127.0,127.0,116.0,85.0,-73.0
126.0,127.0,128.0,128.0,127.0,127.0,126.0,128.0,24.0,-106.0,-73.0,127.0,127.0,127.0,116.0,85.0,-73.0
125.0,127.0,127.0,128.0,127.0,127.0,126.0,128.0,24.0,-106.0,-73.0,127.0,127.0,127.0,116.0,85.0,-73.0
125.0,127.0,127.0,128.0,127.0,127.0,126.0,128.0,24.0,-106.0,-73.0,127.0,127.0,127.0,116.0,85.0,-73.0
125.0,127.0,127.0,128.0,127.0,127.0,126.0,128.0,24.0,-106.0,-73.0,127.0,127.0,127.0,116.0,85.0,-73.0
125.0,127.0,127.0,128.0,127.0,127.0,126.0,128.0,24.0,-106.0,-73.0,127.0,127.0,127.0,116.0,85.0,-73.0
125.0,127.0,127.0,128.0,127.0,127.0,126.0,128.0,24.0,-106.0,-73.0,127.0,127.0,127.0,116.0,85.0,-73.0
126.0,127.0,126.0,128.0,127.0,126.0,127.0,128.0,24.0,-106.0,-73.0,127.0,127.0,127.0,116.0,85.0,-73.0
126.0,127.0,126.0,128.0,127.0,127.0,127.0,128.0,24.0,-106.0,-73.0,127.0,127.0,127.0,116.0,85.0,-73.0
126.0,127.0,127.0,128.0,127.0,127.0,126.0,128.0,24.0,-106.0,-73.0,127.0,127.0,127.0,116.0,85.0,-73.0
126.0,127.0,127.0,128.0,127.0,127.0,126.0,128.0,24.0,-106.0,-73.0,127.0,127.0,127.0,116.0,85.0,-73.0
126.0,127.0,127.0,128.0,127.0,126.0,126.0,128.0,24.0,-106.0,-73.0,127.0,127.0,127.0,116.0,85.0,-73.0
126.0,127.0,126.0,128.0,127.0,126.0,126.0,128.0,24.0,-106.0,-73.0,127.0,127.0,127.0,116.0,85.0,-73.0
126.0,127.0,126.0,128.0,127.0,126.0,126.0,128.0,24.0,-106.0,-73.0,127.0,127.0,127.0,116.0,85.0,-73.0
126.0,127.0,126.0,128.0,127.0,126.0,126.0,128.0,24.0,-106.0,-73.0,127.0,127.0,127.0,116.0,85.0,-73.0
126.0,127.0,126.0,128.0,127.0,126.0,126.0,128.0,24.0,-106.0,-73.0,127.0,127.0,127.0,116.0,85.0,-73.0
126.0,127.0,126.0,128.0,127.0,126.0,126.0,128.0,24.0,-106.0,-73.0,127.0,127.0,127.0,116.0,85.0,-73.0
126.0,126.0,126.0,128.0,127.0,127.0,127.0,128.0,24.0,-106.0,-73.0,127.0,127.0,127.0,116.0,85.0,-73.0
125.0,126.0,127.0,128.0,127.0,127.0,126.0,128.0,24.0,-106.0,-73.0,127.0,127.0,127.0,116.0,85.0,-73.0
125.0,126.0,127.0,128.0,127.0,127.0,126.0,128.0,24.0,-106.0,-73.0,127.0,127.0,127.0,116.0,85.0,-73.0
125.0,126.0,127.0,128.0,127.0,127.0,126.0,128.0,24.0,-106.0,-73.0,127.0,127.0,127.0,116.0,85.0,-73.0
125.0,127.0,126.0,128.0,127.0,126.0,126.0,128.0,24.0,-106.0,-73.0,127.0,127.0,127.0,116.0,85.0,-73.0
125.0,127.0,126.0,128.0,127.0,126.0,126.0,128.0,24.0,-106.0,-73.0,127.0,127.0,127.0,116.0,85.0,-73.0
125.0,127.0,126.0,128.0,127.0,126.0,127.0,128.0,24.0,-106.0,-73.0,127.0,127.0,127.0,116.0,85.0,-73.0
125.0,127.0,126.0,128.0,127.0,126.0,127.0,128.0,24.0,-106.0,-73.0,127.0,127.0,127.0,116.0,85.0,-73.0
125.0,127.0,126.0,128.0,127.0,126.0,127.0,128.0,24.0,-106.0,-73.0,127.0,127.0,127.0,116.0,85.0,-73.0
125.0,127.0,126.0,128.0,127.0,126.0,127.0,128.0,24.0,-106.0,-73.0,127.0,127.0,127.0,116.0,85.0,-73.0
126.0,127.0,127.0,128.0,127.0,127.0,127.0,128.0,24.0,-106.0,-73.0,127.0,127.0,127.0,116.0,85.0,-73.0
126.0,127.0,127.0,128.0,127.0,127.0,126.0,128.0,24.0,-106.0,-73.0,127.0,127.0,127.0,116.0,85.0,-73.0
126.0,127.0,127.0,128.0,127.0,127.0,126.0,128.0,24.0,-106.0,-73.0,127.0,127.0,127.0,116.0,85.0,-73.0
126.0,127.0,126.0,128.0,127.0,126.0,126.0,128.0,24.0,-106.0,-73.0,127.0,127.0,127.0,116.0,85.0,-73.0
126.0,127.0,126.0,128.0,127.0,126.0,126.0,128.0,24.0,-106.0,-73.0,127.0,127.0,127.0,116.0,85.0,-73.0
126.0,127.0,126.0,128.0,127.0,126.0,126.0,128.0,24.0,-106.0,-73.0,127.0,127.0,127.0,116.0,85.0,-73.0
126.0,127.0,126.0,128.0,127.0,126.0,127.0,128.0,24.0,-106.0,-73.0,127.0,127.0,127.0,116.0,85.0,-73.0
126.0,127.0,126.0,128.0,127.0,126.0,127.0,128.0,24.0,-106.0,-73.0,127.0,127.0,127.0,116.0,85.0,-73.0
126.0,127.0,126.0,128.0,127.0,127.0,127.0,128.0,24.0,-106.0,-73.0,127.0,127.0,127.0,116.0,85.0,-73.0
126.0,127.0,126.0,128.0,127.0,127.0,127.0,128.0,24.0,-106.0,-73.0,127.0,127.0,127.0,116.0,85.0,-73.0
126.0,127.0,126.0,128.0,127.0,127.0,127.0,128.0,24.0,-106.0,-73.0,127.0,127.0,127.0,116.0,85.0,-73.0
126.0,127.0,126.0,128.0,127.0,126.0,127.0,128.0,24.0,-106.0,-73.0,127.0,127.0,127.0,116.0,85.0,-73.0
126.0,127.0,126.0,128.0,127.0,126.0,127.0,128.0,24.0,-106.0,-73.0,127.0,127.0,127.0,116.0,85.0,-73.0
126.0,127.0,126.0,128.0,127.0,126.0,127.0,128.0,24.0,-106.0,-73.0,127.0,127.0,127.0,116.0,85.0,-73.0
126.0,127.0,126.0,128.0,127.0,126.0,127.0,128.0,24.0,-106.0,-73.0,127.0,127.0,127.0,116.0,85.0,-73.0
126.0,127.0,125.0,128.0,127.0,126.0,127.0,128.0,24.0,-106.0,-73.0,127.0,127.0,127.0,116.0,85.0,-73.0
126.0,127.0,125.0,128.0,127.0,126.0,127.0,128.0,24.0,-106.0,-73.0,127.0,127.0,127.0,116.0,85.0,-73.0
126.0,127.0,125.0,128.0,127.0,126.0,127.0,128.0,24.0,-106.0,-73.0,127.0,127.0,127.0,116.0,85.0,-73.0
126.0,127.0,125.0,128.0,127.0,126.0,127.0,128.0,24.0,-106.0,-73.0,127.0,127.0,127.0,116.0,85.0,-73.0
126.0,127.0,125.0,128.0,127.0,126.0,127.0,128.0,24.0,-106.0,-73.0,127.0,127.0,127.0,116.0,85.0,-73.0
126.0,127.0,124.0,128.0,127.0,127.0,127.0,128.0,23.0,-106.0,-73.0,127.0,127.0,127.0,116.0,85.0,-73.0
126.0,127.0,124.0,128.0,127.0,126.0,126.0,128.0,23.0,-106.0,-73.0,127.0,127.0,127.0,116.0,85.0,-73.0
126.0,127.0,123.0,128.0,127.0,126.0,126.0,128.0,23.0,-106.0,-73.0,127.0,127.0,127.0,116.0,85.0,-73.0
126.0,127.0,123.0,128.0,127.0,126.0,126.0,128.0,23.0,-106.0,-73.0,127.0,127.0,127.0,116.0,85.0,-73.0
126.0,127.0,123.0,128.0,127.0,126.0,126.0,128.0,23.0,-106.0,-73.0,127.0,127.0,127.0,116.0,85.0,-73.0
126.0,127.0,123.0,128.0,127.0,126.0,126.0,128.0,23.0,-106.0,-73.0,127.0,127.0,127.0,116.0,85.0,-73.0
126.0,127.0,123.0,128.0,127.0,126.0,126.0,128.0,23.0,-106.0,-73.0,127.0,127.0,127.0,116.0,85.0,-73.0
126.0,127.0,123.0,128.0,127.0,127.0,127.0,128.0,23.0,-106.0,-73.0,127.0,127.0,127.0,116.0,85.0,-73.0
126.0,127.0,124.0,128.0,127.0,127.0,127.0,128.0,23.0,-106.0,-73.0,127.0,127.0,127.0,116.0,85.0,-73.0
126.0,127.0,124.0,128.0,127.0,126.0,127.0,128.0,23.0,-106.0,-73.0,127.0,127.0,127.0,116.0,85.0,-73.0
126.0,127.0,124.0,128.0,127.0,126.0,126.0,128.0,23.0,-106.0,-73.0,127.0,127.0,127.0,116.0,85.0,-73.0
126.0,127.0,123.0,128.0,127.0,126.0,126.0,128.0,23.0,-106.0,-73.0,127.0,127.0,127.0,116.0,85.0,-73.0
126.0,127.0,124.0,128.0,127.0,126.0,126.0,128.0,23.0,-106.0,-73.0,127.0,127.0,127.0,116.0,85.0,-73.0
126.0,127.0,124.0,128.0,127.0,126.0,126.0,128.0,23.0,-106.0,-73.0,127.0,127.0,127.0,116.0,85.0,-73.0
126.0,128.0,124.0,128.0,127.0,126.0,127.0,128.0,23.0,-106.0,-73.0,127.0,127.0,127.0,116.0,85.0,-73.0
126.0,128.0,124.0,128.0,127.0,126.0,127.0,128.0,23.0,-106.0,-73.0,127.0,127.0,127.0,116.0,85.0,-73.0
126.0,127.0,124.0,128.0,127.0,127.0,127.0,128.0,23.0,-106.0,-73.0,127.0,127.0,127.0,116.0,85.0,-73.0
126.0,127.0,124.0,128.0,127.0,127.0,126.0,128.0,23.0,-106.0,-73.0,127.0,127.0,127.0,116.0,85.0,-73.0
126.0,127.0,124.0,128.0,127.0,127.0,126.0,128.0,23.0,-106.0,-73.0,127.0,127.0,127.0,116.0,85.0,-73.0
126.0,127.0,124.0,128.0,127.0,127.0,126.0,128.0,23.0,-106.0,-73.0,127.0,127.0,127.0,116.0,85.0,-73.0
126.0,126.0,125.0,128.0,127.0,127.0,127.0,128.0,24.0,-106.0,-73.0,127.0,127.0,127.0,116.0,85.0,-73.0
126.0,126.0,124.0,128.0,127.0,127.0,127.0,128.0,24.0,-106.0,-73.0,127.0,127.0,127.0,116.0,85.0,-73.0
126.0,127.0,124.0,128.0,127.0,127.0,127.0,128.0,24.0,-106.0,-73.0,127.0,127.0,127.0,116.0,85.0,-73.0
126.0,127.0,123.0,128.0,127.0,127.0,126.0,128.0,24.0,-106.0,-73.0,127.0,127.0,127.0,116.0,85.0,-73.0
126.0,127.0,123.0,128.0,127.0,127.0,126.0,128.0,24.0,-106.0,-73.0,127.0,127.0,127.0,116.0,85.0,-73.0
126.0,127.0,123.0,128.0,127.0,127.0,126.0,128.0,24.0,-106.0,-73.0,127.0,127.0,127.0,116.0,85.0,-73.0
126.0,127.0,123.0,128.0,127.0,127.0,126.0,128.0,24.0,-106.0,-73.0,127.0,127.0,127.0,116.0,85.0,-73.0
126.0,126.0,125.0,128.0,127.0,127.0,127.0,128.0,24.0,-106.0,-73.0,127.0,127.0,127.0,116.0,85.0,-73.0
126.0,126.0,125.0,128.0,127.0,127.0,127.0,128.0,24.0,-106.0,-73.0,127.0,127.0,127.0,116.0,85.0,-73.0
126.0,126.0,125.0,128.0,127.0,127.0,127.0,128.0,24.0,-106.0,-73.0,127.0,127.0,127.0,116.0,85.0,-73.0
126.0,127.0,125.0,128.0,127.0,127.0,126.0,128.0,24.0,-106.0,-73.0,127.0,127.0,127.0,116.0,85.0,-73.0
126.0,127.0,125.0,128.0,127.0,126.0,126.0,128.0,24.0,-106.0,-73.0,127.0,127.0,127.0,116.0,85.0,-73.0
126.0,127.0,125.0,128.0,127.0,127.0,126.0,128.0,24.0,-106.0,-73.0,127.0,127.0,127.0,116.0,85.0,-73.0
126.0,127.0,125.0,128.0,127.0,127.0,127.0,128.0,24.0,-106.0,-73.0,127.0,127.0,127.0,116.0,85.0,-73.0
126.0,127.0,125.0,128.0,127.0,127.0,127.0,128.0,24.0,-106.0,-73.0,127.0,127.0,127.0,116.0,85.0,-73.0
126.0,127.0,125.0,128.0,127.0,127.0,127.0,128.0,24.0,-106.0,-73.0,127.0,127.0,127.0,116.0,85.0,-73.0
126.0,127.0,125.0,128.0,127.0,126.0,126.0,128.0,24.0,-106.0,-73.0,127.0,127.0,127.0,116.0,85.0,-73.0
126.0,127.0,125.0,128.0,127.0,126.0,126.0,128.0,24.0,-106.0,-73.0,127.0,127.0,127.0,116.0,85.0,-73.0
126.0,127.0,125.0,128.0,127.0,127.0,126.0,128.0,24.0,-106.0,-73.0,127.0,127.0,127.0,116.0,85.0,-73.0
126.0,127.0,125.0,128.0,127.0,127.0,126.0,128.0,24.0,-106.0,-73.0,127.0,127.0,127.0,116.0,85.0,-73.0
126.0,127.0,126.0,128.0,127.0,126.0,127.0,128.0,24.0,-107.0,-73.0,127.0,127.0,127.0,116.0,85.0,-73.0
126.0,127.0,126.0,128.0,127.0,126.0,127.0,128.0,24.0,-107.0,-73.0,127.0,127.0,127.0,116.0,85.0,-73.0
126.0,127.0,126.0,128.0,127.0,126.0,127.0,128.0,24.0,-107.0,-73.0,127.0,127.0,127.0,116.0,85.0,-73.0
126.0,127.0,126.0,128.0,127.0,127.0,127.0,128.0,24.0,-107.0,-73.0,127.0,127.0,127.0,116.0,85.0,-73.0
126.0,127.0,126.0,128.0,127.0,127.0,127.0,128.0,24.0,-107.0,-73.0,127.0,127.0,127.0,116.0,85.0,-73.0
126.0,127.0,126.0,128.0,127.0,126.0,126.0,128.0,24.0,-107.0,-73.0,127.0,127.0,127.0,116.0,85.0,-73.0
126.0,127.0,126.0,128.0,127.0,126.0,126.0,128.0,24.0,-107.0,-73.0,127.0,127.0,127.0,116.0,85.0,-73.0
126.0,127.0,126.0,128.0,127.0,126.0,126.0,128.0,24.0,-107.0,-73.0,127.0,127.0,127.0,116.0,85.0,-73.0
126.0,127.0,126.0,128.0,127.0,126.0,126.0,128.0,24.0,-107.0,-73.0,127.0,127.0,127.0,116.0,85.0,-73.0
126.0,127.0,126.0,128.0,127.0,126.0,126.0,128.0,24.0,-107.0,-73.0,127.0,127.0,127.0,116.0,85.0,-73.0
126.0,127.0,126.0,128.0,127.0,127.0,127.0,128.0,24.0,-107.0,-73.0,127.0,127.0,127.0,116.0,85.0,-73.0
126.0,127.0,126.0,128.0,127.0,127.0,127.0,128.0,24.0,-107.0,-73.0,127.0,127.0,127.0,116.0,85.0,-73.0
126.0,127.0,126.0,128.0,127.0,127.0,127.0,128.0,24.0,-107.0,-73.0,127.0,127.0,127.0,116.0,85.0,-73.0
126.0,127.0,126.0,128.0,127.0,127.0,127.0,128.0,24.0,-107.0,-73.0,127.0,127.0,127.0,116.0,85.0,-73.0
126.0,127.0,126.0,128.0,127.0,126.0,127.0,128.0,24.0,-107.0,-73.0,127.0,127.0,127.0,116.0,85.0,-73.0
126.0,127.0,126.0,128.0,127.0,126.0,127.0,128.0,24.0,-107.0,-73.0,127.0,127.0,127.0,116.0,85.0,-73.0
126.0,127.0,126.0,128.0,127.0,126.0,127.0,128.0,24.0,-107.0,-73.0,127.0,127.0,127.0,116.0,85.0,-73.0
126.0,127.0,126.0,128.0,127.0,127.0,127.0,128.0,24.0,-107.0,-73.0,127.0,127.0,127.0,116.0,85.0,-73.0
126.0,127.0,126.0,128.0,127.0,127.0,127.0,128.0,24.0,-107.0,-73.0,127.0,127.0,127.0,116.0,85.0,-73.0
126.0,127.0,126.0,128.0,127.0,127.0,127.0,128.0,24.0,-107.0,-73.0,127.0,127.0,127.0,116.0,85.0,-73.0
126.0,127.0,125.0,128.0,127.0,127.0,127.0,128.0,24.0,-107.0,-73.0,127.0,127.0,127.0,116.0,85.0,-73.0
126.0,127.0,125.0,128.0,127.0,127.0,127.0,128.0,24.0,-107.0,-73.0,127.0,127.0,127.0,116.0,85.0,-73.0
126.0,127.0,125.0,128.0,127.0,127.0,127.0,128.0,24.0,-107.0,-73.0,127.0,127.0,127.0,116.0,85.0,-73.0
126.0,127.0,125.0,128.0,127.0,126.0,126.0,128.0,24.0,-107.0,-73.0,127.0,127.0,127.0,116.0,85.0,-73.0
