emg1,emg2,emg3,emg4,emg5,emg6,emg7,emg8,acc_x,acc_y,acc_z,gyro_x,gyro_y,gyro_z,angle_pitch,angle_roll,angle_yaw
126.0,127.0,127.0,127.0,128.0,127.0,112.0,128.0,40.0,-108.0,-62.0,127.0,127.0,127.0,115.0,87.0,-101.0
126.0,127.0,127.0,127.0,128.0,127.0,112.0,128.0,40.0,-108.0,-62.0,127.0,127.0,127.0,115.0,87.0,-101.0
126.0,127.0,127.0,127.0,128.0,127.0,112.0,128.0,40.0,-108.0,-62.0,127.0,127.0,127.0,115.0,87.0,-101.0
126.0,127.0,127.0,127.0,128.0,127.0,112.0,127.0,40.0,-108.0,-62.0,127.0,127.0,127.0,115.0,87.0,-101.0
126.0,127.0,127.0,126.0,127.0,127.0,112.0,127.0,40.0,-108.0,-62.0,127.0,127.0,127.0,115.0,87.0,-101.0
126.0,126.0,128.0,128.0,127.0,126.0,112.0,127.0,40.0,-108.0,-62.0,127.0,127.0,127.0,115.0,88.0,-101.0
126.0,126.0,128.0,128.0,127.0,126.0,113.0,127.0,40.0,-108.0,-62.0,127.0,127.0,127.0,115.0,88.0,-101.0
126.0,126.0,128.0,128.0,127.0,126.0,112.0,127.0,40.0,-108.0,-62.0,127.0,127.0,127.0,115.0,88.0,-101.0
126.0,127.0,127.0,127.0,127.0,127.0,113.0,127.0,40.0,-108.0,-62.0,127.0,127.0,127.0,115.0,88.0,-101.0
126.0,126.0,127.0,127.0,128.0,127.0,113.0,127.0,40.0,-108.0,-62.0,127.0,127.0,127.0,115.0,88.0,-101.0
126.0,126.0,128.0,127.0,128.0,127.0,110.0,127.0,40.0,-108.0,-62.0,127.0,127.0,127.0,115.0,88.0,-101.0
126.0,126.0,128.0,127.0,128.0,127.0,112.0,127.0,40.0,-108.0,-62.0,127.0,127.0,127.0,115.0,88.0,-101.0
126.0,126.0,128.0,128.0,128.0,127.0,113.0,127.0,40.0,-108.0,-62.0,127.0,127.0,127.0,115.0,88.0,-101.0
126.0,126.0,128.0,128.0,127.0,127.0,112.0,127.0,40.0,-108.0,-62.0,127.0,127.0,127.0,115.0,88.0,-101.0
126.0,126.0,128.0,128.0,127.0,127.0,112.0,127.0,40.0,-108.0,-62.0,127.0,127.0,127.0,115.0,88.0,-101.0
126.0,129.0,116.0,125.0,127.0,115.0,101.0,122.0,40.0,-108.0,-62.0,127.0,127.0,127.0,115.0,88.0,-101.0
126.0,129.0,116.0,126.0,127.0,115.0,100.0,122.0,40.0,-108.0,-62.0,127.0,127.0,127.0,115.0,88.0,-101.0
126.0,131.0,120.0,127.0,128.0,120.0,101.0,124.0,40.0,-108.0,-62.0,127.0,127.0,127.0,115.0,88.0,-101.0
126.0,131.0,120.0,127.0,128.0,119.0,101.0,124.0,40.0,-108.0,-62.0,127.0,127.0,127.0,115.0,88.0,-101.0
126.0,131.0,120.0,126.0,128.0,119.0,100.0,124.0,40.0,-108.0,-62.0,127.0,127.0,127.0,115.0,88.0,-101.0
126.0,131.0,119.0,125.0,128.0,118.0,105.0,124.0,40.0,-108.0,-62.0,127.0,127.0,127.0,115.0,88.0,-101.0
126.0,130.0,118.0,125.0,128.0,118.0,105.0,124.0,40.0,-108.0,-62.0,127.0,127.0,127.0,115.0,88.0,-101.0
126.0,130.0,118.0,125.0,128.0,117.0,104.0,124.0,40.0,-108.0,-62.0,127.0,127.0,127.0,115.0,88.0,-101.0
126.0,130.0,117.0,125.0,127.0,117.0,104.0,123.0,40.0,-108.0,-62.0,127.0,127.0,127.0,115.0,88.0,-101.0
126.0,129.0,117.0,125.0,127.0,116.0,102.0,123.0,40.0,-108.0,-62.0,127.0,127.0,127.0,115.0,88.0,-101.0
124.0,126.0,127.0,135.0,138.0,87.0,76.0,118.0,40.0,-108.0,-62.0,127.0,127.0,127.0,115.0,88.0,-101.0
124.0,129.0,111.0,131.0,134.0,90.0,79.0,117.0,40.0,-108.0,-62.0,127.0,127.0,127.0,115.0,88.0,-101.0
124.0,128.0,111.0,131.0,134.0,89.0,78.0,117.0,40.0,-108.0,-62.0,127.0,127.0,127.0,115.0,88.0,-101.0
124.0,128.0,112.0,131.0,135.0,89.0,78.0,117.0,40.0,-108.0,-62.0,127.0,127.0,127.0,115.0,88.0,-101.0
123.0,127.0,114.0,131.0,135.0,89.0,77.0,117.0,40.0,-108.0,-62.0,127.0,127.0,127.0,115.0,88.0,-101.0
123.0,126.0,116.0,131.0,135.0,88.0,77.0,117.0,40.0,-108.0,-62.0,127.0,127.0,127.0,115.0,88.0,-101.0
123.0,126.0,118.0,132.0,136.0,88.0,77.0,117.0,40.0,-108.0,-62.0,127.0,127.0,127.0,115.0,88.0,-101.0
123.0,125.0,122.0,132.0,136.0,88.0,77.0,117.0,40.0,-108.0,-62.0,127.0,127.0,127.0,115.0,88.0,-101.0
123.0,124.0,125.0,133.0,136.0,88.0,76.0,117.0,40.0,-108.0,-62.0,127.0,127.0,127.0,115.0,88.0,-101.0
123.0,125.0,126.0,134.0,137.0,87.0,76.0,118.0,40.0,-108.0,-62.0,127.0,127.0,127.0,115.0,88.0,-101.0
122.0,134.0,138.0,175.0,161.0,103.0,94.0,127.0,41.0,-108.0,-62.0,-128.0,127.0,127.0,115.0,88.0,-101.0
122.0,134.0,139.0,175.0,161.0,103.0,93.0,127.0,41.0,-108.0,-62.0,-128.0,127.0,127.0,115.0,88.0,-101.0
122.0,134.0,140.0,176.0,162.0,103.0,88.0,127.0,41.0,-108.0,-62.0,-128.0,127.0,127.0,115.0,88.0,-101.0
122.0,135.0,140.0,176.0,163.0,103.0,88.0,126.0,41.0,-108.0,-62.0,-128.0,127.0,127.0,115.0,88.0,-101.0
122.0,135.0,139.0,176.0,164.0,103.0,89.0,126.0,41.0,-108.0,-62.0,-128.0,127.0,127.0,115.0,88.0,-101.0
122.0,135.0,139.0,177.0,166.0,103.0,88.0,125.0,41.0,-108.0,-62.0,-128.0,127.0,127.0,115.0,88.0,-101.0
122.0,135.0,140.0,177.0,167.0,103.0,92.0,125.0,41.0,-108.0,-62.0,-128.0,127.0,127.0,115.0,88.0,-101.0
122.0,135.0,141.0,177.0,168.0,102.0,93.0,124.0,41.0,-108.0,-62.0,-128.0,127.0,127.0,115.0,88.0,-101.0
122.0,134.0,141.0,177.0,170.0,102.0,92.0,124.0,41.0,-108.0,-62.0,-128.0,127.0,127.0,115.0,88.0,-101.0
122.0,134.0,141.0,178.0,171.0,101.0,91.0,123.0,41.0,-108.0,-62.0,-128.0,127.0,127.0,115.0,88.0,-101.0
123.0,141.0,128.0,172.0,202.0,154.0,128.0,117.0,40.0,-110.0,-61.0,-126.0,-128.0,127.0,116.0,88.0,-101.0
123.0,141.0,127.0,170.0,200.0,155.0,130.0,116.0,40.0,-110.0,-61.0,-126.0,-128.0,127.0,116.0,88.0,-101.0
123.0,140.0,127.0,169.0,198.0,157.0,133.0,115.0,40.0,-110.0,-61.0,-126.0,-128.0,127.0,116.0,88.0,-101.0
123.0,140.0,126.0,167.0,196.0,158.0,134.0,114.0,40.0,-110.0,-61.0,-126.0,-128.0,127.0,116.0,88.0,-101.0
123.0,139.0,125.0,165.0,193.0,158.0,136.0,113.0,40.0,-110.0,-61.0,-126.0,-128.0,127.0,116.0,88.0,-101.0
123.0,139.0,125.0,163.0,191.0,159.0,133.0,111.0,40.0,-110.0,-61.0,-126.0,-128.0,127.0,116.0,88.0,-101.0
122.0,138.0,124.0,161.0,189.0,159.0,131.0,110.0,40.0,-110.0,-61.0,-126.0,-128.0,127.0,116.0,88.0,-101.0
122.0,138.0,124.0,159.0,186.0,160.0,131.0,109.0,40.0,-110.0,-61.0,-126.0,-128.0,127.0,116.0,88.0,-101.0
122.0,137.0,123.0,158.0,184.0,160.0,132.0,107.0,40.0,-110.0,-61.0,-126.0,-128.0,127.0,116.0,88.0,-101.0
123.0,142.0,130.0,174.0,204.0,153.0,126.0,118.0,40.0,-110.0,-61.0,-126.0,-128.0,127.0,116.0,88.0,-101.0
104.0,133.0,103.0,121.0,90.0,42.0,51.0,82.0,39.0,-116.0,-61.0,-124.0,-128.0,126.0,116.0,89.0,-101.0
104.0,133.0,104.0,121.0,89.0,36.0,47.0,83.0,39.0,-116.0,-61.0,-124.0,-128.0,126.0,116.0,89.0,-101.0
104.0,133.0,105.0,122.0,88.0,30.0,43.0,84.0,39.0,-116.0,-61.0,-124.0,-128.0,126.0,116.0,89.0,-101.0
104.0,133.0,105.0,122.0,87.0,24.0,40.0,86.0,39.0,-116.0,-61.0,-124.0,-128.0,126.0,116.0,89.0,-101.0
104.0,133.0,106.0,123.0,86.0,18.0,36.0,87.0,39.0,-116.0,-61.0,-124.0,-128.0,126.0,116.0,89.0,-101.0
104.0,132.0,106.0,124.0,85.0,11.0,33.0,88.0,39.0,-116.0,-61.0,-124.0,-128.0,126.0,116.0,89.0,-101.0
104.0,132.0,107.0,124.0,84.0,4.0,29.0,89.0,39.0,-116.0,-61.0,-124.0,-128.0,126.0,116.0,89.0,-101.0
104.0,131.0,108.0,125.0,83.0,0.0,24.0,91.0,39.0,-116.0,-61.0,-124.0,-128.0,126.0,116.0,89.0,-101.0
103.0,133.0,103.0,121.0,92.0,55.0,57.0,79.0,39.0,-116.0,-61.0,-124.0,-128.0,126.0,116.0,89.0,-101.0
103.0,133.0,103.0,121.0,91.0,49.0,54.0,80.0,39.0,-116.0,-61.0,-124.0,-128.0,126.0,116.0,89.0,-101.0
123.0,121.0,151.0,146.0,99.0,0.0,22.0,136.0,36.0,-120.0,-63.0,-122.0,-128.0,126.0,117.0,89.0,-101.0
123.0,120.0,151.0,146.0,100.0,0.0,22.0,137.0,36.0,-120.0,-63.0,-122.0,-128.0,126.0,117.0,89.0,-101.0
123.0,120.0,151.0,146.0,101.0,0.0,22.0,137.0,36.0,-120.0,-63.0,-122.0,-128.0,126.0,117.0,89.0,-101.0
124.0,120.0,151.0,146.0,102.0,0.0,22.0,137.0,36.0,-120.0,-63.0,-122.0,-128.0,126.0,117.0,89.0,-101.0
124.0,120.0,151.0,146.0,103.0,0.0,22.0,138.0,36.0,-120.0,-63.0,-122.0,-128.0,126.0,117.0,89.0,-101.0
124.0,120.0,152.0,146.0,105.0,0.0,24.0,138.0,36.0,-120.0,-63.0,-122.0,-128.0,126.0,117.0,89.0,-101.0
121.0,122.0,151.0,145.0,94.0,0.0,22.0,134.0,36.0,-120.0,-63.0,-122.0,-128.0,126.0,117.0,89.0,-101.0
122.0,121.0,151.0,145.0,95.0,0.0,22.0,134.0,36.0,-120.0,-63.0,-122.0,-128.0,126.0,117.0,89.0,-101.0
122.0,121.0,151.0,145.0,97.0,0.0,22.0,135.0,36.0,-120.0,-63.0,-122.0,-128.0,126.0,117.0,89.0,-101.0
122.0,121.0,151.0,145.0,98.0,0.0,22.0,135.0,36.0,-120.0,-63.0,-122.0,-128.0,126.0,117.0,89.0,-101.0
130.0,122.0,148.0,145.0,156.0,144.0,120.0,139.0,34.0,-111.0,-66.0,-122.0,-128.0,126.0,117.0,89.0,-101.0
130.0,122.0,148.0,145.0,156.0,145.0,121.0,139.0,34.0,-111.0,-66.0,-122.0,-128.0,126.0,117.0,89.0,-101.0
130.0,122.0,148.0,144.0,156.0,145.0,122.0,139.0,34.0,-111.0,-66.0,-122.0,-128.0,126.0,117.0,89.0,-101.0
131.0,122.0,148.0,143.0,155.0,146.0,123.0,139.0,34.0,-111.0,-66.0,-122.0,-128.0,126.0,117.0,89.0,-101.0
131.0,122.0,148.0,143.0,155.0,147.0,124.0,139.0,34.0,-111.0,-66.0,-122.0,-128.0,126.0,117.0,89.0,-101.0
130.0,123.0,150.0,149.0,156.0,141.0,121.0,140.0,34.0,-111.0,-66.0,-122.0,-128.0,126.0,117.0,89.0,-101.0
130.0,123.0,149.0,148.0,156.0,142.0,122.0,140.0,34.0,-111.0,-66.0,-122.0,-128.0,126.0,117.0,89.0,-101.0
130.0,123.0,149.0,148.0,156.0,142.0,124.0,140.0,34.0,-111.0,-66.0,-122.0,-128.0,126.0,117.0,89.0,-101.0
130.0,123.0,149.0,147.0,156.0,143.0,123.0,140.0,34.0,-111.0,-66.0,-122.0,-128.0,126.0,117.0,89.0,-101.0
130.0,122.0,148.0,146.0,156.0,144.0,120.0,139.0,34.0,-111.0,-66.0,-122.0,-128.0,126.0,117.0,89.0,-101.0
132.0,123.0,124.0,126.0,86.0,151.0,125.0,144.0,34.0,-101.0,-67.0,-124.0,-128.0,126.0,117.0,89.0,-101.0
131.0,123.0,123.0,125.0,85.0,151.0,125.0,144.0,34.0,-101.0,-67.0,-124.0,-128.0,126.0,117.0,89.0,-101.0
131.0,123.0,122.0,125.0,84.0,151.0,125.0,144.0,34.0,-101.0,-67.0,-124.0,-128.0,126.0,117.0,89.0,-101.0
131.0,123.0,121.0,124.0,84.0,151.0,125.0,144.0,34.0,-101.0,-67.0,-124.0,-128.0,126.0,117.0,89.0,-101.0
131.0,124.0,129.0,130.0,92.0,152.0,125.0,142.0,34.0,-101.0,-67.0,-124.0,-128.0,126.0,117.0,89.0,-101.0
131.0,124.0,128.0,129.0,91.0,152.0,126.0,142.0,34.0,-101.0,-67.0,-124.0,-128.0,126.0,117.0,89.0,-101.0
131.0,124.0,127.0,129.0,90.0,152.0,126.0,142.0,34.0,-101.0,-67.0,-124.0,-128.0,126.0,117.0,89.0,-101.0
131.0,124.0,126.0,128.0,89.0,152.0,125.0,143.0,34.0,-101.0,-67.0,-124.0,-128.0,126.0,117.0,89.0,-101.0
131.0,124.0,125.0,128.0,88.0,152.0,125.0,143.0,34.0,-101.0,-67.0,-124.0,-128.0,126.0,117.0,89.0,-101.0
131.0,124.0,125.0,127.0,87.0,152.0,125.0,143.0,34.0,-101.0,-67.0,-124.0,-128.0,126.0,117.0,89.0,-101.0
130.0,124.0,108.0,121.0,94.0,150.0,130.0,140.0,33.0,-102.0,-69.0,-125.0,-128.0,126.0,116.0,89.0,-101.0
130.0,124.0,108.0,120.0,94.0,150.0,130.0,139.0,33.0,-102.0,-69.0,-125.0,-128.0,126.0,116.0,89.0,-101.0
130.0,124.0,108.0,120.0,94.0,150.0,130.0,137.0,33.0,-102.0,-69.0,-125.0,-128.0,126.0,116.0,89.0,-101.0
131.0,127.0,110.0,123.0,92.0,150.0,131.0,145.0,33.0,-102.0,-69.0,-125.0,-128.0,126.0,116.0,89.0,-101.0
131.0,127.0,110.0,123.0,92.0,150.0,131.0,145.0,33.0,-102.0,-69.0,-125.0,-128.0,126.0,116.0,89.0,-101.0
131.0,127.0,109.0,122.0,93.0,150.0,130.0,145.0,33.0,-102.0,-69.0,-125.0,-128.0,126.0,116.0,89.0,-101.0
131.0,127.0,109.0,122.0,93.0,150.0,131.0,144.0,33.0,-102.0,-69.0,-125.0,-128.0,126.0,116.0,89.0,-101.0
131.0,126.0,108.0,121.0,93.0,150.0,130.0,143.0,33.0,-102.0,-69.0,-125.0,-128.0,126.0,116.0,89.0,-101.0
130.0,125.0,108.0,121.0,93.0,150.0,130.0,142.0,33.0,-102.0,-69.0,-125.0,-128.0,126.0,116.0,89.0,-101.0
130.0,125.0,108.0,121.0,93.0,150.0,130.0,141.0,33.0,-102.0,-69.0,-125.0,-128.0,126.0,116.0,89.0,-101.0
129.0,122.0,120.0,123.0,111.0,145.0,123.0,138.0,31.0,-103.0,-71.0,-126.0,-128.0,127.0,116.0,89.0,-101.0
129.0,122.0,120.0,123.0,111.0,145.0,122.0,138.0,31.0,-103.0,-71.0,-126.0,-128.0,127.0,116.0,89.0,-101.0
129.0,123.0,118.0,127.0,110.0,146.0,123.0,138.0,31.0,-103.0,-71.0,-126.0,-128.0,127.0,116.0,89.0,-101.0
129.0,123.0,118.0,126.0,110.0,146.0,123.0,138.0,31.0,-103.0,-71.0,-126.0,-128.0,127.0,116.0,89.0,-101.0
129.0,123.0,119.0,126.0,110.0,146.0,123.0,137.0,31.0,-103.0,-71.0,-126.0,-128.0,127.0,116.0,89.0,-101.0
129.0,123.0,119.0,125.0,110.0,146.0,123.0,137.0,31.0,-103.0,-71.0,-126.0,-128.0,127.0,116.0,89.0,-101.0
129.0,123.0,120.0,125.0,110.0,146.0,123.0,138.0,31.0,-103.0,-71.0,-126.0,-128.0,127.0,116.0,89.0,-101.0
129.0,123.0,120.0,124.0,110.0,146.0,123.0,138.0,31.0,-103.0,-71.0,-126.0,-128.0,127.0,116.0,89.0,-101.0
129.0,123.0,120.0,124.0,111.0,145.0,122.0,138.0,31.0,-103.0,-71.0,-126.0,-128.0,127.0,116.0,89.0,-101.0
129.0,122.0,120.0,124.0,111.0,145.0,123.0,138.0,31.0,-103.0,-71.0,-126.0,-128.0,127.0,116.0,89.0,-101.0
129.0,126.0,125.0,130.0,118.0,144.0,120.0,135.0,31.0,-101.0,-72.0,-126.0,-128.0,127.0,116.0,89.0,-101.0
129.0,125.0,124.0,129.0,117.0,144.0,120.0,136.0,31.0,-101.0,-72.0,-126.0,-128.0,127.0,116.0,89.0,-101.0
129.0,126.0,124.0,129.0,117.0,144.0,120.0,136.0,31.0,-101.0,-72.0,-126.0,-128.0,127.0,116.0,89.0,-101.0
129.0,126.0,124.0,129.0,117.0,144.0,120.0,136.0,31.0,-101.0,-72.0,-126.0,-128.0,127.0,116.0,89.0,-101.0
129.0,126.0,124.0,130.0,117.0,144.0,121.0,136.0,31.0,-101.0,-72.0,-126.0,-128.0,127.0,116.0,89.0,-101.0
129.0,126.0,124.0,130.0,118.0,144.0,121.0,136.0,31.0,-101.0,-72.0,-126.0,-128.0,127.0,116.0,89.0,-101.0
129.0,126.0,124.0,130.0,118.0,144.0,121.0,136.0,31.0,-101.0,-72.0,-126.0,-128.0,127.0,116.0,89.0,-101.0
129.0,126.0,125.0,130.0,118.0,144.0,121.0,136.0,31.0,-101.0,-72.0,-126.0,-128.0,127.0,116.0,89.0,-101.0
129.0,126.0,125.0,130.0,118.0,144.0,121.0,136.0,31.0,-101.0,-72.0,-126.0,-128.0,127.0,116.0,89.0,-101.0
129.0,126.0,125.0,130.0,118.0,144.0,121.0,136.0,31.0,-101.0,-72.0,-126.0,-128.0,127.0,116.0,89.0,-101.0
128.0,126.0,126.0,128.0,123.0,144.0,119.0,136.0,30.0,-99.0,-73.0,-127.0,127.0,127.0,115.0,89.0,-101.0
128.0,126.0,126.0,128.0,123.0,144.0,119.0,136.0,30.0,-99.0,-73.0,-127.0,127.0,127.0,115.0,89.0,-101.0
128.0,127.0,126.0,128.0,124.0,144.0,119.0,136.0,30.0,-99.0,-73.0,-127.0,127.0,127.0,115.0,89.0,-101.0
128.0,127.0,127.0,128.0,124.0,144.0,119.0,136.0,30.0,-99.0,-73.0,-127.0,127.0,127.0,115.0,89.0,-101.0
129.0,127.0,127.0,128.0,124.0,144.0,119.0,136.0,30.0,-99.0,-73.0,-127.0,127.0,127.0,115.0,89.0,-101.0
129.0,127.0,127.0,128.0,124.0,144.0,119.0,136.0,30.0,-99.0,-73.0,-127.0,127.0,127.0,115.0,89.0,-101.0
129.0,126.0,127.0,128.0,124.0,143.0,119.0,136.0,30.0,-99.0,-73.0,-127.0,127.0,127.0,115.0,89.0,-101.0
129.0,126.0,127.0,128.0,124.0,143.0,119.0,136.0,30.0,-99.0,-73.0,-127.0,127.0,127.0,115.0,89.0,-101.0
129.0,125.0,127.0,128.0,124.0,143.0,119.0,137.0,30.0,-99.0,-73.0,-127.0,127.0,127.0,115.0,89.0,-101.0
129.0,125.0,126.0,128.0,124.0,143.0,118.0,137.0,30.0,-99.0,-73.0,-127.0,127.0,127.0,115.0,89.0,-101.0
128.0,127.0,127.0,132.0,126.0,143.0,119.0,137.0,28.0,-98.0,-74.0,-127.0,127.0,127.0,114.0,89.0,-101.0
128.0,126.0,126.0,131.0,126.0,143.0,119.0,137.0,28.0,-98.0,-74.0,-127.0,127.0,127.0,114.0,89.0,-101.0
128.0,126.0,126.0,131.0,126.0,144.0,119.0,137.0,28.0,-98.0,-74.0,-127.0,127.0,127.0,114.0,89.0,-101.0
128.0,126.0,125.0,131.0,126.0,144.0,119.0,137.0,28.0,-98.0,-74.0,-127.0,127.0,127.0,114.0,89.0,-101.0
128.0,125.0,125.0,131.0,126.0,144.0,119.0,136.0,28.0,-98.0,-74.0,-127.0,127.0,127.0,114.0,89.0,-101.0
128.0,125.0,125.0,131.0,126.0,143.0,119.0,136.0,28.0,-98.0,-74.0,-127.0,127.0,127.0,114.0,89.0,-101.0
128.0,126.0,125.0,131.0,126.0,143.0,119.0,136.0,28.0,-98.0,-74.0,-127.0,127.0,127.0,114.0,89.0,-101.0
128.0,126.0,126.0,130.0,125.0,143.0,119.0,136.0,28.0,-98.0,-74.0,-127.0,127.0,127.0,114.0,89.0,-101.0
128.0,126.0,126.0,130.0,125.0,143.0,119.0,136.0,28.0,-98.0,-74.0,-127.0,127.0,127.0,114.0,89.0,-101.0
128.0,127.0,128.0,132.0,126.0,143.0,119.0,137.0,28.0,-98.0,-74.0,-127.0,127.0,127.0,114.0,89.0,-101.0
127.0,128.0,126.0,131.0,127.0,142.0,124.0,135.0,28.0,-97.0,-76.0,-127.0,127.0,127.0,113.0,89.0,-101.0
128.0,129.0,126.0,130.0,127.0,142.0,125.0,135.0,28.0,-97.0,-76.0,-127.0,127.0,127.0,113.0,89.0,-101.0
128.0,128.0,126.0,130.0,128.0,143.0,125.0,135.0,28.0,-97.0,-76.0,-127.0,127.0,127.0,113.0,89.0,-101.0
127.0,127.0,125.0,130.0,128.0,143.0,125.0,135.0,28.0,-97.0,-76.0,-127.0,127.0,127.0,113.0,89.0,-101.0
128.0,126.0,125.0,129.0,128.0,143.0,125.0,135.0,28.0,-97.0,-76.0,-127.0,127.0,127.0,113.0,89.0,-101.0
128.0,126.0,125.0,129.0,128.0,143.0,125.0,135.0,28.0,-97.0,-76.0,-127.0,127.0,127.0,113.0,89.0,-101.0
128.0,126.0,125.0,129.0,128.0,143.0,125.0,135.0,28.0,-97.0,-76.0,-127.0,127.0,127.0,113.0,89.0,-101.0
128.0,125.0,125.0,129.0,127.0,143.0,125.0,135.0,28.0,-97.0,-76.0,-127.0,127.0,127.0,113.0,89.0,-101.0
127.0,127.0,127.0,131.0,127.0,143.0,125.0,135.0,28.0,-97.0,-76.0,-127.0,127.0,127.0,113.0,89.0,-101.0
127.0,127.0,126.0,131.0,127.0,143.0,125.0,135.0,28.0,-97.0,-76.0,-127.0,127.0,127.0,113.0,89.0,-101.0
128.0,126.0,127.0,130.0,129.0,142.0,125.0,134.0,27.0,-96.0,-77.0,-128.0,127.0,127.0,113.0,89.0,-101.0
127.0,126.0,127.0,130.0,129.0,142.0,125.0,134.0,27.0,-96.0,-77.0,-128.0,127.0,127.0,113.0,89.0,-101.0
128.0,125.0,126.0,130.0,129.0,142.0,125.0,134.0,27.0,-96.0,-77.0,-128.0,127.0,127.0,113.0,89.0,-101.0
128.0,125.0,126.0,129.0,129.0,142.0,124.0,134.0,27.0,-96.0,-77.0,-128.0,127.0,127.0,113.0,89.0,-101.0
128.0,125.0,126.0,129.0,129.0,142.0,125.0,134.0,27.0,-96.0,-77.0,-128.0,127.0,127.0,113.0,89.0,-101.0
128.0,125.0,126.0,129.0,129.0,142.0,125.0,134.0,27.0,-96.0,-77.0,-128.0,127.0,127.0,113.0,89.0,-101.0
127.0,125.0,126.0,129.0,129.0,142.0,125.0,134.0,27.0,-96.0,-77.0,-128.0,127.0,127.0,113.0,89.0,-101.0
127.0,126.0,128.0,131.0,128.0,142.0,125.0,134.0,27.0,-96.0,-77.0,-128.0,127.0,127.0,113.0,89.0,-101.0
127.0,126.0,127.0,131.0,128.0,142.0,125.0,134.0,27.0,-96.0,-77.0,-128.0,127.0,127.0,113.0,89.0,-101.0
128.0,126.0,127.0,130.0,129.0,142.0,125.0,134.0,27.0,-96.0,-77.0,-128.0,127.0,127.0,113.0,89.0,-101.0
127.0,127.0,127.0,130.0,128.0,143.0,125.0,133.0,26.0,-95.0,-78.0,-128.0,127.0,127.0,112.0,89.0,-101.0
127.0,126.0,126.0,130.0,129.0,143.0,126.0,133.0,26.0,-95.0,-78.0,-128.0,127.0,127.0,112.0,89.0,-101.0
127.0,126.0,126.0,130.0,129.0,143.0,125.0,133.0,26.0,-95.0,-78.0,-128.0,127.0,127.0,112.0,89.0,-101.0
127.0,126.0,126.0,130.0,129.0,143.0,122.0,133.0,26.0,-95.0,-78.0,-128.0,127.0,127.0,112.0,89.0,-101.0
127.0,126.0,126.0,130.0,129.0,143.0,122.0,133.0,26.0,-95.0,-78.0,-128.0,127.0,127.0,112.0,89.0,-101.0
127.0,126.0,126.0,130.0,129.0,143.0,124.0,133.0,26.0,-95.0,-78.0,-128.0,127.0,127.0,112.0,89.0,-101.0
127.0,127.0,129.0,129.0,128.0,143.0,124.0,133.0,26.0,-95.0,-78.0,-128.0,127.0,127.0,112.0,89.0,-101.0
127.0,127.0,128.0,130.0,128.0,143.0,125.0,133.0,26.0,-95.0,-78.0,-128.0,127.0,127.0,112.0,89.0,-101.0
127.0,127.0,127.0,130.0,128.0,143.0,125.0,133.0,26.0,-95.0,-78.0,-128.0,127.0,127.0,112.0,89.0,-101.0
127.0,127.0,127.0,130.0,128.0,143.0,124.0,133.0,26.0,-95.0,-78.0,-128.0,127.0,127.0,112.0,89.0,-101.0
127.0,126.0,126.0,128.0,129.0,143.0,125.0,133.0,25.0,-95.0,-78.0,-128.0,127.0,127.0,111.0,89.0,-101.0
127.0,126.0,127.0,128.0,129.0,143.0,125.0,133.0,25.0,-95.0,-78.0,-128.0,127.0,127.0,111.0,89.0,-101.0
127.0,126.0,127.0,129.0,129.0,143.0,125.0,133.0,25.0,-95.0,-78.0,-128.0,127.0,127.0,111.0,89.0,-101.0
127.0,126.0,127.0,129.0,129.0,143.0,125.0,133.0,25.0,-95.0,-78.0,-128.0,127.0,127.0,111.0,89.0,-101.0
127.0,126.0,128.0,128.0,129.0,143.0,124.0,133.0,25.0,-95.0,-78.0,-128.0,127.0,127.0,111.0,89.0,-101.0
127.0,126.0,126.0,130.0,128.0,143.0,124.0,132.0,25.0,-95.0,-78.0,-128.0,127.0,127.0,111.0,89.0,-101.0
127.0,126.0,126.0,130.0,129.0,143.0,126.0,132.0,25.0,-95.0,-78.0,-128.0,127.0,127.0,111.0,89.0,-101.0
127.0,126.0,126.0,129.0,129.0,143.0,126.0,132.0,25.0,-95.0,-78.0,-128.0,127.0,127.0,111.0,89.0,-101.0
127.0,126.0,126.0,129.0,129.0,143.0,126.0,132.0,25.0,-95.0,-78.0,-128.0,127.0,127.0,111.0,89.0,-101.0
127.0,126.0,126.0,129.0,129.0,143.0,125.0,133.0,25.0,-95.0,-78.0,-128.0,127.0,127.0,111.0,89.0,-101.0
128.0,127.0,128.0,129.0,129.0,142.0,125.0,132.0,25.0,-95.0,-78.0,-128.0,127.0,127.0,111.0,89.0,-101.0
128.0,127.0,127.0,129.0,129.0,142.0,125.0,132.0,25.0,-95.0,-78.0,-128.0,127.0,127.0,111.0,89.0,-101.0
128.0,126.0,127.0,129.0,128.0,142.0,124.0,132.0,25.0,-95.0,-78.0,-128.0,127.0,127.0,111.0,89.0,-101.0
128.0,126.0,127.0,129.0,128.0,142.0,124.0,132.0,25.0,-95.0,-78.0,-128.0,127.0,127.0,111.0,89.0,-101.0
127.0,127.0,128.0,130.0,129.0,142.0,124.0,133.0,25.0,-95.0,-78.0,-128.0,127.0,127.0,111.0,89.0,-101.0
127.0,127.0,128.0,130.0,129.0,142.0,125.0,132.0,25.0,-95.0,-78.0,-128.0,127.0,127.0,111.0,89.0,-101.0
127.0,127.0,128.0,130.0,129.0,142.0,125.0,132.0,25.0,-95.0,-78.0,-128.0,127.0,127.0,111.0,89.0,-101.0
127.0,127.0,128.0,130.0,129.0,142.0,124.0,132.0,25.0,-95.0,-78.0,-128.0,127.0,127.0,111.0,89.0,-101.0
128.0,127.0,128.0,130.0,129.0,142.0,125.0,132.0,25.0,-95.0,-78.0,-128.0,127.0,127.0,111.0,89.0,-101.0
128.0,127.0,128.0,129.0,129.0,142.0,125.0,132.0,25.0,-95.0,-78.0,-128.0,127.0,127.0,111.0,89.0,-101.0
128.0,126.0,126.0,129.0,128.0,143.0,125.0,133.0,25.0,-95.0,-78.0,127.0,127.0,127.0,110.0,89.0,-101.0
127.0,126.0,126.0,129.0,128.0,143.0,125.0,132.0,25.0,-95.0,-78.0,127.0,127.0,127.0,110.0,89.0,-101.0
127.0,126.0,126.0,129.0,128.0,143.0,125.0,132.0,25.0,-95.0,-78.0,127.0,127.0,127.0,110.0,89.0,-101.0
127.0,126.0,125.0,130.0,129.0,142.0,124.0,133.0,25.0,-95.0,-78.0,127.0,127.0,127.0,110.0,89.0,-101.0
128.0,126.0,125.0,129.0,129.0,142.0,124.0,133.0,25.0,-95.0,-78.0,127.0,127.0,127.0,110.0,89.0,-101.0
128.0,126.0,125.0,129.0,129.0,142.0,124.0,133.0,25.0,-95.0,-78.0,127.0,127.0,127.0,110.0,89.0,-101.0
128.0,126.0,125.0,129.0,128.0,142.0,125.0,133.0,25.0,-95.0,-78.0,127.0,127.0,127.0,110.0,89.0,-101.0
127.0,126.0,125.0,129.0,128.0,142.0,125.0,133.0,25.0,-95.0,-78.0,127.0,127.0,127.0,110.0,89.0,-101.0
128.0,126.0,125.0,129.0,128.0,142.0,125.0,133.0,25.0,-95.0,-78.0,127.0,127.0,127.0,110.0,89.0,-101.0
128.0,126.0,125.0,129.0,128.0,142.0,125.0,133.0,25.0,-95.0,-78.0,127.0,127.0,127.0,110.0,89.0,-101.0
128.0,126.0,128.0,129.0,128.0,143.0,125.0,131.0,25.0,-95.0,-78.0,127.0,127.0,127.0,109.0,89.0,-101.0
128.0,126.0,128.0,129.0,128.0,143.0,125.0,131.0,25.0,-95.0,-78.0,127.0,127.0,127.0,109.0,89.0,-101.0
128.0,126.0,126.0,128.0,127.0,143.0,125.0,131.0,25.0,-95.0,-78.0,127.0,127.0,127.0,109.0,89.0,-101.0
128.0,127.0,126.0,128.0,127.0,143.0,124.0,131.0,25.0,-95.0,-78.0,127.0,127.0,127.0,109.0,89.0,-101.0
128.0,126.0,126.0,128.0,128.0,143.0,123.0,131.0,25.0,-95.0,-78.0,127.0,127.0,127.0,109.0,89.0,-101.0
128.0,126.0,127.0,128.0,128.0,143.0,123.0,131.0,25.0,-95.0,-78.0,127.0,127.0,127.0,109.0,89.0,-101.0
128.0,126.0,127.0,129.0,128.0,143.0,125.0,131.0,25.0,-95.0,-78.0,127.0,127.0,127.0,109.0,89.0,-101.0
128.0,126.0,127.0,129.0,128.0,143.0,125.0,131.0,25.0,-95.0,-78.0,127.0,127.0,127.0,109.0,89.0,-101.0
128.0,126.0,127.0,129.0,128.0,143.0,125.0,131.0,25.0,-95.0,-78.0,127.0,127.0,127.0,109.0,89.0,-101.0
128.0,126.0,127.0,129.0,128.0,143.0,124.0,131.0,25.0,-95.0,-78.0,127.0,127.0,127.0,109.0,89.0,-101.0
127.0,126.0,128.0,132.0,127.0,142.0,124.0,130.0,24.0,-95.0,-78.0,127.0,127.0,127.0,108.0,89.0,-101.0
127.0,126.0,129.0,133.0,131.0,142.0,124.0,130.0,24.0,-95.0,-78.0,127.0,127.0,127.0,108.0,89.0,-101.0
127.0,126.0,129.0,133.0,131.0,142.0,124.0,131.0,24.0,-95.0,-78.0,127.0,127.0,127.0,108.0,89.0,-101.0
127.0,126.0,129.0,133.0,131.0,142.0,124.0,130.0,24.0,-95.0,-78.0,127.0,127.0,127.0,108.0,89.0,-101.0
127.0,126.0,129.0,133.0,130.0,142.0,124.0,130.0,24.0,-95.0,-78.0,127.0,127.0,127.0,108.0,89.0,-101.0
127.0,126.0,129.0,133.0,130.0,142.0,124.0,130.0,24.0,-95.0,-78.0,127.0,127.0,127.0,108.0,89.0,-101.0
127.0,126.0,129.0,133.0,129.0,142.0,124.0,130.0,24.0,-95.0,-78.0,127.0,127.0,127.0,108.0,89.0,-101.0
127.0,126.0,129.0,132.0,129.0,142.0,124.0,130.0,24.0,-95.0,-78.0,127.0,127.0,127.0,108.0,89.0,-101.0
127.0,126.0,129.0,132.0,128.0,142.0,124.0,130.0,24.0,-95.0,-78.0,127.0,127.0,127.0,108.0,89.0,-101.0
127.0,126.0,128.0,132.0,128.0,142.0,124.0,130.0,24.0,-95.0,-78.0,127.0,127.0,127.0,108.0,89.0,-101.0
127.0,126.0,127.0,131.0,128.0,141.0,123.0,130.0,24.0,-95.0,-78.0,127.0,127.0,127.0,108.0,89.0,-101.0
127.0,126.0,127.0,130.0,128.0,142.0,123.0,130.0,24.0,-95.0,-78.0,127.0,127.0,127.0,108.0,89.0,-101.0
127.0,126.0,127.0,130.0,128.0,142.0,123.0,130.0,24.0,-95.0,-78.0,127.0,127.0,127.0,108.0,89.0,-101.0
127.0,126.0,127.0,130.0,128.0,142.0,123.0,130.0,24.0,-95.0,-78.0,127.0,127.0,127.0,108.0,89.0,-101.0
127.0,126.0,127.0,130.0,128.0,141.0,123.0,130.0,24.0,-95.0,-78.0,127.0,127.0,127.0,108.0,89.0,-101.0
127.0,126.0,127.0,130.0,128.0,141.0,123.0,130.0,24.0,-95.0,-78.0,127.0,127.0,127.0,108.0,89.0,-101.0
127.0,126.0,127.0,130.0,128.0,141.0,123.0,130.0,24.0,-95.0,-78.0,127.0,127.0,127.0,108.0,89.0,-101.0
127.0,126.0,127.0,130.0,128.0,141.0,123.0,130.0,24.0,-95.0,-78.0,127.0,127.0,127.0,108.0,89.0,-101.0
127.0,126.0,127.0,129.0,128.0,141.0,123.0,130.0,24.0,-95.0,-78.0,127.0,127.0,127.0,108.0,89.0,-101.0
127.0,126.0,126.0,129.0,128.0,141.0,123.0,130.0,24.0,-95.0,-78.0,127.0,127.0,127.0,108.0,89.0,-101.0
127.0,127.0,127.0,129.0,128.0,140.0,121.0,129.0,24.0,-96.0,-78.0,127.0,127.0,127.0,108.0,89.0,-101.0
127.0,127.0,127.0,129.0,128.0,140.0,121.0,130.0,24.0,-96.0,-78.0,127.0,127.0,127.0,108.0,89.0,-101.0
127.0,126.0,127.0,129.0,128.0,140.0,120.0,129.0,24.0,-96.0,-78.0,127.0,127.0,127.0,108.0,89.0,-101.0
127.0,126.0,127.0,129.0,128.0,140.0,121.0,129.0,24.0,-96.0,-78.0,127.0,127.0,127.0,108.0,89.0,-101.0
127.0,126.0,127.0,129.0,128.0,140.0,121.0,129.0,24.0,-96.0,-78.0,127.0,127.0,127.0,108.0,89.0,-101.0
127.0,126.0,127.0,129.0,128.0,140.0,121.0,130.0,24.0,-96.0,-78.0,127.0,127.0,127.0,108.0,89.0,-101.0
128.0,126.0,127.0,129.0,128.0,140.0,120.0,129.0,24.0,-96.0,-78.0,127.0,127.0,127.0,108.0,89.0,-101.0
127.0,126.0,127.0,128.0,128.0,140.0,120.0,129.0,24.0,-96.0,-78.0,127.0,127.0,127.0,108.0,89.0,-101.0
128.0,126.0,127.0,128.0,128.0,140.0,120.0,129.0,24.0,-96.0,-78.0,127.0,127.0,127.0,108.0,89.0,-101.0
127.0,127.0,127.0,129.0,128.0,140.0,121.0,129.0,24.0,-96.0,-78.0,127.0,127.0,127.0,108.0,89.0,-101.0
127.0,127.0,127.0,130.0,129.0,139.0,120.0,129.0,25.0,-97.0,-77.0,127.0,127.0,127.0,108.0,89.0,-101.0
127.0,127.0,127.0,130.0,129.0,139.0,120.0,129.0,25.0,-97.0,-77.0,127.0,127.0,127.0,108.0,89.0,-101.0
127.0,127.0,126.0,130.0,128.0,139.0,119.0,129.0,25.0,-97.0,-77.0,127.0,127.0,127.0,108.0,89.0,-101.0
127.0,126.0,126.0,129.0,128.0,139.0,119.0,128.0,25.0,-97.0,-77.0,127.0,127.0,127.0,108.0,89.0,-101.0
127.0,126.0,126.0,129.0,128.0,139.0,119.0,128.0,25.0,-97.0,-77.0,127.0,127.0,127.0,108.0,89.0,-101.0
127.0,126.0,126.0,129.0,127.0,139.0,119.0,128.0,25.0,-97.0,-77.0,127.0,127.0,127.0,108.0,89.0,-101.0
127.0,126.0,126.0,129.0,127.0,139.0,119.0,128.0,25.0,-97.0,-77.0,127.0,127.0,127.0,108.0,89.0,-101.0
127.0,126.0,126.0,128.0,127.0,139.0,119.0,128.0,25.0,-97.0,-77.0,127.0,127.0,127.0,108.0,89.0,-101.0
127.0,127.0,127.0,130.0,129.0,139.0,119.0,129.0,25.0,-97.0,-77.0,127.0,127.0,127.0,108.0,89.0,-101.0
127.0,127.0,127.0,130.0,129.0,139.0,119.0,129.0,25.0,-97.0,-77.0,127.0,127.0,127.0,108.0,89.0,-101.0
127.0,127.0,128.0,130.0,128.0,140.0,121.0,127.0,25.0,-97.0,-77.0,127.0,127.0,127.0,108.0,89.0,-101.0
127.0,127.0,128.0,130.0,128.0,140.0,121.0,127.0,25.0,-97.0,-77.0,127.0,127.0,127.0,108.0,89.0,-101.0
127.0,127.0,128.0,130.0,128.0,140.0,121.0,127.0,25.0,-97.0,-77.0,127.0,127.0,127.0,108.0,89.0,-101.0
127.0,126.0,129.0,130.0,128.0,141.0,122.0,127.0,25.0,-97.0,-77.0,127.0,127.0,127.0,108.0,89.0,-101.0
127.0,126.0,129.0,130.0,128.0,141.0,122.0,127.0,25.0,-97.0,-77.0,127.0,127.0,127.0,108.0,89.0,-101.0
127.0,126.0,129.0,130.0,128.0,141.0,122.0,127.0,25.0,-97.0,-77.0,127.0,127.0,127.0,108.0,89.0,-101.0
127.0,126.0,129.0,129.0,128.0,142.0,124.0,127.0,25.0,-97.0,-77.0,127.0,127.0,127.0,108.0,89.0,-101.0
127.0,127.0,128.0,130.0,128.0,140.0,120.0,128.0,25.0,-97.0,-77.0,127.0,127.0,127.0,108.0,89.0,-101.0
127.0,127.0,128.0,130.0,128.0,140.0,120.0,127.0,25.0,-97.0,-77.0,127.0,127.0,127.0,108.0,89.0,-101.0
127.0,127.0,128.0,130.0,128.0,140.0,120.0,127.0,25.0,-97.0,-77.0,127.0,127.0,127.0,108.0,89.0,-101.0
127.0,126.0,127.0,129.0,128.0,230.0,180.0,127.0,26.0,-98.0,-76.0,127.0,127.0,127.0,108.0,89.0,-101.0
127.0,126.0,127.0,129.0,128.0,232.0,178.0,127.0,26.0,-98.0,-76.0,127.0,127.0,127.0,108.0,89.0,-101.0
127.0,126.0,127.0,129.0,128.0,234.0,179.0,127.0,26.0,-98.0,-76.0,127.0,127.0,127.0,108.0,89.0,-101.0
127.0,126.0,127.0,128.0,128.0,236.0,181.0,127.0,26.0,-98.0,-76.0,127.0,127.0,127.0,108.0,89.0,-101.0
127.0,126.0,127.0,128.0,128.0,238.0,184.0,127.0,26.0,-98.0,-76.0,127.0,127.0,127.0,108.0,89.0,-101.0
127.0,126.0,127.0,128.0,128.0,239.0,182.0,127.0,26.0,-98.0,-76.0,127.0,127.0,127.0,108.0,89.0,-101.0
127.0,126.0,127.0,129.0,128.0,221.0,174.0,127.0,26.0,-98.0,-76.0,127.0,127.0,127.0,108.0,89.0,-101.0
127.0,126.0,127.0,129.0,128.0,223.0,174.0,127.0,26.0,-98.0,-76.0,127.0,127.0,127.0,108.0,89.0,-101.0
127.0,126.0,127.0,129.0,128.0,225.0,174.0,127.0,26.0,-98.0,-76.0,127.0,127.0,127.0,108.0,89.0,-101.0
127.0,126.0,127.0,129.0,128.0,228.0,177.0,127.0,26.0,-98.0,-76.0,127.0,127.0,127.0,108.0,89.0,-101.0
127.0,126.0,128.0,129.0,127.0,254.0,194.0,127.0,26.0,-98.0,-76.0,127.0,127.0,127.0,108.0,89.0,-101.0
127.0,126.0,128.0,129.0,127.0,254.0,195.0,127.0,26.0,-98.0,-76.0,127.0,127.0,127.0,108.0,89.0,-101.0
127.0,126.0,128.0,129.0,127.0,254.0,195.0,127.0,26.0,-98.0,-76.0,127.0,127.0,127.0,108.0,89.0,-101.0
127.0,125.0,128.0,129.0,127.0,254.0,195.0,127.0,26.0,-98.0,-76.0,127.0,127.0,127.0,108.0,89.0,-101.0
127.0,126.0,127.0,129.0,127.0,254.0,194.0,127.0,26.0,-98.0,-76.0,127.0,127.0,127.0,108.0,89.0,-101.0
127.0,126.0,127.0,129.0,127.0,254.0,194.0,127.0,26.0,-98.0,-76.0,127.0,127.0,127.0,108.0,89.0,-101.0
127.0,126.0,127.0,129.0,127.0,254.0,194.0,127.0,26.0,-98.0,-76.0,127.0,127.0,127.0,108.0,89.0,-101.0
127.0,126.0,127.0,129.0,127.0,254.0,194.0,127.0,26.0,-98.0,-76.0,127.0,127.0,127.0,108.0,89.0,-101.0
127.0,126.0,127.0,129.0,127.0,254.0,195.0,127.0,26.0,-98.0,-76.0,127.0,127.0,127.0,108.0,89.0,-101.0
127.0,126.0,128.0,129.0,127.0,254.0,194.0,127.0,26.0,-98.0,-76.0,127.0,127.0,127.0,108.0,89.0,-101.0
127.0,127.0,126.0,127.0,125.0,252.0,191.0,126.0,27.0,-97.0,-76.0,127.0,127.0,127.0,108.0,89.0,-101.0
127.0,127.0,126.0,127.0,125.0,250.0,190.0,126.0,27.0,-97.0,-76.0,127.0,127.0,127.0,108.0,89.0,-101.0
127.0,126.0,126.0,126.0,125.0,248.0,187.0,126.0,27.0,-97.0,-76.0,127.0,127.0,127.0,108.0,89.0,-101.0
127.0,126.0,126.0,128.0,126.0,254.0,195.0,127.0,27.0,-97.0,-76.0,127.0,127.0,127.0,108.0,89.0,-101.0
127.0,127.0,126.0,128.0,126.0,254.0,194.0,127.0,27.0,-97.0,-76.0,127.0,127.0,127.0,108.0,89.0,-101.0
127.0,127.0,126.0,128.0,126.0,254.0,195.0,127.0,27.0,-97.0,-76.0,127.0,127.0,127.0,108.0,89.0,-101.0
127.0,127.0,126.0,128.0,126.0,254.0,194.0,127.0,27.0,-97.0,-76.0,127.0,127.0,127.0,108.0,89.0,-101.0
127.0,128.0,126.0,128.0,126.0,254.0,194.0,127.0,27.0,-97.0,-76.0,127.0,127.0,127.0,108.0,89.0,-101.0
127.0,128.0,126.0,127.0,125.0,254.0,194.0,127.0,27.0,-97.0,-76.0,127.0,127.0,127.0,108.0,89.0,-101.0
127.0,128.0,126.0,127.0,125.0,253.0,193.0,126.0,27.0,-97.0,-76.0,127.0,127.0,127.0,108.0,89.0,-101.0
127.0,126.0,126.0,127.0,127.0,128.0,109.0,127.0,27.0,-97.0,-76.0,127.0,127.0,127.0,107.0,89.0,-101.0
127.0,126.0,126.0,127.0,127.0,127.0,109.0,127.0,27.0,-97.0,-76.0,127.0,127.0,127.0,107.0,89.0,-101.0
127.0,126.0,126.0,128.0,127.0,141.0,123.0,127.0,27.0,-97.0,-76.0,127.0,127.0,127.0,107.0,89.0,-101.0
127.0,126.0,126.0,128.0,127.0,139.0,121.0,127.0,27.0,-97.0,-76.0,127.0,127.0,127.0,107.0,89.0,-101.0
127.0,126.0,126.0,128.0,127.0,138.0,118.0,127.0,27.0,-97.0,-76.0,127.0,127.0,127.0,107.0,89.0,-101.0
127.0,126.0,126.0,128.0,127.0,136.0,115.0,127.0,27.0,-97.0,-76.0,127.0,127.0,127.0,107.0,89.0,-101.0
127.0,126.0,126.0,128.0,127.0,135.0,115.0,127.0,27.0,-97.0,-76.0,127.0,127.0,127.0,107.0,89.0,-101.0
127.0,126.0,126.0,128.0,127.0,133.0,117.0,127.0,27.0,-97.0,-76.0,127.0,127.0,127.0,107.0,89.0,-101.0
127.0,126.0,126.0,127.0,127.0,131.0,114.0,127.0,27.0,-97.0,-76.0,127.0,127.0,127.0,107.0,89.0,-101.0
127.0,126.0,126.0,127.0,127.0,130.0,111.0,127.0,27.0,-97.0,-76.0,127.0,127.0,127.0,107.0,89.0,-101.0
127.0,127.0,126.0,128.0,129.0,99.0,88.0,126.0,26.0,-96.0,-75.0,127.0,126.0,127.0,107.0,89.0,-101.0
127.0,127.0,127.0,128.0,129.0,99.0,88.0,126.0,26.0,-96.0,-75.0,127.0,126.0,127.0,107.0,89.0,-101.0
127.0,127.0,127.0,128.0,129.0,99.0,88.0,126.0,26.0,-96.0,-75.0,127.0,126.0,127.0,107.0,89.0,-101.0
127.0,127.0,127.0,129.0,129.0,99.0,88.0,126.0,26.0,-96.0,-75.0,127.0,126.0,127.0,107.0,89.0,-101.0
127.0,127.0,127.0,128.0,129.0,99.0,87.0,126.0,26.0,-96.0,-75.0,127.0,126.0,127.0,107.0,89.0,-101.0
127.0,127.0,127.0,129.0,129.0,99.0,87.0,126.0,26.0,-96.0,-75.0,127.0,126.0,127.0,107.0,89.0,-101.0
127.0,127.0,127.0,129.0,129.0,99.0,87.0,126.0,26.0,-96.0,-75.0,127.0,126.0,127.0,107.0,89.0,-101.0
127.0,127.0,127.0,129.0,129.0,99.0,88.0,126.0,26.0,-96.0,-75.0,127.0,126.0,127.0,107.0,89.0,-101.0
127.0,127.0,126.0,129.0,129.0,99.0,88.0,126.0,26.0,-96.0,-75.0,127.0,126.0,127.0,107.0,89.0,-101.0
127.0,127.0,126.0,129.0,129.0,99.0,88.0,126.0,26.0,-96.0,-75.0,127.0,126.0,127.0,107.0,89.0,-101.0
127.0,127.0,126.0,130.0,129.0,104.0,88.0,127.0,26.0,-96.0,-75.0,127.0,126.0,127.0,107.0,89.0,-101.0
127.0,127.0,126.0,130.0,129.0,104.0,88.0,127.0,26.0,-96.0,-75.0,127.0,126.0,127.0,107.0,89.0,-101.0
127.0,127.0,126.0,130.0,129.0,104.0,88.0,127.0,26.0,-96.0,-75.0,127.0,126.0,127.0,107.0,89.0,-101.0
127.0,127.0,126.0,130.0,129.0,104.0,88.0,127.0,26.0,-96.0,-75.0,127.0,126.0,127.0,107.0,89.0,-101.0
127.0,127.0,126.0,130.0,129.0,104.0,88.0,127.0,26.0,-96.0,-75.0,127.0,126.0,127.0,107.0,89.0,-101.0
127.0,127.0,126.0,129.0,129.0,104.0,88.0,127.0,26.0,-96.0,-75.0,127.0,126.0,127.0,107.0,89.0,-101.0
127.0,127.0,126.0,129.0,129.0,104.0,88.0,127.0,26.0,-96.0,-75.0,127.0,126.0,127.0,107.0,89.0,-101.0
127.0,127.0,126.0,129.0,129.0,104.0,88.0,127.0,26.0,-96.0,-75.0,127.0,126.0,127.0,107.0,89.0,-101.0
127.0,127.0,126.0,129.0,128.0,104.0,88.0,127.0,26.0,-96.0,-75.0,127.0,126.0,127.0,107.0,89.0,-101.0
127.0,127.0,126.0,129.0,129.0,104.0,88.0,127.0,26.0,-96.0,-75.0,127.0,126.0,127.0,107.0,89.0,-101.0
127.0,127.0,126.0,128.0,129.0,104.0,88.0,128.0,26.0,-96.0,-74.0,126.0,126.0,127.0,107.0,89.0,-101.0
127.0,127.0,126.0,128.0,129.0,104.0,88.0,128.0,26.0,-96.0,-74.0,126.0,126.0,127.0,107.0,89.0,-101.0
127.0,127.0,126.0,128.0,129.0,104.0,88.0,128.0,26.0,-96.0,-74.0,126.0,126.0,127.0,107.0,89.0,-101.0
127.0,127.0,126.0,128.0,129.0,104.0,88.0,128.0,26.0,-96.0,-74.0,126.0,126.0,127.0,107.0,89.0,-101.0
127.0,127.0,126.0,128.0,129.0,104.0,89.0,128.0,26.0,-96.0,-74.0,126.0,126.0,127.0,107.0,89.0,-101.0
127.0,127.0,126.0,128.0,129.0,104.0,88.0,128.0,26.0,-96.0,-74.0,126.0,126.0,127.0,107.0,89.0,-101.0
127.0,127.0,126.0,128.0,129.0,103.0,88.0,128.0,26.0,-96.0,-74.0,126.0,126.0,127.0,107.0,89.0,-101.0
127.0,127.0,126.0,127.0,129.0,103.0,87.0,128.0,26.0,-96.0,-74.0,126.0,126.0,127.0,107.0,89.0,-101.0
127.0,127.0,126.0,127.0,129.0,103.0,90.0,128.0,26.0,-96.0,-74.0,126.0,126.0,127.0,107.0,89.0,-101.0
127.0,127.0,126.0,128.0,129.0,104.0,89.0,128.0,26.0,-96.0,-74.0,126.0,126.0,127.0,107.0,89.0,-101.0
127.0,127.0,125.0,126.0,130.0,98.0,85.0,129.0,27.0,-97.0,-74.0,126.0,126.0,127.0,107.0,89.0,-101.0
127.0,127.0,126.0,126.0,129.0,98.0,85.0,129.0,27.0,-97.0,-74.0,126.0,126.0,127.0,107.0,89.0,-101.0
127.0,127.0,126.0,126.0,129.0,97.0,85.0,129.0,27.0,-97.0,-74.0,126.0,126.0,127.0,107.0,89.0,-101.0
127.0,127.0,126.0,126.0,129.0,97.0,85.0,129.0,27.0,-97.0,-74.0,126.0,126.0,127.0,107.0,89.0,-101.0
127.0,127.0,126.0,126.0,129.0,97.0,84.0,129.0,27.0,-97.0,-74.0,126.0,126.0,127.0,107.0,89.0,-101.0
127.0,127.0,125.0,126.0,129.0,97.0,84.0,129.0,27.0,-97.0,-74.0,126.0,126.0,127.0,107.0,89.0,-101.0
127.0,127.0,125.0,126.0,129.0,97.0,84.0,129.0,27.0,-97.0,-74.0,126.0,126.0,127.0,107.0,89.0,-101.0
127.0,126.0,125.0,126.0,129.0,96.0,84.0,129.0,27.0,-97.0,-74.0,126.0,126.0,127.0,107.0,89.0,-101.0
127.0,127.0,125.0,126.0,130.0,98.0,86.0,129.0,27.0,-97.0,-74.0,126.0,126.0,127.0,107.0,89.0,-101.0
127.0,127.0,126.0,126.0,130.0,98.0,85.0,129.0,27.0,-97.0,-74.0,126.0,126.0,127.0,107.0,89.0,-101.0
127.0,127.0,125.0,125.0,129.0,92.0,84.0,129.0,27.0,-98.0,-73.0,126.0,126.0,127.0,107.0,89.0,-101.0
127.0,127.0,125.0,125.0,129.0,92.0,84.0,129.0,27.0,-98.0,-73.0,126.0,126.0,127.0,107.0,89.0,-101.0
127.0,127.0,125.0,125.0,129.0,92.0,83.0,129.0,27.0,-98.0,-73.0,126.0,126.0,127.0,107.0,89.0,-101.0
127.0,127.0,125.0,124.0,129.0,92.0,83.0,128.0,27.0,-98.0,-73.0,126.0,126.0,127.0,107.0,89.0,-101.0
127.0,127.0,125.0,124.0,129.0,92.0,82.0,128.0,27.0,-98.0,-73.0,126.0,126.0,127.0,107.0,89.0,-101.0
127.0,127.0,125.0,124.0,129.0,92.0,82.0,128.0,27.0,-98.0,-73.0,126.0,126.0,127.0,107.0,89.0,-101.0
127.0,126.0,125.0,124.0,129.0,91.0,82.0,128.0,27.0,-98.0,-73.0,126.0,126.0,127.0,107.0,89.0,-101.0
127.0,127.0,125.0,125.0,130.0,93.0,84.0,129.0,27.0,-98.0,-73.0,126.0,126.0,127.0,107.0,89.0,-101.0
127.0,127.0,125.0,125.0,130.0,93.0,84.0,129.0,27.0,-98.0,-73.0,126.0,126.0,127.0,107.0,89.0,-101.0
127.0,127.0,125.0,125.0,129.0,93.0,84.0,129.0,27.0,-98.0,-73.0,126.0,126.0,127.0,107.0,89.0,-101.0
127.0,127.0,126.0,123.0,129.0,91.0,81.0,128.0,27.0,-98.0,-73.0,126.0,126.0,127.0,107.0,89.0,-101.0
127.0,127.0,126.0,123.0,129.0,91.0,80.0,128.0,27.0,-98.0,-73.0,126.0,126.0,127.0,107.0,89.0,-101.0
127.0,127.0,126.0,123.0,129.0,91.0,81.0,128.0,27.0,-98.0,-73.0,126.0,126.0,127.0,107.0,89.0,-101.0
127.0,127.0,126.0,123.0,129.0,91.0,81.0,128.0,27.0,-98.0,-73.0,126.0,126.0,127.0,107.0,89.0,-101.0
127.0,126.0,126.0,123.0,129.0,91.0,81.0,128.0,27.0,-98.0,-73.0,126.0,126.0,127.0,107.0,89.0,-101.0
127.0,126.0,126.0,123.0,129.0,91.0,81.0,128.0,27.0,-98.0,-73.0,126.0,126.0,127.0,107.0,89.0,-101.0
127.0,127.0,124.0,124.0,129.0,90.0,80.0,128.0,27.0,-98.0,-73.0,126.0,126.0,127.0,107.0,89.0,-101.0
127.0,127.0,125.0,124.0,129.0,91.0,81.0,128.0,27.0,-98.0,-73.0,126.0,126.0,127.0,107.0,89.0,-101.0
127.0,127.0,125.0,124.0,129.0,91.0,81.0,128.0,27.0,-98.0,-73.0,126.0,126.0,127.0,107.0,89.0,-101.0
127.0,127.0,125.0,123.0,129.0,91.0,80.0,128.0,27.0,-98.0,-73.0,126.0,126.0,127.0,107.0,89.0,-101.0
127.0,127.0,126.0,124.0,129.0,95.0,82.0,129.0,28.0,-97.0,-73.0,126.0,126.0,127.0,107.0,89.0,-101.0
127.0,127.0,126.0,123.0,129.0,96.0,82.0,129.0,28.0,-97.0,-73.0,126.0,126.0,127.0,107.0,89.0,-101.0
127.0,127.0,126.0,123.0,129.0,96.0,82.0,129.0,28.0,-97.0,-73.0,126.0,126.0,127.0,107.0,89.0,-101.0
127.0,127.0,126.0,123.0,129.0,96.0,82.0,129.0,28.0,-97.0,-73.0,126.0,126.0,127.0,107.0,89.0,-101.0
127.0,127.0,126.0,123.0,129.0,96.0,83.0,129.0,28.0,-97.0,-73.0,126.0,126.0,127.0,107.0,89.0,-101.0
127.0,127.0,127.0,124.0,129.0,94.0,86.0,129.0,28.0,-97.0,-73.0,126.0,126.0,127.0,107.0,89.0,-101.0
127.0,127.0,127.0,124.0,129.0,95.0,87.0,128.0,28.0,-97.0,-73.0,126.0,126.0,127.0,107.0,89.0,-101.0
127.0,127.0,127.0,124.0,129.0,95.0,87.0,129.0,28.0,-97.0,-73.0,126.0,126.0,127.0,107.0,89.0,-101.0
127.0,127.0,126.0,124.0,129.0,95.0,86.0,129.0,28.0,-97.0,-73.0,126.0,126.0,127.0,107.0,89.0,-101.0
127.0,127.0,126.0,124.0,129.0,95.0,82.0,129.0,28.0,-97.0,-73.0,126.0,126.0,127.0,107.0,89.0,-101.0
127.0,127.0,128.0,123.0,128.0,105.0,89.0,129.0,28.0,-97.0,-73.0,126.0,126.0,127.0,107.0,89.0,-101.0
127.0,127.0,128.0,123.0,128.0,105.0,90.0,129.0,28.0,-97.0,-73.0,126.0,126.0,127.0,107.0,89.0,-101.0
127.0,127.0,128.0,123.0,128.0,105.0,90.0,129.0,28.0,-97.0,-73.0,126.0,126.0,127.0,107.0,89.0,-101.0
127.0,127.0,128.0,123.0,128.0,105.0,90.0,129.0,28.0,-97.0,-73.0,126.0,126.0,127.0,107.0,89.0,-101.0
127.0,128.0,127.0,122.0,128.0,104.0,89.0,129.0,28.0,-97.0,-73.0,126.0,126.0,127.0,107.0,89.0,-101.0
127.0,127.0,127.0,122.0,128.0,104.0,89.0,129.0,28.0,-97.0,-73.0,126.0,126.0,127.0,107.0,89.0,-101.0
127.0,128.0,127.0,122.0,128.0,105.0,90.0,129.0,28.0,-97.0,-73.0,126.0,126.0,127.0,107.0,89.0,-101.0
127.0,127.0,127.0,122.0,128.0,105.0,89.0,129.0,28.0,-97.0,-73.0,126.0,126.0,127.0,107.0,89.0,-101.0
127.0,128.0,127.0,122.0,128.0,104.0,89.0,129.0,28.0,-97.0,-73.0,126.0,126.0,127.0,107.0,89.0,-101.0
127.0,127.0,128.0,122.0,128.0,105.0,89.0,129.0,28.0,-97.0,-73.0,126.0,126.0,127.0,107.0,89.0,-101.0
127.0,127.0,129.0,122.0,129.0,108.0,96.0,129.0,28.0,-98.0,-73.0,126.0,126.0,127.0,107.0,89.0,-101.0
127.0,127.0,129.0,122.0,128.0,108.0,96.0,129.0,28.0,-98.0,-73.0,126.0,126.0,127.0,107.0,89.0,-101.0
127.0,127.0,129.0,122.0,128.0,108.0,95.0,129.0,28.0,-98.0,-73.0,126.0,126.0,127.0,107.0,89.0,-101.0
127.0,127.0,129.0,122.0,129.0,109.0,96.0,129.0,28.0,-98.0,-73.0,126.0,126.0,127.0,107.0,89.0,-101.0
127.0,127.0,129.0,122.0,129.0,109.0,96.0,129.0,28.0,-98.0,-73.0,126.0,126.0,127.0,107.0,89.0,-101.0
127.0,127.0,129.0,122.0,129.0,109.0,96.0,129.0,28.0,-98.0,-73.0,126.0,126.0,127.0,107.0,89.0,-101.0
127.0,127.0,129.0,122.0,129.0,109.0,96.0,129.0,28.0,-98.0,-73.0,126.0,126.0,127.0,107.0,89.0,-101.0
127.0,127.0,129.0,122.0,129.0,109.0,96.0,129.0,28.0,-98.0,-73.0,126.0,126.0,127.0,107.0,89.0,-101.0
127.0,127.0,129.0,122.0,129.0,108.0,96.0,129.0,28.0,-98.0,-73.0,126.0,126.0,127.0,107.0,89.0,-101.0
127.0,127.0,129.0,122.0,129.0,108.0,96.0,129.0,28.0,-98.0,-73.0,126.0,126.0,127.0,107.0,89.0,-101.0
127.0,126.0,128.0,120.0,129.0,111.0,100.0,129.0,28.0,-98.0,-73.0,126.0,126.0,127.0,107.0,89.0,-101.0
127.0,126.0,128.0,120.0,129.0,111.0,99.0,129.0,28.0,-98.0,-73.0,126.0,126.0,127.0,107.0,89.0,-101.0
127.0,127.0,129.0,121.0,129.0,110.0,99.0,129.0,28.0,-98.0,-73.0,126.0,126.0,127.0,107.0,89.0,-101.0
127.0,127.0,129.0,121.0,129.0,110.0,98.0,129.0,28.0,-98.0,-73.0,126.0,126.0,127.0,107.0,89.0,-101.0
127.0,127.0,129.0,121.0,129.0,110.0,99.0,129.0,28.0,-98.0,-73.0,126.0,126.0,127.0,107.0,89.0,-101.0
127.0,126.0,129.0,121.0,129.0,110.0,99.0,129.0,28.0,-98.0,-73.0,126.0,126.0,127.0,107.0,89.0,-101.0
127.0,127.0,129.0,120.0,129.0,110.0,99.0,129.0,28.0,-98.0,-73.0,126.0,126.0,127.0,107.0,89.0,-101.0
127.0,127.0,128.0,120.0,129.0,110.0,99.0,129.0,28.0,-98.0,-73.0,126.0,126.0,127.0,107.0,89.0,-101.0
127.0,126.0,128.0,120.0,129.0,110.0,99.0,129.0,28.0,-98.0,-73.0,126.0,126.0,127.0,107.0,89.0,-101.0
127.0,126.0,128.0,120.0,129.0,111.0,100.0,129.0,28.0,-98.0,-73.0,126.0,126.0,127.0,107.0,89.0,-101.0
127.0,127.0,129.0,123.0,128.0,114.0,98.0,129.0,28.0,-99.0,-73.0,126.0,126.0,127.0,107.0,89.0,-101.0
127.0,127.0,129.0,123.0,129.0,115.0,99.0,129.0,28.0,-99.0,-73.0,126.0,126.0,127.0,107.0,89.0,-101.0
127.0,127.0,129.0,123.0,129.0,115.0,99.0,129.0,28.0,-99.0,-73.0,126.0,126.0,127.0,107.0,89.0,-101.0
127.0,127.0,129.0,123.0,129.0,115.0,99.0,129.0,28.0,-99.0,-73.0,126.0,126.0,127.0,107.0,89.0,-101.0
127.0,127.0,129.0,123.0,128.0,115.0,99.0,129.0,28.0,-99.0,-73.0,126.0,126.0,127.0,107.0,89.0,-101.0
127.0,127.0,128.0,123.0,129.0,114.0,99.0,129.0,28.0,-99.0,-73.0,126.0,126.0,127.0,107.0,89.0,-101.0
127.0,127.0,128.0,123.0,129.0,114.0,99.0,129.0,28.0,-99.0,-73.0,126.0,126.0,127.0,107.0,89.0,-101.0
127.0,127.0,128.0,123.0,128.0,114.0,99.0,129.0,28.0,-99.0,-73.0,126.0,126.0,127.0,107.0,89.0,-101.0
127.0,127.0,128.0,123.0,129.0,114.0,99.0,129.0,28.0,-99.0,-73.0,126.0,126.0,127.0,107.0,89.0,-101.0
127.0,127.0,129.0,123.0,128.0,114.0,98.0,129.0,28.0,-99.0,-73.0,126.0,126.0,127.0,107.0,89.0,-101.0
127.0,127.0,128.0,122.0,128.0,117.0,104.0,129.0,29.0,-100.0,-72.0,126.0,126.0,127.0,107.0,89.0,-101.0
127.0,127.0,128.0,121.0,128.0,117.0,104.0,129.0,29.0,-100.0,-72.0,126.0,126.0,127.0,107.0,89.0,-101.0
127.0,127.0,128.0,121.0,128.0,117.0,104.0,129.0,29.0,-100.0,-72.0,126.0,126.0,127.0,107.0,89.0,-101.0
127.0,127.0,128.0,121.0,128.0,118.0,104.0,129.0,29.0,-100.0,-72.0,126.0,126.0,127.0,107.0,89.0,-101.0
127.0,127.0,128.0,121.0,128.0,118.0,104.0,129.0,29.0,-100.0,-72.0,126.0,126.0,127.0,107.0,89.0,-101.0
127.0,127.0,128.0,121.0,128.0,118.0,105.0,129.0,29.0,-100.0,-72.0,126.0,126.0,127.0,107.0,89.0,-101.0
127.0,127.0,128.0,121.0,128.0,118.0,105.0,129.0,29.0,-100.0,-72.0,126.0,126.0,127.0,107.0,89.0,-101.0
127.0,127.0,128.0,121.0,128.0,118.0,105.0,129.0,29.0,-100.0,-72.0,126.0,126.0,127.0,107.0,89.0,-101.0
127.0,127.0,128.0,121.0,128.0,118.0,105.0,129.0,29.0,-100.0,-72.0,126.0,126.0,127.0,107.0,89.0,-101.0
127.0,127.0,128.0,122.0,128.0,117.0,104.0,129.0,29.0,-100.0,-72.0,126.0,126.0,127.0,107.0,89.0,-101.0
127.0,127.0,128.0,123.0,128.0,121.0,102.0,129.0,29.0,-100.0,-72.0,126.0,126.0,127.0,107.0,89.0,-101.0
127.0,127.0,128.0,123.0,128.0,120.0,102.0,129.0,29.0,-100.0,-72.0,126.0,126.0,127.0,107.0,89.0,-101.0
127.0,127.0,128.0,123.0,128.0,121.0,102.0,129.0,29.0,-100.0,-72.0,126.0,126.0,127.0,107.0,89.0,-101.0
127.0,127.0,128.0,123.0,128.0,121.0,102.0,128.0,29.0,-100.0,-72.0,126.0,126.0,127.0,107.0,89.0,-101.0
127.0,127.0,128.0,123.0,128.0,121.0,102.0,129.0,29.0,-100.0,-72.0,126.0,126.0,127.0,107.0,89.0,-101.0
127.0,127.0,128.0,123.0,127.0,121.0,102.0,129.0,29.0,-100.0,-72.0,126.0,126.0,127.0,107.0,89.0,-101.0
127.0,127.0,128.0,123.0,127.0,121.0,102.0,128.0,29.0,-100.0,-72.0,126.0,126.0,127.0,107.0,89.0,-101.0
127.0,127.0,128.0,123.0,127.0,121.0,102.0,128.0,29.0,-100.0,-72.0,126.0,126.0,127.0,107.0,89.0,-101.0
127.0,127.0,128.0,122.0,128.0,121.0,102.0,129.0,29.0,-100.0,-72.0,126.0,126.0,127.0,107.0,89.0,-101.0
127.0,127.0,128.0,123.0,128.0,121.0,102.0,129.0,29.0,-100.0,-72.0,126.0,126.0,127.0,107.0,89.0,-101.0
127.0,128.0,128.0,122.0,127.0,120.0,101.0,128.0,30.0,-101.0,-71.0,126.0,126.0,127.0,107.0,89.0,-101.0
127.0,128.0,129.0,122.0,127.0,120.0,101.0,128.0,30.0,-101.0,-71.0,126.0,126.0,127.0,107.0,89.0,-101.0
127.0,127.0,129.0,122.0,127.0,120.0,102.0,128.0,30.0,-101.0,-71.0,126.0,126.0,127.0,107.0,89.0,-101.0
127.0,127.0,129.0,122.0,127.0,120.0,101.0,128.0,30.0,-101.0,-71.0,126.0,126.0,127.0,107.0,89.0,-101.0
127.0,127.0,129.0,122.0,127.0,120.0,101.0,128.0,30.0,-101.0,-71.0,126.0,126.0,127.0,107.0,89.0,-101.0
127.0,127.0,128.0,122.0,127.0,119.0,100.0,128.0,30.0,-101.0,-71.0,126.0,126.0,127.0,107.0,89.0,-101.0
127.0,127.0,128.0,122.0,127.0,119.0,100.0,128.0,30.0,-101.0,-71.0,126.0,126.0,127.0,107.0,89.0,-101.0
127.0,127.0,128.0,122.0,127.0,120.0,102.0,128.0,30.0,-101.0,-71.0,126.0,126.0,127.0,107.0,89.0,-101.0
127.0,127.0,128.0,122.0,127.0,120.0,102.0,128.0,30.0,-101.0,-71.0,126.0,126.0,127.0,107.0,89.0,-101.0
126.0,127.0,128.0,122.0,127.0,120.0,101.0,128.0,30.0,-101.0,-71.0,126.0,126.0,127.0,107.0,89.0,-101.0
127.0,127.0,127.0,122.0,125.0,116.0,102.0,128.0,31.0,-101.0,-70.0,126.0,126.0,127.0,107.0,89.0,-101.0
127.0,127.0,127.0,122.0,125.0,116.0,102.0,128.0,31.0,-101.0,-70.0,126.0,126.0,127.0,107.0,89.0,-101.0
127.0,127.0,127.0,122.0,125.0,116.0,102.0,128.0,31.0,-101.0,-70.0,126.0,126.0,127.0,107.0,89.0,-101.0
127.0,127.0,127.0,122.0,125.0,116.0,101.0,128.0,31.0,-101.0,-70.0,126.0,126.0,127.0,107.0,89.0,-101.0
127.0,127.0,127.0,122.0,125.0,115.0,101.0,128.0,31.0,-101.0,-70.0,126.0,126.0,127.0,107.0,89.0,-101.0
127.0,127.0,127.0,122.0,125.0,115.0,101.0,127.0,31.0,-101.0,-70.0,126.0,126.0,127.0,107.0,89.0,-101.0
127.0,127.0,127.0,122.0,126.0,117.0,102.0,128.0,31.0,-101.0,-70.0,126.0,126.0,127.0,107.0,89.0,-101.0
127.0,127.0,127.0,122.0,126.0,116.0,103.0,128.0,31.0,-101.0,-70.0,126.0,126.0,127.0,107.0,89.0,-101.0
127.0,127.0,127.0,122.0,126.0,116.0,102.0,128.0,31.0,-101.0,-70.0,126.0,126.0,127.0,107.0,89.0,-101.0
127.0,127.0,127.0,122.0,125.0,116.0,102.0,128.0,31.0,-101.0,-70.0,126.0,126.0,127.0,107.0,89.0,-101.0
127.0,127.0,127.0,119.0,128.0,118.0,104.0,128.0,31.0,-102.0,-70.0,126.0,126.0,127.0,107.0,89.0,-101.0
127.0,127.0,127.0,119.0,128.0,118.0,105.0,128.0,31.0,-102.0,-70.0,126.0,126.0,127.0,107.0,89.0,-101.0
127.0,127.0,127.0,119.0,128.0,118.0,105.0,128.0,31.0,-102.0,-70.0,126.0,126.0,127.0,107.0,89.0,-101.0
127.0,127.0,127.0,119.0,128.0,118.0,105.0,128.0,31.0,-102.0,-70.0,126.0,126.0,127.0,107.0,89.0,-101.0
127.0,127.0,127.0,120.0,128.0,118.0,106.0,128.0,31.0,-102.0,-70.0,126.0,126.0,127.0,107.0,89.0,-101.0
127.0,127.0,127.0,117.0,128.0,117.0,103.0,128.0,31.0,-102.0,-70.0,126.0,126.0,127.0,107.0,89.0,-101.0
127.0,127.0,127.0,117.0,128.0,117.0,103.0,128.0,31.0,-102.0,-70.0,126.0,126.0,127.0,107.0,89.0,-101.0
127.0,127.0,127.0,117.0,128.0,117.0,103.0,128.0,31.0,-102.0,-70.0,126.0,126.0,127.0,107.0,89.0,-101.0
127.0,127.0,127.0,118.0,128.0,117.0,104.0,128.0,31.0,-102.0,-70.0,126.0,126.0,127.0,107.0,89.0,-101.0
127.0,127.0,127.0,118.0,128.0,118.0,104.0,128.0,31.0,-102.0,-70.0,126.0,126.0,127.0,107.0,89.0,-101.0
127.0,127.0,127.0,122.0,127.0,127.0,113.0,128.0,32.0,-102.0,-69.0,126.0,127.0,127.0,107.0,89.0,-101.0
127.0,127.0,127.0,122.0,127.0,127.0,113.0,128.0,32.0,-102.0,-69.0,126.0,127.0,127.0,107.0,89.0,-101.0
127.0,127.0,128.0,122.0,127.0,127.0,112.0,128.0,32.0,-102.0,-69.0,126.0,127.0,127.0,107.0,89.0,-101.0
127.0,127.0,128.0,122.0,127.0,127.0,107.0,128.0,32.0,-102.0,-69.0,126.0,127.0,127.0,107.0,89.0,-101.0
127.0,127.0,127.0,121.0,127.0,126.0,111.0,128.0,32.0,-102.0,-69.0,126.0,127.0,127.0,107.0,89.0,-101.0
127.0,127.0,127.0,121.0,127.0,126.0,111.0,128.0,32.0,-102.0,-69.0,126.0,127.0,127.0,107.0,89.0,-101.0
127.0,127.0,127.0,122.0,127.0,126.0,111.0,128.0,32.0,-102.0,-69.0,126.0,127.0,127.0,107.0,89.0,-101.0
127.0,127.0,127.0,122.0,127.0,126.0,112.0,128.0,32.0,-102.0,-69.0,126.0,127.0,127.0,107.0,89.0,-101.0
127.0,127.0,127.0,122.0,127.0,126.0,112.0,128.0,32.0,-102.0,-69.0,126.0,127.0,127.0,107.0,89.0,-101.0
127.0,127.0,127.0,122.0,127.0,127.0,112.0,128.0,32.0,-102.0,-69.0,126.0,127.0,127.0,107.0,89.0,-101.0
127.0,127.0,127.0,123.0,126.0,125.0,110.0,128.0,32.0,-103.0,-68.0,126.0,127.0,127.0,107.0,89.0,-101.0
127.0,127.0,127.0,123.0,126.0,125.0,109.0,128.0,32.0,-103.0,-68.0,126.0,127.0,127.0,107.0,89.0,-101.0
127.0,127.0,127.0,123.0,126.0,124.0,109.0,128.0,32.0,-103.0,-68.0,126.0,127.0,127.0,107.0,89.0,-101.0
127.0,127.0,127.0,122.0,126.0,126.0,110.0,128.0,32.0,-103.0,-68.0,126.0,127.0,127.0,107.0,89.0,-101.0
127.0,127.0,127.0,122.0,126.0,125.0,111.0,128.0,32.0,-103.0,-68.0,126.0,127.0,127.0,107.0,89.0,-101.0
127.0,127.0,127.0,122.0,126.0,125.0,111.0,128.0,32.0,-103.0,-68.0,126.0,127.0,127.0,107.0,89.0,-101.0
127.0,127.0,127.0,122.0,127.0,125.0,110.0,128.0,32.0,-103.0,-68.0,126.0,127.0,127.0,107.0,89.0,-101.0
127.0,127.0,127.0,123.0,127.0,125.0,110.0,128.0,32.0,-103.0,-68.0,126.0,127.0,127.0,107.0,89.0,-101.0
127.0,127.0,127.0,123.0,126.0,125.0,110.0,128.0,32.0,-103.0,-68.0,126.0,127.0,127.0,107.0,89.0,-101.0
127.0,127.0,127.0,123.0,126.0,125.0,110.0,128.0,32.0,-103.0,-68.0,126.0,127.0,127.0,107.0,89.0,-101.0
127.0,127.0,126.0,122.0,126.0,118.0,105.0,127.0,33.0,-103.0,-68.0,126.0,127.0,127.0,108.0,89.0,-101.0
127.0,127.0,125.0,122.0,125.0,118.0,105.0,127.0,33.0,-103.0,-68.0,126.0,127.0,127.0,108.0,89.0,-101.0
127.0,127.0,126.0,122.0,126.0,118.0,106.0,127.0,33.0,-103.0,-68.0,126.0,127.0,127.0,108.0,89.0,-101.0
127.0,127.0,126.0,122.0,126.0,118.0,105.0,127.0,33.0,-103.0,-68.0,126.0,127.0,127.0,108.0,89.0,-101.0
127.0,127.0,126.0,123.0,126.0,118.0,105.0,127.0,33.0,-103.0,-68.0,126.0,127.0,127.0,108.0,89.0,-101.0
127.0,127.0,126.0,123.0,126.0,118.0,106.0,127.0,33.0,-103.0,-68.0,126.0,127.0,127.0,108.0,89.0,-101.0
127.0,127.0,126.0,122.0,126.0,118.0,105.0,127.0,33.0,-103.0,-68.0,126.0,127.0,127.0,108.0,89.0,-101.0
127.0,127.0,126.0,123.0,126.0,118.0,105.0,127.0,33.0,-103.0,-68.0,126.0,127.0,127.0,108.0,89.0,-101.0
127.0,127.0,126.0,122.0,126.0,118.0,105.0,127.0,33.0,-103.0,-68.0,126.0,127.0,127.0,108.0,89.0,-101.0
127.0,127.0,126.0,122.0,126.0,118.0,105.0,127.0,33.0,-103.0,-68.0,126.0,127.0,127.0,108.0,89.0,-101.0
127.0,127.0,127.0,122.0,126.0,121.0,103.0,127.0,33.0,-104.0,-67.0,126.0,127.0,127.0,108.0,89.0,-101.0
127.0,127.0,127.0,122.0,126.0,120.0,101.0,127.0,33.0,-104.0,-67.0,126.0,127.0,127.0,108.0,89.0,-101.0
127.0,127.0,127.0,122.0,126.0,120.0,101.0,127.0,33.0,-104.0,-67.0,126.0,127.0,127.0,108.0,89.0,-101.0
127.0,128.0,127.0,122.0,126.0,120.0,101.0,127.0,33.0,-104.0,-67.0,126.0,127.0,127.0,108.0,89.0,-101.0
127.0,128.0,127.0,122.0,126.0,120.0,102.0,127.0,33.0,-104.0,-67.0,126.0,127.0,127.0,108.0,89.0,-101.0
127.0,128.0,127.0,122.0,126.0,121.0,102.0,127.0,33.0,-104.0,-67.0,126.0,127.0,127.0,108.0,89.0,-101.0
127.0,128.0,127.0,122.0,126.0,121.0,102.0,127.0,33.0,-104.0,-67.0,126.0,127.0,127.0,108.0,89.0,-101.0
127.0,128.0,127.0,122.0,126.0,121.0,102.0,127.0,33.0,-104.0,-67.0,126.0,127.0,127.0,108.0,89.0,-101.0
127.0,127.0,127.0,122.0,126.0,121.0,102.0,127.0,33.0,-104.0,-67.0,126.0,127.0,127.0,108.0,89.0,-101.0
127.0,127.0,127.0,122.0,126.0,121.0,103.0,127.0,33.0,-104.0,-67.0,126.0,127.0,127.0,108.0,89.0,-101.0
127.0,128.0,128.0,123.0,128.0,123.0,106.0,128.0,34.0,-104.0,-67.0,126.0,127.0,127.0,108.0,89.0,-101.0
127.0,128.0,128.0,123.0,128.0,123.0,107.0,128.0,34.0,-104.0,-67.0,126.0,127.0,127.0,108.0,89.0,-101.0
127.0,128.0,128.0,124.0,128.0,123.0,107.0,128.0,34.0,-104.0,-67.0,126.0,127.0,127.0,108.0,89.0,-101.0
127.0,128.0,128.0,123.0,128.0,123.0,107.0,128.0,34.0,-104.0,-67.0,126.0,127.0,127.0,108.0,89.0,-101.0
127.0,128.0,128.0,123.0,128.0,124.0,107.0,128.0,34.0,-104.0,-67.0,126.0,127.0,127.0,108.0,89.0,-101.0
127.0,128.0,128.0,124.0,128.0,124.0,107.0,128.0,34.0,-104.0,-67.0,126.0,127.0,127.0,108.0,89.0,-101.0
127.0,128.0,128.0,124.0,128.0,124.0,108.0,128.0,34.0,-104.0,-67.0,126.0,127.0,127.0,108.0,89.0,-101.0
127.0,128.0,128.0,124.0,128.0,124.0,108.0,128.0,34.0,-104.0,-67.0,126.0,127.0,127.0,108.0,89.0,-101.0
127.0,128.0,128.0,124.0,128.0,124.0,108.0,128.0,34.0,-104.0,-67.0,126.0,127.0,127.0,108.0,89.0,-101.0
127.0,128.0,128.0,124.0,128.0,124.0,108.0,128.0,34.0,-104.0,-67.0,126.0,127.0,127.0,108.0,89.0,-101.0
127.0,127.0,127.0,125.0,128.0,131.0,112.0,128.0,34.0,-104.0,-67.0,126.0,127.0,127.0,108.0,89.0,-101.0
127.0,127.0,127.0,125.0,128.0,131.0,112.0,128.0,34.0,-104.0,-67.0,126.0,127.0,127.0,108.0,89.0,-101.0
127.0,127.0,127.0,125.0,128.0,131.0,112.0,128.0,34.0,-104.0,-67.0,126.0,127.0,127.0,108.0,89.0,-101.0
127.0,127.0,127.0,125.0,128.0,131.0,112.0,128.0,34.0,-104.0,-67.0,126.0,127.0,127.0,108.0,89.0,-101.0
127.0,128.0,127.0,125.0,128.0,131.0,112.0,128.0,34.0,-104.0,-67.0,126.0,127.0,127.0,108.0,89.0,-101.0
127.0,127.0,127.0,125.0,128.0,131.0,112.0,128.0,34.0,-104.0,-67.0,126.0,127.0,127.0,108.0,89.0,-101.0
127.0,127.0,127.0,124.0,128.0,131.0,112.0,128.0,34.0,-104.0,-67.0,126.0,127.0,127.0,108.0,89.0,-101.0
127.0,127.0,127.0,124.0,128.0,131.0,112.0,128.0,34.0,-104.0,-67.0,126.0,127.0,127.0,108.0,89.0,-101.0
127.0,127.0,127.0,124.0,128.0,131.0,112.0,128.0,34.0,-104.0,-67.0,126.0,127.0,127.0,108.0,89.0,-101.0
127.0,127.0,127.0,125.0,128.0,131.0,112.0,128.0,34.0,-104.0,-67.0,126.0,127.0,127.0,108.0,89.0,-101.0
127.0,128.0,127.0,125.0,129.0,129.0,109.0,128.0,34.0,-105.0,-66.0,126.0,127.0,127.0,109.0,89.0,-101.0
127.0,128.0,127.0,125.0,129.0,129.0,109.0,128.0,34.0,-105.0,-66.0,126.0,127.0,127.0,109.0,89.0,-101.0
127.0,128.0,127.0,125.0,129.0,129.0,108.0,128.0,34.0,-105.0,-66.0,126.0,127.0,127.0,109.0,89.0,-101.0
127.0,128.0,127.0,125.0,129.0,129.0,109.0,128.0,34.0,-105.0,-66.0,126.0,127.0,127.0,109.0,89.0,-101.0
127.0,128.0,127.0,125.0,129.0,129.0,109.0,128.0,34.0,-105.0,-66.0,126.0,127.0,127.0,109.0,89.0,-101.0
127.0,128.0,127.0,125.0,129.0,129.0,109.0,128.0,34.0,-105.0,-66.0,126.0,127.0,127.0,109.0,89.0,-101.0
127.0,128.0,127.0,125.0,129.0,129.0,109.0,128.0,34.0,-105.0,-66.0,126.0,127.0,127.0,109.0,89.0,-101.0
127.0,128.0,127.0,125.0,129.0,129.0,109.0,128.0,34.0,-105.0,-66.0,126.0,127.0,127.0,109.0,89.0,-101.0
127.0,128.0,127.0,125.0,129.0,129.0,108.0,128.0,34.0,-105.0,-66.0,126.0,127.0,127.0,109.0,89.0,-101.0
127.0,128.0,127.0,125.0,129.0,129.0,108.0,128.0,34.0,-105.0,-66.0,126.0,127.0,127.0,109.0,89.0,-101.0
126.0,127.0,126.0,126.0,126.0,132.0,113.0,128.0,34.0,-105.0,-66.0,126.0,127.0,127.0,109.0,89.0,-101.0
126.0,128.0,126.0,126.0,126.0,131.0,114.0,128.0,34.0,-105.0,-66.0,126.0,127.0,127.0,109.0,89.0,-101.0
126.0,128.0,126.0,126.0,126.0,131.0,113.0,128.0,34.0,-105.0,-66.0,126.0,127.0,127.0,109.0,89.0,-101.0
126.0,128.0,126.0,126.0,126.0,131.0,113.0,128.0,34.0,-105.0,-66.0,126.0,127.0,127.0,109.0,89.0,-101.0
126.0,128.0,126.0,126.0,126.0,132.0,113.0,128.0,34.0,-105.0,-66.0,126.0,127.0,127.0,109.0,89.0,-101.0
126.0,127.0,126.0,126.0,126.0,132.0,113.0,128.0,34.0,-105.0,-66.0,126.0,127.0,127.0,109.0,89.0,-101.0
126.0,127.0,126.0,126.0,126.0,132.0,113.0,128.0,34.0,-105.0,-66.0,126.0,127.0,127.0,109.0,89.0,-101.0
126.0,128.0,126.0,126.0,126.0,131.0,113.0,128.0,34.0,-105.0,-66.0,126.0,127.0,127.0,109.0,89.0,-101.0
126.0,127.0,126.0,126.0,126.0,132.0,113.0,128.0,34.0,-105.0,-66.0,126.0,127.0,127.0,109.0,89.0,-101.0
126.0,128.0,126.0,126.0,126.0,131.0,113.0,128.0,34.0,-105.0,-66.0,126.0,127.0,127.0,109.0,89.0,-101.0
126.0,127.0,126.0,125.0,126.0,126.0,113.0,128.0,34.0,-105.0,-65.0,126.0,127.0,127.0,110.0,89.0,-101.0
126.0,127.0,126.0,125.0,126.0,126.0,112.0,128.0,34.0,-105.0,-65.0,126.0,127.0,127.0,110.0,89.0,-101.0
126.0,128.0,126.0,125.0,126.0,126.0,111.0,128.0,34.0,-105.0,-65.0,126.0,127.0,127.0,110.0,89.0,-101.0
126.0,128.0,126.0,125.0,126.0,126.0,111.0,128.0,34.0,-105.0,-65.0,126.0,127.0,127.0,110.0,89.0,-101.0
126.0,128.0,126.0,125.0,126.0,126.0,111.0,128.0,34.0,-105.0,-65.0,126.0,127.0,127.0,110.0,89.0,-101.0
126.0,128.0,126.0,125.0,126.0,125.0,111.0,128.0,34.0,-105.0,-65.0,126.0,127.0,127.0,110.0,89.0,-101.0
126.0,127.0,126.0,125.0,127.0,127.0,109.0,128.0,34.0,-105.0,-65.0,126.0,127.0,127.0,110.0,89.0,-101.0
126.0,127.0,126.0,125.0,127.0,127.0,112.0,128.0,34.0,-105.0,-65.0,126.0,127.0,127.0,110.0,89.0,-101.0
127.0,128.0,126.0,125.0,127.0,126.0,112.0,128.0,34.0,-105.0,-65.0,126.0,127.0,127.0,110.0,89.0,-101.0
126.0,127.0,126.0,125.0,126.0,126.0,113.0,128.0,34.0,-105.0,-65.0,126.0,127.0,127.0,110.0,89.0,-101.0
126.0,128.0,127.0,127.0,130.0,121.0,102.0,128.0,34.0,-105.0,-65.0,126.0,127.0,127.0,110.0,89.0,-101.0
126.0,128.0,127.0,127.0,130.0,120.0,102.0,128.0,34.0,-105.0,-65.0,126.0,127.0,127.0,110.0,89.0,-101.0
126.0,128.0,127.0,127.0,130.0,120.0,102.0,127.0,34.0,-105.0,-65.0,126.0,127.0,127.0,110.0,89.0,-101.0
126.0,128.0,127.0,127.0,130.0,120.0,102.0,127.0,34.0,-105.0,-65.0,126.0,127.0,127.0,110.0,89.0,-101.0
126.0,128.0,127.0,127.0,130.0,120.0,101.0,128.0,34.0,-105.0,-65.0,126.0,127.0,127.0,110.0,89.0,-101.0
126.0,127.0,127.0,125.0,129.0,121.0,103.0,128.0,34.0,-105.0,-65.0,126.0,127.0,127.0,110.0,89.0,-101.0
126.0,127.0,127.0,126.0,129.0,121.0,103.0,128.0,34.0,-105.0,-65.0,126.0,127.0,127.0,110.0,89.0,-101.0
126.0,127.0,127.0,126.0,129.0,121.0,103.0,128.0,34.0,-105.0,-65.0,126.0,127.0,127.0,110.0,89.0,-101.0
126.0,127.0,127.0,126.0,129.0,121.0,103.0,128.0,34.0,-105.0,-65.0,126.0,127.0,127.0,110.0,89.0,-101.0
126.0,127.0,127.0,126.0,129.0,121.0,103.0,128.0,34.0,-105.0,-65.0,126.0,127.0,127.0,110.0,89.0,-101.0
126.0,128.0,127.0,127.0,129.0,116.0,102.0,128.0,34.0,-105.0,-65.0,126.0,127.0,127.0,111.0,89.0,-101.0
126.0,128.0,127.0,127.0,129.0,116.0,102.0,128.0,34.0,-105.0,-65.0,126.0,127.0,127.0,111.0,89.0,-101.0
126.0,128.0,127.0,127.0,129.0,116.0,103.0,128.0,34.0,-105.0,-65.0,126.0,127.0,127.0,111.0,89.0,-101.0
127.0,128.0,127.0,127.0,129.0,117.0,102.0,128.0,34.0,-105.0,-65.0,126.0,127.0,127.0,111.0,89.0,-101.0
126.0,128.0,127.0,126.0,129.0,115.0,101.0,128.0,34.0,-105.0,-65.0,126.0,127.0,127.0,111.0,89.0,-101.0
126.0,128.0,127.0,127.0,129.0,116.0,101.0,128.0,34.0,-105.0,-65.0,126.0,127.0,127.0,111.0,89.0,-101.0
126.0,128.0,127.0,127.0,129.0,116.0,101.0,128.0,34.0,-105.0,-65.0,126.0,127.0,127.0,111.0,89.0,-101.0
126.0,128.0,127.0,127.0,129.0,116.0,101.0,128.0,34.0,-105.0,-65.0,126.0,127.0,127.0,111.0,89.0,-101.0
126.0,128.0,127.0,127.0,129.0,116.0,102.0,128.0,34.0,-105.0,-65.0,126.0,127.0,127.0,111.0,89.0,-101.0
126.0,128.0,127.0,127.0,129.0,116.0,102.0,128.0,34.0,-105.0,-65.0,126.0,127.0,127.0,111.0,89.0,-101.0
127.0,128.0,127.0,127.0,125.0,123.0,106.0,128.0,34.0,-105.0,-65.0,126.0,127.0,127.0,111.0,89.0,-101.0
127.0,128.0,127.0,127.0,125.0,123.0,107.0,128.0,34.0,-105.0,-65.0,126.0,127.0,127.0,111.0,89.0,-101.0
127.0,128.0,127.0,127.0,125.0,123.0,107.0,128.0,34.0,-105.0,-65.0,126.0,127.0,127.0,111.0,89.0,-101.0
127.0,128.0,127.0,127.0,126.0,122.0,105.0,128.0,34.0,-105.0,-65.0,126.0,127.0,127.0,111.0,89.0,-101.0
127.0,128.0,127.0,127.0,126.0,122.0,104.0,128.0,34.0,-105.0,-65.0,126.0,127.0,127.0,111.0,89.0,-101.0
127.0,128.0,127.0,127.0,126.0,122.0,105.0,128.0,34.0,-105.0,-65.0,126.0,127.0,127.0,111.0,89.0,-101.0
127.0,128.0,127.0,127.0,126.0,123.0,105.0,128.0,34.0,-105.0,-65.0,126.0,127.0,127.0,111.0,89.0,-101.0
127.0,128.0,127.0,127.0,125.0,123.0,106.0,128.0,34.0,-105.0,-65.0,126.0,127.0,127.0,111.0,89.0,-101.0
127.0,128.0,127.0,127.0,125.0,123.0,106.0,128.0,34.0,-105.0,-65.0,126.0,127.0,127.0,111.0,89.0,-101.0
127.0,128.0,127.0,127.0,125.0,123.0,106.0,128.0,34.0,-105.0,-65.0,126.0,127.0,127.0,111.0,89.0,-101.0
126.0,128.0,127.0,127.0,125.0,125.0,110.0,128.0,34.0,-105.0,-64.0,126.0,127.0,127.0,111.0,89.0,-101.0
126.0,128.0,127.0,127.0,125.0,125.0,110.0,128.0,34.0,-105.0,-64.0,126.0,127.0,127.0,111.0,89.0,-101.0
126.0,128.0,127.0,127.0,125.0,125.0,110.0,127.0,34.0,-105.0,-64.0,126.0,127.0,127.0,111.0,89.0,-101.0
126.0,128.0,127.0,127.0,125.0,125.0,110.0,127.0,34.0,-105.0,-64.0,126.0,127.0,127.0,111.0,89.0,-101.0
126.0,128.0,127.0,127.0,125.0,125.0,110.0,128.0,34.0,-105.0,-64.0,126.0,127.0,127.0,111.0,89.0,-101.0
126.0,128.0,127.0,127.0,125.0,125.0,109.0,127.0,34.0,-105.0,-64.0,126.0,127.0,127.0,111.0,89.0,-101.0
126.0,128.0,127.0,127.0,125.0,125.0,110.0,128.0,34.0,-105.0,-64.0,126.0,127.0,127.0,111.0,89.0,-101.0
126.0,128.0,127.0,127.0,125.0,125.0,110.0,128.0,34.0,-105.0,-64.0,126.0,127.0,127.0,111.0,89.0,-101.0
126.0,128.0,127.0,127.0,125.0,125.0,110.0,128.0,34.0,-105.0,-64.0,126.0,127.0,127.0,111.0,89.0,-101.0
126.0,128.0,127.0,127.0,125.0,125.0,110.0,128.0,34.0,-105.0,-64.0,126.0,127.0,127.0,111.0,89.0,-101.0
126.0,128.0,128.0,127.0,126.0,125.0,111.0,128.0,34.0,-105.0,-64.0,126.0,127.0,127.0,111.0,89.0,-101.0
126.0,128.0,128.0,127.0,126.0,125.0,110.0,128.0,34.0,-105.0,-64.0,126.0,127.0,127.0,111.0,89.0,-101.0
126.0,128.0,128.0,127.0,126.0,125.0,110.0,128.0,34.0,-105.0,-64.0,126.0,127.0,127.0,111.0,89.0,-101.0
126.0,128.0,128.0,127.0,127.0,125.0,110.0,128.0,34.0,-105.0,-64.0,126.0,127.0,127.0,111.0,89.0,-101.0
126.0,128.0,128.0,127.0,127.0,125.0,110.0,128.0,34.0,-105.0,-64.0,126.0,127.0,127.0,111.0,89.0,-101.0
126.0,128.0,128.0,127.0,127.0,125.0,110.0,128.0,34.0,-105.0,-64.0,126.0,127.0,127.0,111.0,89.0,-101.0
126.0,128.0,128.0,127.0,127.0,125.0,110.0,128.0,34.0,-105.0,-64.0,126.0,127.0,127.0,111.0,89.0,-101.0
126.0,128.0,127.0,127.0,127.0,125.0,110.0,128.0,34.0,-105.0,-64.0,126.0,127.0,127.0,111.0,89.0,-101.0
126.0,128.0,128.0,127.0,126.0,125.0,110.0,128.0,34.0,-105.0,-64.0,126.0,127.0,127.0,111.0,89.0,-101.0
126.0,128.0,128.0,127.0,126.0,125.0,111.0,128.0,34.0,-105.0,-64.0,126.0,127.0,127.0,111.0,89.0,-101.0
126.0,128.0,127.0,127.0,127.0,125.0,110.0,128.0,34.0,-105.0,-64.0,126.0,127.0,127.0,111.0,89.0,-101.0
126.0,128.0,127.0,127.0,127.0,125.0,111.0,128.0,34.0,-105.0,-64.0,126.0,127.0,127.0,111.0,89.0,-101.0
126.0,128.0,127.0,127.0,127.0,125.0,110.0,128.0,34.0,-105.0,-64.0,126.0,127.0,127.0,111.0,89.0,-101.0
126.0,128.0,127.0,127.0,127.0,125.0,110.0,128.0,34.0,-105.0,-64.0,126.0,127.0,127.0,111.0,89.0,-101.0
126.0,128.0,127.0,127.0,127.0,125.0,111.0,128.0,34.0,-105.0,-64.0,126.0,127.0,127.0,111.0,89.0,-101.0
126.0,128.0,127.0,127.0,127.0,125.0,111.0,128.0,34.0,-105.0,-64.0,126.0,127.0,127.0,111.0,89.0,-101.0
126.0,128.0,127.0,127.0,127.0,125.0,111.0,128.0,34.0,-105.0,-64.0,126.0,127.0,127.0,111.0,89.0,-101.0
126.0,128.0,127.0,127.0,127.0,125.0,111.0,128.0,34.0,-105.0,-64.0,126.0,127.0,127.0,111.0,89.0,-101.0
126.0,128.0,127.0,127.0,127.0,126.0,110.0,128.0,34.0,-105.0,-64.0,126.0,127.0,127.0,111.0,89.0,-101.0
126.0,128.0,127.0,127.0,127.0,126.0,110.0,128.0,34.0,-105.0,-64.0,126.0,127.0,127.0,111.0,89.0,-101.0
127.0,128.0,127.0,128.0,128.0,126.0,111.0,128.0,34.0,-105.0,-64.0,127.0,127.0,127.0,112.0,89.0,-101.0
126.0,128.0,127.0,128.0,128.0,126.0,111.0,128.0,34.0,-105.0,-64.0,127.0,127.0,127.0,112.0,89.0,-101.0
126.0,128.0,127.0,128.0,128.0,126.0,112.0,128.0,34.0,-105.0,-64.0,127.0,127.0,127.0,112.0,89.0,-101.0
126.0,128.0,127.0,128.0,128.0,126.0,112.0,128.0,34.0,-105.0,-64.0,127.0,127.0,127.0,112.0,89.0,-101.0
126.0,128.0,127.0,128.0,128.0,126.0,111.0,128.0,34.0,-105.0,-64.0,127.0,127.0,127.0,112.0,89.0,-101.0
127.0,128.0,127.0,128.0,128.0,126.0,111.0,128.0,34.0,-105.0,-64.0,127.0,127.0,127.0,112.0,89.0,-101.0
126.0,128.0,127.0,128.0,128.0,126.0,111.0,128.0,34.0,-105.0,-64.0,127.0,127.0,127.0,112.0,89.0,-101.0
126.0,128.0,127.0,128.0,128.0,126.0,112.0,128.0,34.0,-105.0,-64.0,127.0,127.0,127.0,112.0,89.0,-101.0
126.0,128.0,127.0,127.0,128.0,126.0,111.0,128.0,34.0,-105.0,-64.0,127.0,127.0,127.0,112.0,89.0,-101.0
126.0,128.0,127.0,128.0,128.0,126.0,110.0,128.0,34.0,-105.0,-64.0,127.0,127.0,127.0,112.0,89.0,-101.0
126.0,127.0,126.0,127.0,127.0,125.0,110.0,127.0,34.0,-105.0,-64.0,127.0,127.0,127.0,112.0,89.0,-101.0
126.0,127.0,126.0,127.0,127.0,125.0,110.0,127.0,34.0,-105.0,-64.0,127.0,127.0,127.0,112.0,89.0,-101.0
126.0,127.0,126.0,127.0,127.0,125.0,110.0,128.0,34.0,-105.0,-64.0,127.0,127.0,127.0,112.0,89.0,-101.0
126.0,127.0,126.0,127.0,127.0,125.0,109.0,128.0,34.0,-105.0,-64.0,127.0,127.0,127.0,112.0,89.0,-101.0
126.0,127.0,126.0,127.0,127.0,125.0,109.0,128.0,34.0,-105.0,-64.0,127.0,127.0,127.0,112.0,89.0,-101.0
126.0,127.0,126.0,127.0,127.0,125.0,109.0,128.0,34.0,-105.0,-64.0,127.0,127.0,127.0,112.0,89.0,-101.0
126.0,127.0,126.0,128.0,127.0,125.0,109.0,128.0,34.0,-105.0,-64.0,127.0,127.0,127.0,112.0,89.0,-101.0
126.0,127.0,126.0,128.0,127.0,125.0,109.0,128.0,34.0,-105.0,-64.0,127.0,127.0,127.0,112.0,89.0,-101.0
126.0,127.0,126.0,127.0,127.0,125.0,110.0,127.0,34.0,-105.0,-64.0,127.0,127.0,127.0,112.0,89.0,-101.0
126.0,127.0,126.0,127.0,127.0,125.0,110.0,128.0,34.0,-105.0,-64.0,127.0,127.0,127.0,112.0,89.0,-101.0
126.0,128.0,126.0,127.0,126.0,125.0,110.0,128.0,34.0,-105.0,-64.0,127.0,127.0,127.0,112.0,89.0,-101.0
126.0,128.0,127.0,128.0,126.0,125.0,110.0,128.0,34.0,-105.0,-64.0,127.0,127.0,127.0,112.0,89.0,-101.0
126.0,128.0,127.0,128.0,126.0,125.0,110.0,128.0,34.0,-105.0,-64.0,127.0,127.0,127.0,112.0,89.0,-101.0
126.0,128.0,127.0,128.0,126.0,125.0,110.0,128.0,34.0,-105.0,-64.0,127.0,127.0,127.0,112.0,89.0,-101.0
126.0,128.0,127.0,128.0,126.0,125.0,110.0,128.0,34.0,-105.0,-64.0,127.0,127.0,127.0,112.0,89.0,-101.0
126.0,128.0,127.0,128.0,126.0,125.0,110.0,128.0,34.0,-105.0,-64.0,127.0,127.0,127.0,112.0,89.0,-101.0
126.0,128.0,127.0,128.0,126.0,125.0,111.0,128.0,34.0,-105.0,-64.0,127.0,127.0,127.0,112.0,89.0,-101.0
126.0,127.0,126.0,127.0,126.0,125.0,110.0,128.0,34.0,-105.0,-64.0,127.0,127.0,127.0,112.0,89.0,-101.0
126.0,127.0,126.0,127.0,126.0,125.0,110.0,128.0,34.0,-105.0,-64.0,127.0,127.0,127.0,112.0,89.0,-101.0
126.0,128.0,126.0,127.0,126.0,125.0,110.0,128.0,34.0,-105.0,-64.0,127.0,127.0,127.0,112.0,89.0,-101.0
126.0,128.0,127.0,128.0,127.0,126.0,112.0,128.0,34.0,-105.0,-64.0,127.0,127.0,127.0,113.0,89.0,-101.0
126.0,128.0,127.0,128.0,127.0,126.0,112.0,128.0,34.0,-105.0,-64.0,127.0,127.0,127.0,113.0,89.0,-101.0
126.0,128.0,127.0,128.0,127.0,126.0,112.0,128.0,34.0,-105.0,-64.0,127.0,127.0,127.0,113.0,89.0,-101.0
126.0,128.0,127.0,128.0,127.0,126.0,112.0,128.0,34.0,-105.0,-64.0,127.0,127.0,127.0,113.0,89.0,-101.0
126.0,128.0,127.0,128.0,127.0,126.0,113.0,128.0,34.0,-105.0,-64.0,127.0,127.0,127.0,113.0,89.0,-101.0
126.0,128.0,127.0,128.0,127.0,127.0,112.0,128.0,34.0,-105.0,-64.0,127.0,127.0,127.0,113.0,89.0,-101.0
126.0,128.0,127.0,128.0,127.0,126.0,112.0,128.0,34.0,-105.0,-64.0,127.0,127.0,127.0,113.0,89.0,-101.0
126.0,128.0,127.0,128.0,127.0,126.0,113.0,128.0,34.0,-105.0,-64.0,127.0,127.0,127.0,113.0,89.0,-101.0
126.0,128.0,127.0,128.0,127.0,126.0,113.0,128.0,34.0,-105.0,-64.0,127.0,127.0,127.0,113.0,89.0,-101.0
126.0,128.0,127.0,128.0,127.0,126.0,112.0,128.0,34.0,-105.0,-64.0,127.0,127.0,127.0,113.0,89.0,-101.0
126.0,128.0,127.0,128.0,128.0,128.0,107.0,128.0,34.0,-105.0,-64.0,127.0,127.0,127.0,113.0,89.0,-101.0
126.0,128.0,127.0,127.0,128.0,128.0,107.0,127.0,34.0,-105.0,-64.0,127.0,127.0,127.0,113.0,89.0,-101.0
126.0,128.0,127.0,128.0,128.0,128.0,107.0,128.0,34.0,-105.0,-64.0,127.0,127.0,127.0,113.0,89.0,-101.0
126.0,128.0,127.0,128.0,128.0,128.0,107.0,127.0,34.0,-105.0,-64.0,127.0,127.0,127.0,113.0,89.0,-101.0
126.0,128.0,127.0,128.0,128.0,128.0,107.0,128.0,34.0,-105.0,-64.0,127.0,127.0,127.0,113.0,89.0,-101.0
126.0,127.0,127.0,127.0,128.0,127.0,106.0,127.0,34.0,-105.0,-64.0,127.0,127.0,127.0,113.0,89.0,-101.0
126.0,128.0,127.0,127.0,128.0,127.0,106.0,127.0,34.0,-105.0,-64.0,127.0,127.0,127.0,113.0,89.0,-101.0
126.0,128.0,127.0,127.0,128.0,127.0,106.0,128.0,34.0,-105.0,-64.0,127.0,127.0,127.0,113.0,89.0,-101.0
126.0,127.0,127.0,127.0,128.0,128.0,106.0,128.0,34.0,-105.0,-64.0,127.0,127.0,127.0,113.0,89.0,-101.0
126.0,127.0,127.0,127.0,128.0,128.0,107.0,127.0,34.0,-105.0,-64.0,127.0,127.0,127.0,113.0,89.0,-101.0
126.0,128.0,127.0,128.0,129.0,134.0,118.0,128.0,34.0,-105.0,-64.0,127.0,127.0,127.0,113.0,89.0,-101.0
126.0,128.0,127.0,128.0,129.0,134.0,118.0,128.0,34.0,-105.0,-64.0,127.0,127.0,127.0,113.0,89.0,-101.0
126.0,128.0,127.0,128.0,129.0,134.0,118.0,128.0,34.0,-105.0,-64.0,127.0,127.0,127.0,113.0,89.0,-101.0
126.0,128.0,127.0,128.0,128.0,134.0,117.0,128.0,34.0,-105.0,-64.0,127.0,127.0,127.0,113.0,89.0,-101.0
126.0,128.0,127.0,127.0,128.0,134.0,118.0,128.0,34.0,-105.0,-64.0,127.0,127.0,127.0,113.0,89.0,-101.0
126.0,128.0,127.0,128.0,128.0,134.0,118.0,128.0,34.0,-105.0,-64.0,127.0,127.0,127.0,113.0,89.0,-101.0
126.0,128.0,127.0,128.0,129.0,134.0,119.0,128.0,34.0,-105.0,-64.0,127.0,127.0,127.0,113.0,89.0,-101.0
126.0,128.0,127.0,128.0,129.0,134.0,119.0,128.0,34.0,-105.0,-64.0,127.0,127.0,127.0,113.0,89.0,-101.0
126.0,128.0,127.0,128.0,129.0,134.0,119.0,128.0,34.0,-105.0,-64.0,127.0,127.0,127.0,113.0,89.0,-101.0
126.0,128.0,127.0,128.0,129.0,134.0,119.0,128.0,34.0,-105.0,-64.0,127.0,127.0,127.0,113.0,89.0,-101.0
126.0,128.0,127.0,128.0,128.0,124.0,108.0,128.0,34.0,-105.0,-64.0,127.0,127.0,127.0,113.0,89.0,-101.0
126.0,128.0,127.0,128.0,128.0,124.0,108.0,128.0,34.0,-105.0,-64.0,127.0,127.0,127.0,113.0,89.0,-101.0
126.0,128.0,127.0,128.0,128.0,124.0,108.0,128.0,34.0,-105.0,-64.0,127.0,127.0,127.0,113.0,89.0,-101.0
126.0,127.0,127.0,127.0,128.0,125.0,110.0,127.0,34.0,-105.0,-64.0,127.0,127.0,127.0,113.0,89.0,-101.0
126.0,128.0,127.0,127.0,128.0,125.0,110.0,128.0,34.0,-105.0,-64.0,127.0,127.0,127.0,113.0,89.0,-101.0
126.0,128.0,127.0,128.0,128.0,125.0,109.0,128.0,34.0,-105.0,-64.0,127.0,127.0,127.0,113.0,89.0,-101.0
126.0,128.0,127.0,128.0,128.0,125.0,109.0,128.0,34.0,-105.0,-64.0,127.0,127.0,127.0,113.0,89.0,-101.0
126.0,128.0,127.0,128.0,128.0,125.0,109.0,128.0,34.0,-105.0,-64.0,127.0,127.0,127.0,113.0,89.0,-101.0
126.0,128.0,127.0,128.0,128.0,125.0,109.0,128.0,34.0,-105.0,-64.0,127.0,127.0,127.0,113.0,89.0,-101.0
126.0,128.0,127.0,128.0,128.0,124.0,109.0,128.0,34.0,-105.0,-64.0,127.0,127.0,127.0,113.0,89.0,-101.0
126.0,128.0,127.0,128.0,129.0,124.0,107.0,128.0,34.0,-106.0,-64.0,127.0,127.0,127.0,113.0,89.0,-101.0
126.0,128.0,127.0,128.0,129.0,124.0,108.0,128.0,34.0,-106.0,-64.0,127.0,127.0,127.0,113.0,89.0,-101.0
126.0,127.0,127.0,127.0,128.0,123.0,107.0,127.0,34.0,-106.0,-64.0,127.0,127.0,127.0,113.0,89.0,-101.0
126.0,127.0,127.0,127.0,128.0,124.0,107.0,128.0,34.0,-106.0,-64.0,127.0,127.0,127.0,113.0,89.0,-101.0
126.0,127.0,127.0,127.0,128.0,124.0,107.0,128.0,34.0,-106.0,-64.0,127.0,127.0,127.0,113.0,89.0,-101.0
126.0,127.0,127.0,127.0,128.0,124.0,108.0,128.0,34.0,-106.0,-64.0,127.0,127.0,127.0,113.0,89.0,-101.0
126.0,127.0,127.0,127.0,128.0,124.0,108.0,128.0,34.0,-106.0,-64.0,127.0,127.0,127.0,113.0,89.0,-101.0
126.0,128.0,127.0,128.0,128.0,124.0,108.0,128.0,34.0,-106.0,-64.0,127.0,127.0,127.0,113.0,89.0,-101.0
126.0,127.0,127.0,128.0,128.0,124.0,108.0,128.0,34.0,-106.0,-64.0,127.0,127.0,127.0,113.0,89.0,-101.0
126.0,128.0,127.0,128.0,128.0,124.0,107.0,128.0,34.0,-106.0,-64.0,127.0,127.0,127.0,113.0,89.0,-101.0
126.0,128.0,127.0,128.0,128.0,125.0,109.0,128.0,34.0,-106.0,-64.0,127.0,127.0,127.0,113.0,89.0,-101.0
127.0,127.0,127.0,127.0,128.0,125.0,109.0,128.0,34.0,-106.0,-64.0,127.0,127.0,127.0,113.0,89.0,-101.0
127.0,127.0,127.0,127.0,128.0,125.0,109.0,128.0,34.0,-106.0,-64.0,127.0,127.0,127.0,113.0,89.0,-101.0
127.0,128.0,127.0,128.0,128.0,125.0,109.0,128.0,34.0,-106.0,-64.0,127.0,127.0,127.0,113.0,89.0,-101.0
127.0,128.0,127.0,128.0,128.0,125.0,109.0,128.0,34.0,-106.0,-64.0,127.0,127.0,127.0,113.0,89.0,-101.0
127.0,128.0,127.0,128.0,128.0,125.0,109.0,128.0,34.0,-106.0,-64.0,127.0,127.0,127.0,113.0,89.0,-101.0
127.0,128.0,127.0,128.0,128.0,125.0,109.0,128.0,34.0,-106.0,-64.0,127.0,127.0,127.0,113.0,89.0,-101.0
127.0,128.0,127.0,128.0,128.0,125.0,110.0,128.0,34.0,-106.0,-64.0,127.0,127.0,127.0,113.0,89.0,-101.0
127.0,128.0,127.0,128.0,128.0,125.0,110.0,128.0,34.0,-106.0,-64.0,127.0,127.0,127.0,113.0,89.0,-101.0
126.0,128.0,127.0,128.0,128.0,125.0,110.0,128.0,34.0,-106.0,-64.0,127.0,127.0,127.0,113.0,89.0,-101.0
126.0,127.0,127.0,127.0,126.0,124.0,107.0,128.0,35.0,-106.0,-64.0,127.0,127.0,127.0,113.0,89.0,-101.0
126.0,127.0,127.0,127.0,126.0,124.0,107.0,128.0,35.0,-106.0,-64.0,127.0,127.0,127.0,113.0,89.0,-101.0
126.0,128.0,127.0,127.0,126.0,124.0,108.0,128.0,35.0,-106.0,-64.0,127.0,127.0,127.0,113.0,89.0,-101.0
126.0,127.0,126.0,127.0,126.0,124.0,108.0,128.0,35.0,-106.0,-64.0,127.0,127.0,127.0,113.0,89.0,-101.0
126.0,128.0,126.0,127.0,126.0,124.0,108.0,128.0,35.0,-106.0,-64.0,127.0,127.0,127.0,113.0,89.0,-101.0
126.0,128.0,126.0,127.0,126.0,124.0,107.0,128.0,35.0,-106.0,-64.0,127.0,127.0,127.0,113.0,89.0,-101.0
126.0,128.0,127.0,128.0,126.0,124.0,107.0,128.0,35.0,-106.0,-64.0,127.0,127.0,127.0,113.0,89.0,-101.0
126.0,128.0,127.0,128.0,126.0,123.0,107.0,128.0,35.0,-106.0,-64.0,127.0,127.0,127.0,113.0,89.0,-101.0
126.0,128.0,127.0,128.0,127.0,123.0,107.0,128.0,35.0,-106.0,-64.0,127.0,127.0,127.0,113.0,89.0,-101.0
126.0,128.0,127.0,128.0,127.0,123.0,108.0,128.0,35.0,-106.0,-64.0,127.0,127.0,127.0,113.0,89.0,-101.0
126.0,127.0,127.0,127.0,126.0,124.0,109.0,128.0,35.0,-106.0,-64.0,127.0,127.0,127.0,113.0,89.0,-101.0
126.0,127.0,127.0,128.0,126.0,125.0,109.0,128.0,35.0,-106.0,-64.0,127.0,127.0,127.0,113.0,89.0,-101.0
126.0,127.0,127.0,128.0,126.0,125.0,109.0,128.0,35.0,-106.0,-64.0,127.0,127.0,127.0,113.0,89.0,-101.0
126.0,127.0,127.0,128.0,126.0,125.0,110.0,128.0,35.0,-106.0,-64.0,127.0,127.0,127.0,113.0,89.0,-101.0
126.0,127.0,127.0,128.0,126.0,125.0,110.0,128.0,35.0,-106.0,-64.0,127.0,127.0,127.0,113.0,89.0,-101.0
126.0,127.0,127.0,128.0,126.0,125.0,110.0,128.0,35.0,-106.0,-64.0,127.0,127.0,127.0,113.0,89.0,-101.0
126.0,128.0,127.0,128.0,126.0,125.0,110.0,128.0,35.0,-106.0,-64.0,127.0,127.0,127.0,113.0,89.0,-101.0
126.0,128.0,127.0,128.0,126.0,125.0,110.0,128.0,35.0,-106.0,-64.0,127.0,127.0,127.0,113.0,89.0,-101.0
126.0,128.0,127.0,128.0,126.0,125.0,110.0,128.0,35.0,-106.0,-64.0,127.0,127.0,127.0,113.0,89.0,-101.0
126.0,127.0,127.0,127.0,126.0,124.0,109.0,128.0,35.0,-106.0,-64.0,127.0,127.0,127.0,113.0,89.0,-101.0
127.0,128.0,127.0,127.0,127.0,126.0,111.0,127.0,35.0,-106.0,-65.0,127.0,127.0,127.0,114.0,89.0,-101.0
127.0,128.0,127.0,128.0,127.0,126.0,112.0,128.0,35.0,-106.0,-65.0,127.0,127.0,127.0,114.0,89.0,-101.0
127.0,128.0,127.0,128.0,127.0,126.0,111.0,127.0,35.0,-106.0,-65.0,127.0,127.0,127.0,114.0,89.0,-101.0
126.0,128.0,127.0,128.0,127.0,126.0,111.0,128.0,35.0,-106.0,-65.0,127.0,127.0,127.0,114.0,89.0,-101.0
127.0,128.0,127.0,128.0,127.0,126.0,112.0,128.0,35.0,-106.0,-65.0,127.0,127.0,127.0,114.0,89.0,-101.0
127.0,128.0,127.0,128.0,127.0,126.0,112.0,127.0,35.0,-106.0,-65.0,127.0,127.0,127.0,114.0,89.0,-101.0
127.0,128.0,127.0,128.0,127.0,126.0,112.0,128.0,35.0,-106.0,-65.0,127.0,127.0,127.0,114.0,89.0,-101.0
127.0,128.0,127.0,128.0,128.0,126.0,112.0,128.0,35.0,-106.0,-65.0,127.0,127.0,127.0,114.0,89.0,-101.0
127.0,127.0,127.0,127.0,127.0,126.0,111.0,127.0,35.0,-106.0,-65.0,127.0,127.0,127.0,114.0,89.0,-101.0
126.0,127.0,127.0,127.0,127.0,126.0,112.0,127.0,35.0,-106.0,-65.0,127.0,127.0,127.0,114.0,89.0,-101.0
126.0,127.0,127.0,127.0,127.0,126.0,112.0,127.0,35.0,-106.0,-65.0,127.0,127.0,127.0,114.0,89.0,-101.0
126.0,127.0,127.0,128.0,127.0,126.0,112.0,128.0,35.0,-106.0,-65.0,127.0,127.0,127.0,114.0,89.0,-101.0
126.0,127.0,127.0,128.0,127.0,126.0,111.0,128.0,35.0,-106.0,-65.0,127.0,127.0,127.0,114.0,89.0,-101.0
126.0,127.0,127.0,128.0,127.0,126.0,112.0,128.0,35.0,-106.0,-65.0,127.0,127.0,127.0,114.0,89.0,-101.0
126.0,127.0,127.0,128.0,127.0,126.0,111.0,128.0,35.0,-106.0,-65.0,127.0,127.0,127.0,114.0,89.0,-101.0
126.0,127.0,127.0,128.0,127.0,126.0,111.0,128.0,35.0,-106.0,-65.0,127.0,127.0,127.0,114.0,89.0,-101.0
126.0,127.0,127.0,128.0,127.0,126.0,111.0,128.0,35.0,-106.0,-65.0,127.0,127.0,127.0,114.0,89.0,-101.0
126.0,127.0,127.0,127.0,127.0,126.0,111.0,127.0,35.0,-106.0,-65.0,127.0,127.0,127.0,114.0,89.0,-101.0
126.0,127.0,127.0,127.0,127.0,126.0,111.0,127.0,35.0,-106.0,-65.0,127.0,127.0,127.0,114.0,89.0,-101.0
126.0,127.0,127.0,127.0,127.0,126.0,111.0,127.0,35.0,-106.0,-65.0,127.0,127.0,127.0,114.0,89.0,-101.0
127.0,127.0,127.0,128.0,127.0,126.0,111.0,127.0,35.0,-106.0,-65.0,127.0,127.0,127.0,114.0,89.0,-101.0
127.0,127.0,127.0,128.0,127.0,126.0,111.0,128.0,35.0,-106.0,-65.0,127.0,127.0,127.0,114.0,89.0,-101.0
127.0,127.0,127.0,128.0,127.0,126.0,112.0,128.0,35.0,-106.0,-65.0,127.0,127.0,127.0,114.0,89.0,-101.0
127.0,127.0,127.0,128.0,127.0,126.0,112.0,127.0,35.0,-106.0,-65.0,127.0,127.0,127.0,114.0,89.0,-101.0
127.0,127.0,127.0,128.0,127.0,126.0,112.0,127.0,35.0,-106.0,-65.0,127.0,127.0,127.0,114.0,89.0,-101.0
127.0,128.0,127.0,128.0,127.0,126.0,111.0,128.0,35.0,-106.0,-65.0,127.0,127.0,127.0,114.0,89.0,-101.0
127.0,127.0,127.0,127.0,127.0,126.0,111.0,127.0,35.0,-106.0,-65.0,127.0,127.0,127.0,114.0,89.0,-101.0
127.0,127.0,127.0,127.0,127.0,126.0,112.0,127.0,35.0,-106.0,-65.0,127.0,127.0,127.0,114.0,89.0,-101.0
127.0,127.0,127.0,127.0,127.0,126.0,111.0,127.0,35.0,-106.0,-65.0,127.0,127.0,127.0,114.0,89.0,-101.0
127.0,127.0,127.0,127.0,127.0,126.0,112.0,127.0,35.0,-106.0,-65.0,127.0,127.0,127.0,114.0,89.0,-101.0
126.0,128.0,126.0,127.0,127.0,126.0,111.0,128.0,36.0,-106.0,-65.0,127.0,127.0,127.0,114.0,89.0,-101.0
127.0,128.0,126.0,127.0,127.0,126.0,111.0,128.0,36.0,-106.0,-65.0,127.0,127.0,127.0,114.0,89.0,-101.0
127.0,128.0,126.0,127.0,127.0,126.0,111.0,128.0,36.0,-106.0,-65.0,127.0,127.0,127.0,114.0,89.0,-101.0
127.0,128.0,126.0,127.0,127.0,126.0,111.0,128.0,36.0,-106.0,-65.0,127.0,127.0,127.0,114.0,89.0,-101.0
127.0,128.0,126.0,127.0,127.0,126.0,111.0,128.0,36.0,-106.0,-65.0,127.0,127.0,127.0,114.0,89.0,-101.0
127.0,127.0,127.0,127.0,127.0,126.0,111.0,128.0,36.0,-106.0,-65.0,127.0,127.0,127.0,114.0,89.0,-101.0
127.0,127.0,127.0,127.0,127.0,126.0,111.0,128.0,36.0,-106.0,-65.0,127.0,127.0,127.0,114.0,89.0,-101.0
126.0,128.0,127.0,127.0,127.0,126.0,111.0,128.0,36.0,-106.0,-65.0,127.0,127.0,127.0,114.0,89.0,-101.0
127.0,128.0,127.0,127.0,127.0,126.0,111.0,128.0,36.0,-106.0,-65.0,127.0,127.0,127.0,114.0,89.0,-101.0
127.0,127.0,127.0,127.0,127.0,126.0,111.0,128.0,36.0,-106.0,-65.0,127.0,127.0,127.0,114.0,89.0,-101.0
127.0,128.0,126.0,128.0,128.0,126.0,111.0,128.0,36.0,-106.0,-65.0,127.0,127.0,127.0,115.0,89.0,-101.0
127.0,128.0,127.0,128.0,128.0,126.0,111.0,128.0,36.0,-106.0,-65.0,127.0,127.0,127.0,115.0,89.0,-101.0
127.0,128.0,127.0,128.0,128.0,126.0,112.0,128.0,36.0,-106.0,-65.0,127.0,127.0,127.0,115.0,89.0,-101.0
127.0,128.0,127.0,128.0,128.0,126.0,111.0,128.0,36.0,-106.0,-65.0,127.0,127.0,127.0,115.0,89.0,-101.0
127.0,127.0,127.0,127.0,127.0,125.0,111.0,127.0,36.0,-106.0,-65.0,127.0,127.0,127.0,115.0,89.0,-101.0
127.0,127.0,127.0,127.0,127.0,126.0,111.0,127.0,36.0,-106.0,-65.0,127.0,127.0,127.0,115.0,89.0,-101.0
127.0,127.0,127.0,127.0,127.0,125.0,111.0,127.0,36.0,-106.0,-65.0,127.0,127.0,127.0,115.0,89.0,-101.0
127.0,128.0,127.0,127.0,127.0,126.0,111.0,127.0,36.0,-106.0,-65.0,127.0,127.0,127.0,115.0,89.0,-101.0
127.0,128.0,127.0,128.0,127.0,126.0,111.0,128.0,36.0,-106.0,-65.0,127.0,127.0,127.0,115.0,89.0,-101.0
127.0,128.0,126.0,128.0,128.0,126.0,111.0,127.0,36.0,-106.0,-65.0,127.0,127.0,127.0,115.0,89.0,-101.0
127.0,128.0,127.0,127.0,127.0,126.0,112.0,128.0,36.0,-107.0,-65.0,127.0,127.0,127.0,115.0,89.0,-101.0
127.0,128.0,127.0,127.0,128.0,126.0,113.0,128.0,36.0,-107.0,-65.0,127.0,127.0,127.0,115.0,89.0,-101.0
127.0,128.0,127.0,128.0,128.0,127.0,112.0,128.0,36.0,-107.0,-65.0,127.0,127.0,127.0,115.0,89.0,-101.0
127.0,127.0,127.0,126.0,127.0,126.0,111.0,128.0,36.0,-107.0,-65.0,127.0,127.0,127.0,115.0,89.0,-101.0
127.0,127.0,127.0,126.0,127.0,126.0,111.0,128.0,36.0,-107.0,-65.0,127.0,127.0,127.0,115.0,89.0,-101.0
127.0,127.0,127.0,127.0,127.0,126.0,111.0,128.0,36.0,-107.0,-65.0,127.0,127.0,127.0,115.0,89.0,-101.0
127.0,127.0,127.0,127.0,127.0,126.0,112.0,128.0,36.0,-107.0,-65.0,127.0,127.0,127.0,115.0,89.0,-101.0
127.0,128.0,127.0,127.0,127.0,126.0,112.0,128.0,36.0,-107.0,-65.0,127.0,127.0,127.0,115.0,89.0,-101.0
127.0,128.0,127.0,127.0,127.0,126.0,112.0,128.0,36.0,-107.0,-65.0,127.0,127.0,127.0,115.0,89.0,-101.0
127.0,128.0,127.0,127.0,127.0,126.0,112.0,128.0,36.0,-107.0,-65.0,127.0,127.0,127.0,115.0,89.0,-101.0
127.0,128.0,127.0,128.0,128.0,126.0,112.0,127.0,35.0,-107.0,-65.0,127.0,127.0,127.0,115.0,89.0,-101.0
127.0,128.0,127.0,128.0,128.0,126.0,111.0,127.0,35.0,-107.0,-65.0,127.0,127.0,127.0,115.0,89.0,-101.0
127.0,127.0,127.0,127.0,127.0,126.0,112.0,127.0,35.0,-107.0,-65.0,127.0,127.0,127.0,115.0,89.0,-101.0
127.0,127.0,127.0,127.0,127.0,126.0,112.0,127.0,35.0,-107.0,-65.0,127.0,127.0,127.0,115.0,89.0,-101.0
127.0,127.0,127.0,127.0,127.0,126.0,111.0,127.0,35.0,-107.0,-65.0,127.0,127.0,127.0,115.0,89.0,-101.0
127.0,127.0,127.0,127.0,127.0,126.0,111.0,127.0,35.0,-107.0,-65.0,127.0,127.0,127.0,115.0,89.0,-101.0
127.0,127.0,127.0,128.0,127.0,126.0,112.0,127.0,35.0,-107.0,-65.0,127.0,127.0,127.0,115.0,89.0,-101.0
127.0,127.0,127.0,128.0,127.0,126.0,112.0,127.0,35.0,-107.0,-65.0,127.0,127.0,127.0,115.0,89.0,-101.0
127.0,128.0,127.0,128.0,128.0,126.0,111.0,127.0,35.0,-107.0,-65.0,127.0,127.0,127.0,115.0,89.0,-101.0
127.0,128.0,127.0,128.0,128.0,126.0,111.0,127.0,35.0,-107.0,-65.0,127.0,127.0,127.0,115.0,89.0,-101.0
127.0,128.0,127.0,128.0,130.0,126.0,111.0,128.0,35.0,-107.0,-65.0,127.0,127.0,127.0,115.0,89.0,-101.0
127.0,127.0,127.0,127.0,130.0,126.0,111.0,128.0,35.0,-107.0,-65.0,127.0,127.0,127.0,115.0,89.0,-101.0
127.0,127.0,127.0,127.0,130.0,126.0,112.0,128.0,35.0,-107.0,-65.0,127.0,127.0,127.0,115.0,89.0,-101.0
127.0,127.0,127.0,127.0,130.0,126.0,112.0,128.0,35.0,-107.0,-65.0,127.0,127.0,127.0,115.0,89.0,-101.0
127.0,127.0,127.0,127.0,130.0,126.0,112.0,128.0,35.0,-107.0,-65.0,127.0,127.0,127.0,115.0,89.0,-101.0
127.0,128.0,127.0,128.0,130.0,126.0,112.0,128.0,35.0,-107.0,-65.0,127.0,127.0,127.0,115.0,89.0,-101.0
127.0,128.0,127.0,128.0,130.0,126.0,111.0,128.0,35.0,-107.0,-65.0,127.0,127.0,127.0,115.0,89.0,-101.0
127.0,128.0,127.0,128.0,130.0,126.0,112.0,128.0,35.0,-107.0,-65.0,127.0,127.0,127.0,115.0,89.0,-101.0
127.0,128.0,127.0,128.0,130.0,126.0,111.0,128.0,35.0,-107.0,-65.0,127.0,127.0,127.0,115.0,89.0,-101.0
127.0,128.0,127.0,128.0,130.0,126.0,111.0,128.0,35.0,-107.0,-65.0,127.0,127.0,127.0,115.0,89.0,-101.0
127.0,127.0,127.0,128.0,127.0,125.0,110.0,127.0,34.0,-107.0,-65.0,127.0,127.0,127.0,115.0,89.0,-101.0
127.0,127.0,127.0,128.0,127.0,125.0,110.0,127.0,34.0,-107.0,-65.0,127.0,127.0,127.0,115.0,89.0,-101.0
127.0,127.0,127.0,128.0,127.0,125.0,111.0,128.0,34.0,-107.0,-65.0,127.0,127.0,127.0,115.0,89.0,-101.0
127.0,128.0,127.0,128.0,127.0,125.0,111.0,128.0,34.0,-107.0,-65.0,127.0,127.0,127.0,115.0,89.0,-101.0
127.0,128.0,127.0,128.0,127.0,126.0,110.0,128.0,34.0,-107.0,-65.0,127.0,127.0,127.0,115.0,89.0,-101.0
127.0,128.0,127.0,128.0,127.0,126.0,110.0,128.0,34.0,-107.0,-65.0,127.0,127.0,127.0,115.0,89.0,-101.0
127.0,128.0,127.0,128.0,127.0,126.0,111.0,128.0,34.0,-107.0,-65.0,127.0,127.0,127.0,115.0,89.0,-101.0
127.0,128.0,127.0,128.0,127.0,126.0,111.0,128.0,34.0,-107.0,-65.0,127.0,127.0,127.0,115.0,89.0,-101.0
127.0,128.0,127.0,128.0,127.0,126.0,111.0,128.0,34.0,-107.0,-65.0,127.0,127.0,127.0,115.0,89.0,-101.0
127.0,128.0,127.0,128.0,127.0,126.0,111.0,128.0,34.0,-107.0,-65.0,127.0,127.0,127.0,115.0,89.0,-101.0
127.0,127.0,127.0,127.0,125.0,126.0,111.0,128.0,34.0,-107.0,-65.0,127.0,127.0,127.0,116.0,89.0,-101.0
127.0,127.0,127.0,128.0,125.0,126.0,111.0,128.0,34.0,-107.0,-65.0,127.0,127.0,127.0,116.0,89.0,-101.0
127.0,127.0,127.0,128.0,125.0,126.0,112.0,128.0,34.0,-107.0,-65.0,127.0,127.0,127.0,116.0,89.0,-101.0
127.0,127.0,127.0,128.0,125.0,126.0,111.0,128.0,34.0,-107.0,-65.0,127.0,127.0,127.0,116.0,89.0,-101.0
127.0,127.0,127.0,128.0,125.0,126.0,111.0,128.0,34.0,-107.0,-65.0,127.0,127.0,127.0,116.0,89.0,-101.0
127.0,127.0,126.0,128.0,125.0,126.0,112.0,128.0,34.0,-107.0,-65.0,127.0,127.0,127.0,116.0,89.0,-101.0
127.0,127.0,126.0,128.0,125.0,126.0,112.0,128.0,34.0,-107.0,-65.0,127.0,127.0,127.0,116.0,89.0,-101.0
126.0,127.0,126.0,128.0,125.0,127.0,112.0,128.0,34.0,-107.0,-65.0,127.0,127.0,127.0,116.0,89.0,-101.0
126.0,127.0,126.0,128.0,125.0,127.0,112.0,128.0,34.0,-107.0,-65.0,127.0,127.0,127.0,116.0,89.0,-101.0
127.0,127.0,127.0,127.0,125.0,125.0,111.0,128.0,34.0,-107.0,-65.0,127.0,127.0,127.0,116.0,89.0,-101.0
127.0,127.0,127.0,128.0,126.0,127.0,107.0,128.0,33.0,-107.0,-65.0,127.0,127.0,127.0,116.0,89.0,-101.0
127.0,127.0,127.0,128.0,126.0,128.0,106.0,128.0,33.0,-107.0,-65.0,127.0,127.0,127.0,116.0,89.0,-101.0
127.0,127.0,127.0,128.0,126.0,128.0,107.0,128.0,33.0,-107.0,-65.0,127.0,127.0,127.0,116.0,89.0,-101.0
127.0,127.0,127.0,128.0,126.0,128.0,107.0,128.0,33.0,-107.0,-65.0,127.0,127.0,127.0,116.0,89.0,-101.0
127.0,128.0,127.0,128.0,126.0,127.0,107.0,128.0,33.0,-107.0,-65.0,127.0,127.0,127.0,116.0,89.0,-101.0
127.0,128.0,127.0,128.0,127.0,128.0,106.0,128.0,33.0,-107.0,-65.0,127.0,127.0,127.0,116.0,89.0,-101.0
127.0,128.0,127.0,128.0,127.0,128.0,106.0,128.0,33.0,-107.0,-65.0,127.0,127.0,127.0,116.0,89.0,-101.0
127.0,128.0,127.0,128.0,127.0,128.0,107.0,128.0,33.0,-107.0,-65.0,127.0,127.0,127.0,116.0,89.0,-101.0
127.0,127.0,127.0,127.0,126.0,127.0,106.0,128.0,33.0,-107.0,-65.0,127.0,127.0,127.0,116.0,89.0,-101.0
127.0,127.0,127.0,128.0,126.0,127.0,107.0,128.0,33.0,-107.0,-65.0,127.0,127.0,127.0,116.0,89.0,-101.0
126.0,127.0,127.0,127.0,127.0,127.0,107.0,128.0,32.0,-107.0,-65.0,127.0,127.0,127.0,116.0,89.0,-101.0
126.0,128.0,127.0,127.0,127.0,127.0,106.0,128.0,32.0,-107.0,-65.0,127.0,127.0,127.0,116.0,89.0,-101.0
126.0,128.0,127.0,128.0,127.0,127.0,106.0,128.0,32.0,-107.0,-65.0,127.0,127.0,127.0,116.0,89.0,-101.0
126.0,128.0,127.0,128.0,127.0,127.0,107.0,128.0,32.0,-107.0,-65.0,127.0,127.0,127.0,116.0,89.0,-101.0
126.0,128.0,127.0,128.0,127.0,127.0,107.0,128.0,32.0,-107.0,-65.0,127.0,127.0,127.0,116.0,89.0,-101.0
126.0,128.0,127.0,128.0,127.0,127.0,106.0,128.0,32.0,-107.0,-65.0,127.0,127.0,127.0,116.0,89.0,-101.0
126.0,128.0,127.0,128.0,127.0,128.0,106.0,128.0,32.0,-107.0,-65.0,127.0,127.0,127.0,116.0,89.0,-101.0
126.0,127.0,127.0,127.0,126.0,127.0,108.0,127.0,32.0,-107.0,-65.0,127.0,127.0,127.0,116.0,89.0,-101.0
126.0,127.0,127.0,127.0,126.0,127.0,107.0,127.0,32.0,-107.0,-65.0,127.0,127.0,127.0,116.0,89.0,-101.0
126.0,127.0,127.0,127.0,127.0,127.0,106.0,128.0,32.0,-107.0,-65.0,127.0,127.0,127.0,116.0,89.0,-101.0
126.0,127.0,127.0,127.0,127.0,127.0,113.0,127.0,31.0,-107.0,-65.0,127.0,127.0,127.0,116.0,89.0,-101.0
126.0,128.0,127.0,127.0,127.0,127.0,113.0,128.0,31.0,-107.0,-65.0,127.0,127.0,127.0,116.0,89.0,-101.0
126.0,127.0,127.0,127.0,127.0,127.0,113.0,127.0,31.0,-107.0,-65.0,127.0,127.0,127.0,116.0,89.0,-101.0
126.0,128.0,127.0,127.0,127.0,127.0,113.0,127.0,31.0,-107.0,-65.0,127.0,127.0,127.0,116.0,89.0,-101.0
126.0,128.0,127.0,127.0,127.0,127.0,113.0,127.0,31.0,-107.0,-65.0,127.0,127.0,127.0,116.0,89.0,-101.0
126.0,128.0,127.0,127.0,127.0,127.0,112.0,128.0,31.0,-107.0,-65.0,127.0,127.0,127.0,116.0,89.0,-101.0
126.0,127.0,127.0,127.0,126.0,127.0,113.0,127.0,31.0,-107.0,-65.0,127.0,127.0,127.0,116.0,89.0,-101.0
126.0,127.0,127.0,127.0,126.0,127.0,113.0,127.0,31.0,-107.0,-65.0,127.0,127.0,127.0,116.0,89.0,-101.0
126.0,127.0,127.0,127.0,126.0,127.0,113.0,127.0,31.0,-107.0,-65.0,127.0,127.0,127.0,116.0,89.0,-101.0
126.0,127.0,127.0,127.0,126.0,127.0,113.0,127.0,31.0,-107.0,-65.0,127.0,127.0,127.0,116.0,89.0,-101.0
127.0,127.0,127.0,127.0,127.0,127.0,113.0,128.0,30.0,-107.0,-66.0,127.0,127.0,127.0,116.0,89.0,-101.0
127.0,127.0,127.0,127.0,127.0,127.0,112.0,128.0,30.0,-107.0,-66.0,127.0,127.0,127.0,116.0,89.0,-101.0
127.0,128.0,127.0,127.0,127.0,127.0,113.0,128.0,30.0,-107.0,-66.0,127.0,127.0,127.0,116.0,89.0,-101.0
127.0,128.0,127.0,128.0,127.0,127.0,113.0,128.0,30.0,-107.0,-66.0,127.0,127.0,127.0,116.0,89.0,-101.0
127.0,128.0,127.0,128.0,127.0,127.0,113.0,128.0,30.0,-107.0,-66.0,127.0,127.0,127.0,116.0,89.0,-101.0
127.0,127.0,127.0,127.0,126.0,127.0,112.0,128.0,30.0,-107.0,-66.0,127.0,127.0,127.0,116.0,89.0,-101.0
127.0,127.0,127.0,127.0,126.0,127.0,112.0,128.0,30.0,-107.0,-66.0,127.0,127.0,127.0,116.0,89.0,-101.0
127.0,127.0,127.0,127.0,126.0,127.0,113.0,128.0,30.0,-107.0,-66.0,127.0,127.0,127.0,116.0,89.0,-101.0
127.0,127.0,127.0,127.0,127.0,127.0,112.0,128.0,30.0,-107.0,-66.0,127.0,127.0,127.0,116.0,89.0,-101.0
127.0,127.0,127.0,127.0,127.0,127.0,113.0,128.0,30.0,-107.0,-66.0,127.0,127.0,127.0,116.0,89.0,-101.0
127.0,128.0,127.0,127.0,127.0,127.0,112.0,128.0,29.0,-107.0,-66.0,127.0,127.0,127.0,116.0,89.0,-101.0
127.0,128.0,127.0,128.0,127.0,127.0,112.0,128.0,29.0,-107.0,-66.0,127.0,127.0,127.0,116.0,89.0,-101.0
127.0,128.0,127.0,128.0,127.0,127.0,112.0,128.0,29.0,-107.0,-66.0,127.0,127.0,127.0,116.0,89.0,-101.0
127.0,128.0,127.0,128.0,127.0,127.0,112.0,128.0,29.0,-107.0,-66.0,127.0,127.0,127.0,116.0,89.0,-101.0
127.0,127.0,127.0,127.0,126.0,126.0,112.0,127.0,29.0,-107.0,-66.0,127.0,127.0,127.0,116.0,89.0,-101.0
127.0,127.0,127.0,127.0,127.0,126.0,112.0,127.0,29.0,-107.0,-66.0,127.0,127.0,127.0,116.0,89.0,-101.0
127.0,127.0,127.0,127.0,127.0,126.0,112.0,127.0,29.0,-107.0,-66.0,127.0,127.0,127.0,116.0,89.0,-101.0
127.0,127.0,127.0,127.0,127.0,126.0,112.0,128.0,29.0,-107.0,-66.0,127.0,127.0,127.0,116.0,89.0,-101.0
127.0,127.0,127.0,127.0,127.0,126.0,113.0,128.0,29.0,-107.0,-66.0,127.0,127.0,127.0,116.0,89.0,-101.0
127.0,128.0,127.0,127.0,127.0,126.0,112.0,128.0,29.0,-107.0,-66.0,127.0,127.0,127.0,116.0,89.0,-101.0
126.0,128.0,127.0,127.0,127.0,127.0,112.0,127.0,28.0,-107.0,-67.0,127.0,127.0,127.0,116.0,89.0,-101.0
126.0,128.0,127.0,128.0,127.0,127.0,112.0,127.0,28.0,-107.0,-67.0,127.0,127.0,127.0,116.0,89.0,-101.0
126.0,128.0,127.0,128.0,127.0,127.0,112.0,128.0,28.0,-107.0,-67.0,127.0,127.0,127.0,116.0,89.0,-101.0
126.0,127.0,127.0,126.0,127.0,126.0,112.0,127.0,28.0,-107.0,-67.0,127.0,127.0,127.0,116.0,89.0,-101.0
126.0,127.0,127.0,127.0,127.0,126.0,112.0,127.0,28.0,-107.0,-67.0,127.0,127.0,127.0,116.0,89.0,-101.0
126.0,127.0,127.0,127.0,127.0,126.0,112.0,127.0,28.0,-107.0,-67.0,127.0,127.0,127.0,116.0,89.0,-101.0
126.0,127.0,127.0,127.0,127.0,126.0,112.0,127.0,28.0,-107.0,-67.0,127.0,127.0,127.0,116.0,89.0,-101.0
126.0,127.0,127.0,127.0,127.0,126.0,113.0,127.0,28.0,-107.0,-67.0,127.0,127.0,127.0,116.0,89.0,-101.0
126.0,127.0,127.0,127.0,127.0,127.0,112.0,127.0,28.0,-107.0,-67.0,127.0,127.0,127.0,116.0,89.0,-101.0
126.0,127.0,127.0,128.0,127.0,127.0,112.0,127.0,28.0,-107.0,-67.0,127.0,127.0,127.0,116.0,89.0,-101.0
126.0,128.0,127.0,128.0,127.0,127.0,109.0,128.0,27.0,-107.0,-67.0,127.0,127.0,127.0,116.0,89.0,-101.0
126.0,128.0,127.0,128.0,127.0,127.0,107.0,128.0,27.0,-107.0,-67.0,127.0,127.0,127.0,116.0,89.0,-101.0
126.0,127.0,127.0,127.0,127.0,127.0,112.0,127.0,27.0,-107.0,-67.0,127.0,127.0,127.0,116.0,89.0,-101.0
127.0,127.0,127.0,127.0,127.0,127.0,112.0,127.0,27.0,-107.0,-67.0,127.0,127.0,127.0,116.0,89.0,-101.0
126.0,127.0,127.0,127.0,127.0,127.0,113.0,128.0,27.0,-107.0,-67.0,127.0,127.0,127.0,116.0,89.0,-101.0
127.0,127.0,127.0,127.0,127.0,127.0,114.0,128.0,27.0,-107.0,-67.0,127.0,127.0,127.0,116.0,89.0,-101.0
126.0,127.0,127.0,127.0,127.0,127.0,112.0,128.0,27.0,-107.0,-67.0,127.0,127.0,127.0,116.0,89.0,-101.0
126.0,128.0,127.0,128.0,127.0,127.0,113.0,128.0,27.0,-107.0,-67.0,127.0,127.0,127.0,116.0,89.0,-101.0
126.0,127.0,127.0,128.0,127.0,127.0,113.0,128.0,27.0,-107.0,-67.0,127.0,127.0,127.0,116.0,89.0,-101.0
126.0,128.0,127.0,128.0,127.0,127.0,113.0,128.0,27.0,-107.0,-67.0,127.0,127.0,127.0,116.0,89.0,-101.0
126.0,128.0,127.0,128.0,127.0,127.0,113.0,128.0,27.0,-107.0,-67.0,127.0,127.0,127.0,116.0,89.0,-101.0
126.0,127.0,127.0,127.0,127.0,126.0,112.0,127.0,27.0,-107.0,-67.0,127.0,127.0,127.0,116.0,89.0,-101.0
126.0,127.0,127.0,127.0,127.0,126.0,112.0,127.0,27.0,-107.0,-67.0,127.0,127.0,127.0,116.0,89.0,-101.0
126.0,127.0,127.0,127.0,127.0,127.0,112.0,127.0,27.0,-107.0,-67.0,127.0,127.0,127.0,116.0,89.0,-101.0
126.0,127.0,127.0,127.0,127.0,127.0,112.0,127.0,27.0,-107.0,-67.0,127.0,127.0,127.0,116.0,89.0,-101.0
126.0,127.0,127.0,127.0,127.0,126.0,112.0,127.0,27.0,-107.0,-67.0,127.0,127.0,127.0,116.0,89.0,-101.0
126.0,127.0,127.0,127.0,127.0,127.0,112.0,127.0,27.0,-107.0,-67.0,127.0,127.0,127.0,116.0,89.0,-101.0
126.0,128.0,127.0,128.0,127.0,127.0,113.0,127.0,27.0,-107.0,-67.0,127.0,127.0,127.0,116.0,89.0,-101.0
126.0,128.0,127.0,128.0,127.0,127.0,113.0,127.0,27.0,-107.0,-67.0,127.0,127.0,127.0,116.0,89.0,-101.0
126.0,128.0,127.0,128.0,127.0,127.0,112.0,128.0,27.0,-107.0,-67.0,127.0,127.0,127.0,116.0,89.0,-101.0
126.0,127.0,127.0,127.0,127.0,126.0,111.0,127.0,26.0,-107.0,-68.0,127.0,127.0,127.0,116.0,89.0,-101.0
126.0,127.0,127.0,127.0,127.0,126.0,111.0,127.0,26.0,-107.0,-68.0,127.0,127.0,127.0,116.0,89.0,-101.0
126.0,127.0,127.0,127.0,127.0,126.0,112.0,128.0,26.0,-107.0,-68.0,127.0,127.0,127.0,116.0,89.0,-101.0
126.0,127.0,127.0,127.0,127.0,126.0,112.0,128.0,26.0,-107.0,-68.0,127.0,127.0,127.0,116.0,89.0,-101.0
126.0,127.0,127.0,127.0,127.0,126.0,112.0,127.0,26.0,-107.0,-68.0,127.0,127.0,127.0,116.0,89.0,-101.0
126.0,127.0,127.0,127.0,127.0,126.0,112.0,128.0,26.0,-107.0,-68.0,127.0,127.0,127.0,116.0,89.0,-101.0
126.0,127.0,127.0,128.0,127.0,126.0,112.0,128.0,26.0,-107.0,-68.0,127.0,127.0,127.0,116.0,89.0,-101.0
126.0,128.0,127.0,128.0,127.0,126.0,113.0,128.0,26.0,-107.0,-68.0,127.0,127.0,127.0,116.0,89.0,-101.0
126.0,128.0,127.0,128.0,128.0,126.0,113.0,128.0,26.0,-107.0,-68.0,127.0,127.0,127.0,116.0,89.0,-101.0
126.0,128.0,127.0,128.0,128.0,126.0,113.0,128.0,26.0,-107.0,-68.0,127.0,127.0,127.0,116.0,89.0,-101.0
126.0,127.0,127.0,127.0,127.0,126.0,112.0,127.0,26.0,-107.0,-68.0,127.0,127.0,127.0,116.0,89.0,-101.0
126.0,127.0,127.0,127.0,127.0,126.0,111.0,127.0,26.0,-107.0,-68.0,127.0,127.0,127.0,116.0,89.0,-101.0
126.0,127.0,127.0,127.0,127.0,126.0,111.0,127.0,26.0,-107.0,-68.0,127.0,127.0,127.0,116.0,89.0,-101.0
126.0,127.0,127.0,127.0,127.0,126.0,111.0,127.0,26.0,-107.0,-68.0,127.0,127.0,127.0,116.0,89.0,-101.0
126.0,128.0,127.0,127.0,127.0,126.0,112.0,128.0,26.0,-107.0,-68.0,127.0,127.0,127.0,116.0,89.0,-101.0
126.0,128.0,127.0,128.0,127.0,126.0,111.0,127.0,26.0,-107.0,-68.0,127.0,127.0,127.0,116.0,89.0,-101.0
126.0,128.0,127.0,128.0,127.0,126.0,111.0,128.0,26.0,-107.0,-68.0,127.0,127.0,127.0,116.0,89.0,-101.0
126.0,128.0,127.0,128.0,127.0,126.0,112.0,128.0,26.0,-107.0,-68.0,127.0,127.0,127.0,116.0,89.0,-101.0
126.0,128.0,127.0,128.0,127.0,126.0,112.0,128.0,26.0,-107.0,-68.0,127.0,127.0,127.0,116.0,89.0,-101.0
126.0,127.0,127.0,127.0,127.0,126.0,111.0,127.0,26.0,-107.0,-68.0,127.0,127.0,127.0,116.0,89.0,-101.0
126.0,127.0,127.0,127.0,127.0,126.0,111.0,128.0,25.0,-106.0,-68.0,127.0,127.0,127.0,116.0,89.0,-101.0
126.0,127.0,126.0,127.0,127.0,126.0,111.0,127.0,25.0,-106.0,-68.0,127.0,127.0,127.0,116.0,89.0,-101.0
126.0,127.0,126.0,127.0,127.0,126.0,111.0,127.0,25.0,-106.0,-68.0,127.0,127.0,127.0,116.0,89.0,-101.0
126.0,127.0,126.0,127.0,127.0,126.0,112.0,127.0,25.0,-106.0,-68.0,127.0,127.0,127.0,116.0,89.0,-101.0
126.0,127.0,126.0,127.0,127.0,126.0,111.0,128.0,25.0,-106.0,-68.0,127.0,127.0,127.0,116.0,89.0,-101.0
126.0,127.0,126.0,127.0,127.0,126.0,111.0,128.0,25.0,-106.0,-68.0,127.0,127.0,127.0,116.0,89.0,-101.0
126.0,128.0,126.0,127.0,127.0,126.0,112.0,128.0,25.0,-106.0,-68.0,127.0,127.0,127.0,116.0,89.0,-101.0
126.0,128.0,126.0,128.0,128.0,126.0,111.0,128.0,25.0,-106.0,-68.0,127.0,127.0,127.0,116.0,89.0,-101.0
126.0,127.0,127.0,126.0,127.0,126.0,111.0,127.0,25.0,-106.0,-68.0,127.0,127.0,127.0,116.0,89.0,-101.0
126.0,127.0,127.0,126.0,127.0,126.0,112.0,127.0,25.0,-106.0,-68.0,127.0,127.0,127.0,116.0,89.0,-101.0
126.0,127.0,127.0,127.0,127.0,126.0,112.0,127.0,25.0,-106.0,-68.0,127.0,127.0,127.0,116.0,89.0,-101.0
126.0,127.0,127.0,127.0,127.0,126.0,111.0,128.0,25.0,-106.0,-68.0,127.0,127.0,127.0,116.0,89.0,-101.0
126.0,127.0,127.0,127.0,127.0,126.0,112.0,128.0,25.0,-106.0,-68.0,127.0,127.0,127.0,116.0,89.0,-101.0
126.0,127.0,127.0,127.0,127.0,126.0,112.0,128.0,25.0,-106.0,-68.0,127.0,127.0,127.0,116.0,89.0,-101.0
126.0,128.0,127.0,127.0,127.0,126.0,112.0,128.0,25.0,-106.0,-68.0,127.0,127.0,127.0,116.0,89.0,-101.0
126.0,128.0,127.0,127.0,127.0,126.0,112.0,128.0,25.0,-106.0,-68.0,127.0,127.0,127.0,116.0,89.0,-101.0
126.0,128.0,127.0,128.0,127.0,126.0,112.0,128.0,25.0,-106.0,-68.0,127.0,127.0,127.0,116.0,89.0,-101.0
126.0,127.0,127.0,127.0,127.0,126.0,112.0,127.0,25.0,-106.0,-68.0,127.0,127.0,127.0,116.0,89.0,-101.0
126.0,127.0,127.0,127.0,127.0,126.0,111.0,127.0,25.0,-106.0,-68.0,127.0,127.0,127.0,116.0,89.0,-101.0
126.0,127.0,127.0,127.0,127.0,126.0,112.0,127.0,25.0,-106.0,-68.0,127.0,127.0,127.0,116.0,89.0,-101.0
126.0,127.0,127.0,127.0,127.0,126.0,112.0,127.0,25.0,-106.0,-68.0,127.0,127.0,127.0,116.0,89.0,-101.0
126.0,127.0,127.0,127.0,127.0,126.0,111.0,127.0,25.0,-106.0,-68.0,127.0,127.0,127.0,116.0,89.0,-101.0
126.0,127.0,127.0,127.0,127.0,126.0,112.0,127.0,25.0,-106.0,-68.0,127.0,127.0,127.0,116.0,89.0,-101.0
126.0,127.0,127.0,128.0,127.0,126.0,112.0,128.0,25.0,-106.0,-68.0,127.0,127.0,127.0,116.0,89.0,-101.0
126.0,127.0,127.0,128.0,127.0,126.0,112.0,128.0,25.0,-106.0,-68.0,127.0,127.0,127.0,116.0,89.0,-101.0
126.0,127.0,127.0,128.0,127.0,126.0,113.0,128.0,25.0,-106.0,-68.0,127.0,127.0,127.0,116.0,89.0,-101.0
126.0,127.0,127.0,126.0,127.0,126.0,111.0,127.0,25.0,-106.0,-68.0,127.0,127.0,127.0,116.0,89.0,-101.0
126.0,127.0,127.0,126.0,127.0,126.0,110.0,127.0,25.0,-106.0,-68.0,127.0,127.0,127.0,116.0,89.0,-101.0
126.0,127.0,127.0,127.0,127.0,126.0,111.0,127.0,25.0,-106.0,-68.0,127.0,127.0,127.0,116.0,89.0,-101.0
126.0,127.0,127.0,127.0,127.0,126.0,111.0,127.0,25.0,-106.0,-68.0,127.0,127.0,127.0,116.0,89.0,-101.0
126.0,127.0,128.0,128.0,128.0,126.0,111.0,128.0,25.0,-106.0,-69.0,127.0,127.0,127.0,116.0,89.0,-101.0
126.0,128.0,128.0,128.0,128.0,126.0,112.0,128.0,25.0,-106.0,-69.0,127.0,127.0,127.0,116.0,89.0,-101.0
126.0,128.0,128.0,128.0,128.0,126.0,112.0,128.0,25.0,-106.0,-69.0,127.0,127.0,127.0,116.0,89.0,-101.0
126.0,128.0,128.0,128.0,128.0,126.0,113.0,128.0,25.0,-106.0,-69.0,127.0,127.0,127.0,116.0,89.0,-101.0
126.0,128.0,128.0,128.0,127.0,127.0,112.0,128.0,25.0,-106.0,-69.0,127.0,127.0,127.0,116.0,89.0,-101.0
126.0,127.0,127.0,127.0,127.0,126.0,111.0,128.0,25.0,-106.0,-69.0,127.0,127.0,127.0,116.0,89.0,-101.0
126.0,127.0,127.0,127.0,127.0,126.0,111.0,128.0,25.0,-106.0,-69.0,127.0,127.0,127.0,116.0,89.0,-101.0
126.0,127.0,127.0,127.0,127.0,126.0,111.0,128.0,25.0,-106.0,-69.0,127.0,127.0,127.0,116.0,89.0,-101.0
126.0,127.0,127.0,127.0,127.0,126.0,112.0,128.0,25.0,-106.0,-69.0,127.0,127.0,127.0,116.0,89.0,-101.0
126.0,127.0,127.0,127.0,128.0,126.0,112.0,128.0,25.0,-106.0,-69.0,127.0,127.0,127.0,116.0,89.0,-101.0
126.0,127.0,127.0,127.0,127.0,126.0,111.0,128.0,25.0,-106.0,-69.0,127.0,127.0,127.0,116.0,89.0,-101.0
126.0,127.0,127.0,128.0,127.0,126.0,112.0,128.0,25.0,-106.0,-69.0,127.0,127.0,127.0,116.0,89.0,-101.0
126.0,127.0,127.0,128.0,127.0,126.0,112.0,128.0,25.0,-106.0,-69.0,127.0,127.0,127.0,116.0,89.0,-101.0
126.0,127.0,127.0,128.0,127.0,126.0,113.0,128.0,25.0,-106.0,-69.0,127.0,127.0,127.0,116.0,89.0,-101.0
126.0,127.0,127.0,126.0,127.0,126.0,111.0,128.0,25.0,-106.0,-69.0,127.0,127.0,127.0,116.0,89.0,-101.0
126.0,127.0,127.0,127.0,127.0,126.0,111.0,128.0,25.0,-106.0,-69.0,127.0,127.0,127.0,116.0,89.0,-101.0
126.0,127.0,127.0,127.0,127.0,126.0,111.0,128.0,25.0,-106.0,-69.0,127.0,127.0,127.0,116.0,89.0,-101.0
126.0,127.0,127.0,127.0,127.0,126.0,111.0,128.0,25.0,-106.0,-69.0,127.0,127.0,127.0,116.0,89.0,-101.0
126.0,127.0,127.0,127.0,127.0,126.0,112.0,128.0,25.0,-106.0,-69.0,127.0,127.0,127.0,116.0,89.0,-101.0
126.0,127.0,127.0,127.0,127.0,126.0,111.0,128.0,25.0,-106.0,-69.0,127.0,127.0,127.0,116.0,89.0,-101.0
126.0,128.0,127.0,128.0,127.0,126.0,112.0,128.0,26.0,-106.0,-69.0,127.0,127.0,127.0,116.0,89.0,-101.0
126.0,128.0,127.0,128.0,128.0,126.0,112.0,128.0,26.0,-106.0,-69.0,127.0,127.0,127.0,116.0,89.0,-101.0
126.0,128.0,127.0,128.0,127.0,126.0,113.0,128.0,26.0,-106.0,-69.0,127.0,127.0,127.0,116.0,89.0,-101.0
126.0,127.0,127.0,126.0,127.0,126.0,111.0,128.0,26.0,-106.0,-69.0,127.0,127.0,127.0,116.0,89.0,-101.0
126.0,127.0,127.0,126.0,127.0,126.0,111.0,128.0,26.0,-106.0,-69.0,127.0,127.0,127.0,116.0,89.0,-101.0
126.0,127.0,127.0,127.0,127.0,126.0,111.0,128.0,26.0,-106.0,-69.0,127.0,127.0,127.0,116.0,89.0,-101.0
126.0,127.0,127.0,127.0,127.0,126.0,111.0,128.0,26.0,-106.0,-69.0,127.0,127.0,127.0,116.0,89.0,-101.0
126.0,127.0,127.0,127.0,127.0,126.0,112.0,128.0,26.0,-106.0,-69.0,127.0,127.0,127.0,116.0,89.0,-101.0
126.0,127.0,127.0,127.0,127.0,126.0,111.0,128.0,26.0,-106.0,-69.0,127.0,127.0,127.0,116.0,89.0,-101.0
126.0,127.0,127.0,127.0,127.0,126.0,111.0,128.0,26.0,-106.0,-69.0,127.0,127.0,127.0,116.0,89.0,-101.0
126.0,127.0,127.0,127.0,127.0,127.0,112.0,128.0,27.0,-107.0,-69.0,127.0,127.0,127.0,116.0,89.0,-101.0
126.0,127.0,127.0,127.0,127.0,127.0,112.0,128.0,27.0,-107.0,-69.0,127.0,127.0,127.0,116.0,89.0,-101.0
126.0,127.0,127.0,126.0,127.0,126.0,112.0,128.0,27.0,-107.0,-69.0,127.0,127.0,127.0,116.0,89.0,-101.0
126.0,127.0,127.0,126.0,127.0,126.0,112.0,128.0,27.0,-107.0,-69.0,127.0,127.0,127.0,116.0,89.0,-101.0
126.0,127.0,127.0,126.0,127.0,126.0,111.0,128.0,27.0,-107.0,-69.0,127.0,127.0,127.0,116.0,89.0,-101.0
126.0,127.0,127.0,126.0,127.0,126.0,111.0,128.0,27.0,-107.0,-69.0,127.0,127.0,127.0,116.0,89.0,-101.0
126.0,127.0,127.0,126.0,127.0,126.0,112.0,128.0,27.0,-107.0,-69.0,127.0,127.0,127.0,116.0,89.0,-101.0
126.0,127.0,127.0,126.0,127.0,126.0,112.0,128.0,27.0,-107.0,-69.0,127.0,127.0,127.0,116.0,89.0,-101.0
126.0,127.0,127.0,126.0,127.0,126.0,112.0,128.0,27.0,-107.0,-69.0,127.0,127.0,127.0,116.0,89.0,-101.0
126.0,127.0,127.0,126.0,127.0,126.0,112.0,128.0,27.0,-107.0,-69.0,127.0,127.0,127.0,116.0,89.0,-101.0
126.0,127.0,127.0,128.0,127.0,127.0,113.0,128.0,28.0,-107.0,-69.0,127.0,127.0,127.0,116.0,89.0,-101.0
126.0,127.0,127.0,126.0,127.0,126.0,111.0,127.0,28.0,-107.0,-69.0,127.0,127.0,127.0,116.0,89.0,-101.0
126.0,127.0,127.0,127.0,127.0,126.0,111.0,127.0,28.0,-107.0,-69.0,127.0,127.0,127.0,116.0,89.0,-101.0
126.0,127.0,127.0,127.0,127.0,126.0,111.0,127.0,28.0,-107.0,-69.0,127.0,127.0,127.0,116.0,89.0,-101.0
126.0,127.0,127.0,127.0,127.0,126.0,112.0,127.0,28.0,-107.0,-69.0,127.0,127.0,127.0,116.0,89.0,-101.0
126.0,127.0,127.0,127.0,127.0,126.0,112.0,127.0,28.0,-107.0,-69.0,127.0,127.0,127.0,116.0,89.0,-101.0
126.0,127.0,127.0,127.0,127.0,126.0,112.0,127.0,28.0,-107.0,-69.0,127.0,127.0,127.0,116.0,89.0,-101.0
126.0,127.0,127.0,127.0,127.0,127.0,112.0,128.0,28.0,-107.0,-69.0,127.0,127.0,127.0,116.0,89.0,-101.0
126.0,127.0,127.0,127.0,127.0,127.0,112.0,127.0,28.0,-107.0,-69.0,127.0,127.0,127.0,116.0,89.0,-101.0
126.0,127.0,127.0,128.0,127.0,127.0,113.0,128.0,28.0,-107.0,-69.0,127.0,127.0,127.0,116.0,89.0,-101.0
126.0,126.0,127.0,126.0,127.0,126.0,112.0,127.0,30.0,-108.0,-68.0,127.0,127.0,127.0,116.0,89.0,-101.0
126.0,127.0,127.0,126.0,127.0,126.0,112.0,127.0,30.0,-108.0,-68.0,127.0,127.0,127.0,116.0,89.0,-101.0
126.0,127.0,127.0,126.0,127.0,126.0,113.0,127.0,30.0,-108.0,-68.0,127.0,127.0,127.0,116.0,89.0,-101.0
126.0,127.0,127.0,126.0,127.0,126.0,112.0,127.0,30.0,-108.0,-68.0,127.0,127.0,127.0,116.0,89.0,-101.0
126.0,127.0,127.0,127.0,127.0,126.0,112.0,127.0,30.0,-108.0,-68.0,127.0,127.0,127.0,116.0,89.0,-101.0
126.0,127.0,127.0,127.0,127.0,127.0,112.0,127.0,30.0,-108.0,-68.0,127.0,127.0,127.0,116.0,89.0,-101.0
126.0,127.0,127.0,127.0,127.0,127.0,112.0,127.0,30.0,-108.0,-68.0,127.0,127.0,127.0,116.0,89.0,-101.0
126.0,127.0,127.0,127.0,127.0,127.0,113.0,127.0,30.0,-108.0,-68.0,127.0,127.0,127.0,116.0,89.0,-101.0
126.0,127.0,127.0,127.0,127.0,127.0,113.0,127.0,30.0,-108.0,-68.0,127.0,127.0,127.0,116.0,89.0,-101.0
126.0,127.0,127.0,127.0,127.0,127.0,108.0,127.0,30.0,-108.0,-68.0,127.0,127.0,127.0,116.0,89.0,-101.0
126.0,126.0,127.0,127.0,126.0,127.0,113.0,127.0,30.0,-108.0,-68.0,127.0,127.0,127.0,116.0,89.0,-101.0
126.0,127.0,127.0,127.0,126.0,127.0,113.0,127.0,30.0,-108.0,-68.0,127.0,127.0,127.0,116.0,89.0,-101.0
126.0,127.0,127.0,127.0,126.0,127.0,113.0,127.0,30.0,-108.0,-68.0,127.0,127.0,127.0,116.0,89.0,-101.0
126.0,127.0,127.0,127.0,127.0,127.0,113.0,127.0,30.0,-108.0,-68.0,127.0,127.0,127.0,116.0,89.0,-101.0
126.0,127.0,127.0,127.0,127.0,127.0,108.0,128.0,30.0,-108.0,-68.0,127.0,127.0,127.0,116.0,89.0,-101.0
126.0,127.0,127.0,127.0,127.0,127.0,108.0,127.0,30.0,-108.0,-68.0,127.0,127.0,127.0,116.0,89.0,-101.0
126.0,127.0,127.0,127.0,127.0,127.0,111.0,128.0,30.0,-108.0,-68.0,127.0,127.0,127.0,116.0,89.0,-101.0
126.0,127.0,127.0,128.0,127.0,127.0,108.0,128.0,30.0,-108.0,-68.0,127.0,127.0,127.0,116.0,89.0,-101.0
126.0,127.0,127.0,128.0,127.0,127.0,106.0,128.0,30.0,-108.0,-68.0,127.0,127.0,127.0,116.0,89.0,-101.0
126.0,126.0,127.0,127.0,126.0,127.0,112.0,127.0,30.0,-108.0,-68.0,127.0,127.0,127.0,116.0,89.0,-101.0
126.0,127.0,127.0,126.0,127.0,127.0,112.0,127.0,31.0,-109.0,-68.0,127.0,127.0,127.0,116.0,89.0,-101.0
126.0,127.0,127.0,126.0,127.0,127.0,112.0,128.0,31.0,-109.0,-68.0,127.0,127.0,127.0,116.0,89.0,-101.0
126.0,127.0,127.0,127.0,127.0,127.0,112.0,128.0,31.0,-109.0,-68.0,127.0,127.0,127.0,116.0,89.0,-101.0
126.0,127.0,127.0,127.0,127.0,127.0,113.0,128.0,31.0,-109.0,-68.0,127.0,127.0,127.0,116.0,89.0,-101.0
126.0,127.0,127.0,127.0,127.0,127.0,110.0,128.0,31.0,-109.0,-68.0,127.0,127.0,127.0,116.0,89.0,-101.0
126.0,127.0,127.0,127.0,127.0,127.0,107.0,128.0,31.0,-109.0,-68.0,127.0,127.0,127.0,116.0,89.0,-101.0
126.0,127.0,126.0,127.0,127.0,127.0,106.0,128.0,31.0,-109.0,-68.0,127.0,127.0,127.0,116.0,89.0,-101.0
126.0,127.0,126.0,127.0,127.0,127.0,107.0,128.0,31.0,-109.0,-68.0,127.0,127.0,127.0,116.0,89.0,-101.0
126.0,127.0,127.0,126.0,126.0,126.0,112.0,127.0,31.0,-109.0,-68.0,127.0,127.0,127.0,116.0,89.0,-101.0
126.0,127.0,127.0,126.0,127.0,127.0,112.0,127.0,31.0,-109.0,-68.0,127.0,127.0,127.0,116.0,89.0,-101.0
126.0,127.0,127.0,126.0,127.0,127.0,109.0,127.0,30.0,-109.0,-68.0,127.0,127.0,127.0,116.0,89.0,-101.0
127.0,127.0,127.0,126.0,127.0,127.0,106.0,128.0,30.0,-109.0,-68.0,127.0,127.0,127.0,116.0,89.0,-101.0
126.0,127.0,127.0,126.0,127.0,127.0,107.0,127.0,30.0,-109.0,-68.0,127.0,127.0,127.0,116.0,89.0,-101.0
127.0,127.0,127.0,127.0,127.0,127.0,107.0,128.0,30.0,-109.0,-68.0,127.0,127.0,127.0,116.0,89.0,-101.0
126.0,127.0,127.0,127.0,127.0,127.0,106.0,128.0,30.0,-109.0,-68.0,127.0,127.0,127.0,116.0,89.0,-101.0
126.0,127.0,127.0,127.0,127.0,128.0,106.0,128.0,30.0,-109.0,-68.0,127.0,127.0,127.0,116.0,89.0,-101.0
126.0,127.0,127.0,127.0,127.0,128.0,107.0,128.0,30.0,-109.0,-68.0,127.0,127.0,127.0,116.0,89.0,-101.0
126.0,126.0,127.0,126.0,126.0,127.0,112.0,127.0,30.0,-109.0,-68.0,127.0,127.0,127.0,116.0,89.0,-101.0
127.0,127.0,127.0,126.0,127.0,127.0,113.0,127.0,30.0,-109.0,-68.0,127.0,127.0,127.0,116.0,89.0,-101.0
126.0,127.0,127.0,126.0,127.0,127.0,113.0,127.0,30.0,-109.0,-68.0,127.0,127.0,127.0,116.0,89.0,-101.0
127.0,127.0,127.0,126.0,127.0,127.0,108.0,127.0,29.0,-109.0,-68.0,127.0,127.0,127.0,116.0,89.0,-101.0
127.0,127.0,127.0,127.0,127.0,127.0,106.0,128.0,29.0,-109.0,-68.0,127.0,127.0,127.0,116.0,89.0,-101.0
126.0,127.0,127.0,127.0,127.0,127.0,106.0,128.0,29.0,-109.0,-68.0,127.0,127.0,127.0,116.0,89.0,-101.0
126.0,127.0,127.0,127.0,127.0,127.0,106.0,128.0,29.0,-109.0,-68.0,127.0,127.0,127.0,116.0,89.0,-101.0
127.0,127.0,127.0,127.0,127.0,127.0,106.0,128.0,29.0,-109.0,-68.0,127.0,127.0,127.0,116.0,89.0,-101.0
126.0,127.0,127.0,127.0,127.0,128.0,106.0,128.0,29.0,-109.0,-68.0,127.0,127.0,127.0,116.0,89.0,-101.0
127.0,126.0,127.0,126.0,126.0,127.0,108.0,127.0,29.0,-109.0,-68.0,127.0,127.0,127.0,116.0,89.0,-101.0
127.0,127.0,127.0,126.0,127.0,127.0,110.0,127.0,29.0,-109.0,-68.0,127.0,127.0,127.0,116.0,89.0,-101.0
127.0,127.0,127.0,126.0,127.0,127.0,108.0,127.0,29.0,-109.0,-68.0,127.0,127.0,127.0,116.0,89.0,-101.0
127.0,127.0,127.0,126.0,127.0,127.0,106.0,127.0,29.0,-109.0,-68.0,127.0,127.0,127.0,116.0,89.0,-101.0
127.0,127.0,127.0,127.0,126.0,127.0,113.0,128.0,28.0,-108.0,-69.0,127.0,127.0,127.0,116.0,89.0,-101.0
127.0,127.0,127.0,127.0,126.0,127.0,112.0,128.0,28.0,-108.0,-69.0,127.0,127.0,127.0,116.0,89.0,-101.0
127.0,127.0,127.0,127.0,126.0,127.0,107.0,128.0,28.0,-108.0,-69.0,127.0,127.0,127.0,116.0,89.0,-101.0
126.0,127.0,127.0,127.0,127.0,127.0,106.0,128.0,28.0,-108.0,-69.0,127.0,127.0,127.0,116.0,89.0,-101.0
127.0,127.0,127.0,127.0,127.0,127.0,106.0,128.0,28.0,-108.0,-69.0,127.0,127.0,127.0,116.0,89.0,-101.0
127.0,126.0,127.0,126.0,126.0,126.0,112.0,127.0,28.0,-108.0,-69.0,127.0,127.0,127.0,116.0,89.0,-101.0
126.0,126.0,127.0,126.0,126.0,127.0,112.0,127.0,28.0,-108.0,-69.0,127.0,127.0,127.0,116.0,89.0,-101.0
127.0,127.0,127.0,126.0,126.0,127.0,112.0,127.0,28.0,-108.0,-69.0,127.0,127.0,127.0,116.0,89.0,-101.0
127.0,127.0,127.0,126.0,126.0,127.0,112.0,128.0,28.0,-108.0,-69.0,127.0,127.0,127.0,116.0,89.0,-101.0
127.0,127.0,127.0,126.0,126.0,127.0,113.0,128.0,28.0,-108.0,-69.0,127.0,127.0,127.0,116.0,89.0,-101.0
127.0,127.0,127.0,127.0,126.0,127.0,112.0,128.0,28.0,-108.0,-69.0,127.0,127.0,127.0,116.0,89.0,-101.0
127.0,127.0,127.0,127.0,126.0,127.0,112.0,128.0,28.0,-108.0,-69.0,127.0,127.0,127.0,116.0,89.0,-101.0
127.0,127.0,127.0,128.0,126.0,127.0,112.0,128.0,28.0,-108.0,-69.0,127.0,127.0,127.0,116.0,89.0,-101.0
127.0,127.0,127.0,128.0,127.0,127.0,113.0,128.0,28.0,-108.0,-69.0,127.0,127.0,127.0,116.0,89.0,-101.0
127.0,127.0,127.0,126.0,126.0,126.0,112.0,128.0,28.0,-108.0,-69.0,127.0,127.0,127.0,116.0,89.0,-101.0
127.0,127.0,127.0,126.0,126.0,126.0,111.0,128.0,28.0,-108.0,-69.0,127.0,127.0,127.0,116.0,89.0,-101.0
127.0,127.0,127.0,126.0,126.0,126.0,111.0,128.0,28.0,-108.0,-69.0,127.0,127.0,127.0,116.0,89.0,-101.0
127.0,127.0,127.0,127.0,126.0,126.0,112.0,128.0,28.0,-108.0,-69.0,127.0,127.0,127.0,116.0,89.0,-101.0
127.0,127.0,127.0,127.0,126.0,126.0,112.0,128.0,28.0,-108.0,-69.0,127.0,127.0,127.0,116.0,89.0,-101.0
127.0,127.0,127.0,127.0,126.0,126.0,112.0,128.0,28.0,-108.0,-69.0,127.0,127.0,127.0,116.0,89.0,-101.0
127.0,127.0,127.0,127.0,127.0,126.0,112.0,128.0,27.0,-107.0,-69.0,127.0,127.0,127.0,116.0,89.0,-101.0
127.0,127.0,127.0,127.0,127.0,127.0,112.0,128.0,27.0,-107.0,-69.0,127.0,127.0,127.0,116.0,89.0,-101.0
127.0,127.0,127.0,128.0,127.0,127.0,112.0,128.0,27.0,-107.0,-69.0,127.0,127.0,127.0,116.0,89.0,-101.0
127.0,126.0,127.0,126.0,126.0,126.0,111.0,127.0,27.0,-107.0,-69.0,127.0,127.0,127.0,116.0,89.0,-101.0
127.0,126.0,127.0,126.0,126.0,126.0,111.0,127.0,27.0,-107.0,-69.0,127.0,127.0,127.0,116.0,89.0,-101.0
127.0,127.0,127.0,126.0,126.0,126.0,112.0,127.0,27.0,-107.0,-69.0,127.0,127.0,127.0,116.0,89.0,-101.0
127.0,127.0,127.0,126.0,126.0,126.0,111.0,128.0,27.0,-107.0,-69.0,127.0,127.0,127.0,116.0,89.0,-101.0
127.0,127.0,127.0,127.0,126.0,126.0,111.0,128.0,27.0,-107.0,-69.0,127.0,127.0,127.0,116.0,89.0,-101.0
127.0,127.0,127.0,127.0,126.0,126.0,112.0,128.0,27.0,-107.0,-69.0,127.0,127.0,127.0,116.0,89.0,-101.0
127.0,127.0,127.0,127.0,126.0,126.0,112.0,128.0,27.0,-107.0,-69.0,127.0,127.0,127.0,116.0,89.0,-101.0
127.0,127.0,127.0,127.0,127.0,126.0,112.0,128.0,27.0,-106.0,-69.0,127.0,127.0,127.0,116.0,89.0,-101.0
127.0,127.0,127.0,127.0,127.0,126.0,112.0,128.0,27.0,-106.0,-69.0,127.0,127.0,127.0,116.0,89.0,-101.0
127.0,126.0,127.0,126.0,126.0,126.0,111.0,127.0,27.0,-106.0,-69.0,127.0,127.0,127.0,116.0,89.0,-101.0
127.0,126.0,127.0,126.0,126.0,126.0,111.0,127.0,27.0,-106.0,-69.0,127.0,127.0,127.0,116.0,89.0,-101.0
127.0,127.0,127.0,126.0,126.0,126.0,112.0,127.0,27.0,-106.0,-69.0,127.0,127.0,127.0,116.0,89.0,-101.0
127.0,127.0,127.0,126.0,126.0,126.0,112.0,127.0,27.0,-106.0,-69.0,127.0,127.0,127.0,116.0,89.0,-101.0
127.0,127.0,127.0,127.0,126.0,126.0,111.0,127.0,27.0,-106.0,-69.0,127.0,127.0,127.0,116.0,89.0,-101.0
127.0,127.0,127.0,127.0,126.0,126.0,111.0,128.0,27.0,-106.0,-69.0,127.0,127.0,127.0,116.0,89.0,-101.0
127.0,127.0,127.0,127.0,127.0,126.0,112.0,128.0,27.0,-106.0,-69.0,127.0,127.0,127.0,116.0,89.0,-101.0
127.0,127.0,127.0,127.0,127.0,126.0,112.0,128.0,27.0,-106.0,-69.0,127.0,127.0,127.0,116.0,89.0,-101.0
127.0,128.0,127.0,127.0,127.0,126.0,112.0,128.0,27.0,-106.0,-69.0,127.0,127.0,127.0,116.0,89.0,-101.0
127.0,126.0,127.0,126.0,126.0,126.0,111.0,128.0,27.0,-106.0,-69.0,127.0,127.0,127.0,116.0,89.0,-101.0
127.0,127.0,127.0,126.0,126.0,126.0,111.0,128.0,27.0,-106.0,-69.0,127.0,127.0,127.0,116.0,89.0,-101.0
126.0,127.0,127.0,126.0,126.0,126.0,112.0,128.0,27.0,-106.0,-69.0,127.0,127.0,127.0,116.0,89.0,-101.0
127.0,127.0,127.0,127.0,126.0,126.0,112.0,128.0,27.0,-106.0,-69.0,127.0,127.0,127.0,116.0,89.0,-101.0
127.0,127.0,127.0,127.0,126.0,126.0,111.0,128.0,27.0,-106.0,-69.0,127.0,127.0,127.0,116.0,89.0,-101.0
127.0,127.0,127.0,127.0,127.0,126.0,112.0,128.0,27.0,-106.0,-69.0,127.0,127.0,127.0,116.0,89.0,-101.0
127.0,127.0,127.0,127.0,127.0,126.0,112.0,128.0,27.0,-106.0,-69.0,127.0,127.0,127.0,116.0,89.0,-101.0
126.0,127.0,127.0,127.0,127.0,126.0,112.0,128.0,27.0,-106.0,-69.0,127.0,127.0,127.0,116.0,89.0,-101.0
126.0,127.0,127.0,127.0,127.0,126.0,112.0,128.0,27.0,-106.0,-69.0,127.0,127.0,127.0,116.0,89.0,-101.0
126.0,126.0,127.0,126.0,126.0,126.0,112.0,128.0,27.0,-106.0,-69.0,127.0,127.0,127.0,116.0,89.0,-101.0
126.0,126.0,127.0,126.0,126.0,126.0,112.0,127.0,27.0,-106.0,-69.0,127.0,127.0,127.0,116.0,89.0,-101.0
126.0,127.0,127.0,126.0,127.0,126.0,111.0,127.0,27.0,-106.0,-69.0,127.0,127.0,127.0,116.0,89.0,-101.0
126.0,127.0,127.0,126.0,127.0,126.0,111.0,128.0,27.0,-106.0,-69.0,127.0,127.0,127.0,116.0,89.0,-101.0
126.0,127.0,127.0,126.0,127.0,126.0,112.0,128.0,27.0,-106.0,-69.0,127.0,127.0,127.0,116.0,89.0,-101.0
126.0,127.0,127.0,126.0,127.0,126.0,111.0,128.0,27.0,-106.0,-69.0,127.0,127.0,127.0,116.0,89.0,-101.0
126.0,127.0,127.0,127.0,127.0,126.0,111.0,128.0,27.0,-106.0,-69.0,127.0,127.0,127.0,116.0,89.0,-101.0
126.0,127.0,127.0,127.0,127.0,126.0,112.0,128.0,27.0,-106.0,-69.0,127.0,127.0,127.0,116.0,89.0,-101.0
126.0,127.0,127.0,127.0,127.0,126.0,111.0,128.0,27.0,-106.0,-69.0,127.0,127.0,127.0,116.0,89.0,-101.0
126.0,127.0,127.0,127.0,127.0,126.0,111.0,128.0,27.0,-106.0,-69.0,127.0,127.0,127.0,116.0,89.0,-101.0
126.0,126.0,127.0,127.0,127.0,126.0,111.0,128.0,28.0,-106.0,-69.0,127.0,127.0,127.0,116.0,89.0,-101.0
126.0,127.0,127.0,127.0,127.0,126.0,111.0,127.0,28.0,-106.0,-69.0,127.0,127.0,127.0,116.0,89.0,-101.0
126.0,127.0,127.0,127.0,127.0,126.0,112.0,128.0,28.0,-106.0,-69.0,127.0,127.0,127.0,116.0,89.0,-101.0
126.0,127.0,127.0,127.0,127.0,126.0,112.0,128.0,28.0,-106.0,-69.0,127.0,127.0,127.0,116.0,89.0,-101.0
126.0,127.0,127.0,127.0,127.0,126.0,111.0,128.0,28.0,-106.0,-69.0,127.0,127.0,127.0,116.0,89.0,-101.0
126.0,127.0,127.0,127.0,127.0,126.0,112.0,128.0,28.0,-106.0,-69.0,127.0,127.0,127.0,116.0,89.0,-101.0
126.0,127.0,127.0,128.0,127.0,126.0,112.0,128.0,28.0,-106.0,-69.0,127.0,127.0,127.0,116.0,89.0,-101.0
126.0,127.0,127.0,128.0,127.0,126.0,112.0,128.0,28.0,-106.0,-69.0,127.0,127.0,127.0,116.0,89.0,-101.0
126.0,127.0,127.0,128.0,128.0,126.0,112.0,128.0,28.0,-106.0,-69.0,127.0,127.0,127.0,116.0,89.0,-101.0
126.0,126.0,127.0,127.0,126.0,126.0,111.0,128.0,28.0,-106.0,-69.0,127.0,127.0,127.0,116.0,89.0,-101.0
126.0,127.0,127.0,126.0,127.0,126.0,111.0,128.0,28.0,-106.0,-69.0,127.0,127.0,127.0,116.0,89.0,-101.0
126.0,127.0,127.0,127.0,127.0,126.0,112.0,128.0,28.0,-106.0,-69.0,127.0,127.0,127.0,116.0,89.0,-101.0
126.0,127.0,127.0,127.0,127.0,126.0,111.0,128.0,28.0,-106.0,-69.0,127.0,127.0,127.0,116.0,89.0,-101.0
126.0,127.0,127.0,127.0,127.0,126.0,112.0,128.0,28.0,-106.0,-69.0,127.0,127.0,127.0,116.0,89.0,-101.0
126.0,127.0,127.0,127.0,127.0,126.0,112.0,128.0,28.0,-106.0,-69.0,127.0,127.0,127.0,116.0,89.0,-101.0
126.0,127.0,127.0,127.0,127.0,126.0,113.0,128.0,28.0,-106.0,-69.0,127.0,127.0,127.0,116.0,89.0,-101.0
126.0,127.0,127.0,128.0,127.0,127.0,112.0,128.0,28.0,-106.0,-69.0,127.0,127.0,127.0,116.0,89.0,-101.0
126.0,127.0,127.0,128.0,127.0,127.0,112.0,128.0,28.0,-106.0,-69.0,127.0,127.0,127.0,116.0,89.0,-101.0
126.0,126.0,127.0,126.0,126.0,126.0,111.0,128.0,28.0,-106.0,-69.0,127.0,127.0,127.0,116.0,89.0,-101.0
126.0,126.0,127.0,126.0,126.0,126.0,111.0,128.0,28.0,-106.0,-69.0,127.0,127.0,127.0,116.0,89.0,-101.0
127.0,127.0,127.0,127.0,127.0,126.0,111.0,128.0,28.0,-106.0,-69.0,127.0,127.0,127.0,116.0,89.0,-101.0
126.0,127.0,127.0,127.0,127.0,126.0,112.0,128.0,28.0,-106.0,-69.0,127.0,127.0,127.0,116.0,89.0,-101.0
126.0,127.0,127.0,127.0,127.0,126.0,112.0,128.0,28.0,-106.0,-69.0,127.0,127.0,127.0,116.0,89.0,-101.0
126.0,127.0,127.0,127.0,127.0,126.0,112.0,128.0,28.0,-106.0,-69.0,127.0,127.0,127.0,116.0,89.0,-101.0
126.0,127.0,127.0,127.0,127.0,126.0,112.0,128.0,28.0,-106.0,-69.0,127.0,127.0,127.0,116.0,89.0,-101.0
126.0,127.0,127.0,127.0,127.0,126.0,112.0,128.0,28.0,-106.0,-69.0,127.0,127.0,127.0,116.0,89.0,-101.0
126.0,127.0,127.0,127.0,127.0,127.0,112.0,128.0,28.0,-106.0,-69.0,127.0,127.0,127.0,116.0,89.0,-101.0
127.0,126.0,127.0,126.0,127.0,126.0,112.0,128.0,28.0,-106.0,-69.0,127.0,127.0,127.0,116.0,89.0,-101.0
127.0,126.0,127.0,126.0,127.0,126.0,111.0,128.0,28.0,-106.0,-69.0,127.0,127.0,127.0,116.0,89.0,-101.0
127.0,126.0,127.0,126.0,127.0,126.0,111.0,128.0,28.0,-106.0,-69.0,127.0,127.0,127.0,116.0,89.0,-101.0
127.0,127.0,127.0,126.0,127.0,126.0,111.0,128.0,28.0,-106.0,-69.0,127.0,127.0,127.0,116.0,89.0,-101.0
127.0,127.0,127.0,126.0,127.0,126.0,111.0,128.0,28.0,-106.0,-69.0,127.0,127.0,127.0,116.0,89.0,-101.0
127.0,127.0,127.0,126.0,127.0,126.0,112.0,128.0,28.0,-106.0,-69.0,127.0,127.0,127.0,116.0,89.0,-101.0
127.0,127.0,127.0,127.0,127.0,126.0,112.0,128.0,28.0,-106.0,-69.0,127.0,127.0,127.0,116.0,89.0,-101.0
127.0,127.0,127.0,127.0,127.0,126.0,112.0,128.0,28.0,-106.0,-69.0,127.0,127.0,127.0,116.0,89.0,-101.0
127.0,127.0,127.0,127.0,127.0,127.0,112.0,128.0,28.0,-106.0,-69.0,127.0,127.0,127.0,116.0,89.0,-101.0
126.0,126.0,127.0,126.0,126.0,126.0,111.0,127.0,28.0,-106.0,-69.0,127.0,127.0,127.0,116.0,89.0,-101.0
126.0,126.0,127.0,126.0,126.0,126.0,112.0,127.0,28.0,-106.0,-69.0,127.0,127.0,127.0,116.0,89.0,-101.0
126.0,127.0,127.0,126.0,126.0,126.0,112.0,127.0,28.0,-106.0,-69.0,127.0,127.0,127.0,116.0,89.0,-101.0
127.0,127.0,127.0,126.0,127.0,126.0,111.0,127.0,28.0,-106.0,-69.0,127.0,127.0,127.0,116.0,89.0,-101.0
127.0,127.0,127.0,126.0,127.0,126.0,112.0,127.0,28.0,-107.0,-69.0,127.0,127.0,127.0,116.0,89.0,-101.0
127.0,127.0,127.0,126.0,127.0,126.0,111.0,127.0,28.0,-107.0,-69.0,127.0,127.0,127.0,116.0,89.0,-101.0
127.0,127.0,127.0,127.0,127.0,126.0,111.0,127.0,28.0,-107.0,-69.0,127.0,127.0,127.0,116.0,89.0,-101.0
127.0,127.0,127.0,127.0,127.0,126.0,112.0,127.0,28.0,-107.0,-69.0,127.0,127.0,127.0,116.0,89.0,-101.0
127.0,127.0,127.0,127.0,127.0,126.0,112.0,127.0,28.0,-107.0,-69.0,127.0,127.0,127.0,116.0,89.0,-101.0
127.0,126.0,127.0,126.0,127.0,126.0,112.0,127.0,28.0,-107.0,-69.0,127.0,127.0,127.0,116.0,89.0,-101.0
127.0,126.0,127.0,126.0,127.0,126.0,112.0,127.0,28.0,-107.0,-69.0,127.0,127.0,127.0,116.0,89.0,-101.0
127.0,126.0,127.0,126.0,127.0,126.0,112.0,127.0,28.0,-107.0,-69.0,127.0,127.0,127.0,116.0,89.0,-101.0
127.0,127.0,127.0,126.0,127.0,126.0,111.0,127.0,28.0,-107.0,-69.0,127.0,127.0,127.0,116.0,89.0,-101.0
127.0,127.0,127.0,126.0,127.0,126.0,111.0,127.0,28.0,-107.0,-69.0,127.0,127.0,127.0,116.0,89.0,-101.0
127.0,126.0,127.0,127.0,127.0,127.0,112.0,127.0,28.0,-107.0,-69.0,127.0,127.0,127.0,116.0,89.0,-101.0
127.0,127.0,127.0,127.0,127.0,127.0,112.0,127.0,28.0,-107.0,-69.0,127.0,127.0,127.0,116.0,89.0,-101.0
127.0,127.0,127.0,127.0,127.0,127.0,113.0,127.0,28.0,-107.0,-69.0,127.0,127.0,127.0,116.0,89.0,-101.0
127.0,127.0,127.0,127.0,127.0,127.0,113.0,128.0,28.0,-107.0,-69.0,127.0,127.0,127.0,116.0,89.0,-101.0
127.0,126.0,127.0,126.0,126.0,126.0,111.0,127.0,28.0,-107.0,-69.0,127.0,127.0,127.0,116.0,89.0,-101.0
127.0,126.0,127.0,126.0,126.0,126.0,112.0,127.0,28.0,-107.0,-69.0,127.0,127.0,127.0,116.0,89.0,-101.0
127.0,126.0,127.0,126.0,126.0,126.0,112.0,127.0,28.0,-107.0,-69.0,127.0,127.0,127.0,116.0,89.0,-101.0
127.0,126.0,127.0,126.0,127.0,126.0,113.0,127.0,28.0,-107.0,-69.0,127.0,127.0,127.0,116.0,89.0,-101.0
127.0,126.0,127.0,126.0,127.0,126.0,113.0,127.0,28.0,-107.0,-69.0,127.0,127.0,127.0,116.0,89.0,-101.0
127.0,126.0,127.0,126.0,127.0,127.0,112.0,127.0,28.0,-107.0,-69.0,127.0,127.0,127.0,116.0,89.0,-101.0
127.0,127.0,127.0,127.0,127.0,126.0,112.0,127.0,28.0,-107.0,-70.0,127.0,127.0,127.0,116.0,89.0,-101.0
127.0,127.0,127.0,127.0,127.0,126.0,113.0,128.0,28.0,-107.0,-70.0,127.0,127.0,127.0,116.0,89.0,-101.0
127.0,127.0,127.0,127.0,127.0,127.0,112.0,127.0,28.0,-107.0,-70.0,127.0,127.0,127.0,116.0,89.0,-101.0
