emg1,emg2,emg3,emg4,emg5,emg6,emg7,emg8,acc_x,acc_y,acc_z,gyro_x,gyro_y,gyro_z,angle_pitch,angle_roll,angle_yaw
120.0,136.0,116.0,187.0,163.0,0.0,22.0,121.0,50.0,-112.0,-52.0,-127.0,127.0,127.0,120.0,92.0,-106.0
120.0,137.0,115.0,187.0,164.0,0.0,22.0,121.0,50.0,-112.0,-52.0,-127.0,127.0,127.0,120.0,92.0,-106.0
120.0,137.0,115.0,188.0,164.0,0.0,22.0,121.0,50.0,-112.0,-52.0,-127.0,127.0,127.0,120.0,92.0,-106.0
121.0,137.0,115.0,188.0,165.0,0.0,22.0,120.0,50.0,-112.0,-52.0,-127.0,127.0,127.0,120.0,92.0,-106.0
120.0,130.0,126.0,185.0,162.0,0.0,22.0,122.0,50.0,-112.0,-52.0,-127.0,127.0,127.0,120.0,92.0,-106.0
120.0,131.0,125.0,186.0,163.0,0.0,22.0,122.0,50.0,-112.0,-52.0,-127.0,127.0,127.0,120.0,92.0,-106.0
118.0,140.0,112.0,167.0,173.0,47.0,51.0,104.0,49.0,-115.0,-51.0,-125.0,-128.0,126.0,120.0,92.0,-106.0
117.0,141.0,113.0,166.0,171.0,56.0,56.0,103.0,49.0,-115.0,-51.0,-125.0,-128.0,126.0,120.0,92.0,-106.0
117.0,141.0,115.0,165.0,169.0,66.0,62.0,102.0,49.0,-115.0,-51.0,-125.0,-128.0,126.0,120.0,92.0,-106.0
117.0,141.0,116.0,164.0,168.0,75.0,68.0,101.0,49.0,-115.0,-51.0,-125.0,-128.0,126.0,120.0,92.0,-106.0
117.0,140.0,117.0,164.0,166.0,85.0,75.0,100.0,49.0,-115.0,-51.0,-125.0,-128.0,126.0,120.0,92.0,-106.0
116.0,140.0,116.0,163.0,165.0,95.0,82.0,99.0,49.0,-115.0,-51.0,-125.0,-128.0,126.0,120.0,92.0,-106.0
116.0,139.0,115.0,162.0,163.0,106.0,89.0,98.0,49.0,-115.0,-51.0,-125.0,-128.0,126.0,120.0,92.0,-106.0
118.0,138.0,113.0,172.0,178.0,23.0,37.0,108.0,49.0,-115.0,-51.0,-125.0,-128.0,126.0,120.0,92.0,-106.0
118.0,138.0,112.0,170.0,177.0,31.0,41.0,107.0,49.0,-115.0,-51.0,-125.0,-128.0,126.0,120.0,92.0,-106.0
118.0,139.0,112.0,169.0,175.0,39.0,46.0,105.0,49.0,-115.0,-51.0,-125.0,-128.0,126.0,120.0,92.0,-106.0
117.0,136.0,128.0,133.0,99.0,211.0,168.0,107.0,48.0,-118.0,-52.0,-124.0,-128.0,126.0,121.0,92.0,-106.0
117.0,136.0,129.0,133.0,99.0,209.0,166.0,108.0,48.0,-118.0,-52.0,-124.0,-128.0,126.0,121.0,92.0,-106.0
117.0,134.0,129.0,133.0,98.0,207.0,164.0,109.0,48.0,-118.0,-52.0,-124.0,-128.0,126.0,121.0,92.0,-106.0
118.0,133.0,130.0,132.0,97.0,205.0,166.0,110.0,48.0,-118.0,-52.0,-124.0,-128.0,126.0,121.0,92.0,-106.0
118.0,133.0,130.0,131.0,96.0,204.0,165.0,111.0,48.0,-118.0,-52.0,-124.0,-128.0,126.0,121.0,92.0,-106.0
119.0,132.0,131.0,131.0,96.0,202.0,163.0,113.0,48.0,-118.0,-52.0,-124.0,-128.0,126.0,121.0,92.0,-106.0
116.0,133.0,125.0,136.0,103.0,218.0,172.0,105.0,48.0,-118.0,-52.0,-124.0,-128.0,126.0,121.0,92.0,-106.0
116.0,133.0,126.0,135.0,102.0,216.0,169.0,105.0,48.0,-118.0,-52.0,-124.0,-128.0,126.0,121.0,92.0,-106.0
116.0,134.0,126.0,134.0,101.0,214.0,169.0,106.0,48.0,-118.0,-52.0,-124.0,-128.0,126.0,121.0,92.0,-106.0
117.0,135.0,127.0,134.0,100.0,212.0,170.0,106.0,48.0,-118.0,-52.0,-124.0,-128.0,126.0,121.0,92.0,-106.0
126.0,124.0,137.0,132.0,122.0,160.0,132.0,135.0,46.0,-118.0,-55.0,-123.0,-127.0,126.0,121.0,92.0,-106.0
126.0,122.0,137.0,132.0,123.0,159.0,131.0,135.0,46.0,-118.0,-55.0,-123.0,-127.0,126.0,121.0,92.0,-106.0
126.0,121.0,137.0,133.0,124.0,159.0,132.0,134.0,46.0,-118.0,-55.0,-123.0,-127.0,126.0,121.0,92.0,-106.0
126.0,120.0,137.0,133.0,125.0,158.0,136.0,135.0,46.0,-118.0,-55.0,-123.0,-127.0,126.0,121.0,92.0,-106.0
126.0,119.0,137.0,134.0,127.0,158.0,136.0,135.0,46.0,-118.0,-55.0,-123.0,-127.0,126.0,121.0,92.0,-106.0
126.0,123.0,138.0,131.0,116.0,162.0,136.0,135.0,46.0,-118.0,-55.0,-123.0,-127.0,126.0,121.0,92.0,-106.0
126.0,124.0,138.0,131.0,117.0,162.0,135.0,135.0,46.0,-118.0,-55.0,-123.0,-127.0,126.0,121.0,92.0,-106.0
127.0,126.0,137.0,131.0,118.0,161.0,134.0,135.0,46.0,-118.0,-55.0,-123.0,-127.0,126.0,121.0,92.0,-106.0
127.0,125.0,137.0,131.0,119.0,161.0,133.0,135.0,46.0,-118.0,-55.0,-123.0,-127.0,126.0,121.0,92.0,-106.0
127.0,125.0,137.0,131.0,121.0,160.0,133.0,135.0,46.0,-118.0,-55.0,-123.0,-127.0,126.0,121.0,92.0,-106.0
129.0,119.0,128.0,134.0,129.0,146.0,124.0,141.0,44.0,-112.0,-58.0,-123.0,-127.0,126.0,121.0,92.0,-106.0
129.0,119.0,128.0,134.0,128.0,146.0,124.0,142.0,44.0,-112.0,-58.0,-123.0,-127.0,126.0,121.0,92.0,-106.0
129.0,119.0,127.0,134.0,127.0,146.0,124.0,142.0,44.0,-112.0,-58.0,-123.0,-127.0,126.0,121.0,92.0,-106.0
129.0,119.0,127.0,134.0,125.0,146.0,124.0,142.0,44.0,-112.0,-58.0,-123.0,-127.0,126.0,121.0,92.0,-106.0
129.0,119.0,131.0,135.0,136.0,147.0,125.0,139.0,44.0,-112.0,-58.0,-123.0,-127.0,126.0,121.0,92.0,-106.0
129.0,119.0,130.0,135.0,135.0,147.0,125.0,139.0,44.0,-112.0,-58.0,-123.0,-127.0,126.0,121.0,92.0,-106.0
129.0,119.0,130.0,135.0,134.0,147.0,125.0,140.0,44.0,-112.0,-58.0,-123.0,-127.0,126.0,121.0,92.0,-106.0
129.0,119.0,130.0,135.0,133.0,147.0,125.0,140.0,44.0,-112.0,-58.0,-123.0,-127.0,126.0,121.0,92.0,-106.0
129.0,119.0,129.0,135.0,132.0,147.0,125.0,141.0,44.0,-112.0,-58.0,-123.0,-127.0,126.0,121.0,92.0,-106.0
129.0,119.0,129.0,135.0,130.0,147.0,124.0,141.0,44.0,-112.0,-58.0,-123.0,-127.0,126.0,121.0,92.0,-106.0
130.0,122.0,120.0,125.0,80.0,146.0,123.0,142.0,43.0,-107.0,-61.0,-125.0,-128.0,126.0,121.0,92.0,-106.0
130.0,122.0,120.0,126.0,80.0,146.0,123.0,142.0,43.0,-107.0,-61.0,-125.0,-128.0,126.0,121.0,92.0,-106.0
130.0,122.0,120.0,126.0,80.0,146.0,123.0,141.0,43.0,-107.0,-61.0,-125.0,-128.0,126.0,121.0,92.0,-106.0
130.0,121.0,122.0,124.0,82.0,146.0,123.0,145.0,43.0,-107.0,-61.0,-125.0,-128.0,126.0,121.0,92.0,-106.0
130.0,121.0,121.0,124.0,82.0,146.0,123.0,144.0,43.0,-107.0,-61.0,-125.0,-128.0,126.0,121.0,92.0,-106.0
130.0,121.0,121.0,124.0,81.0,146.0,123.0,143.0,43.0,-107.0,-61.0,-125.0,-128.0,126.0,121.0,92.0,-106.0
130.0,121.0,121.0,124.0,81.0,146.0,123.0,143.0,43.0,-107.0,-61.0,-125.0,-128.0,126.0,121.0,92.0,-106.0
130.0,122.0,120.0,124.0,81.0,146.0,123.0,142.0,43.0,-107.0,-61.0,-125.0,-128.0,126.0,121.0,92.0,-106.0
130.0,122.0,120.0,124.0,80.0,146.0,123.0,142.0,43.0,-107.0,-61.0,-125.0,-128.0,126.0,121.0,92.0,-106.0
130.0,122.0,120.0,125.0,80.0,146.0,123.0,142.0,43.0,-107.0,-61.0,-125.0,-128.0,126.0,121.0,92.0,-106.0
130.0,124.0,124.0,126.0,97.0,144.0,121.0,143.0,41.0,-108.0,-63.0,-125.0,-128.0,126.0,121.0,92.0,-106.0
130.0,124.0,124.0,126.0,98.0,144.0,121.0,143.0,41.0,-108.0,-63.0,-125.0,-128.0,126.0,121.0,92.0,-106.0
129.0,123.0,122.0,125.0,93.0,145.0,121.0,143.0,41.0,-108.0,-63.0,-125.0,-128.0,126.0,121.0,92.0,-106.0
129.0,123.0,123.0,125.0,93.0,144.0,121.0,143.0,41.0,-108.0,-63.0,-125.0,-128.0,126.0,121.0,92.0,-106.0
129.0,123.0,123.0,124.0,94.0,145.0,121.0,143.0,41.0,-108.0,-63.0,-125.0,-128.0,126.0,121.0,92.0,-106.0
129.0,123.0,123.0,125.0,95.0,145.0,121.0,143.0,41.0,-108.0,-63.0,-125.0,-128.0,126.0,121.0,92.0,-106.0
129.0,123.0,123.0,125.0,95.0,144.0,121.0,143.0,41.0,-108.0,-63.0,-125.0,-128.0,126.0,121.0,92.0,-106.0
129.0,124.0,123.0,125.0,96.0,144.0,120.0,143.0,41.0,-108.0,-63.0,-125.0,-128.0,126.0,121.0,92.0,-106.0
129.0,124.0,123.0,125.0,97.0,144.0,121.0,143.0,41.0,-108.0,-63.0,-125.0,-128.0,126.0,121.0,92.0,-106.0
130.0,124.0,123.0,126.0,97.0,144.0,121.0,143.0,41.0,-108.0,-63.0,-125.0,-128.0,126.0,121.0,92.0,-106.0
130.0,127.0,123.0,127.0,117.0,144.0,120.0,137.0,40.0,-107.0,-63.0,-125.0,-128.0,126.0,120.0,92.0,-106.0
130.0,124.0,123.0,122.0,113.0,144.0,121.0,138.0,40.0,-107.0,-63.0,-125.0,-128.0,126.0,120.0,92.0,-106.0
130.0,124.0,123.0,122.0,113.0,144.0,120.0,138.0,40.0,-107.0,-63.0,-125.0,-128.0,126.0,120.0,92.0,-106.0
130.0,124.0,122.0,122.0,114.0,144.0,121.0,138.0,40.0,-107.0,-63.0,-125.0,-128.0,126.0,120.0,92.0,-106.0
130.0,123.0,122.0,122.0,114.0,144.0,121.0,138.0,40.0,-107.0,-63.0,-125.0,-128.0,126.0,120.0,92.0,-106.0
130.0,123.0,122.0,122.0,115.0,144.0,120.0,138.0,40.0,-107.0,-63.0,-125.0,-128.0,126.0,120.0,92.0,-106.0
129.0,124.0,121.0,123.0,115.0,144.0,120.0,138.0,40.0,-107.0,-63.0,-125.0,-128.0,126.0,120.0,92.0,-106.0
130.0,124.0,121.0,123.0,115.0,144.0,120.0,138.0,40.0,-107.0,-63.0,-125.0,-128.0,126.0,120.0,92.0,-106.0
130.0,125.0,121.0,124.0,115.0,144.0,120.0,138.0,40.0,-107.0,-63.0,-125.0,-128.0,126.0,120.0,92.0,-106.0
130.0,126.0,122.0,126.0,116.0,144.0,120.0,138.0,40.0,-107.0,-63.0,-125.0,-128.0,126.0,120.0,92.0,-106.0
129.0,125.0,128.0,129.0,123.0,143.0,119.0,135.0,39.0,-104.0,-63.0,-126.0,-128.0,126.0,120.0,92.0,-106.0
129.0,125.0,127.0,128.0,123.0,143.0,119.0,135.0,39.0,-104.0,-63.0,-126.0,-128.0,126.0,120.0,92.0,-106.0
129.0,125.0,127.0,128.0,123.0,143.0,119.0,135.0,39.0,-104.0,-63.0,-126.0,-128.0,126.0,120.0,92.0,-106.0
129.0,125.0,127.0,128.0,123.0,144.0,119.0,135.0,39.0,-104.0,-63.0,-126.0,-128.0,126.0,120.0,92.0,-106.0
129.0,125.0,126.0,127.0,123.0,143.0,119.0,135.0,39.0,-104.0,-63.0,-126.0,-128.0,126.0,120.0,92.0,-106.0
129.0,126.0,126.0,127.0,123.0,144.0,119.0,135.0,39.0,-104.0,-63.0,-126.0,-128.0,126.0,120.0,92.0,-106.0
129.0,126.0,125.0,127.0,123.0,144.0,119.0,135.0,39.0,-104.0,-63.0,-126.0,-128.0,126.0,120.0,92.0,-106.0
129.0,126.0,125.0,127.0,123.0,144.0,119.0,135.0,39.0,-104.0,-63.0,-126.0,-128.0,126.0,120.0,92.0,-106.0
129.0,127.0,126.0,128.0,123.0,144.0,119.0,135.0,39.0,-104.0,-63.0,-126.0,-128.0,126.0,120.0,92.0,-106.0
129.0,127.0,126.0,129.0,123.0,144.0,119.0,135.0,39.0,-104.0,-63.0,-126.0,-128.0,126.0,120.0,92.0,-106.0
129.0,124.0,123.0,128.0,123.0,144.0,120.0,135.0,37.0,-101.0,-63.0,-126.0,127.0,126.0,119.0,92.0,-106.0
129.0,124.0,123.0,128.0,123.0,144.0,120.0,135.0,37.0,-101.0,-63.0,-126.0,127.0,126.0,119.0,92.0,-106.0
129.0,124.0,123.0,128.0,123.0,144.0,120.0,135.0,37.0,-101.0,-63.0,-126.0,127.0,126.0,119.0,92.0,-106.0
129.0,124.0,124.0,129.0,124.0,144.0,120.0,135.0,37.0,-101.0,-63.0,-126.0,127.0,126.0,119.0,92.0,-106.0
129.0,124.0,124.0,129.0,123.0,144.0,120.0,134.0,37.0,-101.0,-63.0,-126.0,127.0,126.0,119.0,92.0,-106.0
129.0,125.0,125.0,129.0,124.0,144.0,120.0,134.0,37.0,-101.0,-63.0,-126.0,127.0,126.0,119.0,92.0,-106.0
129.0,125.0,125.0,130.0,124.0,144.0,120.0,134.0,37.0,-101.0,-63.0,-126.0,127.0,126.0,119.0,92.0,-106.0
129.0,125.0,126.0,130.0,124.0,144.0,120.0,134.0,37.0,-101.0,-63.0,-126.0,127.0,126.0,119.0,92.0,-106.0
128.0,125.0,126.0,130.0,124.0,144.0,119.0,134.0,37.0,-101.0,-63.0,-126.0,127.0,126.0,119.0,92.0,-106.0
129.0,124.0,123.0,128.0,123.0,144.0,120.0,135.0,37.0,-101.0,-63.0,-126.0,127.0,126.0,119.0,92.0,-106.0
128.0,125.0,127.0,128.0,124.0,143.0,120.0,133.0,36.0,-99.0,-64.0,-127.0,127.0,127.0,118.0,92.0,-106.0
128.0,125.0,127.0,128.0,124.0,143.0,124.0,133.0,36.0,-99.0,-64.0,-127.0,127.0,127.0,118.0,92.0,-106.0
128.0,125.0,127.0,128.0,124.0,143.0,125.0,133.0,36.0,-99.0,-64.0,-127.0,127.0,127.0,118.0,92.0,-106.0
128.0,125.0,127.0,128.0,124.0,143.0,125.0,133.0,36.0,-99.0,-64.0,-127.0,127.0,127.0,118.0,92.0,-106.0
128.0,125.0,127.0,128.0,125.0,143.0,125.0,133.0,36.0,-99.0,-64.0,-127.0,127.0,127.0,118.0,92.0,-106.0
128.0,125.0,127.0,128.0,125.0,143.0,125.0,133.0,36.0,-99.0,-64.0,-127.0,127.0,127.0,118.0,92.0,-106.0
128.0,125.0,127.0,128.0,125.0,143.0,125.0,133.0,36.0,-99.0,-64.0,-127.0,127.0,127.0,118.0,92.0,-106.0
128.0,125.0,127.0,128.0,125.0,143.0,125.0,133.0,36.0,-99.0,-64.0,-127.0,127.0,127.0,118.0,92.0,-106.0
128.0,125.0,127.0,128.0,124.0,143.0,118.0,134.0,36.0,-99.0,-64.0,-127.0,127.0,127.0,118.0,92.0,-106.0
128.0,125.0,127.0,128.0,124.0,143.0,118.0,134.0,36.0,-99.0,-64.0,-127.0,127.0,127.0,118.0,92.0,-106.0
128.0,125.0,126.0,126.0,124.0,142.0,125.0,132.0,35.0,-97.0,-66.0,-127.0,127.0,127.0,118.0,92.0,-106.0
128.0,125.0,127.0,127.0,125.0,142.0,125.0,132.0,35.0,-97.0,-66.0,-127.0,127.0,127.0,118.0,92.0,-106.0
128.0,125.0,127.0,128.0,125.0,142.0,125.0,132.0,35.0,-97.0,-66.0,-127.0,127.0,127.0,118.0,92.0,-106.0
128.0,125.0,127.0,128.0,126.0,142.0,125.0,132.0,35.0,-97.0,-66.0,-127.0,127.0,127.0,118.0,92.0,-106.0
128.0,126.0,127.0,129.0,126.0,142.0,125.0,132.0,35.0,-97.0,-66.0,-127.0,127.0,127.0,118.0,92.0,-106.0
128.0,126.0,127.0,130.0,126.0,142.0,125.0,132.0,35.0,-97.0,-66.0,-127.0,127.0,127.0,118.0,92.0,-106.0
128.0,126.0,127.0,131.0,127.0,142.0,125.0,132.0,35.0,-97.0,-66.0,-127.0,127.0,127.0,118.0,92.0,-106.0
128.0,125.0,126.0,125.0,124.0,143.0,125.0,132.0,35.0,-97.0,-66.0,-127.0,127.0,127.0,118.0,92.0,-106.0
128.0,125.0,126.0,125.0,124.0,142.0,124.0,132.0,35.0,-97.0,-66.0,-127.0,127.0,127.0,118.0,92.0,-106.0
128.0,125.0,126.0,125.0,124.0,142.0,125.0,132.0,35.0,-97.0,-66.0,-127.0,127.0,127.0,118.0,92.0,-106.0
128.0,125.0,126.0,130.0,129.0,142.0,125.0,131.0,34.0,-96.0,-67.0,-128.0,127.0,127.0,117.0,92.0,-106.0
128.0,125.0,126.0,130.0,129.0,142.0,124.0,131.0,34.0,-96.0,-67.0,-128.0,127.0,127.0,117.0,92.0,-106.0
127.0,125.0,126.0,130.0,129.0,142.0,124.0,131.0,34.0,-96.0,-67.0,-128.0,127.0,127.0,117.0,92.0,-106.0
127.0,125.0,126.0,131.0,129.0,142.0,124.0,131.0,34.0,-96.0,-67.0,-128.0,127.0,127.0,117.0,92.0,-106.0
127.0,125.0,127.0,131.0,128.0,142.0,124.0,131.0,34.0,-96.0,-67.0,-128.0,127.0,127.0,117.0,92.0,-106.0
127.0,125.0,127.0,132.0,128.0,142.0,124.0,131.0,34.0,-96.0,-67.0,-128.0,127.0,127.0,117.0,92.0,-106.0
128.0,125.0,126.0,129.0,128.0,142.0,125.0,131.0,34.0,-96.0,-67.0,-128.0,127.0,127.0,117.0,92.0,-106.0
128.0,125.0,126.0,129.0,129.0,142.0,125.0,131.0,34.0,-96.0,-67.0,-128.0,127.0,127.0,117.0,92.0,-106.0
128.0,125.0,126.0,129.0,129.0,142.0,125.0,131.0,34.0,-96.0,-67.0,-128.0,127.0,127.0,117.0,92.0,-106.0
128.0,125.0,126.0,129.0,129.0,142.0,125.0,131.0,34.0,-96.0,-67.0,-128.0,127.0,127.0,117.0,92.0,-106.0
128.0,125.0,127.0,130.0,127.0,142.0,124.0,132.0,33.0,-95.0,-67.0,-128.0,127.0,127.0,116.0,92.0,-106.0
128.0,126.0,127.0,130.0,127.0,142.0,124.0,132.0,33.0,-95.0,-67.0,-128.0,127.0,127.0,116.0,92.0,-106.0
128.0,126.0,127.0,130.0,127.0,142.0,124.0,132.0,33.0,-95.0,-67.0,-128.0,127.0,127.0,116.0,92.0,-106.0
128.0,126.0,128.0,131.0,127.0,142.0,125.0,132.0,33.0,-95.0,-67.0,-128.0,127.0,127.0,116.0,92.0,-106.0
128.0,126.0,128.0,131.0,126.0,142.0,125.0,132.0,33.0,-95.0,-67.0,-128.0,127.0,127.0,116.0,92.0,-106.0
128.0,125.0,126.0,131.0,127.0,142.0,124.0,131.0,33.0,-95.0,-67.0,-128.0,127.0,127.0,116.0,92.0,-106.0
128.0,125.0,126.0,131.0,127.0,142.0,124.0,131.0,33.0,-95.0,-67.0,-128.0,127.0,127.0,116.0,92.0,-106.0
128.0,125.0,126.0,131.0,127.0,142.0,124.0,131.0,33.0,-95.0,-67.0,-128.0,127.0,127.0,116.0,92.0,-106.0
128.0,125.0,126.0,131.0,127.0,142.0,124.0,131.0,33.0,-95.0,-67.0,-128.0,127.0,127.0,116.0,92.0,-106.0
128.0,125.0,127.0,130.0,127.0,142.0,124.0,131.0,33.0,-95.0,-67.0,-128.0,127.0,127.0,116.0,92.0,-106.0
128.0,126.0,126.0,129.0,128.0,143.0,125.0,131.0,32.0,-94.0,-68.0,-128.0,127.0,127.0,116.0,92.0,-106.0
128.0,126.0,126.0,129.0,128.0,142.0,124.0,131.0,32.0,-94.0,-68.0,-128.0,127.0,127.0,116.0,92.0,-106.0
128.0,126.0,127.0,129.0,128.0,143.0,124.0,131.0,32.0,-94.0,-68.0,-128.0,127.0,127.0,116.0,92.0,-106.0
128.0,126.0,127.0,129.0,128.0,142.0,125.0,131.0,32.0,-94.0,-68.0,-128.0,127.0,127.0,116.0,92.0,-106.0
128.0,126.0,127.0,128.0,127.0,143.0,125.0,131.0,32.0,-94.0,-68.0,-128.0,127.0,127.0,116.0,92.0,-106.0
128.0,126.0,127.0,128.0,127.0,143.0,125.0,131.0,32.0,-94.0,-68.0,-128.0,127.0,127.0,116.0,92.0,-106.0
128.0,126.0,127.0,128.0,128.0,143.0,125.0,131.0,32.0,-94.0,-68.0,-128.0,127.0,127.0,116.0,92.0,-106.0
128.0,126.0,127.0,128.0,128.0,143.0,125.0,131.0,32.0,-94.0,-68.0,-128.0,127.0,127.0,116.0,92.0,-106.0
128.0,126.0,126.0,129.0,128.0,143.0,125.0,131.0,32.0,-94.0,-68.0,-128.0,127.0,127.0,116.0,92.0,-106.0
128.0,126.0,126.0,129.0,128.0,143.0,125.0,131.0,32.0,-94.0,-68.0,-128.0,127.0,127.0,116.0,92.0,-106.0
127.0,126.0,127.0,129.0,128.0,142.0,124.0,129.0,32.0,-94.0,-68.0,-128.0,127.0,127.0,115.0,92.0,-106.0
127.0,126.0,128.0,129.0,128.0,142.0,123.0,129.0,32.0,-94.0,-68.0,-128.0,127.0,127.0,115.0,92.0,-106.0
127.0,126.0,128.0,129.0,128.0,142.0,124.0,129.0,32.0,-94.0,-68.0,-128.0,127.0,127.0,115.0,92.0,-106.0
128.0,125.0,127.0,130.0,128.0,142.0,124.0,130.0,32.0,-94.0,-68.0,-128.0,127.0,127.0,115.0,92.0,-106.0
128.0,125.0,127.0,130.0,128.0,142.0,124.0,130.0,32.0,-94.0,-68.0,-128.0,127.0,127.0,115.0,92.0,-106.0
127.0,125.0,127.0,129.0,128.0,142.0,124.0,129.0,32.0,-94.0,-68.0,-128.0,127.0,127.0,115.0,92.0,-106.0
127.0,125.0,127.0,129.0,128.0,142.0,124.0,129.0,32.0,-94.0,-68.0,-128.0,127.0,127.0,115.0,92.0,-106.0
127.0,126.0,127.0,129.0,128.0,142.0,124.0,129.0,32.0,-94.0,-68.0,-128.0,127.0,127.0,115.0,92.0,-106.0
127.0,126.0,127.0,129.0,128.0,142.0,124.0,129.0,32.0,-94.0,-68.0,-128.0,127.0,127.0,115.0,92.0,-106.0
127.0,126.0,127.0,129.0,128.0,142.0,124.0,129.0,32.0,-94.0,-68.0,-128.0,127.0,127.0,115.0,92.0,-106.0
127.0,127.0,127.0,131.0,128.0,142.0,124.0,130.0,32.0,-94.0,-69.0,-128.0,127.0,127.0,114.0,92.0,-106.0
127.0,127.0,127.0,131.0,128.0,142.0,124.0,130.0,32.0,-94.0,-69.0,-128.0,127.0,127.0,114.0,92.0,-106.0
127.0,125.0,127.0,129.0,126.0,142.0,123.0,130.0,32.0,-94.0,-69.0,-128.0,127.0,127.0,114.0,92.0,-106.0
127.0,126.0,127.0,129.0,126.0,142.0,123.0,130.0,32.0,-94.0,-69.0,-128.0,127.0,127.0,114.0,92.0,-106.0
127.0,126.0,126.0,129.0,126.0,142.0,123.0,130.0,32.0,-94.0,-69.0,-128.0,127.0,127.0,114.0,92.0,-106.0
127.0,126.0,126.0,129.0,126.0,142.0,123.0,130.0,32.0,-94.0,-69.0,-128.0,127.0,127.0,114.0,92.0,-106.0
127.0,126.0,126.0,130.0,127.0,142.0,123.0,130.0,32.0,-94.0,-69.0,-128.0,127.0,127.0,114.0,92.0,-106.0
127.0,127.0,127.0,130.0,127.0,142.0,123.0,130.0,32.0,-94.0,-69.0,-128.0,127.0,127.0,114.0,92.0,-106.0
127.0,127.0,127.0,130.0,127.0,142.0,123.0,130.0,32.0,-94.0,-69.0,-128.0,127.0,127.0,114.0,92.0,-106.0
127.0,128.0,127.0,130.0,127.0,142.0,124.0,130.0,32.0,-94.0,-69.0,-128.0,127.0,127.0,114.0,92.0,-106.0
127.0,125.0,125.0,127.0,127.0,142.0,124.0,131.0,32.0,-94.0,-69.0,127.0,127.0,127.0,113.0,92.0,-106.0
127.0,124.0,127.0,128.0,127.0,142.0,124.0,131.0,32.0,-94.0,-69.0,127.0,127.0,127.0,113.0,92.0,-106.0
127.0,124.0,127.0,127.0,127.0,142.0,124.0,131.0,32.0,-94.0,-69.0,127.0,127.0,127.0,113.0,92.0,-106.0
128.0,125.0,126.0,127.0,127.0,142.0,124.0,131.0,32.0,-94.0,-69.0,127.0,127.0,127.0,113.0,92.0,-106.0
128.0,125.0,126.0,127.0,127.0,142.0,124.0,131.0,32.0,-94.0,-69.0,127.0,127.0,127.0,113.0,92.0,-106.0
127.0,125.0,126.0,126.0,126.0,142.0,124.0,131.0,32.0,-94.0,-69.0,127.0,127.0,127.0,113.0,92.0,-106.0
128.0,125.0,126.0,126.0,126.0,142.0,124.0,131.0,32.0,-94.0,-69.0,127.0,127.0,127.0,113.0,92.0,-106.0
127.0,125.0,126.0,126.0,127.0,142.0,124.0,131.0,32.0,-94.0,-69.0,127.0,127.0,127.0,113.0,92.0,-106.0
127.0,125.0,125.0,126.0,127.0,142.0,124.0,131.0,32.0,-94.0,-69.0,127.0,127.0,127.0,113.0,92.0,-106.0
127.0,125.0,125.0,126.0,127.0,142.0,124.0,131.0,32.0,-94.0,-69.0,127.0,127.0,127.0,113.0,92.0,-106.0
127.0,126.0,128.0,130.0,127.0,142.0,124.0,131.0,32.0,-95.0,-70.0,127.0,127.0,127.0,113.0,92.0,-106.0
127.0,126.0,128.0,130.0,126.0,142.0,124.0,131.0,32.0,-95.0,-70.0,127.0,127.0,127.0,113.0,92.0,-106.0
127.0,126.0,128.0,130.0,126.0,142.0,124.0,131.0,32.0,-95.0,-70.0,127.0,127.0,127.0,113.0,92.0,-106.0
127.0,126.0,128.0,129.0,126.0,142.0,124.0,131.0,32.0,-95.0,-70.0,127.0,127.0,127.0,113.0,92.0,-106.0
127.0,125.0,128.0,130.0,126.0,142.0,124.0,131.0,32.0,-95.0,-70.0,127.0,127.0,127.0,113.0,92.0,-106.0
127.0,126.0,128.0,130.0,126.0,142.0,124.0,131.0,32.0,-95.0,-70.0,127.0,127.0,127.0,113.0,92.0,-106.0
127.0,125.0,128.0,130.0,126.0,142.0,124.0,131.0,32.0,-95.0,-70.0,127.0,127.0,127.0,113.0,92.0,-106.0
127.0,125.0,128.0,130.0,126.0,142.0,124.0,131.0,32.0,-95.0,-70.0,127.0,127.0,127.0,113.0,92.0,-106.0
127.0,126.0,128.0,130.0,126.0,142.0,124.0,131.0,32.0,-95.0,-70.0,127.0,127.0,127.0,113.0,92.0,-106.0
127.0,125.0,128.0,130.0,127.0,142.0,124.0,131.0,32.0,-95.0,-70.0,127.0,127.0,127.0,113.0,92.0,-106.0
127.0,126.0,128.0,127.0,127.0,142.0,124.0,132.0,32.0,-95.0,-70.0,127.0,127.0,127.0,112.0,91.0,-106.0
127.0,126.0,128.0,127.0,127.0,142.0,124.0,132.0,32.0,-95.0,-70.0,127.0,127.0,127.0,112.0,91.0,-106.0
127.0,126.0,128.0,127.0,127.0,142.0,124.0,132.0,32.0,-95.0,-70.0,127.0,127.0,127.0,112.0,91.0,-106.0
127.0,126.0,128.0,127.0,127.0,142.0,124.0,132.0,32.0,-95.0,-70.0,127.0,127.0,127.0,112.0,91.0,-106.0
127.0,126.0,128.0,127.0,127.0,142.0,124.0,132.0,32.0,-95.0,-70.0,127.0,127.0,127.0,112.0,91.0,-106.0
127.0,126.0,128.0,127.0,127.0,142.0,123.0,132.0,32.0,-95.0,-70.0,127.0,127.0,127.0,112.0,91.0,-106.0
127.0,126.0,127.0,127.0,127.0,142.0,124.0,132.0,32.0,-95.0,-70.0,127.0,127.0,127.0,112.0,91.0,-106.0
127.0,126.0,127.0,127.0,127.0,142.0,124.0,132.0,32.0,-95.0,-70.0,127.0,127.0,127.0,112.0,91.0,-106.0
127.0,126.0,128.0,127.0,126.0,142.0,124.0,132.0,32.0,-95.0,-70.0,127.0,127.0,127.0,112.0,91.0,-106.0
127.0,126.0,128.0,127.0,127.0,142.0,124.0,132.0,32.0,-95.0,-70.0,127.0,127.0,127.0,112.0,91.0,-106.0
127.0,125.0,127.0,129.0,128.0,142.0,124.0,131.0,32.0,-96.0,-70.0,127.0,127.0,127.0,111.0,91.0,-106.0
127.0,125.0,127.0,129.0,128.0,142.0,124.0,131.0,32.0,-96.0,-70.0,127.0,127.0,127.0,111.0,91.0,-106.0
127.0,125.0,127.0,129.0,128.0,142.0,124.0,131.0,32.0,-96.0,-70.0,127.0,127.0,127.0,111.0,91.0,-106.0
127.0,125.0,127.0,129.0,128.0,142.0,124.0,131.0,32.0,-96.0,-70.0,127.0,127.0,127.0,111.0,91.0,-106.0
127.0,125.0,127.0,129.0,127.0,142.0,124.0,131.0,32.0,-96.0,-70.0,127.0,127.0,127.0,111.0,91.0,-106.0
127.0,125.0,127.0,129.0,127.0,142.0,124.0,131.0,32.0,-96.0,-70.0,127.0,127.0,127.0,111.0,91.0,-106.0
127.0,125.0,127.0,129.0,127.0,142.0,123.0,131.0,32.0,-96.0,-70.0,127.0,127.0,127.0,111.0,91.0,-106.0
127.0,125.0,127.0,130.0,128.0,142.0,123.0,131.0,32.0,-96.0,-70.0,127.0,127.0,127.0,111.0,91.0,-106.0
127.0,125.0,127.0,129.0,128.0,142.0,123.0,131.0,32.0,-96.0,-70.0,127.0,127.0,127.0,111.0,91.0,-106.0
127.0,125.0,127.0,129.0,128.0,142.0,124.0,131.0,32.0,-96.0,-70.0,127.0,127.0,127.0,111.0,91.0,-106.0
127.0,125.0,127.0,128.0,127.0,142.0,123.0,130.0,33.0,-97.0,-70.0,127.0,127.0,127.0,111.0,91.0,-106.0
127.0,125.0,127.0,128.0,127.0,142.0,123.0,130.0,33.0,-97.0,-70.0,127.0,127.0,127.0,111.0,91.0,-106.0
127.0,125.0,127.0,128.0,127.0,142.0,123.0,130.0,33.0,-97.0,-70.0,127.0,127.0,127.0,111.0,91.0,-106.0
127.0,125.0,127.0,128.0,127.0,142.0,123.0,130.0,33.0,-97.0,-70.0,127.0,127.0,127.0,111.0,91.0,-106.0
127.0,126.0,127.0,128.0,127.0,142.0,123.0,130.0,33.0,-97.0,-70.0,127.0,127.0,127.0,111.0,91.0,-106.0
127.0,126.0,127.0,128.0,127.0,142.0,123.0,130.0,33.0,-97.0,-70.0,127.0,127.0,127.0,111.0,91.0,-106.0
127.0,125.0,127.0,128.0,127.0,142.0,123.0,130.0,33.0,-97.0,-70.0,127.0,127.0,127.0,111.0,91.0,-106.0
127.0,125.0,127.0,128.0,127.0,142.0,123.0,130.0,33.0,-97.0,-70.0,127.0,127.0,127.0,111.0,91.0,-106.0
127.0,125.0,127.0,128.0,127.0,142.0,123.0,130.0,33.0,-97.0,-70.0,127.0,127.0,127.0,111.0,91.0,-106.0
127.0,125.0,127.0,128.0,127.0,142.0,123.0,130.0,33.0,-97.0,-70.0,127.0,127.0,127.0,111.0,91.0,-106.0
127.0,125.0,128.0,127.0,127.0,142.0,124.0,129.0,33.0,-97.0,-70.0,127.0,127.0,127.0,111.0,91.0,-106.0
127.0,125.0,128.0,127.0,127.0,142.0,124.0,129.0,33.0,-97.0,-70.0,127.0,127.0,127.0,111.0,91.0,-106.0
127.0,125.0,128.0,127.0,128.0,142.0,124.0,129.0,33.0,-97.0,-70.0,127.0,127.0,127.0,111.0,91.0,-106.0
127.0,125.0,128.0,128.0,128.0,142.0,124.0,129.0,33.0,-97.0,-70.0,127.0,127.0,127.0,111.0,91.0,-106.0
127.0,125.0,128.0,128.0,128.0,142.0,124.0,129.0,33.0,-97.0,-70.0,127.0,127.0,127.0,111.0,91.0,-106.0
127.0,125.0,129.0,127.0,127.0,142.0,124.0,129.0,33.0,-97.0,-70.0,127.0,127.0,127.0,111.0,91.0,-106.0
127.0,125.0,129.0,127.0,127.0,142.0,123.0,129.0,33.0,-97.0,-70.0,127.0,127.0,127.0,111.0,91.0,-106.0
127.0,125.0,129.0,126.0,127.0,142.0,124.0,129.0,33.0,-97.0,-70.0,127.0,127.0,127.0,111.0,91.0,-106.0
127.0,125.0,129.0,126.0,127.0,142.0,124.0,129.0,33.0,-97.0,-70.0,127.0,127.0,127.0,111.0,91.0,-106.0
127.0,125.0,129.0,127.0,127.0,142.0,124.0,129.0,33.0,-97.0,-70.0,127.0,127.0,127.0,111.0,91.0,-106.0
127.0,125.0,127.0,126.0,127.0,142.0,125.0,126.0,33.0,-97.0,-70.0,127.0,127.0,127.0,111.0,90.0,-106.0
127.0,125.0,127.0,126.0,127.0,142.0,125.0,126.0,33.0,-97.0,-70.0,127.0,127.0,127.0,111.0,90.0,-106.0
127.0,125.0,127.0,126.0,127.0,142.0,125.0,126.0,33.0,-97.0,-70.0,127.0,127.0,127.0,111.0,90.0,-106.0
127.0,125.0,127.0,126.0,127.0,142.0,124.0,126.0,33.0,-97.0,-70.0,127.0,127.0,127.0,111.0,90.0,-106.0
127.0,125.0,127.0,127.0,127.0,142.0,125.0,127.0,33.0,-97.0,-70.0,127.0,127.0,127.0,111.0,90.0,-106.0
127.0,125.0,127.0,126.0,127.0,142.0,124.0,126.0,33.0,-97.0,-70.0,127.0,127.0,127.0,111.0,90.0,-106.0
127.0,125.0,127.0,126.0,127.0,142.0,125.0,127.0,33.0,-97.0,-70.0,127.0,127.0,127.0,111.0,90.0,-106.0
127.0,125.0,127.0,126.0,127.0,142.0,125.0,127.0,33.0,-97.0,-70.0,127.0,127.0,127.0,111.0,90.0,-106.0
127.0,125.0,127.0,126.0,127.0,142.0,125.0,126.0,33.0,-97.0,-70.0,127.0,127.0,127.0,111.0,90.0,-106.0
127.0,125.0,127.0,126.0,127.0,142.0,125.0,126.0,33.0,-97.0,-70.0,127.0,127.0,127.0,111.0,90.0,-106.0
127.0,125.0,127.0,125.0,126.0,141.0,122.0,126.0,34.0,-97.0,-70.0,127.0,127.0,127.0,111.0,90.0,-106.0
127.0,125.0,127.0,125.0,126.0,141.0,122.0,126.0,34.0,-97.0,-70.0,127.0,127.0,127.0,111.0,90.0,-106.0
127.0,125.0,127.0,125.0,126.0,141.0,122.0,126.0,34.0,-97.0,-70.0,127.0,127.0,127.0,111.0,90.0,-106.0
127.0,125.0,127.0,125.0,126.0,141.0,123.0,126.0,34.0,-97.0,-70.0,127.0,127.0,127.0,111.0,90.0,-106.0
127.0,125.0,127.0,125.0,126.0,141.0,123.0,126.0,34.0,-97.0,-70.0,127.0,127.0,127.0,111.0,90.0,-106.0
127.0,125.0,127.0,125.0,126.0,141.0,122.0,126.0,34.0,-97.0,-70.0,127.0,127.0,127.0,111.0,90.0,-106.0
127.0,125.0,127.0,125.0,126.0,141.0,122.0,126.0,34.0,-97.0,-70.0,127.0,127.0,127.0,111.0,90.0,-106.0
127.0,125.0,127.0,125.0,126.0,141.0,122.0,126.0,34.0,-97.0,-70.0,127.0,127.0,127.0,111.0,90.0,-106.0
127.0,125.0,127.0,125.0,126.0,141.0,122.0,126.0,34.0,-97.0,-70.0,127.0,127.0,127.0,111.0,90.0,-106.0
127.0,125.0,127.0,125.0,126.0,141.0,122.0,126.0,34.0,-97.0,-70.0,127.0,127.0,127.0,111.0,90.0,-106.0
127.0,125.0,127.0,125.0,125.0,139.0,119.0,126.0,34.0,-97.0,-70.0,127.0,127.0,127.0,110.0,90.0,-106.0
127.0,125.0,127.0,125.0,125.0,139.0,119.0,126.0,34.0,-97.0,-70.0,127.0,127.0,127.0,110.0,90.0,-106.0
127.0,125.0,127.0,125.0,125.0,139.0,120.0,126.0,34.0,-97.0,-70.0,127.0,127.0,127.0,110.0,90.0,-106.0
127.0,125.0,127.0,125.0,125.0,139.0,120.0,126.0,34.0,-97.0,-70.0,127.0,127.0,127.0,110.0,90.0,-106.0
127.0,125.0,127.0,125.0,125.0,139.0,119.0,126.0,34.0,-97.0,-70.0,127.0,127.0,127.0,110.0,90.0,-106.0
127.0,125.0,127.0,125.0,125.0,139.0,119.0,126.0,34.0,-97.0,-70.0,127.0,127.0,127.0,110.0,90.0,-106.0
127.0,125.0,127.0,125.0,125.0,139.0,119.0,126.0,34.0,-97.0,-70.0,127.0,127.0,127.0,110.0,90.0,-106.0
127.0,125.0,127.0,125.0,124.0,139.0,118.0,126.0,34.0,-97.0,-70.0,127.0,127.0,127.0,110.0,90.0,-106.0
127.0,125.0,127.0,125.0,125.0,139.0,118.0,126.0,34.0,-97.0,-70.0,127.0,127.0,127.0,110.0,90.0,-106.0
127.0,125.0,127.0,125.0,125.0,139.0,118.0,126.0,34.0,-97.0,-70.0,127.0,127.0,127.0,110.0,90.0,-106.0
127.0,125.0,127.0,123.0,123.0,135.0,116.0,126.0,34.0,-96.0,-69.0,127.0,127.0,127.0,110.0,90.0,-106.0
127.0,125.0,127.0,124.0,123.0,137.0,115.0,126.0,34.0,-96.0,-69.0,127.0,127.0,127.0,110.0,90.0,-106.0
127.0,125.0,127.0,123.0,123.0,136.0,115.0,126.0,34.0,-96.0,-69.0,127.0,127.0,127.0,110.0,90.0,-106.0
127.0,125.0,127.0,123.0,123.0,136.0,114.0,126.0,34.0,-96.0,-69.0,127.0,127.0,127.0,110.0,90.0,-106.0
127.0,125.0,127.0,123.0,123.0,136.0,114.0,126.0,34.0,-96.0,-69.0,127.0,127.0,127.0,110.0,90.0,-106.0
127.0,125.0,127.0,123.0,123.0,136.0,113.0,126.0,34.0,-96.0,-69.0,127.0,127.0,127.0,110.0,90.0,-106.0
127.0,125.0,127.0,123.0,123.0,136.0,113.0,126.0,34.0,-96.0,-69.0,127.0,127.0,127.0,110.0,90.0,-106.0
127.0,125.0,127.0,123.0,123.0,135.0,113.0,126.0,34.0,-96.0,-69.0,127.0,127.0,127.0,110.0,90.0,-106.0
127.0,125.0,127.0,123.0,123.0,135.0,113.0,126.0,34.0,-96.0,-69.0,127.0,127.0,127.0,110.0,90.0,-106.0
127.0,125.0,127.0,123.0,123.0,135.0,112.0,126.0,34.0,-96.0,-69.0,127.0,127.0,127.0,110.0,90.0,-106.0
126.0,124.0,127.0,122.0,124.0,185.0,149.0,124.0,33.0,-96.0,-69.0,126.0,127.0,127.0,109.0,90.0,-106.0
127.0,124.0,127.0,122.0,124.0,186.0,151.0,124.0,33.0,-96.0,-69.0,126.0,127.0,127.0,109.0,90.0,-106.0
126.0,124.0,127.0,122.0,124.0,187.0,153.0,124.0,33.0,-96.0,-69.0,126.0,127.0,127.0,109.0,90.0,-106.0
126.0,124.0,127.0,121.0,124.0,189.0,155.0,124.0,33.0,-96.0,-69.0,126.0,127.0,127.0,109.0,90.0,-106.0
126.0,124.0,127.0,121.0,124.0,190.0,157.0,124.0,33.0,-96.0,-69.0,126.0,127.0,127.0,109.0,90.0,-106.0
126.0,124.0,127.0,121.0,124.0,191.0,155.0,124.0,33.0,-96.0,-69.0,126.0,127.0,127.0,109.0,90.0,-106.0
126.0,124.0,126.0,121.0,124.0,192.0,153.0,124.0,33.0,-96.0,-69.0,126.0,127.0,127.0,109.0,90.0,-106.0
126.0,124.0,126.0,121.0,124.0,193.0,154.0,124.0,33.0,-96.0,-69.0,126.0,127.0,127.0,109.0,90.0,-106.0
127.0,124.0,126.0,121.0,124.0,194.0,156.0,124.0,33.0,-96.0,-69.0,126.0,127.0,127.0,109.0,90.0,-106.0
127.0,124.0,126.0,121.0,124.0,195.0,157.0,124.0,33.0,-96.0,-69.0,126.0,127.0,127.0,109.0,90.0,-106.0
127.0,124.0,126.0,119.0,127.0,169.0,140.0,124.0,32.0,-96.0,-69.0,126.0,127.0,127.0,109.0,90.0,-106.0
127.0,124.0,126.0,119.0,127.0,168.0,138.0,124.0,32.0,-96.0,-69.0,126.0,127.0,127.0,109.0,90.0,-106.0
127.0,124.0,126.0,119.0,127.0,167.0,138.0,124.0,32.0,-96.0,-69.0,126.0,127.0,127.0,109.0,90.0,-106.0
127.0,124.0,125.0,119.0,127.0,166.0,141.0,124.0,32.0,-96.0,-69.0,126.0,127.0,127.0,109.0,90.0,-106.0
127.0,124.0,125.0,119.0,127.0,165.0,140.0,124.0,32.0,-96.0,-69.0,126.0,127.0,127.0,109.0,90.0,-106.0
127.0,124.0,125.0,119.0,127.0,164.0,139.0,124.0,32.0,-96.0,-69.0,126.0,127.0,127.0,109.0,90.0,-106.0
127.0,124.0,125.0,119.0,127.0,163.0,138.0,124.0,32.0,-96.0,-69.0,126.0,127.0,127.0,109.0,90.0,-106.0
127.0,124.0,125.0,119.0,127.0,162.0,136.0,124.0,32.0,-96.0,-69.0,126.0,127.0,127.0,109.0,90.0,-106.0
127.0,124.0,125.0,119.0,127.0,161.0,135.0,124.0,32.0,-96.0,-69.0,126.0,127.0,127.0,109.0,90.0,-106.0
127.0,124.0,126.0,120.0,127.0,170.0,141.0,123.0,32.0,-96.0,-69.0,126.0,127.0,127.0,109.0,90.0,-106.0
127.0,125.0,124.0,121.0,129.0,139.0,119.0,125.0,32.0,-95.0,-68.0,126.0,127.0,127.0,109.0,90.0,-106.0
127.0,125.0,124.0,121.0,129.0,138.0,118.0,125.0,32.0,-95.0,-68.0,126.0,127.0,127.0,109.0,90.0,-106.0
127.0,125.0,124.0,121.0,129.0,137.0,116.0,125.0,32.0,-95.0,-68.0,126.0,127.0,127.0,109.0,90.0,-106.0
127.0,125.0,124.0,121.0,129.0,137.0,115.0,125.0,32.0,-95.0,-68.0,126.0,127.0,127.0,109.0,90.0,-106.0
127.0,125.0,124.0,121.0,129.0,136.0,114.0,125.0,32.0,-95.0,-68.0,126.0,127.0,127.0,109.0,90.0,-106.0
127.0,125.0,124.0,121.0,129.0,136.0,114.0,125.0,32.0,-95.0,-68.0,126.0,127.0,127.0,109.0,90.0,-106.0
127.0,125.0,124.0,121.0,129.0,135.0,112.0,125.0,32.0,-95.0,-68.0,126.0,127.0,127.0,109.0,90.0,-106.0
127.0,125.0,124.0,121.0,129.0,135.0,115.0,125.0,32.0,-95.0,-68.0,126.0,127.0,127.0,109.0,90.0,-106.0
127.0,125.0,123.0,121.0,129.0,140.0,121.0,125.0,32.0,-95.0,-68.0,126.0,127.0,127.0,109.0,90.0,-106.0
127.0,125.0,124.0,121.0,129.0,139.0,120.0,125.0,32.0,-95.0,-68.0,126.0,127.0,127.0,109.0,90.0,-106.0
128.0,126.0,127.0,121.0,130.0,120.0,101.0,126.0,33.0,-95.0,-67.0,126.0,127.0,127.0,109.0,90.0,-106.0
128.0,126.0,127.0,121.0,130.0,119.0,100.0,126.0,33.0,-95.0,-67.0,126.0,127.0,127.0,109.0,90.0,-106.0
128.0,126.0,127.0,121.0,130.0,119.0,100.0,126.0,33.0,-95.0,-67.0,126.0,127.0,127.0,109.0,90.0,-106.0
128.0,126.0,127.0,121.0,130.0,119.0,100.0,126.0,33.0,-95.0,-67.0,126.0,127.0,127.0,109.0,90.0,-106.0
128.0,126.0,127.0,121.0,131.0,119.0,100.0,126.0,33.0,-95.0,-67.0,126.0,127.0,127.0,109.0,90.0,-106.0
128.0,126.0,127.0,121.0,131.0,119.0,99.0,126.0,33.0,-95.0,-67.0,126.0,127.0,127.0,109.0,90.0,-106.0
128.0,126.0,127.0,121.0,131.0,119.0,99.0,126.0,33.0,-95.0,-67.0,126.0,127.0,127.0,109.0,90.0,-106.0
128.0,126.0,127.0,121.0,130.0,120.0,101.0,126.0,33.0,-95.0,-67.0,126.0,127.0,127.0,109.0,90.0,-106.0
128.0,126.0,127.0,121.0,130.0,120.0,101.0,126.0,33.0,-95.0,-67.0,126.0,127.0,127.0,109.0,90.0,-106.0
128.0,126.0,127.0,121.0,130.0,120.0,101.0,126.0,33.0,-95.0,-67.0,126.0,127.0,127.0,109.0,90.0,-106.0
128.0,126.0,128.0,122.0,131.0,117.0,103.0,127.0,33.0,-96.0,-66.0,126.0,126.0,127.0,109.0,90.0,-106.0
128.0,126.0,128.0,122.0,131.0,117.0,104.0,127.0,33.0,-96.0,-66.0,126.0,126.0,127.0,109.0,90.0,-106.0
128.0,126.0,128.0,122.0,131.0,117.0,104.0,127.0,33.0,-96.0,-66.0,126.0,126.0,127.0,109.0,90.0,-106.0
128.0,126.0,128.0,123.0,131.0,117.0,103.0,127.0,33.0,-96.0,-66.0,126.0,126.0,127.0,109.0,90.0,-106.0
128.0,126.0,128.0,123.0,131.0,117.0,103.0,127.0,33.0,-96.0,-66.0,126.0,126.0,127.0,109.0,90.0,-106.0
128.0,126.0,129.0,123.0,131.0,117.0,102.0,127.0,33.0,-96.0,-66.0,126.0,126.0,127.0,109.0,90.0,-106.0
128.0,126.0,128.0,122.0,131.0,117.0,104.0,127.0,33.0,-96.0,-66.0,126.0,126.0,127.0,109.0,90.0,-106.0
128.0,126.0,128.0,122.0,131.0,117.0,104.0,127.0,33.0,-96.0,-66.0,126.0,126.0,127.0,109.0,90.0,-106.0
128.0,126.0,128.0,122.0,131.0,117.0,104.0,127.0,33.0,-96.0,-66.0,126.0,126.0,127.0,109.0,90.0,-106.0
128.0,126.0,128.0,122.0,130.0,117.0,103.0,127.0,33.0,-96.0,-66.0,126.0,126.0,127.0,109.0,90.0,-106.0
128.0,126.0,129.0,120.0,130.0,113.0,97.0,128.0,34.0,-96.0,-66.0,125.0,126.0,127.0,109.0,90.0,-106.0
128.0,126.0,129.0,119.0,130.0,113.0,96.0,128.0,34.0,-96.0,-66.0,125.0,126.0,127.0,109.0,90.0,-106.0
128.0,126.0,129.0,119.0,130.0,113.0,96.0,128.0,34.0,-96.0,-66.0,125.0,126.0,127.0,109.0,90.0,-106.0
128.0,126.0,129.0,119.0,130.0,113.0,96.0,128.0,34.0,-96.0,-66.0,125.0,126.0,127.0,109.0,90.0,-106.0
128.0,127.0,129.0,119.0,130.0,112.0,96.0,128.0,34.0,-96.0,-66.0,125.0,126.0,127.0,109.0,90.0,-106.0
128.0,126.0,128.0,121.0,130.0,114.0,99.0,128.0,34.0,-96.0,-66.0,125.0,126.0,127.0,109.0,90.0,-106.0
128.0,126.0,128.0,120.0,130.0,114.0,98.0,128.0,34.0,-96.0,-66.0,125.0,126.0,127.0,109.0,90.0,-106.0
128.0,126.0,128.0,120.0,130.0,114.0,98.0,128.0,34.0,-96.0,-66.0,125.0,126.0,127.0,109.0,90.0,-106.0
128.0,126.0,129.0,120.0,130.0,113.0,98.0,128.0,34.0,-96.0,-66.0,125.0,126.0,127.0,109.0,90.0,-106.0
128.0,126.0,129.0,120.0,130.0,113.0,97.0,128.0,34.0,-96.0,-66.0,125.0,126.0,127.0,109.0,90.0,-106.0
127.0,126.0,128.0,117.0,130.0,109.0,97.0,128.0,34.0,-97.0,-65.0,125.0,126.0,127.0,109.0,90.0,-106.0
127.0,126.0,128.0,117.0,130.0,109.0,97.0,128.0,34.0,-97.0,-65.0,125.0,126.0,127.0,109.0,90.0,-106.0
127.0,126.0,128.0,117.0,130.0,109.0,97.0,128.0,34.0,-97.0,-65.0,125.0,126.0,127.0,109.0,90.0,-106.0
127.0,127.0,129.0,118.0,131.0,110.0,98.0,128.0,34.0,-97.0,-65.0,125.0,126.0,127.0,109.0,90.0,-106.0
127.0,126.0,128.0,118.0,131.0,109.0,98.0,128.0,34.0,-97.0,-65.0,125.0,126.0,127.0,109.0,90.0,-106.0
127.0,126.0,128.0,118.0,131.0,109.0,98.0,128.0,34.0,-97.0,-65.0,125.0,126.0,127.0,109.0,90.0,-106.0
127.0,126.0,128.0,118.0,131.0,109.0,97.0,128.0,34.0,-97.0,-65.0,125.0,126.0,127.0,109.0,90.0,-106.0
127.0,126.0,128.0,118.0,131.0,109.0,97.0,128.0,34.0,-97.0,-65.0,125.0,126.0,127.0,109.0,90.0,-106.0
127.0,126.0,128.0,118.0,131.0,109.0,97.0,128.0,34.0,-97.0,-65.0,125.0,126.0,127.0,109.0,90.0,-106.0
127.0,126.0,128.0,118.0,130.0,109.0,97.0,128.0,34.0,-97.0,-65.0,125.0,126.0,127.0,109.0,90.0,-106.0
127.0,125.0,127.0,118.0,129.0,108.0,95.0,128.0,34.0,-98.0,-65.0,125.0,126.0,127.0,109.0,90.0,-106.0
127.0,125.0,127.0,118.0,129.0,108.0,96.0,128.0,34.0,-98.0,-65.0,125.0,126.0,127.0,109.0,90.0,-106.0
127.0,126.0,128.0,118.0,130.0,109.0,96.0,128.0,34.0,-98.0,-65.0,125.0,126.0,127.0,109.0,90.0,-106.0
127.0,125.0,128.0,118.0,129.0,108.0,96.0,128.0,34.0,-98.0,-65.0,125.0,126.0,127.0,109.0,90.0,-106.0
127.0,125.0,128.0,118.0,129.0,108.0,96.0,128.0,34.0,-98.0,-65.0,125.0,126.0,127.0,109.0,90.0,-106.0
127.0,125.0,128.0,118.0,129.0,108.0,96.0,128.0,34.0,-98.0,-65.0,125.0,126.0,127.0,109.0,90.0,-106.0
127.0,125.0,128.0,118.0,129.0,108.0,95.0,128.0,34.0,-98.0,-65.0,125.0,126.0,127.0,109.0,90.0,-106.0
127.0,125.0,128.0,118.0,129.0,108.0,95.0,128.0,34.0,-98.0,-65.0,125.0,126.0,127.0,109.0,90.0,-106.0
127.0,125.0,128.0,118.0,129.0,108.0,95.0,128.0,34.0,-98.0,-65.0,125.0,126.0,127.0,109.0,90.0,-106.0
127.0,125.0,127.0,118.0,129.0,108.0,95.0,128.0,34.0,-98.0,-65.0,125.0,126.0,127.0,109.0,90.0,-106.0
127.0,126.0,126.0,111.0,128.0,109.0,96.0,127.0,34.0,-98.0,-64.0,125.0,126.0,127.0,109.0,90.0,-106.0
127.0,126.0,126.0,112.0,128.0,109.0,97.0,127.0,34.0,-98.0,-64.0,125.0,126.0,127.0,109.0,90.0,-106.0
127.0,125.0,126.0,112.0,128.0,109.0,97.0,127.0,34.0,-98.0,-64.0,125.0,126.0,127.0,109.0,90.0,-106.0
127.0,125.0,126.0,111.0,128.0,109.0,97.0,127.0,34.0,-98.0,-64.0,125.0,126.0,127.0,109.0,90.0,-106.0
127.0,125.0,126.0,111.0,128.0,109.0,97.0,127.0,34.0,-98.0,-64.0,125.0,126.0,127.0,109.0,90.0,-106.0
127.0,125.0,126.0,111.0,128.0,109.0,97.0,127.0,34.0,-98.0,-64.0,125.0,126.0,127.0,109.0,90.0,-106.0
127.0,125.0,126.0,111.0,128.0,109.0,97.0,127.0,34.0,-98.0,-64.0,125.0,126.0,127.0,109.0,90.0,-106.0
127.0,125.0,126.0,111.0,128.0,109.0,97.0,127.0,34.0,-98.0,-64.0,125.0,126.0,127.0,109.0,90.0,-106.0
127.0,126.0,126.0,111.0,128.0,109.0,97.0,127.0,34.0,-98.0,-64.0,125.0,126.0,127.0,109.0,90.0,-106.0
127.0,126.0,126.0,111.0,128.0,109.0,97.0,127.0,34.0,-98.0,-64.0,125.0,126.0,127.0,109.0,90.0,-106.0
127.0,126.0,126.0,111.0,127.0,108.0,94.0,127.0,35.0,-98.0,-64.0,125.0,126.0,127.0,109.0,90.0,-106.0
127.0,126.0,126.0,111.0,127.0,107.0,94.0,126.0,35.0,-98.0,-64.0,125.0,126.0,127.0,109.0,90.0,-106.0
127.0,126.0,126.0,111.0,127.0,107.0,94.0,127.0,35.0,-98.0,-64.0,125.0,126.0,127.0,109.0,90.0,-106.0
127.0,126.0,126.0,112.0,127.0,107.0,93.0,127.0,35.0,-98.0,-64.0,125.0,126.0,127.0,109.0,90.0,-106.0
127.0,126.0,126.0,112.0,127.0,107.0,93.0,127.0,35.0,-98.0,-64.0,125.0,126.0,127.0,109.0,90.0,-106.0
127.0,126.0,126.0,112.0,127.0,107.0,93.0,127.0,35.0,-98.0,-64.0,125.0,126.0,127.0,109.0,90.0,-106.0
127.0,126.0,126.0,112.0,127.0,107.0,93.0,127.0,35.0,-98.0,-64.0,125.0,126.0,127.0,109.0,90.0,-106.0
127.0,126.0,126.0,112.0,127.0,107.0,93.0,127.0,35.0,-98.0,-64.0,125.0,126.0,127.0,109.0,90.0,-106.0
127.0,126.0,126.0,112.0,127.0,107.0,94.0,127.0,35.0,-98.0,-64.0,125.0,126.0,127.0,109.0,90.0,-106.0
127.0,126.0,126.0,112.0,127.0,107.0,94.0,127.0,35.0,-98.0,-64.0,125.0,126.0,127.0,109.0,90.0,-106.0
127.0,126.0,129.0,110.0,128.0,114.0,98.0,127.0,36.0,-99.0,-64.0,125.0,126.0,127.0,109.0,90.0,-106.0
127.0,126.0,129.0,110.0,128.0,114.0,98.0,127.0,36.0,-99.0,-64.0,125.0,126.0,127.0,109.0,90.0,-106.0
127.0,126.0,129.0,110.0,128.0,114.0,98.0,127.0,36.0,-99.0,-64.0,125.0,126.0,127.0,109.0,90.0,-106.0
127.0,126.0,129.0,110.0,128.0,114.0,99.0,127.0,36.0,-99.0,-64.0,125.0,126.0,127.0,109.0,90.0,-106.0
127.0,126.0,129.0,110.0,128.0,114.0,98.0,127.0,36.0,-99.0,-64.0,125.0,126.0,127.0,109.0,90.0,-106.0
127.0,126.0,129.0,110.0,128.0,114.0,99.0,127.0,36.0,-99.0,-64.0,125.0,126.0,127.0,109.0,90.0,-106.0
127.0,126.0,129.0,110.0,128.0,115.0,99.0,127.0,36.0,-99.0,-64.0,125.0,126.0,127.0,109.0,90.0,-106.0
127.0,126.0,129.0,110.0,128.0,115.0,100.0,127.0,36.0,-99.0,-64.0,125.0,126.0,127.0,109.0,90.0,-106.0
127.0,126.0,129.0,110.0,128.0,115.0,100.0,127.0,36.0,-99.0,-64.0,125.0,126.0,127.0,109.0,90.0,-106.0
127.0,126.0,129.0,110.0,128.0,114.0,98.0,127.0,36.0,-99.0,-64.0,125.0,126.0,127.0,109.0,90.0,-106.0
127.0,126.0,128.0,105.0,126.0,117.0,103.0,128.0,37.0,-100.0,-63.0,125.0,126.0,127.0,109.0,90.0,-106.0
127.0,126.0,128.0,105.0,126.0,117.0,104.0,128.0,37.0,-100.0,-63.0,125.0,126.0,127.0,109.0,90.0,-106.0
127.0,126.0,128.0,104.0,126.0,117.0,103.0,128.0,37.0,-100.0,-63.0,125.0,126.0,127.0,109.0,90.0,-106.0
127.0,126.0,128.0,104.0,126.0,117.0,103.0,128.0,37.0,-100.0,-63.0,125.0,126.0,127.0,109.0,90.0,-106.0
127.0,126.0,128.0,104.0,126.0,116.0,103.0,128.0,37.0,-100.0,-63.0,125.0,126.0,127.0,109.0,90.0,-106.0
127.0,126.0,128.0,104.0,126.0,116.0,103.0,128.0,37.0,-100.0,-63.0,125.0,126.0,127.0,109.0,90.0,-106.0
127.0,126.0,128.0,104.0,126.0,116.0,103.0,128.0,37.0,-100.0,-63.0,125.0,126.0,127.0,109.0,90.0,-106.0
127.0,126.0,128.0,104.0,126.0,116.0,103.0,128.0,37.0,-100.0,-63.0,125.0,126.0,127.0,109.0,90.0,-106.0
127.0,126.0,128.0,105.0,126.0,117.0,104.0,128.0,37.0,-100.0,-63.0,125.0,126.0,127.0,109.0,90.0,-106.0
127.0,126.0,128.0,105.0,126.0,117.0,103.0,128.0,37.0,-100.0,-63.0,125.0,126.0,127.0,109.0,90.0,-106.0
126.0,126.0,128.0,108.0,125.0,115.0,100.0,127.0,38.0,-101.0,-63.0,125.0,126.0,127.0,109.0,90.0,-106.0
126.0,126.0,127.0,108.0,125.0,115.0,100.0,127.0,38.0,-101.0,-63.0,125.0,126.0,127.0,109.0,90.0,-106.0
126.0,126.0,127.0,108.0,125.0,115.0,100.0,127.0,38.0,-101.0,-63.0,125.0,126.0,127.0,109.0,90.0,-106.0
126.0,126.0,127.0,109.0,125.0,115.0,100.0,127.0,38.0,-101.0,-63.0,125.0,126.0,127.0,109.0,90.0,-106.0
126.0,126.0,127.0,109.0,125.0,115.0,101.0,127.0,38.0,-101.0,-63.0,125.0,126.0,127.0,109.0,90.0,-106.0
126.0,126.0,127.0,109.0,125.0,115.0,101.0,127.0,38.0,-101.0,-63.0,125.0,126.0,127.0,109.0,90.0,-106.0
126.0,126.0,127.0,109.0,125.0,116.0,101.0,127.0,38.0,-101.0,-63.0,125.0,126.0,127.0,109.0,90.0,-106.0
126.0,126.0,127.0,108.0,125.0,115.0,100.0,127.0,38.0,-101.0,-63.0,125.0,126.0,127.0,109.0,90.0,-106.0
126.0,126.0,127.0,108.0,125.0,115.0,100.0,127.0,38.0,-101.0,-63.0,125.0,126.0,127.0,109.0,90.0,-106.0
126.0,126.0,127.0,108.0,125.0,115.0,100.0,127.0,38.0,-101.0,-63.0,125.0,126.0,127.0,109.0,90.0,-106.0
127.0,125.0,127.0,111.0,125.0,116.0,101.0,128.0,39.0,-102.0,-62.0,125.0,126.0,127.0,109.0,90.0,-106.0
127.0,125.0,127.0,111.0,125.0,116.0,101.0,128.0,39.0,-102.0,-62.0,125.0,126.0,127.0,109.0,90.0,-106.0
127.0,126.0,127.0,111.0,125.0,116.0,102.0,128.0,39.0,-102.0,-62.0,125.0,126.0,127.0,109.0,90.0,-106.0
127.0,126.0,128.0,111.0,125.0,116.0,102.0,128.0,39.0,-102.0,-62.0,125.0,126.0,127.0,109.0,90.0,-106.0
127.0,126.0,127.0,111.0,125.0,116.0,101.0,128.0,39.0,-102.0,-62.0,125.0,126.0,127.0,109.0,90.0,-106.0
127.0,126.0,127.0,111.0,125.0,116.0,101.0,128.0,39.0,-102.0,-62.0,125.0,126.0,127.0,109.0,90.0,-106.0
127.0,125.0,126.0,112.0,125.0,116.0,103.0,128.0,39.0,-102.0,-62.0,125.0,126.0,127.0,109.0,90.0,-106.0
127.0,125.0,127.0,111.0,125.0,116.0,102.0,128.0,39.0,-102.0,-62.0,125.0,126.0,127.0,109.0,90.0,-106.0
127.0,125.0,127.0,111.0,125.0,116.0,102.0,128.0,39.0,-102.0,-62.0,125.0,126.0,127.0,109.0,90.0,-106.0
127.0,125.0,127.0,111.0,125.0,116.0,102.0,128.0,39.0,-102.0,-62.0,125.0,126.0,127.0,109.0,90.0,-106.0
126.0,126.0,127.0,112.0,125.0,116.0,103.0,128.0,39.0,-103.0,-62.0,125.0,126.0,127.0,109.0,90.0,-106.0
126.0,126.0,127.0,112.0,125.0,116.0,103.0,128.0,39.0,-103.0,-62.0,125.0,126.0,127.0,109.0,90.0,-106.0
126.0,126.0,127.0,112.0,125.0,117.0,102.0,128.0,39.0,-103.0,-62.0,125.0,126.0,127.0,109.0,90.0,-106.0
126.0,125.0,127.0,112.0,124.0,117.0,103.0,128.0,39.0,-103.0,-62.0,125.0,126.0,127.0,109.0,90.0,-106.0
126.0,125.0,127.0,112.0,124.0,117.0,104.0,128.0,39.0,-103.0,-62.0,125.0,126.0,127.0,109.0,90.0,-106.0
126.0,126.0,128.0,112.0,125.0,116.0,101.0,128.0,39.0,-103.0,-62.0,125.0,126.0,127.0,109.0,90.0,-106.0
126.0,126.0,128.0,112.0,125.0,116.0,102.0,128.0,39.0,-103.0,-62.0,125.0,126.0,127.0,109.0,90.0,-106.0
126.0,126.0,127.0,112.0,125.0,116.0,102.0,128.0,39.0,-103.0,-62.0,125.0,126.0,127.0,109.0,90.0,-106.0
127.0,126.0,127.0,112.0,125.0,116.0,102.0,128.0,39.0,-103.0,-62.0,125.0,126.0,127.0,109.0,90.0,-106.0
127.0,126.0,127.0,112.0,125.0,116.0,102.0,128.0,39.0,-103.0,-62.0,125.0,126.0,127.0,109.0,90.0,-106.0
126.0,125.0,128.0,115.0,125.0,122.0,105.0,128.0,39.0,-104.0,-61.0,125.0,126.0,127.0,109.0,90.0,-106.0
126.0,125.0,128.0,115.0,125.0,122.0,105.0,128.0,39.0,-104.0,-61.0,125.0,126.0,127.0,109.0,90.0,-106.0
126.0,126.0,128.0,115.0,125.0,122.0,105.0,128.0,39.0,-104.0,-61.0,125.0,126.0,127.0,109.0,90.0,-106.0
126.0,126.0,128.0,115.0,125.0,123.0,105.0,128.0,39.0,-104.0,-61.0,125.0,126.0,127.0,109.0,90.0,-106.0
126.0,126.0,128.0,115.0,125.0,121.0,103.0,128.0,39.0,-104.0,-61.0,125.0,126.0,127.0,109.0,90.0,-106.0
126.0,125.0,128.0,115.0,125.0,121.0,104.0,128.0,39.0,-104.0,-61.0,125.0,126.0,127.0,109.0,90.0,-106.0
126.0,126.0,128.0,115.0,125.0,121.0,104.0,128.0,39.0,-104.0,-61.0,125.0,126.0,127.0,109.0,90.0,-106.0
126.0,126.0,128.0,115.0,125.0,122.0,104.0,128.0,39.0,-104.0,-61.0,125.0,126.0,127.0,109.0,90.0,-106.0
126.0,125.0,128.0,115.0,125.0,122.0,104.0,128.0,39.0,-104.0,-61.0,125.0,126.0,127.0,109.0,90.0,-106.0
126.0,125.0,128.0,115.0,125.0,122.0,105.0,128.0,39.0,-104.0,-61.0,125.0,126.0,127.0,109.0,90.0,-106.0
126.0,126.0,127.0,115.0,129.0,126.0,112.0,128.0,40.0,-105.0,-61.0,125.0,126.0,127.0,109.0,90.0,-106.0
126.0,126.0,126.0,115.0,129.0,126.0,111.0,128.0,40.0,-105.0,-61.0,125.0,126.0,127.0,109.0,90.0,-106.0
126.0,126.0,126.0,115.0,129.0,126.0,111.0,128.0,40.0,-105.0,-61.0,125.0,126.0,127.0,109.0,90.0,-106.0
126.0,126.0,127.0,116.0,130.0,127.0,107.0,128.0,40.0,-105.0,-61.0,125.0,126.0,127.0,109.0,90.0,-106.0
126.0,126.0,127.0,116.0,130.0,127.0,112.0,128.0,40.0,-105.0,-61.0,125.0,126.0,127.0,109.0,90.0,-106.0
126.0,126.0,127.0,115.0,130.0,127.0,113.0,128.0,40.0,-105.0,-61.0,125.0,126.0,127.0,109.0,90.0,-106.0
126.0,126.0,127.0,115.0,130.0,126.0,112.0,128.0,40.0,-105.0,-61.0,125.0,126.0,127.0,109.0,90.0,-106.0
126.0,126.0,127.0,115.0,129.0,126.0,112.0,128.0,40.0,-105.0,-61.0,125.0,126.0,127.0,109.0,90.0,-106.0
126.0,126.0,127.0,115.0,129.0,126.0,112.0,128.0,40.0,-105.0,-61.0,125.0,126.0,127.0,109.0,90.0,-106.0
126.0,126.0,127.0,115.0,129.0,126.0,111.0,128.0,40.0,-105.0,-61.0,125.0,126.0,127.0,109.0,90.0,-106.0
126.0,127.0,127.0,119.0,125.0,125.0,109.0,127.0,40.0,-106.0,-60.0,125.0,126.0,127.0,110.0,90.0,-106.0
126.0,127.0,127.0,119.0,126.0,125.0,110.0,127.0,40.0,-106.0,-60.0,125.0,126.0,127.0,110.0,90.0,-106.0
126.0,126.0,127.0,119.0,125.0,126.0,112.0,128.0,40.0,-106.0,-60.0,125.0,126.0,127.0,110.0,90.0,-106.0
126.0,126.0,127.0,119.0,125.0,126.0,111.0,128.0,40.0,-106.0,-60.0,125.0,126.0,127.0,110.0,90.0,-106.0
126.0,127.0,127.0,119.0,125.0,125.0,111.0,128.0,40.0,-106.0,-60.0,125.0,126.0,127.0,110.0,90.0,-106.0
126.0,127.0,127.0,119.0,125.0,125.0,111.0,128.0,40.0,-106.0,-60.0,125.0,126.0,127.0,110.0,90.0,-106.0
126.0,127.0,127.0,119.0,126.0,125.0,110.0,128.0,40.0,-106.0,-60.0,125.0,126.0,127.0,110.0,90.0,-106.0
126.0,127.0,127.0,119.0,125.0,125.0,110.0,128.0,40.0,-106.0,-60.0,125.0,126.0,127.0,110.0,90.0,-106.0
126.0,126.0,127.0,119.0,125.0,125.0,110.0,128.0,40.0,-106.0,-60.0,125.0,126.0,127.0,110.0,90.0,-106.0
126.0,126.0,127.0,119.0,125.0,125.0,110.0,128.0,40.0,-106.0,-60.0,125.0,126.0,127.0,110.0,90.0,-106.0
127.0,126.0,128.0,121.0,125.0,122.0,104.0,126.0,41.0,-106.0,-59.0,125.0,126.0,127.0,111.0,90.0,-106.0
126.0,126.0,128.0,121.0,125.0,122.0,105.0,126.0,41.0,-106.0,-59.0,125.0,126.0,127.0,111.0,90.0,-106.0
126.0,126.0,128.0,121.0,125.0,122.0,105.0,126.0,41.0,-106.0,-59.0,125.0,126.0,127.0,111.0,90.0,-106.0
126.0,126.0,128.0,121.0,125.0,122.0,105.0,126.0,41.0,-106.0,-59.0,125.0,126.0,127.0,111.0,90.0,-106.0
127.0,127.0,128.0,121.0,125.0,122.0,105.0,126.0,41.0,-106.0,-59.0,125.0,126.0,127.0,111.0,90.0,-106.0
127.0,126.0,128.0,121.0,125.0,122.0,105.0,126.0,41.0,-106.0,-59.0,125.0,126.0,127.0,111.0,90.0,-106.0
127.0,126.0,128.0,121.0,125.0,122.0,105.0,126.0,41.0,-106.0,-59.0,125.0,126.0,127.0,111.0,90.0,-106.0
126.0,126.0,128.0,121.0,125.0,122.0,104.0,126.0,41.0,-106.0,-59.0,125.0,126.0,127.0,111.0,90.0,-106.0
127.0,126.0,128.0,121.0,125.0,122.0,104.0,126.0,41.0,-106.0,-59.0,125.0,126.0,127.0,111.0,90.0,-106.0
126.0,126.0,128.0,121.0,125.0,122.0,104.0,126.0,41.0,-106.0,-59.0,125.0,126.0,127.0,111.0,90.0,-106.0
127.0,127.0,128.0,122.0,124.0,116.0,102.0,126.0,41.0,-107.0,-58.0,125.0,126.0,127.0,111.0,90.0,-106.0
127.0,127.0,128.0,122.0,124.0,116.0,101.0,126.0,41.0,-107.0,-58.0,125.0,126.0,127.0,111.0,90.0,-106.0
126.0,127.0,128.0,122.0,124.0,115.0,101.0,126.0,41.0,-107.0,-58.0,125.0,126.0,127.0,111.0,90.0,-106.0
127.0,127.0,128.0,122.0,124.0,115.0,100.0,126.0,41.0,-107.0,-58.0,125.0,126.0,127.0,111.0,90.0,-106.0
127.0,127.0,128.0,122.0,124.0,115.0,100.0,126.0,41.0,-107.0,-58.0,125.0,126.0,127.0,111.0,90.0,-106.0
127.0,127.0,128.0,122.0,124.0,115.0,100.0,126.0,41.0,-107.0,-58.0,125.0,126.0,127.0,111.0,90.0,-106.0
127.0,127.0,128.0,122.0,124.0,115.0,100.0,126.0,41.0,-107.0,-58.0,125.0,126.0,127.0,111.0,90.0,-106.0
126.0,127.0,128.0,122.0,124.0,115.0,99.0,126.0,41.0,-107.0,-58.0,125.0,126.0,127.0,111.0,90.0,-106.0
126.0,127.0,128.0,122.0,124.0,115.0,99.0,126.0,41.0,-107.0,-58.0,125.0,126.0,127.0,111.0,90.0,-106.0
127.0,127.0,128.0,122.0,125.0,115.0,99.0,126.0,41.0,-107.0,-58.0,125.0,126.0,127.0,111.0,90.0,-106.0
126.0,126.0,128.0,124.0,125.0,119.0,100.0,126.0,42.0,-107.0,-57.0,125.0,126.0,127.0,111.0,90.0,-106.0
126.0,126.0,128.0,123.0,125.0,119.0,100.0,126.0,42.0,-107.0,-57.0,125.0,126.0,127.0,111.0,90.0,-106.0
126.0,126.0,128.0,123.0,125.0,119.0,100.0,126.0,42.0,-107.0,-57.0,125.0,126.0,127.0,111.0,90.0,-106.0
126.0,126.0,128.0,123.0,125.0,119.0,100.0,126.0,42.0,-107.0,-57.0,125.0,126.0,127.0,111.0,90.0,-106.0
126.0,126.0,128.0,123.0,125.0,120.0,100.0,126.0,42.0,-107.0,-57.0,125.0,126.0,127.0,111.0,90.0,-106.0
126.0,126.0,128.0,123.0,125.0,120.0,100.0,126.0,42.0,-107.0,-57.0,125.0,126.0,127.0,111.0,90.0,-106.0
127.0,126.0,128.0,123.0,125.0,120.0,100.0,126.0,42.0,-107.0,-57.0,125.0,126.0,127.0,111.0,90.0,-106.0
127.0,126.0,128.0,123.0,125.0,120.0,101.0,126.0,42.0,-107.0,-57.0,125.0,126.0,127.0,111.0,90.0,-106.0
126.0,126.0,128.0,123.0,125.0,120.0,101.0,126.0,42.0,-107.0,-57.0,125.0,126.0,127.0,111.0,90.0,-106.0
126.0,126.0,128.0,124.0,125.0,119.0,100.0,126.0,42.0,-107.0,-57.0,125.0,126.0,127.0,111.0,90.0,-106.0
127.0,126.0,128.0,124.0,126.0,125.0,109.0,127.0,43.0,-107.0,-56.0,126.0,127.0,127.0,112.0,90.0,-106.0
126.0,126.0,128.0,123.0,126.0,125.0,109.0,127.0,43.0,-107.0,-56.0,126.0,127.0,127.0,112.0,90.0,-106.0
126.0,126.0,128.0,123.0,126.0,125.0,109.0,127.0,43.0,-107.0,-56.0,126.0,127.0,127.0,112.0,90.0,-106.0
126.0,126.0,128.0,123.0,126.0,125.0,109.0,127.0,43.0,-107.0,-56.0,126.0,127.0,127.0,112.0,90.0,-106.0
126.0,126.0,129.0,123.0,126.0,125.0,110.0,127.0,43.0,-107.0,-56.0,126.0,127.0,127.0,112.0,90.0,-106.0
126.0,126.0,129.0,123.0,126.0,125.0,110.0,127.0,43.0,-107.0,-56.0,126.0,127.0,127.0,112.0,90.0,-106.0
127.0,126.0,129.0,123.0,126.0,125.0,110.0,127.0,43.0,-107.0,-56.0,126.0,127.0,127.0,112.0,90.0,-106.0
127.0,126.0,129.0,123.0,126.0,125.0,110.0,127.0,43.0,-107.0,-56.0,126.0,127.0,127.0,112.0,90.0,-106.0
126.0,126.0,129.0,124.0,126.0,125.0,109.0,127.0,43.0,-107.0,-56.0,126.0,127.0,127.0,112.0,90.0,-106.0
127.0,126.0,129.0,124.0,126.0,125.0,109.0,127.0,43.0,-107.0,-56.0,126.0,127.0,127.0,112.0,90.0,-106.0
126.0,126.0,128.0,124.0,125.0,128.0,107.0,127.0,43.0,-108.0,-56.0,126.0,127.0,127.0,112.0,90.0,-106.0
126.0,126.0,128.0,124.0,125.0,128.0,107.0,127.0,43.0,-108.0,-56.0,126.0,127.0,127.0,112.0,90.0,-106.0
126.0,126.0,128.0,124.0,125.0,128.0,107.0,127.0,43.0,-108.0,-56.0,126.0,127.0,127.0,112.0,90.0,-106.0
126.0,126.0,128.0,124.0,125.0,128.0,108.0,127.0,43.0,-108.0,-56.0,126.0,127.0,127.0,112.0,90.0,-106.0
127.0,126.0,128.0,124.0,125.0,128.0,108.0,127.0,43.0,-108.0,-56.0,126.0,127.0,127.0,112.0,90.0,-106.0
127.0,126.0,128.0,124.0,125.0,129.0,108.0,127.0,43.0,-108.0,-56.0,126.0,127.0,127.0,112.0,90.0,-106.0
127.0,126.0,128.0,124.0,125.0,129.0,109.0,127.0,43.0,-108.0,-56.0,126.0,127.0,127.0,112.0,90.0,-106.0
126.0,127.0,128.0,124.0,125.0,127.0,107.0,127.0,43.0,-108.0,-56.0,126.0,127.0,127.0,112.0,90.0,-106.0
127.0,126.0,128.0,124.0,125.0,127.0,106.0,127.0,43.0,-108.0,-56.0,126.0,127.0,127.0,112.0,90.0,-106.0
126.0,126.0,128.0,124.0,125.0,128.0,106.0,127.0,43.0,-108.0,-56.0,126.0,127.0,127.0,112.0,90.0,-106.0
126.0,126.0,127.0,124.0,132.0,131.0,112.0,127.0,43.0,-108.0,-56.0,126.0,127.0,127.0,113.0,90.0,-106.0
126.0,126.0,127.0,124.0,132.0,131.0,112.0,127.0,43.0,-108.0,-56.0,126.0,127.0,127.0,113.0,90.0,-106.0
126.0,126.0,127.0,124.0,132.0,130.0,112.0,127.0,43.0,-108.0,-56.0,126.0,127.0,127.0,113.0,90.0,-106.0
126.0,126.0,127.0,124.0,132.0,130.0,112.0,127.0,43.0,-108.0,-56.0,126.0,127.0,127.0,113.0,90.0,-106.0
126.0,126.0,127.0,124.0,132.0,130.0,111.0,127.0,43.0,-108.0,-56.0,126.0,127.0,127.0,113.0,90.0,-106.0
126.0,126.0,127.0,124.0,132.0,130.0,111.0,127.0,43.0,-108.0,-56.0,126.0,127.0,127.0,113.0,90.0,-106.0
126.0,126.0,126.0,124.0,132.0,132.0,114.0,127.0,43.0,-108.0,-56.0,126.0,127.0,127.0,113.0,90.0,-106.0
126.0,126.0,127.0,124.0,132.0,132.0,114.0,127.0,43.0,-108.0,-56.0,126.0,127.0,127.0,113.0,90.0,-106.0
127.0,126.0,127.0,124.0,133.0,131.0,114.0,127.0,43.0,-108.0,-56.0,126.0,127.0,127.0,113.0,90.0,-106.0
126.0,126.0,127.0,124.0,132.0,131.0,113.0,127.0,43.0,-108.0,-56.0,126.0,127.0,127.0,113.0,90.0,-106.0
127.0,126.0,126.0,124.0,125.0,121.0,103.0,127.0,43.0,-108.0,-56.0,126.0,127.0,127.0,113.0,90.0,-106.0
127.0,126.0,126.0,124.0,125.0,121.0,103.0,127.0,43.0,-108.0,-56.0,126.0,127.0,127.0,113.0,90.0,-106.0
127.0,126.0,126.0,124.0,124.0,121.0,103.0,127.0,43.0,-108.0,-56.0,126.0,127.0,127.0,113.0,90.0,-106.0
127.0,126.0,126.0,124.0,124.0,121.0,103.0,127.0,43.0,-108.0,-56.0,126.0,127.0,127.0,113.0,90.0,-106.0
127.0,126.0,126.0,124.0,124.0,121.0,103.0,127.0,43.0,-108.0,-56.0,126.0,127.0,127.0,113.0,90.0,-106.0
126.0,127.0,127.0,125.0,125.0,121.0,103.0,127.0,43.0,-108.0,-56.0,126.0,127.0,127.0,113.0,90.0,-106.0
126.0,127.0,127.0,125.0,125.0,121.0,103.0,127.0,43.0,-108.0,-56.0,126.0,127.0,127.0,113.0,90.0,-106.0
126.0,127.0,127.0,124.0,125.0,121.0,103.0,127.0,43.0,-108.0,-56.0,126.0,127.0,127.0,113.0,90.0,-106.0
126.0,127.0,127.0,124.0,125.0,121.0,103.0,127.0,43.0,-108.0,-56.0,126.0,127.0,127.0,113.0,90.0,-106.0
126.0,126.0,127.0,124.0,125.0,121.0,103.0,127.0,43.0,-108.0,-56.0,126.0,127.0,127.0,113.0,90.0,-106.0
127.0,126.0,127.0,125.0,122.0,121.0,102.0,127.0,43.0,-108.0,-56.0,126.0,127.0,127.0,113.0,90.0,-106.0
127.0,126.0,127.0,125.0,122.0,121.0,103.0,127.0,43.0,-108.0,-56.0,126.0,127.0,127.0,113.0,90.0,-106.0
126.0,126.0,127.0,125.0,122.0,121.0,103.0,127.0,43.0,-108.0,-56.0,126.0,127.0,127.0,113.0,90.0,-106.0
127.0,126.0,127.0,125.0,122.0,121.0,103.0,127.0,43.0,-108.0,-56.0,126.0,127.0,127.0,113.0,90.0,-106.0
126.0,127.0,126.0,126.0,122.0,121.0,103.0,127.0,43.0,-108.0,-56.0,126.0,127.0,127.0,113.0,90.0,-106.0
126.0,127.0,127.0,125.0,123.0,121.0,102.0,127.0,43.0,-108.0,-56.0,126.0,127.0,127.0,113.0,90.0,-106.0
126.0,127.0,127.0,125.0,122.0,121.0,102.0,127.0,43.0,-108.0,-56.0,126.0,127.0,127.0,113.0,90.0,-106.0
127.0,127.0,127.0,125.0,122.0,121.0,102.0,127.0,43.0,-108.0,-56.0,126.0,127.0,127.0,113.0,90.0,-106.0
127.0,126.0,127.0,125.0,122.0,121.0,102.0,127.0,43.0,-108.0,-56.0,126.0,127.0,127.0,113.0,90.0,-106.0
127.0,126.0,127.0,125.0,122.0,121.0,102.0,127.0,43.0,-108.0,-56.0,126.0,127.0,127.0,113.0,90.0,-106.0
126.0,126.0,127.0,125.0,124.0,123.0,105.0,126.0,44.0,-108.0,-55.0,126.0,127.0,127.0,113.0,90.0,-106.0
126.0,126.0,128.0,125.0,124.0,123.0,105.0,126.0,44.0,-108.0,-55.0,126.0,127.0,127.0,113.0,90.0,-106.0
126.0,126.0,128.0,125.0,124.0,123.0,105.0,126.0,44.0,-108.0,-55.0,126.0,127.0,127.0,113.0,90.0,-106.0
126.0,126.0,128.0,126.0,124.0,123.0,106.0,126.0,44.0,-108.0,-55.0,126.0,127.0,127.0,113.0,90.0,-106.0
126.0,126.0,128.0,126.0,124.0,122.0,105.0,126.0,44.0,-108.0,-55.0,126.0,127.0,127.0,113.0,90.0,-106.0
126.0,126.0,127.0,126.0,124.0,122.0,106.0,126.0,44.0,-108.0,-55.0,126.0,127.0,127.0,113.0,90.0,-106.0
126.0,126.0,127.0,126.0,124.0,123.0,105.0,126.0,44.0,-108.0,-55.0,126.0,127.0,127.0,113.0,90.0,-106.0
126.0,126.0,127.0,125.0,124.0,123.0,105.0,126.0,44.0,-108.0,-55.0,126.0,127.0,127.0,113.0,90.0,-106.0
126.0,126.0,127.0,125.0,124.0,123.0,105.0,126.0,44.0,-108.0,-55.0,126.0,127.0,127.0,113.0,90.0,-106.0
126.0,126.0,127.0,125.0,124.0,123.0,105.0,126.0,44.0,-108.0,-55.0,126.0,127.0,127.0,113.0,90.0,-106.0
126.0,126.0,128.0,125.0,125.0,126.0,111.0,127.0,44.0,-108.0,-55.0,126.0,127.0,127.0,114.0,90.0,-106.0
126.0,126.0,128.0,125.0,125.0,126.0,111.0,127.0,44.0,-108.0,-55.0,126.0,127.0,127.0,114.0,90.0,-106.0
126.0,127.0,128.0,126.0,126.0,125.0,111.0,127.0,44.0,-108.0,-55.0,126.0,127.0,127.0,114.0,90.0,-106.0
126.0,127.0,128.0,126.0,126.0,125.0,110.0,127.0,44.0,-108.0,-55.0,126.0,127.0,127.0,114.0,90.0,-106.0
126.0,127.0,128.0,126.0,126.0,125.0,110.0,127.0,44.0,-108.0,-55.0,126.0,127.0,127.0,114.0,90.0,-106.0
126.0,127.0,128.0,125.0,126.0,125.0,111.0,127.0,44.0,-108.0,-55.0,126.0,127.0,127.0,114.0,90.0,-106.0
126.0,126.0,128.0,125.0,126.0,125.0,111.0,127.0,44.0,-108.0,-55.0,126.0,127.0,127.0,114.0,90.0,-106.0
126.0,126.0,128.0,125.0,125.0,126.0,111.0,127.0,44.0,-108.0,-55.0,126.0,127.0,127.0,114.0,90.0,-106.0
126.0,126.0,128.0,125.0,126.0,126.0,110.0,127.0,44.0,-108.0,-55.0,126.0,127.0,127.0,114.0,90.0,-106.0
126.0,126.0,128.0,125.0,125.0,126.0,111.0,127.0,44.0,-108.0,-55.0,126.0,127.0,127.0,114.0,90.0,-106.0
126.0,126.0,128.0,125.0,126.0,126.0,112.0,126.0,45.0,-108.0,-55.0,126.0,127.0,127.0,114.0,90.0,-106.0
126.0,127.0,128.0,126.0,126.0,126.0,112.0,127.0,45.0,-108.0,-55.0,126.0,127.0,127.0,114.0,90.0,-106.0
126.0,127.0,128.0,126.0,126.0,126.0,112.0,126.0,45.0,-108.0,-55.0,126.0,127.0,127.0,114.0,90.0,-106.0
126.0,127.0,128.0,126.0,126.0,126.0,111.0,126.0,45.0,-108.0,-55.0,126.0,127.0,127.0,114.0,90.0,-106.0
126.0,127.0,128.0,125.0,126.0,126.0,111.0,126.0,45.0,-108.0,-55.0,126.0,127.0,127.0,114.0,90.0,-106.0
126.0,127.0,128.0,125.0,126.0,126.0,111.0,126.0,45.0,-108.0,-55.0,126.0,127.0,127.0,114.0,90.0,-106.0
126.0,127.0,128.0,125.0,126.0,126.0,111.0,126.0,45.0,-108.0,-55.0,126.0,127.0,127.0,114.0,90.0,-106.0
126.0,126.0,128.0,125.0,126.0,126.0,112.0,126.0,45.0,-108.0,-55.0,126.0,127.0,127.0,114.0,90.0,-106.0
126.0,126.0,128.0,125.0,126.0,126.0,112.0,126.0,45.0,-108.0,-55.0,126.0,127.0,127.0,114.0,90.0,-106.0
126.0,126.0,128.0,125.0,126.0,126.0,112.0,126.0,45.0,-108.0,-55.0,126.0,127.0,127.0,114.0,90.0,-106.0
126.0,127.0,128.0,126.0,127.0,126.0,111.0,127.0,45.0,-108.0,-55.0,126.0,127.0,127.0,115.0,90.0,-106.0
126.0,126.0,128.0,125.0,127.0,125.0,110.0,127.0,45.0,-108.0,-55.0,126.0,127.0,127.0,115.0,90.0,-106.0
126.0,127.0,128.0,125.0,127.0,125.0,110.0,127.0,45.0,-108.0,-55.0,126.0,127.0,127.0,115.0,90.0,-106.0
126.0,126.0,128.0,125.0,127.0,125.0,110.0,127.0,45.0,-108.0,-55.0,126.0,127.0,127.0,115.0,90.0,-106.0
126.0,126.0,128.0,125.0,126.0,125.0,110.0,127.0,45.0,-108.0,-55.0,126.0,127.0,127.0,115.0,90.0,-106.0
126.0,126.0,128.0,125.0,127.0,125.0,110.0,127.0,45.0,-108.0,-55.0,126.0,127.0,127.0,115.0,90.0,-106.0
126.0,126.0,128.0,125.0,126.0,125.0,110.0,127.0,45.0,-108.0,-55.0,126.0,127.0,127.0,115.0,90.0,-106.0
126.0,126.0,128.0,125.0,126.0,125.0,110.0,127.0,45.0,-108.0,-55.0,126.0,127.0,127.0,115.0,90.0,-106.0
126.0,126.0,128.0,125.0,126.0,125.0,110.0,127.0,45.0,-108.0,-55.0,126.0,127.0,127.0,115.0,90.0,-106.0
126.0,126.0,128.0,125.0,126.0,125.0,110.0,127.0,45.0,-108.0,-55.0,126.0,127.0,127.0,115.0,90.0,-106.0
126.0,127.0,128.0,126.0,127.0,124.0,109.0,127.0,45.0,-108.0,-55.0,126.0,127.0,127.0,115.0,90.0,-106.0
126.0,127.0,128.0,126.0,127.0,124.0,109.0,127.0,45.0,-108.0,-55.0,126.0,127.0,127.0,115.0,90.0,-106.0
126.0,127.0,128.0,126.0,127.0,124.0,108.0,127.0,45.0,-108.0,-55.0,126.0,127.0,127.0,115.0,90.0,-106.0
126.0,127.0,128.0,126.0,127.0,124.0,108.0,127.0,45.0,-108.0,-55.0,126.0,127.0,127.0,115.0,90.0,-106.0
126.0,127.0,128.0,126.0,127.0,124.0,108.0,127.0,45.0,-108.0,-55.0,126.0,127.0,127.0,115.0,90.0,-106.0
126.0,126.0,128.0,126.0,127.0,124.0,108.0,127.0,45.0,-108.0,-55.0,126.0,127.0,127.0,115.0,90.0,-106.0
126.0,127.0,128.0,126.0,127.0,124.0,108.0,127.0,45.0,-108.0,-55.0,126.0,127.0,127.0,115.0,90.0,-106.0
126.0,126.0,127.0,126.0,127.0,124.0,108.0,127.0,45.0,-108.0,-55.0,126.0,127.0,127.0,115.0,90.0,-106.0
126.0,127.0,127.0,126.0,127.0,124.0,109.0,127.0,45.0,-108.0,-55.0,126.0,127.0,127.0,115.0,90.0,-106.0
126.0,127.0,128.0,126.0,127.0,125.0,109.0,127.0,45.0,-108.0,-55.0,126.0,127.0,127.0,115.0,90.0,-106.0
126.0,126.0,127.0,126.0,127.0,124.0,108.0,127.0,45.0,-109.0,-54.0,126.0,127.0,127.0,116.0,90.0,-106.0
126.0,126.0,127.0,126.0,127.0,124.0,107.0,127.0,45.0,-109.0,-54.0,126.0,127.0,127.0,116.0,90.0,-106.0
126.0,126.0,127.0,126.0,127.0,124.0,107.0,127.0,45.0,-109.0,-54.0,126.0,127.0,127.0,116.0,90.0,-106.0
126.0,126.0,127.0,126.0,127.0,124.0,107.0,127.0,45.0,-109.0,-54.0,126.0,127.0,127.0,116.0,90.0,-106.0
126.0,126.0,127.0,126.0,127.0,124.0,107.0,127.0,45.0,-109.0,-54.0,126.0,127.0,127.0,116.0,90.0,-106.0
126.0,126.0,127.0,126.0,127.0,124.0,107.0,127.0,45.0,-109.0,-54.0,126.0,127.0,127.0,116.0,90.0,-106.0
126.0,126.0,127.0,126.0,127.0,123.0,107.0,127.0,45.0,-109.0,-54.0,126.0,127.0,127.0,116.0,90.0,-106.0
126.0,126.0,127.0,126.0,127.0,123.0,107.0,127.0,45.0,-109.0,-54.0,126.0,127.0,127.0,116.0,90.0,-106.0
126.0,126.0,127.0,127.0,127.0,124.0,108.0,127.0,45.0,-109.0,-54.0,126.0,127.0,127.0,116.0,90.0,-106.0
126.0,126.0,127.0,126.0,127.0,124.0,108.0,127.0,45.0,-109.0,-54.0,126.0,127.0,127.0,116.0,90.0,-106.0
126.0,126.0,127.0,125.0,127.0,125.0,109.0,127.0,45.0,-109.0,-54.0,127.0,127.0,127.0,116.0,90.0,-106.0
126.0,126.0,127.0,125.0,127.0,125.0,109.0,127.0,45.0,-109.0,-54.0,127.0,127.0,127.0,116.0,90.0,-106.0
126.0,126.0,127.0,125.0,127.0,125.0,109.0,127.0,45.0,-109.0,-54.0,127.0,127.0,127.0,116.0,90.0,-106.0
126.0,126.0,126.0,125.0,126.0,125.0,109.0,127.0,45.0,-109.0,-54.0,127.0,127.0,127.0,116.0,90.0,-106.0
126.0,126.0,126.0,125.0,127.0,125.0,109.0,127.0,45.0,-109.0,-54.0,127.0,127.0,127.0,116.0,90.0,-106.0
126.0,126.0,126.0,125.0,127.0,124.0,109.0,127.0,45.0,-109.0,-54.0,127.0,127.0,127.0,116.0,90.0,-106.0
126.0,126.0,126.0,125.0,127.0,125.0,109.0,127.0,45.0,-109.0,-54.0,127.0,127.0,127.0,116.0,90.0,-106.0
126.0,126.0,127.0,126.0,127.0,125.0,110.0,127.0,45.0,-109.0,-54.0,127.0,127.0,127.0,116.0,90.0,-106.0
126.0,126.0,127.0,126.0,127.0,125.0,110.0,127.0,45.0,-109.0,-54.0,127.0,127.0,127.0,116.0,90.0,-106.0
126.0,127.0,127.0,125.0,127.0,125.0,109.0,127.0,45.0,-109.0,-54.0,127.0,127.0,127.0,116.0,90.0,-106.0
126.0,126.0,127.0,127.0,127.0,125.0,110.0,127.0,45.0,-110.0,-54.0,127.0,127.0,127.0,116.0,90.0,-106.0
126.0,126.0,127.0,127.0,127.0,125.0,110.0,127.0,45.0,-110.0,-54.0,127.0,127.0,127.0,116.0,90.0,-106.0
126.0,126.0,127.0,126.0,127.0,125.0,110.0,127.0,45.0,-110.0,-54.0,127.0,127.0,127.0,116.0,90.0,-106.0
126.0,126.0,126.0,126.0,127.0,125.0,110.0,127.0,45.0,-110.0,-54.0,127.0,127.0,127.0,116.0,90.0,-106.0
126.0,126.0,127.0,126.0,127.0,125.0,110.0,127.0,45.0,-110.0,-54.0,127.0,127.0,127.0,116.0,90.0,-106.0
126.0,126.0,127.0,126.0,127.0,125.0,110.0,127.0,45.0,-110.0,-54.0,127.0,127.0,127.0,116.0,90.0,-106.0
126.0,126.0,127.0,127.0,127.0,126.0,111.0,127.0,45.0,-110.0,-54.0,127.0,127.0,127.0,116.0,90.0,-106.0
126.0,126.0,127.0,127.0,127.0,125.0,111.0,127.0,45.0,-110.0,-54.0,127.0,127.0,127.0,116.0,90.0,-106.0
126.0,126.0,127.0,127.0,127.0,125.0,110.0,127.0,45.0,-110.0,-54.0,127.0,127.0,127.0,116.0,90.0,-106.0
126.0,126.0,127.0,127.0,127.0,125.0,110.0,127.0,45.0,-110.0,-54.0,127.0,127.0,127.0,116.0,90.0,-106.0
126.0,126.0,127.0,126.0,126.0,124.0,109.0,127.0,45.0,-110.0,-54.0,127.0,127.0,127.0,116.0,91.0,-106.0
126.0,126.0,127.0,126.0,126.0,124.0,109.0,127.0,45.0,-110.0,-54.0,127.0,127.0,127.0,116.0,91.0,-106.0
126.0,126.0,127.0,126.0,126.0,124.0,109.0,127.0,45.0,-110.0,-54.0,127.0,127.0,127.0,116.0,91.0,-106.0
126.0,126.0,127.0,126.0,126.0,124.0,109.0,127.0,45.0,-110.0,-54.0,127.0,127.0,127.0,116.0,91.0,-106.0
126.0,126.0,126.0,126.0,126.0,124.0,109.0,127.0,45.0,-110.0,-54.0,127.0,127.0,127.0,116.0,91.0,-106.0
126.0,127.0,127.0,127.0,127.0,125.0,110.0,127.0,45.0,-110.0,-54.0,127.0,127.0,127.0,116.0,91.0,-106.0
126.0,127.0,127.0,127.0,127.0,125.0,110.0,127.0,45.0,-110.0,-54.0,127.0,127.0,127.0,116.0,91.0,-106.0
126.0,127.0,126.0,126.0,127.0,125.0,109.0,127.0,45.0,-110.0,-54.0,127.0,127.0,127.0,116.0,91.0,-106.0
126.0,126.0,127.0,126.0,127.0,125.0,109.0,127.0,45.0,-110.0,-54.0,127.0,127.0,127.0,116.0,91.0,-106.0
126.0,126.0,127.0,126.0,126.0,125.0,109.0,127.0,45.0,-110.0,-54.0,127.0,127.0,127.0,116.0,91.0,-106.0
126.0,126.0,127.0,126.0,127.0,126.0,111.0,127.0,45.0,-110.0,-54.0,127.0,127.0,127.0,116.0,91.0,-106.0
126.0,126.0,127.0,126.0,127.0,126.0,111.0,127.0,45.0,-110.0,-54.0,127.0,127.0,127.0,116.0,91.0,-106.0
126.0,126.0,127.0,126.0,127.0,126.0,111.0,127.0,45.0,-110.0,-54.0,127.0,127.0,127.0,116.0,91.0,-106.0
126.0,126.0,127.0,126.0,127.0,126.0,111.0,127.0,45.0,-110.0,-54.0,127.0,127.0,127.0,116.0,91.0,-106.0
126.0,126.0,127.0,127.0,127.0,126.0,112.0,127.0,45.0,-110.0,-54.0,127.0,127.0,127.0,116.0,91.0,-106.0
126.0,126.0,127.0,126.0,127.0,126.0,112.0,127.0,45.0,-110.0,-54.0,127.0,127.0,127.0,116.0,91.0,-106.0
126.0,126.0,127.0,126.0,127.0,126.0,111.0,127.0,45.0,-110.0,-54.0,127.0,127.0,127.0,116.0,91.0,-106.0
126.0,127.0,127.0,126.0,127.0,126.0,111.0,127.0,45.0,-110.0,-54.0,127.0,127.0,127.0,116.0,91.0,-106.0
126.0,126.0,127.0,126.0,127.0,126.0,111.0,127.0,45.0,-110.0,-54.0,127.0,127.0,127.0,116.0,91.0,-106.0
126.0,126.0,127.0,126.0,127.0,126.0,111.0,127.0,45.0,-110.0,-54.0,127.0,127.0,127.0,116.0,91.0,-106.0
126.0,126.0,127.0,126.0,126.0,126.0,112.0,127.0,45.0,-111.0,-54.0,127.0,127.0,127.0,117.0,91.0,-106.0
126.0,126.0,127.0,125.0,126.0,126.0,111.0,127.0,45.0,-111.0,-54.0,127.0,127.0,127.0,117.0,91.0,-106.0
126.0,126.0,127.0,125.0,126.0,126.0,111.0,127.0,45.0,-111.0,-54.0,127.0,127.0,127.0,117.0,91.0,-106.0
126.0,126.0,127.0,127.0,127.0,126.0,112.0,127.0,45.0,-111.0,-54.0,127.0,127.0,127.0,117.0,91.0,-106.0
126.0,126.0,127.0,127.0,127.0,126.0,111.0,127.0,45.0,-111.0,-54.0,127.0,127.0,127.0,117.0,91.0,-106.0
126.0,126.0,127.0,126.0,127.0,126.0,111.0,127.0,45.0,-111.0,-54.0,127.0,127.0,127.0,117.0,91.0,-106.0
126.0,126.0,127.0,126.0,127.0,126.0,111.0,127.0,45.0,-111.0,-54.0,127.0,127.0,127.0,117.0,91.0,-106.0
126.0,126.0,127.0,126.0,127.0,126.0,111.0,127.0,45.0,-111.0,-54.0,127.0,127.0,127.0,117.0,91.0,-106.0
126.0,126.0,127.0,126.0,127.0,126.0,111.0,127.0,45.0,-111.0,-54.0,127.0,127.0,127.0,117.0,91.0,-106.0
126.0,126.0,127.0,126.0,127.0,126.0,111.0,127.0,45.0,-111.0,-54.0,127.0,127.0,127.0,117.0,91.0,-106.0
126.0,126.0,128.0,126.0,126.0,126.0,112.0,127.0,45.0,-111.0,-54.0,127.0,127.0,127.0,117.0,91.0,-106.0
126.0,126.0,128.0,126.0,126.0,126.0,112.0,127.0,45.0,-111.0,-54.0,127.0,127.0,127.0,117.0,91.0,-106.0
126.0,127.0,128.0,126.0,127.0,127.0,112.0,127.0,45.0,-111.0,-54.0,127.0,127.0,127.0,117.0,91.0,-106.0
126.0,127.0,128.0,126.0,127.0,126.0,112.0,127.0,45.0,-111.0,-54.0,127.0,127.0,127.0,117.0,91.0,-106.0
126.0,126.0,128.0,126.0,127.0,126.0,112.0,127.0,45.0,-111.0,-54.0,127.0,127.0,127.0,117.0,91.0,-106.0
126.0,126.0,128.0,126.0,126.0,126.0,112.0,127.0,45.0,-111.0,-54.0,127.0,127.0,127.0,117.0,91.0,-106.0
126.0,126.0,128.0,126.0,126.0,126.0,112.0,127.0,45.0,-111.0,-54.0,127.0,127.0,127.0,117.0,91.0,-106.0
126.0,126.0,128.0,126.0,126.0,126.0,113.0,127.0,45.0,-111.0,-54.0,127.0,127.0,127.0,117.0,91.0,-106.0
126.0,126.0,128.0,126.0,126.0,126.0,112.0,127.0,45.0,-111.0,-54.0,127.0,127.0,127.0,117.0,91.0,-106.0
126.0,126.0,128.0,126.0,126.0,126.0,112.0,127.0,45.0,-111.0,-54.0,127.0,127.0,127.0,117.0,91.0,-106.0
126.0,126.0,127.0,125.0,126.0,127.0,112.0,127.0,44.0,-111.0,-54.0,127.0,127.0,127.0,118.0,91.0,-106.0
126.0,127.0,127.0,126.0,127.0,127.0,112.0,127.0,44.0,-111.0,-54.0,127.0,127.0,127.0,118.0,91.0,-106.0
126.0,127.0,127.0,126.0,127.0,127.0,113.0,127.0,44.0,-111.0,-54.0,127.0,127.0,127.0,118.0,91.0,-106.0
126.0,127.0,127.0,126.0,127.0,127.0,113.0,127.0,44.0,-111.0,-54.0,127.0,127.0,127.0,118.0,91.0,-106.0
126.0,126.0,127.0,126.0,126.0,127.0,113.0,127.0,44.0,-111.0,-54.0,127.0,127.0,127.0,118.0,91.0,-106.0
126.0,126.0,127.0,126.0,126.0,127.0,113.0,127.0,44.0,-111.0,-54.0,127.0,127.0,127.0,118.0,91.0,-106.0
126.0,126.0,127.0,126.0,126.0,127.0,113.0,127.0,44.0,-111.0,-54.0,127.0,127.0,127.0,118.0,91.0,-106.0
126.0,126.0,127.0,126.0,126.0,127.0,113.0,127.0,44.0,-111.0,-54.0,127.0,127.0,127.0,118.0,91.0,-106.0
126.0,126.0,127.0,125.0,126.0,127.0,112.0,127.0,44.0,-111.0,-54.0,127.0,127.0,127.0,118.0,91.0,-106.0
126.0,126.0,127.0,125.0,126.0,127.0,112.0,127.0,44.0,-111.0,-54.0,127.0,127.0,127.0,118.0,91.0,-106.0
127.0,127.0,127.0,127.0,127.0,127.0,112.0,127.0,43.0,-111.0,-53.0,127.0,127.0,127.0,118.0,91.0,-106.0
127.0,127.0,127.0,127.0,127.0,127.0,112.0,127.0,43.0,-111.0,-53.0,127.0,127.0,127.0,118.0,91.0,-106.0
127.0,127.0,127.0,126.0,127.0,127.0,113.0,127.0,43.0,-111.0,-53.0,127.0,127.0,127.0,118.0,91.0,-106.0
127.0,126.0,127.0,126.0,126.0,127.0,113.0,127.0,43.0,-111.0,-53.0,127.0,127.0,127.0,118.0,91.0,-106.0
127.0,126.0,127.0,126.0,126.0,127.0,112.0,127.0,43.0,-111.0,-53.0,127.0,127.0,127.0,118.0,91.0,-106.0
127.0,126.0,127.0,126.0,126.0,127.0,112.0,127.0,43.0,-111.0,-53.0,127.0,127.0,127.0,118.0,91.0,-106.0
127.0,126.0,127.0,126.0,126.0,127.0,112.0,127.0,43.0,-111.0,-53.0,127.0,127.0,127.0,118.0,91.0,-106.0
127.0,126.0,127.0,126.0,126.0,126.0,112.0,127.0,43.0,-111.0,-53.0,127.0,127.0,127.0,118.0,91.0,-106.0
127.0,126.0,127.0,126.0,126.0,126.0,113.0,127.0,43.0,-111.0,-53.0,127.0,127.0,127.0,118.0,91.0,-106.0
127.0,126.0,128.0,126.0,126.0,126.0,113.0,127.0,43.0,-111.0,-53.0,127.0,127.0,127.0,118.0,91.0,-106.0
126.0,126.0,127.0,126.0,126.0,126.0,113.0,127.0,42.0,-110.0,-53.0,127.0,127.0,127.0,118.0,91.0,-106.0
126.0,126.0,127.0,126.0,126.0,126.0,113.0,127.0,42.0,-110.0,-53.0,127.0,127.0,127.0,118.0,91.0,-106.0
127.0,126.0,127.0,126.0,126.0,126.0,113.0,127.0,42.0,-110.0,-53.0,127.0,127.0,127.0,118.0,91.0,-106.0
126.0,126.0,127.0,126.0,126.0,126.0,112.0,127.0,42.0,-110.0,-53.0,127.0,127.0,127.0,118.0,91.0,-106.0
127.0,126.0,127.0,126.0,126.0,126.0,112.0,127.0,42.0,-110.0,-53.0,127.0,127.0,127.0,118.0,91.0,-106.0
126.0,126.0,127.0,126.0,126.0,126.0,112.0,127.0,42.0,-110.0,-53.0,127.0,127.0,127.0,118.0,91.0,-106.0
127.0,126.0,127.0,126.0,126.0,126.0,112.0,127.0,42.0,-110.0,-53.0,127.0,127.0,127.0,118.0,91.0,-106.0
127.0,126.0,127.0,126.0,126.0,126.0,111.0,127.0,42.0,-110.0,-53.0,127.0,127.0,127.0,118.0,91.0,-106.0
126.0,126.0,127.0,126.0,126.0,126.0,111.0,127.0,42.0,-110.0,-53.0,127.0,127.0,127.0,118.0,91.0,-106.0
126.0,127.0,127.0,126.0,126.0,127.0,112.0,127.0,42.0,-110.0,-53.0,127.0,127.0,127.0,118.0,91.0,-106.0
126.0,127.0,127.0,127.0,127.0,127.0,112.0,127.0,43.0,-110.0,-53.0,127.0,127.0,127.0,118.0,91.0,-106.0
126.0,126.0,127.0,127.0,126.0,127.0,112.0,127.0,43.0,-110.0,-53.0,127.0,127.0,127.0,118.0,91.0,-106.0
126.0,126.0,127.0,127.0,126.0,126.0,113.0,127.0,43.0,-110.0,-53.0,127.0,127.0,127.0,118.0,91.0,-106.0
126.0,126.0,127.0,127.0,126.0,126.0,113.0,127.0,43.0,-110.0,-53.0,127.0,127.0,127.0,118.0,91.0,-106.0
126.0,126.0,127.0,126.0,126.0,126.0,112.0,127.0,43.0,-110.0,-53.0,127.0,127.0,127.0,118.0,91.0,-106.0
127.0,126.0,127.0,126.0,127.0,126.0,112.0,127.0,43.0,-110.0,-53.0,127.0,127.0,127.0,118.0,91.0,-106.0
126.0,126.0,127.0,126.0,126.0,126.0,112.0,127.0,43.0,-110.0,-53.0,127.0,127.0,127.0,118.0,91.0,-106.0
127.0,126.0,127.0,126.0,126.0,126.0,112.0,127.0,43.0,-110.0,-53.0,127.0,127.0,127.0,118.0,91.0,-106.0
126.0,127.0,127.0,127.0,127.0,127.0,113.0,127.0,43.0,-110.0,-53.0,127.0,127.0,127.0,118.0,91.0,-106.0
126.0,127.0,127.0,127.0,127.0,126.0,112.0,127.0,43.0,-110.0,-53.0,127.0,127.0,127.0,118.0,91.0,-106.0
126.0,126.0,127.0,127.0,127.0,126.0,112.0,127.0,43.0,-110.0,-53.0,127.0,127.0,127.0,118.0,91.0,-106.0
126.0,126.0,127.0,126.0,127.0,126.0,112.0,127.0,43.0,-110.0,-53.0,127.0,127.0,127.0,118.0,91.0,-106.0
126.0,126.0,127.0,126.0,126.0,126.0,112.0,127.0,43.0,-110.0,-53.0,127.0,127.0,127.0,118.0,91.0,-106.0
126.0,126.0,127.0,126.0,126.0,126.0,112.0,127.0,43.0,-110.0,-53.0,127.0,127.0,127.0,118.0,91.0,-106.0
126.0,126.0,127.0,126.0,126.0,126.0,111.0,127.0,43.0,-110.0,-53.0,127.0,127.0,127.0,118.0,91.0,-106.0
126.0,126.0,127.0,126.0,126.0,126.0,112.0,127.0,43.0,-110.0,-53.0,127.0,127.0,127.0,118.0,91.0,-106.0
126.0,126.0,127.0,126.0,126.0,126.0,112.0,127.0,43.0,-110.0,-53.0,127.0,127.0,127.0,118.0,91.0,-106.0
126.0,127.0,127.0,127.0,127.0,126.0,112.0,127.0,43.0,-110.0,-53.0,127.0,127.0,127.0,118.0,91.0,-106.0
126.0,127.0,127.0,127.0,127.0,126.0,112.0,127.0,43.0,-110.0,-53.0,127.0,127.0,127.0,118.0,91.0,-106.0
126.0,127.0,127.0,127.0,127.0,126.0,113.0,127.0,43.0,-110.0,-53.0,127.0,127.0,127.0,118.0,91.0,-106.0
126.0,126.0,127.0,126.0,126.0,126.0,112.0,127.0,44.0,-110.0,-53.0,127.0,127.0,127.0,118.0,91.0,-106.0
126.0,126.0,127.0,126.0,126.0,126.0,112.0,127.0,44.0,-110.0,-53.0,127.0,127.0,127.0,118.0,91.0,-106.0
126.0,126.0,127.0,126.0,126.0,126.0,111.0,127.0,44.0,-110.0,-53.0,127.0,127.0,127.0,118.0,91.0,-106.0
126.0,126.0,127.0,126.0,126.0,126.0,111.0,126.0,44.0,-110.0,-53.0,127.0,127.0,127.0,118.0,91.0,-106.0
126.0,126.0,127.0,126.0,126.0,126.0,111.0,127.0,44.0,-110.0,-53.0,127.0,127.0,127.0,118.0,91.0,-106.0
126.0,126.0,127.0,125.0,126.0,126.0,111.0,127.0,44.0,-110.0,-53.0,127.0,127.0,127.0,118.0,91.0,-106.0
126.0,126.0,127.0,127.0,126.0,126.0,112.0,127.0,44.0,-110.0,-53.0,127.0,127.0,127.0,118.0,91.0,-106.0
126.0,127.0,127.0,127.0,127.0,126.0,111.0,127.0,44.0,-110.0,-53.0,127.0,127.0,127.0,118.0,91.0,-106.0
126.0,127.0,127.0,127.0,127.0,126.0,111.0,127.0,44.0,-110.0,-53.0,127.0,127.0,127.0,118.0,91.0,-106.0
126.0,126.0,127.0,126.0,127.0,126.0,112.0,127.0,44.0,-110.0,-53.0,127.0,127.0,127.0,118.0,91.0,-106.0
126.0,126.0,127.0,126.0,127.0,127.0,106.0,127.0,44.0,-110.0,-53.0,127.0,127.0,127.0,118.0,91.0,-106.0
126.0,126.0,127.0,126.0,127.0,127.0,106.0,127.0,44.0,-110.0,-53.0,127.0,127.0,127.0,118.0,91.0,-106.0
126.0,126.0,127.0,126.0,127.0,127.0,106.0,127.0,44.0,-110.0,-53.0,127.0,127.0,127.0,118.0,91.0,-106.0
126.0,126.0,127.0,126.0,127.0,128.0,106.0,127.0,44.0,-110.0,-53.0,127.0,127.0,127.0,118.0,91.0,-106.0
126.0,126.0,127.0,126.0,127.0,128.0,107.0,127.0,44.0,-110.0,-53.0,127.0,127.0,127.0,118.0,91.0,-106.0
126.0,127.0,127.0,127.0,127.0,127.0,106.0,127.0,44.0,-110.0,-53.0,127.0,127.0,127.0,118.0,91.0,-106.0
126.0,127.0,127.0,127.0,127.0,127.0,106.0,127.0,44.0,-110.0,-53.0,127.0,127.0,127.0,118.0,91.0,-106.0
126.0,126.0,127.0,127.0,127.0,127.0,106.0,127.0,44.0,-110.0,-53.0,127.0,127.0,127.0,118.0,91.0,-106.0
126.0,126.0,127.0,126.0,127.0,127.0,107.0,127.0,44.0,-110.0,-53.0,127.0,127.0,127.0,118.0,91.0,-106.0
126.0,126.0,127.0,126.0,127.0,127.0,106.0,127.0,44.0,-110.0,-53.0,127.0,127.0,127.0,118.0,91.0,-106.0
127.0,126.0,127.0,126.0,126.0,128.0,107.0,127.0,44.0,-110.0,-53.0,127.0,127.0,127.0,118.0,92.0,-106.0
127.0,126.0,127.0,126.0,126.0,128.0,107.0,127.0,44.0,-110.0,-53.0,127.0,127.0,127.0,118.0,92.0,-106.0
127.0,126.0,127.0,126.0,126.0,128.0,107.0,127.0,44.0,-110.0,-53.0,127.0,127.0,127.0,118.0,92.0,-106.0
127.0,126.0,127.0,126.0,126.0,128.0,106.0,127.0,44.0,-110.0,-53.0,127.0,127.0,127.0,118.0,92.0,-106.0
127.0,127.0,127.0,127.0,126.0,128.0,108.0,127.0,44.0,-110.0,-53.0,127.0,127.0,127.0,118.0,92.0,-106.0
127.0,126.0,127.0,127.0,126.0,128.0,107.0,127.0,44.0,-110.0,-53.0,127.0,127.0,127.0,118.0,92.0,-106.0
127.0,126.0,127.0,127.0,126.0,128.0,107.0,127.0,44.0,-110.0,-53.0,127.0,127.0,127.0,118.0,92.0,-106.0
127.0,126.0,127.0,127.0,126.0,128.0,108.0,127.0,44.0,-110.0,-53.0,127.0,127.0,127.0,118.0,92.0,-106.0
127.0,126.0,127.0,126.0,126.0,128.0,108.0,127.0,44.0,-110.0,-53.0,127.0,127.0,127.0,118.0,92.0,-106.0
127.0,126.0,127.0,126.0,126.0,128.0,107.0,127.0,44.0,-110.0,-53.0,127.0,127.0,127.0,118.0,92.0,-106.0
126.0,127.0,128.0,126.0,126.0,127.0,110.0,127.0,44.0,-110.0,-53.0,127.0,127.0,127.0,119.0,92.0,-106.0
127.0,127.0,128.0,126.0,127.0,127.0,113.0,127.0,44.0,-110.0,-53.0,127.0,127.0,127.0,119.0,92.0,-106.0
126.0,127.0,128.0,126.0,127.0,127.0,113.0,127.0,44.0,-110.0,-53.0,127.0,127.0,127.0,119.0,92.0,-106.0
126.0,126.0,127.0,127.0,127.0,127.0,106.0,127.0,44.0,-110.0,-53.0,127.0,127.0,127.0,119.0,92.0,-106.0
126.0,126.0,127.0,127.0,127.0,127.0,106.0,127.0,44.0,-110.0,-53.0,127.0,127.0,127.0,119.0,92.0,-106.0
126.0,126.0,127.0,126.0,127.0,127.0,106.0,127.0,44.0,-110.0,-53.0,127.0,127.0,127.0,119.0,92.0,-106.0
126.0,126.0,127.0,126.0,126.0,127.0,106.0,127.0,44.0,-110.0,-53.0,127.0,127.0,127.0,119.0,92.0,-106.0
126.0,126.0,127.0,126.0,126.0,127.0,106.0,127.0,44.0,-110.0,-53.0,127.0,127.0,127.0,119.0,92.0,-106.0
126.0,126.0,127.0,126.0,126.0,127.0,106.0,127.0,44.0,-110.0,-53.0,127.0,127.0,127.0,119.0,92.0,-106.0
126.0,126.0,128.0,126.0,126.0,127.0,106.0,127.0,44.0,-110.0,-53.0,127.0,127.0,127.0,119.0,92.0,-106.0
126.0,126.0,127.0,126.0,126.0,127.0,109.0,127.0,44.0,-111.0,-53.0,127.0,127.0,127.0,119.0,92.0,-106.0
126.0,126.0,127.0,126.0,126.0,127.0,112.0,127.0,44.0,-111.0,-53.0,127.0,127.0,127.0,119.0,92.0,-106.0
126.0,127.0,127.0,127.0,127.0,127.0,107.0,127.0,44.0,-111.0,-53.0,127.0,127.0,127.0,119.0,92.0,-106.0
126.0,127.0,127.0,127.0,127.0,127.0,106.0,127.0,44.0,-111.0,-53.0,127.0,127.0,127.0,119.0,92.0,-106.0
126.0,127.0,127.0,127.0,127.0,127.0,106.0,127.0,44.0,-111.0,-53.0,127.0,127.0,127.0,119.0,92.0,-106.0
126.0,126.0,127.0,127.0,127.0,127.0,106.0,127.0,44.0,-111.0,-53.0,127.0,127.0,127.0,119.0,92.0,-106.0
126.0,126.0,127.0,127.0,127.0,127.0,106.0,127.0,44.0,-111.0,-53.0,127.0,127.0,127.0,119.0,92.0,-106.0
126.0,126.0,127.0,127.0,127.0,127.0,105.0,127.0,44.0,-111.0,-53.0,127.0,127.0,127.0,119.0,92.0,-106.0
126.0,126.0,127.0,126.0,127.0,127.0,105.0,127.0,44.0,-111.0,-53.0,127.0,127.0,127.0,119.0,92.0,-106.0
126.0,126.0,127.0,126.0,126.0,127.0,107.0,127.0,44.0,-111.0,-53.0,127.0,127.0,127.0,119.0,92.0,-106.0
126.0,126.0,127.0,126.0,126.0,127.0,111.0,127.0,44.0,-111.0,-53.0,127.0,127.0,127.0,119.0,92.0,-106.0
126.0,127.0,127.0,127.0,127.0,127.0,106.0,127.0,44.0,-111.0,-53.0,127.0,127.0,127.0,119.0,92.0,-106.0
126.0,127.0,127.0,127.0,127.0,127.0,106.0,127.0,44.0,-111.0,-53.0,127.0,127.0,127.0,119.0,92.0,-106.0
126.0,126.0,127.0,127.0,127.0,127.0,106.0,127.0,44.0,-111.0,-53.0,127.0,127.0,127.0,119.0,92.0,-106.0
126.0,126.0,127.0,126.0,127.0,127.0,105.0,127.0,44.0,-111.0,-53.0,127.0,127.0,127.0,119.0,92.0,-106.0
126.0,126.0,127.0,126.0,127.0,127.0,107.0,127.0,44.0,-111.0,-53.0,127.0,127.0,127.0,119.0,92.0,-106.0
126.0,126.0,127.0,126.0,127.0,127.0,107.0,127.0,44.0,-111.0,-53.0,127.0,127.0,127.0,119.0,92.0,-106.0
126.0,126.0,127.0,126.0,127.0,127.0,112.0,127.0,44.0,-111.0,-53.0,127.0,127.0,127.0,119.0,92.0,-106.0
126.0,126.0,127.0,126.0,127.0,127.0,111.0,127.0,44.0,-111.0,-53.0,127.0,127.0,127.0,119.0,92.0,-106.0
126.0,126.0,127.0,126.0,126.0,127.0,111.0,127.0,44.0,-111.0,-53.0,127.0,127.0,127.0,119.0,92.0,-106.0
126.0,127.0,127.0,126.0,126.0,127.0,112.0,127.0,45.0,-111.0,-53.0,127.0,127.0,127.0,119.0,92.0,-106.0
126.0,127.0,127.0,126.0,126.0,127.0,113.0,127.0,45.0,-111.0,-53.0,127.0,127.0,127.0,119.0,92.0,-106.0
126.0,127.0,127.0,126.0,126.0,127.0,113.0,127.0,45.0,-111.0,-53.0,127.0,127.0,127.0,119.0,92.0,-106.0
126.0,126.0,127.0,126.0,126.0,127.0,112.0,127.0,45.0,-111.0,-53.0,127.0,127.0,127.0,119.0,92.0,-106.0
126.0,126.0,127.0,126.0,126.0,127.0,112.0,127.0,45.0,-111.0,-53.0,127.0,127.0,127.0,119.0,92.0,-106.0
126.0,126.0,127.0,126.0,126.0,126.0,112.0,127.0,45.0,-111.0,-53.0,127.0,127.0,127.0,119.0,92.0,-106.0
126.0,126.0,127.0,126.0,126.0,126.0,113.0,127.0,45.0,-111.0,-53.0,127.0,127.0,127.0,119.0,92.0,-106.0
126.0,126.0,127.0,126.0,126.0,126.0,113.0,127.0,45.0,-111.0,-53.0,127.0,127.0,127.0,119.0,92.0,-106.0
126.0,126.0,128.0,126.0,126.0,126.0,113.0,127.0,45.0,-111.0,-53.0,127.0,127.0,127.0,119.0,92.0,-106.0
126.0,126.0,128.0,126.0,126.0,126.0,112.0,127.0,45.0,-111.0,-53.0,127.0,127.0,127.0,119.0,92.0,-106.0
126.0,127.0,127.0,127.0,127.0,127.0,114.0,127.0,45.0,-112.0,-52.0,127.0,127.0,127.0,120.0,92.0,-106.0
126.0,127.0,127.0,127.0,127.0,127.0,113.0,127.0,45.0,-112.0,-52.0,127.0,127.0,127.0,120.0,92.0,-106.0
126.0,126.0,127.0,127.0,127.0,127.0,113.0,127.0,45.0,-112.0,-52.0,127.0,127.0,127.0,120.0,92.0,-106.0
126.0,126.0,127.0,127.0,127.0,127.0,113.0,127.0,45.0,-112.0,-52.0,127.0,127.0,127.0,120.0,92.0,-106.0
126.0,126.0,127.0,126.0,127.0,127.0,112.0,127.0,45.0,-112.0,-52.0,127.0,127.0,127.0,120.0,92.0,-106.0
126.0,126.0,127.0,126.0,127.0,127.0,112.0,127.0,45.0,-112.0,-52.0,127.0,127.0,127.0,120.0,92.0,-106.0
126.0,126.0,127.0,126.0,127.0,127.0,112.0,127.0,45.0,-112.0,-52.0,127.0,127.0,127.0,120.0,92.0,-106.0
126.0,126.0,127.0,126.0,126.0,127.0,112.0,127.0,45.0,-112.0,-52.0,127.0,127.0,127.0,120.0,92.0,-106.0
126.0,126.0,127.0,126.0,126.0,127.0,112.0,127.0,45.0,-112.0,-52.0,127.0,127.0,127.0,120.0,92.0,-106.0
126.0,127.0,127.0,127.0,127.0,127.0,114.0,127.0,45.0,-112.0,-52.0,127.0,127.0,127.0,120.0,92.0,-106.0
127.0,127.0,128.0,126.0,126.0,126.0,113.0,127.0,46.0,-112.0,-52.0,127.0,127.0,127.0,120.0,92.0,-106.0
127.0,127.0,128.0,126.0,126.0,126.0,112.0,127.0,46.0,-112.0,-52.0,127.0,127.0,127.0,120.0,92.0,-106.0
126.0,127.0,128.0,126.0,126.0,126.0,112.0,127.0,46.0,-112.0,-52.0,127.0,127.0,127.0,120.0,92.0,-106.0
126.0,127.0,128.0,126.0,126.0,126.0,112.0,127.0,46.0,-112.0,-52.0,127.0,127.0,127.0,120.0,92.0,-106.0
126.0,127.0,128.0,125.0,126.0,126.0,112.0,127.0,46.0,-112.0,-52.0,127.0,127.0,127.0,120.0,92.0,-106.0
126.0,127.0,128.0,125.0,126.0,126.0,111.0,127.0,46.0,-112.0,-52.0,127.0,127.0,127.0,120.0,92.0,-106.0
126.0,127.0,128.0,125.0,126.0,126.0,111.0,127.0,46.0,-112.0,-52.0,127.0,127.0,127.0,120.0,92.0,-106.0
126.0,127.0,128.0,125.0,126.0,126.0,111.0,127.0,46.0,-112.0,-52.0,127.0,127.0,127.0,120.0,92.0,-106.0
127.0,127.0,128.0,127.0,127.0,126.0,112.0,127.0,46.0,-112.0,-52.0,127.0,127.0,127.0,120.0,92.0,-106.0
127.0,127.0,128.0,127.0,127.0,126.0,113.0,127.0,46.0,-112.0,-52.0,127.0,127.0,127.0,120.0,92.0,-106.0
126.0,126.0,127.0,127.0,126.0,127.0,112.0,127.0,46.0,-112.0,-52.0,127.0,127.0,127.0,120.0,92.0,-106.0
126.0,126.0,127.0,127.0,126.0,126.0,112.0,127.0,46.0,-112.0,-52.0,127.0,127.0,127.0,120.0,92.0,-106.0
126.0,126.0,127.0,126.0,126.0,126.0,112.0,127.0,46.0,-112.0,-52.0,127.0,127.0,127.0,120.0,92.0,-106.0
126.0,126.0,127.0,126.0,126.0,126.0,112.0,127.0,46.0,-112.0,-52.0,127.0,127.0,127.0,120.0,92.0,-106.0
126.0,126.0,127.0,126.0,126.0,126.0,112.0,127.0,46.0,-112.0,-52.0,127.0,127.0,127.0,120.0,92.0,-106.0
126.0,126.0,127.0,126.0,126.0,126.0,112.0,127.0,46.0,-112.0,-52.0,127.0,127.0,127.0,120.0,92.0,-106.0
126.0,126.0,127.0,126.0,126.0,126.0,112.0,127.0,46.0,-112.0,-52.0,127.0,127.0,127.0,120.0,92.0,-106.0
126.0,127.0,127.0,127.0,127.0,127.0,112.0,127.0,46.0,-112.0,-52.0,127.0,127.0,127.0,120.0,92.0,-106.0
126.0,127.0,127.0,127.0,126.0,127.0,112.0,127.0,46.0,-112.0,-52.0,127.0,127.0,127.0,120.0,92.0,-106.0
126.0,127.0,127.0,127.0,126.0,127.0,112.0,127.0,46.0,-112.0,-52.0,127.0,127.0,127.0,120.0,92.0,-106.0
126.0,126.0,127.0,127.0,127.0,127.0,113.0,127.0,46.0,-112.0,-52.0,127.0,127.0,127.0,120.0,92.0,-106.0
126.0,126.0,127.0,126.0,126.0,127.0,113.0,127.0,46.0,-112.0,-52.0,127.0,127.0,127.0,120.0,92.0,-106.0
126.0,126.0,127.0,126.0,126.0,127.0,113.0,127.0,46.0,-112.0,-52.0,127.0,127.0,127.0,120.0,92.0,-106.0
126.0,126.0,127.0,126.0,126.0,127.0,112.0,127.0,46.0,-112.0,-52.0,127.0,127.0,127.0,120.0,92.0,-106.0
126.0,126.0,127.0,126.0,126.0,126.0,112.0,127.0,46.0,-112.0,-52.0,127.0,127.0,127.0,120.0,92.0,-106.0
126.0,126.0,127.0,126.0,127.0,126.0,113.0,127.0,46.0,-112.0,-52.0,127.0,127.0,127.0,120.0,92.0,-106.0
126.0,127.0,127.0,127.0,127.0,127.0,113.0,127.0,46.0,-112.0,-52.0,127.0,127.0,127.0,120.0,92.0,-106.0
126.0,127.0,127.0,127.0,127.0,127.0,113.0,127.0,46.0,-112.0,-52.0,127.0,127.0,127.0,120.0,92.0,-106.0
126.0,127.0,127.0,127.0,127.0,127.0,113.0,127.0,46.0,-112.0,-52.0,127.0,127.0,127.0,120.0,92.0,-106.0
126.0,126.0,127.0,127.0,127.0,127.0,113.0,127.0,46.0,-112.0,-52.0,127.0,127.0,127.0,120.0,92.0,-106.0
127.0,127.0,127.0,127.0,126.0,126.0,112.0,127.0,46.0,-112.0,-52.0,127.0,127.0,127.0,120.0,92.0,-106.0
127.0,127.0,127.0,127.0,126.0,126.0,112.0,127.0,46.0,-112.0,-52.0,127.0,127.0,127.0,120.0,92.0,-106.0
127.0,127.0,127.0,126.0,126.0,126.0,112.0,127.0,46.0,-112.0,-52.0,127.0,127.0,127.0,120.0,92.0,-106.0
127.0,127.0,127.0,126.0,126.0,126.0,113.0,127.0,46.0,-112.0,-52.0,127.0,127.0,127.0,120.0,92.0,-106.0
127.0,126.0,127.0,126.0,126.0,126.0,112.0,127.0,46.0,-112.0,-52.0,127.0,127.0,127.0,120.0,92.0,-106.0
126.0,127.0,127.0,127.0,126.0,127.0,112.0,127.0,46.0,-112.0,-52.0,127.0,127.0,127.0,120.0,92.0,-106.0
127.0,127.0,127.0,127.0,126.0,127.0,112.0,127.0,46.0,-112.0,-52.0,127.0,127.0,127.0,120.0,92.0,-106.0
126.0,127.0,127.0,127.0,126.0,126.0,112.0,127.0,46.0,-112.0,-52.0,127.0,127.0,127.0,120.0,92.0,-106.0
127.0,127.0,127.0,127.0,127.0,126.0,112.0,127.0,46.0,-112.0,-52.0,127.0,127.0,127.0,120.0,92.0,-106.0
127.0,127.0,127.0,127.0,127.0,126.0,113.0,127.0,46.0,-112.0,-52.0,127.0,127.0,127.0,120.0,92.0,-106.0
127.0,127.0,127.0,127.0,126.0,126.0,113.0,127.0,45.0,-112.0,-52.0,127.0,127.0,127.0,120.0,92.0,-106.0
127.0,127.0,127.0,127.0,126.0,126.0,112.0,127.0,45.0,-112.0,-52.0,127.0,127.0,127.0,120.0,92.0,-106.0
127.0,126.0,127.0,126.0,126.0,126.0,113.0,127.0,45.0,-112.0,-52.0,127.0,127.0,127.0,120.0,92.0,-106.0
127.0,126.0,127.0,127.0,126.0,126.0,113.0,127.0,45.0,-112.0,-52.0,127.0,127.0,127.0,120.0,92.0,-106.0
126.0,127.0,127.0,127.0,127.0,127.0,113.0,127.0,45.0,-112.0,-52.0,127.0,127.0,127.0,120.0,92.0,-106.0
126.0,127.0,127.0,127.0,127.0,127.0,112.0,127.0,45.0,-112.0,-52.0,127.0,127.0,127.0,120.0,92.0,-106.0
126.0,127.0,127.0,127.0,127.0,126.0,112.0,127.0,45.0,-112.0,-52.0,127.0,127.0,127.0,120.0,92.0,-106.0
126.0,127.0,127.0,127.0,127.0,126.0,113.0,127.0,45.0,-112.0,-52.0,127.0,127.0,127.0,120.0,92.0,-106.0
127.0,127.0,127.0,127.0,127.0,126.0,112.0,127.0,45.0,-112.0,-52.0,127.0,127.0,127.0,120.0,92.0,-106.0
127.0,127.0,127.0,127.0,126.0,126.0,113.0,127.0,45.0,-112.0,-52.0,127.0,127.0,127.0,120.0,92.0,-106.0
126.0,126.0,127.0,126.0,126.0,126.0,111.0,127.0,45.0,-112.0,-52.0,127.0,127.0,127.0,120.0,92.0,-106.0
126.0,126.0,127.0,126.0,126.0,126.0,111.0,127.0,45.0,-112.0,-52.0,127.0,127.0,127.0,120.0,92.0,-106.0
126.0,126.0,127.0,126.0,126.0,126.0,111.0,127.0,45.0,-112.0,-52.0,127.0,127.0,127.0,120.0,92.0,-106.0
126.0,127.0,127.0,127.0,126.0,126.0,113.0,127.0,45.0,-112.0,-52.0,127.0,127.0,127.0,120.0,92.0,-106.0
126.0,126.0,127.0,127.0,126.0,126.0,113.0,127.0,45.0,-112.0,-52.0,127.0,127.0,127.0,120.0,92.0,-106.0
126.0,126.0,126.0,127.0,126.0,126.0,112.0,127.0,45.0,-112.0,-52.0,127.0,127.0,127.0,120.0,92.0,-106.0
126.0,126.0,126.0,126.0,126.0,126.0,112.0,127.0,45.0,-112.0,-52.0,127.0,127.0,127.0,120.0,92.0,-106.0
126.0,126.0,126.0,126.0,126.0,126.0,111.0,127.0,45.0,-112.0,-52.0,127.0,127.0,127.0,120.0,92.0,-106.0
126.0,126.0,127.0,126.0,126.0,126.0,111.0,127.0,45.0,-112.0,-52.0,127.0,127.0,127.0,120.0,92.0,-106.0
126.0,126.0,127.0,126.0,126.0,126.0,112.0,127.0,45.0,-112.0,-52.0,127.0,127.0,127.0,120.0,92.0,-106.0
126.0,126.0,127.0,126.0,126.0,127.0,112.0,127.0,46.0,-112.0,-52.0,127.0,127.0,127.0,120.0,92.0,-106.0
126.0,126.0,127.0,126.0,126.0,127.0,112.0,127.0,46.0,-112.0,-52.0,127.0,127.0,127.0,120.0,92.0,-106.0
126.0,127.0,127.0,127.0,127.0,127.0,108.0,127.0,46.0,-112.0,-52.0,127.0,127.0,127.0,120.0,92.0,-106.0
126.0,127.0,127.0,127.0,127.0,127.0,112.0,127.0,46.0,-112.0,-52.0,127.0,127.0,127.0,120.0,92.0,-106.0
126.0,127.0,127.0,127.0,126.0,127.0,113.0,127.0,46.0,-112.0,-52.0,127.0,127.0,127.0,120.0,92.0,-106.0
126.0,127.0,127.0,127.0,127.0,127.0,113.0,127.0,46.0,-112.0,-52.0,127.0,127.0,127.0,120.0,92.0,-106.0
126.0,127.0,127.0,126.0,126.0,127.0,113.0,127.0,46.0,-112.0,-52.0,127.0,127.0,127.0,120.0,92.0,-106.0
126.0,127.0,127.0,126.0,126.0,127.0,112.0,127.0,46.0,-112.0,-52.0,127.0,127.0,127.0,120.0,92.0,-106.0
126.0,127.0,127.0,126.0,126.0,127.0,112.0,127.0,46.0,-112.0,-52.0,127.0,127.0,127.0,120.0,92.0,-106.0
126.0,127.0,127.0,126.0,126.0,127.0,112.0,127.0,46.0,-112.0,-52.0,127.0,127.0,127.0,120.0,92.0,-106.0
126.0,126.0,127.0,126.0,126.0,127.0,112.0,127.0,46.0,-112.0,-52.0,127.0,127.0,127.0,120.0,92.0,-106.0
126.0,127.0,126.0,127.0,127.0,127.0,106.0,127.0,46.0,-112.0,-52.0,127.0,127.0,127.0,120.0,92.0,-106.0
126.0,127.0,126.0,127.0,127.0,127.0,109.0,127.0,46.0,-112.0,-52.0,127.0,127.0,127.0,120.0,92.0,-106.0
126.0,127.0,126.0,127.0,127.0,127.0,111.0,127.0,46.0,-112.0,-52.0,127.0,127.0,127.0,120.0,92.0,-106.0
126.0,127.0,126.0,127.0,127.0,127.0,112.0,127.0,46.0,-112.0,-52.0,127.0,127.0,127.0,120.0,92.0,-106.0
126.0,127.0,127.0,127.0,127.0,127.0,113.0,127.0,46.0,-112.0,-52.0,127.0,127.0,127.0,120.0,92.0,-106.0
126.0,127.0,127.0,127.0,127.0,127.0,112.0,127.0,46.0,-112.0,-52.0,127.0,127.0,127.0,120.0,92.0,-106.0
126.0,127.0,127.0,126.0,127.0,127.0,112.0,127.0,46.0,-112.0,-52.0,127.0,127.0,127.0,120.0,92.0,-106.0
126.0,127.0,127.0,126.0,126.0,127.0,112.0,127.0,46.0,-112.0,-52.0,127.0,127.0,127.0,120.0,92.0,-106.0
126.0,127.0,127.0,126.0,126.0,127.0,112.0,127.0,46.0,-112.0,-52.0,127.0,127.0,127.0,120.0,92.0,-106.0
126.0,127.0,127.0,127.0,127.0,127.0,113.0,126.0,47.0,-112.0,-52.0,127.0,127.0,127.0,120.0,92.0,-106.0
126.0,127.0,127.0,127.0,127.0,127.0,113.0,126.0,47.0,-112.0,-52.0,127.0,127.0,127.0,120.0,92.0,-106.0
126.0,127.0,127.0,127.0,127.0,127.0,113.0,127.0,47.0,-112.0,-52.0,127.0,127.0,127.0,120.0,92.0,-106.0
126.0,127.0,127.0,127.0,127.0,127.0,112.0,126.0,47.0,-112.0,-52.0,127.0,127.0,127.0,120.0,92.0,-106.0
126.0,127.0,127.0,127.0,127.0,127.0,113.0,126.0,47.0,-112.0,-52.0,127.0,127.0,127.0,120.0,92.0,-106.0
126.0,127.0,127.0,126.0,127.0,127.0,112.0,126.0,47.0,-112.0,-52.0,127.0,127.0,127.0,120.0,92.0,-106.0
126.0,127.0,127.0,126.0,126.0,127.0,112.0,126.0,47.0,-112.0,-52.0,127.0,127.0,127.0,120.0,92.0,-106.0
126.0,127.0,127.0,126.0,126.0,127.0,112.0,126.0,47.0,-112.0,-52.0,127.0,127.0,127.0,120.0,92.0,-106.0
126.0,126.0,127.0,126.0,126.0,127.0,113.0,126.0,47.0,-112.0,-52.0,127.0,127.0,127.0,120.0,92.0,-106.0
126.0,126.0,127.0,126.0,126.0,127.0,112.0,126.0,47.0,-112.0,-52.0,127.0,127.0,127.0,120.0,92.0,-106.0
126.0,127.0,127.0,127.0,127.0,127.0,106.0,127.0,46.0,-112.0,-52.0,127.0,127.0,127.0,120.0,92.0,-106.0
126.0,127.0,127.0,127.0,127.0,127.0,106.0,127.0,46.0,-112.0,-52.0,127.0,127.0,127.0,120.0,92.0,-106.0
126.0,127.0,127.0,127.0,127.0,127.0,107.0,127.0,46.0,-112.0,-52.0,127.0,127.0,127.0,120.0,92.0,-106.0
126.0,127.0,127.0,127.0,127.0,127.0,111.0,127.0,46.0,-112.0,-52.0,127.0,127.0,127.0,120.0,92.0,-106.0
126.0,127.0,127.0,127.0,127.0,127.0,113.0,127.0,46.0,-112.0,-52.0,127.0,127.0,127.0,120.0,92.0,-106.0
126.0,127.0,127.0,126.0,127.0,127.0,113.0,127.0,46.0,-112.0,-52.0,127.0,127.0,127.0,120.0,92.0,-106.0
126.0,127.0,127.0,126.0,127.0,127.0,113.0,127.0,46.0,-112.0,-52.0,127.0,127.0,127.0,120.0,92.0,-106.0
126.0,127.0,127.0,126.0,127.0,127.0,112.0,127.0,46.0,-112.0,-52.0,127.0,127.0,127.0,120.0,92.0,-106.0
126.0,127.0,127.0,126.0,127.0,127.0,113.0,127.0,46.0,-112.0,-52.0,127.0,127.0,127.0,120.0,92.0,-106.0
126.0,127.0,127.0,127.0,127.0,127.0,106.0,127.0,46.0,-112.0,-52.0,127.0,127.0,127.0,120.0,92.0,-106.0
127.0,127.0,127.0,127.0,127.0,127.0,106.0,127.0,45.0,-112.0,-51.0,127.0,127.0,127.0,120.0,92.0,-106.0
127.0,127.0,127.0,127.0,126.0,127.0,107.0,127.0,45.0,-112.0,-51.0,127.0,127.0,127.0,120.0,92.0,-106.0
127.0,127.0,127.0,127.0,126.0,127.0,107.0,127.0,45.0,-112.0,-51.0,127.0,127.0,127.0,120.0,92.0,-106.0
127.0,127.0,127.0,127.0,126.0,127.0,110.0,127.0,45.0,-112.0,-51.0,127.0,127.0,127.0,120.0,92.0,-106.0
127.0,127.0,127.0,126.0,126.0,127.0,112.0,127.0,45.0,-112.0,-51.0,127.0,127.0,127.0,120.0,92.0,-106.0
127.0,127.0,127.0,126.0,126.0,127.0,113.0,127.0,45.0,-112.0,-51.0,127.0,127.0,127.0,120.0,92.0,-106.0
127.0,127.0,127.0,126.0,126.0,127.0,112.0,127.0,45.0,-112.0,-51.0,127.0,127.0,127.0,120.0,92.0,-106.0
127.0,127.0,127.0,126.0,126.0,127.0,112.0,127.0,45.0,-112.0,-51.0,127.0,127.0,127.0,120.0,92.0,-106.0
126.0,127.0,127.0,127.0,127.0,127.0,106.0,127.0,45.0,-112.0,-51.0,127.0,127.0,127.0,120.0,92.0,-106.0
127.0,127.0,127.0,127.0,127.0,127.0,106.0,127.0,45.0,-112.0,-51.0,127.0,127.0,127.0,120.0,92.0,-106.0
127.0,127.0,127.0,127.0,127.0,127.0,113.0,127.0,45.0,-112.0,-51.0,127.0,127.0,127.0,120.0,92.0,-106.0
127.0,127.0,127.0,127.0,127.0,127.0,112.0,127.0,45.0,-112.0,-51.0,127.0,127.0,127.0,120.0,92.0,-106.0
126.0,127.0,127.0,127.0,127.0,127.0,112.0,127.0,45.0,-112.0,-51.0,127.0,127.0,127.0,120.0,92.0,-106.0
127.0,127.0,127.0,127.0,127.0,127.0,112.0,127.0,45.0,-112.0,-51.0,127.0,127.0,127.0,120.0,92.0,-106.0
127.0,126.0,127.0,127.0,127.0,127.0,112.0,127.0,45.0,-112.0,-51.0,127.0,127.0,127.0,120.0,92.0,-106.0
127.0,126.0,127.0,126.0,127.0,127.0,112.0,127.0,45.0,-112.0,-51.0,127.0,127.0,127.0,120.0,92.0,-106.0
126.0,126.0,127.0,126.0,127.0,127.0,112.0,127.0,45.0,-112.0,-51.0,127.0,127.0,127.0,120.0,92.0,-106.0
127.0,127.0,127.0,128.0,127.0,127.0,113.0,127.0,45.0,-112.0,-51.0,127.0,127.0,127.0,120.0,92.0,-106.0
127.0,127.0,127.0,127.0,127.0,127.0,112.0,127.0,45.0,-112.0,-51.0,127.0,127.0,127.0,120.0,92.0,-106.0
127.0,127.0,127.0,127.0,127.0,127.0,112.0,127.0,45.0,-112.0,-51.0,127.0,127.0,127.0,120.0,92.0,-106.0
126.0,127.0,127.0,127.0,127.0,127.0,113.0,127.0,44.0,-112.0,-51.0,127.0,127.0,127.0,120.0,92.0,-106.0
126.0,127.0,127.0,127.0,127.0,127.0,113.0,127.0,44.0,-112.0,-51.0,127.0,127.0,127.0,120.0,92.0,-106.0
126.0,127.0,127.0,127.0,127.0,127.0,112.0,127.0,44.0,-112.0,-51.0,127.0,127.0,127.0,120.0,92.0,-106.0
126.0,127.0,127.0,127.0,127.0,127.0,112.0,127.0,44.0,-112.0,-51.0,127.0,127.0,127.0,120.0,92.0,-106.0
126.0,126.0,127.0,127.0,127.0,127.0,112.0,127.0,44.0,-112.0,-51.0,127.0,127.0,127.0,120.0,92.0,-106.0
126.0,126.0,128.0,127.0,127.0,127.0,112.0,127.0,44.0,-112.0,-51.0,127.0,127.0,127.0,120.0,92.0,-106.0
126.0,127.0,127.0,128.0,127.0,127.0,106.0,127.0,44.0,-112.0,-51.0,127.0,127.0,127.0,120.0,92.0,-106.0
126.0,127.0,127.0,127.0,127.0,127.0,111.0,127.0,44.0,-112.0,-51.0,127.0,127.0,127.0,120.0,92.0,-106.0
126.0,127.0,127.0,127.0,127.0,127.0,113.0,127.0,44.0,-112.0,-51.0,127.0,127.0,127.0,120.0,92.0,-106.0
126.0,127.0,127.0,127.0,127.0,127.0,112.0,127.0,44.0,-112.0,-51.0,127.0,127.0,127.0,120.0,92.0,-106.0
126.0,127.0,127.0,127.0,126.0,126.0,113.0,127.0,45.0,-112.0,-50.0,127.0,127.0,127.0,121.0,92.0,-106.0
127.0,127.0,127.0,127.0,126.0,126.0,112.0,127.0,45.0,-112.0,-50.0,127.0,127.0,127.0,121.0,92.0,-106.0
126.0,127.0,127.0,126.0,126.0,126.0,112.0,127.0,45.0,-112.0,-50.0,127.0,127.0,127.0,121.0,92.0,-106.0
126.0,126.0,127.0,126.0,126.0,126.0,112.0,127.0,45.0,-112.0,-50.0,127.0,127.0,127.0,121.0,92.0,-106.0
126.0,126.0,127.0,126.0,126.0,126.0,112.0,127.0,45.0,-112.0,-50.0,127.0,127.0,127.0,121.0,92.0,-106.0
127.0,127.0,127.0,127.0,127.0,127.0,113.0,127.0,45.0,-112.0,-50.0,127.0,127.0,127.0,121.0,92.0,-106.0
126.0,127.0,127.0,127.0,127.0,127.0,113.0,127.0,45.0,-112.0,-50.0,127.0,127.0,127.0,121.0,92.0,-106.0
126.0,127.0,127.0,127.0,127.0,127.0,112.0,127.0,45.0,-112.0,-50.0,127.0,127.0,127.0,121.0,92.0,-106.0
126.0,127.0,127.0,127.0,127.0,127.0,112.0,127.0,45.0,-112.0,-50.0,127.0,127.0,127.0,121.0,92.0,-106.0
126.0,127.0,127.0,127.0,126.0,126.0,113.0,127.0,45.0,-112.0,-50.0,127.0,127.0,127.0,121.0,92.0,-106.0
127.0,127.0,127.0,127.0,127.0,127.0,113.0,127.0,46.0,-113.0,-50.0,127.0,127.0,127.0,121.0,92.0,-106.0
127.0,127.0,127.0,127.0,127.0,127.0,113.0,127.0,46.0,-113.0,-50.0,127.0,127.0,127.0,121.0,92.0,-106.0
127.0,127.0,127.0,126.0,127.0,127.0,112.0,127.0,46.0,-113.0,-50.0,127.0,127.0,127.0,121.0,92.0,-106.0
127.0,127.0,127.0,126.0,127.0,127.0,112.0,127.0,46.0,-113.0,-50.0,127.0,127.0,127.0,121.0,92.0,-106.0
127.0,127.0,127.0,127.0,127.0,127.0,112.0,127.0,46.0,-113.0,-50.0,127.0,127.0,127.0,121.0,92.0,-106.0
127.0,127.0,127.0,127.0,127.0,127.0,112.0,127.0,46.0,-113.0,-50.0,127.0,127.0,127.0,121.0,92.0,-106.0
127.0,127.0,127.0,127.0,127.0,127.0,113.0,127.0,46.0,-113.0,-50.0,127.0,127.0,127.0,121.0,92.0,-106.0
127.0,127.0,127.0,127.0,127.0,127.0,113.0,127.0,46.0,-113.0,-50.0,127.0,127.0,127.0,121.0,92.0,-106.0
127.0,127.0,127.0,127.0,127.0,127.0,112.0,127.0,46.0,-113.0,-50.0,127.0,127.0,127.0,121.0,92.0,-106.0
127.0,127.0,127.0,127.0,127.0,127.0,113.0,127.0,46.0,-113.0,-50.0,127.0,127.0,127.0,121.0,92.0,-106.0
126.0,126.0,127.0,126.0,126.0,127.0,112.0,127.0,47.0,-113.0,-50.0,127.0,127.0,127.0,121.0,92.0,-106.0
126.0,126.0,127.0,126.0,126.0,127.0,112.0,127.0,47.0,-113.0,-50.0,127.0,127.0,127.0,121.0,92.0,-106.0
126.0,127.0,127.0,127.0,127.0,127.0,110.0,127.0,47.0,-113.0,-50.0,127.0,127.0,127.0,121.0,92.0,-106.0
126.0,127.0,127.0,127.0,127.0,127.0,112.0,127.0,47.0,-113.0,-50.0,127.0,127.0,127.0,121.0,92.0,-106.0
126.0,127.0,127.0,127.0,127.0,127.0,113.0,127.0,47.0,-113.0,-50.0,127.0,127.0,127.0,121.0,92.0,-106.0
126.0,127.0,127.0,126.0,127.0,127.0,112.0,127.0,47.0,-113.0,-50.0,127.0,127.0,127.0,121.0,92.0,-106.0
126.0,127.0,127.0,126.0,127.0,127.0,112.0,127.0,47.0,-113.0,-50.0,127.0,127.0,127.0,121.0,92.0,-106.0
126.0,127.0,127.0,126.0,127.0,127.0,112.0,127.0,47.0,-113.0,-50.0,127.0,127.0,127.0,121.0,92.0,-106.0
126.0,127.0,127.0,126.0,127.0,127.0,112.0,127.0,47.0,-113.0,-50.0,127.0,127.0,127.0,121.0,92.0,-106.0
126.0,127.0,127.0,126.0,126.0,127.0,112.0,127.0,47.0,-113.0,-50.0,127.0,127.0,127.0,121.0,92.0,-106.0
126.0,127.0,128.0,127.0,127.0,127.0,112.0,127.0,48.0,-114.0,-51.0,127.0,127.0,127.0,121.0,92.0,-106.0
126.0,127.0,127.0,126.0,127.0,127.0,112.0,127.0,48.0,-114.0,-51.0,127.0,127.0,127.0,121.0,92.0,-106.0
126.0,127.0,127.0,127.0,127.0,127.0,111.0,127.0,48.0,-114.0,-51.0,127.0,127.0,127.0,121.0,92.0,-106.0
126.0,127.0,127.0,127.0,127.0,127.0,111.0,127.0,48.0,-114.0,-51.0,127.0,127.0,127.0,121.0,92.0,-106.0
126.0,127.0,127.0,127.0,127.0,127.0,113.0,127.0,48.0,-114.0,-51.0,127.0,127.0,127.0,121.0,92.0,-106.0
126.0,127.0,127.0,127.0,127.0,127.0,112.0,127.0,48.0,-114.0,-51.0,127.0,127.0,127.0,121.0,92.0,-106.0
126.0,127.0,127.0,127.0,127.0,127.0,112.0,127.0,48.0,-114.0,-51.0,127.0,127.0,127.0,121.0,92.0,-106.0
126.0,127.0,127.0,127.0,127.0,127.0,113.0,127.0,48.0,-114.0,-51.0,127.0,127.0,127.0,121.0,92.0,-106.0
126.0,127.0,127.0,127.0,127.0,127.0,113.0,127.0,48.0,-114.0,-51.0,127.0,127.0,127.0,121.0,92.0,-106.0
126.0,127.0,127.0,127.0,127.0,127.0,112.0,127.0,48.0,-114.0,-51.0,127.0,127.0,127.0,121.0,92.0,-106.0
126.0,127.0,127.0,127.0,127.0,127.0,109.0,127.0,48.0,-114.0,-51.0,127.0,127.0,127.0,121.0,92.0,-106.0
126.0,127.0,127.0,127.0,127.0,127.0,112.0,127.0,48.0,-114.0,-51.0,127.0,127.0,127.0,121.0,92.0,-106.0
126.0,127.0,127.0,127.0,127.0,127.0,112.0,127.0,48.0,-114.0,-51.0,127.0,127.0,127.0,121.0,92.0,-106.0
126.0,127.0,127.0,127.0,127.0,127.0,113.0,127.0,48.0,-114.0,-51.0,127.0,127.0,127.0,121.0,92.0,-106.0
126.0,127.0,127.0,127.0,127.0,127.0,113.0,127.0,48.0,-114.0,-51.0,127.0,127.0,127.0,121.0,92.0,-106.0
126.0,127.0,127.0,127.0,127.0,127.0,113.0,127.0,48.0,-114.0,-51.0,127.0,127.0,127.0,121.0,92.0,-106.0
126.0,127.0,127.0,126.0,126.0,127.0,112.0,127.0,48.0,-114.0,-51.0,127.0,127.0,127.0,121.0,92.0,-106.0
126.0,127.0,127.0,126.0,126.0,127.0,112.0,127.0,48.0,-114.0,-51.0,127.0,127.0,127.0,121.0,92.0,-106.0
126.0,127.0,127.0,126.0,126.0,127.0,112.0,127.0,48.0,-114.0,-51.0,127.0,127.0,127.0,121.0,92.0,-106.0
126.0,126.0,127.0,126.0,126.0,127.0,112.0,127.0,48.0,-114.0,-51.0,127.0,127.0,127.0,121.0,92.0,-106.0
126.0,127.0,126.0,127.0,127.0,127.0,110.0,127.0,47.0,-114.0,-51.0,127.0,127.0,127.0,121.0,92.0,-106.0
126.0,127.0,127.0,127.0,127.0,127.0,113.0,127.0,47.0,-114.0,-51.0,127.0,127.0,127.0,121.0,92.0,-106.0
126.0,126.0,127.0,127.0,127.0,127.0,112.0,127.0,47.0,-114.0,-51.0,127.0,127.0,127.0,121.0,92.0,-106.0
126.0,126.0,127.0,127.0,127.0,127.0,113.0,127.0,47.0,-114.0,-51.0,127.0,127.0,127.0,121.0,92.0,-106.0
126.0,126.0,127.0,127.0,126.0,127.0,113.0,127.0,47.0,-114.0,-51.0,127.0,127.0,127.0,121.0,92.0,-106.0
126.0,126.0,127.0,126.0,127.0,127.0,113.0,127.0,47.0,-114.0,-51.0,127.0,127.0,127.0,121.0,92.0,-106.0
127.0,127.0,127.0,126.0,126.0,127.0,112.0,127.0,47.0,-114.0,-51.0,127.0,127.0,127.0,121.0,92.0,-106.0
127.0,127.0,127.0,126.0,126.0,126.0,112.0,127.0,47.0,-114.0,-51.0,127.0,127.0,127.0,121.0,92.0,-106.0
127.0,126.0,127.0,126.0,126.0,126.0,113.0,127.0,47.0,-114.0,-51.0,127.0,127.0,127.0,121.0,92.0,-106.0
127.0,126.0,127.0,126.0,126.0,126.0,113.0,127.0,47.0,-114.0,-51.0,127.0,127.0,127.0,121.0,92.0,-106.0
126.0,127.0,127.0,127.0,127.0,127.0,112.0,127.0,47.0,-114.0,-51.0,127.0,127.0,127.0,122.0,92.0,-106.0
126.0,127.0,127.0,126.0,127.0,127.0,112.0,127.0,47.0,-114.0,-51.0,127.0,127.0,127.0,122.0,92.0,-106.0
126.0,127.0,127.0,126.0,126.0,127.0,112.0,127.0,47.0,-114.0,-51.0,127.0,127.0,127.0,122.0,92.0,-106.0
127.0,127.0,127.0,126.0,126.0,127.0,112.0,127.0,47.0,-114.0,-51.0,127.0,127.0,127.0,122.0,92.0,-106.0
127.0,127.0,127.0,126.0,126.0,127.0,112.0,127.0,47.0,-114.0,-51.0,127.0,127.0,127.0,122.0,92.0,-106.0
127.0,127.0,127.0,125.0,126.0,127.0,112.0,127.0,47.0,-114.0,-51.0,127.0,127.0,127.0,122.0,92.0,-106.0
127.0,127.0,127.0,125.0,126.0,127.0,112.0,127.0,47.0,-114.0,-51.0,127.0,127.0,127.0,122.0,92.0,-106.0
127.0,126.0,127.0,125.0,125.0,126.0,113.0,127.0,47.0,-114.0,-51.0,127.0,127.0,127.0,122.0,92.0,-106.0
127.0,126.0,127.0,125.0,125.0,126.0,113.0,127.0,47.0,-114.0,-51.0,127.0,127.0,127.0,122.0,92.0,-106.0
126.0,127.0,127.0,127.0,127.0,127.0,112.0,127.0,47.0,-114.0,-51.0,127.0,127.0,127.0,122.0,92.0,-106.0
126.0,127.0,127.0,127.0,127.0,127.0,112.0,128.0,46.0,-114.0,-52.0,127.0,127.0,127.0,122.0,92.0,-106.0
126.0,127.0,127.0,127.0,127.0,126.0,113.0,128.0,46.0,-114.0,-52.0,127.0,127.0,127.0,122.0,92.0,-106.0
126.0,127.0,127.0,127.0,127.0,126.0,112.0,128.0,46.0,-114.0,-52.0,127.0,127.0,127.0,122.0,92.0,-106.0
126.0,127.0,127.0,127.0,127.0,126.0,113.0,128.0,46.0,-114.0,-52.0,127.0,127.0,127.0,122.0,92.0,-106.0
127.0,127.0,127.0,127.0,127.0,126.0,113.0,128.0,46.0,-114.0,-52.0,127.0,127.0,127.0,122.0,92.0,-106.0
127.0,127.0,127.0,127.0,127.0,126.0,113.0,128.0,46.0,-114.0,-52.0,127.0,127.0,127.0,122.0,92.0,-106.0
127.0,127.0,127.0,127.0,127.0,126.0,113.0,128.0,46.0,-114.0,-52.0,127.0,127.0,127.0,122.0,92.0,-106.0
127.0,127.0,127.0,127.0,127.0,126.0,113.0,127.0,46.0,-114.0,-52.0,127.0,127.0,127.0,122.0,92.0,-106.0
126.0,127.0,127.0,128.0,127.0,127.0,112.0,128.0,46.0,-114.0,-52.0,127.0,127.0,127.0,122.0,92.0,-106.0
126.0,127.0,127.0,128.0,127.0,127.0,112.0,128.0,46.0,-114.0,-52.0,127.0,127.0,127.0,122.0,92.0,-106.0
127.0,127.0,127.0,127.0,127.0,126.0,112.0,127.0,46.0,-114.0,-52.0,127.0,127.0,127.0,122.0,92.0,-106.0
127.0,127.0,127.0,127.0,127.0,126.0,113.0,127.0,46.0,-114.0,-52.0,127.0,127.0,127.0,122.0,92.0,-106.0
127.0,127.0,127.0,127.0,127.0,126.0,113.0,127.0,46.0,-114.0,-52.0,127.0,127.0,127.0,122.0,92.0,-106.0
127.0,127.0,127.0,127.0,127.0,126.0,113.0,127.0,46.0,-114.0,-52.0,127.0,127.0,127.0,122.0,92.0,-106.0
127.0,126.0,127.0,127.0,127.0,126.0,112.0,127.0,46.0,-114.0,-52.0,127.0,127.0,127.0,122.0,92.0,-106.0
127.0,126.0,127.0,126.0,127.0,126.0,113.0,127.0,46.0,-114.0,-52.0,127.0,127.0,127.0,122.0,92.0,-106.0
127.0,126.0,127.0,126.0,127.0,126.0,113.0,127.0,46.0,-114.0,-52.0,127.0,127.0,127.0,122.0,92.0,-106.0
127.0,127.0,127.0,127.0,127.0,126.0,112.0,127.0,46.0,-114.0,-52.0,127.0,127.0,127.0,122.0,92.0,-106.0
127.0,127.0,127.0,127.0,127.0,126.0,112.0,127.0,46.0,-114.0,-52.0,127.0,127.0,127.0,122.0,92.0,-106.0
127.0,127.0,127.0,127.0,127.0,126.0,112.0,127.0,46.0,-114.0,-52.0,127.0,127.0,127.0,122.0,92.0,-106.0
127.0,127.0,127.0,127.0,127.0,126.0,112.0,128.0,47.0,-114.0,-51.0,127.0,127.0,127.0,122.0,92.0,-106.0
127.0,127.0,127.0,127.0,127.0,126.0,112.0,128.0,47.0,-114.0,-51.0,127.0,127.0,127.0,122.0,92.0,-106.0
127.0,127.0,127.0,127.0,127.0,126.0,112.0,128.0,47.0,-114.0,-51.0,127.0,127.0,127.0,122.0,92.0,-106.0
127.0,127.0,127.0,127.0,127.0,126.0,113.0,128.0,47.0,-114.0,-51.0,127.0,127.0,127.0,122.0,92.0,-106.0
127.0,127.0,128.0,127.0,127.0,126.0,112.0,128.0,47.0,-114.0,-51.0,127.0,127.0,127.0,122.0,92.0,-106.0
127.0,127.0,127.0,127.0,127.0,126.0,113.0,128.0,47.0,-114.0,-51.0,127.0,127.0,127.0,122.0,92.0,-106.0
127.0,127.0,126.0,127.0,127.0,126.0,112.0,128.0,47.0,-114.0,-51.0,127.0,127.0,127.0,122.0,92.0,-106.0
126.0,127.0,127.0,127.0,127.0,126.0,113.0,128.0,47.0,-114.0,-51.0,127.0,127.0,127.0,122.0,92.0,-106.0
127.0,127.0,127.0,127.0,127.0,126.0,113.0,128.0,47.0,-114.0,-51.0,127.0,127.0,127.0,122.0,92.0,-106.0
127.0,127.0,127.0,127.0,127.0,126.0,113.0,128.0,47.0,-114.0,-51.0,127.0,127.0,127.0,122.0,92.0,-106.0
127.0,127.0,127.0,127.0,127.0,126.0,113.0,127.0,47.0,-114.0,-51.0,127.0,127.0,127.0,122.0,92.0,-106.0
127.0,126.0,127.0,127.0,126.0,126.0,113.0,127.0,47.0,-114.0,-51.0,127.0,127.0,127.0,122.0,92.0,-106.0
127.0,126.0,127.0,127.0,126.0,126.0,112.0,127.0,47.0,-114.0,-51.0,127.0,127.0,127.0,122.0,92.0,-106.0
127.0,126.0,127.0,126.0,126.0,126.0,112.0,127.0,47.0,-114.0,-51.0,127.0,127.0,127.0,122.0,92.0,-106.0
127.0,126.0,127.0,126.0,126.0,126.0,112.0,127.0,47.0,-114.0,-51.0,127.0,127.0,127.0,122.0,92.0,-106.0
126.0,127.0,127.0,127.0,127.0,126.0,112.0,127.0,47.0,-114.0,-51.0,127.0,127.0,127.0,122.0,92.0,-106.0
126.0,127.0,127.0,127.0,127.0,126.0,113.0,127.0,47.0,-114.0,-51.0,127.0,127.0,127.0,122.0,92.0,-106.0
127.0,127.0,127.0,127.0,127.0,126.0,113.0,127.0,47.0,-114.0,-51.0,127.0,127.0,127.0,122.0,92.0,-106.0
126.0,127.0,127.0,127.0,127.0,126.0,113.0,127.0,47.0,-114.0,-51.0,127.0,127.0,127.0,122.0,92.0,-106.0
126.0,127.0,127.0,127.0,127.0,126.0,112.0,127.0,47.0,-114.0,-51.0,127.0,127.0,127.0,122.0,92.0,-106.0
126.0,127.0,127.0,126.0,127.0,127.0,112.0,127.0,48.0,-114.0,-52.0,127.0,127.0,127.0,122.0,92.0,-106.0
126.0,127.0,127.0,126.0,126.0,126.0,112.0,127.0,48.0,-114.0,-52.0,127.0,127.0,127.0,122.0,92.0,-106.0
126.0,126.0,127.0,126.0,126.0,126.0,113.0,127.0,48.0,-114.0,-52.0,127.0,127.0,127.0,122.0,92.0,-106.0
126.0,126.0,127.0,126.0,126.0,126.0,113.0,127.0,48.0,-114.0,-52.0,127.0,127.0,127.0,122.0,92.0,-106.0
126.0,127.0,126.0,127.0,127.0,126.0,112.0,127.0,48.0,-114.0,-52.0,127.0,127.0,127.0,122.0,92.0,-106.0
126.0,127.0,127.0,127.0,127.0,127.0,112.0,127.0,48.0,-114.0,-52.0,127.0,127.0,127.0,122.0,92.0,-106.0
126.0,127.0,127.0,127.0,127.0,127.0,112.0,127.0,48.0,-114.0,-52.0,127.0,127.0,127.0,122.0,92.0,-106.0
126.0,127.0,127.0,126.0,127.0,127.0,112.0,127.0,48.0,-114.0,-52.0,127.0,127.0,127.0,122.0,92.0,-106.0
126.0,127.0,127.0,126.0,127.0,127.0,112.0,127.0,48.0,-114.0,-52.0,127.0,127.0,127.0,122.0,92.0,-106.0
126.0,127.0,127.0,126.0,127.0,127.0,112.0,127.0,48.0,-114.0,-52.0,127.0,127.0,127.0,122.0,92.0,-106.0
126.0,127.0,127.0,126.0,126.0,126.0,112.0,127.0,49.0,-114.0,-52.0,127.0,127.0,127.0,122.0,92.0,-106.0
126.0,127.0,127.0,126.0,126.0,126.0,112.0,127.0,49.0,-114.0,-52.0,127.0,127.0,127.0,122.0,92.0,-106.0
126.0,127.0,127.0,126.0,126.0,126.0,112.0,127.0,49.0,-114.0,-52.0,127.0,127.0,127.0,122.0,92.0,-106.0
126.0,127.0,127.0,127.0,127.0,127.0,112.0,127.0,49.0,-114.0,-52.0,127.0,127.0,127.0,122.0,92.0,-106.0
126.0,127.0,127.0,127.0,127.0,126.0,112.0,127.0,49.0,-114.0,-52.0,127.0,127.0,127.0,122.0,92.0,-106.0
126.0,127.0,127.0,127.0,127.0,126.0,113.0,127.0,49.0,-114.0,-52.0,127.0,127.0,127.0,122.0,92.0,-106.0
126.0,127.0,127.0,127.0,127.0,126.0,112.0,127.0,49.0,-114.0,-52.0,127.0,127.0,127.0,122.0,92.0,-106.0
126.0,127.0,127.0,127.0,127.0,126.0,112.0,127.0,49.0,-114.0,-52.0,127.0,127.0,127.0,122.0,92.0,-106.0
127.0,127.0,127.0,126.0,127.0,126.0,112.0,127.0,49.0,-114.0,-52.0,127.0,127.0,127.0,122.0,92.0,-106.0
126.0,127.0,127.0,126.0,127.0,126.0,112.0,127.0,49.0,-114.0,-52.0,127.0,127.0,127.0,122.0,92.0,-106.0
127.0,127.0,127.0,126.0,127.0,126.0,112.0,127.0,49.0,-114.0,-51.0,127.0,127.0,127.0,122.0,92.0,-106.0
127.0,127.0,127.0,126.0,127.0,126.0,112.0,127.0,49.0,-114.0,-51.0,127.0,127.0,127.0,122.0,92.0,-106.0
126.0,127.0,127.0,127.0,127.0,126.0,112.0,127.0,49.0,-114.0,-51.0,127.0,127.0,127.0,122.0,92.0,-106.0
126.0,127.0,127.0,127.0,127.0,126.0,112.0,127.0,49.0,-114.0,-51.0,127.0,127.0,127.0,122.0,92.0,-106.0
126.0,127.0,127.0,127.0,127.0,126.0,113.0,127.0,49.0,-114.0,-51.0,127.0,127.0,127.0,122.0,92.0,-106.0
126.0,127.0,127.0,127.0,127.0,126.0,112.0,127.0,49.0,-114.0,-51.0,127.0,127.0,127.0,122.0,92.0,-106.0
126.0,127.0,127.0,127.0,127.0,126.0,113.0,127.0,49.0,-114.0,-51.0,127.0,127.0,127.0,122.0,92.0,-106.0
126.0,127.0,127.0,127.0,127.0,126.0,113.0,127.0,49.0,-114.0,-51.0,127.0,127.0,127.0,122.0,92.0,-106.0
126.0,127.0,127.0,127.0,127.0,126.0,112.0,127.0,49.0,-114.0,-51.0,127.0,127.0,127.0,122.0,92.0,-106.0
127.0,127.0,127.0,127.0,127.0,126.0,112.0,127.0,49.0,-114.0,-51.0,127.0,127.0,127.0,122.0,92.0,-106.0
126.0,127.0,127.0,127.0,127.0,126.0,113.0,127.0,49.0,-114.0,-51.0,127.0,127.0,127.0,122.0,92.0,-106.0
126.0,127.0,127.0,127.0,127.0,127.0,113.0,127.0,49.0,-114.0,-51.0,127.0,127.0,127.0,122.0,92.0,-106.0
126.0,127.0,127.0,127.0,127.0,126.0,112.0,127.0,49.0,-114.0,-51.0,127.0,127.0,127.0,122.0,92.0,-106.0
126.0,127.0,127.0,127.0,127.0,126.0,112.0,127.0,49.0,-114.0,-51.0,127.0,127.0,127.0,122.0,92.0,-106.0
126.0,127.0,127.0,127.0,127.0,126.0,112.0,127.0,49.0,-114.0,-51.0,127.0,127.0,127.0,122.0,92.0,-106.0
126.0,127.0,127.0,127.0,127.0,127.0,112.0,127.0,49.0,-114.0,-51.0,127.0,127.0,127.0,122.0,92.0,-106.0
126.0,127.0,127.0,127.0,127.0,126.0,113.0,127.0,49.0,-114.0,-51.0,127.0,127.0,127.0,122.0,92.0,-106.0
126.0,127.0,127.0,127.0,127.0,126.0,113.0,127.0,49.0,-114.0,-51.0,127.0,127.0,127.0,122.0,92.0,-106.0
126.0,127.0,127.0,127.0,127.0,126.0,113.0,127.0,49.0,-114.0,-51.0,127.0,127.0,127.0,122.0,92.0,-106.0
126.0,127.0,127.0,127.0,127.0,126.0,113.0,127.0,49.0,-114.0,-51.0,127.0,127.0,127.0,122.0,92.0,-106.0
127.0,127.0,127.0,129.0,127.0,127.0,107.0,127.0,49.0,-114.0,-51.0,127.0,127.0,127.0,122.0,92.0,-106.0
127.0,127.0,127.0,128.0,127.0,127.0,111.0,127.0,49.0,-114.0,-51.0,127.0,127.0,127.0,122.0,92.0,-106.0
127.0,127.0,127.0,128.0,127.0,127.0,113.0,127.0,49.0,-114.0,-51.0,127.0,127.0,127.0,122.0,92.0,-106.0
127.0,127.0,127.0,128.0,127.0,127.0,114.0,127.0,49.0,-114.0,-51.0,127.0,127.0,127.0,122.0,92.0,-106.0
127.0,127.0,127.0,128.0,127.0,127.0,113.0,127.0,49.0,-114.0,-51.0,127.0,127.0,127.0,122.0,92.0,-106.0
127.0,127.0,127.0,128.0,127.0,127.0,113.0,127.0,49.0,-114.0,-51.0,127.0,127.0,127.0,122.0,92.0,-106.0
127.0,127.0,127.0,127.0,127.0,127.0,113.0,127.0,49.0,-114.0,-51.0,127.0,127.0,127.0,122.0,92.0,-106.0
127.0,127.0,127.0,127.0,127.0,127.0,113.0,127.0,49.0,-114.0,-51.0,127.0,127.0,127.0,122.0,92.0,-106.0
127.0,127.0,127.0,127.0,127.0,127.0,112.0,127.0,49.0,-114.0,-51.0,127.0,127.0,127.0,122.0,92.0,-106.0
127.0,127.0,127.0,127.0,127.0,127.0,113.0,127.0,49.0,-114.0,-51.0,127.0,127.0,127.0,122.0,92.0,-106.0
127.0,127.0,127.0,128.0,127.0,127.0,113.0,127.0,49.0,-114.0,-51.0,127.0,127.0,127.0,122.0,92.0,-106.0
127.0,127.0,127.0,128.0,127.0,126.0,112.0,127.0,49.0,-114.0,-51.0,127.0,127.0,127.0,122.0,92.0,-106.0
127.0,127.0,127.0,128.0,127.0,126.0,113.0,127.0,49.0,-114.0,-51.0,127.0,127.0,127.0,122.0,92.0,-106.0
127.0,127.0,127.0,127.0,127.0,126.0,112.0,127.0,49.0,-114.0,-51.0,127.0,127.0,127.0,122.0,92.0,-106.0
127.0,127.0,127.0,127.0,127.0,126.0,112.0,127.0,49.0,-114.0,-51.0,127.0,127.0,127.0,122.0,92.0,-106.0
127.0,127.0,127.0,127.0,127.0,126.0,112.0,127.0,49.0,-114.0,-51.0,127.0,127.0,127.0,122.0,92.0,-106.0
127.0,127.0,127.0,127.0,127.0,126.0,112.0,127.0,49.0,-114.0,-51.0,127.0,127.0,127.0,122.0,92.0,-106.0
127.0,127.0,127.0,127.0,127.0,126.0,112.0,127.0,49.0,-114.0,-51.0,127.0,127.0,127.0,122.0,92.0,-106.0
127.0,127.0,127.0,127.0,127.0,126.0,111.0,127.0,49.0,-114.0,-51.0,127.0,127.0,127.0,122.0,92.0,-106.0
127.0,127.0,127.0,128.0,127.0,127.0,113.0,128.0,49.0,-114.0,-51.0,127.0,127.0,127.0,122.0,92.0,-106.0
126.0,127.0,127.0,127.0,127.0,127.0,113.0,127.0,49.0,-115.0,-50.0,127.0,127.0,127.0,122.0,93.0,-106.0
126.0,127.0,127.0,127.0,127.0,127.0,112.0,127.0,49.0,-115.0,-50.0,127.0,127.0,127.0,122.0,93.0,-106.0
126.0,127.0,127.0,127.0,127.0,127.0,113.0,127.0,49.0,-115.0,-50.0,127.0,127.0,127.0,122.0,93.0,-106.0
126.0,127.0,127.0,127.0,127.0,127.0,112.0,127.0,49.0,-115.0,-50.0,127.0,127.0,127.0,122.0,93.0,-106.0
127.0,127.0,127.0,127.0,127.0,127.0,112.0,127.0,49.0,-115.0,-50.0,127.0,127.0,127.0,122.0,93.0,-106.0
126.0,127.0,127.0,127.0,127.0,127.0,112.0,127.0,49.0,-115.0,-50.0,127.0,127.0,127.0,122.0,93.0,-106.0
126.0,127.0,127.0,127.0,127.0,127.0,112.0,127.0,49.0,-115.0,-50.0,127.0,127.0,127.0,122.0,93.0,-106.0
126.0,127.0,127.0,126.0,126.0,126.0,112.0,127.0,49.0,-115.0,-50.0,127.0,127.0,127.0,122.0,93.0,-106.0
127.0,127.0,127.0,127.0,127.0,127.0,113.0,128.0,49.0,-115.0,-50.0,127.0,127.0,127.0,122.0,93.0,-106.0
126.0,127.0,127.0,127.0,127.0,127.0,114.0,127.0,49.0,-115.0,-50.0,127.0,127.0,127.0,122.0,93.0,-106.0
127.0,127.0,127.0,127.0,127.0,127.0,112.0,128.0,49.0,-115.0,-50.0,127.0,127.0,127.0,122.0,93.0,-106.0
126.0,127.0,127.0,126.0,127.0,127.0,112.0,128.0,49.0,-115.0,-50.0,127.0,127.0,127.0,122.0,93.0,-106.0
127.0,127.0,127.0,126.0,127.0,126.0,112.0,128.0,49.0,-115.0,-50.0,127.0,127.0,127.0,122.0,93.0,-106.0
127.0,127.0,127.0,126.0,127.0,126.0,112.0,128.0,49.0,-115.0,-50.0,127.0,127.0,127.0,122.0,93.0,-106.0
126.0,127.0,127.0,126.0,127.0,126.0,112.0,128.0,49.0,-115.0,-50.0,127.0,127.0,127.0,122.0,93.0,-106.0
126.0,127.0,127.0,126.0,126.0,126.0,112.0,127.0,49.0,-115.0,-50.0,127.0,127.0,127.0,122.0,93.0,-106.0
126.0,127.0,127.0,126.0,126.0,126.0,112.0,127.0,49.0,-115.0,-50.0,127.0,127.0,127.0,122.0,93.0,-106.0
127.0,127.0,127.0,127.0,127.0,127.0,113.0,128.0,49.0,-115.0,-50.0,127.0,127.0,127.0,122.0,93.0,-106.0
127.0,127.0,127.0,127.0,127.0,127.0,113.0,128.0,49.0,-115.0,-50.0,127.0,127.0,127.0,122.0,93.0,-106.0
127.0,127.0,127.0,127.0,127.0,127.0,113.0,128.0,49.0,-115.0,-50.0,127.0,127.0,127.0,122.0,93.0,-106.0
126.0,127.0,127.0,127.0,127.0,127.0,112.0,127.0,49.0,-115.0,-50.0,127.0,127.0,127.0,122.0,93.0,-106.0
126.0,127.0,127.0,127.0,127.0,127.0,113.0,127.0,49.0,-115.0,-50.0,127.0,127.0,127.0,122.0,93.0,-106.0
126.0,127.0,127.0,127.0,127.0,127.0,113.0,127.0,49.0,-115.0,-50.0,127.0,127.0,127.0,122.0,93.0,-106.0
126.0,127.0,127.0,126.0,127.0,127.0,112.0,127.0,49.0,-115.0,-50.0,127.0,127.0,127.0,122.0,93.0,-106.0
126.0,127.0,127.0,126.0,126.0,127.0,112.0,127.0,49.0,-115.0,-50.0,127.0,127.0,127.0,122.0,93.0,-106.0
126.0,127.0,127.0,126.0,126.0,127.0,112.0,127.0,49.0,-115.0,-50.0,127.0,127.0,127.0,122.0,93.0,-106.0
127.0,127.0,127.0,127.0,127.0,127.0,110.0,127.0,49.0,-115.0,-50.0,127.0,127.0,127.0,122.0,93.0,-106.0
126.0,127.0,127.0,127.0,127.0,127.0,110.0,127.0,49.0,-115.0,-50.0,127.0,127.0,127.0,122.0,93.0,-106.0
126.0,127.0,127.0,127.0,127.0,127.0,109.0,127.0,49.0,-115.0,-50.0,127.0,127.0,127.0,122.0,93.0,-106.0
126.0,127.0,127.0,127.0,127.0,127.0,111.0,127.0,49.0,-115.0,-50.0,127.0,127.0,127.0,122.0,93.0,-106.0
126.0,127.0,127.0,126.0,126.0,126.0,112.0,127.0,48.0,-115.0,-50.0,127.0,127.0,127.0,122.0,93.0,-106.0
126.0,127.0,127.0,126.0,126.0,126.0,112.0,127.0,48.0,-115.0,-50.0,127.0,127.0,127.0,122.0,93.0,-106.0
126.0,127.0,127.0,126.0,126.0,126.0,112.0,127.0,48.0,-115.0,-50.0,127.0,127.0,127.0,122.0,93.0,-106.0
126.0,127.0,127.0,126.0,126.0,126.0,112.0,127.0,48.0,-115.0,-50.0,127.0,127.0,127.0,122.0,93.0,-106.0
126.0,127.0,127.0,126.0,126.0,126.0,112.0,127.0,48.0,-115.0,-50.0,127.0,127.0,127.0,122.0,93.0,-106.0
126.0,127.0,127.0,126.0,127.0,127.0,112.0,127.0,48.0,-115.0,-50.0,127.0,127.0,127.0,122.0,93.0,-106.0
126.0,127.0,127.0,126.0,126.0,127.0,112.0,127.0,48.0,-115.0,-50.0,127.0,127.0,127.0,122.0,93.0,-106.0
126.0,127.0,127.0,126.0,126.0,127.0,112.0,127.0,48.0,-115.0,-50.0,127.0,127.0,127.0,122.0,93.0,-106.0
126.0,127.0,127.0,126.0,126.0,127.0,112.0,127.0,48.0,-115.0,-50.0,127.0,127.0,127.0,122.0,93.0,-106.0
126.0,127.0,127.0,126.0,126.0,127.0,112.0,127.0,48.0,-115.0,-50.0,127.0,127.0,127.0,122.0,93.0,-106.0
126.0,127.0,127.0,127.0,127.0,127.0,112.0,127.0,47.0,-114.0,-50.0,127.0,127.0,127.0,122.0,93.0,-106.0
126.0,127.0,127.0,127.0,127.0,127.0,112.0,127.0,47.0,-114.0,-50.0,127.0,127.0,127.0,122.0,93.0,-106.0
126.0,127.0,127.0,126.0,127.0,126.0,112.0,127.0,47.0,-114.0,-50.0,127.0,127.0,127.0,122.0,93.0,-106.0
126.0,127.0,127.0,126.0,127.0,126.0,112.0,127.0,47.0,-114.0,-50.0,127.0,127.0,127.0,122.0,93.0,-106.0
126.0,127.0,127.0,127.0,127.0,127.0,113.0,127.0,47.0,-114.0,-50.0,127.0,127.0,127.0,122.0,93.0,-106.0
126.0,127.0,127.0,127.0,127.0,127.0,112.0,127.0,47.0,-114.0,-50.0,127.0,127.0,127.0,122.0,93.0,-106.0
126.0,127.0,127.0,127.0,127.0,127.0,113.0,127.0,47.0,-114.0,-50.0,127.0,127.0,127.0,122.0,93.0,-106.0
126.0,127.0,127.0,127.0,127.0,127.0,113.0,127.0,47.0,-114.0,-50.0,127.0,127.0,127.0,122.0,93.0,-106.0
126.0,127.0,127.0,127.0,127.0,127.0,112.0,127.0,47.0,-114.0,-50.0,127.0,127.0,127.0,122.0,93.0,-106.0
126.0,127.0,127.0,127.0,127.0,127.0,112.0,127.0,47.0,-114.0,-50.0,127.0,127.0,127.0,122.0,93.0,-106.0
127.0,127.0,127.0,127.0,127.0,126.0,112.0,127.0,47.0,-114.0,-50.0,127.0,127.0,127.0,122.0,93.0,-106.0
127.0,127.0,127.0,127.0,127.0,126.0,112.0,127.0,47.0,-114.0,-50.0,127.0,127.0,127.0,122.0,93.0,-106.0
127.0,127.0,127.0,127.0,127.0,126.0,112.0,127.0,47.0,-114.0,-50.0,127.0,127.0,127.0,122.0,93.0,-106.0
127.0,127.0,126.0,127.0,127.0,127.0,113.0,127.0,47.0,-114.0,-50.0,127.0,127.0,127.0,122.0,93.0,-106.0
127.0,127.0,127.0,127.0,127.0,127.0,113.0,127.0,47.0,-114.0,-50.0,127.0,127.0,127.0,122.0,93.0,-106.0
127.0,127.0,126.0,127.0,127.0,127.0,113.0,127.0,47.0,-114.0,-50.0,127.0,127.0,127.0,122.0,93.0,-106.0
127.0,127.0,127.0,127.0,127.0,127.0,112.0,127.0,47.0,-114.0,-50.0,127.0,127.0,127.0,122.0,93.0,-106.0
127.0,127.0,127.0,127.0,127.0,127.0,112.0,127.0,47.0,-114.0,-50.0,127.0,127.0,127.0,122.0,93.0,-106.0
127.0,127.0,127.0,127.0,127.0,127.0,112.0,127.0,47.0,-114.0,-50.0,127.0,127.0,127.0,122.0,93.0,-106.0
127.0,127.0,127.0,127.0,127.0,127.0,112.0,127.0,47.0,-114.0,-50.0,127.0,127.0,127.0,122.0,93.0,-106.0
126.0,127.0,127.0,127.0,127.0,126.0,112.0,127.0,46.0,-114.0,-50.0,127.0,127.0,127.0,122.0,93.0,-106.0
127.0,127.0,127.0,127.0,127.0,126.0,112.0,127.0,46.0,-114.0,-50.0,127.0,127.0,127.0,122.0,93.0,-106.0
126.0,127.0,126.0,127.0,127.0,127.0,112.0,127.0,46.0,-114.0,-50.0,127.0,127.0,127.0,122.0,93.0,-106.0
126.0,127.0,126.0,127.0,127.0,126.0,112.0,127.0,46.0,-114.0,-50.0,127.0,127.0,127.0,122.0,93.0,-106.0
126.0,127.0,126.0,127.0,127.0,126.0,112.0,127.0,46.0,-114.0,-50.0,127.0,127.0,127.0,122.0,93.0,-106.0
126.0,127.0,126.0,127.0,127.0,126.0,112.0,127.0,46.0,-114.0,-50.0,127.0,127.0,127.0,122.0,93.0,-106.0
126.0,127.0,126.0,127.0,127.0,126.0,112.0,127.0,46.0,-114.0,-50.0,127.0,127.0,127.0,122.0,93.0,-106.0
126.0,127.0,126.0,127.0,127.0,126.0,112.0,127.0,46.0,-114.0,-50.0,127.0,127.0,127.0,122.0,93.0,-106.0
126.0,127.0,127.0,127.0,127.0,126.0,112.0,127.0,46.0,-114.0,-50.0,127.0,127.0,127.0,122.0,93.0,-106.0
126.0,127.0,127.0,127.0,127.0,126.0,112.0,127.0,46.0,-114.0,-50.0,127.0,127.0,127.0,122.0,93.0,-106.0
127.0,127.0,127.0,126.0,126.0,127.0,113.0,127.0,46.0,-113.0,-50.0,127.0,127.0,127.0,122.0,93.0,-106.0
127.0,127.0,127.0,128.0,127.0,127.0,113.0,127.0,46.0,-113.0,-50.0,127.0,127.0,127.0,122.0,93.0,-106.0
127.0,127.0,127.0,127.0,127.0,127.0,113.0,127.0,46.0,-113.0,-50.0,127.0,127.0,127.0,122.0,93.0,-106.0
126.0,127.0,127.0,127.0,127.0,127.0,113.0,127.0,46.0,-113.0,-50.0,127.0,127.0,127.0,122.0,93.0,-106.0
127.0,127.0,126.0,127.0,127.0,127.0,112.0,127.0,46.0,-113.0,-50.0,127.0,127.0,127.0,122.0,93.0,-106.0
127.0,127.0,127.0,127.0,127.0,127.0,112.0,127.0,46.0,-113.0,-50.0,127.0,127.0,127.0,122.0,93.0,-106.0
127.0,127.0,127.0,127.0,127.0,127.0,112.0,127.0,46.0,-113.0,-50.0,127.0,127.0,127.0,122.0,93.0,-106.0
127.0,127.0,127.0,127.0,127.0,127.0,112.0,127.0,46.0,-113.0,-50.0,127.0,127.0,127.0,122.0,93.0,-106.0
127.0,127.0,127.0,127.0,127.0,126.0,112.0,127.0,46.0,-113.0,-50.0,127.0,127.0,127.0,122.0,93.0,-106.0
127.0,127.0,127.0,126.0,126.0,126.0,112.0,127.0,46.0,-113.0,-50.0,127.0,127.0,127.0,122.0,93.0,-106.0
126.0,127.0,127.0,127.0,127.0,127.0,113.0,127.0,46.0,-113.0,-50.0,127.0,127.0,127.0,122.0,93.0,-106.0
126.0,127.0,127.0,127.0,127.0,127.0,113.0,127.0,46.0,-113.0,-50.0,127.0,127.0,127.0,122.0,93.0,-106.0
126.0,127.0,126.0,127.0,127.0,127.0,112.0,127.0,46.0,-113.0,-50.0,127.0,127.0,127.0,122.0,93.0,-106.0
126.0,127.0,126.0,127.0,127.0,127.0,112.0,127.0,46.0,-113.0,-50.0,127.0,127.0,127.0,122.0,93.0,-106.0
126.0,127.0,126.0,127.0,127.0,127.0,112.0,127.0,46.0,-113.0,-50.0,127.0,127.0,127.0,122.0,93.0,-106.0
126.0,127.0,126.0,127.0,127.0,127.0,112.0,127.0,46.0,-113.0,-50.0,127.0,127.0,127.0,122.0,93.0,-106.0
126.0,127.0,127.0,127.0,127.0,127.0,112.0,127.0,46.0,-113.0,-50.0,127.0,127.0,127.0,122.0,93.0,-106.0
126.0,127.0,127.0,127.0,127.0,127.0,112.0,127.0,46.0,-113.0,-50.0,127.0,127.0,127.0,122.0,93.0,-106.0
126.0,127.0,127.0,127.0,127.0,127.0,112.0,127.0,46.0,-113.0,-50.0,127.0,127.0,127.0,122.0,93.0,-106.0
126.0,127.0,127.0,127.0,127.0,127.0,112.0,127.0,46.0,-113.0,-50.0,127.0,127.0,127.0,122.0,93.0,-106.0
126.0,127.0,127.0,128.0,127.0,127.0,113.0,127.0,46.0,-113.0,-50.0,127.0,127.0,127.0,122.0,93.0,-106.0
126.0,127.0,127.0,128.0,127.0,127.0,113.0,127.0,46.0,-113.0,-50.0,127.0,127.0,127.0,122.0,93.0,-106.0
126.0,127.0,127.0,127.0,127.0,127.0,112.0,127.0,46.0,-113.0,-50.0,127.0,127.0,127.0,122.0,93.0,-106.0
126.0,127.0,127.0,128.0,127.0,127.0,112.0,127.0,46.0,-113.0,-50.0,127.0,127.0,127.0,122.0,93.0,-106.0
126.0,127.0,127.0,127.0,127.0,127.0,112.0,127.0,46.0,-113.0,-50.0,127.0,127.0,127.0,122.0,93.0,-106.0
126.0,127.0,127.0,127.0,127.0,127.0,112.0,127.0,46.0,-113.0,-50.0,127.0,127.0,127.0,122.0,93.0,-106.0
126.0,127.0,127.0,127.0,127.0,127.0,112.0,127.0,46.0,-113.0,-50.0,127.0,127.0,127.0,122.0,93.0,-106.0
126.0,127.0,127.0,127.0,127.0,127.0,112.0,127.0,46.0,-113.0,-50.0,127.0,127.0,127.0,122.0,93.0,-106.0
126.0,127.0,127.0,127.0,127.0,127.0,112.0,127.0,46.0,-113.0,-50.0,127.0,127.0,127.0,122.0,93.0,-106.0
126.0,127.0,127.0,128.0,127.0,127.0,113.0,127.0,46.0,-113.0,-50.0,127.0,127.0,127.0,122.0,93.0,-106.0
