emg1,emg2,emg3,emg4,emg5,emg6,emg7,emg8,acc_x,acc_y,acc_z,gyro_x,gyro_y,gyro_z,angle_pitch,angle_roll,angle_yaw
131.0,126.0,126.0,125.0,126.0,153.0,123.0,130.0,13.0,-103.0,-91.0,127.0,127.0,127.0,104.0,82.0,-5.0
131.0,128.0,128.0,128.0,128.0,153.0,140.0,130.0,13.0,-103.0,-91.0,127.0,127.0,127.0,103.0,82.0,-5.0
131.0,127.0,127.0,128.0,128.0,153.0,139.0,130.0,13.0,-103.0,-91.0,127.0,127.0,127.0,103.0,82.0,-5.0
131.0,131.0,127.0,128.0,128.0,153.0,125.0,126.0,13.0,-103.0,-91.0,127.0,127.0,127.0,103.0,82.0,-5.0
131.0,129.0,127.0,128.0,128.0,153.0,128.0,127.0,13.0,-103.0,-91.0,127.0,127.0,127.0,103.0,82.0,-5.0
131.0,128.0,127.0,128.0,128.0,153.0,132.0,127.0,13.0,-103.0,-91.0,127.0,127.0,127.0,103.0,82.0,-5.0
131.0,128.0,127.0,128.0,128.0,153.0,135.0,128.0,13.0,-103.0,-91.0,127.0,127.0,127.0,103.0,82.0,-5.0
131.0,128.0,127.0,128.0,128.0,153.0,137.0,128.0,13.0,-103.0,-91.0,127.0,127.0,127.0,103.0,82.0,-5.0
131.0,129.0,127.0,128.0,128.0,153.0,139.0,129.0,13.0,-103.0,-91.0,127.0,127.0,127.0,103.0,82.0,-5.0
131.0,129.0,127.0,128.0,129.0,153.0,140.0,129.0,13.0,-103.0,-91.0,127.0,127.0,127.0,103.0,82.0,-5.0
131.0,129.0,128.0,128.0,128.0,153.0,140.0,130.0,13.0,-103.0,-91.0,127.0,127.0,127.0,103.0,82.0,-5.0
130.0,128.0,127.0,126.0,127.0,153.0,121.0,127.0,13.0,-102.0,-91.0,127.0,127.0,127.0,103.0,82.0,-5.0
130.0,124.0,128.0,126.0,127.0,153.0,121.0,129.0,13.0,-102.0,-91.0,127.0,127.0,127.0,103.0,82.0,-5.0
130.0,124.0,128.0,126.0,127.0,153.0,119.0,129.0,13.0,-102.0,-91.0,127.0,127.0,127.0,103.0,82.0,-5.0
130.0,124.0,129.0,126.0,127.0,153.0,118.0,128.0,13.0,-102.0,-91.0,127.0,127.0,127.0,103.0,82.0,-5.0
131.0,124.0,129.0,127.0,127.0,153.0,118.0,128.0,13.0,-102.0,-91.0,127.0,127.0,127.0,103.0,82.0,-5.0
131.0,124.0,129.0,127.0,127.0,153.0,118.0,128.0,13.0,-102.0,-91.0,127.0,127.0,127.0,103.0,82.0,-5.0
131.0,124.0,128.0,127.0,127.0,153.0,118.0,128.0,13.0,-102.0,-91.0,127.0,127.0,127.0,103.0,82.0,-5.0
130.0,125.0,128.0,127.0,127.0,153.0,119.0,127.0,13.0,-102.0,-91.0,127.0,127.0,127.0,103.0,82.0,-5.0
130.0,125.0,128.0,127.0,127.0,153.0,120.0,127.0,13.0,-102.0,-91.0,127.0,127.0,127.0,103.0,82.0,-5.0
130.0,127.0,128.0,126.0,127.0,153.0,120.0,127.0,13.0,-102.0,-91.0,127.0,127.0,127.0,103.0,82.0,-5.0
129.0,123.0,124.0,124.0,126.0,153.0,122.0,128.0,13.0,-102.0,-91.0,127.0,127.0,127.0,103.0,82.0,-5.0
130.0,124.0,124.0,125.0,126.0,153.0,122.0,128.0,13.0,-102.0,-91.0,127.0,127.0,127.0,103.0,82.0,-5.0
130.0,124.0,125.0,125.0,126.0,153.0,122.0,128.0,13.0,-102.0,-91.0,127.0,127.0,127.0,103.0,82.0,-5.0
130.0,124.0,125.0,125.0,126.0,153.0,122.0,128.0,13.0,-102.0,-91.0,127.0,127.0,127.0,103.0,82.0,-5.0
129.0,124.0,125.0,125.0,126.0,153.0,122.0,128.0,13.0,-102.0,-91.0,127.0,127.0,127.0,103.0,82.0,-5.0
129.0,124.0,125.0,125.0,126.0,153.0,122.0,128.0,13.0,-102.0,-91.0,127.0,127.0,127.0,103.0,82.0,-5.0
130.0,124.0,125.0,125.0,126.0,153.0,122.0,127.0,13.0,-102.0,-91.0,127.0,127.0,127.0,103.0,82.0,-5.0
130.0,124.0,125.0,125.0,126.0,153.0,122.0,127.0,13.0,-102.0,-91.0,127.0,127.0,127.0,103.0,82.0,-5.0
130.0,124.0,125.0,126.0,126.0,153.0,123.0,128.0,13.0,-102.0,-91.0,127.0,127.0,127.0,103.0,82.0,-5.0
130.0,124.0,125.0,126.0,126.0,153.0,123.0,128.0,13.0,-102.0,-91.0,127.0,127.0,127.0,103.0,82.0,-5.0
130.0,126.0,127.0,127.0,128.0,153.0,126.0,128.0,13.0,-102.0,-91.0,127.0,127.0,127.0,103.0,82.0,-5.0
130.0,126.0,127.0,127.0,127.0,153.0,126.0,128.0,13.0,-102.0,-91.0,127.0,127.0,127.0,103.0,82.0,-5.0
130.0,126.0,127.0,127.0,127.0,153.0,127.0,128.0,13.0,-102.0,-91.0,127.0,127.0,127.0,103.0,82.0,-5.0
130.0,126.0,127.0,127.0,127.0,153.0,127.0,128.0,13.0,-102.0,-91.0,127.0,127.0,127.0,103.0,82.0,-5.0
130.0,126.0,127.0,127.0,127.0,153.0,128.0,128.0,13.0,-102.0,-91.0,127.0,127.0,127.0,103.0,82.0,-5.0
130.0,126.0,127.0,127.0,127.0,153.0,128.0,128.0,13.0,-102.0,-91.0,127.0,127.0,127.0,103.0,82.0,-5.0
130.0,125.0,128.0,126.0,127.0,153.0,128.0,128.0,13.0,-102.0,-91.0,127.0,127.0,127.0,103.0,82.0,-5.0
130.0,125.0,128.0,126.0,127.0,153.0,129.0,128.0,13.0,-102.0,-91.0,127.0,127.0,127.0,103.0,82.0,-5.0
130.0,125.0,128.0,126.0,127.0,153.0,130.0,128.0,13.0,-102.0,-91.0,127.0,127.0,127.0,103.0,82.0,-5.0
130.0,126.0,127.0,127.0,128.0,153.0,125.0,128.0,13.0,-102.0,-91.0,127.0,127.0,127.0,103.0,82.0,-5.0
130.0,129.0,127.0,125.0,125.0,153.0,112.0,129.0,13.0,-102.0,-91.0,127.0,127.0,127.0,103.0,82.0,-5.0
130.0,127.0,127.0,125.0,125.0,153.0,113.0,128.0,13.0,-102.0,-91.0,127.0,127.0,127.0,103.0,82.0,-5.0
129.0,126.0,126.0,125.0,126.0,153.0,115.0,127.0,13.0,-102.0,-91.0,127.0,127.0,127.0,103.0,82.0,-5.0
129.0,124.0,126.0,125.0,126.0,153.0,116.0,127.0,13.0,-102.0,-91.0,127.0,127.0,127.0,103.0,82.0,-5.0
129.0,124.0,125.0,125.0,126.0,153.0,118.0,126.0,13.0,-102.0,-91.0,127.0,127.0,127.0,103.0,82.0,-5.0
129.0,123.0,125.0,126.0,126.0,153.0,121.0,126.0,13.0,-102.0,-91.0,127.0,127.0,127.0,103.0,82.0,-5.0
130.0,123.0,125.0,126.0,127.0,153.0,123.0,126.0,13.0,-102.0,-91.0,127.0,127.0,127.0,103.0,82.0,-5.0
130.0,123.0,125.0,126.0,127.0,153.0,125.0,126.0,13.0,-102.0,-91.0,127.0,127.0,127.0,103.0,82.0,-5.0
130.0,129.0,127.0,125.0,125.0,153.0,110.0,129.0,13.0,-102.0,-91.0,127.0,127.0,127.0,103.0,82.0,-5.0
130.0,130.0,127.0,125.0,125.0,153.0,111.0,129.0,13.0,-102.0,-91.0,127.0,127.0,127.0,103.0,82.0,-5.0
129.0,126.0,127.0,126.0,126.0,153.0,126.0,127.0,13.0,-102.0,-91.0,127.0,127.0,127.0,103.0,82.0,-5.0
129.0,126.0,127.0,126.0,126.0,152.0,126.0,127.0,13.0,-102.0,-91.0,127.0,127.0,127.0,103.0,82.0,-5.0
129.0,126.0,127.0,126.0,127.0,153.0,126.0,127.0,13.0,-102.0,-91.0,127.0,127.0,127.0,103.0,82.0,-5.0
129.0,126.0,127.0,126.0,127.0,153.0,126.0,127.0,13.0,-102.0,-91.0,127.0,127.0,127.0,103.0,82.0,-5.0
129.0,126.0,126.0,126.0,127.0,152.0,126.0,127.0,13.0,-102.0,-91.0,127.0,127.0,127.0,103.0,82.0,-5.0
129.0,127.0,126.0,126.0,127.0,152.0,127.0,127.0,13.0,-102.0,-91.0,127.0,127.0,127.0,103.0,82.0,-5.0
129.0,127.0,126.0,126.0,127.0,152.0,127.0,127.0,13.0,-102.0,-91.0,127.0,127.0,127.0,103.0,82.0,-5.0
129.0,125.0,127.0,125.0,126.0,152.0,125.0,127.0,13.0,-102.0,-91.0,127.0,127.0,127.0,103.0,82.0,-5.0
129.0,126.0,127.0,126.0,126.0,153.0,125.0,127.0,13.0,-102.0,-91.0,127.0,127.0,127.0,103.0,82.0,-5.0
129.0,126.0,127.0,126.0,126.0,153.0,126.0,127.0,13.0,-102.0,-91.0,127.0,127.0,127.0,103.0,82.0,-5.0
129.0,124.0,128.0,127.0,128.0,152.0,123.0,128.0,13.0,-102.0,-91.0,127.0,127.0,127.0,103.0,82.0,-5.0
129.0,125.0,128.0,127.0,128.0,152.0,124.0,128.0,13.0,-102.0,-91.0,127.0,127.0,127.0,103.0,82.0,-5.0
129.0,124.0,128.0,127.0,128.0,152.0,124.0,128.0,13.0,-102.0,-91.0,127.0,127.0,127.0,103.0,82.0,-5.0
129.0,124.0,129.0,127.0,128.0,152.0,124.0,128.0,13.0,-102.0,-91.0,127.0,127.0,127.0,103.0,82.0,-5.0
129.0,125.0,128.0,127.0,128.0,152.0,125.0,128.0,13.0,-102.0,-91.0,127.0,127.0,127.0,103.0,82.0,-5.0
129.0,125.0,128.0,128.0,128.0,152.0,125.0,128.0,13.0,-102.0,-91.0,127.0,127.0,127.0,103.0,82.0,-5.0
129.0,124.0,127.0,126.0,127.0,152.0,121.0,127.0,13.0,-102.0,-91.0,127.0,127.0,127.0,103.0,82.0,-5.0
129.0,124.0,127.0,126.0,127.0,152.0,121.0,127.0,13.0,-102.0,-91.0,127.0,127.0,127.0,103.0,82.0,-5.0
129.0,124.0,128.0,126.0,127.0,152.0,122.0,127.0,13.0,-102.0,-91.0,127.0,127.0,127.0,103.0,82.0,-5.0
129.0,124.0,128.0,126.0,127.0,152.0,122.0,127.0,13.0,-102.0,-91.0,127.0,127.0,127.0,103.0,82.0,-5.0
128.0,124.0,127.0,127.0,127.0,152.0,136.0,126.0,13.0,-102.0,-91.0,127.0,127.0,127.0,102.0,82.0,-5.0
128.0,125.0,127.0,127.0,127.0,152.0,136.0,126.0,13.0,-102.0,-91.0,127.0,127.0,127.0,102.0,82.0,-5.0
129.0,126.0,127.0,127.0,127.0,152.0,136.0,126.0,13.0,-102.0,-91.0,127.0,127.0,127.0,102.0,82.0,-5.0
129.0,128.0,127.0,127.0,127.0,152.0,135.0,127.0,13.0,-102.0,-91.0,127.0,127.0,127.0,102.0,82.0,-5.0
129.0,130.0,127.0,127.0,127.0,152.0,134.0,127.0,13.0,-102.0,-91.0,127.0,127.0,127.0,102.0,82.0,-5.0
129.0,125.0,126.0,127.0,126.0,152.0,128.0,126.0,13.0,-102.0,-91.0,127.0,127.0,127.0,102.0,82.0,-5.0
129.0,125.0,126.0,127.0,126.0,152.0,130.0,126.0,13.0,-102.0,-91.0,127.0,127.0,127.0,102.0,82.0,-5.0
129.0,125.0,126.0,127.0,126.0,152.0,132.0,126.0,13.0,-102.0,-91.0,127.0,127.0,127.0,102.0,82.0,-5.0
129.0,124.0,127.0,127.0,126.0,152.0,133.0,126.0,13.0,-102.0,-91.0,127.0,127.0,127.0,102.0,82.0,-5.0
129.0,125.0,127.0,127.0,127.0,152.0,135.0,126.0,13.0,-102.0,-91.0,127.0,127.0,127.0,102.0,82.0,-5.0
128.0,123.0,127.0,127.0,127.0,152.0,129.0,128.0,12.0,-102.0,-91.0,127.0,127.0,127.0,102.0,82.0,-5.0
128.0,123.0,128.0,127.0,127.0,152.0,128.0,127.0,12.0,-102.0,-91.0,127.0,127.0,127.0,102.0,82.0,-5.0
128.0,124.0,128.0,127.0,127.0,152.0,128.0,127.0,12.0,-102.0,-91.0,127.0,127.0,127.0,102.0,82.0,-5.0
129.0,126.0,125.0,127.0,127.0,152.0,130.0,128.0,12.0,-102.0,-91.0,127.0,127.0,127.0,102.0,82.0,-5.0
129.0,126.0,125.0,126.0,127.0,152.0,131.0,128.0,12.0,-102.0,-91.0,127.0,127.0,127.0,102.0,82.0,-5.0
129.0,125.0,125.0,127.0,127.0,152.0,131.0,128.0,12.0,-102.0,-91.0,127.0,127.0,127.0,102.0,82.0,-5.0
128.0,125.0,125.0,126.0,127.0,152.0,131.0,128.0,12.0,-102.0,-91.0,127.0,127.0,127.0,102.0,82.0,-5.0
128.0,124.0,125.0,127.0,127.0,152.0,130.0,128.0,12.0,-102.0,-91.0,127.0,127.0,127.0,102.0,82.0,-5.0
128.0,124.0,125.0,127.0,127.0,152.0,130.0,128.0,12.0,-102.0,-91.0,127.0,127.0,127.0,102.0,82.0,-5.0
128.0,124.0,126.0,127.0,127.0,152.0,129.0,128.0,12.0,-102.0,-91.0,127.0,127.0,127.0,102.0,82.0,-5.0
128.0,125.0,127.0,126.0,127.0,153.0,125.0,127.0,12.0,-102.0,-91.0,127.0,127.0,127.0,102.0,82.0,-5.0
128.0,125.0,126.0,126.0,127.0,153.0,125.0,127.0,12.0,-102.0,-91.0,127.0,127.0,127.0,102.0,82.0,-5.0
128.0,125.0,128.0,127.0,128.0,152.0,127.0,128.0,12.0,-102.0,-91.0,127.0,127.0,127.0,102.0,82.0,-5.0
128.0,125.0,128.0,127.0,128.0,152.0,127.0,128.0,12.0,-102.0,-91.0,127.0,127.0,127.0,102.0,82.0,-5.0
128.0,125.0,129.0,127.0,128.0,152.0,127.0,128.0,12.0,-102.0,-91.0,127.0,127.0,127.0,102.0,82.0,-5.0
128.0,125.0,128.0,127.0,128.0,152.0,126.0,127.0,12.0,-102.0,-91.0,127.0,127.0,127.0,102.0,82.0,-5.0
128.0,125.0,128.0,127.0,128.0,153.0,126.0,127.0,12.0,-102.0,-91.0,127.0,127.0,127.0,102.0,82.0,-5.0
128.0,125.0,128.0,127.0,128.0,152.0,125.0,127.0,12.0,-102.0,-91.0,127.0,127.0,127.0,102.0,82.0,-5.0
128.0,125.0,128.0,126.0,127.0,152.0,125.0,127.0,12.0,-102.0,-91.0,127.0,127.0,127.0,102.0,82.0,-5.0
128.0,125.0,127.0,126.0,127.0,152.0,125.0,127.0,12.0,-102.0,-91.0,127.0,127.0,127.0,102.0,82.0,-5.0
128.0,125.0,126.0,127.0,127.0,153.0,126.0,128.0,12.0,-102.0,-91.0,127.0,127.0,127.0,102.0,82.0,-5.0
128.0,125.0,126.0,126.0,127.0,153.0,128.0,129.0,12.0,-102.0,-91.0,127.0,127.0,127.0,102.0,82.0,-5.0
128.0,125.0,126.0,126.0,127.0,153.0,128.0,129.0,12.0,-102.0,-91.0,127.0,127.0,127.0,102.0,82.0,-5.0
128.0,125.0,126.0,126.0,127.0,153.0,128.0,129.0,12.0,-102.0,-91.0,127.0,127.0,127.0,102.0,82.0,-5.0
128.0,125.0,126.0,127.0,127.0,153.0,128.0,129.0,12.0,-102.0,-91.0,127.0,127.0,127.0,102.0,82.0,-5.0
128.0,125.0,126.0,127.0,127.0,153.0,128.0,128.0,12.0,-102.0,-91.0,127.0,127.0,127.0,102.0,82.0,-5.0
128.0,125.0,126.0,127.0,127.0,153.0,127.0,128.0,12.0,-102.0,-91.0,127.0,127.0,127.0,102.0,82.0,-5.0
128.0,125.0,126.0,127.0,127.0,153.0,127.0,128.0,12.0,-102.0,-91.0,127.0,127.0,127.0,102.0,82.0,-5.0
128.0,125.0,126.0,127.0,127.0,153.0,127.0,128.0,12.0,-102.0,-91.0,127.0,127.0,127.0,102.0,82.0,-5.0
128.0,125.0,126.0,127.0,127.0,153.0,126.0,128.0,12.0,-102.0,-91.0,127.0,127.0,127.0,102.0,82.0,-5.0
128.0,126.0,127.0,126.0,127.0,153.0,127.0,127.0,11.0,-102.0,-91.0,127.0,127.0,127.0,102.0,82.0,-5.0
128.0,126.0,127.0,126.0,127.0,153.0,127.0,127.0,11.0,-102.0,-91.0,127.0,127.0,127.0,102.0,82.0,-5.0
128.0,126.0,127.0,126.0,127.0,153.0,127.0,128.0,11.0,-102.0,-91.0,127.0,127.0,127.0,102.0,82.0,-5.0
128.0,126.0,127.0,126.0,127.0,153.0,128.0,128.0,11.0,-102.0,-91.0,127.0,127.0,127.0,102.0,82.0,-5.0
128.0,126.0,127.0,126.0,127.0,153.0,128.0,128.0,11.0,-102.0,-91.0,127.0,127.0,127.0,102.0,82.0,-5.0
128.0,126.0,127.0,126.0,127.0,153.0,127.0,128.0,11.0,-102.0,-91.0,127.0,127.0,127.0,102.0,82.0,-5.0
128.0,125.0,127.0,126.0,127.0,153.0,127.0,128.0,11.0,-102.0,-91.0,127.0,127.0,127.0,102.0,82.0,-5.0
128.0,125.0,127.0,126.0,127.0,153.0,127.0,128.0,11.0,-102.0,-91.0,127.0,127.0,127.0,102.0,82.0,-5.0
128.0,125.0,127.0,126.0,127.0,153.0,127.0,128.0,11.0,-102.0,-91.0,127.0,127.0,127.0,102.0,82.0,-5.0
128.0,125.0,127.0,126.0,127.0,153.0,127.0,128.0,11.0,-102.0,-91.0,127.0,127.0,127.0,102.0,82.0,-5.0
128.0,125.0,127.0,127.0,127.0,153.0,125.0,128.0,11.0,-102.0,-90.0,127.0,127.0,127.0,102.0,82.0,-5.0
128.0,125.0,127.0,127.0,127.0,153.0,126.0,128.0,11.0,-102.0,-90.0,127.0,127.0,127.0,102.0,82.0,-5.0
128.0,125.0,127.0,127.0,127.0,153.0,126.0,128.0,11.0,-102.0,-90.0,127.0,127.0,127.0,102.0,82.0,-5.0
128.0,125.0,127.0,126.0,127.0,153.0,126.0,128.0,11.0,-102.0,-90.0,127.0,127.0,127.0,102.0,82.0,-5.0
128.0,125.0,127.0,126.0,127.0,153.0,126.0,128.0,11.0,-102.0,-90.0,127.0,127.0,127.0,102.0,82.0,-5.0
128.0,125.0,127.0,126.0,127.0,152.0,126.0,128.0,11.0,-102.0,-90.0,127.0,127.0,127.0,102.0,82.0,-5.0
128.0,125.0,127.0,126.0,127.0,153.0,126.0,128.0,11.0,-102.0,-90.0,127.0,127.0,127.0,102.0,82.0,-5.0
129.0,125.0,127.0,126.0,127.0,153.0,126.0,128.0,11.0,-102.0,-90.0,127.0,127.0,127.0,102.0,82.0,-5.0
129.0,124.0,127.0,126.0,127.0,152.0,126.0,127.0,11.0,-102.0,-90.0,127.0,127.0,127.0,102.0,82.0,-5.0
128.0,125.0,127.0,127.0,127.0,153.0,125.0,128.0,11.0,-102.0,-90.0,127.0,127.0,127.0,102.0,82.0,-5.0
128.0,124.0,126.0,127.0,127.0,153.0,126.0,128.0,12.0,-102.0,-89.0,127.0,127.0,127.0,102.0,82.0,-5.0
128.0,124.0,127.0,127.0,127.0,153.0,126.0,127.0,12.0,-102.0,-89.0,127.0,127.0,127.0,102.0,82.0,-5.0
128.0,124.0,126.0,127.0,127.0,153.0,126.0,128.0,12.0,-102.0,-89.0,127.0,127.0,127.0,102.0,82.0,-5.0
128.0,124.0,126.0,127.0,127.0,153.0,127.0,128.0,12.0,-102.0,-89.0,127.0,127.0,127.0,102.0,82.0,-5.0
128.0,124.0,126.0,127.0,127.0,153.0,127.0,128.0,12.0,-102.0,-89.0,127.0,127.0,127.0,102.0,82.0,-5.0
128.0,124.0,126.0,127.0,127.0,153.0,128.0,128.0,12.0,-102.0,-89.0,127.0,127.0,127.0,102.0,82.0,-5.0
128.0,124.0,126.0,127.0,127.0,153.0,128.0,128.0,12.0,-102.0,-89.0,127.0,127.0,127.0,102.0,82.0,-5.0
128.0,124.0,126.0,127.0,127.0,153.0,128.0,128.0,12.0,-102.0,-89.0,127.0,127.0,127.0,102.0,82.0,-5.0
128.0,124.0,126.0,127.0,127.0,153.0,126.0,127.0,12.0,-102.0,-89.0,127.0,127.0,127.0,102.0,82.0,-5.0
128.0,124.0,126.0,127.0,127.0,153.0,126.0,127.0,12.0,-102.0,-89.0,127.0,127.0,127.0,102.0,82.0,-5.0
128.0,125.0,126.0,127.0,127.0,152.0,125.0,128.0,12.0,-102.0,-89.0,127.0,127.0,127.0,102.0,82.0,-5.0
128.0,125.0,126.0,127.0,127.0,152.0,125.0,128.0,12.0,-102.0,-89.0,127.0,127.0,127.0,102.0,82.0,-5.0
128.0,125.0,126.0,127.0,127.0,152.0,126.0,128.0,12.0,-102.0,-89.0,127.0,127.0,127.0,102.0,82.0,-5.0
128.0,125.0,126.0,127.0,127.0,152.0,126.0,128.0,12.0,-102.0,-89.0,127.0,127.0,127.0,102.0,82.0,-5.0
128.0,125.0,126.0,127.0,127.0,152.0,127.0,128.0,12.0,-102.0,-89.0,127.0,127.0,127.0,102.0,82.0,-5.0
128.0,125.0,126.0,127.0,127.0,152.0,127.0,128.0,12.0,-102.0,-89.0,127.0,127.0,127.0,102.0,82.0,-5.0
128.0,125.0,126.0,127.0,127.0,152.0,128.0,128.0,12.0,-102.0,-89.0,127.0,127.0,127.0,102.0,82.0,-5.0
128.0,125.0,126.0,127.0,127.0,153.0,126.0,128.0,12.0,-102.0,-89.0,127.0,127.0,127.0,102.0,82.0,-5.0
128.0,125.0,126.0,127.0,127.0,153.0,126.0,128.0,12.0,-102.0,-89.0,127.0,127.0,127.0,102.0,82.0,-5.0
128.0,125.0,126.0,127.0,127.0,153.0,125.0,128.0,12.0,-102.0,-89.0,127.0,127.0,127.0,102.0,82.0,-5.0
128.0,131.0,126.0,127.0,127.0,152.0,127.0,128.0,13.0,-102.0,-89.0,127.0,127.0,127.0,102.0,82.0,-5.0
128.0,131.0,126.0,128.0,128.0,152.0,127.0,128.0,13.0,-102.0,-89.0,127.0,127.0,127.0,102.0,82.0,-5.0
128.0,131.0,127.0,128.0,127.0,152.0,126.0,128.0,13.0,-102.0,-89.0,127.0,127.0,127.0,102.0,82.0,-5.0
128.0,131.0,127.0,127.0,127.0,152.0,126.0,128.0,13.0,-102.0,-89.0,127.0,127.0,127.0,102.0,82.0,-5.0
128.0,131.0,127.0,127.0,127.0,152.0,125.0,128.0,13.0,-102.0,-89.0,127.0,127.0,127.0,102.0,82.0,-5.0
128.0,131.0,127.0,127.0,127.0,152.0,125.0,128.0,13.0,-102.0,-89.0,127.0,127.0,127.0,102.0,82.0,-5.0
128.0,130.0,126.0,127.0,127.0,152.0,128.0,127.0,13.0,-102.0,-89.0,127.0,127.0,127.0,102.0,82.0,-5.0
128.0,130.0,126.0,127.0,127.0,152.0,127.0,127.0,13.0,-102.0,-89.0,127.0,127.0,127.0,102.0,82.0,-5.0
128.0,130.0,126.0,127.0,127.0,152.0,127.0,128.0,13.0,-102.0,-89.0,127.0,127.0,127.0,102.0,82.0,-5.0
128.0,130.0,126.0,127.0,127.0,152.0,127.0,128.0,13.0,-102.0,-89.0,127.0,127.0,127.0,102.0,82.0,-5.0
125.0,132.0,126.0,127.0,127.0,153.0,128.0,128.0,13.0,-102.0,-89.0,127.0,127.0,127.0,102.0,82.0,-5.0
125.0,132.0,126.0,127.0,127.0,153.0,127.0,128.0,13.0,-102.0,-89.0,127.0,127.0,127.0,102.0,82.0,-5.0
125.0,132.0,126.0,127.0,127.0,153.0,127.0,128.0,13.0,-102.0,-89.0,127.0,127.0,127.0,102.0,82.0,-5.0
125.0,132.0,126.0,127.0,127.0,153.0,127.0,128.0,13.0,-102.0,-89.0,127.0,127.0,127.0,102.0,82.0,-5.0
125.0,132.0,126.0,127.0,127.0,153.0,127.0,128.0,13.0,-102.0,-89.0,127.0,127.0,127.0,102.0,82.0,-5.0
125.0,135.0,126.0,127.0,127.0,153.0,126.0,128.0,13.0,-102.0,-89.0,127.0,127.0,127.0,102.0,82.0,-5.0
125.0,135.0,127.0,127.0,127.0,153.0,127.0,128.0,13.0,-102.0,-89.0,127.0,127.0,127.0,102.0,82.0,-5.0
125.0,135.0,127.0,127.0,127.0,153.0,127.0,128.0,13.0,-102.0,-89.0,127.0,127.0,127.0,102.0,82.0,-5.0
125.0,134.0,127.0,127.0,127.0,153.0,127.0,128.0,13.0,-102.0,-89.0,127.0,127.0,127.0,102.0,82.0,-5.0
125.0,133.0,126.0,127.0,127.0,153.0,128.0,128.0,13.0,-102.0,-89.0,127.0,127.0,127.0,102.0,82.0,-5.0
127.0,130.0,126.0,127.0,127.0,152.0,127.0,128.0,14.0,-101.0,-89.0,127.0,127.0,127.0,102.0,82.0,-5.0
127.0,130.0,126.0,127.0,127.0,152.0,127.0,128.0,14.0,-101.0,-89.0,127.0,127.0,127.0,102.0,82.0,-5.0
127.0,130.0,126.0,127.0,127.0,152.0,127.0,128.0,14.0,-101.0,-89.0,127.0,127.0,127.0,102.0,82.0,-5.0
127.0,129.0,126.0,127.0,127.0,152.0,127.0,128.0,14.0,-101.0,-89.0,127.0,127.0,127.0,102.0,82.0,-5.0
127.0,130.0,126.0,127.0,127.0,152.0,128.0,128.0,14.0,-101.0,-89.0,127.0,127.0,127.0,102.0,82.0,-5.0
127.0,130.0,126.0,127.0,127.0,152.0,127.0,129.0,14.0,-101.0,-89.0,127.0,127.0,127.0,102.0,82.0,-5.0
127.0,130.0,126.0,127.0,127.0,152.0,127.0,129.0,14.0,-101.0,-89.0,127.0,127.0,127.0,102.0,82.0,-5.0
127.0,130.0,126.0,127.0,127.0,152.0,127.0,128.0,14.0,-101.0,-89.0,127.0,127.0,127.0,102.0,82.0,-5.0
127.0,130.0,126.0,127.0,127.0,152.0,127.0,128.0,14.0,-101.0,-89.0,127.0,127.0,127.0,102.0,82.0,-5.0
127.0,130.0,126.0,127.0,127.0,152.0,127.0,128.0,14.0,-101.0,-89.0,127.0,127.0,127.0,102.0,82.0,-5.0
125.0,129.0,128.0,128.0,128.0,153.0,135.0,130.0,14.0,-101.0,-89.0,127.0,127.0,127.0,102.0,82.0,-5.0
125.0,129.0,128.0,128.0,128.0,153.0,134.0,130.0,14.0,-101.0,-89.0,127.0,127.0,127.0,102.0,82.0,-5.0
125.0,129.0,128.0,128.0,127.0,153.0,133.0,130.0,14.0,-101.0,-89.0,127.0,127.0,127.0,102.0,82.0,-5.0
124.0,128.0,127.0,128.0,128.0,153.0,129.0,127.0,14.0,-101.0,-89.0,127.0,127.0,127.0,102.0,82.0,-5.0
125.0,128.0,127.0,128.0,128.0,152.0,130.0,127.0,14.0,-101.0,-89.0,127.0,127.0,127.0,102.0,82.0,-5.0
125.0,128.0,128.0,127.0,128.0,152.0,132.0,128.0,14.0,-101.0,-89.0,127.0,127.0,127.0,102.0,82.0,-5.0
125.0,128.0,128.0,127.0,128.0,152.0,134.0,128.0,14.0,-101.0,-89.0,127.0,127.0,127.0,102.0,82.0,-5.0
125.0,128.0,128.0,127.0,128.0,152.0,135.0,129.0,14.0,-101.0,-89.0,127.0,127.0,127.0,102.0,82.0,-5.0
125.0,128.0,128.0,127.0,128.0,152.0,136.0,129.0,14.0,-101.0,-89.0,127.0,127.0,127.0,102.0,82.0,-5.0
125.0,129.0,128.0,127.0,128.0,152.0,135.0,129.0,14.0,-101.0,-89.0,127.0,127.0,127.0,102.0,82.0,-5.0
127.0,127.0,127.0,126.0,127.0,153.0,125.0,128.0,14.0,-101.0,-89.0,127.0,127.0,127.0,102.0,82.0,-5.0
127.0,127.0,127.0,126.0,127.0,153.0,125.0,128.0,14.0,-101.0,-89.0,127.0,127.0,127.0,102.0,82.0,-5.0
126.0,127.0,126.0,126.0,126.0,152.0,125.0,128.0,14.0,-101.0,-89.0,127.0,127.0,127.0,102.0,82.0,-5.0
126.0,127.0,126.0,126.0,126.0,153.0,125.0,128.0,14.0,-101.0,-89.0,127.0,127.0,127.0,102.0,82.0,-5.0
127.0,127.0,126.0,126.0,126.0,152.0,125.0,128.0,14.0,-101.0,-89.0,127.0,127.0,127.0,102.0,82.0,-5.0
127.0,127.0,126.0,126.0,126.0,152.0,125.0,128.0,14.0,-101.0,-89.0,127.0,127.0,127.0,102.0,82.0,-5.0
127.0,127.0,126.0,126.0,126.0,152.0,125.0,128.0,14.0,-101.0,-89.0,127.0,127.0,127.0,102.0,82.0,-5.0
127.0,127.0,126.0,126.0,126.0,152.0,125.0,128.0,14.0,-101.0,-89.0,127.0,127.0,127.0,102.0,82.0,-5.0
127.0,127.0,126.0,126.0,126.0,152.0,125.0,128.0,14.0,-101.0,-89.0,127.0,127.0,127.0,102.0,82.0,-5.0
127.0,127.0,126.0,126.0,127.0,153.0,125.0,128.0,14.0,-101.0,-89.0,127.0,127.0,127.0,102.0,82.0,-5.0
127.0,127.0,127.0,127.0,128.0,152.0,128.0,128.0,14.0,-101.0,-89.0,127.0,127.0,127.0,102.0,82.0,-5.0
127.0,126.0,128.0,127.0,127.0,152.0,128.0,128.0,14.0,-101.0,-89.0,127.0,127.0,127.0,102.0,82.0,-5.0
127.0,126.0,128.0,127.0,127.0,152.0,128.0,128.0,14.0,-101.0,-89.0,127.0,127.0,127.0,102.0,82.0,-5.0
127.0,126.0,127.0,127.0,127.0,152.0,129.0,128.0,14.0,-101.0,-89.0,127.0,127.0,127.0,102.0,82.0,-5.0
127.0,126.0,127.0,127.0,127.0,152.0,129.0,128.0,14.0,-101.0,-89.0,127.0,127.0,127.0,102.0,82.0,-5.0
127.0,126.0,127.0,127.0,127.0,152.0,129.0,128.0,14.0,-101.0,-89.0,127.0,127.0,127.0,102.0,82.0,-5.0
127.0,125.0,127.0,127.0,127.0,152.0,129.0,128.0,14.0,-101.0,-89.0,127.0,127.0,127.0,102.0,82.0,-5.0
127.0,126.0,127.0,127.0,127.0,152.0,129.0,128.0,14.0,-101.0,-89.0,127.0,127.0,127.0,102.0,82.0,-5.0
127.0,126.0,127.0,127.0,127.0,152.0,128.0,128.0,14.0,-101.0,-89.0,127.0,127.0,127.0,102.0,82.0,-5.0
127.0,126.0,127.0,127.0,127.0,153.0,128.0,128.0,14.0,-101.0,-89.0,127.0,127.0,127.0,102.0,82.0,-5.0
126.0,126.0,127.0,127.0,127.0,152.0,127.0,128.0,14.0,-102.0,-89.0,127.0,127.0,127.0,102.0,82.0,-5.0
126.0,126.0,127.0,126.0,127.0,152.0,127.0,128.0,14.0,-102.0,-89.0,127.0,127.0,127.0,102.0,82.0,-5.0
126.0,126.0,127.0,127.0,127.0,152.0,127.0,128.0,14.0,-102.0,-89.0,127.0,127.0,127.0,102.0,82.0,-5.0
126.0,126.0,127.0,127.0,127.0,152.0,127.0,128.0,14.0,-102.0,-89.0,127.0,127.0,127.0,102.0,82.0,-5.0
126.0,125.0,127.0,127.0,127.0,152.0,127.0,128.0,14.0,-102.0,-89.0,127.0,127.0,127.0,102.0,82.0,-5.0
126.0,125.0,127.0,127.0,127.0,152.0,126.0,128.0,14.0,-102.0,-89.0,127.0,127.0,127.0,102.0,82.0,-5.0
126.0,125.0,127.0,127.0,127.0,152.0,126.0,128.0,14.0,-102.0,-89.0,127.0,127.0,127.0,102.0,82.0,-5.0
126.0,125.0,127.0,127.0,127.0,152.0,126.0,128.0,14.0,-102.0,-89.0,127.0,127.0,127.0,102.0,82.0,-5.0
126.0,125.0,127.0,127.0,127.0,152.0,126.0,128.0,14.0,-102.0,-89.0,127.0,127.0,127.0,102.0,82.0,-5.0
126.0,125.0,127.0,127.0,127.0,152.0,126.0,128.0,14.0,-102.0,-89.0,127.0,127.0,127.0,102.0,82.0,-5.0
126.0,125.0,128.0,126.0,127.0,152.0,127.0,128.0,14.0,-102.0,-89.0,127.0,127.0,127.0,102.0,82.0,-5.0
126.0,125.0,128.0,126.0,127.0,152.0,127.0,128.0,14.0,-102.0,-89.0,127.0,127.0,127.0,102.0,82.0,-5.0
126.0,126.0,128.0,126.0,127.0,152.0,127.0,128.0,14.0,-102.0,-89.0,127.0,127.0,127.0,102.0,82.0,-5.0
125.0,125.0,128.0,126.0,127.0,152.0,127.0,128.0,14.0,-102.0,-89.0,127.0,127.0,127.0,102.0,82.0,-5.0
125.0,126.0,128.0,126.0,127.0,152.0,127.0,128.0,14.0,-102.0,-89.0,127.0,127.0,127.0,102.0,82.0,-5.0
125.0,126.0,128.0,126.0,127.0,152.0,128.0,128.0,14.0,-102.0,-89.0,127.0,127.0,127.0,102.0,82.0,-5.0
125.0,126.0,128.0,127.0,127.0,152.0,127.0,128.0,14.0,-102.0,-89.0,127.0,127.0,127.0,102.0,82.0,-5.0
125.0,126.0,128.0,127.0,127.0,152.0,127.0,128.0,14.0,-102.0,-89.0,127.0,127.0,127.0,102.0,82.0,-5.0
125.0,126.0,127.0,127.0,127.0,151.0,127.0,128.0,14.0,-102.0,-89.0,127.0,127.0,127.0,102.0,82.0,-5.0
126.0,125.0,128.0,126.0,127.0,152.0,127.0,128.0,14.0,-102.0,-89.0,127.0,127.0,127.0,102.0,82.0,-5.0
123.0,125.0,127.0,127.0,127.0,151.0,126.0,128.0,15.0,-103.0,-88.0,127.0,127.0,127.0,102.0,82.0,-5.0
123.0,125.0,127.0,126.0,127.0,151.0,126.0,128.0,15.0,-103.0,-88.0,127.0,127.0,127.0,102.0,82.0,-5.0
123.0,125.0,127.0,126.0,127.0,151.0,126.0,128.0,15.0,-103.0,-88.0,127.0,127.0,127.0,102.0,82.0,-5.0
123.0,125.0,127.0,127.0,127.0,151.0,126.0,128.0,15.0,-103.0,-88.0,127.0,127.0,127.0,102.0,82.0,-5.0
123.0,125.0,127.0,127.0,127.0,152.0,126.0,128.0,15.0,-103.0,-88.0,127.0,127.0,127.0,102.0,82.0,-5.0
123.0,125.0,127.0,127.0,127.0,151.0,126.0,128.0,15.0,-103.0,-88.0,127.0,127.0,127.0,102.0,82.0,-5.0
123.0,125.0,127.0,126.0,127.0,151.0,126.0,128.0,15.0,-103.0,-88.0,127.0,127.0,127.0,102.0,82.0,-5.0
123.0,125.0,127.0,126.0,127.0,151.0,126.0,128.0,15.0,-103.0,-88.0,127.0,127.0,127.0,102.0,82.0,-5.0
123.0,125.0,127.0,126.0,127.0,151.0,126.0,128.0,15.0,-103.0,-88.0,127.0,127.0,127.0,102.0,82.0,-5.0
123.0,125.0,127.0,126.0,127.0,151.0,126.0,128.0,15.0,-103.0,-88.0,127.0,127.0,127.0,102.0,82.0,-5.0
123.0,124.0,127.0,126.0,127.0,151.0,128.0,128.0,16.0,-103.0,-88.0,127.0,127.0,127.0,102.0,82.0,-5.0
123.0,125.0,127.0,126.0,127.0,151.0,128.0,128.0,16.0,-103.0,-88.0,127.0,127.0,127.0,102.0,82.0,-5.0
124.0,124.0,127.0,126.0,127.0,151.0,128.0,128.0,16.0,-103.0,-88.0,127.0,127.0,127.0,102.0,82.0,-5.0
124.0,125.0,127.0,126.0,127.0,151.0,128.0,128.0,16.0,-103.0,-88.0,127.0,127.0,127.0,102.0,82.0,-5.0
124.0,124.0,127.0,126.0,127.0,151.0,128.0,128.0,16.0,-103.0,-88.0,127.0,127.0,127.0,102.0,82.0,-5.0
124.0,124.0,127.0,126.0,127.0,151.0,128.0,128.0,16.0,-103.0,-88.0,127.0,127.0,127.0,102.0,82.0,-5.0
124.0,124.0,127.0,127.0,127.0,151.0,128.0,128.0,16.0,-103.0,-88.0,127.0,127.0,127.0,102.0,82.0,-5.0
123.0,125.0,127.0,127.0,127.0,151.0,128.0,128.0,16.0,-103.0,-88.0,127.0,127.0,127.0,102.0,82.0,-5.0
123.0,124.0,127.0,126.0,127.0,151.0,128.0,128.0,16.0,-103.0,-88.0,127.0,127.0,127.0,102.0,82.0,-5.0
123.0,124.0,127.0,126.0,127.0,151.0,128.0,128.0,16.0,-103.0,-88.0,127.0,127.0,127.0,102.0,82.0,-5.0
109.0,123.0,127.0,127.0,128.0,151.0,129.0,128.0,17.0,-103.0,-87.0,127.0,127.0,127.0,102.0,82.0,-5.0
108.0,123.0,128.0,127.0,128.0,151.0,129.0,128.0,17.0,-103.0,-87.0,127.0,127.0,127.0,102.0,82.0,-5.0
108.0,123.0,128.0,127.0,128.0,151.0,129.0,128.0,17.0,-103.0,-87.0,127.0,127.0,127.0,102.0,82.0,-5.0
107.0,122.0,128.0,127.0,128.0,151.0,129.0,128.0,17.0,-103.0,-87.0,127.0,127.0,127.0,102.0,82.0,-5.0
107.0,122.0,128.0,127.0,128.0,151.0,129.0,128.0,17.0,-103.0,-87.0,127.0,127.0,127.0,102.0,82.0,-5.0
111.0,123.0,127.0,127.0,128.0,151.0,129.0,128.0,17.0,-103.0,-87.0,127.0,127.0,127.0,102.0,82.0,-5.0
111.0,122.0,127.0,127.0,128.0,151.0,129.0,128.0,17.0,-103.0,-87.0,127.0,127.0,127.0,102.0,82.0,-5.0
110.0,122.0,127.0,127.0,128.0,151.0,129.0,128.0,17.0,-103.0,-87.0,127.0,127.0,127.0,102.0,82.0,-5.0
110.0,122.0,127.0,127.0,128.0,151.0,129.0,128.0,17.0,-103.0,-87.0,127.0,127.0,127.0,102.0,82.0,-5.0
109.0,122.0,127.0,127.0,128.0,151.0,129.0,128.0,17.0,-103.0,-87.0,127.0,127.0,127.0,102.0,82.0,-5.0
93.0,120.0,126.0,128.0,130.0,151.0,129.0,128.0,18.0,-103.0,-87.0,127.0,127.0,127.0,102.0,82.0,-5.0
93.0,120.0,126.0,128.0,130.0,151.0,129.0,128.0,18.0,-103.0,-87.0,127.0,127.0,127.0,102.0,82.0,-5.0
93.0,121.0,126.0,129.0,130.0,151.0,130.0,128.0,18.0,-103.0,-87.0,127.0,127.0,127.0,102.0,82.0,-5.0
93.0,121.0,126.0,129.0,130.0,151.0,130.0,128.0,18.0,-103.0,-87.0,127.0,127.0,127.0,102.0,82.0,-5.0
93.0,119.0,126.0,128.0,129.0,151.0,130.0,128.0,18.0,-103.0,-87.0,127.0,127.0,127.0,102.0,82.0,-5.0
93.0,119.0,126.0,128.0,129.0,151.0,130.0,128.0,18.0,-103.0,-87.0,127.0,127.0,127.0,102.0,82.0,-5.0
93.0,119.0,126.0,128.0,129.0,151.0,130.0,128.0,18.0,-103.0,-87.0,127.0,127.0,127.0,102.0,82.0,-5.0
93.0,119.0,126.0,128.0,129.0,151.0,130.0,128.0,18.0,-103.0,-87.0,127.0,127.0,127.0,102.0,82.0,-5.0
93.0,120.0,126.0,128.0,129.0,151.0,130.0,128.0,18.0,-103.0,-87.0,127.0,127.0,127.0,102.0,82.0,-5.0
93.0,120.0,126.0,128.0,130.0,151.0,129.0,128.0,18.0,-103.0,-87.0,127.0,127.0,127.0,102.0,82.0,-5.0
96.0,120.0,126.0,129.0,129.0,150.0,129.0,128.0,19.0,-103.0,-87.0,127.0,127.0,127.0,102.0,82.0,-5.0
97.0,120.0,126.0,129.0,129.0,150.0,129.0,128.0,19.0,-103.0,-87.0,127.0,127.0,127.0,102.0,82.0,-5.0
97.0,120.0,126.0,129.0,129.0,150.0,129.0,128.0,19.0,-103.0,-87.0,127.0,127.0,127.0,102.0,82.0,-5.0
96.0,121.0,127.0,129.0,130.0,150.0,129.0,128.0,19.0,-103.0,-87.0,127.0,127.0,127.0,102.0,82.0,-5.0
96.0,121.0,127.0,129.0,130.0,150.0,129.0,128.0,19.0,-103.0,-87.0,127.0,127.0,127.0,102.0,82.0,-5.0
96.0,120.0,127.0,129.0,130.0,150.0,129.0,128.0,19.0,-103.0,-87.0,127.0,127.0,127.0,102.0,82.0,-5.0
96.0,120.0,126.0,129.0,130.0,150.0,129.0,128.0,19.0,-103.0,-87.0,127.0,127.0,127.0,102.0,82.0,-5.0
96.0,120.0,126.0,129.0,129.0,150.0,129.0,128.0,19.0,-103.0,-87.0,127.0,127.0,127.0,102.0,82.0,-5.0
96.0,120.0,126.0,129.0,129.0,150.0,129.0,128.0,19.0,-103.0,-87.0,127.0,127.0,127.0,102.0,82.0,-5.0
96.0,120.0,126.0,129.0,129.0,150.0,129.0,128.0,19.0,-103.0,-87.0,127.0,127.0,127.0,102.0,82.0,-5.0
103.0,115.0,126.0,129.0,130.0,149.0,128.0,128.0,19.0,-102.0,-87.0,126.0,127.0,127.0,102.0,82.0,-5.0
104.0,115.0,126.0,129.0,130.0,149.0,128.0,128.0,19.0,-102.0,-87.0,126.0,127.0,127.0,102.0,82.0,-5.0
103.0,115.0,126.0,129.0,130.0,149.0,128.0,128.0,19.0,-102.0,-87.0,126.0,127.0,127.0,102.0,82.0,-5.0
103.0,115.0,126.0,129.0,130.0,149.0,128.0,128.0,19.0,-102.0,-87.0,126.0,127.0,127.0,102.0,82.0,-5.0
103.0,115.0,126.0,129.0,130.0,149.0,128.0,128.0,19.0,-102.0,-87.0,126.0,127.0,127.0,102.0,82.0,-5.0
103.0,115.0,126.0,129.0,130.0,149.0,128.0,128.0,19.0,-102.0,-87.0,126.0,127.0,127.0,102.0,82.0,-5.0
103.0,115.0,126.0,129.0,130.0,149.0,128.0,128.0,19.0,-102.0,-87.0,126.0,127.0,127.0,102.0,82.0,-5.0
103.0,115.0,126.0,129.0,130.0,149.0,128.0,128.0,19.0,-102.0,-87.0,126.0,127.0,127.0,102.0,82.0,-5.0
103.0,115.0,126.0,129.0,130.0,149.0,128.0,128.0,19.0,-102.0,-87.0,126.0,127.0,127.0,102.0,82.0,-5.0
103.0,115.0,126.0,129.0,130.0,149.0,128.0,128.0,19.0,-102.0,-87.0,126.0,127.0,127.0,102.0,82.0,-5.0
104.0,117.0,126.0,129.0,131.0,148.0,126.0,127.0,19.0,-102.0,-87.0,126.0,127.0,127.0,102.0,82.0,-5.0
104.0,117.0,126.0,128.0,131.0,148.0,126.0,127.0,19.0,-102.0,-87.0,126.0,127.0,127.0,102.0,82.0,-5.0
104.0,117.0,126.0,128.0,131.0,148.0,126.0,127.0,19.0,-102.0,-87.0,126.0,127.0,127.0,102.0,82.0,-5.0
104.0,117.0,127.0,128.0,131.0,148.0,126.0,127.0,19.0,-102.0,-87.0,126.0,127.0,127.0,102.0,82.0,-5.0
104.0,116.0,126.0,128.0,131.0,148.0,126.0,127.0,19.0,-102.0,-87.0,126.0,127.0,127.0,102.0,82.0,-5.0
104.0,117.0,126.0,128.0,131.0,148.0,126.0,127.0,19.0,-102.0,-87.0,126.0,127.0,127.0,102.0,82.0,-5.0
104.0,117.0,126.0,128.0,131.0,148.0,126.0,127.0,19.0,-102.0,-87.0,126.0,127.0,127.0,102.0,82.0,-5.0
104.0,117.0,126.0,128.0,131.0,148.0,126.0,127.0,19.0,-102.0,-87.0,126.0,127.0,127.0,102.0,82.0,-5.0
104.0,117.0,126.0,129.0,131.0,148.0,126.0,127.0,19.0,-102.0,-87.0,126.0,127.0,127.0,102.0,82.0,-5.0
104.0,117.0,126.0,129.0,131.0,148.0,126.0,127.0,19.0,-102.0,-87.0,126.0,127.0,127.0,102.0,82.0,-5.0
105.0,118.0,127.0,128.0,130.0,147.0,126.0,127.0,19.0,-101.0,-86.0,126.0,127.0,127.0,102.0,82.0,-5.0
105.0,118.0,127.0,129.0,131.0,147.0,126.0,127.0,19.0,-101.0,-86.0,126.0,127.0,127.0,102.0,82.0,-5.0
105.0,118.0,127.0,129.0,131.0,147.0,126.0,127.0,19.0,-101.0,-86.0,126.0,127.0,127.0,102.0,82.0,-5.0
105.0,118.0,127.0,129.0,131.0,147.0,126.0,127.0,19.0,-101.0,-86.0,126.0,127.0,127.0,102.0,82.0,-5.0
105.0,118.0,127.0,129.0,131.0,147.0,126.0,127.0,19.0,-101.0,-86.0,126.0,127.0,127.0,102.0,82.0,-5.0
105.0,118.0,127.0,129.0,131.0,147.0,126.0,127.0,19.0,-101.0,-86.0,126.0,127.0,127.0,102.0,82.0,-5.0
105.0,118.0,127.0,129.0,131.0,147.0,126.0,127.0,19.0,-101.0,-86.0,126.0,127.0,127.0,102.0,82.0,-5.0
105.0,119.0,127.0,129.0,131.0,147.0,126.0,127.0,19.0,-101.0,-86.0,126.0,127.0,127.0,102.0,82.0,-5.0
105.0,119.0,127.0,129.0,131.0,147.0,126.0,127.0,19.0,-101.0,-86.0,126.0,127.0,127.0,102.0,82.0,-5.0
105.0,119.0,126.0,129.0,131.0,147.0,126.0,127.0,19.0,-101.0,-86.0,126.0,127.0,127.0,102.0,82.0,-5.0
109.0,120.0,127.0,128.0,131.0,110.0,127.0,128.0,18.0,-101.0,-86.0,126.0,127.0,127.0,102.0,82.0,-5.0
109.0,120.0,127.0,128.0,131.0,103.0,127.0,127.0,18.0,-101.0,-86.0,126.0,127.0,127.0,102.0,82.0,-5.0
109.0,120.0,127.0,128.0,131.0,94.0,127.0,128.0,18.0,-101.0,-86.0,126.0,127.0,127.0,102.0,82.0,-5.0
109.0,119.0,127.0,128.0,131.0,83.0,127.0,128.0,18.0,-101.0,-86.0,126.0,127.0,127.0,102.0,82.0,-5.0
109.0,119.0,127.0,127.0,131.0,72.0,127.0,128.0,18.0,-101.0,-86.0,126.0,127.0,127.0,102.0,82.0,-5.0
109.0,119.0,127.0,127.0,131.0,60.0,127.0,128.0,18.0,-101.0,-86.0,126.0,127.0,127.0,102.0,82.0,-5.0
109.0,119.0,127.0,127.0,131.0,47.0,127.0,128.0,18.0,-101.0,-86.0,126.0,127.0,127.0,102.0,82.0,-5.0
109.0,119.0,127.0,127.0,131.0,33.0,127.0,128.0,18.0,-101.0,-86.0,126.0,127.0,127.0,102.0,82.0,-5.0
109.0,119.0,127.0,127.0,131.0,18.0,127.0,128.0,18.0,-101.0,-86.0,126.0,127.0,127.0,102.0,82.0,-5.0
109.0,120.0,127.0,128.0,131.0,117.0,127.0,128.0,18.0,-101.0,-86.0,126.0,127.0,127.0,102.0,82.0,-5.0
110.0,116.0,129.0,126.0,129.0,0.0,122.0,127.0,17.0,-101.0,-86.0,125.0,127.0,127.0,102.0,82.0,-5.0
111.0,117.0,129.0,126.0,129.0,0.0,122.0,127.0,17.0,-101.0,-86.0,125.0,127.0,127.0,102.0,82.0,-5.0
111.0,117.0,129.0,126.0,129.0,0.0,122.0,127.0,17.0,-101.0,-86.0,125.0,127.0,127.0,102.0,82.0,-5.0
111.0,117.0,129.0,126.0,129.0,0.0,122.0,127.0,17.0,-101.0,-86.0,125.0,127.0,127.0,102.0,82.0,-5.0
111.0,117.0,129.0,126.0,129.0,0.0,122.0,127.0,17.0,-101.0,-86.0,125.0,127.0,127.0,102.0,82.0,-5.0
111.0,117.0,129.0,126.0,130.0,0.0,122.0,127.0,17.0,-101.0,-86.0,125.0,127.0,127.0,102.0,82.0,-5.0
111.0,117.0,129.0,126.0,130.0,0.0,122.0,127.0,17.0,-101.0,-86.0,125.0,127.0,127.0,102.0,82.0,-5.0
111.0,117.0,129.0,126.0,130.0,0.0,122.0,127.0,17.0,-101.0,-86.0,125.0,127.0,127.0,102.0,82.0,-5.0
110.0,116.0,129.0,126.0,129.0,0.0,122.0,127.0,17.0,-101.0,-86.0,125.0,127.0,127.0,102.0,82.0,-5.0
111.0,116.0,129.0,126.0,129.0,0.0,122.0,127.0,17.0,-101.0,-86.0,125.0,127.0,127.0,102.0,82.0,-5.0
114.0,121.0,127.0,127.0,128.0,0.0,124.0,127.0,16.0,-101.0,-87.0,125.0,127.0,127.0,102.0,82.0,-5.0
114.0,121.0,127.0,127.0,128.0,0.0,124.0,127.0,16.0,-101.0,-87.0,125.0,127.0,127.0,102.0,82.0,-5.0
114.0,121.0,127.0,127.0,128.0,0.0,124.0,127.0,16.0,-101.0,-87.0,125.0,127.0,127.0,102.0,82.0,-5.0
114.0,121.0,127.0,127.0,128.0,0.0,124.0,127.0,16.0,-101.0,-87.0,125.0,127.0,127.0,102.0,82.0,-5.0
114.0,121.0,127.0,128.0,128.0,0.0,124.0,127.0,16.0,-101.0,-87.0,125.0,127.0,127.0,102.0,82.0,-5.0
114.0,121.0,127.0,128.0,128.0,0.0,124.0,127.0,16.0,-101.0,-87.0,125.0,127.0,127.0,102.0,82.0,-5.0
114.0,121.0,127.0,128.0,128.0,0.0,124.0,127.0,16.0,-101.0,-87.0,125.0,127.0,127.0,102.0,82.0,-5.0
114.0,120.0,128.0,127.0,128.0,0.0,124.0,127.0,16.0,-101.0,-87.0,125.0,127.0,127.0,102.0,82.0,-5.0
114.0,121.0,128.0,127.0,128.0,0.0,124.0,127.0,16.0,-101.0,-87.0,125.0,127.0,127.0,102.0,82.0,-5.0
114.0,121.0,128.0,127.0,128.0,0.0,124.0,127.0,16.0,-101.0,-87.0,125.0,127.0,127.0,102.0,82.0,-5.0
116.0,123.0,126.0,129.0,128.0,0.0,124.0,127.0,15.0,-101.0,-87.0,125.0,127.0,127.0,102.0,82.0,-5.0
116.0,123.0,126.0,129.0,128.0,0.0,124.0,127.0,15.0,-101.0,-87.0,125.0,127.0,127.0,102.0,82.0,-5.0
116.0,123.0,126.0,129.0,128.0,0.0,125.0,127.0,15.0,-101.0,-87.0,125.0,127.0,127.0,102.0,82.0,-5.0
116.0,123.0,127.0,129.0,128.0,0.0,125.0,127.0,15.0,-101.0,-87.0,125.0,127.0,127.0,102.0,82.0,-5.0
116.0,123.0,126.0,129.0,128.0,0.0,125.0,127.0,15.0,-101.0,-87.0,125.0,127.0,127.0,102.0,82.0,-5.0
116.0,123.0,127.0,129.0,128.0,0.0,125.0,127.0,15.0,-101.0,-87.0,125.0,127.0,127.0,102.0,82.0,-5.0
116.0,123.0,127.0,128.0,128.0,0.0,124.0,127.0,15.0,-101.0,-87.0,125.0,127.0,127.0,102.0,82.0,-5.0
116.0,123.0,126.0,128.0,128.0,0.0,124.0,127.0,15.0,-101.0,-87.0,125.0,127.0,127.0,102.0,82.0,-5.0
116.0,123.0,127.0,129.0,128.0,0.0,124.0,127.0,15.0,-101.0,-87.0,125.0,127.0,127.0,102.0,82.0,-5.0
116.0,123.0,126.0,129.0,128.0,0.0,124.0,127.0,15.0,-101.0,-87.0,125.0,127.0,127.0,102.0,82.0,-5.0
119.0,124.0,125.0,129.0,129.0,0.0,125.0,128.0,15.0,-101.0,-87.0,125.0,127.0,127.0,102.0,82.0,-5.0
119.0,124.0,125.0,129.0,129.0,0.0,125.0,128.0,15.0,-101.0,-87.0,125.0,127.0,127.0,102.0,82.0,-5.0
119.0,124.0,125.0,129.0,129.0,0.0,125.0,128.0,15.0,-101.0,-87.0,125.0,127.0,127.0,102.0,82.0,-5.0
119.0,124.0,125.0,129.0,129.0,0.0,126.0,128.0,15.0,-101.0,-87.0,125.0,127.0,127.0,102.0,82.0,-5.0
119.0,124.0,125.0,129.0,129.0,0.0,126.0,128.0,15.0,-101.0,-87.0,125.0,127.0,127.0,102.0,82.0,-5.0
118.0,124.0,125.0,128.0,129.0,0.0,125.0,128.0,15.0,-101.0,-87.0,125.0,127.0,127.0,102.0,82.0,-5.0
118.0,124.0,125.0,129.0,129.0,0.0,125.0,128.0,15.0,-101.0,-87.0,125.0,127.0,127.0,102.0,82.0,-5.0
119.0,124.0,125.0,129.0,129.0,0.0,125.0,128.0,15.0,-101.0,-87.0,125.0,127.0,127.0,102.0,82.0,-5.0
118.0,124.0,125.0,129.0,129.0,0.0,125.0,128.0,15.0,-101.0,-87.0,125.0,127.0,127.0,102.0,82.0,-5.0
118.0,124.0,125.0,129.0,129.0,0.0,125.0,128.0,15.0,-101.0,-87.0,125.0,127.0,127.0,102.0,82.0,-5.0
119.0,125.0,126.0,128.0,128.0,0.0,126.0,128.0,15.0,-101.0,-87.0,125.0,127.0,127.0,102.0,82.0,-5.0
119.0,125.0,126.0,128.0,128.0,0.0,126.0,128.0,15.0,-101.0,-87.0,125.0,127.0,127.0,102.0,82.0,-5.0
119.0,125.0,126.0,128.0,128.0,0.0,126.0,128.0,15.0,-101.0,-87.0,125.0,127.0,127.0,102.0,82.0,-5.0
119.0,124.0,126.0,128.0,128.0,0.0,126.0,128.0,15.0,-101.0,-87.0,125.0,127.0,127.0,102.0,82.0,-5.0
119.0,124.0,127.0,128.0,128.0,0.0,126.0,128.0,15.0,-101.0,-87.0,125.0,127.0,127.0,102.0,82.0,-5.0
119.0,124.0,127.0,128.0,128.0,0.0,126.0,128.0,15.0,-101.0,-87.0,125.0,127.0,127.0,102.0,82.0,-5.0
119.0,124.0,127.0,128.0,128.0,0.0,126.0,128.0,15.0,-101.0,-87.0,125.0,127.0,127.0,102.0,82.0,-5.0
119.0,124.0,126.0,128.0,128.0,0.0,126.0,128.0,15.0,-101.0,-87.0,125.0,127.0,127.0,102.0,82.0,-5.0
119.0,124.0,126.0,128.0,128.0,0.0,126.0,128.0,15.0,-101.0,-87.0,125.0,127.0,127.0,102.0,82.0,-5.0
119.0,124.0,126.0,128.0,128.0,0.0,126.0,128.0,15.0,-101.0,-87.0,125.0,127.0,127.0,102.0,82.0,-5.0
120.0,125.0,128.0,129.0,127.0,0.0,126.0,127.0,16.0,-101.0,-86.0,125.0,127.0,127.0,103.0,82.0,-5.0
120.0,125.0,128.0,129.0,127.0,0.0,126.0,127.0,16.0,-101.0,-86.0,125.0,127.0,127.0,103.0,82.0,-5.0
120.0,124.0,127.0,129.0,127.0,0.0,126.0,127.0,16.0,-101.0,-86.0,125.0,127.0,127.0,103.0,82.0,-5.0
120.0,124.0,127.0,129.0,127.0,0.0,126.0,127.0,16.0,-101.0,-86.0,125.0,127.0,127.0,103.0,82.0,-5.0
120.0,124.0,127.0,129.0,127.0,0.0,126.0,127.0,16.0,-101.0,-86.0,125.0,127.0,127.0,103.0,82.0,-5.0
120.0,124.0,128.0,129.0,127.0,0.0,126.0,127.0,16.0,-101.0,-86.0,125.0,127.0,127.0,103.0,82.0,-5.0
120.0,124.0,128.0,129.0,127.0,0.0,126.0,127.0,16.0,-101.0,-86.0,125.0,127.0,127.0,103.0,82.0,-5.0
120.0,124.0,128.0,129.0,127.0,0.0,126.0,127.0,16.0,-101.0,-86.0,125.0,127.0,127.0,103.0,82.0,-5.0
120.0,124.0,128.0,129.0,127.0,0.0,126.0,127.0,16.0,-101.0,-86.0,125.0,127.0,127.0,103.0,82.0,-5.0
120.0,124.0,128.0,129.0,127.0,0.0,126.0,127.0,16.0,-101.0,-86.0,125.0,127.0,127.0,103.0,82.0,-5.0
120.0,124.0,129.0,129.0,126.0,0.0,126.0,127.0,18.0,-101.0,-86.0,125.0,127.0,127.0,103.0,82.0,-5.0
120.0,124.0,129.0,130.0,127.0,0.0,125.0,127.0,18.0,-101.0,-86.0,125.0,127.0,127.0,103.0,82.0,-5.0
120.0,124.0,129.0,130.0,127.0,0.0,126.0,127.0,18.0,-101.0,-86.0,125.0,127.0,127.0,103.0,82.0,-5.0
120.0,124.0,129.0,130.0,127.0,0.0,126.0,127.0,18.0,-101.0,-86.0,125.0,127.0,127.0,103.0,82.0,-5.0
120.0,124.0,129.0,130.0,127.0,0.0,126.0,127.0,18.0,-101.0,-86.0,125.0,127.0,127.0,103.0,82.0,-5.0
120.0,124.0,129.0,130.0,127.0,0.0,126.0,127.0,18.0,-101.0,-86.0,125.0,127.0,127.0,103.0,82.0,-5.0
120.0,124.0,129.0,130.0,127.0,0.0,125.0,127.0,18.0,-101.0,-86.0,125.0,127.0,127.0,103.0,82.0,-5.0
120.0,124.0,129.0,130.0,127.0,0.0,126.0,127.0,18.0,-101.0,-86.0,125.0,127.0,127.0,103.0,82.0,-5.0
120.0,124.0,129.0,129.0,127.0,0.0,126.0,127.0,18.0,-101.0,-86.0,125.0,127.0,127.0,103.0,82.0,-5.0
120.0,124.0,129.0,129.0,127.0,0.0,125.0,127.0,18.0,-101.0,-86.0,125.0,127.0,127.0,103.0,82.0,-5.0
122.0,124.0,128.0,129.0,126.0,0.0,125.0,127.0,20.0,-102.0,-85.0,125.0,127.0,127.0,104.0,82.0,-5.0
122.0,125.0,128.0,129.0,126.0,0.0,125.0,127.0,20.0,-102.0,-85.0,125.0,127.0,127.0,104.0,82.0,-5.0
122.0,125.0,129.0,129.0,126.0,0.0,125.0,127.0,20.0,-102.0,-85.0,125.0,127.0,127.0,104.0,82.0,-5.0
122.0,125.0,129.0,129.0,126.0,0.0,125.0,127.0,20.0,-102.0,-85.0,125.0,127.0,127.0,104.0,82.0,-5.0
122.0,125.0,129.0,129.0,126.0,0.0,125.0,127.0,20.0,-102.0,-85.0,125.0,127.0,127.0,104.0,82.0,-5.0
122.0,125.0,129.0,129.0,126.0,0.0,125.0,127.0,20.0,-102.0,-85.0,125.0,127.0,127.0,104.0,82.0,-5.0
122.0,125.0,129.0,129.0,126.0,0.0,125.0,127.0,20.0,-102.0,-85.0,125.0,127.0,127.0,104.0,82.0,-5.0
122.0,125.0,128.0,129.0,126.0,0.0,125.0,127.0,20.0,-102.0,-85.0,125.0,127.0,127.0,104.0,82.0,-5.0
122.0,125.0,128.0,129.0,126.0,0.0,125.0,127.0,20.0,-102.0,-85.0,125.0,127.0,127.0,104.0,82.0,-5.0
122.0,125.0,128.0,129.0,126.0,0.0,125.0,127.0,20.0,-102.0,-85.0,125.0,127.0,127.0,104.0,82.0,-5.0
122.0,125.0,127.0,129.0,126.0,0.0,125.0,127.0,21.0,-102.0,-84.0,125.0,127.0,127.0,104.0,82.0,-5.0
122.0,125.0,127.0,129.0,126.0,0.0,125.0,127.0,21.0,-102.0,-84.0,125.0,127.0,127.0,104.0,82.0,-5.0
122.0,125.0,127.0,129.0,126.0,0.0,126.0,127.0,21.0,-102.0,-84.0,125.0,127.0,127.0,104.0,82.0,-5.0
123.0,125.0,127.0,129.0,126.0,0.0,126.0,127.0,21.0,-102.0,-84.0,125.0,127.0,127.0,104.0,82.0,-5.0
123.0,125.0,127.0,129.0,126.0,0.0,126.0,127.0,21.0,-102.0,-84.0,125.0,127.0,127.0,104.0,82.0,-5.0
123.0,125.0,127.0,129.0,126.0,0.0,126.0,127.0,21.0,-102.0,-84.0,125.0,127.0,127.0,104.0,82.0,-5.0
123.0,125.0,127.0,129.0,126.0,0.0,126.0,127.0,21.0,-102.0,-84.0,125.0,127.0,127.0,104.0,82.0,-5.0
123.0,124.0,127.0,129.0,126.0,0.0,126.0,127.0,21.0,-102.0,-84.0,125.0,127.0,127.0,104.0,82.0,-5.0
123.0,125.0,127.0,129.0,126.0,0.0,126.0,127.0,21.0,-102.0,-84.0,125.0,127.0,127.0,104.0,82.0,-5.0
122.0,124.0,128.0,129.0,126.0,0.0,126.0,127.0,21.0,-102.0,-84.0,125.0,127.0,127.0,104.0,82.0,-5.0
123.0,126.0,127.0,129.0,125.0,0.0,127.0,127.0,22.0,-103.0,-83.0,126.0,127.0,127.0,104.0,82.0,-5.0
123.0,126.0,127.0,129.0,125.0,0.0,127.0,127.0,22.0,-103.0,-83.0,126.0,127.0,127.0,104.0,82.0,-5.0
123.0,125.0,127.0,129.0,125.0,0.0,127.0,127.0,22.0,-103.0,-83.0,126.0,127.0,127.0,104.0,82.0,-5.0
123.0,125.0,127.0,129.0,125.0,0.0,127.0,127.0,22.0,-103.0,-83.0,126.0,127.0,127.0,104.0,82.0,-5.0
123.0,125.0,126.0,129.0,125.0,0.0,127.0,127.0,22.0,-103.0,-83.0,126.0,127.0,127.0,104.0,82.0,-5.0
123.0,125.0,126.0,129.0,125.0,0.0,127.0,127.0,22.0,-103.0,-83.0,126.0,127.0,127.0,104.0,82.0,-5.0
123.0,126.0,126.0,129.0,126.0,0.0,126.0,127.0,22.0,-103.0,-83.0,126.0,127.0,127.0,104.0,82.0,-5.0
123.0,126.0,126.0,129.0,125.0,0.0,127.0,127.0,22.0,-103.0,-83.0,126.0,127.0,127.0,104.0,82.0,-5.0
123.0,125.0,127.0,129.0,125.0,0.0,127.0,127.0,22.0,-103.0,-83.0,126.0,127.0,127.0,104.0,82.0,-5.0
123.0,125.0,127.0,129.0,125.0,0.0,126.0,127.0,22.0,-103.0,-83.0,126.0,127.0,127.0,104.0,82.0,-5.0
124.0,126.0,126.0,130.0,126.0,0.0,127.0,127.0,23.0,-104.0,-82.0,126.0,127.0,127.0,105.0,82.0,-5.0
124.0,126.0,126.0,130.0,126.0,0.0,127.0,127.0,23.0,-104.0,-82.0,126.0,127.0,127.0,105.0,82.0,-5.0
124.0,126.0,126.0,130.0,126.0,0.0,127.0,127.0,23.0,-104.0,-82.0,126.0,127.0,127.0,105.0,82.0,-5.0
124.0,126.0,126.0,130.0,126.0,0.0,127.0,127.0,23.0,-104.0,-82.0,126.0,127.0,127.0,105.0,82.0,-5.0
123.0,126.0,126.0,130.0,126.0,0.0,127.0,127.0,23.0,-104.0,-82.0,126.0,127.0,127.0,105.0,82.0,-5.0
123.0,126.0,125.0,130.0,126.0,0.0,126.0,127.0,23.0,-104.0,-82.0,126.0,127.0,127.0,105.0,82.0,-5.0
123.0,126.0,125.0,129.0,126.0,0.0,127.0,127.0,23.0,-104.0,-82.0,126.0,127.0,127.0,105.0,82.0,-5.0
123.0,126.0,126.0,130.0,126.0,0.0,127.0,127.0,23.0,-104.0,-82.0,126.0,127.0,127.0,105.0,82.0,-5.0
123.0,126.0,126.0,130.0,126.0,0.0,126.0,127.0,23.0,-104.0,-82.0,126.0,127.0,127.0,105.0,82.0,-5.0
123.0,126.0,126.0,130.0,126.0,0.0,126.0,127.0,23.0,-104.0,-82.0,126.0,127.0,127.0,105.0,82.0,-5.0
124.0,127.0,127.0,129.0,127.0,0.0,126.0,127.0,24.0,-104.0,-81.0,126.0,127.0,127.0,106.0,82.0,-5.0
124.0,127.0,127.0,129.0,127.0,0.0,126.0,127.0,24.0,-104.0,-81.0,126.0,127.0,127.0,106.0,82.0,-5.0
124.0,127.0,127.0,129.0,127.0,0.0,126.0,127.0,24.0,-104.0,-81.0,126.0,127.0,127.0,106.0,82.0,-5.0
124.0,127.0,127.0,129.0,127.0,0.0,126.0,127.0,24.0,-104.0,-81.0,126.0,127.0,127.0,106.0,82.0,-5.0
124.0,127.0,127.0,129.0,127.0,0.0,126.0,127.0,24.0,-104.0,-81.0,126.0,127.0,127.0,106.0,82.0,-5.0
124.0,127.0,127.0,129.0,127.0,0.0,126.0,127.0,24.0,-104.0,-81.0,126.0,127.0,127.0,106.0,82.0,-5.0
124.0,127.0,127.0,129.0,127.0,0.0,127.0,127.0,24.0,-104.0,-81.0,126.0,127.0,127.0,106.0,82.0,-5.0
124.0,127.0,127.0,129.0,127.0,0.0,126.0,127.0,24.0,-104.0,-81.0,126.0,127.0,127.0,106.0,82.0,-5.0
124.0,127.0,127.0,129.0,127.0,0.0,126.0,127.0,24.0,-104.0,-81.0,126.0,127.0,127.0,106.0,82.0,-5.0
124.0,127.0,127.0,129.0,127.0,0.0,126.0,127.0,24.0,-104.0,-81.0,126.0,127.0,127.0,106.0,82.0,-5.0
124.0,127.0,127.0,128.0,125.0,0.0,126.0,127.0,24.0,-105.0,-81.0,126.0,127.0,127.0,106.0,82.0,-5.0
124.0,127.0,127.0,128.0,125.0,0.0,126.0,127.0,24.0,-105.0,-81.0,126.0,127.0,127.0,106.0,82.0,-5.0
124.0,127.0,127.0,128.0,125.0,0.0,126.0,127.0,24.0,-105.0,-81.0,126.0,127.0,127.0,106.0,82.0,-5.0
124.0,127.0,127.0,128.0,125.0,0.0,126.0,127.0,24.0,-105.0,-81.0,126.0,127.0,127.0,106.0,82.0,-5.0
124.0,127.0,128.0,128.0,125.0,0.0,126.0,127.0,24.0,-105.0,-81.0,126.0,127.0,127.0,106.0,82.0,-5.0
124.0,127.0,127.0,129.0,125.0,0.0,126.0,127.0,24.0,-105.0,-81.0,126.0,127.0,127.0,106.0,82.0,-5.0
124.0,127.0,127.0,129.0,125.0,0.0,126.0,127.0,24.0,-105.0,-81.0,126.0,127.0,127.0,106.0,82.0,-5.0
124.0,127.0,127.0,129.0,125.0,0.0,126.0,127.0,24.0,-105.0,-81.0,126.0,127.0,127.0,106.0,82.0,-5.0
124.0,127.0,127.0,129.0,125.0,0.0,126.0,127.0,24.0,-105.0,-81.0,126.0,127.0,127.0,106.0,82.0,-5.0
124.0,127.0,127.0,129.0,125.0,0.0,126.0,127.0,24.0,-105.0,-81.0,126.0,127.0,127.0,106.0,82.0,-5.0
123.0,127.0,126.0,128.0,124.0,0.0,126.0,127.0,24.0,-105.0,-81.0,126.0,127.0,127.0,106.0,82.0,-5.0
123.0,127.0,126.0,128.0,125.0,0.0,127.0,127.0,24.0,-105.0,-81.0,126.0,127.0,127.0,106.0,82.0,-5.0
123.0,128.0,126.0,128.0,125.0,0.0,126.0,127.0,24.0,-105.0,-81.0,126.0,127.0,127.0,106.0,82.0,-5.0
123.0,128.0,126.0,128.0,125.0,0.0,126.0,127.0,24.0,-105.0,-81.0,126.0,127.0,127.0,106.0,82.0,-5.0
123.0,127.0,127.0,129.0,125.0,0.0,127.0,127.0,24.0,-105.0,-81.0,126.0,127.0,127.0,106.0,82.0,-5.0
123.0,127.0,127.0,128.0,124.0,0.0,126.0,127.0,24.0,-105.0,-81.0,126.0,127.0,127.0,106.0,82.0,-5.0
123.0,128.0,126.0,128.0,125.0,0.0,126.0,127.0,24.0,-105.0,-81.0,126.0,127.0,127.0,106.0,82.0,-5.0
123.0,128.0,126.0,128.0,125.0,0.0,126.0,127.0,24.0,-105.0,-81.0,126.0,127.0,127.0,106.0,82.0,-5.0
123.0,127.0,126.0,128.0,124.0,0.0,126.0,127.0,24.0,-105.0,-81.0,126.0,127.0,127.0,106.0,82.0,-5.0
123.0,127.0,126.0,128.0,124.0,0.0,126.0,127.0,24.0,-105.0,-81.0,126.0,127.0,127.0,106.0,82.0,-5.0
123.0,127.0,124.0,128.0,125.0,0.0,127.0,127.0,23.0,-105.0,-81.0,126.0,127.0,127.0,106.0,82.0,-5.0
123.0,127.0,124.0,128.0,125.0,0.0,127.0,127.0,23.0,-105.0,-81.0,126.0,127.0,127.0,106.0,82.0,-5.0
123.0,127.0,124.0,128.0,125.0,0.0,127.0,127.0,23.0,-105.0,-81.0,126.0,127.0,127.0,106.0,82.0,-5.0
123.0,127.0,125.0,128.0,125.0,0.0,127.0,127.0,23.0,-105.0,-81.0,126.0,127.0,127.0,106.0,82.0,-5.0
123.0,127.0,125.0,128.0,125.0,0.0,127.0,127.0,23.0,-105.0,-81.0,126.0,127.0,127.0,106.0,82.0,-5.0
123.0,127.0,125.0,128.0,125.0,0.0,127.0,127.0,23.0,-105.0,-81.0,126.0,127.0,127.0,106.0,82.0,-5.0
123.0,127.0,125.0,128.0,125.0,0.0,127.0,127.0,23.0,-105.0,-81.0,126.0,127.0,127.0,106.0,82.0,-5.0
123.0,127.0,125.0,128.0,125.0,0.0,127.0,127.0,23.0,-105.0,-81.0,126.0,127.0,127.0,106.0,82.0,-5.0
123.0,127.0,124.0,128.0,125.0,0.0,127.0,127.0,23.0,-105.0,-81.0,126.0,127.0,127.0,106.0,82.0,-5.0
123.0,127.0,124.0,128.0,125.0,0.0,127.0,127.0,23.0,-105.0,-81.0,126.0,127.0,127.0,106.0,82.0,-5.0
123.0,128.0,126.0,129.0,125.0,0.0,128.0,128.0,22.0,-105.0,-81.0,126.0,127.0,127.0,107.0,82.0,-5.0
123.0,128.0,126.0,129.0,125.0,0.0,128.0,128.0,22.0,-105.0,-81.0,126.0,127.0,127.0,107.0,82.0,-5.0
123.0,128.0,125.0,129.0,125.0,0.0,127.0,127.0,22.0,-105.0,-81.0,126.0,127.0,127.0,107.0,82.0,-5.0
123.0,128.0,125.0,129.0,125.0,0.0,128.0,127.0,22.0,-105.0,-81.0,126.0,127.0,127.0,107.0,82.0,-5.0
123.0,128.0,125.0,129.0,125.0,0.0,128.0,127.0,22.0,-105.0,-81.0,126.0,127.0,127.0,107.0,82.0,-5.0
123.0,128.0,125.0,129.0,125.0,0.0,128.0,127.0,22.0,-105.0,-81.0,126.0,127.0,127.0,107.0,82.0,-5.0
123.0,128.0,126.0,129.0,125.0,0.0,128.0,127.0,22.0,-105.0,-81.0,126.0,127.0,127.0,107.0,82.0,-5.0
123.0,128.0,125.0,129.0,125.0,0.0,128.0,127.0,22.0,-105.0,-81.0,126.0,127.0,127.0,107.0,82.0,-5.0
123.0,128.0,125.0,129.0,125.0,0.0,128.0,127.0,22.0,-105.0,-81.0,126.0,127.0,127.0,107.0,82.0,-5.0
123.0,128.0,126.0,129.0,125.0,0.0,128.0,128.0,22.0,-105.0,-81.0,126.0,127.0,127.0,107.0,82.0,-5.0
123.0,129.0,128.0,130.0,126.0,0.0,127.0,128.0,20.0,-105.0,-81.0,126.0,127.0,127.0,107.0,82.0,-5.0
123.0,129.0,128.0,129.0,126.0,0.0,128.0,128.0,20.0,-105.0,-81.0,126.0,127.0,127.0,107.0,82.0,-5.0
123.0,129.0,128.0,129.0,126.0,0.0,128.0,128.0,20.0,-105.0,-81.0,126.0,127.0,127.0,107.0,82.0,-5.0
123.0,129.0,128.0,129.0,126.0,0.0,128.0,128.0,20.0,-105.0,-81.0,126.0,127.0,127.0,107.0,82.0,-5.0
123.0,129.0,128.0,129.0,126.0,0.0,128.0,128.0,20.0,-105.0,-81.0,126.0,127.0,127.0,107.0,82.0,-5.0
123.0,129.0,128.0,129.0,126.0,0.0,128.0,128.0,20.0,-105.0,-81.0,126.0,127.0,127.0,107.0,82.0,-5.0
123.0,129.0,128.0,129.0,126.0,0.0,127.0,128.0,20.0,-105.0,-81.0,126.0,127.0,127.0,107.0,82.0,-5.0
123.0,129.0,128.0,130.0,126.0,0.0,127.0,128.0,20.0,-105.0,-81.0,126.0,127.0,127.0,107.0,82.0,-5.0
123.0,129.0,128.0,129.0,126.0,0.0,127.0,128.0,20.0,-105.0,-81.0,126.0,127.0,127.0,107.0,82.0,-5.0
123.0,129.0,128.0,130.0,126.0,0.0,127.0,128.0,20.0,-105.0,-81.0,126.0,127.0,127.0,107.0,82.0,-5.0
122.0,128.0,127.0,129.0,125.0,0.0,126.0,127.0,19.0,-105.0,-81.0,126.0,127.0,127.0,107.0,82.0,-5.0
122.0,128.0,127.0,129.0,125.0,0.0,126.0,127.0,19.0,-105.0,-81.0,126.0,127.0,127.0,107.0,82.0,-5.0
122.0,128.0,127.0,129.0,125.0,0.0,126.0,127.0,19.0,-105.0,-81.0,126.0,127.0,127.0,107.0,82.0,-5.0
122.0,127.0,127.0,129.0,125.0,0.0,126.0,127.0,19.0,-105.0,-81.0,126.0,127.0,127.0,107.0,82.0,-5.0
122.0,127.0,127.0,129.0,125.0,0.0,126.0,127.0,19.0,-105.0,-81.0,126.0,127.0,127.0,107.0,82.0,-5.0
122.0,127.0,127.0,129.0,125.0,0.0,126.0,127.0,19.0,-105.0,-81.0,126.0,127.0,127.0,107.0,82.0,-5.0
122.0,128.0,127.0,129.0,125.0,0.0,126.0,127.0,19.0,-105.0,-81.0,126.0,127.0,127.0,107.0,82.0,-5.0
122.0,128.0,127.0,129.0,125.0,0.0,126.0,127.0,19.0,-105.0,-81.0,126.0,127.0,127.0,107.0,82.0,-5.0
122.0,128.0,127.0,129.0,125.0,0.0,126.0,127.0,19.0,-105.0,-81.0,126.0,127.0,127.0,107.0,82.0,-5.0
122.0,128.0,127.0,129.0,125.0,0.0,126.0,127.0,19.0,-105.0,-81.0,126.0,127.0,127.0,107.0,82.0,-5.0
121.0,127.0,126.0,128.0,125.0,0.0,125.0,127.0,18.0,-104.0,-82.0,126.0,127.0,127.0,107.0,82.0,-5.0
121.0,127.0,126.0,128.0,125.0,0.0,125.0,127.0,18.0,-104.0,-82.0,126.0,127.0,127.0,107.0,82.0,-5.0
121.0,127.0,126.0,128.0,125.0,0.0,125.0,127.0,18.0,-104.0,-82.0,126.0,127.0,127.0,107.0,82.0,-5.0
121.0,127.0,126.0,128.0,125.0,0.0,125.0,127.0,18.0,-104.0,-82.0,126.0,127.0,127.0,107.0,82.0,-5.0
121.0,127.0,126.0,128.0,125.0,0.0,125.0,127.0,18.0,-104.0,-82.0,126.0,127.0,127.0,107.0,82.0,-5.0
121.0,127.0,125.0,128.0,125.0,0.0,125.0,127.0,18.0,-104.0,-82.0,126.0,127.0,127.0,107.0,82.0,-5.0
121.0,127.0,125.0,128.0,125.0,0.0,125.0,127.0,18.0,-104.0,-82.0,126.0,127.0,127.0,107.0,82.0,-5.0
120.0,127.0,125.0,128.0,125.0,0.0,125.0,127.0,18.0,-104.0,-82.0,126.0,127.0,127.0,107.0,82.0,-5.0
121.0,127.0,125.0,128.0,125.0,0.0,125.0,127.0,18.0,-104.0,-82.0,126.0,127.0,127.0,107.0,82.0,-5.0
121.0,127.0,126.0,128.0,125.0,0.0,125.0,127.0,18.0,-104.0,-82.0,126.0,127.0,127.0,107.0,82.0,-5.0
122.0,128.0,123.0,129.0,126.0,0.0,125.0,127.0,17.0,-104.0,-82.0,126.0,127.0,127.0,108.0,82.0,-5.0
122.0,127.0,123.0,129.0,126.0,0.0,125.0,127.0,17.0,-104.0,-82.0,126.0,127.0,127.0,108.0,82.0,-5.0
122.0,127.0,123.0,129.0,126.0,0.0,125.0,127.0,17.0,-104.0,-82.0,126.0,127.0,127.0,108.0,82.0,-5.0
122.0,127.0,123.0,129.0,126.0,0.0,125.0,127.0,17.0,-104.0,-82.0,126.0,127.0,127.0,108.0,82.0,-5.0
122.0,128.0,123.0,129.0,126.0,0.0,125.0,127.0,17.0,-104.0,-82.0,126.0,127.0,127.0,108.0,82.0,-5.0
122.0,128.0,123.0,129.0,126.0,0.0,125.0,127.0,17.0,-104.0,-82.0,126.0,127.0,127.0,108.0,82.0,-5.0
122.0,128.0,123.0,129.0,126.0,0.0,125.0,127.0,17.0,-104.0,-82.0,126.0,127.0,127.0,108.0,82.0,-5.0
122.0,128.0,124.0,129.0,126.0,0.0,125.0,127.0,17.0,-104.0,-82.0,126.0,127.0,127.0,108.0,82.0,-5.0
122.0,128.0,123.0,129.0,126.0,0.0,125.0,127.0,17.0,-104.0,-82.0,126.0,127.0,127.0,108.0,82.0,-5.0
122.0,128.0,123.0,129.0,126.0,0.0,125.0,127.0,17.0,-104.0,-82.0,126.0,127.0,127.0,108.0,82.0,-5.0
123.0,128.0,124.0,129.0,126.0,0.0,126.0,127.0,16.0,-104.0,-82.0,126.0,127.0,127.0,108.0,82.0,-5.0
123.0,128.0,124.0,129.0,126.0,0.0,126.0,127.0,16.0,-104.0,-82.0,126.0,127.0,127.0,108.0,82.0,-5.0
123.0,128.0,124.0,129.0,126.0,0.0,126.0,127.0,16.0,-104.0,-82.0,126.0,127.0,127.0,108.0,82.0,-5.0
123.0,128.0,124.0,129.0,126.0,0.0,126.0,127.0,16.0,-104.0,-82.0,126.0,127.0,127.0,108.0,82.0,-5.0
123.0,128.0,124.0,129.0,126.0,0.0,126.0,127.0,16.0,-104.0,-82.0,126.0,127.0,127.0,108.0,82.0,-5.0
123.0,128.0,124.0,129.0,126.0,0.0,126.0,127.0,16.0,-104.0,-82.0,126.0,127.0,127.0,108.0,82.0,-5.0
123.0,127.0,124.0,129.0,126.0,0.0,126.0,127.0,16.0,-104.0,-82.0,126.0,127.0,127.0,108.0,82.0,-5.0
123.0,128.0,124.0,129.0,126.0,0.0,126.0,127.0,16.0,-104.0,-82.0,126.0,127.0,127.0,108.0,82.0,-5.0
123.0,128.0,124.0,129.0,126.0,0.0,126.0,127.0,16.0,-104.0,-82.0,126.0,127.0,127.0,108.0,82.0,-5.0
123.0,128.0,124.0,129.0,126.0,0.0,126.0,127.0,16.0,-104.0,-82.0,126.0,127.0,127.0,108.0,82.0,-5.0
124.0,127.0,123.0,129.0,127.0,0.0,127.0,127.0,16.0,-104.0,-82.0,127.0,127.0,127.0,108.0,82.0,-5.0
124.0,127.0,123.0,129.0,127.0,0.0,127.0,127.0,16.0,-104.0,-82.0,127.0,127.0,127.0,108.0,82.0,-5.0
124.0,128.0,123.0,129.0,127.0,0.0,127.0,127.0,16.0,-104.0,-82.0,127.0,127.0,127.0,108.0,82.0,-5.0
124.0,128.0,123.0,129.0,127.0,0.0,127.0,127.0,16.0,-104.0,-82.0,127.0,127.0,127.0,108.0,82.0,-5.0
124.0,128.0,123.0,129.0,127.0,0.0,127.0,127.0,16.0,-104.0,-82.0,127.0,127.0,127.0,108.0,82.0,-5.0
124.0,127.0,122.0,129.0,127.0,0.0,127.0,127.0,16.0,-104.0,-82.0,127.0,127.0,127.0,108.0,82.0,-5.0
124.0,128.0,122.0,129.0,127.0,0.0,127.0,127.0,16.0,-104.0,-82.0,127.0,127.0,127.0,108.0,82.0,-5.0
124.0,128.0,122.0,129.0,127.0,0.0,127.0,127.0,16.0,-104.0,-82.0,127.0,127.0,127.0,108.0,82.0,-5.0
124.0,127.0,123.0,129.0,127.0,0.0,127.0,127.0,16.0,-104.0,-82.0,127.0,127.0,127.0,108.0,82.0,-5.0
124.0,127.0,123.0,129.0,127.0,0.0,127.0,127.0,16.0,-104.0,-82.0,127.0,127.0,127.0,108.0,82.0,-5.0
123.0,127.0,128.0,129.0,127.0,0.0,127.0,127.0,15.0,-104.0,-82.0,127.0,127.0,127.0,108.0,82.0,-5.0
123.0,127.0,128.0,129.0,127.0,0.0,127.0,127.0,15.0,-104.0,-82.0,127.0,127.0,127.0,108.0,82.0,-5.0
123.0,127.0,128.0,129.0,127.0,0.0,127.0,127.0,15.0,-104.0,-82.0,127.0,127.0,127.0,108.0,82.0,-5.0
123.0,127.0,128.0,129.0,127.0,0.0,127.0,127.0,15.0,-104.0,-82.0,127.0,127.0,127.0,108.0,82.0,-5.0
123.0,127.0,127.0,129.0,127.0,0.0,127.0,127.0,15.0,-104.0,-82.0,127.0,127.0,127.0,108.0,82.0,-5.0
123.0,127.0,127.0,129.0,127.0,0.0,127.0,127.0,15.0,-104.0,-82.0,127.0,127.0,127.0,108.0,82.0,-5.0
123.0,127.0,127.0,129.0,127.0,0.0,127.0,127.0,15.0,-104.0,-82.0,127.0,127.0,127.0,108.0,82.0,-5.0
123.0,127.0,127.0,129.0,127.0,0.0,127.0,127.0,15.0,-104.0,-82.0,127.0,127.0,127.0,108.0,82.0,-5.0
123.0,127.0,127.0,129.0,127.0,0.0,127.0,127.0,15.0,-104.0,-82.0,127.0,127.0,127.0,108.0,82.0,-5.0
123.0,127.0,127.0,129.0,127.0,0.0,127.0,127.0,15.0,-104.0,-82.0,127.0,127.0,127.0,108.0,82.0,-5.0
121.0,127.0,131.0,128.0,126.0,0.0,126.0,127.0,15.0,-104.0,-82.0,127.0,127.0,127.0,108.0,82.0,-5.0
121.0,127.0,131.0,128.0,126.0,0.0,126.0,127.0,15.0,-104.0,-82.0,127.0,127.0,127.0,108.0,82.0,-5.0
121.0,127.0,131.0,128.0,126.0,0.0,126.0,127.0,15.0,-104.0,-82.0,127.0,127.0,127.0,108.0,82.0,-5.0
122.0,127.0,131.0,128.0,126.0,0.0,126.0,127.0,15.0,-104.0,-82.0,127.0,127.0,127.0,108.0,82.0,-5.0
121.0,127.0,131.0,129.0,126.0,0.0,126.0,127.0,15.0,-104.0,-82.0,127.0,127.0,127.0,108.0,82.0,-5.0
121.0,127.0,131.0,129.0,126.0,0.0,126.0,127.0,15.0,-104.0,-82.0,127.0,127.0,127.0,108.0,82.0,-5.0
121.0,127.0,131.0,128.0,126.0,0.0,126.0,127.0,15.0,-104.0,-82.0,127.0,127.0,127.0,108.0,82.0,-5.0
121.0,127.0,131.0,128.0,126.0,0.0,126.0,127.0,15.0,-104.0,-82.0,127.0,127.0,127.0,108.0,82.0,-5.0
121.0,127.0,131.0,128.0,126.0,0.0,126.0,127.0,15.0,-104.0,-82.0,127.0,127.0,127.0,108.0,82.0,-5.0
121.0,127.0,131.0,128.0,126.0,0.0,126.0,127.0,15.0,-104.0,-82.0,127.0,127.0,127.0,108.0,82.0,-5.0
122.0,127.0,128.0,128.0,126.0,0.0,126.0,127.0,15.0,-104.0,-82.0,127.0,127.0,127.0,108.0,82.0,-5.0
122.0,127.0,128.0,128.0,126.0,0.0,126.0,127.0,15.0,-104.0,-82.0,127.0,127.0,127.0,108.0,82.0,-5.0
121.0,127.0,128.0,128.0,126.0,0.0,126.0,127.0,15.0,-104.0,-82.0,127.0,127.0,127.0,108.0,82.0,-5.0
121.0,127.0,128.0,128.0,126.0,0.0,126.0,127.0,15.0,-104.0,-82.0,127.0,127.0,127.0,108.0,82.0,-5.0
121.0,126.0,128.0,128.0,126.0,0.0,126.0,127.0,15.0,-104.0,-82.0,127.0,127.0,127.0,108.0,82.0,-5.0
121.0,127.0,128.0,128.0,126.0,0.0,126.0,127.0,15.0,-104.0,-82.0,127.0,127.0,127.0,108.0,82.0,-5.0
121.0,127.0,128.0,128.0,126.0,0.0,126.0,127.0,15.0,-104.0,-82.0,127.0,127.0,127.0,108.0,82.0,-5.0
121.0,127.0,128.0,128.0,126.0,0.0,126.0,127.0,15.0,-104.0,-82.0,127.0,127.0,127.0,108.0,82.0,-5.0
121.0,127.0,128.0,128.0,126.0,0.0,126.0,127.0,15.0,-104.0,-82.0,127.0,127.0,127.0,108.0,82.0,-5.0
121.0,127.0,128.0,128.0,126.0,0.0,126.0,127.0,15.0,-104.0,-82.0,127.0,127.0,127.0,108.0,82.0,-5.0
125.0,128.0,122.0,129.0,127.0,0.0,127.0,127.0,15.0,-104.0,-82.0,127.0,127.0,127.0,108.0,82.0,-5.0
125.0,128.0,124.0,129.0,127.0,0.0,127.0,127.0,15.0,-104.0,-82.0,127.0,127.0,127.0,108.0,82.0,-5.0
125.0,128.0,124.0,129.0,127.0,0.0,127.0,127.0,15.0,-104.0,-82.0,127.0,127.0,127.0,108.0,82.0,-5.0
125.0,128.0,124.0,129.0,127.0,0.0,127.0,127.0,15.0,-104.0,-82.0,127.0,127.0,127.0,108.0,82.0,-5.0
125.0,128.0,123.0,129.0,127.0,0.0,127.0,127.0,15.0,-104.0,-82.0,127.0,127.0,127.0,108.0,82.0,-5.0
125.0,128.0,123.0,129.0,127.0,0.0,127.0,127.0,15.0,-104.0,-82.0,127.0,127.0,127.0,108.0,82.0,-5.0
125.0,128.0,123.0,129.0,127.0,0.0,127.0,127.0,15.0,-104.0,-82.0,127.0,127.0,127.0,108.0,82.0,-5.0
125.0,128.0,123.0,129.0,127.0,0.0,127.0,127.0,15.0,-104.0,-82.0,127.0,127.0,127.0,108.0,82.0,-5.0
125.0,128.0,123.0,129.0,127.0,0.0,127.0,127.0,15.0,-104.0,-82.0,127.0,127.0,127.0,108.0,82.0,-5.0
125.0,128.0,123.0,129.0,127.0,0.0,127.0,127.0,15.0,-104.0,-82.0,127.0,127.0,127.0,108.0,82.0,-5.0
126.0,129.0,128.0,129.0,128.0,0.0,128.0,127.0,15.0,-104.0,-81.0,127.0,127.0,127.0,108.0,82.0,-5.0
126.0,129.0,128.0,129.0,128.0,0.0,128.0,127.0,15.0,-104.0,-81.0,127.0,127.0,127.0,108.0,82.0,-5.0
126.0,128.0,129.0,129.0,127.0,0.0,128.0,128.0,15.0,-104.0,-81.0,127.0,127.0,127.0,108.0,82.0,-5.0
126.0,128.0,129.0,129.0,128.0,0.0,128.0,128.0,15.0,-104.0,-81.0,127.0,127.0,127.0,108.0,82.0,-5.0
126.0,128.0,129.0,129.0,127.0,0.0,128.0,128.0,15.0,-104.0,-81.0,127.0,127.0,127.0,108.0,82.0,-5.0
126.0,128.0,129.0,129.0,127.0,0.0,128.0,128.0,15.0,-104.0,-81.0,127.0,127.0,127.0,108.0,82.0,-5.0
126.0,128.0,130.0,129.0,127.0,0.0,128.0,128.0,15.0,-104.0,-81.0,127.0,127.0,127.0,108.0,82.0,-5.0
126.0,128.0,130.0,129.0,127.0,0.0,128.0,128.0,15.0,-104.0,-81.0,127.0,127.0,127.0,108.0,82.0,-5.0
126.0,128.0,130.0,129.0,127.0,0.0,128.0,128.0,15.0,-104.0,-81.0,127.0,127.0,127.0,108.0,82.0,-5.0
126.0,128.0,130.0,129.0,128.0,0.0,128.0,128.0,15.0,-104.0,-81.0,127.0,127.0,127.0,108.0,82.0,-5.0
126.0,128.0,131.0,129.0,128.0,0.0,128.0,127.0,16.0,-104.0,-81.0,127.0,127.0,127.0,109.0,82.0,-5.0
126.0,128.0,131.0,129.0,128.0,0.0,128.0,127.0,16.0,-104.0,-81.0,127.0,127.0,127.0,109.0,82.0,-5.0
126.0,128.0,131.0,129.0,128.0,0.0,128.0,127.0,16.0,-104.0,-81.0,127.0,127.0,127.0,109.0,82.0,-5.0
126.0,128.0,131.0,129.0,128.0,0.0,128.0,127.0,16.0,-104.0,-81.0,127.0,127.0,127.0,109.0,82.0,-5.0
126.0,128.0,131.0,129.0,128.0,0.0,129.0,127.0,16.0,-104.0,-81.0,127.0,127.0,127.0,109.0,82.0,-5.0
126.0,128.0,131.0,129.0,128.0,0.0,128.0,127.0,16.0,-104.0,-81.0,127.0,127.0,127.0,109.0,82.0,-5.0
126.0,128.0,132.0,129.0,128.0,0.0,128.0,127.0,16.0,-104.0,-81.0,127.0,127.0,127.0,109.0,82.0,-5.0
126.0,128.0,132.0,129.0,128.0,0.0,128.0,127.0,16.0,-104.0,-81.0,127.0,127.0,127.0,109.0,82.0,-5.0
126.0,128.0,132.0,130.0,128.0,0.0,128.0,127.0,16.0,-104.0,-81.0,127.0,127.0,127.0,109.0,82.0,-5.0
126.0,128.0,131.0,129.0,128.0,0.0,128.0,127.0,16.0,-104.0,-81.0,127.0,127.0,127.0,109.0,82.0,-5.0
126.0,128.0,132.0,129.0,127.0,54.0,127.0,127.0,16.0,-105.0,-81.0,127.0,127.0,127.0,109.0,82.0,-5.0
126.0,128.0,132.0,129.0,127.0,56.0,127.0,127.0,16.0,-105.0,-81.0,127.0,127.0,127.0,109.0,82.0,-5.0
126.0,128.0,132.0,129.0,127.0,57.0,127.0,127.0,16.0,-105.0,-81.0,127.0,127.0,127.0,109.0,82.0,-5.0
126.0,128.0,132.0,129.0,127.0,59.0,127.0,127.0,16.0,-105.0,-81.0,127.0,127.0,127.0,109.0,82.0,-5.0
126.0,128.0,132.0,129.0,127.0,61.0,127.0,127.0,16.0,-105.0,-81.0,127.0,127.0,127.0,109.0,82.0,-5.0
126.0,128.0,132.0,129.0,127.0,62.0,127.0,127.0,16.0,-105.0,-81.0,127.0,127.0,127.0,109.0,82.0,-5.0
126.0,128.0,131.0,129.0,127.0,63.0,127.0,127.0,16.0,-105.0,-81.0,127.0,127.0,127.0,109.0,82.0,-5.0
126.0,128.0,131.0,129.0,127.0,65.0,127.0,127.0,16.0,-105.0,-81.0,127.0,127.0,127.0,109.0,82.0,-5.0
126.0,128.0,133.0,129.0,127.0,50.0,127.0,127.0,16.0,-105.0,-81.0,127.0,127.0,127.0,109.0,82.0,-5.0
126.0,128.0,132.0,129.0,127.0,52.0,127.0,127.0,16.0,-105.0,-81.0,127.0,127.0,127.0,109.0,82.0,-5.0
126.0,128.0,132.0,129.0,126.0,119.0,125.0,127.0,16.0,-104.0,-81.0,127.0,127.0,127.0,109.0,82.0,-5.0
126.0,128.0,132.0,129.0,126.0,119.0,125.0,127.0,16.0,-104.0,-81.0,127.0,127.0,127.0,109.0,82.0,-5.0
126.0,127.0,132.0,129.0,126.0,120.0,125.0,127.0,16.0,-104.0,-81.0,127.0,127.0,127.0,109.0,82.0,-5.0
126.0,127.0,132.0,129.0,126.0,120.0,125.0,127.0,16.0,-104.0,-81.0,127.0,127.0,127.0,109.0,82.0,-5.0
126.0,127.0,132.0,129.0,126.0,120.0,125.0,127.0,16.0,-104.0,-81.0,127.0,127.0,127.0,109.0,82.0,-5.0
126.0,127.0,132.0,129.0,126.0,121.0,125.0,127.0,16.0,-104.0,-81.0,127.0,127.0,127.0,109.0,82.0,-5.0
126.0,127.0,132.0,129.0,126.0,121.0,125.0,127.0,16.0,-104.0,-81.0,127.0,127.0,127.0,109.0,82.0,-5.0
126.0,128.0,132.0,129.0,127.0,117.0,125.0,127.0,16.0,-104.0,-81.0,127.0,127.0,127.0,109.0,82.0,-5.0
126.0,128.0,132.0,129.0,126.0,117.0,125.0,127.0,16.0,-104.0,-81.0,127.0,127.0,127.0,109.0,82.0,-5.0
126.0,128.0,132.0,129.0,126.0,118.0,125.0,127.0,16.0,-104.0,-81.0,127.0,127.0,127.0,109.0,82.0,-5.0
126.0,127.0,133.0,129.0,126.0,137.0,125.0,127.0,16.0,-104.0,-81.0,127.0,127.0,127.0,109.0,82.0,-5.0
126.0,127.0,133.0,129.0,126.0,137.0,125.0,127.0,16.0,-104.0,-81.0,127.0,127.0,127.0,109.0,82.0,-5.0
126.0,127.0,133.0,129.0,126.0,137.0,125.0,127.0,16.0,-104.0,-81.0,127.0,127.0,127.0,109.0,82.0,-5.0
126.0,127.0,133.0,129.0,126.0,137.0,125.0,127.0,16.0,-104.0,-81.0,127.0,127.0,127.0,109.0,82.0,-5.0
126.0,127.0,133.0,129.0,126.0,138.0,125.0,127.0,16.0,-104.0,-81.0,127.0,127.0,127.0,109.0,82.0,-5.0
126.0,127.0,133.0,129.0,126.0,139.0,125.0,128.0,16.0,-104.0,-81.0,127.0,127.0,127.0,109.0,82.0,-5.0
126.0,127.0,133.0,129.0,126.0,135.0,125.0,127.0,16.0,-104.0,-81.0,127.0,127.0,127.0,109.0,82.0,-5.0
126.0,127.0,133.0,129.0,126.0,135.0,125.0,127.0,16.0,-104.0,-81.0,127.0,127.0,127.0,109.0,82.0,-5.0
126.0,127.0,133.0,129.0,126.0,137.0,125.0,127.0,16.0,-104.0,-81.0,127.0,127.0,127.0,109.0,82.0,-5.0
126.0,127.0,133.0,129.0,126.0,137.0,125.0,127.0,16.0,-104.0,-81.0,127.0,127.0,127.0,109.0,82.0,-5.0
125.0,127.0,132.0,129.0,127.0,145.0,125.0,127.0,16.0,-104.0,-82.0,127.0,127.0,127.0,109.0,82.0,-5.0
125.0,127.0,132.0,129.0,127.0,145.0,125.0,127.0,16.0,-104.0,-82.0,127.0,127.0,127.0,109.0,82.0,-5.0
125.0,127.0,132.0,129.0,127.0,145.0,125.0,127.0,16.0,-104.0,-82.0,127.0,127.0,127.0,109.0,82.0,-5.0
125.0,127.0,132.0,130.0,127.0,146.0,125.0,127.0,16.0,-104.0,-82.0,127.0,127.0,127.0,109.0,82.0,-5.0
125.0,127.0,132.0,130.0,127.0,147.0,125.0,128.0,16.0,-104.0,-82.0,127.0,127.0,127.0,109.0,82.0,-5.0
125.0,126.0,132.0,128.0,126.0,143.0,125.0,127.0,16.0,-104.0,-82.0,127.0,127.0,127.0,109.0,82.0,-5.0
125.0,126.0,132.0,129.0,126.0,143.0,125.0,127.0,16.0,-104.0,-82.0,127.0,127.0,127.0,109.0,82.0,-5.0
125.0,127.0,132.0,129.0,126.0,145.0,125.0,127.0,16.0,-104.0,-82.0,127.0,127.0,127.0,109.0,82.0,-5.0
125.0,127.0,132.0,129.0,127.0,145.0,125.0,127.0,16.0,-104.0,-82.0,127.0,127.0,127.0,109.0,82.0,-5.0
125.0,127.0,132.0,129.0,127.0,145.0,125.0,127.0,16.0,-104.0,-82.0,127.0,127.0,127.0,109.0,82.0,-5.0
125.0,127.0,132.0,129.0,127.0,146.0,127.0,127.0,16.0,-103.0,-82.0,127.0,127.0,127.0,109.0,82.0,-5.0
125.0,127.0,132.0,129.0,127.0,146.0,127.0,127.0,16.0,-103.0,-82.0,127.0,127.0,127.0,109.0,82.0,-5.0
125.0,127.0,132.0,129.0,127.0,147.0,127.0,127.0,16.0,-103.0,-82.0,127.0,127.0,127.0,109.0,82.0,-5.0
125.0,128.0,132.0,129.0,127.0,147.0,127.0,127.0,16.0,-103.0,-82.0,127.0,127.0,127.0,109.0,82.0,-5.0
125.0,127.0,132.0,129.0,127.0,145.0,127.0,127.0,16.0,-103.0,-82.0,127.0,127.0,127.0,109.0,82.0,-5.0
125.0,127.0,132.0,129.0,127.0,145.0,127.0,127.0,16.0,-103.0,-82.0,127.0,127.0,127.0,109.0,82.0,-5.0
125.0,127.0,132.0,129.0,127.0,146.0,126.0,127.0,16.0,-103.0,-82.0,127.0,127.0,127.0,109.0,82.0,-5.0
125.0,127.0,132.0,129.0,127.0,147.0,127.0,127.0,16.0,-103.0,-82.0,127.0,127.0,127.0,109.0,82.0,-5.0
125.0,127.0,132.0,129.0,127.0,146.0,127.0,127.0,16.0,-103.0,-82.0,127.0,127.0,127.0,109.0,82.0,-5.0
125.0,127.0,132.0,129.0,127.0,146.0,127.0,127.0,16.0,-103.0,-82.0,127.0,127.0,127.0,109.0,82.0,-5.0
125.0,128.0,131.0,130.0,127.0,149.0,127.0,127.0,16.0,-103.0,-82.0,127.0,127.0,127.0,109.0,82.0,-5.0
125.0,128.0,130.0,130.0,127.0,150.0,127.0,127.0,16.0,-103.0,-82.0,127.0,127.0,127.0,109.0,82.0,-5.0
125.0,128.0,130.0,130.0,127.0,150.0,127.0,127.0,16.0,-103.0,-82.0,127.0,127.0,127.0,109.0,82.0,-5.0
125.0,127.0,131.0,130.0,127.0,147.0,127.0,127.0,16.0,-103.0,-82.0,127.0,127.0,127.0,109.0,82.0,-5.0
125.0,127.0,131.0,130.0,127.0,147.0,127.0,127.0,16.0,-103.0,-82.0,127.0,127.0,127.0,109.0,82.0,-5.0
125.0,127.0,130.0,130.0,127.0,149.0,127.0,127.0,16.0,-103.0,-82.0,127.0,127.0,127.0,109.0,82.0,-5.0
125.0,128.0,130.0,130.0,127.0,149.0,127.0,127.0,16.0,-103.0,-82.0,127.0,127.0,127.0,109.0,82.0,-5.0
125.0,128.0,131.0,130.0,127.0,149.0,127.0,127.0,16.0,-103.0,-82.0,127.0,127.0,127.0,109.0,82.0,-5.0
125.0,128.0,131.0,130.0,127.0,149.0,127.0,127.0,16.0,-103.0,-82.0,127.0,127.0,127.0,109.0,82.0,-5.0
125.0,128.0,131.0,130.0,127.0,149.0,127.0,127.0,16.0,-103.0,-82.0,127.0,127.0,127.0,109.0,82.0,-5.0
122.0,127.0,124.0,129.0,127.0,153.0,126.0,127.0,16.0,-103.0,-82.0,127.0,127.0,127.0,109.0,82.0,-5.0
122.0,127.0,124.0,129.0,127.0,154.0,126.0,127.0,16.0,-103.0,-82.0,127.0,127.0,127.0,109.0,82.0,-5.0
122.0,127.0,125.0,130.0,127.0,150.0,126.0,127.0,16.0,-103.0,-82.0,127.0,127.0,127.0,109.0,82.0,-5.0
122.0,127.0,125.0,130.0,127.0,150.0,126.0,127.0,16.0,-103.0,-82.0,127.0,127.0,127.0,109.0,82.0,-5.0
122.0,127.0,125.0,130.0,127.0,151.0,126.0,127.0,16.0,-103.0,-82.0,127.0,127.0,127.0,109.0,82.0,-5.0
122.0,127.0,125.0,130.0,127.0,152.0,126.0,127.0,16.0,-103.0,-82.0,127.0,127.0,127.0,109.0,82.0,-5.0
122.0,127.0,125.0,130.0,127.0,152.0,126.0,127.0,16.0,-103.0,-82.0,127.0,127.0,127.0,109.0,82.0,-5.0
122.0,127.0,125.0,130.0,127.0,152.0,126.0,127.0,16.0,-103.0,-82.0,127.0,127.0,127.0,109.0,82.0,-5.0
122.0,127.0,125.0,130.0,127.0,152.0,126.0,127.0,16.0,-103.0,-82.0,127.0,127.0,127.0,109.0,82.0,-5.0
122.0,127.0,124.0,130.0,127.0,152.0,126.0,127.0,16.0,-103.0,-82.0,127.0,127.0,127.0,109.0,82.0,-5.0
120.0,127.0,128.0,129.0,127.0,155.0,126.0,127.0,16.0,-103.0,-82.0,127.0,127.0,127.0,109.0,82.0,-5.0
120.0,126.0,127.0,129.0,127.0,152.0,126.0,127.0,16.0,-103.0,-82.0,127.0,127.0,127.0,109.0,82.0,-5.0
120.0,126.0,127.0,129.0,127.0,153.0,126.0,127.0,16.0,-103.0,-82.0,127.0,127.0,127.0,109.0,82.0,-5.0
120.0,126.0,127.0,129.0,127.0,153.0,126.0,127.0,16.0,-103.0,-82.0,127.0,127.0,127.0,109.0,82.0,-5.0
120.0,127.0,127.0,129.0,127.0,154.0,126.0,127.0,16.0,-103.0,-82.0,127.0,127.0,127.0,109.0,82.0,-5.0
120.0,127.0,127.0,129.0,127.0,154.0,126.0,127.0,16.0,-103.0,-82.0,127.0,127.0,127.0,109.0,82.0,-5.0
120.0,127.0,127.0,129.0,127.0,154.0,126.0,127.0,16.0,-103.0,-82.0,127.0,127.0,127.0,109.0,82.0,-5.0
120.0,127.0,128.0,129.0,127.0,154.0,126.0,127.0,16.0,-103.0,-82.0,127.0,127.0,127.0,109.0,82.0,-5.0
120.0,127.0,128.0,129.0,127.0,154.0,126.0,127.0,16.0,-103.0,-82.0,127.0,127.0,127.0,109.0,82.0,-5.0
120.0,127.0,128.0,129.0,127.0,154.0,126.0,127.0,16.0,-103.0,-82.0,127.0,127.0,127.0,109.0,82.0,-5.0
122.0,127.0,130.0,129.0,127.0,153.0,126.0,127.0,16.0,-103.0,-82.0,127.0,127.0,127.0,109.0,82.0,-5.0
123.0,127.0,130.0,129.0,127.0,154.0,126.0,127.0,16.0,-103.0,-82.0,127.0,127.0,127.0,109.0,82.0,-5.0
122.0,127.0,130.0,129.0,127.0,154.0,126.0,127.0,16.0,-103.0,-82.0,127.0,127.0,127.0,109.0,82.0,-5.0
123.0,127.0,129.0,129.0,127.0,155.0,126.0,127.0,16.0,-103.0,-82.0,127.0,127.0,127.0,109.0,82.0,-5.0
123.0,127.0,129.0,129.0,127.0,155.0,126.0,127.0,16.0,-103.0,-82.0,127.0,127.0,127.0,109.0,82.0,-5.0
123.0,127.0,129.0,129.0,127.0,155.0,126.0,127.0,16.0,-103.0,-82.0,127.0,127.0,127.0,109.0,82.0,-5.0
123.0,127.0,129.0,129.0,127.0,155.0,126.0,127.0,16.0,-103.0,-82.0,127.0,127.0,127.0,109.0,82.0,-5.0
123.0,127.0,129.0,129.0,127.0,155.0,126.0,127.0,16.0,-103.0,-82.0,127.0,127.0,127.0,109.0,82.0,-5.0
123.0,127.0,129.0,129.0,127.0,155.0,126.0,127.0,16.0,-103.0,-82.0,127.0,127.0,127.0,109.0,82.0,-5.0
123.0,127.0,129.0,129.0,127.0,156.0,126.0,127.0,16.0,-103.0,-82.0,127.0,127.0,127.0,109.0,82.0,-5.0
124.0,127.0,129.0,129.0,127.0,155.0,126.0,127.0,17.0,-103.0,-82.0,127.0,127.0,127.0,109.0,82.0,-5.0
124.0,127.0,129.0,129.0,127.0,155.0,126.0,127.0,17.0,-103.0,-82.0,127.0,127.0,127.0,109.0,82.0,-5.0
124.0,127.0,129.0,129.0,127.0,154.0,127.0,127.0,17.0,-103.0,-82.0,127.0,127.0,127.0,109.0,82.0,-5.0
124.0,127.0,129.0,129.0,127.0,154.0,127.0,127.0,17.0,-103.0,-82.0,127.0,127.0,127.0,109.0,82.0,-5.0
124.0,127.0,129.0,129.0,127.0,154.0,127.0,127.0,17.0,-103.0,-82.0,127.0,127.0,127.0,109.0,82.0,-5.0
124.0,127.0,129.0,129.0,126.0,154.0,127.0,127.0,17.0,-103.0,-82.0,127.0,127.0,127.0,109.0,82.0,-5.0
124.0,127.0,129.0,129.0,126.0,154.0,127.0,127.0,17.0,-103.0,-82.0,127.0,127.0,127.0,109.0,82.0,-5.0
124.0,127.0,129.0,129.0,126.0,153.0,127.0,127.0,17.0,-103.0,-82.0,127.0,127.0,127.0,109.0,82.0,-5.0
124.0,127.0,129.0,129.0,126.0,153.0,127.0,127.0,17.0,-103.0,-82.0,127.0,127.0,127.0,109.0,82.0,-5.0
124.0,127.0,129.0,129.0,127.0,155.0,126.0,127.0,17.0,-103.0,-82.0,127.0,127.0,127.0,109.0,82.0,-5.0
126.0,126.0,129.0,129.0,127.0,151.0,127.0,127.0,17.0,-103.0,-82.0,127.0,127.0,127.0,109.0,82.0,-5.0
126.0,127.0,129.0,129.0,127.0,152.0,127.0,127.0,17.0,-103.0,-82.0,127.0,127.0,127.0,109.0,82.0,-5.0
126.0,127.0,129.0,129.0,127.0,152.0,127.0,127.0,17.0,-103.0,-82.0,127.0,127.0,127.0,109.0,82.0,-5.0
126.0,127.0,129.0,129.0,127.0,152.0,127.0,127.0,17.0,-103.0,-82.0,127.0,127.0,127.0,109.0,82.0,-5.0
126.0,127.0,129.0,129.0,127.0,152.0,127.0,127.0,17.0,-103.0,-82.0,127.0,127.0,127.0,109.0,82.0,-5.0
126.0,127.0,130.0,129.0,127.0,152.0,127.0,127.0,17.0,-103.0,-82.0,127.0,127.0,127.0,109.0,82.0,-5.0
126.0,127.0,130.0,129.0,127.0,152.0,127.0,127.0,17.0,-103.0,-82.0,127.0,127.0,127.0,109.0,82.0,-5.0
126.0,126.0,130.0,129.0,127.0,151.0,127.0,127.0,17.0,-103.0,-82.0,127.0,127.0,127.0,109.0,82.0,-5.0
126.0,126.0,130.0,129.0,127.0,150.0,127.0,127.0,17.0,-103.0,-82.0,127.0,127.0,127.0,109.0,82.0,-5.0
126.0,126.0,130.0,129.0,127.0,151.0,127.0,127.0,17.0,-103.0,-82.0,127.0,127.0,127.0,109.0,82.0,-5.0
126.0,126.0,131.0,129.0,127.0,151.0,126.0,127.0,17.0,-103.0,-82.0,127.0,127.0,127.0,109.0,82.0,-5.0
126.0,126.0,131.0,129.0,127.0,151.0,126.0,127.0,17.0,-103.0,-82.0,127.0,127.0,127.0,109.0,82.0,-5.0
126.0,126.0,131.0,129.0,127.0,151.0,126.0,127.0,17.0,-103.0,-82.0,127.0,127.0,127.0,109.0,82.0,-5.0
126.0,126.0,131.0,129.0,127.0,151.0,126.0,127.0,17.0,-103.0,-82.0,127.0,127.0,127.0,109.0,82.0,-5.0
126.0,126.0,131.0,129.0,127.0,151.0,126.0,127.0,17.0,-103.0,-82.0,127.0,127.0,127.0,109.0,82.0,-5.0
126.0,126.0,131.0,129.0,127.0,151.0,126.0,127.0,17.0,-103.0,-82.0,127.0,127.0,127.0,109.0,82.0,-5.0
126.0,127.0,130.0,129.0,127.0,152.0,126.0,127.0,17.0,-103.0,-82.0,127.0,127.0,127.0,109.0,82.0,-5.0
126.0,127.0,130.0,129.0,127.0,152.0,126.0,127.0,17.0,-103.0,-82.0,127.0,127.0,127.0,109.0,82.0,-5.0
126.0,127.0,131.0,129.0,127.0,152.0,126.0,127.0,17.0,-103.0,-82.0,127.0,127.0,127.0,109.0,82.0,-5.0
126.0,126.0,131.0,129.0,127.0,152.0,126.0,127.0,17.0,-103.0,-82.0,127.0,127.0,127.0,109.0,82.0,-5.0
125.0,126.0,129.0,129.0,127.0,150.0,126.0,127.0,17.0,-103.0,-82.0,127.0,127.0,127.0,109.0,82.0,-5.0
125.0,126.0,129.0,129.0,127.0,150.0,126.0,127.0,17.0,-103.0,-82.0,127.0,127.0,127.0,109.0,82.0,-5.0
125.0,126.0,129.0,129.0,127.0,150.0,126.0,127.0,17.0,-103.0,-82.0,127.0,127.0,127.0,109.0,82.0,-5.0
125.0,126.0,129.0,129.0,127.0,150.0,126.0,127.0,17.0,-103.0,-82.0,127.0,127.0,127.0,109.0,82.0,-5.0
125.0,126.0,129.0,129.0,127.0,150.0,126.0,127.0,17.0,-103.0,-82.0,127.0,127.0,127.0,109.0,82.0,-5.0
125.0,127.0,129.0,129.0,127.0,151.0,126.0,127.0,17.0,-103.0,-82.0,127.0,127.0,127.0,109.0,82.0,-5.0
125.0,127.0,129.0,129.0,127.0,151.0,126.0,127.0,17.0,-103.0,-82.0,127.0,127.0,127.0,109.0,82.0,-5.0
125.0,127.0,129.0,129.0,127.0,151.0,126.0,127.0,17.0,-103.0,-82.0,127.0,127.0,127.0,109.0,82.0,-5.0
125.0,127.0,129.0,129.0,127.0,151.0,126.0,127.0,17.0,-103.0,-82.0,127.0,127.0,127.0,109.0,82.0,-5.0
125.0,126.0,129.0,129.0,127.0,150.0,126.0,127.0,17.0,-103.0,-82.0,127.0,127.0,127.0,109.0,82.0,-5.0
124.0,126.0,128.0,128.0,126.0,152.0,126.0,127.0,18.0,-103.0,-82.0,127.0,127.0,127.0,109.0,82.0,-5.0
124.0,126.0,128.0,128.0,126.0,151.0,126.0,127.0,18.0,-103.0,-82.0,127.0,127.0,127.0,109.0,82.0,-5.0
124.0,126.0,128.0,128.0,126.0,151.0,126.0,127.0,18.0,-103.0,-82.0,127.0,127.0,127.0,109.0,82.0,-5.0
124.0,126.0,128.0,128.0,126.0,151.0,127.0,127.0,18.0,-103.0,-82.0,127.0,127.0,127.0,109.0,82.0,-5.0
124.0,127.0,128.0,128.0,127.0,152.0,126.0,127.0,18.0,-103.0,-82.0,127.0,127.0,127.0,109.0,82.0,-5.0
124.0,126.0,128.0,128.0,126.0,152.0,126.0,127.0,18.0,-103.0,-82.0,127.0,127.0,127.0,109.0,82.0,-5.0
124.0,126.0,128.0,128.0,126.0,152.0,126.0,127.0,18.0,-103.0,-82.0,127.0,127.0,127.0,109.0,82.0,-5.0
124.0,126.0,128.0,128.0,126.0,152.0,126.0,127.0,18.0,-103.0,-82.0,127.0,127.0,127.0,109.0,82.0,-5.0
124.0,126.0,128.0,128.0,126.0,152.0,126.0,127.0,18.0,-103.0,-82.0,127.0,127.0,127.0,109.0,82.0,-5.0
124.0,126.0,128.0,128.0,126.0,152.0,126.0,127.0,18.0,-103.0,-82.0,127.0,127.0,127.0,109.0,82.0,-5.0
124.0,126.0,128.0,128.0,126.0,152.0,127.0,127.0,18.0,-103.0,-82.0,127.0,127.0,127.0,109.0,82.0,-5.0
124.0,126.0,128.0,128.0,126.0,152.0,127.0,127.0,18.0,-103.0,-82.0,127.0,127.0,127.0,109.0,82.0,-5.0
124.0,126.0,128.0,128.0,126.0,152.0,127.0,127.0,18.0,-103.0,-82.0,127.0,127.0,127.0,109.0,82.0,-5.0
124.0,127.0,128.0,129.0,126.0,153.0,126.0,128.0,18.0,-103.0,-82.0,127.0,127.0,127.0,109.0,82.0,-5.0
124.0,127.0,128.0,129.0,126.0,153.0,126.0,128.0,18.0,-103.0,-82.0,127.0,127.0,127.0,109.0,82.0,-5.0
124.0,127.0,128.0,129.0,127.0,153.0,126.0,128.0,18.0,-103.0,-82.0,127.0,127.0,127.0,109.0,82.0,-5.0
124.0,127.0,128.0,129.0,127.0,153.0,127.0,128.0,18.0,-103.0,-82.0,127.0,127.0,127.0,109.0,82.0,-5.0
124.0,127.0,128.0,129.0,126.0,153.0,127.0,128.0,18.0,-103.0,-82.0,127.0,127.0,127.0,109.0,82.0,-5.0
124.0,127.0,128.0,128.0,126.0,153.0,127.0,128.0,18.0,-103.0,-82.0,127.0,127.0,127.0,109.0,82.0,-5.0
124.0,126.0,128.0,129.0,126.0,153.0,127.0,128.0,18.0,-103.0,-82.0,127.0,127.0,127.0,109.0,82.0,-5.0
126.0,127.0,128.0,128.0,126.0,152.0,126.0,127.0,18.0,-103.0,-82.0,127.0,127.0,127.0,109.0,82.0,-5.0
126.0,127.0,128.0,128.0,126.0,152.0,126.0,127.0,18.0,-103.0,-82.0,127.0,127.0,127.0,109.0,82.0,-5.0
126.0,127.0,128.0,128.0,127.0,154.0,126.0,127.0,18.0,-103.0,-82.0,127.0,127.0,127.0,109.0,82.0,-5.0
126.0,127.0,128.0,128.0,127.0,153.0,126.0,127.0,18.0,-103.0,-82.0,127.0,127.0,127.0,109.0,82.0,-5.0
126.0,127.0,128.0,128.0,126.0,153.0,126.0,127.0,18.0,-103.0,-82.0,127.0,127.0,127.0,109.0,82.0,-5.0
126.0,127.0,128.0,128.0,127.0,153.0,126.0,127.0,18.0,-103.0,-82.0,127.0,127.0,127.0,109.0,82.0,-5.0
126.0,127.0,128.0,128.0,126.0,153.0,126.0,127.0,18.0,-103.0,-82.0,127.0,127.0,127.0,109.0,82.0,-5.0
126.0,127.0,128.0,128.0,126.0,153.0,126.0,127.0,18.0,-103.0,-82.0,127.0,127.0,127.0,109.0,82.0,-5.0
126.0,127.0,128.0,128.0,126.0,153.0,126.0,127.0,18.0,-103.0,-82.0,127.0,127.0,127.0,109.0,82.0,-5.0
126.0,127.0,128.0,128.0,126.0,153.0,126.0,127.0,18.0,-103.0,-82.0,127.0,127.0,127.0,109.0,82.0,-5.0
128.0,127.0,127.0,128.0,126.0,154.0,126.0,128.0,18.0,-103.0,-82.0,127.0,127.0,127.0,109.0,82.0,-5.0
127.0,127.0,127.0,128.0,126.0,154.0,126.0,127.0,18.0,-103.0,-82.0,127.0,127.0,127.0,109.0,82.0,-5.0
127.0,127.0,127.0,128.0,126.0,155.0,125.0,127.0,18.0,-103.0,-82.0,127.0,127.0,127.0,109.0,82.0,-5.0
127.0,127.0,127.0,128.0,126.0,156.0,125.0,127.0,18.0,-103.0,-82.0,127.0,127.0,127.0,109.0,82.0,-5.0
127.0,127.0,127.0,128.0,126.0,156.0,126.0,127.0,18.0,-103.0,-82.0,127.0,127.0,127.0,109.0,82.0,-5.0
127.0,127.0,127.0,128.0,126.0,155.0,126.0,127.0,18.0,-103.0,-82.0,127.0,127.0,127.0,109.0,82.0,-5.0
127.0,127.0,127.0,128.0,126.0,155.0,126.0,128.0,18.0,-103.0,-82.0,127.0,127.0,127.0,109.0,82.0,-5.0
127.0,127.0,127.0,128.0,127.0,155.0,126.0,127.0,18.0,-103.0,-82.0,127.0,127.0,127.0,109.0,82.0,-5.0
127.0,127.0,127.0,128.0,127.0,155.0,126.0,128.0,18.0,-103.0,-82.0,127.0,127.0,127.0,109.0,82.0,-5.0
127.0,127.0,127.0,128.0,127.0,154.0,126.0,128.0,18.0,-103.0,-82.0,127.0,127.0,127.0,109.0,82.0,-5.0
128.0,127.0,127.0,128.0,126.0,151.0,126.0,127.0,19.0,-103.0,-82.0,127.0,127.0,127.0,109.0,82.0,-5.0
128.0,127.0,126.0,128.0,127.0,151.0,126.0,127.0,19.0,-103.0,-82.0,127.0,127.0,127.0,109.0,82.0,-5.0
128.0,128.0,126.0,128.0,127.0,152.0,126.0,127.0,19.0,-103.0,-82.0,127.0,127.0,127.0,109.0,82.0,-5.0
127.0,128.0,126.0,128.0,127.0,152.0,126.0,128.0,19.0,-103.0,-82.0,127.0,127.0,127.0,109.0,82.0,-5.0
128.0,127.0,126.0,128.0,127.0,152.0,126.0,128.0,19.0,-103.0,-82.0,127.0,127.0,127.0,109.0,82.0,-5.0
128.0,127.0,126.0,128.0,127.0,152.0,126.0,127.0,19.0,-103.0,-82.0,127.0,127.0,127.0,109.0,82.0,-5.0
128.0,127.0,126.0,128.0,127.0,152.0,126.0,128.0,19.0,-103.0,-82.0,127.0,127.0,127.0,109.0,82.0,-5.0
128.0,127.0,126.0,128.0,127.0,152.0,126.0,127.0,19.0,-103.0,-82.0,127.0,127.0,127.0,109.0,82.0,-5.0
128.0,127.0,126.0,128.0,127.0,151.0,126.0,127.0,19.0,-103.0,-82.0,127.0,127.0,127.0,109.0,82.0,-5.0
128.0,127.0,126.0,128.0,127.0,151.0,126.0,127.0,19.0,-103.0,-82.0,127.0,127.0,127.0,109.0,82.0,-5.0
127.0,126.0,126.0,128.0,127.0,148.0,127.0,127.0,19.0,-103.0,-82.0,127.0,127.0,127.0,109.0,82.0,-5.0
127.0,126.0,126.0,128.0,126.0,148.0,127.0,127.0,19.0,-103.0,-82.0,127.0,127.0,127.0,109.0,82.0,-5.0
127.0,127.0,126.0,128.0,126.0,149.0,127.0,127.0,19.0,-103.0,-82.0,127.0,127.0,127.0,109.0,82.0,-5.0
127.0,127.0,126.0,128.0,126.0,149.0,127.0,127.0,19.0,-103.0,-82.0,127.0,127.0,127.0,109.0,82.0,-5.0
127.0,127.0,126.0,127.0,126.0,150.0,127.0,127.0,19.0,-103.0,-82.0,127.0,127.0,127.0,109.0,82.0,-5.0
127.0,127.0,126.0,127.0,126.0,150.0,127.0,127.0,19.0,-103.0,-82.0,127.0,127.0,127.0,109.0,82.0,-5.0
127.0,127.0,126.0,127.0,126.0,150.0,127.0,127.0,19.0,-103.0,-82.0,127.0,127.0,127.0,109.0,82.0,-5.0
127.0,127.0,126.0,127.0,126.0,150.0,127.0,127.0,19.0,-103.0,-82.0,127.0,127.0,127.0,109.0,82.0,-5.0
127.0,127.0,126.0,127.0,126.0,150.0,127.0,127.0,19.0,-103.0,-82.0,127.0,127.0,127.0,109.0,82.0,-5.0
127.0,127.0,126.0,128.0,127.0,149.0,127.0,127.0,19.0,-103.0,-82.0,127.0,127.0,127.0,109.0,82.0,-5.0
127.0,127.0,126.0,128.0,126.0,150.0,127.0,127.0,19.0,-103.0,-82.0,127.0,127.0,127.0,109.0,82.0,-5.0
127.0,127.0,126.0,128.0,126.0,151.0,127.0,127.0,19.0,-103.0,-82.0,127.0,127.0,127.0,109.0,82.0,-5.0
127.0,127.0,126.0,128.0,126.0,150.0,127.0,127.0,19.0,-103.0,-82.0,127.0,127.0,127.0,109.0,82.0,-5.0
127.0,127.0,126.0,128.0,126.0,150.0,127.0,127.0,19.0,-103.0,-82.0,127.0,127.0,127.0,109.0,82.0,-5.0
127.0,127.0,126.0,128.0,126.0,150.0,127.0,127.0,19.0,-103.0,-82.0,127.0,127.0,127.0,109.0,82.0,-5.0
127.0,127.0,126.0,128.0,126.0,150.0,127.0,127.0,19.0,-103.0,-82.0,127.0,127.0,127.0,109.0,82.0,-5.0
127.0,127.0,126.0,128.0,126.0,150.0,127.0,127.0,19.0,-103.0,-82.0,127.0,127.0,127.0,109.0,82.0,-5.0
127.0,127.0,126.0,128.0,126.0,149.0,127.0,127.0,19.0,-103.0,-82.0,127.0,127.0,127.0,109.0,82.0,-5.0
127.0,127.0,126.0,128.0,126.0,151.0,127.0,127.0,19.0,-103.0,-82.0,127.0,127.0,127.0,109.0,82.0,-5.0
127.0,127.0,126.0,128.0,126.0,151.0,127.0,127.0,19.0,-103.0,-82.0,127.0,127.0,127.0,109.0,82.0,-5.0
127.0,127.0,126.0,127.0,126.0,149.0,126.0,127.0,19.0,-103.0,-82.0,127.0,127.0,127.0,109.0,82.0,-5.0
127.0,127.0,126.0,127.0,126.0,149.0,127.0,128.0,19.0,-103.0,-82.0,127.0,127.0,127.0,109.0,82.0,-5.0
127.0,127.0,126.0,127.0,126.0,149.0,127.0,128.0,19.0,-103.0,-82.0,127.0,127.0,127.0,109.0,82.0,-5.0
127.0,127.0,126.0,127.0,126.0,149.0,127.0,128.0,19.0,-103.0,-82.0,127.0,127.0,127.0,109.0,82.0,-5.0
127.0,127.0,126.0,127.0,126.0,149.0,127.0,128.0,19.0,-103.0,-82.0,127.0,127.0,127.0,109.0,82.0,-5.0
127.0,127.0,127.0,127.0,126.0,148.0,127.0,128.0,19.0,-103.0,-82.0,127.0,127.0,127.0,109.0,82.0,-5.0
127.0,127.0,127.0,127.0,126.0,148.0,127.0,128.0,19.0,-103.0,-82.0,127.0,127.0,127.0,109.0,82.0,-5.0
127.0,127.0,126.0,127.0,126.0,150.0,126.0,127.0,19.0,-103.0,-82.0,127.0,127.0,127.0,109.0,82.0,-5.0
127.0,127.0,126.0,127.0,126.0,149.0,127.0,128.0,19.0,-103.0,-82.0,127.0,127.0,127.0,109.0,82.0,-5.0
127.0,127.0,126.0,127.0,126.0,149.0,127.0,128.0,19.0,-103.0,-82.0,127.0,127.0,127.0,109.0,82.0,-5.0
127.0,127.0,126.0,128.0,127.0,148.0,127.0,128.0,19.0,-103.0,-82.0,127.0,127.0,127.0,109.0,82.0,-5.0
127.0,127.0,126.0,128.0,127.0,148.0,127.0,128.0,19.0,-103.0,-82.0,127.0,127.0,127.0,109.0,82.0,-5.0
127.0,127.0,126.0,128.0,127.0,147.0,127.0,128.0,19.0,-103.0,-82.0,127.0,127.0,127.0,109.0,82.0,-5.0
127.0,127.0,126.0,128.0,127.0,147.0,127.0,128.0,19.0,-103.0,-82.0,127.0,127.0,127.0,109.0,82.0,-5.0
127.0,127.0,126.0,128.0,127.0,147.0,127.0,128.0,19.0,-103.0,-82.0,127.0,127.0,127.0,109.0,82.0,-5.0
127.0,127.0,126.0,128.0,127.0,147.0,127.0,128.0,19.0,-103.0,-82.0,127.0,127.0,127.0,109.0,82.0,-5.0
127.0,127.0,126.0,128.0,127.0,148.0,127.0,128.0,19.0,-103.0,-82.0,127.0,127.0,127.0,109.0,82.0,-5.0
127.0,127.0,126.0,128.0,127.0,148.0,127.0,128.0,19.0,-103.0,-82.0,127.0,127.0,127.0,109.0,82.0,-5.0
127.0,127.0,126.0,128.0,127.0,148.0,127.0,128.0,19.0,-103.0,-82.0,127.0,127.0,127.0,109.0,82.0,-5.0
127.0,127.0,126.0,128.0,127.0,148.0,127.0,128.0,19.0,-103.0,-82.0,127.0,127.0,127.0,109.0,82.0,-5.0
127.0,127.0,126.0,127.0,126.0,147.0,127.0,128.0,19.0,-103.0,-82.0,127.0,127.0,127.0,109.0,82.0,-5.0
127.0,127.0,126.0,127.0,126.0,147.0,127.0,128.0,19.0,-103.0,-82.0,127.0,127.0,127.0,109.0,82.0,-5.0
127.0,127.0,126.0,127.0,126.0,146.0,127.0,128.0,19.0,-103.0,-82.0,127.0,127.0,127.0,109.0,82.0,-5.0
127.0,127.0,126.0,127.0,126.0,146.0,127.0,128.0,19.0,-103.0,-82.0,127.0,127.0,127.0,109.0,82.0,-5.0
127.0,127.0,126.0,127.0,126.0,146.0,127.0,128.0,19.0,-103.0,-82.0,127.0,127.0,127.0,109.0,82.0,-5.0
127.0,127.0,126.0,127.0,127.0,147.0,127.0,128.0,19.0,-103.0,-82.0,127.0,127.0,127.0,109.0,82.0,-5.0
127.0,127.0,126.0,127.0,127.0,147.0,127.0,128.0,19.0,-103.0,-82.0,127.0,127.0,127.0,109.0,82.0,-5.0
127.0,127.0,126.0,127.0,127.0,147.0,127.0,128.0,19.0,-103.0,-82.0,127.0,127.0,127.0,109.0,82.0,-5.0
127.0,127.0,126.0,127.0,126.0,147.0,127.0,128.0,19.0,-103.0,-82.0,127.0,127.0,127.0,109.0,82.0,-5.0
127.0,127.0,126.0,127.0,126.0,147.0,127.0,128.0,19.0,-103.0,-82.0,127.0,127.0,127.0,109.0,82.0,-5.0
127.0,127.0,126.0,127.0,126.0,145.0,127.0,128.0,19.0,-103.0,-82.0,127.0,127.0,127.0,109.0,82.0,-5.0
127.0,127.0,126.0,127.0,126.0,145.0,127.0,128.0,19.0,-103.0,-82.0,127.0,127.0,127.0,109.0,82.0,-5.0
127.0,127.0,126.0,127.0,126.0,145.0,127.0,128.0,19.0,-103.0,-82.0,127.0,127.0,127.0,109.0,82.0,-5.0
127.0,127.0,126.0,127.0,126.0,144.0,127.0,128.0,19.0,-103.0,-82.0,127.0,127.0,127.0,109.0,82.0,-5.0
127.0,127.0,126.0,127.0,127.0,144.0,127.0,127.0,19.0,-103.0,-82.0,127.0,127.0,127.0,109.0,82.0,-5.0
127.0,127.0,126.0,127.0,126.0,144.0,127.0,128.0,19.0,-103.0,-82.0,127.0,127.0,127.0,109.0,82.0,-5.0
127.0,127.0,126.0,127.0,126.0,145.0,126.0,128.0,19.0,-103.0,-82.0,127.0,127.0,127.0,109.0,82.0,-5.0
127.0,127.0,126.0,127.0,127.0,145.0,126.0,128.0,19.0,-103.0,-82.0,127.0,127.0,127.0,109.0,82.0,-5.0
127.0,127.0,126.0,127.0,126.0,145.0,127.0,128.0,19.0,-103.0,-82.0,127.0,127.0,127.0,109.0,82.0,-5.0
127.0,127.0,126.0,127.0,126.0,145.0,127.0,128.0,19.0,-103.0,-82.0,127.0,127.0,127.0,109.0,82.0,-5.0
127.0,127.0,126.0,127.0,127.0,144.0,127.0,128.0,19.0,-103.0,-83.0,127.0,127.0,127.0,109.0,82.0,-5.0
127.0,127.0,126.0,127.0,127.0,144.0,127.0,128.0,19.0,-103.0,-83.0,127.0,127.0,127.0,109.0,82.0,-5.0
127.0,127.0,126.0,127.0,126.0,145.0,127.0,127.0,19.0,-103.0,-83.0,127.0,127.0,127.0,109.0,82.0,-5.0
127.0,127.0,126.0,127.0,127.0,145.0,127.0,128.0,19.0,-103.0,-83.0,127.0,127.0,127.0,109.0,82.0,-5.0
127.0,127.0,126.0,127.0,127.0,145.0,127.0,128.0,19.0,-103.0,-83.0,127.0,127.0,127.0,109.0,82.0,-5.0
127.0,127.0,126.0,127.0,127.0,145.0,127.0,128.0,19.0,-103.0,-83.0,127.0,127.0,127.0,109.0,82.0,-5.0
127.0,127.0,126.0,127.0,127.0,144.0,127.0,128.0,19.0,-103.0,-83.0,127.0,127.0,127.0,109.0,82.0,-5.0
127.0,127.0,126.0,127.0,126.0,144.0,127.0,128.0,19.0,-103.0,-83.0,127.0,127.0,127.0,109.0,82.0,-5.0
127.0,127.0,126.0,127.0,126.0,144.0,127.0,128.0,19.0,-103.0,-83.0,127.0,127.0,127.0,109.0,82.0,-5.0
127.0,127.0,126.0,127.0,126.0,144.0,127.0,128.0,19.0,-103.0,-83.0,127.0,127.0,127.0,109.0,82.0,-5.0
127.0,126.0,126.0,127.0,126.0,144.0,127.0,128.0,19.0,-103.0,-83.0,127.0,127.0,127.0,109.0,82.0,-5.0
127.0,129.0,125.0,127.0,126.0,142.0,127.0,128.0,19.0,-103.0,-83.0,127.0,127.0,127.0,109.0,82.0,-5.0
127.0,129.0,126.0,127.0,126.0,142.0,127.0,128.0,19.0,-103.0,-83.0,127.0,127.0,127.0,109.0,82.0,-5.0
127.0,128.0,126.0,127.0,126.0,142.0,127.0,127.0,19.0,-103.0,-83.0,127.0,127.0,127.0,109.0,82.0,-5.0
127.0,128.0,126.0,127.0,126.0,142.0,126.0,127.0,19.0,-103.0,-83.0,127.0,127.0,127.0,109.0,82.0,-5.0
127.0,128.0,125.0,127.0,126.0,143.0,126.0,127.0,19.0,-103.0,-83.0,127.0,127.0,127.0,109.0,82.0,-5.0
127.0,127.0,126.0,127.0,126.0,144.0,126.0,127.0,19.0,-103.0,-83.0,127.0,127.0,127.0,109.0,82.0,-5.0
127.0,127.0,126.0,127.0,126.0,144.0,127.0,127.0,19.0,-103.0,-83.0,127.0,127.0,127.0,109.0,82.0,-5.0
127.0,126.0,126.0,127.0,126.0,143.0,126.0,128.0,19.0,-103.0,-83.0,127.0,127.0,127.0,109.0,82.0,-5.0
126.0,126.0,126.0,127.0,126.0,144.0,126.0,127.0,19.0,-103.0,-83.0,127.0,127.0,127.0,109.0,82.0,-5.0
126.0,126.0,126.0,127.0,126.0,141.0,127.0,128.0,19.0,-103.0,-83.0,127.0,127.0,127.0,109.0,82.0,-5.0
126.0,126.0,126.0,127.0,126.0,141.0,127.0,128.0,19.0,-103.0,-83.0,127.0,127.0,127.0,109.0,82.0,-5.0
127.0,126.0,126.0,127.0,126.0,141.0,127.0,128.0,19.0,-103.0,-83.0,127.0,127.0,127.0,109.0,82.0,-5.0
126.0,126.0,126.0,127.0,126.0,141.0,127.0,128.0,19.0,-103.0,-83.0,127.0,127.0,127.0,109.0,82.0,-5.0
127.0,126.0,126.0,127.0,127.0,141.0,127.0,128.0,19.0,-103.0,-83.0,127.0,127.0,127.0,109.0,82.0,-5.0
126.0,126.0,126.0,127.0,127.0,141.0,127.0,128.0,19.0,-103.0,-83.0,127.0,127.0,127.0,109.0,82.0,-5.0
126.0,126.0,126.0,127.0,126.0,142.0,127.0,128.0,19.0,-103.0,-83.0,127.0,127.0,127.0,109.0,82.0,-5.0
126.0,127.0,126.0,127.0,127.0,143.0,127.0,128.0,19.0,-103.0,-83.0,127.0,127.0,127.0,109.0,82.0,-5.0
126.0,127.0,126.0,127.0,127.0,143.0,127.0,128.0,19.0,-103.0,-83.0,127.0,127.0,127.0,109.0,82.0,-5.0
126.0,127.0,126.0,127.0,127.0,143.0,127.0,128.0,19.0,-103.0,-83.0,127.0,127.0,127.0,109.0,82.0,-5.0
127.0,128.0,125.0,127.0,127.0,143.0,126.0,127.0,19.0,-103.0,-83.0,127.0,127.0,127.0,109.0,82.0,-5.0
127.0,128.0,125.0,127.0,127.0,143.0,126.0,127.0,19.0,-103.0,-83.0,127.0,127.0,127.0,109.0,82.0,-5.0
127.0,127.0,125.0,127.0,127.0,143.0,126.0,127.0,19.0,-103.0,-83.0,127.0,127.0,127.0,109.0,82.0,-5.0
126.0,127.0,125.0,127.0,127.0,143.0,126.0,127.0,19.0,-103.0,-83.0,127.0,127.0,127.0,109.0,82.0,-5.0
126.0,126.0,125.0,127.0,127.0,143.0,126.0,127.0,19.0,-103.0,-83.0,127.0,127.0,127.0,109.0,82.0,-5.0
126.0,126.0,125.0,127.0,127.0,143.0,126.0,127.0,19.0,-103.0,-83.0,127.0,127.0,127.0,109.0,82.0,-5.0
126.0,126.0,125.0,127.0,127.0,142.0,126.0,127.0,19.0,-103.0,-83.0,127.0,127.0,127.0,109.0,82.0,-5.0
126.0,125.0,125.0,127.0,127.0,142.0,127.0,127.0,19.0,-103.0,-83.0,127.0,127.0,127.0,109.0,82.0,-5.0
126.0,125.0,125.0,127.0,127.0,142.0,127.0,127.0,19.0,-103.0,-83.0,127.0,127.0,127.0,109.0,82.0,-5.0
127.0,128.0,125.0,127.0,126.0,142.0,126.0,127.0,19.0,-103.0,-83.0,127.0,127.0,127.0,109.0,82.0,-5.0
127.0,126.0,124.0,127.0,127.0,142.0,126.0,128.0,19.0,-103.0,-83.0,127.0,127.0,127.0,109.0,82.0,-5.0
127.0,126.0,124.0,127.0,127.0,142.0,126.0,128.0,19.0,-103.0,-83.0,127.0,127.0,127.0,109.0,82.0,-5.0
127.0,126.0,124.0,127.0,127.0,142.0,126.0,128.0,19.0,-103.0,-83.0,127.0,127.0,127.0,109.0,82.0,-5.0
127.0,126.0,124.0,127.0,127.0,142.0,126.0,128.0,19.0,-103.0,-83.0,127.0,127.0,127.0,109.0,82.0,-5.0
127.0,126.0,124.0,127.0,126.0,142.0,126.0,128.0,19.0,-103.0,-83.0,127.0,127.0,127.0,109.0,82.0,-5.0
127.0,126.0,125.0,127.0,126.0,142.0,126.0,128.0,19.0,-103.0,-83.0,127.0,127.0,127.0,109.0,82.0,-5.0
127.0,126.0,125.0,127.0,126.0,142.0,126.0,128.0,19.0,-103.0,-83.0,127.0,127.0,127.0,109.0,82.0,-5.0
127.0,126.0,125.0,127.0,126.0,141.0,127.0,128.0,19.0,-103.0,-83.0,127.0,127.0,127.0,109.0,82.0,-5.0
126.0,126.0,125.0,127.0,126.0,141.0,126.0,127.0,19.0,-103.0,-83.0,127.0,127.0,127.0,109.0,82.0,-5.0
127.0,126.0,124.0,127.0,127.0,142.0,126.0,127.0,19.0,-103.0,-83.0,127.0,127.0,127.0,109.0,82.0,-5.0
126.0,127.0,124.0,127.0,127.0,142.0,126.0,127.0,18.0,-103.0,-84.0,127.0,127.0,127.0,109.0,82.0,-5.0
126.0,127.0,124.0,127.0,127.0,142.0,126.0,128.0,18.0,-103.0,-84.0,127.0,127.0,127.0,109.0,82.0,-5.0
126.0,126.0,124.0,127.0,127.0,142.0,126.0,128.0,18.0,-103.0,-84.0,127.0,127.0,127.0,109.0,82.0,-5.0
126.0,126.0,124.0,127.0,127.0,142.0,126.0,128.0,18.0,-103.0,-84.0,127.0,127.0,127.0,109.0,82.0,-5.0
126.0,126.0,124.0,127.0,126.0,142.0,126.0,128.0,18.0,-103.0,-84.0,127.0,127.0,127.0,109.0,82.0,-5.0
126.0,126.0,124.0,127.0,126.0,142.0,126.0,127.0,18.0,-103.0,-84.0,127.0,127.0,127.0,109.0,82.0,-5.0
126.0,126.0,124.0,127.0,126.0,142.0,126.0,128.0,18.0,-103.0,-84.0,127.0,127.0,127.0,109.0,82.0,-5.0
126.0,126.0,124.0,127.0,127.0,141.0,126.0,128.0,18.0,-103.0,-84.0,127.0,127.0,127.0,109.0,82.0,-5.0
126.0,127.0,124.0,127.0,127.0,142.0,126.0,127.0,18.0,-103.0,-84.0,127.0,127.0,127.0,109.0,82.0,-5.0
126.0,127.0,124.0,127.0,127.0,142.0,126.0,127.0,18.0,-103.0,-84.0,127.0,127.0,127.0,109.0,82.0,-5.0
127.0,127.0,125.0,127.0,127.0,142.0,127.0,127.0,17.0,-103.0,-84.0,127.0,127.0,127.0,109.0,82.0,-5.0
127.0,126.0,125.0,127.0,127.0,142.0,127.0,128.0,17.0,-103.0,-84.0,127.0,127.0,127.0,109.0,82.0,-5.0
127.0,126.0,125.0,127.0,127.0,142.0,127.0,128.0,17.0,-103.0,-84.0,127.0,127.0,127.0,109.0,82.0,-5.0
127.0,126.0,125.0,127.0,127.0,142.0,127.0,127.0,17.0,-103.0,-84.0,127.0,127.0,127.0,109.0,82.0,-5.0
127.0,126.0,125.0,127.0,127.0,142.0,127.0,127.0,17.0,-103.0,-84.0,127.0,127.0,127.0,109.0,82.0,-5.0
127.0,126.0,125.0,127.0,127.0,142.0,127.0,128.0,17.0,-103.0,-84.0,127.0,127.0,127.0,109.0,82.0,-5.0
127.0,126.0,125.0,127.0,127.0,141.0,127.0,127.0,17.0,-103.0,-84.0,127.0,127.0,127.0,109.0,82.0,-5.0
127.0,127.0,124.0,127.0,127.0,142.0,126.0,127.0,17.0,-103.0,-84.0,127.0,127.0,127.0,109.0,82.0,-5.0
127.0,127.0,125.0,127.0,127.0,142.0,126.0,128.0,17.0,-103.0,-84.0,127.0,127.0,127.0,109.0,82.0,-5.0
127.0,127.0,125.0,127.0,127.0,142.0,127.0,127.0,17.0,-103.0,-84.0,127.0,127.0,127.0,109.0,82.0,-5.0
126.0,126.0,124.0,127.0,127.0,142.0,127.0,128.0,17.0,-103.0,-85.0,127.0,127.0,127.0,109.0,82.0,-5.0
126.0,126.0,124.0,127.0,127.0,143.0,127.0,128.0,17.0,-103.0,-85.0,127.0,127.0,127.0,109.0,82.0,-5.0
126.0,126.0,123.0,127.0,127.0,142.0,127.0,128.0,17.0,-103.0,-85.0,127.0,127.0,127.0,109.0,82.0,-5.0
126.0,126.0,123.0,127.0,127.0,142.0,127.0,128.0,17.0,-103.0,-85.0,127.0,127.0,127.0,109.0,82.0,-5.0
126.0,126.0,123.0,127.0,127.0,142.0,127.0,128.0,17.0,-103.0,-85.0,127.0,127.0,127.0,109.0,82.0,-5.0
126.0,125.0,124.0,127.0,126.0,141.0,127.0,127.0,17.0,-103.0,-85.0,127.0,127.0,127.0,109.0,82.0,-5.0
126.0,126.0,124.0,127.0,126.0,142.0,126.0,127.0,17.0,-103.0,-85.0,127.0,127.0,127.0,109.0,82.0,-5.0
126.0,126.0,124.0,127.0,127.0,142.0,126.0,127.0,17.0,-103.0,-85.0,127.0,127.0,127.0,109.0,82.0,-5.0
126.0,126.0,124.0,127.0,127.0,142.0,126.0,128.0,17.0,-103.0,-85.0,127.0,127.0,127.0,109.0,82.0,-5.0
126.0,126.0,124.0,127.0,127.0,142.0,126.0,128.0,17.0,-103.0,-85.0,127.0,127.0,127.0,109.0,82.0,-5.0
126.0,126.0,128.0,127.0,127.0,142.0,127.0,128.0,16.0,-103.0,-85.0,127.0,127.0,127.0,109.0,82.0,-5.0
126.0,126.0,128.0,127.0,127.0,142.0,127.0,128.0,16.0,-103.0,-85.0,127.0,127.0,127.0,109.0,82.0,-5.0
126.0,126.0,128.0,127.0,127.0,142.0,127.0,128.0,16.0,-103.0,-85.0,127.0,127.0,127.0,109.0,82.0,-5.0
126.0,126.0,128.0,127.0,126.0,141.0,127.0,128.0,16.0,-103.0,-85.0,127.0,127.0,127.0,109.0,82.0,-5.0
126.0,126.0,127.0,127.0,127.0,140.0,127.0,128.0,16.0,-103.0,-85.0,127.0,127.0,127.0,109.0,82.0,-5.0
126.0,126.0,127.0,127.0,127.0,141.0,127.0,127.0,16.0,-103.0,-85.0,127.0,127.0,127.0,109.0,82.0,-5.0
126.0,126.0,127.0,127.0,127.0,142.0,127.0,127.0,16.0,-103.0,-85.0,127.0,127.0,127.0,109.0,82.0,-5.0
127.0,126.0,127.0,127.0,127.0,142.0,127.0,128.0,16.0,-103.0,-85.0,127.0,127.0,127.0,109.0,82.0,-5.0
126.0,126.0,128.0,127.0,126.0,142.0,127.0,128.0,16.0,-103.0,-85.0,127.0,127.0,127.0,109.0,82.0,-5.0
127.0,126.0,128.0,127.0,126.0,142.0,127.0,128.0,16.0,-103.0,-85.0,127.0,127.0,127.0,109.0,82.0,-5.0
126.0,126.0,131.0,127.0,126.0,143.0,127.0,128.0,16.0,-103.0,-85.0,127.0,127.0,127.0,109.0,82.0,-5.0
127.0,126.0,131.0,127.0,126.0,143.0,127.0,128.0,16.0,-103.0,-85.0,127.0,127.0,127.0,109.0,82.0,-5.0
126.0,126.0,131.0,127.0,126.0,143.0,127.0,128.0,16.0,-103.0,-85.0,127.0,127.0,127.0,109.0,82.0,-5.0
127.0,125.0,131.0,127.0,126.0,142.0,127.0,127.0,16.0,-103.0,-85.0,127.0,127.0,127.0,109.0,82.0,-5.0
126.0,126.0,131.0,127.0,126.0,143.0,126.0,127.0,16.0,-103.0,-85.0,127.0,127.0,127.0,109.0,82.0,-5.0
126.0,126.0,131.0,127.0,126.0,143.0,126.0,127.0,16.0,-103.0,-85.0,127.0,127.0,127.0,109.0,82.0,-5.0
127.0,126.0,131.0,127.0,127.0,144.0,126.0,127.0,16.0,-103.0,-85.0,127.0,127.0,127.0,109.0,82.0,-5.0
127.0,126.0,131.0,127.0,126.0,143.0,126.0,127.0,16.0,-103.0,-85.0,127.0,127.0,127.0,109.0,82.0,-5.0
126.0,126.0,131.0,127.0,126.0,143.0,126.0,127.0,16.0,-103.0,-85.0,127.0,127.0,127.0,109.0,82.0,-5.0
126.0,126.0,131.0,127.0,126.0,143.0,127.0,128.0,16.0,-103.0,-85.0,127.0,127.0,127.0,109.0,82.0,-5.0
126.0,126.0,131.0,127.0,127.0,145.0,126.0,128.0,16.0,-103.0,-86.0,127.0,127.0,127.0,109.0,82.0,-5.0
126.0,126.0,131.0,127.0,126.0,145.0,126.0,128.0,16.0,-103.0,-86.0,127.0,127.0,127.0,109.0,82.0,-5.0
126.0,126.0,131.0,127.0,127.0,143.0,126.0,128.0,16.0,-103.0,-86.0,127.0,127.0,127.0,109.0,82.0,-5.0
126.0,126.0,131.0,127.0,127.0,144.0,126.0,128.0,16.0,-103.0,-86.0,127.0,127.0,127.0,109.0,82.0,-5.0
126.0,126.0,131.0,127.0,127.0,145.0,126.0,128.0,16.0,-103.0,-86.0,127.0,127.0,127.0,109.0,82.0,-5.0
126.0,126.0,131.0,127.0,127.0,145.0,126.0,128.0,16.0,-103.0,-86.0,127.0,127.0,127.0,109.0,82.0,-5.0
126.0,126.0,131.0,127.0,127.0,145.0,126.0,128.0,16.0,-103.0,-86.0,127.0,127.0,127.0,109.0,82.0,-5.0
126.0,126.0,131.0,127.0,127.0,145.0,126.0,128.0,16.0,-103.0,-86.0,127.0,127.0,127.0,109.0,82.0,-5.0
126.0,126.0,131.0,127.0,127.0,145.0,126.0,128.0,16.0,-103.0,-86.0,127.0,127.0,127.0,109.0,82.0,-5.0
126.0,126.0,131.0,127.0,126.0,145.0,126.0,128.0,16.0,-103.0,-86.0,127.0,127.0,127.0,109.0,82.0,-5.0
127.0,126.0,131.0,127.0,127.0,144.0,127.0,128.0,16.0,-102.0,-86.0,127.0,127.0,127.0,109.0,82.0,-5.0
126.0,126.0,131.0,127.0,126.0,143.0,127.0,128.0,16.0,-102.0,-86.0,127.0,127.0,127.0,109.0,82.0,-5.0
126.0,126.0,131.0,127.0,126.0,143.0,126.0,128.0,16.0,-102.0,-86.0,127.0,127.0,127.0,109.0,82.0,-5.0
126.0,126.0,131.0,127.0,126.0,144.0,126.0,128.0,16.0,-102.0,-86.0,127.0,127.0,127.0,109.0,82.0,-5.0
126.0,126.0,131.0,127.0,126.0,145.0,126.0,128.0,16.0,-102.0,-86.0,127.0,127.0,127.0,109.0,82.0,-5.0
127.0,126.0,131.0,127.0,126.0,145.0,126.0,128.0,16.0,-102.0,-86.0,127.0,127.0,127.0,109.0,82.0,-5.0
127.0,126.0,131.0,127.0,127.0,144.0,126.0,128.0,16.0,-102.0,-86.0,127.0,127.0,127.0,109.0,82.0,-5.0
127.0,126.0,131.0,127.0,127.0,145.0,126.0,128.0,16.0,-102.0,-86.0,127.0,127.0,127.0,109.0,82.0,-5.0
127.0,126.0,131.0,127.0,127.0,144.0,127.0,128.0,16.0,-102.0,-86.0,127.0,127.0,127.0,109.0,82.0,-5.0
127.0,126.0,131.0,127.0,127.0,144.0,127.0,128.0,16.0,-102.0,-86.0,127.0,127.0,127.0,109.0,82.0,-5.0
126.0,126.0,131.0,127.0,127.0,142.0,127.0,127.0,15.0,-102.0,-86.0,127.0,127.0,127.0,109.0,82.0,-5.0
126.0,126.0,131.0,127.0,127.0,142.0,126.0,127.0,15.0,-102.0,-86.0,127.0,127.0,127.0,109.0,82.0,-5.0
126.0,126.0,131.0,127.0,127.0,143.0,126.0,127.0,15.0,-102.0,-86.0,127.0,127.0,127.0,109.0,82.0,-5.0
127.0,126.0,131.0,127.0,127.0,144.0,126.0,127.0,15.0,-102.0,-86.0,127.0,127.0,127.0,109.0,82.0,-5.0
127.0,126.0,131.0,127.0,127.0,144.0,126.0,128.0,15.0,-102.0,-86.0,127.0,127.0,127.0,109.0,82.0,-5.0
127.0,126.0,131.0,127.0,127.0,143.0,126.0,127.0,15.0,-102.0,-86.0,127.0,127.0,127.0,109.0,82.0,-5.0
127.0,126.0,131.0,127.0,127.0,143.0,126.0,127.0,15.0,-102.0,-86.0,127.0,127.0,127.0,109.0,82.0,-5.0
127.0,126.0,131.0,127.0,127.0,144.0,126.0,127.0,15.0,-102.0,-86.0,127.0,127.0,127.0,109.0,82.0,-5.0
127.0,126.0,131.0,127.0,127.0,143.0,127.0,128.0,15.0,-102.0,-86.0,127.0,127.0,127.0,109.0,82.0,-5.0
127.0,126.0,131.0,127.0,127.0,143.0,127.0,128.0,15.0,-102.0,-86.0,127.0,127.0,127.0,109.0,82.0,-5.0
127.0,127.0,131.0,127.0,127.0,144.0,126.0,127.0,15.0,-102.0,-86.0,127.0,127.0,127.0,109.0,82.0,-5.0
127.0,127.0,131.0,127.0,127.0,145.0,126.0,127.0,15.0,-102.0,-86.0,127.0,127.0,127.0,109.0,82.0,-5.0
126.0,127.0,131.0,127.0,127.0,145.0,126.0,127.0,15.0,-102.0,-86.0,127.0,127.0,127.0,109.0,82.0,-5.0
126.0,127.0,131.0,127.0,127.0,145.0,126.0,128.0,15.0,-102.0,-86.0,127.0,127.0,127.0,109.0,82.0,-5.0
126.0,127.0,131.0,127.0,127.0,145.0,126.0,128.0,15.0,-102.0,-86.0,127.0,127.0,127.0,109.0,82.0,-5.0
126.0,127.0,131.0,127.0,127.0,145.0,126.0,127.0,15.0,-102.0,-86.0,127.0,127.0,127.0,109.0,82.0,-5.0
126.0,127.0,131.0,127.0,127.0,145.0,126.0,128.0,15.0,-102.0,-86.0,127.0,127.0,127.0,109.0,82.0,-5.0
126.0,127.0,131.0,127.0,127.0,145.0,127.0,128.0,15.0,-102.0,-86.0,127.0,127.0,127.0,109.0,82.0,-5.0
126.0,127.0,131.0,127.0,126.0,145.0,126.0,128.0,15.0,-102.0,-86.0,127.0,127.0,127.0,109.0,82.0,-5.0
127.0,127.0,131.0,127.0,127.0,144.0,126.0,128.0,15.0,-102.0,-86.0,127.0,127.0,127.0,109.0,82.0,-5.0
126.0,127.0,129.0,127.0,127.0,146.0,126.0,128.0,15.0,-102.0,-86.0,127.0,127.0,127.0,109.0,82.0,-5.0
126.0,127.0,129.0,127.0,127.0,146.0,126.0,128.0,15.0,-102.0,-86.0,127.0,127.0,127.0,109.0,82.0,-5.0
126.0,126.0,129.0,127.0,127.0,146.0,126.0,128.0,15.0,-102.0,-86.0,127.0,127.0,127.0,109.0,82.0,-5.0
126.0,126.0,129.0,127.0,127.0,146.0,127.0,128.0,15.0,-102.0,-86.0,127.0,127.0,127.0,109.0,82.0,-5.0
126.0,126.0,129.0,127.0,127.0,146.0,127.0,128.0,15.0,-102.0,-86.0,127.0,127.0,127.0,109.0,82.0,-5.0
126.0,126.0,129.0,127.0,127.0,146.0,127.0,128.0,15.0,-102.0,-86.0,127.0,127.0,127.0,109.0,82.0,-5.0
126.0,126.0,129.0,127.0,127.0,146.0,127.0,128.0,15.0,-102.0,-86.0,127.0,127.0,127.0,109.0,82.0,-5.0
126.0,126.0,129.0,127.0,127.0,146.0,127.0,128.0,15.0,-102.0,-86.0,127.0,127.0,127.0,109.0,82.0,-5.0
126.0,126.0,129.0,127.0,127.0,144.0,127.0,128.0,15.0,-102.0,-86.0,127.0,127.0,127.0,109.0,82.0,-5.0
126.0,126.0,129.0,127.0,127.0,145.0,127.0,128.0,15.0,-102.0,-86.0,127.0,127.0,127.0,109.0,82.0,-5.0
126.0,127.0,128.0,127.0,127.0,147.0,127.0,128.0,15.0,-102.0,-87.0,127.0,127.0,127.0,109.0,82.0,-5.0
127.0,127.0,128.0,127.0,127.0,147.0,127.0,128.0,15.0,-102.0,-87.0,127.0,127.0,127.0,109.0,82.0,-5.0
127.0,127.0,128.0,127.0,127.0,147.0,127.0,128.0,15.0,-102.0,-87.0,127.0,127.0,127.0,109.0,82.0,-5.0
127.0,127.0,128.0,127.0,127.0,147.0,127.0,128.0,15.0,-102.0,-87.0,127.0,127.0,127.0,109.0,82.0,-5.0
127.0,127.0,128.0,127.0,127.0,147.0,127.0,128.0,15.0,-102.0,-87.0,127.0,127.0,127.0,109.0,82.0,-5.0
127.0,127.0,128.0,127.0,127.0,147.0,127.0,128.0,15.0,-102.0,-87.0,127.0,127.0,127.0,109.0,82.0,-5.0
127.0,127.0,128.0,127.0,127.0,146.0,127.0,128.0,15.0,-102.0,-87.0,127.0,127.0,127.0,109.0,82.0,-5.0
127.0,127.0,128.0,127.0,127.0,146.0,127.0,128.0,15.0,-102.0,-87.0,127.0,127.0,127.0,109.0,82.0,-5.0
126.0,127.0,128.0,127.0,127.0,146.0,127.0,128.0,15.0,-102.0,-87.0,127.0,127.0,127.0,109.0,82.0,-5.0
126.0,127.0,128.0,127.0,127.0,147.0,127.0,128.0,15.0,-102.0,-87.0,127.0,127.0,127.0,109.0,82.0,-5.0
127.0,127.0,127.0,127.0,127.0,148.0,126.0,128.0,15.0,-102.0,-87.0,127.0,127.0,127.0,109.0,82.0,-5.0
127.0,127.0,127.0,127.0,127.0,148.0,126.0,128.0,15.0,-102.0,-87.0,127.0,127.0,127.0,109.0,82.0,-5.0
127.0,127.0,127.0,127.0,127.0,148.0,126.0,128.0,15.0,-102.0,-87.0,127.0,127.0,127.0,109.0,82.0,-5.0
127.0,127.0,127.0,127.0,127.0,148.0,126.0,128.0,15.0,-102.0,-87.0,127.0,127.0,127.0,109.0,82.0,-5.0
127.0,127.0,127.0,127.0,127.0,148.0,126.0,128.0,15.0,-102.0,-87.0,127.0,127.0,127.0,109.0,82.0,-5.0
127.0,127.0,127.0,127.0,127.0,146.0,126.0,128.0,15.0,-102.0,-87.0,127.0,127.0,127.0,109.0,82.0,-5.0
127.0,127.0,127.0,127.0,127.0,146.0,126.0,128.0,15.0,-102.0,-87.0,127.0,127.0,127.0,109.0,82.0,-5.0
127.0,127.0,127.0,127.0,126.0,146.0,126.0,128.0,15.0,-102.0,-87.0,127.0,127.0,127.0,109.0,82.0,-5.0
127.0,127.0,127.0,127.0,127.0,148.0,126.0,127.0,15.0,-102.0,-87.0,127.0,127.0,127.0,109.0,82.0,-5.0
127.0,127.0,127.0,127.0,127.0,148.0,126.0,128.0,15.0,-102.0,-87.0,127.0,127.0,127.0,109.0,82.0,-5.0
127.0,126.0,126.0,126.0,127.0,148.0,127.0,128.0,15.0,-102.0,-87.0,127.0,127.0,127.0,109.0,82.0,-5.0
127.0,126.0,126.0,126.0,127.0,147.0,127.0,127.0,15.0,-102.0,-87.0,127.0,127.0,127.0,109.0,82.0,-5.0
127.0,126.0,126.0,126.0,127.0,148.0,127.0,128.0,15.0,-102.0,-87.0,127.0,127.0,127.0,109.0,82.0,-5.0
127.0,126.0,126.0,126.0,127.0,148.0,127.0,128.0,15.0,-102.0,-87.0,127.0,127.0,127.0,109.0,82.0,-5.0
127.0,129.0,126.0,127.0,127.0,146.0,127.0,128.0,15.0,-102.0,-87.0,127.0,127.0,127.0,109.0,82.0,-5.0
127.0,128.0,127.0,127.0,127.0,146.0,127.0,128.0,15.0,-102.0,-87.0,127.0,127.0,127.0,109.0,82.0,-5.0
127.0,128.0,127.0,127.0,127.0,146.0,127.0,127.0,15.0,-102.0,-87.0,127.0,127.0,127.0,109.0,82.0,-5.0
127.0,127.0,126.0,127.0,127.0,147.0,126.0,127.0,15.0,-102.0,-87.0,127.0,127.0,127.0,109.0,82.0,-5.0
127.0,127.0,126.0,127.0,127.0,148.0,127.0,127.0,15.0,-102.0,-87.0,127.0,127.0,127.0,109.0,82.0,-5.0
127.0,126.0,126.0,127.0,127.0,148.0,127.0,128.0,15.0,-102.0,-87.0,127.0,127.0,127.0,109.0,82.0,-5.0
127.0,127.0,125.0,126.0,127.0,148.0,127.0,127.0,15.0,-102.0,-87.0,127.0,127.0,127.0,109.0,82.0,-5.0
127.0,126.0,125.0,127.0,127.0,148.0,127.0,127.0,15.0,-102.0,-87.0,127.0,127.0,127.0,109.0,82.0,-5.0
127.0,126.0,125.0,127.0,127.0,148.0,127.0,127.0,15.0,-102.0,-87.0,127.0,127.0,127.0,109.0,82.0,-5.0
127.0,126.0,126.0,127.0,127.0,145.0,127.0,127.0,15.0,-102.0,-87.0,127.0,127.0,127.0,109.0,82.0,-5.0
127.0,126.0,126.0,127.0,127.0,146.0,127.0,127.0,15.0,-102.0,-87.0,127.0,127.0,127.0,109.0,82.0,-5.0
127.0,126.0,126.0,127.0,127.0,146.0,127.0,127.0,15.0,-102.0,-87.0,127.0,127.0,127.0,109.0,82.0,-5.0
127.0,126.0,126.0,126.0,127.0,146.0,127.0,127.0,15.0,-102.0,-87.0,127.0,127.0,127.0,109.0,82.0,-5.0
127.0,126.0,126.0,126.0,127.0,146.0,127.0,127.0,15.0,-102.0,-87.0,127.0,127.0,127.0,109.0,82.0,-5.0
127.0,126.0,126.0,126.0,127.0,146.0,127.0,127.0,15.0,-102.0,-87.0,127.0,127.0,127.0,109.0,82.0,-5.0
127.0,126.0,125.0,126.0,127.0,147.0,127.0,127.0,15.0,-102.0,-87.0,127.0,127.0,127.0,109.0,82.0,-5.0
127.0,126.0,126.0,127.0,127.0,149.0,127.0,128.0,15.0,-102.0,-87.0,127.0,127.0,127.0,109.0,82.0,-5.0
127.0,126.0,126.0,127.0,127.0,148.0,127.0,128.0,15.0,-102.0,-87.0,127.0,127.0,127.0,109.0,82.0,-5.0
127.0,127.0,126.0,127.0,127.0,148.0,127.0,127.0,15.0,-102.0,-87.0,127.0,127.0,127.0,109.0,82.0,-5.0
127.0,127.0,125.0,127.0,127.0,149.0,127.0,128.0,15.0,-102.0,-87.0,127.0,127.0,127.0,109.0,82.0,-5.0
127.0,127.0,126.0,127.0,127.0,149.0,127.0,128.0,15.0,-102.0,-87.0,127.0,127.0,127.0,109.0,82.0,-5.0
127.0,127.0,126.0,127.0,127.0,149.0,127.0,128.0,15.0,-102.0,-87.0,127.0,127.0,127.0,109.0,82.0,-5.0
127.0,127.0,126.0,127.0,127.0,149.0,127.0,128.0,15.0,-102.0,-87.0,127.0,127.0,127.0,109.0,82.0,-5.0
127.0,127.0,126.0,127.0,127.0,149.0,127.0,128.0,15.0,-102.0,-87.0,127.0,127.0,127.0,109.0,82.0,-5.0
127.0,127.0,126.0,127.0,127.0,149.0,127.0,128.0,15.0,-102.0,-87.0,127.0,127.0,127.0,109.0,82.0,-5.0
127.0,126.0,126.0,127.0,127.0,149.0,127.0,128.0,15.0,-102.0,-87.0,127.0,127.0,127.0,109.0,82.0,-5.0
127.0,126.0,126.0,127.0,127.0,149.0,127.0,128.0,15.0,-102.0,-87.0,127.0,127.0,127.0,109.0,82.0,-5.0
126.0,127.0,125.0,127.0,127.0,148.0,126.0,128.0,15.0,-102.0,-87.0,127.0,127.0,127.0,109.0,82.0,-5.0
126.0,127.0,125.0,127.0,127.0,149.0,126.0,128.0,15.0,-102.0,-87.0,127.0,127.0,127.0,109.0,82.0,-5.0
126.0,127.0,125.0,127.0,127.0,149.0,126.0,128.0,15.0,-102.0,-87.0,127.0,127.0,127.0,109.0,82.0,-5.0
127.0,127.0,126.0,127.0,127.0,149.0,127.0,128.0,15.0,-102.0,-87.0,127.0,127.0,127.0,109.0,82.0,-5.0
127.0,126.0,126.0,127.0,127.0,149.0,126.0,128.0,15.0,-102.0,-87.0,127.0,127.0,127.0,109.0,82.0,-5.0
127.0,126.0,125.0,127.0,127.0,149.0,126.0,128.0,15.0,-102.0,-87.0,127.0,127.0,127.0,109.0,82.0,-5.0
127.0,126.0,126.0,127.0,127.0,149.0,127.0,128.0,15.0,-102.0,-87.0,127.0,127.0,127.0,109.0,82.0,-5.0
127.0,126.0,126.0,127.0,127.0,149.0,127.0,128.0,15.0,-102.0,-87.0,127.0,127.0,127.0,109.0,82.0,-5.0
127.0,126.0,126.0,127.0,127.0,149.0,127.0,128.0,15.0,-102.0,-87.0,127.0,127.0,127.0,109.0,82.0,-5.0
126.0,126.0,125.0,127.0,127.0,147.0,127.0,127.0,15.0,-102.0,-87.0,127.0,127.0,127.0,109.0,82.0,-5.0
126.0,127.0,125.0,127.0,127.0,148.0,126.0,127.0,15.0,-102.0,-87.0,127.0,127.0,127.0,109.0,82.0,-5.0
126.0,127.0,125.0,127.0,127.0,148.0,126.0,127.0,15.0,-102.0,-87.0,127.0,127.0,127.0,109.0,82.0,-5.0
126.0,127.0,125.0,127.0,127.0,148.0,126.0,127.0,15.0,-102.0,-87.0,127.0,127.0,127.0,109.0,82.0,-5.0
126.0,127.0,125.0,127.0,127.0,148.0,126.0,127.0,15.0,-102.0,-87.0,127.0,127.0,127.0,109.0,82.0,-5.0
126.0,127.0,125.0,127.0,127.0,148.0,127.0,127.0,15.0,-102.0,-87.0,127.0,127.0,127.0,109.0,82.0,-5.0
126.0,127.0,125.0,127.0,127.0,148.0,126.0,128.0,15.0,-102.0,-87.0,127.0,127.0,127.0,109.0,82.0,-5.0
127.0,127.0,125.0,127.0,127.0,148.0,127.0,128.0,15.0,-102.0,-87.0,127.0,127.0,127.0,109.0,82.0,-5.0
127.0,127.0,126.0,127.0,126.0,148.0,127.0,127.0,15.0,-102.0,-87.0,127.0,127.0,127.0,109.0,82.0,-5.0
126.0,127.0,125.0,127.0,126.0,148.0,127.0,128.0,15.0,-102.0,-87.0,127.0,127.0,127.0,109.0,82.0,-5.0
127.0,127.0,125.0,127.0,127.0,148.0,126.0,127.0,16.0,-103.0,-87.0,127.0,127.0,127.0,109.0,82.0,-5.0
127.0,127.0,125.0,127.0,127.0,148.0,126.0,127.0,16.0,-103.0,-87.0,127.0,127.0,127.0,109.0,82.0,-5.0
127.0,127.0,126.0,127.0,127.0,148.0,126.0,127.0,16.0,-103.0,-87.0,127.0,127.0,127.0,109.0,82.0,-5.0
127.0,127.0,126.0,127.0,127.0,148.0,126.0,127.0,16.0,-103.0,-87.0,127.0,127.0,127.0,109.0,82.0,-5.0
127.0,127.0,125.0,127.0,127.0,148.0,126.0,127.0,16.0,-103.0,-87.0,127.0,127.0,127.0,109.0,82.0,-5.0
127.0,127.0,126.0,127.0,127.0,148.0,126.0,127.0,16.0,-103.0,-87.0,127.0,127.0,127.0,109.0,82.0,-5.0
127.0,126.0,126.0,127.0,127.0,148.0,126.0,128.0,16.0,-103.0,-87.0,127.0,127.0,127.0,109.0,82.0,-5.0
127.0,126.0,126.0,127.0,127.0,147.0,127.0,127.0,16.0,-103.0,-87.0,127.0,127.0,127.0,109.0,82.0,-5.0
127.0,126.0,126.0,127.0,127.0,147.0,127.0,128.0,16.0,-103.0,-87.0,127.0,127.0,127.0,109.0,82.0,-5.0
126.0,127.0,126.0,127.0,127.0,147.0,126.0,127.0,16.0,-103.0,-87.0,127.0,127.0,127.0,109.0,82.0,-5.0
127.0,127.0,125.0,127.0,127.0,148.0,126.0,128.0,16.0,-103.0,-87.0,127.0,127.0,127.0,109.0,82.0,-5.0
127.0,127.0,125.0,127.0,127.0,148.0,126.0,128.0,16.0,-103.0,-87.0,127.0,127.0,127.0,109.0,82.0,-5.0
127.0,127.0,125.0,127.0,127.0,148.0,126.0,128.0,16.0,-103.0,-87.0,127.0,127.0,127.0,109.0,82.0,-5.0
127.0,127.0,125.0,127.0,127.0,148.0,126.0,128.0,16.0,-103.0,-87.0,127.0,127.0,127.0,109.0,82.0,-5.0
127.0,127.0,125.0,127.0,127.0,148.0,126.0,128.0,16.0,-103.0,-87.0,127.0,127.0,127.0,109.0,82.0,-5.0
127.0,127.0,125.0,127.0,127.0,147.0,126.0,128.0,16.0,-103.0,-87.0,127.0,127.0,127.0,109.0,82.0,-5.0
127.0,126.0,125.0,127.0,127.0,147.0,126.0,128.0,16.0,-103.0,-87.0,127.0,127.0,127.0,109.0,82.0,-5.0
127.0,126.0,125.0,127.0,127.0,147.0,126.0,128.0,16.0,-103.0,-87.0,127.0,127.0,127.0,109.0,82.0,-5.0
127.0,127.0,125.0,127.0,127.0,146.0,127.0,128.0,16.0,-103.0,-87.0,127.0,127.0,127.0,109.0,82.0,-5.0
127.0,127.0,125.0,127.0,127.0,148.0,126.0,128.0,16.0,-103.0,-87.0,127.0,127.0,127.0,109.0,82.0,-5.0
127.0,126.0,125.0,127.0,127.0,146.0,126.0,128.0,16.0,-103.0,-87.0,127.0,127.0,127.0,109.0,82.0,-5.0
127.0,126.0,125.0,127.0,127.0,146.0,126.0,128.0,16.0,-103.0,-87.0,127.0,127.0,127.0,109.0,82.0,-5.0
127.0,126.0,126.0,127.0,127.0,146.0,126.0,128.0,16.0,-103.0,-87.0,127.0,127.0,127.0,109.0,82.0,-5.0
127.0,126.0,126.0,127.0,127.0,146.0,126.0,128.0,16.0,-103.0,-87.0,127.0,127.0,127.0,109.0,82.0,-5.0
127.0,126.0,126.0,127.0,127.0,146.0,126.0,128.0,16.0,-103.0,-87.0,127.0,127.0,127.0,109.0,82.0,-5.0
127.0,126.0,126.0,126.0,127.0,145.0,126.0,128.0,16.0,-103.0,-87.0,127.0,127.0,127.0,109.0,82.0,-5.0
127.0,126.0,126.0,126.0,126.0,145.0,126.0,128.0,16.0,-103.0,-87.0,127.0,127.0,127.0,109.0,82.0,-5.0
127.0,126.0,125.0,127.0,127.0,145.0,126.0,128.0,16.0,-103.0,-87.0,127.0,127.0,127.0,109.0,82.0,-5.0
127.0,127.0,125.0,127.0,127.0,146.0,126.0,128.0,16.0,-103.0,-87.0,127.0,127.0,127.0,109.0,82.0,-5.0
127.0,127.0,125.0,127.0,127.0,146.0,126.0,128.0,16.0,-103.0,-87.0,127.0,127.0,127.0,109.0,82.0,-5.0
126.0,126.0,125.0,126.0,126.0,145.0,127.0,127.0,16.0,-103.0,-87.0,127.0,127.0,127.0,109.0,82.0,-5.0
126.0,126.0,125.0,126.0,126.0,145.0,126.0,128.0,16.0,-103.0,-87.0,127.0,127.0,127.0,109.0,82.0,-5.0
126.0,126.0,125.0,126.0,126.0,145.0,126.0,127.0,16.0,-103.0,-87.0,127.0,127.0,127.0,109.0,82.0,-5.0
126.0,126.0,126.0,126.0,126.0,145.0,127.0,127.0,16.0,-103.0,-87.0,127.0,127.0,127.0,109.0,82.0,-5.0
126.0,126.0,126.0,126.0,126.0,145.0,127.0,127.0,16.0,-103.0,-87.0,127.0,127.0,127.0,109.0,82.0,-5.0
126.0,126.0,126.0,126.0,126.0,145.0,127.0,127.0,16.0,-103.0,-87.0,127.0,127.0,127.0,109.0,82.0,-5.0
126.0,126.0,126.0,127.0,126.0,144.0,127.0,127.0,16.0,-103.0,-87.0,127.0,127.0,127.0,109.0,82.0,-5.0
126.0,127.0,125.0,127.0,126.0,145.0,126.0,127.0,16.0,-103.0,-87.0,127.0,127.0,127.0,109.0,82.0,-5.0
126.0,127.0,125.0,127.0,127.0,146.0,126.0,128.0,16.0,-103.0,-87.0,127.0,127.0,127.0,109.0,82.0,-5.0
126.0,127.0,125.0,126.0,126.0,145.0,126.0,128.0,16.0,-103.0,-87.0,127.0,127.0,127.0,109.0,82.0,-5.0
127.0,126.0,127.0,127.0,127.0,143.0,126.0,127.0,16.0,-103.0,-87.0,127.0,127.0,127.0,109.0,82.0,-5.0
127.0,126.0,126.0,127.0,127.0,143.0,126.0,127.0,16.0,-103.0,-87.0,127.0,127.0,127.0,109.0,82.0,-5.0
126.0,126.0,126.0,127.0,126.0,143.0,126.0,127.0,16.0,-103.0,-87.0,127.0,127.0,127.0,109.0,82.0,-5.0
127.0,127.0,126.0,127.0,127.0,145.0,126.0,127.0,16.0,-103.0,-87.0,127.0,127.0,127.0,109.0,82.0,-5.0
127.0,127.0,126.0,127.0,127.0,144.0,126.0,127.0,16.0,-103.0,-87.0,127.0,127.0,127.0,109.0,82.0,-5.0
127.0,126.0,126.0,127.0,127.0,143.0,126.0,127.0,16.0,-103.0,-87.0,127.0,127.0,127.0,109.0,82.0,-5.0
127.0,126.0,126.0,127.0,127.0,142.0,126.0,127.0,16.0,-103.0,-87.0,127.0,127.0,127.0,109.0,82.0,-5.0
127.0,126.0,126.0,127.0,127.0,143.0,126.0,127.0,16.0,-103.0,-87.0,127.0,127.0,127.0,109.0,82.0,-5.0
127.0,126.0,126.0,127.0,127.0,143.0,126.0,127.0,16.0,-103.0,-87.0,127.0,127.0,127.0,109.0,82.0,-5.0
127.0,126.0,126.0,127.0,127.0,143.0,126.0,127.0,16.0,-103.0,-87.0,127.0,127.0,127.0,109.0,82.0,-5.0
127.0,127.0,127.0,127.0,127.0,144.0,127.0,128.0,16.0,-103.0,-87.0,127.0,127.0,127.0,109.0,82.0,-5.0
127.0,126.0,127.0,127.0,127.0,144.0,127.0,128.0,16.0,-103.0,-87.0,127.0,127.0,127.0,109.0,82.0,-5.0
127.0,126.0,127.0,127.0,127.0,144.0,127.0,128.0,16.0,-103.0,-87.0,127.0,127.0,127.0,109.0,82.0,-5.0
127.0,126.0,127.0,127.0,127.0,144.0,127.0,128.0,16.0,-103.0,-87.0,127.0,127.0,127.0,109.0,82.0,-5.0
127.0,126.0,126.0,127.0,127.0,143.0,127.0,128.0,16.0,-103.0,-87.0,127.0,127.0,127.0,109.0,82.0,-5.0
127.0,127.0,126.0,127.0,127.0,144.0,126.0,128.0,16.0,-103.0,-87.0,127.0,127.0,127.0,109.0,82.0,-5.0
127.0,127.0,126.0,127.0,127.0,145.0,126.0,128.0,16.0,-103.0,-87.0,127.0,127.0,127.0,109.0,82.0,-5.0
127.0,127.0,126.0,127.0,127.0,145.0,127.0,128.0,16.0,-103.0,-87.0,127.0,127.0,127.0,109.0,82.0,-5.0
127.0,127.0,127.0,127.0,127.0,144.0,127.0,128.0,16.0,-103.0,-87.0,127.0,127.0,127.0,109.0,82.0,-5.0
127.0,127.0,127.0,127.0,127.0,144.0,127.0,128.0,16.0,-103.0,-87.0,127.0,127.0,127.0,109.0,82.0,-5.0
127.0,126.0,126.0,127.0,127.0,143.0,126.0,128.0,16.0,-104.0,-87.0,127.0,127.0,127.0,109.0,82.0,-5.0
127.0,126.0,126.0,127.0,126.0,143.0,126.0,128.0,16.0,-104.0,-87.0,127.0,127.0,127.0,109.0,82.0,-5.0
127.0,127.0,126.0,127.0,127.0,142.0,126.0,128.0,16.0,-104.0,-87.0,127.0,127.0,127.0,109.0,82.0,-5.0
127.0,127.0,126.0,127.0,127.0,142.0,126.0,128.0,16.0,-104.0,-87.0,127.0,127.0,127.0,109.0,82.0,-5.0
127.0,127.0,126.0,127.0,127.0,143.0,126.0,127.0,16.0,-104.0,-87.0,127.0,127.0,127.0,109.0,82.0,-5.0
127.0,127.0,126.0,127.0,127.0,143.0,126.0,128.0,16.0,-104.0,-87.0,127.0,127.0,127.0,109.0,82.0,-5.0
127.0,127.0,126.0,127.0,127.0,143.0,126.0,128.0,16.0,-104.0,-87.0,127.0,127.0,127.0,109.0,82.0,-5.0
127.0,126.0,126.0,127.0,127.0,143.0,126.0,128.0,16.0,-104.0,-87.0,127.0,127.0,127.0,109.0,82.0,-5.0
127.0,126.0,126.0,127.0,127.0,143.0,126.0,128.0,16.0,-104.0,-87.0,127.0,127.0,127.0,109.0,82.0,-5.0
127.0,126.0,126.0,127.0,127.0,143.0,126.0,128.0,16.0,-104.0,-87.0,127.0,127.0,127.0,109.0,82.0,-5.0
127.0,126.0,126.0,127.0,127.0,143.0,126.0,128.0,16.0,-104.0,-86.0,127.0,127.0,127.0,109.0,82.0,-5.0
127.0,126.0,126.0,127.0,127.0,143.0,126.0,127.0,16.0,-104.0,-86.0,127.0,127.0,127.0,109.0,82.0,-5.0
126.0,127.0,126.0,127.0,127.0,141.0,126.0,127.0,16.0,-104.0,-86.0,127.0,127.0,127.0,109.0,82.0,-5.0
127.0,127.0,126.0,127.0,127.0,142.0,126.0,127.0,16.0,-104.0,-86.0,127.0,127.0,127.0,109.0,82.0,-5.0
126.0,127.0,125.0,127.0,127.0,143.0,126.0,127.0,16.0,-104.0,-86.0,127.0,127.0,127.0,109.0,82.0,-5.0
127.0,127.0,125.0,127.0,127.0,143.0,126.0,127.0,16.0,-104.0,-86.0,127.0,127.0,127.0,109.0,82.0,-5.0
127.0,127.0,126.0,127.0,127.0,143.0,126.0,127.0,16.0,-104.0,-86.0,127.0,127.0,127.0,109.0,82.0,-5.0
127.0,127.0,126.0,127.0,127.0,143.0,126.0,127.0,16.0,-104.0,-86.0,127.0,127.0,127.0,109.0,82.0,-5.0
127.0,126.0,126.0,127.0,127.0,143.0,126.0,128.0,16.0,-104.0,-86.0,127.0,127.0,127.0,109.0,82.0,-5.0
127.0,127.0,126.0,127.0,127.0,143.0,126.0,127.0,16.0,-104.0,-86.0,127.0,127.0,127.0,109.0,82.0,-5.0
126.0,127.0,126.0,127.0,127.0,142.0,126.0,127.0,16.0,-104.0,-86.0,127.0,127.0,127.0,109.0,82.0,-5.0
126.0,127.0,126.0,127.0,127.0,142.0,126.0,127.0,16.0,-104.0,-86.0,127.0,127.0,127.0,109.0,82.0,-5.0
126.0,127.0,126.0,127.0,127.0,142.0,126.0,127.0,16.0,-104.0,-86.0,127.0,127.0,127.0,109.0,82.0,-5.0
126.0,127.0,125.0,127.0,127.0,143.0,126.0,127.0,16.0,-104.0,-86.0,127.0,127.0,127.0,109.0,82.0,-5.0
127.0,127.0,125.0,127.0,127.0,144.0,126.0,127.0,16.0,-104.0,-86.0,127.0,127.0,127.0,109.0,82.0,-5.0
127.0,127.0,126.0,127.0,127.0,144.0,126.0,128.0,16.0,-104.0,-86.0,127.0,127.0,127.0,109.0,82.0,-5.0
127.0,127.0,126.0,127.0,127.0,144.0,126.0,127.0,16.0,-104.0,-86.0,127.0,127.0,127.0,109.0,82.0,-5.0
127.0,127.0,126.0,127.0,127.0,144.0,126.0,127.0,16.0,-104.0,-86.0,127.0,127.0,127.0,109.0,82.0,-5.0
127.0,127.0,126.0,127.0,127.0,144.0,126.0,128.0,16.0,-104.0,-86.0,127.0,127.0,127.0,109.0,82.0,-5.0
127.0,126.0,126.0,127.0,127.0,143.0,126.0,128.0,16.0,-104.0,-86.0,127.0,127.0,127.0,109.0,82.0,-5.0
127.0,127.0,125.0,127.0,127.0,141.0,127.0,128.0,16.0,-104.0,-86.0,127.0,127.0,127.0,109.0,82.0,-5.0
127.0,126.0,125.0,127.0,127.0,141.0,127.0,127.0,16.0,-104.0,-86.0,127.0,127.0,127.0,109.0,82.0,-5.0
127.0,127.0,125.0,127.0,127.0,142.0,126.0,127.0,16.0,-104.0,-86.0,127.0,127.0,127.0,109.0,82.0,-5.0
127.0,127.0,125.0,127.0,127.0,143.0,126.0,128.0,16.0,-104.0,-86.0,127.0,127.0,127.0,109.0,82.0,-5.0
127.0,127.0,125.0,127.0,127.0,143.0,126.0,128.0,16.0,-104.0,-86.0,127.0,127.0,127.0,109.0,82.0,-5.0
127.0,127.0,125.0,127.0,127.0,143.0,127.0,128.0,16.0,-104.0,-86.0,127.0,127.0,127.0,109.0,82.0,-5.0
127.0,126.0,125.0,127.0,127.0,143.0,127.0,128.0,16.0,-104.0,-86.0,127.0,127.0,127.0,109.0,82.0,-5.0
127.0,126.0,125.0,127.0,127.0,143.0,127.0,128.0,16.0,-104.0,-86.0,127.0,127.0,127.0,109.0,82.0,-5.0
127.0,126.0,126.0,127.0,127.0,142.0,127.0,128.0,16.0,-104.0,-86.0,127.0,127.0,127.0,109.0,82.0,-5.0
127.0,127.0,125.0,127.0,127.0,141.0,127.0,128.0,16.0,-104.0,-86.0,127.0,127.0,127.0,109.0,82.0,-5.0
126.0,127.0,126.0,127.0,127.0,140.0,126.0,128.0,16.0,-104.0,-86.0,127.0,127.0,127.0,109.0,82.0,-5.0
126.0,127.0,126.0,127.0,127.0,141.0,126.0,128.0,16.0,-104.0,-86.0,127.0,127.0,127.0,109.0,82.0,-5.0
126.0,127.0,126.0,127.0,127.0,142.0,126.0,128.0,16.0,-104.0,-86.0,127.0,127.0,127.0,109.0,82.0,-5.0
126.0,127.0,126.0,127.0,127.0,142.0,126.0,128.0,16.0,-104.0,-86.0,127.0,127.0,127.0,109.0,82.0,-5.0
126.0,126.0,126.0,127.0,127.0,142.0,126.0,128.0,16.0,-104.0,-86.0,127.0,127.0,127.0,109.0,82.0,-5.0
127.0,126.0,126.0,127.0,127.0,142.0,126.0,128.0,16.0,-104.0,-86.0,127.0,127.0,127.0,109.0,82.0,-5.0
127.0,126.0,126.0,127.0,127.0,142.0,126.0,128.0,16.0,-104.0,-86.0,127.0,127.0,127.0,109.0,82.0,-5.0
127.0,126.0,126.0,127.0,127.0,141.0,126.0,128.0,16.0,-104.0,-86.0,127.0,127.0,127.0,109.0,82.0,-5.0
126.0,127.0,126.0,127.0,127.0,140.0,126.0,128.0,16.0,-104.0,-86.0,127.0,127.0,127.0,109.0,82.0,-5.0
126.0,127.0,126.0,127.0,127.0,140.0,126.0,128.0,16.0,-104.0,-86.0,127.0,127.0,127.0,109.0,82.0,-5.0
126.0,127.0,126.0,127.0,127.0,141.0,126.0,128.0,16.0,-104.0,-86.0,127.0,127.0,127.0,109.0,82.0,-5.0
126.0,127.0,126.0,127.0,127.0,142.0,126.0,128.0,16.0,-104.0,-86.0,127.0,127.0,127.0,109.0,82.0,-5.0
126.0,127.0,126.0,127.0,127.0,142.0,126.0,128.0,16.0,-104.0,-86.0,127.0,127.0,127.0,109.0,82.0,-5.0
126.0,127.0,126.0,127.0,127.0,142.0,126.0,128.0,16.0,-104.0,-86.0,127.0,127.0,127.0,109.0,82.0,-5.0
126.0,127.0,126.0,127.0,127.0,142.0,126.0,128.0,16.0,-104.0,-86.0,127.0,127.0,127.0,109.0,82.0,-5.0
126.0,127.0,126.0,127.0,127.0,142.0,127.0,128.0,16.0,-104.0,-86.0,127.0,127.0,127.0,109.0,82.0,-5.0
127.0,127.0,126.0,127.0,127.0,141.0,127.0,128.0,16.0,-104.0,-86.0,127.0,127.0,127.0,109.0,82.0,-5.0
126.0,127.0,126.0,127.0,127.0,140.0,127.0,128.0,16.0,-104.0,-86.0,127.0,127.0,127.0,109.0,82.0,-5.0
126.0,127.0,126.0,127.0,127.0,140.0,127.0,128.0,16.0,-104.0,-86.0,127.0,127.0,127.0,109.0,82.0,-5.0
126.0,126.0,126.0,127.0,127.0,140.0,127.0,128.0,16.0,-104.0,-86.0,127.0,127.0,127.0,109.0,82.0,-5.0
126.0,126.0,125.0,127.0,127.0,138.0,127.0,127.0,16.0,-104.0,-86.0,127.0,127.0,127.0,109.0,82.0,-5.0
126.0,126.0,125.0,127.0,127.0,139.0,127.0,127.0,16.0,-104.0,-86.0,127.0,127.0,127.0,109.0,82.0,-5.0
126.0,126.0,125.0,127.0,127.0,139.0,126.0,127.0,16.0,-104.0,-86.0,127.0,127.0,127.0,109.0,82.0,-5.0
126.0,127.0,125.0,127.0,127.0,140.0,127.0,127.0,16.0,-104.0,-86.0,127.0,127.0,127.0,109.0,82.0,-5.0
126.0,127.0,125.0,127.0,127.0,141.0,127.0,127.0,16.0,-104.0,-86.0,127.0,127.0,127.0,109.0,82.0,-5.0
126.0,126.0,125.0,127.0,127.0,140.0,127.0,127.0,16.0,-104.0,-86.0,127.0,127.0,127.0,109.0,82.0,-5.0
126.0,126.0,125.0,127.0,127.0,138.0,127.0,127.0,16.0,-104.0,-86.0,127.0,127.0,127.0,109.0,82.0,-5.0
126.0,126.0,125.0,127.0,127.0,138.0,127.0,127.0,16.0,-104.0,-86.0,127.0,127.0,127.0,109.0,82.0,-5.0
126.0,126.0,125.0,127.0,127.0,138.0,127.0,127.0,16.0,-104.0,-86.0,127.0,127.0,127.0,109.0,82.0,-5.0
126.0,126.0,125.0,127.0,127.0,138.0,127.0,127.0,16.0,-104.0,-86.0,127.0,127.0,127.0,109.0,82.0,-5.0
127.0,127.0,121.0,126.0,127.0,140.0,126.0,127.0,16.0,-104.0,-86.0,127.0,127.0,127.0,109.0,82.0,-5.0
127.0,127.0,121.0,126.0,127.0,140.0,126.0,127.0,16.0,-104.0,-86.0,127.0,127.0,127.0,109.0,82.0,-5.0
127.0,126.0,121.0,126.0,127.0,140.0,126.0,127.0,16.0,-104.0,-86.0,127.0,127.0,127.0,109.0,82.0,-5.0
127.0,126.0,121.0,126.0,127.0,140.0,126.0,127.0,16.0,-104.0,-86.0,127.0,127.0,127.0,109.0,82.0,-5.0
127.0,126.0,121.0,126.0,127.0,140.0,126.0,127.0,16.0,-104.0,-86.0,127.0,127.0,127.0,109.0,82.0,-5.0
127.0,127.0,122.0,127.0,127.0,139.0,126.0,127.0,16.0,-104.0,-86.0,127.0,127.0,127.0,109.0,82.0,-5.0
127.0,127.0,122.0,127.0,127.0,140.0,126.0,127.0,16.0,-104.0,-86.0,127.0,127.0,127.0,109.0,82.0,-5.0
127.0,127.0,121.0,126.0,127.0,140.0,126.0,127.0,16.0,-104.0,-86.0,127.0,127.0,127.0,109.0,82.0,-5.0
127.0,127.0,121.0,127.0,127.0,140.0,126.0,127.0,16.0,-104.0,-86.0,127.0,127.0,127.0,109.0,82.0,-5.0
127.0,127.0,121.0,127.0,127.0,140.0,126.0,127.0,16.0,-104.0,-86.0,127.0,127.0,127.0,109.0,82.0,-5.0
126.0,126.0,121.0,127.0,127.0,140.0,126.0,128.0,16.0,-104.0,-86.0,127.0,127.0,127.0,109.0,82.0,-5.0
126.0,126.0,121.0,127.0,127.0,140.0,126.0,127.0,16.0,-104.0,-86.0,127.0,127.0,127.0,109.0,82.0,-5.0
126.0,126.0,122.0,127.0,127.0,140.0,126.0,128.0,16.0,-104.0,-86.0,127.0,127.0,127.0,109.0,82.0,-5.0
