emg1,emg2,emg3,emg4,emg5,emg6,emg7,emg8,acc_x,acc_y,acc_z,gyro_x,gyro_y,gyro_z,angle_pitch,angle_roll,angle_yaw
130.0,125.0,128.0,125.0,127.0,152.0,127.0,128.0,19.0,-99.0,-86.0,127.0,127.0,127.0,104.0,84.0,-5.0
130.0,125.0,128.0,125.0,126.0,152.0,127.0,128.0,19.0,-99.0,-86.0,127.0,127.0,127.0,104.0,84.0,-5.0
130.0,125.0,128.0,125.0,126.0,152.0,127.0,129.0,19.0,-99.0,-86.0,127.0,127.0,127.0,104.0,84.0,-5.0
130.0,125.0,128.0,125.0,126.0,152.0,127.0,129.0,19.0,-99.0,-86.0,127.0,127.0,127.0,104.0,84.0,-5.0
130.0,125.0,127.0,125.0,126.0,152.0,128.0,129.0,19.0,-99.0,-86.0,127.0,127.0,127.0,104.0,84.0,-5.0
130.0,125.0,127.0,125.0,126.0,152.0,128.0,129.0,19.0,-99.0,-86.0,127.0,127.0,127.0,104.0,84.0,-5.0
130.0,125.0,127.0,125.0,126.0,152.0,128.0,129.0,19.0,-99.0,-86.0,127.0,127.0,127.0,104.0,84.0,-5.0
130.0,127.0,128.0,127.0,129.0,152.0,127.0,128.0,18.0,-99.0,-86.0,127.0,127.0,127.0,104.0,84.0,-5.0
130.0,126.0,127.0,127.0,129.0,152.0,127.0,128.0,18.0,-99.0,-86.0,127.0,127.0,127.0,104.0,84.0,-5.0
130.0,125.0,127.0,127.0,129.0,152.0,127.0,128.0,18.0,-99.0,-86.0,127.0,127.0,127.0,104.0,84.0,-5.0
130.0,124.0,127.0,127.0,129.0,152.0,126.0,128.0,18.0,-99.0,-86.0,127.0,127.0,127.0,104.0,84.0,-5.0
130.0,124.0,126.0,127.0,129.0,152.0,126.0,127.0,18.0,-99.0,-86.0,127.0,127.0,127.0,104.0,84.0,-5.0
130.0,125.0,126.0,126.0,129.0,152.0,125.0,128.0,18.0,-99.0,-86.0,127.0,127.0,127.0,104.0,84.0,-5.0
130.0,125.0,126.0,126.0,129.0,152.0,125.0,128.0,18.0,-99.0,-86.0,127.0,127.0,127.0,104.0,84.0,-5.0
130.0,125.0,126.0,126.0,129.0,152.0,125.0,128.0,18.0,-99.0,-86.0,127.0,127.0,127.0,104.0,84.0,-5.0
130.0,125.0,126.0,126.0,129.0,152.0,125.0,128.0,18.0,-99.0,-86.0,127.0,127.0,127.0,104.0,84.0,-5.0
130.0,126.0,126.0,127.0,128.0,152.0,125.0,128.0,18.0,-99.0,-86.0,127.0,127.0,127.0,104.0,84.0,-5.0
129.0,125.0,128.0,125.0,126.0,152.0,123.0,127.0,18.0,-98.0,-86.0,127.0,127.0,127.0,104.0,84.0,-5.0
129.0,125.0,128.0,125.0,127.0,152.0,123.0,127.0,18.0,-98.0,-86.0,127.0,127.0,127.0,104.0,84.0,-5.0
129.0,125.0,129.0,125.0,126.0,152.0,124.0,128.0,18.0,-98.0,-86.0,127.0,127.0,127.0,104.0,84.0,-5.0
129.0,126.0,129.0,125.0,127.0,152.0,124.0,128.0,18.0,-98.0,-86.0,127.0,127.0,127.0,104.0,84.0,-5.0
129.0,126.0,129.0,125.0,127.0,152.0,124.0,129.0,18.0,-98.0,-86.0,127.0,127.0,127.0,104.0,84.0,-5.0
129.0,125.0,129.0,125.0,127.0,152.0,125.0,129.0,18.0,-98.0,-86.0,127.0,127.0,127.0,104.0,84.0,-5.0
130.0,125.0,129.0,125.0,127.0,152.0,125.0,129.0,18.0,-98.0,-86.0,127.0,127.0,127.0,104.0,84.0,-5.0
130.0,125.0,129.0,125.0,127.0,152.0,125.0,129.0,18.0,-98.0,-86.0,127.0,127.0,127.0,104.0,84.0,-5.0
130.0,125.0,129.0,125.0,127.0,152.0,125.0,129.0,18.0,-98.0,-86.0,127.0,127.0,127.0,104.0,84.0,-5.0
129.0,126.0,128.0,125.0,127.0,152.0,123.0,127.0,18.0,-98.0,-86.0,127.0,127.0,127.0,104.0,84.0,-5.0
129.0,131.0,128.0,125.0,127.0,152.0,124.0,128.0,18.0,-98.0,-86.0,127.0,127.0,127.0,103.0,84.0,-5.0
130.0,133.0,128.0,125.0,127.0,152.0,124.0,128.0,18.0,-98.0,-86.0,127.0,127.0,127.0,103.0,84.0,-5.0
130.0,133.0,128.0,125.0,127.0,152.0,124.0,127.0,18.0,-98.0,-86.0,127.0,127.0,127.0,103.0,84.0,-5.0
129.0,132.0,128.0,125.0,127.0,152.0,124.0,127.0,18.0,-98.0,-86.0,127.0,127.0,127.0,103.0,84.0,-5.0
129.0,130.0,128.0,126.0,127.0,152.0,124.0,127.0,18.0,-98.0,-86.0,127.0,127.0,127.0,103.0,84.0,-5.0
129.0,128.0,127.0,126.0,127.0,152.0,124.0,127.0,18.0,-98.0,-86.0,127.0,127.0,127.0,103.0,84.0,-5.0
129.0,127.0,127.0,126.0,127.0,152.0,124.0,127.0,18.0,-98.0,-86.0,127.0,127.0,127.0,103.0,84.0,-5.0
129.0,126.0,127.0,126.0,127.0,152.0,124.0,127.0,18.0,-98.0,-86.0,127.0,127.0,127.0,103.0,84.0,-5.0
129.0,128.0,127.0,126.0,127.0,152.0,124.0,129.0,18.0,-98.0,-86.0,127.0,127.0,127.0,103.0,84.0,-5.0
129.0,129.0,127.0,125.0,127.0,152.0,124.0,129.0,18.0,-98.0,-86.0,127.0,127.0,127.0,103.0,84.0,-5.0
129.0,124.0,127.0,126.0,127.0,152.0,129.0,127.0,18.0,-98.0,-87.0,127.0,127.0,127.0,103.0,84.0,-5.0
129.0,124.0,127.0,126.0,127.0,152.0,128.0,127.0,18.0,-98.0,-87.0,127.0,127.0,127.0,103.0,84.0,-5.0
129.0,124.0,127.0,126.0,127.0,152.0,128.0,128.0,18.0,-98.0,-87.0,127.0,127.0,127.0,103.0,84.0,-5.0
129.0,125.0,127.0,126.0,127.0,152.0,127.0,128.0,18.0,-98.0,-87.0,127.0,127.0,127.0,103.0,84.0,-5.0
129.0,125.0,127.0,126.0,127.0,152.0,126.0,128.0,18.0,-98.0,-87.0,127.0,127.0,127.0,103.0,84.0,-5.0
129.0,125.0,127.0,126.0,127.0,152.0,126.0,129.0,18.0,-98.0,-87.0,127.0,127.0,127.0,103.0,84.0,-5.0
129.0,127.0,127.0,126.0,127.0,152.0,125.0,129.0,18.0,-98.0,-87.0,127.0,127.0,127.0,103.0,84.0,-5.0
129.0,126.0,127.0,126.0,127.0,152.0,130.0,127.0,18.0,-98.0,-87.0,127.0,127.0,127.0,103.0,84.0,-5.0
129.0,125.0,127.0,126.0,127.0,152.0,129.0,127.0,18.0,-98.0,-87.0,127.0,127.0,127.0,103.0,84.0,-5.0
129.0,124.0,127.0,126.0,127.0,152.0,129.0,127.0,18.0,-98.0,-87.0,127.0,127.0,127.0,103.0,84.0,-5.0
129.0,125.0,126.0,126.0,127.0,152.0,123.0,128.0,17.0,-98.0,-87.0,127.0,127.0,127.0,103.0,84.0,-5.0
129.0,126.0,126.0,126.0,127.0,152.0,122.0,128.0,17.0,-98.0,-87.0,127.0,127.0,127.0,103.0,84.0,-5.0
129.0,126.0,127.0,126.0,127.0,152.0,122.0,128.0,17.0,-98.0,-87.0,127.0,127.0,127.0,103.0,84.0,-5.0
129.0,126.0,127.0,126.0,127.0,152.0,122.0,128.0,17.0,-98.0,-87.0,127.0,127.0,127.0,103.0,84.0,-5.0
129.0,126.0,127.0,126.0,127.0,152.0,122.0,128.0,17.0,-98.0,-87.0,127.0,127.0,127.0,103.0,84.0,-5.0
129.0,126.0,127.0,126.0,127.0,153.0,122.0,128.0,17.0,-98.0,-87.0,127.0,127.0,127.0,103.0,84.0,-5.0
129.0,125.0,127.0,127.0,128.0,152.0,125.0,128.0,17.0,-98.0,-87.0,127.0,127.0,127.0,103.0,84.0,-5.0
129.0,125.0,127.0,127.0,128.0,152.0,124.0,128.0,17.0,-98.0,-87.0,127.0,127.0,127.0,103.0,84.0,-5.0
129.0,125.0,127.0,127.0,127.0,152.0,124.0,128.0,17.0,-98.0,-87.0,127.0,127.0,127.0,103.0,84.0,-5.0
129.0,125.0,126.0,127.0,128.0,152.0,124.0,128.0,17.0,-98.0,-87.0,127.0,127.0,127.0,103.0,84.0,-5.0
129.0,127.0,128.0,126.0,127.0,153.0,127.0,128.0,17.0,-98.0,-87.0,127.0,127.0,127.0,103.0,84.0,-5.0
129.0,127.0,128.0,126.0,127.0,153.0,128.0,128.0,17.0,-98.0,-87.0,127.0,127.0,127.0,103.0,84.0,-5.0
129.0,127.0,128.0,126.0,127.0,153.0,128.0,128.0,17.0,-98.0,-87.0,127.0,127.0,127.0,103.0,84.0,-5.0
129.0,127.0,128.0,126.0,127.0,153.0,128.0,128.0,17.0,-98.0,-87.0,127.0,127.0,127.0,103.0,84.0,-5.0
129.0,128.0,128.0,126.0,127.0,152.0,128.0,128.0,17.0,-98.0,-87.0,127.0,127.0,127.0,103.0,84.0,-5.0
129.0,126.0,128.0,126.0,127.0,152.0,125.0,128.0,17.0,-98.0,-87.0,127.0,127.0,127.0,103.0,84.0,-5.0
129.0,126.0,128.0,126.0,127.0,152.0,126.0,128.0,17.0,-98.0,-87.0,127.0,127.0,127.0,103.0,84.0,-5.0
129.0,126.0,128.0,126.0,127.0,152.0,127.0,128.0,17.0,-98.0,-87.0,127.0,127.0,127.0,103.0,84.0,-5.0
129.0,126.0,128.0,126.0,127.0,152.0,127.0,128.0,17.0,-98.0,-87.0,127.0,127.0,127.0,103.0,84.0,-5.0
129.0,126.0,128.0,126.0,127.0,152.0,127.0,128.0,17.0,-98.0,-87.0,127.0,127.0,127.0,103.0,84.0,-5.0
129.0,126.0,127.0,125.0,127.0,152.0,123.0,127.0,17.0,-99.0,-87.0,127.0,127.0,127.0,103.0,84.0,-5.0
129.0,126.0,127.0,125.0,127.0,152.0,123.0,127.0,17.0,-99.0,-87.0,127.0,127.0,127.0,103.0,84.0,-5.0
129.0,126.0,127.0,125.0,127.0,152.0,123.0,127.0,17.0,-99.0,-87.0,127.0,127.0,127.0,103.0,84.0,-5.0
129.0,126.0,128.0,125.0,127.0,152.0,123.0,127.0,17.0,-99.0,-87.0,127.0,127.0,127.0,103.0,84.0,-5.0
129.0,126.0,126.0,126.0,128.0,152.0,125.0,129.0,17.0,-99.0,-87.0,127.0,127.0,127.0,103.0,84.0,-5.0
129.0,126.0,126.0,126.0,127.0,152.0,124.0,129.0,17.0,-99.0,-87.0,127.0,127.0,127.0,103.0,84.0,-5.0
129.0,125.0,127.0,126.0,127.0,152.0,124.0,128.0,17.0,-99.0,-87.0,127.0,127.0,127.0,103.0,84.0,-5.0
129.0,125.0,127.0,126.0,127.0,152.0,124.0,128.0,17.0,-99.0,-87.0,127.0,127.0,127.0,103.0,84.0,-5.0
129.0,125.0,127.0,125.0,127.0,152.0,124.0,128.0,17.0,-99.0,-87.0,127.0,127.0,127.0,103.0,84.0,-5.0
129.0,125.0,127.0,125.0,127.0,152.0,123.0,127.0,17.0,-99.0,-87.0,127.0,127.0,127.0,103.0,84.0,-5.0
129.0,124.0,127.0,126.0,127.0,152.0,126.0,128.0,17.0,-99.0,-87.0,127.0,127.0,127.0,103.0,84.0,-5.0
129.0,124.0,127.0,126.0,127.0,152.0,126.0,127.0,17.0,-99.0,-87.0,127.0,127.0,127.0,103.0,84.0,-5.0
129.0,125.0,127.0,126.0,127.0,152.0,126.0,128.0,17.0,-99.0,-87.0,127.0,127.0,127.0,103.0,84.0,-5.0
129.0,126.0,126.0,126.0,127.0,152.0,125.0,128.0,17.0,-99.0,-87.0,127.0,127.0,127.0,103.0,84.0,-5.0
129.0,126.0,126.0,126.0,127.0,152.0,125.0,128.0,17.0,-99.0,-87.0,127.0,127.0,127.0,103.0,84.0,-5.0
129.0,125.0,126.0,126.0,127.0,152.0,125.0,128.0,17.0,-99.0,-87.0,127.0,127.0,127.0,103.0,84.0,-5.0
129.0,125.0,126.0,126.0,127.0,152.0,125.0,128.0,17.0,-99.0,-87.0,127.0,127.0,127.0,103.0,84.0,-5.0
129.0,125.0,126.0,126.0,127.0,152.0,125.0,128.0,17.0,-99.0,-87.0,127.0,127.0,127.0,103.0,84.0,-5.0
129.0,124.0,126.0,126.0,127.0,152.0,126.0,128.0,17.0,-99.0,-87.0,127.0,127.0,127.0,103.0,84.0,-5.0
129.0,124.0,127.0,126.0,127.0,152.0,126.0,128.0,17.0,-99.0,-87.0,127.0,127.0,127.0,103.0,84.0,-5.0
129.0,126.0,128.0,127.0,127.0,152.0,128.0,127.0,17.0,-99.0,-87.0,127.0,127.0,127.0,103.0,84.0,-5.0
129.0,126.0,128.0,127.0,127.0,152.0,128.0,128.0,17.0,-99.0,-87.0,127.0,127.0,127.0,103.0,84.0,-5.0
129.0,126.0,128.0,126.0,127.0,152.0,127.0,127.0,17.0,-99.0,-87.0,127.0,127.0,127.0,103.0,84.0,-5.0
129.0,126.0,129.0,127.0,127.0,152.0,127.0,127.0,17.0,-99.0,-87.0,127.0,127.0,127.0,103.0,84.0,-5.0
129.0,126.0,128.0,127.0,127.0,152.0,127.0,127.0,17.0,-99.0,-87.0,127.0,127.0,127.0,103.0,84.0,-5.0
129.0,126.0,128.0,127.0,127.0,152.0,127.0,127.0,17.0,-99.0,-87.0,127.0,127.0,127.0,103.0,84.0,-5.0
129.0,126.0,128.0,127.0,127.0,152.0,127.0,127.0,17.0,-99.0,-87.0,127.0,127.0,127.0,103.0,84.0,-5.0
129.0,126.0,128.0,127.0,127.0,152.0,128.0,127.0,17.0,-99.0,-87.0,127.0,127.0,127.0,103.0,84.0,-5.0
129.0,126.0,128.0,127.0,127.0,152.0,128.0,127.0,17.0,-99.0,-87.0,127.0,127.0,127.0,103.0,84.0,-5.0
129.0,126.0,128.0,127.0,127.0,152.0,128.0,127.0,17.0,-99.0,-87.0,127.0,127.0,127.0,103.0,84.0,-5.0
129.0,126.0,127.0,126.0,127.0,152.0,127.0,128.0,17.0,-98.0,-87.0,127.0,127.0,127.0,103.0,84.0,-5.0
129.0,125.0,127.0,126.0,127.0,152.0,128.0,128.0,17.0,-98.0,-87.0,127.0,127.0,127.0,103.0,84.0,-5.0
129.0,125.0,127.0,126.0,127.0,152.0,128.0,128.0,17.0,-98.0,-87.0,127.0,127.0,127.0,103.0,84.0,-5.0
129.0,125.0,126.0,126.0,127.0,152.0,128.0,128.0,17.0,-98.0,-87.0,127.0,127.0,127.0,103.0,84.0,-5.0
129.0,125.0,126.0,126.0,127.0,152.0,128.0,128.0,17.0,-98.0,-87.0,127.0,127.0,127.0,103.0,84.0,-5.0
129.0,125.0,126.0,126.0,127.0,152.0,128.0,128.0,17.0,-98.0,-87.0,127.0,127.0,127.0,103.0,84.0,-5.0
129.0,125.0,127.0,126.0,127.0,152.0,128.0,128.0,17.0,-98.0,-87.0,127.0,127.0,127.0,103.0,84.0,-5.0
129.0,125.0,127.0,126.0,127.0,152.0,128.0,128.0,17.0,-98.0,-87.0,127.0,127.0,127.0,103.0,84.0,-5.0
129.0,126.0,127.0,126.0,127.0,152.0,128.0,128.0,17.0,-98.0,-87.0,127.0,127.0,127.0,103.0,84.0,-5.0
129.0,126.0,127.0,126.0,127.0,152.0,127.0,128.0,17.0,-98.0,-87.0,127.0,127.0,127.0,103.0,84.0,-5.0
128.0,126.0,127.0,126.0,126.0,153.0,127.0,128.0,17.0,-98.0,-87.0,127.0,127.0,127.0,103.0,84.0,-5.0
128.0,126.0,127.0,126.0,126.0,152.0,127.0,128.0,17.0,-98.0,-87.0,127.0,127.0,127.0,103.0,84.0,-5.0
128.0,126.0,127.0,126.0,126.0,152.0,126.0,127.0,17.0,-98.0,-87.0,127.0,127.0,127.0,103.0,84.0,-5.0
128.0,126.0,127.0,126.0,127.0,153.0,127.0,127.0,17.0,-98.0,-87.0,127.0,127.0,127.0,103.0,84.0,-5.0
128.0,126.0,127.0,126.0,126.0,152.0,127.0,128.0,17.0,-98.0,-87.0,127.0,127.0,127.0,103.0,84.0,-5.0
128.0,126.0,127.0,126.0,126.0,152.0,127.0,127.0,17.0,-98.0,-87.0,127.0,127.0,127.0,103.0,84.0,-5.0
128.0,126.0,127.0,126.0,126.0,152.0,127.0,127.0,17.0,-98.0,-87.0,127.0,127.0,127.0,103.0,84.0,-5.0
128.0,126.0,127.0,126.0,126.0,152.0,127.0,127.0,17.0,-98.0,-87.0,127.0,127.0,127.0,103.0,84.0,-5.0
128.0,126.0,128.0,126.0,126.0,152.0,127.0,127.0,17.0,-98.0,-87.0,127.0,127.0,127.0,103.0,84.0,-5.0
128.0,126.0,128.0,126.0,126.0,152.0,127.0,127.0,17.0,-98.0,-87.0,127.0,127.0,127.0,103.0,84.0,-5.0
128.0,126.0,128.0,126.0,127.0,152.0,126.0,127.0,17.0,-98.0,-87.0,127.0,127.0,127.0,102.0,84.0,-5.0
128.0,126.0,127.0,126.0,127.0,152.0,126.0,127.0,17.0,-98.0,-87.0,127.0,127.0,127.0,102.0,84.0,-5.0
128.0,126.0,127.0,126.0,127.0,152.0,126.0,127.0,17.0,-98.0,-87.0,127.0,127.0,127.0,102.0,84.0,-5.0
128.0,126.0,127.0,126.0,127.0,152.0,126.0,127.0,17.0,-98.0,-87.0,127.0,127.0,127.0,102.0,84.0,-5.0
128.0,126.0,127.0,126.0,127.0,152.0,126.0,127.0,17.0,-98.0,-87.0,127.0,127.0,127.0,102.0,84.0,-5.0
128.0,126.0,127.0,126.0,127.0,152.0,126.0,127.0,17.0,-98.0,-87.0,127.0,127.0,127.0,102.0,84.0,-5.0
128.0,128.0,127.0,126.0,127.0,152.0,127.0,128.0,17.0,-98.0,-87.0,127.0,127.0,127.0,102.0,84.0,-5.0
129.0,129.0,127.0,126.0,127.0,152.0,127.0,128.0,17.0,-98.0,-87.0,127.0,127.0,127.0,102.0,84.0,-5.0
128.0,127.0,128.0,126.0,127.0,152.0,126.0,127.0,17.0,-98.0,-87.0,127.0,127.0,127.0,102.0,84.0,-5.0
128.0,126.0,128.0,126.0,127.0,152.0,126.0,127.0,17.0,-98.0,-87.0,127.0,127.0,127.0,102.0,84.0,-5.0
128.0,125.0,126.0,126.0,126.0,153.0,127.0,127.0,17.0,-98.0,-87.0,127.0,127.0,127.0,102.0,84.0,-5.0
128.0,125.0,126.0,126.0,126.0,153.0,127.0,127.0,17.0,-98.0,-87.0,127.0,127.0,127.0,102.0,84.0,-5.0
128.0,125.0,126.0,126.0,126.0,153.0,127.0,127.0,17.0,-98.0,-87.0,127.0,127.0,127.0,102.0,84.0,-5.0
128.0,125.0,126.0,126.0,127.0,153.0,127.0,127.0,17.0,-98.0,-87.0,127.0,127.0,127.0,102.0,84.0,-5.0
128.0,124.0,127.0,126.0,127.0,153.0,127.0,127.0,17.0,-98.0,-87.0,127.0,127.0,127.0,102.0,84.0,-5.0
128.0,124.0,127.0,126.0,127.0,153.0,127.0,127.0,17.0,-98.0,-87.0,127.0,127.0,127.0,102.0,84.0,-5.0
128.0,124.0,127.0,126.0,127.0,153.0,127.0,127.0,17.0,-98.0,-87.0,127.0,127.0,127.0,102.0,84.0,-5.0
128.0,125.0,126.0,125.0,126.0,153.0,127.0,127.0,17.0,-98.0,-87.0,127.0,127.0,127.0,102.0,84.0,-5.0
128.0,125.0,126.0,125.0,126.0,153.0,127.0,127.0,17.0,-98.0,-87.0,127.0,127.0,127.0,102.0,84.0,-5.0
128.0,125.0,126.0,126.0,126.0,153.0,127.0,127.0,17.0,-98.0,-87.0,127.0,127.0,127.0,102.0,84.0,-5.0
128.0,126.0,127.0,127.0,127.0,153.0,127.0,127.0,17.0,-98.0,-87.0,127.0,127.0,127.0,102.0,84.0,-5.0
128.0,126.0,127.0,127.0,127.0,153.0,127.0,127.0,17.0,-98.0,-87.0,127.0,127.0,127.0,102.0,84.0,-5.0
128.0,126.0,127.0,127.0,127.0,153.0,127.0,127.0,17.0,-98.0,-87.0,127.0,127.0,127.0,102.0,84.0,-5.0
128.0,126.0,127.0,127.0,127.0,152.0,127.0,127.0,17.0,-98.0,-87.0,127.0,127.0,127.0,102.0,84.0,-5.0
128.0,126.0,127.0,126.0,127.0,152.0,127.0,127.0,17.0,-98.0,-87.0,127.0,127.0,127.0,102.0,84.0,-5.0
128.0,126.0,127.0,126.0,127.0,152.0,127.0,127.0,17.0,-98.0,-87.0,127.0,127.0,127.0,102.0,84.0,-5.0
128.0,126.0,127.0,127.0,127.0,152.0,128.0,127.0,17.0,-98.0,-87.0,127.0,127.0,127.0,102.0,84.0,-5.0
128.0,126.0,127.0,127.0,127.0,153.0,128.0,127.0,17.0,-98.0,-87.0,127.0,127.0,127.0,102.0,84.0,-5.0
128.0,126.0,127.0,127.0,127.0,153.0,128.0,127.0,17.0,-98.0,-87.0,127.0,127.0,127.0,102.0,84.0,-5.0
128.0,126.0,127.0,127.0,127.0,153.0,128.0,127.0,17.0,-98.0,-87.0,127.0,127.0,127.0,102.0,84.0,-5.0
128.0,130.0,127.0,126.0,127.0,152.0,127.0,127.0,17.0,-98.0,-87.0,127.0,127.0,127.0,102.0,84.0,-5.0
128.0,130.0,127.0,127.0,127.0,152.0,127.0,127.0,17.0,-98.0,-87.0,127.0,127.0,127.0,102.0,84.0,-5.0
128.0,130.0,127.0,127.0,127.0,152.0,127.0,127.0,17.0,-98.0,-87.0,127.0,127.0,127.0,102.0,84.0,-5.0
128.0,130.0,127.0,127.0,127.0,152.0,127.0,127.0,17.0,-98.0,-87.0,127.0,127.0,127.0,102.0,84.0,-5.0
128.0,130.0,127.0,127.0,127.0,152.0,127.0,127.0,17.0,-98.0,-87.0,127.0,127.0,127.0,102.0,84.0,-5.0
128.0,130.0,127.0,126.0,127.0,152.0,127.0,127.0,17.0,-98.0,-87.0,127.0,127.0,127.0,102.0,84.0,-5.0
128.0,130.0,127.0,126.0,127.0,152.0,127.0,127.0,17.0,-98.0,-87.0,127.0,127.0,127.0,102.0,84.0,-5.0
128.0,130.0,127.0,126.0,127.0,152.0,127.0,127.0,17.0,-98.0,-87.0,127.0,127.0,127.0,102.0,84.0,-5.0
128.0,130.0,127.0,126.0,127.0,152.0,127.0,127.0,17.0,-98.0,-87.0,127.0,127.0,127.0,102.0,84.0,-5.0
128.0,130.0,127.0,126.0,127.0,152.0,127.0,127.0,17.0,-98.0,-87.0,127.0,127.0,127.0,102.0,84.0,-5.0
125.0,133.0,127.0,126.0,127.0,152.0,126.0,127.0,17.0,-98.0,-87.0,127.0,127.0,127.0,102.0,84.0,-5.0
125.0,133.0,127.0,126.0,127.0,152.0,126.0,127.0,17.0,-98.0,-87.0,127.0,127.0,127.0,102.0,84.0,-5.0
125.0,133.0,127.0,126.0,127.0,152.0,126.0,127.0,17.0,-98.0,-87.0,127.0,127.0,127.0,102.0,84.0,-5.0
125.0,133.0,127.0,126.0,127.0,152.0,127.0,127.0,17.0,-98.0,-87.0,127.0,127.0,127.0,102.0,84.0,-5.0
126.0,132.0,127.0,126.0,127.0,152.0,128.0,127.0,17.0,-98.0,-87.0,127.0,127.0,127.0,102.0,84.0,-5.0
125.0,132.0,127.0,126.0,127.0,152.0,128.0,127.0,17.0,-98.0,-87.0,127.0,127.0,127.0,102.0,84.0,-5.0
125.0,132.0,127.0,126.0,127.0,152.0,127.0,127.0,17.0,-98.0,-87.0,127.0,127.0,127.0,102.0,84.0,-5.0
125.0,132.0,127.0,126.0,127.0,152.0,127.0,127.0,17.0,-98.0,-87.0,127.0,127.0,127.0,102.0,84.0,-5.0
125.0,133.0,127.0,126.0,127.0,152.0,127.0,127.0,17.0,-98.0,-87.0,127.0,127.0,127.0,102.0,84.0,-5.0
125.0,133.0,127.0,126.0,127.0,152.0,127.0,127.0,17.0,-98.0,-87.0,127.0,127.0,127.0,102.0,84.0,-5.0
121.0,133.0,127.0,126.0,127.0,152.0,127.0,127.0,17.0,-98.0,-86.0,126.0,127.0,127.0,102.0,84.0,-5.0
121.0,132.0,127.0,126.0,127.0,152.0,127.0,127.0,17.0,-98.0,-86.0,126.0,127.0,127.0,102.0,84.0,-5.0
121.0,132.0,127.0,126.0,127.0,152.0,127.0,127.0,17.0,-98.0,-86.0,126.0,127.0,127.0,102.0,84.0,-5.0
121.0,132.0,127.0,126.0,127.0,152.0,126.0,127.0,17.0,-98.0,-86.0,126.0,127.0,127.0,102.0,84.0,-5.0
121.0,132.0,127.0,126.0,127.0,152.0,126.0,127.0,17.0,-98.0,-86.0,126.0,127.0,127.0,102.0,84.0,-5.0
121.0,133.0,127.0,126.0,127.0,152.0,126.0,127.0,17.0,-98.0,-86.0,126.0,127.0,127.0,102.0,84.0,-5.0
121.0,133.0,127.0,126.0,127.0,152.0,127.0,127.0,17.0,-98.0,-86.0,126.0,127.0,127.0,102.0,84.0,-5.0
121.0,133.0,127.0,126.0,127.0,152.0,127.0,127.0,17.0,-98.0,-86.0,126.0,127.0,127.0,102.0,84.0,-5.0
121.0,133.0,127.0,126.0,127.0,152.0,127.0,127.0,17.0,-98.0,-86.0,126.0,127.0,127.0,102.0,84.0,-5.0
121.0,133.0,127.0,126.0,127.0,152.0,127.0,127.0,17.0,-98.0,-86.0,126.0,127.0,127.0,102.0,84.0,-5.0
115.0,131.0,125.0,126.0,127.0,153.0,127.0,128.0,17.0,-98.0,-86.0,126.0,127.0,127.0,102.0,84.0,-5.0
115.0,131.0,125.0,126.0,127.0,153.0,127.0,128.0,17.0,-98.0,-86.0,126.0,127.0,127.0,102.0,84.0,-5.0
115.0,131.0,126.0,126.0,127.0,153.0,127.0,127.0,17.0,-98.0,-86.0,126.0,127.0,127.0,102.0,84.0,-5.0
115.0,132.0,126.0,126.0,127.0,153.0,127.0,127.0,17.0,-98.0,-86.0,126.0,127.0,127.0,102.0,84.0,-5.0
115.0,131.0,126.0,126.0,127.0,153.0,127.0,128.0,17.0,-98.0,-86.0,126.0,127.0,127.0,102.0,84.0,-5.0
115.0,131.0,126.0,126.0,127.0,153.0,127.0,128.0,17.0,-98.0,-86.0,126.0,127.0,127.0,102.0,84.0,-5.0
115.0,131.0,126.0,126.0,127.0,153.0,127.0,128.0,17.0,-98.0,-86.0,126.0,127.0,127.0,102.0,84.0,-5.0
115.0,131.0,126.0,126.0,127.0,153.0,127.0,128.0,17.0,-98.0,-86.0,126.0,127.0,127.0,102.0,84.0,-5.0
115.0,131.0,126.0,126.0,127.0,153.0,127.0,128.0,17.0,-98.0,-86.0,126.0,127.0,127.0,102.0,84.0,-5.0
115.0,131.0,125.0,126.0,127.0,153.0,127.0,128.0,17.0,-98.0,-86.0,126.0,127.0,127.0,102.0,84.0,-5.0
114.0,130.0,127.0,126.0,127.0,152.0,129.0,128.0,17.0,-98.0,-86.0,126.0,127.0,127.0,102.0,84.0,-5.0
115.0,130.0,128.0,126.0,127.0,152.0,128.0,128.0,17.0,-98.0,-86.0,126.0,127.0,127.0,102.0,84.0,-5.0
114.0,130.0,128.0,126.0,127.0,152.0,128.0,128.0,17.0,-98.0,-86.0,126.0,127.0,127.0,102.0,84.0,-5.0
114.0,130.0,128.0,126.0,127.0,152.0,128.0,128.0,17.0,-98.0,-86.0,126.0,127.0,127.0,102.0,84.0,-5.0
114.0,130.0,128.0,126.0,127.0,152.0,128.0,128.0,17.0,-98.0,-86.0,126.0,127.0,127.0,102.0,84.0,-5.0
114.0,130.0,127.0,126.0,127.0,152.0,128.0,128.0,17.0,-98.0,-86.0,126.0,127.0,127.0,102.0,84.0,-5.0
114.0,130.0,127.0,126.0,127.0,152.0,128.0,128.0,17.0,-98.0,-86.0,126.0,127.0,127.0,102.0,84.0,-5.0
114.0,130.0,127.0,126.0,127.0,152.0,128.0,128.0,17.0,-98.0,-86.0,126.0,127.0,127.0,102.0,84.0,-5.0
114.0,130.0,127.0,126.0,127.0,152.0,128.0,128.0,17.0,-98.0,-86.0,126.0,127.0,127.0,102.0,84.0,-5.0
114.0,130.0,127.0,126.0,127.0,152.0,129.0,128.0,17.0,-98.0,-86.0,126.0,127.0,127.0,102.0,84.0,-5.0
106.0,130.0,126.0,126.0,125.0,152.0,131.0,128.0,17.0,-98.0,-85.0,126.0,126.0,127.0,102.0,84.0,-5.0
106.0,130.0,126.0,126.0,126.0,152.0,131.0,128.0,17.0,-98.0,-85.0,126.0,126.0,127.0,102.0,84.0,-5.0
106.0,130.0,126.0,126.0,126.0,152.0,131.0,128.0,17.0,-98.0,-85.0,126.0,126.0,127.0,102.0,84.0,-5.0
106.0,130.0,126.0,126.0,126.0,152.0,131.0,128.0,17.0,-98.0,-85.0,126.0,126.0,127.0,102.0,84.0,-5.0
106.0,130.0,126.0,126.0,126.0,152.0,131.0,128.0,17.0,-98.0,-85.0,126.0,126.0,127.0,102.0,84.0,-5.0
106.0,130.0,126.0,126.0,126.0,152.0,131.0,128.0,17.0,-98.0,-85.0,126.0,126.0,127.0,102.0,84.0,-5.0
106.0,130.0,126.0,126.0,126.0,152.0,130.0,128.0,17.0,-98.0,-85.0,126.0,126.0,127.0,102.0,84.0,-5.0
107.0,130.0,126.0,126.0,126.0,152.0,130.0,128.0,17.0,-98.0,-85.0,126.0,126.0,127.0,102.0,84.0,-5.0
107.0,130.0,126.0,126.0,126.0,152.0,130.0,128.0,17.0,-98.0,-85.0,126.0,126.0,127.0,102.0,84.0,-5.0
107.0,130.0,127.0,126.0,126.0,152.0,130.0,128.0,17.0,-98.0,-85.0,126.0,126.0,127.0,102.0,84.0,-5.0
114.0,129.0,127.0,127.0,128.0,152.0,128.0,127.0,18.0,-98.0,-85.0,126.0,126.0,127.0,102.0,84.0,-5.0
114.0,129.0,127.0,127.0,128.0,152.0,128.0,128.0,18.0,-98.0,-85.0,126.0,126.0,127.0,102.0,84.0,-5.0
114.0,129.0,127.0,127.0,128.0,152.0,128.0,127.0,18.0,-98.0,-85.0,126.0,126.0,127.0,102.0,84.0,-5.0
114.0,129.0,127.0,127.0,128.0,152.0,128.0,127.0,18.0,-98.0,-85.0,126.0,126.0,127.0,102.0,84.0,-5.0
113.0,129.0,127.0,127.0,128.0,152.0,128.0,128.0,18.0,-98.0,-85.0,126.0,126.0,127.0,102.0,84.0,-5.0
113.0,129.0,127.0,127.0,128.0,152.0,128.0,128.0,18.0,-98.0,-85.0,126.0,126.0,127.0,102.0,84.0,-5.0
113.0,129.0,127.0,127.0,128.0,152.0,128.0,128.0,18.0,-98.0,-85.0,126.0,126.0,127.0,102.0,84.0,-5.0
113.0,129.0,127.0,127.0,128.0,152.0,128.0,128.0,18.0,-98.0,-85.0,126.0,126.0,127.0,102.0,84.0,-5.0
113.0,129.0,127.0,127.0,128.0,152.0,128.0,127.0,18.0,-98.0,-85.0,126.0,126.0,127.0,102.0,84.0,-5.0
114.0,129.0,127.0,127.0,128.0,152.0,128.0,127.0,18.0,-98.0,-85.0,126.0,126.0,127.0,102.0,84.0,-5.0
112.0,128.0,127.0,127.0,127.0,152.0,125.0,127.0,18.0,-98.0,-84.0,126.0,126.0,127.0,102.0,84.0,-5.0
112.0,128.0,127.0,127.0,127.0,152.0,125.0,128.0,18.0,-98.0,-84.0,126.0,126.0,127.0,102.0,84.0,-5.0
112.0,128.0,127.0,127.0,127.0,152.0,125.0,128.0,18.0,-98.0,-84.0,126.0,126.0,127.0,102.0,84.0,-5.0
112.0,128.0,127.0,127.0,127.0,152.0,125.0,128.0,18.0,-98.0,-84.0,126.0,126.0,127.0,102.0,84.0,-5.0
112.0,129.0,127.0,127.0,127.0,152.0,125.0,128.0,18.0,-98.0,-84.0,126.0,126.0,127.0,102.0,84.0,-5.0
112.0,129.0,127.0,127.0,127.0,152.0,125.0,128.0,18.0,-98.0,-84.0,126.0,126.0,127.0,102.0,84.0,-5.0
112.0,128.0,127.0,127.0,127.0,152.0,125.0,128.0,18.0,-98.0,-84.0,126.0,126.0,127.0,102.0,84.0,-5.0
112.0,129.0,127.0,127.0,127.0,152.0,125.0,128.0,18.0,-98.0,-84.0,126.0,126.0,127.0,102.0,84.0,-5.0
112.0,128.0,127.0,127.0,127.0,152.0,125.0,128.0,18.0,-98.0,-84.0,126.0,126.0,127.0,102.0,84.0,-5.0
112.0,128.0,127.0,127.0,127.0,152.0,125.0,127.0,18.0,-98.0,-84.0,126.0,126.0,127.0,102.0,84.0,-5.0
115.0,126.0,128.0,126.0,129.0,151.0,127.0,128.0,19.0,-99.0,-83.0,126.0,126.0,127.0,102.0,84.0,-5.0
115.0,126.0,128.0,126.0,129.0,151.0,127.0,128.0,19.0,-99.0,-83.0,126.0,126.0,127.0,102.0,84.0,-5.0
115.0,126.0,128.0,126.0,129.0,151.0,127.0,128.0,19.0,-99.0,-83.0,126.0,126.0,127.0,102.0,84.0,-5.0
115.0,126.0,128.0,126.0,129.0,151.0,127.0,128.0,19.0,-99.0,-83.0,126.0,126.0,127.0,102.0,84.0,-5.0
115.0,126.0,128.0,126.0,129.0,151.0,127.0,128.0,19.0,-99.0,-83.0,126.0,126.0,127.0,102.0,84.0,-5.0
115.0,126.0,128.0,126.0,130.0,151.0,127.0,128.0,19.0,-99.0,-83.0,126.0,126.0,127.0,102.0,84.0,-5.0
115.0,126.0,128.0,126.0,129.0,151.0,126.0,128.0,19.0,-99.0,-83.0,126.0,126.0,127.0,102.0,84.0,-5.0
115.0,126.0,128.0,126.0,129.0,151.0,127.0,128.0,19.0,-99.0,-83.0,126.0,126.0,127.0,102.0,84.0,-5.0
115.0,126.0,128.0,126.0,129.0,151.0,126.0,128.0,19.0,-99.0,-83.0,126.0,126.0,127.0,102.0,84.0,-5.0
115.0,126.0,128.0,126.0,129.0,151.0,126.0,128.0,19.0,-99.0,-83.0,126.0,126.0,127.0,102.0,84.0,-5.0
113.0,124.0,127.0,126.0,129.0,150.0,131.0,128.0,19.0,-99.0,-83.0,126.0,126.0,127.0,102.0,84.0,-5.0
113.0,124.0,127.0,126.0,129.0,150.0,131.0,128.0,19.0,-99.0,-83.0,126.0,126.0,127.0,102.0,84.0,-5.0
113.0,124.0,127.0,126.0,129.0,150.0,131.0,128.0,19.0,-99.0,-83.0,126.0,126.0,127.0,102.0,84.0,-5.0
113.0,124.0,127.0,126.0,129.0,150.0,131.0,128.0,19.0,-99.0,-83.0,126.0,126.0,127.0,102.0,84.0,-5.0
113.0,124.0,127.0,126.0,129.0,150.0,131.0,128.0,19.0,-99.0,-83.0,126.0,126.0,127.0,102.0,84.0,-5.0
113.0,124.0,127.0,126.0,130.0,150.0,131.0,128.0,19.0,-99.0,-83.0,126.0,126.0,127.0,102.0,84.0,-5.0
113.0,124.0,127.0,126.0,129.0,150.0,131.0,128.0,19.0,-99.0,-83.0,126.0,126.0,127.0,102.0,84.0,-5.0
113.0,124.0,127.0,126.0,129.0,150.0,131.0,128.0,19.0,-99.0,-83.0,126.0,126.0,127.0,102.0,84.0,-5.0
113.0,124.0,127.0,126.0,129.0,150.0,131.0,128.0,19.0,-99.0,-83.0,126.0,126.0,127.0,102.0,84.0,-5.0
113.0,124.0,127.0,126.0,129.0,150.0,131.0,128.0,19.0,-99.0,-83.0,126.0,126.0,127.0,102.0,84.0,-5.0
111.0,125.0,128.0,127.0,130.0,150.0,131.0,128.0,20.0,-100.0,-82.0,126.0,126.0,127.0,102.0,84.0,-5.0
111.0,125.0,128.0,127.0,130.0,150.0,131.0,128.0,20.0,-100.0,-82.0,126.0,126.0,127.0,102.0,84.0,-5.0
111.0,125.0,128.0,127.0,130.0,150.0,131.0,128.0,20.0,-100.0,-82.0,126.0,126.0,127.0,102.0,84.0,-5.0
111.0,125.0,128.0,127.0,130.0,150.0,131.0,128.0,20.0,-100.0,-82.0,126.0,126.0,127.0,102.0,84.0,-5.0
111.0,126.0,126.0,127.0,130.0,150.0,131.0,128.0,20.0,-100.0,-82.0,126.0,126.0,127.0,102.0,84.0,-5.0
111.0,126.0,127.0,127.0,130.0,150.0,131.0,128.0,20.0,-100.0,-82.0,126.0,126.0,127.0,102.0,84.0,-5.0
111.0,126.0,127.0,127.0,130.0,150.0,131.0,128.0,20.0,-100.0,-82.0,126.0,126.0,127.0,102.0,84.0,-5.0
111.0,126.0,127.0,127.0,130.0,150.0,131.0,128.0,20.0,-100.0,-82.0,126.0,126.0,127.0,102.0,84.0,-5.0
111.0,126.0,127.0,127.0,130.0,150.0,131.0,128.0,20.0,-100.0,-82.0,126.0,126.0,127.0,102.0,84.0,-5.0
111.0,125.0,127.0,127.0,130.0,150.0,131.0,128.0,20.0,-100.0,-82.0,126.0,126.0,127.0,102.0,84.0,-5.0
111.0,123.0,127.0,127.0,131.0,149.0,128.0,128.0,20.0,-100.0,-82.0,126.0,126.0,127.0,102.0,84.0,-5.0
111.0,123.0,127.0,127.0,131.0,149.0,128.0,128.0,20.0,-100.0,-82.0,126.0,126.0,127.0,102.0,84.0,-5.0
111.0,123.0,127.0,127.0,131.0,149.0,128.0,128.0,20.0,-100.0,-82.0,126.0,126.0,127.0,102.0,84.0,-5.0
111.0,124.0,126.0,126.0,130.0,149.0,128.0,128.0,20.0,-100.0,-82.0,126.0,126.0,127.0,102.0,84.0,-5.0
111.0,124.0,126.0,126.0,130.0,149.0,128.0,128.0,20.0,-100.0,-82.0,126.0,126.0,127.0,102.0,84.0,-5.0
111.0,124.0,127.0,126.0,130.0,149.0,128.0,128.0,20.0,-100.0,-82.0,126.0,126.0,127.0,102.0,84.0,-5.0
111.0,124.0,127.0,126.0,131.0,149.0,128.0,128.0,20.0,-100.0,-82.0,126.0,126.0,127.0,102.0,84.0,-5.0
111.0,124.0,127.0,126.0,131.0,149.0,128.0,128.0,20.0,-100.0,-82.0,126.0,126.0,127.0,102.0,84.0,-5.0
111.0,124.0,127.0,126.0,131.0,149.0,128.0,128.0,20.0,-100.0,-82.0,126.0,126.0,127.0,102.0,84.0,-5.0
111.0,123.0,127.0,127.0,131.0,149.0,128.0,128.0,20.0,-100.0,-82.0,126.0,126.0,127.0,102.0,84.0,-5.0
109.0,119.0,126.0,127.0,133.0,142.0,125.0,127.0,20.0,-100.0,-81.0,126.0,126.0,127.0,102.0,84.0,-5.0
109.0,119.0,126.0,127.0,133.0,141.0,125.0,127.0,20.0,-100.0,-81.0,126.0,126.0,127.0,102.0,84.0,-5.0
109.0,120.0,126.0,127.0,133.0,146.0,125.0,127.0,20.0,-100.0,-81.0,126.0,126.0,127.0,102.0,84.0,-5.0
109.0,120.0,126.0,127.0,133.0,145.0,125.0,127.0,20.0,-100.0,-81.0,126.0,126.0,127.0,102.0,84.0,-5.0
109.0,120.0,126.0,127.0,133.0,145.0,125.0,127.0,20.0,-100.0,-81.0,126.0,126.0,127.0,102.0,84.0,-5.0
109.0,120.0,126.0,127.0,133.0,145.0,125.0,127.0,20.0,-100.0,-81.0,126.0,126.0,127.0,102.0,84.0,-5.0
109.0,119.0,126.0,127.0,133.0,144.0,125.0,127.0,20.0,-100.0,-81.0,126.0,126.0,127.0,102.0,84.0,-5.0
109.0,119.0,126.0,127.0,133.0,144.0,125.0,128.0,20.0,-100.0,-81.0,126.0,126.0,127.0,102.0,84.0,-5.0
109.0,119.0,126.0,127.0,133.0,143.0,125.0,128.0,20.0,-100.0,-81.0,126.0,126.0,127.0,102.0,84.0,-5.0
109.0,119.0,126.0,127.0,133.0,143.0,125.0,127.0,20.0,-100.0,-81.0,126.0,126.0,127.0,102.0,84.0,-5.0
110.0,114.0,128.0,125.0,132.0,0.0,122.0,127.0,21.0,-100.0,-81.0,126.0,126.0,127.0,102.0,84.0,-5.0
110.0,115.0,128.0,125.0,132.0,0.0,122.0,127.0,21.0,-100.0,-81.0,126.0,126.0,127.0,102.0,84.0,-5.0
110.0,115.0,128.0,125.0,132.0,0.0,122.0,127.0,21.0,-100.0,-81.0,126.0,126.0,127.0,102.0,84.0,-5.0
110.0,115.0,128.0,125.0,132.0,0.0,122.0,127.0,21.0,-100.0,-81.0,126.0,126.0,127.0,102.0,84.0,-5.0
110.0,114.0,128.0,125.0,132.0,0.0,122.0,127.0,21.0,-100.0,-81.0,126.0,126.0,127.0,102.0,84.0,-5.0
110.0,114.0,128.0,125.0,132.0,0.0,122.0,127.0,21.0,-100.0,-81.0,126.0,126.0,127.0,102.0,84.0,-5.0
110.0,114.0,128.0,125.0,132.0,0.0,122.0,127.0,21.0,-100.0,-81.0,126.0,126.0,127.0,102.0,84.0,-5.0
110.0,114.0,128.0,125.0,132.0,0.0,122.0,127.0,21.0,-100.0,-81.0,126.0,126.0,127.0,102.0,84.0,-5.0
110.0,114.0,128.0,125.0,132.0,0.0,122.0,127.0,21.0,-100.0,-81.0,126.0,126.0,127.0,102.0,84.0,-5.0
110.0,114.0,128.0,125.0,132.0,0.0,122.0,127.0,21.0,-100.0,-81.0,126.0,126.0,127.0,102.0,84.0,-5.0
111.0,117.0,127.0,126.0,132.0,0.0,121.0,127.0,21.0,-100.0,-81.0,126.0,126.0,127.0,102.0,84.0,-5.0
111.0,117.0,127.0,126.0,132.0,0.0,121.0,127.0,21.0,-100.0,-81.0,126.0,126.0,127.0,102.0,84.0,-5.0
111.0,117.0,127.0,126.0,132.0,0.0,121.0,127.0,21.0,-100.0,-81.0,126.0,126.0,127.0,102.0,84.0,-5.0
111.0,117.0,127.0,126.0,132.0,0.0,122.0,127.0,21.0,-100.0,-81.0,126.0,126.0,127.0,102.0,84.0,-5.0
111.0,117.0,127.0,126.0,132.0,0.0,122.0,127.0,21.0,-100.0,-81.0,126.0,126.0,127.0,102.0,84.0,-5.0
111.0,117.0,127.0,126.0,132.0,0.0,122.0,127.0,21.0,-100.0,-81.0,126.0,126.0,127.0,102.0,84.0,-5.0
111.0,117.0,127.0,126.0,132.0,0.0,122.0,127.0,21.0,-100.0,-81.0,126.0,126.0,127.0,102.0,84.0,-5.0
111.0,117.0,127.0,126.0,132.0,0.0,122.0,127.0,21.0,-100.0,-81.0,126.0,126.0,127.0,102.0,84.0,-5.0
111.0,117.0,127.0,126.0,132.0,0.0,122.0,127.0,21.0,-100.0,-81.0,126.0,126.0,127.0,102.0,84.0,-5.0
111.0,118.0,127.0,126.0,132.0,0.0,122.0,127.0,21.0,-100.0,-81.0,126.0,126.0,127.0,102.0,84.0,-5.0
113.0,122.0,125.0,127.0,132.0,0.0,124.0,128.0,21.0,-100.0,-80.0,126.0,126.0,127.0,103.0,84.0,-5.0
113.0,122.0,125.0,127.0,132.0,0.0,124.0,128.0,21.0,-100.0,-80.0,126.0,126.0,127.0,103.0,84.0,-5.0
113.0,121.0,125.0,127.0,132.0,0.0,124.0,128.0,21.0,-100.0,-80.0,126.0,126.0,127.0,103.0,84.0,-5.0
113.0,121.0,125.0,127.0,132.0,0.0,124.0,128.0,21.0,-100.0,-80.0,126.0,126.0,127.0,103.0,84.0,-5.0
113.0,122.0,125.0,127.0,132.0,0.0,124.0,128.0,21.0,-100.0,-80.0,126.0,126.0,127.0,103.0,84.0,-5.0
113.0,122.0,125.0,127.0,132.0,0.0,125.0,128.0,21.0,-100.0,-80.0,126.0,126.0,127.0,103.0,84.0,-5.0
113.0,122.0,125.0,127.0,132.0,0.0,125.0,128.0,21.0,-100.0,-80.0,126.0,126.0,127.0,103.0,84.0,-5.0
113.0,122.0,125.0,127.0,132.0,0.0,125.0,128.0,21.0,-100.0,-80.0,126.0,126.0,127.0,103.0,84.0,-5.0
113.0,122.0,125.0,127.0,132.0,0.0,125.0,128.0,21.0,-100.0,-80.0,126.0,126.0,127.0,103.0,84.0,-5.0
113.0,122.0,125.0,127.0,132.0,0.0,124.0,128.0,21.0,-100.0,-80.0,126.0,126.0,127.0,103.0,84.0,-5.0
115.0,123.0,125.0,129.0,132.0,0.0,126.0,128.0,21.0,-101.0,-80.0,126.0,126.0,127.0,104.0,84.0,-5.0
115.0,123.0,125.0,128.0,132.0,0.0,126.0,128.0,21.0,-101.0,-80.0,126.0,126.0,127.0,104.0,84.0,-5.0
115.0,123.0,125.0,128.0,132.0,0.0,126.0,128.0,21.0,-101.0,-80.0,126.0,126.0,127.0,104.0,84.0,-5.0
115.0,123.0,125.0,128.0,132.0,0.0,126.0,128.0,21.0,-101.0,-80.0,126.0,126.0,127.0,104.0,84.0,-5.0
115.0,123.0,125.0,128.0,132.0,0.0,126.0,128.0,21.0,-101.0,-80.0,126.0,126.0,127.0,104.0,84.0,-5.0
115.0,123.0,125.0,128.0,132.0,0.0,126.0,128.0,21.0,-101.0,-80.0,126.0,126.0,127.0,104.0,84.0,-5.0
115.0,123.0,125.0,128.0,132.0,0.0,126.0,128.0,21.0,-101.0,-80.0,126.0,126.0,127.0,104.0,84.0,-5.0
115.0,123.0,125.0,129.0,132.0,0.0,126.0,128.0,21.0,-101.0,-80.0,126.0,126.0,127.0,104.0,84.0,-5.0
115.0,123.0,125.0,128.0,132.0,0.0,126.0,128.0,21.0,-101.0,-80.0,126.0,126.0,127.0,104.0,84.0,-5.0
115.0,123.0,125.0,128.0,132.0,0.0,126.0,128.0,21.0,-101.0,-80.0,126.0,126.0,127.0,104.0,84.0,-5.0
116.0,123.0,126.0,130.0,130.0,0.0,126.0,128.0,22.0,-102.0,-79.0,126.0,126.0,127.0,104.0,84.0,-5.0
116.0,124.0,126.0,130.0,130.0,0.0,126.0,128.0,22.0,-102.0,-79.0,126.0,126.0,127.0,104.0,84.0,-5.0
116.0,124.0,126.0,130.0,131.0,0.0,126.0,128.0,22.0,-102.0,-79.0,126.0,126.0,127.0,104.0,84.0,-5.0
116.0,123.0,126.0,130.0,130.0,0.0,126.0,128.0,22.0,-102.0,-79.0,126.0,126.0,127.0,104.0,84.0,-5.0
116.0,123.0,126.0,130.0,130.0,0.0,126.0,128.0,22.0,-102.0,-79.0,126.0,126.0,127.0,104.0,84.0,-5.0
116.0,123.0,126.0,130.0,130.0,0.0,126.0,128.0,22.0,-102.0,-79.0,126.0,126.0,127.0,104.0,84.0,-5.0
116.0,123.0,126.0,130.0,130.0,0.0,126.0,128.0,22.0,-102.0,-79.0,126.0,126.0,127.0,104.0,84.0,-5.0
116.0,123.0,126.0,130.0,131.0,0.0,126.0,128.0,22.0,-102.0,-79.0,126.0,126.0,127.0,104.0,84.0,-5.0
116.0,123.0,126.0,130.0,131.0,0.0,126.0,128.0,22.0,-102.0,-79.0,126.0,126.0,127.0,104.0,84.0,-5.0
116.0,123.0,126.0,130.0,130.0,0.0,126.0,128.0,22.0,-102.0,-79.0,126.0,126.0,127.0,104.0,84.0,-5.0
118.0,123.0,126.0,130.0,128.0,0.0,125.0,127.0,22.0,-102.0,-79.0,126.0,126.0,127.0,104.0,84.0,-5.0
118.0,123.0,126.0,130.0,128.0,0.0,125.0,128.0,22.0,-102.0,-79.0,126.0,126.0,127.0,104.0,84.0,-5.0
118.0,123.0,126.0,130.0,128.0,0.0,125.0,128.0,22.0,-102.0,-79.0,126.0,126.0,127.0,104.0,84.0,-5.0
118.0,123.0,126.0,130.0,128.0,0.0,125.0,127.0,22.0,-102.0,-79.0,126.0,126.0,127.0,104.0,84.0,-5.0
118.0,123.0,126.0,130.0,128.0,0.0,125.0,127.0,22.0,-102.0,-79.0,126.0,126.0,127.0,104.0,84.0,-5.0
118.0,123.0,126.0,130.0,128.0,0.0,126.0,128.0,22.0,-102.0,-79.0,126.0,126.0,127.0,104.0,84.0,-5.0
117.0,123.0,126.0,130.0,129.0,0.0,125.0,128.0,22.0,-102.0,-79.0,126.0,126.0,127.0,104.0,84.0,-5.0
117.0,123.0,126.0,130.0,129.0,0.0,125.0,128.0,22.0,-102.0,-79.0,126.0,126.0,127.0,104.0,84.0,-5.0
118.0,123.0,126.0,130.0,128.0,0.0,125.0,127.0,22.0,-102.0,-79.0,126.0,126.0,127.0,104.0,84.0,-5.0
118.0,123.0,126.0,130.0,128.0,0.0,125.0,128.0,22.0,-102.0,-79.0,126.0,126.0,127.0,104.0,84.0,-5.0
118.0,123.0,126.0,130.0,127.0,0.0,125.0,127.0,22.0,-102.0,-78.0,126.0,126.0,127.0,105.0,84.0,-5.0
118.0,123.0,126.0,130.0,127.0,0.0,125.0,127.0,22.0,-102.0,-78.0,126.0,126.0,127.0,105.0,84.0,-5.0
118.0,123.0,126.0,130.0,127.0,0.0,126.0,127.0,22.0,-102.0,-78.0,126.0,126.0,127.0,105.0,84.0,-5.0
118.0,123.0,126.0,129.0,127.0,0.0,126.0,127.0,22.0,-102.0,-78.0,126.0,126.0,127.0,105.0,84.0,-5.0
118.0,123.0,126.0,129.0,127.0,0.0,126.0,127.0,22.0,-102.0,-78.0,126.0,126.0,127.0,105.0,84.0,-5.0
118.0,123.0,126.0,130.0,128.0,0.0,125.0,127.0,22.0,-102.0,-78.0,126.0,126.0,127.0,105.0,84.0,-5.0
118.0,123.0,126.0,130.0,128.0,0.0,125.0,127.0,22.0,-102.0,-78.0,126.0,126.0,127.0,105.0,84.0,-5.0
118.0,123.0,126.0,130.0,128.0,0.0,125.0,127.0,22.0,-102.0,-78.0,126.0,126.0,127.0,105.0,84.0,-5.0
118.0,123.0,126.0,130.0,128.0,0.0,125.0,127.0,22.0,-102.0,-78.0,126.0,126.0,127.0,105.0,84.0,-5.0
118.0,123.0,126.0,130.0,127.0,0.0,125.0,127.0,22.0,-102.0,-78.0,126.0,126.0,127.0,105.0,84.0,-5.0
120.0,124.0,127.0,130.0,127.0,0.0,126.0,127.0,23.0,-102.0,-77.0,126.0,126.0,127.0,105.0,84.0,-5.0
120.0,124.0,127.0,130.0,127.0,0.0,126.0,127.0,23.0,-102.0,-77.0,126.0,126.0,127.0,105.0,84.0,-5.0
120.0,123.0,127.0,130.0,127.0,0.0,126.0,127.0,23.0,-102.0,-77.0,126.0,126.0,127.0,105.0,84.0,-5.0
120.0,123.0,128.0,130.0,127.0,0.0,126.0,127.0,23.0,-102.0,-77.0,126.0,126.0,127.0,105.0,84.0,-5.0
119.0,124.0,127.0,130.0,127.0,0.0,125.0,127.0,23.0,-102.0,-77.0,126.0,126.0,127.0,105.0,84.0,-5.0
119.0,124.0,127.0,130.0,127.0,0.0,126.0,127.0,23.0,-102.0,-77.0,126.0,126.0,127.0,105.0,84.0,-5.0
120.0,124.0,127.0,130.0,127.0,0.0,126.0,127.0,23.0,-102.0,-77.0,126.0,126.0,127.0,105.0,84.0,-5.0
120.0,124.0,127.0,130.0,127.0,0.0,126.0,127.0,23.0,-102.0,-77.0,126.0,126.0,127.0,105.0,84.0,-5.0
120.0,124.0,127.0,130.0,127.0,0.0,126.0,127.0,23.0,-102.0,-77.0,126.0,126.0,127.0,105.0,84.0,-5.0
120.0,124.0,127.0,130.0,127.0,0.0,126.0,127.0,23.0,-102.0,-77.0,126.0,126.0,127.0,105.0,84.0,-5.0
122.0,125.0,129.0,130.0,126.0,0.0,126.0,127.0,23.0,-103.0,-77.0,126.0,126.0,127.0,106.0,84.0,-5.0
122.0,125.0,128.0,130.0,126.0,0.0,126.0,127.0,23.0,-103.0,-77.0,126.0,126.0,127.0,106.0,84.0,-5.0
121.0,125.0,128.0,130.0,126.0,0.0,126.0,127.0,23.0,-103.0,-77.0,126.0,126.0,127.0,106.0,84.0,-5.0
121.0,125.0,128.0,130.0,126.0,0.0,126.0,127.0,23.0,-103.0,-77.0,126.0,126.0,127.0,106.0,84.0,-5.0
121.0,125.0,128.0,130.0,126.0,0.0,126.0,127.0,23.0,-103.0,-77.0,126.0,126.0,127.0,106.0,84.0,-5.0
121.0,125.0,128.0,130.0,126.0,0.0,126.0,127.0,23.0,-103.0,-77.0,126.0,126.0,127.0,106.0,84.0,-5.0
121.0,125.0,128.0,130.0,126.0,0.0,126.0,127.0,23.0,-103.0,-77.0,126.0,126.0,127.0,106.0,84.0,-5.0
121.0,125.0,128.0,130.0,126.0,0.0,126.0,127.0,23.0,-103.0,-77.0,126.0,126.0,127.0,106.0,84.0,-5.0
121.0,125.0,128.0,130.0,126.0,0.0,126.0,127.0,23.0,-103.0,-77.0,126.0,126.0,127.0,106.0,84.0,-5.0
121.0,125.0,129.0,130.0,126.0,0.0,126.0,128.0,23.0,-103.0,-77.0,126.0,126.0,127.0,106.0,84.0,-5.0
123.0,125.0,128.0,130.0,125.0,0.0,125.0,127.0,24.0,-103.0,-76.0,126.0,127.0,127.0,106.0,84.0,-5.0
123.0,126.0,128.0,130.0,126.0,0.0,125.0,127.0,24.0,-103.0,-76.0,126.0,127.0,127.0,106.0,84.0,-5.0
123.0,126.0,128.0,130.0,126.0,0.0,125.0,127.0,24.0,-103.0,-76.0,126.0,127.0,127.0,106.0,84.0,-5.0
123.0,126.0,128.0,130.0,126.0,0.0,125.0,127.0,24.0,-103.0,-76.0,126.0,127.0,127.0,106.0,84.0,-5.0
123.0,126.0,128.0,130.0,126.0,0.0,125.0,127.0,24.0,-103.0,-76.0,126.0,127.0,127.0,106.0,84.0,-5.0
123.0,126.0,128.0,130.0,125.0,0.0,125.0,127.0,24.0,-103.0,-76.0,126.0,127.0,127.0,106.0,84.0,-5.0
123.0,126.0,128.0,130.0,125.0,0.0,125.0,127.0,24.0,-103.0,-76.0,126.0,127.0,127.0,106.0,84.0,-5.0
123.0,126.0,128.0,130.0,125.0,0.0,125.0,127.0,24.0,-103.0,-76.0,126.0,127.0,127.0,106.0,84.0,-5.0
123.0,126.0,128.0,130.0,125.0,0.0,125.0,127.0,24.0,-103.0,-76.0,126.0,127.0,127.0,106.0,84.0,-5.0
123.0,125.0,128.0,130.0,125.0,0.0,125.0,127.0,24.0,-103.0,-76.0,126.0,127.0,127.0,106.0,84.0,-5.0
123.0,126.0,127.0,130.0,126.0,0.0,126.0,128.0,24.0,-103.0,-76.0,126.0,127.0,127.0,106.0,84.0,-5.0
124.0,126.0,127.0,130.0,126.0,0.0,126.0,128.0,24.0,-103.0,-76.0,126.0,127.0,127.0,106.0,84.0,-5.0
124.0,126.0,127.0,130.0,126.0,0.0,126.0,128.0,24.0,-103.0,-76.0,126.0,127.0,127.0,106.0,84.0,-5.0
124.0,126.0,127.0,130.0,125.0,0.0,126.0,128.0,24.0,-103.0,-76.0,126.0,127.0,127.0,106.0,84.0,-5.0
124.0,126.0,127.0,130.0,125.0,0.0,126.0,128.0,24.0,-103.0,-76.0,126.0,127.0,127.0,106.0,84.0,-5.0
123.0,126.0,127.0,130.0,125.0,0.0,126.0,127.0,24.0,-103.0,-76.0,126.0,127.0,127.0,106.0,84.0,-5.0
123.0,125.0,127.0,130.0,125.0,0.0,126.0,127.0,24.0,-103.0,-76.0,126.0,127.0,127.0,106.0,84.0,-5.0
124.0,125.0,127.0,130.0,125.0,0.0,126.0,127.0,24.0,-103.0,-76.0,126.0,127.0,127.0,106.0,84.0,-5.0
124.0,125.0,127.0,130.0,125.0,0.0,126.0,127.0,24.0,-103.0,-76.0,126.0,127.0,127.0,106.0,84.0,-5.0
124.0,125.0,127.0,130.0,125.0,0.0,126.0,127.0,24.0,-103.0,-76.0,126.0,127.0,127.0,106.0,84.0,-5.0
124.0,127.0,126.0,131.0,126.0,0.0,126.0,128.0,25.0,-104.0,-75.0,126.0,127.0,127.0,107.0,84.0,-5.0
124.0,126.0,127.0,131.0,126.0,0.0,126.0,128.0,25.0,-104.0,-75.0,126.0,127.0,127.0,107.0,84.0,-5.0
124.0,126.0,127.0,130.0,126.0,0.0,126.0,128.0,25.0,-104.0,-75.0,126.0,127.0,127.0,107.0,84.0,-5.0
124.0,126.0,127.0,130.0,125.0,0.0,126.0,128.0,25.0,-104.0,-75.0,126.0,127.0,127.0,107.0,84.0,-5.0
124.0,126.0,127.0,130.0,125.0,0.0,126.0,128.0,25.0,-104.0,-75.0,126.0,127.0,127.0,107.0,84.0,-5.0
124.0,126.0,127.0,130.0,125.0,0.0,126.0,128.0,25.0,-104.0,-75.0,126.0,127.0,127.0,107.0,84.0,-5.0
124.0,126.0,127.0,130.0,125.0,0.0,126.0,128.0,25.0,-104.0,-75.0,126.0,127.0,127.0,107.0,84.0,-5.0
124.0,126.0,127.0,130.0,125.0,0.0,126.0,128.0,25.0,-104.0,-75.0,126.0,127.0,127.0,107.0,84.0,-5.0
124.0,126.0,127.0,130.0,125.0,0.0,126.0,128.0,25.0,-104.0,-75.0,126.0,127.0,127.0,107.0,84.0,-5.0
124.0,127.0,126.0,130.0,126.0,0.0,126.0,128.0,25.0,-104.0,-75.0,126.0,127.0,127.0,107.0,84.0,-5.0
123.0,126.0,125.0,130.0,125.0,0.0,127.0,127.0,25.0,-104.0,-75.0,126.0,127.0,127.0,107.0,84.0,-5.0
123.0,126.0,125.0,130.0,125.0,0.0,127.0,127.0,25.0,-104.0,-75.0,126.0,127.0,127.0,107.0,84.0,-5.0
123.0,126.0,126.0,130.0,125.0,0.0,127.0,127.0,25.0,-104.0,-75.0,126.0,127.0,127.0,107.0,84.0,-5.0
123.0,126.0,126.0,130.0,125.0,0.0,127.0,127.0,25.0,-104.0,-75.0,126.0,127.0,127.0,107.0,84.0,-5.0
123.0,125.0,126.0,129.0,125.0,0.0,127.0,127.0,25.0,-104.0,-75.0,126.0,127.0,127.0,107.0,84.0,-5.0
123.0,126.0,126.0,129.0,125.0,0.0,127.0,127.0,25.0,-104.0,-75.0,126.0,127.0,127.0,107.0,84.0,-5.0
123.0,126.0,126.0,129.0,125.0,0.0,127.0,127.0,25.0,-104.0,-75.0,126.0,127.0,127.0,107.0,84.0,-5.0
123.0,126.0,126.0,129.0,126.0,0.0,127.0,127.0,25.0,-104.0,-75.0,126.0,127.0,127.0,107.0,84.0,-5.0
123.0,126.0,126.0,130.0,125.0,0.0,127.0,127.0,25.0,-104.0,-75.0,126.0,127.0,127.0,107.0,84.0,-5.0
123.0,126.0,126.0,130.0,125.0,0.0,127.0,127.0,25.0,-104.0,-75.0,126.0,127.0,127.0,107.0,84.0,-5.0
123.0,127.0,127.0,130.0,127.0,0.0,127.0,127.0,25.0,-104.0,-75.0,126.0,127.0,127.0,108.0,84.0,-5.0
123.0,127.0,127.0,130.0,127.0,0.0,127.0,127.0,25.0,-104.0,-75.0,126.0,127.0,127.0,108.0,84.0,-5.0
123.0,127.0,127.0,130.0,127.0,0.0,127.0,127.0,25.0,-104.0,-75.0,126.0,127.0,127.0,108.0,84.0,-5.0
124.0,127.0,127.0,130.0,127.0,0.0,127.0,127.0,25.0,-104.0,-75.0,126.0,127.0,127.0,108.0,84.0,-5.0
123.0,127.0,127.0,130.0,127.0,0.0,127.0,127.0,25.0,-104.0,-75.0,126.0,127.0,127.0,108.0,84.0,-5.0
123.0,126.0,127.0,130.0,126.0,0.0,128.0,127.0,25.0,-104.0,-75.0,126.0,127.0,127.0,108.0,84.0,-5.0
123.0,126.0,127.0,130.0,126.0,0.0,128.0,127.0,25.0,-104.0,-75.0,126.0,127.0,127.0,108.0,84.0,-5.0
123.0,126.0,127.0,130.0,126.0,0.0,128.0,127.0,25.0,-104.0,-75.0,126.0,127.0,127.0,108.0,84.0,-5.0
123.0,126.0,127.0,130.0,126.0,0.0,128.0,127.0,25.0,-104.0,-75.0,126.0,127.0,127.0,108.0,84.0,-5.0
123.0,126.0,127.0,130.0,126.0,0.0,127.0,127.0,25.0,-104.0,-75.0,126.0,127.0,127.0,108.0,84.0,-5.0
123.0,127.0,126.0,129.0,126.0,0.0,127.0,127.0,26.0,-104.0,-74.0,126.0,127.0,127.0,108.0,84.0,-5.0
123.0,127.0,126.0,129.0,126.0,0.0,127.0,127.0,26.0,-104.0,-74.0,126.0,127.0,127.0,108.0,84.0,-5.0
123.0,126.0,126.0,129.0,126.0,0.0,127.0,127.0,26.0,-104.0,-74.0,126.0,127.0,127.0,108.0,84.0,-5.0
123.0,126.0,126.0,129.0,126.0,0.0,127.0,127.0,26.0,-104.0,-74.0,126.0,127.0,127.0,108.0,84.0,-5.0
123.0,126.0,126.0,129.0,126.0,0.0,127.0,127.0,26.0,-104.0,-74.0,126.0,127.0,127.0,108.0,84.0,-5.0
123.0,126.0,126.0,129.0,126.0,0.0,127.0,127.0,26.0,-104.0,-74.0,126.0,127.0,127.0,108.0,84.0,-5.0
123.0,126.0,127.0,129.0,126.0,0.0,127.0,127.0,26.0,-104.0,-74.0,126.0,127.0,127.0,108.0,84.0,-5.0
123.0,126.0,127.0,129.0,126.0,0.0,127.0,127.0,26.0,-104.0,-74.0,126.0,127.0,127.0,108.0,84.0,-5.0
123.0,126.0,126.0,129.0,126.0,0.0,127.0,127.0,26.0,-104.0,-74.0,126.0,127.0,127.0,108.0,84.0,-5.0
123.0,127.0,126.0,129.0,126.0,0.0,127.0,127.0,26.0,-104.0,-74.0,126.0,127.0,127.0,108.0,84.0,-5.0
123.0,127.0,127.0,129.0,126.0,0.0,126.0,127.0,26.0,-104.0,-74.0,126.0,127.0,127.0,108.0,84.0,-5.0
123.0,127.0,127.0,129.0,126.0,0.0,126.0,127.0,26.0,-104.0,-74.0,126.0,127.0,127.0,108.0,84.0,-5.0
123.0,127.0,127.0,129.0,126.0,0.0,126.0,127.0,26.0,-104.0,-74.0,126.0,127.0,127.0,108.0,84.0,-5.0
123.0,127.0,127.0,129.0,126.0,0.0,126.0,127.0,26.0,-104.0,-74.0,126.0,127.0,127.0,108.0,84.0,-5.0
124.0,127.0,127.0,129.0,126.0,0.0,126.0,127.0,26.0,-104.0,-74.0,126.0,127.0,127.0,108.0,84.0,-5.0
123.0,127.0,126.0,129.0,125.0,0.0,126.0,127.0,26.0,-104.0,-74.0,126.0,127.0,127.0,108.0,84.0,-5.0
123.0,127.0,127.0,129.0,125.0,0.0,126.0,127.0,26.0,-104.0,-74.0,126.0,127.0,127.0,108.0,84.0,-5.0
123.0,127.0,127.0,129.0,125.0,0.0,126.0,127.0,26.0,-104.0,-74.0,126.0,127.0,127.0,108.0,84.0,-5.0
123.0,127.0,127.0,129.0,126.0,0.0,126.0,127.0,26.0,-104.0,-74.0,126.0,127.0,127.0,108.0,84.0,-5.0
123.0,127.0,127.0,129.0,126.0,0.0,126.0,127.0,26.0,-104.0,-74.0,126.0,127.0,127.0,108.0,84.0,-5.0
124.0,128.0,128.0,129.0,126.0,0.0,126.0,127.0,26.0,-104.0,-74.0,126.0,127.0,127.0,108.0,84.0,-5.0
124.0,128.0,128.0,129.0,126.0,0.0,126.0,127.0,26.0,-104.0,-74.0,126.0,127.0,127.0,108.0,84.0,-5.0
124.0,127.0,128.0,129.0,126.0,0.0,126.0,127.0,26.0,-104.0,-74.0,126.0,127.0,127.0,108.0,84.0,-5.0
124.0,127.0,128.0,129.0,126.0,0.0,126.0,127.0,26.0,-104.0,-74.0,126.0,127.0,127.0,108.0,84.0,-5.0
124.0,128.0,128.0,129.0,126.0,0.0,126.0,127.0,26.0,-104.0,-74.0,126.0,127.0,127.0,108.0,84.0,-5.0
124.0,128.0,128.0,129.0,126.0,0.0,126.0,127.0,26.0,-104.0,-74.0,126.0,127.0,127.0,108.0,84.0,-5.0
124.0,128.0,128.0,129.0,126.0,0.0,126.0,127.0,26.0,-104.0,-74.0,126.0,127.0,127.0,108.0,84.0,-5.0
124.0,128.0,128.0,129.0,126.0,0.0,126.0,127.0,26.0,-104.0,-74.0,126.0,127.0,127.0,108.0,84.0,-5.0
124.0,128.0,128.0,129.0,126.0,0.0,126.0,127.0,26.0,-104.0,-74.0,126.0,127.0,127.0,108.0,84.0,-5.0
124.0,128.0,128.0,129.0,126.0,0.0,126.0,127.0,26.0,-104.0,-74.0,126.0,127.0,127.0,108.0,84.0,-5.0
124.0,127.0,128.0,128.0,125.0,0.0,126.0,127.0,26.0,-104.0,-74.0,126.0,127.0,127.0,109.0,84.0,-5.0
124.0,127.0,128.0,128.0,125.0,0.0,126.0,127.0,26.0,-104.0,-74.0,126.0,127.0,127.0,109.0,84.0,-5.0
124.0,127.0,128.0,128.0,125.0,0.0,126.0,128.0,26.0,-104.0,-74.0,126.0,127.0,127.0,109.0,84.0,-5.0
124.0,128.0,129.0,128.0,125.0,0.0,126.0,128.0,26.0,-104.0,-74.0,126.0,127.0,127.0,109.0,84.0,-5.0
124.0,128.0,129.0,128.0,125.0,0.0,126.0,128.0,26.0,-104.0,-74.0,126.0,127.0,127.0,109.0,84.0,-5.0
124.0,127.0,129.0,128.0,125.0,0.0,126.0,128.0,26.0,-104.0,-74.0,126.0,127.0,127.0,109.0,84.0,-5.0
124.0,128.0,128.0,128.0,125.0,0.0,126.0,128.0,26.0,-104.0,-74.0,126.0,127.0,127.0,109.0,84.0,-5.0
124.0,128.0,128.0,128.0,125.0,0.0,126.0,127.0,26.0,-104.0,-74.0,126.0,127.0,127.0,109.0,84.0,-5.0
124.0,128.0,128.0,128.0,125.0,0.0,126.0,128.0,26.0,-104.0,-74.0,126.0,127.0,127.0,109.0,84.0,-5.0
124.0,127.0,128.0,128.0,125.0,0.0,126.0,128.0,26.0,-104.0,-74.0,126.0,127.0,127.0,109.0,84.0,-5.0
124.0,127.0,127.0,128.0,125.0,0.0,127.0,127.0,26.0,-104.0,-74.0,126.0,127.0,127.0,109.0,84.0,-5.0
124.0,127.0,127.0,128.0,125.0,0.0,127.0,127.0,26.0,-104.0,-74.0,126.0,127.0,127.0,109.0,84.0,-5.0
124.0,127.0,127.0,128.0,125.0,0.0,127.0,127.0,26.0,-104.0,-74.0,126.0,127.0,127.0,109.0,84.0,-5.0
124.0,127.0,127.0,128.0,125.0,0.0,127.0,127.0,26.0,-104.0,-74.0,126.0,127.0,127.0,109.0,84.0,-5.0
124.0,127.0,127.0,128.0,125.0,0.0,127.0,127.0,26.0,-104.0,-74.0,126.0,127.0,127.0,109.0,84.0,-5.0
124.0,128.0,127.0,128.0,125.0,0.0,126.0,127.0,26.0,-104.0,-74.0,126.0,127.0,127.0,109.0,84.0,-5.0
124.0,127.0,127.0,128.0,125.0,0.0,127.0,127.0,26.0,-104.0,-74.0,126.0,127.0,127.0,109.0,84.0,-5.0
124.0,127.0,127.0,128.0,125.0,0.0,127.0,127.0,26.0,-104.0,-74.0,126.0,127.0,127.0,109.0,84.0,-5.0
124.0,127.0,127.0,128.0,125.0,0.0,127.0,127.0,26.0,-104.0,-74.0,126.0,127.0,127.0,109.0,84.0,-5.0
124.0,127.0,127.0,128.0,125.0,0.0,127.0,127.0,26.0,-104.0,-74.0,126.0,127.0,127.0,109.0,84.0,-5.0
123.0,127.0,124.0,128.0,125.0,0.0,126.0,127.0,26.0,-104.0,-74.0,126.0,127.0,127.0,110.0,84.0,-5.0
124.0,127.0,124.0,128.0,125.0,0.0,126.0,127.0,26.0,-104.0,-74.0,126.0,127.0,127.0,110.0,84.0,-5.0
124.0,127.0,124.0,128.0,125.0,0.0,126.0,127.0,26.0,-104.0,-74.0,126.0,127.0,127.0,110.0,84.0,-5.0
124.0,127.0,124.0,128.0,125.0,0.0,126.0,127.0,26.0,-104.0,-74.0,126.0,127.0,127.0,110.0,84.0,-5.0
123.0,127.0,124.0,128.0,125.0,0.0,126.0,127.0,26.0,-104.0,-74.0,126.0,127.0,127.0,110.0,84.0,-5.0
123.0,127.0,124.0,128.0,125.0,0.0,126.0,127.0,26.0,-104.0,-74.0,126.0,127.0,127.0,110.0,84.0,-5.0
123.0,127.0,124.0,128.0,125.0,0.0,126.0,127.0,26.0,-104.0,-74.0,126.0,127.0,127.0,110.0,84.0,-5.0
123.0,127.0,124.0,128.0,125.0,0.0,126.0,127.0,26.0,-104.0,-74.0,126.0,127.0,127.0,110.0,84.0,-5.0
123.0,127.0,124.0,128.0,125.0,0.0,126.0,127.0,26.0,-104.0,-74.0,126.0,127.0,127.0,110.0,84.0,-5.0
123.0,127.0,124.0,128.0,125.0,0.0,126.0,127.0,26.0,-104.0,-74.0,126.0,127.0,127.0,110.0,84.0,-5.0
123.0,127.0,125.0,128.0,126.0,0.0,126.0,127.0,25.0,-104.0,-74.0,127.0,127.0,127.0,110.0,84.0,-5.0
123.0,127.0,125.0,128.0,126.0,0.0,126.0,127.0,25.0,-104.0,-74.0,127.0,127.0,127.0,110.0,84.0,-5.0
123.0,127.0,125.0,128.0,126.0,0.0,127.0,127.0,25.0,-104.0,-74.0,127.0,127.0,127.0,110.0,84.0,-5.0
123.0,127.0,125.0,128.0,126.0,0.0,127.0,127.0,25.0,-104.0,-74.0,127.0,127.0,127.0,110.0,84.0,-5.0
123.0,127.0,125.0,128.0,126.0,0.0,126.0,127.0,25.0,-104.0,-74.0,127.0,127.0,127.0,110.0,84.0,-5.0
123.0,127.0,125.0,128.0,126.0,0.0,126.0,127.0,25.0,-104.0,-74.0,127.0,127.0,127.0,110.0,84.0,-5.0
123.0,127.0,125.0,128.0,126.0,0.0,126.0,127.0,25.0,-104.0,-74.0,127.0,127.0,127.0,110.0,84.0,-5.0
123.0,127.0,125.0,128.0,126.0,0.0,126.0,127.0,25.0,-104.0,-74.0,127.0,127.0,127.0,110.0,84.0,-5.0
123.0,127.0,125.0,128.0,126.0,0.0,126.0,127.0,25.0,-104.0,-74.0,127.0,127.0,127.0,110.0,84.0,-5.0
123.0,127.0,125.0,128.0,126.0,0.0,126.0,127.0,25.0,-104.0,-74.0,127.0,127.0,127.0,110.0,84.0,-5.0
123.0,128.0,127.0,128.0,126.0,0.0,126.0,127.0,25.0,-104.0,-74.0,127.0,127.0,127.0,110.0,84.0,-5.0
123.0,127.0,127.0,128.0,126.0,0.0,126.0,127.0,25.0,-104.0,-74.0,127.0,127.0,127.0,110.0,84.0,-5.0
123.0,127.0,128.0,128.0,126.0,0.0,126.0,127.0,25.0,-104.0,-74.0,127.0,127.0,127.0,110.0,84.0,-5.0
123.0,127.0,128.0,128.0,126.0,0.0,126.0,127.0,25.0,-104.0,-74.0,127.0,127.0,127.0,110.0,84.0,-5.0
123.0,127.0,128.0,128.0,126.0,0.0,126.0,127.0,25.0,-104.0,-74.0,127.0,127.0,127.0,110.0,84.0,-5.0
123.0,127.0,128.0,128.0,126.0,0.0,126.0,127.0,25.0,-104.0,-74.0,127.0,127.0,127.0,110.0,84.0,-5.0
123.0,127.0,128.0,128.0,126.0,0.0,126.0,127.0,25.0,-104.0,-74.0,127.0,127.0,127.0,110.0,84.0,-5.0
123.0,127.0,128.0,128.0,126.0,0.0,126.0,127.0,25.0,-104.0,-74.0,127.0,127.0,127.0,110.0,84.0,-5.0
123.0,127.0,128.0,128.0,126.0,0.0,126.0,127.0,25.0,-104.0,-74.0,127.0,127.0,127.0,110.0,84.0,-5.0
123.0,128.0,127.0,128.0,126.0,0.0,126.0,127.0,25.0,-104.0,-74.0,127.0,127.0,127.0,110.0,84.0,-5.0
122.0,127.0,126.0,127.0,126.0,0.0,126.0,127.0,25.0,-104.0,-74.0,127.0,127.0,127.0,111.0,84.0,-5.0
122.0,127.0,126.0,127.0,126.0,0.0,126.0,127.0,25.0,-104.0,-74.0,127.0,127.0,127.0,111.0,84.0,-5.0
122.0,127.0,126.0,127.0,126.0,0.0,126.0,127.0,25.0,-104.0,-74.0,127.0,127.0,127.0,111.0,84.0,-5.0
122.0,127.0,126.0,127.0,126.0,0.0,126.0,127.0,25.0,-104.0,-74.0,127.0,127.0,127.0,111.0,84.0,-5.0
122.0,127.0,126.0,127.0,126.0,0.0,126.0,127.0,25.0,-104.0,-74.0,127.0,127.0,127.0,111.0,84.0,-5.0
122.0,127.0,126.0,127.0,126.0,0.0,126.0,127.0,25.0,-104.0,-74.0,127.0,127.0,127.0,111.0,84.0,-5.0
122.0,126.0,125.0,127.0,126.0,0.0,126.0,127.0,25.0,-104.0,-74.0,127.0,127.0,127.0,111.0,84.0,-5.0
122.0,126.0,125.0,127.0,126.0,0.0,126.0,127.0,25.0,-104.0,-74.0,127.0,127.0,127.0,111.0,84.0,-5.0
122.0,127.0,126.0,127.0,126.0,0.0,126.0,127.0,25.0,-104.0,-74.0,127.0,127.0,127.0,111.0,84.0,-5.0
122.0,127.0,126.0,127.0,126.0,0.0,126.0,127.0,25.0,-104.0,-74.0,127.0,127.0,127.0,111.0,84.0,-5.0
122.0,127.0,122.0,127.0,126.0,0.0,126.0,127.0,25.0,-104.0,-74.0,127.0,127.0,127.0,111.0,84.0,-5.0
122.0,127.0,122.0,127.0,126.0,0.0,126.0,127.0,25.0,-104.0,-74.0,127.0,127.0,127.0,111.0,84.0,-5.0
122.0,127.0,122.0,127.0,126.0,0.0,126.0,127.0,25.0,-104.0,-74.0,127.0,127.0,127.0,111.0,84.0,-5.0
122.0,127.0,121.0,127.0,126.0,0.0,126.0,127.0,25.0,-104.0,-74.0,127.0,127.0,127.0,111.0,84.0,-5.0
122.0,127.0,121.0,127.0,126.0,0.0,126.0,127.0,25.0,-104.0,-74.0,127.0,127.0,127.0,111.0,84.0,-5.0
122.0,127.0,121.0,127.0,126.0,0.0,126.0,127.0,25.0,-104.0,-74.0,127.0,127.0,127.0,111.0,84.0,-5.0
122.0,127.0,121.0,127.0,126.0,0.0,126.0,127.0,25.0,-104.0,-74.0,127.0,127.0,127.0,111.0,84.0,-5.0
122.0,127.0,123.0,127.0,126.0,0.0,126.0,127.0,25.0,-104.0,-74.0,127.0,127.0,127.0,111.0,84.0,-5.0
122.0,127.0,123.0,127.0,126.0,0.0,126.0,127.0,25.0,-104.0,-74.0,127.0,127.0,127.0,111.0,84.0,-5.0
122.0,127.0,122.0,127.0,126.0,0.0,126.0,127.0,25.0,-104.0,-74.0,127.0,127.0,127.0,111.0,84.0,-5.0
123.0,127.0,121.0,128.0,127.0,0.0,126.0,127.0,25.0,-104.0,-74.0,127.0,127.0,127.0,111.0,84.0,-5.0
123.0,127.0,122.0,128.0,127.0,0.0,126.0,127.0,25.0,-104.0,-74.0,127.0,127.0,127.0,111.0,84.0,-5.0
123.0,127.0,122.0,128.0,127.0,0.0,126.0,127.0,25.0,-104.0,-74.0,127.0,127.0,127.0,111.0,84.0,-5.0
123.0,127.0,122.0,128.0,127.0,0.0,126.0,127.0,25.0,-104.0,-74.0,127.0,127.0,127.0,111.0,84.0,-5.0
123.0,127.0,122.0,128.0,127.0,0.0,126.0,127.0,25.0,-104.0,-74.0,127.0,127.0,127.0,111.0,84.0,-5.0
123.0,127.0,122.0,128.0,127.0,0.0,126.0,127.0,25.0,-104.0,-74.0,127.0,127.0,127.0,111.0,84.0,-5.0
123.0,127.0,121.0,128.0,127.0,0.0,126.0,127.0,25.0,-104.0,-74.0,127.0,127.0,127.0,111.0,84.0,-5.0
123.0,127.0,121.0,128.0,127.0,0.0,126.0,127.0,25.0,-104.0,-74.0,127.0,127.0,127.0,111.0,84.0,-5.0
123.0,127.0,121.0,128.0,127.0,0.0,126.0,127.0,25.0,-104.0,-74.0,127.0,127.0,127.0,111.0,84.0,-5.0
123.0,127.0,121.0,128.0,127.0,0.0,126.0,127.0,25.0,-104.0,-74.0,127.0,127.0,127.0,111.0,84.0,-5.0
122.0,127.0,129.0,127.0,127.0,0.0,127.0,127.0,25.0,-104.0,-74.0,127.0,127.0,127.0,111.0,84.0,-5.0
122.0,127.0,130.0,127.0,127.0,0.0,127.0,127.0,25.0,-104.0,-74.0,127.0,127.0,127.0,111.0,84.0,-5.0
122.0,126.0,130.0,127.0,127.0,0.0,127.0,127.0,25.0,-104.0,-74.0,127.0,127.0,127.0,111.0,84.0,-5.0
122.0,126.0,130.0,127.0,126.0,0.0,127.0,127.0,25.0,-104.0,-74.0,127.0,127.0,127.0,111.0,84.0,-5.0
122.0,127.0,128.0,127.0,127.0,0.0,127.0,127.0,25.0,-104.0,-74.0,127.0,127.0,127.0,111.0,84.0,-5.0
122.0,127.0,128.0,127.0,127.0,0.0,126.0,127.0,25.0,-104.0,-74.0,127.0,127.0,127.0,111.0,84.0,-5.0
122.0,127.0,129.0,127.0,127.0,0.0,126.0,127.0,25.0,-104.0,-74.0,127.0,127.0,127.0,111.0,84.0,-5.0
122.0,127.0,129.0,127.0,127.0,0.0,126.0,127.0,25.0,-104.0,-74.0,127.0,127.0,127.0,111.0,84.0,-5.0
122.0,127.0,129.0,127.0,127.0,0.0,126.0,127.0,25.0,-104.0,-74.0,127.0,127.0,127.0,111.0,84.0,-5.0
122.0,127.0,129.0,127.0,127.0,0.0,127.0,127.0,25.0,-104.0,-74.0,127.0,127.0,127.0,111.0,84.0,-5.0
123.0,127.0,134.0,127.0,127.0,0.0,127.0,127.0,25.0,-104.0,-74.0,127.0,127.0,127.0,111.0,84.0,-5.0
123.0,127.0,134.0,127.0,127.0,0.0,127.0,127.0,25.0,-104.0,-74.0,127.0,127.0,127.0,111.0,84.0,-5.0
123.0,127.0,134.0,127.0,127.0,0.0,127.0,127.0,25.0,-104.0,-74.0,127.0,127.0,127.0,111.0,84.0,-5.0
123.0,127.0,133.0,127.0,127.0,0.0,127.0,127.0,25.0,-104.0,-74.0,127.0,127.0,127.0,111.0,84.0,-5.0
123.0,127.0,133.0,127.0,127.0,0.0,127.0,127.0,25.0,-104.0,-74.0,127.0,127.0,127.0,111.0,84.0,-5.0
123.0,127.0,133.0,127.0,127.0,0.0,127.0,127.0,25.0,-104.0,-74.0,127.0,127.0,127.0,111.0,84.0,-5.0
123.0,127.0,133.0,127.0,127.0,0.0,127.0,127.0,25.0,-104.0,-74.0,127.0,127.0,127.0,111.0,84.0,-5.0
123.0,127.0,133.0,127.0,127.0,0.0,127.0,127.0,25.0,-104.0,-74.0,127.0,127.0,127.0,111.0,84.0,-5.0
123.0,127.0,134.0,127.0,127.0,0.0,127.0,127.0,25.0,-104.0,-74.0,127.0,127.0,127.0,111.0,84.0,-5.0
123.0,127.0,134.0,127.0,127.0,0.0,127.0,127.0,25.0,-104.0,-74.0,127.0,127.0,127.0,111.0,84.0,-5.0
123.0,127.0,131.0,127.0,127.0,0.0,126.0,127.0,25.0,-104.0,-73.0,127.0,127.0,127.0,111.0,85.0,-5.0
124.0,127.0,131.0,127.0,127.0,0.0,126.0,127.0,25.0,-104.0,-73.0,127.0,127.0,127.0,111.0,85.0,-5.0
123.0,127.0,131.0,127.0,127.0,0.0,127.0,127.0,25.0,-104.0,-73.0,127.0,127.0,127.0,111.0,85.0,-5.0
123.0,127.0,131.0,127.0,127.0,0.0,127.0,127.0,25.0,-104.0,-73.0,127.0,127.0,127.0,111.0,85.0,-5.0
123.0,127.0,131.0,127.0,127.0,0.0,126.0,127.0,25.0,-104.0,-73.0,127.0,127.0,127.0,111.0,85.0,-5.0
123.0,127.0,131.0,127.0,127.0,0.0,126.0,127.0,25.0,-104.0,-73.0,127.0,127.0,127.0,111.0,85.0,-5.0
123.0,127.0,131.0,127.0,127.0,0.0,126.0,127.0,25.0,-104.0,-73.0,127.0,127.0,127.0,111.0,85.0,-5.0
123.0,127.0,131.0,127.0,127.0,0.0,126.0,127.0,25.0,-104.0,-73.0,127.0,127.0,127.0,111.0,85.0,-5.0
123.0,127.0,131.0,127.0,127.0,0.0,126.0,127.0,25.0,-104.0,-73.0,127.0,127.0,127.0,111.0,85.0,-5.0
123.0,127.0,131.0,127.0,127.0,0.0,126.0,127.0,25.0,-104.0,-73.0,127.0,127.0,127.0,111.0,85.0,-5.0
124.0,127.0,128.0,127.0,127.0,0.0,126.0,127.0,25.0,-104.0,-73.0,127.0,127.0,127.0,112.0,85.0,-5.0
124.0,128.0,128.0,127.0,127.0,0.0,126.0,127.0,25.0,-104.0,-73.0,127.0,127.0,127.0,112.0,85.0,-5.0
124.0,128.0,128.0,127.0,127.0,0.0,126.0,127.0,25.0,-104.0,-73.0,127.0,127.0,127.0,112.0,85.0,-5.0
124.0,127.0,128.0,127.0,127.0,0.0,126.0,127.0,25.0,-104.0,-73.0,127.0,127.0,127.0,112.0,85.0,-5.0
124.0,127.0,128.0,127.0,127.0,0.0,126.0,127.0,25.0,-104.0,-73.0,127.0,127.0,127.0,112.0,85.0,-5.0
124.0,127.0,128.0,127.0,127.0,0.0,126.0,127.0,25.0,-104.0,-73.0,127.0,127.0,127.0,112.0,85.0,-5.0
124.0,128.0,128.0,127.0,127.0,0.0,126.0,127.0,25.0,-104.0,-73.0,127.0,127.0,127.0,112.0,85.0,-5.0
124.0,128.0,128.0,127.0,127.0,0.0,126.0,127.0,25.0,-104.0,-73.0,127.0,127.0,127.0,112.0,85.0,-5.0
124.0,128.0,128.0,127.0,127.0,0.0,126.0,127.0,25.0,-104.0,-73.0,127.0,127.0,127.0,112.0,85.0,-5.0
124.0,127.0,128.0,127.0,127.0,0.0,126.0,127.0,25.0,-104.0,-73.0,127.0,127.0,127.0,112.0,85.0,-5.0
124.0,128.0,126.0,127.0,127.0,0.0,126.0,127.0,25.0,-105.0,-73.0,127.0,127.0,127.0,112.0,85.0,-5.0
124.0,128.0,126.0,127.0,127.0,0.0,126.0,127.0,25.0,-105.0,-73.0,127.0,127.0,127.0,112.0,85.0,-5.0
124.0,128.0,126.0,127.0,127.0,0.0,126.0,127.0,25.0,-105.0,-73.0,127.0,127.0,127.0,112.0,85.0,-5.0
124.0,128.0,126.0,127.0,127.0,0.0,126.0,127.0,25.0,-105.0,-73.0,127.0,127.0,127.0,112.0,85.0,-5.0
124.0,128.0,126.0,127.0,127.0,0.0,126.0,127.0,25.0,-105.0,-73.0,127.0,127.0,127.0,112.0,85.0,-5.0
124.0,127.0,127.0,127.0,127.0,0.0,126.0,127.0,25.0,-105.0,-73.0,127.0,127.0,127.0,112.0,85.0,-5.0
124.0,127.0,127.0,127.0,127.0,0.0,126.0,127.0,25.0,-105.0,-73.0,127.0,127.0,127.0,112.0,85.0,-5.0
124.0,127.0,127.0,127.0,126.0,0.0,126.0,127.0,25.0,-105.0,-73.0,127.0,127.0,127.0,112.0,85.0,-5.0
124.0,127.0,127.0,127.0,126.0,0.0,126.0,127.0,25.0,-105.0,-73.0,127.0,127.0,127.0,112.0,85.0,-5.0
124.0,127.0,127.0,127.0,126.0,0.0,126.0,127.0,25.0,-105.0,-73.0,127.0,127.0,127.0,112.0,85.0,-5.0
124.0,128.0,129.0,127.0,127.0,57.0,126.0,127.0,25.0,-105.0,-73.0,127.0,127.0,127.0,112.0,85.0,-5.0
124.0,128.0,129.0,127.0,127.0,59.0,126.0,127.0,25.0,-105.0,-73.0,127.0,127.0,127.0,112.0,85.0,-5.0
124.0,127.0,129.0,127.0,127.0,60.0,126.0,127.0,25.0,-105.0,-73.0,127.0,127.0,127.0,112.0,85.0,-5.0
124.0,127.0,129.0,127.0,127.0,61.0,126.0,127.0,25.0,-105.0,-73.0,127.0,127.0,127.0,112.0,85.0,-5.0
124.0,127.0,129.0,127.0,127.0,62.0,126.0,127.0,25.0,-105.0,-73.0,127.0,127.0,127.0,112.0,85.0,-5.0
124.0,127.0,129.0,127.0,126.0,63.0,126.0,127.0,25.0,-105.0,-73.0,127.0,127.0,127.0,112.0,85.0,-5.0
124.0,127.0,130.0,127.0,127.0,65.0,126.0,127.0,25.0,-105.0,-73.0,127.0,127.0,127.0,112.0,85.0,-5.0
124.0,127.0,130.0,127.0,126.0,66.0,126.0,127.0,25.0,-105.0,-73.0,127.0,127.0,127.0,112.0,85.0,-5.0
124.0,127.0,130.0,127.0,126.0,67.0,126.0,127.0,25.0,-105.0,-73.0,127.0,127.0,127.0,112.0,85.0,-5.0
124.0,128.0,129.0,127.0,127.0,56.0,126.0,127.0,25.0,-105.0,-73.0,127.0,127.0,127.0,112.0,85.0,-5.0
124.0,127.0,129.0,127.0,126.0,100.0,127.0,127.0,25.0,-105.0,-73.0,127.0,127.0,127.0,112.0,85.0,-5.0
124.0,127.0,129.0,127.0,126.0,101.0,127.0,127.0,25.0,-105.0,-73.0,127.0,127.0,127.0,112.0,85.0,-5.0
125.0,127.0,129.0,127.0,126.0,101.0,127.0,127.0,25.0,-105.0,-73.0,127.0,127.0,127.0,112.0,85.0,-5.0
125.0,127.0,129.0,127.0,126.0,101.0,127.0,127.0,25.0,-105.0,-73.0,127.0,127.0,127.0,112.0,85.0,-5.0
125.0,127.0,130.0,127.0,126.0,102.0,127.0,127.0,25.0,-105.0,-73.0,127.0,127.0,127.0,112.0,85.0,-5.0
125.0,127.0,130.0,127.0,126.0,102.0,127.0,127.0,25.0,-105.0,-73.0,127.0,127.0,127.0,112.0,85.0,-5.0
125.0,127.0,130.0,127.0,126.0,102.0,127.0,127.0,25.0,-105.0,-73.0,127.0,127.0,127.0,112.0,85.0,-5.0
125.0,127.0,130.0,127.0,126.0,102.0,127.0,127.0,25.0,-105.0,-73.0,127.0,127.0,127.0,112.0,85.0,-5.0
124.0,128.0,129.0,127.0,127.0,99.0,127.0,127.0,25.0,-105.0,-73.0,127.0,127.0,127.0,112.0,85.0,-5.0
124.0,127.0,129.0,127.0,126.0,100.0,127.0,127.0,25.0,-105.0,-73.0,127.0,127.0,127.0,112.0,85.0,-5.0
124.0,127.0,124.0,127.0,127.0,114.0,127.0,127.0,25.0,-105.0,-73.0,127.0,127.0,127.0,113.0,85.0,-5.0
124.0,127.0,124.0,127.0,127.0,115.0,127.0,127.0,25.0,-105.0,-73.0,127.0,127.0,127.0,113.0,85.0,-5.0
124.0,127.0,124.0,127.0,127.0,115.0,127.0,127.0,25.0,-105.0,-73.0,127.0,127.0,127.0,113.0,85.0,-5.0
124.0,127.0,124.0,127.0,127.0,115.0,127.0,127.0,25.0,-105.0,-73.0,127.0,127.0,127.0,113.0,85.0,-5.0
124.0,127.0,124.0,127.0,127.0,115.0,127.0,127.0,25.0,-105.0,-73.0,127.0,127.0,127.0,113.0,85.0,-5.0
124.0,127.0,124.0,127.0,127.0,115.0,127.0,127.0,25.0,-105.0,-73.0,127.0,127.0,127.0,113.0,85.0,-5.0
125.0,127.0,124.0,127.0,127.0,115.0,127.0,128.0,25.0,-105.0,-73.0,127.0,127.0,127.0,113.0,85.0,-5.0
124.0,128.0,124.0,127.0,127.0,114.0,127.0,127.0,25.0,-105.0,-73.0,127.0,127.0,127.0,113.0,85.0,-5.0
124.0,127.0,124.0,127.0,127.0,114.0,127.0,127.0,25.0,-105.0,-73.0,127.0,127.0,127.0,113.0,85.0,-5.0
124.0,127.0,124.0,127.0,127.0,114.0,127.0,127.0,25.0,-105.0,-73.0,127.0,127.0,127.0,113.0,85.0,-5.0
125.0,127.0,123.0,127.0,127.0,119.0,127.0,127.0,25.0,-105.0,-73.0,127.0,127.0,127.0,113.0,85.0,-5.0
125.0,127.0,123.0,127.0,127.0,119.0,127.0,128.0,25.0,-105.0,-73.0,127.0,127.0,127.0,113.0,85.0,-5.0
125.0,127.0,124.0,127.0,127.0,119.0,127.0,128.0,25.0,-105.0,-73.0,127.0,127.0,127.0,113.0,85.0,-5.0
125.0,127.0,124.0,127.0,127.0,119.0,127.0,127.0,25.0,-105.0,-73.0,127.0,127.0,127.0,113.0,85.0,-5.0
125.0,127.0,124.0,127.0,127.0,119.0,127.0,128.0,25.0,-105.0,-73.0,127.0,127.0,127.0,113.0,85.0,-5.0
125.0,127.0,124.0,127.0,127.0,118.0,127.0,128.0,25.0,-105.0,-73.0,127.0,127.0,127.0,113.0,85.0,-5.0
125.0,128.0,123.0,127.0,127.0,118.0,126.0,127.0,25.0,-105.0,-73.0,127.0,127.0,127.0,113.0,85.0,-5.0
125.0,128.0,123.0,127.0,127.0,119.0,126.0,128.0,25.0,-105.0,-73.0,127.0,127.0,127.0,113.0,85.0,-5.0
125.0,127.0,123.0,127.0,127.0,119.0,127.0,128.0,25.0,-105.0,-73.0,127.0,127.0,127.0,113.0,85.0,-5.0
125.0,127.0,123.0,127.0,127.0,119.0,127.0,128.0,25.0,-105.0,-73.0,127.0,127.0,127.0,113.0,85.0,-5.0
124.0,127.0,131.0,127.0,127.0,120.0,126.0,127.0,25.0,-105.0,-74.0,127.0,127.0,127.0,113.0,85.0,-5.0
124.0,127.0,131.0,127.0,127.0,120.0,126.0,127.0,25.0,-105.0,-74.0,127.0,127.0,127.0,113.0,85.0,-5.0
124.0,127.0,131.0,127.0,127.0,119.0,126.0,127.0,25.0,-105.0,-74.0,127.0,127.0,127.0,113.0,85.0,-5.0
124.0,127.0,131.0,127.0,127.0,119.0,126.0,127.0,25.0,-105.0,-74.0,127.0,127.0,127.0,113.0,85.0,-5.0
124.0,127.0,131.0,127.0,127.0,119.0,126.0,127.0,25.0,-105.0,-74.0,127.0,127.0,127.0,113.0,85.0,-5.0
124.0,127.0,129.0,127.0,127.0,120.0,126.0,127.0,25.0,-105.0,-74.0,127.0,127.0,127.0,113.0,85.0,-5.0
124.0,127.0,130.0,127.0,127.0,120.0,126.0,127.0,25.0,-105.0,-74.0,127.0,127.0,127.0,113.0,85.0,-5.0
124.0,127.0,130.0,127.0,127.0,120.0,126.0,127.0,25.0,-105.0,-74.0,127.0,127.0,127.0,113.0,85.0,-5.0
124.0,127.0,130.0,127.0,127.0,120.0,126.0,127.0,25.0,-105.0,-74.0,127.0,127.0,127.0,113.0,85.0,-5.0
124.0,127.0,130.0,127.0,127.0,120.0,126.0,127.0,25.0,-105.0,-74.0,127.0,127.0,127.0,113.0,85.0,-5.0
124.0,128.0,133.0,127.0,127.0,121.0,127.0,127.0,25.0,-105.0,-74.0,127.0,127.0,127.0,113.0,85.0,-5.0
124.0,127.0,133.0,127.0,126.0,121.0,127.0,127.0,25.0,-105.0,-74.0,127.0,127.0,127.0,113.0,85.0,-5.0
124.0,127.0,133.0,127.0,126.0,121.0,127.0,127.0,25.0,-105.0,-74.0,127.0,127.0,127.0,113.0,85.0,-5.0
124.0,127.0,133.0,127.0,126.0,120.0,127.0,127.0,25.0,-105.0,-74.0,127.0,127.0,127.0,113.0,85.0,-5.0
124.0,128.0,132.0,127.0,127.0,121.0,127.0,127.0,25.0,-105.0,-74.0,127.0,127.0,127.0,113.0,85.0,-5.0
124.0,128.0,132.0,127.0,127.0,121.0,127.0,127.0,25.0,-105.0,-74.0,127.0,127.0,127.0,113.0,85.0,-5.0
124.0,128.0,132.0,127.0,127.0,121.0,127.0,128.0,25.0,-105.0,-74.0,127.0,127.0,127.0,113.0,85.0,-5.0
124.0,128.0,132.0,127.0,127.0,121.0,127.0,127.0,25.0,-105.0,-74.0,127.0,127.0,127.0,113.0,85.0,-5.0
124.0,128.0,132.0,127.0,127.0,121.0,127.0,128.0,25.0,-105.0,-74.0,127.0,127.0,127.0,113.0,85.0,-5.0
124.0,128.0,132.0,127.0,127.0,121.0,127.0,128.0,25.0,-105.0,-74.0,127.0,127.0,127.0,113.0,85.0,-5.0
125.0,128.0,132.0,127.0,126.0,121.0,127.0,128.0,24.0,-105.0,-74.0,127.0,127.0,127.0,113.0,85.0,-5.0
125.0,128.0,132.0,127.0,126.0,121.0,127.0,128.0,24.0,-105.0,-74.0,127.0,127.0,127.0,113.0,85.0,-5.0
125.0,127.0,132.0,127.0,126.0,121.0,127.0,127.0,24.0,-105.0,-74.0,127.0,127.0,127.0,113.0,85.0,-5.0
125.0,127.0,132.0,127.0,126.0,119.0,127.0,128.0,24.0,-105.0,-74.0,127.0,127.0,127.0,113.0,85.0,-5.0
125.0,127.0,132.0,127.0,126.0,119.0,127.0,128.0,24.0,-105.0,-74.0,127.0,127.0,127.0,113.0,85.0,-5.0
125.0,127.0,132.0,127.0,126.0,119.0,127.0,127.0,24.0,-105.0,-74.0,127.0,127.0,127.0,113.0,85.0,-5.0
125.0,128.0,132.0,127.0,126.0,120.0,127.0,127.0,24.0,-105.0,-74.0,127.0,127.0,127.0,113.0,85.0,-5.0
125.0,128.0,132.0,127.0,126.0,121.0,127.0,128.0,24.0,-105.0,-74.0,127.0,127.0,127.0,113.0,85.0,-5.0
125.0,128.0,132.0,127.0,126.0,121.0,127.0,128.0,24.0,-105.0,-74.0,127.0,127.0,127.0,113.0,85.0,-5.0
125.0,128.0,132.0,127.0,126.0,121.0,127.0,128.0,24.0,-105.0,-74.0,127.0,127.0,127.0,113.0,85.0,-5.0
125.0,127.0,131.0,127.0,126.0,122.0,127.0,127.0,24.0,-105.0,-74.0,127.0,127.0,127.0,113.0,85.0,-5.0
125.0,127.0,131.0,127.0,126.0,121.0,127.0,127.0,24.0,-105.0,-74.0,127.0,127.0,127.0,113.0,85.0,-5.0
125.0,128.0,130.0,127.0,126.0,123.0,127.0,127.0,24.0,-105.0,-74.0,127.0,127.0,127.0,113.0,85.0,-5.0
125.0,128.0,130.0,127.0,127.0,123.0,127.0,127.0,24.0,-105.0,-74.0,127.0,127.0,127.0,113.0,85.0,-5.0
125.0,128.0,130.0,127.0,127.0,123.0,127.0,127.0,24.0,-105.0,-74.0,127.0,127.0,127.0,113.0,85.0,-5.0
125.0,128.0,130.0,127.0,126.0,122.0,127.0,128.0,24.0,-105.0,-74.0,127.0,127.0,127.0,113.0,85.0,-5.0
125.0,128.0,130.0,127.0,127.0,122.0,127.0,127.0,24.0,-105.0,-74.0,127.0,127.0,127.0,113.0,85.0,-5.0
125.0,127.0,131.0,127.0,126.0,122.0,127.0,127.0,24.0,-105.0,-74.0,127.0,127.0,127.0,113.0,85.0,-5.0
125.0,127.0,131.0,127.0,126.0,122.0,127.0,127.0,24.0,-105.0,-74.0,127.0,127.0,127.0,113.0,85.0,-5.0
125.0,127.0,131.0,127.0,126.0,122.0,127.0,127.0,24.0,-105.0,-74.0,127.0,127.0,127.0,113.0,85.0,-5.0
125.0,127.0,129.0,127.0,126.0,122.0,127.0,127.0,24.0,-105.0,-74.0,127.0,127.0,127.0,113.0,85.0,-5.0
125.0,128.0,129.0,127.0,126.0,123.0,127.0,127.0,24.0,-105.0,-74.0,127.0,127.0,127.0,113.0,85.0,-5.0
125.0,128.0,129.0,128.0,126.0,123.0,127.0,127.0,24.0,-105.0,-74.0,127.0,127.0,127.0,113.0,85.0,-5.0
125.0,128.0,129.0,127.0,126.0,123.0,127.0,127.0,24.0,-105.0,-74.0,127.0,127.0,127.0,113.0,85.0,-5.0
125.0,128.0,129.0,127.0,126.0,123.0,127.0,127.0,24.0,-105.0,-74.0,127.0,127.0,127.0,113.0,85.0,-5.0
125.0,128.0,129.0,127.0,126.0,123.0,127.0,127.0,24.0,-105.0,-74.0,127.0,127.0,127.0,113.0,85.0,-5.0
125.0,128.0,129.0,127.0,126.0,123.0,127.0,127.0,24.0,-105.0,-74.0,127.0,127.0,127.0,113.0,85.0,-5.0
125.0,128.0,129.0,127.0,126.0,122.0,127.0,127.0,24.0,-105.0,-74.0,127.0,127.0,127.0,113.0,85.0,-5.0
125.0,128.0,129.0,127.0,126.0,122.0,127.0,127.0,24.0,-105.0,-74.0,127.0,127.0,127.0,113.0,85.0,-5.0
125.0,127.0,129.0,127.0,126.0,122.0,127.0,127.0,24.0,-105.0,-74.0,127.0,127.0,127.0,113.0,85.0,-5.0
125.0,128.0,128.0,127.0,126.0,123.0,126.0,127.0,24.0,-105.0,-74.0,127.0,127.0,127.0,113.0,85.0,-5.0
125.0,128.0,128.0,127.0,126.0,123.0,126.0,127.0,24.0,-105.0,-74.0,127.0,127.0,127.0,113.0,85.0,-5.0
125.0,128.0,128.0,127.0,126.0,123.0,126.0,127.0,24.0,-105.0,-74.0,127.0,127.0,127.0,113.0,85.0,-5.0
125.0,128.0,128.0,127.0,126.0,123.0,126.0,127.0,24.0,-105.0,-74.0,127.0,127.0,127.0,113.0,85.0,-5.0
125.0,128.0,129.0,127.0,126.0,122.0,126.0,127.0,24.0,-105.0,-74.0,127.0,127.0,127.0,113.0,85.0,-5.0
125.0,127.0,128.0,127.0,126.0,122.0,126.0,127.0,24.0,-105.0,-74.0,127.0,127.0,127.0,113.0,85.0,-5.0
125.0,127.0,128.0,127.0,126.0,122.0,126.0,127.0,24.0,-105.0,-74.0,127.0,127.0,127.0,113.0,85.0,-5.0
125.0,127.0,129.0,127.0,126.0,122.0,126.0,127.0,24.0,-105.0,-74.0,127.0,127.0,127.0,113.0,85.0,-5.0
125.0,127.0,129.0,127.0,126.0,122.0,126.0,127.0,24.0,-105.0,-74.0,127.0,127.0,127.0,113.0,85.0,-5.0
125.0,127.0,128.0,127.0,126.0,122.0,127.0,127.0,24.0,-105.0,-74.0,127.0,127.0,127.0,113.0,85.0,-5.0
126.0,128.0,128.0,127.0,126.0,123.0,126.0,127.0,24.0,-105.0,-74.0,127.0,127.0,127.0,113.0,85.0,-5.0
126.0,128.0,128.0,127.0,126.0,123.0,126.0,127.0,24.0,-105.0,-74.0,127.0,127.0,127.0,113.0,85.0,-5.0
126.0,128.0,128.0,127.0,126.0,123.0,127.0,127.0,24.0,-105.0,-74.0,127.0,127.0,127.0,113.0,85.0,-5.0
126.0,127.0,128.0,127.0,126.0,123.0,126.0,127.0,24.0,-105.0,-74.0,127.0,127.0,127.0,113.0,85.0,-5.0
126.0,127.0,128.0,127.0,126.0,123.0,127.0,127.0,24.0,-105.0,-74.0,127.0,127.0,127.0,113.0,85.0,-5.0
126.0,127.0,128.0,127.0,126.0,123.0,127.0,127.0,24.0,-105.0,-74.0,127.0,127.0,127.0,113.0,85.0,-5.0
126.0,127.0,128.0,127.0,126.0,122.0,127.0,127.0,24.0,-105.0,-74.0,127.0,127.0,127.0,113.0,85.0,-5.0
126.0,127.0,128.0,127.0,126.0,122.0,127.0,127.0,24.0,-105.0,-74.0,127.0,127.0,127.0,113.0,85.0,-5.0
126.0,127.0,128.0,127.0,126.0,122.0,127.0,127.0,24.0,-105.0,-74.0,127.0,127.0,127.0,113.0,85.0,-5.0
126.0,128.0,128.0,127.0,126.0,123.0,126.0,127.0,24.0,-105.0,-74.0,127.0,127.0,127.0,113.0,85.0,-5.0
126.0,127.0,128.0,127.0,126.0,123.0,127.0,127.0,24.0,-105.0,-74.0,127.0,127.0,127.0,113.0,85.0,-5.0
126.0,127.0,128.0,127.0,126.0,123.0,127.0,127.0,24.0,-105.0,-74.0,127.0,127.0,127.0,113.0,85.0,-5.0
126.0,127.0,128.0,127.0,126.0,123.0,127.0,127.0,24.0,-105.0,-74.0,127.0,127.0,127.0,113.0,85.0,-5.0
126.0,127.0,128.0,127.0,126.0,123.0,127.0,127.0,24.0,-105.0,-74.0,127.0,127.0,127.0,113.0,85.0,-5.0
126.0,127.0,128.0,127.0,126.0,122.0,127.0,127.0,24.0,-105.0,-74.0,127.0,127.0,127.0,113.0,85.0,-5.0
126.0,127.0,128.0,127.0,126.0,122.0,127.0,127.0,24.0,-105.0,-74.0,127.0,127.0,127.0,113.0,85.0,-5.0
126.0,127.0,128.0,127.0,126.0,122.0,127.0,127.0,24.0,-105.0,-74.0,127.0,127.0,127.0,113.0,85.0,-5.0
126.0,127.0,128.0,127.0,126.0,122.0,127.0,127.0,24.0,-105.0,-74.0,127.0,127.0,127.0,113.0,85.0,-5.0
126.0,127.0,128.0,127.0,126.0,123.0,127.0,127.0,24.0,-105.0,-74.0,127.0,127.0,127.0,113.0,85.0,-5.0
126.0,127.0,128.0,127.0,126.0,123.0,127.0,127.0,24.0,-105.0,-74.0,127.0,127.0,127.0,113.0,85.0,-5.0
125.0,128.0,127.0,127.0,127.0,123.0,127.0,127.0,24.0,-106.0,-74.0,127.0,127.0,127.0,113.0,85.0,-5.0
125.0,128.0,127.0,127.0,127.0,123.0,127.0,127.0,24.0,-106.0,-74.0,127.0,127.0,127.0,113.0,85.0,-5.0
125.0,127.0,127.0,127.0,127.0,123.0,127.0,127.0,24.0,-106.0,-74.0,127.0,127.0,127.0,113.0,85.0,-5.0
125.0,127.0,128.0,127.0,127.0,123.0,127.0,127.0,24.0,-106.0,-74.0,127.0,127.0,127.0,113.0,85.0,-5.0
125.0,127.0,128.0,127.0,127.0,123.0,127.0,127.0,24.0,-106.0,-74.0,127.0,127.0,127.0,113.0,85.0,-5.0
125.0,127.0,128.0,127.0,127.0,123.0,127.0,127.0,24.0,-106.0,-74.0,127.0,127.0,127.0,113.0,85.0,-5.0
125.0,127.0,128.0,127.0,127.0,123.0,127.0,127.0,24.0,-106.0,-74.0,127.0,127.0,127.0,113.0,85.0,-5.0
125.0,128.0,127.0,127.0,127.0,123.0,127.0,127.0,24.0,-106.0,-74.0,127.0,127.0,127.0,113.0,85.0,-5.0
125.0,128.0,127.0,127.0,127.0,123.0,127.0,128.0,24.0,-106.0,-74.0,127.0,127.0,127.0,113.0,85.0,-5.0
125.0,127.0,127.0,127.0,127.0,123.0,127.0,127.0,24.0,-106.0,-74.0,127.0,127.0,127.0,113.0,85.0,-5.0
126.0,127.0,127.0,127.0,126.0,124.0,127.0,127.0,24.0,-106.0,-74.0,127.0,127.0,127.0,113.0,85.0,-5.0
126.0,127.0,127.0,127.0,126.0,123.0,127.0,127.0,24.0,-106.0,-74.0,127.0,127.0,127.0,113.0,85.0,-5.0
126.0,127.0,127.0,127.0,126.0,123.0,127.0,127.0,24.0,-106.0,-74.0,127.0,127.0,127.0,113.0,85.0,-5.0
126.0,127.0,127.0,127.0,126.0,123.0,127.0,127.0,24.0,-106.0,-74.0,127.0,127.0,127.0,113.0,85.0,-5.0
125.0,127.0,127.0,127.0,126.0,123.0,127.0,127.0,24.0,-106.0,-74.0,127.0,127.0,127.0,113.0,85.0,-5.0
125.0,127.0,127.0,127.0,126.0,123.0,127.0,127.0,24.0,-106.0,-74.0,127.0,127.0,127.0,113.0,85.0,-5.0
125.0,128.0,127.0,127.0,126.0,124.0,127.0,127.0,24.0,-106.0,-74.0,127.0,127.0,127.0,113.0,85.0,-5.0
125.0,128.0,127.0,127.0,126.0,124.0,127.0,127.0,24.0,-106.0,-74.0,127.0,127.0,127.0,113.0,85.0,-5.0
125.0,128.0,127.0,127.0,126.0,124.0,127.0,127.0,24.0,-106.0,-74.0,127.0,127.0,127.0,113.0,85.0,-5.0
125.0,128.0,127.0,127.0,126.0,124.0,127.0,127.0,24.0,-106.0,-74.0,127.0,127.0,127.0,113.0,85.0,-5.0
126.0,127.0,127.0,127.0,126.0,122.0,127.0,127.0,23.0,-106.0,-74.0,127.0,127.0,127.0,113.0,85.0,-5.0
126.0,127.0,126.0,127.0,126.0,122.0,126.0,127.0,23.0,-106.0,-74.0,127.0,127.0,127.0,113.0,85.0,-5.0
126.0,127.0,126.0,127.0,126.0,122.0,126.0,127.0,23.0,-106.0,-74.0,127.0,127.0,127.0,113.0,85.0,-5.0
126.0,127.0,126.0,127.0,126.0,123.0,126.0,127.0,23.0,-106.0,-74.0,127.0,127.0,127.0,113.0,85.0,-5.0
126.0,128.0,126.0,127.0,126.0,124.0,126.0,127.0,23.0,-106.0,-74.0,127.0,127.0,127.0,113.0,85.0,-5.0
126.0,127.0,127.0,127.0,126.0,120.0,127.0,127.0,23.0,-106.0,-74.0,127.0,127.0,127.0,113.0,85.0,-5.0
126.0,127.0,127.0,127.0,126.0,121.0,127.0,127.0,23.0,-106.0,-74.0,127.0,127.0,127.0,113.0,85.0,-5.0
126.0,128.0,126.0,127.0,126.0,122.0,126.0,127.0,23.0,-106.0,-74.0,127.0,127.0,127.0,113.0,85.0,-5.0
126.0,128.0,126.0,127.0,126.0,122.0,126.0,127.0,23.0,-106.0,-74.0,127.0,127.0,127.0,113.0,85.0,-5.0
126.0,127.0,126.0,127.0,126.0,122.0,126.0,127.0,23.0,-106.0,-74.0,127.0,127.0,127.0,113.0,85.0,-5.0
126.0,127.0,126.0,127.0,126.0,123.0,126.0,127.0,23.0,-106.0,-74.0,127.0,127.0,127.0,113.0,85.0,-5.0
126.0,127.0,126.0,127.0,126.0,123.0,127.0,127.0,23.0,-106.0,-74.0,127.0,127.0,127.0,113.0,85.0,-5.0
126.0,127.0,126.0,127.0,126.0,124.0,126.0,127.0,23.0,-106.0,-74.0,127.0,127.0,127.0,113.0,85.0,-5.0
126.0,127.0,126.0,127.0,127.0,125.0,126.0,127.0,23.0,-106.0,-74.0,127.0,127.0,127.0,113.0,85.0,-5.0
126.0,127.0,126.0,127.0,126.0,121.0,127.0,127.0,23.0,-106.0,-74.0,127.0,127.0,127.0,113.0,85.0,-5.0
126.0,127.0,126.0,127.0,126.0,121.0,126.0,127.0,23.0,-106.0,-74.0,127.0,127.0,127.0,113.0,85.0,-5.0
126.0,127.0,126.0,127.0,126.0,123.0,126.0,127.0,23.0,-106.0,-74.0,127.0,127.0,127.0,113.0,85.0,-5.0
126.0,128.0,126.0,127.0,126.0,123.0,126.0,127.0,23.0,-106.0,-74.0,127.0,127.0,127.0,113.0,85.0,-5.0
126.0,127.0,126.0,127.0,126.0,123.0,126.0,127.0,23.0,-106.0,-74.0,127.0,127.0,127.0,113.0,85.0,-5.0
126.0,127.0,126.0,127.0,126.0,123.0,127.0,127.0,23.0,-106.0,-74.0,127.0,127.0,127.0,113.0,85.0,-5.0
126.0,127.0,126.0,127.0,126.0,123.0,127.0,127.0,23.0,-105.0,-74.0,127.0,127.0,127.0,114.0,85.0,-5.0
126.0,128.0,126.0,127.0,126.0,124.0,126.0,127.0,23.0,-105.0,-74.0,127.0,127.0,127.0,114.0,85.0,-5.0
126.0,128.0,126.0,127.0,126.0,125.0,126.0,127.0,23.0,-105.0,-74.0,127.0,127.0,127.0,114.0,85.0,-5.0
126.0,127.0,127.0,127.0,126.0,121.0,127.0,127.0,23.0,-105.0,-74.0,127.0,127.0,127.0,114.0,85.0,-5.0
126.0,127.0,126.0,127.0,126.0,121.0,127.0,127.0,23.0,-105.0,-74.0,127.0,127.0,127.0,114.0,85.0,-5.0
126.0,128.0,126.0,127.0,126.0,123.0,127.0,127.0,23.0,-105.0,-74.0,127.0,127.0,127.0,114.0,85.0,-5.0
126.0,128.0,126.0,127.0,126.0,123.0,127.0,127.0,23.0,-105.0,-74.0,127.0,127.0,127.0,114.0,85.0,-5.0
126.0,128.0,126.0,127.0,126.0,123.0,127.0,127.0,23.0,-105.0,-74.0,127.0,127.0,127.0,114.0,85.0,-5.0
126.0,127.0,126.0,127.0,126.0,123.0,127.0,127.0,23.0,-105.0,-74.0,127.0,127.0,127.0,114.0,85.0,-5.0
126.0,127.0,126.0,127.0,126.0,123.0,127.0,127.0,23.0,-105.0,-74.0,127.0,127.0,127.0,114.0,85.0,-5.0
126.0,127.0,126.0,127.0,127.0,124.0,126.0,127.0,23.0,-105.0,-74.0,127.0,127.0,127.0,114.0,85.0,-5.0
126.0,128.0,126.0,127.0,127.0,125.0,126.0,128.0,23.0,-105.0,-74.0,127.0,127.0,127.0,114.0,85.0,-5.0
126.0,127.0,126.0,127.0,127.0,122.0,127.0,127.0,23.0,-105.0,-74.0,127.0,127.0,127.0,114.0,85.0,-5.0
126.0,127.0,126.0,127.0,127.0,122.0,127.0,127.0,23.0,-105.0,-74.0,127.0,127.0,127.0,114.0,85.0,-5.0
126.0,127.0,126.0,127.0,127.0,123.0,126.0,127.0,23.0,-105.0,-74.0,127.0,127.0,127.0,114.0,85.0,-5.0
126.0,128.0,126.0,127.0,127.0,124.0,126.0,127.0,23.0,-105.0,-74.0,127.0,127.0,127.0,114.0,85.0,-5.0
126.0,127.0,126.0,127.0,127.0,124.0,126.0,128.0,23.0,-105.0,-74.0,127.0,127.0,127.0,114.0,85.0,-5.0
126.0,127.0,126.0,127.0,127.0,124.0,127.0,128.0,23.0,-105.0,-74.0,127.0,127.0,127.0,114.0,85.0,-5.0
126.0,127.0,126.0,127.0,127.0,123.0,127.0,128.0,23.0,-105.0,-74.0,127.0,127.0,127.0,114.0,85.0,-5.0
126.0,127.0,126.0,127.0,127.0,124.0,127.0,127.0,23.0,-105.0,-74.0,127.0,127.0,127.0,114.0,85.0,-5.0
126.0,128.0,126.0,127.0,127.0,125.0,127.0,127.0,23.0,-105.0,-74.0,127.0,127.0,127.0,114.0,85.0,-5.0
126.0,127.0,127.0,127.0,126.0,121.0,127.0,127.0,23.0,-105.0,-74.0,127.0,127.0,127.0,114.0,85.0,-5.0
126.0,127.0,127.0,127.0,126.0,121.0,127.0,127.0,23.0,-105.0,-74.0,127.0,127.0,127.0,114.0,85.0,-5.0
126.0,128.0,127.0,127.0,127.0,122.0,127.0,127.0,23.0,-105.0,-74.0,127.0,127.0,127.0,114.0,85.0,-5.0
126.0,128.0,127.0,127.0,127.0,123.0,127.0,127.0,23.0,-105.0,-74.0,127.0,127.0,127.0,114.0,85.0,-5.0
126.0,128.0,127.0,127.0,127.0,123.0,127.0,127.0,23.0,-105.0,-74.0,127.0,127.0,127.0,114.0,85.0,-5.0
126.0,128.0,127.0,127.0,127.0,123.0,127.0,127.0,23.0,-105.0,-74.0,127.0,127.0,127.0,114.0,85.0,-5.0
126.0,128.0,127.0,127.0,127.0,123.0,127.0,127.0,23.0,-105.0,-74.0,127.0,127.0,127.0,114.0,85.0,-5.0
126.0,128.0,127.0,127.0,127.0,123.0,127.0,127.0,23.0,-105.0,-74.0,127.0,127.0,127.0,114.0,85.0,-5.0
126.0,128.0,127.0,127.0,127.0,123.0,127.0,127.0,23.0,-105.0,-74.0,127.0,127.0,127.0,114.0,85.0,-5.0
126.0,127.0,126.0,128.0,127.0,121.0,127.0,127.0,23.0,-105.0,-74.0,127.0,127.0,127.0,114.0,85.0,-5.0
126.0,127.0,126.0,127.0,127.0,121.0,127.0,127.0,23.0,-105.0,-74.0,127.0,127.0,127.0,114.0,85.0,-5.0
126.0,127.0,126.0,127.0,127.0,122.0,127.0,127.0,23.0,-105.0,-74.0,127.0,127.0,127.0,114.0,85.0,-5.0
126.0,127.0,126.0,127.0,127.0,123.0,127.0,127.0,23.0,-105.0,-74.0,127.0,127.0,127.0,114.0,85.0,-5.0
126.0,127.0,126.0,127.0,127.0,124.0,127.0,127.0,23.0,-105.0,-74.0,127.0,127.0,127.0,114.0,85.0,-5.0
126.0,127.0,126.0,127.0,127.0,123.0,127.0,127.0,23.0,-105.0,-74.0,127.0,127.0,127.0,114.0,85.0,-5.0
126.0,127.0,126.0,127.0,127.0,123.0,127.0,127.0,23.0,-105.0,-74.0,127.0,127.0,127.0,114.0,85.0,-5.0
126.0,127.0,126.0,127.0,127.0,123.0,127.0,127.0,23.0,-105.0,-74.0,127.0,127.0,127.0,114.0,85.0,-5.0
126.0,127.0,126.0,127.0,127.0,123.0,127.0,127.0,23.0,-105.0,-74.0,127.0,127.0,127.0,114.0,85.0,-5.0
126.0,127.0,126.0,127.0,127.0,125.0,126.0,127.0,23.0,-105.0,-74.0,127.0,127.0,127.0,114.0,85.0,-5.0
126.0,127.0,126.0,127.0,127.0,125.0,127.0,127.0,23.0,-105.0,-74.0,127.0,127.0,127.0,114.0,85.0,-5.0
126.0,127.0,126.0,127.0,127.0,124.0,127.0,127.0,23.0,-105.0,-74.0,127.0,127.0,127.0,114.0,85.0,-5.0
126.0,127.0,127.0,127.0,127.0,124.0,127.0,128.0,23.0,-105.0,-74.0,127.0,127.0,127.0,114.0,85.0,-5.0
126.0,127.0,127.0,127.0,127.0,124.0,127.0,128.0,23.0,-105.0,-74.0,127.0,127.0,127.0,114.0,85.0,-5.0
126.0,127.0,127.0,127.0,127.0,124.0,127.0,128.0,23.0,-105.0,-74.0,127.0,127.0,127.0,114.0,85.0,-5.0
126.0,127.0,127.0,127.0,127.0,123.0,127.0,127.0,23.0,-105.0,-74.0,127.0,127.0,127.0,114.0,85.0,-5.0
126.0,127.0,127.0,127.0,126.0,123.0,127.0,127.0,23.0,-105.0,-74.0,127.0,127.0,127.0,114.0,85.0,-5.0
126.0,127.0,127.0,127.0,127.0,123.0,127.0,127.0,23.0,-105.0,-74.0,127.0,127.0,127.0,114.0,85.0,-5.0
126.0,127.0,127.0,127.0,126.0,123.0,127.0,127.0,23.0,-105.0,-74.0,127.0,127.0,127.0,114.0,85.0,-5.0
126.0,127.0,126.0,127.0,127.0,125.0,127.0,127.0,23.0,-105.0,-74.0,127.0,127.0,127.0,114.0,85.0,-5.0
126.0,127.0,126.0,127.0,127.0,123.0,127.0,127.0,23.0,-105.0,-74.0,127.0,127.0,127.0,114.0,85.0,-5.0
126.0,127.0,127.0,127.0,127.0,123.0,127.0,127.0,23.0,-105.0,-74.0,127.0,127.0,127.0,114.0,85.0,-5.0
126.0,127.0,127.0,127.0,127.0,123.0,126.0,127.0,23.0,-105.0,-74.0,127.0,127.0,127.0,114.0,85.0,-5.0
126.0,127.0,127.0,127.0,127.0,123.0,126.0,127.0,23.0,-105.0,-74.0,127.0,127.0,127.0,114.0,85.0,-5.0
126.0,127.0,127.0,127.0,127.0,123.0,127.0,127.0,23.0,-105.0,-74.0,127.0,127.0,127.0,114.0,85.0,-5.0
126.0,127.0,127.0,127.0,127.0,122.0,126.0,127.0,23.0,-105.0,-74.0,127.0,127.0,127.0,114.0,85.0,-5.0
126.0,127.0,127.0,127.0,127.0,122.0,127.0,127.0,23.0,-105.0,-74.0,127.0,127.0,127.0,114.0,85.0,-5.0
126.0,127.0,127.0,127.0,127.0,122.0,127.0,127.0,23.0,-105.0,-74.0,127.0,127.0,127.0,114.0,85.0,-5.0
126.0,127.0,126.0,127.0,127.0,124.0,126.0,127.0,23.0,-105.0,-74.0,127.0,127.0,127.0,114.0,85.0,-5.0
126.0,127.0,126.0,127.0,127.0,124.0,126.0,127.0,23.0,-105.0,-74.0,127.0,127.0,127.0,114.0,85.0,-5.0
126.0,127.0,126.0,127.0,127.0,122.0,127.0,127.0,23.0,-105.0,-74.0,127.0,127.0,127.0,114.0,85.0,-5.0
126.0,127.0,126.0,127.0,127.0,122.0,127.0,127.0,23.0,-105.0,-74.0,127.0,127.0,127.0,114.0,85.0,-5.0
126.0,127.0,126.0,127.0,127.0,122.0,127.0,127.0,23.0,-105.0,-74.0,127.0,127.0,127.0,114.0,85.0,-5.0
126.0,127.0,126.0,127.0,127.0,124.0,126.0,127.0,23.0,-105.0,-74.0,127.0,127.0,127.0,114.0,85.0,-5.0
126.0,127.0,126.0,127.0,127.0,124.0,126.0,127.0,23.0,-105.0,-74.0,127.0,127.0,127.0,114.0,85.0,-5.0
126.0,127.0,126.0,127.0,127.0,124.0,126.0,127.0,23.0,-105.0,-74.0,127.0,127.0,127.0,114.0,85.0,-5.0
126.0,127.0,126.0,127.0,127.0,124.0,127.0,127.0,23.0,-105.0,-74.0,127.0,127.0,127.0,114.0,85.0,-5.0
126.0,127.0,126.0,127.0,127.0,122.0,126.0,127.0,23.0,-105.0,-74.0,127.0,127.0,127.0,114.0,85.0,-5.0
126.0,127.0,126.0,127.0,127.0,123.0,127.0,127.0,23.0,-105.0,-74.0,127.0,127.0,127.0,114.0,85.0,-5.0
126.0,127.0,126.0,127.0,127.0,122.0,127.0,127.0,23.0,-105.0,-74.0,127.0,127.0,127.0,114.0,85.0,-5.0
126.0,127.0,127.0,127.0,127.0,123.0,127.0,127.0,23.0,-105.0,-74.0,127.0,127.0,127.0,114.0,85.0,-5.0
126.0,127.0,127.0,127.0,127.0,123.0,127.0,127.0,23.0,-105.0,-74.0,127.0,127.0,127.0,114.0,85.0,-5.0
126.0,127.0,126.0,127.0,127.0,124.0,126.0,127.0,23.0,-105.0,-74.0,127.0,127.0,127.0,114.0,85.0,-5.0
126.0,127.0,126.0,127.0,127.0,125.0,126.0,127.0,23.0,-105.0,-74.0,127.0,127.0,127.0,114.0,85.0,-5.0
126.0,127.0,126.0,127.0,127.0,125.0,126.0,127.0,23.0,-105.0,-74.0,127.0,127.0,127.0,114.0,85.0,-5.0
126.0,127.0,126.0,127.0,127.0,121.0,127.0,127.0,23.0,-105.0,-74.0,127.0,127.0,127.0,114.0,85.0,-5.0
126.0,127.0,126.0,127.0,127.0,123.0,127.0,127.0,23.0,-105.0,-74.0,127.0,127.0,127.0,114.0,85.0,-5.0
126.0,127.0,126.0,127.0,127.0,123.0,127.0,127.0,23.0,-105.0,-74.0,127.0,127.0,127.0,114.0,85.0,-5.0
126.0,127.0,127.0,127.0,127.0,123.0,127.0,127.0,23.0,-105.0,-74.0,127.0,127.0,127.0,114.0,85.0,-5.0
126.0,127.0,127.0,127.0,127.0,123.0,127.0,127.0,23.0,-105.0,-74.0,127.0,127.0,127.0,114.0,85.0,-5.0
126.0,127.0,126.0,127.0,127.0,123.0,127.0,127.0,23.0,-105.0,-74.0,127.0,127.0,127.0,114.0,85.0,-5.0
126.0,127.0,126.0,127.0,127.0,124.0,126.0,127.0,23.0,-105.0,-74.0,127.0,127.0,127.0,114.0,85.0,-5.0
126.0,127.0,126.0,127.0,127.0,124.0,126.0,127.0,23.0,-105.0,-74.0,127.0,127.0,127.0,114.0,85.0,-5.0
126.0,127.0,126.0,127.0,127.0,125.0,126.0,127.0,23.0,-105.0,-74.0,127.0,127.0,127.0,114.0,85.0,-5.0
126.0,127.0,126.0,127.0,127.0,121.0,127.0,127.0,23.0,-105.0,-74.0,127.0,127.0,127.0,114.0,85.0,-5.0
126.0,127.0,126.0,127.0,127.0,123.0,126.0,127.0,23.0,-105.0,-74.0,127.0,127.0,127.0,114.0,85.0,-5.0
126.0,127.0,126.0,127.0,127.0,123.0,126.0,127.0,23.0,-105.0,-74.0,127.0,127.0,127.0,114.0,85.0,-5.0
126.0,127.0,126.0,127.0,127.0,123.0,126.0,127.0,23.0,-105.0,-74.0,127.0,127.0,127.0,114.0,85.0,-5.0
126.0,127.0,126.0,127.0,127.0,123.0,127.0,127.0,23.0,-105.0,-74.0,127.0,127.0,127.0,114.0,85.0,-5.0
126.0,127.0,126.0,127.0,127.0,123.0,127.0,127.0,23.0,-105.0,-74.0,127.0,127.0,127.0,114.0,85.0,-5.0
126.0,127.0,127.0,127.0,127.0,125.0,126.0,127.0,23.0,-105.0,-74.0,127.0,127.0,127.0,114.0,85.0,-5.0
126.0,127.0,127.0,127.0,127.0,125.0,127.0,127.0,23.0,-105.0,-74.0,127.0,127.0,127.0,114.0,85.0,-5.0
126.0,127.0,127.0,127.0,127.0,125.0,127.0,127.0,23.0,-105.0,-74.0,127.0,127.0,127.0,114.0,85.0,-5.0
126.0,127.0,127.0,127.0,127.0,122.0,127.0,127.0,23.0,-105.0,-74.0,127.0,127.0,127.0,114.0,85.0,-5.0
126.0,127.0,127.0,127.0,127.0,124.0,127.0,127.0,23.0,-105.0,-74.0,127.0,127.0,127.0,114.0,85.0,-5.0
126.0,127.0,127.0,127.0,127.0,124.0,127.0,127.0,23.0,-105.0,-74.0,127.0,127.0,127.0,114.0,85.0,-5.0
126.0,127.0,127.0,127.0,127.0,124.0,127.0,127.0,23.0,-105.0,-74.0,127.0,127.0,127.0,114.0,85.0,-5.0
126.0,127.0,127.0,127.0,127.0,124.0,127.0,127.0,23.0,-105.0,-74.0,127.0,127.0,127.0,114.0,85.0,-5.0
126.0,127.0,127.0,127.0,127.0,124.0,127.0,127.0,23.0,-105.0,-74.0,127.0,127.0,127.0,114.0,85.0,-5.0
126.0,127.0,127.0,127.0,127.0,124.0,127.0,127.0,23.0,-105.0,-74.0,127.0,127.0,127.0,114.0,85.0,-5.0
126.0,127.0,126.0,127.0,127.0,125.0,127.0,127.0,23.0,-105.0,-73.0,127.0,127.0,127.0,114.0,85.0,-5.0
126.0,127.0,126.0,127.0,127.0,125.0,127.0,127.0,23.0,-105.0,-73.0,127.0,127.0,127.0,114.0,85.0,-5.0
126.0,127.0,126.0,127.0,127.0,122.0,127.0,127.0,23.0,-105.0,-73.0,127.0,127.0,127.0,114.0,85.0,-5.0
126.0,127.0,126.0,127.0,127.0,123.0,127.0,127.0,23.0,-105.0,-73.0,127.0,127.0,127.0,114.0,85.0,-5.0
126.0,127.0,126.0,127.0,127.0,124.0,127.0,127.0,23.0,-105.0,-73.0,127.0,127.0,127.0,114.0,85.0,-5.0
126.0,127.0,126.0,127.0,127.0,124.0,127.0,127.0,23.0,-105.0,-73.0,127.0,127.0,127.0,114.0,85.0,-5.0
126.0,127.0,126.0,127.0,127.0,123.0,127.0,127.0,23.0,-105.0,-73.0,127.0,127.0,127.0,114.0,85.0,-5.0
126.0,127.0,126.0,127.0,127.0,123.0,127.0,127.0,23.0,-105.0,-73.0,127.0,127.0,127.0,114.0,85.0,-5.0
126.0,127.0,126.0,127.0,127.0,123.0,127.0,127.0,23.0,-105.0,-73.0,127.0,127.0,127.0,114.0,85.0,-5.0
126.0,127.0,126.0,127.0,127.0,124.0,127.0,127.0,23.0,-105.0,-73.0,127.0,127.0,127.0,114.0,85.0,-5.0
126.0,127.0,126.0,127.0,127.0,124.0,126.0,127.0,23.0,-105.0,-73.0,127.0,127.0,127.0,114.0,85.0,-5.0
126.0,127.0,126.0,127.0,126.0,121.0,127.0,127.0,23.0,-105.0,-73.0,127.0,127.0,127.0,114.0,85.0,-5.0
126.0,127.0,126.0,127.0,126.0,122.0,127.0,127.0,23.0,-105.0,-73.0,127.0,127.0,127.0,114.0,85.0,-5.0
126.0,127.0,126.0,127.0,127.0,123.0,127.0,127.0,23.0,-105.0,-73.0,127.0,127.0,127.0,114.0,85.0,-5.0
126.0,127.0,126.0,127.0,127.0,123.0,127.0,127.0,23.0,-105.0,-73.0,127.0,127.0,127.0,114.0,85.0,-5.0
126.0,127.0,126.0,127.0,127.0,123.0,127.0,127.0,23.0,-105.0,-73.0,127.0,127.0,127.0,114.0,85.0,-5.0
126.0,127.0,126.0,127.0,127.0,122.0,127.0,127.0,23.0,-105.0,-73.0,127.0,127.0,127.0,114.0,85.0,-5.0
126.0,127.0,126.0,127.0,127.0,123.0,127.0,127.0,23.0,-105.0,-73.0,127.0,127.0,127.0,114.0,85.0,-5.0
126.0,127.0,126.0,127.0,127.0,123.0,126.0,127.0,23.0,-105.0,-73.0,127.0,127.0,127.0,114.0,85.0,-5.0
126.0,127.0,126.0,127.0,127.0,124.0,126.0,127.0,23.0,-105.0,-73.0,127.0,127.0,127.0,114.0,85.0,-5.0
126.0,127.0,127.0,127.0,127.0,121.0,127.0,127.0,23.0,-105.0,-73.0,127.0,127.0,127.0,114.0,85.0,-5.0
126.0,127.0,127.0,127.0,127.0,122.0,126.0,127.0,23.0,-105.0,-73.0,127.0,127.0,127.0,114.0,85.0,-5.0
126.0,127.0,126.0,127.0,127.0,123.0,126.0,127.0,23.0,-105.0,-73.0,127.0,127.0,127.0,114.0,85.0,-5.0
126.0,127.0,126.0,127.0,127.0,123.0,126.0,127.0,23.0,-105.0,-73.0,127.0,127.0,127.0,114.0,85.0,-5.0
126.0,127.0,127.0,127.0,127.0,123.0,126.0,127.0,23.0,-105.0,-73.0,127.0,127.0,127.0,114.0,85.0,-5.0
126.0,127.0,127.0,127.0,127.0,123.0,127.0,127.0,23.0,-105.0,-73.0,127.0,127.0,127.0,114.0,85.0,-5.0
126.0,127.0,127.0,127.0,127.0,123.0,127.0,127.0,23.0,-105.0,-73.0,127.0,127.0,127.0,114.0,85.0,-5.0
126.0,127.0,126.0,127.0,127.0,123.0,126.0,127.0,23.0,-105.0,-73.0,127.0,127.0,127.0,114.0,85.0,-5.0
126.0,127.0,126.0,127.0,127.0,125.0,126.0,127.0,23.0,-105.0,-73.0,127.0,127.0,127.0,114.0,85.0,-5.0
126.0,127.0,126.0,127.0,127.0,125.0,126.0,127.0,23.0,-105.0,-73.0,127.0,127.0,127.0,114.0,85.0,-5.0
126.0,127.0,127.0,127.0,127.0,123.0,127.0,127.0,24.0,-105.0,-73.0,127.0,127.0,127.0,114.0,85.0,-5.0
126.0,127.0,126.0,127.0,127.0,124.0,126.0,127.0,24.0,-105.0,-73.0,127.0,127.0,127.0,114.0,85.0,-5.0
126.0,127.0,126.0,127.0,127.0,124.0,126.0,127.0,24.0,-105.0,-73.0,127.0,127.0,127.0,114.0,85.0,-5.0
126.0,127.0,126.0,127.0,127.0,124.0,127.0,127.0,24.0,-105.0,-73.0,127.0,127.0,127.0,114.0,85.0,-5.0
126.0,127.0,126.0,127.0,127.0,124.0,127.0,127.0,24.0,-105.0,-73.0,127.0,127.0,127.0,114.0,85.0,-5.0
126.0,127.0,126.0,127.0,127.0,124.0,126.0,127.0,24.0,-105.0,-73.0,127.0,127.0,127.0,114.0,85.0,-5.0
126.0,127.0,126.0,127.0,127.0,124.0,126.0,127.0,24.0,-105.0,-73.0,127.0,127.0,127.0,114.0,85.0,-5.0
126.0,127.0,126.0,127.0,127.0,125.0,126.0,127.0,24.0,-105.0,-73.0,127.0,127.0,127.0,114.0,85.0,-5.0
126.0,127.0,126.0,127.0,127.0,126.0,126.0,127.0,24.0,-105.0,-73.0,127.0,127.0,127.0,114.0,85.0,-5.0
126.0,127.0,127.0,127.0,127.0,122.0,127.0,127.0,24.0,-105.0,-73.0,127.0,127.0,127.0,114.0,85.0,-5.0
126.0,127.0,127.0,127.0,127.0,124.0,127.0,127.0,24.0,-105.0,-73.0,127.0,127.0,127.0,114.0,85.0,-5.0
126.0,127.0,127.0,127.0,127.0,124.0,127.0,127.0,24.0,-105.0,-73.0,127.0,127.0,127.0,114.0,85.0,-5.0
126.0,127.0,127.0,127.0,127.0,124.0,127.0,127.0,24.0,-105.0,-73.0,127.0,127.0,127.0,114.0,85.0,-5.0
126.0,127.0,127.0,127.0,127.0,123.0,127.0,127.0,24.0,-105.0,-73.0,127.0,127.0,127.0,114.0,85.0,-5.0
126.0,127.0,127.0,127.0,127.0,124.0,127.0,127.0,24.0,-105.0,-73.0,127.0,127.0,127.0,114.0,85.0,-5.0
126.0,127.0,127.0,127.0,127.0,124.0,127.0,127.0,24.0,-105.0,-73.0,127.0,127.0,127.0,114.0,85.0,-5.0
126.0,127.0,127.0,127.0,127.0,123.0,127.0,127.0,24.0,-105.0,-73.0,127.0,127.0,127.0,114.0,85.0,-5.0
126.0,127.0,127.0,127.0,127.0,123.0,127.0,127.0,24.0,-105.0,-73.0,127.0,127.0,127.0,114.0,85.0,-5.0
126.0,127.0,127.0,127.0,127.0,124.0,127.0,127.0,24.0,-105.0,-73.0,127.0,127.0,127.0,114.0,85.0,-5.0
126.0,127.0,127.0,127.0,127.0,124.0,127.0,127.0,24.0,-105.0,-73.0,127.0,127.0,127.0,114.0,85.0,-5.0
126.0,127.0,126.0,127.0,127.0,124.0,127.0,127.0,24.0,-105.0,-73.0,127.0,127.0,127.0,114.0,85.0,-5.0
126.0,127.0,126.0,127.0,127.0,124.0,127.0,127.0,24.0,-105.0,-73.0,127.0,127.0,127.0,114.0,85.0,-5.0
126.0,127.0,126.0,127.0,127.0,125.0,126.0,127.0,24.0,-105.0,-73.0,127.0,127.0,127.0,114.0,85.0,-5.0
126.0,127.0,126.0,127.0,127.0,125.0,126.0,127.0,24.0,-105.0,-73.0,127.0,127.0,127.0,114.0,85.0,-5.0
126.0,127.0,126.0,127.0,127.0,125.0,127.0,127.0,24.0,-105.0,-73.0,127.0,127.0,127.0,114.0,85.0,-5.0
126.0,127.0,126.0,127.0,127.0,125.0,127.0,127.0,24.0,-105.0,-73.0,127.0,127.0,127.0,114.0,85.0,-5.0
126.0,127.0,126.0,127.0,127.0,125.0,127.0,127.0,24.0,-105.0,-73.0,127.0,127.0,127.0,114.0,85.0,-5.0
126.0,127.0,126.0,127.0,127.0,124.0,127.0,127.0,24.0,-105.0,-73.0,127.0,127.0,127.0,114.0,85.0,-5.0
126.0,127.0,126.0,127.0,127.0,124.0,127.0,127.0,24.0,-105.0,-73.0,127.0,127.0,127.0,114.0,85.0,-5.0
126.0,127.0,126.0,127.0,127.0,124.0,127.0,127.0,24.0,-105.0,-73.0,127.0,127.0,127.0,114.0,85.0,-5.0
126.0,127.0,127.0,127.0,127.0,124.0,127.0,127.0,24.0,-105.0,-73.0,127.0,127.0,127.0,114.0,85.0,-5.0
126.0,127.0,126.0,127.0,127.0,125.0,126.0,127.0,24.0,-105.0,-73.0,127.0,127.0,127.0,114.0,85.0,-5.0
126.0,127.0,126.0,128.0,127.0,126.0,126.0,127.0,24.0,-105.0,-73.0,127.0,127.0,127.0,114.0,85.0,-5.0
126.0,127.0,126.0,128.0,127.0,126.0,126.0,128.0,24.0,-105.0,-73.0,127.0,127.0,127.0,114.0,85.0,-5.0
126.0,127.0,126.0,128.0,127.0,126.0,126.0,128.0,24.0,-105.0,-73.0,127.0,127.0,127.0,114.0,85.0,-5.0
126.0,127.0,126.0,128.0,127.0,128.0,126.0,127.0,24.0,-105.0,-73.0,127.0,127.0,127.0,114.0,85.0,-5.0
126.0,127.0,126.0,127.0,127.0,125.0,127.0,127.0,24.0,-105.0,-73.0,127.0,127.0,127.0,114.0,85.0,-5.0
126.0,127.0,126.0,127.0,127.0,124.0,127.0,128.0,24.0,-105.0,-73.0,127.0,127.0,127.0,114.0,85.0,-5.0
126.0,127.0,127.0,127.0,127.0,124.0,127.0,128.0,24.0,-105.0,-73.0,127.0,127.0,127.0,114.0,85.0,-5.0
126.0,127.0,127.0,127.0,127.0,124.0,127.0,127.0,24.0,-105.0,-73.0,127.0,127.0,127.0,114.0,85.0,-5.0
126.0,127.0,126.0,127.0,127.0,124.0,127.0,127.0,24.0,-105.0,-72.0,127.0,127.0,127.0,114.0,85.0,-5.0
126.0,126.0,126.0,127.0,127.0,124.0,127.0,127.0,24.0,-105.0,-72.0,127.0,127.0,127.0,114.0,85.0,-5.0
126.0,126.0,126.0,127.0,127.0,124.0,127.0,127.0,24.0,-105.0,-72.0,127.0,127.0,127.0,114.0,85.0,-5.0
126.0,127.0,125.0,127.0,127.0,124.0,126.0,127.0,24.0,-105.0,-72.0,127.0,127.0,127.0,114.0,85.0,-5.0
126.0,127.0,125.0,127.0,127.0,125.0,126.0,127.0,24.0,-105.0,-72.0,127.0,127.0,127.0,114.0,85.0,-5.0
126.0,126.0,127.0,127.0,126.0,122.0,127.0,127.0,24.0,-105.0,-72.0,127.0,127.0,127.0,114.0,85.0,-5.0
126.0,126.0,127.0,127.0,127.0,122.0,127.0,127.0,24.0,-105.0,-72.0,127.0,127.0,127.0,114.0,85.0,-5.0
126.0,127.0,126.0,127.0,126.0,123.0,126.0,127.0,24.0,-105.0,-72.0,127.0,127.0,127.0,114.0,85.0,-5.0
126.0,127.0,126.0,127.0,127.0,124.0,126.0,127.0,24.0,-105.0,-72.0,127.0,127.0,127.0,114.0,85.0,-5.0
126.0,127.0,126.0,127.0,127.0,124.0,127.0,127.0,24.0,-105.0,-72.0,127.0,127.0,127.0,114.0,85.0,-5.0
126.0,127.0,127.0,127.0,127.0,124.0,127.0,128.0,24.0,-105.0,-72.0,127.0,127.0,127.0,114.0,85.0,-5.0
126.0,127.0,127.0,127.0,127.0,124.0,127.0,127.0,24.0,-105.0,-72.0,127.0,127.0,127.0,114.0,85.0,-5.0
126.0,127.0,127.0,127.0,127.0,124.0,127.0,127.0,24.0,-105.0,-72.0,127.0,127.0,127.0,114.0,85.0,-5.0
126.0,127.0,126.0,127.0,127.0,125.0,126.0,127.0,24.0,-105.0,-72.0,127.0,127.0,127.0,114.0,85.0,-5.0
126.0,127.0,127.0,127.0,127.0,122.0,127.0,127.0,24.0,-105.0,-72.0,127.0,127.0,127.0,114.0,85.0,-5.0
126.0,127.0,127.0,127.0,127.0,122.0,127.0,127.0,24.0,-105.0,-72.0,127.0,127.0,127.0,114.0,85.0,-5.0
126.0,127.0,126.0,127.0,127.0,123.0,127.0,127.0,24.0,-105.0,-72.0,127.0,127.0,127.0,114.0,85.0,-5.0
126.0,127.0,126.0,127.0,127.0,124.0,127.0,127.0,24.0,-105.0,-72.0,127.0,127.0,127.0,114.0,85.0,-5.0
126.0,127.0,126.0,127.0,127.0,124.0,127.0,127.0,24.0,-105.0,-72.0,127.0,127.0,127.0,114.0,85.0,-5.0
126.0,127.0,126.0,127.0,127.0,124.0,127.0,127.0,24.0,-105.0,-72.0,127.0,127.0,127.0,114.0,85.0,-5.0
126.0,127.0,127.0,127.0,127.0,124.0,127.0,128.0,25.0,-105.0,-72.0,127.0,127.0,127.0,114.0,85.0,-5.0
126.0,127.0,127.0,127.0,127.0,124.0,127.0,128.0,25.0,-105.0,-72.0,127.0,127.0,127.0,114.0,85.0,-5.0
126.0,127.0,126.0,127.0,127.0,125.0,127.0,128.0,25.0,-105.0,-72.0,127.0,127.0,127.0,114.0,85.0,-5.0
126.0,127.0,127.0,127.0,127.0,122.0,127.0,128.0,25.0,-105.0,-72.0,127.0,127.0,127.0,114.0,85.0,-5.0
126.0,127.0,127.0,127.0,127.0,122.0,127.0,128.0,25.0,-105.0,-72.0,127.0,127.0,127.0,114.0,85.0,-5.0
126.0,127.0,127.0,127.0,127.0,123.0,127.0,128.0,25.0,-105.0,-72.0,127.0,127.0,127.0,114.0,85.0,-5.0
126.0,127.0,126.0,127.0,127.0,124.0,127.0,128.0,25.0,-105.0,-72.0,127.0,127.0,127.0,114.0,85.0,-5.0
126.0,127.0,127.0,127.0,127.0,124.0,127.0,128.0,25.0,-105.0,-72.0,127.0,127.0,127.0,114.0,85.0,-5.0
126.0,127.0,127.0,127.0,127.0,124.0,127.0,128.0,25.0,-105.0,-72.0,127.0,127.0,127.0,114.0,85.0,-5.0
126.0,127.0,127.0,127.0,127.0,124.0,127.0,128.0,25.0,-105.0,-72.0,127.0,127.0,127.0,114.0,85.0,-5.0
126.0,127.0,127.0,127.0,127.0,125.0,127.0,127.0,25.0,-105.0,-72.0,127.0,127.0,127.0,114.0,85.0,-5.0
126.0,127.0,127.0,127.0,127.0,126.0,127.0,127.0,25.0,-105.0,-72.0,127.0,127.0,127.0,114.0,85.0,-5.0
126.0,127.0,127.0,127.0,127.0,122.0,127.0,128.0,25.0,-105.0,-72.0,127.0,127.0,127.0,114.0,85.0,-5.0
126.0,127.0,127.0,127.0,127.0,123.0,127.0,127.0,25.0,-105.0,-72.0,127.0,127.0,127.0,114.0,85.0,-5.0
126.0,127.0,127.0,127.0,127.0,123.0,127.0,127.0,25.0,-105.0,-72.0,127.0,127.0,127.0,114.0,85.0,-5.0
126.0,127.0,127.0,127.0,127.0,125.0,127.0,127.0,25.0,-105.0,-72.0,127.0,127.0,127.0,114.0,85.0,-5.0
126.0,127.0,127.0,127.0,127.0,125.0,127.0,127.0,25.0,-105.0,-72.0,127.0,127.0,127.0,114.0,85.0,-5.0
126.0,127.0,127.0,127.0,127.0,125.0,127.0,128.0,25.0,-105.0,-72.0,127.0,127.0,127.0,114.0,85.0,-5.0
126.0,127.0,127.0,127.0,127.0,125.0,127.0,127.0,25.0,-105.0,-72.0,127.0,127.0,127.0,114.0,85.0,-5.0
126.0,127.0,127.0,127.0,127.0,124.0,127.0,127.0,25.0,-105.0,-72.0,127.0,127.0,127.0,114.0,85.0,-5.0
126.0,127.0,127.0,127.0,127.0,124.0,127.0,128.0,25.0,-105.0,-71.0,127.0,127.0,127.0,114.0,85.0,-5.0
126.0,127.0,127.0,127.0,127.0,126.0,127.0,128.0,25.0,-105.0,-71.0,127.0,127.0,127.0,114.0,85.0,-5.0
126.0,127.0,127.0,127.0,127.0,126.0,127.0,128.0,25.0,-105.0,-71.0,127.0,127.0,127.0,114.0,85.0,-5.0
126.0,127.0,127.0,127.0,127.0,126.0,127.0,128.0,25.0,-105.0,-71.0,127.0,127.0,127.0,114.0,85.0,-5.0
126.0,127.0,127.0,127.0,127.0,125.0,127.0,128.0,25.0,-105.0,-71.0,127.0,127.0,127.0,114.0,85.0,-5.0
126.0,127.0,127.0,127.0,127.0,125.0,127.0,128.0,25.0,-105.0,-71.0,127.0,127.0,127.0,114.0,85.0,-5.0
126.0,127.0,127.0,127.0,127.0,125.0,127.0,128.0,25.0,-105.0,-71.0,127.0,127.0,127.0,114.0,85.0,-5.0
126.0,127.0,127.0,127.0,127.0,125.0,127.0,128.0,25.0,-105.0,-71.0,127.0,127.0,127.0,114.0,85.0,-5.0
126.0,127.0,127.0,127.0,127.0,124.0,127.0,128.0,25.0,-105.0,-71.0,127.0,127.0,127.0,114.0,85.0,-5.0
126.0,127.0,127.0,127.0,127.0,125.0,127.0,128.0,25.0,-105.0,-71.0,127.0,127.0,127.0,114.0,85.0,-5.0
126.0,127.0,126.0,127.0,127.0,124.0,127.0,128.0,25.0,-105.0,-71.0,127.0,127.0,127.0,114.0,85.0,-5.0
126.0,127.0,126.0,127.0,127.0,125.0,127.0,128.0,25.0,-105.0,-71.0,127.0,127.0,127.0,114.0,85.0,-5.0
126.0,127.0,126.0,127.0,127.0,125.0,127.0,128.0,25.0,-105.0,-71.0,127.0,127.0,127.0,114.0,85.0,-5.0
126.0,127.0,126.0,127.0,127.0,125.0,127.0,128.0,25.0,-105.0,-71.0,127.0,127.0,127.0,114.0,85.0,-5.0
126.0,127.0,126.0,127.0,127.0,124.0,127.0,128.0,25.0,-105.0,-71.0,127.0,127.0,127.0,114.0,85.0,-5.0
126.0,127.0,127.0,127.0,127.0,125.0,127.0,128.0,25.0,-105.0,-71.0,127.0,127.0,127.0,114.0,85.0,-5.0
126.0,127.0,126.0,127.0,127.0,125.0,127.0,127.0,25.0,-105.0,-71.0,127.0,127.0,127.0,114.0,85.0,-5.0
126.0,127.0,126.0,127.0,127.0,126.0,127.0,128.0,25.0,-105.0,-71.0,127.0,127.0,127.0,114.0,85.0,-5.0
126.0,127.0,126.0,127.0,127.0,126.0,127.0,128.0,25.0,-105.0,-71.0,127.0,127.0,127.0,114.0,85.0,-5.0
126.0,127.0,127.0,127.0,127.0,126.0,127.0,128.0,25.0,-105.0,-71.0,127.0,127.0,127.0,114.0,85.0,-5.0
126.0,127.0,126.0,127.0,127.0,125.0,126.0,127.0,25.0,-105.0,-71.0,127.0,127.0,127.0,114.0,85.0,-5.0
126.0,127.0,126.0,127.0,127.0,124.0,126.0,127.0,25.0,-105.0,-71.0,127.0,127.0,127.0,114.0,85.0,-5.0
126.0,127.0,126.0,127.0,127.0,124.0,126.0,127.0,25.0,-105.0,-71.0,127.0,127.0,127.0,114.0,85.0,-5.0
126.0,127.0,126.0,127.0,127.0,124.0,126.0,127.0,25.0,-105.0,-71.0,127.0,127.0,127.0,114.0,85.0,-5.0
126.0,127.0,126.0,127.0,127.0,124.0,126.0,127.0,25.0,-105.0,-71.0,127.0,127.0,127.0,114.0,85.0,-5.0
126.0,127.0,126.0,127.0,127.0,124.0,126.0,127.0,25.0,-105.0,-71.0,127.0,127.0,127.0,114.0,85.0,-5.0
126.0,127.0,126.0,127.0,127.0,126.0,126.0,127.0,25.0,-105.0,-71.0,127.0,127.0,127.0,114.0,85.0,-5.0
126.0,127.0,126.0,127.0,127.0,126.0,126.0,127.0,25.0,-105.0,-71.0,127.0,127.0,127.0,114.0,85.0,-5.0
126.0,127.0,126.0,127.0,127.0,126.0,126.0,127.0,25.0,-105.0,-71.0,127.0,127.0,127.0,114.0,85.0,-5.0
126.0,127.0,126.0,127.0,126.0,123.0,126.0,127.0,25.0,-105.0,-71.0,127.0,127.0,127.0,114.0,85.0,-5.0
126.0,128.0,126.0,127.0,127.0,125.0,127.0,128.0,26.0,-105.0,-71.0,127.0,127.0,127.0,114.0,86.0,-5.0
126.0,127.0,127.0,127.0,127.0,124.0,127.0,128.0,26.0,-105.0,-71.0,127.0,127.0,127.0,114.0,86.0,-5.0
126.0,127.0,127.0,127.0,127.0,124.0,127.0,128.0,26.0,-105.0,-71.0,127.0,127.0,127.0,114.0,86.0,-5.0
126.0,127.0,127.0,127.0,127.0,124.0,127.0,128.0,26.0,-105.0,-71.0,127.0,127.0,127.0,114.0,86.0,-5.0
126.0,127.0,127.0,127.0,127.0,124.0,127.0,128.0,26.0,-105.0,-71.0,127.0,127.0,127.0,114.0,86.0,-5.0
126.0,128.0,126.0,127.0,127.0,126.0,127.0,128.0,26.0,-105.0,-71.0,127.0,127.0,127.0,114.0,86.0,-5.0
126.0,128.0,126.0,127.0,127.0,126.0,127.0,128.0,26.0,-105.0,-71.0,127.0,127.0,127.0,114.0,86.0,-5.0
126.0,128.0,127.0,127.0,127.0,126.0,127.0,128.0,26.0,-105.0,-71.0,127.0,127.0,127.0,114.0,86.0,-5.0
126.0,127.0,127.0,127.0,127.0,123.0,127.0,128.0,26.0,-105.0,-71.0,127.0,127.0,127.0,114.0,86.0,-5.0
126.0,128.0,126.0,127.0,127.0,124.0,127.0,128.0,26.0,-105.0,-71.0,127.0,127.0,127.0,114.0,86.0,-5.0
126.0,127.0,127.0,127.0,127.0,125.0,126.0,127.0,26.0,-105.0,-71.0,127.0,127.0,127.0,114.0,86.0,-5.0
126.0,127.0,127.0,127.0,127.0,125.0,126.0,127.0,26.0,-105.0,-71.0,127.0,127.0,127.0,114.0,86.0,-5.0
126.0,127.0,126.0,127.0,127.0,125.0,126.0,127.0,26.0,-105.0,-71.0,127.0,127.0,127.0,114.0,86.0,-5.0
126.0,127.0,126.0,127.0,127.0,125.0,126.0,127.0,26.0,-105.0,-71.0,127.0,127.0,127.0,114.0,86.0,-5.0
126.0,127.0,126.0,127.0,127.0,126.0,126.0,127.0,26.0,-105.0,-71.0,127.0,127.0,127.0,114.0,86.0,-5.0
126.0,127.0,126.0,127.0,127.0,126.0,126.0,127.0,26.0,-105.0,-71.0,127.0,127.0,127.0,114.0,86.0,-5.0
126.0,127.0,126.0,127.0,127.0,126.0,126.0,127.0,26.0,-105.0,-71.0,127.0,127.0,127.0,114.0,86.0,-5.0
126.0,127.0,126.0,127.0,127.0,123.0,126.0,127.0,26.0,-105.0,-71.0,127.0,127.0,127.0,114.0,86.0,-5.0
126.0,127.0,126.0,127.0,127.0,125.0,126.0,127.0,26.0,-105.0,-71.0,127.0,127.0,127.0,114.0,86.0,-5.0
126.0,127.0,126.0,127.0,127.0,125.0,126.0,127.0,26.0,-105.0,-71.0,127.0,127.0,127.0,114.0,86.0,-5.0
126.0,127.0,127.0,127.0,127.0,124.0,127.0,128.0,27.0,-105.0,-70.0,127.0,127.0,127.0,114.0,86.0,-5.0
126.0,127.0,127.0,127.0,127.0,124.0,127.0,128.0,27.0,-105.0,-70.0,127.0,127.0,127.0,114.0,86.0,-5.0
126.0,127.0,127.0,127.0,127.0,124.0,127.0,128.0,27.0,-105.0,-70.0,127.0,127.0,127.0,114.0,86.0,-5.0
126.0,127.0,127.0,127.0,127.0,125.0,127.0,128.0,27.0,-105.0,-70.0,127.0,127.0,127.0,114.0,86.0,-5.0
126.0,127.0,127.0,127.0,127.0,126.0,127.0,128.0,27.0,-105.0,-70.0,127.0,127.0,127.0,114.0,86.0,-5.0
126.0,127.0,127.0,127.0,127.0,126.0,127.0,128.0,27.0,-105.0,-70.0,127.0,127.0,127.0,114.0,86.0,-5.0
126.0,127.0,127.0,127.0,127.0,123.0,127.0,128.0,27.0,-105.0,-70.0,127.0,127.0,127.0,114.0,86.0,-5.0
126.0,127.0,127.0,127.0,127.0,124.0,127.0,128.0,27.0,-105.0,-70.0,127.0,127.0,127.0,114.0,86.0,-5.0
126.0,127.0,127.0,127.0,127.0,125.0,127.0,128.0,27.0,-105.0,-70.0,127.0,127.0,127.0,114.0,86.0,-5.0
126.0,127.0,127.0,127.0,127.0,124.0,127.0,128.0,27.0,-105.0,-70.0,127.0,127.0,127.0,114.0,86.0,-5.0
126.0,127.0,126.0,127.0,127.0,124.0,127.0,128.0,27.0,-105.0,-70.0,127.0,127.0,127.0,114.0,86.0,-5.0
126.0,127.0,127.0,127.0,127.0,124.0,127.0,128.0,27.0,-105.0,-70.0,127.0,127.0,127.0,114.0,86.0,-5.0
126.0,127.0,126.0,127.0,127.0,125.0,126.0,128.0,27.0,-105.0,-70.0,127.0,127.0,127.0,114.0,86.0,-5.0
126.0,127.0,126.0,127.0,127.0,125.0,126.0,128.0,27.0,-105.0,-70.0,127.0,127.0,127.0,114.0,86.0,-5.0
126.0,127.0,126.0,127.0,127.0,125.0,126.0,128.0,27.0,-105.0,-70.0,127.0,127.0,127.0,114.0,86.0,-5.0
126.0,127.0,127.0,127.0,127.0,122.0,127.0,128.0,27.0,-105.0,-70.0,127.0,127.0,127.0,114.0,86.0,-5.0
126.0,127.0,126.0,127.0,127.0,124.0,126.0,128.0,27.0,-105.0,-70.0,127.0,127.0,127.0,114.0,86.0,-5.0
126.0,127.0,126.0,127.0,127.0,124.0,126.0,128.0,27.0,-105.0,-70.0,127.0,127.0,127.0,114.0,86.0,-5.0
126.0,127.0,126.0,127.0,127.0,124.0,127.0,128.0,27.0,-105.0,-70.0,127.0,127.0,127.0,114.0,86.0,-5.0
126.0,127.0,126.0,127.0,127.0,124.0,127.0,128.0,27.0,-105.0,-70.0,127.0,127.0,127.0,114.0,86.0,-5.0
127.0,127.0,126.0,127.0,127.0,124.0,127.0,128.0,27.0,-105.0,-70.0,127.0,127.0,127.0,114.0,86.0,-5.0
127.0,127.0,126.0,127.0,127.0,124.0,127.0,128.0,27.0,-105.0,-70.0,127.0,127.0,127.0,114.0,86.0,-5.0
127.0,127.0,126.0,127.0,127.0,123.0,127.0,128.0,27.0,-105.0,-70.0,127.0,127.0,127.0,114.0,86.0,-5.0
127.0,127.0,126.0,127.0,127.0,124.0,127.0,128.0,27.0,-105.0,-70.0,127.0,127.0,127.0,114.0,86.0,-5.0
126.0,127.0,126.0,127.0,127.0,125.0,127.0,128.0,27.0,-105.0,-70.0,127.0,127.0,127.0,114.0,86.0,-5.0
127.0,127.0,126.0,127.0,127.0,125.0,127.0,128.0,27.0,-105.0,-70.0,127.0,127.0,127.0,114.0,86.0,-5.0
127.0,127.0,126.0,127.0,127.0,125.0,127.0,128.0,27.0,-105.0,-70.0,127.0,127.0,127.0,114.0,86.0,-5.0
127.0,127.0,126.0,127.0,127.0,125.0,127.0,128.0,27.0,-105.0,-70.0,127.0,127.0,127.0,114.0,86.0,-5.0
127.0,127.0,126.0,127.0,127.0,124.0,127.0,128.0,27.0,-105.0,-70.0,127.0,127.0,127.0,114.0,86.0,-5.0
127.0,127.0,126.0,127.0,127.0,124.0,127.0,128.0,27.0,-105.0,-70.0,127.0,127.0,127.0,114.0,86.0,-5.0
126.0,127.0,127.0,127.0,127.0,125.0,127.0,128.0,28.0,-105.0,-70.0,127.0,127.0,127.0,114.0,86.0,-5.0
126.0,127.0,127.0,127.0,127.0,124.0,127.0,127.0,28.0,-105.0,-70.0,127.0,127.0,127.0,114.0,86.0,-5.0
126.0,127.0,127.0,127.0,127.0,124.0,127.0,128.0,28.0,-105.0,-70.0,127.0,127.0,127.0,114.0,86.0,-5.0
126.0,127.0,126.0,127.0,127.0,126.0,126.0,128.0,28.0,-105.0,-70.0,127.0,127.0,127.0,114.0,86.0,-5.0
126.0,127.0,126.0,127.0,127.0,125.0,126.0,128.0,28.0,-105.0,-70.0,127.0,127.0,127.0,114.0,86.0,-5.0
126.0,127.0,126.0,127.0,127.0,125.0,126.0,128.0,28.0,-105.0,-70.0,127.0,127.0,127.0,114.0,86.0,-5.0
126.0,127.0,126.0,127.0,127.0,125.0,126.0,128.0,28.0,-105.0,-70.0,127.0,127.0,127.0,114.0,86.0,-5.0
126.0,127.0,126.0,127.0,127.0,125.0,126.0,128.0,28.0,-105.0,-70.0,127.0,127.0,127.0,114.0,86.0,-5.0
126.0,127.0,126.0,127.0,127.0,125.0,127.0,127.0,28.0,-105.0,-70.0,127.0,127.0,127.0,114.0,86.0,-5.0
126.0,127.0,127.0,127.0,127.0,125.0,127.0,128.0,28.0,-105.0,-70.0,127.0,127.0,127.0,114.0,86.0,-5.0
126.0,127.0,127.0,127.0,127.0,126.0,126.0,128.0,28.0,-104.0,-69.0,127.0,127.0,127.0,114.0,86.0,-5.0
126.0,127.0,127.0,127.0,127.0,127.0,126.0,128.0,28.0,-104.0,-69.0,127.0,127.0,127.0,114.0,86.0,-5.0
126.0,127.0,127.0,127.0,127.0,123.0,127.0,128.0,28.0,-104.0,-69.0,127.0,127.0,127.0,114.0,86.0,-5.0
126.0,127.0,127.0,127.0,127.0,124.0,126.0,128.0,28.0,-104.0,-69.0,127.0,127.0,127.0,114.0,86.0,-5.0
126.0,127.0,127.0,127.0,127.0,125.0,126.0,128.0,28.0,-104.0,-69.0,127.0,127.0,127.0,114.0,86.0,-5.0
126.0,127.0,127.0,127.0,127.0,125.0,126.0,128.0,28.0,-104.0,-69.0,127.0,127.0,127.0,114.0,86.0,-5.0
126.0,127.0,127.0,127.0,127.0,125.0,127.0,128.0,28.0,-104.0,-69.0,127.0,127.0,127.0,114.0,86.0,-5.0
126.0,127.0,127.0,127.0,127.0,125.0,127.0,128.0,28.0,-104.0,-69.0,127.0,127.0,127.0,114.0,86.0,-5.0
126.0,127.0,127.0,127.0,127.0,125.0,127.0,128.0,28.0,-104.0,-69.0,127.0,127.0,127.0,114.0,86.0,-5.0
126.0,127.0,127.0,127.0,127.0,125.0,126.0,128.0,28.0,-104.0,-69.0,127.0,127.0,127.0,114.0,86.0,-5.0
126.0,127.0,127.0,127.0,127.0,127.0,126.0,128.0,28.0,-104.0,-69.0,127.0,127.0,127.0,114.0,86.0,-5.0
126.0,126.0,127.0,127.0,127.0,124.0,127.0,128.0,28.0,-104.0,-69.0,127.0,127.0,127.0,114.0,86.0,-5.0
126.0,126.0,127.0,127.0,127.0,124.0,126.0,128.0,28.0,-104.0,-69.0,127.0,127.0,127.0,114.0,86.0,-5.0
126.0,127.0,126.0,127.0,127.0,126.0,126.0,127.0,28.0,-104.0,-69.0,127.0,127.0,127.0,114.0,86.0,-5.0
126.0,127.0,127.0,127.0,127.0,126.0,126.0,128.0,28.0,-104.0,-69.0,127.0,127.0,127.0,114.0,86.0,-5.0
126.0,127.0,127.0,127.0,127.0,126.0,126.0,128.0,28.0,-104.0,-69.0,127.0,127.0,127.0,114.0,86.0,-5.0
126.0,127.0,127.0,127.0,127.0,125.0,127.0,128.0,28.0,-104.0,-69.0,127.0,127.0,127.0,114.0,86.0,-5.0
126.0,127.0,127.0,127.0,127.0,125.0,126.0,128.0,28.0,-104.0,-69.0,127.0,127.0,127.0,114.0,86.0,-5.0
126.0,126.0,127.0,127.0,127.0,125.0,126.0,128.0,28.0,-104.0,-69.0,127.0,127.0,127.0,114.0,86.0,-5.0
126.0,127.0,127.0,127.0,127.0,126.0,126.0,128.0,28.0,-104.0,-69.0,127.0,127.0,127.0,114.0,86.0,-5.0
126.0,127.0,127.0,127.0,127.0,124.0,126.0,128.0,28.0,-104.0,-69.0,127.0,127.0,127.0,114.0,87.0,-5.0
126.0,127.0,127.0,127.0,127.0,124.0,126.0,128.0,28.0,-104.0,-69.0,127.0,127.0,127.0,114.0,87.0,-5.0
126.0,127.0,127.0,127.0,127.0,126.0,126.0,128.0,28.0,-104.0,-69.0,127.0,127.0,127.0,114.0,87.0,-5.0
126.0,127.0,127.0,127.0,127.0,126.0,126.0,128.0,28.0,-104.0,-69.0,127.0,127.0,127.0,114.0,87.0,-5.0
126.0,127.0,127.0,127.0,127.0,126.0,126.0,128.0,28.0,-104.0,-69.0,127.0,127.0,127.0,114.0,87.0,-5.0
126.0,127.0,127.0,127.0,127.0,126.0,126.0,128.0,28.0,-104.0,-69.0,127.0,127.0,127.0,114.0,87.0,-5.0
126.0,127.0,127.0,127.0,127.0,126.0,126.0,128.0,28.0,-104.0,-69.0,127.0,127.0,127.0,114.0,87.0,-5.0
126.0,127.0,127.0,127.0,127.0,126.0,126.0,128.0,28.0,-104.0,-69.0,127.0,127.0,127.0,114.0,87.0,-5.0
126.0,127.0,127.0,127.0,127.0,127.0,126.0,128.0,28.0,-104.0,-69.0,127.0,127.0,127.0,114.0,87.0,-5.0
126.0,127.0,127.0,127.0,127.0,127.0,126.0,128.0,28.0,-104.0,-69.0,127.0,127.0,127.0,114.0,87.0,-5.0
126.0,127.0,127.0,127.0,127.0,124.0,127.0,127.0,28.0,-104.0,-69.0,127.0,127.0,127.0,114.0,87.0,-5.0
126.0,127.0,127.0,127.0,127.0,125.0,126.0,127.0,28.0,-104.0,-69.0,127.0,127.0,127.0,114.0,87.0,-5.0
126.0,127.0,127.0,127.0,127.0,126.0,126.0,127.0,28.0,-104.0,-69.0,127.0,127.0,127.0,114.0,87.0,-5.0
126.0,127.0,126.0,127.0,127.0,126.0,126.0,127.0,28.0,-104.0,-69.0,127.0,127.0,127.0,114.0,87.0,-5.0
126.0,127.0,127.0,127.0,127.0,126.0,127.0,127.0,28.0,-104.0,-69.0,127.0,127.0,127.0,114.0,87.0,-5.0
126.0,127.0,127.0,127.0,127.0,125.0,126.0,127.0,28.0,-104.0,-69.0,127.0,127.0,127.0,114.0,87.0,-5.0
126.0,127.0,127.0,127.0,127.0,126.0,126.0,127.0,28.0,-104.0,-69.0,127.0,127.0,127.0,114.0,87.0,-5.0
126.0,127.0,127.0,127.0,127.0,126.0,126.0,127.0,28.0,-104.0,-69.0,127.0,127.0,127.0,114.0,87.0,-5.0
126.0,127.0,127.0,128.0,127.0,127.0,126.0,127.0,28.0,-104.0,-69.0,127.0,127.0,127.0,114.0,87.0,-5.0
126.0,127.0,127.0,127.0,127.0,124.0,127.0,127.0,28.0,-104.0,-69.0,127.0,127.0,127.0,114.0,87.0,-5.0
126.0,127.0,127.0,127.0,127.0,123.0,127.0,128.0,29.0,-104.0,-68.0,127.0,127.0,127.0,114.0,87.0,-5.0
126.0,127.0,127.0,127.0,127.0,124.0,127.0,128.0,29.0,-104.0,-68.0,127.0,127.0,127.0,114.0,87.0,-5.0
126.0,127.0,127.0,127.0,127.0,124.0,127.0,128.0,29.0,-104.0,-68.0,127.0,127.0,127.0,114.0,87.0,-5.0
126.0,127.0,127.0,127.0,127.0,124.0,127.0,128.0,29.0,-104.0,-68.0,127.0,127.0,127.0,114.0,87.0,-5.0
126.0,127.0,127.0,127.0,127.0,124.0,127.0,128.0,29.0,-104.0,-68.0,127.0,127.0,127.0,114.0,87.0,-5.0
126.0,127.0,127.0,127.0,127.0,124.0,127.0,128.0,29.0,-104.0,-68.0,127.0,127.0,127.0,114.0,87.0,-5.0
126.0,127.0,127.0,127.0,127.0,125.0,126.0,127.0,29.0,-104.0,-68.0,127.0,127.0,127.0,114.0,87.0,-5.0
126.0,127.0,127.0,127.0,127.0,126.0,126.0,127.0,29.0,-104.0,-68.0,127.0,127.0,127.0,114.0,87.0,-5.0
126.0,127.0,127.0,127.0,127.0,122.0,127.0,128.0,29.0,-104.0,-68.0,127.0,127.0,127.0,114.0,87.0,-5.0
126.0,127.0,127.0,127.0,127.0,122.0,127.0,128.0,29.0,-104.0,-68.0,127.0,127.0,127.0,114.0,87.0,-5.0
126.0,127.0,126.0,127.0,127.0,126.0,126.0,127.0,29.0,-104.0,-68.0,127.0,127.0,127.0,114.0,87.0,-5.0
126.0,127.0,126.0,127.0,127.0,126.0,126.0,128.0,29.0,-104.0,-68.0,127.0,127.0,127.0,114.0,87.0,-5.0
126.0,127.0,126.0,127.0,127.0,125.0,126.0,128.0,29.0,-104.0,-68.0,127.0,127.0,127.0,114.0,87.0,-5.0
126.0,127.0,126.0,127.0,127.0,125.0,126.0,128.0,29.0,-104.0,-68.0,127.0,127.0,127.0,114.0,87.0,-5.0
126.0,127.0,126.0,127.0,127.0,125.0,126.0,128.0,29.0,-104.0,-68.0,127.0,127.0,127.0,114.0,87.0,-5.0
126.0,127.0,127.0,127.0,127.0,125.0,126.0,128.0,29.0,-104.0,-68.0,127.0,127.0,127.0,114.0,87.0,-5.0
126.0,127.0,127.0,127.0,127.0,127.0,126.0,128.0,29.0,-104.0,-68.0,127.0,127.0,127.0,114.0,87.0,-5.0
126.0,126.0,126.0,127.0,127.0,124.0,127.0,127.0,29.0,-104.0,-68.0,127.0,127.0,127.0,114.0,87.0,-5.0
126.0,126.0,126.0,127.0,127.0,124.0,127.0,127.0,29.0,-104.0,-68.0,127.0,127.0,127.0,114.0,87.0,-5.0
126.0,126.0,126.0,127.0,127.0,124.0,126.0,127.0,29.0,-104.0,-68.0,127.0,127.0,127.0,114.0,87.0,-5.0
126.0,127.0,126.0,127.0,127.0,126.0,127.0,128.0,29.0,-104.0,-68.0,127.0,126.0,127.0,114.0,87.0,-5.0
126.0,127.0,126.0,127.0,127.0,126.0,127.0,128.0,29.0,-104.0,-68.0,127.0,126.0,127.0,114.0,87.0,-5.0
126.0,127.0,126.0,127.0,127.0,126.0,127.0,128.0,29.0,-104.0,-68.0,127.0,126.0,127.0,114.0,87.0,-5.0
126.0,127.0,126.0,127.0,127.0,126.0,127.0,128.0,29.0,-104.0,-68.0,127.0,126.0,127.0,114.0,87.0,-5.0
126.0,127.0,126.0,127.0,127.0,126.0,127.0,128.0,29.0,-104.0,-68.0,127.0,126.0,127.0,114.0,87.0,-5.0
126.0,127.0,126.0,127.0,127.0,127.0,126.0,128.0,29.0,-104.0,-68.0,127.0,126.0,127.0,114.0,87.0,-5.0
126.0,127.0,127.0,127.0,127.0,124.0,127.0,128.0,29.0,-104.0,-68.0,127.0,126.0,127.0,114.0,87.0,-5.0
126.0,127.0,127.0,127.0,127.0,124.0,127.0,128.0,29.0,-104.0,-68.0,127.0,126.0,127.0,114.0,87.0,-5.0
126.0,127.0,127.0,127.0,127.0,125.0,127.0,128.0,29.0,-104.0,-68.0,127.0,126.0,127.0,114.0,87.0,-5.0
126.0,127.0,126.0,127.0,127.0,126.0,126.0,128.0,29.0,-104.0,-68.0,127.0,126.0,127.0,114.0,87.0,-5.0
126.0,127.0,127.0,127.0,127.0,125.0,127.0,128.0,29.0,-104.0,-68.0,127.0,126.0,127.0,114.0,87.0,-5.0
126.0,127.0,127.0,127.0,127.0,125.0,127.0,128.0,29.0,-104.0,-68.0,127.0,126.0,127.0,114.0,87.0,-5.0
126.0,127.0,126.0,127.0,127.0,125.0,127.0,128.0,29.0,-104.0,-68.0,127.0,126.0,127.0,114.0,87.0,-5.0
126.0,127.0,126.0,127.0,127.0,125.0,126.0,128.0,29.0,-104.0,-68.0,127.0,126.0,127.0,114.0,87.0,-5.0
126.0,127.0,126.0,127.0,127.0,126.0,126.0,127.0,29.0,-104.0,-68.0,127.0,126.0,127.0,114.0,87.0,-5.0
126.0,127.0,127.0,127.0,127.0,123.0,127.0,127.0,29.0,-104.0,-68.0,127.0,126.0,127.0,114.0,87.0,-5.0
126.0,127.0,127.0,127.0,127.0,124.0,127.0,127.0,29.0,-104.0,-68.0,127.0,126.0,127.0,114.0,87.0,-5.0
126.0,127.0,127.0,127.0,127.0,124.0,127.0,127.0,29.0,-104.0,-68.0,127.0,126.0,127.0,114.0,87.0,-5.0
126.0,127.0,127.0,127.0,127.0,125.0,126.0,127.0,29.0,-104.0,-68.0,127.0,126.0,127.0,114.0,87.0,-5.0
126.0,127.0,126.0,127.0,127.0,126.0,126.0,127.0,29.0,-104.0,-68.0,127.0,126.0,127.0,114.0,87.0,-5.0
126.0,127.0,127.0,127.0,127.0,124.0,127.0,128.0,30.0,-104.0,-67.0,127.0,126.0,127.0,114.0,87.0,-5.0
126.0,127.0,127.0,127.0,127.0,124.0,127.0,128.0,30.0,-104.0,-67.0,127.0,126.0,127.0,114.0,87.0,-5.0
126.0,127.0,126.0,127.0,127.0,124.0,127.0,128.0,30.0,-104.0,-67.0,127.0,126.0,127.0,114.0,87.0,-5.0
126.0,127.0,127.0,127.0,127.0,124.0,127.0,128.0,30.0,-104.0,-67.0,127.0,126.0,127.0,114.0,87.0,-5.0
126.0,127.0,127.0,127.0,127.0,124.0,127.0,128.0,30.0,-104.0,-67.0,127.0,126.0,127.0,114.0,87.0,-5.0
126.0,127.0,127.0,127.0,127.0,124.0,127.0,128.0,30.0,-104.0,-67.0,127.0,126.0,127.0,114.0,87.0,-5.0
126.0,127.0,127.0,127.0,127.0,124.0,127.0,128.0,30.0,-104.0,-67.0,127.0,126.0,127.0,114.0,87.0,-5.0
126.0,127.0,127.0,127.0,127.0,124.0,127.0,128.0,30.0,-104.0,-67.0,127.0,126.0,127.0,114.0,87.0,-5.0
126.0,127.0,127.0,127.0,127.0,124.0,127.0,128.0,30.0,-104.0,-67.0,127.0,126.0,127.0,114.0,87.0,-5.0
126.0,127.0,127.0,127.0,127.0,124.0,127.0,128.0,30.0,-104.0,-67.0,127.0,126.0,127.0,114.0,87.0,-5.0
126.0,127.0,127.0,127.0,127.0,127.0,126.0,127.0,30.0,-103.0,-67.0,127.0,126.0,127.0,114.0,87.0,-5.0
126.0,127.0,127.0,127.0,127.0,127.0,126.0,128.0,30.0,-103.0,-67.0,127.0,126.0,127.0,114.0,87.0,-5.0
126.0,127.0,127.0,127.0,127.0,127.0,126.0,128.0,30.0,-103.0,-67.0,127.0,126.0,127.0,114.0,87.0,-5.0
126.0,127.0,127.0,127.0,127.0,126.0,126.0,127.0,30.0,-103.0,-67.0,127.0,126.0,127.0,114.0,87.0,-5.0
126.0,127.0,127.0,127.0,127.0,126.0,126.0,127.0,30.0,-103.0,-67.0,127.0,126.0,127.0,114.0,87.0,-5.0
126.0,127.0,127.0,127.0,127.0,126.0,127.0,127.0,30.0,-103.0,-67.0,127.0,126.0,127.0,114.0,87.0,-5.0
126.0,127.0,127.0,127.0,127.0,126.0,127.0,128.0,30.0,-103.0,-67.0,127.0,126.0,127.0,114.0,87.0,-5.0
126.0,127.0,127.0,127.0,127.0,126.0,127.0,127.0,30.0,-103.0,-67.0,127.0,126.0,127.0,114.0,87.0,-5.0
126.0,127.0,127.0,127.0,127.0,126.0,127.0,128.0,30.0,-103.0,-67.0,127.0,126.0,127.0,114.0,87.0,-5.0
126.0,127.0,127.0,127.0,127.0,126.0,126.0,127.0,30.0,-103.0,-67.0,127.0,126.0,127.0,114.0,87.0,-5.0
126.0,127.0,126.0,127.0,127.0,127.0,127.0,128.0,30.0,-103.0,-67.0,127.0,126.0,127.0,114.0,87.0,-5.0
126.0,127.0,126.0,127.0,127.0,126.0,127.0,128.0,30.0,-103.0,-67.0,127.0,126.0,127.0,114.0,87.0,-5.0
126.0,127.0,126.0,127.0,126.0,124.0,127.0,128.0,30.0,-103.0,-67.0,127.0,126.0,127.0,114.0,87.0,-5.0
126.0,127.0,126.0,127.0,127.0,125.0,127.0,128.0,30.0,-103.0,-67.0,127.0,126.0,127.0,114.0,87.0,-5.0
126.0,127.0,126.0,127.0,127.0,125.0,127.0,128.0,30.0,-103.0,-67.0,127.0,126.0,127.0,114.0,87.0,-5.0
126.0,127.0,126.0,127.0,127.0,125.0,127.0,128.0,30.0,-103.0,-67.0,127.0,126.0,127.0,114.0,87.0,-5.0
126.0,127.0,126.0,127.0,127.0,125.0,127.0,128.0,30.0,-103.0,-67.0,127.0,126.0,127.0,114.0,87.0,-5.0
126.0,127.0,126.0,127.0,127.0,125.0,127.0,128.0,30.0,-103.0,-67.0,127.0,126.0,127.0,114.0,87.0,-5.0
126.0,127.0,126.0,127.0,127.0,125.0,127.0,128.0,30.0,-103.0,-67.0,127.0,126.0,127.0,114.0,87.0,-5.0
126.0,127.0,126.0,127.0,127.0,127.0,127.0,128.0,30.0,-103.0,-67.0,127.0,126.0,127.0,114.0,87.0,-5.0
126.0,127.0,126.0,127.0,127.0,127.0,127.0,128.0,30.0,-103.0,-67.0,127.0,126.0,127.0,114.0,87.0,-5.0
126.0,127.0,126.0,127.0,127.0,124.0,127.0,128.0,30.0,-103.0,-67.0,127.0,126.0,127.0,114.0,87.0,-5.0
126.0,127.0,126.0,127.0,127.0,126.0,127.0,128.0,30.0,-103.0,-67.0,127.0,126.0,127.0,114.0,87.0,-5.0
126.0,127.0,126.0,127.0,127.0,126.0,127.0,128.0,30.0,-103.0,-67.0,127.0,126.0,127.0,114.0,87.0,-5.0
126.0,127.0,126.0,127.0,127.0,126.0,127.0,128.0,30.0,-103.0,-67.0,127.0,126.0,127.0,114.0,87.0,-5.0
126.0,127.0,126.0,127.0,127.0,126.0,127.0,128.0,30.0,-103.0,-67.0,127.0,126.0,127.0,114.0,87.0,-5.0
126.0,127.0,126.0,127.0,127.0,126.0,127.0,128.0,30.0,-103.0,-67.0,127.0,126.0,127.0,114.0,87.0,-5.0
126.0,127.0,126.0,127.0,127.0,126.0,127.0,128.0,30.0,-103.0,-67.0,127.0,126.0,127.0,114.0,87.0,-5.0
126.0,127.0,126.0,127.0,127.0,127.0,126.0,128.0,30.0,-103.0,-67.0,127.0,126.0,127.0,114.0,87.0,-5.0
126.0,127.0,126.0,127.0,127.0,127.0,127.0,128.0,30.0,-103.0,-67.0,127.0,126.0,127.0,114.0,87.0,-5.0
126.0,127.0,126.0,127.0,127.0,126.0,127.0,127.0,31.0,-103.0,-67.0,127.0,126.0,127.0,114.0,87.0,-5.0
126.0,127.0,126.0,127.0,127.0,127.0,126.0,128.0,31.0,-103.0,-67.0,127.0,126.0,127.0,114.0,87.0,-5.0
126.0,127.0,126.0,127.0,127.0,128.0,127.0,128.0,31.0,-103.0,-67.0,127.0,126.0,127.0,114.0,87.0,-5.0
126.0,127.0,126.0,127.0,127.0,127.0,127.0,128.0,31.0,-103.0,-67.0,127.0,126.0,127.0,114.0,87.0,-5.0
126.0,127.0,126.0,127.0,127.0,127.0,127.0,127.0,31.0,-103.0,-67.0,127.0,126.0,127.0,114.0,87.0,-5.0
126.0,127.0,126.0,127.0,127.0,128.0,127.0,127.0,31.0,-103.0,-67.0,127.0,126.0,127.0,114.0,87.0,-5.0
126.0,127.0,126.0,127.0,127.0,128.0,127.0,127.0,31.0,-103.0,-67.0,127.0,126.0,127.0,114.0,87.0,-5.0
126.0,127.0,126.0,127.0,127.0,129.0,126.0,127.0,31.0,-103.0,-67.0,127.0,126.0,127.0,114.0,87.0,-5.0
126.0,127.0,126.0,127.0,127.0,129.0,126.0,127.0,31.0,-103.0,-67.0,127.0,126.0,127.0,114.0,87.0,-5.0
126.0,127.0,126.0,127.0,127.0,129.0,126.0,127.0,31.0,-103.0,-67.0,127.0,126.0,127.0,114.0,87.0,-5.0
126.0,128.0,127.0,127.0,127.0,128.0,127.0,128.0,31.0,-103.0,-67.0,127.0,126.0,127.0,114.0,87.0,-5.0
126.0,128.0,127.0,127.0,127.0,129.0,127.0,128.0,31.0,-103.0,-67.0,127.0,126.0,127.0,114.0,87.0,-5.0
126.0,128.0,127.0,127.0,127.0,128.0,127.0,128.0,31.0,-103.0,-67.0,127.0,126.0,127.0,114.0,87.0,-5.0
126.0,127.0,127.0,127.0,127.0,128.0,127.0,128.0,31.0,-103.0,-67.0,127.0,126.0,127.0,114.0,87.0,-5.0
126.0,127.0,127.0,127.0,127.0,128.0,127.0,128.0,31.0,-103.0,-67.0,127.0,126.0,127.0,114.0,87.0,-5.0
126.0,127.0,127.0,127.0,127.0,128.0,127.0,128.0,31.0,-103.0,-67.0,127.0,126.0,127.0,114.0,87.0,-5.0
126.0,128.0,127.0,127.0,127.0,130.0,127.0,128.0,31.0,-103.0,-67.0,127.0,126.0,127.0,114.0,87.0,-5.0
126.0,128.0,127.0,127.0,127.0,130.0,127.0,128.0,31.0,-103.0,-67.0,127.0,126.0,127.0,114.0,87.0,-5.0
126.0,128.0,127.0,127.0,127.0,130.0,127.0,128.0,31.0,-103.0,-67.0,127.0,126.0,127.0,114.0,87.0,-5.0
126.0,127.0,127.0,127.0,127.0,127.0,127.0,127.0,31.0,-103.0,-67.0,127.0,126.0,127.0,114.0,87.0,-5.0
126.0,128.0,127.0,127.0,127.0,130.0,127.0,128.0,31.0,-103.0,-66.0,127.0,126.0,127.0,114.0,87.0,-5.0
126.0,127.0,127.0,127.0,127.0,130.0,127.0,128.0,31.0,-103.0,-66.0,127.0,126.0,127.0,114.0,87.0,-5.0
126.0,127.0,127.0,127.0,127.0,130.0,127.0,128.0,31.0,-103.0,-66.0,127.0,126.0,127.0,114.0,87.0,-5.0
126.0,127.0,127.0,127.0,127.0,130.0,127.0,128.0,31.0,-103.0,-66.0,127.0,126.0,127.0,114.0,87.0,-5.0
126.0,127.0,127.0,127.0,127.0,130.0,127.0,128.0,31.0,-103.0,-66.0,127.0,126.0,127.0,114.0,87.0,-5.0
126.0,127.0,127.0,127.0,127.0,131.0,127.0,128.0,31.0,-103.0,-66.0,127.0,126.0,127.0,114.0,87.0,-5.0
126.0,127.0,127.0,127.0,127.0,131.0,127.0,128.0,31.0,-103.0,-66.0,127.0,126.0,127.0,114.0,87.0,-5.0
126.0,127.0,127.0,127.0,127.0,131.0,127.0,128.0,31.0,-103.0,-66.0,127.0,126.0,127.0,114.0,87.0,-5.0
126.0,127.0,127.0,127.0,127.0,128.0,127.0,128.0,31.0,-103.0,-66.0,127.0,126.0,127.0,114.0,87.0,-5.0
126.0,128.0,127.0,127.0,127.0,130.0,127.0,128.0,31.0,-103.0,-66.0,127.0,126.0,127.0,114.0,87.0,-5.0
126.0,127.0,127.0,127.0,127.0,135.0,127.0,128.0,31.0,-102.0,-66.0,127.0,126.0,127.0,114.0,87.0,-5.0
126.0,127.0,127.0,127.0,127.0,135.0,127.0,128.0,31.0,-102.0,-66.0,127.0,126.0,127.0,114.0,87.0,-5.0
126.0,127.0,127.0,127.0,127.0,135.0,127.0,128.0,31.0,-102.0,-66.0,127.0,126.0,127.0,114.0,87.0,-5.0
126.0,127.0,127.0,127.0,127.0,135.0,127.0,128.0,31.0,-102.0,-66.0,127.0,126.0,127.0,114.0,87.0,-5.0
126.0,127.0,127.0,127.0,127.0,136.0,127.0,128.0,31.0,-102.0,-66.0,127.0,126.0,127.0,114.0,87.0,-5.0
126.0,127.0,127.0,127.0,127.0,137.0,127.0,128.0,31.0,-102.0,-66.0,127.0,126.0,127.0,114.0,87.0,-5.0
126.0,127.0,127.0,127.0,127.0,138.0,127.0,128.0,31.0,-102.0,-66.0,127.0,126.0,127.0,114.0,87.0,-5.0
126.0,127.0,127.0,127.0,127.0,132.0,127.0,128.0,31.0,-102.0,-66.0,127.0,126.0,127.0,114.0,87.0,-5.0
126.0,127.0,127.0,127.0,127.0,134.0,127.0,128.0,31.0,-102.0,-66.0,127.0,126.0,127.0,114.0,87.0,-5.0
126.0,127.0,127.0,127.0,127.0,134.0,127.0,128.0,31.0,-102.0,-66.0,127.0,126.0,127.0,114.0,87.0,-5.0
126.0,127.0,126.0,127.0,127.0,142.0,127.0,128.0,31.0,-102.0,-66.0,127.0,126.0,127.0,114.0,88.0,-5.0
126.0,127.0,126.0,127.0,127.0,142.0,127.0,128.0,31.0,-102.0,-66.0,127.0,126.0,127.0,114.0,88.0,-5.0
126.0,127.0,126.0,127.0,127.0,142.0,127.0,128.0,31.0,-102.0,-66.0,127.0,126.0,127.0,114.0,88.0,-5.0
126.0,127.0,126.0,127.0,127.0,142.0,126.0,128.0,31.0,-102.0,-66.0,127.0,126.0,127.0,114.0,88.0,-5.0
126.0,127.0,126.0,127.0,126.0,142.0,127.0,128.0,31.0,-102.0,-66.0,127.0,126.0,127.0,114.0,88.0,-5.0
126.0,127.0,125.0,127.0,126.0,142.0,126.0,128.0,31.0,-102.0,-66.0,127.0,126.0,127.0,114.0,88.0,-5.0
126.0,127.0,127.0,127.0,127.0,142.0,127.0,128.0,31.0,-102.0,-66.0,127.0,126.0,127.0,114.0,88.0,-5.0
126.0,127.0,126.0,127.0,127.0,142.0,127.0,128.0,31.0,-102.0,-66.0,127.0,126.0,127.0,114.0,88.0,-5.0
126.0,127.0,126.0,127.0,127.0,142.0,127.0,128.0,31.0,-102.0,-66.0,127.0,126.0,127.0,114.0,88.0,-5.0
126.0,127.0,126.0,127.0,127.0,142.0,127.0,128.0,31.0,-102.0,-66.0,127.0,126.0,127.0,114.0,88.0,-5.0
