emg1,emg2,emg3,emg4,emg5,emg6,emg7,emg8,acc_x,acc_y,acc_z,gyro_x,gyro_y,gyro_z,angle_pitch,angle_roll,angle_yaw
127.0,127.0,127.0,127.0,126.0,130.0,125.0,125.0,-1.0,111.0,-80.0,127.0,127.0,127.0,-118.0,-84.0,101.0
127.0,127.0,127.0,127.0,126.0,130.0,126.0,125.0,-1.0,111.0,-80.0,127.0,127.0,127.0,-118.0,-84.0,101.0
127.0,127.0,127.0,127.0,127.0,130.0,125.0,125.0,-1.0,111.0,-80.0,127.0,127.0,127.0,-118.0,-84.0,101.0
127.0,127.0,127.0,127.0,126.0,130.0,125.0,125.0,-1.0,111.0,-80.0,127.0,127.0,127.0,-118.0,-84.0,101.0
127.0,127.0,127.0,127.0,126.0,130.0,125.0,125.0,-1.0,111.0,-80.0,127.0,127.0,127.0,-118.0,-84.0,101.0
127.0,127.0,127.0,127.0,126.0,130.0,125.0,125.0,-1.0,111.0,-80.0,127.0,127.0,127.0,-118.0,-84.0,101.0
127.0,127.0,127.0,127.0,126.0,130.0,125.0,125.0,-1.0,111.0,-80.0,127.0,127.0,127.0,-118.0,-84.0,101.0
127.0,127.0,127.0,127.0,126.0,130.0,125.0,125.0,-1.0,111.0,-80.0,127.0,127.0,127.0,-118.0,-84.0,101.0
127.0,127.0,127.0,127.0,126.0,130.0,125.0,125.0,-1.0,111.0,-80.0,127.0,127.0,127.0,-118.0,-84.0,101.0
127.0,127.0,127.0,127.0,126.0,130.0,125.0,125.0,-1.0,111.0,-80.0,127.0,127.0,127.0,-118.0,-84.0,101.0
127.0,127.0,127.0,127.0,126.0,130.0,126.0,125.0,-1.0,111.0,-80.0,127.0,127.0,127.0,-118.0,-84.0,101.0
127.0,127.0,127.0,127.0,127.0,130.0,125.0,125.0,-1.0,111.0,-80.0,127.0,127.0,127.0,-118.0,-84.0,101.0
127.0,127.0,127.0,127.0,127.0,130.0,125.0,125.0,-1.0,111.0,-80.0,127.0,127.0,127.0,-118.0,-84.0,101.0
127.0,127.0,127.0,127.0,127.0,131.0,125.0,125.0,-1.0,111.0,-80.0,127.0,127.0,127.0,-118.0,-84.0,101.0
127.0,127.0,127.0,127.0,127.0,131.0,125.0,125.0,-1.0,111.0,-80.0,127.0,127.0,127.0,-118.0,-84.0,101.0
127.0,127.0,127.0,127.0,127.0,131.0,125.0,125.0,-1.0,111.0,-80.0,127.0,127.0,127.0,-118.0,-84.0,101.0
127.0,127.0,127.0,127.0,127.0,130.0,125.0,125.0,-1.0,111.0,-80.0,127.0,127.0,127.0,-118.0,-84.0,101.0
127.0,127.0,127.0,127.0,127.0,131.0,125.0,125.0,-1.0,111.0,-80.0,127.0,127.0,127.0,-118.0,-84.0,101.0
127.0,127.0,127.0,127.0,127.0,130.0,126.0,125.0,-1.0,111.0,-80.0,127.0,127.0,127.0,-118.0,-84.0,101.0
127.0,127.0,127.0,127.0,127.0,130.0,126.0,125.0,-1.0,111.0,-80.0,127.0,127.0,127.0,-118.0,-84.0,101.0
127.0,127.0,127.0,127.0,127.0,130.0,126.0,125.0,-1.0,111.0,-80.0,127.0,127.0,127.0,-118.0,-84.0,101.0
127.0,127.0,127.0,127.0,127.0,130.0,125.0,125.0,-1.0,110.0,-81.0,127.0,127.0,127.0,-118.0,-84.0,101.0
127.0,127.0,127.0,127.0,126.0,131.0,125.0,125.0,-1.0,110.0,-81.0,127.0,127.0,127.0,-118.0,-84.0,101.0
127.0,127.0,127.0,127.0,126.0,131.0,125.0,125.0,-1.0,110.0,-81.0,127.0,127.0,127.0,-118.0,-84.0,101.0
127.0,127.0,127.0,127.0,126.0,131.0,125.0,125.0,-1.0,110.0,-81.0,127.0,127.0,127.0,-118.0,-84.0,101.0
127.0,127.0,127.0,127.0,126.0,130.0,125.0,125.0,-1.0,110.0,-81.0,127.0,127.0,127.0,-118.0,-84.0,101.0
127.0,127.0,127.0,127.0,126.0,130.0,125.0,125.0,-1.0,110.0,-81.0,127.0,127.0,127.0,-118.0,-84.0,101.0
127.0,127.0,127.0,127.0,126.0,130.0,125.0,125.0,-1.0,110.0,-81.0,127.0,127.0,127.0,-118.0,-84.0,101.0
127.0,127.0,127.0,127.0,126.0,130.0,126.0,125.0,-1.0,110.0,-81.0,127.0,127.0,127.0,-118.0,-84.0,101.0
127.0,127.0,127.0,127.0,126.0,130.0,126.0,125.0,-1.0,110.0,-81.0,127.0,127.0,127.0,-118.0,-84.0,101.0
127.0,127.0,127.0,127.0,127.0,130.0,125.0,125.0,-1.0,110.0,-81.0,127.0,127.0,127.0,-118.0,-84.0,101.0
127.0,127.0,127.0,127.0,126.0,131.0,125.0,125.0,-1.0,110.0,-81.0,127.0,127.0,127.0,-118.0,-84.0,101.0
127.0,127.0,127.0,127.0,126.0,131.0,125.0,125.0,-1.0,110.0,-81.0,127.0,127.0,127.0,-118.0,-84.0,101.0
127.0,127.0,127.0,127.0,126.0,131.0,125.0,125.0,-1.0,110.0,-81.0,127.0,127.0,127.0,-118.0,-84.0,101.0
127.0,127.0,127.0,127.0,126.0,131.0,125.0,125.0,-1.0,110.0,-81.0,127.0,127.0,127.0,-118.0,-84.0,101.0
127.0,127.0,127.0,127.0,126.0,131.0,125.0,125.0,-1.0,110.0,-81.0,127.0,127.0,127.0,-118.0,-84.0,101.0
127.0,127.0,127.0,127.0,126.0,131.0,125.0,125.0,-1.0,110.0,-81.0,127.0,127.0,127.0,-118.0,-84.0,101.0
127.0,127.0,127.0,127.0,126.0,130.0,126.0,125.0,-1.0,110.0,-81.0,127.0,127.0,127.0,-118.0,-84.0,101.0
127.0,127.0,127.0,127.0,126.0,130.0,126.0,125.0,-1.0,110.0,-81.0,127.0,127.0,127.0,-118.0,-84.0,101.0
127.0,127.0,127.0,127.0,126.0,130.0,125.0,125.0,-1.0,110.0,-81.0,127.0,127.0,127.0,-118.0,-84.0,101.0
127.0,127.0,127.0,127.0,126.0,130.0,125.0,125.0,-1.0,110.0,-81.0,127.0,127.0,127.0,-118.0,-84.0,101.0
127.0,128.0,127.0,127.0,126.0,131.0,126.0,125.0,-1.0,110.0,-81.0,127.0,127.0,127.0,-118.0,-84.0,101.0
127.0,128.0,127.0,127.0,126.0,131.0,126.0,125.0,-1.0,110.0,-81.0,127.0,127.0,127.0,-118.0,-84.0,101.0
127.0,128.0,127.0,127.0,126.0,131.0,126.0,125.0,-1.0,110.0,-81.0,127.0,127.0,127.0,-118.0,-84.0,101.0
127.0,128.0,127.0,127.0,126.0,130.0,126.0,125.0,-1.0,110.0,-81.0,127.0,127.0,127.0,-118.0,-84.0,101.0
127.0,128.0,127.0,127.0,126.0,130.0,126.0,125.0,-1.0,110.0,-81.0,127.0,127.0,127.0,-118.0,-84.0,101.0
127.0,128.0,127.0,127.0,127.0,130.0,126.0,125.0,-1.0,110.0,-81.0,127.0,127.0,127.0,-118.0,-84.0,101.0
127.0,128.0,127.0,127.0,127.0,130.0,126.0,125.0,-1.0,110.0,-81.0,127.0,127.0,127.0,-118.0,-84.0,101.0
127.0,127.0,127.0,127.0,127.0,130.0,126.0,125.0,-1.0,110.0,-81.0,127.0,127.0,127.0,-118.0,-84.0,101.0
127.0,127.0,127.0,127.0,127.0,130.0,126.0,125.0,-1.0,110.0,-81.0,127.0,127.0,127.0,-118.0,-84.0,101.0
127.0,127.0,127.0,127.0,126.0,131.0,126.0,125.0,-1.0,110.0,-81.0,127.0,127.0,127.0,-118.0,-84.0,101.0
127.0,128.0,127.0,128.0,127.0,130.0,125.0,125.0,-1.0,110.0,-81.0,127.0,127.0,127.0,-118.0,-84.0,101.0
127.0,128.0,127.0,128.0,127.0,130.0,125.0,125.0,-1.0,110.0,-81.0,127.0,127.0,127.0,-118.0,-84.0,101.0
127.0,128.0,127.0,128.0,127.0,130.0,126.0,125.0,-1.0,110.0,-81.0,127.0,127.0,127.0,-118.0,-84.0,101.0
127.0,128.0,127.0,128.0,126.0,130.0,126.0,125.0,-1.0,110.0,-81.0,127.0,127.0,127.0,-118.0,-84.0,101.0
127.0,128.0,127.0,128.0,127.0,130.0,126.0,125.0,-1.0,110.0,-81.0,127.0,127.0,127.0,-118.0,-84.0,101.0
127.0,128.0,127.0,128.0,127.0,130.0,126.0,125.0,-1.0,110.0,-81.0,127.0,127.0,127.0,-118.0,-84.0,101.0
127.0,128.0,127.0,128.0,127.0,130.0,126.0,125.0,-1.0,110.0,-81.0,127.0,127.0,127.0,-118.0,-84.0,101.0
127.0,128.0,127.0,128.0,127.0,130.0,126.0,125.0,-1.0,110.0,-81.0,127.0,127.0,127.0,-118.0,-84.0,101.0
127.0,128.0,127.0,128.0,127.0,130.0,125.0,125.0,-1.0,110.0,-81.0,127.0,127.0,127.0,-118.0,-84.0,101.0
127.0,128.0,127.0,128.0,127.0,131.0,125.0,125.0,-1.0,110.0,-81.0,127.0,127.0,127.0,-118.0,-84.0,101.0
127.0,128.0,127.0,128.0,127.0,130.0,126.0,125.0,-1.0,109.0,-81.0,127.0,127.0,127.0,-118.0,-84.0,101.0
127.0,128.0,127.0,128.0,126.0,131.0,126.0,125.0,-1.0,109.0,-81.0,127.0,127.0,127.0,-118.0,-84.0,101.0
127.0,128.0,127.0,128.0,126.0,131.0,126.0,125.0,-1.0,109.0,-81.0,127.0,127.0,127.0,-118.0,-84.0,101.0
127.0,128.0,127.0,128.0,126.0,130.0,126.0,125.0,-1.0,109.0,-81.0,127.0,127.0,127.0,-118.0,-84.0,101.0
127.0,128.0,127.0,127.0,127.0,130.0,126.0,125.0,-1.0,109.0,-81.0,127.0,127.0,127.0,-118.0,-84.0,101.0
127.0,128.0,128.0,128.0,127.0,130.0,126.0,125.0,-1.0,109.0,-81.0,127.0,127.0,127.0,-118.0,-84.0,101.0
127.0,128.0,128.0,128.0,127.0,130.0,126.0,125.0,-1.0,109.0,-81.0,127.0,127.0,127.0,-118.0,-84.0,101.0
127.0,128.0,128.0,128.0,127.0,130.0,126.0,125.0,-1.0,109.0,-81.0,127.0,127.0,127.0,-118.0,-84.0,101.0
127.0,128.0,128.0,128.0,127.0,130.0,126.0,125.0,-1.0,109.0,-81.0,127.0,127.0,127.0,-118.0,-84.0,101.0
127.0,128.0,128.0,128.0,127.0,130.0,126.0,125.0,-1.0,109.0,-81.0,127.0,127.0,127.0,-118.0,-84.0,101.0
127.0,128.0,128.0,127.0,126.0,130.0,126.0,125.0,-1.0,109.0,-80.0,127.0,127.0,127.0,-118.0,-84.0,101.0
127.0,128.0,128.0,127.0,126.0,130.0,126.0,125.0,-1.0,109.0,-80.0,127.0,127.0,127.0,-118.0,-84.0,101.0
127.0,128.0,128.0,127.0,126.0,130.0,126.0,125.0,-1.0,109.0,-80.0,127.0,127.0,127.0,-118.0,-84.0,101.0
127.0,128.0,128.0,127.0,126.0,130.0,127.0,125.0,-1.0,109.0,-80.0,127.0,127.0,127.0,-118.0,-84.0,101.0
127.0,128.0,128.0,127.0,126.0,131.0,125.0,125.0,-1.0,109.0,-80.0,127.0,127.0,127.0,-118.0,-84.0,101.0
127.0,128.0,128.0,127.0,126.0,131.0,126.0,125.0,-1.0,109.0,-80.0,127.0,127.0,127.0,-118.0,-84.0,101.0
127.0,128.0,128.0,127.0,126.0,131.0,126.0,125.0,-1.0,109.0,-80.0,127.0,127.0,127.0,-118.0,-84.0,101.0
127.0,128.0,128.0,127.0,126.0,131.0,126.0,125.0,-1.0,109.0,-80.0,127.0,127.0,127.0,-118.0,-84.0,101.0
127.0,128.0,128.0,127.0,126.0,131.0,126.0,125.0,-1.0,109.0,-80.0,127.0,127.0,127.0,-118.0,-84.0,101.0
127.0,128.0,128.0,127.0,126.0,131.0,126.0,125.0,-1.0,109.0,-80.0,127.0,127.0,127.0,-118.0,-84.0,101.0
127.0,128.0,127.0,127.0,126.0,131.0,125.0,125.0,-1.0,109.0,-80.0,127.0,127.0,127.0,-118.0,-84.0,101.0
127.0,128.0,127.0,127.0,126.0,131.0,125.0,125.0,-1.0,109.0,-80.0,127.0,127.0,127.0,-118.0,-84.0,101.0
127.0,128.0,127.0,127.0,126.0,131.0,126.0,125.0,-1.0,109.0,-80.0,127.0,127.0,127.0,-118.0,-84.0,101.0
127.0,128.0,127.0,127.0,126.0,131.0,125.0,125.0,-1.0,109.0,-80.0,127.0,127.0,127.0,-118.0,-84.0,101.0
127.0,128.0,127.0,127.0,126.0,131.0,125.0,125.0,-1.0,109.0,-80.0,127.0,127.0,127.0,-118.0,-84.0,101.0
127.0,128.0,127.0,127.0,126.0,131.0,125.0,125.0,-1.0,109.0,-80.0,127.0,127.0,127.0,-118.0,-84.0,101.0
127.0,128.0,127.0,127.0,126.0,132.0,125.0,125.0,-1.0,109.0,-80.0,127.0,127.0,127.0,-118.0,-84.0,101.0
127.0,128.0,127.0,127.0,126.0,131.0,125.0,125.0,-1.0,109.0,-80.0,127.0,127.0,127.0,-118.0,-84.0,101.0
127.0,128.0,127.0,127.0,126.0,131.0,125.0,125.0,-1.0,109.0,-80.0,127.0,127.0,127.0,-118.0,-84.0,101.0
127.0,128.0,127.0,127.0,126.0,131.0,125.0,125.0,-1.0,109.0,-80.0,127.0,127.0,127.0,-118.0,-84.0,101.0
127.0,128.0,127.0,127.0,126.0,130.0,126.0,124.0,-1.0,109.0,-80.0,127.0,127.0,127.0,-118.0,-84.0,101.0
127.0,128.0,127.0,127.0,126.0,130.0,126.0,124.0,-1.0,109.0,-80.0,127.0,127.0,127.0,-118.0,-84.0,101.0
127.0,127.0,127.0,127.0,127.0,130.0,126.0,125.0,-1.0,109.0,-80.0,127.0,127.0,127.0,-118.0,-84.0,101.0
127.0,127.0,127.0,127.0,127.0,130.0,126.0,125.0,-1.0,109.0,-80.0,127.0,127.0,127.0,-118.0,-84.0,101.0
127.0,127.0,127.0,127.0,127.0,130.0,126.0,124.0,-1.0,109.0,-80.0,127.0,127.0,127.0,-118.0,-84.0,101.0
127.0,127.0,127.0,127.0,126.0,130.0,125.0,125.0,-1.0,109.0,-80.0,127.0,127.0,127.0,-118.0,-84.0,101.0
127.0,128.0,127.0,127.0,126.0,130.0,125.0,125.0,-1.0,109.0,-80.0,127.0,127.0,127.0,-118.0,-84.0,101.0
127.0,128.0,127.0,127.0,126.0,130.0,126.0,125.0,-1.0,109.0,-80.0,127.0,127.0,127.0,-118.0,-84.0,101.0
127.0,128.0,127.0,127.0,126.0,130.0,126.0,124.0,-1.0,109.0,-80.0,127.0,127.0,127.0,-118.0,-84.0,101.0
127.0,127.0,127.0,127.0,126.0,130.0,126.0,124.0,-1.0,109.0,-80.0,127.0,127.0,127.0,-118.0,-84.0,101.0
127.0,128.0,127.0,127.0,126.0,130.0,126.0,125.0,-1.0,109.0,-80.0,127.0,127.0,127.0,-118.0,-84.0,101.0
127.0,127.0,127.0,127.0,127.0,130.0,125.0,124.0,-1.0,109.0,-80.0,127.0,127.0,127.0,-118.0,-84.0,101.0
127.0,128.0,127.0,127.0,127.0,130.0,125.0,124.0,-1.0,109.0,-80.0,127.0,127.0,127.0,-118.0,-84.0,101.0
127.0,128.0,127.0,127.0,126.0,130.0,125.0,125.0,-1.0,109.0,-80.0,127.0,127.0,127.0,-118.0,-84.0,101.0
127.0,128.0,127.0,127.0,126.0,130.0,125.0,125.0,-1.0,109.0,-80.0,127.0,127.0,127.0,-118.0,-84.0,101.0
127.0,128.0,126.0,127.0,126.0,130.0,125.0,125.0,-1.0,109.0,-80.0,127.0,127.0,127.0,-118.0,-84.0,101.0
127.0,128.0,127.0,127.0,126.0,130.0,125.0,125.0,-1.0,109.0,-80.0,127.0,127.0,127.0,-118.0,-84.0,101.0
127.0,128.0,127.0,127.0,126.0,130.0,125.0,125.0,-1.0,109.0,-80.0,127.0,127.0,127.0,-118.0,-84.0,101.0
127.0,128.0,127.0,127.0,126.0,130.0,125.0,125.0,-1.0,109.0,-80.0,127.0,127.0,127.0,-118.0,-84.0,101.0
127.0,128.0,126.0,127.0,126.0,130.0,125.0,125.0,-1.0,109.0,-80.0,127.0,127.0,127.0,-118.0,-84.0,101.0
127.0,128.0,127.0,127.0,127.0,130.0,126.0,125.0,-1.0,109.0,-80.0,127.0,127.0,127.0,-118.0,-84.0,101.0
127.0,128.0,126.0,127.0,127.0,130.0,126.0,125.0,-1.0,109.0,-80.0,127.0,127.0,127.0,-118.0,-84.0,101.0
127.0,128.0,126.0,127.0,127.0,130.0,126.0,125.0,-1.0,109.0,-80.0,127.0,127.0,127.0,-118.0,-84.0,101.0
127.0,128.0,126.0,127.0,126.0,130.0,125.0,125.0,-1.0,109.0,-80.0,127.0,127.0,127.0,-118.0,-84.0,101.0
127.0,128.0,126.0,127.0,126.0,130.0,125.0,125.0,-1.0,109.0,-80.0,127.0,127.0,127.0,-118.0,-84.0,101.0
127.0,128.0,126.0,127.0,126.0,130.0,125.0,125.0,-1.0,109.0,-80.0,127.0,127.0,127.0,-118.0,-84.0,101.0
127.0,128.0,126.0,127.0,126.0,130.0,125.0,125.0,-1.0,109.0,-80.0,127.0,127.0,127.0,-118.0,-84.0,101.0
127.0,128.0,126.0,127.0,126.0,130.0,125.0,125.0,-1.0,109.0,-80.0,127.0,127.0,127.0,-118.0,-84.0,101.0
127.0,128.0,126.0,127.0,126.0,130.0,125.0,125.0,-1.0,109.0,-80.0,127.0,127.0,127.0,-118.0,-84.0,101.0
127.0,128.0,126.0,127.0,126.0,130.0,126.0,125.0,-1.0,109.0,-80.0,127.0,127.0,127.0,-118.0,-84.0,101.0
127.0,128.0,126.0,127.0,127.0,129.0,126.0,125.0,-1.0,109.0,-80.0,127.0,127.0,127.0,-118.0,-84.0,101.0
127.0,128.0,126.0,127.0,127.0,129.0,126.0,125.0,-1.0,109.0,-80.0,127.0,127.0,127.0,-118.0,-84.0,101.0
127.0,128.0,126.0,127.0,126.0,129.0,126.0,125.0,-1.0,109.0,-80.0,127.0,127.0,127.0,-118.0,-84.0,101.0
127.0,128.0,126.0,127.0,126.0,129.0,125.0,125.0,-1.0,109.0,-80.0,127.0,127.0,127.0,-118.0,-84.0,101.0
127.0,128.0,126.0,127.0,126.0,129.0,125.0,125.0,-1.0,109.0,-80.0,127.0,127.0,127.0,-118.0,-84.0,101.0
127.0,128.0,126.0,127.0,126.0,129.0,126.0,125.0,-1.0,109.0,-80.0,127.0,127.0,127.0,-118.0,-84.0,101.0
127.0,128.0,126.0,127.0,126.0,129.0,126.0,125.0,-1.0,109.0,-80.0,127.0,127.0,127.0,-118.0,-84.0,101.0
127.0,128.0,126.0,127.0,126.0,129.0,126.0,125.0,-1.0,109.0,-80.0,127.0,127.0,127.0,-118.0,-84.0,101.0
127.0,128.0,126.0,127.0,126.0,129.0,126.0,125.0,-1.0,109.0,-80.0,127.0,127.0,127.0,-118.0,-84.0,101.0
127.0,128.0,126.0,127.0,127.0,129.0,126.0,125.0,-1.0,109.0,-80.0,127.0,127.0,127.0,-118.0,-84.0,101.0
127.0,127.0,126.0,127.0,127.0,129.0,126.0,125.0,-1.0,108.0,-80.0,127.0,127.0,127.0,-118.0,-84.0,101.0
127.0,127.0,125.0,127.0,127.0,129.0,126.0,125.0,-1.0,108.0,-80.0,127.0,127.0,127.0,-118.0,-84.0,101.0
127.0,128.0,125.0,127.0,126.0,130.0,126.0,125.0,-1.0,108.0,-80.0,127.0,127.0,127.0,-118.0,-84.0,101.0
127.0,128.0,125.0,128.0,126.0,130.0,126.0,125.0,-1.0,108.0,-80.0,127.0,127.0,127.0,-118.0,-84.0,101.0
127.0,128.0,125.0,128.0,126.0,130.0,126.0,125.0,-1.0,108.0,-80.0,127.0,127.0,127.0,-118.0,-84.0,101.0
127.0,128.0,125.0,128.0,126.0,130.0,126.0,125.0,-1.0,108.0,-80.0,127.0,127.0,127.0,-118.0,-84.0,101.0
127.0,128.0,125.0,127.0,126.0,129.0,126.0,125.0,-1.0,108.0,-80.0,127.0,127.0,127.0,-118.0,-84.0,101.0
127.0,128.0,125.0,127.0,126.0,129.0,126.0,125.0,-1.0,108.0,-80.0,127.0,127.0,127.0,-118.0,-84.0,101.0
127.0,127.0,126.0,127.0,127.0,129.0,126.0,125.0,-1.0,108.0,-80.0,127.0,127.0,127.0,-118.0,-84.0,101.0
127.0,127.0,126.0,127.0,127.0,129.0,126.0,125.0,-1.0,108.0,-80.0,127.0,127.0,127.0,-118.0,-84.0,101.0
127.0,127.0,126.0,127.0,127.0,129.0,126.0,124.0,-1.0,108.0,-80.0,127.0,-128.0,127.0,-118.0,-84.0,101.0
127.0,127.0,126.0,127.0,127.0,129.0,126.0,124.0,-1.0,108.0,-80.0,127.0,-128.0,127.0,-118.0,-84.0,101.0
127.0,127.0,126.0,127.0,127.0,129.0,126.0,124.0,-1.0,108.0,-80.0,127.0,-128.0,127.0,-118.0,-84.0,101.0
127.0,127.0,126.0,127.0,127.0,129.0,126.0,124.0,-1.0,108.0,-80.0,127.0,-128.0,127.0,-118.0,-84.0,101.0
127.0,127.0,126.0,127.0,126.0,130.0,126.0,125.0,-1.0,108.0,-80.0,127.0,-128.0,127.0,-118.0,-84.0,101.0
127.0,128.0,126.0,127.0,126.0,130.0,126.0,125.0,-1.0,108.0,-80.0,127.0,-128.0,127.0,-118.0,-84.0,101.0
127.0,128.0,126.0,127.0,126.0,130.0,126.0,125.0,-1.0,108.0,-80.0,127.0,-128.0,127.0,-118.0,-84.0,101.0
127.0,127.0,126.0,127.0,127.0,129.0,126.0,124.0,-1.0,108.0,-80.0,127.0,-128.0,127.0,-118.0,-84.0,101.0
127.0,127.0,126.0,127.0,127.0,129.0,126.0,124.0,-1.0,108.0,-80.0,127.0,-128.0,127.0,-118.0,-84.0,101.0
127.0,127.0,126.0,127.0,127.0,129.0,126.0,124.0,-1.0,108.0,-80.0,127.0,-128.0,127.0,-118.0,-84.0,101.0
127.0,127.0,126.0,127.0,127.0,130.0,125.0,125.0,-1.0,108.0,-80.0,127.0,-128.0,127.0,-118.0,-84.0,101.0
127.0,127.0,126.0,127.0,127.0,130.0,126.0,125.0,-1.0,108.0,-80.0,127.0,-128.0,127.0,-118.0,-84.0,101.0
127.0,127.0,126.0,127.0,127.0,130.0,126.0,125.0,-1.0,108.0,-80.0,127.0,-128.0,127.0,-118.0,-84.0,101.0
127.0,127.0,126.0,127.0,127.0,130.0,126.0,125.0,-1.0,108.0,-80.0,127.0,-128.0,127.0,-118.0,-84.0,101.0
127.0,127.0,126.0,127.0,127.0,130.0,126.0,125.0,-1.0,108.0,-80.0,127.0,-128.0,127.0,-118.0,-84.0,101.0
127.0,127.0,126.0,127.0,127.0,130.0,126.0,125.0,-1.0,108.0,-80.0,127.0,-128.0,127.0,-118.0,-84.0,101.0
127.0,127.0,126.0,127.0,127.0,130.0,126.0,125.0,-1.0,108.0,-80.0,127.0,-128.0,127.0,-118.0,-84.0,101.0
127.0,127.0,126.0,127.0,127.0,130.0,125.0,125.0,-1.0,108.0,-80.0,127.0,-128.0,127.0,-118.0,-84.0,101.0
127.0,127.0,126.0,127.0,127.0,131.0,125.0,125.0,-1.0,108.0,-80.0,127.0,-128.0,127.0,-118.0,-84.0,101.0
127.0,127.0,126.0,127.0,127.0,130.0,125.0,125.0,-1.0,108.0,-80.0,127.0,-128.0,127.0,-118.0,-84.0,101.0
127.0,127.0,126.0,128.0,126.0,130.0,125.0,125.0,-1.0,108.0,-81.0,127.0,-128.0,127.0,-118.0,-84.0,101.0
127.0,127.0,126.0,127.0,126.0,130.0,126.0,125.0,-1.0,108.0,-81.0,127.0,-128.0,127.0,-118.0,-84.0,101.0
127.0,127.0,126.0,127.0,126.0,130.0,126.0,125.0,-1.0,108.0,-81.0,127.0,-128.0,127.0,-118.0,-84.0,101.0
127.0,127.0,126.0,127.0,126.0,130.0,126.0,125.0,-1.0,108.0,-81.0,127.0,-128.0,127.0,-118.0,-84.0,101.0
127.0,127.0,126.0,127.0,126.0,130.0,126.0,125.0,-1.0,108.0,-81.0,127.0,-128.0,127.0,-118.0,-84.0,101.0
127.0,127.0,126.0,127.0,127.0,130.0,126.0,125.0,-1.0,108.0,-81.0,127.0,-128.0,127.0,-118.0,-84.0,101.0
127.0,127.0,126.0,128.0,126.0,131.0,125.0,125.0,-1.0,108.0,-81.0,127.0,-128.0,127.0,-118.0,-84.0,101.0
127.0,127.0,126.0,128.0,126.0,131.0,125.0,125.0,-1.0,108.0,-81.0,127.0,-128.0,127.0,-118.0,-84.0,101.0
127.0,127.0,126.0,128.0,126.0,131.0,125.0,125.0,-1.0,108.0,-81.0,127.0,-128.0,127.0,-118.0,-84.0,101.0
127.0,127.0,126.0,127.0,126.0,130.0,125.0,125.0,-1.0,108.0,-81.0,127.0,-128.0,127.0,-118.0,-84.0,101.0
127.0,128.0,127.0,128.0,126.0,131.0,125.0,126.0,-1.0,108.0,-81.0,-128.0,-128.0,127.0,-118.0,-84.0,101.0
127.0,128.0,127.0,128.0,126.0,131.0,125.0,126.0,-1.0,108.0,-81.0,-128.0,-128.0,127.0,-118.0,-84.0,101.0
127.0,128.0,127.0,127.0,126.0,130.0,125.0,126.0,-1.0,108.0,-81.0,-128.0,-128.0,127.0,-118.0,-84.0,101.0
127.0,128.0,127.0,127.0,126.0,130.0,126.0,126.0,-1.0,108.0,-81.0,-128.0,-128.0,127.0,-118.0,-84.0,101.0
127.0,127.0,127.0,127.0,126.0,130.0,126.0,125.0,-1.0,108.0,-81.0,-128.0,-128.0,127.0,-118.0,-84.0,101.0
127.0,127.0,127.0,127.0,126.0,130.0,126.0,126.0,-1.0,108.0,-81.0,-128.0,-128.0,127.0,-118.0,-84.0,101.0
127.0,128.0,127.0,127.0,126.0,131.0,125.0,126.0,-1.0,108.0,-81.0,-128.0,-128.0,127.0,-118.0,-84.0,101.0
127.0,128.0,127.0,127.0,126.0,131.0,125.0,126.0,-1.0,108.0,-81.0,-128.0,-128.0,127.0,-118.0,-84.0,101.0
127.0,128.0,127.0,127.0,126.0,131.0,125.0,126.0,-1.0,108.0,-81.0,-128.0,-128.0,127.0,-118.0,-84.0,101.0
127.0,128.0,127.0,128.0,126.0,131.0,125.0,126.0,-1.0,108.0,-81.0,-128.0,-128.0,127.0,-118.0,-84.0,101.0
127.0,127.0,127.0,128.0,126.0,130.0,125.0,126.0,-1.0,108.0,-81.0,-128.0,-128.0,127.0,-118.0,-84.0,101.0
127.0,128.0,127.0,128.0,126.0,131.0,125.0,126.0,-1.0,108.0,-81.0,-128.0,-128.0,127.0,-118.0,-84.0,101.0
127.0,128.0,127.0,128.0,126.0,130.0,125.0,126.0,-1.0,108.0,-81.0,-128.0,-128.0,127.0,-118.0,-84.0,101.0
127.0,127.0,127.0,128.0,126.0,130.0,126.0,126.0,-1.0,108.0,-81.0,-128.0,-128.0,127.0,-118.0,-84.0,101.0
127.0,127.0,127.0,128.0,126.0,129.0,126.0,126.0,-1.0,108.0,-81.0,-128.0,-128.0,127.0,-118.0,-84.0,101.0
127.0,127.0,127.0,128.0,126.0,129.0,126.0,126.0,-1.0,108.0,-81.0,-128.0,-128.0,127.0,-118.0,-84.0,101.0
127.0,127.0,127.0,128.0,126.0,129.0,126.0,126.0,-1.0,108.0,-81.0,-128.0,-128.0,127.0,-118.0,-84.0,101.0
127.0,127.0,127.0,128.0,126.0,130.0,126.0,126.0,-1.0,108.0,-81.0,-128.0,-128.0,127.0,-118.0,-84.0,101.0
127.0,127.0,127.0,128.0,126.0,130.0,125.0,126.0,-1.0,108.0,-81.0,-128.0,-128.0,127.0,-118.0,-84.0,101.0
127.0,128.0,127.0,128.0,126.0,130.0,125.0,126.0,-1.0,108.0,-81.0,-128.0,-128.0,127.0,-118.0,-84.0,101.0
127.0,128.0,127.0,128.0,126.0,130.0,126.0,125.0,-1.0,108.0,-80.0,-128.0,-128.0,127.0,-118.0,-84.0,101.0
127.0,127.0,127.0,128.0,126.0,130.0,126.0,125.0,-1.0,108.0,-80.0,-128.0,-128.0,127.0,-118.0,-84.0,101.0
126.0,127.0,127.0,128.0,127.0,129.0,126.0,125.0,-1.0,108.0,-80.0,-128.0,-128.0,127.0,-118.0,-84.0,101.0
126.0,127.0,127.0,128.0,126.0,129.0,126.0,125.0,-1.0,108.0,-80.0,-128.0,-128.0,127.0,-118.0,-84.0,101.0
126.0,127.0,127.0,128.0,126.0,130.0,126.0,125.0,-1.0,108.0,-80.0,-128.0,-128.0,127.0,-118.0,-84.0,101.0
126.0,127.0,127.0,128.0,126.0,130.0,126.0,125.0,-1.0,108.0,-80.0,-128.0,-128.0,127.0,-118.0,-84.0,101.0
126.0,127.0,127.0,128.0,126.0,130.0,126.0,125.0,-1.0,108.0,-80.0,-128.0,-128.0,127.0,-118.0,-84.0,101.0
126.0,127.0,127.0,128.0,126.0,129.0,126.0,125.0,-1.0,108.0,-80.0,-128.0,-128.0,127.0,-118.0,-84.0,101.0
126.0,127.0,127.0,128.0,126.0,130.0,126.0,125.0,-1.0,108.0,-80.0,-128.0,-128.0,127.0,-118.0,-84.0,101.0
126.0,127.0,127.0,128.0,126.0,129.0,126.0,125.0,-1.0,108.0,-80.0,-128.0,-128.0,127.0,-118.0,-84.0,101.0
127.0,128.0,127.0,129.0,126.0,131.0,126.0,125.0,-1.0,109.0,-80.0,-128.0,-128.0,127.0,-118.0,-84.0,101.0
127.0,127.0,128.0,128.0,127.0,130.0,126.0,125.0,-1.0,109.0,-80.0,-128.0,-128.0,127.0,-118.0,-84.0,101.0
127.0,127.0,127.0,128.0,127.0,130.0,126.0,125.0,-1.0,109.0,-80.0,-128.0,-128.0,127.0,-118.0,-84.0,101.0
127.0,128.0,127.0,128.0,126.0,131.0,126.0,125.0,-1.0,109.0,-80.0,-128.0,-128.0,127.0,-118.0,-84.0,101.0
127.0,128.0,127.0,129.0,126.0,131.0,126.0,125.0,-1.0,109.0,-80.0,-128.0,-128.0,127.0,-118.0,-84.0,101.0
127.0,128.0,127.0,129.0,126.0,131.0,126.0,125.0,-1.0,109.0,-80.0,-128.0,-128.0,127.0,-118.0,-84.0,101.0
127.0,128.0,127.0,129.0,127.0,131.0,126.0,125.0,-1.0,109.0,-80.0,-128.0,-128.0,127.0,-118.0,-84.0,101.0
127.0,127.0,127.0,128.0,126.0,131.0,126.0,125.0,-1.0,109.0,-80.0,-128.0,-128.0,127.0,-118.0,-84.0,101.0
127.0,128.0,127.0,128.0,126.0,131.0,126.0,125.0,-1.0,109.0,-80.0,-128.0,-128.0,127.0,-118.0,-84.0,101.0
127.0,128.0,127.0,129.0,126.0,131.0,126.0,125.0,-1.0,109.0,-80.0,-128.0,-128.0,127.0,-118.0,-84.0,101.0
127.0,127.0,127.0,129.0,127.0,129.0,126.0,125.0,-1.0,109.0,-79.0,-128.0,-128.0,127.0,-118.0,-84.0,101.0
127.0,127.0,127.0,129.0,127.0,129.0,126.0,125.0,-1.0,109.0,-79.0,-128.0,-128.0,127.0,-118.0,-84.0,101.0
127.0,127.0,127.0,129.0,127.0,130.0,125.0,125.0,-1.0,109.0,-79.0,-128.0,-128.0,127.0,-118.0,-84.0,101.0
127.0,127.0,127.0,129.0,127.0,130.0,125.0,125.0,-1.0,109.0,-79.0,-128.0,-128.0,127.0,-118.0,-84.0,101.0
127.0,127.0,127.0,129.0,127.0,130.0,125.0,125.0,-1.0,109.0,-79.0,-128.0,-128.0,127.0,-118.0,-84.0,101.0
127.0,127.0,127.0,129.0,127.0,130.0,125.0,125.0,-1.0,109.0,-79.0,-128.0,-128.0,127.0,-118.0,-84.0,101.0
127.0,127.0,127.0,129.0,127.0,130.0,126.0,125.0,-1.0,109.0,-79.0,-128.0,-128.0,127.0,-118.0,-84.0,101.0
127.0,127.0,127.0,129.0,127.0,130.0,126.0,125.0,-1.0,109.0,-79.0,-128.0,-128.0,127.0,-118.0,-84.0,101.0
127.0,127.0,127.0,129.0,126.0,130.0,125.0,125.0,-1.0,109.0,-79.0,-128.0,-128.0,127.0,-118.0,-84.0,101.0
127.0,127.0,127.0,129.0,126.0,130.0,125.0,125.0,-1.0,109.0,-79.0,-128.0,-128.0,127.0,-118.0,-84.0,101.0
127.0,127.0,127.0,129.0,127.0,130.0,128.0,125.0,-1.0,108.0,-77.0,-128.0,-128.0,127.0,-118.0,-84.0,101.0
127.0,127.0,127.0,129.0,127.0,130.0,128.0,125.0,-1.0,108.0,-77.0,-128.0,-128.0,127.0,-118.0,-84.0,101.0
127.0,127.0,127.0,129.0,127.0,130.0,128.0,125.0,-1.0,108.0,-77.0,-128.0,-128.0,127.0,-118.0,-84.0,101.0
127.0,127.0,127.0,129.0,127.0,130.0,128.0,125.0,-1.0,108.0,-77.0,-128.0,-128.0,127.0,-118.0,-84.0,101.0
127.0,127.0,127.0,129.0,127.0,130.0,128.0,125.0,-1.0,108.0,-77.0,-128.0,-128.0,127.0,-118.0,-84.0,101.0
127.0,127.0,127.0,129.0,127.0,129.0,128.0,125.0,-1.0,108.0,-77.0,-128.0,-128.0,127.0,-118.0,-84.0,101.0
127.0,127.0,127.0,129.0,127.0,129.0,128.0,125.0,-1.0,108.0,-77.0,-128.0,-128.0,127.0,-118.0,-84.0,101.0
127.0,127.0,127.0,129.0,127.0,129.0,128.0,125.0,-1.0,108.0,-77.0,-128.0,-128.0,127.0,-118.0,-84.0,101.0
127.0,127.0,127.0,129.0,127.0,129.0,128.0,125.0,-1.0,108.0,-77.0,-128.0,-128.0,127.0,-118.0,-84.0,101.0
127.0,127.0,127.0,129.0,127.0,130.0,127.0,125.0,-1.0,108.0,-77.0,-128.0,-128.0,127.0,-118.0,-84.0,101.0
127.0,127.0,127.0,130.0,126.0,128.0,126.0,125.0,-1.0,108.0,-76.0,127.0,-128.0,127.0,-118.0,-84.0,101.0
127.0,127.0,127.0,130.0,125.0,128.0,126.0,125.0,-1.0,108.0,-76.0,127.0,-128.0,127.0,-118.0,-84.0,101.0
127.0,127.0,127.0,130.0,125.0,128.0,126.0,125.0,-1.0,108.0,-76.0,127.0,-128.0,127.0,-118.0,-84.0,101.0
127.0,127.0,127.0,130.0,125.0,128.0,126.0,125.0,-1.0,108.0,-76.0,127.0,-128.0,127.0,-118.0,-84.0,101.0
127.0,127.0,127.0,130.0,125.0,128.0,126.0,125.0,-1.0,108.0,-76.0,127.0,-128.0,127.0,-118.0,-84.0,101.0
127.0,127.0,127.0,130.0,125.0,128.0,126.0,125.0,-1.0,108.0,-76.0,127.0,-128.0,127.0,-118.0,-84.0,101.0
127.0,127.0,126.0,130.0,125.0,128.0,125.0,125.0,-1.0,108.0,-76.0,127.0,-128.0,127.0,-118.0,-84.0,101.0
127.0,127.0,126.0,130.0,125.0,128.0,125.0,125.0,-1.0,108.0,-76.0,127.0,-128.0,127.0,-118.0,-84.0,101.0
127.0,127.0,127.0,130.0,125.0,129.0,125.0,125.0,-1.0,108.0,-76.0,127.0,-128.0,127.0,-118.0,-84.0,101.0
127.0,127.0,127.0,130.0,125.0,128.0,126.0,125.0,-1.0,108.0,-76.0,127.0,-128.0,127.0,-118.0,-84.0,101.0
127.0,127.0,127.0,132.0,127.0,130.0,130.0,125.0,-1.0,108.0,-74.0,127.0,-128.0,127.0,-118.0,-84.0,101.0
127.0,127.0,127.0,131.0,127.0,130.0,130.0,125.0,-1.0,108.0,-74.0,127.0,-128.0,127.0,-118.0,-84.0,101.0
127.0,127.0,127.0,131.0,127.0,129.0,130.0,125.0,-1.0,108.0,-74.0,127.0,-128.0,127.0,-118.0,-84.0,101.0
127.0,127.0,127.0,131.0,127.0,129.0,130.0,125.0,-1.0,108.0,-74.0,127.0,-128.0,127.0,-118.0,-84.0,101.0
127.0,127.0,127.0,131.0,127.0,129.0,129.0,125.0,-1.0,108.0,-74.0,127.0,-128.0,127.0,-118.0,-84.0,101.0
127.0,127.0,127.0,131.0,127.0,129.0,129.0,125.0,-1.0,108.0,-74.0,127.0,-128.0,127.0,-118.0,-84.0,101.0
127.0,127.0,126.0,131.0,127.0,129.0,129.0,125.0,-1.0,108.0,-74.0,127.0,-128.0,127.0,-118.0,-84.0,101.0
127.0,127.0,127.0,132.0,128.0,128.0,130.0,125.0,-1.0,108.0,-74.0,127.0,-128.0,127.0,-118.0,-84.0,101.0
127.0,127.0,127.0,132.0,128.0,129.0,130.0,125.0,-1.0,108.0,-74.0,127.0,-128.0,127.0,-118.0,-84.0,101.0
127.0,127.0,127.0,131.0,127.0,129.0,130.0,125.0,-1.0,108.0,-74.0,127.0,-128.0,127.0,-118.0,-84.0,101.0
127.0,125.0,114.0,126.0,123.0,128.0,131.0,125.0,-1.0,108.0,-72.0,127.0,-128.0,127.0,-118.0,-84.0,101.0
127.0,125.0,114.0,126.0,124.0,127.0,131.0,124.0,-1.0,108.0,-72.0,127.0,-128.0,127.0,-118.0,-84.0,101.0
127.0,125.0,115.0,126.0,124.0,127.0,132.0,124.0,-1.0,108.0,-72.0,127.0,-128.0,127.0,-118.0,-84.0,101.0
127.0,125.0,116.0,126.0,124.0,127.0,132.0,124.0,-1.0,108.0,-72.0,127.0,-128.0,127.0,-118.0,-84.0,101.0
127.0,125.0,117.0,127.0,124.0,127.0,132.0,124.0,-1.0,108.0,-72.0,127.0,-128.0,127.0,-118.0,-84.0,101.0
127.0,125.0,118.0,127.0,124.0,126.0,133.0,124.0,-1.0,108.0,-72.0,127.0,-128.0,127.0,-118.0,-84.0,101.0
128.0,126.0,117.0,126.0,123.0,128.0,130.0,125.0,-1.0,108.0,-72.0,127.0,-128.0,127.0,-118.0,-84.0,101.0
128.0,126.0,116.0,126.0,123.0,128.0,130.0,125.0,-1.0,108.0,-72.0,127.0,-128.0,127.0,-118.0,-84.0,101.0
128.0,126.0,116.0,126.0,123.0,128.0,130.0,125.0,-1.0,108.0,-72.0,127.0,-128.0,127.0,-118.0,-84.0,101.0
127.0,126.0,115.0,126.0,123.0,127.0,131.0,125.0,-1.0,108.0,-72.0,127.0,-128.0,127.0,-118.0,-84.0,101.0
128.0,124.0,148.0,190.0,120.0,129.0,132.0,121.0,-1.0,109.0,-70.0,127.0,-128.0,127.0,-118.0,-85.0,101.0
128.0,124.0,148.0,192.0,119.0,129.0,133.0,121.0,-1.0,109.0,-70.0,127.0,-128.0,127.0,-118.0,-85.0,101.0
128.0,124.0,149.0,194.0,119.0,129.0,133.0,120.0,-1.0,109.0,-70.0,127.0,-128.0,127.0,-118.0,-85.0,101.0
128.0,124.0,149.0,196.0,119.0,128.0,134.0,121.0,-1.0,109.0,-70.0,127.0,-128.0,127.0,-118.0,-85.0,101.0
128.0,124.0,150.0,197.0,118.0,128.0,134.0,121.0,-1.0,109.0,-70.0,127.0,-128.0,127.0,-118.0,-85.0,101.0
128.0,125.0,146.0,182.0,121.0,131.0,132.0,121.0,-1.0,109.0,-70.0,127.0,-128.0,127.0,-118.0,-85.0,101.0
128.0,125.0,146.0,184.0,120.0,131.0,132.0,121.0,-1.0,109.0,-70.0,127.0,-128.0,127.0,-118.0,-85.0,101.0
128.0,125.0,147.0,185.0,120.0,130.0,132.0,121.0,-1.0,109.0,-70.0,127.0,-128.0,127.0,-118.0,-85.0,101.0
128.0,125.0,147.0,187.0,120.0,130.0,132.0,121.0,-1.0,109.0,-70.0,127.0,-128.0,127.0,-118.0,-85.0,101.0
128.0,125.0,147.0,188.0,120.0,130.0,132.0,121.0,-1.0,109.0,-70.0,127.0,-128.0,127.0,-118.0,-85.0,101.0
130.0,105.0,137.0,93.0,47.0,54.0,135.0,116.0,-1.0,109.0,-68.0,126.0,-128.0,127.0,-118.0,-86.0,101.0
130.0,105.0,136.0,86.0,45.0,51.0,134.0,115.0,-1.0,109.0,-68.0,126.0,-128.0,127.0,-118.0,-86.0,101.0
130.0,104.0,135.0,79.0,42.0,47.0,132.0,115.0,-1.0,109.0,-68.0,126.0,-128.0,127.0,-118.0,-86.0,101.0
130.0,103.0,134.0,71.0,40.0,44.0,131.0,114.0,-1.0,109.0,-68.0,126.0,-128.0,127.0,-118.0,-86.0,101.0
130.0,109.0,142.0,135.0,62.0,72.0,141.0,118.0,-1.0,109.0,-68.0,126.0,-128.0,127.0,-118.0,-86.0,101.0
130.0,109.0,141.0,128.0,59.0,69.0,140.0,118.0,-1.0,109.0,-68.0,126.0,-128.0,127.0,-118.0,-86.0,101.0
130.0,108.0,140.0,121.0,57.0,66.0,139.0,117.0,-1.0,109.0,-68.0,126.0,-128.0,127.0,-118.0,-86.0,101.0
130.0,107.0,139.0,114.0,54.0,63.0,139.0,117.0,-1.0,109.0,-68.0,126.0,-128.0,127.0,-118.0,-86.0,101.0
130.0,107.0,139.0,107.0,52.0,60.0,138.0,117.0,-1.0,109.0,-68.0,126.0,-128.0,127.0,-118.0,-86.0,101.0
130.0,106.0,138.0,100.0,49.0,57.0,136.0,117.0,-1.0,109.0,-68.0,126.0,-128.0,127.0,-118.0,-86.0,101.0
128.0,52.0,89.0,0.0,0.0,16.0,99.0,96.0,-1.0,110.0,-66.0,125.0,127.0,127.0,-118.0,-86.0,101.0
128.0,52.0,90.0,0.0,0.0,19.0,99.0,97.0,-1.0,110.0,-66.0,125.0,127.0,127.0,-118.0,-86.0,101.0
127.0,51.0,91.0,0.0,0.0,21.0,99.0,97.0,-1.0,110.0,-66.0,125.0,127.0,127.0,-118.0,-86.0,101.0
130.0,60.0,90.0,0.0,0.0,2.0,100.0,98.0,-1.0,110.0,-66.0,125.0,127.0,127.0,-118.0,-86.0,101.0
130.0,59.0,89.0,0.0,0.0,4.0,99.0,97.0,-1.0,110.0,-66.0,125.0,127.0,127.0,-118.0,-86.0,101.0
129.0,57.0,88.0,0.0,0.0,5.0,100.0,97.0,-1.0,110.0,-66.0,125.0,127.0,127.0,-118.0,-86.0,101.0
129.0,56.0,87.0,0.0,0.0,8.0,99.0,97.0,-1.0,110.0,-66.0,125.0,127.0,127.0,-118.0,-86.0,101.0
129.0,55.0,87.0,0.0,0.0,10.0,99.0,97.0,-1.0,110.0,-66.0,125.0,127.0,127.0,-118.0,-86.0,101.0
129.0,54.0,88.0,0.0,0.0,12.0,99.0,97.0,-1.0,110.0,-66.0,125.0,127.0,127.0,-118.0,-86.0,101.0
128.0,53.0,88.0,0.0,0.0,14.0,99.0,96.0,-1.0,110.0,-66.0,125.0,127.0,127.0,-118.0,-86.0,101.0
121.0,31.0,254.0,0.0,162.0,150.0,170.0,149.0,-1.0,113.0,-63.0,123.0,126.0,127.0,-118.0,-86.0,101.0
121.0,32.0,254.0,0.0,165.0,151.0,171.0,150.0,-1.0,113.0,-63.0,123.0,126.0,127.0,-118.0,-86.0,101.0
119.0,28.0,209.0,0.0,132.0,137.0,154.0,140.0,-1.0,113.0,-63.0,123.0,126.0,127.0,-118.0,-86.0,101.0
119.0,28.0,215.0,0.0,136.0,139.0,156.0,141.0,-1.0,113.0,-63.0,123.0,126.0,127.0,-118.0,-86.0,101.0
119.0,29.0,221.0,0.0,140.0,141.0,158.0,143.0,-1.0,113.0,-63.0,123.0,126.0,127.0,-118.0,-86.0,101.0
119.0,29.0,227.0,0.0,144.0,142.0,160.0,144.0,-1.0,113.0,-63.0,123.0,126.0,127.0,-118.0,-86.0,101.0
119.0,29.0,233.0,0.0,148.0,144.0,162.0,145.0,-1.0,113.0,-63.0,123.0,126.0,127.0,-118.0,-86.0,101.0
120.0,29.0,240.0,0.0,152.0,145.0,164.0,146.0,-1.0,113.0,-63.0,123.0,126.0,127.0,-118.0,-86.0,101.0
120.0,30.0,246.0,0.0,156.0,147.0,166.0,147.0,-1.0,113.0,-63.0,123.0,126.0,127.0,-118.0,-86.0,101.0
120.0,30.0,253.0,0.0,159.0,148.0,168.0,148.0,-1.0,113.0,-63.0,123.0,126.0,127.0,-118.0,-86.0,101.0
133.0,0.0,254.0,63.0,218.0,158.0,148.0,167.0,-1.0,120.0,-63.0,121.0,126.0,126.0,-118.0,-86.0,101.0
134.0,9.0,254.0,44.0,223.0,164.0,166.0,171.0,-1.0,120.0,-63.0,121.0,126.0,126.0,-118.0,-86.0,101.0
134.0,7.0,254.0,46.0,223.0,164.0,164.0,171.0,-1.0,120.0,-63.0,121.0,126.0,126.0,-118.0,-86.0,101.0
134.0,4.0,254.0,48.0,223.0,163.0,163.0,170.0,-1.0,120.0,-63.0,121.0,126.0,126.0,-118.0,-86.0,101.0
134.0,0.0,254.0,51.0,222.0,162.0,161.0,170.0,-1.0,120.0,-63.0,121.0,126.0,126.0,-118.0,-86.0,101.0
134.0,0.0,254.0,53.0,222.0,161.0,159.0,169.0,-1.0,120.0,-63.0,121.0,126.0,126.0,-118.0,-86.0,101.0
134.0,0.0,254.0,55.0,221.0,161.0,157.0,169.0,-1.0,120.0,-63.0,121.0,126.0,126.0,-118.0,-86.0,101.0
134.0,0.0,254.0,57.0,221.0,160.0,155.0,168.0,-1.0,120.0,-63.0,121.0,126.0,126.0,-118.0,-86.0,101.0
133.0,0.0,254.0,59.0,220.0,160.0,153.0,168.0,-1.0,120.0,-63.0,121.0,126.0,126.0,-118.0,-86.0,101.0
133.0,0.0,254.0,61.0,219.0,159.0,150.0,167.0,-1.0,120.0,-63.0,121.0,126.0,126.0,-118.0,-86.0,101.0
111.0,0.0,150.0,118.0,115.0,131.0,75.0,142.0,-1.0,118.0,-65.0,119.0,126.0,126.0,-119.0,-86.0,101.0
111.0,0.0,146.0,119.0,112.0,132.0,75.0,142.0,-1.0,118.0,-65.0,119.0,126.0,126.0,-119.0,-86.0,101.0
111.0,0.0,141.0,119.0,110.0,132.0,74.0,142.0,-1.0,118.0,-65.0,119.0,126.0,126.0,-119.0,-86.0,101.0
110.0,0.0,136.0,120.0,108.0,131.0,74.0,142.0,-1.0,118.0,-65.0,119.0,126.0,126.0,-119.0,-86.0,101.0
110.0,0.0,132.0,120.0,106.0,130.0,74.0,141.0,-1.0,118.0,-65.0,119.0,126.0,126.0,-119.0,-86.0,101.0
109.0,0.0,128.0,121.0,105.0,130.0,74.0,141.0,-1.0,118.0,-65.0,119.0,126.0,126.0,-119.0,-86.0,101.0
109.0,0.0,123.0,121.0,103.0,129.0,73.0,141.0,-1.0,118.0,-65.0,119.0,126.0,126.0,-119.0,-86.0,101.0
109.0,0.0,118.0,122.0,101.0,129.0,73.0,141.0,-1.0,118.0,-65.0,119.0,126.0,126.0,-119.0,-86.0,101.0
108.0,0.0,113.0,122.0,99.0,129.0,73.0,140.0,-1.0,118.0,-65.0,119.0,126.0,126.0,-119.0,-86.0,101.0
108.0,0.0,108.0,123.0,98.0,128.0,73.0,140.0,-1.0,118.0,-65.0,119.0,126.0,126.0,-119.0,-86.0,101.0
111.0,0.0,82.0,132.0,144.0,126.0,88.0,124.0,-1.0,111.0,-64.0,120.0,126.0,127.0,-119.0,-87.0,101.0
111.0,0.0,83.0,132.0,146.0,127.0,88.0,124.0,-1.0,111.0,-64.0,120.0,126.0,127.0,-119.0,-87.0,101.0
111.0,0.0,84.0,132.0,149.0,127.0,88.0,123.0,-1.0,111.0,-64.0,120.0,126.0,127.0,-119.0,-87.0,101.0
111.0,0.0,84.0,132.0,151.0,127.0,88.0,122.0,-1.0,111.0,-64.0,120.0,126.0,127.0,-119.0,-87.0,101.0
112.0,0.0,85.0,132.0,153.0,128.0,89.0,122.0,-1.0,111.0,-64.0,120.0,126.0,127.0,-119.0,-87.0,101.0
112.0,0.0,87.0,132.0,155.0,129.0,89.0,121.0,-1.0,111.0,-64.0,120.0,126.0,127.0,-119.0,-87.0,101.0
112.0,0.0,88.0,133.0,157.0,130.0,89.0,121.0,-1.0,111.0,-64.0,120.0,126.0,127.0,-119.0,-87.0,101.0
113.0,0.0,91.0,133.0,159.0,131.0,90.0,120.0,-1.0,111.0,-64.0,120.0,126.0,127.0,-119.0,-87.0,101.0
113.0,0.0,93.0,133.0,161.0,131.0,90.0,120.0,-1.0,111.0,-64.0,120.0,126.0,127.0,-119.0,-87.0,101.0
110.0,0.0,82.0,132.0,142.0,125.0,87.0,124.0,-1.0,111.0,-64.0,120.0,126.0,127.0,-119.0,-87.0,101.0
122.0,0.0,91.0,135.0,212.0,145.0,106.0,111.0,-1.0,106.0,-62.0,121.0,126.0,127.0,-119.0,-87.0,101.0
122.0,0.0,91.0,135.0,212.0,145.0,107.0,111.0,-1.0,106.0,-62.0,121.0,126.0,127.0,-119.0,-87.0,101.0
122.0,0.0,91.0,135.0,212.0,145.0,107.0,110.0,-1.0,106.0,-62.0,121.0,126.0,127.0,-119.0,-87.0,101.0
122.0,0.0,91.0,135.0,212.0,145.0,108.0,110.0,-1.0,106.0,-62.0,121.0,126.0,127.0,-119.0,-87.0,101.0
122.0,0.0,91.0,136.0,212.0,146.0,108.0,109.0,-1.0,106.0,-62.0,121.0,126.0,127.0,-119.0,-87.0,101.0
122.0,0.0,90.0,136.0,211.0,147.0,108.0,109.0,-1.0,106.0,-62.0,121.0,126.0,127.0,-119.0,-87.0,101.0
122.0,0.0,90.0,136.0,211.0,147.0,108.0,108.0,-1.0,106.0,-62.0,121.0,126.0,127.0,-119.0,-87.0,101.0
121.0,0.0,93.0,135.0,212.0,143.0,105.0,111.0,-1.0,106.0,-62.0,121.0,126.0,127.0,-119.0,-87.0,101.0
122.0,0.0,92.0,135.0,212.0,143.0,105.0,111.0,-1.0,106.0,-62.0,121.0,126.0,127.0,-119.0,-87.0,101.0
122.0,0.0,92.0,135.0,212.0,144.0,106.0,111.0,-1.0,106.0,-62.0,121.0,126.0,127.0,-119.0,-87.0,101.0
118.0,0.0,94.0,137.0,179.0,146.0,110.0,95.0,-1.0,105.0,-62.0,121.0,126.0,127.0,-119.0,-88.0,101.0
118.0,0.0,95.0,137.0,179.0,145.0,110.0,94.0,-1.0,105.0,-62.0,121.0,126.0,127.0,-119.0,-88.0,101.0
118.0,0.0,95.0,137.0,178.0,145.0,110.0,94.0,-1.0,105.0,-62.0,121.0,126.0,127.0,-119.0,-88.0,101.0
118.0,0.0,95.0,137.0,178.0,145.0,110.0,95.0,-1.0,105.0,-62.0,121.0,126.0,127.0,-119.0,-88.0,101.0
118.0,0.0,95.0,137.0,178.0,146.0,110.0,95.0,-1.0,105.0,-62.0,121.0,126.0,127.0,-119.0,-88.0,101.0
118.0,0.0,95.0,137.0,178.0,146.0,110.0,95.0,-1.0,105.0,-62.0,121.0,126.0,127.0,-119.0,-88.0,101.0
119.0,0.0,91.0,137.0,180.0,145.0,111.0,95.0,-1.0,105.0,-62.0,121.0,126.0,127.0,-119.0,-88.0,101.0
118.0,0.0,92.0,137.0,180.0,145.0,110.0,95.0,-1.0,105.0,-62.0,121.0,126.0,127.0,-119.0,-88.0,101.0
118.0,0.0,93.0,137.0,179.0,146.0,110.0,95.0,-1.0,105.0,-62.0,121.0,126.0,127.0,-119.0,-88.0,101.0
118.0,0.0,93.0,137.0,179.0,146.0,110.0,95.0,-1.0,105.0,-62.0,121.0,126.0,127.0,-119.0,-88.0,101.0
117.0,0.0,92.0,136.0,183.0,147.0,120.0,134.0,-1.0,105.0,-63.0,122.0,127.0,127.0,-119.0,-88.0,101.0
118.0,0.0,93.0,136.0,183.0,147.0,120.0,134.0,-1.0,105.0,-63.0,122.0,127.0,127.0,-119.0,-88.0,101.0
118.0,0.0,93.0,136.0,183.0,147.0,121.0,135.0,-1.0,105.0,-63.0,122.0,127.0,127.0,-119.0,-88.0,101.0
118.0,0.0,92.0,136.0,182.0,147.0,121.0,135.0,-1.0,105.0,-63.0,122.0,127.0,127.0,-119.0,-88.0,101.0
118.0,0.0,92.0,136.0,182.0,147.0,121.0,135.0,-1.0,105.0,-63.0,122.0,127.0,127.0,-119.0,-88.0,101.0
117.0,0.0,92.0,136.0,184.0,146.0,119.0,132.0,-1.0,105.0,-63.0,122.0,127.0,127.0,-119.0,-88.0,101.0
117.0,0.0,92.0,136.0,184.0,147.0,119.0,132.0,-1.0,105.0,-63.0,122.0,127.0,127.0,-119.0,-88.0,101.0
117.0,0.0,92.0,136.0,183.0,147.0,119.0,133.0,-1.0,105.0,-63.0,122.0,127.0,127.0,-119.0,-88.0,101.0
117.0,0.0,92.0,136.0,183.0,147.0,119.0,133.0,-1.0,105.0,-63.0,122.0,127.0,127.0,-119.0,-88.0,101.0
117.0,0.0,92.0,136.0,183.0,147.0,120.0,134.0,-1.0,105.0,-63.0,122.0,127.0,127.0,-119.0,-88.0,101.0
122.0,0.0,86.0,137.0,163.0,146.0,127.0,136.0,-1.0,105.0,-65.0,122.0,127.0,127.0,-119.0,-88.0,101.0
122.0,0.0,85.0,137.0,162.0,146.0,127.0,136.0,-1.0,105.0,-65.0,122.0,127.0,127.0,-119.0,-88.0,101.0
122.0,0.0,84.0,137.0,161.0,146.0,126.0,136.0,-1.0,105.0,-65.0,122.0,127.0,127.0,-119.0,-88.0,101.0
122.0,0.0,84.0,137.0,161.0,147.0,126.0,135.0,-1.0,105.0,-65.0,122.0,127.0,127.0,-119.0,-88.0,101.0
121.0,0.0,89.0,136.0,167.0,145.0,127.0,136.0,-1.0,105.0,-65.0,122.0,127.0,127.0,-119.0,-88.0,101.0
121.0,0.0,89.0,136.0,166.0,145.0,127.0,136.0,-1.0,105.0,-65.0,122.0,127.0,127.0,-119.0,-88.0,101.0
121.0,0.0,89.0,136.0,165.0,146.0,126.0,136.0,-1.0,105.0,-65.0,122.0,127.0,127.0,-119.0,-88.0,101.0
121.0,0.0,88.0,137.0,165.0,146.0,126.0,136.0,-1.0,105.0,-65.0,122.0,127.0,127.0,-119.0,-88.0,101.0
122.0,0.0,88.0,137.0,164.0,146.0,126.0,136.0,-1.0,105.0,-65.0,122.0,127.0,127.0,-119.0,-88.0,101.0
122.0,0.0,87.0,137.0,164.0,146.0,126.0,136.0,-1.0,105.0,-65.0,122.0,127.0,127.0,-119.0,-88.0,101.0
123.0,75.0,86.0,136.0,131.0,143.0,128.0,129.0,-1.0,103.0,-66.0,123.0,127.0,127.0,-118.0,-88.0,101.0
123.0,77.0,86.0,136.0,130.0,143.0,128.0,129.0,-1.0,103.0,-66.0,123.0,127.0,127.0,-118.0,-88.0,101.0
123.0,78.0,85.0,136.0,130.0,144.0,128.0,129.0,-1.0,103.0,-66.0,123.0,127.0,127.0,-118.0,-88.0,101.0
122.0,65.0,79.0,136.0,134.0,142.0,127.0,129.0,-1.0,103.0,-66.0,123.0,127.0,127.0,-118.0,-88.0,101.0
122.0,66.0,80.0,136.0,134.0,142.0,127.0,129.0,-1.0,103.0,-66.0,123.0,127.0,127.0,-118.0,-88.0,101.0
123.0,68.0,81.0,136.0,133.0,143.0,127.0,129.0,-1.0,103.0,-66.0,123.0,127.0,127.0,-118.0,-88.0,101.0
123.0,69.0,82.0,136.0,132.0,144.0,127.0,129.0,-1.0,103.0,-66.0,123.0,127.0,127.0,-118.0,-88.0,101.0
123.0,71.0,84.0,136.0,132.0,144.0,127.0,129.0,-1.0,103.0,-66.0,123.0,127.0,127.0,-118.0,-88.0,101.0
123.0,72.0,85.0,136.0,132.0,143.0,127.0,129.0,-1.0,103.0,-66.0,123.0,127.0,127.0,-118.0,-88.0,101.0
123.0,74.0,85.0,136.0,131.0,143.0,128.0,129.0,-1.0,103.0,-66.0,123.0,127.0,127.0,-118.0,-88.0,101.0
121.0,114.0,102.0,135.0,121.0,142.0,129.0,124.0,-1.0,100.0,-68.0,124.0,127.0,127.0,-118.0,-88.0,101.0
121.0,114.0,102.0,135.0,120.0,141.0,129.0,124.0,-1.0,100.0,-68.0,124.0,127.0,127.0,-118.0,-88.0,101.0
122.0,111.0,99.0,135.0,121.0,143.0,129.0,124.0,-1.0,100.0,-68.0,124.0,127.0,127.0,-118.0,-88.0,101.0
121.0,112.0,99.0,135.0,121.0,143.0,129.0,124.0,-1.0,100.0,-68.0,124.0,127.0,127.0,-118.0,-88.0,101.0
121.0,112.0,99.0,135.0,121.0,142.0,129.0,124.0,-1.0,100.0,-68.0,124.0,127.0,127.0,-118.0,-88.0,101.0
121.0,112.0,99.0,135.0,121.0,142.0,129.0,124.0,-1.0,100.0,-68.0,124.0,127.0,127.0,-118.0,-88.0,101.0
121.0,112.0,100.0,135.0,121.0,142.0,129.0,124.0,-1.0,100.0,-68.0,124.0,127.0,127.0,-118.0,-88.0,101.0
121.0,113.0,100.0,135.0,121.0,142.0,129.0,124.0,-1.0,100.0,-68.0,124.0,127.0,127.0,-118.0,-88.0,101.0
121.0,113.0,101.0,135.0,121.0,142.0,129.0,124.0,-1.0,100.0,-68.0,124.0,127.0,127.0,-118.0,-88.0,101.0
121.0,113.0,101.0,135.0,121.0,142.0,129.0,124.0,-1.0,100.0,-68.0,124.0,127.0,127.0,-118.0,-88.0,101.0
121.0,126.0,122.0,135.0,117.0,142.0,129.0,124.0,-1.0,99.0,-69.0,124.0,-128.0,127.0,-117.0,-89.0,101.0
121.0,125.0,118.0,135.0,117.0,142.0,129.0,124.0,-1.0,99.0,-69.0,124.0,-128.0,127.0,-117.0,-89.0,101.0
121.0,125.0,118.0,135.0,117.0,142.0,129.0,124.0,-1.0,99.0,-69.0,124.0,-128.0,127.0,-117.0,-89.0,101.0
121.0,125.0,118.0,135.0,117.0,142.0,130.0,124.0,-1.0,99.0,-69.0,124.0,-128.0,127.0,-117.0,-89.0,101.0
121.0,125.0,118.0,135.0,118.0,142.0,129.0,124.0,-1.0,99.0,-69.0,124.0,-128.0,127.0,-117.0,-89.0,101.0
121.0,125.0,119.0,135.0,118.0,142.0,129.0,124.0,-1.0,99.0,-69.0,124.0,-128.0,127.0,-117.0,-89.0,101.0
121.0,125.0,119.0,135.0,117.0,142.0,129.0,124.0,-1.0,99.0,-69.0,124.0,-128.0,127.0,-117.0,-89.0,101.0
121.0,126.0,120.0,135.0,117.0,142.0,129.0,124.0,-1.0,99.0,-69.0,124.0,-128.0,127.0,-117.0,-89.0,101.0
121.0,126.0,120.0,135.0,117.0,142.0,129.0,124.0,-1.0,99.0,-69.0,124.0,-128.0,127.0,-117.0,-89.0,101.0
121.0,126.0,121.0,135.0,117.0,142.0,129.0,124.0,-1.0,99.0,-69.0,124.0,-128.0,127.0,-117.0,-89.0,101.0
122.0,123.0,128.0,135.0,116.0,145.0,128.0,122.0,-1.0,98.0,-69.0,125.0,-128.0,127.0,-116.0,-89.0,101.0
122.0,123.0,128.0,135.0,116.0,145.0,128.0,122.0,-1.0,98.0,-69.0,125.0,-128.0,127.0,-116.0,-89.0,101.0
122.0,123.0,129.0,135.0,116.0,144.0,128.0,122.0,-1.0,98.0,-69.0,125.0,-128.0,127.0,-116.0,-89.0,101.0
122.0,123.0,129.0,135.0,116.0,144.0,129.0,121.0,-1.0,98.0,-69.0,125.0,-128.0,127.0,-116.0,-89.0,101.0
122.0,123.0,129.0,135.0,116.0,144.0,129.0,121.0,-1.0,98.0,-69.0,125.0,-128.0,127.0,-116.0,-89.0,101.0
122.0,123.0,130.0,135.0,115.0,144.0,129.0,121.0,-1.0,98.0,-69.0,125.0,-128.0,127.0,-116.0,-89.0,101.0
122.0,123.0,130.0,135.0,115.0,145.0,128.0,121.0,-1.0,98.0,-69.0,125.0,-128.0,127.0,-116.0,-89.0,101.0
122.0,123.0,131.0,135.0,115.0,145.0,128.0,121.0,-1.0,98.0,-69.0,125.0,-128.0,127.0,-116.0,-89.0,101.0
123.0,123.0,132.0,135.0,115.0,145.0,129.0,122.0,-1.0,98.0,-69.0,125.0,-128.0,127.0,-116.0,-89.0,101.0
123.0,123.0,132.0,135.0,115.0,145.0,129.0,122.0,-1.0,98.0,-69.0,125.0,-128.0,127.0,-116.0,-89.0,101.0
124.0,125.0,126.0,137.0,117.0,144.0,129.0,123.0,-1.0,97.0,-69.0,125.0,-128.0,127.0,-115.0,-89.0,101.0
123.0,125.0,126.0,137.0,117.0,144.0,129.0,123.0,-1.0,97.0,-69.0,125.0,-128.0,127.0,-115.0,-89.0,101.0
123.0,125.0,126.0,137.0,118.0,143.0,129.0,123.0,-1.0,97.0,-69.0,125.0,-128.0,127.0,-115.0,-89.0,101.0
123.0,125.0,125.0,137.0,118.0,143.0,129.0,123.0,-1.0,97.0,-69.0,125.0,-128.0,127.0,-115.0,-89.0,101.0
123.0,124.0,125.0,137.0,118.0,143.0,128.0,123.0,-1.0,97.0,-69.0,125.0,-128.0,127.0,-115.0,-89.0,101.0
123.0,125.0,124.0,137.0,118.0,143.0,128.0,123.0,-1.0,97.0,-69.0,125.0,-128.0,127.0,-115.0,-89.0,101.0
124.0,125.0,125.0,137.0,118.0,143.0,128.0,123.0,-1.0,97.0,-69.0,125.0,-128.0,127.0,-115.0,-89.0,101.0
124.0,125.0,125.0,137.0,118.0,143.0,128.0,123.0,-1.0,97.0,-69.0,125.0,-128.0,127.0,-115.0,-89.0,101.0
124.0,125.0,125.0,137.0,118.0,143.0,128.0,123.0,-1.0,97.0,-69.0,125.0,-128.0,127.0,-115.0,-89.0,101.0
123.0,125.0,127.0,137.0,117.0,144.0,129.0,123.0,-1.0,97.0,-69.0,125.0,-128.0,127.0,-115.0,-89.0,101.0
124.0,125.0,127.0,137.0,121.0,142.0,128.0,124.0,-1.0,96.0,-69.0,125.0,-128.0,127.0,-115.0,-89.0,101.0
124.0,125.0,128.0,138.0,122.0,141.0,128.0,124.0,-1.0,96.0,-69.0,125.0,-128.0,127.0,-115.0,-89.0,101.0
124.0,125.0,129.0,137.0,122.0,141.0,128.0,124.0,-1.0,96.0,-69.0,125.0,-128.0,127.0,-115.0,-89.0,101.0
124.0,126.0,130.0,137.0,122.0,141.0,129.0,124.0,-1.0,96.0,-69.0,125.0,-128.0,127.0,-115.0,-89.0,101.0
124.0,126.0,130.0,138.0,121.0,142.0,128.0,124.0,-1.0,96.0,-69.0,125.0,-128.0,127.0,-115.0,-89.0,101.0
124.0,126.0,131.0,138.0,121.0,143.0,128.0,124.0,-1.0,96.0,-69.0,125.0,-128.0,127.0,-115.0,-89.0,101.0
124.0,126.0,131.0,138.0,122.0,143.0,129.0,124.0,-1.0,96.0,-69.0,125.0,-128.0,127.0,-115.0,-89.0,101.0
125.0,126.0,132.0,138.0,122.0,143.0,129.0,124.0,-1.0,96.0,-69.0,125.0,-128.0,127.0,-115.0,-89.0,101.0
124.0,125.0,125.0,137.0,121.0,142.0,129.0,124.0,-1.0,96.0,-69.0,125.0,-128.0,127.0,-115.0,-89.0,101.0
124.0,125.0,126.0,137.0,121.0,142.0,128.0,124.0,-1.0,96.0,-69.0,125.0,-128.0,127.0,-115.0,-89.0,101.0
124.0,125.0,130.0,138.0,118.0,141.0,127.0,124.0,-1.0,94.0,-69.0,125.0,-128.0,127.0,-115.0,-89.0,102.0
124.0,125.0,130.0,138.0,118.0,141.0,127.0,124.0,-1.0,94.0,-69.0,125.0,-128.0,127.0,-115.0,-89.0,102.0
124.0,124.0,129.0,137.0,118.0,141.0,127.0,124.0,-1.0,94.0,-69.0,125.0,-128.0,127.0,-115.0,-89.0,102.0
124.0,125.0,129.0,138.0,117.0,142.0,127.0,124.0,-1.0,94.0,-69.0,125.0,-128.0,127.0,-115.0,-89.0,102.0
124.0,125.0,129.0,138.0,117.0,142.0,127.0,124.0,-1.0,94.0,-69.0,125.0,-128.0,127.0,-115.0,-89.0,102.0
124.0,125.0,128.0,138.0,117.0,142.0,127.0,124.0,-1.0,94.0,-69.0,125.0,-128.0,127.0,-115.0,-89.0,102.0
124.0,125.0,128.0,137.0,117.0,142.0,127.0,124.0,-1.0,94.0,-69.0,125.0,-128.0,127.0,-115.0,-89.0,102.0
125.0,125.0,130.0,138.0,118.0,142.0,128.0,124.0,-1.0,94.0,-69.0,125.0,-128.0,127.0,-115.0,-89.0,102.0
124.0,125.0,130.0,138.0,118.0,142.0,127.0,124.0,-1.0,94.0,-69.0,125.0,-128.0,127.0,-115.0,-89.0,102.0
124.0,125.0,130.0,138.0,118.0,142.0,127.0,124.0,-1.0,94.0,-69.0,125.0,-128.0,127.0,-115.0,-89.0,102.0
124.0,124.0,131.0,137.0,117.0,140.0,127.0,127.0,-1.0,93.0,-69.0,126.0,-128.0,127.0,-114.0,-89.0,102.0
125.0,124.0,131.0,137.0,117.0,140.0,127.0,127.0,-1.0,93.0,-69.0,126.0,-128.0,127.0,-114.0,-89.0,102.0
125.0,124.0,131.0,137.0,117.0,141.0,127.0,127.0,-1.0,93.0,-69.0,126.0,-128.0,127.0,-114.0,-89.0,102.0
125.0,124.0,131.0,137.0,117.0,141.0,127.0,127.0,-1.0,93.0,-69.0,126.0,-128.0,127.0,-114.0,-89.0,102.0
125.0,124.0,131.0,137.0,117.0,141.0,127.0,127.0,-1.0,93.0,-69.0,126.0,-128.0,127.0,-114.0,-89.0,102.0
125.0,124.0,131.0,137.0,117.0,140.0,127.0,127.0,-1.0,93.0,-69.0,126.0,-128.0,127.0,-114.0,-89.0,102.0
124.0,124.0,128.0,137.0,117.0,140.0,127.0,126.0,-1.0,93.0,-69.0,126.0,-128.0,127.0,-114.0,-89.0,102.0
124.0,124.0,129.0,137.0,117.0,140.0,127.0,126.0,-1.0,93.0,-69.0,126.0,-128.0,127.0,-114.0,-89.0,102.0
124.0,124.0,130.0,137.0,117.0,140.0,127.0,126.0,-1.0,93.0,-69.0,126.0,-128.0,127.0,-114.0,-89.0,102.0
124.0,124.0,130.0,137.0,117.0,140.0,127.0,126.0,-1.0,93.0,-69.0,126.0,-128.0,127.0,-114.0,-89.0,102.0
124.0,124.0,135.0,135.0,117.0,139.0,127.0,128.0,-1.0,92.0,-71.0,126.0,-128.0,127.0,-113.0,-89.0,102.0
124.0,124.0,135.0,135.0,117.0,140.0,127.0,128.0,-1.0,92.0,-71.0,126.0,-128.0,127.0,-113.0,-89.0,102.0
124.0,124.0,136.0,135.0,117.0,140.0,127.0,128.0,-1.0,92.0,-71.0,126.0,-128.0,127.0,-113.0,-89.0,102.0
124.0,124.0,136.0,135.0,117.0,139.0,127.0,128.0,-1.0,92.0,-71.0,126.0,-128.0,127.0,-113.0,-89.0,102.0
124.0,123.0,129.0,136.0,117.0,138.0,127.0,128.0,-1.0,92.0,-71.0,126.0,-128.0,127.0,-113.0,-89.0,102.0
124.0,124.0,129.0,136.0,117.0,139.0,127.0,128.0,-1.0,92.0,-71.0,126.0,-128.0,127.0,-113.0,-89.0,102.0
124.0,124.0,130.0,136.0,117.0,139.0,127.0,128.0,-1.0,92.0,-71.0,126.0,-128.0,127.0,-113.0,-89.0,102.0
124.0,124.0,131.0,135.0,117.0,139.0,127.0,128.0,-1.0,92.0,-71.0,126.0,-128.0,127.0,-113.0,-89.0,102.0
124.0,124.0,133.0,135.0,117.0,139.0,127.0,128.0,-1.0,92.0,-71.0,126.0,-128.0,127.0,-113.0,-89.0,102.0
124.0,124.0,134.0,135.0,117.0,139.0,127.0,128.0,-1.0,92.0,-71.0,126.0,-128.0,127.0,-113.0,-89.0,102.0
125.0,123.0,143.0,134.0,118.0,137.0,127.0,132.0,-1.0,90.0,-72.0,126.0,-128.0,127.0,-113.0,-90.0,102.0
125.0,123.0,143.0,134.0,118.0,137.0,127.0,132.0,-1.0,90.0,-72.0,126.0,-128.0,127.0,-113.0,-90.0,102.0
125.0,123.0,143.0,134.0,118.0,137.0,127.0,132.0,-1.0,90.0,-72.0,126.0,-128.0,127.0,-113.0,-90.0,102.0
125.0,123.0,142.0,134.0,118.0,137.0,127.0,131.0,-1.0,90.0,-72.0,126.0,-128.0,127.0,-113.0,-90.0,102.0
125.0,123.0,142.0,134.0,118.0,137.0,127.0,131.0,-1.0,90.0,-72.0,126.0,-128.0,127.0,-113.0,-90.0,102.0
124.0,123.0,142.0,134.0,118.0,137.0,127.0,131.0,-1.0,90.0,-72.0,126.0,-128.0,127.0,-113.0,-90.0,102.0
124.0,123.0,142.0,134.0,118.0,137.0,127.0,131.0,-1.0,90.0,-72.0,126.0,-128.0,127.0,-113.0,-90.0,102.0
124.0,123.0,142.0,134.0,118.0,137.0,127.0,131.0,-1.0,90.0,-72.0,126.0,-128.0,127.0,-113.0,-90.0,102.0
124.0,123.0,143.0,134.0,118.0,137.0,127.0,131.0,-1.0,90.0,-72.0,126.0,-128.0,127.0,-113.0,-90.0,102.0
124.0,123.0,143.0,134.0,118.0,137.0,127.0,131.0,-1.0,90.0,-72.0,126.0,-128.0,127.0,-113.0,-90.0,102.0
125.0,121.0,146.0,133.0,119.0,138.0,127.0,135.0,-1.0,89.0,-73.0,126.0,-128.0,127.0,-112.0,-90.0,102.0
125.0,121.0,146.0,133.0,119.0,138.0,127.0,135.0,-1.0,89.0,-73.0,126.0,-128.0,127.0,-112.0,-90.0,102.0
125.0,122.0,145.0,134.0,119.0,138.0,128.0,136.0,-1.0,89.0,-73.0,126.0,-128.0,127.0,-112.0,-90.0,102.0
125.0,122.0,145.0,134.0,119.0,137.0,128.0,136.0,-1.0,89.0,-73.0,126.0,-128.0,127.0,-112.0,-90.0,102.0
125.0,122.0,145.0,134.0,119.0,137.0,128.0,136.0,-1.0,89.0,-73.0,126.0,-128.0,127.0,-112.0,-90.0,102.0
125.0,122.0,145.0,134.0,119.0,137.0,128.0,136.0,-1.0,89.0,-73.0,126.0,-128.0,127.0,-112.0,-90.0,102.0
125.0,122.0,145.0,134.0,119.0,138.0,127.0,136.0,-1.0,89.0,-73.0,126.0,-128.0,127.0,-112.0,-90.0,102.0
125.0,122.0,145.0,133.0,119.0,138.0,127.0,136.0,-1.0,89.0,-73.0,126.0,-128.0,127.0,-112.0,-90.0,102.0
125.0,122.0,145.0,133.0,119.0,138.0,127.0,136.0,-1.0,89.0,-73.0,126.0,-128.0,127.0,-112.0,-90.0,102.0
125.0,122.0,146.0,133.0,119.0,138.0,127.0,136.0,-1.0,89.0,-73.0,126.0,-128.0,127.0,-112.0,-90.0,102.0
125.0,119.0,147.0,125.0,118.0,140.0,127.0,87.0,-1.0,88.0,-74.0,127.0,-128.0,127.0,-111.0,-90.0,102.0
125.0,120.0,147.0,131.0,119.0,138.0,127.0,93.0,-1.0,88.0,-74.0,127.0,-128.0,127.0,-111.0,-90.0,102.0
125.0,119.0,147.0,131.0,119.0,138.0,127.0,92.0,-1.0,88.0,-74.0,127.0,-128.0,127.0,-111.0,-90.0,102.0
125.0,119.0,147.0,131.0,119.0,138.0,127.0,91.0,-1.0,88.0,-74.0,127.0,-128.0,127.0,-111.0,-90.0,102.0
125.0,119.0,147.0,130.0,119.0,139.0,127.0,90.0,-1.0,88.0,-74.0,127.0,-128.0,127.0,-111.0,-90.0,102.0
125.0,119.0,147.0,130.0,118.0,139.0,127.0,89.0,-1.0,88.0,-74.0,127.0,-128.0,127.0,-111.0,-90.0,102.0
125.0,119.0,147.0,129.0,118.0,140.0,127.0,89.0,-1.0,88.0,-74.0,127.0,-128.0,127.0,-111.0,-90.0,102.0
125.0,119.0,147.0,129.0,118.0,140.0,127.0,88.0,-1.0,88.0,-74.0,127.0,-128.0,127.0,-111.0,-90.0,102.0
125.0,119.0,147.0,127.0,118.0,140.0,127.0,87.0,-1.0,88.0,-74.0,127.0,-128.0,127.0,-111.0,-90.0,102.0
125.0,119.0,147.0,126.0,118.0,140.0,127.0,87.0,-1.0,88.0,-74.0,127.0,-128.0,127.0,-111.0,-90.0,102.0
125.0,114.0,151.0,27.0,110.0,142.0,126.0,69.0,-1.0,88.0,-74.0,127.0,-128.0,127.0,-110.0,-90.0,102.0
125.0,114.0,151.0,25.0,110.0,142.0,126.0,69.0,-1.0,88.0,-74.0,127.0,-128.0,127.0,-110.0,-90.0,102.0
125.0,114.0,151.0,23.0,110.0,142.0,126.0,70.0,-1.0,88.0,-74.0,127.0,-128.0,127.0,-110.0,-90.0,102.0
125.0,114.0,152.0,22.0,110.0,142.0,126.0,71.0,-1.0,88.0,-74.0,127.0,-128.0,127.0,-110.0,-90.0,102.0
125.0,114.0,151.0,20.0,110.0,143.0,125.0,72.0,-1.0,88.0,-74.0,127.0,-128.0,127.0,-110.0,-90.0,102.0
125.0,114.0,151.0,19.0,109.0,143.0,125.0,73.0,-1.0,88.0,-74.0,127.0,-128.0,127.0,-110.0,-90.0,102.0
125.0,114.0,152.0,18.0,109.0,143.0,125.0,74.0,-1.0,88.0,-74.0,127.0,-128.0,127.0,-110.0,-90.0,102.0
125.0,114.0,152.0,16.0,109.0,143.0,125.0,75.0,-1.0,88.0,-74.0,127.0,-128.0,127.0,-110.0,-90.0,102.0
125.0,114.0,152.0,15.0,109.0,143.0,125.0,77.0,-1.0,88.0,-74.0,127.0,-128.0,127.0,-110.0,-90.0,102.0
125.0,114.0,152.0,14.0,109.0,143.0,125.0,78.0,-1.0,88.0,-74.0,127.0,-128.0,127.0,-110.0,-90.0,102.0
126.0,122.0,143.0,2.0,106.0,142.0,122.0,122.0,-1.0,87.0,-74.0,127.0,-128.0,127.0,-110.0,-91.0,102.0
126.0,122.0,143.0,3.0,106.0,142.0,122.0,123.0,-1.0,87.0,-74.0,127.0,-128.0,127.0,-110.0,-91.0,102.0
126.0,122.0,142.0,3.0,106.0,142.0,122.0,124.0,-1.0,87.0,-74.0,127.0,-128.0,127.0,-110.0,-91.0,102.0
126.0,123.0,142.0,3.0,106.0,142.0,121.0,125.0,-1.0,87.0,-74.0,127.0,-128.0,127.0,-110.0,-91.0,102.0
126.0,123.0,141.0,4.0,106.0,142.0,121.0,126.0,-1.0,87.0,-74.0,127.0,-128.0,127.0,-110.0,-91.0,102.0
126.0,123.0,141.0,4.0,106.0,142.0,121.0,127.0,-1.0,87.0,-74.0,127.0,-128.0,127.0,-110.0,-91.0,102.0
126.0,124.0,140.0,4.0,106.0,142.0,121.0,129.0,-1.0,87.0,-74.0,127.0,-128.0,127.0,-110.0,-91.0,102.0
127.0,124.0,140.0,5.0,106.0,142.0,121.0,129.0,-1.0,87.0,-74.0,127.0,-128.0,127.0,-110.0,-91.0,102.0
127.0,124.0,139.0,6.0,106.0,142.0,121.0,130.0,-1.0,87.0,-74.0,127.0,-128.0,127.0,-110.0,-91.0,102.0
126.0,121.0,143.0,2.0,106.0,142.0,122.0,121.0,-1.0,87.0,-74.0,127.0,-128.0,127.0,-110.0,-91.0,102.0
131.0,128.0,131.0,77.0,105.0,139.0,123.0,152.0,-1.0,86.0,-74.0,-128.0,-128.0,127.0,-109.0,-91.0,102.0
131.0,128.0,131.0,79.0,105.0,138.0,123.0,152.0,-1.0,86.0,-74.0,-128.0,-128.0,127.0,-109.0,-91.0,102.0
131.0,128.0,131.0,82.0,105.0,138.0,123.0,153.0,-1.0,86.0,-74.0,-128.0,-128.0,127.0,-109.0,-91.0,102.0
131.0,128.0,130.0,84.0,105.0,139.0,123.0,153.0,-1.0,86.0,-74.0,-128.0,-128.0,127.0,-109.0,-91.0,102.0
131.0,128.0,130.0,87.0,105.0,139.0,123.0,153.0,-1.0,86.0,-74.0,-128.0,-128.0,127.0,-109.0,-91.0,102.0
131.0,128.0,130.0,89.0,105.0,138.0,123.0,153.0,-1.0,86.0,-74.0,-128.0,-128.0,127.0,-109.0,-91.0,102.0
131.0,128.0,129.0,92.0,105.0,138.0,123.0,153.0,-1.0,86.0,-74.0,-128.0,-128.0,127.0,-109.0,-91.0,102.0
131.0,128.0,129.0,95.0,105.0,138.0,123.0,153.0,-1.0,86.0,-74.0,-128.0,-128.0,127.0,-109.0,-91.0,102.0
131.0,128.0,131.0,72.0,105.0,139.0,123.0,152.0,-1.0,86.0,-74.0,-128.0,-128.0,127.0,-109.0,-91.0,102.0
131.0,128.0,131.0,74.0,105.0,139.0,123.0,152.0,-1.0,86.0,-74.0,-128.0,-128.0,127.0,-109.0,-91.0,102.0
130.0,133.0,118.0,179.0,109.0,132.0,126.0,156.0,-1.0,85.0,-73.0,-127.0,-128.0,127.0,-108.0,-91.0,103.0
130.0,133.0,118.0,180.0,109.0,132.0,126.0,155.0,-1.0,85.0,-73.0,-127.0,-128.0,127.0,-108.0,-91.0,103.0
130.0,133.0,118.0,181.0,108.0,132.0,125.0,156.0,-1.0,85.0,-73.0,-127.0,-128.0,127.0,-108.0,-91.0,103.0
130.0,133.0,118.0,183.0,108.0,132.0,125.0,156.0,-1.0,85.0,-73.0,-127.0,-128.0,127.0,-108.0,-91.0,103.0
130.0,133.0,118.0,184.0,108.0,132.0,126.0,156.0,-1.0,85.0,-73.0,-127.0,-128.0,127.0,-108.0,-91.0,103.0
130.0,133.0,118.0,185.0,108.0,132.0,126.0,155.0,-1.0,85.0,-73.0,-127.0,-128.0,127.0,-108.0,-91.0,103.0
130.0,133.0,118.0,186.0,109.0,132.0,126.0,155.0,-1.0,85.0,-73.0,-127.0,-128.0,127.0,-108.0,-91.0,103.0
130.0,132.0,119.0,175.0,108.0,133.0,126.0,155.0,-1.0,85.0,-73.0,-127.0,-128.0,127.0,-108.0,-91.0,103.0
130.0,132.0,119.0,176.0,109.0,132.0,126.0,155.0,-1.0,85.0,-73.0,-127.0,-128.0,127.0,-108.0,-91.0,103.0
130.0,132.0,118.0,178.0,109.0,132.0,126.0,155.0,-1.0,85.0,-73.0,-127.0,-128.0,127.0,-108.0,-91.0,103.0
129.0,135.0,118.0,198.0,114.0,128.0,129.0,138.0,-1.0,84.0,-72.0,-127.0,-128.0,127.0,-108.0,-91.0,103.0
129.0,135.0,118.0,198.0,114.0,129.0,129.0,138.0,-1.0,84.0,-72.0,-127.0,-128.0,127.0,-108.0,-91.0,103.0
129.0,135.0,118.0,198.0,114.0,129.0,129.0,138.0,-1.0,84.0,-72.0,-127.0,-128.0,127.0,-108.0,-91.0,103.0
129.0,135.0,118.0,198.0,114.0,128.0,129.0,137.0,-1.0,84.0,-72.0,-127.0,-128.0,127.0,-108.0,-91.0,103.0
129.0,135.0,118.0,198.0,114.0,128.0,129.0,137.0,-1.0,84.0,-72.0,-127.0,-128.0,127.0,-108.0,-91.0,103.0
129.0,135.0,118.0,198.0,115.0,128.0,129.0,137.0,-1.0,84.0,-72.0,-127.0,-128.0,127.0,-108.0,-91.0,103.0
129.0,135.0,117.0,199.0,113.0,129.0,129.0,139.0,-1.0,84.0,-72.0,-127.0,-128.0,127.0,-108.0,-91.0,103.0
129.0,135.0,118.0,199.0,113.0,129.0,129.0,139.0,-1.0,84.0,-72.0,-127.0,-128.0,127.0,-108.0,-91.0,103.0
129.0,135.0,118.0,199.0,114.0,128.0,129.0,138.0,-1.0,84.0,-72.0,-127.0,-128.0,127.0,-108.0,-91.0,103.0
129.0,135.0,118.0,199.0,114.0,128.0,129.0,138.0,-1.0,84.0,-72.0,-127.0,-128.0,127.0,-108.0,-91.0,103.0
129.0,143.0,115.0,192.0,124.0,125.0,129.0,127.0,-1.0,85.0,-71.0,-126.0,-128.0,-128.0,-108.0,-91.0,103.0
130.0,143.0,115.0,192.0,124.0,126.0,129.0,127.0,-1.0,85.0,-71.0,-126.0,-128.0,-128.0,-108.0,-91.0,103.0
129.0,143.0,115.0,192.0,124.0,126.0,129.0,127.0,-1.0,85.0,-71.0,-126.0,-128.0,-128.0,-108.0,-91.0,103.0
130.0,143.0,115.0,191.0,124.0,126.0,128.0,127.0,-1.0,85.0,-71.0,-126.0,-128.0,-128.0,-108.0,-91.0,103.0
130.0,144.0,115.0,191.0,124.0,127.0,128.0,127.0,-1.0,85.0,-71.0,-126.0,-128.0,-128.0,-108.0,-91.0,103.0
129.0,142.0,115.0,193.0,123.0,125.0,129.0,128.0,-1.0,85.0,-71.0,-126.0,-128.0,-128.0,-108.0,-91.0,103.0
129.0,143.0,115.0,193.0,123.0,125.0,129.0,128.0,-1.0,85.0,-71.0,-126.0,-128.0,-128.0,-108.0,-91.0,103.0
129.0,143.0,115.0,193.0,123.0,125.0,129.0,128.0,-1.0,85.0,-71.0,-126.0,-128.0,-128.0,-108.0,-91.0,103.0
129.0,143.0,115.0,192.0,124.0,125.0,129.0,128.0,-1.0,85.0,-71.0,-126.0,-128.0,-128.0,-108.0,-91.0,103.0
129.0,143.0,115.0,192.0,124.0,125.0,129.0,128.0,-1.0,85.0,-71.0,-126.0,-128.0,-128.0,-108.0,-91.0,103.0
130.0,143.0,125.0,176.0,127.0,124.0,129.0,123.0,-1.0,85.0,-70.0,-126.0,-128.0,-128.0,-107.0,-91.0,104.0
130.0,143.0,125.0,176.0,128.0,124.0,129.0,123.0,-1.0,85.0,-70.0,-126.0,-128.0,-128.0,-107.0,-91.0,104.0
130.0,143.0,125.0,175.0,128.0,123.0,129.0,123.0,-1.0,85.0,-70.0,-126.0,-128.0,-128.0,-107.0,-91.0,104.0
130.0,143.0,125.0,175.0,128.0,123.0,129.0,123.0,-1.0,85.0,-70.0,-126.0,-128.0,-128.0,-107.0,-91.0,104.0
131.0,143.0,125.0,179.0,127.0,125.0,129.0,123.0,-1.0,85.0,-70.0,-126.0,-128.0,-128.0,-107.0,-91.0,104.0
131.0,143.0,125.0,178.0,127.0,125.0,129.0,123.0,-1.0,85.0,-70.0,-126.0,-128.0,-128.0,-107.0,-91.0,104.0
130.0,144.0,125.0,178.0,127.0,125.0,129.0,123.0,-1.0,85.0,-70.0,-126.0,-128.0,-128.0,-107.0,-91.0,104.0
130.0,143.0,125.0,178.0,127.0,125.0,129.0,123.0,-1.0,85.0,-70.0,-126.0,-128.0,-128.0,-107.0,-91.0,104.0
130.0,143.0,125.0,177.0,127.0,125.0,129.0,123.0,-1.0,85.0,-70.0,-126.0,-128.0,-128.0,-107.0,-91.0,104.0
130.0,143.0,125.0,177.0,127.0,124.0,129.0,123.0,-1.0,85.0,-70.0,-126.0,-128.0,-128.0,-107.0,-91.0,104.0
131.0,145.0,122.0,166.0,136.0,118.0,128.0,124.0,-1.0,86.0,-69.0,-126.0,-128.0,-128.0,-107.0,-91.0,104.0
131.0,145.0,122.0,165.0,136.0,117.0,128.0,124.0,-1.0,86.0,-69.0,-126.0,-128.0,-128.0,-107.0,-91.0,104.0
131.0,144.0,122.0,165.0,137.0,117.0,128.0,124.0,-1.0,86.0,-69.0,-126.0,-128.0,-128.0,-107.0,-91.0,104.0
131.0,145.0,122.0,167.0,135.0,117.0,129.0,124.0,-1.0,86.0,-69.0,-126.0,-128.0,-128.0,-107.0,-91.0,104.0
131.0,145.0,122.0,166.0,135.0,117.0,129.0,124.0,-1.0,86.0,-69.0,-126.0,-128.0,-128.0,-107.0,-91.0,104.0
131.0,145.0,121.0,166.0,135.0,118.0,128.0,124.0,-1.0,86.0,-69.0,-126.0,-128.0,-128.0,-107.0,-91.0,104.0
131.0,145.0,121.0,166.0,135.0,118.0,128.0,124.0,-1.0,86.0,-69.0,-126.0,-128.0,-128.0,-107.0,-91.0,104.0
131.0,145.0,122.0,166.0,135.0,118.0,128.0,124.0,-1.0,86.0,-69.0,-126.0,-128.0,-128.0,-107.0,-91.0,104.0
131.0,145.0,122.0,166.0,136.0,118.0,128.0,124.0,-1.0,86.0,-69.0,-126.0,-128.0,-128.0,-107.0,-91.0,104.0
131.0,145.0,122.0,166.0,136.0,118.0,128.0,124.0,-1.0,86.0,-69.0,-126.0,-128.0,-128.0,-107.0,-91.0,104.0
131.0,145.0,124.0,157.0,141.0,115.0,128.0,123.0,-1.0,87.0,-68.0,-126.0,-128.0,-128.0,-107.0,-92.0,104.0
131.0,145.0,124.0,157.0,141.0,114.0,128.0,123.0,-1.0,87.0,-68.0,-126.0,-128.0,-128.0,-107.0,-92.0,104.0
131.0,145.0,124.0,159.0,142.0,115.0,128.0,123.0,-1.0,87.0,-68.0,-126.0,-128.0,-128.0,-107.0,-92.0,104.0
131.0,145.0,124.0,159.0,142.0,115.0,128.0,123.0,-1.0,87.0,-68.0,-126.0,-128.0,-128.0,-107.0,-92.0,104.0
131.0,145.0,124.0,158.0,141.0,116.0,127.0,123.0,-1.0,87.0,-68.0,-126.0,-128.0,-128.0,-107.0,-92.0,104.0
131.0,145.0,124.0,158.0,141.0,116.0,127.0,123.0,-1.0,87.0,-68.0,-126.0,-128.0,-128.0,-107.0,-92.0,104.0
131.0,145.0,124.0,158.0,141.0,116.0,127.0,123.0,-1.0,87.0,-68.0,-126.0,-128.0,-128.0,-107.0,-92.0,104.0
131.0,145.0,124.0,158.0,141.0,115.0,127.0,123.0,-1.0,87.0,-68.0,-126.0,-128.0,-128.0,-107.0,-92.0,104.0
131.0,145.0,124.0,158.0,141.0,115.0,127.0,123.0,-1.0,87.0,-68.0,-126.0,-128.0,-128.0,-107.0,-92.0,104.0
131.0,145.0,124.0,157.0,141.0,115.0,128.0,123.0,-1.0,87.0,-68.0,-126.0,-128.0,-128.0,-107.0,-92.0,104.0
131.0,145.0,122.0,145.0,137.0,113.0,129.0,124.0,-1.0,88.0,-67.0,-126.0,127.0,-128.0,-107.0,-92.0,104.0
131.0,144.0,122.0,145.0,137.0,113.0,129.0,124.0,-1.0,88.0,-67.0,-126.0,127.0,-128.0,-107.0,-92.0,104.0
131.0,145.0,122.0,145.0,137.0,113.0,129.0,124.0,-1.0,88.0,-67.0,-126.0,127.0,-128.0,-107.0,-92.0,104.0
131.0,145.0,122.0,144.0,137.0,114.0,128.0,124.0,-1.0,88.0,-67.0,-126.0,127.0,-128.0,-107.0,-92.0,104.0
131.0,145.0,122.0,144.0,136.0,114.0,128.0,124.0,-1.0,88.0,-67.0,-126.0,127.0,-128.0,-107.0,-92.0,104.0
131.0,145.0,122.0,144.0,137.0,114.0,128.0,124.0,-1.0,88.0,-67.0,-126.0,127.0,-128.0,-107.0,-92.0,104.0
131.0,145.0,122.0,144.0,137.0,114.0,129.0,124.0,-1.0,88.0,-67.0,-126.0,127.0,-128.0,-107.0,-92.0,104.0
130.0,145.0,122.0,144.0,137.0,114.0,129.0,124.0,-1.0,88.0,-67.0,-126.0,127.0,-128.0,-107.0,-92.0,104.0
130.0,145.0,122.0,144.0,137.0,114.0,129.0,124.0,-1.0,88.0,-67.0,-126.0,127.0,-128.0,-107.0,-92.0,104.0
130.0,145.0,122.0,144.0,137.0,114.0,129.0,124.0,-1.0,88.0,-67.0,-126.0,127.0,-128.0,-107.0,-92.0,104.0
130.0,144.0,120.0,142.0,134.0,116.0,128.0,123.0,-1.0,89.0,-66.0,-126.0,127.0,-128.0,-107.0,-92.0,104.0
130.0,144.0,120.0,142.0,134.0,116.0,128.0,123.0,-1.0,89.0,-66.0,-126.0,127.0,-128.0,-107.0,-92.0,104.0
131.0,144.0,119.0,142.0,134.0,116.0,128.0,123.0,-1.0,89.0,-66.0,-126.0,127.0,-128.0,-107.0,-92.0,104.0
131.0,145.0,119.0,142.0,134.0,117.0,127.0,123.0,-1.0,89.0,-66.0,-126.0,127.0,-128.0,-107.0,-92.0,104.0
131.0,145.0,119.0,142.0,134.0,117.0,127.0,123.0,-1.0,89.0,-66.0,-126.0,127.0,-128.0,-107.0,-92.0,104.0
131.0,145.0,119.0,142.0,134.0,117.0,127.0,123.0,-1.0,89.0,-66.0,-126.0,127.0,-128.0,-107.0,-92.0,104.0
131.0,145.0,118.0,142.0,134.0,116.0,127.0,123.0,-1.0,89.0,-66.0,-126.0,127.0,-128.0,-107.0,-92.0,104.0
131.0,145.0,118.0,142.0,134.0,117.0,127.0,123.0,-1.0,89.0,-66.0,-126.0,127.0,-128.0,-107.0,-92.0,104.0
131.0,145.0,118.0,142.0,134.0,116.0,127.0,123.0,-1.0,89.0,-66.0,-126.0,127.0,-128.0,-107.0,-92.0,104.0
130.0,144.0,120.0,142.0,134.0,116.0,128.0,123.0,-1.0,89.0,-66.0,-126.0,127.0,-128.0,-107.0,-92.0,104.0
131.0,145.0,123.0,145.0,135.0,116.0,127.0,123.0,-1.0,90.0,-65.0,-126.0,127.0,-128.0,-107.0,-93.0,104.0
131.0,145.0,123.0,145.0,135.0,117.0,127.0,123.0,-1.0,90.0,-65.0,-126.0,127.0,-128.0,-107.0,-93.0,104.0
131.0,145.0,123.0,145.0,135.0,117.0,127.0,123.0,-1.0,90.0,-65.0,-126.0,127.0,-128.0,-107.0,-93.0,104.0
131.0,145.0,123.0,145.0,135.0,117.0,127.0,123.0,-1.0,90.0,-65.0,-126.0,127.0,-128.0,-107.0,-93.0,104.0
131.0,145.0,124.0,145.0,135.0,117.0,127.0,123.0,-1.0,90.0,-65.0,-126.0,127.0,-128.0,-107.0,-93.0,104.0
131.0,145.0,124.0,145.0,136.0,117.0,127.0,123.0,-1.0,90.0,-65.0,-126.0,127.0,-128.0,-107.0,-93.0,104.0
131.0,145.0,124.0,145.0,136.0,117.0,127.0,123.0,-1.0,90.0,-65.0,-126.0,127.0,-128.0,-107.0,-93.0,104.0
131.0,145.0,124.0,145.0,136.0,117.0,127.0,123.0,-1.0,90.0,-65.0,-126.0,127.0,-128.0,-107.0,-93.0,104.0
131.0,145.0,122.0,145.0,135.0,116.0,127.0,123.0,-1.0,90.0,-65.0,-126.0,127.0,-128.0,-107.0,-93.0,104.0
131.0,145.0,122.0,145.0,135.0,116.0,127.0,123.0,-1.0,90.0,-65.0,-126.0,127.0,-128.0,-107.0,-93.0,104.0
131.0,147.0,127.0,141.0,136.0,117.0,126.0,127.0,-1.0,91.0,-64.0,-126.0,127.0,-128.0,-107.0,-93.0,104.0
131.0,147.0,127.0,141.0,136.0,118.0,126.0,127.0,-1.0,91.0,-64.0,-126.0,127.0,-128.0,-107.0,-93.0,104.0
131.0,147.0,127.0,141.0,135.0,118.0,126.0,127.0,-1.0,91.0,-64.0,-126.0,127.0,-128.0,-107.0,-93.0,104.0
131.0,147.0,127.0,141.0,135.0,118.0,126.0,127.0,-1.0,91.0,-64.0,-126.0,127.0,-128.0,-107.0,-93.0,104.0
131.0,147.0,127.0,140.0,135.0,118.0,126.0,127.0,-1.0,91.0,-64.0,-126.0,127.0,-128.0,-107.0,-93.0,104.0
131.0,147.0,127.0,140.0,135.0,118.0,126.0,127.0,-1.0,91.0,-64.0,-126.0,127.0,-128.0,-107.0,-93.0,104.0
131.0,147.0,127.0,140.0,135.0,117.0,127.0,127.0,-1.0,91.0,-64.0,-126.0,127.0,-128.0,-107.0,-93.0,104.0
131.0,147.0,127.0,142.0,137.0,117.0,127.0,127.0,-1.0,91.0,-64.0,-126.0,127.0,-128.0,-107.0,-93.0,104.0
131.0,147.0,127.0,141.0,137.0,117.0,127.0,127.0,-1.0,91.0,-64.0,-126.0,127.0,-128.0,-107.0,-93.0,104.0
131.0,147.0,127.0,141.0,136.0,117.0,127.0,127.0,-1.0,91.0,-64.0,-126.0,127.0,-128.0,-107.0,-93.0,104.0
130.0,145.0,114.0,124.0,128.0,115.0,127.0,128.0,-1.0,93.0,-63.0,-126.0,127.0,-128.0,-107.0,-93.0,105.0
130.0,145.0,114.0,124.0,128.0,115.0,127.0,127.0,-1.0,93.0,-63.0,-126.0,127.0,-128.0,-107.0,-93.0,105.0
130.0,145.0,114.0,124.0,127.0,115.0,127.0,127.0,-1.0,93.0,-63.0,-126.0,127.0,-128.0,-107.0,-93.0,105.0
130.0,145.0,113.0,124.0,127.0,116.0,126.0,127.0,-1.0,93.0,-63.0,-126.0,127.0,-128.0,-107.0,-93.0,105.0
130.0,145.0,113.0,124.0,127.0,116.0,126.0,128.0,-1.0,93.0,-63.0,-126.0,127.0,-128.0,-107.0,-93.0,105.0
130.0,144.0,113.0,123.0,127.0,116.0,127.0,127.0,-1.0,93.0,-63.0,-126.0,127.0,-128.0,-107.0,-93.0,105.0
130.0,145.0,114.0,125.0,128.0,115.0,127.0,128.0,-1.0,93.0,-63.0,-126.0,127.0,-128.0,-107.0,-93.0,105.0
130.0,145.0,114.0,125.0,128.0,115.0,127.0,128.0,-1.0,93.0,-63.0,-126.0,127.0,-128.0,-107.0,-93.0,105.0
130.0,145.0,114.0,125.0,128.0,115.0,127.0,128.0,-1.0,93.0,-63.0,-126.0,127.0,-128.0,-107.0,-93.0,105.0
130.0,145.0,114.0,125.0,128.0,115.0,127.0,127.0,-1.0,93.0,-63.0,-126.0,127.0,-128.0,-107.0,-93.0,105.0
130.0,142.0,121.0,119.0,121.0,115.0,125.0,125.0,-1.0,94.0,-62.0,-126.0,127.0,-128.0,-107.0,-93.0,105.0
130.0,143.0,121.0,119.0,121.0,114.0,125.0,125.0,-1.0,94.0,-62.0,-126.0,127.0,-128.0,-107.0,-93.0,105.0
130.0,142.0,121.0,119.0,121.0,114.0,125.0,125.0,-1.0,94.0,-62.0,-126.0,127.0,-128.0,-107.0,-93.0,105.0
130.0,142.0,121.0,119.0,121.0,114.0,125.0,125.0,-1.0,94.0,-62.0,-126.0,127.0,-128.0,-107.0,-93.0,105.0
130.0,142.0,121.0,119.0,121.0,114.0,125.0,125.0,-1.0,94.0,-62.0,-126.0,127.0,-128.0,-107.0,-93.0,105.0
130.0,142.0,120.0,119.0,121.0,115.0,126.0,125.0,-1.0,94.0,-62.0,-126.0,127.0,-128.0,-107.0,-93.0,105.0
130.0,143.0,120.0,119.0,120.0,115.0,125.0,125.0,-1.0,94.0,-62.0,-126.0,127.0,-128.0,-107.0,-93.0,105.0
130.0,143.0,120.0,119.0,120.0,115.0,125.0,125.0,-1.0,94.0,-62.0,-126.0,127.0,-128.0,-107.0,-93.0,105.0
130.0,142.0,121.0,119.0,121.0,115.0,125.0,125.0,-1.0,94.0,-62.0,-126.0,127.0,-128.0,-107.0,-93.0,105.0
130.0,142.0,121.0,119.0,121.0,115.0,125.0,125.0,-1.0,94.0,-62.0,-126.0,127.0,-128.0,-107.0,-93.0,105.0
131.0,143.0,126.0,128.0,122.0,117.0,128.0,125.0,-1.0,95.0,-61.0,-126.0,127.0,-128.0,-107.0,-94.0,105.0
131.0,143.0,127.0,128.0,123.0,117.0,128.0,125.0,-1.0,95.0,-61.0,-126.0,127.0,-128.0,-107.0,-94.0,105.0
131.0,143.0,127.0,128.0,123.0,117.0,128.0,125.0,-1.0,95.0,-61.0,-126.0,127.0,-128.0,-107.0,-94.0,105.0
131.0,143.0,127.0,129.0,123.0,117.0,128.0,125.0,-1.0,95.0,-61.0,-126.0,127.0,-128.0,-107.0,-94.0,105.0
131.0,143.0,125.0,125.0,121.0,116.0,128.0,124.0,-1.0,95.0,-61.0,-126.0,127.0,-128.0,-107.0,-94.0,105.0
131.0,143.0,125.0,126.0,121.0,117.0,127.0,125.0,-1.0,95.0,-61.0,-126.0,127.0,-128.0,-107.0,-94.0,105.0
131.0,143.0,125.0,126.0,121.0,117.0,127.0,125.0,-1.0,95.0,-61.0,-126.0,127.0,-128.0,-107.0,-94.0,105.0
131.0,143.0,126.0,127.0,122.0,117.0,127.0,125.0,-1.0,95.0,-61.0,-126.0,127.0,-128.0,-107.0,-94.0,105.0
131.0,143.0,126.0,127.0,122.0,117.0,128.0,125.0,-1.0,95.0,-61.0,-126.0,127.0,-128.0,-107.0,-94.0,105.0
131.0,143.0,126.0,127.0,122.0,117.0,128.0,125.0,-1.0,95.0,-61.0,-126.0,127.0,-128.0,-107.0,-94.0,105.0
131.0,143.0,132.0,140.0,123.0,117.0,126.0,126.0,-1.0,96.0,-60.0,-127.0,126.0,-128.0,-108.0,-94.0,105.0
131.0,143.0,132.0,140.0,123.0,117.0,126.0,126.0,-1.0,96.0,-60.0,-127.0,126.0,-128.0,-108.0,-94.0,105.0
131.0,143.0,131.0,140.0,123.0,117.0,126.0,125.0,-1.0,96.0,-60.0,-127.0,126.0,-128.0,-108.0,-94.0,105.0
131.0,143.0,133.0,140.0,124.0,117.0,125.0,126.0,-1.0,96.0,-60.0,-127.0,126.0,-128.0,-108.0,-94.0,105.0
131.0,144.0,132.0,140.0,123.0,118.0,125.0,126.0,-1.0,96.0,-60.0,-127.0,126.0,-128.0,-108.0,-94.0,105.0
132.0,144.0,132.0,140.0,123.0,118.0,125.0,126.0,-1.0,96.0,-60.0,-127.0,126.0,-128.0,-108.0,-94.0,105.0
132.0,144.0,132.0,140.0,123.0,118.0,125.0,126.0,-1.0,96.0,-60.0,-127.0,126.0,-128.0,-108.0,-94.0,105.0
132.0,144.0,132.0,140.0,123.0,118.0,125.0,126.0,-1.0,96.0,-60.0,-127.0,126.0,-128.0,-108.0,-94.0,105.0
131.0,144.0,132.0,140.0,123.0,118.0,125.0,126.0,-1.0,96.0,-60.0,-127.0,126.0,-128.0,-108.0,-94.0,105.0
131.0,144.0,132.0,140.0,123.0,118.0,126.0,126.0,-1.0,96.0,-60.0,-127.0,126.0,-128.0,-108.0,-94.0,105.0
130.0,143.0,129.0,137.0,122.0,117.0,134.0,125.0,-1.0,96.0,-59.0,-127.0,126.0,-128.0,-108.0,-94.0,106.0
131.0,143.0,129.0,137.0,122.0,117.0,134.0,125.0,-1.0,96.0,-59.0,-127.0,126.0,-128.0,-108.0,-94.0,106.0
131.0,143.0,127.0,138.0,122.0,117.0,135.0,126.0,-1.0,96.0,-59.0,-127.0,126.0,-128.0,-108.0,-94.0,106.0
131.0,143.0,127.0,137.0,122.0,118.0,134.0,126.0,-1.0,96.0,-59.0,-127.0,126.0,-128.0,-108.0,-94.0,106.0
131.0,143.0,127.0,137.0,122.0,118.0,134.0,126.0,-1.0,96.0,-59.0,-127.0,126.0,-128.0,-108.0,-94.0,106.0
131.0,143.0,128.0,137.0,122.0,118.0,134.0,126.0,-1.0,96.0,-59.0,-127.0,126.0,-128.0,-108.0,-94.0,106.0
131.0,143.0,128.0,137.0,122.0,118.0,134.0,126.0,-1.0,96.0,-59.0,-127.0,126.0,-128.0,-108.0,-94.0,106.0
131.0,143.0,128.0,137.0,122.0,117.0,134.0,125.0,-1.0,96.0,-59.0,-127.0,126.0,-128.0,-108.0,-94.0,106.0
131.0,143.0,128.0,137.0,122.0,117.0,134.0,125.0,-1.0,96.0,-59.0,-127.0,126.0,-128.0,-108.0,-94.0,106.0
131.0,143.0,129.0,137.0,122.0,117.0,134.0,125.0,-1.0,96.0,-59.0,-127.0,126.0,-128.0,-108.0,-94.0,106.0
130.0,146.0,123.0,131.0,128.0,117.0,134.0,125.0,-1.0,97.0,-58.0,-127.0,126.0,-128.0,-108.0,-94.0,106.0
130.0,146.0,126.0,132.0,126.0,117.0,135.0,125.0,-1.0,97.0,-58.0,-127.0,126.0,-128.0,-108.0,-94.0,106.0
130.0,146.0,125.0,131.0,126.0,117.0,134.0,126.0,-1.0,97.0,-58.0,-127.0,126.0,-128.0,-108.0,-94.0,106.0
130.0,146.0,125.0,131.0,126.0,118.0,134.0,126.0,-1.0,97.0,-58.0,-127.0,126.0,-128.0,-108.0,-94.0,106.0
130.0,146.0,125.0,131.0,127.0,118.0,134.0,126.0,-1.0,97.0,-58.0,-127.0,126.0,-128.0,-108.0,-94.0,106.0
130.0,146.0,125.0,131.0,127.0,117.0,134.0,126.0,-1.0,97.0,-58.0,-127.0,126.0,-128.0,-108.0,-94.0,106.0
130.0,146.0,124.0,131.0,127.0,117.0,134.0,125.0,-1.0,97.0,-58.0,-127.0,126.0,-128.0,-108.0,-94.0,106.0
130.0,146.0,124.0,131.0,127.0,117.0,134.0,126.0,-1.0,97.0,-58.0,-127.0,126.0,-128.0,-108.0,-94.0,106.0
130.0,146.0,124.0,131.0,127.0,117.0,134.0,126.0,-1.0,97.0,-58.0,-127.0,126.0,-128.0,-108.0,-94.0,106.0
130.0,146.0,124.0,131.0,127.0,117.0,134.0,125.0,-1.0,97.0,-58.0,-127.0,126.0,-128.0,-108.0,-94.0,106.0
130.0,147.0,123.0,135.0,129.0,117.0,132.0,125.0,-1.0,97.0,-57.0,-127.0,126.0,-128.0,-109.0,-94.0,106.0
130.0,147.0,123.0,135.0,129.0,118.0,132.0,125.0,-1.0,97.0,-57.0,-127.0,126.0,-128.0,-109.0,-94.0,106.0
130.0,148.0,124.0,135.0,129.0,118.0,132.0,125.0,-1.0,97.0,-57.0,-127.0,126.0,-128.0,-109.0,-94.0,106.0
130.0,147.0,124.0,136.0,129.0,118.0,132.0,125.0,-1.0,97.0,-57.0,-127.0,126.0,-128.0,-109.0,-94.0,106.0
130.0,147.0,124.0,136.0,129.0,118.0,132.0,125.0,-1.0,97.0,-57.0,-127.0,126.0,-128.0,-109.0,-94.0,106.0
129.0,147.0,125.0,136.0,130.0,118.0,132.0,125.0,-1.0,97.0,-57.0,-127.0,126.0,-128.0,-109.0,-94.0,106.0
129.0,147.0,125.0,136.0,130.0,118.0,132.0,125.0,-1.0,97.0,-57.0,-127.0,126.0,-128.0,-109.0,-94.0,106.0
129.0,147.0,125.0,136.0,130.0,118.0,132.0,125.0,-1.0,97.0,-57.0,-127.0,126.0,-128.0,-109.0,-94.0,106.0
129.0,147.0,126.0,137.0,130.0,117.0,132.0,125.0,-1.0,97.0,-57.0,-127.0,126.0,-128.0,-109.0,-94.0,106.0
129.0,147.0,126.0,137.0,130.0,117.0,132.0,125.0,-1.0,97.0,-57.0,-127.0,126.0,-128.0,-109.0,-94.0,106.0
129.0,148.0,134.0,137.0,132.0,118.0,132.0,124.0,-1.0,98.0,-57.0,-127.0,126.0,-128.0,-109.0,-94.0,106.0
129.0,148.0,134.0,137.0,132.0,119.0,131.0,124.0,-1.0,98.0,-57.0,-127.0,126.0,-128.0,-109.0,-94.0,106.0
129.0,148.0,134.0,137.0,132.0,119.0,131.0,124.0,-1.0,98.0,-57.0,-127.0,126.0,-128.0,-109.0,-94.0,106.0
129.0,148.0,134.0,137.0,132.0,118.0,131.0,124.0,-1.0,98.0,-57.0,-127.0,126.0,-128.0,-109.0,-94.0,106.0
129.0,148.0,134.0,137.0,132.0,118.0,131.0,124.0,-1.0,98.0,-57.0,-127.0,126.0,-128.0,-109.0,-94.0,106.0
129.0,148.0,134.0,137.0,132.0,119.0,131.0,124.0,-1.0,98.0,-57.0,-127.0,126.0,-128.0,-109.0,-94.0,106.0
129.0,148.0,134.0,137.0,132.0,119.0,132.0,124.0,-1.0,98.0,-57.0,-127.0,126.0,-128.0,-109.0,-94.0,106.0
129.0,148.0,134.0,137.0,133.0,118.0,132.0,124.0,-1.0,98.0,-57.0,-127.0,126.0,-128.0,-109.0,-94.0,106.0
129.0,148.0,134.0,137.0,133.0,118.0,132.0,124.0,-1.0,98.0,-57.0,-127.0,126.0,-128.0,-109.0,-94.0,106.0
129.0,148.0,134.0,137.0,132.0,118.0,132.0,124.0,-1.0,98.0,-57.0,-127.0,126.0,-128.0,-109.0,-94.0,106.0
130.0,148.0,129.0,137.0,134.0,119.0,133.0,124.0,-1.0,98.0,-56.0,-127.0,126.0,-128.0,-110.0,-94.0,106.0
130.0,148.0,129.0,137.0,134.0,119.0,133.0,124.0,-1.0,98.0,-56.0,-127.0,126.0,-128.0,-110.0,-94.0,106.0
130.0,148.0,129.0,137.0,134.0,119.0,132.0,124.0,-1.0,98.0,-56.0,-127.0,126.0,-128.0,-110.0,-94.0,106.0
130.0,148.0,128.0,137.0,134.0,120.0,132.0,124.0,-1.0,98.0,-56.0,-127.0,126.0,-128.0,-110.0,-94.0,106.0
130.0,148.0,128.0,137.0,134.0,120.0,132.0,124.0,-1.0,98.0,-56.0,-127.0,126.0,-128.0,-110.0,-94.0,106.0
130.0,148.0,128.0,137.0,134.0,120.0,132.0,124.0,-1.0,98.0,-56.0,-127.0,126.0,-128.0,-110.0,-94.0,106.0
130.0,148.0,128.0,137.0,134.0,120.0,132.0,124.0,-1.0,98.0,-56.0,-127.0,126.0,-128.0,-110.0,-94.0,106.0
130.0,148.0,128.0,137.0,134.0,120.0,132.0,124.0,-1.0,98.0,-56.0,-127.0,126.0,-128.0,-110.0,-94.0,106.0
130.0,148.0,129.0,137.0,134.0,119.0,133.0,124.0,-1.0,98.0,-56.0,-127.0,126.0,-128.0,-110.0,-94.0,106.0
130.0,148.0,129.0,137.0,134.0,119.0,133.0,124.0,-1.0,98.0,-56.0,-127.0,126.0,-128.0,-110.0,-94.0,106.0
129.0,147.0,124.0,138.0,131.0,121.0,129.0,124.0,-1.0,98.0,-56.0,-127.0,126.0,-128.0,-110.0,-94.0,106.0
129.0,147.0,124.0,138.0,131.0,121.0,129.0,124.0,-1.0,98.0,-56.0,-127.0,126.0,-128.0,-110.0,-94.0,106.0
129.0,147.0,125.0,138.0,131.0,121.0,129.0,124.0,-1.0,98.0,-56.0,-127.0,126.0,-128.0,-110.0,-94.0,106.0
129.0,147.0,124.0,138.0,131.0,121.0,129.0,124.0,-1.0,98.0,-56.0,-127.0,126.0,-128.0,-110.0,-94.0,106.0
129.0,147.0,125.0,138.0,131.0,121.0,129.0,124.0,-1.0,98.0,-56.0,-127.0,126.0,-128.0,-110.0,-94.0,106.0
129.0,147.0,125.0,138.0,131.0,121.0,129.0,124.0,-1.0,98.0,-56.0,-127.0,126.0,-128.0,-110.0,-94.0,106.0
128.0,147.0,125.0,138.0,131.0,121.0,129.0,124.0,-1.0,98.0,-56.0,-127.0,126.0,-128.0,-110.0,-94.0,106.0
129.0,148.0,124.0,138.0,131.0,121.0,129.0,124.0,-1.0,98.0,-56.0,-127.0,126.0,-128.0,-110.0,-94.0,106.0
129.0,148.0,124.0,138.0,131.0,121.0,129.0,124.0,-1.0,98.0,-56.0,-127.0,126.0,-128.0,-110.0,-94.0,106.0
129.0,148.0,124.0,138.0,131.0,121.0,129.0,124.0,-1.0,98.0,-56.0,-127.0,126.0,-128.0,-110.0,-94.0,106.0
128.0,145.0,126.0,139.0,127.0,122.0,125.0,124.0,-1.0,98.0,-56.0,-128.0,126.0,-128.0,-110.0,-94.0,106.0
128.0,145.0,126.0,139.0,127.0,122.0,125.0,124.0,-1.0,98.0,-56.0,-128.0,126.0,-128.0,-110.0,-94.0,106.0
128.0,145.0,126.0,139.0,127.0,122.0,125.0,124.0,-1.0,98.0,-56.0,-128.0,126.0,-128.0,-110.0,-94.0,106.0
128.0,144.0,126.0,139.0,127.0,122.0,125.0,124.0,-1.0,98.0,-56.0,-128.0,126.0,-128.0,-110.0,-94.0,106.0
128.0,144.0,126.0,139.0,127.0,122.0,125.0,124.0,-1.0,98.0,-56.0,-128.0,126.0,-128.0,-110.0,-94.0,106.0
128.0,144.0,126.0,139.0,127.0,121.0,125.0,124.0,-1.0,98.0,-56.0,-128.0,126.0,-128.0,-110.0,-94.0,106.0
128.0,145.0,126.0,139.0,127.0,122.0,125.0,125.0,-1.0,98.0,-56.0,-128.0,126.0,-128.0,-110.0,-94.0,106.0
128.0,145.0,126.0,139.0,127.0,122.0,125.0,124.0,-1.0,98.0,-56.0,-128.0,126.0,-128.0,-110.0,-94.0,106.0
128.0,145.0,126.0,139.0,127.0,122.0,125.0,124.0,-1.0,98.0,-56.0,-128.0,126.0,-128.0,-110.0,-94.0,106.0
128.0,145.0,126.0,139.0,127.0,122.0,125.0,124.0,-1.0,98.0,-56.0,-128.0,126.0,-128.0,-110.0,-94.0,106.0
129.0,143.0,125.0,134.0,126.0,123.0,123.0,124.0,-1.0,98.0,-56.0,-128.0,126.0,-128.0,-110.0,-94.0,106.0
129.0,143.0,125.0,134.0,127.0,123.0,123.0,124.0,-1.0,98.0,-56.0,-128.0,126.0,-128.0,-110.0,-94.0,106.0
129.0,143.0,124.0,133.0,127.0,123.0,123.0,123.0,-1.0,98.0,-56.0,-128.0,126.0,-128.0,-110.0,-94.0,106.0
129.0,143.0,125.0,133.0,127.0,123.0,123.0,123.0,-1.0,98.0,-56.0,-128.0,126.0,-128.0,-110.0,-94.0,106.0
129.0,143.0,124.0,133.0,127.0,123.0,123.0,123.0,-1.0,98.0,-56.0,-128.0,126.0,-128.0,-110.0,-94.0,106.0
129.0,143.0,125.0,134.0,126.0,124.0,123.0,124.0,-1.0,98.0,-56.0,-128.0,126.0,-128.0,-110.0,-94.0,106.0
129.0,143.0,125.0,134.0,126.0,124.0,123.0,124.0,-1.0,98.0,-56.0,-128.0,126.0,-128.0,-110.0,-94.0,106.0
129.0,143.0,125.0,134.0,126.0,124.0,123.0,124.0,-1.0,98.0,-56.0,-128.0,126.0,-128.0,-110.0,-94.0,106.0
129.0,143.0,124.0,134.0,126.0,124.0,123.0,124.0,-1.0,98.0,-56.0,-128.0,126.0,-128.0,-110.0,-94.0,106.0
129.0,143.0,125.0,134.0,126.0,124.0,123.0,124.0,-1.0,98.0,-56.0,-128.0,126.0,-128.0,-110.0,-94.0,106.0
129.0,140.0,127.0,129.0,126.0,124.0,121.0,123.0,-1.0,98.0,-56.0,-128.0,126.0,127.0,-111.0,-94.0,106.0
129.0,140.0,127.0,129.0,126.0,124.0,121.0,123.0,-1.0,98.0,-56.0,-128.0,126.0,127.0,-111.0,-94.0,106.0
129.0,139.0,127.0,129.0,126.0,124.0,121.0,123.0,-1.0,98.0,-56.0,-128.0,126.0,127.0,-111.0,-94.0,106.0
129.0,139.0,127.0,129.0,126.0,124.0,121.0,123.0,-1.0,98.0,-56.0,-128.0,126.0,127.0,-111.0,-94.0,106.0
130.0,140.0,126.0,129.0,125.0,125.0,121.0,123.0,-1.0,98.0,-56.0,-128.0,126.0,127.0,-111.0,-94.0,106.0
130.0,140.0,126.0,129.0,125.0,125.0,121.0,123.0,-1.0,98.0,-56.0,-128.0,126.0,127.0,-111.0,-94.0,106.0
130.0,140.0,126.0,129.0,126.0,125.0,121.0,123.0,-1.0,98.0,-56.0,-128.0,126.0,127.0,-111.0,-94.0,106.0
130.0,140.0,126.0,129.0,126.0,125.0,121.0,123.0,-1.0,98.0,-56.0,-128.0,126.0,127.0,-111.0,-94.0,106.0
130.0,140.0,126.0,129.0,126.0,125.0,121.0,123.0,-1.0,98.0,-56.0,-128.0,126.0,127.0,-111.0,-94.0,106.0
129.0,140.0,127.0,129.0,126.0,125.0,121.0,123.0,-1.0,98.0,-56.0,-128.0,126.0,127.0,-111.0,-94.0,106.0
129.0,141.0,127.0,125.0,125.0,124.0,119.0,123.0,-1.0,97.0,-56.0,-128.0,126.0,127.0,-111.0,-94.0,106.0
129.0,141.0,127.0,125.0,125.0,124.0,119.0,123.0,-1.0,97.0,-56.0,-128.0,126.0,127.0,-111.0,-94.0,106.0
129.0,141.0,127.0,125.0,125.0,124.0,119.0,123.0,-1.0,97.0,-56.0,-128.0,126.0,127.0,-111.0,-94.0,106.0
129.0,141.0,127.0,126.0,124.0,124.0,120.0,123.0,-1.0,97.0,-56.0,-128.0,126.0,127.0,-111.0,-94.0,106.0
129.0,141.0,127.0,125.0,124.0,124.0,120.0,123.0,-1.0,97.0,-56.0,-128.0,126.0,127.0,-111.0,-94.0,106.0
129.0,141.0,127.0,125.0,125.0,124.0,120.0,123.0,-1.0,97.0,-56.0,-128.0,126.0,127.0,-111.0,-94.0,106.0
129.0,141.0,127.0,125.0,125.0,124.0,119.0,122.0,-1.0,97.0,-56.0,-128.0,126.0,127.0,-111.0,-94.0,106.0
129.0,141.0,127.0,125.0,125.0,124.0,119.0,123.0,-1.0,97.0,-56.0,-128.0,126.0,127.0,-111.0,-94.0,106.0
129.0,141.0,127.0,125.0,125.0,124.0,119.0,123.0,-1.0,97.0,-56.0,-128.0,126.0,127.0,-111.0,-94.0,106.0
129.0,141.0,127.0,125.0,125.0,124.0,119.0,123.0,-1.0,97.0,-56.0,-128.0,126.0,127.0,-111.0,-94.0,106.0
128.0,142.0,126.0,121.0,125.0,125.0,118.0,124.0,-1.0,98.0,-57.0,-128.0,126.0,127.0,-111.0,-94.0,106.0
128.0,142.0,126.0,121.0,125.0,125.0,118.0,124.0,-1.0,98.0,-57.0,-128.0,126.0,127.0,-111.0,-94.0,106.0
128.0,142.0,126.0,121.0,124.0,125.0,117.0,124.0,-1.0,98.0,-57.0,-128.0,126.0,127.0,-111.0,-94.0,106.0
128.0,142.0,126.0,121.0,124.0,125.0,117.0,124.0,-1.0,98.0,-57.0,-128.0,126.0,127.0,-111.0,-94.0,106.0
128.0,142.0,126.0,121.0,124.0,125.0,117.0,124.0,-1.0,98.0,-57.0,-128.0,126.0,127.0,-111.0,-94.0,106.0
128.0,142.0,126.0,121.0,124.0,125.0,117.0,124.0,-1.0,98.0,-57.0,-128.0,126.0,127.0,-111.0,-94.0,106.0
128.0,142.0,126.0,121.0,124.0,125.0,117.0,124.0,-1.0,98.0,-57.0,-128.0,126.0,127.0,-111.0,-94.0,106.0
128.0,142.0,126.0,121.0,124.0,125.0,118.0,124.0,-1.0,98.0,-57.0,-128.0,126.0,127.0,-111.0,-94.0,106.0
128.0,142.0,126.0,121.0,125.0,125.0,118.0,124.0,-1.0,98.0,-57.0,-128.0,126.0,127.0,-111.0,-94.0,106.0
128.0,142.0,126.0,121.0,125.0,125.0,118.0,124.0,-1.0,98.0,-57.0,-128.0,126.0,127.0,-111.0,-94.0,106.0
127.0,143.0,125.0,121.0,125.0,124.0,119.0,124.0,-1.0,98.0,-57.0,-128.0,126.0,127.0,-112.0,-94.0,106.0
127.0,143.0,125.0,120.0,124.0,124.0,118.0,124.0,-1.0,98.0,-57.0,-128.0,126.0,127.0,-112.0,-94.0,106.0
127.0,143.0,125.0,120.0,124.0,124.0,118.0,123.0,-1.0,98.0,-57.0,-128.0,126.0,127.0,-112.0,-94.0,106.0
127.0,143.0,125.0,121.0,124.0,124.0,118.0,123.0,-1.0,98.0,-57.0,-128.0,126.0,127.0,-112.0,-94.0,106.0
127.0,143.0,125.0,121.0,124.0,124.0,118.0,123.0,-1.0,98.0,-57.0,-128.0,126.0,127.0,-112.0,-94.0,106.0
127.0,143.0,125.0,121.0,124.0,124.0,118.0,123.0,-1.0,98.0,-57.0,-128.0,126.0,127.0,-112.0,-94.0,106.0
127.0,143.0,125.0,121.0,124.0,124.0,118.0,124.0,-1.0,98.0,-57.0,-128.0,126.0,127.0,-112.0,-94.0,106.0
127.0,143.0,125.0,121.0,125.0,124.0,118.0,124.0,-1.0,98.0,-57.0,-128.0,126.0,127.0,-112.0,-94.0,106.0
127.0,143.0,125.0,121.0,125.0,124.0,118.0,123.0,-1.0,98.0,-57.0,-128.0,126.0,127.0,-112.0,-94.0,106.0
127.0,143.0,125.0,121.0,125.0,124.0,119.0,124.0,-1.0,98.0,-57.0,-128.0,126.0,127.0,-112.0,-94.0,106.0
127.0,142.0,126.0,122.0,125.0,124.0,120.0,124.0,-1.0,98.0,-58.0,-128.0,126.0,127.0,-112.0,-94.0,106.0
127.0,142.0,126.0,122.0,125.0,124.0,120.0,124.0,-1.0,98.0,-58.0,-128.0,126.0,127.0,-112.0,-94.0,106.0
127.0,142.0,126.0,122.0,125.0,124.0,119.0,124.0,-1.0,98.0,-58.0,-128.0,126.0,127.0,-112.0,-94.0,106.0
127.0,142.0,126.0,122.0,125.0,125.0,119.0,124.0,-1.0,98.0,-58.0,-128.0,126.0,127.0,-112.0,-94.0,106.0
127.0,143.0,126.0,122.0,125.0,125.0,119.0,124.0,-1.0,98.0,-58.0,-128.0,126.0,127.0,-112.0,-94.0,106.0
127.0,142.0,126.0,122.0,125.0,125.0,119.0,124.0,-1.0,98.0,-58.0,-128.0,126.0,127.0,-112.0,-94.0,106.0
127.0,142.0,126.0,122.0,125.0,125.0,119.0,124.0,-1.0,98.0,-58.0,-128.0,126.0,127.0,-112.0,-94.0,106.0
127.0,142.0,126.0,122.0,125.0,125.0,119.0,124.0,-1.0,98.0,-58.0,-128.0,126.0,127.0,-112.0,-94.0,106.0
127.0,142.0,126.0,122.0,125.0,125.0,119.0,124.0,-1.0,98.0,-58.0,-128.0,126.0,127.0,-112.0,-94.0,106.0
127.0,142.0,126.0,122.0,125.0,126.0,118.0,124.0,-1.0,98.0,-58.0,-128.0,126.0,127.0,-112.0,-94.0,106.0
127.0,142.0,126.0,123.0,126.0,125.0,118.0,124.0,-1.0,99.0,-58.0,-128.0,126.0,127.0,-113.0,-94.0,106.0
127.0,142.0,126.0,123.0,126.0,125.0,118.0,124.0,-1.0,99.0,-58.0,-128.0,126.0,127.0,-113.0,-94.0,106.0
127.0,142.0,126.0,123.0,126.0,125.0,118.0,124.0,-1.0,99.0,-58.0,-128.0,126.0,127.0,-113.0,-94.0,106.0
127.0,142.0,126.0,123.0,126.0,125.0,118.0,124.0,-1.0,99.0,-58.0,-128.0,126.0,127.0,-113.0,-94.0,106.0
127.0,142.0,126.0,123.0,126.0,125.0,118.0,124.0,-1.0,99.0,-58.0,-128.0,126.0,127.0,-113.0,-94.0,106.0
127.0,142.0,126.0,123.0,126.0,125.0,118.0,124.0,-1.0,99.0,-58.0,-128.0,126.0,127.0,-113.0,-94.0,106.0
127.0,141.0,126.0,123.0,126.0,125.0,118.0,124.0,-1.0,99.0,-58.0,-128.0,126.0,127.0,-113.0,-94.0,106.0
127.0,142.0,126.0,123.0,126.0,125.0,118.0,124.0,-1.0,99.0,-58.0,-128.0,126.0,127.0,-113.0,-94.0,106.0
127.0,141.0,126.0,123.0,126.0,125.0,118.0,123.0,-1.0,99.0,-58.0,-128.0,126.0,127.0,-113.0,-94.0,106.0
127.0,142.0,126.0,123.0,126.0,125.0,118.0,124.0,-1.0,99.0,-58.0,-128.0,126.0,127.0,-113.0,-94.0,106.0
127.0,139.0,126.0,124.0,126.0,127.0,117.0,124.0,-1.0,99.0,-58.0,-128.0,126.0,127.0,-113.0,-94.0,106.0
127.0,139.0,126.0,124.0,126.0,126.0,118.0,124.0,-1.0,99.0,-58.0,-128.0,126.0,127.0,-113.0,-94.0,106.0
127.0,138.0,126.0,124.0,126.0,126.0,118.0,124.0,-1.0,99.0,-58.0,-128.0,126.0,127.0,-113.0,-94.0,106.0
127.0,138.0,126.0,124.0,126.0,126.0,118.0,124.0,-1.0,99.0,-58.0,-128.0,126.0,127.0,-113.0,-94.0,106.0
127.0,138.0,126.0,124.0,126.0,126.0,118.0,124.0,-1.0,99.0,-58.0,-128.0,126.0,127.0,-113.0,-94.0,106.0
127.0,138.0,126.0,124.0,126.0,126.0,118.0,124.0,-1.0,99.0,-58.0,-128.0,126.0,127.0,-113.0,-94.0,106.0
127.0,138.0,126.0,124.0,126.0,126.0,118.0,124.0,-1.0,99.0,-58.0,-128.0,126.0,127.0,-113.0,-94.0,106.0
127.0,138.0,126.0,124.0,126.0,125.0,118.0,123.0,-1.0,99.0,-58.0,-128.0,126.0,127.0,-113.0,-94.0,106.0
127.0,139.0,125.0,124.0,125.0,126.0,118.0,124.0,-1.0,99.0,-58.0,-128.0,126.0,127.0,-113.0,-94.0,106.0
127.0,139.0,126.0,124.0,125.0,127.0,118.0,124.0,-1.0,99.0,-58.0,-128.0,126.0,127.0,-113.0,-94.0,106.0
127.0,136.0,126.0,124.0,126.0,127.0,121.0,123.0,-1.0,100.0,-58.0,-128.0,126.0,127.0,-113.0,-94.0,106.0
127.0,136.0,127.0,124.0,126.0,127.0,122.0,123.0,-1.0,100.0,-58.0,-128.0,126.0,127.0,-113.0,-94.0,106.0
127.0,136.0,127.0,124.0,126.0,127.0,122.0,123.0,-1.0,100.0,-58.0,-128.0,126.0,127.0,-113.0,-94.0,106.0
127.0,136.0,127.0,124.0,126.0,127.0,122.0,123.0,-1.0,100.0,-58.0,-128.0,126.0,127.0,-113.0,-94.0,106.0
127.0,136.0,127.0,124.0,126.0,126.0,122.0,123.0,-1.0,100.0,-58.0,-128.0,126.0,127.0,-113.0,-94.0,106.0
127.0,136.0,127.0,124.0,126.0,127.0,122.0,123.0,-1.0,100.0,-58.0,-128.0,126.0,127.0,-113.0,-94.0,106.0
127.0,136.0,127.0,124.0,126.0,126.0,122.0,123.0,-1.0,100.0,-58.0,-128.0,126.0,127.0,-113.0,-94.0,106.0
127.0,136.0,126.0,124.0,126.0,127.0,122.0,123.0,-1.0,100.0,-58.0,-128.0,126.0,127.0,-113.0,-94.0,106.0
127.0,136.0,126.0,124.0,126.0,127.0,121.0,123.0,-1.0,100.0,-58.0,-128.0,126.0,127.0,-113.0,-94.0,106.0
127.0,136.0,126.0,124.0,126.0,127.0,121.0,123.0,-1.0,100.0,-58.0,-128.0,126.0,127.0,-113.0,-94.0,106.0
127.0,136.0,127.0,124.0,126.0,127.0,125.0,123.0,-1.0,100.0,-58.0,-128.0,126.0,127.0,-113.0,-94.0,106.0
127.0,136.0,127.0,124.0,126.0,127.0,125.0,123.0,-1.0,100.0,-58.0,-128.0,126.0,127.0,-113.0,-94.0,106.0
127.0,136.0,127.0,124.0,126.0,127.0,125.0,123.0,-1.0,100.0,-58.0,-128.0,126.0,127.0,-113.0,-94.0,106.0
127.0,136.0,127.0,124.0,126.0,127.0,125.0,123.0,-1.0,100.0,-58.0,-128.0,126.0,127.0,-113.0,-94.0,106.0
127.0,136.0,127.0,124.0,126.0,127.0,125.0,123.0,-1.0,100.0,-58.0,-128.0,126.0,127.0,-113.0,-94.0,106.0
126.0,136.0,127.0,124.0,126.0,127.0,125.0,123.0,-1.0,100.0,-58.0,-128.0,126.0,127.0,-113.0,-94.0,106.0
127.0,136.0,127.0,124.0,126.0,126.0,125.0,123.0,-1.0,100.0,-58.0,-128.0,126.0,127.0,-113.0,-94.0,106.0
127.0,136.0,126.0,124.0,125.0,127.0,124.0,123.0,-1.0,100.0,-58.0,-128.0,126.0,127.0,-113.0,-94.0,106.0
127.0,136.0,127.0,124.0,125.0,127.0,124.0,123.0,-1.0,100.0,-58.0,-128.0,126.0,127.0,-113.0,-94.0,106.0
127.0,136.0,127.0,124.0,126.0,127.0,124.0,123.0,-1.0,100.0,-58.0,-128.0,126.0,127.0,-113.0,-94.0,106.0
126.0,137.0,127.0,124.0,126.0,127.0,128.0,122.0,-1.0,100.0,-59.0,-128.0,126.0,127.0,-113.0,-94.0,106.0
126.0,137.0,127.0,124.0,126.0,127.0,128.0,122.0,-1.0,100.0,-59.0,-128.0,126.0,127.0,-113.0,-94.0,106.0
126.0,137.0,127.0,124.0,127.0,127.0,128.0,122.0,-1.0,100.0,-59.0,-128.0,126.0,127.0,-113.0,-94.0,106.0
126.0,137.0,127.0,124.0,127.0,127.0,128.0,122.0,-1.0,100.0,-59.0,-128.0,126.0,127.0,-113.0,-94.0,106.0
126.0,137.0,127.0,124.0,127.0,127.0,129.0,122.0,-1.0,100.0,-59.0,-128.0,126.0,127.0,-113.0,-94.0,106.0
126.0,137.0,127.0,123.0,126.0,126.0,129.0,122.0,-1.0,100.0,-59.0,-128.0,126.0,127.0,-113.0,-94.0,106.0
126.0,137.0,127.0,123.0,126.0,127.0,129.0,122.0,-1.0,100.0,-59.0,-128.0,126.0,127.0,-113.0,-94.0,106.0
126.0,137.0,127.0,124.0,126.0,127.0,128.0,122.0,-1.0,100.0,-59.0,-128.0,126.0,127.0,-113.0,-94.0,106.0
126.0,137.0,127.0,124.0,126.0,127.0,128.0,122.0,-1.0,100.0,-59.0,-128.0,126.0,127.0,-113.0,-94.0,106.0
126.0,137.0,127.0,124.0,126.0,127.0,128.0,122.0,-1.0,100.0,-59.0,-128.0,126.0,127.0,-113.0,-94.0,106.0
126.0,137.0,127.0,124.0,126.0,127.0,130.0,123.0,-1.0,101.0,-59.0,127.0,126.0,127.0,-114.0,-94.0,106.0
126.0,137.0,127.0,124.0,127.0,127.0,130.0,123.0,-1.0,101.0,-59.0,127.0,126.0,127.0,-114.0,-94.0,106.0
126.0,137.0,127.0,124.0,127.0,127.0,130.0,123.0,-1.0,101.0,-59.0,127.0,126.0,127.0,-114.0,-94.0,106.0
126.0,137.0,127.0,124.0,127.0,127.0,130.0,123.0,-1.0,101.0,-59.0,127.0,126.0,127.0,-114.0,-94.0,106.0
126.0,137.0,127.0,124.0,127.0,127.0,131.0,123.0,-1.0,101.0,-59.0,127.0,126.0,127.0,-114.0,-94.0,106.0
127.0,137.0,126.0,124.0,126.0,127.0,130.0,123.0,-1.0,101.0,-59.0,127.0,126.0,127.0,-114.0,-94.0,106.0
127.0,137.0,126.0,124.0,126.0,128.0,130.0,123.0,-1.0,101.0,-59.0,127.0,126.0,127.0,-114.0,-94.0,106.0
126.0,137.0,126.0,124.0,126.0,127.0,130.0,123.0,-1.0,101.0,-59.0,127.0,126.0,127.0,-114.0,-94.0,106.0
126.0,137.0,127.0,124.0,127.0,127.0,130.0,123.0,-1.0,101.0,-59.0,127.0,126.0,127.0,-114.0,-94.0,106.0
126.0,137.0,127.0,124.0,126.0,127.0,130.0,123.0,-1.0,101.0,-59.0,127.0,126.0,127.0,-114.0,-94.0,106.0
126.0,136.0,127.0,124.0,126.0,128.0,129.0,122.0,-1.0,101.0,-59.0,127.0,126.0,127.0,-114.0,-94.0,106.0
126.0,136.0,127.0,124.0,126.0,128.0,129.0,122.0,-1.0,101.0,-59.0,127.0,126.0,127.0,-114.0,-94.0,106.0
126.0,136.0,127.0,124.0,126.0,127.0,129.0,122.0,-1.0,101.0,-59.0,127.0,126.0,127.0,-114.0,-94.0,106.0
126.0,136.0,127.0,124.0,126.0,127.0,130.0,122.0,-1.0,101.0,-59.0,127.0,126.0,127.0,-114.0,-94.0,106.0
126.0,137.0,127.0,124.0,126.0,128.0,129.0,123.0,-1.0,101.0,-59.0,127.0,126.0,127.0,-114.0,-94.0,106.0
126.0,137.0,127.0,124.0,126.0,128.0,129.0,123.0,-1.0,101.0,-59.0,127.0,126.0,127.0,-114.0,-94.0,106.0
126.0,137.0,127.0,124.0,126.0,128.0,129.0,123.0,-1.0,101.0,-59.0,127.0,126.0,127.0,-114.0,-94.0,106.0
126.0,136.0,127.0,124.0,126.0,128.0,129.0,122.0,-1.0,101.0,-59.0,127.0,126.0,127.0,-114.0,-94.0,106.0
126.0,136.0,127.0,124.0,126.0,128.0,129.0,122.0,-1.0,101.0,-59.0,127.0,126.0,127.0,-114.0,-94.0,106.0
126.0,136.0,127.0,124.0,126.0,128.0,129.0,122.0,-1.0,101.0,-59.0,127.0,126.0,127.0,-114.0,-94.0,106.0
127.0,136.0,127.0,124.0,127.0,127.0,128.0,122.0,-1.0,101.0,-59.0,127.0,126.0,127.0,-115.0,-94.0,106.0
127.0,136.0,127.0,124.0,127.0,126.0,129.0,122.0,-1.0,101.0,-59.0,127.0,126.0,127.0,-115.0,-94.0,106.0
127.0,136.0,127.0,124.0,127.0,126.0,129.0,122.0,-1.0,101.0,-59.0,127.0,126.0,127.0,-115.0,-94.0,106.0
127.0,136.0,127.0,124.0,127.0,126.0,129.0,122.0,-1.0,101.0,-59.0,127.0,126.0,127.0,-115.0,-94.0,106.0
127.0,136.0,127.0,124.0,127.0,126.0,129.0,122.0,-1.0,101.0,-59.0,127.0,126.0,127.0,-115.0,-94.0,106.0
127.0,136.0,127.0,124.0,127.0,126.0,129.0,122.0,-1.0,101.0,-59.0,127.0,126.0,127.0,-115.0,-94.0,106.0
127.0,136.0,127.0,124.0,126.0,127.0,128.0,122.0,-1.0,101.0,-59.0,127.0,126.0,127.0,-115.0,-94.0,106.0
127.0,136.0,127.0,124.0,126.0,127.0,128.0,122.0,-1.0,101.0,-59.0,127.0,126.0,127.0,-115.0,-94.0,106.0
127.0,136.0,127.0,124.0,126.0,127.0,128.0,122.0,-1.0,101.0,-59.0,127.0,126.0,127.0,-115.0,-94.0,106.0
127.0,136.0,127.0,124.0,127.0,127.0,128.0,122.0,-1.0,101.0,-59.0,127.0,126.0,127.0,-115.0,-94.0,106.0
127.0,136.0,127.0,124.0,126.0,128.0,128.0,122.0,-1.0,101.0,-59.0,127.0,126.0,127.0,-115.0,-94.0,106.0
127.0,136.0,127.0,124.0,126.0,128.0,128.0,122.0,-1.0,101.0,-59.0,127.0,126.0,127.0,-115.0,-94.0,106.0
127.0,136.0,127.0,124.0,126.0,128.0,127.0,122.0,-1.0,101.0,-59.0,127.0,126.0,127.0,-115.0,-94.0,106.0
127.0,135.0,127.0,124.0,127.0,128.0,127.0,122.0,-1.0,101.0,-59.0,127.0,126.0,127.0,-115.0,-94.0,106.0
127.0,135.0,127.0,124.0,127.0,128.0,127.0,122.0,-1.0,101.0,-59.0,127.0,126.0,127.0,-115.0,-94.0,106.0
127.0,135.0,127.0,124.0,127.0,127.0,127.0,122.0,-1.0,101.0,-59.0,127.0,126.0,127.0,-115.0,-94.0,106.0
127.0,135.0,127.0,124.0,127.0,127.0,128.0,122.0,-1.0,101.0,-59.0,127.0,126.0,127.0,-115.0,-94.0,106.0
126.0,135.0,127.0,124.0,127.0,127.0,128.0,122.0,-1.0,101.0,-59.0,127.0,126.0,127.0,-115.0,-94.0,106.0
126.0,135.0,127.0,124.0,127.0,127.0,128.0,122.0,-1.0,101.0,-59.0,127.0,126.0,127.0,-115.0,-94.0,106.0
126.0,135.0,127.0,124.0,127.0,127.0,128.0,121.0,-1.0,101.0,-59.0,127.0,126.0,127.0,-115.0,-94.0,106.0
127.0,135.0,127.0,124.0,126.0,128.0,129.0,121.0,-1.0,100.0,-59.0,127.0,127.0,127.0,-115.0,-94.0,106.0
126.0,135.0,127.0,124.0,126.0,128.0,128.0,121.0,-1.0,100.0,-59.0,127.0,127.0,127.0,-115.0,-94.0,106.0
127.0,135.0,127.0,124.0,126.0,129.0,128.0,121.0,-1.0,100.0,-59.0,127.0,127.0,127.0,-115.0,-94.0,106.0
127.0,135.0,127.0,124.0,126.0,128.0,128.0,121.0,-1.0,100.0,-59.0,127.0,127.0,127.0,-115.0,-94.0,106.0
126.0,135.0,127.0,124.0,126.0,128.0,128.0,121.0,-1.0,100.0,-59.0,127.0,127.0,127.0,-115.0,-94.0,106.0
127.0,135.0,127.0,124.0,126.0,128.0,129.0,121.0,-1.0,100.0,-59.0,127.0,127.0,127.0,-115.0,-94.0,106.0
127.0,135.0,127.0,124.0,126.0,128.0,129.0,121.0,-1.0,100.0,-59.0,127.0,127.0,127.0,-115.0,-94.0,106.0
126.0,135.0,127.0,124.0,126.0,128.0,129.0,121.0,-1.0,100.0,-59.0,127.0,127.0,127.0,-115.0,-94.0,106.0
126.0,135.0,127.0,124.0,126.0,128.0,129.0,121.0,-1.0,100.0,-59.0,127.0,127.0,127.0,-115.0,-94.0,106.0
127.0,135.0,127.0,124.0,126.0,128.0,129.0,121.0,-1.0,100.0,-59.0,127.0,127.0,127.0,-115.0,-94.0,106.0
127.0,135.0,126.0,124.0,126.0,128.0,129.0,121.0,-1.0,100.0,-60.0,127.0,127.0,127.0,-115.0,-94.0,106.0
127.0,135.0,127.0,124.0,126.0,128.0,129.0,121.0,-1.0,100.0,-60.0,127.0,127.0,127.0,-115.0,-94.0,106.0
127.0,135.0,127.0,124.0,126.0,128.0,129.0,121.0,-1.0,100.0,-60.0,127.0,127.0,127.0,-115.0,-94.0,106.0
127.0,135.0,127.0,124.0,126.0,128.0,129.0,121.0,-1.0,100.0,-60.0,127.0,127.0,127.0,-115.0,-94.0,106.0
127.0,135.0,126.0,125.0,126.0,128.0,128.0,121.0,-1.0,100.0,-60.0,127.0,127.0,127.0,-115.0,-94.0,106.0
127.0,135.0,126.0,125.0,126.0,128.0,128.0,121.0,-1.0,100.0,-60.0,127.0,127.0,127.0,-115.0,-94.0,106.0
127.0,135.0,126.0,125.0,126.0,128.0,128.0,122.0,-1.0,100.0,-60.0,127.0,127.0,127.0,-115.0,-94.0,106.0
127.0,135.0,127.0,125.0,127.0,128.0,128.0,122.0,-1.0,100.0,-60.0,127.0,127.0,127.0,-115.0,-94.0,106.0
127.0,135.0,126.0,124.0,126.0,128.0,129.0,121.0,-1.0,100.0,-60.0,127.0,127.0,127.0,-115.0,-94.0,106.0
127.0,135.0,126.0,124.0,126.0,128.0,129.0,121.0,-1.0,100.0,-60.0,127.0,127.0,127.0,-115.0,-94.0,106.0
127.0,135.0,126.0,125.0,126.0,128.0,129.0,122.0,-1.0,100.0,-60.0,127.0,127.0,127.0,-115.0,-94.0,106.0
127.0,135.0,126.0,125.0,126.0,128.0,129.0,122.0,-1.0,100.0,-60.0,127.0,127.0,127.0,-115.0,-94.0,106.0
127.0,135.0,126.0,125.0,126.0,128.0,128.0,122.0,-1.0,100.0,-60.0,127.0,127.0,127.0,-115.0,-94.0,106.0
127.0,135.0,126.0,125.0,126.0,128.0,128.0,122.0,-1.0,100.0,-60.0,127.0,127.0,127.0,-115.0,-94.0,106.0
127.0,135.0,126.0,125.0,126.0,128.0,128.0,122.0,-1.0,100.0,-60.0,127.0,127.0,127.0,-115.0,-94.0,106.0
127.0,135.0,126.0,125.0,126.0,128.0,128.0,122.0,-1.0,100.0,-60.0,127.0,127.0,127.0,-115.0,-94.0,106.0
127.0,135.0,126.0,125.0,126.0,129.0,127.0,122.0,-1.0,100.0,-60.0,127.0,127.0,127.0,-115.0,-94.0,106.0
127.0,135.0,126.0,125.0,126.0,128.0,129.0,122.0,-1.0,100.0,-60.0,127.0,127.0,127.0,-115.0,-94.0,106.0
127.0,135.0,126.0,125.0,126.0,128.0,129.0,122.0,-1.0,100.0,-60.0,127.0,127.0,127.0,-115.0,-94.0,106.0
127.0,135.0,126.0,125.0,126.0,128.0,129.0,122.0,-1.0,100.0,-60.0,127.0,127.0,127.0,-115.0,-94.0,106.0
127.0,134.0,127.0,126.0,126.0,128.0,128.0,122.0,-1.0,100.0,-60.0,127.0,127.0,127.0,-115.0,-94.0,106.0
127.0,134.0,127.0,126.0,126.0,128.0,128.0,122.0,-1.0,100.0,-60.0,127.0,127.0,127.0,-115.0,-94.0,106.0
127.0,134.0,127.0,126.0,126.0,127.0,128.0,122.0,-1.0,100.0,-60.0,127.0,127.0,127.0,-115.0,-94.0,106.0
127.0,134.0,127.0,126.0,126.0,127.0,128.0,122.0,-1.0,100.0,-60.0,127.0,127.0,127.0,-115.0,-94.0,106.0
127.0,134.0,127.0,126.0,126.0,127.0,128.0,122.0,-1.0,100.0,-60.0,127.0,127.0,127.0,-115.0,-94.0,106.0
127.0,134.0,127.0,126.0,126.0,128.0,128.0,122.0,-1.0,100.0,-60.0,127.0,127.0,127.0,-115.0,-94.0,106.0
127.0,134.0,127.0,125.0,126.0,127.0,129.0,122.0,-1.0,100.0,-60.0,127.0,127.0,127.0,-115.0,-94.0,106.0
127.0,134.0,127.0,125.0,126.0,127.0,129.0,122.0,-1.0,100.0,-60.0,127.0,127.0,127.0,-115.0,-94.0,106.0
127.0,134.0,127.0,125.0,126.0,127.0,129.0,122.0,-1.0,100.0,-60.0,127.0,127.0,127.0,-115.0,-94.0,106.0
127.0,134.0,126.0,125.0,126.0,127.0,128.0,122.0,-1.0,100.0,-60.0,127.0,127.0,127.0,-115.0,-94.0,106.0
127.0,134.0,127.0,126.0,126.0,128.0,127.0,122.0,-1.0,100.0,-60.0,127.0,127.0,127.0,-115.0,-94.0,106.0
127.0,134.0,127.0,126.0,126.0,127.0,127.0,122.0,-1.0,100.0,-60.0,127.0,127.0,127.0,-115.0,-94.0,106.0
127.0,134.0,127.0,126.0,126.0,127.0,127.0,122.0,-1.0,100.0,-60.0,127.0,127.0,127.0,-115.0,-94.0,106.0
127.0,134.0,127.0,126.0,126.0,127.0,127.0,122.0,-1.0,100.0,-60.0,127.0,127.0,127.0,-115.0,-94.0,106.0
127.0,134.0,127.0,126.0,127.0,127.0,127.0,122.0,-1.0,100.0,-60.0,127.0,127.0,127.0,-115.0,-94.0,106.0
127.0,134.0,127.0,126.0,126.0,128.0,127.0,122.0,-1.0,100.0,-60.0,127.0,127.0,127.0,-115.0,-94.0,106.0
127.0,134.0,127.0,126.0,126.0,128.0,127.0,122.0,-1.0,100.0,-60.0,127.0,127.0,127.0,-115.0,-94.0,106.0
127.0,134.0,127.0,126.0,126.0,128.0,127.0,122.0,-1.0,100.0,-60.0,127.0,127.0,127.0,-115.0,-94.0,106.0
127.0,134.0,127.0,126.0,126.0,128.0,127.0,122.0,-1.0,100.0,-60.0,127.0,127.0,127.0,-115.0,-94.0,106.0
127.0,134.0,127.0,126.0,126.0,128.0,127.0,122.0,-1.0,100.0,-60.0,127.0,127.0,127.0,-115.0,-94.0,106.0
127.0,134.0,128.0,126.0,127.0,128.0,127.0,122.0,-1.0,100.0,-60.0,127.0,127.0,127.0,-115.0,-94.0,106.0
127.0,134.0,128.0,126.0,127.0,128.0,127.0,122.0,-1.0,100.0,-60.0,127.0,127.0,127.0,-115.0,-94.0,106.0
127.0,134.0,128.0,126.0,127.0,128.0,126.0,122.0,-1.0,100.0,-60.0,127.0,127.0,127.0,-115.0,-94.0,106.0
127.0,134.0,128.0,126.0,127.0,128.0,127.0,122.0,-1.0,100.0,-60.0,127.0,127.0,127.0,-115.0,-94.0,106.0
127.0,134.0,128.0,126.0,127.0,128.0,127.0,122.0,-1.0,100.0,-60.0,127.0,127.0,127.0,-115.0,-94.0,106.0
127.0,135.0,127.0,126.0,126.0,128.0,126.0,122.0,-1.0,100.0,-60.0,127.0,127.0,127.0,-115.0,-94.0,106.0
127.0,135.0,127.0,126.0,126.0,128.0,126.0,122.0,-1.0,100.0,-60.0,127.0,127.0,127.0,-115.0,-94.0,106.0
127.0,134.0,128.0,126.0,127.0,128.0,126.0,123.0,-1.0,100.0,-60.0,127.0,127.0,127.0,-115.0,-94.0,106.0
127.0,134.0,128.0,126.0,127.0,128.0,127.0,122.0,-1.0,100.0,-60.0,127.0,127.0,127.0,-115.0,-94.0,106.0
127.0,134.0,128.0,126.0,127.0,128.0,126.0,123.0,-1.0,100.0,-60.0,127.0,127.0,127.0,-115.0,-94.0,106.0
127.0,134.0,127.0,125.0,126.0,128.0,125.0,122.0,-1.0,100.0,-60.0,127.0,127.0,127.0,-115.0,-94.0,106.0
127.0,134.0,127.0,125.0,126.0,128.0,125.0,123.0,-1.0,100.0,-60.0,127.0,127.0,127.0,-115.0,-94.0,106.0
127.0,134.0,127.0,126.0,126.0,128.0,125.0,123.0,-1.0,100.0,-60.0,127.0,127.0,127.0,-115.0,-94.0,106.0
127.0,134.0,127.0,125.0,126.0,127.0,126.0,122.0,-1.0,100.0,-60.0,127.0,127.0,127.0,-115.0,-94.0,106.0
127.0,134.0,127.0,125.0,126.0,128.0,126.0,122.0,-1.0,100.0,-60.0,127.0,127.0,127.0,-115.0,-94.0,106.0
127.0,134.0,127.0,125.0,126.0,128.0,126.0,122.0,-1.0,100.0,-60.0,127.0,127.0,127.0,-115.0,-94.0,106.0
127.0,134.0,127.0,125.0,127.0,127.0,126.0,122.0,-1.0,100.0,-60.0,127.0,127.0,127.0,-115.0,-94.0,106.0
127.0,134.0,127.0,125.0,127.0,127.0,126.0,122.0,-1.0,100.0,-60.0,127.0,127.0,127.0,-115.0,-94.0,106.0
127.0,134.0,127.0,125.0,127.0,127.0,126.0,122.0,-1.0,100.0,-60.0,127.0,127.0,127.0,-115.0,-94.0,106.0
127.0,134.0,127.0,125.0,127.0,127.0,126.0,122.0,-1.0,100.0,-60.0,127.0,127.0,127.0,-115.0,-94.0,106.0
127.0,133.0,127.0,125.0,127.0,127.0,126.0,122.0,-1.0,100.0,-60.0,127.0,127.0,127.0,-115.0,-94.0,106.0
127.0,133.0,127.0,125.0,127.0,127.0,126.0,122.0,-1.0,100.0,-60.0,127.0,127.0,127.0,-115.0,-94.0,106.0
127.0,134.0,127.0,125.0,127.0,128.0,126.0,123.0,-1.0,100.0,-60.0,127.0,127.0,127.0,-115.0,-94.0,106.0
127.0,134.0,127.0,125.0,127.0,128.0,126.0,123.0,-1.0,100.0,-60.0,127.0,127.0,127.0,-115.0,-94.0,106.0
127.0,134.0,127.0,125.0,127.0,128.0,126.0,123.0,-1.0,100.0,-60.0,127.0,127.0,127.0,-115.0,-94.0,106.0
127.0,134.0,127.0,125.0,127.0,128.0,126.0,123.0,-1.0,100.0,-60.0,127.0,127.0,127.0,-115.0,-94.0,106.0
127.0,134.0,127.0,125.0,127.0,128.0,126.0,123.0,-1.0,100.0,-60.0,127.0,127.0,127.0,-115.0,-94.0,106.0
127.0,133.0,127.0,125.0,127.0,128.0,126.0,123.0,-1.0,100.0,-60.0,127.0,127.0,127.0,-115.0,-94.0,106.0
127.0,133.0,127.0,125.0,127.0,128.0,126.0,122.0,-1.0,100.0,-60.0,127.0,127.0,127.0,-115.0,-94.0,106.0
127.0,133.0,127.0,125.0,127.0,127.0,126.0,122.0,-1.0,100.0,-60.0,127.0,127.0,127.0,-115.0,-94.0,106.0
127.0,133.0,127.0,125.0,127.0,128.0,126.0,122.0,-1.0,100.0,-60.0,127.0,127.0,127.0,-115.0,-94.0,106.0
127.0,133.0,127.0,125.0,127.0,127.0,127.0,122.0,-1.0,100.0,-60.0,127.0,127.0,127.0,-115.0,-94.0,106.0
127.0,133.0,127.0,125.0,127.0,127.0,127.0,122.0,-1.0,100.0,-60.0,127.0,127.0,127.0,-115.0,-94.0,106.0
127.0,133.0,127.0,125.0,127.0,127.0,127.0,122.0,-1.0,100.0,-60.0,127.0,127.0,127.0,-115.0,-94.0,106.0
127.0,133.0,127.0,125.0,127.0,127.0,127.0,122.0,-1.0,100.0,-60.0,127.0,127.0,127.0,-115.0,-94.0,106.0
127.0,133.0,127.0,125.0,126.0,128.0,126.0,122.0,-1.0,100.0,-60.0,127.0,127.0,127.0,-115.0,-94.0,106.0
127.0,133.0,127.0,125.0,126.0,128.0,126.0,122.0,-1.0,100.0,-60.0,127.0,127.0,127.0,-115.0,-94.0,106.0
127.0,133.0,127.0,125.0,127.0,128.0,126.0,122.0,-1.0,100.0,-60.0,127.0,127.0,127.0,-115.0,-94.0,106.0
127.0,133.0,127.0,125.0,127.0,128.0,126.0,122.0,-1.0,100.0,-60.0,127.0,127.0,127.0,-115.0,-94.0,106.0
127.0,133.0,127.0,125.0,127.0,128.0,126.0,122.0,-1.0,100.0,-60.0,127.0,127.0,127.0,-115.0,-94.0,106.0
127.0,133.0,127.0,125.0,126.0,128.0,126.0,123.0,-1.0,101.0,-61.0,127.0,127.0,127.0,-115.0,-94.0,106.0
127.0,133.0,127.0,125.0,126.0,128.0,126.0,123.0,-1.0,101.0,-61.0,127.0,127.0,127.0,-115.0,-94.0,106.0
127.0,133.0,127.0,125.0,126.0,128.0,126.0,123.0,-1.0,101.0,-61.0,127.0,127.0,127.0,-115.0,-94.0,106.0
127.0,133.0,127.0,125.0,126.0,128.0,126.0,123.0,-1.0,101.0,-61.0,127.0,127.0,127.0,-115.0,-94.0,106.0
127.0,133.0,127.0,125.0,127.0,128.0,126.0,123.0,-1.0,101.0,-61.0,127.0,127.0,127.0,-115.0,-94.0,106.0
127.0,133.0,127.0,125.0,127.0,128.0,126.0,123.0,-1.0,101.0,-61.0,127.0,127.0,127.0,-115.0,-94.0,106.0
127.0,133.0,127.0,125.0,127.0,128.0,126.0,123.0,-1.0,101.0,-61.0,127.0,127.0,127.0,-115.0,-94.0,106.0
127.0,133.0,128.0,125.0,127.0,128.0,127.0,123.0,-1.0,101.0,-61.0,127.0,127.0,127.0,-115.0,-94.0,106.0
127.0,132.0,128.0,125.0,127.0,128.0,127.0,123.0,-1.0,101.0,-61.0,127.0,127.0,127.0,-115.0,-94.0,106.0
127.0,132.0,128.0,125.0,127.0,128.0,127.0,123.0,-1.0,101.0,-61.0,127.0,127.0,127.0,-115.0,-94.0,106.0
127.0,133.0,127.0,125.0,127.0,129.0,127.0,122.0,-1.0,101.0,-61.0,127.0,127.0,127.0,-116.0,-94.0,106.0
127.0,133.0,127.0,125.0,127.0,129.0,127.0,122.0,-1.0,101.0,-61.0,127.0,127.0,127.0,-116.0,-94.0,106.0
127.0,133.0,127.0,125.0,127.0,129.0,127.0,122.0,-1.0,101.0,-61.0,127.0,127.0,127.0,-116.0,-94.0,106.0
127.0,133.0,127.0,125.0,127.0,129.0,127.0,122.0,-1.0,101.0,-61.0,127.0,127.0,127.0,-116.0,-94.0,106.0
127.0,133.0,127.0,125.0,127.0,129.0,127.0,122.0,-1.0,101.0,-61.0,127.0,127.0,127.0,-116.0,-94.0,106.0
127.0,133.0,128.0,125.0,127.0,129.0,127.0,122.0,-1.0,101.0,-61.0,127.0,127.0,127.0,-116.0,-94.0,106.0
127.0,133.0,128.0,125.0,127.0,128.0,127.0,122.0,-1.0,101.0,-61.0,127.0,127.0,127.0,-116.0,-94.0,106.0
127.0,133.0,128.0,125.0,127.0,128.0,127.0,122.0,-1.0,101.0,-61.0,127.0,127.0,127.0,-116.0,-94.0,106.0
127.0,133.0,128.0,125.0,127.0,128.0,127.0,122.0,-1.0,101.0,-61.0,127.0,127.0,127.0,-116.0,-94.0,106.0
127.0,133.0,127.0,125.0,126.0,129.0,127.0,122.0,-1.0,101.0,-61.0,127.0,127.0,127.0,-116.0,-94.0,106.0
127.0,132.0,127.0,125.0,126.0,129.0,126.0,122.0,-1.0,101.0,-61.0,127.0,127.0,127.0,-116.0,-94.0,106.0
127.0,132.0,127.0,125.0,126.0,129.0,126.0,122.0,-1.0,101.0,-61.0,127.0,127.0,127.0,-116.0,-94.0,106.0
127.0,132.0,127.0,125.0,126.0,129.0,126.0,122.0,-1.0,101.0,-61.0,127.0,127.0,127.0,-116.0,-94.0,106.0
127.0,132.0,127.0,125.0,126.0,128.0,127.0,122.0,-1.0,101.0,-61.0,127.0,127.0,127.0,-116.0,-94.0,106.0
127.0,132.0,127.0,125.0,126.0,128.0,127.0,122.0,-1.0,101.0,-61.0,127.0,127.0,127.0,-116.0,-94.0,106.0
127.0,132.0,127.0,125.0,127.0,128.0,127.0,122.0,-1.0,101.0,-61.0,127.0,127.0,127.0,-116.0,-94.0,106.0
127.0,132.0,127.0,125.0,127.0,128.0,127.0,122.0,-1.0,101.0,-61.0,127.0,127.0,127.0,-116.0,-94.0,106.0
127.0,132.0,127.0,125.0,127.0,128.0,127.0,122.0,-1.0,101.0,-61.0,127.0,127.0,127.0,-116.0,-94.0,106.0
127.0,132.0,127.0,125.0,126.0,129.0,126.0,122.0,-1.0,101.0,-61.0,127.0,127.0,127.0,-116.0,-94.0,106.0
127.0,132.0,127.0,125.0,126.0,129.0,126.0,122.0,-1.0,101.0,-61.0,127.0,127.0,127.0,-116.0,-94.0,106.0
127.0,131.0,127.0,125.0,126.0,129.0,128.0,122.0,-1.0,101.0,-62.0,127.0,127.0,127.0,-116.0,-94.0,106.0
127.0,131.0,127.0,125.0,126.0,129.0,128.0,122.0,-1.0,101.0,-62.0,127.0,127.0,127.0,-116.0,-94.0,106.0
127.0,131.0,127.0,125.0,126.0,129.0,128.0,122.0,-1.0,101.0,-62.0,127.0,127.0,127.0,-116.0,-94.0,106.0
127.0,131.0,127.0,125.0,126.0,129.0,128.0,122.0,-1.0,101.0,-62.0,127.0,127.0,127.0,-116.0,-94.0,106.0
127.0,131.0,127.0,125.0,127.0,129.0,128.0,122.0,-1.0,101.0,-62.0,127.0,127.0,127.0,-116.0,-94.0,106.0
127.0,131.0,127.0,125.0,127.0,129.0,128.0,122.0,-1.0,101.0,-62.0,127.0,127.0,127.0,-116.0,-94.0,106.0
127.0,131.0,127.0,125.0,127.0,129.0,128.0,122.0,-1.0,101.0,-62.0,127.0,127.0,127.0,-116.0,-94.0,106.0
127.0,131.0,127.0,125.0,126.0,129.0,128.0,122.0,-1.0,101.0,-62.0,127.0,127.0,127.0,-116.0,-94.0,106.0
127.0,131.0,127.0,125.0,126.0,129.0,128.0,122.0,-1.0,101.0,-62.0,127.0,127.0,127.0,-116.0,-94.0,106.0
127.0,131.0,127.0,125.0,126.0,129.0,128.0,122.0,-1.0,101.0,-62.0,127.0,127.0,127.0,-116.0,-94.0,106.0
127.0,131.0,127.0,125.0,126.0,129.0,129.0,123.0,-1.0,101.0,-63.0,127.0,127.0,127.0,-116.0,-94.0,106.0
127.0,131.0,127.0,125.0,127.0,129.0,129.0,123.0,-1.0,101.0,-63.0,127.0,127.0,127.0,-116.0,-94.0,106.0
127.0,131.0,127.0,125.0,127.0,129.0,129.0,123.0,-1.0,101.0,-63.0,127.0,127.0,127.0,-116.0,-94.0,106.0
127.0,131.0,127.0,125.0,127.0,129.0,129.0,123.0,-1.0,101.0,-63.0,127.0,127.0,127.0,-116.0,-94.0,106.0
127.0,131.0,127.0,125.0,127.0,129.0,129.0,123.0,-1.0,101.0,-63.0,127.0,127.0,127.0,-116.0,-94.0,106.0
127.0,131.0,127.0,125.0,127.0,129.0,129.0,123.0,-1.0,101.0,-63.0,127.0,127.0,127.0,-116.0,-94.0,106.0
127.0,132.0,127.0,125.0,126.0,129.0,129.0,123.0,-1.0,101.0,-63.0,127.0,127.0,127.0,-116.0,-94.0,106.0
127.0,132.0,127.0,125.0,126.0,129.0,129.0,123.0,-1.0,101.0,-63.0,127.0,127.0,127.0,-116.0,-94.0,106.0
127.0,132.0,127.0,125.0,126.0,129.0,129.0,123.0,-1.0,101.0,-63.0,127.0,127.0,127.0,-116.0,-94.0,106.0
127.0,131.0,127.0,125.0,126.0,129.0,129.0,123.0,-1.0,101.0,-63.0,127.0,127.0,127.0,-116.0,-94.0,106.0
127.0,131.0,127.0,125.0,127.0,129.0,128.0,123.0,-1.0,101.0,-63.0,127.0,127.0,127.0,-116.0,-94.0,106.0
127.0,131.0,127.0,125.0,127.0,128.0,128.0,123.0,-1.0,101.0,-63.0,127.0,127.0,127.0,-116.0,-94.0,106.0
127.0,131.0,127.0,125.0,127.0,128.0,128.0,123.0,-1.0,101.0,-63.0,127.0,127.0,127.0,-116.0,-94.0,106.0
127.0,131.0,127.0,125.0,127.0,129.0,128.0,123.0,-1.0,101.0,-63.0,127.0,127.0,127.0,-116.0,-94.0,106.0
127.0,132.0,127.0,125.0,127.0,129.0,127.0,123.0,-1.0,101.0,-63.0,127.0,127.0,127.0,-116.0,-94.0,106.0
127.0,131.0,127.0,124.0,127.0,128.0,129.0,123.0,-1.0,101.0,-63.0,127.0,127.0,127.0,-116.0,-94.0,106.0
127.0,131.0,127.0,124.0,127.0,128.0,129.0,123.0,-1.0,101.0,-63.0,127.0,127.0,127.0,-116.0,-94.0,106.0
127.0,131.0,127.0,124.0,127.0,129.0,128.0,123.0,-1.0,101.0,-63.0,127.0,127.0,127.0,-116.0,-94.0,106.0
127.0,132.0,127.0,125.0,127.0,129.0,128.0,123.0,-1.0,101.0,-63.0,127.0,127.0,127.0,-116.0,-94.0,106.0
127.0,131.0,127.0,125.0,127.0,129.0,128.0,123.0,-1.0,101.0,-63.0,127.0,127.0,127.0,-116.0,-94.0,106.0
127.0,131.0,127.0,125.0,127.0,128.0,127.0,123.0,-1.0,101.0,-64.0,127.0,127.0,127.0,-116.0,-94.0,106.0
127.0,132.0,127.0,125.0,127.0,128.0,126.0,123.0,-1.0,101.0,-64.0,127.0,127.0,127.0,-116.0,-94.0,106.0
127.0,132.0,127.0,125.0,127.0,129.0,126.0,123.0,-1.0,101.0,-64.0,127.0,127.0,127.0,-116.0,-94.0,106.0
127.0,132.0,127.0,125.0,127.0,129.0,126.0,123.0,-1.0,101.0,-64.0,127.0,127.0,127.0,-116.0,-94.0,106.0
127.0,131.0,127.0,125.0,127.0,128.0,127.0,123.0,-1.0,101.0,-64.0,127.0,127.0,127.0,-116.0,-94.0,106.0
127.0,132.0,127.0,125.0,127.0,128.0,127.0,123.0,-1.0,101.0,-64.0,127.0,127.0,127.0,-116.0,-94.0,106.0
127.0,131.0,126.0,125.0,126.0,128.0,127.0,123.0,-1.0,101.0,-64.0,127.0,127.0,127.0,-116.0,-94.0,106.0
127.0,132.0,127.0,125.0,126.0,129.0,127.0,123.0,-1.0,101.0,-64.0,127.0,127.0,127.0,-116.0,-94.0,106.0
127.0,132.0,127.0,125.0,127.0,129.0,126.0,123.0,-1.0,101.0,-64.0,127.0,127.0,127.0,-116.0,-94.0,106.0
127.0,132.0,127.0,125.0,127.0,129.0,127.0,123.0,-1.0,101.0,-64.0,127.0,127.0,127.0,-116.0,-94.0,106.0
127.0,132.0,127.0,126.0,127.0,129.0,126.0,123.0,-1.0,101.0,-65.0,127.0,127.0,127.0,-116.0,-94.0,106.0
127.0,132.0,127.0,126.0,127.0,129.0,125.0,123.0,-1.0,101.0,-65.0,127.0,127.0,127.0,-116.0,-94.0,106.0
127.0,132.0,127.0,126.0,127.0,129.0,124.0,124.0,-1.0,101.0,-65.0,127.0,127.0,127.0,-116.0,-94.0,106.0
127.0,132.0,127.0,125.0,127.0,128.0,127.0,123.0,-1.0,101.0,-65.0,127.0,127.0,127.0,-116.0,-94.0,106.0
127.0,132.0,127.0,125.0,127.0,128.0,127.0,123.0,-1.0,101.0,-65.0,127.0,127.0,127.0,-116.0,-94.0,106.0
127.0,132.0,127.0,126.0,127.0,128.0,127.0,123.0,-1.0,101.0,-65.0,127.0,127.0,127.0,-116.0,-94.0,106.0
127.0,132.0,127.0,126.0,127.0,129.0,126.0,123.0,-1.0,101.0,-65.0,127.0,127.0,127.0,-116.0,-94.0,106.0
127.0,132.0,127.0,126.0,127.0,129.0,126.0,123.0,-1.0,101.0,-65.0,127.0,127.0,127.0,-116.0,-94.0,106.0
127.0,132.0,127.0,126.0,127.0,129.0,126.0,123.0,-1.0,101.0,-65.0,127.0,127.0,127.0,-116.0,-94.0,106.0
127.0,132.0,127.0,126.0,127.0,129.0,126.0,123.0,-1.0,101.0,-65.0,127.0,127.0,127.0,-116.0,-94.0,106.0
127.0,131.0,127.0,127.0,127.0,128.0,72.0,123.0,-1.0,101.0,-65.0,127.0,127.0,127.0,-116.0,-94.0,106.0
127.0,131.0,127.0,127.0,126.0,129.0,72.0,123.0,-1.0,101.0,-65.0,127.0,127.0,127.0,-116.0,-94.0,106.0
127.0,131.0,127.0,127.0,127.0,128.0,75.0,123.0,-1.0,101.0,-65.0,127.0,127.0,127.0,-116.0,-94.0,106.0
127.0,131.0,127.0,127.0,127.0,128.0,75.0,123.0,-1.0,101.0,-65.0,127.0,127.0,127.0,-116.0,-94.0,106.0
127.0,131.0,127.0,127.0,127.0,128.0,74.0,123.0,-1.0,101.0,-65.0,127.0,127.0,127.0,-116.0,-94.0,106.0
127.0,131.0,127.0,127.0,126.0,129.0,73.0,123.0,-1.0,101.0,-65.0,127.0,127.0,127.0,-116.0,-94.0,106.0
127.0,131.0,127.0,127.0,126.0,129.0,73.0,123.0,-1.0,101.0,-65.0,127.0,127.0,127.0,-116.0,-94.0,106.0
127.0,131.0,127.0,127.0,127.0,128.0,73.0,123.0,-1.0,101.0,-65.0,127.0,127.0,127.0,-116.0,-94.0,106.0
127.0,131.0,127.0,127.0,127.0,128.0,73.0,123.0,-1.0,101.0,-65.0,127.0,127.0,127.0,-116.0,-94.0,106.0
127.0,131.0,127.0,127.0,127.0,128.0,72.0,123.0,-1.0,101.0,-65.0,127.0,127.0,127.0,-116.0,-94.0,106.0
127.0,132.0,127.0,127.0,126.0,129.0,93.0,124.0,-1.0,101.0,-65.0,127.0,127.0,127.0,-116.0,-94.0,106.0
127.0,131.0,127.0,126.0,126.0,127.0,89.0,123.0,-1.0,101.0,-65.0,127.0,127.0,127.0,-116.0,-94.0,106.0
127.0,132.0,127.0,126.0,126.0,127.0,90.0,123.0,-1.0,101.0,-65.0,127.0,127.0,127.0,-116.0,-94.0,106.0
127.0,131.0,127.0,126.0,126.0,127.0,90.0,123.0,-1.0,101.0,-65.0,127.0,127.0,127.0,-116.0,-94.0,106.0
127.0,132.0,127.0,126.0,126.0,128.0,90.0,123.0,-1.0,101.0,-65.0,127.0,127.0,127.0,-116.0,-94.0,106.0
127.0,132.0,127.0,126.0,126.0,128.0,91.0,123.0,-1.0,101.0,-65.0,127.0,127.0,127.0,-116.0,-94.0,106.0
127.0,132.0,127.0,126.0,126.0,128.0,92.0,124.0,-1.0,101.0,-65.0,127.0,127.0,127.0,-116.0,-94.0,106.0
127.0,132.0,127.0,127.0,126.0,128.0,92.0,124.0,-1.0,101.0,-65.0,127.0,127.0,127.0,-116.0,-94.0,106.0
127.0,132.0,127.0,127.0,126.0,128.0,93.0,124.0,-1.0,101.0,-65.0,127.0,127.0,127.0,-116.0,-94.0,106.0
127.0,132.0,127.0,127.0,126.0,128.0,93.0,124.0,-1.0,101.0,-65.0,127.0,127.0,127.0,-116.0,-94.0,106.0
127.0,132.0,127.0,126.0,126.0,127.0,114.0,125.0,-1.0,102.0,-65.0,127.0,127.0,127.0,-116.0,-94.0,106.0
127.0,132.0,127.0,126.0,126.0,127.0,114.0,125.0,-1.0,102.0,-65.0,127.0,127.0,127.0,-116.0,-94.0,106.0
127.0,132.0,127.0,126.0,126.0,127.0,114.0,125.0,-1.0,102.0,-65.0,127.0,127.0,127.0,-116.0,-94.0,106.0
127.0,132.0,127.0,126.0,126.0,128.0,114.0,125.0,-1.0,102.0,-65.0,127.0,127.0,127.0,-116.0,-94.0,106.0
127.0,132.0,127.0,126.0,126.0,128.0,114.0,125.0,-1.0,102.0,-65.0,127.0,127.0,127.0,-116.0,-94.0,106.0
127.0,132.0,127.0,126.0,126.0,128.0,115.0,125.0,-1.0,102.0,-65.0,127.0,127.0,127.0,-116.0,-94.0,106.0
127.0,132.0,127.0,126.0,126.0,128.0,115.0,125.0,-1.0,102.0,-65.0,127.0,127.0,127.0,-116.0,-94.0,106.0
127.0,132.0,127.0,126.0,126.0,128.0,115.0,125.0,-1.0,102.0,-65.0,127.0,127.0,127.0,-116.0,-94.0,106.0
127.0,132.0,128.0,126.0,126.0,128.0,115.0,125.0,-1.0,102.0,-65.0,127.0,127.0,127.0,-116.0,-94.0,106.0
127.0,132.0,127.0,126.0,126.0,128.0,115.0,125.0,-1.0,102.0,-65.0,127.0,127.0,127.0,-116.0,-94.0,106.0
127.0,132.0,127.0,126.0,126.0,127.0,126.0,124.0,-1.0,102.0,-64.0,127.0,127.0,127.0,-116.0,-93.0,106.0
127.0,132.0,127.0,126.0,126.0,127.0,126.0,124.0,-1.0,102.0,-64.0,127.0,127.0,127.0,-116.0,-93.0,106.0
127.0,132.0,127.0,126.0,126.0,128.0,126.0,124.0,-1.0,102.0,-64.0,127.0,127.0,127.0,-116.0,-93.0,106.0
127.0,132.0,127.0,126.0,126.0,128.0,126.0,124.0,-1.0,102.0,-64.0,127.0,127.0,127.0,-116.0,-93.0,106.0
127.0,132.0,127.0,126.0,126.0,128.0,126.0,124.0,-1.0,102.0,-64.0,127.0,127.0,127.0,-116.0,-93.0,106.0
127.0,132.0,127.0,126.0,126.0,128.0,126.0,124.0,-1.0,102.0,-64.0,127.0,127.0,127.0,-116.0,-93.0,106.0
127.0,132.0,127.0,126.0,126.0,128.0,126.0,124.0,-1.0,102.0,-64.0,127.0,127.0,127.0,-116.0,-93.0,106.0
127.0,132.0,127.0,126.0,126.0,128.0,126.0,124.0,-1.0,102.0,-64.0,127.0,127.0,127.0,-116.0,-93.0,106.0
127.0,131.0,128.0,126.0,127.0,128.0,126.0,124.0,-1.0,102.0,-64.0,127.0,127.0,127.0,-116.0,-93.0,106.0
127.0,132.0,127.0,126.0,126.0,127.0,126.0,124.0,-1.0,102.0,-64.0,127.0,127.0,127.0,-116.0,-93.0,106.0
127.0,131.0,127.0,126.0,127.0,128.0,130.0,123.0,-1.0,103.0,-64.0,127.0,127.0,127.0,-116.0,-93.0,106.0
127.0,131.0,127.0,126.0,127.0,128.0,130.0,123.0,-1.0,103.0,-64.0,127.0,127.0,127.0,-116.0,-93.0,106.0
127.0,131.0,127.0,126.0,127.0,128.0,130.0,123.0,-1.0,103.0,-64.0,127.0,127.0,127.0,-116.0,-93.0,106.0
127.0,131.0,127.0,126.0,127.0,128.0,131.0,123.0,-1.0,103.0,-64.0,127.0,127.0,127.0,-116.0,-93.0,106.0
127.0,131.0,127.0,126.0,127.0,128.0,131.0,123.0,-1.0,103.0,-64.0,127.0,127.0,127.0,-116.0,-93.0,106.0
127.0,131.0,127.0,126.0,127.0,128.0,131.0,123.0,-1.0,103.0,-64.0,127.0,127.0,127.0,-116.0,-93.0,106.0
127.0,131.0,127.0,126.0,127.0,128.0,131.0,123.0,-1.0,103.0,-64.0,127.0,127.0,127.0,-116.0,-93.0,106.0
127.0,131.0,127.0,126.0,127.0,127.0,131.0,123.0,-1.0,103.0,-64.0,127.0,127.0,127.0,-116.0,-93.0,106.0
127.0,131.0,127.0,126.0,127.0,128.0,130.0,123.0,-1.0,103.0,-64.0,127.0,127.0,127.0,-116.0,-93.0,106.0
127.0,131.0,127.0,126.0,127.0,128.0,130.0,123.0,-1.0,103.0,-64.0,127.0,127.0,127.0,-116.0,-93.0,106.0
127.0,131.0,127.0,126.0,127.0,128.0,132.0,123.0,-1.0,103.0,-64.0,127.0,127.0,127.0,-117.0,-93.0,106.0
127.0,131.0,127.0,126.0,127.0,128.0,132.0,123.0,-1.0,103.0,-64.0,127.0,127.0,127.0,-117.0,-93.0,106.0
127.0,131.0,127.0,126.0,127.0,128.0,132.0,123.0,-1.0,103.0,-64.0,127.0,127.0,127.0,-117.0,-93.0,106.0
127.0,131.0,127.0,125.0,126.0,128.0,132.0,123.0,-1.0,103.0,-64.0,127.0,127.0,127.0,-117.0,-93.0,106.0
127.0,132.0,127.0,126.0,126.0,128.0,131.0,123.0,-1.0,103.0,-64.0,127.0,127.0,127.0,-117.0,-93.0,106.0
127.0,132.0,127.0,126.0,126.0,128.0,131.0,123.0,-1.0,103.0,-64.0,127.0,127.0,127.0,-117.0,-93.0,106.0
127.0,131.0,127.0,126.0,127.0,128.0,131.0,123.0,-1.0,103.0,-64.0,127.0,127.0,127.0,-117.0,-93.0,106.0
127.0,132.0,127.0,125.0,126.0,128.0,132.0,123.0,-1.0,103.0,-64.0,127.0,127.0,127.0,-117.0,-93.0,106.0
127.0,132.0,127.0,126.0,126.0,128.0,132.0,123.0,-1.0,103.0,-64.0,127.0,127.0,127.0,-117.0,-93.0,106.0
127.0,132.0,127.0,126.0,126.0,128.0,132.0,123.0,-1.0,103.0,-64.0,127.0,127.0,127.0,-117.0,-93.0,106.0
127.0,131.0,127.0,126.0,126.0,128.0,132.0,123.0,-1.0,103.0,-64.0,127.0,127.0,127.0,-117.0,-93.0,106.0
127.0,131.0,127.0,126.0,126.0,128.0,132.0,123.0,-1.0,103.0,-64.0,127.0,127.0,127.0,-117.0,-93.0,106.0
127.0,131.0,127.0,126.0,126.0,128.0,131.0,123.0,-1.0,103.0,-64.0,127.0,127.0,127.0,-117.0,-93.0,106.0
127.0,131.0,127.0,126.0,126.0,129.0,131.0,123.0,-1.0,103.0,-64.0,127.0,127.0,127.0,-117.0,-93.0,106.0
127.0,131.0,127.0,126.0,126.0,129.0,131.0,123.0,-1.0,103.0,-64.0,127.0,127.0,127.0,-117.0,-93.0,106.0
127.0,131.0,127.0,126.0,126.0,129.0,131.0,123.0,-1.0,103.0,-64.0,127.0,127.0,127.0,-117.0,-93.0,106.0
127.0,131.0,127.0,126.0,126.0,128.0,132.0,123.0,-1.0,103.0,-64.0,127.0,127.0,127.0,-117.0,-93.0,106.0
127.0,131.0,127.0,126.0,126.0,128.0,132.0,123.0,-1.0,103.0,-64.0,127.0,127.0,127.0,-117.0,-93.0,106.0
127.0,131.0,127.0,126.0,126.0,128.0,132.0,123.0,-1.0,103.0,-64.0,127.0,127.0,127.0,-117.0,-93.0,106.0
127.0,131.0,127.0,126.0,126.0,128.0,132.0,123.0,-1.0,103.0,-64.0,127.0,127.0,127.0,-117.0,-93.0,106.0
127.0,130.0,127.0,126.0,127.0,128.0,132.0,122.0,-1.0,103.0,-64.0,127.0,127.0,127.0,-117.0,-93.0,106.0
127.0,130.0,127.0,126.0,127.0,127.0,132.0,122.0,-1.0,103.0,-64.0,127.0,127.0,127.0,-117.0,-93.0,106.0
127.0,130.0,127.0,126.0,126.0,128.0,131.0,122.0,-1.0,103.0,-64.0,127.0,127.0,127.0,-117.0,-93.0,106.0
127.0,130.0,127.0,126.0,126.0,128.0,131.0,122.0,-1.0,103.0,-64.0,127.0,127.0,127.0,-117.0,-93.0,106.0
127.0,130.0,127.0,126.0,127.0,128.0,131.0,122.0,-1.0,103.0,-64.0,127.0,127.0,127.0,-117.0,-93.0,106.0
127.0,130.0,127.0,126.0,127.0,127.0,132.0,122.0,-1.0,103.0,-64.0,127.0,127.0,127.0,-117.0,-93.0,106.0
127.0,130.0,127.0,126.0,126.0,128.0,132.0,122.0,-1.0,103.0,-64.0,127.0,127.0,127.0,-117.0,-93.0,106.0
127.0,130.0,127.0,126.0,127.0,128.0,131.0,122.0,-1.0,103.0,-64.0,127.0,127.0,127.0,-117.0,-93.0,106.0
127.0,130.0,127.0,126.0,127.0,127.0,132.0,122.0,-1.0,103.0,-64.0,127.0,127.0,127.0,-117.0,-93.0,106.0
127.0,130.0,127.0,126.0,127.0,127.0,132.0,122.0,-1.0,103.0,-64.0,127.0,127.0,127.0,-117.0,-93.0,106.0
127.0,130.0,127.0,126.0,127.0,128.0,131.0,122.0,-1.0,103.0,-64.0,127.0,127.0,127.0,-117.0,-92.0,106.0
127.0,130.0,127.0,126.0,126.0,129.0,131.0,122.0,-1.0,103.0,-64.0,127.0,127.0,127.0,-117.0,-92.0,106.0
127.0,130.0,127.0,126.0,127.0,129.0,131.0,122.0,-1.0,103.0,-64.0,127.0,127.0,127.0,-117.0,-92.0,106.0
127.0,130.0,127.0,126.0,127.0,129.0,131.0,123.0,-1.0,103.0,-64.0,127.0,127.0,127.0,-117.0,-92.0,106.0
127.0,130.0,127.0,126.0,127.0,127.0,132.0,122.0,-1.0,103.0,-64.0,127.0,127.0,127.0,-117.0,-92.0,106.0
127.0,130.0,127.0,126.0,126.0,128.0,132.0,122.0,-1.0,103.0,-64.0,127.0,127.0,127.0,-117.0,-92.0,106.0
127.0,130.0,127.0,126.0,126.0,128.0,131.0,122.0,-1.0,103.0,-64.0,127.0,127.0,127.0,-117.0,-92.0,106.0
127.0,130.0,127.0,126.0,127.0,128.0,131.0,122.0,-1.0,103.0,-64.0,127.0,127.0,127.0,-117.0,-92.0,106.0
127.0,130.0,127.0,126.0,127.0,128.0,132.0,122.0,-1.0,103.0,-64.0,127.0,127.0,127.0,-117.0,-92.0,106.0
127.0,130.0,127.0,126.0,127.0,128.0,131.0,122.0,-1.0,103.0,-64.0,127.0,127.0,127.0,-117.0,-92.0,106.0
127.0,130.0,126.0,126.0,126.0,129.0,129.0,123.0,-1.0,102.0,-64.0,127.0,127.0,127.0,-117.0,-92.0,106.0
127.0,130.0,126.0,126.0,126.0,129.0,129.0,123.0,-1.0,102.0,-64.0,127.0,127.0,127.0,-117.0,-92.0,106.0
127.0,130.0,126.0,126.0,126.0,129.0,129.0,123.0,-1.0,102.0,-64.0,127.0,127.0,127.0,-117.0,-92.0,106.0
127.0,130.0,127.0,125.0,126.0,127.0,130.0,123.0,-1.0,102.0,-64.0,127.0,127.0,127.0,-117.0,-92.0,106.0
127.0,130.0,126.0,125.0,126.0,128.0,130.0,123.0,-1.0,102.0,-64.0,127.0,127.0,127.0,-117.0,-92.0,106.0
127.0,130.0,126.0,125.0,126.0,128.0,130.0,123.0,-1.0,102.0,-64.0,127.0,127.0,127.0,-117.0,-92.0,106.0
127.0,130.0,127.0,126.0,126.0,128.0,130.0,123.0,-1.0,102.0,-64.0,127.0,127.0,127.0,-117.0,-92.0,106.0
127.0,130.0,127.0,125.0,126.0,128.0,130.0,123.0,-1.0,102.0,-64.0,127.0,127.0,127.0,-117.0,-92.0,106.0
127.0,130.0,127.0,126.0,126.0,128.0,130.0,123.0,-1.0,102.0,-64.0,127.0,127.0,127.0,-117.0,-92.0,106.0
127.0,130.0,127.0,125.0,126.0,128.0,130.0,123.0,-1.0,102.0,-64.0,127.0,127.0,127.0,-117.0,-92.0,106.0
127.0,130.0,127.0,126.0,127.0,129.0,127.0,124.0,-1.0,102.0,-64.0,127.0,127.0,127.0,-117.0,-92.0,106.0
127.0,130.0,127.0,126.0,127.0,129.0,127.0,124.0,-1.0,102.0,-64.0,127.0,127.0,127.0,-117.0,-92.0,106.0
127.0,130.0,127.0,125.0,127.0,127.0,129.0,123.0,-1.0,102.0,-64.0,127.0,127.0,127.0,-117.0,-92.0,106.0
127.0,130.0,126.0,126.0,126.0,128.0,128.0,124.0,-1.0,102.0,-64.0,127.0,127.0,127.0,-117.0,-92.0,106.0
127.0,130.0,127.0,126.0,126.0,128.0,128.0,124.0,-1.0,102.0,-64.0,127.0,127.0,127.0,-117.0,-92.0,106.0
127.0,130.0,127.0,126.0,127.0,128.0,128.0,124.0,-1.0,102.0,-64.0,127.0,127.0,127.0,-117.0,-92.0,106.0
127.0,130.0,127.0,126.0,127.0,128.0,128.0,124.0,-1.0,102.0,-64.0,127.0,127.0,127.0,-117.0,-92.0,106.0
127.0,130.0,127.0,126.0,127.0,128.0,128.0,124.0,-1.0,102.0,-64.0,127.0,127.0,127.0,-117.0,-92.0,106.0
127.0,130.0,127.0,126.0,127.0,128.0,128.0,124.0,-1.0,102.0,-64.0,127.0,127.0,127.0,-117.0,-92.0,106.0
127.0,130.0,127.0,126.0,126.0,129.0,127.0,124.0,-1.0,102.0,-64.0,127.0,127.0,127.0,-117.0,-92.0,106.0
127.0,130.0,127.0,126.0,126.0,129.0,126.0,124.0,-1.0,101.0,-65.0,127.0,127.0,127.0,-117.0,-92.0,106.0
127.0,130.0,127.0,125.0,126.0,127.0,127.0,124.0,-1.0,101.0,-65.0,127.0,127.0,127.0,-117.0,-92.0,106.0
127.0,130.0,127.0,125.0,126.0,128.0,127.0,124.0,-1.0,101.0,-65.0,127.0,127.0,127.0,-117.0,-92.0,106.0
127.0,130.0,127.0,125.0,126.0,128.0,127.0,124.0,-1.0,101.0,-65.0,127.0,127.0,127.0,-117.0,-92.0,106.0
127.0,130.0,127.0,125.0,126.0,128.0,127.0,124.0,-1.0,101.0,-65.0,127.0,127.0,127.0,-117.0,-92.0,106.0
127.0,130.0,127.0,125.0,126.0,128.0,127.0,124.0,-1.0,101.0,-65.0,127.0,127.0,127.0,-117.0,-92.0,106.0
127.0,130.0,127.0,125.0,126.0,128.0,127.0,124.0,-1.0,101.0,-65.0,127.0,127.0,127.0,-117.0,-92.0,106.0
127.0,130.0,127.0,125.0,126.0,128.0,127.0,124.0,-1.0,101.0,-65.0,127.0,127.0,127.0,-117.0,-92.0,106.0
127.0,130.0,127.0,125.0,126.0,128.0,126.0,124.0,-1.0,101.0,-65.0,127.0,127.0,127.0,-117.0,-92.0,106.0
127.0,130.0,127.0,126.0,126.0,129.0,126.0,124.0,-1.0,101.0,-65.0,127.0,127.0,127.0,-117.0,-92.0,106.0
127.0,130.0,127.0,126.0,127.0,127.0,127.0,124.0,-1.0,100.0,-66.0,127.0,127.0,127.0,-117.0,-92.0,106.0
127.0,130.0,126.0,126.0,126.0,128.0,126.0,124.0,-1.0,100.0,-66.0,127.0,127.0,127.0,-117.0,-92.0,106.0
127.0,130.0,126.0,126.0,126.0,128.0,126.0,124.0,-1.0,100.0,-66.0,127.0,127.0,127.0,-117.0,-92.0,106.0
127.0,130.0,126.0,126.0,126.0,128.0,126.0,124.0,-1.0,100.0,-66.0,127.0,127.0,127.0,-117.0,-92.0,106.0
