emg1,emg2,emg3,emg4,emg5,emg6,emg7,emg8,acc_x,acc_y,acc_z,gyro_x,gyro_y,gyro_z,angle_pitch,angle_roll,angle_yaw
127.0,128.0,127.0,128.0,127.0,127.0,107.0,128.0,28.0,-111.0,-68.0,127.0,127.0,127.0,116.0,87.0,-115.0
127.0,128.0,127.0,128.0,127.0,127.0,106.0,128.0,28.0,-111.0,-68.0,127.0,127.0,127.0,116.0,87.0,-115.0
127.0,128.0,127.0,128.0,127.0,128.0,107.0,128.0,28.0,-111.0,-68.0,127.0,127.0,127.0,116.0,87.0,-115.0
127.0,128.0,127.0,128.0,127.0,128.0,106.0,128.0,28.0,-111.0,-68.0,127.0,127.0,127.0,116.0,87.0,-115.0
127.0,127.0,127.0,128.0,127.0,127.0,106.0,128.0,28.0,-111.0,-68.0,127.0,127.0,127.0,116.0,87.0,-115.0
127.0,127.0,127.0,128.0,127.0,127.0,106.0,128.0,28.0,-111.0,-68.0,127.0,127.0,127.0,116.0,87.0,-115.0
126.0,127.0,127.0,128.0,127.0,127.0,106.0,128.0,28.0,-111.0,-68.0,127.0,127.0,127.0,116.0,87.0,-115.0
127.0,127.0,127.0,128.0,127.0,127.0,106.0,128.0,28.0,-111.0,-68.0,127.0,127.0,127.0,116.0,87.0,-115.0
127.0,128.0,127.0,128.0,127.0,128.0,107.0,128.0,28.0,-111.0,-68.0,127.0,127.0,127.0,116.0,87.0,-115.0
127.0,128.0,126.0,128.0,127.0,128.0,107.0,128.0,28.0,-111.0,-68.0,127.0,127.0,127.0,116.0,87.0,-115.0
127.0,128.0,126.0,128.0,127.0,128.0,107.0,128.0,28.0,-111.0,-68.0,127.0,127.0,127.0,116.0,87.0,-115.0
127.0,128.0,126.0,128.0,127.0,128.0,107.0,128.0,28.0,-111.0,-68.0,127.0,127.0,127.0,116.0,87.0,-115.0
127.0,128.0,126.0,128.0,127.0,128.0,107.0,128.0,28.0,-111.0,-68.0,127.0,127.0,127.0,116.0,87.0,-115.0
127.0,128.0,127.0,128.0,127.0,128.0,107.0,128.0,28.0,-111.0,-68.0,127.0,127.0,127.0,116.0,87.0,-115.0
127.0,127.0,127.0,127.0,127.0,128.0,106.0,128.0,28.0,-111.0,-68.0,127.0,127.0,127.0,116.0,87.0,-115.0
127.0,127.0,126.0,127.0,127.0,127.0,106.0,128.0,28.0,-111.0,-68.0,127.0,127.0,127.0,116.0,87.0,-115.0
127.0,128.0,126.0,127.0,127.0,127.0,106.0,128.0,28.0,-111.0,-68.0,127.0,127.0,127.0,116.0,87.0,-115.0
127.0,127.0,127.0,127.0,127.0,127.0,106.0,128.0,28.0,-111.0,-68.0,127.0,127.0,127.0,116.0,87.0,-115.0
127.0,128.0,126.0,127.0,127.0,127.0,107.0,128.0,28.0,-111.0,-68.0,127.0,127.0,127.0,116.0,87.0,-115.0
127.0,128.0,126.0,128.0,127.0,127.0,107.0,128.0,28.0,-111.0,-68.0,127.0,127.0,127.0,116.0,87.0,-115.0
127.0,128.0,126.0,127.0,127.0,127.0,106.0,128.0,28.0,-111.0,-68.0,127.0,127.0,127.0,116.0,87.0,-115.0
127.0,128.0,127.0,128.0,127.0,128.0,106.0,128.0,28.0,-111.0,-68.0,127.0,127.0,127.0,116.0,87.0,-115.0
127.0,128.0,127.0,127.0,127.0,127.0,106.0,128.0,28.0,-111.0,-68.0,127.0,127.0,127.0,116.0,87.0,-115.0
127.0,128.0,127.0,127.0,127.0,127.0,106.0,128.0,28.0,-111.0,-68.0,127.0,127.0,127.0,116.0,87.0,-115.0
127.0,128.0,127.0,127.0,127.0,127.0,106.0,128.0,28.0,-111.0,-68.0,127.0,127.0,127.0,116.0,87.0,-115.0
127.0,128.0,127.0,127.0,127.0,127.0,106.0,128.0,28.0,-111.0,-68.0,127.0,127.0,127.0,116.0,87.0,-115.0
127.0,128.0,127.0,127.0,127.0,127.0,106.0,128.0,28.0,-111.0,-68.0,127.0,127.0,127.0,116.0,87.0,-115.0
127.0,128.0,127.0,128.0,127.0,128.0,107.0,128.0,28.0,-111.0,-68.0,127.0,127.0,127.0,116.0,87.0,-115.0
127.0,128.0,127.0,128.0,128.0,128.0,107.0,128.0,28.0,-111.0,-68.0,127.0,127.0,127.0,116.0,87.0,-115.0
127.0,128.0,127.0,128.0,128.0,128.0,107.0,128.0,28.0,-111.0,-68.0,127.0,127.0,127.0,116.0,87.0,-115.0
127.0,128.0,127.0,128.0,128.0,128.0,107.0,128.0,28.0,-111.0,-68.0,127.0,127.0,127.0,116.0,87.0,-115.0
127.0,128.0,127.0,128.0,128.0,128.0,107.0,128.0,28.0,-111.0,-68.0,127.0,127.0,127.0,116.0,87.0,-115.0
127.0,128.0,127.0,128.0,127.0,128.0,107.0,128.0,28.0,-111.0,-68.0,127.0,127.0,127.0,116.0,87.0,-115.0
127.0,127.0,127.0,128.0,127.0,128.0,107.0,128.0,28.0,-111.0,-68.0,127.0,127.0,127.0,116.0,87.0,-115.0
127.0,127.0,127.0,127.0,127.0,128.0,107.0,128.0,28.0,-111.0,-68.0,127.0,127.0,127.0,116.0,87.0,-115.0
127.0,127.0,127.0,127.0,127.0,128.0,106.0,128.0,28.0,-111.0,-68.0,127.0,127.0,127.0,116.0,87.0,-115.0
127.0,128.0,127.0,128.0,128.0,128.0,107.0,128.0,28.0,-111.0,-68.0,127.0,127.0,127.0,116.0,87.0,-115.0
127.0,128.0,127.0,128.0,128.0,128.0,107.0,128.0,28.0,-111.0,-68.0,127.0,127.0,127.0,116.0,87.0,-115.0
127.0,128.0,126.0,128.0,127.0,127.0,106.0,128.0,28.0,-111.0,-68.0,127.0,127.0,127.0,116.0,87.0,-115.0
127.0,128.0,127.0,128.0,127.0,128.0,106.0,128.0,28.0,-111.0,-68.0,127.0,127.0,127.0,116.0,87.0,-115.0
127.0,128.0,127.0,127.0,127.0,128.0,106.0,128.0,28.0,-111.0,-68.0,127.0,127.0,127.0,116.0,87.0,-115.0
127.0,127.0,127.0,127.0,127.0,127.0,106.0,128.0,28.0,-111.0,-68.0,127.0,127.0,127.0,116.0,87.0,-115.0
127.0,127.0,127.0,127.0,127.0,128.0,106.0,128.0,28.0,-111.0,-68.0,127.0,127.0,127.0,116.0,87.0,-115.0
127.0,127.0,127.0,127.0,127.0,127.0,106.0,128.0,28.0,-111.0,-68.0,127.0,127.0,127.0,116.0,87.0,-115.0
127.0,127.0,127.0,127.0,127.0,127.0,106.0,128.0,28.0,-111.0,-68.0,127.0,127.0,127.0,116.0,87.0,-115.0
127.0,128.0,126.0,128.0,127.0,127.0,107.0,128.0,28.0,-111.0,-68.0,127.0,127.0,127.0,116.0,87.0,-115.0
127.0,128.0,127.0,128.0,127.0,127.0,107.0,128.0,28.0,-111.0,-68.0,127.0,127.0,127.0,116.0,87.0,-115.0
127.0,128.0,127.0,128.0,127.0,128.0,106.0,128.0,28.0,-111.0,-68.0,127.0,127.0,127.0,116.0,87.0,-115.0
127.0,128.0,127.0,128.0,127.0,127.0,106.0,128.0,28.0,-111.0,-68.0,127.0,127.0,127.0,116.0,87.0,-115.0
127.0,128.0,127.0,128.0,127.0,127.0,106.0,128.0,28.0,-111.0,-68.0,127.0,127.0,127.0,116.0,87.0,-115.0
127.0,128.0,127.0,128.0,127.0,128.0,106.0,128.0,28.0,-111.0,-68.0,127.0,127.0,127.0,116.0,87.0,-115.0
127.0,127.0,127.0,128.0,127.0,127.0,106.0,128.0,28.0,-111.0,-68.0,127.0,127.0,127.0,116.0,87.0,-115.0
127.0,127.0,127.0,128.0,127.0,127.0,106.0,128.0,28.0,-111.0,-68.0,127.0,127.0,127.0,116.0,87.0,-115.0
127.0,127.0,127.0,127.0,127.0,127.0,106.0,128.0,28.0,-111.0,-68.0,127.0,127.0,127.0,116.0,87.0,-115.0
127.0,128.0,126.0,128.0,127.0,127.0,106.0,128.0,28.0,-111.0,-68.0,127.0,127.0,127.0,116.0,87.0,-115.0
127.0,128.0,126.0,128.0,127.0,127.0,107.0,128.0,28.0,-111.0,-68.0,127.0,127.0,127.0,116.0,87.0,-115.0
127.0,128.0,126.0,128.0,127.0,127.0,107.0,128.0,28.0,-111.0,-68.0,127.0,127.0,127.0,116.0,87.0,-115.0
127.0,128.0,126.0,128.0,127.0,127.0,107.0,128.0,28.0,-111.0,-68.0,127.0,127.0,127.0,116.0,87.0,-115.0
126.0,127.0,126.0,128.0,127.0,128.0,107.0,128.0,28.0,-111.0,-68.0,127.0,127.0,127.0,116.0,87.0,-115.0
126.0,127.0,127.0,128.0,127.0,127.0,106.0,128.0,28.0,-111.0,-68.0,127.0,127.0,127.0,116.0,87.0,-115.0
126.0,127.0,127.0,128.0,127.0,127.0,106.0,128.0,28.0,-111.0,-68.0,127.0,127.0,127.0,116.0,87.0,-115.0
126.0,127.0,127.0,127.0,127.0,127.0,106.0,128.0,28.0,-111.0,-68.0,127.0,127.0,127.0,116.0,87.0,-115.0
126.0,127.0,127.0,127.0,127.0,127.0,106.0,128.0,28.0,-111.0,-68.0,127.0,127.0,127.0,116.0,87.0,-115.0
127.0,128.0,127.0,128.0,127.0,128.0,107.0,129.0,28.0,-111.0,-68.0,127.0,127.0,127.0,116.0,87.0,-115.0
127.0,128.0,127.0,128.0,127.0,128.0,107.0,129.0,28.0,-111.0,-68.0,127.0,127.0,127.0,116.0,87.0,-115.0
127.0,128.0,127.0,128.0,127.0,128.0,107.0,129.0,28.0,-111.0,-68.0,127.0,127.0,127.0,116.0,87.0,-115.0
126.0,127.0,127.0,128.0,127.0,128.0,107.0,128.0,28.0,-111.0,-68.0,127.0,127.0,127.0,116.0,87.0,-115.0
126.0,127.0,126.0,128.0,127.0,128.0,107.0,129.0,28.0,-111.0,-68.0,127.0,127.0,127.0,116.0,87.0,-115.0
127.0,128.0,127.0,128.0,127.0,127.0,107.0,129.0,28.0,-111.0,-67.0,127.0,127.0,127.0,116.0,87.0,-115.0
127.0,128.0,127.0,127.0,127.0,127.0,107.0,129.0,28.0,-111.0,-67.0,127.0,127.0,127.0,116.0,87.0,-115.0
127.0,128.0,127.0,127.0,127.0,127.0,107.0,128.0,28.0,-111.0,-67.0,127.0,127.0,127.0,116.0,87.0,-115.0
127.0,127.0,127.0,127.0,127.0,127.0,107.0,128.0,28.0,-111.0,-67.0,127.0,127.0,127.0,116.0,87.0,-115.0
127.0,128.0,127.0,128.0,127.0,127.0,106.0,129.0,28.0,-111.0,-67.0,127.0,127.0,127.0,116.0,87.0,-115.0
127.0,128.0,127.0,128.0,127.0,128.0,106.0,129.0,28.0,-111.0,-67.0,127.0,127.0,127.0,116.0,87.0,-115.0
127.0,128.0,127.0,128.0,127.0,127.0,106.0,128.0,28.0,-111.0,-67.0,127.0,127.0,127.0,116.0,87.0,-115.0
127.0,128.0,127.0,128.0,127.0,127.0,106.0,129.0,28.0,-111.0,-67.0,127.0,127.0,127.0,116.0,87.0,-115.0
127.0,128.0,127.0,128.0,127.0,127.0,106.0,129.0,28.0,-111.0,-67.0,127.0,127.0,127.0,116.0,87.0,-115.0
127.0,128.0,127.0,128.0,127.0,127.0,107.0,129.0,28.0,-111.0,-67.0,127.0,127.0,127.0,116.0,87.0,-115.0
127.0,128.0,127.0,128.0,127.0,128.0,106.0,128.0,28.0,-111.0,-67.0,127.0,127.0,127.0,116.0,87.0,-115.0
127.0,127.0,127.0,128.0,127.0,128.0,106.0,128.0,28.0,-111.0,-67.0,127.0,127.0,127.0,116.0,87.0,-115.0
127.0,127.0,127.0,128.0,127.0,128.0,106.0,128.0,28.0,-111.0,-67.0,127.0,127.0,127.0,116.0,87.0,-115.0
127.0,128.0,127.0,128.0,128.0,128.0,107.0,128.0,28.0,-111.0,-67.0,127.0,127.0,127.0,116.0,87.0,-115.0
127.0,128.0,127.0,128.0,128.0,128.0,107.0,128.0,28.0,-111.0,-67.0,127.0,127.0,127.0,116.0,87.0,-115.0
127.0,128.0,127.0,128.0,128.0,128.0,107.0,128.0,28.0,-111.0,-67.0,127.0,127.0,127.0,116.0,87.0,-115.0
127.0,128.0,127.0,128.0,128.0,127.0,107.0,128.0,28.0,-111.0,-67.0,127.0,127.0,127.0,116.0,87.0,-115.0
127.0,128.0,127.0,128.0,128.0,128.0,106.0,128.0,28.0,-111.0,-67.0,127.0,127.0,127.0,116.0,87.0,-115.0
127.0,128.0,127.0,128.0,128.0,128.0,107.0,128.0,28.0,-111.0,-67.0,127.0,127.0,127.0,116.0,87.0,-115.0
127.0,128.0,127.0,128.0,128.0,128.0,106.0,128.0,28.0,-111.0,-67.0,127.0,127.0,127.0,116.0,87.0,-115.0
127.0,127.0,127.0,128.0,127.0,128.0,106.0,128.0,28.0,-111.0,-67.0,127.0,127.0,127.0,116.0,87.0,-115.0
127.0,127.0,127.0,128.0,127.0,128.0,106.0,128.0,28.0,-111.0,-67.0,127.0,127.0,127.0,116.0,87.0,-115.0
127.0,128.0,127.0,128.0,127.0,128.0,107.0,128.0,28.0,-111.0,-67.0,127.0,127.0,127.0,116.0,87.0,-115.0
127.0,128.0,127.0,128.0,127.0,128.0,107.0,128.0,28.0,-111.0,-67.0,127.0,127.0,127.0,116.0,87.0,-115.0
127.0,128.0,127.0,128.0,127.0,128.0,107.0,128.0,28.0,-111.0,-67.0,127.0,127.0,127.0,116.0,87.0,-115.0
127.0,128.0,127.0,128.0,127.0,128.0,107.0,128.0,28.0,-111.0,-67.0,127.0,127.0,127.0,116.0,87.0,-115.0
127.0,128.0,127.0,128.0,127.0,128.0,107.0,128.0,28.0,-111.0,-67.0,127.0,127.0,127.0,116.0,87.0,-115.0
127.0,128.0,127.0,128.0,127.0,128.0,106.0,128.0,28.0,-111.0,-67.0,127.0,127.0,127.0,116.0,87.0,-115.0
127.0,128.0,127.0,128.0,127.0,128.0,106.0,128.0,28.0,-111.0,-67.0,127.0,127.0,127.0,116.0,87.0,-115.0
127.0,127.0,127.0,128.0,127.0,128.0,107.0,128.0,28.0,-111.0,-67.0,127.0,127.0,127.0,116.0,87.0,-115.0
127.0,127.0,127.0,127.0,127.0,127.0,107.0,128.0,28.0,-111.0,-67.0,127.0,127.0,127.0,116.0,87.0,-115.0
127.0,128.0,127.0,128.0,127.0,128.0,106.0,128.0,28.0,-111.0,-67.0,127.0,127.0,127.0,116.0,87.0,-115.0
127.0,128.0,127.0,128.0,127.0,128.0,106.0,128.0,28.0,-111.0,-67.0,127.0,127.0,127.0,116.0,87.0,-115.0
127.0,128.0,127.0,128.0,127.0,128.0,106.0,128.0,28.0,-111.0,-67.0,127.0,127.0,127.0,116.0,87.0,-115.0
127.0,128.0,126.0,128.0,127.0,127.0,106.0,128.0,28.0,-111.0,-67.0,127.0,127.0,127.0,116.0,87.0,-115.0
127.0,128.0,127.0,128.0,128.0,127.0,107.0,128.0,28.0,-111.0,-67.0,127.0,127.0,127.0,116.0,87.0,-115.0
127.0,128.0,127.0,128.0,127.0,127.0,106.0,128.0,28.0,-111.0,-67.0,127.0,127.0,127.0,116.0,87.0,-115.0
127.0,128.0,127.0,128.0,127.0,127.0,106.0,128.0,28.0,-111.0,-67.0,127.0,127.0,127.0,116.0,87.0,-115.0
127.0,128.0,127.0,127.0,127.0,127.0,106.0,128.0,28.0,-111.0,-67.0,127.0,127.0,127.0,116.0,87.0,-115.0
127.0,127.0,127.0,127.0,127.0,127.0,107.0,128.0,28.0,-111.0,-67.0,127.0,127.0,127.0,116.0,87.0,-115.0
127.0,128.0,127.0,127.0,127.0,127.0,106.0,128.0,28.0,-111.0,-67.0,127.0,127.0,127.0,116.0,87.0,-115.0
127.0,128.0,127.0,127.0,127.0,127.0,106.0,128.0,28.0,-111.0,-67.0,127.0,127.0,127.0,116.0,87.0,-115.0
127.0,128.0,127.0,127.0,127.0,127.0,106.0,128.0,28.0,-111.0,-67.0,127.0,127.0,127.0,116.0,87.0,-115.0
127.0,128.0,126.0,127.0,127.0,127.0,106.0,128.0,28.0,-111.0,-67.0,127.0,127.0,127.0,116.0,87.0,-115.0
127.0,128.0,127.0,127.0,127.0,127.0,106.0,128.0,28.0,-111.0,-67.0,127.0,127.0,127.0,116.0,87.0,-115.0
127.0,128.0,127.0,127.0,127.0,127.0,107.0,128.0,28.0,-111.0,-67.0,127.0,127.0,127.0,116.0,87.0,-115.0
127.0,128.0,127.0,127.0,127.0,127.0,107.0,128.0,28.0,-111.0,-67.0,127.0,127.0,127.0,116.0,87.0,-115.0
127.0,128.0,127.0,127.0,127.0,127.0,107.0,128.0,28.0,-111.0,-67.0,127.0,127.0,127.0,116.0,87.0,-115.0
127.0,128.0,126.0,127.0,127.0,127.0,107.0,128.0,28.0,-111.0,-67.0,127.0,127.0,127.0,116.0,87.0,-115.0
127.0,127.0,127.0,127.0,127.0,127.0,107.0,128.0,28.0,-111.0,-67.0,127.0,127.0,127.0,116.0,87.0,-115.0
127.0,128.0,127.0,128.0,127.0,128.0,106.0,128.0,28.0,-111.0,-67.0,127.0,127.0,127.0,116.0,87.0,-115.0
127.0,128.0,126.0,128.0,127.0,128.0,106.0,128.0,28.0,-111.0,-67.0,127.0,127.0,127.0,116.0,87.0,-115.0
127.0,128.0,126.0,128.0,127.0,127.0,106.0,128.0,28.0,-111.0,-67.0,127.0,127.0,127.0,116.0,87.0,-115.0
127.0,128.0,126.0,127.0,127.0,127.0,107.0,128.0,28.0,-111.0,-67.0,127.0,127.0,127.0,116.0,87.0,-115.0
127.0,128.0,126.0,127.0,127.0,127.0,107.0,128.0,28.0,-111.0,-67.0,127.0,127.0,127.0,116.0,87.0,-115.0
127.0,128.0,126.0,127.0,127.0,127.0,107.0,128.0,28.0,-111.0,-67.0,127.0,127.0,127.0,116.0,87.0,-115.0
127.0,127.0,126.0,127.0,127.0,127.0,107.0,128.0,28.0,-111.0,-67.0,127.0,127.0,127.0,116.0,87.0,-115.0
127.0,127.0,126.0,127.0,127.0,127.0,107.0,128.0,28.0,-111.0,-67.0,127.0,127.0,127.0,116.0,87.0,-115.0
127.0,127.0,127.0,127.0,127.0,127.0,107.0,128.0,28.0,-111.0,-67.0,127.0,127.0,127.0,116.0,87.0,-115.0
127.0,128.0,127.0,127.0,127.0,127.0,106.0,128.0,28.0,-111.0,-67.0,127.0,127.0,127.0,116.0,87.0,-115.0
127.0,128.0,127.0,128.0,128.0,128.0,107.0,128.0,28.0,-111.0,-67.0,127.0,127.0,127.0,116.0,87.0,-115.0
127.0,128.0,127.0,128.0,128.0,128.0,107.0,128.0,28.0,-111.0,-67.0,127.0,127.0,127.0,116.0,87.0,-115.0
127.0,128.0,127.0,128.0,128.0,127.0,107.0,128.0,28.0,-111.0,-67.0,127.0,127.0,127.0,116.0,87.0,-115.0
127.0,128.0,127.0,128.0,128.0,127.0,106.0,128.0,28.0,-111.0,-67.0,127.0,127.0,127.0,116.0,87.0,-115.0
127.0,128.0,127.0,128.0,128.0,127.0,106.0,128.0,28.0,-111.0,-67.0,127.0,127.0,127.0,116.0,87.0,-115.0
127.0,128.0,127.0,128.0,128.0,128.0,106.0,128.0,28.0,-111.0,-67.0,127.0,127.0,127.0,116.0,87.0,-115.0
127.0,128.0,127.0,128.0,128.0,127.0,107.0,128.0,28.0,-111.0,-67.0,127.0,127.0,127.0,116.0,87.0,-115.0
127.0,127.0,127.0,128.0,127.0,127.0,107.0,128.0,28.0,-111.0,-67.0,127.0,127.0,127.0,116.0,87.0,-115.0
127.0,128.0,127.0,128.0,128.0,128.0,106.0,128.0,28.0,-111.0,-67.0,127.0,127.0,127.0,116.0,87.0,-115.0
127.0,128.0,127.0,128.0,128.0,128.0,107.0,128.0,28.0,-111.0,-67.0,127.0,127.0,127.0,116.0,87.0,-115.0
127.0,128.0,127.0,128.0,127.0,128.0,107.0,128.0,28.0,-111.0,-67.0,127.0,127.0,127.0,116.0,87.0,-115.0
127.0,128.0,127.0,128.0,127.0,128.0,107.0,128.0,28.0,-111.0,-67.0,127.0,127.0,127.0,116.0,87.0,-115.0
127.0,128.0,127.0,128.0,127.0,128.0,107.0,128.0,28.0,-111.0,-67.0,127.0,127.0,127.0,116.0,87.0,-115.0
127.0,128.0,127.0,128.0,127.0,128.0,107.0,128.0,28.0,-111.0,-67.0,127.0,127.0,127.0,116.0,87.0,-115.0
127.0,128.0,127.0,128.0,127.0,127.0,106.0,128.0,28.0,-111.0,-67.0,127.0,127.0,127.0,116.0,87.0,-115.0
127.0,128.0,127.0,128.0,127.0,127.0,106.0,128.0,28.0,-111.0,-67.0,127.0,127.0,127.0,116.0,87.0,-115.0
127.0,128.0,127.0,128.0,127.0,127.0,106.0,128.0,28.0,-111.0,-67.0,127.0,127.0,127.0,116.0,87.0,-115.0
127.0,128.0,127.0,128.0,127.0,128.0,107.0,128.0,28.0,-111.0,-67.0,127.0,127.0,127.0,116.0,87.0,-115.0
127.0,128.0,127.0,128.0,127.0,128.0,107.0,128.0,28.0,-111.0,-67.0,127.0,127.0,127.0,116.0,87.0,-115.0
127.0,128.0,127.0,128.0,127.0,128.0,107.0,128.0,28.0,-111.0,-67.0,127.0,127.0,127.0,116.0,87.0,-115.0
127.0,128.0,127.0,128.0,127.0,128.0,106.0,129.0,28.0,-111.0,-67.0,127.0,127.0,127.0,116.0,87.0,-115.0
127.0,128.0,127.0,128.0,127.0,128.0,106.0,129.0,28.0,-111.0,-67.0,127.0,127.0,127.0,116.0,87.0,-115.0
127.0,128.0,127.0,128.0,127.0,128.0,106.0,129.0,28.0,-111.0,-67.0,127.0,127.0,127.0,116.0,87.0,-115.0
127.0,128.0,127.0,128.0,127.0,128.0,106.0,129.0,28.0,-111.0,-67.0,127.0,127.0,127.0,116.0,87.0,-115.0
127.0,128.0,127.0,128.0,127.0,127.0,106.0,129.0,28.0,-111.0,-67.0,127.0,127.0,127.0,116.0,87.0,-115.0
127.0,127.0,127.0,128.0,127.0,127.0,106.0,129.0,28.0,-111.0,-67.0,127.0,127.0,127.0,116.0,87.0,-115.0
127.0,128.0,127.0,128.0,127.0,128.0,106.0,129.0,28.0,-111.0,-67.0,127.0,127.0,127.0,116.0,87.0,-115.0
127.0,128.0,127.0,128.0,127.0,127.0,106.0,129.0,28.0,-111.0,-67.0,127.0,127.0,127.0,116.0,87.0,-115.0
127.0,128.0,127.0,128.0,127.0,127.0,106.0,129.0,28.0,-111.0,-67.0,127.0,127.0,127.0,116.0,87.0,-115.0
127.0,128.0,127.0,128.0,127.0,127.0,106.0,129.0,28.0,-111.0,-67.0,127.0,127.0,127.0,116.0,87.0,-115.0
127.0,128.0,127.0,128.0,127.0,127.0,107.0,128.0,28.0,-111.0,-67.0,127.0,127.0,127.0,116.0,87.0,-115.0
127.0,128.0,127.0,128.0,127.0,127.0,107.0,128.0,28.0,-111.0,-67.0,127.0,127.0,127.0,116.0,87.0,-115.0
127.0,128.0,127.0,128.0,127.0,127.0,107.0,128.0,28.0,-111.0,-67.0,127.0,127.0,127.0,116.0,87.0,-115.0
126.0,127.0,127.0,128.0,127.0,127.0,106.0,128.0,28.0,-111.0,-67.0,127.0,127.0,127.0,116.0,87.0,-115.0
127.0,127.0,127.0,128.0,127.0,127.0,107.0,128.0,28.0,-111.0,-67.0,127.0,127.0,127.0,116.0,87.0,-115.0
127.0,128.0,127.0,128.0,127.0,128.0,106.0,128.0,28.0,-111.0,-67.0,127.0,127.0,127.0,116.0,87.0,-115.0
127.0,128.0,127.0,128.0,127.0,127.0,106.0,128.0,28.0,-111.0,-67.0,127.0,127.0,127.0,116.0,87.0,-115.0
127.0,128.0,127.0,128.0,127.0,127.0,107.0,128.0,28.0,-111.0,-67.0,127.0,127.0,127.0,116.0,87.0,-115.0
127.0,128.0,127.0,128.0,127.0,127.0,107.0,128.0,28.0,-111.0,-67.0,127.0,127.0,127.0,116.0,87.0,-115.0
127.0,128.0,127.0,128.0,127.0,127.0,107.0,128.0,28.0,-111.0,-67.0,127.0,127.0,127.0,116.0,87.0,-115.0
127.0,128.0,127.0,127.0,127.0,127.0,107.0,128.0,28.0,-111.0,-67.0,127.0,127.0,127.0,116.0,87.0,-115.0
127.0,128.0,127.0,127.0,127.0,127.0,107.0,128.0,28.0,-111.0,-67.0,127.0,127.0,127.0,116.0,87.0,-115.0
127.0,128.0,127.0,127.0,127.0,127.0,107.0,128.0,28.0,-111.0,-67.0,127.0,127.0,127.0,116.0,87.0,-115.0
127.0,127.0,127.0,127.0,127.0,127.0,107.0,128.0,28.0,-111.0,-67.0,127.0,127.0,127.0,116.0,87.0,-115.0
127.0,128.0,126.0,128.0,127.0,127.0,106.0,128.0,28.0,-111.0,-67.0,127.0,127.0,127.0,116.0,87.0,-115.0
127.0,128.0,126.0,128.0,127.0,127.0,106.0,128.0,28.0,-111.0,-67.0,127.0,127.0,127.0,116.0,87.0,-115.0
127.0,128.0,127.0,128.0,127.0,127.0,106.0,128.0,28.0,-111.0,-67.0,127.0,127.0,127.0,116.0,87.0,-115.0
127.0,128.0,127.0,128.0,127.0,127.0,107.0,128.0,28.0,-111.0,-67.0,127.0,127.0,127.0,116.0,87.0,-115.0
127.0,128.0,127.0,128.0,127.0,127.0,107.0,128.0,28.0,-111.0,-67.0,127.0,127.0,127.0,116.0,87.0,-115.0
127.0,128.0,127.0,128.0,127.0,127.0,107.0,128.0,28.0,-111.0,-67.0,127.0,127.0,127.0,116.0,87.0,-115.0
127.0,128.0,127.0,127.0,127.0,127.0,106.0,128.0,28.0,-111.0,-67.0,127.0,127.0,127.0,116.0,87.0,-115.0
127.0,128.0,127.0,127.0,127.0,127.0,106.0,128.0,28.0,-111.0,-67.0,127.0,127.0,127.0,116.0,87.0,-115.0
127.0,127.0,127.0,127.0,127.0,127.0,106.0,128.0,28.0,-111.0,-67.0,127.0,127.0,127.0,116.0,87.0,-115.0
127.0,128.0,127.0,127.0,127.0,127.0,107.0,128.0,28.0,-111.0,-67.0,127.0,127.0,127.0,116.0,87.0,-115.0
127.0,128.0,127.0,127.0,127.0,127.0,106.0,128.0,28.0,-111.0,-67.0,127.0,127.0,127.0,116.0,87.0,-115.0
127.0,128.0,126.0,127.0,127.0,127.0,106.0,128.0,28.0,-111.0,-67.0,127.0,127.0,127.0,116.0,87.0,-115.0
127.0,128.0,127.0,127.0,127.0,127.0,107.0,128.0,28.0,-111.0,-67.0,127.0,127.0,127.0,116.0,87.0,-115.0
127.0,128.0,127.0,127.0,127.0,127.0,107.0,128.0,28.0,-111.0,-67.0,127.0,127.0,127.0,116.0,87.0,-115.0
127.0,128.0,127.0,127.0,127.0,127.0,106.0,128.0,28.0,-111.0,-67.0,127.0,127.0,127.0,116.0,87.0,-115.0
127.0,128.0,127.0,127.0,127.0,127.0,106.0,128.0,28.0,-111.0,-67.0,127.0,127.0,127.0,116.0,87.0,-115.0
127.0,128.0,127.0,128.0,127.0,128.0,106.0,128.0,28.0,-111.0,-67.0,127.0,127.0,127.0,116.0,87.0,-115.0
127.0,128.0,127.0,128.0,127.0,128.0,106.0,128.0,28.0,-111.0,-67.0,127.0,127.0,127.0,116.0,87.0,-115.0
127.0,128.0,127.0,128.0,127.0,128.0,106.0,128.0,28.0,-111.0,-67.0,127.0,127.0,127.0,116.0,87.0,-115.0
127.0,128.0,127.0,128.0,127.0,128.0,106.0,128.0,28.0,-111.0,-67.0,127.0,127.0,127.0,116.0,87.0,-115.0
127.0,128.0,127.0,128.0,127.0,127.0,106.0,128.0,28.0,-111.0,-67.0,127.0,127.0,127.0,116.0,87.0,-115.0
127.0,128.0,127.0,128.0,128.0,128.0,106.0,128.0,28.0,-111.0,-67.0,127.0,127.0,127.0,116.0,87.0,-115.0
127.0,128.0,127.0,128.0,128.0,128.0,106.0,128.0,28.0,-111.0,-67.0,127.0,127.0,127.0,116.0,87.0,-115.0
127.0,128.0,127.0,128.0,127.0,128.0,106.0,128.0,28.0,-111.0,-67.0,127.0,127.0,127.0,116.0,87.0,-115.0
127.0,128.0,127.0,128.0,127.0,127.0,106.0,128.0,28.0,-111.0,-67.0,127.0,127.0,127.0,116.0,87.0,-115.0
127.0,128.0,127.0,128.0,127.0,127.0,107.0,128.0,28.0,-111.0,-67.0,127.0,127.0,127.0,116.0,87.0,-115.0
127.0,128.0,126.0,128.0,127.0,127.0,107.0,128.0,28.0,-111.0,-67.0,127.0,127.0,127.0,116.0,87.0,-115.0
127.0,128.0,126.0,127.0,127.0,127.0,106.0,128.0,28.0,-111.0,-67.0,127.0,127.0,127.0,116.0,87.0,-115.0
127.0,128.0,126.0,127.0,127.0,127.0,106.0,128.0,28.0,-111.0,-67.0,127.0,127.0,127.0,116.0,87.0,-115.0
127.0,128.0,126.0,127.0,127.0,127.0,106.0,128.0,28.0,-111.0,-67.0,127.0,127.0,127.0,116.0,87.0,-115.0
127.0,128.0,126.0,127.0,127.0,127.0,107.0,128.0,28.0,-111.0,-67.0,127.0,127.0,127.0,116.0,87.0,-115.0
127.0,128.0,126.0,127.0,127.0,127.0,107.0,128.0,28.0,-111.0,-67.0,127.0,127.0,127.0,116.0,87.0,-115.0
127.0,128.0,126.0,128.0,127.0,127.0,107.0,128.0,28.0,-111.0,-67.0,127.0,127.0,127.0,116.0,87.0,-115.0
127.0,128.0,126.0,128.0,127.0,127.0,107.0,129.0,28.0,-111.0,-67.0,127.0,127.0,127.0,116.0,87.0,-115.0
127.0,128.0,126.0,128.0,127.0,127.0,107.0,128.0,28.0,-111.0,-67.0,127.0,127.0,127.0,116.0,87.0,-115.0
127.0,128.0,126.0,128.0,127.0,127.0,107.0,128.0,28.0,-111.0,-67.0,127.0,127.0,127.0,116.0,87.0,-115.0
127.0,128.0,127.0,128.0,127.0,127.0,106.0,128.0,28.0,-111.0,-67.0,127.0,127.0,127.0,116.0,87.0,-115.0
127.0,128.0,127.0,128.0,127.0,128.0,106.0,128.0,28.0,-111.0,-67.0,127.0,127.0,127.0,116.0,87.0,-115.0
127.0,128.0,126.0,128.0,127.0,127.0,106.0,128.0,28.0,-111.0,-67.0,127.0,127.0,127.0,116.0,87.0,-115.0
127.0,128.0,126.0,128.0,127.0,127.0,107.0,128.0,28.0,-111.0,-67.0,127.0,127.0,127.0,116.0,87.0,-115.0
127.0,128.0,127.0,128.0,127.0,127.0,107.0,128.0,28.0,-111.0,-67.0,127.0,127.0,127.0,116.0,87.0,-115.0
127.0,128.0,126.0,128.0,127.0,127.0,106.0,128.0,28.0,-111.0,-67.0,127.0,127.0,127.0,116.0,87.0,-115.0
127.0,128.0,127.0,128.0,127.0,127.0,106.0,128.0,28.0,-111.0,-67.0,127.0,127.0,127.0,116.0,87.0,-115.0
127.0,128.0,127.0,128.0,127.0,127.0,107.0,128.0,28.0,-111.0,-67.0,127.0,127.0,127.0,116.0,87.0,-115.0
127.0,128.0,127.0,127.0,127.0,127.0,107.0,128.0,28.0,-111.0,-67.0,127.0,127.0,127.0,116.0,87.0,-115.0
127.0,128.0,127.0,127.0,127.0,127.0,107.0,128.0,28.0,-111.0,-67.0,127.0,127.0,127.0,116.0,87.0,-115.0
127.0,128.0,127.0,128.0,128.0,128.0,107.0,128.0,28.0,-111.0,-67.0,127.0,127.0,127.0,116.0,87.0,-115.0
127.0,128.0,127.0,128.0,128.0,128.0,107.0,129.0,28.0,-111.0,-67.0,127.0,127.0,127.0,116.0,87.0,-115.0
127.0,128.0,127.0,128.0,128.0,128.0,107.0,128.0,28.0,-111.0,-67.0,127.0,127.0,127.0,116.0,87.0,-115.0
127.0,128.0,127.0,128.0,127.0,128.0,107.0,129.0,28.0,-111.0,-67.0,127.0,127.0,127.0,116.0,87.0,-115.0
127.0,128.0,127.0,128.0,127.0,128.0,108.0,129.0,28.0,-111.0,-67.0,127.0,127.0,127.0,116.0,87.0,-115.0
127.0,127.0,127.0,128.0,127.0,128.0,108.0,128.0,28.0,-111.0,-67.0,127.0,127.0,127.0,116.0,87.0,-115.0
127.0,127.0,127.0,128.0,127.0,128.0,108.0,128.0,28.0,-111.0,-67.0,127.0,127.0,127.0,116.0,87.0,-115.0
127.0,127.0,127.0,128.0,127.0,128.0,108.0,128.0,28.0,-111.0,-67.0,127.0,127.0,127.0,116.0,87.0,-115.0
127.0,127.0,127.0,128.0,127.0,128.0,107.0,128.0,28.0,-111.0,-67.0,127.0,127.0,127.0,116.0,87.0,-115.0
127.0,128.0,127.0,128.0,128.0,127.0,106.0,128.0,28.0,-111.0,-67.0,127.0,127.0,127.0,116.0,87.0,-115.0
127.0,128.0,127.0,128.0,127.0,128.0,107.0,128.0,28.0,-111.0,-67.0,127.0,127.0,127.0,116.0,87.0,-115.0
127.0,128.0,127.0,128.0,127.0,128.0,107.0,128.0,28.0,-111.0,-67.0,127.0,127.0,127.0,116.0,87.0,-115.0
127.0,128.0,127.0,128.0,127.0,128.0,107.0,129.0,28.0,-111.0,-67.0,127.0,127.0,127.0,116.0,87.0,-115.0
127.0,128.0,127.0,128.0,127.0,128.0,107.0,129.0,28.0,-111.0,-67.0,127.0,127.0,127.0,116.0,87.0,-115.0
127.0,128.0,127.0,128.0,127.0,128.0,107.0,129.0,28.0,-111.0,-67.0,127.0,127.0,127.0,116.0,87.0,-115.0
127.0,127.0,127.0,128.0,127.0,128.0,107.0,129.0,28.0,-111.0,-67.0,127.0,127.0,127.0,116.0,87.0,-115.0
127.0,127.0,127.0,128.0,127.0,128.0,106.0,129.0,28.0,-111.0,-67.0,127.0,127.0,127.0,116.0,87.0,-115.0
127.0,127.0,127.0,128.0,127.0,128.0,107.0,128.0,28.0,-111.0,-67.0,127.0,127.0,127.0,116.0,87.0,-115.0
127.0,127.0,127.0,128.0,127.0,128.0,107.0,128.0,28.0,-111.0,-67.0,127.0,127.0,127.0,116.0,87.0,-115.0
127.0,128.0,127.0,128.0,127.0,128.0,107.0,128.0,28.0,-111.0,-67.0,127.0,127.0,127.0,116.0,87.0,-115.0
127.0,128.0,127.0,128.0,127.0,128.0,106.0,129.0,28.0,-111.0,-67.0,127.0,127.0,127.0,116.0,87.0,-115.0
127.0,128.0,127.0,128.0,127.0,128.0,106.0,129.0,28.0,-111.0,-67.0,127.0,127.0,127.0,116.0,87.0,-115.0
127.0,128.0,127.0,128.0,127.0,127.0,106.0,129.0,28.0,-111.0,-67.0,127.0,127.0,127.0,116.0,87.0,-115.0
127.0,128.0,127.0,128.0,127.0,127.0,106.0,128.0,28.0,-111.0,-67.0,127.0,127.0,127.0,116.0,87.0,-115.0
127.0,128.0,127.0,128.0,127.0,127.0,106.0,128.0,28.0,-111.0,-67.0,127.0,127.0,127.0,116.0,87.0,-115.0
127.0,128.0,127.0,128.0,127.0,127.0,107.0,128.0,28.0,-111.0,-67.0,127.0,127.0,127.0,116.0,87.0,-115.0
127.0,128.0,127.0,128.0,127.0,127.0,107.0,128.0,28.0,-111.0,-67.0,127.0,127.0,127.0,116.0,87.0,-115.0
127.0,128.0,127.0,127.0,127.0,127.0,106.0,128.0,28.0,-111.0,-67.0,127.0,127.0,127.0,116.0,87.0,-115.0
127.0,128.0,127.0,127.0,127.0,127.0,107.0,129.0,28.0,-111.0,-67.0,127.0,127.0,127.0,116.0,87.0,-115.0
127.0,128.0,127.0,128.0,127.0,127.0,106.0,129.0,28.0,-111.0,-67.0,127.0,127.0,127.0,116.0,87.0,-115.0
127.0,128.0,126.0,128.0,127.0,127.0,106.0,129.0,28.0,-111.0,-67.0,127.0,127.0,127.0,116.0,87.0,-115.0
127.0,128.0,126.0,128.0,127.0,127.0,107.0,129.0,28.0,-111.0,-67.0,127.0,127.0,127.0,116.0,87.0,-115.0
127.0,128.0,126.0,127.0,127.0,127.0,106.0,129.0,28.0,-111.0,-67.0,127.0,127.0,127.0,116.0,87.0,-115.0
127.0,128.0,125.0,127.0,127.0,127.0,106.0,129.0,28.0,-111.0,-67.0,127.0,127.0,127.0,116.0,87.0,-115.0
127.0,128.0,126.0,127.0,127.0,127.0,106.0,129.0,28.0,-111.0,-67.0,127.0,127.0,127.0,116.0,87.0,-115.0
127.0,128.0,126.0,127.0,127.0,127.0,106.0,129.0,28.0,-111.0,-67.0,127.0,127.0,127.0,116.0,87.0,-115.0
127.0,128.0,126.0,128.0,127.0,127.0,106.0,128.0,28.0,-111.0,-67.0,127.0,127.0,127.0,116.0,87.0,-115.0
127.0,128.0,126.0,128.0,127.0,127.0,106.0,128.0,28.0,-111.0,-67.0,127.0,127.0,127.0,116.0,87.0,-115.0
127.0,128.0,126.0,128.0,127.0,127.0,107.0,129.0,28.0,-111.0,-67.0,127.0,127.0,127.0,116.0,87.0,-115.0
127.0,128.0,126.0,128.0,127.0,127.0,106.0,129.0,28.0,-111.0,-67.0,127.0,127.0,127.0,116.0,87.0,-115.0
126.0,126.0,124.0,124.0,127.0,127.0,106.0,128.0,28.0,-111.0,-67.0,127.0,127.0,127.0,116.0,87.0,-115.0
126.0,126.0,123.0,124.0,127.0,127.0,108.0,128.0,28.0,-111.0,-67.0,127.0,127.0,127.0,116.0,87.0,-115.0
126.0,126.0,122.0,123.0,127.0,127.0,113.0,128.0,28.0,-111.0,-67.0,127.0,127.0,127.0,116.0,87.0,-115.0
126.0,126.0,122.0,123.0,127.0,127.0,113.0,128.0,28.0,-111.0,-67.0,127.0,127.0,127.0,116.0,87.0,-115.0
126.0,126.0,122.0,122.0,126.0,127.0,113.0,128.0,28.0,-111.0,-67.0,127.0,127.0,127.0,116.0,87.0,-115.0
126.0,126.0,125.0,124.0,127.0,127.0,112.0,128.0,28.0,-111.0,-67.0,127.0,127.0,127.0,116.0,87.0,-115.0
126.0,126.0,125.0,124.0,127.0,127.0,113.0,128.0,28.0,-111.0,-67.0,127.0,127.0,127.0,116.0,87.0,-115.0
126.0,127.0,125.0,124.0,127.0,127.0,109.0,128.0,28.0,-111.0,-67.0,127.0,127.0,127.0,116.0,87.0,-115.0
126.0,126.0,124.0,124.0,127.0,127.0,107.0,128.0,28.0,-111.0,-67.0,127.0,127.0,127.0,116.0,87.0,-115.0
126.0,126.0,124.0,124.0,127.0,127.0,106.0,128.0,28.0,-111.0,-67.0,127.0,127.0,127.0,116.0,87.0,-115.0
125.0,125.0,91.0,124.0,127.0,126.0,112.0,126.0,28.0,-111.0,-67.0,127.0,127.0,127.0,116.0,87.0,-115.0
125.0,124.0,90.0,124.0,127.0,126.0,112.0,126.0,28.0,-111.0,-67.0,127.0,127.0,127.0,116.0,87.0,-115.0
125.0,124.0,90.0,124.0,127.0,126.0,112.0,126.0,28.0,-111.0,-67.0,127.0,127.0,127.0,116.0,87.0,-115.0
125.0,123.0,90.0,125.0,127.0,126.0,112.0,125.0,28.0,-111.0,-67.0,127.0,127.0,127.0,116.0,87.0,-115.0
125.0,125.0,98.0,124.0,127.0,127.0,113.0,127.0,28.0,-111.0,-67.0,127.0,127.0,127.0,116.0,87.0,-115.0
125.0,126.0,97.0,124.0,127.0,127.0,113.0,127.0,28.0,-111.0,-67.0,127.0,127.0,127.0,116.0,87.0,-115.0
125.0,126.0,96.0,124.0,127.0,127.0,112.0,127.0,28.0,-111.0,-67.0,127.0,127.0,127.0,116.0,87.0,-115.0
125.0,125.0,95.0,124.0,127.0,127.0,112.0,127.0,28.0,-111.0,-67.0,127.0,127.0,127.0,116.0,87.0,-115.0
125.0,125.0,94.0,124.0,127.0,127.0,112.0,126.0,28.0,-111.0,-67.0,127.0,127.0,127.0,116.0,87.0,-115.0
125.0,125.0,93.0,124.0,127.0,127.0,112.0,126.0,28.0,-111.0,-67.0,127.0,127.0,127.0,116.0,87.0,-115.0
123.0,131.0,146.0,132.0,131.0,125.0,109.0,121.0,28.0,-111.0,-67.0,127.0,127.0,127.0,116.0,87.0,-115.0
123.0,131.0,147.0,132.0,131.0,125.0,109.0,121.0,28.0,-111.0,-67.0,127.0,127.0,127.0,116.0,87.0,-115.0
122.0,130.0,149.0,132.0,131.0,124.0,109.0,120.0,28.0,-111.0,-67.0,127.0,127.0,127.0,116.0,87.0,-115.0
124.0,129.0,151.0,136.0,132.0,126.0,111.0,126.0,28.0,-111.0,-67.0,127.0,127.0,127.0,116.0,87.0,-115.0
124.0,130.0,151.0,135.0,132.0,125.0,111.0,126.0,28.0,-111.0,-67.0,127.0,127.0,127.0,116.0,87.0,-115.0
123.0,131.0,150.0,134.0,131.0,125.0,110.0,125.0,28.0,-111.0,-67.0,127.0,127.0,127.0,116.0,87.0,-115.0
123.0,131.0,148.0,133.0,131.0,125.0,110.0,124.0,28.0,-111.0,-67.0,127.0,127.0,127.0,116.0,87.0,-115.0
123.0,131.0,147.0,133.0,131.0,125.0,110.0,123.0,28.0,-111.0,-67.0,127.0,127.0,127.0,116.0,87.0,-115.0
123.0,132.0,146.0,132.0,131.0,125.0,109.0,122.0,28.0,-111.0,-67.0,127.0,127.0,127.0,116.0,87.0,-115.0
123.0,132.0,146.0,132.0,131.0,125.0,109.0,122.0,28.0,-111.0,-67.0,127.0,127.0,127.0,116.0,87.0,-115.0
128.0,130.0,175.0,137.0,130.0,125.0,111.0,147.0,29.0,-112.0,-66.0,-128.0,127.0,127.0,116.0,87.0,-115.0
127.0,129.0,177.0,135.0,129.0,125.0,110.0,148.0,29.0,-112.0,-66.0,-128.0,127.0,127.0,116.0,87.0,-115.0
125.0,131.0,165.0,131.0,130.0,124.0,109.0,123.0,29.0,-112.0,-66.0,-128.0,127.0,127.0,116.0,87.0,-115.0
125.0,133.0,168.0,133.0,130.0,125.0,109.0,126.0,29.0,-112.0,-66.0,-128.0,127.0,127.0,116.0,87.0,-115.0
126.0,134.0,170.0,134.0,131.0,125.0,109.0,130.0,29.0,-112.0,-66.0,-128.0,127.0,127.0,116.0,87.0,-115.0
127.0,134.0,171.0,136.0,131.0,125.0,110.0,134.0,29.0,-112.0,-66.0,-128.0,127.0,127.0,116.0,87.0,-115.0
127.0,133.0,172.0,136.0,131.0,125.0,110.0,137.0,29.0,-112.0,-66.0,-128.0,127.0,127.0,116.0,87.0,-115.0
128.0,132.0,172.0,137.0,131.0,125.0,110.0,140.0,29.0,-112.0,-66.0,-128.0,127.0,127.0,116.0,87.0,-115.0
128.0,131.0,173.0,138.0,131.0,125.0,111.0,143.0,29.0,-112.0,-66.0,-128.0,127.0,127.0,116.0,87.0,-115.0
128.0,130.0,174.0,138.0,130.0,125.0,111.0,145.0,29.0,-112.0,-66.0,-128.0,127.0,127.0,116.0,87.0,-115.0
129.0,136.0,195.0,130.0,132.0,130.0,111.0,141.0,29.0,-114.0,-66.0,-128.0,127.0,127.0,117.0,87.0,-115.0
135.0,142.0,193.0,123.0,137.0,130.0,112.0,145.0,29.0,-114.0,-66.0,-128.0,127.0,127.0,117.0,87.0,-115.0
134.0,140.0,191.0,123.0,136.0,130.0,112.0,144.0,29.0,-114.0,-66.0,-128.0,127.0,127.0,117.0,87.0,-115.0
133.0,139.0,190.0,123.0,136.0,130.0,112.0,143.0,29.0,-114.0,-66.0,-128.0,127.0,127.0,117.0,87.0,-115.0
132.0,138.0,190.0,123.0,135.0,130.0,111.0,143.0,29.0,-114.0,-66.0,-128.0,127.0,127.0,117.0,87.0,-115.0
131.0,138.0,190.0,123.0,135.0,130.0,111.0,142.0,29.0,-114.0,-66.0,-128.0,127.0,127.0,117.0,87.0,-115.0
131.0,137.0,190.0,124.0,134.0,130.0,111.0,142.0,29.0,-114.0,-66.0,-128.0,127.0,127.0,117.0,87.0,-115.0
130.0,136.0,191.0,126.0,133.0,130.0,111.0,142.0,29.0,-114.0,-66.0,-128.0,127.0,127.0,117.0,87.0,-115.0
129.0,136.0,191.0,127.0,132.0,130.0,111.0,142.0,29.0,-114.0,-66.0,-128.0,127.0,127.0,117.0,87.0,-115.0
129.0,136.0,193.0,129.0,132.0,130.0,111.0,142.0,29.0,-114.0,-66.0,-128.0,127.0,127.0,117.0,87.0,-115.0
132.0,143.0,129.0,136.0,134.0,130.0,112.0,137.0,31.0,-114.0,-67.0,-128.0,127.0,127.0,117.0,87.0,-115.0
132.0,142.0,126.0,136.0,134.0,130.0,112.0,136.0,31.0,-114.0,-67.0,-128.0,127.0,127.0,117.0,87.0,-115.0
132.0,140.0,122.0,135.0,134.0,130.0,111.0,135.0,31.0,-114.0,-67.0,-128.0,127.0,127.0,117.0,87.0,-115.0
132.0,138.0,117.0,134.0,134.0,130.0,111.0,134.0,31.0,-114.0,-67.0,-128.0,127.0,127.0,117.0,87.0,-115.0
131.0,137.0,114.0,134.0,134.0,130.0,111.0,133.0,31.0,-114.0,-67.0,-128.0,127.0,127.0,117.0,87.0,-115.0
131.0,136.0,111.0,133.0,134.0,130.0,111.0,131.0,31.0,-114.0,-67.0,-128.0,127.0,127.0,117.0,87.0,-115.0
131.0,134.0,108.0,132.0,133.0,129.0,110.0,130.0,31.0,-114.0,-67.0,-128.0,127.0,127.0,117.0,87.0,-115.0
131.0,133.0,106.0,132.0,133.0,129.0,110.0,129.0,31.0,-114.0,-67.0,-128.0,127.0,127.0,117.0,87.0,-115.0
130.0,132.0,107.0,132.0,133.0,129.0,109.0,128.0,31.0,-114.0,-67.0,-128.0,127.0,127.0,117.0,87.0,-115.0
130.0,132.0,108.0,132.0,133.0,129.0,109.0,127.0,31.0,-114.0,-67.0,-128.0,127.0,127.0,117.0,87.0,-115.0
133.0,128.0,127.0,141.0,134.0,131.0,112.0,138.0,31.0,-116.0,-69.0,-127.0,127.0,127.0,118.0,87.0,-115.0
133.0,128.0,127.0,141.0,134.0,131.0,112.0,139.0,31.0,-116.0,-69.0,-127.0,127.0,127.0,118.0,87.0,-115.0
133.0,127.0,128.0,141.0,134.0,131.0,112.0,141.0,31.0,-116.0,-69.0,-127.0,127.0,127.0,118.0,87.0,-115.0
134.0,127.0,129.0,141.0,134.0,131.0,113.0,141.0,31.0,-116.0,-69.0,-127.0,127.0,127.0,118.0,87.0,-115.0
134.0,126.0,130.0,141.0,134.0,131.0,113.0,142.0,31.0,-116.0,-69.0,-127.0,127.0,127.0,118.0,87.0,-115.0
134.0,125.0,131.0,141.0,134.0,131.0,114.0,143.0,31.0,-116.0,-69.0,-127.0,127.0,127.0,118.0,87.0,-115.0
134.0,125.0,132.0,141.0,134.0,131.0,113.0,143.0,31.0,-116.0,-69.0,-127.0,127.0,127.0,118.0,87.0,-115.0
134.0,125.0,132.0,140.0,133.0,131.0,112.0,143.0,31.0,-116.0,-69.0,-127.0,127.0,127.0,118.0,87.0,-115.0
134.0,125.0,133.0,139.0,133.0,130.0,112.0,142.0,31.0,-116.0,-69.0,-127.0,127.0,127.0,118.0,87.0,-115.0
132.0,129.0,126.0,141.0,135.0,131.0,112.0,136.0,31.0,-116.0,-69.0,-127.0,127.0,127.0,118.0,87.0,-115.0
128.0,128.0,125.0,132.0,126.0,129.0,110.0,121.0,31.0,-114.0,-69.0,-127.0,127.0,127.0,118.0,87.0,-115.0
128.0,128.0,123.0,132.0,126.0,129.0,110.0,121.0,31.0,-114.0,-69.0,-127.0,127.0,127.0,118.0,87.0,-115.0
128.0,128.0,121.0,132.0,126.0,129.0,110.0,122.0,31.0,-114.0,-69.0,-127.0,127.0,127.0,118.0,87.0,-115.0
128.0,128.0,119.0,132.0,125.0,129.0,110.0,122.0,31.0,-114.0,-69.0,-127.0,127.0,127.0,118.0,87.0,-115.0
128.0,129.0,118.0,132.0,126.0,129.0,110.0,122.0,31.0,-114.0,-69.0,-127.0,127.0,127.0,118.0,87.0,-115.0
128.0,129.0,118.0,132.0,125.0,129.0,110.0,122.0,31.0,-114.0,-69.0,-127.0,127.0,127.0,118.0,87.0,-115.0
128.0,130.0,117.0,132.0,125.0,129.0,110.0,122.0,31.0,-114.0,-69.0,-127.0,127.0,127.0,118.0,87.0,-115.0
128.0,130.0,117.0,132.0,125.0,130.0,110.0,122.0,31.0,-114.0,-69.0,-127.0,127.0,127.0,118.0,87.0,-115.0
127.0,127.0,129.0,132.0,126.0,129.0,110.0,121.0,31.0,-114.0,-69.0,-127.0,127.0,127.0,118.0,87.0,-115.0
127.0,127.0,127.0,132.0,126.0,129.0,110.0,121.0,31.0,-114.0,-69.0,-127.0,127.0,127.0,118.0,87.0,-115.0
120.0,118.0,76.0,141.0,126.0,132.0,114.0,124.0,31.0,-108.0,-68.0,-127.0,127.0,-128.0,118.0,87.0,-115.0
119.0,117.0,75.0,141.0,126.0,131.0,113.0,124.0,31.0,-108.0,-68.0,-127.0,127.0,-128.0,118.0,87.0,-115.0
118.0,115.0,75.0,140.0,126.0,131.0,113.0,125.0,31.0,-108.0,-68.0,-127.0,127.0,-128.0,118.0,87.0,-115.0
117.0,113.0,76.0,140.0,127.0,131.0,112.0,125.0,31.0,-108.0,-68.0,-127.0,127.0,-128.0,118.0,87.0,-115.0
117.0,111.0,78.0,140.0,127.0,131.0,112.0,125.0,31.0,-108.0,-68.0,-127.0,127.0,-128.0,118.0,87.0,-115.0
117.0,110.0,80.0,140.0,127.0,130.0,112.0,125.0,31.0,-108.0,-68.0,-127.0,127.0,-128.0,118.0,87.0,-115.0
117.0,108.0,81.0,140.0,127.0,130.0,111.0,125.0,31.0,-108.0,-68.0,-127.0,127.0,-128.0,118.0,87.0,-115.0
123.0,122.0,81.0,142.0,127.0,133.0,115.0,124.0,31.0,-108.0,-68.0,-127.0,127.0,-128.0,118.0,87.0,-115.0
122.0,121.0,79.0,142.0,126.0,132.0,115.0,124.0,31.0,-108.0,-68.0,-127.0,127.0,-128.0,118.0,87.0,-115.0
121.0,119.0,77.0,141.0,126.0,132.0,114.0,124.0,31.0,-108.0,-68.0,-127.0,127.0,-128.0,118.0,87.0,-115.0
125.0,128.0,80.0,138.0,127.0,128.0,107.0,114.0,31.0,-105.0,-68.0,-128.0,127.0,-128.0,118.0,87.0,-115.0
126.0,129.0,80.0,138.0,127.0,128.0,107.0,117.0,31.0,-105.0,-68.0,-128.0,127.0,-128.0,118.0,87.0,-115.0
127.0,131.0,80.0,138.0,127.0,128.0,108.0,121.0,31.0,-105.0,-68.0,-128.0,127.0,-128.0,118.0,87.0,-115.0
127.0,131.0,79.0,137.0,127.0,128.0,107.0,124.0,31.0,-105.0,-68.0,-128.0,127.0,-128.0,118.0,87.0,-115.0
128.0,132.0,78.0,137.0,126.0,128.0,107.0,127.0,31.0,-105.0,-68.0,-128.0,127.0,-128.0,118.0,87.0,-115.0
128.0,132.0,80.0,136.0,126.0,127.0,106.0,129.0,31.0,-105.0,-68.0,-128.0,127.0,-128.0,118.0,87.0,-115.0
122.0,126.0,80.0,138.0,127.0,127.0,112.0,106.0,31.0,-105.0,-68.0,-128.0,127.0,-128.0,118.0,87.0,-115.0
123.0,126.0,79.0,138.0,127.0,127.0,107.0,107.0,31.0,-105.0,-68.0,-128.0,127.0,-128.0,118.0,87.0,-115.0
124.0,126.0,78.0,138.0,127.0,127.0,106.0,108.0,31.0,-105.0,-68.0,-128.0,127.0,-128.0,118.0,87.0,-115.0
124.0,127.0,79.0,138.0,127.0,128.0,107.0,111.0,31.0,-105.0,-68.0,-128.0,127.0,-128.0,118.0,87.0,-115.0
125.0,125.0,103.0,136.0,125.0,127.0,112.0,133.0,29.0,-104.0,-70.0,-128.0,127.0,-128.0,118.0,87.0,-115.0
125.0,124.0,103.0,136.0,125.0,127.0,112.0,133.0,29.0,-104.0,-70.0,-128.0,127.0,-128.0,118.0,87.0,-115.0
125.0,124.0,103.0,136.0,125.0,127.0,112.0,133.0,29.0,-104.0,-70.0,-128.0,127.0,-128.0,118.0,87.0,-115.0
125.0,124.0,103.0,136.0,125.0,127.0,112.0,133.0,29.0,-104.0,-70.0,-128.0,127.0,-128.0,118.0,87.0,-115.0
125.0,124.0,104.0,136.0,126.0,127.0,112.0,133.0,29.0,-104.0,-70.0,-128.0,127.0,-128.0,118.0,87.0,-115.0
124.0,125.0,93.0,134.0,124.0,126.0,112.0,133.0,29.0,-104.0,-70.0,-128.0,127.0,-128.0,118.0,87.0,-115.0
124.0,126.0,95.0,134.0,124.0,126.0,112.0,133.0,29.0,-104.0,-70.0,-128.0,127.0,-128.0,118.0,87.0,-115.0
124.0,126.0,98.0,135.0,125.0,126.0,111.0,133.0,29.0,-104.0,-70.0,-128.0,127.0,-128.0,118.0,87.0,-115.0
124.0,127.0,101.0,135.0,125.0,126.0,112.0,133.0,29.0,-104.0,-70.0,-128.0,127.0,-128.0,118.0,87.0,-115.0
124.0,126.0,103.0,136.0,125.0,126.0,113.0,132.0,29.0,-104.0,-70.0,-128.0,127.0,-128.0,118.0,87.0,-115.0
125.0,122.0,128.0,140.0,127.0,125.0,109.0,130.0,26.0,-102.0,-71.0,-128.0,127.0,-128.0,117.0,87.0,-115.0
125.0,122.0,129.0,140.0,127.0,125.0,109.0,130.0,26.0,-102.0,-71.0,-128.0,127.0,-128.0,117.0,87.0,-115.0
124.0,121.0,129.0,140.0,127.0,125.0,109.0,130.0,26.0,-102.0,-71.0,-128.0,127.0,-128.0,117.0,87.0,-115.0
124.0,121.0,128.0,140.0,126.0,124.0,109.0,130.0,26.0,-102.0,-71.0,-128.0,127.0,-128.0,117.0,87.0,-115.0
124.0,117.0,122.0,139.0,128.0,125.0,109.0,129.0,26.0,-102.0,-71.0,-128.0,127.0,-128.0,117.0,87.0,-115.0
125.0,118.0,123.0,139.0,128.0,125.0,109.0,129.0,26.0,-102.0,-71.0,-128.0,127.0,-128.0,117.0,87.0,-115.0
125.0,119.0,123.0,139.0,128.0,125.0,110.0,129.0,26.0,-102.0,-71.0,-128.0,127.0,-128.0,117.0,87.0,-115.0
125.0,121.0,125.0,139.0,128.0,125.0,109.0,129.0,26.0,-102.0,-71.0,-128.0,127.0,-128.0,117.0,87.0,-115.0
125.0,122.0,126.0,140.0,128.0,125.0,109.0,129.0,26.0,-102.0,-71.0,-128.0,127.0,-128.0,117.0,87.0,-115.0
125.0,122.0,127.0,140.0,128.0,125.0,109.0,129.0,26.0,-102.0,-71.0,-128.0,127.0,-128.0,117.0,87.0,-115.0
125.0,132.0,133.0,140.0,125.0,126.0,111.0,126.0,23.0,-99.0,-72.0,-128.0,127.0,-128.0,116.0,87.0,-114.0
125.0,133.0,136.0,140.0,125.0,126.0,111.0,126.0,23.0,-99.0,-72.0,-128.0,127.0,-128.0,116.0,87.0,-114.0
125.0,132.0,136.0,140.0,125.0,126.0,111.0,126.0,23.0,-99.0,-72.0,-128.0,127.0,-128.0,116.0,87.0,-114.0
126.0,133.0,130.0,138.0,126.0,126.0,112.0,126.0,23.0,-99.0,-72.0,-128.0,127.0,-128.0,116.0,87.0,-114.0
126.0,132.0,128.0,139.0,126.0,126.0,112.0,126.0,23.0,-99.0,-72.0,-128.0,127.0,-128.0,116.0,87.0,-114.0
126.0,131.0,127.0,139.0,126.0,126.0,111.0,126.0,23.0,-99.0,-72.0,-128.0,127.0,-128.0,116.0,87.0,-114.0
125.0,131.0,127.0,139.0,126.0,126.0,112.0,126.0,23.0,-99.0,-72.0,-128.0,127.0,-128.0,116.0,87.0,-114.0
125.0,131.0,127.0,140.0,126.0,126.0,112.0,126.0,23.0,-99.0,-72.0,-128.0,127.0,-128.0,116.0,87.0,-114.0
125.0,131.0,127.0,140.0,126.0,126.0,112.0,126.0,23.0,-99.0,-72.0,-128.0,127.0,-128.0,116.0,87.0,-114.0
125.0,132.0,130.0,140.0,126.0,126.0,111.0,126.0,23.0,-99.0,-72.0,-128.0,127.0,-128.0,116.0,87.0,-114.0
129.0,131.0,136.0,133.0,126.0,129.0,108.0,126.0,22.0,-98.0,-71.0,127.0,127.0,-128.0,116.0,87.0,-114.0
129.0,130.0,137.0,134.0,126.0,129.0,108.0,126.0,22.0,-98.0,-71.0,127.0,127.0,-128.0,116.0,87.0,-114.0
126.0,137.0,142.0,130.0,125.0,126.0,111.0,127.0,22.0,-98.0,-71.0,127.0,127.0,-128.0,116.0,87.0,-114.0
127.0,137.0,140.0,130.0,125.0,126.0,112.0,127.0,22.0,-98.0,-71.0,127.0,127.0,-128.0,116.0,87.0,-114.0
127.0,137.0,139.0,130.0,125.0,126.0,112.0,127.0,22.0,-98.0,-71.0,127.0,127.0,-128.0,116.0,87.0,-114.0
127.0,137.0,139.0,131.0,126.0,127.0,113.0,126.0,22.0,-98.0,-71.0,127.0,127.0,-128.0,116.0,87.0,-114.0
128.0,136.0,139.0,131.0,126.0,127.0,109.0,126.0,22.0,-98.0,-71.0,127.0,127.0,-128.0,116.0,87.0,-114.0
128.0,135.0,138.0,132.0,126.0,128.0,107.0,126.0,22.0,-98.0,-71.0,127.0,127.0,-128.0,116.0,87.0,-114.0
128.0,133.0,136.0,132.0,126.0,128.0,107.0,126.0,22.0,-98.0,-71.0,127.0,127.0,-128.0,116.0,87.0,-114.0
128.0,132.0,136.0,133.0,126.0,128.0,108.0,126.0,22.0,-98.0,-71.0,127.0,127.0,-128.0,116.0,87.0,-114.0
123.0,124.0,114.0,135.0,123.0,127.0,112.0,125.0,22.0,-100.0,-71.0,127.0,127.0,-128.0,115.0,87.0,-114.0
124.0,124.0,113.0,135.0,124.0,127.0,113.0,125.0,22.0,-100.0,-71.0,127.0,127.0,-128.0,115.0,87.0,-114.0
124.0,125.0,111.0,135.0,124.0,127.0,112.0,125.0,22.0,-100.0,-71.0,127.0,127.0,-128.0,115.0,87.0,-114.0
125.0,126.0,110.0,135.0,124.0,127.0,109.0,125.0,22.0,-100.0,-71.0,127.0,127.0,-128.0,115.0,87.0,-114.0
125.0,127.0,107.0,135.0,124.0,127.0,107.0,125.0,22.0,-100.0,-71.0,127.0,127.0,-128.0,115.0,87.0,-114.0
126.0,127.0,105.0,135.0,124.0,127.0,107.0,125.0,22.0,-100.0,-71.0,127.0,127.0,-128.0,115.0,87.0,-114.0
126.0,127.0,102.0,135.0,124.0,128.0,107.0,125.0,22.0,-100.0,-71.0,127.0,127.0,-128.0,115.0,87.0,-114.0
126.0,127.0,100.0,134.0,124.0,128.0,107.0,125.0,22.0,-100.0,-71.0,127.0,127.0,-128.0,115.0,87.0,-114.0
126.0,127.0,99.0,134.0,124.0,128.0,107.0,125.0,22.0,-100.0,-71.0,127.0,127.0,-128.0,115.0,87.0,-114.0
126.0,128.0,98.0,133.0,124.0,128.0,107.0,125.0,22.0,-100.0,-71.0,127.0,127.0,-128.0,115.0,87.0,-114.0
127.0,126.0,110.0,133.0,126.0,127.0,113.0,121.0,23.0,-103.0,-73.0,127.0,127.0,127.0,115.0,87.0,-114.0
127.0,126.0,110.0,133.0,125.0,127.0,113.0,121.0,23.0,-103.0,-73.0,127.0,127.0,127.0,115.0,87.0,-114.0
127.0,126.0,110.0,133.0,125.0,127.0,112.0,122.0,23.0,-103.0,-73.0,127.0,127.0,127.0,115.0,87.0,-114.0
127.0,126.0,111.0,133.0,125.0,126.0,112.0,122.0,23.0,-103.0,-73.0,127.0,127.0,127.0,115.0,87.0,-114.0
127.0,126.0,111.0,133.0,125.0,126.0,112.0,123.0,23.0,-103.0,-73.0,127.0,127.0,127.0,115.0,87.0,-114.0
127.0,126.0,112.0,132.0,125.0,126.0,112.0,124.0,23.0,-103.0,-73.0,127.0,127.0,127.0,115.0,87.0,-114.0
127.0,126.0,113.0,133.0,125.0,126.0,112.0,124.0,23.0,-103.0,-73.0,127.0,127.0,127.0,115.0,87.0,-114.0
127.0,126.0,113.0,133.0,125.0,126.0,112.0,125.0,23.0,-103.0,-73.0,127.0,127.0,127.0,115.0,87.0,-114.0
127.0,127.0,113.0,133.0,125.0,126.0,111.0,125.0,23.0,-103.0,-73.0,127.0,127.0,127.0,115.0,87.0,-114.0
127.0,126.0,111.0,133.0,126.0,127.0,113.0,121.0,23.0,-103.0,-73.0,127.0,127.0,127.0,115.0,87.0,-114.0
126.0,124.0,120.0,135.0,127.0,129.0,110.0,128.0,23.0,-104.0,-74.0,127.0,127.0,127.0,115.0,87.0,-114.0
126.0,124.0,118.0,135.0,127.0,129.0,110.0,129.0,23.0,-104.0,-74.0,127.0,127.0,127.0,115.0,87.0,-114.0
126.0,124.0,116.0,135.0,127.0,129.0,110.0,129.0,23.0,-104.0,-74.0,127.0,127.0,127.0,115.0,87.0,-114.0
126.0,125.0,115.0,136.0,128.0,130.0,110.0,129.0,23.0,-104.0,-74.0,127.0,127.0,127.0,115.0,87.0,-114.0
126.0,126.0,114.0,137.0,128.0,130.0,111.0,128.0,23.0,-104.0,-74.0,127.0,127.0,127.0,115.0,87.0,-114.0
126.0,126.0,114.0,137.0,128.0,130.0,111.0,128.0,23.0,-104.0,-74.0,127.0,127.0,127.0,115.0,87.0,-114.0
125.0,126.0,112.0,137.0,128.0,130.0,110.0,128.0,23.0,-104.0,-74.0,127.0,127.0,127.0,115.0,87.0,-114.0
125.0,125.0,112.0,137.0,128.0,129.0,110.0,127.0,23.0,-104.0,-74.0,127.0,127.0,127.0,115.0,87.0,-114.0
125.0,123.0,121.0,135.0,127.0,130.0,110.0,126.0,23.0,-104.0,-74.0,127.0,127.0,127.0,115.0,87.0,-114.0
125.0,124.0,121.0,135.0,127.0,129.0,110.0,127.0,23.0,-104.0,-74.0,127.0,127.0,127.0,115.0,87.0,-114.0
126.0,127.0,125.0,131.0,126.0,128.0,108.0,127.0,25.0,-104.0,-74.0,127.0,127.0,127.0,115.0,87.0,-114.0
125.0,127.0,125.0,131.0,126.0,128.0,107.0,127.0,25.0,-104.0,-74.0,127.0,127.0,127.0,115.0,87.0,-114.0
125.0,126.0,124.0,131.0,125.0,128.0,107.0,127.0,25.0,-104.0,-74.0,127.0,127.0,127.0,115.0,87.0,-114.0
125.0,125.0,122.0,131.0,125.0,127.0,107.0,127.0,25.0,-104.0,-74.0,127.0,127.0,127.0,115.0,87.0,-114.0
125.0,124.0,121.0,130.0,125.0,127.0,106.0,127.0,25.0,-104.0,-74.0,127.0,127.0,127.0,115.0,87.0,-114.0
125.0,124.0,120.0,130.0,125.0,127.0,106.0,126.0,25.0,-104.0,-74.0,127.0,127.0,127.0,115.0,87.0,-114.0
125.0,124.0,119.0,131.0,125.0,127.0,106.0,126.0,25.0,-104.0,-74.0,127.0,127.0,127.0,115.0,87.0,-114.0
126.0,128.0,123.0,131.0,126.0,129.0,108.0,126.0,25.0,-104.0,-74.0,127.0,127.0,127.0,115.0,87.0,-114.0
126.0,128.0,124.0,131.0,126.0,129.0,109.0,127.0,25.0,-104.0,-74.0,127.0,127.0,127.0,115.0,87.0,-114.0
126.0,128.0,125.0,131.0,126.0,128.0,108.0,127.0,25.0,-104.0,-74.0,127.0,127.0,127.0,115.0,87.0,-114.0
127.0,127.0,122.0,131.0,126.0,128.0,107.0,126.0,26.0,-104.0,-73.0,127.0,127.0,127.0,115.0,87.0,-114.0
127.0,127.0,122.0,131.0,127.0,128.0,108.0,127.0,26.0,-104.0,-73.0,127.0,127.0,127.0,115.0,87.0,-114.0
127.0,126.0,122.0,131.0,127.0,129.0,108.0,127.0,26.0,-104.0,-73.0,127.0,127.0,127.0,115.0,87.0,-114.0
126.0,126.0,122.0,131.0,127.0,129.0,109.0,127.0,26.0,-104.0,-73.0,127.0,127.0,127.0,115.0,87.0,-114.0
126.0,126.0,122.0,131.0,127.0,129.0,109.0,127.0,26.0,-104.0,-73.0,127.0,127.0,127.0,115.0,87.0,-114.0
126.0,125.0,122.0,131.0,127.0,129.0,109.0,127.0,26.0,-104.0,-73.0,127.0,127.0,127.0,115.0,87.0,-114.0
127.0,127.0,121.0,131.0,127.0,128.0,107.0,126.0,26.0,-104.0,-73.0,127.0,127.0,127.0,115.0,87.0,-114.0
127.0,127.0,122.0,131.0,127.0,128.0,107.0,126.0,26.0,-104.0,-73.0,127.0,127.0,127.0,115.0,87.0,-114.0
127.0,127.0,122.0,131.0,126.0,128.0,107.0,126.0,26.0,-104.0,-73.0,127.0,127.0,127.0,115.0,87.0,-114.0
127.0,127.0,122.0,131.0,126.0,128.0,107.0,126.0,26.0,-104.0,-73.0,127.0,127.0,127.0,115.0,87.0,-114.0
125.0,129.0,127.0,131.0,126.0,127.0,107.0,122.0,27.0,-105.0,-72.0,127.0,127.0,127.0,115.0,87.0,-114.0
125.0,129.0,127.0,131.0,126.0,127.0,107.0,122.0,27.0,-105.0,-72.0,127.0,127.0,127.0,115.0,87.0,-114.0
125.0,129.0,128.0,131.0,126.0,127.0,107.0,122.0,27.0,-105.0,-72.0,127.0,127.0,127.0,115.0,87.0,-114.0
125.0,128.0,128.0,131.0,126.0,127.0,107.0,122.0,27.0,-105.0,-72.0,127.0,127.0,127.0,115.0,87.0,-114.0
125.0,127.0,128.0,130.0,126.0,127.0,107.0,123.0,27.0,-105.0,-72.0,127.0,127.0,127.0,115.0,87.0,-114.0
126.0,130.0,130.0,130.0,125.0,127.0,106.0,123.0,27.0,-105.0,-72.0,127.0,127.0,127.0,115.0,87.0,-114.0
126.0,129.0,130.0,130.0,125.0,127.0,106.0,123.0,27.0,-105.0,-72.0,127.0,127.0,127.0,115.0,87.0,-114.0
126.0,129.0,129.0,130.0,125.0,127.0,106.0,123.0,27.0,-105.0,-72.0,127.0,127.0,127.0,115.0,87.0,-114.0
125.0,129.0,128.0,130.0,125.0,127.0,106.0,122.0,27.0,-105.0,-72.0,127.0,127.0,127.0,115.0,87.0,-114.0
125.0,129.0,128.0,130.0,125.0,127.0,107.0,122.0,27.0,-105.0,-72.0,127.0,127.0,127.0,115.0,87.0,-114.0
126.0,132.0,133.0,133.0,128.0,129.0,108.0,125.0,27.0,-104.0,-73.0,127.0,127.0,127.0,115.0,87.0,-114.0
126.0,132.0,132.0,133.0,128.0,128.0,108.0,126.0,27.0,-104.0,-73.0,127.0,127.0,127.0,115.0,87.0,-114.0
126.0,131.0,132.0,133.0,128.0,128.0,108.0,126.0,27.0,-104.0,-73.0,127.0,127.0,127.0,115.0,87.0,-114.0
126.0,131.0,131.0,132.0,128.0,128.0,108.0,127.0,27.0,-104.0,-73.0,127.0,127.0,127.0,115.0,87.0,-114.0
125.0,131.0,130.0,133.0,128.0,129.0,109.0,124.0,27.0,-104.0,-73.0,127.0,127.0,127.0,115.0,87.0,-114.0
125.0,131.0,130.0,134.0,129.0,129.0,109.0,124.0,27.0,-104.0,-73.0,127.0,127.0,127.0,115.0,87.0,-114.0
125.0,132.0,131.0,134.0,129.0,129.0,109.0,124.0,27.0,-104.0,-73.0,127.0,127.0,127.0,115.0,87.0,-114.0
125.0,132.0,132.0,134.0,129.0,129.0,109.0,124.0,27.0,-104.0,-73.0,127.0,127.0,127.0,115.0,87.0,-114.0
125.0,132.0,132.0,134.0,129.0,129.0,109.0,124.0,27.0,-104.0,-73.0,127.0,127.0,127.0,115.0,87.0,-114.0
125.0,132.0,133.0,134.0,128.0,129.0,109.0,125.0,27.0,-104.0,-73.0,127.0,127.0,127.0,115.0,87.0,-114.0
127.0,128.0,130.0,127.0,127.0,128.0,108.0,125.0,27.0,-103.0,-73.0,127.0,127.0,127.0,114.0,87.0,-114.0
127.0,128.0,131.0,127.0,127.0,128.0,109.0,125.0,27.0,-103.0,-73.0,127.0,127.0,127.0,114.0,87.0,-114.0
127.0,128.0,132.0,127.0,126.0,128.0,108.0,125.0,27.0,-103.0,-73.0,127.0,127.0,127.0,114.0,87.0,-114.0
127.0,125.0,122.0,130.0,129.0,130.0,111.0,125.0,27.0,-103.0,-73.0,127.0,127.0,127.0,114.0,87.0,-114.0
127.0,125.0,122.0,130.0,129.0,129.0,110.0,125.0,27.0,-103.0,-73.0,127.0,127.0,127.0,114.0,87.0,-114.0
127.0,126.0,122.0,130.0,129.0,129.0,110.0,125.0,27.0,-103.0,-73.0,127.0,127.0,127.0,114.0,87.0,-114.0
127.0,126.0,122.0,129.0,128.0,129.0,109.0,125.0,27.0,-103.0,-73.0,127.0,127.0,127.0,114.0,87.0,-114.0
127.0,127.0,123.0,129.0,128.0,129.0,109.0,124.0,27.0,-103.0,-73.0,127.0,127.0,127.0,114.0,87.0,-114.0
127.0,128.0,124.0,128.0,128.0,129.0,109.0,124.0,27.0,-103.0,-73.0,127.0,127.0,127.0,114.0,87.0,-114.0
127.0,128.0,127.0,128.0,128.0,129.0,108.0,124.0,27.0,-103.0,-73.0,127.0,127.0,127.0,114.0,87.0,-114.0
128.0,130.0,129.0,131.0,128.0,128.0,108.0,129.0,28.0,-103.0,-73.0,127.0,127.0,127.0,114.0,87.0,-114.0
128.0,131.0,129.0,131.0,128.0,128.0,108.0,129.0,28.0,-103.0,-73.0,127.0,127.0,127.0,114.0,87.0,-114.0
126.0,124.0,126.0,130.0,127.0,128.0,107.0,129.0,28.0,-103.0,-73.0,127.0,127.0,127.0,114.0,87.0,-114.0
126.0,124.0,127.0,130.0,127.0,128.0,107.0,129.0,28.0,-103.0,-73.0,127.0,127.0,127.0,114.0,87.0,-114.0
126.0,124.0,127.0,131.0,128.0,128.0,108.0,129.0,28.0,-103.0,-73.0,127.0,127.0,127.0,114.0,87.0,-114.0
127.0,124.0,127.0,131.0,127.0,128.0,108.0,130.0,28.0,-103.0,-73.0,127.0,127.0,127.0,114.0,87.0,-114.0
127.0,125.0,127.0,130.0,128.0,128.0,108.0,130.0,28.0,-103.0,-73.0,127.0,127.0,127.0,114.0,87.0,-114.0
128.0,127.0,127.0,131.0,127.0,128.0,108.0,130.0,28.0,-103.0,-73.0,127.0,127.0,127.0,114.0,87.0,-114.0
128.0,128.0,127.0,131.0,128.0,129.0,108.0,129.0,28.0,-103.0,-73.0,127.0,127.0,127.0,114.0,87.0,-114.0
128.0,130.0,128.0,131.0,128.0,128.0,108.0,129.0,28.0,-103.0,-73.0,127.0,127.0,127.0,114.0,87.0,-114.0
125.0,126.0,129.0,127.0,127.0,128.0,107.0,122.0,28.0,-103.0,-73.0,127.0,127.0,127.0,113.0,87.0,-114.0
127.0,125.0,125.0,128.0,126.0,128.0,107.0,125.0,28.0,-103.0,-73.0,127.0,127.0,127.0,113.0,87.0,-114.0
126.0,125.0,125.0,128.0,126.0,128.0,107.0,124.0,28.0,-103.0,-73.0,127.0,127.0,127.0,113.0,87.0,-114.0
126.0,126.0,125.0,128.0,127.0,128.0,107.0,124.0,28.0,-103.0,-73.0,127.0,127.0,127.0,113.0,87.0,-114.0
126.0,126.0,126.0,128.0,127.0,128.0,107.0,124.0,28.0,-103.0,-73.0,127.0,127.0,127.0,113.0,87.0,-114.0
126.0,126.0,127.0,128.0,127.0,128.0,108.0,123.0,28.0,-103.0,-73.0,127.0,127.0,127.0,113.0,87.0,-114.0
125.0,126.0,128.0,128.0,127.0,128.0,108.0,123.0,28.0,-103.0,-73.0,127.0,127.0,127.0,113.0,87.0,-114.0
125.0,126.0,129.0,128.0,127.0,128.0,108.0,123.0,28.0,-103.0,-73.0,127.0,127.0,127.0,113.0,87.0,-114.0
125.0,125.0,130.0,128.0,127.0,128.0,107.0,123.0,28.0,-103.0,-73.0,127.0,127.0,127.0,113.0,87.0,-114.0
125.0,126.0,130.0,127.0,127.0,128.0,107.0,122.0,28.0,-103.0,-73.0,127.0,127.0,127.0,113.0,87.0,-114.0
126.0,129.0,129.0,125.0,125.0,128.0,108.0,127.0,28.0,-102.0,-73.0,127.0,127.0,127.0,113.0,87.0,-114.0
126.0,129.0,129.0,125.0,125.0,127.0,107.0,127.0,28.0,-102.0,-73.0,127.0,127.0,127.0,113.0,87.0,-114.0
126.0,130.0,129.0,125.0,125.0,127.0,107.0,128.0,28.0,-102.0,-73.0,127.0,127.0,127.0,113.0,87.0,-114.0
126.0,130.0,129.0,125.0,124.0,127.0,106.0,128.0,28.0,-102.0,-73.0,127.0,127.0,127.0,113.0,87.0,-114.0
126.0,130.0,130.0,126.0,124.0,127.0,106.0,128.0,28.0,-102.0,-73.0,127.0,127.0,127.0,113.0,87.0,-114.0
126.0,129.0,131.0,127.0,125.0,127.0,106.0,128.0,28.0,-102.0,-73.0,127.0,127.0,127.0,113.0,87.0,-114.0
126.0,129.0,132.0,127.0,125.0,127.0,105.0,128.0,28.0,-102.0,-73.0,127.0,127.0,127.0,113.0,87.0,-114.0
126.0,129.0,133.0,128.0,125.0,127.0,106.0,128.0,28.0,-102.0,-73.0,127.0,127.0,127.0,113.0,87.0,-114.0
126.0,129.0,133.0,128.0,126.0,127.0,108.0,128.0,28.0,-102.0,-73.0,127.0,127.0,127.0,113.0,87.0,-114.0
126.0,128.0,134.0,129.0,126.0,127.0,107.0,128.0,28.0,-102.0,-73.0,127.0,127.0,127.0,113.0,87.0,-114.0
124.0,123.0,129.0,132.0,128.0,129.0,109.0,125.0,28.0,-102.0,-72.0,127.0,127.0,127.0,113.0,87.0,-114.0
124.0,122.0,129.0,132.0,129.0,128.0,108.0,125.0,28.0,-102.0,-72.0,127.0,127.0,127.0,113.0,87.0,-114.0
124.0,122.0,128.0,131.0,129.0,128.0,108.0,125.0,28.0,-102.0,-72.0,127.0,127.0,127.0,113.0,87.0,-114.0
125.0,123.0,128.0,131.0,129.0,128.0,108.0,125.0,28.0,-102.0,-72.0,127.0,127.0,127.0,113.0,87.0,-114.0
125.0,124.0,129.0,131.0,129.0,129.0,108.0,125.0,28.0,-102.0,-72.0,127.0,127.0,127.0,113.0,87.0,-114.0
125.0,126.0,130.0,131.0,129.0,128.0,108.0,126.0,28.0,-102.0,-72.0,127.0,127.0,127.0,113.0,87.0,-114.0
126.0,127.0,130.0,131.0,129.0,129.0,108.0,126.0,28.0,-102.0,-72.0,127.0,127.0,127.0,113.0,87.0,-114.0
126.0,128.0,131.0,131.0,129.0,128.0,108.0,126.0,28.0,-102.0,-72.0,127.0,127.0,127.0,113.0,87.0,-114.0
126.0,129.0,131.0,131.0,130.0,129.0,108.0,126.0,28.0,-102.0,-72.0,127.0,127.0,127.0,113.0,87.0,-114.0
124.0,123.0,130.0,132.0,128.0,129.0,109.0,125.0,28.0,-102.0,-72.0,127.0,127.0,127.0,113.0,87.0,-114.0
125.0,123.0,126.0,128.0,126.0,127.0,106.0,124.0,29.0,-101.0,-72.0,127.0,127.0,127.0,113.0,87.0,-114.0
125.0,124.0,125.0,128.0,126.0,127.0,106.0,125.0,29.0,-101.0,-72.0,127.0,127.0,127.0,113.0,87.0,-114.0
125.0,125.0,124.0,128.0,126.0,128.0,106.0,126.0,29.0,-101.0,-72.0,127.0,127.0,127.0,113.0,87.0,-114.0
125.0,126.0,122.0,128.0,126.0,128.0,106.0,127.0,29.0,-101.0,-72.0,127.0,127.0,127.0,113.0,87.0,-114.0
125.0,126.0,122.0,128.0,126.0,128.0,106.0,127.0,29.0,-101.0,-72.0,127.0,127.0,127.0,113.0,87.0,-114.0
125.0,127.0,122.0,128.0,126.0,128.0,106.0,127.0,29.0,-101.0,-72.0,127.0,127.0,127.0,113.0,87.0,-114.0
126.0,128.0,122.0,129.0,126.0,128.0,107.0,127.0,29.0,-101.0,-72.0,127.0,127.0,127.0,113.0,87.0,-114.0
126.0,129.0,123.0,129.0,127.0,128.0,107.0,127.0,29.0,-101.0,-72.0,127.0,127.0,127.0,113.0,87.0,-114.0
124.0,122.0,127.0,127.0,126.0,127.0,107.0,120.0,29.0,-101.0,-72.0,127.0,127.0,127.0,113.0,87.0,-114.0
124.0,122.0,126.0,128.0,126.0,127.0,106.0,122.0,29.0,-101.0,-72.0,127.0,127.0,127.0,113.0,87.0,-114.0
126.0,130.0,130.0,130.0,127.0,128.0,107.0,124.0,29.0,-102.0,-72.0,127.0,127.0,127.0,113.0,87.0,-114.0
126.0,129.0,130.0,130.0,127.0,128.0,107.0,124.0,29.0,-102.0,-72.0,127.0,127.0,127.0,113.0,87.0,-114.0
126.0,128.0,130.0,130.0,127.0,128.0,107.0,125.0,29.0,-102.0,-72.0,127.0,127.0,127.0,113.0,87.0,-114.0
126.0,127.0,130.0,129.0,127.0,128.0,108.0,125.0,29.0,-102.0,-72.0,127.0,127.0,127.0,113.0,87.0,-114.0
126.0,127.0,130.0,129.0,127.0,128.0,107.0,125.0,29.0,-102.0,-72.0,127.0,127.0,127.0,113.0,87.0,-114.0
126.0,127.0,130.0,129.0,127.0,128.0,107.0,125.0,29.0,-102.0,-72.0,127.0,127.0,127.0,113.0,87.0,-114.0
126.0,127.0,130.0,129.0,127.0,128.0,107.0,126.0,29.0,-102.0,-72.0,127.0,127.0,127.0,113.0,87.0,-114.0
126.0,130.0,128.0,129.0,127.0,128.0,107.0,124.0,29.0,-102.0,-72.0,127.0,127.0,127.0,113.0,87.0,-114.0
126.0,130.0,128.0,130.0,127.0,128.0,107.0,124.0,29.0,-102.0,-72.0,127.0,127.0,127.0,113.0,87.0,-114.0
127.0,130.0,129.0,130.0,128.0,128.0,107.0,124.0,29.0,-102.0,-72.0,127.0,127.0,127.0,113.0,87.0,-114.0
127.0,126.0,127.0,129.0,127.0,128.0,107.0,127.0,29.0,-102.0,-72.0,127.0,127.0,127.0,113.0,87.0,-114.0
127.0,126.0,127.0,129.0,127.0,128.0,107.0,127.0,29.0,-102.0,-72.0,127.0,127.0,127.0,113.0,87.0,-114.0
127.0,125.0,127.0,130.0,127.0,128.0,107.0,128.0,29.0,-102.0,-72.0,127.0,127.0,127.0,113.0,87.0,-114.0
127.0,125.0,127.0,130.0,127.0,128.0,107.0,128.0,29.0,-102.0,-72.0,127.0,127.0,127.0,113.0,87.0,-114.0
127.0,125.0,127.0,130.0,127.0,128.0,107.0,129.0,29.0,-102.0,-72.0,127.0,127.0,127.0,113.0,87.0,-114.0
127.0,125.0,127.0,130.0,127.0,128.0,107.0,129.0,29.0,-102.0,-72.0,127.0,127.0,127.0,113.0,87.0,-114.0
126.0,126.0,127.0,128.0,127.0,128.0,107.0,124.0,29.0,-102.0,-72.0,127.0,127.0,127.0,113.0,87.0,-114.0
126.0,126.0,126.0,128.0,127.0,128.0,108.0,125.0,29.0,-102.0,-72.0,127.0,127.0,127.0,113.0,87.0,-114.0
126.0,126.0,126.0,128.0,127.0,128.0,108.0,126.0,29.0,-102.0,-72.0,127.0,127.0,127.0,113.0,87.0,-114.0
126.0,126.0,127.0,129.0,127.0,128.0,107.0,126.0,29.0,-102.0,-72.0,127.0,127.0,127.0,113.0,87.0,-114.0
124.0,124.0,125.0,126.0,126.0,128.0,107.0,125.0,29.0,-101.0,-72.0,127.0,127.0,127.0,112.0,87.0,-114.0
125.0,125.0,127.0,125.0,127.0,128.0,108.0,125.0,29.0,-101.0,-72.0,127.0,127.0,127.0,112.0,87.0,-114.0
125.0,127.0,128.0,125.0,127.0,128.0,107.0,126.0,29.0,-101.0,-72.0,127.0,127.0,127.0,112.0,87.0,-114.0
125.0,127.0,129.0,125.0,127.0,128.0,107.0,126.0,29.0,-101.0,-72.0,127.0,127.0,127.0,112.0,87.0,-114.0
125.0,127.0,130.0,125.0,127.0,128.0,108.0,126.0,29.0,-101.0,-72.0,127.0,127.0,127.0,112.0,87.0,-114.0
124.0,123.0,119.0,127.0,127.0,128.0,107.0,125.0,29.0,-101.0,-72.0,127.0,127.0,127.0,112.0,87.0,-114.0
124.0,122.0,119.0,127.0,127.0,128.0,107.0,125.0,29.0,-101.0,-72.0,127.0,127.0,127.0,112.0,87.0,-114.0
124.0,122.0,118.0,126.0,126.0,128.0,107.0,125.0,29.0,-101.0,-72.0,127.0,127.0,127.0,112.0,87.0,-114.0
124.0,122.0,119.0,126.0,126.0,128.0,107.0,125.0,29.0,-101.0,-72.0,127.0,127.0,127.0,112.0,87.0,-114.0
124.0,123.0,122.0,126.0,126.0,128.0,107.0,125.0,29.0,-101.0,-72.0,127.0,127.0,127.0,112.0,87.0,-114.0
127.0,130.0,127.0,130.0,128.0,128.0,107.0,125.0,28.0,-101.0,-72.0,127.0,127.0,127.0,112.0,87.0,-114.0
127.0,130.0,126.0,130.0,128.0,128.0,107.0,125.0,28.0,-101.0,-72.0,127.0,127.0,127.0,112.0,87.0,-114.0
127.0,129.0,125.0,130.0,128.0,128.0,107.0,125.0,28.0,-101.0,-72.0,127.0,127.0,127.0,112.0,87.0,-114.0
127.0,129.0,124.0,130.0,128.0,128.0,107.0,125.0,28.0,-101.0,-72.0,127.0,127.0,127.0,112.0,87.0,-114.0
126.0,129.0,129.0,130.0,127.0,128.0,106.0,125.0,28.0,-101.0,-72.0,127.0,127.0,127.0,112.0,87.0,-114.0
126.0,129.0,129.0,130.0,127.0,128.0,106.0,125.0,28.0,-101.0,-72.0,127.0,127.0,127.0,112.0,87.0,-114.0
127.0,129.0,128.0,130.0,127.0,128.0,107.0,125.0,28.0,-101.0,-72.0,127.0,127.0,127.0,112.0,87.0,-114.0
127.0,129.0,128.0,130.0,127.0,128.0,108.0,125.0,28.0,-101.0,-72.0,127.0,127.0,127.0,112.0,87.0,-114.0
127.0,130.0,127.0,130.0,128.0,128.0,107.0,125.0,28.0,-101.0,-72.0,127.0,127.0,127.0,112.0,87.0,-114.0
127.0,130.0,127.0,130.0,128.0,128.0,107.0,125.0,28.0,-101.0,-72.0,127.0,127.0,127.0,112.0,87.0,-114.0
125.0,127.0,128.0,129.0,128.0,128.0,107.0,117.0,28.0,-101.0,-72.0,127.0,127.0,127.0,112.0,87.0,-114.0
125.0,128.0,128.0,129.0,127.0,128.0,108.0,118.0,28.0,-101.0,-72.0,127.0,127.0,127.0,112.0,87.0,-114.0
125.0,129.0,127.0,129.0,127.0,128.0,107.0,118.0,28.0,-101.0,-72.0,127.0,127.0,127.0,112.0,87.0,-114.0
123.0,120.0,127.0,126.0,127.0,128.0,107.0,120.0,28.0,-101.0,-72.0,127.0,127.0,127.0,112.0,87.0,-114.0
124.0,120.0,127.0,127.0,127.0,128.0,107.0,119.0,28.0,-101.0,-72.0,127.0,127.0,127.0,112.0,87.0,-114.0
124.0,121.0,127.0,127.0,127.0,128.0,107.0,119.0,28.0,-101.0,-72.0,127.0,127.0,127.0,112.0,87.0,-114.0
124.0,122.0,128.0,128.0,128.0,128.0,107.0,118.0,28.0,-101.0,-72.0,127.0,127.0,127.0,112.0,87.0,-114.0
124.0,124.0,129.0,128.0,128.0,128.0,107.0,117.0,28.0,-101.0,-72.0,127.0,127.0,127.0,112.0,87.0,-114.0
125.0,125.0,129.0,128.0,128.0,128.0,108.0,117.0,28.0,-101.0,-72.0,127.0,127.0,127.0,112.0,87.0,-114.0
125.0,126.0,129.0,129.0,128.0,128.0,107.0,117.0,28.0,-101.0,-72.0,127.0,127.0,127.0,112.0,87.0,-114.0
126.0,128.0,124.0,129.0,127.0,127.0,114.0,127.0,28.0,-101.0,-72.0,127.0,127.0,127.0,112.0,87.0,-114.0
126.0,128.0,124.0,129.0,127.0,127.0,113.0,126.0,28.0,-101.0,-72.0,127.0,127.0,127.0,112.0,87.0,-114.0
127.0,128.0,132.0,130.0,127.0,127.0,106.0,129.0,28.0,-101.0,-72.0,127.0,127.0,127.0,112.0,87.0,-114.0
127.0,129.0,132.0,130.0,127.0,127.0,106.0,129.0,28.0,-101.0,-72.0,127.0,127.0,127.0,112.0,87.0,-114.0
127.0,129.0,132.0,131.0,127.0,127.0,107.0,128.0,28.0,-101.0,-72.0,127.0,127.0,127.0,112.0,87.0,-114.0
127.0,130.0,131.0,131.0,127.0,127.0,107.0,128.0,28.0,-101.0,-72.0,127.0,127.0,127.0,112.0,87.0,-114.0
127.0,129.0,129.0,130.0,127.0,127.0,109.0,128.0,28.0,-101.0,-72.0,127.0,127.0,127.0,112.0,87.0,-114.0
127.0,129.0,127.0,130.0,127.0,127.0,111.0,128.0,28.0,-101.0,-72.0,127.0,127.0,127.0,112.0,87.0,-114.0
127.0,129.0,126.0,130.0,127.0,127.0,113.0,128.0,28.0,-101.0,-72.0,127.0,127.0,127.0,112.0,87.0,-114.0
127.0,128.0,124.0,129.0,127.0,127.0,114.0,127.0,28.0,-101.0,-72.0,127.0,127.0,127.0,112.0,87.0,-114.0
126.0,129.0,122.0,127.0,127.0,128.0,107.0,127.0,28.0,-101.0,-72.0,127.0,127.0,127.0,111.0,87.0,-114.0
127.0,129.0,127.0,127.0,127.0,128.0,108.0,127.0,28.0,-101.0,-72.0,127.0,127.0,127.0,111.0,87.0,-114.0
127.0,130.0,127.0,128.0,128.0,128.0,108.0,127.0,28.0,-101.0,-72.0,127.0,127.0,127.0,111.0,87.0,-114.0
127.0,130.0,127.0,128.0,128.0,128.0,108.0,127.0,28.0,-101.0,-72.0,127.0,127.0,127.0,111.0,87.0,-114.0
127.0,130.0,126.0,128.0,128.0,128.0,108.0,127.0,28.0,-101.0,-72.0,127.0,127.0,127.0,111.0,87.0,-114.0
127.0,130.0,125.0,129.0,128.0,128.0,108.0,127.0,28.0,-101.0,-72.0,127.0,127.0,127.0,111.0,87.0,-114.0
127.0,130.0,124.0,128.0,128.0,128.0,108.0,127.0,28.0,-101.0,-72.0,127.0,127.0,127.0,111.0,87.0,-114.0
127.0,129.0,123.0,128.0,127.0,128.0,108.0,127.0,28.0,-101.0,-72.0,127.0,127.0,127.0,111.0,87.0,-114.0
127.0,129.0,123.0,128.0,127.0,128.0,107.0,127.0,28.0,-101.0,-72.0,127.0,127.0,127.0,111.0,87.0,-114.0
126.0,129.0,123.0,127.0,127.0,128.0,108.0,127.0,28.0,-101.0,-72.0,127.0,127.0,127.0,111.0,87.0,-114.0
127.0,128.0,128.0,127.0,126.0,128.0,107.0,125.0,28.0,-101.0,-72.0,127.0,127.0,127.0,111.0,87.0,-114.0
127.0,128.0,128.0,128.0,126.0,128.0,107.0,125.0,28.0,-101.0,-72.0,127.0,127.0,127.0,111.0,87.0,-114.0
127.0,128.0,128.0,128.0,126.0,128.0,107.0,125.0,28.0,-101.0,-72.0,127.0,127.0,127.0,111.0,87.0,-114.0
127.0,128.0,127.0,128.0,127.0,128.0,107.0,125.0,28.0,-101.0,-72.0,127.0,127.0,127.0,111.0,87.0,-114.0
127.0,127.0,127.0,129.0,127.0,128.0,107.0,125.0,28.0,-101.0,-72.0,127.0,127.0,127.0,111.0,87.0,-114.0
126.0,127.0,128.0,129.0,127.0,128.0,107.0,125.0,28.0,-101.0,-72.0,127.0,127.0,127.0,111.0,87.0,-114.0
126.0,126.0,128.0,129.0,127.0,128.0,107.0,125.0,28.0,-101.0,-72.0,127.0,127.0,127.0,111.0,87.0,-114.0
125.0,125.0,129.0,130.0,127.0,128.0,107.0,125.0,28.0,-101.0,-72.0,127.0,127.0,127.0,111.0,87.0,-114.0
125.0,125.0,129.0,130.0,127.0,128.0,107.0,125.0,28.0,-101.0,-72.0,127.0,127.0,127.0,111.0,87.0,-114.0
125.0,125.0,129.0,130.0,127.0,128.0,108.0,125.0,28.0,-101.0,-72.0,127.0,127.0,127.0,111.0,87.0,-114.0
124.0,123.0,127.0,125.0,126.0,127.0,106.0,123.0,28.0,-101.0,-72.0,127.0,127.0,127.0,111.0,87.0,-114.0
125.0,124.0,128.0,125.0,126.0,127.0,106.0,123.0,28.0,-101.0,-72.0,127.0,127.0,127.0,111.0,87.0,-114.0
125.0,125.0,129.0,126.0,126.0,127.0,106.0,124.0,28.0,-101.0,-72.0,127.0,127.0,127.0,111.0,87.0,-114.0
125.0,127.0,129.0,126.0,126.0,127.0,107.0,124.0,28.0,-101.0,-72.0,127.0,127.0,127.0,111.0,87.0,-114.0
126.0,129.0,129.0,126.0,126.0,127.0,106.0,124.0,28.0,-101.0,-72.0,127.0,127.0,127.0,111.0,87.0,-114.0
126.0,130.0,128.0,127.0,126.0,127.0,106.0,124.0,28.0,-101.0,-72.0,127.0,127.0,127.0,111.0,87.0,-114.0
127.0,130.0,127.0,127.0,126.0,127.0,106.0,124.0,28.0,-101.0,-72.0,127.0,127.0,127.0,111.0,87.0,-114.0
127.0,131.0,126.0,127.0,126.0,127.0,106.0,125.0,28.0,-101.0,-72.0,127.0,127.0,127.0,111.0,87.0,-114.0
127.0,131.0,125.0,128.0,126.0,128.0,106.0,125.0,28.0,-101.0,-72.0,127.0,127.0,127.0,111.0,87.0,-114.0
125.0,122.0,126.0,125.0,126.0,127.0,107.0,123.0,28.0,-101.0,-72.0,127.0,127.0,127.0,111.0,87.0,-114.0
125.0,125.0,129.0,129.0,127.0,128.0,107.0,126.0,28.0,-101.0,-72.0,127.0,127.0,127.0,111.0,87.0,-114.0
125.0,126.0,129.0,130.0,127.0,128.0,107.0,126.0,28.0,-101.0,-72.0,127.0,127.0,127.0,111.0,87.0,-114.0
125.0,126.0,129.0,130.0,127.0,128.0,107.0,126.0,28.0,-101.0,-72.0,127.0,127.0,127.0,111.0,87.0,-114.0
125.0,127.0,129.0,130.0,128.0,128.0,108.0,126.0,28.0,-101.0,-72.0,127.0,127.0,127.0,111.0,87.0,-114.0
125.0,127.0,130.0,130.0,128.0,128.0,107.0,126.0,28.0,-101.0,-72.0,127.0,127.0,127.0,111.0,87.0,-114.0
126.0,128.0,130.0,130.0,128.0,128.0,107.0,126.0,28.0,-101.0,-72.0,127.0,127.0,127.0,111.0,87.0,-114.0
126.0,128.0,130.0,131.0,128.0,128.0,107.0,126.0,28.0,-101.0,-72.0,127.0,127.0,127.0,111.0,87.0,-114.0
126.0,128.0,130.0,131.0,128.0,128.0,107.0,126.0,28.0,-101.0,-72.0,127.0,127.0,127.0,111.0,87.0,-114.0
126.0,125.0,129.0,128.0,127.0,128.0,107.0,126.0,28.0,-101.0,-72.0,127.0,127.0,127.0,111.0,87.0,-114.0
125.0,125.0,129.0,129.0,127.0,128.0,107.0,126.0,28.0,-101.0,-72.0,127.0,127.0,127.0,111.0,87.0,-114.0
125.0,128.0,125.0,130.0,128.0,128.0,108.0,125.0,27.0,-101.0,-72.0,127.0,127.0,127.0,111.0,87.0,-114.0
125.0,128.0,125.0,130.0,128.0,128.0,107.0,125.0,27.0,-101.0,-72.0,127.0,127.0,127.0,111.0,87.0,-114.0
125.0,128.0,125.0,130.0,128.0,128.0,107.0,125.0,27.0,-101.0,-72.0,127.0,127.0,127.0,111.0,87.0,-114.0
125.0,128.0,126.0,131.0,128.0,128.0,107.0,125.0,27.0,-101.0,-72.0,127.0,127.0,127.0,111.0,87.0,-114.0
124.0,128.0,127.0,131.0,128.0,128.0,108.0,125.0,27.0,-101.0,-72.0,127.0,127.0,127.0,111.0,87.0,-114.0
124.0,128.0,128.0,132.0,128.0,128.0,108.0,125.0,27.0,-101.0,-72.0,127.0,127.0,127.0,111.0,87.0,-114.0
124.0,128.0,128.0,132.0,128.0,128.0,109.0,125.0,27.0,-101.0,-72.0,127.0,127.0,127.0,111.0,87.0,-114.0
126.0,127.0,126.0,129.0,127.0,128.0,107.0,127.0,27.0,-101.0,-72.0,127.0,127.0,127.0,111.0,87.0,-114.0
126.0,128.0,126.0,129.0,128.0,128.0,107.0,126.0,27.0,-101.0,-72.0,127.0,127.0,127.0,111.0,87.0,-114.0
125.0,128.0,126.0,129.0,128.0,128.0,108.0,126.0,27.0,-101.0,-72.0,127.0,127.0,127.0,111.0,87.0,-114.0
125.0,126.0,126.0,129.0,127.0,127.0,106.0,126.0,27.0,-101.0,-72.0,127.0,127.0,127.0,111.0,87.0,-114.0
125.0,126.0,126.0,130.0,127.0,127.0,106.0,126.0,27.0,-101.0,-72.0,127.0,127.0,127.0,111.0,87.0,-114.0
126.0,126.0,127.0,131.0,127.0,127.0,107.0,126.0,27.0,-101.0,-72.0,127.0,127.0,127.0,111.0,87.0,-114.0
125.0,126.0,128.0,131.0,128.0,127.0,107.0,126.0,27.0,-101.0,-72.0,127.0,127.0,127.0,111.0,87.0,-114.0
125.0,126.0,128.0,131.0,128.0,127.0,106.0,126.0,27.0,-101.0,-72.0,127.0,127.0,127.0,111.0,87.0,-114.0
125.0,125.0,128.0,132.0,128.0,127.0,106.0,125.0,27.0,-101.0,-72.0,127.0,127.0,127.0,111.0,87.0,-114.0
125.0,127.0,127.0,127.0,126.0,127.0,113.0,126.0,27.0,-101.0,-72.0,127.0,127.0,127.0,111.0,87.0,-114.0
125.0,126.0,127.0,127.0,126.0,127.0,113.0,126.0,27.0,-101.0,-72.0,127.0,127.0,127.0,111.0,87.0,-114.0
125.0,126.0,127.0,128.0,127.0,127.0,110.0,126.0,27.0,-101.0,-72.0,127.0,127.0,127.0,111.0,87.0,-114.0
125.0,126.0,126.0,129.0,127.0,127.0,107.0,126.0,27.0,-101.0,-72.0,127.0,127.0,127.0,111.0,87.0,-114.0
126.0,127.0,129.0,129.0,127.0,128.0,108.0,128.0,27.0,-102.0,-72.0,127.0,127.0,127.0,111.0,87.0,-114.0
126.0,127.0,129.0,129.0,127.0,128.0,108.0,128.0,27.0,-102.0,-72.0,127.0,127.0,127.0,111.0,87.0,-114.0
126.0,126.0,128.0,129.0,127.0,128.0,108.0,128.0,27.0,-102.0,-72.0,127.0,127.0,127.0,111.0,87.0,-114.0
125.0,126.0,128.0,128.0,127.0,128.0,108.0,127.0,27.0,-102.0,-72.0,127.0,127.0,127.0,111.0,87.0,-114.0
127.0,129.0,132.0,128.0,127.0,128.0,107.0,128.0,27.0,-102.0,-72.0,127.0,127.0,127.0,111.0,87.0,-114.0
127.0,128.0,131.0,128.0,127.0,128.0,107.0,128.0,27.0,-102.0,-72.0,127.0,127.0,127.0,111.0,87.0,-114.0
127.0,128.0,131.0,128.0,127.0,128.0,107.0,129.0,27.0,-102.0,-72.0,127.0,127.0,127.0,111.0,87.0,-114.0
127.0,127.0,130.0,129.0,127.0,128.0,107.0,129.0,27.0,-102.0,-72.0,127.0,127.0,127.0,111.0,87.0,-114.0
127.0,127.0,130.0,129.0,127.0,128.0,107.0,129.0,27.0,-102.0,-72.0,127.0,127.0,127.0,111.0,87.0,-114.0
126.0,127.0,129.0,129.0,127.0,128.0,108.0,128.0,27.0,-102.0,-72.0,127.0,127.0,127.0,111.0,87.0,-114.0
126.0,126.0,128.0,129.0,127.0,127.0,106.0,128.0,27.0,-102.0,-72.0,127.0,127.0,127.0,111.0,87.0,-114.0
126.0,126.0,127.0,129.0,127.0,127.0,106.0,128.0,27.0,-102.0,-72.0,127.0,127.0,127.0,111.0,87.0,-114.0
126.0,126.0,127.0,129.0,127.0,127.0,106.0,128.0,27.0,-102.0,-72.0,127.0,127.0,127.0,111.0,87.0,-114.0
126.0,128.0,127.0,128.0,127.0,127.0,106.0,126.0,27.0,-102.0,-72.0,127.0,127.0,127.0,111.0,87.0,-114.0
126.0,128.0,127.0,128.0,127.0,127.0,106.0,126.0,27.0,-102.0,-72.0,127.0,127.0,127.0,111.0,87.0,-114.0
126.0,127.0,127.0,128.0,127.0,127.0,106.0,126.0,27.0,-102.0,-72.0,127.0,127.0,127.0,111.0,87.0,-114.0
126.0,127.0,127.0,129.0,127.0,127.0,106.0,127.0,27.0,-102.0,-72.0,127.0,127.0,127.0,111.0,87.0,-114.0
126.0,127.0,128.0,129.0,127.0,128.0,106.0,127.0,27.0,-102.0,-72.0,127.0,127.0,127.0,111.0,87.0,-114.0
126.0,127.0,128.0,129.0,127.0,128.0,106.0,128.0,27.0,-102.0,-72.0,127.0,127.0,127.0,111.0,87.0,-114.0
126.0,126.0,128.0,129.0,127.0,128.0,107.0,128.0,27.0,-102.0,-72.0,127.0,127.0,127.0,111.0,87.0,-114.0
126.0,127.0,127.0,130.0,127.0,128.0,107.0,126.0,27.0,-102.0,-72.0,127.0,127.0,127.0,111.0,87.0,-114.0
126.0,127.0,127.0,130.0,127.0,128.0,107.0,127.0,27.0,-102.0,-72.0,127.0,127.0,127.0,111.0,87.0,-114.0
126.0,126.0,127.0,127.0,127.0,128.0,107.0,125.0,27.0,-102.0,-72.0,127.0,127.0,127.0,111.0,87.0,-114.0
126.0,126.0,127.0,128.0,128.0,128.0,107.0,125.0,27.0,-102.0,-72.0,127.0,127.0,127.0,111.0,87.0,-114.0
126.0,126.0,127.0,128.0,128.0,128.0,107.0,125.0,27.0,-102.0,-72.0,127.0,127.0,127.0,111.0,87.0,-114.0
126.0,126.0,127.0,129.0,128.0,128.0,107.0,125.0,27.0,-102.0,-72.0,127.0,127.0,127.0,111.0,87.0,-114.0
126.0,126.0,127.0,130.0,128.0,128.0,108.0,126.0,27.0,-102.0,-72.0,127.0,127.0,127.0,111.0,87.0,-114.0
126.0,126.0,127.0,130.0,128.0,128.0,107.0,126.0,27.0,-102.0,-72.0,127.0,127.0,127.0,111.0,87.0,-114.0
126.0,127.0,127.0,130.0,127.0,128.0,107.0,126.0,27.0,-102.0,-72.0,127.0,127.0,127.0,111.0,87.0,-114.0
126.0,127.0,127.0,130.0,127.0,128.0,107.0,126.0,27.0,-102.0,-72.0,127.0,127.0,127.0,111.0,87.0,-114.0
127.0,128.0,128.0,129.0,127.0,128.0,106.0,126.0,27.0,-103.0,-72.0,127.0,127.0,127.0,111.0,87.0,-114.0
125.0,126.0,124.0,129.0,127.0,127.0,107.0,125.0,27.0,-103.0,-72.0,127.0,127.0,127.0,111.0,87.0,-114.0
125.0,126.0,125.0,129.0,127.0,127.0,106.0,126.0,27.0,-103.0,-72.0,127.0,127.0,127.0,111.0,87.0,-114.0
126.0,127.0,126.0,129.0,127.0,127.0,108.0,126.0,27.0,-103.0,-72.0,127.0,127.0,127.0,111.0,87.0,-114.0
126.0,127.0,127.0,129.0,128.0,127.0,107.0,126.0,27.0,-103.0,-72.0,127.0,127.0,127.0,111.0,87.0,-114.0
126.0,128.0,127.0,130.0,128.0,127.0,106.0,127.0,27.0,-103.0,-72.0,127.0,127.0,127.0,111.0,87.0,-114.0
127.0,128.0,127.0,130.0,128.0,128.0,106.0,126.0,27.0,-103.0,-72.0,127.0,127.0,127.0,111.0,87.0,-114.0
127.0,128.0,128.0,130.0,128.0,128.0,106.0,126.0,27.0,-103.0,-72.0,127.0,127.0,127.0,111.0,87.0,-114.0
127.0,128.0,128.0,130.0,128.0,128.0,106.0,126.0,27.0,-103.0,-72.0,127.0,127.0,127.0,111.0,87.0,-114.0
127.0,128.0,128.0,130.0,127.0,128.0,106.0,126.0,27.0,-103.0,-72.0,127.0,127.0,127.0,111.0,87.0,-114.0
126.0,128.0,126.0,126.0,128.0,128.0,107.0,126.0,27.0,-103.0,-72.0,127.0,127.0,127.0,111.0,87.0,-114.0
126.0,128.0,126.0,126.0,127.0,128.0,107.0,126.0,27.0,-103.0,-72.0,127.0,127.0,127.0,111.0,87.0,-114.0
126.0,128.0,126.0,126.0,127.0,128.0,107.0,126.0,27.0,-103.0,-72.0,127.0,127.0,127.0,111.0,87.0,-114.0
126.0,128.0,126.0,126.0,128.0,128.0,107.0,126.0,27.0,-103.0,-72.0,127.0,127.0,127.0,111.0,87.0,-114.0
126.0,128.0,127.0,127.0,128.0,128.0,107.0,126.0,27.0,-103.0,-72.0,127.0,127.0,127.0,111.0,87.0,-114.0
126.0,128.0,127.0,127.0,127.0,128.0,107.0,127.0,27.0,-103.0,-72.0,127.0,127.0,127.0,111.0,87.0,-114.0
126.0,128.0,127.0,127.0,127.0,128.0,107.0,127.0,27.0,-103.0,-72.0,127.0,127.0,127.0,111.0,87.0,-114.0
126.0,127.0,127.0,128.0,127.0,128.0,107.0,127.0,27.0,-103.0,-72.0,127.0,127.0,127.0,111.0,87.0,-114.0
126.0,127.0,126.0,128.0,127.0,128.0,107.0,127.0,27.0,-103.0,-72.0,127.0,127.0,127.0,111.0,87.0,-114.0
125.0,126.0,126.0,129.0,127.0,128.0,107.0,126.0,27.0,-103.0,-72.0,127.0,127.0,127.0,111.0,87.0,-114.0
127.0,129.0,128.0,131.0,128.0,128.0,107.0,125.0,27.0,-103.0,-72.0,127.0,127.0,127.0,111.0,87.0,-114.0
127.0,129.0,128.0,132.0,128.0,128.0,107.0,125.0,27.0,-103.0,-72.0,127.0,127.0,127.0,111.0,87.0,-114.0
127.0,130.0,129.0,132.0,128.0,128.0,108.0,126.0,27.0,-103.0,-72.0,127.0,127.0,127.0,111.0,87.0,-114.0
127.0,130.0,129.0,132.0,129.0,128.0,108.0,127.0,27.0,-103.0,-72.0,127.0,127.0,127.0,111.0,87.0,-114.0
128.0,130.0,129.0,133.0,129.0,128.0,108.0,127.0,27.0,-103.0,-72.0,127.0,127.0,127.0,111.0,87.0,-114.0
128.0,130.0,130.0,133.0,129.0,128.0,108.0,128.0,27.0,-103.0,-72.0,127.0,127.0,127.0,111.0,87.0,-114.0
128.0,130.0,130.0,133.0,129.0,129.0,108.0,128.0,27.0,-103.0,-72.0,127.0,127.0,127.0,111.0,87.0,-114.0
128.0,130.0,129.0,133.0,129.0,129.0,108.0,128.0,27.0,-103.0,-72.0,127.0,127.0,127.0,111.0,87.0,-114.0
128.0,130.0,128.0,133.0,129.0,129.0,108.0,128.0,27.0,-103.0,-72.0,127.0,127.0,127.0,111.0,87.0,-114.0
126.0,129.0,129.0,130.0,128.0,128.0,107.0,125.0,27.0,-103.0,-72.0,127.0,127.0,127.0,111.0,87.0,-114.0
126.0,124.0,130.0,128.0,127.0,127.0,106.0,126.0,27.0,-103.0,-72.0,127.0,127.0,127.0,111.0,87.0,-114.0
126.0,124.0,130.0,128.0,127.0,127.0,107.0,126.0,27.0,-103.0,-72.0,127.0,127.0,127.0,111.0,87.0,-114.0
126.0,124.0,129.0,128.0,127.0,127.0,106.0,126.0,27.0,-103.0,-72.0,127.0,127.0,127.0,111.0,87.0,-114.0
126.0,124.0,129.0,128.0,127.0,128.0,106.0,126.0,27.0,-103.0,-72.0,127.0,127.0,127.0,111.0,87.0,-114.0
126.0,124.0,128.0,128.0,127.0,128.0,107.0,126.0,27.0,-103.0,-72.0,127.0,127.0,127.0,111.0,87.0,-114.0
126.0,124.0,128.0,128.0,127.0,128.0,107.0,126.0,27.0,-103.0,-72.0,127.0,127.0,127.0,111.0,87.0,-114.0
126.0,125.0,128.0,129.0,127.0,128.0,107.0,126.0,27.0,-103.0,-72.0,127.0,127.0,127.0,111.0,87.0,-114.0
126.0,125.0,128.0,129.0,127.0,128.0,107.0,126.0,27.0,-103.0,-72.0,127.0,127.0,127.0,111.0,87.0,-114.0
126.0,125.0,130.0,128.0,127.0,127.0,106.0,127.0,27.0,-103.0,-72.0,127.0,127.0,127.0,111.0,87.0,-114.0
125.0,124.0,130.0,128.0,127.0,127.0,106.0,127.0,27.0,-103.0,-72.0,127.0,127.0,127.0,111.0,87.0,-114.0
127.0,129.0,126.0,128.0,127.0,127.0,106.0,130.0,26.0,-103.0,-72.0,127.0,127.0,127.0,111.0,87.0,-114.0
127.0,129.0,126.0,128.0,127.0,127.0,107.0,130.0,26.0,-103.0,-72.0,127.0,127.0,127.0,111.0,87.0,-114.0
127.0,129.0,126.0,129.0,127.0,127.0,107.0,130.0,26.0,-103.0,-72.0,127.0,127.0,127.0,111.0,87.0,-114.0
127.0,129.0,125.0,129.0,127.0,127.0,107.0,131.0,26.0,-103.0,-72.0,127.0,127.0,127.0,111.0,87.0,-114.0
127.0,129.0,125.0,130.0,127.0,127.0,107.0,131.0,26.0,-103.0,-72.0,127.0,127.0,127.0,111.0,87.0,-114.0
127.0,129.0,125.0,130.0,127.0,127.0,107.0,131.0,26.0,-103.0,-72.0,127.0,127.0,127.0,111.0,87.0,-114.0
127.0,129.0,125.0,130.0,127.0,127.0,106.0,130.0,26.0,-103.0,-72.0,127.0,127.0,127.0,111.0,87.0,-114.0
126.0,128.0,128.0,127.0,126.0,127.0,106.0,129.0,26.0,-103.0,-72.0,127.0,127.0,127.0,111.0,87.0,-114.0
127.0,129.0,127.0,127.0,127.0,127.0,107.0,130.0,26.0,-103.0,-72.0,127.0,127.0,127.0,111.0,87.0,-114.0
127.0,129.0,127.0,128.0,127.0,128.0,106.0,130.0,26.0,-103.0,-72.0,127.0,127.0,127.0,111.0,87.0,-114.0
127.0,129.0,128.0,128.0,127.0,127.0,106.0,126.0,26.0,-104.0,-72.0,127.0,127.0,127.0,111.0,87.0,-114.0
127.0,129.0,128.0,128.0,128.0,128.0,106.0,125.0,26.0,-104.0,-72.0,127.0,127.0,127.0,111.0,87.0,-114.0
127.0,129.0,128.0,128.0,128.0,128.0,107.0,125.0,26.0,-104.0,-72.0,127.0,127.0,127.0,111.0,87.0,-114.0
127.0,129.0,128.0,129.0,128.0,128.0,107.0,125.0,26.0,-104.0,-72.0,127.0,127.0,127.0,111.0,87.0,-114.0
127.0,129.0,128.0,129.0,128.0,128.0,107.0,125.0,26.0,-104.0,-72.0,127.0,127.0,127.0,111.0,87.0,-114.0
127.0,129.0,127.0,128.0,128.0,128.0,107.0,125.0,26.0,-104.0,-72.0,127.0,127.0,127.0,111.0,87.0,-114.0
127.0,129.0,129.0,127.0,127.0,128.0,106.0,126.0,26.0,-104.0,-72.0,127.0,127.0,127.0,111.0,87.0,-114.0
127.0,129.0,128.0,127.0,127.0,128.0,106.0,126.0,26.0,-104.0,-72.0,127.0,127.0,127.0,111.0,87.0,-114.0
127.0,128.0,128.0,128.0,127.0,128.0,106.0,126.0,26.0,-104.0,-72.0,127.0,127.0,127.0,111.0,87.0,-114.0
127.0,129.0,128.0,128.0,127.0,127.0,106.0,126.0,26.0,-104.0,-72.0,127.0,127.0,127.0,111.0,87.0,-114.0
127.0,128.0,131.0,129.0,127.0,127.0,106.0,127.0,26.0,-104.0,-71.0,127.0,127.0,127.0,111.0,87.0,-114.0
127.0,128.0,131.0,129.0,127.0,127.0,107.0,127.0,26.0,-104.0,-71.0,127.0,127.0,127.0,111.0,87.0,-114.0
127.0,127.0,130.0,129.0,127.0,127.0,107.0,127.0,26.0,-104.0,-71.0,127.0,127.0,127.0,111.0,87.0,-114.0
127.0,127.0,130.0,129.0,127.0,127.0,107.0,127.0,26.0,-104.0,-71.0,127.0,127.0,127.0,111.0,87.0,-114.0
127.0,127.0,129.0,129.0,127.0,127.0,106.0,127.0,26.0,-104.0,-71.0,127.0,127.0,127.0,111.0,87.0,-114.0
126.0,127.0,131.0,128.0,126.0,127.0,110.0,126.0,26.0,-104.0,-71.0,127.0,127.0,127.0,111.0,87.0,-114.0
126.0,127.0,132.0,128.0,127.0,127.0,108.0,126.0,26.0,-104.0,-71.0,127.0,127.0,127.0,111.0,87.0,-114.0
126.0,127.0,132.0,128.0,127.0,127.0,106.0,126.0,26.0,-104.0,-71.0,127.0,127.0,127.0,111.0,87.0,-114.0
127.0,128.0,132.0,128.0,127.0,127.0,108.0,126.0,26.0,-104.0,-71.0,127.0,127.0,127.0,111.0,87.0,-114.0
127.0,128.0,132.0,129.0,127.0,127.0,106.0,126.0,26.0,-104.0,-71.0,127.0,127.0,127.0,111.0,87.0,-114.0
126.0,128.0,127.0,128.0,127.0,127.0,107.0,127.0,26.0,-103.0,-71.0,127.0,127.0,127.0,111.0,87.0,-114.0
126.0,128.0,127.0,128.0,127.0,127.0,107.0,127.0,26.0,-103.0,-71.0,127.0,127.0,127.0,111.0,87.0,-114.0
126.0,128.0,127.0,128.0,127.0,127.0,107.0,127.0,26.0,-103.0,-71.0,127.0,127.0,127.0,111.0,87.0,-114.0
126.0,128.0,127.0,128.0,127.0,127.0,107.0,127.0,26.0,-103.0,-71.0,127.0,127.0,127.0,111.0,87.0,-114.0
126.0,127.0,127.0,127.0,127.0,127.0,113.0,126.0,26.0,-103.0,-71.0,127.0,127.0,127.0,111.0,87.0,-114.0
126.0,127.0,127.0,127.0,127.0,127.0,112.0,127.0,26.0,-103.0,-71.0,127.0,127.0,127.0,111.0,87.0,-114.0
126.0,127.0,127.0,127.0,127.0,127.0,107.0,127.0,26.0,-103.0,-71.0,127.0,127.0,127.0,111.0,87.0,-114.0
126.0,127.0,127.0,127.0,127.0,127.0,106.0,127.0,26.0,-103.0,-71.0,127.0,127.0,127.0,111.0,87.0,-114.0
126.0,127.0,127.0,128.0,127.0,127.0,106.0,127.0,26.0,-103.0,-71.0,127.0,127.0,127.0,111.0,87.0,-114.0
126.0,128.0,126.0,128.0,127.0,127.0,106.0,127.0,26.0,-103.0,-71.0,127.0,127.0,127.0,111.0,87.0,-114.0
126.0,127.0,131.0,127.0,127.0,127.0,107.0,127.0,26.0,-103.0,-71.0,127.0,127.0,127.0,111.0,87.0,-114.0
126.0,127.0,131.0,127.0,127.0,127.0,106.0,128.0,26.0,-103.0,-71.0,127.0,127.0,127.0,111.0,87.0,-114.0
126.0,127.0,131.0,127.0,127.0,127.0,107.0,128.0,26.0,-103.0,-71.0,127.0,127.0,127.0,111.0,87.0,-114.0
126.0,127.0,131.0,127.0,127.0,127.0,113.0,127.0,26.0,-103.0,-71.0,127.0,127.0,127.0,111.0,87.0,-114.0
126.0,127.0,131.0,127.0,127.0,127.0,113.0,127.0,26.0,-103.0,-71.0,127.0,127.0,127.0,111.0,87.0,-114.0
126.0,127.0,131.0,127.0,127.0,127.0,111.0,127.0,26.0,-103.0,-71.0,127.0,127.0,127.0,111.0,87.0,-114.0
126.0,127.0,132.0,127.0,127.0,127.0,106.0,127.0,26.0,-103.0,-71.0,127.0,127.0,127.0,111.0,87.0,-114.0
126.0,127.0,132.0,126.0,126.0,127.0,106.0,127.0,26.0,-103.0,-71.0,127.0,127.0,127.0,111.0,87.0,-114.0
126.0,127.0,132.0,127.0,127.0,127.0,106.0,127.0,26.0,-103.0,-71.0,127.0,127.0,127.0,111.0,87.0,-114.0
126.0,127.0,132.0,127.0,127.0,127.0,106.0,127.0,26.0,-103.0,-71.0,127.0,127.0,127.0,111.0,87.0,-114.0
126.0,127.0,130.0,128.0,127.0,127.0,107.0,128.0,26.0,-103.0,-71.0,127.0,127.0,127.0,111.0,87.0,-114.0
126.0,127.0,130.0,129.0,127.0,127.0,107.0,129.0,26.0,-103.0,-71.0,127.0,127.0,127.0,111.0,87.0,-114.0
126.0,126.0,130.0,127.0,127.0,127.0,112.0,127.0,26.0,-103.0,-71.0,127.0,127.0,127.0,111.0,87.0,-114.0
126.0,127.0,130.0,128.0,127.0,127.0,113.0,127.0,26.0,-103.0,-71.0,127.0,127.0,127.0,111.0,87.0,-114.0
126.0,127.0,130.0,128.0,128.0,127.0,113.0,127.0,26.0,-103.0,-71.0,127.0,127.0,127.0,111.0,87.0,-114.0
126.0,127.0,130.0,128.0,128.0,127.0,109.0,127.0,26.0,-103.0,-71.0,127.0,127.0,127.0,111.0,87.0,-114.0
126.0,127.0,130.0,128.0,128.0,127.0,106.0,128.0,26.0,-103.0,-71.0,127.0,127.0,127.0,111.0,87.0,-114.0
126.0,127.0,130.0,128.0,128.0,127.0,106.0,128.0,26.0,-103.0,-71.0,127.0,127.0,127.0,111.0,87.0,-114.0
126.0,127.0,130.0,128.0,128.0,127.0,107.0,128.0,26.0,-103.0,-71.0,127.0,127.0,127.0,111.0,87.0,-114.0
126.0,127.0,130.0,128.0,128.0,127.0,107.0,128.0,26.0,-103.0,-71.0,127.0,127.0,127.0,111.0,87.0,-114.0
126.0,127.0,128.0,128.0,127.0,128.0,106.0,136.0,26.0,-103.0,-71.0,127.0,127.0,127.0,111.0,87.0,-114.0
126.0,126.0,130.0,126.0,126.0,127.0,110.0,134.0,26.0,-103.0,-71.0,127.0,127.0,127.0,111.0,87.0,-114.0
126.0,126.0,129.0,126.0,126.0,127.0,107.0,135.0,26.0,-103.0,-71.0,127.0,127.0,127.0,111.0,87.0,-114.0
126.0,126.0,129.0,126.0,126.0,127.0,107.0,135.0,26.0,-103.0,-71.0,127.0,127.0,127.0,111.0,87.0,-114.0
126.0,127.0,129.0,127.0,126.0,127.0,106.0,135.0,26.0,-103.0,-71.0,127.0,127.0,127.0,111.0,87.0,-114.0
126.0,127.0,129.0,127.0,126.0,127.0,106.0,135.0,26.0,-103.0,-71.0,127.0,127.0,127.0,111.0,87.0,-114.0
126.0,127.0,129.0,127.0,126.0,127.0,107.0,135.0,26.0,-103.0,-71.0,127.0,127.0,127.0,111.0,87.0,-114.0
126.0,127.0,128.0,127.0,126.0,127.0,107.0,136.0,26.0,-103.0,-71.0,127.0,127.0,127.0,111.0,87.0,-114.0
126.0,127.0,128.0,127.0,127.0,127.0,106.0,136.0,26.0,-103.0,-71.0,127.0,127.0,127.0,111.0,87.0,-114.0
126.0,127.0,128.0,127.0,127.0,127.0,106.0,136.0,26.0,-103.0,-71.0,127.0,127.0,127.0,111.0,87.0,-114.0
126.0,127.0,128.0,130.0,127.0,127.0,107.0,133.0,26.0,-103.0,-71.0,127.0,127.0,127.0,111.0,87.0,-114.0
126.0,127.0,128.0,130.0,127.0,127.0,106.0,134.0,26.0,-103.0,-71.0,127.0,127.0,127.0,111.0,87.0,-114.0
126.0,128.0,129.0,130.0,127.0,127.0,106.0,134.0,26.0,-103.0,-71.0,127.0,127.0,127.0,111.0,87.0,-114.0
126.0,128.0,129.0,130.0,127.0,127.0,106.0,134.0,26.0,-103.0,-71.0,127.0,127.0,127.0,111.0,87.0,-114.0
126.0,128.0,129.0,130.0,127.0,128.0,106.0,134.0,26.0,-103.0,-71.0,127.0,127.0,127.0,111.0,87.0,-114.0
126.0,128.0,129.0,129.0,127.0,128.0,107.0,134.0,26.0,-103.0,-71.0,127.0,127.0,127.0,111.0,87.0,-114.0
126.0,128.0,128.0,129.0,127.0,128.0,107.0,134.0,26.0,-103.0,-71.0,127.0,127.0,127.0,111.0,87.0,-114.0
126.0,128.0,128.0,129.0,128.0,128.0,107.0,134.0,26.0,-103.0,-71.0,127.0,127.0,127.0,111.0,87.0,-114.0
126.0,128.0,128.0,129.0,128.0,128.0,107.0,134.0,26.0,-103.0,-71.0,127.0,127.0,127.0,111.0,87.0,-114.0
126.0,128.0,128.0,128.0,127.0,128.0,108.0,134.0,26.0,-103.0,-71.0,127.0,127.0,127.0,111.0,87.0,-114.0
126.0,127.0,129.0,128.0,127.0,127.0,107.0,130.0,27.0,-103.0,-71.0,127.0,127.0,127.0,111.0,87.0,-114.0
126.0,127.0,129.0,128.0,127.0,127.0,106.0,130.0,27.0,-103.0,-71.0,127.0,127.0,127.0,111.0,87.0,-114.0
126.0,127.0,129.0,127.0,127.0,127.0,107.0,130.0,27.0,-103.0,-71.0,127.0,127.0,127.0,111.0,87.0,-114.0
127.0,128.0,129.0,127.0,127.0,127.0,107.0,130.0,27.0,-103.0,-71.0,127.0,127.0,127.0,111.0,87.0,-114.0
127.0,128.0,130.0,128.0,127.0,127.0,106.0,130.0,27.0,-103.0,-71.0,127.0,127.0,127.0,111.0,87.0,-114.0
127.0,128.0,130.0,128.0,127.0,127.0,106.0,130.0,27.0,-103.0,-71.0,127.0,127.0,127.0,111.0,87.0,-114.0
127.0,128.0,130.0,128.0,127.0,127.0,106.0,130.0,27.0,-103.0,-71.0,127.0,127.0,127.0,111.0,87.0,-114.0
127.0,128.0,130.0,128.0,127.0,127.0,106.0,130.0,27.0,-103.0,-71.0,127.0,127.0,127.0,111.0,87.0,-114.0
127.0,128.0,130.0,128.0,127.0,127.0,107.0,130.0,27.0,-103.0,-71.0,127.0,127.0,127.0,111.0,87.0,-114.0
126.0,127.0,128.0,127.0,127.0,127.0,106.0,130.0,27.0,-103.0,-71.0,127.0,127.0,127.0,111.0,87.0,-114.0
127.0,128.0,128.0,127.0,127.0,127.0,113.0,130.0,27.0,-103.0,-71.0,127.0,127.0,127.0,111.0,87.0,-114.0
127.0,128.0,128.0,126.0,128.0,127.0,110.0,130.0,27.0,-103.0,-71.0,127.0,127.0,127.0,111.0,87.0,-114.0
127.0,128.0,128.0,126.0,128.0,127.0,107.0,130.0,27.0,-103.0,-71.0,127.0,127.0,127.0,111.0,87.0,-114.0
127.0,128.0,128.0,126.0,128.0,127.0,106.0,130.0,27.0,-103.0,-71.0,127.0,127.0,127.0,111.0,87.0,-114.0
127.0,128.0,128.0,126.0,128.0,127.0,106.0,130.0,27.0,-103.0,-71.0,127.0,127.0,127.0,111.0,87.0,-114.0
127.0,128.0,127.0,125.0,128.0,127.0,107.0,130.0,27.0,-103.0,-71.0,127.0,127.0,127.0,111.0,87.0,-114.0
127.0,128.0,127.0,125.0,128.0,127.0,106.0,130.0,27.0,-103.0,-71.0,127.0,127.0,127.0,111.0,87.0,-114.0
127.0,128.0,127.0,124.0,128.0,127.0,106.0,130.0,27.0,-103.0,-71.0,127.0,127.0,127.0,111.0,87.0,-114.0
127.0,127.0,129.0,126.0,127.0,127.0,113.0,130.0,27.0,-103.0,-71.0,127.0,127.0,127.0,111.0,87.0,-114.0
127.0,127.0,128.0,126.0,127.0,127.0,113.0,130.0,27.0,-103.0,-71.0,127.0,127.0,127.0,111.0,87.0,-114.0
126.0,127.0,125.0,126.0,126.0,127.0,108.0,128.0,27.0,-103.0,-71.0,127.0,127.0,127.0,111.0,87.0,-114.0
126.0,127.0,125.0,125.0,126.0,127.0,106.0,129.0,27.0,-103.0,-71.0,127.0,127.0,127.0,111.0,87.0,-114.0
126.0,127.0,124.0,125.0,126.0,127.0,106.0,129.0,27.0,-103.0,-71.0,127.0,127.0,127.0,111.0,87.0,-114.0
126.0,128.0,124.0,125.0,126.0,127.0,106.0,129.0,27.0,-103.0,-71.0,127.0,127.0,127.0,111.0,87.0,-114.0
126.0,128.0,124.0,124.0,127.0,128.0,106.0,129.0,27.0,-103.0,-71.0,127.0,127.0,127.0,111.0,87.0,-114.0
126.0,128.0,124.0,125.0,127.0,128.0,107.0,129.0,27.0,-103.0,-71.0,127.0,127.0,127.0,111.0,87.0,-114.0
127.0,128.0,124.0,125.0,127.0,128.0,108.0,129.0,27.0,-103.0,-71.0,127.0,127.0,127.0,111.0,87.0,-114.0
126.0,126.0,124.0,127.0,126.0,127.0,113.0,128.0,27.0,-103.0,-71.0,127.0,127.0,127.0,111.0,87.0,-114.0
126.0,127.0,124.0,126.0,126.0,127.0,113.0,128.0,27.0,-103.0,-71.0,127.0,127.0,127.0,111.0,87.0,-114.0
126.0,127.0,124.0,126.0,126.0,127.0,113.0,128.0,27.0,-103.0,-71.0,127.0,127.0,127.0,111.0,87.0,-114.0
127.0,128.0,122.0,126.0,128.0,127.0,106.0,130.0,27.0,-103.0,-71.0,127.0,127.0,127.0,111.0,87.0,-114.0
127.0,129.0,122.0,127.0,128.0,127.0,107.0,130.0,27.0,-103.0,-71.0,127.0,127.0,127.0,111.0,87.0,-114.0
127.0,129.0,122.0,127.0,128.0,128.0,106.0,130.0,27.0,-103.0,-71.0,127.0,127.0,127.0,111.0,87.0,-114.0
127.0,129.0,122.0,128.0,128.0,128.0,107.0,130.0,27.0,-103.0,-71.0,127.0,127.0,127.0,111.0,87.0,-114.0
127.0,129.0,122.0,128.0,128.0,128.0,107.0,130.0,27.0,-103.0,-71.0,127.0,127.0,127.0,111.0,87.0,-114.0
127.0,129.0,122.0,128.0,128.0,128.0,107.0,130.0,27.0,-103.0,-71.0,127.0,127.0,127.0,111.0,87.0,-114.0
127.0,127.0,123.0,125.0,127.0,127.0,106.0,129.0,27.0,-103.0,-71.0,127.0,127.0,127.0,111.0,87.0,-114.0
127.0,128.0,123.0,126.0,127.0,127.0,106.0,129.0,27.0,-103.0,-71.0,127.0,127.0,127.0,111.0,87.0,-114.0
127.0,128.0,123.0,126.0,127.0,127.0,106.0,130.0,27.0,-103.0,-71.0,127.0,127.0,127.0,111.0,87.0,-114.0
127.0,128.0,122.0,126.0,128.0,127.0,106.0,130.0,27.0,-103.0,-71.0,127.0,127.0,127.0,111.0,87.0,-114.0
127.0,127.0,123.0,128.0,127.0,128.0,108.0,129.0,28.0,-104.0,-71.0,126.0,127.0,127.0,111.0,87.0,-114.0
127.0,127.0,123.0,128.0,127.0,128.0,108.0,129.0,28.0,-104.0,-71.0,126.0,127.0,127.0,111.0,87.0,-114.0
126.0,127.0,123.0,127.0,127.0,128.0,108.0,129.0,28.0,-104.0,-71.0,126.0,127.0,127.0,111.0,87.0,-114.0
127.0,128.0,123.0,127.0,127.0,128.0,108.0,129.0,28.0,-104.0,-71.0,126.0,127.0,127.0,111.0,87.0,-114.0
127.0,128.0,122.0,127.0,127.0,128.0,108.0,129.0,28.0,-104.0,-71.0,126.0,127.0,127.0,111.0,87.0,-114.0
126.0,127.0,126.0,129.0,127.0,128.0,108.0,129.0,28.0,-104.0,-71.0,126.0,127.0,127.0,111.0,87.0,-114.0
126.0,127.0,125.0,129.0,127.0,128.0,108.0,129.0,28.0,-104.0,-71.0,126.0,127.0,127.0,111.0,87.0,-114.0
127.0,127.0,124.0,129.0,127.0,128.0,108.0,129.0,28.0,-104.0,-71.0,126.0,127.0,127.0,111.0,87.0,-114.0
127.0,127.0,124.0,129.0,127.0,128.0,108.0,129.0,28.0,-104.0,-71.0,126.0,127.0,127.0,111.0,87.0,-114.0
127.0,127.0,124.0,129.0,127.0,128.0,108.0,129.0,28.0,-104.0,-71.0,126.0,127.0,127.0,111.0,87.0,-114.0
127.0,128.0,123.0,127.0,127.0,129.0,109.0,129.0,28.0,-104.0,-70.0,126.0,127.0,127.0,111.0,87.0,-114.0
126.0,128.0,122.0,127.0,127.0,129.0,109.0,129.0,28.0,-104.0,-70.0,126.0,127.0,127.0,111.0,87.0,-114.0
127.0,128.0,122.0,127.0,127.0,129.0,109.0,129.0,28.0,-104.0,-70.0,126.0,127.0,127.0,111.0,87.0,-114.0
127.0,128.0,122.0,128.0,127.0,129.0,108.0,129.0,28.0,-104.0,-70.0,126.0,127.0,127.0,111.0,87.0,-114.0
126.0,127.0,123.0,127.0,127.0,129.0,108.0,129.0,28.0,-104.0,-70.0,126.0,127.0,127.0,111.0,87.0,-114.0
126.0,127.0,123.0,127.0,127.0,128.0,108.0,128.0,28.0,-104.0,-70.0,126.0,127.0,127.0,111.0,87.0,-114.0
127.0,127.0,123.0,127.0,127.0,128.0,108.0,129.0,28.0,-104.0,-70.0,126.0,127.0,127.0,111.0,87.0,-114.0
127.0,127.0,123.0,127.0,127.0,129.0,108.0,129.0,28.0,-104.0,-70.0,126.0,127.0,127.0,111.0,87.0,-114.0
127.0,127.0,123.0,127.0,127.0,129.0,108.0,129.0,28.0,-104.0,-70.0,126.0,127.0,127.0,111.0,87.0,-114.0
127.0,127.0,123.0,127.0,127.0,129.0,109.0,129.0,28.0,-104.0,-70.0,126.0,127.0,127.0,111.0,87.0,-114.0
127.0,127.0,119.0,126.0,127.0,129.0,110.0,129.0,28.0,-105.0,-70.0,126.0,127.0,127.0,111.0,87.0,-114.0
127.0,128.0,119.0,126.0,127.0,129.0,110.0,129.0,28.0,-105.0,-70.0,126.0,127.0,127.0,111.0,87.0,-114.0
127.0,128.0,119.0,127.0,127.0,129.0,110.0,129.0,28.0,-105.0,-70.0,126.0,127.0,127.0,111.0,87.0,-114.0
126.0,126.0,121.0,126.0,126.0,129.0,109.0,129.0,28.0,-105.0,-70.0,126.0,127.0,127.0,111.0,87.0,-114.0
126.0,126.0,121.0,125.0,126.0,129.0,109.0,129.0,28.0,-105.0,-70.0,126.0,127.0,127.0,111.0,87.0,-114.0
126.0,127.0,120.0,125.0,127.0,129.0,109.0,129.0,28.0,-105.0,-70.0,126.0,127.0,127.0,111.0,87.0,-114.0
127.0,127.0,120.0,125.0,127.0,129.0,109.0,129.0,28.0,-105.0,-70.0,126.0,127.0,127.0,111.0,87.0,-114.0
127.0,127.0,120.0,125.0,127.0,129.0,110.0,129.0,28.0,-105.0,-70.0,126.0,127.0,127.0,111.0,87.0,-114.0
127.0,127.0,120.0,125.0,127.0,129.0,110.0,129.0,28.0,-105.0,-70.0,126.0,127.0,127.0,111.0,87.0,-114.0
127.0,127.0,119.0,126.0,127.0,129.0,110.0,129.0,28.0,-105.0,-70.0,126.0,127.0,127.0,111.0,87.0,-114.0
127.0,128.0,115.0,128.0,127.0,129.0,109.0,129.0,28.0,-105.0,-70.0,127.0,127.0,127.0,111.0,87.0,-114.0
127.0,128.0,115.0,128.0,128.0,129.0,109.0,130.0,28.0,-105.0,-70.0,127.0,127.0,127.0,111.0,87.0,-114.0
127.0,126.0,115.0,127.0,127.0,128.0,108.0,129.0,28.0,-105.0,-70.0,127.0,127.0,127.0,111.0,87.0,-114.0
127.0,127.0,114.0,127.0,127.0,128.0,107.0,129.0,28.0,-105.0,-70.0,127.0,127.0,127.0,111.0,87.0,-114.0
127.0,127.0,114.0,128.0,127.0,128.0,108.0,129.0,28.0,-105.0,-70.0,127.0,127.0,127.0,111.0,87.0,-114.0
127.0,127.0,114.0,128.0,127.0,128.0,108.0,129.0,28.0,-105.0,-70.0,127.0,127.0,127.0,111.0,87.0,-114.0
127.0,127.0,114.0,128.0,127.0,129.0,108.0,129.0,28.0,-105.0,-70.0,127.0,127.0,127.0,111.0,87.0,-114.0
127.0,127.0,114.0,128.0,127.0,128.0,108.0,129.0,28.0,-105.0,-70.0,127.0,127.0,127.0,111.0,87.0,-114.0
127.0,128.0,114.0,128.0,127.0,128.0,108.0,129.0,28.0,-105.0,-70.0,127.0,127.0,127.0,111.0,87.0,-114.0
127.0,128.0,115.0,128.0,127.0,129.0,109.0,129.0,28.0,-105.0,-70.0,127.0,127.0,127.0,111.0,87.0,-114.0
127.0,128.0,123.0,126.0,127.0,129.0,109.0,130.0,28.0,-105.0,-70.0,127.0,127.0,127.0,111.0,87.0,-114.0
127.0,127.0,123.0,126.0,127.0,128.0,108.0,129.0,28.0,-105.0,-70.0,127.0,127.0,127.0,111.0,87.0,-114.0
127.0,127.0,123.0,126.0,127.0,128.0,108.0,130.0,28.0,-105.0,-70.0,127.0,127.0,127.0,111.0,87.0,-114.0
127.0,127.0,123.0,126.0,127.0,129.0,108.0,130.0,28.0,-105.0,-70.0,127.0,127.0,127.0,111.0,87.0,-114.0
127.0,127.0,123.0,126.0,127.0,128.0,108.0,130.0,28.0,-105.0,-70.0,127.0,127.0,127.0,111.0,87.0,-114.0
127.0,128.0,123.0,126.0,127.0,129.0,108.0,130.0,28.0,-105.0,-70.0,127.0,127.0,127.0,111.0,87.0,-114.0
127.0,128.0,123.0,126.0,127.0,128.0,108.0,130.0,28.0,-105.0,-70.0,127.0,127.0,127.0,111.0,87.0,-114.0
127.0,128.0,123.0,126.0,127.0,129.0,108.0,130.0,28.0,-105.0,-70.0,127.0,127.0,127.0,111.0,87.0,-114.0
127.0,128.0,123.0,126.0,127.0,129.0,109.0,130.0,28.0,-105.0,-70.0,127.0,127.0,127.0,111.0,87.0,-114.0
127.0,128.0,123.0,126.0,127.0,129.0,109.0,130.0,28.0,-105.0,-70.0,127.0,127.0,127.0,111.0,87.0,-114.0
127.0,127.0,130.0,128.0,128.0,126.0,112.0,129.0,28.0,-105.0,-70.0,127.0,127.0,127.0,111.0,87.0,-114.0
127.0,127.0,130.0,128.0,128.0,127.0,112.0,129.0,28.0,-105.0,-70.0,127.0,127.0,127.0,111.0,87.0,-114.0
127.0,127.0,130.0,128.0,128.0,127.0,112.0,129.0,28.0,-105.0,-70.0,127.0,127.0,127.0,111.0,87.0,-114.0
128.0,127.0,130.0,128.0,128.0,127.0,112.0,129.0,28.0,-105.0,-70.0,127.0,127.0,127.0,111.0,87.0,-114.0
128.0,127.0,130.0,128.0,128.0,127.0,112.0,129.0,28.0,-105.0,-70.0,127.0,127.0,127.0,111.0,87.0,-114.0
127.0,128.0,130.0,128.0,128.0,126.0,112.0,129.0,28.0,-105.0,-70.0,127.0,127.0,127.0,111.0,87.0,-114.0
128.0,128.0,130.0,128.0,128.0,127.0,112.0,129.0,28.0,-105.0,-70.0,127.0,127.0,127.0,111.0,87.0,-114.0
128.0,128.0,130.0,128.0,128.0,127.0,112.0,129.0,28.0,-105.0,-70.0,127.0,127.0,127.0,111.0,87.0,-114.0
128.0,128.0,130.0,128.0,128.0,127.0,112.0,129.0,28.0,-105.0,-70.0,127.0,127.0,127.0,111.0,87.0,-114.0
128.0,128.0,130.0,128.0,128.0,127.0,112.0,130.0,28.0,-105.0,-70.0,127.0,127.0,127.0,111.0,87.0,-114.0
127.0,127.0,135.0,126.0,128.0,126.0,111.0,128.0,28.0,-105.0,-70.0,126.0,127.0,127.0,111.0,87.0,-114.0
127.0,127.0,135.0,126.0,128.0,126.0,111.0,128.0,28.0,-105.0,-70.0,126.0,127.0,127.0,111.0,87.0,-114.0
127.0,127.0,135.0,126.0,128.0,126.0,112.0,129.0,28.0,-105.0,-70.0,126.0,127.0,127.0,111.0,87.0,-114.0
127.0,127.0,134.0,126.0,128.0,126.0,112.0,129.0,28.0,-105.0,-70.0,126.0,127.0,127.0,111.0,87.0,-114.0
127.0,127.0,134.0,126.0,128.0,126.0,112.0,129.0,28.0,-105.0,-70.0,126.0,127.0,127.0,111.0,87.0,-114.0
128.0,128.0,134.0,126.0,128.0,126.0,112.0,129.0,28.0,-105.0,-70.0,126.0,127.0,127.0,111.0,87.0,-114.0
128.0,128.0,134.0,126.0,128.0,126.0,112.0,129.0,28.0,-105.0,-70.0,126.0,127.0,127.0,111.0,87.0,-114.0
128.0,128.0,134.0,126.0,128.0,126.0,111.0,129.0,28.0,-105.0,-70.0,126.0,127.0,127.0,111.0,87.0,-114.0
128.0,128.0,134.0,127.0,128.0,126.0,112.0,129.0,28.0,-105.0,-70.0,126.0,127.0,127.0,111.0,87.0,-114.0
127.0,127.0,135.0,126.0,128.0,126.0,110.0,128.0,28.0,-105.0,-70.0,126.0,127.0,127.0,111.0,87.0,-114.0
127.0,127.0,135.0,123.0,127.0,127.0,112.0,128.0,28.0,-105.0,-69.0,126.0,127.0,127.0,111.0,87.0,-114.0
127.0,127.0,135.0,123.0,127.0,127.0,113.0,128.0,28.0,-105.0,-69.0,126.0,127.0,127.0,111.0,87.0,-114.0
127.0,127.0,135.0,123.0,127.0,127.0,112.0,128.0,28.0,-105.0,-69.0,126.0,127.0,127.0,111.0,87.0,-114.0
127.0,127.0,135.0,123.0,127.0,127.0,108.0,128.0,28.0,-105.0,-69.0,126.0,127.0,127.0,111.0,87.0,-114.0
127.0,128.0,134.0,124.0,127.0,127.0,112.0,128.0,28.0,-105.0,-69.0,126.0,127.0,127.0,111.0,87.0,-114.0
127.0,128.0,134.0,124.0,127.0,127.0,108.0,129.0,28.0,-105.0,-69.0,126.0,127.0,127.0,111.0,87.0,-114.0
127.0,128.0,134.0,124.0,127.0,127.0,106.0,129.0,28.0,-105.0,-69.0,126.0,127.0,127.0,111.0,87.0,-114.0
127.0,128.0,134.0,124.0,127.0,127.0,106.0,129.0,28.0,-105.0,-69.0,126.0,127.0,127.0,111.0,87.0,-114.0
127.0,127.0,135.0,123.0,127.0,126.0,112.0,128.0,28.0,-105.0,-69.0,126.0,127.0,127.0,111.0,87.0,-114.0
127.0,127.0,135.0,123.0,127.0,126.0,112.0,128.0,28.0,-105.0,-69.0,126.0,127.0,127.0,111.0,87.0,-114.0
127.0,127.0,133.0,122.0,125.0,127.0,112.0,128.0,28.0,-106.0,-70.0,126.0,127.0,127.0,111.0,87.0,-114.0
127.0,127.0,132.0,122.0,125.0,127.0,112.0,128.0,28.0,-106.0,-70.0,126.0,127.0,127.0,111.0,87.0,-114.0
127.0,127.0,132.0,122.0,125.0,127.0,112.0,128.0,28.0,-106.0,-70.0,126.0,127.0,127.0,111.0,87.0,-114.0
127.0,127.0,132.0,122.0,125.0,127.0,113.0,128.0,28.0,-106.0,-70.0,126.0,127.0,127.0,111.0,87.0,-114.0
127.0,127.0,132.0,123.0,125.0,127.0,113.0,128.0,28.0,-106.0,-70.0,126.0,127.0,127.0,111.0,87.0,-114.0
127.0,127.0,132.0,123.0,125.0,127.0,113.0,129.0,28.0,-106.0,-70.0,126.0,127.0,127.0,111.0,87.0,-114.0
127.0,128.0,132.0,123.0,125.0,127.0,107.0,129.0,28.0,-106.0,-70.0,126.0,127.0,127.0,111.0,87.0,-114.0
127.0,126.0,133.0,123.0,125.0,126.0,112.0,128.0,28.0,-106.0,-70.0,126.0,127.0,127.0,111.0,87.0,-114.0
127.0,127.0,133.0,122.0,125.0,126.0,112.0,128.0,28.0,-106.0,-70.0,126.0,127.0,127.0,111.0,87.0,-114.0
127.0,127.0,133.0,122.0,125.0,126.0,113.0,128.0,28.0,-106.0,-70.0,126.0,127.0,127.0,111.0,87.0,-114.0
127.0,127.0,132.0,123.0,124.0,127.0,112.0,128.0,28.0,-107.0,-70.0,126.0,127.0,127.0,111.0,87.0,-114.0
127.0,127.0,132.0,124.0,125.0,127.0,113.0,128.0,28.0,-107.0,-70.0,126.0,127.0,127.0,111.0,87.0,-114.0
127.0,127.0,132.0,124.0,125.0,127.0,113.0,128.0,28.0,-107.0,-70.0,126.0,127.0,127.0,111.0,87.0,-114.0
127.0,127.0,132.0,125.0,125.0,127.0,112.0,128.0,28.0,-107.0,-70.0,126.0,127.0,127.0,111.0,87.0,-114.0
127.0,127.0,132.0,125.0,125.0,127.0,110.0,128.0,28.0,-107.0,-70.0,126.0,127.0,127.0,111.0,87.0,-114.0
127.0,127.0,132.0,126.0,125.0,127.0,106.0,129.0,28.0,-107.0,-70.0,126.0,127.0,127.0,111.0,87.0,-114.0
127.0,126.0,132.0,121.0,124.0,126.0,112.0,128.0,28.0,-107.0,-70.0,126.0,127.0,127.0,111.0,87.0,-114.0
127.0,127.0,132.0,122.0,124.0,126.0,112.0,128.0,28.0,-107.0,-70.0,126.0,127.0,127.0,111.0,87.0,-114.0
127.0,127.0,132.0,122.0,124.0,126.0,112.0,128.0,28.0,-107.0,-70.0,126.0,127.0,127.0,111.0,87.0,-114.0
127.0,127.0,132.0,123.0,124.0,127.0,112.0,128.0,28.0,-107.0,-70.0,126.0,127.0,127.0,111.0,87.0,-114.0
127.0,127.0,129.0,123.0,125.0,127.0,113.0,128.0,28.0,-109.0,-70.0,127.0,127.0,127.0,112.0,87.0,-114.0
127.0,127.0,129.0,123.0,125.0,127.0,113.0,128.0,28.0,-109.0,-70.0,127.0,127.0,127.0,112.0,87.0,-114.0
127.0,127.0,129.0,123.0,125.0,127.0,112.0,128.0,28.0,-109.0,-70.0,127.0,127.0,127.0,112.0,87.0,-114.0
127.0,127.0,129.0,123.0,125.0,127.0,107.0,128.0,28.0,-109.0,-70.0,127.0,127.0,127.0,112.0,87.0,-114.0
127.0,127.0,129.0,123.0,125.0,127.0,107.0,128.0,28.0,-109.0,-70.0,127.0,127.0,127.0,112.0,87.0,-114.0
126.0,126.0,130.0,122.0,124.0,127.0,112.0,128.0,28.0,-109.0,-70.0,127.0,127.0,127.0,112.0,87.0,-114.0
126.0,126.0,130.0,122.0,124.0,127.0,112.0,128.0,28.0,-109.0,-70.0,127.0,127.0,127.0,112.0,87.0,-114.0
126.0,126.0,130.0,123.0,124.0,127.0,113.0,128.0,28.0,-109.0,-70.0,127.0,127.0,127.0,112.0,87.0,-114.0
126.0,127.0,129.0,123.0,124.0,126.0,112.0,128.0,28.0,-109.0,-70.0,127.0,127.0,127.0,112.0,87.0,-114.0
127.0,127.0,129.0,123.0,125.0,127.0,112.0,128.0,28.0,-109.0,-70.0,127.0,127.0,127.0,112.0,87.0,-114.0
127.0,127.0,128.0,124.0,125.0,127.0,107.0,128.0,28.0,-109.0,-70.0,127.0,127.0,127.0,112.0,87.0,-114.0
127.0,127.0,128.0,124.0,125.0,127.0,107.0,129.0,28.0,-109.0,-70.0,127.0,127.0,127.0,112.0,87.0,-114.0
127.0,127.0,128.0,124.0,125.0,127.0,107.0,129.0,28.0,-109.0,-70.0,127.0,127.0,127.0,112.0,87.0,-114.0
127.0,127.0,128.0,124.0,125.0,127.0,107.0,129.0,28.0,-109.0,-70.0,127.0,127.0,127.0,112.0,87.0,-114.0
127.0,126.0,129.0,125.0,125.0,126.0,112.0,128.0,28.0,-109.0,-70.0,127.0,127.0,127.0,112.0,87.0,-114.0
127.0,126.0,129.0,125.0,125.0,126.0,112.0,128.0,28.0,-109.0,-70.0,127.0,127.0,127.0,112.0,87.0,-114.0
127.0,126.0,128.0,125.0,125.0,127.0,112.0,128.0,28.0,-109.0,-70.0,127.0,127.0,127.0,112.0,87.0,-114.0
127.0,127.0,128.0,125.0,125.0,127.0,112.0,128.0,28.0,-109.0,-70.0,127.0,127.0,127.0,112.0,87.0,-114.0
127.0,127.0,128.0,125.0,125.0,127.0,113.0,128.0,28.0,-109.0,-70.0,127.0,127.0,127.0,112.0,87.0,-114.0
127.0,127.0,128.0,124.0,125.0,127.0,111.0,128.0,28.0,-109.0,-70.0,127.0,127.0,127.0,112.0,87.0,-114.0
127.0,127.0,128.0,124.0,125.0,127.0,112.0,128.0,28.0,-109.0,-70.0,127.0,127.0,127.0,112.0,87.0,-114.0
127.0,127.0,128.0,124.0,125.0,127.0,108.0,128.0,28.0,-109.0,-70.0,127.0,127.0,127.0,112.0,87.0,-114.0
127.0,127.0,128.0,124.0,125.0,127.0,107.0,128.0,28.0,-109.0,-70.0,127.0,127.0,127.0,112.0,87.0,-114.0
127.0,127.0,129.0,124.0,125.0,126.0,112.0,128.0,28.0,-109.0,-70.0,127.0,127.0,127.0,112.0,87.0,-114.0
127.0,127.0,128.0,124.0,125.0,126.0,113.0,128.0,28.0,-109.0,-70.0,127.0,127.0,127.0,112.0,87.0,-114.0
127.0,127.0,128.0,124.0,125.0,126.0,113.0,128.0,28.0,-109.0,-70.0,127.0,127.0,127.0,112.0,87.0,-114.0
127.0,127.0,128.0,124.0,125.0,127.0,112.0,128.0,28.0,-109.0,-70.0,127.0,127.0,127.0,112.0,87.0,-114.0
127.0,127.0,128.0,124.0,125.0,127.0,112.0,128.0,28.0,-109.0,-70.0,127.0,127.0,127.0,112.0,87.0,-114.0
127.0,127.0,128.0,124.0,125.0,127.0,113.0,128.0,28.0,-109.0,-70.0,127.0,127.0,127.0,112.0,87.0,-114.0
127.0,127.0,128.0,124.0,125.0,127.0,113.0,128.0,28.0,-109.0,-70.0,127.0,127.0,127.0,112.0,87.0,-114.0
127.0,127.0,127.0,124.0,126.0,126.0,113.0,128.0,28.0,-108.0,-70.0,127.0,127.0,127.0,112.0,87.0,-114.0
127.0,127.0,127.0,125.0,126.0,127.0,112.0,128.0,28.0,-108.0,-70.0,127.0,127.0,127.0,112.0,87.0,-114.0
127.0,126.0,127.0,123.0,125.0,125.0,111.0,128.0,28.0,-108.0,-70.0,127.0,127.0,127.0,112.0,87.0,-114.0
127.0,126.0,127.0,123.0,125.0,126.0,111.0,128.0,28.0,-108.0,-70.0,127.0,127.0,127.0,112.0,87.0,-114.0
127.0,127.0,127.0,123.0,125.0,126.0,111.0,128.0,28.0,-108.0,-70.0,127.0,127.0,127.0,112.0,87.0,-114.0
127.0,127.0,127.0,124.0,125.0,126.0,111.0,128.0,28.0,-108.0,-70.0,127.0,127.0,127.0,112.0,87.0,-114.0
127.0,127.0,127.0,124.0,125.0,126.0,112.0,128.0,28.0,-108.0,-70.0,127.0,127.0,127.0,112.0,87.0,-114.0
127.0,127.0,127.0,124.0,125.0,126.0,112.0,128.0,28.0,-108.0,-70.0,127.0,127.0,127.0,112.0,87.0,-114.0
127.0,127.0,127.0,124.0,125.0,126.0,112.0,128.0,28.0,-108.0,-70.0,127.0,127.0,127.0,112.0,87.0,-114.0
127.0,127.0,127.0,124.0,126.0,126.0,112.0,128.0,28.0,-108.0,-70.0,127.0,127.0,127.0,112.0,87.0,-114.0
127.0,127.0,126.0,125.0,127.0,126.0,111.0,128.0,28.0,-108.0,-70.0,127.0,127.0,127.0,112.0,87.0,-114.0
127.0,126.0,126.0,123.0,126.0,125.0,110.0,128.0,28.0,-108.0,-70.0,127.0,127.0,127.0,112.0,87.0,-114.0
127.0,127.0,126.0,123.0,126.0,125.0,110.0,128.0,28.0,-108.0,-70.0,127.0,127.0,127.0,112.0,87.0,-114.0
127.0,127.0,126.0,123.0,126.0,125.0,110.0,128.0,28.0,-108.0,-70.0,127.0,127.0,127.0,112.0,87.0,-114.0
127.0,127.0,126.0,124.0,126.0,125.0,110.0,128.0,28.0,-108.0,-70.0,127.0,127.0,127.0,112.0,87.0,-114.0
127.0,127.0,126.0,124.0,127.0,125.0,111.0,128.0,28.0,-108.0,-70.0,127.0,127.0,127.0,112.0,87.0,-114.0
127.0,127.0,126.0,124.0,127.0,126.0,111.0,128.0,28.0,-108.0,-70.0,127.0,127.0,127.0,112.0,87.0,-114.0
127.0,127.0,126.0,124.0,127.0,126.0,111.0,128.0,28.0,-108.0,-70.0,127.0,127.0,127.0,112.0,87.0,-114.0
127.0,127.0,126.0,124.0,127.0,126.0,112.0,128.0,28.0,-108.0,-70.0,127.0,127.0,127.0,112.0,87.0,-114.0
127.0,127.0,126.0,124.0,127.0,126.0,112.0,128.0,28.0,-108.0,-70.0,127.0,127.0,127.0,112.0,87.0,-114.0
127.0,126.0,126.0,122.0,126.0,125.0,110.0,128.0,27.0,-107.0,-70.0,127.0,127.0,127.0,113.0,87.0,-114.0
127.0,126.0,126.0,122.0,126.0,125.0,110.0,128.0,27.0,-107.0,-70.0,127.0,127.0,127.0,113.0,87.0,-114.0
127.0,127.0,126.0,122.0,126.0,125.0,111.0,128.0,27.0,-107.0,-70.0,127.0,127.0,127.0,113.0,87.0,-114.0
127.0,127.0,126.0,122.0,126.0,125.0,111.0,128.0,27.0,-107.0,-70.0,127.0,127.0,127.0,113.0,87.0,-114.0
127.0,127.0,126.0,122.0,126.0,126.0,110.0,128.0,27.0,-107.0,-70.0,127.0,127.0,127.0,113.0,87.0,-114.0
127.0,127.0,126.0,123.0,126.0,126.0,110.0,128.0,27.0,-107.0,-70.0,127.0,127.0,127.0,113.0,87.0,-114.0
127.0,127.0,126.0,123.0,126.0,126.0,111.0,128.0,27.0,-107.0,-70.0,127.0,127.0,127.0,113.0,87.0,-114.0
127.0,127.0,126.0,123.0,126.0,126.0,112.0,128.0,27.0,-107.0,-70.0,127.0,127.0,127.0,113.0,87.0,-114.0
127.0,127.0,126.0,123.0,126.0,126.0,112.0,128.0,27.0,-107.0,-70.0,127.0,127.0,127.0,113.0,87.0,-114.0
127.0,127.0,126.0,124.0,127.0,126.0,112.0,128.0,27.0,-107.0,-70.0,127.0,127.0,127.0,113.0,87.0,-114.0
127.0,126.0,126.0,122.0,126.0,125.0,111.0,128.0,27.0,-107.0,-70.0,127.0,127.0,127.0,113.0,87.0,-114.0
127.0,126.0,126.0,122.0,126.0,126.0,111.0,128.0,27.0,-107.0,-70.0,127.0,127.0,127.0,113.0,87.0,-114.0
127.0,127.0,126.0,122.0,126.0,126.0,111.0,128.0,27.0,-107.0,-70.0,127.0,127.0,127.0,113.0,87.0,-114.0
127.0,127.0,126.0,123.0,126.0,126.0,111.0,128.0,27.0,-107.0,-70.0,127.0,127.0,127.0,113.0,87.0,-114.0
127.0,127.0,126.0,123.0,126.0,126.0,111.0,128.0,27.0,-107.0,-70.0,127.0,127.0,127.0,113.0,87.0,-114.0
127.0,127.0,126.0,123.0,126.0,126.0,112.0,128.0,27.0,-107.0,-70.0,127.0,127.0,127.0,113.0,87.0,-114.0
127.0,127.0,126.0,123.0,126.0,126.0,112.0,128.0,27.0,-107.0,-70.0,127.0,127.0,127.0,113.0,87.0,-114.0
127.0,127.0,126.0,123.0,127.0,126.0,111.0,128.0,27.0,-107.0,-70.0,127.0,127.0,127.0,113.0,87.0,-114.0
127.0,127.0,125.0,124.0,127.0,126.0,111.0,128.0,27.0,-107.0,-70.0,127.0,127.0,127.0,113.0,87.0,-114.0
127.0,126.0,126.0,122.0,126.0,125.0,110.0,128.0,27.0,-107.0,-70.0,127.0,127.0,127.0,113.0,87.0,-114.0
127.0,127.0,127.0,122.0,126.0,126.0,111.0,128.0,27.0,-107.0,-70.0,127.0,127.0,127.0,113.0,87.0,-114.0
127.0,127.0,126.0,123.0,126.0,126.0,110.0,128.0,27.0,-107.0,-70.0,127.0,127.0,127.0,113.0,87.0,-114.0
127.0,127.0,127.0,123.0,126.0,126.0,111.0,128.0,27.0,-107.0,-70.0,127.0,127.0,127.0,113.0,87.0,-114.0
127.0,127.0,126.0,123.0,126.0,126.0,111.0,128.0,27.0,-107.0,-70.0,127.0,127.0,127.0,113.0,87.0,-114.0
127.0,127.0,126.0,123.0,126.0,126.0,112.0,128.0,27.0,-107.0,-70.0,127.0,127.0,127.0,113.0,87.0,-114.0
127.0,127.0,126.0,123.0,127.0,126.0,111.0,128.0,27.0,-107.0,-70.0,127.0,127.0,127.0,113.0,87.0,-114.0
127.0,127.0,126.0,123.0,126.0,126.0,111.0,128.0,27.0,-107.0,-70.0,127.0,127.0,127.0,113.0,87.0,-114.0
127.0,127.0,126.0,124.0,126.0,126.0,112.0,128.0,27.0,-107.0,-70.0,127.0,127.0,127.0,113.0,87.0,-114.0
127.0,127.0,126.0,122.0,126.0,125.0,110.0,127.0,27.0,-107.0,-70.0,127.0,127.0,127.0,113.0,87.0,-114.0
127.0,127.0,126.0,122.0,126.0,125.0,111.0,127.0,27.0,-107.0,-70.0,127.0,127.0,127.0,113.0,87.0,-114.0
127.0,126.0,126.0,123.0,126.0,126.0,111.0,127.0,27.0,-107.0,-70.0,127.0,127.0,127.0,113.0,87.0,-114.0
127.0,126.0,126.0,123.0,126.0,126.0,111.0,127.0,27.0,-107.0,-70.0,127.0,127.0,127.0,113.0,87.0,-114.0
127.0,127.0,126.0,123.0,126.0,126.0,111.0,127.0,27.0,-107.0,-70.0,127.0,127.0,127.0,113.0,87.0,-114.0
127.0,127.0,126.0,123.0,127.0,126.0,111.0,127.0,27.0,-107.0,-70.0,127.0,127.0,127.0,113.0,87.0,-114.0
127.0,127.0,126.0,124.0,127.0,126.0,111.0,127.0,27.0,-107.0,-70.0,127.0,127.0,127.0,113.0,87.0,-114.0
127.0,127.0,126.0,124.0,127.0,126.0,112.0,128.0,27.0,-107.0,-70.0,127.0,127.0,127.0,113.0,87.0,-114.0
127.0,127.0,126.0,124.0,127.0,126.0,111.0,128.0,27.0,-107.0,-70.0,127.0,127.0,127.0,113.0,87.0,-114.0
126.0,126.0,127.0,122.0,126.0,125.0,111.0,127.0,27.0,-107.0,-70.0,127.0,127.0,127.0,113.0,87.0,-114.0
126.0,126.0,127.0,122.0,126.0,126.0,110.0,127.0,27.0,-107.0,-70.0,127.0,127.0,127.0,113.0,87.0,-114.0
126.0,126.0,127.0,122.0,126.0,126.0,110.0,127.0,27.0,-107.0,-70.0,127.0,127.0,127.0,113.0,87.0,-114.0
127.0,127.0,127.0,123.0,127.0,126.0,110.0,128.0,27.0,-108.0,-70.0,127.0,127.0,127.0,113.0,87.0,-114.0
127.0,127.0,127.0,123.0,127.0,126.0,111.0,128.0,27.0,-108.0,-70.0,127.0,127.0,127.0,113.0,87.0,-114.0
127.0,127.0,127.0,123.0,127.0,126.0,112.0,128.0,27.0,-108.0,-70.0,127.0,127.0,127.0,113.0,87.0,-114.0
127.0,127.0,127.0,123.0,127.0,126.0,111.0,128.0,27.0,-108.0,-70.0,127.0,127.0,127.0,113.0,87.0,-114.0
127.0,127.0,127.0,123.0,127.0,126.0,112.0,128.0,27.0,-108.0,-70.0,127.0,127.0,127.0,113.0,87.0,-114.0
127.0,127.0,127.0,123.0,127.0,126.0,112.0,128.0,27.0,-108.0,-70.0,127.0,127.0,127.0,113.0,87.0,-114.0
127.0,126.0,128.0,123.0,127.0,125.0,110.0,127.0,27.0,-108.0,-70.0,127.0,127.0,127.0,113.0,87.0,-114.0
127.0,126.0,128.0,123.0,127.0,125.0,110.0,127.0,27.0,-108.0,-70.0,127.0,127.0,127.0,113.0,87.0,-114.0
127.0,127.0,127.0,123.0,127.0,125.0,111.0,128.0,27.0,-108.0,-70.0,127.0,127.0,127.0,113.0,87.0,-114.0
127.0,127.0,127.0,123.0,127.0,125.0,111.0,128.0,27.0,-108.0,-70.0,127.0,127.0,127.0,113.0,87.0,-114.0
127.0,127.0,127.0,124.0,127.0,126.0,112.0,128.0,27.0,-108.0,-70.0,127.0,127.0,127.0,113.0,87.0,-114.0
127.0,127.0,127.0,124.0,127.0,126.0,112.0,128.0,27.0,-108.0,-70.0,127.0,127.0,127.0,113.0,87.0,-114.0
127.0,127.0,127.0,125.0,127.0,126.0,111.0,128.0,27.0,-108.0,-70.0,127.0,127.0,127.0,113.0,87.0,-114.0
127.0,127.0,127.0,125.0,127.0,126.0,112.0,128.0,27.0,-108.0,-70.0,127.0,127.0,127.0,113.0,87.0,-114.0
127.0,127.0,127.0,126.0,127.0,126.0,112.0,128.0,27.0,-108.0,-70.0,127.0,127.0,127.0,113.0,87.0,-114.0
127.0,126.0,127.0,122.0,126.0,125.0,110.0,127.0,27.0,-108.0,-70.0,127.0,127.0,127.0,113.0,87.0,-114.0
127.0,126.0,127.0,122.0,126.0,125.0,111.0,127.0,27.0,-108.0,-70.0,127.0,127.0,127.0,113.0,87.0,-114.0
127.0,126.0,127.0,123.0,126.0,126.0,110.0,127.0,27.0,-108.0,-70.0,127.0,127.0,127.0,113.0,87.0,-114.0
127.0,127.0,127.0,123.0,126.0,126.0,110.0,128.0,27.0,-108.0,-70.0,127.0,127.0,127.0,113.0,87.0,-114.0
127.0,127.0,127.0,123.0,126.0,126.0,111.0,128.0,27.0,-108.0,-70.0,127.0,127.0,127.0,113.0,87.0,-114.0
127.0,127.0,127.0,124.0,127.0,126.0,112.0,128.0,27.0,-108.0,-69.0,127.0,127.0,127.0,113.0,87.0,-114.0
127.0,127.0,127.0,124.0,127.0,126.0,112.0,128.0,27.0,-108.0,-69.0,127.0,127.0,127.0,113.0,87.0,-114.0
127.0,127.0,127.0,124.0,127.0,126.0,111.0,128.0,27.0,-108.0,-69.0,127.0,127.0,127.0,113.0,87.0,-114.0
127.0,127.0,127.0,125.0,127.0,126.0,112.0,128.0,27.0,-108.0,-69.0,127.0,127.0,127.0,113.0,87.0,-114.0
126.0,126.0,127.0,123.0,127.0,125.0,110.0,127.0,27.0,-108.0,-69.0,127.0,127.0,127.0,113.0,87.0,-114.0
127.0,126.0,127.0,123.0,127.0,125.0,111.0,128.0,27.0,-108.0,-69.0,127.0,127.0,127.0,113.0,87.0,-114.0
127.0,126.0,127.0,124.0,127.0,125.0,110.0,128.0,27.0,-108.0,-69.0,127.0,127.0,127.0,113.0,87.0,-114.0
127.0,127.0,127.0,124.0,127.0,125.0,111.0,128.0,27.0,-108.0,-69.0,127.0,127.0,127.0,113.0,87.0,-114.0
127.0,127.0,127.0,124.0,127.0,126.0,110.0,128.0,27.0,-108.0,-69.0,127.0,127.0,127.0,113.0,87.0,-114.0
127.0,127.0,127.0,124.0,127.0,126.0,111.0,128.0,27.0,-108.0,-69.0,127.0,127.0,127.0,113.0,87.0,-114.0
127.0,127.0,127.0,124.0,127.0,126.0,112.0,128.0,27.0,-108.0,-69.0,127.0,127.0,127.0,113.0,87.0,-114.0
127.0,127.0,127.0,124.0,127.0,126.0,112.0,128.0,27.0,-108.0,-69.0,127.0,127.0,127.0,113.0,87.0,-114.0
127.0,128.0,127.0,125.0,127.0,127.0,112.0,128.0,27.0,-108.0,-69.0,127.0,127.0,127.0,113.0,87.0,-114.0
127.0,126.0,127.0,123.0,126.0,126.0,111.0,127.0,27.0,-108.0,-69.0,127.0,127.0,127.0,113.0,87.0,-114.0
127.0,126.0,127.0,123.0,126.0,126.0,111.0,127.0,27.0,-108.0,-69.0,127.0,127.0,127.0,113.0,87.0,-114.0
127.0,126.0,127.0,123.0,126.0,126.0,111.0,127.0,27.0,-108.0,-69.0,127.0,127.0,127.0,113.0,87.0,-114.0
127.0,127.0,127.0,123.0,127.0,126.0,111.0,127.0,27.0,-108.0,-69.0,127.0,127.0,127.0,113.0,87.0,-114.0
127.0,127.0,127.0,124.0,127.0,126.0,112.0,127.0,27.0,-108.0,-69.0,127.0,127.0,127.0,113.0,87.0,-114.0
127.0,127.0,127.0,124.0,127.0,126.0,111.0,128.0,27.0,-108.0,-69.0,127.0,127.0,127.0,113.0,87.0,-114.0
127.0,127.0,127.0,124.0,127.0,126.0,111.0,128.0,27.0,-108.0,-69.0,127.0,127.0,127.0,113.0,87.0,-114.0
127.0,127.0,127.0,125.0,127.0,126.0,112.0,128.0,27.0,-109.0,-69.0,127.0,127.0,127.0,113.0,87.0,-114.0
127.0,127.0,127.0,125.0,127.0,126.0,112.0,128.0,27.0,-109.0,-69.0,127.0,127.0,127.0,113.0,87.0,-114.0
127.0,126.0,127.0,124.0,127.0,126.0,110.0,128.0,27.0,-109.0,-69.0,127.0,127.0,127.0,113.0,87.0,-114.0
127.0,126.0,127.0,124.0,127.0,126.0,111.0,128.0,27.0,-109.0,-69.0,127.0,127.0,127.0,113.0,87.0,-114.0
127.0,126.0,127.0,124.0,127.0,126.0,111.0,128.0,27.0,-109.0,-69.0,127.0,127.0,127.0,113.0,87.0,-114.0
127.0,127.0,127.0,124.0,127.0,126.0,111.0,128.0,27.0,-109.0,-69.0,127.0,127.0,127.0,113.0,87.0,-114.0
127.0,127.0,127.0,124.0,127.0,126.0,111.0,128.0,27.0,-109.0,-69.0,127.0,127.0,127.0,113.0,87.0,-114.0
127.0,127.0,127.0,125.0,127.0,126.0,111.0,128.0,27.0,-109.0,-69.0,127.0,127.0,127.0,113.0,87.0,-114.0
127.0,127.0,127.0,125.0,127.0,126.0,111.0,128.0,27.0,-109.0,-69.0,127.0,127.0,127.0,113.0,87.0,-114.0
127.0,127.0,127.0,125.0,127.0,126.0,111.0,128.0,27.0,-109.0,-69.0,127.0,127.0,127.0,113.0,87.0,-114.0
127.0,127.0,127.0,126.0,127.0,126.0,113.0,128.0,27.0,-109.0,-70.0,127.0,127.0,127.0,114.0,87.0,-114.0
127.0,126.0,127.0,124.0,127.0,126.0,111.0,127.0,27.0,-109.0,-70.0,127.0,127.0,127.0,114.0,87.0,-114.0
127.0,126.0,127.0,124.0,127.0,126.0,111.0,127.0,27.0,-109.0,-70.0,127.0,127.0,127.0,114.0,87.0,-114.0
127.0,126.0,127.0,124.0,127.0,126.0,112.0,127.0,27.0,-109.0,-70.0,127.0,127.0,127.0,114.0,87.0,-114.0
127.0,126.0,127.0,124.0,127.0,126.0,112.0,128.0,27.0,-109.0,-70.0,127.0,127.0,127.0,114.0,87.0,-114.0
127.0,126.0,127.0,124.0,127.0,126.0,111.0,128.0,27.0,-109.0,-70.0,127.0,127.0,127.0,114.0,87.0,-114.0
127.0,126.0,127.0,125.0,127.0,126.0,111.0,128.0,27.0,-109.0,-70.0,127.0,127.0,127.0,114.0,87.0,-114.0
127.0,127.0,127.0,125.0,127.0,126.0,111.0,128.0,27.0,-109.0,-70.0,127.0,127.0,127.0,114.0,87.0,-114.0
127.0,127.0,127.0,125.0,127.0,126.0,111.0,128.0,27.0,-109.0,-70.0,127.0,127.0,127.0,114.0,87.0,-114.0
127.0,127.0,127.0,125.0,127.0,126.0,112.0,128.0,27.0,-109.0,-70.0,127.0,127.0,127.0,114.0,87.0,-114.0
127.0,126.0,128.0,124.0,126.0,126.0,111.0,127.0,27.0,-109.0,-70.0,127.0,127.0,127.0,114.0,87.0,-114.0
127.0,127.0,128.0,124.0,127.0,126.0,111.0,128.0,27.0,-109.0,-70.0,127.0,127.0,127.0,114.0,87.0,-114.0
127.0,127.0,128.0,124.0,127.0,126.0,111.0,128.0,27.0,-109.0,-70.0,127.0,127.0,127.0,114.0,87.0,-114.0
127.0,127.0,128.0,125.0,127.0,126.0,112.0,128.0,27.0,-109.0,-70.0,127.0,127.0,127.0,114.0,87.0,-114.0
127.0,127.0,127.0,125.0,127.0,126.0,111.0,128.0,27.0,-109.0,-70.0,127.0,127.0,127.0,114.0,87.0,-114.0
127.0,127.0,127.0,125.0,127.0,126.0,111.0,128.0,27.0,-109.0,-70.0,127.0,127.0,127.0,114.0,87.0,-114.0
127.0,127.0,127.0,125.0,127.0,126.0,112.0,128.0,27.0,-109.0,-70.0,127.0,127.0,127.0,114.0,87.0,-114.0
127.0,127.0,127.0,125.0,127.0,126.0,111.0,128.0,27.0,-109.0,-70.0,127.0,127.0,127.0,114.0,87.0,-114.0
127.0,127.0,127.0,125.0,127.0,126.0,112.0,128.0,27.0,-109.0,-70.0,127.0,127.0,127.0,114.0,87.0,-114.0
127.0,127.0,127.0,125.0,127.0,126.0,112.0,128.0,27.0,-109.0,-70.0,127.0,127.0,127.0,114.0,87.0,-114.0
127.0,126.0,127.0,124.0,126.0,126.0,111.0,128.0,27.0,-109.0,-70.0,127.0,127.0,127.0,114.0,87.0,-114.0
127.0,126.0,127.0,124.0,127.0,126.0,111.0,128.0,27.0,-109.0,-70.0,127.0,127.0,127.0,114.0,87.0,-114.0
127.0,126.0,127.0,124.0,127.0,126.0,112.0,128.0,27.0,-109.0,-70.0,127.0,127.0,127.0,114.0,87.0,-114.0
127.0,126.0,127.0,124.0,127.0,126.0,112.0,128.0,27.0,-109.0,-70.0,127.0,127.0,127.0,114.0,87.0,-114.0
127.0,126.0,127.0,124.0,127.0,126.0,111.0,128.0,27.0,-109.0,-70.0,127.0,127.0,127.0,114.0,87.0,-114.0
127.0,126.0,127.0,124.0,127.0,126.0,112.0,128.0,27.0,-109.0,-70.0,127.0,127.0,127.0,114.0,87.0,-114.0
127.0,127.0,127.0,125.0,127.0,126.0,112.0,128.0,27.0,-109.0,-70.0,127.0,127.0,127.0,114.0,87.0,-114.0
127.0,127.0,127.0,125.0,127.0,126.0,112.0,128.0,27.0,-109.0,-70.0,127.0,127.0,127.0,114.0,87.0,-114.0
127.0,127.0,127.0,125.0,127.0,126.0,112.0,128.0,27.0,-109.0,-70.0,127.0,127.0,127.0,114.0,87.0,-114.0
127.0,126.0,127.0,124.0,126.0,126.0,111.0,128.0,27.0,-109.0,-70.0,127.0,127.0,127.0,114.0,87.0,-114.0
127.0,126.0,128.0,123.0,127.0,126.0,111.0,127.0,27.0,-109.0,-70.0,127.0,127.0,127.0,114.0,87.0,-114.0
127.0,126.0,127.0,123.0,127.0,126.0,111.0,127.0,27.0,-109.0,-70.0,127.0,127.0,127.0,114.0,87.0,-114.0
127.0,127.0,127.0,124.0,127.0,126.0,111.0,127.0,27.0,-109.0,-70.0,127.0,127.0,127.0,114.0,87.0,-114.0
127.0,127.0,127.0,124.0,127.0,126.0,111.0,128.0,27.0,-109.0,-70.0,127.0,127.0,127.0,114.0,87.0,-114.0
127.0,127.0,127.0,124.0,127.0,126.0,112.0,128.0,27.0,-109.0,-70.0,127.0,127.0,127.0,114.0,87.0,-114.0
127.0,127.0,127.0,124.0,127.0,126.0,111.0,128.0,27.0,-109.0,-70.0,127.0,127.0,127.0,114.0,87.0,-114.0
127.0,127.0,127.0,124.0,127.0,126.0,111.0,128.0,27.0,-109.0,-70.0,127.0,127.0,127.0,114.0,87.0,-114.0
127.0,127.0,126.0,124.0,127.0,126.0,112.0,128.0,27.0,-109.0,-70.0,127.0,127.0,127.0,114.0,87.0,-114.0
127.0,126.0,128.0,123.0,127.0,126.0,111.0,127.0,27.0,-109.0,-70.0,127.0,127.0,127.0,114.0,87.0,-114.0
127.0,126.0,128.0,123.0,127.0,126.0,111.0,127.0,27.0,-109.0,-70.0,127.0,127.0,127.0,114.0,87.0,-114.0
127.0,126.0,127.0,125.0,127.0,126.0,112.0,128.0,27.0,-109.0,-70.0,127.0,127.0,127.0,114.0,87.0,-114.0
127.0,126.0,127.0,125.0,127.0,126.0,111.0,128.0,27.0,-109.0,-70.0,127.0,127.0,127.0,114.0,87.0,-114.0
127.0,127.0,127.0,125.0,127.0,126.0,111.0,128.0,27.0,-109.0,-70.0,127.0,127.0,127.0,114.0,87.0,-114.0
127.0,127.0,127.0,125.0,127.0,126.0,111.0,128.0,27.0,-109.0,-70.0,127.0,127.0,127.0,114.0,87.0,-114.0
127.0,127.0,127.0,125.0,127.0,126.0,112.0,128.0,27.0,-109.0,-70.0,127.0,127.0,127.0,114.0,87.0,-114.0
127.0,127.0,127.0,125.0,127.0,126.0,112.0,128.0,27.0,-109.0,-70.0,127.0,127.0,127.0,114.0,87.0,-114.0
127.0,127.0,127.0,125.0,127.0,127.0,113.0,128.0,27.0,-109.0,-70.0,127.0,127.0,127.0,114.0,87.0,-114.0
127.0,126.0,127.0,124.0,127.0,126.0,111.0,128.0,27.0,-109.0,-70.0,127.0,127.0,127.0,114.0,87.0,-114.0
127.0,126.0,127.0,124.0,127.0,126.0,111.0,128.0,27.0,-109.0,-70.0,127.0,127.0,127.0,114.0,87.0,-114.0
127.0,126.0,127.0,124.0,127.0,126.0,112.0,128.0,27.0,-109.0,-70.0,127.0,127.0,127.0,114.0,87.0,-114.0
127.0,127.0,127.0,125.0,127.0,126.0,112.0,128.0,27.0,-109.0,-70.0,127.0,127.0,127.0,114.0,87.0,-114.0
127.0,127.0,127.0,125.0,127.0,126.0,112.0,128.0,27.0,-109.0,-70.0,127.0,127.0,127.0,114.0,87.0,-114.0
127.0,127.0,127.0,125.0,127.0,126.0,112.0,128.0,27.0,-109.0,-70.0,127.0,127.0,127.0,114.0,87.0,-114.0
127.0,127.0,127.0,125.0,127.0,127.0,112.0,128.0,27.0,-109.0,-70.0,127.0,127.0,127.0,114.0,87.0,-114.0
127.0,127.0,127.0,125.0,127.0,127.0,113.0,128.0,27.0,-109.0,-70.0,127.0,127.0,127.0,114.0,87.0,-114.0
127.0,127.0,127.0,126.0,128.0,127.0,113.0,128.0,27.0,-109.0,-70.0,127.0,127.0,127.0,114.0,87.0,-114.0
127.0,126.0,127.0,124.0,127.0,126.0,112.0,127.0,27.0,-109.0,-70.0,127.0,127.0,127.0,114.0,87.0,-114.0
127.0,126.0,127.0,124.0,127.0,126.0,111.0,128.0,27.0,-109.0,-70.0,127.0,127.0,127.0,114.0,87.0,-114.0
127.0,126.0,127.0,124.0,127.0,126.0,111.0,128.0,27.0,-109.0,-70.0,127.0,127.0,127.0,114.0,87.0,-114.0
127.0,126.0,127.0,125.0,127.0,126.0,112.0,128.0,27.0,-109.0,-70.0,127.0,127.0,127.0,114.0,87.0,-114.0
127.0,127.0,127.0,124.0,127.0,126.0,112.0,128.0,27.0,-109.0,-69.0,127.0,127.0,127.0,115.0,87.0,-114.0
127.0,127.0,126.0,125.0,127.0,126.0,112.0,128.0,27.0,-109.0,-69.0,127.0,127.0,127.0,115.0,87.0,-114.0
127.0,127.0,126.0,125.0,127.0,126.0,112.0,128.0,27.0,-109.0,-69.0,127.0,127.0,127.0,115.0,87.0,-114.0
127.0,127.0,126.0,125.0,127.0,127.0,112.0,128.0,27.0,-109.0,-69.0,127.0,127.0,127.0,115.0,87.0,-114.0
127.0,127.0,126.0,126.0,127.0,127.0,112.0,128.0,27.0,-109.0,-69.0,127.0,127.0,127.0,115.0,87.0,-114.0
127.0,126.0,128.0,124.0,126.0,126.0,111.0,128.0,27.0,-109.0,-69.0,127.0,127.0,127.0,115.0,87.0,-114.0
127.0,126.0,128.0,124.0,127.0,126.0,111.0,128.0,27.0,-109.0,-69.0,127.0,127.0,127.0,115.0,87.0,-114.0
127.0,126.0,127.0,124.0,127.0,126.0,111.0,128.0,27.0,-109.0,-69.0,127.0,127.0,127.0,115.0,87.0,-114.0
127.0,126.0,127.0,124.0,127.0,126.0,112.0,128.0,27.0,-109.0,-69.0,127.0,127.0,127.0,115.0,87.0,-114.0
127.0,127.0,127.0,124.0,127.0,126.0,112.0,128.0,27.0,-109.0,-69.0,127.0,127.0,127.0,115.0,87.0,-114.0
127.0,127.0,127.0,125.0,127.0,126.0,112.0,128.0,27.0,-109.0,-69.0,127.0,127.0,127.0,115.0,87.0,-114.0
127.0,127.0,127.0,125.0,127.0,127.0,113.0,128.0,27.0,-109.0,-69.0,127.0,127.0,127.0,115.0,87.0,-114.0
127.0,127.0,127.0,126.0,127.0,127.0,112.0,128.0,27.0,-109.0,-69.0,127.0,127.0,127.0,115.0,87.0,-114.0
127.0,127.0,127.0,126.0,127.0,127.0,112.0,128.0,27.0,-109.0,-69.0,127.0,127.0,127.0,115.0,87.0,-114.0
126.0,126.0,127.0,125.0,127.0,126.0,112.0,127.0,27.0,-109.0,-69.0,127.0,127.0,127.0,115.0,87.0,-114.0
126.0,126.0,127.0,125.0,127.0,126.0,111.0,127.0,27.0,-109.0,-69.0,127.0,127.0,127.0,115.0,87.0,-114.0
126.0,126.0,127.0,125.0,127.0,126.0,112.0,127.0,27.0,-109.0,-69.0,127.0,127.0,127.0,115.0,87.0,-114.0
127.0,126.0,127.0,125.0,127.0,126.0,112.0,127.0,27.0,-109.0,-69.0,127.0,127.0,127.0,115.0,87.0,-114.0
126.0,127.0,127.0,125.0,127.0,126.0,112.0,127.0,27.0,-109.0,-69.0,127.0,127.0,127.0,115.0,87.0,-114.0
127.0,127.0,127.0,125.0,127.0,126.0,112.0,127.0,27.0,-109.0,-69.0,127.0,127.0,127.0,115.0,87.0,-114.0
127.0,127.0,127.0,125.0,127.0,126.0,113.0,128.0,27.0,-109.0,-69.0,127.0,127.0,127.0,115.0,87.0,-114.0
127.0,127.0,127.0,125.0,127.0,127.0,112.0,128.0,27.0,-109.0,-69.0,127.0,127.0,127.0,115.0,87.0,-114.0
127.0,127.0,127.0,125.0,127.0,127.0,112.0,128.0,27.0,-109.0,-69.0,127.0,127.0,127.0,115.0,87.0,-114.0
127.0,126.0,128.0,124.0,127.0,126.0,111.0,127.0,27.0,-109.0,-69.0,127.0,127.0,127.0,115.0,87.0,-114.0
127.0,126.0,128.0,124.0,127.0,126.0,111.0,128.0,27.0,-109.0,-69.0,127.0,127.0,127.0,115.0,87.0,-114.0
127.0,126.0,128.0,124.0,127.0,126.0,112.0,128.0,27.0,-109.0,-69.0,127.0,127.0,127.0,115.0,87.0,-114.0
127.0,126.0,127.0,124.0,127.0,126.0,111.0,128.0,27.0,-109.0,-69.0,127.0,127.0,127.0,115.0,87.0,-114.0
127.0,126.0,127.0,124.0,127.0,126.0,112.0,128.0,27.0,-109.0,-69.0,127.0,127.0,127.0,115.0,87.0,-114.0
127.0,127.0,127.0,124.0,127.0,126.0,112.0,128.0,27.0,-109.0,-69.0,127.0,127.0,127.0,115.0,87.0,-114.0
127.0,127.0,127.0,125.0,127.0,126.0,112.0,128.0,27.0,-109.0,-69.0,127.0,127.0,127.0,115.0,87.0,-114.0
127.0,127.0,128.0,125.0,127.0,127.0,113.0,128.0,27.0,-109.0,-69.0,127.0,127.0,127.0,115.0,87.0,-114.0
127.0,127.0,128.0,125.0,127.0,127.0,113.0,128.0,27.0,-109.0,-69.0,127.0,127.0,127.0,115.0,87.0,-114.0
127.0,126.0,128.0,124.0,127.0,126.0,111.0,127.0,27.0,-109.0,-69.0,127.0,127.0,127.0,115.0,87.0,-114.0
127.0,126.0,128.0,124.0,127.0,126.0,112.0,128.0,27.0,-109.0,-69.0,127.0,127.0,127.0,115.0,87.0,-114.0
127.0,126.0,128.0,124.0,127.0,126.0,113.0,128.0,27.0,-109.0,-69.0,127.0,127.0,127.0,115.0,87.0,-114.0
127.0,126.0,128.0,124.0,127.0,126.0,113.0,128.0,27.0,-109.0,-69.0,127.0,127.0,127.0,115.0,87.0,-114.0
