emg1,emg2,emg3,emg4,emg5,emg6,emg7,emg8,acc_x,acc_y,acc_z,gyro_x,gyro_y,gyro_z,angle_pitch,angle_roll,angle_yaw
127.0,127.0,127.0,127.0,127.0,129.0,109.0,128.0,24.0,-115.0,-71.0,127.0,127.0,127.0,118.0,86.0,-84.0
127.0,127.0,128.0,127.0,127.0,129.0,109.0,128.0,24.0,-115.0,-71.0,127.0,127.0,127.0,118.0,86.0,-84.0
127.0,127.0,128.0,127.0,127.0,129.0,109.0,128.0,24.0,-115.0,-71.0,127.0,127.0,127.0,118.0,86.0,-84.0
127.0,127.0,128.0,127.0,127.0,129.0,109.0,128.0,24.0,-115.0,-71.0,127.0,127.0,127.0,118.0,86.0,-84.0
127.0,127.0,128.0,127.0,127.0,129.0,109.0,128.0,24.0,-115.0,-71.0,127.0,127.0,127.0,118.0,86.0,-84.0
127.0,127.0,128.0,127.0,127.0,129.0,109.0,128.0,24.0,-115.0,-71.0,127.0,127.0,127.0,118.0,86.0,-84.0
127.0,127.0,128.0,127.0,127.0,129.0,109.0,128.0,24.0,-115.0,-71.0,127.0,127.0,127.0,118.0,86.0,-84.0
127.0,127.0,128.0,127.0,127.0,129.0,108.0,128.0,24.0,-115.0,-71.0,127.0,127.0,127.0,118.0,86.0,-84.0
127.0,127.0,127.0,127.0,127.0,129.0,109.0,127.0,24.0,-115.0,-71.0,127.0,127.0,127.0,118.0,86.0,-84.0
127.0,127.0,127.0,127.0,127.0,129.0,109.0,128.0,24.0,-115.0,-71.0,127.0,127.0,127.0,118.0,86.0,-84.0
127.0,127.0,128.0,127.0,127.0,129.0,110.0,127.0,24.0,-115.0,-71.0,127.0,127.0,127.0,118.0,86.0,-84.0
127.0,127.0,128.0,127.0,127.0,130.0,110.0,128.0,24.0,-115.0,-71.0,127.0,127.0,127.0,118.0,86.0,-84.0
127.0,127.0,128.0,127.0,127.0,129.0,110.0,127.0,24.0,-115.0,-71.0,127.0,127.0,127.0,118.0,86.0,-84.0
127.0,128.0,128.0,127.0,127.0,130.0,110.0,127.0,24.0,-115.0,-71.0,127.0,127.0,127.0,118.0,86.0,-84.0
127.0,128.0,128.0,127.0,127.0,130.0,110.0,127.0,24.0,-115.0,-71.0,127.0,127.0,127.0,118.0,86.0,-84.0
127.0,127.0,128.0,127.0,127.0,129.0,110.0,128.0,24.0,-115.0,-71.0,127.0,127.0,127.0,118.0,86.0,-84.0
127.0,127.0,128.0,127.0,127.0,129.0,110.0,128.0,24.0,-115.0,-71.0,127.0,127.0,127.0,118.0,86.0,-84.0
127.0,127.0,128.0,127.0,127.0,129.0,109.0,127.0,24.0,-115.0,-71.0,127.0,127.0,127.0,118.0,86.0,-84.0
127.0,127.0,128.0,127.0,127.0,129.0,109.0,127.0,24.0,-115.0,-71.0,127.0,127.0,127.0,118.0,86.0,-84.0
127.0,127.0,128.0,127.0,127.0,129.0,109.0,127.0,24.0,-115.0,-71.0,127.0,127.0,127.0,118.0,86.0,-84.0
127.0,127.0,128.0,127.0,127.0,130.0,111.0,127.0,24.0,-115.0,-71.0,127.0,127.0,127.0,118.0,86.0,-84.0
127.0,127.0,128.0,127.0,127.0,130.0,110.0,128.0,24.0,-115.0,-71.0,127.0,127.0,127.0,118.0,86.0,-84.0
127.0,127.0,128.0,127.0,127.0,130.0,110.0,128.0,24.0,-115.0,-71.0,127.0,127.0,127.0,118.0,86.0,-84.0
127.0,127.0,128.0,127.0,127.0,129.0,110.0,128.0,24.0,-115.0,-71.0,127.0,127.0,127.0,118.0,86.0,-84.0
127.0,127.0,127.0,127.0,127.0,129.0,110.0,128.0,24.0,-115.0,-71.0,127.0,127.0,127.0,118.0,86.0,-84.0
127.0,127.0,127.0,127.0,127.0,129.0,110.0,128.0,24.0,-115.0,-71.0,127.0,127.0,127.0,118.0,86.0,-84.0
127.0,127.0,128.0,127.0,127.0,130.0,110.0,127.0,24.0,-115.0,-71.0,127.0,127.0,127.0,118.0,86.0,-84.0
127.0,127.0,128.0,127.0,127.0,130.0,110.0,127.0,24.0,-115.0,-71.0,127.0,127.0,127.0,118.0,86.0,-84.0
127.0,127.0,128.0,127.0,127.0,129.0,110.0,127.0,24.0,-115.0,-71.0,127.0,127.0,127.0,118.0,86.0,-84.0
127.0,127.0,128.0,127.0,127.0,130.0,111.0,127.0,24.0,-115.0,-71.0,127.0,127.0,127.0,118.0,86.0,-84.0
127.0,127.0,127.0,127.0,127.0,128.0,107.0,128.0,23.0,-114.0,-71.0,127.0,127.0,127.0,118.0,86.0,-84.0
127.0,127.0,127.0,127.0,127.0,128.0,107.0,128.0,23.0,-114.0,-71.0,127.0,127.0,127.0,118.0,86.0,-84.0
127.0,127.0,127.0,127.0,127.0,128.0,108.0,128.0,23.0,-114.0,-71.0,127.0,127.0,127.0,118.0,86.0,-84.0
127.0,127.0,127.0,127.0,127.0,128.0,107.0,128.0,23.0,-114.0,-71.0,127.0,127.0,127.0,118.0,86.0,-84.0
127.0,127.0,127.0,127.0,127.0,128.0,108.0,128.0,23.0,-114.0,-71.0,127.0,127.0,127.0,118.0,86.0,-84.0
127.0,127.0,127.0,127.0,127.0,128.0,109.0,128.0,23.0,-114.0,-71.0,127.0,127.0,127.0,118.0,86.0,-84.0
127.0,127.0,127.0,127.0,127.0,128.0,108.0,128.0,23.0,-114.0,-71.0,127.0,127.0,127.0,118.0,86.0,-84.0
127.0,127.0,127.0,127.0,127.0,128.0,108.0,128.0,23.0,-114.0,-71.0,127.0,127.0,127.0,118.0,86.0,-84.0
127.0,127.0,127.0,127.0,127.0,128.0,107.0,128.0,23.0,-114.0,-71.0,127.0,127.0,127.0,118.0,86.0,-84.0
127.0,127.0,127.0,127.0,127.0,128.0,107.0,128.0,23.0,-114.0,-71.0,127.0,127.0,127.0,118.0,86.0,-84.0
127.0,127.0,127.0,127.0,127.0,127.0,107.0,128.0,23.0,-114.0,-71.0,127.0,127.0,127.0,118.0,86.0,-84.0
127.0,127.0,127.0,127.0,127.0,127.0,107.0,128.0,23.0,-114.0,-71.0,127.0,127.0,127.0,118.0,86.0,-84.0
127.0,127.0,127.0,127.0,127.0,127.0,107.0,128.0,23.0,-114.0,-71.0,127.0,127.0,127.0,118.0,86.0,-84.0
127.0,127.0,127.0,127.0,126.0,128.0,107.0,128.0,23.0,-114.0,-71.0,127.0,127.0,127.0,118.0,86.0,-84.0
127.0,127.0,127.0,127.0,126.0,128.0,107.0,128.0,23.0,-114.0,-71.0,127.0,127.0,127.0,118.0,86.0,-84.0
127.0,127.0,127.0,127.0,126.0,128.0,106.0,128.0,23.0,-114.0,-71.0,127.0,127.0,127.0,118.0,86.0,-84.0
127.0,127.0,127.0,127.0,127.0,127.0,106.0,128.0,23.0,-114.0,-71.0,127.0,127.0,127.0,118.0,86.0,-84.0
127.0,127.0,127.0,127.0,127.0,127.0,106.0,128.0,23.0,-114.0,-71.0,127.0,127.0,127.0,118.0,86.0,-84.0
127.0,127.0,127.0,127.0,127.0,127.0,107.0,128.0,23.0,-114.0,-71.0,127.0,127.0,127.0,118.0,86.0,-84.0
127.0,127.0,127.0,127.0,127.0,127.0,107.0,128.0,23.0,-114.0,-71.0,127.0,127.0,127.0,118.0,86.0,-84.0
127.0,127.0,128.0,127.0,127.0,129.0,109.0,128.0,23.0,-115.0,-71.0,127.0,127.0,127.0,118.0,86.0,-84.0
127.0,127.0,128.0,127.0,127.0,129.0,109.0,128.0,23.0,-115.0,-71.0,127.0,127.0,127.0,118.0,86.0,-84.0
127.0,127.0,128.0,127.0,127.0,129.0,110.0,128.0,23.0,-115.0,-71.0,127.0,127.0,127.0,118.0,86.0,-84.0
127.0,127.0,128.0,127.0,127.0,129.0,110.0,128.0,23.0,-115.0,-71.0,127.0,127.0,127.0,118.0,86.0,-84.0
127.0,127.0,128.0,127.0,127.0,129.0,109.0,128.0,23.0,-115.0,-71.0,127.0,127.0,127.0,118.0,86.0,-84.0
127.0,127.0,128.0,127.0,127.0,129.0,109.0,128.0,23.0,-115.0,-71.0,127.0,127.0,127.0,118.0,86.0,-84.0
127.0,127.0,128.0,127.0,127.0,129.0,109.0,128.0,23.0,-115.0,-71.0,127.0,127.0,127.0,118.0,86.0,-84.0
127.0,127.0,128.0,127.0,127.0,129.0,110.0,128.0,23.0,-115.0,-71.0,127.0,127.0,127.0,118.0,86.0,-84.0
127.0,127.0,128.0,127.0,127.0,129.0,110.0,128.0,23.0,-115.0,-71.0,127.0,127.0,127.0,118.0,86.0,-84.0
127.0,127.0,128.0,127.0,127.0,129.0,109.0,128.0,23.0,-115.0,-71.0,127.0,127.0,127.0,118.0,86.0,-84.0
126.0,127.0,127.0,127.0,127.0,128.0,106.0,128.0,23.0,-115.0,-71.0,127.0,127.0,127.0,118.0,86.0,-84.0
126.0,127.0,127.0,127.0,127.0,128.0,108.0,128.0,23.0,-115.0,-71.0,127.0,127.0,127.0,118.0,86.0,-84.0
126.0,127.0,127.0,127.0,127.0,128.0,108.0,128.0,23.0,-115.0,-71.0,127.0,127.0,127.0,118.0,86.0,-84.0
126.0,127.0,127.0,127.0,127.0,128.0,108.0,128.0,23.0,-115.0,-71.0,127.0,127.0,127.0,118.0,86.0,-84.0
127.0,127.0,127.0,127.0,127.0,128.0,108.0,128.0,23.0,-115.0,-71.0,127.0,127.0,127.0,118.0,86.0,-84.0
126.0,127.0,128.0,127.0,127.0,128.0,107.0,128.0,23.0,-115.0,-71.0,127.0,127.0,127.0,118.0,86.0,-84.0
126.0,127.0,127.0,127.0,127.0,128.0,107.0,128.0,23.0,-115.0,-71.0,127.0,127.0,127.0,118.0,86.0,-84.0
126.0,127.0,127.0,127.0,127.0,128.0,107.0,128.0,23.0,-115.0,-71.0,127.0,127.0,127.0,118.0,86.0,-84.0
126.0,127.0,127.0,127.0,127.0,128.0,107.0,128.0,23.0,-115.0,-71.0,127.0,127.0,127.0,118.0,86.0,-84.0
126.0,127.0,127.0,127.0,127.0,128.0,106.0,128.0,23.0,-115.0,-71.0,127.0,127.0,127.0,118.0,86.0,-84.0
127.0,127.0,127.0,127.0,127.0,129.0,108.0,128.0,23.0,-115.0,-71.0,127.0,127.0,127.0,118.0,86.0,-84.0
127.0,127.0,127.0,127.0,127.0,129.0,108.0,128.0,23.0,-115.0,-71.0,127.0,127.0,127.0,118.0,86.0,-84.0
127.0,127.0,127.0,127.0,127.0,128.0,108.0,128.0,23.0,-115.0,-71.0,127.0,127.0,127.0,118.0,86.0,-84.0
127.0,127.0,128.0,127.0,127.0,128.0,108.0,128.0,23.0,-115.0,-71.0,127.0,127.0,127.0,118.0,86.0,-84.0
127.0,127.0,128.0,127.0,127.0,128.0,108.0,128.0,23.0,-115.0,-71.0,127.0,127.0,127.0,118.0,86.0,-84.0
127.0,127.0,128.0,127.0,127.0,128.0,108.0,128.0,23.0,-115.0,-71.0,127.0,127.0,127.0,118.0,86.0,-84.0
127.0,127.0,128.0,127.0,127.0,128.0,108.0,128.0,23.0,-115.0,-71.0,127.0,127.0,127.0,118.0,86.0,-84.0
127.0,127.0,128.0,127.0,127.0,128.0,107.0,128.0,23.0,-115.0,-71.0,127.0,127.0,127.0,118.0,86.0,-84.0
127.0,127.0,127.0,127.0,127.0,128.0,107.0,128.0,23.0,-115.0,-71.0,127.0,127.0,127.0,118.0,86.0,-84.0
127.0,127.0,128.0,127.0,127.0,128.0,107.0,128.0,23.0,-115.0,-71.0,127.0,127.0,127.0,118.0,86.0,-84.0
127.0,127.0,128.0,127.0,127.0,129.0,109.0,128.0,23.0,-115.0,-71.0,127.0,127.0,127.0,118.0,86.0,-84.0
127.0,127.0,127.0,127.0,127.0,129.0,108.0,128.0,23.0,-115.0,-71.0,127.0,127.0,127.0,118.0,86.0,-84.0
127.0,127.0,128.0,127.0,127.0,129.0,109.0,128.0,23.0,-115.0,-71.0,127.0,127.0,127.0,118.0,86.0,-84.0
127.0,127.0,128.0,127.0,127.0,129.0,108.0,128.0,23.0,-115.0,-71.0,127.0,127.0,127.0,118.0,86.0,-84.0
127.0,127.0,128.0,127.0,127.0,128.0,108.0,128.0,23.0,-115.0,-71.0,127.0,127.0,127.0,118.0,86.0,-84.0
127.0,127.0,128.0,127.0,127.0,128.0,108.0,128.0,23.0,-115.0,-71.0,127.0,127.0,127.0,118.0,86.0,-84.0
127.0,127.0,127.0,127.0,127.0,128.0,108.0,128.0,23.0,-115.0,-71.0,127.0,127.0,127.0,118.0,86.0,-84.0
127.0,127.0,127.0,127.0,126.0,128.0,107.0,128.0,23.0,-115.0,-71.0,127.0,127.0,127.0,118.0,86.0,-84.0
127.0,127.0,127.0,127.0,126.0,128.0,107.0,128.0,23.0,-115.0,-71.0,127.0,127.0,127.0,118.0,86.0,-84.0
127.0,127.0,128.0,127.0,127.0,129.0,109.0,128.0,23.0,-115.0,-71.0,127.0,127.0,127.0,118.0,86.0,-84.0
127.0,127.0,128.0,127.0,127.0,129.0,109.0,128.0,23.0,-115.0,-71.0,127.0,127.0,127.0,118.0,86.0,-84.0
127.0,127.0,127.0,127.0,127.0,129.0,109.0,128.0,23.0,-115.0,-71.0,127.0,127.0,127.0,118.0,86.0,-84.0
127.0,127.0,128.0,127.0,127.0,129.0,109.0,128.0,23.0,-115.0,-71.0,127.0,127.0,127.0,118.0,86.0,-84.0
127.0,127.0,128.0,127.0,127.0,129.0,108.0,128.0,23.0,-115.0,-71.0,127.0,127.0,127.0,118.0,86.0,-84.0
127.0,127.0,128.0,127.0,127.0,128.0,108.0,128.0,23.0,-115.0,-71.0,127.0,127.0,127.0,118.0,86.0,-84.0
127.0,127.0,128.0,127.0,127.0,128.0,108.0,128.0,23.0,-115.0,-71.0,127.0,127.0,127.0,118.0,86.0,-84.0
127.0,127.0,128.0,127.0,127.0,129.0,108.0,128.0,23.0,-115.0,-71.0,127.0,127.0,127.0,118.0,86.0,-84.0
127.0,127.0,128.0,127.0,127.0,129.0,109.0,128.0,23.0,-115.0,-71.0,127.0,127.0,127.0,118.0,86.0,-84.0
127.0,127.0,127.0,126.0,127.0,128.0,108.0,128.0,23.0,-115.0,-71.0,127.0,127.0,127.0,118.0,86.0,-84.0
127.0,127.0,127.0,127.0,127.0,128.0,108.0,128.0,23.0,-115.0,-71.0,127.0,127.0,127.0,118.0,86.0,-84.0
127.0,127.0,127.0,127.0,127.0,129.0,110.0,128.0,23.0,-115.0,-71.0,127.0,127.0,127.0,118.0,86.0,-84.0
127.0,127.0,127.0,127.0,127.0,129.0,109.0,128.0,23.0,-115.0,-71.0,127.0,127.0,127.0,118.0,86.0,-84.0
127.0,127.0,127.0,127.0,127.0,129.0,109.0,128.0,23.0,-115.0,-71.0,127.0,127.0,127.0,118.0,86.0,-84.0
127.0,127.0,127.0,127.0,127.0,129.0,109.0,128.0,23.0,-115.0,-71.0,127.0,127.0,127.0,118.0,86.0,-84.0
127.0,127.0,127.0,127.0,127.0,129.0,109.0,128.0,23.0,-115.0,-71.0,127.0,127.0,127.0,118.0,86.0,-84.0
127.0,127.0,127.0,127.0,127.0,129.0,109.0,128.0,23.0,-115.0,-71.0,127.0,127.0,127.0,118.0,86.0,-84.0
127.0,127.0,127.0,127.0,127.0,129.0,109.0,128.0,23.0,-115.0,-71.0,127.0,127.0,127.0,118.0,86.0,-84.0
127.0,127.0,127.0,127.0,127.0,129.0,109.0,128.0,23.0,-115.0,-71.0,127.0,127.0,127.0,118.0,86.0,-84.0
127.0,127.0,127.0,127.0,127.0,129.0,109.0,128.0,23.0,-115.0,-71.0,127.0,127.0,127.0,118.0,86.0,-84.0
127.0,127.0,127.0,127.0,127.0,129.0,109.0,128.0,23.0,-115.0,-71.0,127.0,127.0,127.0,118.0,86.0,-84.0
127.0,127.0,127.0,127.0,127.0,128.0,108.0,128.0,23.0,-115.0,-71.0,127.0,127.0,127.0,118.0,86.0,-84.0
127.0,127.0,127.0,127.0,127.0,128.0,107.0,128.0,23.0,-115.0,-71.0,127.0,127.0,127.0,118.0,86.0,-84.0
127.0,127.0,127.0,127.0,127.0,128.0,107.0,128.0,23.0,-115.0,-71.0,127.0,127.0,127.0,118.0,86.0,-84.0
127.0,127.0,127.0,127.0,127.0,128.0,107.0,128.0,23.0,-115.0,-71.0,127.0,127.0,127.0,118.0,86.0,-84.0
127.0,127.0,127.0,127.0,127.0,128.0,107.0,128.0,23.0,-115.0,-71.0,127.0,127.0,127.0,118.0,86.0,-84.0
127.0,127.0,127.0,127.0,127.0,128.0,108.0,128.0,23.0,-115.0,-71.0,127.0,127.0,127.0,118.0,86.0,-84.0
127.0,127.0,127.0,127.0,127.0,128.0,107.0,128.0,23.0,-115.0,-71.0,127.0,127.0,127.0,118.0,86.0,-84.0
127.0,127.0,127.0,127.0,127.0,128.0,107.0,128.0,23.0,-115.0,-71.0,127.0,127.0,127.0,118.0,86.0,-84.0
127.0,127.0,127.0,127.0,127.0,128.0,108.0,128.0,23.0,-115.0,-71.0,127.0,127.0,127.0,118.0,86.0,-84.0
127.0,127.0,127.0,127.0,127.0,128.0,108.0,128.0,23.0,-115.0,-71.0,127.0,127.0,127.0,118.0,86.0,-84.0
127.0,127.0,127.0,127.0,127.0,128.0,108.0,128.0,23.0,-115.0,-71.0,127.0,127.0,127.0,118.0,86.0,-84.0
127.0,127.0,127.0,127.0,127.0,128.0,108.0,128.0,23.0,-115.0,-71.0,127.0,127.0,127.0,118.0,86.0,-84.0
127.0,127.0,127.0,127.0,127.0,128.0,108.0,128.0,23.0,-115.0,-71.0,127.0,127.0,127.0,118.0,86.0,-84.0
127.0,127.0,127.0,127.0,127.0,128.0,107.0,128.0,23.0,-115.0,-71.0,127.0,127.0,127.0,118.0,86.0,-84.0
127.0,127.0,127.0,127.0,127.0,128.0,108.0,128.0,23.0,-115.0,-71.0,127.0,127.0,127.0,118.0,86.0,-84.0
126.0,126.0,127.0,127.0,127.0,127.0,106.0,128.0,23.0,-115.0,-71.0,127.0,127.0,127.0,118.0,86.0,-84.0
126.0,126.0,127.0,127.0,127.0,127.0,106.0,128.0,23.0,-115.0,-71.0,127.0,127.0,127.0,118.0,86.0,-84.0
127.0,127.0,127.0,127.0,127.0,128.0,107.0,128.0,23.0,-115.0,-71.0,127.0,127.0,127.0,118.0,86.0,-84.0
127.0,127.0,127.0,127.0,127.0,128.0,107.0,128.0,23.0,-115.0,-71.0,127.0,127.0,127.0,118.0,86.0,-84.0
127.0,127.0,127.0,127.0,127.0,128.0,108.0,128.0,23.0,-115.0,-71.0,127.0,127.0,127.0,118.0,86.0,-84.0
127.0,127.0,127.0,126.0,126.0,128.0,107.0,128.0,23.0,-115.0,-71.0,127.0,127.0,127.0,118.0,86.0,-84.0
127.0,127.0,127.0,126.0,126.0,128.0,107.0,128.0,23.0,-115.0,-71.0,127.0,127.0,127.0,118.0,86.0,-84.0
127.0,127.0,127.0,126.0,126.0,128.0,108.0,128.0,23.0,-115.0,-71.0,127.0,127.0,127.0,118.0,86.0,-84.0
127.0,127.0,127.0,126.0,126.0,128.0,107.0,128.0,23.0,-115.0,-71.0,127.0,127.0,127.0,118.0,86.0,-84.0
126.0,126.0,127.0,127.0,126.0,128.0,106.0,128.0,23.0,-115.0,-71.0,127.0,127.0,127.0,118.0,86.0,-84.0
126.0,126.0,127.0,126.0,126.0,128.0,106.0,128.0,23.0,-115.0,-71.0,127.0,127.0,127.0,118.0,86.0,-84.0
127.0,127.0,127.0,126.0,126.0,128.0,107.0,128.0,23.0,-115.0,-71.0,127.0,127.0,127.0,118.0,86.0,-84.0
127.0,127.0,127.0,126.0,126.0,128.0,108.0,128.0,23.0,-115.0,-71.0,127.0,127.0,127.0,118.0,86.0,-84.0
127.0,127.0,127.0,126.0,126.0,128.0,108.0,128.0,23.0,-115.0,-71.0,127.0,127.0,127.0,118.0,86.0,-84.0
127.0,127.0,127.0,126.0,126.0,128.0,107.0,128.0,23.0,-115.0,-71.0,127.0,127.0,127.0,118.0,86.0,-84.0
126.0,127.0,127.0,127.0,127.0,128.0,108.0,128.0,23.0,-115.0,-72.0,127.0,127.0,127.0,118.0,86.0,-84.0
126.0,127.0,127.0,127.0,127.0,128.0,107.0,128.0,23.0,-115.0,-72.0,127.0,127.0,127.0,118.0,86.0,-84.0
126.0,126.0,127.0,127.0,127.0,128.0,107.0,128.0,23.0,-115.0,-72.0,127.0,127.0,127.0,118.0,86.0,-84.0
127.0,127.0,127.0,127.0,127.0,129.0,109.0,128.0,23.0,-115.0,-72.0,127.0,127.0,127.0,118.0,86.0,-84.0
127.0,127.0,127.0,127.0,127.0,129.0,109.0,128.0,23.0,-115.0,-72.0,127.0,127.0,127.0,118.0,86.0,-84.0
127.0,127.0,127.0,127.0,127.0,129.0,109.0,128.0,23.0,-115.0,-72.0,127.0,127.0,127.0,118.0,86.0,-84.0
127.0,127.0,127.0,127.0,127.0,129.0,109.0,128.0,23.0,-115.0,-72.0,127.0,127.0,127.0,118.0,86.0,-84.0
127.0,127.0,127.0,127.0,127.0,129.0,108.0,128.0,23.0,-115.0,-72.0,127.0,127.0,127.0,118.0,86.0,-84.0
127.0,127.0,127.0,127.0,127.0,128.0,108.0,128.0,23.0,-115.0,-72.0,127.0,127.0,127.0,118.0,86.0,-84.0
126.0,127.0,127.0,127.0,127.0,128.0,108.0,128.0,23.0,-115.0,-72.0,127.0,127.0,127.0,118.0,86.0,-84.0
126.0,127.0,128.0,127.0,127.0,128.0,108.0,128.0,23.0,-115.0,-72.0,127.0,127.0,127.0,118.0,86.0,-84.0
126.0,127.0,127.0,127.0,127.0,128.0,109.0,128.0,23.0,-115.0,-72.0,127.0,127.0,127.0,118.0,86.0,-84.0
127.0,127.0,128.0,127.0,127.0,129.0,109.0,127.0,23.0,-115.0,-72.0,127.0,127.0,127.0,118.0,86.0,-84.0
127.0,127.0,128.0,127.0,127.0,129.0,109.0,127.0,23.0,-115.0,-72.0,127.0,127.0,127.0,118.0,86.0,-84.0
126.0,127.0,128.0,127.0,127.0,129.0,109.0,128.0,23.0,-115.0,-72.0,127.0,127.0,127.0,118.0,86.0,-84.0
126.0,127.0,128.0,127.0,127.0,129.0,109.0,128.0,23.0,-115.0,-72.0,127.0,127.0,127.0,118.0,86.0,-84.0
126.0,127.0,128.0,127.0,127.0,129.0,109.0,128.0,23.0,-115.0,-72.0,127.0,127.0,127.0,118.0,86.0,-84.0
126.0,127.0,128.0,127.0,127.0,129.0,109.0,128.0,23.0,-115.0,-72.0,127.0,127.0,127.0,118.0,86.0,-84.0
126.0,127.0,128.0,127.0,127.0,129.0,108.0,128.0,23.0,-115.0,-72.0,127.0,127.0,127.0,118.0,86.0,-84.0
126.0,127.0,128.0,127.0,127.0,129.0,108.0,128.0,23.0,-115.0,-72.0,127.0,127.0,127.0,118.0,86.0,-84.0
127.0,127.0,127.0,127.0,127.0,128.0,108.0,128.0,23.0,-115.0,-72.0,127.0,127.0,127.0,118.0,86.0,-84.0
127.0,127.0,127.0,126.0,126.0,129.0,109.0,128.0,23.0,-115.0,-72.0,127.0,127.0,127.0,118.0,86.0,-84.0
127.0,127.0,127.0,126.0,126.0,129.0,109.0,128.0,23.0,-115.0,-72.0,127.0,127.0,127.0,118.0,86.0,-84.0
127.0,127.0,127.0,126.0,126.0,129.0,109.0,128.0,23.0,-115.0,-72.0,127.0,127.0,127.0,118.0,86.0,-84.0
127.0,127.0,127.0,126.0,126.0,129.0,109.0,128.0,23.0,-115.0,-72.0,127.0,127.0,127.0,118.0,86.0,-84.0
127.0,127.0,127.0,127.0,126.0,129.0,109.0,128.0,23.0,-115.0,-72.0,127.0,127.0,127.0,118.0,86.0,-84.0
127.0,127.0,127.0,127.0,126.0,129.0,109.0,128.0,23.0,-115.0,-72.0,127.0,127.0,127.0,118.0,86.0,-84.0
127.0,127.0,127.0,127.0,126.0,128.0,108.0,128.0,23.0,-115.0,-72.0,127.0,127.0,127.0,118.0,86.0,-84.0
127.0,127.0,127.0,127.0,126.0,128.0,108.0,128.0,23.0,-115.0,-72.0,127.0,127.0,127.0,118.0,86.0,-84.0
127.0,127.0,127.0,127.0,127.0,128.0,108.0,128.0,23.0,-115.0,-72.0,127.0,127.0,127.0,118.0,86.0,-84.0
126.0,127.0,127.0,127.0,127.0,128.0,108.0,128.0,23.0,-115.0,-71.0,127.0,127.0,127.0,118.0,86.0,-84.0
126.0,127.0,127.0,127.0,127.0,128.0,108.0,128.0,23.0,-115.0,-71.0,127.0,127.0,127.0,118.0,86.0,-84.0
126.0,127.0,127.0,127.0,127.0,128.0,108.0,128.0,23.0,-115.0,-71.0,127.0,127.0,127.0,118.0,86.0,-84.0
126.0,127.0,127.0,127.0,127.0,128.0,107.0,128.0,23.0,-115.0,-71.0,127.0,127.0,127.0,118.0,86.0,-84.0
126.0,127.0,127.0,127.0,127.0,128.0,107.0,128.0,23.0,-115.0,-71.0,127.0,127.0,127.0,118.0,86.0,-84.0
126.0,127.0,127.0,127.0,127.0,128.0,107.0,128.0,23.0,-115.0,-71.0,127.0,127.0,127.0,118.0,86.0,-84.0
126.0,127.0,127.0,127.0,127.0,128.0,108.0,128.0,23.0,-115.0,-71.0,127.0,127.0,127.0,118.0,86.0,-84.0
126.0,127.0,127.0,127.0,127.0,128.0,107.0,128.0,23.0,-115.0,-71.0,127.0,127.0,127.0,118.0,86.0,-84.0
126.0,127.0,127.0,127.0,127.0,128.0,107.0,128.0,23.0,-115.0,-71.0,127.0,127.0,127.0,118.0,86.0,-84.0
126.0,127.0,127.0,127.0,127.0,128.0,107.0,128.0,23.0,-115.0,-71.0,127.0,127.0,127.0,118.0,86.0,-84.0
127.0,127.0,127.0,127.0,127.0,129.0,109.0,128.0,23.0,-115.0,-71.0,127.0,127.0,127.0,118.0,86.0,-84.0
127.0,127.0,127.0,127.0,127.0,129.0,109.0,128.0,23.0,-115.0,-71.0,127.0,127.0,127.0,118.0,86.0,-84.0
127.0,127.0,127.0,127.0,127.0,129.0,110.0,128.0,23.0,-115.0,-71.0,127.0,127.0,127.0,118.0,86.0,-84.0
127.0,127.0,127.0,127.0,127.0,129.0,109.0,128.0,23.0,-115.0,-71.0,127.0,127.0,127.0,118.0,86.0,-84.0
127.0,127.0,127.0,127.0,127.0,129.0,109.0,128.0,23.0,-115.0,-71.0,127.0,127.0,127.0,118.0,86.0,-84.0
127.0,127.0,127.0,127.0,127.0,129.0,109.0,128.0,23.0,-115.0,-71.0,127.0,127.0,127.0,118.0,86.0,-84.0
127.0,127.0,127.0,127.0,127.0,129.0,109.0,128.0,23.0,-115.0,-71.0,127.0,127.0,127.0,118.0,86.0,-84.0
127.0,127.0,127.0,127.0,127.0,129.0,109.0,128.0,23.0,-115.0,-71.0,127.0,127.0,127.0,118.0,86.0,-84.0
127.0,127.0,127.0,127.0,127.0,129.0,108.0,128.0,23.0,-115.0,-71.0,127.0,127.0,127.0,118.0,86.0,-84.0
127.0,127.0,127.0,127.0,127.0,129.0,109.0,127.0,23.0,-115.0,-71.0,127.0,127.0,127.0,118.0,86.0,-84.0
127.0,127.0,128.0,127.0,127.0,128.0,108.0,128.0,23.0,-114.0,-71.0,127.0,127.0,127.0,118.0,86.0,-84.0
127.0,127.0,128.0,127.0,127.0,129.0,108.0,127.0,23.0,-114.0,-71.0,127.0,127.0,127.0,118.0,86.0,-84.0
127.0,127.0,128.0,127.0,127.0,129.0,109.0,128.0,23.0,-114.0,-71.0,127.0,127.0,127.0,118.0,86.0,-84.0
127.0,127.0,127.0,127.0,127.0,129.0,109.0,128.0,23.0,-114.0,-71.0,127.0,127.0,127.0,118.0,86.0,-84.0
127.0,127.0,127.0,127.0,127.0,129.0,108.0,128.0,23.0,-114.0,-71.0,127.0,127.0,127.0,118.0,86.0,-84.0
127.0,127.0,127.0,127.0,127.0,128.0,108.0,128.0,23.0,-114.0,-71.0,127.0,127.0,127.0,118.0,86.0,-84.0
127.0,127.0,127.0,127.0,127.0,128.0,108.0,128.0,23.0,-114.0,-71.0,127.0,127.0,127.0,118.0,86.0,-84.0
127.0,127.0,127.0,127.0,127.0,128.0,108.0,128.0,23.0,-114.0,-71.0,127.0,127.0,127.0,118.0,86.0,-84.0
127.0,127.0,128.0,127.0,127.0,128.0,108.0,128.0,23.0,-114.0,-71.0,127.0,127.0,127.0,118.0,86.0,-84.0
127.0,127.0,128.0,127.0,127.0,129.0,108.0,128.0,23.0,-114.0,-71.0,127.0,127.0,127.0,118.0,86.0,-84.0
127.0,127.0,127.0,127.0,127.0,128.0,108.0,128.0,23.0,-114.0,-71.0,127.0,127.0,127.0,118.0,86.0,-84.0
127.0,127.0,127.0,127.0,127.0,129.0,108.0,128.0,23.0,-114.0,-71.0,127.0,127.0,127.0,118.0,86.0,-84.0
127.0,127.0,127.0,127.0,127.0,129.0,109.0,128.0,23.0,-114.0,-71.0,127.0,127.0,127.0,118.0,86.0,-84.0
127.0,127.0,128.0,127.0,127.0,129.0,109.0,128.0,23.0,-114.0,-71.0,127.0,127.0,127.0,118.0,86.0,-84.0
127.0,127.0,128.0,127.0,127.0,129.0,109.0,128.0,23.0,-114.0,-71.0,127.0,127.0,127.0,118.0,86.0,-84.0
127.0,127.0,128.0,127.0,127.0,129.0,109.0,128.0,23.0,-114.0,-71.0,127.0,127.0,127.0,118.0,86.0,-84.0
127.0,127.0,128.0,127.0,127.0,129.0,109.0,128.0,23.0,-114.0,-71.0,127.0,127.0,127.0,118.0,86.0,-84.0
127.0,127.0,127.0,127.0,126.0,128.0,108.0,128.0,23.0,-114.0,-71.0,127.0,127.0,127.0,118.0,86.0,-84.0
127.0,127.0,127.0,127.0,126.0,128.0,107.0,128.0,23.0,-114.0,-71.0,127.0,127.0,127.0,118.0,86.0,-84.0
127.0,127.0,127.0,127.0,126.0,128.0,108.0,128.0,23.0,-114.0,-71.0,127.0,127.0,127.0,118.0,86.0,-84.0
127.0,127.0,128.0,127.0,126.0,129.0,110.0,128.0,23.0,-114.0,-71.0,127.0,127.0,127.0,118.0,86.0,-84.0
127.0,127.0,128.0,127.0,127.0,129.0,109.0,128.0,23.0,-114.0,-71.0,127.0,127.0,127.0,118.0,86.0,-84.0
127.0,127.0,128.0,127.0,126.0,129.0,109.0,128.0,23.0,-114.0,-71.0,127.0,127.0,127.0,118.0,86.0,-84.0
127.0,127.0,128.0,127.0,126.0,129.0,109.0,128.0,23.0,-114.0,-71.0,127.0,127.0,127.0,118.0,86.0,-84.0
127.0,127.0,128.0,127.0,126.0,129.0,109.0,128.0,23.0,-114.0,-71.0,127.0,127.0,127.0,118.0,86.0,-84.0
127.0,127.0,128.0,127.0,126.0,129.0,108.0,128.0,23.0,-114.0,-71.0,127.0,127.0,127.0,118.0,86.0,-84.0
127.0,127.0,128.0,127.0,126.0,129.0,108.0,128.0,23.0,-114.0,-71.0,127.0,127.0,127.0,118.0,86.0,-84.0
127.0,127.0,128.0,127.0,126.0,129.0,109.0,128.0,23.0,-114.0,-71.0,127.0,127.0,127.0,118.0,86.0,-84.0
127.0,127.0,128.0,127.0,126.0,129.0,109.0,128.0,23.0,-114.0,-71.0,127.0,127.0,127.0,118.0,86.0,-84.0
127.0,127.0,128.0,127.0,126.0,129.0,109.0,128.0,23.0,-114.0,-71.0,127.0,127.0,127.0,118.0,86.0,-84.0
127.0,127.0,127.0,126.0,127.0,129.0,110.0,128.0,23.0,-114.0,-71.0,127.0,127.0,127.0,118.0,86.0,-84.0
127.0,127.0,127.0,126.0,127.0,129.0,109.0,128.0,23.0,-114.0,-71.0,127.0,127.0,127.0,118.0,86.0,-84.0
127.0,127.0,127.0,126.0,127.0,129.0,109.0,128.0,23.0,-114.0,-71.0,127.0,127.0,127.0,118.0,86.0,-84.0
127.0,127.0,127.0,126.0,127.0,129.0,109.0,128.0,23.0,-114.0,-71.0,127.0,127.0,127.0,118.0,86.0,-84.0
127.0,127.0,127.0,126.0,127.0,129.0,108.0,128.0,23.0,-114.0,-71.0,127.0,127.0,127.0,118.0,86.0,-84.0
127.0,127.0,127.0,126.0,127.0,129.0,109.0,128.0,23.0,-114.0,-71.0,127.0,127.0,127.0,118.0,86.0,-84.0
127.0,127.0,127.0,126.0,127.0,129.0,109.0,128.0,23.0,-114.0,-71.0,127.0,127.0,127.0,118.0,86.0,-84.0
127.0,127.0,127.0,126.0,127.0,129.0,109.0,128.0,23.0,-114.0,-71.0,127.0,127.0,127.0,118.0,86.0,-84.0
127.0,127.0,127.0,126.0,127.0,129.0,109.0,128.0,23.0,-114.0,-71.0,127.0,127.0,127.0,118.0,86.0,-84.0
127.0,127.0,127.0,126.0,127.0,129.0,110.0,128.0,23.0,-114.0,-71.0,127.0,127.0,127.0,118.0,86.0,-84.0
127.0,127.0,127.0,127.0,127.0,128.0,108.0,128.0,23.0,-114.0,-71.0,127.0,127.0,127.0,118.0,86.0,-84.0
127.0,127.0,127.0,127.0,127.0,128.0,107.0,128.0,23.0,-114.0,-71.0,127.0,127.0,127.0,118.0,86.0,-84.0
127.0,127.0,127.0,127.0,127.0,128.0,107.0,128.0,23.0,-114.0,-71.0,127.0,127.0,127.0,118.0,86.0,-84.0
127.0,127.0,127.0,126.0,126.0,128.0,107.0,128.0,23.0,-114.0,-71.0,127.0,127.0,127.0,118.0,86.0,-84.0
127.0,127.0,127.0,126.0,126.0,128.0,107.0,128.0,23.0,-114.0,-71.0,127.0,127.0,127.0,118.0,86.0,-84.0
127.0,127.0,127.0,127.0,127.0,128.0,108.0,128.0,23.0,-114.0,-71.0,127.0,127.0,127.0,118.0,86.0,-84.0
127.0,127.0,127.0,127.0,127.0,128.0,108.0,128.0,23.0,-114.0,-71.0,127.0,127.0,127.0,118.0,86.0,-84.0
127.0,127.0,127.0,127.0,127.0,128.0,108.0,128.0,23.0,-114.0,-71.0,127.0,127.0,127.0,118.0,86.0,-84.0
127.0,127.0,127.0,127.0,127.0,128.0,108.0,128.0,23.0,-114.0,-71.0,127.0,127.0,127.0,118.0,86.0,-84.0
127.0,127.0,127.0,127.0,127.0,128.0,108.0,128.0,23.0,-114.0,-71.0,127.0,127.0,127.0,118.0,86.0,-84.0
126.0,127.0,127.0,127.0,127.0,128.0,107.0,128.0,23.0,-114.0,-71.0,127.0,127.0,127.0,118.0,86.0,-84.0
126.0,127.0,127.0,127.0,127.0,128.0,107.0,128.0,23.0,-114.0,-71.0,127.0,127.0,127.0,118.0,86.0,-84.0
126.0,127.0,127.0,126.0,127.0,128.0,107.0,128.0,23.0,-114.0,-71.0,127.0,127.0,127.0,118.0,86.0,-84.0
126.0,127.0,127.0,126.0,127.0,128.0,107.0,128.0,23.0,-114.0,-71.0,127.0,127.0,127.0,118.0,86.0,-84.0
126.0,127.0,127.0,126.0,127.0,128.0,108.0,128.0,23.0,-114.0,-71.0,127.0,127.0,127.0,118.0,86.0,-84.0
126.0,127.0,127.0,126.0,127.0,128.0,107.0,128.0,23.0,-114.0,-71.0,127.0,127.0,127.0,118.0,86.0,-84.0
126.0,127.0,127.0,126.0,127.0,128.0,107.0,128.0,23.0,-114.0,-71.0,127.0,127.0,127.0,118.0,86.0,-84.0
126.0,127.0,127.0,126.0,127.0,128.0,107.0,128.0,23.0,-114.0,-71.0,127.0,127.0,127.0,118.0,86.0,-84.0
126.0,127.0,127.0,126.0,127.0,128.0,107.0,128.0,23.0,-114.0,-71.0,127.0,127.0,127.0,118.0,86.0,-84.0
127.0,127.0,127.0,126.0,127.0,128.0,107.0,128.0,23.0,-114.0,-71.0,127.0,127.0,127.0,118.0,86.0,-84.0
127.0,127.0,127.0,127.0,127.0,128.0,108.0,128.0,23.0,-114.0,-71.0,127.0,127.0,127.0,118.0,86.0,-84.0
127.0,127.0,127.0,127.0,127.0,129.0,108.0,128.0,23.0,-114.0,-71.0,127.0,127.0,127.0,118.0,86.0,-84.0
127.0,127.0,127.0,127.0,127.0,129.0,108.0,128.0,23.0,-114.0,-71.0,127.0,127.0,127.0,118.0,86.0,-84.0
127.0,127.0,127.0,127.0,127.0,129.0,109.0,128.0,23.0,-114.0,-71.0,127.0,127.0,127.0,118.0,86.0,-84.0
127.0,127.0,127.0,127.0,127.0,129.0,109.0,128.0,23.0,-114.0,-71.0,127.0,127.0,127.0,118.0,86.0,-84.0
127.0,127.0,127.0,127.0,127.0,129.0,109.0,128.0,23.0,-114.0,-71.0,127.0,127.0,127.0,118.0,86.0,-84.0
127.0,127.0,127.0,127.0,127.0,129.0,109.0,128.0,23.0,-114.0,-71.0,127.0,127.0,127.0,118.0,86.0,-84.0
127.0,127.0,127.0,127.0,127.0,129.0,109.0,128.0,23.0,-114.0,-71.0,127.0,127.0,127.0,118.0,86.0,-84.0
127.0,127.0,127.0,127.0,127.0,129.0,109.0,128.0,23.0,-114.0,-71.0,127.0,127.0,127.0,118.0,86.0,-84.0
127.0,127.0,127.0,127.0,127.0,129.0,108.0,128.0,23.0,-114.0,-71.0,127.0,127.0,127.0,118.0,86.0,-84.0
127.0,126.0,127.0,126.0,126.0,128.0,107.0,128.0,23.0,-115.0,-71.0,127.0,127.0,127.0,118.0,86.0,-84.0
127.0,126.0,127.0,126.0,126.0,128.0,107.0,128.0,23.0,-115.0,-71.0,127.0,127.0,127.0,118.0,86.0,-84.0
127.0,126.0,127.0,126.0,126.0,128.0,108.0,128.0,23.0,-115.0,-71.0,127.0,127.0,127.0,118.0,86.0,-84.0
127.0,126.0,127.0,126.0,126.0,128.0,107.0,128.0,23.0,-115.0,-71.0,127.0,127.0,127.0,118.0,86.0,-84.0
127.0,127.0,127.0,127.0,126.0,128.0,107.0,128.0,23.0,-115.0,-71.0,127.0,127.0,127.0,118.0,86.0,-84.0
127.0,127.0,127.0,127.0,126.0,128.0,108.0,128.0,23.0,-115.0,-71.0,127.0,127.0,127.0,118.0,86.0,-84.0
127.0,127.0,128.0,127.0,127.0,129.0,109.0,128.0,23.0,-115.0,-71.0,127.0,127.0,127.0,118.0,86.0,-84.0
127.0,127.0,127.0,127.0,127.0,129.0,108.0,128.0,23.0,-115.0,-71.0,127.0,127.0,127.0,118.0,86.0,-84.0
127.0,127.0,127.0,127.0,127.0,128.0,108.0,128.0,23.0,-115.0,-71.0,127.0,127.0,127.0,118.0,86.0,-84.0
127.0,127.0,127.0,127.0,127.0,128.0,108.0,128.0,23.0,-115.0,-71.0,127.0,127.0,127.0,118.0,86.0,-84.0
127.0,127.0,127.0,127.0,127.0,129.0,109.0,128.0,23.0,-115.0,-71.0,127.0,127.0,127.0,118.0,86.0,-84.0
127.0,127.0,127.0,127.0,127.0,129.0,109.0,128.0,23.0,-115.0,-71.0,127.0,127.0,127.0,118.0,86.0,-84.0
127.0,127.0,127.0,127.0,127.0,129.0,109.0,128.0,23.0,-115.0,-71.0,127.0,127.0,127.0,118.0,86.0,-84.0
127.0,127.0,127.0,127.0,127.0,129.0,109.0,128.0,23.0,-115.0,-71.0,127.0,127.0,127.0,118.0,86.0,-84.0
127.0,127.0,127.0,127.0,127.0,129.0,109.0,128.0,23.0,-115.0,-71.0,127.0,127.0,127.0,118.0,86.0,-84.0
127.0,127.0,127.0,127.0,127.0,129.0,108.0,128.0,23.0,-115.0,-71.0,127.0,127.0,127.0,118.0,86.0,-84.0
127.0,127.0,127.0,127.0,127.0,128.0,108.0,128.0,23.0,-115.0,-71.0,127.0,127.0,127.0,118.0,86.0,-84.0
127.0,127.0,127.0,127.0,127.0,128.0,108.0,128.0,23.0,-115.0,-71.0,127.0,127.0,127.0,118.0,86.0,-84.0
127.0,127.0,127.0,127.0,127.0,128.0,108.0,128.0,23.0,-115.0,-71.0,127.0,127.0,127.0,118.0,86.0,-84.0
127.0,127.0,127.0,127.0,127.0,129.0,109.0,128.0,23.0,-115.0,-71.0,127.0,127.0,127.0,118.0,86.0,-84.0
127.0,127.0,127.0,127.0,127.0,129.0,110.0,127.0,23.0,-115.0,-71.0,127.0,127.0,127.0,118.0,86.0,-84.0
127.0,127.0,127.0,127.0,127.0,130.0,110.0,128.0,23.0,-115.0,-71.0,127.0,127.0,127.0,118.0,86.0,-84.0
127.0,127.0,127.0,127.0,127.0,129.0,110.0,128.0,23.0,-115.0,-71.0,127.0,127.0,127.0,118.0,86.0,-84.0
127.0,127.0,127.0,127.0,127.0,129.0,109.0,128.0,23.0,-115.0,-71.0,127.0,127.0,127.0,118.0,86.0,-84.0
127.0,127.0,127.0,127.0,127.0,129.0,109.0,128.0,23.0,-115.0,-71.0,127.0,127.0,127.0,118.0,86.0,-84.0
127.0,127.0,127.0,127.0,127.0,129.0,109.0,128.0,23.0,-115.0,-71.0,127.0,127.0,127.0,118.0,86.0,-84.0
127.0,127.0,127.0,127.0,127.0,129.0,109.0,128.0,23.0,-115.0,-71.0,127.0,127.0,127.0,118.0,86.0,-84.0
127.0,127.0,127.0,127.0,127.0,129.0,110.0,128.0,23.0,-115.0,-71.0,127.0,127.0,127.0,118.0,86.0,-84.0
127.0,127.0,127.0,127.0,127.0,129.0,110.0,128.0,23.0,-115.0,-71.0,127.0,127.0,127.0,118.0,86.0,-84.0
127.0,127.0,127.0,127.0,127.0,129.0,110.0,128.0,23.0,-115.0,-71.0,127.0,127.0,127.0,118.0,86.0,-84.0
126.0,127.0,127.0,127.0,127.0,128.0,107.0,128.0,23.0,-115.0,-71.0,127.0,127.0,127.0,118.0,86.0,-84.0
126.0,127.0,127.0,127.0,127.0,128.0,107.0,128.0,23.0,-115.0,-71.0,127.0,127.0,127.0,118.0,86.0,-84.0
126.0,127.0,127.0,127.0,127.0,128.0,107.0,128.0,23.0,-115.0,-71.0,127.0,127.0,127.0,118.0,86.0,-84.0
126.0,127.0,127.0,127.0,126.0,128.0,108.0,128.0,23.0,-115.0,-71.0,127.0,127.0,127.0,118.0,86.0,-84.0
127.0,127.0,127.0,127.0,127.0,128.0,107.0,128.0,23.0,-115.0,-71.0,127.0,127.0,127.0,118.0,86.0,-84.0
126.0,127.0,127.0,127.0,126.0,128.0,107.0,128.0,23.0,-115.0,-71.0,127.0,127.0,127.0,118.0,86.0,-84.0
127.0,127.0,128.0,127.0,127.0,128.0,108.0,128.0,23.0,-115.0,-71.0,127.0,127.0,127.0,118.0,86.0,-84.0
126.0,127.0,127.0,127.0,127.0,128.0,108.0,128.0,23.0,-115.0,-71.0,127.0,127.0,127.0,118.0,86.0,-84.0
126.0,127.0,127.0,127.0,127.0,128.0,108.0,128.0,23.0,-115.0,-71.0,127.0,127.0,127.0,118.0,86.0,-84.0
126.0,127.0,127.0,127.0,127.0,128.0,108.0,128.0,23.0,-115.0,-71.0,127.0,127.0,127.0,118.0,86.0,-84.0
127.0,127.0,128.0,127.0,127.0,128.0,108.0,128.0,23.0,-115.0,-71.0,127.0,127.0,127.0,118.0,86.0,-84.0
127.0,127.0,128.0,127.0,127.0,128.0,108.0,128.0,23.0,-115.0,-71.0,127.0,127.0,127.0,118.0,86.0,-84.0
127.0,127.0,128.0,127.0,127.0,129.0,109.0,127.0,23.0,-115.0,-71.0,127.0,127.0,127.0,118.0,86.0,-84.0
127.0,127.0,128.0,127.0,127.0,129.0,109.0,128.0,23.0,-115.0,-71.0,127.0,127.0,127.0,118.0,86.0,-84.0
127.0,127.0,128.0,127.0,127.0,129.0,109.0,128.0,23.0,-115.0,-71.0,127.0,127.0,127.0,118.0,86.0,-84.0
127.0,127.0,128.0,127.0,127.0,129.0,109.0,127.0,23.0,-115.0,-71.0,127.0,127.0,127.0,118.0,86.0,-84.0
127.0,127.0,128.0,127.0,127.0,129.0,108.0,127.0,23.0,-115.0,-71.0,127.0,127.0,127.0,118.0,86.0,-84.0
127.0,127.0,128.0,127.0,127.0,129.0,108.0,127.0,23.0,-115.0,-71.0,127.0,127.0,127.0,118.0,86.0,-84.0
127.0,127.0,128.0,127.0,127.0,128.0,108.0,128.0,23.0,-115.0,-71.0,127.0,127.0,127.0,118.0,86.0,-84.0
127.0,127.0,128.0,127.0,127.0,128.0,108.0,128.0,23.0,-115.0,-71.0,127.0,127.0,127.0,118.0,86.0,-84.0
127.0,127.0,128.0,127.0,127.0,129.0,109.0,128.0,23.0,-115.0,-71.0,127.0,127.0,127.0,118.0,86.0,-84.0
127.0,127.0,128.0,127.0,127.0,129.0,109.0,128.0,23.0,-115.0,-71.0,127.0,127.0,127.0,118.0,86.0,-84.0
127.0,127.0,128.0,127.0,127.0,129.0,108.0,128.0,23.0,-115.0,-71.0,127.0,127.0,127.0,118.0,86.0,-84.0
127.0,127.0,128.0,127.0,127.0,129.0,108.0,128.0,23.0,-115.0,-71.0,127.0,127.0,127.0,118.0,86.0,-84.0
127.0,127.0,128.0,127.0,127.0,129.0,109.0,128.0,23.0,-115.0,-71.0,127.0,127.0,127.0,118.0,86.0,-84.0
127.0,126.0,127.0,127.0,127.0,128.0,108.0,128.0,23.0,-115.0,-71.0,127.0,127.0,127.0,118.0,86.0,-84.0
127.0,127.0,127.0,127.0,127.0,128.0,108.0,128.0,23.0,-115.0,-71.0,127.0,127.0,127.0,118.0,86.0,-84.0
127.0,127.0,127.0,127.0,127.0,128.0,108.0,128.0,23.0,-115.0,-71.0,127.0,127.0,127.0,118.0,86.0,-84.0
127.0,127.0,128.0,127.0,127.0,129.0,109.0,128.0,23.0,-115.0,-71.0,127.0,127.0,127.0,118.0,86.0,-84.0
127.0,127.0,128.0,127.0,127.0,129.0,109.0,128.0,23.0,-115.0,-71.0,127.0,127.0,127.0,118.0,86.0,-84.0
126.0,126.0,127.0,126.0,127.0,128.0,108.0,128.0,23.0,-115.0,-71.0,127.0,127.0,127.0,118.0,86.0,-84.0
126.0,126.0,127.0,126.0,127.0,128.0,108.0,128.0,23.0,-115.0,-71.0,127.0,127.0,127.0,118.0,86.0,-84.0
126.0,126.0,127.0,126.0,127.0,128.0,108.0,128.0,23.0,-115.0,-71.0,127.0,127.0,127.0,118.0,86.0,-84.0
126.0,126.0,127.0,126.0,127.0,128.0,108.0,128.0,23.0,-115.0,-71.0,127.0,127.0,127.0,118.0,86.0,-84.0
126.0,126.0,127.0,127.0,127.0,128.0,108.0,128.0,23.0,-115.0,-71.0,127.0,127.0,127.0,118.0,86.0,-84.0
126.0,126.0,127.0,127.0,127.0,128.0,108.0,128.0,23.0,-115.0,-71.0,127.0,127.0,127.0,118.0,86.0,-84.0
126.0,126.0,127.0,127.0,127.0,128.0,108.0,128.0,23.0,-115.0,-71.0,127.0,127.0,127.0,118.0,86.0,-84.0
126.0,126.0,127.0,127.0,127.0,128.0,108.0,128.0,23.0,-115.0,-71.0,127.0,127.0,127.0,118.0,86.0,-84.0
126.0,126.0,127.0,126.0,127.0,128.0,108.0,128.0,23.0,-115.0,-71.0,127.0,127.0,127.0,118.0,86.0,-84.0
126.0,126.0,127.0,126.0,127.0,128.0,108.0,128.0,23.0,-115.0,-71.0,127.0,127.0,127.0,118.0,86.0,-84.0
127.0,127.0,127.0,127.0,127.0,130.0,110.0,128.0,23.0,-115.0,-71.0,127.0,127.0,127.0,118.0,86.0,-84.0
127.0,127.0,127.0,127.0,127.0,129.0,110.0,128.0,23.0,-115.0,-71.0,127.0,127.0,127.0,118.0,86.0,-84.0
127.0,127.0,127.0,127.0,127.0,129.0,110.0,128.0,23.0,-115.0,-71.0,127.0,127.0,127.0,118.0,86.0,-84.0
126.0,126.0,127.0,127.0,127.0,129.0,109.0,128.0,23.0,-115.0,-71.0,127.0,127.0,127.0,118.0,86.0,-84.0
126.0,126.0,127.0,127.0,127.0,129.0,109.0,128.0,23.0,-115.0,-71.0,127.0,127.0,127.0,118.0,86.0,-84.0
126.0,126.0,127.0,127.0,127.0,129.0,109.0,128.0,23.0,-115.0,-71.0,127.0,127.0,127.0,118.0,86.0,-84.0
127.0,127.0,127.0,127.0,127.0,129.0,109.0,128.0,23.0,-115.0,-71.0,127.0,127.0,127.0,118.0,86.0,-84.0
127.0,127.0,127.0,127.0,127.0,129.0,110.0,128.0,23.0,-115.0,-71.0,127.0,127.0,127.0,118.0,86.0,-84.0
127.0,127.0,127.0,127.0,127.0,129.0,110.0,128.0,23.0,-115.0,-71.0,127.0,127.0,127.0,118.0,86.0,-84.0
127.0,127.0,127.0,127.0,127.0,130.0,110.0,128.0,23.0,-115.0,-71.0,127.0,127.0,127.0,118.0,86.0,-84.0
126.0,126.0,127.0,127.0,127.0,128.0,108.0,128.0,23.0,-115.0,-71.0,127.0,127.0,127.0,118.0,86.0,-84.0
126.0,126.0,127.0,127.0,127.0,128.0,108.0,128.0,23.0,-115.0,-71.0,127.0,127.0,127.0,118.0,86.0,-84.0
127.0,127.0,127.0,127.0,127.0,129.0,110.0,128.0,23.0,-115.0,-71.0,127.0,127.0,127.0,118.0,86.0,-84.0
127.0,127.0,127.0,127.0,127.0,129.0,110.0,128.0,23.0,-115.0,-71.0,127.0,127.0,127.0,118.0,86.0,-84.0
127.0,127.0,127.0,127.0,127.0,129.0,109.0,128.0,23.0,-115.0,-71.0,127.0,127.0,127.0,118.0,86.0,-84.0
127.0,127.0,127.0,127.0,127.0,129.0,109.0,128.0,23.0,-115.0,-71.0,127.0,127.0,127.0,118.0,86.0,-84.0
127.0,126.0,127.0,127.0,127.0,129.0,109.0,128.0,23.0,-115.0,-71.0,127.0,127.0,127.0,118.0,86.0,-84.0
127.0,126.0,127.0,127.0,127.0,129.0,109.0,128.0,23.0,-115.0,-71.0,127.0,127.0,127.0,118.0,86.0,-84.0
126.0,126.0,127.0,127.0,127.0,128.0,108.0,128.0,23.0,-115.0,-71.0,127.0,127.0,127.0,118.0,86.0,-84.0
126.0,126.0,127.0,127.0,127.0,128.0,108.0,128.0,23.0,-115.0,-71.0,127.0,127.0,127.0,118.0,86.0,-84.0
126.0,127.0,128.0,126.0,126.0,128.0,107.0,128.0,23.0,-115.0,-71.0,127.0,127.0,127.0,118.0,86.0,-84.0
126.0,127.0,128.0,127.0,127.0,128.0,108.0,128.0,23.0,-115.0,-71.0,127.0,127.0,127.0,118.0,86.0,-84.0
126.0,127.0,128.0,127.0,127.0,128.0,109.0,128.0,23.0,-115.0,-71.0,127.0,127.0,127.0,118.0,86.0,-84.0
126.0,127.0,128.0,127.0,127.0,128.0,109.0,128.0,23.0,-115.0,-71.0,127.0,127.0,127.0,118.0,86.0,-84.0
126.0,127.0,128.0,127.0,127.0,128.0,109.0,128.0,23.0,-115.0,-71.0,127.0,127.0,127.0,118.0,86.0,-84.0
126.0,127.0,128.0,127.0,127.0,128.0,108.0,128.0,23.0,-115.0,-71.0,127.0,127.0,127.0,118.0,86.0,-84.0
126.0,127.0,128.0,127.0,127.0,128.0,108.0,128.0,23.0,-115.0,-71.0,127.0,127.0,127.0,118.0,86.0,-84.0
126.0,127.0,128.0,126.0,127.0,128.0,108.0,128.0,23.0,-115.0,-71.0,127.0,127.0,127.0,118.0,86.0,-84.0
126.0,127.0,128.0,126.0,126.0,128.0,107.0,128.0,23.0,-115.0,-71.0,127.0,127.0,127.0,118.0,86.0,-84.0
126.0,127.0,128.0,126.0,126.0,128.0,108.0,128.0,23.0,-115.0,-71.0,127.0,127.0,127.0,118.0,86.0,-84.0
126.0,127.0,127.0,127.0,127.0,129.0,110.0,128.0,23.0,-114.0,-71.0,127.0,127.0,127.0,118.0,86.0,-84.0
126.0,126.0,127.0,127.0,127.0,129.0,109.0,128.0,23.0,-114.0,-71.0,127.0,127.0,127.0,118.0,86.0,-84.0
126.0,126.0,127.0,127.0,127.0,129.0,109.0,128.0,23.0,-114.0,-71.0,127.0,127.0,127.0,118.0,86.0,-84.0
126.0,126.0,127.0,127.0,127.0,129.0,109.0,128.0,23.0,-114.0,-71.0,127.0,127.0,127.0,118.0,86.0,-84.0
126.0,126.0,127.0,127.0,127.0,129.0,109.0,128.0,23.0,-114.0,-71.0,127.0,127.0,127.0,118.0,86.0,-84.0
126.0,127.0,128.0,128.0,127.0,129.0,109.0,128.0,23.0,-114.0,-71.0,127.0,127.0,127.0,118.0,86.0,-84.0
126.0,127.0,128.0,127.0,127.0,129.0,109.0,128.0,23.0,-114.0,-71.0,127.0,127.0,127.0,118.0,86.0,-84.0
127.0,127.0,128.0,127.0,127.0,129.0,110.0,127.0,23.0,-114.0,-71.0,127.0,127.0,127.0,118.0,86.0,-84.0
127.0,127.0,128.0,127.0,127.0,129.0,110.0,128.0,23.0,-114.0,-71.0,127.0,127.0,127.0,118.0,86.0,-84.0
127.0,127.0,128.0,127.0,127.0,129.0,109.0,128.0,23.0,-114.0,-71.0,127.0,127.0,127.0,118.0,86.0,-84.0
127.0,127.0,128.0,128.0,127.0,128.0,108.0,128.0,24.0,-114.0,-71.0,127.0,127.0,127.0,118.0,86.0,-84.0
127.0,127.0,128.0,128.0,127.0,128.0,108.0,128.0,24.0,-114.0,-71.0,127.0,127.0,127.0,118.0,86.0,-84.0
127.0,127.0,128.0,127.0,127.0,128.0,108.0,127.0,24.0,-114.0,-71.0,127.0,127.0,127.0,118.0,86.0,-84.0
127.0,127.0,129.0,127.0,127.0,129.0,109.0,127.0,24.0,-114.0,-71.0,127.0,127.0,127.0,118.0,86.0,-84.0
127.0,127.0,128.0,127.0,127.0,129.0,109.0,128.0,24.0,-114.0,-71.0,127.0,127.0,127.0,118.0,86.0,-84.0
127.0,127.0,128.0,127.0,127.0,129.0,109.0,128.0,24.0,-114.0,-71.0,127.0,127.0,127.0,118.0,86.0,-84.0
127.0,127.0,128.0,127.0,127.0,129.0,109.0,128.0,24.0,-114.0,-71.0,127.0,127.0,127.0,118.0,86.0,-84.0
127.0,127.0,128.0,127.0,127.0,129.0,109.0,128.0,24.0,-114.0,-71.0,127.0,127.0,127.0,118.0,86.0,-84.0
127.0,127.0,128.0,127.0,127.0,129.0,109.0,128.0,24.0,-114.0,-71.0,127.0,127.0,127.0,118.0,86.0,-84.0
126.0,127.0,128.0,127.0,127.0,128.0,108.0,128.0,24.0,-114.0,-71.0,127.0,127.0,127.0,118.0,86.0,-84.0
126.0,127.0,124.0,128.0,127.0,129.0,108.0,127.0,24.0,-114.0,-71.0,127.0,127.0,127.0,118.0,86.0,-84.0
126.0,127.0,124.0,128.0,127.0,129.0,108.0,127.0,24.0,-114.0,-71.0,127.0,127.0,127.0,118.0,86.0,-84.0
126.0,127.0,123.0,127.0,127.0,129.0,109.0,127.0,24.0,-114.0,-71.0,127.0,127.0,127.0,118.0,86.0,-84.0
126.0,127.0,123.0,127.0,127.0,129.0,109.0,127.0,24.0,-114.0,-71.0,127.0,127.0,127.0,118.0,86.0,-84.0
126.0,127.0,123.0,127.0,127.0,129.0,109.0,127.0,24.0,-114.0,-71.0,127.0,127.0,127.0,118.0,86.0,-84.0
126.0,127.0,122.0,126.0,127.0,129.0,109.0,127.0,24.0,-114.0,-71.0,127.0,127.0,127.0,118.0,86.0,-84.0
126.0,127.0,122.0,126.0,127.0,129.0,109.0,127.0,24.0,-114.0,-71.0,127.0,127.0,127.0,118.0,86.0,-84.0
126.0,127.0,122.0,126.0,127.0,129.0,109.0,127.0,24.0,-114.0,-71.0,127.0,127.0,127.0,118.0,86.0,-84.0
126.0,127.0,124.0,129.0,127.0,129.0,108.0,127.0,24.0,-114.0,-71.0,127.0,127.0,127.0,118.0,86.0,-84.0
126.0,126.0,124.0,128.0,127.0,128.0,108.0,127.0,24.0,-114.0,-71.0,127.0,127.0,127.0,118.0,86.0,-84.0
124.0,125.0,120.0,129.0,126.0,128.0,107.0,124.0,24.0,-115.0,-71.0,127.0,127.0,127.0,118.0,86.0,-84.0
125.0,125.0,120.0,129.0,126.0,128.0,107.0,124.0,24.0,-115.0,-71.0,127.0,127.0,127.0,118.0,86.0,-84.0
125.0,124.0,120.0,130.0,126.0,128.0,107.0,124.0,24.0,-115.0,-71.0,127.0,127.0,127.0,118.0,86.0,-84.0
124.0,124.0,120.0,130.0,126.0,128.0,108.0,124.0,24.0,-115.0,-71.0,127.0,127.0,127.0,118.0,86.0,-84.0
124.0,124.0,121.0,130.0,126.0,128.0,107.0,124.0,24.0,-115.0,-71.0,127.0,127.0,127.0,118.0,86.0,-84.0
124.0,124.0,121.0,130.0,126.0,128.0,107.0,124.0,24.0,-115.0,-71.0,127.0,127.0,127.0,118.0,86.0,-84.0
124.0,124.0,122.0,131.0,126.0,128.0,107.0,124.0,24.0,-115.0,-71.0,127.0,127.0,127.0,118.0,86.0,-84.0
125.0,125.0,120.0,130.0,127.0,128.0,107.0,125.0,24.0,-115.0,-71.0,127.0,127.0,127.0,118.0,86.0,-84.0
125.0,125.0,120.0,130.0,126.0,128.0,107.0,125.0,24.0,-115.0,-71.0,127.0,127.0,127.0,118.0,86.0,-84.0
125.0,125.0,120.0,129.0,126.0,128.0,107.0,124.0,24.0,-115.0,-71.0,127.0,127.0,127.0,118.0,86.0,-84.0
126.0,127.0,155.0,129.0,127.0,127.0,106.0,130.0,23.0,-115.0,-71.0,127.0,127.0,127.0,118.0,86.0,-84.0
126.0,126.0,156.0,129.0,127.0,127.0,106.0,130.0,23.0,-115.0,-71.0,127.0,127.0,127.0,118.0,86.0,-84.0
126.0,126.0,157.0,128.0,127.0,127.0,106.0,130.0,23.0,-115.0,-71.0,127.0,127.0,127.0,118.0,86.0,-84.0
126.0,126.0,158.0,128.0,127.0,127.0,106.0,129.0,23.0,-115.0,-71.0,127.0,127.0,127.0,118.0,86.0,-84.0
126.0,125.0,159.0,128.0,127.0,127.0,106.0,129.0,23.0,-115.0,-71.0,127.0,127.0,127.0,118.0,86.0,-84.0
126.0,125.0,160.0,128.0,127.0,127.0,106.0,129.0,23.0,-115.0,-71.0,127.0,127.0,127.0,118.0,86.0,-84.0
127.0,128.0,152.0,128.0,127.0,127.0,106.0,130.0,23.0,-115.0,-71.0,127.0,127.0,127.0,118.0,86.0,-84.0
127.0,128.0,153.0,128.0,127.0,127.0,106.0,130.0,23.0,-115.0,-71.0,127.0,127.0,127.0,118.0,86.0,-84.0
127.0,128.0,154.0,128.0,127.0,127.0,106.0,130.0,23.0,-115.0,-71.0,127.0,127.0,127.0,118.0,86.0,-84.0
127.0,127.0,155.0,129.0,127.0,127.0,106.0,130.0,23.0,-115.0,-71.0,127.0,127.0,127.0,118.0,86.0,-84.0
128.0,134.0,178.0,131.0,129.0,129.0,110.0,130.0,23.0,-115.0,-71.0,127.0,127.0,127.0,118.0,86.0,-84.0
128.0,134.0,178.0,132.0,129.0,129.0,110.0,130.0,23.0,-115.0,-71.0,127.0,127.0,127.0,118.0,86.0,-84.0
128.0,134.0,178.0,132.0,129.0,129.0,110.0,130.0,23.0,-115.0,-71.0,127.0,127.0,127.0,118.0,86.0,-84.0
128.0,134.0,178.0,132.0,129.0,130.0,110.0,130.0,23.0,-115.0,-71.0,127.0,127.0,127.0,118.0,86.0,-84.0
128.0,134.0,178.0,132.0,129.0,129.0,110.0,130.0,23.0,-115.0,-71.0,127.0,127.0,127.0,118.0,86.0,-84.0
127.0,132.0,177.0,127.0,127.0,129.0,109.0,129.0,23.0,-115.0,-71.0,127.0,127.0,127.0,118.0,86.0,-84.0
127.0,133.0,178.0,127.0,127.0,129.0,109.0,129.0,23.0,-115.0,-71.0,127.0,127.0,127.0,118.0,86.0,-84.0
127.0,133.0,178.0,128.0,128.0,129.0,109.0,130.0,23.0,-115.0,-71.0,127.0,127.0,127.0,118.0,86.0,-84.0
128.0,134.0,177.0,129.0,128.0,129.0,109.0,130.0,23.0,-115.0,-71.0,127.0,127.0,127.0,118.0,86.0,-84.0
128.0,134.0,178.0,130.0,128.0,129.0,109.0,130.0,23.0,-115.0,-71.0,127.0,127.0,127.0,118.0,86.0,-84.0
129.0,126.0,189.0,128.0,128.0,128.0,108.0,126.0,24.0,-115.0,-71.0,127.0,127.0,127.0,118.0,86.0,-84.0
129.0,127.0,188.0,127.0,127.0,128.0,108.0,126.0,24.0,-115.0,-71.0,127.0,127.0,127.0,118.0,86.0,-84.0
129.0,127.0,188.0,127.0,127.0,128.0,108.0,126.0,24.0,-115.0,-71.0,127.0,127.0,127.0,118.0,86.0,-84.0
130.0,129.0,188.0,126.0,127.0,128.0,108.0,126.0,24.0,-115.0,-71.0,127.0,127.0,127.0,118.0,86.0,-84.0
128.0,126.0,188.0,132.0,130.0,129.0,108.0,125.0,24.0,-115.0,-71.0,127.0,127.0,127.0,118.0,86.0,-84.0
128.0,126.0,189.0,132.0,129.0,129.0,109.0,125.0,24.0,-115.0,-71.0,127.0,127.0,127.0,118.0,86.0,-84.0
128.0,126.0,189.0,131.0,129.0,129.0,109.0,125.0,24.0,-115.0,-71.0,127.0,127.0,127.0,118.0,86.0,-84.0
128.0,126.0,189.0,131.0,129.0,129.0,109.0,125.0,24.0,-115.0,-71.0,127.0,127.0,127.0,118.0,86.0,-84.0
128.0,126.0,189.0,130.0,129.0,129.0,109.0,125.0,24.0,-115.0,-71.0,127.0,127.0,127.0,118.0,86.0,-84.0
128.0,126.0,189.0,129.0,128.0,129.0,108.0,126.0,24.0,-115.0,-71.0,127.0,127.0,127.0,118.0,86.0,-84.0
131.0,133.0,147.0,127.0,128.0,126.0,112.0,124.0,24.0,-115.0,-71.0,-128.0,127.0,127.0,118.0,86.0,-84.0
131.0,132.0,146.0,127.0,128.0,126.0,111.0,124.0,24.0,-115.0,-71.0,-128.0,127.0,127.0,118.0,86.0,-84.0
131.0,132.0,146.0,127.0,128.0,126.0,111.0,124.0,24.0,-115.0,-71.0,-128.0,127.0,127.0,118.0,86.0,-84.0
130.0,131.0,148.0,128.0,128.0,127.0,112.0,126.0,24.0,-115.0,-71.0,-128.0,127.0,127.0,118.0,86.0,-84.0
130.0,132.0,148.0,128.0,128.0,127.0,112.0,126.0,24.0,-115.0,-71.0,-128.0,127.0,127.0,118.0,86.0,-84.0
130.0,132.0,148.0,128.0,128.0,127.0,113.0,126.0,24.0,-115.0,-71.0,-128.0,127.0,127.0,118.0,86.0,-84.0
131.0,133.0,148.0,127.0,128.0,127.0,112.0,125.0,24.0,-115.0,-71.0,-128.0,127.0,127.0,118.0,86.0,-84.0
131.0,133.0,147.0,127.0,128.0,126.0,112.0,125.0,24.0,-115.0,-71.0,-128.0,127.0,127.0,118.0,86.0,-84.0
131.0,133.0,147.0,127.0,128.0,126.0,112.0,125.0,24.0,-115.0,-71.0,-128.0,127.0,127.0,118.0,86.0,-84.0
131.0,133.0,147.0,127.0,128.0,126.0,112.0,125.0,24.0,-115.0,-71.0,-128.0,127.0,127.0,118.0,86.0,-84.0
131.0,125.0,108.0,129.0,129.0,126.0,113.0,129.0,24.0,-115.0,-72.0,-128.0,127.0,127.0,118.0,86.0,-84.0
130.0,123.0,111.0,128.0,129.0,127.0,112.0,125.0,24.0,-115.0,-72.0,-128.0,127.0,127.0,118.0,86.0,-84.0
130.0,123.0,110.0,128.0,129.0,127.0,113.0,126.0,24.0,-115.0,-72.0,-128.0,127.0,127.0,118.0,86.0,-84.0
130.0,122.0,110.0,128.0,129.0,127.0,113.0,126.0,24.0,-115.0,-72.0,-128.0,127.0,127.0,118.0,86.0,-84.0
130.0,122.0,109.0,128.0,129.0,127.0,113.0,126.0,24.0,-115.0,-72.0,-128.0,127.0,127.0,118.0,86.0,-84.0
131.0,122.0,109.0,128.0,129.0,127.0,113.0,127.0,24.0,-115.0,-72.0,-128.0,127.0,127.0,118.0,86.0,-84.0
131.0,123.0,109.0,128.0,129.0,127.0,113.0,128.0,24.0,-115.0,-72.0,-128.0,127.0,127.0,118.0,86.0,-84.0
131.0,124.0,109.0,129.0,129.0,127.0,112.0,128.0,24.0,-115.0,-72.0,-128.0,127.0,127.0,118.0,86.0,-84.0
131.0,124.0,109.0,129.0,129.0,127.0,112.0,128.0,24.0,-115.0,-72.0,-128.0,127.0,127.0,118.0,86.0,-84.0
131.0,125.0,108.0,129.0,129.0,126.0,112.0,129.0,24.0,-115.0,-72.0,-128.0,127.0,127.0,118.0,86.0,-84.0
137.0,129.0,98.0,134.0,129.0,127.0,108.0,123.0,24.0,-115.0,-74.0,-128.0,127.0,127.0,118.0,86.0,-84.0
137.0,130.0,98.0,135.0,129.0,127.0,106.0,124.0,24.0,-115.0,-74.0,-128.0,127.0,127.0,118.0,86.0,-84.0
137.0,131.0,98.0,135.0,129.0,127.0,107.0,124.0,24.0,-115.0,-74.0,-128.0,127.0,127.0,118.0,86.0,-84.0
137.0,132.0,98.0,135.0,130.0,127.0,108.0,124.0,24.0,-115.0,-74.0,-128.0,127.0,127.0,118.0,86.0,-84.0
138.0,133.0,98.0,134.0,130.0,127.0,107.0,125.0,24.0,-115.0,-74.0,-128.0,127.0,127.0,118.0,86.0,-84.0
138.0,133.0,98.0,134.0,130.0,127.0,106.0,126.0,24.0,-115.0,-74.0,-128.0,127.0,127.0,118.0,86.0,-84.0
138.0,134.0,97.0,134.0,130.0,127.0,106.0,127.0,24.0,-115.0,-74.0,-128.0,127.0,127.0,118.0,86.0,-84.0
139.0,134.0,97.0,133.0,130.0,127.0,106.0,128.0,24.0,-115.0,-74.0,-128.0,127.0,127.0,118.0,86.0,-84.0
139.0,134.0,97.0,133.0,131.0,127.0,106.0,129.0,24.0,-115.0,-74.0,-128.0,127.0,127.0,118.0,86.0,-84.0
139.0,134.0,97.0,133.0,131.0,127.0,106.0,130.0,24.0,-115.0,-74.0,-128.0,127.0,127.0,118.0,86.0,-84.0
137.0,129.0,91.0,130.0,130.0,130.0,111.0,129.0,24.0,-117.0,-75.0,127.0,127.0,127.0,118.0,86.0,-84.0
137.0,129.0,91.0,131.0,130.0,130.0,111.0,129.0,24.0,-117.0,-75.0,127.0,127.0,127.0,118.0,86.0,-84.0
137.0,130.0,92.0,133.0,130.0,130.0,111.0,129.0,24.0,-117.0,-75.0,127.0,127.0,127.0,118.0,86.0,-84.0
136.0,130.0,92.0,133.0,130.0,130.0,112.0,129.0,24.0,-117.0,-75.0,127.0,127.0,127.0,118.0,86.0,-84.0
136.0,130.0,92.0,134.0,130.0,130.0,111.0,129.0,24.0,-117.0,-75.0,127.0,127.0,127.0,118.0,86.0,-84.0
136.0,129.0,91.0,134.0,130.0,130.0,111.0,129.0,24.0,-117.0,-75.0,127.0,127.0,127.0,118.0,86.0,-84.0
136.0,129.0,91.0,133.0,131.0,130.0,111.0,128.0,24.0,-117.0,-75.0,127.0,127.0,127.0,118.0,86.0,-84.0
136.0,129.0,91.0,133.0,131.0,130.0,111.0,128.0,24.0,-117.0,-75.0,127.0,127.0,127.0,118.0,86.0,-84.0
136.0,129.0,91.0,133.0,131.0,130.0,111.0,128.0,24.0,-117.0,-75.0,127.0,127.0,127.0,118.0,86.0,-84.0
137.0,129.0,91.0,129.0,130.0,130.0,111.0,129.0,24.0,-117.0,-75.0,127.0,127.0,127.0,118.0,86.0,-84.0
134.0,137.0,91.0,134.0,130.0,132.0,115.0,127.0,24.0,-118.0,-75.0,127.0,127.0,127.0,118.0,86.0,-84.0
134.0,137.0,91.0,134.0,130.0,133.0,115.0,128.0,24.0,-118.0,-75.0,127.0,127.0,127.0,118.0,86.0,-84.0
134.0,137.0,90.0,134.0,129.0,133.0,116.0,129.0,24.0,-118.0,-75.0,127.0,127.0,127.0,118.0,86.0,-84.0
134.0,135.0,89.0,133.0,129.0,133.0,115.0,129.0,24.0,-118.0,-75.0,127.0,127.0,127.0,118.0,86.0,-84.0
134.0,133.0,89.0,133.0,128.0,132.0,115.0,130.0,24.0,-118.0,-75.0,127.0,127.0,127.0,118.0,86.0,-84.0
133.0,132.0,88.0,132.0,128.0,132.0,115.0,131.0,24.0,-118.0,-75.0,127.0,127.0,127.0,118.0,86.0,-84.0
133.0,130.0,88.0,132.0,128.0,132.0,114.0,131.0,24.0,-118.0,-75.0,127.0,127.0,127.0,118.0,86.0,-84.0
133.0,130.0,88.0,132.0,128.0,133.0,115.0,132.0,24.0,-118.0,-75.0,127.0,127.0,127.0,118.0,86.0,-84.0
134.0,137.0,91.0,133.0,130.0,132.0,115.0,125.0,24.0,-118.0,-75.0,127.0,127.0,127.0,118.0,86.0,-84.0
134.0,137.0,91.0,134.0,130.0,132.0,115.0,126.0,24.0,-118.0,-75.0,127.0,127.0,127.0,118.0,86.0,-84.0
139.0,130.0,107.0,130.0,128.0,137.0,115.0,128.0,23.0,-117.0,-75.0,-128.0,127.0,127.0,118.0,86.0,-84.0
139.0,131.0,108.0,130.0,128.0,137.0,115.0,128.0,23.0,-117.0,-75.0,-128.0,127.0,127.0,118.0,86.0,-84.0
139.0,132.0,109.0,129.0,128.0,137.0,115.0,127.0,23.0,-117.0,-75.0,-128.0,127.0,127.0,118.0,86.0,-84.0
139.0,133.0,109.0,128.0,127.0,137.0,115.0,127.0,23.0,-117.0,-75.0,-128.0,127.0,127.0,118.0,86.0,-84.0
139.0,134.0,109.0,127.0,127.0,137.0,115.0,127.0,23.0,-117.0,-75.0,-128.0,127.0,127.0,118.0,86.0,-84.0
139.0,133.0,110.0,127.0,127.0,136.0,115.0,127.0,23.0,-117.0,-75.0,-128.0,127.0,127.0,118.0,86.0,-84.0
139.0,133.0,110.0,126.0,126.0,137.0,115.0,126.0,23.0,-117.0,-75.0,-128.0,127.0,127.0,118.0,86.0,-84.0
139.0,130.0,100.0,130.0,128.0,136.0,113.0,131.0,23.0,-117.0,-75.0,-128.0,127.0,127.0,118.0,86.0,-84.0
139.0,130.0,101.0,130.0,128.0,136.0,114.0,130.0,23.0,-117.0,-75.0,-128.0,127.0,127.0,118.0,86.0,-84.0
139.0,130.0,104.0,130.0,128.0,136.0,114.0,129.0,23.0,-117.0,-75.0,-128.0,127.0,127.0,118.0,86.0,-84.0
134.0,135.0,122.0,132.0,128.0,128.0,108.0,140.0,23.0,-114.0,-72.0,-128.0,127.0,127.0,118.0,86.0,-84.0
134.0,135.0,123.0,132.0,127.0,127.0,107.0,141.0,23.0,-114.0,-72.0,-128.0,127.0,127.0,118.0,86.0,-84.0
134.0,134.0,123.0,132.0,127.0,127.0,108.0,140.0,23.0,-114.0,-72.0,-128.0,127.0,127.0,118.0,86.0,-84.0
134.0,133.0,123.0,131.0,127.0,127.0,112.0,139.0,23.0,-114.0,-72.0,-128.0,127.0,127.0,118.0,86.0,-84.0
133.0,133.0,121.0,130.0,126.0,126.0,112.0,137.0,23.0,-114.0,-72.0,-128.0,127.0,127.0,118.0,86.0,-84.0
133.0,133.0,118.0,130.0,126.0,126.0,112.0,135.0,23.0,-114.0,-72.0,-128.0,127.0,127.0,118.0,86.0,-84.0
131.0,131.0,122.0,132.0,129.0,128.0,108.0,135.0,23.0,-114.0,-72.0,-128.0,127.0,127.0,118.0,86.0,-84.0
132.0,132.0,122.0,132.0,128.0,128.0,107.0,137.0,23.0,-114.0,-72.0,-128.0,127.0,127.0,118.0,86.0,-84.0
133.0,133.0,121.0,132.0,128.0,128.0,107.0,138.0,23.0,-114.0,-72.0,-128.0,127.0,127.0,118.0,86.0,-84.0
133.0,134.0,121.0,132.0,128.0,128.0,108.0,140.0,23.0,-114.0,-72.0,-128.0,127.0,127.0,118.0,86.0,-84.0
125.0,132.0,123.0,133.0,128.0,125.0,109.0,136.0,22.0,-112.0,-70.0,-128.0,127.0,127.0,118.0,86.0,-84.0
125.0,134.0,129.0,134.0,128.0,125.0,110.0,135.0,22.0,-112.0,-70.0,-128.0,127.0,127.0,118.0,86.0,-84.0
125.0,136.0,135.0,134.0,128.0,125.0,110.0,135.0,22.0,-112.0,-70.0,-128.0,127.0,127.0,118.0,86.0,-84.0
125.0,138.0,138.0,134.0,128.0,125.0,110.0,134.0,22.0,-112.0,-70.0,-128.0,127.0,127.0,118.0,86.0,-84.0
125.0,138.0,139.0,135.0,128.0,125.0,110.0,133.0,22.0,-112.0,-70.0,-128.0,127.0,127.0,118.0,86.0,-84.0
126.0,132.0,120.0,131.0,127.0,123.0,106.0,140.0,22.0,-112.0,-70.0,-128.0,127.0,127.0,118.0,86.0,-84.0
126.0,130.0,118.0,131.0,127.0,124.0,107.0,140.0,22.0,-112.0,-70.0,-128.0,127.0,127.0,118.0,86.0,-84.0
125.0,129.0,116.0,131.0,127.0,124.0,108.0,139.0,22.0,-112.0,-70.0,-128.0,127.0,127.0,118.0,86.0,-84.0
125.0,130.0,115.0,132.0,127.0,124.0,108.0,137.0,22.0,-112.0,-70.0,-128.0,127.0,127.0,118.0,86.0,-84.0
125.0,131.0,117.0,132.0,128.0,125.0,109.0,136.0,22.0,-112.0,-70.0,-128.0,127.0,127.0,118.0,86.0,-84.0
128.0,122.0,140.0,141.0,127.0,124.0,108.0,136.0,22.0,-112.0,-70.0,127.0,127.0,127.0,118.0,86.0,-84.0
128.0,121.0,141.0,141.0,127.0,124.0,108.0,138.0,22.0,-112.0,-70.0,127.0,127.0,127.0,118.0,86.0,-84.0
129.0,121.0,144.0,141.0,127.0,124.0,108.0,139.0,22.0,-112.0,-70.0,127.0,127.0,127.0,118.0,86.0,-84.0
129.0,122.0,147.0,142.0,128.0,124.0,107.0,140.0,22.0,-112.0,-70.0,127.0,127.0,127.0,118.0,86.0,-84.0
127.0,125.0,125.0,139.0,126.0,124.0,108.0,133.0,22.0,-112.0,-70.0,127.0,127.0,127.0,118.0,86.0,-84.0
127.0,125.0,128.0,139.0,126.0,124.0,108.0,132.0,22.0,-112.0,-70.0,127.0,127.0,127.0,118.0,86.0,-84.0
127.0,125.0,132.0,140.0,126.0,124.0,108.0,132.0,22.0,-112.0,-70.0,127.0,127.0,127.0,118.0,86.0,-84.0
127.0,125.0,135.0,140.0,126.0,124.0,107.0,132.0,22.0,-112.0,-70.0,127.0,127.0,127.0,118.0,86.0,-84.0
127.0,125.0,137.0,140.0,126.0,124.0,107.0,133.0,22.0,-112.0,-70.0,127.0,127.0,127.0,118.0,86.0,-84.0
128.0,124.0,139.0,140.0,127.0,124.0,108.0,135.0,22.0,-112.0,-70.0,127.0,127.0,127.0,118.0,86.0,-84.0
133.0,135.0,124.0,146.0,127.0,123.0,106.0,158.0,21.0,-112.0,-71.0,127.0,127.0,127.0,118.0,86.0,-84.0
133.0,134.0,122.0,146.0,127.0,123.0,106.0,158.0,21.0,-112.0,-71.0,127.0,127.0,127.0,118.0,86.0,-84.0
133.0,133.0,121.0,145.0,127.0,122.0,105.0,158.0,21.0,-112.0,-71.0,127.0,127.0,127.0,118.0,86.0,-84.0
129.0,131.0,126.0,148.0,128.0,123.0,105.0,150.0,21.0,-112.0,-71.0,127.0,127.0,127.0,118.0,86.0,-84.0
130.0,131.0,128.0,148.0,128.0,123.0,106.0,153.0,21.0,-112.0,-71.0,127.0,127.0,127.0,118.0,86.0,-84.0
130.0,132.0,130.0,148.0,128.0,123.0,106.0,155.0,21.0,-112.0,-71.0,127.0,127.0,127.0,118.0,86.0,-84.0
131.0,133.0,130.0,148.0,128.0,123.0,106.0,157.0,21.0,-112.0,-71.0,127.0,127.0,127.0,118.0,86.0,-84.0
132.0,134.0,130.0,148.0,128.0,123.0,106.0,158.0,21.0,-112.0,-71.0,127.0,127.0,127.0,118.0,86.0,-84.0
132.0,135.0,128.0,147.0,128.0,123.0,106.0,158.0,21.0,-112.0,-71.0,127.0,127.0,127.0,118.0,86.0,-84.0
133.0,135.0,126.0,147.0,128.0,123.0,106.0,158.0,21.0,-112.0,-71.0,127.0,127.0,127.0,118.0,86.0,-84.0
125.0,135.0,192.0,136.0,125.0,128.0,107.0,144.0,19.0,-112.0,-70.0,-128.0,126.0,127.0,118.0,86.0,-84.0
125.0,134.0,194.0,136.0,125.0,128.0,107.0,145.0,19.0,-112.0,-70.0,-128.0,126.0,127.0,118.0,86.0,-84.0
127.0,144.0,173.0,139.0,126.0,128.0,108.0,150.0,19.0,-112.0,-70.0,-128.0,126.0,127.0,118.0,86.0,-84.0
126.0,142.0,176.0,139.0,126.0,128.0,108.0,148.0,19.0,-112.0,-70.0,-128.0,126.0,127.0,118.0,86.0,-84.0
126.0,141.0,179.0,139.0,126.0,128.0,107.0,147.0,19.0,-112.0,-70.0,-128.0,126.0,127.0,118.0,86.0,-84.0
125.0,140.0,181.0,138.0,126.0,128.0,107.0,146.0,19.0,-112.0,-70.0,-128.0,126.0,127.0,118.0,86.0,-84.0
125.0,140.0,183.0,138.0,125.0,128.0,107.0,145.0,19.0,-112.0,-70.0,-128.0,126.0,127.0,118.0,86.0,-84.0
125.0,139.0,185.0,137.0,125.0,128.0,107.0,145.0,19.0,-112.0,-70.0,-128.0,126.0,127.0,118.0,86.0,-84.0
125.0,137.0,187.0,137.0,125.0,128.0,108.0,144.0,19.0,-112.0,-70.0,-128.0,126.0,127.0,118.0,86.0,-84.0
125.0,136.0,189.0,136.0,125.0,128.0,107.0,144.0,19.0,-112.0,-70.0,-128.0,126.0,127.0,118.0,86.0,-84.0
115.0,133.0,202.0,135.0,121.0,131.0,112.0,137.0,17.0,-109.0,-68.0,-128.0,126.0,127.0,118.0,86.0,-84.0
117.0,128.0,207.0,129.0,122.0,131.0,113.0,137.0,17.0,-109.0,-68.0,-128.0,126.0,127.0,118.0,86.0,-84.0
117.0,129.0,208.0,129.0,123.0,132.0,113.0,137.0,17.0,-109.0,-68.0,-128.0,126.0,127.0,118.0,86.0,-84.0
117.0,129.0,210.0,129.0,123.0,132.0,113.0,137.0,17.0,-109.0,-68.0,-128.0,126.0,127.0,118.0,86.0,-84.0
116.0,130.0,210.0,130.0,122.0,131.0,113.0,138.0,17.0,-109.0,-68.0,-128.0,126.0,127.0,118.0,86.0,-84.0
116.0,131.0,211.0,130.0,122.0,131.0,113.0,138.0,17.0,-109.0,-68.0,-128.0,126.0,127.0,118.0,86.0,-84.0
116.0,131.0,211.0,131.0,122.0,131.0,113.0,138.0,17.0,-109.0,-68.0,-128.0,126.0,127.0,118.0,86.0,-84.0
116.0,132.0,210.0,132.0,122.0,131.0,113.0,137.0,17.0,-109.0,-68.0,-128.0,126.0,127.0,118.0,86.0,-84.0
115.0,132.0,208.0,133.0,122.0,131.0,113.0,137.0,17.0,-109.0,-68.0,-128.0,126.0,127.0,118.0,86.0,-84.0
115.0,133.0,206.0,134.0,122.0,131.0,113.0,137.0,17.0,-109.0,-68.0,-128.0,126.0,127.0,118.0,86.0,-84.0
108.0,132.0,191.0,142.0,125.0,123.0,107.0,140.0,18.0,-106.0,-64.0,-128.0,125.0,127.0,118.0,86.0,-84.0
109.0,128.0,191.0,141.0,124.0,123.0,107.0,141.0,18.0,-106.0,-64.0,-128.0,125.0,127.0,118.0,86.0,-84.0
110.0,124.0,191.0,140.0,124.0,123.0,106.0,141.0,18.0,-106.0,-64.0,-128.0,125.0,127.0,118.0,86.0,-84.0
110.0,121.0,191.0,139.0,123.0,122.0,105.0,141.0,18.0,-106.0,-64.0,-128.0,125.0,127.0,118.0,86.0,-84.0
111.0,121.0,190.0,138.0,123.0,122.0,105.0,141.0,18.0,-106.0,-64.0,-128.0,125.0,127.0,118.0,86.0,-84.0
112.0,122.0,191.0,138.0,122.0,122.0,104.0,141.0,18.0,-106.0,-64.0,-128.0,125.0,127.0,118.0,86.0,-84.0
113.0,124.0,192.0,138.0,122.0,121.0,104.0,140.0,18.0,-106.0,-64.0,-128.0,125.0,127.0,118.0,86.0,-84.0
114.0,127.0,194.0,138.0,121.0,121.0,104.0,140.0,18.0,-106.0,-64.0,-128.0,125.0,127.0,118.0,86.0,-84.0
114.0,129.0,197.0,138.0,121.0,121.0,104.0,141.0,18.0,-106.0,-64.0,-128.0,125.0,127.0,118.0,86.0,-84.0
108.0,135.0,190.0,142.0,125.0,123.0,107.0,138.0,18.0,-106.0,-64.0,-128.0,125.0,127.0,118.0,86.0,-84.0
117.0,131.0,153.0,136.0,121.0,107.0,94.0,133.0,22.0,-104.0,-62.0,-128.0,125.0,-128.0,118.0,86.0,-84.0
117.0,130.0,153.0,136.0,121.0,107.0,93.0,133.0,22.0,-104.0,-62.0,-128.0,125.0,-128.0,118.0,86.0,-84.0
116.0,130.0,155.0,135.0,121.0,106.0,92.0,132.0,22.0,-104.0,-62.0,-128.0,125.0,-128.0,118.0,86.0,-84.0
116.0,129.0,155.0,135.0,121.0,106.0,91.0,132.0,22.0,-104.0,-62.0,-128.0,125.0,-128.0,118.0,86.0,-84.0
116.0,128.0,154.0,135.0,122.0,105.0,91.0,131.0,22.0,-104.0,-62.0,-128.0,125.0,-128.0,118.0,86.0,-84.0
116.0,127.0,151.0,135.0,122.0,105.0,90.0,131.0,22.0,-104.0,-62.0,-128.0,125.0,-128.0,118.0,86.0,-84.0
115.0,127.0,148.0,135.0,122.0,105.0,89.0,131.0,22.0,-104.0,-62.0,-128.0,125.0,-128.0,118.0,86.0,-84.0
115.0,127.0,145.0,135.0,122.0,105.0,89.0,131.0,22.0,-104.0,-62.0,-128.0,125.0,-128.0,118.0,86.0,-84.0
117.0,132.0,156.0,138.0,121.0,108.0,96.0,135.0,22.0,-104.0,-62.0,-128.0,125.0,-128.0,118.0,86.0,-84.0
117.0,131.0,154.0,137.0,121.0,108.0,95.0,134.0,22.0,-104.0,-62.0,-128.0,125.0,-128.0,118.0,86.0,-84.0
119.0,131.0,84.0,140.0,126.0,121.0,102.0,121.0,27.0,-106.0,-64.0,-128.0,126.0,-128.0,118.0,86.0,-84.0
119.0,131.0,83.0,140.0,125.0,121.0,103.0,122.0,27.0,-106.0,-64.0,-128.0,126.0,-128.0,118.0,86.0,-84.0
119.0,130.0,83.0,140.0,125.0,121.0,103.0,123.0,27.0,-106.0,-64.0,-128.0,126.0,-128.0,118.0,86.0,-84.0
119.0,129.0,83.0,139.0,125.0,121.0,104.0,124.0,27.0,-106.0,-64.0,-128.0,126.0,-128.0,118.0,86.0,-84.0
119.0,128.0,84.0,138.0,125.0,121.0,104.0,124.0,27.0,-106.0,-64.0,-128.0,126.0,-128.0,118.0,86.0,-84.0
119.0,127.0,84.0,138.0,124.0,122.0,104.0,125.0,27.0,-106.0,-64.0,-128.0,126.0,-128.0,118.0,86.0,-84.0
119.0,126.0,85.0,137.0,124.0,122.0,104.0,125.0,27.0,-106.0,-64.0,-128.0,126.0,-128.0,118.0,86.0,-84.0
117.0,128.0,86.0,141.0,126.0,119.0,106.0,118.0,27.0,-106.0,-64.0,-128.0,126.0,-128.0,118.0,86.0,-84.0
118.0,129.0,86.0,141.0,126.0,119.0,101.0,119.0,27.0,-106.0,-64.0,-128.0,126.0,-128.0,118.0,86.0,-84.0
118.0,131.0,85.0,141.0,126.0,120.0,101.0,120.0,27.0,-106.0,-64.0,-128.0,126.0,-128.0,118.0,86.0,-84.0
118.0,124.0,77.0,135.0,126.0,133.0,117.0,107.0,28.0,-112.0,-68.0,-128.0,126.0,127.0,118.0,86.0,-84.0
118.0,124.0,79.0,135.0,126.0,133.0,116.0,104.0,28.0,-112.0,-68.0,-128.0,126.0,127.0,118.0,86.0,-84.0
117.0,124.0,81.0,135.0,126.0,133.0,116.0,101.0,28.0,-112.0,-68.0,-128.0,126.0,127.0,118.0,86.0,-84.0
116.0,124.0,81.0,135.0,126.0,133.0,116.0,99.0,28.0,-112.0,-68.0,-128.0,126.0,127.0,118.0,86.0,-84.0
116.0,124.0,81.0,135.0,126.0,133.0,116.0,96.0,28.0,-112.0,-68.0,-128.0,126.0,127.0,118.0,86.0,-84.0
115.0,125.0,80.0,135.0,125.0,133.0,116.0,94.0,28.0,-112.0,-68.0,-128.0,126.0,127.0,118.0,86.0,-84.0
119.0,123.0,82.0,135.0,125.0,133.0,115.0,117.0,28.0,-112.0,-68.0,-128.0,126.0,127.0,118.0,86.0,-84.0
119.0,124.0,81.0,135.0,126.0,133.0,115.0,116.0,28.0,-112.0,-68.0,-128.0,126.0,127.0,118.0,86.0,-84.0
119.0,125.0,79.0,135.0,126.0,134.0,117.0,114.0,28.0,-112.0,-68.0,-128.0,126.0,127.0,118.0,86.0,-84.0
119.0,125.0,78.0,135.0,126.0,134.0,117.0,111.0,28.0,-112.0,-68.0,-128.0,126.0,127.0,118.0,86.0,-84.0
119.0,131.0,114.0,134.0,127.0,133.0,116.0,122.0,28.0,-115.0,-70.0,-128.0,126.0,127.0,118.0,86.0,-84.0
119.0,131.0,111.0,134.0,127.0,133.0,116.0,122.0,28.0,-115.0,-70.0,-128.0,126.0,127.0,118.0,86.0,-84.0
119.0,130.0,107.0,134.0,127.0,132.0,115.0,122.0,28.0,-115.0,-70.0,-128.0,126.0,127.0,118.0,86.0,-84.0
119.0,130.0,104.0,134.0,127.0,132.0,115.0,121.0,28.0,-115.0,-70.0,-128.0,126.0,127.0,118.0,86.0,-84.0
119.0,129.0,101.0,134.0,127.0,132.0,115.0,121.0,28.0,-115.0,-70.0,-128.0,126.0,127.0,118.0,86.0,-84.0
118.0,129.0,96.0,130.0,124.0,132.0,114.0,116.0,28.0,-115.0,-70.0,-128.0,126.0,127.0,118.0,86.0,-84.0
118.0,129.0,102.0,131.0,125.0,132.0,114.0,117.0,28.0,-115.0,-70.0,-128.0,126.0,127.0,118.0,86.0,-84.0
119.0,129.0,108.0,132.0,125.0,132.0,115.0,119.0,28.0,-115.0,-70.0,-128.0,126.0,127.0,118.0,86.0,-84.0
119.0,130.0,112.0,133.0,126.0,133.0,115.0,120.0,28.0,-115.0,-70.0,-128.0,126.0,127.0,118.0,86.0,-84.0
119.0,130.0,114.0,134.0,126.0,132.0,115.0,122.0,28.0,-115.0,-70.0,-128.0,126.0,127.0,118.0,86.0,-84.0
119.0,125.0,94.0,127.0,126.0,128.0,107.0,119.0,29.0,-115.0,-71.0,-128.0,126.0,127.0,118.0,86.0,-84.0
118.0,124.0,95.0,127.0,126.0,128.0,107.0,118.0,29.0,-115.0,-71.0,-128.0,126.0,127.0,118.0,86.0,-84.0
118.0,123.0,94.0,128.0,126.0,128.0,107.0,117.0,29.0,-115.0,-71.0,-128.0,126.0,127.0,118.0,86.0,-84.0
118.0,122.0,93.0,128.0,126.0,127.0,106.0,116.0,29.0,-115.0,-71.0,-128.0,126.0,127.0,118.0,86.0,-84.0
119.0,122.0,88.0,126.0,125.0,127.0,109.0,122.0,29.0,-115.0,-71.0,-128.0,126.0,127.0,118.0,86.0,-84.0
119.0,123.0,90.0,126.0,125.0,128.0,107.0,122.0,29.0,-115.0,-71.0,-128.0,126.0,127.0,118.0,86.0,-84.0
120.0,125.0,91.0,126.0,126.0,128.0,108.0,121.0,29.0,-115.0,-71.0,-128.0,126.0,127.0,118.0,86.0,-84.0
120.0,126.0,93.0,127.0,126.0,129.0,108.0,121.0,29.0,-115.0,-71.0,-128.0,126.0,127.0,118.0,86.0,-84.0
120.0,126.0,93.0,127.0,126.0,128.0,108.0,120.0,29.0,-115.0,-71.0,-128.0,126.0,127.0,118.0,86.0,-84.0
119.0,126.0,94.0,127.0,126.0,128.0,108.0,120.0,29.0,-115.0,-71.0,-128.0,126.0,127.0,118.0,86.0,-84.0
121.0,125.0,101.0,127.0,127.0,127.0,110.0,119.0,30.0,-113.0,-72.0,127.0,127.0,127.0,118.0,86.0,-84.0
121.0,125.0,99.0,128.0,127.0,127.0,113.0,120.0,30.0,-113.0,-72.0,127.0,127.0,127.0,118.0,86.0,-84.0
121.0,125.0,99.0,128.0,127.0,127.0,113.0,120.0,30.0,-113.0,-72.0,127.0,127.0,127.0,118.0,86.0,-84.0
124.0,128.0,93.0,129.0,127.0,129.0,109.0,123.0,30.0,-113.0,-72.0,127.0,127.0,127.0,118.0,86.0,-84.0
123.0,127.0,93.0,129.0,127.0,128.0,109.0,123.0,30.0,-113.0,-72.0,127.0,127.0,127.0,118.0,86.0,-84.0
123.0,126.0,94.0,129.0,127.0,128.0,108.0,122.0,30.0,-113.0,-72.0,127.0,127.0,127.0,118.0,86.0,-84.0
122.0,125.0,96.0,129.0,127.0,128.0,108.0,121.0,30.0,-113.0,-72.0,127.0,127.0,127.0,118.0,86.0,-84.0
122.0,125.0,99.0,128.0,126.0,128.0,107.0,120.0,30.0,-113.0,-72.0,127.0,127.0,127.0,118.0,86.0,-84.0
122.0,125.0,101.0,128.0,126.0,127.0,106.0,119.0,30.0,-113.0,-72.0,127.0,127.0,127.0,118.0,86.0,-84.0
121.0,125.0,102.0,128.0,127.0,127.0,107.0,119.0,30.0,-113.0,-72.0,127.0,127.0,127.0,118.0,86.0,-84.0
122.0,126.0,104.0,130.0,127.0,129.0,109.0,116.0,30.0,-113.0,-72.0,127.0,127.0,127.0,118.0,86.0,-84.0
122.0,126.0,105.0,130.0,127.0,128.0,108.0,116.0,30.0,-113.0,-72.0,127.0,127.0,127.0,118.0,86.0,-84.0
122.0,129.0,106.0,129.0,127.0,129.0,109.0,124.0,30.0,-113.0,-72.0,127.0,127.0,127.0,118.0,86.0,-84.0
122.0,129.0,107.0,129.0,127.0,129.0,109.0,123.0,30.0,-113.0,-72.0,127.0,127.0,127.0,118.0,86.0,-84.0
122.0,128.0,108.0,129.0,127.0,129.0,109.0,121.0,30.0,-113.0,-72.0,127.0,127.0,127.0,118.0,86.0,-84.0
122.0,127.0,107.0,130.0,128.0,129.0,109.0,120.0,30.0,-113.0,-72.0,127.0,127.0,127.0,118.0,86.0,-84.0
121.0,125.0,107.0,130.0,127.0,129.0,109.0,120.0,30.0,-113.0,-72.0,127.0,127.0,127.0,118.0,86.0,-84.0
121.0,125.0,106.0,130.0,128.0,129.0,109.0,119.0,30.0,-113.0,-72.0,127.0,127.0,127.0,118.0,86.0,-84.0
121.0,125.0,106.0,130.0,127.0,129.0,109.0,118.0,30.0,-113.0,-72.0,127.0,127.0,127.0,118.0,86.0,-84.0
122.0,125.0,105.0,130.0,127.0,129.0,109.0,117.0,30.0,-113.0,-72.0,127.0,127.0,127.0,118.0,86.0,-84.0
121.0,126.0,119.0,129.0,125.0,126.0,112.0,121.0,29.0,-113.0,-72.0,127.0,127.0,127.0,118.0,86.0,-84.0
120.0,125.0,118.0,130.0,126.0,127.0,106.0,121.0,29.0,-113.0,-72.0,127.0,127.0,127.0,118.0,86.0,-84.0
120.0,125.0,118.0,130.0,126.0,127.0,106.0,120.0,29.0,-113.0,-72.0,127.0,127.0,127.0,118.0,86.0,-84.0
120.0,125.0,119.0,130.0,126.0,127.0,106.0,120.0,29.0,-113.0,-72.0,127.0,127.0,127.0,118.0,86.0,-84.0
121.0,125.0,118.0,129.0,126.0,128.0,106.0,120.0,29.0,-113.0,-72.0,127.0,127.0,127.0,118.0,86.0,-84.0
121.0,124.0,117.0,129.0,126.0,127.0,106.0,121.0,29.0,-113.0,-72.0,127.0,127.0,127.0,118.0,86.0,-84.0
121.0,124.0,117.0,128.0,126.0,127.0,107.0,122.0,29.0,-113.0,-72.0,127.0,127.0,127.0,118.0,86.0,-84.0
121.0,124.0,118.0,128.0,125.0,127.0,107.0,122.0,29.0,-113.0,-72.0,127.0,127.0,127.0,118.0,86.0,-84.0
121.0,125.0,118.0,128.0,125.0,127.0,110.0,122.0,29.0,-113.0,-72.0,127.0,127.0,127.0,118.0,86.0,-84.0
121.0,125.0,119.0,129.0,125.0,127.0,112.0,121.0,29.0,-113.0,-72.0,127.0,127.0,127.0,118.0,86.0,-84.0
122.0,126.0,117.0,127.0,126.0,127.0,106.0,123.0,28.0,-112.0,-72.0,127.0,127.0,127.0,118.0,86.0,-84.0
122.0,128.0,115.0,127.0,126.0,127.0,108.0,124.0,28.0,-112.0,-72.0,127.0,127.0,127.0,118.0,86.0,-84.0
123.0,129.0,114.0,126.0,126.0,127.0,110.0,123.0,28.0,-112.0,-72.0,127.0,127.0,127.0,118.0,86.0,-84.0
123.0,130.0,113.0,125.0,126.0,127.0,108.0,123.0,28.0,-112.0,-72.0,127.0,127.0,127.0,118.0,86.0,-84.0
123.0,130.0,112.0,124.0,125.0,127.0,111.0,123.0,28.0,-112.0,-72.0,127.0,127.0,127.0,118.0,86.0,-84.0
123.0,130.0,112.0,124.0,125.0,127.0,112.0,122.0,28.0,-112.0,-72.0,127.0,127.0,127.0,118.0,86.0,-84.0
122.0,129.0,113.0,124.0,125.0,126.0,112.0,122.0,28.0,-112.0,-72.0,127.0,127.0,127.0,118.0,86.0,-84.0
122.0,130.0,114.0,124.0,125.0,126.0,112.0,121.0,28.0,-112.0,-72.0,127.0,127.0,127.0,118.0,86.0,-84.0
121.0,130.0,115.0,124.0,125.0,126.0,111.0,121.0,28.0,-112.0,-72.0,127.0,127.0,127.0,118.0,86.0,-84.0
120.0,130.0,115.0,124.0,125.0,125.0,111.0,120.0,28.0,-112.0,-72.0,127.0,127.0,127.0,118.0,86.0,-84.0
121.0,128.0,122.0,128.0,126.0,127.0,106.0,115.0,28.0,-111.0,-73.0,127.0,127.0,127.0,118.0,86.0,-84.0
121.0,128.0,122.0,128.0,127.0,127.0,106.0,114.0,28.0,-111.0,-73.0,127.0,127.0,127.0,118.0,86.0,-84.0
121.0,128.0,123.0,129.0,127.0,128.0,107.0,112.0,28.0,-111.0,-73.0,127.0,127.0,127.0,118.0,86.0,-84.0
121.0,128.0,122.0,129.0,127.0,128.0,107.0,111.0,28.0,-111.0,-73.0,127.0,127.0,127.0,118.0,86.0,-84.0
121.0,128.0,121.0,129.0,128.0,128.0,107.0,110.0,28.0,-111.0,-73.0,127.0,127.0,127.0,118.0,86.0,-84.0
121.0,128.0,121.0,129.0,128.0,128.0,107.0,110.0,28.0,-111.0,-73.0,127.0,127.0,127.0,118.0,86.0,-84.0
121.0,128.0,121.0,129.0,128.0,128.0,107.0,110.0,28.0,-111.0,-73.0,127.0,127.0,127.0,118.0,86.0,-84.0
120.0,127.0,121.0,129.0,128.0,127.0,106.0,110.0,28.0,-111.0,-73.0,127.0,127.0,127.0,118.0,86.0,-84.0
120.0,125.0,120.0,129.0,128.0,127.0,107.0,111.0,28.0,-111.0,-73.0,127.0,127.0,127.0,118.0,86.0,-84.0
121.0,128.0,123.0,128.0,126.0,127.0,106.0,115.0,28.0,-111.0,-73.0,127.0,127.0,127.0,118.0,86.0,-84.0
121.0,128.0,121.0,128.0,126.0,127.0,113.0,124.0,27.0,-110.0,-72.0,127.0,127.0,127.0,118.0,86.0,-84.0
121.0,129.0,122.0,129.0,126.0,127.0,113.0,122.0,27.0,-110.0,-72.0,127.0,127.0,127.0,118.0,86.0,-84.0
121.0,130.0,123.0,129.0,126.0,127.0,113.0,120.0,27.0,-110.0,-72.0,127.0,127.0,127.0,118.0,86.0,-84.0
121.0,131.0,124.0,129.0,127.0,127.0,108.0,119.0,27.0,-110.0,-72.0,127.0,127.0,127.0,118.0,86.0,-84.0
122.0,131.0,125.0,128.0,127.0,128.0,107.0,118.0,27.0,-110.0,-72.0,127.0,127.0,127.0,118.0,86.0,-84.0
122.0,130.0,126.0,128.0,127.0,128.0,107.0,117.0,27.0,-110.0,-72.0,127.0,127.0,127.0,118.0,86.0,-84.0
122.0,129.0,127.0,129.0,127.0,128.0,107.0,116.0,27.0,-110.0,-72.0,127.0,127.0,127.0,118.0,86.0,-84.0
122.0,128.0,128.0,129.0,127.0,128.0,107.0,116.0,27.0,-110.0,-72.0,127.0,127.0,127.0,118.0,86.0,-84.0
121.0,125.0,120.0,128.0,126.0,127.0,112.0,126.0,27.0,-110.0,-72.0,127.0,127.0,127.0,118.0,86.0,-84.0
121.0,127.0,120.0,128.0,126.0,127.0,113.0,125.0,27.0,-110.0,-72.0,127.0,127.0,127.0,118.0,86.0,-84.0
123.0,125.0,121.0,128.0,127.0,127.0,107.0,122.0,27.0,-109.0,-72.0,127.0,127.0,127.0,118.0,86.0,-84.0
123.0,126.0,120.0,128.0,127.0,128.0,106.0,122.0,27.0,-109.0,-72.0,127.0,127.0,127.0,118.0,86.0,-84.0
123.0,126.0,120.0,128.0,127.0,128.0,107.0,122.0,27.0,-109.0,-72.0,127.0,127.0,127.0,118.0,86.0,-84.0
123.0,126.0,120.0,128.0,127.0,128.0,107.0,122.0,27.0,-109.0,-72.0,127.0,127.0,127.0,118.0,86.0,-84.0
122.0,127.0,120.0,128.0,127.0,128.0,107.0,122.0,27.0,-109.0,-72.0,127.0,127.0,127.0,118.0,86.0,-84.0
122.0,127.0,120.0,128.0,127.0,128.0,107.0,122.0,27.0,-109.0,-72.0,127.0,127.0,127.0,118.0,86.0,-84.0
122.0,128.0,120.0,128.0,127.0,128.0,107.0,122.0,27.0,-109.0,-72.0,127.0,127.0,127.0,118.0,86.0,-84.0
122.0,127.0,122.0,128.0,126.0,127.0,112.0,122.0,27.0,-109.0,-72.0,127.0,127.0,127.0,118.0,86.0,-84.0
122.0,126.0,122.0,128.0,126.0,127.0,111.0,122.0,27.0,-109.0,-72.0,127.0,127.0,127.0,118.0,86.0,-84.0
122.0,125.0,121.0,128.0,126.0,127.0,111.0,122.0,27.0,-109.0,-72.0,127.0,127.0,127.0,118.0,86.0,-84.0
121.0,121.0,127.0,126.0,125.0,126.0,112.0,118.0,27.0,-109.0,-72.0,127.0,127.0,127.0,118.0,86.0,-84.0
121.0,121.0,126.0,126.0,125.0,126.0,112.0,118.0,27.0,-109.0,-72.0,127.0,127.0,127.0,118.0,86.0,-84.0
121.0,120.0,125.0,126.0,125.0,126.0,111.0,118.0,27.0,-109.0,-72.0,127.0,127.0,127.0,118.0,86.0,-84.0
122.0,121.0,125.0,126.0,125.0,125.0,111.0,119.0,27.0,-109.0,-72.0,127.0,127.0,127.0,118.0,86.0,-84.0
122.0,121.0,126.0,126.0,125.0,126.0,111.0,119.0,27.0,-109.0,-72.0,127.0,127.0,127.0,118.0,86.0,-84.0
121.0,123.0,127.0,125.0,126.0,127.0,107.0,120.0,27.0,-109.0,-72.0,127.0,127.0,127.0,118.0,86.0,-84.0
121.0,122.0,124.0,126.0,126.0,127.0,106.0,120.0,27.0,-109.0,-72.0,127.0,127.0,127.0,118.0,86.0,-84.0
121.0,122.0,123.0,126.0,126.0,127.0,106.0,119.0,27.0,-109.0,-72.0,127.0,127.0,127.0,118.0,86.0,-84.0
121.0,122.0,124.0,126.0,126.0,127.0,111.0,119.0,27.0,-109.0,-72.0,127.0,127.0,127.0,118.0,86.0,-84.0
121.0,122.0,126.0,126.0,126.0,126.0,112.0,118.0,27.0,-109.0,-72.0,127.0,127.0,127.0,118.0,86.0,-84.0
123.0,131.0,135.0,128.0,126.0,127.0,112.0,122.0,27.0,-108.0,-71.0,127.0,127.0,127.0,118.0,86.0,-84.0
123.0,131.0,136.0,129.0,126.0,127.0,112.0,122.0,27.0,-108.0,-71.0,127.0,127.0,127.0,118.0,86.0,-84.0
123.0,132.0,137.0,129.0,127.0,127.0,113.0,122.0,27.0,-108.0,-71.0,127.0,127.0,127.0,118.0,86.0,-84.0
123.0,132.0,137.0,129.0,127.0,127.0,112.0,123.0,27.0,-108.0,-71.0,127.0,127.0,127.0,118.0,86.0,-84.0
121.0,129.0,122.0,126.0,125.0,126.0,112.0,125.0,27.0,-108.0,-71.0,127.0,127.0,127.0,118.0,86.0,-84.0
121.0,129.0,124.0,126.0,125.0,127.0,112.0,124.0,27.0,-108.0,-71.0,127.0,127.0,127.0,118.0,86.0,-84.0
121.0,130.0,127.0,126.0,125.0,127.0,112.0,123.0,27.0,-108.0,-71.0,127.0,127.0,127.0,118.0,86.0,-84.0
121.0,130.0,129.0,126.0,125.0,126.0,112.0,122.0,27.0,-108.0,-71.0,127.0,127.0,127.0,118.0,86.0,-84.0
122.0,131.0,132.0,127.0,125.0,126.0,112.0,122.0,27.0,-108.0,-71.0,127.0,127.0,127.0,118.0,86.0,-84.0
122.0,131.0,134.0,128.0,125.0,126.0,112.0,122.0,27.0,-108.0,-71.0,127.0,127.0,127.0,118.0,86.0,-84.0
124.0,124.0,122.0,127.0,126.0,127.0,106.0,124.0,27.0,-108.0,-71.0,127.0,127.0,127.0,118.0,86.0,-84.0
124.0,124.0,121.0,126.0,126.0,127.0,110.0,125.0,27.0,-108.0,-71.0,127.0,127.0,127.0,118.0,86.0,-84.0
124.0,124.0,122.0,126.0,126.0,127.0,112.0,125.0,27.0,-108.0,-71.0,127.0,127.0,127.0,118.0,86.0,-84.0
123.0,130.0,132.0,128.0,127.0,127.0,106.0,114.0,27.0,-108.0,-71.0,127.0,127.0,127.0,118.0,86.0,-84.0
123.0,130.0,133.0,128.0,127.0,128.0,107.0,114.0,27.0,-108.0,-71.0,127.0,127.0,127.0,118.0,86.0,-84.0
123.0,130.0,132.0,128.0,127.0,128.0,107.0,114.0,27.0,-108.0,-71.0,127.0,127.0,127.0,118.0,86.0,-84.0
123.0,128.0,130.0,127.0,126.0,127.0,107.0,115.0,27.0,-108.0,-71.0,127.0,127.0,127.0,118.0,86.0,-84.0
123.0,127.0,127.0,127.0,126.0,127.0,107.0,117.0,27.0,-108.0,-71.0,127.0,127.0,127.0,118.0,86.0,-84.0
123.0,126.0,125.0,127.0,126.0,127.0,106.0,120.0,27.0,-108.0,-71.0,127.0,127.0,127.0,118.0,86.0,-84.0
124.0,125.0,124.0,127.0,126.0,127.0,106.0,122.0,27.0,-108.0,-71.0,127.0,127.0,127.0,118.0,86.0,-84.0
123.0,129.0,129.0,127.0,126.0,127.0,106.0,130.0,27.0,-108.0,-70.0,127.0,127.0,127.0,118.0,86.0,-84.0
123.0,128.0,129.0,127.0,126.0,127.0,106.0,130.0,27.0,-108.0,-70.0,127.0,127.0,127.0,118.0,86.0,-84.0
121.0,123.0,127.0,127.0,126.0,126.0,112.0,120.0,27.0,-108.0,-70.0,127.0,127.0,127.0,118.0,86.0,-84.0
122.0,123.0,127.0,127.0,126.0,126.0,112.0,120.0,27.0,-108.0,-70.0,127.0,127.0,127.0,118.0,86.0,-84.0
122.0,125.0,127.0,127.0,126.0,126.0,112.0,121.0,27.0,-108.0,-70.0,127.0,127.0,127.0,118.0,86.0,-84.0
122.0,126.0,128.0,127.0,126.0,127.0,113.0,123.0,27.0,-108.0,-70.0,127.0,127.0,127.0,118.0,86.0,-84.0
122.0,127.0,128.0,127.0,126.0,127.0,112.0,125.0,27.0,-108.0,-70.0,127.0,127.0,127.0,118.0,86.0,-84.0
123.0,129.0,129.0,127.0,126.0,127.0,111.0,127.0,27.0,-108.0,-70.0,127.0,127.0,127.0,118.0,86.0,-84.0
123.0,129.0,129.0,127.0,126.0,127.0,108.0,128.0,27.0,-108.0,-70.0,127.0,127.0,127.0,118.0,86.0,-84.0
123.0,129.0,128.0,127.0,126.0,127.0,107.0,129.0,27.0,-108.0,-70.0,127.0,127.0,127.0,118.0,86.0,-84.0
122.0,125.0,131.0,128.0,127.0,127.0,107.0,123.0,27.0,-107.0,-70.0,127.0,127.0,127.0,117.0,86.0,-84.0
124.0,130.0,128.0,128.0,128.0,128.0,108.0,123.0,27.0,-107.0,-70.0,127.0,127.0,127.0,117.0,86.0,-84.0
123.0,129.0,129.0,128.0,128.0,128.0,107.0,122.0,27.0,-107.0,-70.0,127.0,127.0,127.0,117.0,86.0,-84.0
123.0,129.0,131.0,127.0,128.0,127.0,107.0,122.0,27.0,-107.0,-70.0,127.0,127.0,127.0,117.0,86.0,-84.0
123.0,128.0,133.0,127.0,127.0,127.0,107.0,121.0,27.0,-107.0,-70.0,127.0,127.0,127.0,117.0,86.0,-84.0
123.0,128.0,135.0,128.0,127.0,127.0,107.0,121.0,27.0,-107.0,-70.0,127.0,127.0,127.0,117.0,86.0,-84.0
123.0,128.0,136.0,128.0,127.0,127.0,107.0,121.0,27.0,-107.0,-70.0,127.0,127.0,127.0,117.0,86.0,-84.0
123.0,128.0,137.0,128.0,127.0,127.0,109.0,122.0,27.0,-107.0,-70.0,127.0,127.0,127.0,117.0,86.0,-84.0
123.0,128.0,136.0,128.0,127.0,127.0,112.0,122.0,27.0,-107.0,-70.0,127.0,127.0,127.0,117.0,86.0,-84.0
123.0,127.0,135.0,128.0,127.0,127.0,108.0,123.0,27.0,-107.0,-70.0,127.0,127.0,127.0,117.0,86.0,-84.0
121.0,123.0,118.0,125.0,126.0,127.0,113.0,119.0,28.0,-107.0,-69.0,127.0,127.0,127.0,117.0,86.0,-84.0
121.0,123.0,120.0,125.0,126.0,127.0,112.0,119.0,28.0,-107.0,-69.0,127.0,127.0,127.0,117.0,86.0,-84.0
121.0,124.0,123.0,126.0,126.0,126.0,112.0,119.0,28.0,-107.0,-69.0,127.0,127.0,127.0,117.0,86.0,-84.0
121.0,125.0,126.0,126.0,126.0,127.0,112.0,119.0,28.0,-107.0,-69.0,127.0,127.0,127.0,117.0,86.0,-84.0
122.0,125.0,129.0,127.0,126.0,127.0,112.0,119.0,28.0,-107.0,-69.0,127.0,127.0,127.0,117.0,86.0,-84.0
122.0,126.0,131.0,128.0,126.0,127.0,108.0,121.0,28.0,-107.0,-69.0,127.0,127.0,127.0,117.0,86.0,-84.0
123.0,126.0,132.0,128.0,126.0,127.0,106.0,123.0,28.0,-107.0,-69.0,127.0,127.0,127.0,117.0,86.0,-84.0
123.0,126.0,133.0,129.0,127.0,127.0,109.0,124.0,28.0,-107.0,-69.0,127.0,127.0,127.0,117.0,86.0,-84.0
124.0,127.0,134.0,129.0,127.0,128.0,107.0,125.0,28.0,-107.0,-69.0,127.0,127.0,127.0,117.0,86.0,-84.0
124.0,126.0,134.0,130.0,127.0,128.0,107.0,126.0,28.0,-107.0,-69.0,127.0,127.0,127.0,117.0,86.0,-84.0
121.0,124.0,129.0,131.0,127.0,126.0,111.0,120.0,28.0,-108.0,-69.0,127.0,127.0,127.0,117.0,86.0,-84.0
121.0,124.0,129.0,131.0,127.0,126.0,111.0,120.0,28.0,-108.0,-69.0,127.0,127.0,127.0,117.0,86.0,-84.0
121.0,125.0,129.0,131.0,128.0,126.0,111.0,119.0,28.0,-108.0,-69.0,127.0,127.0,127.0,117.0,86.0,-84.0
121.0,126.0,129.0,131.0,128.0,126.0,111.0,119.0,28.0,-108.0,-69.0,127.0,127.0,127.0,117.0,86.0,-84.0
121.0,127.0,128.0,130.0,128.0,125.0,110.0,119.0,28.0,-108.0,-69.0,127.0,127.0,127.0,117.0,86.0,-84.0
121.0,127.0,128.0,130.0,128.0,125.0,111.0,120.0,28.0,-108.0,-69.0,127.0,127.0,127.0,117.0,86.0,-84.0
120.0,128.0,129.0,130.0,128.0,125.0,111.0,120.0,28.0,-108.0,-69.0,127.0,127.0,127.0,117.0,86.0,-84.0
120.0,128.0,131.0,130.0,127.0,125.0,111.0,121.0,28.0,-108.0,-69.0,127.0,127.0,127.0,117.0,86.0,-84.0
120.0,128.0,133.0,130.0,127.0,126.0,111.0,121.0,28.0,-108.0,-69.0,127.0,127.0,127.0,117.0,86.0,-84.0
121.0,125.0,130.0,131.0,127.0,126.0,112.0,121.0,28.0,-108.0,-69.0,127.0,127.0,127.0,117.0,86.0,-84.0
124.0,126.0,135.0,129.0,128.0,129.0,109.0,133.0,28.0,-107.0,-69.0,127.0,127.0,127.0,117.0,86.0,-84.0
124.0,127.0,133.0,129.0,128.0,129.0,109.0,133.0,28.0,-107.0,-69.0,127.0,127.0,127.0,117.0,86.0,-84.0
124.0,127.0,132.0,129.0,127.0,129.0,108.0,133.0,28.0,-107.0,-69.0,127.0,127.0,127.0,117.0,86.0,-84.0
124.0,127.0,132.0,129.0,127.0,128.0,108.0,132.0,28.0,-107.0,-69.0,127.0,127.0,127.0,117.0,86.0,-84.0
124.0,127.0,133.0,129.0,127.0,128.0,108.0,131.0,28.0,-107.0,-69.0,127.0,127.0,127.0,117.0,86.0,-84.0
124.0,128.0,134.0,128.0,127.0,128.0,108.0,130.0,28.0,-107.0,-69.0,127.0,127.0,127.0,117.0,86.0,-84.0
124.0,128.0,134.0,128.0,127.0,128.0,108.0,129.0,28.0,-107.0,-69.0,127.0,127.0,127.0,117.0,86.0,-84.0
124.0,128.0,135.0,128.0,127.0,128.0,107.0,128.0,28.0,-107.0,-69.0,127.0,127.0,127.0,117.0,86.0,-84.0
123.0,124.0,134.0,129.0,128.0,129.0,109.0,133.0,28.0,-107.0,-69.0,127.0,127.0,127.0,117.0,86.0,-84.0
124.0,125.0,135.0,129.0,128.0,129.0,108.0,133.0,28.0,-107.0,-69.0,127.0,127.0,127.0,117.0,86.0,-84.0
124.0,129.0,123.0,129.0,127.0,128.0,108.0,127.0,28.0,-108.0,-69.0,127.0,127.0,127.0,117.0,86.0,-84.0
124.0,130.0,121.0,129.0,127.0,128.0,108.0,128.0,28.0,-108.0,-69.0,127.0,127.0,127.0,117.0,86.0,-84.0
124.0,130.0,119.0,129.0,128.0,129.0,109.0,129.0,28.0,-108.0,-69.0,127.0,127.0,127.0,117.0,86.0,-84.0
125.0,129.0,116.0,128.0,127.0,129.0,109.0,130.0,28.0,-108.0,-69.0,127.0,127.0,127.0,117.0,86.0,-84.0
125.0,127.0,115.0,128.0,127.0,128.0,108.0,130.0,28.0,-108.0,-69.0,127.0,127.0,127.0,117.0,86.0,-84.0
124.0,127.0,115.0,127.0,127.0,128.0,108.0,129.0,28.0,-108.0,-69.0,127.0,127.0,127.0,117.0,86.0,-84.0
124.0,126.0,115.0,127.0,127.0,128.0,107.0,129.0,28.0,-108.0,-69.0,127.0,127.0,127.0,117.0,86.0,-84.0
123.0,124.0,126.0,130.0,127.0,128.0,107.0,123.0,28.0,-108.0,-69.0,127.0,127.0,127.0,117.0,86.0,-84.0
123.0,126.0,125.0,129.0,127.0,128.0,107.0,124.0,28.0,-108.0,-69.0,127.0,127.0,127.0,117.0,86.0,-84.0
123.0,128.0,124.0,129.0,127.0,128.0,107.0,125.0,28.0,-108.0,-69.0,127.0,127.0,127.0,117.0,86.0,-84.0
122.0,127.0,134.0,128.0,126.0,128.0,107.0,128.0,28.0,-107.0,-69.0,127.0,127.0,127.0,117.0,86.0,-84.0
122.0,128.0,134.0,128.0,126.0,128.0,107.0,128.0,28.0,-107.0,-69.0,127.0,127.0,127.0,117.0,86.0,-84.0
122.0,127.0,134.0,127.0,126.0,127.0,107.0,129.0,28.0,-107.0,-69.0,127.0,127.0,127.0,117.0,86.0,-84.0
122.0,125.0,134.0,127.0,126.0,127.0,106.0,130.0,28.0,-107.0,-69.0,127.0,127.0,127.0,117.0,86.0,-84.0
122.0,124.0,136.0,127.0,126.0,128.0,107.0,130.0,28.0,-107.0,-69.0,127.0,127.0,127.0,117.0,86.0,-84.0
122.0,124.0,137.0,127.0,127.0,128.0,107.0,130.0,28.0,-107.0,-69.0,127.0,127.0,127.0,117.0,86.0,-84.0
122.0,129.0,132.0,129.0,127.0,127.0,108.0,127.0,28.0,-107.0,-69.0,127.0,127.0,127.0,117.0,86.0,-84.0
122.0,128.0,132.0,129.0,127.0,127.0,107.0,127.0,28.0,-107.0,-69.0,127.0,127.0,127.0,117.0,86.0,-84.0
122.0,127.0,133.0,128.0,127.0,128.0,107.0,127.0,28.0,-107.0,-69.0,127.0,127.0,127.0,117.0,86.0,-84.0
122.0,127.0,134.0,128.0,127.0,128.0,107.0,127.0,28.0,-107.0,-69.0,127.0,127.0,127.0,117.0,86.0,-84.0
124.0,127.0,126.0,127.0,126.0,128.0,107.0,124.0,28.0,-107.0,-69.0,127.0,127.0,127.0,117.0,86.0,-84.0
125.0,128.0,128.0,128.0,127.0,128.0,107.0,124.0,28.0,-107.0,-69.0,127.0,127.0,127.0,117.0,86.0,-84.0
125.0,130.0,128.0,128.0,127.0,128.0,107.0,124.0,28.0,-107.0,-69.0,127.0,127.0,127.0,117.0,86.0,-84.0
125.0,131.0,129.0,128.0,127.0,128.0,108.0,124.0,28.0,-107.0,-69.0,127.0,127.0,127.0,117.0,86.0,-84.0
126.0,132.0,129.0,128.0,127.0,128.0,108.0,124.0,28.0,-107.0,-69.0,127.0,127.0,127.0,117.0,86.0,-84.0
124.0,123.0,119.0,126.0,126.0,127.0,106.0,127.0,28.0,-107.0,-69.0,127.0,127.0,127.0,117.0,86.0,-84.0
124.0,125.0,120.0,126.0,126.0,127.0,106.0,126.0,28.0,-107.0,-69.0,127.0,127.0,127.0,117.0,86.0,-84.0
124.0,126.0,122.0,127.0,126.0,128.0,107.0,125.0,28.0,-107.0,-69.0,127.0,127.0,127.0,117.0,86.0,-84.0
124.0,126.0,123.0,127.0,126.0,128.0,107.0,125.0,28.0,-107.0,-69.0,127.0,127.0,127.0,117.0,86.0,-84.0
124.0,126.0,124.0,127.0,126.0,128.0,107.0,124.0,28.0,-107.0,-69.0,127.0,127.0,127.0,117.0,86.0,-84.0
123.0,128.0,120.0,126.0,124.0,127.0,112.0,121.0,28.0,-107.0,-69.0,127.0,127.0,127.0,116.0,86.0,-84.0
123.0,129.0,120.0,126.0,124.0,127.0,112.0,121.0,28.0,-107.0,-69.0,127.0,127.0,127.0,116.0,86.0,-84.0
123.0,129.0,121.0,126.0,125.0,127.0,112.0,121.0,28.0,-107.0,-69.0,127.0,127.0,127.0,116.0,86.0,-84.0
123.0,130.0,122.0,126.0,125.0,127.0,112.0,122.0,28.0,-107.0,-69.0,127.0,127.0,127.0,116.0,86.0,-84.0
124.0,128.0,127.0,127.0,126.0,128.0,108.0,121.0,28.0,-107.0,-69.0,127.0,127.0,127.0,116.0,86.0,-84.0
124.0,128.0,128.0,127.0,126.0,128.0,107.0,121.0,28.0,-107.0,-69.0,127.0,127.0,127.0,116.0,86.0,-84.0
124.0,127.0,128.0,127.0,126.0,128.0,107.0,121.0,28.0,-107.0,-69.0,127.0,127.0,127.0,116.0,86.0,-84.0
124.0,127.0,127.0,127.0,126.0,128.0,107.0,121.0,28.0,-107.0,-69.0,127.0,127.0,127.0,116.0,86.0,-84.0
124.0,127.0,125.0,126.0,125.0,127.0,107.0,121.0,28.0,-107.0,-69.0,127.0,127.0,127.0,116.0,86.0,-84.0
123.0,127.0,122.0,126.0,125.0,127.0,109.0,121.0,28.0,-107.0,-69.0,127.0,127.0,127.0,116.0,86.0,-84.0
124.0,125.0,126.0,129.0,128.0,129.0,108.0,130.0,28.0,-107.0,-69.0,127.0,127.0,127.0,116.0,86.0,-84.0
124.0,125.0,125.0,129.0,128.0,129.0,108.0,129.0,28.0,-107.0,-69.0,127.0,127.0,127.0,116.0,86.0,-84.0
124.0,124.0,125.0,129.0,128.0,128.0,108.0,129.0,28.0,-107.0,-69.0,127.0,127.0,127.0,116.0,86.0,-84.0
123.0,124.0,120.0,128.0,127.0,128.0,107.0,129.0,28.0,-107.0,-69.0,127.0,127.0,127.0,116.0,86.0,-84.0
123.0,124.0,121.0,128.0,127.0,128.0,107.0,130.0,28.0,-107.0,-69.0,127.0,127.0,127.0,116.0,86.0,-84.0
123.0,125.0,123.0,129.0,127.0,128.0,108.0,130.0,28.0,-107.0,-69.0,127.0,127.0,127.0,116.0,86.0,-84.0
124.0,125.0,125.0,129.0,128.0,128.0,108.0,131.0,28.0,-107.0,-69.0,127.0,127.0,127.0,116.0,86.0,-84.0
124.0,126.0,127.0,129.0,128.0,129.0,108.0,130.0,28.0,-107.0,-69.0,127.0,127.0,127.0,116.0,86.0,-84.0
124.0,126.0,128.0,129.0,128.0,129.0,108.0,130.0,28.0,-107.0,-69.0,127.0,127.0,127.0,116.0,86.0,-84.0
124.0,125.0,127.0,129.0,128.0,129.0,108.0,130.0,28.0,-107.0,-69.0,127.0,127.0,127.0,116.0,86.0,-84.0
124.0,128.0,130.0,129.0,128.0,129.0,109.0,129.0,27.0,-107.0,-69.0,127.0,127.0,127.0,116.0,86.0,-84.0
124.0,128.0,132.0,129.0,128.0,129.0,108.0,130.0,27.0,-107.0,-69.0,127.0,127.0,127.0,116.0,86.0,-84.0
122.0,124.0,126.0,126.0,126.0,128.0,107.0,122.0,27.0,-107.0,-69.0,127.0,127.0,127.0,116.0,86.0,-84.0
123.0,124.0,124.0,126.0,126.0,128.0,107.0,122.0,27.0,-107.0,-69.0,127.0,127.0,127.0,116.0,86.0,-84.0
123.0,125.0,122.0,125.0,126.0,128.0,107.0,121.0,27.0,-107.0,-69.0,127.0,127.0,127.0,116.0,86.0,-84.0
123.0,126.0,123.0,125.0,127.0,128.0,108.0,121.0,27.0,-107.0,-69.0,127.0,127.0,127.0,116.0,86.0,-84.0
123.0,127.0,124.0,126.0,127.0,129.0,108.0,121.0,27.0,-107.0,-69.0,127.0,127.0,127.0,116.0,86.0,-84.0
123.0,127.0,125.0,126.0,127.0,129.0,108.0,123.0,27.0,-107.0,-69.0,127.0,127.0,127.0,116.0,86.0,-84.0
124.0,127.0,128.0,127.0,127.0,129.0,109.0,125.0,27.0,-107.0,-69.0,127.0,127.0,127.0,116.0,86.0,-84.0
124.0,128.0,129.0,128.0,128.0,129.0,109.0,127.0,27.0,-107.0,-69.0,127.0,127.0,127.0,116.0,86.0,-84.0
122.0,126.0,130.0,128.0,126.0,126.0,112.0,127.0,27.0,-107.0,-69.0,127.0,127.0,127.0,116.0,86.0,-84.0
122.0,126.0,127.0,129.0,127.0,128.0,107.0,127.0,27.0,-107.0,-69.0,127.0,127.0,127.0,116.0,86.0,-84.0
122.0,126.0,128.0,129.0,127.0,128.0,107.0,126.0,27.0,-107.0,-69.0,127.0,127.0,127.0,116.0,86.0,-84.0
122.0,127.0,128.0,129.0,127.0,128.0,107.0,126.0,27.0,-107.0,-69.0,127.0,127.0,127.0,116.0,86.0,-84.0
122.0,126.0,127.0,129.0,127.0,127.0,107.0,126.0,27.0,-107.0,-69.0,127.0,127.0,127.0,116.0,86.0,-84.0
122.0,126.0,125.0,129.0,127.0,127.0,106.0,126.0,27.0,-107.0,-69.0,127.0,127.0,127.0,116.0,86.0,-84.0
122.0,125.0,125.0,128.0,126.0,127.0,107.0,126.0,27.0,-107.0,-69.0,127.0,127.0,127.0,116.0,86.0,-84.0
122.0,125.0,126.0,128.0,126.0,127.0,112.0,126.0,27.0,-107.0,-69.0,127.0,127.0,127.0,116.0,86.0,-84.0
122.0,126.0,128.0,128.0,126.0,127.0,113.0,126.0,27.0,-107.0,-69.0,127.0,127.0,127.0,116.0,86.0,-84.0
122.0,126.0,130.0,128.0,126.0,127.0,112.0,127.0,27.0,-107.0,-69.0,127.0,127.0,127.0,116.0,86.0,-84.0
123.0,124.0,123.0,126.0,127.0,128.0,107.0,127.0,27.0,-108.0,-69.0,127.0,127.0,127.0,116.0,86.0,-84.0
122.0,124.0,123.0,127.0,127.0,127.0,106.0,126.0,27.0,-108.0,-69.0,127.0,127.0,127.0,116.0,86.0,-84.0
122.0,124.0,125.0,127.0,127.0,127.0,106.0,126.0,27.0,-108.0,-69.0,127.0,127.0,127.0,116.0,86.0,-84.0
122.0,125.0,128.0,127.0,127.0,127.0,106.0,125.0,27.0,-108.0,-69.0,127.0,127.0,127.0,116.0,86.0,-84.0
122.0,125.0,131.0,127.0,127.0,127.0,106.0,125.0,27.0,-108.0,-69.0,127.0,127.0,127.0,116.0,86.0,-84.0
121.0,125.0,133.0,127.0,126.0,127.0,106.0,124.0,27.0,-108.0,-69.0,127.0,127.0,127.0,116.0,86.0,-84.0
121.0,124.0,135.0,127.0,126.0,127.0,110.0,124.0,27.0,-108.0,-69.0,127.0,127.0,127.0,116.0,86.0,-84.0
121.0,124.0,136.0,127.0,126.0,127.0,112.0,123.0,27.0,-108.0,-69.0,127.0,127.0,127.0,116.0,86.0,-84.0
121.0,123.0,136.0,127.0,126.0,127.0,113.0,123.0,27.0,-108.0,-69.0,127.0,127.0,127.0,116.0,86.0,-84.0
121.0,123.0,136.0,127.0,126.0,127.0,112.0,124.0,27.0,-108.0,-69.0,127.0,127.0,127.0,116.0,86.0,-84.0
122.0,125.0,130.0,129.0,128.0,129.0,109.0,120.0,28.0,-108.0,-69.0,127.0,127.0,127.0,116.0,86.0,-84.0
122.0,125.0,130.0,129.0,128.0,129.0,109.0,120.0,28.0,-108.0,-69.0,127.0,127.0,127.0,116.0,86.0,-84.0
123.0,127.0,130.0,129.0,128.0,129.0,110.0,121.0,28.0,-108.0,-69.0,127.0,127.0,127.0,116.0,86.0,-84.0
123.0,127.0,130.0,129.0,128.0,129.0,109.0,122.0,28.0,-108.0,-69.0,127.0,127.0,127.0,116.0,86.0,-84.0
123.0,128.0,130.0,129.0,128.0,129.0,109.0,124.0,28.0,-108.0,-69.0,127.0,127.0,127.0,116.0,86.0,-84.0
123.0,128.0,129.0,129.0,127.0,128.0,108.0,124.0,28.0,-108.0,-69.0,127.0,127.0,127.0,116.0,86.0,-84.0
123.0,127.0,128.0,128.0,127.0,128.0,107.0,125.0,28.0,-108.0,-69.0,127.0,127.0,127.0,116.0,86.0,-84.0
123.0,127.0,127.0,128.0,127.0,127.0,107.0,126.0,28.0,-108.0,-69.0,127.0,127.0,127.0,116.0,86.0,-84.0
124.0,126.0,127.0,128.0,127.0,127.0,106.0,127.0,28.0,-108.0,-69.0,127.0,127.0,127.0,116.0,86.0,-84.0
122.0,126.0,132.0,129.0,128.0,129.0,109.0,120.0,28.0,-108.0,-69.0,127.0,127.0,127.0,116.0,86.0,-84.0
122.0,127.0,129.0,129.0,127.0,128.0,108.0,128.0,28.0,-108.0,-69.0,127.0,127.0,127.0,116.0,86.0,-84.0
123.0,128.0,131.0,129.0,127.0,129.0,109.0,127.0,28.0,-108.0,-69.0,127.0,127.0,127.0,116.0,86.0,-84.0
123.0,128.0,133.0,129.0,127.0,129.0,109.0,127.0,28.0,-108.0,-69.0,127.0,127.0,127.0,116.0,86.0,-84.0
123.0,128.0,133.0,128.0,127.0,129.0,109.0,126.0,28.0,-108.0,-69.0,127.0,127.0,127.0,116.0,86.0,-84.0
123.0,128.0,132.0,128.0,127.0,128.0,108.0,126.0,28.0,-108.0,-69.0,127.0,127.0,127.0,116.0,86.0,-84.0
123.0,128.0,130.0,128.0,126.0,128.0,108.0,125.0,28.0,-108.0,-69.0,127.0,127.0,127.0,116.0,86.0,-84.0
123.0,127.0,128.0,127.0,126.0,128.0,108.0,125.0,28.0,-108.0,-69.0,127.0,127.0,127.0,116.0,86.0,-84.0
123.0,127.0,126.0,127.0,126.0,128.0,107.0,125.0,28.0,-108.0,-69.0,127.0,127.0,127.0,116.0,86.0,-84.0
122.0,127.0,129.0,129.0,127.0,128.0,108.0,130.0,28.0,-108.0,-69.0,127.0,127.0,127.0,116.0,86.0,-84.0
122.0,127.0,129.0,129.0,127.0,128.0,108.0,129.0,28.0,-108.0,-69.0,127.0,127.0,127.0,116.0,86.0,-84.0
121.0,120.0,127.0,127.0,126.0,128.0,107.0,124.0,28.0,-108.0,-69.0,127.0,127.0,127.0,116.0,86.0,-84.0
121.0,121.0,129.0,127.0,126.0,128.0,107.0,123.0,28.0,-108.0,-69.0,127.0,127.0,127.0,116.0,86.0,-84.0
121.0,123.0,130.0,128.0,126.0,128.0,107.0,123.0,28.0,-108.0,-69.0,127.0,127.0,127.0,116.0,86.0,-84.0
122.0,125.0,130.0,128.0,126.0,128.0,107.0,123.0,28.0,-108.0,-69.0,127.0,127.0,127.0,116.0,86.0,-84.0
122.0,127.0,130.0,128.0,127.0,128.0,108.0,123.0,28.0,-108.0,-69.0,127.0,127.0,127.0,116.0,86.0,-84.0
123.0,129.0,131.0,128.0,127.0,128.0,108.0,123.0,28.0,-108.0,-69.0,127.0,127.0,127.0,116.0,86.0,-84.0
123.0,131.0,130.0,128.0,127.0,128.0,107.0,123.0,28.0,-108.0,-69.0,127.0,127.0,127.0,116.0,86.0,-84.0
122.0,122.0,124.0,127.0,127.0,127.0,106.0,124.0,28.0,-108.0,-69.0,127.0,127.0,127.0,116.0,86.0,-84.0
121.0,121.0,124.0,127.0,126.0,127.0,107.0,124.0,28.0,-108.0,-69.0,127.0,127.0,127.0,116.0,86.0,-84.0
121.0,120.0,125.0,126.0,126.0,127.0,107.0,124.0,28.0,-108.0,-69.0,127.0,127.0,127.0,116.0,86.0,-84.0
123.0,115.0,129.0,127.0,127.0,128.0,108.0,124.0,28.0,-108.0,-69.0,127.0,127.0,127.0,116.0,86.0,-84.0
123.0,116.0,128.0,127.0,127.0,128.0,108.0,125.0,28.0,-108.0,-69.0,127.0,127.0,127.0,116.0,86.0,-84.0
123.0,118.0,128.0,126.0,127.0,128.0,108.0,124.0,28.0,-108.0,-69.0,127.0,127.0,127.0,116.0,86.0,-84.0
123.0,121.0,129.0,127.0,127.0,129.0,108.0,125.0,28.0,-108.0,-69.0,127.0,127.0,127.0,116.0,86.0,-84.0
123.0,124.0,129.0,127.0,127.0,128.0,108.0,125.0,28.0,-108.0,-69.0,127.0,127.0,127.0,116.0,86.0,-84.0
123.0,127.0,129.0,127.0,127.0,128.0,108.0,125.0,28.0,-108.0,-69.0,127.0,127.0,127.0,116.0,86.0,-84.0
123.0,120.0,132.0,128.0,127.0,128.0,108.0,124.0,28.0,-108.0,-69.0,127.0,127.0,127.0,116.0,86.0,-84.0
123.0,118.0,132.0,127.0,127.0,129.0,108.0,125.0,28.0,-108.0,-69.0,127.0,127.0,127.0,116.0,86.0,-84.0
123.0,117.0,132.0,127.0,127.0,129.0,108.0,125.0,28.0,-108.0,-69.0,127.0,127.0,127.0,116.0,86.0,-84.0
123.0,116.0,130.0,127.0,127.0,128.0,108.0,125.0,28.0,-108.0,-69.0,127.0,127.0,127.0,116.0,86.0,-84.0
123.0,127.0,129.0,127.0,126.0,127.0,107.0,126.0,28.0,-108.0,-69.0,127.0,127.0,127.0,116.0,86.0,-84.0
122.0,129.0,130.0,127.0,126.0,127.0,107.0,126.0,28.0,-108.0,-69.0,127.0,127.0,127.0,116.0,86.0,-84.0
122.0,130.0,131.0,128.0,126.0,127.0,106.0,127.0,28.0,-108.0,-69.0,127.0,127.0,127.0,116.0,86.0,-84.0
123.0,131.0,132.0,128.0,127.0,127.0,106.0,128.0,28.0,-108.0,-69.0,127.0,127.0,127.0,116.0,86.0,-84.0
122.0,131.0,131.0,128.0,127.0,127.0,107.0,129.0,28.0,-108.0,-69.0,127.0,127.0,127.0,116.0,86.0,-84.0
122.0,116.0,123.0,123.0,124.0,127.0,110.0,124.0,28.0,-108.0,-69.0,127.0,127.0,127.0,116.0,86.0,-84.0
122.0,117.0,123.0,123.0,124.0,127.0,107.0,124.0,28.0,-108.0,-69.0,127.0,127.0,127.0,116.0,86.0,-84.0
122.0,119.0,123.0,124.0,125.0,127.0,107.0,124.0,28.0,-108.0,-69.0,127.0,127.0,127.0,116.0,86.0,-84.0
122.0,121.0,125.0,125.0,125.0,127.0,107.0,124.0,28.0,-108.0,-69.0,127.0,127.0,127.0,116.0,86.0,-84.0
123.0,125.0,127.0,126.0,125.0,127.0,107.0,125.0,28.0,-108.0,-69.0,127.0,127.0,127.0,116.0,86.0,-84.0
123.0,127.0,129.0,129.0,127.0,128.0,107.0,125.0,28.0,-108.0,-69.0,127.0,127.0,127.0,116.0,86.0,-84.0
124.0,129.0,131.0,129.0,127.0,129.0,108.0,125.0,28.0,-108.0,-69.0,127.0,127.0,127.0,116.0,86.0,-84.0
124.0,130.0,130.0,129.0,127.0,128.0,108.0,125.0,28.0,-108.0,-69.0,127.0,127.0,127.0,116.0,86.0,-84.0
122.0,124.0,123.0,129.0,127.0,128.0,107.0,125.0,28.0,-108.0,-69.0,127.0,127.0,127.0,116.0,86.0,-84.0
122.0,124.0,122.0,129.0,127.0,128.0,106.0,125.0,28.0,-108.0,-69.0,127.0,127.0,127.0,116.0,86.0,-84.0
122.0,124.0,122.0,129.0,127.0,127.0,107.0,125.0,28.0,-108.0,-69.0,127.0,127.0,127.0,116.0,86.0,-84.0
122.0,124.0,122.0,129.0,127.0,127.0,107.0,124.0,28.0,-108.0,-69.0,127.0,127.0,127.0,116.0,86.0,-84.0
122.0,125.0,123.0,128.0,127.0,128.0,107.0,124.0,28.0,-108.0,-69.0,127.0,127.0,127.0,116.0,86.0,-84.0
123.0,125.0,124.0,128.0,126.0,128.0,107.0,124.0,28.0,-108.0,-69.0,127.0,127.0,127.0,116.0,86.0,-84.0
123.0,126.0,126.0,129.0,126.0,128.0,107.0,125.0,28.0,-108.0,-69.0,127.0,127.0,127.0,116.0,86.0,-84.0
122.0,127.0,127.0,128.0,126.0,127.0,108.0,124.0,28.0,-108.0,-69.0,127.0,127.0,127.0,116.0,86.0,-84.0
122.0,128.0,129.0,128.0,126.0,127.0,112.0,125.0,28.0,-108.0,-69.0,127.0,127.0,127.0,116.0,86.0,-84.0
122.0,124.0,125.0,126.0,126.0,127.0,106.0,124.0,28.0,-108.0,-69.0,127.0,127.0,127.0,116.0,86.0,-84.0
122.0,124.0,123.0,126.0,126.0,127.0,107.0,123.0,28.0,-108.0,-69.0,127.0,127.0,127.0,116.0,86.0,-84.0
122.0,124.0,122.0,126.0,126.0,127.0,107.0,123.0,28.0,-108.0,-69.0,127.0,127.0,127.0,116.0,86.0,-84.0
121.0,124.0,120.0,127.0,126.0,127.0,106.0,122.0,28.0,-108.0,-69.0,127.0,127.0,127.0,116.0,86.0,-84.0
121.0,124.0,119.0,127.0,127.0,127.0,106.0,121.0,28.0,-108.0,-69.0,127.0,127.0,127.0,116.0,86.0,-84.0
121.0,124.0,119.0,127.0,127.0,127.0,106.0,121.0,28.0,-108.0,-69.0,127.0,127.0,127.0,116.0,86.0,-84.0
122.0,125.0,120.0,128.0,127.0,127.0,106.0,121.0,28.0,-108.0,-69.0,127.0,127.0,127.0,116.0,86.0,-84.0
122.0,126.0,124.0,128.0,127.0,127.0,106.0,123.0,28.0,-108.0,-69.0,127.0,127.0,127.0,116.0,86.0,-84.0
123.0,127.0,127.0,130.0,128.0,129.0,109.0,130.0,28.0,-108.0,-69.0,127.0,127.0,127.0,116.0,86.0,-84.0
122.0,127.0,124.0,127.0,127.0,128.0,108.0,126.0,28.0,-108.0,-69.0,127.0,127.0,127.0,116.0,86.0,-84.0
122.0,127.0,123.0,127.0,127.0,128.0,108.0,126.0,28.0,-108.0,-69.0,127.0,127.0,127.0,116.0,86.0,-84.0
122.0,127.0,122.0,128.0,128.0,129.0,109.0,126.0,28.0,-108.0,-69.0,127.0,127.0,127.0,116.0,86.0,-84.0
122.0,127.0,122.0,128.0,128.0,129.0,109.0,126.0,28.0,-108.0,-69.0,127.0,127.0,127.0,116.0,86.0,-84.0
122.0,127.0,123.0,128.0,128.0,129.0,108.0,127.0,28.0,-108.0,-69.0,127.0,127.0,127.0,116.0,86.0,-84.0
123.0,127.0,123.0,129.0,128.0,128.0,108.0,128.0,28.0,-108.0,-69.0,127.0,127.0,127.0,116.0,86.0,-84.0
123.0,127.0,123.0,129.0,128.0,128.0,108.0,128.0,28.0,-108.0,-69.0,127.0,127.0,127.0,116.0,86.0,-84.0
123.0,127.0,122.0,129.0,127.0,128.0,108.0,129.0,28.0,-108.0,-69.0,127.0,127.0,127.0,116.0,86.0,-84.0
123.0,127.0,124.0,129.0,128.0,129.0,108.0,129.0,28.0,-108.0,-69.0,127.0,127.0,127.0,116.0,86.0,-84.0
122.0,124.0,128.0,129.0,127.0,128.0,107.0,125.0,28.0,-108.0,-70.0,127.0,127.0,127.0,116.0,86.0,-84.0
123.0,124.0,127.0,129.0,127.0,128.0,107.0,126.0,28.0,-108.0,-70.0,127.0,127.0,127.0,116.0,86.0,-84.0
123.0,124.0,126.0,128.0,127.0,128.0,107.0,126.0,28.0,-108.0,-70.0,127.0,127.0,127.0,116.0,86.0,-84.0
123.0,125.0,126.0,128.0,127.0,128.0,108.0,127.0,28.0,-108.0,-70.0,127.0,127.0,127.0,116.0,86.0,-84.0
123.0,125.0,126.0,128.0,126.0,128.0,107.0,127.0,28.0,-108.0,-70.0,127.0,127.0,127.0,116.0,86.0,-84.0
123.0,124.0,126.0,127.0,126.0,128.0,107.0,127.0,28.0,-108.0,-70.0,127.0,127.0,127.0,116.0,86.0,-84.0
123.0,124.0,126.0,127.0,126.0,128.0,107.0,127.0,28.0,-108.0,-70.0,127.0,127.0,127.0,116.0,86.0,-84.0
123.0,123.0,127.0,126.0,126.0,128.0,107.0,127.0,28.0,-108.0,-70.0,127.0,127.0,127.0,116.0,86.0,-84.0
123.0,123.0,131.0,126.0,125.0,128.0,107.0,127.0,28.0,-108.0,-70.0,127.0,127.0,127.0,116.0,86.0,-84.0
123.0,123.0,134.0,127.0,126.0,128.0,107.0,126.0,28.0,-108.0,-70.0,127.0,127.0,127.0,116.0,86.0,-84.0
123.0,125.0,122.0,126.0,126.0,128.0,107.0,126.0,28.0,-107.0,-70.0,127.0,127.0,127.0,116.0,86.0,-84.0
123.0,125.0,122.0,126.0,126.0,129.0,108.0,126.0,28.0,-107.0,-70.0,127.0,127.0,127.0,116.0,86.0,-84.0
124.0,125.0,123.0,126.0,126.0,128.0,108.0,125.0,28.0,-107.0,-70.0,127.0,127.0,127.0,116.0,86.0,-84.0
124.0,125.0,123.0,126.0,126.0,128.0,108.0,125.0,28.0,-107.0,-70.0,127.0,127.0,127.0,116.0,86.0,-84.0
124.0,125.0,124.0,126.0,126.0,128.0,108.0,124.0,28.0,-107.0,-70.0,127.0,127.0,127.0,116.0,86.0,-84.0
124.0,125.0,125.0,126.0,126.0,128.0,107.0,123.0,28.0,-107.0,-70.0,127.0,127.0,127.0,116.0,86.0,-84.0
124.0,125.0,126.0,126.0,126.0,128.0,107.0,123.0,28.0,-107.0,-70.0,127.0,127.0,127.0,116.0,86.0,-84.0
124.0,126.0,126.0,126.0,126.0,128.0,107.0,124.0,28.0,-107.0,-70.0,127.0,127.0,127.0,116.0,86.0,-84.0
124.0,126.0,126.0,126.0,127.0,128.0,107.0,126.0,28.0,-107.0,-70.0,127.0,127.0,127.0,116.0,86.0,-84.0
122.0,125.0,122.0,126.0,127.0,128.0,107.0,126.0,28.0,-107.0,-70.0,127.0,127.0,127.0,116.0,86.0,-84.0
123.0,127.0,130.0,126.0,126.0,128.0,107.0,127.0,28.0,-107.0,-70.0,127.0,127.0,127.0,116.0,86.0,-84.0
123.0,128.0,129.0,126.0,126.0,128.0,107.0,128.0,28.0,-107.0,-70.0,127.0,127.0,127.0,116.0,86.0,-84.0
124.0,128.0,129.0,127.0,126.0,128.0,107.0,128.0,28.0,-107.0,-70.0,127.0,127.0,127.0,116.0,86.0,-84.0
124.0,128.0,128.0,127.0,126.0,128.0,107.0,128.0,28.0,-107.0,-70.0,127.0,127.0,127.0,116.0,86.0,-84.0
124.0,129.0,129.0,126.0,126.0,128.0,107.0,127.0,28.0,-107.0,-70.0,127.0,127.0,127.0,116.0,86.0,-84.0
124.0,130.0,131.0,126.0,126.0,128.0,107.0,127.0,28.0,-107.0,-70.0,127.0,127.0,127.0,116.0,86.0,-84.0
124.0,130.0,132.0,126.0,126.0,129.0,108.0,126.0,28.0,-107.0,-70.0,127.0,127.0,127.0,116.0,86.0,-84.0
124.0,130.0,132.0,126.0,127.0,129.0,109.0,126.0,28.0,-107.0,-70.0,127.0,127.0,127.0,116.0,86.0,-84.0
123.0,126.0,128.0,125.0,125.0,127.0,106.0,127.0,28.0,-107.0,-70.0,127.0,127.0,127.0,116.0,86.0,-84.0
123.0,126.0,129.0,125.0,125.0,127.0,106.0,128.0,28.0,-107.0,-70.0,127.0,127.0,127.0,116.0,86.0,-84.0
124.0,126.0,125.0,127.0,126.0,129.0,110.0,128.0,28.0,-107.0,-70.0,127.0,127.0,127.0,116.0,86.0,-84.0
124.0,126.0,125.0,127.0,126.0,129.0,110.0,128.0,28.0,-107.0,-70.0,127.0,127.0,127.0,116.0,86.0,-84.0
124.0,126.0,126.0,128.0,126.0,129.0,109.0,128.0,28.0,-107.0,-70.0,127.0,127.0,127.0,116.0,86.0,-84.0
124.0,126.0,127.0,128.0,127.0,129.0,109.0,128.0,28.0,-107.0,-70.0,127.0,127.0,127.0,116.0,86.0,-84.0
124.0,126.0,127.0,128.0,127.0,129.0,108.0,128.0,28.0,-107.0,-70.0,127.0,127.0,127.0,116.0,86.0,-84.0
124.0,125.0,127.0,128.0,127.0,128.0,108.0,128.0,28.0,-107.0,-70.0,127.0,127.0,127.0,116.0,86.0,-84.0
124.0,125.0,127.0,128.0,127.0,128.0,108.0,128.0,28.0,-107.0,-70.0,127.0,127.0,127.0,116.0,86.0,-84.0
124.0,125.0,128.0,127.0,126.0,129.0,109.0,129.0,28.0,-107.0,-70.0,127.0,127.0,127.0,116.0,86.0,-84.0
124.0,125.0,127.0,127.0,126.0,129.0,109.0,129.0,28.0,-107.0,-70.0,127.0,127.0,127.0,116.0,86.0,-84.0
124.0,126.0,126.0,127.0,126.0,130.0,110.0,128.0,28.0,-107.0,-70.0,127.0,127.0,127.0,116.0,86.0,-84.0
124.0,126.0,129.0,128.0,126.0,128.0,107.0,123.0,28.0,-107.0,-69.0,127.0,127.0,127.0,116.0,86.0,-84.0
123.0,126.0,129.0,128.0,126.0,128.0,107.0,123.0,28.0,-107.0,-69.0,127.0,127.0,127.0,116.0,86.0,-84.0
123.0,125.0,129.0,128.0,126.0,128.0,107.0,123.0,28.0,-107.0,-69.0,127.0,127.0,127.0,116.0,86.0,-84.0
123.0,124.0,128.0,127.0,126.0,128.0,106.0,123.0,28.0,-107.0,-69.0,127.0,127.0,127.0,116.0,86.0,-84.0
123.0,123.0,127.0,127.0,126.0,127.0,106.0,123.0,28.0,-107.0,-69.0,127.0,127.0,127.0,116.0,86.0,-84.0
123.0,123.0,127.0,127.0,126.0,128.0,106.0,123.0,28.0,-107.0,-69.0,127.0,127.0,127.0,116.0,86.0,-84.0
123.0,125.0,130.0,128.0,127.0,127.0,107.0,124.0,28.0,-107.0,-69.0,127.0,127.0,127.0,116.0,86.0,-84.0
123.0,126.0,129.0,128.0,127.0,127.0,106.0,124.0,28.0,-107.0,-69.0,127.0,127.0,127.0,116.0,86.0,-84.0
123.0,127.0,129.0,128.0,126.0,128.0,107.0,124.0,28.0,-107.0,-69.0,127.0,127.0,127.0,116.0,86.0,-84.0
124.0,126.0,129.0,128.0,126.0,128.0,107.0,123.0,28.0,-107.0,-69.0,127.0,127.0,127.0,116.0,86.0,-84.0
124.0,125.0,126.0,129.0,127.0,128.0,108.0,126.0,28.0,-107.0,-69.0,127.0,127.0,127.0,116.0,86.0,-84.0
124.0,125.0,125.0,129.0,127.0,128.0,107.0,126.0,28.0,-107.0,-69.0,127.0,127.0,127.0,116.0,86.0,-84.0
124.0,125.0,126.0,129.0,127.0,128.0,108.0,127.0,28.0,-107.0,-69.0,127.0,127.0,127.0,116.0,86.0,-84.0
124.0,125.0,126.0,129.0,127.0,128.0,107.0,127.0,28.0,-107.0,-69.0,127.0,127.0,127.0,116.0,86.0,-84.0
124.0,126.0,126.0,128.0,127.0,128.0,107.0,128.0,28.0,-107.0,-69.0,127.0,127.0,127.0,116.0,86.0,-84.0
123.0,125.0,129.0,130.0,127.0,128.0,107.0,126.0,28.0,-107.0,-69.0,127.0,127.0,127.0,116.0,86.0,-84.0
123.0,124.0,128.0,130.0,127.0,128.0,108.0,126.0,28.0,-107.0,-69.0,127.0,127.0,127.0,116.0,86.0,-84.0
123.0,124.0,127.0,130.0,127.0,128.0,107.0,126.0,28.0,-107.0,-69.0,127.0,127.0,127.0,116.0,86.0,-84.0
123.0,124.0,126.0,130.0,127.0,128.0,107.0,126.0,28.0,-107.0,-69.0,127.0,127.0,127.0,116.0,86.0,-84.0
123.0,124.0,126.0,130.0,127.0,128.0,107.0,126.0,28.0,-107.0,-69.0,127.0,127.0,127.0,116.0,86.0,-84.0
123.0,124.0,125.0,125.0,125.0,128.0,108.0,126.0,28.0,-107.0,-69.0,127.0,127.0,127.0,116.0,86.0,-84.0
123.0,124.0,126.0,125.0,125.0,128.0,108.0,126.0,28.0,-107.0,-69.0,127.0,127.0,127.0,116.0,86.0,-84.0
123.0,125.0,127.0,126.0,125.0,128.0,108.0,127.0,28.0,-107.0,-69.0,127.0,127.0,127.0,116.0,86.0,-84.0
124.0,127.0,128.0,126.0,126.0,128.0,108.0,128.0,28.0,-107.0,-69.0,127.0,127.0,127.0,116.0,86.0,-84.0
122.0,126.0,127.0,127.0,126.0,128.0,107.0,122.0,28.0,-107.0,-69.0,127.0,127.0,127.0,116.0,86.0,-84.0
122.0,125.0,125.0,126.0,126.0,128.0,107.0,122.0,28.0,-107.0,-69.0,127.0,127.0,127.0,116.0,86.0,-84.0
122.0,124.0,124.0,126.0,126.0,128.0,107.0,123.0,28.0,-107.0,-69.0,127.0,127.0,127.0,116.0,86.0,-84.0
122.0,123.0,124.0,125.0,125.0,128.0,108.0,123.0,28.0,-107.0,-69.0,127.0,127.0,127.0,116.0,86.0,-84.0
123.0,123.0,124.0,125.0,125.0,128.0,108.0,124.0,28.0,-107.0,-69.0,127.0,127.0,127.0,116.0,86.0,-84.0
123.0,123.0,124.0,125.0,125.0,128.0,108.0,125.0,28.0,-107.0,-69.0,127.0,127.0,127.0,116.0,86.0,-84.0
124.0,124.0,126.0,127.0,127.0,129.0,109.0,127.0,28.0,-107.0,-69.0,127.0,127.0,127.0,116.0,86.0,-84.0
124.0,124.0,126.0,127.0,127.0,129.0,109.0,127.0,28.0,-107.0,-69.0,127.0,127.0,127.0,116.0,86.0,-84.0
124.0,125.0,126.0,127.0,127.0,129.0,108.0,127.0,28.0,-107.0,-69.0,127.0,127.0,127.0,116.0,86.0,-84.0
124.0,124.0,126.0,127.0,127.0,128.0,108.0,127.0,28.0,-107.0,-69.0,127.0,127.0,127.0,116.0,86.0,-84.0
124.0,123.0,126.0,127.0,127.0,128.0,108.0,127.0,28.0,-107.0,-69.0,127.0,127.0,127.0,116.0,86.0,-84.0
124.0,123.0,126.0,127.0,127.0,128.0,108.0,127.0,28.0,-107.0,-69.0,127.0,127.0,127.0,116.0,86.0,-84.0
124.0,123.0,126.0,127.0,127.0,129.0,109.0,127.0,28.0,-107.0,-69.0,127.0,127.0,127.0,116.0,86.0,-84.0
124.0,123.0,126.0,127.0,127.0,129.0,109.0,127.0,28.0,-107.0,-69.0,127.0,127.0,127.0,116.0,86.0,-84.0
124.0,123.0,126.0,127.0,127.0,129.0,109.0,127.0,28.0,-107.0,-69.0,127.0,127.0,127.0,116.0,86.0,-84.0
124.0,123.0,126.0,127.0,127.0,129.0,110.0,127.0,28.0,-107.0,-69.0,127.0,127.0,127.0,116.0,86.0,-84.0
124.0,126.0,127.0,129.0,127.0,129.0,109.0,127.0,28.0,-107.0,-69.0,127.0,127.0,127.0,116.0,86.0,-84.0
124.0,126.0,127.0,129.0,127.0,129.0,109.0,127.0,28.0,-107.0,-69.0,127.0,127.0,127.0,116.0,86.0,-84.0
124.0,126.0,131.0,128.0,126.0,128.0,107.0,127.0,28.0,-107.0,-69.0,127.0,127.0,127.0,116.0,86.0,-84.0
124.0,126.0,132.0,128.0,126.0,128.0,107.0,127.0,28.0,-107.0,-69.0,127.0,127.0,127.0,116.0,86.0,-84.0
124.0,126.0,131.0,128.0,126.0,128.0,107.0,127.0,28.0,-107.0,-69.0,127.0,127.0,127.0,116.0,86.0,-84.0
124.0,126.0,130.0,129.0,126.0,128.0,106.0,128.0,28.0,-107.0,-69.0,127.0,127.0,127.0,116.0,86.0,-84.0
124.0,126.0,130.0,129.0,126.0,128.0,107.0,128.0,28.0,-107.0,-69.0,127.0,127.0,127.0,116.0,86.0,-84.0
124.0,126.0,130.0,129.0,126.0,128.0,108.0,128.0,28.0,-107.0,-69.0,127.0,127.0,127.0,116.0,86.0,-84.0
124.0,126.0,130.0,129.0,126.0,128.0,108.0,128.0,28.0,-107.0,-69.0,127.0,127.0,127.0,116.0,86.0,-84.0
124.0,126.0,128.0,129.0,127.0,129.0,108.0,128.0,28.0,-107.0,-69.0,127.0,127.0,127.0,116.0,86.0,-84.0
124.0,127.0,129.0,127.0,127.0,129.0,109.0,129.0,28.0,-107.0,-69.0,127.0,127.0,127.0,116.0,86.0,-84.0
123.0,123.0,128.0,129.0,127.0,128.0,107.0,131.0,28.0,-107.0,-69.0,127.0,127.0,127.0,116.0,86.0,-84.0
123.0,123.0,127.0,129.0,127.0,128.0,107.0,130.0,28.0,-107.0,-69.0,127.0,127.0,127.0,116.0,86.0,-84.0
123.0,123.0,127.0,128.0,127.0,128.0,107.0,130.0,28.0,-107.0,-69.0,127.0,127.0,127.0,116.0,86.0,-84.0
123.0,123.0,127.0,128.0,127.0,129.0,108.0,129.0,28.0,-107.0,-69.0,127.0,127.0,127.0,116.0,86.0,-84.0
123.0,123.0,127.0,128.0,127.0,129.0,108.0,129.0,28.0,-107.0,-69.0,127.0,127.0,127.0,116.0,86.0,-84.0
123.0,123.0,126.0,127.0,127.0,128.0,108.0,129.0,28.0,-107.0,-69.0,127.0,127.0,127.0,116.0,86.0,-84.0
123.0,124.0,127.0,127.0,127.0,129.0,108.0,129.0,28.0,-107.0,-69.0,127.0,127.0,127.0,116.0,86.0,-84.0
124.0,125.0,127.0,127.0,127.0,129.0,109.0,129.0,28.0,-107.0,-69.0,127.0,127.0,127.0,116.0,86.0,-84.0
124.0,126.0,128.0,127.0,127.0,129.0,109.0,129.0,28.0,-107.0,-69.0,127.0,127.0,127.0,116.0,86.0,-84.0
124.0,121.0,123.0,127.0,126.0,128.0,107.0,130.0,28.0,-107.0,-69.0,127.0,127.0,127.0,116.0,86.0,-84.0
124.0,121.0,123.0,126.0,126.0,128.0,107.0,130.0,28.0,-107.0,-69.0,127.0,127.0,127.0,116.0,86.0,-84.0
124.0,121.0,122.0,126.0,126.0,128.0,107.0,130.0,28.0,-107.0,-69.0,127.0,127.0,127.0,116.0,86.0,-84.0
124.0,121.0,121.0,126.0,126.0,128.0,107.0,129.0,28.0,-107.0,-69.0,127.0,127.0,127.0,116.0,86.0,-84.0
124.0,121.0,120.0,126.0,126.0,127.0,106.0,129.0,28.0,-107.0,-69.0,127.0,127.0,127.0,116.0,86.0,-84.0
124.0,122.0,119.0,126.0,126.0,127.0,107.0,129.0,28.0,-107.0,-69.0,127.0,127.0,127.0,116.0,86.0,-84.0
123.0,122.0,118.0,126.0,126.0,127.0,106.0,128.0,28.0,-107.0,-69.0,127.0,127.0,127.0,116.0,86.0,-84.0
123.0,122.0,118.0,125.0,126.0,127.0,106.0,128.0,28.0,-107.0,-69.0,127.0,127.0,127.0,116.0,86.0,-84.0
123.0,123.0,119.0,125.0,126.0,127.0,108.0,128.0,28.0,-107.0,-69.0,127.0,127.0,127.0,116.0,86.0,-84.0
123.0,123.0,121.0,125.0,126.0,127.0,112.0,128.0,28.0,-107.0,-69.0,127.0,127.0,127.0,116.0,86.0,-84.0
125.0,125.0,127.0,129.0,127.0,129.0,108.0,128.0,28.0,-107.0,-69.0,127.0,127.0,127.0,116.0,86.0,-84.0
124.0,125.0,126.0,128.0,127.0,128.0,108.0,128.0,28.0,-107.0,-69.0,127.0,127.0,127.0,116.0,86.0,-84.0
124.0,124.0,126.0,128.0,127.0,128.0,108.0,128.0,28.0,-107.0,-69.0,127.0,127.0,127.0,116.0,86.0,-84.0
124.0,124.0,125.0,127.0,127.0,128.0,107.0,128.0,28.0,-107.0,-69.0,127.0,127.0,127.0,116.0,86.0,-84.0
124.0,123.0,125.0,127.0,127.0,128.0,107.0,128.0,28.0,-107.0,-69.0,127.0,127.0,127.0,116.0,86.0,-84.0
124.0,123.0,125.0,127.0,127.0,127.0,107.0,128.0,28.0,-107.0,-69.0,127.0,127.0,127.0,116.0,86.0,-84.0
124.0,123.0,125.0,126.0,127.0,127.0,106.0,128.0,28.0,-107.0,-69.0,127.0,127.0,127.0,116.0,86.0,-84.0
124.0,123.0,126.0,127.0,127.0,127.0,107.0,128.0,28.0,-107.0,-69.0,127.0,127.0,127.0,116.0,86.0,-84.0
125.0,124.0,127.0,126.0,127.0,127.0,107.0,128.0,28.0,-107.0,-69.0,127.0,127.0,127.0,116.0,86.0,-84.0
125.0,126.0,127.0,129.0,128.0,129.0,109.0,128.0,28.0,-107.0,-69.0,127.0,127.0,127.0,116.0,86.0,-84.0
124.0,128.0,127.0,131.0,126.0,128.0,108.0,127.0,28.0,-107.0,-69.0,127.0,127.0,127.0,116.0,86.0,-84.0
124.0,127.0,128.0,131.0,126.0,128.0,107.0,127.0,28.0,-107.0,-69.0,127.0,127.0,127.0,116.0,86.0,-84.0
124.0,126.0,128.0,132.0,127.0,128.0,107.0,127.0,28.0,-107.0,-69.0,127.0,127.0,127.0,116.0,86.0,-84.0
124.0,125.0,129.0,132.0,127.0,128.0,107.0,128.0,28.0,-107.0,-69.0,127.0,127.0,127.0,116.0,86.0,-84.0
123.0,125.0,129.0,132.0,127.0,128.0,107.0,127.0,28.0,-107.0,-69.0,127.0,127.0,127.0,116.0,86.0,-84.0
123.0,124.0,129.0,132.0,127.0,128.0,107.0,127.0,28.0,-107.0,-69.0,127.0,127.0,127.0,116.0,86.0,-84.0
123.0,124.0,129.0,131.0,127.0,128.0,107.0,127.0,28.0,-107.0,-69.0,127.0,127.0,127.0,116.0,86.0,-84.0
125.0,128.0,126.0,129.0,126.0,128.0,108.0,126.0,28.0,-107.0,-69.0,127.0,127.0,127.0,116.0,86.0,-84.0
124.0,128.0,126.0,129.0,126.0,128.0,108.0,127.0,28.0,-107.0,-69.0,127.0,127.0,127.0,116.0,86.0,-84.0
124.0,128.0,126.0,130.0,126.0,128.0,107.0,126.0,28.0,-107.0,-69.0,127.0,127.0,127.0,116.0,86.0,-84.0
124.0,126.0,127.0,126.0,127.0,129.0,109.0,128.0,28.0,-108.0,-69.0,127.0,127.0,127.0,116.0,87.0,-84.0
124.0,126.0,128.0,127.0,127.0,129.0,108.0,128.0,28.0,-108.0,-69.0,127.0,127.0,127.0,116.0,87.0,-84.0
124.0,126.0,129.0,127.0,127.0,129.0,108.0,128.0,28.0,-108.0,-69.0,127.0,127.0,127.0,116.0,87.0,-84.0
124.0,126.0,128.0,128.0,127.0,128.0,108.0,128.0,28.0,-108.0,-69.0,127.0,127.0,127.0,116.0,87.0,-84.0
124.0,125.0,126.0,128.0,127.0,128.0,108.0,127.0,28.0,-108.0,-69.0,127.0,127.0,127.0,116.0,87.0,-84.0
124.0,124.0,125.0,127.0,127.0,128.0,108.0,127.0,28.0,-108.0,-69.0,127.0,127.0,127.0,116.0,87.0,-84.0
124.0,127.0,125.0,125.0,127.0,129.0,109.0,128.0,28.0,-108.0,-69.0,127.0,127.0,127.0,116.0,87.0,-84.0
124.0,127.0,125.0,125.0,127.0,129.0,109.0,129.0,28.0,-108.0,-69.0,127.0,127.0,127.0,116.0,87.0,-84.0
124.0,126.0,125.0,125.0,127.0,129.0,109.0,128.0,28.0,-108.0,-69.0,127.0,127.0,127.0,116.0,87.0,-84.0
124.0,126.0,126.0,126.0,127.0,129.0,109.0,128.0,28.0,-108.0,-69.0,127.0,127.0,127.0,116.0,87.0,-84.0
123.0,123.0,125.0,129.0,126.0,128.0,107.0,127.0,28.0,-108.0,-68.0,127.0,127.0,127.0,116.0,87.0,-84.0
122.0,122.0,126.0,129.0,126.0,128.0,107.0,127.0,28.0,-108.0,-68.0,127.0,127.0,127.0,116.0,87.0,-84.0
122.0,121.0,128.0,129.0,126.0,128.0,107.0,127.0,28.0,-108.0,-68.0,127.0,127.0,127.0,116.0,87.0,-84.0
122.0,120.0,129.0,129.0,127.0,129.0,108.0,127.0,28.0,-108.0,-68.0,127.0,127.0,127.0,116.0,87.0,-84.0
122.0,120.0,130.0,130.0,127.0,129.0,109.0,127.0,28.0,-108.0,-68.0,127.0,127.0,127.0,116.0,87.0,-84.0
123.0,125.0,124.0,127.0,126.0,128.0,107.0,127.0,28.0,-108.0,-68.0,127.0,127.0,127.0,116.0,87.0,-84.0
124.0,126.0,124.0,128.0,126.0,128.0,107.0,127.0,28.0,-108.0,-68.0,127.0,127.0,127.0,116.0,87.0,-84.0
123.0,126.0,125.0,128.0,126.0,128.0,108.0,127.0,28.0,-108.0,-68.0,127.0,127.0,127.0,116.0,87.0,-84.0
123.0,125.0,125.0,129.0,126.0,128.0,108.0,127.0,28.0,-108.0,-68.0,127.0,127.0,127.0,116.0,87.0,-84.0
123.0,124.0,124.0,129.0,126.0,128.0,108.0,127.0,28.0,-108.0,-68.0,127.0,127.0,127.0,116.0,87.0,-84.0
124.0,126.0,122.0,127.0,126.0,128.0,108.0,125.0,28.0,-108.0,-68.0,127.0,127.0,127.0,116.0,87.0,-84.0
124.0,126.0,124.0,127.0,126.0,128.0,108.0,125.0,28.0,-108.0,-68.0,127.0,127.0,127.0,116.0,87.0,-84.0
124.0,126.0,126.0,127.0,126.0,128.0,108.0,125.0,28.0,-108.0,-68.0,127.0,127.0,127.0,116.0,87.0,-84.0
124.0,126.0,127.0,127.0,126.0,128.0,108.0,126.0,28.0,-108.0,-68.0,127.0,127.0,127.0,116.0,87.0,-84.0
124.0,127.0,127.0,127.0,126.0,128.0,107.0,127.0,28.0,-108.0,-68.0,127.0,127.0,127.0,116.0,87.0,-84.0
124.0,127.0,126.0,127.0,127.0,128.0,108.0,126.0,28.0,-108.0,-68.0,127.0,127.0,127.0,116.0,87.0,-84.0
124.0,127.0,126.0,127.0,126.0,129.0,109.0,126.0,28.0,-108.0,-68.0,127.0,127.0,127.0,116.0,87.0,-84.0
124.0,127.0,125.0,127.0,126.0,129.0,109.0,125.0,28.0,-108.0,-68.0,127.0,127.0,127.0,116.0,87.0,-84.0
124.0,126.0,123.0,127.0,126.0,129.0,108.0,125.0,28.0,-108.0,-68.0,127.0,127.0,127.0,116.0,87.0,-84.0
124.0,126.0,122.0,127.0,126.0,128.0,108.0,125.0,28.0,-108.0,-68.0,127.0,127.0,127.0,116.0,87.0,-84.0
124.0,126.0,126.0,129.0,127.0,129.0,108.0,128.0,28.0,-108.0,-68.0,127.0,127.0,127.0,116.0,87.0,-84.0
124.0,126.0,126.0,129.0,127.0,128.0,108.0,128.0,28.0,-108.0,-68.0,127.0,127.0,127.0,116.0,87.0,-84.0
124.0,126.0,126.0,128.0,127.0,128.0,108.0,128.0,28.0,-108.0,-68.0,127.0,127.0,127.0,116.0,87.0,-84.0
124.0,125.0,125.0,128.0,127.0,128.0,107.0,128.0,28.0,-108.0,-68.0,127.0,127.0,127.0,116.0,87.0,-84.0
124.0,126.0,125.0,128.0,127.0,128.0,107.0,128.0,28.0,-108.0,-68.0,127.0,127.0,127.0,116.0,87.0,-84.0
124.0,126.0,125.0,129.0,127.0,129.0,108.0,128.0,28.0,-108.0,-68.0,127.0,127.0,127.0,116.0,87.0,-84.0
124.0,126.0,125.0,129.0,127.0,129.0,108.0,128.0,28.0,-108.0,-68.0,127.0,127.0,127.0,116.0,87.0,-84.0
124.0,126.0,125.0,129.0,127.0,128.0,108.0,128.0,28.0,-108.0,-68.0,127.0,127.0,127.0,116.0,87.0,-84.0
124.0,126.0,126.0,129.0,127.0,128.0,108.0,128.0,28.0,-108.0,-68.0,127.0,127.0,127.0,116.0,87.0,-84.0
124.0,126.0,126.0,129.0,127.0,129.0,108.0,128.0,28.0,-108.0,-68.0,127.0,127.0,127.0,116.0,87.0,-84.0
124.0,127.0,129.0,128.0,127.0,129.0,108.0,128.0,28.0,-109.0,-68.0,127.0,127.0,127.0,116.0,87.0,-84.0
123.0,127.0,129.0,128.0,127.0,129.0,108.0,128.0,28.0,-109.0,-68.0,127.0,127.0,127.0,116.0,87.0,-84.0
123.0,125.0,122.0,126.0,126.0,128.0,107.0,128.0,28.0,-109.0,-68.0,127.0,127.0,127.0,116.0,87.0,-84.0
123.0,125.0,122.0,126.0,126.0,128.0,107.0,128.0,28.0,-109.0,-68.0,127.0,127.0,127.0,116.0,87.0,-84.0
123.0,125.0,124.0,127.0,126.0,128.0,108.0,128.0,28.0,-109.0,-68.0,127.0,127.0,127.0,116.0,87.0,-84.0
123.0,126.0,125.0,127.0,127.0,128.0,108.0,128.0,28.0,-109.0,-68.0,127.0,127.0,127.0,116.0,87.0,-84.0
123.0,126.0,126.0,128.0,127.0,128.0,108.0,128.0,28.0,-109.0,-68.0,127.0,127.0,127.0,116.0,87.0,-84.0
123.0,126.0,127.0,128.0,127.0,128.0,108.0,128.0,28.0,-109.0,-68.0,127.0,127.0,127.0,116.0,87.0,-84.0
123.0,126.0,128.0,128.0,127.0,128.0,108.0,128.0,28.0,-109.0,-68.0,127.0,127.0,127.0,116.0,87.0,-84.0
123.0,126.0,128.0,128.0,127.0,128.0,108.0,128.0,28.0,-109.0,-68.0,127.0,127.0,127.0,116.0,87.0,-84.0
123.0,126.0,124.0,127.0,126.0,129.0,108.0,130.0,29.0,-109.0,-68.0,127.0,127.0,127.0,116.0,87.0,-84.0
124.0,126.0,125.0,129.0,127.0,128.0,108.0,131.0,29.0,-109.0,-68.0,127.0,127.0,127.0,116.0,87.0,-84.0
124.0,126.0,125.0,129.0,127.0,128.0,108.0,131.0,29.0,-109.0,-68.0,127.0,127.0,127.0,116.0,87.0,-84.0
124.0,126.0,125.0,128.0,127.0,129.0,109.0,131.0,29.0,-109.0,-68.0,127.0,127.0,127.0,116.0,87.0,-84.0
124.0,126.0,125.0,128.0,127.0,129.0,109.0,131.0,29.0,-109.0,-68.0,127.0,127.0,127.0,116.0,87.0,-84.0
124.0,126.0,125.0,128.0,127.0,129.0,109.0,131.0,29.0,-109.0,-68.0,127.0,127.0,127.0,116.0,87.0,-84.0
124.0,126.0,125.0,128.0,127.0,128.0,108.0,131.0,29.0,-109.0,-68.0,127.0,127.0,127.0,116.0,87.0,-84.0
124.0,126.0,125.0,128.0,127.0,128.0,108.0,131.0,29.0,-109.0,-68.0,127.0,127.0,127.0,116.0,87.0,-84.0
123.0,126.0,124.0,128.0,126.0,128.0,108.0,131.0,29.0,-109.0,-68.0,127.0,127.0,127.0,116.0,87.0,-84.0
123.0,126.0,124.0,127.0,126.0,129.0,108.0,130.0,29.0,-109.0,-68.0,127.0,127.0,127.0,116.0,87.0,-84.0
123.0,125.0,112.0,121.0,125.0,127.0,106.0,132.0,29.0,-109.0,-68.0,127.0,127.0,127.0,116.0,87.0,-84.0
123.0,125.0,111.0,122.0,125.0,128.0,107.0,131.0,29.0,-109.0,-68.0,127.0,127.0,127.0,116.0,87.0,-84.0
124.0,125.0,111.0,123.0,125.0,128.0,107.0,131.0,29.0,-109.0,-68.0,127.0,127.0,127.0,116.0,87.0,-84.0
124.0,125.0,111.0,123.0,125.0,128.0,107.0,131.0,29.0,-109.0,-68.0,127.0,127.0,127.0,116.0,87.0,-84.0
123.0,125.0,110.0,124.0,125.0,128.0,108.0,131.0,29.0,-109.0,-68.0,127.0,127.0,127.0,116.0,87.0,-84.0
123.0,125.0,109.0,125.0,125.0,128.0,108.0,131.0,29.0,-109.0,-68.0,127.0,127.0,127.0,116.0,87.0,-84.0
123.0,125.0,109.0,125.0,125.0,128.0,107.0,131.0,29.0,-109.0,-68.0,127.0,127.0,127.0,116.0,87.0,-84.0
123.0,125.0,108.0,125.0,125.0,128.0,107.0,131.0,29.0,-109.0,-68.0,127.0,127.0,127.0,116.0,87.0,-84.0
123.0,125.0,108.0,126.0,125.0,128.0,108.0,131.0,29.0,-109.0,-68.0,127.0,127.0,127.0,116.0,87.0,-84.0
123.0,125.0,108.0,126.0,125.0,128.0,108.0,131.0,29.0,-109.0,-68.0,127.0,127.0,127.0,116.0,87.0,-84.0
123.0,126.0,101.0,132.0,127.0,128.0,107.0,133.0,29.0,-109.0,-68.0,127.0,127.0,127.0,116.0,87.0,-84.0
123.0,126.0,101.0,132.0,127.0,129.0,108.0,133.0,29.0,-109.0,-68.0,127.0,127.0,127.0,116.0,87.0,-84.0
123.0,127.0,101.0,131.0,128.0,129.0,108.0,133.0,29.0,-109.0,-68.0,127.0,127.0,127.0,116.0,87.0,-84.0
123.0,127.0,101.0,131.0,128.0,129.0,108.0,133.0,29.0,-109.0,-68.0,127.0,127.0,127.0,116.0,87.0,-84.0
123.0,127.0,100.0,130.0,128.0,128.0,108.0,134.0,29.0,-109.0,-68.0,127.0,127.0,127.0,116.0,87.0,-84.0
123.0,127.0,100.0,130.0,128.0,128.0,108.0,134.0,29.0,-109.0,-68.0,127.0,127.0,127.0,116.0,87.0,-84.0
123.0,127.0,100.0,130.0,128.0,129.0,108.0,134.0,29.0,-109.0,-68.0,127.0,127.0,127.0,116.0,87.0,-84.0
123.0,127.0,101.0,130.0,128.0,129.0,109.0,134.0,29.0,-109.0,-68.0,127.0,127.0,127.0,116.0,87.0,-84.0
123.0,127.0,101.0,131.0,128.0,129.0,110.0,134.0,29.0,-109.0,-68.0,127.0,127.0,127.0,116.0,87.0,-84.0
123.0,126.0,102.0,133.0,127.0,128.0,107.0,133.0,29.0,-109.0,-68.0,127.0,127.0,127.0,116.0,87.0,-84.0
123.0,125.0,98.0,122.0,126.0,129.0,109.0,133.0,29.0,-109.0,-68.0,127.0,127.0,127.0,116.0,87.0,-84.0
123.0,125.0,97.0,122.0,126.0,129.0,109.0,133.0,29.0,-109.0,-68.0,127.0,127.0,127.0,116.0,87.0,-84.0
123.0,125.0,96.0,121.0,126.0,129.0,108.0,133.0,29.0,-109.0,-68.0,127.0,127.0,127.0,116.0,87.0,-84.0
123.0,125.0,95.0,121.0,126.0,128.0,108.0,133.0,29.0,-109.0,-68.0,127.0,127.0,127.0,116.0,87.0,-84.0
123.0,125.0,95.0,120.0,125.0,128.0,108.0,133.0,29.0,-109.0,-68.0,127.0,127.0,127.0,116.0,87.0,-84.0
123.0,125.0,94.0,120.0,125.0,128.0,108.0,133.0,29.0,-109.0,-68.0,127.0,127.0,127.0,116.0,87.0,-84.0
123.0,125.0,93.0,120.0,125.0,128.0,108.0,133.0,29.0,-109.0,-68.0,127.0,127.0,127.0,116.0,87.0,-84.0
123.0,125.0,92.0,119.0,125.0,128.0,107.0,133.0,29.0,-109.0,-68.0,127.0,127.0,127.0,116.0,87.0,-84.0
123.0,125.0,99.0,123.0,126.0,129.0,108.0,134.0,29.0,-109.0,-68.0,127.0,127.0,127.0,116.0,87.0,-84.0
123.0,125.0,98.0,123.0,126.0,128.0,108.0,134.0,29.0,-109.0,-68.0,127.0,127.0,127.0,116.0,87.0,-84.0
125.0,128.0,90.0,128.0,129.0,129.0,109.0,132.0,29.0,-109.0,-69.0,127.0,127.0,127.0,116.0,87.0,-84.0
124.0,128.0,90.0,128.0,129.0,129.0,109.0,132.0,29.0,-109.0,-69.0,127.0,127.0,127.0,116.0,87.0,-84.0
125.0,128.0,90.0,128.0,129.0,129.0,109.0,131.0,29.0,-109.0,-69.0,127.0,127.0,127.0,116.0,87.0,-84.0
125.0,128.0,89.0,129.0,129.0,129.0,110.0,131.0,29.0,-109.0,-69.0,127.0,127.0,127.0,116.0,87.0,-84.0
125.0,128.0,88.0,130.0,129.0,129.0,110.0,131.0,29.0,-109.0,-69.0,127.0,127.0,127.0,116.0,87.0,-84.0
125.0,128.0,88.0,131.0,129.0,129.0,110.0,131.0,29.0,-109.0,-69.0,127.0,127.0,127.0,116.0,87.0,-84.0
125.0,128.0,88.0,132.0,129.0,130.0,111.0,131.0,29.0,-109.0,-69.0,127.0,127.0,127.0,116.0,87.0,-84.0
124.0,128.0,90.0,129.0,129.0,128.0,108.0,132.0,29.0,-109.0,-69.0,127.0,127.0,127.0,116.0,87.0,-84.0
124.0,128.0,90.0,129.0,129.0,128.0,108.0,132.0,29.0,-109.0,-69.0,127.0,127.0,127.0,116.0,87.0,-84.0
124.0,128.0,90.0,128.0,129.0,129.0,108.0,132.0,29.0,-109.0,-69.0,127.0,127.0,127.0,116.0,87.0,-84.0
126.0,126.0,58.0,112.0,127.0,127.0,106.0,130.0,29.0,-109.0,-69.0,127.0,127.0,127.0,116.0,87.0,-84.0
126.0,126.0,60.0,113.0,127.0,127.0,107.0,130.0,29.0,-109.0,-69.0,127.0,127.0,127.0,116.0,87.0,-84.0
126.0,126.0,62.0,114.0,126.0,127.0,107.0,130.0,29.0,-109.0,-69.0,127.0,127.0,127.0,116.0,87.0,-84.0
126.0,126.0,65.0,114.0,127.0,127.0,106.0,130.0,29.0,-109.0,-69.0,127.0,127.0,127.0,116.0,87.0,-84.0
126.0,126.0,67.0,114.0,127.0,127.0,106.0,129.0,29.0,-109.0,-69.0,127.0,127.0,127.0,116.0,87.0,-84.0
126.0,127.0,70.0,115.0,127.0,128.0,107.0,130.0,29.0,-109.0,-69.0,127.0,127.0,127.0,116.0,87.0,-84.0
125.0,126.0,52.0,110.0,126.0,126.0,112.0,130.0,29.0,-109.0,-69.0,127.0,127.0,127.0,116.0,87.0,-84.0
125.0,126.0,53.0,109.0,126.0,127.0,112.0,130.0,29.0,-109.0,-69.0,127.0,127.0,127.0,116.0,87.0,-84.0
125.0,126.0,55.0,109.0,127.0,127.0,112.0,130.0,29.0,-109.0,-69.0,127.0,127.0,127.0,116.0,87.0,-84.0
126.0,126.0,57.0,111.0,127.0,127.0,108.0,130.0,29.0,-109.0,-69.0,127.0,127.0,127.0,116.0,87.0,-84.0
128.0,128.0,138.0,137.0,131.0,129.0,109.0,129.0,29.0,-109.0,-69.0,127.0,127.0,127.0,116.0,87.0,-84.0
128.0,127.0,139.0,136.0,131.0,128.0,108.0,128.0,29.0,-109.0,-69.0,127.0,127.0,127.0,116.0,87.0,-84.0
128.0,127.0,140.0,135.0,130.0,128.0,108.0,128.0,29.0,-109.0,-69.0,127.0,127.0,127.0,116.0,87.0,-84.0
128.0,127.0,141.0,134.0,130.0,128.0,107.0,128.0,29.0,-109.0,-69.0,127.0,127.0,127.0,116.0,87.0,-84.0
128.0,127.0,142.0,133.0,130.0,128.0,108.0,128.0,29.0,-109.0,-69.0,127.0,127.0,127.0,116.0,87.0,-84.0
128.0,129.0,135.0,142.0,133.0,129.0,109.0,130.0,29.0,-109.0,-69.0,127.0,127.0,127.0,116.0,87.0,-84.0
128.0,129.0,136.0,141.0,132.0,129.0,109.0,130.0,29.0,-109.0,-69.0,127.0,127.0,127.0,116.0,87.0,-84.0
128.0,128.0,136.0,140.0,132.0,129.0,109.0,129.0,29.0,-109.0,-69.0,127.0,127.0,127.0,116.0,87.0,-84.0
128.0,128.0,137.0,139.0,132.0,129.0,109.0,129.0,29.0,-109.0,-69.0,127.0,127.0,127.0,116.0,87.0,-84.0
128.0,128.0,137.0,138.0,131.0,129.0,109.0,129.0,29.0,-109.0,-69.0,127.0,127.0,127.0,116.0,87.0,-84.0
126.0,127.0,160.0,129.0,126.0,130.0,112.0,130.0,29.0,-108.0,-68.0,127.0,127.0,127.0,116.0,87.0,-84.0
126.0,126.0,160.0,130.0,126.0,131.0,112.0,130.0,29.0,-108.0,-68.0,127.0,127.0,127.0,116.0,87.0,-84.0
126.0,126.0,159.0,130.0,126.0,131.0,112.0,129.0,29.0,-108.0,-68.0,127.0,127.0,127.0,116.0,87.0,-84.0
126.0,127.0,160.0,131.0,126.0,131.0,112.0,129.0,29.0,-108.0,-68.0,127.0,127.0,127.0,116.0,87.0,-84.0
126.0,126.0,157.0,124.0,126.0,129.0,110.0,130.0,29.0,-108.0,-68.0,127.0,127.0,127.0,116.0,87.0,-84.0
126.0,126.0,158.0,125.0,126.0,130.0,110.0,130.0,29.0,-108.0,-68.0,127.0,127.0,127.0,116.0,87.0,-84.0
126.0,127.0,158.0,126.0,126.0,130.0,110.0,130.0,29.0,-108.0,-68.0,127.0,127.0,127.0,116.0,87.0,-84.0
127.0,127.0,159.0,127.0,126.0,130.0,111.0,130.0,29.0,-108.0,-68.0,127.0,127.0,127.0,116.0,87.0,-84.0
126.0,127.0,159.0,128.0,126.0,130.0,111.0,130.0,29.0,-108.0,-68.0,127.0,127.0,127.0,116.0,87.0,-84.0
126.0,127.0,160.0,128.0,126.0,130.0,111.0,130.0,29.0,-108.0,-68.0,127.0,127.0,127.0,116.0,87.0,-84.0
125.0,127.0,161.0,125.0,127.0,133.0,116.0,131.0,28.0,-108.0,-68.0,127.0,127.0,127.0,116.0,87.0,-84.0
124.0,127.0,161.0,125.0,127.0,133.0,116.0,131.0,28.0,-108.0,-68.0,127.0,127.0,127.0,116.0,87.0,-84.0
126.0,127.0,161.0,127.0,127.0,132.0,113.0,132.0,28.0,-108.0,-68.0,127.0,127.0,127.0,116.0,87.0,-84.0
126.0,126.0,161.0,127.0,127.0,132.0,113.0,132.0,28.0,-108.0,-68.0,127.0,127.0,127.0,116.0,87.0,-84.0
126.0,126.0,161.0,126.0,127.0,132.0,114.0,131.0,28.0,-108.0,-68.0,127.0,127.0,127.0,116.0,87.0,-84.0
125.0,126.0,161.0,125.0,127.0,132.0,114.0,131.0,28.0,-108.0,-68.0,127.0,127.0,127.0,116.0,87.0,-84.0
