emg1,emg2,emg3,emg4,emg5,emg6,emg7,emg8,acc_x,acc_y,acc_z,gyro_x,gyro_y,gyro_z,angle_pitch,angle_roll,angle_yaw
127.0,126.0,127.0,128.0,127.0,131.0,127.0,127.0,41.0,-86.0,-72.0,127.0,127.0,127.0,104.0,89.0,-103.0
127.0,126.0,127.0,128.0,127.0,130.0,127.0,127.0,41.0,-86.0,-72.0,127.0,127.0,127.0,104.0,89.0,-103.0
127.0,125.0,127.0,128.0,127.0,130.0,127.0,127.0,41.0,-86.0,-72.0,127.0,127.0,127.0,104.0,89.0,-103.0
127.0,125.0,127.0,128.0,127.0,130.0,126.0,127.0,41.0,-86.0,-72.0,127.0,127.0,127.0,104.0,89.0,-103.0
127.0,125.0,127.0,127.0,127.0,131.0,126.0,127.0,41.0,-86.0,-72.0,127.0,127.0,127.0,104.0,89.0,-103.0
127.0,125.0,126.0,128.0,127.0,129.0,127.0,128.0,41.0,-86.0,-72.0,127.0,127.0,127.0,104.0,89.0,-103.0
127.0,125.0,126.0,128.0,127.0,129.0,127.0,128.0,41.0,-86.0,-72.0,127.0,127.0,127.0,104.0,89.0,-103.0
127.0,126.0,126.0,128.0,127.0,130.0,127.0,128.0,41.0,-86.0,-72.0,127.0,127.0,127.0,104.0,89.0,-103.0
127.0,126.0,126.0,128.0,127.0,131.0,127.0,128.0,41.0,-86.0,-72.0,127.0,127.0,127.0,104.0,89.0,-103.0
127.0,126.0,127.0,127.0,127.0,131.0,127.0,128.0,41.0,-86.0,-72.0,127.0,127.0,127.0,104.0,89.0,-103.0
127.0,125.0,127.0,128.0,127.0,130.0,127.0,128.0,41.0,-86.0,-72.0,127.0,127.0,127.0,104.0,89.0,-103.0
127.0,125.0,127.0,127.0,126.0,130.0,127.0,128.0,41.0,-86.0,-72.0,127.0,127.0,127.0,104.0,89.0,-103.0
127.0,125.0,127.0,128.0,126.0,130.0,127.0,128.0,41.0,-86.0,-72.0,127.0,127.0,127.0,104.0,89.0,-103.0
127.0,125.0,127.0,128.0,126.0,131.0,127.0,128.0,41.0,-86.0,-72.0,127.0,127.0,127.0,104.0,89.0,-103.0
127.0,125.0,127.0,128.0,127.0,132.0,127.0,128.0,41.0,-86.0,-72.0,127.0,127.0,127.0,104.0,89.0,-103.0
127.0,125.0,127.0,127.0,127.0,129.0,127.0,128.0,41.0,-86.0,-72.0,127.0,127.0,127.0,104.0,89.0,-103.0
127.0,125.0,127.0,127.0,127.0,130.0,127.0,128.0,41.0,-86.0,-72.0,127.0,127.0,127.0,104.0,89.0,-103.0
127.0,125.0,127.0,127.0,127.0,131.0,127.0,128.0,41.0,-86.0,-72.0,127.0,127.0,127.0,104.0,89.0,-103.0
127.0,125.0,127.0,127.0,127.0,131.0,127.0,128.0,41.0,-86.0,-72.0,127.0,127.0,127.0,104.0,89.0,-103.0
127.0,125.0,127.0,127.0,127.0,131.0,127.0,128.0,41.0,-86.0,-72.0,127.0,127.0,127.0,104.0,89.0,-103.0
127.0,125.0,127.0,127.0,127.0,131.0,127.0,128.0,41.0,-86.0,-72.0,127.0,127.0,127.0,104.0,89.0,-103.0
127.0,125.0,127.0,127.0,127.0,131.0,127.0,128.0,41.0,-86.0,-72.0,127.0,127.0,127.0,104.0,89.0,-103.0
127.0,125.0,127.0,127.0,127.0,131.0,126.0,128.0,41.0,-86.0,-72.0,127.0,127.0,127.0,104.0,89.0,-103.0
127.0,125.0,127.0,127.0,127.0,132.0,127.0,128.0,41.0,-86.0,-72.0,127.0,127.0,127.0,104.0,89.0,-103.0
127.0,125.0,127.0,127.0,127.0,129.0,127.0,128.0,41.0,-86.0,-72.0,127.0,127.0,127.0,104.0,89.0,-103.0
127.0,125.0,127.0,127.0,127.0,130.0,126.0,127.0,41.0,-87.0,-72.0,127.0,127.0,127.0,104.0,89.0,-103.0
127.0,126.0,127.0,127.0,127.0,131.0,126.0,127.0,41.0,-87.0,-72.0,127.0,127.0,127.0,104.0,89.0,-103.0
127.0,126.0,127.0,127.0,127.0,131.0,126.0,127.0,41.0,-87.0,-72.0,127.0,127.0,127.0,104.0,89.0,-103.0
127.0,125.0,127.0,127.0,127.0,131.0,126.0,127.0,41.0,-87.0,-72.0,127.0,127.0,127.0,104.0,89.0,-103.0
127.0,125.0,127.0,127.0,127.0,131.0,126.0,128.0,41.0,-87.0,-72.0,127.0,127.0,127.0,104.0,89.0,-103.0
127.0,125.0,127.0,127.0,127.0,131.0,126.0,127.0,41.0,-87.0,-72.0,127.0,127.0,127.0,104.0,89.0,-103.0
127.0,125.0,127.0,127.0,127.0,131.0,126.0,127.0,41.0,-87.0,-72.0,127.0,127.0,127.0,104.0,89.0,-103.0
127.0,125.0,127.0,127.0,127.0,131.0,126.0,128.0,41.0,-87.0,-72.0,127.0,127.0,127.0,104.0,89.0,-103.0
127.0,125.0,127.0,128.0,127.0,129.0,126.0,127.0,41.0,-87.0,-72.0,127.0,127.0,127.0,104.0,89.0,-103.0
127.0,125.0,127.0,128.0,127.0,130.0,127.0,127.0,41.0,-87.0,-72.0,127.0,127.0,127.0,104.0,89.0,-103.0
127.0,125.0,127.0,127.0,127.0,132.0,126.0,127.0,41.0,-87.0,-72.0,127.0,127.0,127.0,104.0,89.0,-103.0
127.0,125.0,127.0,127.0,127.0,133.0,126.0,127.0,41.0,-87.0,-72.0,127.0,127.0,127.0,104.0,89.0,-103.0
127.0,125.0,127.0,127.0,127.0,132.0,126.0,128.0,41.0,-87.0,-72.0,127.0,127.0,127.0,104.0,89.0,-103.0
127.0,125.0,127.0,127.0,126.0,132.0,126.0,127.0,41.0,-87.0,-72.0,127.0,127.0,127.0,104.0,89.0,-103.0
127.0,125.0,128.0,127.0,126.0,132.0,126.0,128.0,41.0,-87.0,-72.0,127.0,127.0,127.0,104.0,89.0,-103.0
127.0,124.0,128.0,127.0,126.0,132.0,126.0,128.0,41.0,-87.0,-72.0,127.0,127.0,127.0,104.0,89.0,-103.0
127.0,124.0,128.0,127.0,126.0,132.0,126.0,127.0,41.0,-87.0,-72.0,127.0,127.0,127.0,104.0,89.0,-103.0
127.0,126.0,127.0,127.0,127.0,133.0,126.0,128.0,41.0,-87.0,-72.0,127.0,127.0,127.0,104.0,89.0,-103.0
127.0,125.0,127.0,127.0,127.0,133.0,126.0,128.0,41.0,-87.0,-72.0,127.0,127.0,127.0,104.0,89.0,-103.0
127.0,125.0,127.0,127.0,127.0,133.0,126.0,128.0,41.0,-87.0,-72.0,127.0,127.0,127.0,104.0,89.0,-103.0
127.0,126.0,127.0,128.0,127.0,131.0,126.0,127.0,41.0,-87.0,-72.0,127.0,127.0,127.0,104.0,89.0,-103.0
127.0,126.0,127.0,128.0,127.0,131.0,126.0,127.0,41.0,-87.0,-72.0,127.0,127.0,127.0,104.0,89.0,-103.0
127.0,125.0,127.0,127.0,126.0,131.0,126.0,127.0,41.0,-87.0,-72.0,127.0,127.0,127.0,104.0,89.0,-103.0
127.0,125.0,127.0,127.0,126.0,131.0,126.0,127.0,41.0,-87.0,-72.0,127.0,127.0,127.0,104.0,89.0,-103.0
127.0,125.0,127.0,127.0,126.0,131.0,126.0,127.0,41.0,-87.0,-72.0,127.0,127.0,127.0,104.0,89.0,-103.0
127.0,125.0,127.0,127.0,126.0,131.0,126.0,127.0,41.0,-87.0,-72.0,127.0,127.0,127.0,104.0,89.0,-103.0
127.0,126.0,127.0,128.0,127.0,132.0,126.0,128.0,41.0,-87.0,-72.0,127.0,127.0,127.0,104.0,89.0,-103.0
127.0,126.0,127.0,128.0,127.0,132.0,126.0,128.0,41.0,-87.0,-72.0,127.0,127.0,127.0,104.0,89.0,-103.0
127.0,126.0,127.0,128.0,127.0,131.0,126.0,128.0,41.0,-87.0,-72.0,127.0,127.0,127.0,104.0,89.0,-103.0
127.0,126.0,127.0,128.0,127.0,131.0,126.0,127.0,41.0,-87.0,-72.0,127.0,127.0,127.0,104.0,89.0,-103.0
127.0,126.0,126.0,128.0,127.0,131.0,126.0,127.0,40.0,-88.0,-72.0,127.0,127.0,127.0,104.0,89.0,-103.0
127.0,125.0,126.0,127.0,127.0,130.0,126.0,127.0,40.0,-88.0,-72.0,127.0,127.0,127.0,104.0,89.0,-103.0
127.0,125.0,126.0,127.0,127.0,130.0,126.0,127.0,40.0,-88.0,-72.0,127.0,127.0,127.0,104.0,89.0,-103.0
127.0,125.0,126.0,127.0,127.0,130.0,126.0,127.0,40.0,-88.0,-72.0,127.0,127.0,127.0,104.0,89.0,-103.0
127.0,125.0,126.0,127.0,127.0,130.0,126.0,127.0,40.0,-88.0,-72.0,127.0,127.0,127.0,104.0,89.0,-103.0
127.0,126.0,126.0,128.0,127.0,131.0,127.0,127.0,40.0,-88.0,-72.0,127.0,127.0,127.0,104.0,89.0,-103.0
127.0,126.0,126.0,128.0,127.0,131.0,127.0,127.0,40.0,-88.0,-72.0,127.0,127.0,127.0,104.0,89.0,-103.0
127.0,126.0,126.0,128.0,127.0,131.0,127.0,127.0,40.0,-88.0,-72.0,127.0,127.0,127.0,104.0,89.0,-103.0
127.0,126.0,126.0,128.0,127.0,131.0,127.0,127.0,40.0,-88.0,-72.0,127.0,127.0,127.0,104.0,89.0,-103.0
127.0,126.0,126.0,128.0,127.0,131.0,126.0,127.0,40.0,-88.0,-72.0,127.0,127.0,127.0,104.0,89.0,-103.0
127.0,125.0,126.0,127.0,127.0,131.0,127.0,127.0,39.0,-88.0,-72.0,127.0,127.0,127.0,104.0,89.0,-103.0
127.0,125.0,126.0,127.0,127.0,131.0,127.0,127.0,39.0,-88.0,-72.0,127.0,127.0,127.0,104.0,89.0,-103.0
127.0,125.0,126.0,127.0,127.0,131.0,127.0,127.0,39.0,-88.0,-72.0,127.0,127.0,127.0,104.0,89.0,-103.0
127.0,125.0,126.0,127.0,127.0,131.0,127.0,127.0,39.0,-88.0,-72.0,127.0,127.0,127.0,104.0,89.0,-103.0
127.0,126.0,126.0,128.0,127.0,132.0,127.0,127.0,39.0,-88.0,-72.0,127.0,127.0,127.0,104.0,89.0,-103.0
127.0,126.0,126.0,128.0,127.0,132.0,127.0,127.0,39.0,-88.0,-72.0,127.0,127.0,127.0,104.0,89.0,-103.0
127.0,126.0,126.0,128.0,127.0,132.0,127.0,127.0,39.0,-88.0,-72.0,127.0,127.0,127.0,104.0,89.0,-103.0
127.0,126.0,126.0,128.0,127.0,131.0,127.0,127.0,39.0,-88.0,-72.0,127.0,127.0,127.0,104.0,89.0,-103.0
127.0,126.0,126.0,128.0,127.0,132.0,127.0,127.0,39.0,-88.0,-72.0,127.0,127.0,127.0,104.0,89.0,-103.0
127.0,126.0,126.0,127.0,127.0,132.0,127.0,127.0,39.0,-88.0,-72.0,127.0,127.0,127.0,104.0,89.0,-103.0
127.0,126.0,126.0,127.0,127.0,133.0,126.0,128.0,38.0,-88.0,-72.0,127.0,127.0,127.0,104.0,89.0,-103.0
127.0,126.0,126.0,127.0,127.0,133.0,126.0,128.0,38.0,-88.0,-72.0,127.0,127.0,127.0,104.0,89.0,-103.0
127.0,126.0,126.0,127.0,127.0,133.0,126.0,128.0,38.0,-88.0,-72.0,127.0,127.0,127.0,104.0,89.0,-103.0
127.0,126.0,126.0,127.0,127.0,132.0,127.0,128.0,38.0,-88.0,-72.0,127.0,127.0,127.0,104.0,89.0,-103.0
127.0,126.0,126.0,127.0,127.0,132.0,127.0,128.0,38.0,-88.0,-72.0,127.0,127.0,127.0,104.0,89.0,-103.0
127.0,126.0,126.0,127.0,127.0,132.0,127.0,128.0,38.0,-88.0,-72.0,127.0,127.0,127.0,104.0,89.0,-103.0
127.0,126.0,126.0,127.0,127.0,132.0,127.0,128.0,38.0,-88.0,-72.0,127.0,127.0,127.0,104.0,89.0,-103.0
127.0,126.0,126.0,127.0,127.0,132.0,127.0,128.0,38.0,-88.0,-72.0,127.0,127.0,127.0,104.0,89.0,-103.0
127.0,126.0,126.0,127.0,127.0,132.0,127.0,128.0,38.0,-88.0,-72.0,127.0,127.0,127.0,104.0,89.0,-103.0
127.0,126.0,126.0,127.0,127.0,133.0,126.0,128.0,38.0,-88.0,-72.0,127.0,127.0,127.0,104.0,89.0,-103.0
127.0,126.0,127.0,127.0,126.0,134.0,127.0,128.0,37.0,-89.0,-71.0,127.0,127.0,127.0,104.0,89.0,-103.0
127.0,126.0,127.0,127.0,126.0,131.0,127.0,128.0,37.0,-89.0,-71.0,127.0,127.0,127.0,104.0,89.0,-103.0
127.0,127.0,126.0,127.0,127.0,132.0,127.0,128.0,37.0,-89.0,-71.0,127.0,127.0,127.0,104.0,89.0,-103.0
127.0,127.0,127.0,127.0,127.0,133.0,127.0,128.0,37.0,-89.0,-71.0,127.0,127.0,127.0,104.0,89.0,-103.0
127.0,126.0,127.0,127.0,127.0,133.0,127.0,128.0,37.0,-89.0,-71.0,127.0,127.0,127.0,104.0,89.0,-103.0
127.0,126.0,127.0,127.0,126.0,133.0,127.0,128.0,37.0,-89.0,-71.0,127.0,127.0,127.0,104.0,89.0,-103.0
127.0,126.0,127.0,127.0,126.0,133.0,127.0,128.0,37.0,-89.0,-71.0,127.0,127.0,127.0,104.0,89.0,-103.0
127.0,126.0,127.0,127.0,126.0,133.0,127.0,128.0,37.0,-89.0,-71.0,127.0,127.0,127.0,104.0,89.0,-103.0
127.0,126.0,127.0,127.0,126.0,133.0,127.0,128.0,37.0,-89.0,-71.0,127.0,127.0,127.0,104.0,89.0,-103.0
127.0,126.0,127.0,127.0,126.0,134.0,127.0,128.0,37.0,-89.0,-71.0,127.0,127.0,127.0,104.0,89.0,-103.0
127.0,125.0,127.0,127.0,127.0,132.0,127.0,128.0,36.0,-89.0,-71.0,127.0,127.0,127.0,104.0,89.0,-103.0
127.0,126.0,127.0,127.0,127.0,133.0,127.0,128.0,36.0,-89.0,-71.0,127.0,127.0,127.0,104.0,89.0,-103.0
127.0,126.0,127.0,127.0,127.0,134.0,127.0,128.0,36.0,-89.0,-71.0,127.0,127.0,127.0,104.0,89.0,-103.0
127.0,126.0,127.0,127.0,127.0,134.0,127.0,128.0,36.0,-89.0,-71.0,127.0,127.0,127.0,104.0,89.0,-103.0
127.0,126.0,127.0,127.0,127.0,134.0,127.0,128.0,36.0,-89.0,-71.0,127.0,127.0,127.0,104.0,89.0,-103.0
127.0,125.0,127.0,127.0,127.0,134.0,127.0,128.0,36.0,-89.0,-71.0,127.0,127.0,127.0,104.0,89.0,-103.0
127.0,125.0,127.0,127.0,126.0,134.0,127.0,128.0,36.0,-89.0,-71.0,127.0,127.0,127.0,104.0,89.0,-103.0
127.0,125.0,127.0,127.0,126.0,134.0,127.0,128.0,36.0,-89.0,-71.0,127.0,127.0,127.0,104.0,89.0,-103.0
127.0,126.0,127.0,127.0,127.0,135.0,127.0,128.0,36.0,-89.0,-71.0,127.0,127.0,127.0,104.0,89.0,-103.0
127.0,125.0,127.0,127.0,127.0,135.0,127.0,128.0,36.0,-89.0,-71.0,127.0,127.0,127.0,104.0,89.0,-103.0
127.0,125.0,128.0,127.0,127.0,133.0,127.0,128.0,35.0,-90.0,-72.0,127.0,127.0,127.0,104.0,89.0,-103.0
127.0,126.0,128.0,127.0,127.0,134.0,127.0,128.0,35.0,-90.0,-72.0,127.0,127.0,127.0,104.0,89.0,-103.0
127.0,126.0,128.0,127.0,127.0,134.0,127.0,128.0,35.0,-90.0,-72.0,127.0,127.0,127.0,104.0,89.0,-103.0
127.0,125.0,128.0,127.0,127.0,134.0,127.0,128.0,35.0,-90.0,-72.0,127.0,127.0,127.0,104.0,89.0,-103.0
127.0,125.0,128.0,127.0,127.0,134.0,127.0,128.0,35.0,-90.0,-72.0,127.0,127.0,127.0,104.0,89.0,-103.0
127.0,125.0,128.0,127.0,127.0,134.0,127.0,128.0,35.0,-90.0,-72.0,127.0,127.0,127.0,104.0,89.0,-103.0
127.0,125.0,128.0,127.0,127.0,134.0,127.0,128.0,35.0,-90.0,-72.0,127.0,127.0,127.0,104.0,89.0,-103.0
127.0,125.0,128.0,127.0,127.0,136.0,126.0,128.0,35.0,-90.0,-72.0,127.0,127.0,127.0,104.0,89.0,-103.0
127.0,125.0,128.0,127.0,127.0,136.0,126.0,128.0,35.0,-90.0,-72.0,127.0,127.0,127.0,104.0,89.0,-103.0
127.0,125.0,128.0,127.0,126.0,133.0,127.0,128.0,35.0,-90.0,-72.0,127.0,127.0,127.0,104.0,89.0,-103.0
127.0,126.0,128.0,127.0,127.0,134.0,127.0,128.0,33.0,-90.0,-72.0,127.0,127.0,127.0,104.0,89.0,-103.0
127.0,126.0,128.0,127.0,127.0,134.0,127.0,128.0,33.0,-90.0,-72.0,127.0,127.0,127.0,104.0,89.0,-103.0
127.0,126.0,128.0,127.0,127.0,133.0,127.0,128.0,33.0,-90.0,-72.0,127.0,127.0,127.0,104.0,89.0,-103.0
127.0,126.0,128.0,127.0,127.0,133.0,127.0,128.0,33.0,-90.0,-72.0,127.0,127.0,127.0,104.0,89.0,-103.0
127.0,126.0,128.0,127.0,127.0,133.0,127.0,128.0,33.0,-90.0,-72.0,127.0,127.0,127.0,104.0,89.0,-103.0
127.0,126.0,128.0,127.0,127.0,133.0,127.0,128.0,33.0,-90.0,-72.0,127.0,127.0,127.0,104.0,89.0,-103.0
127.0,126.0,128.0,127.0,127.0,134.0,127.0,128.0,33.0,-90.0,-72.0,127.0,127.0,127.0,104.0,89.0,-103.0
127.0,126.0,128.0,127.0,127.0,135.0,127.0,128.0,33.0,-90.0,-72.0,127.0,127.0,127.0,104.0,89.0,-103.0
127.0,126.0,128.0,127.0,127.0,132.0,127.0,128.0,33.0,-90.0,-72.0,127.0,127.0,127.0,104.0,89.0,-103.0
127.0,126.0,128.0,127.0,127.0,133.0,127.0,128.0,33.0,-90.0,-72.0,127.0,127.0,127.0,104.0,89.0,-103.0
127.0,127.0,127.0,128.0,127.0,132.0,127.0,128.0,31.0,-91.0,-72.0,127.0,127.0,127.0,104.0,89.0,-103.0
127.0,127.0,127.0,127.0,127.0,132.0,127.0,128.0,31.0,-91.0,-72.0,127.0,127.0,127.0,104.0,89.0,-103.0
127.0,126.0,127.0,127.0,127.0,132.0,127.0,128.0,31.0,-91.0,-72.0,127.0,127.0,127.0,104.0,89.0,-103.0
127.0,126.0,127.0,127.0,127.0,132.0,127.0,128.0,31.0,-91.0,-72.0,127.0,127.0,127.0,104.0,89.0,-103.0
127.0,126.0,127.0,127.0,127.0,132.0,127.0,128.0,31.0,-91.0,-72.0,127.0,127.0,127.0,104.0,89.0,-103.0
127.0,126.0,127.0,127.0,127.0,133.0,126.0,128.0,31.0,-91.0,-72.0,127.0,127.0,127.0,104.0,89.0,-103.0
127.0,126.0,127.0,127.0,126.0,134.0,126.0,128.0,31.0,-91.0,-72.0,127.0,127.0,127.0,104.0,89.0,-103.0
127.0,127.0,127.0,128.0,127.0,131.0,127.0,128.0,31.0,-91.0,-72.0,127.0,127.0,127.0,104.0,89.0,-103.0
127.0,127.0,127.0,128.0,127.0,131.0,127.0,128.0,31.0,-91.0,-72.0,127.0,127.0,127.0,104.0,89.0,-103.0
127.0,127.0,127.0,128.0,127.0,132.0,127.0,128.0,31.0,-91.0,-72.0,127.0,127.0,127.0,104.0,89.0,-103.0
127.0,126.0,127.0,128.0,127.0,133.0,126.0,128.0,30.0,-91.0,-73.0,127.0,127.0,127.0,104.0,89.0,-103.0
127.0,126.0,127.0,128.0,127.0,133.0,126.0,128.0,30.0,-91.0,-73.0,127.0,127.0,127.0,104.0,89.0,-103.0
127.0,126.0,127.0,128.0,127.0,133.0,126.0,128.0,30.0,-91.0,-73.0,127.0,127.0,127.0,104.0,89.0,-103.0
127.0,126.0,127.0,127.0,126.0,134.0,126.0,128.0,30.0,-91.0,-73.0,127.0,127.0,127.0,104.0,89.0,-103.0
127.0,126.0,127.0,127.0,127.0,135.0,126.0,128.0,30.0,-91.0,-73.0,127.0,127.0,127.0,104.0,89.0,-103.0
127.0,126.0,127.0,127.0,127.0,135.0,126.0,128.0,30.0,-91.0,-73.0,127.0,127.0,127.0,104.0,89.0,-103.0
127.0,126.0,127.0,128.0,127.0,132.0,127.0,128.0,30.0,-91.0,-73.0,127.0,127.0,127.0,104.0,89.0,-103.0
127.0,126.0,127.0,128.0,127.0,132.0,126.0,128.0,30.0,-91.0,-73.0,127.0,127.0,127.0,104.0,89.0,-103.0
127.0,126.0,127.0,128.0,127.0,133.0,126.0,128.0,30.0,-91.0,-73.0,127.0,127.0,127.0,104.0,89.0,-103.0
127.0,126.0,127.0,128.0,127.0,134.0,126.0,128.0,30.0,-91.0,-73.0,127.0,127.0,127.0,104.0,89.0,-103.0
127.0,127.0,128.0,127.0,126.0,136.0,126.0,128.0,28.0,-91.0,-73.0,127.0,127.0,127.0,104.0,89.0,-103.0
127.0,127.0,128.0,127.0,126.0,136.0,126.0,128.0,28.0,-91.0,-73.0,127.0,127.0,127.0,104.0,89.0,-103.0
127.0,126.0,128.0,127.0,126.0,136.0,126.0,128.0,28.0,-91.0,-73.0,127.0,127.0,127.0,104.0,89.0,-103.0
127.0,127.0,128.0,127.0,126.0,137.0,126.0,128.0,28.0,-91.0,-73.0,127.0,127.0,127.0,104.0,89.0,-103.0
127.0,127.0,128.0,127.0,126.0,137.0,126.0,128.0,28.0,-91.0,-73.0,127.0,127.0,127.0,104.0,89.0,-103.0
127.0,126.0,128.0,128.0,127.0,134.0,126.0,128.0,28.0,-91.0,-73.0,127.0,127.0,127.0,104.0,89.0,-103.0
127.0,126.0,128.0,128.0,127.0,135.0,126.0,128.0,28.0,-91.0,-73.0,127.0,127.0,127.0,104.0,89.0,-103.0
127.0,127.0,128.0,128.0,127.0,136.0,126.0,128.0,28.0,-91.0,-73.0,127.0,127.0,127.0,104.0,89.0,-103.0
127.0,127.0,128.0,128.0,127.0,136.0,126.0,128.0,28.0,-91.0,-73.0,127.0,127.0,127.0,104.0,89.0,-103.0
127.0,127.0,128.0,127.0,127.0,136.0,126.0,128.0,28.0,-91.0,-73.0,127.0,127.0,127.0,104.0,89.0,-103.0
127.0,125.0,128.0,127.0,127.0,135.0,126.0,128.0,27.0,-91.0,-74.0,127.0,127.0,127.0,104.0,89.0,-103.0
127.0,125.0,128.0,127.0,127.0,135.0,126.0,128.0,27.0,-91.0,-74.0,127.0,127.0,127.0,104.0,89.0,-103.0
127.0,125.0,128.0,127.0,127.0,135.0,126.0,128.0,27.0,-91.0,-74.0,127.0,127.0,127.0,104.0,89.0,-103.0
127.0,125.0,128.0,127.0,127.0,135.0,126.0,128.0,27.0,-91.0,-74.0,127.0,127.0,127.0,104.0,89.0,-103.0
127.0,126.0,127.0,127.0,127.0,135.0,126.0,128.0,27.0,-91.0,-74.0,127.0,127.0,127.0,104.0,89.0,-103.0
127.0,126.0,127.0,127.0,127.0,135.0,126.0,128.0,27.0,-91.0,-74.0,127.0,127.0,127.0,104.0,89.0,-103.0
127.0,126.0,127.0,127.0,127.0,135.0,126.0,128.0,27.0,-91.0,-74.0,127.0,127.0,127.0,104.0,89.0,-103.0
127.0,126.0,127.0,127.0,127.0,135.0,126.0,128.0,27.0,-91.0,-74.0,127.0,127.0,127.0,104.0,89.0,-103.0
127.0,125.0,128.0,127.0,127.0,135.0,126.0,128.0,27.0,-91.0,-74.0,127.0,127.0,127.0,104.0,89.0,-103.0
127.0,125.0,128.0,127.0,127.0,135.0,126.0,128.0,27.0,-91.0,-74.0,127.0,127.0,127.0,104.0,89.0,-103.0
127.0,126.0,127.0,127.0,126.0,137.0,127.0,128.0,26.0,-91.0,-74.0,127.0,127.0,127.0,104.0,89.0,-103.0
127.0,126.0,127.0,126.0,126.0,138.0,126.0,128.0,26.0,-91.0,-74.0,127.0,127.0,127.0,104.0,89.0,-103.0
127.0,126.0,127.0,126.0,126.0,138.0,127.0,128.0,26.0,-91.0,-74.0,127.0,127.0,127.0,104.0,89.0,-103.0
127.0,126.0,127.0,127.0,127.0,136.0,127.0,128.0,26.0,-91.0,-74.0,127.0,127.0,127.0,104.0,89.0,-103.0
127.0,126.0,127.0,127.0,127.0,136.0,127.0,128.0,26.0,-91.0,-74.0,127.0,127.0,127.0,104.0,89.0,-103.0
127.0,126.0,127.0,127.0,127.0,136.0,127.0,128.0,26.0,-91.0,-74.0,127.0,127.0,127.0,104.0,89.0,-103.0
127.0,126.0,127.0,127.0,127.0,136.0,127.0,128.0,26.0,-91.0,-74.0,127.0,127.0,127.0,104.0,89.0,-103.0
127.0,126.0,127.0,127.0,126.0,136.0,127.0,128.0,26.0,-91.0,-74.0,127.0,127.0,127.0,104.0,89.0,-103.0
127.0,126.0,127.0,127.0,126.0,137.0,126.0,128.0,26.0,-91.0,-74.0,127.0,127.0,127.0,104.0,89.0,-103.0
127.0,126.0,127.0,127.0,126.0,137.0,127.0,128.0,26.0,-91.0,-74.0,127.0,127.0,127.0,104.0,89.0,-103.0
127.0,125.0,127.0,128.0,127.0,136.0,127.0,128.0,25.0,-92.0,-75.0,127.0,127.0,127.0,104.0,89.0,-103.0
127.0,126.0,127.0,128.0,127.0,137.0,127.0,128.0,25.0,-92.0,-75.0,127.0,127.0,127.0,104.0,89.0,-103.0
127.0,126.0,127.0,128.0,127.0,134.0,127.0,128.0,25.0,-92.0,-75.0,127.0,127.0,127.0,104.0,89.0,-103.0
127.0,126.0,127.0,128.0,127.0,134.0,127.0,128.0,25.0,-92.0,-75.0,127.0,127.0,127.0,104.0,89.0,-103.0
127.0,126.0,127.0,127.0,127.0,135.0,127.0,128.0,25.0,-92.0,-75.0,127.0,127.0,127.0,104.0,89.0,-103.0
127.0,126.0,127.0,128.0,127.0,136.0,127.0,128.0,25.0,-92.0,-75.0,127.0,127.0,127.0,104.0,89.0,-103.0
127.0,126.0,127.0,127.0,127.0,136.0,127.0,128.0,25.0,-92.0,-75.0,127.0,127.0,127.0,104.0,89.0,-103.0
127.0,126.0,127.0,127.0,127.0,135.0,127.0,128.0,25.0,-92.0,-75.0,127.0,127.0,127.0,104.0,89.0,-103.0
127.0,126.0,127.0,127.0,127.0,135.0,127.0,128.0,25.0,-92.0,-75.0,127.0,127.0,127.0,104.0,89.0,-103.0
127.0,126.0,127.0,128.0,127.0,135.0,127.0,128.0,25.0,-92.0,-75.0,127.0,127.0,127.0,104.0,89.0,-103.0
127.0,126.0,127.0,127.0,127.0,134.0,127.0,128.0,24.0,-92.0,-75.0,127.0,127.0,127.0,104.0,89.0,-103.0
127.0,126.0,127.0,127.0,127.0,131.0,127.0,128.0,24.0,-92.0,-75.0,127.0,127.0,127.0,104.0,89.0,-103.0
127.0,126.0,127.0,127.0,127.0,132.0,127.0,128.0,24.0,-92.0,-75.0,127.0,127.0,127.0,104.0,89.0,-103.0
127.0,126.0,127.0,127.0,127.0,133.0,127.0,128.0,24.0,-92.0,-75.0,127.0,127.0,127.0,104.0,89.0,-103.0
127.0,126.0,127.0,127.0,127.0,133.0,127.0,128.0,24.0,-92.0,-75.0,127.0,127.0,127.0,104.0,89.0,-103.0
127.0,126.0,127.0,127.0,127.0,133.0,127.0,128.0,24.0,-92.0,-75.0,127.0,127.0,127.0,104.0,89.0,-103.0
127.0,126.0,127.0,127.0,127.0,133.0,127.0,128.0,24.0,-92.0,-75.0,127.0,127.0,127.0,104.0,89.0,-103.0
127.0,126.0,127.0,127.0,127.0,133.0,127.0,128.0,24.0,-92.0,-75.0,127.0,127.0,127.0,104.0,89.0,-103.0
127.0,126.0,127.0,127.0,127.0,133.0,127.0,128.0,24.0,-92.0,-75.0,127.0,127.0,127.0,104.0,89.0,-103.0
127.0,126.0,127.0,127.0,127.0,133.0,127.0,128.0,24.0,-92.0,-75.0,127.0,127.0,127.0,104.0,89.0,-103.0
127.0,126.0,127.0,127.0,126.0,130.0,127.0,128.0,24.0,-92.0,-75.0,127.0,127.0,127.0,104.0,89.0,-103.0
127.0,126.0,126.0,127.0,126.0,130.0,127.0,128.0,24.0,-92.0,-75.0,127.0,127.0,127.0,104.0,89.0,-103.0
127.0,126.0,126.0,127.0,126.0,131.0,127.0,128.0,24.0,-92.0,-75.0,127.0,127.0,127.0,104.0,89.0,-103.0
127.0,126.0,126.0,127.0,126.0,132.0,127.0,128.0,24.0,-92.0,-75.0,127.0,127.0,127.0,104.0,89.0,-103.0
127.0,126.0,126.0,127.0,126.0,132.0,127.0,128.0,24.0,-92.0,-75.0,127.0,127.0,127.0,104.0,89.0,-103.0
127.0,126.0,127.0,127.0,126.0,132.0,127.0,128.0,24.0,-92.0,-75.0,127.0,127.0,127.0,104.0,89.0,-103.0
127.0,126.0,127.0,127.0,126.0,131.0,127.0,128.0,24.0,-92.0,-75.0,127.0,127.0,127.0,104.0,89.0,-103.0
127.0,126.0,127.0,127.0,126.0,132.0,127.0,128.0,24.0,-92.0,-75.0,127.0,127.0,127.0,104.0,89.0,-103.0
127.0,125.0,126.0,127.0,126.0,132.0,127.0,128.0,24.0,-92.0,-75.0,127.0,127.0,127.0,104.0,89.0,-103.0
127.0,126.0,127.0,127.0,126.0,133.0,127.0,128.0,24.0,-92.0,-75.0,127.0,127.0,127.0,104.0,89.0,-103.0
127.0,126.0,126.0,128.0,127.0,131.0,127.0,128.0,24.0,-92.0,-76.0,127.0,127.0,127.0,104.0,89.0,-103.0
127.0,126.0,126.0,128.0,127.0,131.0,127.0,128.0,24.0,-92.0,-76.0,127.0,127.0,127.0,104.0,89.0,-103.0
127.0,126.0,126.0,128.0,127.0,131.0,127.0,128.0,24.0,-92.0,-76.0,127.0,127.0,127.0,104.0,89.0,-103.0
127.0,126.0,126.0,128.0,127.0,131.0,127.0,128.0,24.0,-92.0,-76.0,127.0,127.0,127.0,104.0,89.0,-103.0
127.0,126.0,126.0,128.0,127.0,131.0,127.0,128.0,24.0,-92.0,-76.0,127.0,127.0,127.0,104.0,89.0,-103.0
127.0,125.0,126.0,128.0,127.0,131.0,127.0,128.0,24.0,-92.0,-76.0,127.0,127.0,127.0,104.0,89.0,-103.0
127.0,126.0,126.0,128.0,127.0,131.0,127.0,128.0,24.0,-92.0,-76.0,127.0,127.0,127.0,104.0,89.0,-103.0
127.0,125.0,126.0,128.0,127.0,131.0,127.0,128.0,24.0,-92.0,-76.0,127.0,127.0,127.0,104.0,89.0,-103.0
127.0,125.0,127.0,128.0,127.0,131.0,127.0,128.0,24.0,-92.0,-76.0,127.0,127.0,127.0,104.0,89.0,-103.0
127.0,126.0,126.0,128.0,127.0,131.0,127.0,128.0,24.0,-92.0,-76.0,127.0,127.0,127.0,104.0,89.0,-103.0
127.0,127.0,126.0,128.0,127.0,132.0,127.0,128.0,24.0,-92.0,-76.0,127.0,127.0,127.0,104.0,89.0,-103.0
127.0,126.0,126.0,128.0,127.0,131.0,127.0,128.0,24.0,-92.0,-76.0,127.0,127.0,127.0,104.0,89.0,-103.0
127.0,126.0,126.0,128.0,127.0,131.0,127.0,128.0,24.0,-92.0,-76.0,127.0,127.0,127.0,104.0,89.0,-103.0
127.0,126.0,126.0,128.0,127.0,131.0,127.0,128.0,24.0,-92.0,-76.0,127.0,127.0,127.0,104.0,89.0,-103.0
127.0,126.0,127.0,127.0,127.0,131.0,127.0,128.0,24.0,-92.0,-76.0,127.0,127.0,127.0,104.0,89.0,-103.0
127.0,126.0,126.0,127.0,127.0,131.0,127.0,128.0,24.0,-92.0,-76.0,127.0,127.0,127.0,104.0,89.0,-103.0
127.0,126.0,127.0,128.0,127.0,131.0,127.0,128.0,24.0,-92.0,-76.0,127.0,127.0,127.0,104.0,89.0,-103.0
127.0,125.0,127.0,127.0,126.0,131.0,127.0,128.0,24.0,-92.0,-76.0,127.0,127.0,127.0,104.0,89.0,-103.0
127.0,127.0,126.0,128.0,127.0,132.0,127.0,128.0,24.0,-92.0,-76.0,127.0,127.0,127.0,104.0,89.0,-103.0
127.0,127.0,126.0,128.0,127.0,132.0,127.0,128.0,24.0,-92.0,-76.0,127.0,127.0,127.0,104.0,89.0,-103.0
127.0,126.0,126.0,130.0,127.0,133.0,127.0,128.0,25.0,-93.0,-76.0,127.0,127.0,127.0,104.0,89.0,-103.0
127.0,126.0,126.0,130.0,127.0,133.0,127.0,128.0,25.0,-93.0,-76.0,127.0,127.0,127.0,104.0,89.0,-103.0
127.0,126.0,126.0,130.0,127.0,132.0,127.0,128.0,25.0,-93.0,-76.0,127.0,127.0,127.0,104.0,89.0,-103.0
127.0,126.0,127.0,130.0,127.0,132.0,127.0,128.0,25.0,-93.0,-76.0,127.0,127.0,127.0,104.0,89.0,-103.0
127.0,126.0,127.0,130.0,127.0,132.0,127.0,128.0,25.0,-93.0,-76.0,127.0,127.0,127.0,104.0,89.0,-103.0
127.0,125.0,127.0,130.0,127.0,132.0,127.0,128.0,25.0,-93.0,-76.0,127.0,127.0,127.0,104.0,89.0,-103.0
127.0,127.0,126.0,129.0,127.0,133.0,127.0,128.0,25.0,-93.0,-76.0,127.0,127.0,127.0,104.0,89.0,-103.0
127.0,127.0,126.0,129.0,127.0,133.0,127.0,128.0,25.0,-93.0,-76.0,127.0,127.0,127.0,104.0,89.0,-103.0
127.0,127.0,126.0,130.0,127.0,133.0,127.0,128.0,25.0,-93.0,-76.0,127.0,127.0,127.0,104.0,89.0,-103.0
127.0,127.0,126.0,130.0,127.0,133.0,127.0,128.0,25.0,-93.0,-76.0,127.0,127.0,127.0,104.0,89.0,-103.0
127.0,125.0,121.0,125.0,125.0,132.0,126.0,127.0,25.0,-93.0,-76.0,127.0,127.0,127.0,104.0,89.0,-103.0
127.0,125.0,121.0,126.0,125.0,132.0,126.0,127.0,25.0,-93.0,-76.0,127.0,127.0,127.0,104.0,89.0,-103.0
127.0,125.0,122.0,126.0,125.0,133.0,126.0,127.0,25.0,-93.0,-76.0,127.0,127.0,127.0,104.0,89.0,-103.0
127.0,125.0,122.0,126.0,125.0,134.0,126.0,127.0,25.0,-93.0,-76.0,127.0,127.0,127.0,104.0,89.0,-103.0
127.0,125.0,123.0,127.0,125.0,134.0,126.0,127.0,25.0,-93.0,-76.0,127.0,127.0,127.0,104.0,89.0,-103.0
127.0,125.0,121.0,125.0,125.0,131.0,126.0,127.0,25.0,-93.0,-76.0,127.0,127.0,127.0,104.0,89.0,-103.0
127.0,125.0,121.0,125.0,125.0,131.0,126.0,127.0,25.0,-93.0,-76.0,127.0,127.0,127.0,104.0,89.0,-103.0
127.0,125.0,121.0,125.0,125.0,132.0,126.0,127.0,25.0,-93.0,-76.0,127.0,127.0,127.0,104.0,89.0,-103.0
127.0,125.0,121.0,125.0,125.0,132.0,126.0,127.0,25.0,-93.0,-76.0,127.0,127.0,127.0,104.0,89.0,-103.0
127.0,125.0,121.0,125.0,125.0,132.0,126.0,127.0,25.0,-93.0,-76.0,127.0,127.0,127.0,104.0,89.0,-103.0
127.0,125.0,108.0,118.0,126.0,132.0,127.0,128.0,25.0,-93.0,-76.0,127.0,127.0,127.0,104.0,89.0,-103.0
127.0,125.0,109.0,119.0,126.0,131.0,127.0,128.0,25.0,-93.0,-76.0,127.0,127.0,127.0,104.0,89.0,-103.0
127.0,125.0,110.0,122.0,126.0,131.0,126.0,127.0,25.0,-93.0,-76.0,127.0,127.0,127.0,104.0,89.0,-103.0
127.0,125.0,111.0,125.0,126.0,131.0,126.0,127.0,25.0,-93.0,-76.0,127.0,127.0,127.0,104.0,89.0,-103.0
127.0,126.0,110.0,121.0,127.0,131.0,126.0,127.0,25.0,-93.0,-76.0,127.0,127.0,127.0,104.0,89.0,-103.0
127.0,127.0,109.0,120.0,127.0,132.0,126.0,127.0,25.0,-93.0,-76.0,127.0,127.0,127.0,104.0,89.0,-103.0
127.0,126.0,108.0,119.0,127.0,132.0,127.0,128.0,25.0,-93.0,-76.0,127.0,127.0,127.0,104.0,89.0,-103.0
127.0,126.0,108.0,118.0,126.0,132.0,127.0,128.0,25.0,-93.0,-76.0,127.0,127.0,127.0,104.0,89.0,-103.0
127.0,126.0,108.0,117.0,126.0,132.0,127.0,128.0,25.0,-93.0,-76.0,127.0,127.0,127.0,104.0,89.0,-103.0
127.0,125.0,108.0,117.0,126.0,132.0,127.0,128.0,25.0,-93.0,-76.0,127.0,127.0,127.0,104.0,89.0,-103.0
127.0,126.0,115.0,137.0,130.0,125.0,127.0,128.0,26.0,-94.0,-76.0,127.0,127.0,127.0,104.0,89.0,-103.0
127.0,126.0,115.0,136.0,129.0,125.0,127.0,128.0,26.0,-94.0,-76.0,127.0,127.0,127.0,104.0,89.0,-103.0
127.0,126.0,114.0,136.0,130.0,125.0,127.0,128.0,26.0,-94.0,-76.0,127.0,127.0,127.0,104.0,89.0,-103.0
127.0,127.0,123.0,144.0,130.0,126.0,127.0,124.0,26.0,-94.0,-76.0,127.0,127.0,127.0,104.0,89.0,-103.0
127.0,127.0,121.0,144.0,130.0,126.0,127.0,125.0,26.0,-94.0,-76.0,127.0,127.0,127.0,104.0,89.0,-103.0
127.0,127.0,120.0,143.0,130.0,126.0,127.0,127.0,26.0,-94.0,-76.0,127.0,127.0,127.0,104.0,89.0,-103.0
127.0,127.0,119.0,142.0,130.0,126.0,127.0,128.0,26.0,-94.0,-76.0,127.0,127.0,127.0,104.0,89.0,-103.0
127.0,127.0,118.0,141.0,130.0,126.0,128.0,129.0,26.0,-94.0,-76.0,127.0,127.0,127.0,104.0,89.0,-103.0
127.0,127.0,116.0,140.0,130.0,126.0,127.0,129.0,26.0,-94.0,-76.0,127.0,127.0,127.0,104.0,89.0,-103.0
127.0,127.0,116.0,139.0,130.0,126.0,127.0,128.0,26.0,-94.0,-76.0,127.0,127.0,127.0,104.0,89.0,-103.0
131.0,129.0,90.0,146.0,128.0,133.0,131.0,132.0,26.0,-94.0,-75.0,127.0,127.0,127.0,104.0,89.0,-103.0
132.0,129.0,90.0,147.0,129.0,134.0,131.0,132.0,26.0,-94.0,-75.0,127.0,127.0,127.0,104.0,89.0,-103.0
128.0,126.0,84.0,130.0,127.0,130.0,130.0,132.0,26.0,-94.0,-75.0,127.0,127.0,127.0,104.0,89.0,-103.0
129.0,127.0,86.0,133.0,127.0,131.0,130.0,132.0,26.0,-94.0,-75.0,127.0,127.0,127.0,104.0,89.0,-103.0
129.0,127.0,87.0,136.0,127.0,132.0,131.0,133.0,26.0,-94.0,-75.0,127.0,127.0,127.0,104.0,89.0,-103.0
129.0,128.0,88.0,139.0,127.0,132.0,131.0,133.0,26.0,-94.0,-75.0,127.0,127.0,127.0,104.0,89.0,-103.0
130.0,128.0,89.0,141.0,127.0,132.0,131.0,133.0,26.0,-94.0,-75.0,127.0,127.0,127.0,104.0,89.0,-103.0
130.0,128.0,89.0,142.0,128.0,133.0,131.0,133.0,26.0,-94.0,-75.0,127.0,127.0,127.0,104.0,89.0,-103.0
130.0,129.0,90.0,143.0,128.0,133.0,131.0,133.0,26.0,-94.0,-75.0,127.0,127.0,127.0,104.0,89.0,-103.0
131.0,129.0,90.0,144.0,128.0,133.0,131.0,132.0,26.0,-94.0,-75.0,127.0,127.0,127.0,104.0,89.0,-103.0
129.0,127.0,35.0,141.0,127.0,141.0,132.0,136.0,26.0,-96.0,-75.0,-128.0,127.0,127.0,104.0,89.0,-103.0
125.0,130.0,73.0,140.0,130.0,140.0,132.0,135.0,26.0,-96.0,-75.0,-128.0,127.0,127.0,104.0,89.0,-103.0
126.0,130.0,68.0,139.0,130.0,141.0,132.0,135.0,26.0,-96.0,-75.0,-128.0,127.0,127.0,104.0,89.0,-103.0
127.0,129.0,64.0,138.0,130.0,141.0,133.0,136.0,26.0,-96.0,-75.0,-128.0,127.0,127.0,104.0,89.0,-103.0
127.0,129.0,59.0,137.0,129.0,141.0,133.0,136.0,26.0,-96.0,-75.0,-128.0,127.0,127.0,104.0,89.0,-103.0
128.0,129.0,55.0,136.0,129.0,141.0,133.0,136.0,26.0,-96.0,-75.0,-128.0,127.0,127.0,104.0,89.0,-103.0
128.0,128.0,51.0,137.0,129.0,141.0,133.0,136.0,26.0,-96.0,-75.0,-128.0,127.0,127.0,104.0,89.0,-103.0
128.0,128.0,47.0,138.0,128.0,141.0,133.0,136.0,26.0,-96.0,-75.0,-128.0,127.0,127.0,104.0,89.0,-103.0
129.0,128.0,43.0,139.0,128.0,141.0,133.0,136.0,26.0,-96.0,-75.0,-128.0,127.0,127.0,104.0,89.0,-103.0
129.0,127.0,39.0,141.0,127.0,141.0,132.0,136.0,26.0,-96.0,-75.0,-128.0,127.0,127.0,104.0,89.0,-103.0
129.0,120.0,0.0,180.0,132.0,133.0,124.0,127.0,26.0,-98.0,-77.0,-128.0,127.0,127.0,104.0,89.0,-103.0
129.0,120.0,0.0,180.0,132.0,134.0,124.0,126.0,26.0,-98.0,-77.0,-128.0,127.0,127.0,104.0,89.0,-103.0
129.0,120.0,0.0,181.0,132.0,134.0,124.0,126.0,26.0,-98.0,-77.0,-128.0,127.0,127.0,104.0,89.0,-103.0
130.0,120.0,0.0,182.0,132.0,133.0,124.0,125.0,26.0,-98.0,-77.0,-128.0,127.0,127.0,104.0,89.0,-103.0
130.0,120.0,0.0,182.0,131.0,133.0,124.0,124.0,26.0,-98.0,-77.0,-128.0,127.0,127.0,104.0,89.0,-103.0
131.0,120.0,0.0,183.0,131.0,132.0,123.0,123.0,26.0,-98.0,-77.0,-128.0,127.0,127.0,104.0,89.0,-103.0
131.0,120.0,0.0,182.0,130.0,132.0,123.0,122.0,26.0,-98.0,-77.0,-128.0,127.0,127.0,104.0,89.0,-103.0
131.0,119.0,0.0,180.0,129.0,132.0,123.0,122.0,26.0,-98.0,-77.0,-128.0,127.0,127.0,104.0,89.0,-103.0
132.0,119.0,0.0,178.0,129.0,131.0,123.0,122.0,26.0,-98.0,-77.0,-128.0,127.0,127.0,104.0,89.0,-103.0
132.0,118.0,0.0,175.0,128.0,131.0,123.0,121.0,26.0,-98.0,-77.0,-128.0,127.0,127.0,104.0,89.0,-103.0
131.0,121.0,0.0,149.0,126.0,123.0,127.0,130.0,28.0,-96.0,-76.0,-128.0,127.0,127.0,104.0,89.0,-103.0
131.0,122.0,0.0,148.0,126.0,123.0,127.0,130.0,28.0,-96.0,-76.0,-128.0,127.0,127.0,104.0,89.0,-103.0
131.0,122.0,0.0,146.0,126.0,122.0,127.0,129.0,28.0,-96.0,-76.0,-128.0,127.0,127.0,104.0,89.0,-103.0
130.0,122.0,0.0,144.0,126.0,121.0,127.0,128.0,28.0,-96.0,-76.0,-128.0,127.0,127.0,104.0,89.0,-103.0
130.0,122.0,0.0,143.0,125.0,120.0,127.0,128.0,28.0,-96.0,-76.0,-128.0,127.0,127.0,104.0,89.0,-103.0
130.0,122.0,0.0,141.0,125.0,120.0,127.0,127.0,28.0,-96.0,-76.0,-128.0,127.0,127.0,104.0,89.0,-103.0
130.0,121.0,0.0,140.0,125.0,119.0,127.0,127.0,28.0,-96.0,-76.0,-128.0,127.0,127.0,104.0,89.0,-103.0
129.0,121.0,0.0,139.0,125.0,118.0,127.0,127.0,28.0,-96.0,-76.0,-128.0,127.0,127.0,104.0,89.0,-103.0
129.0,120.0,0.0,138.0,125.0,118.0,127.0,127.0,28.0,-96.0,-76.0,-128.0,127.0,127.0,104.0,89.0,-103.0
131.0,120.0,0.0,150.0,126.0,123.0,127.0,130.0,28.0,-96.0,-76.0,-128.0,127.0,127.0,104.0,89.0,-103.0
134.0,131.0,0.0,141.0,132.0,133.0,127.0,127.0,26.0,-96.0,-75.0,-128.0,127.0,127.0,104.0,89.0,-103.0
134.0,131.0,0.0,140.0,132.0,134.0,127.0,128.0,26.0,-96.0,-75.0,-128.0,127.0,127.0,104.0,89.0,-103.0
134.0,131.0,0.0,139.0,133.0,134.0,127.0,129.0,26.0,-96.0,-75.0,-128.0,127.0,127.0,104.0,89.0,-103.0
135.0,131.0,0.0,140.0,133.0,135.0,127.0,130.0,26.0,-96.0,-75.0,-128.0,127.0,127.0,104.0,89.0,-103.0
135.0,132.0,0.0,141.0,132.0,136.0,126.0,130.0,26.0,-96.0,-75.0,-128.0,127.0,127.0,104.0,89.0,-103.0
135.0,131.0,0.0,141.0,132.0,136.0,126.0,130.0,26.0,-96.0,-75.0,-128.0,127.0,127.0,104.0,89.0,-103.0
135.0,131.0,0.0,142.0,132.0,137.0,126.0,130.0,26.0,-96.0,-75.0,-128.0,127.0,127.0,104.0,89.0,-103.0
136.0,132.0,0.0,142.0,132.0,138.0,126.0,129.0,26.0,-96.0,-75.0,-128.0,127.0,127.0,104.0,89.0,-103.0
132.0,130.0,0.0,144.0,132.0,130.0,127.0,125.0,26.0,-96.0,-75.0,-128.0,127.0,127.0,104.0,89.0,-103.0
133.0,130.0,0.0,143.0,132.0,131.0,126.0,126.0,26.0,-96.0,-75.0,-128.0,127.0,127.0,104.0,89.0,-103.0
130.0,126.0,0.0,107.0,125.0,147.0,121.0,124.0,25.0,-93.0,-74.0,-128.0,126.0,126.0,104.0,89.0,-103.0
131.0,126.0,0.0,105.0,125.0,147.0,121.0,124.0,25.0,-93.0,-74.0,-128.0,126.0,126.0,104.0,89.0,-103.0
131.0,126.0,0.0,104.0,125.0,148.0,121.0,125.0,25.0,-93.0,-74.0,-128.0,126.0,126.0,104.0,89.0,-103.0
131.0,126.0,0.0,101.0,125.0,148.0,121.0,125.0,25.0,-93.0,-74.0,-128.0,126.0,126.0,104.0,89.0,-103.0
130.0,125.0,0.0,99.0,124.0,148.0,121.0,125.0,25.0,-93.0,-74.0,-128.0,126.0,126.0,104.0,89.0,-103.0
130.0,125.0,0.0,97.0,124.0,147.0,121.0,125.0,25.0,-93.0,-74.0,-128.0,126.0,126.0,104.0,89.0,-103.0
129.0,124.0,0.0,96.0,124.0,147.0,121.0,125.0,25.0,-93.0,-74.0,-128.0,126.0,126.0,104.0,89.0,-103.0
130.0,127.0,0.0,110.0,126.0,148.0,121.0,123.0,25.0,-93.0,-74.0,-128.0,126.0,126.0,104.0,89.0,-103.0
130.0,126.0,0.0,108.0,126.0,147.0,121.0,123.0,25.0,-93.0,-74.0,-128.0,126.0,126.0,104.0,89.0,-103.0
130.0,126.0,0.0,108.0,125.0,147.0,121.0,124.0,25.0,-93.0,-74.0,-128.0,126.0,126.0,104.0,89.0,-103.0
126.0,126.0,115.0,100.0,125.0,148.0,125.0,122.0,26.0,-90.0,-74.0,127.0,126.0,127.0,104.0,89.0,-103.0
126.0,124.0,127.0,101.0,125.0,147.0,125.0,122.0,26.0,-90.0,-74.0,127.0,126.0,127.0,104.0,89.0,-103.0
125.0,123.0,139.0,104.0,124.0,147.0,125.0,122.0,26.0,-90.0,-74.0,127.0,126.0,127.0,104.0,89.0,-103.0
125.0,122.0,150.0,107.0,124.0,147.0,125.0,123.0,26.0,-90.0,-74.0,127.0,126.0,127.0,104.0,89.0,-103.0
126.0,121.0,162.0,109.0,124.0,148.0,125.0,124.0,26.0,-90.0,-74.0,127.0,126.0,127.0,104.0,89.0,-103.0
126.0,121.0,173.0,110.0,125.0,148.0,125.0,126.0,26.0,-90.0,-74.0,127.0,126.0,127.0,104.0,89.0,-103.0
126.0,128.0,71.0,101.0,128.0,148.0,125.0,125.0,26.0,-90.0,-74.0,127.0,126.0,127.0,104.0,89.0,-103.0
126.0,128.0,81.0,100.0,127.0,147.0,125.0,124.0,26.0,-90.0,-74.0,127.0,126.0,127.0,104.0,89.0,-103.0
126.0,128.0,93.0,99.0,126.0,147.0,125.0,123.0,26.0,-90.0,-74.0,127.0,126.0,127.0,104.0,89.0,-103.0
126.0,127.0,104.0,99.0,126.0,148.0,125.0,123.0,26.0,-90.0,-74.0,127.0,126.0,127.0,104.0,89.0,-103.0
126.0,111.0,226.0,108.0,122.0,163.0,124.0,128.0,27.0,-92.0,-74.0,126.0,126.0,127.0,104.0,89.0,-103.0
126.0,111.0,224.0,107.0,122.0,163.0,124.0,128.0,27.0,-92.0,-74.0,126.0,126.0,127.0,104.0,89.0,-103.0
126.0,110.0,222.0,106.0,122.0,162.0,124.0,128.0,27.0,-92.0,-74.0,126.0,126.0,127.0,104.0,89.0,-103.0
126.0,110.0,219.0,105.0,122.0,162.0,124.0,128.0,27.0,-92.0,-74.0,126.0,126.0,127.0,104.0,89.0,-103.0
126.0,110.0,217.0,105.0,122.0,161.0,124.0,127.0,27.0,-92.0,-74.0,126.0,126.0,127.0,104.0,89.0,-103.0
127.0,113.0,238.0,115.0,124.0,163.0,124.0,129.0,27.0,-92.0,-74.0,126.0,126.0,127.0,104.0,89.0,-103.0
127.0,112.0,236.0,114.0,123.0,163.0,124.0,129.0,27.0,-92.0,-74.0,126.0,126.0,127.0,104.0,89.0,-103.0
127.0,112.0,234.0,112.0,123.0,163.0,124.0,129.0,27.0,-92.0,-74.0,126.0,126.0,127.0,104.0,89.0,-103.0
126.0,111.0,231.0,110.0,122.0,163.0,124.0,128.0,27.0,-92.0,-74.0,126.0,126.0,127.0,104.0,89.0,-103.0
126.0,111.0,229.0,109.0,122.0,163.0,124.0,128.0,27.0,-92.0,-74.0,126.0,126.0,127.0,104.0,89.0,-103.0
126.0,113.0,180.0,96.0,124.0,110.0,126.0,126.0,30.0,-96.0,-72.0,127.0,127.0,127.0,105.0,89.0,-104.0
126.0,113.0,180.0,95.0,124.0,109.0,126.0,127.0,30.0,-96.0,-72.0,127.0,127.0,127.0,105.0,89.0,-104.0
126.0,113.0,180.0,94.0,123.0,108.0,126.0,127.0,30.0,-96.0,-72.0,127.0,127.0,127.0,105.0,89.0,-104.0
126.0,113.0,180.0,92.0,123.0,107.0,126.0,127.0,30.0,-96.0,-72.0,127.0,127.0,127.0,105.0,89.0,-104.0
127.0,113.0,184.0,96.0,124.0,117.0,126.0,127.0,30.0,-96.0,-72.0,127.0,127.0,127.0,105.0,89.0,-104.0
127.0,113.0,184.0,96.0,124.0,116.0,126.0,126.0,30.0,-96.0,-72.0,127.0,127.0,127.0,105.0,89.0,-104.0
127.0,113.0,183.0,96.0,124.0,115.0,126.0,126.0,30.0,-96.0,-72.0,127.0,127.0,127.0,105.0,89.0,-104.0
126.0,113.0,182.0,96.0,124.0,113.0,126.0,126.0,30.0,-96.0,-72.0,127.0,127.0,127.0,105.0,89.0,-104.0
126.0,113.0,181.0,96.0,124.0,112.0,126.0,126.0,30.0,-96.0,-72.0,127.0,127.0,127.0,105.0,89.0,-104.0
126.0,113.0,181.0,96.0,124.0,111.0,126.0,126.0,30.0,-96.0,-72.0,127.0,127.0,127.0,105.0,89.0,-104.0
126.0,115.0,252.0,88.0,119.0,107.0,123.0,116.0,34.0,-98.0,-71.0,-128.0,127.0,127.0,106.0,89.0,-104.0
125.0,114.0,254.0,91.0,118.0,109.0,122.0,116.0,34.0,-98.0,-71.0,-128.0,127.0,127.0,106.0,89.0,-104.0
125.0,114.0,254.0,96.0,119.0,111.0,122.0,117.0,34.0,-98.0,-71.0,-128.0,127.0,127.0,106.0,89.0,-104.0
128.0,120.0,229.0,96.0,122.0,94.0,124.0,126.0,34.0,-98.0,-71.0,-128.0,127.0,127.0,106.0,89.0,-104.0
128.0,119.0,232.0,93.0,122.0,95.0,124.0,124.0,34.0,-98.0,-71.0,-128.0,127.0,127.0,106.0,89.0,-104.0
128.0,119.0,236.0,90.0,121.0,97.0,124.0,123.0,34.0,-98.0,-71.0,-128.0,127.0,127.0,106.0,89.0,-104.0
127.0,118.0,239.0,88.0,120.0,98.0,124.0,121.0,34.0,-98.0,-71.0,-128.0,127.0,127.0,106.0,89.0,-104.0
127.0,117.0,242.0,86.0,120.0,100.0,123.0,119.0,34.0,-98.0,-71.0,-128.0,127.0,127.0,106.0,89.0,-104.0
127.0,116.0,245.0,85.0,119.0,102.0,123.0,117.0,34.0,-98.0,-71.0,-128.0,127.0,127.0,106.0,89.0,-104.0
126.0,115.0,249.0,86.0,119.0,104.0,123.0,116.0,34.0,-98.0,-71.0,-128.0,127.0,127.0,106.0,89.0,-104.0
124.0,122.0,254.0,98.0,123.0,58.0,126.0,128.0,35.0,-96.0,-71.0,-128.0,127.0,127.0,106.0,89.0,-104.0
124.0,122.0,254.0,109.0,123.0,63.0,125.0,127.0,35.0,-96.0,-71.0,-128.0,127.0,127.0,106.0,89.0,-104.0
123.0,122.0,254.0,109.0,124.0,62.0,125.0,127.0,35.0,-96.0,-71.0,-128.0,127.0,127.0,106.0,89.0,-104.0
123.0,122.0,254.0,109.0,124.0,62.0,125.0,127.0,35.0,-96.0,-71.0,-128.0,127.0,127.0,106.0,89.0,-104.0
123.0,122.0,254.0,108.0,124.0,61.0,126.0,128.0,35.0,-96.0,-71.0,-128.0,127.0,127.0,106.0,89.0,-104.0
123.0,122.0,254.0,107.0,124.0,60.0,126.0,128.0,35.0,-96.0,-71.0,-128.0,127.0,127.0,106.0,89.0,-104.0
123.0,122.0,254.0,105.0,124.0,60.0,126.0,128.0,35.0,-96.0,-71.0,-128.0,127.0,127.0,106.0,89.0,-104.0
123.0,122.0,254.0,103.0,124.0,59.0,126.0,128.0,35.0,-96.0,-71.0,-128.0,127.0,127.0,106.0,89.0,-104.0
124.0,122.0,254.0,101.0,123.0,58.0,126.0,128.0,35.0,-96.0,-71.0,-128.0,127.0,127.0,106.0,89.0,-104.0
124.0,122.0,254.0,99.0,123.0,58.0,126.0,128.0,35.0,-96.0,-71.0,-128.0,127.0,127.0,106.0,89.0,-104.0
129.0,126.0,222.0,95.0,122.0,74.0,127.0,128.0,34.0,-94.0,-72.0,127.0,127.0,127.0,106.0,89.0,-104.0
128.0,126.0,223.0,95.0,122.0,75.0,127.0,128.0,34.0,-94.0,-72.0,127.0,127.0,127.0,106.0,89.0,-104.0
128.0,126.0,224.0,94.0,122.0,76.0,127.0,128.0,34.0,-94.0,-72.0,127.0,127.0,127.0,106.0,89.0,-104.0
128.0,125.0,225.0,94.0,121.0,76.0,126.0,128.0,34.0,-94.0,-72.0,127.0,127.0,127.0,106.0,89.0,-104.0
128.0,126.0,226.0,93.0,121.0,76.0,126.0,128.0,34.0,-94.0,-72.0,127.0,127.0,127.0,106.0,89.0,-104.0
128.0,126.0,227.0,93.0,121.0,77.0,126.0,128.0,34.0,-94.0,-72.0,127.0,127.0,127.0,106.0,89.0,-104.0
129.0,126.0,228.0,93.0,122.0,77.0,126.0,128.0,34.0,-94.0,-72.0,127.0,127.0,127.0,106.0,89.0,-104.0
129.0,126.0,230.0,93.0,122.0,78.0,126.0,128.0,34.0,-94.0,-72.0,127.0,127.0,127.0,106.0,89.0,-104.0
129.0,126.0,231.0,94.0,122.0,79.0,126.0,128.0,34.0,-94.0,-72.0,127.0,127.0,127.0,106.0,89.0,-104.0
129.0,126.0,232.0,95.0,123.0,79.0,126.0,128.0,34.0,-94.0,-72.0,127.0,127.0,127.0,106.0,89.0,-104.0
128.0,127.0,254.0,107.0,128.0,96.0,128.0,126.0,32.0,-93.0,-73.0,127.0,127.0,127.0,106.0,89.0,-104.0
128.0,127.0,254.0,107.0,128.0,96.0,128.0,126.0,32.0,-93.0,-73.0,127.0,127.0,127.0,106.0,89.0,-104.0
128.0,127.0,253.0,106.0,128.0,96.0,128.0,126.0,32.0,-93.0,-73.0,127.0,127.0,127.0,106.0,89.0,-104.0
128.0,127.0,252.0,105.0,128.0,96.0,128.0,125.0,32.0,-93.0,-73.0,127.0,127.0,127.0,106.0,89.0,-104.0
128.0,127.0,251.0,104.0,128.0,97.0,128.0,125.0,32.0,-93.0,-73.0,127.0,127.0,127.0,106.0,89.0,-104.0
128.0,127.0,249.0,103.0,128.0,97.0,128.0,125.0,32.0,-93.0,-73.0,127.0,127.0,127.0,106.0,89.0,-104.0
129.0,127.0,248.0,102.0,127.0,97.0,128.0,125.0,32.0,-93.0,-73.0,127.0,127.0,127.0,106.0,89.0,-104.0
129.0,127.0,246.0,102.0,127.0,97.0,128.0,126.0,32.0,-93.0,-73.0,127.0,127.0,127.0,106.0,89.0,-104.0
129.0,127.0,244.0,101.0,127.0,97.0,128.0,126.0,32.0,-93.0,-73.0,127.0,127.0,127.0,106.0,89.0,-104.0
128.0,126.0,254.0,108.0,128.0,95.0,128.0,126.0,32.0,-93.0,-73.0,127.0,127.0,127.0,106.0,89.0,-104.0
127.0,124.0,151.0,108.0,124.0,99.0,127.0,127.0,30.0,-93.0,-72.0,127.0,127.0,127.0,106.0,89.0,-104.0
127.0,124.0,152.0,108.0,124.0,100.0,126.0,127.0,30.0,-93.0,-72.0,127.0,127.0,127.0,106.0,89.0,-104.0
128.0,124.0,152.0,108.0,124.0,101.0,126.0,127.0,30.0,-93.0,-72.0,127.0,127.0,127.0,106.0,89.0,-104.0
128.0,123.0,153.0,108.0,124.0,101.0,126.0,128.0,30.0,-93.0,-72.0,127.0,127.0,127.0,106.0,89.0,-104.0
128.0,123.0,154.0,107.0,123.0,101.0,126.0,128.0,30.0,-93.0,-72.0,127.0,127.0,127.0,106.0,89.0,-104.0
128.0,122.0,155.0,106.0,123.0,101.0,126.0,127.0,30.0,-93.0,-72.0,127.0,127.0,127.0,106.0,89.0,-104.0
128.0,122.0,156.0,106.0,123.0,101.0,126.0,127.0,30.0,-93.0,-72.0,127.0,127.0,127.0,106.0,89.0,-104.0
128.0,122.0,157.0,105.0,122.0,101.0,126.0,127.0,30.0,-93.0,-72.0,127.0,127.0,127.0,106.0,89.0,-104.0
127.0,124.0,150.0,103.0,124.0,99.0,127.0,126.0,30.0,-93.0,-72.0,127.0,127.0,127.0,106.0,89.0,-104.0
127.0,124.0,151.0,106.0,124.0,99.0,127.0,127.0,30.0,-93.0,-72.0,127.0,127.0,127.0,106.0,89.0,-104.0
127.0,125.0,200.0,110.0,127.0,97.0,126.0,126.0,30.0,-94.0,-71.0,127.0,127.0,127.0,106.0,89.0,-104.0
126.0,125.0,201.0,111.0,127.0,97.0,126.0,126.0,30.0,-94.0,-71.0,127.0,127.0,127.0,106.0,89.0,-104.0
127.0,125.0,203.0,111.0,127.0,97.0,126.0,126.0,30.0,-94.0,-71.0,127.0,127.0,127.0,106.0,89.0,-104.0
127.0,124.0,205.0,112.0,127.0,96.0,126.0,126.0,30.0,-94.0,-71.0,127.0,127.0,127.0,106.0,89.0,-104.0
127.0,124.0,208.0,112.0,128.0,96.0,126.0,126.0,30.0,-94.0,-71.0,127.0,127.0,127.0,106.0,89.0,-104.0
127.0,125.0,210.0,112.0,128.0,96.0,126.0,127.0,30.0,-94.0,-71.0,127.0,127.0,127.0,106.0,89.0,-104.0
127.0,125.0,213.0,111.0,128.0,95.0,126.0,127.0,30.0,-94.0,-71.0,127.0,127.0,127.0,106.0,89.0,-104.0
127.0,126.0,196.0,110.0,127.0,98.0,127.0,126.0,30.0,-94.0,-71.0,127.0,127.0,127.0,106.0,89.0,-104.0
127.0,125.0,197.0,110.0,127.0,98.0,127.0,126.0,30.0,-94.0,-71.0,127.0,127.0,127.0,106.0,89.0,-104.0
127.0,125.0,198.0,110.0,127.0,98.0,126.0,126.0,30.0,-94.0,-71.0,127.0,127.0,127.0,106.0,89.0,-104.0
129.0,128.0,254.0,104.0,125.0,90.0,127.0,128.0,31.0,-95.0,-71.0,127.0,127.0,127.0,106.0,89.0,-104.0
129.0,128.0,254.0,105.0,125.0,90.0,127.0,128.0,31.0,-95.0,-71.0,127.0,127.0,127.0,106.0,89.0,-104.0
129.0,128.0,254.0,106.0,125.0,90.0,127.0,128.0,31.0,-95.0,-71.0,127.0,127.0,127.0,106.0,89.0,-104.0
129.0,128.0,254.0,108.0,125.0,89.0,127.0,128.0,31.0,-95.0,-71.0,127.0,127.0,127.0,106.0,89.0,-104.0
129.0,127.0,254.0,109.0,126.0,89.0,127.0,128.0,31.0,-95.0,-71.0,127.0,127.0,127.0,106.0,89.0,-104.0
130.0,127.0,254.0,110.0,126.0,89.0,127.0,128.0,31.0,-95.0,-71.0,127.0,127.0,127.0,106.0,89.0,-104.0
128.0,127.0,254.0,103.0,125.0,92.0,126.0,127.0,31.0,-95.0,-71.0,127.0,127.0,127.0,106.0,89.0,-104.0
128.0,127.0,254.0,104.0,125.0,91.0,126.0,127.0,31.0,-95.0,-71.0,127.0,127.0,127.0,106.0,89.0,-104.0
128.0,127.0,254.0,104.0,125.0,91.0,126.0,127.0,31.0,-95.0,-71.0,127.0,127.0,127.0,106.0,89.0,-104.0
128.0,127.0,254.0,104.0,125.0,91.0,127.0,128.0,31.0,-95.0,-71.0,127.0,127.0,127.0,106.0,89.0,-104.0
128.0,131.0,254.0,120.0,128.0,81.0,127.0,129.0,31.0,-96.0,-71.0,127.0,127.0,127.0,106.0,89.0,-104.0
128.0,131.0,254.0,118.0,128.0,81.0,127.0,129.0,31.0,-96.0,-71.0,127.0,127.0,127.0,106.0,89.0,-104.0
128.0,131.0,254.0,116.0,128.0,80.0,127.0,128.0,31.0,-96.0,-71.0,127.0,127.0,127.0,106.0,89.0,-104.0
128.0,131.0,254.0,115.0,128.0,80.0,127.0,128.0,31.0,-96.0,-71.0,127.0,127.0,127.0,106.0,89.0,-104.0
128.0,131.0,254.0,114.0,129.0,80.0,127.0,128.0,31.0,-96.0,-71.0,127.0,127.0,127.0,106.0,89.0,-104.0
128.0,130.0,254.0,122.0,127.0,83.0,127.0,126.0,31.0,-96.0,-71.0,127.0,127.0,127.0,106.0,89.0,-104.0
128.0,130.0,254.0,123.0,127.0,82.0,127.0,127.0,31.0,-96.0,-71.0,127.0,127.0,127.0,106.0,89.0,-104.0
128.0,130.0,254.0,123.0,127.0,82.0,127.0,128.0,31.0,-96.0,-71.0,127.0,127.0,127.0,106.0,89.0,-104.0
128.0,130.0,254.0,123.0,127.0,82.0,127.0,128.0,31.0,-96.0,-71.0,127.0,127.0,127.0,106.0,89.0,-104.0
128.0,130.0,254.0,121.0,128.0,81.0,127.0,129.0,31.0,-96.0,-71.0,127.0,127.0,127.0,106.0,89.0,-104.0
127.0,131.0,254.0,119.0,130.0,86.0,127.0,127.0,30.0,-95.0,-72.0,127.0,127.0,127.0,106.0,89.0,-104.0
128.0,130.0,254.0,118.0,130.0,86.0,127.0,128.0,30.0,-95.0,-72.0,127.0,127.0,127.0,106.0,89.0,-104.0
128.0,130.0,254.0,117.0,130.0,86.0,127.0,128.0,30.0,-95.0,-72.0,127.0,127.0,127.0,106.0,89.0,-104.0
128.0,130.0,254.0,116.0,129.0,86.0,127.0,128.0,30.0,-95.0,-72.0,127.0,127.0,127.0,106.0,89.0,-104.0
128.0,132.0,254.0,122.0,131.0,85.0,127.0,128.0,30.0,-95.0,-72.0,127.0,127.0,127.0,106.0,89.0,-104.0
128.0,132.0,254.0,121.0,131.0,85.0,127.0,128.0,30.0,-95.0,-72.0,127.0,127.0,127.0,106.0,89.0,-104.0
128.0,132.0,254.0,121.0,131.0,85.0,127.0,128.0,30.0,-95.0,-72.0,127.0,127.0,127.0,106.0,89.0,-104.0
128.0,131.0,254.0,121.0,131.0,85.0,127.0,128.0,30.0,-95.0,-72.0,127.0,127.0,127.0,106.0,89.0,-104.0
127.0,131.0,254.0,120.0,131.0,85.0,127.0,128.0,30.0,-95.0,-72.0,127.0,127.0,127.0,106.0,89.0,-104.0
127.0,131.0,254.0,120.0,131.0,85.0,127.0,127.0,30.0,-95.0,-72.0,127.0,127.0,127.0,106.0,89.0,-104.0
127.0,127.0,254.0,109.0,127.0,91.0,127.0,127.0,29.0,-95.0,-72.0,127.0,127.0,127.0,106.0,89.0,-104.0
127.0,127.0,254.0,109.0,127.0,91.0,127.0,127.0,29.0,-95.0,-72.0,127.0,127.0,127.0,106.0,89.0,-104.0
128.0,127.0,254.0,110.0,127.0,91.0,127.0,127.0,29.0,-95.0,-72.0,127.0,127.0,127.0,106.0,89.0,-104.0
127.0,130.0,254.0,109.0,128.0,91.0,127.0,127.0,29.0,-95.0,-72.0,127.0,127.0,127.0,106.0,89.0,-104.0
127.0,129.0,254.0,109.0,128.0,91.0,127.0,127.0,29.0,-95.0,-72.0,127.0,127.0,127.0,106.0,89.0,-104.0
127.0,129.0,254.0,110.0,129.0,91.0,127.0,127.0,29.0,-95.0,-72.0,127.0,127.0,127.0,106.0,89.0,-104.0
127.0,128.0,254.0,110.0,129.0,91.0,127.0,127.0,29.0,-95.0,-72.0,127.0,127.0,127.0,106.0,89.0,-104.0
127.0,128.0,254.0,109.0,128.0,91.0,127.0,127.0,29.0,-95.0,-72.0,127.0,127.0,127.0,106.0,89.0,-104.0
127.0,128.0,254.0,109.0,128.0,91.0,127.0,127.0,29.0,-95.0,-72.0,127.0,127.0,127.0,106.0,89.0,-104.0
127.0,128.0,254.0,108.0,127.0,91.0,127.0,127.0,29.0,-95.0,-72.0,127.0,127.0,127.0,106.0,89.0,-104.0
128.0,128.0,234.0,116.0,125.0,91.0,126.0,129.0,28.0,-95.0,-72.0,127.0,127.0,127.0,106.0,89.0,-104.0
128.0,127.0,230.0,116.0,125.0,91.0,126.0,129.0,28.0,-95.0,-72.0,127.0,127.0,127.0,106.0,89.0,-104.0
127.0,127.0,254.0,117.0,127.0,93.0,126.0,124.0,28.0,-95.0,-72.0,127.0,127.0,127.0,106.0,89.0,-104.0
127.0,127.0,254.0,117.0,127.0,92.0,126.0,125.0,28.0,-95.0,-72.0,127.0,127.0,127.0,106.0,89.0,-104.0
127.0,127.0,252.0,117.0,126.0,92.0,126.0,125.0,28.0,-95.0,-72.0,127.0,127.0,127.0,106.0,89.0,-104.0
127.0,127.0,250.0,117.0,126.0,93.0,126.0,125.0,28.0,-95.0,-72.0,127.0,127.0,127.0,106.0,89.0,-104.0
127.0,127.0,248.0,116.0,126.0,92.0,126.0,126.0,28.0,-95.0,-72.0,127.0,127.0,127.0,106.0,89.0,-104.0
127.0,127.0,245.0,116.0,125.0,92.0,126.0,126.0,28.0,-95.0,-72.0,127.0,127.0,127.0,106.0,89.0,-104.0
128.0,127.0,241.0,116.0,125.0,92.0,126.0,127.0,28.0,-95.0,-72.0,127.0,127.0,127.0,106.0,89.0,-104.0
128.0,127.0,238.0,116.0,125.0,92.0,126.0,128.0,28.0,-95.0,-72.0,127.0,127.0,127.0,106.0,89.0,-104.0
125.0,125.0,38.0,123.0,126.0,92.0,128.0,129.0,29.0,-95.0,-72.0,127.0,127.0,127.0,106.0,89.0,-104.0
127.0,128.0,53.0,114.0,126.0,93.0,127.0,129.0,29.0,-95.0,-72.0,127.0,127.0,127.0,106.0,89.0,-104.0
126.0,128.0,51.0,114.0,126.0,93.0,127.0,129.0,29.0,-95.0,-72.0,127.0,127.0,127.0,106.0,89.0,-104.0
126.0,127.0,49.0,115.0,125.0,93.0,127.0,129.0,29.0,-95.0,-72.0,127.0,127.0,127.0,106.0,89.0,-104.0
126.0,127.0,47.0,116.0,125.0,93.0,127.0,129.0,29.0,-95.0,-72.0,127.0,127.0,127.0,106.0,89.0,-104.0
126.0,126.0,46.0,117.0,125.0,93.0,127.0,129.0,29.0,-95.0,-72.0,127.0,127.0,127.0,106.0,89.0,-104.0
126.0,125.0,44.0,119.0,124.0,93.0,127.0,129.0,29.0,-95.0,-72.0,127.0,127.0,127.0,106.0,89.0,-104.0
126.0,125.0,42.0,120.0,124.0,93.0,127.0,129.0,29.0,-95.0,-72.0,127.0,127.0,127.0,106.0,89.0,-104.0
126.0,125.0,41.0,121.0,125.0,92.0,127.0,129.0,29.0,-95.0,-72.0,127.0,127.0,127.0,106.0,89.0,-104.0
126.0,125.0,40.0,122.0,125.0,92.0,128.0,129.0,29.0,-95.0,-72.0,127.0,127.0,127.0,106.0,89.0,-104.0
128.0,126.0,15.0,127.0,127.0,94.0,127.0,123.0,29.0,-95.0,-72.0,127.0,127.0,127.0,106.0,89.0,-104.0
127.0,126.0,15.0,126.0,127.0,94.0,127.0,122.0,29.0,-95.0,-72.0,127.0,127.0,127.0,106.0,89.0,-104.0
127.0,126.0,14.0,125.0,128.0,93.0,126.0,120.0,29.0,-95.0,-72.0,127.0,127.0,127.0,106.0,89.0,-104.0
127.0,126.0,14.0,123.0,128.0,93.0,126.0,119.0,29.0,-95.0,-72.0,127.0,127.0,127.0,106.0,89.0,-104.0
127.0,125.0,14.0,122.0,128.0,93.0,126.0,118.0,29.0,-95.0,-72.0,127.0,127.0,127.0,106.0,89.0,-104.0
127.0,125.0,14.0,121.0,128.0,93.0,126.0,118.0,29.0,-95.0,-72.0,127.0,127.0,127.0,106.0,89.0,-104.0
127.0,126.0,14.0,121.0,128.0,93.0,125.0,118.0,29.0,-95.0,-72.0,127.0,127.0,127.0,106.0,89.0,-104.0
126.0,126.0,14.0,121.0,128.0,92.0,125.0,118.0,29.0,-95.0,-72.0,127.0,127.0,127.0,106.0,89.0,-104.0
127.0,126.0,14.0,121.0,128.0,92.0,126.0,119.0,29.0,-95.0,-72.0,127.0,127.0,127.0,106.0,89.0,-104.0
127.0,126.0,14.0,121.0,128.0,92.0,126.0,121.0,29.0,-95.0,-72.0,127.0,127.0,127.0,106.0,89.0,-104.0
126.0,126.0,28.0,117.0,128.0,88.0,128.0,128.0,29.0,-95.0,-72.0,127.0,127.0,127.0,106.0,89.0,-104.0
126.0,127.0,28.0,117.0,128.0,89.0,127.0,128.0,29.0,-95.0,-72.0,127.0,127.0,127.0,106.0,89.0,-104.0
126.0,127.0,28.0,117.0,127.0,89.0,127.0,127.0,29.0,-95.0,-72.0,127.0,127.0,127.0,106.0,89.0,-104.0
126.0,127.0,28.0,117.0,127.0,89.0,127.0,127.0,29.0,-95.0,-72.0,127.0,127.0,127.0,106.0,89.0,-104.0
126.0,126.0,28.0,117.0,126.0,89.0,127.0,127.0,29.0,-95.0,-72.0,127.0,127.0,127.0,106.0,89.0,-104.0
126.0,126.0,28.0,116.0,126.0,90.0,127.0,127.0,29.0,-95.0,-72.0,127.0,127.0,127.0,106.0,89.0,-104.0
127.0,125.0,28.0,116.0,125.0,90.0,127.0,127.0,29.0,-95.0,-72.0,127.0,127.0,127.0,106.0,89.0,-104.0
127.0,125.0,28.0,114.0,124.0,90.0,126.0,126.0,29.0,-95.0,-72.0,127.0,127.0,127.0,106.0,89.0,-104.0
127.0,124.0,28.0,114.0,124.0,90.0,126.0,126.0,29.0,-95.0,-72.0,127.0,127.0,127.0,106.0,89.0,-104.0
126.0,126.0,28.0,116.0,129.0,89.0,128.0,128.0,29.0,-95.0,-72.0,127.0,127.0,127.0,106.0,89.0,-104.0
128.0,128.0,39.0,117.0,128.0,91.0,127.0,128.0,28.0,-95.0,-72.0,127.0,127.0,127.0,106.0,89.0,-104.0
128.0,128.0,39.0,118.0,128.0,91.0,127.0,128.0,28.0,-95.0,-72.0,127.0,127.0,127.0,106.0,89.0,-104.0
128.0,127.0,40.0,118.0,128.0,91.0,127.0,127.0,28.0,-95.0,-72.0,127.0,127.0,127.0,106.0,89.0,-104.0
128.0,127.0,41.0,119.0,129.0,93.0,127.0,127.0,28.0,-95.0,-72.0,127.0,127.0,127.0,106.0,89.0,-104.0
128.0,127.0,41.0,119.0,129.0,93.0,127.0,127.0,28.0,-95.0,-72.0,127.0,127.0,127.0,106.0,89.0,-104.0
128.0,127.0,42.0,119.0,130.0,93.0,127.0,127.0,28.0,-95.0,-72.0,127.0,127.0,127.0,106.0,89.0,-104.0
128.0,127.0,42.0,118.0,130.0,93.0,127.0,126.0,28.0,-95.0,-72.0,127.0,127.0,127.0,106.0,89.0,-104.0
128.0,126.0,43.0,117.0,130.0,93.0,127.0,126.0,28.0,-95.0,-72.0,127.0,127.0,127.0,106.0,89.0,-104.0
128.0,129.0,37.0,116.0,128.0,91.0,127.0,129.0,28.0,-95.0,-72.0,127.0,127.0,127.0,106.0,89.0,-104.0
128.0,129.0,38.0,117.0,128.0,91.0,127.0,128.0,28.0,-95.0,-72.0,127.0,127.0,127.0,106.0,89.0,-104.0
127.0,125.0,66.0,115.0,125.0,89.0,127.0,127.0,28.0,-96.0,-72.0,127.0,127.0,127.0,106.0,89.0,-104.0
127.0,125.0,66.0,117.0,125.0,89.0,127.0,127.0,28.0,-96.0,-72.0,127.0,127.0,127.0,106.0,89.0,-104.0
127.0,126.0,67.0,118.0,126.0,91.0,127.0,127.0,28.0,-96.0,-72.0,127.0,127.0,127.0,106.0,89.0,-104.0
127.0,126.0,68.0,119.0,126.0,91.0,127.0,126.0,28.0,-96.0,-72.0,127.0,127.0,127.0,106.0,89.0,-104.0
126.0,126.0,69.0,119.0,126.0,92.0,127.0,126.0,28.0,-96.0,-72.0,127.0,127.0,127.0,106.0,89.0,-104.0
126.0,126.0,69.0,118.0,127.0,92.0,127.0,126.0,28.0,-96.0,-72.0,127.0,127.0,127.0,106.0,89.0,-104.0
126.0,126.0,70.0,118.0,127.0,92.0,127.0,125.0,28.0,-96.0,-72.0,127.0,127.0,127.0,106.0,89.0,-104.0
128.0,126.0,64.0,112.0,123.0,89.0,127.0,128.0,28.0,-96.0,-72.0,127.0,127.0,127.0,106.0,89.0,-104.0
128.0,126.0,64.0,112.0,124.0,89.0,127.0,128.0,28.0,-96.0,-72.0,127.0,127.0,127.0,106.0,89.0,-104.0
128.0,125.0,65.0,113.0,124.0,89.0,127.0,128.0,28.0,-96.0,-72.0,127.0,127.0,127.0,106.0,89.0,-104.0
126.0,129.0,93.0,119.0,127.0,88.0,126.0,127.0,28.0,-96.0,-72.0,127.0,127.0,127.0,106.0,89.0,-104.0
126.0,128.0,94.0,119.0,128.0,90.0,126.0,127.0,28.0,-96.0,-72.0,127.0,127.0,127.0,106.0,89.0,-104.0
126.0,128.0,94.0,120.0,128.0,90.0,126.0,127.0,28.0,-96.0,-72.0,127.0,127.0,127.0,106.0,89.0,-104.0
126.0,128.0,94.0,121.0,128.0,90.0,126.0,127.0,28.0,-96.0,-72.0,127.0,127.0,127.0,106.0,89.0,-104.0
126.0,127.0,94.0,121.0,128.0,90.0,126.0,128.0,28.0,-96.0,-72.0,127.0,127.0,127.0,106.0,89.0,-104.0
126.0,127.0,94.0,122.0,128.0,90.0,126.0,128.0,28.0,-96.0,-72.0,127.0,127.0,127.0,106.0,89.0,-104.0
126.0,130.0,92.0,118.0,127.0,88.0,125.0,126.0,28.0,-96.0,-72.0,127.0,127.0,127.0,106.0,89.0,-104.0
126.0,130.0,92.0,118.0,127.0,88.0,125.0,127.0,28.0,-96.0,-72.0,127.0,127.0,127.0,106.0,89.0,-104.0
126.0,130.0,93.0,118.0,127.0,88.0,126.0,127.0,28.0,-96.0,-72.0,127.0,127.0,127.0,106.0,89.0,-104.0
126.0,129.0,93.0,119.0,127.0,88.0,126.0,127.0,28.0,-96.0,-72.0,127.0,127.0,127.0,106.0,89.0,-104.0
126.0,131.0,101.0,122.0,128.0,91.0,125.0,129.0,29.0,-96.0,-72.0,127.0,127.0,127.0,106.0,89.0,-104.0
126.0,130.0,101.0,122.0,128.0,91.0,125.0,129.0,29.0,-96.0,-72.0,127.0,127.0,127.0,106.0,89.0,-104.0
126.0,130.0,101.0,122.0,128.0,91.0,125.0,129.0,29.0,-96.0,-72.0,127.0,127.0,127.0,106.0,89.0,-104.0
125.0,130.0,101.0,121.0,127.0,91.0,126.0,129.0,29.0,-96.0,-72.0,127.0,127.0,127.0,106.0,89.0,-104.0
126.0,128.0,101.0,120.0,129.0,90.0,126.0,128.0,29.0,-96.0,-72.0,127.0,127.0,127.0,106.0,89.0,-104.0
126.0,129.0,101.0,121.0,129.0,90.0,126.0,128.0,29.0,-96.0,-72.0,127.0,127.0,127.0,106.0,89.0,-104.0
126.0,130.0,101.0,121.0,129.0,90.0,125.0,129.0,29.0,-96.0,-72.0,127.0,127.0,127.0,106.0,89.0,-104.0
126.0,130.0,101.0,122.0,129.0,90.0,125.0,129.0,29.0,-96.0,-72.0,127.0,127.0,127.0,106.0,89.0,-104.0
127.0,130.0,101.0,122.0,129.0,90.0,125.0,129.0,29.0,-96.0,-72.0,127.0,127.0,127.0,106.0,89.0,-104.0
126.0,130.0,101.0,122.0,129.0,90.0,125.0,129.0,29.0,-96.0,-72.0,127.0,127.0,127.0,106.0,89.0,-104.0
127.0,128.0,99.0,121.0,128.0,94.0,127.0,130.0,29.0,-96.0,-72.0,127.0,127.0,127.0,106.0,89.0,-105.0
127.0,128.0,100.0,123.0,129.0,94.0,127.0,129.0,29.0,-96.0,-72.0,127.0,127.0,127.0,106.0,89.0,-105.0
127.0,129.0,100.0,124.0,129.0,93.0,127.0,129.0,29.0,-96.0,-72.0,127.0,127.0,127.0,106.0,89.0,-105.0
128.0,127.0,99.0,111.0,127.0,92.0,126.0,125.0,29.0,-96.0,-72.0,127.0,127.0,127.0,106.0,89.0,-105.0
129.0,127.0,99.0,111.0,127.0,93.0,126.0,126.0,29.0,-96.0,-72.0,127.0,127.0,127.0,106.0,89.0,-105.0
129.0,127.0,99.0,111.0,126.0,93.0,126.0,128.0,29.0,-96.0,-72.0,127.0,127.0,127.0,106.0,89.0,-105.0
128.0,127.0,99.0,112.0,127.0,92.0,126.0,129.0,29.0,-96.0,-72.0,127.0,127.0,127.0,106.0,89.0,-105.0
128.0,127.0,99.0,114.0,127.0,92.0,126.0,129.0,29.0,-96.0,-72.0,127.0,127.0,127.0,106.0,89.0,-105.0
128.0,127.0,99.0,116.0,127.0,92.0,127.0,129.0,29.0,-96.0,-72.0,127.0,127.0,127.0,106.0,89.0,-105.0
128.0,127.0,99.0,118.0,127.0,93.0,127.0,130.0,29.0,-96.0,-72.0,127.0,127.0,127.0,106.0,89.0,-105.0
127.0,128.0,102.0,122.0,128.0,94.0,126.0,129.0,29.0,-97.0,-72.0,127.0,127.0,127.0,106.0,89.0,-105.0
127.0,127.0,102.0,121.0,128.0,94.0,126.0,129.0,29.0,-97.0,-72.0,127.0,127.0,127.0,106.0,89.0,-105.0
127.0,127.0,101.0,117.0,129.0,93.0,126.0,128.0,29.0,-97.0,-72.0,127.0,127.0,127.0,106.0,89.0,-105.0
127.0,127.0,101.0,117.0,129.0,93.0,126.0,128.0,29.0,-97.0,-72.0,127.0,127.0,127.0,106.0,89.0,-105.0
127.0,127.0,101.0,118.0,128.0,93.0,126.0,129.0,29.0,-97.0,-72.0,127.0,127.0,127.0,106.0,89.0,-105.0
127.0,127.0,101.0,119.0,128.0,92.0,126.0,129.0,29.0,-97.0,-72.0,127.0,127.0,127.0,106.0,89.0,-105.0
127.0,127.0,101.0,119.0,128.0,92.0,126.0,129.0,29.0,-97.0,-72.0,127.0,127.0,127.0,106.0,89.0,-105.0
127.0,127.0,102.0,121.0,128.0,92.0,126.0,129.0,29.0,-97.0,-72.0,127.0,127.0,127.0,106.0,89.0,-105.0
127.0,127.0,102.0,121.0,128.0,93.0,126.0,129.0,29.0,-97.0,-72.0,127.0,127.0,127.0,106.0,89.0,-105.0
127.0,128.0,102.0,122.0,128.0,94.0,126.0,129.0,29.0,-97.0,-72.0,127.0,127.0,127.0,106.0,89.0,-105.0
127.0,128.0,101.0,112.0,125.0,91.0,127.0,129.0,30.0,-98.0,-72.0,127.0,127.0,127.0,107.0,89.0,-105.0
127.0,127.0,103.0,120.0,125.0,91.0,126.0,126.0,30.0,-98.0,-72.0,127.0,127.0,127.0,107.0,89.0,-105.0
127.0,127.0,103.0,119.0,125.0,91.0,126.0,127.0,30.0,-98.0,-72.0,127.0,127.0,127.0,107.0,89.0,-105.0
127.0,127.0,103.0,119.0,125.0,91.0,126.0,128.0,30.0,-98.0,-72.0,127.0,127.0,127.0,107.0,89.0,-105.0
127.0,127.0,103.0,118.0,125.0,91.0,127.0,128.0,30.0,-98.0,-72.0,127.0,127.0,127.0,107.0,89.0,-105.0
127.0,127.0,103.0,117.0,125.0,91.0,127.0,128.0,30.0,-98.0,-72.0,127.0,127.0,127.0,107.0,89.0,-105.0
127.0,128.0,103.0,116.0,125.0,91.0,127.0,129.0,30.0,-98.0,-72.0,127.0,127.0,127.0,107.0,89.0,-105.0
127.0,128.0,102.0,115.0,125.0,91.0,127.0,129.0,30.0,-98.0,-72.0,127.0,127.0,127.0,107.0,89.0,-105.0
127.0,128.0,102.0,114.0,125.0,91.0,127.0,129.0,30.0,-98.0,-72.0,127.0,127.0,127.0,107.0,89.0,-105.0
127.0,128.0,102.0,113.0,125.0,91.0,127.0,129.0,30.0,-98.0,-72.0,127.0,127.0,127.0,107.0,89.0,-105.0
127.0,128.0,89.0,118.0,123.0,92.0,127.0,126.0,30.0,-98.0,-71.0,127.0,127.0,127.0,107.0,89.0,-105.0
127.0,128.0,89.0,118.0,123.0,92.0,127.0,126.0,30.0,-98.0,-71.0,127.0,127.0,127.0,107.0,89.0,-105.0
127.0,128.0,89.0,117.0,123.0,92.0,127.0,126.0,30.0,-98.0,-71.0,127.0,127.0,127.0,107.0,89.0,-105.0
127.0,128.0,89.0,117.0,123.0,92.0,127.0,126.0,30.0,-98.0,-71.0,127.0,127.0,127.0,107.0,89.0,-105.0
127.0,128.0,90.0,117.0,124.0,94.0,127.0,126.0,30.0,-98.0,-71.0,127.0,127.0,127.0,107.0,89.0,-105.0
127.0,128.0,90.0,117.0,124.0,94.0,127.0,126.0,30.0,-98.0,-71.0,127.0,127.0,127.0,107.0,89.0,-105.0
127.0,128.0,90.0,117.0,124.0,94.0,127.0,126.0,30.0,-98.0,-71.0,127.0,127.0,127.0,107.0,89.0,-105.0
127.0,128.0,91.0,117.0,125.0,93.0,127.0,127.0,30.0,-98.0,-71.0,127.0,127.0,127.0,107.0,89.0,-105.0
127.0,128.0,91.0,118.0,125.0,93.0,127.0,127.0,30.0,-98.0,-71.0,127.0,127.0,127.0,107.0,89.0,-105.0
127.0,128.0,91.0,119.0,126.0,93.0,127.0,127.0,30.0,-98.0,-71.0,127.0,127.0,127.0,107.0,89.0,-105.0
127.0,127.0,106.0,124.0,123.0,91.0,127.0,127.0,31.0,-99.0,-71.0,127.0,127.0,127.0,107.0,89.0,-105.0
126.0,127.0,106.0,125.0,124.0,91.0,126.0,128.0,31.0,-99.0,-71.0,127.0,127.0,127.0,107.0,89.0,-105.0
126.0,127.0,106.0,125.0,124.0,91.0,126.0,128.0,31.0,-99.0,-71.0,127.0,127.0,127.0,107.0,89.0,-105.0
126.0,127.0,107.0,125.0,124.0,92.0,126.0,129.0,31.0,-99.0,-71.0,127.0,127.0,127.0,107.0,89.0,-105.0
126.0,127.0,107.0,123.0,124.0,92.0,126.0,130.0,31.0,-99.0,-71.0,127.0,127.0,127.0,107.0,89.0,-105.0
126.0,127.0,107.0,122.0,125.0,92.0,126.0,131.0,31.0,-99.0,-71.0,127.0,127.0,127.0,107.0,89.0,-105.0
126.0,127.0,107.0,122.0,126.0,92.0,126.0,132.0,31.0,-99.0,-71.0,127.0,127.0,127.0,107.0,89.0,-105.0
126.0,127.0,107.0,121.0,126.0,92.0,126.0,132.0,31.0,-99.0,-71.0,127.0,127.0,127.0,107.0,89.0,-105.0
126.0,127.0,107.0,121.0,127.0,91.0,126.0,132.0,31.0,-99.0,-71.0,127.0,127.0,127.0,107.0,89.0,-105.0
127.0,127.0,106.0,123.0,124.0,91.0,127.0,127.0,31.0,-99.0,-71.0,127.0,127.0,127.0,107.0,89.0,-105.0
126.0,126.0,117.0,118.0,127.0,89.0,127.0,127.0,31.0,-98.0,-71.0,127.0,127.0,127.0,107.0,89.0,-105.0
126.0,126.0,118.0,118.0,128.0,90.0,127.0,127.0,31.0,-98.0,-71.0,127.0,127.0,127.0,107.0,89.0,-105.0
127.0,127.0,118.0,117.0,128.0,91.0,127.0,128.0,31.0,-98.0,-71.0,127.0,127.0,127.0,107.0,89.0,-105.0
127.0,127.0,118.0,116.0,128.0,91.0,127.0,129.0,31.0,-98.0,-71.0,127.0,127.0,127.0,107.0,89.0,-105.0
127.0,127.0,118.0,115.0,127.0,91.0,127.0,129.0,31.0,-98.0,-71.0,127.0,127.0,127.0,107.0,89.0,-105.0
127.0,127.0,119.0,115.0,127.0,91.0,127.0,129.0,31.0,-98.0,-71.0,127.0,127.0,127.0,107.0,89.0,-105.0
127.0,126.0,119.0,115.0,127.0,91.0,127.0,129.0,31.0,-98.0,-71.0,127.0,127.0,127.0,107.0,89.0,-105.0
127.0,126.0,119.0,115.0,127.0,91.0,127.0,129.0,31.0,-98.0,-71.0,127.0,127.0,127.0,107.0,89.0,-105.0
126.0,125.0,117.0,116.0,127.0,89.0,127.0,126.0,31.0,-98.0,-71.0,127.0,127.0,127.0,107.0,89.0,-105.0
126.0,125.0,117.0,117.0,127.0,89.0,127.0,126.0,31.0,-98.0,-71.0,127.0,127.0,127.0,107.0,89.0,-105.0
126.0,125.0,123.0,123.0,129.0,89.0,127.0,128.0,31.0,-98.0,-71.0,127.0,127.0,127.0,107.0,89.0,-105.0
127.0,126.0,123.0,124.0,129.0,91.0,127.0,128.0,31.0,-98.0,-71.0,127.0,127.0,127.0,107.0,89.0,-105.0
127.0,125.0,123.0,125.0,128.0,91.0,127.0,129.0,31.0,-98.0,-71.0,127.0,127.0,127.0,107.0,89.0,-105.0
127.0,125.0,123.0,125.0,128.0,91.0,127.0,129.0,31.0,-98.0,-71.0,127.0,127.0,127.0,107.0,89.0,-105.0
127.0,125.0,123.0,125.0,128.0,91.0,127.0,129.0,31.0,-98.0,-71.0,127.0,127.0,127.0,107.0,89.0,-105.0
127.0,124.0,122.0,124.0,127.0,92.0,127.0,130.0,31.0,-98.0,-71.0,127.0,127.0,127.0,107.0,89.0,-105.0
127.0,124.0,122.0,124.0,127.0,92.0,127.0,131.0,31.0,-98.0,-71.0,127.0,127.0,127.0,107.0,89.0,-105.0
126.0,127.0,123.0,120.0,130.0,90.0,127.0,128.0,31.0,-98.0,-71.0,127.0,127.0,127.0,107.0,89.0,-105.0
126.0,126.0,123.0,121.0,130.0,89.0,127.0,128.0,31.0,-98.0,-71.0,127.0,127.0,127.0,107.0,89.0,-105.0
126.0,126.0,123.0,122.0,129.0,89.0,127.0,128.0,31.0,-98.0,-71.0,127.0,127.0,127.0,107.0,89.0,-105.0
127.0,126.0,117.0,117.0,128.0,91.0,127.0,124.0,30.0,-98.0,-71.0,127.0,127.0,127.0,108.0,89.0,-105.0
127.0,126.0,117.0,118.0,128.0,92.0,127.0,125.0,30.0,-98.0,-71.0,127.0,127.0,127.0,108.0,89.0,-105.0
127.0,126.0,116.0,118.0,128.0,92.0,127.0,126.0,30.0,-98.0,-71.0,127.0,127.0,127.0,108.0,89.0,-105.0
127.0,126.0,116.0,118.0,128.0,93.0,127.0,127.0,30.0,-98.0,-71.0,127.0,127.0,127.0,108.0,89.0,-105.0
127.0,126.0,116.0,119.0,128.0,94.0,127.0,127.0,30.0,-98.0,-71.0,127.0,127.0,127.0,108.0,89.0,-105.0
127.0,126.0,116.0,119.0,128.0,94.0,127.0,127.0,30.0,-98.0,-71.0,127.0,127.0,127.0,108.0,89.0,-105.0
126.0,126.0,118.0,113.0,127.0,90.0,127.0,123.0,30.0,-98.0,-71.0,127.0,127.0,127.0,108.0,89.0,-105.0
126.0,126.0,117.0,114.0,127.0,89.0,127.0,123.0,30.0,-98.0,-71.0,127.0,127.0,127.0,108.0,89.0,-105.0
126.0,125.0,117.0,114.0,128.0,90.0,127.0,123.0,30.0,-98.0,-71.0,127.0,127.0,127.0,108.0,89.0,-105.0
126.0,125.0,117.0,116.0,128.0,90.0,127.0,123.0,30.0,-98.0,-71.0,127.0,127.0,127.0,108.0,89.0,-105.0
127.0,127.0,123.0,126.0,127.0,87.0,127.0,128.0,29.0,-98.0,-71.0,127.0,127.0,127.0,108.0,89.0,-105.0
126.0,127.0,123.0,126.0,127.0,88.0,127.0,128.0,29.0,-98.0,-71.0,127.0,127.0,127.0,108.0,89.0,-105.0
126.0,127.0,124.0,126.0,127.0,89.0,127.0,129.0,29.0,-98.0,-71.0,127.0,127.0,127.0,108.0,89.0,-105.0
126.0,127.0,124.0,126.0,127.0,90.0,127.0,129.0,29.0,-98.0,-71.0,127.0,127.0,127.0,108.0,89.0,-105.0
127.0,127.0,125.0,126.0,127.0,90.0,127.0,130.0,29.0,-98.0,-71.0,127.0,127.0,127.0,108.0,89.0,-105.0
128.0,126.0,120.0,121.0,126.0,87.0,126.0,128.0,29.0,-98.0,-71.0,127.0,127.0,127.0,108.0,89.0,-105.0
128.0,127.0,121.0,121.0,126.0,88.0,126.0,128.0,29.0,-98.0,-71.0,127.0,127.0,127.0,108.0,89.0,-105.0
128.0,127.0,121.0,122.0,127.0,89.0,126.0,128.0,29.0,-98.0,-71.0,127.0,127.0,127.0,108.0,89.0,-105.0
127.0,127.0,122.0,124.0,127.0,88.0,126.0,128.0,29.0,-98.0,-71.0,127.0,127.0,127.0,108.0,89.0,-105.0
127.0,127.0,122.0,125.0,127.0,88.0,126.0,128.0,29.0,-98.0,-71.0,127.0,127.0,127.0,108.0,89.0,-105.0
127.0,127.0,126.0,122.0,129.0,90.0,127.0,130.0,29.0,-98.0,-71.0,127.0,127.0,127.0,108.0,89.0,-105.0
127.0,127.0,126.0,121.0,128.0,90.0,127.0,130.0,29.0,-98.0,-71.0,127.0,127.0,127.0,108.0,89.0,-105.0
127.0,127.0,126.0,120.0,128.0,91.0,127.0,130.0,29.0,-98.0,-71.0,127.0,127.0,127.0,108.0,89.0,-105.0
128.0,127.0,126.0,119.0,128.0,91.0,127.0,129.0,29.0,-98.0,-71.0,127.0,127.0,127.0,108.0,89.0,-105.0
126.0,126.0,127.0,123.0,128.0,88.0,127.0,127.0,29.0,-98.0,-71.0,127.0,127.0,127.0,108.0,89.0,-105.0
127.0,127.0,127.0,123.0,129.0,90.0,127.0,128.0,29.0,-98.0,-71.0,127.0,127.0,127.0,108.0,89.0,-105.0
127.0,127.0,127.0,123.0,129.0,91.0,127.0,128.0,29.0,-98.0,-71.0,127.0,127.0,127.0,108.0,89.0,-105.0
127.0,127.0,127.0,123.0,129.0,91.0,127.0,129.0,29.0,-98.0,-71.0,127.0,127.0,127.0,108.0,89.0,-105.0
127.0,127.0,126.0,123.0,129.0,90.0,127.0,130.0,29.0,-98.0,-71.0,127.0,127.0,127.0,108.0,89.0,-105.0
127.0,127.0,126.0,122.0,129.0,90.0,127.0,130.0,29.0,-98.0,-71.0,127.0,127.0,127.0,108.0,89.0,-105.0
127.0,126.0,127.0,121.0,128.0,84.0,126.0,128.0,29.0,-98.0,-71.0,127.0,127.0,127.0,108.0,89.0,-105.0
127.0,126.0,127.0,121.0,128.0,84.0,126.0,128.0,29.0,-98.0,-71.0,127.0,127.0,127.0,108.0,89.0,-105.0
127.0,126.0,127.0,121.0,128.0,84.0,126.0,128.0,29.0,-98.0,-71.0,127.0,127.0,127.0,108.0,89.0,-105.0
127.0,126.0,127.0,120.0,128.0,83.0,127.0,128.0,29.0,-98.0,-71.0,127.0,127.0,127.0,108.0,89.0,-105.0
127.0,126.0,127.0,120.0,128.0,83.0,127.0,128.0,29.0,-98.0,-71.0,127.0,127.0,127.0,108.0,89.0,-105.0
127.0,126.0,127.0,120.0,128.0,83.0,127.0,128.0,29.0,-98.0,-71.0,127.0,127.0,127.0,108.0,89.0,-105.0
127.0,126.0,127.0,120.0,128.0,83.0,127.0,128.0,29.0,-98.0,-71.0,127.0,127.0,127.0,108.0,89.0,-105.0
127.0,126.0,127.0,120.0,128.0,83.0,127.0,128.0,29.0,-98.0,-71.0,127.0,127.0,127.0,108.0,89.0,-105.0
127.0,126.0,127.0,120.0,128.0,83.0,127.0,128.0,29.0,-98.0,-71.0,127.0,127.0,127.0,108.0,89.0,-105.0
127.0,126.0,127.0,120.0,128.0,84.0,127.0,128.0,29.0,-98.0,-71.0,127.0,127.0,127.0,108.0,89.0,-105.0
128.0,127.0,133.0,121.0,127.0,88.0,127.0,124.0,28.0,-97.0,-72.0,127.0,127.0,127.0,108.0,89.0,-105.0
129.0,128.0,134.0,120.0,126.0,86.0,127.0,127.0,28.0,-97.0,-72.0,127.0,127.0,127.0,108.0,89.0,-105.0
129.0,128.0,134.0,120.0,126.0,86.0,127.0,127.0,28.0,-97.0,-72.0,127.0,127.0,127.0,108.0,89.0,-105.0
129.0,128.0,134.0,121.0,126.0,86.0,127.0,127.0,28.0,-97.0,-72.0,127.0,127.0,127.0,108.0,89.0,-105.0
130.0,128.0,134.0,121.0,126.0,86.0,127.0,127.0,28.0,-97.0,-72.0,127.0,127.0,127.0,108.0,89.0,-105.0
130.0,128.0,133.0,121.0,126.0,86.0,127.0,127.0,28.0,-97.0,-72.0,127.0,127.0,127.0,108.0,89.0,-105.0
130.0,128.0,133.0,121.0,126.0,87.0,127.0,126.0,28.0,-97.0,-72.0,127.0,127.0,127.0,108.0,89.0,-105.0
130.0,128.0,133.0,121.0,127.0,88.0,127.0,126.0,28.0,-97.0,-72.0,127.0,127.0,127.0,108.0,89.0,-105.0
129.0,128.0,133.0,121.0,127.0,88.0,127.0,125.0,28.0,-97.0,-72.0,127.0,127.0,127.0,108.0,89.0,-105.0
129.0,127.0,133.0,121.0,127.0,88.0,127.0,125.0,28.0,-97.0,-72.0,127.0,127.0,127.0,108.0,89.0,-105.0
129.0,128.0,126.0,122.0,126.0,85.0,127.0,128.0,27.0,-97.0,-72.0,127.0,127.0,127.0,108.0,89.0,-105.0
130.0,128.0,126.0,121.0,126.0,85.0,127.0,128.0,27.0,-97.0,-72.0,127.0,127.0,127.0,108.0,89.0,-105.0
130.0,127.0,126.0,119.0,127.0,85.0,127.0,128.0,27.0,-97.0,-72.0,127.0,127.0,127.0,108.0,89.0,-105.0
130.0,127.0,126.0,118.0,127.0,85.0,127.0,128.0,27.0,-97.0,-72.0,127.0,127.0,127.0,108.0,89.0,-105.0
130.0,127.0,126.0,117.0,127.0,85.0,127.0,128.0,27.0,-97.0,-72.0,127.0,127.0,127.0,108.0,89.0,-105.0
130.0,127.0,126.0,116.0,127.0,85.0,127.0,128.0,27.0,-97.0,-72.0,127.0,127.0,127.0,108.0,89.0,-105.0
130.0,128.0,126.0,116.0,127.0,86.0,127.0,128.0,27.0,-97.0,-72.0,127.0,127.0,127.0,108.0,89.0,-105.0
130.0,127.0,126.0,116.0,127.0,87.0,127.0,128.0,27.0,-97.0,-72.0,127.0,127.0,127.0,108.0,89.0,-105.0
130.0,127.0,126.0,116.0,128.0,86.0,127.0,127.0,27.0,-97.0,-72.0,127.0,127.0,127.0,108.0,89.0,-105.0
130.0,127.0,126.0,117.0,128.0,86.0,127.0,127.0,27.0,-97.0,-72.0,127.0,127.0,127.0,108.0,89.0,-105.0
127.0,125.0,134.0,116.0,124.0,85.0,126.0,125.0,26.0,-97.0,-72.0,127.0,127.0,127.0,108.0,89.0,-105.0
127.0,125.0,134.0,116.0,124.0,85.0,126.0,126.0,26.0,-97.0,-72.0,127.0,127.0,127.0,108.0,89.0,-105.0
128.0,125.0,133.0,116.0,123.0,85.0,126.0,126.0,26.0,-97.0,-72.0,127.0,127.0,127.0,108.0,89.0,-105.0
128.0,125.0,133.0,117.0,122.0,85.0,126.0,127.0,26.0,-97.0,-72.0,127.0,127.0,127.0,108.0,89.0,-105.0
128.0,125.0,133.0,117.0,122.0,86.0,126.0,127.0,26.0,-97.0,-72.0,127.0,127.0,127.0,108.0,89.0,-105.0
128.0,125.0,133.0,118.0,121.0,87.0,126.0,127.0,26.0,-97.0,-72.0,127.0,127.0,127.0,108.0,89.0,-105.0
128.0,125.0,133.0,118.0,120.0,87.0,126.0,128.0,26.0,-97.0,-72.0,127.0,127.0,127.0,108.0,89.0,-105.0
128.0,125.0,133.0,118.0,120.0,87.0,126.0,128.0,26.0,-97.0,-72.0,127.0,127.0,127.0,108.0,89.0,-105.0
128.0,125.0,133.0,119.0,119.0,87.0,126.0,128.0,26.0,-97.0,-72.0,127.0,127.0,127.0,108.0,89.0,-105.0
128.0,126.0,134.0,116.0,125.0,85.0,126.0,126.0,26.0,-97.0,-72.0,127.0,127.0,127.0,108.0,89.0,-105.0
129.0,127.0,141.0,112.0,126.0,86.0,127.0,128.0,27.0,-96.0,-72.0,127.0,127.0,127.0,108.0,89.0,-105.0
129.0,127.0,141.0,112.0,126.0,86.0,127.0,128.0,27.0,-96.0,-72.0,127.0,127.0,127.0,108.0,89.0,-105.0
129.0,127.0,142.0,112.0,126.0,87.0,128.0,128.0,27.0,-96.0,-72.0,127.0,127.0,127.0,108.0,89.0,-105.0
129.0,127.0,142.0,113.0,126.0,87.0,127.0,128.0,27.0,-96.0,-72.0,127.0,127.0,127.0,108.0,89.0,-105.0
129.0,127.0,143.0,115.0,126.0,88.0,127.0,128.0,27.0,-96.0,-72.0,127.0,127.0,127.0,108.0,89.0,-105.0
129.0,127.0,143.0,117.0,126.0,89.0,127.0,128.0,27.0,-96.0,-72.0,127.0,127.0,127.0,108.0,89.0,-105.0
129.0,127.0,144.0,119.0,126.0,89.0,127.0,127.0,27.0,-96.0,-72.0,127.0,127.0,127.0,108.0,89.0,-105.0
129.0,127.0,145.0,120.0,127.0,88.0,127.0,127.0,27.0,-96.0,-72.0,127.0,127.0,127.0,108.0,89.0,-105.0
128.0,127.0,140.0,115.0,126.0,86.0,127.0,129.0,27.0,-96.0,-72.0,127.0,127.0,127.0,108.0,89.0,-105.0
129.0,127.0,141.0,113.0,126.0,86.0,127.0,129.0,27.0,-96.0,-72.0,127.0,127.0,127.0,108.0,89.0,-105.0
129.0,126.0,133.0,127.0,128.0,87.0,127.0,129.0,27.0,-97.0,-72.0,127.0,127.0,127.0,108.0,89.0,-105.0
129.0,126.0,133.0,127.0,128.0,87.0,127.0,129.0,27.0,-97.0,-72.0,127.0,127.0,127.0,108.0,89.0,-105.0
129.0,125.0,132.0,127.0,128.0,87.0,127.0,128.0,27.0,-97.0,-72.0,127.0,127.0,127.0,108.0,89.0,-105.0
129.0,126.0,132.0,126.0,128.0,88.0,127.0,128.0,27.0,-97.0,-72.0,127.0,127.0,127.0,108.0,89.0,-105.0
129.0,125.0,132.0,126.0,128.0,89.0,127.0,127.0,27.0,-97.0,-72.0,127.0,127.0,127.0,108.0,89.0,-105.0
129.0,125.0,131.0,125.0,127.0,89.0,127.0,127.0,27.0,-97.0,-72.0,127.0,127.0,127.0,108.0,89.0,-105.0
129.0,125.0,131.0,125.0,127.0,89.0,127.0,126.0,27.0,-97.0,-72.0,127.0,127.0,127.0,108.0,89.0,-105.0
128.0,126.0,134.0,126.0,128.0,87.0,127.0,129.0,27.0,-97.0,-72.0,127.0,127.0,127.0,108.0,89.0,-105.0
128.0,126.0,134.0,127.0,128.0,87.0,127.0,129.0,27.0,-97.0,-72.0,127.0,127.0,127.0,108.0,89.0,-105.0
129.0,126.0,133.0,127.0,128.0,87.0,127.0,129.0,27.0,-97.0,-72.0,127.0,127.0,127.0,108.0,89.0,-105.0
129.0,124.0,125.0,123.0,124.0,85.0,126.0,125.0,27.0,-97.0,-72.0,127.0,127.0,127.0,108.0,89.0,-105.0
129.0,124.0,125.0,122.0,125.0,85.0,126.0,125.0,27.0,-97.0,-72.0,127.0,127.0,127.0,108.0,89.0,-105.0
129.0,124.0,125.0,123.0,125.0,86.0,127.0,124.0,27.0,-97.0,-72.0,127.0,127.0,127.0,108.0,89.0,-105.0
129.0,125.0,125.0,124.0,125.0,87.0,127.0,124.0,27.0,-97.0,-72.0,127.0,127.0,127.0,108.0,89.0,-105.0
129.0,125.0,125.0,125.0,126.0,87.0,127.0,123.0,27.0,-97.0,-72.0,127.0,127.0,127.0,108.0,89.0,-105.0
129.0,125.0,125.0,125.0,126.0,86.0,127.0,123.0,27.0,-97.0,-72.0,127.0,127.0,127.0,108.0,89.0,-105.0
128.0,125.0,126.0,127.0,126.0,85.0,126.0,126.0,27.0,-97.0,-72.0,127.0,127.0,127.0,108.0,89.0,-105.0
128.0,124.0,126.0,126.0,125.0,85.0,126.0,126.0,27.0,-97.0,-72.0,127.0,127.0,127.0,108.0,89.0,-105.0
128.0,124.0,126.0,125.0,125.0,85.0,126.0,126.0,27.0,-97.0,-72.0,127.0,127.0,127.0,108.0,89.0,-105.0
129.0,124.0,125.0,124.0,124.0,85.0,126.0,126.0,27.0,-97.0,-72.0,127.0,127.0,127.0,108.0,89.0,-105.0
129.0,125.0,124.0,132.0,128.0,84.0,127.0,128.0,27.0,-97.0,-72.0,127.0,127.0,127.0,108.0,89.0,-105.0
129.0,125.0,124.0,131.0,128.0,85.0,127.0,129.0,27.0,-97.0,-72.0,127.0,127.0,127.0,108.0,89.0,-105.0
129.0,125.0,124.0,131.0,128.0,86.0,127.0,129.0,27.0,-97.0,-72.0,127.0,127.0,127.0,108.0,89.0,-105.0
128.0,125.0,124.0,131.0,128.0,86.0,127.0,129.0,27.0,-97.0,-72.0,127.0,127.0,127.0,108.0,89.0,-105.0
128.0,125.0,124.0,131.0,128.0,86.0,126.0,129.0,27.0,-97.0,-72.0,127.0,127.0,127.0,108.0,89.0,-105.0
129.0,125.0,124.0,133.0,129.0,85.0,127.0,128.0,27.0,-97.0,-72.0,127.0,127.0,127.0,108.0,89.0,-105.0
129.0,125.0,124.0,133.0,129.0,85.0,127.0,128.0,27.0,-97.0,-72.0,127.0,127.0,127.0,108.0,89.0,-105.0
129.0,125.0,124.0,133.0,129.0,85.0,127.0,128.0,27.0,-97.0,-72.0,127.0,127.0,127.0,108.0,89.0,-105.0
129.0,125.0,124.0,133.0,129.0,84.0,127.0,128.0,27.0,-97.0,-72.0,127.0,127.0,127.0,108.0,89.0,-105.0
129.0,125.0,124.0,132.0,129.0,84.0,127.0,128.0,27.0,-97.0,-72.0,127.0,127.0,127.0,108.0,89.0,-105.0
128.0,123.0,123.0,125.0,125.0,77.0,126.0,127.0,27.0,-98.0,-72.0,127.0,127.0,127.0,108.0,89.0,-105.0
128.0,123.0,123.0,128.0,125.0,77.0,126.0,127.0,27.0,-98.0,-72.0,127.0,127.0,127.0,108.0,89.0,-105.0
128.0,123.0,123.0,131.0,125.0,77.0,126.0,126.0,27.0,-98.0,-72.0,127.0,127.0,127.0,108.0,89.0,-105.0
128.0,123.0,123.0,133.0,126.0,77.0,125.0,125.0,27.0,-98.0,-72.0,127.0,127.0,127.0,108.0,89.0,-105.0
128.0,124.0,123.0,126.0,125.0,77.0,126.0,128.0,27.0,-98.0,-72.0,127.0,127.0,127.0,108.0,89.0,-105.0
128.0,124.0,123.0,124.0,125.0,77.0,126.0,128.0,27.0,-98.0,-72.0,127.0,127.0,127.0,108.0,89.0,-105.0
128.0,124.0,123.0,123.0,125.0,77.0,126.0,128.0,27.0,-98.0,-72.0,127.0,127.0,127.0,108.0,89.0,-105.0
128.0,124.0,123.0,122.0,125.0,77.0,126.0,128.0,27.0,-98.0,-72.0,127.0,127.0,127.0,108.0,89.0,-105.0
128.0,123.0,123.0,122.0,125.0,77.0,126.0,128.0,27.0,-98.0,-72.0,127.0,127.0,127.0,108.0,89.0,-105.0
128.0,123.0,123.0,123.0,125.0,77.0,126.0,127.0,27.0,-98.0,-72.0,127.0,127.0,127.0,108.0,89.0,-105.0
127.0,125.0,124.0,124.0,127.0,80.0,127.0,128.0,29.0,-98.0,-71.0,127.0,127.0,127.0,108.0,89.0,-105.0
127.0,125.0,124.0,124.0,127.0,81.0,127.0,128.0,29.0,-98.0,-71.0,127.0,127.0,127.0,108.0,89.0,-105.0
127.0,125.0,124.0,124.0,127.0,81.0,127.0,128.0,29.0,-98.0,-71.0,127.0,127.0,127.0,108.0,89.0,-105.0
127.0,125.0,124.0,125.0,127.0,78.0,127.0,128.0,29.0,-98.0,-71.0,127.0,127.0,127.0,108.0,89.0,-105.0
127.0,125.0,124.0,125.0,127.0,78.0,127.0,128.0,29.0,-98.0,-71.0,127.0,127.0,127.0,108.0,89.0,-105.0
127.0,125.0,124.0,125.0,127.0,78.0,127.0,128.0,29.0,-98.0,-71.0,127.0,127.0,127.0,108.0,89.0,-105.0
127.0,125.0,124.0,125.0,127.0,79.0,127.0,128.0,29.0,-98.0,-71.0,127.0,127.0,127.0,108.0,89.0,-105.0
127.0,125.0,124.0,125.0,127.0,80.0,127.0,128.0,29.0,-98.0,-71.0,127.0,127.0,127.0,108.0,89.0,-105.0
127.0,125.0,124.0,124.0,127.0,80.0,127.0,128.0,29.0,-98.0,-71.0,127.0,127.0,127.0,108.0,89.0,-105.0
127.0,125.0,124.0,124.0,127.0,80.0,127.0,128.0,29.0,-98.0,-71.0,127.0,127.0,127.0,108.0,89.0,-105.0
127.0,124.0,126.0,126.0,126.0,84.0,127.0,127.0,31.0,-99.0,-70.0,127.0,127.0,127.0,108.0,89.0,-105.0
127.0,124.0,126.0,126.0,126.0,84.0,127.0,127.0,31.0,-99.0,-70.0,127.0,127.0,127.0,108.0,89.0,-105.0
127.0,124.0,126.0,127.0,126.0,82.0,127.0,127.0,31.0,-99.0,-70.0,127.0,127.0,127.0,108.0,89.0,-105.0
127.0,124.0,126.0,127.0,126.0,82.0,127.0,127.0,31.0,-99.0,-70.0,127.0,127.0,127.0,108.0,89.0,-105.0
127.0,124.0,126.0,127.0,126.0,82.0,127.0,127.0,31.0,-99.0,-70.0,127.0,127.0,127.0,108.0,89.0,-105.0
127.0,124.0,126.0,127.0,126.0,82.0,126.0,127.0,31.0,-99.0,-70.0,127.0,127.0,127.0,108.0,89.0,-105.0
127.0,125.0,126.0,127.0,126.0,84.0,126.0,127.0,31.0,-99.0,-70.0,127.0,127.0,127.0,108.0,89.0,-105.0
127.0,125.0,126.0,127.0,126.0,84.0,127.0,127.0,31.0,-99.0,-70.0,127.0,127.0,127.0,108.0,89.0,-105.0
127.0,124.0,126.0,127.0,126.0,84.0,127.0,128.0,31.0,-99.0,-70.0,127.0,127.0,127.0,108.0,89.0,-105.0
127.0,124.0,126.0,127.0,126.0,84.0,127.0,127.0,31.0,-99.0,-70.0,127.0,127.0,127.0,108.0,89.0,-105.0
127.0,124.0,132.0,132.0,126.0,84.0,126.0,127.0,32.0,-99.0,-70.0,127.0,127.0,127.0,108.0,89.0,-105.0
127.0,124.0,131.0,131.0,126.0,83.0,127.0,128.0,32.0,-99.0,-70.0,127.0,127.0,127.0,108.0,89.0,-105.0
127.0,124.0,131.0,131.0,126.0,82.0,127.0,128.0,32.0,-99.0,-70.0,127.0,127.0,127.0,108.0,89.0,-105.0
127.0,124.0,131.0,131.0,126.0,83.0,126.0,128.0,32.0,-99.0,-70.0,127.0,127.0,127.0,108.0,89.0,-105.0
127.0,125.0,131.0,131.0,126.0,83.0,126.0,127.0,32.0,-99.0,-70.0,127.0,127.0,127.0,108.0,89.0,-105.0
127.0,125.0,131.0,131.0,126.0,84.0,126.0,127.0,32.0,-99.0,-70.0,127.0,127.0,127.0,108.0,89.0,-105.0
127.0,125.0,132.0,131.0,126.0,84.0,126.0,127.0,32.0,-99.0,-70.0,127.0,127.0,127.0,108.0,89.0,-105.0
127.0,125.0,132.0,131.0,126.0,84.0,126.0,127.0,32.0,-99.0,-70.0,127.0,127.0,127.0,108.0,89.0,-105.0
127.0,124.0,132.0,131.0,126.0,84.0,126.0,127.0,32.0,-99.0,-70.0,127.0,127.0,127.0,108.0,89.0,-105.0
127.0,124.0,132.0,132.0,126.0,84.0,126.0,127.0,32.0,-99.0,-70.0,127.0,127.0,127.0,108.0,89.0,-105.0
130.0,124.0,118.0,138.0,128.0,81.0,127.0,128.0,33.0,-99.0,-70.0,127.0,127.0,127.0,108.0,89.0,-105.0
130.0,124.0,118.0,138.0,128.0,81.0,127.0,128.0,33.0,-99.0,-70.0,127.0,127.0,127.0,108.0,89.0,-105.0
130.0,124.0,118.0,139.0,128.0,81.0,127.0,128.0,33.0,-99.0,-70.0,127.0,127.0,127.0,108.0,89.0,-105.0
130.0,124.0,118.0,139.0,127.0,81.0,127.0,128.0,33.0,-99.0,-70.0,127.0,127.0,127.0,108.0,89.0,-105.0
130.0,124.0,119.0,139.0,127.0,82.0,127.0,128.0,33.0,-99.0,-70.0,127.0,127.0,127.0,108.0,89.0,-105.0
130.0,124.0,119.0,139.0,127.0,82.0,127.0,128.0,33.0,-99.0,-70.0,127.0,127.0,127.0,108.0,89.0,-105.0
130.0,124.0,119.0,139.0,127.0,82.0,127.0,128.0,33.0,-99.0,-70.0,127.0,127.0,127.0,108.0,89.0,-105.0
130.0,124.0,119.0,139.0,127.0,82.0,127.0,128.0,33.0,-99.0,-70.0,127.0,127.0,127.0,108.0,89.0,-105.0
130.0,124.0,119.0,139.0,127.0,82.0,127.0,128.0,33.0,-99.0,-70.0,127.0,127.0,127.0,108.0,89.0,-105.0
131.0,124.0,120.0,139.0,127.0,82.0,127.0,128.0,33.0,-99.0,-70.0,127.0,127.0,127.0,108.0,89.0,-105.0
136.0,125.0,129.0,142.0,127.0,76.0,127.0,127.0,32.0,-98.0,-70.0,127.0,127.0,127.0,108.0,89.0,-105.0
137.0,125.0,129.0,142.0,126.0,76.0,127.0,128.0,32.0,-98.0,-70.0,127.0,127.0,127.0,108.0,89.0,-105.0
137.0,125.0,129.0,142.0,126.0,76.0,127.0,127.0,32.0,-98.0,-70.0,127.0,127.0,127.0,108.0,89.0,-105.0
137.0,125.0,129.0,142.0,126.0,78.0,127.0,128.0,32.0,-98.0,-70.0,127.0,127.0,127.0,108.0,89.0,-105.0
137.0,125.0,129.0,141.0,126.0,78.0,127.0,128.0,32.0,-98.0,-70.0,127.0,127.0,127.0,108.0,89.0,-105.0
137.0,125.0,129.0,141.0,126.0,77.0,127.0,127.0,32.0,-98.0,-70.0,127.0,127.0,127.0,108.0,89.0,-105.0
137.0,125.0,129.0,141.0,125.0,77.0,127.0,127.0,32.0,-98.0,-70.0,127.0,127.0,127.0,108.0,89.0,-105.0
137.0,125.0,129.0,141.0,125.0,77.0,127.0,127.0,32.0,-98.0,-70.0,127.0,127.0,127.0,108.0,89.0,-105.0
137.0,125.0,129.0,141.0,125.0,77.0,127.0,127.0,32.0,-98.0,-70.0,127.0,127.0,127.0,108.0,89.0,-105.0
136.0,125.0,128.0,143.0,127.0,76.0,128.0,128.0,32.0,-98.0,-70.0,127.0,127.0,127.0,108.0,89.0,-105.0
132.0,126.0,128.0,143.0,127.0,73.0,127.0,127.0,32.0,-97.0,-70.0,127.0,127.0,127.0,108.0,89.0,-105.0
132.0,126.0,128.0,143.0,127.0,73.0,127.0,127.0,32.0,-97.0,-70.0,127.0,127.0,127.0,108.0,89.0,-105.0
132.0,126.0,128.0,143.0,127.0,74.0,127.0,127.0,32.0,-97.0,-70.0,127.0,127.0,127.0,108.0,89.0,-105.0
132.0,126.0,128.0,143.0,127.0,74.0,127.0,127.0,32.0,-97.0,-70.0,127.0,127.0,127.0,108.0,89.0,-105.0
132.0,126.0,128.0,143.0,127.0,74.0,127.0,127.0,32.0,-97.0,-70.0,127.0,127.0,127.0,108.0,89.0,-105.0
131.0,126.0,128.0,143.0,127.0,74.0,127.0,127.0,32.0,-97.0,-70.0,127.0,127.0,127.0,108.0,89.0,-105.0
131.0,126.0,128.0,143.0,127.0,74.0,127.0,127.0,32.0,-97.0,-70.0,127.0,127.0,127.0,108.0,89.0,-105.0
131.0,125.0,128.0,143.0,128.0,74.0,127.0,127.0,32.0,-97.0,-70.0,127.0,127.0,127.0,108.0,89.0,-105.0
132.0,126.0,128.0,143.0,127.0,73.0,127.0,127.0,32.0,-97.0,-70.0,127.0,127.0,127.0,108.0,89.0,-105.0
132.0,126.0,128.0,143.0,127.0,73.0,127.0,127.0,32.0,-97.0,-70.0,127.0,127.0,127.0,108.0,89.0,-105.0
127.0,123.0,129.0,137.0,127.0,71.0,127.0,127.0,31.0,-96.0,-70.0,127.0,127.0,127.0,108.0,89.0,-105.0
127.0,123.0,129.0,137.0,127.0,73.0,127.0,127.0,31.0,-96.0,-70.0,127.0,127.0,127.0,108.0,89.0,-105.0
127.0,124.0,128.0,137.0,127.0,73.0,127.0,127.0,31.0,-96.0,-70.0,127.0,127.0,127.0,108.0,89.0,-105.0
127.0,123.0,128.0,137.0,127.0,73.0,127.0,127.0,31.0,-96.0,-70.0,127.0,127.0,127.0,108.0,89.0,-105.0
127.0,123.0,128.0,137.0,127.0,73.0,127.0,127.0,31.0,-96.0,-70.0,127.0,127.0,127.0,108.0,89.0,-105.0
127.0,123.0,128.0,136.0,127.0,73.0,127.0,127.0,31.0,-96.0,-70.0,127.0,127.0,127.0,108.0,89.0,-105.0
127.0,123.0,128.0,136.0,126.0,73.0,127.0,127.0,31.0,-96.0,-70.0,127.0,127.0,127.0,108.0,89.0,-105.0
127.0,123.0,129.0,137.0,127.0,72.0,127.0,127.0,31.0,-96.0,-70.0,127.0,127.0,127.0,108.0,89.0,-105.0
127.0,123.0,129.0,137.0,127.0,71.0,127.0,127.0,31.0,-96.0,-70.0,127.0,127.0,127.0,108.0,89.0,-105.0
127.0,123.0,129.0,137.0,127.0,71.0,127.0,127.0,31.0,-96.0,-70.0,127.0,127.0,127.0,108.0,89.0,-105.0
126.0,123.0,128.0,136.0,126.0,254.0,127.0,127.0,31.0,-96.0,-70.0,127.0,127.0,127.0,108.0,89.0,-105.0
126.0,123.0,128.0,136.0,126.0,254.0,127.0,127.0,31.0,-96.0,-70.0,127.0,127.0,127.0,108.0,89.0,-105.0
126.0,123.0,128.0,136.0,126.0,254.0,127.0,127.0,31.0,-96.0,-70.0,127.0,127.0,127.0,108.0,89.0,-105.0
126.0,123.0,128.0,136.0,126.0,254.0,127.0,127.0,31.0,-96.0,-70.0,127.0,127.0,127.0,108.0,89.0,-105.0
126.0,124.0,128.0,136.0,127.0,254.0,127.0,127.0,31.0,-96.0,-70.0,127.0,127.0,127.0,108.0,89.0,-105.0
126.0,124.0,128.0,136.0,126.0,254.0,127.0,127.0,31.0,-96.0,-70.0,127.0,127.0,127.0,108.0,89.0,-105.0
126.0,123.0,128.0,136.0,126.0,254.0,127.0,127.0,31.0,-96.0,-70.0,127.0,127.0,127.0,108.0,89.0,-105.0
126.0,123.0,128.0,136.0,126.0,254.0,127.0,127.0,31.0,-96.0,-70.0,127.0,127.0,127.0,108.0,89.0,-105.0
126.0,123.0,128.0,136.0,126.0,254.0,127.0,127.0,31.0,-96.0,-70.0,127.0,127.0,127.0,108.0,89.0,-105.0
126.0,123.0,128.0,136.0,126.0,254.0,127.0,127.0,31.0,-96.0,-70.0,127.0,127.0,127.0,108.0,89.0,-105.0
127.0,126.0,115.0,132.0,127.0,247.0,127.0,127.0,31.0,-98.0,-70.0,127.0,127.0,127.0,108.0,89.0,-105.0
127.0,126.0,114.0,132.0,127.0,245.0,127.0,127.0,31.0,-98.0,-70.0,127.0,127.0,127.0,108.0,89.0,-105.0
127.0,126.0,113.0,132.0,127.0,244.0,127.0,127.0,31.0,-98.0,-70.0,127.0,127.0,127.0,108.0,89.0,-105.0
127.0,126.0,112.0,132.0,127.0,243.0,127.0,127.0,31.0,-98.0,-70.0,127.0,127.0,127.0,108.0,89.0,-105.0
127.0,126.0,120.0,135.0,127.0,252.0,127.0,127.0,31.0,-98.0,-70.0,127.0,127.0,127.0,108.0,89.0,-105.0
127.0,126.0,119.0,134.0,127.0,251.0,127.0,127.0,31.0,-98.0,-70.0,127.0,127.0,127.0,108.0,89.0,-105.0
127.0,126.0,118.0,134.0,127.0,249.0,127.0,127.0,31.0,-98.0,-70.0,127.0,127.0,127.0,108.0,89.0,-105.0
127.0,126.0,117.0,133.0,127.0,248.0,128.0,127.0,31.0,-98.0,-70.0,127.0,127.0,127.0,108.0,89.0,-105.0
127.0,126.0,117.0,133.0,127.0,247.0,128.0,127.0,31.0,-98.0,-70.0,127.0,127.0,127.0,108.0,89.0,-105.0
127.0,126.0,116.0,132.0,127.0,247.0,127.0,127.0,31.0,-98.0,-70.0,127.0,127.0,127.0,108.0,89.0,-105.0
127.0,126.0,96.0,135.0,127.0,243.0,127.0,127.0,30.0,-98.0,-70.0,127.0,127.0,127.0,108.0,89.0,-105.0
127.0,125.0,96.0,135.0,127.0,244.0,127.0,127.0,30.0,-98.0,-70.0,127.0,127.0,127.0,108.0,89.0,-105.0
127.0,125.0,97.0,135.0,127.0,245.0,127.0,127.0,30.0,-98.0,-70.0,127.0,127.0,127.0,108.0,89.0,-105.0
127.0,126.0,94.0,134.0,127.0,236.0,127.0,127.0,30.0,-98.0,-70.0,127.0,127.0,127.0,108.0,89.0,-105.0
127.0,126.0,94.0,134.0,127.0,237.0,127.0,127.0,30.0,-98.0,-70.0,127.0,127.0,127.0,108.0,89.0,-105.0
127.0,126.0,94.0,135.0,127.0,237.0,127.0,127.0,30.0,-98.0,-70.0,127.0,127.0,127.0,108.0,89.0,-105.0
127.0,125.0,95.0,135.0,127.0,238.0,127.0,127.0,30.0,-98.0,-70.0,127.0,127.0,127.0,108.0,89.0,-105.0
127.0,125.0,95.0,135.0,127.0,239.0,127.0,127.0,30.0,-98.0,-70.0,127.0,127.0,127.0,108.0,89.0,-105.0
127.0,126.0,95.0,135.0,127.0,241.0,127.0,127.0,30.0,-98.0,-70.0,127.0,127.0,127.0,108.0,89.0,-105.0
127.0,126.0,96.0,135.0,127.0,242.0,127.0,127.0,30.0,-98.0,-70.0,127.0,127.0,127.0,108.0,89.0,-105.0
127.0,125.0,91.0,133.0,127.0,254.0,127.0,128.0,30.0,-99.0,-70.0,127.0,127.0,127.0,108.0,89.0,-105.0
127.0,125.0,91.0,133.0,127.0,254.0,126.0,128.0,30.0,-99.0,-70.0,127.0,127.0,127.0,108.0,89.0,-105.0
127.0,125.0,90.0,132.0,127.0,254.0,127.0,127.0,30.0,-99.0,-70.0,127.0,127.0,127.0,108.0,89.0,-105.0
127.0,125.0,90.0,133.0,127.0,254.0,127.0,128.0,30.0,-99.0,-70.0,127.0,127.0,127.0,108.0,89.0,-105.0
127.0,125.0,90.0,133.0,127.0,254.0,127.0,127.0,30.0,-99.0,-70.0,127.0,127.0,127.0,108.0,89.0,-105.0
127.0,125.0,90.0,133.0,127.0,254.0,127.0,127.0,30.0,-99.0,-70.0,127.0,127.0,127.0,108.0,89.0,-105.0
127.0,125.0,90.0,133.0,127.0,254.0,127.0,127.0,30.0,-99.0,-70.0,127.0,127.0,127.0,108.0,89.0,-105.0
127.0,125.0,90.0,133.0,127.0,254.0,126.0,127.0,30.0,-99.0,-70.0,127.0,127.0,127.0,108.0,89.0,-105.0
127.0,125.0,90.0,133.0,127.0,254.0,126.0,128.0,30.0,-99.0,-70.0,127.0,127.0,127.0,108.0,89.0,-105.0
127.0,125.0,91.0,133.0,127.0,254.0,126.0,128.0,30.0,-99.0,-70.0,127.0,127.0,127.0,108.0,89.0,-105.0
127.0,125.0,162.0,132.0,127.0,254.0,126.0,128.0,31.0,-98.0,-70.0,127.0,127.0,127.0,108.0,89.0,-105.0
127.0,124.0,156.0,133.0,127.0,254.0,126.0,128.0,31.0,-98.0,-70.0,127.0,127.0,127.0,108.0,89.0,-105.0
127.0,125.0,157.0,133.0,127.0,254.0,126.0,128.0,31.0,-98.0,-70.0,127.0,127.0,127.0,108.0,89.0,-105.0
127.0,124.0,158.0,133.0,127.0,254.0,126.0,128.0,31.0,-98.0,-70.0,127.0,127.0,127.0,108.0,89.0,-105.0
127.0,124.0,158.0,132.0,127.0,254.0,126.0,128.0,31.0,-98.0,-70.0,127.0,127.0,127.0,108.0,89.0,-105.0
127.0,125.0,159.0,132.0,126.0,254.0,126.0,128.0,31.0,-98.0,-70.0,127.0,127.0,127.0,108.0,89.0,-105.0
127.0,125.0,160.0,132.0,126.0,254.0,126.0,128.0,31.0,-98.0,-70.0,127.0,127.0,127.0,108.0,89.0,-105.0
127.0,125.0,160.0,132.0,127.0,254.0,126.0,128.0,31.0,-98.0,-70.0,127.0,127.0,127.0,108.0,89.0,-105.0
127.0,125.0,161.0,132.0,127.0,254.0,126.0,128.0,31.0,-98.0,-70.0,127.0,127.0,127.0,108.0,89.0,-105.0
127.0,125.0,161.0,132.0,127.0,254.0,126.0,128.0,31.0,-98.0,-70.0,127.0,127.0,127.0,108.0,89.0,-105.0
128.0,126.0,134.0,133.0,127.0,254.0,126.0,128.0,31.0,-98.0,-69.0,127.0,127.0,127.0,109.0,89.0,-105.0
128.0,126.0,133.0,133.0,127.0,254.0,126.0,128.0,31.0,-98.0,-69.0,127.0,127.0,127.0,109.0,89.0,-105.0
128.0,126.0,133.0,133.0,127.0,254.0,127.0,128.0,31.0,-98.0,-69.0,127.0,127.0,127.0,109.0,89.0,-105.0
128.0,126.0,132.0,133.0,127.0,254.0,126.0,128.0,31.0,-98.0,-69.0,127.0,127.0,127.0,109.0,89.0,-105.0
128.0,126.0,131.0,133.0,127.0,254.0,127.0,128.0,31.0,-98.0,-69.0,127.0,127.0,127.0,109.0,89.0,-105.0
128.0,126.0,130.0,133.0,127.0,254.0,127.0,128.0,31.0,-98.0,-69.0,127.0,127.0,127.0,109.0,89.0,-105.0
128.0,127.0,128.0,133.0,127.0,254.0,126.0,128.0,31.0,-98.0,-69.0,127.0,127.0,127.0,109.0,89.0,-105.0
128.0,127.0,127.0,133.0,127.0,254.0,127.0,128.0,31.0,-98.0,-69.0,127.0,127.0,127.0,109.0,89.0,-105.0
128.0,127.0,126.0,133.0,127.0,254.0,127.0,128.0,31.0,-98.0,-69.0,127.0,127.0,127.0,109.0,89.0,-105.0
128.0,127.0,124.0,133.0,127.0,254.0,127.0,128.0,31.0,-98.0,-69.0,127.0,127.0,127.0,109.0,89.0,-105.0
128.0,128.0,64.0,131.0,127.0,232.0,127.0,128.0,32.0,-99.0,-69.0,127.0,127.0,127.0,109.0,89.0,-105.0
128.0,128.0,63.0,131.0,126.0,231.0,127.0,128.0,32.0,-99.0,-69.0,127.0,127.0,127.0,109.0,89.0,-105.0
128.0,128.0,63.0,131.0,126.0,230.0,127.0,128.0,32.0,-99.0,-69.0,127.0,127.0,127.0,109.0,89.0,-105.0
128.0,128.0,62.0,131.0,126.0,229.0,127.0,128.0,32.0,-99.0,-69.0,127.0,127.0,127.0,109.0,89.0,-105.0
128.0,128.0,61.0,131.0,126.0,228.0,127.0,128.0,32.0,-99.0,-69.0,127.0,127.0,127.0,109.0,89.0,-105.0
128.0,128.0,61.0,131.0,126.0,228.0,127.0,128.0,32.0,-99.0,-69.0,127.0,127.0,127.0,109.0,89.0,-105.0
128.0,128.0,60.0,131.0,127.0,228.0,127.0,128.0,32.0,-99.0,-69.0,127.0,127.0,127.0,109.0,89.0,-105.0
128.0,128.0,60.0,131.0,127.0,227.0,127.0,128.0,32.0,-99.0,-69.0,127.0,127.0,127.0,109.0,89.0,-105.0
128.0,127.0,59.0,132.0,127.0,225.0,127.0,128.0,32.0,-99.0,-69.0,127.0,127.0,127.0,109.0,89.0,-105.0
128.0,128.0,64.0,131.0,127.0,233.0,127.0,128.0,32.0,-99.0,-69.0,127.0,127.0,127.0,109.0,89.0,-105.0
128.0,127.0,73.0,133.0,127.0,196.0,127.0,128.0,32.0,-99.0,-69.0,127.0,127.0,127.0,109.0,89.0,-105.0
128.0,127.0,74.0,133.0,127.0,195.0,127.0,128.0,32.0,-99.0,-69.0,127.0,127.0,127.0,109.0,89.0,-105.0
128.0,127.0,75.0,133.0,127.0,195.0,127.0,128.0,32.0,-99.0,-69.0,127.0,127.0,127.0,109.0,89.0,-105.0
128.0,127.0,76.0,133.0,127.0,194.0,127.0,128.0,32.0,-99.0,-69.0,127.0,127.0,127.0,109.0,89.0,-105.0
128.0,128.0,77.0,132.0,127.0,195.0,127.0,128.0,32.0,-99.0,-69.0,127.0,127.0,127.0,109.0,89.0,-105.0
128.0,127.0,78.0,132.0,127.0,194.0,127.0,128.0,32.0,-99.0,-69.0,127.0,127.0,127.0,109.0,89.0,-105.0
128.0,127.0,79.0,132.0,127.0,194.0,127.0,128.0,32.0,-99.0,-69.0,127.0,127.0,127.0,109.0,89.0,-105.0
128.0,127.0,80.0,132.0,127.0,193.0,127.0,128.0,32.0,-99.0,-69.0,127.0,127.0,127.0,109.0,89.0,-105.0
128.0,127.0,71.0,133.0,127.0,197.0,127.0,128.0,32.0,-99.0,-69.0,127.0,127.0,127.0,109.0,89.0,-105.0
128.0,127.0,72.0,133.0,127.0,197.0,127.0,128.0,32.0,-99.0,-69.0,127.0,127.0,127.0,109.0,89.0,-105.0
128.0,127.0,123.0,132.0,127.0,175.0,127.0,128.0,33.0,-99.0,-69.0,127.0,127.0,127.0,109.0,89.0,-105.0
128.0,127.0,124.0,132.0,127.0,174.0,127.0,128.0,33.0,-99.0,-69.0,127.0,127.0,127.0,109.0,89.0,-105.0
128.0,127.0,124.0,132.0,127.0,174.0,127.0,128.0,33.0,-99.0,-69.0,127.0,127.0,127.0,109.0,89.0,-105.0
128.0,127.0,125.0,132.0,127.0,174.0,127.0,128.0,33.0,-99.0,-69.0,127.0,127.0,127.0,109.0,89.0,-105.0
128.0,127.0,126.0,132.0,127.0,173.0,127.0,128.0,33.0,-99.0,-69.0,127.0,127.0,127.0,109.0,89.0,-105.0
128.0,127.0,127.0,132.0,127.0,173.0,127.0,128.0,33.0,-99.0,-69.0,127.0,127.0,127.0,109.0,89.0,-105.0
128.0,127.0,127.0,132.0,127.0,174.0,127.0,128.0,33.0,-99.0,-69.0,127.0,127.0,127.0,109.0,89.0,-105.0
128.0,127.0,121.0,133.0,127.0,176.0,127.0,128.0,33.0,-99.0,-69.0,127.0,127.0,127.0,109.0,89.0,-105.0
128.0,127.0,121.0,132.0,127.0,175.0,127.0,128.0,33.0,-99.0,-69.0,127.0,127.0,127.0,109.0,89.0,-105.0
128.0,127.0,122.0,132.0,127.0,175.0,127.0,128.0,33.0,-99.0,-69.0,127.0,127.0,127.0,109.0,89.0,-105.0
128.0,128.0,148.0,132.0,127.0,157.0,127.0,128.0,33.0,-98.0,-69.0,127.0,127.0,127.0,109.0,89.0,-105.0
128.0,128.0,148.0,132.0,127.0,156.0,127.0,128.0,33.0,-98.0,-69.0,127.0,127.0,127.0,109.0,89.0,-105.0
128.0,128.0,148.0,132.0,127.0,156.0,127.0,128.0,33.0,-98.0,-69.0,127.0,127.0,127.0,109.0,89.0,-105.0
128.0,128.0,148.0,132.0,127.0,155.0,127.0,128.0,33.0,-98.0,-69.0,127.0,127.0,127.0,109.0,89.0,-105.0
128.0,128.0,148.0,132.0,127.0,155.0,127.0,128.0,33.0,-98.0,-69.0,127.0,127.0,127.0,109.0,89.0,-105.0
128.0,127.0,148.0,132.0,127.0,154.0,127.0,128.0,33.0,-98.0,-69.0,127.0,127.0,127.0,109.0,89.0,-105.0
128.0,128.0,147.0,132.0,127.0,157.0,127.0,128.0,33.0,-98.0,-69.0,127.0,127.0,127.0,109.0,89.0,-105.0
128.0,128.0,147.0,132.0,127.0,156.0,127.0,128.0,33.0,-98.0,-69.0,127.0,127.0,127.0,109.0,89.0,-105.0
128.0,128.0,147.0,132.0,127.0,156.0,127.0,128.0,33.0,-98.0,-69.0,127.0,127.0,127.0,109.0,89.0,-105.0
128.0,128.0,147.0,132.0,127.0,157.0,127.0,128.0,33.0,-98.0,-69.0,127.0,127.0,127.0,109.0,89.0,-105.0
127.0,127.0,143.0,131.0,127.0,146.0,127.0,128.0,33.0,-98.0,-68.0,127.0,127.0,127.0,109.0,89.0,-105.0
127.0,127.0,143.0,131.0,126.0,145.0,127.0,128.0,33.0,-98.0,-68.0,127.0,127.0,127.0,109.0,89.0,-105.0
127.0,127.0,142.0,131.0,126.0,145.0,126.0,128.0,33.0,-98.0,-68.0,127.0,127.0,127.0,109.0,89.0,-105.0
127.0,127.0,142.0,131.0,126.0,145.0,126.0,128.0,33.0,-98.0,-68.0,127.0,127.0,127.0,109.0,89.0,-105.0
127.0,127.0,142.0,130.0,126.0,145.0,126.0,128.0,33.0,-98.0,-68.0,127.0,127.0,127.0,109.0,89.0,-105.0
127.0,127.0,144.0,131.0,127.0,145.0,127.0,128.0,33.0,-98.0,-68.0,127.0,127.0,127.0,109.0,89.0,-105.0
127.0,127.0,144.0,131.0,127.0,145.0,127.0,128.0,33.0,-98.0,-68.0,127.0,127.0,127.0,109.0,89.0,-105.0
127.0,127.0,143.0,131.0,127.0,145.0,127.0,128.0,33.0,-98.0,-68.0,127.0,127.0,127.0,109.0,89.0,-105.0
127.0,127.0,143.0,131.0,127.0,146.0,127.0,128.0,33.0,-98.0,-68.0,127.0,127.0,127.0,109.0,89.0,-105.0
127.0,128.0,143.0,131.0,127.0,146.0,127.0,128.0,33.0,-98.0,-68.0,127.0,127.0,127.0,109.0,89.0,-105.0
127.0,128.0,132.0,132.0,127.0,145.0,127.0,128.0,33.0,-97.0,-68.0,127.0,127.0,127.0,109.0,89.0,-105.0
127.0,127.0,131.0,132.0,127.0,145.0,127.0,128.0,33.0,-97.0,-68.0,127.0,127.0,127.0,109.0,89.0,-105.0
127.0,127.0,131.0,132.0,127.0,145.0,127.0,128.0,33.0,-97.0,-68.0,127.0,127.0,127.0,109.0,89.0,-105.0
127.0,127.0,130.0,131.0,127.0,145.0,127.0,128.0,33.0,-97.0,-68.0,127.0,127.0,127.0,109.0,89.0,-105.0
127.0,127.0,134.0,132.0,127.0,144.0,127.0,128.0,33.0,-97.0,-68.0,127.0,127.0,127.0,109.0,89.0,-105.0
127.0,127.0,134.0,132.0,127.0,144.0,127.0,128.0,33.0,-97.0,-68.0,127.0,127.0,127.0,109.0,89.0,-105.0
127.0,127.0,133.0,132.0,127.0,144.0,127.0,128.0,33.0,-97.0,-68.0,127.0,127.0,127.0,109.0,89.0,-105.0
127.0,128.0,133.0,132.0,127.0,145.0,127.0,128.0,33.0,-97.0,-68.0,127.0,127.0,127.0,109.0,89.0,-105.0
127.0,128.0,133.0,132.0,127.0,146.0,127.0,128.0,33.0,-97.0,-68.0,127.0,127.0,127.0,109.0,89.0,-105.0
127.0,128.0,132.0,132.0,127.0,146.0,127.0,128.0,33.0,-97.0,-68.0,127.0,127.0,127.0,109.0,89.0,-105.0
127.0,127.0,118.0,132.0,127.0,146.0,127.0,128.0,32.0,-97.0,-68.0,127.0,127.0,127.0,109.0,89.0,-105.0
127.0,128.0,118.0,132.0,127.0,146.0,127.0,128.0,32.0,-97.0,-68.0,127.0,127.0,127.0,109.0,89.0,-105.0
127.0,127.0,118.0,132.0,127.0,146.0,127.0,128.0,32.0,-97.0,-68.0,127.0,127.0,127.0,109.0,89.0,-105.0
127.0,127.0,118.0,131.0,127.0,145.0,127.0,128.0,32.0,-97.0,-68.0,127.0,127.0,127.0,109.0,89.0,-105.0
127.0,127.0,118.0,131.0,127.0,145.0,127.0,128.0,32.0,-97.0,-68.0,127.0,127.0,127.0,109.0,89.0,-105.0
127.0,127.0,118.0,132.0,127.0,145.0,127.0,128.0,32.0,-97.0,-68.0,127.0,127.0,127.0,109.0,89.0,-105.0
127.0,128.0,118.0,132.0,127.0,145.0,127.0,128.0,32.0,-97.0,-68.0,127.0,127.0,127.0,109.0,89.0,-105.0
127.0,128.0,118.0,132.0,127.0,146.0,127.0,128.0,32.0,-97.0,-68.0,127.0,127.0,127.0,109.0,89.0,-105.0
127.0,128.0,118.0,132.0,127.0,146.0,127.0,128.0,32.0,-97.0,-68.0,127.0,127.0,127.0,109.0,89.0,-105.0
127.0,128.0,118.0,132.0,127.0,146.0,127.0,128.0,32.0,-97.0,-68.0,127.0,127.0,127.0,109.0,89.0,-105.0
127.0,127.0,132.0,131.0,127.0,147.0,127.0,128.0,32.0,-97.0,-68.0,127.0,127.0,127.0,109.0,89.0,-105.0
127.0,127.0,132.0,131.0,127.0,147.0,127.0,128.0,32.0,-97.0,-68.0,127.0,127.0,127.0,109.0,89.0,-105.0
127.0,127.0,130.0,131.0,127.0,146.0,127.0,128.0,32.0,-97.0,-68.0,127.0,127.0,127.0,109.0,89.0,-105.0
127.0,127.0,130.0,131.0,127.0,146.0,127.0,128.0,32.0,-97.0,-68.0,127.0,127.0,127.0,109.0,89.0,-105.0
127.0,127.0,130.0,131.0,127.0,146.0,127.0,128.0,32.0,-97.0,-68.0,127.0,127.0,127.0,109.0,89.0,-105.0
127.0,127.0,130.0,131.0,127.0,146.0,127.0,128.0,32.0,-97.0,-68.0,127.0,127.0,127.0,109.0,89.0,-105.0
127.0,127.0,131.0,131.0,127.0,147.0,127.0,128.0,32.0,-97.0,-68.0,127.0,127.0,127.0,109.0,89.0,-105.0
127.0,127.0,131.0,131.0,127.0,147.0,127.0,128.0,32.0,-97.0,-68.0,127.0,127.0,127.0,109.0,89.0,-105.0
127.0,127.0,131.0,131.0,127.0,147.0,127.0,128.0,32.0,-97.0,-68.0,127.0,127.0,127.0,109.0,89.0,-105.0
127.0,127.0,132.0,131.0,127.0,147.0,127.0,128.0,32.0,-97.0,-68.0,127.0,127.0,127.0,109.0,89.0,-105.0
127.0,127.0,137.0,132.0,127.0,147.0,127.0,128.0,32.0,-97.0,-68.0,127.0,127.0,127.0,109.0,89.0,-105.0
127.0,126.0,137.0,132.0,127.0,147.0,127.0,128.0,32.0,-97.0,-68.0,127.0,127.0,127.0,109.0,89.0,-105.0
127.0,126.0,137.0,132.0,127.0,147.0,127.0,128.0,32.0,-97.0,-68.0,127.0,127.0,127.0,109.0,89.0,-105.0
127.0,126.0,137.0,132.0,127.0,147.0,127.0,128.0,32.0,-97.0,-68.0,127.0,127.0,127.0,109.0,89.0,-105.0
127.0,127.0,137.0,131.0,127.0,147.0,127.0,128.0,32.0,-97.0,-68.0,127.0,127.0,127.0,109.0,89.0,-105.0
127.0,127.0,137.0,131.0,127.0,148.0,127.0,128.0,32.0,-97.0,-68.0,127.0,127.0,127.0,109.0,89.0,-105.0
127.0,127.0,137.0,131.0,127.0,148.0,127.0,128.0,32.0,-97.0,-68.0,127.0,127.0,127.0,109.0,89.0,-105.0
127.0,127.0,137.0,131.0,127.0,147.0,127.0,128.0,32.0,-97.0,-68.0,127.0,127.0,127.0,109.0,89.0,-105.0
127.0,127.0,137.0,131.0,127.0,147.0,127.0,128.0,32.0,-97.0,-68.0,127.0,127.0,127.0,109.0,89.0,-105.0
127.0,127.0,137.0,132.0,127.0,147.0,127.0,128.0,32.0,-97.0,-68.0,127.0,127.0,127.0,109.0,89.0,-105.0
128.0,127.0,139.0,131.0,127.0,146.0,127.0,128.0,32.0,-97.0,-68.0,127.0,127.0,127.0,109.0,89.0,-105.0
128.0,127.0,139.0,131.0,127.0,146.0,127.0,128.0,32.0,-97.0,-68.0,127.0,127.0,127.0,109.0,89.0,-105.0
128.0,127.0,139.0,131.0,127.0,146.0,127.0,128.0,32.0,-97.0,-68.0,127.0,127.0,127.0,109.0,89.0,-105.0
128.0,127.0,139.0,131.0,127.0,146.0,127.0,128.0,32.0,-97.0,-68.0,127.0,127.0,127.0,109.0,89.0,-105.0
128.0,128.0,139.0,132.0,127.0,147.0,127.0,128.0,32.0,-97.0,-68.0,127.0,127.0,127.0,109.0,89.0,-105.0
128.0,128.0,139.0,132.0,127.0,147.0,127.0,128.0,32.0,-97.0,-68.0,127.0,127.0,127.0,109.0,89.0,-105.0
128.0,128.0,139.0,132.0,127.0,147.0,127.0,128.0,32.0,-97.0,-68.0,127.0,127.0,127.0,109.0,89.0,-105.0
128.0,127.0,139.0,132.0,127.0,147.0,127.0,128.0,32.0,-97.0,-68.0,127.0,127.0,127.0,109.0,89.0,-105.0
128.0,127.0,139.0,132.0,127.0,147.0,127.0,128.0,32.0,-97.0,-68.0,127.0,127.0,127.0,109.0,89.0,-105.0
128.0,127.0,139.0,132.0,127.0,147.0,127.0,128.0,32.0,-97.0,-68.0,127.0,127.0,127.0,109.0,89.0,-105.0
127.0,126.0,136.0,131.0,127.0,143.0,127.0,128.0,32.0,-97.0,-69.0,127.0,127.0,127.0,109.0,89.0,-105.0
127.0,126.0,136.0,131.0,127.0,143.0,127.0,128.0,32.0,-97.0,-69.0,127.0,127.0,127.0,109.0,89.0,-105.0
127.0,126.0,136.0,131.0,127.0,143.0,127.0,128.0,32.0,-97.0,-69.0,127.0,127.0,127.0,109.0,89.0,-105.0
127.0,126.0,136.0,131.0,127.0,143.0,127.0,128.0,32.0,-97.0,-69.0,127.0,127.0,127.0,109.0,89.0,-105.0
127.0,126.0,136.0,131.0,127.0,143.0,127.0,128.0,32.0,-97.0,-69.0,127.0,127.0,127.0,109.0,89.0,-105.0
127.0,126.0,136.0,131.0,127.0,143.0,127.0,128.0,32.0,-97.0,-69.0,127.0,127.0,127.0,109.0,89.0,-105.0
127.0,127.0,136.0,131.0,127.0,144.0,127.0,128.0,32.0,-97.0,-69.0,127.0,127.0,127.0,109.0,89.0,-105.0
127.0,127.0,136.0,131.0,127.0,145.0,127.0,128.0,32.0,-97.0,-69.0,127.0,127.0,127.0,109.0,89.0,-105.0
127.0,127.0,136.0,131.0,127.0,145.0,127.0,128.0,32.0,-97.0,-69.0,127.0,127.0,127.0,109.0,89.0,-105.0
127.0,126.0,136.0,131.0,127.0,143.0,127.0,128.0,32.0,-97.0,-69.0,127.0,127.0,127.0,109.0,89.0,-105.0
126.0,127.0,133.0,131.0,127.0,144.0,127.0,128.0,32.0,-97.0,-69.0,127.0,127.0,127.0,109.0,89.0,-105.0
126.0,127.0,133.0,131.0,127.0,144.0,127.0,128.0,32.0,-97.0,-69.0,127.0,127.0,127.0,109.0,89.0,-105.0
126.0,127.0,132.0,131.0,127.0,144.0,127.0,128.0,32.0,-97.0,-69.0,127.0,127.0,127.0,109.0,89.0,-105.0
126.0,127.0,132.0,131.0,127.0,144.0,127.0,128.0,32.0,-97.0,-69.0,127.0,127.0,127.0,109.0,89.0,-105.0
127.0,127.0,132.0,131.0,127.0,144.0,127.0,128.0,32.0,-97.0,-69.0,127.0,127.0,127.0,109.0,89.0,-105.0
126.0,127.0,132.0,131.0,127.0,143.0,127.0,128.0,32.0,-97.0,-69.0,127.0,127.0,127.0,109.0,89.0,-105.0
126.0,127.0,132.0,131.0,127.0,143.0,127.0,128.0,32.0,-97.0,-69.0,127.0,127.0,127.0,109.0,89.0,-105.0
127.0,127.0,132.0,131.0,127.0,143.0,127.0,128.0,32.0,-97.0,-69.0,127.0,127.0,127.0,109.0,89.0,-105.0
126.0,127.0,133.0,131.0,127.0,143.0,127.0,128.0,32.0,-97.0,-69.0,127.0,127.0,127.0,109.0,89.0,-105.0
126.0,127.0,133.0,131.0,127.0,144.0,127.0,128.0,32.0,-97.0,-69.0,127.0,127.0,127.0,109.0,89.0,-105.0
127.0,127.0,129.0,131.0,127.0,144.0,127.0,128.0,32.0,-97.0,-69.0,127.0,127.0,127.0,109.0,89.0,-105.0
126.0,127.0,128.0,130.0,127.0,144.0,127.0,128.0,32.0,-97.0,-69.0,127.0,127.0,127.0,109.0,89.0,-105.0
126.0,127.0,129.0,130.0,127.0,144.0,127.0,128.0,32.0,-97.0,-69.0,127.0,127.0,127.0,109.0,89.0,-105.0
126.0,127.0,128.0,130.0,127.0,144.0,127.0,128.0,32.0,-97.0,-69.0,127.0,127.0,127.0,109.0,89.0,-105.0
126.0,127.0,128.0,130.0,127.0,144.0,127.0,128.0,32.0,-97.0,-69.0,127.0,127.0,127.0,109.0,89.0,-105.0
126.0,127.0,128.0,130.0,127.0,144.0,127.0,128.0,32.0,-97.0,-69.0,127.0,127.0,127.0,109.0,89.0,-105.0
127.0,127.0,129.0,131.0,127.0,143.0,127.0,128.0,32.0,-97.0,-69.0,127.0,127.0,127.0,109.0,89.0,-105.0
127.0,127.0,129.0,131.0,127.0,143.0,127.0,128.0,32.0,-97.0,-69.0,127.0,127.0,127.0,109.0,89.0,-105.0
127.0,127.0,129.0,131.0,127.0,144.0,127.0,128.0,32.0,-97.0,-69.0,127.0,127.0,127.0,109.0,89.0,-105.0
127.0,127.0,129.0,131.0,127.0,144.0,127.0,128.0,32.0,-97.0,-69.0,127.0,127.0,127.0,109.0,89.0,-105.0
127.0,127.0,127.0,131.0,127.0,144.0,126.0,128.0,31.0,-97.0,-69.0,127.0,127.0,127.0,109.0,89.0,-105.0
127.0,128.0,127.0,131.0,127.0,145.0,126.0,128.0,31.0,-97.0,-69.0,127.0,127.0,127.0,109.0,89.0,-105.0
127.0,128.0,127.0,131.0,127.0,145.0,127.0,128.0,31.0,-97.0,-69.0,127.0,127.0,127.0,109.0,89.0,-105.0
127.0,127.0,127.0,131.0,127.0,144.0,126.0,128.0,31.0,-97.0,-69.0,127.0,127.0,127.0,109.0,89.0,-105.0
127.0,127.0,127.0,131.0,127.0,144.0,126.0,128.0,31.0,-97.0,-69.0,127.0,127.0,127.0,109.0,89.0,-105.0
127.0,127.0,127.0,131.0,126.0,143.0,126.0,128.0,31.0,-97.0,-69.0,127.0,127.0,127.0,109.0,89.0,-105.0
127.0,127.0,127.0,131.0,127.0,143.0,126.0,128.0,31.0,-97.0,-69.0,127.0,127.0,127.0,109.0,89.0,-105.0
127.0,127.0,127.0,131.0,126.0,144.0,126.0,128.0,31.0,-97.0,-69.0,127.0,127.0,127.0,109.0,89.0,-105.0
127.0,127.0,127.0,131.0,127.0,144.0,126.0,128.0,31.0,-97.0,-69.0,127.0,127.0,127.0,109.0,89.0,-105.0
127.0,127.0,127.0,131.0,127.0,144.0,126.0,128.0,31.0,-97.0,-69.0,127.0,127.0,127.0,109.0,89.0,-105.0
127.0,127.0,130.0,131.0,127.0,143.0,126.0,128.0,31.0,-97.0,-69.0,127.0,127.0,127.0,109.0,89.0,-105.0
127.0,127.0,130.0,131.0,127.0,143.0,126.0,128.0,31.0,-97.0,-69.0,127.0,127.0,127.0,109.0,89.0,-105.0
127.0,127.0,130.0,131.0,127.0,143.0,126.0,128.0,31.0,-97.0,-69.0,127.0,127.0,127.0,109.0,89.0,-105.0
127.0,127.0,130.0,131.0,127.0,143.0,126.0,128.0,31.0,-97.0,-69.0,127.0,127.0,127.0,109.0,89.0,-105.0
127.0,126.0,130.0,131.0,127.0,142.0,126.0,128.0,31.0,-97.0,-69.0,127.0,127.0,127.0,109.0,89.0,-105.0
127.0,127.0,130.0,131.0,127.0,142.0,126.0,128.0,31.0,-97.0,-69.0,127.0,127.0,127.0,109.0,89.0,-105.0
127.0,126.0,130.0,131.0,127.0,142.0,126.0,128.0,31.0,-97.0,-69.0,127.0,127.0,127.0,109.0,89.0,-105.0
127.0,126.0,130.0,131.0,127.0,142.0,126.0,128.0,31.0,-97.0,-69.0,127.0,127.0,127.0,109.0,89.0,-105.0
127.0,126.0,130.0,131.0,127.0,142.0,126.0,128.0,31.0,-97.0,-69.0,127.0,127.0,127.0,109.0,89.0,-105.0
127.0,127.0,130.0,131.0,127.0,142.0,126.0,128.0,31.0,-97.0,-69.0,127.0,127.0,127.0,109.0,89.0,-105.0
127.0,127.0,129.0,131.0,126.0,144.0,127.0,128.0,31.0,-97.0,-69.0,127.0,127.0,127.0,109.0,89.0,-105.0
127.0,127.0,129.0,131.0,126.0,144.0,127.0,128.0,31.0,-97.0,-69.0,127.0,127.0,127.0,109.0,89.0,-105.0
127.0,127.0,129.0,131.0,126.0,144.0,127.0,128.0,31.0,-97.0,-69.0,127.0,127.0,127.0,109.0,89.0,-105.0
127.0,126.0,130.0,131.0,127.0,143.0,127.0,128.0,31.0,-97.0,-69.0,127.0,127.0,127.0,109.0,89.0,-105.0
127.0,127.0,130.0,131.0,127.0,143.0,127.0,128.0,31.0,-97.0,-69.0,127.0,127.0,127.0,109.0,89.0,-105.0
127.0,127.0,130.0,131.0,127.0,143.0,127.0,128.0,31.0,-97.0,-69.0,127.0,127.0,127.0,109.0,89.0,-105.0
127.0,127.0,130.0,131.0,126.0,143.0,127.0,128.0,31.0,-97.0,-69.0,127.0,127.0,127.0,109.0,89.0,-105.0
127.0,127.0,130.0,131.0,126.0,143.0,127.0,128.0,31.0,-97.0,-69.0,127.0,127.0,127.0,109.0,89.0,-105.0
127.0,127.0,130.0,131.0,126.0,143.0,127.0,128.0,31.0,-97.0,-69.0,127.0,127.0,127.0,109.0,89.0,-105.0
127.0,127.0,129.0,131.0,126.0,144.0,127.0,128.0,31.0,-97.0,-69.0,127.0,127.0,127.0,109.0,89.0,-105.0
127.0,127.0,128.0,132.0,127.0,144.0,127.0,128.0,31.0,-96.0,-69.0,127.0,127.0,127.0,109.0,89.0,-105.0
127.0,127.0,128.0,132.0,127.0,144.0,127.0,128.0,31.0,-96.0,-69.0,127.0,127.0,127.0,109.0,89.0,-105.0
127.0,127.0,129.0,131.0,127.0,144.0,127.0,128.0,31.0,-96.0,-69.0,127.0,127.0,127.0,109.0,89.0,-105.0
127.0,127.0,129.0,132.0,127.0,144.0,127.0,128.0,31.0,-96.0,-69.0,127.0,127.0,127.0,109.0,89.0,-105.0
127.0,127.0,129.0,132.0,127.0,143.0,127.0,128.0,31.0,-96.0,-69.0,127.0,127.0,127.0,109.0,89.0,-105.0
127.0,127.0,129.0,132.0,127.0,143.0,127.0,128.0,31.0,-96.0,-69.0,127.0,127.0,127.0,109.0,89.0,-105.0
127.0,127.0,129.0,132.0,127.0,143.0,127.0,128.0,31.0,-96.0,-69.0,127.0,127.0,127.0,109.0,89.0,-105.0
127.0,127.0,128.0,132.0,127.0,143.0,127.0,128.0,31.0,-96.0,-69.0,127.0,127.0,127.0,109.0,89.0,-105.0
127.0,127.0,128.0,132.0,127.0,144.0,127.0,128.0,31.0,-96.0,-69.0,127.0,127.0,127.0,109.0,89.0,-105.0
127.0,127.0,128.0,132.0,127.0,144.0,127.0,128.0,31.0,-96.0,-69.0,127.0,127.0,127.0,109.0,89.0,-105.0
127.0,127.0,129.0,132.0,127.0,144.0,127.0,128.0,31.0,-96.0,-69.0,127.0,127.0,127.0,109.0,89.0,-105.0
127.0,127.0,129.0,131.0,127.0,144.0,127.0,128.0,31.0,-96.0,-69.0,127.0,127.0,127.0,109.0,89.0,-105.0
127.0,127.0,129.0,131.0,127.0,144.0,127.0,128.0,31.0,-96.0,-69.0,127.0,127.0,127.0,109.0,89.0,-105.0
127.0,127.0,129.0,131.0,127.0,143.0,127.0,128.0,31.0,-96.0,-69.0,127.0,127.0,127.0,109.0,89.0,-105.0
127.0,127.0,129.0,131.0,127.0,143.0,127.0,128.0,31.0,-96.0,-69.0,127.0,127.0,127.0,109.0,89.0,-105.0
127.0,127.0,129.0,131.0,127.0,143.0,127.0,128.0,31.0,-96.0,-69.0,127.0,127.0,127.0,109.0,89.0,-105.0
127.0,127.0,129.0,131.0,127.0,143.0,127.0,128.0,31.0,-96.0,-69.0,127.0,127.0,127.0,109.0,89.0,-105.0
127.0,127.0,129.0,131.0,127.0,144.0,127.0,128.0,31.0,-96.0,-69.0,127.0,127.0,127.0,109.0,89.0,-105.0
127.0,127.0,129.0,131.0,127.0,144.0,127.0,128.0,31.0,-96.0,-69.0,127.0,127.0,127.0,109.0,89.0,-105.0
127.0,127.0,129.0,132.0,127.0,144.0,127.0,128.0,31.0,-96.0,-69.0,127.0,127.0,127.0,109.0,89.0,-105.0
127.0,126.0,132.0,131.0,127.0,142.0,127.0,128.0,31.0,-96.0,-69.0,127.0,127.0,127.0,109.0,89.0,-105.0
127.0,126.0,132.0,131.0,127.0,142.0,127.0,128.0,31.0,-96.0,-69.0,127.0,127.0,127.0,109.0,89.0,-105.0
127.0,126.0,132.0,131.0,127.0,141.0,127.0,128.0,31.0,-96.0,-69.0,127.0,127.0,127.0,109.0,89.0,-105.0
127.0,126.0,132.0,131.0,127.0,141.0,127.0,128.0,31.0,-96.0,-69.0,127.0,127.0,127.0,109.0,89.0,-105.0
127.0,126.0,132.0,131.0,127.0,141.0,127.0,128.0,31.0,-96.0,-69.0,127.0,127.0,127.0,109.0,89.0,-105.0
127.0,126.0,132.0,131.0,127.0,141.0,127.0,128.0,31.0,-96.0,-69.0,127.0,127.0,127.0,109.0,89.0,-105.0
127.0,126.0,132.0,131.0,127.0,141.0,127.0,128.0,31.0,-96.0,-69.0,127.0,127.0,127.0,109.0,89.0,-105.0
127.0,126.0,132.0,131.0,127.0,141.0,127.0,128.0,31.0,-96.0,-69.0,127.0,127.0,127.0,109.0,89.0,-105.0
127.0,126.0,132.0,131.0,127.0,141.0,127.0,128.0,31.0,-96.0,-69.0,127.0,127.0,127.0,109.0,89.0,-105.0
127.0,127.0,132.0,131.0,127.0,142.0,127.0,128.0,31.0,-96.0,-69.0,127.0,127.0,127.0,109.0,89.0,-105.0
128.0,127.0,133.0,131.0,127.0,140.0,127.0,128.0,31.0,-96.0,-70.0,127.0,127.0,127.0,109.0,89.0,-105.0
128.0,127.0,133.0,131.0,127.0,140.0,127.0,128.0,31.0,-96.0,-70.0,127.0,127.0,127.0,109.0,89.0,-105.0
128.0,128.0,133.0,131.0,127.0,141.0,127.0,128.0,31.0,-96.0,-70.0,127.0,127.0,127.0,109.0,89.0,-105.0
128.0,128.0,133.0,132.0,127.0,141.0,127.0,128.0,31.0,-96.0,-70.0,127.0,127.0,127.0,109.0,89.0,-105.0
128.0,128.0,133.0,132.0,127.0,141.0,127.0,128.0,31.0,-96.0,-70.0,127.0,127.0,127.0,109.0,89.0,-105.0
128.0,128.0,133.0,132.0,127.0,141.0,127.0,128.0,31.0,-96.0,-70.0,127.0,127.0,127.0,109.0,89.0,-105.0
128.0,128.0,133.0,131.0,127.0,141.0,127.0,128.0,31.0,-96.0,-70.0,127.0,127.0,127.0,109.0,89.0,-105.0
128.0,128.0,133.0,131.0,127.0,141.0,127.0,128.0,31.0,-96.0,-70.0,127.0,127.0,127.0,109.0,89.0,-105.0
128.0,128.0,133.0,131.0,127.0,140.0,127.0,128.0,31.0,-96.0,-70.0,127.0,127.0,127.0,109.0,89.0,-105.0
128.0,127.0,133.0,131.0,127.0,140.0,127.0,128.0,31.0,-96.0,-70.0,127.0,127.0,127.0,109.0,89.0,-105.0
128.0,127.0,131.0,131.0,127.0,139.0,127.0,128.0,30.0,-96.0,-70.0,127.0,127.0,127.0,109.0,89.0,-105.0
128.0,127.0,131.0,130.0,126.0,140.0,127.0,128.0,30.0,-96.0,-70.0,127.0,127.0,127.0,109.0,89.0,-105.0
128.0,127.0,131.0,131.0,127.0,140.0,127.0,128.0,30.0,-96.0,-70.0,127.0,127.0,127.0,109.0,89.0,-105.0
128.0,127.0,131.0,131.0,127.0,140.0,127.0,128.0,30.0,-96.0,-70.0,127.0,127.0,127.0,109.0,89.0,-105.0
128.0,127.0,131.0,130.0,127.0,140.0,127.0,128.0,30.0,-96.0,-70.0,127.0,127.0,127.0,109.0,89.0,-105.0
128.0,127.0,131.0,130.0,127.0,140.0,127.0,128.0,30.0,-96.0,-70.0,127.0,127.0,127.0,109.0,89.0,-105.0
128.0,127.0,131.0,130.0,127.0,140.0,127.0,128.0,30.0,-96.0,-70.0,127.0,127.0,127.0,109.0,89.0,-105.0
128.0,127.0,131.0,130.0,127.0,139.0,127.0,128.0,30.0,-96.0,-70.0,127.0,127.0,127.0,109.0,89.0,-105.0
128.0,127.0,131.0,131.0,127.0,140.0,127.0,128.0,30.0,-96.0,-70.0,127.0,127.0,127.0,109.0,89.0,-105.0
128.0,127.0,131.0,131.0,127.0,139.0,127.0,128.0,30.0,-96.0,-70.0,127.0,127.0,127.0,109.0,89.0,-105.0
128.0,127.0,130.0,131.0,127.0,139.0,127.0,128.0,30.0,-96.0,-70.0,127.0,127.0,127.0,109.0,89.0,-105.0
128.0,127.0,130.0,131.0,127.0,139.0,127.0,128.0,30.0,-96.0,-70.0,127.0,127.0,127.0,109.0,89.0,-105.0
128.0,127.0,130.0,131.0,127.0,139.0,127.0,128.0,30.0,-96.0,-70.0,127.0,127.0,127.0,109.0,89.0,-105.0
128.0,127.0,130.0,131.0,127.0,139.0,127.0,128.0,30.0,-96.0,-70.0,127.0,127.0,127.0,109.0,89.0,-105.0
128.0,127.0,130.0,131.0,127.0,138.0,127.0,128.0,30.0,-96.0,-70.0,127.0,127.0,127.0,109.0,89.0,-105.0
128.0,127.0,130.0,131.0,127.0,139.0,127.0,128.0,30.0,-96.0,-70.0,127.0,127.0,127.0,109.0,89.0,-105.0
128.0,127.0,130.0,131.0,127.0,138.0,127.0,128.0,30.0,-96.0,-70.0,127.0,127.0,127.0,109.0,89.0,-105.0
128.0,126.0,130.0,131.0,127.0,138.0,127.0,128.0,30.0,-96.0,-70.0,127.0,127.0,127.0,109.0,89.0,-105.0
128.0,127.0,130.0,131.0,127.0,138.0,127.0,128.0,30.0,-96.0,-70.0,127.0,127.0,127.0,109.0,89.0,-105.0
128.0,127.0,130.0,131.0,127.0,138.0,127.0,128.0,30.0,-96.0,-70.0,127.0,127.0,127.0,109.0,89.0,-105.0
127.0,127.0,129.0,130.0,127.0,139.0,127.0,128.0,30.0,-96.0,-70.0,127.0,127.0,127.0,109.0,89.0,-105.0
127.0,127.0,129.0,130.0,127.0,139.0,127.0,128.0,30.0,-96.0,-70.0,127.0,127.0,127.0,109.0,89.0,-105.0
127.0,127.0,129.0,130.0,127.0,139.0,127.0,128.0,30.0,-96.0,-70.0,127.0,127.0,127.0,109.0,89.0,-105.0
127.0,127.0,129.0,130.0,127.0,138.0,127.0,128.0,30.0,-96.0,-70.0,127.0,127.0,127.0,109.0,89.0,-105.0
127.0,127.0,129.0,130.0,126.0,139.0,127.0,128.0,30.0,-96.0,-70.0,127.0,127.0,127.0,109.0,89.0,-105.0
127.0,127.0,129.0,129.0,126.0,138.0,127.0,128.0,30.0,-96.0,-70.0,127.0,127.0,127.0,109.0,89.0,-105.0
127.0,126.0,129.0,130.0,127.0,138.0,127.0,128.0,30.0,-96.0,-70.0,127.0,127.0,127.0,109.0,89.0,-105.0
127.0,126.0,129.0,130.0,127.0,138.0,127.0,128.0,30.0,-96.0,-70.0,127.0,127.0,127.0,109.0,89.0,-105.0
127.0,126.0,129.0,130.0,127.0,138.0,127.0,128.0,30.0,-96.0,-70.0,127.0,127.0,127.0,109.0,89.0,-105.0
127.0,126.0,129.0,130.0,127.0,138.0,127.0,128.0,30.0,-96.0,-70.0,127.0,127.0,127.0,109.0,89.0,-105.0
128.0,127.0,129.0,129.0,127.0,138.0,126.0,128.0,30.0,-96.0,-70.0,127.0,127.0,127.0,109.0,89.0,-105.0
128.0,127.0,129.0,129.0,127.0,138.0,126.0,128.0,30.0,-96.0,-70.0,127.0,127.0,127.0,109.0,89.0,-105.0
128.0,127.0,129.0,129.0,127.0,138.0,126.0,128.0,30.0,-96.0,-70.0,127.0,127.0,127.0,109.0,89.0,-105.0
128.0,127.0,129.0,129.0,127.0,138.0,126.0,128.0,30.0,-96.0,-70.0,127.0,127.0,127.0,109.0,89.0,-105.0
128.0,126.0,129.0,129.0,127.0,137.0,126.0,128.0,30.0,-96.0,-70.0,127.0,127.0,127.0,109.0,89.0,-105.0
128.0,126.0,130.0,130.0,127.0,138.0,126.0,128.0,30.0,-96.0,-70.0,127.0,127.0,127.0,109.0,89.0,-105.0
128.0,126.0,130.0,130.0,127.0,137.0,126.0,128.0,30.0,-96.0,-70.0,127.0,127.0,127.0,109.0,89.0,-105.0
128.0,126.0,130.0,130.0,127.0,137.0,126.0,128.0,30.0,-96.0,-70.0,127.0,127.0,127.0,109.0,89.0,-105.0
128.0,127.0,129.0,129.0,127.0,138.0,126.0,128.0,30.0,-96.0,-70.0,127.0,127.0,127.0,109.0,89.0,-105.0
128.0,127.0,129.0,129.0,127.0,138.0,126.0,128.0,30.0,-96.0,-70.0,127.0,127.0,127.0,109.0,89.0,-105.0
128.0,127.0,129.0,130.0,127.0,138.0,127.0,128.0,30.0,-95.0,-70.0,127.0,127.0,127.0,109.0,89.0,-105.0
127.0,127.0,129.0,130.0,127.0,138.0,126.0,128.0,30.0,-95.0,-70.0,127.0,127.0,127.0,109.0,89.0,-105.0
127.0,127.0,129.0,130.0,127.0,138.0,127.0,128.0,30.0,-95.0,-70.0,127.0,127.0,127.0,109.0,89.0,-105.0
128.0,126.0,129.0,130.0,127.0,138.0,126.0,128.0,30.0,-95.0,-70.0,127.0,127.0,127.0,109.0,89.0,-105.0
128.0,126.0,129.0,130.0,127.0,138.0,126.0,128.0,30.0,-95.0,-70.0,127.0,127.0,127.0,109.0,89.0,-105.0
128.0,126.0,129.0,130.0,127.0,138.0,126.0,128.0,30.0,-95.0,-70.0,127.0,127.0,127.0,109.0,89.0,-105.0
127.0,126.0,129.0,130.0,127.0,138.0,126.0,128.0,30.0,-95.0,-70.0,127.0,127.0,127.0,109.0,89.0,-105.0
127.0,127.0,129.0,130.0,127.0,138.0,126.0,128.0,30.0,-95.0,-70.0,127.0,127.0,127.0,109.0,89.0,-105.0
128.0,127.0,129.0,130.0,127.0,139.0,126.0,128.0,30.0,-95.0,-70.0,127.0,127.0,127.0,109.0,89.0,-105.0
128.0,127.0,129.0,130.0,127.0,139.0,126.0,128.0,30.0,-95.0,-70.0,127.0,127.0,127.0,109.0,89.0,-105.0
127.0,127.0,129.0,130.0,127.0,137.0,127.0,128.0,30.0,-95.0,-70.0,127.0,127.0,127.0,109.0,89.0,-105.0
127.0,127.0,129.0,130.0,127.0,137.0,127.0,128.0,30.0,-95.0,-70.0,127.0,127.0,127.0,109.0,89.0,-105.0
127.0,126.0,129.0,130.0,127.0,137.0,127.0,128.0,30.0,-95.0,-70.0,127.0,127.0,127.0,109.0,89.0,-105.0
127.0,126.0,129.0,130.0,127.0,137.0,127.0,128.0,30.0,-95.0,-70.0,127.0,127.0,127.0,109.0,89.0,-105.0
127.0,126.0,129.0,130.0,127.0,137.0,127.0,128.0,30.0,-95.0,-70.0,127.0,127.0,127.0,109.0,89.0,-105.0
127.0,126.0,129.0,130.0,127.0,137.0,127.0,128.0,30.0,-95.0,-70.0,127.0,127.0,127.0,109.0,89.0,-105.0
127.0,127.0,129.0,130.0,127.0,137.0,127.0,128.0,30.0,-95.0,-70.0,127.0,127.0,127.0,109.0,89.0,-105.0
127.0,127.0,129.0,130.0,127.0,138.0,127.0,128.0,30.0,-95.0,-70.0,127.0,127.0,127.0,109.0,89.0,-105.0
127.0,127.0,129.0,130.0,127.0,138.0,127.0,128.0,30.0,-95.0,-70.0,127.0,127.0,127.0,109.0,89.0,-105.0
127.0,127.0,129.0,130.0,127.0,137.0,127.0,128.0,30.0,-95.0,-70.0,127.0,127.0,127.0,109.0,89.0,-105.0
126.0,126.0,128.0,129.0,127.0,136.0,127.0,128.0,30.0,-95.0,-70.0,127.0,127.0,127.0,109.0,89.0,-105.0
126.0,125.0,128.0,129.0,126.0,135.0,127.0,128.0,30.0,-95.0,-70.0,127.0,127.0,127.0,109.0,89.0,-105.0
126.0,125.0,128.0,129.0,127.0,135.0,127.0,128.0,30.0,-95.0,-70.0,127.0,127.0,127.0,109.0,89.0,-105.0
126.0,125.0,128.0,130.0,127.0,135.0,127.0,128.0,30.0,-95.0,-70.0,127.0,127.0,127.0,109.0,89.0,-105.0
126.0,126.0,128.0,130.0,127.0,135.0,127.0,128.0,30.0,-95.0,-70.0,127.0,127.0,127.0,109.0,89.0,-105.0
126.0,126.0,128.0,130.0,127.0,135.0,127.0,128.0,30.0,-95.0,-70.0,127.0,127.0,127.0,109.0,89.0,-105.0
126.0,126.0,128.0,129.0,127.0,135.0,127.0,128.0,30.0,-95.0,-70.0,127.0,127.0,127.0,109.0,89.0,-105.0
126.0,126.0,128.0,129.0,127.0,135.0,127.0,128.0,30.0,-95.0,-70.0,127.0,127.0,127.0,109.0,89.0,-105.0
126.0,126.0,128.0,129.0,126.0,135.0,127.0,128.0,30.0,-95.0,-70.0,127.0,127.0,127.0,109.0,89.0,-105.0
126.0,126.0,128.0,129.0,127.0,136.0,127.0,128.0,30.0,-95.0,-70.0,127.0,127.0,127.0,109.0,89.0,-105.0
127.0,125.0,128.0,129.0,126.0,135.0,127.0,128.0,30.0,-94.0,-71.0,127.0,127.0,127.0,109.0,89.0,-105.0
127.0,126.0,128.0,129.0,126.0,135.0,127.0,128.0,30.0,-94.0,-71.0,127.0,127.0,127.0,109.0,89.0,-105.0
127.0,126.0,128.0,129.0,126.0,136.0,127.0,128.0,30.0,-94.0,-71.0,127.0,127.0,127.0,109.0,89.0,-105.0
127.0,126.0,128.0,129.0,126.0,136.0,127.0,128.0,30.0,-94.0,-71.0,127.0,127.0,127.0,109.0,89.0,-105.0
127.0,126.0,128.0,129.0,127.0,135.0,127.0,128.0,30.0,-94.0,-71.0,127.0,127.0,127.0,109.0,89.0,-105.0
127.0,126.0,128.0,130.0,127.0,135.0,127.0,128.0,30.0,-94.0,-71.0,127.0,127.0,127.0,109.0,89.0,-105.0
127.0,126.0,128.0,130.0,127.0,135.0,127.0,128.0,30.0,-94.0,-71.0,127.0,127.0,127.0,109.0,89.0,-105.0
127.0,126.0,128.0,130.0,127.0,135.0,127.0,128.0,30.0,-94.0,-71.0,127.0,127.0,127.0,109.0,89.0,-105.0
127.0,126.0,128.0,129.0,127.0,135.0,127.0,128.0,30.0,-94.0,-71.0,127.0,127.0,127.0,109.0,89.0,-105.0
127.0,126.0,128.0,130.0,127.0,134.0,127.0,128.0,30.0,-94.0,-71.0,127.0,127.0,127.0,109.0,89.0,-105.0
127.0,126.0,128.0,130.0,127.0,134.0,127.0,128.0,30.0,-94.0,-71.0,127.0,127.0,127.0,109.0,89.0,-105.0
127.0,127.0,128.0,130.0,127.0,135.0,127.0,128.0,30.0,-94.0,-71.0,127.0,127.0,127.0,109.0,89.0,-105.0
127.0,127.0,128.0,130.0,127.0,135.0,127.0,128.0,30.0,-94.0,-71.0,127.0,127.0,127.0,109.0,89.0,-105.0
127.0,127.0,128.0,130.0,127.0,135.0,127.0,128.0,30.0,-94.0,-71.0,127.0,127.0,127.0,109.0,89.0,-105.0
127.0,127.0,128.0,130.0,127.0,135.0,127.0,128.0,30.0,-94.0,-71.0,127.0,127.0,127.0,109.0,89.0,-105.0
127.0,127.0,128.0,130.0,127.0,135.0,127.0,128.0,30.0,-94.0,-71.0,127.0,127.0,127.0,109.0,89.0,-105.0
127.0,127.0,128.0,130.0,127.0,135.0,127.0,128.0,30.0,-94.0,-71.0,127.0,127.0,127.0,109.0,89.0,-105.0
127.0,126.0,128.0,130.0,127.0,134.0,127.0,128.0,30.0,-94.0,-71.0,127.0,127.0,127.0,109.0,89.0,-105.0
127.0,126.0,127.0,130.0,127.0,134.0,127.0,128.0,30.0,-94.0,-71.0,127.0,127.0,127.0,109.0,89.0,-105.0
127.0,126.0,128.0,130.0,127.0,135.0,127.0,128.0,30.0,-94.0,-71.0,127.0,127.0,127.0,109.0,89.0,-105.0
127.0,126.0,123.0,130.0,127.0,135.0,127.0,128.0,30.0,-94.0,-71.0,127.0,127.0,127.0,109.0,89.0,-105.0
127.0,126.0,123.0,130.0,127.0,135.0,127.0,128.0,30.0,-94.0,-71.0,127.0,127.0,127.0,109.0,89.0,-105.0
127.0,126.0,123.0,130.0,127.0,135.0,127.0,128.0,30.0,-94.0,-71.0,127.0,127.0,127.0,109.0,89.0,-105.0
127.0,126.0,123.0,130.0,127.0,134.0,127.0,128.0,30.0,-94.0,-71.0,127.0,127.0,127.0,109.0,89.0,-105.0
127.0,126.0,123.0,130.0,127.0,134.0,127.0,128.0,30.0,-94.0,-71.0,127.0,127.0,127.0,109.0,89.0,-105.0
127.0,126.0,123.0,130.0,127.0,134.0,127.0,128.0,30.0,-94.0,-71.0,127.0,127.0,127.0,109.0,89.0,-105.0
127.0,126.0,123.0,130.0,127.0,134.0,127.0,128.0,30.0,-94.0,-71.0,127.0,127.0,127.0,109.0,89.0,-105.0
127.0,126.0,123.0,130.0,127.0,134.0,127.0,128.0,30.0,-94.0,-71.0,127.0,127.0,127.0,109.0,89.0,-105.0
127.0,126.0,123.0,130.0,127.0,134.0,127.0,128.0,30.0,-94.0,-71.0,127.0,127.0,127.0,109.0,89.0,-105.0
127.0,126.0,123.0,130.0,127.0,134.0,127.0,128.0,30.0,-94.0,-71.0,127.0,127.0,127.0,109.0,89.0,-105.0
127.0,126.0,127.0,130.0,127.0,133.0,127.0,128.0,31.0,-94.0,-71.0,127.0,127.0,127.0,109.0,89.0,-105.0
127.0,126.0,126.0,129.0,127.0,133.0,127.0,128.0,31.0,-94.0,-71.0,127.0,127.0,127.0,109.0,89.0,-105.0
127.0,126.0,126.0,129.0,127.0,134.0,127.0,128.0,31.0,-94.0,-71.0,127.0,127.0,127.0,109.0,89.0,-105.0
127.0,126.0,126.0,129.0,127.0,134.0,127.0,128.0,31.0,-94.0,-71.0,127.0,127.0,127.0,109.0,89.0,-105.0
127.0,126.0,126.0,129.0,127.0,134.0,127.0,128.0,31.0,-94.0,-71.0,127.0,127.0,127.0,109.0,89.0,-105.0
127.0,126.0,126.0,129.0,127.0,134.0,127.0,128.0,31.0,-94.0,-71.0,127.0,127.0,127.0,109.0,89.0,-105.0
127.0,126.0,126.0,129.0,127.0,133.0,127.0,128.0,31.0,-94.0,-71.0,127.0,127.0,127.0,109.0,89.0,-105.0
127.0,126.0,126.0,129.0,127.0,134.0,127.0,128.0,31.0,-94.0,-71.0,127.0,127.0,127.0,109.0,89.0,-105.0
127.0,126.0,126.0,129.0,127.0,134.0,127.0,128.0,31.0,-94.0,-71.0,127.0,127.0,127.0,109.0,89.0,-105.0
127.0,126.0,127.0,129.0,127.0,133.0,127.0,128.0,31.0,-94.0,-71.0,127.0,127.0,127.0,109.0,89.0,-105.0
127.0,126.0,129.0,130.0,127.0,133.0,127.0,128.0,31.0,-94.0,-71.0,127.0,127.0,127.0,109.0,89.0,-104.0
127.0,126.0,129.0,130.0,127.0,133.0,127.0,128.0,31.0,-94.0,-71.0,127.0,127.0,127.0,109.0,89.0,-104.0
127.0,126.0,129.0,130.0,127.0,133.0,127.0,128.0,31.0,-94.0,-71.0,127.0,127.0,127.0,109.0,89.0,-104.0
127.0,126.0,129.0,130.0,127.0,133.0,127.0,128.0,31.0,-94.0,-71.0,127.0,127.0,127.0,109.0,89.0,-104.0
127.0,126.0,129.0,130.0,127.0,132.0,127.0,128.0,31.0,-94.0,-71.0,127.0,127.0,127.0,109.0,89.0,-104.0
127.0,126.0,129.0,130.0,127.0,132.0,127.0,128.0,31.0,-94.0,-71.0,127.0,127.0,127.0,109.0,89.0,-104.0
127.0,126.0,128.0,130.0,127.0,134.0,127.0,128.0,31.0,-94.0,-71.0,127.0,127.0,127.0,109.0,89.0,-104.0
127.0,126.0,128.0,130.0,127.0,134.0,127.0,128.0,31.0,-94.0,-71.0,127.0,127.0,127.0,109.0,89.0,-104.0
127.0,126.0,128.0,130.0,127.0,134.0,127.0,128.0,31.0,-94.0,-71.0,127.0,127.0,127.0,109.0,89.0,-104.0
127.0,126.0,128.0,130.0,127.0,134.0,127.0,128.0,31.0,-94.0,-71.0,127.0,127.0,127.0,109.0,89.0,-104.0
127.0,126.0,131.0,129.0,127.0,134.0,127.0,128.0,32.0,-94.0,-71.0,127.0,127.0,127.0,109.0,89.0,-104.0
127.0,126.0,131.0,129.0,127.0,133.0,127.0,128.0,32.0,-94.0,-71.0,127.0,127.0,127.0,109.0,89.0,-104.0
127.0,126.0,131.0,129.0,127.0,133.0,127.0,128.0,32.0,-94.0,-71.0,127.0,127.0,127.0,109.0,89.0,-104.0
127.0,126.0,131.0,129.0,127.0,133.0,127.0,128.0,32.0,-94.0,-71.0,127.0,127.0,127.0,109.0,89.0,-104.0
127.0,126.0,131.0,129.0,127.0,133.0,127.0,128.0,32.0,-94.0,-71.0,127.0,127.0,127.0,109.0,89.0,-104.0
127.0,126.0,131.0,129.0,127.0,135.0,127.0,128.0,32.0,-94.0,-71.0,127.0,127.0,127.0,109.0,89.0,-104.0
127.0,126.0,131.0,129.0,127.0,135.0,127.0,128.0,32.0,-94.0,-71.0,127.0,127.0,127.0,109.0,89.0,-104.0
127.0,126.0,131.0,129.0,127.0,134.0,127.0,128.0,32.0,-94.0,-71.0,127.0,127.0,127.0,109.0,89.0,-104.0
127.0,126.0,131.0,129.0,127.0,134.0,127.0,128.0,32.0,-94.0,-71.0,127.0,127.0,127.0,109.0,89.0,-104.0
127.0,126.0,131.0,129.0,127.0,134.0,127.0,128.0,32.0,-94.0,-71.0,127.0,127.0,127.0,109.0,89.0,-104.0
127.0,125.0,129.0,129.0,127.0,132.0,126.0,128.0,32.0,-94.0,-71.0,127.0,127.0,127.0,109.0,89.0,-104.0
127.0,125.0,129.0,129.0,127.0,132.0,126.0,128.0,32.0,-94.0,-71.0,127.0,127.0,127.0,109.0,89.0,-104.0
127.0,125.0,129.0,129.0,127.0,132.0,126.0,128.0,32.0,-94.0,-71.0,127.0,127.0,127.0,109.0,89.0,-104.0
127.0,125.0,129.0,129.0,127.0,132.0,126.0,128.0,32.0,-94.0,-71.0,127.0,127.0,127.0,109.0,89.0,-104.0
127.0,126.0,129.0,130.0,127.0,134.0,126.0,128.0,32.0,-94.0,-71.0,127.0,127.0,127.0,109.0,89.0,-104.0
127.0,125.0,129.0,130.0,127.0,134.0,126.0,128.0,32.0,-94.0,-71.0,127.0,127.0,127.0,109.0,89.0,-104.0
127.0,126.0,129.0,130.0,127.0,134.0,126.0,128.0,32.0,-94.0,-71.0,127.0,127.0,127.0,109.0,89.0,-104.0
127.0,125.0,129.0,130.0,127.0,133.0,126.0,128.0,32.0,-94.0,-71.0,127.0,127.0,127.0,109.0,89.0,-104.0
