emg1,emg2,emg3,emg4,emg5,emg6,emg7,emg8,acc_x,acc_y,acc_z,gyro_x,gyro_y,gyro_z,angle_pitch,angle_roll,angle_yaw
127.0,128.0,127.0,127.0,126.0,129.0,125.0,128.0,-1.0,106.0,-68.0,127.0,127.0,127.0,-117.0,-88.0,111.0
127.0,128.0,126.0,127.0,126.0,129.0,125.0,128.0,-1.0,106.0,-68.0,127.0,127.0,127.0,-117.0,-88.0,111.0
127.0,128.0,126.0,127.0,126.0,129.0,125.0,128.0,-1.0,106.0,-68.0,127.0,127.0,127.0,-117.0,-88.0,111.0
127.0,128.0,126.0,127.0,126.0,129.0,126.0,128.0,-1.0,106.0,-68.0,127.0,127.0,127.0,-117.0,-88.0,111.0
127.0,128.0,126.0,127.0,126.0,128.0,126.0,128.0,-1.0,106.0,-68.0,127.0,127.0,127.0,-117.0,-88.0,111.0
127.0,127.0,126.0,127.0,126.0,128.0,126.0,128.0,-1.0,106.0,-68.0,127.0,127.0,127.0,-117.0,-88.0,111.0
127.0,127.0,126.0,127.0,126.0,128.0,126.0,128.0,-1.0,106.0,-68.0,127.0,127.0,127.0,-117.0,-88.0,111.0
127.0,127.0,126.0,127.0,126.0,128.0,126.0,128.0,-1.0,106.0,-68.0,127.0,127.0,127.0,-117.0,-88.0,111.0
127.0,128.0,126.0,127.0,126.0,129.0,125.0,128.0,-1.0,106.0,-68.0,127.0,127.0,127.0,-117.0,-88.0,111.0
127.0,128.0,126.0,127.0,126.0,129.0,125.0,128.0,-1.0,106.0,-68.0,127.0,127.0,127.0,-117.0,-88.0,111.0
127.0,128.0,126.0,127.0,126.0,129.0,125.0,128.0,-1.0,106.0,-68.0,127.0,127.0,127.0,-117.0,-88.0,111.0
127.0,128.0,126.0,127.0,126.0,128.0,126.0,128.0,-1.0,106.0,-69.0,127.0,127.0,127.0,-117.0,-88.0,111.0
127.0,128.0,126.0,127.0,126.0,128.0,127.0,128.0,-1.0,106.0,-69.0,127.0,127.0,127.0,-117.0,-88.0,111.0
127.0,128.0,126.0,127.0,126.0,128.0,127.0,128.0,-1.0,106.0,-69.0,127.0,127.0,127.0,-117.0,-88.0,111.0
127.0,128.0,126.0,127.0,126.0,128.0,127.0,128.0,-1.0,106.0,-69.0,127.0,127.0,127.0,-117.0,-88.0,111.0
127.0,128.0,126.0,127.0,126.0,128.0,126.0,128.0,-1.0,106.0,-69.0,127.0,127.0,127.0,-117.0,-88.0,111.0
127.0,127.0,127.0,127.0,126.0,128.0,127.0,128.0,-1.0,106.0,-69.0,127.0,127.0,127.0,-117.0,-88.0,111.0
127.0,127.0,126.0,127.0,126.0,127.0,127.0,128.0,-1.0,106.0,-69.0,127.0,127.0,127.0,-117.0,-88.0,111.0
127.0,127.0,126.0,127.0,126.0,127.0,127.0,128.0,-1.0,106.0,-69.0,127.0,127.0,127.0,-117.0,-88.0,111.0
127.0,128.0,126.0,127.0,126.0,128.0,126.0,128.0,-1.0,106.0,-69.0,127.0,127.0,127.0,-117.0,-88.0,111.0
127.0,128.0,126.0,127.0,126.0,128.0,126.0,128.0,-1.0,106.0,-69.0,127.0,127.0,127.0,-117.0,-88.0,111.0
127.0,128.0,126.0,127.0,126.0,128.0,127.0,128.0,-1.0,106.0,-69.0,127.0,127.0,127.0,-117.0,-88.0,111.0
127.0,128.0,126.0,127.0,126.0,128.0,127.0,128.0,-1.0,106.0,-69.0,127.0,127.0,127.0,-117.0,-88.0,111.0
127.0,128.0,126.0,127.0,126.0,128.0,127.0,128.0,-1.0,106.0,-69.0,127.0,127.0,127.0,-117.0,-88.0,111.0
127.0,128.0,126.0,127.0,126.0,128.0,127.0,128.0,-1.0,106.0,-69.0,127.0,127.0,127.0,-117.0,-88.0,111.0
127.0,128.0,126.0,127.0,126.0,127.0,127.0,128.0,-1.0,106.0,-69.0,127.0,127.0,127.0,-117.0,-88.0,111.0
127.0,128.0,127.0,127.0,126.0,129.0,126.0,128.0,-1.0,106.0,-69.0,127.0,127.0,127.0,-117.0,-88.0,111.0
127.0,128.0,126.0,127.0,126.0,129.0,126.0,128.0,-1.0,106.0,-69.0,127.0,127.0,127.0,-117.0,-88.0,111.0
127.0,128.0,127.0,127.0,126.0,128.0,126.0,128.0,-1.0,106.0,-69.0,127.0,127.0,127.0,-117.0,-88.0,111.0
127.0,128.0,127.0,127.0,126.0,128.0,126.0,128.0,-1.0,106.0,-69.0,127.0,127.0,127.0,-117.0,-88.0,111.0
127.0,128.0,127.0,127.0,126.0,128.0,127.0,128.0,-1.0,106.0,-69.0,127.0,127.0,127.0,-117.0,-88.0,111.0
127.0,128.0,126.0,127.0,126.0,128.0,128.0,128.0,-1.0,106.0,-70.0,127.0,127.0,127.0,-117.0,-88.0,111.0
127.0,128.0,126.0,127.0,126.0,127.0,128.0,128.0,-1.0,106.0,-70.0,127.0,127.0,127.0,-117.0,-88.0,111.0
127.0,128.0,126.0,127.0,126.0,127.0,128.0,128.0,-1.0,106.0,-70.0,127.0,127.0,127.0,-117.0,-88.0,111.0
127.0,128.0,126.0,127.0,126.0,127.0,128.0,128.0,-1.0,106.0,-70.0,127.0,127.0,127.0,-117.0,-88.0,111.0
127.0,128.0,126.0,127.0,126.0,128.0,127.0,128.0,-1.0,106.0,-70.0,127.0,127.0,127.0,-117.0,-88.0,111.0
127.0,128.0,126.0,127.0,126.0,128.0,127.0,128.0,-1.0,106.0,-70.0,127.0,127.0,127.0,-117.0,-88.0,111.0
127.0,128.0,126.0,127.0,126.0,128.0,127.0,128.0,-1.0,106.0,-70.0,127.0,127.0,127.0,-117.0,-88.0,111.0
127.0,128.0,126.0,127.0,126.0,128.0,127.0,128.0,-1.0,106.0,-70.0,127.0,127.0,127.0,-117.0,-88.0,111.0
127.0,128.0,126.0,127.0,126.0,128.0,127.0,128.0,-1.0,106.0,-70.0,127.0,127.0,127.0,-117.0,-88.0,111.0
127.0,128.0,126.0,127.0,126.0,128.0,127.0,128.0,-1.0,106.0,-70.0,127.0,127.0,127.0,-117.0,-88.0,111.0
127.0,128.0,126.0,127.0,126.0,128.0,127.0,128.0,-1.0,105.0,-70.0,127.0,127.0,127.0,-117.0,-88.0,111.0
127.0,128.0,126.0,127.0,126.0,128.0,127.0,128.0,-1.0,105.0,-70.0,127.0,127.0,127.0,-117.0,-88.0,111.0
127.0,128.0,127.0,127.0,126.0,127.0,127.0,128.0,-1.0,105.0,-70.0,127.0,127.0,127.0,-117.0,-88.0,111.0
127.0,128.0,126.0,127.0,126.0,129.0,127.0,128.0,-1.0,105.0,-70.0,127.0,127.0,127.0,-117.0,-88.0,111.0
127.0,128.0,126.0,127.0,126.0,129.0,127.0,128.0,-1.0,105.0,-70.0,127.0,127.0,127.0,-117.0,-88.0,111.0
127.0,128.0,126.0,127.0,126.0,129.0,127.0,128.0,-1.0,105.0,-70.0,127.0,127.0,127.0,-117.0,-88.0,111.0
127.0,128.0,126.0,127.0,126.0,128.0,127.0,128.0,-1.0,105.0,-70.0,127.0,127.0,127.0,-117.0,-88.0,111.0
127.0,128.0,126.0,127.0,126.0,128.0,127.0,128.0,-1.0,105.0,-70.0,127.0,127.0,127.0,-117.0,-88.0,111.0
127.0,128.0,126.0,127.0,126.0,128.0,127.0,128.0,-1.0,105.0,-70.0,127.0,127.0,127.0,-117.0,-88.0,111.0
127.0,128.0,126.0,127.0,126.0,128.0,127.0,128.0,-1.0,105.0,-70.0,127.0,127.0,127.0,-117.0,-88.0,111.0
127.0,128.0,127.0,127.0,126.0,128.0,126.0,128.0,-1.0,105.0,-71.0,127.0,127.0,127.0,-117.0,-88.0,111.0
127.0,128.0,127.0,127.0,127.0,128.0,127.0,128.0,-1.0,105.0,-71.0,127.0,127.0,127.0,-117.0,-88.0,111.0
127.0,128.0,127.0,128.0,127.0,129.0,126.0,128.0,-1.0,105.0,-71.0,127.0,127.0,127.0,-117.0,-88.0,111.0
127.0,128.0,127.0,127.0,127.0,129.0,126.0,128.0,-1.0,105.0,-71.0,127.0,127.0,127.0,-117.0,-88.0,111.0
127.0,128.0,127.0,128.0,127.0,129.0,126.0,128.0,-1.0,105.0,-71.0,127.0,127.0,127.0,-117.0,-88.0,111.0
127.0,128.0,127.0,127.0,127.0,129.0,126.0,128.0,-1.0,105.0,-71.0,127.0,127.0,127.0,-117.0,-88.0,111.0
127.0,128.0,127.0,127.0,127.0,129.0,126.0,128.0,-1.0,105.0,-71.0,127.0,127.0,127.0,-117.0,-88.0,111.0
127.0,128.0,127.0,127.0,127.0,129.0,126.0,128.0,-1.0,105.0,-71.0,127.0,127.0,127.0,-117.0,-88.0,111.0
127.0,128.0,127.0,127.0,127.0,129.0,126.0,128.0,-1.0,105.0,-71.0,127.0,127.0,127.0,-117.0,-88.0,111.0
127.0,128.0,127.0,127.0,126.0,128.0,126.0,128.0,-1.0,105.0,-71.0,127.0,127.0,127.0,-117.0,-88.0,111.0
126.0,128.0,127.0,127.0,127.0,129.0,126.0,127.0,-1.0,105.0,-71.0,127.0,127.0,127.0,-117.0,-88.0,111.0
127.0,128.0,127.0,128.0,126.0,130.0,125.0,128.0,-1.0,105.0,-71.0,127.0,127.0,127.0,-117.0,-88.0,111.0
127.0,128.0,128.0,128.0,126.0,129.0,125.0,128.0,-1.0,105.0,-71.0,127.0,127.0,127.0,-117.0,-88.0,111.0
127.0,128.0,128.0,128.0,126.0,129.0,125.0,128.0,-1.0,105.0,-71.0,127.0,127.0,127.0,-117.0,-88.0,111.0
126.0,128.0,128.0,128.0,126.0,129.0,125.0,128.0,-1.0,105.0,-71.0,127.0,127.0,127.0,-117.0,-88.0,111.0
126.0,128.0,127.0,127.0,126.0,129.0,125.0,127.0,-1.0,105.0,-71.0,127.0,127.0,127.0,-117.0,-88.0,111.0
126.0,128.0,127.0,127.0,126.0,129.0,125.0,127.0,-1.0,105.0,-71.0,127.0,127.0,127.0,-117.0,-88.0,111.0
126.0,128.0,127.0,127.0,126.0,129.0,126.0,127.0,-1.0,105.0,-71.0,127.0,127.0,127.0,-117.0,-88.0,111.0
126.0,128.0,127.0,127.0,127.0,129.0,126.0,127.0,-1.0,105.0,-71.0,127.0,127.0,127.0,-117.0,-88.0,111.0
126.0,128.0,127.0,127.0,126.0,129.0,126.0,127.0,-1.0,105.0,-71.0,127.0,127.0,127.0,-117.0,-88.0,111.0
126.0,128.0,127.0,127.0,126.0,130.0,125.0,128.0,-1.0,105.0,-71.0,127.0,127.0,127.0,-117.0,-88.0,111.0
126.0,128.0,127.0,127.0,126.0,129.0,125.0,128.0,-1.0,105.0,-71.0,127.0,127.0,127.0,-117.0,-88.0,111.0
126.0,128.0,127.0,127.0,126.0,129.0,125.0,128.0,-1.0,105.0,-71.0,127.0,127.0,127.0,-117.0,-88.0,111.0
126.0,128.0,127.0,127.0,126.0,129.0,125.0,128.0,-1.0,105.0,-71.0,127.0,127.0,127.0,-117.0,-88.0,111.0
126.0,128.0,127.0,127.0,126.0,129.0,125.0,128.0,-1.0,105.0,-71.0,127.0,127.0,127.0,-117.0,-88.0,111.0
126.0,128.0,127.0,127.0,126.0,129.0,125.0,128.0,-1.0,105.0,-71.0,127.0,127.0,127.0,-117.0,-88.0,111.0
126.0,128.0,127.0,127.0,126.0,129.0,125.0,128.0,-1.0,105.0,-71.0,127.0,127.0,127.0,-117.0,-88.0,111.0
126.0,128.0,127.0,127.0,126.0,129.0,126.0,128.0,-1.0,105.0,-71.0,127.0,127.0,127.0,-117.0,-88.0,111.0
126.0,128.0,127.0,127.0,126.0,129.0,126.0,128.0,-1.0,105.0,-71.0,127.0,127.0,127.0,-117.0,-88.0,111.0
126.0,128.0,127.0,127.0,126.0,128.0,126.0,128.0,-1.0,105.0,-71.0,127.0,127.0,127.0,-117.0,-88.0,111.0
126.0,128.0,127.0,128.0,126.0,129.0,125.0,128.0,-1.0,105.0,-71.0,127.0,127.0,127.0,-117.0,-88.0,111.0
126.0,128.0,127.0,128.0,126.0,129.0,125.0,128.0,-1.0,105.0,-71.0,127.0,127.0,127.0,-117.0,-88.0,111.0
126.0,128.0,127.0,127.0,126.0,129.0,125.0,128.0,-1.0,105.0,-71.0,127.0,127.0,127.0,-117.0,-88.0,111.0
126.0,128.0,127.0,127.0,126.0,128.0,125.0,128.0,-1.0,105.0,-71.0,127.0,127.0,127.0,-117.0,-88.0,111.0
126.0,128.0,127.0,127.0,126.0,128.0,125.0,128.0,-1.0,105.0,-71.0,127.0,127.0,127.0,-117.0,-88.0,111.0
126.0,128.0,127.0,127.0,126.0,128.0,126.0,128.0,-1.0,105.0,-71.0,127.0,127.0,127.0,-117.0,-88.0,111.0
126.0,128.0,127.0,127.0,126.0,128.0,126.0,128.0,-1.0,105.0,-71.0,127.0,127.0,127.0,-117.0,-88.0,111.0
126.0,128.0,127.0,127.0,126.0,128.0,126.0,128.0,-1.0,105.0,-71.0,127.0,127.0,127.0,-117.0,-88.0,111.0
126.0,128.0,127.0,127.0,126.0,128.0,126.0,128.0,-1.0,105.0,-71.0,127.0,127.0,127.0,-117.0,-88.0,111.0
126.0,128.0,127.0,128.0,126.0,129.0,125.0,128.0,-1.0,105.0,-71.0,127.0,127.0,127.0,-117.0,-88.0,111.0
126.0,127.0,127.0,127.0,126.0,129.0,126.0,128.0,-1.0,105.0,-71.0,127.0,127.0,127.0,-117.0,-88.0,111.0
126.0,127.0,127.0,127.0,127.0,129.0,126.0,128.0,-1.0,105.0,-71.0,127.0,127.0,127.0,-117.0,-88.0,111.0
126.0,127.0,127.0,127.0,127.0,128.0,126.0,128.0,-1.0,105.0,-71.0,127.0,127.0,127.0,-117.0,-88.0,111.0
126.0,127.0,127.0,127.0,127.0,129.0,126.0,128.0,-1.0,105.0,-71.0,127.0,127.0,127.0,-117.0,-88.0,111.0
126.0,127.0,127.0,127.0,126.0,128.0,126.0,128.0,-1.0,105.0,-71.0,127.0,127.0,127.0,-117.0,-88.0,111.0
126.0,128.0,127.0,127.0,126.0,129.0,126.0,128.0,-1.0,105.0,-71.0,127.0,127.0,127.0,-117.0,-88.0,111.0
126.0,128.0,127.0,127.0,126.0,129.0,126.0,128.0,-1.0,105.0,-71.0,127.0,127.0,127.0,-117.0,-88.0,111.0
126.0,128.0,127.0,127.0,126.0,129.0,126.0,128.0,-1.0,105.0,-71.0,127.0,127.0,127.0,-117.0,-88.0,111.0
126.0,127.0,127.0,127.0,126.0,128.0,126.0,128.0,-1.0,105.0,-71.0,127.0,127.0,127.0,-117.0,-88.0,111.0
126.0,127.0,127.0,127.0,126.0,129.0,126.0,128.0,-1.0,105.0,-71.0,127.0,127.0,127.0,-117.0,-88.0,111.0
126.0,127.0,127.0,127.0,126.0,129.0,126.0,128.0,-1.0,105.0,-71.0,127.0,127.0,127.0,-117.0,-88.0,111.0
126.0,127.0,127.0,127.0,126.0,129.0,126.0,128.0,-1.0,105.0,-71.0,127.0,127.0,127.0,-117.0,-88.0,111.0
126.0,127.0,127.0,127.0,126.0,129.0,126.0,128.0,-1.0,105.0,-71.0,127.0,127.0,127.0,-117.0,-88.0,111.0
126.0,127.0,127.0,127.0,126.0,129.0,126.0,128.0,-1.0,105.0,-71.0,127.0,127.0,127.0,-117.0,-88.0,111.0
126.0,128.0,126.0,127.0,126.0,130.0,126.0,128.0,-1.0,105.0,-71.0,127.0,127.0,127.0,-117.0,-88.0,111.0
126.0,128.0,126.0,127.0,126.0,130.0,126.0,128.0,-1.0,105.0,-71.0,127.0,127.0,127.0,-117.0,-88.0,111.0
126.0,127.0,127.0,127.0,126.0,128.0,126.0,128.0,-1.0,105.0,-71.0,127.0,127.0,127.0,-117.0,-88.0,111.0
126.0,127.0,127.0,127.0,126.0,129.0,126.0,128.0,-1.0,105.0,-71.0,127.0,127.0,127.0,-117.0,-88.0,111.0
126.0,127.0,127.0,127.0,126.0,129.0,126.0,128.0,-1.0,105.0,-71.0,127.0,127.0,127.0,-117.0,-88.0,111.0
126.0,127.0,127.0,127.0,126.0,129.0,126.0,128.0,-1.0,105.0,-71.0,127.0,127.0,127.0,-117.0,-88.0,111.0
126.0,128.0,127.0,127.0,126.0,129.0,126.0,128.0,-1.0,105.0,-70.0,127.0,127.0,127.0,-117.0,-88.0,111.0
126.0,128.0,127.0,127.0,126.0,129.0,126.0,128.0,-1.0,105.0,-70.0,127.0,127.0,127.0,-117.0,-88.0,111.0
126.0,128.0,127.0,127.0,126.0,129.0,126.0,128.0,-1.0,105.0,-70.0,127.0,127.0,127.0,-117.0,-88.0,111.0
126.0,128.0,126.0,127.0,126.0,129.0,125.0,128.0,-1.0,105.0,-70.0,127.0,127.0,127.0,-117.0,-88.0,111.0
126.0,128.0,126.0,127.0,126.0,129.0,125.0,128.0,-1.0,105.0,-70.0,127.0,127.0,127.0,-117.0,-88.0,111.0
126.0,127.0,127.0,127.0,126.0,128.0,126.0,128.0,-1.0,105.0,-70.0,127.0,127.0,127.0,-117.0,-88.0,111.0
126.0,127.0,127.0,127.0,126.0,128.0,126.0,128.0,-1.0,105.0,-70.0,127.0,127.0,127.0,-117.0,-88.0,111.0
126.0,128.0,126.0,127.0,126.0,129.0,125.0,128.0,-1.0,105.0,-70.0,127.0,127.0,127.0,-117.0,-88.0,111.0
126.0,128.0,127.0,127.0,126.0,129.0,125.0,128.0,-1.0,105.0,-70.0,127.0,127.0,127.0,-117.0,-88.0,111.0
126.0,128.0,127.0,127.0,126.0,129.0,125.0,128.0,-1.0,105.0,-70.0,127.0,127.0,127.0,-117.0,-88.0,111.0
127.0,128.0,127.0,127.0,126.0,129.0,126.0,128.0,-1.0,105.0,-69.0,127.0,127.0,127.0,-117.0,-88.0,111.0
127.0,127.0,127.0,127.0,126.0,129.0,126.0,128.0,-1.0,105.0,-69.0,127.0,127.0,127.0,-117.0,-88.0,111.0
127.0,128.0,127.0,127.0,126.0,129.0,126.0,128.0,-1.0,105.0,-69.0,127.0,127.0,127.0,-117.0,-88.0,111.0
127.0,128.0,127.0,127.0,126.0,129.0,126.0,128.0,-1.0,105.0,-69.0,127.0,127.0,127.0,-117.0,-88.0,111.0
126.0,127.0,127.0,127.0,127.0,129.0,126.0,128.0,-1.0,105.0,-69.0,127.0,127.0,127.0,-117.0,-88.0,111.0
126.0,127.0,127.0,127.0,127.0,129.0,126.0,128.0,-1.0,105.0,-69.0,127.0,127.0,127.0,-117.0,-88.0,111.0
126.0,127.0,127.0,127.0,126.0,129.0,125.0,128.0,-1.0,105.0,-69.0,127.0,127.0,127.0,-117.0,-88.0,111.0
126.0,127.0,127.0,127.0,126.0,129.0,125.0,128.0,-1.0,105.0,-69.0,127.0,127.0,127.0,-117.0,-88.0,111.0
127.0,127.0,127.0,127.0,126.0,129.0,126.0,128.0,-1.0,105.0,-69.0,127.0,127.0,127.0,-117.0,-88.0,111.0
127.0,127.0,127.0,127.0,126.0,129.0,126.0,128.0,-1.0,105.0,-69.0,127.0,127.0,127.0,-117.0,-88.0,111.0
126.0,127.0,127.0,127.0,126.0,129.0,126.0,127.0,-1.0,105.0,-69.0,127.0,127.0,127.0,-117.0,-88.0,111.0
126.0,127.0,126.0,127.0,126.0,129.0,126.0,127.0,-1.0,105.0,-69.0,127.0,127.0,127.0,-117.0,-88.0,111.0
127.0,127.0,126.0,127.0,126.0,130.0,126.0,127.0,-1.0,105.0,-69.0,127.0,127.0,127.0,-117.0,-88.0,111.0
126.0,127.0,127.0,127.0,127.0,129.0,126.0,127.0,-1.0,105.0,-69.0,127.0,127.0,127.0,-117.0,-88.0,111.0
126.0,127.0,127.0,127.0,127.0,129.0,126.0,127.0,-1.0,105.0,-69.0,127.0,127.0,127.0,-117.0,-88.0,111.0
127.0,127.0,126.0,127.0,126.0,129.0,126.0,127.0,-1.0,105.0,-69.0,127.0,127.0,127.0,-117.0,-88.0,111.0
126.0,127.0,126.0,127.0,126.0,130.0,126.0,127.0,-1.0,105.0,-69.0,127.0,127.0,127.0,-117.0,-88.0,111.0
126.0,127.0,126.0,127.0,126.0,130.0,126.0,127.0,-1.0,105.0,-69.0,127.0,127.0,127.0,-117.0,-88.0,111.0
126.0,127.0,126.0,127.0,126.0,130.0,126.0,127.0,-1.0,105.0,-69.0,127.0,127.0,127.0,-117.0,-88.0,111.0
126.0,127.0,127.0,127.0,126.0,129.0,126.0,127.0,-1.0,105.0,-69.0,127.0,127.0,127.0,-117.0,-88.0,111.0
127.0,127.0,127.0,127.0,126.0,128.0,126.0,127.0,-1.0,105.0,-68.0,127.0,127.0,127.0,-117.0,-88.0,111.0
127.0,128.0,126.0,127.0,126.0,129.0,126.0,128.0,-1.0,105.0,-68.0,127.0,127.0,127.0,-117.0,-88.0,111.0
127.0,128.0,126.0,127.0,126.0,129.0,126.0,128.0,-1.0,105.0,-68.0,127.0,127.0,127.0,-117.0,-88.0,111.0
127.0,127.0,127.0,127.0,127.0,128.0,126.0,127.0,-1.0,105.0,-68.0,127.0,127.0,127.0,-117.0,-88.0,111.0
127.0,127.0,127.0,127.0,127.0,128.0,126.0,127.0,-1.0,105.0,-68.0,127.0,127.0,127.0,-117.0,-88.0,111.0
127.0,127.0,127.0,127.0,126.0,129.0,126.0,127.0,-1.0,105.0,-68.0,127.0,127.0,127.0,-117.0,-88.0,111.0
127.0,127.0,127.0,127.0,126.0,129.0,126.0,128.0,-1.0,105.0,-68.0,127.0,127.0,127.0,-117.0,-88.0,111.0
127.0,127.0,127.0,127.0,126.0,128.0,126.0,127.0,-1.0,105.0,-68.0,127.0,127.0,127.0,-117.0,-88.0,111.0
127.0,127.0,127.0,127.0,127.0,128.0,126.0,127.0,-1.0,105.0,-68.0,127.0,127.0,127.0,-117.0,-88.0,111.0
127.0,127.0,127.0,127.0,127.0,128.0,126.0,127.0,-1.0,105.0,-68.0,127.0,127.0,127.0,-117.0,-88.0,111.0
126.0,128.0,126.0,127.0,126.0,129.0,127.0,127.0,-1.0,105.0,-68.0,127.0,127.0,127.0,-117.0,-88.0,111.0
126.0,128.0,126.0,127.0,126.0,129.0,127.0,127.0,-1.0,105.0,-68.0,127.0,127.0,127.0,-117.0,-88.0,111.0
126.0,127.0,127.0,127.0,126.0,128.0,127.0,127.0,-1.0,105.0,-68.0,127.0,127.0,127.0,-117.0,-88.0,111.0
126.0,127.0,127.0,127.0,126.0,128.0,127.0,127.0,-1.0,105.0,-68.0,127.0,127.0,127.0,-117.0,-88.0,111.0
126.0,127.0,126.0,127.0,126.0,129.0,127.0,128.0,-1.0,105.0,-68.0,127.0,127.0,127.0,-117.0,-88.0,111.0
127.0,127.0,126.0,127.0,126.0,129.0,127.0,128.0,-1.0,105.0,-68.0,127.0,127.0,127.0,-117.0,-88.0,111.0
126.0,127.0,126.0,127.0,126.0,129.0,127.0,127.0,-1.0,105.0,-68.0,127.0,127.0,127.0,-117.0,-88.0,111.0
127.0,127.0,126.0,127.0,126.0,128.0,127.0,127.0,-1.0,105.0,-68.0,127.0,127.0,127.0,-117.0,-88.0,111.0
126.0,127.0,126.0,127.0,126.0,128.0,127.0,127.0,-1.0,105.0,-68.0,127.0,127.0,127.0,-117.0,-88.0,111.0
126.0,127.0,126.0,127.0,126.0,128.0,127.0,127.0,-1.0,105.0,-68.0,127.0,127.0,127.0,-117.0,-88.0,111.0
127.0,127.0,126.0,127.0,126.0,129.0,127.0,128.0,-1.0,105.0,-68.0,127.0,127.0,127.0,-117.0,-88.0,111.0
126.0,127.0,127.0,127.0,127.0,128.0,127.0,127.0,-1.0,105.0,-68.0,127.0,127.0,127.0,-117.0,-88.0,111.0
126.0,127.0,127.0,127.0,126.0,128.0,127.0,127.0,-1.0,105.0,-68.0,127.0,127.0,127.0,-117.0,-88.0,111.0
126.0,127.0,126.0,127.0,126.0,128.0,127.0,127.0,-1.0,105.0,-68.0,127.0,127.0,127.0,-117.0,-88.0,111.0
126.0,127.0,126.0,127.0,126.0,129.0,127.0,128.0,-1.0,105.0,-68.0,127.0,127.0,127.0,-117.0,-88.0,111.0
126.0,127.0,126.0,127.0,126.0,128.0,127.0,128.0,-1.0,105.0,-68.0,127.0,127.0,127.0,-117.0,-88.0,111.0
126.0,127.0,126.0,127.0,126.0,128.0,127.0,128.0,-1.0,105.0,-68.0,127.0,127.0,127.0,-117.0,-88.0,111.0
126.0,127.0,126.0,127.0,126.0,128.0,127.0,128.0,-1.0,105.0,-68.0,127.0,127.0,127.0,-117.0,-88.0,111.0
126.0,127.0,126.0,127.0,126.0,128.0,127.0,128.0,-1.0,105.0,-68.0,127.0,127.0,127.0,-117.0,-88.0,111.0
127.0,127.0,126.0,127.0,126.0,129.0,127.0,128.0,-1.0,105.0,-68.0,127.0,127.0,127.0,-117.0,-88.0,111.0
127.0,127.0,127.0,127.0,127.0,128.0,127.0,128.0,-1.0,105.0,-68.0,127.0,127.0,127.0,-117.0,-88.0,111.0
127.0,127.0,127.0,127.0,127.0,128.0,127.0,128.0,-1.0,105.0,-68.0,127.0,127.0,127.0,-117.0,-88.0,111.0
127.0,127.0,127.0,127.0,127.0,128.0,127.0,128.0,-1.0,105.0,-68.0,127.0,127.0,127.0,-117.0,-88.0,111.0
127.0,127.0,127.0,127.0,127.0,128.0,127.0,128.0,-1.0,105.0,-68.0,127.0,127.0,127.0,-117.0,-88.0,111.0
127.0,127.0,127.0,127.0,127.0,128.0,127.0,128.0,-1.0,105.0,-68.0,127.0,127.0,127.0,-117.0,-88.0,111.0
127.0,127.0,127.0,127.0,127.0,128.0,127.0,128.0,-1.0,105.0,-68.0,127.0,127.0,127.0,-117.0,-88.0,111.0
127.0,127.0,127.0,127.0,127.0,128.0,127.0,128.0,-1.0,105.0,-68.0,127.0,127.0,127.0,-117.0,-88.0,111.0
126.0,127.0,127.0,127.0,127.0,128.0,127.0,128.0,-1.0,105.0,-68.0,127.0,127.0,127.0,-117.0,-88.0,111.0
126.0,127.0,126.0,127.0,127.0,128.0,127.0,128.0,-1.0,105.0,-68.0,127.0,127.0,127.0,-117.0,-88.0,111.0
126.0,127.0,126.0,127.0,127.0,128.0,127.0,128.0,-1.0,105.0,-68.0,127.0,127.0,127.0,-117.0,-88.0,111.0
126.0,127.0,127.0,127.0,126.0,128.0,126.0,128.0,-1.0,105.0,-69.0,127.0,127.0,127.0,-117.0,-88.0,111.0
126.0,127.0,127.0,127.0,126.0,128.0,126.0,128.0,-1.0,105.0,-69.0,127.0,127.0,127.0,-117.0,-88.0,111.0
126.0,127.0,127.0,127.0,126.0,128.0,126.0,128.0,-1.0,105.0,-69.0,127.0,127.0,127.0,-117.0,-88.0,111.0
126.0,127.0,127.0,127.0,126.0,128.0,126.0,128.0,-1.0,105.0,-69.0,127.0,127.0,127.0,-117.0,-88.0,111.0
127.0,127.0,127.0,127.0,126.0,128.0,126.0,128.0,-1.0,105.0,-69.0,127.0,127.0,127.0,-117.0,-88.0,111.0
127.0,127.0,126.0,127.0,126.0,129.0,126.0,128.0,-1.0,105.0,-69.0,127.0,127.0,127.0,-117.0,-88.0,111.0
127.0,127.0,127.0,127.0,126.0,129.0,126.0,128.0,-1.0,105.0,-69.0,127.0,127.0,127.0,-117.0,-88.0,111.0
127.0,127.0,127.0,127.0,126.0,129.0,126.0,128.0,-1.0,105.0,-69.0,127.0,127.0,127.0,-117.0,-88.0,111.0
126.0,127.0,127.0,127.0,126.0,128.0,126.0,128.0,-1.0,105.0,-69.0,127.0,127.0,127.0,-117.0,-88.0,111.0
126.0,127.0,127.0,127.0,126.0,129.0,126.0,128.0,-1.0,105.0,-69.0,127.0,127.0,127.0,-117.0,-88.0,111.0
126.0,128.0,127.0,127.0,126.0,128.0,126.0,128.0,-1.0,106.0,-69.0,127.0,127.0,127.0,-117.0,-88.0,111.0
126.0,127.0,127.0,127.0,127.0,128.0,126.0,128.0,-1.0,106.0,-69.0,127.0,127.0,127.0,-117.0,-88.0,111.0
126.0,127.0,127.0,127.0,126.0,128.0,126.0,128.0,-1.0,106.0,-69.0,127.0,127.0,127.0,-117.0,-88.0,111.0
126.0,127.0,127.0,127.0,126.0,129.0,126.0,128.0,-1.0,106.0,-69.0,127.0,127.0,127.0,-117.0,-88.0,111.0
126.0,128.0,127.0,127.0,126.0,129.0,126.0,128.0,-1.0,106.0,-69.0,127.0,127.0,127.0,-117.0,-88.0,111.0
126.0,128.0,127.0,127.0,126.0,129.0,126.0,128.0,-1.0,106.0,-69.0,127.0,127.0,127.0,-117.0,-88.0,111.0
126.0,128.0,127.0,127.0,126.0,129.0,126.0,128.0,-1.0,106.0,-69.0,127.0,127.0,127.0,-117.0,-88.0,111.0
126.0,127.0,127.0,127.0,126.0,128.0,126.0,128.0,-1.0,106.0,-69.0,127.0,127.0,127.0,-117.0,-88.0,111.0
126.0,128.0,127.0,127.0,126.0,129.0,126.0,128.0,-1.0,106.0,-69.0,127.0,127.0,127.0,-117.0,-88.0,111.0
126.0,128.0,127.0,127.0,126.0,129.0,126.0,128.0,-1.0,106.0,-69.0,127.0,127.0,127.0,-117.0,-88.0,111.0
126.0,127.0,127.0,127.0,126.0,128.0,126.0,128.0,-1.0,106.0,-70.0,127.0,127.0,127.0,-117.0,-88.0,111.0
126.0,127.0,127.0,127.0,126.0,128.0,127.0,128.0,-1.0,106.0,-70.0,127.0,127.0,127.0,-117.0,-88.0,111.0
126.0,127.0,127.0,127.0,126.0,128.0,127.0,128.0,-1.0,106.0,-70.0,127.0,127.0,127.0,-117.0,-88.0,111.0
127.0,127.0,127.0,127.0,126.0,129.0,126.0,128.0,-1.0,106.0,-70.0,127.0,127.0,127.0,-117.0,-88.0,111.0
127.0,127.0,127.0,127.0,126.0,129.0,126.0,128.0,-1.0,106.0,-70.0,127.0,127.0,127.0,-117.0,-88.0,111.0
127.0,127.0,127.0,127.0,126.0,129.0,126.0,128.0,-1.0,106.0,-70.0,127.0,127.0,127.0,-117.0,-88.0,111.0
127.0,127.0,127.0,127.0,126.0,129.0,126.0,128.0,-1.0,106.0,-70.0,127.0,127.0,127.0,-117.0,-88.0,111.0
127.0,127.0,127.0,127.0,126.0,128.0,126.0,128.0,-1.0,106.0,-70.0,127.0,127.0,127.0,-117.0,-88.0,111.0
127.0,127.0,127.0,127.0,126.0,128.0,126.0,128.0,-1.0,106.0,-70.0,127.0,127.0,127.0,-117.0,-88.0,111.0
127.0,127.0,127.0,127.0,126.0,128.0,126.0,128.0,-1.0,106.0,-70.0,127.0,127.0,127.0,-117.0,-88.0,111.0
126.0,127.0,127.0,127.0,126.0,128.0,125.0,128.0,-1.0,106.0,-70.0,127.0,127.0,127.0,-117.0,-88.0,111.0
126.0,127.0,127.0,127.0,126.0,128.0,125.0,128.0,-1.0,106.0,-70.0,127.0,127.0,127.0,-117.0,-88.0,111.0
127.0,128.0,127.0,127.0,126.0,129.0,125.0,128.0,-1.0,106.0,-70.0,127.0,127.0,127.0,-117.0,-88.0,111.0
127.0,128.0,127.0,127.0,126.0,129.0,125.0,128.0,-1.0,106.0,-70.0,127.0,127.0,127.0,-117.0,-88.0,111.0
127.0,128.0,127.0,127.0,126.0,128.0,125.0,128.0,-1.0,106.0,-70.0,127.0,127.0,127.0,-117.0,-88.0,111.0
127.0,128.0,127.0,127.0,126.0,128.0,125.0,128.0,-1.0,106.0,-70.0,127.0,127.0,127.0,-117.0,-88.0,111.0
127.0,127.0,127.0,127.0,126.0,128.0,125.0,128.0,-1.0,106.0,-70.0,127.0,127.0,127.0,-117.0,-88.0,111.0
127.0,127.0,127.0,127.0,126.0,129.0,125.0,128.0,-1.0,106.0,-70.0,127.0,127.0,127.0,-117.0,-88.0,111.0
127.0,127.0,127.0,127.0,126.0,128.0,125.0,128.0,-1.0,106.0,-70.0,127.0,127.0,127.0,-117.0,-88.0,111.0
126.0,127.0,127.0,127.0,126.0,128.0,125.0,128.0,-1.0,106.0,-70.0,127.0,127.0,127.0,-117.0,-88.0,111.0
127.0,128.0,127.0,127.0,126.0,129.0,124.0,128.0,-1.0,106.0,-71.0,127.0,127.0,127.0,-117.0,-88.0,111.0
127.0,128.0,127.0,127.0,126.0,129.0,124.0,128.0,-1.0,106.0,-71.0,127.0,127.0,127.0,-117.0,-88.0,111.0
127.0,128.0,127.0,127.0,126.0,129.0,124.0,128.0,-1.0,106.0,-71.0,127.0,127.0,127.0,-117.0,-88.0,111.0
127.0,128.0,127.0,127.0,126.0,129.0,124.0,128.0,-1.0,106.0,-71.0,127.0,127.0,127.0,-117.0,-88.0,111.0
127.0,128.0,127.0,127.0,126.0,129.0,124.0,128.0,-1.0,106.0,-71.0,127.0,127.0,127.0,-117.0,-88.0,111.0
127.0,128.0,127.0,128.0,126.0,129.0,124.0,128.0,-1.0,106.0,-71.0,127.0,127.0,127.0,-117.0,-88.0,111.0
127.0,128.0,127.0,128.0,126.0,129.0,124.0,128.0,-1.0,106.0,-71.0,127.0,127.0,127.0,-117.0,-88.0,111.0
127.0,128.0,127.0,127.0,126.0,129.0,124.0,128.0,-1.0,106.0,-71.0,127.0,127.0,127.0,-117.0,-88.0,111.0
127.0,128.0,127.0,127.0,126.0,129.0,124.0,128.0,-1.0,106.0,-71.0,127.0,127.0,127.0,-117.0,-88.0,111.0
127.0,128.0,128.0,127.0,126.0,129.0,124.0,128.0,-1.0,106.0,-71.0,127.0,127.0,127.0,-117.0,-88.0,111.0
127.0,128.0,127.0,127.0,126.0,130.0,125.0,128.0,-1.0,106.0,-71.0,127.0,127.0,127.0,-117.0,-88.0,111.0
127.0,128.0,127.0,127.0,126.0,130.0,125.0,129.0,-1.0,106.0,-71.0,127.0,127.0,127.0,-117.0,-88.0,111.0
127.0,128.0,127.0,127.0,126.0,130.0,125.0,129.0,-1.0,106.0,-71.0,127.0,127.0,127.0,-117.0,-88.0,111.0
127.0,128.0,127.0,127.0,126.0,130.0,125.0,129.0,-1.0,106.0,-71.0,127.0,127.0,127.0,-117.0,-88.0,111.0
127.0,127.0,128.0,127.0,126.0,130.0,125.0,128.0,-1.0,106.0,-71.0,127.0,127.0,127.0,-117.0,-88.0,111.0
127.0,127.0,128.0,127.0,126.0,130.0,125.0,128.0,-1.0,106.0,-71.0,127.0,127.0,127.0,-117.0,-88.0,111.0
127.0,127.0,128.0,127.0,126.0,130.0,125.0,128.0,-1.0,106.0,-71.0,127.0,127.0,127.0,-117.0,-88.0,111.0
127.0,127.0,128.0,127.0,126.0,130.0,125.0,128.0,-1.0,106.0,-71.0,127.0,127.0,127.0,-117.0,-88.0,111.0
127.0,128.0,128.0,127.0,127.0,130.0,125.0,128.0,-1.0,106.0,-71.0,127.0,127.0,127.0,-117.0,-88.0,111.0
127.0,127.0,128.0,127.0,127.0,130.0,126.0,128.0,-1.0,106.0,-71.0,127.0,127.0,127.0,-117.0,-88.0,111.0
128.0,127.0,128.0,128.0,126.0,128.0,126.0,129.0,-1.0,105.0,-71.0,127.0,127.0,127.0,-117.0,-88.0,111.0
128.0,127.0,128.0,128.0,126.0,128.0,126.0,129.0,-1.0,105.0,-71.0,127.0,127.0,127.0,-117.0,-88.0,111.0
128.0,127.0,128.0,128.0,126.0,128.0,126.0,129.0,-1.0,105.0,-71.0,127.0,127.0,127.0,-117.0,-88.0,111.0
127.0,127.0,128.0,128.0,127.0,130.0,126.0,129.0,-1.0,105.0,-71.0,127.0,127.0,127.0,-117.0,-88.0,111.0
127.0,127.0,128.0,128.0,127.0,130.0,126.0,129.0,-1.0,105.0,-71.0,127.0,127.0,127.0,-117.0,-88.0,111.0
127.0,127.0,128.0,128.0,127.0,129.0,126.0,129.0,-1.0,105.0,-71.0,127.0,127.0,127.0,-117.0,-88.0,111.0
127.0,127.0,128.0,128.0,127.0,129.0,126.0,129.0,-1.0,105.0,-71.0,127.0,127.0,127.0,-117.0,-88.0,111.0
127.0,127.0,128.0,128.0,127.0,128.0,126.0,129.0,-1.0,105.0,-71.0,127.0,127.0,127.0,-117.0,-88.0,111.0
127.0,127.0,128.0,128.0,127.0,128.0,126.0,129.0,-1.0,105.0,-71.0,127.0,127.0,127.0,-117.0,-88.0,111.0
127.0,127.0,128.0,128.0,127.0,128.0,126.0,129.0,-1.0,105.0,-71.0,127.0,127.0,127.0,-117.0,-88.0,111.0
126.0,124.0,127.0,128.0,126.0,129.0,128.0,126.0,-1.0,105.0,-71.0,127.0,127.0,127.0,-117.0,-88.0,111.0
126.0,124.0,127.0,128.0,126.0,129.0,128.0,126.0,-1.0,105.0,-71.0,127.0,127.0,127.0,-117.0,-88.0,111.0
125.0,125.0,127.0,128.0,126.0,128.0,128.0,126.0,-1.0,105.0,-71.0,127.0,127.0,127.0,-117.0,-88.0,111.0
125.0,125.0,127.0,128.0,126.0,128.0,128.0,126.0,-1.0,105.0,-71.0,127.0,127.0,127.0,-117.0,-88.0,111.0
125.0,124.0,127.0,128.0,126.0,128.0,128.0,126.0,-1.0,105.0,-71.0,127.0,127.0,127.0,-117.0,-88.0,111.0
125.0,124.0,127.0,128.0,126.0,128.0,128.0,125.0,-1.0,105.0,-71.0,127.0,127.0,127.0,-117.0,-88.0,111.0
125.0,124.0,127.0,128.0,126.0,128.0,128.0,125.0,-1.0,105.0,-71.0,127.0,127.0,127.0,-117.0,-88.0,111.0
125.0,124.0,127.0,128.0,126.0,129.0,128.0,125.0,-1.0,105.0,-71.0,127.0,127.0,127.0,-117.0,-88.0,111.0
126.0,124.0,127.0,128.0,126.0,129.0,128.0,125.0,-1.0,105.0,-71.0,127.0,127.0,127.0,-117.0,-88.0,111.0
126.0,124.0,127.0,128.0,126.0,129.0,128.0,126.0,-1.0,105.0,-71.0,127.0,127.0,127.0,-117.0,-88.0,111.0
125.0,126.0,126.0,129.0,126.0,126.0,148.0,126.0,-1.0,106.0,-71.0,127.0,127.0,127.0,-117.0,-88.0,111.0
125.0,124.0,126.0,129.0,126.0,127.0,140.0,127.0,-1.0,106.0,-71.0,127.0,127.0,127.0,-117.0,-88.0,111.0
125.0,124.0,126.0,129.0,126.0,127.0,141.0,127.0,-1.0,106.0,-71.0,127.0,127.0,127.0,-117.0,-88.0,111.0
125.0,124.0,126.0,129.0,126.0,126.0,142.0,127.0,-1.0,106.0,-71.0,127.0,127.0,127.0,-117.0,-88.0,111.0
125.0,124.0,126.0,129.0,126.0,126.0,143.0,126.0,-1.0,106.0,-71.0,127.0,127.0,127.0,-117.0,-88.0,111.0
125.0,125.0,126.0,129.0,126.0,127.0,144.0,127.0,-1.0,106.0,-71.0,127.0,127.0,127.0,-117.0,-88.0,111.0
125.0,125.0,126.0,129.0,126.0,127.0,144.0,126.0,-1.0,106.0,-71.0,127.0,127.0,127.0,-117.0,-88.0,111.0
125.0,125.0,126.0,129.0,126.0,126.0,145.0,126.0,-1.0,106.0,-71.0,127.0,127.0,127.0,-117.0,-88.0,111.0
125.0,126.0,126.0,129.0,126.0,126.0,146.0,126.0,-1.0,106.0,-71.0,127.0,127.0,127.0,-117.0,-88.0,111.0
125.0,126.0,126.0,129.0,126.0,126.0,147.0,126.0,-1.0,106.0,-71.0,127.0,127.0,127.0,-117.0,-88.0,111.0
130.0,130.0,128.0,131.0,127.0,130.0,172.0,126.0,-1.0,106.0,-70.0,127.0,127.0,127.0,-117.0,-88.0,111.0
130.0,130.0,128.0,131.0,127.0,129.0,170.0,125.0,-1.0,106.0,-70.0,127.0,127.0,127.0,-117.0,-88.0,111.0
130.0,130.0,128.0,130.0,126.0,129.0,168.0,125.0,-1.0,106.0,-70.0,127.0,127.0,127.0,-117.0,-88.0,111.0
130.0,130.0,127.0,130.0,126.0,129.0,166.0,124.0,-1.0,106.0,-70.0,127.0,127.0,127.0,-117.0,-88.0,111.0
129.0,131.0,127.0,130.0,126.0,129.0,164.0,124.0,-1.0,106.0,-70.0,127.0,127.0,127.0,-117.0,-88.0,111.0
129.0,131.0,127.0,130.0,126.0,129.0,162.0,123.0,-1.0,106.0,-70.0,127.0,127.0,127.0,-117.0,-88.0,111.0
128.0,130.0,126.0,130.0,126.0,129.0,161.0,123.0,-1.0,106.0,-70.0,127.0,127.0,127.0,-117.0,-88.0,111.0
128.0,130.0,126.0,130.0,126.0,128.0,159.0,122.0,-1.0,106.0,-70.0,127.0,127.0,127.0,-117.0,-88.0,111.0
127.0,129.0,126.0,130.0,125.0,128.0,157.0,122.0,-1.0,106.0,-70.0,127.0,127.0,127.0,-117.0,-88.0,111.0
126.0,128.0,126.0,130.0,125.0,128.0,156.0,122.0,-1.0,106.0,-70.0,127.0,127.0,127.0,-117.0,-88.0,111.0
125.0,117.0,128.0,133.0,127.0,123.0,127.0,120.0,-1.0,106.0,-70.0,127.0,127.0,127.0,-117.0,-88.0,111.0
124.0,116.0,128.0,133.0,127.0,122.0,126.0,118.0,-1.0,106.0,-70.0,127.0,127.0,127.0,-117.0,-88.0,111.0
124.0,115.0,127.0,133.0,127.0,122.0,125.0,117.0,-1.0,106.0,-70.0,127.0,127.0,127.0,-117.0,-88.0,111.0
123.0,113.0,127.0,133.0,126.0,121.0,123.0,115.0,-1.0,106.0,-70.0,127.0,127.0,127.0,-117.0,-88.0,111.0
123.0,112.0,126.0,133.0,126.0,121.0,122.0,114.0,-1.0,106.0,-70.0,127.0,127.0,127.0,-117.0,-88.0,111.0
123.0,110.0,126.0,133.0,126.0,120.0,121.0,113.0,-1.0,106.0,-70.0,127.0,127.0,127.0,-117.0,-88.0,111.0
122.0,108.0,126.0,133.0,126.0,119.0,121.0,113.0,-1.0,106.0,-70.0,127.0,127.0,127.0,-117.0,-88.0,111.0
122.0,107.0,126.0,133.0,125.0,118.0,120.0,112.0,-1.0,106.0,-70.0,127.0,127.0,127.0,-117.0,-88.0,111.0
121.0,105.0,125.0,133.0,125.0,118.0,119.0,111.0,-1.0,106.0,-70.0,127.0,127.0,127.0,-117.0,-88.0,111.0
126.0,118.0,128.0,133.0,127.0,123.0,127.0,121.0,-1.0,106.0,-70.0,127.0,127.0,127.0,-117.0,-88.0,111.0
132.0,127.0,129.0,137.0,123.0,118.0,94.0,117.0,-1.0,107.0,-70.0,127.0,126.0,127.0,-117.0,-88.0,111.0
134.0,128.0,129.0,137.0,123.0,118.0,94.0,117.0,-1.0,107.0,-70.0,127.0,126.0,127.0,-117.0,-88.0,111.0
135.0,129.0,129.0,137.0,123.0,117.0,94.0,117.0,-1.0,107.0,-70.0,127.0,126.0,127.0,-117.0,-88.0,111.0
136.0,130.0,128.0,137.0,123.0,117.0,94.0,117.0,-1.0,107.0,-70.0,127.0,126.0,127.0,-117.0,-88.0,111.0
137.0,130.0,128.0,136.0,122.0,116.0,93.0,116.0,-1.0,107.0,-70.0,127.0,126.0,127.0,-117.0,-88.0,111.0
137.0,129.0,127.0,136.0,122.0,116.0,92.0,115.0,-1.0,107.0,-70.0,127.0,126.0,127.0,-117.0,-88.0,111.0
137.0,129.0,127.0,136.0,121.0,115.0,92.0,113.0,-1.0,107.0,-70.0,127.0,126.0,127.0,-117.0,-88.0,111.0
137.0,128.0,126.0,135.0,121.0,114.0,91.0,112.0,-1.0,107.0,-70.0,127.0,126.0,127.0,-117.0,-88.0,111.0
129.0,125.0,129.0,137.0,124.0,118.0,95.0,117.0,-1.0,107.0,-70.0,127.0,126.0,127.0,-117.0,-88.0,111.0
130.0,126.0,129.0,137.0,124.0,118.0,95.0,117.0,-1.0,107.0,-70.0,127.0,126.0,127.0,-117.0,-88.0,111.0
138.0,136.0,123.0,132.0,121.0,111.0,92.0,125.0,-1.0,108.0,-69.0,126.0,126.0,127.0,-117.0,-88.0,111.0
136.0,138.0,122.0,132.0,121.0,111.0,91.0,125.0,-1.0,108.0,-69.0,126.0,126.0,127.0,-117.0,-88.0,111.0
135.0,138.0,122.0,132.0,121.0,112.0,90.0,126.0,-1.0,108.0,-69.0,126.0,126.0,127.0,-117.0,-88.0,111.0
134.0,138.0,122.0,132.0,121.0,112.0,90.0,125.0,-1.0,108.0,-69.0,126.0,126.0,127.0,-117.0,-88.0,111.0
133.0,137.0,122.0,132.0,120.0,112.0,90.0,124.0,-1.0,108.0,-69.0,126.0,126.0,127.0,-117.0,-88.0,111.0
133.0,136.0,121.0,132.0,120.0,112.0,89.0,123.0,-1.0,108.0,-69.0,126.0,126.0,127.0,-117.0,-88.0,111.0
132.0,133.0,120.0,132.0,120.0,111.0,88.0,121.0,-1.0,108.0,-69.0,126.0,126.0,127.0,-117.0,-88.0,111.0
138.0,125.0,121.0,132.0,120.0,111.0,94.0,123.0,-1.0,108.0,-69.0,126.0,126.0,127.0,-117.0,-88.0,111.0
139.0,129.0,122.0,132.0,121.0,111.0,94.0,124.0,-1.0,108.0,-69.0,126.0,126.0,127.0,-117.0,-88.0,111.0
139.0,133.0,122.0,132.0,121.0,111.0,93.0,125.0,-1.0,108.0,-69.0,126.0,126.0,127.0,-117.0,-88.0,111.0
135.0,107.0,116.0,130.0,119.0,108.0,89.0,126.0,-1.0,110.0,-70.0,126.0,126.0,127.0,-117.0,-88.0,111.0
134.0,107.0,115.0,129.0,119.0,107.0,90.0,127.0,-1.0,110.0,-70.0,126.0,126.0,127.0,-117.0,-88.0,111.0
134.0,107.0,115.0,129.0,118.0,107.0,90.0,128.0,-1.0,110.0,-70.0,126.0,126.0,127.0,-117.0,-88.0,111.0
134.0,107.0,116.0,129.0,118.0,107.0,91.0,129.0,-1.0,110.0,-70.0,126.0,126.0,127.0,-117.0,-88.0,111.0
134.0,108.0,116.0,129.0,119.0,107.0,92.0,130.0,-1.0,110.0,-70.0,126.0,126.0,127.0,-117.0,-88.0,111.0
137.0,109.0,119.0,131.0,119.0,108.0,89.0,121.0,-1.0,110.0,-70.0,126.0,126.0,127.0,-117.0,-88.0,111.0
137.0,109.0,118.0,131.0,119.0,108.0,89.0,123.0,-1.0,110.0,-70.0,126.0,126.0,127.0,-117.0,-88.0,111.0
136.0,108.0,118.0,131.0,119.0,108.0,89.0,124.0,-1.0,110.0,-70.0,126.0,126.0,127.0,-117.0,-88.0,111.0
136.0,108.0,117.0,131.0,119.0,108.0,89.0,125.0,-1.0,110.0,-70.0,126.0,126.0,127.0,-117.0,-88.0,111.0
135.0,107.0,116.0,130.0,119.0,108.0,89.0,126.0,-1.0,110.0,-70.0,126.0,126.0,127.0,-117.0,-88.0,111.0
136.0,128.0,126.0,135.0,121.0,101.0,122.0,153.0,-1.0,109.0,-70.0,126.0,126.0,127.0,-117.0,-88.0,111.0
136.0,130.0,125.0,135.0,121.0,100.0,123.0,153.0,-1.0,109.0,-70.0,126.0,126.0,127.0,-117.0,-88.0,111.0
136.0,132.0,125.0,134.0,121.0,100.0,124.0,154.0,-1.0,109.0,-70.0,126.0,126.0,127.0,-117.0,-88.0,111.0
136.0,133.0,124.0,134.0,121.0,99.0,125.0,154.0,-1.0,109.0,-70.0,126.0,126.0,127.0,-117.0,-88.0,111.0
136.0,134.0,123.0,134.0,121.0,99.0,126.0,155.0,-1.0,109.0,-70.0,126.0,126.0,127.0,-117.0,-88.0,111.0
134.0,120.0,123.0,132.0,120.0,100.0,117.0,149.0,-1.0,109.0,-70.0,126.0,126.0,127.0,-117.0,-88.0,111.0
134.0,121.0,124.0,133.0,120.0,100.0,117.0,149.0,-1.0,109.0,-70.0,126.0,126.0,127.0,-117.0,-88.0,111.0
134.0,123.0,125.0,134.0,120.0,101.0,118.0,151.0,-1.0,109.0,-70.0,126.0,126.0,127.0,-117.0,-88.0,111.0
135.0,125.0,125.0,134.0,121.0,101.0,119.0,151.0,-1.0,109.0,-70.0,126.0,126.0,127.0,-117.0,-88.0,111.0
135.0,126.0,126.0,134.0,121.0,101.0,120.0,152.0,-1.0,109.0,-70.0,126.0,126.0,127.0,-117.0,-88.0,111.0
128.0,136.0,117.0,125.0,120.0,110.0,151.0,160.0,-1.0,108.0,-70.0,126.0,126.0,127.0,-117.0,-88.0,111.0
128.0,136.0,117.0,125.0,120.0,110.0,149.0,159.0,-1.0,108.0,-70.0,126.0,126.0,127.0,-117.0,-88.0,111.0
129.0,137.0,117.0,124.0,120.0,110.0,148.0,159.0,-1.0,108.0,-70.0,126.0,126.0,127.0,-117.0,-88.0,111.0
129.0,137.0,117.0,124.0,120.0,111.0,147.0,159.0,-1.0,108.0,-70.0,126.0,126.0,127.0,-117.0,-88.0,111.0
130.0,139.0,120.0,127.0,122.0,108.0,159.0,160.0,-1.0,108.0,-70.0,126.0,126.0,127.0,-117.0,-88.0,111.0
129.0,139.0,120.0,126.0,121.0,108.0,158.0,160.0,-1.0,108.0,-70.0,126.0,126.0,127.0,-117.0,-88.0,111.0
128.0,138.0,119.0,126.0,121.0,108.0,157.0,160.0,-1.0,108.0,-70.0,126.0,126.0,127.0,-117.0,-88.0,111.0
128.0,137.0,118.0,126.0,121.0,108.0,155.0,160.0,-1.0,108.0,-70.0,126.0,126.0,127.0,-117.0,-88.0,111.0
128.0,136.0,118.0,125.0,121.0,109.0,154.0,160.0,-1.0,108.0,-70.0,126.0,126.0,127.0,-117.0,-88.0,111.0
128.0,136.0,117.0,125.0,120.0,110.0,152.0,160.0,-1.0,108.0,-70.0,126.0,126.0,127.0,-117.0,-88.0,111.0
131.0,144.0,129.0,130.0,125.0,120.0,114.0,150.0,-1.0,102.0,-68.0,126.0,127.0,-128.0,-117.0,-88.0,111.0
132.0,144.0,129.0,131.0,126.0,121.0,114.0,150.0,-1.0,102.0,-68.0,126.0,127.0,-128.0,-117.0,-88.0,111.0
132.0,148.0,130.0,130.0,126.0,121.0,119.0,151.0,-1.0,102.0,-68.0,126.0,127.0,-128.0,-117.0,-88.0,111.0
131.0,148.0,130.0,130.0,126.0,121.0,118.0,151.0,-1.0,102.0,-68.0,126.0,127.0,-128.0,-117.0,-88.0,111.0
130.0,147.0,129.0,130.0,126.0,121.0,117.0,151.0,-1.0,102.0,-68.0,126.0,127.0,-128.0,-117.0,-88.0,111.0
130.0,146.0,129.0,130.0,125.0,121.0,116.0,150.0,-1.0,102.0,-68.0,126.0,127.0,-128.0,-117.0,-88.0,111.0
130.0,145.0,129.0,130.0,125.0,120.0,116.0,150.0,-1.0,102.0,-68.0,126.0,127.0,-128.0,-117.0,-88.0,111.0
130.0,144.0,129.0,130.0,125.0,120.0,115.0,150.0,-1.0,102.0,-68.0,126.0,127.0,-128.0,-117.0,-88.0,111.0
131.0,144.0,129.0,130.0,125.0,120.0,114.0,150.0,-1.0,102.0,-68.0,126.0,127.0,-128.0,-117.0,-88.0,111.0
131.0,144.0,129.0,130.0,125.0,120.0,114.0,150.0,-1.0,102.0,-68.0,126.0,127.0,-128.0,-117.0,-88.0,111.0
129.0,131.0,133.0,133.0,131.0,123.0,112.0,146.0,-1.0,97.0,-65.0,126.0,127.0,-128.0,-117.0,-88.0,111.0
128.0,136.0,133.0,133.0,131.0,122.0,110.0,146.0,-1.0,97.0,-65.0,126.0,127.0,-128.0,-117.0,-88.0,111.0
128.0,135.0,132.0,133.0,131.0,122.0,110.0,146.0,-1.0,97.0,-65.0,126.0,127.0,-128.0,-117.0,-88.0,111.0
127.0,133.0,132.0,133.0,131.0,122.0,110.0,146.0,-1.0,97.0,-65.0,126.0,127.0,-128.0,-117.0,-88.0,111.0
127.0,132.0,132.0,133.0,131.0,122.0,110.0,146.0,-1.0,97.0,-65.0,126.0,127.0,-128.0,-117.0,-88.0,111.0
127.0,131.0,132.0,133.0,131.0,122.0,111.0,146.0,-1.0,97.0,-65.0,126.0,127.0,-128.0,-117.0,-88.0,111.0
128.0,131.0,132.0,133.0,131.0,122.0,111.0,146.0,-1.0,97.0,-65.0,126.0,127.0,-128.0,-117.0,-88.0,111.0
128.0,131.0,132.0,133.0,131.0,122.0,111.0,146.0,-1.0,97.0,-65.0,126.0,127.0,-128.0,-117.0,-88.0,111.0
128.0,130.0,132.0,133.0,131.0,122.0,111.0,146.0,-1.0,97.0,-65.0,126.0,127.0,-128.0,-117.0,-88.0,111.0
128.0,131.0,133.0,133.0,131.0,123.0,111.0,146.0,-1.0,97.0,-65.0,126.0,127.0,-128.0,-117.0,-88.0,111.0
133.0,124.0,133.0,131.0,129.0,123.0,116.0,140.0,-1.0,95.0,-65.0,126.0,127.0,-128.0,-117.0,-88.0,111.0
133.0,125.0,133.0,131.0,130.0,123.0,116.0,141.0,-1.0,95.0,-65.0,126.0,127.0,-128.0,-117.0,-88.0,111.0
133.0,126.0,133.0,131.0,130.0,124.0,116.0,141.0,-1.0,95.0,-65.0,126.0,127.0,-128.0,-117.0,-88.0,111.0
133.0,127.0,134.0,132.0,131.0,124.0,116.0,141.0,-1.0,95.0,-65.0,126.0,127.0,-128.0,-117.0,-88.0,111.0
133.0,128.0,134.0,132.0,131.0,124.0,116.0,142.0,-1.0,95.0,-65.0,126.0,127.0,-128.0,-117.0,-88.0,111.0
132.0,129.0,134.0,132.0,131.0,124.0,116.0,142.0,-1.0,95.0,-65.0,126.0,127.0,-128.0,-117.0,-88.0,111.0
130.0,130.0,134.0,132.0,131.0,124.0,117.0,141.0,-1.0,95.0,-65.0,126.0,127.0,-128.0,-117.0,-88.0,111.0
128.0,131.0,135.0,132.0,131.0,124.0,117.0,141.0,-1.0,95.0,-65.0,126.0,127.0,-128.0,-117.0,-88.0,111.0
126.0,131.0,135.0,132.0,131.0,123.0,117.0,140.0,-1.0,95.0,-65.0,126.0,127.0,-128.0,-117.0,-88.0,111.0
126.0,132.0,135.0,132.0,131.0,123.0,117.0,140.0,-1.0,95.0,-65.0,126.0,127.0,-128.0,-117.0,-88.0,111.0
124.0,128.0,130.0,128.0,131.0,123.0,119.0,139.0,-1.0,98.0,-68.0,126.0,127.0,-128.0,-117.0,-88.0,111.0
124.0,126.0,129.0,128.0,131.0,123.0,119.0,138.0,-1.0,98.0,-68.0,126.0,127.0,-128.0,-117.0,-88.0,111.0
123.0,126.0,129.0,128.0,130.0,123.0,120.0,138.0,-1.0,98.0,-68.0,126.0,127.0,-128.0,-117.0,-88.0,111.0
124.0,126.0,129.0,128.0,130.0,124.0,120.0,138.0,-1.0,98.0,-68.0,126.0,127.0,-128.0,-117.0,-88.0,111.0
124.0,126.0,128.0,128.0,130.0,123.0,120.0,138.0,-1.0,98.0,-68.0,126.0,127.0,-128.0,-117.0,-88.0,111.0
125.0,127.0,128.0,127.0,130.0,123.0,120.0,138.0,-1.0,98.0,-68.0,126.0,127.0,-128.0,-117.0,-88.0,111.0
127.0,127.0,128.0,127.0,130.0,123.0,120.0,139.0,-1.0,98.0,-68.0,126.0,127.0,-128.0,-117.0,-88.0,111.0
128.0,128.0,127.0,127.0,130.0,123.0,120.0,139.0,-1.0,98.0,-68.0,126.0,127.0,-128.0,-117.0,-88.0,111.0
129.0,129.0,127.0,127.0,131.0,122.0,119.0,140.0,-1.0,98.0,-68.0,126.0,127.0,-128.0,-117.0,-88.0,111.0
124.0,130.0,130.0,129.0,131.0,123.0,119.0,139.0,-1.0,98.0,-68.0,126.0,127.0,-128.0,-117.0,-88.0,111.0
126.0,135.0,130.0,126.0,130.0,121.0,126.0,142.0,-1.0,100.0,-72.0,126.0,127.0,-128.0,-117.0,-88.0,111.0
126.0,135.0,130.0,126.0,130.0,121.0,126.0,142.0,-1.0,100.0,-72.0,126.0,127.0,-128.0,-117.0,-88.0,111.0
126.0,136.0,130.0,126.0,130.0,122.0,126.0,142.0,-1.0,100.0,-72.0,126.0,127.0,-128.0,-117.0,-88.0,111.0
126.0,135.0,130.0,126.0,130.0,122.0,126.0,142.0,-1.0,100.0,-72.0,126.0,127.0,-128.0,-117.0,-88.0,111.0
126.0,135.0,130.0,126.0,130.0,122.0,126.0,141.0,-1.0,100.0,-72.0,126.0,127.0,-128.0,-117.0,-88.0,111.0
126.0,134.0,130.0,126.0,130.0,122.0,126.0,141.0,-1.0,100.0,-72.0,126.0,127.0,-128.0,-117.0,-88.0,111.0
126.0,134.0,130.0,126.0,130.0,122.0,126.0,141.0,-1.0,100.0,-72.0,126.0,127.0,-128.0,-117.0,-88.0,111.0
125.0,133.0,130.0,126.0,130.0,121.0,126.0,140.0,-1.0,100.0,-72.0,126.0,127.0,-128.0,-117.0,-88.0,111.0
126.0,134.0,130.0,125.0,130.0,121.0,125.0,142.0,-1.0,100.0,-72.0,126.0,127.0,-128.0,-117.0,-88.0,111.0
126.0,134.0,130.0,125.0,130.0,121.0,125.0,142.0,-1.0,100.0,-72.0,126.0,127.0,-128.0,-117.0,-88.0,111.0
129.0,138.0,130.0,125.0,128.0,123.0,129.0,138.0,-1.0,100.0,-74.0,126.0,127.0,-128.0,-117.0,-88.0,111.0
129.0,139.0,130.0,125.0,128.0,124.0,129.0,138.0,-1.0,100.0,-74.0,126.0,127.0,-128.0,-117.0,-88.0,111.0
129.0,140.0,129.0,125.0,128.0,124.0,128.0,138.0,-1.0,100.0,-74.0,126.0,127.0,-128.0,-117.0,-88.0,111.0
130.0,140.0,129.0,125.0,128.0,124.0,128.0,138.0,-1.0,100.0,-74.0,126.0,127.0,-128.0,-117.0,-88.0,111.0
130.0,141.0,129.0,125.0,128.0,124.0,128.0,138.0,-1.0,100.0,-74.0,126.0,127.0,-128.0,-117.0,-88.0,111.0
129.0,142.0,129.0,125.0,128.0,124.0,128.0,138.0,-1.0,100.0,-74.0,126.0,127.0,-128.0,-117.0,-88.0,111.0
129.0,141.0,128.0,125.0,128.0,124.0,129.0,138.0,-1.0,100.0,-74.0,126.0,127.0,-128.0,-117.0,-88.0,111.0
129.0,135.0,130.0,125.0,128.0,123.0,129.0,138.0,-1.0,100.0,-74.0,126.0,127.0,-128.0,-117.0,-88.0,111.0
129.0,136.0,130.0,125.0,128.0,123.0,129.0,138.0,-1.0,100.0,-74.0,126.0,127.0,-128.0,-117.0,-88.0,111.0
129.0,137.0,130.0,125.0,128.0,123.0,129.0,138.0,-1.0,100.0,-74.0,126.0,127.0,-128.0,-117.0,-88.0,111.0
128.0,135.0,129.0,125.0,128.0,127.0,130.0,135.0,-1.0,100.0,-75.0,127.0,127.0,-128.0,-116.0,-88.0,111.0
129.0,135.0,128.0,125.0,128.0,127.0,130.0,136.0,-1.0,100.0,-75.0,127.0,127.0,-128.0,-116.0,-88.0,111.0
129.0,135.0,128.0,125.0,128.0,127.0,130.0,136.0,-1.0,100.0,-75.0,127.0,127.0,-128.0,-116.0,-88.0,111.0
128.0,135.0,128.0,125.0,128.0,127.0,130.0,136.0,-1.0,100.0,-75.0,127.0,127.0,-128.0,-116.0,-88.0,111.0
128.0,134.0,128.0,125.0,128.0,127.0,130.0,136.0,-1.0,100.0,-75.0,127.0,127.0,-128.0,-116.0,-88.0,111.0
128.0,134.0,128.0,125.0,128.0,126.0,131.0,136.0,-1.0,100.0,-75.0,127.0,127.0,-128.0,-116.0,-88.0,111.0
127.0,133.0,129.0,126.0,128.0,126.0,130.0,135.0,-1.0,100.0,-75.0,127.0,127.0,-128.0,-116.0,-88.0,111.0
128.0,134.0,129.0,126.0,128.0,126.0,130.0,135.0,-1.0,100.0,-75.0,127.0,127.0,-128.0,-116.0,-88.0,111.0
128.0,134.0,129.0,126.0,128.0,126.0,130.0,135.0,-1.0,100.0,-75.0,127.0,127.0,-128.0,-116.0,-88.0,111.0
128.0,135.0,129.0,125.0,128.0,126.0,130.0,135.0,-1.0,100.0,-75.0,127.0,127.0,-128.0,-116.0,-88.0,111.0
126.0,145.0,130.0,125.0,128.0,125.0,129.0,133.0,-1.0,100.0,-76.0,127.0,127.0,127.0,-116.0,-88.0,111.0
126.0,143.0,130.0,125.0,127.0,125.0,129.0,133.0,-1.0,100.0,-76.0,127.0,127.0,127.0,-116.0,-88.0,111.0
126.0,140.0,129.0,125.0,127.0,125.0,129.0,133.0,-1.0,100.0,-76.0,127.0,127.0,127.0,-116.0,-88.0,111.0
126.0,137.0,129.0,125.0,127.0,125.0,129.0,133.0,-1.0,100.0,-76.0,127.0,127.0,127.0,-116.0,-88.0,111.0
126.0,135.0,128.0,125.0,127.0,125.0,129.0,133.0,-1.0,100.0,-76.0,127.0,127.0,127.0,-116.0,-88.0,111.0
127.0,142.0,130.0,126.0,128.0,125.0,130.0,134.0,-1.0,100.0,-76.0,127.0,127.0,127.0,-116.0,-88.0,111.0
127.0,144.0,130.0,126.0,128.0,125.0,130.0,134.0,-1.0,100.0,-76.0,127.0,127.0,127.0,-116.0,-88.0,111.0
126.0,145.0,130.0,126.0,128.0,125.0,130.0,134.0,-1.0,100.0,-76.0,127.0,127.0,127.0,-116.0,-88.0,111.0
126.0,146.0,130.0,125.0,128.0,125.0,129.0,133.0,-1.0,100.0,-76.0,127.0,127.0,127.0,-116.0,-88.0,111.0
126.0,146.0,130.0,125.0,128.0,125.0,129.0,133.0,-1.0,100.0,-76.0,127.0,127.0,127.0,-116.0,-88.0,111.0
127.0,128.0,129.0,126.0,128.0,127.0,128.0,133.0,-1.0,100.0,-76.0,127.0,127.0,127.0,-116.0,-88.0,111.0
127.0,127.0,129.0,126.0,128.0,127.0,128.0,133.0,-1.0,100.0,-76.0,127.0,127.0,127.0,-116.0,-88.0,111.0
127.0,126.0,128.0,126.0,127.0,126.0,127.0,132.0,-1.0,100.0,-76.0,127.0,127.0,127.0,-116.0,-88.0,111.0
127.0,125.0,128.0,126.0,127.0,126.0,126.0,132.0,-1.0,100.0,-76.0,127.0,127.0,127.0,-116.0,-88.0,111.0
127.0,128.0,128.0,125.0,128.0,127.0,131.0,133.0,-1.0,100.0,-76.0,127.0,127.0,127.0,-116.0,-88.0,111.0
127.0,128.0,128.0,125.0,128.0,128.0,131.0,133.0,-1.0,100.0,-76.0,127.0,127.0,127.0,-116.0,-88.0,111.0
127.0,128.0,128.0,126.0,128.0,128.0,130.0,133.0,-1.0,100.0,-76.0,127.0,127.0,127.0,-116.0,-88.0,111.0
126.0,128.0,128.0,126.0,128.0,127.0,130.0,133.0,-1.0,100.0,-76.0,127.0,127.0,127.0,-116.0,-88.0,111.0
127.0,129.0,129.0,126.0,128.0,127.0,129.0,133.0,-1.0,100.0,-76.0,127.0,127.0,127.0,-116.0,-88.0,111.0
127.0,128.0,129.0,126.0,128.0,127.0,128.0,133.0,-1.0,100.0,-76.0,127.0,127.0,127.0,-116.0,-88.0,111.0
127.0,136.0,128.0,125.0,126.0,124.0,127.0,132.0,-1.0,100.0,-76.0,127.0,127.0,127.0,-115.0,-88.0,111.0
127.0,136.0,128.0,125.0,126.0,124.0,128.0,132.0,-1.0,100.0,-76.0,127.0,127.0,127.0,-115.0,-88.0,111.0
127.0,135.0,129.0,125.0,126.0,124.0,128.0,132.0,-1.0,100.0,-76.0,127.0,127.0,127.0,-115.0,-88.0,111.0
129.0,136.0,127.0,126.0,127.0,125.0,128.0,134.0,-1.0,100.0,-76.0,127.0,127.0,127.0,-115.0,-88.0,111.0
129.0,136.0,127.0,125.0,127.0,125.0,128.0,134.0,-1.0,100.0,-76.0,127.0,127.0,127.0,-115.0,-88.0,111.0
128.0,136.0,127.0,125.0,127.0,124.0,128.0,133.0,-1.0,100.0,-76.0,127.0,127.0,127.0,-115.0,-88.0,111.0
128.0,136.0,126.0,125.0,126.0,124.0,127.0,133.0,-1.0,100.0,-76.0,127.0,127.0,127.0,-115.0,-88.0,111.0
128.0,136.0,126.0,125.0,126.0,124.0,127.0,133.0,-1.0,100.0,-76.0,127.0,127.0,127.0,-115.0,-88.0,111.0
127.0,136.0,127.0,125.0,126.0,124.0,127.0,133.0,-1.0,100.0,-76.0,127.0,127.0,127.0,-115.0,-88.0,111.0
127.0,136.0,127.0,125.0,126.0,124.0,127.0,132.0,-1.0,100.0,-76.0,127.0,127.0,127.0,-115.0,-88.0,111.0
130.0,143.0,128.0,125.0,127.0,127.0,125.0,133.0,-1.0,100.0,-76.0,127.0,127.0,127.0,-115.0,-88.0,111.0
130.0,142.0,128.0,125.0,127.0,127.0,125.0,134.0,-1.0,100.0,-76.0,127.0,127.0,127.0,-115.0,-88.0,111.0
128.0,134.0,128.0,125.0,127.0,126.0,125.0,130.0,-1.0,100.0,-76.0,127.0,127.0,127.0,-115.0,-88.0,111.0
128.0,135.0,128.0,125.0,127.0,126.0,125.0,130.0,-1.0,100.0,-76.0,127.0,127.0,127.0,-115.0,-88.0,111.0
129.0,137.0,128.0,125.0,127.0,126.0,125.0,130.0,-1.0,100.0,-76.0,127.0,127.0,127.0,-115.0,-88.0,111.0
129.0,139.0,128.0,125.0,127.0,126.0,125.0,131.0,-1.0,100.0,-76.0,127.0,127.0,127.0,-115.0,-88.0,111.0
129.0,141.0,128.0,125.0,126.0,126.0,125.0,131.0,-1.0,100.0,-76.0,127.0,127.0,127.0,-115.0,-88.0,111.0
129.0,142.0,128.0,125.0,127.0,126.0,124.0,131.0,-1.0,100.0,-76.0,127.0,127.0,127.0,-115.0,-88.0,111.0
129.0,143.0,128.0,125.0,127.0,126.0,124.0,132.0,-1.0,100.0,-76.0,127.0,127.0,127.0,-115.0,-88.0,111.0
129.0,143.0,128.0,125.0,127.0,126.0,125.0,132.0,-1.0,100.0,-76.0,127.0,127.0,127.0,-115.0,-88.0,111.0
124.0,131.0,126.0,126.0,126.0,126.0,129.0,130.0,-1.0,99.0,-76.0,127.0,127.0,127.0,-115.0,-88.0,111.0
126.0,138.0,128.0,126.0,127.0,127.0,129.0,130.0,-1.0,99.0,-76.0,127.0,127.0,127.0,-115.0,-88.0,111.0
126.0,138.0,128.0,126.0,127.0,127.0,129.0,130.0,-1.0,99.0,-76.0,127.0,127.0,127.0,-115.0,-88.0,111.0
127.0,138.0,128.0,126.0,127.0,127.0,129.0,130.0,-1.0,99.0,-76.0,127.0,127.0,127.0,-115.0,-88.0,111.0
127.0,138.0,129.0,126.0,127.0,127.0,129.0,130.0,-1.0,99.0,-76.0,127.0,127.0,127.0,-115.0,-88.0,111.0
127.0,138.0,128.0,126.0,127.0,127.0,129.0,131.0,-1.0,99.0,-76.0,127.0,127.0,127.0,-115.0,-88.0,111.0
127.0,137.0,128.0,126.0,127.0,127.0,129.0,131.0,-1.0,99.0,-76.0,127.0,127.0,127.0,-115.0,-88.0,111.0
126.0,136.0,128.0,126.0,127.0,127.0,129.0,131.0,-1.0,99.0,-76.0,127.0,127.0,127.0,-115.0,-88.0,111.0
125.0,135.0,127.0,126.0,127.0,126.0,130.0,130.0,-1.0,99.0,-76.0,127.0,127.0,127.0,-115.0,-88.0,111.0
124.0,133.0,127.0,126.0,126.0,126.0,130.0,130.0,-1.0,99.0,-76.0,127.0,127.0,127.0,-115.0,-88.0,111.0
127.0,129.0,127.0,125.0,126.0,126.0,126.0,125.0,-1.0,99.0,-75.0,127.0,127.0,127.0,-115.0,-88.0,111.0
127.0,129.0,127.0,125.0,126.0,125.0,126.0,124.0,-1.0,99.0,-75.0,127.0,127.0,127.0,-115.0,-88.0,111.0
127.0,129.0,127.0,125.0,126.0,125.0,126.0,124.0,-1.0,99.0,-75.0,127.0,127.0,127.0,-115.0,-88.0,111.0
127.0,130.0,127.0,125.0,127.0,125.0,126.0,124.0,-1.0,99.0,-75.0,127.0,127.0,127.0,-115.0,-88.0,111.0
127.0,131.0,127.0,126.0,126.0,125.0,126.0,125.0,-1.0,99.0,-75.0,127.0,127.0,127.0,-115.0,-88.0,111.0
127.0,133.0,127.0,126.0,127.0,126.0,126.0,125.0,-1.0,99.0,-75.0,127.0,127.0,127.0,-115.0,-88.0,111.0
128.0,134.0,127.0,126.0,127.0,126.0,126.0,125.0,-1.0,99.0,-75.0,127.0,127.0,127.0,-115.0,-88.0,111.0
128.0,135.0,127.0,126.0,127.0,126.0,126.0,126.0,-1.0,99.0,-75.0,127.0,127.0,127.0,-115.0,-88.0,111.0
128.0,136.0,127.0,126.0,127.0,125.0,127.0,126.0,-1.0,99.0,-75.0,127.0,127.0,127.0,-115.0,-88.0,111.0
128.0,136.0,127.0,126.0,126.0,125.0,127.0,127.0,-1.0,99.0,-75.0,127.0,127.0,127.0,-115.0,-88.0,111.0
127.0,131.0,127.0,125.0,126.0,127.0,128.0,126.0,-1.0,99.0,-74.0,127.0,127.0,127.0,-115.0,-88.0,111.0
127.0,132.0,127.0,125.0,126.0,127.0,127.0,126.0,-1.0,99.0,-74.0,127.0,127.0,127.0,-115.0,-88.0,111.0
127.0,132.0,127.0,125.0,126.0,127.0,127.0,126.0,-1.0,99.0,-74.0,127.0,127.0,127.0,-115.0,-88.0,111.0
127.0,132.0,127.0,125.0,126.0,127.0,127.0,126.0,-1.0,99.0,-74.0,127.0,127.0,127.0,-115.0,-88.0,111.0
127.0,133.0,127.0,125.0,126.0,127.0,127.0,127.0,-1.0,99.0,-74.0,127.0,127.0,127.0,-115.0,-88.0,111.0
127.0,133.0,127.0,125.0,126.0,128.0,128.0,127.0,-1.0,99.0,-74.0,127.0,127.0,127.0,-115.0,-88.0,111.0
127.0,133.0,127.0,125.0,127.0,128.0,128.0,127.0,-1.0,99.0,-74.0,127.0,127.0,127.0,-115.0,-88.0,111.0
126.0,133.0,127.0,125.0,127.0,128.0,129.0,127.0,-1.0,99.0,-74.0,127.0,127.0,127.0,-115.0,-88.0,111.0
127.0,130.0,127.0,125.0,126.0,127.0,127.0,126.0,-1.0,99.0,-74.0,127.0,127.0,127.0,-115.0,-88.0,111.0
127.0,131.0,127.0,125.0,126.0,127.0,128.0,126.0,-1.0,99.0,-74.0,127.0,127.0,127.0,-115.0,-88.0,111.0
127.0,130.0,128.0,126.0,127.0,126.0,127.0,128.0,-1.0,99.0,-73.0,127.0,127.0,127.0,-115.0,-88.0,111.0
128.0,131.0,128.0,126.0,127.0,126.0,127.0,129.0,-1.0,99.0,-73.0,127.0,127.0,127.0,-115.0,-88.0,111.0
128.0,132.0,128.0,126.0,127.0,126.0,127.0,129.0,-1.0,99.0,-73.0,127.0,127.0,127.0,-115.0,-88.0,111.0
129.0,133.0,128.0,127.0,127.0,127.0,126.0,130.0,-1.0,99.0,-73.0,127.0,127.0,127.0,-115.0,-88.0,111.0
130.0,134.0,128.0,127.0,127.0,127.0,126.0,130.0,-1.0,99.0,-73.0,127.0,127.0,127.0,-115.0,-88.0,111.0
130.0,134.0,128.0,127.0,127.0,126.0,126.0,130.0,-1.0,99.0,-73.0,127.0,127.0,127.0,-115.0,-88.0,111.0
130.0,134.0,127.0,126.0,127.0,126.0,125.0,129.0,-1.0,99.0,-73.0,127.0,127.0,127.0,-115.0,-88.0,111.0
125.0,129.0,127.0,126.0,127.0,126.0,127.0,128.0,-1.0,99.0,-73.0,127.0,127.0,127.0,-115.0,-88.0,111.0
126.0,129.0,127.0,126.0,127.0,126.0,127.0,128.0,-1.0,99.0,-73.0,127.0,127.0,127.0,-115.0,-88.0,111.0
126.0,129.0,128.0,126.0,127.0,126.0,127.0,128.0,-1.0,99.0,-73.0,127.0,127.0,127.0,-115.0,-88.0,111.0
125.0,131.0,128.0,126.0,127.0,127.0,125.0,127.0,-1.0,99.0,-72.0,127.0,127.0,127.0,-115.0,-88.0,111.0
125.0,131.0,128.0,126.0,127.0,127.0,126.0,127.0,-1.0,99.0,-72.0,127.0,127.0,127.0,-115.0,-88.0,111.0
125.0,131.0,128.0,126.0,127.0,126.0,126.0,126.0,-1.0,99.0,-72.0,127.0,127.0,127.0,-115.0,-88.0,111.0
125.0,130.0,127.0,126.0,127.0,126.0,127.0,126.0,-1.0,99.0,-72.0,127.0,127.0,127.0,-115.0,-88.0,111.0
125.0,130.0,127.0,126.0,126.0,126.0,127.0,126.0,-1.0,99.0,-72.0,127.0,127.0,127.0,-115.0,-88.0,111.0
124.0,129.0,127.0,126.0,126.0,125.0,127.0,126.0,-1.0,99.0,-72.0,127.0,127.0,127.0,-115.0,-88.0,111.0
125.0,131.0,127.0,127.0,127.0,129.0,125.0,127.0,-1.0,99.0,-72.0,127.0,127.0,127.0,-115.0,-88.0,111.0
125.0,131.0,127.0,127.0,127.0,128.0,124.0,127.0,-1.0,99.0,-72.0,127.0,127.0,127.0,-115.0,-88.0,111.0
125.0,131.0,127.0,126.0,127.0,128.0,124.0,127.0,-1.0,99.0,-72.0,127.0,127.0,127.0,-115.0,-88.0,111.0
125.0,131.0,128.0,126.0,127.0,128.0,125.0,127.0,-1.0,99.0,-72.0,127.0,127.0,127.0,-115.0,-88.0,111.0
125.0,129.0,128.0,126.0,127.0,125.0,127.0,126.0,-1.0,99.0,-72.0,127.0,127.0,127.0,-114.0,-88.0,111.0
125.0,129.0,128.0,126.0,127.0,125.0,127.0,126.0,-1.0,99.0,-72.0,127.0,127.0,127.0,-114.0,-88.0,111.0
125.0,129.0,127.0,126.0,126.0,125.0,127.0,126.0,-1.0,99.0,-72.0,127.0,127.0,127.0,-114.0,-88.0,111.0
125.0,130.0,128.0,126.0,126.0,125.0,127.0,126.0,-1.0,99.0,-72.0,127.0,127.0,127.0,-114.0,-88.0,111.0
126.0,130.0,128.0,126.0,126.0,125.0,127.0,126.0,-1.0,99.0,-72.0,127.0,127.0,127.0,-114.0,-88.0,111.0
125.0,129.0,128.0,126.0,127.0,125.0,128.0,128.0,-1.0,99.0,-72.0,127.0,127.0,127.0,-114.0,-88.0,111.0
125.0,129.0,128.0,126.0,127.0,125.0,128.0,127.0,-1.0,99.0,-72.0,127.0,127.0,127.0,-114.0,-88.0,111.0
125.0,129.0,128.0,126.0,127.0,125.0,127.0,127.0,-1.0,99.0,-72.0,127.0,127.0,127.0,-114.0,-88.0,111.0
125.0,129.0,128.0,126.0,127.0,125.0,127.0,127.0,-1.0,99.0,-72.0,127.0,127.0,127.0,-114.0,-88.0,111.0
125.0,129.0,128.0,126.0,127.0,125.0,127.0,127.0,-1.0,99.0,-72.0,127.0,127.0,127.0,-114.0,-88.0,111.0
126.0,131.0,127.0,127.0,127.0,126.0,128.0,127.0,-1.0,99.0,-71.0,127.0,127.0,127.0,-114.0,-88.0,111.0
126.0,131.0,127.0,127.0,127.0,126.0,128.0,127.0,-1.0,99.0,-71.0,127.0,127.0,127.0,-114.0,-88.0,111.0
127.0,131.0,127.0,126.0,127.0,126.0,128.0,128.0,-1.0,99.0,-71.0,127.0,127.0,127.0,-114.0,-88.0,111.0
127.0,132.0,127.0,126.0,126.0,127.0,127.0,128.0,-1.0,99.0,-71.0,127.0,127.0,127.0,-114.0,-88.0,111.0
126.0,131.0,128.0,127.0,127.0,126.0,128.0,127.0,-1.0,99.0,-71.0,127.0,127.0,127.0,-114.0,-88.0,111.0
126.0,131.0,128.0,127.0,127.0,126.0,128.0,127.0,-1.0,99.0,-71.0,127.0,127.0,127.0,-114.0,-88.0,111.0
126.0,131.0,127.0,127.0,127.0,126.0,128.0,127.0,-1.0,99.0,-71.0,127.0,127.0,127.0,-114.0,-88.0,111.0
126.0,131.0,127.0,127.0,127.0,127.0,128.0,127.0,-1.0,99.0,-71.0,127.0,127.0,127.0,-114.0,-88.0,111.0
126.0,131.0,127.0,127.0,127.0,127.0,128.0,127.0,-1.0,99.0,-71.0,127.0,127.0,127.0,-114.0,-88.0,111.0
126.0,131.0,127.0,127.0,127.0,127.0,128.0,127.0,-1.0,99.0,-71.0,127.0,127.0,127.0,-114.0,-88.0,111.0
126.0,129.0,128.0,127.0,127.0,127.0,126.0,125.0,-1.0,98.0,-71.0,127.0,127.0,127.0,-114.0,-88.0,111.0
126.0,129.0,128.0,127.0,127.0,127.0,126.0,125.0,-1.0,98.0,-71.0,127.0,127.0,127.0,-114.0,-88.0,111.0
126.0,129.0,128.0,127.0,127.0,127.0,126.0,125.0,-1.0,98.0,-71.0,127.0,127.0,127.0,-114.0,-88.0,111.0
126.0,130.0,127.0,127.0,127.0,128.0,127.0,127.0,-1.0,98.0,-71.0,127.0,127.0,127.0,-114.0,-88.0,111.0
126.0,130.0,127.0,127.0,127.0,128.0,127.0,127.0,-1.0,98.0,-71.0,127.0,127.0,127.0,-114.0,-88.0,111.0
126.0,129.0,127.0,127.0,127.0,128.0,127.0,126.0,-1.0,98.0,-71.0,127.0,127.0,127.0,-114.0,-88.0,111.0
126.0,129.0,127.0,127.0,127.0,128.0,127.0,126.0,-1.0,98.0,-71.0,127.0,127.0,127.0,-114.0,-88.0,111.0
126.0,129.0,127.0,127.0,127.0,128.0,127.0,126.0,-1.0,98.0,-71.0,127.0,127.0,127.0,-114.0,-88.0,111.0
126.0,129.0,127.0,127.0,127.0,127.0,127.0,126.0,-1.0,98.0,-71.0,127.0,127.0,127.0,-114.0,-88.0,111.0
126.0,129.0,128.0,127.0,127.0,127.0,127.0,125.0,-1.0,98.0,-71.0,127.0,127.0,127.0,-114.0,-88.0,111.0
125.0,128.0,127.0,127.0,126.0,127.0,128.0,125.0,-1.0,98.0,-71.0,127.0,127.0,127.0,-114.0,-88.0,111.0
125.0,128.0,127.0,127.0,126.0,127.0,128.0,125.0,-1.0,98.0,-71.0,127.0,127.0,127.0,-114.0,-88.0,111.0
126.0,128.0,127.0,126.0,126.0,128.0,128.0,126.0,-1.0,98.0,-71.0,127.0,127.0,127.0,-114.0,-88.0,111.0
126.0,128.0,127.0,126.0,126.0,128.0,127.0,126.0,-1.0,98.0,-71.0,127.0,127.0,127.0,-114.0,-88.0,111.0
125.0,128.0,127.0,126.0,126.0,128.0,127.0,126.0,-1.0,98.0,-71.0,127.0,127.0,127.0,-114.0,-88.0,111.0
125.0,128.0,127.0,126.0,126.0,128.0,127.0,125.0,-1.0,98.0,-71.0,127.0,127.0,127.0,-114.0,-88.0,111.0
125.0,127.0,127.0,126.0,126.0,127.0,128.0,125.0,-1.0,98.0,-71.0,127.0,127.0,127.0,-114.0,-88.0,111.0
125.0,128.0,127.0,127.0,126.0,127.0,128.0,125.0,-1.0,98.0,-71.0,127.0,127.0,127.0,-114.0,-88.0,111.0
125.0,128.0,127.0,127.0,126.0,127.0,128.0,125.0,-1.0,98.0,-71.0,127.0,127.0,127.0,-114.0,-88.0,111.0
125.0,128.0,127.0,127.0,126.0,127.0,128.0,125.0,-1.0,98.0,-71.0,127.0,127.0,127.0,-114.0,-88.0,111.0
125.0,127.0,128.0,127.0,127.0,127.0,128.0,121.0,-1.0,98.0,-72.0,127.0,127.0,127.0,-114.0,-88.0,111.0
126.0,127.0,127.0,127.0,126.0,127.0,127.0,121.0,-1.0,98.0,-72.0,127.0,127.0,127.0,-114.0,-88.0,111.0
126.0,127.0,127.0,127.0,126.0,127.0,127.0,121.0,-1.0,98.0,-72.0,127.0,127.0,127.0,-114.0,-88.0,111.0
126.0,127.0,127.0,127.0,126.0,127.0,127.0,121.0,-1.0,98.0,-72.0,127.0,127.0,127.0,-114.0,-88.0,111.0
126.0,127.0,127.0,127.0,126.0,127.0,127.0,121.0,-1.0,98.0,-72.0,127.0,127.0,127.0,-114.0,-88.0,111.0
126.0,127.0,127.0,127.0,126.0,127.0,127.0,121.0,-1.0,98.0,-72.0,127.0,127.0,127.0,-114.0,-88.0,111.0
126.0,127.0,128.0,127.0,126.0,127.0,127.0,121.0,-1.0,98.0,-72.0,127.0,127.0,127.0,-114.0,-88.0,111.0
126.0,127.0,127.0,127.0,126.0,127.0,127.0,121.0,-1.0,98.0,-72.0,127.0,127.0,127.0,-114.0,-88.0,111.0
126.0,127.0,128.0,127.0,127.0,127.0,128.0,121.0,-1.0,98.0,-72.0,127.0,127.0,127.0,-114.0,-88.0,111.0
126.0,127.0,127.0,127.0,126.0,127.0,128.0,121.0,-1.0,98.0,-72.0,127.0,127.0,127.0,-114.0,-88.0,111.0
126.0,128.0,128.0,127.0,126.0,128.0,128.0,124.0,-1.0,99.0,-72.0,127.0,127.0,127.0,-114.0,-88.0,111.0
126.0,128.0,128.0,127.0,126.0,128.0,128.0,124.0,-1.0,99.0,-72.0,127.0,127.0,127.0,-114.0,-88.0,111.0
126.0,128.0,128.0,127.0,126.0,128.0,128.0,123.0,-1.0,99.0,-72.0,127.0,127.0,127.0,-114.0,-88.0,111.0
126.0,128.0,128.0,127.0,126.0,127.0,128.0,123.0,-1.0,99.0,-72.0,127.0,127.0,127.0,-114.0,-88.0,111.0
126.0,128.0,128.0,127.0,126.0,127.0,129.0,123.0,-1.0,99.0,-72.0,127.0,127.0,127.0,-114.0,-88.0,111.0
126.0,128.0,128.0,127.0,127.0,127.0,129.0,123.0,-1.0,99.0,-72.0,127.0,127.0,127.0,-114.0,-88.0,111.0
126.0,128.0,128.0,127.0,127.0,127.0,129.0,123.0,-1.0,99.0,-72.0,127.0,127.0,127.0,-114.0,-88.0,111.0
126.0,128.0,128.0,127.0,127.0,127.0,129.0,122.0,-1.0,99.0,-72.0,127.0,127.0,127.0,-114.0,-88.0,111.0
126.0,128.0,128.0,127.0,127.0,127.0,129.0,122.0,-1.0,99.0,-72.0,127.0,127.0,127.0,-114.0,-88.0,111.0
126.0,128.0,128.0,127.0,127.0,127.0,129.0,122.0,-1.0,99.0,-72.0,127.0,127.0,127.0,-114.0,-88.0,111.0
125.0,126.0,128.0,127.0,127.0,127.0,128.0,122.0,-1.0,99.0,-73.0,127.0,127.0,127.0,-113.0,-88.0,111.0
125.0,126.0,128.0,127.0,127.0,127.0,128.0,122.0,-1.0,99.0,-73.0,127.0,127.0,127.0,-113.0,-88.0,111.0
125.0,126.0,128.0,127.0,127.0,127.0,128.0,122.0,-1.0,99.0,-73.0,127.0,127.0,127.0,-113.0,-88.0,111.0
125.0,126.0,128.0,127.0,127.0,127.0,128.0,121.0,-1.0,99.0,-73.0,127.0,127.0,127.0,-113.0,-88.0,111.0
125.0,126.0,128.0,127.0,127.0,127.0,128.0,122.0,-1.0,99.0,-73.0,127.0,127.0,127.0,-113.0,-88.0,111.0
125.0,126.0,128.0,127.0,127.0,127.0,128.0,122.0,-1.0,99.0,-73.0,127.0,127.0,127.0,-113.0,-88.0,111.0
125.0,126.0,128.0,127.0,127.0,127.0,128.0,122.0,-1.0,99.0,-73.0,127.0,127.0,127.0,-113.0,-88.0,111.0
125.0,126.0,128.0,127.0,127.0,127.0,129.0,122.0,-1.0,99.0,-73.0,127.0,127.0,127.0,-113.0,-88.0,111.0
125.0,126.0,128.0,127.0,127.0,127.0,129.0,121.0,-1.0,99.0,-73.0,127.0,127.0,127.0,-113.0,-88.0,111.0
125.0,126.0,128.0,127.0,127.0,127.0,128.0,122.0,-1.0,99.0,-73.0,127.0,127.0,127.0,-113.0,-88.0,111.0
124.0,126.0,127.0,127.0,126.0,128.0,128.0,124.0,-1.0,99.0,-74.0,127.0,127.0,127.0,-113.0,-88.0,111.0
124.0,126.0,127.0,127.0,126.0,128.0,128.0,124.0,-1.0,99.0,-74.0,127.0,127.0,127.0,-113.0,-88.0,111.0
124.0,126.0,128.0,127.0,126.0,128.0,128.0,124.0,-1.0,99.0,-74.0,127.0,127.0,127.0,-113.0,-88.0,111.0
124.0,126.0,127.0,127.0,126.0,128.0,128.0,124.0,-1.0,99.0,-74.0,127.0,127.0,127.0,-113.0,-88.0,111.0
124.0,126.0,128.0,127.0,126.0,128.0,128.0,124.0,-1.0,99.0,-74.0,127.0,127.0,127.0,-113.0,-88.0,111.0
124.0,126.0,128.0,127.0,126.0,127.0,128.0,125.0,-1.0,99.0,-74.0,127.0,127.0,127.0,-113.0,-88.0,111.0
124.0,126.0,128.0,127.0,126.0,127.0,129.0,125.0,-1.0,99.0,-74.0,127.0,127.0,127.0,-113.0,-88.0,111.0
124.0,126.0,128.0,127.0,126.0,127.0,129.0,125.0,-1.0,99.0,-74.0,127.0,127.0,127.0,-113.0,-88.0,111.0
124.0,126.0,127.0,127.0,126.0,128.0,128.0,124.0,-1.0,99.0,-74.0,127.0,127.0,127.0,-113.0,-88.0,111.0
124.0,126.0,127.0,127.0,126.0,128.0,128.0,124.0,-1.0,99.0,-74.0,127.0,127.0,127.0,-113.0,-88.0,111.0
124.0,125.0,128.0,127.0,126.0,129.0,129.0,128.0,-1.0,99.0,-74.0,127.0,127.0,127.0,-113.0,-88.0,111.0
124.0,125.0,128.0,127.0,127.0,129.0,130.0,128.0,-1.0,99.0,-74.0,127.0,127.0,127.0,-113.0,-88.0,111.0
124.0,125.0,128.0,127.0,126.0,129.0,130.0,128.0,-1.0,99.0,-74.0,127.0,127.0,127.0,-113.0,-88.0,111.0
124.0,125.0,128.0,127.0,127.0,129.0,130.0,128.0,-1.0,99.0,-74.0,127.0,127.0,127.0,-113.0,-88.0,111.0
124.0,125.0,128.0,127.0,127.0,129.0,130.0,128.0,-1.0,99.0,-74.0,127.0,127.0,127.0,-113.0,-88.0,111.0
124.0,125.0,128.0,127.0,126.0,129.0,130.0,128.0,-1.0,99.0,-74.0,127.0,127.0,127.0,-113.0,-88.0,111.0
124.0,125.0,128.0,127.0,127.0,128.0,130.0,128.0,-1.0,99.0,-74.0,127.0,127.0,127.0,-113.0,-88.0,111.0
124.0,125.0,128.0,127.0,126.0,129.0,129.0,128.0,-1.0,99.0,-74.0,127.0,127.0,127.0,-113.0,-88.0,111.0
124.0,125.0,128.0,127.0,126.0,129.0,129.0,128.0,-1.0,99.0,-74.0,127.0,127.0,127.0,-113.0,-88.0,111.0
124.0,125.0,128.0,127.0,126.0,129.0,129.0,128.0,-1.0,99.0,-74.0,127.0,127.0,127.0,-113.0,-88.0,111.0
123.0,124.0,127.0,127.0,127.0,128.0,129.0,125.0,-1.0,99.0,-74.0,127.0,127.0,127.0,-113.0,-88.0,111.0
124.0,124.0,127.0,127.0,127.0,128.0,129.0,125.0,-1.0,99.0,-74.0,127.0,127.0,127.0,-113.0,-88.0,111.0
124.0,124.0,127.0,127.0,127.0,128.0,129.0,125.0,-1.0,99.0,-74.0,127.0,127.0,127.0,-113.0,-88.0,111.0
124.0,124.0,127.0,127.0,127.0,128.0,129.0,124.0,-1.0,99.0,-74.0,127.0,127.0,127.0,-113.0,-88.0,111.0
124.0,123.0,127.0,127.0,127.0,128.0,129.0,124.0,-1.0,99.0,-74.0,127.0,127.0,127.0,-113.0,-88.0,111.0
124.0,124.0,127.0,127.0,127.0,128.0,129.0,124.0,-1.0,99.0,-74.0,127.0,127.0,127.0,-113.0,-88.0,111.0
124.0,124.0,127.0,127.0,127.0,128.0,129.0,125.0,-1.0,99.0,-74.0,127.0,127.0,127.0,-113.0,-88.0,111.0
124.0,124.0,127.0,127.0,127.0,128.0,128.0,125.0,-1.0,99.0,-74.0,127.0,127.0,127.0,-113.0,-88.0,111.0
123.0,124.0,127.0,127.0,127.0,128.0,128.0,125.0,-1.0,99.0,-74.0,127.0,127.0,127.0,-113.0,-88.0,111.0
124.0,124.0,127.0,127.0,127.0,128.0,129.0,125.0,-1.0,99.0,-74.0,127.0,127.0,127.0,-113.0,-88.0,111.0
124.0,123.0,128.0,127.0,127.0,132.0,124.0,122.0,-1.0,99.0,-75.0,127.0,127.0,127.0,-113.0,-88.0,111.0
124.0,123.0,128.0,127.0,127.0,132.0,124.0,122.0,-1.0,99.0,-75.0,127.0,127.0,127.0,-113.0,-88.0,111.0
124.0,123.0,128.0,127.0,127.0,131.0,124.0,122.0,-1.0,99.0,-75.0,127.0,127.0,127.0,-113.0,-88.0,111.0
124.0,123.0,127.0,127.0,127.0,131.0,124.0,122.0,-1.0,99.0,-75.0,127.0,127.0,127.0,-113.0,-88.0,111.0
124.0,123.0,127.0,127.0,127.0,131.0,124.0,122.0,-1.0,99.0,-75.0,127.0,127.0,127.0,-113.0,-88.0,111.0
124.0,123.0,127.0,127.0,127.0,133.0,124.0,123.0,-1.0,99.0,-75.0,127.0,127.0,127.0,-113.0,-88.0,111.0
124.0,123.0,127.0,127.0,127.0,133.0,124.0,123.0,-1.0,99.0,-75.0,127.0,127.0,127.0,-113.0,-88.0,111.0
124.0,123.0,127.0,127.0,127.0,133.0,124.0,123.0,-1.0,99.0,-75.0,127.0,127.0,127.0,-113.0,-88.0,111.0
124.0,123.0,127.0,127.0,127.0,133.0,124.0,123.0,-1.0,99.0,-75.0,127.0,127.0,127.0,-113.0,-88.0,111.0
124.0,123.0,127.0,127.0,127.0,132.0,124.0,122.0,-1.0,99.0,-75.0,127.0,127.0,127.0,-113.0,-88.0,111.0
125.0,122.0,128.0,126.0,127.0,132.0,124.0,122.0,-1.0,98.0,-75.0,127.0,127.0,127.0,-113.0,-88.0,111.0
125.0,122.0,128.0,126.0,127.0,131.0,124.0,122.0,-1.0,98.0,-75.0,127.0,127.0,127.0,-113.0,-88.0,111.0
125.0,122.0,128.0,126.0,127.0,131.0,124.0,122.0,-1.0,98.0,-75.0,127.0,127.0,127.0,-113.0,-88.0,111.0
125.0,122.0,127.0,126.0,127.0,131.0,122.0,122.0,-1.0,98.0,-75.0,127.0,127.0,127.0,-113.0,-88.0,111.0
125.0,122.0,127.0,126.0,127.0,131.0,122.0,122.0,-1.0,98.0,-75.0,127.0,127.0,127.0,-113.0,-88.0,111.0
125.0,122.0,127.0,126.0,127.0,131.0,123.0,122.0,-1.0,98.0,-75.0,127.0,127.0,127.0,-113.0,-88.0,111.0
125.0,122.0,127.0,126.0,127.0,132.0,123.0,122.0,-1.0,98.0,-75.0,127.0,127.0,127.0,-113.0,-88.0,111.0
125.0,123.0,128.0,126.0,127.0,132.0,123.0,122.0,-1.0,98.0,-75.0,127.0,127.0,127.0,-113.0,-88.0,111.0
125.0,122.0,128.0,126.0,127.0,132.0,123.0,122.0,-1.0,98.0,-75.0,127.0,127.0,127.0,-113.0,-88.0,111.0
125.0,122.0,128.0,126.0,127.0,132.0,123.0,122.0,-1.0,98.0,-75.0,127.0,127.0,127.0,-113.0,-88.0,111.0
125.0,123.0,127.0,126.0,127.0,132.0,127.0,124.0,-1.0,98.0,-74.0,-128.0,127.0,127.0,-113.0,-88.0,111.0
125.0,123.0,127.0,126.0,127.0,132.0,128.0,124.0,-1.0,98.0,-74.0,-128.0,127.0,127.0,-113.0,-88.0,111.0
125.0,123.0,127.0,126.0,127.0,132.0,126.0,124.0,-1.0,98.0,-74.0,-128.0,127.0,127.0,-113.0,-88.0,111.0
125.0,123.0,127.0,126.0,127.0,132.0,126.0,124.0,-1.0,98.0,-74.0,-128.0,127.0,127.0,-113.0,-88.0,111.0
125.0,123.0,127.0,126.0,127.0,132.0,126.0,124.0,-1.0,98.0,-74.0,-128.0,127.0,127.0,-113.0,-88.0,111.0
125.0,123.0,127.0,126.0,127.0,132.0,126.0,124.0,-1.0,98.0,-74.0,-128.0,127.0,127.0,-113.0,-88.0,111.0
125.0,123.0,127.0,126.0,127.0,132.0,127.0,124.0,-1.0,98.0,-74.0,-128.0,127.0,127.0,-113.0,-88.0,111.0
125.0,123.0,127.0,126.0,127.0,132.0,127.0,124.0,-1.0,98.0,-74.0,-128.0,127.0,127.0,-113.0,-88.0,111.0
125.0,123.0,127.0,126.0,127.0,132.0,127.0,124.0,-1.0,98.0,-74.0,-128.0,127.0,127.0,-113.0,-88.0,111.0
125.0,123.0,127.0,126.0,127.0,132.0,127.0,124.0,-1.0,98.0,-74.0,-128.0,127.0,127.0,-113.0,-88.0,111.0
125.0,124.0,127.0,125.0,127.0,128.0,125.0,124.0,-1.0,98.0,-73.0,-128.0,127.0,127.0,-113.0,-88.0,111.0
125.0,124.0,127.0,126.0,127.0,129.0,125.0,125.0,-1.0,98.0,-73.0,-128.0,127.0,127.0,-113.0,-88.0,111.0
125.0,124.0,127.0,126.0,127.0,129.0,125.0,124.0,-1.0,98.0,-73.0,-128.0,127.0,127.0,-113.0,-88.0,111.0
125.0,124.0,127.0,126.0,127.0,128.0,125.0,124.0,-1.0,98.0,-73.0,-128.0,127.0,127.0,-113.0,-88.0,111.0
125.0,124.0,127.0,126.0,127.0,128.0,125.0,124.0,-1.0,98.0,-73.0,-128.0,127.0,127.0,-113.0,-88.0,111.0
125.0,124.0,127.0,126.0,127.0,128.0,125.0,124.0,-1.0,98.0,-73.0,-128.0,127.0,127.0,-113.0,-88.0,111.0
125.0,124.0,127.0,126.0,127.0,128.0,125.0,124.0,-1.0,98.0,-73.0,-128.0,127.0,127.0,-113.0,-88.0,111.0
125.0,124.0,127.0,126.0,127.0,128.0,125.0,124.0,-1.0,98.0,-73.0,-128.0,127.0,127.0,-113.0,-88.0,111.0
125.0,124.0,127.0,126.0,127.0,128.0,125.0,124.0,-1.0,98.0,-73.0,-128.0,127.0,127.0,-113.0,-88.0,111.0
125.0,124.0,127.0,126.0,127.0,128.0,125.0,124.0,-1.0,98.0,-73.0,-128.0,127.0,127.0,-113.0,-88.0,111.0
125.0,125.0,127.0,126.0,126.0,130.0,119.0,125.0,-1.0,98.0,-72.0,-128.0,127.0,127.0,-113.0,-88.0,111.0
125.0,125.0,127.0,126.0,127.0,130.0,119.0,125.0,-1.0,98.0,-72.0,-128.0,127.0,127.0,-113.0,-88.0,111.0
125.0,125.0,127.0,126.0,126.0,131.0,119.0,125.0,-1.0,98.0,-72.0,-128.0,127.0,127.0,-113.0,-88.0,111.0
125.0,125.0,127.0,126.0,126.0,131.0,119.0,125.0,-1.0,98.0,-72.0,-128.0,127.0,127.0,-113.0,-88.0,111.0
125.0,125.0,127.0,126.0,126.0,131.0,119.0,125.0,-1.0,98.0,-72.0,-128.0,127.0,127.0,-113.0,-88.0,111.0
125.0,125.0,127.0,126.0,126.0,131.0,119.0,125.0,-1.0,98.0,-72.0,-128.0,127.0,127.0,-113.0,-88.0,111.0
125.0,125.0,127.0,126.0,126.0,132.0,119.0,125.0,-1.0,98.0,-72.0,-128.0,127.0,127.0,-113.0,-88.0,111.0
125.0,125.0,127.0,126.0,126.0,132.0,119.0,125.0,-1.0,98.0,-72.0,-128.0,127.0,127.0,-113.0,-88.0,111.0
125.0,125.0,127.0,126.0,126.0,132.0,119.0,125.0,-1.0,98.0,-72.0,-128.0,127.0,127.0,-113.0,-88.0,111.0
125.0,125.0,127.0,126.0,126.0,132.0,119.0,124.0,-1.0,98.0,-72.0,-128.0,127.0,127.0,-113.0,-88.0,111.0
125.0,125.0,127.0,126.0,127.0,133.0,121.0,127.0,-1.0,99.0,-71.0,127.0,127.0,127.0,-113.0,-88.0,111.0
125.0,126.0,126.0,126.0,127.0,133.0,121.0,127.0,-1.0,99.0,-71.0,127.0,127.0,127.0,-113.0,-88.0,111.0
125.0,125.0,126.0,126.0,127.0,133.0,121.0,127.0,-1.0,99.0,-71.0,127.0,127.0,127.0,-113.0,-88.0,111.0
125.0,125.0,126.0,126.0,127.0,132.0,121.0,127.0,-1.0,99.0,-71.0,127.0,127.0,127.0,-113.0,-88.0,111.0
125.0,125.0,126.0,126.0,127.0,132.0,121.0,127.0,-1.0,99.0,-71.0,127.0,127.0,127.0,-113.0,-88.0,111.0
125.0,125.0,126.0,126.0,127.0,131.0,121.0,127.0,-1.0,99.0,-71.0,127.0,127.0,127.0,-113.0,-88.0,111.0
125.0,125.0,126.0,126.0,127.0,130.0,121.0,127.0,-1.0,99.0,-71.0,127.0,127.0,127.0,-113.0,-88.0,111.0
125.0,125.0,126.0,126.0,127.0,130.0,121.0,127.0,-1.0,99.0,-71.0,127.0,127.0,127.0,-113.0,-88.0,111.0
125.0,125.0,126.0,125.0,127.0,129.0,121.0,127.0,-1.0,99.0,-71.0,127.0,127.0,127.0,-113.0,-88.0,111.0
125.0,125.0,126.0,126.0,127.0,133.0,121.0,127.0,-1.0,99.0,-71.0,127.0,127.0,127.0,-113.0,-88.0,111.0
124.0,125.0,126.0,125.0,127.0,129.0,119.0,129.0,-1.0,100.0,-70.0,127.0,127.0,127.0,-113.0,-88.0,111.0
124.0,125.0,125.0,125.0,127.0,130.0,119.0,129.0,-1.0,100.0,-70.0,127.0,127.0,127.0,-113.0,-88.0,111.0
124.0,125.0,125.0,125.0,127.0,130.0,119.0,129.0,-1.0,100.0,-70.0,127.0,127.0,127.0,-113.0,-88.0,111.0
124.0,125.0,126.0,125.0,127.0,130.0,119.0,129.0,-1.0,100.0,-70.0,127.0,127.0,127.0,-113.0,-88.0,111.0
124.0,125.0,126.0,125.0,127.0,130.0,119.0,129.0,-1.0,100.0,-70.0,127.0,127.0,127.0,-113.0,-88.0,111.0
124.0,125.0,126.0,125.0,127.0,130.0,120.0,129.0,-1.0,100.0,-70.0,127.0,127.0,127.0,-113.0,-88.0,111.0
124.0,125.0,126.0,125.0,127.0,130.0,120.0,129.0,-1.0,100.0,-70.0,127.0,127.0,127.0,-113.0,-88.0,111.0
125.0,125.0,125.0,125.0,127.0,130.0,120.0,129.0,-1.0,100.0,-70.0,127.0,127.0,127.0,-113.0,-88.0,111.0
124.0,125.0,126.0,125.0,127.0,129.0,119.0,129.0,-1.0,100.0,-70.0,127.0,127.0,127.0,-113.0,-88.0,111.0
124.0,125.0,126.0,125.0,127.0,129.0,119.0,129.0,-1.0,100.0,-70.0,127.0,127.0,127.0,-113.0,-88.0,111.0
124.0,125.0,127.0,126.0,127.0,129.0,127.0,129.0,-1.0,100.0,-70.0,127.0,127.0,127.0,-113.0,-88.0,111.0
124.0,126.0,127.0,126.0,127.0,129.0,128.0,129.0,-1.0,100.0,-70.0,127.0,127.0,127.0,-113.0,-88.0,111.0
124.0,125.0,127.0,126.0,127.0,128.0,128.0,129.0,-1.0,100.0,-70.0,127.0,127.0,127.0,-113.0,-88.0,111.0
124.0,125.0,127.0,126.0,127.0,128.0,128.0,129.0,-1.0,100.0,-70.0,127.0,127.0,127.0,-113.0,-88.0,111.0
124.0,125.0,127.0,126.0,127.0,128.0,128.0,129.0,-1.0,100.0,-70.0,127.0,127.0,127.0,-113.0,-88.0,111.0
124.0,125.0,127.0,126.0,127.0,127.0,128.0,128.0,-1.0,100.0,-70.0,127.0,127.0,127.0,-113.0,-88.0,111.0
124.0,125.0,127.0,126.0,127.0,127.0,128.0,128.0,-1.0,100.0,-70.0,127.0,127.0,127.0,-113.0,-88.0,111.0
125.0,126.0,126.0,126.0,128.0,131.0,127.0,129.0,-1.0,100.0,-70.0,127.0,127.0,127.0,-113.0,-88.0,111.0
125.0,126.0,126.0,126.0,128.0,130.0,127.0,129.0,-1.0,100.0,-70.0,127.0,127.0,127.0,-113.0,-88.0,111.0
124.0,126.0,127.0,126.0,127.0,130.0,127.0,129.0,-1.0,100.0,-70.0,127.0,127.0,127.0,-113.0,-88.0,111.0
124.0,125.0,127.0,126.0,127.0,130.0,130.0,127.0,-1.0,101.0,-69.0,127.0,127.0,127.0,-113.0,-88.0,111.0
124.0,125.0,127.0,126.0,127.0,130.0,130.0,127.0,-1.0,101.0,-69.0,127.0,127.0,127.0,-113.0,-88.0,111.0
124.0,125.0,127.0,126.0,127.0,130.0,130.0,127.0,-1.0,101.0,-69.0,127.0,127.0,127.0,-113.0,-88.0,111.0
124.0,125.0,127.0,126.0,127.0,130.0,130.0,127.0,-1.0,101.0,-69.0,127.0,127.0,127.0,-113.0,-88.0,111.0
124.0,125.0,127.0,126.0,127.0,130.0,130.0,127.0,-1.0,101.0,-69.0,127.0,127.0,127.0,-113.0,-88.0,111.0
124.0,125.0,127.0,126.0,127.0,130.0,130.0,127.0,-1.0,101.0,-69.0,127.0,127.0,127.0,-113.0,-88.0,111.0
124.0,125.0,126.0,126.0,127.0,129.0,130.0,127.0,-1.0,101.0,-69.0,127.0,127.0,127.0,-113.0,-88.0,111.0
124.0,125.0,126.0,126.0,127.0,129.0,130.0,127.0,-1.0,101.0,-69.0,127.0,127.0,127.0,-113.0,-88.0,111.0
124.0,125.0,126.0,126.0,127.0,129.0,130.0,127.0,-1.0,101.0,-69.0,127.0,127.0,127.0,-113.0,-88.0,111.0
124.0,125.0,127.0,126.0,127.0,130.0,130.0,127.0,-1.0,101.0,-69.0,127.0,127.0,127.0,-113.0,-88.0,111.0
124.0,126.0,127.0,126.0,127.0,130.0,128.0,127.0,-1.0,101.0,-69.0,127.0,127.0,127.0,-113.0,-88.0,111.0
124.0,125.0,127.0,126.0,127.0,129.0,128.0,126.0,-1.0,101.0,-69.0,127.0,127.0,127.0,-113.0,-88.0,111.0
124.0,126.0,127.0,126.0,127.0,129.0,128.0,126.0,-1.0,101.0,-69.0,127.0,127.0,127.0,-113.0,-88.0,111.0
124.0,125.0,127.0,126.0,127.0,129.0,128.0,126.0,-1.0,101.0,-69.0,127.0,127.0,127.0,-113.0,-88.0,111.0
124.0,126.0,127.0,126.0,127.0,129.0,128.0,126.0,-1.0,101.0,-69.0,127.0,127.0,127.0,-113.0,-88.0,111.0
124.0,126.0,127.0,126.0,127.0,131.0,129.0,127.0,-1.0,101.0,-69.0,127.0,127.0,127.0,-113.0,-88.0,111.0
124.0,126.0,127.0,126.0,127.0,131.0,129.0,127.0,-1.0,101.0,-69.0,127.0,127.0,127.0,-113.0,-88.0,111.0
124.0,126.0,127.0,126.0,127.0,131.0,129.0,127.0,-1.0,101.0,-69.0,127.0,127.0,127.0,-113.0,-88.0,111.0
124.0,126.0,127.0,126.0,127.0,131.0,129.0,127.0,-1.0,101.0,-69.0,127.0,127.0,127.0,-113.0,-88.0,111.0
124.0,126.0,127.0,126.0,127.0,130.0,129.0,127.0,-1.0,101.0,-69.0,127.0,127.0,127.0,-113.0,-88.0,111.0
124.0,125.0,127.0,125.0,127.0,130.0,128.0,127.0,-1.0,101.0,-70.0,127.0,127.0,127.0,-113.0,-88.0,111.0
124.0,125.0,127.0,125.0,127.0,130.0,128.0,127.0,-1.0,101.0,-70.0,127.0,127.0,127.0,-113.0,-88.0,111.0
124.0,126.0,127.0,125.0,127.0,130.0,128.0,128.0,-1.0,101.0,-70.0,127.0,127.0,127.0,-113.0,-88.0,111.0
124.0,126.0,127.0,125.0,127.0,130.0,128.0,128.0,-1.0,101.0,-70.0,127.0,127.0,127.0,-113.0,-88.0,111.0
124.0,125.0,127.0,125.0,127.0,131.0,128.0,127.0,-1.0,101.0,-70.0,127.0,127.0,127.0,-113.0,-88.0,111.0
124.0,125.0,127.0,126.0,127.0,131.0,128.0,127.0,-1.0,101.0,-70.0,127.0,127.0,127.0,-113.0,-88.0,111.0
124.0,125.0,127.0,125.0,127.0,131.0,128.0,127.0,-1.0,101.0,-70.0,127.0,127.0,127.0,-113.0,-88.0,111.0
124.0,125.0,127.0,125.0,127.0,131.0,128.0,127.0,-1.0,101.0,-70.0,127.0,127.0,127.0,-113.0,-88.0,111.0
124.0,125.0,127.0,125.0,127.0,130.0,128.0,127.0,-1.0,101.0,-70.0,127.0,127.0,127.0,-113.0,-88.0,111.0
124.0,126.0,127.0,125.0,127.0,130.0,128.0,127.0,-1.0,101.0,-70.0,127.0,127.0,127.0,-113.0,-88.0,111.0
125.0,128.0,127.0,126.0,127.0,134.0,129.0,127.0,-1.0,102.0,-70.0,127.0,127.0,127.0,-113.0,-88.0,111.0
125.0,128.0,127.0,126.0,127.0,134.0,129.0,127.0,-1.0,102.0,-70.0,127.0,127.0,127.0,-113.0,-88.0,111.0
125.0,128.0,127.0,126.0,127.0,134.0,129.0,127.0,-1.0,102.0,-70.0,127.0,127.0,127.0,-113.0,-88.0,111.0
125.0,128.0,127.0,126.0,127.0,133.0,129.0,128.0,-1.0,102.0,-70.0,127.0,127.0,127.0,-113.0,-88.0,111.0
125.0,128.0,127.0,126.0,127.0,133.0,129.0,128.0,-1.0,102.0,-70.0,127.0,127.0,127.0,-113.0,-88.0,111.0
125.0,128.0,127.0,126.0,127.0,134.0,129.0,128.0,-1.0,102.0,-70.0,127.0,127.0,127.0,-113.0,-88.0,111.0
125.0,128.0,127.0,126.0,127.0,134.0,129.0,128.0,-1.0,102.0,-70.0,127.0,127.0,127.0,-113.0,-88.0,111.0
125.0,128.0,127.0,126.0,127.0,134.0,129.0,128.0,-1.0,102.0,-70.0,127.0,127.0,127.0,-113.0,-88.0,111.0
125.0,128.0,127.0,126.0,127.0,134.0,129.0,128.0,-1.0,102.0,-70.0,127.0,127.0,127.0,-113.0,-88.0,111.0
125.0,128.0,127.0,126.0,127.0,134.0,129.0,127.0,-1.0,102.0,-70.0,127.0,127.0,127.0,-113.0,-88.0,111.0
126.0,128.0,128.0,126.0,127.0,131.0,127.0,128.0,-1.0,102.0,-70.0,127.0,127.0,127.0,-113.0,-88.0,111.0
126.0,128.0,128.0,126.0,127.0,131.0,127.0,128.0,-1.0,102.0,-70.0,127.0,127.0,127.0,-113.0,-88.0,111.0
125.0,128.0,128.0,126.0,127.0,132.0,127.0,128.0,-1.0,102.0,-70.0,127.0,127.0,127.0,-113.0,-88.0,111.0
125.0,128.0,128.0,126.0,127.0,132.0,127.0,128.0,-1.0,102.0,-70.0,127.0,127.0,127.0,-113.0,-88.0,111.0
125.0,128.0,128.0,126.0,127.0,132.0,127.0,128.0,-1.0,102.0,-70.0,127.0,127.0,127.0,-113.0,-88.0,111.0
125.0,128.0,128.0,126.0,127.0,132.0,127.0,128.0,-1.0,102.0,-70.0,127.0,127.0,127.0,-113.0,-88.0,111.0
125.0,128.0,128.0,126.0,127.0,131.0,127.0,128.0,-1.0,102.0,-70.0,127.0,127.0,127.0,-113.0,-88.0,111.0
126.0,128.0,128.0,126.0,127.0,131.0,127.0,128.0,-1.0,102.0,-70.0,127.0,127.0,127.0,-113.0,-88.0,111.0
126.0,128.0,128.0,126.0,127.0,131.0,127.0,128.0,-1.0,102.0,-70.0,127.0,127.0,127.0,-113.0,-88.0,111.0
126.0,128.0,128.0,126.0,127.0,131.0,127.0,128.0,-1.0,102.0,-70.0,127.0,127.0,127.0,-113.0,-88.0,111.0
126.0,127.0,129.0,127.0,127.0,133.0,128.0,129.0,-1.0,103.0,-71.0,127.0,127.0,127.0,-113.0,-88.0,111.0
126.0,127.0,129.0,127.0,127.0,134.0,128.0,129.0,-1.0,103.0,-71.0,127.0,127.0,127.0,-113.0,-88.0,111.0
126.0,128.0,128.0,127.0,127.0,134.0,127.0,129.0,-1.0,103.0,-71.0,127.0,127.0,127.0,-113.0,-88.0,111.0
126.0,128.0,128.0,127.0,127.0,134.0,127.0,129.0,-1.0,103.0,-71.0,127.0,127.0,127.0,-113.0,-88.0,111.0
126.0,128.0,128.0,127.0,127.0,134.0,127.0,129.0,-1.0,103.0,-71.0,127.0,127.0,127.0,-113.0,-88.0,111.0
126.0,128.0,128.0,127.0,127.0,134.0,128.0,129.0,-1.0,103.0,-71.0,127.0,127.0,127.0,-113.0,-88.0,111.0
126.0,128.0,128.0,127.0,127.0,134.0,128.0,129.0,-1.0,103.0,-71.0,127.0,127.0,127.0,-113.0,-88.0,111.0
126.0,127.0,128.0,127.0,127.0,134.0,128.0,129.0,-1.0,103.0,-71.0,127.0,127.0,127.0,-113.0,-88.0,111.0
126.0,128.0,128.0,127.0,127.0,134.0,128.0,129.0,-1.0,103.0,-71.0,127.0,127.0,127.0,-113.0,-88.0,111.0
126.0,128.0,128.0,127.0,127.0,134.0,128.0,129.0,-1.0,103.0,-71.0,127.0,127.0,127.0,-113.0,-88.0,111.0
125.0,128.0,128.0,127.0,127.0,133.0,131.0,128.0,-1.0,103.0,-71.0,127.0,127.0,127.0,-113.0,-88.0,111.0
125.0,128.0,128.0,127.0,127.0,133.0,131.0,128.0,-1.0,103.0,-71.0,127.0,127.0,127.0,-113.0,-88.0,111.0
126.0,128.0,128.0,127.0,127.0,133.0,131.0,128.0,-1.0,103.0,-71.0,127.0,127.0,127.0,-113.0,-88.0,111.0
126.0,128.0,128.0,127.0,127.0,133.0,131.0,128.0,-1.0,103.0,-71.0,127.0,127.0,127.0,-113.0,-88.0,111.0
126.0,128.0,128.0,127.0,127.0,133.0,131.0,128.0,-1.0,103.0,-71.0,127.0,127.0,127.0,-113.0,-88.0,111.0
125.0,128.0,128.0,127.0,127.0,133.0,131.0,128.0,-1.0,103.0,-71.0,127.0,127.0,127.0,-113.0,-88.0,111.0
126.0,128.0,128.0,127.0,127.0,133.0,131.0,128.0,-1.0,103.0,-71.0,127.0,127.0,127.0,-113.0,-88.0,111.0
126.0,128.0,128.0,127.0,127.0,133.0,131.0,128.0,-1.0,103.0,-71.0,127.0,127.0,127.0,-113.0,-88.0,111.0
126.0,128.0,128.0,127.0,127.0,133.0,131.0,128.0,-1.0,103.0,-71.0,127.0,127.0,127.0,-113.0,-88.0,111.0
126.0,128.0,128.0,127.0,127.0,133.0,131.0,128.0,-1.0,103.0,-71.0,127.0,127.0,127.0,-113.0,-88.0,111.0
126.0,129.0,128.0,127.0,127.0,134.0,134.0,131.0,-1.0,104.0,-72.0,127.0,127.0,127.0,-113.0,-88.0,111.0
126.0,129.0,128.0,127.0,127.0,134.0,134.0,131.0,-1.0,104.0,-72.0,127.0,127.0,127.0,-113.0,-88.0,111.0
126.0,129.0,128.0,127.0,127.0,134.0,134.0,131.0,-1.0,104.0,-72.0,127.0,127.0,127.0,-113.0,-88.0,111.0
126.0,128.0,128.0,127.0,127.0,134.0,134.0,131.0,-1.0,104.0,-72.0,127.0,127.0,127.0,-113.0,-88.0,111.0
126.0,129.0,128.0,127.0,127.0,133.0,134.0,131.0,-1.0,104.0,-72.0,127.0,127.0,127.0,-113.0,-88.0,111.0
126.0,129.0,128.0,127.0,127.0,133.0,134.0,131.0,-1.0,104.0,-72.0,127.0,127.0,127.0,-113.0,-88.0,111.0
126.0,128.0,128.0,127.0,127.0,133.0,134.0,131.0,-1.0,104.0,-72.0,127.0,127.0,127.0,-113.0,-88.0,111.0
126.0,128.0,128.0,127.0,127.0,133.0,135.0,131.0,-1.0,104.0,-72.0,127.0,127.0,127.0,-113.0,-88.0,111.0
126.0,128.0,128.0,127.0,128.0,133.0,135.0,131.0,-1.0,104.0,-72.0,127.0,127.0,127.0,-113.0,-88.0,111.0
126.0,128.0,128.0,127.0,128.0,134.0,134.0,130.0,-1.0,104.0,-72.0,127.0,127.0,127.0,-113.0,-88.0,111.0
126.0,128.0,127.0,128.0,127.0,132.0,133.0,131.0,-1.0,103.0,-72.0,127.0,127.0,127.0,-113.0,-88.0,111.0
126.0,128.0,127.0,127.0,127.0,132.0,133.0,131.0,-1.0,103.0,-72.0,127.0,127.0,127.0,-113.0,-88.0,111.0
126.0,128.0,127.0,127.0,127.0,132.0,133.0,131.0,-1.0,103.0,-72.0,127.0,127.0,127.0,-113.0,-88.0,111.0
126.0,128.0,127.0,127.0,127.0,132.0,133.0,131.0,-1.0,103.0,-72.0,127.0,127.0,127.0,-113.0,-88.0,111.0
126.0,128.0,127.0,127.0,127.0,132.0,133.0,131.0,-1.0,103.0,-72.0,127.0,127.0,127.0,-113.0,-88.0,111.0
126.0,128.0,127.0,127.0,127.0,132.0,133.0,131.0,-1.0,103.0,-72.0,127.0,127.0,127.0,-113.0,-88.0,111.0
126.0,128.0,127.0,127.0,127.0,132.0,133.0,131.0,-1.0,103.0,-72.0,127.0,127.0,127.0,-113.0,-88.0,111.0
126.0,128.0,127.0,127.0,127.0,132.0,133.0,131.0,-1.0,103.0,-72.0,127.0,127.0,127.0,-113.0,-88.0,111.0
126.0,127.0,127.0,127.0,127.0,132.0,134.0,131.0,-1.0,103.0,-72.0,127.0,127.0,127.0,-113.0,-88.0,111.0
126.0,127.0,127.0,127.0,127.0,132.0,133.0,131.0,-1.0,103.0,-72.0,127.0,127.0,127.0,-113.0,-88.0,111.0
127.0,128.0,127.0,128.0,127.0,134.0,129.0,131.0,-1.0,103.0,-72.0,127.0,127.0,127.0,-113.0,-88.0,111.0
127.0,128.0,127.0,127.0,127.0,134.0,129.0,131.0,-1.0,103.0,-72.0,127.0,127.0,127.0,-113.0,-88.0,111.0
127.0,128.0,127.0,128.0,126.0,134.0,129.0,131.0,-1.0,103.0,-72.0,127.0,127.0,127.0,-113.0,-88.0,111.0
127.0,128.0,127.0,128.0,126.0,134.0,129.0,131.0,-1.0,103.0,-72.0,127.0,127.0,127.0,-113.0,-88.0,111.0
127.0,128.0,127.0,128.0,126.0,134.0,129.0,131.0,-1.0,103.0,-72.0,127.0,127.0,127.0,-113.0,-88.0,111.0
127.0,128.0,127.0,128.0,127.0,134.0,129.0,131.0,-1.0,103.0,-72.0,127.0,127.0,127.0,-113.0,-88.0,111.0
127.0,128.0,127.0,128.0,126.0,133.0,129.0,131.0,-1.0,103.0,-72.0,127.0,127.0,127.0,-113.0,-88.0,111.0
126.0,128.0,127.0,127.0,127.0,133.0,130.0,131.0,-1.0,103.0,-72.0,127.0,127.0,127.0,-113.0,-88.0,111.0
126.0,128.0,127.0,127.0,127.0,133.0,130.0,131.0,-1.0,103.0,-72.0,127.0,127.0,127.0,-113.0,-88.0,111.0
127.0,128.0,127.0,128.0,127.0,133.0,129.0,131.0,-1.0,103.0,-72.0,127.0,127.0,127.0,-113.0,-88.0,111.0
126.0,129.0,127.0,128.0,126.0,132.0,127.0,130.0,-1.0,103.0,-72.0,127.0,127.0,127.0,-113.0,-88.0,111.0
127.0,129.0,127.0,128.0,126.0,133.0,126.0,130.0,-1.0,103.0,-72.0,127.0,127.0,127.0,-113.0,-88.0,111.0
127.0,129.0,127.0,128.0,126.0,133.0,126.0,130.0,-1.0,103.0,-72.0,127.0,127.0,127.0,-113.0,-88.0,111.0
127.0,129.0,127.0,128.0,126.0,133.0,126.0,130.0,-1.0,103.0,-72.0,127.0,127.0,127.0,-113.0,-88.0,111.0
127.0,129.0,127.0,128.0,126.0,133.0,126.0,130.0,-1.0,103.0,-72.0,127.0,127.0,127.0,-113.0,-88.0,111.0
127.0,129.0,127.0,127.0,126.0,132.0,126.0,130.0,-1.0,103.0,-72.0,127.0,127.0,127.0,-113.0,-88.0,111.0
126.0,129.0,127.0,128.0,127.0,133.0,127.0,130.0,-1.0,103.0,-72.0,127.0,127.0,127.0,-113.0,-88.0,111.0
126.0,129.0,127.0,128.0,127.0,132.0,127.0,130.0,-1.0,103.0,-72.0,127.0,127.0,127.0,-113.0,-88.0,111.0
126.0,129.0,127.0,128.0,127.0,132.0,127.0,130.0,-1.0,103.0,-72.0,127.0,127.0,127.0,-113.0,-88.0,111.0
126.0,129.0,127.0,128.0,127.0,132.0,127.0,130.0,-1.0,103.0,-72.0,127.0,127.0,127.0,-113.0,-88.0,111.0
127.0,130.0,127.0,127.0,126.0,133.0,126.0,130.0,-1.0,103.0,-71.0,127.0,127.0,127.0,-113.0,-88.0,111.0
127.0,130.0,127.0,127.0,126.0,133.0,126.0,130.0,-1.0,103.0,-71.0,127.0,127.0,127.0,-113.0,-88.0,111.0
127.0,129.0,127.0,127.0,126.0,133.0,126.0,130.0,-1.0,103.0,-71.0,127.0,127.0,127.0,-113.0,-88.0,111.0
127.0,129.0,127.0,127.0,126.0,133.0,126.0,130.0,-1.0,103.0,-71.0,127.0,127.0,127.0,-113.0,-88.0,111.0
127.0,129.0,127.0,127.0,126.0,133.0,126.0,130.0,-1.0,103.0,-71.0,127.0,127.0,127.0,-113.0,-88.0,111.0
127.0,129.0,127.0,127.0,127.0,133.0,126.0,130.0,-1.0,103.0,-71.0,127.0,127.0,127.0,-113.0,-88.0,111.0
127.0,129.0,127.0,127.0,127.0,132.0,126.0,130.0,-1.0,103.0,-71.0,127.0,127.0,127.0,-113.0,-88.0,111.0
127.0,129.0,127.0,127.0,127.0,132.0,126.0,130.0,-1.0,103.0,-71.0,127.0,127.0,127.0,-113.0,-88.0,111.0
127.0,129.0,127.0,127.0,127.0,132.0,126.0,130.0,-1.0,103.0,-71.0,127.0,127.0,127.0,-113.0,-88.0,111.0
127.0,129.0,127.0,127.0,127.0,132.0,126.0,130.0,-1.0,103.0,-71.0,127.0,127.0,127.0,-113.0,-88.0,111.0
127.0,129.0,127.0,128.0,127.0,133.0,125.0,130.0,-1.0,103.0,-71.0,127.0,127.0,127.0,-113.0,-88.0,111.0
127.0,129.0,127.0,128.0,127.0,133.0,125.0,130.0,-1.0,103.0,-71.0,127.0,127.0,127.0,-113.0,-88.0,111.0
127.0,129.0,127.0,128.0,127.0,133.0,125.0,130.0,-1.0,103.0,-71.0,127.0,127.0,127.0,-113.0,-88.0,111.0
127.0,129.0,127.0,128.0,127.0,133.0,125.0,130.0,-1.0,103.0,-71.0,127.0,127.0,127.0,-113.0,-88.0,111.0
127.0,129.0,127.0,128.0,127.0,133.0,126.0,130.0,-1.0,103.0,-71.0,127.0,127.0,127.0,-113.0,-88.0,111.0
127.0,129.0,127.0,128.0,127.0,133.0,126.0,130.0,-1.0,103.0,-71.0,127.0,127.0,127.0,-113.0,-88.0,111.0
127.0,129.0,127.0,128.0,127.0,133.0,126.0,130.0,-1.0,103.0,-71.0,127.0,127.0,127.0,-113.0,-88.0,111.0
127.0,129.0,127.0,128.0,127.0,133.0,126.0,129.0,-1.0,103.0,-71.0,127.0,127.0,127.0,-113.0,-88.0,111.0
127.0,129.0,127.0,128.0,127.0,133.0,126.0,129.0,-1.0,103.0,-71.0,127.0,127.0,127.0,-113.0,-88.0,111.0
127.0,129.0,127.0,128.0,127.0,133.0,126.0,130.0,-1.0,103.0,-71.0,127.0,127.0,127.0,-113.0,-88.0,111.0
127.0,129.0,127.0,127.0,126.0,130.0,126.0,129.0,-1.0,103.0,-71.0,127.0,127.0,127.0,-113.0,-88.0,111.0
127.0,129.0,127.0,127.0,126.0,131.0,126.0,129.0,-1.0,103.0,-71.0,127.0,127.0,127.0,-113.0,-88.0,111.0
127.0,129.0,127.0,127.0,126.0,131.0,126.0,129.0,-1.0,103.0,-71.0,127.0,127.0,127.0,-113.0,-88.0,111.0
127.0,129.0,127.0,127.0,126.0,130.0,126.0,129.0,-1.0,103.0,-71.0,127.0,127.0,127.0,-113.0,-88.0,111.0
127.0,129.0,127.0,127.0,126.0,130.0,126.0,129.0,-1.0,103.0,-71.0,127.0,127.0,127.0,-113.0,-88.0,111.0
127.0,129.0,127.0,127.0,126.0,130.0,126.0,129.0,-1.0,103.0,-71.0,127.0,127.0,127.0,-113.0,-88.0,111.0
127.0,129.0,127.0,127.0,126.0,130.0,126.0,129.0,-1.0,103.0,-71.0,127.0,127.0,127.0,-113.0,-88.0,111.0
127.0,129.0,127.0,127.0,126.0,130.0,126.0,129.0,-1.0,103.0,-71.0,127.0,127.0,127.0,-113.0,-88.0,111.0
127.0,129.0,127.0,127.0,126.0,130.0,126.0,129.0,-1.0,103.0,-71.0,127.0,127.0,127.0,-113.0,-88.0,111.0
127.0,129.0,127.0,127.0,126.0,130.0,126.0,129.0,-1.0,103.0,-71.0,127.0,127.0,127.0,-113.0,-88.0,111.0
127.0,129.0,127.0,127.0,126.0,131.0,126.0,129.0,-1.0,104.0,-70.0,127.0,127.0,127.0,-113.0,-88.0,111.0
127.0,129.0,127.0,127.0,126.0,131.0,126.0,129.0,-1.0,104.0,-70.0,127.0,127.0,127.0,-113.0,-88.0,111.0
127.0,129.0,127.0,127.0,126.0,131.0,126.0,129.0,-1.0,104.0,-70.0,127.0,127.0,127.0,-113.0,-88.0,111.0
127.0,129.0,127.0,127.0,126.0,131.0,126.0,129.0,-1.0,104.0,-70.0,127.0,127.0,127.0,-113.0,-88.0,111.0
127.0,129.0,127.0,127.0,126.0,131.0,126.0,129.0,-1.0,104.0,-70.0,127.0,127.0,127.0,-113.0,-88.0,111.0
127.0,129.0,127.0,127.0,126.0,131.0,126.0,130.0,-1.0,104.0,-70.0,127.0,127.0,127.0,-113.0,-88.0,111.0
127.0,129.0,127.0,127.0,126.0,131.0,126.0,129.0,-1.0,104.0,-70.0,127.0,127.0,127.0,-113.0,-88.0,111.0
127.0,129.0,127.0,127.0,126.0,131.0,126.0,129.0,-1.0,104.0,-70.0,127.0,127.0,127.0,-113.0,-88.0,111.0
127.0,129.0,127.0,127.0,126.0,131.0,126.0,129.0,-1.0,104.0,-70.0,127.0,127.0,127.0,-113.0,-88.0,111.0
127.0,129.0,127.0,127.0,126.0,131.0,126.0,129.0,-1.0,104.0,-70.0,127.0,127.0,127.0,-113.0,-88.0,111.0
126.0,129.0,127.0,126.0,126.0,131.0,124.0,128.0,-1.0,104.0,-70.0,127.0,127.0,127.0,-113.0,-88.0,111.0
127.0,129.0,127.0,126.0,126.0,132.0,125.0,129.0,-1.0,104.0,-70.0,127.0,127.0,127.0,-113.0,-88.0,111.0
127.0,129.0,127.0,127.0,126.0,132.0,125.0,129.0,-1.0,104.0,-70.0,127.0,127.0,127.0,-113.0,-88.0,111.0
127.0,129.0,127.0,127.0,126.0,132.0,124.0,129.0,-1.0,104.0,-70.0,127.0,127.0,127.0,-113.0,-88.0,111.0
127.0,129.0,127.0,127.0,126.0,133.0,124.0,129.0,-1.0,104.0,-70.0,127.0,127.0,127.0,-113.0,-88.0,111.0
127.0,129.0,127.0,127.0,126.0,133.0,124.0,129.0,-1.0,104.0,-70.0,127.0,127.0,127.0,-113.0,-88.0,111.0
127.0,129.0,127.0,127.0,126.0,132.0,124.0,129.0,-1.0,104.0,-70.0,127.0,127.0,127.0,-113.0,-88.0,111.0
127.0,129.0,127.0,127.0,126.0,132.0,124.0,128.0,-1.0,104.0,-70.0,127.0,127.0,127.0,-113.0,-88.0,111.0
127.0,129.0,127.0,127.0,126.0,132.0,124.0,128.0,-1.0,104.0,-70.0,127.0,127.0,127.0,-113.0,-88.0,111.0
127.0,129.0,127.0,127.0,126.0,132.0,124.0,128.0,-1.0,104.0,-70.0,127.0,127.0,127.0,-113.0,-88.0,111.0
126.0,129.0,127.0,126.0,126.0,131.0,123.0,129.0,-1.0,104.0,-70.0,127.0,127.0,127.0,-113.0,-88.0,111.0
126.0,129.0,127.0,126.0,126.0,131.0,123.0,129.0,-1.0,104.0,-70.0,127.0,127.0,127.0,-113.0,-88.0,111.0
126.0,129.0,127.0,126.0,126.0,131.0,123.0,129.0,-1.0,104.0,-70.0,127.0,127.0,127.0,-113.0,-88.0,111.0
126.0,129.0,127.0,126.0,126.0,131.0,123.0,129.0,-1.0,104.0,-70.0,127.0,127.0,127.0,-113.0,-88.0,111.0
126.0,129.0,127.0,126.0,126.0,131.0,123.0,129.0,-1.0,104.0,-70.0,127.0,127.0,127.0,-113.0,-88.0,111.0
126.0,129.0,127.0,126.0,126.0,131.0,123.0,129.0,-1.0,104.0,-70.0,127.0,127.0,127.0,-113.0,-88.0,111.0
126.0,129.0,127.0,126.0,126.0,131.0,123.0,129.0,-1.0,104.0,-70.0,127.0,127.0,127.0,-113.0,-88.0,111.0
126.0,129.0,127.0,126.0,126.0,131.0,123.0,129.0,-1.0,104.0,-70.0,127.0,127.0,127.0,-113.0,-88.0,111.0
126.0,129.0,127.0,126.0,126.0,131.0,123.0,129.0,-1.0,104.0,-70.0,127.0,127.0,127.0,-113.0,-88.0,111.0
126.0,129.0,127.0,126.0,126.0,130.0,123.0,129.0,-1.0,104.0,-70.0,127.0,127.0,127.0,-113.0,-88.0,111.0
127.0,128.0,127.0,126.0,126.0,131.0,124.0,129.0,-1.0,104.0,-69.0,127.0,127.0,127.0,-113.0,-88.0,111.0
127.0,128.0,127.0,126.0,126.0,131.0,124.0,129.0,-1.0,104.0,-69.0,127.0,127.0,127.0,-113.0,-88.0,111.0
127.0,129.0,127.0,126.0,126.0,132.0,124.0,129.0,-1.0,104.0,-69.0,127.0,127.0,127.0,-113.0,-88.0,111.0
127.0,129.0,127.0,126.0,126.0,132.0,124.0,129.0,-1.0,104.0,-69.0,127.0,127.0,127.0,-113.0,-88.0,111.0
127.0,129.0,127.0,126.0,126.0,132.0,124.0,129.0,-1.0,104.0,-69.0,127.0,127.0,127.0,-113.0,-88.0,111.0
127.0,129.0,127.0,126.0,126.0,132.0,124.0,129.0,-1.0,104.0,-69.0,127.0,127.0,127.0,-113.0,-88.0,111.0
127.0,129.0,127.0,126.0,126.0,133.0,124.0,129.0,-1.0,104.0,-69.0,127.0,127.0,127.0,-113.0,-88.0,111.0
127.0,129.0,127.0,126.0,126.0,132.0,124.0,129.0,-1.0,104.0,-69.0,127.0,127.0,127.0,-113.0,-88.0,111.0
127.0,129.0,127.0,126.0,126.0,132.0,124.0,129.0,-1.0,104.0,-69.0,127.0,127.0,127.0,-113.0,-88.0,111.0
127.0,128.0,127.0,126.0,126.0,131.0,124.0,129.0,-1.0,104.0,-69.0,127.0,127.0,127.0,-113.0,-88.0,111.0
127.0,129.0,127.0,126.0,127.0,130.0,126.0,129.0,-1.0,104.0,-69.0,127.0,127.0,127.0,-113.0,-88.0,111.0
127.0,129.0,127.0,126.0,126.0,131.0,126.0,129.0,-1.0,104.0,-69.0,127.0,127.0,127.0,-113.0,-88.0,111.0
127.0,129.0,127.0,126.0,126.0,131.0,126.0,129.0,-1.0,104.0,-69.0,127.0,127.0,127.0,-113.0,-88.0,111.0
127.0,129.0,127.0,126.0,126.0,131.0,126.0,129.0,-1.0,104.0,-69.0,127.0,127.0,127.0,-113.0,-88.0,111.0
127.0,129.0,127.0,126.0,127.0,131.0,126.0,129.0,-1.0,104.0,-69.0,127.0,127.0,127.0,-113.0,-88.0,111.0
127.0,129.0,127.0,126.0,126.0,131.0,126.0,129.0,-1.0,104.0,-69.0,127.0,127.0,127.0,-113.0,-88.0,111.0
127.0,129.0,127.0,126.0,127.0,131.0,126.0,129.0,-1.0,104.0,-69.0,127.0,127.0,127.0,-113.0,-88.0,111.0
127.0,129.0,127.0,126.0,126.0,131.0,126.0,129.0,-1.0,104.0,-69.0,127.0,127.0,127.0,-113.0,-88.0,111.0
126.0,129.0,127.0,126.0,127.0,130.0,126.0,129.0,-1.0,104.0,-69.0,127.0,127.0,127.0,-113.0,-88.0,111.0
127.0,129.0,127.0,126.0,127.0,130.0,126.0,129.0,-1.0,104.0,-69.0,127.0,127.0,127.0,-113.0,-88.0,111.0
127.0,128.0,127.0,126.0,126.0,131.0,128.0,129.0,-1.0,104.0,-69.0,127.0,127.0,127.0,-113.0,-88.0,111.0
127.0,129.0,127.0,126.0,126.0,131.0,128.0,129.0,-1.0,104.0,-69.0,127.0,127.0,127.0,-113.0,-88.0,111.0
127.0,129.0,127.0,126.0,126.0,131.0,128.0,129.0,-1.0,104.0,-69.0,127.0,127.0,127.0,-113.0,-88.0,111.0
127.0,128.0,127.0,126.0,126.0,131.0,128.0,129.0,-1.0,104.0,-69.0,127.0,127.0,127.0,-113.0,-88.0,111.0
127.0,128.0,127.0,126.0,126.0,131.0,128.0,129.0,-1.0,104.0,-69.0,127.0,127.0,127.0,-113.0,-88.0,111.0
127.0,129.0,127.0,126.0,126.0,131.0,128.0,129.0,-1.0,104.0,-69.0,127.0,127.0,127.0,-113.0,-88.0,111.0
127.0,128.0,127.0,126.0,126.0,131.0,128.0,129.0,-1.0,104.0,-69.0,127.0,127.0,127.0,-113.0,-88.0,111.0
127.0,128.0,127.0,126.0,126.0,130.0,129.0,129.0,-1.0,104.0,-69.0,127.0,127.0,127.0,-113.0,-88.0,111.0
127.0,128.0,127.0,126.0,126.0,130.0,129.0,129.0,-1.0,104.0,-69.0,127.0,127.0,127.0,-113.0,-88.0,111.0
127.0,128.0,127.0,126.0,126.0,130.0,129.0,129.0,-1.0,104.0,-69.0,127.0,127.0,127.0,-113.0,-88.0,111.0
126.0,128.0,127.0,126.0,126.0,130.0,129.0,129.0,-1.0,104.0,-70.0,127.0,127.0,127.0,-114.0,-88.0,111.0
126.0,128.0,127.0,126.0,126.0,130.0,129.0,129.0,-1.0,104.0,-70.0,127.0,127.0,127.0,-114.0,-88.0,111.0
126.0,128.0,127.0,126.0,126.0,130.0,129.0,128.0,-1.0,104.0,-70.0,127.0,127.0,127.0,-114.0,-88.0,111.0
126.0,128.0,127.0,126.0,126.0,130.0,129.0,128.0,-1.0,104.0,-70.0,127.0,127.0,127.0,-114.0,-88.0,111.0
126.0,128.0,127.0,126.0,126.0,130.0,129.0,128.0,-1.0,104.0,-70.0,127.0,127.0,127.0,-114.0,-88.0,111.0
126.0,128.0,127.0,126.0,126.0,129.0,129.0,128.0,-1.0,104.0,-70.0,127.0,127.0,127.0,-114.0,-88.0,111.0
127.0,129.0,127.0,126.0,126.0,130.0,129.0,129.0,-1.0,104.0,-70.0,127.0,127.0,127.0,-114.0,-88.0,111.0
127.0,129.0,127.0,126.0,126.0,130.0,129.0,129.0,-1.0,104.0,-70.0,127.0,127.0,127.0,-114.0,-88.0,111.0
127.0,129.0,127.0,126.0,126.0,130.0,129.0,129.0,-1.0,104.0,-70.0,127.0,127.0,127.0,-114.0,-88.0,111.0
126.0,129.0,127.0,126.0,126.0,130.0,129.0,129.0,-1.0,104.0,-70.0,127.0,127.0,127.0,-114.0,-88.0,111.0
127.0,128.0,127.0,126.0,126.0,131.0,128.0,129.0,-1.0,104.0,-70.0,127.0,127.0,127.0,-114.0,-88.0,111.0
127.0,128.0,127.0,126.0,126.0,131.0,128.0,129.0,-1.0,104.0,-70.0,127.0,127.0,127.0,-114.0,-88.0,111.0
127.0,128.0,127.0,126.0,126.0,131.0,128.0,129.0,-1.0,104.0,-70.0,127.0,127.0,127.0,-114.0,-88.0,111.0
127.0,128.0,127.0,126.0,126.0,131.0,128.0,129.0,-1.0,104.0,-70.0,127.0,127.0,127.0,-114.0,-88.0,111.0
127.0,128.0,127.0,126.0,126.0,131.0,128.0,129.0,-1.0,104.0,-70.0,127.0,127.0,127.0,-114.0,-88.0,111.0
127.0,128.0,127.0,126.0,126.0,130.0,128.0,129.0,-1.0,104.0,-70.0,127.0,127.0,127.0,-114.0,-88.0,111.0
127.0,128.0,127.0,126.0,126.0,130.0,128.0,129.0,-1.0,104.0,-70.0,127.0,127.0,127.0,-114.0,-88.0,111.0
127.0,128.0,127.0,126.0,126.0,130.0,128.0,129.0,-1.0,104.0,-70.0,127.0,127.0,127.0,-114.0,-88.0,111.0
127.0,128.0,127.0,126.0,126.0,130.0,128.0,129.0,-1.0,104.0,-70.0,127.0,127.0,127.0,-114.0,-88.0,111.0
127.0,128.0,127.0,126.0,126.0,131.0,128.0,129.0,-1.0,104.0,-70.0,127.0,127.0,127.0,-114.0,-88.0,111.0
127.0,128.0,127.0,127.0,126.0,130.0,127.0,129.0,-1.0,104.0,-70.0,127.0,127.0,127.0,-114.0,-88.0,111.0
127.0,128.0,127.0,127.0,126.0,130.0,127.0,129.0,-1.0,104.0,-70.0,127.0,127.0,127.0,-114.0,-88.0,111.0
127.0,128.0,127.0,127.0,126.0,130.0,127.0,129.0,-1.0,104.0,-70.0,127.0,127.0,127.0,-114.0,-88.0,111.0
127.0,128.0,127.0,127.0,126.0,130.0,127.0,129.0,-1.0,104.0,-70.0,127.0,127.0,127.0,-114.0,-88.0,111.0
127.0,128.0,127.0,127.0,126.0,130.0,127.0,130.0,-1.0,104.0,-70.0,127.0,127.0,127.0,-114.0,-88.0,111.0
127.0,128.0,127.0,127.0,126.0,130.0,127.0,130.0,-1.0,104.0,-70.0,127.0,127.0,127.0,-114.0,-88.0,111.0
127.0,128.0,127.0,127.0,126.0,130.0,127.0,130.0,-1.0,104.0,-70.0,127.0,127.0,127.0,-114.0,-88.0,111.0
127.0,128.0,127.0,127.0,126.0,130.0,127.0,130.0,-1.0,104.0,-70.0,127.0,127.0,127.0,-114.0,-88.0,111.0
127.0,128.0,127.0,127.0,126.0,130.0,127.0,129.0,-1.0,104.0,-70.0,127.0,127.0,127.0,-114.0,-88.0,111.0
127.0,128.0,127.0,127.0,126.0,130.0,127.0,129.0,-1.0,104.0,-70.0,127.0,127.0,127.0,-114.0,-88.0,111.0
127.0,128.0,127.0,127.0,126.0,129.0,126.0,129.0,-1.0,104.0,-70.0,127.0,127.0,127.0,-114.0,-88.0,111.0
127.0,128.0,127.0,127.0,126.0,129.0,126.0,129.0,-1.0,104.0,-70.0,127.0,127.0,127.0,-114.0,-88.0,111.0
127.0,128.0,127.0,127.0,126.0,129.0,126.0,129.0,-1.0,104.0,-70.0,127.0,127.0,127.0,-114.0,-88.0,111.0
127.0,128.0,127.0,127.0,126.0,130.0,126.0,129.0,-1.0,104.0,-70.0,127.0,127.0,127.0,-114.0,-88.0,111.0
127.0,128.0,127.0,127.0,126.0,130.0,126.0,130.0,-1.0,104.0,-70.0,127.0,127.0,127.0,-114.0,-88.0,111.0
127.0,128.0,127.0,127.0,126.0,130.0,126.0,129.0,-1.0,104.0,-70.0,127.0,127.0,127.0,-114.0,-88.0,111.0
127.0,128.0,127.0,127.0,126.0,130.0,125.0,130.0,-1.0,104.0,-70.0,127.0,127.0,127.0,-114.0,-88.0,111.0
127.0,128.0,127.0,127.0,126.0,130.0,126.0,129.0,-1.0,104.0,-70.0,127.0,127.0,127.0,-114.0,-88.0,111.0
127.0,128.0,127.0,127.0,126.0,130.0,126.0,129.0,-1.0,104.0,-70.0,127.0,127.0,127.0,-114.0,-88.0,111.0
127.0,128.0,127.0,127.0,126.0,130.0,126.0,129.0,-1.0,104.0,-70.0,127.0,127.0,127.0,-114.0,-88.0,111.0
126.0,128.0,127.0,127.0,127.0,130.0,125.0,129.0,-1.0,104.0,-71.0,127.0,127.0,127.0,-114.0,-88.0,111.0
126.0,128.0,127.0,127.0,127.0,130.0,125.0,129.0,-1.0,104.0,-71.0,127.0,127.0,127.0,-114.0,-88.0,111.0
127.0,128.0,127.0,127.0,126.0,131.0,125.0,129.0,-1.0,104.0,-71.0,127.0,127.0,127.0,-114.0,-88.0,111.0
127.0,128.0,127.0,127.0,126.0,130.0,125.0,129.0,-1.0,104.0,-71.0,127.0,127.0,127.0,-114.0,-88.0,111.0
127.0,128.0,127.0,127.0,126.0,130.0,124.0,129.0,-1.0,104.0,-71.0,127.0,127.0,127.0,-114.0,-88.0,111.0
127.0,128.0,127.0,127.0,126.0,130.0,124.0,129.0,-1.0,104.0,-71.0,127.0,127.0,127.0,-114.0,-88.0,111.0
126.0,128.0,127.0,127.0,126.0,130.0,125.0,129.0,-1.0,104.0,-71.0,127.0,127.0,127.0,-114.0,-88.0,111.0
127.0,128.0,127.0,127.0,126.0,130.0,124.0,129.0,-1.0,104.0,-71.0,127.0,127.0,127.0,-114.0,-88.0,111.0
126.0,128.0,127.0,127.0,126.0,130.0,125.0,129.0,-1.0,104.0,-71.0,127.0,127.0,127.0,-114.0,-88.0,111.0
126.0,128.0,127.0,127.0,126.0,130.0,125.0,129.0,-1.0,104.0,-71.0,127.0,127.0,127.0,-114.0,-88.0,111.0
127.0,128.0,127.0,127.0,126.0,130.0,125.0,129.0,-1.0,104.0,-71.0,127.0,127.0,127.0,-114.0,-88.0,111.0
127.0,128.0,127.0,127.0,126.0,131.0,124.0,129.0,-1.0,104.0,-71.0,127.0,127.0,127.0,-114.0,-88.0,111.0
127.0,128.0,127.0,127.0,126.0,131.0,124.0,129.0,-1.0,104.0,-71.0,127.0,127.0,127.0,-114.0,-88.0,111.0
127.0,128.0,127.0,127.0,126.0,131.0,124.0,129.0,-1.0,104.0,-71.0,127.0,127.0,127.0,-114.0,-88.0,111.0
127.0,128.0,127.0,127.0,126.0,130.0,124.0,129.0,-1.0,104.0,-71.0,127.0,127.0,127.0,-114.0,-88.0,111.0
127.0,128.0,127.0,127.0,126.0,130.0,124.0,129.0,-1.0,104.0,-71.0,127.0,127.0,127.0,-114.0,-88.0,111.0
127.0,128.0,127.0,127.0,126.0,130.0,124.0,129.0,-1.0,104.0,-71.0,127.0,127.0,127.0,-114.0,-88.0,111.0
127.0,128.0,127.0,127.0,126.0,130.0,125.0,129.0,-1.0,104.0,-71.0,127.0,127.0,127.0,-114.0,-88.0,111.0
127.0,128.0,127.0,127.0,126.0,130.0,125.0,129.0,-1.0,104.0,-71.0,127.0,127.0,127.0,-114.0,-88.0,111.0
127.0,128.0,127.0,127.0,126.0,130.0,125.0,129.0,-1.0,104.0,-71.0,127.0,127.0,127.0,-114.0,-88.0,111.0
126.0,128.0,126.0,127.0,126.0,130.0,125.0,129.0,-1.0,104.0,-71.0,127.0,127.0,127.0,-114.0,-88.0,111.0
126.0,128.0,127.0,127.0,126.0,130.0,125.0,129.0,-1.0,104.0,-71.0,127.0,127.0,127.0,-114.0,-88.0,111.0
126.0,128.0,127.0,127.0,126.0,130.0,125.0,129.0,-1.0,104.0,-71.0,127.0,127.0,127.0,-114.0,-88.0,111.0
126.0,128.0,127.0,127.0,126.0,130.0,125.0,129.0,-1.0,104.0,-71.0,127.0,127.0,127.0,-114.0,-88.0,111.0
126.0,128.0,127.0,127.0,126.0,130.0,125.0,129.0,-1.0,104.0,-71.0,127.0,127.0,127.0,-114.0,-88.0,111.0
126.0,128.0,127.0,127.0,126.0,129.0,125.0,129.0,-1.0,104.0,-71.0,127.0,127.0,127.0,-114.0,-88.0,111.0
126.0,128.0,127.0,127.0,126.0,129.0,125.0,129.0,-1.0,104.0,-71.0,127.0,127.0,127.0,-114.0,-88.0,111.0
126.0,128.0,127.0,127.0,126.0,129.0,125.0,129.0,-1.0,104.0,-71.0,127.0,127.0,127.0,-114.0,-88.0,111.0
126.0,128.0,127.0,127.0,126.0,129.0,125.0,129.0,-1.0,104.0,-71.0,127.0,127.0,127.0,-114.0,-88.0,111.0
126.0,128.0,127.0,127.0,126.0,129.0,125.0,129.0,-1.0,104.0,-71.0,127.0,127.0,127.0,-114.0,-88.0,111.0
127.0,128.0,127.0,127.0,126.0,131.0,124.0,130.0,-1.0,104.0,-71.0,127.0,127.0,127.0,-114.0,-88.0,111.0
127.0,128.0,127.0,127.0,126.0,131.0,124.0,129.0,-1.0,104.0,-71.0,127.0,127.0,127.0,-114.0,-88.0,111.0
127.0,128.0,127.0,127.0,126.0,131.0,124.0,130.0,-1.0,104.0,-71.0,127.0,127.0,127.0,-114.0,-88.0,111.0
127.0,128.0,127.0,127.0,126.0,131.0,124.0,130.0,-1.0,104.0,-71.0,127.0,127.0,127.0,-114.0,-88.0,111.0
127.0,128.0,127.0,127.0,127.0,131.0,125.0,130.0,-1.0,104.0,-71.0,127.0,127.0,127.0,-114.0,-88.0,111.0
127.0,128.0,127.0,127.0,127.0,131.0,125.0,130.0,-1.0,104.0,-71.0,127.0,127.0,127.0,-114.0,-88.0,111.0
127.0,128.0,127.0,127.0,127.0,131.0,125.0,130.0,-1.0,104.0,-71.0,127.0,127.0,127.0,-114.0,-88.0,111.0
127.0,128.0,127.0,127.0,127.0,131.0,125.0,129.0,-1.0,104.0,-71.0,127.0,127.0,127.0,-114.0,-88.0,111.0
127.0,128.0,127.0,127.0,127.0,131.0,125.0,129.0,-1.0,104.0,-71.0,127.0,127.0,127.0,-114.0,-88.0,111.0
127.0,128.0,126.0,127.0,126.0,131.0,124.0,129.0,-1.0,104.0,-71.0,127.0,127.0,127.0,-114.0,-88.0,111.0
127.0,128.0,127.0,127.0,127.0,130.0,124.0,130.0,-1.0,104.0,-71.0,127.0,127.0,127.0,-114.0,-88.0,111.0
127.0,128.0,127.0,127.0,127.0,130.0,124.0,130.0,-1.0,104.0,-71.0,127.0,127.0,127.0,-114.0,-88.0,111.0
127.0,128.0,127.0,127.0,127.0,130.0,124.0,130.0,-1.0,104.0,-71.0,127.0,127.0,127.0,-114.0,-88.0,111.0
127.0,128.0,127.0,127.0,127.0,130.0,124.0,130.0,-1.0,104.0,-71.0,127.0,127.0,127.0,-114.0,-88.0,111.0
127.0,128.0,127.0,127.0,127.0,130.0,124.0,130.0,-1.0,104.0,-71.0,127.0,127.0,127.0,-114.0,-88.0,111.0
127.0,128.0,127.0,127.0,127.0,130.0,124.0,130.0,-1.0,104.0,-71.0,127.0,127.0,127.0,-114.0,-88.0,111.0
127.0,128.0,127.0,127.0,127.0,130.0,124.0,130.0,-1.0,104.0,-71.0,127.0,127.0,127.0,-114.0,-88.0,111.0
127.0,128.0,127.0,127.0,127.0,130.0,124.0,130.0,-1.0,104.0,-71.0,127.0,127.0,127.0,-114.0,-88.0,111.0
127.0,128.0,127.0,127.0,126.0,131.0,124.0,130.0,-1.0,104.0,-71.0,127.0,127.0,127.0,-114.0,-88.0,111.0
127.0,128.0,127.0,127.0,126.0,130.0,124.0,130.0,-1.0,104.0,-71.0,127.0,127.0,127.0,-114.0,-88.0,111.0
127.0,128.0,127.0,127.0,126.0,131.0,124.0,129.0,-1.0,104.0,-71.0,127.0,127.0,127.0,-114.0,-88.0,111.0
127.0,128.0,127.0,127.0,126.0,130.0,124.0,129.0,-1.0,104.0,-71.0,127.0,127.0,127.0,-114.0,-88.0,111.0
127.0,128.0,127.0,127.0,126.0,130.0,124.0,129.0,-1.0,104.0,-71.0,127.0,127.0,127.0,-114.0,-88.0,111.0
127.0,128.0,127.0,127.0,126.0,130.0,124.0,129.0,-1.0,104.0,-71.0,127.0,127.0,127.0,-114.0,-88.0,111.0
127.0,128.0,127.0,127.0,126.0,130.0,124.0,129.0,-1.0,104.0,-71.0,127.0,127.0,127.0,-114.0,-88.0,111.0
127.0,128.0,127.0,127.0,126.0,130.0,124.0,129.0,-1.0,104.0,-71.0,127.0,127.0,127.0,-114.0,-88.0,111.0
127.0,128.0,127.0,127.0,126.0,131.0,124.0,129.0,-1.0,104.0,-71.0,127.0,127.0,127.0,-114.0,-88.0,111.0
127.0,128.0,128.0,127.0,127.0,130.0,125.0,129.0,-1.0,104.0,-71.0,127.0,127.0,127.0,-114.0,-88.0,111.0
127.0,127.0,127.0,127.0,127.0,130.0,125.0,129.0,-1.0,104.0,-71.0,127.0,127.0,127.0,-114.0,-88.0,111.0
127.0,128.0,127.0,127.0,126.0,130.0,124.0,129.0,-1.0,104.0,-71.0,127.0,127.0,127.0,-114.0,-88.0,111.0
127.0,128.0,127.0,127.0,126.0,130.0,124.0,129.0,-1.0,104.0,-71.0,127.0,127.0,127.0,-115.0,-88.0,111.0
127.0,128.0,127.0,127.0,126.0,130.0,124.0,129.0,-1.0,104.0,-71.0,127.0,127.0,127.0,-115.0,-88.0,111.0
127.0,128.0,127.0,127.0,126.0,130.0,124.0,129.0,-1.0,104.0,-71.0,127.0,127.0,127.0,-115.0,-88.0,111.0
127.0,128.0,127.0,127.0,126.0,130.0,124.0,129.0,-1.0,104.0,-71.0,127.0,127.0,127.0,-115.0,-88.0,111.0
127.0,128.0,127.0,127.0,126.0,130.0,124.0,129.0,-1.0,104.0,-71.0,127.0,127.0,127.0,-115.0,-88.0,111.0
127.0,128.0,127.0,127.0,126.0,131.0,124.0,129.0,-1.0,104.0,-71.0,127.0,127.0,127.0,-115.0,-88.0,111.0
127.0,128.0,127.0,127.0,127.0,130.0,125.0,128.0,-1.0,104.0,-71.0,127.0,127.0,127.0,-115.0,-88.0,111.0
127.0,128.0,127.0,127.0,127.0,130.0,125.0,128.0,-1.0,104.0,-71.0,127.0,127.0,127.0,-115.0,-88.0,111.0
127.0,128.0,127.0,127.0,126.0,130.0,124.0,129.0,-1.0,104.0,-71.0,127.0,127.0,127.0,-115.0,-88.0,111.0
127.0,128.0,127.0,127.0,126.0,130.0,124.0,129.0,-1.0,104.0,-71.0,127.0,127.0,127.0,-115.0,-88.0,111.0
127.0,128.0,127.0,127.0,127.0,130.0,125.0,129.0,-1.0,104.0,-70.0,127.0,127.0,127.0,-115.0,-88.0,111.0
127.0,128.0,127.0,127.0,127.0,130.0,125.0,129.0,-1.0,104.0,-70.0,127.0,127.0,127.0,-115.0,-88.0,111.0
127.0,128.0,127.0,127.0,127.0,130.0,125.0,129.0,-1.0,104.0,-70.0,127.0,127.0,127.0,-115.0,-88.0,111.0
127.0,128.0,127.0,127.0,127.0,130.0,125.0,129.0,-1.0,104.0,-70.0,127.0,127.0,127.0,-115.0,-88.0,111.0
127.0,128.0,127.0,127.0,126.0,130.0,125.0,129.0,-1.0,104.0,-70.0,127.0,127.0,127.0,-115.0,-88.0,111.0
127.0,128.0,127.0,127.0,127.0,130.0,126.0,129.0,-1.0,104.0,-70.0,127.0,127.0,127.0,-115.0,-88.0,111.0
127.0,128.0,127.0,127.0,127.0,130.0,126.0,129.0,-1.0,104.0,-70.0,127.0,127.0,127.0,-115.0,-88.0,111.0
127.0,128.0,127.0,127.0,127.0,130.0,125.0,129.0,-1.0,104.0,-70.0,127.0,127.0,127.0,-115.0,-88.0,111.0
127.0,128.0,127.0,127.0,127.0,130.0,125.0,129.0,-1.0,104.0,-70.0,127.0,127.0,127.0,-115.0,-88.0,111.0
127.0,128.0,127.0,127.0,127.0,130.0,125.0,129.0,-1.0,104.0,-70.0,127.0,127.0,127.0,-115.0,-88.0,111.0
127.0,128.0,127.0,127.0,126.0,129.0,125.0,129.0,-1.0,104.0,-70.0,127.0,127.0,127.0,-115.0,-88.0,111.0
127.0,128.0,127.0,127.0,126.0,129.0,125.0,129.0,-1.0,104.0,-70.0,127.0,127.0,127.0,-115.0,-88.0,111.0
127.0,128.0,127.0,127.0,126.0,129.0,125.0,129.0,-1.0,104.0,-70.0,127.0,127.0,127.0,-115.0,-88.0,111.0
127.0,128.0,127.0,127.0,126.0,130.0,124.0,129.0,-1.0,104.0,-70.0,127.0,127.0,127.0,-115.0,-88.0,111.0
127.0,128.0,127.0,127.0,126.0,129.0,125.0,129.0,-1.0,104.0,-70.0,127.0,127.0,127.0,-115.0,-88.0,111.0
127.0,128.0,127.0,127.0,126.0,129.0,125.0,129.0,-1.0,104.0,-70.0,127.0,127.0,127.0,-115.0,-88.0,111.0
127.0,128.0,127.0,127.0,126.0,129.0,125.0,129.0,-1.0,104.0,-70.0,127.0,127.0,127.0,-115.0,-88.0,111.0
127.0,128.0,127.0,127.0,126.0,130.0,125.0,129.0,-1.0,104.0,-70.0,127.0,127.0,127.0,-115.0,-88.0,111.0
127.0,128.0,127.0,127.0,126.0,130.0,125.0,129.0,-1.0,104.0,-70.0,127.0,127.0,127.0,-115.0,-88.0,111.0
127.0,128.0,127.0,127.0,126.0,130.0,125.0,129.0,-1.0,104.0,-70.0,127.0,127.0,127.0,-115.0,-88.0,111.0
127.0,128.0,127.0,127.0,127.0,130.0,125.0,128.0,-1.0,104.0,-70.0,127.0,127.0,127.0,-115.0,-88.0,111.0
127.0,128.0,127.0,127.0,127.0,130.0,125.0,128.0,-1.0,104.0,-70.0,127.0,127.0,127.0,-115.0,-88.0,111.0
127.0,128.0,127.0,127.0,127.0,131.0,124.0,128.0,-1.0,104.0,-70.0,127.0,127.0,127.0,-115.0,-88.0,111.0
127.0,128.0,127.0,127.0,127.0,130.0,126.0,128.0,-1.0,104.0,-70.0,127.0,127.0,127.0,-115.0,-88.0,111.0
127.0,128.0,127.0,127.0,127.0,130.0,126.0,128.0,-1.0,104.0,-70.0,127.0,127.0,127.0,-115.0,-88.0,111.0
127.0,128.0,127.0,127.0,127.0,130.0,125.0,128.0,-1.0,104.0,-70.0,127.0,127.0,127.0,-115.0,-88.0,111.0
127.0,128.0,127.0,127.0,127.0,131.0,125.0,128.0,-1.0,104.0,-70.0,127.0,127.0,127.0,-115.0,-88.0,111.0
127.0,128.0,127.0,127.0,127.0,131.0,125.0,128.0,-1.0,104.0,-70.0,127.0,127.0,127.0,-115.0,-88.0,111.0
127.0,128.0,127.0,127.0,127.0,131.0,125.0,128.0,-1.0,104.0,-70.0,127.0,127.0,127.0,-115.0,-88.0,111.0
127.0,128.0,127.0,127.0,127.0,131.0,125.0,128.0,-1.0,104.0,-70.0,127.0,127.0,127.0,-115.0,-88.0,111.0
127.0,128.0,127.0,127.0,127.0,129.0,125.0,128.0,-1.0,104.0,-70.0,127.0,127.0,127.0,-115.0,-88.0,111.0
127.0,128.0,127.0,127.0,127.0,129.0,125.0,128.0,-1.0,104.0,-70.0,127.0,127.0,127.0,-115.0,-88.0,111.0
127.0,128.0,127.0,127.0,127.0,130.0,125.0,128.0,-1.0,104.0,-70.0,127.0,127.0,127.0,-115.0,-88.0,111.0
127.0,128.0,127.0,127.0,127.0,130.0,125.0,128.0,-1.0,104.0,-70.0,127.0,127.0,127.0,-115.0,-88.0,111.0
127.0,128.0,127.0,127.0,127.0,130.0,125.0,128.0,-1.0,104.0,-70.0,127.0,127.0,127.0,-115.0,-88.0,111.0
127.0,128.0,127.0,127.0,127.0,130.0,125.0,128.0,-1.0,104.0,-70.0,127.0,127.0,127.0,-115.0,-88.0,111.0
127.0,128.0,127.0,127.0,127.0,130.0,125.0,128.0,-1.0,104.0,-70.0,127.0,127.0,127.0,-115.0,-88.0,111.0
127.0,128.0,127.0,127.0,127.0,130.0,125.0,128.0,-1.0,104.0,-70.0,127.0,127.0,127.0,-115.0,-88.0,111.0
127.0,128.0,127.0,127.0,127.0,129.0,125.0,128.0,-1.0,104.0,-70.0,127.0,127.0,127.0,-115.0,-88.0,111.0
127.0,128.0,127.0,127.0,127.0,129.0,125.0,128.0,-1.0,104.0,-70.0,127.0,127.0,127.0,-115.0,-88.0,111.0
127.0,128.0,127.0,127.0,127.0,130.0,126.0,128.0,-1.0,104.0,-70.0,127.0,127.0,127.0,-115.0,-88.0,111.0
127.0,128.0,127.0,127.0,127.0,131.0,125.0,128.0,-1.0,104.0,-70.0,127.0,127.0,127.0,-115.0,-88.0,111.0
127.0,128.0,127.0,127.0,127.0,131.0,125.0,128.0,-1.0,104.0,-70.0,127.0,127.0,127.0,-115.0,-88.0,111.0
127.0,128.0,127.0,127.0,127.0,131.0,125.0,128.0,-1.0,104.0,-70.0,127.0,127.0,127.0,-115.0,-88.0,111.0
127.0,128.0,127.0,127.0,127.0,131.0,125.0,128.0,-1.0,104.0,-70.0,127.0,127.0,127.0,-115.0,-88.0,111.0
127.0,128.0,127.0,127.0,127.0,131.0,125.0,128.0,-1.0,104.0,-70.0,127.0,127.0,127.0,-115.0,-88.0,111.0
127.0,128.0,127.0,127.0,127.0,131.0,125.0,128.0,-1.0,104.0,-70.0,127.0,127.0,127.0,-115.0,-88.0,111.0
127.0,128.0,127.0,127.0,127.0,130.0,125.0,128.0,-1.0,104.0,-70.0,127.0,127.0,127.0,-115.0,-88.0,111.0
127.0,128.0,127.0,127.0,127.0,130.0,125.0,128.0,-1.0,104.0,-70.0,127.0,127.0,127.0,-115.0,-88.0,111.0
127.0,128.0,127.0,127.0,127.0,130.0,126.0,128.0,-1.0,104.0,-70.0,127.0,127.0,127.0,-115.0,-88.0,111.0
127.0,128.0,127.0,127.0,126.0,130.0,125.0,128.0,-1.0,104.0,-69.0,127.0,127.0,127.0,-115.0,-88.0,111.0
127.0,128.0,127.0,127.0,127.0,129.0,125.0,128.0,-1.0,104.0,-69.0,127.0,127.0,127.0,-115.0,-88.0,111.0
127.0,128.0,127.0,127.0,127.0,130.0,125.0,128.0,-1.0,104.0,-69.0,127.0,127.0,127.0,-115.0,-88.0,111.0
127.0,128.0,127.0,127.0,127.0,129.0,125.0,128.0,-1.0,104.0,-69.0,127.0,127.0,127.0,-115.0,-88.0,111.0
127.0,128.0,127.0,127.0,127.0,129.0,125.0,128.0,-1.0,104.0,-69.0,127.0,127.0,127.0,-115.0,-88.0,111.0
127.0,128.0,127.0,127.0,127.0,129.0,125.0,128.0,-1.0,104.0,-69.0,127.0,127.0,127.0,-115.0,-88.0,111.0
127.0,128.0,127.0,127.0,127.0,129.0,125.0,128.0,-1.0,104.0,-69.0,127.0,127.0,127.0,-115.0,-88.0,111.0
127.0,128.0,127.0,127.0,127.0,129.0,125.0,128.0,-1.0,104.0,-69.0,127.0,127.0,127.0,-115.0,-88.0,111.0
127.0,128.0,127.0,127.0,127.0,129.0,125.0,128.0,-1.0,104.0,-69.0,127.0,127.0,127.0,-115.0,-88.0,111.0
127.0,128.0,127.0,127.0,127.0,129.0,125.0,128.0,-1.0,104.0,-69.0,127.0,127.0,127.0,-115.0,-88.0,111.0
127.0,128.0,127.0,127.0,126.0,130.0,126.0,128.0,-1.0,104.0,-70.0,127.0,127.0,127.0,-115.0,-88.0,111.0
127.0,128.0,127.0,127.0,126.0,130.0,126.0,128.0,-1.0,104.0,-70.0,127.0,127.0,127.0,-115.0,-88.0,111.0
127.0,128.0,127.0,127.0,126.0,129.0,125.0,128.0,-1.0,104.0,-70.0,127.0,127.0,127.0,-115.0,-88.0,111.0
127.0,128.0,127.0,127.0,126.0,129.0,125.0,128.0,-1.0,104.0,-70.0,127.0,127.0,127.0,-115.0,-88.0,111.0
127.0,128.0,127.0,127.0,126.0,129.0,125.0,128.0,-1.0,104.0,-70.0,127.0,127.0,127.0,-115.0,-88.0,111.0
127.0,128.0,127.0,127.0,126.0,129.0,125.0,128.0,-1.0,104.0,-70.0,127.0,127.0,127.0,-115.0,-88.0,111.0
127.0,128.0,127.0,127.0,126.0,130.0,125.0,128.0,-1.0,104.0,-70.0,127.0,127.0,127.0,-115.0,-88.0,111.0
127.0,128.0,127.0,127.0,126.0,130.0,125.0,128.0,-1.0,104.0,-70.0,127.0,127.0,127.0,-115.0,-88.0,111.0
127.0,128.0,127.0,127.0,126.0,130.0,125.0,128.0,-1.0,104.0,-70.0,127.0,127.0,127.0,-115.0,-88.0,111.0
127.0,128.0,127.0,127.0,126.0,129.0,126.0,128.0,-1.0,104.0,-70.0,127.0,127.0,127.0,-115.0,-88.0,111.0
127.0,128.0,127.0,127.0,126.0,130.0,125.0,129.0,-1.0,104.0,-70.0,127.0,127.0,127.0,-115.0,-88.0,111.0
127.0,128.0,127.0,127.0,126.0,130.0,125.0,129.0,-1.0,104.0,-70.0,127.0,127.0,127.0,-115.0,-88.0,111.0
127.0,128.0,127.0,127.0,126.0,129.0,125.0,129.0,-1.0,104.0,-70.0,127.0,127.0,127.0,-115.0,-88.0,111.0
127.0,128.0,127.0,127.0,126.0,129.0,125.0,129.0,-1.0,104.0,-70.0,127.0,127.0,127.0,-115.0,-88.0,111.0
127.0,128.0,127.0,127.0,126.0,129.0,125.0,129.0,-1.0,104.0,-70.0,127.0,127.0,127.0,-115.0,-88.0,111.0
127.0,128.0,127.0,127.0,126.0,130.0,125.0,129.0,-1.0,104.0,-70.0,127.0,127.0,127.0,-115.0,-88.0,111.0
127.0,128.0,127.0,127.0,126.0,130.0,125.0,129.0,-1.0,104.0,-70.0,127.0,127.0,127.0,-115.0,-88.0,111.0
127.0,128.0,127.0,127.0,126.0,130.0,125.0,129.0,-1.0,104.0,-70.0,127.0,127.0,127.0,-115.0,-88.0,111.0
127.0,128.0,127.0,127.0,126.0,129.0,126.0,128.0,-1.0,104.0,-70.0,127.0,127.0,127.0,-115.0,-88.0,111.0
127.0,128.0,127.0,127.0,126.0,130.0,126.0,129.0,-1.0,104.0,-70.0,127.0,127.0,127.0,-115.0,-88.0,111.0
127.0,128.0,127.0,128.0,126.0,129.0,126.0,129.0,-1.0,104.0,-70.0,127.0,127.0,127.0,-115.0,-88.0,111.0
127.0,128.0,127.0,128.0,126.0,129.0,126.0,129.0,-1.0,104.0,-70.0,127.0,127.0,127.0,-115.0,-88.0,111.0
127.0,128.0,127.0,127.0,126.0,129.0,126.0,129.0,-1.0,104.0,-70.0,127.0,127.0,127.0,-115.0,-88.0,111.0
127.0,128.0,127.0,127.0,126.0,129.0,126.0,129.0,-1.0,104.0,-70.0,127.0,127.0,127.0,-115.0,-88.0,111.0
127.0,128.0,127.0,127.0,126.0,130.0,126.0,129.0,-1.0,104.0,-70.0,127.0,127.0,127.0,-115.0,-88.0,111.0
127.0,128.0,127.0,128.0,126.0,130.0,125.0,129.0,-1.0,104.0,-70.0,127.0,127.0,127.0,-115.0,-88.0,111.0
127.0,128.0,127.0,127.0,126.0,129.0,125.0,129.0,-1.0,104.0,-70.0,127.0,127.0,127.0,-115.0,-88.0,111.0
127.0,128.0,127.0,127.0,127.0,129.0,127.0,128.0,-1.0,104.0,-70.0,127.0,127.0,127.0,-115.0,-88.0,111.0
127.0,128.0,127.0,128.0,126.0,129.0,126.0,128.0,-1.0,104.0,-70.0,127.0,127.0,127.0,-115.0,-88.0,111.0
127.0,128.0,127.0,128.0,126.0,129.0,126.0,129.0,-1.0,104.0,-70.0,127.0,127.0,127.0,-115.0,-88.0,111.0
127.0,128.0,127.0,127.0,127.0,130.0,125.0,129.0,-1.0,104.0,-70.0,127.0,127.0,127.0,-115.0,-88.0,111.0
127.0,128.0,127.0,128.0,127.0,130.0,125.0,129.0,-1.0,104.0,-70.0,127.0,127.0,127.0,-115.0,-88.0,111.0
127.0,128.0,127.0,127.0,127.0,130.0,125.0,129.0,-1.0,104.0,-70.0,127.0,127.0,127.0,-115.0,-88.0,111.0
127.0,128.0,127.0,127.0,126.0,130.0,125.0,129.0,-1.0,104.0,-70.0,127.0,127.0,127.0,-115.0,-88.0,111.0
127.0,128.0,127.0,127.0,127.0,131.0,125.0,129.0,-1.0,104.0,-70.0,127.0,127.0,127.0,-115.0,-88.0,111.0
127.0,128.0,127.0,127.0,127.0,130.0,125.0,129.0,-1.0,104.0,-70.0,127.0,127.0,127.0,-115.0,-88.0,111.0
127.0,128.0,128.0,127.0,127.0,130.0,126.0,129.0,-1.0,104.0,-70.0,127.0,127.0,127.0,-115.0,-88.0,111.0
127.0,128.0,128.0,127.0,127.0,130.0,126.0,129.0,-1.0,104.0,-70.0,127.0,127.0,127.0,-115.0,-88.0,111.0
127.0,128.0,128.0,127.0,127.0,129.0,126.0,129.0,-1.0,104.0,-70.0,127.0,127.0,127.0,-115.0,-88.0,111.0
127.0,128.0,128.0,127.0,127.0,129.0,126.0,129.0,-1.0,104.0,-70.0,127.0,127.0,127.0,-115.0,-88.0,111.0
127.0,128.0,127.0,127.0,127.0,130.0,126.0,129.0,-1.0,104.0,-71.0,127.0,127.0,127.0,-115.0,-88.0,111.0
127.0,128.0,127.0,127.0,127.0,130.0,126.0,129.0,-1.0,104.0,-71.0,127.0,127.0,127.0,-115.0,-88.0,111.0
127.0,128.0,127.0,127.0,126.0,130.0,126.0,129.0,-1.0,104.0,-71.0,127.0,127.0,127.0,-115.0,-88.0,111.0
127.0,128.0,127.0,127.0,126.0,130.0,126.0,129.0,-1.0,104.0,-71.0,127.0,127.0,127.0,-115.0,-88.0,111.0
127.0,128.0,127.0,127.0,126.0,130.0,126.0,129.0,-1.0,104.0,-71.0,127.0,127.0,127.0,-115.0,-88.0,111.0
127.0,128.0,127.0,127.0,127.0,129.0,126.0,128.0,-1.0,104.0,-71.0,127.0,127.0,127.0,-115.0,-88.0,111.0
127.0,128.0,127.0,127.0,126.0,130.0,126.0,128.0,-1.0,104.0,-71.0,127.0,127.0,127.0,-115.0,-88.0,111.0
127.0,128.0,127.0,127.0,126.0,130.0,126.0,129.0,-1.0,104.0,-71.0,127.0,127.0,127.0,-115.0,-88.0,111.0
127.0,128.0,127.0,127.0,126.0,130.0,126.0,129.0,-1.0,104.0,-71.0,127.0,127.0,127.0,-115.0,-88.0,111.0
127.0,128.0,127.0,127.0,127.0,130.0,126.0,129.0,-1.0,104.0,-71.0,127.0,127.0,127.0,-115.0,-88.0,111.0
126.0,128.0,127.0,127.0,126.0,130.0,126.0,128.0,-1.0,104.0,-71.0,127.0,127.0,127.0,-115.0,-88.0,111.0
126.0,127.0,127.0,127.0,126.0,130.0,126.0,128.0,-1.0,104.0,-71.0,127.0,127.0,127.0,-115.0,-88.0,111.0
127.0,128.0,127.0,127.0,126.0,131.0,126.0,128.0,-1.0,104.0,-71.0,127.0,127.0,127.0,-115.0,-88.0,111.0
127.0,128.0,127.0,127.0,126.0,131.0,126.0,128.0,-1.0,104.0,-71.0,127.0,127.0,127.0,-115.0,-88.0,111.0
126.0,127.0,127.0,127.0,126.0,129.0,126.0,128.0,-1.0,104.0,-71.0,127.0,127.0,127.0,-115.0,-88.0,111.0
126.0,127.0,127.0,127.0,126.0,129.0,126.0,128.0,-1.0,104.0,-71.0,127.0,127.0,127.0,-115.0,-88.0,111.0
126.0,128.0,127.0,127.0,126.0,130.0,126.0,128.0,-1.0,104.0,-71.0,127.0,127.0,127.0,-115.0,-88.0,111.0
126.0,128.0,127.0,127.0,126.0,130.0,126.0,128.0,-1.0,104.0,-71.0,127.0,127.0,127.0,-115.0,-88.0,111.0
126.0,127.0,127.0,127.0,126.0,130.0,126.0,128.0,-1.0,104.0,-71.0,127.0,127.0,127.0,-115.0,-88.0,111.0
126.0,127.0,127.0,127.0,126.0,130.0,126.0,128.0,-1.0,104.0,-71.0,127.0,127.0,127.0,-115.0,-88.0,111.0
126.0,128.0,127.0,127.0,126.0,129.0,126.0,129.0,-1.0,104.0,-71.0,127.0,127.0,127.0,-115.0,-88.0,111.0
126.0,128.0,127.0,127.0,126.0,130.0,126.0,129.0,-1.0,104.0,-71.0,127.0,127.0,127.0,-115.0,-88.0,111.0
126.0,128.0,127.0,127.0,126.0,130.0,126.0,129.0,-1.0,104.0,-71.0,127.0,127.0,127.0,-115.0,-88.0,111.0
126.0,128.0,127.0,127.0,127.0,128.0,126.0,128.0,-1.0,104.0,-71.0,127.0,127.0,127.0,-115.0,-88.0,111.0
126.0,128.0,127.0,127.0,126.0,129.0,126.0,128.0,-1.0,104.0,-71.0,127.0,127.0,127.0,-115.0,-88.0,111.0
126.0,128.0,127.0,127.0,126.0,129.0,126.0,128.0,-1.0,104.0,-71.0,127.0,127.0,127.0,-115.0,-88.0,111.0
126.0,128.0,127.0,127.0,126.0,129.0,126.0,128.0,-1.0,104.0,-71.0,127.0,127.0,127.0,-115.0,-88.0,111.0
126.0,128.0,127.0,127.0,127.0,129.0,126.0,128.0,-1.0,104.0,-71.0,127.0,127.0,127.0,-115.0,-88.0,111.0
126.0,128.0,127.0,127.0,127.0,129.0,126.0,128.0,-1.0,104.0,-71.0,127.0,127.0,127.0,-115.0,-88.0,111.0
126.0,128.0,127.0,127.0,127.0,129.0,126.0,128.0,-1.0,104.0,-71.0,127.0,127.0,127.0,-115.0,-88.0,111.0
127.0,128.0,127.0,127.0,126.0,129.0,124.0,128.0,-1.0,104.0,-71.0,127.0,127.0,127.0,-115.0,-88.0,111.0
126.0,128.0,127.0,127.0,126.0,130.0,124.0,128.0,-1.0,104.0,-71.0,127.0,127.0,127.0,-115.0,-88.0,111.0
126.0,128.0,127.0,127.0,127.0,129.0,126.0,128.0,-1.0,104.0,-71.0,127.0,127.0,127.0,-115.0,-88.0,111.0
126.0,128.0,127.0,127.0,126.0,129.0,126.0,128.0,-1.0,104.0,-71.0,127.0,127.0,127.0,-115.0,-88.0,111.0
127.0,128.0,127.0,127.0,126.0,130.0,125.0,128.0,-1.0,104.0,-71.0,127.0,127.0,127.0,-115.0,-88.0,111.0
126.0,128.0,127.0,127.0,126.0,130.0,125.0,128.0,-1.0,104.0,-71.0,127.0,127.0,127.0,-115.0,-88.0,111.0
127.0,128.0,127.0,127.0,126.0,129.0,125.0,128.0,-1.0,104.0,-71.0,127.0,127.0,127.0,-115.0,-88.0,111.0
126.0,128.0,127.0,127.0,127.0,129.0,125.0,128.0,-1.0,104.0,-71.0,127.0,127.0,127.0,-115.0,-88.0,111.0
126.0,128.0,127.0,127.0,126.0,129.0,125.0,128.0,-1.0,104.0,-71.0,127.0,127.0,127.0,-115.0,-88.0,111.0
126.0,128.0,127.0,127.0,126.0,129.0,125.0,128.0,-1.0,104.0,-71.0,127.0,127.0,127.0,-115.0,-88.0,111.0
127.0,128.0,127.0,127.0,127.0,128.0,127.0,128.0,-1.0,104.0,-70.0,127.0,127.0,127.0,-115.0,-88.0,111.0
127.0,128.0,127.0,127.0,127.0,129.0,128.0,128.0,-1.0,104.0,-70.0,127.0,127.0,127.0,-115.0,-88.0,111.0
127.0,128.0,127.0,127.0,127.0,129.0,128.0,128.0,-1.0,104.0,-70.0,127.0,127.0,127.0,-115.0,-88.0,111.0
127.0,128.0,127.0,127.0,127.0,129.0,128.0,128.0,-1.0,104.0,-70.0,127.0,127.0,127.0,-115.0,-88.0,111.0
127.0,128.0,127.0,127.0,127.0,129.0,127.0,128.0,-1.0,104.0,-70.0,127.0,127.0,127.0,-115.0,-88.0,111.0
127.0,128.0,127.0,127.0,127.0,129.0,127.0,128.0,-1.0,104.0,-70.0,127.0,127.0,127.0,-115.0,-88.0,111.0
127.0,128.0,127.0,127.0,127.0,129.0,127.0,128.0,-1.0,104.0,-70.0,127.0,127.0,127.0,-115.0,-88.0,111.0
127.0,128.0,127.0,127.0,127.0,129.0,127.0,128.0,-1.0,104.0,-70.0,127.0,127.0,127.0,-115.0,-88.0,111.0
127.0,128.0,127.0,127.0,127.0,129.0,127.0,128.0,-1.0,104.0,-70.0,127.0,127.0,127.0,-115.0,-88.0,111.0
127.0,128.0,127.0,127.0,127.0,128.0,127.0,128.0,-1.0,104.0,-70.0,127.0,127.0,127.0,-115.0,-88.0,111.0
127.0,128.0,127.0,127.0,127.0,130.0,128.0,128.0,-1.0,104.0,-70.0,127.0,127.0,127.0,-115.0,-88.0,111.0
127.0,128.0,127.0,127.0,127.0,130.0,128.0,128.0,-1.0,104.0,-70.0,127.0,127.0,127.0,-115.0,-88.0,111.0
127.0,128.0,127.0,127.0,127.0,130.0,128.0,128.0,-1.0,104.0,-70.0,127.0,127.0,127.0,-115.0,-88.0,111.0
127.0,128.0,127.0,127.0,127.0,130.0,128.0,128.0,-1.0,104.0,-70.0,127.0,127.0,127.0,-115.0,-88.0,111.0
127.0,128.0,127.0,127.0,127.0,130.0,128.0,128.0,-1.0,104.0,-70.0,127.0,127.0,127.0,-115.0,-88.0,111.0
127.0,128.0,127.0,127.0,127.0,130.0,128.0,128.0,-1.0,104.0,-70.0,127.0,127.0,127.0,-115.0,-88.0,111.0
127.0,128.0,127.0,127.0,127.0,130.0,128.0,128.0,-1.0,104.0,-70.0,127.0,127.0,127.0,-115.0,-88.0,111.0
127.0,128.0,127.0,127.0,127.0,130.0,128.0,128.0,-1.0,104.0,-70.0,127.0,127.0,127.0,-115.0,-88.0,111.0
127.0,128.0,127.0,127.0,127.0,130.0,128.0,128.0,-1.0,104.0,-70.0,127.0,127.0,127.0,-115.0,-88.0,111.0
127.0,128.0,127.0,127.0,127.0,129.0,128.0,128.0,-1.0,104.0,-70.0,127.0,127.0,127.0,-115.0,-88.0,111.0
127.0,128.0,127.0,127.0,127.0,130.0,126.0,128.0,-1.0,104.0,-70.0,127.0,127.0,127.0,-115.0,-88.0,111.0
127.0,128.0,127.0,127.0,127.0,130.0,126.0,128.0,-1.0,104.0,-70.0,127.0,127.0,127.0,-115.0,-88.0,111.0
127.0,128.0,127.0,127.0,127.0,130.0,126.0,128.0,-1.0,104.0,-70.0,127.0,127.0,127.0,-115.0,-88.0,111.0
127.0,128.0,127.0,127.0,127.0,130.0,126.0,128.0,-1.0,104.0,-70.0,127.0,127.0,127.0,-115.0,-88.0,111.0
127.0,128.0,127.0,127.0,126.0,130.0,126.0,128.0,-1.0,104.0,-70.0,127.0,127.0,127.0,-115.0,-88.0,111.0
127.0,128.0,127.0,127.0,126.0,130.0,125.0,128.0,-1.0,104.0,-70.0,127.0,127.0,127.0,-115.0,-88.0,111.0
127.0,128.0,127.0,127.0,126.0,130.0,125.0,128.0,-1.0,104.0,-70.0,127.0,127.0,127.0,-115.0,-88.0,111.0
127.0,128.0,127.0,127.0,126.0,130.0,125.0,128.0,-1.0,104.0,-70.0,127.0,127.0,127.0,-115.0,-88.0,111.0
127.0,128.0,127.0,127.0,126.0,130.0,125.0,128.0,-1.0,104.0,-70.0,127.0,127.0,127.0,-115.0,-88.0,111.0
127.0,128.0,127.0,127.0,126.0,130.0,126.0,128.0,-1.0,104.0,-70.0,127.0,127.0,127.0,-115.0,-88.0,111.0
127.0,128.0,127.0,127.0,127.0,130.0,127.0,129.0,-1.0,104.0,-70.0,127.0,127.0,127.0,-115.0,-88.0,111.0
127.0,128.0,127.0,127.0,127.0,129.0,127.0,129.0,-1.0,104.0,-70.0,127.0,127.0,127.0,-115.0,-88.0,111.0
127.0,128.0,127.0,127.0,127.0,129.0,127.0,129.0,-1.0,104.0,-70.0,127.0,127.0,127.0,-115.0,-88.0,111.0
127.0,128.0,127.0,127.0,127.0,129.0,127.0,129.0,-1.0,104.0,-70.0,127.0,127.0,127.0,-115.0,-88.0,111.0
127.0,128.0,127.0,127.0,126.0,130.0,127.0,129.0,-1.0,104.0,-70.0,127.0,127.0,127.0,-115.0,-88.0,111.0
127.0,128.0,127.0,127.0,127.0,130.0,127.0,129.0,-1.0,104.0,-70.0,127.0,127.0,127.0,-115.0,-88.0,111.0
127.0,128.0,127.0,127.0,126.0,130.0,127.0,129.0,-1.0,104.0,-70.0,127.0,127.0,127.0,-115.0,-88.0,111.0
127.0,128.0,127.0,127.0,126.0,130.0,126.0,129.0,-1.0,104.0,-70.0,127.0,127.0,127.0,-115.0,-88.0,111.0
127.0,128.0,127.0,127.0,126.0,130.0,127.0,129.0,-1.0,104.0,-70.0,127.0,127.0,127.0,-115.0,-88.0,111.0
127.0,128.0,127.0,127.0,127.0,130.0,127.0,129.0,-1.0,104.0,-70.0,127.0,127.0,127.0,-115.0,-88.0,111.0
127.0,128.0,127.0,127.0,127.0,130.0,128.0,128.0,-1.0,104.0,-70.0,127.0,127.0,127.0,-115.0,-88.0,111.0
127.0,128.0,127.0,127.0,127.0,130.0,128.0,128.0,-1.0,104.0,-70.0,127.0,127.0,127.0,-115.0,-88.0,111.0
127.0,128.0,127.0,127.0,127.0,130.0,128.0,128.0,-1.0,104.0,-70.0,127.0,127.0,127.0,-115.0,-88.0,111.0
127.0,128.0,127.0,127.0,127.0,130.0,128.0,128.0,-1.0,104.0,-70.0,127.0,127.0,127.0,-115.0,-88.0,111.0
127.0,128.0,127.0,127.0,127.0,129.0,128.0,128.0,-1.0,104.0,-70.0,127.0,127.0,127.0,-115.0,-88.0,111.0
127.0,128.0,127.0,127.0,127.0,129.0,128.0,128.0,-1.0,104.0,-70.0,127.0,127.0,127.0,-115.0,-88.0,111.0
