emg1,emg2,emg3,emg4,emg5,emg6,emg7,emg8,acc_x,acc_y,acc_z,gyro_x,gyro_y,gyro_z,angle_pitch,angle_roll,angle_yaw
128.0,129.0,126.0,127.0,127.0,151.0,127.0,128.0,24.0,-94.0,-79.0,127.0,127.0,127.0,106.0,86.0,-106.0
128.0,129.0,126.0,127.0,127.0,151.0,127.0,128.0,24.0,-94.0,-79.0,127.0,127.0,127.0,106.0,86.0,-106.0
128.0,129.0,126.0,127.0,127.0,151.0,127.0,128.0,24.0,-94.0,-79.0,127.0,127.0,127.0,106.0,86.0,-106.0
127.0,128.0,126.0,126.0,127.0,154.0,127.0,128.0,24.0,-94.0,-79.0,127.0,127.0,127.0,106.0,86.0,-106.0
127.0,129.0,126.0,126.0,127.0,154.0,127.0,128.0,24.0,-94.0,-79.0,127.0,127.0,127.0,106.0,86.0,-106.0
127.0,129.0,126.0,126.0,127.0,154.0,127.0,128.0,24.0,-94.0,-79.0,127.0,127.0,127.0,106.0,86.0,-106.0
128.0,129.0,126.0,127.0,127.0,153.0,127.0,128.0,24.0,-94.0,-79.0,127.0,127.0,127.0,106.0,86.0,-106.0
127.0,129.0,126.0,127.0,127.0,153.0,127.0,128.0,24.0,-94.0,-79.0,127.0,127.0,127.0,106.0,86.0,-106.0
128.0,129.0,126.0,127.0,127.0,153.0,127.0,128.0,24.0,-94.0,-79.0,127.0,127.0,127.0,106.0,86.0,-106.0
128.0,129.0,126.0,127.0,127.0,152.0,127.0,128.0,24.0,-94.0,-79.0,127.0,127.0,127.0,106.0,86.0,-106.0
128.0,129.0,126.0,127.0,127.0,152.0,127.0,128.0,24.0,-94.0,-79.0,127.0,127.0,127.0,106.0,86.0,-106.0
128.0,129.0,126.0,127.0,127.0,151.0,127.0,127.0,24.0,-94.0,-79.0,127.0,127.0,127.0,106.0,86.0,-106.0
128.0,128.0,127.0,126.0,127.0,154.0,127.0,127.0,24.0,-94.0,-79.0,127.0,127.0,127.0,106.0,86.0,-106.0
128.0,129.0,127.0,126.0,127.0,154.0,127.0,128.0,24.0,-94.0,-79.0,127.0,127.0,127.0,106.0,86.0,-106.0
128.0,129.0,126.0,126.0,127.0,154.0,127.0,128.0,24.0,-94.0,-79.0,127.0,127.0,127.0,106.0,86.0,-106.0
128.0,129.0,126.0,127.0,127.0,153.0,127.0,127.0,24.0,-94.0,-79.0,127.0,127.0,127.0,106.0,86.0,-106.0
128.0,129.0,126.0,127.0,127.0,153.0,127.0,127.0,24.0,-94.0,-79.0,127.0,127.0,127.0,106.0,86.0,-106.0
128.0,129.0,126.0,127.0,127.0,153.0,127.0,127.0,24.0,-94.0,-79.0,127.0,127.0,127.0,106.0,86.0,-106.0
128.0,129.0,126.0,127.0,127.0,152.0,127.0,127.0,24.0,-94.0,-79.0,127.0,127.0,127.0,106.0,86.0,-106.0
128.0,129.0,126.0,127.0,127.0,152.0,127.0,127.0,24.0,-94.0,-79.0,127.0,127.0,127.0,106.0,86.0,-106.0
128.0,129.0,126.0,127.0,127.0,152.0,127.0,127.0,24.0,-94.0,-79.0,127.0,127.0,127.0,106.0,86.0,-106.0
128.0,128.0,127.0,126.0,127.0,153.0,127.0,128.0,24.0,-94.0,-79.0,127.0,127.0,127.0,106.0,86.0,-106.0
128.0,128.0,127.0,126.0,127.0,154.0,127.0,128.0,24.0,-94.0,-79.0,127.0,127.0,127.0,106.0,86.0,-106.0
128.0,128.0,127.0,127.0,127.0,154.0,127.0,128.0,24.0,-94.0,-79.0,127.0,127.0,127.0,106.0,86.0,-106.0
128.0,128.0,127.0,127.0,127.0,153.0,127.0,128.0,24.0,-94.0,-79.0,127.0,127.0,127.0,106.0,86.0,-106.0
128.0,129.0,127.0,127.0,127.0,153.0,127.0,128.0,24.0,-94.0,-79.0,127.0,127.0,127.0,106.0,86.0,-106.0
128.0,129.0,127.0,127.0,127.0,153.0,127.0,128.0,24.0,-94.0,-79.0,127.0,127.0,127.0,106.0,86.0,-106.0
128.0,129.0,126.0,127.0,127.0,152.0,127.0,128.0,24.0,-94.0,-79.0,127.0,127.0,127.0,106.0,86.0,-106.0
128.0,129.0,126.0,127.0,127.0,151.0,127.0,128.0,24.0,-94.0,-79.0,127.0,127.0,127.0,106.0,86.0,-106.0
128.0,129.0,126.0,127.0,127.0,151.0,127.0,128.0,24.0,-94.0,-79.0,127.0,127.0,127.0,106.0,86.0,-106.0
128.0,129.0,126.0,127.0,127.0,151.0,127.0,128.0,24.0,-94.0,-79.0,127.0,127.0,127.0,106.0,86.0,-106.0
128.0,129.0,127.0,127.0,127.0,153.0,127.0,128.0,24.0,-94.0,-79.0,127.0,127.0,127.0,106.0,86.0,-106.0
128.0,129.0,127.0,127.0,127.0,153.0,127.0,128.0,24.0,-94.0,-79.0,127.0,127.0,127.0,106.0,86.0,-106.0
128.0,129.0,127.0,127.0,127.0,153.0,127.0,128.0,24.0,-94.0,-79.0,127.0,127.0,127.0,106.0,86.0,-106.0
128.0,129.0,127.0,127.0,127.0,152.0,127.0,128.0,24.0,-94.0,-79.0,127.0,127.0,127.0,106.0,86.0,-106.0
128.0,129.0,127.0,127.0,127.0,152.0,127.0,128.0,24.0,-94.0,-79.0,127.0,127.0,127.0,106.0,86.0,-106.0
128.0,129.0,127.0,127.0,127.0,151.0,127.0,128.0,24.0,-94.0,-79.0,127.0,127.0,127.0,106.0,86.0,-106.0
128.0,129.0,127.0,127.0,127.0,151.0,127.0,128.0,24.0,-94.0,-79.0,127.0,127.0,127.0,106.0,86.0,-106.0
128.0,129.0,127.0,127.0,127.0,151.0,127.0,128.0,24.0,-94.0,-79.0,127.0,127.0,127.0,106.0,86.0,-106.0
128.0,130.0,126.0,127.0,127.0,150.0,127.0,128.0,24.0,-94.0,-79.0,127.0,127.0,127.0,106.0,86.0,-106.0
128.0,128.0,127.0,126.0,127.0,152.0,127.0,128.0,24.0,-94.0,-79.0,127.0,127.0,127.0,106.0,86.0,-106.0
127.0,127.0,127.0,126.0,127.0,150.0,127.0,128.0,24.0,-94.0,-79.0,127.0,127.0,127.0,106.0,86.0,-106.0
128.0,127.0,127.0,126.0,127.0,150.0,127.0,128.0,24.0,-94.0,-79.0,127.0,127.0,127.0,106.0,86.0,-106.0
127.0,128.0,127.0,127.0,127.0,151.0,127.0,128.0,24.0,-94.0,-79.0,127.0,127.0,127.0,106.0,86.0,-106.0
128.0,128.0,126.0,127.0,127.0,151.0,127.0,128.0,24.0,-94.0,-79.0,127.0,127.0,127.0,106.0,86.0,-106.0
128.0,128.0,127.0,127.0,127.0,151.0,127.0,128.0,24.0,-94.0,-79.0,127.0,127.0,127.0,106.0,86.0,-106.0
128.0,129.0,126.0,127.0,127.0,150.0,127.0,128.0,24.0,-94.0,-79.0,127.0,127.0,127.0,106.0,86.0,-106.0
128.0,129.0,126.0,127.0,127.0,150.0,127.0,128.0,24.0,-94.0,-79.0,127.0,127.0,127.0,106.0,86.0,-106.0
128.0,129.0,126.0,127.0,127.0,150.0,127.0,128.0,24.0,-94.0,-79.0,127.0,127.0,127.0,106.0,86.0,-106.0
127.0,127.0,127.0,126.0,127.0,150.0,127.0,128.0,24.0,-94.0,-79.0,127.0,127.0,127.0,106.0,86.0,-106.0
127.0,127.0,127.0,126.0,127.0,150.0,127.0,128.0,24.0,-94.0,-79.0,127.0,127.0,127.0,106.0,86.0,-106.0
128.0,128.0,127.0,127.0,127.0,152.0,127.0,128.0,24.0,-95.0,-79.0,127.0,127.0,127.0,106.0,86.0,-106.0
128.0,128.0,127.0,127.0,127.0,151.0,127.0,128.0,24.0,-95.0,-79.0,127.0,127.0,127.0,106.0,86.0,-106.0
128.0,128.0,127.0,127.0,127.0,151.0,127.0,128.0,24.0,-95.0,-79.0,127.0,127.0,127.0,106.0,86.0,-106.0
128.0,128.0,127.0,127.0,127.0,151.0,127.0,128.0,24.0,-95.0,-79.0,127.0,127.0,127.0,106.0,86.0,-106.0
128.0,128.0,127.0,127.0,127.0,150.0,127.0,128.0,24.0,-95.0,-79.0,127.0,127.0,127.0,106.0,86.0,-106.0
128.0,128.0,127.0,127.0,127.0,150.0,127.0,128.0,24.0,-95.0,-79.0,127.0,127.0,127.0,106.0,86.0,-106.0
128.0,129.0,127.0,127.0,127.0,149.0,127.0,128.0,24.0,-95.0,-79.0,127.0,127.0,127.0,106.0,86.0,-106.0
128.0,128.0,128.0,126.0,127.0,153.0,127.0,128.0,24.0,-95.0,-79.0,127.0,127.0,127.0,106.0,86.0,-106.0
128.0,128.0,128.0,126.0,127.0,153.0,127.0,128.0,24.0,-95.0,-79.0,127.0,127.0,127.0,106.0,86.0,-106.0
128.0,128.0,128.0,127.0,127.0,153.0,127.0,128.0,24.0,-95.0,-79.0,127.0,127.0,127.0,106.0,86.0,-106.0
127.0,128.0,127.0,127.0,127.0,151.0,127.0,128.0,24.0,-95.0,-79.0,127.0,127.0,127.0,106.0,86.0,-106.0
127.0,128.0,127.0,127.0,127.0,151.0,127.0,128.0,24.0,-95.0,-79.0,127.0,127.0,127.0,106.0,86.0,-106.0
127.0,128.0,127.0,127.0,127.0,151.0,127.0,128.0,24.0,-95.0,-79.0,127.0,127.0,127.0,106.0,86.0,-106.0
127.0,128.0,127.0,127.0,127.0,150.0,127.0,128.0,24.0,-95.0,-79.0,127.0,127.0,127.0,106.0,86.0,-106.0
127.0,128.0,127.0,127.0,127.0,150.0,127.0,128.0,24.0,-95.0,-79.0,127.0,127.0,127.0,106.0,86.0,-106.0
127.0,128.0,127.0,127.0,127.0,150.0,127.0,128.0,24.0,-95.0,-79.0,127.0,127.0,127.0,106.0,86.0,-106.0
127.0,128.0,127.0,126.0,127.0,153.0,127.0,128.0,24.0,-95.0,-79.0,127.0,127.0,127.0,106.0,86.0,-106.0
127.0,128.0,127.0,127.0,127.0,153.0,127.0,128.0,24.0,-95.0,-79.0,127.0,127.0,127.0,106.0,86.0,-106.0
127.0,128.0,127.0,127.0,127.0,153.0,127.0,128.0,24.0,-95.0,-79.0,127.0,127.0,127.0,106.0,86.0,-106.0
127.0,128.0,127.0,127.0,127.0,152.0,127.0,128.0,24.0,-95.0,-79.0,127.0,127.0,127.0,106.0,86.0,-106.0
127.0,128.0,126.0,127.0,127.0,150.0,126.0,128.0,24.0,-95.0,-79.0,127.0,127.0,127.0,106.0,86.0,-106.0
127.0,128.0,126.0,127.0,127.0,150.0,126.0,128.0,24.0,-95.0,-79.0,127.0,127.0,127.0,106.0,86.0,-106.0
127.0,128.0,126.0,127.0,127.0,149.0,126.0,128.0,24.0,-95.0,-79.0,127.0,127.0,127.0,106.0,86.0,-106.0
127.0,128.0,126.0,127.0,127.0,149.0,126.0,128.0,24.0,-95.0,-79.0,127.0,127.0,127.0,106.0,86.0,-106.0
127.0,128.0,126.0,127.0,127.0,149.0,126.0,128.0,24.0,-95.0,-79.0,127.0,127.0,127.0,106.0,86.0,-106.0
127.0,128.0,127.0,126.0,127.0,152.0,126.0,128.0,24.0,-95.0,-79.0,127.0,127.0,127.0,106.0,86.0,-106.0
127.0,128.0,127.0,126.0,127.0,152.0,126.0,128.0,24.0,-95.0,-79.0,127.0,127.0,127.0,106.0,86.0,-106.0
127.0,128.0,127.0,126.0,127.0,152.0,126.0,128.0,24.0,-95.0,-79.0,127.0,127.0,127.0,106.0,86.0,-106.0
127.0,128.0,127.0,127.0,127.0,152.0,126.0,128.0,24.0,-95.0,-79.0,127.0,127.0,127.0,106.0,86.0,-106.0
127.0,128.0,126.0,127.0,127.0,151.0,126.0,128.0,24.0,-95.0,-79.0,127.0,127.0,127.0,106.0,86.0,-106.0
128.0,128.0,127.0,127.0,127.0,150.0,127.0,128.0,24.0,-95.0,-79.0,127.0,127.0,127.0,106.0,86.0,-106.0
128.0,128.0,126.0,127.0,127.0,149.0,126.0,128.0,24.0,-95.0,-79.0,127.0,127.0,127.0,106.0,86.0,-106.0
128.0,128.0,126.0,127.0,127.0,149.0,127.0,128.0,24.0,-95.0,-79.0,127.0,127.0,127.0,106.0,86.0,-106.0
128.0,128.0,126.0,127.0,127.0,149.0,127.0,128.0,24.0,-95.0,-79.0,127.0,127.0,127.0,106.0,86.0,-106.0
128.0,128.0,127.0,126.0,127.0,152.0,126.0,128.0,24.0,-95.0,-79.0,127.0,127.0,127.0,106.0,86.0,-106.0
128.0,128.0,127.0,126.0,127.0,152.0,126.0,128.0,24.0,-95.0,-79.0,127.0,127.0,127.0,106.0,86.0,-106.0
128.0,128.0,127.0,126.0,127.0,151.0,126.0,128.0,24.0,-95.0,-79.0,127.0,127.0,127.0,106.0,86.0,-106.0
128.0,128.0,127.0,126.0,127.0,151.0,126.0,128.0,24.0,-95.0,-79.0,127.0,127.0,127.0,106.0,86.0,-106.0
128.0,128.0,127.0,127.0,127.0,151.0,126.0,128.0,24.0,-95.0,-79.0,127.0,127.0,127.0,106.0,86.0,-106.0
128.0,128.0,126.0,127.0,127.0,150.0,126.0,128.0,24.0,-95.0,-79.0,127.0,127.0,127.0,106.0,86.0,-106.0
127.0,128.0,126.0,127.0,127.0,149.0,127.0,128.0,24.0,-96.0,-79.0,127.0,127.0,127.0,106.0,86.0,-106.0
127.0,128.0,126.0,127.0,127.0,149.0,127.0,128.0,24.0,-96.0,-79.0,127.0,127.0,127.0,106.0,86.0,-106.0
127.0,128.0,126.0,127.0,127.0,148.0,127.0,128.0,24.0,-96.0,-79.0,127.0,127.0,127.0,106.0,86.0,-106.0
127.0,128.0,127.0,126.0,127.0,152.0,127.0,128.0,24.0,-96.0,-79.0,127.0,127.0,127.0,106.0,86.0,-106.0
127.0,128.0,126.0,126.0,127.0,152.0,127.0,128.0,24.0,-96.0,-79.0,127.0,127.0,127.0,106.0,86.0,-106.0
127.0,128.0,126.0,126.0,127.0,151.0,127.0,128.0,24.0,-96.0,-79.0,127.0,127.0,127.0,106.0,86.0,-106.0
127.0,128.0,126.0,127.0,127.0,151.0,127.0,128.0,24.0,-96.0,-79.0,127.0,127.0,127.0,106.0,86.0,-106.0
127.0,128.0,126.0,127.0,127.0,151.0,127.0,128.0,24.0,-96.0,-79.0,127.0,127.0,127.0,106.0,86.0,-106.0
127.0,128.0,126.0,127.0,127.0,150.0,127.0,128.0,24.0,-96.0,-79.0,127.0,127.0,127.0,106.0,86.0,-106.0
127.0,128.0,126.0,127.0,127.0,150.0,127.0,128.0,24.0,-96.0,-79.0,127.0,127.0,127.0,106.0,86.0,-106.0
128.0,129.0,127.0,127.0,127.0,148.0,127.0,127.0,24.0,-96.0,-79.0,127.0,127.0,127.0,106.0,86.0,-106.0
128.0,129.0,127.0,127.0,127.0,148.0,127.0,128.0,24.0,-96.0,-79.0,127.0,127.0,127.0,106.0,86.0,-106.0
128.0,128.0,127.0,126.0,127.0,152.0,127.0,128.0,24.0,-96.0,-79.0,127.0,127.0,127.0,106.0,86.0,-106.0
128.0,128.0,127.0,126.0,127.0,151.0,126.0,127.0,24.0,-96.0,-79.0,127.0,127.0,127.0,106.0,86.0,-106.0
128.0,128.0,127.0,127.0,127.0,151.0,127.0,127.0,24.0,-96.0,-79.0,127.0,127.0,127.0,106.0,86.0,-106.0
128.0,129.0,127.0,127.0,127.0,151.0,127.0,127.0,24.0,-96.0,-79.0,127.0,127.0,127.0,106.0,86.0,-106.0
128.0,129.0,127.0,127.0,127.0,150.0,127.0,128.0,24.0,-96.0,-79.0,127.0,127.0,127.0,106.0,86.0,-106.0
128.0,129.0,126.0,127.0,127.0,150.0,127.0,127.0,24.0,-96.0,-79.0,127.0,127.0,127.0,106.0,86.0,-106.0
128.0,129.0,126.0,127.0,127.0,150.0,127.0,127.0,24.0,-96.0,-79.0,127.0,127.0,127.0,106.0,86.0,-106.0
128.0,129.0,126.0,127.0,127.0,149.0,127.0,127.0,24.0,-96.0,-79.0,127.0,127.0,127.0,106.0,86.0,-106.0
128.0,129.0,126.0,127.0,127.0,148.0,127.0,128.0,24.0,-96.0,-79.0,127.0,127.0,127.0,106.0,86.0,-106.0
127.0,129.0,126.0,127.0,127.0,151.0,126.0,128.0,24.0,-96.0,-79.0,127.0,127.0,127.0,106.0,86.0,-106.0
127.0,129.0,126.0,127.0,126.0,151.0,126.0,128.0,24.0,-96.0,-79.0,127.0,127.0,127.0,106.0,86.0,-106.0
127.0,129.0,126.0,127.0,126.0,151.0,126.0,128.0,24.0,-96.0,-79.0,127.0,127.0,127.0,106.0,86.0,-106.0
127.0,129.0,126.0,127.0,127.0,151.0,127.0,128.0,24.0,-96.0,-79.0,127.0,127.0,127.0,106.0,86.0,-106.0
127.0,129.0,126.0,127.0,127.0,150.0,127.0,128.0,24.0,-96.0,-79.0,127.0,127.0,127.0,106.0,86.0,-106.0
128.0,129.0,126.0,127.0,127.0,150.0,127.0,128.0,24.0,-96.0,-79.0,127.0,127.0,127.0,106.0,86.0,-106.0
128.0,129.0,126.0,127.0,127.0,149.0,127.0,128.0,24.0,-96.0,-79.0,127.0,127.0,127.0,106.0,86.0,-106.0
127.0,129.0,126.0,127.0,127.0,149.0,127.0,128.0,24.0,-96.0,-79.0,127.0,127.0,127.0,106.0,86.0,-106.0
128.0,129.0,126.0,127.0,127.0,148.0,127.0,128.0,24.0,-96.0,-79.0,127.0,127.0,127.0,106.0,86.0,-106.0
127.0,128.0,126.0,126.0,126.0,148.0,126.0,127.0,24.0,-96.0,-79.0,127.0,127.0,127.0,106.0,86.0,-106.0
127.0,128.0,126.0,126.0,126.0,148.0,126.0,127.0,24.0,-96.0,-79.0,127.0,127.0,127.0,106.0,86.0,-106.0
127.0,128.0,126.0,126.0,127.0,150.0,127.0,127.0,24.0,-96.0,-79.0,127.0,127.0,127.0,106.0,86.0,-106.0
127.0,129.0,126.0,126.0,127.0,150.0,127.0,127.0,24.0,-96.0,-79.0,127.0,127.0,127.0,106.0,86.0,-106.0
128.0,129.0,126.0,127.0,127.0,149.0,127.0,128.0,24.0,-96.0,-79.0,127.0,127.0,127.0,106.0,86.0,-106.0
128.0,129.0,126.0,127.0,127.0,149.0,127.0,128.0,24.0,-96.0,-79.0,127.0,127.0,127.0,106.0,86.0,-106.0
128.0,129.0,126.0,127.0,127.0,149.0,127.0,127.0,24.0,-96.0,-79.0,127.0,127.0,127.0,106.0,86.0,-106.0
128.0,129.0,126.0,127.0,127.0,148.0,127.0,127.0,24.0,-96.0,-79.0,127.0,127.0,127.0,106.0,86.0,-106.0
128.0,129.0,125.0,127.0,127.0,150.0,127.0,127.0,24.0,-96.0,-79.0,127.0,127.0,127.0,106.0,86.0,-106.0
128.0,130.0,125.0,127.0,127.0,150.0,127.0,128.0,24.0,-96.0,-79.0,127.0,127.0,127.0,106.0,86.0,-106.0
127.0,128.0,127.0,127.0,126.0,149.0,126.0,127.0,24.0,-96.0,-79.0,127.0,127.0,127.0,106.0,86.0,-106.0
127.0,129.0,126.0,127.0,127.0,150.0,127.0,128.0,24.0,-96.0,-79.0,127.0,127.0,127.0,106.0,86.0,-106.0
128.0,129.0,126.0,127.0,127.0,151.0,127.0,128.0,24.0,-96.0,-79.0,127.0,127.0,127.0,106.0,86.0,-106.0
128.0,129.0,126.0,127.0,127.0,150.0,127.0,128.0,24.0,-96.0,-79.0,127.0,127.0,127.0,106.0,86.0,-106.0
127.0,129.0,126.0,127.0,127.0,150.0,127.0,128.0,24.0,-96.0,-79.0,127.0,127.0,127.0,106.0,86.0,-106.0
127.0,129.0,126.0,127.0,127.0,149.0,127.0,128.0,24.0,-96.0,-79.0,127.0,127.0,127.0,106.0,86.0,-106.0
128.0,130.0,126.0,127.0,127.0,149.0,127.0,128.0,24.0,-96.0,-79.0,127.0,127.0,127.0,106.0,86.0,-106.0
128.0,130.0,126.0,127.0,127.0,150.0,127.0,128.0,24.0,-96.0,-79.0,127.0,127.0,127.0,106.0,86.0,-106.0
128.0,131.0,126.0,127.0,127.0,150.0,127.0,128.0,24.0,-96.0,-79.0,127.0,127.0,127.0,106.0,86.0,-106.0
127.0,128.0,127.0,126.0,126.0,149.0,127.0,128.0,24.0,-96.0,-79.0,127.0,127.0,127.0,106.0,86.0,-106.0
127.0,129.0,127.0,127.0,127.0,150.0,126.0,128.0,24.0,-96.0,-79.0,127.0,127.0,127.0,106.0,86.0,-106.0
127.0,129.0,127.0,127.0,127.0,151.0,126.0,128.0,24.0,-96.0,-79.0,127.0,127.0,127.0,106.0,86.0,-106.0
127.0,129.0,127.0,127.0,127.0,150.0,126.0,128.0,24.0,-96.0,-79.0,127.0,127.0,127.0,106.0,86.0,-106.0
127.0,129.0,127.0,127.0,127.0,150.0,126.0,128.0,24.0,-96.0,-79.0,127.0,127.0,127.0,106.0,86.0,-106.0
127.0,129.0,127.0,127.0,127.0,150.0,126.0,128.0,24.0,-96.0,-79.0,127.0,127.0,127.0,106.0,86.0,-106.0
127.0,129.0,127.0,127.0,127.0,149.0,127.0,128.0,24.0,-96.0,-79.0,127.0,127.0,127.0,106.0,86.0,-106.0
127.0,129.0,126.0,127.0,127.0,150.0,126.0,128.0,24.0,-96.0,-79.0,127.0,127.0,127.0,106.0,86.0,-106.0
127.0,130.0,126.0,128.0,127.0,151.0,127.0,128.0,24.0,-96.0,-79.0,127.0,127.0,127.0,106.0,86.0,-106.0
127.0,128.0,127.0,127.0,127.0,149.0,126.0,127.0,24.0,-96.0,-79.0,127.0,127.0,127.0,106.0,86.0,-106.0
127.0,128.0,127.0,127.0,127.0,149.0,126.0,128.0,24.0,-96.0,-79.0,127.0,127.0,127.0,106.0,86.0,-106.0
127.0,130.0,127.0,127.0,127.0,151.0,126.0,128.0,24.0,-96.0,-79.0,127.0,127.0,127.0,106.0,86.0,-106.0
127.0,130.0,127.0,127.0,127.0,150.0,126.0,128.0,24.0,-96.0,-79.0,127.0,127.0,127.0,106.0,86.0,-106.0
127.0,130.0,127.0,127.0,127.0,150.0,126.0,128.0,24.0,-96.0,-79.0,127.0,127.0,127.0,106.0,86.0,-106.0
127.0,130.0,127.0,127.0,127.0,150.0,126.0,128.0,24.0,-96.0,-79.0,127.0,127.0,127.0,106.0,86.0,-106.0
127.0,130.0,127.0,128.0,127.0,149.0,126.0,128.0,24.0,-96.0,-79.0,127.0,127.0,127.0,106.0,86.0,-106.0
128.0,130.0,126.0,128.0,127.0,150.0,126.0,128.0,24.0,-96.0,-79.0,127.0,127.0,127.0,106.0,86.0,-106.0
127.0,131.0,126.0,128.0,127.0,151.0,126.0,128.0,24.0,-96.0,-79.0,127.0,127.0,127.0,106.0,86.0,-106.0
127.0,129.0,127.0,127.0,127.0,149.0,126.0,127.0,24.0,-96.0,-79.0,127.0,127.0,127.0,106.0,86.0,-106.0
127.0,129.0,127.0,127.0,127.0,149.0,126.0,127.0,24.0,-96.0,-79.0,127.0,127.0,127.0,106.0,86.0,-106.0
127.0,129.0,127.0,127.0,127.0,150.0,126.0,127.0,24.0,-96.0,-79.0,127.0,127.0,127.0,106.0,86.0,-106.0
127.0,129.0,126.0,127.0,127.0,150.0,126.0,127.0,24.0,-96.0,-79.0,127.0,127.0,127.0,106.0,86.0,-106.0
127.0,129.0,126.0,127.0,127.0,150.0,126.0,127.0,24.0,-96.0,-79.0,127.0,127.0,127.0,106.0,86.0,-106.0
127.0,130.0,126.0,127.0,127.0,149.0,126.0,127.0,24.0,-96.0,-79.0,127.0,127.0,127.0,106.0,86.0,-106.0
127.0,130.0,126.0,127.0,127.0,149.0,126.0,127.0,24.0,-96.0,-79.0,127.0,127.0,127.0,106.0,86.0,-106.0
127.0,130.0,126.0,127.0,127.0,149.0,126.0,127.0,24.0,-96.0,-79.0,127.0,127.0,127.0,106.0,86.0,-106.0
127.0,131.0,126.0,127.0,127.0,150.0,126.0,128.0,24.0,-96.0,-79.0,127.0,127.0,127.0,106.0,86.0,-106.0
127.0,128.0,127.0,127.0,127.0,149.0,126.0,127.0,24.0,-96.0,-79.0,127.0,127.0,127.0,106.0,86.0,-106.0
127.0,128.0,127.0,127.0,127.0,149.0,126.0,127.0,24.0,-96.0,-79.0,127.0,127.0,127.0,106.0,86.0,-106.0
127.0,129.0,127.0,127.0,127.0,150.0,126.0,127.0,24.0,-96.0,-79.0,127.0,127.0,127.0,106.0,86.0,-106.0
127.0,129.0,126.0,127.0,127.0,151.0,126.0,127.0,24.0,-96.0,-79.0,127.0,127.0,127.0,106.0,86.0,-106.0
127.0,129.0,127.0,127.0,127.0,149.0,127.0,127.0,24.0,-96.0,-79.0,127.0,127.0,127.0,106.0,86.0,-106.0
127.0,130.0,127.0,127.0,127.0,148.0,127.0,127.0,24.0,-96.0,-79.0,127.0,127.0,127.0,106.0,86.0,-106.0
127.0,130.0,127.0,127.0,127.0,148.0,127.0,127.0,24.0,-96.0,-79.0,127.0,127.0,127.0,106.0,86.0,-106.0
127.0,130.0,127.0,127.0,127.0,147.0,127.0,127.0,24.0,-96.0,-79.0,127.0,127.0,127.0,106.0,86.0,-106.0
127.0,130.0,127.0,127.0,127.0,147.0,127.0,127.0,24.0,-96.0,-79.0,127.0,127.0,127.0,106.0,86.0,-106.0
127.0,129.0,127.0,127.0,127.0,151.0,126.0,127.0,24.0,-96.0,-79.0,127.0,127.0,127.0,106.0,86.0,-106.0
127.0,129.0,127.0,127.0,127.0,151.0,126.0,127.0,24.0,-96.0,-79.0,127.0,127.0,127.0,106.0,86.0,-106.0
127.0,129.0,127.0,127.0,127.0,150.0,126.0,127.0,24.0,-96.0,-79.0,127.0,127.0,127.0,106.0,86.0,-106.0
127.0,129.0,127.0,127.0,127.0,149.0,126.0,127.0,24.0,-96.0,-79.0,127.0,127.0,127.0,106.0,86.0,-106.0
127.0,129.0,127.0,127.0,127.0,149.0,127.0,127.0,24.0,-96.0,-79.0,127.0,127.0,127.0,106.0,86.0,-106.0
127.0,130.0,127.0,127.0,127.0,148.0,127.0,127.0,24.0,-96.0,-79.0,127.0,127.0,127.0,106.0,86.0,-106.0
127.0,130.0,127.0,127.0,127.0,148.0,127.0,127.0,24.0,-96.0,-79.0,127.0,127.0,127.0,106.0,86.0,-106.0
127.0,130.0,127.0,127.0,127.0,147.0,127.0,127.0,24.0,-96.0,-79.0,127.0,127.0,127.0,106.0,86.0,-106.0
127.0,130.0,127.0,127.0,127.0,150.0,127.0,127.0,24.0,-96.0,-79.0,127.0,127.0,127.0,106.0,86.0,-106.0
127.0,130.0,127.0,127.0,127.0,150.0,127.0,127.0,24.0,-96.0,-79.0,127.0,127.0,127.0,106.0,86.0,-106.0
127.0,130.0,127.0,127.0,127.0,150.0,127.0,127.0,24.0,-96.0,-79.0,127.0,127.0,127.0,106.0,86.0,-106.0
127.0,130.0,127.0,127.0,127.0,150.0,127.0,127.0,24.0,-96.0,-79.0,127.0,127.0,127.0,106.0,86.0,-106.0
127.0,130.0,127.0,127.0,127.0,149.0,127.0,127.0,24.0,-96.0,-79.0,127.0,127.0,127.0,106.0,86.0,-106.0
127.0,130.0,127.0,127.0,127.0,149.0,127.0,127.0,24.0,-96.0,-79.0,127.0,127.0,127.0,106.0,86.0,-106.0
127.0,130.0,127.0,127.0,127.0,149.0,127.0,127.0,24.0,-96.0,-79.0,127.0,127.0,127.0,106.0,86.0,-106.0
128.0,130.0,126.0,127.0,127.0,148.0,127.0,127.0,24.0,-96.0,-79.0,127.0,127.0,127.0,106.0,86.0,-106.0
128.0,130.0,126.0,127.0,127.0,148.0,127.0,127.0,24.0,-96.0,-79.0,127.0,127.0,127.0,106.0,86.0,-106.0
127.0,129.0,127.0,127.0,127.0,151.0,127.0,127.0,24.0,-96.0,-79.0,127.0,127.0,127.0,106.0,86.0,-106.0
127.0,129.0,127.0,127.0,127.0,151.0,127.0,127.0,24.0,-96.0,-79.0,127.0,127.0,127.0,106.0,86.0,-106.0
128.0,130.0,127.0,127.0,127.0,151.0,127.0,127.0,24.0,-96.0,-79.0,127.0,127.0,127.0,106.0,86.0,-106.0
128.0,130.0,127.0,127.0,127.0,150.0,127.0,127.0,24.0,-96.0,-79.0,127.0,127.0,127.0,106.0,86.0,-106.0
127.0,130.0,127.0,127.0,127.0,150.0,127.0,127.0,24.0,-96.0,-79.0,127.0,127.0,127.0,106.0,86.0,-106.0
128.0,130.0,127.0,127.0,127.0,150.0,127.0,127.0,24.0,-96.0,-79.0,127.0,127.0,127.0,106.0,86.0,-106.0
128.0,130.0,127.0,127.0,127.0,149.0,127.0,127.0,24.0,-96.0,-79.0,127.0,127.0,127.0,106.0,86.0,-106.0
128.0,129.0,127.0,127.0,127.0,148.0,127.0,127.0,24.0,-96.0,-79.0,127.0,127.0,127.0,106.0,86.0,-106.0
128.0,131.0,126.0,127.0,127.0,149.0,127.0,127.0,24.0,-96.0,-78.0,127.0,127.0,127.0,106.0,86.0,-106.0
127.0,129.0,127.0,126.0,126.0,148.0,126.0,127.0,24.0,-96.0,-78.0,127.0,127.0,127.0,106.0,86.0,-106.0
128.0,129.0,127.0,127.0,127.0,150.0,127.0,127.0,24.0,-96.0,-78.0,127.0,127.0,127.0,106.0,86.0,-106.0
128.0,130.0,126.0,127.0,127.0,150.0,127.0,127.0,24.0,-96.0,-78.0,127.0,127.0,127.0,106.0,86.0,-106.0
128.0,130.0,126.0,127.0,127.0,149.0,127.0,127.0,24.0,-96.0,-78.0,127.0,127.0,127.0,106.0,86.0,-106.0
128.0,130.0,126.0,127.0,127.0,149.0,127.0,127.0,24.0,-96.0,-78.0,127.0,127.0,127.0,106.0,86.0,-106.0
128.0,130.0,127.0,127.0,127.0,149.0,127.0,127.0,24.0,-96.0,-78.0,127.0,127.0,127.0,106.0,86.0,-106.0
128.0,130.0,127.0,127.0,127.0,148.0,127.0,127.0,24.0,-96.0,-78.0,127.0,127.0,127.0,106.0,86.0,-106.0
128.0,130.0,126.0,127.0,127.0,150.0,127.0,127.0,24.0,-96.0,-78.0,127.0,127.0,127.0,106.0,86.0,-106.0
128.0,130.0,126.0,127.0,127.0,150.0,127.0,128.0,24.0,-96.0,-78.0,127.0,127.0,127.0,106.0,86.0,-106.0
127.0,129.0,127.0,127.0,126.0,148.0,126.0,128.0,24.0,-96.0,-78.0,127.0,127.0,127.0,106.0,86.0,-106.0
128.0,130.0,127.0,127.0,127.0,150.0,126.0,128.0,24.0,-96.0,-78.0,127.0,127.0,127.0,106.0,86.0,-106.0
128.0,130.0,127.0,127.0,127.0,150.0,126.0,128.0,24.0,-96.0,-78.0,127.0,127.0,127.0,106.0,86.0,-106.0
128.0,130.0,127.0,127.0,127.0,149.0,127.0,128.0,24.0,-96.0,-78.0,127.0,127.0,127.0,106.0,86.0,-106.0
128.0,130.0,127.0,127.0,127.0,149.0,127.0,128.0,24.0,-96.0,-78.0,127.0,127.0,127.0,106.0,86.0,-106.0
128.0,130.0,127.0,127.0,127.0,149.0,127.0,128.0,24.0,-96.0,-78.0,127.0,127.0,127.0,106.0,86.0,-106.0
128.0,130.0,127.0,127.0,127.0,149.0,127.0,128.0,24.0,-96.0,-78.0,127.0,127.0,127.0,106.0,86.0,-106.0
128.0,131.0,127.0,127.0,127.0,149.0,127.0,128.0,24.0,-96.0,-78.0,127.0,127.0,127.0,106.0,86.0,-106.0
128.0,131.0,127.0,128.0,127.0,150.0,127.0,128.0,24.0,-96.0,-78.0,127.0,127.0,127.0,106.0,86.0,-106.0
128.0,131.0,127.0,128.0,127.0,149.0,127.0,128.0,24.0,-96.0,-78.0,127.0,127.0,127.0,106.0,86.0,-106.0
127.0,130.0,127.0,127.0,127.0,149.0,127.0,127.0,24.0,-96.0,-79.0,127.0,127.0,127.0,106.0,86.0,-106.0
128.0,130.0,127.0,127.0,127.0,150.0,127.0,128.0,24.0,-96.0,-79.0,127.0,127.0,127.0,106.0,86.0,-106.0
128.0,130.0,127.0,128.0,127.0,149.0,127.0,128.0,24.0,-96.0,-79.0,127.0,127.0,127.0,106.0,86.0,-106.0
128.0,130.0,127.0,128.0,127.0,149.0,127.0,128.0,24.0,-96.0,-79.0,127.0,127.0,127.0,106.0,86.0,-106.0
128.0,130.0,127.0,128.0,127.0,149.0,127.0,128.0,24.0,-96.0,-79.0,127.0,127.0,127.0,106.0,86.0,-106.0
128.0,130.0,127.0,128.0,127.0,148.0,127.0,128.0,24.0,-96.0,-79.0,127.0,127.0,127.0,106.0,86.0,-106.0
128.0,130.0,127.0,128.0,127.0,148.0,127.0,128.0,24.0,-96.0,-79.0,127.0,127.0,127.0,106.0,86.0,-106.0
128.0,130.0,127.0,128.0,127.0,147.0,127.0,128.0,24.0,-96.0,-79.0,127.0,127.0,127.0,106.0,86.0,-106.0
128.0,130.0,127.0,128.0,127.0,147.0,127.0,128.0,24.0,-96.0,-79.0,127.0,127.0,127.0,106.0,86.0,-106.0
127.0,129.0,128.0,127.0,127.0,148.0,127.0,127.0,24.0,-96.0,-79.0,127.0,127.0,127.0,106.0,86.0,-106.0
128.0,130.0,127.0,128.0,127.0,150.0,127.0,127.0,24.0,-96.0,-79.0,127.0,127.0,127.0,106.0,86.0,-106.0
128.0,130.0,126.0,128.0,127.0,150.0,127.0,127.0,24.0,-96.0,-79.0,127.0,127.0,127.0,106.0,86.0,-106.0
128.0,130.0,127.0,128.0,127.0,149.0,127.0,127.0,24.0,-96.0,-79.0,127.0,127.0,127.0,106.0,86.0,-106.0
128.0,130.0,127.0,128.0,127.0,149.0,127.0,127.0,24.0,-96.0,-79.0,127.0,127.0,127.0,106.0,86.0,-106.0
128.0,130.0,127.0,128.0,127.0,149.0,127.0,127.0,24.0,-96.0,-79.0,127.0,127.0,127.0,106.0,86.0,-106.0
128.0,130.0,127.0,128.0,127.0,148.0,127.0,127.0,24.0,-96.0,-79.0,127.0,127.0,127.0,106.0,86.0,-106.0
128.0,130.0,127.0,128.0,127.0,148.0,127.0,127.0,24.0,-96.0,-79.0,127.0,127.0,127.0,106.0,86.0,-106.0
128.0,130.0,127.0,128.0,127.0,147.0,127.0,127.0,24.0,-96.0,-79.0,127.0,127.0,127.0,106.0,86.0,-106.0
128.0,129.0,127.0,128.0,126.0,149.0,127.0,127.0,24.0,-96.0,-79.0,127.0,127.0,127.0,106.0,86.0,-106.0
128.0,130.0,127.0,128.0,127.0,150.0,127.0,128.0,24.0,-96.0,-79.0,127.0,127.0,127.0,106.0,86.0,-106.0
128.0,129.0,127.0,127.0,126.0,150.0,127.0,128.0,24.0,-95.0,-79.0,127.0,127.0,127.0,106.0,86.0,-106.0
128.0,129.0,128.0,128.0,126.0,150.0,127.0,128.0,24.0,-95.0,-79.0,127.0,127.0,127.0,106.0,86.0,-106.0
128.0,129.0,128.0,128.0,126.0,149.0,127.0,128.0,24.0,-95.0,-79.0,127.0,127.0,127.0,106.0,86.0,-106.0
128.0,129.0,128.0,128.0,126.0,149.0,127.0,128.0,24.0,-95.0,-79.0,127.0,127.0,127.0,106.0,86.0,-106.0
128.0,129.0,128.0,129.0,127.0,149.0,127.0,128.0,24.0,-95.0,-79.0,127.0,127.0,127.0,106.0,86.0,-106.0
128.0,129.0,128.0,129.0,127.0,148.0,127.0,128.0,24.0,-95.0,-79.0,127.0,127.0,127.0,106.0,86.0,-106.0
128.0,129.0,128.0,129.0,127.0,148.0,127.0,128.0,24.0,-95.0,-79.0,127.0,127.0,127.0,106.0,86.0,-106.0
127.0,128.0,127.0,127.0,126.0,149.0,127.0,127.0,24.0,-95.0,-79.0,127.0,127.0,127.0,106.0,86.0,-106.0
127.0,129.0,127.0,127.0,126.0,150.0,127.0,128.0,24.0,-95.0,-79.0,127.0,127.0,127.0,106.0,86.0,-106.0
127.0,129.0,127.0,127.0,126.0,150.0,127.0,128.0,24.0,-95.0,-79.0,127.0,127.0,127.0,106.0,86.0,-106.0
127.0,130.0,125.0,131.0,127.0,150.0,127.0,128.0,24.0,-95.0,-79.0,127.0,127.0,127.0,106.0,86.0,-106.0
128.0,130.0,125.0,132.0,127.0,149.0,127.0,127.0,24.0,-95.0,-79.0,127.0,127.0,127.0,106.0,86.0,-106.0
127.0,130.0,125.0,132.0,127.0,149.0,127.0,128.0,24.0,-95.0,-79.0,127.0,127.0,127.0,106.0,86.0,-106.0
127.0,130.0,125.0,132.0,127.0,149.0,127.0,128.0,24.0,-95.0,-79.0,127.0,127.0,127.0,106.0,86.0,-106.0
128.0,130.0,124.0,132.0,127.0,148.0,127.0,128.0,24.0,-95.0,-79.0,127.0,127.0,127.0,106.0,86.0,-106.0
127.0,130.0,124.0,132.0,127.0,148.0,127.0,128.0,24.0,-95.0,-79.0,127.0,127.0,127.0,106.0,86.0,-106.0
128.0,129.0,126.0,131.0,127.0,149.0,127.0,128.0,24.0,-95.0,-79.0,127.0,127.0,127.0,106.0,86.0,-106.0
127.0,130.0,126.0,131.0,127.0,150.0,127.0,127.0,24.0,-95.0,-79.0,127.0,127.0,127.0,106.0,86.0,-106.0
127.0,130.0,126.0,131.0,127.0,150.0,127.0,128.0,24.0,-95.0,-79.0,127.0,127.0,127.0,106.0,86.0,-106.0
127.0,130.0,126.0,131.0,127.0,150.0,127.0,128.0,24.0,-95.0,-79.0,127.0,127.0,127.0,106.0,86.0,-106.0
128.0,130.0,109.0,129.0,125.0,149.0,127.0,128.0,24.0,-95.0,-79.0,127.0,127.0,127.0,106.0,86.0,-106.0
128.0,130.0,108.0,129.0,125.0,148.0,127.0,127.0,24.0,-95.0,-79.0,127.0,127.0,127.0,106.0,86.0,-106.0
128.0,129.0,107.0,129.0,125.0,148.0,127.0,127.0,24.0,-95.0,-79.0,127.0,127.0,127.0,106.0,86.0,-106.0
128.0,129.0,106.0,130.0,125.0,147.0,127.0,127.0,24.0,-95.0,-79.0,127.0,127.0,127.0,106.0,86.0,-106.0
128.0,129.0,105.0,131.0,125.0,147.0,127.0,127.0,24.0,-95.0,-79.0,127.0,127.0,127.0,106.0,86.0,-106.0
128.0,131.0,111.0,129.0,125.0,149.0,127.0,128.0,24.0,-95.0,-79.0,127.0,127.0,127.0,106.0,86.0,-106.0
128.0,131.0,111.0,129.0,125.0,149.0,127.0,128.0,24.0,-95.0,-79.0,127.0,127.0,127.0,106.0,86.0,-106.0
128.0,131.0,111.0,130.0,125.0,150.0,127.0,128.0,24.0,-95.0,-79.0,127.0,127.0,127.0,106.0,86.0,-106.0
128.0,131.0,111.0,130.0,125.0,150.0,127.0,128.0,24.0,-95.0,-79.0,127.0,127.0,127.0,106.0,86.0,-106.0
128.0,131.0,111.0,130.0,125.0,149.0,127.0,128.0,24.0,-95.0,-79.0,127.0,127.0,127.0,106.0,86.0,-106.0
128.0,127.0,22.0,144.0,127.0,144.0,127.0,127.0,24.0,-95.0,-79.0,127.0,127.0,127.0,106.0,86.0,-106.0
127.0,127.0,22.0,142.0,126.0,143.0,127.0,128.0,24.0,-95.0,-79.0,127.0,127.0,127.0,106.0,86.0,-106.0
127.0,126.0,22.0,141.0,126.0,143.0,127.0,128.0,24.0,-95.0,-79.0,127.0,127.0,127.0,106.0,86.0,-106.0
127.0,126.0,22.0,139.0,125.0,142.0,127.0,128.0,24.0,-95.0,-79.0,127.0,127.0,127.0,106.0,86.0,-106.0
127.0,127.0,32.0,142.0,126.0,145.0,126.0,124.0,24.0,-95.0,-79.0,127.0,127.0,127.0,106.0,86.0,-106.0
127.0,127.0,30.0,144.0,127.0,145.0,126.0,124.0,24.0,-95.0,-79.0,127.0,127.0,127.0,106.0,86.0,-106.0
128.0,127.0,28.0,146.0,127.0,146.0,126.0,124.0,24.0,-95.0,-79.0,127.0,127.0,127.0,106.0,86.0,-106.0
128.0,127.0,26.0,146.0,127.0,145.0,126.0,125.0,24.0,-95.0,-79.0,127.0,127.0,127.0,106.0,86.0,-106.0
128.0,127.0,24.0,146.0,127.0,145.0,126.0,126.0,24.0,-95.0,-79.0,127.0,127.0,127.0,106.0,86.0,-106.0
128.0,127.0,23.0,146.0,127.0,144.0,127.0,126.0,24.0,-95.0,-79.0,127.0,127.0,127.0,106.0,86.0,-106.0
127.0,115.0,31.0,176.0,136.0,126.0,131.0,131.0,24.0,-95.0,-79.0,127.0,127.0,127.0,106.0,86.0,-106.0
127.0,115.0,37.0,175.0,137.0,125.0,132.0,131.0,24.0,-95.0,-79.0,127.0,127.0,127.0,106.0,86.0,-106.0
127.0,115.0,42.0,173.0,136.0,124.0,132.0,131.0,24.0,-95.0,-79.0,127.0,127.0,127.0,106.0,86.0,-106.0
124.0,116.0,1.0,166.0,134.0,129.0,129.0,123.0,24.0,-95.0,-79.0,127.0,127.0,127.0,106.0,86.0,-106.0
124.0,116.0,3.0,168.0,135.0,129.0,129.0,124.0,24.0,-95.0,-79.0,127.0,127.0,127.0,106.0,86.0,-106.0
125.0,116.0,5.0,170.0,135.0,128.0,130.0,126.0,24.0,-95.0,-79.0,127.0,127.0,127.0,106.0,86.0,-106.0
125.0,116.0,8.0,172.0,135.0,128.0,130.0,128.0,24.0,-95.0,-79.0,127.0,127.0,127.0,106.0,86.0,-106.0
126.0,116.0,13.0,173.0,135.0,127.0,130.0,130.0,24.0,-95.0,-79.0,127.0,127.0,127.0,106.0,86.0,-106.0
126.0,116.0,18.0,175.0,136.0,128.0,131.0,131.0,24.0,-95.0,-79.0,127.0,127.0,127.0,106.0,86.0,-106.0
127.0,116.0,24.0,176.0,136.0,128.0,131.0,131.0,24.0,-95.0,-79.0,127.0,127.0,127.0,106.0,86.0,-106.0
126.0,105.0,210.0,159.0,134.0,118.0,134.0,131.0,24.0,-96.0,-78.0,-128.0,127.0,127.0,106.0,86.0,-106.0
125.0,106.0,207.0,158.0,134.0,117.0,135.0,131.0,24.0,-96.0,-78.0,-128.0,127.0,127.0,106.0,86.0,-106.0
127.0,102.0,221.0,144.0,132.0,121.0,131.0,126.0,24.0,-96.0,-78.0,-128.0,127.0,127.0,106.0,86.0,-106.0
127.0,102.0,219.0,147.0,131.0,121.0,132.0,128.0,24.0,-96.0,-78.0,-128.0,127.0,127.0,106.0,86.0,-106.0
127.0,103.0,216.0,150.0,132.0,121.0,132.0,129.0,24.0,-96.0,-78.0,-128.0,127.0,127.0,106.0,86.0,-106.0
127.0,103.0,215.0,153.0,132.0,121.0,133.0,130.0,24.0,-96.0,-78.0,-128.0,127.0,127.0,106.0,86.0,-106.0
126.0,104.0,214.0,156.0,133.0,120.0,133.0,131.0,24.0,-96.0,-78.0,-128.0,127.0,127.0,106.0,86.0,-106.0
126.0,104.0,213.0,157.0,133.0,120.0,133.0,131.0,24.0,-96.0,-78.0,-128.0,127.0,127.0,106.0,86.0,-106.0
126.0,104.0,212.0,158.0,133.0,119.0,133.0,131.0,24.0,-96.0,-78.0,-128.0,127.0,127.0,106.0,86.0,-106.0
126.0,105.0,211.0,159.0,133.0,118.0,134.0,131.0,24.0,-96.0,-78.0,-128.0,127.0,127.0,106.0,86.0,-106.0
147.0,132.0,0.0,156.0,124.0,0.0,134.0,133.0,25.0,-97.0,-79.0,-128.0,127.0,127.0,106.0,86.0,-106.0
141.0,125.0,1.0,159.0,121.0,59.0,135.0,136.0,25.0,-97.0,-79.0,-128.0,127.0,127.0,106.0,86.0,-106.0
142.0,126.0,0.0,158.0,122.0,53.0,135.0,136.0,25.0,-97.0,-79.0,-128.0,127.0,127.0,106.0,86.0,-106.0
143.0,127.0,0.0,156.0,122.0,48.0,135.0,136.0,25.0,-97.0,-79.0,-128.0,127.0,127.0,106.0,86.0,-106.0
144.0,128.0,0.0,155.0,122.0,41.0,135.0,136.0,25.0,-97.0,-79.0,-128.0,127.0,127.0,106.0,86.0,-106.0
145.0,129.0,0.0,154.0,123.0,34.0,135.0,135.0,25.0,-97.0,-79.0,-128.0,127.0,127.0,106.0,86.0,-106.0
145.0,130.0,0.0,154.0,123.0,26.0,135.0,135.0,25.0,-97.0,-79.0,-128.0,127.0,127.0,106.0,86.0,-106.0
145.0,131.0,0.0,154.0,123.0,18.0,135.0,135.0,25.0,-97.0,-79.0,-128.0,127.0,127.0,106.0,86.0,-106.0
146.0,131.0,0.0,154.0,123.0,10.0,134.0,134.0,25.0,-97.0,-79.0,-128.0,127.0,127.0,106.0,86.0,-106.0
146.0,131.0,0.0,154.0,124.0,1.0,134.0,133.0,25.0,-97.0,-79.0,-128.0,127.0,127.0,106.0,86.0,-106.0
157.0,100.0,254.0,163.0,127.0,0.0,128.0,121.0,25.0,-97.0,-81.0,-128.0,127.0,127.0,106.0,86.0,-106.0
158.0,97.0,254.0,165.0,128.0,0.0,128.0,121.0,25.0,-97.0,-81.0,-128.0,127.0,127.0,106.0,86.0,-106.0
159.0,96.0,254.0,166.0,128.0,0.0,128.0,121.0,25.0,-97.0,-81.0,-128.0,127.0,127.0,106.0,86.0,-106.0
160.0,94.0,254.0,167.0,129.0,0.0,128.0,122.0,25.0,-97.0,-81.0,-128.0,127.0,127.0,106.0,86.0,-106.0
161.0,92.0,254.0,168.0,129.0,0.0,128.0,121.0,25.0,-97.0,-81.0,-128.0,127.0,127.0,106.0,86.0,-106.0
162.0,90.0,254.0,167.0,130.0,0.0,128.0,121.0,25.0,-97.0,-81.0,-128.0,127.0,127.0,106.0,86.0,-106.0
163.0,88.0,254.0,166.0,130.0,0.0,128.0,121.0,25.0,-97.0,-81.0,-128.0,127.0,127.0,106.0,86.0,-106.0
164.0,86.0,254.0,163.0,130.0,0.0,128.0,121.0,25.0,-97.0,-81.0,-128.0,127.0,127.0,106.0,86.0,-106.0
166.0,83.0,254.0,159.0,129.0,0.0,128.0,121.0,25.0,-97.0,-81.0,-128.0,127.0,127.0,106.0,86.0,-106.0
167.0,81.0,254.0,156.0,128.0,0.0,127.0,122.0,25.0,-97.0,-81.0,-128.0,127.0,127.0,106.0,86.0,-106.0
181.0,11.0,0.0,135.0,126.0,0.0,137.0,134.0,27.0,-96.0,-82.0,-127.0,127.0,127.0,106.0,86.0,-106.0
181.0,11.0,0.0,134.0,126.0,0.0,137.0,134.0,27.0,-96.0,-82.0,-127.0,127.0,127.0,106.0,86.0,-106.0
180.0,11.0,0.0,132.0,126.0,0.0,138.0,133.0,27.0,-96.0,-82.0,-127.0,127.0,127.0,106.0,86.0,-106.0
180.0,11.0,0.0,129.0,127.0,0.0,139.0,133.0,27.0,-96.0,-82.0,-127.0,127.0,127.0,106.0,86.0,-106.0
180.0,11.0,0.0,127.0,127.0,0.0,140.0,133.0,27.0,-96.0,-82.0,-127.0,127.0,127.0,106.0,86.0,-106.0
179.0,11.0,0.0,124.0,127.0,0.0,140.0,132.0,27.0,-96.0,-82.0,-127.0,127.0,127.0,106.0,86.0,-106.0
179.0,11.0,0.0,122.0,127.0,0.0,141.0,132.0,27.0,-96.0,-82.0,-127.0,127.0,127.0,106.0,86.0,-106.0
178.0,11.0,0.0,120.0,126.0,0.0,141.0,132.0,27.0,-96.0,-82.0,-127.0,127.0,127.0,106.0,86.0,-106.0
178.0,12.0,0.0,117.0,126.0,0.0,142.0,132.0,27.0,-96.0,-82.0,-127.0,127.0,127.0,106.0,86.0,-106.0
182.0,11.0,0.0,135.0,126.0,0.0,136.0,134.0,27.0,-96.0,-82.0,-127.0,127.0,127.0,106.0,86.0,-106.0
158.0,61.0,0.0,106.0,118.0,0.0,129.0,114.0,24.0,-96.0,-81.0,-127.0,127.0,127.0,106.0,86.0,-106.0
157.0,63.0,0.0,106.0,117.0,0.0,127.0,113.0,24.0,-96.0,-81.0,-127.0,127.0,127.0,106.0,86.0,-106.0
155.0,65.0,0.0,106.0,117.0,0.0,126.0,112.0,24.0,-96.0,-81.0,-127.0,127.0,127.0,106.0,86.0,-106.0
154.0,67.0,0.0,106.0,116.0,0.0,124.0,112.0,24.0,-96.0,-81.0,-127.0,127.0,127.0,106.0,86.0,-106.0
153.0,68.0,0.0,107.0,116.0,0.0,123.0,111.0,24.0,-96.0,-81.0,-127.0,127.0,127.0,106.0,86.0,-106.0
152.0,70.0,0.0,108.0,115.0,0.0,122.0,111.0,24.0,-96.0,-81.0,-127.0,127.0,127.0,106.0,86.0,-106.0
151.0,72.0,1.0,109.0,115.0,0.0,120.0,111.0,24.0,-96.0,-81.0,-127.0,127.0,127.0,106.0,86.0,-106.0
161.0,56.0,0.0,109.0,120.0,0.0,133.0,116.0,24.0,-96.0,-81.0,-127.0,127.0,127.0,106.0,86.0,-106.0
160.0,58.0,0.0,108.0,120.0,0.0,132.0,115.0,24.0,-96.0,-81.0,-127.0,127.0,127.0,106.0,86.0,-106.0
159.0,59.0,0.0,107.0,119.0,0.0,130.0,114.0,24.0,-96.0,-81.0,-127.0,127.0,127.0,106.0,86.0,-106.0
136.0,114.0,254.0,110.0,123.0,0.0,95.0,111.0,22.0,-93.0,-80.0,-127.0,126.0,127.0,106.0,86.0,-106.0
136.0,114.0,254.0,109.0,123.0,0.0,96.0,111.0,22.0,-93.0,-80.0,-127.0,126.0,127.0,106.0,86.0,-106.0
135.0,115.0,254.0,108.0,123.0,0.0,96.0,111.0,22.0,-93.0,-80.0,-127.0,126.0,127.0,106.0,86.0,-106.0
135.0,115.0,254.0,107.0,124.0,0.0,97.0,112.0,22.0,-93.0,-80.0,-127.0,126.0,127.0,106.0,86.0,-106.0
135.0,116.0,254.0,105.0,124.0,0.0,98.0,112.0,22.0,-93.0,-80.0,-127.0,126.0,127.0,106.0,86.0,-106.0
135.0,116.0,254.0,103.0,124.0,0.0,98.0,112.0,22.0,-93.0,-80.0,-127.0,126.0,127.0,106.0,86.0,-106.0
136.0,112.0,254.0,113.0,125.0,0.0,95.0,111.0,22.0,-93.0,-80.0,-127.0,126.0,127.0,106.0,86.0,-106.0
136.0,112.0,254.0,112.0,125.0,0.0,95.0,111.0,22.0,-93.0,-80.0,-127.0,126.0,127.0,106.0,86.0,-106.0
136.0,112.0,254.0,111.0,124.0,0.0,95.0,111.0,22.0,-93.0,-80.0,-127.0,126.0,127.0,106.0,86.0,-106.0
136.0,113.0,254.0,111.0,124.0,0.0,95.0,111.0,22.0,-93.0,-80.0,-127.0,126.0,127.0,106.0,86.0,-106.0
139.0,108.0,254.0,95.0,131.0,43.0,118.0,114.0,23.0,-90.0,-80.0,-128.0,126.0,127.0,105.0,86.0,-106.0
139.0,107.0,254.0,94.0,132.0,44.0,119.0,114.0,23.0,-90.0,-80.0,-128.0,126.0,127.0,105.0,86.0,-106.0
139.0,107.0,254.0,94.0,132.0,46.0,120.0,114.0,23.0,-90.0,-80.0,-128.0,126.0,127.0,105.0,86.0,-106.0
139.0,106.0,254.0,94.0,132.0,47.0,120.0,114.0,23.0,-90.0,-80.0,-128.0,126.0,127.0,105.0,86.0,-106.0
139.0,106.0,254.0,93.0,132.0,49.0,120.0,113.0,23.0,-90.0,-80.0,-128.0,126.0,127.0,105.0,86.0,-106.0
135.0,107.0,254.0,99.0,128.0,33.0,115.0,113.0,23.0,-90.0,-80.0,-128.0,126.0,127.0,105.0,86.0,-106.0
136.0,108.0,254.0,99.0,128.0,35.0,116.0,113.0,23.0,-90.0,-80.0,-128.0,126.0,127.0,105.0,86.0,-106.0
137.0,108.0,254.0,98.0,129.0,37.0,116.0,114.0,23.0,-90.0,-80.0,-128.0,126.0,127.0,105.0,86.0,-106.0
138.0,108.0,254.0,97.0,130.0,39.0,117.0,114.0,23.0,-90.0,-80.0,-128.0,126.0,127.0,105.0,86.0,-106.0
138.0,108.0,254.0,96.0,131.0,42.0,118.0,114.0,23.0,-90.0,-80.0,-128.0,126.0,127.0,105.0,86.0,-106.0
150.0,97.0,254.0,91.0,129.0,109.0,122.0,115.0,22.0,-93.0,-80.0,-128.0,126.0,127.0,105.0,86.0,-106.0
150.0,98.0,254.0,92.0,129.0,111.0,122.0,115.0,22.0,-93.0,-80.0,-128.0,126.0,127.0,105.0,86.0,-106.0
150.0,98.0,254.0,93.0,129.0,112.0,122.0,115.0,22.0,-93.0,-80.0,-128.0,126.0,127.0,105.0,86.0,-106.0
151.0,98.0,254.0,94.0,129.0,112.0,122.0,114.0,22.0,-93.0,-80.0,-128.0,126.0,127.0,105.0,86.0,-106.0
147.0,96.0,254.0,99.0,130.0,105.0,122.0,114.0,22.0,-93.0,-80.0,-128.0,126.0,127.0,105.0,86.0,-106.0
147.0,96.0,254.0,97.0,130.0,105.0,122.0,115.0,22.0,-93.0,-80.0,-128.0,126.0,127.0,105.0,86.0,-106.0
148.0,97.0,254.0,95.0,130.0,106.0,122.0,115.0,22.0,-93.0,-80.0,-128.0,126.0,127.0,105.0,86.0,-106.0
148.0,97.0,254.0,93.0,130.0,107.0,122.0,116.0,22.0,-93.0,-80.0,-128.0,126.0,127.0,105.0,86.0,-106.0
149.0,97.0,254.0,92.0,130.0,107.0,122.0,116.0,22.0,-93.0,-80.0,-128.0,126.0,127.0,105.0,86.0,-106.0
149.0,97.0,254.0,91.0,130.0,108.0,122.0,115.0,22.0,-93.0,-80.0,-128.0,126.0,127.0,105.0,86.0,-106.0
148.0,105.0,254.0,103.0,131.0,119.0,125.0,121.0,22.0,-94.0,-80.0,-128.0,126.0,127.0,105.0,86.0,-106.0
148.0,105.0,254.0,102.0,131.0,119.0,125.0,120.0,22.0,-94.0,-80.0,-128.0,126.0,127.0,105.0,86.0,-106.0
148.0,105.0,254.0,102.0,131.0,118.0,125.0,120.0,22.0,-94.0,-80.0,-128.0,126.0,127.0,105.0,86.0,-106.0
149.0,104.0,254.0,103.0,129.0,121.0,123.0,121.0,22.0,-94.0,-80.0,-128.0,126.0,127.0,105.0,86.0,-106.0
149.0,104.0,254.0,103.0,130.0,121.0,123.0,121.0,22.0,-94.0,-80.0,-128.0,126.0,127.0,105.0,86.0,-106.0
149.0,105.0,254.0,103.0,130.0,121.0,124.0,121.0,22.0,-94.0,-80.0,-128.0,126.0,127.0,105.0,86.0,-106.0
149.0,105.0,254.0,103.0,130.0,121.0,124.0,121.0,22.0,-94.0,-80.0,-128.0,126.0,127.0,105.0,86.0,-106.0
149.0,105.0,254.0,103.0,131.0,120.0,124.0,120.0,22.0,-94.0,-80.0,-128.0,126.0,127.0,105.0,86.0,-106.0
148.0,105.0,254.0,103.0,131.0,120.0,124.0,120.0,22.0,-94.0,-80.0,-128.0,126.0,127.0,105.0,86.0,-106.0
148.0,105.0,254.0,103.0,131.0,119.0,124.0,121.0,22.0,-94.0,-80.0,-128.0,126.0,127.0,105.0,86.0,-106.0
123.0,107.0,254.0,106.0,128.0,124.0,124.0,123.0,24.0,-95.0,-80.0,-128.0,127.0,127.0,105.0,86.0,-106.0
123.0,107.0,254.0,106.0,127.0,123.0,124.0,124.0,24.0,-95.0,-80.0,-128.0,127.0,127.0,105.0,86.0,-106.0
127.0,104.0,254.0,109.0,127.0,127.0,123.0,117.0,24.0,-95.0,-80.0,-128.0,127.0,127.0,105.0,86.0,-106.0
127.0,105.0,254.0,110.0,127.0,128.0,123.0,117.0,24.0,-95.0,-80.0,-128.0,127.0,127.0,105.0,86.0,-106.0
126.0,105.0,254.0,109.0,127.0,128.0,123.0,117.0,24.0,-95.0,-80.0,-128.0,127.0,127.0,105.0,86.0,-106.0
126.0,105.0,254.0,109.0,127.0,127.0,124.0,118.0,24.0,-95.0,-80.0,-128.0,127.0,127.0,105.0,86.0,-106.0
125.0,105.0,254.0,108.0,127.0,126.0,124.0,120.0,24.0,-95.0,-80.0,-128.0,127.0,127.0,105.0,86.0,-106.0
125.0,106.0,254.0,107.0,128.0,126.0,124.0,121.0,24.0,-95.0,-80.0,-128.0,127.0,127.0,105.0,86.0,-106.0
124.0,106.0,254.0,107.0,128.0,125.0,124.0,122.0,24.0,-95.0,-80.0,-128.0,127.0,127.0,105.0,86.0,-106.0
124.0,107.0,254.0,106.0,128.0,124.0,124.0,122.0,24.0,-95.0,-80.0,-128.0,127.0,127.0,105.0,86.0,-106.0
111.0,115.0,137.0,97.0,124.0,122.0,126.0,123.0,24.0,-96.0,-79.0,-128.0,127.0,127.0,105.0,86.0,-106.0
112.0,112.0,169.0,99.0,122.0,124.0,125.0,122.0,24.0,-96.0,-79.0,-128.0,127.0,127.0,105.0,86.0,-106.0
112.0,113.0,165.0,100.0,122.0,125.0,125.0,122.0,24.0,-96.0,-79.0,-128.0,127.0,127.0,105.0,86.0,-106.0
112.0,113.0,161.0,101.0,122.0,125.0,125.0,122.0,24.0,-96.0,-79.0,-128.0,127.0,127.0,105.0,86.0,-106.0
112.0,114.0,158.0,101.0,122.0,125.0,125.0,123.0,24.0,-96.0,-79.0,-128.0,127.0,127.0,105.0,86.0,-106.0
112.0,114.0,154.0,101.0,123.0,124.0,125.0,123.0,24.0,-96.0,-79.0,-128.0,127.0,127.0,105.0,86.0,-106.0
112.0,114.0,151.0,99.0,123.0,124.0,126.0,123.0,24.0,-96.0,-79.0,-128.0,127.0,127.0,105.0,86.0,-106.0
112.0,114.0,147.0,98.0,123.0,124.0,126.0,124.0,24.0,-96.0,-79.0,-128.0,127.0,127.0,105.0,86.0,-106.0
112.0,114.0,144.0,97.0,124.0,123.0,126.0,124.0,24.0,-96.0,-79.0,-128.0,127.0,127.0,105.0,86.0,-106.0
111.0,115.0,140.0,97.0,124.0,123.0,126.0,123.0,24.0,-96.0,-79.0,-128.0,127.0,127.0,105.0,86.0,-106.0
107.0,116.0,59.0,116.0,127.0,123.0,127.0,112.0,27.0,-95.0,-79.0,-128.0,127.0,127.0,105.0,86.0,-106.0
107.0,117.0,59.0,115.0,128.0,124.0,127.0,114.0,27.0,-95.0,-79.0,-128.0,127.0,127.0,105.0,86.0,-106.0
108.0,118.0,58.0,114.0,129.0,123.0,127.0,116.0,27.0,-95.0,-79.0,-128.0,127.0,127.0,105.0,86.0,-106.0
108.0,118.0,57.0,113.0,129.0,123.0,127.0,117.0,27.0,-95.0,-79.0,-128.0,127.0,127.0,105.0,86.0,-106.0
108.0,118.0,57.0,111.0,129.0,122.0,128.0,118.0,27.0,-95.0,-79.0,-128.0,127.0,127.0,105.0,86.0,-106.0
108.0,119.0,56.0,110.0,129.0,121.0,128.0,118.0,27.0,-95.0,-79.0,-128.0,127.0,127.0,105.0,86.0,-106.0
108.0,119.0,56.0,108.0,129.0,120.0,128.0,119.0,27.0,-95.0,-79.0,-128.0,127.0,127.0,105.0,86.0,-106.0
109.0,119.0,55.0,107.0,129.0,119.0,128.0,119.0,27.0,-95.0,-79.0,-128.0,127.0,127.0,105.0,86.0,-106.0
109.0,119.0,55.0,107.0,129.0,118.0,127.0,120.0,27.0,-95.0,-79.0,-128.0,127.0,127.0,105.0,86.0,-106.0
109.0,120.0,54.0,107.0,129.0,117.0,128.0,121.0,27.0,-95.0,-79.0,-128.0,127.0,127.0,105.0,86.0,-106.0
108.0,124.0,54.0,99.0,124.0,120.0,126.0,122.0,27.0,-95.0,-80.0,-128.0,127.0,127.0,105.0,86.0,-106.0
109.0,124.0,54.0,101.0,124.0,121.0,126.0,122.0,27.0,-95.0,-80.0,-128.0,127.0,127.0,105.0,86.0,-106.0
108.0,124.0,54.0,103.0,124.0,121.0,126.0,122.0,27.0,-95.0,-80.0,-128.0,127.0,127.0,105.0,86.0,-106.0
109.0,124.0,55.0,105.0,125.0,122.0,126.0,122.0,27.0,-95.0,-80.0,-128.0,127.0,127.0,105.0,86.0,-106.0
109.0,125.0,55.0,108.0,125.0,122.0,126.0,122.0,27.0,-95.0,-80.0,-128.0,127.0,127.0,105.0,86.0,-106.0
109.0,125.0,55.0,112.0,125.0,122.0,126.0,122.0,27.0,-95.0,-80.0,-128.0,127.0,127.0,105.0,86.0,-106.0
109.0,125.0,55.0,116.0,126.0,123.0,126.0,122.0,27.0,-95.0,-80.0,-128.0,127.0,127.0,105.0,86.0,-106.0
110.0,126.0,56.0,119.0,126.0,123.0,126.0,122.0,27.0,-95.0,-80.0,-128.0,127.0,127.0,105.0,86.0,-106.0
110.0,126.0,56.0,120.0,126.0,123.0,126.0,122.0,27.0,-95.0,-80.0,-128.0,127.0,127.0,105.0,86.0,-106.0
108.0,124.0,54.0,98.0,124.0,118.0,126.0,122.0,27.0,-95.0,-80.0,-128.0,127.0,127.0,105.0,86.0,-106.0
112.0,127.0,69.0,103.0,127.0,116.0,127.0,120.0,26.0,-94.0,-80.0,127.0,127.0,127.0,105.0,86.0,-106.0
112.0,127.0,69.0,105.0,127.0,115.0,127.0,120.0,26.0,-94.0,-80.0,127.0,127.0,127.0,105.0,86.0,-106.0
112.0,127.0,69.0,106.0,127.0,115.0,127.0,120.0,26.0,-94.0,-80.0,127.0,127.0,127.0,105.0,86.0,-106.0
112.0,127.0,70.0,107.0,127.0,114.0,127.0,120.0,26.0,-94.0,-80.0,127.0,127.0,127.0,105.0,86.0,-106.0
112.0,127.0,70.0,108.0,127.0,114.0,127.0,121.0,26.0,-94.0,-80.0,127.0,127.0,127.0,105.0,86.0,-106.0
112.0,127.0,70.0,108.0,127.0,115.0,127.0,121.0,26.0,-94.0,-80.0,127.0,127.0,127.0,105.0,86.0,-106.0
112.0,128.0,70.0,109.0,127.0,116.0,127.0,121.0,26.0,-94.0,-80.0,127.0,127.0,127.0,105.0,86.0,-106.0
112.0,128.0,71.0,109.0,126.0,115.0,127.0,121.0,26.0,-94.0,-80.0,127.0,127.0,127.0,105.0,86.0,-106.0
112.0,126.0,68.0,99.0,127.0,114.0,127.0,120.0,26.0,-94.0,-80.0,127.0,127.0,127.0,105.0,86.0,-106.0
112.0,127.0,68.0,101.0,127.0,115.0,127.0,120.0,26.0,-94.0,-80.0,127.0,127.0,127.0,105.0,86.0,-106.0
113.0,126.0,82.0,99.0,130.0,114.0,127.0,121.0,25.0,-93.0,-81.0,127.0,127.0,127.0,105.0,86.0,-106.0
113.0,126.0,83.0,98.0,129.0,113.0,127.0,120.0,25.0,-93.0,-81.0,127.0,127.0,127.0,105.0,86.0,-106.0
113.0,126.0,83.0,98.0,129.0,112.0,127.0,120.0,25.0,-93.0,-81.0,127.0,127.0,127.0,105.0,86.0,-106.0
113.0,127.0,83.0,99.0,129.0,112.0,127.0,120.0,25.0,-93.0,-81.0,127.0,127.0,127.0,105.0,86.0,-106.0
114.0,127.0,83.0,100.0,129.0,112.0,127.0,120.0,25.0,-93.0,-81.0,127.0,127.0,127.0,105.0,86.0,-106.0
114.0,128.0,84.0,100.0,129.0,114.0,127.0,120.0,25.0,-93.0,-81.0,127.0,127.0,127.0,105.0,86.0,-106.0
114.0,128.0,84.0,100.0,128.0,114.0,127.0,120.0,25.0,-93.0,-81.0,127.0,127.0,127.0,105.0,86.0,-106.0
113.0,125.0,81.0,103.0,131.0,112.0,127.0,122.0,25.0,-93.0,-81.0,127.0,127.0,127.0,105.0,86.0,-106.0
113.0,125.0,82.0,101.0,131.0,113.0,127.0,121.0,25.0,-93.0,-81.0,127.0,127.0,127.0,105.0,86.0,-106.0
113.0,126.0,82.0,100.0,130.0,114.0,127.0,121.0,25.0,-93.0,-81.0,127.0,127.0,127.0,105.0,86.0,-106.0
117.0,127.0,93.0,105.0,123.0,112.0,126.0,124.0,24.0,-93.0,-81.0,127.0,127.0,127.0,105.0,86.0,-106.0
117.0,127.0,93.0,106.0,124.0,112.0,126.0,123.0,24.0,-93.0,-81.0,127.0,127.0,127.0,105.0,86.0,-106.0
117.0,127.0,93.0,107.0,124.0,112.0,126.0,123.0,24.0,-93.0,-81.0,127.0,127.0,127.0,105.0,86.0,-106.0
117.0,127.0,94.0,108.0,124.0,111.0,126.0,123.0,24.0,-93.0,-81.0,127.0,127.0,127.0,105.0,86.0,-106.0
117.0,126.0,94.0,108.0,124.0,111.0,127.0,123.0,24.0,-93.0,-81.0,127.0,127.0,127.0,105.0,86.0,-106.0
117.0,126.0,94.0,107.0,124.0,111.0,127.0,123.0,24.0,-93.0,-81.0,127.0,127.0,127.0,105.0,86.0,-106.0
117.0,126.0,92.0,101.0,122.0,112.0,126.0,124.0,24.0,-93.0,-81.0,127.0,127.0,127.0,105.0,86.0,-106.0
117.0,126.0,93.0,102.0,122.0,112.0,126.0,124.0,24.0,-93.0,-81.0,127.0,127.0,127.0,105.0,86.0,-106.0
117.0,126.0,93.0,103.0,122.0,112.0,126.0,124.0,24.0,-93.0,-81.0,127.0,127.0,127.0,105.0,86.0,-106.0
117.0,127.0,93.0,104.0,123.0,112.0,126.0,124.0,24.0,-93.0,-81.0,127.0,127.0,127.0,105.0,86.0,-106.0
123.0,125.0,101.0,105.0,126.0,116.0,127.0,124.0,23.0,-93.0,-81.0,127.0,127.0,127.0,105.0,86.0,-106.0
123.0,125.0,101.0,106.0,126.0,117.0,127.0,124.0,23.0,-93.0,-81.0,127.0,127.0,127.0,105.0,86.0,-106.0
123.0,125.0,101.0,108.0,126.0,116.0,128.0,123.0,23.0,-93.0,-81.0,127.0,127.0,127.0,105.0,86.0,-106.0
123.0,125.0,101.0,109.0,126.0,116.0,128.0,123.0,23.0,-93.0,-81.0,127.0,127.0,127.0,105.0,86.0,-106.0
123.0,125.0,102.0,110.0,126.0,116.0,128.0,123.0,23.0,-93.0,-81.0,127.0,127.0,127.0,105.0,86.0,-106.0
122.0,126.0,100.0,106.0,126.0,115.0,127.0,125.0,23.0,-93.0,-81.0,127.0,127.0,127.0,105.0,86.0,-106.0
122.0,125.0,100.0,106.0,126.0,115.0,127.0,124.0,23.0,-93.0,-81.0,127.0,127.0,127.0,105.0,86.0,-106.0
122.0,125.0,100.0,106.0,126.0,115.0,127.0,124.0,23.0,-93.0,-81.0,127.0,127.0,127.0,105.0,86.0,-106.0
122.0,125.0,101.0,105.0,126.0,115.0,127.0,124.0,23.0,-93.0,-81.0,127.0,127.0,127.0,105.0,86.0,-106.0
122.0,125.0,101.0,105.0,126.0,115.0,127.0,124.0,23.0,-93.0,-81.0,127.0,127.0,127.0,105.0,86.0,-106.0
130.0,127.0,107.0,110.0,130.0,116.0,128.0,127.0,23.0,-93.0,-81.0,127.0,127.0,127.0,105.0,86.0,-106.0
130.0,127.0,107.0,109.0,130.0,116.0,128.0,127.0,23.0,-93.0,-81.0,127.0,127.0,127.0,105.0,86.0,-106.0
130.0,127.0,107.0,108.0,130.0,116.0,128.0,127.0,23.0,-93.0,-81.0,127.0,127.0,127.0,105.0,86.0,-106.0
130.0,127.0,108.0,108.0,130.0,115.0,128.0,128.0,23.0,-93.0,-81.0,127.0,127.0,127.0,105.0,86.0,-106.0
128.0,128.0,106.0,111.0,129.0,115.0,127.0,124.0,23.0,-93.0,-81.0,127.0,127.0,127.0,105.0,86.0,-106.0
129.0,128.0,107.0,111.0,129.0,114.0,127.0,124.0,23.0,-93.0,-81.0,127.0,127.0,127.0,105.0,86.0,-106.0
129.0,128.0,107.0,112.0,129.0,114.0,128.0,125.0,23.0,-93.0,-81.0,127.0,127.0,127.0,105.0,86.0,-106.0
129.0,128.0,107.0,111.0,129.0,114.0,128.0,125.0,23.0,-93.0,-81.0,127.0,127.0,127.0,105.0,86.0,-106.0
129.0,127.0,107.0,111.0,130.0,114.0,128.0,126.0,23.0,-93.0,-81.0,127.0,127.0,127.0,105.0,86.0,-106.0
130.0,127.0,107.0,111.0,130.0,116.0,128.0,126.0,23.0,-93.0,-81.0,127.0,127.0,127.0,105.0,86.0,-106.0
127.0,124.0,112.0,89.0,125.0,117.0,126.0,123.0,22.0,-93.0,-82.0,127.0,127.0,127.0,104.0,86.0,-106.0
127.0,123.0,112.0,88.0,124.0,117.0,125.0,123.0,22.0,-93.0,-82.0,127.0,127.0,127.0,104.0,86.0,-106.0
127.0,124.0,111.0,105.0,128.0,116.0,127.0,123.0,22.0,-93.0,-82.0,127.0,127.0,127.0,104.0,86.0,-106.0
127.0,124.0,111.0,106.0,128.0,116.0,127.0,123.0,22.0,-93.0,-82.0,127.0,127.0,127.0,104.0,86.0,-106.0
127.0,124.0,112.0,105.0,128.0,116.0,126.0,123.0,22.0,-93.0,-82.0,127.0,127.0,127.0,104.0,86.0,-106.0
127.0,124.0,112.0,103.0,128.0,115.0,126.0,122.0,22.0,-93.0,-82.0,127.0,127.0,127.0,104.0,86.0,-106.0
127.0,124.0,112.0,101.0,127.0,115.0,126.0,122.0,22.0,-93.0,-82.0,127.0,127.0,127.0,104.0,86.0,-106.0
127.0,124.0,112.0,97.0,127.0,115.0,126.0,122.0,22.0,-93.0,-82.0,127.0,127.0,127.0,104.0,86.0,-106.0
127.0,124.0,112.0,93.0,126.0,117.0,126.0,122.0,22.0,-93.0,-82.0,127.0,127.0,127.0,104.0,86.0,-106.0
127.0,124.0,112.0,90.0,125.0,117.0,126.0,123.0,22.0,-93.0,-82.0,127.0,127.0,127.0,104.0,86.0,-106.0
120.0,124.0,116.0,101.0,125.0,115.0,126.0,125.0,21.0,-93.0,-82.0,127.0,127.0,127.0,104.0,86.0,-106.0
121.0,124.0,116.0,107.0,125.0,116.0,126.0,125.0,21.0,-93.0,-82.0,127.0,127.0,127.0,104.0,86.0,-106.0
121.0,124.0,116.0,107.0,125.0,116.0,126.0,125.0,21.0,-93.0,-82.0,127.0,127.0,127.0,104.0,86.0,-106.0
121.0,124.0,116.0,106.0,125.0,115.0,126.0,125.0,21.0,-93.0,-82.0,127.0,127.0,127.0,104.0,86.0,-106.0
121.0,125.0,116.0,106.0,125.0,115.0,126.0,125.0,21.0,-93.0,-82.0,127.0,127.0,127.0,104.0,86.0,-106.0
121.0,125.0,116.0,106.0,125.0,114.0,126.0,125.0,21.0,-93.0,-82.0,127.0,127.0,127.0,104.0,86.0,-106.0
121.0,125.0,116.0,105.0,125.0,114.0,126.0,125.0,21.0,-93.0,-82.0,127.0,127.0,127.0,104.0,86.0,-106.0
120.0,125.0,116.0,105.0,125.0,115.0,126.0,125.0,21.0,-93.0,-82.0,127.0,127.0,127.0,104.0,86.0,-106.0
120.0,125.0,116.0,104.0,126.0,115.0,126.0,125.0,21.0,-93.0,-82.0,127.0,127.0,127.0,104.0,86.0,-106.0
120.0,125.0,116.0,102.0,125.0,115.0,126.0,125.0,21.0,-93.0,-82.0,127.0,127.0,127.0,104.0,86.0,-106.0
122.0,125.0,118.0,103.0,124.0,117.0,127.0,123.0,22.0,-94.0,-81.0,127.0,127.0,127.0,104.0,86.0,-106.0
122.0,125.0,118.0,103.0,125.0,117.0,127.0,124.0,22.0,-94.0,-81.0,127.0,127.0,127.0,104.0,86.0,-106.0
122.0,125.0,118.0,103.0,125.0,116.0,127.0,125.0,22.0,-94.0,-81.0,127.0,127.0,127.0,104.0,86.0,-106.0
122.0,125.0,118.0,103.0,125.0,116.0,128.0,125.0,22.0,-94.0,-81.0,127.0,127.0,127.0,104.0,86.0,-106.0
122.0,125.0,118.0,104.0,126.0,115.0,128.0,125.0,22.0,-94.0,-81.0,127.0,127.0,127.0,104.0,86.0,-106.0
122.0,125.0,118.0,105.0,126.0,115.0,128.0,125.0,22.0,-94.0,-81.0,127.0,127.0,127.0,104.0,86.0,-106.0
122.0,125.0,118.0,106.0,126.0,116.0,128.0,125.0,22.0,-94.0,-81.0,127.0,127.0,127.0,104.0,86.0,-106.0
122.0,126.0,118.0,108.0,127.0,116.0,128.0,126.0,22.0,-94.0,-81.0,127.0,127.0,127.0,104.0,86.0,-106.0
121.0,126.0,118.0,110.0,127.0,116.0,128.0,126.0,22.0,-94.0,-81.0,127.0,127.0,127.0,104.0,86.0,-106.0
121.0,126.0,118.0,110.0,127.0,116.0,128.0,126.0,22.0,-94.0,-81.0,127.0,127.0,127.0,104.0,86.0,-106.0
124.0,126.0,119.0,97.0,126.0,116.0,127.0,121.0,23.0,-94.0,-81.0,127.0,127.0,127.0,104.0,86.0,-106.0
125.0,126.0,119.0,97.0,126.0,116.0,127.0,122.0,23.0,-94.0,-81.0,127.0,127.0,127.0,104.0,86.0,-106.0
125.0,126.0,119.0,97.0,126.0,116.0,127.0,121.0,23.0,-94.0,-81.0,127.0,127.0,127.0,104.0,86.0,-106.0
125.0,126.0,119.0,98.0,126.0,116.0,127.0,121.0,23.0,-94.0,-81.0,127.0,127.0,127.0,104.0,86.0,-106.0
125.0,126.0,119.0,98.0,126.0,116.0,127.0,121.0,23.0,-94.0,-81.0,127.0,127.0,127.0,104.0,86.0,-106.0
125.0,127.0,119.0,98.0,126.0,117.0,127.0,122.0,23.0,-94.0,-81.0,127.0,127.0,127.0,104.0,86.0,-106.0
126.0,127.0,119.0,98.0,126.0,118.0,127.0,124.0,23.0,-94.0,-81.0,127.0,127.0,127.0,104.0,86.0,-106.0
126.0,127.0,119.0,99.0,126.0,118.0,127.0,125.0,23.0,-94.0,-81.0,127.0,127.0,127.0,104.0,86.0,-106.0
126.0,127.0,119.0,101.0,126.0,117.0,127.0,125.0,23.0,-94.0,-81.0,127.0,127.0,127.0,104.0,86.0,-106.0
125.0,126.0,119.0,97.0,127.0,116.0,128.0,121.0,23.0,-94.0,-81.0,127.0,127.0,127.0,104.0,86.0,-106.0
124.0,125.0,120.0,117.0,128.0,119.0,127.0,126.0,23.0,-94.0,-81.0,127.0,127.0,127.0,104.0,86.0,-106.0
124.0,125.0,120.0,118.0,128.0,119.0,127.0,126.0,23.0,-94.0,-81.0,127.0,127.0,127.0,104.0,86.0,-106.0
124.0,126.0,120.0,120.0,129.0,118.0,127.0,126.0,23.0,-94.0,-81.0,127.0,127.0,127.0,104.0,86.0,-106.0
124.0,126.0,120.0,122.0,129.0,118.0,127.0,126.0,23.0,-94.0,-81.0,127.0,127.0,127.0,104.0,86.0,-106.0
124.0,126.0,120.0,123.0,130.0,119.0,127.0,126.0,23.0,-94.0,-81.0,127.0,127.0,127.0,104.0,86.0,-106.0
124.0,126.0,120.0,125.0,130.0,120.0,127.0,126.0,23.0,-94.0,-81.0,127.0,127.0,127.0,104.0,86.0,-106.0
124.0,126.0,120.0,125.0,130.0,120.0,127.0,126.0,23.0,-94.0,-81.0,127.0,127.0,127.0,104.0,86.0,-106.0
124.0,126.0,120.0,125.0,131.0,119.0,127.0,126.0,23.0,-94.0,-81.0,127.0,127.0,127.0,104.0,86.0,-106.0
124.0,124.0,120.0,113.0,127.0,118.0,126.0,126.0,23.0,-94.0,-81.0,127.0,127.0,127.0,104.0,86.0,-106.0
124.0,125.0,120.0,115.0,127.0,119.0,127.0,126.0,23.0,-94.0,-81.0,127.0,127.0,127.0,104.0,86.0,-106.0
123.0,125.0,122.0,117.0,126.0,117.0,127.0,122.0,23.0,-95.0,-81.0,127.0,127.0,127.0,104.0,86.0,-106.0
123.0,125.0,122.0,118.0,126.0,116.0,127.0,122.0,23.0,-95.0,-81.0,127.0,127.0,127.0,104.0,86.0,-106.0
123.0,125.0,122.0,119.0,127.0,116.0,127.0,122.0,23.0,-95.0,-81.0,127.0,127.0,127.0,104.0,86.0,-106.0
123.0,125.0,122.0,119.0,127.0,115.0,127.0,123.0,23.0,-95.0,-81.0,127.0,127.0,127.0,104.0,86.0,-106.0
124.0,125.0,122.0,118.0,128.0,115.0,127.0,123.0,23.0,-95.0,-81.0,127.0,127.0,127.0,104.0,86.0,-106.0
124.0,126.0,122.0,116.0,128.0,115.0,128.0,123.0,23.0,-95.0,-81.0,127.0,127.0,127.0,104.0,86.0,-106.0
124.0,126.0,122.0,115.0,128.0,115.0,128.0,124.0,23.0,-95.0,-81.0,127.0,127.0,127.0,104.0,86.0,-106.0
123.0,123.0,122.0,112.0,123.0,118.0,126.0,122.0,23.0,-95.0,-81.0,127.0,127.0,127.0,104.0,86.0,-106.0
123.0,124.0,122.0,113.0,124.0,117.0,126.0,122.0,23.0,-95.0,-81.0,127.0,127.0,127.0,104.0,86.0,-106.0
123.0,124.0,122.0,115.0,125.0,117.0,127.0,122.0,23.0,-95.0,-81.0,127.0,127.0,127.0,104.0,86.0,-106.0
124.0,126.0,124.0,114.0,128.0,120.0,126.0,120.0,23.0,-95.0,-81.0,127.0,127.0,127.0,104.0,86.0,-106.0
124.0,127.0,124.0,114.0,128.0,120.0,127.0,120.0,23.0,-95.0,-81.0,127.0,127.0,127.0,104.0,86.0,-106.0
124.0,127.0,124.0,113.0,129.0,119.0,127.0,120.0,23.0,-95.0,-81.0,127.0,127.0,127.0,104.0,86.0,-106.0
124.0,127.0,124.0,112.0,129.0,118.0,127.0,121.0,23.0,-95.0,-81.0,127.0,127.0,127.0,104.0,86.0,-106.0
124.0,127.0,124.0,111.0,129.0,118.0,127.0,123.0,23.0,-95.0,-81.0,127.0,127.0,127.0,104.0,86.0,-106.0
124.0,127.0,124.0,110.0,129.0,117.0,127.0,124.0,23.0,-95.0,-81.0,127.0,127.0,127.0,104.0,86.0,-106.0
124.0,126.0,124.0,113.0,125.0,119.0,126.0,121.0,23.0,-95.0,-81.0,127.0,127.0,127.0,104.0,86.0,-106.0
124.0,126.0,124.0,113.0,126.0,119.0,126.0,120.0,23.0,-95.0,-81.0,127.0,127.0,127.0,104.0,86.0,-106.0
124.0,126.0,124.0,114.0,126.0,119.0,126.0,120.0,23.0,-95.0,-81.0,127.0,127.0,127.0,104.0,86.0,-106.0
124.0,126.0,124.0,114.0,127.0,119.0,126.0,120.0,23.0,-95.0,-81.0,127.0,127.0,127.0,104.0,86.0,-106.0
124.0,130.0,124.0,116.0,126.0,118.0,127.0,124.0,24.0,-94.0,-80.0,127.0,127.0,127.0,104.0,86.0,-106.0
124.0,130.0,124.0,116.0,126.0,118.0,127.0,125.0,24.0,-94.0,-80.0,127.0,127.0,127.0,104.0,86.0,-106.0
125.0,130.0,124.0,115.0,126.0,117.0,127.0,126.0,24.0,-94.0,-80.0,127.0,127.0,127.0,104.0,86.0,-106.0
125.0,129.0,124.0,114.0,125.0,117.0,127.0,127.0,24.0,-94.0,-80.0,127.0,127.0,127.0,104.0,86.0,-106.0
125.0,128.0,124.0,113.0,125.0,117.0,127.0,127.0,24.0,-94.0,-80.0,127.0,127.0,127.0,104.0,86.0,-106.0
123.0,124.0,124.0,106.0,125.0,117.0,126.0,120.0,24.0,-94.0,-80.0,127.0,127.0,127.0,104.0,86.0,-106.0
123.0,124.0,124.0,108.0,125.0,117.0,126.0,120.0,24.0,-94.0,-80.0,127.0,127.0,127.0,104.0,86.0,-106.0
123.0,125.0,124.0,111.0,125.0,117.0,126.0,121.0,24.0,-94.0,-80.0,127.0,127.0,127.0,104.0,86.0,-106.0
123.0,127.0,124.0,113.0,126.0,117.0,126.0,122.0,24.0,-94.0,-80.0,127.0,127.0,127.0,104.0,86.0,-106.0
123.0,128.0,124.0,115.0,126.0,118.0,127.0,123.0,24.0,-94.0,-80.0,127.0,127.0,127.0,104.0,86.0,-106.0
125.0,126.0,124.0,114.0,129.0,120.0,126.0,124.0,24.0,-95.0,-80.0,127.0,127.0,127.0,104.0,86.0,-106.0
125.0,126.0,124.0,115.0,129.0,120.0,126.0,124.0,24.0,-95.0,-80.0,127.0,127.0,127.0,104.0,86.0,-106.0
124.0,126.0,124.0,114.0,129.0,119.0,127.0,124.0,24.0,-95.0,-80.0,127.0,127.0,127.0,104.0,86.0,-106.0
124.0,126.0,124.0,114.0,129.0,119.0,127.0,124.0,24.0,-95.0,-80.0,127.0,127.0,127.0,104.0,86.0,-106.0
125.0,125.0,124.0,110.0,128.0,118.0,126.0,125.0,24.0,-95.0,-80.0,127.0,127.0,127.0,104.0,86.0,-106.0
125.0,125.0,124.0,110.0,128.0,118.0,126.0,125.0,24.0,-95.0,-80.0,127.0,127.0,127.0,104.0,86.0,-106.0
125.0,125.0,124.0,110.0,128.0,118.0,126.0,125.0,24.0,-95.0,-80.0,127.0,127.0,127.0,104.0,86.0,-106.0
124.0,125.0,124.0,111.0,128.0,119.0,126.0,124.0,24.0,-95.0,-80.0,127.0,127.0,127.0,104.0,86.0,-106.0
124.0,125.0,124.0,112.0,128.0,120.0,126.0,124.0,24.0,-95.0,-80.0,127.0,127.0,127.0,104.0,86.0,-106.0
125.0,126.0,124.0,114.0,128.0,120.0,126.0,124.0,24.0,-95.0,-80.0,127.0,127.0,127.0,104.0,86.0,-106.0
124.0,125.0,124.0,109.0,128.0,120.0,127.0,124.0,24.0,-95.0,-80.0,127.0,127.0,127.0,104.0,86.0,-106.0
123.0,126.0,124.0,108.0,128.0,120.0,127.0,124.0,24.0,-95.0,-80.0,127.0,127.0,127.0,104.0,86.0,-106.0
123.0,126.0,124.0,108.0,128.0,119.0,127.0,124.0,24.0,-95.0,-80.0,127.0,127.0,127.0,104.0,86.0,-106.0
124.0,125.0,124.0,117.0,127.0,118.0,126.0,122.0,24.0,-95.0,-80.0,127.0,127.0,127.0,104.0,86.0,-106.0
124.0,125.0,124.0,117.0,128.0,118.0,126.0,122.0,24.0,-95.0,-80.0,127.0,127.0,127.0,104.0,86.0,-106.0
124.0,125.0,124.0,116.0,128.0,118.0,126.0,122.0,24.0,-95.0,-80.0,127.0,127.0,127.0,104.0,86.0,-106.0
124.0,125.0,124.0,115.0,128.0,118.0,127.0,123.0,24.0,-95.0,-80.0,127.0,127.0,127.0,104.0,86.0,-106.0
124.0,126.0,124.0,114.0,128.0,120.0,127.0,124.0,24.0,-95.0,-80.0,127.0,127.0,127.0,104.0,86.0,-106.0
124.0,125.0,124.0,112.0,128.0,120.0,127.0,124.0,24.0,-95.0,-80.0,127.0,127.0,127.0,104.0,86.0,-106.0
124.0,125.0,124.0,111.0,128.0,120.0,127.0,124.0,24.0,-95.0,-80.0,127.0,127.0,127.0,104.0,86.0,-106.0
126.0,127.0,126.0,107.0,125.0,118.0,127.0,125.0,23.0,-95.0,-80.0,127.0,127.0,127.0,104.0,86.0,-106.0
126.0,127.0,126.0,108.0,125.0,117.0,127.0,125.0,23.0,-95.0,-80.0,127.0,127.0,127.0,104.0,86.0,-106.0
125.0,125.0,125.0,105.0,125.0,118.0,126.0,125.0,23.0,-95.0,-80.0,127.0,127.0,127.0,104.0,86.0,-106.0
125.0,125.0,125.0,104.0,125.0,118.0,126.0,125.0,23.0,-95.0,-80.0,127.0,127.0,127.0,104.0,86.0,-106.0
125.0,125.0,125.0,104.0,125.0,118.0,126.0,125.0,23.0,-95.0,-80.0,127.0,127.0,127.0,104.0,86.0,-106.0
125.0,125.0,125.0,103.0,124.0,117.0,126.0,125.0,23.0,-95.0,-80.0,127.0,127.0,127.0,104.0,86.0,-106.0
125.0,126.0,125.0,103.0,124.0,119.0,126.0,125.0,23.0,-95.0,-80.0,127.0,127.0,127.0,104.0,86.0,-106.0
125.0,126.0,125.0,103.0,124.0,119.0,126.0,125.0,23.0,-95.0,-80.0,127.0,127.0,127.0,104.0,86.0,-106.0
125.0,127.0,125.0,104.0,124.0,118.0,127.0,125.0,23.0,-95.0,-80.0,127.0,127.0,127.0,104.0,86.0,-106.0
125.0,127.0,126.0,105.0,124.0,118.0,127.0,125.0,23.0,-95.0,-80.0,127.0,127.0,127.0,104.0,86.0,-106.0
125.0,126.0,126.0,111.0,127.0,119.0,127.0,125.0,23.0,-95.0,-80.0,127.0,127.0,127.0,104.0,86.0,-106.0
125.0,125.0,126.0,110.0,125.0,118.0,126.0,124.0,23.0,-95.0,-80.0,127.0,127.0,127.0,104.0,86.0,-106.0
125.0,125.0,126.0,110.0,125.0,118.0,126.0,124.0,23.0,-95.0,-80.0,127.0,127.0,127.0,104.0,86.0,-106.0
125.0,125.0,126.0,110.0,125.0,118.0,126.0,124.0,23.0,-95.0,-80.0,127.0,127.0,127.0,104.0,86.0,-106.0
125.0,125.0,126.0,110.0,126.0,118.0,126.0,124.0,23.0,-95.0,-80.0,127.0,127.0,127.0,104.0,86.0,-106.0
125.0,125.0,126.0,110.0,126.0,120.0,126.0,124.0,23.0,-95.0,-80.0,127.0,127.0,127.0,104.0,86.0,-106.0
125.0,126.0,126.0,110.0,126.0,120.0,126.0,124.0,23.0,-95.0,-80.0,127.0,127.0,127.0,104.0,86.0,-106.0
125.0,126.0,126.0,110.0,126.0,120.0,127.0,124.0,23.0,-95.0,-80.0,127.0,127.0,127.0,104.0,86.0,-106.0
125.0,126.0,126.0,110.0,126.0,120.0,127.0,125.0,23.0,-95.0,-80.0,127.0,127.0,127.0,104.0,86.0,-106.0
125.0,126.0,126.0,111.0,127.0,119.0,127.0,125.0,23.0,-95.0,-80.0,127.0,127.0,127.0,104.0,86.0,-106.0
126.0,126.0,126.0,109.0,126.0,118.0,126.0,122.0,24.0,-95.0,-80.0,127.0,127.0,127.0,104.0,86.0,-106.0
125.0,126.0,126.0,111.0,126.0,117.0,126.0,122.0,24.0,-95.0,-80.0,127.0,127.0,127.0,104.0,86.0,-106.0
125.0,126.0,126.0,112.0,126.0,117.0,126.0,122.0,24.0,-95.0,-80.0,127.0,127.0,127.0,104.0,86.0,-106.0
125.0,126.0,126.0,114.0,126.0,117.0,126.0,122.0,24.0,-95.0,-80.0,127.0,127.0,127.0,104.0,86.0,-106.0
125.0,126.0,126.0,115.0,126.0,118.0,126.0,122.0,24.0,-95.0,-80.0,127.0,127.0,127.0,104.0,86.0,-106.0
125.0,126.0,126.0,116.0,126.0,119.0,126.0,122.0,24.0,-95.0,-80.0,127.0,127.0,127.0,104.0,86.0,-106.0
125.0,126.0,126.0,116.0,126.0,119.0,126.0,123.0,24.0,-95.0,-80.0,127.0,127.0,127.0,104.0,86.0,-106.0
125.0,126.0,126.0,116.0,126.0,118.0,126.0,124.0,24.0,-95.0,-80.0,127.0,127.0,127.0,104.0,86.0,-106.0
126.0,126.0,125.0,116.0,126.0,118.0,127.0,124.0,24.0,-95.0,-80.0,127.0,127.0,127.0,104.0,86.0,-106.0
126.0,126.0,125.0,115.0,127.0,117.0,127.0,125.0,24.0,-95.0,-80.0,127.0,127.0,127.0,104.0,86.0,-106.0
126.0,125.0,125.0,112.0,127.0,113.0,127.0,125.0,24.0,-95.0,-80.0,127.0,127.0,127.0,104.0,86.0,-106.0
126.0,125.0,125.0,112.0,127.0,113.0,127.0,125.0,24.0,-95.0,-80.0,127.0,127.0,127.0,104.0,86.0,-106.0
126.0,125.0,125.0,113.0,127.0,113.0,127.0,125.0,24.0,-95.0,-80.0,127.0,127.0,127.0,104.0,86.0,-106.0
126.0,125.0,125.0,113.0,128.0,113.0,127.0,125.0,24.0,-95.0,-80.0,127.0,127.0,127.0,104.0,86.0,-106.0
126.0,126.0,125.0,114.0,128.0,113.0,127.0,124.0,24.0,-95.0,-80.0,127.0,127.0,127.0,104.0,86.0,-106.0
126.0,126.0,126.0,114.0,128.0,113.0,127.0,124.0,24.0,-95.0,-80.0,127.0,127.0,127.0,104.0,86.0,-106.0
126.0,127.0,125.0,114.0,128.0,114.0,127.0,124.0,24.0,-95.0,-80.0,127.0,127.0,127.0,104.0,86.0,-106.0
126.0,127.0,125.0,114.0,128.0,115.0,127.0,124.0,24.0,-95.0,-80.0,127.0,127.0,127.0,104.0,86.0,-106.0
126.0,128.0,125.0,115.0,128.0,115.0,127.0,124.0,24.0,-95.0,-80.0,127.0,127.0,127.0,104.0,86.0,-106.0
126.0,125.0,126.0,112.0,127.0,113.0,127.0,125.0,24.0,-95.0,-80.0,127.0,127.0,127.0,104.0,86.0,-106.0
127.0,125.0,125.0,113.0,126.0,117.0,127.0,125.0,23.0,-94.0,-80.0,127.0,127.0,127.0,104.0,86.0,-106.0
127.0,125.0,125.0,113.0,125.0,117.0,127.0,125.0,23.0,-94.0,-80.0,127.0,127.0,127.0,104.0,86.0,-106.0
127.0,125.0,125.0,113.0,125.0,117.0,127.0,125.0,23.0,-94.0,-80.0,127.0,127.0,127.0,104.0,86.0,-106.0
127.0,125.0,125.0,113.0,125.0,117.0,127.0,125.0,23.0,-94.0,-80.0,127.0,127.0,127.0,104.0,86.0,-106.0
128.0,125.0,125.0,113.0,125.0,117.0,127.0,125.0,23.0,-94.0,-80.0,127.0,127.0,127.0,104.0,86.0,-106.0
128.0,125.0,125.0,114.0,125.0,117.0,127.0,125.0,23.0,-94.0,-80.0,127.0,127.0,127.0,104.0,86.0,-106.0
128.0,126.0,125.0,114.0,125.0,116.0,127.0,125.0,23.0,-94.0,-80.0,127.0,127.0,127.0,104.0,86.0,-106.0
128.0,126.0,125.0,115.0,126.0,116.0,127.0,125.0,23.0,-94.0,-80.0,127.0,127.0,127.0,104.0,86.0,-106.0
127.0,124.0,125.0,113.0,126.0,115.0,127.0,125.0,23.0,-94.0,-80.0,127.0,127.0,127.0,104.0,86.0,-106.0
127.0,125.0,125.0,113.0,126.0,116.0,127.0,125.0,23.0,-94.0,-80.0,127.0,127.0,127.0,104.0,86.0,-106.0
129.0,126.0,128.0,123.0,127.0,122.0,128.0,126.0,23.0,-94.0,-80.0,127.0,127.0,127.0,104.0,86.0,-106.0
129.0,126.0,129.0,123.0,126.0,122.0,129.0,126.0,23.0,-94.0,-80.0,127.0,127.0,127.0,104.0,86.0,-106.0
129.0,126.0,129.0,124.0,126.0,122.0,129.0,126.0,23.0,-94.0,-80.0,127.0,127.0,127.0,104.0,86.0,-106.0
129.0,126.0,129.0,124.0,126.0,122.0,129.0,126.0,23.0,-94.0,-80.0,127.0,127.0,127.0,104.0,86.0,-106.0
129.0,126.0,129.0,125.0,126.0,122.0,129.0,126.0,23.0,-94.0,-80.0,127.0,127.0,127.0,104.0,86.0,-106.0
129.0,126.0,129.0,126.0,126.0,121.0,129.0,126.0,23.0,-94.0,-80.0,127.0,127.0,127.0,104.0,86.0,-106.0
129.0,126.0,128.0,121.0,126.0,119.0,128.0,126.0,23.0,-94.0,-80.0,127.0,127.0,127.0,104.0,86.0,-106.0
129.0,126.0,128.0,121.0,126.0,120.0,128.0,126.0,23.0,-94.0,-80.0,127.0,127.0,127.0,104.0,86.0,-106.0
129.0,126.0,128.0,122.0,126.0,121.0,128.0,125.0,23.0,-94.0,-80.0,127.0,127.0,127.0,104.0,86.0,-106.0
129.0,126.0,128.0,122.0,126.0,122.0,128.0,126.0,23.0,-94.0,-80.0,127.0,127.0,127.0,104.0,86.0,-106.0
131.0,127.0,110.0,151.0,126.0,125.0,132.0,126.0,22.0,-94.0,-80.0,127.0,127.0,127.0,104.0,86.0,-106.0
131.0,127.0,111.0,151.0,127.0,124.0,132.0,126.0,22.0,-94.0,-80.0,127.0,127.0,127.0,104.0,86.0,-106.0
131.0,127.0,111.0,151.0,127.0,124.0,132.0,126.0,22.0,-94.0,-80.0,127.0,127.0,127.0,104.0,86.0,-106.0
131.0,127.0,112.0,152.0,127.0,124.0,133.0,126.0,22.0,-94.0,-80.0,127.0,127.0,127.0,104.0,86.0,-106.0
131.0,127.0,113.0,152.0,127.0,123.0,133.0,126.0,22.0,-94.0,-80.0,127.0,127.0,127.0,104.0,86.0,-106.0
130.0,126.0,106.0,149.0,126.0,123.0,132.0,125.0,22.0,-94.0,-80.0,127.0,127.0,127.0,104.0,86.0,-106.0
130.0,126.0,107.0,150.0,126.0,123.0,132.0,125.0,22.0,-94.0,-80.0,127.0,127.0,127.0,104.0,86.0,-106.0
131.0,126.0,107.0,150.0,126.0,124.0,132.0,125.0,22.0,-94.0,-80.0,127.0,127.0,127.0,104.0,86.0,-106.0
131.0,127.0,108.0,151.0,126.0,125.0,132.0,126.0,22.0,-94.0,-80.0,127.0,127.0,127.0,104.0,86.0,-106.0
131.0,127.0,109.0,151.0,126.0,125.0,132.0,126.0,22.0,-94.0,-80.0,127.0,127.0,127.0,104.0,86.0,-106.0
133.0,126.0,135.0,160.0,126.0,123.0,127.0,125.0,23.0,-94.0,-79.0,127.0,127.0,127.0,104.0,86.0,-106.0
133.0,126.0,135.0,160.0,126.0,123.0,127.0,125.0,23.0,-94.0,-79.0,127.0,127.0,127.0,104.0,86.0,-106.0
133.0,126.0,135.0,161.0,126.0,123.0,127.0,125.0,23.0,-94.0,-79.0,127.0,127.0,127.0,104.0,86.0,-106.0
132.0,126.0,135.0,161.0,126.0,122.0,127.0,125.0,23.0,-94.0,-79.0,127.0,127.0,127.0,104.0,86.0,-106.0
133.0,126.0,133.0,158.0,126.0,121.0,128.0,125.0,23.0,-94.0,-79.0,127.0,127.0,127.0,104.0,86.0,-106.0
133.0,126.0,134.0,159.0,126.0,122.0,128.0,125.0,23.0,-94.0,-79.0,127.0,127.0,127.0,104.0,86.0,-106.0
133.0,126.0,134.0,159.0,126.0,122.0,128.0,125.0,23.0,-94.0,-79.0,127.0,127.0,127.0,104.0,86.0,-106.0
133.0,126.0,134.0,159.0,126.0,124.0,128.0,125.0,23.0,-94.0,-79.0,127.0,127.0,127.0,104.0,86.0,-106.0
133.0,126.0,134.0,160.0,126.0,124.0,128.0,125.0,23.0,-94.0,-79.0,127.0,127.0,127.0,104.0,86.0,-106.0
133.0,126.0,134.0,160.0,126.0,124.0,127.0,125.0,23.0,-94.0,-79.0,127.0,127.0,127.0,104.0,86.0,-106.0
137.0,124.0,137.0,172.0,127.0,121.0,123.0,125.0,23.0,-94.0,-79.0,127.0,127.0,127.0,104.0,86.0,-106.0
137.0,124.0,137.0,172.0,127.0,121.0,123.0,125.0,23.0,-94.0,-79.0,127.0,127.0,127.0,104.0,86.0,-106.0
137.0,124.0,137.0,172.0,127.0,120.0,123.0,125.0,23.0,-94.0,-79.0,127.0,127.0,127.0,104.0,86.0,-106.0
136.0,123.0,137.0,171.0,127.0,120.0,123.0,125.0,23.0,-94.0,-79.0,127.0,127.0,127.0,104.0,86.0,-106.0
136.0,123.0,137.0,171.0,127.0,120.0,123.0,125.0,23.0,-94.0,-79.0,127.0,127.0,127.0,104.0,86.0,-106.0
136.0,123.0,137.0,171.0,127.0,120.0,123.0,125.0,23.0,-94.0,-79.0,127.0,127.0,127.0,104.0,86.0,-106.0
136.0,124.0,137.0,171.0,127.0,122.0,123.0,125.0,23.0,-94.0,-79.0,127.0,127.0,127.0,104.0,86.0,-106.0
137.0,124.0,137.0,171.0,127.0,122.0,123.0,125.0,23.0,-94.0,-79.0,127.0,127.0,127.0,104.0,86.0,-106.0
137.0,124.0,137.0,171.0,127.0,122.0,123.0,125.0,23.0,-94.0,-79.0,127.0,127.0,127.0,104.0,86.0,-106.0
137.0,124.0,137.0,172.0,127.0,122.0,123.0,125.0,23.0,-94.0,-79.0,127.0,127.0,127.0,104.0,86.0,-106.0
135.0,125.0,145.0,173.0,127.0,121.0,124.0,126.0,23.0,-94.0,-79.0,127.0,127.0,127.0,104.0,86.0,-106.0
134.0,125.0,145.0,173.0,127.0,120.0,124.0,126.0,23.0,-94.0,-79.0,127.0,127.0,127.0,104.0,86.0,-106.0
135.0,124.0,143.0,173.0,126.0,119.0,124.0,126.0,23.0,-94.0,-79.0,127.0,127.0,127.0,104.0,86.0,-106.0
135.0,124.0,143.0,173.0,126.0,119.0,124.0,126.0,23.0,-94.0,-79.0,127.0,127.0,127.0,104.0,86.0,-106.0
135.0,124.0,143.0,173.0,126.0,120.0,124.0,126.0,23.0,-94.0,-79.0,127.0,127.0,127.0,104.0,86.0,-106.0
135.0,124.0,143.0,173.0,126.0,121.0,124.0,126.0,23.0,-94.0,-79.0,127.0,127.0,127.0,104.0,86.0,-106.0
135.0,124.0,144.0,173.0,126.0,121.0,124.0,126.0,23.0,-94.0,-79.0,127.0,127.0,127.0,104.0,86.0,-106.0
135.0,125.0,144.0,173.0,127.0,121.0,124.0,126.0,23.0,-94.0,-79.0,127.0,127.0,127.0,104.0,86.0,-106.0
135.0,125.0,144.0,173.0,127.0,121.0,124.0,126.0,23.0,-94.0,-79.0,127.0,127.0,127.0,104.0,86.0,-106.0
135.0,125.0,144.0,173.0,127.0,121.0,124.0,126.0,23.0,-94.0,-79.0,127.0,127.0,127.0,104.0,86.0,-106.0
133.0,125.0,145.0,169.0,126.0,120.0,126.0,127.0,24.0,-95.0,-79.0,127.0,127.0,127.0,104.0,86.0,-106.0
132.0,124.0,147.0,170.0,126.0,119.0,126.0,127.0,24.0,-95.0,-79.0,127.0,127.0,127.0,104.0,86.0,-106.0
132.0,124.0,146.0,170.0,126.0,119.0,126.0,127.0,24.0,-95.0,-79.0,127.0,127.0,127.0,104.0,86.0,-106.0
132.0,124.0,146.0,170.0,126.0,119.0,126.0,127.0,24.0,-95.0,-79.0,127.0,127.0,127.0,104.0,86.0,-106.0
132.0,124.0,146.0,170.0,126.0,121.0,126.0,127.0,24.0,-95.0,-79.0,127.0,127.0,127.0,104.0,86.0,-106.0
132.0,125.0,146.0,170.0,126.0,121.0,126.0,127.0,24.0,-95.0,-79.0,127.0,127.0,127.0,104.0,86.0,-106.0
132.0,125.0,146.0,169.0,126.0,121.0,126.0,127.0,24.0,-95.0,-79.0,127.0,127.0,127.0,104.0,86.0,-106.0
133.0,125.0,146.0,169.0,126.0,121.0,126.0,127.0,24.0,-95.0,-79.0,127.0,127.0,127.0,104.0,86.0,-106.0
133.0,125.0,146.0,169.0,126.0,120.0,126.0,127.0,24.0,-95.0,-79.0,127.0,127.0,127.0,104.0,86.0,-106.0
133.0,125.0,146.0,169.0,126.0,120.0,126.0,127.0,24.0,-95.0,-79.0,127.0,127.0,127.0,104.0,86.0,-106.0
133.0,124.0,135.0,165.0,126.0,117.0,127.0,127.0,24.0,-95.0,-79.0,127.0,127.0,127.0,104.0,86.0,-106.0
133.0,124.0,134.0,166.0,126.0,117.0,127.0,127.0,24.0,-95.0,-79.0,127.0,127.0,127.0,104.0,86.0,-106.0
133.0,124.0,134.0,166.0,126.0,117.0,127.0,127.0,24.0,-95.0,-79.0,127.0,127.0,127.0,104.0,86.0,-106.0
133.0,124.0,134.0,166.0,126.0,117.0,127.0,127.0,24.0,-95.0,-79.0,127.0,127.0,127.0,104.0,86.0,-106.0
133.0,124.0,133.0,166.0,126.0,117.0,127.0,127.0,24.0,-95.0,-79.0,127.0,127.0,127.0,104.0,86.0,-106.0
133.0,124.0,133.0,166.0,126.0,117.0,127.0,127.0,24.0,-95.0,-79.0,127.0,127.0,127.0,104.0,86.0,-106.0
133.0,125.0,132.0,166.0,126.0,118.0,127.0,127.0,24.0,-95.0,-79.0,127.0,127.0,127.0,104.0,86.0,-106.0
133.0,125.0,132.0,166.0,126.0,119.0,127.0,128.0,24.0,-95.0,-79.0,127.0,127.0,127.0,104.0,86.0,-106.0
133.0,125.0,131.0,166.0,126.0,119.0,127.0,128.0,24.0,-95.0,-79.0,127.0,127.0,127.0,104.0,86.0,-106.0
133.0,125.0,131.0,166.0,126.0,118.0,127.0,128.0,24.0,-95.0,-79.0,127.0,127.0,127.0,104.0,86.0,-106.0
132.0,126.0,122.0,163.0,126.0,121.0,127.0,127.0,24.0,-96.0,-79.0,127.0,127.0,127.0,104.0,86.0,-106.0
132.0,126.0,122.0,163.0,126.0,121.0,127.0,127.0,24.0,-96.0,-79.0,127.0,127.0,127.0,104.0,86.0,-106.0
132.0,126.0,122.0,163.0,126.0,121.0,127.0,127.0,24.0,-96.0,-79.0,127.0,127.0,127.0,104.0,86.0,-106.0
132.0,126.0,122.0,162.0,126.0,121.0,127.0,127.0,24.0,-96.0,-79.0,127.0,127.0,127.0,104.0,86.0,-106.0
132.0,126.0,123.0,162.0,126.0,121.0,127.0,127.0,24.0,-96.0,-79.0,127.0,127.0,127.0,104.0,86.0,-106.0
132.0,126.0,123.0,162.0,126.0,121.0,127.0,127.0,24.0,-96.0,-79.0,127.0,127.0,127.0,104.0,86.0,-106.0
132.0,126.0,123.0,162.0,126.0,120.0,127.0,127.0,24.0,-96.0,-79.0,127.0,127.0,127.0,104.0,86.0,-106.0
132.0,126.0,123.0,162.0,126.0,120.0,127.0,127.0,24.0,-96.0,-79.0,127.0,127.0,127.0,104.0,86.0,-106.0
132.0,126.0,123.0,162.0,126.0,119.0,127.0,127.0,24.0,-96.0,-79.0,127.0,127.0,127.0,104.0,86.0,-106.0
132.0,126.0,122.0,163.0,126.0,121.0,127.0,127.0,24.0,-96.0,-79.0,127.0,127.0,127.0,104.0,86.0,-106.0
127.0,128.0,119.0,158.0,126.0,124.0,127.0,128.0,25.0,-96.0,-79.0,127.0,127.0,127.0,104.0,86.0,-106.0
127.0,128.0,119.0,158.0,126.0,124.0,127.0,128.0,25.0,-96.0,-79.0,127.0,127.0,127.0,104.0,86.0,-106.0
127.0,128.0,118.0,158.0,126.0,123.0,127.0,128.0,25.0,-96.0,-79.0,127.0,127.0,127.0,104.0,86.0,-106.0
127.0,128.0,117.0,158.0,126.0,124.0,127.0,128.0,25.0,-96.0,-79.0,127.0,127.0,127.0,104.0,86.0,-106.0
126.0,128.0,117.0,158.0,126.0,123.0,127.0,128.0,25.0,-96.0,-79.0,127.0,127.0,127.0,104.0,86.0,-106.0
126.0,128.0,116.0,158.0,126.0,122.0,126.0,128.0,25.0,-96.0,-79.0,127.0,127.0,127.0,104.0,86.0,-106.0
126.0,128.0,116.0,158.0,126.0,122.0,127.0,128.0,25.0,-96.0,-79.0,127.0,127.0,127.0,104.0,86.0,-106.0
126.0,128.0,115.0,158.0,126.0,122.0,127.0,128.0,25.0,-96.0,-79.0,127.0,127.0,127.0,104.0,86.0,-106.0
128.0,128.0,120.0,158.0,126.0,123.0,127.0,127.0,25.0,-96.0,-79.0,127.0,127.0,127.0,104.0,86.0,-106.0
128.0,128.0,120.0,158.0,126.0,124.0,127.0,128.0,25.0,-96.0,-79.0,127.0,127.0,127.0,104.0,86.0,-106.0
118.0,128.0,66.0,156.0,127.0,123.0,126.0,128.0,25.0,-96.0,-78.0,127.0,127.0,127.0,104.0,86.0,-106.0
118.0,128.0,65.0,156.0,127.0,122.0,126.0,128.0,25.0,-96.0,-78.0,127.0,127.0,127.0,104.0,86.0,-106.0
118.0,128.0,63.0,156.0,127.0,123.0,126.0,128.0,25.0,-96.0,-78.0,127.0,127.0,127.0,104.0,86.0,-106.0
118.0,128.0,61.0,157.0,127.0,122.0,126.0,128.0,25.0,-96.0,-78.0,127.0,127.0,127.0,104.0,86.0,-106.0
118.0,128.0,59.0,157.0,127.0,122.0,126.0,128.0,25.0,-96.0,-78.0,127.0,127.0,127.0,104.0,86.0,-106.0
118.0,129.0,57.0,157.0,127.0,121.0,126.0,128.0,25.0,-96.0,-78.0,127.0,127.0,127.0,104.0,86.0,-106.0
118.0,128.0,56.0,157.0,127.0,121.0,126.0,128.0,25.0,-96.0,-78.0,127.0,127.0,127.0,104.0,86.0,-106.0
118.0,128.0,71.0,156.0,127.0,122.0,126.0,128.0,25.0,-96.0,-78.0,127.0,127.0,127.0,104.0,86.0,-106.0
118.0,128.0,69.0,156.0,127.0,123.0,126.0,128.0,25.0,-96.0,-78.0,127.0,127.0,127.0,104.0,86.0,-106.0
118.0,128.0,68.0,156.0,127.0,123.0,126.0,128.0,25.0,-96.0,-78.0,127.0,127.0,127.0,104.0,86.0,-106.0
121.0,129.0,2.0,155.0,127.0,118.0,127.0,128.0,25.0,-97.0,-78.0,127.0,127.0,127.0,104.0,86.0,-106.0
121.0,129.0,2.0,155.0,127.0,118.0,127.0,128.0,25.0,-97.0,-78.0,127.0,127.0,127.0,104.0,86.0,-106.0
121.0,129.0,1.0,156.0,127.0,117.0,127.0,128.0,25.0,-97.0,-78.0,127.0,127.0,127.0,104.0,86.0,-106.0
121.0,128.0,1.0,156.0,128.0,116.0,127.0,128.0,25.0,-97.0,-78.0,127.0,127.0,127.0,104.0,86.0,-106.0
121.0,128.0,0.0,156.0,128.0,116.0,127.0,128.0,25.0,-97.0,-78.0,127.0,127.0,127.0,104.0,86.0,-106.0
121.0,128.0,0.0,156.0,128.0,116.0,127.0,128.0,25.0,-97.0,-78.0,127.0,127.0,127.0,104.0,86.0,-106.0
120.0,128.0,5.0,154.0,127.0,117.0,126.0,127.0,25.0,-97.0,-78.0,127.0,127.0,127.0,104.0,86.0,-106.0
120.0,129.0,4.0,154.0,127.0,118.0,127.0,128.0,25.0,-97.0,-78.0,127.0,127.0,127.0,104.0,86.0,-106.0
120.0,129.0,3.0,155.0,127.0,118.0,127.0,128.0,25.0,-97.0,-78.0,127.0,127.0,127.0,104.0,86.0,-106.0
120.0,129.0,3.0,155.0,127.0,118.0,127.0,128.0,25.0,-97.0,-78.0,127.0,127.0,127.0,104.0,86.0,-106.0
123.0,129.0,20.0,154.0,128.0,115.0,127.0,128.0,26.0,-97.0,-78.0,126.0,127.0,127.0,104.0,86.0,-106.0
123.0,129.0,22.0,154.0,128.0,115.0,127.0,128.0,26.0,-97.0,-78.0,126.0,127.0,127.0,104.0,86.0,-106.0
123.0,129.0,23.0,154.0,128.0,114.0,127.0,128.0,26.0,-97.0,-78.0,126.0,127.0,127.0,104.0,86.0,-106.0
123.0,129.0,24.0,154.0,128.0,114.0,127.0,128.0,26.0,-97.0,-78.0,126.0,127.0,127.0,104.0,86.0,-106.0
123.0,129.0,26.0,154.0,128.0,114.0,127.0,128.0,26.0,-97.0,-78.0,126.0,127.0,127.0,104.0,86.0,-106.0
123.0,129.0,14.0,154.0,128.0,113.0,127.0,128.0,26.0,-97.0,-78.0,126.0,127.0,127.0,104.0,86.0,-106.0
123.0,129.0,15.0,154.0,128.0,115.0,127.0,128.0,26.0,-97.0,-78.0,126.0,127.0,127.0,104.0,86.0,-106.0
123.0,129.0,17.0,154.0,128.0,115.0,127.0,128.0,26.0,-97.0,-78.0,126.0,127.0,127.0,104.0,86.0,-106.0
123.0,129.0,18.0,154.0,128.0,115.0,127.0,128.0,26.0,-97.0,-78.0,126.0,127.0,127.0,104.0,86.0,-106.0
123.0,129.0,19.0,154.0,128.0,115.0,127.0,128.0,26.0,-97.0,-78.0,126.0,127.0,127.0,104.0,86.0,-106.0
125.0,130.0,85.0,150.0,128.0,116.0,127.0,128.0,26.0,-97.0,-77.0,127.0,127.0,127.0,104.0,86.0,-106.0
125.0,130.0,86.0,150.0,128.0,115.0,127.0,128.0,26.0,-97.0,-77.0,127.0,127.0,127.0,104.0,86.0,-106.0
125.0,130.0,87.0,150.0,128.0,115.0,127.0,128.0,26.0,-97.0,-77.0,127.0,127.0,127.0,104.0,86.0,-106.0
125.0,130.0,78.0,151.0,128.0,113.0,127.0,128.0,26.0,-97.0,-77.0,127.0,127.0,127.0,104.0,86.0,-106.0
125.0,130.0,79.0,151.0,128.0,114.0,127.0,128.0,26.0,-97.0,-77.0,127.0,127.0,127.0,104.0,86.0,-106.0
125.0,130.0,80.0,151.0,128.0,116.0,127.0,128.0,26.0,-97.0,-77.0,127.0,127.0,127.0,104.0,86.0,-106.0
125.0,130.0,81.0,151.0,128.0,116.0,127.0,128.0,26.0,-97.0,-77.0,127.0,127.0,127.0,104.0,86.0,-106.0
125.0,130.0,82.0,151.0,128.0,116.0,127.0,128.0,26.0,-97.0,-77.0,127.0,127.0,127.0,104.0,86.0,-106.0
125.0,130.0,83.0,151.0,128.0,116.0,127.0,128.0,26.0,-97.0,-77.0,127.0,127.0,127.0,104.0,86.0,-106.0
125.0,130.0,84.0,151.0,128.0,116.0,127.0,128.0,26.0,-97.0,-77.0,127.0,127.0,127.0,104.0,86.0,-106.0
126.0,130.0,138.0,145.0,127.0,122.0,127.0,128.0,27.0,-97.0,-77.0,127.0,127.0,127.0,104.0,86.0,-106.0
126.0,130.0,138.0,145.0,127.0,121.0,127.0,128.0,27.0,-97.0,-77.0,127.0,127.0,127.0,104.0,86.0,-106.0
126.0,130.0,130.0,146.0,127.0,120.0,127.0,127.0,27.0,-97.0,-77.0,127.0,127.0,127.0,104.0,86.0,-106.0
126.0,130.0,131.0,146.0,127.0,120.0,127.0,127.0,27.0,-97.0,-77.0,127.0,127.0,127.0,104.0,86.0,-106.0
126.0,130.0,132.0,146.0,127.0,122.0,127.0,128.0,27.0,-97.0,-77.0,127.0,127.0,127.0,104.0,86.0,-106.0
126.0,130.0,133.0,145.0,127.0,122.0,127.0,128.0,27.0,-97.0,-77.0,127.0,127.0,127.0,104.0,86.0,-106.0
126.0,130.0,134.0,145.0,127.0,122.0,127.0,128.0,27.0,-97.0,-77.0,127.0,127.0,127.0,104.0,86.0,-106.0
126.0,130.0,135.0,145.0,127.0,122.0,127.0,128.0,27.0,-97.0,-77.0,127.0,127.0,127.0,104.0,86.0,-106.0
126.0,130.0,136.0,145.0,127.0,122.0,127.0,128.0,27.0,-97.0,-77.0,127.0,127.0,127.0,104.0,86.0,-106.0
126.0,130.0,137.0,145.0,127.0,122.0,127.0,128.0,27.0,-97.0,-77.0,127.0,127.0,127.0,104.0,86.0,-106.0
127.0,131.0,169.0,145.0,127.0,115.0,127.0,128.0,27.0,-98.0,-76.0,127.0,127.0,127.0,104.0,86.0,-106.0
126.0,130.0,164.0,146.0,128.0,115.0,127.0,128.0,27.0,-98.0,-76.0,127.0,127.0,127.0,104.0,86.0,-106.0
126.0,130.0,165.0,146.0,128.0,115.0,127.0,128.0,27.0,-98.0,-76.0,127.0,127.0,127.0,104.0,86.0,-106.0
126.0,130.0,165.0,146.0,127.0,114.0,127.0,128.0,27.0,-98.0,-76.0,127.0,127.0,127.0,104.0,86.0,-106.0
126.0,130.0,166.0,146.0,127.0,115.0,127.0,128.0,27.0,-98.0,-76.0,127.0,127.0,127.0,104.0,86.0,-106.0
126.0,130.0,166.0,146.0,127.0,115.0,127.0,128.0,27.0,-98.0,-76.0,127.0,127.0,127.0,104.0,86.0,-106.0
126.0,131.0,167.0,146.0,127.0,116.0,127.0,128.0,27.0,-98.0,-76.0,127.0,127.0,127.0,104.0,86.0,-106.0
127.0,131.0,167.0,146.0,128.0,117.0,127.0,128.0,27.0,-98.0,-76.0,127.0,127.0,127.0,104.0,86.0,-106.0
127.0,131.0,168.0,145.0,127.0,116.0,127.0,128.0,27.0,-98.0,-76.0,127.0,127.0,127.0,104.0,86.0,-106.0
127.0,131.0,168.0,145.0,127.0,116.0,127.0,128.0,27.0,-98.0,-76.0,127.0,127.0,127.0,104.0,86.0,-106.0
127.0,131.0,189.0,145.0,127.0,114.0,127.0,128.0,27.0,-98.0,-76.0,127.0,127.0,127.0,104.0,86.0,-106.0
127.0,131.0,189.0,145.0,128.0,114.0,127.0,128.0,27.0,-98.0,-76.0,127.0,127.0,127.0,104.0,86.0,-106.0
127.0,131.0,190.0,145.0,128.0,114.0,127.0,128.0,27.0,-98.0,-76.0,127.0,127.0,127.0,104.0,86.0,-106.0
127.0,131.0,190.0,145.0,128.0,114.0,127.0,128.0,27.0,-98.0,-76.0,127.0,127.0,127.0,104.0,86.0,-106.0
127.0,131.0,191.0,145.0,128.0,114.0,127.0,128.0,27.0,-98.0,-76.0,127.0,127.0,127.0,104.0,86.0,-106.0
127.0,131.0,191.0,145.0,128.0,114.0,127.0,128.0,27.0,-98.0,-76.0,127.0,127.0,127.0,104.0,86.0,-106.0
127.0,131.0,192.0,145.0,128.0,114.0,127.0,128.0,27.0,-98.0,-76.0,127.0,127.0,127.0,104.0,86.0,-106.0
127.0,131.0,192.0,145.0,128.0,114.0,127.0,128.0,27.0,-98.0,-76.0,127.0,127.0,127.0,104.0,86.0,-106.0
127.0,131.0,193.0,145.0,128.0,113.0,127.0,128.0,27.0,-98.0,-76.0,127.0,127.0,127.0,104.0,86.0,-106.0
127.0,131.0,193.0,145.0,128.0,113.0,127.0,128.0,27.0,-98.0,-76.0,127.0,127.0,127.0,104.0,86.0,-106.0
127.0,131.0,209.0,145.0,129.0,124.0,127.0,128.0,27.0,-97.0,-76.0,127.0,127.0,127.0,104.0,86.0,-106.0
127.0,131.0,209.0,145.0,129.0,124.0,127.0,128.0,27.0,-97.0,-76.0,127.0,127.0,127.0,104.0,86.0,-106.0
127.0,131.0,210.0,145.0,129.0,124.0,127.0,128.0,27.0,-97.0,-76.0,127.0,127.0,127.0,104.0,86.0,-106.0
127.0,131.0,210.0,144.0,129.0,124.0,127.0,128.0,27.0,-97.0,-76.0,127.0,127.0,127.0,104.0,86.0,-106.0
127.0,131.0,210.0,144.0,128.0,124.0,127.0,128.0,27.0,-97.0,-76.0,127.0,127.0,127.0,104.0,86.0,-106.0
127.0,131.0,211.0,144.0,128.0,124.0,127.0,128.0,27.0,-97.0,-76.0,127.0,127.0,127.0,104.0,86.0,-106.0
127.0,131.0,211.0,144.0,128.0,124.0,127.0,128.0,27.0,-97.0,-76.0,127.0,127.0,127.0,104.0,86.0,-106.0
127.0,131.0,211.0,144.0,128.0,124.0,127.0,128.0,27.0,-97.0,-76.0,127.0,127.0,127.0,104.0,86.0,-106.0
127.0,131.0,211.0,144.0,128.0,124.0,127.0,128.0,27.0,-97.0,-76.0,127.0,127.0,127.0,104.0,86.0,-106.0
127.0,131.0,209.0,145.0,129.0,123.0,127.0,128.0,27.0,-97.0,-76.0,127.0,127.0,127.0,104.0,86.0,-106.0
127.0,131.0,213.0,143.0,128.0,130.0,127.0,128.0,27.0,-97.0,-76.0,126.0,127.0,127.0,104.0,86.0,-106.0
127.0,131.0,213.0,143.0,128.0,130.0,127.0,128.0,27.0,-97.0,-76.0,126.0,127.0,127.0,104.0,86.0,-106.0
127.0,131.0,213.0,143.0,128.0,130.0,127.0,128.0,27.0,-97.0,-76.0,126.0,127.0,127.0,104.0,86.0,-106.0
127.0,131.0,212.0,143.0,128.0,130.0,127.0,128.0,27.0,-97.0,-76.0,126.0,127.0,127.0,104.0,86.0,-106.0
127.0,131.0,212.0,143.0,128.0,130.0,127.0,128.0,27.0,-97.0,-76.0,126.0,127.0,127.0,104.0,86.0,-106.0
127.0,131.0,212.0,143.0,128.0,129.0,127.0,128.0,27.0,-97.0,-76.0,126.0,127.0,127.0,104.0,86.0,-106.0
127.0,131.0,212.0,143.0,128.0,129.0,127.0,128.0,27.0,-97.0,-76.0,126.0,127.0,127.0,104.0,86.0,-106.0
127.0,131.0,211.0,143.0,128.0,129.0,127.0,128.0,27.0,-97.0,-76.0,126.0,127.0,127.0,104.0,86.0,-106.0
127.0,132.0,214.0,144.0,128.0,130.0,127.0,128.0,27.0,-97.0,-76.0,126.0,127.0,127.0,104.0,86.0,-106.0
127.0,132.0,213.0,144.0,128.0,130.0,127.0,128.0,27.0,-97.0,-76.0,126.0,127.0,127.0,104.0,86.0,-106.0
127.0,131.0,201.0,142.0,128.0,132.0,127.0,128.0,27.0,-97.0,-76.0,126.0,127.0,127.0,104.0,86.0,-106.0
127.0,131.0,201.0,142.0,128.0,133.0,127.0,128.0,27.0,-97.0,-76.0,126.0,127.0,127.0,104.0,86.0,-106.0
127.0,131.0,201.0,142.0,128.0,132.0,127.0,128.0,27.0,-97.0,-76.0,126.0,127.0,127.0,104.0,86.0,-106.0
127.0,131.0,201.0,142.0,128.0,132.0,127.0,128.0,27.0,-97.0,-76.0,126.0,127.0,127.0,104.0,86.0,-106.0
127.0,131.0,201.0,142.0,128.0,132.0,127.0,128.0,27.0,-97.0,-76.0,126.0,127.0,127.0,104.0,86.0,-106.0
127.0,131.0,201.0,142.0,128.0,131.0,127.0,128.0,27.0,-97.0,-76.0,126.0,127.0,127.0,104.0,86.0,-106.0
127.0,131.0,201.0,142.0,128.0,131.0,127.0,128.0,27.0,-97.0,-76.0,126.0,127.0,127.0,104.0,86.0,-106.0
127.0,131.0,200.0,141.0,128.0,132.0,127.0,128.0,27.0,-97.0,-76.0,126.0,127.0,127.0,104.0,86.0,-106.0
127.0,131.0,200.0,142.0,128.0,132.0,127.0,128.0,27.0,-97.0,-76.0,126.0,127.0,127.0,104.0,86.0,-106.0
127.0,131.0,201.0,142.0,128.0,132.0,127.0,128.0,27.0,-97.0,-76.0,126.0,127.0,127.0,104.0,86.0,-106.0
127.0,130.0,211.0,141.0,128.0,131.0,127.0,128.0,26.0,-96.0,-76.0,126.0,127.0,127.0,105.0,86.0,-106.0
127.0,130.0,211.0,141.0,128.0,130.0,127.0,128.0,26.0,-96.0,-76.0,126.0,127.0,127.0,105.0,86.0,-106.0
127.0,130.0,211.0,141.0,128.0,130.0,127.0,128.0,26.0,-96.0,-76.0,126.0,127.0,127.0,105.0,86.0,-106.0
127.0,130.0,211.0,141.0,128.0,130.0,127.0,128.0,26.0,-96.0,-76.0,126.0,127.0,127.0,105.0,86.0,-106.0
127.0,130.0,211.0,141.0,128.0,129.0,127.0,128.0,26.0,-96.0,-76.0,126.0,127.0,127.0,105.0,86.0,-106.0
127.0,130.0,211.0,141.0,127.0,128.0,127.0,128.0,26.0,-96.0,-76.0,126.0,127.0,127.0,105.0,86.0,-106.0
127.0,131.0,210.0,141.0,128.0,130.0,127.0,128.0,26.0,-96.0,-76.0,126.0,127.0,127.0,105.0,86.0,-106.0
127.0,131.0,210.0,141.0,128.0,130.0,127.0,128.0,26.0,-96.0,-76.0,126.0,127.0,127.0,105.0,86.0,-106.0
127.0,130.0,211.0,141.0,128.0,130.0,127.0,128.0,26.0,-96.0,-76.0,126.0,127.0,127.0,105.0,86.0,-106.0
127.0,130.0,211.0,141.0,128.0,130.0,127.0,128.0,26.0,-96.0,-76.0,126.0,127.0,127.0,105.0,86.0,-106.0
127.0,131.0,201.0,139.0,127.0,130.0,127.0,128.0,26.0,-96.0,-76.0,126.0,127.0,127.0,105.0,86.0,-106.0
127.0,130.0,201.0,139.0,127.0,130.0,127.0,128.0,26.0,-96.0,-76.0,126.0,127.0,127.0,105.0,86.0,-106.0
127.0,130.0,200.0,139.0,127.0,130.0,127.0,128.0,26.0,-96.0,-76.0,126.0,127.0,127.0,105.0,86.0,-106.0
127.0,130.0,200.0,139.0,127.0,129.0,127.0,128.0,26.0,-96.0,-76.0,126.0,127.0,127.0,105.0,86.0,-106.0
127.0,130.0,200.0,139.0,127.0,129.0,127.0,128.0,26.0,-96.0,-76.0,126.0,127.0,127.0,105.0,86.0,-106.0
127.0,131.0,203.0,140.0,127.0,130.0,127.0,128.0,26.0,-96.0,-76.0,126.0,127.0,127.0,105.0,86.0,-106.0
127.0,131.0,203.0,140.0,127.0,130.0,127.0,128.0,26.0,-96.0,-76.0,126.0,127.0,127.0,105.0,86.0,-106.0
127.0,131.0,202.0,139.0,127.0,130.0,127.0,128.0,26.0,-96.0,-76.0,126.0,127.0,127.0,105.0,86.0,-106.0
127.0,131.0,202.0,139.0,127.0,130.0,127.0,128.0,26.0,-96.0,-76.0,126.0,127.0,127.0,105.0,86.0,-106.0
127.0,131.0,202.0,139.0,127.0,130.0,127.0,128.0,26.0,-96.0,-76.0,126.0,127.0,127.0,105.0,86.0,-106.0
127.0,131.0,182.0,139.0,126.0,129.0,127.0,128.0,26.0,-96.0,-76.0,126.0,127.0,127.0,105.0,86.0,-106.0
127.0,131.0,182.0,139.0,126.0,129.0,127.0,128.0,26.0,-96.0,-76.0,126.0,127.0,127.0,105.0,86.0,-106.0
127.0,131.0,181.0,139.0,126.0,129.0,127.0,128.0,26.0,-96.0,-76.0,126.0,127.0,127.0,105.0,86.0,-106.0
127.0,131.0,181.0,139.0,126.0,129.0,127.0,128.0,26.0,-96.0,-76.0,126.0,127.0,127.0,105.0,86.0,-106.0
127.0,131.0,184.0,140.0,127.0,130.0,127.0,128.0,26.0,-96.0,-76.0,126.0,127.0,127.0,105.0,86.0,-106.0
127.0,131.0,183.0,140.0,127.0,130.0,127.0,128.0,26.0,-96.0,-76.0,126.0,127.0,127.0,105.0,86.0,-106.0
127.0,131.0,183.0,139.0,127.0,130.0,127.0,128.0,26.0,-96.0,-76.0,126.0,127.0,127.0,105.0,86.0,-106.0
127.0,131.0,183.0,139.0,126.0,130.0,127.0,128.0,26.0,-96.0,-76.0,126.0,127.0,127.0,105.0,86.0,-106.0
127.0,131.0,183.0,139.0,126.0,130.0,127.0,128.0,26.0,-96.0,-76.0,126.0,127.0,127.0,105.0,86.0,-106.0
127.0,131.0,182.0,139.0,126.0,130.0,127.0,128.0,26.0,-96.0,-76.0,126.0,127.0,127.0,105.0,86.0,-106.0
127.0,130.0,174.0,138.0,126.0,129.0,127.0,128.0,26.0,-96.0,-75.0,127.0,127.0,127.0,105.0,86.0,-106.0
127.0,130.0,174.0,138.0,127.0,129.0,127.0,128.0,26.0,-96.0,-75.0,127.0,127.0,127.0,105.0,86.0,-106.0
127.0,131.0,173.0,138.0,127.0,130.0,127.0,128.0,26.0,-96.0,-75.0,127.0,127.0,127.0,105.0,86.0,-106.0
127.0,130.0,174.0,138.0,127.0,127.0,127.0,128.0,26.0,-96.0,-75.0,127.0,127.0,127.0,105.0,86.0,-106.0
127.0,130.0,174.0,138.0,127.0,128.0,127.0,128.0,26.0,-96.0,-75.0,127.0,127.0,127.0,105.0,86.0,-106.0
127.0,130.0,174.0,138.0,126.0,128.0,126.0,128.0,26.0,-96.0,-75.0,127.0,127.0,127.0,105.0,86.0,-106.0
127.0,130.0,173.0,138.0,127.0,130.0,126.0,128.0,26.0,-96.0,-75.0,127.0,127.0,127.0,105.0,86.0,-106.0
127.0,130.0,174.0,138.0,126.0,130.0,127.0,128.0,26.0,-96.0,-75.0,127.0,127.0,127.0,105.0,86.0,-106.0
127.0,130.0,174.0,138.0,126.0,130.0,127.0,128.0,26.0,-96.0,-75.0,127.0,127.0,127.0,105.0,86.0,-106.0
127.0,130.0,174.0,138.0,126.0,129.0,127.0,128.0,26.0,-96.0,-75.0,127.0,127.0,127.0,105.0,86.0,-106.0
127.0,129.0,165.0,137.0,126.0,129.0,127.0,128.0,26.0,-96.0,-75.0,127.0,127.0,127.0,105.0,86.0,-106.0
127.0,129.0,164.0,136.0,126.0,129.0,127.0,128.0,26.0,-96.0,-75.0,127.0,127.0,127.0,105.0,86.0,-106.0
127.0,131.0,168.0,138.0,127.0,131.0,127.0,128.0,26.0,-96.0,-75.0,127.0,127.0,127.0,105.0,86.0,-106.0
127.0,130.0,167.0,138.0,126.0,131.0,127.0,128.0,26.0,-96.0,-75.0,127.0,127.0,127.0,105.0,86.0,-106.0
127.0,130.0,167.0,138.0,126.0,131.0,127.0,128.0,26.0,-96.0,-75.0,127.0,127.0,127.0,105.0,86.0,-106.0
127.0,130.0,167.0,137.0,126.0,131.0,127.0,128.0,26.0,-96.0,-75.0,127.0,127.0,127.0,105.0,86.0,-106.0
127.0,130.0,166.0,137.0,126.0,131.0,127.0,128.0,26.0,-96.0,-75.0,127.0,127.0,127.0,105.0,86.0,-106.0
127.0,130.0,166.0,137.0,126.0,131.0,127.0,128.0,26.0,-96.0,-75.0,127.0,127.0,127.0,105.0,86.0,-106.0
127.0,130.0,165.0,137.0,126.0,130.0,127.0,128.0,26.0,-96.0,-75.0,127.0,127.0,127.0,105.0,86.0,-106.0
127.0,130.0,165.0,137.0,126.0,130.0,127.0,128.0,26.0,-96.0,-75.0,127.0,127.0,127.0,105.0,86.0,-106.0
127.0,129.0,147.0,137.0,127.0,128.0,127.0,128.0,26.0,-96.0,-75.0,127.0,127.0,127.0,105.0,86.0,-106.0
127.0,130.0,149.0,137.0,126.0,130.0,127.0,128.0,26.0,-96.0,-75.0,127.0,127.0,127.0,105.0,86.0,-106.0
127.0,130.0,149.0,137.0,126.0,130.0,127.0,128.0,26.0,-96.0,-75.0,127.0,127.0,127.0,105.0,86.0,-106.0
127.0,130.0,149.0,137.0,126.0,130.0,127.0,128.0,26.0,-96.0,-75.0,127.0,127.0,127.0,105.0,86.0,-106.0
127.0,130.0,148.0,137.0,126.0,130.0,127.0,128.0,26.0,-96.0,-75.0,127.0,127.0,127.0,105.0,86.0,-106.0
127.0,130.0,148.0,137.0,126.0,130.0,127.0,128.0,26.0,-96.0,-75.0,127.0,127.0,127.0,105.0,86.0,-106.0
127.0,130.0,148.0,137.0,126.0,130.0,127.0,128.0,26.0,-96.0,-75.0,127.0,127.0,127.0,105.0,86.0,-106.0
127.0,130.0,148.0,137.0,126.0,129.0,127.0,128.0,26.0,-96.0,-75.0,127.0,127.0,127.0,105.0,86.0,-106.0
127.0,129.0,147.0,137.0,127.0,129.0,127.0,128.0,26.0,-96.0,-75.0,127.0,127.0,127.0,105.0,86.0,-106.0
127.0,129.0,147.0,137.0,127.0,129.0,127.0,128.0,26.0,-96.0,-75.0,127.0,127.0,127.0,105.0,86.0,-106.0
127.0,130.0,137.0,137.0,126.0,128.0,126.0,128.0,26.0,-96.0,-76.0,127.0,127.0,127.0,106.0,86.0,-106.0
127.0,130.0,137.0,136.0,126.0,128.0,126.0,128.0,26.0,-96.0,-76.0,127.0,127.0,127.0,106.0,86.0,-106.0
127.0,130.0,137.0,137.0,126.0,128.0,126.0,128.0,26.0,-96.0,-76.0,127.0,127.0,127.0,106.0,86.0,-106.0
127.0,130.0,137.0,136.0,126.0,128.0,126.0,128.0,26.0,-96.0,-76.0,127.0,127.0,127.0,106.0,86.0,-106.0
127.0,130.0,137.0,136.0,126.0,128.0,126.0,128.0,26.0,-96.0,-76.0,127.0,127.0,127.0,106.0,86.0,-106.0
127.0,130.0,137.0,136.0,126.0,128.0,126.0,128.0,26.0,-96.0,-76.0,127.0,127.0,127.0,106.0,86.0,-106.0
127.0,129.0,137.0,136.0,126.0,128.0,126.0,128.0,26.0,-96.0,-76.0,127.0,127.0,127.0,106.0,86.0,-106.0
127.0,129.0,136.0,136.0,126.0,128.0,126.0,128.0,26.0,-96.0,-76.0,127.0,127.0,127.0,106.0,86.0,-106.0
127.0,129.0,136.0,136.0,126.0,127.0,126.0,128.0,26.0,-96.0,-76.0,127.0,127.0,127.0,106.0,86.0,-106.0
127.0,129.0,136.0,136.0,126.0,127.0,126.0,128.0,26.0,-96.0,-76.0,127.0,127.0,127.0,106.0,86.0,-106.0
127.0,130.0,134.0,136.0,126.0,128.0,126.0,128.0,26.0,-97.0,-76.0,127.0,127.0,127.0,106.0,86.0,-106.0
127.0,130.0,134.0,136.0,126.0,128.0,126.0,128.0,26.0,-97.0,-76.0,127.0,127.0,127.0,106.0,86.0,-106.0
127.0,130.0,134.0,136.0,126.0,128.0,126.0,128.0,26.0,-97.0,-76.0,127.0,127.0,127.0,106.0,86.0,-106.0
127.0,130.0,134.0,136.0,126.0,128.0,126.0,128.0,26.0,-97.0,-76.0,127.0,127.0,127.0,106.0,86.0,-106.0
127.0,130.0,134.0,136.0,126.0,128.0,126.0,128.0,26.0,-97.0,-76.0,127.0,127.0,127.0,106.0,86.0,-106.0
127.0,130.0,134.0,136.0,126.0,128.0,126.0,128.0,26.0,-97.0,-76.0,127.0,127.0,127.0,106.0,86.0,-106.0
127.0,129.0,134.0,136.0,126.0,127.0,126.0,128.0,26.0,-97.0,-76.0,127.0,127.0,127.0,106.0,86.0,-106.0
127.0,129.0,134.0,136.0,126.0,127.0,126.0,128.0,26.0,-97.0,-76.0,127.0,127.0,127.0,106.0,86.0,-106.0
127.0,129.0,134.0,136.0,126.0,127.0,126.0,128.0,26.0,-97.0,-76.0,127.0,127.0,127.0,106.0,86.0,-106.0
127.0,130.0,134.0,136.0,127.0,127.0,126.0,128.0,26.0,-97.0,-76.0,127.0,127.0,127.0,106.0,86.0,-106.0
127.0,130.0,131.0,136.0,126.0,128.0,126.0,128.0,26.0,-97.0,-76.0,127.0,127.0,127.0,106.0,86.0,-106.0
128.0,130.0,131.0,136.0,126.0,128.0,126.0,128.0,26.0,-97.0,-76.0,127.0,127.0,127.0,106.0,86.0,-106.0
127.0,130.0,131.0,136.0,126.0,128.0,126.0,128.0,26.0,-97.0,-76.0,127.0,127.0,127.0,106.0,86.0,-106.0
128.0,130.0,131.0,136.0,126.0,128.0,126.0,128.0,26.0,-97.0,-76.0,127.0,127.0,127.0,106.0,86.0,-106.0
128.0,130.0,131.0,136.0,126.0,128.0,126.0,128.0,26.0,-97.0,-76.0,127.0,127.0,127.0,106.0,86.0,-106.0
128.0,130.0,131.0,136.0,126.0,128.0,126.0,128.0,26.0,-97.0,-76.0,127.0,127.0,127.0,106.0,86.0,-106.0
128.0,130.0,131.0,136.0,126.0,128.0,126.0,128.0,26.0,-97.0,-76.0,127.0,127.0,127.0,106.0,86.0,-106.0
127.0,130.0,131.0,136.0,126.0,126.0,126.0,128.0,26.0,-97.0,-76.0,127.0,127.0,127.0,106.0,86.0,-106.0
127.0,130.0,131.0,136.0,126.0,127.0,126.0,128.0,26.0,-97.0,-76.0,127.0,127.0,127.0,106.0,86.0,-106.0
127.0,130.0,131.0,136.0,126.0,128.0,126.0,128.0,26.0,-97.0,-76.0,127.0,127.0,127.0,106.0,86.0,-106.0
128.0,129.0,132.0,135.0,126.0,129.0,126.0,128.0,26.0,-97.0,-76.0,127.0,127.0,127.0,106.0,86.0,-106.0
128.0,129.0,132.0,135.0,126.0,128.0,126.0,128.0,26.0,-97.0,-76.0,127.0,127.0,127.0,106.0,86.0,-106.0
128.0,129.0,132.0,135.0,126.0,129.0,126.0,128.0,26.0,-97.0,-76.0,127.0,127.0,127.0,106.0,86.0,-106.0
128.0,129.0,133.0,135.0,126.0,128.0,126.0,128.0,26.0,-97.0,-76.0,127.0,127.0,127.0,106.0,86.0,-106.0
128.0,129.0,133.0,135.0,126.0,128.0,126.0,128.0,26.0,-97.0,-76.0,127.0,127.0,127.0,106.0,86.0,-106.0
128.0,129.0,133.0,135.0,126.0,128.0,126.0,128.0,26.0,-97.0,-76.0,127.0,127.0,127.0,106.0,86.0,-106.0
128.0,129.0,132.0,135.0,126.0,126.0,126.0,128.0,26.0,-97.0,-76.0,127.0,127.0,127.0,106.0,86.0,-106.0
128.0,130.0,132.0,135.0,126.0,128.0,126.0,128.0,26.0,-97.0,-76.0,127.0,127.0,127.0,106.0,86.0,-106.0
128.0,130.0,132.0,135.0,126.0,128.0,126.0,128.0,26.0,-97.0,-76.0,127.0,127.0,127.0,106.0,86.0,-106.0
128.0,129.0,132.0,135.0,126.0,129.0,126.0,128.0,26.0,-97.0,-76.0,127.0,127.0,127.0,106.0,86.0,-106.0
128.0,129.0,130.0,137.0,127.0,130.0,126.0,128.0,26.0,-98.0,-76.0,127.0,127.0,127.0,106.0,86.0,-106.0
128.0,129.0,130.0,137.0,127.0,130.0,126.0,128.0,26.0,-98.0,-76.0,127.0,127.0,127.0,106.0,86.0,-106.0
128.0,129.0,130.0,137.0,127.0,130.0,126.0,128.0,26.0,-98.0,-76.0,127.0,127.0,127.0,106.0,86.0,-106.0
128.0,128.0,130.0,137.0,127.0,129.0,126.0,128.0,26.0,-98.0,-76.0,127.0,127.0,127.0,106.0,86.0,-106.0
128.0,128.0,130.0,137.0,127.0,129.0,126.0,128.0,26.0,-98.0,-76.0,127.0,127.0,127.0,106.0,86.0,-106.0
128.0,129.0,131.0,138.0,128.0,128.0,126.0,128.0,26.0,-98.0,-76.0,127.0,127.0,127.0,106.0,86.0,-106.0
128.0,129.0,131.0,137.0,128.0,129.0,126.0,128.0,26.0,-98.0,-76.0,127.0,127.0,127.0,106.0,86.0,-106.0
128.0,129.0,131.0,137.0,127.0,130.0,126.0,128.0,26.0,-98.0,-76.0,127.0,127.0,127.0,106.0,86.0,-106.0
128.0,129.0,131.0,137.0,127.0,130.0,126.0,128.0,26.0,-98.0,-76.0,127.0,127.0,127.0,106.0,86.0,-106.0
128.0,129.0,130.0,137.0,127.0,130.0,126.0,128.0,26.0,-98.0,-76.0,127.0,127.0,127.0,106.0,86.0,-106.0
127.0,128.0,123.0,134.0,126.0,127.0,126.0,128.0,26.0,-98.0,-76.0,127.0,127.0,127.0,106.0,86.0,-106.0
127.0,128.0,123.0,134.0,126.0,127.0,126.0,128.0,26.0,-98.0,-76.0,127.0,127.0,127.0,106.0,86.0,-106.0
128.0,128.0,123.0,134.0,126.0,129.0,126.0,128.0,26.0,-98.0,-76.0,127.0,127.0,127.0,106.0,86.0,-106.0
128.0,128.0,123.0,134.0,126.0,129.0,126.0,128.0,26.0,-98.0,-76.0,127.0,127.0,127.0,106.0,86.0,-106.0
127.0,128.0,124.0,134.0,126.0,126.0,126.0,128.0,26.0,-98.0,-76.0,127.0,127.0,127.0,106.0,86.0,-106.0
127.0,128.0,124.0,134.0,126.0,126.0,126.0,128.0,26.0,-98.0,-76.0,127.0,127.0,127.0,106.0,86.0,-106.0
127.0,128.0,124.0,134.0,126.0,126.0,126.0,128.0,26.0,-98.0,-76.0,127.0,127.0,127.0,106.0,86.0,-106.0
127.0,128.0,124.0,134.0,126.0,126.0,126.0,128.0,26.0,-98.0,-76.0,127.0,127.0,127.0,106.0,86.0,-106.0
127.0,128.0,123.0,134.0,126.0,126.0,126.0,128.0,26.0,-98.0,-76.0,127.0,127.0,127.0,106.0,86.0,-106.0
127.0,128.0,123.0,134.0,126.0,126.0,126.0,128.0,26.0,-98.0,-76.0,127.0,127.0,127.0,106.0,86.0,-106.0
127.0,128.0,115.0,134.0,126.0,130.0,126.0,128.0,26.0,-98.0,-76.0,127.0,127.0,127.0,106.0,86.0,-106.0
127.0,128.0,115.0,134.0,126.0,129.0,126.0,128.0,26.0,-98.0,-76.0,127.0,127.0,127.0,106.0,86.0,-106.0
127.0,128.0,115.0,134.0,126.0,129.0,126.0,128.0,26.0,-98.0,-76.0,127.0,127.0,127.0,106.0,86.0,-106.0
127.0,128.0,116.0,133.0,126.0,127.0,126.0,128.0,26.0,-98.0,-76.0,127.0,127.0,127.0,106.0,86.0,-106.0
127.0,128.0,115.0,133.0,126.0,127.0,126.0,128.0,26.0,-98.0,-76.0,127.0,127.0,127.0,106.0,86.0,-106.0
128.0,128.0,115.0,133.0,126.0,129.0,126.0,128.0,26.0,-98.0,-76.0,127.0,127.0,127.0,106.0,86.0,-106.0
127.0,128.0,115.0,133.0,126.0,129.0,126.0,128.0,26.0,-98.0,-76.0,127.0,127.0,127.0,106.0,86.0,-106.0
127.0,128.0,115.0,133.0,126.0,129.0,126.0,128.0,26.0,-98.0,-76.0,127.0,127.0,127.0,106.0,86.0,-106.0
127.0,128.0,115.0,133.0,126.0,129.0,126.0,128.0,26.0,-98.0,-76.0,127.0,127.0,127.0,106.0,86.0,-106.0
128.0,128.0,115.0,133.0,126.0,130.0,126.0,128.0,26.0,-98.0,-76.0,127.0,127.0,127.0,106.0,86.0,-106.0
127.0,128.0,113.0,133.0,126.0,131.0,126.0,128.0,26.0,-98.0,-76.0,127.0,127.0,127.0,106.0,86.0,-106.0
128.0,128.0,114.0,133.0,126.0,131.0,126.0,128.0,26.0,-98.0,-76.0,127.0,127.0,127.0,106.0,86.0,-106.0
127.0,128.0,113.0,133.0,126.0,129.0,126.0,128.0,26.0,-98.0,-76.0,127.0,127.0,127.0,106.0,86.0,-106.0
127.0,128.0,113.0,133.0,126.0,129.0,126.0,128.0,26.0,-98.0,-76.0,127.0,127.0,127.0,106.0,86.0,-106.0
127.0,128.0,113.0,133.0,126.0,131.0,126.0,128.0,26.0,-98.0,-76.0,127.0,127.0,127.0,106.0,86.0,-106.0
127.0,128.0,113.0,133.0,126.0,131.0,126.0,128.0,26.0,-98.0,-76.0,127.0,127.0,127.0,106.0,86.0,-106.0
127.0,128.0,113.0,133.0,126.0,131.0,126.0,128.0,26.0,-98.0,-76.0,127.0,127.0,127.0,106.0,86.0,-106.0
127.0,128.0,113.0,133.0,126.0,131.0,126.0,128.0,26.0,-98.0,-76.0,127.0,127.0,127.0,106.0,86.0,-106.0
127.0,128.0,113.0,133.0,126.0,132.0,126.0,128.0,26.0,-98.0,-76.0,127.0,127.0,127.0,106.0,86.0,-106.0
127.0,128.0,113.0,133.0,126.0,131.0,126.0,128.0,26.0,-98.0,-76.0,127.0,127.0,127.0,106.0,86.0,-106.0
128.0,128.0,117.0,133.0,126.0,132.0,126.0,128.0,26.0,-98.0,-77.0,127.0,127.0,127.0,106.0,86.0,-106.0
128.0,128.0,116.0,134.0,126.0,131.0,126.0,128.0,26.0,-98.0,-77.0,127.0,127.0,127.0,106.0,86.0,-106.0
128.0,128.0,116.0,134.0,126.0,131.0,126.0,128.0,26.0,-98.0,-77.0,127.0,127.0,127.0,106.0,86.0,-106.0
128.0,128.0,116.0,133.0,126.0,133.0,126.0,128.0,26.0,-98.0,-77.0,127.0,127.0,127.0,106.0,86.0,-106.0
128.0,128.0,116.0,133.0,126.0,133.0,126.0,128.0,26.0,-98.0,-77.0,127.0,127.0,127.0,106.0,86.0,-106.0
128.0,128.0,116.0,133.0,126.0,133.0,126.0,128.0,26.0,-98.0,-77.0,127.0,127.0,127.0,106.0,86.0,-106.0
128.0,128.0,116.0,133.0,126.0,133.0,126.0,128.0,26.0,-98.0,-77.0,127.0,127.0,127.0,106.0,86.0,-106.0
128.0,128.0,116.0,133.0,126.0,133.0,126.0,128.0,26.0,-98.0,-77.0,127.0,127.0,127.0,106.0,86.0,-106.0
128.0,128.0,116.0,133.0,126.0,133.0,126.0,128.0,26.0,-98.0,-77.0,127.0,127.0,127.0,106.0,86.0,-106.0
128.0,128.0,117.0,133.0,126.0,133.0,126.0,128.0,26.0,-98.0,-77.0,127.0,127.0,127.0,106.0,86.0,-106.0
128.0,128.0,120.0,133.0,126.0,131.0,126.0,128.0,26.0,-98.0,-77.0,127.0,127.0,127.0,106.0,86.0,-106.0
128.0,128.0,120.0,133.0,126.0,132.0,126.0,128.0,26.0,-98.0,-77.0,127.0,127.0,127.0,106.0,86.0,-106.0
128.0,128.0,120.0,133.0,126.0,133.0,126.0,128.0,26.0,-98.0,-77.0,127.0,127.0,127.0,106.0,86.0,-106.0
128.0,128.0,120.0,133.0,126.0,134.0,126.0,128.0,26.0,-98.0,-77.0,127.0,127.0,127.0,106.0,86.0,-106.0
128.0,128.0,120.0,132.0,126.0,134.0,126.0,128.0,26.0,-98.0,-77.0,127.0,127.0,127.0,106.0,86.0,-106.0
128.0,128.0,120.0,132.0,126.0,134.0,126.0,128.0,26.0,-98.0,-77.0,127.0,127.0,127.0,106.0,86.0,-106.0
128.0,128.0,120.0,132.0,126.0,134.0,126.0,128.0,26.0,-98.0,-77.0,127.0,127.0,127.0,106.0,86.0,-106.0
128.0,128.0,120.0,132.0,126.0,134.0,126.0,128.0,26.0,-98.0,-77.0,127.0,127.0,127.0,106.0,86.0,-106.0
128.0,128.0,120.0,132.0,126.0,134.0,126.0,128.0,26.0,-98.0,-77.0,127.0,127.0,127.0,106.0,86.0,-106.0
128.0,128.0,120.0,132.0,126.0,133.0,126.0,128.0,26.0,-98.0,-77.0,127.0,127.0,127.0,106.0,86.0,-106.0
128.0,129.0,118.0,134.0,126.0,133.0,126.0,128.0,26.0,-98.0,-77.0,127.0,127.0,127.0,106.0,86.0,-106.0
128.0,129.0,118.0,134.0,126.0,134.0,126.0,128.0,26.0,-98.0,-77.0,127.0,127.0,127.0,106.0,86.0,-106.0
128.0,129.0,118.0,134.0,126.0,135.0,126.0,128.0,26.0,-98.0,-77.0,127.0,127.0,127.0,106.0,86.0,-106.0
128.0,129.0,118.0,134.0,126.0,135.0,126.0,128.0,26.0,-98.0,-77.0,127.0,127.0,127.0,106.0,86.0,-106.0
128.0,129.0,118.0,133.0,127.0,135.0,126.0,128.0,26.0,-98.0,-77.0,127.0,127.0,127.0,106.0,86.0,-106.0
128.0,129.0,118.0,133.0,127.0,135.0,126.0,128.0,26.0,-98.0,-77.0,127.0,127.0,127.0,106.0,86.0,-106.0
128.0,129.0,117.0,133.0,127.0,135.0,126.0,128.0,26.0,-98.0,-77.0,127.0,127.0,127.0,106.0,86.0,-106.0
128.0,129.0,117.0,133.0,127.0,135.0,126.0,128.0,26.0,-98.0,-77.0,127.0,127.0,127.0,106.0,86.0,-106.0
128.0,128.0,117.0,133.0,127.0,135.0,126.0,128.0,26.0,-98.0,-77.0,127.0,127.0,127.0,106.0,86.0,-106.0
128.0,129.0,118.0,134.0,126.0,132.0,126.0,128.0,26.0,-98.0,-77.0,127.0,127.0,127.0,106.0,86.0,-106.0
128.0,128.0,117.0,132.0,126.0,134.0,126.0,128.0,25.0,-98.0,-77.0,127.0,127.0,127.0,106.0,86.0,-106.0
128.0,128.0,117.0,132.0,126.0,135.0,126.0,128.0,25.0,-98.0,-77.0,127.0,127.0,127.0,106.0,86.0,-106.0
128.0,128.0,117.0,132.0,126.0,135.0,126.0,128.0,25.0,-98.0,-77.0,127.0,127.0,127.0,106.0,86.0,-106.0
128.0,128.0,117.0,132.0,126.0,135.0,126.0,128.0,25.0,-98.0,-77.0,127.0,127.0,127.0,106.0,86.0,-106.0
128.0,128.0,117.0,132.0,126.0,135.0,126.0,128.0,25.0,-98.0,-77.0,127.0,127.0,127.0,106.0,86.0,-106.0
128.0,128.0,117.0,132.0,126.0,135.0,126.0,128.0,25.0,-98.0,-77.0,127.0,127.0,127.0,106.0,86.0,-106.0
128.0,128.0,117.0,132.0,126.0,135.0,126.0,128.0,25.0,-98.0,-77.0,127.0,127.0,127.0,106.0,86.0,-106.0
128.0,128.0,117.0,132.0,126.0,134.0,126.0,128.0,25.0,-98.0,-77.0,127.0,127.0,127.0,106.0,86.0,-106.0
128.0,128.0,117.0,133.0,126.0,133.0,126.0,128.0,25.0,-98.0,-77.0,127.0,127.0,127.0,106.0,86.0,-106.0
128.0,128.0,117.0,132.0,126.0,133.0,126.0,128.0,25.0,-98.0,-77.0,127.0,127.0,127.0,106.0,86.0,-106.0
128.0,128.0,117.0,131.0,126.0,134.0,126.0,128.0,25.0,-97.0,-76.0,127.0,127.0,127.0,106.0,86.0,-106.0
128.0,128.0,117.0,131.0,126.0,134.0,126.0,128.0,25.0,-97.0,-76.0,127.0,127.0,127.0,106.0,86.0,-106.0
128.0,128.0,117.0,131.0,126.0,134.0,126.0,128.0,25.0,-97.0,-76.0,127.0,127.0,127.0,106.0,86.0,-106.0
128.0,128.0,117.0,131.0,126.0,133.0,126.0,128.0,25.0,-97.0,-76.0,127.0,127.0,127.0,106.0,86.0,-106.0
128.0,128.0,117.0,131.0,126.0,134.0,126.0,128.0,25.0,-97.0,-76.0,127.0,127.0,127.0,106.0,86.0,-106.0
128.0,128.0,117.0,131.0,126.0,133.0,126.0,128.0,25.0,-97.0,-76.0,127.0,127.0,127.0,106.0,86.0,-106.0
128.0,128.0,117.0,131.0,126.0,133.0,126.0,128.0,25.0,-97.0,-76.0,127.0,127.0,127.0,106.0,86.0,-106.0
128.0,128.0,117.0,131.0,127.0,132.0,126.0,128.0,25.0,-97.0,-76.0,127.0,127.0,127.0,106.0,86.0,-106.0
128.0,128.0,117.0,131.0,126.0,132.0,126.0,128.0,25.0,-97.0,-76.0,127.0,127.0,127.0,106.0,86.0,-106.0
128.0,128.0,117.0,131.0,126.0,132.0,126.0,128.0,25.0,-97.0,-76.0,127.0,127.0,127.0,106.0,86.0,-106.0
127.0,127.0,117.0,132.0,127.0,130.0,126.0,128.0,25.0,-97.0,-76.0,127.0,127.0,127.0,106.0,86.0,-106.0
127.0,127.0,117.0,132.0,127.0,130.0,126.0,128.0,25.0,-97.0,-76.0,127.0,127.0,127.0,106.0,86.0,-106.0
128.0,128.0,117.0,132.0,127.0,132.0,126.0,128.0,25.0,-97.0,-76.0,127.0,127.0,127.0,106.0,86.0,-106.0
128.0,128.0,117.0,132.0,127.0,132.0,126.0,128.0,25.0,-97.0,-76.0,127.0,127.0,127.0,106.0,86.0,-106.0
128.0,128.0,117.0,132.0,127.0,131.0,126.0,128.0,25.0,-97.0,-76.0,127.0,127.0,127.0,106.0,86.0,-106.0
127.0,128.0,117.0,132.0,127.0,131.0,126.0,128.0,25.0,-97.0,-76.0,127.0,127.0,127.0,106.0,86.0,-106.0
128.0,128.0,117.0,132.0,127.0,129.0,126.0,128.0,25.0,-97.0,-76.0,127.0,127.0,127.0,106.0,86.0,-106.0
128.0,128.0,117.0,132.0,127.0,129.0,126.0,128.0,25.0,-97.0,-76.0,127.0,127.0,127.0,106.0,86.0,-106.0
127.0,128.0,117.0,132.0,127.0,129.0,126.0,128.0,25.0,-97.0,-76.0,127.0,127.0,127.0,106.0,86.0,-106.0
127.0,127.0,117.0,132.0,127.0,129.0,126.0,128.0,25.0,-97.0,-76.0,127.0,127.0,127.0,106.0,86.0,-106.0
128.0,128.0,118.0,131.0,126.0,131.0,127.0,128.0,25.0,-97.0,-76.0,127.0,127.0,127.0,106.0,86.0,-106.0
128.0,128.0,118.0,131.0,126.0,131.0,127.0,128.0,25.0,-97.0,-76.0,127.0,127.0,127.0,106.0,86.0,-106.0
128.0,128.0,118.0,131.0,126.0,131.0,127.0,128.0,25.0,-97.0,-76.0,127.0,127.0,127.0,106.0,86.0,-106.0
128.0,128.0,118.0,131.0,126.0,131.0,127.0,128.0,25.0,-97.0,-76.0,127.0,127.0,127.0,106.0,86.0,-106.0
128.0,128.0,118.0,131.0,126.0,131.0,127.0,128.0,25.0,-97.0,-76.0,127.0,127.0,127.0,106.0,86.0,-106.0
128.0,129.0,118.0,132.0,127.0,131.0,127.0,128.0,25.0,-97.0,-76.0,127.0,127.0,127.0,106.0,86.0,-106.0
128.0,129.0,118.0,132.0,127.0,131.0,127.0,128.0,25.0,-97.0,-76.0,127.0,127.0,127.0,106.0,86.0,-106.0
128.0,129.0,118.0,132.0,127.0,131.0,127.0,128.0,25.0,-97.0,-76.0,127.0,127.0,127.0,106.0,86.0,-106.0
128.0,129.0,118.0,131.0,127.0,131.0,127.0,128.0,25.0,-97.0,-76.0,127.0,127.0,127.0,106.0,86.0,-106.0
128.0,129.0,118.0,131.0,126.0,132.0,127.0,128.0,25.0,-97.0,-76.0,127.0,127.0,127.0,106.0,86.0,-106.0
127.0,128.0,123.0,130.0,126.0,131.0,126.0,128.0,25.0,-97.0,-76.0,127.0,127.0,127.0,106.0,86.0,-106.0
127.0,128.0,123.0,130.0,126.0,131.0,126.0,128.0,25.0,-97.0,-76.0,127.0,127.0,127.0,106.0,86.0,-106.0
127.0,128.0,123.0,130.0,126.0,131.0,126.0,128.0,25.0,-97.0,-76.0,127.0,127.0,127.0,106.0,86.0,-106.0
128.0,128.0,123.0,130.0,126.0,130.0,126.0,128.0,25.0,-97.0,-76.0,127.0,127.0,127.0,106.0,86.0,-106.0
128.0,129.0,122.0,131.0,127.0,131.0,126.0,128.0,25.0,-97.0,-76.0,127.0,127.0,127.0,106.0,86.0,-106.0
128.0,129.0,122.0,131.0,127.0,131.0,126.0,128.0,25.0,-97.0,-76.0,127.0,127.0,127.0,106.0,86.0,-106.0
128.0,128.0,122.0,131.0,126.0,131.0,126.0,128.0,25.0,-97.0,-76.0,127.0,127.0,127.0,106.0,86.0,-106.0
128.0,128.0,122.0,130.0,126.0,131.0,126.0,128.0,25.0,-97.0,-76.0,127.0,127.0,127.0,106.0,86.0,-106.0
128.0,128.0,123.0,130.0,126.0,131.0,126.0,128.0,25.0,-97.0,-76.0,127.0,127.0,127.0,106.0,86.0,-106.0
127.0,128.0,123.0,130.0,126.0,131.0,126.0,128.0,25.0,-97.0,-76.0,127.0,127.0,127.0,106.0,86.0,-106.0
128.0,128.0,121.0,130.0,127.0,131.0,126.0,128.0,25.0,-97.0,-77.0,127.0,127.0,127.0,106.0,86.0,-106.0
128.0,128.0,121.0,130.0,127.0,131.0,126.0,128.0,25.0,-97.0,-77.0,127.0,127.0,127.0,106.0,86.0,-106.0
128.0,128.0,121.0,130.0,126.0,131.0,126.0,128.0,25.0,-97.0,-77.0,127.0,127.0,127.0,106.0,86.0,-106.0
128.0,129.0,121.0,131.0,127.0,131.0,126.0,128.0,25.0,-97.0,-77.0,127.0,127.0,127.0,106.0,86.0,-106.0
128.0,129.0,121.0,131.0,126.0,131.0,126.0,128.0,25.0,-97.0,-77.0,127.0,127.0,127.0,106.0,86.0,-106.0
128.0,129.0,121.0,131.0,126.0,132.0,126.0,128.0,25.0,-97.0,-77.0,127.0,127.0,127.0,106.0,86.0,-106.0
128.0,129.0,121.0,131.0,126.0,132.0,126.0,128.0,25.0,-97.0,-77.0,127.0,127.0,127.0,106.0,86.0,-106.0
128.0,128.0,121.0,131.0,127.0,132.0,126.0,128.0,25.0,-97.0,-77.0,127.0,127.0,127.0,106.0,86.0,-106.0
128.0,128.0,121.0,130.0,126.0,132.0,126.0,128.0,25.0,-97.0,-77.0,127.0,127.0,127.0,106.0,86.0,-106.0
128.0,128.0,121.0,130.0,127.0,132.0,126.0,128.0,25.0,-97.0,-77.0,127.0,127.0,127.0,106.0,86.0,-106.0
128.0,129.0,118.0,131.0,126.0,132.0,127.0,128.0,25.0,-97.0,-77.0,127.0,127.0,127.0,106.0,86.0,-106.0
128.0,129.0,118.0,131.0,127.0,130.0,127.0,128.0,25.0,-97.0,-77.0,127.0,127.0,127.0,106.0,86.0,-106.0
128.0,129.0,118.0,131.0,127.0,131.0,127.0,128.0,25.0,-97.0,-77.0,127.0,127.0,127.0,106.0,86.0,-106.0
128.0,130.0,118.0,131.0,127.0,132.0,127.0,128.0,25.0,-97.0,-77.0,127.0,127.0,127.0,106.0,86.0,-106.0
128.0,129.0,118.0,131.0,127.0,132.0,127.0,128.0,25.0,-97.0,-77.0,127.0,127.0,127.0,106.0,86.0,-106.0
128.0,129.0,118.0,131.0,127.0,132.0,127.0,128.0,25.0,-97.0,-77.0,127.0,127.0,127.0,106.0,86.0,-106.0
128.0,129.0,118.0,130.0,126.0,132.0,127.0,128.0,25.0,-97.0,-77.0,127.0,127.0,127.0,106.0,86.0,-106.0
128.0,129.0,118.0,130.0,127.0,132.0,127.0,128.0,25.0,-97.0,-77.0,127.0,127.0,127.0,106.0,86.0,-106.0
128.0,129.0,118.0,130.0,126.0,132.0,127.0,128.0,25.0,-97.0,-77.0,127.0,127.0,127.0,106.0,86.0,-106.0
128.0,129.0,118.0,130.0,126.0,132.0,127.0,128.0,25.0,-97.0,-77.0,127.0,127.0,127.0,106.0,86.0,-106.0
128.0,129.0,117.0,130.0,127.0,129.0,127.0,128.0,25.0,-97.0,-77.0,127.0,127.0,127.0,106.0,86.0,-106.0
128.0,130.0,117.0,130.0,127.0,131.0,127.0,128.0,25.0,-97.0,-77.0,127.0,127.0,127.0,106.0,86.0,-106.0
128.0,130.0,117.0,130.0,127.0,132.0,126.0,128.0,25.0,-97.0,-77.0,127.0,127.0,127.0,106.0,86.0,-106.0
128.0,129.0,117.0,131.0,127.0,132.0,126.0,128.0,25.0,-97.0,-77.0,127.0,127.0,127.0,106.0,86.0,-106.0
128.0,129.0,117.0,131.0,127.0,132.0,126.0,128.0,25.0,-97.0,-77.0,127.0,127.0,127.0,106.0,86.0,-106.0
128.0,129.0,117.0,131.0,127.0,132.0,126.0,128.0,25.0,-97.0,-77.0,127.0,127.0,127.0,106.0,86.0,-106.0
128.0,129.0,117.0,131.0,127.0,132.0,126.0,128.0,25.0,-97.0,-77.0,127.0,127.0,127.0,106.0,86.0,-106.0
128.0,129.0,117.0,131.0,127.0,132.0,126.0,128.0,25.0,-97.0,-77.0,127.0,127.0,127.0,106.0,86.0,-106.0
128.0,129.0,117.0,131.0,127.0,131.0,126.0,128.0,25.0,-97.0,-77.0,127.0,127.0,127.0,106.0,86.0,-106.0
128.0,129.0,117.0,131.0,127.0,131.0,126.0,128.0,25.0,-97.0,-77.0,127.0,127.0,127.0,106.0,86.0,-106.0
128.0,129.0,117.0,131.0,126.0,130.0,127.0,128.0,25.0,-97.0,-77.0,127.0,127.0,127.0,106.0,86.0,-106.0
128.0,129.0,117.0,131.0,126.0,130.0,127.0,128.0,25.0,-97.0,-77.0,127.0,127.0,127.0,106.0,86.0,-106.0
128.0,129.0,117.0,130.0,126.0,131.0,127.0,128.0,25.0,-97.0,-77.0,127.0,127.0,127.0,106.0,86.0,-106.0
128.0,129.0,117.0,130.0,126.0,131.0,127.0,128.0,25.0,-97.0,-77.0,127.0,127.0,127.0,106.0,86.0,-106.0
128.0,129.0,117.0,130.0,126.0,131.0,127.0,128.0,25.0,-97.0,-77.0,127.0,127.0,127.0,106.0,86.0,-106.0
128.0,129.0,117.0,130.0,126.0,131.0,127.0,128.0,25.0,-97.0,-77.0,127.0,127.0,127.0,106.0,86.0,-106.0
128.0,129.0,117.0,130.0,126.0,131.0,127.0,128.0,25.0,-97.0,-77.0,127.0,127.0,127.0,106.0,86.0,-106.0
128.0,129.0,117.0,130.0,126.0,130.0,127.0,128.0,25.0,-97.0,-77.0,127.0,127.0,127.0,106.0,86.0,-106.0
128.0,129.0,118.0,130.0,126.0,130.0,127.0,128.0,25.0,-97.0,-77.0,127.0,127.0,127.0,106.0,86.0,-106.0
128.0,129.0,117.0,131.0,126.0,128.0,127.0,128.0,25.0,-97.0,-77.0,127.0,127.0,127.0,106.0,86.0,-106.0
128.0,129.0,119.0,130.0,126.0,132.0,126.0,128.0,25.0,-97.0,-77.0,127.0,127.0,127.0,106.0,86.0,-106.0
128.0,129.0,119.0,130.0,126.0,132.0,126.0,128.0,25.0,-97.0,-77.0,127.0,127.0,127.0,106.0,86.0,-106.0
128.0,129.0,119.0,130.0,126.0,132.0,126.0,128.0,25.0,-97.0,-77.0,127.0,127.0,127.0,106.0,86.0,-106.0
128.0,129.0,119.0,130.0,126.0,132.0,126.0,128.0,25.0,-97.0,-77.0,127.0,127.0,127.0,106.0,86.0,-106.0
128.0,129.0,119.0,130.0,126.0,132.0,126.0,128.0,25.0,-97.0,-77.0,127.0,127.0,127.0,106.0,86.0,-106.0
128.0,128.0,119.0,129.0,126.0,132.0,126.0,128.0,25.0,-97.0,-77.0,127.0,127.0,127.0,106.0,86.0,-106.0
128.0,128.0,119.0,129.0,126.0,132.0,126.0,128.0,25.0,-97.0,-77.0,127.0,127.0,127.0,106.0,86.0,-106.0
128.0,128.0,119.0,129.0,126.0,132.0,126.0,128.0,25.0,-97.0,-77.0,127.0,127.0,127.0,106.0,86.0,-106.0
128.0,129.0,119.0,131.0,126.0,130.0,126.0,128.0,25.0,-97.0,-77.0,127.0,127.0,127.0,106.0,86.0,-106.0
128.0,129.0,119.0,131.0,126.0,131.0,126.0,128.0,25.0,-97.0,-77.0,127.0,127.0,127.0,106.0,86.0,-106.0
128.0,128.0,119.0,131.0,127.0,130.0,126.0,127.0,25.0,-97.0,-77.0,127.0,127.0,127.0,106.0,86.0,-106.0
128.0,128.0,119.0,131.0,127.0,131.0,126.0,128.0,25.0,-97.0,-77.0,127.0,127.0,127.0,106.0,86.0,-106.0
128.0,129.0,119.0,131.0,127.0,132.0,126.0,128.0,25.0,-97.0,-77.0,127.0,127.0,127.0,106.0,86.0,-106.0
128.0,129.0,120.0,131.0,127.0,133.0,126.0,128.0,25.0,-97.0,-77.0,127.0,127.0,127.0,106.0,86.0,-106.0
128.0,129.0,120.0,131.0,127.0,132.0,126.0,128.0,25.0,-97.0,-77.0,127.0,127.0,127.0,106.0,86.0,-106.0
128.0,128.0,120.0,131.0,127.0,132.0,126.0,128.0,25.0,-97.0,-77.0,127.0,127.0,127.0,106.0,86.0,-106.0
128.0,128.0,120.0,131.0,127.0,133.0,126.0,128.0,25.0,-97.0,-77.0,127.0,127.0,127.0,106.0,86.0,-106.0
128.0,129.0,119.0,131.0,127.0,129.0,126.0,128.0,25.0,-97.0,-77.0,127.0,127.0,127.0,106.0,86.0,-106.0
128.0,128.0,119.0,131.0,127.0,129.0,127.0,128.0,25.0,-97.0,-77.0,127.0,127.0,127.0,106.0,86.0,-106.0
128.0,128.0,119.0,131.0,127.0,130.0,126.0,127.0,25.0,-97.0,-77.0,127.0,127.0,127.0,106.0,86.0,-106.0
128.0,129.0,124.0,130.0,127.0,132.0,126.0,128.0,25.0,-97.0,-77.0,127.0,127.0,127.0,106.0,86.0,-106.0
128.0,129.0,124.0,130.0,127.0,132.0,126.0,128.0,25.0,-97.0,-77.0,127.0,127.0,127.0,106.0,86.0,-106.0
128.0,129.0,124.0,130.0,127.0,132.0,127.0,128.0,25.0,-97.0,-77.0,127.0,127.0,127.0,106.0,86.0,-106.0
128.0,128.0,124.0,130.0,127.0,132.0,126.0,128.0,25.0,-97.0,-77.0,127.0,127.0,127.0,106.0,86.0,-106.0
128.0,128.0,124.0,130.0,127.0,132.0,126.0,128.0,25.0,-97.0,-77.0,127.0,127.0,127.0,106.0,86.0,-106.0
128.0,128.0,124.0,130.0,127.0,132.0,126.0,128.0,25.0,-97.0,-77.0,127.0,127.0,127.0,106.0,86.0,-106.0
128.0,130.0,123.0,130.0,127.0,132.0,127.0,128.0,25.0,-97.0,-77.0,127.0,127.0,127.0,106.0,86.0,-106.0
128.0,129.0,123.0,130.0,127.0,132.0,127.0,128.0,25.0,-97.0,-77.0,127.0,127.0,127.0,106.0,86.0,-106.0
128.0,129.0,123.0,130.0,127.0,132.0,126.0,128.0,25.0,-97.0,-77.0,127.0,127.0,127.0,106.0,86.0,-106.0
128.0,129.0,123.0,130.0,127.0,132.0,127.0,128.0,25.0,-97.0,-77.0,127.0,127.0,127.0,106.0,86.0,-106.0
128.0,128.0,122.0,130.0,126.0,133.0,126.0,128.0,25.0,-97.0,-77.0,127.0,127.0,127.0,106.0,86.0,-106.0
128.0,128.0,122.0,130.0,126.0,133.0,126.0,128.0,25.0,-97.0,-77.0,127.0,127.0,127.0,106.0,86.0,-106.0
128.0,128.0,122.0,130.0,126.0,132.0,126.0,128.0,25.0,-97.0,-77.0,127.0,127.0,127.0,106.0,86.0,-106.0
128.0,128.0,122.0,130.0,126.0,132.0,126.0,128.0,25.0,-97.0,-77.0,127.0,127.0,127.0,106.0,86.0,-106.0
128.0,128.0,122.0,130.0,126.0,132.0,126.0,128.0,25.0,-97.0,-77.0,127.0,127.0,127.0,106.0,86.0,-106.0
128.0,129.0,122.0,131.0,127.0,132.0,126.0,128.0,25.0,-97.0,-77.0,127.0,127.0,127.0,106.0,86.0,-106.0
128.0,129.0,122.0,131.0,127.0,132.0,126.0,128.0,25.0,-97.0,-77.0,127.0,127.0,127.0,106.0,86.0,-106.0
128.0,129.0,122.0,131.0,126.0,132.0,126.0,128.0,25.0,-97.0,-77.0,127.0,127.0,127.0,106.0,86.0,-106.0
128.0,129.0,122.0,130.0,126.0,133.0,126.0,128.0,25.0,-97.0,-77.0,127.0,127.0,127.0,106.0,86.0,-106.0
128.0,129.0,122.0,130.0,126.0,133.0,126.0,128.0,25.0,-97.0,-77.0,127.0,127.0,127.0,106.0,86.0,-106.0
128.0,129.0,121.0,131.0,127.0,133.0,126.0,128.0,25.0,-97.0,-77.0,127.0,127.0,127.0,106.0,86.0,-106.0
128.0,129.0,121.0,131.0,127.0,133.0,126.0,128.0,25.0,-97.0,-77.0,127.0,127.0,127.0,106.0,86.0,-106.0
128.0,129.0,121.0,131.0,127.0,132.0,126.0,128.0,25.0,-97.0,-77.0,127.0,127.0,127.0,106.0,86.0,-106.0
128.0,129.0,121.0,131.0,127.0,132.0,126.0,128.0,25.0,-97.0,-77.0,127.0,127.0,127.0,106.0,86.0,-106.0
128.0,130.0,121.0,131.0,127.0,133.0,126.0,128.0,25.0,-97.0,-77.0,127.0,127.0,127.0,106.0,86.0,-106.0
128.0,130.0,121.0,131.0,127.0,133.0,126.0,128.0,25.0,-97.0,-77.0,127.0,127.0,127.0,106.0,86.0,-106.0
128.0,130.0,121.0,131.0,127.0,133.0,126.0,128.0,25.0,-97.0,-77.0,127.0,127.0,127.0,106.0,86.0,-106.0
128.0,130.0,121.0,131.0,127.0,133.0,126.0,128.0,25.0,-97.0,-77.0,127.0,127.0,127.0,106.0,86.0,-106.0
128.0,129.0,121.0,131.0,127.0,133.0,126.0,128.0,25.0,-97.0,-77.0,127.0,127.0,127.0,106.0,86.0,-106.0
128.0,129.0,121.0,131.0,127.0,133.0,126.0,128.0,25.0,-97.0,-77.0,127.0,127.0,127.0,106.0,86.0,-106.0
128.0,129.0,122.0,131.0,126.0,134.0,127.0,128.0,25.0,-96.0,-77.0,127.0,127.0,127.0,106.0,86.0,-106.0
128.0,129.0,122.0,131.0,127.0,133.0,127.0,128.0,25.0,-96.0,-77.0,127.0,127.0,127.0,106.0,86.0,-106.0
128.0,129.0,122.0,131.0,127.0,133.0,127.0,128.0,25.0,-96.0,-77.0,127.0,127.0,127.0,106.0,86.0,-106.0
128.0,130.0,122.0,131.0,127.0,133.0,127.0,128.0,25.0,-96.0,-77.0,127.0,127.0,127.0,106.0,86.0,-106.0
128.0,130.0,122.0,131.0,127.0,133.0,127.0,128.0,25.0,-96.0,-77.0,127.0,127.0,127.0,106.0,86.0,-106.0
128.0,130.0,122.0,131.0,126.0,133.0,127.0,128.0,25.0,-96.0,-77.0,127.0,127.0,127.0,106.0,86.0,-106.0
128.0,129.0,122.0,131.0,126.0,134.0,127.0,128.0,25.0,-96.0,-77.0,127.0,127.0,127.0,106.0,86.0,-106.0
128.0,129.0,122.0,131.0,126.0,134.0,127.0,128.0,25.0,-96.0,-77.0,127.0,127.0,127.0,106.0,86.0,-106.0
128.0,129.0,122.0,131.0,126.0,134.0,127.0,128.0,25.0,-96.0,-77.0,127.0,127.0,127.0,106.0,86.0,-106.0
128.0,129.0,122.0,131.0,126.0,134.0,127.0,128.0,25.0,-96.0,-77.0,127.0,127.0,127.0,106.0,86.0,-106.0
128.0,129.0,123.0,131.0,127.0,135.0,126.0,128.0,25.0,-96.0,-77.0,127.0,127.0,127.0,106.0,86.0,-106.0
128.0,129.0,123.0,131.0,127.0,135.0,126.0,128.0,25.0,-96.0,-77.0,127.0,127.0,127.0,106.0,86.0,-106.0
128.0,130.0,123.0,132.0,128.0,135.0,126.0,128.0,25.0,-96.0,-77.0,127.0,127.0,127.0,106.0,86.0,-106.0
128.0,130.0,123.0,132.0,128.0,135.0,126.0,128.0,25.0,-96.0,-77.0,127.0,127.0,127.0,106.0,86.0,-106.0
128.0,130.0,123.0,132.0,128.0,135.0,126.0,128.0,25.0,-96.0,-77.0,127.0,127.0,127.0,106.0,86.0,-106.0
128.0,130.0,123.0,132.0,127.0,136.0,126.0,128.0,25.0,-96.0,-77.0,127.0,127.0,127.0,106.0,86.0,-106.0
128.0,130.0,123.0,132.0,127.0,136.0,126.0,128.0,25.0,-96.0,-77.0,127.0,127.0,127.0,106.0,86.0,-106.0
128.0,129.0,123.0,131.0,127.0,135.0,126.0,128.0,25.0,-96.0,-77.0,127.0,127.0,127.0,106.0,86.0,-106.0
128.0,129.0,123.0,131.0,127.0,135.0,126.0,128.0,25.0,-96.0,-77.0,127.0,127.0,127.0,106.0,86.0,-106.0
128.0,129.0,123.0,131.0,127.0,135.0,126.0,128.0,25.0,-96.0,-77.0,127.0,127.0,127.0,106.0,86.0,-106.0
128.0,129.0,122.0,130.0,127.0,136.0,127.0,128.0,25.0,-96.0,-77.0,127.0,127.0,127.0,106.0,86.0,-106.0
128.0,130.0,122.0,131.0,127.0,135.0,127.0,128.0,25.0,-96.0,-77.0,127.0,127.0,127.0,106.0,86.0,-106.0
128.0,130.0,122.0,131.0,127.0,136.0,127.0,128.0,25.0,-96.0,-77.0,127.0,127.0,127.0,106.0,86.0,-106.0
128.0,130.0,122.0,131.0,127.0,136.0,127.0,128.0,25.0,-96.0,-77.0,127.0,127.0,127.0,106.0,86.0,-106.0
128.0,130.0,122.0,131.0,127.0,136.0,127.0,128.0,25.0,-96.0,-77.0,127.0,127.0,127.0,106.0,86.0,-106.0
128.0,129.0,122.0,131.0,127.0,136.0,127.0,128.0,25.0,-96.0,-77.0,127.0,127.0,127.0,106.0,86.0,-106.0
128.0,129.0,122.0,131.0,127.0,136.0,127.0,128.0,25.0,-96.0,-77.0,127.0,127.0,127.0,106.0,86.0,-106.0
128.0,129.0,122.0,131.0,127.0,136.0,126.0,128.0,25.0,-96.0,-77.0,127.0,127.0,127.0,106.0,86.0,-106.0
128.0,129.0,122.0,130.0,127.0,136.0,127.0,128.0,25.0,-96.0,-77.0,127.0,127.0,127.0,106.0,86.0,-106.0
128.0,129.0,122.0,130.0,127.0,136.0,127.0,128.0,25.0,-96.0,-77.0,127.0,127.0,127.0,106.0,86.0,-106.0
128.0,130.0,120.0,131.0,127.0,136.0,127.0,128.0,25.0,-96.0,-77.0,127.0,127.0,127.0,106.0,86.0,-106.0
128.0,130.0,120.0,131.0,127.0,136.0,127.0,128.0,25.0,-96.0,-77.0,127.0,127.0,127.0,106.0,86.0,-106.0
128.0,130.0,120.0,131.0,127.0,136.0,127.0,128.0,25.0,-96.0,-77.0,127.0,127.0,127.0,106.0,86.0,-106.0
128.0,129.0,120.0,131.0,127.0,136.0,127.0,128.0,25.0,-96.0,-77.0,127.0,127.0,127.0,106.0,86.0,-106.0
128.0,129.0,120.0,131.0,127.0,136.0,127.0,128.0,25.0,-96.0,-77.0,127.0,127.0,127.0,106.0,86.0,-106.0
128.0,129.0,120.0,131.0,127.0,136.0,127.0,128.0,25.0,-96.0,-77.0,127.0,127.0,127.0,106.0,86.0,-106.0
128.0,129.0,121.0,131.0,127.0,136.0,127.0,128.0,25.0,-96.0,-77.0,127.0,127.0,127.0,106.0,86.0,-106.0
128.0,129.0,121.0,131.0,127.0,136.0,127.0,128.0,25.0,-96.0,-77.0,127.0,127.0,127.0,106.0,86.0,-106.0
128.0,129.0,121.0,130.0,127.0,136.0,127.0,128.0,25.0,-96.0,-77.0,127.0,127.0,127.0,106.0,86.0,-106.0
128.0,129.0,121.0,130.0,127.0,136.0,127.0,128.0,25.0,-96.0,-77.0,127.0,127.0,127.0,106.0,86.0,-106.0
128.0,129.0,120.0,130.0,126.0,132.0,127.0,128.0,25.0,-96.0,-77.0,127.0,127.0,127.0,106.0,86.0,-106.0
128.0,129.0,120.0,130.0,126.0,133.0,126.0,128.0,25.0,-96.0,-77.0,127.0,127.0,127.0,106.0,86.0,-106.0
128.0,130.0,120.0,130.0,127.0,134.0,126.0,128.0,25.0,-96.0,-77.0,127.0,127.0,127.0,106.0,86.0,-106.0
128.0,129.0,120.0,130.0,127.0,135.0,126.0,128.0,25.0,-96.0,-77.0,127.0,127.0,127.0,106.0,86.0,-106.0
128.0,129.0,120.0,130.0,126.0,134.0,126.0,128.0,25.0,-96.0,-77.0,127.0,127.0,127.0,106.0,86.0,-106.0
128.0,129.0,121.0,130.0,126.0,134.0,126.0,128.0,25.0,-96.0,-77.0,127.0,127.0,127.0,106.0,86.0,-106.0
128.0,129.0,121.0,130.0,126.0,135.0,126.0,128.0,25.0,-96.0,-77.0,127.0,127.0,127.0,106.0,86.0,-106.0
128.0,129.0,121.0,130.0,126.0,134.0,126.0,128.0,25.0,-96.0,-77.0,127.0,127.0,127.0,106.0,86.0,-106.0
128.0,129.0,121.0,130.0,126.0,136.0,126.0,128.0,25.0,-96.0,-77.0,127.0,127.0,127.0,106.0,86.0,-106.0
128.0,129.0,120.0,130.0,126.0,131.0,127.0,127.0,25.0,-96.0,-77.0,127.0,127.0,127.0,106.0,86.0,-106.0
128.0,129.0,120.0,130.0,126.0,135.0,127.0,128.0,25.0,-96.0,-77.0,127.0,127.0,127.0,106.0,86.0,-106.0
128.0,129.0,121.0,130.0,126.0,135.0,127.0,128.0,25.0,-96.0,-77.0,127.0,127.0,127.0,106.0,86.0,-106.0
128.0,129.0,121.0,130.0,126.0,135.0,127.0,128.0,25.0,-96.0,-77.0,127.0,127.0,127.0,106.0,86.0,-106.0
128.0,129.0,121.0,130.0,126.0,134.0,127.0,128.0,25.0,-96.0,-77.0,127.0,127.0,127.0,106.0,86.0,-106.0
128.0,129.0,121.0,130.0,126.0,134.0,127.0,128.0,25.0,-96.0,-77.0,127.0,127.0,127.0,106.0,86.0,-106.0
128.0,129.0,121.0,130.0,126.0,134.0,127.0,128.0,25.0,-96.0,-77.0,127.0,127.0,127.0,106.0,86.0,-106.0
128.0,129.0,121.0,130.0,126.0,134.0,127.0,128.0,25.0,-96.0,-77.0,127.0,127.0,127.0,106.0,86.0,-106.0
128.0,128.0,121.0,131.0,127.0,134.0,127.0,128.0,25.0,-96.0,-77.0,127.0,127.0,127.0,106.0,86.0,-106.0
128.0,130.0,120.0,129.0,126.0,134.0,127.0,128.0,25.0,-96.0,-77.0,127.0,127.0,127.0,106.0,86.0,-106.0
128.0,130.0,120.0,130.0,126.0,135.0,127.0,128.0,25.0,-96.0,-77.0,127.0,127.0,127.0,106.0,86.0,-106.0
128.0,129.0,121.0,130.0,126.0,134.0,126.0,128.0,25.0,-96.0,-77.0,127.0,127.0,127.0,106.0,86.0,-106.0
128.0,129.0,121.0,130.0,126.0,134.0,126.0,128.0,25.0,-96.0,-77.0,127.0,127.0,127.0,106.0,86.0,-106.0
128.0,129.0,121.0,130.0,126.0,134.0,126.0,128.0,25.0,-96.0,-77.0,127.0,127.0,127.0,106.0,86.0,-106.0
128.0,129.0,121.0,130.0,126.0,134.0,126.0,128.0,25.0,-96.0,-77.0,127.0,127.0,127.0,106.0,86.0,-106.0
128.0,129.0,121.0,130.0,126.0,134.0,127.0,128.0,25.0,-96.0,-77.0,127.0,127.0,127.0,106.0,86.0,-106.0
128.0,129.0,121.0,130.0,126.0,134.0,126.0,128.0,25.0,-96.0,-77.0,127.0,127.0,127.0,106.0,86.0,-106.0
128.0,128.0,121.0,129.0,126.0,134.0,126.0,128.0,25.0,-96.0,-77.0,127.0,127.0,127.0,106.0,86.0,-106.0
128.0,130.0,121.0,130.0,127.0,134.0,126.0,128.0,25.0,-96.0,-77.0,127.0,127.0,127.0,106.0,86.0,-106.0
