emg1,emg2,emg3,emg4,emg5,emg6,emg7,emg8,acc_x,acc_y,acc_z,gyro_x,gyro_y,gyro_z,angle_pitch,angle_roll,angle_yaw
126.0,127.0,127.0,127.0,127.0,127.0,107.0,128.0,24.0,-115.0,-71.0,127.0,127.0,127.0,119.0,87.0,-82.0
127.0,127.0,128.0,127.0,127.0,128.0,107.0,128.0,24.0,-115.0,-71.0,127.0,127.0,127.0,119.0,87.0,-82.0
127.0,127.0,128.0,127.0,127.0,128.0,107.0,128.0,24.0,-115.0,-71.0,127.0,127.0,127.0,119.0,87.0,-82.0
127.0,127.0,128.0,127.0,127.0,128.0,107.0,128.0,24.0,-115.0,-71.0,127.0,127.0,127.0,119.0,87.0,-82.0
127.0,127.0,127.0,127.0,127.0,127.0,107.0,128.0,24.0,-115.0,-71.0,127.0,127.0,127.0,119.0,87.0,-82.0
126.0,127.0,127.0,127.0,127.0,127.0,107.0,128.0,24.0,-115.0,-71.0,127.0,127.0,127.0,119.0,87.0,-82.0
126.0,127.0,127.0,127.0,127.0,127.0,106.0,128.0,24.0,-115.0,-71.0,127.0,127.0,127.0,119.0,87.0,-82.0
127.0,127.0,127.0,127.0,127.0,128.0,107.0,128.0,24.0,-115.0,-71.0,127.0,127.0,127.0,119.0,87.0,-82.0
127.0,127.0,128.0,127.0,127.0,128.0,107.0,128.0,24.0,-115.0,-71.0,127.0,127.0,127.0,119.0,87.0,-82.0
126.0,127.0,127.0,127.0,127.0,127.0,108.0,128.0,24.0,-115.0,-71.0,127.0,127.0,127.0,119.0,87.0,-82.0
126.0,127.0,127.0,127.0,127.0,127.0,113.0,128.0,24.0,-115.0,-71.0,127.0,127.0,127.0,119.0,87.0,-82.0
126.0,127.0,127.0,127.0,127.0,127.0,113.0,128.0,24.0,-115.0,-71.0,127.0,127.0,127.0,119.0,87.0,-82.0
126.0,127.0,127.0,127.0,127.0,127.0,112.0,128.0,24.0,-115.0,-71.0,127.0,127.0,127.0,119.0,87.0,-82.0
126.0,127.0,127.0,127.0,127.0,127.0,113.0,128.0,24.0,-115.0,-71.0,127.0,127.0,127.0,119.0,87.0,-82.0
126.0,127.0,127.0,127.0,127.0,127.0,113.0,128.0,24.0,-115.0,-71.0,127.0,127.0,127.0,119.0,87.0,-82.0
126.0,127.0,127.0,127.0,127.0,127.0,113.0,128.0,24.0,-115.0,-71.0,127.0,127.0,127.0,119.0,87.0,-82.0
126.0,126.0,127.0,127.0,127.0,127.0,113.0,128.0,24.0,-115.0,-71.0,127.0,127.0,127.0,119.0,87.0,-82.0
126.0,127.0,127.0,127.0,127.0,127.0,113.0,128.0,24.0,-115.0,-71.0,127.0,127.0,127.0,119.0,87.0,-82.0
126.0,127.0,127.0,127.0,127.0,127.0,112.0,128.0,24.0,-115.0,-71.0,127.0,127.0,127.0,119.0,87.0,-82.0
126.0,127.0,127.0,127.0,127.0,127.0,113.0,128.0,24.0,-115.0,-71.0,127.0,127.0,127.0,119.0,87.0,-82.0
127.0,127.0,127.0,127.0,127.0,128.0,107.0,128.0,24.0,-115.0,-71.0,127.0,127.0,127.0,119.0,87.0,-82.0
127.0,127.0,127.0,127.0,127.0,128.0,107.0,128.0,24.0,-115.0,-71.0,127.0,127.0,127.0,119.0,87.0,-82.0
126.0,127.0,127.0,127.0,127.0,127.0,106.0,128.0,24.0,-115.0,-71.0,127.0,127.0,127.0,119.0,87.0,-82.0
126.0,127.0,127.0,127.0,127.0,127.0,106.0,128.0,24.0,-115.0,-71.0,127.0,127.0,127.0,119.0,87.0,-82.0
126.0,127.0,127.0,127.0,127.0,127.0,106.0,128.0,24.0,-115.0,-71.0,127.0,127.0,127.0,119.0,87.0,-82.0
126.0,127.0,127.0,127.0,127.0,127.0,107.0,128.0,24.0,-115.0,-71.0,127.0,127.0,127.0,119.0,87.0,-82.0
126.0,127.0,127.0,127.0,127.0,127.0,106.0,128.0,24.0,-115.0,-71.0,127.0,127.0,127.0,119.0,87.0,-82.0
126.0,127.0,127.0,127.0,127.0,127.0,107.0,128.0,24.0,-115.0,-71.0,127.0,127.0,127.0,119.0,87.0,-82.0
126.0,127.0,127.0,127.0,127.0,127.0,106.0,128.0,24.0,-115.0,-71.0,127.0,127.0,127.0,119.0,87.0,-82.0
126.0,127.0,127.0,127.0,127.0,128.0,107.0,128.0,24.0,-115.0,-71.0,127.0,127.0,127.0,119.0,87.0,-82.0
127.0,127.0,128.0,127.0,127.0,128.0,107.0,128.0,24.0,-115.0,-71.0,127.0,127.0,127.0,119.0,87.0,-82.0
127.0,127.0,128.0,127.0,127.0,128.0,107.0,128.0,24.0,-115.0,-71.0,127.0,127.0,127.0,119.0,87.0,-82.0
127.0,127.0,128.0,127.0,127.0,128.0,107.0,128.0,24.0,-115.0,-71.0,127.0,127.0,127.0,119.0,87.0,-82.0
127.0,127.0,128.0,127.0,127.0,128.0,107.0,128.0,24.0,-115.0,-71.0,127.0,127.0,127.0,119.0,87.0,-82.0
127.0,127.0,128.0,127.0,127.0,128.0,108.0,128.0,24.0,-115.0,-71.0,127.0,127.0,127.0,119.0,87.0,-82.0
127.0,127.0,128.0,127.0,127.0,128.0,108.0,128.0,24.0,-115.0,-71.0,127.0,127.0,127.0,119.0,87.0,-82.0
127.0,127.0,127.0,127.0,127.0,127.0,108.0,128.0,24.0,-115.0,-71.0,127.0,127.0,127.0,119.0,87.0,-82.0
127.0,127.0,127.0,127.0,127.0,127.0,106.0,128.0,24.0,-115.0,-71.0,127.0,127.0,127.0,119.0,87.0,-82.0
127.0,127.0,127.0,127.0,127.0,127.0,106.0,128.0,24.0,-115.0,-71.0,127.0,127.0,127.0,119.0,87.0,-82.0
127.0,127.0,128.0,127.0,127.0,128.0,107.0,128.0,24.0,-115.0,-71.0,127.0,127.0,127.0,119.0,87.0,-82.0
127.0,127.0,127.0,127.0,127.0,128.0,107.0,128.0,24.0,-115.0,-71.0,127.0,127.0,127.0,119.0,87.0,-82.0
127.0,127.0,127.0,127.0,127.0,128.0,106.0,128.0,24.0,-115.0,-71.0,127.0,127.0,127.0,119.0,87.0,-82.0
127.0,127.0,127.0,127.0,127.0,128.0,106.0,128.0,24.0,-115.0,-71.0,127.0,127.0,127.0,119.0,87.0,-82.0
127.0,127.0,127.0,127.0,127.0,127.0,106.0,128.0,24.0,-115.0,-71.0,127.0,127.0,127.0,119.0,87.0,-82.0
127.0,127.0,127.0,127.0,127.0,127.0,107.0,128.0,24.0,-115.0,-71.0,127.0,127.0,127.0,119.0,87.0,-82.0
127.0,127.0,128.0,127.0,127.0,127.0,106.0,128.0,24.0,-115.0,-71.0,127.0,127.0,127.0,119.0,87.0,-82.0
127.0,127.0,127.0,127.0,127.0,127.0,106.0,128.0,24.0,-115.0,-71.0,127.0,127.0,127.0,119.0,87.0,-82.0
127.0,127.0,128.0,127.0,127.0,127.0,106.0,128.0,24.0,-115.0,-71.0,127.0,127.0,127.0,119.0,87.0,-82.0
127.0,127.0,128.0,127.0,127.0,128.0,107.0,128.0,24.0,-115.0,-71.0,127.0,127.0,127.0,119.0,87.0,-82.0
127.0,127.0,128.0,127.0,127.0,128.0,107.0,128.0,24.0,-115.0,-71.0,127.0,127.0,127.0,119.0,87.0,-82.0
127.0,127.0,127.0,127.0,127.0,128.0,107.0,128.0,24.0,-115.0,-71.0,127.0,127.0,127.0,119.0,87.0,-82.0
127.0,127.0,127.0,127.0,127.0,128.0,107.0,128.0,24.0,-115.0,-71.0,127.0,127.0,127.0,119.0,87.0,-82.0
127.0,127.0,127.0,127.0,127.0,128.0,107.0,128.0,24.0,-115.0,-71.0,127.0,127.0,127.0,119.0,87.0,-82.0
127.0,127.0,127.0,127.0,127.0,127.0,106.0,128.0,24.0,-115.0,-71.0,127.0,127.0,127.0,119.0,87.0,-82.0
127.0,127.0,128.0,127.0,127.0,127.0,106.0,128.0,24.0,-115.0,-71.0,127.0,127.0,127.0,119.0,87.0,-82.0
127.0,127.0,128.0,127.0,127.0,127.0,106.0,128.0,24.0,-115.0,-71.0,127.0,127.0,127.0,119.0,87.0,-82.0
127.0,127.0,128.0,127.0,127.0,127.0,107.0,128.0,24.0,-115.0,-71.0,127.0,127.0,127.0,119.0,87.0,-82.0
127.0,127.0,128.0,127.0,127.0,128.0,107.0,128.0,24.0,-115.0,-71.0,127.0,127.0,127.0,119.0,87.0,-82.0
127.0,127.0,128.0,127.0,127.0,128.0,107.0,128.0,24.0,-115.0,-71.0,127.0,127.0,127.0,119.0,87.0,-82.0
127.0,127.0,128.0,127.0,127.0,128.0,107.0,128.0,24.0,-115.0,-71.0,127.0,127.0,127.0,119.0,87.0,-82.0
127.0,127.0,127.0,127.0,127.0,128.0,107.0,128.0,24.0,-115.0,-71.0,127.0,127.0,127.0,119.0,87.0,-82.0
127.0,127.0,127.0,127.0,127.0,128.0,107.0,128.0,24.0,-115.0,-71.0,127.0,127.0,127.0,119.0,87.0,-82.0
127.0,127.0,127.0,127.0,127.0,128.0,107.0,128.0,24.0,-115.0,-71.0,127.0,127.0,127.0,119.0,87.0,-82.0
127.0,127.0,127.0,127.0,127.0,127.0,107.0,128.0,24.0,-115.0,-71.0,127.0,127.0,127.0,119.0,87.0,-82.0
127.0,127.0,127.0,127.0,127.0,127.0,107.0,128.0,24.0,-115.0,-71.0,127.0,127.0,127.0,119.0,87.0,-82.0
127.0,127.0,127.0,127.0,127.0,127.0,107.0,128.0,24.0,-115.0,-71.0,127.0,127.0,127.0,119.0,87.0,-82.0
127.0,127.0,127.0,127.0,127.0,128.0,107.0,128.0,24.0,-115.0,-71.0,127.0,127.0,127.0,119.0,87.0,-82.0
127.0,127.0,127.0,127.0,127.0,128.0,108.0,128.0,24.0,-115.0,-71.0,127.0,127.0,127.0,119.0,87.0,-82.0
127.0,127.0,127.0,127.0,127.0,128.0,107.0,128.0,24.0,-115.0,-71.0,127.0,127.0,127.0,119.0,87.0,-82.0
127.0,127.0,127.0,127.0,127.0,128.0,107.0,128.0,24.0,-115.0,-71.0,127.0,127.0,127.0,119.0,87.0,-82.0
127.0,127.0,128.0,127.0,127.0,128.0,107.0,128.0,24.0,-115.0,-71.0,127.0,127.0,127.0,119.0,87.0,-82.0
127.0,127.0,128.0,127.0,127.0,128.0,107.0,128.0,24.0,-115.0,-71.0,127.0,127.0,127.0,119.0,87.0,-82.0
127.0,127.0,128.0,127.0,127.0,127.0,107.0,128.0,24.0,-115.0,-71.0,127.0,127.0,127.0,119.0,87.0,-82.0
127.0,127.0,128.0,127.0,127.0,127.0,107.0,128.0,24.0,-115.0,-71.0,127.0,127.0,127.0,119.0,87.0,-82.0
127.0,127.0,128.0,127.0,127.0,127.0,107.0,128.0,24.0,-115.0,-71.0,127.0,127.0,127.0,119.0,87.0,-82.0
127.0,127.0,128.0,127.0,127.0,128.0,107.0,128.0,24.0,-115.0,-71.0,127.0,127.0,127.0,119.0,87.0,-82.0
127.0,127.0,128.0,127.0,127.0,128.0,107.0,128.0,24.0,-115.0,-71.0,127.0,127.0,127.0,119.0,87.0,-82.0
127.0,127.0,128.0,127.0,127.0,128.0,107.0,128.0,24.0,-115.0,-71.0,127.0,127.0,127.0,119.0,87.0,-82.0
127.0,127.0,128.0,127.0,127.0,128.0,107.0,128.0,24.0,-115.0,-71.0,127.0,127.0,127.0,119.0,87.0,-82.0
127.0,127.0,128.0,127.0,127.0,128.0,107.0,128.0,24.0,-115.0,-71.0,127.0,127.0,127.0,119.0,87.0,-82.0
127.0,127.0,127.0,127.0,127.0,128.0,107.0,128.0,24.0,-115.0,-71.0,127.0,127.0,127.0,119.0,87.0,-82.0
127.0,127.0,127.0,127.0,127.0,127.0,106.0,128.0,24.0,-115.0,-71.0,127.0,127.0,127.0,119.0,87.0,-82.0
126.0,127.0,127.0,127.0,127.0,127.0,106.0,128.0,24.0,-115.0,-71.0,127.0,127.0,127.0,119.0,87.0,-82.0
126.0,127.0,127.0,127.0,127.0,127.0,107.0,128.0,24.0,-115.0,-71.0,127.0,127.0,127.0,119.0,87.0,-82.0
126.0,127.0,127.0,127.0,127.0,127.0,107.0,128.0,24.0,-115.0,-71.0,127.0,127.0,127.0,119.0,87.0,-82.0
126.0,127.0,127.0,127.0,127.0,127.0,107.0,128.0,24.0,-115.0,-71.0,127.0,127.0,127.0,119.0,87.0,-82.0
126.0,127.0,127.0,127.0,127.0,127.0,107.0,128.0,24.0,-115.0,-71.0,127.0,127.0,127.0,119.0,87.0,-82.0
126.0,127.0,127.0,127.0,127.0,127.0,107.0,128.0,24.0,-115.0,-71.0,127.0,127.0,127.0,119.0,87.0,-82.0
126.0,127.0,127.0,127.0,127.0,127.0,106.0,128.0,24.0,-115.0,-71.0,127.0,127.0,127.0,119.0,87.0,-82.0
126.0,127.0,127.0,127.0,127.0,127.0,106.0,128.0,24.0,-115.0,-71.0,127.0,127.0,127.0,119.0,87.0,-82.0
126.0,127.0,127.0,127.0,127.0,128.0,106.0,128.0,24.0,-115.0,-71.0,127.0,127.0,127.0,119.0,87.0,-82.0
127.0,127.0,127.0,127.0,127.0,128.0,107.0,128.0,24.0,-115.0,-71.0,127.0,127.0,127.0,119.0,87.0,-82.0
126.0,127.0,127.0,127.0,127.0,128.0,107.0,128.0,24.0,-115.0,-71.0,127.0,127.0,127.0,119.0,87.0,-82.0
126.0,127.0,127.0,127.0,127.0,127.0,107.0,128.0,24.0,-115.0,-71.0,127.0,127.0,127.0,119.0,87.0,-82.0
126.0,127.0,127.0,127.0,127.0,127.0,107.0,128.0,24.0,-115.0,-71.0,127.0,127.0,127.0,119.0,87.0,-82.0
126.0,127.0,127.0,127.0,127.0,127.0,107.0,128.0,24.0,-115.0,-71.0,127.0,127.0,127.0,119.0,87.0,-82.0
126.0,127.0,127.0,127.0,127.0,128.0,106.0,128.0,24.0,-115.0,-71.0,127.0,127.0,127.0,119.0,87.0,-82.0
126.0,127.0,127.0,127.0,127.0,128.0,107.0,128.0,24.0,-115.0,-71.0,127.0,127.0,127.0,119.0,87.0,-82.0
127.0,127.0,127.0,127.0,127.0,128.0,107.0,128.0,24.0,-115.0,-71.0,127.0,127.0,127.0,119.0,87.0,-82.0
126.0,127.0,127.0,127.0,127.0,128.0,107.0,128.0,24.0,-115.0,-71.0,127.0,127.0,127.0,119.0,87.0,-82.0
126.0,127.0,127.0,127.0,127.0,127.0,113.0,128.0,24.0,-115.0,-71.0,127.0,127.0,127.0,119.0,87.0,-82.0
126.0,127.0,127.0,127.0,127.0,127.0,113.0,128.0,24.0,-115.0,-71.0,127.0,127.0,127.0,119.0,87.0,-82.0
126.0,127.0,127.0,127.0,127.0,127.0,113.0,128.0,24.0,-115.0,-71.0,127.0,127.0,127.0,119.0,87.0,-82.0
126.0,127.0,127.0,127.0,127.0,127.0,112.0,128.0,24.0,-115.0,-71.0,127.0,127.0,127.0,119.0,87.0,-82.0
126.0,127.0,127.0,127.0,127.0,127.0,112.0,128.0,24.0,-115.0,-71.0,127.0,127.0,127.0,119.0,87.0,-82.0
126.0,126.0,127.0,127.0,127.0,127.0,112.0,128.0,24.0,-115.0,-71.0,127.0,127.0,127.0,119.0,87.0,-82.0
126.0,127.0,127.0,127.0,127.0,127.0,108.0,128.0,24.0,-115.0,-71.0,127.0,127.0,127.0,119.0,87.0,-82.0
126.0,126.0,128.0,127.0,127.0,127.0,106.0,128.0,24.0,-115.0,-71.0,127.0,127.0,127.0,119.0,87.0,-82.0
126.0,127.0,127.0,127.0,127.0,127.0,106.0,128.0,24.0,-115.0,-71.0,127.0,127.0,127.0,119.0,87.0,-82.0
126.0,127.0,127.0,127.0,127.0,127.0,111.0,128.0,24.0,-115.0,-71.0,127.0,127.0,127.0,119.0,87.0,-82.0
126.0,127.0,127.0,127.0,127.0,127.0,112.0,128.0,24.0,-115.0,-71.0,127.0,127.0,127.0,119.0,87.0,-82.0
126.0,127.0,127.0,127.0,127.0,127.0,113.0,128.0,24.0,-115.0,-71.0,127.0,127.0,127.0,119.0,87.0,-82.0
126.0,127.0,127.0,127.0,127.0,127.0,113.0,128.0,24.0,-115.0,-71.0,127.0,127.0,127.0,119.0,87.0,-82.0
126.0,127.0,127.0,127.0,127.0,127.0,113.0,128.0,24.0,-115.0,-71.0,127.0,127.0,127.0,119.0,87.0,-82.0
126.0,127.0,127.0,127.0,127.0,127.0,113.0,128.0,24.0,-115.0,-71.0,127.0,127.0,127.0,119.0,87.0,-82.0
126.0,127.0,127.0,127.0,127.0,127.0,113.0,128.0,24.0,-115.0,-71.0,127.0,127.0,127.0,119.0,87.0,-82.0
126.0,127.0,127.0,127.0,127.0,127.0,113.0,128.0,24.0,-115.0,-71.0,127.0,127.0,127.0,119.0,87.0,-82.0
126.0,127.0,127.0,127.0,127.0,127.0,106.0,128.0,24.0,-115.0,-71.0,127.0,127.0,127.0,119.0,87.0,-82.0
126.0,127.0,127.0,127.0,127.0,127.0,108.0,128.0,24.0,-115.0,-71.0,127.0,127.0,127.0,119.0,87.0,-82.0
126.0,127.0,127.0,127.0,127.0,127.0,112.0,128.0,24.0,-115.0,-71.0,127.0,127.0,127.0,119.0,87.0,-82.0
126.0,127.0,127.0,127.0,127.0,128.0,107.0,128.0,24.0,-115.0,-71.0,127.0,127.0,127.0,119.0,87.0,-82.0
127.0,127.0,127.0,127.0,127.0,128.0,107.0,128.0,24.0,-115.0,-71.0,127.0,127.0,127.0,119.0,87.0,-82.0
127.0,127.0,127.0,127.0,127.0,128.0,108.0,128.0,24.0,-115.0,-71.0,127.0,127.0,127.0,119.0,87.0,-82.0
126.0,127.0,127.0,127.0,127.0,128.0,107.0,128.0,24.0,-115.0,-71.0,127.0,127.0,127.0,119.0,87.0,-82.0
126.0,127.0,127.0,127.0,127.0,128.0,107.0,128.0,24.0,-115.0,-71.0,127.0,127.0,127.0,119.0,87.0,-82.0
126.0,127.0,127.0,127.0,127.0,128.0,106.0,128.0,24.0,-115.0,-71.0,127.0,127.0,127.0,119.0,87.0,-82.0
126.0,127.0,128.0,127.0,127.0,128.0,106.0,128.0,24.0,-115.0,-71.0,127.0,127.0,127.0,119.0,87.0,-82.0
127.0,127.0,128.0,127.0,127.0,127.0,106.0,128.0,24.0,-115.0,-71.0,127.0,127.0,127.0,119.0,87.0,-82.0
127.0,127.0,128.0,127.0,127.0,128.0,107.0,128.0,24.0,-115.0,-71.0,127.0,127.0,127.0,119.0,87.0,-82.0
126.0,127.0,128.0,127.0,127.0,128.0,107.0,128.0,24.0,-115.0,-71.0,127.0,127.0,127.0,119.0,87.0,-82.0
126.0,127.0,128.0,127.0,127.0,128.0,107.0,128.0,24.0,-115.0,-71.0,127.0,127.0,127.0,119.0,87.0,-82.0
126.0,127.0,128.0,127.0,127.0,128.0,107.0,128.0,24.0,-115.0,-71.0,127.0,127.0,127.0,119.0,87.0,-82.0
126.0,127.0,128.0,127.0,127.0,128.0,107.0,128.0,24.0,-115.0,-71.0,127.0,127.0,127.0,119.0,87.0,-82.0
126.0,127.0,128.0,127.0,127.0,128.0,108.0,128.0,24.0,-115.0,-71.0,127.0,127.0,127.0,119.0,87.0,-82.0
126.0,127.0,128.0,127.0,127.0,128.0,108.0,128.0,24.0,-115.0,-71.0,127.0,127.0,127.0,119.0,87.0,-82.0
126.0,127.0,128.0,127.0,127.0,127.0,106.0,128.0,24.0,-115.0,-71.0,127.0,127.0,127.0,119.0,87.0,-82.0
126.0,127.0,127.0,127.0,127.0,127.0,107.0,128.0,24.0,-115.0,-71.0,127.0,127.0,127.0,119.0,87.0,-82.0
126.0,127.0,127.0,127.0,127.0,127.0,107.0,128.0,24.0,-115.0,-71.0,127.0,127.0,127.0,119.0,87.0,-82.0
126.0,127.0,127.0,127.0,127.0,127.0,106.0,128.0,24.0,-115.0,-71.0,127.0,127.0,127.0,119.0,87.0,-82.0
126.0,127.0,127.0,127.0,127.0,127.0,107.0,128.0,24.0,-115.0,-71.0,127.0,127.0,127.0,119.0,87.0,-82.0
127.0,127.0,127.0,127.0,127.0,128.0,107.0,128.0,24.0,-115.0,-71.0,127.0,127.0,127.0,119.0,87.0,-82.0
127.0,127.0,127.0,127.0,127.0,128.0,107.0,128.0,24.0,-115.0,-71.0,127.0,127.0,127.0,119.0,87.0,-82.0
127.0,127.0,127.0,127.0,127.0,128.0,107.0,128.0,24.0,-115.0,-71.0,127.0,127.0,127.0,119.0,87.0,-82.0
127.0,127.0,127.0,127.0,127.0,128.0,107.0,128.0,24.0,-115.0,-71.0,127.0,127.0,127.0,119.0,87.0,-82.0
127.0,127.0,128.0,127.0,127.0,127.0,106.0,128.0,24.0,-115.0,-71.0,127.0,127.0,127.0,119.0,87.0,-82.0
127.0,127.0,127.0,127.0,127.0,127.0,106.0,128.0,24.0,-115.0,-71.0,127.0,127.0,127.0,119.0,87.0,-82.0
127.0,127.0,127.0,127.0,127.0,128.0,107.0,128.0,24.0,-115.0,-71.0,127.0,127.0,127.0,119.0,87.0,-82.0
127.0,127.0,127.0,127.0,127.0,128.0,107.0,128.0,24.0,-115.0,-71.0,127.0,127.0,127.0,119.0,87.0,-82.0
127.0,127.0,127.0,127.0,127.0,127.0,107.0,128.0,24.0,-115.0,-71.0,127.0,127.0,127.0,119.0,87.0,-82.0
127.0,127.0,127.0,127.0,127.0,128.0,107.0,128.0,24.0,-115.0,-71.0,127.0,127.0,127.0,119.0,87.0,-82.0
126.0,127.0,127.0,127.0,127.0,127.0,106.0,128.0,24.0,-115.0,-71.0,127.0,127.0,127.0,119.0,87.0,-82.0
126.0,127.0,127.0,127.0,126.0,127.0,107.0,128.0,24.0,-115.0,-71.0,127.0,127.0,127.0,119.0,87.0,-82.0
126.0,127.0,127.0,127.0,127.0,127.0,107.0,128.0,24.0,-115.0,-71.0,127.0,127.0,127.0,119.0,87.0,-82.0
126.0,127.0,127.0,127.0,127.0,127.0,113.0,128.0,24.0,-115.0,-71.0,127.0,127.0,127.0,119.0,87.0,-82.0
126.0,127.0,127.0,127.0,127.0,127.0,113.0,128.0,24.0,-115.0,-71.0,127.0,127.0,127.0,119.0,87.0,-82.0
126.0,127.0,127.0,127.0,127.0,127.0,110.0,128.0,24.0,-115.0,-71.0,127.0,127.0,127.0,119.0,87.0,-82.0
126.0,127.0,127.0,127.0,127.0,127.0,107.0,128.0,24.0,-115.0,-71.0,127.0,127.0,127.0,119.0,87.0,-82.0
126.0,127.0,127.0,127.0,127.0,127.0,107.0,128.0,24.0,-115.0,-71.0,127.0,127.0,127.0,119.0,87.0,-82.0
126.0,127.0,127.0,127.0,127.0,127.0,106.0,128.0,24.0,-115.0,-71.0,127.0,127.0,127.0,119.0,87.0,-82.0
126.0,127.0,127.0,127.0,127.0,127.0,107.0,128.0,24.0,-115.0,-71.0,127.0,127.0,127.0,119.0,87.0,-82.0
126.0,127.0,127.0,127.0,127.0,127.0,111.0,128.0,24.0,-115.0,-71.0,127.0,127.0,127.0,119.0,87.0,-82.0
126.0,127.0,127.0,127.0,127.0,127.0,113.0,128.0,24.0,-115.0,-71.0,127.0,127.0,127.0,119.0,87.0,-82.0
126.0,127.0,127.0,127.0,127.0,127.0,106.0,128.0,24.0,-115.0,-71.0,127.0,127.0,127.0,119.0,87.0,-82.0
126.0,127.0,127.0,127.0,127.0,127.0,107.0,128.0,24.0,-115.0,-71.0,127.0,127.0,127.0,119.0,87.0,-82.0
126.0,127.0,127.0,127.0,127.0,127.0,107.0,128.0,24.0,-115.0,-71.0,127.0,127.0,127.0,119.0,87.0,-82.0
126.0,127.0,127.0,127.0,127.0,127.0,107.0,128.0,24.0,-115.0,-71.0,127.0,127.0,127.0,119.0,87.0,-82.0
126.0,127.0,127.0,127.0,127.0,127.0,107.0,128.0,24.0,-115.0,-71.0,127.0,127.0,127.0,119.0,87.0,-82.0
126.0,127.0,127.0,127.0,127.0,127.0,106.0,128.0,24.0,-115.0,-71.0,127.0,127.0,127.0,119.0,87.0,-82.0
126.0,127.0,127.0,127.0,127.0,127.0,108.0,128.0,24.0,-115.0,-71.0,127.0,127.0,127.0,119.0,87.0,-82.0
127.0,127.0,127.0,127.0,127.0,127.0,108.0,128.0,24.0,-115.0,-71.0,127.0,127.0,127.0,119.0,87.0,-82.0
127.0,127.0,128.0,127.0,127.0,128.0,107.0,128.0,24.0,-115.0,-71.0,127.0,127.0,127.0,119.0,87.0,-82.0
126.0,127.0,127.0,127.0,127.0,127.0,113.0,128.0,24.0,-115.0,-71.0,127.0,127.0,127.0,119.0,87.0,-82.0
126.0,127.0,127.0,127.0,127.0,127.0,113.0,128.0,24.0,-115.0,-71.0,127.0,127.0,127.0,119.0,87.0,-82.0
127.0,127.0,127.0,127.0,127.0,127.0,111.0,128.0,24.0,-115.0,-71.0,127.0,127.0,127.0,119.0,87.0,-82.0
127.0,127.0,127.0,127.0,127.0,127.0,107.0,128.0,24.0,-115.0,-71.0,127.0,127.0,127.0,119.0,87.0,-82.0
127.0,127.0,128.0,127.0,127.0,127.0,107.0,128.0,24.0,-115.0,-71.0,127.0,127.0,127.0,119.0,87.0,-82.0
127.0,127.0,128.0,127.0,127.0,127.0,107.0,128.0,24.0,-115.0,-71.0,127.0,127.0,127.0,119.0,87.0,-82.0
127.0,127.0,127.0,127.0,127.0,127.0,106.0,128.0,24.0,-115.0,-71.0,127.0,127.0,127.0,119.0,87.0,-82.0
127.0,127.0,128.0,127.0,127.0,127.0,106.0,128.0,24.0,-115.0,-71.0,127.0,127.0,127.0,119.0,87.0,-82.0
127.0,127.0,128.0,127.0,127.0,127.0,107.0,128.0,24.0,-115.0,-71.0,127.0,127.0,127.0,119.0,87.0,-82.0
127.0,127.0,127.0,127.0,127.0,127.0,108.0,128.0,24.0,-115.0,-71.0,127.0,127.0,127.0,119.0,87.0,-82.0
127.0,127.0,127.0,127.0,127.0,127.0,107.0,128.0,24.0,-115.0,-71.0,127.0,127.0,127.0,119.0,87.0,-82.0
127.0,127.0,127.0,127.0,127.0,127.0,107.0,128.0,24.0,-115.0,-71.0,127.0,127.0,127.0,119.0,87.0,-82.0
127.0,127.0,128.0,127.0,127.0,127.0,107.0,128.0,24.0,-115.0,-71.0,127.0,127.0,127.0,119.0,87.0,-82.0
127.0,127.0,128.0,127.0,127.0,127.0,106.0,128.0,24.0,-115.0,-71.0,127.0,127.0,127.0,119.0,87.0,-82.0
127.0,127.0,127.0,127.0,127.0,127.0,107.0,128.0,24.0,-115.0,-71.0,127.0,127.0,127.0,119.0,87.0,-82.0
127.0,127.0,127.0,127.0,127.0,127.0,107.0,128.0,24.0,-115.0,-71.0,127.0,127.0,127.0,119.0,87.0,-82.0
127.0,127.0,127.0,127.0,127.0,127.0,106.0,128.0,24.0,-115.0,-71.0,127.0,127.0,127.0,119.0,87.0,-82.0
127.0,127.0,127.0,127.0,127.0,127.0,107.0,128.0,24.0,-115.0,-71.0,127.0,127.0,127.0,119.0,87.0,-82.0
127.0,127.0,127.0,127.0,127.0,127.0,106.0,128.0,24.0,-115.0,-71.0,127.0,127.0,127.0,119.0,87.0,-82.0
126.0,127.0,128.0,127.0,127.0,127.0,106.0,128.0,24.0,-115.0,-71.0,127.0,127.0,127.0,119.0,87.0,-82.0
126.0,127.0,128.0,127.0,127.0,127.0,106.0,128.0,24.0,-115.0,-71.0,127.0,127.0,127.0,119.0,87.0,-82.0
126.0,127.0,128.0,127.0,127.0,128.0,107.0,128.0,24.0,-115.0,-71.0,127.0,127.0,127.0,119.0,87.0,-82.0
126.0,127.0,128.0,127.0,127.0,128.0,107.0,128.0,24.0,-115.0,-71.0,127.0,127.0,127.0,119.0,87.0,-82.0
126.0,127.0,128.0,127.0,127.0,128.0,108.0,128.0,24.0,-115.0,-71.0,127.0,127.0,127.0,119.0,87.0,-82.0
126.0,127.0,128.0,127.0,127.0,128.0,107.0,128.0,24.0,-115.0,-71.0,127.0,127.0,127.0,119.0,87.0,-82.0
126.0,127.0,128.0,127.0,127.0,128.0,107.0,128.0,24.0,-115.0,-71.0,127.0,127.0,127.0,119.0,87.0,-82.0
126.0,127.0,128.0,127.0,127.0,128.0,107.0,128.0,24.0,-115.0,-71.0,127.0,127.0,127.0,119.0,87.0,-82.0
126.0,127.0,127.0,127.0,127.0,128.0,107.0,128.0,24.0,-115.0,-71.0,127.0,127.0,127.0,119.0,87.0,-82.0
126.0,127.0,128.0,127.0,127.0,127.0,107.0,128.0,24.0,-115.0,-71.0,127.0,127.0,127.0,119.0,87.0,-82.0
127.0,127.0,128.0,127.0,127.0,127.0,107.0,128.0,24.0,-115.0,-71.0,127.0,127.0,127.0,119.0,87.0,-82.0
127.0,127.0,128.0,127.0,127.0,128.0,107.0,128.0,24.0,-115.0,-71.0,127.0,127.0,127.0,119.0,87.0,-82.0
127.0,127.0,128.0,127.0,127.0,128.0,107.0,128.0,24.0,-115.0,-71.0,127.0,127.0,127.0,119.0,87.0,-82.0
127.0,127.0,128.0,127.0,127.0,128.0,107.0,128.0,24.0,-115.0,-71.0,127.0,127.0,127.0,119.0,87.0,-82.0
127.0,127.0,128.0,127.0,127.0,128.0,107.0,128.0,24.0,-115.0,-71.0,127.0,127.0,127.0,119.0,87.0,-82.0
127.0,127.0,128.0,127.0,127.0,128.0,107.0,128.0,24.0,-115.0,-71.0,127.0,127.0,127.0,119.0,87.0,-82.0
127.0,127.0,128.0,127.0,127.0,128.0,107.0,128.0,24.0,-115.0,-71.0,127.0,127.0,127.0,119.0,87.0,-82.0
127.0,127.0,128.0,127.0,127.0,128.0,107.0,128.0,24.0,-115.0,-71.0,127.0,127.0,127.0,119.0,87.0,-82.0
127.0,127.0,128.0,127.0,127.0,127.0,106.0,128.0,24.0,-115.0,-71.0,127.0,127.0,127.0,119.0,87.0,-82.0
127.0,127.0,128.0,127.0,127.0,128.0,106.0,128.0,24.0,-115.0,-71.0,127.0,127.0,127.0,119.0,87.0,-82.0
127.0,127.0,127.0,127.0,127.0,128.0,107.0,127.0,24.0,-115.0,-71.0,127.0,127.0,127.0,119.0,87.0,-82.0
127.0,127.0,127.0,127.0,127.0,128.0,108.0,128.0,24.0,-115.0,-71.0,127.0,127.0,127.0,119.0,87.0,-82.0
127.0,127.0,127.0,127.0,127.0,128.0,107.0,128.0,24.0,-115.0,-71.0,127.0,127.0,127.0,119.0,87.0,-82.0
127.0,127.0,127.0,127.0,127.0,128.0,107.0,128.0,24.0,-115.0,-71.0,127.0,127.0,127.0,119.0,87.0,-82.0
127.0,127.0,127.0,127.0,127.0,128.0,107.0,128.0,24.0,-115.0,-71.0,127.0,127.0,127.0,119.0,87.0,-82.0
127.0,127.0,127.0,127.0,127.0,128.0,107.0,128.0,24.0,-115.0,-71.0,127.0,127.0,127.0,119.0,87.0,-82.0
127.0,127.0,127.0,127.0,127.0,128.0,106.0,128.0,24.0,-115.0,-71.0,127.0,127.0,127.0,119.0,87.0,-82.0
127.0,127.0,127.0,127.0,127.0,127.0,106.0,128.0,24.0,-115.0,-71.0,127.0,127.0,127.0,119.0,87.0,-82.0
127.0,127.0,127.0,127.0,127.0,127.0,106.0,128.0,24.0,-115.0,-71.0,127.0,127.0,127.0,119.0,87.0,-82.0
127.0,127.0,127.0,127.0,127.0,127.0,107.0,128.0,24.0,-115.0,-71.0,127.0,127.0,127.0,119.0,87.0,-82.0
127.0,127.0,128.0,127.0,127.0,128.0,107.0,128.0,24.0,-115.0,-71.0,127.0,127.0,127.0,119.0,87.0,-82.0
127.0,127.0,128.0,127.0,127.0,128.0,107.0,128.0,24.0,-115.0,-71.0,127.0,127.0,127.0,119.0,87.0,-82.0
127.0,127.0,128.0,127.0,127.0,128.0,108.0,128.0,24.0,-115.0,-71.0,127.0,127.0,127.0,119.0,87.0,-82.0
127.0,127.0,128.0,127.0,127.0,128.0,107.0,128.0,24.0,-115.0,-71.0,127.0,127.0,127.0,119.0,87.0,-82.0
127.0,127.0,128.0,127.0,127.0,128.0,108.0,128.0,24.0,-115.0,-71.0,127.0,127.0,127.0,119.0,87.0,-82.0
127.0,127.0,128.0,127.0,127.0,128.0,107.0,128.0,24.0,-115.0,-71.0,127.0,127.0,127.0,119.0,87.0,-82.0
127.0,127.0,127.0,127.0,127.0,127.0,106.0,128.0,24.0,-115.0,-71.0,127.0,127.0,127.0,119.0,87.0,-82.0
127.0,127.0,127.0,127.0,127.0,127.0,106.0,128.0,24.0,-115.0,-71.0,127.0,127.0,127.0,119.0,87.0,-82.0
127.0,127.0,127.0,127.0,127.0,127.0,107.0,128.0,24.0,-115.0,-71.0,127.0,127.0,127.0,119.0,87.0,-82.0
127.0,127.0,128.0,127.0,127.0,128.0,107.0,128.0,24.0,-115.0,-71.0,127.0,127.0,127.0,119.0,87.0,-82.0
127.0,127.0,128.0,127.0,127.0,128.0,107.0,128.0,24.0,-115.0,-71.0,127.0,127.0,127.0,119.0,87.0,-82.0
127.0,127.0,128.0,127.0,127.0,128.0,107.0,128.0,24.0,-115.0,-71.0,127.0,127.0,127.0,119.0,87.0,-82.0
127.0,127.0,128.0,127.0,127.0,128.0,108.0,127.0,24.0,-115.0,-71.0,127.0,127.0,127.0,119.0,87.0,-82.0
127.0,127.0,128.0,127.0,127.0,128.0,109.0,128.0,24.0,-115.0,-71.0,127.0,127.0,127.0,119.0,87.0,-82.0
127.0,127.0,127.0,127.0,127.0,128.0,108.0,128.0,24.0,-115.0,-71.0,127.0,127.0,127.0,119.0,87.0,-82.0
127.0,127.0,127.0,127.0,127.0,128.0,107.0,128.0,24.0,-115.0,-71.0,127.0,127.0,127.0,119.0,87.0,-82.0
127.0,127.0,127.0,127.0,127.0,128.0,107.0,128.0,24.0,-115.0,-71.0,127.0,127.0,127.0,119.0,87.0,-82.0
127.0,127.0,128.0,127.0,127.0,128.0,107.0,128.0,24.0,-115.0,-71.0,127.0,127.0,127.0,119.0,87.0,-82.0
127.0,127.0,128.0,127.0,127.0,128.0,107.0,128.0,24.0,-115.0,-71.0,127.0,127.0,127.0,119.0,87.0,-82.0
127.0,127.0,128.0,127.0,127.0,128.0,107.0,128.0,24.0,-115.0,-71.0,127.0,127.0,127.0,119.0,87.0,-82.0
126.0,127.0,128.0,127.0,127.0,127.0,106.0,128.0,24.0,-115.0,-71.0,127.0,127.0,127.0,119.0,87.0,-82.0
126.0,127.0,128.0,127.0,127.0,128.0,107.0,128.0,24.0,-115.0,-71.0,127.0,127.0,127.0,119.0,87.0,-82.0
126.0,127.0,128.0,127.0,127.0,128.0,107.0,128.0,24.0,-115.0,-71.0,127.0,127.0,127.0,119.0,87.0,-82.0
126.0,127.0,128.0,127.0,127.0,128.0,107.0,127.0,24.0,-115.0,-71.0,127.0,127.0,127.0,119.0,87.0,-82.0
126.0,127.0,127.0,127.0,127.0,127.0,106.0,128.0,24.0,-115.0,-71.0,127.0,127.0,127.0,119.0,87.0,-82.0
126.0,127.0,127.0,127.0,127.0,128.0,107.0,128.0,24.0,-115.0,-71.0,127.0,127.0,127.0,119.0,87.0,-82.0
126.0,127.0,128.0,127.0,127.0,128.0,106.0,128.0,24.0,-115.0,-71.0,127.0,127.0,127.0,119.0,87.0,-82.0
126.0,127.0,127.0,127.0,127.0,127.0,107.0,128.0,24.0,-115.0,-71.0,127.0,127.0,127.0,119.0,87.0,-82.0
126.0,127.0,128.0,127.0,127.0,127.0,106.0,128.0,24.0,-115.0,-71.0,127.0,127.0,127.0,119.0,87.0,-82.0
126.0,127.0,128.0,127.0,127.0,127.0,106.0,128.0,24.0,-115.0,-71.0,127.0,127.0,127.0,119.0,87.0,-82.0
127.0,127.0,127.0,127.0,127.0,128.0,107.0,128.0,24.0,-115.0,-71.0,127.0,127.0,127.0,119.0,87.0,-82.0
127.0,127.0,127.0,127.0,127.0,128.0,107.0,128.0,24.0,-115.0,-71.0,127.0,127.0,127.0,119.0,87.0,-82.0
127.0,127.0,127.0,127.0,127.0,128.0,107.0,128.0,24.0,-115.0,-71.0,127.0,127.0,127.0,119.0,87.0,-82.0
127.0,127.0,128.0,127.0,127.0,128.0,108.0,128.0,24.0,-115.0,-71.0,127.0,127.0,127.0,119.0,87.0,-82.0
127.0,127.0,128.0,127.0,127.0,128.0,108.0,128.0,24.0,-115.0,-71.0,127.0,127.0,127.0,119.0,87.0,-82.0
127.0,127.0,128.0,127.0,127.0,128.0,107.0,128.0,24.0,-115.0,-71.0,127.0,127.0,127.0,119.0,87.0,-82.0
127.0,127.0,127.0,127.0,127.0,128.0,108.0,128.0,24.0,-115.0,-71.0,127.0,127.0,127.0,119.0,87.0,-82.0
127.0,127.0,128.0,127.0,127.0,128.0,108.0,128.0,24.0,-115.0,-71.0,127.0,127.0,127.0,119.0,87.0,-82.0
127.0,127.0,127.0,127.0,127.0,128.0,108.0,128.0,24.0,-115.0,-71.0,127.0,127.0,127.0,119.0,87.0,-82.0
127.0,127.0,127.0,127.0,127.0,128.0,107.0,128.0,24.0,-115.0,-71.0,127.0,127.0,127.0,119.0,87.0,-82.0
127.0,127.0,128.0,127.0,127.0,128.0,106.0,128.0,24.0,-115.0,-71.0,127.0,127.0,127.0,119.0,87.0,-82.0
127.0,127.0,128.0,127.0,127.0,127.0,106.0,128.0,24.0,-115.0,-71.0,127.0,127.0,127.0,119.0,87.0,-82.0
126.0,127.0,127.0,127.0,127.0,127.0,106.0,128.0,24.0,-115.0,-71.0,127.0,127.0,127.0,119.0,87.0,-82.0
127.0,127.0,127.0,127.0,127.0,127.0,108.0,128.0,24.0,-115.0,-71.0,127.0,127.0,127.0,119.0,87.0,-82.0
127.0,127.0,127.0,127.0,127.0,127.0,107.0,128.0,24.0,-115.0,-71.0,127.0,127.0,127.0,119.0,87.0,-82.0
126.0,127.0,127.0,127.0,127.0,127.0,106.0,128.0,24.0,-115.0,-71.0,127.0,127.0,127.0,119.0,87.0,-82.0
127.0,127.0,128.0,127.0,127.0,128.0,106.0,128.0,24.0,-115.0,-71.0,127.0,127.0,127.0,119.0,87.0,-82.0
127.0,127.0,128.0,127.0,127.0,128.0,106.0,128.0,24.0,-115.0,-71.0,127.0,127.0,127.0,119.0,87.0,-82.0
127.0,127.0,128.0,127.0,127.0,127.0,106.0,128.0,24.0,-115.0,-71.0,127.0,127.0,127.0,119.0,87.0,-82.0
127.0,127.0,128.0,127.0,127.0,127.0,106.0,128.0,24.0,-115.0,-71.0,127.0,127.0,127.0,119.0,87.0,-82.0
127.0,127.0,128.0,127.0,127.0,128.0,107.0,128.0,24.0,-115.0,-70.0,127.0,127.0,127.0,119.0,87.0,-82.0
127.0,127.0,128.0,127.0,127.0,128.0,106.0,128.0,24.0,-115.0,-70.0,127.0,127.0,127.0,119.0,87.0,-82.0
127.0,127.0,128.0,127.0,127.0,127.0,106.0,128.0,24.0,-115.0,-70.0,127.0,127.0,127.0,119.0,87.0,-82.0
127.0,127.0,128.0,127.0,127.0,127.0,106.0,128.0,24.0,-115.0,-70.0,127.0,127.0,127.0,119.0,87.0,-82.0
127.0,127.0,128.0,127.0,127.0,127.0,106.0,128.0,24.0,-115.0,-70.0,127.0,127.0,127.0,119.0,87.0,-82.0
127.0,127.0,128.0,127.0,127.0,128.0,107.0,128.0,24.0,-115.0,-70.0,127.0,127.0,127.0,119.0,87.0,-82.0
127.0,127.0,128.0,127.0,127.0,128.0,107.0,128.0,24.0,-115.0,-70.0,127.0,127.0,127.0,119.0,87.0,-82.0
127.0,127.0,128.0,127.0,127.0,128.0,107.0,128.0,24.0,-115.0,-70.0,127.0,127.0,127.0,119.0,87.0,-82.0
127.0,127.0,128.0,127.0,127.0,128.0,107.0,128.0,24.0,-115.0,-70.0,127.0,127.0,127.0,119.0,87.0,-82.0
127.0,127.0,128.0,127.0,127.0,128.0,107.0,128.0,24.0,-115.0,-70.0,127.0,127.0,127.0,119.0,87.0,-82.0
127.0,127.0,127.0,127.0,127.0,128.0,107.0,128.0,24.0,-115.0,-70.0,127.0,127.0,127.0,119.0,87.0,-82.0
127.0,127.0,127.0,127.0,127.0,127.0,107.0,128.0,24.0,-115.0,-70.0,127.0,127.0,127.0,119.0,87.0,-82.0
127.0,127.0,127.0,127.0,127.0,127.0,107.0,128.0,24.0,-115.0,-70.0,127.0,127.0,127.0,119.0,87.0,-82.0
127.0,127.0,127.0,127.0,127.0,127.0,107.0,128.0,24.0,-115.0,-70.0,127.0,127.0,127.0,119.0,87.0,-82.0
127.0,127.0,127.0,127.0,127.0,128.0,107.0,128.0,24.0,-115.0,-70.0,127.0,127.0,127.0,119.0,87.0,-82.0
127.0,127.0,127.0,127.0,127.0,128.0,107.0,128.0,24.0,-115.0,-70.0,127.0,127.0,127.0,119.0,87.0,-82.0
127.0,127.0,127.0,127.0,127.0,128.0,107.0,128.0,24.0,-115.0,-70.0,127.0,127.0,127.0,119.0,87.0,-82.0
127.0,127.0,127.0,127.0,127.0,128.0,107.0,128.0,24.0,-115.0,-70.0,127.0,127.0,127.0,119.0,87.0,-82.0
127.0,127.0,127.0,127.0,127.0,128.0,107.0,128.0,24.0,-115.0,-70.0,127.0,127.0,127.0,119.0,87.0,-82.0
127.0,127.0,127.0,127.0,127.0,128.0,107.0,128.0,24.0,-115.0,-70.0,127.0,127.0,127.0,119.0,87.0,-82.0
127.0,127.0,127.0,127.0,127.0,127.0,106.0,128.0,24.0,-115.0,-70.0,127.0,127.0,127.0,119.0,87.0,-82.0
127.0,127.0,127.0,127.0,127.0,127.0,107.0,128.0,24.0,-115.0,-70.0,127.0,127.0,127.0,119.0,87.0,-82.0
127.0,127.0,127.0,127.0,127.0,127.0,106.0,128.0,24.0,-115.0,-70.0,127.0,127.0,127.0,119.0,87.0,-82.0
127.0,127.0,127.0,127.0,127.0,127.0,107.0,128.0,24.0,-115.0,-70.0,127.0,127.0,127.0,119.0,87.0,-82.0
127.0,127.0,127.0,127.0,127.0,127.0,107.0,128.0,24.0,-115.0,-70.0,127.0,127.0,127.0,119.0,87.0,-82.0
127.0,127.0,127.0,127.0,127.0,127.0,107.0,128.0,24.0,-115.0,-70.0,127.0,127.0,127.0,119.0,87.0,-82.0
127.0,127.0,127.0,127.0,127.0,127.0,106.0,128.0,24.0,-115.0,-70.0,127.0,127.0,127.0,119.0,87.0,-82.0
127.0,127.0,127.0,127.0,127.0,128.0,107.0,128.0,24.0,-115.0,-70.0,127.0,127.0,127.0,119.0,87.0,-82.0
127.0,127.0,127.0,127.0,127.0,128.0,107.0,128.0,24.0,-115.0,-70.0,127.0,127.0,127.0,119.0,87.0,-82.0
127.0,127.0,127.0,127.0,127.0,127.0,107.0,128.0,24.0,-115.0,-70.0,127.0,127.0,127.0,119.0,87.0,-82.0
126.0,127.0,128.0,127.0,127.0,127.0,107.0,128.0,24.0,-115.0,-70.0,127.0,127.0,127.0,119.0,87.0,-82.0
126.0,127.0,128.0,127.0,127.0,127.0,107.0,128.0,24.0,-115.0,-70.0,127.0,127.0,127.0,119.0,87.0,-82.0
126.0,127.0,128.0,127.0,127.0,127.0,107.0,128.0,24.0,-115.0,-70.0,127.0,127.0,127.0,119.0,87.0,-82.0
126.0,127.0,128.0,127.0,127.0,127.0,106.0,128.0,24.0,-115.0,-70.0,127.0,127.0,127.0,119.0,87.0,-82.0
126.0,127.0,128.0,127.0,127.0,127.0,106.0,128.0,24.0,-115.0,-70.0,127.0,127.0,127.0,119.0,87.0,-82.0
126.0,127.0,128.0,127.0,127.0,127.0,106.0,128.0,24.0,-115.0,-70.0,127.0,127.0,127.0,119.0,87.0,-82.0
126.0,127.0,128.0,127.0,127.0,128.0,107.0,128.0,24.0,-115.0,-70.0,127.0,127.0,127.0,119.0,87.0,-82.0
127.0,127.0,128.0,127.0,127.0,128.0,107.0,128.0,24.0,-115.0,-70.0,127.0,127.0,127.0,119.0,87.0,-82.0
126.0,127.0,127.0,127.0,127.0,127.0,112.0,128.0,24.0,-115.0,-70.0,127.0,127.0,127.0,119.0,87.0,-82.0
126.0,127.0,128.0,127.0,127.0,127.0,109.0,128.0,24.0,-115.0,-70.0,127.0,127.0,127.0,119.0,87.0,-82.0
126.0,127.0,128.0,127.0,127.0,128.0,107.0,128.0,24.0,-115.0,-71.0,127.0,127.0,127.0,119.0,87.0,-82.0
126.0,127.0,128.0,127.0,127.0,128.0,107.0,128.0,24.0,-115.0,-71.0,127.0,127.0,127.0,119.0,87.0,-82.0
127.0,127.0,128.0,127.0,127.0,128.0,107.0,128.0,24.0,-115.0,-71.0,127.0,127.0,127.0,119.0,87.0,-82.0
127.0,127.0,128.0,127.0,127.0,128.0,107.0,128.0,24.0,-115.0,-71.0,127.0,127.0,127.0,119.0,87.0,-82.0
126.0,127.0,128.0,127.0,127.0,128.0,107.0,128.0,24.0,-115.0,-71.0,127.0,127.0,127.0,119.0,87.0,-82.0
126.0,127.0,128.0,127.0,127.0,127.0,106.0,128.0,24.0,-115.0,-71.0,127.0,127.0,127.0,119.0,87.0,-82.0
126.0,127.0,128.0,127.0,127.0,128.0,106.0,128.0,24.0,-115.0,-71.0,127.0,127.0,127.0,119.0,87.0,-82.0
126.0,127.0,127.0,127.0,127.0,127.0,106.0,128.0,24.0,-115.0,-71.0,127.0,127.0,127.0,119.0,87.0,-82.0
126.0,127.0,127.0,127.0,127.0,127.0,106.0,128.0,24.0,-115.0,-71.0,127.0,127.0,127.0,119.0,87.0,-82.0
126.0,127.0,128.0,127.0,127.0,128.0,107.0,128.0,24.0,-115.0,-71.0,127.0,127.0,127.0,119.0,87.0,-82.0
126.0,127.0,127.0,127.0,127.0,127.0,107.0,128.0,24.0,-115.0,-71.0,127.0,127.0,127.0,119.0,87.0,-82.0
126.0,127.0,127.0,127.0,127.0,127.0,106.0,128.0,24.0,-115.0,-71.0,127.0,127.0,127.0,119.0,87.0,-82.0
126.0,127.0,127.0,127.0,127.0,127.0,106.0,128.0,24.0,-115.0,-71.0,127.0,127.0,127.0,119.0,87.0,-82.0
126.0,127.0,127.0,127.0,127.0,127.0,106.0,128.0,24.0,-115.0,-71.0,127.0,127.0,127.0,119.0,87.0,-82.0
126.0,127.0,127.0,127.0,127.0,127.0,110.0,128.0,24.0,-115.0,-71.0,127.0,127.0,127.0,119.0,87.0,-82.0
126.0,127.0,127.0,127.0,127.0,127.0,110.0,128.0,24.0,-115.0,-71.0,127.0,127.0,127.0,119.0,87.0,-82.0
126.0,127.0,127.0,127.0,127.0,128.0,106.0,128.0,24.0,-115.0,-71.0,127.0,127.0,127.0,119.0,87.0,-82.0
126.0,127.0,127.0,127.0,127.0,127.0,106.0,128.0,24.0,-115.0,-71.0,127.0,127.0,127.0,119.0,87.0,-82.0
126.0,127.0,127.0,127.0,127.0,127.0,106.0,128.0,24.0,-115.0,-71.0,127.0,127.0,127.0,119.0,87.0,-82.0
126.0,127.0,127.0,127.0,127.0,127.0,106.0,128.0,24.0,-115.0,-71.0,127.0,127.0,127.0,119.0,87.0,-82.0
126.0,127.0,127.0,127.0,127.0,127.0,106.0,128.0,24.0,-115.0,-71.0,127.0,127.0,127.0,119.0,87.0,-82.0
126.0,127.0,127.0,127.0,127.0,127.0,106.0,128.0,24.0,-115.0,-71.0,127.0,127.0,127.0,119.0,87.0,-82.0
126.0,127.0,127.0,127.0,127.0,127.0,106.0,128.0,24.0,-115.0,-71.0,127.0,127.0,127.0,119.0,87.0,-82.0
127.0,127.0,127.0,127.0,127.0,128.0,106.0,128.0,24.0,-115.0,-71.0,127.0,127.0,127.0,119.0,87.0,-82.0
127.0,127.0,127.0,127.0,127.0,128.0,107.0,128.0,24.0,-115.0,-71.0,127.0,127.0,127.0,119.0,87.0,-82.0
126.0,127.0,127.0,127.0,127.0,127.0,114.0,128.0,24.0,-115.0,-71.0,127.0,127.0,127.0,119.0,87.0,-82.0
126.0,127.0,127.0,127.0,127.0,127.0,110.0,128.0,24.0,-115.0,-71.0,127.0,127.0,127.0,119.0,87.0,-82.0
126.0,127.0,127.0,127.0,127.0,128.0,107.0,128.0,24.0,-115.0,-71.0,127.0,127.0,127.0,119.0,87.0,-82.0
127.0,127.0,128.0,127.0,127.0,127.0,106.0,128.0,24.0,-115.0,-71.0,127.0,127.0,127.0,119.0,87.0,-82.0
126.0,127.0,128.0,127.0,127.0,127.0,107.0,128.0,24.0,-115.0,-71.0,127.0,127.0,127.0,119.0,87.0,-82.0
126.0,127.0,128.0,127.0,127.0,127.0,106.0,128.0,24.0,-115.0,-71.0,127.0,127.0,127.0,119.0,87.0,-82.0
126.0,127.0,128.0,127.0,127.0,127.0,106.0,128.0,24.0,-115.0,-71.0,127.0,127.0,127.0,119.0,87.0,-82.0
126.0,127.0,128.0,127.0,127.0,128.0,106.0,128.0,24.0,-115.0,-71.0,127.0,127.0,127.0,119.0,87.0,-82.0
126.0,126.0,127.0,127.0,127.0,127.0,113.0,128.0,24.0,-115.0,-71.0,127.0,127.0,127.0,119.0,87.0,-82.0
126.0,127.0,127.0,127.0,127.0,127.0,111.0,128.0,24.0,-115.0,-71.0,127.0,127.0,127.0,119.0,87.0,-82.0
126.0,127.0,127.0,127.0,127.0,127.0,110.0,128.0,24.0,-115.0,-71.0,127.0,127.0,127.0,119.0,87.0,-82.0
126.0,127.0,128.0,127.0,127.0,127.0,107.0,128.0,24.0,-115.0,-71.0,127.0,127.0,127.0,119.0,87.0,-82.0
126.0,127.0,128.0,127.0,127.0,128.0,106.0,128.0,24.0,-115.0,-71.0,127.0,127.0,127.0,119.0,87.0,-82.0
126.0,127.0,128.0,127.0,127.0,127.0,107.0,128.0,24.0,-115.0,-71.0,127.0,127.0,127.0,119.0,87.0,-82.0
126.0,127.0,128.0,127.0,127.0,127.0,107.0,128.0,24.0,-115.0,-71.0,127.0,127.0,127.0,119.0,87.0,-82.0
126.0,127.0,127.0,127.0,127.0,127.0,114.0,128.0,24.0,-115.0,-71.0,127.0,127.0,127.0,119.0,87.0,-82.0
126.0,127.0,127.0,127.0,127.0,127.0,113.0,128.0,24.0,-115.0,-71.0,127.0,127.0,127.0,119.0,87.0,-82.0
126.0,127.0,127.0,127.0,127.0,127.0,113.0,128.0,24.0,-115.0,-71.0,127.0,127.0,127.0,119.0,87.0,-82.0
126.0,127.0,127.0,127.0,127.0,127.0,112.0,128.0,24.0,-115.0,-71.0,127.0,127.0,127.0,119.0,87.0,-82.0
126.0,127.0,127.0,127.0,127.0,127.0,113.0,128.0,24.0,-115.0,-71.0,127.0,127.0,127.0,119.0,87.0,-82.0
126.0,127.0,127.0,127.0,127.0,127.0,113.0,128.0,24.0,-115.0,-71.0,127.0,127.0,127.0,119.0,87.0,-82.0
126.0,127.0,127.0,127.0,127.0,127.0,113.0,128.0,24.0,-115.0,-71.0,127.0,127.0,127.0,119.0,87.0,-82.0
126.0,127.0,127.0,127.0,127.0,127.0,113.0,128.0,24.0,-115.0,-71.0,127.0,127.0,127.0,119.0,87.0,-82.0
126.0,127.0,127.0,127.0,127.0,127.0,113.0,128.0,24.0,-115.0,-71.0,127.0,127.0,127.0,119.0,87.0,-82.0
126.0,127.0,127.0,127.0,127.0,127.0,113.0,128.0,24.0,-115.0,-71.0,127.0,127.0,127.0,119.0,87.0,-82.0
126.0,127.0,127.0,127.0,127.0,128.0,107.0,128.0,24.0,-115.0,-71.0,127.0,127.0,127.0,119.0,87.0,-82.0
127.0,127.0,127.0,127.0,127.0,128.0,108.0,128.0,24.0,-115.0,-71.0,127.0,127.0,127.0,119.0,87.0,-82.0
127.0,127.0,127.0,127.0,127.0,128.0,107.0,128.0,24.0,-115.0,-71.0,127.0,127.0,127.0,119.0,87.0,-82.0
126.0,127.0,127.0,127.0,127.0,128.0,107.0,128.0,24.0,-115.0,-71.0,127.0,127.0,127.0,119.0,87.0,-82.0
127.0,127.0,127.0,127.0,127.0,128.0,108.0,128.0,24.0,-115.0,-71.0,127.0,127.0,127.0,119.0,87.0,-82.0
127.0,127.0,127.0,127.0,127.0,128.0,108.0,128.0,24.0,-115.0,-71.0,127.0,127.0,127.0,119.0,87.0,-82.0
127.0,127.0,127.0,127.0,127.0,128.0,108.0,128.0,24.0,-115.0,-71.0,127.0,127.0,127.0,119.0,87.0,-82.0
127.0,127.0,127.0,127.0,127.0,128.0,108.0,128.0,24.0,-115.0,-71.0,127.0,127.0,127.0,119.0,87.0,-82.0
126.0,127.0,127.0,127.0,127.0,128.0,107.0,128.0,24.0,-115.0,-71.0,127.0,127.0,127.0,119.0,87.0,-82.0
126.0,127.0,127.0,127.0,127.0,128.0,107.0,128.0,24.0,-115.0,-71.0,127.0,127.0,127.0,119.0,87.0,-82.0
126.0,127.0,128.0,127.0,127.0,127.0,112.0,128.0,24.0,-115.0,-71.0,127.0,127.0,127.0,119.0,87.0,-82.0
126.0,127.0,127.0,127.0,127.0,127.0,113.0,128.0,24.0,-115.0,-71.0,127.0,127.0,127.0,119.0,87.0,-82.0
126.0,127.0,127.0,127.0,127.0,127.0,113.0,128.0,24.0,-115.0,-71.0,127.0,127.0,127.0,119.0,87.0,-82.0
126.0,127.0,127.0,127.0,127.0,127.0,112.0,128.0,24.0,-115.0,-71.0,127.0,127.0,127.0,119.0,87.0,-82.0
126.0,127.0,127.0,127.0,127.0,127.0,112.0,128.0,24.0,-115.0,-71.0,127.0,127.0,127.0,119.0,87.0,-82.0
126.0,127.0,127.0,127.0,127.0,127.0,112.0,128.0,24.0,-115.0,-71.0,127.0,127.0,127.0,119.0,87.0,-82.0
126.0,127.0,127.0,127.0,127.0,127.0,113.0,128.0,24.0,-115.0,-71.0,127.0,127.0,127.0,119.0,87.0,-82.0
126.0,127.0,127.0,127.0,127.0,127.0,112.0,128.0,24.0,-115.0,-71.0,127.0,127.0,127.0,119.0,87.0,-82.0
126.0,127.0,127.0,127.0,127.0,127.0,112.0,128.0,24.0,-115.0,-71.0,127.0,127.0,127.0,119.0,87.0,-82.0
126.0,127.0,127.0,127.0,127.0,127.0,112.0,128.0,24.0,-115.0,-71.0,127.0,127.0,127.0,119.0,87.0,-82.0
127.0,127.0,128.0,126.0,126.0,128.0,107.0,128.0,24.0,-115.0,-71.0,127.0,127.0,127.0,119.0,87.0,-82.0
127.0,127.0,128.0,126.0,126.0,128.0,107.0,128.0,24.0,-115.0,-71.0,127.0,127.0,127.0,119.0,87.0,-82.0
127.0,127.0,128.0,126.0,126.0,128.0,107.0,128.0,24.0,-115.0,-71.0,127.0,127.0,127.0,119.0,87.0,-82.0
127.0,127.0,128.0,126.0,126.0,128.0,107.0,128.0,24.0,-115.0,-71.0,127.0,127.0,127.0,119.0,87.0,-82.0
127.0,127.0,128.0,126.0,126.0,128.0,107.0,128.0,24.0,-115.0,-71.0,127.0,127.0,127.0,119.0,87.0,-82.0
127.0,127.0,128.0,126.0,126.0,127.0,106.0,128.0,24.0,-115.0,-71.0,127.0,127.0,127.0,119.0,87.0,-82.0
127.0,127.0,128.0,126.0,125.0,127.0,106.0,128.0,24.0,-115.0,-71.0,127.0,127.0,127.0,119.0,87.0,-82.0
127.0,127.0,128.0,126.0,126.0,127.0,107.0,128.0,24.0,-115.0,-71.0,127.0,127.0,127.0,119.0,87.0,-82.0
127.0,127.0,128.0,126.0,126.0,127.0,106.0,128.0,24.0,-115.0,-71.0,127.0,127.0,127.0,119.0,87.0,-82.0
127.0,127.0,127.0,126.0,126.0,128.0,107.0,128.0,24.0,-115.0,-71.0,127.0,127.0,127.0,119.0,87.0,-82.0
126.0,126.0,128.0,129.0,128.0,127.0,108.0,128.0,24.0,-115.0,-71.0,127.0,127.0,127.0,119.0,87.0,-82.0
126.0,126.0,128.0,129.0,128.0,127.0,110.0,128.0,24.0,-115.0,-71.0,127.0,127.0,127.0,119.0,87.0,-82.0
126.0,126.0,128.0,129.0,128.0,127.0,107.0,128.0,24.0,-115.0,-71.0,127.0,127.0,127.0,119.0,87.0,-82.0
126.0,126.0,128.0,129.0,128.0,127.0,107.0,128.0,24.0,-115.0,-71.0,127.0,127.0,127.0,119.0,87.0,-82.0
126.0,126.0,128.0,129.0,128.0,127.0,106.0,128.0,24.0,-115.0,-71.0,127.0,127.0,127.0,119.0,87.0,-82.0
126.0,126.0,129.0,129.0,128.0,128.0,106.0,128.0,24.0,-115.0,-71.0,127.0,127.0,127.0,119.0,87.0,-82.0
126.0,126.0,129.0,129.0,127.0,127.0,107.0,128.0,24.0,-115.0,-71.0,127.0,127.0,127.0,119.0,87.0,-82.0
126.0,126.0,129.0,128.0,127.0,127.0,106.0,128.0,24.0,-115.0,-71.0,127.0,127.0,127.0,119.0,87.0,-82.0
126.0,126.0,128.0,128.0,128.0,127.0,106.0,128.0,24.0,-115.0,-71.0,127.0,127.0,127.0,119.0,87.0,-82.0
126.0,126.0,128.0,128.0,128.0,127.0,109.0,128.0,24.0,-115.0,-71.0,127.0,127.0,127.0,119.0,87.0,-82.0
126.0,124.0,127.0,128.0,127.0,127.0,106.0,127.0,24.0,-115.0,-71.0,127.0,127.0,127.0,119.0,87.0,-82.0
126.0,124.0,127.0,128.0,127.0,127.0,106.0,128.0,24.0,-115.0,-71.0,127.0,127.0,127.0,119.0,87.0,-82.0
125.0,124.0,127.0,128.0,127.0,127.0,106.0,128.0,24.0,-115.0,-71.0,127.0,127.0,127.0,119.0,87.0,-82.0
125.0,124.0,127.0,128.0,127.0,127.0,106.0,128.0,24.0,-115.0,-71.0,127.0,127.0,127.0,119.0,87.0,-82.0
125.0,124.0,127.0,128.0,126.0,127.0,106.0,128.0,24.0,-115.0,-71.0,127.0,127.0,127.0,119.0,87.0,-82.0
125.0,124.0,127.0,128.0,126.0,127.0,108.0,128.0,24.0,-115.0,-71.0,127.0,127.0,127.0,119.0,87.0,-82.0
125.0,124.0,127.0,128.0,126.0,127.0,110.0,128.0,24.0,-115.0,-71.0,127.0,127.0,127.0,119.0,87.0,-82.0
126.0,125.0,127.0,129.0,127.0,127.0,108.0,127.0,24.0,-115.0,-71.0,127.0,127.0,127.0,119.0,87.0,-82.0
126.0,125.0,127.0,129.0,127.0,127.0,106.0,127.0,24.0,-115.0,-71.0,127.0,127.0,127.0,119.0,87.0,-82.0
126.0,125.0,127.0,129.0,127.0,127.0,106.0,127.0,24.0,-115.0,-71.0,127.0,127.0,127.0,119.0,87.0,-82.0
125.0,123.0,121.0,131.0,128.0,128.0,107.0,127.0,24.0,-115.0,-71.0,127.0,127.0,127.0,119.0,87.0,-82.0
125.0,123.0,121.0,132.0,128.0,128.0,107.0,127.0,24.0,-115.0,-71.0,127.0,127.0,127.0,119.0,87.0,-82.0
125.0,123.0,121.0,132.0,129.0,128.0,107.0,127.0,24.0,-115.0,-71.0,127.0,127.0,127.0,119.0,87.0,-82.0
125.0,124.0,120.0,132.0,129.0,128.0,107.0,127.0,24.0,-115.0,-71.0,127.0,127.0,127.0,119.0,87.0,-82.0
125.0,124.0,120.0,132.0,129.0,128.0,107.0,127.0,24.0,-115.0,-71.0,127.0,127.0,127.0,119.0,87.0,-82.0
125.0,125.0,120.0,132.0,129.0,128.0,107.0,127.0,24.0,-115.0,-71.0,127.0,127.0,127.0,119.0,87.0,-82.0
125.0,124.0,122.0,131.0,128.0,127.0,107.0,127.0,24.0,-115.0,-71.0,127.0,127.0,127.0,119.0,87.0,-82.0
125.0,124.0,122.0,131.0,128.0,127.0,106.0,127.0,24.0,-115.0,-71.0,127.0,127.0,127.0,119.0,87.0,-82.0
125.0,124.0,122.0,131.0,128.0,127.0,107.0,127.0,24.0,-115.0,-71.0,127.0,127.0,127.0,119.0,87.0,-82.0
125.0,123.0,121.0,131.0,128.0,127.0,106.0,127.0,24.0,-115.0,-71.0,127.0,127.0,127.0,119.0,87.0,-82.0
127.0,129.0,132.0,133.0,129.0,130.0,111.0,127.0,24.0,-115.0,-70.0,127.0,127.0,127.0,119.0,87.0,-82.0
127.0,129.0,132.0,133.0,129.0,130.0,111.0,127.0,24.0,-115.0,-70.0,127.0,127.0,127.0,119.0,87.0,-82.0
127.0,129.0,133.0,133.0,129.0,130.0,111.0,127.0,24.0,-115.0,-70.0,127.0,127.0,127.0,119.0,87.0,-82.0
127.0,129.0,133.0,133.0,129.0,130.0,111.0,127.0,24.0,-115.0,-70.0,127.0,127.0,127.0,119.0,87.0,-82.0
128.0,129.0,134.0,133.0,129.0,130.0,111.0,127.0,24.0,-115.0,-70.0,127.0,127.0,127.0,119.0,87.0,-82.0
126.0,127.0,129.0,131.0,128.0,130.0,110.0,126.0,24.0,-115.0,-70.0,127.0,127.0,127.0,119.0,87.0,-82.0
126.0,128.0,130.0,131.0,128.0,130.0,111.0,126.0,24.0,-115.0,-70.0,127.0,127.0,127.0,119.0,87.0,-82.0
126.0,128.0,130.0,131.0,128.0,130.0,111.0,127.0,24.0,-115.0,-70.0,127.0,127.0,127.0,119.0,87.0,-82.0
127.0,129.0,130.0,132.0,128.0,130.0,111.0,127.0,24.0,-115.0,-70.0,127.0,127.0,127.0,119.0,87.0,-82.0
127.0,129.0,131.0,132.0,128.0,130.0,111.0,127.0,24.0,-115.0,-70.0,127.0,127.0,127.0,119.0,87.0,-82.0
126.0,124.0,163.0,137.0,129.0,127.0,106.0,118.0,25.0,-115.0,-71.0,127.0,127.0,127.0,119.0,87.0,-82.0
127.0,126.0,165.0,137.0,129.0,127.0,106.0,119.0,25.0,-115.0,-71.0,127.0,127.0,127.0,119.0,87.0,-82.0
127.0,126.0,167.0,137.0,130.0,127.0,107.0,120.0,25.0,-115.0,-71.0,127.0,127.0,127.0,119.0,87.0,-82.0
127.0,127.0,169.0,137.0,130.0,127.0,110.0,121.0,25.0,-115.0,-71.0,127.0,127.0,127.0,119.0,87.0,-82.0
124.0,119.0,152.0,133.0,127.0,127.0,107.0,119.0,25.0,-115.0,-71.0,127.0,127.0,127.0,119.0,87.0,-82.0
125.0,119.0,153.0,134.0,128.0,128.0,107.0,119.0,25.0,-115.0,-71.0,127.0,127.0,127.0,119.0,87.0,-82.0
125.0,119.0,154.0,135.0,128.0,128.0,107.0,118.0,25.0,-115.0,-71.0,127.0,127.0,127.0,119.0,87.0,-82.0
125.0,119.0,155.0,135.0,128.0,128.0,107.0,118.0,25.0,-115.0,-71.0,127.0,127.0,127.0,119.0,87.0,-82.0
126.0,120.0,157.0,136.0,128.0,127.0,106.0,118.0,25.0,-115.0,-71.0,127.0,127.0,127.0,119.0,87.0,-82.0
126.0,122.0,160.0,136.0,129.0,127.0,106.0,118.0,25.0,-115.0,-71.0,127.0,127.0,127.0,119.0,87.0,-82.0
136.0,129.0,201.0,134.0,128.0,126.0,110.0,131.0,25.0,-116.0,-72.0,127.0,127.0,127.0,119.0,87.0,-82.0
136.0,128.0,202.0,134.0,128.0,125.0,111.0,131.0,25.0,-116.0,-72.0,127.0,127.0,127.0,119.0,87.0,-82.0
136.0,128.0,203.0,133.0,128.0,126.0,111.0,132.0,25.0,-116.0,-72.0,127.0,127.0,127.0,119.0,87.0,-82.0
134.0,133.0,200.0,132.0,127.0,124.0,109.0,123.0,25.0,-116.0,-72.0,127.0,127.0,127.0,119.0,87.0,-82.0
134.0,133.0,201.0,133.0,127.0,125.0,110.0,125.0,25.0,-116.0,-72.0,127.0,127.0,127.0,119.0,87.0,-82.0
135.0,133.0,201.0,133.0,127.0,125.0,110.0,126.0,25.0,-116.0,-72.0,127.0,127.0,127.0,119.0,87.0,-82.0
135.0,132.0,201.0,134.0,128.0,125.0,109.0,127.0,25.0,-116.0,-72.0,127.0,127.0,127.0,119.0,87.0,-82.0
135.0,132.0,201.0,134.0,128.0,125.0,110.0,129.0,25.0,-116.0,-72.0,127.0,127.0,127.0,119.0,87.0,-82.0
136.0,131.0,201.0,134.0,128.0,126.0,111.0,130.0,25.0,-116.0,-72.0,127.0,127.0,127.0,119.0,87.0,-82.0
136.0,130.0,201.0,134.0,128.0,126.0,111.0,130.0,25.0,-116.0,-72.0,127.0,127.0,127.0,119.0,87.0,-82.0
150.0,130.0,215.0,135.0,130.0,127.0,113.0,132.0,25.0,-116.0,-73.0,-128.0,127.0,127.0,119.0,87.0,-82.0
150.0,128.0,212.0,135.0,130.0,127.0,112.0,131.0,25.0,-116.0,-73.0,-128.0,127.0,127.0,119.0,87.0,-82.0
149.0,136.0,235.0,137.0,131.0,126.0,111.0,134.0,25.0,-116.0,-73.0,-128.0,127.0,127.0,119.0,87.0,-82.0
149.0,135.0,233.0,137.0,130.0,126.0,111.0,134.0,25.0,-116.0,-73.0,-128.0,127.0,127.0,119.0,87.0,-82.0
149.0,134.0,231.0,136.0,130.0,126.0,111.0,134.0,25.0,-116.0,-73.0,-128.0,127.0,127.0,119.0,87.0,-82.0
149.0,133.0,229.0,136.0,130.0,126.0,111.0,134.0,25.0,-116.0,-73.0,-128.0,127.0,127.0,119.0,87.0,-82.0
149.0,132.0,226.0,136.0,130.0,126.0,112.0,134.0,25.0,-116.0,-73.0,-128.0,127.0,127.0,119.0,87.0,-82.0
150.0,131.0,224.0,135.0,130.0,126.0,112.0,133.0,25.0,-116.0,-73.0,-128.0,127.0,127.0,119.0,87.0,-82.0
150.0,130.0,221.0,135.0,130.0,126.0,112.0,133.0,25.0,-116.0,-73.0,-128.0,127.0,127.0,119.0,87.0,-82.0
150.0,130.0,218.0,135.0,130.0,126.0,112.0,132.0,25.0,-116.0,-73.0,-128.0,127.0,127.0,119.0,87.0,-82.0
141.0,123.0,128.0,132.0,131.0,128.0,107.0,123.0,25.0,-116.0,-73.0,-128.0,127.0,127.0,119.0,87.0,-82.0
141.0,121.0,131.0,133.0,130.0,126.0,113.0,126.0,25.0,-116.0,-73.0,-128.0,127.0,127.0,119.0,87.0,-82.0
141.0,119.0,129.0,133.0,130.0,127.0,112.0,124.0,25.0,-116.0,-73.0,-128.0,127.0,127.0,119.0,87.0,-82.0
141.0,118.0,126.0,132.0,129.0,127.0,112.0,124.0,25.0,-116.0,-73.0,-128.0,127.0,127.0,119.0,87.0,-82.0
140.0,117.0,124.0,131.0,129.0,126.0,113.0,123.0,25.0,-116.0,-73.0,-128.0,127.0,127.0,119.0,87.0,-82.0
140.0,117.0,123.0,131.0,129.0,126.0,112.0,122.0,25.0,-116.0,-73.0,-128.0,127.0,127.0,119.0,87.0,-82.0
140.0,117.0,122.0,131.0,129.0,126.0,112.0,122.0,25.0,-116.0,-73.0,-128.0,127.0,127.0,119.0,87.0,-82.0
140.0,119.0,124.0,131.0,130.0,127.0,112.0,122.0,25.0,-116.0,-73.0,-128.0,127.0,127.0,119.0,87.0,-82.0
141.0,120.0,125.0,131.0,130.0,127.0,111.0,121.0,25.0,-116.0,-73.0,-128.0,127.0,127.0,119.0,87.0,-82.0
141.0,122.0,127.0,131.0,130.0,128.0,107.0,122.0,25.0,-116.0,-73.0,-128.0,127.0,127.0,119.0,87.0,-82.0
137.0,140.0,96.0,140.0,134.0,127.0,107.0,137.0,24.0,-117.0,-73.0,-128.0,127.0,127.0,119.0,87.0,-82.0
137.0,139.0,98.0,140.0,134.0,127.0,106.0,135.0,24.0,-117.0,-73.0,-128.0,127.0,127.0,119.0,87.0,-82.0
136.0,138.0,100.0,140.0,133.0,127.0,108.0,134.0,24.0,-117.0,-73.0,-128.0,127.0,127.0,119.0,87.0,-82.0
136.0,136.0,99.0,139.0,133.0,127.0,111.0,132.0,24.0,-117.0,-73.0,-128.0,127.0,127.0,119.0,87.0,-82.0
135.0,134.0,99.0,138.0,133.0,127.0,112.0,130.0,24.0,-117.0,-73.0,-128.0,127.0,127.0,119.0,87.0,-82.0
134.0,131.0,98.0,138.0,132.0,127.0,113.0,129.0,24.0,-117.0,-73.0,-128.0,127.0,127.0,119.0,87.0,-82.0
134.0,128.0,97.0,137.0,132.0,126.0,112.0,128.0,24.0,-117.0,-73.0,-128.0,127.0,127.0,119.0,87.0,-82.0
133.0,126.0,96.0,136.0,132.0,126.0,111.0,126.0,24.0,-117.0,-73.0,-128.0,127.0,127.0,119.0,87.0,-82.0
132.0,123.0,96.0,136.0,131.0,125.0,111.0,126.0,24.0,-117.0,-73.0,-128.0,127.0,127.0,119.0,87.0,-82.0
131.0,120.0,96.0,135.0,131.0,125.0,110.0,125.0,24.0,-117.0,-73.0,-128.0,127.0,127.0,119.0,87.0,-82.0
128.0,125.0,115.0,138.0,129.0,122.0,104.0,135.0,23.0,-118.0,-73.0,-128.0,127.0,127.0,119.0,87.0,-82.0
127.0,125.0,115.0,138.0,129.0,122.0,104.0,135.0,23.0,-118.0,-73.0,-128.0,127.0,127.0,119.0,87.0,-82.0
127.0,124.0,115.0,138.0,129.0,122.0,104.0,135.0,23.0,-118.0,-73.0,-128.0,127.0,127.0,119.0,87.0,-82.0
126.0,123.0,114.0,138.0,129.0,121.0,103.0,136.0,23.0,-118.0,-73.0,-128.0,127.0,127.0,119.0,87.0,-82.0
125.0,122.0,112.0,138.0,128.0,122.0,104.0,136.0,23.0,-118.0,-73.0,-128.0,127.0,127.0,119.0,87.0,-82.0
125.0,121.0,110.0,138.0,129.0,122.0,104.0,136.0,23.0,-118.0,-73.0,-128.0,127.0,127.0,119.0,87.0,-82.0
124.0,120.0,109.0,138.0,129.0,122.0,104.0,136.0,23.0,-118.0,-73.0,-128.0,127.0,127.0,119.0,87.0,-82.0
124.0,120.0,108.0,138.0,128.0,122.0,105.0,136.0,23.0,-118.0,-73.0,-128.0,127.0,127.0,119.0,87.0,-82.0
123.0,121.0,109.0,139.0,128.0,122.0,105.0,136.0,23.0,-118.0,-73.0,-128.0,127.0,127.0,119.0,87.0,-82.0
128.0,126.0,114.0,137.0,129.0,122.0,104.0,135.0,23.0,-118.0,-73.0,-128.0,127.0,127.0,119.0,87.0,-82.0
126.0,139.0,91.0,139.0,128.0,122.0,105.0,149.0,23.0,-118.0,-72.0,-128.0,127.0,127.0,119.0,87.0,-82.0
126.0,139.0,92.0,140.0,128.0,122.0,105.0,150.0,23.0,-118.0,-72.0,-128.0,127.0,127.0,119.0,87.0,-82.0
126.0,139.0,92.0,140.0,128.0,123.0,105.0,151.0,23.0,-118.0,-72.0,-128.0,127.0,127.0,119.0,87.0,-82.0
125.0,140.0,91.0,140.0,129.0,123.0,105.0,152.0,23.0,-118.0,-72.0,-128.0,127.0,127.0,119.0,87.0,-82.0
125.0,140.0,91.0,140.0,129.0,123.0,105.0,152.0,23.0,-118.0,-72.0,-128.0,127.0,127.0,119.0,87.0,-82.0
125.0,140.0,90.0,139.0,129.0,122.0,105.0,151.0,23.0,-118.0,-72.0,-128.0,127.0,127.0,119.0,87.0,-82.0
124.0,140.0,89.0,139.0,129.0,123.0,105.0,151.0,23.0,-118.0,-72.0,-128.0,127.0,127.0,119.0,87.0,-82.0
124.0,139.0,88.0,139.0,128.0,122.0,105.0,150.0,23.0,-118.0,-72.0,-128.0,127.0,127.0,119.0,87.0,-82.0
126.0,138.0,92.0,139.0,127.0,122.0,104.0,148.0,23.0,-118.0,-72.0,-128.0,127.0,127.0,119.0,87.0,-82.0
126.0,138.0,92.0,139.0,127.0,122.0,104.0,148.0,23.0,-118.0,-72.0,-128.0,127.0,127.0,119.0,87.0,-82.0
135.0,138.0,99.0,139.0,126.0,118.0,105.0,148.0,23.0,-116.0,-71.0,-128.0,127.0,127.0,119.0,87.0,-82.0
135.0,136.0,99.0,139.0,126.0,118.0,104.0,148.0,23.0,-116.0,-71.0,-128.0,127.0,127.0,119.0,87.0,-82.0
135.0,134.0,100.0,140.0,127.0,118.0,105.0,149.0,23.0,-116.0,-71.0,-128.0,127.0,127.0,119.0,87.0,-82.0
135.0,134.0,101.0,140.0,127.0,118.0,105.0,150.0,23.0,-116.0,-71.0,-128.0,127.0,127.0,119.0,87.0,-82.0
136.0,134.0,103.0,141.0,128.0,118.0,105.0,151.0,23.0,-116.0,-71.0,-128.0,127.0,127.0,119.0,87.0,-82.0
136.0,135.0,105.0,141.0,128.0,118.0,105.0,151.0,23.0,-116.0,-71.0,-128.0,127.0,127.0,119.0,87.0,-82.0
134.0,144.0,96.0,139.0,127.0,118.0,105.0,147.0,23.0,-116.0,-71.0,-128.0,127.0,127.0,119.0,87.0,-82.0
134.0,143.0,98.0,139.0,127.0,118.0,105.0,147.0,23.0,-116.0,-71.0,-128.0,127.0,127.0,119.0,87.0,-82.0
134.0,142.0,100.0,139.0,126.0,118.0,104.0,148.0,23.0,-116.0,-71.0,-128.0,127.0,127.0,119.0,87.0,-82.0
135.0,140.0,100.0,139.0,126.0,118.0,105.0,148.0,23.0,-116.0,-71.0,-128.0,127.0,127.0,119.0,87.0,-82.0
133.0,141.0,189.0,131.0,123.0,121.0,103.0,134.0,21.0,-112.0,-69.0,-128.0,127.0,127.0,119.0,87.0,-82.0
133.0,140.0,191.0,131.0,123.0,121.0,103.0,134.0,21.0,-112.0,-69.0,-128.0,127.0,127.0,119.0,87.0,-82.0
133.0,139.0,192.0,130.0,123.0,121.0,103.0,134.0,21.0,-112.0,-69.0,-128.0,127.0,127.0,119.0,87.0,-82.0
133.0,137.0,192.0,130.0,122.0,121.0,103.0,135.0,21.0,-112.0,-69.0,-128.0,127.0,127.0,119.0,87.0,-82.0
133.0,136.0,192.0,129.0,122.0,121.0,103.0,136.0,21.0,-112.0,-69.0,-128.0,127.0,127.0,119.0,87.0,-82.0
133.0,137.0,175.0,132.0,123.0,119.0,100.0,134.0,21.0,-112.0,-69.0,-128.0,127.0,127.0,119.0,87.0,-82.0
133.0,137.0,177.0,132.0,123.0,120.0,100.0,134.0,21.0,-112.0,-69.0,-128.0,127.0,127.0,119.0,87.0,-82.0
133.0,138.0,179.0,132.0,123.0,120.0,101.0,134.0,21.0,-112.0,-69.0,-128.0,127.0,127.0,119.0,87.0,-82.0
133.0,140.0,182.0,132.0,123.0,121.0,102.0,134.0,21.0,-112.0,-69.0,-128.0,127.0,127.0,119.0,87.0,-82.0
133.0,140.0,186.0,132.0,123.0,121.0,102.0,134.0,21.0,-112.0,-69.0,-128.0,127.0,127.0,119.0,87.0,-82.0
127.0,139.0,193.0,134.0,122.0,122.0,105.0,130.0,19.0,-107.0,-65.0,-128.0,126.0,127.0,119.0,87.0,-82.0
127.0,139.0,193.0,134.0,122.0,122.0,104.0,133.0,19.0,-107.0,-65.0,-128.0,126.0,127.0,119.0,87.0,-82.0
127.0,139.0,193.0,135.0,122.0,121.0,104.0,135.0,19.0,-107.0,-65.0,-128.0,126.0,127.0,119.0,87.0,-82.0
127.0,138.0,192.0,135.0,122.0,121.0,104.0,138.0,19.0,-107.0,-65.0,-128.0,126.0,127.0,119.0,87.0,-82.0
128.0,135.0,188.0,133.0,123.0,123.0,106.0,126.0,19.0,-107.0,-65.0,-128.0,126.0,127.0,119.0,87.0,-82.0
128.0,135.0,189.0,133.0,123.0,123.0,106.0,126.0,19.0,-107.0,-65.0,-128.0,126.0,127.0,119.0,87.0,-82.0
128.0,136.0,190.0,133.0,123.0,122.0,105.0,126.0,19.0,-107.0,-65.0,-128.0,126.0,127.0,119.0,87.0,-82.0
128.0,136.0,191.0,133.0,122.0,122.0,105.0,126.0,19.0,-107.0,-65.0,-128.0,126.0,127.0,119.0,87.0,-82.0
127.0,137.0,192.0,134.0,122.0,122.0,105.0,127.0,19.0,-107.0,-65.0,-128.0,126.0,127.0,119.0,87.0,-82.0
127.0,138.0,192.0,134.0,122.0,122.0,105.0,128.0,19.0,-107.0,-65.0,-128.0,126.0,127.0,119.0,87.0,-82.0
126.0,130.0,129.0,133.0,122.0,123.0,105.0,136.0,20.0,-105.0,-63.0,-128.0,126.0,127.0,119.0,87.0,-82.0
125.0,129.0,129.0,133.0,123.0,123.0,105.0,136.0,20.0,-105.0,-63.0,-128.0,126.0,127.0,119.0,87.0,-82.0
125.0,127.0,129.0,133.0,123.0,122.0,106.0,135.0,20.0,-105.0,-63.0,-128.0,126.0,127.0,119.0,87.0,-82.0
125.0,132.0,121.0,130.0,120.0,123.0,106.0,140.0,20.0,-105.0,-63.0,-128.0,126.0,127.0,119.0,87.0,-82.0
125.0,132.0,121.0,130.0,121.0,123.0,106.0,139.0,20.0,-105.0,-63.0,-128.0,126.0,127.0,119.0,87.0,-82.0
126.0,133.0,122.0,131.0,121.0,123.0,106.0,139.0,20.0,-105.0,-63.0,-128.0,126.0,127.0,119.0,87.0,-82.0
126.0,133.0,124.0,131.0,121.0,123.0,106.0,138.0,20.0,-105.0,-63.0,-128.0,126.0,127.0,119.0,87.0,-82.0
126.0,133.0,125.0,131.0,121.0,123.0,106.0,137.0,20.0,-105.0,-63.0,-128.0,126.0,127.0,119.0,87.0,-82.0
126.0,132.0,126.0,131.0,122.0,123.0,106.0,137.0,20.0,-105.0,-63.0,-128.0,126.0,127.0,119.0,87.0,-82.0
126.0,131.0,128.0,132.0,122.0,123.0,106.0,136.0,20.0,-105.0,-63.0,-128.0,126.0,127.0,119.0,87.0,-82.0
127.0,123.0,97.0,134.0,127.0,127.0,107.0,137.0,22.0,-106.0,-63.0,-128.0,126.0,127.0,119.0,87.0,-82.0
127.0,124.0,96.0,134.0,126.0,127.0,106.0,137.0,22.0,-106.0,-63.0,-128.0,126.0,127.0,119.0,87.0,-82.0
126.0,126.0,94.0,132.0,125.0,125.0,109.0,132.0,22.0,-106.0,-63.0,-128.0,126.0,127.0,119.0,87.0,-82.0
126.0,125.0,94.0,133.0,125.0,125.0,109.0,134.0,22.0,-106.0,-63.0,-128.0,126.0,127.0,119.0,87.0,-82.0
126.0,124.0,94.0,133.0,125.0,125.0,110.0,135.0,22.0,-106.0,-63.0,-128.0,126.0,127.0,119.0,87.0,-82.0
126.0,123.0,94.0,134.0,126.0,126.0,111.0,136.0,22.0,-106.0,-63.0,-128.0,126.0,127.0,119.0,87.0,-82.0
126.0,123.0,94.0,134.0,126.0,126.0,112.0,137.0,22.0,-106.0,-63.0,-128.0,126.0,127.0,119.0,87.0,-82.0
126.0,123.0,96.0,134.0,126.0,127.0,112.0,137.0,22.0,-106.0,-63.0,-128.0,126.0,127.0,119.0,87.0,-82.0
127.0,123.0,98.0,134.0,127.0,127.0,112.0,138.0,22.0,-106.0,-63.0,-128.0,126.0,127.0,119.0,87.0,-82.0
127.0,122.0,98.0,134.0,127.0,127.0,111.0,138.0,22.0,-106.0,-63.0,-128.0,126.0,127.0,119.0,87.0,-82.0
125.0,129.0,88.0,130.0,125.0,129.0,109.0,125.0,24.0,-109.0,-66.0,-128.0,126.0,127.0,119.0,87.0,-82.0
124.0,129.0,92.0,130.0,125.0,130.0,110.0,116.0,24.0,-109.0,-66.0,-128.0,126.0,127.0,119.0,87.0,-82.0
124.0,128.0,92.0,130.0,125.0,129.0,110.0,117.0,24.0,-109.0,-66.0,-128.0,126.0,127.0,119.0,87.0,-82.0
124.0,128.0,91.0,130.0,125.0,129.0,110.0,119.0,24.0,-109.0,-66.0,-128.0,126.0,127.0,119.0,87.0,-82.0
124.0,128.0,90.0,130.0,125.0,129.0,110.0,121.0,24.0,-109.0,-66.0,-128.0,126.0,127.0,119.0,87.0,-82.0
125.0,128.0,89.0,130.0,125.0,129.0,109.0,122.0,24.0,-109.0,-66.0,-128.0,126.0,127.0,119.0,87.0,-82.0
125.0,128.0,89.0,130.0,125.0,129.0,109.0,123.0,24.0,-109.0,-66.0,-128.0,126.0,127.0,119.0,87.0,-82.0
125.0,128.0,89.0,130.0,125.0,129.0,109.0,123.0,24.0,-109.0,-66.0,-128.0,126.0,127.0,119.0,87.0,-82.0
125.0,129.0,89.0,130.0,125.0,129.0,109.0,124.0,24.0,-109.0,-66.0,-128.0,126.0,127.0,119.0,87.0,-82.0
125.0,129.0,89.0,130.0,125.0,129.0,109.0,124.0,24.0,-109.0,-66.0,-128.0,126.0,127.0,119.0,87.0,-82.0
121.0,122.0,86.0,127.0,125.0,130.0,111.0,122.0,25.0,-112.0,-69.0,-128.0,126.0,127.0,119.0,87.0,-82.0
121.0,122.0,88.0,128.0,125.0,130.0,111.0,122.0,25.0,-112.0,-69.0,-128.0,126.0,127.0,119.0,87.0,-82.0
121.0,123.0,89.0,128.0,125.0,130.0,111.0,122.0,25.0,-112.0,-69.0,-128.0,126.0,127.0,119.0,87.0,-82.0
121.0,124.0,91.0,128.0,125.0,130.0,110.0,122.0,25.0,-112.0,-69.0,-128.0,126.0,127.0,119.0,87.0,-82.0
121.0,125.0,92.0,128.0,125.0,130.0,110.0,122.0,25.0,-112.0,-69.0,-128.0,126.0,127.0,119.0,87.0,-82.0
121.0,126.0,91.0,128.0,125.0,129.0,110.0,122.0,25.0,-112.0,-69.0,-128.0,126.0,127.0,119.0,87.0,-82.0
120.0,126.0,89.0,128.0,125.0,129.0,109.0,122.0,25.0,-112.0,-69.0,-128.0,126.0,127.0,119.0,87.0,-82.0
120.0,126.0,87.0,128.0,125.0,129.0,109.0,122.0,25.0,-112.0,-69.0,-128.0,126.0,127.0,119.0,87.0,-82.0
120.0,126.0,85.0,129.0,125.0,129.0,109.0,122.0,25.0,-112.0,-69.0,-128.0,126.0,127.0,119.0,87.0,-82.0
120.0,126.0,82.0,129.0,125.0,129.0,109.0,123.0,25.0,-112.0,-69.0,-128.0,126.0,127.0,119.0,87.0,-82.0
120.0,128.0,81.0,127.0,125.0,128.0,107.0,121.0,26.0,-112.0,-70.0,-128.0,126.0,127.0,119.0,87.0,-82.0
121.0,128.0,81.0,128.0,125.0,128.0,107.0,121.0,26.0,-112.0,-70.0,-128.0,126.0,127.0,119.0,87.0,-82.0
121.0,128.0,82.0,129.0,125.0,128.0,107.0,122.0,26.0,-112.0,-70.0,-128.0,126.0,127.0,119.0,87.0,-82.0
122.0,128.0,82.0,129.0,125.0,128.0,107.0,121.0,26.0,-112.0,-70.0,-128.0,126.0,127.0,119.0,87.0,-82.0
122.0,128.0,81.0,129.0,125.0,127.0,107.0,121.0,26.0,-112.0,-70.0,-128.0,126.0,127.0,119.0,87.0,-82.0
122.0,127.0,79.0,129.0,125.0,127.0,107.0,120.0,26.0,-112.0,-70.0,-128.0,126.0,127.0,119.0,87.0,-82.0
122.0,126.0,77.0,129.0,125.0,127.0,112.0,119.0,26.0,-112.0,-70.0,-128.0,126.0,127.0,119.0,87.0,-82.0
122.0,125.0,75.0,129.0,125.0,126.0,113.0,118.0,26.0,-112.0,-70.0,-128.0,126.0,127.0,119.0,87.0,-82.0
121.0,124.0,73.0,128.0,125.0,126.0,112.0,118.0,26.0,-112.0,-70.0,-128.0,126.0,127.0,119.0,87.0,-82.0
120.0,128.0,82.0,127.0,125.0,128.0,108.0,119.0,26.0,-112.0,-70.0,-128.0,126.0,127.0,119.0,87.0,-82.0
122.0,123.0,96.0,126.0,126.0,128.0,107.0,121.0,28.0,-112.0,-71.0,127.0,126.0,127.0,119.0,87.0,-82.0
122.0,123.0,98.0,127.0,125.0,128.0,108.0,121.0,28.0,-112.0,-71.0,127.0,126.0,127.0,119.0,87.0,-82.0
122.0,123.0,101.0,128.0,125.0,129.0,109.0,121.0,28.0,-112.0,-71.0,127.0,126.0,127.0,119.0,87.0,-82.0
122.0,123.0,103.0,128.0,126.0,129.0,109.0,121.0,28.0,-112.0,-71.0,127.0,126.0,127.0,119.0,87.0,-82.0
123.0,122.0,103.0,128.0,126.0,129.0,109.0,122.0,28.0,-112.0,-71.0,127.0,126.0,127.0,119.0,87.0,-82.0
123.0,122.0,104.0,129.0,126.0,129.0,108.0,122.0,28.0,-112.0,-71.0,127.0,126.0,127.0,119.0,87.0,-82.0
124.0,122.0,104.0,129.0,126.0,129.0,109.0,123.0,28.0,-112.0,-71.0,127.0,126.0,127.0,119.0,87.0,-82.0
124.0,122.0,102.0,128.0,126.0,129.0,109.0,123.0,28.0,-112.0,-71.0,127.0,126.0,127.0,119.0,87.0,-82.0
122.0,123.0,96.0,127.0,127.0,128.0,108.0,121.0,28.0,-112.0,-71.0,127.0,126.0,127.0,119.0,87.0,-82.0
122.0,123.0,95.0,126.0,126.0,128.0,108.0,121.0,28.0,-112.0,-71.0,127.0,126.0,127.0,119.0,87.0,-82.0
123.0,128.0,104.0,126.0,126.0,128.0,107.0,116.0,29.0,-113.0,-71.0,127.0,126.0,127.0,119.0,87.0,-82.0
123.0,128.0,104.0,126.0,126.0,128.0,107.0,119.0,29.0,-113.0,-71.0,127.0,126.0,127.0,119.0,87.0,-82.0
123.0,128.0,105.0,126.0,126.0,127.0,107.0,121.0,29.0,-113.0,-71.0,127.0,126.0,127.0,119.0,87.0,-82.0
123.0,127.0,107.0,126.0,125.0,127.0,107.0,123.0,29.0,-113.0,-71.0,127.0,126.0,127.0,119.0,87.0,-82.0
123.0,127.0,108.0,126.0,125.0,127.0,106.0,124.0,29.0,-113.0,-71.0,127.0,126.0,127.0,119.0,87.0,-82.0
123.0,127.0,108.0,126.0,125.0,127.0,107.0,125.0,29.0,-113.0,-71.0,127.0,126.0,127.0,119.0,87.0,-82.0
123.0,126.0,109.0,127.0,125.0,127.0,112.0,125.0,29.0,-113.0,-71.0,127.0,126.0,127.0,119.0,87.0,-82.0
122.0,124.0,109.0,127.0,125.0,128.0,106.0,109.0,29.0,-113.0,-71.0,127.0,126.0,127.0,119.0,87.0,-82.0
122.0,125.0,107.0,127.0,125.0,127.0,106.0,111.0,29.0,-113.0,-71.0,127.0,126.0,127.0,119.0,87.0,-82.0
122.0,126.0,106.0,126.0,126.0,127.0,106.0,113.0,29.0,-113.0,-71.0,127.0,126.0,127.0,119.0,87.0,-82.0
125.0,128.0,110.0,129.0,127.0,128.0,107.0,122.0,29.0,-112.0,-72.0,127.0,127.0,127.0,119.0,87.0,-82.0
125.0,128.0,111.0,129.0,127.0,128.0,107.0,122.0,29.0,-112.0,-72.0,127.0,127.0,127.0,119.0,87.0,-82.0
125.0,127.0,112.0,129.0,127.0,128.0,108.0,122.0,29.0,-112.0,-72.0,127.0,127.0,127.0,119.0,87.0,-82.0
124.0,127.0,114.0,129.0,127.0,128.0,108.0,122.0,29.0,-112.0,-72.0,127.0,127.0,127.0,119.0,87.0,-82.0
124.0,127.0,117.0,129.0,127.0,128.0,107.0,122.0,29.0,-112.0,-72.0,127.0,127.0,127.0,119.0,87.0,-82.0
124.0,127.0,119.0,129.0,127.0,128.0,107.0,123.0,29.0,-112.0,-72.0,127.0,127.0,127.0,119.0,87.0,-82.0
125.0,128.0,113.0,129.0,127.0,128.0,108.0,124.0,29.0,-112.0,-72.0,127.0,127.0,127.0,119.0,87.0,-82.0
125.0,129.0,112.0,129.0,127.0,128.0,108.0,124.0,29.0,-112.0,-72.0,127.0,127.0,127.0,119.0,87.0,-82.0
125.0,129.0,111.0,129.0,127.0,128.0,108.0,123.0,29.0,-112.0,-72.0,127.0,127.0,127.0,119.0,87.0,-82.0
125.0,128.0,111.0,129.0,127.0,128.0,107.0,123.0,29.0,-112.0,-72.0,127.0,127.0,127.0,119.0,87.0,-82.0
125.0,123.0,117.0,128.0,127.0,128.0,108.0,116.0,29.0,-112.0,-73.0,127.0,127.0,127.0,119.0,87.0,-82.0
125.0,124.0,117.0,129.0,127.0,128.0,107.0,116.0,29.0,-112.0,-73.0,127.0,127.0,127.0,119.0,87.0,-82.0
125.0,125.0,117.0,128.0,127.0,128.0,107.0,116.0,29.0,-112.0,-73.0,127.0,127.0,127.0,119.0,87.0,-82.0
125.0,126.0,117.0,128.0,127.0,128.0,107.0,117.0,29.0,-112.0,-73.0,127.0,127.0,127.0,119.0,87.0,-82.0
124.0,124.0,121.0,128.0,126.0,128.0,108.0,114.0,29.0,-112.0,-73.0,127.0,127.0,127.0,119.0,87.0,-82.0
124.0,124.0,121.0,128.0,126.0,128.0,108.0,114.0,29.0,-112.0,-73.0,127.0,127.0,127.0,119.0,87.0,-82.0
124.0,124.0,121.0,128.0,127.0,129.0,108.0,115.0,29.0,-112.0,-73.0,127.0,127.0,127.0,119.0,87.0,-82.0
124.0,124.0,120.0,128.0,127.0,128.0,108.0,116.0,29.0,-112.0,-73.0,127.0,127.0,127.0,119.0,87.0,-82.0
124.0,123.0,118.0,128.0,127.0,128.0,108.0,116.0,29.0,-112.0,-73.0,127.0,127.0,127.0,119.0,87.0,-82.0
124.0,123.0,117.0,128.0,127.0,128.0,108.0,116.0,29.0,-112.0,-73.0,127.0,127.0,127.0,119.0,87.0,-82.0
123.0,128.0,122.0,129.0,128.0,128.0,108.0,117.0,28.0,-111.0,-73.0,127.0,127.0,127.0,119.0,87.0,-82.0
124.0,127.0,120.0,128.0,128.0,128.0,108.0,121.0,28.0,-111.0,-73.0,127.0,127.0,127.0,119.0,87.0,-82.0
124.0,126.0,118.0,128.0,128.0,129.0,109.0,123.0,28.0,-111.0,-73.0,127.0,127.0,127.0,119.0,87.0,-82.0
122.0,129.0,127.0,129.0,127.0,127.0,108.0,108.0,28.0,-111.0,-73.0,127.0,127.0,127.0,119.0,87.0,-82.0
121.0,129.0,128.0,129.0,127.0,127.0,107.0,107.0,28.0,-111.0,-73.0,127.0,127.0,127.0,119.0,87.0,-82.0
122.0,129.0,127.0,129.0,128.0,128.0,107.0,107.0,28.0,-111.0,-73.0,127.0,127.0,127.0,119.0,87.0,-82.0
122.0,128.0,124.0,129.0,128.0,127.0,106.0,107.0,28.0,-111.0,-73.0,127.0,127.0,127.0,119.0,87.0,-82.0
122.0,128.0,123.0,129.0,128.0,128.0,106.0,108.0,28.0,-111.0,-73.0,127.0,127.0,127.0,119.0,87.0,-82.0
122.0,128.0,123.0,129.0,128.0,128.0,107.0,110.0,28.0,-111.0,-73.0,127.0,127.0,127.0,119.0,87.0,-82.0
123.0,128.0,123.0,129.0,128.0,128.0,108.0,113.0,28.0,-111.0,-73.0,127.0,127.0,127.0,119.0,87.0,-82.0
125.0,127.0,125.0,129.0,126.0,127.0,106.0,117.0,28.0,-111.0,-73.0,127.0,127.0,127.0,118.0,87.0,-82.0
125.0,127.0,126.0,129.0,126.0,127.0,106.0,117.0,28.0,-111.0,-73.0,127.0,127.0,127.0,118.0,87.0,-82.0
125.0,129.0,129.0,129.0,126.0,127.0,113.0,123.0,28.0,-111.0,-73.0,127.0,127.0,127.0,118.0,87.0,-82.0
125.0,129.0,128.0,129.0,126.0,127.0,111.0,122.0,28.0,-111.0,-73.0,127.0,127.0,127.0,118.0,87.0,-82.0
125.0,129.0,126.0,130.0,127.0,128.0,108.0,122.0,28.0,-111.0,-73.0,127.0,127.0,127.0,118.0,87.0,-82.0
125.0,128.0,124.0,130.0,127.0,128.0,107.0,120.0,28.0,-111.0,-73.0,127.0,127.0,127.0,118.0,87.0,-82.0
125.0,128.0,124.0,129.0,127.0,128.0,108.0,119.0,28.0,-111.0,-73.0,127.0,127.0,127.0,118.0,87.0,-82.0
125.0,128.0,124.0,129.0,127.0,128.0,108.0,118.0,28.0,-111.0,-73.0,127.0,127.0,127.0,118.0,87.0,-82.0
125.0,128.0,125.0,129.0,127.0,128.0,107.0,118.0,28.0,-111.0,-73.0,127.0,127.0,127.0,118.0,87.0,-82.0
125.0,128.0,125.0,129.0,127.0,128.0,107.0,117.0,28.0,-111.0,-73.0,127.0,127.0,127.0,118.0,87.0,-82.0
123.0,122.0,121.0,127.0,126.0,127.0,107.0,121.0,27.0,-110.0,-73.0,127.0,127.0,127.0,118.0,87.0,-82.0
126.0,126.0,125.0,129.0,127.0,128.0,108.0,120.0,27.0,-110.0,-73.0,127.0,127.0,127.0,118.0,87.0,-82.0
126.0,126.0,127.0,129.0,127.0,128.0,108.0,119.0,27.0,-110.0,-73.0,127.0,127.0,127.0,118.0,87.0,-82.0
127.0,126.0,127.0,129.0,128.0,129.0,108.0,119.0,27.0,-110.0,-73.0,127.0,127.0,127.0,118.0,87.0,-82.0
126.0,126.0,127.0,128.0,127.0,129.0,109.0,119.0,27.0,-110.0,-73.0,127.0,127.0,127.0,118.0,87.0,-82.0
126.0,125.0,126.0,128.0,127.0,129.0,109.0,119.0,27.0,-110.0,-73.0,127.0,127.0,127.0,118.0,87.0,-82.0
126.0,125.0,125.0,128.0,127.0,128.0,108.0,119.0,27.0,-110.0,-73.0,127.0,127.0,127.0,118.0,87.0,-82.0
125.0,124.0,125.0,127.0,126.0,128.0,108.0,119.0,27.0,-110.0,-73.0,127.0,127.0,127.0,118.0,87.0,-82.0
124.0,123.0,124.0,127.0,126.0,128.0,108.0,120.0,27.0,-110.0,-73.0,127.0,127.0,127.0,118.0,87.0,-82.0
124.0,122.0,122.0,127.0,126.0,128.0,107.0,120.0,27.0,-110.0,-73.0,127.0,127.0,127.0,118.0,87.0,-82.0
127.0,130.0,128.0,130.0,128.0,127.0,112.0,123.0,27.0,-109.0,-73.0,127.0,127.0,127.0,118.0,87.0,-82.0
127.0,129.0,129.0,130.0,128.0,127.0,112.0,122.0,27.0,-109.0,-73.0,127.0,127.0,127.0,118.0,87.0,-82.0
126.0,128.0,129.0,130.0,128.0,127.0,112.0,121.0,27.0,-109.0,-73.0,127.0,127.0,127.0,118.0,87.0,-82.0
126.0,127.0,129.0,130.0,128.0,127.0,112.0,120.0,27.0,-109.0,-73.0,127.0,127.0,127.0,118.0,87.0,-82.0
126.0,126.0,128.0,129.0,128.0,127.0,113.0,119.0,27.0,-109.0,-73.0,127.0,127.0,127.0,118.0,87.0,-82.0
126.0,125.0,125.0,129.0,128.0,127.0,109.0,119.0,27.0,-109.0,-73.0,127.0,127.0,127.0,118.0,87.0,-82.0
126.0,125.0,122.0,128.0,127.0,127.0,106.0,119.0,27.0,-109.0,-73.0,127.0,127.0,127.0,118.0,87.0,-82.0
125.0,124.0,119.0,128.0,127.0,127.0,110.0,119.0,27.0,-109.0,-73.0,127.0,127.0,127.0,118.0,87.0,-82.0
125.0,124.0,117.0,127.0,127.0,127.0,112.0,119.0,27.0,-109.0,-73.0,127.0,127.0,127.0,118.0,87.0,-82.0
125.0,125.0,117.0,127.0,126.0,126.0,112.0,120.0,27.0,-109.0,-73.0,127.0,127.0,127.0,118.0,87.0,-82.0
124.0,129.0,138.0,127.0,125.0,127.0,110.0,117.0,26.0,-109.0,-72.0,127.0,127.0,127.0,118.0,87.0,-82.0
124.0,129.0,137.0,127.0,125.0,127.0,112.0,117.0,26.0,-109.0,-72.0,127.0,127.0,127.0,118.0,87.0,-82.0
124.0,129.0,137.0,127.0,125.0,127.0,112.0,117.0,26.0,-109.0,-72.0,127.0,127.0,127.0,118.0,87.0,-82.0
124.0,129.0,136.0,126.0,125.0,127.0,113.0,116.0,26.0,-109.0,-72.0,127.0,127.0,127.0,118.0,87.0,-82.0
124.0,129.0,136.0,126.0,125.0,127.0,113.0,117.0,26.0,-109.0,-72.0,127.0,127.0,127.0,118.0,87.0,-82.0
124.0,128.0,135.0,125.0,126.0,127.0,111.0,117.0,26.0,-109.0,-72.0,127.0,127.0,127.0,118.0,87.0,-82.0
123.0,128.0,134.0,125.0,126.0,127.0,113.0,117.0,26.0,-109.0,-72.0,127.0,127.0,127.0,118.0,87.0,-82.0
123.0,127.0,134.0,125.0,126.0,126.0,113.0,118.0,26.0,-109.0,-72.0,127.0,127.0,127.0,118.0,87.0,-82.0
123.0,127.0,134.0,125.0,126.0,126.0,112.0,119.0,26.0,-109.0,-72.0,127.0,127.0,127.0,118.0,87.0,-82.0
124.0,129.0,140.0,127.0,125.0,127.0,108.0,118.0,26.0,-109.0,-72.0,127.0,127.0,127.0,118.0,87.0,-82.0
128.0,130.0,125.0,125.0,126.0,127.0,106.0,126.0,26.0,-109.0,-72.0,127.0,127.0,127.0,118.0,87.0,-82.0
128.0,129.0,123.0,125.0,126.0,127.0,106.0,126.0,26.0,-109.0,-72.0,127.0,127.0,127.0,118.0,87.0,-82.0
127.0,128.0,122.0,125.0,126.0,127.0,106.0,125.0,26.0,-109.0,-72.0,127.0,127.0,127.0,118.0,87.0,-82.0
127.0,127.0,122.0,125.0,126.0,127.0,106.0,125.0,26.0,-109.0,-72.0,127.0,127.0,127.0,118.0,87.0,-82.0
126.0,126.0,123.0,125.0,126.0,127.0,106.0,125.0,26.0,-109.0,-72.0,127.0,127.0,127.0,118.0,87.0,-82.0
126.0,126.0,122.0,126.0,126.0,127.0,106.0,125.0,26.0,-109.0,-72.0,127.0,127.0,127.0,118.0,87.0,-82.0
125.0,125.0,121.0,126.0,126.0,127.0,106.0,124.0,26.0,-109.0,-72.0,127.0,127.0,127.0,118.0,87.0,-82.0
125.0,125.0,121.0,126.0,127.0,128.0,107.0,124.0,26.0,-109.0,-72.0,127.0,127.0,127.0,118.0,87.0,-82.0
128.0,131.0,125.0,125.0,126.0,128.0,107.0,127.0,26.0,-109.0,-72.0,127.0,127.0,127.0,118.0,87.0,-82.0
128.0,131.0,125.0,125.0,126.0,127.0,106.0,127.0,26.0,-109.0,-72.0,127.0,127.0,127.0,118.0,87.0,-82.0
127.0,127.0,123.0,128.0,127.0,128.0,107.0,125.0,26.0,-108.0,-71.0,127.0,127.0,127.0,118.0,87.0,-82.0
126.0,128.0,123.0,128.0,127.0,128.0,107.0,125.0,26.0,-108.0,-71.0,127.0,127.0,127.0,118.0,87.0,-82.0
126.0,128.0,122.0,127.0,127.0,128.0,107.0,126.0,26.0,-108.0,-71.0,127.0,127.0,127.0,118.0,87.0,-82.0
126.0,128.0,122.0,127.0,127.0,127.0,106.0,125.0,26.0,-108.0,-71.0,127.0,127.0,127.0,118.0,87.0,-82.0
125.0,127.0,122.0,126.0,127.0,127.0,107.0,125.0,26.0,-108.0,-71.0,127.0,127.0,127.0,118.0,87.0,-82.0
125.0,125.0,122.0,126.0,127.0,127.0,107.0,124.0,26.0,-108.0,-71.0,127.0,127.0,127.0,118.0,87.0,-82.0
124.0,123.0,121.0,126.0,127.0,127.0,107.0,123.0,26.0,-108.0,-71.0,127.0,127.0,127.0,118.0,87.0,-82.0
127.0,125.0,123.0,128.0,127.0,128.0,107.0,125.0,26.0,-108.0,-71.0,127.0,127.0,127.0,118.0,87.0,-82.0
127.0,125.0,123.0,128.0,127.0,128.0,106.0,125.0,26.0,-108.0,-71.0,127.0,127.0,127.0,118.0,87.0,-82.0
127.0,126.0,123.0,128.0,127.0,128.0,107.0,124.0,26.0,-108.0,-71.0,127.0,127.0,127.0,118.0,87.0,-82.0
127.0,126.0,122.0,127.0,127.0,127.0,106.0,121.0,26.0,-108.0,-71.0,127.0,127.0,127.0,118.0,87.0,-82.0
126.0,125.0,122.0,127.0,127.0,127.0,111.0,120.0,26.0,-108.0,-71.0,127.0,127.0,127.0,118.0,87.0,-82.0
126.0,125.0,122.0,127.0,127.0,127.0,112.0,120.0,26.0,-108.0,-71.0,127.0,127.0,127.0,118.0,87.0,-82.0
126.0,125.0,122.0,127.0,127.0,127.0,112.0,120.0,26.0,-108.0,-71.0,127.0,127.0,127.0,118.0,87.0,-82.0
126.0,126.0,123.0,128.0,127.0,127.0,112.0,120.0,26.0,-108.0,-71.0,127.0,127.0,127.0,118.0,87.0,-82.0
126.0,126.0,123.0,128.0,127.0,127.0,112.0,121.0,26.0,-108.0,-71.0,127.0,127.0,127.0,118.0,87.0,-82.0
128.0,129.0,130.0,128.0,128.0,128.0,108.0,124.0,26.0,-108.0,-71.0,127.0,127.0,127.0,118.0,87.0,-82.0
128.0,129.0,128.0,128.0,128.0,128.0,107.0,123.0,26.0,-108.0,-71.0,127.0,127.0,127.0,118.0,87.0,-82.0
128.0,128.0,126.0,128.0,127.0,127.0,106.0,122.0,26.0,-108.0,-71.0,127.0,127.0,127.0,118.0,87.0,-82.0
127.0,127.0,124.0,127.0,127.0,127.0,107.0,121.0,26.0,-108.0,-71.0,127.0,127.0,127.0,118.0,87.0,-82.0
127.0,129.0,127.0,127.0,126.0,128.0,108.0,127.0,26.0,-108.0,-70.0,127.0,127.0,127.0,117.0,87.0,-82.0
127.0,129.0,129.0,127.0,126.0,128.0,107.0,127.0,26.0,-108.0,-70.0,127.0,127.0,127.0,117.0,87.0,-82.0
127.0,129.0,130.0,127.0,126.0,128.0,107.0,127.0,26.0,-108.0,-70.0,127.0,127.0,127.0,117.0,87.0,-82.0
127.0,129.0,131.0,127.0,126.0,128.0,107.0,127.0,26.0,-108.0,-70.0,127.0,127.0,127.0,117.0,87.0,-82.0
127.0,129.0,132.0,127.0,126.0,128.0,107.0,126.0,26.0,-108.0,-70.0,127.0,127.0,127.0,117.0,87.0,-82.0
128.0,128.0,126.0,128.0,127.0,127.0,106.0,128.0,26.0,-108.0,-70.0,127.0,127.0,127.0,117.0,87.0,-82.0
128.0,128.0,125.0,128.0,127.0,127.0,106.0,128.0,26.0,-108.0,-70.0,127.0,127.0,127.0,117.0,87.0,-82.0
128.0,128.0,125.0,127.0,127.0,128.0,106.0,127.0,26.0,-108.0,-70.0,127.0,127.0,127.0,117.0,87.0,-82.0
128.0,129.0,125.0,127.0,127.0,128.0,107.0,127.0,26.0,-108.0,-70.0,127.0,127.0,127.0,117.0,87.0,-82.0
127.0,129.0,126.0,127.0,127.0,128.0,108.0,127.0,26.0,-108.0,-70.0,127.0,127.0,127.0,117.0,87.0,-82.0
127.0,131.0,130.0,127.0,126.0,128.0,107.0,129.0,27.0,-108.0,-70.0,127.0,127.0,127.0,117.0,87.0,-82.0
127.0,131.0,133.0,127.0,126.0,128.0,107.0,128.0,27.0,-108.0,-70.0,127.0,127.0,127.0,117.0,87.0,-82.0
127.0,130.0,134.0,127.0,126.0,128.0,107.0,128.0,27.0,-108.0,-70.0,127.0,127.0,127.0,117.0,87.0,-82.0
126.0,129.0,134.0,126.0,126.0,127.0,106.0,128.0,27.0,-108.0,-70.0,127.0,127.0,127.0,117.0,87.0,-82.0
127.0,128.0,123.0,127.0,127.0,128.0,107.0,132.0,27.0,-108.0,-70.0,127.0,127.0,127.0,117.0,87.0,-82.0
127.0,128.0,124.0,127.0,127.0,128.0,107.0,131.0,27.0,-108.0,-70.0,127.0,127.0,127.0,117.0,87.0,-82.0
127.0,129.0,126.0,127.0,126.0,128.0,107.0,131.0,27.0,-108.0,-70.0,127.0,127.0,127.0,117.0,87.0,-82.0
127.0,130.0,128.0,127.0,127.0,128.0,108.0,130.0,27.0,-108.0,-70.0,127.0,127.0,127.0,117.0,87.0,-82.0
127.0,131.0,129.0,127.0,127.0,128.0,108.0,129.0,27.0,-108.0,-70.0,127.0,127.0,127.0,117.0,87.0,-82.0
127.0,131.0,129.0,127.0,126.0,128.0,108.0,129.0,27.0,-108.0,-70.0,127.0,127.0,127.0,117.0,87.0,-82.0
126.0,132.0,127.0,125.0,126.0,128.0,107.0,122.0,27.0,-108.0,-69.0,127.0,127.0,127.0,117.0,87.0,-82.0
126.0,132.0,126.0,125.0,126.0,128.0,107.0,124.0,27.0,-108.0,-69.0,127.0,127.0,127.0,117.0,87.0,-82.0
126.0,132.0,126.0,125.0,126.0,128.0,107.0,125.0,27.0,-108.0,-69.0,127.0,127.0,127.0,117.0,87.0,-82.0
125.0,123.0,127.0,127.0,126.0,128.0,107.0,121.0,27.0,-108.0,-69.0,127.0,127.0,127.0,117.0,87.0,-82.0
125.0,124.0,128.0,127.0,126.0,128.0,107.0,120.0,27.0,-108.0,-69.0,127.0,127.0,127.0,117.0,87.0,-82.0
125.0,125.0,128.0,126.0,126.0,128.0,107.0,120.0,27.0,-108.0,-69.0,127.0,127.0,127.0,117.0,87.0,-82.0
125.0,126.0,129.0,126.0,126.0,128.0,107.0,120.0,27.0,-108.0,-69.0,127.0,127.0,127.0,117.0,87.0,-82.0
125.0,128.0,129.0,126.0,126.0,128.0,107.0,120.0,27.0,-108.0,-69.0,127.0,127.0,127.0,117.0,87.0,-82.0
125.0,130.0,129.0,125.0,126.0,128.0,107.0,120.0,27.0,-108.0,-69.0,127.0,127.0,127.0,117.0,87.0,-82.0
126.0,131.0,128.0,125.0,126.0,128.0,107.0,121.0,27.0,-108.0,-69.0,127.0,127.0,127.0,117.0,87.0,-82.0
127.0,126.0,137.0,128.0,126.0,126.0,112.0,126.0,27.0,-108.0,-69.0,127.0,127.0,127.0,117.0,87.0,-82.0
127.0,126.0,136.0,128.0,126.0,126.0,112.0,127.0,27.0,-108.0,-69.0,127.0,127.0,127.0,117.0,87.0,-82.0
125.0,123.0,125.0,128.0,126.0,126.0,111.0,126.0,27.0,-108.0,-69.0,127.0,127.0,127.0,117.0,87.0,-82.0
125.0,124.0,126.0,128.0,126.0,126.0,112.0,126.0,27.0,-108.0,-69.0,127.0,127.0,127.0,117.0,87.0,-82.0
126.0,124.0,126.0,128.0,126.0,126.0,112.0,126.0,27.0,-108.0,-69.0,127.0,127.0,127.0,117.0,87.0,-82.0
126.0,125.0,126.0,127.0,126.0,126.0,112.0,126.0,27.0,-108.0,-69.0,127.0,127.0,127.0,117.0,87.0,-82.0
126.0,125.0,128.0,127.0,126.0,126.0,112.0,126.0,27.0,-108.0,-69.0,127.0,127.0,127.0,117.0,87.0,-82.0
126.0,125.0,130.0,127.0,125.0,126.0,112.0,126.0,27.0,-108.0,-69.0,127.0,127.0,127.0,117.0,87.0,-82.0
126.0,125.0,134.0,127.0,126.0,127.0,112.0,125.0,27.0,-108.0,-69.0,127.0,127.0,127.0,117.0,87.0,-82.0
126.0,125.0,136.0,128.0,126.0,127.0,113.0,126.0,27.0,-108.0,-69.0,127.0,127.0,127.0,117.0,87.0,-82.0
127.0,127.0,131.0,129.0,128.0,128.0,108.0,122.0,27.0,-108.0,-69.0,127.0,127.0,127.0,117.0,87.0,-82.0
124.0,124.0,127.0,127.0,127.0,128.0,107.0,121.0,27.0,-108.0,-69.0,127.0,127.0,127.0,117.0,87.0,-82.0
125.0,124.0,128.0,127.0,127.0,128.0,107.0,121.0,27.0,-108.0,-69.0,127.0,127.0,127.0,117.0,87.0,-82.0
125.0,124.0,129.0,128.0,127.0,128.0,107.0,122.0,27.0,-108.0,-69.0,127.0,127.0,127.0,117.0,87.0,-82.0
125.0,125.0,131.0,128.0,127.0,128.0,108.0,122.0,27.0,-108.0,-69.0,127.0,127.0,127.0,117.0,87.0,-82.0
126.0,125.0,132.0,129.0,127.0,128.0,108.0,123.0,27.0,-108.0,-69.0,127.0,127.0,127.0,117.0,87.0,-82.0
126.0,126.0,132.0,129.0,127.0,128.0,108.0,123.0,27.0,-108.0,-69.0,127.0,127.0,127.0,117.0,87.0,-82.0
126.0,127.0,132.0,129.0,128.0,128.0,108.0,122.0,27.0,-108.0,-69.0,127.0,127.0,127.0,117.0,87.0,-82.0
127.0,128.0,133.0,129.0,128.0,128.0,108.0,122.0,27.0,-108.0,-69.0,127.0,127.0,127.0,117.0,87.0,-82.0
127.0,128.0,133.0,129.0,128.0,128.0,108.0,122.0,27.0,-108.0,-69.0,127.0,127.0,127.0,117.0,87.0,-82.0
126.0,128.0,128.0,125.0,125.0,127.0,112.0,123.0,27.0,-108.0,-69.0,127.0,127.0,127.0,117.0,87.0,-82.0
127.0,129.0,128.0,125.0,125.0,127.0,113.0,123.0,27.0,-108.0,-69.0,127.0,127.0,127.0,117.0,87.0,-82.0
127.0,129.0,128.0,125.0,125.0,127.0,112.0,125.0,27.0,-108.0,-69.0,127.0,127.0,127.0,117.0,87.0,-82.0
128.0,129.0,128.0,125.0,125.0,127.0,113.0,126.0,27.0,-108.0,-69.0,127.0,127.0,127.0,117.0,87.0,-82.0
128.0,129.0,127.0,125.0,125.0,127.0,113.0,127.0,27.0,-108.0,-69.0,127.0,127.0,127.0,117.0,87.0,-82.0
128.0,129.0,126.0,124.0,125.0,127.0,114.0,129.0,27.0,-108.0,-69.0,127.0,127.0,127.0,117.0,87.0,-82.0
128.0,129.0,126.0,124.0,125.0,127.0,110.0,130.0,27.0,-108.0,-69.0,127.0,127.0,127.0,117.0,87.0,-82.0
128.0,129.0,126.0,124.0,126.0,127.0,107.0,130.0,27.0,-108.0,-69.0,127.0,127.0,127.0,117.0,87.0,-82.0
128.0,128.0,126.0,124.0,126.0,127.0,107.0,130.0,27.0,-108.0,-69.0,127.0,127.0,127.0,117.0,87.0,-82.0
128.0,128.0,126.0,124.0,126.0,127.0,106.0,130.0,27.0,-108.0,-69.0,127.0,127.0,127.0,117.0,87.0,-82.0
127.0,129.0,124.0,130.0,128.0,128.0,108.0,132.0,27.0,-108.0,-69.0,127.0,127.0,127.0,117.0,87.0,-82.0
127.0,129.0,123.0,130.0,128.0,128.0,109.0,132.0,27.0,-108.0,-69.0,127.0,127.0,127.0,117.0,87.0,-82.0
127.0,129.0,124.0,130.0,128.0,128.0,109.0,131.0,27.0,-108.0,-69.0,127.0,127.0,127.0,117.0,87.0,-82.0
127.0,129.0,125.0,130.0,128.0,128.0,108.0,131.0,27.0,-108.0,-69.0,127.0,127.0,127.0,117.0,87.0,-82.0
127.0,129.0,126.0,130.0,128.0,128.0,108.0,131.0,27.0,-108.0,-69.0,127.0,127.0,127.0,117.0,87.0,-82.0
127.0,129.0,126.0,130.0,128.0,128.0,108.0,130.0,27.0,-108.0,-69.0,127.0,127.0,127.0,117.0,87.0,-82.0
127.0,128.0,126.0,130.0,128.0,128.0,108.0,130.0,27.0,-108.0,-69.0,127.0,127.0,127.0,117.0,87.0,-82.0
127.0,127.0,126.0,130.0,128.0,128.0,107.0,130.0,27.0,-108.0,-69.0,127.0,127.0,127.0,117.0,87.0,-82.0
126.0,126.0,126.0,130.0,128.0,128.0,107.0,130.0,27.0,-108.0,-69.0,127.0,127.0,127.0,117.0,87.0,-82.0
127.0,129.0,125.0,130.0,128.0,128.0,108.0,132.0,27.0,-108.0,-69.0,127.0,127.0,127.0,117.0,87.0,-82.0
127.0,130.0,130.0,129.0,128.0,128.0,108.0,126.0,27.0,-108.0,-69.0,127.0,127.0,127.0,117.0,87.0,-82.0
127.0,130.0,129.0,129.0,128.0,128.0,108.0,127.0,27.0,-108.0,-69.0,127.0,127.0,127.0,117.0,87.0,-82.0
126.0,129.0,128.0,128.0,128.0,128.0,108.0,127.0,27.0,-108.0,-69.0,127.0,127.0,127.0,117.0,87.0,-82.0
126.0,129.0,127.0,128.0,127.0,128.0,109.0,128.0,27.0,-108.0,-69.0,127.0,127.0,127.0,117.0,87.0,-82.0
126.0,128.0,125.0,128.0,127.0,128.0,108.0,128.0,27.0,-108.0,-69.0,127.0,127.0,127.0,117.0,87.0,-82.0
126.0,127.0,125.0,127.0,127.0,128.0,108.0,128.0,27.0,-108.0,-69.0,127.0,127.0,127.0,117.0,87.0,-82.0
125.0,127.0,125.0,127.0,127.0,128.0,108.0,128.0,27.0,-108.0,-69.0,127.0,127.0,127.0,117.0,87.0,-82.0
127.0,130.0,131.0,128.0,127.0,127.0,107.0,126.0,27.0,-108.0,-69.0,127.0,127.0,127.0,117.0,87.0,-82.0
127.0,131.0,131.0,128.0,127.0,128.0,107.0,126.0,27.0,-108.0,-69.0,127.0,127.0,127.0,117.0,87.0,-82.0
127.0,131.0,131.0,129.0,128.0,128.0,107.0,126.0,27.0,-108.0,-69.0,127.0,127.0,127.0,117.0,87.0,-82.0
124.0,125.0,128.0,126.0,127.0,129.0,108.0,124.0,27.0,-108.0,-69.0,127.0,127.0,127.0,117.0,87.0,-82.0
123.0,125.0,127.0,126.0,127.0,129.0,108.0,123.0,27.0,-108.0,-69.0,127.0,127.0,127.0,117.0,87.0,-82.0
123.0,124.0,127.0,126.0,127.0,129.0,108.0,123.0,27.0,-108.0,-69.0,127.0,127.0,127.0,117.0,87.0,-82.0
123.0,123.0,127.0,126.0,127.0,129.0,108.0,124.0,27.0,-108.0,-69.0,127.0,127.0,127.0,117.0,87.0,-82.0
123.0,122.0,127.0,126.0,127.0,128.0,108.0,124.0,27.0,-108.0,-69.0,127.0,127.0,127.0,117.0,87.0,-82.0
123.0,122.0,127.0,126.0,128.0,128.0,108.0,124.0,27.0,-108.0,-69.0,127.0,127.0,127.0,117.0,87.0,-82.0
125.0,128.0,131.0,127.0,126.0,127.0,106.0,127.0,27.0,-108.0,-69.0,127.0,127.0,127.0,117.0,87.0,-82.0
124.0,127.0,130.0,127.0,126.0,128.0,107.0,126.0,27.0,-108.0,-69.0,127.0,127.0,127.0,117.0,87.0,-82.0
124.0,127.0,130.0,127.0,127.0,128.0,108.0,125.0,27.0,-108.0,-69.0,127.0,127.0,127.0,117.0,87.0,-82.0
124.0,126.0,129.0,127.0,127.0,128.0,108.0,124.0,27.0,-108.0,-69.0,127.0,127.0,127.0,117.0,87.0,-82.0
128.0,130.0,131.0,128.0,128.0,128.0,108.0,126.0,27.0,-108.0,-69.0,127.0,127.0,127.0,116.0,87.0,-82.0
127.0,130.0,130.0,129.0,128.0,128.0,108.0,125.0,27.0,-108.0,-69.0,127.0,127.0,127.0,116.0,87.0,-82.0
127.0,130.0,129.0,129.0,128.0,128.0,108.0,124.0,27.0,-108.0,-69.0,127.0,127.0,127.0,116.0,87.0,-82.0
127.0,130.0,129.0,129.0,128.0,129.0,108.0,124.0,27.0,-108.0,-69.0,127.0,127.0,127.0,116.0,87.0,-82.0
127.0,129.0,128.0,129.0,128.0,129.0,108.0,124.0,27.0,-108.0,-69.0,127.0,127.0,127.0,116.0,87.0,-82.0
127.0,127.0,127.0,127.0,127.0,128.0,107.0,130.0,27.0,-108.0,-69.0,127.0,127.0,127.0,116.0,87.0,-82.0
127.0,128.0,128.0,127.0,127.0,128.0,106.0,129.0,27.0,-108.0,-69.0,127.0,127.0,127.0,116.0,87.0,-82.0
127.0,129.0,129.0,127.0,127.0,128.0,107.0,129.0,27.0,-108.0,-69.0,127.0,127.0,127.0,116.0,87.0,-82.0
128.0,129.0,130.0,128.0,127.0,128.0,107.0,128.0,27.0,-108.0,-69.0,127.0,127.0,127.0,116.0,87.0,-82.0
128.0,130.0,130.0,128.0,128.0,128.0,107.0,127.0,27.0,-108.0,-69.0,127.0,127.0,127.0,116.0,87.0,-82.0
127.0,131.0,129.0,127.0,127.0,128.0,106.0,128.0,27.0,-108.0,-69.0,127.0,127.0,127.0,116.0,87.0,-82.0
127.0,131.0,130.0,127.0,127.0,127.0,107.0,128.0,27.0,-108.0,-69.0,127.0,127.0,127.0,116.0,87.0,-82.0
127.0,131.0,130.0,127.0,126.0,127.0,106.0,128.0,27.0,-108.0,-69.0,127.0,127.0,127.0,116.0,87.0,-82.0
126.0,130.0,130.0,126.0,126.0,127.0,107.0,128.0,27.0,-108.0,-69.0,127.0,127.0,127.0,116.0,87.0,-82.0
126.0,124.0,132.0,127.0,126.0,128.0,107.0,125.0,27.0,-108.0,-69.0,127.0,127.0,127.0,116.0,87.0,-82.0
126.0,126.0,132.0,127.0,127.0,128.0,107.0,126.0,27.0,-108.0,-69.0,127.0,127.0,127.0,116.0,87.0,-82.0
127.0,127.0,131.0,127.0,127.0,128.0,107.0,127.0,27.0,-108.0,-69.0,127.0,127.0,127.0,116.0,87.0,-82.0
127.0,129.0,131.0,127.0,127.0,128.0,107.0,127.0,27.0,-108.0,-69.0,127.0,127.0,127.0,116.0,87.0,-82.0
127.0,130.0,131.0,127.0,127.0,128.0,107.0,127.0,27.0,-108.0,-69.0,127.0,127.0,127.0,116.0,87.0,-82.0
127.0,130.0,130.0,127.0,127.0,128.0,107.0,128.0,27.0,-108.0,-69.0,127.0,127.0,127.0,116.0,87.0,-82.0
126.0,127.0,123.0,127.0,126.0,128.0,107.0,131.0,27.0,-108.0,-69.0,127.0,127.0,127.0,116.0,87.0,-82.0
126.0,126.0,123.0,127.0,126.0,128.0,107.0,131.0,27.0,-108.0,-69.0,127.0,127.0,127.0,116.0,87.0,-82.0
126.0,126.0,125.0,127.0,126.0,127.0,106.0,131.0,27.0,-108.0,-69.0,127.0,127.0,127.0,116.0,87.0,-82.0
125.0,127.0,131.0,126.0,126.0,128.0,108.0,128.0,27.0,-108.0,-69.0,127.0,127.0,127.0,116.0,87.0,-82.0
125.0,127.0,130.0,126.0,126.0,128.0,108.0,129.0,27.0,-108.0,-69.0,127.0,127.0,127.0,116.0,87.0,-82.0
125.0,127.0,128.0,126.0,127.0,128.0,107.0,130.0,27.0,-108.0,-69.0,127.0,127.0,127.0,116.0,87.0,-82.0
125.0,127.0,126.0,126.0,126.0,128.0,106.0,130.0,27.0,-108.0,-69.0,127.0,127.0,127.0,116.0,87.0,-82.0
126.0,127.0,125.0,127.0,126.0,128.0,106.0,131.0,27.0,-108.0,-69.0,127.0,127.0,127.0,116.0,87.0,-82.0
126.0,127.0,124.0,127.0,126.0,128.0,107.0,131.0,27.0,-108.0,-69.0,127.0,127.0,127.0,116.0,87.0,-82.0
126.0,127.0,124.0,127.0,126.0,128.0,107.0,131.0,27.0,-108.0,-69.0,127.0,127.0,127.0,116.0,87.0,-82.0
126.0,125.0,126.0,127.0,126.0,127.0,109.0,128.0,27.0,-108.0,-69.0,127.0,127.0,127.0,116.0,87.0,-82.0
126.0,125.0,125.0,127.0,126.0,127.0,107.0,128.0,27.0,-108.0,-69.0,127.0,127.0,127.0,116.0,87.0,-82.0
124.0,123.0,130.0,127.0,126.0,127.0,112.0,125.0,27.0,-108.0,-69.0,127.0,127.0,127.0,116.0,87.0,-82.0
125.0,123.0,131.0,127.0,126.0,127.0,112.0,126.0,27.0,-108.0,-69.0,127.0,127.0,127.0,116.0,87.0,-82.0
125.0,124.0,132.0,127.0,126.0,127.0,111.0,127.0,27.0,-108.0,-69.0,127.0,127.0,127.0,116.0,87.0,-82.0
126.0,124.0,134.0,127.0,126.0,127.0,107.0,128.0,27.0,-108.0,-69.0,127.0,127.0,127.0,116.0,87.0,-82.0
126.0,124.0,135.0,127.0,126.0,127.0,106.0,128.0,27.0,-108.0,-69.0,127.0,127.0,127.0,116.0,87.0,-82.0
126.0,124.0,134.0,127.0,126.0,127.0,106.0,128.0,27.0,-108.0,-69.0,127.0,127.0,127.0,116.0,87.0,-82.0
126.0,125.0,131.0,127.0,126.0,127.0,106.0,128.0,27.0,-108.0,-69.0,127.0,127.0,127.0,116.0,87.0,-82.0
126.0,125.0,128.0,127.0,126.0,127.0,107.0,128.0,27.0,-108.0,-69.0,127.0,127.0,127.0,116.0,87.0,-82.0
126.0,129.0,130.0,129.0,127.0,128.0,107.0,128.0,27.0,-108.0,-70.0,127.0,127.0,127.0,116.0,87.0,-82.0
126.0,127.0,126.0,128.0,127.0,127.0,106.0,125.0,27.0,-108.0,-70.0,127.0,127.0,127.0,116.0,87.0,-82.0
126.0,127.0,126.0,128.0,127.0,127.0,106.0,126.0,27.0,-108.0,-70.0,127.0,127.0,127.0,116.0,87.0,-82.0
126.0,127.0,127.0,128.0,127.0,127.0,107.0,125.0,27.0,-108.0,-70.0,127.0,127.0,127.0,116.0,87.0,-82.0
126.0,128.0,128.0,128.0,127.0,128.0,107.0,126.0,27.0,-108.0,-70.0,127.0,127.0,127.0,116.0,87.0,-82.0
126.0,128.0,128.0,128.0,127.0,127.0,106.0,126.0,27.0,-108.0,-70.0,127.0,127.0,127.0,116.0,87.0,-82.0
126.0,128.0,128.0,128.0,127.0,127.0,107.0,126.0,27.0,-108.0,-70.0,127.0,127.0,127.0,116.0,87.0,-82.0
126.0,128.0,128.0,128.0,127.0,127.0,106.0,127.0,27.0,-108.0,-70.0,127.0,127.0,127.0,116.0,87.0,-82.0
126.0,128.0,128.0,128.0,127.0,127.0,106.0,127.0,27.0,-108.0,-70.0,127.0,127.0,127.0,116.0,87.0,-82.0
126.0,129.0,129.0,129.0,127.0,127.0,106.0,128.0,27.0,-108.0,-70.0,127.0,127.0,127.0,116.0,87.0,-82.0
127.0,127.0,123.0,127.0,127.0,128.0,107.0,130.0,27.0,-108.0,-70.0,127.0,127.0,127.0,116.0,87.0,-82.0
127.0,127.0,122.0,127.0,127.0,128.0,108.0,130.0,27.0,-108.0,-70.0,127.0,127.0,127.0,116.0,87.0,-82.0
127.0,126.0,122.0,127.0,127.0,128.0,107.0,129.0,27.0,-108.0,-70.0,127.0,127.0,127.0,116.0,87.0,-82.0
127.0,126.0,122.0,126.0,126.0,128.0,107.0,129.0,27.0,-108.0,-70.0,127.0,127.0,127.0,116.0,87.0,-82.0
127.0,126.0,122.0,127.0,126.0,128.0,107.0,129.0,27.0,-108.0,-70.0,127.0,127.0,127.0,116.0,87.0,-82.0
126.0,125.0,122.0,127.0,126.0,127.0,106.0,129.0,27.0,-108.0,-70.0,127.0,127.0,127.0,116.0,87.0,-82.0
126.0,125.0,123.0,126.0,126.0,127.0,106.0,129.0,27.0,-108.0,-70.0,127.0,127.0,127.0,116.0,87.0,-82.0
126.0,125.0,125.0,127.0,126.0,127.0,106.0,129.0,27.0,-108.0,-70.0,127.0,127.0,127.0,116.0,87.0,-82.0
126.0,125.0,127.0,127.0,126.0,127.0,111.0,129.0,27.0,-108.0,-70.0,127.0,127.0,127.0,116.0,87.0,-82.0
126.0,124.0,128.0,127.0,126.0,127.0,112.0,128.0,27.0,-108.0,-70.0,127.0,127.0,127.0,116.0,87.0,-82.0
126.0,129.0,125.0,129.0,127.0,128.0,107.0,127.0,27.0,-108.0,-70.0,127.0,127.0,127.0,116.0,87.0,-82.0
125.0,128.0,126.0,129.0,127.0,128.0,107.0,127.0,27.0,-108.0,-70.0,127.0,127.0,127.0,116.0,87.0,-82.0
125.0,128.0,126.0,129.0,127.0,128.0,107.0,127.0,27.0,-108.0,-70.0,127.0,127.0,127.0,116.0,87.0,-82.0
126.0,127.0,126.0,129.0,127.0,128.0,108.0,127.0,27.0,-108.0,-70.0,127.0,127.0,127.0,116.0,87.0,-82.0
126.0,127.0,127.0,129.0,127.0,128.0,107.0,126.0,27.0,-108.0,-70.0,127.0,127.0,127.0,116.0,87.0,-82.0
126.0,127.0,127.0,130.0,127.0,128.0,108.0,126.0,27.0,-108.0,-70.0,127.0,127.0,127.0,116.0,87.0,-82.0
126.0,127.0,127.0,130.0,127.0,128.0,108.0,125.0,27.0,-108.0,-70.0,127.0,127.0,127.0,116.0,87.0,-82.0
126.0,127.0,127.0,130.0,128.0,128.0,108.0,125.0,27.0,-108.0,-70.0,127.0,127.0,127.0,116.0,87.0,-82.0
126.0,127.0,127.0,130.0,128.0,128.0,107.0,125.0,27.0,-108.0,-70.0,127.0,127.0,127.0,116.0,87.0,-82.0
126.0,130.0,125.0,128.0,127.0,128.0,107.0,126.0,27.0,-108.0,-70.0,127.0,127.0,127.0,116.0,87.0,-82.0
125.0,126.0,127.0,127.0,127.0,128.0,107.0,118.0,27.0,-108.0,-70.0,127.0,127.0,127.0,116.0,87.0,-82.0
126.0,126.0,127.0,127.0,127.0,128.0,108.0,119.0,27.0,-108.0,-70.0,127.0,127.0,127.0,116.0,87.0,-82.0
126.0,126.0,126.0,128.0,127.0,128.0,108.0,121.0,27.0,-108.0,-70.0,127.0,127.0,127.0,116.0,87.0,-82.0
127.0,127.0,126.0,128.0,127.0,128.0,108.0,123.0,27.0,-108.0,-70.0,127.0,127.0,127.0,116.0,87.0,-82.0
127.0,127.0,126.0,129.0,127.0,128.0,108.0,126.0,27.0,-108.0,-70.0,127.0,127.0,127.0,116.0,87.0,-82.0
127.0,127.0,127.0,129.0,127.0,128.0,108.0,127.0,27.0,-108.0,-70.0,127.0,127.0,127.0,116.0,87.0,-82.0
128.0,127.0,126.0,129.0,127.0,128.0,108.0,129.0,27.0,-108.0,-70.0,127.0,127.0,127.0,116.0,87.0,-82.0
127.0,127.0,127.0,129.0,127.0,128.0,107.0,130.0,27.0,-108.0,-70.0,127.0,127.0,127.0,116.0,87.0,-82.0
125.0,124.0,125.0,127.0,126.0,128.0,107.0,117.0,27.0,-108.0,-70.0,127.0,127.0,127.0,116.0,87.0,-82.0
125.0,125.0,126.0,127.0,127.0,128.0,107.0,117.0,27.0,-108.0,-70.0,127.0,127.0,127.0,116.0,87.0,-82.0
126.0,127.0,128.0,129.0,128.0,128.0,107.0,126.0,27.0,-108.0,-70.0,127.0,127.0,127.0,116.0,87.0,-82.0
126.0,127.0,129.0,129.0,128.0,128.0,107.0,126.0,27.0,-108.0,-70.0,127.0,127.0,127.0,116.0,87.0,-82.0
125.0,126.0,129.0,129.0,128.0,128.0,107.0,125.0,27.0,-108.0,-70.0,127.0,127.0,127.0,116.0,87.0,-82.0
125.0,126.0,129.0,129.0,128.0,128.0,107.0,125.0,27.0,-108.0,-70.0,127.0,127.0,127.0,116.0,87.0,-82.0
125.0,126.0,129.0,128.0,127.0,128.0,107.0,125.0,27.0,-108.0,-70.0,127.0,127.0,127.0,116.0,87.0,-82.0
125.0,125.0,129.0,128.0,127.0,128.0,107.0,124.0,27.0,-108.0,-70.0,127.0,127.0,127.0,116.0,87.0,-82.0
125.0,125.0,129.0,128.0,127.0,127.0,106.0,124.0,27.0,-108.0,-70.0,127.0,127.0,127.0,116.0,87.0,-82.0
126.0,127.0,127.0,129.0,127.0,127.0,106.0,129.0,27.0,-108.0,-70.0,127.0,127.0,127.0,116.0,87.0,-82.0
126.0,126.0,127.0,129.0,128.0,128.0,106.0,128.0,27.0,-108.0,-70.0,127.0,127.0,127.0,116.0,87.0,-82.0
126.0,126.0,128.0,129.0,128.0,128.0,106.0,127.0,27.0,-108.0,-70.0,127.0,127.0,127.0,116.0,87.0,-82.0
125.0,129.0,132.0,127.0,127.0,128.0,107.0,121.0,27.0,-108.0,-71.0,127.0,127.0,127.0,116.0,87.0,-82.0
125.0,129.0,131.0,128.0,127.0,128.0,107.0,121.0,27.0,-108.0,-71.0,127.0,127.0,127.0,116.0,87.0,-82.0
125.0,129.0,131.0,128.0,127.0,128.0,107.0,121.0,27.0,-108.0,-71.0,127.0,127.0,127.0,116.0,87.0,-82.0
125.0,128.0,131.0,128.0,127.0,128.0,107.0,121.0,27.0,-108.0,-71.0,127.0,127.0,127.0,116.0,87.0,-82.0
125.0,127.0,130.0,129.0,127.0,128.0,107.0,121.0,27.0,-108.0,-71.0,127.0,127.0,127.0,116.0,87.0,-82.0
125.0,127.0,129.0,128.0,127.0,128.0,108.0,121.0,27.0,-108.0,-71.0,127.0,127.0,127.0,116.0,87.0,-82.0
126.0,127.0,127.0,124.0,126.0,127.0,107.0,123.0,27.0,-108.0,-71.0,127.0,127.0,127.0,116.0,87.0,-82.0
125.0,127.0,128.0,125.0,126.0,127.0,106.0,123.0,27.0,-108.0,-71.0,127.0,127.0,127.0,116.0,87.0,-82.0
125.0,127.0,129.0,125.0,126.0,127.0,107.0,122.0,27.0,-108.0,-71.0,127.0,127.0,127.0,116.0,87.0,-82.0
125.0,129.0,132.0,126.0,126.0,128.0,107.0,122.0,27.0,-108.0,-71.0,127.0,127.0,127.0,116.0,87.0,-82.0
126.0,126.0,125.0,128.0,127.0,129.0,108.0,129.0,27.0,-108.0,-71.0,127.0,127.0,127.0,116.0,87.0,-82.0
126.0,127.0,127.0,128.0,127.0,129.0,108.0,130.0,27.0,-108.0,-71.0,127.0,127.0,127.0,116.0,87.0,-82.0
126.0,128.0,128.0,128.0,127.0,128.0,108.0,130.0,27.0,-108.0,-71.0,127.0,127.0,127.0,116.0,87.0,-82.0
127.0,128.0,128.0,128.0,127.0,128.0,108.0,130.0,27.0,-108.0,-71.0,127.0,127.0,127.0,116.0,87.0,-82.0
127.0,128.0,128.0,128.0,127.0,128.0,107.0,129.0,27.0,-108.0,-71.0,127.0,127.0,127.0,116.0,87.0,-82.0
124.0,121.0,124.0,129.0,127.0,129.0,108.0,123.0,27.0,-108.0,-71.0,127.0,127.0,127.0,116.0,87.0,-82.0
125.0,122.0,123.0,129.0,127.0,129.0,108.0,125.0,27.0,-108.0,-71.0,127.0,127.0,127.0,116.0,87.0,-82.0
125.0,123.0,123.0,129.0,127.0,129.0,108.0,126.0,27.0,-108.0,-71.0,127.0,127.0,127.0,116.0,87.0,-82.0
126.0,125.0,123.0,128.0,127.0,129.0,109.0,128.0,27.0,-108.0,-71.0,127.0,127.0,127.0,116.0,87.0,-82.0
126.0,125.0,124.0,128.0,127.0,129.0,108.0,129.0,27.0,-108.0,-71.0,127.0,127.0,127.0,116.0,87.0,-82.0
126.0,127.0,127.0,128.0,127.0,128.0,108.0,130.0,27.0,-108.0,-71.0,127.0,127.0,127.0,116.0,87.0,-82.0
126.0,127.0,127.0,128.0,127.0,128.0,107.0,130.0,27.0,-108.0,-71.0,127.0,127.0,127.0,116.0,87.0,-82.0
126.0,128.0,128.0,128.0,127.0,128.0,107.0,130.0,27.0,-108.0,-71.0,127.0,127.0,127.0,116.0,87.0,-82.0
126.0,128.0,130.0,128.0,127.0,128.0,107.0,129.0,27.0,-108.0,-71.0,127.0,127.0,127.0,116.0,87.0,-82.0
125.0,122.0,128.0,129.0,127.0,128.0,107.0,124.0,27.0,-108.0,-71.0,127.0,127.0,127.0,116.0,87.0,-82.0
125.0,123.0,128.0,129.0,127.0,128.0,108.0,125.0,27.0,-108.0,-71.0,127.0,127.0,127.0,116.0,87.0,-82.0
125.0,124.0,128.0,129.0,127.0,128.0,108.0,126.0,27.0,-108.0,-71.0,127.0,127.0,127.0,116.0,87.0,-82.0
125.0,125.0,128.0,129.0,127.0,128.0,108.0,127.0,27.0,-108.0,-71.0,127.0,127.0,127.0,116.0,87.0,-82.0
125.0,126.0,128.0,129.0,127.0,128.0,108.0,129.0,27.0,-108.0,-71.0,127.0,127.0,127.0,116.0,87.0,-82.0
126.0,127.0,128.0,128.0,127.0,128.0,108.0,129.0,27.0,-108.0,-71.0,127.0,127.0,127.0,116.0,87.0,-82.0
126.0,125.0,129.0,128.0,127.0,129.0,109.0,126.0,27.0,-108.0,-71.0,127.0,127.0,127.0,116.0,87.0,-82.0
126.0,125.0,128.0,128.0,127.0,129.0,109.0,126.0,27.0,-108.0,-71.0,127.0,127.0,127.0,116.0,87.0,-82.0
126.0,125.0,128.0,128.0,127.0,128.0,108.0,127.0,27.0,-108.0,-71.0,127.0,127.0,127.0,116.0,87.0,-82.0
126.0,126.0,127.0,128.0,127.0,128.0,108.0,124.0,27.0,-108.0,-71.0,127.0,127.0,127.0,116.0,87.0,-82.0
126.0,125.0,128.0,128.0,127.0,128.0,108.0,124.0,27.0,-108.0,-71.0,127.0,127.0,127.0,116.0,87.0,-82.0
126.0,125.0,128.0,128.0,127.0,128.0,108.0,125.0,27.0,-108.0,-71.0,127.0,127.0,127.0,116.0,87.0,-82.0
126.0,125.0,129.0,128.0,127.0,128.0,108.0,125.0,27.0,-108.0,-71.0,127.0,127.0,127.0,116.0,87.0,-82.0
126.0,126.0,129.0,128.0,127.0,128.0,108.0,126.0,27.0,-108.0,-71.0,127.0,127.0,127.0,116.0,87.0,-82.0
126.0,125.0,129.0,128.0,127.0,128.0,108.0,126.0,27.0,-108.0,-71.0,127.0,127.0,127.0,116.0,87.0,-82.0
126.0,125.0,129.0,128.0,127.0,128.0,108.0,126.0,27.0,-108.0,-71.0,127.0,127.0,127.0,116.0,87.0,-82.0
126.0,127.0,122.0,127.0,127.0,128.0,108.0,124.0,27.0,-108.0,-71.0,127.0,127.0,127.0,116.0,87.0,-82.0
126.0,127.0,122.0,127.0,127.0,128.0,108.0,125.0,27.0,-108.0,-71.0,127.0,127.0,127.0,116.0,87.0,-82.0
126.0,127.0,128.0,127.0,127.0,128.0,107.0,123.0,27.0,-108.0,-71.0,127.0,127.0,127.0,116.0,87.0,-82.0
126.0,127.0,129.0,127.0,127.0,128.0,108.0,123.0,27.0,-108.0,-71.0,127.0,127.0,127.0,116.0,87.0,-82.0
126.0,127.0,129.0,127.0,127.0,128.0,108.0,122.0,27.0,-108.0,-71.0,127.0,127.0,127.0,116.0,87.0,-82.0
126.0,127.0,129.0,127.0,127.0,128.0,108.0,122.0,27.0,-108.0,-71.0,127.0,127.0,127.0,116.0,87.0,-82.0
126.0,127.0,128.0,127.0,127.0,128.0,107.0,122.0,27.0,-108.0,-71.0,127.0,127.0,127.0,116.0,87.0,-82.0
126.0,127.0,126.0,127.0,127.0,128.0,107.0,123.0,27.0,-108.0,-71.0,127.0,127.0,127.0,116.0,87.0,-82.0
125.0,127.0,124.0,127.0,127.0,128.0,107.0,123.0,27.0,-108.0,-71.0,127.0,127.0,127.0,116.0,87.0,-82.0
126.0,127.0,122.0,126.0,127.0,128.0,107.0,123.0,27.0,-108.0,-71.0,127.0,127.0,127.0,116.0,87.0,-82.0
126.0,126.0,126.0,127.0,127.0,127.0,106.0,126.0,27.0,-108.0,-71.0,127.0,127.0,127.0,116.0,87.0,-82.0
126.0,127.0,132.0,128.0,126.0,128.0,108.0,124.0,27.0,-108.0,-71.0,127.0,127.0,127.0,116.0,87.0,-82.0
126.0,128.0,132.0,128.0,127.0,128.0,108.0,124.0,27.0,-108.0,-71.0,127.0,127.0,127.0,116.0,87.0,-82.0
126.0,128.0,131.0,128.0,127.0,128.0,108.0,124.0,27.0,-108.0,-71.0,127.0,127.0,127.0,116.0,87.0,-82.0
126.0,127.0,129.0,128.0,127.0,128.0,107.0,124.0,27.0,-108.0,-71.0,127.0,127.0,127.0,116.0,87.0,-82.0
126.0,127.0,127.0,128.0,127.0,128.0,107.0,124.0,27.0,-108.0,-71.0,127.0,127.0,127.0,116.0,87.0,-82.0
126.0,127.0,126.0,128.0,127.0,128.0,106.0,124.0,27.0,-108.0,-71.0,127.0,127.0,127.0,116.0,87.0,-82.0
126.0,127.0,126.0,128.0,127.0,127.0,107.0,124.0,27.0,-108.0,-71.0,127.0,127.0,127.0,116.0,87.0,-82.0
126.0,126.0,126.0,128.0,127.0,127.0,107.0,125.0,27.0,-108.0,-71.0,127.0,127.0,127.0,116.0,87.0,-82.0
126.0,126.0,126.0,127.0,127.0,127.0,107.0,125.0,27.0,-108.0,-71.0,127.0,127.0,127.0,116.0,87.0,-82.0
125.0,126.0,131.0,129.0,127.0,128.0,107.0,127.0,27.0,-108.0,-70.0,127.0,127.0,127.0,116.0,87.0,-82.0
125.0,126.0,130.0,129.0,127.0,128.0,107.0,126.0,27.0,-108.0,-70.0,127.0,127.0,127.0,116.0,87.0,-82.0
125.0,126.0,128.0,129.0,127.0,128.0,108.0,125.0,27.0,-108.0,-70.0,127.0,127.0,127.0,116.0,87.0,-82.0
125.0,126.0,128.0,129.0,127.0,128.0,108.0,125.0,27.0,-108.0,-70.0,127.0,127.0,127.0,116.0,87.0,-82.0
126.0,126.0,127.0,129.0,127.0,128.0,107.0,124.0,27.0,-108.0,-70.0,127.0,127.0,127.0,116.0,87.0,-82.0
126.0,126.0,125.0,129.0,127.0,128.0,108.0,123.0,27.0,-108.0,-70.0,127.0,127.0,127.0,116.0,87.0,-82.0
126.0,127.0,124.0,129.0,127.0,128.0,107.0,123.0,27.0,-108.0,-70.0,127.0,127.0,127.0,116.0,87.0,-82.0
126.0,127.0,124.0,129.0,127.0,128.0,107.0,122.0,27.0,-108.0,-70.0,127.0,127.0,127.0,116.0,87.0,-82.0
126.0,127.0,124.0,129.0,127.0,128.0,106.0,122.0,27.0,-108.0,-70.0,127.0,127.0,127.0,116.0,87.0,-82.0
126.0,128.0,124.0,129.0,127.0,128.0,106.0,122.0,27.0,-108.0,-70.0,127.0,127.0,127.0,116.0,87.0,-82.0
126.0,130.0,134.0,128.0,126.0,128.0,108.0,127.0,27.0,-108.0,-70.0,127.0,127.0,127.0,116.0,87.0,-82.0
126.0,130.0,135.0,128.0,126.0,128.0,108.0,127.0,27.0,-108.0,-70.0,127.0,127.0,127.0,116.0,87.0,-82.0
126.0,129.0,136.0,128.0,126.0,128.0,108.0,127.0,27.0,-108.0,-70.0,127.0,127.0,127.0,116.0,87.0,-82.0
126.0,129.0,135.0,129.0,127.0,128.0,107.0,127.0,27.0,-108.0,-70.0,127.0,127.0,127.0,116.0,87.0,-82.0
126.0,128.0,134.0,129.0,127.0,128.0,107.0,128.0,27.0,-108.0,-70.0,127.0,127.0,127.0,116.0,87.0,-82.0
126.0,127.0,131.0,129.0,127.0,128.0,107.0,128.0,27.0,-108.0,-70.0,127.0,127.0,127.0,116.0,87.0,-82.0
126.0,126.0,130.0,129.0,127.0,128.0,107.0,128.0,27.0,-108.0,-70.0,127.0,127.0,127.0,116.0,87.0,-82.0
126.0,125.0,129.0,129.0,127.0,128.0,107.0,127.0,27.0,-108.0,-70.0,127.0,127.0,127.0,116.0,87.0,-82.0
126.0,129.0,132.0,129.0,127.0,128.0,107.0,127.0,27.0,-108.0,-70.0,127.0,127.0,127.0,116.0,87.0,-82.0
126.0,129.0,132.0,129.0,126.0,128.0,108.0,127.0,27.0,-108.0,-70.0,127.0,127.0,127.0,116.0,87.0,-82.0
126.0,127.0,127.0,128.0,127.0,128.0,107.0,125.0,27.0,-108.0,-70.0,127.0,127.0,127.0,116.0,87.0,-82.0
126.0,127.0,126.0,128.0,127.0,128.0,108.0,126.0,27.0,-108.0,-70.0,127.0,127.0,127.0,116.0,87.0,-82.0
126.0,127.0,126.0,128.0,127.0,128.0,107.0,126.0,27.0,-108.0,-70.0,127.0,127.0,127.0,116.0,87.0,-82.0
126.0,126.0,126.0,128.0,127.0,128.0,108.0,126.0,27.0,-108.0,-70.0,127.0,127.0,127.0,116.0,87.0,-82.0
126.0,126.0,126.0,128.0,127.0,128.0,107.0,126.0,27.0,-108.0,-70.0,127.0,127.0,127.0,116.0,87.0,-82.0
126.0,126.0,126.0,128.0,127.0,128.0,107.0,126.0,27.0,-108.0,-70.0,127.0,127.0,127.0,116.0,87.0,-82.0
126.0,126.0,126.0,128.0,127.0,128.0,107.0,126.0,27.0,-108.0,-70.0,127.0,127.0,127.0,116.0,87.0,-82.0
126.0,128.0,129.0,128.0,127.0,127.0,106.0,126.0,27.0,-108.0,-70.0,127.0,127.0,127.0,116.0,87.0,-82.0
126.0,128.0,128.0,128.0,127.0,128.0,106.0,126.0,27.0,-108.0,-70.0,127.0,127.0,127.0,116.0,87.0,-82.0
126.0,128.0,127.0,128.0,127.0,128.0,106.0,126.0,27.0,-108.0,-70.0,127.0,127.0,127.0,116.0,87.0,-82.0
126.0,125.0,128.0,128.0,127.0,128.0,107.0,128.0,27.0,-108.0,-70.0,127.0,127.0,127.0,116.0,87.0,-82.0
126.0,125.0,128.0,128.0,127.0,128.0,106.0,128.0,27.0,-108.0,-70.0,127.0,127.0,127.0,116.0,87.0,-82.0
126.0,125.0,128.0,128.0,127.0,128.0,106.0,128.0,27.0,-108.0,-70.0,127.0,127.0,127.0,116.0,87.0,-82.0
126.0,125.0,127.0,128.0,127.0,128.0,107.0,128.0,27.0,-108.0,-70.0,127.0,127.0,127.0,116.0,87.0,-82.0
126.0,126.0,127.0,128.0,127.0,128.0,107.0,127.0,27.0,-108.0,-70.0,127.0,127.0,127.0,116.0,87.0,-82.0
126.0,126.0,127.0,128.0,127.0,128.0,108.0,127.0,27.0,-108.0,-70.0,127.0,127.0,127.0,116.0,87.0,-82.0
126.0,126.0,129.0,128.0,127.0,128.0,107.0,128.0,27.0,-108.0,-70.0,127.0,127.0,127.0,116.0,87.0,-82.0
126.0,126.0,129.0,128.0,127.0,128.0,108.0,128.0,27.0,-108.0,-70.0,127.0,127.0,127.0,116.0,87.0,-82.0
126.0,126.0,129.0,128.0,127.0,128.0,107.0,128.0,27.0,-108.0,-70.0,127.0,127.0,127.0,116.0,87.0,-82.0
126.0,126.0,129.0,128.0,127.0,128.0,107.0,128.0,27.0,-108.0,-70.0,127.0,127.0,127.0,116.0,87.0,-82.0
125.0,125.0,125.0,124.0,126.0,127.0,107.0,129.0,27.0,-108.0,-70.0,127.0,127.0,127.0,116.0,87.0,-82.0
125.0,125.0,127.0,124.0,126.0,127.0,106.0,129.0,27.0,-108.0,-70.0,127.0,127.0,127.0,116.0,87.0,-82.0
125.0,125.0,129.0,124.0,126.0,127.0,106.0,130.0,27.0,-108.0,-70.0,127.0,127.0,127.0,116.0,87.0,-82.0
125.0,125.0,131.0,125.0,126.0,127.0,107.0,130.0,27.0,-108.0,-70.0,127.0,127.0,127.0,116.0,87.0,-82.0
125.0,125.0,132.0,125.0,126.0,127.0,109.0,130.0,27.0,-108.0,-70.0,127.0,127.0,127.0,116.0,87.0,-82.0
125.0,126.0,124.0,125.0,126.0,128.0,107.0,127.0,27.0,-108.0,-70.0,127.0,127.0,127.0,116.0,87.0,-82.0
125.0,126.0,124.0,124.0,126.0,128.0,107.0,128.0,27.0,-108.0,-70.0,127.0,127.0,127.0,116.0,87.0,-82.0
125.0,126.0,124.0,124.0,126.0,128.0,107.0,128.0,27.0,-108.0,-70.0,127.0,127.0,127.0,116.0,87.0,-82.0
125.0,126.0,124.0,124.0,126.0,128.0,107.0,128.0,27.0,-108.0,-70.0,127.0,127.0,127.0,116.0,87.0,-82.0
125.0,126.0,125.0,124.0,126.0,127.0,106.0,128.0,27.0,-108.0,-70.0,127.0,127.0,127.0,116.0,87.0,-82.0
127.0,129.0,124.0,127.0,126.0,128.0,108.0,128.0,27.0,-108.0,-69.0,127.0,127.0,127.0,116.0,87.0,-82.0
127.0,129.0,125.0,127.0,126.0,128.0,108.0,128.0,27.0,-108.0,-69.0,127.0,127.0,127.0,116.0,87.0,-82.0
127.0,129.0,125.0,127.0,126.0,128.0,108.0,128.0,27.0,-108.0,-69.0,127.0,127.0,127.0,116.0,87.0,-82.0
127.0,129.0,126.0,128.0,126.0,128.0,107.0,128.0,27.0,-108.0,-69.0,127.0,127.0,127.0,116.0,87.0,-82.0
126.0,128.0,126.0,128.0,126.0,128.0,107.0,128.0,27.0,-108.0,-69.0,127.0,127.0,127.0,116.0,87.0,-82.0
126.0,128.0,126.0,128.0,126.0,127.0,106.0,128.0,27.0,-108.0,-69.0,127.0,127.0,127.0,116.0,87.0,-82.0
126.0,128.0,127.0,127.0,126.0,128.0,107.0,128.0,27.0,-108.0,-69.0,127.0,127.0,127.0,116.0,87.0,-82.0
127.0,128.0,126.0,127.0,126.0,128.0,107.0,128.0,27.0,-108.0,-69.0,127.0,127.0,127.0,116.0,87.0,-82.0
127.0,128.0,125.0,127.0,126.0,128.0,107.0,128.0,27.0,-108.0,-69.0,127.0,127.0,127.0,116.0,87.0,-82.0
127.0,129.0,125.0,127.0,126.0,128.0,107.0,128.0,27.0,-108.0,-69.0,127.0,127.0,127.0,116.0,87.0,-82.0
126.0,126.0,128.0,126.0,127.0,128.0,108.0,129.0,27.0,-108.0,-69.0,127.0,127.0,127.0,116.0,87.0,-82.0
126.0,126.0,127.0,126.0,127.0,128.0,108.0,129.0,27.0,-108.0,-69.0,127.0,127.0,127.0,116.0,87.0,-82.0
125.0,125.0,127.0,126.0,127.0,128.0,107.0,129.0,27.0,-108.0,-69.0,127.0,127.0,127.0,116.0,87.0,-82.0
125.0,126.0,127.0,127.0,127.0,128.0,108.0,128.0,27.0,-108.0,-69.0,127.0,127.0,127.0,116.0,87.0,-82.0
125.0,126.0,128.0,127.0,127.0,128.0,107.0,129.0,27.0,-108.0,-69.0,127.0,127.0,127.0,116.0,87.0,-82.0
126.0,127.0,128.0,127.0,127.0,128.0,107.0,129.0,27.0,-108.0,-69.0,127.0,127.0,127.0,116.0,87.0,-82.0
126.0,127.0,128.0,127.0,127.0,128.0,107.0,129.0,27.0,-108.0,-69.0,127.0,127.0,127.0,116.0,87.0,-82.0
126.0,127.0,128.0,127.0,127.0,128.0,107.0,129.0,27.0,-108.0,-69.0,127.0,127.0,127.0,116.0,87.0,-82.0
126.0,127.0,128.0,127.0,127.0,128.0,108.0,129.0,27.0,-108.0,-69.0,127.0,127.0,127.0,116.0,87.0,-82.0
126.0,127.0,128.0,126.0,127.0,128.0,108.0,129.0,27.0,-108.0,-69.0,127.0,127.0,127.0,116.0,87.0,-82.0
126.0,126.0,127.0,126.0,127.0,128.0,107.0,130.0,27.0,-109.0,-69.0,127.0,127.0,127.0,116.0,87.0,-82.0
125.0,126.0,127.0,126.0,127.0,128.0,107.0,129.0,27.0,-109.0,-69.0,127.0,127.0,127.0,116.0,87.0,-82.0
126.0,127.0,128.0,126.0,126.0,128.0,108.0,129.0,27.0,-109.0,-69.0,127.0,127.0,127.0,116.0,87.0,-82.0
126.0,127.0,127.0,127.0,127.0,128.0,108.0,129.0,27.0,-109.0,-69.0,127.0,127.0,127.0,116.0,87.0,-82.0
126.0,127.0,127.0,127.0,127.0,128.0,107.0,130.0,27.0,-109.0,-69.0,127.0,127.0,127.0,116.0,87.0,-82.0
125.0,127.0,128.0,127.0,127.0,128.0,107.0,130.0,27.0,-109.0,-69.0,127.0,127.0,127.0,116.0,87.0,-82.0
126.0,127.0,128.0,127.0,127.0,128.0,107.0,130.0,27.0,-109.0,-69.0,127.0,127.0,127.0,116.0,87.0,-82.0
126.0,127.0,128.0,127.0,127.0,128.0,107.0,130.0,27.0,-109.0,-69.0,127.0,127.0,127.0,116.0,87.0,-82.0
126.0,127.0,128.0,126.0,127.0,128.0,108.0,130.0,27.0,-109.0,-69.0,127.0,127.0,127.0,116.0,87.0,-82.0
126.0,127.0,128.0,126.0,127.0,128.0,108.0,130.0,27.0,-109.0,-69.0,127.0,127.0,127.0,116.0,87.0,-82.0
125.0,126.0,125.0,127.0,127.0,127.0,107.0,129.0,27.0,-109.0,-69.0,127.0,127.0,127.0,116.0,87.0,-82.0
125.0,127.0,130.0,127.0,127.0,128.0,107.0,129.0,27.0,-109.0,-69.0,127.0,127.0,127.0,116.0,87.0,-82.0
125.0,127.0,129.0,127.0,127.0,128.0,107.0,129.0,27.0,-109.0,-69.0,127.0,127.0,127.0,116.0,87.0,-82.0
125.0,127.0,128.0,127.0,127.0,128.0,107.0,129.0,27.0,-109.0,-69.0,127.0,127.0,127.0,116.0,87.0,-82.0
125.0,127.0,128.0,127.0,127.0,128.0,107.0,129.0,27.0,-109.0,-69.0,127.0,127.0,127.0,116.0,87.0,-82.0
125.0,127.0,127.0,127.0,127.0,128.0,107.0,129.0,27.0,-109.0,-69.0,127.0,127.0,127.0,116.0,87.0,-82.0
125.0,127.0,127.0,127.0,127.0,128.0,107.0,129.0,27.0,-109.0,-69.0,127.0,127.0,127.0,116.0,87.0,-82.0
125.0,127.0,126.0,127.0,127.0,127.0,106.0,129.0,27.0,-109.0,-69.0,127.0,127.0,127.0,116.0,87.0,-82.0
125.0,127.0,126.0,127.0,127.0,127.0,106.0,129.0,27.0,-109.0,-69.0,127.0,127.0,127.0,116.0,87.0,-82.0
125.0,127.0,125.0,127.0,127.0,127.0,106.0,129.0,27.0,-109.0,-69.0,127.0,127.0,127.0,116.0,87.0,-82.0
124.0,126.0,129.0,128.0,127.0,128.0,107.0,125.0,27.0,-109.0,-69.0,127.0,127.0,127.0,116.0,87.0,-82.0
124.0,125.0,130.0,128.0,127.0,128.0,107.0,126.0,27.0,-109.0,-69.0,127.0,127.0,127.0,116.0,87.0,-82.0
124.0,125.0,131.0,128.0,127.0,128.0,107.0,126.0,27.0,-109.0,-69.0,127.0,127.0,127.0,116.0,87.0,-82.0
125.0,125.0,132.0,128.0,127.0,128.0,108.0,127.0,27.0,-109.0,-69.0,127.0,127.0,127.0,116.0,87.0,-82.0
125.0,125.0,132.0,128.0,127.0,128.0,108.0,127.0,27.0,-109.0,-69.0,127.0,127.0,127.0,116.0,87.0,-82.0
125.0,125.0,132.0,127.0,127.0,128.0,108.0,128.0,27.0,-109.0,-69.0,127.0,127.0,127.0,116.0,87.0,-82.0
125.0,126.0,132.0,127.0,127.0,128.0,108.0,129.0,27.0,-109.0,-69.0,127.0,127.0,127.0,116.0,87.0,-82.0
126.0,126.0,132.0,127.0,127.0,128.0,107.0,130.0,27.0,-109.0,-69.0,127.0,127.0,127.0,116.0,87.0,-82.0
126.0,126.0,131.0,127.0,127.0,128.0,107.0,130.0,27.0,-109.0,-69.0,127.0,127.0,127.0,116.0,87.0,-82.0
126.0,126.0,129.0,127.0,127.0,128.0,107.0,130.0,27.0,-109.0,-69.0,127.0,127.0,127.0,116.0,87.0,-82.0
126.0,126.0,125.0,127.0,126.0,128.0,107.0,130.0,27.0,-109.0,-69.0,127.0,127.0,127.0,116.0,87.0,-82.0
126.0,126.0,125.0,127.0,126.0,128.0,107.0,130.0,27.0,-109.0,-69.0,127.0,127.0,127.0,116.0,87.0,-82.0
126.0,127.0,125.0,128.0,127.0,128.0,107.0,129.0,27.0,-109.0,-69.0,127.0,127.0,127.0,116.0,87.0,-82.0
126.0,127.0,126.0,128.0,127.0,128.0,107.0,129.0,27.0,-109.0,-69.0,127.0,127.0,127.0,116.0,87.0,-82.0
126.0,127.0,125.0,128.0,127.0,128.0,107.0,129.0,27.0,-109.0,-69.0,127.0,127.0,127.0,116.0,87.0,-82.0
126.0,127.0,126.0,128.0,127.0,128.0,108.0,129.0,27.0,-109.0,-69.0,127.0,127.0,127.0,116.0,87.0,-82.0
126.0,127.0,125.0,128.0,127.0,128.0,108.0,129.0,27.0,-109.0,-69.0,127.0,127.0,127.0,116.0,87.0,-82.0
126.0,127.0,125.0,128.0,127.0,128.0,108.0,129.0,27.0,-109.0,-69.0,127.0,127.0,127.0,116.0,87.0,-82.0
126.0,127.0,125.0,128.0,127.0,129.0,109.0,129.0,27.0,-109.0,-69.0,127.0,127.0,127.0,116.0,87.0,-82.0
126.0,126.0,124.0,127.0,126.0,128.0,107.0,130.0,27.0,-109.0,-69.0,127.0,127.0,127.0,116.0,87.0,-82.0
125.0,126.0,124.0,128.0,127.0,127.0,106.0,128.0,27.0,-109.0,-69.0,127.0,127.0,127.0,116.0,87.0,-82.0
125.0,126.0,124.0,128.0,127.0,127.0,106.0,128.0,27.0,-109.0,-69.0,127.0,127.0,127.0,116.0,87.0,-82.0
125.0,126.0,124.0,128.0,127.0,127.0,106.0,128.0,27.0,-109.0,-69.0,127.0,127.0,127.0,116.0,87.0,-82.0
125.0,126.0,125.0,128.0,127.0,127.0,106.0,128.0,27.0,-109.0,-69.0,127.0,127.0,127.0,116.0,87.0,-82.0
125.0,126.0,125.0,128.0,127.0,127.0,107.0,129.0,27.0,-109.0,-69.0,127.0,127.0,127.0,116.0,87.0,-82.0
125.0,126.0,125.0,128.0,127.0,127.0,107.0,129.0,27.0,-109.0,-69.0,127.0,127.0,127.0,116.0,87.0,-82.0
125.0,127.0,125.0,128.0,127.0,127.0,107.0,129.0,27.0,-109.0,-69.0,127.0,127.0,127.0,116.0,87.0,-82.0
125.0,126.0,125.0,127.0,127.0,127.0,107.0,129.0,27.0,-109.0,-69.0,127.0,127.0,127.0,116.0,87.0,-82.0
125.0,126.0,124.0,128.0,127.0,127.0,106.0,128.0,27.0,-109.0,-69.0,127.0,127.0,127.0,116.0,87.0,-82.0
125.0,126.0,124.0,128.0,127.0,127.0,106.0,128.0,27.0,-109.0,-69.0,127.0,127.0,127.0,116.0,87.0,-82.0
125.0,126.0,126.0,127.0,127.0,128.0,107.0,129.0,27.0,-109.0,-69.0,127.0,127.0,127.0,116.0,87.0,-82.0
125.0,126.0,126.0,128.0,127.0,128.0,107.0,129.0,27.0,-109.0,-69.0,127.0,127.0,127.0,116.0,87.0,-82.0
125.0,127.0,126.0,128.0,127.0,128.0,107.0,129.0,27.0,-109.0,-69.0,127.0,127.0,127.0,116.0,87.0,-82.0
125.0,127.0,127.0,129.0,127.0,128.0,107.0,129.0,27.0,-109.0,-69.0,127.0,127.0,127.0,116.0,87.0,-82.0
125.0,127.0,127.0,129.0,127.0,128.0,108.0,129.0,27.0,-109.0,-69.0,127.0,127.0,127.0,116.0,87.0,-82.0
125.0,127.0,127.0,129.0,127.0,128.0,108.0,129.0,27.0,-109.0,-69.0,127.0,127.0,127.0,116.0,87.0,-82.0
125.0,127.0,127.0,129.0,127.0,128.0,107.0,129.0,27.0,-109.0,-69.0,127.0,127.0,127.0,116.0,87.0,-82.0
125.0,126.0,126.0,127.0,126.0,128.0,107.0,129.0,27.0,-109.0,-69.0,127.0,127.0,127.0,116.0,87.0,-82.0
125.0,126.0,126.0,127.0,127.0,128.0,107.0,129.0,27.0,-109.0,-69.0,127.0,127.0,127.0,116.0,87.0,-82.0
125.0,126.0,126.0,127.0,127.0,128.0,108.0,129.0,27.0,-109.0,-69.0,127.0,127.0,127.0,116.0,87.0,-82.0
124.0,126.0,117.0,126.0,126.0,127.0,112.0,130.0,27.0,-109.0,-69.0,127.0,127.0,127.0,116.0,87.0,-82.0
124.0,126.0,117.0,127.0,126.0,127.0,112.0,130.0,27.0,-109.0,-69.0,127.0,127.0,127.0,116.0,87.0,-82.0
124.0,126.0,117.0,129.0,126.0,126.0,112.0,130.0,27.0,-109.0,-69.0,127.0,127.0,127.0,116.0,87.0,-82.0
124.0,127.0,116.0,130.0,126.0,126.0,113.0,130.0,27.0,-109.0,-69.0,127.0,127.0,127.0,116.0,87.0,-82.0
124.0,127.0,116.0,131.0,127.0,126.0,112.0,130.0,27.0,-109.0,-69.0,127.0,127.0,127.0,116.0,87.0,-82.0
124.0,127.0,116.0,131.0,127.0,126.0,113.0,130.0,27.0,-109.0,-69.0,127.0,127.0,127.0,116.0,87.0,-82.0
124.0,126.0,119.0,125.0,126.0,127.0,112.0,129.0,27.0,-109.0,-69.0,127.0,127.0,127.0,116.0,87.0,-82.0
124.0,127.0,118.0,125.0,126.0,127.0,111.0,129.0,27.0,-109.0,-69.0,127.0,127.0,127.0,116.0,87.0,-82.0
124.0,126.0,118.0,125.0,126.0,127.0,113.0,130.0,27.0,-109.0,-69.0,127.0,127.0,127.0,116.0,87.0,-82.0
124.0,126.0,118.0,126.0,126.0,127.0,113.0,130.0,27.0,-109.0,-69.0,127.0,127.0,127.0,116.0,87.0,-82.0
123.0,127.0,116.0,127.0,127.0,128.0,108.0,129.0,27.0,-109.0,-70.0,127.0,127.0,127.0,116.0,87.0,-82.0
123.0,127.0,115.0,127.0,127.0,128.0,108.0,129.0,27.0,-109.0,-70.0,127.0,127.0,127.0,116.0,87.0,-82.0
124.0,127.0,115.0,127.0,127.0,128.0,108.0,129.0,27.0,-109.0,-70.0,127.0,127.0,127.0,116.0,87.0,-82.0
124.0,127.0,114.0,126.0,127.0,128.0,108.0,129.0,27.0,-109.0,-70.0,127.0,127.0,127.0,116.0,87.0,-82.0
124.0,127.0,113.0,125.0,127.0,128.0,107.0,129.0,27.0,-109.0,-70.0,127.0,127.0,127.0,116.0,87.0,-82.0
123.0,126.0,115.0,124.0,125.0,128.0,108.0,129.0,27.0,-109.0,-70.0,127.0,127.0,127.0,116.0,87.0,-82.0
123.0,126.0,115.0,125.0,126.0,128.0,107.0,129.0,27.0,-109.0,-70.0,127.0,127.0,127.0,116.0,87.0,-82.0
123.0,126.0,115.0,126.0,126.0,128.0,108.0,129.0,27.0,-109.0,-70.0,127.0,127.0,127.0,116.0,87.0,-82.0
123.0,126.0,116.0,126.0,126.0,128.0,107.0,129.0,27.0,-109.0,-70.0,127.0,127.0,127.0,116.0,87.0,-82.0
123.0,127.0,116.0,127.0,126.0,128.0,108.0,129.0,27.0,-109.0,-70.0,127.0,127.0,127.0,116.0,87.0,-82.0
124.0,128.0,82.0,128.0,130.0,128.0,107.0,128.0,27.0,-109.0,-70.0,127.0,127.0,127.0,116.0,87.0,-82.0
124.0,128.0,84.0,130.0,130.0,129.0,109.0,128.0,27.0,-109.0,-70.0,127.0,127.0,127.0,116.0,87.0,-82.0
124.0,128.0,85.0,132.0,131.0,129.0,109.0,128.0,27.0,-109.0,-70.0,127.0,127.0,127.0,116.0,87.0,-82.0
124.0,128.0,86.0,133.0,131.0,129.0,109.0,128.0,27.0,-109.0,-70.0,127.0,127.0,127.0,116.0,87.0,-82.0
123.0,127.0,75.0,121.0,128.0,128.0,107.0,127.0,27.0,-109.0,-70.0,127.0,127.0,127.0,116.0,87.0,-82.0
124.0,127.0,75.0,121.0,128.0,128.0,107.0,127.0,27.0,-109.0,-70.0,127.0,127.0,127.0,116.0,87.0,-82.0
123.0,127.0,76.0,121.0,128.0,128.0,108.0,127.0,27.0,-109.0,-70.0,127.0,127.0,127.0,116.0,87.0,-82.0
124.0,127.0,77.0,122.0,129.0,128.0,107.0,127.0,27.0,-109.0,-70.0,127.0,127.0,127.0,116.0,87.0,-82.0
124.0,127.0,79.0,124.0,129.0,128.0,107.0,127.0,27.0,-109.0,-70.0,127.0,127.0,127.0,116.0,87.0,-82.0
124.0,127.0,80.0,126.0,130.0,128.0,107.0,128.0,27.0,-109.0,-70.0,127.0,127.0,127.0,116.0,87.0,-82.0
125.0,127.0,119.0,117.0,126.0,127.0,108.0,126.0,28.0,-109.0,-70.0,127.0,127.0,127.0,116.0,87.0,-82.0
125.0,127.0,119.0,117.0,126.0,127.0,107.0,126.0,28.0,-109.0,-70.0,127.0,127.0,127.0,116.0,87.0,-82.0
125.0,126.0,115.0,123.0,126.0,127.0,107.0,126.0,28.0,-109.0,-70.0,127.0,127.0,127.0,116.0,87.0,-82.0
125.0,126.0,116.0,122.0,126.0,127.0,107.0,126.0,28.0,-109.0,-70.0,127.0,127.0,127.0,116.0,87.0,-82.0
125.0,127.0,117.0,121.0,126.0,127.0,106.0,126.0,28.0,-109.0,-70.0,127.0,127.0,127.0,116.0,87.0,-82.0
125.0,127.0,117.0,120.0,126.0,127.0,106.0,126.0,28.0,-109.0,-70.0,127.0,127.0,127.0,116.0,87.0,-82.0
125.0,127.0,117.0,119.0,126.0,127.0,106.0,126.0,28.0,-109.0,-70.0,127.0,127.0,127.0,116.0,87.0,-82.0
125.0,127.0,118.0,118.0,126.0,127.0,106.0,126.0,28.0,-109.0,-70.0,127.0,127.0,127.0,116.0,87.0,-82.0
125.0,127.0,118.0,117.0,126.0,127.0,106.0,126.0,28.0,-109.0,-70.0,127.0,127.0,127.0,116.0,87.0,-82.0
125.0,127.0,118.0,117.0,126.0,127.0,106.0,126.0,28.0,-109.0,-70.0,127.0,127.0,127.0,116.0,87.0,-82.0
127.0,127.0,139.0,127.0,126.0,127.0,113.0,127.0,28.0,-109.0,-70.0,127.0,127.0,127.0,116.0,87.0,-82.0
127.0,125.0,132.0,131.0,126.0,126.0,112.0,126.0,28.0,-109.0,-70.0,127.0,127.0,127.0,116.0,87.0,-82.0
127.0,126.0,133.0,131.0,126.0,126.0,111.0,126.0,28.0,-109.0,-70.0,127.0,127.0,127.0,116.0,87.0,-82.0
127.0,126.0,134.0,132.0,126.0,127.0,112.0,126.0,28.0,-109.0,-70.0,127.0,127.0,127.0,116.0,87.0,-82.0
127.0,126.0,134.0,132.0,126.0,127.0,112.0,126.0,28.0,-109.0,-70.0,127.0,127.0,127.0,116.0,87.0,-82.0
127.0,126.0,135.0,132.0,126.0,126.0,113.0,127.0,28.0,-109.0,-70.0,127.0,127.0,127.0,116.0,87.0,-82.0
127.0,126.0,136.0,131.0,126.0,126.0,112.0,127.0,28.0,-109.0,-70.0,127.0,127.0,127.0,116.0,87.0,-82.0
127.0,126.0,137.0,130.0,126.0,126.0,112.0,127.0,28.0,-109.0,-70.0,127.0,127.0,127.0,116.0,87.0,-82.0
127.0,126.0,137.0,129.0,126.0,126.0,112.0,127.0,28.0,-109.0,-70.0,127.0,127.0,127.0,116.0,87.0,-82.0
127.0,127.0,138.0,128.0,126.0,127.0,113.0,127.0,28.0,-109.0,-70.0,127.0,127.0,127.0,116.0,87.0,-82.0
129.0,127.0,143.0,129.0,128.0,128.0,107.0,129.0,28.0,-110.0,-69.0,127.0,127.0,127.0,116.0,87.0,-82.0
129.0,127.0,143.0,129.0,128.0,128.0,107.0,129.0,28.0,-110.0,-69.0,127.0,127.0,127.0,116.0,87.0,-82.0
129.0,127.0,143.0,129.0,128.0,128.0,107.0,129.0,28.0,-110.0,-69.0,127.0,127.0,127.0,116.0,87.0,-82.0
129.0,127.0,143.0,128.0,128.0,128.0,107.0,129.0,28.0,-110.0,-69.0,127.0,127.0,127.0,116.0,87.0,-82.0
129.0,126.0,143.0,129.0,127.0,128.0,107.0,129.0,28.0,-110.0,-69.0,127.0,127.0,127.0,116.0,87.0,-82.0
129.0,126.0,143.0,129.0,127.0,127.0,107.0,129.0,28.0,-110.0,-69.0,127.0,127.0,127.0,116.0,87.0,-82.0
129.0,126.0,143.0,129.0,127.0,127.0,106.0,129.0,28.0,-110.0,-69.0,127.0,127.0,127.0,116.0,87.0,-82.0
129.0,126.0,143.0,129.0,127.0,127.0,106.0,129.0,28.0,-110.0,-69.0,127.0,127.0,127.0,116.0,87.0,-82.0
129.0,127.0,144.0,129.0,127.0,127.0,107.0,129.0,28.0,-110.0,-69.0,127.0,127.0,127.0,116.0,87.0,-82.0
129.0,127.0,144.0,129.0,127.0,127.0,107.0,129.0,28.0,-110.0,-69.0,127.0,127.0,127.0,116.0,87.0,-82.0
128.0,127.0,141.0,131.0,127.0,128.0,107.0,129.0,28.0,-109.0,-69.0,127.0,127.0,127.0,116.0,87.0,-82.0
128.0,127.0,141.0,131.0,127.0,129.0,108.0,129.0,28.0,-109.0,-69.0,127.0,127.0,127.0,116.0,87.0,-82.0
128.0,127.0,141.0,131.0,127.0,128.0,108.0,130.0,28.0,-109.0,-69.0,127.0,127.0,127.0,116.0,87.0,-82.0
128.0,127.0,141.0,131.0,127.0,128.0,108.0,130.0,28.0,-109.0,-69.0,127.0,127.0,127.0,116.0,87.0,-82.0
128.0,127.0,141.0,131.0,127.0,128.0,108.0,130.0,28.0,-109.0,-69.0,127.0,127.0,127.0,116.0,87.0,-82.0
128.0,127.0,141.0,131.0,127.0,128.0,108.0,130.0,28.0,-109.0,-69.0,127.0,127.0,127.0,116.0,87.0,-82.0
128.0,127.0,141.0,131.0,127.0,128.0,107.0,130.0,28.0,-109.0,-69.0,127.0,127.0,127.0,116.0,87.0,-82.0
128.0,127.0,141.0,131.0,127.0,128.0,107.0,130.0,28.0,-109.0,-69.0,127.0,127.0,127.0,116.0,87.0,-82.0
128.0,127.0,142.0,132.0,127.0,128.0,107.0,130.0,28.0,-109.0,-69.0,127.0,127.0,127.0,116.0,87.0,-82.0
128.0,127.0,141.0,132.0,127.0,128.0,107.0,130.0,28.0,-109.0,-69.0,127.0,127.0,127.0,116.0,87.0,-82.0
127.0,127.0,140.0,126.0,127.0,129.0,108.0,132.0,28.0,-109.0,-69.0,127.0,127.0,127.0,116.0,87.0,-82.0
127.0,127.0,140.0,127.0,127.0,129.0,108.0,132.0,28.0,-109.0,-69.0,127.0,127.0,127.0,116.0,87.0,-82.0
127.0,127.0,140.0,127.0,127.0,128.0,108.0,132.0,28.0,-109.0,-69.0,127.0,127.0,127.0,116.0,87.0,-82.0
126.0,127.0,140.0,127.0,127.0,128.0,108.0,132.0,28.0,-109.0,-69.0,127.0,127.0,127.0,116.0,87.0,-82.0
126.0,127.0,140.0,127.0,127.0,128.0,108.0,132.0,28.0,-109.0,-69.0,127.0,127.0,127.0,116.0,87.0,-82.0
126.0,127.0,140.0,126.0,127.0,128.0,108.0,132.0,28.0,-109.0,-69.0,127.0,127.0,127.0,116.0,87.0,-82.0
126.0,127.0,139.0,125.0,127.0,128.0,107.0,132.0,28.0,-109.0,-69.0,127.0,127.0,127.0,116.0,87.0,-82.0
126.0,127.0,139.0,123.0,127.0,128.0,108.0,132.0,28.0,-109.0,-69.0,127.0,127.0,127.0,116.0,87.0,-82.0
127.0,127.0,139.0,124.0,127.0,128.0,108.0,131.0,28.0,-109.0,-69.0,127.0,127.0,127.0,116.0,87.0,-82.0
127.0,127.0,139.0,125.0,127.0,128.0,108.0,131.0,28.0,-109.0,-69.0,127.0,127.0,127.0,116.0,87.0,-82.0
125.0,127.0,137.0,125.0,126.0,128.0,107.0,133.0,27.0,-109.0,-68.0,127.0,127.0,127.0,116.0,87.0,-82.0
125.0,127.0,137.0,125.0,126.0,128.0,107.0,133.0,27.0,-109.0,-68.0,127.0,127.0,127.0,116.0,87.0,-82.0
125.0,127.0,137.0,126.0,126.0,128.0,107.0,133.0,27.0,-109.0,-68.0,127.0,127.0,127.0,116.0,87.0,-82.0
125.0,127.0,137.0,126.0,126.0,128.0,107.0,133.0,27.0,-109.0,-68.0,127.0,127.0,127.0,116.0,87.0,-82.0
125.0,127.0,137.0,126.0,126.0,128.0,107.0,134.0,27.0,-109.0,-68.0,127.0,127.0,127.0,116.0,87.0,-82.0
126.0,127.0,137.0,126.0,126.0,128.0,107.0,133.0,27.0,-109.0,-68.0,127.0,127.0,127.0,116.0,87.0,-82.0
126.0,127.0,137.0,126.0,126.0,128.0,107.0,134.0,27.0,-109.0,-68.0,127.0,127.0,127.0,116.0,87.0,-82.0
125.0,127.0,137.0,125.0,126.0,127.0,106.0,133.0,27.0,-109.0,-68.0,127.0,127.0,127.0,116.0,87.0,-82.0
125.0,127.0,136.0,125.0,126.0,127.0,107.0,133.0,27.0,-109.0,-68.0,127.0,127.0,127.0,116.0,87.0,-82.0
125.0,127.0,137.0,125.0,126.0,128.0,107.0,133.0,27.0,-109.0,-68.0,127.0,127.0,127.0,116.0,87.0,-82.0
127.0,127.0,135.0,126.0,127.0,123.0,107.0,140.0,27.0,-109.0,-68.0,127.0,127.0,127.0,116.0,87.0,-82.0
127.0,127.0,135.0,126.0,127.0,123.0,106.0,140.0,27.0,-109.0,-68.0,127.0,127.0,127.0,116.0,87.0,-82.0
127.0,127.0,135.0,126.0,127.0,123.0,106.0,140.0,27.0,-109.0,-68.0,127.0,127.0,127.0,116.0,87.0,-82.0
127.0,127.0,135.0,125.0,127.0,123.0,106.0,141.0,27.0,-109.0,-68.0,127.0,127.0,127.0,116.0,87.0,-82.0
127.0,128.0,135.0,125.0,127.0,123.0,106.0,141.0,27.0,-109.0,-68.0,127.0,127.0,127.0,116.0,87.0,-82.0
127.0,128.0,135.0,125.0,127.0,123.0,106.0,141.0,27.0,-109.0,-68.0,127.0,127.0,127.0,116.0,87.0,-82.0
127.0,127.0,134.0,126.0,126.0,123.0,107.0,139.0,27.0,-109.0,-68.0,127.0,127.0,127.0,116.0,87.0,-82.0
127.0,127.0,135.0,126.0,126.0,123.0,107.0,139.0,27.0,-109.0,-68.0,127.0,127.0,127.0,116.0,87.0,-82.0
127.0,127.0,135.0,126.0,126.0,123.0,107.0,140.0,27.0,-109.0,-68.0,127.0,127.0,127.0,116.0,87.0,-82.0
127.0,127.0,135.0,126.0,127.0,123.0,107.0,140.0,27.0,-109.0,-68.0,127.0,127.0,127.0,116.0,87.0,-82.0
133.0,128.0,137.0,125.0,126.0,120.0,101.0,138.0,27.0,-109.0,-68.0,127.0,127.0,127.0,116.0,87.0,-82.0
133.0,128.0,137.0,125.0,126.0,120.0,101.0,138.0,27.0,-109.0,-68.0,127.0,127.0,127.0,116.0,87.0,-82.0
133.0,128.0,137.0,125.0,126.0,120.0,101.0,138.0,27.0,-109.0,-68.0,127.0,127.0,127.0,116.0,87.0,-82.0
133.0,128.0,137.0,125.0,126.0,120.0,101.0,137.0,27.0,-109.0,-68.0,127.0,127.0,127.0,116.0,87.0,-82.0
134.0,128.0,138.0,125.0,127.0,120.0,102.0,137.0,27.0,-109.0,-68.0,127.0,127.0,127.0,116.0,87.0,-82.0
133.0,128.0,138.0,126.0,127.0,120.0,101.0,138.0,27.0,-109.0,-68.0,127.0,127.0,127.0,116.0,87.0,-82.0
133.0,128.0,138.0,125.0,127.0,120.0,101.0,138.0,27.0,-109.0,-68.0,127.0,127.0,127.0,116.0,87.0,-82.0
133.0,128.0,137.0,125.0,126.0,120.0,100.0,138.0,27.0,-109.0,-68.0,127.0,127.0,127.0,116.0,87.0,-82.0
133.0,128.0,137.0,125.0,126.0,120.0,100.0,138.0,27.0,-109.0,-68.0,127.0,127.0,127.0,116.0,87.0,-82.0
133.0,128.0,137.0,125.0,126.0,120.0,100.0,138.0,27.0,-109.0,-68.0,127.0,127.0,127.0,116.0,87.0,-82.0
134.0,127.0,133.0,127.0,127.0,125.0,109.0,133.0,27.0,-109.0,-68.0,127.0,127.0,127.0,116.0,87.0,-82.0
133.0,127.0,133.0,127.0,127.0,125.0,109.0,133.0,27.0,-109.0,-68.0,127.0,127.0,127.0,116.0,87.0,-82.0
133.0,126.0,132.0,127.0,127.0,124.0,109.0,133.0,27.0,-109.0,-68.0,127.0,127.0,127.0,116.0,87.0,-82.0
133.0,126.0,132.0,127.0,127.0,124.0,109.0,133.0,27.0,-109.0,-68.0,127.0,127.0,127.0,116.0,87.0,-82.0
134.0,127.0,132.0,120.0,126.0,124.0,109.0,133.0,27.0,-109.0,-68.0,127.0,127.0,127.0,116.0,87.0,-82.0
134.0,127.0,133.0,121.0,126.0,124.0,109.0,133.0,27.0,-109.0,-68.0,127.0,127.0,127.0,116.0,87.0,-82.0
