emg1,emg2,emg3,emg4,emg5,emg6,emg7,emg8,acc_x,acc_y,acc_z,gyro_x,gyro_y,gyro_z,angle_pitch,angle_roll,angle_yaw
126.0,127.0,127.0,127.0,127.0,127.0,112.0,128.0,20.0,-104.0,-80.0,127.0,127.0,127.0,109.0,85.0,-103.0
127.0,127.0,127.0,127.0,127.0,127.0,112.0,128.0,20.0,-104.0,-80.0,127.0,127.0,127.0,109.0,85.0,-103.0
126.0,127.0,127.0,128.0,127.0,127.0,111.0,128.0,20.0,-104.0,-80.0,127.0,127.0,127.0,109.0,85.0,-103.0
126.0,127.0,127.0,128.0,127.0,127.0,112.0,128.0,20.0,-104.0,-80.0,127.0,127.0,127.0,109.0,85.0,-103.0
126.0,127.0,127.0,128.0,127.0,127.0,113.0,128.0,20.0,-104.0,-80.0,127.0,127.0,127.0,109.0,85.0,-103.0
126.0,127.0,127.0,128.0,127.0,127.0,113.0,128.0,20.0,-104.0,-80.0,127.0,127.0,127.0,109.0,85.0,-103.0
127.0,127.0,127.0,128.0,127.0,127.0,113.0,128.0,20.0,-104.0,-80.0,127.0,127.0,127.0,109.0,85.0,-103.0
127.0,127.0,127.0,128.0,127.0,127.0,113.0,128.0,20.0,-104.0,-80.0,127.0,127.0,127.0,109.0,85.0,-103.0
126.0,127.0,127.0,128.0,127.0,127.0,113.0,128.0,20.0,-104.0,-80.0,127.0,127.0,127.0,109.0,85.0,-103.0
126.0,127.0,127.0,128.0,127.0,127.0,112.0,128.0,20.0,-104.0,-80.0,127.0,127.0,127.0,109.0,85.0,-103.0
127.0,127.0,127.0,127.0,127.0,127.0,112.0,128.0,20.0,-104.0,-80.0,127.0,127.0,127.0,109.0,85.0,-103.0
127.0,127.0,127.0,128.0,127.0,127.0,109.0,128.0,20.0,-104.0,-80.0,127.0,127.0,127.0,109.0,85.0,-103.0
126.0,128.0,127.0,128.0,127.0,127.0,113.0,128.0,20.0,-104.0,-80.0,127.0,127.0,127.0,109.0,85.0,-103.0
126.0,128.0,127.0,128.0,127.0,127.0,113.0,128.0,20.0,-104.0,-80.0,127.0,127.0,127.0,109.0,85.0,-103.0
127.0,127.0,127.0,128.0,127.0,127.0,113.0,128.0,20.0,-104.0,-80.0,127.0,127.0,127.0,109.0,85.0,-103.0
127.0,127.0,127.0,128.0,127.0,127.0,113.0,128.0,20.0,-104.0,-80.0,127.0,127.0,127.0,109.0,85.0,-103.0
127.0,127.0,127.0,128.0,127.0,127.0,113.0,128.0,20.0,-104.0,-80.0,127.0,127.0,127.0,109.0,85.0,-103.0
127.0,127.0,127.0,128.0,127.0,127.0,113.0,128.0,20.0,-104.0,-80.0,127.0,127.0,127.0,109.0,85.0,-103.0
127.0,127.0,127.0,128.0,127.0,127.0,113.0,128.0,20.0,-104.0,-80.0,127.0,127.0,127.0,109.0,85.0,-103.0
127.0,127.0,127.0,127.0,127.0,127.0,112.0,128.0,20.0,-104.0,-80.0,127.0,127.0,127.0,109.0,85.0,-103.0
126.0,127.0,127.0,128.0,127.0,127.0,114.0,128.0,20.0,-104.0,-80.0,127.0,127.0,127.0,109.0,85.0,-103.0
126.0,127.0,127.0,128.0,127.0,127.0,113.0,128.0,20.0,-104.0,-80.0,127.0,127.0,127.0,109.0,85.0,-103.0
127.0,127.0,127.0,128.0,127.0,127.0,113.0,128.0,20.0,-104.0,-80.0,127.0,127.0,127.0,109.0,85.0,-103.0
126.0,127.0,127.0,128.0,127.0,127.0,113.0,128.0,20.0,-104.0,-80.0,127.0,127.0,127.0,109.0,85.0,-103.0
127.0,127.0,127.0,128.0,127.0,127.0,113.0,128.0,20.0,-104.0,-80.0,127.0,127.0,127.0,109.0,85.0,-103.0
127.0,127.0,127.0,128.0,127.0,127.0,113.0,128.0,20.0,-104.0,-80.0,127.0,127.0,127.0,109.0,85.0,-103.0
127.0,127.0,127.0,128.0,127.0,127.0,113.0,128.0,20.0,-104.0,-80.0,127.0,127.0,127.0,109.0,85.0,-103.0
127.0,127.0,127.0,128.0,127.0,127.0,113.0,128.0,20.0,-104.0,-80.0,127.0,127.0,127.0,109.0,85.0,-103.0
127.0,127.0,127.0,127.0,127.0,127.0,112.0,128.0,20.0,-104.0,-80.0,127.0,127.0,127.0,109.0,85.0,-103.0
127.0,127.0,127.0,127.0,127.0,127.0,112.0,128.0,20.0,-104.0,-80.0,127.0,127.0,127.0,109.0,85.0,-103.0
126.0,127.0,127.0,128.0,127.0,127.0,107.0,128.0,20.0,-104.0,-80.0,127.0,127.0,127.0,109.0,85.0,-103.0
127.0,127.0,127.0,128.0,128.0,127.0,106.0,128.0,20.0,-104.0,-80.0,127.0,127.0,127.0,109.0,85.0,-103.0
127.0,127.0,127.0,128.0,127.0,127.0,106.0,128.0,20.0,-104.0,-80.0,127.0,127.0,127.0,109.0,85.0,-103.0
127.0,127.0,127.0,128.0,127.0,127.0,106.0,128.0,20.0,-104.0,-80.0,127.0,127.0,127.0,109.0,85.0,-103.0
127.0,127.0,127.0,128.0,127.0,127.0,106.0,128.0,20.0,-104.0,-80.0,127.0,127.0,127.0,109.0,85.0,-103.0
127.0,127.0,127.0,128.0,127.0,127.0,106.0,128.0,20.0,-104.0,-80.0,127.0,127.0,127.0,109.0,85.0,-103.0
127.0,127.0,127.0,128.0,127.0,127.0,107.0,128.0,20.0,-104.0,-80.0,127.0,127.0,127.0,109.0,85.0,-103.0
127.0,127.0,127.0,127.0,127.0,127.0,112.0,128.0,20.0,-104.0,-80.0,127.0,127.0,127.0,109.0,85.0,-103.0
127.0,127.0,127.0,127.0,127.0,127.0,113.0,128.0,20.0,-104.0,-80.0,127.0,127.0,127.0,109.0,85.0,-103.0
127.0,127.0,127.0,128.0,127.0,127.0,106.0,128.0,20.0,-104.0,-80.0,127.0,127.0,127.0,109.0,85.0,-103.0
126.0,128.0,127.0,128.0,127.0,127.0,112.0,128.0,20.0,-104.0,-80.0,127.0,127.0,127.0,109.0,85.0,-103.0
126.0,128.0,127.0,128.0,127.0,127.0,113.0,128.0,20.0,-104.0,-80.0,127.0,127.0,127.0,109.0,85.0,-103.0
126.0,127.0,127.0,128.0,127.0,127.0,113.0,128.0,20.0,-104.0,-80.0,127.0,127.0,127.0,109.0,85.0,-103.0
126.0,127.0,127.0,128.0,127.0,127.0,113.0,128.0,20.0,-104.0,-80.0,127.0,127.0,127.0,109.0,85.0,-103.0
126.0,127.0,127.0,128.0,127.0,127.0,113.0,128.0,20.0,-104.0,-80.0,127.0,127.0,127.0,109.0,85.0,-103.0
126.0,127.0,127.0,128.0,127.0,127.0,113.0,128.0,20.0,-104.0,-80.0,127.0,127.0,127.0,109.0,85.0,-103.0
126.0,127.0,127.0,127.0,127.0,127.0,113.0,128.0,20.0,-104.0,-80.0,127.0,127.0,127.0,109.0,85.0,-103.0
126.0,127.0,127.0,127.0,127.0,127.0,113.0,128.0,20.0,-104.0,-80.0,127.0,127.0,127.0,109.0,85.0,-103.0
126.0,128.0,127.0,128.0,127.0,127.0,111.0,128.0,20.0,-104.0,-80.0,127.0,127.0,127.0,109.0,85.0,-103.0
126.0,128.0,127.0,128.0,127.0,127.0,110.0,128.0,20.0,-104.0,-80.0,127.0,127.0,127.0,109.0,85.0,-103.0
127.0,128.0,127.0,128.0,127.0,127.0,111.0,128.0,20.0,-104.0,-80.0,127.0,127.0,127.0,109.0,85.0,-103.0
126.0,128.0,127.0,128.0,127.0,127.0,111.0,128.0,20.0,-104.0,-80.0,127.0,127.0,127.0,109.0,85.0,-103.0
127.0,128.0,127.0,128.0,127.0,127.0,109.0,128.0,20.0,-104.0,-80.0,127.0,127.0,127.0,109.0,85.0,-103.0
127.0,127.0,127.0,128.0,127.0,127.0,110.0,128.0,20.0,-104.0,-80.0,127.0,127.0,127.0,109.0,85.0,-103.0
126.0,128.0,127.0,128.0,127.0,127.0,111.0,128.0,20.0,-104.0,-80.0,127.0,127.0,127.0,109.0,85.0,-103.0
126.0,127.0,127.0,128.0,127.0,127.0,112.0,128.0,20.0,-104.0,-80.0,127.0,127.0,127.0,109.0,85.0,-103.0
127.0,127.0,127.0,128.0,127.0,127.0,113.0,128.0,20.0,-104.0,-80.0,127.0,127.0,127.0,109.0,85.0,-103.0
126.0,128.0,127.0,128.0,127.0,127.0,106.0,128.0,20.0,-104.0,-80.0,127.0,127.0,127.0,109.0,85.0,-103.0
127.0,128.0,127.0,128.0,127.0,127.0,106.0,128.0,20.0,-104.0,-80.0,127.0,127.0,127.0,109.0,85.0,-103.0
126.0,128.0,127.0,128.0,127.0,127.0,110.0,128.0,20.0,-104.0,-80.0,127.0,127.0,127.0,109.0,85.0,-103.0
127.0,127.0,127.0,128.0,127.0,127.0,106.0,128.0,20.0,-104.0,-80.0,127.0,127.0,127.0,109.0,85.0,-103.0
127.0,127.0,127.0,128.0,127.0,127.0,112.0,128.0,20.0,-104.0,-80.0,127.0,127.0,127.0,109.0,85.0,-103.0
127.0,127.0,127.0,128.0,127.0,127.0,113.0,128.0,20.0,-104.0,-80.0,127.0,127.0,127.0,109.0,85.0,-103.0
127.0,127.0,127.0,128.0,127.0,127.0,114.0,128.0,20.0,-104.0,-80.0,127.0,127.0,127.0,109.0,85.0,-103.0
127.0,127.0,127.0,128.0,127.0,127.0,113.0,128.0,20.0,-104.0,-80.0,127.0,127.0,127.0,109.0,85.0,-103.0
127.0,127.0,127.0,128.0,127.0,127.0,113.0,128.0,20.0,-104.0,-80.0,127.0,127.0,127.0,109.0,85.0,-103.0
127.0,127.0,127.0,129.0,127.0,127.0,106.0,128.0,20.0,-104.0,-80.0,127.0,127.0,127.0,109.0,85.0,-103.0
127.0,127.0,127.0,129.0,127.0,127.0,106.0,128.0,20.0,-104.0,-80.0,127.0,127.0,127.0,109.0,85.0,-103.0
127.0,127.0,127.0,129.0,127.0,127.0,106.0,128.0,20.0,-104.0,-80.0,127.0,127.0,127.0,109.0,85.0,-103.0
127.0,127.0,127.0,128.0,127.0,127.0,107.0,128.0,20.0,-104.0,-80.0,127.0,127.0,127.0,109.0,85.0,-103.0
127.0,127.0,127.0,128.0,127.0,127.0,112.0,128.0,20.0,-104.0,-80.0,127.0,127.0,127.0,109.0,85.0,-103.0
127.0,128.0,127.0,128.0,127.0,127.0,112.0,128.0,20.0,-104.0,-80.0,127.0,127.0,127.0,109.0,85.0,-103.0
127.0,127.0,127.0,128.0,127.0,127.0,111.0,128.0,20.0,-104.0,-80.0,127.0,127.0,127.0,109.0,85.0,-103.0
127.0,127.0,127.0,128.0,127.0,127.0,113.0,128.0,20.0,-104.0,-80.0,127.0,127.0,127.0,109.0,85.0,-103.0
127.0,127.0,127.0,127.0,127.0,127.0,112.0,128.0,20.0,-104.0,-80.0,127.0,127.0,127.0,109.0,85.0,-103.0
126.0,128.0,127.0,128.0,127.0,127.0,111.0,128.0,20.0,-104.0,-80.0,127.0,127.0,127.0,109.0,85.0,-103.0
126.0,128.0,127.0,128.0,127.0,127.0,108.0,128.0,20.0,-104.0,-80.0,127.0,127.0,127.0,109.0,85.0,-103.0
126.0,128.0,127.0,128.0,127.0,127.0,107.0,128.0,20.0,-104.0,-80.0,127.0,127.0,127.0,109.0,85.0,-103.0
126.0,128.0,127.0,128.0,127.0,127.0,111.0,128.0,20.0,-104.0,-80.0,127.0,127.0,127.0,109.0,85.0,-103.0
127.0,128.0,127.0,128.0,127.0,127.0,109.0,128.0,20.0,-104.0,-80.0,127.0,127.0,127.0,109.0,85.0,-103.0
126.0,127.0,127.0,128.0,127.0,127.0,113.0,128.0,20.0,-104.0,-80.0,127.0,127.0,127.0,109.0,85.0,-103.0
127.0,127.0,127.0,128.0,127.0,127.0,113.0,128.0,20.0,-104.0,-80.0,127.0,127.0,127.0,109.0,85.0,-103.0
127.0,127.0,127.0,128.0,127.0,127.0,113.0,128.0,20.0,-104.0,-80.0,127.0,127.0,127.0,109.0,85.0,-103.0
127.0,127.0,127.0,128.0,127.0,127.0,113.0,128.0,20.0,-104.0,-80.0,127.0,127.0,127.0,109.0,85.0,-103.0
126.0,128.0,127.0,129.0,127.0,127.0,112.0,128.0,20.0,-104.0,-80.0,127.0,127.0,127.0,109.0,85.0,-103.0
126.0,128.0,127.0,129.0,127.0,127.0,110.0,128.0,20.0,-104.0,-80.0,127.0,127.0,127.0,109.0,85.0,-103.0
127.0,128.0,127.0,129.0,127.0,127.0,107.0,128.0,20.0,-104.0,-80.0,127.0,127.0,127.0,109.0,85.0,-103.0
127.0,127.0,127.0,128.0,127.0,127.0,109.0,128.0,20.0,-104.0,-80.0,127.0,127.0,127.0,109.0,85.0,-103.0
127.0,127.0,127.0,128.0,127.0,127.0,111.0,128.0,20.0,-104.0,-80.0,127.0,127.0,127.0,109.0,85.0,-103.0
127.0,127.0,127.0,128.0,127.0,127.0,111.0,128.0,20.0,-104.0,-80.0,127.0,127.0,127.0,109.0,85.0,-103.0
126.0,127.0,127.0,128.0,127.0,127.0,113.0,128.0,20.0,-104.0,-80.0,127.0,127.0,127.0,109.0,85.0,-103.0
127.0,127.0,127.0,128.0,127.0,127.0,113.0,128.0,20.0,-104.0,-80.0,127.0,127.0,127.0,109.0,85.0,-103.0
127.0,127.0,127.0,128.0,127.0,127.0,112.0,128.0,20.0,-104.0,-80.0,127.0,127.0,127.0,109.0,85.0,-103.0
126.0,128.0,127.0,128.0,127.0,127.0,107.0,128.0,20.0,-104.0,-80.0,127.0,127.0,127.0,109.0,85.0,-103.0
126.0,128.0,127.0,128.0,127.0,127.0,106.0,128.0,20.0,-104.0,-80.0,127.0,127.0,127.0,109.0,85.0,-103.0
126.0,128.0,127.0,128.0,127.0,127.0,106.0,128.0,20.0,-104.0,-80.0,127.0,127.0,127.0,109.0,85.0,-103.0
126.0,127.0,127.0,128.0,127.0,127.0,106.0,128.0,20.0,-104.0,-80.0,127.0,127.0,127.0,109.0,85.0,-103.0
126.0,127.0,127.0,128.0,127.0,127.0,107.0,128.0,20.0,-104.0,-80.0,127.0,127.0,127.0,109.0,85.0,-103.0
126.0,127.0,127.0,128.0,127.0,127.0,109.0,128.0,20.0,-104.0,-80.0,127.0,127.0,127.0,109.0,85.0,-103.0
126.0,127.0,127.0,128.0,127.0,127.0,112.0,128.0,20.0,-104.0,-80.0,127.0,127.0,127.0,109.0,85.0,-103.0
127.0,127.0,127.0,128.0,127.0,127.0,114.0,128.0,20.0,-104.0,-80.0,127.0,127.0,127.0,109.0,85.0,-103.0
126.0,128.0,127.0,128.0,127.0,127.0,108.0,128.0,20.0,-104.0,-80.0,127.0,127.0,127.0,109.0,85.0,-103.0
126.0,128.0,127.0,128.0,127.0,127.0,110.0,128.0,20.0,-104.0,-80.0,127.0,127.0,127.0,109.0,85.0,-103.0
126.0,128.0,127.0,128.0,127.0,127.0,110.0,128.0,20.0,-104.0,-80.0,127.0,127.0,127.0,109.0,85.0,-103.0
126.0,128.0,127.0,128.0,127.0,127.0,107.0,128.0,20.0,-104.0,-80.0,127.0,127.0,127.0,109.0,85.0,-103.0
126.0,128.0,127.0,128.0,127.0,127.0,110.0,128.0,20.0,-104.0,-80.0,127.0,127.0,127.0,109.0,85.0,-103.0
126.0,128.0,127.0,128.0,127.0,127.0,110.0,128.0,20.0,-104.0,-80.0,127.0,127.0,127.0,109.0,85.0,-103.0
126.0,128.0,127.0,128.0,127.0,127.0,111.0,128.0,20.0,-104.0,-80.0,127.0,127.0,127.0,109.0,85.0,-103.0
127.0,128.0,127.0,128.0,127.0,127.0,112.0,128.0,20.0,-104.0,-80.0,127.0,127.0,127.0,109.0,85.0,-103.0
127.0,127.0,127.0,128.0,127.0,127.0,113.0,128.0,20.0,-104.0,-80.0,127.0,127.0,127.0,109.0,85.0,-103.0
126.0,128.0,127.0,128.0,127.0,127.0,112.0,128.0,20.0,-104.0,-80.0,127.0,127.0,127.0,109.0,85.0,-103.0
126.0,128.0,127.0,128.0,127.0,127.0,113.0,128.0,20.0,-104.0,-80.0,127.0,127.0,127.0,109.0,85.0,-103.0
126.0,128.0,127.0,128.0,127.0,127.0,113.0,128.0,20.0,-104.0,-80.0,127.0,127.0,127.0,109.0,85.0,-103.0
126.0,128.0,127.0,128.0,127.0,127.0,113.0,128.0,20.0,-104.0,-80.0,127.0,127.0,127.0,109.0,85.0,-103.0
126.0,128.0,127.0,128.0,127.0,127.0,113.0,128.0,20.0,-104.0,-80.0,127.0,127.0,127.0,109.0,85.0,-103.0
126.0,128.0,127.0,128.0,127.0,127.0,113.0,128.0,20.0,-104.0,-80.0,127.0,127.0,127.0,109.0,85.0,-103.0
126.0,128.0,127.0,128.0,127.0,127.0,114.0,128.0,20.0,-104.0,-80.0,127.0,127.0,127.0,109.0,85.0,-103.0
126.0,128.0,127.0,128.0,127.0,127.0,113.0,128.0,20.0,-104.0,-80.0,127.0,127.0,127.0,109.0,85.0,-103.0
126.0,127.0,127.0,128.0,127.0,127.0,113.0,128.0,20.0,-104.0,-80.0,127.0,127.0,127.0,109.0,85.0,-103.0
126.0,127.0,127.0,128.0,127.0,127.0,113.0,128.0,20.0,-104.0,-80.0,127.0,127.0,127.0,109.0,85.0,-103.0
126.0,128.0,127.0,128.0,127.0,127.0,112.0,128.0,20.0,-104.0,-80.0,127.0,127.0,127.0,109.0,85.0,-103.0
126.0,128.0,127.0,128.0,127.0,127.0,112.0,128.0,20.0,-104.0,-80.0,127.0,127.0,127.0,109.0,85.0,-103.0
127.0,128.0,127.0,128.0,127.0,127.0,109.0,128.0,20.0,-104.0,-80.0,127.0,127.0,127.0,109.0,85.0,-103.0
127.0,128.0,127.0,128.0,127.0,127.0,106.0,128.0,20.0,-104.0,-80.0,127.0,127.0,127.0,109.0,85.0,-103.0
127.0,127.0,127.0,128.0,127.0,127.0,107.0,128.0,20.0,-104.0,-80.0,127.0,127.0,127.0,109.0,85.0,-103.0
127.0,127.0,127.0,128.0,127.0,127.0,106.0,128.0,20.0,-104.0,-80.0,127.0,127.0,127.0,109.0,85.0,-103.0
127.0,127.0,127.0,128.0,127.0,127.0,111.0,128.0,20.0,-104.0,-80.0,127.0,127.0,127.0,109.0,85.0,-103.0
127.0,127.0,127.0,128.0,127.0,127.0,112.0,128.0,20.0,-104.0,-80.0,127.0,127.0,127.0,109.0,85.0,-103.0
127.0,127.0,127.0,128.0,127.0,127.0,110.0,128.0,20.0,-104.0,-80.0,127.0,127.0,127.0,109.0,85.0,-103.0
126.0,128.0,127.0,128.0,127.0,127.0,109.0,128.0,20.0,-104.0,-80.0,127.0,127.0,127.0,109.0,85.0,-103.0
127.0,128.0,127.0,128.0,127.0,127.0,112.0,128.0,20.0,-104.0,-80.0,127.0,127.0,127.0,109.0,85.0,-103.0
126.0,128.0,127.0,128.0,127.0,127.0,113.0,128.0,20.0,-104.0,-80.0,127.0,127.0,127.0,109.0,85.0,-103.0
127.0,127.0,127.0,128.0,127.0,127.0,113.0,128.0,20.0,-104.0,-80.0,127.0,127.0,127.0,109.0,85.0,-103.0
127.0,127.0,127.0,128.0,127.0,127.0,112.0,128.0,20.0,-104.0,-80.0,127.0,127.0,127.0,109.0,85.0,-103.0
127.0,127.0,127.0,128.0,127.0,127.0,113.0,128.0,20.0,-104.0,-80.0,127.0,127.0,127.0,109.0,85.0,-103.0
127.0,127.0,127.0,128.0,127.0,127.0,113.0,128.0,20.0,-104.0,-80.0,127.0,127.0,127.0,109.0,85.0,-103.0
127.0,127.0,127.0,128.0,127.0,127.0,113.0,128.0,20.0,-104.0,-80.0,127.0,127.0,127.0,109.0,85.0,-103.0
127.0,127.0,127.0,128.0,127.0,127.0,112.0,128.0,20.0,-104.0,-80.0,127.0,127.0,127.0,109.0,85.0,-103.0
126.0,127.0,127.0,128.0,127.0,127.0,111.0,128.0,20.0,-104.0,-80.0,127.0,127.0,127.0,109.0,85.0,-103.0
126.0,128.0,127.0,128.0,127.0,127.0,112.0,128.0,20.0,-104.0,-80.0,127.0,127.0,127.0,109.0,85.0,-103.0
126.0,127.0,127.0,129.0,127.0,127.0,106.0,128.0,20.0,-104.0,-80.0,127.0,127.0,127.0,109.0,85.0,-103.0
126.0,127.0,127.0,129.0,127.0,127.0,105.0,128.0,20.0,-104.0,-80.0,127.0,127.0,127.0,109.0,85.0,-103.0
126.0,127.0,127.0,129.0,127.0,127.0,107.0,128.0,20.0,-104.0,-80.0,127.0,127.0,127.0,109.0,85.0,-103.0
126.0,127.0,127.0,128.0,127.0,127.0,107.0,128.0,20.0,-104.0,-80.0,127.0,127.0,127.0,109.0,85.0,-103.0
126.0,127.0,127.0,128.0,127.0,127.0,111.0,128.0,20.0,-104.0,-80.0,127.0,127.0,127.0,109.0,85.0,-103.0
126.0,127.0,127.0,128.0,127.0,127.0,113.0,128.0,20.0,-104.0,-80.0,127.0,127.0,127.0,109.0,85.0,-103.0
126.0,127.0,127.0,128.0,127.0,127.0,114.0,128.0,20.0,-104.0,-80.0,127.0,127.0,127.0,109.0,85.0,-103.0
126.0,128.0,127.0,129.0,127.0,127.0,107.0,128.0,20.0,-104.0,-80.0,127.0,127.0,127.0,109.0,85.0,-103.0
126.0,127.0,127.0,129.0,127.0,127.0,106.0,128.0,20.0,-104.0,-80.0,127.0,127.0,127.0,109.0,85.0,-103.0
126.0,128.0,127.0,129.0,127.0,127.0,107.0,128.0,20.0,-104.0,-80.0,127.0,127.0,127.0,109.0,85.0,-103.0
126.0,127.0,127.0,128.0,127.0,127.0,111.0,128.0,20.0,-104.0,-79.0,127.0,127.0,127.0,109.0,85.0,-103.0
126.0,127.0,127.0,128.0,127.0,127.0,112.0,128.0,20.0,-104.0,-79.0,127.0,127.0,127.0,109.0,85.0,-103.0
126.0,127.0,127.0,128.0,127.0,127.0,114.0,128.0,20.0,-104.0,-79.0,127.0,127.0,127.0,109.0,85.0,-103.0
126.0,127.0,127.0,128.0,127.0,127.0,114.0,128.0,20.0,-104.0,-79.0,127.0,127.0,127.0,109.0,85.0,-103.0
126.0,127.0,127.0,128.0,127.0,127.0,114.0,128.0,20.0,-104.0,-79.0,127.0,127.0,127.0,109.0,85.0,-103.0
126.0,127.0,127.0,128.0,127.0,127.0,114.0,128.0,20.0,-104.0,-79.0,127.0,127.0,127.0,109.0,85.0,-103.0
126.0,128.0,127.0,128.0,127.0,127.0,113.0,128.0,20.0,-104.0,-79.0,127.0,127.0,127.0,109.0,85.0,-103.0
126.0,127.0,127.0,128.0,127.0,127.0,113.0,128.0,20.0,-104.0,-79.0,127.0,127.0,127.0,109.0,85.0,-103.0
126.0,127.0,127.0,128.0,127.0,127.0,113.0,128.0,20.0,-104.0,-79.0,127.0,127.0,127.0,109.0,85.0,-103.0
126.0,127.0,127.0,128.0,127.0,127.0,110.0,128.0,20.0,-104.0,-79.0,127.0,127.0,127.0,109.0,85.0,-103.0
127.0,128.0,127.0,128.0,127.0,127.0,109.0,128.0,20.0,-104.0,-79.0,127.0,127.0,127.0,109.0,85.0,-103.0
127.0,128.0,127.0,128.0,127.0,127.0,108.0,128.0,20.0,-104.0,-79.0,127.0,127.0,127.0,109.0,85.0,-103.0
127.0,128.0,127.0,128.0,127.0,127.0,106.0,128.0,20.0,-104.0,-79.0,127.0,127.0,127.0,109.0,85.0,-103.0
127.0,128.0,127.0,128.0,127.0,127.0,107.0,128.0,20.0,-104.0,-79.0,127.0,127.0,127.0,109.0,85.0,-103.0
127.0,128.0,127.0,128.0,127.0,127.0,108.0,128.0,20.0,-104.0,-79.0,127.0,127.0,127.0,109.0,85.0,-103.0
127.0,127.0,128.0,129.0,127.0,127.0,106.0,128.0,20.0,-104.0,-79.0,127.0,127.0,127.0,109.0,85.0,-103.0
127.0,127.0,128.0,129.0,127.0,127.0,106.0,128.0,20.0,-104.0,-79.0,127.0,127.0,127.0,109.0,85.0,-103.0
127.0,128.0,127.0,128.0,127.0,127.0,106.0,128.0,20.0,-104.0,-79.0,127.0,127.0,127.0,109.0,85.0,-103.0
127.0,128.0,127.0,128.0,127.0,127.0,106.0,128.0,20.0,-104.0,-79.0,127.0,127.0,127.0,109.0,85.0,-103.0
127.0,128.0,127.0,128.0,127.0,127.0,108.0,128.0,20.0,-104.0,-79.0,127.0,127.0,127.0,109.0,85.0,-103.0
126.0,128.0,127.0,128.0,127.0,127.0,106.0,128.0,20.0,-104.0,-79.0,127.0,127.0,127.0,109.0,85.0,-103.0
127.0,128.0,127.0,128.0,127.0,127.0,106.0,128.0,20.0,-104.0,-79.0,127.0,127.0,127.0,109.0,85.0,-103.0
127.0,128.0,127.0,128.0,127.0,127.0,106.0,128.0,20.0,-104.0,-79.0,127.0,127.0,127.0,109.0,85.0,-103.0
127.0,127.0,127.0,128.0,127.0,127.0,106.0,128.0,20.0,-104.0,-79.0,127.0,127.0,127.0,109.0,85.0,-103.0
126.0,128.0,127.0,128.0,127.0,127.0,106.0,128.0,20.0,-104.0,-79.0,127.0,127.0,127.0,109.0,85.0,-103.0
126.0,128.0,127.0,129.0,127.0,127.0,106.0,128.0,20.0,-104.0,-79.0,127.0,127.0,127.0,109.0,85.0,-103.0
126.0,128.0,127.0,128.0,127.0,127.0,106.0,128.0,20.0,-104.0,-79.0,127.0,127.0,127.0,109.0,85.0,-103.0
126.0,128.0,127.0,128.0,127.0,127.0,107.0,128.0,20.0,-104.0,-79.0,127.0,127.0,127.0,109.0,85.0,-103.0
126.0,128.0,127.0,128.0,127.0,127.0,107.0,128.0,20.0,-104.0,-79.0,127.0,127.0,127.0,109.0,85.0,-103.0
126.0,128.0,127.0,128.0,127.0,127.0,108.0,128.0,20.0,-104.0,-79.0,127.0,127.0,127.0,109.0,85.0,-103.0
127.0,128.0,127.0,128.0,127.0,127.0,106.0,128.0,20.0,-104.0,-79.0,127.0,127.0,127.0,109.0,85.0,-103.0
127.0,128.0,127.0,128.0,127.0,127.0,107.0,128.0,20.0,-104.0,-79.0,127.0,127.0,127.0,109.0,85.0,-103.0
127.0,127.0,127.0,127.0,127.0,127.0,111.0,128.0,20.0,-104.0,-79.0,127.0,127.0,127.0,109.0,85.0,-103.0
127.0,128.0,127.0,128.0,127.0,127.0,106.0,128.0,20.0,-104.0,-79.0,127.0,127.0,127.0,109.0,85.0,-103.0
127.0,128.0,127.0,128.0,127.0,127.0,106.0,128.0,20.0,-104.0,-79.0,127.0,127.0,127.0,109.0,85.0,-103.0
126.0,128.0,127.0,128.0,127.0,127.0,106.0,128.0,20.0,-104.0,-79.0,127.0,127.0,127.0,109.0,85.0,-103.0
127.0,128.0,127.0,128.0,127.0,127.0,106.0,128.0,20.0,-104.0,-79.0,127.0,127.0,127.0,109.0,85.0,-103.0
127.0,128.0,127.0,128.0,127.0,127.0,107.0,128.0,20.0,-104.0,-79.0,127.0,127.0,127.0,109.0,85.0,-103.0
127.0,128.0,127.0,128.0,127.0,127.0,109.0,128.0,20.0,-104.0,-79.0,127.0,127.0,127.0,109.0,85.0,-103.0
127.0,128.0,127.0,128.0,127.0,127.0,108.0,128.0,20.0,-104.0,-79.0,127.0,127.0,127.0,109.0,85.0,-103.0
126.0,127.0,127.0,128.0,127.0,127.0,106.0,128.0,20.0,-104.0,-79.0,127.0,127.0,127.0,109.0,85.0,-103.0
126.0,127.0,127.0,128.0,127.0,127.0,107.0,128.0,20.0,-104.0,-79.0,127.0,127.0,127.0,109.0,85.0,-103.0
126.0,128.0,127.0,128.0,127.0,127.0,106.0,128.0,20.0,-104.0,-79.0,127.0,127.0,127.0,109.0,85.0,-103.0
126.0,128.0,127.0,128.0,127.0,127.0,106.0,128.0,20.0,-104.0,-79.0,127.0,127.0,127.0,109.0,85.0,-103.0
126.0,128.0,127.0,128.0,127.0,127.0,106.0,128.0,20.0,-104.0,-79.0,127.0,127.0,127.0,109.0,85.0,-103.0
126.0,127.0,127.0,128.0,127.0,127.0,106.0,128.0,20.0,-104.0,-79.0,127.0,127.0,127.0,109.0,85.0,-103.0
126.0,127.0,127.0,128.0,127.0,127.0,107.0,128.0,20.0,-104.0,-79.0,127.0,127.0,127.0,109.0,85.0,-103.0
126.0,128.0,127.0,128.0,127.0,127.0,109.0,128.0,20.0,-104.0,-79.0,127.0,127.0,127.0,109.0,85.0,-103.0
126.0,127.0,127.0,128.0,127.0,127.0,109.0,128.0,20.0,-104.0,-79.0,127.0,127.0,127.0,109.0,85.0,-103.0
126.0,127.0,127.0,128.0,127.0,127.0,106.0,128.0,20.0,-104.0,-79.0,127.0,127.0,127.0,109.0,85.0,-103.0
127.0,127.0,127.0,128.0,127.0,127.0,112.0,128.0,20.0,-103.0,-79.0,127.0,127.0,127.0,109.0,85.0,-103.0
126.0,128.0,127.0,129.0,127.0,127.0,107.0,128.0,20.0,-103.0,-79.0,127.0,127.0,127.0,109.0,85.0,-103.0
126.0,128.0,127.0,129.0,127.0,127.0,105.0,128.0,20.0,-103.0,-79.0,127.0,127.0,127.0,109.0,85.0,-103.0
126.0,128.0,127.0,129.0,127.0,127.0,105.0,128.0,20.0,-103.0,-79.0,127.0,127.0,127.0,109.0,85.0,-103.0
127.0,128.0,127.0,129.0,127.0,127.0,106.0,128.0,20.0,-103.0,-79.0,127.0,127.0,127.0,109.0,85.0,-103.0
126.0,128.0,127.0,129.0,127.0,127.0,107.0,128.0,20.0,-103.0,-79.0,127.0,127.0,127.0,109.0,85.0,-103.0
126.0,128.0,127.0,129.0,127.0,127.0,110.0,128.0,20.0,-103.0,-79.0,127.0,127.0,127.0,109.0,85.0,-103.0
126.0,128.0,127.0,128.0,127.0,127.0,112.0,128.0,20.0,-103.0,-79.0,127.0,127.0,127.0,109.0,85.0,-103.0
126.0,127.0,127.0,128.0,127.0,127.0,113.0,128.0,20.0,-103.0,-79.0,127.0,127.0,127.0,109.0,85.0,-103.0
127.0,127.0,127.0,128.0,127.0,127.0,113.0,128.0,20.0,-103.0,-79.0,127.0,127.0,127.0,109.0,85.0,-103.0
126.0,128.0,127.0,128.0,127.0,127.0,110.0,128.0,21.0,-103.0,-79.0,127.0,127.0,127.0,109.0,85.0,-103.0
126.0,128.0,127.0,128.0,127.0,127.0,106.0,128.0,21.0,-103.0,-79.0,127.0,127.0,127.0,109.0,85.0,-103.0
126.0,128.0,127.0,128.0,127.0,127.0,105.0,128.0,21.0,-103.0,-79.0,127.0,127.0,127.0,109.0,85.0,-103.0
126.0,128.0,127.0,128.0,127.0,127.0,106.0,128.0,21.0,-103.0,-79.0,127.0,127.0,127.0,109.0,85.0,-103.0
126.0,128.0,127.0,128.0,127.0,127.0,106.0,128.0,21.0,-103.0,-79.0,127.0,127.0,127.0,109.0,85.0,-103.0
126.0,128.0,127.0,128.0,127.0,127.0,110.0,128.0,21.0,-103.0,-79.0,127.0,127.0,127.0,109.0,85.0,-103.0
126.0,128.0,127.0,128.0,127.0,127.0,113.0,128.0,21.0,-103.0,-79.0,127.0,127.0,127.0,109.0,85.0,-103.0
127.0,128.0,127.0,128.0,127.0,127.0,113.0,128.0,21.0,-103.0,-79.0,127.0,127.0,127.0,109.0,85.0,-103.0
127.0,128.0,127.0,128.0,127.0,127.0,112.0,128.0,21.0,-103.0,-79.0,127.0,127.0,127.0,109.0,85.0,-103.0
127.0,128.0,127.0,128.0,127.0,127.0,112.0,128.0,21.0,-103.0,-79.0,127.0,127.0,127.0,109.0,85.0,-103.0
127.0,127.0,127.0,128.0,127.0,127.0,106.0,128.0,21.0,-104.0,-79.0,127.0,127.0,127.0,109.0,85.0,-103.0
127.0,127.0,127.0,128.0,127.0,127.0,106.0,128.0,21.0,-104.0,-79.0,127.0,127.0,127.0,109.0,85.0,-103.0
126.0,127.0,127.0,128.0,127.0,127.0,106.0,128.0,21.0,-104.0,-79.0,127.0,127.0,127.0,109.0,85.0,-103.0
127.0,127.0,127.0,128.0,127.0,127.0,106.0,128.0,21.0,-104.0,-79.0,127.0,127.0,127.0,109.0,85.0,-103.0
127.0,127.0,127.0,128.0,127.0,127.0,106.0,128.0,21.0,-104.0,-79.0,127.0,127.0,127.0,109.0,85.0,-103.0
127.0,127.0,127.0,128.0,127.0,127.0,105.0,128.0,21.0,-104.0,-79.0,127.0,127.0,127.0,109.0,85.0,-103.0
127.0,127.0,127.0,128.0,127.0,127.0,105.0,128.0,21.0,-104.0,-79.0,127.0,127.0,127.0,109.0,85.0,-103.0
127.0,127.0,127.0,128.0,127.0,127.0,108.0,128.0,21.0,-104.0,-79.0,127.0,127.0,127.0,109.0,85.0,-103.0
127.0,127.0,127.0,128.0,127.0,127.0,113.0,128.0,21.0,-104.0,-79.0,127.0,127.0,127.0,109.0,85.0,-103.0
127.0,127.0,127.0,128.0,127.0,127.0,106.0,128.0,21.0,-104.0,-79.0,127.0,127.0,127.0,109.0,85.0,-103.0
126.0,127.0,127.0,128.0,127.0,127.0,108.0,128.0,21.0,-104.0,-79.0,127.0,127.0,127.0,109.0,85.0,-103.0
126.0,128.0,127.0,128.0,127.0,127.0,108.0,128.0,21.0,-104.0,-79.0,127.0,127.0,127.0,109.0,85.0,-103.0
126.0,128.0,127.0,128.0,127.0,127.0,107.0,128.0,21.0,-104.0,-79.0,127.0,127.0,127.0,109.0,85.0,-103.0
126.0,127.0,127.0,128.0,127.0,127.0,106.0,128.0,21.0,-104.0,-79.0,127.0,127.0,127.0,109.0,85.0,-103.0
126.0,127.0,127.0,128.0,127.0,127.0,107.0,128.0,21.0,-104.0,-79.0,127.0,127.0,127.0,109.0,85.0,-103.0
127.0,127.0,127.0,128.0,127.0,127.0,107.0,128.0,21.0,-104.0,-79.0,127.0,127.0,127.0,109.0,85.0,-103.0
127.0,127.0,127.0,128.0,127.0,127.0,106.0,128.0,21.0,-104.0,-79.0,127.0,127.0,127.0,109.0,85.0,-103.0
127.0,127.0,127.0,128.0,127.0,127.0,106.0,128.0,21.0,-104.0,-79.0,127.0,127.0,127.0,109.0,85.0,-103.0
126.0,127.0,127.0,128.0,127.0,127.0,107.0,128.0,21.0,-104.0,-79.0,127.0,127.0,127.0,109.0,85.0,-103.0
127.0,127.0,127.0,128.0,127.0,127.0,106.0,128.0,21.0,-104.0,-79.0,127.0,127.0,127.0,109.0,85.0,-103.0
127.0,128.0,127.0,128.0,127.0,127.0,108.0,128.0,21.0,-104.0,-78.0,127.0,127.0,127.0,109.0,85.0,-103.0
126.0,128.0,127.0,128.0,127.0,127.0,109.0,128.0,21.0,-104.0,-78.0,127.0,127.0,127.0,109.0,85.0,-103.0
127.0,128.0,127.0,128.0,127.0,127.0,106.0,128.0,21.0,-104.0,-78.0,127.0,127.0,127.0,109.0,85.0,-103.0
127.0,128.0,127.0,128.0,127.0,127.0,108.0,128.0,21.0,-104.0,-78.0,127.0,127.0,127.0,109.0,85.0,-103.0
127.0,128.0,127.0,128.0,127.0,127.0,110.0,128.0,21.0,-104.0,-78.0,127.0,127.0,127.0,109.0,85.0,-103.0
127.0,127.0,127.0,128.0,127.0,127.0,112.0,128.0,21.0,-104.0,-78.0,127.0,127.0,127.0,109.0,85.0,-103.0
127.0,127.0,127.0,128.0,127.0,127.0,112.0,128.0,21.0,-104.0,-78.0,127.0,127.0,127.0,109.0,85.0,-103.0
126.0,128.0,127.0,128.0,127.0,127.0,106.0,128.0,21.0,-104.0,-78.0,127.0,127.0,127.0,109.0,85.0,-103.0
126.0,128.0,127.0,128.0,127.0,127.0,106.0,128.0,21.0,-104.0,-78.0,127.0,127.0,127.0,109.0,85.0,-103.0
126.0,128.0,127.0,128.0,127.0,127.0,107.0,128.0,21.0,-104.0,-78.0,127.0,127.0,127.0,109.0,85.0,-103.0
127.0,128.0,127.0,128.0,127.0,127.0,106.0,128.0,22.0,-104.0,-78.0,127.0,127.0,127.0,109.0,85.0,-103.0
127.0,128.0,127.0,128.0,127.0,127.0,106.0,128.0,22.0,-104.0,-78.0,127.0,127.0,127.0,109.0,85.0,-103.0
127.0,128.0,127.0,128.0,127.0,127.0,106.0,128.0,22.0,-104.0,-78.0,127.0,127.0,127.0,109.0,85.0,-103.0
127.0,127.0,127.0,128.0,127.0,127.0,106.0,128.0,22.0,-104.0,-78.0,127.0,127.0,127.0,109.0,85.0,-103.0
127.0,127.0,127.0,128.0,127.0,127.0,106.0,128.0,22.0,-104.0,-78.0,127.0,127.0,127.0,109.0,85.0,-103.0
127.0,127.0,127.0,128.0,127.0,127.0,106.0,128.0,22.0,-104.0,-78.0,127.0,127.0,127.0,109.0,85.0,-103.0
126.0,128.0,127.0,128.0,127.0,127.0,106.0,128.0,22.0,-104.0,-78.0,127.0,127.0,127.0,109.0,85.0,-103.0
126.0,128.0,127.0,128.0,127.0,127.0,106.0,128.0,22.0,-104.0,-78.0,127.0,127.0,127.0,109.0,85.0,-103.0
126.0,128.0,127.0,128.0,127.0,127.0,106.0,128.0,22.0,-104.0,-78.0,127.0,127.0,127.0,109.0,85.0,-103.0
127.0,128.0,127.0,128.0,127.0,127.0,106.0,128.0,22.0,-104.0,-78.0,127.0,127.0,127.0,109.0,85.0,-103.0
127.0,128.0,127.0,128.0,127.0,127.0,106.0,128.0,22.0,-104.0,-78.0,127.0,127.0,127.0,109.0,85.0,-103.0
127.0,128.0,127.0,128.0,127.0,127.0,106.0,128.0,22.0,-104.0,-78.0,127.0,127.0,127.0,109.0,85.0,-103.0
127.0,128.0,127.0,128.0,127.0,127.0,106.0,128.0,22.0,-104.0,-78.0,127.0,127.0,127.0,109.0,85.0,-103.0
127.0,128.0,127.0,128.0,127.0,127.0,106.0,128.0,22.0,-104.0,-78.0,127.0,127.0,127.0,109.0,85.0,-103.0
127.0,127.0,127.0,128.0,127.0,127.0,106.0,128.0,22.0,-104.0,-78.0,127.0,127.0,127.0,109.0,85.0,-103.0
126.0,128.0,127.0,128.0,127.0,127.0,106.0,128.0,22.0,-104.0,-78.0,127.0,127.0,127.0,109.0,85.0,-103.0
126.0,128.0,127.0,128.0,127.0,127.0,106.0,128.0,22.0,-104.0,-78.0,127.0,127.0,127.0,109.0,85.0,-103.0
126.0,128.0,127.0,128.0,127.0,127.0,107.0,128.0,22.0,-104.0,-78.0,127.0,127.0,127.0,109.0,85.0,-103.0
126.0,128.0,127.0,128.0,127.0,127.0,108.0,128.0,22.0,-104.0,-78.0,127.0,127.0,127.0,109.0,85.0,-103.0
126.0,128.0,127.0,128.0,127.0,127.0,106.0,128.0,22.0,-104.0,-78.0,127.0,127.0,127.0,109.0,85.0,-103.0
127.0,128.0,127.0,128.0,127.0,127.0,105.0,128.0,22.0,-104.0,-78.0,127.0,127.0,127.0,109.0,85.0,-103.0
127.0,128.0,127.0,128.0,127.0,127.0,105.0,128.0,22.0,-104.0,-78.0,127.0,127.0,127.0,109.0,85.0,-103.0
127.0,128.0,127.0,128.0,127.0,127.0,105.0,128.0,22.0,-104.0,-78.0,127.0,127.0,127.0,109.0,85.0,-103.0
127.0,128.0,127.0,128.0,127.0,127.0,106.0,128.0,22.0,-104.0,-78.0,127.0,127.0,127.0,109.0,85.0,-103.0
127.0,128.0,127.0,128.0,127.0,127.0,106.0,128.0,22.0,-104.0,-78.0,127.0,127.0,127.0,109.0,85.0,-103.0
127.0,128.0,127.0,128.0,127.0,127.0,107.0,128.0,22.0,-104.0,-78.0,127.0,127.0,127.0,109.0,85.0,-103.0
127.0,128.0,127.0,128.0,127.0,127.0,106.0,128.0,22.0,-104.0,-78.0,127.0,127.0,127.0,109.0,85.0,-103.0
126.0,128.0,127.0,128.0,127.0,127.0,110.0,128.0,22.0,-104.0,-78.0,127.0,127.0,127.0,109.0,85.0,-103.0
127.0,128.0,127.0,128.0,127.0,127.0,109.0,128.0,22.0,-104.0,-78.0,127.0,127.0,127.0,109.0,85.0,-103.0
127.0,128.0,127.0,128.0,127.0,127.0,106.0,128.0,22.0,-104.0,-78.0,127.0,127.0,127.0,109.0,85.0,-103.0
127.0,127.0,127.0,128.0,127.0,127.0,107.0,128.0,22.0,-104.0,-78.0,127.0,127.0,127.0,109.0,85.0,-103.0
127.0,127.0,127.0,128.0,127.0,127.0,106.0,128.0,22.0,-104.0,-78.0,127.0,127.0,127.0,109.0,85.0,-103.0
127.0,127.0,127.0,128.0,127.0,127.0,106.0,128.0,22.0,-104.0,-78.0,127.0,127.0,127.0,109.0,85.0,-103.0
127.0,127.0,127.0,128.0,127.0,127.0,106.0,128.0,22.0,-104.0,-78.0,127.0,127.0,127.0,109.0,85.0,-103.0
126.0,127.0,127.0,128.0,127.0,127.0,106.0,128.0,22.0,-104.0,-78.0,127.0,127.0,127.0,109.0,85.0,-103.0
127.0,127.0,127.0,128.0,127.0,127.0,106.0,128.0,22.0,-104.0,-78.0,127.0,127.0,127.0,109.0,85.0,-103.0
127.0,128.0,127.0,128.0,127.0,127.0,107.0,128.0,22.0,-104.0,-78.0,127.0,127.0,127.0,109.0,85.0,-103.0
127.0,128.0,127.0,128.0,127.0,127.0,108.0,128.0,22.0,-104.0,-78.0,127.0,127.0,127.0,109.0,85.0,-103.0
127.0,128.0,127.0,128.0,127.0,127.0,107.0,128.0,22.0,-104.0,-78.0,127.0,127.0,127.0,109.0,85.0,-103.0
127.0,128.0,127.0,128.0,127.0,127.0,107.0,128.0,22.0,-104.0,-78.0,127.0,127.0,127.0,109.0,85.0,-103.0
127.0,127.0,127.0,128.0,127.0,127.0,106.0,128.0,22.0,-104.0,-79.0,127.0,127.0,127.0,109.0,85.0,-103.0
127.0,127.0,127.0,128.0,127.0,127.0,106.0,128.0,22.0,-104.0,-79.0,127.0,127.0,127.0,109.0,85.0,-103.0
126.0,128.0,127.0,128.0,127.0,127.0,106.0,128.0,22.0,-104.0,-79.0,127.0,127.0,127.0,109.0,85.0,-103.0
127.0,127.0,127.0,128.0,127.0,127.0,106.0,128.0,22.0,-104.0,-79.0,127.0,127.0,127.0,109.0,85.0,-103.0
127.0,128.0,127.0,128.0,127.0,127.0,106.0,128.0,22.0,-104.0,-79.0,127.0,127.0,127.0,109.0,85.0,-103.0
126.0,128.0,127.0,128.0,127.0,127.0,107.0,128.0,22.0,-104.0,-79.0,127.0,127.0,127.0,109.0,85.0,-103.0
127.0,128.0,127.0,128.0,127.0,127.0,106.0,128.0,22.0,-104.0,-79.0,127.0,127.0,127.0,109.0,85.0,-103.0
127.0,128.0,127.0,128.0,127.0,127.0,106.0,128.0,22.0,-104.0,-79.0,127.0,127.0,127.0,109.0,85.0,-103.0
127.0,128.0,127.0,128.0,127.0,127.0,106.0,128.0,22.0,-104.0,-79.0,127.0,127.0,127.0,109.0,85.0,-103.0
127.0,127.0,127.0,128.0,127.0,127.0,106.0,128.0,22.0,-104.0,-79.0,127.0,127.0,127.0,109.0,85.0,-103.0
126.0,127.0,127.0,128.0,127.0,127.0,106.0,128.0,22.0,-104.0,-79.0,127.0,127.0,127.0,109.0,85.0,-103.0
126.0,127.0,127.0,128.0,127.0,127.0,106.0,128.0,22.0,-104.0,-79.0,127.0,127.0,127.0,109.0,85.0,-103.0
126.0,127.0,127.0,128.0,127.0,127.0,106.0,128.0,22.0,-104.0,-79.0,127.0,127.0,127.0,109.0,85.0,-103.0
126.0,128.0,127.0,129.0,127.0,127.0,106.0,128.0,22.0,-104.0,-79.0,127.0,127.0,127.0,109.0,85.0,-103.0
126.0,127.0,127.0,129.0,127.0,127.0,106.0,128.0,22.0,-104.0,-79.0,127.0,127.0,127.0,109.0,85.0,-103.0
126.0,127.0,127.0,129.0,127.0,127.0,106.0,128.0,22.0,-104.0,-79.0,127.0,127.0,127.0,109.0,85.0,-103.0
126.0,127.0,127.0,128.0,127.0,127.0,106.0,128.0,22.0,-104.0,-79.0,127.0,127.0,127.0,109.0,85.0,-103.0
126.0,127.0,127.0,128.0,127.0,127.0,108.0,128.0,22.0,-104.0,-79.0,127.0,127.0,127.0,109.0,85.0,-103.0
126.0,127.0,127.0,128.0,127.0,127.0,109.0,128.0,22.0,-104.0,-79.0,127.0,127.0,127.0,109.0,85.0,-103.0
126.0,127.0,127.0,128.0,127.0,127.0,108.0,128.0,22.0,-104.0,-79.0,127.0,127.0,127.0,109.0,85.0,-103.0
126.0,127.0,127.0,128.0,127.0,127.0,110.0,128.0,22.0,-104.0,-79.0,127.0,127.0,127.0,109.0,85.0,-103.0
126.0,128.0,127.0,128.0,127.0,127.0,112.0,128.0,22.0,-104.0,-79.0,127.0,127.0,127.0,109.0,85.0,-103.0
126.0,128.0,127.0,128.0,127.0,127.0,112.0,128.0,22.0,-104.0,-79.0,127.0,127.0,127.0,109.0,85.0,-103.0
126.0,127.0,127.0,128.0,127.0,127.0,111.0,128.0,22.0,-104.0,-79.0,127.0,127.0,127.0,109.0,85.0,-103.0
126.0,127.0,127.0,128.0,127.0,127.0,111.0,128.0,22.0,-104.0,-79.0,127.0,127.0,127.0,109.0,85.0,-103.0
126.0,127.0,127.0,128.0,127.0,127.0,110.0,128.0,22.0,-104.0,-79.0,127.0,127.0,127.0,109.0,85.0,-103.0
126.0,127.0,127.0,128.0,127.0,127.0,110.0,128.0,22.0,-104.0,-79.0,127.0,127.0,127.0,109.0,85.0,-103.0
126.0,127.0,127.0,128.0,127.0,127.0,109.0,128.0,22.0,-104.0,-79.0,127.0,127.0,127.0,109.0,85.0,-103.0
126.0,127.0,127.0,128.0,127.0,127.0,112.0,128.0,22.0,-104.0,-79.0,127.0,127.0,127.0,109.0,85.0,-103.0
126.0,127.0,127.0,128.0,127.0,127.0,108.0,128.0,22.0,-104.0,-79.0,127.0,127.0,127.0,109.0,85.0,-103.0
127.0,128.0,127.0,128.0,127.0,127.0,110.0,128.0,22.0,-104.0,-78.0,127.0,127.0,127.0,109.0,85.0,-103.0
127.0,128.0,127.0,128.0,127.0,127.0,109.0,128.0,22.0,-104.0,-78.0,127.0,127.0,127.0,109.0,85.0,-103.0
127.0,128.0,127.0,128.0,127.0,127.0,108.0,128.0,22.0,-104.0,-78.0,127.0,127.0,127.0,109.0,85.0,-103.0
127.0,128.0,127.0,128.0,127.0,127.0,107.0,128.0,22.0,-104.0,-78.0,127.0,127.0,127.0,109.0,85.0,-103.0
127.0,128.0,127.0,128.0,127.0,127.0,106.0,128.0,22.0,-104.0,-78.0,127.0,127.0,127.0,109.0,85.0,-103.0
127.0,128.0,127.0,128.0,127.0,127.0,106.0,128.0,22.0,-104.0,-78.0,127.0,127.0,127.0,109.0,85.0,-103.0
127.0,128.0,127.0,128.0,127.0,127.0,105.0,128.0,22.0,-104.0,-78.0,127.0,127.0,127.0,109.0,85.0,-103.0
127.0,128.0,127.0,128.0,127.0,127.0,107.0,128.0,22.0,-104.0,-78.0,127.0,127.0,127.0,109.0,85.0,-103.0
127.0,128.0,127.0,128.0,127.0,127.0,107.0,128.0,22.0,-104.0,-78.0,127.0,127.0,127.0,109.0,85.0,-103.0
126.0,128.0,127.0,128.0,127.0,127.0,109.0,128.0,22.0,-104.0,-78.0,127.0,127.0,127.0,109.0,85.0,-103.0
126.0,128.0,127.0,128.0,127.0,127.0,109.0,128.0,21.0,-103.0,-78.0,127.0,127.0,127.0,109.0,85.0,-103.0
126.0,128.0,127.0,128.0,127.0,127.0,107.0,128.0,21.0,-103.0,-78.0,127.0,127.0,127.0,109.0,85.0,-103.0
127.0,128.0,127.0,128.0,127.0,127.0,106.0,128.0,21.0,-103.0,-78.0,127.0,127.0,127.0,109.0,85.0,-103.0
126.0,128.0,127.0,128.0,127.0,127.0,106.0,128.0,21.0,-103.0,-78.0,127.0,127.0,127.0,109.0,85.0,-103.0
127.0,128.0,127.0,128.0,127.0,127.0,106.0,128.0,21.0,-103.0,-78.0,127.0,127.0,127.0,109.0,85.0,-103.0
127.0,128.0,127.0,128.0,127.0,127.0,106.0,128.0,21.0,-103.0,-78.0,127.0,127.0,127.0,109.0,85.0,-103.0
127.0,128.0,127.0,128.0,127.0,127.0,106.0,128.0,21.0,-103.0,-78.0,127.0,127.0,127.0,109.0,85.0,-103.0
127.0,128.0,127.0,128.0,127.0,127.0,107.0,128.0,21.0,-103.0,-78.0,127.0,127.0,127.0,109.0,85.0,-103.0
126.0,128.0,127.0,128.0,127.0,127.0,108.0,128.0,21.0,-103.0,-78.0,127.0,127.0,127.0,109.0,85.0,-103.0
127.0,128.0,127.0,128.0,127.0,127.0,111.0,128.0,21.0,-103.0,-78.0,127.0,127.0,127.0,109.0,85.0,-103.0
126.0,128.0,127.0,129.0,127.0,127.0,106.0,128.0,21.0,-103.0,-79.0,127.0,127.0,127.0,109.0,85.0,-103.0
126.0,128.0,127.0,129.0,127.0,127.0,106.0,128.0,21.0,-103.0,-79.0,127.0,127.0,127.0,109.0,85.0,-103.0
126.0,128.0,127.0,129.0,127.0,127.0,106.0,128.0,21.0,-103.0,-79.0,127.0,127.0,127.0,109.0,85.0,-103.0
126.0,128.0,127.0,128.0,127.0,127.0,106.0,128.0,21.0,-103.0,-79.0,127.0,127.0,127.0,109.0,85.0,-103.0
127.0,128.0,127.0,128.0,127.0,127.0,106.0,128.0,21.0,-103.0,-79.0,127.0,127.0,127.0,109.0,85.0,-103.0
126.0,127.0,127.0,128.0,127.0,127.0,106.0,128.0,21.0,-103.0,-79.0,127.0,127.0,127.0,109.0,85.0,-103.0
126.0,128.0,127.0,128.0,127.0,127.0,107.0,128.0,21.0,-103.0,-79.0,127.0,127.0,127.0,109.0,85.0,-103.0
126.0,128.0,127.0,128.0,127.0,127.0,106.0,128.0,21.0,-103.0,-79.0,127.0,127.0,127.0,109.0,85.0,-103.0
127.0,128.0,127.0,128.0,127.0,127.0,108.0,128.0,21.0,-103.0,-79.0,127.0,127.0,127.0,109.0,85.0,-103.0
127.0,128.0,127.0,128.0,127.0,127.0,107.0,128.0,21.0,-103.0,-79.0,127.0,127.0,127.0,109.0,85.0,-103.0
126.0,126.0,129.0,129.0,127.0,127.0,106.0,128.0,21.0,-103.0,-79.0,127.0,127.0,127.0,109.0,85.0,-103.0
126.0,127.0,128.0,129.0,127.0,127.0,106.0,128.0,21.0,-103.0,-79.0,127.0,127.0,127.0,109.0,85.0,-103.0
126.0,127.0,128.0,128.0,127.0,127.0,106.0,128.0,21.0,-103.0,-79.0,127.0,127.0,127.0,109.0,85.0,-103.0
127.0,128.0,127.0,128.0,127.0,127.0,106.0,128.0,21.0,-103.0,-79.0,127.0,127.0,127.0,109.0,85.0,-103.0
126.0,128.0,127.0,128.0,127.0,127.0,107.0,128.0,21.0,-103.0,-79.0,127.0,127.0,127.0,109.0,85.0,-103.0
126.0,128.0,127.0,128.0,127.0,127.0,107.0,128.0,21.0,-103.0,-79.0,127.0,127.0,127.0,109.0,85.0,-103.0
126.0,128.0,127.0,128.0,127.0,127.0,106.0,128.0,21.0,-103.0,-79.0,127.0,127.0,127.0,109.0,85.0,-103.0
126.0,127.0,128.0,128.0,127.0,127.0,109.0,128.0,21.0,-103.0,-79.0,127.0,127.0,127.0,109.0,85.0,-103.0
126.0,127.0,128.0,128.0,127.0,127.0,107.0,128.0,21.0,-103.0,-79.0,127.0,127.0,127.0,109.0,85.0,-103.0
127.0,126.0,129.0,129.0,127.0,127.0,106.0,128.0,21.0,-103.0,-79.0,127.0,127.0,127.0,109.0,85.0,-103.0
126.0,128.0,127.0,129.0,127.0,127.0,106.0,128.0,21.0,-102.0,-80.0,127.0,127.0,127.0,109.0,85.0,-103.0
126.0,128.0,127.0,128.0,127.0,127.0,106.0,128.0,21.0,-102.0,-80.0,127.0,127.0,127.0,109.0,85.0,-103.0
126.0,127.0,127.0,128.0,127.0,127.0,106.0,128.0,21.0,-102.0,-80.0,127.0,127.0,127.0,109.0,85.0,-103.0
126.0,127.0,127.0,128.0,127.0,127.0,106.0,128.0,21.0,-102.0,-80.0,127.0,127.0,127.0,109.0,85.0,-103.0
126.0,127.0,127.0,128.0,127.0,127.0,107.0,128.0,21.0,-102.0,-80.0,127.0,127.0,127.0,109.0,85.0,-103.0
126.0,127.0,127.0,128.0,127.0,127.0,106.0,128.0,21.0,-102.0,-80.0,127.0,127.0,127.0,109.0,85.0,-103.0
126.0,128.0,127.0,128.0,127.0,127.0,110.0,128.0,21.0,-102.0,-80.0,127.0,127.0,127.0,109.0,85.0,-103.0
126.0,128.0,127.0,128.0,127.0,127.0,107.0,128.0,21.0,-102.0,-80.0,127.0,127.0,127.0,109.0,85.0,-103.0
126.0,128.0,127.0,128.0,127.0,127.0,106.0,128.0,21.0,-102.0,-80.0,127.0,127.0,127.0,109.0,85.0,-103.0
126.0,128.0,127.0,128.0,127.0,127.0,106.0,128.0,21.0,-102.0,-80.0,127.0,127.0,127.0,109.0,85.0,-103.0
127.0,128.0,127.0,128.0,127.0,127.0,107.0,128.0,21.0,-102.0,-80.0,127.0,127.0,127.0,109.0,85.0,-103.0
127.0,128.0,127.0,128.0,127.0,127.0,106.0,128.0,21.0,-102.0,-80.0,127.0,127.0,127.0,109.0,85.0,-103.0
127.0,128.0,127.0,128.0,127.0,127.0,106.0,128.0,21.0,-102.0,-80.0,127.0,127.0,127.0,109.0,85.0,-103.0
127.0,126.0,128.0,128.0,127.0,127.0,106.0,128.0,21.0,-102.0,-80.0,127.0,127.0,127.0,109.0,85.0,-103.0
127.0,127.0,128.0,128.0,127.0,127.0,106.0,128.0,21.0,-102.0,-80.0,127.0,127.0,127.0,109.0,85.0,-103.0
127.0,127.0,127.0,128.0,127.0,127.0,108.0,128.0,21.0,-102.0,-80.0,127.0,127.0,127.0,109.0,85.0,-103.0
127.0,128.0,127.0,128.0,127.0,127.0,108.0,128.0,21.0,-102.0,-80.0,127.0,127.0,127.0,109.0,85.0,-103.0
127.0,128.0,127.0,128.0,127.0,127.0,106.0,128.0,21.0,-102.0,-80.0,127.0,127.0,127.0,109.0,85.0,-103.0
127.0,128.0,127.0,128.0,127.0,127.0,107.0,128.0,21.0,-102.0,-80.0,127.0,127.0,127.0,109.0,85.0,-103.0
127.0,128.0,127.0,128.0,127.0,127.0,106.0,128.0,21.0,-102.0,-80.0,127.0,127.0,127.0,109.0,85.0,-103.0
127.0,128.0,127.0,128.0,127.0,127.0,107.0,128.0,21.0,-102.0,-80.0,127.0,127.0,127.0,109.0,85.0,-103.0
127.0,128.0,127.0,128.0,127.0,127.0,106.0,128.0,21.0,-102.0,-80.0,127.0,127.0,127.0,109.0,85.0,-103.0
126.0,128.0,127.0,128.0,127.0,127.0,113.0,128.0,21.0,-102.0,-80.0,127.0,127.0,127.0,109.0,85.0,-103.0
126.0,128.0,127.0,128.0,127.0,127.0,112.0,128.0,21.0,-102.0,-80.0,127.0,127.0,127.0,109.0,85.0,-103.0
126.0,128.0,127.0,128.0,127.0,127.0,112.0,128.0,21.0,-102.0,-80.0,127.0,127.0,127.0,109.0,85.0,-103.0
127.0,128.0,127.0,128.0,127.0,127.0,112.0,128.0,21.0,-102.0,-80.0,127.0,127.0,127.0,109.0,85.0,-103.0
127.0,128.0,127.0,128.0,127.0,127.0,113.0,128.0,21.0,-102.0,-80.0,127.0,127.0,127.0,109.0,85.0,-103.0
127.0,128.0,127.0,128.0,127.0,127.0,110.0,128.0,21.0,-102.0,-80.0,127.0,127.0,127.0,109.0,85.0,-103.0
127.0,128.0,127.0,128.0,127.0,127.0,110.0,128.0,21.0,-102.0,-80.0,127.0,127.0,127.0,109.0,85.0,-103.0
127.0,128.0,127.0,128.0,127.0,127.0,109.0,128.0,21.0,-102.0,-80.0,127.0,127.0,127.0,109.0,85.0,-103.0
127.0,127.0,127.0,128.0,127.0,127.0,107.0,128.0,21.0,-102.0,-80.0,127.0,127.0,127.0,109.0,85.0,-103.0
126.0,128.0,127.0,128.0,127.0,127.0,113.0,128.0,21.0,-102.0,-80.0,127.0,127.0,127.0,109.0,85.0,-103.0
127.0,128.0,127.0,128.0,127.0,127.0,109.0,128.0,21.0,-102.0,-80.0,127.0,127.0,127.0,109.0,85.0,-103.0
126.0,128.0,127.0,128.0,127.0,127.0,106.0,128.0,21.0,-102.0,-80.0,127.0,127.0,127.0,109.0,85.0,-103.0
126.0,128.0,127.0,128.0,127.0,127.0,106.0,128.0,21.0,-102.0,-80.0,127.0,127.0,127.0,109.0,85.0,-103.0
127.0,128.0,127.0,128.0,127.0,127.0,106.0,128.0,21.0,-102.0,-80.0,127.0,127.0,127.0,109.0,85.0,-103.0
127.0,128.0,127.0,128.0,127.0,127.0,106.0,128.0,21.0,-102.0,-80.0,127.0,127.0,127.0,109.0,85.0,-103.0
127.0,128.0,127.0,128.0,127.0,127.0,106.0,128.0,21.0,-102.0,-80.0,127.0,127.0,127.0,109.0,85.0,-103.0
127.0,128.0,127.0,128.0,127.0,127.0,106.0,128.0,21.0,-102.0,-80.0,127.0,127.0,127.0,109.0,85.0,-103.0
127.0,127.0,127.0,128.0,127.0,127.0,106.0,128.0,21.0,-102.0,-80.0,127.0,127.0,127.0,109.0,85.0,-103.0
127.0,128.0,127.0,128.0,127.0,127.0,113.0,128.0,22.0,-102.0,-80.0,127.0,127.0,127.0,109.0,85.0,-103.0
127.0,128.0,127.0,128.0,127.0,127.0,113.0,128.0,22.0,-102.0,-80.0,127.0,127.0,127.0,109.0,85.0,-103.0
127.0,128.0,127.0,128.0,127.0,127.0,113.0,128.0,22.0,-102.0,-80.0,127.0,127.0,127.0,109.0,85.0,-103.0
127.0,128.0,127.0,128.0,127.0,127.0,114.0,128.0,22.0,-102.0,-80.0,127.0,127.0,127.0,109.0,85.0,-103.0
127.0,128.0,127.0,128.0,127.0,127.0,113.0,128.0,22.0,-102.0,-80.0,127.0,127.0,127.0,109.0,85.0,-103.0
127.0,128.0,127.0,128.0,127.0,127.0,112.0,128.0,22.0,-102.0,-80.0,127.0,127.0,127.0,109.0,85.0,-103.0
127.0,128.0,127.0,128.0,127.0,127.0,112.0,128.0,22.0,-102.0,-80.0,127.0,127.0,127.0,109.0,85.0,-103.0
127.0,127.0,127.0,128.0,127.0,127.0,112.0,128.0,22.0,-102.0,-80.0,127.0,127.0,127.0,109.0,85.0,-103.0
127.0,127.0,127.0,128.0,127.0,127.0,113.0,128.0,22.0,-102.0,-80.0,127.0,127.0,127.0,109.0,85.0,-103.0
127.0,127.0,127.0,128.0,127.0,127.0,110.0,128.0,22.0,-102.0,-80.0,127.0,127.0,127.0,109.0,85.0,-103.0
126.0,128.0,127.0,128.0,127.0,127.0,106.0,128.0,22.0,-102.0,-80.0,127.0,127.0,127.0,109.0,85.0,-103.0
127.0,128.0,127.0,128.0,127.0,127.0,106.0,128.0,22.0,-102.0,-80.0,127.0,127.0,127.0,109.0,85.0,-103.0
127.0,128.0,127.0,129.0,127.0,127.0,106.0,128.0,22.0,-102.0,-80.0,127.0,127.0,127.0,109.0,85.0,-103.0
126.0,128.0,127.0,129.0,127.0,127.0,106.0,128.0,22.0,-102.0,-80.0,127.0,127.0,127.0,109.0,85.0,-103.0
126.0,128.0,127.0,129.0,127.0,127.0,106.0,128.0,22.0,-102.0,-80.0,127.0,127.0,127.0,109.0,85.0,-103.0
127.0,128.0,127.0,129.0,127.0,127.0,106.0,128.0,22.0,-102.0,-80.0,127.0,127.0,127.0,109.0,85.0,-103.0
127.0,128.0,127.0,129.0,127.0,127.0,107.0,128.0,22.0,-102.0,-80.0,127.0,127.0,127.0,109.0,85.0,-103.0
126.0,128.0,127.0,129.0,127.0,127.0,106.0,128.0,22.0,-102.0,-80.0,127.0,127.0,127.0,109.0,85.0,-103.0
126.0,127.0,127.0,129.0,127.0,127.0,106.0,128.0,22.0,-102.0,-80.0,127.0,127.0,127.0,109.0,85.0,-103.0
126.0,128.0,127.0,128.0,127.0,127.0,108.0,128.0,22.0,-102.0,-80.0,127.0,127.0,127.0,109.0,85.0,-103.0
126.0,128.0,127.0,128.0,127.0,127.0,106.0,128.0,22.0,-102.0,-80.0,127.0,127.0,127.0,109.0,85.0,-103.0
126.0,128.0,127.0,128.0,127.0,127.0,106.0,128.0,22.0,-102.0,-80.0,127.0,127.0,127.0,109.0,85.0,-103.0
126.0,128.0,127.0,128.0,127.0,127.0,106.0,128.0,22.0,-102.0,-80.0,127.0,127.0,127.0,109.0,85.0,-103.0
127.0,128.0,127.0,128.0,127.0,127.0,106.0,128.0,22.0,-102.0,-80.0,127.0,127.0,127.0,109.0,85.0,-103.0
127.0,128.0,127.0,128.0,127.0,127.0,106.0,128.0,22.0,-102.0,-80.0,127.0,127.0,127.0,109.0,85.0,-103.0
126.0,128.0,127.0,128.0,127.0,127.0,106.0,128.0,22.0,-102.0,-80.0,127.0,127.0,127.0,109.0,85.0,-103.0
127.0,128.0,127.0,128.0,127.0,127.0,106.0,128.0,22.0,-102.0,-80.0,127.0,127.0,127.0,109.0,85.0,-103.0
127.0,128.0,127.0,128.0,127.0,127.0,106.0,128.0,22.0,-102.0,-80.0,127.0,127.0,127.0,109.0,85.0,-103.0
126.0,128.0,127.0,128.0,127.0,127.0,108.0,128.0,22.0,-102.0,-80.0,127.0,127.0,127.0,109.0,85.0,-103.0
126.0,128.0,127.0,128.0,127.0,127.0,106.0,128.0,22.0,-102.0,-80.0,127.0,127.0,127.0,109.0,85.0,-103.0
127.0,128.0,127.0,128.0,127.0,127.0,106.0,128.0,22.0,-102.0,-80.0,127.0,127.0,127.0,109.0,85.0,-103.0
127.0,128.0,127.0,128.0,127.0,127.0,106.0,128.0,22.0,-102.0,-80.0,127.0,127.0,127.0,109.0,85.0,-103.0
127.0,128.0,127.0,128.0,127.0,127.0,106.0,128.0,22.0,-102.0,-80.0,127.0,127.0,127.0,109.0,85.0,-103.0
127.0,128.0,127.0,128.0,127.0,127.0,106.0,128.0,22.0,-102.0,-80.0,127.0,127.0,127.0,109.0,85.0,-103.0
127.0,127.0,127.0,128.0,127.0,127.0,106.0,128.0,22.0,-102.0,-80.0,127.0,127.0,127.0,109.0,85.0,-103.0
126.0,127.0,127.0,128.0,127.0,127.0,106.0,128.0,22.0,-102.0,-80.0,127.0,127.0,127.0,109.0,85.0,-103.0
127.0,127.0,127.0,128.0,127.0,127.0,106.0,128.0,22.0,-102.0,-80.0,127.0,127.0,127.0,109.0,85.0,-103.0
126.0,127.0,127.0,128.0,127.0,127.0,109.0,128.0,22.0,-102.0,-80.0,127.0,127.0,127.0,109.0,85.0,-103.0
126.0,128.0,127.0,128.0,127.0,127.0,106.0,128.0,22.0,-102.0,-80.0,127.0,127.0,127.0,109.0,85.0,-103.0
126.0,128.0,127.0,128.0,127.0,127.0,105.0,128.0,22.0,-102.0,-80.0,127.0,127.0,127.0,109.0,85.0,-103.0
126.0,128.0,127.0,128.0,127.0,127.0,107.0,128.0,22.0,-102.0,-80.0,127.0,127.0,127.0,109.0,85.0,-103.0
126.0,128.0,127.0,128.0,127.0,127.0,108.0,128.0,22.0,-102.0,-80.0,127.0,127.0,127.0,109.0,85.0,-103.0
126.0,128.0,127.0,128.0,127.0,127.0,107.0,128.0,22.0,-102.0,-80.0,127.0,127.0,127.0,109.0,85.0,-103.0
126.0,128.0,127.0,128.0,127.0,127.0,107.0,128.0,22.0,-102.0,-80.0,127.0,127.0,127.0,109.0,85.0,-103.0
126.0,127.0,127.0,128.0,127.0,127.0,108.0,128.0,22.0,-102.0,-80.0,127.0,127.0,127.0,109.0,85.0,-103.0
126.0,127.0,127.0,128.0,127.0,127.0,108.0,128.0,22.0,-102.0,-80.0,127.0,127.0,127.0,109.0,85.0,-103.0
126.0,127.0,127.0,128.0,127.0,127.0,112.0,128.0,22.0,-102.0,-80.0,127.0,127.0,127.0,109.0,85.0,-103.0
126.0,128.0,127.0,128.0,127.0,127.0,112.0,128.0,22.0,-102.0,-80.0,127.0,127.0,127.0,109.0,85.0,-103.0
126.0,128.0,127.0,128.0,127.0,127.0,109.0,128.0,22.0,-102.0,-80.0,127.0,127.0,127.0,109.0,85.0,-103.0
126.0,128.0,127.0,128.0,127.0,127.0,106.0,128.0,22.0,-102.0,-80.0,127.0,127.0,127.0,109.0,85.0,-103.0
127.0,128.0,127.0,128.0,127.0,127.0,110.0,128.0,22.0,-103.0,-79.0,127.0,127.0,127.0,109.0,85.0,-103.0
126.0,128.0,127.0,128.0,127.0,127.0,106.0,128.0,22.0,-103.0,-79.0,127.0,127.0,127.0,109.0,85.0,-103.0
127.0,128.0,127.0,128.0,127.0,127.0,106.0,128.0,22.0,-103.0,-79.0,127.0,127.0,127.0,109.0,85.0,-103.0
127.0,127.0,127.0,128.0,127.0,127.0,106.0,128.0,22.0,-103.0,-79.0,127.0,127.0,127.0,109.0,85.0,-103.0
126.0,127.0,127.0,128.0,127.0,127.0,106.0,128.0,22.0,-103.0,-79.0,127.0,127.0,127.0,109.0,85.0,-103.0
126.0,128.0,127.0,128.0,127.0,127.0,113.0,128.0,22.0,-103.0,-79.0,127.0,127.0,127.0,109.0,85.0,-103.0
126.0,128.0,127.0,128.0,127.0,127.0,113.0,128.0,22.0,-103.0,-79.0,127.0,127.0,127.0,109.0,85.0,-103.0
127.0,128.0,127.0,128.0,127.0,127.0,113.0,128.0,22.0,-103.0,-79.0,127.0,127.0,127.0,109.0,85.0,-103.0
126.0,128.0,127.0,128.0,127.0,127.0,113.0,128.0,22.0,-103.0,-79.0,127.0,127.0,127.0,109.0,85.0,-103.0
127.0,128.0,127.0,128.0,127.0,127.0,111.0,128.0,22.0,-103.0,-79.0,127.0,127.0,127.0,109.0,85.0,-103.0
126.0,128.0,127.0,128.0,127.0,127.0,106.0,128.0,22.0,-103.0,-79.0,127.0,127.0,127.0,109.0,85.0,-103.0
126.0,128.0,127.0,128.0,127.0,127.0,106.0,128.0,22.0,-103.0,-79.0,127.0,127.0,127.0,109.0,85.0,-103.0
126.0,127.0,127.0,128.0,127.0,127.0,106.0,128.0,22.0,-103.0,-79.0,127.0,127.0,127.0,109.0,85.0,-103.0
126.0,127.0,127.0,128.0,127.0,127.0,107.0,128.0,22.0,-103.0,-79.0,127.0,127.0,127.0,109.0,85.0,-103.0
127.0,127.0,127.0,128.0,127.0,127.0,106.0,128.0,22.0,-103.0,-79.0,127.0,127.0,127.0,109.0,85.0,-103.0
126.0,127.0,127.0,128.0,127.0,127.0,107.0,128.0,22.0,-103.0,-79.0,127.0,127.0,127.0,109.0,85.0,-103.0
127.0,127.0,127.0,128.0,127.0,127.0,107.0,128.0,22.0,-103.0,-79.0,127.0,127.0,127.0,109.0,85.0,-103.0
126.0,127.0,127.0,128.0,127.0,127.0,106.0,128.0,22.0,-103.0,-79.0,127.0,127.0,127.0,109.0,85.0,-103.0
126.0,128.0,127.0,128.0,127.0,127.0,107.0,128.0,22.0,-103.0,-79.0,127.0,127.0,127.0,109.0,85.0,-103.0
126.0,128.0,127.0,128.0,127.0,127.0,106.0,128.0,22.0,-103.0,-79.0,127.0,127.0,127.0,109.0,85.0,-103.0
127.0,127.0,127.0,129.0,127.0,127.0,106.0,128.0,22.0,-104.0,-79.0,127.0,127.0,127.0,109.0,85.0,-103.0
127.0,127.0,127.0,129.0,127.0,127.0,106.0,128.0,22.0,-104.0,-79.0,127.0,127.0,127.0,109.0,85.0,-103.0
127.0,127.0,127.0,128.0,127.0,127.0,107.0,128.0,22.0,-104.0,-79.0,127.0,127.0,127.0,109.0,85.0,-103.0
127.0,127.0,127.0,128.0,127.0,127.0,106.0,128.0,22.0,-104.0,-79.0,127.0,127.0,127.0,109.0,85.0,-103.0
127.0,128.0,127.0,128.0,127.0,127.0,105.0,128.0,22.0,-104.0,-79.0,127.0,127.0,127.0,109.0,85.0,-103.0
127.0,128.0,127.0,128.0,127.0,127.0,106.0,128.0,22.0,-104.0,-79.0,127.0,127.0,127.0,109.0,85.0,-103.0
127.0,127.0,127.0,128.0,127.0,127.0,106.0,128.0,22.0,-104.0,-79.0,127.0,127.0,127.0,109.0,85.0,-103.0
127.0,127.0,127.0,128.0,127.0,127.0,106.0,128.0,22.0,-104.0,-79.0,127.0,127.0,127.0,109.0,85.0,-103.0
127.0,127.0,127.0,129.0,127.0,127.0,106.0,128.0,22.0,-104.0,-79.0,127.0,127.0,127.0,109.0,85.0,-103.0
127.0,127.0,127.0,129.0,127.0,127.0,106.0,128.0,22.0,-104.0,-79.0,127.0,127.0,127.0,109.0,85.0,-103.0
127.0,128.0,127.0,129.0,127.0,127.0,106.0,128.0,22.0,-104.0,-78.0,127.0,127.0,127.0,109.0,85.0,-103.0
127.0,128.0,127.0,129.0,127.0,127.0,106.0,128.0,22.0,-104.0,-78.0,127.0,127.0,127.0,109.0,85.0,-103.0
127.0,127.0,127.0,128.0,127.0,127.0,109.0,128.0,22.0,-104.0,-78.0,127.0,127.0,127.0,109.0,85.0,-103.0
127.0,128.0,127.0,128.0,127.0,127.0,111.0,128.0,22.0,-104.0,-78.0,127.0,127.0,127.0,109.0,85.0,-103.0
127.0,128.0,127.0,128.0,127.0,127.0,109.0,128.0,22.0,-104.0,-78.0,127.0,127.0,127.0,109.0,85.0,-103.0
127.0,128.0,127.0,128.0,127.0,127.0,107.0,128.0,22.0,-104.0,-78.0,127.0,127.0,127.0,109.0,85.0,-103.0
127.0,128.0,127.0,128.0,128.0,127.0,109.0,128.0,22.0,-104.0,-78.0,127.0,127.0,127.0,109.0,85.0,-103.0
127.0,128.0,127.0,129.0,128.0,127.0,107.0,128.0,22.0,-104.0,-78.0,127.0,127.0,127.0,109.0,85.0,-103.0
127.0,128.0,127.0,129.0,127.0,127.0,106.0,128.0,22.0,-104.0,-78.0,127.0,127.0,127.0,109.0,85.0,-103.0
126.0,128.0,127.0,129.0,127.0,127.0,106.0,128.0,22.0,-104.0,-78.0,127.0,127.0,127.0,109.0,85.0,-103.0
127.0,128.0,127.0,128.0,127.0,127.0,106.0,128.0,22.0,-104.0,-78.0,127.0,127.0,127.0,109.0,85.0,-103.0
127.0,127.0,127.0,128.0,127.0,127.0,108.0,128.0,22.0,-104.0,-78.0,127.0,127.0,127.0,109.0,85.0,-103.0
127.0,127.0,127.0,128.0,127.0,127.0,106.0,128.0,22.0,-104.0,-78.0,127.0,127.0,127.0,109.0,85.0,-103.0
126.0,127.0,127.0,128.0,127.0,127.0,106.0,128.0,22.0,-104.0,-78.0,127.0,127.0,127.0,109.0,85.0,-103.0
127.0,127.0,127.0,128.0,127.0,127.0,106.0,128.0,22.0,-104.0,-78.0,127.0,127.0,127.0,109.0,85.0,-103.0
126.0,128.0,127.0,128.0,127.0,127.0,108.0,128.0,22.0,-104.0,-78.0,127.0,127.0,127.0,109.0,85.0,-103.0
127.0,128.0,127.0,128.0,127.0,127.0,106.0,128.0,22.0,-104.0,-78.0,127.0,127.0,127.0,109.0,85.0,-103.0
127.0,128.0,127.0,128.0,127.0,127.0,106.0,128.0,22.0,-104.0,-78.0,127.0,127.0,127.0,109.0,85.0,-103.0
127.0,128.0,127.0,128.0,127.0,127.0,106.0,128.0,22.0,-104.0,-78.0,127.0,127.0,127.0,109.0,85.0,-103.0
127.0,128.0,127.0,128.0,127.0,127.0,105.0,128.0,22.0,-104.0,-78.0,127.0,127.0,127.0,109.0,85.0,-103.0
127.0,128.0,127.0,128.0,127.0,127.0,106.0,128.0,22.0,-104.0,-78.0,127.0,127.0,127.0,109.0,85.0,-103.0
127.0,128.0,127.0,128.0,127.0,127.0,106.0,128.0,22.0,-104.0,-78.0,127.0,127.0,127.0,109.0,85.0,-103.0
127.0,128.0,127.0,128.0,127.0,127.0,106.0,128.0,22.0,-104.0,-78.0,127.0,127.0,127.0,109.0,85.0,-103.0
127.0,128.0,127.0,128.0,127.0,127.0,106.0,128.0,22.0,-104.0,-78.0,127.0,127.0,127.0,109.0,85.0,-103.0
127.0,128.0,127.0,128.0,128.0,127.0,106.0,128.0,22.0,-104.0,-78.0,127.0,127.0,127.0,109.0,85.0,-103.0
127.0,128.0,127.0,128.0,127.0,127.0,106.0,128.0,22.0,-104.0,-78.0,127.0,127.0,127.0,109.0,85.0,-103.0
127.0,128.0,127.0,128.0,128.0,127.0,106.0,128.0,22.0,-104.0,-78.0,127.0,127.0,127.0,109.0,85.0,-103.0
127.0,128.0,127.0,128.0,127.0,127.0,107.0,128.0,22.0,-104.0,-78.0,127.0,127.0,127.0,109.0,85.0,-103.0
127.0,128.0,127.0,128.0,127.0,127.0,106.0,128.0,22.0,-104.0,-78.0,127.0,127.0,127.0,109.0,85.0,-103.0
127.0,128.0,127.0,128.0,127.0,127.0,106.0,128.0,22.0,-104.0,-78.0,127.0,127.0,127.0,109.0,85.0,-103.0
127.0,127.0,127.0,128.0,127.0,127.0,114.0,128.0,21.0,-104.0,-78.0,127.0,127.0,127.0,109.0,85.0,-103.0
127.0,127.0,127.0,128.0,127.0,127.0,112.0,128.0,21.0,-104.0,-78.0,127.0,127.0,127.0,109.0,85.0,-103.0
127.0,127.0,127.0,128.0,127.0,127.0,114.0,128.0,21.0,-104.0,-78.0,127.0,127.0,127.0,109.0,85.0,-103.0
126.0,128.0,127.0,128.0,127.0,127.0,113.0,128.0,21.0,-104.0,-78.0,127.0,127.0,127.0,109.0,85.0,-103.0
127.0,128.0,127.0,129.0,127.0,127.0,113.0,128.0,21.0,-104.0,-78.0,127.0,127.0,127.0,109.0,85.0,-103.0
127.0,128.0,127.0,129.0,127.0,127.0,114.0,128.0,21.0,-104.0,-78.0,127.0,127.0,127.0,109.0,85.0,-103.0
127.0,128.0,127.0,129.0,127.0,127.0,113.0,128.0,21.0,-104.0,-78.0,127.0,127.0,127.0,109.0,85.0,-103.0
126.0,127.0,127.0,129.0,127.0,127.0,112.0,128.0,21.0,-104.0,-78.0,127.0,127.0,127.0,109.0,85.0,-103.0
127.0,127.0,127.0,129.0,127.0,127.0,112.0,128.0,21.0,-104.0,-78.0,127.0,127.0,127.0,109.0,85.0,-103.0
127.0,127.0,127.0,128.0,127.0,127.0,113.0,128.0,21.0,-104.0,-78.0,127.0,127.0,127.0,109.0,85.0,-103.0
126.0,127.0,127.0,128.0,127.0,127.0,110.0,128.0,21.0,-105.0,-78.0,127.0,127.0,127.0,109.0,85.0,-103.0
126.0,127.0,127.0,128.0,127.0,127.0,110.0,128.0,21.0,-105.0,-78.0,127.0,127.0,127.0,109.0,85.0,-103.0
126.0,128.0,127.0,128.0,127.0,127.0,111.0,128.0,21.0,-105.0,-78.0,127.0,127.0,127.0,109.0,85.0,-103.0
126.0,128.0,127.0,128.0,127.0,127.0,111.0,128.0,21.0,-105.0,-78.0,127.0,127.0,127.0,109.0,85.0,-103.0
126.0,128.0,127.0,128.0,127.0,127.0,108.0,128.0,21.0,-105.0,-78.0,127.0,127.0,127.0,109.0,85.0,-103.0
126.0,128.0,127.0,129.0,127.0,127.0,107.0,128.0,21.0,-105.0,-78.0,127.0,127.0,127.0,109.0,85.0,-103.0
126.0,128.0,127.0,129.0,127.0,127.0,106.0,128.0,21.0,-105.0,-78.0,127.0,127.0,127.0,109.0,85.0,-103.0
127.0,128.0,127.0,128.0,127.0,127.0,106.0,128.0,21.0,-105.0,-78.0,127.0,127.0,127.0,109.0,85.0,-103.0
126.0,127.0,127.0,128.0,127.0,127.0,113.0,128.0,21.0,-105.0,-78.0,127.0,127.0,127.0,109.0,85.0,-103.0
126.0,127.0,127.0,128.0,127.0,127.0,113.0,128.0,21.0,-105.0,-78.0,127.0,127.0,127.0,109.0,85.0,-103.0
127.0,127.0,127.0,128.0,127.0,127.0,106.0,128.0,21.0,-105.0,-78.0,127.0,127.0,127.0,109.0,85.0,-103.0
126.0,128.0,127.0,128.0,127.0,127.0,107.0,128.0,21.0,-105.0,-78.0,127.0,127.0,127.0,109.0,85.0,-103.0
126.0,128.0,127.0,128.0,127.0,127.0,107.0,128.0,21.0,-105.0,-78.0,127.0,127.0,127.0,109.0,85.0,-103.0
126.0,128.0,127.0,128.0,127.0,127.0,106.0,128.0,21.0,-105.0,-78.0,127.0,127.0,127.0,109.0,85.0,-103.0
127.0,128.0,127.0,128.0,127.0,127.0,106.0,128.0,21.0,-105.0,-78.0,127.0,127.0,127.0,109.0,85.0,-103.0
126.0,128.0,127.0,128.0,127.0,127.0,106.0,128.0,21.0,-105.0,-78.0,127.0,127.0,127.0,109.0,85.0,-103.0
126.0,128.0,127.0,128.0,127.0,127.0,107.0,128.0,21.0,-105.0,-78.0,127.0,127.0,127.0,109.0,85.0,-103.0
127.0,127.0,127.0,128.0,127.0,127.0,106.0,128.0,21.0,-105.0,-78.0,127.0,127.0,127.0,109.0,85.0,-103.0
126.0,127.0,127.0,128.0,127.0,127.0,106.0,128.0,21.0,-105.0,-78.0,127.0,127.0,127.0,109.0,85.0,-103.0
127.0,127.0,127.0,128.0,127.0,127.0,106.0,128.0,21.0,-105.0,-78.0,127.0,127.0,127.0,109.0,85.0,-103.0
127.0,127.0,127.0,128.0,127.0,127.0,106.0,128.0,20.0,-105.0,-78.0,127.0,127.0,127.0,109.0,85.0,-103.0
126.0,127.0,127.0,128.0,127.0,127.0,106.0,128.0,20.0,-105.0,-78.0,127.0,127.0,127.0,109.0,85.0,-103.0
126.0,128.0,127.0,128.0,127.0,127.0,106.0,128.0,20.0,-105.0,-78.0,127.0,127.0,127.0,109.0,85.0,-103.0
126.0,128.0,127.0,128.0,127.0,127.0,107.0,128.0,20.0,-105.0,-78.0,127.0,127.0,127.0,109.0,85.0,-103.0
126.0,128.0,127.0,128.0,127.0,127.0,110.0,128.0,20.0,-105.0,-78.0,127.0,127.0,127.0,109.0,85.0,-103.0
126.0,128.0,127.0,128.0,127.0,127.0,112.0,128.0,20.0,-105.0,-78.0,127.0,127.0,127.0,109.0,85.0,-103.0
127.0,127.0,127.0,128.0,127.0,127.0,108.0,128.0,20.0,-105.0,-78.0,127.0,127.0,127.0,109.0,85.0,-103.0
126.0,127.0,127.0,128.0,127.0,127.0,106.0,128.0,20.0,-105.0,-78.0,127.0,127.0,127.0,109.0,85.0,-103.0
126.0,127.0,127.0,128.0,127.0,127.0,106.0,128.0,20.0,-105.0,-78.0,127.0,127.0,127.0,109.0,85.0,-103.0
127.0,127.0,127.0,128.0,127.0,127.0,107.0,128.0,20.0,-105.0,-78.0,127.0,127.0,127.0,109.0,85.0,-103.0
127.0,128.0,127.0,128.0,127.0,127.0,106.0,128.0,20.0,-105.0,-78.0,127.0,127.0,127.0,109.0,85.0,-103.0
126.0,128.0,127.0,128.0,127.0,127.0,106.0,128.0,20.0,-105.0,-78.0,127.0,127.0,127.0,109.0,85.0,-103.0
126.0,128.0,127.0,128.0,127.0,127.0,106.0,128.0,20.0,-105.0,-78.0,127.0,127.0,127.0,109.0,85.0,-103.0
126.0,127.0,127.0,128.0,127.0,127.0,106.0,128.0,20.0,-105.0,-78.0,127.0,127.0,127.0,109.0,85.0,-103.0
127.0,127.0,127.0,127.0,127.0,127.0,113.0,128.0,20.0,-105.0,-78.0,127.0,127.0,127.0,109.0,85.0,-103.0
126.0,127.0,127.0,128.0,127.0,127.0,113.0,128.0,20.0,-105.0,-78.0,127.0,127.0,127.0,109.0,85.0,-103.0
126.0,127.0,127.0,128.0,127.0,127.0,113.0,128.0,20.0,-105.0,-78.0,127.0,127.0,127.0,109.0,85.0,-103.0
126.0,128.0,127.0,128.0,127.0,127.0,113.0,128.0,20.0,-105.0,-78.0,127.0,127.0,127.0,109.0,85.0,-103.0
126.0,128.0,127.0,128.0,127.0,127.0,111.0,128.0,20.0,-105.0,-78.0,127.0,127.0,127.0,109.0,85.0,-103.0
126.0,128.0,127.0,128.0,127.0,127.0,108.0,128.0,20.0,-105.0,-78.0,127.0,127.0,127.0,109.0,85.0,-103.0
127.0,128.0,127.0,128.0,127.0,127.0,107.0,128.0,20.0,-105.0,-78.0,127.0,127.0,127.0,109.0,85.0,-103.0
126.0,128.0,127.0,128.0,127.0,127.0,106.0,128.0,20.0,-105.0,-78.0,127.0,127.0,127.0,109.0,85.0,-103.0
127.0,128.0,127.0,128.0,127.0,127.0,106.0,128.0,20.0,-105.0,-78.0,127.0,127.0,127.0,109.0,85.0,-103.0
126.0,127.0,127.0,127.0,127.0,127.0,109.0,128.0,20.0,-105.0,-78.0,127.0,127.0,127.0,109.0,85.0,-103.0
127.0,127.0,127.0,128.0,127.0,127.0,107.0,128.0,20.0,-105.0,-78.0,127.0,127.0,127.0,109.0,85.0,-103.0
126.0,127.0,127.0,128.0,127.0,127.0,107.0,128.0,20.0,-105.0,-78.0,127.0,127.0,127.0,109.0,85.0,-103.0
126.0,128.0,127.0,128.0,127.0,127.0,110.0,128.0,20.0,-105.0,-78.0,127.0,127.0,127.0,109.0,85.0,-103.0
126.0,128.0,127.0,128.0,127.0,127.0,109.0,128.0,20.0,-105.0,-78.0,127.0,127.0,127.0,109.0,85.0,-103.0
126.0,128.0,127.0,128.0,127.0,127.0,106.0,128.0,20.0,-105.0,-78.0,127.0,127.0,127.0,109.0,85.0,-103.0
126.0,128.0,127.0,128.0,127.0,127.0,106.0,128.0,20.0,-105.0,-78.0,127.0,127.0,127.0,109.0,85.0,-103.0
127.0,128.0,127.0,128.0,127.0,127.0,114.0,128.0,20.0,-105.0,-78.0,127.0,127.0,127.0,109.0,85.0,-103.0
127.0,128.0,127.0,128.0,127.0,127.0,113.0,128.0,20.0,-105.0,-78.0,127.0,127.0,127.0,109.0,85.0,-103.0
127.0,127.0,127.0,128.0,127.0,127.0,114.0,128.0,20.0,-105.0,-78.0,127.0,127.0,127.0,109.0,85.0,-103.0
127.0,127.0,127.0,128.0,127.0,127.0,114.0,128.0,20.0,-105.0,-78.0,127.0,127.0,127.0,109.0,85.0,-103.0
127.0,127.0,127.0,128.0,127.0,127.0,112.0,128.0,20.0,-105.0,-78.0,127.0,127.0,127.0,109.0,85.0,-103.0
127.0,128.0,127.0,128.0,127.0,127.0,113.0,128.0,20.0,-105.0,-78.0,127.0,127.0,127.0,109.0,85.0,-103.0
127.0,128.0,127.0,128.0,127.0,127.0,113.0,128.0,20.0,-105.0,-78.0,127.0,127.0,127.0,109.0,85.0,-103.0
127.0,128.0,127.0,128.0,127.0,127.0,113.0,128.0,20.0,-105.0,-78.0,127.0,127.0,127.0,109.0,85.0,-103.0
127.0,128.0,127.0,128.0,127.0,127.0,113.0,128.0,20.0,-105.0,-78.0,127.0,127.0,127.0,109.0,85.0,-103.0
127.0,128.0,127.0,128.0,127.0,127.0,113.0,128.0,20.0,-105.0,-78.0,127.0,127.0,127.0,109.0,85.0,-103.0
127.0,128.0,127.0,128.0,127.0,127.0,106.0,128.0,21.0,-105.0,-78.0,127.0,127.0,127.0,109.0,85.0,-103.0
127.0,127.0,127.0,127.0,127.0,127.0,112.0,128.0,21.0,-105.0,-78.0,127.0,127.0,127.0,109.0,85.0,-103.0
127.0,127.0,127.0,128.0,127.0,127.0,113.0,128.0,21.0,-105.0,-78.0,127.0,127.0,127.0,109.0,85.0,-103.0
127.0,127.0,127.0,128.0,127.0,127.0,113.0,128.0,21.0,-105.0,-78.0,127.0,127.0,127.0,109.0,85.0,-103.0
127.0,127.0,127.0,128.0,127.0,127.0,114.0,128.0,21.0,-105.0,-78.0,127.0,127.0,127.0,109.0,85.0,-103.0
127.0,128.0,127.0,128.0,127.0,127.0,113.0,128.0,21.0,-105.0,-78.0,127.0,127.0,127.0,109.0,85.0,-103.0
127.0,128.0,127.0,128.0,127.0,127.0,112.0,128.0,21.0,-105.0,-78.0,127.0,127.0,127.0,109.0,85.0,-103.0
127.0,128.0,127.0,128.0,127.0,127.0,113.0,128.0,21.0,-105.0,-78.0,127.0,127.0,127.0,109.0,85.0,-103.0
127.0,128.0,127.0,128.0,127.0,127.0,113.0,128.0,21.0,-105.0,-78.0,127.0,127.0,127.0,109.0,85.0,-103.0
127.0,128.0,127.0,128.0,127.0,127.0,108.0,128.0,21.0,-105.0,-78.0,127.0,127.0,127.0,109.0,85.0,-103.0
127.0,127.0,127.0,127.0,127.0,127.0,109.0,128.0,21.0,-105.0,-78.0,127.0,127.0,127.0,109.0,85.0,-103.0
127.0,127.0,127.0,127.0,127.0,127.0,108.0,128.0,21.0,-105.0,-78.0,127.0,127.0,127.0,109.0,85.0,-103.0
127.0,127.0,127.0,128.0,127.0,127.0,107.0,128.0,21.0,-105.0,-78.0,127.0,127.0,127.0,109.0,85.0,-103.0
127.0,127.0,127.0,128.0,127.0,127.0,106.0,128.0,21.0,-105.0,-78.0,127.0,127.0,127.0,109.0,85.0,-103.0
127.0,127.0,127.0,128.0,127.0,127.0,106.0,128.0,21.0,-105.0,-78.0,127.0,127.0,127.0,109.0,85.0,-103.0
127.0,127.0,127.0,128.0,128.0,127.0,106.0,128.0,21.0,-105.0,-78.0,127.0,127.0,127.0,109.0,85.0,-103.0
127.0,127.0,127.0,128.0,128.0,127.0,107.0,128.0,21.0,-105.0,-78.0,127.0,127.0,127.0,109.0,85.0,-103.0
127.0,128.0,127.0,128.0,128.0,127.0,106.0,128.0,21.0,-105.0,-78.0,127.0,127.0,127.0,109.0,85.0,-103.0
127.0,128.0,127.0,128.0,128.0,127.0,106.0,128.0,21.0,-105.0,-78.0,127.0,127.0,127.0,109.0,85.0,-103.0
127.0,128.0,127.0,128.0,128.0,127.0,106.0,128.0,21.0,-105.0,-78.0,127.0,127.0,127.0,109.0,85.0,-103.0
127.0,127.0,127.0,127.0,127.0,127.0,113.0,128.0,21.0,-105.0,-78.0,127.0,127.0,127.0,109.0,85.0,-103.0
127.0,127.0,127.0,128.0,127.0,127.0,111.0,128.0,21.0,-105.0,-78.0,127.0,127.0,127.0,109.0,85.0,-103.0
127.0,127.0,127.0,128.0,127.0,127.0,109.0,128.0,21.0,-105.0,-78.0,127.0,127.0,127.0,109.0,85.0,-103.0
126.0,127.0,127.0,128.0,127.0,127.0,107.0,128.0,21.0,-105.0,-78.0,127.0,127.0,127.0,109.0,85.0,-103.0
127.0,127.0,127.0,128.0,127.0,127.0,106.0,128.0,21.0,-105.0,-78.0,127.0,127.0,127.0,109.0,85.0,-103.0
126.0,128.0,127.0,128.0,127.0,127.0,107.0,128.0,21.0,-105.0,-78.0,127.0,127.0,127.0,109.0,85.0,-103.0
126.0,128.0,127.0,128.0,127.0,127.0,109.0,128.0,21.0,-105.0,-78.0,127.0,127.0,127.0,109.0,85.0,-103.0
127.0,128.0,127.0,128.0,127.0,127.0,108.0,128.0,21.0,-105.0,-78.0,127.0,127.0,127.0,109.0,85.0,-103.0
127.0,128.0,127.0,128.0,127.0,127.0,106.0,128.0,21.0,-105.0,-78.0,127.0,127.0,127.0,109.0,85.0,-103.0
126.0,127.0,127.0,127.0,127.0,127.0,113.0,128.0,21.0,-105.0,-78.0,127.0,127.0,127.0,109.0,85.0,-103.0
126.0,127.0,127.0,128.0,127.0,127.0,112.0,128.0,21.0,-105.0,-78.0,127.0,127.0,127.0,109.0,85.0,-103.0
126.0,127.0,127.0,128.0,127.0,127.0,113.0,128.0,21.0,-105.0,-78.0,127.0,127.0,127.0,109.0,85.0,-103.0
126.0,127.0,127.0,128.0,127.0,127.0,113.0,128.0,21.0,-105.0,-78.0,127.0,127.0,127.0,109.0,85.0,-103.0
126.0,127.0,127.0,128.0,127.0,127.0,112.0,128.0,21.0,-105.0,-78.0,127.0,127.0,127.0,109.0,85.0,-103.0
126.0,128.0,127.0,128.0,127.0,127.0,113.0,128.0,21.0,-105.0,-78.0,127.0,127.0,127.0,109.0,85.0,-103.0
126.0,128.0,127.0,128.0,127.0,127.0,113.0,128.0,21.0,-105.0,-78.0,127.0,127.0,127.0,109.0,85.0,-103.0
126.0,128.0,127.0,128.0,127.0,127.0,113.0,128.0,21.0,-105.0,-78.0,127.0,127.0,127.0,109.0,85.0,-103.0
126.0,128.0,127.0,128.0,127.0,127.0,113.0,128.0,21.0,-105.0,-78.0,127.0,127.0,127.0,109.0,85.0,-103.0
127.0,127.0,127.0,127.0,127.0,127.0,113.0,128.0,21.0,-105.0,-78.0,127.0,127.0,127.0,109.0,85.0,-103.0
126.0,127.0,127.0,127.0,127.0,127.0,112.0,128.0,21.0,-105.0,-78.0,127.0,127.0,127.0,109.0,85.0,-103.0
127.0,127.0,127.0,128.0,127.0,127.0,113.0,128.0,21.0,-105.0,-78.0,127.0,127.0,127.0,109.0,85.0,-103.0
127.0,127.0,127.0,128.0,127.0,127.0,113.0,128.0,21.0,-105.0,-78.0,127.0,127.0,127.0,109.0,85.0,-103.0
127.0,127.0,127.0,128.0,127.0,127.0,113.0,128.0,21.0,-105.0,-78.0,127.0,127.0,127.0,109.0,85.0,-103.0
126.0,127.0,127.0,128.0,127.0,127.0,113.0,128.0,21.0,-105.0,-78.0,127.0,127.0,127.0,109.0,85.0,-103.0
126.0,127.0,127.0,128.0,127.0,127.0,113.0,128.0,21.0,-105.0,-78.0,127.0,127.0,127.0,109.0,85.0,-103.0
126.0,127.0,127.0,128.0,127.0,127.0,113.0,128.0,21.0,-105.0,-78.0,127.0,127.0,127.0,109.0,85.0,-103.0
126.0,127.0,127.0,128.0,127.0,127.0,113.0,128.0,21.0,-105.0,-78.0,127.0,127.0,127.0,109.0,85.0,-103.0
126.0,127.0,127.0,127.0,127.0,127.0,113.0,128.0,21.0,-105.0,-78.0,127.0,127.0,127.0,109.0,85.0,-103.0
127.0,127.0,127.0,127.0,127.0,127.0,113.0,128.0,21.0,-105.0,-78.0,127.0,127.0,127.0,109.0,85.0,-103.0
127.0,127.0,127.0,128.0,127.0,127.0,113.0,128.0,21.0,-105.0,-78.0,127.0,127.0,127.0,109.0,85.0,-103.0
126.0,127.0,127.0,128.0,127.0,127.0,113.0,128.0,21.0,-105.0,-78.0,127.0,127.0,127.0,109.0,85.0,-103.0
126.0,127.0,127.0,128.0,127.0,127.0,113.0,128.0,21.0,-105.0,-78.0,127.0,127.0,127.0,109.0,85.0,-103.0
126.0,127.0,127.0,128.0,127.0,127.0,113.0,128.0,21.0,-105.0,-78.0,127.0,127.0,127.0,109.0,85.0,-103.0
126.0,128.0,127.0,128.0,127.0,127.0,113.0,128.0,21.0,-105.0,-78.0,127.0,127.0,127.0,109.0,85.0,-103.0
126.0,128.0,127.0,128.0,127.0,127.0,113.0,128.0,21.0,-105.0,-78.0,127.0,127.0,127.0,109.0,85.0,-103.0
126.0,128.0,127.0,128.0,127.0,127.0,113.0,128.0,21.0,-105.0,-78.0,127.0,127.0,127.0,109.0,85.0,-103.0
126.0,127.0,127.0,127.0,127.0,127.0,112.0,128.0,21.0,-105.0,-78.0,127.0,127.0,127.0,109.0,85.0,-103.0
126.0,127.0,127.0,128.0,127.0,127.0,113.0,128.0,21.0,-105.0,-78.0,127.0,127.0,127.0,109.0,85.0,-103.0
126.0,127.0,127.0,128.0,127.0,127.0,113.0,128.0,21.0,-105.0,-78.0,127.0,127.0,127.0,109.0,85.0,-103.0
126.0,127.0,127.0,128.0,127.0,127.0,113.0,128.0,21.0,-105.0,-78.0,127.0,127.0,127.0,109.0,85.0,-103.0
126.0,127.0,127.0,128.0,127.0,127.0,112.0,128.0,21.0,-105.0,-78.0,127.0,127.0,127.0,109.0,85.0,-103.0
126.0,127.0,127.0,128.0,127.0,127.0,110.0,128.0,21.0,-105.0,-78.0,127.0,127.0,127.0,109.0,85.0,-103.0
126.0,128.0,127.0,128.0,127.0,127.0,112.0,128.0,21.0,-105.0,-78.0,127.0,127.0,127.0,109.0,85.0,-103.0
126.0,128.0,127.0,128.0,127.0,127.0,113.0,128.0,21.0,-105.0,-78.0,127.0,127.0,127.0,109.0,85.0,-103.0
126.0,128.0,127.0,128.0,127.0,127.0,114.0,128.0,21.0,-105.0,-78.0,127.0,127.0,127.0,109.0,85.0,-103.0
126.0,127.0,127.0,127.0,127.0,127.0,113.0,128.0,21.0,-105.0,-78.0,127.0,127.0,127.0,109.0,85.0,-103.0
126.0,127.0,127.0,127.0,127.0,127.0,113.0,128.0,21.0,-105.0,-78.0,127.0,127.0,127.0,109.0,85.0,-103.0
126.0,127.0,127.0,128.0,127.0,127.0,113.0,128.0,21.0,-105.0,-78.0,127.0,127.0,127.0,109.0,85.0,-103.0
126.0,127.0,127.0,128.0,127.0,127.0,113.0,128.0,21.0,-105.0,-78.0,127.0,127.0,127.0,109.0,85.0,-103.0
126.0,127.0,127.0,128.0,127.0,127.0,112.0,128.0,21.0,-105.0,-78.0,127.0,127.0,127.0,109.0,85.0,-103.0
127.0,127.0,127.0,128.0,127.0,127.0,108.0,128.0,21.0,-104.0,-78.0,127.0,127.0,127.0,109.0,85.0,-103.0
126.0,128.0,127.0,128.0,127.0,127.0,110.0,128.0,21.0,-104.0,-78.0,127.0,127.0,127.0,109.0,85.0,-103.0
127.0,128.0,127.0,128.0,127.0,127.0,112.0,128.0,21.0,-104.0,-78.0,127.0,127.0,127.0,109.0,85.0,-103.0
127.0,128.0,127.0,128.0,127.0,127.0,112.0,128.0,21.0,-104.0,-78.0,127.0,127.0,127.0,109.0,85.0,-103.0
127.0,127.0,127.0,127.0,127.0,127.0,113.0,128.0,21.0,-104.0,-78.0,127.0,127.0,127.0,109.0,85.0,-103.0
127.0,127.0,127.0,127.0,127.0,127.0,113.0,128.0,21.0,-104.0,-78.0,127.0,127.0,127.0,109.0,85.0,-103.0
127.0,127.0,127.0,128.0,127.0,127.0,113.0,128.0,21.0,-104.0,-78.0,127.0,127.0,127.0,109.0,85.0,-103.0
127.0,127.0,127.0,128.0,127.0,127.0,114.0,128.0,21.0,-104.0,-78.0,127.0,127.0,127.0,109.0,85.0,-103.0
127.0,127.0,127.0,128.0,127.0,127.0,114.0,128.0,21.0,-104.0,-78.0,127.0,127.0,127.0,109.0,85.0,-103.0
127.0,127.0,127.0,128.0,127.0,127.0,112.0,128.0,21.0,-104.0,-78.0,127.0,127.0,127.0,109.0,85.0,-103.0
127.0,128.0,127.0,128.0,127.0,127.0,113.0,128.0,20.0,-104.0,-79.0,127.0,127.0,127.0,109.0,85.0,-103.0
127.0,128.0,127.0,128.0,127.0,127.0,113.0,128.0,20.0,-104.0,-79.0,127.0,127.0,127.0,109.0,85.0,-103.0
127.0,128.0,127.0,129.0,127.0,127.0,113.0,128.0,20.0,-104.0,-79.0,127.0,127.0,127.0,109.0,85.0,-103.0
127.0,127.0,127.0,127.0,127.0,127.0,112.0,128.0,20.0,-104.0,-79.0,127.0,127.0,127.0,109.0,85.0,-103.0
127.0,127.0,127.0,127.0,127.0,127.0,113.0,128.0,20.0,-104.0,-79.0,127.0,127.0,127.0,109.0,85.0,-103.0
127.0,127.0,127.0,128.0,127.0,127.0,112.0,128.0,20.0,-104.0,-79.0,127.0,127.0,127.0,109.0,85.0,-103.0
127.0,127.0,127.0,128.0,127.0,127.0,113.0,128.0,20.0,-104.0,-79.0,127.0,127.0,127.0,109.0,85.0,-103.0
127.0,127.0,127.0,128.0,127.0,127.0,113.0,128.0,20.0,-104.0,-79.0,127.0,127.0,127.0,109.0,85.0,-103.0
127.0,127.0,127.0,128.0,127.0,127.0,112.0,128.0,20.0,-104.0,-79.0,127.0,127.0,127.0,109.0,85.0,-103.0
127.0,128.0,127.0,128.0,127.0,127.0,113.0,128.0,20.0,-104.0,-79.0,127.0,127.0,127.0,109.0,85.0,-103.0
126.0,128.0,127.0,128.0,127.0,127.0,110.0,128.0,20.0,-104.0,-79.0,127.0,127.0,127.0,109.0,85.0,-103.0
126.0,128.0,127.0,128.0,127.0,127.0,110.0,128.0,20.0,-104.0,-79.0,127.0,127.0,127.0,109.0,85.0,-103.0
126.0,127.0,127.0,127.0,127.0,127.0,112.0,128.0,20.0,-104.0,-79.0,127.0,127.0,127.0,109.0,85.0,-103.0
126.0,127.0,127.0,127.0,127.0,127.0,111.0,128.0,20.0,-104.0,-79.0,127.0,127.0,127.0,109.0,85.0,-103.0
126.0,128.0,127.0,128.0,127.0,127.0,112.0,128.0,20.0,-104.0,-79.0,127.0,127.0,127.0,109.0,85.0,-103.0
127.0,128.0,127.0,128.0,127.0,127.0,111.0,128.0,20.0,-104.0,-79.0,127.0,127.0,127.0,109.0,85.0,-103.0
127.0,128.0,127.0,128.0,127.0,127.0,108.0,128.0,20.0,-104.0,-79.0,127.0,127.0,127.0,109.0,85.0,-103.0
127.0,128.0,127.0,128.0,127.0,127.0,106.0,128.0,20.0,-104.0,-79.0,127.0,127.0,127.0,109.0,85.0,-103.0
126.0,128.0,127.0,128.0,127.0,127.0,106.0,128.0,20.0,-104.0,-79.0,127.0,127.0,127.0,109.0,85.0,-103.0
126.0,128.0,127.0,128.0,127.0,127.0,109.0,128.0,20.0,-104.0,-79.0,127.0,127.0,127.0,109.0,85.0,-103.0
126.0,128.0,127.0,128.0,128.0,127.0,112.0,128.0,20.0,-104.0,-79.0,127.0,127.0,127.0,109.0,85.0,-103.0
127.0,127.0,127.0,127.0,127.0,127.0,113.0,128.0,20.0,-104.0,-79.0,127.0,127.0,127.0,109.0,85.0,-103.0
127.0,127.0,127.0,127.0,127.0,127.0,112.0,128.0,20.0,-104.0,-79.0,127.0,127.0,127.0,109.0,85.0,-103.0
127.0,128.0,127.0,127.0,127.0,127.0,112.0,128.0,20.0,-104.0,-79.0,127.0,127.0,127.0,109.0,85.0,-103.0
126.0,128.0,127.0,127.0,127.0,127.0,113.0,128.0,20.0,-104.0,-79.0,127.0,127.0,127.0,109.0,85.0,-103.0
126.0,128.0,127.0,128.0,127.0,127.0,108.0,128.0,20.0,-104.0,-79.0,127.0,127.0,127.0,109.0,85.0,-103.0
126.0,128.0,127.0,128.0,127.0,127.0,106.0,128.0,20.0,-104.0,-79.0,127.0,127.0,127.0,109.0,85.0,-103.0
126.0,128.0,127.0,128.0,127.0,127.0,106.0,128.0,20.0,-104.0,-79.0,127.0,127.0,127.0,109.0,85.0,-103.0
126.0,128.0,127.0,128.0,127.0,127.0,107.0,128.0,20.0,-104.0,-79.0,127.0,127.0,127.0,109.0,85.0,-103.0
126.0,128.0,127.0,128.0,128.0,127.0,111.0,128.0,20.0,-104.0,-79.0,127.0,127.0,127.0,109.0,85.0,-103.0
126.0,127.0,127.0,127.0,127.0,127.0,114.0,128.0,20.0,-104.0,-79.0,127.0,127.0,127.0,109.0,85.0,-103.0
126.0,127.0,127.0,127.0,127.0,127.0,113.0,128.0,20.0,-104.0,-79.0,127.0,127.0,127.0,109.0,85.0,-103.0
126.0,127.0,127.0,127.0,127.0,127.0,113.0,128.0,20.0,-104.0,-79.0,127.0,127.0,127.0,109.0,85.0,-103.0
126.0,127.0,127.0,128.0,127.0,127.0,113.0,128.0,20.0,-104.0,-79.0,127.0,127.0,127.0,109.0,85.0,-103.0
126.0,127.0,127.0,128.0,127.0,127.0,114.0,128.0,20.0,-104.0,-79.0,127.0,127.0,127.0,109.0,85.0,-103.0
126.0,127.0,127.0,128.0,127.0,127.0,110.0,128.0,20.0,-104.0,-79.0,127.0,127.0,127.0,109.0,85.0,-103.0
126.0,127.0,127.0,128.0,127.0,127.0,111.0,128.0,20.0,-104.0,-79.0,127.0,127.0,127.0,109.0,85.0,-103.0
126.0,128.0,127.0,128.0,127.0,127.0,111.0,128.0,20.0,-104.0,-79.0,127.0,127.0,127.0,109.0,85.0,-103.0
126.0,128.0,127.0,128.0,127.0,127.0,113.0,128.0,20.0,-104.0,-79.0,127.0,127.0,127.0,109.0,85.0,-103.0
126.0,128.0,127.0,128.0,127.0,127.0,113.0,128.0,20.0,-104.0,-79.0,127.0,127.0,127.0,109.0,85.0,-103.0
126.0,127.0,127.0,127.0,127.0,127.0,113.0,128.0,21.0,-104.0,-79.0,127.0,127.0,127.0,109.0,85.0,-103.0
126.0,127.0,127.0,127.0,127.0,127.0,112.0,128.0,21.0,-104.0,-79.0,127.0,127.0,127.0,109.0,85.0,-103.0
126.0,127.0,127.0,128.0,127.0,127.0,113.0,128.0,21.0,-104.0,-79.0,127.0,127.0,127.0,109.0,85.0,-103.0
126.0,127.0,127.0,128.0,127.0,127.0,109.0,128.0,21.0,-104.0,-79.0,127.0,127.0,127.0,109.0,85.0,-103.0
127.0,127.0,127.0,128.0,127.0,127.0,107.0,128.0,21.0,-104.0,-79.0,127.0,127.0,127.0,109.0,85.0,-103.0
126.0,127.0,127.0,128.0,127.0,127.0,107.0,128.0,21.0,-104.0,-79.0,127.0,127.0,127.0,109.0,85.0,-103.0
127.0,127.0,127.0,128.0,127.0,127.0,106.0,128.0,21.0,-104.0,-79.0,127.0,127.0,127.0,109.0,85.0,-103.0
127.0,127.0,127.0,128.0,127.0,127.0,106.0,128.0,21.0,-104.0,-79.0,127.0,127.0,127.0,109.0,85.0,-103.0
126.0,127.0,127.0,128.0,127.0,127.0,107.0,128.0,21.0,-104.0,-79.0,127.0,127.0,127.0,109.0,85.0,-103.0
127.0,127.0,127.0,127.0,127.0,127.0,113.0,128.0,21.0,-104.0,-79.0,127.0,127.0,127.0,109.0,85.0,-103.0
126.0,127.0,127.0,128.0,127.0,127.0,112.0,128.0,21.0,-104.0,-79.0,127.0,127.0,127.0,109.0,85.0,-103.0
126.0,127.0,127.0,128.0,127.0,127.0,113.0,128.0,21.0,-104.0,-79.0,127.0,127.0,127.0,109.0,85.0,-103.0
126.0,127.0,127.0,128.0,127.0,127.0,113.0,128.0,21.0,-104.0,-79.0,127.0,127.0,127.0,109.0,85.0,-103.0
126.0,128.0,127.0,128.0,127.0,127.0,113.0,128.0,21.0,-104.0,-79.0,127.0,127.0,127.0,109.0,85.0,-103.0
126.0,128.0,127.0,128.0,127.0,127.0,113.0,128.0,21.0,-104.0,-79.0,127.0,127.0,127.0,109.0,85.0,-103.0
126.0,128.0,127.0,128.0,127.0,127.0,113.0,128.0,21.0,-104.0,-79.0,127.0,127.0,127.0,109.0,85.0,-103.0
126.0,128.0,127.0,128.0,127.0,127.0,113.0,128.0,21.0,-104.0,-79.0,127.0,127.0,127.0,109.0,85.0,-103.0
126.0,128.0,127.0,128.0,127.0,127.0,114.0,128.0,21.0,-104.0,-79.0,127.0,127.0,127.0,109.0,85.0,-103.0
127.0,127.0,127.0,127.0,127.0,127.0,112.0,128.0,21.0,-104.0,-79.0,127.0,127.0,127.0,109.0,85.0,-103.0
127.0,127.0,127.0,127.0,127.0,127.0,112.0,128.0,21.0,-104.0,-79.0,127.0,127.0,127.0,109.0,85.0,-103.0
126.0,127.0,127.0,128.0,127.0,127.0,114.0,128.0,21.0,-105.0,-79.0,127.0,127.0,127.0,109.0,85.0,-103.0
126.0,127.0,127.0,128.0,127.0,127.0,111.0,128.0,21.0,-105.0,-79.0,127.0,127.0,127.0,109.0,85.0,-103.0
126.0,128.0,127.0,128.0,127.0,127.0,112.0,128.0,21.0,-105.0,-79.0,127.0,127.0,127.0,109.0,85.0,-103.0
126.0,128.0,127.0,128.0,127.0,127.0,112.0,128.0,21.0,-105.0,-79.0,127.0,127.0,127.0,109.0,85.0,-103.0
126.0,128.0,127.0,128.0,127.0,127.0,109.0,128.0,21.0,-105.0,-79.0,127.0,127.0,127.0,109.0,85.0,-103.0
126.0,128.0,127.0,128.0,127.0,127.0,108.0,128.0,21.0,-105.0,-79.0,127.0,127.0,127.0,109.0,85.0,-103.0
126.0,128.0,127.0,129.0,127.0,127.0,107.0,128.0,21.0,-105.0,-79.0,127.0,127.0,127.0,109.0,85.0,-103.0
126.0,127.0,127.0,127.0,127.0,127.0,112.0,128.0,21.0,-105.0,-79.0,127.0,127.0,127.0,109.0,85.0,-103.0
126.0,127.0,127.0,127.0,127.0,127.0,113.0,128.0,21.0,-105.0,-79.0,127.0,127.0,127.0,109.0,85.0,-103.0
126.0,127.0,127.0,128.0,127.0,127.0,114.0,128.0,21.0,-105.0,-79.0,127.0,127.0,127.0,109.0,85.0,-103.0
126.0,127.0,127.0,128.0,127.0,127.0,113.0,128.0,21.0,-105.0,-79.0,127.0,127.0,127.0,109.0,85.0,-103.0
126.0,128.0,127.0,128.0,128.0,127.0,113.0,128.0,21.0,-105.0,-79.0,127.0,127.0,127.0,109.0,85.0,-103.0
126.0,128.0,127.0,128.0,128.0,127.0,113.0,128.0,21.0,-105.0,-79.0,127.0,127.0,127.0,109.0,85.0,-103.0
126.0,128.0,127.0,128.0,128.0,127.0,114.0,128.0,21.0,-105.0,-79.0,127.0,127.0,127.0,109.0,85.0,-103.0
126.0,128.0,127.0,128.0,128.0,127.0,114.0,128.0,21.0,-105.0,-79.0,127.0,127.0,127.0,109.0,85.0,-103.0
126.0,128.0,127.0,128.0,128.0,127.0,112.0,128.0,21.0,-105.0,-79.0,127.0,127.0,127.0,109.0,85.0,-103.0
126.0,127.0,127.0,127.0,127.0,127.0,112.0,128.0,21.0,-105.0,-79.0,127.0,127.0,127.0,109.0,85.0,-103.0
127.0,127.0,127.0,127.0,127.0,127.0,112.0,128.0,21.0,-105.0,-79.0,127.0,127.0,127.0,109.0,85.0,-103.0
126.0,127.0,127.0,127.0,127.0,127.0,113.0,128.0,21.0,-105.0,-79.0,127.0,127.0,127.0,109.0,85.0,-103.0
127.0,127.0,127.0,128.0,127.0,127.0,113.0,128.0,21.0,-105.0,-79.0,127.0,127.0,127.0,109.0,85.0,-103.0
126.0,128.0,127.0,128.0,127.0,127.0,111.0,128.0,21.0,-105.0,-79.0,127.0,127.0,127.0,109.0,85.0,-103.0
127.0,128.0,127.0,128.0,127.0,127.0,111.0,128.0,21.0,-105.0,-79.0,127.0,127.0,127.0,109.0,85.0,-103.0
127.0,128.0,127.0,128.0,127.0,127.0,107.0,128.0,21.0,-105.0,-79.0,127.0,127.0,127.0,109.0,85.0,-103.0
127.0,128.0,127.0,129.0,127.0,127.0,106.0,128.0,21.0,-105.0,-79.0,127.0,127.0,127.0,109.0,85.0,-103.0
127.0,128.0,127.0,129.0,127.0,127.0,106.0,128.0,21.0,-105.0,-79.0,127.0,127.0,127.0,109.0,85.0,-103.0
127.0,127.0,127.0,127.0,127.0,127.0,113.0,128.0,21.0,-105.0,-79.0,127.0,127.0,127.0,109.0,85.0,-103.0
127.0,127.0,127.0,127.0,127.0,127.0,113.0,128.0,21.0,-105.0,-79.0,127.0,127.0,127.0,109.0,85.0,-103.0
127.0,127.0,127.0,128.0,127.0,127.0,113.0,128.0,21.0,-105.0,-79.0,127.0,127.0,127.0,109.0,85.0,-103.0
127.0,127.0,127.0,128.0,127.0,127.0,112.0,128.0,21.0,-105.0,-79.0,127.0,127.0,127.0,109.0,85.0,-103.0
127.0,127.0,127.0,128.0,127.0,127.0,110.0,128.0,21.0,-105.0,-79.0,127.0,127.0,127.0,109.0,85.0,-103.0
126.0,128.0,127.0,128.0,127.0,127.0,113.0,128.0,21.0,-105.0,-79.0,127.0,127.0,127.0,109.0,85.0,-103.0
126.0,128.0,127.0,128.0,127.0,127.0,114.0,128.0,21.0,-105.0,-79.0,127.0,127.0,127.0,109.0,85.0,-103.0
126.0,128.0,127.0,128.0,127.0,127.0,112.0,128.0,21.0,-105.0,-79.0,127.0,127.0,127.0,109.0,85.0,-103.0
126.0,127.0,127.0,127.0,127.0,127.0,112.0,128.0,21.0,-105.0,-79.0,127.0,127.0,127.0,109.0,85.0,-103.0
126.0,127.0,127.0,127.0,127.0,127.0,112.0,128.0,21.0,-105.0,-79.0,127.0,127.0,127.0,109.0,85.0,-103.0
126.0,127.0,127.0,128.0,127.0,127.0,113.0,128.0,21.0,-105.0,-79.0,127.0,127.0,127.0,109.0,85.0,-103.0
126.0,127.0,127.0,128.0,127.0,127.0,113.0,128.0,21.0,-105.0,-79.0,127.0,127.0,127.0,109.0,85.0,-103.0
126.0,127.0,127.0,128.0,127.0,127.0,113.0,128.0,21.0,-105.0,-79.0,127.0,127.0,127.0,109.0,85.0,-103.0
126.0,127.0,127.0,128.0,127.0,127.0,114.0,128.0,21.0,-105.0,-79.0,127.0,127.0,127.0,109.0,85.0,-103.0
126.0,127.0,127.0,128.0,127.0,127.0,113.0,128.0,21.0,-105.0,-79.0,127.0,127.0,127.0,109.0,85.0,-103.0
127.0,128.0,127.0,128.0,127.0,127.0,108.0,128.0,20.0,-105.0,-79.0,127.0,127.0,127.0,109.0,85.0,-103.0
127.0,128.0,127.0,128.0,127.0,127.0,106.0,128.0,20.0,-105.0,-79.0,127.0,127.0,127.0,109.0,85.0,-103.0
126.0,127.0,127.0,127.0,127.0,127.0,113.0,128.0,20.0,-105.0,-79.0,127.0,127.0,127.0,109.0,85.0,-103.0
127.0,127.0,127.0,127.0,127.0,127.0,112.0,128.0,20.0,-105.0,-79.0,127.0,127.0,127.0,109.0,85.0,-103.0
127.0,127.0,127.0,127.0,127.0,127.0,113.0,128.0,20.0,-105.0,-79.0,127.0,127.0,127.0,109.0,85.0,-103.0
127.0,127.0,127.0,127.0,127.0,127.0,113.0,128.0,20.0,-105.0,-79.0,127.0,127.0,127.0,109.0,85.0,-103.0
127.0,127.0,127.0,127.0,127.0,127.0,113.0,128.0,20.0,-105.0,-79.0,127.0,127.0,127.0,109.0,85.0,-103.0
127.0,127.0,127.0,128.0,127.0,127.0,112.0,128.0,20.0,-105.0,-79.0,127.0,127.0,127.0,109.0,85.0,-103.0
126.0,127.0,127.0,128.0,127.0,127.0,112.0,128.0,20.0,-105.0,-79.0,127.0,127.0,127.0,109.0,85.0,-103.0
127.0,128.0,127.0,128.0,127.0,127.0,111.0,128.0,20.0,-105.0,-79.0,127.0,127.0,127.0,109.0,85.0,-103.0
126.0,128.0,127.0,128.0,127.0,127.0,113.0,128.0,20.0,-104.0,-79.0,127.0,127.0,127.0,109.0,85.0,-103.0
127.0,127.0,127.0,126.0,127.0,127.0,113.0,128.0,20.0,-104.0,-79.0,127.0,127.0,127.0,109.0,85.0,-103.0
127.0,127.0,127.0,127.0,127.0,127.0,113.0,128.0,20.0,-104.0,-79.0,127.0,127.0,127.0,109.0,85.0,-103.0
127.0,127.0,127.0,127.0,127.0,127.0,113.0,128.0,20.0,-104.0,-79.0,127.0,127.0,127.0,109.0,85.0,-103.0
127.0,127.0,127.0,127.0,127.0,127.0,113.0,128.0,20.0,-104.0,-79.0,127.0,127.0,127.0,109.0,85.0,-103.0
127.0,127.0,127.0,127.0,127.0,127.0,113.0,128.0,20.0,-104.0,-79.0,127.0,127.0,127.0,109.0,85.0,-103.0
127.0,127.0,127.0,127.0,127.0,127.0,111.0,128.0,20.0,-104.0,-79.0,127.0,127.0,127.0,109.0,85.0,-103.0
126.0,127.0,127.0,128.0,127.0,127.0,111.0,128.0,20.0,-104.0,-79.0,127.0,127.0,127.0,109.0,85.0,-103.0
126.0,128.0,127.0,128.0,127.0,127.0,113.0,128.0,20.0,-104.0,-79.0,127.0,127.0,127.0,109.0,85.0,-103.0
126.0,128.0,127.0,128.0,127.0,127.0,114.0,128.0,20.0,-104.0,-79.0,127.0,127.0,127.0,109.0,85.0,-103.0
127.0,127.0,127.0,127.0,127.0,127.0,112.0,128.0,20.0,-104.0,-79.0,127.0,127.0,127.0,109.0,85.0,-103.0
126.0,127.0,127.0,127.0,127.0,127.0,112.0,128.0,20.0,-104.0,-79.0,127.0,127.0,127.0,109.0,85.0,-103.0
127.0,127.0,127.0,127.0,127.0,127.0,112.0,128.0,20.0,-104.0,-79.0,127.0,127.0,127.0,109.0,85.0,-103.0
127.0,127.0,127.0,127.0,127.0,127.0,113.0,128.0,20.0,-104.0,-79.0,127.0,127.0,127.0,109.0,85.0,-103.0
126.0,127.0,127.0,128.0,127.0,127.0,113.0,128.0,20.0,-104.0,-79.0,127.0,127.0,127.0,109.0,85.0,-103.0
126.0,127.0,127.0,128.0,127.0,127.0,113.0,128.0,20.0,-104.0,-79.0,127.0,127.0,127.0,109.0,85.0,-103.0
126.0,127.0,127.0,128.0,127.0,127.0,113.0,128.0,20.0,-104.0,-79.0,127.0,127.0,127.0,109.0,85.0,-103.0
126.0,127.0,127.0,128.0,127.0,127.0,113.0,128.0,20.0,-104.0,-79.0,127.0,127.0,127.0,109.0,85.0,-103.0
126.0,127.0,127.0,128.0,127.0,127.0,112.0,128.0,20.0,-104.0,-79.0,127.0,127.0,127.0,109.0,85.0,-103.0
126.0,127.0,127.0,128.0,127.0,127.0,113.0,128.0,20.0,-104.0,-79.0,127.0,127.0,127.0,109.0,85.0,-103.0
126.0,127.0,127.0,126.0,127.0,127.0,112.0,128.0,21.0,-104.0,-79.0,127.0,127.0,127.0,109.0,85.0,-103.0
127.0,127.0,127.0,127.0,127.0,127.0,112.0,128.0,21.0,-104.0,-79.0,127.0,127.0,127.0,109.0,85.0,-103.0
126.0,127.0,127.0,127.0,127.0,127.0,112.0,128.0,21.0,-104.0,-79.0,127.0,127.0,127.0,109.0,85.0,-103.0
126.0,127.0,127.0,127.0,127.0,127.0,112.0,128.0,21.0,-104.0,-79.0,127.0,127.0,127.0,109.0,85.0,-103.0
126.0,127.0,127.0,127.0,127.0,127.0,112.0,128.0,21.0,-104.0,-79.0,127.0,127.0,127.0,109.0,85.0,-103.0
126.0,127.0,127.0,127.0,127.0,127.0,113.0,128.0,21.0,-104.0,-79.0,127.0,127.0,127.0,109.0,85.0,-103.0
126.0,127.0,127.0,127.0,127.0,127.0,113.0,128.0,21.0,-104.0,-79.0,127.0,127.0,127.0,109.0,85.0,-103.0
126.0,127.0,127.0,128.0,127.0,127.0,113.0,128.0,21.0,-104.0,-79.0,127.0,127.0,127.0,109.0,85.0,-103.0
126.0,127.0,127.0,128.0,127.0,127.0,113.0,128.0,21.0,-104.0,-79.0,127.0,127.0,127.0,109.0,85.0,-103.0
127.0,127.0,127.0,126.0,127.0,127.0,112.0,128.0,21.0,-104.0,-79.0,127.0,127.0,127.0,109.0,85.0,-103.0
127.0,127.0,127.0,127.0,127.0,127.0,112.0,128.0,21.0,-104.0,-79.0,127.0,127.0,127.0,109.0,85.0,-103.0
127.0,127.0,127.0,127.0,127.0,127.0,112.0,128.0,21.0,-104.0,-79.0,127.0,127.0,127.0,109.0,85.0,-103.0
126.0,127.0,127.0,127.0,127.0,127.0,113.0,128.0,21.0,-104.0,-79.0,127.0,127.0,127.0,109.0,85.0,-103.0
127.0,128.0,127.0,128.0,127.0,127.0,113.0,128.0,21.0,-104.0,-79.0,127.0,127.0,127.0,109.0,85.0,-103.0
127.0,128.0,127.0,128.0,127.0,127.0,113.0,128.0,21.0,-104.0,-79.0,127.0,127.0,127.0,109.0,85.0,-103.0
127.0,128.0,127.0,128.0,127.0,127.0,113.0,128.0,21.0,-104.0,-79.0,127.0,127.0,127.0,109.0,85.0,-103.0
127.0,128.0,127.0,128.0,127.0,127.0,113.0,128.0,21.0,-104.0,-79.0,127.0,127.0,127.0,109.0,85.0,-103.0
127.0,128.0,127.0,128.0,127.0,127.0,113.0,128.0,21.0,-104.0,-79.0,127.0,127.0,127.0,109.0,85.0,-103.0
127.0,127.0,127.0,127.0,127.0,127.0,112.0,128.0,21.0,-104.0,-79.0,127.0,127.0,127.0,109.0,85.0,-103.0
127.0,127.0,127.0,127.0,127.0,127.0,112.0,128.0,21.0,-104.0,-79.0,127.0,127.0,127.0,109.0,85.0,-103.0
127.0,127.0,127.0,127.0,127.0,127.0,113.0,128.0,21.0,-104.0,-79.0,127.0,127.0,127.0,109.0,85.0,-103.0
127.0,127.0,127.0,127.0,127.0,127.0,113.0,128.0,21.0,-104.0,-79.0,127.0,127.0,127.0,109.0,85.0,-103.0
127.0,127.0,127.0,127.0,127.0,127.0,113.0,128.0,21.0,-104.0,-79.0,127.0,127.0,127.0,109.0,85.0,-103.0
127.0,127.0,127.0,128.0,127.0,127.0,113.0,128.0,21.0,-104.0,-79.0,127.0,127.0,127.0,109.0,85.0,-103.0
127.0,127.0,127.0,128.0,127.0,127.0,113.0,128.0,21.0,-104.0,-79.0,127.0,127.0,127.0,109.0,85.0,-103.0
127.0,127.0,127.0,128.0,127.0,127.0,112.0,128.0,21.0,-104.0,-79.0,127.0,127.0,127.0,109.0,85.0,-103.0
127.0,128.0,127.0,128.0,127.0,127.0,108.0,128.0,21.0,-104.0,-79.0,127.0,127.0,127.0,109.0,85.0,-103.0
127.0,127.0,127.0,127.0,127.0,127.0,112.0,128.0,21.0,-104.0,-79.0,127.0,127.0,127.0,109.0,85.0,-103.0
127.0,127.0,127.0,127.0,127.0,127.0,112.0,128.0,21.0,-104.0,-79.0,127.0,127.0,127.0,109.0,85.0,-103.0
127.0,127.0,127.0,127.0,127.0,127.0,113.0,128.0,21.0,-104.0,-79.0,127.0,127.0,127.0,109.0,85.0,-103.0
127.0,127.0,127.0,127.0,127.0,127.0,113.0,128.0,21.0,-104.0,-79.0,127.0,127.0,127.0,109.0,85.0,-103.0
127.0,127.0,127.0,127.0,127.0,127.0,112.0,128.0,21.0,-104.0,-79.0,127.0,127.0,127.0,109.0,85.0,-103.0
127.0,127.0,127.0,128.0,127.0,127.0,113.0,128.0,21.0,-104.0,-79.0,127.0,127.0,127.0,109.0,85.0,-103.0
127.0,127.0,127.0,128.0,127.0,127.0,113.0,128.0,21.0,-104.0,-79.0,127.0,127.0,127.0,109.0,85.0,-103.0
127.0,127.0,127.0,128.0,127.0,127.0,109.0,128.0,21.0,-104.0,-79.0,127.0,127.0,127.0,109.0,85.0,-103.0
127.0,127.0,127.0,128.0,127.0,127.0,108.0,128.0,21.0,-104.0,-79.0,127.0,127.0,127.0,109.0,85.0,-103.0
127.0,127.0,127.0,126.0,127.0,127.0,112.0,128.0,21.0,-104.0,-79.0,127.0,127.0,127.0,109.0,85.0,-103.0
127.0,127.0,127.0,127.0,127.0,127.0,112.0,128.0,21.0,-104.0,-79.0,127.0,127.0,127.0,109.0,85.0,-103.0
127.0,127.0,127.0,127.0,127.0,127.0,113.0,128.0,21.0,-104.0,-79.0,127.0,127.0,127.0,109.0,85.0,-103.0
127.0,127.0,127.0,127.0,127.0,127.0,113.0,128.0,21.0,-104.0,-79.0,127.0,127.0,127.0,109.0,85.0,-103.0
126.0,127.0,127.0,128.0,127.0,127.0,113.0,128.0,21.0,-104.0,-79.0,127.0,127.0,127.0,109.0,85.0,-103.0
126.0,127.0,127.0,128.0,127.0,127.0,113.0,128.0,21.0,-104.0,-79.0,127.0,127.0,127.0,109.0,85.0,-103.0
126.0,127.0,127.0,128.0,127.0,127.0,113.0,128.0,21.0,-104.0,-79.0,127.0,127.0,127.0,109.0,85.0,-103.0
126.0,127.0,127.0,128.0,127.0,127.0,113.0,128.0,21.0,-104.0,-79.0,127.0,127.0,127.0,109.0,85.0,-103.0
126.0,127.0,127.0,128.0,127.0,127.0,113.0,128.0,21.0,-104.0,-79.0,127.0,127.0,127.0,109.0,85.0,-103.0
127.0,127.0,127.0,127.0,127.0,127.0,112.0,128.0,21.0,-104.0,-79.0,127.0,127.0,127.0,109.0,85.0,-103.0
126.0,127.0,127.0,127.0,127.0,127.0,112.0,128.0,21.0,-104.0,-79.0,127.0,127.0,127.0,109.0,85.0,-103.0
126.0,127.0,127.0,127.0,127.0,127.0,112.0,128.0,21.0,-104.0,-79.0,127.0,127.0,127.0,109.0,85.0,-103.0
126.0,127.0,127.0,127.0,127.0,127.0,112.0,128.0,21.0,-104.0,-79.0,127.0,127.0,127.0,109.0,85.0,-103.0
126.0,127.0,127.0,127.0,127.0,127.0,113.0,128.0,21.0,-104.0,-79.0,127.0,127.0,127.0,109.0,85.0,-103.0
126.0,127.0,127.0,128.0,127.0,127.0,113.0,128.0,21.0,-104.0,-79.0,127.0,127.0,127.0,109.0,85.0,-103.0
126.0,127.0,127.0,128.0,127.0,127.0,113.0,128.0,21.0,-104.0,-79.0,127.0,127.0,127.0,109.0,85.0,-103.0
126.0,127.0,127.0,128.0,127.0,127.0,113.0,128.0,21.0,-104.0,-79.0,127.0,127.0,127.0,109.0,85.0,-103.0
126.0,127.0,127.0,128.0,127.0,127.0,113.0,128.0,21.0,-104.0,-79.0,127.0,127.0,127.0,109.0,85.0,-103.0
127.0,127.0,127.0,127.0,127.0,127.0,112.0,128.0,21.0,-104.0,-79.0,127.0,127.0,127.0,109.0,85.0,-103.0
127.0,127.0,127.0,127.0,127.0,127.0,112.0,128.0,21.0,-104.0,-79.0,127.0,127.0,127.0,109.0,85.0,-103.0
126.0,127.0,127.0,127.0,127.0,127.0,113.0,128.0,21.0,-104.0,-79.0,127.0,127.0,127.0,109.0,85.0,-103.0
126.0,127.0,127.0,127.0,127.0,127.0,113.0,128.0,21.0,-104.0,-79.0,127.0,127.0,127.0,109.0,85.0,-103.0
126.0,127.0,127.0,127.0,127.0,127.0,113.0,128.0,21.0,-104.0,-79.0,127.0,127.0,127.0,109.0,85.0,-103.0
126.0,127.0,127.0,127.0,127.0,127.0,113.0,128.0,21.0,-104.0,-79.0,127.0,127.0,127.0,109.0,85.0,-103.0
127.0,127.0,127.0,128.0,127.0,127.0,113.0,128.0,21.0,-104.0,-79.0,127.0,127.0,127.0,109.0,85.0,-103.0
127.0,127.0,127.0,128.0,127.0,127.0,113.0,128.0,21.0,-104.0,-79.0,127.0,127.0,127.0,109.0,85.0,-103.0
127.0,128.0,127.0,128.0,127.0,127.0,113.0,128.0,21.0,-104.0,-79.0,127.0,127.0,127.0,109.0,85.0,-103.0
127.0,127.0,127.0,127.0,127.0,127.0,112.0,128.0,21.0,-104.0,-79.0,127.0,127.0,127.0,109.0,85.0,-103.0
127.0,127.0,127.0,127.0,127.0,127.0,112.0,128.0,21.0,-104.0,-79.0,127.0,127.0,127.0,109.0,85.0,-103.0
127.0,127.0,127.0,127.0,127.0,127.0,113.0,128.0,21.0,-104.0,-79.0,127.0,127.0,127.0,109.0,85.0,-103.0
127.0,127.0,127.0,127.0,127.0,127.0,113.0,128.0,21.0,-104.0,-79.0,127.0,127.0,127.0,109.0,85.0,-103.0
127.0,127.0,127.0,127.0,127.0,127.0,113.0,128.0,21.0,-104.0,-79.0,127.0,127.0,127.0,109.0,85.0,-103.0
127.0,127.0,127.0,127.0,127.0,127.0,113.0,128.0,21.0,-104.0,-79.0,127.0,127.0,127.0,109.0,85.0,-103.0
127.0,127.0,127.0,128.0,127.0,127.0,113.0,128.0,21.0,-104.0,-79.0,127.0,127.0,127.0,109.0,85.0,-103.0
126.0,127.0,127.0,128.0,127.0,127.0,112.0,128.0,21.0,-104.0,-79.0,127.0,127.0,127.0,109.0,85.0,-103.0
126.0,127.0,127.0,128.0,127.0,127.0,113.0,128.0,21.0,-104.0,-79.0,127.0,127.0,127.0,109.0,85.0,-103.0
127.0,126.0,127.0,126.0,127.0,127.0,112.0,128.0,21.0,-104.0,-79.0,127.0,127.0,127.0,109.0,85.0,-103.0
127.0,126.0,127.0,126.0,127.0,127.0,113.0,128.0,21.0,-104.0,-79.0,127.0,127.0,127.0,109.0,85.0,-103.0
127.0,127.0,127.0,127.0,127.0,127.0,114.0,128.0,21.0,-104.0,-79.0,127.0,127.0,127.0,109.0,85.0,-103.0
127.0,127.0,127.0,127.0,127.0,127.0,113.0,128.0,21.0,-104.0,-79.0,127.0,127.0,127.0,109.0,85.0,-103.0
126.0,127.0,127.0,127.0,127.0,127.0,112.0,128.0,21.0,-104.0,-79.0,127.0,127.0,127.0,109.0,85.0,-103.0
126.0,127.0,127.0,127.0,127.0,127.0,110.0,128.0,21.0,-104.0,-79.0,127.0,127.0,127.0,109.0,85.0,-103.0
126.0,127.0,127.0,128.0,127.0,127.0,111.0,128.0,21.0,-104.0,-79.0,127.0,127.0,127.0,109.0,85.0,-103.0
126.0,127.0,127.0,128.0,127.0,127.0,109.0,128.0,21.0,-104.0,-79.0,127.0,127.0,127.0,109.0,85.0,-103.0
126.0,128.0,127.0,128.0,127.0,127.0,106.0,128.0,21.0,-104.0,-79.0,127.0,127.0,127.0,109.0,85.0,-103.0
127.0,127.0,127.0,127.0,127.0,127.0,112.0,128.0,21.0,-104.0,-79.0,127.0,127.0,127.0,109.0,85.0,-103.0
126.0,127.0,127.0,127.0,127.0,127.0,113.0,128.0,21.0,-104.0,-79.0,127.0,127.0,127.0,109.0,85.0,-103.0
126.0,127.0,127.0,127.0,127.0,127.0,113.0,128.0,21.0,-104.0,-79.0,127.0,127.0,127.0,109.0,85.0,-103.0
127.0,127.0,127.0,127.0,127.0,127.0,112.0,128.0,21.0,-104.0,-79.0,127.0,127.0,127.0,109.0,85.0,-103.0
126.0,127.0,127.0,127.0,127.0,127.0,113.0,128.0,21.0,-104.0,-79.0,127.0,127.0,127.0,109.0,85.0,-103.0
127.0,127.0,127.0,128.0,127.0,127.0,114.0,128.0,21.0,-104.0,-79.0,127.0,127.0,127.0,109.0,85.0,-103.0
127.0,127.0,127.0,128.0,127.0,127.0,113.0,128.0,21.0,-104.0,-79.0,127.0,127.0,127.0,109.0,85.0,-103.0
127.0,128.0,127.0,128.0,127.0,127.0,108.0,128.0,21.0,-104.0,-79.0,127.0,127.0,127.0,109.0,85.0,-103.0
127.0,127.0,127.0,128.0,127.0,127.0,106.0,128.0,21.0,-104.0,-79.0,127.0,127.0,127.0,109.0,85.0,-103.0
127.0,126.0,127.0,127.0,126.0,127.0,112.0,128.0,21.0,-104.0,-79.0,127.0,127.0,127.0,109.0,85.0,-103.0
126.0,126.0,127.0,127.0,126.0,126.0,112.0,128.0,21.0,-104.0,-79.0,127.0,127.0,127.0,109.0,85.0,-103.0
126.0,127.0,127.0,127.0,127.0,127.0,112.0,128.0,21.0,-104.0,-79.0,127.0,127.0,127.0,109.0,85.0,-103.0
126.0,127.0,127.0,127.0,127.0,127.0,112.0,128.0,21.0,-104.0,-79.0,127.0,127.0,127.0,109.0,85.0,-103.0
126.0,127.0,127.0,127.0,127.0,127.0,112.0,128.0,21.0,-104.0,-79.0,127.0,127.0,127.0,109.0,85.0,-103.0
126.0,127.0,127.0,127.0,127.0,127.0,112.0,128.0,21.0,-104.0,-79.0,127.0,127.0,127.0,109.0,85.0,-103.0
126.0,127.0,127.0,128.0,127.0,127.0,113.0,128.0,21.0,-104.0,-79.0,127.0,127.0,127.0,109.0,85.0,-103.0
126.0,127.0,127.0,128.0,127.0,127.0,112.0,128.0,21.0,-104.0,-79.0,127.0,127.0,127.0,109.0,85.0,-103.0
126.0,127.0,127.0,128.0,127.0,127.0,113.0,128.0,21.0,-104.0,-79.0,127.0,127.0,127.0,109.0,85.0,-103.0
126.0,127.0,127.0,128.0,127.0,127.0,114.0,128.0,21.0,-104.0,-79.0,127.0,127.0,127.0,109.0,85.0,-103.0
127.0,127.0,127.0,126.0,127.0,127.0,112.0,128.0,21.0,-104.0,-79.0,127.0,127.0,127.0,109.0,85.0,-103.0
127.0,127.0,127.0,127.0,127.0,127.0,112.0,128.0,21.0,-104.0,-79.0,127.0,127.0,127.0,109.0,85.0,-103.0
127.0,127.0,127.0,127.0,127.0,127.0,113.0,128.0,21.0,-104.0,-79.0,127.0,127.0,127.0,109.0,85.0,-103.0
126.0,127.0,127.0,127.0,127.0,127.0,113.0,128.0,21.0,-104.0,-79.0,127.0,127.0,127.0,109.0,85.0,-103.0
127.0,127.0,127.0,127.0,127.0,127.0,113.0,128.0,21.0,-104.0,-79.0,127.0,127.0,127.0,109.0,85.0,-103.0
127.0,127.0,127.0,127.0,127.0,127.0,113.0,128.0,21.0,-104.0,-79.0,127.0,127.0,127.0,109.0,85.0,-103.0
126.0,127.0,127.0,128.0,127.0,127.0,113.0,128.0,21.0,-104.0,-79.0,127.0,127.0,127.0,109.0,85.0,-103.0
126.0,127.0,127.0,128.0,127.0,127.0,111.0,128.0,21.0,-104.0,-79.0,127.0,127.0,127.0,109.0,85.0,-103.0
126.0,127.0,127.0,128.0,127.0,127.0,109.0,128.0,21.0,-104.0,-79.0,127.0,127.0,127.0,109.0,85.0,-103.0
127.0,127.0,127.0,126.0,127.0,127.0,112.0,128.0,21.0,-104.0,-79.0,127.0,127.0,127.0,109.0,85.0,-103.0
127.0,127.0,127.0,127.0,127.0,127.0,113.0,128.0,21.0,-104.0,-79.0,127.0,127.0,127.0,109.0,85.0,-103.0
127.0,127.0,127.0,127.0,127.0,127.0,113.0,128.0,21.0,-104.0,-79.0,127.0,127.0,127.0,109.0,85.0,-103.0
127.0,127.0,127.0,127.0,127.0,127.0,113.0,128.0,21.0,-104.0,-79.0,127.0,127.0,127.0,109.0,85.0,-103.0
127.0,127.0,127.0,128.0,127.0,127.0,113.0,128.0,21.0,-104.0,-79.0,127.0,127.0,127.0,109.0,85.0,-103.0
127.0,127.0,127.0,128.0,127.0,127.0,113.0,128.0,21.0,-104.0,-79.0,127.0,127.0,127.0,109.0,85.0,-103.0
127.0,127.0,127.0,128.0,127.0,127.0,111.0,128.0,21.0,-104.0,-79.0,127.0,127.0,127.0,109.0,85.0,-103.0
127.0,127.0,127.0,128.0,127.0,127.0,108.0,128.0,21.0,-104.0,-79.0,127.0,127.0,127.0,109.0,85.0,-103.0
127.0,127.0,127.0,128.0,127.0,127.0,106.0,128.0,21.0,-104.0,-79.0,127.0,127.0,127.0,109.0,85.0,-103.0
127.0,127.0,127.0,126.0,126.0,127.0,112.0,128.0,21.0,-104.0,-79.0,127.0,127.0,127.0,109.0,85.0,-103.0
127.0,127.0,127.0,127.0,127.0,127.0,113.0,128.0,21.0,-104.0,-79.0,127.0,127.0,127.0,109.0,85.0,-103.0
127.0,127.0,127.0,127.0,127.0,127.0,112.0,128.0,21.0,-104.0,-79.0,127.0,127.0,127.0,109.0,85.0,-103.0
127.0,127.0,127.0,127.0,127.0,127.0,112.0,128.0,21.0,-104.0,-79.0,127.0,127.0,127.0,109.0,85.0,-103.0
127.0,127.0,127.0,127.0,127.0,127.0,113.0,128.0,21.0,-104.0,-79.0,127.0,127.0,127.0,109.0,85.0,-103.0
127.0,127.0,127.0,127.0,127.0,127.0,113.0,128.0,21.0,-104.0,-79.0,127.0,127.0,127.0,109.0,85.0,-103.0
127.0,127.0,127.0,127.0,127.0,127.0,113.0,128.0,21.0,-104.0,-79.0,127.0,127.0,127.0,109.0,85.0,-103.0
127.0,127.0,127.0,128.0,127.0,127.0,114.0,128.0,21.0,-104.0,-79.0,127.0,127.0,127.0,109.0,85.0,-103.0
127.0,127.0,127.0,128.0,127.0,127.0,113.0,128.0,21.0,-104.0,-79.0,127.0,127.0,127.0,109.0,85.0,-103.0
127.0,127.0,127.0,126.0,127.0,126.0,112.0,128.0,21.0,-104.0,-79.0,127.0,127.0,127.0,109.0,85.0,-103.0
127.0,127.0,127.0,126.0,127.0,127.0,112.0,128.0,21.0,-104.0,-79.0,127.0,127.0,127.0,109.0,85.0,-103.0
127.0,127.0,127.0,126.0,127.0,127.0,112.0,128.0,21.0,-104.0,-79.0,127.0,127.0,127.0,109.0,85.0,-103.0
126.0,127.0,127.0,127.0,127.0,127.0,112.0,128.0,21.0,-104.0,-79.0,127.0,127.0,127.0,109.0,85.0,-103.0
127.0,127.0,127.0,127.0,127.0,127.0,113.0,128.0,21.0,-104.0,-79.0,127.0,127.0,127.0,109.0,85.0,-103.0
126.0,127.0,127.0,127.0,127.0,127.0,113.0,128.0,21.0,-104.0,-79.0,127.0,127.0,127.0,109.0,85.0,-103.0
126.0,127.0,127.0,127.0,127.0,127.0,114.0,128.0,21.0,-104.0,-79.0,127.0,127.0,127.0,109.0,85.0,-103.0
126.0,127.0,127.0,127.0,127.0,127.0,112.0,128.0,21.0,-104.0,-79.0,127.0,127.0,127.0,109.0,85.0,-103.0
126.0,127.0,127.0,128.0,127.0,127.0,108.0,128.0,21.0,-104.0,-79.0,127.0,127.0,127.0,109.0,85.0,-103.0
127.0,127.0,127.0,126.0,127.0,126.0,113.0,128.0,21.0,-104.0,-79.0,127.0,127.0,127.0,109.0,85.0,-103.0
127.0,127.0,127.0,126.0,127.0,127.0,112.0,128.0,21.0,-104.0,-79.0,127.0,127.0,127.0,109.0,85.0,-103.0
126.0,127.0,127.0,126.0,127.0,127.0,112.0,128.0,21.0,-104.0,-79.0,127.0,127.0,127.0,109.0,85.0,-103.0
127.0,127.0,127.0,127.0,127.0,127.0,112.0,128.0,21.0,-104.0,-79.0,127.0,127.0,127.0,109.0,85.0,-103.0
127.0,127.0,127.0,127.0,127.0,127.0,114.0,128.0,22.0,-104.0,-79.0,127.0,127.0,127.0,109.0,85.0,-103.0
127.0,127.0,127.0,127.0,127.0,127.0,113.0,128.0,22.0,-104.0,-79.0,127.0,127.0,127.0,109.0,85.0,-103.0
127.0,127.0,127.0,128.0,127.0,127.0,112.0,128.0,22.0,-104.0,-79.0,127.0,127.0,127.0,109.0,85.0,-103.0
127.0,127.0,127.0,128.0,127.0,127.0,108.0,128.0,22.0,-104.0,-79.0,127.0,127.0,127.0,109.0,85.0,-103.0
127.0,127.0,127.0,128.0,127.0,127.0,106.0,128.0,22.0,-104.0,-79.0,127.0,127.0,127.0,109.0,85.0,-103.0
127.0,127.0,127.0,126.0,127.0,127.0,112.0,128.0,22.0,-104.0,-79.0,127.0,127.0,127.0,109.0,85.0,-103.0
127.0,127.0,127.0,126.0,127.0,127.0,112.0,128.0,22.0,-104.0,-79.0,127.0,127.0,127.0,109.0,85.0,-103.0
127.0,127.0,127.0,127.0,127.0,127.0,112.0,128.0,22.0,-104.0,-79.0,127.0,127.0,127.0,109.0,85.0,-103.0
127.0,127.0,127.0,127.0,127.0,127.0,112.0,128.0,22.0,-104.0,-79.0,127.0,127.0,127.0,109.0,85.0,-103.0
127.0,127.0,127.0,127.0,127.0,127.0,113.0,128.0,22.0,-104.0,-79.0,127.0,127.0,127.0,109.0,85.0,-103.0
126.0,127.0,127.0,127.0,127.0,127.0,110.0,128.0,22.0,-105.0,-78.0,127.0,127.0,127.0,109.0,85.0,-103.0
126.0,127.0,127.0,127.0,127.0,127.0,108.0,128.0,22.0,-105.0,-78.0,127.0,127.0,127.0,109.0,85.0,-103.0
126.0,127.0,127.0,128.0,127.0,127.0,106.0,128.0,22.0,-105.0,-78.0,127.0,127.0,127.0,109.0,85.0,-103.0
126.0,127.0,127.0,128.0,127.0,127.0,110.0,128.0,22.0,-105.0,-78.0,127.0,127.0,127.0,109.0,85.0,-103.0
127.0,126.0,127.0,126.0,126.0,127.0,113.0,128.0,22.0,-105.0,-78.0,127.0,127.0,127.0,109.0,85.0,-103.0
126.0,126.0,127.0,126.0,127.0,127.0,113.0,128.0,22.0,-105.0,-78.0,127.0,127.0,127.0,109.0,85.0,-103.0
126.0,127.0,127.0,126.0,127.0,127.0,113.0,128.0,22.0,-105.0,-78.0,127.0,127.0,127.0,109.0,85.0,-103.0
126.0,127.0,127.0,127.0,127.0,127.0,112.0,128.0,22.0,-105.0,-78.0,127.0,127.0,127.0,109.0,85.0,-103.0
126.0,127.0,127.0,127.0,127.0,127.0,113.0,128.0,22.0,-105.0,-78.0,127.0,127.0,127.0,109.0,85.0,-103.0
126.0,127.0,127.0,127.0,127.0,127.0,113.0,128.0,22.0,-105.0,-78.0,127.0,127.0,127.0,109.0,85.0,-103.0
127.0,127.0,127.0,128.0,127.0,127.0,112.0,128.0,22.0,-105.0,-78.0,127.0,127.0,127.0,110.0,85.0,-103.0
127.0,127.0,127.0,128.0,127.0,127.0,111.0,128.0,22.0,-105.0,-78.0,127.0,127.0,127.0,110.0,85.0,-103.0
127.0,127.0,127.0,128.0,127.0,127.0,108.0,128.0,22.0,-105.0,-78.0,127.0,127.0,127.0,110.0,85.0,-103.0
127.0,127.0,127.0,127.0,127.0,127.0,112.0,128.0,22.0,-105.0,-78.0,127.0,127.0,127.0,110.0,85.0,-103.0
127.0,127.0,127.0,127.0,127.0,127.0,112.0,128.0,22.0,-105.0,-78.0,127.0,127.0,127.0,110.0,85.0,-103.0
127.0,127.0,127.0,127.0,127.0,127.0,112.0,128.0,22.0,-105.0,-78.0,127.0,127.0,127.0,110.0,85.0,-103.0
127.0,127.0,127.0,127.0,127.0,127.0,112.0,128.0,22.0,-105.0,-78.0,127.0,127.0,127.0,110.0,85.0,-103.0
127.0,127.0,127.0,127.0,127.0,127.0,113.0,128.0,22.0,-105.0,-78.0,127.0,127.0,127.0,110.0,85.0,-103.0
127.0,127.0,127.0,127.0,127.0,127.0,113.0,128.0,22.0,-105.0,-78.0,127.0,127.0,127.0,110.0,85.0,-103.0
127.0,127.0,127.0,128.0,127.0,127.0,113.0,128.0,22.0,-105.0,-78.0,127.0,127.0,127.0,110.0,85.0,-103.0
127.0,127.0,127.0,128.0,127.0,127.0,112.0,128.0,22.0,-105.0,-78.0,127.0,127.0,127.0,110.0,85.0,-103.0
127.0,127.0,127.0,128.0,127.0,127.0,110.0,128.0,22.0,-105.0,-78.0,127.0,127.0,127.0,110.0,85.0,-103.0
127.0,127.0,127.0,126.0,127.0,127.0,112.0,128.0,22.0,-105.0,-78.0,127.0,127.0,127.0,110.0,85.0,-103.0
127.0,127.0,127.0,126.0,127.0,127.0,112.0,128.0,22.0,-105.0,-78.0,127.0,127.0,127.0,110.0,85.0,-103.0
127.0,127.0,127.0,127.0,127.0,127.0,112.0,128.0,22.0,-105.0,-78.0,127.0,127.0,127.0,110.0,85.0,-103.0
127.0,127.0,127.0,127.0,127.0,127.0,112.0,128.0,22.0,-105.0,-78.0,127.0,127.0,127.0,110.0,85.0,-103.0
127.0,127.0,127.0,127.0,127.0,127.0,113.0,128.0,22.0,-105.0,-78.0,127.0,127.0,127.0,110.0,85.0,-103.0
127.0,127.0,127.0,127.0,127.0,127.0,113.0,128.0,22.0,-105.0,-78.0,127.0,127.0,127.0,110.0,85.0,-103.0
127.0,127.0,127.0,127.0,127.0,127.0,113.0,128.0,22.0,-105.0,-78.0,127.0,127.0,127.0,110.0,85.0,-103.0
127.0,127.0,127.0,128.0,127.0,127.0,112.0,128.0,22.0,-105.0,-78.0,127.0,127.0,127.0,110.0,85.0,-103.0
127.0,127.0,127.0,126.0,127.0,126.0,112.0,128.0,21.0,-105.0,-78.0,127.0,127.0,127.0,110.0,85.0,-103.0
127.0,127.0,127.0,126.0,127.0,126.0,113.0,128.0,21.0,-105.0,-78.0,127.0,127.0,127.0,110.0,85.0,-103.0
127.0,127.0,127.0,126.0,127.0,126.0,113.0,128.0,21.0,-105.0,-78.0,127.0,127.0,127.0,110.0,85.0,-103.0
127.0,127.0,127.0,127.0,127.0,127.0,112.0,128.0,21.0,-105.0,-78.0,127.0,127.0,127.0,110.0,85.0,-103.0
127.0,127.0,127.0,127.0,127.0,127.0,112.0,128.0,21.0,-105.0,-78.0,127.0,127.0,127.0,110.0,85.0,-103.0
127.0,127.0,127.0,127.0,127.0,127.0,112.0,128.0,21.0,-105.0,-78.0,127.0,127.0,127.0,110.0,85.0,-103.0
127.0,127.0,127.0,127.0,127.0,127.0,112.0,128.0,21.0,-105.0,-78.0,127.0,127.0,127.0,110.0,85.0,-103.0
127.0,127.0,127.0,127.0,127.0,127.0,112.0,128.0,21.0,-105.0,-78.0,127.0,127.0,127.0,110.0,85.0,-103.0
127.0,127.0,127.0,128.0,127.0,127.0,113.0,128.0,21.0,-105.0,-78.0,127.0,127.0,127.0,110.0,85.0,-103.0
127.0,127.0,127.0,128.0,127.0,127.0,113.0,128.0,21.0,-105.0,-78.0,127.0,127.0,127.0,110.0,85.0,-103.0
127.0,127.0,127.0,126.0,127.0,127.0,112.0,128.0,21.0,-105.0,-78.0,127.0,127.0,127.0,110.0,85.0,-103.0
127.0,127.0,127.0,126.0,127.0,127.0,112.0,128.0,21.0,-105.0,-78.0,127.0,127.0,127.0,110.0,85.0,-103.0
127.0,127.0,127.0,127.0,127.0,127.0,112.0,128.0,21.0,-105.0,-78.0,127.0,127.0,127.0,110.0,85.0,-103.0
127.0,127.0,127.0,127.0,127.0,127.0,112.0,128.0,21.0,-105.0,-78.0,127.0,127.0,127.0,110.0,85.0,-103.0
127.0,127.0,127.0,127.0,127.0,127.0,112.0,128.0,21.0,-105.0,-78.0,127.0,127.0,127.0,110.0,85.0,-103.0
127.0,127.0,127.0,127.0,127.0,127.0,113.0,128.0,21.0,-105.0,-78.0,127.0,127.0,127.0,110.0,85.0,-103.0
127.0,127.0,127.0,127.0,127.0,127.0,113.0,128.0,21.0,-105.0,-78.0,127.0,127.0,127.0,110.0,85.0,-103.0
126.0,127.0,127.0,128.0,127.0,127.0,114.0,128.0,21.0,-105.0,-78.0,127.0,127.0,127.0,110.0,85.0,-103.0
127.0,127.0,127.0,128.0,127.0,127.0,114.0,128.0,21.0,-105.0,-78.0,127.0,127.0,127.0,110.0,85.0,-103.0
127.0,127.0,127.0,126.0,127.0,127.0,113.0,128.0,21.0,-105.0,-78.0,127.0,127.0,127.0,110.0,85.0,-103.0
127.0,127.0,127.0,126.0,127.0,127.0,112.0,128.0,21.0,-105.0,-79.0,127.0,127.0,127.0,110.0,85.0,-103.0
127.0,127.0,127.0,127.0,127.0,127.0,112.0,128.0,21.0,-105.0,-79.0,127.0,127.0,127.0,110.0,85.0,-103.0
127.0,127.0,127.0,127.0,127.0,127.0,113.0,128.0,21.0,-105.0,-79.0,127.0,127.0,127.0,110.0,85.0,-103.0
127.0,127.0,127.0,127.0,127.0,127.0,113.0,128.0,21.0,-105.0,-79.0,127.0,127.0,127.0,110.0,85.0,-103.0
127.0,127.0,127.0,127.0,127.0,127.0,113.0,128.0,21.0,-105.0,-79.0,127.0,127.0,127.0,110.0,85.0,-103.0
127.0,127.0,127.0,127.0,127.0,127.0,114.0,128.0,21.0,-105.0,-79.0,127.0,127.0,127.0,110.0,85.0,-103.0
127.0,127.0,127.0,128.0,127.0,127.0,112.0,128.0,21.0,-105.0,-79.0,127.0,127.0,127.0,110.0,85.0,-103.0
127.0,127.0,127.0,128.0,127.0,127.0,109.0,128.0,21.0,-105.0,-79.0,127.0,127.0,127.0,110.0,85.0,-103.0
127.0,127.0,127.0,126.0,127.0,127.0,112.0,128.0,21.0,-105.0,-79.0,127.0,127.0,127.0,110.0,85.0,-103.0
127.0,127.0,127.0,126.0,127.0,127.0,112.0,128.0,21.0,-105.0,-79.0,127.0,127.0,127.0,110.0,85.0,-103.0
127.0,127.0,127.0,126.0,127.0,127.0,112.0,128.0,20.0,-105.0,-79.0,127.0,127.0,127.0,110.0,85.0,-103.0
127.0,127.0,127.0,127.0,127.0,127.0,112.0,128.0,20.0,-105.0,-79.0,127.0,127.0,127.0,110.0,85.0,-103.0
127.0,127.0,127.0,127.0,127.0,127.0,113.0,128.0,20.0,-105.0,-79.0,127.0,127.0,127.0,110.0,85.0,-103.0
127.0,127.0,127.0,127.0,127.0,127.0,113.0,128.0,20.0,-105.0,-79.0,127.0,127.0,127.0,110.0,85.0,-103.0
127.0,127.0,127.0,127.0,127.0,127.0,113.0,128.0,20.0,-105.0,-79.0,127.0,127.0,127.0,110.0,85.0,-103.0
127.0,127.0,127.0,127.0,127.0,127.0,113.0,128.0,20.0,-105.0,-79.0,127.0,127.0,127.0,110.0,85.0,-103.0
127.0,127.0,127.0,128.0,127.0,127.0,113.0,128.0,20.0,-105.0,-79.0,127.0,127.0,127.0,110.0,85.0,-103.0
127.0,127.0,127.0,126.0,127.0,126.0,113.0,128.0,20.0,-105.0,-79.0,127.0,127.0,127.0,110.0,85.0,-103.0
127.0,127.0,127.0,126.0,127.0,127.0,112.0,128.0,20.0,-105.0,-79.0,127.0,127.0,127.0,110.0,85.0,-103.0
127.0,127.0,127.0,126.0,127.0,127.0,112.0,128.0,20.0,-105.0,-79.0,127.0,127.0,127.0,110.0,85.0,-103.0
126.0,127.0,127.0,126.0,127.0,127.0,112.0,128.0,20.0,-104.0,-79.0,127.0,127.0,127.0,110.0,85.0,-103.0
126.0,127.0,127.0,127.0,127.0,127.0,112.0,128.0,20.0,-104.0,-79.0,127.0,127.0,127.0,110.0,85.0,-103.0
126.0,127.0,127.0,127.0,127.0,127.0,112.0,128.0,20.0,-104.0,-79.0,127.0,127.0,127.0,110.0,85.0,-103.0
126.0,127.0,127.0,127.0,127.0,127.0,113.0,128.0,20.0,-104.0,-79.0,127.0,127.0,127.0,110.0,85.0,-103.0
126.0,127.0,127.0,127.0,127.0,127.0,113.0,128.0,20.0,-104.0,-79.0,127.0,127.0,127.0,110.0,85.0,-103.0
126.0,127.0,127.0,127.0,127.0,127.0,113.0,128.0,20.0,-104.0,-79.0,127.0,127.0,127.0,110.0,85.0,-103.0
126.0,126.0,127.0,126.0,126.0,126.0,112.0,128.0,20.0,-104.0,-79.0,127.0,127.0,127.0,110.0,85.0,-103.0
127.0,126.0,127.0,126.0,126.0,126.0,113.0,128.0,20.0,-104.0,-79.0,127.0,127.0,127.0,110.0,85.0,-103.0
126.0,127.0,127.0,126.0,127.0,126.0,112.0,128.0,20.0,-104.0,-79.0,127.0,127.0,127.0,110.0,85.0,-103.0
127.0,127.0,127.0,126.0,127.0,126.0,112.0,128.0,20.0,-104.0,-79.0,127.0,127.0,127.0,110.0,85.0,-103.0
126.0,127.0,127.0,127.0,127.0,127.0,112.0,128.0,20.0,-104.0,-79.0,127.0,127.0,127.0,110.0,85.0,-103.0
126.0,127.0,127.0,127.0,127.0,127.0,112.0,128.0,20.0,-104.0,-79.0,127.0,127.0,127.0,110.0,85.0,-103.0
126.0,127.0,127.0,127.0,127.0,127.0,112.0,128.0,20.0,-104.0,-79.0,127.0,127.0,127.0,110.0,85.0,-103.0
126.0,127.0,127.0,127.0,127.0,127.0,113.0,128.0,20.0,-104.0,-79.0,127.0,127.0,127.0,110.0,85.0,-103.0
126.0,127.0,127.0,127.0,127.0,127.0,113.0,128.0,20.0,-104.0,-79.0,127.0,127.0,127.0,110.0,85.0,-103.0
126.0,126.0,127.0,126.0,126.0,126.0,112.0,127.0,20.0,-104.0,-79.0,127.0,127.0,127.0,110.0,85.0,-103.0
126.0,126.0,127.0,126.0,126.0,126.0,112.0,127.0,20.0,-104.0,-79.0,127.0,127.0,127.0,110.0,85.0,-103.0
126.0,126.0,127.0,126.0,126.0,126.0,112.0,127.0,20.0,-104.0,-79.0,127.0,127.0,127.0,110.0,85.0,-103.0
126.0,127.0,127.0,126.0,127.0,126.0,112.0,127.0,20.0,-104.0,-79.0,127.0,127.0,127.0,110.0,85.0,-103.0
126.0,127.0,127.0,127.0,127.0,127.0,112.0,128.0,20.0,-104.0,-79.0,127.0,127.0,127.0,110.0,85.0,-103.0
127.0,127.0,127.0,127.0,127.0,127.0,113.0,128.0,19.0,-103.0,-79.0,127.0,127.0,127.0,110.0,85.0,-103.0
127.0,127.0,127.0,127.0,127.0,127.0,113.0,128.0,19.0,-103.0,-79.0,127.0,127.0,127.0,110.0,85.0,-103.0
127.0,127.0,127.0,128.0,127.0,127.0,113.0,128.0,19.0,-103.0,-79.0,127.0,127.0,127.0,110.0,85.0,-103.0
126.0,127.0,127.0,128.0,127.0,127.0,113.0,128.0,19.0,-103.0,-79.0,127.0,127.0,127.0,110.0,85.0,-103.0
127.0,126.0,127.0,126.0,127.0,126.0,113.0,128.0,19.0,-103.0,-79.0,127.0,127.0,127.0,110.0,85.0,-103.0
127.0,127.0,127.0,126.0,127.0,126.0,113.0,128.0,19.0,-103.0,-79.0,127.0,127.0,127.0,110.0,85.0,-103.0
127.0,127.0,127.0,127.0,127.0,127.0,112.0,128.0,19.0,-103.0,-79.0,127.0,127.0,127.0,110.0,85.0,-103.0
127.0,127.0,127.0,127.0,127.0,126.0,112.0,128.0,19.0,-103.0,-79.0,127.0,127.0,127.0,110.0,85.0,-103.0
127.0,127.0,127.0,127.0,127.0,127.0,112.0,128.0,19.0,-103.0,-79.0,127.0,127.0,127.0,110.0,85.0,-103.0
127.0,127.0,127.0,127.0,127.0,127.0,112.0,128.0,19.0,-103.0,-79.0,127.0,127.0,127.0,110.0,85.0,-103.0
126.0,127.0,127.0,127.0,127.0,127.0,111.0,127.0,19.0,-103.0,-79.0,127.0,127.0,127.0,110.0,85.0,-103.0
126.0,127.0,127.0,128.0,127.0,127.0,108.0,127.0,19.0,-103.0,-79.0,127.0,127.0,127.0,110.0,85.0,-103.0
126.0,127.0,127.0,128.0,127.0,127.0,108.0,127.0,19.0,-103.0,-79.0,127.0,127.0,127.0,110.0,85.0,-103.0
126.0,127.0,127.0,126.0,127.0,127.0,112.0,127.0,19.0,-103.0,-79.0,127.0,127.0,127.0,110.0,85.0,-103.0
126.0,127.0,127.0,126.0,127.0,127.0,112.0,127.0,19.0,-103.0,-79.0,127.0,127.0,127.0,110.0,85.0,-103.0
126.0,127.0,127.0,126.0,127.0,127.0,112.0,127.0,19.0,-103.0,-79.0,127.0,127.0,127.0,110.0,85.0,-103.0
126.0,127.0,127.0,127.0,127.0,127.0,112.0,127.0,19.0,-103.0,-79.0,127.0,127.0,127.0,110.0,85.0,-103.0
126.0,127.0,127.0,127.0,127.0,127.0,112.0,127.0,19.0,-103.0,-79.0,127.0,127.0,127.0,110.0,85.0,-103.0
126.0,127.0,127.0,127.0,127.0,127.0,113.0,127.0,19.0,-103.0,-79.0,127.0,127.0,127.0,110.0,85.0,-103.0
126.0,127.0,127.0,127.0,127.0,127.0,113.0,127.0,19.0,-103.0,-79.0,127.0,127.0,127.0,110.0,85.0,-103.0
126.0,127.0,127.0,128.0,127.0,127.0,112.0,127.0,19.0,-103.0,-79.0,127.0,127.0,127.0,110.0,85.0,-103.0
126.0,127.0,127.0,128.0,127.0,127.0,110.0,127.0,19.0,-103.0,-79.0,127.0,127.0,127.0,110.0,85.0,-103.0
126.0,126.0,127.0,126.0,126.0,126.0,112.0,127.0,19.0,-103.0,-79.0,127.0,127.0,127.0,110.0,85.0,-103.0
126.0,126.0,127.0,126.0,127.0,127.0,112.0,127.0,19.0,-103.0,-79.0,127.0,127.0,127.0,110.0,85.0,-103.0
126.0,127.0,127.0,126.0,127.0,127.0,112.0,127.0,19.0,-103.0,-79.0,127.0,127.0,127.0,110.0,85.0,-103.0
126.0,127.0,127.0,127.0,127.0,127.0,112.0,127.0,19.0,-103.0,-79.0,127.0,127.0,127.0,110.0,85.0,-103.0
126.0,127.0,127.0,127.0,127.0,127.0,112.0,127.0,19.0,-103.0,-79.0,127.0,127.0,127.0,110.0,85.0,-103.0
127.0,127.0,127.0,127.0,127.0,127.0,113.0,127.0,19.0,-103.0,-79.0,127.0,127.0,127.0,110.0,85.0,-103.0
126.0,127.0,127.0,127.0,127.0,127.0,113.0,127.0,19.0,-103.0,-79.0,127.0,127.0,127.0,110.0,85.0,-103.0
126.0,127.0,127.0,127.0,127.0,127.0,114.0,127.0,19.0,-103.0,-79.0,127.0,127.0,127.0,110.0,85.0,-103.0
127.0,127.0,127.0,128.0,127.0,127.0,108.0,127.0,19.0,-103.0,-79.0,127.0,127.0,127.0,110.0,85.0,-103.0
127.0,127.0,127.0,127.0,127.0,127.0,112.0,127.0,19.0,-103.0,-79.0,127.0,127.0,127.0,110.0,85.0,-103.0
127.0,127.0,127.0,127.0,127.0,127.0,112.0,127.0,19.0,-103.0,-79.0,127.0,127.0,127.0,110.0,85.0,-103.0
127.0,127.0,127.0,127.0,127.0,127.0,112.0,127.0,19.0,-103.0,-79.0,127.0,127.0,127.0,110.0,85.0,-103.0
127.0,127.0,127.0,127.0,127.0,127.0,112.0,127.0,19.0,-103.0,-79.0,127.0,127.0,127.0,110.0,85.0,-103.0
127.0,127.0,127.0,127.0,127.0,127.0,113.0,127.0,19.0,-103.0,-79.0,127.0,127.0,127.0,110.0,85.0,-103.0
127.0,127.0,127.0,127.0,127.0,127.0,113.0,127.0,19.0,-103.0,-79.0,127.0,127.0,127.0,110.0,85.0,-103.0
127.0,127.0,127.0,128.0,127.0,127.0,113.0,127.0,19.0,-103.0,-79.0,127.0,127.0,127.0,110.0,85.0,-103.0
127.0,127.0,127.0,128.0,127.0,127.0,113.0,127.0,19.0,-103.0,-79.0,127.0,127.0,127.0,110.0,85.0,-103.0
127.0,127.0,127.0,128.0,127.0,127.0,112.0,127.0,19.0,-103.0,-79.0,127.0,127.0,127.0,110.0,85.0,-103.0
127.0,126.0,127.0,126.0,126.0,126.0,112.0,127.0,19.0,-103.0,-79.0,127.0,127.0,127.0,110.0,85.0,-103.0
127.0,126.0,127.0,126.0,126.0,127.0,112.0,127.0,19.0,-103.0,-79.0,127.0,127.0,127.0,110.0,85.0,-103.0
127.0,127.0,127.0,126.0,127.0,127.0,112.0,127.0,19.0,-103.0,-79.0,127.0,127.0,127.0,110.0,85.0,-103.0
127.0,127.0,127.0,127.0,127.0,127.0,112.0,127.0,19.0,-103.0,-79.0,127.0,127.0,127.0,110.0,85.0,-103.0
127.0,127.0,127.0,127.0,127.0,127.0,112.0,127.0,19.0,-103.0,-79.0,127.0,127.0,127.0,110.0,85.0,-103.0
127.0,127.0,127.0,127.0,127.0,127.0,112.0,127.0,19.0,-103.0,-79.0,127.0,127.0,127.0,110.0,85.0,-103.0
127.0,127.0,127.0,127.0,127.0,127.0,113.0,127.0,19.0,-103.0,-79.0,127.0,127.0,127.0,110.0,85.0,-103.0
127.0,127.0,127.0,127.0,127.0,127.0,112.0,127.0,19.0,-103.0,-79.0,127.0,127.0,127.0,110.0,85.0,-103.0
127.0,127.0,127.0,128.0,127.0,127.0,107.0,127.0,19.0,-103.0,-79.0,127.0,127.0,127.0,110.0,85.0,-103.0
127.0,127.0,127.0,128.0,127.0,127.0,106.0,127.0,19.0,-103.0,-79.0,127.0,127.0,127.0,110.0,85.0,-103.0
127.0,127.0,127.0,126.0,127.0,127.0,113.0,127.0,19.0,-103.0,-79.0,127.0,127.0,127.0,110.0,85.0,-103.0
127.0,127.0,127.0,126.0,127.0,127.0,113.0,127.0,19.0,-103.0,-79.0,127.0,127.0,127.0,110.0,85.0,-103.0
127.0,127.0,127.0,126.0,127.0,127.0,112.0,127.0,19.0,-103.0,-79.0,127.0,127.0,127.0,110.0,85.0,-103.0
127.0,127.0,127.0,126.0,127.0,127.0,112.0,127.0,19.0,-103.0,-79.0,127.0,127.0,127.0,110.0,85.0,-103.0
127.0,127.0,127.0,127.0,127.0,127.0,108.0,127.0,19.0,-103.0,-79.0,127.0,127.0,127.0,110.0,85.0,-103.0
127.0,127.0,127.0,127.0,127.0,127.0,107.0,127.0,19.0,-103.0,-79.0,127.0,127.0,127.0,110.0,85.0,-103.0
127.0,127.0,127.0,127.0,127.0,127.0,106.0,127.0,19.0,-103.0,-79.0,127.0,127.0,127.0,110.0,85.0,-103.0
127.0,127.0,127.0,127.0,127.0,127.0,106.0,127.0,19.0,-103.0,-79.0,127.0,127.0,127.0,110.0,85.0,-103.0
127.0,127.0,127.0,127.0,127.0,127.0,106.0,127.0,19.0,-103.0,-79.0,127.0,127.0,127.0,110.0,85.0,-103.0
127.0,127.0,127.0,126.0,127.0,127.0,113.0,127.0,19.0,-103.0,-79.0,127.0,127.0,127.0,110.0,85.0,-103.0
127.0,127.0,127.0,126.0,127.0,127.0,112.0,127.0,20.0,-103.0,-79.0,127.0,127.0,127.0,110.0,85.0,-103.0
126.0,127.0,127.0,126.0,127.0,127.0,113.0,127.0,20.0,-103.0,-79.0,127.0,127.0,127.0,110.0,85.0,-103.0
127.0,127.0,127.0,126.0,127.0,127.0,112.0,127.0,20.0,-103.0,-79.0,127.0,127.0,127.0,110.0,85.0,-103.0
127.0,127.0,127.0,127.0,127.0,127.0,113.0,127.0,20.0,-103.0,-79.0,127.0,127.0,127.0,110.0,85.0,-103.0
127.0,127.0,127.0,127.0,127.0,127.0,113.0,127.0,20.0,-103.0,-79.0,127.0,127.0,127.0,110.0,85.0,-103.0
126.0,127.0,127.0,127.0,127.0,127.0,112.0,127.0,20.0,-103.0,-79.0,127.0,127.0,127.0,110.0,85.0,-103.0
127.0,127.0,127.0,127.0,127.0,127.0,109.0,127.0,20.0,-103.0,-79.0,127.0,127.0,127.0,110.0,85.0,-103.0
127.0,127.0,127.0,127.0,127.0,127.0,107.0,127.0,20.0,-103.0,-79.0,127.0,127.0,127.0,110.0,85.0,-103.0
127.0,126.0,127.0,126.0,127.0,127.0,112.0,127.0,20.0,-103.0,-79.0,127.0,127.0,127.0,110.0,85.0,-103.0
127.0,127.0,127.0,126.0,127.0,127.0,112.0,127.0,20.0,-103.0,-79.0,127.0,127.0,127.0,110.0,85.0,-103.0
126.0,126.0,127.0,126.0,127.0,127.0,113.0,127.0,21.0,-103.0,-78.0,127.0,127.0,127.0,110.0,85.0,-103.0
126.0,127.0,127.0,126.0,127.0,127.0,112.0,127.0,21.0,-103.0,-78.0,127.0,127.0,127.0,110.0,85.0,-103.0
126.0,127.0,127.0,127.0,127.0,127.0,113.0,128.0,21.0,-103.0,-78.0,127.0,127.0,127.0,110.0,85.0,-103.0
126.0,127.0,127.0,127.0,127.0,127.0,113.0,128.0,21.0,-103.0,-78.0,127.0,127.0,127.0,110.0,85.0,-103.0
126.0,127.0,127.0,127.0,127.0,127.0,113.0,128.0,21.0,-103.0,-78.0,127.0,127.0,127.0,110.0,85.0,-103.0
126.0,127.0,127.0,127.0,127.0,127.0,113.0,128.0,21.0,-103.0,-78.0,127.0,127.0,127.0,110.0,85.0,-103.0
126.0,127.0,127.0,127.0,127.0,127.0,113.0,128.0,21.0,-103.0,-78.0,127.0,127.0,127.0,110.0,85.0,-103.0
127.0,126.0,127.0,126.0,126.0,127.0,112.0,127.0,21.0,-103.0,-78.0,127.0,127.0,127.0,110.0,85.0,-103.0
126.0,126.0,127.0,126.0,126.0,127.0,112.0,127.0,21.0,-103.0,-78.0,127.0,127.0,127.0,110.0,85.0,-103.0
126.0,126.0,127.0,126.0,126.0,127.0,113.0,127.0,21.0,-103.0,-78.0,127.0,127.0,127.0,110.0,85.0,-103.0
127.0,126.0,127.0,126.0,126.0,127.0,112.0,128.0,22.0,-103.0,-78.0,127.0,127.0,127.0,110.0,85.0,-103.0
127.0,126.0,127.0,126.0,126.0,127.0,113.0,128.0,22.0,-103.0,-78.0,127.0,127.0,127.0,110.0,85.0,-103.0
127.0,127.0,127.0,126.0,126.0,127.0,113.0,128.0,22.0,-103.0,-78.0,127.0,127.0,127.0,110.0,85.0,-103.0
127.0,127.0,127.0,126.0,126.0,127.0,113.0,128.0,22.0,-103.0,-78.0,127.0,127.0,127.0,110.0,85.0,-103.0
127.0,127.0,127.0,127.0,127.0,127.0,114.0,128.0,22.0,-103.0,-78.0,127.0,127.0,127.0,110.0,85.0,-103.0
127.0,127.0,127.0,127.0,127.0,127.0,112.0,128.0,22.0,-103.0,-78.0,127.0,127.0,127.0,110.0,85.0,-103.0
127.0,126.0,127.0,125.0,126.0,126.0,113.0,128.0,22.0,-103.0,-78.0,127.0,127.0,127.0,110.0,85.0,-103.0
127.0,126.0,127.0,125.0,126.0,126.0,112.0,128.0,22.0,-103.0,-78.0,127.0,127.0,127.0,110.0,85.0,-103.0
127.0,126.0,127.0,125.0,126.0,127.0,112.0,128.0,22.0,-103.0,-78.0,127.0,127.0,127.0,110.0,85.0,-103.0
127.0,126.0,127.0,126.0,126.0,127.0,112.0,128.0,22.0,-103.0,-78.0,127.0,127.0,127.0,110.0,85.0,-103.0
127.0,127.0,127.0,126.0,127.0,127.0,106.0,128.0,23.0,-104.0,-77.0,127.0,127.0,127.0,110.0,85.0,-103.0
127.0,127.0,127.0,126.0,127.0,127.0,106.0,129.0,23.0,-104.0,-77.0,127.0,127.0,127.0,110.0,85.0,-103.0
127.0,127.0,127.0,126.0,127.0,127.0,106.0,128.0,23.0,-104.0,-77.0,127.0,127.0,127.0,110.0,85.0,-103.0
127.0,127.0,127.0,127.0,127.0,127.0,106.0,129.0,23.0,-104.0,-77.0,127.0,127.0,127.0,110.0,85.0,-103.0
127.0,127.0,127.0,127.0,127.0,127.0,107.0,129.0,23.0,-104.0,-77.0,127.0,127.0,127.0,110.0,85.0,-103.0
127.0,126.0,127.0,125.0,126.0,127.0,113.0,128.0,23.0,-104.0,-77.0,127.0,127.0,127.0,110.0,85.0,-103.0
127.0,126.0,127.0,125.0,126.0,127.0,113.0,128.0,23.0,-104.0,-77.0,127.0,127.0,127.0,110.0,85.0,-103.0
127.0,126.0,127.0,125.0,126.0,127.0,113.0,128.0,23.0,-104.0,-77.0,127.0,127.0,127.0,110.0,85.0,-103.0
127.0,126.0,127.0,126.0,126.0,127.0,111.0,128.0,23.0,-104.0,-77.0,127.0,127.0,127.0,110.0,85.0,-103.0
127.0,127.0,127.0,126.0,127.0,127.0,108.0,128.0,23.0,-104.0,-77.0,127.0,127.0,127.0,110.0,85.0,-103.0
127.0,127.0,127.0,126.0,127.0,127.0,106.0,128.0,25.0,-105.0,-76.0,127.0,127.0,127.0,110.0,85.0,-103.0
127.0,127.0,127.0,126.0,127.0,127.0,107.0,129.0,25.0,-105.0,-76.0,127.0,127.0,127.0,110.0,85.0,-103.0
127.0,127.0,127.0,126.0,127.0,127.0,107.0,128.0,25.0,-105.0,-76.0,127.0,127.0,127.0,110.0,85.0,-103.0
127.0,127.0,127.0,126.0,127.0,127.0,106.0,129.0,25.0,-105.0,-76.0,127.0,127.0,127.0,110.0,85.0,-103.0
127.0,126.0,127.0,125.0,126.0,127.0,112.0,128.0,25.0,-105.0,-76.0,127.0,127.0,127.0,110.0,85.0,-103.0
127.0,126.0,127.0,125.0,126.0,127.0,113.0,128.0,25.0,-105.0,-76.0,127.0,127.0,127.0,110.0,85.0,-103.0
127.0,126.0,127.0,125.0,127.0,127.0,113.0,128.0,25.0,-105.0,-76.0,127.0,127.0,127.0,110.0,85.0,-103.0
127.0,126.0,127.0,125.0,127.0,127.0,113.0,128.0,25.0,-105.0,-76.0,127.0,127.0,127.0,110.0,85.0,-103.0
127.0,127.0,127.0,125.0,127.0,127.0,113.0,128.0,25.0,-105.0,-76.0,127.0,127.0,127.0,110.0,85.0,-103.0
127.0,127.0,127.0,125.0,127.0,127.0,111.0,129.0,25.0,-105.0,-76.0,127.0,127.0,127.0,110.0,85.0,-103.0
127.0,127.0,127.0,126.0,127.0,127.0,106.0,129.0,27.0,-106.0,-76.0,127.0,127.0,127.0,110.0,85.0,-103.0
127.0,127.0,127.0,126.0,127.0,127.0,106.0,129.0,27.0,-106.0,-76.0,127.0,127.0,127.0,110.0,85.0,-103.0
127.0,127.0,127.0,126.0,127.0,127.0,107.0,129.0,27.0,-106.0,-76.0,127.0,127.0,127.0,110.0,85.0,-103.0
127.0,126.0,127.0,124.0,126.0,127.0,113.0,128.0,27.0,-106.0,-76.0,127.0,127.0,127.0,110.0,85.0,-103.0
127.0,126.0,127.0,125.0,126.0,127.0,113.0,128.0,27.0,-106.0,-76.0,127.0,127.0,127.0,110.0,85.0,-103.0
127.0,126.0,127.0,125.0,126.0,127.0,113.0,128.0,27.0,-106.0,-76.0,127.0,127.0,127.0,110.0,85.0,-103.0
127.0,126.0,127.0,125.0,127.0,127.0,113.0,129.0,27.0,-106.0,-76.0,127.0,127.0,127.0,110.0,85.0,-103.0
127.0,126.0,127.0,125.0,127.0,127.0,109.0,129.0,27.0,-106.0,-76.0,127.0,127.0,127.0,110.0,85.0,-103.0
127.0,127.0,127.0,125.0,127.0,127.0,107.0,129.0,27.0,-106.0,-76.0,127.0,127.0,127.0,110.0,85.0,-103.0
127.0,127.0,127.0,125.0,127.0,127.0,106.0,129.0,27.0,-106.0,-76.0,127.0,127.0,127.0,110.0,85.0,-103.0
127.0,127.0,127.0,126.0,127.0,127.0,106.0,128.0,28.0,-107.0,-75.0,127.0,127.0,127.0,111.0,85.0,-103.0
127.0,126.0,127.0,125.0,127.0,127.0,112.0,128.0,28.0,-107.0,-75.0,127.0,127.0,127.0,111.0,85.0,-103.0
127.0,126.0,127.0,125.0,127.0,127.0,112.0,128.0,28.0,-107.0,-75.0,127.0,127.0,127.0,111.0,85.0,-103.0
127.0,126.0,127.0,125.0,127.0,127.0,113.0,128.0,28.0,-107.0,-75.0,127.0,127.0,127.0,111.0,85.0,-103.0
127.0,126.0,127.0,125.0,127.0,127.0,113.0,128.0,28.0,-107.0,-75.0,127.0,127.0,127.0,111.0,85.0,-103.0
127.0,126.0,127.0,125.0,127.0,127.0,113.0,128.0,28.0,-107.0,-75.0,127.0,127.0,127.0,111.0,85.0,-103.0
127.0,126.0,127.0,126.0,127.0,127.0,113.0,128.0,28.0,-107.0,-75.0,127.0,127.0,127.0,111.0,85.0,-103.0
127.0,127.0,127.0,126.0,127.0,127.0,109.0,128.0,28.0,-107.0,-75.0,127.0,127.0,127.0,111.0,85.0,-103.0
127.0,127.0,127.0,126.0,127.0,127.0,107.0,128.0,28.0,-107.0,-75.0,127.0,127.0,127.0,111.0,85.0,-103.0
127.0,127.0,127.0,126.0,127.0,127.0,106.0,128.0,28.0,-107.0,-75.0,127.0,127.0,127.0,111.0,85.0,-103.0
127.0,127.0,127.0,127.0,127.0,127.0,111.0,128.0,27.0,-108.0,-74.0,127.0,127.0,127.0,111.0,85.0,-103.0
127.0,126.0,127.0,125.0,127.0,127.0,112.0,128.0,27.0,-108.0,-74.0,127.0,127.0,127.0,111.0,85.0,-103.0
127.0,126.0,127.0,125.0,127.0,127.0,112.0,128.0,27.0,-108.0,-74.0,127.0,127.0,127.0,111.0,85.0,-103.0
127.0,126.0,127.0,126.0,127.0,127.0,113.0,128.0,27.0,-108.0,-74.0,127.0,127.0,127.0,111.0,85.0,-103.0
127.0,127.0,127.0,126.0,127.0,127.0,113.0,128.0,27.0,-108.0,-74.0,127.0,127.0,127.0,111.0,85.0,-103.0
127.0,127.0,127.0,126.0,127.0,127.0,113.0,128.0,27.0,-108.0,-74.0,127.0,127.0,127.0,111.0,85.0,-103.0
127.0,127.0,127.0,126.0,127.0,127.0,113.0,128.0,27.0,-108.0,-74.0,127.0,127.0,127.0,111.0,85.0,-103.0
127.0,127.0,127.0,126.0,127.0,127.0,113.0,128.0,27.0,-108.0,-74.0,127.0,127.0,127.0,111.0,85.0,-103.0
127.0,127.0,127.0,126.0,127.0,127.0,114.0,128.0,27.0,-108.0,-74.0,127.0,127.0,127.0,111.0,85.0,-103.0
127.0,127.0,127.0,127.0,127.0,127.0,113.0,128.0,27.0,-108.0,-74.0,127.0,127.0,127.0,111.0,85.0,-103.0
127.0,126.0,127.0,125.0,126.0,126.0,112.0,128.0,26.0,-108.0,-74.0,127.0,127.0,127.0,111.0,85.0,-103.0
127.0,126.0,127.0,125.0,127.0,127.0,112.0,128.0,26.0,-108.0,-74.0,127.0,127.0,127.0,111.0,85.0,-103.0
127.0,127.0,127.0,126.0,127.0,127.0,112.0,128.0,26.0,-108.0,-74.0,127.0,127.0,127.0,111.0,85.0,-103.0
127.0,127.0,127.0,126.0,127.0,127.0,112.0,128.0,26.0,-108.0,-74.0,127.0,127.0,127.0,111.0,85.0,-103.0
127.0,127.0,127.0,126.0,127.0,127.0,112.0,128.0,26.0,-108.0,-74.0,127.0,127.0,127.0,111.0,85.0,-103.0
