emg1,emg2,emg3,emg4,emg5,emg6,emg7,emg8,acc_x,acc_y,acc_z,gyro_x,gyro_y,gyro_z,angle_pitch,angle_roll,angle_yaw
126.0,127.0,127.0,127.0,127.0,127.0,111.0,128.0,15.0,126.0,-80.0,127.0,127.0,127.0,127.0,83.0,-113.0
126.0,127.0,127.0,127.0,127.0,127.0,112.0,128.0,15.0,126.0,-80.0,127.0,127.0,127.0,127.0,83.0,-113.0
126.0,127.0,127.0,127.0,127.0,127.0,112.0,128.0,15.0,126.0,-80.0,127.0,127.0,127.0,127.0,83.0,-113.0
126.0,127.0,127.0,127.0,127.0,127.0,110.0,128.0,15.0,126.0,-80.0,127.0,127.0,127.0,127.0,83.0,-113.0
126.0,127.0,127.0,127.0,127.0,127.0,106.0,128.0,15.0,126.0,-80.0,127.0,127.0,127.0,127.0,83.0,-113.0
126.0,127.0,127.0,127.0,127.0,127.0,107.0,128.0,15.0,126.0,-80.0,127.0,127.0,127.0,127.0,83.0,-113.0
126.0,127.0,127.0,127.0,127.0,127.0,107.0,128.0,15.0,126.0,-80.0,127.0,127.0,127.0,127.0,83.0,-113.0
126.0,127.0,127.0,127.0,127.0,127.0,106.0,128.0,15.0,126.0,-80.0,127.0,127.0,127.0,127.0,83.0,-113.0
126.0,127.0,127.0,127.0,127.0,127.0,106.0,128.0,15.0,126.0,-80.0,127.0,127.0,127.0,127.0,83.0,-113.0
126.0,127.0,127.0,127.0,127.0,127.0,106.0,128.0,15.0,126.0,-80.0,127.0,127.0,127.0,127.0,83.0,-113.0
126.0,127.0,127.0,127.0,127.0,127.0,107.0,128.0,14.0,126.0,-79.0,127.0,127.0,127.0,127.0,83.0,-113.0
126.0,127.0,127.0,127.0,127.0,127.0,106.0,128.0,14.0,126.0,-79.0,127.0,127.0,127.0,127.0,83.0,-113.0
127.0,127.0,127.0,127.0,127.0,127.0,106.0,128.0,14.0,126.0,-79.0,127.0,127.0,127.0,127.0,83.0,-113.0
127.0,127.0,127.0,127.0,127.0,127.0,108.0,128.0,14.0,126.0,-79.0,127.0,127.0,127.0,127.0,83.0,-113.0
127.0,127.0,127.0,127.0,127.0,127.0,110.0,128.0,14.0,126.0,-79.0,127.0,127.0,127.0,127.0,83.0,-113.0
126.0,127.0,127.0,127.0,127.0,127.0,112.0,128.0,14.0,126.0,-79.0,127.0,127.0,127.0,127.0,83.0,-113.0
126.0,127.0,127.0,127.0,127.0,127.0,107.0,128.0,14.0,126.0,-79.0,127.0,127.0,127.0,127.0,83.0,-113.0
127.0,127.0,127.0,127.0,127.0,127.0,106.0,128.0,14.0,126.0,-79.0,127.0,127.0,127.0,127.0,83.0,-113.0
127.0,127.0,127.0,127.0,127.0,127.0,106.0,128.0,14.0,126.0,-79.0,127.0,127.0,127.0,127.0,83.0,-113.0
126.0,127.0,127.0,127.0,127.0,127.0,110.0,128.0,14.0,126.0,-79.0,127.0,127.0,127.0,127.0,83.0,-113.0
127.0,127.0,127.0,127.0,127.0,127.0,110.0,128.0,14.0,126.0,-79.0,127.0,127.0,127.0,127.0,83.0,-113.0
127.0,127.0,127.0,127.0,127.0,127.0,113.0,128.0,14.0,126.0,-79.0,127.0,127.0,127.0,127.0,83.0,-113.0
127.0,127.0,127.0,127.0,127.0,127.0,113.0,128.0,14.0,126.0,-79.0,127.0,127.0,127.0,127.0,83.0,-113.0
127.0,127.0,127.0,127.0,127.0,127.0,113.0,128.0,14.0,126.0,-79.0,127.0,127.0,127.0,127.0,83.0,-113.0
126.0,127.0,127.0,127.0,126.0,127.0,112.0,128.0,14.0,126.0,-79.0,127.0,127.0,127.0,127.0,83.0,-113.0
126.0,127.0,127.0,127.0,127.0,127.0,108.0,128.0,14.0,126.0,-79.0,127.0,127.0,127.0,127.0,83.0,-113.0
126.0,127.0,127.0,127.0,127.0,127.0,106.0,128.0,14.0,126.0,-79.0,127.0,127.0,127.0,127.0,83.0,-113.0
126.0,127.0,127.0,127.0,127.0,127.0,105.0,128.0,14.0,126.0,-79.0,127.0,127.0,127.0,127.0,83.0,-113.0
126.0,127.0,127.0,127.0,127.0,127.0,112.0,128.0,14.0,126.0,-79.0,127.0,127.0,127.0,127.0,83.0,-113.0
126.0,127.0,127.0,127.0,127.0,127.0,111.0,128.0,14.0,126.0,-79.0,127.0,127.0,127.0,127.0,83.0,-113.0
126.0,127.0,127.0,127.0,127.0,127.0,113.0,128.0,14.0,126.0,-79.0,127.0,127.0,127.0,127.0,83.0,-113.0
126.0,127.0,127.0,127.0,127.0,127.0,113.0,128.0,14.0,126.0,-79.0,127.0,127.0,127.0,127.0,83.0,-113.0
126.0,127.0,127.0,127.0,127.0,127.0,113.0,128.0,14.0,126.0,-79.0,127.0,127.0,127.0,127.0,83.0,-113.0
126.0,127.0,127.0,127.0,127.0,127.0,113.0,128.0,14.0,126.0,-79.0,127.0,127.0,127.0,127.0,83.0,-113.0
126.0,127.0,127.0,127.0,127.0,127.0,112.0,128.0,14.0,126.0,-79.0,127.0,127.0,127.0,127.0,83.0,-113.0
126.0,127.0,127.0,127.0,127.0,127.0,112.0,128.0,14.0,126.0,-79.0,127.0,127.0,127.0,127.0,83.0,-113.0
126.0,127.0,127.0,127.0,127.0,127.0,113.0,128.0,14.0,126.0,-79.0,127.0,127.0,127.0,127.0,83.0,-113.0
127.0,127.0,127.0,127.0,127.0,127.0,113.0,128.0,14.0,126.0,-79.0,127.0,127.0,127.0,127.0,83.0,-113.0
126.0,127.0,127.0,127.0,127.0,127.0,113.0,128.0,14.0,126.0,-79.0,127.0,127.0,127.0,127.0,83.0,-113.0
126.0,127.0,127.0,127.0,127.0,127.0,113.0,128.0,14.0,126.0,-79.0,127.0,127.0,127.0,127.0,83.0,-113.0
126.0,127.0,127.0,127.0,127.0,127.0,108.0,128.0,14.0,126.0,-79.0,127.0,127.0,127.0,127.0,83.0,-113.0
126.0,127.0,127.0,127.0,127.0,127.0,106.0,128.0,14.0,126.0,-79.0,127.0,127.0,127.0,127.0,83.0,-113.0
126.0,127.0,127.0,127.0,127.0,127.0,106.0,128.0,14.0,126.0,-79.0,127.0,127.0,127.0,127.0,83.0,-113.0
126.0,127.0,127.0,127.0,127.0,127.0,106.0,128.0,14.0,126.0,-79.0,127.0,127.0,127.0,127.0,83.0,-113.0
126.0,127.0,127.0,127.0,127.0,127.0,107.0,128.0,14.0,126.0,-79.0,127.0,127.0,127.0,127.0,83.0,-113.0
126.0,127.0,127.0,127.0,127.0,127.0,106.0,128.0,14.0,126.0,-79.0,127.0,127.0,127.0,127.0,83.0,-113.0
127.0,127.0,127.0,127.0,127.0,127.0,106.0,128.0,14.0,126.0,-79.0,127.0,127.0,127.0,127.0,83.0,-113.0
127.0,127.0,127.0,127.0,127.0,127.0,108.0,128.0,14.0,126.0,-79.0,127.0,127.0,127.0,127.0,83.0,-113.0
127.0,127.0,127.0,127.0,127.0,127.0,109.0,128.0,14.0,126.0,-79.0,127.0,127.0,127.0,127.0,83.0,-113.0
126.0,127.0,127.0,127.0,127.0,127.0,111.0,128.0,14.0,126.0,-79.0,127.0,127.0,127.0,127.0,83.0,-113.0
126.0,127.0,127.0,127.0,127.0,127.0,109.0,128.0,15.0,126.0,-79.0,127.0,127.0,127.0,127.0,83.0,-113.0
127.0,127.0,127.0,127.0,127.0,127.0,109.0,128.0,15.0,126.0,-79.0,127.0,127.0,127.0,127.0,83.0,-113.0
127.0,127.0,127.0,127.0,127.0,127.0,111.0,128.0,15.0,126.0,-79.0,127.0,127.0,127.0,127.0,83.0,-113.0
127.0,127.0,127.0,127.0,127.0,127.0,112.0,127.0,15.0,126.0,-79.0,127.0,127.0,127.0,127.0,83.0,-113.0
127.0,127.0,127.0,127.0,127.0,127.0,113.0,127.0,15.0,126.0,-79.0,127.0,127.0,127.0,127.0,83.0,-113.0
126.0,127.0,127.0,127.0,127.0,127.0,113.0,127.0,15.0,126.0,-79.0,127.0,127.0,127.0,127.0,83.0,-113.0
126.0,127.0,127.0,127.0,127.0,127.0,112.0,128.0,15.0,126.0,-79.0,127.0,127.0,127.0,127.0,83.0,-113.0
126.0,127.0,127.0,127.0,127.0,127.0,111.0,128.0,15.0,126.0,-79.0,127.0,127.0,127.0,127.0,83.0,-113.0
126.0,127.0,127.0,127.0,127.0,127.0,109.0,128.0,15.0,126.0,-79.0,127.0,127.0,127.0,127.0,83.0,-113.0
126.0,127.0,127.0,127.0,127.0,127.0,110.0,128.0,15.0,126.0,-79.0,127.0,127.0,127.0,127.0,83.0,-113.0
126.0,127.0,127.0,127.0,127.0,127.0,106.0,128.0,15.0,126.0,-80.0,127.0,127.0,127.0,127.0,83.0,-113.0
126.0,127.0,127.0,127.0,127.0,127.0,106.0,128.0,15.0,126.0,-80.0,127.0,127.0,127.0,127.0,83.0,-113.0
126.0,127.0,127.0,127.0,127.0,127.0,106.0,128.0,15.0,126.0,-80.0,127.0,127.0,127.0,127.0,83.0,-113.0
126.0,127.0,127.0,127.0,127.0,127.0,106.0,128.0,15.0,126.0,-80.0,127.0,127.0,127.0,127.0,83.0,-113.0
126.0,127.0,127.0,127.0,127.0,127.0,112.0,128.0,15.0,126.0,-80.0,127.0,127.0,127.0,127.0,83.0,-113.0
126.0,127.0,127.0,127.0,127.0,127.0,111.0,128.0,15.0,126.0,-80.0,127.0,127.0,127.0,127.0,83.0,-113.0
126.0,127.0,127.0,127.0,127.0,127.0,106.0,128.0,15.0,126.0,-80.0,127.0,127.0,127.0,127.0,83.0,-113.0
126.0,127.0,127.0,127.0,127.0,127.0,106.0,128.0,15.0,126.0,-80.0,127.0,127.0,127.0,127.0,83.0,-113.0
126.0,127.0,127.0,127.0,127.0,127.0,106.0,128.0,15.0,126.0,-80.0,127.0,127.0,127.0,127.0,83.0,-113.0
126.0,127.0,127.0,127.0,127.0,127.0,106.0,128.0,15.0,126.0,-80.0,127.0,127.0,127.0,127.0,83.0,-113.0
127.0,127.0,127.0,127.0,127.0,127.0,112.0,128.0,16.0,126.0,-80.0,127.0,127.0,127.0,127.0,83.0,-113.0
127.0,127.0,127.0,127.0,127.0,127.0,113.0,128.0,16.0,126.0,-80.0,127.0,127.0,127.0,127.0,83.0,-113.0
127.0,127.0,127.0,127.0,127.0,127.0,114.0,128.0,16.0,126.0,-80.0,127.0,127.0,127.0,127.0,83.0,-113.0
126.0,127.0,127.0,127.0,127.0,127.0,113.0,128.0,16.0,126.0,-80.0,127.0,127.0,127.0,127.0,83.0,-113.0
126.0,127.0,127.0,127.0,127.0,127.0,113.0,128.0,16.0,126.0,-80.0,127.0,127.0,127.0,127.0,83.0,-113.0
127.0,127.0,127.0,127.0,127.0,127.0,112.0,128.0,16.0,126.0,-80.0,127.0,127.0,127.0,127.0,83.0,-113.0
127.0,127.0,127.0,127.0,127.0,127.0,113.0,128.0,16.0,126.0,-80.0,127.0,127.0,127.0,127.0,83.0,-113.0
126.0,127.0,127.0,127.0,127.0,127.0,113.0,128.0,16.0,126.0,-80.0,127.0,127.0,127.0,127.0,83.0,-113.0
126.0,127.0,127.0,127.0,127.0,127.0,113.0,128.0,16.0,126.0,-80.0,127.0,127.0,127.0,127.0,83.0,-113.0
126.0,127.0,127.0,127.0,127.0,127.0,113.0,128.0,16.0,126.0,-80.0,127.0,127.0,127.0,127.0,83.0,-113.0
126.0,127.0,127.0,127.0,127.0,127.0,106.0,128.0,16.0,126.0,-80.0,127.0,127.0,127.0,127.0,83.0,-113.0
126.0,127.0,127.0,127.0,127.0,127.0,106.0,128.0,16.0,126.0,-80.0,127.0,127.0,127.0,127.0,83.0,-113.0
127.0,127.0,127.0,127.0,127.0,127.0,106.0,128.0,16.0,126.0,-80.0,127.0,127.0,127.0,127.0,83.0,-113.0
126.0,127.0,127.0,127.0,127.0,127.0,106.0,128.0,16.0,126.0,-80.0,127.0,127.0,127.0,127.0,83.0,-113.0
126.0,127.0,127.0,127.0,127.0,127.0,106.0,128.0,16.0,126.0,-80.0,127.0,127.0,127.0,127.0,83.0,-113.0
126.0,127.0,127.0,127.0,127.0,127.0,107.0,128.0,16.0,126.0,-80.0,127.0,127.0,127.0,127.0,83.0,-113.0
126.0,127.0,127.0,127.0,127.0,127.0,107.0,128.0,16.0,126.0,-80.0,127.0,127.0,127.0,127.0,83.0,-113.0
126.0,127.0,127.0,127.0,127.0,127.0,107.0,128.0,16.0,126.0,-80.0,127.0,127.0,127.0,127.0,83.0,-113.0
126.0,127.0,127.0,127.0,127.0,127.0,106.0,128.0,16.0,126.0,-80.0,127.0,127.0,127.0,127.0,83.0,-113.0
126.0,127.0,127.0,127.0,127.0,127.0,106.0,128.0,16.0,126.0,-80.0,127.0,127.0,127.0,127.0,83.0,-113.0
126.0,127.0,127.0,127.0,127.0,127.0,106.0,128.0,15.0,126.0,-80.0,127.0,127.0,127.0,127.0,83.0,-113.0
127.0,127.0,127.0,127.0,127.0,127.0,106.0,128.0,15.0,126.0,-80.0,127.0,127.0,127.0,127.0,83.0,-113.0
127.0,127.0,127.0,127.0,127.0,127.0,106.0,128.0,15.0,126.0,-80.0,127.0,127.0,127.0,127.0,83.0,-113.0
127.0,127.0,127.0,127.0,127.0,127.0,106.0,128.0,15.0,126.0,-80.0,127.0,127.0,127.0,127.0,83.0,-113.0
127.0,127.0,127.0,127.0,127.0,127.0,107.0,128.0,15.0,126.0,-80.0,127.0,127.0,127.0,127.0,83.0,-113.0
126.0,127.0,127.0,127.0,127.0,127.0,108.0,128.0,15.0,126.0,-80.0,127.0,127.0,127.0,127.0,83.0,-113.0
126.0,127.0,127.0,127.0,127.0,127.0,107.0,128.0,15.0,126.0,-80.0,127.0,127.0,127.0,127.0,83.0,-113.0
126.0,127.0,127.0,127.0,127.0,127.0,106.0,128.0,15.0,126.0,-80.0,127.0,127.0,127.0,127.0,83.0,-113.0
126.0,127.0,127.0,127.0,127.0,127.0,106.0,128.0,15.0,126.0,-80.0,127.0,127.0,127.0,127.0,83.0,-113.0
126.0,127.0,127.0,127.0,127.0,127.0,106.0,128.0,15.0,126.0,-80.0,127.0,127.0,127.0,127.0,83.0,-113.0
127.0,127.0,127.0,127.0,127.0,127.0,106.0,128.0,15.0,126.0,-79.0,127.0,127.0,127.0,127.0,83.0,-113.0
127.0,127.0,127.0,127.0,127.0,127.0,106.0,128.0,15.0,126.0,-79.0,127.0,127.0,127.0,127.0,83.0,-113.0
127.0,127.0,127.0,127.0,127.0,127.0,106.0,128.0,15.0,126.0,-79.0,127.0,127.0,127.0,127.0,83.0,-113.0
126.0,127.0,127.0,127.0,127.0,127.0,107.0,128.0,15.0,126.0,-79.0,127.0,127.0,127.0,127.0,83.0,-113.0
126.0,127.0,127.0,127.0,127.0,127.0,108.0,128.0,15.0,126.0,-79.0,127.0,127.0,127.0,127.0,83.0,-113.0
126.0,127.0,127.0,127.0,127.0,127.0,107.0,128.0,15.0,126.0,-79.0,127.0,127.0,127.0,127.0,83.0,-113.0
127.0,127.0,127.0,127.0,127.0,127.0,107.0,128.0,15.0,126.0,-79.0,127.0,127.0,127.0,127.0,83.0,-113.0
127.0,127.0,127.0,127.0,127.0,127.0,107.0,128.0,15.0,126.0,-79.0,127.0,127.0,127.0,127.0,83.0,-113.0
127.0,127.0,127.0,127.0,127.0,127.0,107.0,128.0,15.0,126.0,-79.0,127.0,127.0,127.0,127.0,83.0,-113.0
127.0,127.0,127.0,127.0,127.0,127.0,106.0,128.0,15.0,126.0,-79.0,127.0,127.0,127.0,127.0,83.0,-113.0
127.0,127.0,127.0,127.0,127.0,127.0,106.0,128.0,14.0,126.0,-79.0,127.0,127.0,127.0,127.0,83.0,-113.0
127.0,127.0,127.0,127.0,127.0,127.0,106.0,128.0,14.0,126.0,-79.0,127.0,127.0,127.0,127.0,83.0,-113.0
127.0,127.0,127.0,127.0,127.0,127.0,108.0,128.0,14.0,126.0,-79.0,127.0,127.0,127.0,127.0,83.0,-113.0
127.0,127.0,127.0,127.0,127.0,127.0,107.0,128.0,14.0,126.0,-79.0,127.0,127.0,127.0,127.0,83.0,-113.0
127.0,127.0,127.0,127.0,127.0,127.0,109.0,128.0,14.0,126.0,-79.0,127.0,127.0,127.0,127.0,83.0,-113.0
127.0,127.0,127.0,127.0,127.0,127.0,107.0,128.0,14.0,126.0,-79.0,127.0,127.0,127.0,127.0,83.0,-113.0
127.0,127.0,127.0,127.0,127.0,127.0,106.0,128.0,14.0,126.0,-79.0,127.0,127.0,127.0,127.0,83.0,-113.0
127.0,127.0,127.0,128.0,127.0,127.0,106.0,128.0,14.0,126.0,-79.0,127.0,127.0,127.0,127.0,83.0,-113.0
127.0,127.0,127.0,128.0,127.0,127.0,107.0,128.0,14.0,126.0,-79.0,127.0,127.0,127.0,127.0,83.0,-113.0
127.0,127.0,127.0,127.0,127.0,127.0,107.0,128.0,14.0,126.0,-79.0,127.0,127.0,127.0,127.0,83.0,-113.0
127.0,127.0,127.0,127.0,127.0,127.0,112.0,128.0,14.0,126.0,-79.0,127.0,127.0,127.0,127.0,83.0,-113.0
127.0,127.0,127.0,127.0,127.0,127.0,112.0,128.0,14.0,126.0,-79.0,127.0,127.0,127.0,127.0,83.0,-113.0
127.0,127.0,127.0,127.0,127.0,127.0,112.0,128.0,14.0,126.0,-79.0,127.0,127.0,127.0,127.0,83.0,-113.0
127.0,127.0,127.0,127.0,127.0,127.0,112.0,128.0,14.0,126.0,-79.0,127.0,127.0,127.0,127.0,83.0,-113.0
127.0,127.0,127.0,127.0,127.0,127.0,112.0,128.0,14.0,126.0,-79.0,127.0,127.0,127.0,127.0,83.0,-113.0
127.0,127.0,127.0,127.0,127.0,127.0,112.0,128.0,14.0,126.0,-79.0,127.0,127.0,127.0,127.0,83.0,-113.0
126.0,127.0,127.0,127.0,127.0,127.0,112.0,128.0,14.0,126.0,-79.0,127.0,127.0,127.0,127.0,83.0,-113.0
126.0,127.0,127.0,127.0,127.0,127.0,113.0,128.0,14.0,126.0,-79.0,127.0,127.0,127.0,127.0,83.0,-113.0
127.0,127.0,127.0,127.0,127.0,127.0,113.0,128.0,14.0,126.0,-79.0,127.0,127.0,127.0,127.0,83.0,-113.0
127.0,127.0,127.0,127.0,127.0,127.0,113.0,128.0,14.0,126.0,-79.0,127.0,127.0,127.0,127.0,83.0,-113.0
126.0,127.0,127.0,127.0,127.0,127.0,109.0,128.0,14.0,126.0,-79.0,127.0,127.0,127.0,127.0,83.0,-113.0
126.0,127.0,127.0,127.0,127.0,127.0,107.0,128.0,14.0,126.0,-79.0,127.0,127.0,127.0,127.0,83.0,-113.0
126.0,127.0,127.0,127.0,127.0,127.0,107.0,128.0,14.0,126.0,-79.0,127.0,127.0,127.0,127.0,83.0,-113.0
126.0,127.0,127.0,127.0,127.0,127.0,107.0,128.0,14.0,126.0,-79.0,127.0,127.0,127.0,127.0,83.0,-113.0
126.0,127.0,127.0,127.0,127.0,127.0,107.0,128.0,14.0,126.0,-79.0,127.0,127.0,127.0,127.0,83.0,-113.0
126.0,127.0,127.0,127.0,127.0,127.0,106.0,128.0,14.0,126.0,-79.0,127.0,127.0,127.0,127.0,83.0,-113.0
126.0,127.0,127.0,127.0,127.0,127.0,106.0,128.0,14.0,126.0,-79.0,127.0,127.0,127.0,127.0,83.0,-113.0
127.0,127.0,127.0,127.0,127.0,127.0,113.0,128.0,14.0,126.0,-79.0,127.0,127.0,127.0,127.0,83.0,-113.0
126.0,127.0,127.0,127.0,127.0,127.0,112.0,128.0,14.0,126.0,-79.0,127.0,127.0,127.0,127.0,83.0,-113.0
126.0,127.0,127.0,127.0,127.0,127.0,113.0,128.0,14.0,126.0,-79.0,127.0,127.0,127.0,127.0,83.0,-113.0
127.0,127.0,127.0,127.0,127.0,127.0,111.0,128.0,15.0,126.0,-80.0,127.0,127.0,127.0,127.0,83.0,-113.0
127.0,127.0,127.0,127.0,127.0,127.0,111.0,128.0,15.0,126.0,-80.0,127.0,127.0,127.0,127.0,83.0,-113.0
127.0,127.0,127.0,127.0,127.0,127.0,110.0,128.0,15.0,126.0,-80.0,127.0,127.0,127.0,127.0,83.0,-113.0
127.0,127.0,127.0,127.0,127.0,127.0,108.0,128.0,15.0,126.0,-80.0,127.0,127.0,127.0,127.0,83.0,-113.0
127.0,127.0,127.0,127.0,127.0,127.0,106.0,128.0,15.0,126.0,-80.0,127.0,127.0,127.0,127.0,83.0,-113.0
127.0,127.0,127.0,127.0,127.0,127.0,106.0,128.0,15.0,126.0,-80.0,127.0,127.0,127.0,127.0,83.0,-113.0
127.0,127.0,127.0,127.0,127.0,127.0,110.0,128.0,15.0,126.0,-80.0,127.0,127.0,127.0,127.0,83.0,-113.0
127.0,127.0,127.0,127.0,127.0,127.0,107.0,128.0,15.0,126.0,-80.0,127.0,127.0,127.0,127.0,83.0,-113.0
127.0,127.0,127.0,127.0,127.0,127.0,107.0,128.0,15.0,126.0,-80.0,127.0,127.0,127.0,127.0,83.0,-113.0
127.0,127.0,127.0,127.0,127.0,127.0,110.0,128.0,15.0,126.0,-80.0,127.0,127.0,127.0,127.0,83.0,-113.0
126.0,127.0,127.0,127.0,127.0,127.0,113.0,128.0,15.0,126.0,-80.0,127.0,127.0,127.0,127.0,83.0,-113.0
126.0,127.0,127.0,127.0,127.0,127.0,112.0,128.0,15.0,126.0,-80.0,127.0,127.0,127.0,127.0,83.0,-113.0
126.0,127.0,127.0,127.0,127.0,127.0,107.0,128.0,15.0,126.0,-80.0,127.0,127.0,127.0,127.0,83.0,-113.0
126.0,127.0,127.0,127.0,127.0,127.0,107.0,128.0,15.0,126.0,-80.0,127.0,127.0,127.0,127.0,83.0,-113.0
126.0,127.0,127.0,127.0,127.0,127.0,109.0,128.0,15.0,126.0,-80.0,127.0,127.0,127.0,127.0,83.0,-113.0
126.0,127.0,127.0,127.0,127.0,127.0,113.0,128.0,15.0,126.0,-80.0,127.0,127.0,127.0,127.0,83.0,-113.0
126.0,127.0,127.0,127.0,127.0,127.0,111.0,128.0,15.0,126.0,-80.0,127.0,127.0,127.0,127.0,83.0,-113.0
126.0,127.0,127.0,127.0,127.0,127.0,113.0,128.0,15.0,126.0,-80.0,127.0,127.0,127.0,127.0,83.0,-113.0
126.0,127.0,127.0,127.0,127.0,127.0,113.0,128.0,15.0,126.0,-80.0,127.0,127.0,127.0,127.0,83.0,-113.0
126.0,127.0,127.0,127.0,127.0,127.0,112.0,128.0,15.0,126.0,-80.0,127.0,127.0,127.0,127.0,83.0,-113.0
126.0,127.0,127.0,127.0,127.0,127.0,113.0,128.0,16.0,126.0,-80.0,127.0,127.0,127.0,127.0,83.0,-113.0
126.0,127.0,127.0,127.0,127.0,127.0,113.0,128.0,16.0,126.0,-80.0,127.0,127.0,127.0,127.0,83.0,-113.0
126.0,127.0,127.0,127.0,127.0,127.0,112.0,128.0,16.0,126.0,-80.0,127.0,127.0,127.0,127.0,83.0,-113.0
126.0,127.0,127.0,127.0,127.0,127.0,113.0,128.0,16.0,126.0,-80.0,127.0,127.0,127.0,127.0,83.0,-113.0
126.0,127.0,127.0,127.0,127.0,127.0,112.0,128.0,16.0,126.0,-80.0,127.0,127.0,127.0,127.0,83.0,-113.0
126.0,127.0,127.0,127.0,127.0,127.0,113.0,128.0,16.0,126.0,-80.0,127.0,127.0,127.0,127.0,83.0,-113.0
126.0,127.0,127.0,127.0,127.0,127.0,113.0,128.0,16.0,126.0,-80.0,127.0,127.0,127.0,127.0,83.0,-113.0
126.0,127.0,127.0,127.0,127.0,127.0,113.0,128.0,16.0,126.0,-80.0,127.0,127.0,127.0,127.0,83.0,-113.0
126.0,127.0,127.0,127.0,127.0,127.0,112.0,128.0,16.0,126.0,-80.0,127.0,127.0,127.0,127.0,83.0,-113.0
126.0,127.0,127.0,127.0,127.0,127.0,113.0,128.0,16.0,126.0,-80.0,127.0,127.0,127.0,127.0,83.0,-113.0
126.0,127.0,127.0,127.0,127.0,127.0,113.0,128.0,16.0,126.0,-80.0,127.0,127.0,127.0,127.0,83.0,-113.0
126.0,127.0,127.0,127.0,127.0,127.0,113.0,128.0,16.0,126.0,-80.0,127.0,127.0,127.0,127.0,83.0,-113.0
126.0,127.0,127.0,127.0,127.0,127.0,113.0,128.0,16.0,126.0,-80.0,127.0,127.0,127.0,127.0,83.0,-113.0
126.0,127.0,127.0,127.0,127.0,127.0,113.0,128.0,16.0,126.0,-80.0,127.0,127.0,127.0,127.0,83.0,-113.0
126.0,127.0,127.0,127.0,127.0,127.0,114.0,128.0,16.0,126.0,-80.0,127.0,127.0,127.0,127.0,83.0,-113.0
126.0,127.0,127.0,127.0,127.0,127.0,113.0,128.0,16.0,126.0,-80.0,127.0,127.0,127.0,127.0,83.0,-113.0
126.0,127.0,127.0,127.0,127.0,127.0,113.0,128.0,16.0,126.0,-80.0,127.0,127.0,127.0,127.0,83.0,-113.0
126.0,127.0,127.0,127.0,127.0,127.0,113.0,128.0,16.0,126.0,-80.0,127.0,127.0,127.0,127.0,83.0,-113.0
126.0,127.0,127.0,127.0,127.0,127.0,113.0,128.0,16.0,126.0,-80.0,127.0,127.0,127.0,127.0,83.0,-113.0
126.0,127.0,127.0,127.0,127.0,127.0,113.0,128.0,16.0,126.0,-80.0,127.0,127.0,127.0,127.0,83.0,-113.0
126.0,127.0,127.0,127.0,127.0,127.0,106.0,128.0,16.0,126.0,-80.0,127.0,127.0,127.0,127.0,83.0,-113.0
126.0,127.0,127.0,127.0,127.0,127.0,107.0,128.0,16.0,126.0,-80.0,127.0,127.0,127.0,127.0,83.0,-113.0
127.0,127.0,127.0,127.0,127.0,127.0,112.0,128.0,16.0,126.0,-80.0,127.0,127.0,127.0,127.0,83.0,-113.0
127.0,127.0,127.0,127.0,127.0,127.0,109.0,128.0,16.0,126.0,-80.0,127.0,127.0,127.0,127.0,83.0,-113.0
127.0,127.0,127.0,127.0,127.0,127.0,107.0,128.0,16.0,126.0,-80.0,127.0,127.0,127.0,127.0,83.0,-113.0
127.0,127.0,127.0,127.0,127.0,127.0,108.0,128.0,16.0,126.0,-80.0,127.0,127.0,127.0,127.0,83.0,-113.0
127.0,127.0,127.0,127.0,127.0,127.0,112.0,128.0,16.0,126.0,-80.0,127.0,127.0,127.0,127.0,83.0,-113.0
127.0,127.0,127.0,127.0,127.0,127.0,112.0,128.0,16.0,126.0,-80.0,127.0,127.0,127.0,127.0,83.0,-113.0
126.0,127.0,127.0,127.0,127.0,127.0,112.0,128.0,16.0,126.0,-80.0,127.0,127.0,127.0,127.0,83.0,-113.0
126.0,127.0,127.0,127.0,127.0,127.0,108.0,128.0,16.0,126.0,-80.0,127.0,127.0,127.0,127.0,83.0,-113.0
127.0,127.0,127.0,127.0,127.0,127.0,106.0,128.0,15.0,126.0,-80.0,127.0,127.0,127.0,127.0,83.0,-113.0
127.0,127.0,127.0,127.0,127.0,127.0,106.0,128.0,15.0,126.0,-80.0,127.0,127.0,127.0,127.0,83.0,-113.0
127.0,127.0,127.0,127.0,127.0,127.0,106.0,128.0,15.0,126.0,-80.0,127.0,127.0,127.0,127.0,83.0,-113.0
127.0,127.0,127.0,127.0,127.0,127.0,106.0,128.0,15.0,126.0,-80.0,127.0,127.0,127.0,127.0,83.0,-113.0
127.0,127.0,127.0,127.0,127.0,127.0,106.0,128.0,15.0,126.0,-80.0,127.0,127.0,127.0,127.0,83.0,-113.0
127.0,127.0,127.0,127.0,127.0,127.0,106.0,128.0,15.0,126.0,-80.0,127.0,127.0,127.0,127.0,83.0,-113.0
127.0,127.0,127.0,127.0,127.0,127.0,106.0,128.0,15.0,126.0,-80.0,127.0,127.0,127.0,127.0,83.0,-113.0
127.0,127.0,127.0,127.0,127.0,127.0,106.0,128.0,15.0,126.0,-80.0,127.0,127.0,127.0,127.0,83.0,-113.0
127.0,127.0,127.0,127.0,127.0,127.0,106.0,128.0,15.0,126.0,-80.0,127.0,127.0,127.0,127.0,83.0,-113.0
127.0,127.0,127.0,127.0,127.0,127.0,106.0,128.0,15.0,126.0,-80.0,127.0,127.0,127.0,127.0,83.0,-113.0
127.0,127.0,127.0,127.0,127.0,127.0,113.0,128.0,15.0,126.0,-80.0,127.0,127.0,127.0,127.0,83.0,-113.0
127.0,127.0,127.0,127.0,127.0,127.0,111.0,128.0,15.0,126.0,-80.0,127.0,127.0,127.0,127.0,83.0,-113.0
126.0,127.0,127.0,127.0,127.0,127.0,107.0,128.0,15.0,126.0,-80.0,127.0,127.0,127.0,127.0,83.0,-113.0
126.0,127.0,127.0,127.0,127.0,127.0,107.0,128.0,15.0,126.0,-80.0,127.0,127.0,127.0,127.0,83.0,-113.0
127.0,127.0,127.0,127.0,127.0,127.0,110.0,128.0,15.0,126.0,-80.0,127.0,127.0,127.0,127.0,83.0,-113.0
126.0,127.0,127.0,127.0,127.0,127.0,112.0,128.0,15.0,126.0,-80.0,127.0,127.0,127.0,127.0,83.0,-113.0
126.0,127.0,127.0,127.0,127.0,127.0,109.0,128.0,15.0,126.0,-80.0,127.0,127.0,127.0,127.0,83.0,-113.0
126.0,127.0,127.0,127.0,127.0,127.0,110.0,128.0,15.0,126.0,-80.0,127.0,127.0,127.0,127.0,83.0,-113.0
126.0,127.0,127.0,127.0,127.0,127.0,106.0,128.0,15.0,126.0,-80.0,127.0,127.0,127.0,127.0,83.0,-113.0
127.0,127.0,127.0,127.0,127.0,127.0,106.0,128.0,15.0,126.0,-80.0,127.0,127.0,127.0,127.0,83.0,-113.0
127.0,127.0,127.0,127.0,127.0,127.0,110.0,128.0,14.0,126.0,-79.0,127.0,127.0,127.0,127.0,83.0,-113.0
127.0,127.0,127.0,127.0,127.0,127.0,107.0,128.0,14.0,126.0,-79.0,127.0,127.0,127.0,127.0,83.0,-113.0
127.0,127.0,127.0,127.0,127.0,127.0,106.0,128.0,14.0,126.0,-79.0,127.0,127.0,127.0,127.0,83.0,-113.0
127.0,127.0,127.0,127.0,127.0,127.0,106.0,128.0,14.0,126.0,-79.0,127.0,127.0,127.0,127.0,83.0,-113.0
127.0,127.0,127.0,127.0,127.0,127.0,106.0,128.0,14.0,126.0,-79.0,127.0,127.0,127.0,127.0,83.0,-113.0
127.0,127.0,127.0,127.0,127.0,127.0,106.0,128.0,14.0,126.0,-79.0,127.0,127.0,127.0,127.0,83.0,-113.0
126.0,127.0,127.0,127.0,127.0,127.0,108.0,128.0,14.0,126.0,-79.0,127.0,127.0,127.0,127.0,83.0,-113.0
126.0,127.0,127.0,127.0,127.0,127.0,106.0,128.0,14.0,126.0,-79.0,127.0,127.0,127.0,127.0,83.0,-113.0
126.0,127.0,127.0,127.0,127.0,127.0,106.0,128.0,14.0,126.0,-79.0,127.0,127.0,127.0,127.0,83.0,-113.0
127.0,127.0,127.0,127.0,127.0,127.0,106.0,128.0,14.0,126.0,-79.0,127.0,127.0,127.0,127.0,83.0,-113.0
127.0,127.0,127.0,127.0,127.0,127.0,107.0,128.0,14.0,126.0,-79.0,127.0,127.0,127.0,127.0,83.0,-113.0
126.0,127.0,127.0,127.0,127.0,127.0,106.0,128.0,14.0,126.0,-79.0,127.0,127.0,127.0,127.0,83.0,-113.0
127.0,127.0,127.0,127.0,127.0,127.0,106.0,128.0,14.0,126.0,-79.0,127.0,127.0,127.0,127.0,83.0,-113.0
126.0,127.0,127.0,127.0,127.0,127.0,107.0,128.0,14.0,126.0,-79.0,127.0,127.0,127.0,127.0,83.0,-113.0
126.0,127.0,127.0,127.0,127.0,127.0,106.0,128.0,14.0,126.0,-79.0,127.0,127.0,127.0,127.0,83.0,-113.0
126.0,127.0,127.0,127.0,127.0,127.0,108.0,128.0,14.0,126.0,-79.0,127.0,127.0,127.0,127.0,83.0,-113.0
126.0,127.0,127.0,127.0,127.0,127.0,108.0,128.0,14.0,126.0,-79.0,127.0,127.0,127.0,127.0,83.0,-113.0
126.0,127.0,127.0,127.0,127.0,127.0,107.0,128.0,14.0,126.0,-79.0,127.0,127.0,127.0,127.0,83.0,-113.0
127.0,127.0,127.0,127.0,127.0,127.0,112.0,128.0,14.0,126.0,-79.0,127.0,127.0,127.0,127.0,83.0,-113.0
126.0,127.0,127.0,127.0,127.0,127.0,111.0,128.0,14.0,126.0,-79.0,127.0,127.0,127.0,127.0,83.0,-113.0
126.0,127.0,127.0,127.0,127.0,127.0,106.0,128.0,14.0,126.0,-80.0,127.0,127.0,127.0,127.0,83.0,-113.0
126.0,127.0,127.0,127.0,127.0,127.0,106.0,128.0,14.0,126.0,-80.0,127.0,127.0,127.0,127.0,83.0,-113.0
126.0,127.0,127.0,127.0,127.0,127.0,106.0,128.0,14.0,126.0,-80.0,127.0,127.0,127.0,127.0,83.0,-113.0
126.0,127.0,127.0,127.0,127.0,127.0,107.0,128.0,14.0,126.0,-80.0,127.0,127.0,127.0,127.0,83.0,-113.0
126.0,127.0,127.0,127.0,127.0,127.0,107.0,128.0,14.0,126.0,-80.0,127.0,127.0,127.0,127.0,83.0,-113.0
126.0,127.0,127.0,127.0,127.0,127.0,106.0,128.0,14.0,126.0,-80.0,127.0,127.0,127.0,127.0,83.0,-113.0
126.0,127.0,127.0,127.0,127.0,127.0,106.0,128.0,14.0,126.0,-80.0,127.0,127.0,127.0,127.0,83.0,-113.0
126.0,127.0,127.0,127.0,127.0,127.0,107.0,128.0,14.0,126.0,-80.0,127.0,127.0,127.0,127.0,83.0,-113.0
126.0,127.0,127.0,127.0,127.0,127.0,112.0,128.0,14.0,126.0,-80.0,127.0,127.0,127.0,127.0,83.0,-113.0
126.0,127.0,127.0,127.0,127.0,127.0,108.0,128.0,14.0,126.0,-80.0,127.0,127.0,127.0,127.0,83.0,-113.0
126.0,127.0,127.0,127.0,127.0,127.0,112.0,128.0,15.0,126.0,-80.0,127.0,127.0,127.0,127.0,83.0,-113.0
126.0,127.0,127.0,127.0,127.0,127.0,112.0,128.0,15.0,126.0,-80.0,127.0,127.0,127.0,127.0,83.0,-113.0
126.0,127.0,127.0,127.0,127.0,127.0,112.0,128.0,15.0,126.0,-80.0,127.0,127.0,127.0,127.0,83.0,-113.0
126.0,127.0,127.0,127.0,127.0,127.0,113.0,127.0,15.0,126.0,-80.0,127.0,127.0,127.0,127.0,83.0,-113.0
126.0,127.0,127.0,127.0,127.0,127.0,112.0,128.0,15.0,126.0,-80.0,127.0,127.0,127.0,127.0,83.0,-113.0
126.0,127.0,127.0,127.0,127.0,127.0,111.0,128.0,15.0,126.0,-80.0,127.0,127.0,127.0,127.0,83.0,-113.0
127.0,127.0,127.0,127.0,127.0,127.0,112.0,127.0,15.0,126.0,-80.0,127.0,127.0,127.0,127.0,83.0,-113.0
126.0,127.0,127.0,127.0,126.0,127.0,112.0,127.0,15.0,126.0,-80.0,127.0,127.0,127.0,127.0,83.0,-113.0
126.0,127.0,127.0,127.0,127.0,127.0,113.0,128.0,15.0,126.0,-80.0,127.0,127.0,127.0,127.0,83.0,-113.0
126.0,127.0,127.0,127.0,127.0,127.0,113.0,128.0,15.0,126.0,-80.0,127.0,127.0,127.0,127.0,83.0,-113.0
127.0,127.0,127.0,127.0,127.0,127.0,106.0,128.0,15.0,126.0,-80.0,127.0,127.0,127.0,127.0,83.0,-113.0
127.0,127.0,127.0,127.0,127.0,127.0,108.0,128.0,15.0,126.0,-80.0,127.0,127.0,127.0,127.0,83.0,-113.0
127.0,127.0,127.0,127.0,127.0,127.0,106.0,128.0,15.0,126.0,-80.0,127.0,127.0,127.0,127.0,83.0,-113.0
127.0,127.0,127.0,127.0,127.0,127.0,108.0,128.0,15.0,126.0,-80.0,127.0,127.0,127.0,127.0,83.0,-113.0
127.0,127.0,127.0,127.0,127.0,127.0,107.0,128.0,15.0,126.0,-80.0,127.0,127.0,127.0,127.0,83.0,-113.0
127.0,127.0,127.0,127.0,127.0,127.0,114.0,128.0,15.0,126.0,-80.0,127.0,127.0,127.0,127.0,83.0,-113.0
127.0,127.0,127.0,127.0,127.0,127.0,113.0,128.0,15.0,126.0,-80.0,127.0,127.0,127.0,127.0,83.0,-113.0
127.0,127.0,127.0,127.0,127.0,127.0,110.0,128.0,15.0,126.0,-80.0,127.0,127.0,127.0,127.0,83.0,-113.0
127.0,127.0,127.0,127.0,127.0,127.0,106.0,128.0,15.0,126.0,-80.0,127.0,127.0,127.0,127.0,83.0,-113.0
127.0,127.0,127.0,127.0,127.0,127.0,106.0,128.0,15.0,126.0,-80.0,127.0,127.0,127.0,127.0,83.0,-113.0
126.0,127.0,127.0,127.0,127.0,127.0,109.0,128.0,16.0,126.0,-80.0,127.0,127.0,127.0,127.0,83.0,-113.0
126.0,127.0,127.0,127.0,127.0,127.0,110.0,128.0,16.0,126.0,-80.0,127.0,127.0,127.0,127.0,83.0,-113.0
126.0,127.0,127.0,127.0,127.0,127.0,113.0,128.0,16.0,126.0,-80.0,127.0,127.0,127.0,127.0,83.0,-113.0
126.0,127.0,127.0,127.0,127.0,127.0,113.0,128.0,16.0,126.0,-80.0,127.0,127.0,127.0,127.0,83.0,-113.0
126.0,127.0,127.0,127.0,127.0,127.0,113.0,128.0,16.0,126.0,-80.0,127.0,127.0,127.0,127.0,83.0,-113.0
126.0,127.0,127.0,127.0,127.0,127.0,106.0,128.0,16.0,126.0,-80.0,127.0,127.0,127.0,127.0,83.0,-113.0
126.0,127.0,127.0,127.0,127.0,127.0,106.0,128.0,16.0,126.0,-80.0,127.0,127.0,127.0,127.0,83.0,-113.0
126.0,127.0,127.0,127.0,127.0,127.0,106.0,128.0,16.0,126.0,-80.0,127.0,127.0,127.0,127.0,83.0,-113.0
126.0,127.0,127.0,127.0,127.0,127.0,106.0,128.0,16.0,126.0,-80.0,127.0,127.0,127.0,127.0,83.0,-113.0
126.0,127.0,127.0,127.0,127.0,127.0,106.0,128.0,16.0,126.0,-80.0,127.0,127.0,127.0,127.0,83.0,-113.0
126.0,127.0,127.0,127.0,127.0,127.0,110.0,128.0,16.0,126.0,-80.0,127.0,127.0,127.0,127.0,83.0,-113.0
126.0,127.0,127.0,127.0,127.0,127.0,111.0,128.0,16.0,126.0,-80.0,127.0,127.0,127.0,127.0,83.0,-113.0
126.0,127.0,127.0,127.0,127.0,127.0,112.0,128.0,16.0,126.0,-80.0,127.0,127.0,127.0,127.0,83.0,-113.0
126.0,127.0,127.0,127.0,127.0,127.0,111.0,128.0,16.0,126.0,-80.0,127.0,127.0,127.0,127.0,83.0,-113.0
126.0,127.0,127.0,127.0,127.0,127.0,106.0,128.0,16.0,126.0,-80.0,127.0,127.0,127.0,127.0,83.0,-113.0
126.0,127.0,127.0,127.0,127.0,127.0,106.0,128.0,16.0,126.0,-80.0,127.0,127.0,127.0,127.0,83.0,-113.0
126.0,127.0,127.0,127.0,127.0,127.0,107.0,128.0,16.0,126.0,-80.0,127.0,127.0,127.0,127.0,83.0,-113.0
126.0,127.0,127.0,127.0,127.0,127.0,106.0,128.0,16.0,126.0,-80.0,127.0,127.0,127.0,127.0,83.0,-113.0
126.0,127.0,127.0,127.0,127.0,127.0,106.0,128.0,16.0,126.0,-80.0,127.0,127.0,127.0,127.0,83.0,-113.0
126.0,127.0,127.0,127.0,127.0,127.0,108.0,128.0,16.0,126.0,-80.0,127.0,127.0,127.0,127.0,83.0,-113.0
126.0,127.0,127.0,127.0,127.0,127.0,113.0,128.0,15.0,126.0,-80.0,127.0,127.0,127.0,127.0,83.0,-113.0
126.0,127.0,127.0,127.0,127.0,127.0,113.0,128.0,15.0,126.0,-80.0,127.0,127.0,127.0,127.0,83.0,-113.0
126.0,127.0,127.0,127.0,127.0,127.0,113.0,128.0,15.0,126.0,-80.0,127.0,127.0,127.0,127.0,83.0,-113.0
127.0,127.0,127.0,127.0,127.0,127.0,114.0,128.0,15.0,126.0,-80.0,127.0,127.0,127.0,127.0,83.0,-113.0
127.0,127.0,127.0,127.0,127.0,127.0,113.0,128.0,15.0,126.0,-80.0,127.0,127.0,127.0,127.0,83.0,-113.0
127.0,127.0,127.0,127.0,127.0,127.0,113.0,128.0,15.0,126.0,-80.0,127.0,127.0,127.0,127.0,83.0,-113.0
127.0,127.0,127.0,127.0,127.0,127.0,113.0,128.0,15.0,126.0,-80.0,127.0,127.0,127.0,127.0,83.0,-113.0
127.0,127.0,127.0,127.0,127.0,127.0,113.0,128.0,15.0,126.0,-80.0,127.0,127.0,127.0,127.0,83.0,-113.0
127.0,127.0,127.0,127.0,127.0,127.0,112.0,128.0,15.0,126.0,-80.0,127.0,127.0,127.0,127.0,83.0,-113.0
126.0,127.0,127.0,127.0,127.0,127.0,113.0,128.0,15.0,126.0,-80.0,127.0,127.0,127.0,127.0,83.0,-113.0
127.0,127.0,127.0,127.0,127.0,127.0,112.0,128.0,15.0,126.0,-80.0,127.0,127.0,127.0,127.0,83.0,-113.0
126.0,127.0,127.0,127.0,127.0,127.0,110.0,128.0,15.0,126.0,-80.0,127.0,127.0,127.0,127.0,83.0,-113.0
127.0,127.0,127.0,127.0,127.0,127.0,112.0,128.0,15.0,126.0,-80.0,127.0,127.0,127.0,127.0,83.0,-113.0
127.0,127.0,127.0,127.0,127.0,127.0,113.0,128.0,15.0,126.0,-80.0,127.0,127.0,127.0,127.0,83.0,-113.0
127.0,127.0,127.0,127.0,127.0,127.0,112.0,128.0,15.0,126.0,-80.0,127.0,127.0,127.0,127.0,83.0,-113.0
127.0,127.0,127.0,127.0,127.0,127.0,110.0,128.0,15.0,126.0,-80.0,127.0,127.0,127.0,127.0,83.0,-113.0
127.0,127.0,127.0,127.0,127.0,127.0,110.0,128.0,15.0,126.0,-80.0,127.0,127.0,127.0,127.0,83.0,-113.0
127.0,127.0,127.0,127.0,127.0,127.0,113.0,128.0,15.0,126.0,-80.0,127.0,127.0,127.0,127.0,83.0,-113.0
127.0,127.0,127.0,127.0,127.0,127.0,113.0,128.0,15.0,126.0,-80.0,127.0,127.0,127.0,127.0,83.0,-113.0
126.0,127.0,127.0,127.0,127.0,127.0,113.0,128.0,15.0,126.0,-80.0,127.0,127.0,127.0,127.0,83.0,-113.0
126.0,127.0,127.0,127.0,127.0,127.0,107.0,128.0,14.0,126.0,-80.0,127.0,127.0,127.0,127.0,83.0,-113.0
127.0,126.0,127.0,127.0,127.0,127.0,112.0,128.0,14.0,126.0,-80.0,127.0,127.0,127.0,127.0,83.0,-113.0
126.0,127.0,127.0,127.0,127.0,127.0,113.0,128.0,14.0,126.0,-80.0,127.0,127.0,127.0,127.0,83.0,-113.0
126.0,127.0,127.0,127.0,127.0,127.0,112.0,128.0,14.0,126.0,-80.0,127.0,127.0,127.0,127.0,83.0,-113.0
126.0,127.0,127.0,127.0,127.0,127.0,109.0,128.0,14.0,126.0,-80.0,127.0,127.0,127.0,127.0,83.0,-113.0
126.0,127.0,127.0,127.0,127.0,127.0,107.0,128.0,14.0,126.0,-80.0,127.0,127.0,127.0,127.0,83.0,-113.0
126.0,127.0,127.0,127.0,127.0,127.0,109.0,128.0,14.0,126.0,-80.0,127.0,127.0,127.0,127.0,83.0,-113.0
126.0,127.0,127.0,127.0,127.0,127.0,110.0,128.0,14.0,126.0,-80.0,127.0,127.0,127.0,127.0,83.0,-113.0
126.0,127.0,127.0,127.0,127.0,127.0,109.0,128.0,14.0,126.0,-80.0,127.0,127.0,127.0,127.0,83.0,-113.0
126.0,127.0,127.0,127.0,127.0,127.0,108.0,128.0,14.0,126.0,-80.0,127.0,127.0,127.0,127.0,83.0,-113.0
127.0,126.0,127.0,127.0,126.0,127.0,113.0,128.0,14.0,126.0,-79.0,127.0,127.0,127.0,127.0,83.0,-113.0
127.0,126.0,127.0,127.0,127.0,127.0,113.0,128.0,14.0,126.0,-79.0,127.0,127.0,127.0,127.0,83.0,-113.0
127.0,127.0,127.0,127.0,127.0,127.0,112.0,128.0,14.0,126.0,-79.0,127.0,127.0,127.0,127.0,83.0,-113.0
127.0,127.0,127.0,127.0,127.0,127.0,111.0,128.0,14.0,126.0,-79.0,127.0,127.0,127.0,127.0,83.0,-113.0
127.0,127.0,127.0,127.0,127.0,127.0,107.0,128.0,14.0,126.0,-79.0,127.0,127.0,127.0,127.0,83.0,-113.0
127.0,127.0,127.0,127.0,127.0,127.0,108.0,128.0,14.0,126.0,-79.0,127.0,127.0,127.0,127.0,83.0,-113.0
127.0,127.0,127.0,127.0,127.0,127.0,112.0,128.0,14.0,126.0,-79.0,127.0,127.0,127.0,127.0,83.0,-113.0
127.0,127.0,127.0,127.0,127.0,127.0,113.0,128.0,14.0,126.0,-79.0,127.0,127.0,127.0,127.0,83.0,-113.0
126.0,127.0,127.0,127.0,127.0,127.0,113.0,128.0,14.0,126.0,-79.0,127.0,127.0,127.0,127.0,83.0,-113.0
126.0,127.0,127.0,127.0,127.0,127.0,108.0,128.0,14.0,126.0,-79.0,127.0,127.0,127.0,127.0,83.0,-113.0
127.0,127.0,127.0,127.0,127.0,127.0,113.0,128.0,14.0,126.0,-79.0,127.0,127.0,127.0,127.0,83.0,-113.0
127.0,127.0,127.0,127.0,127.0,127.0,112.0,128.0,14.0,126.0,-79.0,127.0,127.0,127.0,127.0,83.0,-113.0
126.0,127.0,127.0,127.0,127.0,127.0,113.0,128.0,14.0,126.0,-79.0,127.0,127.0,127.0,127.0,83.0,-113.0
127.0,127.0,127.0,127.0,127.0,127.0,112.0,128.0,14.0,126.0,-79.0,127.0,127.0,127.0,127.0,83.0,-113.0
127.0,127.0,127.0,127.0,127.0,127.0,112.0,128.0,14.0,126.0,-79.0,127.0,127.0,127.0,127.0,83.0,-113.0
127.0,127.0,127.0,127.0,127.0,127.0,112.0,128.0,14.0,126.0,-79.0,127.0,127.0,127.0,127.0,83.0,-113.0
127.0,127.0,127.0,127.0,127.0,127.0,112.0,128.0,14.0,126.0,-79.0,127.0,127.0,127.0,127.0,83.0,-113.0
127.0,127.0,127.0,127.0,127.0,127.0,113.0,128.0,14.0,126.0,-79.0,127.0,127.0,127.0,127.0,83.0,-113.0
127.0,127.0,127.0,127.0,127.0,127.0,113.0,128.0,14.0,126.0,-79.0,127.0,127.0,127.0,127.0,83.0,-113.0
127.0,127.0,127.0,127.0,127.0,127.0,113.0,128.0,14.0,126.0,-79.0,127.0,127.0,127.0,127.0,83.0,-113.0
127.0,127.0,127.0,127.0,127.0,127.0,113.0,128.0,15.0,126.0,-80.0,127.0,127.0,127.0,127.0,83.0,-113.0
127.0,127.0,127.0,127.0,127.0,127.0,108.0,128.0,15.0,126.0,-80.0,127.0,127.0,127.0,127.0,83.0,-113.0
127.0,127.0,127.0,127.0,127.0,127.0,106.0,128.0,15.0,126.0,-80.0,127.0,127.0,127.0,127.0,83.0,-113.0
126.0,127.0,127.0,127.0,127.0,127.0,107.0,128.0,15.0,126.0,-80.0,127.0,127.0,127.0,127.0,83.0,-113.0
127.0,127.0,127.0,127.0,127.0,127.0,107.0,128.0,15.0,126.0,-80.0,127.0,127.0,127.0,127.0,83.0,-113.0
126.0,127.0,127.0,127.0,127.0,127.0,106.0,128.0,15.0,126.0,-80.0,127.0,127.0,127.0,127.0,83.0,-113.0
127.0,127.0,127.0,127.0,127.0,127.0,106.0,128.0,15.0,126.0,-80.0,127.0,127.0,127.0,127.0,83.0,-113.0
127.0,127.0,127.0,127.0,127.0,127.0,106.0,128.0,15.0,126.0,-80.0,127.0,127.0,127.0,127.0,83.0,-113.0
127.0,127.0,127.0,127.0,127.0,127.0,113.0,128.0,15.0,126.0,-80.0,127.0,127.0,127.0,127.0,83.0,-113.0
127.0,127.0,127.0,127.0,127.0,127.0,113.0,128.0,15.0,126.0,-80.0,127.0,127.0,127.0,127.0,83.0,-113.0
127.0,127.0,127.0,127.0,127.0,127.0,111.0,128.0,15.0,126.0,-80.0,127.0,127.0,127.0,127.0,83.0,-113.0
127.0,127.0,127.0,127.0,127.0,127.0,106.0,128.0,15.0,126.0,-80.0,127.0,127.0,127.0,127.0,83.0,-113.0
127.0,127.0,127.0,127.0,127.0,127.0,106.0,128.0,15.0,126.0,-80.0,127.0,127.0,127.0,127.0,83.0,-113.0
127.0,127.0,127.0,127.0,127.0,127.0,106.0,128.0,15.0,126.0,-80.0,127.0,127.0,127.0,127.0,83.0,-113.0
127.0,127.0,127.0,127.0,127.0,127.0,106.0,128.0,15.0,126.0,-80.0,127.0,127.0,127.0,127.0,83.0,-113.0
127.0,127.0,127.0,127.0,127.0,127.0,106.0,128.0,15.0,126.0,-80.0,127.0,127.0,127.0,127.0,83.0,-113.0
127.0,127.0,127.0,127.0,127.0,127.0,105.0,128.0,15.0,126.0,-80.0,127.0,127.0,127.0,127.0,83.0,-113.0
127.0,127.0,127.0,127.0,127.0,127.0,113.0,128.0,15.0,126.0,-80.0,127.0,127.0,127.0,127.0,83.0,-113.0
127.0,127.0,127.0,127.0,127.0,127.0,113.0,128.0,15.0,126.0,-80.0,127.0,127.0,127.0,127.0,83.0,-113.0
127.0,127.0,127.0,127.0,127.0,127.0,114.0,128.0,15.0,126.0,-80.0,127.0,127.0,127.0,127.0,83.0,-113.0
126.0,127.0,127.0,127.0,127.0,127.0,107.0,128.0,16.0,126.0,-80.0,127.0,127.0,127.0,127.0,83.0,-113.0
126.0,127.0,127.0,127.0,127.0,127.0,106.0,128.0,16.0,126.0,-80.0,127.0,127.0,127.0,127.0,83.0,-113.0
126.0,127.0,127.0,127.0,127.0,127.0,106.0,128.0,16.0,126.0,-80.0,127.0,127.0,127.0,127.0,83.0,-113.0
126.0,127.0,127.0,127.0,127.0,127.0,106.0,128.0,16.0,126.0,-80.0,127.0,127.0,127.0,127.0,83.0,-113.0
126.0,127.0,127.0,127.0,127.0,127.0,107.0,128.0,16.0,126.0,-80.0,127.0,127.0,127.0,127.0,83.0,-113.0
126.0,127.0,127.0,127.0,127.0,127.0,106.0,128.0,16.0,126.0,-80.0,127.0,127.0,127.0,127.0,83.0,-113.0
127.0,127.0,127.0,127.0,127.0,127.0,107.0,128.0,16.0,126.0,-80.0,127.0,127.0,127.0,127.0,83.0,-113.0
126.0,127.0,127.0,127.0,127.0,127.0,107.0,128.0,16.0,126.0,-80.0,127.0,127.0,127.0,127.0,83.0,-113.0
126.0,127.0,127.0,127.0,127.0,127.0,106.0,128.0,16.0,126.0,-80.0,127.0,127.0,127.0,127.0,83.0,-113.0
126.0,127.0,127.0,127.0,127.0,127.0,108.0,128.0,16.0,126.0,-80.0,127.0,127.0,127.0,127.0,83.0,-113.0
127.0,127.0,127.0,127.0,127.0,127.0,112.0,128.0,16.0,125.0,-80.0,127.0,127.0,127.0,127.0,83.0,-113.0
127.0,127.0,127.0,127.0,127.0,127.0,112.0,128.0,16.0,125.0,-80.0,127.0,127.0,127.0,127.0,83.0,-113.0
127.0,127.0,127.0,127.0,127.0,127.0,112.0,128.0,16.0,125.0,-80.0,127.0,127.0,127.0,127.0,83.0,-113.0
127.0,127.0,127.0,127.0,127.0,127.0,112.0,128.0,16.0,125.0,-80.0,127.0,127.0,127.0,127.0,83.0,-113.0
127.0,127.0,127.0,127.0,127.0,127.0,112.0,128.0,16.0,125.0,-80.0,127.0,127.0,127.0,127.0,83.0,-113.0
127.0,127.0,127.0,127.0,126.0,127.0,112.0,128.0,16.0,125.0,-80.0,127.0,127.0,127.0,127.0,83.0,-113.0
127.0,127.0,127.0,127.0,127.0,127.0,112.0,128.0,16.0,125.0,-80.0,127.0,127.0,127.0,127.0,83.0,-113.0
127.0,127.0,127.0,127.0,127.0,127.0,112.0,128.0,16.0,125.0,-80.0,127.0,127.0,127.0,127.0,83.0,-113.0
127.0,127.0,127.0,127.0,127.0,127.0,112.0,128.0,16.0,125.0,-80.0,127.0,127.0,127.0,127.0,83.0,-113.0
127.0,127.0,127.0,127.0,127.0,127.0,112.0,128.0,16.0,125.0,-80.0,127.0,127.0,127.0,127.0,83.0,-113.0
127.0,127.0,127.0,127.0,127.0,127.0,107.0,128.0,15.0,125.0,-80.0,127.0,127.0,127.0,127.0,83.0,-113.0
127.0,127.0,127.0,127.0,127.0,127.0,111.0,128.0,15.0,125.0,-80.0,127.0,127.0,127.0,127.0,83.0,-113.0
126.0,127.0,127.0,127.0,127.0,127.0,111.0,128.0,15.0,125.0,-80.0,127.0,127.0,127.0,127.0,83.0,-113.0
126.0,127.0,127.0,127.0,127.0,127.0,112.0,128.0,15.0,125.0,-80.0,127.0,127.0,127.0,127.0,83.0,-113.0
127.0,127.0,127.0,127.0,127.0,127.0,112.0,128.0,15.0,125.0,-80.0,127.0,127.0,127.0,127.0,83.0,-113.0
127.0,127.0,127.0,127.0,127.0,127.0,108.0,128.0,15.0,125.0,-80.0,127.0,127.0,127.0,127.0,83.0,-113.0
126.0,127.0,127.0,127.0,127.0,127.0,106.0,129.0,15.0,125.0,-80.0,127.0,127.0,127.0,127.0,83.0,-113.0
127.0,127.0,127.0,127.0,127.0,127.0,106.0,129.0,15.0,125.0,-80.0,127.0,127.0,127.0,127.0,83.0,-113.0
127.0,127.0,127.0,127.0,127.0,127.0,107.0,128.0,15.0,125.0,-80.0,127.0,127.0,127.0,127.0,83.0,-113.0
127.0,127.0,127.0,127.0,127.0,127.0,106.0,128.0,15.0,125.0,-80.0,127.0,127.0,127.0,127.0,83.0,-113.0
127.0,127.0,127.0,127.0,127.0,127.0,113.0,128.0,15.0,126.0,-79.0,127.0,127.0,127.0,127.0,83.0,-113.0
127.0,127.0,127.0,127.0,127.0,127.0,113.0,128.0,15.0,126.0,-79.0,127.0,127.0,127.0,127.0,83.0,-113.0
127.0,127.0,127.0,127.0,127.0,127.0,113.0,128.0,15.0,126.0,-79.0,127.0,127.0,127.0,127.0,83.0,-113.0
127.0,127.0,127.0,127.0,127.0,127.0,111.0,128.0,15.0,126.0,-79.0,127.0,127.0,127.0,127.0,83.0,-113.0
126.0,127.0,127.0,127.0,127.0,127.0,112.0,128.0,15.0,126.0,-79.0,127.0,127.0,127.0,127.0,83.0,-113.0
126.0,127.0,127.0,127.0,127.0,127.0,113.0,128.0,15.0,126.0,-79.0,127.0,127.0,127.0,127.0,83.0,-113.0
127.0,127.0,127.0,127.0,127.0,127.0,113.0,128.0,15.0,126.0,-79.0,127.0,127.0,127.0,127.0,83.0,-113.0
127.0,127.0,127.0,127.0,127.0,127.0,113.0,128.0,15.0,126.0,-79.0,127.0,127.0,127.0,127.0,83.0,-113.0
126.0,127.0,127.0,127.0,127.0,127.0,113.0,128.0,15.0,126.0,-79.0,127.0,127.0,127.0,127.0,83.0,-113.0
127.0,127.0,127.0,127.0,127.0,127.0,113.0,128.0,15.0,126.0,-79.0,127.0,127.0,127.0,127.0,83.0,-113.0
127.0,127.0,127.0,127.0,126.0,127.0,112.0,128.0,14.0,126.0,-79.0,127.0,127.0,127.0,127.0,83.0,-113.0
126.0,127.0,127.0,127.0,126.0,127.0,113.0,128.0,14.0,126.0,-79.0,127.0,127.0,127.0,127.0,83.0,-113.0
127.0,127.0,127.0,127.0,126.0,127.0,113.0,128.0,14.0,126.0,-79.0,127.0,127.0,127.0,127.0,83.0,-113.0
127.0,127.0,127.0,127.0,127.0,127.0,112.0,128.0,14.0,126.0,-79.0,127.0,127.0,127.0,127.0,83.0,-113.0
127.0,127.0,127.0,127.0,127.0,127.0,113.0,128.0,14.0,126.0,-79.0,127.0,127.0,127.0,127.0,83.0,-113.0
126.0,127.0,127.0,127.0,126.0,127.0,113.0,128.0,14.0,126.0,-79.0,127.0,127.0,127.0,127.0,83.0,-113.0
127.0,127.0,127.0,127.0,127.0,127.0,113.0,128.0,14.0,126.0,-79.0,127.0,127.0,127.0,127.0,83.0,-113.0
126.0,127.0,127.0,127.0,127.0,127.0,113.0,128.0,14.0,126.0,-79.0,127.0,127.0,127.0,127.0,83.0,-113.0
127.0,127.0,127.0,127.0,126.0,127.0,113.0,128.0,14.0,126.0,-79.0,127.0,127.0,127.0,127.0,83.0,-113.0
127.0,127.0,127.0,127.0,126.0,127.0,113.0,128.0,14.0,126.0,-79.0,127.0,127.0,127.0,127.0,83.0,-113.0
127.0,127.0,127.0,127.0,127.0,127.0,109.0,128.0,14.0,126.0,-79.0,127.0,127.0,127.0,127.0,83.0,-113.0
127.0,127.0,127.0,127.0,127.0,127.0,112.0,128.0,14.0,126.0,-79.0,127.0,127.0,127.0,127.0,83.0,-113.0
127.0,127.0,127.0,127.0,127.0,127.0,111.0,128.0,14.0,126.0,-79.0,127.0,127.0,127.0,127.0,83.0,-113.0
127.0,127.0,127.0,127.0,127.0,127.0,106.0,128.0,14.0,126.0,-79.0,127.0,127.0,127.0,127.0,83.0,-113.0
127.0,127.0,127.0,127.0,127.0,127.0,106.0,128.0,14.0,126.0,-79.0,127.0,127.0,127.0,127.0,83.0,-113.0
127.0,127.0,127.0,127.0,127.0,127.0,106.0,128.0,14.0,126.0,-79.0,127.0,127.0,127.0,127.0,83.0,-113.0
127.0,127.0,127.0,127.0,127.0,127.0,107.0,128.0,14.0,126.0,-79.0,127.0,127.0,127.0,127.0,83.0,-113.0
127.0,127.0,127.0,127.0,127.0,127.0,106.0,128.0,14.0,126.0,-79.0,127.0,127.0,127.0,127.0,83.0,-113.0
127.0,127.0,127.0,127.0,127.0,127.0,108.0,128.0,14.0,126.0,-79.0,127.0,127.0,127.0,127.0,83.0,-113.0
127.0,127.0,127.0,127.0,127.0,127.0,110.0,128.0,14.0,126.0,-79.0,127.0,127.0,127.0,127.0,83.0,-113.0
127.0,127.0,127.0,127.0,127.0,127.0,110.0,128.0,14.0,126.0,-79.0,127.0,127.0,127.0,127.0,83.0,-113.0
127.0,127.0,127.0,127.0,127.0,127.0,109.0,128.0,14.0,126.0,-79.0,127.0,127.0,127.0,127.0,83.0,-113.0
127.0,127.0,127.0,127.0,127.0,127.0,106.0,128.0,14.0,126.0,-79.0,127.0,127.0,127.0,127.0,83.0,-113.0
127.0,127.0,127.0,127.0,127.0,127.0,106.0,128.0,14.0,126.0,-79.0,127.0,127.0,127.0,127.0,83.0,-113.0
127.0,127.0,127.0,127.0,127.0,127.0,106.0,128.0,14.0,126.0,-79.0,127.0,127.0,127.0,127.0,83.0,-113.0
127.0,127.0,127.0,127.0,127.0,127.0,106.0,128.0,14.0,126.0,-79.0,127.0,127.0,127.0,127.0,83.0,-113.0
127.0,127.0,127.0,127.0,127.0,127.0,106.0,128.0,14.0,126.0,-79.0,127.0,127.0,127.0,127.0,83.0,-113.0
127.0,127.0,127.0,127.0,127.0,127.0,106.0,128.0,14.0,126.0,-79.0,127.0,127.0,127.0,127.0,83.0,-113.0
127.0,127.0,127.0,127.0,127.0,127.0,106.0,128.0,14.0,126.0,-79.0,127.0,127.0,127.0,127.0,83.0,-113.0
127.0,127.0,127.0,127.0,127.0,127.0,106.0,128.0,14.0,126.0,-79.0,127.0,127.0,127.0,127.0,83.0,-113.0
126.0,127.0,127.0,127.0,127.0,127.0,112.0,128.0,15.0,126.0,-79.0,127.0,127.0,127.0,127.0,83.0,-113.0
126.0,127.0,127.0,127.0,127.0,127.0,108.0,128.0,15.0,126.0,-79.0,127.0,127.0,127.0,127.0,83.0,-113.0
127.0,127.0,127.0,127.0,127.0,127.0,106.0,128.0,15.0,126.0,-79.0,127.0,127.0,127.0,127.0,83.0,-113.0
126.0,127.0,127.0,127.0,127.0,127.0,106.0,128.0,15.0,126.0,-79.0,127.0,127.0,127.0,127.0,83.0,-113.0
126.0,127.0,127.0,127.0,127.0,127.0,106.0,128.0,15.0,126.0,-79.0,127.0,127.0,127.0,127.0,83.0,-113.0
126.0,127.0,127.0,127.0,127.0,127.0,106.0,128.0,15.0,126.0,-79.0,127.0,127.0,127.0,127.0,83.0,-113.0
127.0,127.0,127.0,127.0,127.0,127.0,106.0,128.0,15.0,126.0,-79.0,127.0,127.0,127.0,127.0,83.0,-113.0
126.0,127.0,127.0,127.0,127.0,127.0,106.0,128.0,15.0,126.0,-79.0,127.0,127.0,127.0,127.0,83.0,-113.0
126.0,127.0,127.0,127.0,127.0,127.0,107.0,128.0,15.0,126.0,-79.0,127.0,127.0,127.0,127.0,83.0,-113.0
127.0,127.0,127.0,127.0,127.0,127.0,113.0,128.0,15.0,126.0,-79.0,127.0,127.0,127.0,127.0,83.0,-113.0
127.0,127.0,127.0,127.0,127.0,127.0,107.0,128.0,15.0,126.0,-79.0,127.0,127.0,127.0,127.0,83.0,-113.0
127.0,127.0,127.0,127.0,127.0,127.0,106.0,128.0,15.0,126.0,-79.0,127.0,127.0,127.0,127.0,83.0,-113.0
127.0,127.0,127.0,127.0,127.0,127.0,106.0,128.0,15.0,126.0,-79.0,127.0,127.0,127.0,127.0,83.0,-113.0
127.0,127.0,127.0,127.0,127.0,127.0,109.0,128.0,15.0,126.0,-79.0,127.0,127.0,127.0,127.0,83.0,-113.0
127.0,127.0,127.0,127.0,127.0,127.0,110.0,128.0,15.0,126.0,-79.0,127.0,127.0,127.0,127.0,83.0,-113.0
127.0,127.0,127.0,127.0,127.0,127.0,107.0,128.0,15.0,126.0,-79.0,127.0,127.0,127.0,127.0,83.0,-113.0
127.0,127.0,127.0,127.0,127.0,127.0,111.0,128.0,15.0,126.0,-79.0,127.0,127.0,127.0,127.0,83.0,-113.0
127.0,127.0,127.0,127.0,127.0,127.0,113.0,128.0,15.0,126.0,-79.0,127.0,127.0,127.0,127.0,83.0,-113.0
127.0,127.0,127.0,127.0,127.0,127.0,106.0,128.0,15.0,126.0,-79.0,127.0,127.0,127.0,127.0,83.0,-113.0
127.0,127.0,127.0,127.0,127.0,127.0,109.0,128.0,15.0,126.0,-79.0,127.0,127.0,127.0,127.0,83.0,-113.0
127.0,127.0,127.0,127.0,127.0,127.0,112.0,127.0,16.0,126.0,-80.0,127.0,127.0,127.0,127.0,83.0,-113.0
127.0,127.0,127.0,127.0,127.0,127.0,113.0,127.0,16.0,126.0,-80.0,127.0,127.0,127.0,127.0,83.0,-113.0
127.0,127.0,127.0,127.0,127.0,127.0,112.0,128.0,16.0,126.0,-80.0,127.0,127.0,127.0,127.0,83.0,-113.0
127.0,127.0,127.0,127.0,127.0,127.0,110.0,128.0,16.0,126.0,-80.0,127.0,127.0,127.0,127.0,83.0,-113.0
127.0,127.0,127.0,127.0,127.0,127.0,109.0,128.0,16.0,126.0,-80.0,127.0,127.0,127.0,127.0,83.0,-113.0
127.0,127.0,127.0,127.0,127.0,127.0,112.0,128.0,16.0,126.0,-80.0,127.0,127.0,127.0,127.0,83.0,-113.0
127.0,127.0,127.0,127.0,127.0,127.0,113.0,127.0,16.0,126.0,-80.0,127.0,127.0,127.0,127.0,83.0,-113.0
127.0,126.0,127.0,127.0,127.0,127.0,113.0,127.0,16.0,126.0,-80.0,127.0,127.0,127.0,127.0,83.0,-113.0
127.0,126.0,127.0,127.0,127.0,127.0,113.0,127.0,16.0,126.0,-80.0,127.0,127.0,127.0,127.0,83.0,-113.0
127.0,126.0,127.0,127.0,127.0,127.0,113.0,127.0,16.0,126.0,-80.0,127.0,127.0,127.0,127.0,83.0,-113.0
127.0,127.0,127.0,127.0,127.0,127.0,106.0,128.0,16.0,125.0,-80.0,127.0,127.0,127.0,127.0,83.0,-113.0
126.0,127.0,127.0,127.0,127.0,127.0,110.0,128.0,16.0,125.0,-80.0,127.0,127.0,127.0,127.0,83.0,-113.0
127.0,127.0,127.0,127.0,127.0,127.0,112.0,128.0,16.0,125.0,-80.0,127.0,127.0,127.0,127.0,83.0,-113.0
126.0,127.0,127.0,127.0,127.0,127.0,113.0,128.0,16.0,125.0,-80.0,127.0,127.0,127.0,127.0,83.0,-113.0
126.0,127.0,127.0,127.0,127.0,127.0,113.0,128.0,16.0,125.0,-80.0,127.0,127.0,127.0,127.0,83.0,-113.0
126.0,127.0,127.0,127.0,127.0,127.0,113.0,128.0,16.0,125.0,-80.0,127.0,127.0,127.0,127.0,83.0,-113.0
127.0,127.0,127.0,127.0,127.0,127.0,106.0,128.0,16.0,125.0,-80.0,127.0,127.0,127.0,127.0,83.0,-113.0
126.0,127.0,127.0,127.0,127.0,127.0,106.0,128.0,16.0,125.0,-80.0,127.0,127.0,127.0,127.0,83.0,-113.0
127.0,127.0,127.0,127.0,127.0,127.0,106.0,128.0,16.0,125.0,-80.0,127.0,127.0,127.0,127.0,83.0,-113.0
127.0,127.0,127.0,127.0,127.0,127.0,106.0,128.0,16.0,125.0,-80.0,127.0,127.0,127.0,127.0,83.0,-113.0
127.0,127.0,127.0,127.0,127.0,127.0,112.0,128.0,16.0,125.0,-79.0,127.0,127.0,127.0,127.0,83.0,-113.0
127.0,127.0,127.0,127.0,127.0,127.0,112.0,128.0,16.0,125.0,-79.0,127.0,127.0,127.0,127.0,83.0,-113.0
127.0,127.0,127.0,127.0,127.0,127.0,112.0,128.0,16.0,125.0,-79.0,127.0,127.0,127.0,127.0,83.0,-113.0
127.0,127.0,127.0,127.0,127.0,127.0,112.0,128.0,16.0,125.0,-79.0,127.0,127.0,127.0,127.0,83.0,-113.0
127.0,127.0,127.0,127.0,127.0,127.0,112.0,128.0,16.0,125.0,-79.0,127.0,127.0,127.0,127.0,83.0,-113.0
127.0,126.0,127.0,127.0,127.0,127.0,112.0,128.0,16.0,125.0,-79.0,127.0,127.0,127.0,127.0,83.0,-113.0
127.0,127.0,127.0,127.0,127.0,127.0,112.0,128.0,16.0,125.0,-79.0,127.0,127.0,127.0,127.0,83.0,-113.0
127.0,126.0,127.0,127.0,127.0,127.0,112.0,128.0,16.0,125.0,-79.0,127.0,127.0,127.0,127.0,83.0,-113.0
127.0,126.0,127.0,127.0,127.0,127.0,112.0,128.0,16.0,125.0,-79.0,127.0,127.0,127.0,127.0,83.0,-113.0
127.0,127.0,127.0,127.0,127.0,127.0,112.0,128.0,16.0,125.0,-79.0,127.0,127.0,127.0,127.0,83.0,-113.0
127.0,127.0,127.0,127.0,127.0,127.0,106.0,128.0,15.0,126.0,-79.0,127.0,127.0,127.0,127.0,83.0,-113.0
127.0,127.0,127.0,127.0,127.0,127.0,106.0,128.0,15.0,126.0,-79.0,127.0,127.0,127.0,127.0,83.0,-113.0
127.0,127.0,127.0,127.0,127.0,127.0,106.0,128.0,15.0,126.0,-79.0,127.0,127.0,127.0,127.0,83.0,-113.0
127.0,127.0,127.0,127.0,127.0,127.0,106.0,128.0,15.0,126.0,-79.0,127.0,127.0,127.0,127.0,83.0,-113.0
127.0,127.0,127.0,127.0,127.0,127.0,106.0,128.0,15.0,126.0,-79.0,127.0,127.0,127.0,127.0,83.0,-113.0
127.0,127.0,127.0,127.0,127.0,127.0,106.0,128.0,15.0,126.0,-79.0,127.0,127.0,127.0,127.0,83.0,-113.0
127.0,127.0,127.0,127.0,127.0,127.0,106.0,128.0,15.0,126.0,-79.0,127.0,127.0,127.0,127.0,83.0,-113.0
127.0,127.0,127.0,127.0,127.0,127.0,106.0,128.0,15.0,126.0,-79.0,127.0,127.0,127.0,127.0,83.0,-113.0
127.0,127.0,127.0,127.0,127.0,127.0,106.0,128.0,15.0,126.0,-79.0,127.0,127.0,127.0,127.0,83.0,-113.0
127.0,127.0,127.0,127.0,127.0,127.0,106.0,128.0,15.0,126.0,-79.0,127.0,127.0,127.0,127.0,83.0,-113.0
126.0,127.0,127.0,127.0,127.0,127.0,106.0,128.0,15.0,126.0,-79.0,127.0,127.0,127.0,127.0,83.0,-113.0
126.0,127.0,127.0,127.0,127.0,127.0,106.0,128.0,15.0,126.0,-79.0,127.0,127.0,127.0,127.0,83.0,-113.0
127.0,127.0,127.0,127.0,127.0,127.0,106.0,128.0,15.0,126.0,-79.0,127.0,127.0,127.0,127.0,83.0,-113.0
127.0,127.0,127.0,127.0,126.0,127.0,110.0,128.0,15.0,126.0,-79.0,127.0,127.0,127.0,127.0,83.0,-113.0
126.0,127.0,127.0,127.0,127.0,127.0,108.0,128.0,15.0,126.0,-79.0,127.0,127.0,127.0,127.0,83.0,-113.0
126.0,127.0,127.0,127.0,127.0,127.0,109.0,128.0,15.0,126.0,-79.0,127.0,127.0,127.0,127.0,83.0,-113.0
126.0,127.0,127.0,127.0,127.0,127.0,107.0,128.0,15.0,126.0,-79.0,127.0,127.0,127.0,127.0,83.0,-113.0
126.0,127.0,127.0,127.0,127.0,127.0,106.0,128.0,15.0,126.0,-79.0,127.0,127.0,127.0,127.0,83.0,-113.0
126.0,127.0,127.0,127.0,127.0,127.0,106.0,128.0,15.0,126.0,-79.0,127.0,127.0,127.0,127.0,83.0,-113.0
126.0,127.0,127.0,127.0,127.0,127.0,106.0,128.0,15.0,126.0,-79.0,127.0,127.0,127.0,127.0,83.0,-113.0
127.0,127.0,127.0,127.0,127.0,127.0,108.0,128.0,14.0,126.0,-79.0,127.0,127.0,127.0,127.0,83.0,-113.0
127.0,127.0,127.0,127.0,127.0,127.0,112.0,128.0,14.0,126.0,-79.0,127.0,127.0,127.0,127.0,83.0,-113.0
127.0,127.0,127.0,127.0,127.0,127.0,113.0,128.0,14.0,126.0,-79.0,127.0,127.0,127.0,127.0,83.0,-113.0
127.0,127.0,127.0,127.0,127.0,127.0,113.0,128.0,14.0,126.0,-79.0,127.0,127.0,127.0,127.0,83.0,-113.0
127.0,127.0,127.0,127.0,127.0,127.0,113.0,128.0,14.0,126.0,-79.0,127.0,127.0,127.0,127.0,83.0,-113.0
126.0,127.0,127.0,127.0,127.0,127.0,110.0,128.0,14.0,126.0,-79.0,127.0,127.0,127.0,127.0,83.0,-113.0
127.0,127.0,127.0,127.0,127.0,127.0,107.0,128.0,14.0,126.0,-79.0,127.0,127.0,127.0,127.0,83.0,-113.0
127.0,127.0,127.0,127.0,127.0,127.0,106.0,128.0,14.0,126.0,-79.0,127.0,127.0,127.0,127.0,83.0,-113.0
127.0,127.0,127.0,127.0,127.0,127.0,107.0,128.0,14.0,126.0,-79.0,127.0,127.0,127.0,127.0,83.0,-113.0
127.0,127.0,127.0,127.0,127.0,127.0,109.0,128.0,14.0,126.0,-79.0,127.0,127.0,127.0,127.0,83.0,-113.0
127.0,127.0,127.0,127.0,127.0,127.0,106.0,128.0,14.0,126.0,-79.0,127.0,127.0,127.0,127.0,83.0,-113.0
127.0,127.0,127.0,127.0,127.0,127.0,113.0,128.0,14.0,126.0,-79.0,127.0,127.0,127.0,127.0,83.0,-113.0
127.0,127.0,127.0,127.0,127.0,127.0,113.0,128.0,14.0,126.0,-79.0,127.0,127.0,127.0,127.0,83.0,-113.0
127.0,127.0,127.0,127.0,127.0,127.0,113.0,128.0,14.0,126.0,-79.0,127.0,127.0,127.0,127.0,83.0,-113.0
126.0,127.0,127.0,127.0,127.0,127.0,112.0,128.0,14.0,126.0,-79.0,127.0,127.0,127.0,127.0,83.0,-113.0
126.0,127.0,127.0,127.0,127.0,127.0,108.0,128.0,14.0,126.0,-79.0,127.0,127.0,127.0,127.0,83.0,-113.0
127.0,127.0,127.0,127.0,127.0,127.0,107.0,128.0,14.0,126.0,-79.0,127.0,127.0,127.0,127.0,83.0,-113.0
126.0,127.0,127.0,127.0,127.0,127.0,106.0,128.0,14.0,126.0,-79.0,127.0,127.0,127.0,127.0,83.0,-113.0
126.0,127.0,127.0,127.0,127.0,127.0,108.0,128.0,14.0,126.0,-79.0,127.0,127.0,127.0,127.0,83.0,-113.0
126.0,127.0,127.0,127.0,127.0,127.0,106.0,128.0,14.0,126.0,-79.0,127.0,127.0,127.0,127.0,83.0,-113.0
127.0,127.0,127.0,127.0,127.0,127.0,106.0,128.0,15.0,126.0,-79.0,127.0,127.0,127.0,127.0,83.0,-113.0
127.0,127.0,127.0,127.0,127.0,127.0,107.0,128.0,15.0,126.0,-79.0,127.0,127.0,127.0,127.0,83.0,-113.0
126.0,127.0,127.0,127.0,127.0,127.0,106.0,128.0,15.0,126.0,-79.0,127.0,127.0,127.0,127.0,83.0,-113.0
126.0,127.0,127.0,127.0,127.0,127.0,107.0,128.0,15.0,126.0,-79.0,127.0,127.0,127.0,127.0,83.0,-113.0
126.0,127.0,127.0,127.0,127.0,127.0,106.0,128.0,15.0,126.0,-79.0,127.0,127.0,127.0,127.0,83.0,-113.0
126.0,127.0,127.0,127.0,127.0,127.0,106.0,128.0,15.0,126.0,-79.0,127.0,127.0,127.0,127.0,83.0,-113.0
126.0,127.0,127.0,127.0,127.0,127.0,106.0,128.0,15.0,126.0,-79.0,127.0,127.0,127.0,127.0,83.0,-113.0
126.0,127.0,127.0,127.0,127.0,127.0,106.0,128.0,15.0,126.0,-79.0,127.0,127.0,127.0,127.0,83.0,-113.0
126.0,127.0,127.0,127.0,127.0,127.0,106.0,128.0,15.0,126.0,-79.0,127.0,127.0,127.0,127.0,83.0,-113.0
126.0,127.0,127.0,127.0,127.0,127.0,106.0,128.0,15.0,126.0,-79.0,127.0,127.0,127.0,127.0,83.0,-113.0
127.0,127.0,127.0,127.0,127.0,127.0,109.0,128.0,15.0,126.0,-79.0,127.0,127.0,127.0,127.0,83.0,-113.0
127.0,127.0,127.0,127.0,127.0,127.0,107.0,128.0,15.0,126.0,-79.0,127.0,127.0,127.0,127.0,83.0,-113.0
127.0,127.0,127.0,127.0,127.0,127.0,108.0,128.0,15.0,126.0,-79.0,127.0,127.0,127.0,127.0,83.0,-113.0
127.0,127.0,127.0,127.0,127.0,127.0,112.0,128.0,15.0,126.0,-79.0,127.0,127.0,127.0,127.0,83.0,-113.0
127.0,127.0,127.0,127.0,127.0,127.0,109.0,128.0,15.0,126.0,-79.0,127.0,127.0,127.0,127.0,83.0,-113.0
126.0,127.0,127.0,127.0,127.0,127.0,110.0,128.0,15.0,126.0,-79.0,127.0,127.0,127.0,127.0,83.0,-113.0
126.0,127.0,127.0,127.0,127.0,127.0,107.0,128.0,15.0,126.0,-79.0,127.0,127.0,127.0,127.0,83.0,-113.0
126.0,127.0,127.0,127.0,127.0,127.0,106.0,128.0,15.0,126.0,-79.0,127.0,127.0,127.0,127.0,83.0,-113.0
126.0,127.0,127.0,127.0,127.0,127.0,106.0,128.0,15.0,126.0,-79.0,127.0,127.0,127.0,127.0,83.0,-113.0
127.0,126.0,127.0,127.0,127.0,127.0,107.0,128.0,15.0,126.0,-79.0,127.0,127.0,127.0,127.0,83.0,-113.0
127.0,127.0,127.0,127.0,127.0,127.0,107.0,128.0,16.0,126.0,-79.0,127.0,127.0,127.0,127.0,83.0,-113.0
127.0,127.0,127.0,127.0,127.0,127.0,107.0,128.0,16.0,126.0,-79.0,127.0,127.0,127.0,127.0,83.0,-113.0
127.0,127.0,127.0,127.0,127.0,127.0,107.0,128.0,16.0,126.0,-79.0,127.0,127.0,127.0,127.0,83.0,-113.0
127.0,127.0,127.0,127.0,127.0,127.0,106.0,128.0,16.0,126.0,-79.0,127.0,127.0,127.0,127.0,83.0,-113.0
127.0,127.0,127.0,127.0,127.0,127.0,106.0,128.0,16.0,126.0,-79.0,127.0,127.0,127.0,127.0,83.0,-113.0
127.0,127.0,127.0,127.0,127.0,127.0,106.0,128.0,16.0,126.0,-79.0,127.0,127.0,127.0,127.0,83.0,-113.0
127.0,127.0,127.0,127.0,127.0,127.0,106.0,128.0,16.0,126.0,-79.0,127.0,127.0,127.0,127.0,83.0,-113.0
127.0,127.0,127.0,127.0,127.0,127.0,106.0,128.0,16.0,126.0,-79.0,127.0,127.0,127.0,127.0,83.0,-113.0
127.0,127.0,127.0,127.0,127.0,127.0,107.0,128.0,16.0,126.0,-79.0,127.0,127.0,127.0,127.0,83.0,-113.0
127.0,127.0,127.0,127.0,127.0,127.0,107.0,128.0,16.0,126.0,-79.0,127.0,127.0,127.0,127.0,83.0,-113.0
126.0,127.0,127.0,127.0,127.0,127.0,106.0,128.0,16.0,126.0,-80.0,127.0,127.0,127.0,127.0,83.0,-113.0
126.0,127.0,127.0,127.0,127.0,127.0,105.0,128.0,16.0,126.0,-80.0,127.0,127.0,127.0,127.0,83.0,-113.0
126.0,127.0,127.0,127.0,127.0,127.0,107.0,128.0,16.0,126.0,-80.0,127.0,127.0,127.0,127.0,83.0,-113.0
126.0,127.0,127.0,127.0,127.0,127.0,106.0,128.0,16.0,126.0,-80.0,127.0,127.0,127.0,127.0,83.0,-113.0
126.0,127.0,127.0,127.0,127.0,127.0,110.0,128.0,16.0,126.0,-80.0,127.0,127.0,127.0,127.0,83.0,-113.0
126.0,127.0,127.0,127.0,127.0,127.0,113.0,128.0,16.0,126.0,-80.0,127.0,127.0,127.0,127.0,83.0,-113.0
126.0,127.0,127.0,127.0,127.0,127.0,112.0,128.0,16.0,126.0,-80.0,127.0,127.0,127.0,127.0,83.0,-113.0
126.0,127.0,127.0,127.0,127.0,127.0,113.0,128.0,16.0,126.0,-80.0,127.0,127.0,127.0,127.0,83.0,-113.0
127.0,127.0,127.0,127.0,127.0,127.0,109.0,128.0,16.0,126.0,-80.0,127.0,127.0,127.0,127.0,83.0,-113.0
127.0,127.0,127.0,127.0,127.0,127.0,107.0,128.0,16.0,126.0,-80.0,127.0,127.0,127.0,127.0,83.0,-113.0
126.0,127.0,127.0,127.0,127.0,127.0,106.0,128.0,16.0,126.0,-80.0,127.0,127.0,127.0,127.0,83.0,-113.0
126.0,127.0,127.0,127.0,127.0,127.0,106.0,128.0,16.0,126.0,-80.0,127.0,127.0,127.0,127.0,83.0,-113.0
126.0,127.0,127.0,127.0,127.0,127.0,106.0,128.0,16.0,126.0,-80.0,127.0,127.0,127.0,127.0,83.0,-113.0
126.0,127.0,127.0,127.0,127.0,127.0,107.0,128.0,16.0,126.0,-80.0,127.0,127.0,127.0,127.0,83.0,-113.0
126.0,127.0,127.0,127.0,127.0,127.0,111.0,128.0,16.0,126.0,-80.0,127.0,127.0,127.0,127.0,83.0,-113.0
126.0,127.0,127.0,127.0,127.0,127.0,113.0,128.0,16.0,126.0,-80.0,127.0,127.0,127.0,127.0,83.0,-113.0
126.0,127.0,127.0,127.0,127.0,127.0,112.0,128.0,16.0,126.0,-80.0,127.0,127.0,127.0,127.0,83.0,-113.0
126.0,127.0,127.0,127.0,127.0,127.0,110.0,128.0,16.0,126.0,-80.0,127.0,127.0,127.0,127.0,83.0,-113.0
126.0,127.0,127.0,127.0,127.0,127.0,106.0,128.0,16.0,126.0,-80.0,127.0,127.0,127.0,127.0,83.0,-113.0
127.0,127.0,127.0,127.0,127.0,127.0,106.0,128.0,16.0,126.0,-80.0,127.0,127.0,127.0,127.0,83.0,-113.0
127.0,127.0,127.0,127.0,127.0,127.0,106.0,128.0,16.0,126.0,-80.0,127.0,127.0,127.0,127.0,83.0,-113.0
127.0,127.0,127.0,127.0,127.0,127.0,106.0,128.0,16.0,126.0,-80.0,127.0,127.0,127.0,127.0,83.0,-113.0
127.0,127.0,127.0,127.0,127.0,127.0,106.0,128.0,16.0,126.0,-80.0,127.0,127.0,127.0,127.0,83.0,-113.0
127.0,127.0,127.0,127.0,127.0,127.0,106.0,128.0,16.0,126.0,-80.0,127.0,127.0,127.0,127.0,83.0,-113.0
127.0,127.0,127.0,127.0,127.0,127.0,106.0,128.0,16.0,126.0,-80.0,127.0,127.0,127.0,127.0,83.0,-113.0
127.0,127.0,127.0,127.0,127.0,127.0,106.0,128.0,16.0,126.0,-80.0,127.0,127.0,127.0,127.0,83.0,-113.0
127.0,127.0,127.0,127.0,127.0,127.0,108.0,128.0,16.0,126.0,-80.0,127.0,127.0,127.0,127.0,83.0,-113.0
127.0,127.0,127.0,127.0,127.0,127.0,107.0,128.0,16.0,126.0,-80.0,127.0,127.0,127.0,127.0,83.0,-113.0
127.0,127.0,127.0,127.0,127.0,127.0,107.0,128.0,16.0,126.0,-80.0,127.0,127.0,127.0,127.0,83.0,-113.0
127.0,127.0,127.0,127.0,127.0,127.0,106.0,128.0,16.0,126.0,-80.0,127.0,127.0,127.0,127.0,83.0,-113.0
126.0,127.0,127.0,127.0,127.0,127.0,111.0,128.0,15.0,126.0,-79.0,127.0,127.0,127.0,127.0,83.0,-113.0
126.0,127.0,127.0,127.0,127.0,127.0,113.0,128.0,15.0,126.0,-79.0,127.0,127.0,127.0,127.0,83.0,-113.0
126.0,127.0,127.0,127.0,127.0,127.0,114.0,128.0,15.0,126.0,-79.0,127.0,127.0,127.0,127.0,83.0,-113.0
126.0,127.0,127.0,127.0,127.0,127.0,113.0,128.0,15.0,126.0,-79.0,127.0,127.0,127.0,127.0,83.0,-113.0
126.0,127.0,127.0,127.0,126.0,127.0,113.0,128.0,15.0,126.0,-79.0,127.0,127.0,127.0,127.0,83.0,-113.0
126.0,127.0,127.0,126.0,127.0,127.0,113.0,128.0,15.0,126.0,-79.0,127.0,127.0,127.0,127.0,83.0,-113.0
126.0,127.0,127.0,127.0,127.0,127.0,110.0,128.0,15.0,126.0,-79.0,127.0,127.0,127.0,127.0,83.0,-113.0
126.0,127.0,127.0,127.0,127.0,127.0,109.0,128.0,15.0,126.0,-79.0,127.0,127.0,127.0,127.0,83.0,-113.0
126.0,127.0,127.0,127.0,127.0,127.0,111.0,128.0,15.0,126.0,-79.0,127.0,127.0,127.0,127.0,83.0,-113.0
126.0,127.0,127.0,127.0,127.0,127.0,111.0,128.0,15.0,126.0,-79.0,127.0,127.0,127.0,127.0,83.0,-113.0
126.0,127.0,127.0,127.0,127.0,127.0,107.0,128.0,15.0,126.0,-79.0,127.0,127.0,127.0,127.0,83.0,-113.0
126.0,127.0,127.0,127.0,127.0,127.0,109.0,128.0,15.0,126.0,-79.0,127.0,127.0,127.0,127.0,83.0,-113.0
126.0,127.0,127.0,127.0,127.0,127.0,113.0,128.0,15.0,126.0,-79.0,127.0,127.0,127.0,127.0,83.0,-113.0
127.0,127.0,127.0,127.0,127.0,127.0,112.0,128.0,15.0,126.0,-79.0,127.0,127.0,127.0,127.0,83.0,-113.0
127.0,127.0,127.0,127.0,127.0,127.0,112.0,128.0,15.0,126.0,-79.0,127.0,127.0,127.0,127.0,83.0,-113.0
126.0,127.0,127.0,127.0,127.0,127.0,108.0,128.0,15.0,126.0,-79.0,127.0,127.0,127.0,127.0,83.0,-113.0
126.0,127.0,127.0,127.0,127.0,127.0,106.0,128.0,15.0,126.0,-79.0,127.0,127.0,127.0,127.0,83.0,-113.0
126.0,127.0,127.0,127.0,127.0,127.0,106.0,128.0,15.0,126.0,-79.0,127.0,127.0,127.0,127.0,83.0,-113.0
126.0,127.0,127.0,127.0,127.0,127.0,108.0,128.0,15.0,126.0,-79.0,127.0,127.0,127.0,127.0,83.0,-113.0
126.0,127.0,127.0,127.0,127.0,127.0,108.0,128.0,15.0,126.0,-79.0,127.0,127.0,127.0,127.0,83.0,-113.0
127.0,127.0,127.0,127.0,127.0,127.0,106.0,128.0,14.0,126.0,-79.0,127.0,127.0,127.0,127.0,83.0,-113.0
127.0,127.0,127.0,127.0,127.0,127.0,107.0,128.0,14.0,126.0,-79.0,127.0,127.0,127.0,127.0,83.0,-113.0
127.0,127.0,127.0,127.0,127.0,127.0,112.0,128.0,14.0,126.0,-79.0,127.0,127.0,127.0,127.0,83.0,-113.0
127.0,127.0,127.0,127.0,127.0,127.0,110.0,128.0,14.0,126.0,-79.0,127.0,127.0,127.0,127.0,83.0,-113.0
127.0,127.0,127.0,127.0,127.0,127.0,108.0,128.0,14.0,126.0,-79.0,127.0,127.0,127.0,127.0,83.0,-113.0
127.0,127.0,127.0,127.0,127.0,127.0,106.0,128.0,14.0,126.0,-79.0,127.0,127.0,127.0,127.0,83.0,-113.0
127.0,127.0,127.0,127.0,127.0,127.0,106.0,128.0,14.0,126.0,-79.0,127.0,127.0,127.0,127.0,83.0,-113.0
127.0,127.0,127.0,127.0,127.0,127.0,105.0,128.0,14.0,126.0,-79.0,127.0,127.0,127.0,127.0,83.0,-113.0
127.0,127.0,127.0,127.0,127.0,127.0,106.0,128.0,14.0,126.0,-79.0,127.0,127.0,127.0,127.0,83.0,-113.0
127.0,127.0,127.0,127.0,127.0,127.0,106.0,128.0,14.0,126.0,-79.0,127.0,127.0,127.0,127.0,83.0,-113.0
127.0,127.0,127.0,127.0,127.0,127.0,112.0,128.0,15.0,126.0,-79.0,127.0,127.0,127.0,127.0,83.0,-113.0
127.0,126.0,127.0,127.0,126.0,127.0,113.0,128.0,15.0,126.0,-79.0,127.0,127.0,127.0,127.0,83.0,-113.0
127.0,126.0,127.0,127.0,126.0,127.0,112.0,128.0,15.0,126.0,-79.0,127.0,127.0,127.0,127.0,83.0,-113.0
127.0,126.0,127.0,127.0,126.0,127.0,113.0,128.0,15.0,126.0,-79.0,127.0,127.0,127.0,127.0,83.0,-113.0
127.0,126.0,127.0,127.0,127.0,127.0,113.0,128.0,15.0,126.0,-79.0,127.0,127.0,127.0,127.0,83.0,-113.0
127.0,127.0,127.0,127.0,127.0,127.0,113.0,128.0,15.0,126.0,-79.0,127.0,127.0,127.0,127.0,83.0,-113.0
127.0,127.0,127.0,127.0,127.0,127.0,112.0,128.0,15.0,126.0,-79.0,127.0,127.0,127.0,127.0,83.0,-113.0
127.0,127.0,127.0,127.0,127.0,127.0,107.0,128.0,15.0,126.0,-79.0,127.0,127.0,127.0,127.0,83.0,-113.0
127.0,127.0,127.0,127.0,127.0,127.0,106.0,128.0,15.0,126.0,-79.0,127.0,127.0,127.0,127.0,83.0,-113.0
127.0,127.0,127.0,127.0,127.0,127.0,108.0,128.0,15.0,126.0,-79.0,127.0,127.0,127.0,127.0,83.0,-113.0
127.0,127.0,127.0,127.0,127.0,127.0,106.0,128.0,15.0,126.0,-79.0,127.0,127.0,127.0,127.0,83.0,-113.0
127.0,127.0,127.0,127.0,127.0,127.0,107.0,128.0,15.0,126.0,-79.0,127.0,127.0,127.0,127.0,83.0,-113.0
127.0,127.0,127.0,127.0,127.0,127.0,107.0,128.0,15.0,126.0,-79.0,127.0,127.0,127.0,127.0,83.0,-113.0
127.0,127.0,127.0,127.0,127.0,127.0,108.0,128.0,15.0,126.0,-79.0,127.0,127.0,127.0,127.0,83.0,-113.0
127.0,127.0,127.0,127.0,127.0,127.0,106.0,128.0,15.0,126.0,-79.0,127.0,127.0,127.0,127.0,83.0,-113.0
127.0,127.0,127.0,127.0,127.0,127.0,105.0,128.0,15.0,126.0,-79.0,127.0,127.0,127.0,127.0,83.0,-113.0
127.0,127.0,127.0,127.0,127.0,127.0,109.0,128.0,15.0,126.0,-79.0,127.0,127.0,127.0,127.0,83.0,-113.0
127.0,127.0,127.0,127.0,127.0,127.0,112.0,128.0,15.0,126.0,-79.0,127.0,127.0,127.0,127.0,83.0,-113.0
127.0,127.0,127.0,127.0,127.0,127.0,113.0,128.0,15.0,126.0,-79.0,127.0,127.0,127.0,127.0,83.0,-113.0
127.0,127.0,127.0,127.0,127.0,127.0,113.0,128.0,15.0,126.0,-79.0,127.0,127.0,127.0,127.0,83.0,-113.0
127.0,127.0,127.0,127.0,127.0,127.0,112.0,128.0,16.0,126.0,-80.0,127.0,127.0,127.0,127.0,83.0,-113.0
127.0,127.0,127.0,127.0,127.0,127.0,112.0,128.0,16.0,126.0,-80.0,127.0,127.0,127.0,127.0,83.0,-113.0
127.0,127.0,127.0,127.0,127.0,127.0,113.0,128.0,16.0,126.0,-80.0,127.0,127.0,127.0,127.0,83.0,-113.0
127.0,127.0,127.0,127.0,127.0,127.0,112.0,128.0,16.0,126.0,-80.0,127.0,127.0,127.0,127.0,83.0,-113.0
127.0,127.0,127.0,127.0,127.0,127.0,111.0,128.0,16.0,126.0,-80.0,127.0,127.0,127.0,127.0,83.0,-113.0
127.0,127.0,127.0,127.0,127.0,127.0,112.0,128.0,16.0,126.0,-80.0,127.0,127.0,127.0,127.0,83.0,-113.0
127.0,127.0,127.0,127.0,127.0,127.0,112.0,128.0,16.0,126.0,-80.0,127.0,127.0,127.0,127.0,83.0,-113.0
127.0,127.0,127.0,127.0,127.0,127.0,111.0,128.0,16.0,126.0,-80.0,127.0,127.0,127.0,127.0,83.0,-113.0
127.0,127.0,127.0,127.0,127.0,127.0,111.0,128.0,16.0,126.0,-80.0,127.0,127.0,127.0,127.0,83.0,-113.0
127.0,127.0,127.0,127.0,127.0,127.0,112.0,128.0,16.0,126.0,-80.0,127.0,127.0,127.0,127.0,83.0,-113.0
127.0,127.0,127.0,127.0,127.0,127.0,106.0,128.0,17.0,126.0,-80.0,127.0,127.0,127.0,127.0,83.0,-113.0
126.0,127.0,127.0,127.0,127.0,127.0,107.0,128.0,17.0,126.0,-80.0,127.0,127.0,127.0,127.0,83.0,-113.0
127.0,127.0,127.0,127.0,127.0,127.0,106.0,128.0,17.0,126.0,-80.0,127.0,127.0,127.0,127.0,83.0,-113.0
127.0,127.0,127.0,127.0,127.0,127.0,106.0,128.0,17.0,126.0,-80.0,127.0,127.0,127.0,127.0,83.0,-113.0
127.0,127.0,127.0,127.0,127.0,127.0,109.0,128.0,17.0,126.0,-80.0,127.0,127.0,127.0,127.0,83.0,-113.0
127.0,127.0,127.0,127.0,127.0,127.0,111.0,128.0,17.0,126.0,-80.0,127.0,127.0,127.0,127.0,83.0,-113.0
127.0,127.0,127.0,127.0,127.0,127.0,112.0,128.0,17.0,126.0,-80.0,127.0,127.0,127.0,127.0,83.0,-113.0
127.0,127.0,127.0,127.0,127.0,127.0,112.0,128.0,17.0,126.0,-80.0,127.0,127.0,127.0,127.0,83.0,-113.0
127.0,127.0,127.0,127.0,127.0,127.0,108.0,128.0,17.0,126.0,-80.0,127.0,127.0,127.0,127.0,83.0,-113.0
127.0,127.0,127.0,127.0,127.0,127.0,106.0,128.0,17.0,126.0,-80.0,127.0,127.0,127.0,127.0,83.0,-113.0
127.0,127.0,127.0,127.0,127.0,127.0,106.0,128.0,17.0,126.0,-80.0,127.0,127.0,127.0,127.0,83.0,-113.0
127.0,127.0,127.0,127.0,127.0,127.0,106.0,128.0,17.0,126.0,-80.0,127.0,127.0,127.0,127.0,83.0,-113.0
127.0,127.0,127.0,127.0,127.0,127.0,106.0,128.0,17.0,126.0,-80.0,127.0,127.0,127.0,127.0,83.0,-113.0
127.0,127.0,127.0,127.0,127.0,127.0,106.0,128.0,17.0,126.0,-80.0,127.0,127.0,127.0,127.0,83.0,-113.0
127.0,127.0,127.0,127.0,127.0,127.0,106.0,128.0,17.0,126.0,-80.0,127.0,127.0,127.0,127.0,83.0,-113.0
126.0,127.0,127.0,127.0,127.0,127.0,106.0,128.0,17.0,126.0,-80.0,127.0,127.0,127.0,127.0,83.0,-113.0
127.0,127.0,127.0,127.0,127.0,127.0,107.0,128.0,17.0,126.0,-80.0,127.0,127.0,127.0,127.0,83.0,-113.0
127.0,127.0,127.0,127.0,127.0,127.0,107.0,128.0,17.0,126.0,-80.0,127.0,127.0,127.0,127.0,83.0,-113.0
127.0,127.0,127.0,127.0,127.0,127.0,106.0,128.0,17.0,126.0,-80.0,127.0,127.0,127.0,127.0,83.0,-113.0
127.0,127.0,127.0,127.0,127.0,127.0,106.0,128.0,17.0,126.0,-80.0,127.0,127.0,127.0,127.0,83.0,-113.0
126.0,127.0,127.0,127.0,127.0,127.0,107.0,128.0,17.0,126.0,-80.0,127.0,127.0,127.0,127.0,83.0,-113.0
126.0,127.0,127.0,127.0,127.0,127.0,106.0,128.0,17.0,126.0,-80.0,127.0,127.0,127.0,127.0,83.0,-113.0
126.0,127.0,127.0,127.0,127.0,127.0,107.0,128.0,17.0,126.0,-80.0,127.0,127.0,127.0,127.0,83.0,-113.0
126.0,127.0,127.0,127.0,127.0,127.0,109.0,128.0,17.0,126.0,-80.0,127.0,127.0,127.0,127.0,83.0,-113.0
126.0,127.0,127.0,127.0,127.0,127.0,107.0,128.0,17.0,126.0,-80.0,127.0,127.0,127.0,127.0,83.0,-113.0
127.0,127.0,127.0,127.0,127.0,127.0,108.0,128.0,17.0,126.0,-80.0,127.0,127.0,127.0,127.0,83.0,-113.0
126.0,127.0,127.0,126.0,127.0,127.0,112.0,128.0,17.0,126.0,-80.0,127.0,127.0,127.0,127.0,83.0,-113.0
126.0,127.0,127.0,126.0,126.0,127.0,110.0,128.0,17.0,126.0,-80.0,127.0,127.0,127.0,127.0,83.0,-113.0
126.0,127.0,127.0,126.0,126.0,127.0,108.0,128.0,17.0,126.0,-80.0,127.0,127.0,127.0,127.0,83.0,-113.0
126.0,127.0,127.0,126.0,127.0,127.0,108.0,128.0,17.0,126.0,-80.0,127.0,127.0,127.0,127.0,83.0,-113.0
127.0,127.0,127.0,127.0,127.0,127.0,106.0,128.0,16.0,126.0,-79.0,127.0,127.0,127.0,127.0,83.0,-113.0
127.0,127.0,127.0,127.0,127.0,127.0,106.0,128.0,16.0,126.0,-79.0,127.0,127.0,127.0,127.0,83.0,-113.0
127.0,127.0,127.0,127.0,127.0,127.0,106.0,128.0,16.0,126.0,-79.0,127.0,127.0,127.0,127.0,83.0,-113.0
127.0,127.0,127.0,127.0,127.0,127.0,107.0,128.0,16.0,126.0,-79.0,127.0,127.0,127.0,127.0,83.0,-113.0
127.0,127.0,127.0,127.0,127.0,127.0,106.0,128.0,16.0,126.0,-79.0,127.0,127.0,127.0,127.0,83.0,-113.0
127.0,127.0,127.0,127.0,127.0,127.0,106.0,128.0,16.0,126.0,-79.0,127.0,127.0,127.0,127.0,83.0,-113.0
127.0,127.0,127.0,127.0,127.0,127.0,106.0,128.0,16.0,126.0,-79.0,127.0,127.0,127.0,127.0,83.0,-113.0
127.0,127.0,127.0,127.0,127.0,127.0,106.0,128.0,16.0,126.0,-79.0,127.0,127.0,127.0,127.0,83.0,-113.0
127.0,127.0,127.0,127.0,127.0,127.0,106.0,128.0,16.0,126.0,-79.0,127.0,127.0,127.0,127.0,83.0,-113.0
127.0,127.0,127.0,127.0,127.0,127.0,106.0,128.0,16.0,126.0,-79.0,127.0,127.0,127.0,127.0,83.0,-113.0
127.0,127.0,127.0,127.0,127.0,127.0,106.0,128.0,15.0,126.0,-79.0,127.0,127.0,127.0,127.0,83.0,-113.0
127.0,127.0,127.0,127.0,127.0,127.0,106.0,128.0,15.0,126.0,-79.0,127.0,127.0,127.0,127.0,83.0,-113.0
127.0,127.0,127.0,127.0,127.0,127.0,107.0,128.0,15.0,126.0,-79.0,127.0,127.0,127.0,127.0,83.0,-113.0
127.0,127.0,127.0,127.0,127.0,127.0,106.0,128.0,15.0,126.0,-79.0,127.0,127.0,127.0,127.0,83.0,-113.0
127.0,127.0,127.0,127.0,127.0,127.0,106.0,128.0,15.0,126.0,-79.0,127.0,127.0,127.0,127.0,83.0,-113.0
127.0,127.0,127.0,127.0,127.0,127.0,106.0,128.0,15.0,126.0,-79.0,127.0,127.0,127.0,127.0,83.0,-113.0
127.0,127.0,127.0,127.0,127.0,127.0,106.0,128.0,15.0,126.0,-79.0,127.0,127.0,127.0,127.0,83.0,-113.0
127.0,127.0,127.0,127.0,127.0,127.0,106.0,128.0,15.0,126.0,-79.0,127.0,127.0,127.0,127.0,83.0,-113.0
127.0,127.0,127.0,127.0,127.0,127.0,106.0,128.0,15.0,126.0,-79.0,127.0,127.0,127.0,127.0,83.0,-113.0
127.0,127.0,127.0,127.0,127.0,127.0,106.0,128.0,15.0,126.0,-79.0,127.0,127.0,127.0,127.0,83.0,-113.0
126.0,127.0,127.0,127.0,127.0,127.0,110.0,128.0,14.0,126.0,-79.0,127.0,127.0,127.0,127.0,83.0,-113.0
126.0,127.0,127.0,127.0,127.0,127.0,108.0,128.0,14.0,126.0,-79.0,127.0,127.0,127.0,127.0,83.0,-113.0
126.0,127.0,127.0,127.0,127.0,127.0,107.0,128.0,14.0,126.0,-79.0,127.0,127.0,127.0,127.0,83.0,-113.0
126.0,126.0,127.0,127.0,126.0,127.0,113.0,128.0,14.0,126.0,-79.0,127.0,127.0,127.0,127.0,83.0,-113.0
126.0,127.0,127.0,127.0,126.0,127.0,113.0,128.0,14.0,126.0,-79.0,127.0,127.0,127.0,127.0,83.0,-113.0
126.0,127.0,127.0,127.0,126.0,127.0,113.0,128.0,14.0,126.0,-79.0,127.0,127.0,127.0,127.0,83.0,-113.0
126.0,127.0,127.0,127.0,126.0,127.0,113.0,128.0,14.0,126.0,-79.0,127.0,127.0,127.0,127.0,83.0,-113.0
126.0,126.0,127.0,127.0,126.0,127.0,113.0,128.0,14.0,126.0,-79.0,127.0,127.0,127.0,127.0,83.0,-113.0
126.0,127.0,127.0,127.0,126.0,127.0,113.0,128.0,14.0,126.0,-79.0,127.0,127.0,127.0,127.0,83.0,-113.0
126.0,127.0,127.0,127.0,126.0,127.0,113.0,128.0,14.0,126.0,-79.0,127.0,127.0,127.0,127.0,83.0,-113.0
127.0,127.0,127.0,127.0,127.0,127.0,106.0,128.0,14.0,126.0,-79.0,127.0,127.0,127.0,127.0,83.0,-113.0
127.0,127.0,127.0,127.0,127.0,127.0,106.0,128.0,14.0,126.0,-79.0,127.0,127.0,127.0,127.0,83.0,-113.0
127.0,127.0,127.0,127.0,127.0,127.0,112.0,128.0,14.0,126.0,-79.0,127.0,127.0,127.0,127.0,83.0,-113.0
127.0,127.0,127.0,127.0,127.0,127.0,108.0,128.0,14.0,126.0,-79.0,127.0,127.0,127.0,127.0,83.0,-113.0
127.0,127.0,127.0,127.0,127.0,127.0,106.0,128.0,14.0,126.0,-79.0,127.0,127.0,127.0,127.0,83.0,-113.0
127.0,127.0,127.0,127.0,127.0,127.0,106.0,128.0,14.0,126.0,-79.0,127.0,127.0,127.0,127.0,83.0,-113.0
127.0,127.0,127.0,127.0,127.0,127.0,106.0,128.0,14.0,126.0,-79.0,127.0,127.0,127.0,127.0,83.0,-113.0
127.0,127.0,127.0,127.0,127.0,127.0,106.0,128.0,14.0,126.0,-79.0,127.0,127.0,127.0,127.0,83.0,-113.0
127.0,127.0,127.0,127.0,127.0,127.0,106.0,128.0,14.0,126.0,-79.0,127.0,127.0,127.0,127.0,83.0,-113.0
127.0,127.0,127.0,127.0,127.0,127.0,106.0,128.0,14.0,126.0,-79.0,127.0,127.0,127.0,127.0,83.0,-113.0
127.0,127.0,127.0,127.0,127.0,127.0,106.0,128.0,14.0,126.0,-79.0,127.0,127.0,127.0,127.0,83.0,-113.0
127.0,126.0,127.0,127.0,126.0,127.0,113.0,127.0,14.0,126.0,-79.0,127.0,127.0,127.0,127.0,83.0,-113.0
127.0,127.0,127.0,127.0,127.0,127.0,110.0,128.0,14.0,126.0,-79.0,127.0,127.0,127.0,127.0,83.0,-113.0
127.0,127.0,127.0,127.0,127.0,127.0,107.0,128.0,14.0,126.0,-79.0,127.0,127.0,127.0,127.0,83.0,-113.0
127.0,127.0,127.0,127.0,127.0,127.0,107.0,128.0,14.0,126.0,-79.0,127.0,127.0,127.0,127.0,83.0,-113.0
127.0,127.0,127.0,127.0,127.0,127.0,109.0,128.0,14.0,126.0,-79.0,127.0,127.0,127.0,127.0,83.0,-113.0
127.0,127.0,127.0,127.0,127.0,127.0,112.0,128.0,14.0,126.0,-79.0,127.0,127.0,127.0,127.0,83.0,-113.0
127.0,127.0,127.0,127.0,127.0,127.0,112.0,128.0,14.0,126.0,-79.0,127.0,127.0,127.0,127.0,83.0,-113.0
127.0,127.0,127.0,127.0,127.0,127.0,111.0,128.0,14.0,126.0,-79.0,127.0,127.0,127.0,127.0,83.0,-113.0
127.0,127.0,127.0,127.0,127.0,127.0,107.0,128.0,14.0,126.0,-79.0,127.0,127.0,127.0,127.0,83.0,-113.0
127.0,127.0,127.0,127.0,127.0,127.0,106.0,128.0,15.0,126.0,-79.0,127.0,127.0,127.0,127.0,83.0,-113.0
127.0,127.0,127.0,127.0,127.0,127.0,111.0,128.0,15.0,126.0,-79.0,127.0,127.0,127.0,127.0,83.0,-113.0
127.0,127.0,127.0,127.0,127.0,127.0,107.0,128.0,15.0,126.0,-79.0,127.0,127.0,127.0,127.0,83.0,-113.0
127.0,127.0,127.0,127.0,127.0,127.0,106.0,128.0,15.0,126.0,-79.0,127.0,127.0,127.0,127.0,83.0,-113.0
127.0,127.0,127.0,127.0,127.0,127.0,107.0,128.0,15.0,126.0,-79.0,127.0,127.0,127.0,127.0,83.0,-113.0
127.0,127.0,127.0,127.0,127.0,127.0,111.0,128.0,15.0,126.0,-79.0,127.0,127.0,127.0,127.0,83.0,-113.0
127.0,127.0,127.0,127.0,127.0,127.0,112.0,128.0,15.0,126.0,-79.0,127.0,127.0,127.0,127.0,83.0,-113.0
127.0,127.0,127.0,127.0,127.0,127.0,112.0,128.0,15.0,126.0,-79.0,127.0,127.0,127.0,127.0,83.0,-113.0
127.0,127.0,127.0,127.0,127.0,127.0,108.0,128.0,15.0,126.0,-79.0,127.0,127.0,127.0,127.0,83.0,-113.0
127.0,127.0,127.0,127.0,127.0,127.0,106.0,128.0,15.0,126.0,-79.0,127.0,127.0,127.0,127.0,83.0,-113.0
127.0,127.0,127.0,127.0,127.0,127.0,113.0,128.0,16.0,126.0,-79.0,127.0,127.0,127.0,127.0,83.0,-113.0
127.0,127.0,127.0,127.0,127.0,127.0,113.0,128.0,16.0,126.0,-79.0,127.0,127.0,127.0,127.0,83.0,-113.0
127.0,127.0,127.0,127.0,127.0,127.0,112.0,128.0,16.0,126.0,-79.0,127.0,127.0,127.0,127.0,83.0,-113.0
127.0,127.0,127.0,127.0,127.0,127.0,113.0,128.0,16.0,126.0,-79.0,127.0,127.0,127.0,127.0,83.0,-113.0
127.0,127.0,127.0,127.0,127.0,127.0,113.0,128.0,16.0,126.0,-79.0,127.0,127.0,127.0,127.0,83.0,-113.0
127.0,127.0,127.0,127.0,127.0,127.0,112.0,128.0,16.0,126.0,-79.0,127.0,127.0,127.0,127.0,83.0,-113.0
126.0,127.0,127.0,127.0,127.0,127.0,113.0,128.0,16.0,126.0,-79.0,127.0,127.0,127.0,127.0,83.0,-113.0
126.0,127.0,127.0,127.0,127.0,127.0,111.0,128.0,16.0,126.0,-79.0,127.0,127.0,127.0,127.0,83.0,-113.0
127.0,127.0,127.0,127.0,127.0,127.0,110.0,128.0,16.0,126.0,-79.0,127.0,127.0,127.0,127.0,83.0,-113.0
127.0,127.0,127.0,127.0,127.0,127.0,110.0,128.0,16.0,126.0,-79.0,127.0,127.0,127.0,127.0,83.0,-113.0
126.0,127.0,127.0,127.0,127.0,127.0,112.0,128.0,17.0,126.0,-79.0,127.0,127.0,127.0,127.0,83.0,-113.0
126.0,127.0,127.0,127.0,127.0,127.0,112.0,128.0,17.0,126.0,-79.0,127.0,127.0,127.0,127.0,83.0,-113.0
126.0,127.0,127.0,127.0,127.0,127.0,114.0,128.0,17.0,126.0,-79.0,127.0,127.0,127.0,127.0,83.0,-113.0
127.0,127.0,127.0,127.0,127.0,127.0,113.0,128.0,17.0,126.0,-79.0,127.0,127.0,127.0,127.0,83.0,-113.0
126.0,127.0,127.0,127.0,127.0,127.0,113.0,128.0,17.0,126.0,-79.0,127.0,127.0,127.0,127.0,83.0,-113.0
126.0,127.0,127.0,127.0,127.0,127.0,113.0,128.0,17.0,126.0,-79.0,127.0,127.0,127.0,127.0,83.0,-113.0
126.0,127.0,127.0,127.0,127.0,127.0,111.0,128.0,17.0,126.0,-79.0,127.0,127.0,127.0,127.0,83.0,-113.0
126.0,127.0,127.0,127.0,127.0,127.0,111.0,128.0,17.0,126.0,-79.0,127.0,127.0,127.0,127.0,83.0,-113.0
126.0,127.0,127.0,127.0,127.0,127.0,113.0,128.0,17.0,126.0,-79.0,127.0,127.0,127.0,127.0,83.0,-113.0
126.0,127.0,127.0,127.0,127.0,127.0,113.0,127.0,17.0,126.0,-79.0,127.0,127.0,127.0,127.0,83.0,-113.0
127.0,127.0,127.0,127.0,127.0,127.0,106.0,128.0,17.0,126.0,-79.0,127.0,127.0,127.0,127.0,83.0,-113.0
127.0,127.0,127.0,127.0,127.0,127.0,106.0,128.0,17.0,126.0,-79.0,127.0,127.0,127.0,127.0,83.0,-113.0
127.0,127.0,127.0,127.0,127.0,127.0,106.0,128.0,17.0,126.0,-79.0,127.0,127.0,127.0,127.0,83.0,-113.0
127.0,127.0,127.0,127.0,127.0,127.0,106.0,128.0,17.0,126.0,-79.0,127.0,127.0,127.0,127.0,83.0,-113.0
127.0,127.0,127.0,127.0,127.0,127.0,106.0,128.0,17.0,126.0,-79.0,127.0,127.0,127.0,127.0,83.0,-113.0
127.0,127.0,127.0,127.0,127.0,127.0,107.0,128.0,17.0,126.0,-79.0,127.0,127.0,127.0,127.0,83.0,-113.0
127.0,127.0,127.0,127.0,127.0,127.0,107.0,128.0,17.0,126.0,-79.0,127.0,127.0,127.0,127.0,83.0,-113.0
127.0,127.0,127.0,127.0,127.0,127.0,107.0,128.0,17.0,126.0,-79.0,127.0,127.0,127.0,127.0,83.0,-113.0
127.0,127.0,127.0,127.0,127.0,127.0,113.0,128.0,17.0,126.0,-79.0,127.0,127.0,127.0,127.0,83.0,-113.0
127.0,127.0,127.0,127.0,127.0,127.0,108.0,128.0,17.0,126.0,-79.0,127.0,127.0,127.0,127.0,83.0,-113.0
126.0,127.0,127.0,127.0,127.0,127.0,111.0,128.0,16.0,126.0,-79.0,127.0,127.0,127.0,127.0,83.0,-113.0
126.0,127.0,127.0,127.0,127.0,127.0,113.0,128.0,16.0,126.0,-79.0,127.0,127.0,127.0,127.0,83.0,-113.0
126.0,127.0,127.0,127.0,127.0,127.0,113.0,128.0,16.0,126.0,-79.0,127.0,127.0,127.0,127.0,83.0,-113.0
126.0,127.0,127.0,127.0,127.0,127.0,113.0,128.0,16.0,126.0,-79.0,127.0,127.0,127.0,127.0,83.0,-113.0
126.0,127.0,127.0,127.0,127.0,127.0,113.0,128.0,16.0,126.0,-79.0,127.0,127.0,127.0,127.0,83.0,-113.0
126.0,127.0,127.0,127.0,127.0,127.0,109.0,128.0,16.0,126.0,-79.0,127.0,127.0,127.0,127.0,83.0,-113.0
126.0,127.0,127.0,127.0,127.0,127.0,106.0,128.0,16.0,126.0,-79.0,127.0,127.0,127.0,127.0,83.0,-113.0
126.0,126.0,127.0,127.0,126.0,127.0,113.0,128.0,16.0,126.0,-79.0,127.0,127.0,127.0,127.0,83.0,-113.0
126.0,127.0,127.0,127.0,127.0,127.0,113.0,128.0,16.0,126.0,-79.0,127.0,127.0,127.0,127.0,83.0,-113.0
126.0,127.0,127.0,127.0,127.0,127.0,113.0,128.0,16.0,126.0,-79.0,127.0,127.0,127.0,127.0,83.0,-113.0
126.0,126.0,127.0,127.0,126.0,127.0,112.0,128.0,15.0,126.0,-79.0,127.0,127.0,127.0,127.0,83.0,-113.0
126.0,126.0,127.0,127.0,126.0,127.0,112.0,128.0,15.0,126.0,-79.0,127.0,127.0,127.0,127.0,83.0,-113.0
126.0,126.0,127.0,127.0,126.0,127.0,113.0,128.0,15.0,126.0,-79.0,127.0,127.0,127.0,127.0,83.0,-113.0
126.0,126.0,127.0,127.0,126.0,127.0,112.0,128.0,15.0,126.0,-79.0,127.0,127.0,127.0,127.0,83.0,-113.0
126.0,126.0,127.0,127.0,126.0,127.0,112.0,128.0,15.0,126.0,-79.0,127.0,127.0,127.0,127.0,83.0,-113.0
126.0,126.0,127.0,127.0,126.0,127.0,112.0,128.0,15.0,126.0,-79.0,127.0,127.0,127.0,127.0,83.0,-113.0
126.0,126.0,127.0,127.0,126.0,127.0,113.0,128.0,15.0,126.0,-79.0,127.0,127.0,127.0,127.0,83.0,-113.0
126.0,126.0,127.0,127.0,126.0,127.0,112.0,128.0,15.0,126.0,-79.0,127.0,127.0,127.0,127.0,83.0,-113.0
126.0,126.0,127.0,127.0,126.0,127.0,112.0,128.0,15.0,126.0,-79.0,127.0,127.0,127.0,127.0,83.0,-113.0
126.0,126.0,127.0,127.0,126.0,127.0,113.0,128.0,15.0,126.0,-79.0,127.0,127.0,127.0,127.0,83.0,-113.0
127.0,126.0,127.0,127.0,127.0,127.0,111.0,128.0,15.0,126.0,-79.0,127.0,127.0,127.0,127.0,83.0,-113.0
126.0,126.0,127.0,127.0,127.0,127.0,112.0,128.0,15.0,126.0,-79.0,127.0,127.0,127.0,127.0,83.0,-113.0
126.0,126.0,127.0,127.0,127.0,127.0,113.0,128.0,15.0,126.0,-79.0,127.0,127.0,127.0,127.0,83.0,-113.0
127.0,127.0,127.0,127.0,127.0,127.0,109.0,128.0,15.0,126.0,-79.0,127.0,127.0,127.0,127.0,83.0,-113.0
126.0,127.0,127.0,127.0,127.0,127.0,107.0,128.0,15.0,126.0,-79.0,127.0,127.0,127.0,127.0,83.0,-113.0
127.0,126.0,127.0,127.0,127.0,127.0,113.0,128.0,15.0,126.0,-79.0,127.0,127.0,127.0,127.0,83.0,-113.0
127.0,126.0,127.0,127.0,127.0,127.0,113.0,128.0,15.0,126.0,-79.0,127.0,127.0,127.0,127.0,83.0,-113.0
127.0,127.0,127.0,127.0,127.0,127.0,110.0,128.0,15.0,126.0,-79.0,127.0,127.0,127.0,127.0,83.0,-113.0
127.0,127.0,127.0,127.0,127.0,127.0,108.0,128.0,15.0,126.0,-79.0,127.0,127.0,127.0,127.0,83.0,-113.0
126.0,126.0,127.0,127.0,127.0,127.0,111.0,128.0,15.0,126.0,-79.0,127.0,127.0,127.0,127.0,83.0,-113.0
127.0,127.0,127.0,127.0,127.0,127.0,113.0,128.0,15.0,126.0,-79.0,127.0,127.0,127.0,127.0,83.0,-113.0
127.0,127.0,127.0,127.0,127.0,127.0,113.0,128.0,15.0,126.0,-79.0,127.0,127.0,127.0,127.0,83.0,-113.0
127.0,127.0,127.0,127.0,127.0,127.0,113.0,128.0,15.0,126.0,-79.0,127.0,127.0,127.0,127.0,83.0,-113.0
127.0,127.0,127.0,127.0,127.0,127.0,112.0,128.0,15.0,126.0,-79.0,127.0,127.0,127.0,127.0,83.0,-113.0
127.0,126.0,127.0,126.0,126.0,127.0,113.0,128.0,15.0,126.0,-79.0,127.0,127.0,127.0,127.0,83.0,-113.0
127.0,126.0,127.0,126.0,126.0,127.0,113.0,128.0,15.0,126.0,-79.0,127.0,127.0,127.0,127.0,83.0,-113.0
127.0,126.0,127.0,126.0,126.0,127.0,112.0,128.0,15.0,126.0,-79.0,127.0,127.0,127.0,127.0,83.0,-113.0
127.0,126.0,127.0,126.0,127.0,127.0,112.0,128.0,15.0,126.0,-79.0,127.0,127.0,127.0,127.0,83.0,-113.0
127.0,126.0,127.0,127.0,126.0,127.0,113.0,128.0,15.0,126.0,-79.0,127.0,127.0,127.0,127.0,83.0,-113.0
127.0,126.0,127.0,127.0,126.0,127.0,113.0,128.0,15.0,126.0,-79.0,127.0,127.0,127.0,127.0,83.0,-113.0
126.0,127.0,127.0,127.0,127.0,127.0,106.0,128.0,15.0,126.0,-79.0,127.0,127.0,127.0,127.0,83.0,-113.0
126.0,127.0,127.0,127.0,127.0,127.0,107.0,128.0,15.0,126.0,-79.0,127.0,127.0,127.0,127.0,83.0,-113.0
126.0,127.0,127.0,127.0,127.0,127.0,107.0,128.0,15.0,126.0,-79.0,127.0,127.0,127.0,127.0,83.0,-113.0
127.0,126.0,127.0,127.0,127.0,127.0,112.0,128.0,15.0,126.0,-79.0,127.0,127.0,127.0,127.0,83.0,-113.0
127.0,126.0,127.0,127.0,127.0,127.0,112.0,128.0,15.0,126.0,-79.0,127.0,127.0,127.0,127.0,83.0,-113.0
127.0,127.0,127.0,127.0,127.0,127.0,110.0,128.0,15.0,126.0,-79.0,127.0,127.0,127.0,127.0,83.0,-113.0
127.0,127.0,127.0,127.0,127.0,127.0,106.0,128.0,15.0,126.0,-79.0,127.0,127.0,127.0,127.0,83.0,-113.0
127.0,127.0,127.0,127.0,127.0,127.0,107.0,128.0,15.0,126.0,-79.0,127.0,127.0,127.0,127.0,83.0,-113.0
127.0,127.0,127.0,127.0,127.0,127.0,108.0,128.0,15.0,126.0,-79.0,127.0,127.0,127.0,127.0,83.0,-113.0
126.0,127.0,127.0,127.0,127.0,127.0,107.0,128.0,15.0,126.0,-79.0,127.0,127.0,127.0,127.0,83.0,-113.0
127.0,127.0,127.0,127.0,127.0,127.0,112.0,128.0,15.0,126.0,-79.0,127.0,127.0,127.0,127.0,83.0,-113.0
127.0,127.0,127.0,127.0,127.0,127.0,110.0,128.0,15.0,126.0,-79.0,127.0,127.0,127.0,127.0,83.0,-113.0
127.0,126.0,127.0,127.0,127.0,127.0,112.0,127.0,15.0,126.0,-79.0,127.0,127.0,127.0,127.0,83.0,-113.0
127.0,126.0,127.0,127.0,127.0,127.0,112.0,128.0,15.0,126.0,-79.0,127.0,127.0,127.0,127.0,83.0,-113.0
127.0,127.0,127.0,127.0,127.0,127.0,113.0,128.0,15.0,126.0,-79.0,127.0,127.0,127.0,127.0,83.0,-113.0
127.0,127.0,127.0,127.0,127.0,127.0,113.0,128.0,15.0,126.0,-79.0,127.0,127.0,127.0,127.0,83.0,-113.0
127.0,127.0,127.0,127.0,127.0,127.0,113.0,128.0,15.0,126.0,-79.0,127.0,127.0,127.0,127.0,83.0,-113.0
127.0,127.0,127.0,127.0,127.0,127.0,114.0,128.0,15.0,126.0,-79.0,127.0,127.0,127.0,127.0,83.0,-113.0
127.0,127.0,127.0,127.0,127.0,127.0,113.0,128.0,15.0,126.0,-79.0,127.0,127.0,127.0,127.0,83.0,-113.0
127.0,127.0,127.0,127.0,127.0,127.0,113.0,128.0,15.0,126.0,-79.0,127.0,127.0,127.0,127.0,83.0,-113.0
127.0,127.0,127.0,127.0,127.0,127.0,112.0,127.0,16.0,125.0,-79.0,127.0,127.0,127.0,127.0,83.0,-113.0
127.0,126.0,127.0,127.0,127.0,127.0,113.0,127.0,16.0,125.0,-79.0,127.0,127.0,127.0,127.0,83.0,-113.0
127.0,126.0,127.0,127.0,127.0,127.0,112.0,128.0,16.0,125.0,-79.0,127.0,127.0,127.0,127.0,83.0,-113.0
127.0,126.0,127.0,127.0,127.0,127.0,112.0,128.0,16.0,125.0,-79.0,127.0,127.0,127.0,127.0,83.0,-113.0
127.0,126.0,127.0,127.0,127.0,127.0,112.0,128.0,16.0,125.0,-79.0,127.0,127.0,127.0,127.0,83.0,-113.0
127.0,126.0,127.0,127.0,127.0,127.0,113.0,127.0,16.0,125.0,-79.0,127.0,127.0,127.0,127.0,83.0,-113.0
127.0,127.0,127.0,127.0,127.0,127.0,112.0,127.0,16.0,125.0,-79.0,127.0,127.0,127.0,127.0,83.0,-113.0
127.0,127.0,127.0,127.0,127.0,127.0,112.0,127.0,16.0,125.0,-79.0,127.0,127.0,127.0,127.0,83.0,-113.0
127.0,127.0,127.0,127.0,127.0,127.0,112.0,127.0,16.0,125.0,-79.0,127.0,127.0,127.0,127.0,83.0,-113.0
127.0,127.0,127.0,127.0,127.0,127.0,112.0,127.0,16.0,125.0,-79.0,127.0,127.0,127.0,127.0,83.0,-113.0
127.0,127.0,127.0,127.0,127.0,127.0,111.0,128.0,17.0,125.0,-79.0,127.0,127.0,127.0,127.0,83.0,-113.0
127.0,127.0,127.0,127.0,127.0,127.0,113.0,128.0,17.0,125.0,-79.0,127.0,127.0,127.0,127.0,83.0,-113.0
127.0,127.0,127.0,127.0,127.0,127.0,113.0,128.0,17.0,125.0,-79.0,127.0,127.0,127.0,127.0,83.0,-113.0
127.0,127.0,127.0,127.0,127.0,127.0,113.0,128.0,17.0,125.0,-79.0,127.0,127.0,127.0,127.0,83.0,-113.0
127.0,127.0,127.0,127.0,127.0,127.0,113.0,128.0,17.0,125.0,-79.0,127.0,127.0,127.0,127.0,83.0,-113.0
127.0,127.0,127.0,127.0,127.0,127.0,113.0,128.0,17.0,125.0,-79.0,127.0,127.0,127.0,127.0,83.0,-113.0
127.0,127.0,127.0,127.0,127.0,127.0,110.0,128.0,17.0,125.0,-79.0,127.0,127.0,127.0,127.0,83.0,-113.0
127.0,127.0,127.0,127.0,127.0,127.0,106.0,128.0,17.0,125.0,-79.0,127.0,127.0,127.0,127.0,83.0,-113.0
127.0,127.0,127.0,127.0,127.0,127.0,107.0,128.0,17.0,125.0,-79.0,127.0,127.0,127.0,127.0,83.0,-113.0
127.0,127.0,127.0,127.0,127.0,127.0,110.0,128.0,17.0,125.0,-79.0,127.0,127.0,127.0,127.0,83.0,-113.0
127.0,127.0,127.0,127.0,127.0,127.0,106.0,128.0,17.0,125.0,-79.0,127.0,127.0,127.0,127.0,83.0,-113.0
127.0,127.0,127.0,127.0,127.0,127.0,106.0,128.0,17.0,125.0,-79.0,127.0,127.0,127.0,127.0,83.0,-113.0
127.0,127.0,127.0,127.0,127.0,127.0,107.0,128.0,17.0,125.0,-79.0,127.0,127.0,127.0,127.0,83.0,-113.0
127.0,127.0,127.0,127.0,127.0,127.0,106.0,128.0,17.0,125.0,-79.0,127.0,127.0,127.0,127.0,83.0,-113.0
127.0,127.0,127.0,127.0,127.0,127.0,105.0,128.0,17.0,125.0,-79.0,127.0,127.0,127.0,127.0,83.0,-113.0
127.0,127.0,127.0,127.0,127.0,127.0,107.0,128.0,17.0,125.0,-79.0,127.0,127.0,127.0,127.0,83.0,-113.0
127.0,127.0,127.0,127.0,127.0,127.0,112.0,128.0,17.0,125.0,-79.0,127.0,127.0,127.0,127.0,83.0,-113.0
127.0,127.0,127.0,127.0,127.0,127.0,113.0,128.0,17.0,125.0,-79.0,127.0,127.0,127.0,127.0,83.0,-113.0
127.0,127.0,127.0,127.0,127.0,127.0,113.0,128.0,17.0,125.0,-79.0,127.0,127.0,127.0,127.0,83.0,-113.0
127.0,127.0,127.0,127.0,127.0,127.0,108.0,128.0,17.0,125.0,-79.0,127.0,127.0,127.0,127.0,83.0,-113.0
127.0,126.0,127.0,127.0,126.0,127.0,114.0,128.0,17.0,125.0,-79.0,127.0,127.0,127.0,127.0,83.0,-113.0
127.0,126.0,127.0,127.0,126.0,127.0,113.0,128.0,17.0,125.0,-79.0,127.0,127.0,127.0,127.0,83.0,-113.0
127.0,127.0,127.0,127.0,127.0,127.0,113.0,128.0,17.0,125.0,-79.0,127.0,127.0,127.0,127.0,83.0,-113.0
127.0,127.0,127.0,127.0,127.0,127.0,113.0,128.0,17.0,125.0,-79.0,127.0,127.0,127.0,127.0,83.0,-113.0
127.0,127.0,127.0,127.0,127.0,127.0,112.0,128.0,17.0,125.0,-79.0,127.0,127.0,127.0,127.0,83.0,-113.0
127.0,127.0,127.0,127.0,127.0,127.0,109.0,128.0,17.0,125.0,-79.0,127.0,127.0,127.0,127.0,83.0,-113.0
127.0,127.0,127.0,127.0,127.0,127.0,106.0,128.0,17.0,125.0,-79.0,127.0,127.0,127.0,127.0,83.0,-113.0
127.0,127.0,127.0,127.0,127.0,127.0,106.0,128.0,17.0,125.0,-79.0,127.0,127.0,127.0,127.0,83.0,-113.0
127.0,126.0,127.0,127.0,126.0,127.0,113.0,128.0,17.0,125.0,-79.0,127.0,127.0,127.0,127.0,83.0,-113.0
127.0,126.0,127.0,127.0,126.0,127.0,114.0,128.0,17.0,125.0,-79.0,127.0,127.0,127.0,127.0,83.0,-113.0
126.0,127.0,127.0,127.0,127.0,127.0,106.0,128.0,16.0,125.0,-79.0,127.0,127.0,127.0,127.0,83.0,-113.0
127.0,127.0,127.0,127.0,127.0,127.0,106.0,128.0,16.0,125.0,-79.0,127.0,127.0,127.0,127.0,83.0,-113.0
127.0,127.0,127.0,127.0,127.0,127.0,106.0,128.0,16.0,125.0,-79.0,127.0,127.0,127.0,127.0,83.0,-113.0
127.0,127.0,127.0,127.0,127.0,127.0,106.0,128.0,16.0,125.0,-79.0,127.0,127.0,127.0,127.0,83.0,-113.0
127.0,127.0,127.0,127.0,127.0,127.0,106.0,128.0,16.0,125.0,-79.0,127.0,127.0,127.0,127.0,83.0,-113.0
127.0,127.0,127.0,127.0,127.0,127.0,106.0,128.0,16.0,125.0,-79.0,127.0,127.0,127.0,127.0,83.0,-113.0
127.0,127.0,127.0,127.0,127.0,127.0,106.0,128.0,16.0,125.0,-79.0,127.0,127.0,127.0,127.0,83.0,-113.0
126.0,127.0,127.0,127.0,127.0,127.0,109.0,128.0,16.0,125.0,-79.0,127.0,127.0,127.0,127.0,83.0,-113.0
126.0,127.0,127.0,127.0,127.0,127.0,106.0,128.0,16.0,125.0,-79.0,127.0,127.0,127.0,127.0,83.0,-113.0
126.0,127.0,127.0,127.0,127.0,127.0,106.0,128.0,16.0,125.0,-79.0,127.0,127.0,127.0,127.0,83.0,-113.0
127.0,127.0,127.0,127.0,127.0,127.0,106.0,128.0,15.0,126.0,-79.0,127.0,127.0,127.0,127.0,83.0,-113.0
127.0,127.0,127.0,127.0,127.0,127.0,106.0,128.0,15.0,126.0,-79.0,127.0,127.0,127.0,127.0,83.0,-113.0
127.0,127.0,127.0,127.0,127.0,127.0,107.0,128.0,15.0,126.0,-79.0,127.0,127.0,127.0,127.0,83.0,-113.0
127.0,127.0,127.0,127.0,127.0,127.0,106.0,128.0,15.0,126.0,-79.0,127.0,127.0,127.0,127.0,83.0,-113.0
127.0,127.0,127.0,127.0,127.0,127.0,106.0,128.0,15.0,126.0,-79.0,127.0,127.0,127.0,127.0,83.0,-113.0
127.0,127.0,127.0,127.0,127.0,127.0,106.0,128.0,15.0,126.0,-79.0,127.0,127.0,127.0,127.0,83.0,-113.0
127.0,127.0,127.0,127.0,127.0,127.0,110.0,128.0,15.0,126.0,-79.0,127.0,127.0,127.0,127.0,83.0,-113.0
127.0,127.0,127.0,127.0,127.0,127.0,106.0,128.0,15.0,126.0,-79.0,127.0,127.0,127.0,127.0,83.0,-113.0
127.0,127.0,127.0,127.0,127.0,127.0,106.0,128.0,15.0,126.0,-79.0,127.0,127.0,127.0,127.0,83.0,-113.0
127.0,127.0,127.0,127.0,127.0,127.0,106.0,128.0,15.0,126.0,-79.0,127.0,127.0,127.0,127.0,83.0,-113.0
127.0,127.0,127.0,127.0,127.0,127.0,106.0,128.0,14.0,126.0,-79.0,127.0,127.0,127.0,127.0,83.0,-113.0
127.0,127.0,127.0,127.0,126.0,127.0,108.0,128.0,14.0,126.0,-79.0,127.0,127.0,127.0,127.0,83.0,-113.0
127.0,127.0,127.0,127.0,126.0,127.0,111.0,128.0,14.0,126.0,-79.0,127.0,127.0,127.0,127.0,83.0,-113.0
127.0,127.0,127.0,127.0,126.0,127.0,110.0,128.0,14.0,126.0,-79.0,127.0,127.0,127.0,127.0,83.0,-113.0
127.0,127.0,127.0,127.0,127.0,127.0,111.0,128.0,14.0,126.0,-79.0,127.0,127.0,127.0,127.0,83.0,-113.0
127.0,127.0,127.0,127.0,127.0,127.0,107.0,128.0,14.0,126.0,-79.0,127.0,127.0,127.0,127.0,83.0,-113.0
127.0,127.0,127.0,127.0,127.0,127.0,106.0,128.0,14.0,126.0,-79.0,127.0,127.0,127.0,127.0,83.0,-113.0
127.0,127.0,127.0,127.0,127.0,127.0,106.0,128.0,14.0,126.0,-79.0,127.0,127.0,127.0,127.0,83.0,-113.0
127.0,127.0,127.0,127.0,126.0,127.0,106.0,128.0,14.0,126.0,-79.0,127.0,127.0,127.0,127.0,83.0,-113.0
127.0,127.0,127.0,127.0,126.0,127.0,107.0,128.0,14.0,126.0,-79.0,127.0,127.0,127.0,127.0,83.0,-113.0
127.0,127.0,127.0,127.0,127.0,127.0,112.0,128.0,14.0,126.0,-79.0,127.0,127.0,127.0,127.0,83.0,-113.0
127.0,127.0,127.0,127.0,127.0,127.0,113.0,128.0,14.0,126.0,-79.0,127.0,127.0,127.0,127.0,83.0,-113.0
127.0,127.0,127.0,127.0,127.0,127.0,112.0,128.0,14.0,126.0,-79.0,127.0,127.0,127.0,127.0,83.0,-113.0
127.0,127.0,127.0,127.0,127.0,127.0,113.0,128.0,14.0,126.0,-79.0,127.0,127.0,127.0,127.0,83.0,-113.0
127.0,127.0,127.0,126.0,127.0,127.0,112.0,128.0,14.0,126.0,-79.0,127.0,127.0,127.0,127.0,83.0,-113.0
127.0,127.0,127.0,127.0,127.0,127.0,113.0,128.0,14.0,126.0,-79.0,127.0,127.0,127.0,127.0,83.0,-113.0
127.0,127.0,127.0,127.0,127.0,127.0,113.0,128.0,14.0,126.0,-79.0,127.0,127.0,127.0,127.0,83.0,-113.0
127.0,127.0,127.0,127.0,127.0,127.0,113.0,128.0,14.0,126.0,-79.0,127.0,127.0,127.0,127.0,83.0,-113.0
127.0,127.0,127.0,127.0,127.0,127.0,113.0,128.0,14.0,126.0,-79.0,127.0,127.0,127.0,127.0,83.0,-113.0
127.0,127.0,127.0,127.0,127.0,127.0,113.0,128.0,14.0,126.0,-79.0,127.0,127.0,127.0,127.0,83.0,-113.0
127.0,127.0,127.0,127.0,127.0,127.0,113.0,127.0,15.0,125.0,-79.0,127.0,127.0,127.0,127.0,83.0,-113.0
127.0,127.0,127.0,126.0,127.0,127.0,113.0,127.0,15.0,125.0,-79.0,127.0,127.0,127.0,127.0,83.0,-113.0
127.0,127.0,127.0,126.0,127.0,127.0,113.0,127.0,15.0,125.0,-79.0,127.0,127.0,127.0,127.0,83.0,-113.0
127.0,127.0,127.0,126.0,127.0,127.0,112.0,127.0,15.0,125.0,-79.0,127.0,127.0,127.0,127.0,83.0,-113.0
127.0,127.0,127.0,126.0,127.0,127.0,111.0,128.0,15.0,125.0,-79.0,127.0,127.0,127.0,127.0,83.0,-113.0
127.0,127.0,127.0,126.0,127.0,127.0,110.0,128.0,15.0,125.0,-79.0,127.0,127.0,127.0,127.0,83.0,-113.0
127.0,127.0,127.0,126.0,127.0,127.0,109.0,128.0,15.0,125.0,-79.0,127.0,127.0,127.0,127.0,83.0,-113.0
127.0,127.0,127.0,126.0,127.0,127.0,111.0,127.0,15.0,125.0,-79.0,127.0,127.0,127.0,127.0,83.0,-113.0
127.0,127.0,127.0,126.0,127.0,127.0,113.0,127.0,15.0,125.0,-79.0,127.0,127.0,127.0,127.0,83.0,-113.0
127.0,127.0,127.0,126.0,127.0,127.0,113.0,127.0,15.0,125.0,-79.0,127.0,127.0,127.0,127.0,83.0,-113.0
126.0,127.0,127.0,127.0,126.0,127.0,114.0,127.0,15.0,125.0,-79.0,127.0,127.0,127.0,127.0,83.0,-113.0
126.0,127.0,127.0,127.0,127.0,127.0,112.0,127.0,15.0,125.0,-79.0,127.0,127.0,127.0,127.0,83.0,-113.0
126.0,126.0,127.0,126.0,126.0,127.0,113.0,127.0,15.0,125.0,-79.0,127.0,127.0,127.0,127.0,83.0,-113.0
126.0,127.0,127.0,126.0,127.0,127.0,110.0,128.0,15.0,125.0,-79.0,127.0,127.0,127.0,127.0,83.0,-113.0
126.0,127.0,127.0,126.0,127.0,127.0,109.0,128.0,15.0,125.0,-79.0,127.0,127.0,127.0,127.0,83.0,-113.0
126.0,127.0,127.0,126.0,127.0,127.0,108.0,128.0,15.0,125.0,-79.0,127.0,127.0,127.0,127.0,83.0,-113.0
126.0,127.0,127.0,127.0,127.0,127.0,111.0,128.0,15.0,125.0,-79.0,127.0,127.0,127.0,127.0,83.0,-113.0
126.0,127.0,127.0,127.0,127.0,127.0,112.0,127.0,15.0,125.0,-79.0,127.0,127.0,127.0,127.0,83.0,-113.0
126.0,127.0,127.0,127.0,127.0,127.0,113.0,127.0,15.0,125.0,-79.0,127.0,127.0,127.0,127.0,83.0,-113.0
126.0,127.0,127.0,127.0,127.0,127.0,113.0,127.0,15.0,125.0,-79.0,127.0,127.0,127.0,127.0,83.0,-113.0
127.0,127.0,127.0,127.0,127.0,127.0,113.0,128.0,16.0,125.0,-80.0,127.0,127.0,127.0,127.0,83.0,-113.0
127.0,127.0,127.0,127.0,127.0,127.0,113.0,128.0,16.0,125.0,-80.0,127.0,127.0,127.0,127.0,83.0,-113.0
127.0,127.0,127.0,127.0,127.0,127.0,113.0,128.0,16.0,125.0,-80.0,127.0,127.0,127.0,127.0,83.0,-113.0
127.0,127.0,127.0,127.0,127.0,127.0,113.0,128.0,16.0,125.0,-80.0,127.0,127.0,127.0,127.0,83.0,-113.0
127.0,127.0,127.0,127.0,127.0,127.0,113.0,128.0,16.0,125.0,-80.0,127.0,127.0,127.0,127.0,83.0,-113.0
127.0,127.0,127.0,127.0,127.0,127.0,112.0,128.0,16.0,125.0,-80.0,127.0,127.0,127.0,127.0,83.0,-113.0
127.0,127.0,127.0,127.0,127.0,127.0,108.0,128.0,16.0,125.0,-80.0,127.0,127.0,127.0,127.0,83.0,-113.0
127.0,127.0,127.0,127.0,127.0,127.0,109.0,128.0,16.0,125.0,-80.0,127.0,127.0,127.0,127.0,83.0,-113.0
127.0,127.0,127.0,127.0,127.0,127.0,113.0,128.0,16.0,125.0,-80.0,127.0,127.0,127.0,127.0,83.0,-113.0
127.0,127.0,127.0,127.0,127.0,127.0,114.0,128.0,16.0,125.0,-80.0,127.0,127.0,127.0,127.0,83.0,-113.0
127.0,127.0,127.0,127.0,127.0,127.0,109.0,128.0,17.0,125.0,-80.0,127.0,127.0,127.0,127.0,83.0,-113.0
127.0,127.0,127.0,127.0,127.0,127.0,110.0,128.0,17.0,125.0,-80.0,127.0,127.0,127.0,127.0,83.0,-113.0
127.0,127.0,127.0,127.0,127.0,127.0,109.0,128.0,17.0,125.0,-80.0,127.0,127.0,127.0,127.0,83.0,-113.0
127.0,127.0,127.0,127.0,127.0,127.0,111.0,128.0,17.0,125.0,-80.0,127.0,127.0,127.0,127.0,83.0,-113.0
127.0,127.0,127.0,127.0,127.0,127.0,111.0,128.0,17.0,125.0,-80.0,127.0,127.0,127.0,127.0,83.0,-113.0
127.0,127.0,127.0,127.0,127.0,127.0,111.0,128.0,17.0,125.0,-80.0,127.0,127.0,127.0,127.0,83.0,-113.0
127.0,127.0,127.0,127.0,127.0,127.0,112.0,128.0,17.0,125.0,-80.0,127.0,127.0,127.0,127.0,83.0,-113.0
127.0,127.0,127.0,127.0,127.0,127.0,113.0,128.0,17.0,125.0,-80.0,127.0,127.0,127.0,127.0,83.0,-113.0
127.0,127.0,127.0,127.0,127.0,127.0,113.0,128.0,17.0,125.0,-80.0,127.0,127.0,127.0,127.0,83.0,-113.0
127.0,127.0,127.0,127.0,127.0,127.0,112.0,128.0,17.0,125.0,-80.0,127.0,127.0,127.0,127.0,83.0,-113.0
127.0,127.0,127.0,127.0,127.0,127.0,106.0,128.0,17.0,125.0,-80.0,127.0,127.0,127.0,127.0,83.0,-113.0
127.0,127.0,127.0,127.0,127.0,127.0,106.0,128.0,17.0,125.0,-80.0,127.0,127.0,127.0,127.0,83.0,-113.0
127.0,127.0,127.0,127.0,127.0,127.0,107.0,128.0,17.0,125.0,-80.0,127.0,127.0,127.0,127.0,83.0,-113.0
127.0,127.0,127.0,127.0,127.0,127.0,106.0,128.0,17.0,125.0,-80.0,127.0,127.0,127.0,127.0,83.0,-113.0
127.0,127.0,127.0,127.0,127.0,127.0,106.0,128.0,17.0,125.0,-80.0,127.0,127.0,127.0,127.0,83.0,-113.0
127.0,127.0,127.0,127.0,127.0,127.0,106.0,128.0,17.0,125.0,-80.0,127.0,127.0,127.0,127.0,83.0,-113.0
127.0,127.0,127.0,127.0,127.0,127.0,105.0,128.0,17.0,125.0,-80.0,127.0,127.0,127.0,127.0,83.0,-113.0
127.0,127.0,127.0,127.0,127.0,127.0,106.0,128.0,17.0,125.0,-80.0,127.0,127.0,127.0,127.0,83.0,-113.0
126.0,127.0,127.0,127.0,127.0,127.0,108.0,128.0,17.0,125.0,-80.0,127.0,127.0,127.0,127.0,83.0,-113.0
127.0,127.0,127.0,127.0,127.0,127.0,106.0,128.0,17.0,125.0,-80.0,127.0,127.0,127.0,127.0,83.0,-113.0
127.0,127.0,127.0,126.0,127.0,127.0,107.0,128.0,16.0,125.0,-80.0,127.0,127.0,127.0,127.0,83.0,-113.0
127.0,127.0,127.0,127.0,127.0,127.0,106.0,128.0,16.0,125.0,-80.0,127.0,127.0,127.0,127.0,83.0,-113.0
127.0,127.0,127.0,127.0,127.0,127.0,106.0,128.0,16.0,125.0,-80.0,127.0,127.0,127.0,127.0,83.0,-113.0
127.0,127.0,127.0,127.0,127.0,127.0,106.0,128.0,16.0,125.0,-80.0,127.0,127.0,127.0,127.0,83.0,-113.0
126.0,127.0,127.0,127.0,127.0,127.0,106.0,128.0,16.0,125.0,-80.0,127.0,127.0,127.0,127.0,83.0,-113.0
127.0,127.0,127.0,127.0,127.0,127.0,106.0,128.0,16.0,125.0,-80.0,127.0,127.0,127.0,127.0,83.0,-113.0
127.0,127.0,127.0,127.0,127.0,127.0,106.0,128.0,16.0,125.0,-80.0,127.0,127.0,127.0,127.0,83.0,-113.0
127.0,127.0,127.0,127.0,127.0,127.0,109.0,128.0,16.0,125.0,-80.0,127.0,127.0,127.0,127.0,83.0,-113.0
127.0,127.0,127.0,127.0,127.0,127.0,107.0,129.0,16.0,125.0,-80.0,127.0,127.0,127.0,127.0,83.0,-113.0
127.0,127.0,127.0,127.0,127.0,127.0,107.0,128.0,16.0,125.0,-80.0,127.0,127.0,127.0,127.0,83.0,-113.0
127.0,127.0,127.0,127.0,127.0,127.0,111.0,128.0,15.0,126.0,-79.0,127.0,127.0,127.0,127.0,83.0,-113.0
127.0,127.0,127.0,127.0,127.0,127.0,108.0,128.0,15.0,126.0,-79.0,127.0,127.0,127.0,127.0,83.0,-113.0
127.0,127.0,127.0,127.0,127.0,127.0,111.0,128.0,15.0,126.0,-79.0,127.0,127.0,127.0,127.0,83.0,-113.0
127.0,127.0,127.0,127.0,127.0,127.0,113.0,128.0,15.0,126.0,-79.0,127.0,127.0,127.0,127.0,83.0,-113.0
127.0,127.0,127.0,127.0,127.0,127.0,114.0,128.0,15.0,126.0,-79.0,127.0,127.0,127.0,127.0,83.0,-113.0
127.0,127.0,127.0,127.0,127.0,127.0,113.0,128.0,15.0,126.0,-79.0,127.0,127.0,127.0,127.0,83.0,-113.0
127.0,127.0,127.0,127.0,127.0,127.0,112.0,128.0,15.0,126.0,-79.0,127.0,127.0,127.0,127.0,83.0,-113.0
127.0,127.0,127.0,127.0,127.0,127.0,107.0,128.0,15.0,126.0,-79.0,127.0,127.0,127.0,127.0,83.0,-113.0
127.0,127.0,127.0,127.0,127.0,127.0,107.0,128.0,15.0,126.0,-79.0,127.0,127.0,127.0,127.0,83.0,-113.0
127.0,127.0,127.0,127.0,127.0,127.0,107.0,128.0,15.0,126.0,-79.0,127.0,127.0,127.0,127.0,83.0,-113.0
127.0,127.0,127.0,126.0,127.0,127.0,106.0,128.0,14.0,126.0,-79.0,127.0,127.0,127.0,127.0,83.0,-113.0
127.0,127.0,127.0,127.0,127.0,127.0,106.0,128.0,14.0,126.0,-79.0,127.0,127.0,127.0,127.0,83.0,-113.0
127.0,127.0,127.0,127.0,127.0,127.0,109.0,128.0,14.0,126.0,-79.0,127.0,127.0,127.0,127.0,83.0,-113.0
127.0,127.0,127.0,127.0,127.0,127.0,111.0,128.0,14.0,126.0,-79.0,127.0,127.0,127.0,127.0,83.0,-113.0
127.0,127.0,127.0,127.0,127.0,127.0,113.0,128.0,14.0,126.0,-79.0,127.0,127.0,127.0,127.0,83.0,-113.0
127.0,126.0,127.0,127.0,126.0,127.0,114.0,128.0,14.0,126.0,-79.0,127.0,127.0,127.0,127.0,83.0,-113.0
126.0,127.0,127.0,126.0,127.0,127.0,107.0,128.0,14.0,126.0,-79.0,127.0,127.0,127.0,127.0,83.0,-113.0
127.0,127.0,127.0,126.0,127.0,127.0,106.0,128.0,14.0,126.0,-79.0,127.0,127.0,127.0,127.0,83.0,-113.0
127.0,127.0,127.0,126.0,127.0,127.0,106.0,128.0,14.0,126.0,-79.0,127.0,127.0,127.0,127.0,83.0,-113.0
127.0,127.0,127.0,126.0,127.0,127.0,109.0,128.0,14.0,126.0,-79.0,127.0,127.0,127.0,127.0,83.0,-113.0
127.0,127.0,127.0,127.0,126.0,127.0,106.0,128.0,14.0,126.0,-79.0,127.0,127.0,127.0,127.0,83.0,-113.0
127.0,127.0,127.0,127.0,127.0,127.0,107.0,128.0,14.0,126.0,-79.0,127.0,127.0,127.0,127.0,83.0,-113.0
127.0,127.0,127.0,127.0,127.0,127.0,107.0,128.0,14.0,126.0,-79.0,127.0,127.0,127.0,127.0,83.0,-113.0
127.0,127.0,127.0,127.0,127.0,127.0,107.0,128.0,14.0,126.0,-79.0,127.0,127.0,127.0,127.0,83.0,-113.0
127.0,127.0,127.0,127.0,127.0,127.0,106.0,128.0,14.0,126.0,-79.0,127.0,127.0,127.0,127.0,83.0,-113.0
127.0,127.0,127.0,127.0,127.0,127.0,106.0,128.0,14.0,126.0,-79.0,127.0,127.0,127.0,127.0,83.0,-113.0
127.0,127.0,127.0,127.0,127.0,127.0,106.0,128.0,14.0,126.0,-79.0,127.0,127.0,127.0,127.0,83.0,-113.0
127.0,127.0,127.0,127.0,126.0,127.0,106.0,128.0,14.0,126.0,-79.0,127.0,127.0,127.0,127.0,83.0,-113.0
127.0,126.0,127.0,127.0,126.0,127.0,106.0,128.0,14.0,126.0,-79.0,127.0,127.0,127.0,127.0,83.0,-113.0
127.0,127.0,127.0,127.0,126.0,127.0,106.0,128.0,14.0,126.0,-79.0,127.0,127.0,127.0,127.0,83.0,-113.0
127.0,127.0,127.0,127.0,126.0,127.0,106.0,128.0,14.0,126.0,-79.0,127.0,127.0,127.0,127.0,83.0,-113.0
127.0,127.0,127.0,127.0,127.0,127.0,107.0,128.0,14.0,126.0,-79.0,127.0,127.0,127.0,127.0,83.0,-113.0
127.0,127.0,127.0,127.0,127.0,127.0,106.0,128.0,14.0,126.0,-79.0,127.0,127.0,127.0,127.0,83.0,-113.0
127.0,127.0,127.0,127.0,127.0,127.0,106.0,128.0,14.0,126.0,-79.0,127.0,127.0,127.0,127.0,83.0,-113.0
127.0,127.0,127.0,127.0,127.0,127.0,107.0,128.0,14.0,126.0,-79.0,127.0,127.0,127.0,127.0,83.0,-113.0
127.0,127.0,127.0,127.0,127.0,127.0,106.0,128.0,14.0,126.0,-79.0,127.0,127.0,127.0,127.0,83.0,-113.0
127.0,127.0,127.0,127.0,127.0,127.0,106.0,128.0,14.0,126.0,-79.0,127.0,127.0,127.0,127.0,83.0,-113.0
127.0,127.0,127.0,127.0,127.0,127.0,106.0,128.0,14.0,126.0,-79.0,127.0,127.0,127.0,127.0,83.0,-113.0
127.0,127.0,127.0,127.0,126.0,127.0,106.0,128.0,14.0,126.0,-79.0,127.0,127.0,127.0,127.0,83.0,-113.0
127.0,127.0,127.0,127.0,126.0,127.0,106.0,128.0,14.0,126.0,-79.0,127.0,127.0,127.0,127.0,83.0,-113.0
127.0,127.0,127.0,127.0,127.0,127.0,109.0,128.0,15.0,126.0,-80.0,127.0,127.0,127.0,127.0,83.0,-113.0
127.0,127.0,127.0,127.0,127.0,127.0,108.0,128.0,15.0,126.0,-80.0,127.0,127.0,127.0,127.0,83.0,-113.0
126.0,127.0,127.0,127.0,127.0,127.0,110.0,128.0,15.0,126.0,-80.0,127.0,127.0,127.0,127.0,83.0,-113.0
127.0,126.0,127.0,127.0,127.0,127.0,109.0,128.0,15.0,126.0,-80.0,127.0,127.0,127.0,127.0,83.0,-113.0
127.0,126.0,127.0,127.0,127.0,127.0,110.0,128.0,15.0,126.0,-80.0,127.0,127.0,127.0,127.0,83.0,-113.0
127.0,127.0,127.0,127.0,127.0,127.0,111.0,127.0,15.0,126.0,-80.0,127.0,127.0,127.0,127.0,83.0,-113.0
126.0,127.0,127.0,127.0,127.0,127.0,108.0,128.0,15.0,126.0,-80.0,127.0,127.0,127.0,127.0,83.0,-113.0
127.0,127.0,127.0,127.0,127.0,127.0,106.0,128.0,15.0,126.0,-80.0,127.0,127.0,127.0,127.0,83.0,-113.0
127.0,127.0,127.0,127.0,127.0,127.0,106.0,128.0,15.0,126.0,-80.0,127.0,127.0,127.0,127.0,83.0,-113.0
127.0,127.0,127.0,127.0,127.0,127.0,107.0,128.0,15.0,126.0,-80.0,127.0,127.0,127.0,127.0,83.0,-113.0
127.0,126.0,127.0,127.0,127.0,127.0,112.0,127.0,16.0,125.0,-80.0,127.0,127.0,127.0,127.0,83.0,-113.0
127.0,126.0,127.0,127.0,127.0,127.0,112.0,127.0,16.0,125.0,-80.0,127.0,127.0,127.0,127.0,83.0,-113.0
127.0,126.0,127.0,127.0,126.0,127.0,112.0,127.0,16.0,125.0,-80.0,127.0,127.0,127.0,127.0,83.0,-113.0
127.0,126.0,127.0,127.0,126.0,127.0,112.0,128.0,16.0,125.0,-80.0,127.0,127.0,127.0,127.0,83.0,-113.0
127.0,126.0,127.0,127.0,126.0,127.0,112.0,127.0,16.0,125.0,-80.0,127.0,127.0,127.0,127.0,83.0,-113.0
127.0,126.0,127.0,127.0,126.0,127.0,112.0,127.0,16.0,125.0,-80.0,127.0,127.0,127.0,127.0,83.0,-113.0
127.0,126.0,127.0,127.0,126.0,127.0,112.0,127.0,16.0,125.0,-80.0,127.0,127.0,127.0,127.0,83.0,-113.0
127.0,126.0,127.0,127.0,126.0,127.0,112.0,127.0,16.0,125.0,-80.0,127.0,127.0,127.0,127.0,83.0,-113.0
127.0,126.0,127.0,127.0,126.0,127.0,112.0,127.0,16.0,125.0,-80.0,127.0,127.0,127.0,127.0,83.0,-113.0
127.0,126.0,127.0,127.0,127.0,127.0,112.0,127.0,16.0,125.0,-80.0,127.0,127.0,127.0,127.0,83.0,-113.0
126.0,127.0,127.0,127.0,127.0,127.0,113.0,128.0,16.0,125.0,-80.0,127.0,127.0,127.0,127.0,83.0,-113.0
127.0,127.0,127.0,127.0,127.0,127.0,113.0,128.0,16.0,125.0,-80.0,127.0,127.0,127.0,127.0,83.0,-113.0
127.0,127.0,127.0,127.0,127.0,127.0,112.0,128.0,16.0,125.0,-80.0,127.0,127.0,127.0,127.0,83.0,-113.0
127.0,127.0,127.0,127.0,127.0,127.0,113.0,128.0,16.0,125.0,-80.0,127.0,127.0,127.0,127.0,83.0,-113.0
127.0,127.0,127.0,127.0,127.0,127.0,113.0,128.0,16.0,125.0,-80.0,127.0,127.0,127.0,127.0,83.0,-113.0
127.0,126.0,127.0,127.0,127.0,127.0,113.0,128.0,16.0,125.0,-80.0,127.0,127.0,127.0,127.0,83.0,-113.0
127.0,127.0,127.0,127.0,127.0,127.0,113.0,128.0,16.0,125.0,-80.0,127.0,127.0,127.0,127.0,83.0,-113.0
126.0,126.0,127.0,127.0,127.0,127.0,113.0,128.0,16.0,125.0,-80.0,127.0,127.0,127.0,127.0,83.0,-113.0
126.0,127.0,127.0,127.0,127.0,127.0,113.0,128.0,16.0,125.0,-80.0,127.0,127.0,127.0,127.0,83.0,-113.0
126.0,127.0,127.0,127.0,127.0,127.0,114.0,128.0,16.0,125.0,-80.0,127.0,127.0,127.0,127.0,83.0,-113.0
127.0,127.0,127.0,127.0,127.0,127.0,106.0,128.0,16.0,125.0,-80.0,127.0,127.0,127.0,127.0,83.0,-113.0
127.0,127.0,127.0,127.0,127.0,127.0,106.0,128.0,16.0,125.0,-80.0,127.0,127.0,127.0,127.0,83.0,-113.0
127.0,127.0,127.0,127.0,127.0,127.0,106.0,128.0,16.0,125.0,-80.0,127.0,127.0,127.0,127.0,83.0,-113.0
127.0,127.0,127.0,127.0,127.0,127.0,106.0,128.0,16.0,125.0,-80.0,127.0,127.0,127.0,127.0,83.0,-113.0
127.0,127.0,127.0,127.0,127.0,127.0,109.0,128.0,16.0,125.0,-80.0,127.0,127.0,127.0,127.0,83.0,-113.0
127.0,127.0,127.0,127.0,127.0,127.0,109.0,128.0,16.0,125.0,-80.0,127.0,127.0,127.0,127.0,83.0,-113.0
127.0,127.0,127.0,127.0,127.0,127.0,111.0,128.0,16.0,125.0,-80.0,127.0,127.0,127.0,127.0,83.0,-113.0
127.0,127.0,127.0,127.0,127.0,127.0,113.0,128.0,16.0,125.0,-80.0,127.0,127.0,127.0,127.0,83.0,-113.0
127.0,127.0,127.0,127.0,127.0,127.0,114.0,128.0,16.0,125.0,-80.0,127.0,127.0,127.0,127.0,83.0,-113.0
127.0,127.0,127.0,127.0,127.0,127.0,113.0,128.0,16.0,125.0,-80.0,127.0,127.0,127.0,127.0,83.0,-113.0
127.0,127.0,127.0,127.0,127.0,127.0,110.0,128.0,15.0,125.0,-80.0,127.0,127.0,127.0,127.0,83.0,-113.0
127.0,127.0,127.0,127.0,127.0,127.0,111.0,128.0,15.0,125.0,-80.0,127.0,127.0,127.0,127.0,83.0,-113.0
126.0,127.0,127.0,127.0,127.0,127.0,111.0,128.0,15.0,125.0,-80.0,127.0,127.0,127.0,127.0,83.0,-113.0
126.0,127.0,127.0,127.0,127.0,127.0,108.0,128.0,15.0,125.0,-80.0,127.0,127.0,127.0,127.0,83.0,-113.0
126.0,127.0,127.0,127.0,127.0,127.0,106.0,128.0,15.0,125.0,-80.0,127.0,127.0,127.0,127.0,83.0,-113.0
126.0,127.0,127.0,127.0,127.0,127.0,106.0,128.0,15.0,125.0,-80.0,127.0,127.0,127.0,127.0,83.0,-113.0
126.0,127.0,127.0,127.0,127.0,127.0,105.0,128.0,15.0,125.0,-80.0,127.0,127.0,127.0,127.0,83.0,-113.0
126.0,127.0,127.0,127.0,127.0,127.0,107.0,128.0,15.0,125.0,-80.0,127.0,127.0,127.0,127.0,83.0,-113.0
126.0,127.0,127.0,127.0,127.0,127.0,107.0,128.0,15.0,125.0,-80.0,127.0,127.0,127.0,127.0,83.0,-113.0
127.0,127.0,127.0,127.0,127.0,127.0,109.0,128.0,15.0,125.0,-80.0,127.0,127.0,127.0,127.0,83.0,-113.0
127.0,127.0,127.0,127.0,127.0,127.0,106.0,128.0,15.0,125.0,-80.0,127.0,127.0,127.0,127.0,83.0,-113.0
127.0,127.0,127.0,127.0,127.0,127.0,106.0,128.0,15.0,125.0,-80.0,127.0,127.0,127.0,127.0,83.0,-113.0
127.0,127.0,127.0,127.0,126.0,127.0,106.0,128.0,15.0,125.0,-80.0,127.0,127.0,127.0,127.0,83.0,-113.0
127.0,127.0,127.0,127.0,126.0,127.0,106.0,128.0,15.0,125.0,-80.0,127.0,127.0,127.0,127.0,83.0,-113.0
127.0,127.0,127.0,127.0,126.0,127.0,105.0,128.0,15.0,125.0,-80.0,127.0,127.0,127.0,127.0,83.0,-113.0
127.0,127.0,127.0,127.0,126.0,127.0,109.0,128.0,15.0,125.0,-80.0,127.0,127.0,127.0,127.0,83.0,-113.0
127.0,127.0,127.0,127.0,127.0,127.0,110.0,128.0,15.0,125.0,-80.0,127.0,127.0,127.0,127.0,83.0,-113.0
127.0,127.0,127.0,127.0,127.0,127.0,109.0,128.0,15.0,125.0,-80.0,127.0,127.0,127.0,127.0,83.0,-113.0
127.0,127.0,127.0,127.0,127.0,127.0,106.0,128.0,15.0,125.0,-80.0,127.0,127.0,127.0,127.0,83.0,-113.0
127.0,127.0,127.0,127.0,127.0,127.0,106.0,128.0,15.0,125.0,-80.0,127.0,127.0,127.0,127.0,83.0,-113.0
127.0,127.0,127.0,127.0,127.0,127.0,106.0,128.0,14.0,126.0,-80.0,127.0,127.0,127.0,127.0,83.0,-113.0
127.0,127.0,127.0,127.0,127.0,127.0,106.0,128.0,14.0,126.0,-80.0,127.0,127.0,127.0,127.0,83.0,-113.0
127.0,127.0,127.0,127.0,127.0,127.0,106.0,128.0,14.0,126.0,-80.0,127.0,127.0,127.0,127.0,83.0,-113.0
127.0,127.0,127.0,127.0,127.0,127.0,106.0,128.0,14.0,126.0,-80.0,127.0,127.0,127.0,127.0,83.0,-113.0
127.0,127.0,127.0,127.0,127.0,127.0,108.0,128.0,14.0,126.0,-80.0,127.0,127.0,127.0,127.0,83.0,-113.0
127.0,127.0,127.0,127.0,126.0,127.0,110.0,128.0,14.0,126.0,-80.0,127.0,127.0,127.0,127.0,83.0,-113.0
127.0,127.0,127.0,127.0,127.0,127.0,113.0,128.0,14.0,126.0,-80.0,127.0,127.0,127.0,127.0,83.0,-113.0
127.0,127.0,127.0,127.0,127.0,127.0,106.0,128.0,14.0,126.0,-80.0,127.0,127.0,127.0,127.0,83.0,-113.0
127.0,127.0,127.0,127.0,127.0,127.0,106.0,128.0,14.0,126.0,-80.0,127.0,127.0,127.0,127.0,83.0,-113.0
127.0,127.0,127.0,127.0,127.0,127.0,106.0,128.0,14.0,126.0,-80.0,127.0,127.0,127.0,127.0,83.0,-113.0
127.0,127.0,127.0,127.0,127.0,127.0,106.0,128.0,13.0,126.0,-80.0,127.0,127.0,127.0,127.0,83.0,-113.0
127.0,127.0,127.0,127.0,127.0,127.0,109.0,128.0,13.0,126.0,-80.0,127.0,127.0,127.0,127.0,83.0,-113.0
127.0,127.0,127.0,127.0,127.0,127.0,110.0,128.0,13.0,126.0,-80.0,127.0,127.0,127.0,127.0,83.0,-113.0
127.0,127.0,127.0,127.0,127.0,127.0,113.0,128.0,13.0,126.0,-80.0,127.0,127.0,127.0,127.0,83.0,-113.0
127.0,127.0,127.0,127.0,127.0,127.0,113.0,128.0,13.0,126.0,-80.0,127.0,127.0,127.0,127.0,83.0,-113.0
127.0,127.0,127.0,127.0,127.0,127.0,113.0,128.0,13.0,126.0,-80.0,127.0,127.0,127.0,127.0,83.0,-113.0
127.0,127.0,127.0,127.0,127.0,127.0,106.0,128.0,13.0,126.0,-80.0,127.0,127.0,127.0,127.0,83.0,-113.0
127.0,127.0,127.0,127.0,127.0,127.0,106.0,128.0,13.0,126.0,-80.0,127.0,127.0,127.0,127.0,83.0,-113.0
127.0,127.0,127.0,127.0,127.0,127.0,105.0,128.0,13.0,126.0,-80.0,127.0,127.0,127.0,127.0,83.0,-113.0
127.0,127.0,127.0,127.0,127.0,127.0,106.0,128.0,13.0,126.0,-80.0,127.0,127.0,127.0,127.0,83.0,-113.0
127.0,127.0,127.0,127.0,127.0,127.0,107.0,128.0,14.0,126.0,-80.0,127.0,127.0,127.0,127.0,83.0,-113.0
127.0,127.0,127.0,127.0,127.0,127.0,108.0,128.0,14.0,126.0,-80.0,127.0,127.0,127.0,127.0,83.0,-113.0
127.0,127.0,127.0,127.0,127.0,127.0,111.0,128.0,14.0,126.0,-80.0,127.0,127.0,127.0,127.0,83.0,-113.0
127.0,126.0,127.0,127.0,126.0,127.0,113.0,128.0,14.0,126.0,-80.0,127.0,127.0,127.0,127.0,83.0,-113.0
127.0,127.0,127.0,127.0,126.0,127.0,113.0,128.0,14.0,126.0,-80.0,127.0,127.0,127.0,127.0,83.0,-113.0
127.0,127.0,127.0,127.0,127.0,127.0,106.0,128.0,14.0,126.0,-80.0,127.0,127.0,127.0,127.0,83.0,-113.0
127.0,127.0,127.0,127.0,127.0,127.0,106.0,128.0,14.0,126.0,-80.0,127.0,127.0,127.0,127.0,83.0,-113.0
127.0,127.0,127.0,127.0,127.0,127.0,106.0,128.0,14.0,126.0,-80.0,127.0,127.0,127.0,127.0,83.0,-113.0
127.0,127.0,127.0,127.0,127.0,127.0,106.0,128.0,14.0,126.0,-80.0,127.0,127.0,127.0,127.0,83.0,-113.0
127.0,127.0,127.0,127.0,127.0,127.0,105.0,128.0,14.0,126.0,-80.0,127.0,127.0,127.0,127.0,83.0,-113.0
127.0,126.0,127.0,127.0,127.0,127.0,113.0,128.0,14.0,125.0,-80.0,127.0,127.0,127.0,127.0,83.0,-113.0
127.0,127.0,127.0,127.0,127.0,127.0,113.0,127.0,14.0,125.0,-80.0,127.0,127.0,127.0,127.0,83.0,-113.0
127.0,127.0,127.0,127.0,127.0,127.0,110.0,128.0,14.0,125.0,-80.0,127.0,127.0,127.0,127.0,83.0,-113.0
127.0,127.0,127.0,127.0,127.0,127.0,106.0,128.0,14.0,125.0,-80.0,127.0,127.0,127.0,127.0,83.0,-113.0
127.0,126.0,127.0,127.0,127.0,127.0,112.0,128.0,14.0,125.0,-80.0,127.0,127.0,127.0,127.0,83.0,-113.0
127.0,126.0,127.0,127.0,127.0,127.0,113.0,127.0,14.0,125.0,-80.0,127.0,127.0,127.0,127.0,83.0,-113.0
127.0,127.0,127.0,127.0,127.0,127.0,113.0,128.0,14.0,125.0,-80.0,127.0,127.0,127.0,127.0,83.0,-113.0
127.0,127.0,127.0,127.0,127.0,127.0,111.0,128.0,14.0,125.0,-80.0,127.0,127.0,127.0,127.0,83.0,-113.0
127.0,127.0,127.0,127.0,127.0,127.0,112.0,128.0,14.0,125.0,-80.0,127.0,127.0,127.0,127.0,83.0,-113.0
127.0,126.0,127.0,127.0,127.0,127.0,113.0,128.0,14.0,125.0,-80.0,127.0,127.0,127.0,127.0,83.0,-113.0
127.0,126.0,127.0,127.0,126.0,127.0,113.0,128.0,15.0,125.0,-80.0,127.0,127.0,127.0,127.0,83.0,-113.0
127.0,126.0,127.0,127.0,126.0,127.0,113.0,128.0,15.0,125.0,-80.0,127.0,127.0,127.0,127.0,83.0,-113.0
127.0,126.0,127.0,127.0,126.0,127.0,113.0,128.0,15.0,125.0,-80.0,127.0,127.0,127.0,127.0,83.0,-113.0
127.0,127.0,127.0,127.0,127.0,127.0,106.0,128.0,15.0,125.0,-80.0,127.0,127.0,127.0,127.0,83.0,-113.0
127.0,126.0,127.0,127.0,126.0,127.0,105.0,128.0,15.0,125.0,-80.0,127.0,127.0,127.0,127.0,83.0,-113.0
127.0,126.0,127.0,127.0,126.0,127.0,106.0,128.0,15.0,125.0,-80.0,127.0,127.0,127.0,127.0,83.0,-113.0
127.0,126.0,127.0,127.0,126.0,127.0,108.0,128.0,15.0,125.0,-80.0,127.0,127.0,127.0,127.0,83.0,-113.0
127.0,127.0,127.0,127.0,126.0,127.0,109.0,128.0,15.0,125.0,-80.0,127.0,127.0,127.0,127.0,83.0,-113.0
127.0,126.0,127.0,127.0,126.0,127.0,112.0,128.0,15.0,125.0,-80.0,127.0,127.0,127.0,127.0,83.0,-113.0
127.0,126.0,127.0,127.0,126.0,127.0,113.0,128.0,15.0,125.0,-80.0,127.0,127.0,127.0,127.0,83.0,-113.0
127.0,127.0,127.0,127.0,127.0,127.0,113.0,128.0,15.0,125.0,-80.0,127.0,127.0,127.0,127.0,83.0,-113.0
127.0,127.0,127.0,127.0,127.0,127.0,113.0,128.0,15.0,125.0,-80.0,127.0,127.0,127.0,127.0,83.0,-113.0
127.0,127.0,127.0,127.0,127.0,127.0,106.0,128.0,15.0,125.0,-80.0,127.0,127.0,127.0,127.0,83.0,-113.0
127.0,127.0,127.0,127.0,127.0,127.0,106.0,128.0,15.0,125.0,-80.0,127.0,127.0,127.0,127.0,83.0,-113.0
127.0,127.0,127.0,127.0,127.0,127.0,106.0,128.0,15.0,125.0,-80.0,127.0,127.0,127.0,127.0,83.0,-113.0
127.0,127.0,127.0,127.0,127.0,127.0,107.0,128.0,15.0,125.0,-80.0,127.0,127.0,127.0,127.0,83.0,-113.0
127.0,127.0,127.0,127.0,127.0,127.0,106.0,128.0,15.0,125.0,-80.0,127.0,127.0,127.0,127.0,83.0,-113.0
127.0,127.0,127.0,127.0,127.0,127.0,107.0,128.0,15.0,125.0,-80.0,127.0,127.0,127.0,127.0,83.0,-113.0
127.0,127.0,127.0,127.0,127.0,127.0,110.0,128.0,15.0,125.0,-80.0,127.0,127.0,127.0,127.0,83.0,-113.0
127.0,127.0,127.0,127.0,127.0,127.0,112.0,128.0,15.0,125.0,-80.0,127.0,127.0,127.0,127.0,83.0,-113.0
127.0,127.0,127.0,127.0,127.0,127.0,110.0,128.0,16.0,125.0,-80.0,127.0,127.0,127.0,127.0,83.0,-113.0
126.0,127.0,127.0,127.0,127.0,127.0,107.0,128.0,16.0,125.0,-80.0,127.0,127.0,127.0,127.0,83.0,-113.0
127.0,127.0,127.0,127.0,127.0,127.0,106.0,128.0,16.0,125.0,-80.0,127.0,127.0,127.0,127.0,83.0,-113.0
127.0,127.0,127.0,127.0,127.0,127.0,106.0,128.0,16.0,125.0,-80.0,127.0,127.0,127.0,127.0,83.0,-113.0
127.0,127.0,127.0,127.0,127.0,127.0,106.0,128.0,16.0,125.0,-80.0,127.0,127.0,127.0,127.0,83.0,-113.0
127.0,127.0,127.0,126.0,127.0,127.0,106.0,128.0,16.0,125.0,-80.0,127.0,127.0,127.0,127.0,83.0,-113.0
127.0,127.0,127.0,127.0,127.0,127.0,106.0,128.0,16.0,125.0,-80.0,127.0,127.0,127.0,127.0,83.0,-113.0
127.0,127.0,127.0,126.0,127.0,127.0,106.0,128.0,16.0,125.0,-80.0,127.0,127.0,127.0,127.0,83.0,-113.0
127.0,127.0,127.0,127.0,127.0,127.0,106.0,128.0,16.0,125.0,-80.0,127.0,127.0,127.0,127.0,83.0,-113.0
127.0,127.0,127.0,127.0,127.0,127.0,108.0,128.0,16.0,125.0,-80.0,127.0,127.0,127.0,127.0,83.0,-113.0
126.0,127.0,127.0,127.0,127.0,127.0,108.0,128.0,15.0,125.0,-80.0,127.0,127.0,127.0,127.0,83.0,-113.0
126.0,127.0,127.0,127.0,127.0,127.0,109.0,128.0,15.0,125.0,-80.0,127.0,127.0,127.0,127.0,83.0,-113.0
126.0,127.0,127.0,127.0,127.0,127.0,110.0,128.0,15.0,125.0,-80.0,127.0,127.0,127.0,127.0,83.0,-113.0
126.0,127.0,127.0,127.0,127.0,127.0,107.0,128.0,15.0,125.0,-80.0,127.0,127.0,127.0,127.0,83.0,-113.0
126.0,127.0,127.0,127.0,127.0,127.0,106.0,128.0,15.0,125.0,-80.0,127.0,127.0,127.0,127.0,83.0,-113.0
126.0,127.0,127.0,127.0,127.0,127.0,105.0,128.0,15.0,125.0,-80.0,127.0,127.0,127.0,127.0,83.0,-113.0
126.0,127.0,127.0,127.0,127.0,127.0,109.0,128.0,15.0,125.0,-80.0,127.0,127.0,127.0,127.0,83.0,-113.0
126.0,127.0,127.0,127.0,127.0,127.0,109.0,128.0,15.0,125.0,-80.0,127.0,127.0,127.0,127.0,83.0,-113.0
126.0,127.0,127.0,127.0,127.0,127.0,112.0,128.0,15.0,125.0,-80.0,127.0,127.0,127.0,127.0,83.0,-113.0
127.0,127.0,127.0,127.0,127.0,127.0,113.0,128.0,15.0,125.0,-80.0,127.0,127.0,127.0,127.0,83.0,-113.0
127.0,127.0,127.0,127.0,127.0,127.0,112.0,128.0,15.0,125.0,-80.0,127.0,127.0,127.0,127.0,83.0,-113.0
127.0,127.0,127.0,127.0,127.0,127.0,114.0,128.0,15.0,125.0,-80.0,127.0,127.0,127.0,127.0,83.0,-113.0
127.0,127.0,127.0,127.0,127.0,127.0,113.0,128.0,15.0,125.0,-80.0,127.0,127.0,127.0,127.0,83.0,-113.0
127.0,127.0,127.0,127.0,127.0,127.0,113.0,128.0,15.0,125.0,-80.0,127.0,127.0,127.0,127.0,83.0,-113.0
127.0,127.0,127.0,127.0,127.0,127.0,112.0,128.0,15.0,125.0,-80.0,127.0,127.0,127.0,127.0,83.0,-113.0
127.0,127.0,127.0,127.0,127.0,127.0,107.0,128.0,15.0,125.0,-80.0,127.0,127.0,127.0,127.0,83.0,-113.0
127.0,127.0,127.0,127.0,127.0,127.0,106.0,129.0,15.0,125.0,-80.0,127.0,127.0,127.0,127.0,83.0,-113.0
127.0,127.0,127.0,127.0,127.0,127.0,106.0,128.0,15.0,125.0,-80.0,127.0,127.0,127.0,127.0,83.0,-113.0
127.0,127.0,127.0,127.0,127.0,127.0,106.0,129.0,15.0,125.0,-80.0,127.0,127.0,127.0,127.0,83.0,-113.0
127.0,127.0,127.0,127.0,127.0,127.0,112.0,128.0,15.0,125.0,-80.0,127.0,127.0,127.0,127.0,83.0,-113.0
127.0,127.0,127.0,126.0,127.0,127.0,108.0,128.0,14.0,125.0,-80.0,127.0,127.0,127.0,127.0,83.0,-113.0
127.0,127.0,127.0,127.0,127.0,127.0,107.0,129.0,14.0,125.0,-80.0,127.0,127.0,127.0,127.0,83.0,-113.0
127.0,127.0,127.0,127.0,127.0,127.0,106.0,128.0,14.0,125.0,-80.0,127.0,127.0,127.0,127.0,83.0,-113.0
127.0,127.0,127.0,127.0,127.0,127.0,106.0,129.0,14.0,125.0,-80.0,127.0,127.0,127.0,127.0,83.0,-113.0
127.0,127.0,127.0,127.0,127.0,127.0,106.0,128.0,14.0,125.0,-80.0,127.0,127.0,127.0,127.0,83.0,-113.0
127.0,127.0,127.0,127.0,127.0,127.0,108.0,128.0,14.0,125.0,-80.0,127.0,127.0,127.0,127.0,83.0,-113.0
127.0,127.0,127.0,127.0,127.0,127.0,107.0,128.0,14.0,125.0,-80.0,127.0,127.0,127.0,127.0,83.0,-113.0
127.0,127.0,127.0,127.0,127.0,127.0,108.0,128.0,14.0,125.0,-80.0,127.0,127.0,127.0,127.0,83.0,-113.0
127.0,127.0,127.0,126.0,127.0,127.0,108.0,128.0,14.0,125.0,-80.0,127.0,127.0,127.0,127.0,83.0,-113.0
127.0,127.0,127.0,127.0,127.0,127.0,106.0,128.0,14.0,125.0,-80.0,127.0,127.0,127.0,127.0,83.0,-113.0
127.0,127.0,127.0,126.0,126.0,127.0,109.0,128.0,13.0,126.0,-80.0,127.0,127.0,127.0,127.0,83.0,-113.0
127.0,127.0,127.0,126.0,127.0,127.0,107.0,128.0,13.0,126.0,-80.0,127.0,127.0,127.0,127.0,83.0,-113.0
127.0,127.0,127.0,126.0,126.0,127.0,106.0,128.0,13.0,126.0,-80.0,127.0,127.0,127.0,127.0,83.0,-113.0
127.0,127.0,127.0,126.0,126.0,127.0,106.0,128.0,13.0,126.0,-80.0,127.0,127.0,127.0,127.0,83.0,-113.0
127.0,127.0,127.0,126.0,126.0,127.0,106.0,128.0,13.0,126.0,-80.0,127.0,127.0,127.0,127.0,83.0,-113.0
127.0,127.0,127.0,126.0,126.0,127.0,106.0,128.0,13.0,126.0,-80.0,127.0,127.0,127.0,127.0,83.0,-113.0
127.0,127.0,127.0,126.0,126.0,127.0,106.0,128.0,13.0,126.0,-80.0,127.0,127.0,127.0,127.0,83.0,-113.0
127.0,127.0,127.0,126.0,126.0,127.0,113.0,128.0,13.0,126.0,-80.0,127.0,127.0,127.0,127.0,83.0,-113.0
127.0,127.0,127.0,126.0,126.0,127.0,114.0,128.0,13.0,126.0,-80.0,127.0,127.0,127.0,127.0,83.0,-113.0
127.0,127.0,127.0,126.0,126.0,127.0,112.0,128.0,13.0,126.0,-80.0,127.0,127.0,127.0,127.0,83.0,-113.0
127.0,126.0,127.0,127.0,127.0,127.0,113.0,128.0,13.0,126.0,-80.0,127.0,127.0,127.0,127.0,83.0,-113.0
127.0,126.0,127.0,127.0,127.0,127.0,113.0,128.0,13.0,126.0,-80.0,127.0,127.0,127.0,127.0,83.0,-113.0
127.0,127.0,127.0,127.0,127.0,127.0,112.0,128.0,13.0,126.0,-80.0,127.0,127.0,127.0,127.0,83.0,-113.0
127.0,127.0,127.0,127.0,127.0,127.0,107.0,128.0,13.0,126.0,-80.0,127.0,127.0,127.0,127.0,83.0,-113.0
127.0,127.0,127.0,127.0,127.0,127.0,106.0,128.0,13.0,126.0,-80.0,127.0,127.0,127.0,127.0,83.0,-113.0
127.0,127.0,127.0,127.0,127.0,127.0,106.0,128.0,13.0,126.0,-80.0,127.0,127.0,127.0,127.0,83.0,-113.0
127.0,126.0,127.0,127.0,127.0,127.0,114.0,128.0,13.0,126.0,-80.0,127.0,127.0,127.0,127.0,83.0,-113.0
127.0,126.0,127.0,127.0,127.0,127.0,112.0,128.0,13.0,126.0,-80.0,127.0,127.0,127.0,127.0,83.0,-113.0
127.0,126.0,127.0,127.0,127.0,127.0,111.0,128.0,13.0,126.0,-80.0,127.0,127.0,127.0,127.0,83.0,-113.0
127.0,126.0,127.0,127.0,127.0,127.0,112.0,128.0,13.0,126.0,-80.0,127.0,127.0,127.0,127.0,83.0,-113.0
126.0,127.0,127.0,127.0,127.0,127.0,106.0,128.0,14.0,125.0,-80.0,127.0,127.0,127.0,127.0,83.0,-113.0
127.0,127.0,127.0,127.0,127.0,127.0,108.0,128.0,14.0,125.0,-80.0,127.0,127.0,127.0,127.0,83.0,-113.0
126.0,126.0,127.0,127.0,127.0,127.0,112.0,128.0,14.0,125.0,-80.0,127.0,127.0,127.0,127.0,83.0,-113.0
127.0,127.0,127.0,127.0,127.0,127.0,114.0,128.0,14.0,125.0,-80.0,127.0,127.0,127.0,127.0,83.0,-113.0
127.0,127.0,127.0,127.0,127.0,127.0,113.0,128.0,14.0,125.0,-80.0,127.0,127.0,127.0,127.0,83.0,-113.0
126.0,127.0,127.0,127.0,127.0,127.0,113.0,128.0,14.0,125.0,-80.0,127.0,127.0,127.0,127.0,83.0,-113.0
126.0,127.0,127.0,127.0,127.0,127.0,109.0,128.0,14.0,125.0,-80.0,127.0,127.0,127.0,127.0,83.0,-113.0
126.0,127.0,127.0,127.0,127.0,127.0,107.0,128.0,14.0,125.0,-80.0,127.0,127.0,127.0,127.0,83.0,-113.0
126.0,127.0,127.0,127.0,127.0,127.0,107.0,128.0,14.0,125.0,-80.0,127.0,127.0,127.0,127.0,83.0,-113.0
126.0,127.0,127.0,127.0,127.0,127.0,108.0,128.0,14.0,125.0,-80.0,127.0,127.0,127.0,127.0,83.0,-113.0
127.0,126.0,127.0,127.0,127.0,127.0,109.0,128.0,14.0,125.0,-80.0,127.0,127.0,127.0,127.0,83.0,-113.0
127.0,126.0,127.0,127.0,126.0,127.0,112.0,128.0,14.0,125.0,-80.0,127.0,127.0,127.0,127.0,83.0,-113.0
127.0,126.0,127.0,127.0,126.0,127.0,111.0,128.0,14.0,125.0,-80.0,127.0,127.0,127.0,127.0,83.0,-113.0
127.0,126.0,127.0,127.0,126.0,127.0,113.0,128.0,14.0,125.0,-80.0,127.0,127.0,127.0,127.0,83.0,-113.0
127.0,127.0,127.0,127.0,127.0,127.0,109.0,128.0,14.0,125.0,-80.0,127.0,127.0,127.0,127.0,83.0,-113.0
126.0,127.0,127.0,127.0,127.0,127.0,107.0,128.0,14.0,125.0,-80.0,127.0,127.0,127.0,127.0,83.0,-113.0
127.0,127.0,127.0,127.0,127.0,127.0,106.0,128.0,14.0,125.0,-80.0,127.0,127.0,127.0,127.0,83.0,-113.0
