emg1,emg2,emg3,emg4,emg5,emg6,emg7,emg8,acc_x,acc_y,acc_z,gyro_x,gyro_y,gyro_z,angle_pitch,angle_roll,angle_yaw
126.0,127.0,127.0,127.0,127.0,127.0,111.0,128.0,6.0,123.0,-93.0,127.0,127.0,127.0,-128.0,77.0,-113.0
126.0,127.0,127.0,127.0,127.0,127.0,112.0,128.0,6.0,123.0,-93.0,127.0,127.0,127.0,-128.0,77.0,-113.0
127.0,127.0,127.0,127.0,127.0,127.0,113.0,128.0,6.0,123.0,-93.0,127.0,127.0,127.0,-128.0,77.0,-113.0
127.0,127.0,127.0,127.0,127.0,127.0,113.0,128.0,6.0,123.0,-93.0,127.0,127.0,127.0,-128.0,77.0,-113.0
126.0,127.0,127.0,127.0,127.0,127.0,113.0,128.0,6.0,123.0,-93.0,127.0,127.0,127.0,-128.0,77.0,-113.0
126.0,127.0,127.0,127.0,127.0,127.0,112.0,128.0,6.0,123.0,-93.0,127.0,127.0,127.0,-128.0,77.0,-113.0
126.0,127.0,127.0,127.0,127.0,127.0,112.0,128.0,6.0,123.0,-93.0,127.0,127.0,127.0,-128.0,77.0,-113.0
126.0,127.0,127.0,127.0,127.0,127.0,113.0,128.0,6.0,123.0,-93.0,127.0,127.0,127.0,-128.0,77.0,-113.0
126.0,127.0,127.0,127.0,127.0,127.0,113.0,128.0,6.0,123.0,-93.0,127.0,127.0,127.0,-128.0,77.0,-113.0
126.0,127.0,127.0,127.0,127.0,127.0,113.0,128.0,6.0,123.0,-93.0,127.0,127.0,127.0,-128.0,77.0,-113.0
126.0,127.0,127.0,128.0,127.0,127.0,106.0,128.0,7.0,123.0,-92.0,127.0,127.0,127.0,-128.0,77.0,-113.0
127.0,127.0,127.0,127.0,127.0,127.0,106.0,128.0,7.0,123.0,-92.0,127.0,127.0,127.0,-128.0,77.0,-113.0
127.0,127.0,127.0,127.0,127.0,127.0,106.0,128.0,7.0,123.0,-92.0,127.0,127.0,127.0,-128.0,77.0,-113.0
127.0,127.0,127.0,127.0,127.0,127.0,106.0,128.0,7.0,123.0,-92.0,127.0,127.0,127.0,-128.0,77.0,-113.0
126.0,127.0,127.0,127.0,127.0,127.0,107.0,128.0,7.0,123.0,-92.0,127.0,127.0,127.0,-128.0,77.0,-113.0
126.0,127.0,127.0,127.0,127.0,127.0,107.0,128.0,7.0,123.0,-92.0,127.0,127.0,127.0,-128.0,77.0,-113.0
126.0,127.0,127.0,127.0,127.0,127.0,106.0,128.0,7.0,123.0,-92.0,127.0,127.0,127.0,-128.0,77.0,-113.0
126.0,127.0,127.0,127.0,127.0,127.0,106.0,128.0,7.0,123.0,-92.0,127.0,127.0,127.0,-128.0,77.0,-113.0
126.0,127.0,127.0,127.0,127.0,127.0,106.0,128.0,7.0,123.0,-92.0,127.0,127.0,127.0,-128.0,77.0,-113.0
126.0,127.0,127.0,128.0,127.0,127.0,106.0,128.0,7.0,123.0,-92.0,127.0,127.0,127.0,-128.0,77.0,-113.0
127.0,126.0,127.0,127.0,127.0,127.0,113.0,128.0,7.0,123.0,-92.0,127.0,127.0,127.0,-128.0,77.0,-113.0
127.0,127.0,127.0,127.0,127.0,127.0,112.0,128.0,7.0,123.0,-92.0,127.0,127.0,127.0,-128.0,77.0,-113.0
127.0,127.0,127.0,127.0,127.0,127.0,113.0,128.0,7.0,123.0,-92.0,127.0,127.0,127.0,-128.0,77.0,-113.0
127.0,127.0,127.0,127.0,127.0,127.0,113.0,128.0,7.0,123.0,-92.0,127.0,127.0,127.0,-128.0,77.0,-113.0
127.0,127.0,127.0,127.0,127.0,127.0,112.0,128.0,7.0,123.0,-92.0,127.0,127.0,127.0,-128.0,77.0,-113.0
127.0,127.0,127.0,127.0,127.0,127.0,112.0,128.0,7.0,123.0,-92.0,127.0,127.0,127.0,-128.0,77.0,-113.0
126.0,127.0,127.0,127.0,127.0,127.0,112.0,128.0,7.0,123.0,-92.0,127.0,127.0,127.0,-128.0,77.0,-113.0
126.0,127.0,127.0,127.0,127.0,127.0,112.0,128.0,7.0,123.0,-92.0,127.0,127.0,127.0,-128.0,77.0,-113.0
126.0,127.0,127.0,127.0,127.0,127.0,109.0,128.0,7.0,123.0,-92.0,127.0,127.0,127.0,-128.0,77.0,-113.0
127.0,127.0,127.0,127.0,127.0,127.0,110.0,128.0,7.0,123.0,-92.0,127.0,127.0,127.0,-128.0,77.0,-113.0
127.0,127.0,127.0,127.0,127.0,127.0,106.0,128.0,7.0,123.0,-92.0,127.0,127.0,127.0,-128.0,77.0,-113.0
127.0,127.0,127.0,127.0,127.0,127.0,106.0,128.0,7.0,123.0,-92.0,127.0,127.0,127.0,-128.0,77.0,-113.0
126.0,127.0,127.0,127.0,127.0,127.0,106.0,128.0,7.0,123.0,-92.0,127.0,127.0,127.0,-128.0,77.0,-113.0
126.0,127.0,127.0,127.0,127.0,127.0,106.0,128.0,7.0,123.0,-92.0,127.0,127.0,127.0,-128.0,77.0,-113.0
127.0,127.0,127.0,127.0,127.0,127.0,106.0,128.0,7.0,123.0,-92.0,127.0,127.0,127.0,-128.0,77.0,-113.0
127.0,127.0,127.0,127.0,127.0,127.0,107.0,128.0,7.0,123.0,-92.0,127.0,127.0,127.0,-128.0,77.0,-113.0
127.0,127.0,127.0,127.0,127.0,127.0,110.0,128.0,7.0,123.0,-92.0,127.0,127.0,127.0,-128.0,77.0,-113.0
127.0,127.0,127.0,127.0,127.0,127.0,113.0,128.0,7.0,123.0,-92.0,127.0,127.0,127.0,-128.0,77.0,-113.0
127.0,127.0,127.0,127.0,127.0,127.0,113.0,128.0,7.0,123.0,-92.0,127.0,127.0,127.0,-128.0,77.0,-113.0
127.0,127.0,127.0,127.0,127.0,127.0,106.0,128.0,7.0,123.0,-92.0,127.0,127.0,127.0,-128.0,77.0,-113.0
126.0,127.0,127.0,127.0,127.0,127.0,106.0,128.0,7.0,123.0,-92.0,127.0,127.0,127.0,-128.0,77.0,-113.0
126.0,127.0,127.0,127.0,127.0,127.0,106.0,128.0,7.0,123.0,-92.0,127.0,127.0,127.0,-128.0,77.0,-113.0
126.0,127.0,127.0,127.0,127.0,127.0,106.0,128.0,7.0,123.0,-92.0,127.0,127.0,127.0,-128.0,77.0,-113.0
126.0,127.0,127.0,127.0,127.0,127.0,108.0,128.0,7.0,123.0,-92.0,127.0,127.0,127.0,-128.0,77.0,-113.0
126.0,127.0,127.0,127.0,127.0,127.0,111.0,128.0,7.0,123.0,-92.0,127.0,127.0,127.0,-128.0,77.0,-113.0
126.0,127.0,127.0,127.0,127.0,127.0,113.0,128.0,7.0,123.0,-92.0,127.0,127.0,127.0,-128.0,77.0,-113.0
126.0,127.0,127.0,127.0,127.0,127.0,113.0,128.0,7.0,123.0,-92.0,127.0,127.0,127.0,-128.0,77.0,-113.0
126.0,127.0,127.0,127.0,127.0,127.0,111.0,128.0,7.0,123.0,-92.0,127.0,127.0,127.0,-128.0,77.0,-113.0
126.0,127.0,127.0,127.0,127.0,127.0,106.0,128.0,7.0,123.0,-92.0,127.0,127.0,127.0,-128.0,77.0,-113.0
126.0,127.0,127.0,127.0,127.0,127.0,106.0,128.0,7.0,123.0,-92.0,127.0,127.0,127.0,-128.0,77.0,-113.0
126.0,127.0,127.0,127.0,127.0,127.0,106.0,128.0,7.0,123.0,-93.0,127.0,127.0,127.0,-128.0,77.0,-113.0
126.0,127.0,127.0,127.0,127.0,127.0,106.0,128.0,7.0,123.0,-93.0,127.0,127.0,127.0,-128.0,77.0,-113.0
126.0,127.0,127.0,127.0,127.0,127.0,106.0,128.0,7.0,123.0,-93.0,127.0,127.0,127.0,-128.0,77.0,-113.0
126.0,127.0,127.0,127.0,127.0,127.0,106.0,128.0,7.0,123.0,-93.0,127.0,127.0,127.0,-128.0,77.0,-113.0
126.0,127.0,127.0,127.0,127.0,127.0,107.0,128.0,7.0,123.0,-93.0,127.0,127.0,127.0,-128.0,77.0,-113.0
126.0,127.0,127.0,127.0,127.0,127.0,111.0,128.0,7.0,123.0,-93.0,127.0,127.0,127.0,-128.0,77.0,-113.0
126.0,127.0,127.0,127.0,127.0,127.0,109.0,128.0,7.0,123.0,-93.0,127.0,127.0,127.0,-128.0,77.0,-113.0
127.0,127.0,127.0,127.0,127.0,127.0,107.0,128.0,7.0,123.0,-93.0,127.0,127.0,127.0,-128.0,77.0,-113.0
126.0,127.0,127.0,127.0,127.0,127.0,106.0,128.0,7.0,123.0,-93.0,127.0,127.0,127.0,-128.0,77.0,-113.0
126.0,127.0,127.0,127.0,127.0,127.0,106.0,128.0,7.0,123.0,-93.0,127.0,127.0,127.0,-128.0,77.0,-113.0
126.0,127.0,127.0,127.0,127.0,127.0,107.0,128.0,7.0,123.0,-93.0,127.0,127.0,127.0,-128.0,77.0,-113.0
126.0,127.0,127.0,127.0,127.0,127.0,110.0,128.0,7.0,123.0,-93.0,127.0,127.0,127.0,-128.0,77.0,-113.0
126.0,127.0,127.0,127.0,127.0,127.0,110.0,128.0,7.0,123.0,-93.0,127.0,127.0,127.0,-128.0,77.0,-113.0
127.0,127.0,127.0,127.0,127.0,127.0,112.0,128.0,7.0,123.0,-93.0,127.0,127.0,127.0,-128.0,77.0,-113.0
127.0,127.0,127.0,127.0,127.0,127.0,113.0,128.0,7.0,123.0,-93.0,127.0,127.0,127.0,-128.0,77.0,-113.0
126.0,127.0,127.0,127.0,127.0,127.0,113.0,128.0,7.0,123.0,-93.0,127.0,127.0,127.0,-128.0,77.0,-113.0
127.0,127.0,127.0,127.0,127.0,127.0,107.0,128.0,7.0,123.0,-93.0,127.0,127.0,127.0,-128.0,77.0,-113.0
127.0,127.0,127.0,127.0,127.0,127.0,106.0,128.0,7.0,123.0,-93.0,127.0,127.0,127.0,-128.0,77.0,-113.0
127.0,127.0,127.0,127.0,127.0,127.0,108.0,128.0,7.0,123.0,-93.0,127.0,127.0,127.0,-128.0,77.0,-113.0
126.0,127.0,127.0,127.0,127.0,127.0,106.0,128.0,7.0,123.0,-93.0,127.0,127.0,127.0,-128.0,77.0,-113.0
126.0,128.0,127.0,127.0,127.0,127.0,106.0,128.0,7.0,123.0,-93.0,127.0,127.0,127.0,-128.0,77.0,-113.0
126.0,127.0,127.0,127.0,127.0,127.0,106.0,128.0,7.0,123.0,-93.0,127.0,127.0,127.0,-128.0,77.0,-113.0
127.0,127.0,127.0,127.0,127.0,127.0,107.0,128.0,7.0,123.0,-93.0,127.0,127.0,127.0,-128.0,77.0,-113.0
127.0,127.0,127.0,127.0,127.0,127.0,106.0,128.0,7.0,123.0,-93.0,127.0,127.0,127.0,-128.0,77.0,-113.0
127.0,127.0,127.0,127.0,127.0,127.0,106.0,128.0,7.0,123.0,-93.0,127.0,127.0,127.0,-128.0,77.0,-113.0
127.0,127.0,127.0,127.0,127.0,127.0,106.0,128.0,7.0,123.0,-93.0,127.0,127.0,127.0,-128.0,77.0,-113.0
126.0,127.0,127.0,127.0,127.0,127.0,106.0,128.0,7.0,123.0,-93.0,127.0,127.0,127.0,-128.0,77.0,-113.0
126.0,127.0,127.0,127.0,127.0,127.0,106.0,128.0,7.0,123.0,-93.0,127.0,127.0,127.0,-128.0,77.0,-113.0
126.0,127.0,127.0,127.0,127.0,127.0,107.0,128.0,7.0,123.0,-93.0,127.0,127.0,127.0,-128.0,77.0,-113.0
126.0,127.0,127.0,127.0,127.0,127.0,107.0,128.0,7.0,123.0,-93.0,127.0,127.0,127.0,-128.0,77.0,-113.0
126.0,127.0,127.0,127.0,127.0,127.0,108.0,128.0,7.0,123.0,-93.0,127.0,127.0,127.0,-127.0,77.0,-113.0
127.0,127.0,127.0,127.0,127.0,127.0,106.0,128.0,7.0,123.0,-93.0,127.0,127.0,127.0,-127.0,77.0,-113.0
127.0,127.0,127.0,127.0,127.0,127.0,106.0,128.0,7.0,123.0,-93.0,127.0,127.0,127.0,-127.0,77.0,-113.0
127.0,127.0,128.0,127.0,127.0,127.0,108.0,128.0,7.0,123.0,-93.0,127.0,127.0,127.0,-127.0,77.0,-113.0
127.0,127.0,127.0,127.0,127.0,127.0,110.0,128.0,7.0,123.0,-93.0,127.0,127.0,127.0,-127.0,77.0,-113.0
126.0,127.0,127.0,127.0,127.0,127.0,109.0,128.0,7.0,123.0,-93.0,127.0,127.0,127.0,-127.0,77.0,-113.0
126.0,127.0,127.0,127.0,127.0,127.0,108.0,128.0,7.0,123.0,-93.0,127.0,127.0,127.0,-127.0,77.0,-113.0
126.0,127.0,127.0,127.0,127.0,127.0,106.0,128.0,7.0,123.0,-93.0,127.0,127.0,127.0,-127.0,77.0,-113.0
126.0,127.0,127.0,127.0,127.0,127.0,106.0,128.0,7.0,123.0,-93.0,127.0,127.0,127.0,-127.0,77.0,-113.0
126.0,127.0,127.0,127.0,127.0,127.0,106.0,128.0,7.0,123.0,-93.0,127.0,127.0,127.0,-127.0,77.0,-113.0
126.0,127.0,127.0,127.0,127.0,127.0,107.0,128.0,7.0,123.0,-93.0,127.0,127.0,127.0,-127.0,77.0,-113.0
126.0,127.0,127.0,127.0,127.0,127.0,106.0,128.0,7.0,123.0,-93.0,127.0,127.0,127.0,-127.0,77.0,-113.0
126.0,127.0,127.0,127.0,127.0,127.0,106.0,128.0,7.0,123.0,-93.0,127.0,127.0,127.0,-127.0,77.0,-113.0
127.0,127.0,127.0,127.0,127.0,127.0,107.0,128.0,7.0,123.0,-93.0,127.0,127.0,127.0,-127.0,77.0,-113.0
127.0,127.0,127.0,127.0,127.0,127.0,107.0,128.0,7.0,123.0,-93.0,127.0,127.0,127.0,-127.0,77.0,-113.0
127.0,127.0,127.0,127.0,127.0,127.0,107.0,128.0,7.0,123.0,-93.0,127.0,127.0,127.0,-127.0,77.0,-113.0
126.0,127.0,127.0,127.0,127.0,127.0,106.0,128.0,7.0,123.0,-93.0,127.0,127.0,127.0,-127.0,77.0,-113.0
127.0,127.0,127.0,127.0,127.0,127.0,106.0,128.0,7.0,123.0,-93.0,127.0,127.0,127.0,-127.0,77.0,-113.0
126.0,127.0,127.0,127.0,127.0,127.0,106.0,128.0,7.0,123.0,-93.0,127.0,127.0,127.0,-127.0,77.0,-113.0
126.0,127.0,127.0,127.0,127.0,127.0,107.0,128.0,7.0,123.0,-93.0,127.0,127.0,127.0,-127.0,77.0,-113.0
126.0,127.0,127.0,127.0,127.0,127.0,112.0,128.0,7.0,123.0,-93.0,127.0,127.0,127.0,-127.0,77.0,-113.0
127.0,127.0,127.0,127.0,127.0,127.0,110.0,128.0,7.0,123.0,-93.0,127.0,127.0,127.0,-127.0,77.0,-113.0
127.0,127.0,127.0,127.0,127.0,127.0,113.0,128.0,7.0,123.0,-93.0,127.0,127.0,127.0,-127.0,77.0,-113.0
127.0,127.0,127.0,127.0,127.0,127.0,113.0,128.0,7.0,123.0,-93.0,127.0,127.0,127.0,-127.0,77.0,-113.0
127.0,127.0,127.0,127.0,127.0,127.0,113.0,128.0,7.0,123.0,-93.0,127.0,127.0,127.0,-127.0,77.0,-113.0
127.0,127.0,127.0,127.0,127.0,127.0,113.0,128.0,7.0,123.0,-93.0,127.0,127.0,127.0,-127.0,77.0,-113.0
127.0,127.0,127.0,127.0,127.0,127.0,113.0,128.0,7.0,123.0,-93.0,127.0,127.0,127.0,-127.0,77.0,-113.0
127.0,127.0,127.0,127.0,127.0,127.0,112.0,128.0,7.0,123.0,-93.0,127.0,127.0,127.0,-127.0,77.0,-113.0
127.0,127.0,127.0,127.0,127.0,127.0,112.0,128.0,7.0,123.0,-93.0,127.0,127.0,127.0,-127.0,77.0,-113.0
127.0,127.0,127.0,127.0,127.0,127.0,113.0,128.0,7.0,123.0,-93.0,127.0,127.0,127.0,-127.0,77.0,-113.0
126.0,127.0,127.0,127.0,127.0,127.0,110.0,128.0,7.0,123.0,-93.0,127.0,127.0,127.0,-127.0,77.0,-113.0
127.0,127.0,127.0,127.0,127.0,127.0,112.0,128.0,7.0,123.0,-93.0,127.0,127.0,127.0,-127.0,77.0,-113.0
127.0,127.0,127.0,127.0,127.0,127.0,113.0,128.0,7.0,123.0,-93.0,127.0,127.0,127.0,-127.0,77.0,-113.0
126.0,127.0,127.0,127.0,127.0,127.0,113.0,128.0,7.0,123.0,-93.0,127.0,127.0,127.0,-127.0,77.0,-113.0
126.0,127.0,127.0,127.0,127.0,127.0,112.0,128.0,7.0,123.0,-93.0,127.0,127.0,127.0,-127.0,77.0,-113.0
127.0,127.0,127.0,127.0,127.0,127.0,113.0,128.0,7.0,123.0,-93.0,127.0,127.0,127.0,-127.0,77.0,-113.0
127.0,127.0,127.0,127.0,127.0,127.0,113.0,128.0,7.0,123.0,-93.0,127.0,127.0,127.0,-127.0,77.0,-113.0
127.0,127.0,127.0,127.0,127.0,127.0,113.0,128.0,7.0,123.0,-93.0,127.0,127.0,127.0,-127.0,77.0,-113.0
127.0,127.0,127.0,127.0,127.0,127.0,113.0,128.0,7.0,123.0,-93.0,127.0,127.0,127.0,-127.0,77.0,-113.0
127.0,127.0,127.0,127.0,127.0,127.0,113.0,128.0,7.0,123.0,-93.0,127.0,127.0,127.0,-127.0,77.0,-113.0
127.0,127.0,127.0,127.0,127.0,127.0,113.0,128.0,7.0,123.0,-93.0,127.0,127.0,127.0,-127.0,77.0,-113.0
127.0,127.0,127.0,127.0,127.0,127.0,113.0,128.0,7.0,123.0,-93.0,127.0,127.0,127.0,-127.0,77.0,-113.0
127.0,127.0,127.0,127.0,127.0,127.0,113.0,128.0,7.0,123.0,-93.0,127.0,127.0,127.0,-127.0,77.0,-113.0
127.0,127.0,127.0,127.0,127.0,127.0,109.0,128.0,7.0,123.0,-93.0,127.0,127.0,127.0,-127.0,77.0,-113.0
127.0,127.0,127.0,127.0,127.0,127.0,107.0,128.0,7.0,123.0,-93.0,127.0,127.0,127.0,-127.0,77.0,-113.0
127.0,127.0,127.0,127.0,127.0,127.0,106.0,128.0,7.0,123.0,-93.0,127.0,127.0,127.0,-127.0,77.0,-113.0
127.0,127.0,127.0,127.0,127.0,127.0,110.0,128.0,7.0,123.0,-93.0,127.0,127.0,127.0,-127.0,77.0,-113.0
127.0,127.0,127.0,127.0,127.0,127.0,113.0,128.0,7.0,123.0,-93.0,127.0,127.0,127.0,-127.0,77.0,-113.0
127.0,127.0,127.0,127.0,127.0,127.0,113.0,128.0,7.0,123.0,-93.0,127.0,127.0,127.0,-127.0,77.0,-113.0
127.0,127.0,127.0,127.0,127.0,127.0,113.0,128.0,7.0,123.0,-93.0,127.0,127.0,127.0,-127.0,77.0,-113.0
127.0,126.0,127.0,127.0,127.0,127.0,112.0,128.0,7.0,123.0,-93.0,127.0,127.0,127.0,-127.0,77.0,-113.0
127.0,127.0,127.0,127.0,127.0,127.0,112.0,128.0,7.0,123.0,-93.0,127.0,127.0,127.0,-127.0,77.0,-113.0
127.0,127.0,127.0,127.0,127.0,127.0,112.0,128.0,7.0,123.0,-93.0,127.0,127.0,127.0,-127.0,77.0,-113.0
127.0,127.0,127.0,127.0,127.0,127.0,113.0,128.0,7.0,123.0,-93.0,127.0,127.0,127.0,-127.0,77.0,-113.0
127.0,127.0,127.0,127.0,127.0,127.0,113.0,128.0,7.0,123.0,-93.0,127.0,127.0,127.0,-127.0,77.0,-113.0
127.0,127.0,127.0,127.0,127.0,127.0,113.0,128.0,7.0,123.0,-93.0,127.0,127.0,127.0,-127.0,77.0,-113.0
127.0,127.0,127.0,127.0,127.0,127.0,113.0,128.0,7.0,123.0,-93.0,127.0,127.0,127.0,-127.0,77.0,-113.0
127.0,127.0,127.0,127.0,127.0,127.0,113.0,128.0,7.0,123.0,-93.0,127.0,127.0,127.0,-127.0,77.0,-113.0
126.0,127.0,127.0,127.0,127.0,127.0,113.0,128.0,7.0,123.0,-93.0,127.0,127.0,127.0,-127.0,77.0,-113.0
127.0,127.0,127.0,127.0,127.0,127.0,113.0,128.0,7.0,123.0,-93.0,127.0,127.0,127.0,-127.0,77.0,-113.0
127.0,127.0,127.0,127.0,127.0,127.0,106.0,128.0,7.0,123.0,-93.0,127.0,127.0,127.0,-127.0,77.0,-113.0
127.0,127.0,127.0,127.0,127.0,127.0,106.0,128.0,7.0,123.0,-93.0,127.0,127.0,127.0,-127.0,77.0,-113.0
127.0,127.0,127.0,127.0,127.0,127.0,109.0,128.0,7.0,123.0,-93.0,127.0,127.0,127.0,-127.0,77.0,-113.0
127.0,127.0,127.0,127.0,127.0,127.0,108.0,128.0,7.0,123.0,-93.0,127.0,127.0,127.0,-127.0,77.0,-113.0
126.0,127.0,127.0,127.0,127.0,127.0,108.0,128.0,7.0,123.0,-93.0,127.0,127.0,127.0,-127.0,77.0,-113.0
126.0,127.0,127.0,127.0,127.0,127.0,107.0,128.0,7.0,123.0,-93.0,127.0,127.0,127.0,-127.0,77.0,-113.0
126.0,127.0,127.0,127.0,127.0,127.0,106.0,128.0,7.0,123.0,-93.0,127.0,127.0,127.0,-127.0,77.0,-113.0
126.0,127.0,127.0,127.0,127.0,127.0,106.0,128.0,7.0,123.0,-93.0,127.0,127.0,127.0,-127.0,77.0,-113.0
127.0,127.0,127.0,127.0,127.0,127.0,106.0,128.0,7.0,123.0,-93.0,127.0,127.0,127.0,-127.0,77.0,-113.0
127.0,127.0,127.0,127.0,127.0,127.0,106.0,128.0,7.0,123.0,-93.0,127.0,127.0,127.0,-127.0,77.0,-113.0
126.0,127.0,127.0,127.0,127.0,127.0,107.0,128.0,7.0,123.0,-93.0,127.0,127.0,127.0,-127.0,77.0,-113.0
126.0,127.0,127.0,127.0,127.0,127.0,107.0,128.0,7.0,123.0,-93.0,127.0,127.0,127.0,-127.0,77.0,-113.0
126.0,127.0,127.0,127.0,127.0,127.0,109.0,128.0,7.0,123.0,-93.0,127.0,127.0,127.0,-127.0,77.0,-113.0
126.0,127.0,127.0,127.0,127.0,127.0,110.0,128.0,7.0,123.0,-93.0,127.0,127.0,127.0,-127.0,77.0,-113.0
126.0,127.0,127.0,127.0,127.0,127.0,107.0,128.0,7.0,123.0,-93.0,127.0,127.0,127.0,-127.0,77.0,-113.0
126.0,127.0,127.0,127.0,127.0,127.0,106.0,128.0,7.0,123.0,-93.0,127.0,127.0,127.0,-127.0,77.0,-113.0
126.0,127.0,127.0,127.0,127.0,127.0,106.0,128.0,7.0,123.0,-93.0,127.0,127.0,127.0,-127.0,77.0,-113.0
126.0,127.0,127.0,127.0,127.0,127.0,106.0,128.0,7.0,123.0,-93.0,127.0,127.0,127.0,-127.0,77.0,-113.0
126.0,127.0,127.0,127.0,127.0,127.0,107.0,128.0,7.0,123.0,-93.0,127.0,127.0,127.0,-127.0,77.0,-113.0
126.0,127.0,127.0,127.0,127.0,127.0,106.0,128.0,7.0,123.0,-93.0,127.0,127.0,127.0,-127.0,77.0,-113.0
126.0,127.0,127.0,127.0,127.0,127.0,113.0,128.0,6.0,123.0,-93.0,127.0,127.0,127.0,-127.0,77.0,-113.0
126.0,127.0,127.0,127.0,127.0,127.0,113.0,128.0,6.0,123.0,-93.0,127.0,127.0,127.0,-127.0,77.0,-113.0
126.0,127.0,127.0,127.0,127.0,127.0,113.0,128.0,6.0,123.0,-93.0,127.0,127.0,127.0,-127.0,77.0,-113.0
126.0,127.0,127.0,127.0,127.0,127.0,109.0,128.0,6.0,123.0,-93.0,127.0,127.0,127.0,-127.0,77.0,-113.0
126.0,127.0,127.0,127.0,127.0,127.0,108.0,128.0,6.0,123.0,-93.0,127.0,127.0,127.0,-127.0,77.0,-113.0
126.0,127.0,127.0,127.0,127.0,127.0,106.0,128.0,6.0,123.0,-93.0,127.0,127.0,127.0,-127.0,77.0,-113.0
126.0,127.0,127.0,127.0,127.0,127.0,106.0,128.0,6.0,123.0,-93.0,127.0,127.0,127.0,-127.0,77.0,-113.0
126.0,127.0,127.0,127.0,127.0,127.0,110.0,128.0,6.0,123.0,-93.0,127.0,127.0,127.0,-127.0,77.0,-113.0
126.0,127.0,127.0,127.0,127.0,127.0,110.0,128.0,6.0,123.0,-93.0,127.0,127.0,127.0,-127.0,77.0,-113.0
126.0,127.0,127.0,127.0,127.0,127.0,111.0,128.0,6.0,123.0,-93.0,127.0,127.0,127.0,-127.0,77.0,-113.0
126.0,127.0,127.0,127.0,127.0,127.0,113.0,128.0,6.0,123.0,-93.0,127.0,127.0,127.0,-127.0,77.0,-113.0
126.0,127.0,127.0,127.0,127.0,127.0,113.0,128.0,6.0,123.0,-93.0,127.0,127.0,127.0,-127.0,77.0,-113.0
126.0,127.0,127.0,127.0,127.0,127.0,109.0,128.0,6.0,123.0,-93.0,127.0,127.0,127.0,-127.0,77.0,-113.0
126.0,127.0,127.0,127.0,127.0,127.0,106.0,128.0,6.0,123.0,-93.0,127.0,127.0,127.0,-127.0,77.0,-113.0
126.0,127.0,127.0,127.0,127.0,127.0,106.0,128.0,6.0,123.0,-93.0,127.0,127.0,127.0,-127.0,77.0,-113.0
126.0,127.0,127.0,127.0,127.0,127.0,106.0,128.0,6.0,123.0,-93.0,127.0,127.0,127.0,-127.0,77.0,-113.0
127.0,127.0,127.0,127.0,127.0,127.0,112.0,128.0,6.0,123.0,-93.0,127.0,127.0,127.0,-127.0,77.0,-113.0
126.0,127.0,127.0,127.0,127.0,127.0,113.0,128.0,6.0,123.0,-93.0,127.0,127.0,127.0,-127.0,77.0,-113.0
127.0,127.0,127.0,127.0,127.0,127.0,113.0,128.0,6.0,123.0,-93.0,127.0,127.0,127.0,-127.0,77.0,-113.0
127.0,127.0,127.0,127.0,127.0,127.0,113.0,128.0,6.0,123.0,-93.0,127.0,127.0,127.0,-127.0,77.0,-113.0
126.0,127.0,127.0,127.0,127.0,127.0,113.0,128.0,6.0,123.0,-93.0,127.0,127.0,127.0,-127.0,77.0,-113.0
126.0,127.0,127.0,127.0,127.0,127.0,112.0,128.0,6.0,123.0,-93.0,127.0,127.0,127.0,-127.0,77.0,-113.0
126.0,127.0,127.0,127.0,127.0,127.0,112.0,128.0,6.0,123.0,-93.0,127.0,127.0,127.0,-127.0,77.0,-113.0
126.0,127.0,127.0,127.0,127.0,127.0,113.0,128.0,6.0,123.0,-93.0,127.0,127.0,127.0,-127.0,77.0,-113.0
127.0,127.0,127.0,127.0,127.0,127.0,112.0,128.0,6.0,123.0,-93.0,127.0,127.0,127.0,-127.0,77.0,-113.0
127.0,126.0,127.0,127.0,126.0,127.0,112.0,128.0,6.0,123.0,-93.0,127.0,127.0,127.0,-127.0,77.0,-113.0
127.0,127.0,127.0,127.0,127.0,127.0,113.0,128.0,6.0,123.0,-93.0,127.0,127.0,127.0,-127.0,77.0,-113.0
127.0,127.0,127.0,127.0,127.0,127.0,113.0,128.0,6.0,123.0,-93.0,127.0,127.0,127.0,-127.0,77.0,-113.0
126.0,127.0,127.0,127.0,127.0,127.0,113.0,128.0,6.0,123.0,-93.0,127.0,127.0,127.0,-127.0,77.0,-113.0
127.0,127.0,127.0,127.0,127.0,127.0,113.0,128.0,6.0,123.0,-93.0,127.0,127.0,127.0,-127.0,77.0,-113.0
126.0,127.0,127.0,127.0,127.0,127.0,106.0,128.0,6.0,123.0,-93.0,127.0,127.0,127.0,-127.0,77.0,-113.0
126.0,127.0,127.0,127.0,127.0,127.0,107.0,128.0,6.0,123.0,-93.0,127.0,127.0,127.0,-127.0,77.0,-113.0
126.0,127.0,127.0,127.0,127.0,127.0,106.0,128.0,6.0,123.0,-93.0,127.0,127.0,127.0,-127.0,77.0,-113.0
126.0,127.0,127.0,127.0,127.0,127.0,111.0,128.0,6.0,123.0,-93.0,127.0,127.0,127.0,-127.0,77.0,-113.0
127.0,127.0,127.0,127.0,127.0,127.0,112.0,128.0,6.0,123.0,-93.0,127.0,127.0,127.0,-127.0,77.0,-113.0
127.0,127.0,127.0,127.0,127.0,127.0,113.0,128.0,6.0,123.0,-93.0,127.0,127.0,127.0,-127.0,77.0,-113.0
127.0,127.0,127.0,127.0,127.0,127.0,112.0,128.0,6.0,123.0,-93.0,127.0,127.0,127.0,-127.0,77.0,-113.0
126.0,127.0,127.0,127.0,127.0,127.0,110.0,128.0,6.0,123.0,-93.0,127.0,127.0,127.0,-127.0,77.0,-113.0
126.0,127.0,127.0,127.0,127.0,127.0,107.0,128.0,6.0,123.0,-93.0,127.0,127.0,127.0,-127.0,77.0,-113.0
126.0,127.0,127.0,127.0,127.0,127.0,106.0,128.0,6.0,123.0,-93.0,127.0,127.0,127.0,-127.0,77.0,-113.0
126.0,128.0,127.0,127.0,127.0,127.0,106.0,128.0,6.0,123.0,-93.0,127.0,127.0,127.0,-127.0,77.0,-113.0
126.0,127.0,127.0,127.0,127.0,127.0,107.0,128.0,6.0,123.0,-93.0,127.0,127.0,127.0,-127.0,77.0,-113.0
126.0,127.0,127.0,127.0,127.0,127.0,107.0,128.0,6.0,123.0,-93.0,127.0,127.0,127.0,-127.0,77.0,-113.0
127.0,127.0,127.0,127.0,127.0,127.0,107.0,128.0,6.0,123.0,-93.0,127.0,127.0,127.0,-127.0,77.0,-113.0
127.0,127.0,127.0,127.0,127.0,127.0,109.0,128.0,6.0,123.0,-93.0,127.0,127.0,127.0,-127.0,77.0,-113.0
126.0,127.0,127.0,127.0,127.0,127.0,107.0,128.0,6.0,123.0,-93.0,127.0,127.0,127.0,-127.0,77.0,-113.0
126.0,127.0,127.0,127.0,127.0,127.0,107.0,128.0,6.0,123.0,-93.0,127.0,127.0,127.0,-127.0,77.0,-113.0
126.0,127.0,127.0,127.0,127.0,127.0,106.0,128.0,6.0,123.0,-93.0,127.0,127.0,127.0,-127.0,77.0,-113.0
126.0,127.0,127.0,127.0,127.0,127.0,106.0,128.0,6.0,123.0,-93.0,127.0,127.0,127.0,-127.0,77.0,-113.0
126.0,127.0,127.0,127.0,127.0,127.0,106.0,128.0,6.0,123.0,-93.0,127.0,127.0,127.0,-127.0,77.0,-113.0
126.0,127.0,127.0,127.0,127.0,127.0,113.0,128.0,6.0,123.0,-93.0,127.0,127.0,127.0,-127.0,77.0,-113.0
126.0,127.0,127.0,127.0,127.0,127.0,114.0,128.0,6.0,123.0,-93.0,127.0,127.0,127.0,-127.0,77.0,-113.0
126.0,127.0,127.0,127.0,127.0,127.0,111.0,128.0,6.0,123.0,-93.0,127.0,127.0,127.0,-127.0,77.0,-113.0
126.0,127.0,127.0,127.0,127.0,127.0,113.0,128.0,6.0,123.0,-93.0,127.0,127.0,127.0,-127.0,77.0,-113.0
126.0,127.0,127.0,127.0,127.0,127.0,112.0,128.0,6.0,123.0,-93.0,127.0,127.0,127.0,-127.0,77.0,-113.0
126.0,127.0,127.0,127.0,127.0,127.0,113.0,128.0,6.0,123.0,-93.0,127.0,127.0,127.0,-127.0,77.0,-113.0
126.0,127.0,127.0,127.0,127.0,127.0,113.0,128.0,6.0,123.0,-93.0,127.0,127.0,127.0,-127.0,77.0,-113.0
126.0,127.0,127.0,127.0,127.0,127.0,111.0,128.0,6.0,123.0,-93.0,127.0,127.0,127.0,-127.0,77.0,-113.0
126.0,127.0,127.0,127.0,127.0,127.0,111.0,128.0,6.0,123.0,-93.0,127.0,127.0,127.0,-127.0,77.0,-113.0
126.0,127.0,127.0,127.0,127.0,127.0,113.0,128.0,6.0,123.0,-93.0,127.0,127.0,127.0,-127.0,77.0,-113.0
127.0,127.0,127.0,127.0,127.0,127.0,113.0,128.0,6.0,123.0,-93.0,127.0,127.0,127.0,-127.0,77.0,-113.0
127.0,127.0,127.0,127.0,127.0,127.0,106.0,128.0,6.0,123.0,-93.0,127.0,127.0,127.0,-127.0,77.0,-113.0
127.0,127.0,127.0,127.0,127.0,127.0,108.0,128.0,6.0,123.0,-93.0,127.0,127.0,127.0,-127.0,77.0,-113.0
127.0,127.0,127.0,127.0,127.0,127.0,108.0,128.0,6.0,123.0,-93.0,127.0,127.0,127.0,-127.0,77.0,-113.0
127.0,127.0,127.0,127.0,127.0,127.0,110.0,128.0,6.0,123.0,-93.0,127.0,127.0,127.0,-127.0,77.0,-113.0
127.0,127.0,127.0,127.0,127.0,127.0,111.0,128.0,6.0,123.0,-93.0,127.0,127.0,127.0,-127.0,77.0,-113.0
127.0,127.0,127.0,127.0,127.0,127.0,110.0,128.0,6.0,123.0,-93.0,127.0,127.0,127.0,-127.0,77.0,-113.0
127.0,127.0,127.0,127.0,127.0,127.0,111.0,128.0,6.0,123.0,-93.0,127.0,127.0,127.0,-127.0,77.0,-113.0
127.0,127.0,127.0,127.0,127.0,127.0,112.0,128.0,6.0,123.0,-93.0,127.0,127.0,127.0,-127.0,77.0,-113.0
127.0,127.0,127.0,127.0,127.0,127.0,113.0,128.0,6.0,123.0,-93.0,127.0,127.0,127.0,-127.0,77.0,-113.0
127.0,127.0,127.0,127.0,127.0,127.0,106.0,128.0,6.0,123.0,-93.0,127.0,127.0,127.0,-127.0,77.0,-113.0
127.0,127.0,127.0,127.0,127.0,127.0,106.0,128.0,6.0,123.0,-93.0,127.0,127.0,127.0,-127.0,77.0,-113.0
127.0,127.0,127.0,127.0,127.0,127.0,106.0,128.0,6.0,123.0,-93.0,127.0,127.0,127.0,-127.0,77.0,-113.0
127.0,127.0,127.0,127.0,127.0,127.0,106.0,128.0,6.0,123.0,-93.0,127.0,127.0,127.0,-127.0,77.0,-113.0
127.0,127.0,127.0,127.0,127.0,127.0,107.0,128.0,6.0,123.0,-93.0,127.0,127.0,127.0,-127.0,77.0,-113.0
127.0,127.0,127.0,127.0,127.0,127.0,107.0,128.0,6.0,123.0,-93.0,127.0,127.0,127.0,-127.0,77.0,-113.0
127.0,127.0,127.0,127.0,127.0,127.0,107.0,128.0,6.0,123.0,-93.0,127.0,127.0,127.0,-127.0,77.0,-113.0
127.0,127.0,127.0,127.0,127.0,127.0,106.0,128.0,6.0,123.0,-93.0,127.0,127.0,127.0,-127.0,77.0,-113.0
127.0,127.0,127.0,127.0,127.0,127.0,106.0,128.0,6.0,123.0,-93.0,127.0,127.0,127.0,-127.0,77.0,-113.0
127.0,127.0,127.0,127.0,127.0,127.0,106.0,128.0,6.0,123.0,-93.0,127.0,127.0,127.0,-127.0,77.0,-113.0
127.0,127.0,127.0,127.0,127.0,127.0,110.0,128.0,6.0,123.0,-93.0,127.0,127.0,127.0,-127.0,77.0,-113.0
127.0,127.0,127.0,127.0,127.0,127.0,107.0,128.0,6.0,123.0,-93.0,127.0,127.0,127.0,-127.0,77.0,-113.0
127.0,127.0,127.0,127.0,127.0,127.0,107.0,128.0,6.0,123.0,-93.0,127.0,127.0,127.0,-127.0,77.0,-113.0
127.0,127.0,127.0,127.0,127.0,127.0,106.0,128.0,6.0,123.0,-93.0,127.0,127.0,127.0,-127.0,77.0,-113.0
127.0,127.0,127.0,127.0,127.0,127.0,107.0,128.0,6.0,123.0,-93.0,127.0,127.0,127.0,-127.0,77.0,-113.0
127.0,127.0,127.0,127.0,127.0,127.0,106.0,128.0,6.0,123.0,-93.0,127.0,127.0,127.0,-127.0,77.0,-113.0
127.0,127.0,127.0,127.0,127.0,127.0,106.0,128.0,6.0,123.0,-93.0,127.0,127.0,127.0,-127.0,77.0,-113.0
127.0,127.0,127.0,127.0,127.0,127.0,108.0,128.0,6.0,123.0,-93.0,127.0,127.0,127.0,-127.0,77.0,-113.0
127.0,127.0,127.0,127.0,127.0,127.0,111.0,128.0,6.0,123.0,-93.0,127.0,127.0,127.0,-127.0,77.0,-113.0
127.0,127.0,127.0,127.0,127.0,127.0,111.0,128.0,6.0,123.0,-93.0,127.0,127.0,127.0,-127.0,77.0,-113.0
126.0,127.0,127.0,127.0,127.0,127.0,108.0,128.0,6.0,123.0,-93.0,127.0,127.0,127.0,-127.0,77.0,-113.0
126.0,127.0,127.0,127.0,127.0,127.0,107.0,128.0,6.0,123.0,-93.0,127.0,127.0,127.0,-127.0,77.0,-113.0
126.0,127.0,127.0,127.0,127.0,127.0,109.0,128.0,6.0,123.0,-93.0,127.0,127.0,127.0,-127.0,77.0,-113.0
126.0,127.0,127.0,127.0,127.0,127.0,107.0,128.0,6.0,123.0,-93.0,127.0,127.0,127.0,-127.0,77.0,-113.0
126.0,127.0,127.0,127.0,127.0,127.0,106.0,128.0,6.0,123.0,-93.0,127.0,127.0,127.0,-127.0,77.0,-113.0
126.0,127.0,127.0,127.0,127.0,127.0,106.0,128.0,6.0,123.0,-93.0,127.0,127.0,127.0,-127.0,77.0,-113.0
126.0,127.0,127.0,127.0,127.0,127.0,109.0,128.0,6.0,123.0,-93.0,127.0,127.0,127.0,-127.0,77.0,-113.0
126.0,127.0,127.0,127.0,127.0,127.0,107.0,128.0,6.0,123.0,-93.0,127.0,127.0,127.0,-127.0,77.0,-113.0
127.0,127.0,127.0,127.0,127.0,127.0,113.0,128.0,6.0,123.0,-93.0,127.0,127.0,127.0,-127.0,77.0,-113.0
126.0,127.0,127.0,127.0,127.0,127.0,112.0,128.0,6.0,123.0,-93.0,127.0,127.0,127.0,-127.0,77.0,-113.0
127.0,127.0,127.0,127.0,127.0,127.0,113.0,128.0,6.0,123.0,-93.0,127.0,127.0,127.0,-127.0,77.0,-113.0
127.0,127.0,127.0,127.0,127.0,127.0,113.0,128.0,6.0,123.0,-93.0,127.0,127.0,127.0,-127.0,77.0,-113.0
127.0,127.0,127.0,127.0,127.0,127.0,112.0,128.0,6.0,123.0,-93.0,127.0,127.0,127.0,-127.0,77.0,-113.0
127.0,127.0,127.0,127.0,127.0,127.0,112.0,128.0,6.0,123.0,-93.0,127.0,127.0,127.0,-127.0,77.0,-113.0
126.0,127.0,127.0,127.0,127.0,127.0,113.0,128.0,6.0,123.0,-93.0,127.0,127.0,127.0,-127.0,77.0,-113.0
126.0,127.0,127.0,127.0,127.0,127.0,113.0,128.0,6.0,123.0,-93.0,127.0,127.0,127.0,-127.0,77.0,-113.0
126.0,127.0,127.0,127.0,127.0,127.0,112.0,128.0,6.0,123.0,-93.0,127.0,127.0,127.0,-127.0,77.0,-113.0
127.0,127.0,127.0,127.0,127.0,127.0,112.0,128.0,6.0,123.0,-93.0,127.0,127.0,127.0,-127.0,77.0,-113.0
127.0,127.0,127.0,127.0,126.0,127.0,112.0,128.0,6.0,123.0,-93.0,127.0,127.0,127.0,-127.0,77.0,-113.0
127.0,127.0,127.0,127.0,127.0,127.0,112.0,128.0,6.0,123.0,-93.0,127.0,127.0,127.0,-127.0,77.0,-113.0
126.0,127.0,127.0,127.0,127.0,127.0,106.0,128.0,7.0,123.0,-93.0,127.0,127.0,127.0,-127.0,77.0,-113.0
126.0,127.0,127.0,127.0,127.0,127.0,106.0,128.0,7.0,123.0,-93.0,127.0,127.0,127.0,-127.0,77.0,-113.0
127.0,127.0,127.0,127.0,127.0,127.0,106.0,128.0,7.0,123.0,-93.0,127.0,127.0,127.0,-127.0,77.0,-113.0
127.0,127.0,127.0,127.0,127.0,127.0,106.0,128.0,7.0,123.0,-93.0,127.0,127.0,127.0,-127.0,77.0,-113.0
127.0,127.0,127.0,127.0,127.0,127.0,106.0,128.0,7.0,123.0,-93.0,127.0,127.0,127.0,-127.0,77.0,-113.0
127.0,127.0,127.0,127.0,127.0,127.0,107.0,128.0,7.0,123.0,-93.0,127.0,127.0,127.0,-127.0,77.0,-113.0
127.0,127.0,127.0,127.0,127.0,127.0,109.0,128.0,7.0,123.0,-93.0,127.0,127.0,127.0,-127.0,77.0,-113.0
126.0,127.0,127.0,127.0,127.0,127.0,109.0,128.0,7.0,123.0,-93.0,127.0,127.0,127.0,-127.0,77.0,-113.0
126.0,127.0,127.0,127.0,127.0,127.0,107.0,128.0,7.0,123.0,-93.0,127.0,127.0,127.0,-127.0,77.0,-113.0
127.0,127.0,127.0,127.0,127.0,127.0,106.0,128.0,7.0,123.0,-93.0,127.0,127.0,127.0,-127.0,77.0,-113.0
126.0,127.0,127.0,127.0,127.0,127.0,106.0,128.0,7.0,123.0,-93.0,127.0,127.0,127.0,-127.0,77.0,-113.0
126.0,127.0,127.0,127.0,127.0,127.0,105.0,128.0,7.0,123.0,-93.0,127.0,127.0,127.0,-127.0,77.0,-113.0
126.0,127.0,127.0,127.0,127.0,127.0,106.0,128.0,7.0,123.0,-93.0,127.0,127.0,127.0,-127.0,77.0,-113.0
126.0,127.0,127.0,127.0,127.0,127.0,106.0,128.0,7.0,123.0,-93.0,127.0,127.0,127.0,-127.0,77.0,-113.0
126.0,127.0,127.0,127.0,127.0,127.0,107.0,128.0,7.0,123.0,-93.0,127.0,127.0,127.0,-127.0,77.0,-113.0
127.0,127.0,127.0,127.0,127.0,127.0,106.0,128.0,7.0,123.0,-93.0,127.0,127.0,127.0,-127.0,77.0,-113.0
127.0,127.0,127.0,127.0,127.0,127.0,108.0,128.0,7.0,123.0,-93.0,127.0,127.0,127.0,-127.0,77.0,-113.0
126.0,127.0,127.0,127.0,127.0,127.0,108.0,128.0,7.0,123.0,-93.0,127.0,127.0,127.0,-127.0,77.0,-113.0
126.0,127.0,127.0,127.0,127.0,127.0,106.0,128.0,7.0,123.0,-93.0,127.0,127.0,127.0,-127.0,77.0,-113.0
126.0,127.0,127.0,127.0,127.0,127.0,106.0,128.0,7.0,123.0,-93.0,127.0,127.0,127.0,-127.0,77.0,-113.0
126.0,127.0,127.0,127.0,127.0,127.0,106.0,128.0,7.0,123.0,-93.0,127.0,127.0,127.0,-127.0,77.0,-113.0
126.0,127.0,127.0,127.0,127.0,127.0,107.0,128.0,7.0,123.0,-93.0,127.0,127.0,127.0,-127.0,77.0,-113.0
126.0,127.0,127.0,127.0,127.0,127.0,106.0,128.0,7.0,123.0,-93.0,127.0,127.0,127.0,-127.0,77.0,-113.0
126.0,127.0,127.0,127.0,127.0,127.0,106.0,128.0,7.0,123.0,-93.0,127.0,127.0,127.0,-127.0,77.0,-113.0
127.0,127.0,127.0,127.0,127.0,127.0,106.0,128.0,7.0,123.0,-93.0,127.0,127.0,127.0,-127.0,77.0,-113.0
126.0,127.0,127.0,127.0,126.0,127.0,106.0,128.0,7.0,123.0,-93.0,127.0,127.0,127.0,-127.0,77.0,-113.0
126.0,127.0,127.0,127.0,127.0,127.0,107.0,128.0,7.0,123.0,-93.0,127.0,127.0,127.0,-127.0,77.0,-113.0
126.0,127.0,127.0,127.0,127.0,127.0,107.0,128.0,7.0,123.0,-93.0,127.0,127.0,127.0,-127.0,77.0,-113.0
126.0,127.0,127.0,127.0,127.0,127.0,107.0,128.0,7.0,123.0,-93.0,127.0,127.0,127.0,-127.0,77.0,-113.0
126.0,127.0,127.0,127.0,127.0,127.0,107.0,128.0,7.0,123.0,-93.0,127.0,127.0,127.0,-127.0,77.0,-113.0
126.0,127.0,127.0,127.0,127.0,127.0,107.0,128.0,7.0,123.0,-93.0,127.0,127.0,127.0,-127.0,77.0,-113.0
126.0,127.0,127.0,127.0,127.0,127.0,106.0,128.0,7.0,123.0,-93.0,127.0,127.0,127.0,-127.0,77.0,-113.0
126.0,127.0,127.0,127.0,127.0,127.0,108.0,128.0,7.0,123.0,-93.0,127.0,127.0,127.0,-127.0,77.0,-113.0
126.0,127.0,127.0,127.0,127.0,127.0,114.0,128.0,7.0,123.0,-93.0,127.0,127.0,127.0,-127.0,77.0,-113.0
126.0,127.0,127.0,127.0,127.0,127.0,113.0,128.0,7.0,123.0,-93.0,127.0,127.0,127.0,-127.0,77.0,-113.0
126.0,127.0,127.0,127.0,127.0,127.0,113.0,128.0,7.0,123.0,-93.0,127.0,127.0,127.0,-127.0,77.0,-113.0
126.0,127.0,127.0,127.0,127.0,127.0,109.0,128.0,7.0,123.0,-93.0,127.0,127.0,127.0,-127.0,77.0,-113.0
126.0,127.0,127.0,127.0,127.0,127.0,106.0,128.0,7.0,123.0,-93.0,127.0,127.0,127.0,-127.0,77.0,-113.0
126.0,127.0,127.0,127.0,127.0,127.0,108.0,128.0,7.0,123.0,-93.0,127.0,127.0,127.0,-127.0,77.0,-113.0
126.0,127.0,127.0,127.0,127.0,127.0,109.0,128.0,7.0,123.0,-93.0,127.0,127.0,127.0,-127.0,77.0,-113.0
127.0,127.0,127.0,127.0,127.0,127.0,106.0,128.0,7.0,123.0,-93.0,127.0,127.0,127.0,-127.0,77.0,-113.0
127.0,127.0,127.0,127.0,127.0,127.0,106.0,128.0,7.0,123.0,-93.0,127.0,127.0,127.0,-127.0,77.0,-113.0
127.0,127.0,127.0,127.0,127.0,127.0,106.0,128.0,7.0,123.0,-93.0,127.0,127.0,127.0,-127.0,77.0,-113.0
127.0,127.0,127.0,127.0,127.0,127.0,107.0,128.0,7.0,123.0,-93.0,127.0,127.0,127.0,-127.0,77.0,-113.0
127.0,127.0,127.0,127.0,127.0,127.0,106.0,128.0,7.0,123.0,-93.0,127.0,127.0,127.0,-127.0,77.0,-113.0
127.0,127.0,127.0,127.0,127.0,127.0,107.0,128.0,7.0,123.0,-93.0,127.0,127.0,127.0,-127.0,77.0,-113.0
127.0,127.0,127.0,127.0,127.0,127.0,107.0,128.0,7.0,123.0,-93.0,127.0,127.0,127.0,-127.0,77.0,-113.0
127.0,127.0,127.0,127.0,127.0,127.0,107.0,128.0,7.0,123.0,-93.0,127.0,127.0,127.0,-127.0,77.0,-113.0
127.0,127.0,127.0,127.0,127.0,127.0,106.0,128.0,7.0,123.0,-93.0,127.0,127.0,127.0,-127.0,77.0,-113.0
127.0,127.0,127.0,127.0,127.0,127.0,106.0,128.0,7.0,123.0,-93.0,127.0,127.0,127.0,-127.0,77.0,-113.0
127.0,127.0,127.0,127.0,127.0,127.0,109.0,128.0,7.0,123.0,-93.0,127.0,127.0,127.0,-127.0,77.0,-113.0
127.0,127.0,127.0,127.0,127.0,127.0,112.0,128.0,7.0,123.0,-93.0,127.0,127.0,127.0,-127.0,77.0,-113.0
127.0,127.0,127.0,127.0,127.0,127.0,112.0,128.0,7.0,123.0,-93.0,127.0,127.0,127.0,-127.0,77.0,-113.0
127.0,127.0,127.0,127.0,127.0,127.0,112.0,128.0,7.0,123.0,-93.0,127.0,127.0,127.0,-127.0,77.0,-113.0
127.0,127.0,127.0,127.0,127.0,127.0,108.0,128.0,7.0,123.0,-93.0,127.0,127.0,127.0,-127.0,77.0,-113.0
127.0,127.0,127.0,127.0,127.0,127.0,106.0,128.0,7.0,123.0,-93.0,127.0,127.0,127.0,-127.0,77.0,-113.0
127.0,127.0,127.0,127.0,127.0,127.0,106.0,128.0,7.0,123.0,-93.0,127.0,127.0,127.0,-127.0,77.0,-113.0
127.0,127.0,127.0,127.0,127.0,127.0,107.0,128.0,7.0,123.0,-93.0,127.0,127.0,127.0,-127.0,77.0,-113.0
127.0,127.0,127.0,127.0,127.0,127.0,108.0,128.0,7.0,123.0,-93.0,127.0,127.0,127.0,-127.0,77.0,-113.0
127.0,127.0,127.0,127.0,127.0,127.0,108.0,128.0,7.0,123.0,-93.0,127.0,127.0,127.0,-127.0,77.0,-113.0
127.0,127.0,127.0,127.0,127.0,127.0,107.0,128.0,7.0,123.0,-93.0,127.0,127.0,127.0,-127.0,77.0,-113.0
127.0,127.0,127.0,127.0,127.0,127.0,106.0,128.0,7.0,123.0,-93.0,127.0,127.0,127.0,-127.0,77.0,-113.0
127.0,127.0,127.0,127.0,127.0,127.0,106.0,128.0,7.0,123.0,-93.0,127.0,127.0,127.0,-127.0,77.0,-113.0
127.0,127.0,127.0,127.0,127.0,127.0,106.0,128.0,7.0,123.0,-93.0,127.0,127.0,127.0,-127.0,77.0,-113.0
127.0,127.0,127.0,127.0,127.0,127.0,106.0,128.0,7.0,123.0,-93.0,127.0,127.0,127.0,-127.0,77.0,-113.0
127.0,127.0,127.0,127.0,127.0,127.0,106.0,128.0,7.0,123.0,-93.0,127.0,127.0,127.0,-127.0,77.0,-113.0
127.0,127.0,127.0,127.0,127.0,127.0,106.0,128.0,7.0,123.0,-93.0,127.0,127.0,127.0,-127.0,77.0,-113.0
127.0,127.0,127.0,127.0,127.0,127.0,109.0,128.0,7.0,123.0,-93.0,127.0,127.0,127.0,-127.0,77.0,-113.0
127.0,127.0,127.0,127.0,127.0,127.0,110.0,128.0,7.0,123.0,-93.0,127.0,127.0,127.0,-127.0,77.0,-113.0
127.0,127.0,127.0,127.0,127.0,127.0,112.0,128.0,7.0,123.0,-93.0,127.0,127.0,127.0,-127.0,77.0,-113.0
127.0,126.0,127.0,127.0,127.0,127.0,113.0,128.0,7.0,123.0,-93.0,127.0,127.0,127.0,-127.0,77.0,-113.0
127.0,126.0,127.0,127.0,127.0,127.0,113.0,128.0,7.0,123.0,-93.0,127.0,127.0,127.0,-127.0,77.0,-113.0
127.0,127.0,127.0,127.0,127.0,127.0,113.0,128.0,7.0,123.0,-93.0,127.0,127.0,127.0,-127.0,77.0,-113.0
127.0,127.0,127.0,127.0,127.0,127.0,113.0,128.0,7.0,123.0,-93.0,127.0,127.0,127.0,-127.0,77.0,-113.0
127.0,127.0,127.0,127.0,127.0,127.0,113.0,128.0,7.0,123.0,-93.0,127.0,127.0,127.0,-127.0,77.0,-113.0
127.0,127.0,127.0,127.0,127.0,127.0,114.0,128.0,7.0,123.0,-93.0,127.0,127.0,127.0,-127.0,77.0,-113.0
127.0,127.0,127.0,127.0,127.0,127.0,113.0,128.0,7.0,123.0,-93.0,127.0,127.0,127.0,-127.0,77.0,-113.0
127.0,127.0,127.0,127.0,127.0,127.0,113.0,128.0,7.0,123.0,-93.0,127.0,127.0,127.0,-127.0,77.0,-113.0
127.0,127.0,127.0,127.0,127.0,127.0,112.0,128.0,7.0,123.0,-93.0,127.0,127.0,127.0,-127.0,77.0,-113.0
127.0,126.0,127.0,127.0,126.0,127.0,112.0,128.0,7.0,123.0,-93.0,127.0,127.0,127.0,-127.0,77.0,-113.0
127.0,127.0,127.0,127.0,127.0,127.0,106.0,128.0,7.0,123.0,-93.0,127.0,127.0,127.0,-127.0,77.0,-113.0
127.0,127.0,127.0,127.0,127.0,127.0,106.0,128.0,7.0,123.0,-93.0,127.0,127.0,127.0,-127.0,77.0,-113.0
127.0,127.0,127.0,127.0,127.0,127.0,107.0,128.0,7.0,123.0,-93.0,127.0,127.0,127.0,-127.0,77.0,-113.0
127.0,127.0,127.0,127.0,127.0,127.0,107.0,128.0,7.0,123.0,-93.0,127.0,127.0,127.0,-127.0,77.0,-113.0
127.0,127.0,127.0,127.0,127.0,127.0,107.0,128.0,7.0,123.0,-93.0,127.0,127.0,127.0,-127.0,77.0,-113.0
127.0,127.0,127.0,127.0,127.0,127.0,110.0,128.0,7.0,123.0,-93.0,127.0,127.0,127.0,-127.0,77.0,-113.0
127.0,127.0,127.0,127.0,127.0,127.0,107.0,128.0,7.0,123.0,-93.0,127.0,127.0,127.0,-127.0,77.0,-113.0
127.0,127.0,127.0,127.0,127.0,127.0,107.0,128.0,7.0,123.0,-93.0,127.0,127.0,127.0,-127.0,77.0,-113.0
127.0,127.0,127.0,127.0,127.0,127.0,110.0,128.0,7.0,123.0,-93.0,127.0,127.0,127.0,-127.0,77.0,-113.0
127.0,127.0,127.0,127.0,127.0,127.0,106.0,128.0,7.0,123.0,-93.0,127.0,127.0,127.0,-127.0,77.0,-113.0
127.0,127.0,127.0,127.0,127.0,127.0,106.0,128.0,6.0,123.0,-93.0,127.0,127.0,127.0,-127.0,77.0,-113.0
127.0,127.0,127.0,127.0,127.0,127.0,106.0,128.0,6.0,123.0,-93.0,127.0,127.0,127.0,-127.0,77.0,-113.0
127.0,127.0,127.0,127.0,127.0,127.0,106.0,128.0,6.0,123.0,-93.0,127.0,127.0,127.0,-127.0,77.0,-113.0
127.0,127.0,127.0,127.0,127.0,127.0,106.0,128.0,6.0,123.0,-93.0,127.0,127.0,127.0,-127.0,77.0,-113.0
127.0,127.0,127.0,127.0,127.0,127.0,107.0,128.0,6.0,123.0,-93.0,127.0,127.0,127.0,-127.0,77.0,-113.0
127.0,127.0,127.0,127.0,127.0,127.0,106.0,128.0,6.0,123.0,-93.0,127.0,127.0,127.0,-127.0,77.0,-113.0
127.0,127.0,127.0,127.0,127.0,127.0,108.0,128.0,6.0,123.0,-93.0,127.0,127.0,127.0,-127.0,77.0,-113.0
127.0,127.0,127.0,127.0,127.0,127.0,106.0,128.0,6.0,123.0,-93.0,127.0,127.0,127.0,-127.0,77.0,-113.0
127.0,127.0,127.0,127.0,127.0,127.0,106.0,128.0,6.0,123.0,-93.0,127.0,127.0,127.0,-127.0,77.0,-113.0
127.0,127.0,127.0,127.0,127.0,127.0,106.0,128.0,6.0,123.0,-93.0,127.0,127.0,127.0,-127.0,77.0,-113.0
126.0,127.0,127.0,127.0,127.0,127.0,107.0,128.0,6.0,123.0,-93.0,127.0,127.0,127.0,-127.0,77.0,-113.0
126.0,127.0,127.0,127.0,127.0,127.0,106.0,128.0,6.0,123.0,-93.0,127.0,127.0,127.0,-127.0,77.0,-113.0
126.0,127.0,127.0,127.0,127.0,127.0,106.0,128.0,6.0,123.0,-93.0,127.0,127.0,127.0,-127.0,77.0,-113.0
126.0,127.0,127.0,127.0,127.0,127.0,106.0,128.0,6.0,123.0,-93.0,127.0,127.0,127.0,-127.0,77.0,-113.0
126.0,127.0,127.0,127.0,127.0,127.0,106.0,128.0,6.0,123.0,-93.0,127.0,127.0,127.0,-127.0,77.0,-113.0
126.0,127.0,127.0,127.0,127.0,127.0,106.0,128.0,6.0,123.0,-93.0,127.0,127.0,127.0,-127.0,77.0,-113.0
127.0,127.0,127.0,127.0,127.0,127.0,113.0,128.0,6.0,123.0,-93.0,127.0,127.0,127.0,-127.0,77.0,-113.0
127.0,127.0,127.0,127.0,127.0,127.0,108.0,128.0,6.0,123.0,-93.0,127.0,127.0,127.0,-127.0,77.0,-113.0
127.0,127.0,127.0,127.0,127.0,127.0,107.0,128.0,6.0,123.0,-93.0,127.0,127.0,127.0,-127.0,77.0,-113.0
126.0,127.0,127.0,127.0,127.0,127.0,109.0,128.0,6.0,123.0,-93.0,127.0,127.0,127.0,-127.0,77.0,-113.0
127.0,127.0,127.0,127.0,127.0,127.0,106.0,128.0,6.0,123.0,-92.0,127.0,127.0,127.0,-127.0,77.0,-113.0
127.0,127.0,127.0,127.0,127.0,127.0,106.0,128.0,6.0,123.0,-92.0,127.0,127.0,127.0,-127.0,77.0,-113.0
127.0,127.0,127.0,127.0,127.0,127.0,106.0,128.0,6.0,123.0,-92.0,127.0,127.0,127.0,-127.0,77.0,-113.0
127.0,127.0,127.0,127.0,127.0,127.0,106.0,128.0,6.0,123.0,-92.0,127.0,127.0,127.0,-127.0,77.0,-113.0
127.0,127.0,127.0,127.0,127.0,127.0,106.0,128.0,6.0,123.0,-92.0,127.0,127.0,127.0,-127.0,77.0,-113.0
127.0,127.0,127.0,127.0,127.0,127.0,106.0,128.0,6.0,123.0,-92.0,127.0,127.0,127.0,-127.0,77.0,-113.0
127.0,127.0,127.0,127.0,127.0,127.0,106.0,128.0,6.0,123.0,-92.0,127.0,127.0,127.0,-127.0,77.0,-113.0
127.0,127.0,127.0,127.0,127.0,127.0,107.0,128.0,6.0,123.0,-92.0,127.0,127.0,127.0,-127.0,77.0,-113.0
127.0,127.0,127.0,127.0,127.0,127.0,108.0,128.0,6.0,123.0,-92.0,127.0,127.0,127.0,-127.0,77.0,-113.0
127.0,127.0,127.0,127.0,127.0,127.0,108.0,128.0,6.0,123.0,-92.0,127.0,127.0,127.0,-127.0,77.0,-113.0
127.0,127.0,127.0,127.0,127.0,127.0,114.0,128.0,6.0,123.0,-92.0,127.0,127.0,127.0,-127.0,77.0,-113.0
127.0,127.0,127.0,127.0,127.0,127.0,113.0,128.0,6.0,123.0,-92.0,127.0,127.0,127.0,-127.0,77.0,-113.0
126.0,127.0,127.0,127.0,127.0,127.0,113.0,128.0,6.0,123.0,-92.0,127.0,127.0,127.0,-127.0,77.0,-113.0
126.0,127.0,127.0,127.0,127.0,127.0,113.0,128.0,6.0,123.0,-92.0,127.0,127.0,127.0,-127.0,77.0,-113.0
127.0,127.0,127.0,127.0,126.0,127.0,113.0,128.0,6.0,123.0,-92.0,127.0,127.0,127.0,-127.0,77.0,-113.0
127.0,127.0,127.0,127.0,126.0,127.0,114.0,128.0,6.0,123.0,-92.0,127.0,127.0,127.0,-127.0,77.0,-113.0
127.0,127.0,127.0,127.0,126.0,127.0,113.0,128.0,6.0,123.0,-92.0,127.0,127.0,127.0,-127.0,77.0,-113.0
126.0,127.0,127.0,127.0,126.0,127.0,113.0,128.0,6.0,123.0,-92.0,127.0,127.0,127.0,-127.0,77.0,-113.0
127.0,127.0,127.0,127.0,126.0,127.0,113.0,128.0,6.0,123.0,-92.0,127.0,127.0,127.0,-127.0,77.0,-113.0
126.0,127.0,127.0,127.0,127.0,127.0,114.0,128.0,6.0,123.0,-92.0,127.0,127.0,127.0,-127.0,77.0,-113.0
126.0,127.0,127.0,127.0,127.0,127.0,105.0,128.0,6.0,123.0,-92.0,127.0,127.0,127.0,-127.0,77.0,-113.0
126.0,127.0,127.0,127.0,127.0,127.0,108.0,128.0,6.0,123.0,-92.0,127.0,127.0,127.0,-127.0,77.0,-113.0
126.0,127.0,127.0,127.0,127.0,127.0,110.0,128.0,6.0,123.0,-92.0,127.0,127.0,127.0,-127.0,77.0,-113.0
127.0,127.0,127.0,127.0,127.0,127.0,113.0,128.0,6.0,123.0,-92.0,127.0,127.0,127.0,-127.0,77.0,-113.0
127.0,127.0,127.0,127.0,127.0,127.0,113.0,128.0,6.0,123.0,-92.0,127.0,127.0,127.0,-127.0,77.0,-113.0
127.0,127.0,127.0,127.0,127.0,127.0,113.0,128.0,6.0,123.0,-92.0,127.0,127.0,127.0,-127.0,77.0,-113.0
127.0,127.0,127.0,127.0,127.0,127.0,113.0,128.0,6.0,123.0,-92.0,127.0,127.0,127.0,-127.0,77.0,-113.0
127.0,127.0,127.0,127.0,127.0,127.0,112.0,128.0,6.0,123.0,-92.0,127.0,127.0,127.0,-127.0,77.0,-113.0
127.0,127.0,127.0,127.0,127.0,127.0,107.0,128.0,6.0,123.0,-92.0,127.0,127.0,127.0,-127.0,77.0,-113.0
127.0,127.0,127.0,127.0,127.0,127.0,106.0,128.0,6.0,123.0,-92.0,127.0,127.0,127.0,-127.0,77.0,-113.0
127.0,127.0,127.0,127.0,127.0,127.0,106.0,128.0,6.0,123.0,-92.0,127.0,127.0,127.0,-127.0,77.0,-113.0
127.0,127.0,127.0,127.0,127.0,127.0,106.0,128.0,6.0,123.0,-92.0,127.0,127.0,127.0,-127.0,77.0,-113.0
127.0,127.0,127.0,127.0,127.0,127.0,106.0,128.0,6.0,123.0,-92.0,127.0,127.0,127.0,-127.0,77.0,-113.0
127.0,127.0,127.0,127.0,127.0,127.0,108.0,128.0,6.0,123.0,-92.0,127.0,127.0,127.0,-127.0,77.0,-113.0
127.0,127.0,127.0,127.0,127.0,127.0,109.0,128.0,6.0,123.0,-92.0,127.0,127.0,127.0,-127.0,77.0,-113.0
127.0,127.0,127.0,127.0,127.0,127.0,108.0,128.0,6.0,123.0,-92.0,127.0,127.0,127.0,-127.0,77.0,-113.0
127.0,127.0,127.0,127.0,127.0,127.0,110.0,128.0,6.0,123.0,-92.0,127.0,127.0,127.0,-127.0,77.0,-113.0
127.0,127.0,127.0,127.0,127.0,127.0,107.0,128.0,6.0,123.0,-92.0,127.0,127.0,127.0,-127.0,77.0,-113.0
127.0,127.0,127.0,127.0,127.0,127.0,106.0,128.0,6.0,123.0,-92.0,127.0,127.0,127.0,-127.0,77.0,-113.0
127.0,127.0,127.0,127.0,127.0,127.0,106.0,128.0,6.0,123.0,-92.0,127.0,127.0,127.0,-127.0,77.0,-113.0
126.0,127.0,127.0,127.0,127.0,127.0,107.0,128.0,6.0,123.0,-92.0,127.0,127.0,127.0,-127.0,77.0,-113.0
127.0,127.0,127.0,127.0,127.0,127.0,112.0,128.0,6.0,123.0,-92.0,127.0,127.0,127.0,-127.0,77.0,-113.0
127.0,126.0,127.0,127.0,127.0,127.0,113.0,128.0,6.0,123.0,-92.0,127.0,127.0,127.0,-127.0,77.0,-113.0
127.0,127.0,127.0,127.0,127.0,127.0,114.0,128.0,6.0,123.0,-92.0,127.0,127.0,127.0,-127.0,77.0,-113.0
127.0,127.0,127.0,127.0,127.0,127.0,112.0,128.0,6.0,123.0,-92.0,127.0,127.0,127.0,-127.0,77.0,-113.0
127.0,127.0,127.0,127.0,127.0,127.0,113.0,128.0,6.0,123.0,-92.0,127.0,127.0,127.0,-127.0,77.0,-113.0
127.0,127.0,127.0,127.0,127.0,127.0,113.0,128.0,6.0,123.0,-92.0,127.0,127.0,127.0,-127.0,77.0,-113.0
127.0,127.0,127.0,127.0,127.0,127.0,113.0,128.0,6.0,123.0,-92.0,127.0,127.0,127.0,-127.0,77.0,-113.0
126.0,127.0,127.0,127.0,127.0,127.0,113.0,128.0,6.0,123.0,-92.0,127.0,127.0,127.0,-127.0,77.0,-113.0
126.0,127.0,127.0,127.0,127.0,127.0,110.0,128.0,6.0,123.0,-92.0,127.0,127.0,127.0,-127.0,77.0,-113.0
127.0,127.0,127.0,127.0,127.0,127.0,108.0,128.0,6.0,123.0,-92.0,127.0,127.0,127.0,-127.0,77.0,-113.0
127.0,127.0,127.0,127.0,127.0,127.0,109.0,128.0,6.0,123.0,-92.0,127.0,127.0,127.0,-127.0,77.0,-113.0
127.0,127.0,127.0,127.0,127.0,127.0,108.0,128.0,6.0,123.0,-92.0,127.0,127.0,127.0,-127.0,77.0,-113.0
127.0,127.0,127.0,127.0,127.0,127.0,106.0,128.0,6.0,123.0,-92.0,127.0,127.0,127.0,-127.0,77.0,-113.0
127.0,127.0,127.0,127.0,127.0,127.0,106.0,128.0,6.0,123.0,-92.0,127.0,127.0,127.0,-127.0,77.0,-113.0
127.0,127.0,127.0,127.0,127.0,127.0,106.0,128.0,6.0,123.0,-92.0,127.0,127.0,127.0,-127.0,77.0,-113.0
127.0,127.0,127.0,127.0,127.0,127.0,106.0,128.0,6.0,123.0,-92.0,127.0,127.0,127.0,-127.0,77.0,-113.0
127.0,127.0,127.0,127.0,127.0,127.0,106.0,128.0,6.0,123.0,-92.0,127.0,127.0,127.0,-127.0,77.0,-113.0
127.0,127.0,127.0,127.0,127.0,127.0,106.0,128.0,6.0,123.0,-92.0,127.0,127.0,127.0,-127.0,77.0,-113.0
127.0,127.0,127.0,127.0,127.0,127.0,108.0,128.0,6.0,123.0,-92.0,127.0,127.0,127.0,-127.0,77.0,-113.0
127.0,127.0,127.0,127.0,127.0,127.0,108.0,128.0,6.0,123.0,-92.0,127.0,127.0,127.0,-127.0,77.0,-113.0
126.0,127.0,127.0,127.0,127.0,127.0,109.0,128.0,6.0,123.0,-92.0,127.0,127.0,127.0,-127.0,77.0,-113.0
127.0,127.0,127.0,127.0,127.0,127.0,106.0,128.0,6.0,123.0,-92.0,127.0,127.0,127.0,-127.0,77.0,-113.0
126.0,127.0,127.0,127.0,127.0,127.0,106.0,128.0,6.0,123.0,-92.0,127.0,127.0,127.0,-127.0,77.0,-113.0
126.0,127.0,127.0,127.0,127.0,127.0,106.0,128.0,6.0,123.0,-92.0,127.0,127.0,127.0,-127.0,77.0,-113.0
126.0,127.0,127.0,127.0,127.0,127.0,106.0,128.0,6.0,123.0,-92.0,127.0,127.0,127.0,-127.0,77.0,-113.0
126.0,127.0,127.0,127.0,127.0,127.0,106.0,128.0,6.0,123.0,-92.0,127.0,127.0,127.0,-127.0,77.0,-113.0
127.0,127.0,127.0,127.0,127.0,127.0,106.0,128.0,6.0,123.0,-92.0,127.0,127.0,127.0,-127.0,77.0,-113.0
126.0,127.0,127.0,127.0,127.0,127.0,106.0,128.0,6.0,123.0,-92.0,127.0,127.0,127.0,-127.0,77.0,-113.0
127.0,127.0,127.0,127.0,127.0,127.0,108.0,128.0,6.0,123.0,-92.0,127.0,127.0,127.0,-127.0,77.0,-113.0
126.0,127.0,127.0,127.0,127.0,127.0,112.0,128.0,6.0,123.0,-91.0,127.0,127.0,127.0,-127.0,77.0,-113.0
127.0,127.0,127.0,127.0,127.0,127.0,108.0,128.0,6.0,123.0,-91.0,127.0,127.0,127.0,-127.0,77.0,-113.0
126.0,127.0,127.0,127.0,127.0,127.0,106.0,128.0,6.0,123.0,-91.0,127.0,127.0,127.0,-127.0,77.0,-113.0
126.0,127.0,127.0,127.0,127.0,127.0,107.0,128.0,6.0,123.0,-91.0,127.0,127.0,127.0,-127.0,77.0,-113.0
126.0,127.0,127.0,127.0,127.0,127.0,107.0,128.0,6.0,123.0,-91.0,127.0,127.0,127.0,-127.0,77.0,-113.0
126.0,127.0,127.0,127.0,127.0,127.0,106.0,128.0,6.0,123.0,-91.0,127.0,127.0,127.0,-127.0,77.0,-113.0
126.0,127.0,127.0,127.0,127.0,127.0,106.0,128.0,6.0,123.0,-91.0,127.0,127.0,127.0,-127.0,77.0,-113.0
126.0,127.0,127.0,127.0,127.0,127.0,109.0,128.0,6.0,123.0,-91.0,127.0,127.0,127.0,-127.0,77.0,-113.0
127.0,127.0,127.0,127.0,127.0,127.0,114.0,128.0,6.0,123.0,-91.0,127.0,127.0,127.0,-127.0,77.0,-113.0
127.0,127.0,127.0,127.0,127.0,127.0,113.0,128.0,6.0,123.0,-91.0,127.0,127.0,127.0,-127.0,77.0,-113.0
127.0,127.0,127.0,127.0,127.0,127.0,106.0,128.0,6.0,123.0,-91.0,127.0,127.0,127.0,-127.0,77.0,-113.0
127.0,127.0,127.0,127.0,127.0,127.0,106.0,128.0,6.0,123.0,-91.0,127.0,127.0,127.0,-127.0,77.0,-113.0
127.0,127.0,127.0,127.0,127.0,127.0,106.0,128.0,6.0,123.0,-91.0,127.0,127.0,127.0,-127.0,77.0,-113.0
127.0,127.0,127.0,127.0,127.0,127.0,106.0,128.0,6.0,123.0,-91.0,127.0,127.0,127.0,-127.0,77.0,-113.0
126.0,127.0,127.0,127.0,127.0,127.0,106.0,128.0,6.0,123.0,-91.0,127.0,127.0,127.0,-127.0,77.0,-113.0
127.0,127.0,127.0,127.0,127.0,127.0,106.0,128.0,6.0,123.0,-91.0,127.0,127.0,127.0,-127.0,77.0,-113.0
127.0,127.0,127.0,127.0,127.0,127.0,106.0,128.0,6.0,123.0,-91.0,127.0,127.0,127.0,-127.0,77.0,-113.0
127.0,127.0,127.0,127.0,127.0,127.0,108.0,128.0,6.0,123.0,-91.0,127.0,127.0,127.0,-127.0,77.0,-113.0
127.0,127.0,127.0,127.0,127.0,127.0,108.0,128.0,6.0,123.0,-91.0,127.0,127.0,127.0,-127.0,77.0,-113.0
127.0,127.0,127.0,127.0,127.0,127.0,109.0,128.0,6.0,123.0,-91.0,127.0,127.0,127.0,-127.0,77.0,-113.0
126.0,127.0,127.0,127.0,127.0,127.0,106.0,128.0,6.0,123.0,-91.0,127.0,127.0,127.0,-127.0,77.0,-113.0
126.0,127.0,127.0,127.0,127.0,127.0,106.0,128.0,6.0,123.0,-91.0,127.0,127.0,127.0,-127.0,77.0,-113.0
126.0,127.0,127.0,127.0,127.0,127.0,106.0,128.0,6.0,123.0,-91.0,127.0,127.0,127.0,-127.0,77.0,-113.0
126.0,127.0,127.0,127.0,127.0,127.0,107.0,128.0,6.0,123.0,-91.0,127.0,127.0,127.0,-127.0,77.0,-113.0
126.0,127.0,127.0,127.0,127.0,127.0,106.0,128.0,6.0,123.0,-91.0,127.0,127.0,127.0,-127.0,77.0,-113.0
126.0,127.0,127.0,127.0,127.0,127.0,106.0,128.0,6.0,123.0,-91.0,127.0,127.0,127.0,-127.0,77.0,-113.0
127.0,127.0,127.0,126.0,126.0,127.0,106.0,128.0,6.0,123.0,-91.0,127.0,127.0,127.0,-127.0,77.0,-113.0
127.0,127.0,127.0,126.0,127.0,127.0,107.0,128.0,6.0,123.0,-91.0,127.0,127.0,127.0,-127.0,77.0,-113.0
126.0,127.0,127.0,126.0,126.0,127.0,109.0,128.0,6.0,123.0,-91.0,127.0,127.0,127.0,-127.0,77.0,-113.0
126.0,127.0,127.0,127.0,127.0,127.0,107.0,128.0,6.0,123.0,-91.0,127.0,127.0,127.0,-127.0,77.0,-113.0
126.0,127.0,127.0,127.0,127.0,127.0,113.0,128.0,6.0,123.0,-90.0,127.0,127.0,127.0,-127.0,77.0,-113.0
126.0,127.0,127.0,127.0,127.0,127.0,113.0,128.0,6.0,123.0,-90.0,127.0,127.0,127.0,-127.0,77.0,-113.0
126.0,127.0,127.0,127.0,127.0,127.0,113.0,128.0,6.0,123.0,-90.0,127.0,127.0,127.0,-127.0,77.0,-113.0
126.0,127.0,127.0,127.0,127.0,127.0,113.0,128.0,6.0,123.0,-90.0,127.0,127.0,127.0,-127.0,77.0,-113.0
126.0,127.0,127.0,127.0,127.0,127.0,112.0,128.0,6.0,123.0,-90.0,127.0,127.0,127.0,-127.0,77.0,-113.0
127.0,126.0,127.0,126.0,126.0,127.0,112.0,128.0,6.0,123.0,-90.0,127.0,127.0,127.0,-127.0,77.0,-113.0
126.0,126.0,127.0,127.0,126.0,127.0,112.0,128.0,6.0,123.0,-90.0,127.0,127.0,127.0,-127.0,77.0,-113.0
126.0,127.0,127.0,127.0,126.0,127.0,113.0,128.0,6.0,123.0,-90.0,127.0,127.0,127.0,-127.0,77.0,-113.0
126.0,127.0,127.0,127.0,126.0,127.0,113.0,128.0,6.0,123.0,-90.0,127.0,127.0,127.0,-127.0,77.0,-113.0
126.0,127.0,127.0,127.0,127.0,127.0,113.0,128.0,6.0,123.0,-90.0,127.0,127.0,127.0,-127.0,77.0,-113.0
126.0,127.0,127.0,127.0,127.0,127.0,106.0,128.0,6.0,123.0,-90.0,127.0,127.0,127.0,-127.0,77.0,-113.0
126.0,127.0,127.0,127.0,127.0,127.0,106.0,128.0,6.0,123.0,-90.0,127.0,127.0,127.0,-127.0,77.0,-113.0
126.0,127.0,127.0,127.0,127.0,127.0,106.0,128.0,6.0,123.0,-90.0,127.0,127.0,127.0,-127.0,77.0,-113.0
126.0,127.0,127.0,127.0,127.0,127.0,108.0,128.0,6.0,123.0,-90.0,127.0,127.0,127.0,-127.0,77.0,-113.0
127.0,126.0,127.0,127.0,127.0,127.0,113.0,127.0,6.0,123.0,-90.0,127.0,127.0,127.0,-127.0,77.0,-113.0
127.0,127.0,127.0,127.0,127.0,127.0,113.0,127.0,6.0,123.0,-90.0,127.0,127.0,127.0,-127.0,77.0,-113.0
127.0,127.0,127.0,127.0,127.0,127.0,114.0,128.0,6.0,123.0,-90.0,127.0,127.0,127.0,-127.0,77.0,-113.0
126.0,127.0,127.0,127.0,127.0,127.0,110.0,128.0,6.0,123.0,-90.0,127.0,127.0,127.0,-127.0,77.0,-113.0
126.0,127.0,127.0,127.0,127.0,127.0,107.0,128.0,6.0,123.0,-90.0,127.0,127.0,127.0,-127.0,77.0,-113.0
126.0,127.0,127.0,127.0,127.0,127.0,106.0,128.0,6.0,123.0,-90.0,127.0,127.0,127.0,-127.0,77.0,-113.0
127.0,127.0,127.0,127.0,127.0,127.0,114.0,128.0,6.0,123.0,-90.0,127.0,127.0,127.0,-127.0,77.0,-113.0
127.0,127.0,127.0,127.0,127.0,127.0,113.0,128.0,6.0,123.0,-90.0,127.0,127.0,127.0,-127.0,77.0,-113.0
127.0,127.0,127.0,127.0,127.0,127.0,113.0,128.0,6.0,123.0,-90.0,127.0,127.0,127.0,-127.0,77.0,-113.0
127.0,126.0,127.0,127.0,127.0,127.0,112.0,128.0,6.0,123.0,-90.0,127.0,127.0,127.0,-127.0,77.0,-113.0
127.0,127.0,127.0,127.0,127.0,127.0,112.0,128.0,6.0,123.0,-90.0,127.0,127.0,127.0,-127.0,77.0,-113.0
127.0,127.0,127.0,127.0,127.0,127.0,112.0,128.0,6.0,123.0,-90.0,127.0,127.0,127.0,-127.0,77.0,-113.0
127.0,127.0,127.0,127.0,127.0,127.0,112.0,128.0,6.0,123.0,-90.0,127.0,127.0,127.0,-127.0,77.0,-113.0
127.0,127.0,127.0,127.0,127.0,127.0,113.0,128.0,6.0,123.0,-90.0,127.0,127.0,127.0,-127.0,77.0,-113.0
127.0,127.0,127.0,127.0,127.0,127.0,112.0,128.0,6.0,123.0,-90.0,127.0,127.0,127.0,-127.0,77.0,-113.0
127.0,127.0,127.0,127.0,127.0,127.0,113.0,128.0,6.0,123.0,-90.0,127.0,127.0,127.0,-127.0,77.0,-113.0
127.0,127.0,127.0,127.0,127.0,127.0,108.0,128.0,6.0,123.0,-90.0,127.0,127.0,127.0,-127.0,77.0,-113.0
126.0,127.0,127.0,127.0,127.0,127.0,108.0,128.0,6.0,123.0,-90.0,127.0,127.0,127.0,-127.0,77.0,-113.0
127.0,126.0,127.0,127.0,127.0,127.0,113.0,128.0,6.0,123.0,-90.0,127.0,127.0,127.0,-127.0,77.0,-113.0
127.0,126.0,127.0,127.0,127.0,127.0,113.0,128.0,6.0,123.0,-90.0,127.0,127.0,127.0,-127.0,77.0,-113.0
127.0,126.0,127.0,127.0,127.0,127.0,113.0,128.0,6.0,123.0,-90.0,127.0,127.0,127.0,-127.0,77.0,-113.0
127.0,127.0,127.0,127.0,127.0,127.0,113.0,128.0,6.0,123.0,-90.0,127.0,127.0,127.0,-127.0,77.0,-113.0
127.0,127.0,127.0,127.0,127.0,127.0,111.0,128.0,6.0,123.0,-90.0,127.0,127.0,127.0,-127.0,77.0,-113.0
127.0,127.0,127.0,127.0,127.0,127.0,108.0,128.0,6.0,123.0,-90.0,127.0,127.0,127.0,-127.0,77.0,-113.0
127.0,127.0,127.0,127.0,127.0,127.0,106.0,128.0,6.0,123.0,-90.0,127.0,127.0,127.0,-127.0,77.0,-113.0
127.0,127.0,127.0,127.0,127.0,127.0,108.0,128.0,6.0,123.0,-90.0,127.0,127.0,127.0,-127.0,77.0,-113.0
127.0,127.0,127.0,127.0,127.0,127.0,113.0,128.0,6.0,123.0,-90.0,127.0,127.0,127.0,-127.0,77.0,-113.0
127.0,127.0,127.0,127.0,127.0,127.0,105.0,128.0,6.0,123.0,-90.0,127.0,127.0,127.0,-127.0,77.0,-113.0
127.0,127.0,127.0,127.0,127.0,127.0,109.0,128.0,6.0,123.0,-90.0,127.0,127.0,127.0,-127.0,77.0,-113.0
127.0,127.0,127.0,127.0,127.0,127.0,107.0,128.0,6.0,123.0,-90.0,127.0,127.0,127.0,-127.0,77.0,-113.0
127.0,127.0,127.0,127.0,127.0,127.0,110.0,128.0,6.0,123.0,-90.0,127.0,127.0,127.0,-127.0,77.0,-113.0
127.0,127.0,127.0,127.0,127.0,127.0,112.0,128.0,6.0,123.0,-90.0,127.0,127.0,127.0,-127.0,77.0,-113.0
127.0,127.0,127.0,127.0,127.0,127.0,113.0,128.0,6.0,123.0,-90.0,127.0,127.0,127.0,-127.0,77.0,-113.0
127.0,127.0,127.0,127.0,127.0,127.0,114.0,128.0,6.0,123.0,-90.0,127.0,127.0,127.0,-127.0,77.0,-113.0
127.0,127.0,127.0,127.0,127.0,127.0,113.0,128.0,6.0,123.0,-90.0,127.0,127.0,127.0,-127.0,77.0,-113.0
127.0,127.0,127.0,127.0,127.0,127.0,113.0,128.0,6.0,123.0,-90.0,127.0,127.0,127.0,-127.0,77.0,-113.0
127.0,127.0,127.0,127.0,126.0,127.0,106.0,128.0,6.0,123.0,-89.0,127.0,127.0,127.0,-127.0,77.0,-113.0
127.0,127.0,127.0,127.0,126.0,127.0,107.0,128.0,6.0,123.0,-89.0,127.0,127.0,127.0,-127.0,77.0,-113.0
127.0,127.0,127.0,127.0,126.0,127.0,106.0,128.0,6.0,123.0,-89.0,127.0,127.0,127.0,-127.0,77.0,-113.0
127.0,127.0,127.0,127.0,127.0,127.0,106.0,128.0,6.0,123.0,-89.0,127.0,127.0,127.0,-127.0,77.0,-113.0
127.0,127.0,127.0,127.0,127.0,127.0,106.0,128.0,6.0,123.0,-89.0,127.0,127.0,127.0,-127.0,77.0,-113.0
127.0,127.0,127.0,127.0,126.0,127.0,107.0,128.0,6.0,123.0,-89.0,127.0,127.0,127.0,-127.0,77.0,-113.0
127.0,127.0,127.0,127.0,127.0,127.0,110.0,128.0,6.0,123.0,-89.0,127.0,127.0,127.0,-127.0,77.0,-113.0
127.0,127.0,127.0,127.0,127.0,127.0,113.0,128.0,6.0,123.0,-89.0,127.0,127.0,127.0,-127.0,77.0,-113.0
126.0,127.0,127.0,127.0,127.0,127.0,113.0,128.0,6.0,123.0,-89.0,127.0,127.0,127.0,-127.0,77.0,-113.0
127.0,127.0,127.0,127.0,127.0,127.0,114.0,128.0,6.0,123.0,-89.0,127.0,127.0,127.0,-127.0,77.0,-113.0
127.0,127.0,127.0,127.0,127.0,127.0,106.0,128.0,6.0,123.0,-89.0,127.0,126.0,127.0,-127.0,77.0,-113.0
127.0,127.0,127.0,127.0,127.0,127.0,106.0,128.0,6.0,123.0,-89.0,127.0,126.0,127.0,-127.0,77.0,-113.0
127.0,127.0,127.0,127.0,127.0,127.0,106.0,128.0,6.0,123.0,-89.0,127.0,126.0,127.0,-127.0,77.0,-113.0
127.0,127.0,127.0,127.0,127.0,127.0,105.0,128.0,6.0,123.0,-89.0,127.0,126.0,127.0,-127.0,77.0,-113.0
127.0,127.0,127.0,127.0,127.0,127.0,106.0,128.0,6.0,123.0,-89.0,127.0,126.0,127.0,-127.0,77.0,-113.0
127.0,127.0,127.0,127.0,127.0,127.0,108.0,128.0,6.0,123.0,-89.0,127.0,126.0,127.0,-127.0,77.0,-113.0
127.0,127.0,127.0,127.0,127.0,127.0,112.0,128.0,6.0,123.0,-89.0,127.0,126.0,127.0,-127.0,77.0,-113.0
127.0,127.0,127.0,127.0,127.0,127.0,112.0,128.0,6.0,123.0,-89.0,127.0,126.0,127.0,-127.0,77.0,-113.0
127.0,127.0,127.0,127.0,127.0,127.0,113.0,128.0,6.0,123.0,-89.0,127.0,126.0,127.0,-127.0,77.0,-113.0
127.0,127.0,127.0,126.0,127.0,127.0,106.0,128.0,6.0,123.0,-89.0,127.0,126.0,127.0,-127.0,77.0,-113.0
127.0,127.0,127.0,127.0,127.0,127.0,107.0,128.0,6.0,123.0,-89.0,127.0,126.0,127.0,-127.0,77.0,-113.0
127.0,127.0,127.0,127.0,127.0,127.0,106.0,128.0,6.0,123.0,-89.0,127.0,126.0,127.0,-127.0,77.0,-113.0
127.0,127.0,127.0,127.0,127.0,127.0,106.0,128.0,6.0,123.0,-89.0,127.0,126.0,127.0,-127.0,77.0,-113.0
127.0,127.0,127.0,127.0,127.0,127.0,107.0,128.0,6.0,123.0,-89.0,127.0,126.0,127.0,-127.0,77.0,-113.0
127.0,127.0,127.0,127.0,127.0,127.0,107.0,128.0,6.0,123.0,-89.0,127.0,126.0,127.0,-127.0,77.0,-113.0
127.0,127.0,127.0,127.0,127.0,127.0,109.0,128.0,6.0,123.0,-89.0,127.0,126.0,127.0,-127.0,77.0,-113.0
127.0,127.0,127.0,127.0,127.0,127.0,112.0,128.0,6.0,123.0,-89.0,127.0,126.0,127.0,-127.0,77.0,-113.0
127.0,127.0,127.0,127.0,127.0,127.0,113.0,128.0,6.0,123.0,-89.0,127.0,126.0,127.0,-127.0,77.0,-113.0
127.0,127.0,127.0,127.0,127.0,127.0,106.0,128.0,6.0,123.0,-89.0,127.0,126.0,127.0,-127.0,77.0,-113.0
127.0,127.0,127.0,127.0,127.0,127.0,106.0,128.0,6.0,123.0,-89.0,127.0,126.0,127.0,-127.0,77.0,-113.0
127.0,127.0,127.0,127.0,127.0,127.0,106.0,128.0,6.0,123.0,-89.0,127.0,126.0,127.0,-127.0,77.0,-113.0
127.0,127.0,127.0,127.0,127.0,127.0,106.0,128.0,6.0,123.0,-89.0,127.0,126.0,127.0,-127.0,77.0,-113.0
127.0,127.0,127.0,127.0,127.0,127.0,106.0,128.0,6.0,123.0,-89.0,127.0,126.0,127.0,-127.0,77.0,-113.0
127.0,127.0,127.0,127.0,127.0,127.0,106.0,128.0,6.0,123.0,-89.0,127.0,126.0,127.0,-127.0,77.0,-113.0
127.0,127.0,127.0,127.0,127.0,127.0,107.0,128.0,6.0,123.0,-89.0,127.0,126.0,127.0,-127.0,77.0,-113.0
127.0,127.0,127.0,127.0,127.0,127.0,111.0,128.0,6.0,123.0,-89.0,127.0,126.0,127.0,-127.0,77.0,-113.0
127.0,127.0,127.0,127.0,127.0,127.0,112.0,128.0,6.0,123.0,-89.0,127.0,126.0,127.0,-127.0,77.0,-113.0
127.0,127.0,127.0,127.0,127.0,127.0,106.0,128.0,6.0,123.0,-89.0,127.0,126.0,127.0,-127.0,77.0,-113.0
127.0,127.0,127.0,127.0,127.0,127.0,106.0,128.0,6.0,123.0,-89.0,127.0,126.0,127.0,-127.0,77.0,-113.0
127.0,127.0,127.0,127.0,127.0,127.0,106.0,128.0,6.0,123.0,-89.0,127.0,126.0,127.0,-127.0,77.0,-113.0
127.0,127.0,127.0,127.0,127.0,127.0,106.0,128.0,6.0,123.0,-89.0,127.0,126.0,127.0,-127.0,77.0,-113.0
127.0,127.0,127.0,127.0,127.0,127.0,106.0,128.0,6.0,123.0,-89.0,127.0,126.0,127.0,-127.0,77.0,-113.0
127.0,127.0,127.0,127.0,127.0,127.0,107.0,128.0,6.0,123.0,-89.0,127.0,126.0,127.0,-127.0,77.0,-113.0
127.0,127.0,127.0,127.0,127.0,127.0,112.0,128.0,6.0,123.0,-89.0,127.0,126.0,127.0,-127.0,77.0,-113.0
127.0,127.0,127.0,127.0,127.0,127.0,112.0,128.0,6.0,123.0,-89.0,127.0,126.0,127.0,-127.0,77.0,-113.0
127.0,127.0,127.0,127.0,127.0,127.0,112.0,128.0,6.0,123.0,-89.0,127.0,126.0,127.0,-127.0,77.0,-113.0
127.0,127.0,127.0,127.0,127.0,127.0,106.0,128.0,6.0,123.0,-89.0,127.0,126.0,127.0,-127.0,77.0,-113.0
127.0,127.0,127.0,127.0,127.0,127.0,106.0,128.0,6.0,123.0,-89.0,127.0,126.0,127.0,-127.0,77.0,-113.0
127.0,127.0,127.0,127.0,127.0,127.0,106.0,128.0,6.0,123.0,-89.0,127.0,126.0,127.0,-127.0,77.0,-113.0
127.0,127.0,127.0,127.0,127.0,127.0,106.0,128.0,6.0,123.0,-89.0,127.0,126.0,127.0,-127.0,77.0,-113.0
127.0,127.0,127.0,127.0,126.0,127.0,112.0,128.0,6.0,123.0,-88.0,127.0,126.0,127.0,-127.0,77.0,-113.0
127.0,127.0,127.0,127.0,127.0,127.0,112.0,128.0,6.0,123.0,-88.0,127.0,126.0,127.0,-127.0,77.0,-113.0
127.0,127.0,127.0,127.0,126.0,127.0,113.0,128.0,6.0,123.0,-88.0,127.0,126.0,127.0,-127.0,77.0,-113.0
126.0,127.0,127.0,127.0,127.0,127.0,112.0,128.0,6.0,123.0,-88.0,127.0,126.0,127.0,-127.0,77.0,-113.0
127.0,127.0,127.0,127.0,127.0,127.0,109.0,128.0,6.0,123.0,-88.0,127.0,126.0,127.0,-127.0,77.0,-113.0
127.0,126.0,127.0,127.0,126.0,127.0,113.0,128.0,6.0,123.0,-88.0,127.0,126.0,127.0,-127.0,77.0,-113.0
127.0,127.0,127.0,127.0,126.0,127.0,113.0,128.0,6.0,123.0,-88.0,127.0,126.0,127.0,-127.0,77.0,-113.0
127.0,127.0,127.0,127.0,126.0,127.0,113.0,128.0,6.0,123.0,-88.0,127.0,126.0,127.0,-127.0,77.0,-113.0
127.0,127.0,127.0,127.0,126.0,127.0,112.0,128.0,6.0,123.0,-88.0,127.0,126.0,127.0,-127.0,77.0,-113.0
127.0,127.0,127.0,127.0,126.0,127.0,113.0,128.0,6.0,123.0,-88.0,127.0,126.0,127.0,-127.0,77.0,-113.0
127.0,127.0,127.0,127.0,127.0,127.0,107.0,128.0,7.0,124.0,-88.0,127.0,126.0,127.0,-127.0,77.0,-113.0
126.0,127.0,127.0,127.0,127.0,127.0,107.0,128.0,7.0,124.0,-88.0,127.0,126.0,127.0,-127.0,77.0,-113.0
126.0,127.0,127.0,127.0,127.0,127.0,108.0,128.0,7.0,124.0,-88.0,127.0,126.0,127.0,-127.0,77.0,-113.0
126.0,127.0,127.0,127.0,127.0,127.0,107.0,128.0,7.0,124.0,-88.0,127.0,126.0,127.0,-127.0,77.0,-113.0
127.0,126.0,127.0,127.0,127.0,127.0,114.0,128.0,7.0,124.0,-88.0,127.0,126.0,127.0,-127.0,77.0,-113.0
127.0,127.0,127.0,127.0,127.0,127.0,114.0,128.0,7.0,124.0,-88.0,127.0,126.0,127.0,-127.0,77.0,-113.0
126.0,127.0,127.0,127.0,127.0,127.0,111.0,128.0,7.0,124.0,-88.0,127.0,126.0,127.0,-127.0,77.0,-113.0
127.0,127.0,127.0,127.0,127.0,127.0,107.0,128.0,7.0,124.0,-88.0,127.0,126.0,127.0,-127.0,77.0,-113.0
127.0,127.0,127.0,127.0,127.0,127.0,106.0,128.0,7.0,124.0,-88.0,127.0,126.0,127.0,-127.0,77.0,-113.0
127.0,127.0,127.0,127.0,127.0,127.0,106.0,128.0,7.0,124.0,-88.0,127.0,126.0,127.0,-127.0,77.0,-113.0
127.0,127.0,127.0,127.0,127.0,127.0,113.0,128.0,7.0,124.0,-88.0,127.0,126.0,127.0,-127.0,78.0,-113.0
126.0,127.0,127.0,127.0,127.0,127.0,112.0,128.0,7.0,124.0,-88.0,127.0,126.0,127.0,-127.0,78.0,-113.0
126.0,127.0,127.0,127.0,127.0,127.0,107.0,128.0,7.0,124.0,-88.0,127.0,126.0,127.0,-127.0,78.0,-113.0
127.0,126.0,127.0,127.0,126.0,127.0,113.0,128.0,7.0,124.0,-88.0,127.0,126.0,127.0,-127.0,78.0,-113.0
127.0,126.0,127.0,126.0,127.0,127.0,113.0,128.0,7.0,124.0,-88.0,127.0,126.0,127.0,-127.0,78.0,-113.0
127.0,127.0,127.0,127.0,127.0,127.0,112.0,128.0,7.0,124.0,-88.0,127.0,126.0,127.0,-127.0,78.0,-113.0
127.0,127.0,127.0,127.0,127.0,127.0,111.0,128.0,7.0,124.0,-88.0,127.0,126.0,127.0,-127.0,78.0,-113.0
127.0,127.0,127.0,127.0,127.0,127.0,113.0,128.0,7.0,124.0,-88.0,127.0,126.0,127.0,-127.0,78.0,-113.0
127.0,127.0,127.0,127.0,127.0,127.0,113.0,128.0,7.0,124.0,-88.0,127.0,126.0,127.0,-127.0,78.0,-113.0
127.0,127.0,127.0,127.0,127.0,127.0,113.0,128.0,7.0,124.0,-88.0,127.0,126.0,127.0,-127.0,78.0,-113.0
127.0,127.0,127.0,127.0,127.0,127.0,113.0,128.0,8.0,124.0,-88.0,127.0,126.0,127.0,-127.0,78.0,-113.0
127.0,127.0,127.0,127.0,127.0,127.0,109.0,128.0,8.0,124.0,-88.0,127.0,126.0,127.0,-127.0,78.0,-113.0
127.0,127.0,127.0,127.0,127.0,127.0,113.0,128.0,8.0,124.0,-88.0,127.0,126.0,127.0,-127.0,78.0,-113.0
127.0,127.0,127.0,127.0,127.0,127.0,113.0,128.0,8.0,124.0,-88.0,127.0,126.0,127.0,-127.0,78.0,-113.0
127.0,127.0,127.0,127.0,127.0,127.0,112.0,128.0,8.0,124.0,-88.0,127.0,126.0,127.0,-127.0,78.0,-113.0
127.0,127.0,127.0,127.0,127.0,127.0,112.0,128.0,8.0,124.0,-88.0,127.0,126.0,127.0,-127.0,78.0,-113.0
127.0,127.0,127.0,127.0,127.0,127.0,111.0,128.0,8.0,124.0,-88.0,127.0,126.0,127.0,-127.0,78.0,-113.0
127.0,127.0,127.0,127.0,127.0,127.0,112.0,128.0,8.0,124.0,-88.0,127.0,126.0,127.0,-127.0,78.0,-113.0
127.0,127.0,127.0,127.0,127.0,127.0,113.0,128.0,8.0,124.0,-88.0,127.0,126.0,127.0,-127.0,78.0,-113.0
127.0,127.0,127.0,127.0,127.0,127.0,114.0,128.0,8.0,124.0,-88.0,127.0,126.0,127.0,-127.0,78.0,-113.0
126.0,127.0,127.0,127.0,127.0,127.0,111.0,128.0,9.0,123.0,-87.0,127.0,126.0,127.0,-127.0,78.0,-113.0
127.0,126.0,127.0,127.0,126.0,127.0,112.0,127.0,9.0,123.0,-87.0,127.0,126.0,127.0,-127.0,78.0,-113.0
127.0,126.0,127.0,127.0,127.0,127.0,112.0,127.0,9.0,123.0,-87.0,127.0,126.0,127.0,-127.0,78.0,-113.0
127.0,127.0,127.0,127.0,127.0,127.0,113.0,127.0,9.0,123.0,-87.0,127.0,126.0,127.0,-127.0,78.0,-113.0
127.0,127.0,127.0,127.0,127.0,127.0,113.0,128.0,9.0,123.0,-87.0,127.0,126.0,127.0,-127.0,78.0,-113.0
127.0,127.0,127.0,127.0,127.0,127.0,113.0,128.0,9.0,123.0,-87.0,127.0,126.0,127.0,-127.0,78.0,-113.0
127.0,127.0,127.0,127.0,127.0,127.0,113.0,128.0,9.0,123.0,-87.0,127.0,126.0,127.0,-127.0,78.0,-113.0
127.0,127.0,127.0,127.0,127.0,127.0,113.0,128.0,9.0,123.0,-87.0,127.0,126.0,127.0,-127.0,78.0,-113.0
127.0,127.0,127.0,127.0,127.0,127.0,113.0,128.0,9.0,123.0,-87.0,127.0,126.0,127.0,-127.0,78.0,-113.0
127.0,127.0,127.0,127.0,127.0,127.0,113.0,128.0,9.0,123.0,-87.0,127.0,126.0,127.0,-127.0,78.0,-113.0
127.0,126.0,127.0,127.0,126.0,127.0,113.0,127.0,9.0,123.0,-87.0,127.0,126.0,127.0,-127.0,78.0,-113.0
127.0,127.0,127.0,127.0,127.0,127.0,113.0,127.0,9.0,123.0,-87.0,127.0,126.0,127.0,-127.0,78.0,-113.0
127.0,127.0,127.0,127.0,127.0,127.0,113.0,127.0,9.0,123.0,-87.0,127.0,126.0,127.0,-127.0,78.0,-113.0
127.0,127.0,127.0,127.0,127.0,127.0,110.0,128.0,9.0,123.0,-87.0,127.0,126.0,127.0,-127.0,78.0,-113.0
127.0,127.0,127.0,127.0,127.0,127.0,107.0,128.0,9.0,123.0,-87.0,127.0,126.0,127.0,-127.0,78.0,-113.0
127.0,127.0,127.0,127.0,127.0,127.0,106.0,128.0,9.0,123.0,-87.0,127.0,126.0,127.0,-127.0,78.0,-113.0
126.0,127.0,127.0,127.0,127.0,127.0,106.0,128.0,9.0,123.0,-87.0,127.0,126.0,127.0,-127.0,78.0,-113.0
126.0,127.0,127.0,127.0,127.0,127.0,109.0,128.0,9.0,123.0,-87.0,127.0,126.0,127.0,-127.0,78.0,-113.0
126.0,127.0,127.0,127.0,127.0,127.0,109.0,128.0,9.0,123.0,-87.0,127.0,126.0,127.0,-127.0,78.0,-113.0
126.0,127.0,127.0,127.0,127.0,127.0,108.0,128.0,9.0,123.0,-87.0,127.0,126.0,127.0,-127.0,78.0,-113.0
127.0,126.0,127.0,127.0,126.0,127.0,113.0,127.0,9.0,124.0,-87.0,127.0,126.0,127.0,-127.0,78.0,-113.0
126.0,126.0,127.0,127.0,126.0,127.0,113.0,127.0,9.0,124.0,-87.0,127.0,126.0,127.0,-127.0,78.0,-113.0
126.0,127.0,127.0,127.0,127.0,127.0,111.0,127.0,9.0,124.0,-87.0,127.0,126.0,127.0,-127.0,78.0,-113.0
126.0,127.0,127.0,127.0,127.0,127.0,107.0,128.0,9.0,124.0,-87.0,127.0,126.0,127.0,-127.0,78.0,-113.0
126.0,127.0,127.0,127.0,127.0,127.0,107.0,128.0,9.0,124.0,-87.0,127.0,126.0,127.0,-127.0,78.0,-113.0
126.0,127.0,127.0,127.0,127.0,127.0,109.0,128.0,9.0,124.0,-87.0,127.0,126.0,127.0,-127.0,78.0,-113.0
126.0,127.0,127.0,127.0,127.0,127.0,112.0,128.0,9.0,124.0,-87.0,127.0,126.0,127.0,-127.0,78.0,-113.0
126.0,127.0,127.0,127.0,127.0,127.0,111.0,128.0,9.0,124.0,-87.0,127.0,126.0,127.0,-127.0,78.0,-113.0
126.0,127.0,127.0,127.0,127.0,127.0,112.0,127.0,9.0,124.0,-87.0,127.0,126.0,127.0,-127.0,78.0,-113.0
126.0,127.0,127.0,127.0,127.0,127.0,108.0,128.0,9.0,124.0,-87.0,127.0,126.0,127.0,-127.0,78.0,-113.0
127.0,127.0,127.0,127.0,126.0,127.0,109.0,128.0,9.0,124.0,-87.0,127.0,126.0,127.0,-127.0,78.0,-113.0
127.0,127.0,127.0,127.0,126.0,127.0,112.0,128.0,9.0,124.0,-87.0,127.0,126.0,127.0,-127.0,78.0,-113.0
127.0,127.0,127.0,127.0,126.0,127.0,113.0,128.0,9.0,124.0,-87.0,127.0,126.0,127.0,-127.0,78.0,-113.0
127.0,127.0,127.0,127.0,127.0,127.0,113.0,128.0,9.0,124.0,-87.0,127.0,126.0,127.0,-127.0,78.0,-113.0
127.0,127.0,127.0,127.0,126.0,127.0,113.0,128.0,9.0,124.0,-87.0,127.0,126.0,127.0,-127.0,78.0,-113.0
127.0,127.0,127.0,127.0,126.0,127.0,113.0,128.0,9.0,124.0,-87.0,127.0,126.0,127.0,-127.0,78.0,-113.0
127.0,127.0,127.0,127.0,126.0,127.0,113.0,128.0,9.0,124.0,-87.0,127.0,126.0,127.0,-127.0,78.0,-113.0
127.0,127.0,127.0,127.0,126.0,127.0,113.0,128.0,9.0,124.0,-87.0,127.0,126.0,127.0,-127.0,78.0,-113.0
127.0,127.0,127.0,127.0,126.0,127.0,112.0,128.0,9.0,124.0,-87.0,127.0,126.0,127.0,-127.0,78.0,-113.0
127.0,127.0,127.0,127.0,127.0,127.0,110.0,128.0,9.0,124.0,-87.0,127.0,126.0,127.0,-127.0,78.0,-113.0
127.0,127.0,127.0,127.0,127.0,127.0,111.0,128.0,9.0,124.0,-86.0,127.0,126.0,127.0,-127.0,79.0,-113.0
127.0,127.0,127.0,127.0,127.0,127.0,107.0,128.0,9.0,124.0,-86.0,127.0,126.0,127.0,-127.0,79.0,-113.0
127.0,127.0,127.0,127.0,127.0,127.0,106.0,128.0,9.0,124.0,-86.0,127.0,126.0,127.0,-127.0,79.0,-113.0
127.0,127.0,127.0,127.0,127.0,127.0,106.0,128.0,9.0,124.0,-86.0,127.0,126.0,127.0,-127.0,79.0,-113.0
127.0,127.0,127.0,127.0,127.0,127.0,108.0,128.0,9.0,124.0,-86.0,127.0,126.0,127.0,-127.0,79.0,-113.0
127.0,127.0,127.0,127.0,127.0,127.0,107.0,128.0,9.0,124.0,-86.0,127.0,126.0,127.0,-127.0,79.0,-113.0
127.0,127.0,127.0,127.0,127.0,127.0,110.0,128.0,9.0,124.0,-86.0,127.0,126.0,127.0,-127.0,79.0,-113.0
127.0,126.0,127.0,127.0,127.0,127.0,113.0,128.0,9.0,124.0,-86.0,127.0,126.0,127.0,-127.0,79.0,-113.0
127.0,126.0,127.0,127.0,127.0,127.0,113.0,128.0,9.0,124.0,-86.0,127.0,126.0,127.0,-127.0,79.0,-113.0
127.0,126.0,127.0,127.0,127.0,127.0,113.0,128.0,9.0,124.0,-86.0,127.0,126.0,127.0,-127.0,79.0,-113.0
127.0,127.0,127.0,127.0,127.0,127.0,107.0,128.0,10.0,124.0,-86.0,127.0,127.0,127.0,-127.0,79.0,-113.0
127.0,127.0,127.0,127.0,127.0,127.0,107.0,128.0,10.0,124.0,-86.0,127.0,127.0,127.0,-127.0,79.0,-113.0
127.0,127.0,127.0,127.0,127.0,127.0,106.0,128.0,10.0,124.0,-86.0,127.0,127.0,127.0,-127.0,79.0,-113.0
127.0,127.0,127.0,127.0,127.0,127.0,109.0,128.0,10.0,124.0,-86.0,127.0,127.0,127.0,-127.0,79.0,-113.0
127.0,127.0,127.0,127.0,127.0,127.0,112.0,128.0,10.0,124.0,-86.0,127.0,127.0,127.0,-127.0,79.0,-113.0
127.0,127.0,127.0,127.0,127.0,127.0,112.0,128.0,10.0,124.0,-86.0,127.0,127.0,127.0,-127.0,79.0,-113.0
127.0,127.0,127.0,127.0,127.0,127.0,112.0,128.0,10.0,124.0,-86.0,127.0,127.0,127.0,-127.0,79.0,-113.0
127.0,127.0,127.0,127.0,127.0,127.0,109.0,128.0,10.0,124.0,-86.0,127.0,127.0,127.0,-127.0,79.0,-113.0
127.0,127.0,127.0,127.0,127.0,127.0,106.0,128.0,10.0,124.0,-86.0,127.0,127.0,127.0,-127.0,79.0,-113.0
127.0,127.0,127.0,127.0,127.0,127.0,107.0,128.0,10.0,124.0,-86.0,127.0,127.0,127.0,-127.0,79.0,-113.0
127.0,127.0,127.0,127.0,127.0,127.0,107.0,128.0,10.0,124.0,-85.0,127.0,127.0,127.0,-127.0,79.0,-113.0
127.0,127.0,127.0,127.0,127.0,127.0,106.0,128.0,10.0,124.0,-85.0,127.0,127.0,127.0,-127.0,79.0,-113.0
127.0,127.0,127.0,127.0,127.0,127.0,111.0,128.0,10.0,124.0,-85.0,127.0,127.0,127.0,-127.0,79.0,-113.0
127.0,127.0,127.0,127.0,127.0,127.0,112.0,128.0,10.0,124.0,-85.0,127.0,127.0,127.0,-127.0,79.0,-113.0
127.0,127.0,127.0,127.0,127.0,127.0,113.0,128.0,10.0,124.0,-85.0,127.0,127.0,127.0,-127.0,79.0,-113.0
127.0,127.0,127.0,127.0,127.0,127.0,112.0,128.0,10.0,124.0,-85.0,127.0,127.0,127.0,-127.0,79.0,-113.0
127.0,127.0,127.0,126.0,127.0,127.0,107.0,128.0,10.0,124.0,-85.0,127.0,127.0,127.0,-127.0,79.0,-113.0
127.0,127.0,127.0,126.0,127.0,127.0,106.0,128.0,10.0,124.0,-85.0,127.0,127.0,127.0,-127.0,79.0,-113.0
127.0,127.0,127.0,127.0,127.0,127.0,106.0,128.0,10.0,124.0,-85.0,127.0,127.0,127.0,-127.0,79.0,-113.0
127.0,127.0,127.0,126.0,127.0,127.0,106.0,128.0,10.0,124.0,-85.0,127.0,127.0,127.0,-127.0,79.0,-113.0
127.0,127.0,127.0,127.0,127.0,127.0,106.0,128.0,11.0,124.0,-85.0,127.0,127.0,127.0,-127.0,79.0,-113.0
127.0,127.0,127.0,127.0,127.0,127.0,106.0,128.0,11.0,124.0,-85.0,127.0,127.0,127.0,-127.0,79.0,-113.0
127.0,127.0,127.0,127.0,127.0,127.0,105.0,128.0,11.0,124.0,-85.0,127.0,127.0,127.0,-127.0,79.0,-113.0
126.0,127.0,127.0,127.0,127.0,127.0,108.0,128.0,11.0,124.0,-85.0,127.0,127.0,127.0,-127.0,79.0,-113.0
127.0,127.0,127.0,127.0,127.0,127.0,111.0,128.0,11.0,124.0,-85.0,127.0,127.0,127.0,-127.0,79.0,-113.0
127.0,127.0,127.0,127.0,127.0,127.0,108.0,128.0,11.0,124.0,-85.0,127.0,127.0,127.0,-127.0,79.0,-113.0
127.0,127.0,127.0,127.0,127.0,127.0,106.0,128.0,11.0,124.0,-85.0,127.0,127.0,127.0,-127.0,79.0,-113.0
127.0,127.0,127.0,126.0,127.0,127.0,106.0,128.0,11.0,124.0,-85.0,127.0,127.0,127.0,-127.0,79.0,-113.0
127.0,127.0,127.0,127.0,127.0,127.0,106.0,128.0,11.0,124.0,-85.0,127.0,127.0,127.0,-127.0,79.0,-113.0
127.0,127.0,127.0,127.0,127.0,127.0,106.0,128.0,11.0,124.0,-85.0,127.0,127.0,127.0,-127.0,79.0,-113.0
127.0,127.0,127.0,127.0,127.0,127.0,106.0,128.0,12.0,124.0,-84.0,127.0,127.0,127.0,-127.0,79.0,-113.0
127.0,127.0,127.0,127.0,127.0,127.0,109.0,128.0,12.0,124.0,-84.0,127.0,127.0,127.0,-127.0,79.0,-113.0
127.0,127.0,127.0,127.0,127.0,127.0,109.0,128.0,12.0,124.0,-84.0,127.0,127.0,127.0,-127.0,79.0,-113.0
127.0,127.0,127.0,127.0,127.0,127.0,111.0,128.0,12.0,124.0,-84.0,127.0,127.0,127.0,-127.0,79.0,-113.0
127.0,127.0,127.0,126.0,127.0,127.0,110.0,128.0,12.0,124.0,-84.0,127.0,127.0,127.0,-127.0,79.0,-113.0
127.0,127.0,127.0,127.0,127.0,127.0,108.0,128.0,12.0,124.0,-84.0,127.0,127.0,127.0,-127.0,79.0,-113.0
126.0,127.0,127.0,127.0,127.0,127.0,106.0,128.0,12.0,124.0,-84.0,127.0,127.0,127.0,-127.0,79.0,-113.0
126.0,127.0,127.0,127.0,127.0,127.0,107.0,128.0,12.0,124.0,-84.0,127.0,127.0,127.0,-127.0,79.0,-113.0
127.0,127.0,127.0,127.0,127.0,127.0,109.0,128.0,12.0,124.0,-84.0,127.0,127.0,127.0,-127.0,79.0,-113.0
127.0,127.0,127.0,127.0,127.0,127.0,107.0,128.0,12.0,124.0,-84.0,127.0,127.0,127.0,-127.0,79.0,-113.0
127.0,127.0,127.0,127.0,127.0,127.0,106.0,128.0,12.0,124.0,-84.0,127.0,127.0,127.0,-127.0,80.0,-113.0
127.0,127.0,127.0,127.0,127.0,127.0,107.0,128.0,12.0,124.0,-84.0,127.0,127.0,127.0,-127.0,80.0,-113.0
127.0,127.0,127.0,127.0,127.0,127.0,106.0,128.0,12.0,124.0,-84.0,127.0,127.0,127.0,-127.0,80.0,-113.0
127.0,127.0,127.0,126.0,127.0,127.0,108.0,128.0,12.0,124.0,-84.0,127.0,127.0,127.0,-127.0,80.0,-113.0
127.0,127.0,127.0,126.0,127.0,127.0,106.0,128.0,12.0,124.0,-84.0,127.0,127.0,127.0,-127.0,80.0,-113.0
127.0,127.0,127.0,127.0,127.0,127.0,106.0,128.0,12.0,124.0,-84.0,127.0,127.0,127.0,-127.0,80.0,-113.0
127.0,127.0,127.0,127.0,127.0,127.0,106.0,128.0,12.0,124.0,-84.0,127.0,127.0,127.0,-127.0,80.0,-113.0
127.0,127.0,127.0,127.0,127.0,127.0,106.0,128.0,12.0,124.0,-84.0,127.0,127.0,127.0,-127.0,80.0,-113.0
127.0,127.0,127.0,127.0,127.0,127.0,106.0,128.0,12.0,124.0,-84.0,127.0,127.0,127.0,-127.0,80.0,-113.0
127.0,127.0,127.0,127.0,127.0,127.0,106.0,128.0,12.0,124.0,-84.0,127.0,127.0,127.0,-127.0,80.0,-113.0
127.0,127.0,127.0,127.0,127.0,127.0,106.0,128.0,13.0,125.0,-83.0,127.0,127.0,127.0,-127.0,80.0,-113.0
127.0,127.0,127.0,127.0,127.0,127.0,106.0,128.0,13.0,125.0,-83.0,127.0,127.0,127.0,-127.0,80.0,-113.0
127.0,127.0,127.0,126.0,127.0,127.0,107.0,128.0,13.0,125.0,-83.0,127.0,127.0,127.0,-127.0,80.0,-113.0
127.0,127.0,127.0,126.0,127.0,127.0,107.0,128.0,13.0,125.0,-83.0,127.0,127.0,127.0,-127.0,80.0,-113.0
127.0,127.0,127.0,126.0,127.0,127.0,107.0,128.0,13.0,125.0,-83.0,127.0,127.0,127.0,-127.0,80.0,-113.0
127.0,127.0,127.0,126.0,127.0,127.0,106.0,128.0,13.0,125.0,-83.0,127.0,127.0,127.0,-127.0,80.0,-113.0
127.0,127.0,127.0,127.0,127.0,127.0,106.0,128.0,13.0,125.0,-83.0,127.0,127.0,127.0,-127.0,80.0,-113.0
127.0,127.0,127.0,127.0,127.0,127.0,107.0,128.0,13.0,125.0,-83.0,127.0,127.0,127.0,-127.0,80.0,-113.0
127.0,127.0,127.0,127.0,127.0,127.0,107.0,128.0,13.0,125.0,-83.0,127.0,127.0,127.0,-127.0,80.0,-113.0
127.0,127.0,127.0,127.0,127.0,127.0,106.0,128.0,13.0,125.0,-83.0,127.0,127.0,127.0,-127.0,80.0,-113.0
127.0,127.0,127.0,126.0,126.0,127.0,106.0,128.0,14.0,125.0,-83.0,127.0,127.0,127.0,-127.0,80.0,-113.0
127.0,127.0,127.0,126.0,126.0,127.0,106.0,128.0,14.0,125.0,-83.0,127.0,127.0,127.0,-127.0,80.0,-113.0
127.0,127.0,127.0,126.0,126.0,127.0,109.0,128.0,14.0,125.0,-83.0,127.0,127.0,127.0,-127.0,80.0,-113.0
127.0,127.0,127.0,127.0,126.0,127.0,107.0,128.0,14.0,125.0,-83.0,127.0,127.0,127.0,-127.0,80.0,-113.0
127.0,127.0,127.0,126.0,126.0,127.0,109.0,128.0,14.0,125.0,-83.0,127.0,127.0,127.0,-127.0,80.0,-113.0
127.0,127.0,127.0,127.0,127.0,127.0,107.0,128.0,14.0,125.0,-83.0,127.0,127.0,127.0,-127.0,80.0,-113.0
127.0,127.0,127.0,127.0,127.0,127.0,106.0,128.0,14.0,125.0,-83.0,127.0,127.0,127.0,-127.0,80.0,-113.0
127.0,127.0,127.0,127.0,127.0,127.0,107.0,128.0,14.0,125.0,-83.0,127.0,127.0,127.0,-127.0,80.0,-113.0
127.0,127.0,127.0,127.0,127.0,127.0,106.0,128.0,14.0,125.0,-83.0,127.0,127.0,127.0,-127.0,80.0,-113.0
127.0,127.0,127.0,127.0,127.0,127.0,106.0,128.0,14.0,125.0,-83.0,127.0,127.0,127.0,-127.0,80.0,-113.0
127.0,126.0,127.0,126.0,126.0,127.0,112.0,128.0,14.0,125.0,-83.0,127.0,127.0,127.0,-127.0,80.0,-113.0
127.0,126.0,127.0,126.0,126.0,127.0,113.0,128.0,14.0,125.0,-83.0,127.0,127.0,127.0,-127.0,80.0,-113.0
127.0,126.0,127.0,126.0,126.0,127.0,113.0,128.0,14.0,125.0,-83.0,127.0,127.0,127.0,-127.0,80.0,-113.0
127.0,126.0,127.0,126.0,126.0,127.0,113.0,128.0,14.0,125.0,-83.0,127.0,127.0,127.0,-127.0,80.0,-113.0
127.0,126.0,127.0,127.0,126.0,127.0,113.0,128.0,14.0,125.0,-83.0,127.0,127.0,127.0,-127.0,80.0,-113.0
127.0,126.0,127.0,127.0,126.0,127.0,113.0,128.0,14.0,125.0,-83.0,127.0,127.0,127.0,-127.0,80.0,-113.0
127.0,127.0,127.0,127.0,126.0,127.0,113.0,128.0,14.0,125.0,-83.0,127.0,127.0,127.0,-127.0,80.0,-113.0
127.0,127.0,127.0,127.0,127.0,127.0,112.0,128.0,14.0,125.0,-83.0,127.0,127.0,127.0,-127.0,80.0,-113.0
127.0,127.0,127.0,127.0,127.0,127.0,109.0,128.0,14.0,125.0,-83.0,127.0,127.0,127.0,-127.0,80.0,-113.0
127.0,127.0,127.0,127.0,127.0,127.0,106.0,128.0,14.0,125.0,-83.0,127.0,127.0,127.0,-127.0,80.0,-113.0
127.0,127.0,127.0,127.0,127.0,127.0,111.0,128.0,15.0,125.0,-82.0,127.0,127.0,127.0,-127.0,80.0,-113.0
127.0,127.0,127.0,127.0,127.0,127.0,113.0,128.0,15.0,125.0,-82.0,127.0,127.0,127.0,-127.0,80.0,-113.0
127.0,127.0,127.0,127.0,127.0,127.0,113.0,128.0,15.0,125.0,-82.0,127.0,127.0,127.0,-127.0,80.0,-113.0
127.0,127.0,127.0,127.0,127.0,127.0,111.0,128.0,15.0,125.0,-82.0,127.0,127.0,127.0,-127.0,80.0,-113.0
127.0,127.0,127.0,127.0,127.0,127.0,107.0,128.0,15.0,125.0,-82.0,127.0,127.0,127.0,-127.0,80.0,-113.0
127.0,127.0,127.0,127.0,127.0,127.0,106.0,128.0,15.0,125.0,-82.0,127.0,127.0,127.0,-127.0,80.0,-113.0
127.0,127.0,127.0,127.0,127.0,127.0,106.0,128.0,15.0,125.0,-82.0,127.0,127.0,127.0,-127.0,80.0,-113.0
127.0,127.0,127.0,127.0,127.0,127.0,106.0,128.0,15.0,125.0,-82.0,127.0,127.0,127.0,-127.0,80.0,-113.0
127.0,127.0,127.0,127.0,127.0,127.0,106.0,128.0,15.0,125.0,-82.0,127.0,127.0,127.0,-127.0,80.0,-113.0
127.0,127.0,127.0,127.0,127.0,127.0,110.0,128.0,15.0,125.0,-82.0,127.0,127.0,127.0,-127.0,80.0,-113.0
127.0,127.0,127.0,127.0,127.0,127.0,107.0,128.0,15.0,125.0,-82.0,127.0,127.0,127.0,-127.0,80.0,-113.0
127.0,127.0,127.0,127.0,126.0,127.0,106.0,128.0,15.0,125.0,-82.0,127.0,127.0,127.0,-127.0,80.0,-113.0
127.0,127.0,127.0,127.0,127.0,127.0,107.0,128.0,15.0,125.0,-82.0,127.0,127.0,127.0,-127.0,80.0,-113.0
127.0,127.0,127.0,127.0,127.0,127.0,106.0,128.0,15.0,125.0,-82.0,127.0,127.0,127.0,-127.0,80.0,-113.0
127.0,127.0,127.0,127.0,127.0,127.0,107.0,128.0,15.0,125.0,-82.0,127.0,127.0,127.0,-127.0,80.0,-113.0
127.0,127.0,127.0,127.0,127.0,127.0,106.0,128.0,15.0,125.0,-82.0,127.0,127.0,127.0,-127.0,80.0,-113.0
127.0,127.0,127.0,127.0,127.0,127.0,106.0,128.0,15.0,125.0,-82.0,127.0,127.0,127.0,-127.0,80.0,-113.0
127.0,127.0,127.0,127.0,127.0,127.0,107.0,128.0,15.0,125.0,-82.0,127.0,127.0,127.0,-127.0,80.0,-113.0
127.0,127.0,127.0,127.0,126.0,127.0,106.0,128.0,15.0,125.0,-82.0,127.0,127.0,127.0,-127.0,80.0,-113.0
127.0,127.0,127.0,126.0,126.0,127.0,106.0,128.0,15.0,125.0,-82.0,127.0,127.0,127.0,-127.0,80.0,-113.0
127.0,126.0,127.0,127.0,126.0,127.0,112.0,128.0,15.0,126.0,-81.0,127.0,127.0,127.0,-127.0,80.0,-113.0
127.0,126.0,127.0,127.0,126.0,127.0,112.0,128.0,15.0,126.0,-81.0,127.0,127.0,127.0,-127.0,80.0,-113.0
127.0,126.0,127.0,127.0,126.0,127.0,112.0,128.0,15.0,126.0,-81.0,127.0,127.0,127.0,-127.0,80.0,-113.0
127.0,127.0,127.0,127.0,126.0,127.0,112.0,128.0,15.0,126.0,-81.0,127.0,127.0,127.0,-127.0,80.0,-113.0
127.0,127.0,127.0,127.0,126.0,127.0,113.0,128.0,15.0,126.0,-81.0,127.0,127.0,127.0,-127.0,80.0,-113.0
126.0,127.0,127.0,127.0,127.0,127.0,113.0,128.0,15.0,126.0,-81.0,127.0,127.0,127.0,-127.0,80.0,-113.0
126.0,127.0,127.0,127.0,127.0,127.0,113.0,128.0,15.0,126.0,-81.0,127.0,127.0,127.0,-127.0,80.0,-113.0
127.0,126.0,127.0,126.0,126.0,127.0,113.0,128.0,15.0,126.0,-81.0,127.0,127.0,127.0,-127.0,80.0,-113.0
127.0,126.0,127.0,126.0,126.0,127.0,113.0,128.0,15.0,126.0,-81.0,127.0,127.0,127.0,-127.0,80.0,-113.0
127.0,126.0,127.0,126.0,126.0,127.0,112.0,128.0,15.0,126.0,-81.0,127.0,127.0,127.0,-127.0,80.0,-113.0
127.0,127.0,127.0,127.0,127.0,127.0,106.0,128.0,16.0,126.0,-81.0,127.0,127.0,127.0,-127.0,80.0,-113.0
127.0,127.0,127.0,127.0,127.0,127.0,106.0,128.0,16.0,126.0,-81.0,127.0,127.0,127.0,-127.0,80.0,-113.0
127.0,127.0,127.0,127.0,127.0,127.0,107.0,128.0,16.0,126.0,-81.0,127.0,127.0,127.0,-127.0,80.0,-113.0
127.0,127.0,127.0,127.0,127.0,127.0,106.0,128.0,16.0,126.0,-81.0,127.0,127.0,127.0,-127.0,80.0,-113.0
127.0,127.0,127.0,127.0,127.0,127.0,106.0,128.0,16.0,126.0,-81.0,127.0,127.0,127.0,-127.0,80.0,-113.0
127.0,127.0,127.0,127.0,127.0,127.0,106.0,128.0,16.0,126.0,-81.0,127.0,127.0,127.0,-127.0,80.0,-113.0
127.0,127.0,127.0,127.0,126.0,127.0,106.0,128.0,16.0,126.0,-81.0,127.0,127.0,127.0,-127.0,80.0,-113.0
127.0,127.0,127.0,127.0,126.0,127.0,108.0,128.0,16.0,126.0,-81.0,127.0,127.0,127.0,-127.0,80.0,-113.0
127.0,127.0,127.0,127.0,127.0,127.0,107.0,128.0,16.0,126.0,-81.0,127.0,127.0,127.0,-127.0,80.0,-113.0
127.0,127.0,127.0,127.0,127.0,127.0,106.0,128.0,16.0,126.0,-81.0,127.0,127.0,127.0,-127.0,80.0,-113.0
127.0,127.0,127.0,127.0,127.0,127.0,106.0,128.0,16.0,127.0,-81.0,127.0,127.0,127.0,-128.0,80.0,-113.0
127.0,127.0,127.0,127.0,127.0,127.0,107.0,128.0,16.0,127.0,-81.0,127.0,127.0,127.0,-128.0,80.0,-113.0
127.0,127.0,127.0,127.0,127.0,127.0,107.0,128.0,16.0,127.0,-81.0,127.0,127.0,127.0,-128.0,80.0,-113.0
127.0,127.0,127.0,127.0,127.0,127.0,106.0,128.0,16.0,127.0,-81.0,127.0,127.0,127.0,-128.0,80.0,-113.0
127.0,127.0,127.0,127.0,127.0,127.0,106.0,128.0,16.0,127.0,-81.0,127.0,127.0,127.0,-128.0,80.0,-113.0
127.0,127.0,127.0,127.0,127.0,127.0,106.0,128.0,16.0,127.0,-81.0,127.0,127.0,127.0,-128.0,80.0,-113.0
127.0,127.0,127.0,127.0,127.0,127.0,106.0,128.0,16.0,127.0,-81.0,127.0,127.0,127.0,-128.0,80.0,-113.0
127.0,127.0,127.0,127.0,127.0,127.0,106.0,128.0,16.0,127.0,-81.0,127.0,127.0,127.0,-128.0,80.0,-113.0
127.0,127.0,127.0,127.0,127.0,127.0,106.0,128.0,16.0,127.0,-81.0,127.0,127.0,127.0,-128.0,80.0,-113.0
127.0,127.0,127.0,127.0,127.0,127.0,106.0,128.0,16.0,127.0,-81.0,127.0,127.0,127.0,-128.0,80.0,-113.0
126.0,127.0,127.0,127.0,127.0,127.0,106.0,128.0,17.0,127.0,-80.0,127.0,127.0,127.0,-128.0,81.0,-113.0
126.0,127.0,127.0,127.0,127.0,127.0,106.0,128.0,17.0,127.0,-80.0,127.0,127.0,127.0,-128.0,81.0,-113.0
126.0,127.0,127.0,127.0,127.0,127.0,106.0,128.0,17.0,127.0,-80.0,127.0,127.0,127.0,-128.0,81.0,-113.0
126.0,126.0,127.0,127.0,127.0,127.0,113.0,128.0,17.0,127.0,-80.0,127.0,127.0,127.0,-128.0,81.0,-113.0
126.0,126.0,127.0,127.0,127.0,127.0,113.0,128.0,17.0,127.0,-80.0,127.0,127.0,127.0,-128.0,81.0,-113.0
126.0,126.0,127.0,127.0,127.0,127.0,113.0,128.0,17.0,127.0,-80.0,127.0,127.0,127.0,-128.0,81.0,-113.0
126.0,127.0,127.0,127.0,127.0,127.0,111.0,128.0,17.0,127.0,-80.0,127.0,127.0,127.0,-128.0,81.0,-113.0
126.0,127.0,127.0,127.0,127.0,127.0,109.0,128.0,17.0,127.0,-80.0,127.0,127.0,127.0,-128.0,81.0,-113.0
126.0,127.0,127.0,127.0,127.0,127.0,107.0,128.0,17.0,127.0,-80.0,127.0,127.0,127.0,-128.0,81.0,-113.0
126.0,127.0,127.0,127.0,127.0,127.0,107.0,128.0,17.0,127.0,-80.0,127.0,127.0,127.0,-128.0,81.0,-113.0
126.0,127.0,127.0,127.0,127.0,127.0,113.0,128.0,17.0,127.0,-80.0,127.0,127.0,127.0,-128.0,81.0,-113.0
126.0,127.0,127.0,127.0,127.0,127.0,113.0,128.0,17.0,127.0,-80.0,127.0,127.0,127.0,-128.0,81.0,-113.0
127.0,126.0,127.0,127.0,126.0,127.0,113.0,128.0,17.0,127.0,-80.0,127.0,127.0,127.0,-128.0,81.0,-113.0
127.0,126.0,127.0,127.0,126.0,127.0,113.0,128.0,17.0,127.0,-80.0,127.0,127.0,127.0,-128.0,81.0,-113.0
127.0,126.0,127.0,127.0,126.0,127.0,113.0,128.0,17.0,127.0,-80.0,127.0,127.0,127.0,-128.0,81.0,-113.0
126.0,127.0,127.0,127.0,127.0,127.0,113.0,128.0,17.0,127.0,-80.0,127.0,127.0,127.0,-128.0,81.0,-113.0
126.0,127.0,127.0,127.0,127.0,127.0,114.0,128.0,17.0,127.0,-80.0,127.0,127.0,127.0,-128.0,81.0,-113.0
126.0,127.0,127.0,127.0,127.0,127.0,113.0,128.0,17.0,127.0,-80.0,127.0,127.0,127.0,-128.0,81.0,-113.0
126.0,127.0,127.0,127.0,127.0,127.0,114.0,128.0,17.0,127.0,-80.0,127.0,127.0,127.0,-128.0,81.0,-113.0
126.0,127.0,127.0,127.0,127.0,127.0,113.0,128.0,17.0,127.0,-80.0,127.0,127.0,127.0,-128.0,81.0,-113.0
127.0,127.0,127.0,127.0,126.0,127.0,106.0,128.0,18.0,127.0,-80.0,127.0,127.0,127.0,-128.0,81.0,-113.0
127.0,127.0,127.0,127.0,127.0,127.0,106.0,128.0,18.0,127.0,-80.0,127.0,127.0,127.0,-128.0,81.0,-113.0
127.0,127.0,127.0,127.0,127.0,127.0,107.0,128.0,18.0,127.0,-80.0,127.0,127.0,127.0,-128.0,81.0,-113.0
127.0,127.0,127.0,127.0,127.0,127.0,107.0,128.0,18.0,127.0,-80.0,127.0,127.0,127.0,-128.0,81.0,-113.0
127.0,127.0,127.0,127.0,127.0,127.0,107.0,128.0,18.0,127.0,-80.0,127.0,127.0,127.0,-128.0,81.0,-113.0
127.0,127.0,127.0,127.0,127.0,127.0,107.0,128.0,18.0,127.0,-80.0,127.0,127.0,127.0,-128.0,81.0,-113.0
127.0,127.0,127.0,127.0,127.0,127.0,107.0,128.0,18.0,127.0,-80.0,127.0,127.0,127.0,-128.0,81.0,-113.0
127.0,127.0,127.0,127.0,127.0,127.0,106.0,128.0,18.0,127.0,-80.0,127.0,127.0,127.0,-128.0,81.0,-113.0
127.0,127.0,127.0,127.0,126.0,127.0,106.0,128.0,18.0,127.0,-80.0,127.0,127.0,127.0,-128.0,81.0,-113.0
127.0,127.0,127.0,127.0,126.0,127.0,106.0,128.0,18.0,127.0,-80.0,127.0,127.0,127.0,-128.0,81.0,-113.0
127.0,127.0,127.0,126.0,127.0,127.0,113.0,128.0,18.0,127.0,-80.0,127.0,127.0,127.0,127.0,81.0,-113.0
127.0,127.0,127.0,126.0,127.0,127.0,113.0,128.0,18.0,127.0,-80.0,127.0,127.0,127.0,127.0,81.0,-113.0
127.0,127.0,127.0,126.0,127.0,127.0,113.0,128.0,18.0,127.0,-80.0,127.0,127.0,127.0,127.0,81.0,-113.0
127.0,127.0,127.0,126.0,127.0,127.0,113.0,128.0,18.0,127.0,-80.0,127.0,127.0,127.0,127.0,81.0,-113.0
127.0,127.0,127.0,126.0,127.0,127.0,113.0,128.0,18.0,127.0,-80.0,127.0,127.0,127.0,127.0,81.0,-113.0
127.0,127.0,127.0,126.0,127.0,127.0,113.0,128.0,18.0,127.0,-80.0,127.0,127.0,127.0,127.0,81.0,-113.0
127.0,127.0,127.0,127.0,127.0,127.0,113.0,128.0,18.0,127.0,-80.0,127.0,127.0,127.0,127.0,81.0,-113.0
127.0,126.0,127.0,127.0,127.0,127.0,113.0,128.0,18.0,127.0,-80.0,127.0,127.0,127.0,127.0,81.0,-113.0
127.0,127.0,127.0,127.0,127.0,127.0,113.0,128.0,18.0,127.0,-80.0,127.0,127.0,127.0,127.0,81.0,-113.0
127.0,127.0,127.0,127.0,127.0,127.0,112.0,128.0,18.0,127.0,-80.0,127.0,127.0,127.0,127.0,81.0,-113.0
127.0,127.0,127.0,127.0,127.0,127.0,107.0,128.0,18.0,127.0,-80.0,127.0,127.0,127.0,127.0,81.0,-113.0
127.0,127.0,127.0,127.0,127.0,127.0,106.0,128.0,18.0,127.0,-80.0,127.0,127.0,127.0,127.0,81.0,-113.0
127.0,127.0,127.0,126.0,127.0,127.0,106.0,128.0,18.0,127.0,-80.0,127.0,127.0,127.0,127.0,81.0,-113.0
127.0,127.0,127.0,127.0,127.0,127.0,106.0,129.0,18.0,127.0,-80.0,127.0,127.0,127.0,127.0,81.0,-113.0
127.0,127.0,127.0,127.0,127.0,127.0,107.0,128.0,18.0,127.0,-80.0,127.0,127.0,127.0,127.0,81.0,-113.0
127.0,127.0,127.0,127.0,127.0,127.0,106.0,128.0,18.0,127.0,-80.0,127.0,127.0,127.0,127.0,81.0,-113.0
127.0,127.0,127.0,127.0,127.0,127.0,106.0,128.0,18.0,127.0,-80.0,127.0,127.0,127.0,127.0,81.0,-113.0
127.0,127.0,127.0,127.0,127.0,127.0,107.0,128.0,18.0,127.0,-80.0,127.0,127.0,127.0,127.0,81.0,-113.0
127.0,127.0,127.0,127.0,127.0,127.0,107.0,128.0,18.0,127.0,-80.0,127.0,127.0,127.0,127.0,81.0,-113.0
126.0,127.0,127.0,126.0,127.0,127.0,107.0,128.0,18.0,127.0,-80.0,127.0,127.0,127.0,127.0,81.0,-113.0
127.0,127.0,127.0,127.0,127.0,127.0,113.0,128.0,18.0,127.0,-80.0,127.0,127.0,127.0,127.0,82.0,-113.0
127.0,127.0,127.0,127.0,127.0,127.0,113.0,128.0,18.0,127.0,-80.0,127.0,127.0,127.0,127.0,82.0,-113.0
127.0,127.0,127.0,127.0,127.0,127.0,113.0,128.0,18.0,127.0,-80.0,127.0,127.0,127.0,127.0,82.0,-113.0
127.0,127.0,127.0,127.0,127.0,127.0,113.0,128.0,18.0,127.0,-80.0,127.0,127.0,127.0,127.0,82.0,-113.0
127.0,127.0,127.0,127.0,127.0,127.0,113.0,128.0,18.0,127.0,-80.0,127.0,127.0,127.0,127.0,82.0,-113.0
127.0,127.0,127.0,127.0,127.0,127.0,110.0,128.0,18.0,127.0,-80.0,127.0,127.0,127.0,127.0,82.0,-113.0
127.0,127.0,127.0,127.0,127.0,127.0,109.0,128.0,18.0,127.0,-80.0,127.0,127.0,127.0,127.0,82.0,-113.0
127.0,127.0,127.0,127.0,127.0,127.0,108.0,128.0,18.0,127.0,-80.0,127.0,127.0,127.0,127.0,82.0,-113.0
127.0,127.0,127.0,127.0,127.0,127.0,108.0,128.0,18.0,127.0,-80.0,127.0,127.0,127.0,127.0,82.0,-113.0
127.0,127.0,127.0,127.0,127.0,127.0,113.0,128.0,18.0,127.0,-80.0,127.0,127.0,127.0,127.0,82.0,-113.0
127.0,127.0,127.0,127.0,127.0,127.0,106.0,128.0,18.0,127.0,-80.0,127.0,127.0,127.0,127.0,82.0,-113.0
127.0,127.0,127.0,127.0,127.0,127.0,107.0,128.0,18.0,127.0,-80.0,127.0,127.0,127.0,127.0,82.0,-113.0
127.0,127.0,127.0,127.0,127.0,127.0,107.0,128.0,18.0,127.0,-80.0,127.0,127.0,127.0,127.0,82.0,-113.0
127.0,127.0,127.0,127.0,127.0,127.0,106.0,128.0,18.0,127.0,-80.0,127.0,127.0,127.0,127.0,82.0,-113.0
127.0,127.0,127.0,127.0,127.0,127.0,108.0,128.0,18.0,127.0,-80.0,127.0,127.0,127.0,127.0,82.0,-113.0
127.0,127.0,127.0,127.0,127.0,127.0,112.0,128.0,18.0,127.0,-80.0,127.0,127.0,127.0,127.0,82.0,-113.0
127.0,127.0,127.0,127.0,127.0,127.0,114.0,128.0,18.0,127.0,-80.0,127.0,127.0,127.0,127.0,82.0,-113.0
127.0,127.0,127.0,127.0,127.0,127.0,113.0,128.0,18.0,127.0,-80.0,127.0,127.0,127.0,127.0,82.0,-113.0
127.0,127.0,127.0,126.0,127.0,127.0,110.0,128.0,18.0,127.0,-80.0,127.0,127.0,127.0,127.0,82.0,-113.0
127.0,127.0,127.0,126.0,127.0,127.0,106.0,128.0,18.0,127.0,-80.0,127.0,127.0,127.0,127.0,82.0,-113.0
127.0,127.0,127.0,127.0,127.0,127.0,106.0,128.0,18.0,-128.0,-79.0,127.0,127.0,127.0,127.0,82.0,-113.0
127.0,127.0,127.0,127.0,127.0,127.0,107.0,128.0,18.0,-128.0,-79.0,127.0,127.0,127.0,127.0,82.0,-113.0
127.0,127.0,127.0,127.0,127.0,127.0,106.0,128.0,18.0,-128.0,-79.0,127.0,127.0,127.0,127.0,82.0,-113.0
127.0,127.0,127.0,127.0,127.0,127.0,107.0,128.0,18.0,-128.0,-79.0,127.0,127.0,127.0,127.0,82.0,-113.0
127.0,127.0,127.0,127.0,127.0,127.0,110.0,128.0,18.0,-128.0,-79.0,127.0,127.0,127.0,127.0,82.0,-113.0
127.0,127.0,127.0,127.0,127.0,127.0,113.0,128.0,18.0,-128.0,-79.0,127.0,127.0,127.0,127.0,82.0,-113.0
127.0,127.0,127.0,127.0,127.0,127.0,113.0,128.0,18.0,-128.0,-79.0,127.0,127.0,127.0,127.0,82.0,-113.0
127.0,127.0,127.0,127.0,127.0,127.0,111.0,128.0,18.0,-128.0,-79.0,127.0,127.0,127.0,127.0,82.0,-113.0
127.0,127.0,127.0,127.0,127.0,127.0,107.0,128.0,18.0,-128.0,-79.0,127.0,127.0,127.0,127.0,82.0,-113.0
127.0,127.0,127.0,127.0,127.0,127.0,106.0,128.0,18.0,-128.0,-79.0,127.0,127.0,127.0,127.0,82.0,-113.0
126.0,127.0,127.0,127.0,127.0,127.0,106.0,128.0,18.0,-128.0,-79.0,127.0,127.0,127.0,127.0,82.0,-113.0
127.0,127.0,127.0,126.0,127.0,127.0,106.0,128.0,18.0,-128.0,-79.0,127.0,127.0,127.0,127.0,82.0,-113.0
126.0,127.0,127.0,127.0,127.0,127.0,106.0,128.0,18.0,-128.0,-79.0,127.0,127.0,127.0,127.0,82.0,-113.0
126.0,127.0,127.0,127.0,127.0,127.0,107.0,128.0,18.0,-128.0,-79.0,127.0,127.0,127.0,127.0,82.0,-113.0
126.0,127.0,127.0,127.0,127.0,127.0,111.0,128.0,18.0,-128.0,-79.0,127.0,127.0,127.0,127.0,82.0,-113.0
126.0,127.0,127.0,127.0,127.0,127.0,113.0,128.0,18.0,-128.0,-79.0,127.0,127.0,127.0,127.0,82.0,-113.0
126.0,127.0,127.0,126.0,127.0,127.0,111.0,128.0,18.0,-128.0,-79.0,127.0,127.0,127.0,127.0,82.0,-113.0
126.0,127.0,127.0,126.0,127.0,127.0,107.0,128.0,18.0,-128.0,-79.0,127.0,127.0,127.0,127.0,82.0,-113.0
127.0,127.0,127.0,126.0,127.0,127.0,106.0,128.0,18.0,-128.0,-79.0,127.0,127.0,127.0,127.0,82.0,-113.0
126.0,127.0,127.0,126.0,127.0,127.0,105.0,128.0,18.0,-128.0,-79.0,127.0,127.0,127.0,127.0,82.0,-113.0
126.0,127.0,127.0,126.0,127.0,127.0,106.0,128.0,17.0,-128.0,-79.0,127.0,127.0,127.0,127.0,82.0,-113.0
126.0,127.0,127.0,126.0,127.0,127.0,106.0,128.0,17.0,-128.0,-79.0,127.0,127.0,127.0,127.0,82.0,-113.0
126.0,127.0,127.0,126.0,127.0,127.0,106.0,128.0,17.0,-128.0,-79.0,127.0,127.0,127.0,127.0,82.0,-113.0
126.0,127.0,127.0,126.0,127.0,127.0,108.0,128.0,17.0,-128.0,-79.0,127.0,127.0,127.0,127.0,82.0,-113.0
127.0,127.0,127.0,126.0,127.0,127.0,106.0,128.0,17.0,-128.0,-79.0,127.0,127.0,127.0,127.0,82.0,-113.0
126.0,127.0,127.0,126.0,127.0,127.0,112.0,128.0,17.0,-128.0,-79.0,127.0,127.0,127.0,127.0,82.0,-113.0
126.0,127.0,127.0,126.0,127.0,127.0,112.0,128.0,17.0,-128.0,-79.0,127.0,127.0,127.0,127.0,82.0,-113.0
127.0,127.0,127.0,126.0,127.0,127.0,109.0,128.0,17.0,-128.0,-79.0,127.0,127.0,127.0,127.0,82.0,-113.0
126.0,127.0,127.0,126.0,127.0,127.0,110.0,128.0,17.0,-128.0,-79.0,127.0,127.0,127.0,127.0,82.0,-113.0
126.0,127.0,127.0,126.0,127.0,127.0,108.0,128.0,17.0,-128.0,-79.0,127.0,127.0,127.0,127.0,82.0,-113.0
127.0,127.0,127.0,126.0,126.0,127.0,113.0,128.0,17.0,-128.0,-79.0,127.0,127.0,127.0,127.0,82.0,-113.0
127.0,127.0,127.0,127.0,126.0,127.0,113.0,128.0,17.0,-128.0,-79.0,127.0,127.0,127.0,127.0,82.0,-113.0
127.0,127.0,127.0,127.0,126.0,127.0,113.0,128.0,17.0,-128.0,-79.0,127.0,127.0,127.0,127.0,82.0,-113.0
127.0,127.0,127.0,126.0,126.0,127.0,108.0,128.0,17.0,-128.0,-79.0,127.0,127.0,127.0,127.0,82.0,-113.0
127.0,127.0,127.0,126.0,126.0,127.0,109.0,128.0,17.0,-128.0,-79.0,127.0,127.0,127.0,127.0,82.0,-113.0
127.0,127.0,127.0,126.0,126.0,127.0,111.0,128.0,17.0,-128.0,-79.0,127.0,127.0,127.0,127.0,82.0,-113.0
127.0,127.0,127.0,126.0,126.0,127.0,111.0,128.0,17.0,-128.0,-79.0,127.0,127.0,127.0,127.0,82.0,-113.0
127.0,127.0,127.0,126.0,126.0,127.0,111.0,128.0,17.0,-128.0,-79.0,127.0,127.0,127.0,127.0,82.0,-113.0
127.0,127.0,127.0,127.0,126.0,127.0,113.0,128.0,17.0,-128.0,-79.0,127.0,127.0,127.0,127.0,82.0,-113.0
127.0,127.0,127.0,126.0,126.0,127.0,114.0,128.0,17.0,-128.0,-79.0,127.0,127.0,127.0,127.0,82.0,-113.0
127.0,127.0,127.0,127.0,127.0,127.0,112.0,127.0,17.0,-128.0,-79.0,127.0,127.0,127.0,127.0,82.0,-113.0
126.0,127.0,127.0,127.0,127.0,127.0,112.0,127.0,17.0,-128.0,-79.0,127.0,127.0,127.0,127.0,82.0,-113.0
126.0,127.0,127.0,127.0,127.0,127.0,113.0,128.0,17.0,-128.0,-79.0,127.0,127.0,127.0,127.0,82.0,-113.0
126.0,127.0,127.0,127.0,127.0,127.0,113.0,128.0,17.0,-128.0,-79.0,127.0,127.0,127.0,127.0,82.0,-113.0
127.0,127.0,127.0,127.0,127.0,127.0,113.0,128.0,17.0,-128.0,-79.0,127.0,127.0,127.0,127.0,82.0,-113.0
127.0,127.0,127.0,127.0,127.0,127.0,113.0,128.0,17.0,-128.0,-79.0,127.0,127.0,127.0,127.0,82.0,-113.0
127.0,127.0,127.0,127.0,127.0,127.0,113.0,128.0,17.0,-128.0,-79.0,127.0,127.0,127.0,127.0,82.0,-113.0
127.0,127.0,127.0,127.0,127.0,127.0,112.0,127.0,17.0,-128.0,-79.0,127.0,127.0,127.0,127.0,82.0,-113.0
127.0,127.0,127.0,127.0,127.0,127.0,112.0,127.0,17.0,-128.0,-79.0,127.0,127.0,127.0,127.0,82.0,-113.0
127.0,127.0,127.0,127.0,127.0,127.0,112.0,127.0,17.0,-128.0,-79.0,127.0,127.0,127.0,127.0,82.0,-113.0
126.0,127.0,127.0,127.0,127.0,127.0,113.0,128.0,17.0,-128.0,-79.0,127.0,127.0,127.0,127.0,82.0,-113.0
126.0,127.0,127.0,127.0,127.0,127.0,114.0,128.0,17.0,-128.0,-79.0,127.0,127.0,127.0,127.0,82.0,-113.0
126.0,127.0,127.0,127.0,127.0,127.0,106.0,128.0,17.0,-128.0,-79.0,127.0,127.0,127.0,127.0,82.0,-113.0
126.0,127.0,127.0,127.0,127.0,127.0,106.0,128.0,17.0,-128.0,-79.0,127.0,127.0,127.0,127.0,82.0,-113.0
126.0,127.0,127.0,127.0,127.0,127.0,106.0,128.0,17.0,-128.0,-79.0,127.0,127.0,127.0,127.0,82.0,-113.0
126.0,127.0,127.0,127.0,127.0,127.0,106.0,128.0,17.0,-128.0,-79.0,127.0,127.0,127.0,127.0,82.0,-113.0
127.0,127.0,127.0,127.0,127.0,127.0,107.0,128.0,17.0,-128.0,-79.0,127.0,127.0,127.0,127.0,82.0,-113.0
126.0,127.0,127.0,127.0,127.0,127.0,111.0,128.0,17.0,-128.0,-79.0,127.0,127.0,127.0,127.0,82.0,-113.0
126.0,127.0,127.0,127.0,127.0,127.0,112.0,128.0,17.0,-128.0,-79.0,127.0,127.0,127.0,127.0,82.0,-113.0
126.0,127.0,127.0,127.0,127.0,127.0,114.0,128.0,17.0,-128.0,-79.0,127.0,127.0,127.0,127.0,82.0,-113.0
126.0,127.0,127.0,127.0,127.0,127.0,113.0,128.0,17.0,-128.0,-79.0,127.0,127.0,127.0,127.0,82.0,-113.0
126.0,127.0,127.0,127.0,127.0,127.0,109.0,128.0,17.0,-128.0,-79.0,127.0,127.0,127.0,127.0,82.0,-113.0
126.0,127.0,127.0,127.0,127.0,127.0,110.0,128.0,17.0,-128.0,-79.0,127.0,127.0,127.0,127.0,82.0,-113.0
126.0,127.0,127.0,127.0,127.0,127.0,107.0,128.0,17.0,-128.0,-79.0,127.0,127.0,127.0,127.0,82.0,-113.0
126.0,127.0,127.0,127.0,127.0,127.0,106.0,128.0,17.0,-128.0,-79.0,127.0,127.0,127.0,127.0,82.0,-113.0
126.0,127.0,127.0,127.0,127.0,127.0,106.0,128.0,17.0,-128.0,-79.0,127.0,127.0,127.0,127.0,82.0,-113.0
126.0,127.0,127.0,127.0,127.0,127.0,108.0,128.0,17.0,-128.0,-79.0,127.0,127.0,127.0,127.0,82.0,-113.0
126.0,127.0,127.0,127.0,127.0,127.0,107.0,128.0,17.0,-128.0,-79.0,127.0,127.0,127.0,127.0,82.0,-113.0
126.0,127.0,127.0,127.0,127.0,127.0,109.0,128.0,17.0,-128.0,-79.0,127.0,127.0,127.0,127.0,82.0,-113.0
126.0,127.0,127.0,127.0,127.0,127.0,112.0,128.0,17.0,-128.0,-79.0,127.0,127.0,127.0,127.0,82.0,-113.0
127.0,127.0,127.0,126.0,127.0,127.0,109.0,128.0,17.0,-128.0,-79.0,127.0,127.0,127.0,127.0,82.0,-113.0
126.0,127.0,127.0,126.0,127.0,127.0,110.0,128.0,17.0,-128.0,-79.0,127.0,127.0,127.0,127.0,82.0,-113.0
126.0,127.0,127.0,126.0,127.0,127.0,107.0,128.0,17.0,-128.0,-79.0,127.0,127.0,127.0,127.0,82.0,-113.0
127.0,127.0,127.0,126.0,127.0,127.0,107.0,128.0,17.0,-128.0,-79.0,127.0,127.0,127.0,127.0,82.0,-113.0
126.0,127.0,127.0,127.0,127.0,127.0,106.0,128.0,17.0,-128.0,-79.0,127.0,127.0,127.0,127.0,82.0,-113.0
126.0,127.0,127.0,127.0,127.0,127.0,106.0,128.0,17.0,-128.0,-79.0,127.0,127.0,127.0,127.0,82.0,-113.0
126.0,127.0,127.0,127.0,127.0,127.0,106.0,128.0,17.0,-128.0,-79.0,127.0,127.0,127.0,127.0,82.0,-113.0
126.0,127.0,127.0,127.0,127.0,127.0,106.0,128.0,17.0,-128.0,-79.0,127.0,127.0,127.0,127.0,82.0,-113.0
126.0,127.0,127.0,127.0,127.0,127.0,107.0,128.0,17.0,-128.0,-79.0,127.0,127.0,127.0,127.0,82.0,-113.0
126.0,127.0,127.0,127.0,127.0,127.0,108.0,128.0,17.0,-128.0,-79.0,127.0,127.0,127.0,127.0,82.0,-113.0
127.0,127.0,127.0,127.0,127.0,127.0,109.0,128.0,17.0,-128.0,-79.0,127.0,127.0,127.0,127.0,82.0,-113.0
127.0,127.0,127.0,127.0,127.0,127.0,112.0,128.0,17.0,-128.0,-79.0,127.0,127.0,127.0,127.0,82.0,-113.0
127.0,127.0,127.0,127.0,127.0,127.0,113.0,128.0,17.0,-128.0,-79.0,127.0,127.0,127.0,127.0,82.0,-113.0
127.0,127.0,127.0,127.0,127.0,127.0,113.0,128.0,17.0,-128.0,-79.0,127.0,127.0,127.0,127.0,82.0,-113.0
127.0,127.0,127.0,127.0,127.0,127.0,109.0,128.0,17.0,-128.0,-79.0,127.0,127.0,127.0,127.0,82.0,-113.0
127.0,127.0,127.0,127.0,127.0,127.0,107.0,128.0,17.0,-128.0,-79.0,127.0,127.0,127.0,127.0,82.0,-113.0
127.0,127.0,127.0,127.0,127.0,127.0,106.0,128.0,17.0,-128.0,-79.0,127.0,127.0,127.0,127.0,82.0,-113.0
127.0,127.0,127.0,127.0,127.0,127.0,108.0,128.0,17.0,-128.0,-79.0,127.0,127.0,127.0,127.0,82.0,-113.0
127.0,127.0,127.0,127.0,127.0,127.0,110.0,128.0,17.0,-128.0,-79.0,127.0,127.0,127.0,127.0,82.0,-113.0
127.0,127.0,127.0,127.0,127.0,127.0,106.0,128.0,17.0,-128.0,-79.0,127.0,127.0,127.0,127.0,82.0,-113.0
126.0,127.0,127.0,127.0,127.0,127.0,113.0,128.0,16.0,-127.0,-79.0,127.0,127.0,127.0,127.0,82.0,-113.0
126.0,127.0,127.0,127.0,127.0,127.0,113.0,128.0,16.0,-127.0,-79.0,127.0,127.0,127.0,127.0,82.0,-113.0
126.0,127.0,127.0,127.0,127.0,127.0,113.0,128.0,16.0,-127.0,-79.0,127.0,127.0,127.0,127.0,82.0,-113.0
126.0,127.0,127.0,127.0,127.0,127.0,112.0,128.0,16.0,-127.0,-79.0,127.0,127.0,127.0,127.0,82.0,-113.0
126.0,127.0,127.0,127.0,127.0,127.0,110.0,128.0,16.0,-127.0,-79.0,127.0,127.0,127.0,127.0,82.0,-113.0
126.0,127.0,127.0,127.0,127.0,127.0,112.0,128.0,16.0,-127.0,-79.0,127.0,127.0,127.0,127.0,82.0,-113.0
126.0,127.0,127.0,127.0,127.0,127.0,114.0,128.0,16.0,-127.0,-79.0,127.0,127.0,127.0,127.0,82.0,-113.0
126.0,127.0,127.0,127.0,127.0,127.0,113.0,128.0,16.0,-127.0,-79.0,127.0,127.0,127.0,127.0,82.0,-113.0
126.0,127.0,127.0,127.0,127.0,127.0,113.0,128.0,16.0,-127.0,-79.0,127.0,127.0,127.0,127.0,82.0,-113.0
127.0,127.0,127.0,127.0,127.0,127.0,113.0,128.0,16.0,-127.0,-79.0,127.0,127.0,127.0,127.0,82.0,-113.0
126.0,127.0,127.0,127.0,127.0,127.0,106.0,128.0,16.0,-127.0,-79.0,127.0,127.0,127.0,127.0,82.0,-113.0
127.0,127.0,127.0,127.0,127.0,127.0,106.0,128.0,16.0,-127.0,-79.0,127.0,127.0,127.0,127.0,82.0,-113.0
127.0,127.0,127.0,127.0,127.0,127.0,106.0,128.0,16.0,-127.0,-79.0,127.0,127.0,127.0,127.0,82.0,-113.0
126.0,127.0,127.0,127.0,127.0,127.0,106.0,128.0,16.0,-127.0,-79.0,127.0,127.0,127.0,127.0,82.0,-113.0
127.0,127.0,127.0,127.0,127.0,127.0,106.0,128.0,16.0,-127.0,-79.0,127.0,127.0,127.0,127.0,82.0,-113.0
126.0,127.0,127.0,127.0,127.0,127.0,106.0,128.0,16.0,-127.0,-79.0,127.0,127.0,127.0,127.0,82.0,-113.0
127.0,127.0,127.0,127.0,127.0,127.0,107.0,128.0,16.0,-127.0,-79.0,127.0,127.0,127.0,127.0,82.0,-113.0
126.0,127.0,127.0,127.0,127.0,127.0,106.0,128.0,16.0,-127.0,-79.0,127.0,127.0,127.0,127.0,82.0,-113.0
126.0,127.0,127.0,127.0,127.0,127.0,106.0,128.0,16.0,-127.0,-79.0,127.0,127.0,127.0,127.0,82.0,-113.0
127.0,127.0,127.0,127.0,127.0,127.0,106.0,128.0,16.0,-127.0,-79.0,127.0,127.0,127.0,127.0,82.0,-113.0
126.0,127.0,127.0,127.0,126.0,127.0,112.0,128.0,16.0,-127.0,-79.0,127.0,127.0,127.0,127.0,82.0,-113.0
126.0,127.0,127.0,127.0,127.0,127.0,112.0,128.0,16.0,-127.0,-79.0,127.0,127.0,127.0,127.0,82.0,-113.0
126.0,127.0,127.0,127.0,127.0,127.0,113.0,128.0,16.0,-127.0,-79.0,127.0,127.0,127.0,127.0,82.0,-113.0
126.0,127.0,127.0,127.0,127.0,127.0,113.0,128.0,16.0,-127.0,-79.0,127.0,127.0,127.0,127.0,82.0,-113.0
126.0,127.0,127.0,127.0,127.0,127.0,113.0,128.0,16.0,-127.0,-79.0,127.0,127.0,127.0,127.0,82.0,-113.0
126.0,127.0,127.0,127.0,127.0,127.0,113.0,128.0,16.0,-127.0,-79.0,127.0,127.0,127.0,127.0,82.0,-113.0
126.0,127.0,127.0,127.0,126.0,127.0,112.0,128.0,16.0,-127.0,-79.0,127.0,127.0,127.0,127.0,82.0,-113.0
126.0,127.0,127.0,127.0,126.0,127.0,112.0,128.0,16.0,-127.0,-79.0,127.0,127.0,127.0,127.0,82.0,-113.0
126.0,126.0,127.0,127.0,126.0,127.0,112.0,128.0,16.0,-127.0,-79.0,127.0,127.0,127.0,127.0,82.0,-113.0
126.0,127.0,127.0,127.0,126.0,127.0,112.0,128.0,16.0,-127.0,-79.0,127.0,127.0,127.0,127.0,82.0,-113.0
126.0,127.0,127.0,127.0,127.0,127.0,107.0,128.0,17.0,-128.0,-79.0,127.0,127.0,127.0,127.0,82.0,-113.0
126.0,127.0,127.0,127.0,127.0,127.0,111.0,128.0,17.0,-128.0,-79.0,127.0,127.0,127.0,127.0,82.0,-113.0
126.0,127.0,127.0,127.0,127.0,127.0,108.0,128.0,17.0,-128.0,-79.0,127.0,127.0,127.0,127.0,82.0,-113.0
126.0,127.0,127.0,127.0,127.0,127.0,108.0,128.0,17.0,-128.0,-79.0,127.0,127.0,127.0,127.0,82.0,-113.0
126.0,127.0,127.0,127.0,127.0,127.0,107.0,128.0,17.0,-128.0,-79.0,127.0,127.0,127.0,127.0,82.0,-113.0
126.0,127.0,127.0,127.0,127.0,127.0,113.0,128.0,17.0,-128.0,-79.0,127.0,127.0,127.0,127.0,82.0,-113.0
126.0,127.0,127.0,127.0,127.0,127.0,113.0,128.0,17.0,-128.0,-79.0,127.0,127.0,127.0,127.0,82.0,-113.0
126.0,127.0,127.0,127.0,127.0,127.0,113.0,128.0,17.0,-128.0,-79.0,127.0,127.0,127.0,127.0,82.0,-113.0
126.0,127.0,127.0,127.0,127.0,127.0,109.0,128.0,17.0,-128.0,-79.0,127.0,127.0,127.0,127.0,82.0,-113.0
126.0,127.0,127.0,127.0,127.0,127.0,106.0,128.0,17.0,-128.0,-79.0,127.0,127.0,127.0,127.0,82.0,-113.0
126.0,127.0,127.0,127.0,127.0,127.0,110.0,128.0,17.0,-128.0,-79.0,127.0,127.0,127.0,127.0,82.0,-113.0
126.0,127.0,127.0,127.0,127.0,127.0,111.0,128.0,17.0,-128.0,-79.0,127.0,127.0,127.0,127.0,82.0,-113.0
126.0,127.0,127.0,127.0,127.0,127.0,112.0,128.0,17.0,-128.0,-79.0,127.0,127.0,127.0,127.0,82.0,-113.0
126.0,127.0,127.0,127.0,127.0,127.0,106.0,128.0,17.0,-128.0,-79.0,127.0,127.0,127.0,127.0,82.0,-113.0
126.0,127.0,127.0,127.0,127.0,127.0,106.0,128.0,17.0,-128.0,-79.0,127.0,127.0,127.0,127.0,82.0,-113.0
126.0,127.0,127.0,127.0,127.0,127.0,106.0,128.0,17.0,-128.0,-79.0,127.0,127.0,127.0,127.0,82.0,-113.0
126.0,127.0,127.0,127.0,127.0,127.0,106.0,128.0,17.0,-128.0,-79.0,127.0,127.0,127.0,127.0,82.0,-113.0
126.0,127.0,127.0,127.0,127.0,127.0,106.0,128.0,17.0,-128.0,-79.0,127.0,127.0,127.0,127.0,82.0,-113.0
126.0,127.0,127.0,127.0,127.0,127.0,106.0,128.0,17.0,-128.0,-79.0,127.0,127.0,127.0,127.0,82.0,-113.0
126.0,127.0,127.0,127.0,127.0,127.0,108.0,128.0,17.0,-128.0,-79.0,127.0,127.0,127.0,127.0,82.0,-113.0
127.0,127.0,127.0,127.0,127.0,127.0,106.0,128.0,17.0,-128.0,-78.0,127.0,127.0,127.0,127.0,82.0,-113.0
127.0,127.0,127.0,127.0,127.0,127.0,106.0,128.0,17.0,-128.0,-78.0,127.0,127.0,127.0,127.0,82.0,-113.0
127.0,127.0,127.0,127.0,127.0,127.0,106.0,128.0,17.0,-128.0,-78.0,127.0,127.0,127.0,127.0,82.0,-113.0
127.0,126.0,127.0,127.0,126.0,127.0,113.0,128.0,17.0,-128.0,-78.0,127.0,127.0,127.0,127.0,82.0,-113.0
127.0,126.0,127.0,127.0,126.0,127.0,113.0,128.0,17.0,-128.0,-78.0,127.0,127.0,127.0,127.0,82.0,-113.0
127.0,126.0,127.0,126.0,126.0,127.0,113.0,128.0,17.0,-128.0,-78.0,127.0,127.0,127.0,127.0,82.0,-113.0
127.0,126.0,127.0,126.0,126.0,127.0,114.0,128.0,17.0,-128.0,-78.0,127.0,127.0,127.0,127.0,82.0,-113.0
127.0,126.0,127.0,126.0,127.0,127.0,114.0,128.0,17.0,-128.0,-78.0,127.0,127.0,127.0,127.0,82.0,-113.0
127.0,127.0,127.0,126.0,126.0,127.0,113.0,128.0,17.0,-128.0,-78.0,127.0,127.0,127.0,127.0,82.0,-113.0
127.0,127.0,127.0,126.0,127.0,127.0,109.0,128.0,17.0,-128.0,-78.0,127.0,127.0,127.0,127.0,82.0,-113.0
127.0,127.0,127.0,127.0,127.0,127.0,106.0,128.0,17.0,-128.0,-78.0,127.0,127.0,127.0,127.0,82.0,-113.0
127.0,127.0,127.0,127.0,127.0,127.0,109.0,128.0,17.0,-128.0,-78.0,127.0,127.0,127.0,127.0,82.0,-113.0
127.0,127.0,127.0,127.0,127.0,127.0,107.0,128.0,17.0,-128.0,-78.0,127.0,127.0,127.0,127.0,82.0,-113.0
127.0,127.0,127.0,127.0,127.0,127.0,106.0,128.0,17.0,-128.0,-78.0,127.0,127.0,127.0,127.0,82.0,-113.0
127.0,127.0,127.0,127.0,127.0,127.0,107.0,128.0,17.0,-128.0,-78.0,127.0,127.0,127.0,127.0,82.0,-113.0
127.0,127.0,127.0,127.0,127.0,127.0,106.0,128.0,17.0,-128.0,-78.0,127.0,127.0,127.0,127.0,82.0,-113.0
127.0,127.0,127.0,127.0,127.0,127.0,106.0,128.0,17.0,-128.0,-78.0,127.0,127.0,127.0,127.0,82.0,-113.0
127.0,127.0,127.0,127.0,127.0,127.0,106.0,128.0,17.0,-128.0,-78.0,127.0,127.0,127.0,127.0,82.0,-113.0
127.0,127.0,127.0,127.0,127.0,127.0,106.0,128.0,17.0,-128.0,-78.0,127.0,127.0,127.0,127.0,82.0,-113.0
127.0,127.0,127.0,127.0,127.0,127.0,106.0,128.0,17.0,-128.0,-78.0,127.0,127.0,127.0,127.0,82.0,-113.0
127.0,127.0,127.0,127.0,127.0,127.0,106.0,128.0,18.0,-128.0,-78.0,127.0,127.0,127.0,127.0,82.0,-113.0
127.0,127.0,127.0,127.0,127.0,127.0,108.0,128.0,18.0,-128.0,-78.0,127.0,127.0,127.0,127.0,82.0,-113.0
127.0,127.0,127.0,127.0,127.0,127.0,106.0,128.0,18.0,-128.0,-78.0,127.0,127.0,127.0,127.0,82.0,-113.0
127.0,127.0,127.0,127.0,127.0,127.0,106.0,128.0,18.0,-128.0,-78.0,127.0,127.0,127.0,127.0,82.0,-113.0
127.0,127.0,127.0,127.0,127.0,127.0,106.0,128.0,18.0,-128.0,-78.0,127.0,127.0,127.0,127.0,82.0,-113.0
127.0,127.0,127.0,127.0,127.0,127.0,106.0,128.0,18.0,-128.0,-78.0,127.0,127.0,127.0,127.0,82.0,-113.0
127.0,127.0,127.0,127.0,127.0,127.0,106.0,128.0,18.0,-128.0,-78.0,127.0,127.0,127.0,127.0,82.0,-113.0
127.0,126.0,127.0,127.0,127.0,127.0,106.0,128.0,18.0,-128.0,-78.0,127.0,127.0,127.0,127.0,82.0,-113.0
127.0,127.0,127.0,127.0,127.0,127.0,106.0,128.0,18.0,-128.0,-78.0,127.0,127.0,127.0,127.0,82.0,-113.0
127.0,126.0,127.0,127.0,127.0,127.0,106.0,128.0,18.0,-128.0,-78.0,127.0,127.0,127.0,127.0,82.0,-113.0
126.0,127.0,127.0,127.0,127.0,127.0,107.0,128.0,19.0,-128.0,-77.0,127.0,127.0,127.0,127.0,82.0,-113.0
126.0,127.0,127.0,127.0,127.0,127.0,106.0,128.0,19.0,-128.0,-77.0,127.0,127.0,127.0,127.0,82.0,-113.0
126.0,127.0,127.0,127.0,127.0,127.0,106.0,128.0,19.0,-128.0,-77.0,127.0,127.0,127.0,127.0,82.0,-113.0
126.0,127.0,127.0,127.0,127.0,127.0,106.0,128.0,19.0,-128.0,-77.0,127.0,127.0,127.0,127.0,82.0,-113.0
126.0,127.0,127.0,127.0,127.0,127.0,106.0,128.0,19.0,-128.0,-77.0,127.0,127.0,127.0,127.0,82.0,-113.0
126.0,127.0,127.0,127.0,127.0,127.0,106.0,128.0,19.0,-128.0,-77.0,127.0,127.0,127.0,127.0,82.0,-113.0
126.0,127.0,127.0,127.0,126.0,127.0,106.0,128.0,19.0,-128.0,-77.0,127.0,127.0,127.0,127.0,82.0,-113.0
126.0,127.0,127.0,127.0,126.0,127.0,106.0,128.0,19.0,-128.0,-77.0,127.0,127.0,127.0,127.0,82.0,-113.0
126.0,127.0,127.0,127.0,126.0,127.0,106.0,128.0,19.0,-128.0,-77.0,127.0,127.0,127.0,127.0,82.0,-113.0
126.0,127.0,127.0,127.0,126.0,127.0,106.0,128.0,19.0,-128.0,-77.0,127.0,127.0,127.0,127.0,82.0,-113.0
126.0,126.0,127.0,127.0,126.0,127.0,113.0,127.0,19.0,127.0,-78.0,127.0,127.0,127.0,127.0,82.0,-113.0
126.0,127.0,127.0,127.0,126.0,127.0,113.0,127.0,19.0,127.0,-78.0,127.0,127.0,127.0,127.0,82.0,-113.0
127.0,127.0,127.0,127.0,126.0,127.0,114.0,127.0,19.0,127.0,-78.0,127.0,127.0,127.0,127.0,82.0,-113.0
126.0,127.0,127.0,127.0,126.0,127.0,114.0,127.0,19.0,127.0,-78.0,127.0,127.0,127.0,127.0,82.0,-113.0
127.0,127.0,127.0,127.0,126.0,127.0,113.0,127.0,19.0,127.0,-78.0,127.0,127.0,127.0,127.0,82.0,-113.0
126.0,127.0,127.0,127.0,126.0,127.0,113.0,127.0,19.0,127.0,-78.0,127.0,127.0,127.0,127.0,82.0,-113.0
126.0,127.0,127.0,127.0,126.0,127.0,114.0,127.0,19.0,127.0,-78.0,127.0,127.0,127.0,127.0,82.0,-113.0
126.0,127.0,127.0,127.0,126.0,127.0,113.0,127.0,19.0,127.0,-78.0,127.0,127.0,127.0,127.0,82.0,-113.0
126.0,127.0,127.0,127.0,126.0,127.0,113.0,127.0,19.0,127.0,-78.0,127.0,127.0,127.0,127.0,82.0,-113.0
126.0,127.0,127.0,127.0,126.0,127.0,112.0,127.0,19.0,127.0,-78.0,127.0,127.0,127.0,127.0,82.0,-113.0
126.0,127.0,127.0,127.0,127.0,127.0,106.0,128.0,19.0,127.0,-78.0,127.0,127.0,127.0,127.0,82.0,-113.0
126.0,127.0,127.0,127.0,127.0,127.0,106.0,128.0,19.0,127.0,-78.0,127.0,127.0,127.0,127.0,82.0,-113.0
126.0,127.0,127.0,127.0,127.0,127.0,106.0,128.0,19.0,127.0,-78.0,127.0,127.0,127.0,127.0,82.0,-113.0
126.0,127.0,127.0,127.0,127.0,127.0,106.0,128.0,19.0,127.0,-78.0,127.0,127.0,127.0,127.0,82.0,-113.0
126.0,127.0,127.0,127.0,127.0,127.0,106.0,128.0,19.0,127.0,-78.0,127.0,127.0,127.0,127.0,82.0,-113.0
126.0,127.0,127.0,127.0,127.0,127.0,106.0,128.0,19.0,127.0,-78.0,127.0,127.0,127.0,127.0,82.0,-113.0
126.0,127.0,127.0,127.0,127.0,127.0,107.0,128.0,19.0,127.0,-78.0,127.0,127.0,127.0,127.0,82.0,-113.0
126.0,127.0,127.0,127.0,127.0,127.0,106.0,128.0,19.0,127.0,-78.0,127.0,127.0,127.0,127.0,82.0,-113.0
126.0,127.0,127.0,127.0,127.0,127.0,106.0,128.0,19.0,127.0,-78.0,127.0,127.0,127.0,127.0,82.0,-113.0
126.0,127.0,127.0,127.0,127.0,127.0,106.0,128.0,19.0,127.0,-78.0,127.0,127.0,127.0,127.0,82.0,-113.0
126.0,127.0,127.0,127.0,127.0,127.0,106.0,128.0,19.0,127.0,-78.0,127.0,127.0,127.0,127.0,82.0,-113.0
126.0,127.0,127.0,127.0,127.0,127.0,106.0,128.0,19.0,127.0,-78.0,127.0,127.0,127.0,127.0,82.0,-113.0
126.0,127.0,127.0,127.0,127.0,127.0,108.0,128.0,19.0,127.0,-78.0,127.0,127.0,127.0,127.0,82.0,-113.0
126.0,127.0,127.0,127.0,127.0,127.0,108.0,128.0,19.0,127.0,-78.0,127.0,127.0,127.0,127.0,82.0,-113.0
126.0,127.0,127.0,127.0,127.0,127.0,110.0,128.0,19.0,127.0,-78.0,127.0,127.0,127.0,127.0,82.0,-113.0
126.0,127.0,127.0,127.0,127.0,127.0,113.0,128.0,19.0,127.0,-78.0,127.0,127.0,127.0,127.0,82.0,-113.0
126.0,127.0,127.0,127.0,127.0,127.0,114.0,128.0,19.0,127.0,-78.0,127.0,127.0,127.0,127.0,82.0,-113.0
126.0,127.0,127.0,127.0,127.0,127.0,113.0,128.0,19.0,127.0,-78.0,127.0,127.0,127.0,127.0,82.0,-113.0
126.0,127.0,127.0,127.0,127.0,127.0,110.0,128.0,19.0,127.0,-78.0,127.0,127.0,127.0,127.0,82.0,-113.0
126.0,127.0,127.0,127.0,127.0,127.0,106.0,128.0,19.0,127.0,-78.0,127.0,127.0,127.0,127.0,82.0,-113.0
126.0,127.0,127.0,126.0,127.0,127.0,107.0,129.0,19.0,127.0,-77.0,127.0,127.0,127.0,127.0,83.0,-113.0
126.0,127.0,127.0,127.0,127.0,127.0,106.0,129.0,19.0,127.0,-77.0,127.0,127.0,127.0,127.0,83.0,-113.0
126.0,127.0,127.0,127.0,127.0,127.0,106.0,129.0,19.0,127.0,-77.0,127.0,127.0,127.0,127.0,83.0,-113.0
126.0,127.0,127.0,127.0,127.0,127.0,106.0,129.0,19.0,127.0,-77.0,127.0,127.0,127.0,127.0,83.0,-113.0
126.0,127.0,127.0,127.0,127.0,127.0,107.0,129.0,19.0,127.0,-77.0,127.0,127.0,127.0,127.0,83.0,-113.0
126.0,127.0,127.0,127.0,127.0,127.0,106.0,128.0,19.0,127.0,-77.0,127.0,127.0,127.0,127.0,83.0,-113.0
126.0,126.0,127.0,126.0,127.0,127.0,112.0,128.0,19.0,127.0,-77.0,127.0,127.0,127.0,127.0,83.0,-113.0
126.0,127.0,127.0,126.0,127.0,127.0,109.0,128.0,19.0,127.0,-77.0,127.0,127.0,127.0,127.0,83.0,-113.0
126.0,127.0,127.0,126.0,127.0,127.0,106.0,129.0,19.0,127.0,-77.0,127.0,127.0,127.0,127.0,83.0,-113.0
126.0,127.0,127.0,127.0,127.0,127.0,106.0,128.0,19.0,127.0,-77.0,127.0,127.0,127.0,127.0,83.0,-113.0
126.0,127.0,127.0,127.0,127.0,127.0,108.0,128.0,18.0,127.0,-77.0,127.0,127.0,127.0,127.0,83.0,-113.0
126.0,127.0,127.0,127.0,127.0,127.0,106.0,128.0,18.0,127.0,-77.0,127.0,127.0,127.0,127.0,83.0,-113.0
126.0,127.0,127.0,127.0,127.0,127.0,108.0,128.0,18.0,127.0,-77.0,127.0,127.0,127.0,127.0,83.0,-113.0
126.0,127.0,127.0,127.0,127.0,127.0,107.0,128.0,18.0,127.0,-77.0,127.0,127.0,127.0,127.0,83.0,-113.0
126.0,127.0,127.0,127.0,127.0,127.0,106.0,128.0,18.0,127.0,-77.0,127.0,127.0,127.0,127.0,83.0,-113.0
126.0,127.0,127.0,127.0,127.0,127.0,106.0,128.0,18.0,127.0,-77.0,127.0,127.0,127.0,127.0,83.0,-113.0
126.0,126.0,127.0,127.0,127.0,127.0,111.0,128.0,18.0,127.0,-77.0,127.0,127.0,127.0,127.0,83.0,-113.0
126.0,127.0,127.0,127.0,127.0,127.0,113.0,128.0,18.0,127.0,-77.0,127.0,127.0,127.0,127.0,83.0,-113.0
126.0,126.0,127.0,127.0,127.0,127.0,111.0,128.0,18.0,127.0,-77.0,127.0,127.0,127.0,127.0,83.0,-113.0
126.0,127.0,127.0,127.0,127.0,127.0,111.0,128.0,18.0,127.0,-77.0,127.0,127.0,127.0,127.0,83.0,-113.0
126.0,126.0,127.0,127.0,126.0,127.0,111.0,128.0,17.0,127.0,-77.0,127.0,127.0,127.0,127.0,83.0,-113.0
126.0,127.0,127.0,127.0,127.0,127.0,110.0,128.0,17.0,127.0,-77.0,127.0,127.0,127.0,127.0,83.0,-113.0
126.0,127.0,127.0,127.0,127.0,127.0,108.0,128.0,17.0,127.0,-77.0,127.0,127.0,127.0,127.0,83.0,-113.0
126.0,127.0,127.0,127.0,127.0,127.0,106.0,128.0,17.0,127.0,-77.0,127.0,127.0,127.0,127.0,83.0,-113.0
126.0,126.0,127.0,127.0,126.0,127.0,113.0,128.0,17.0,127.0,-77.0,127.0,127.0,127.0,127.0,83.0,-113.0
126.0,126.0,127.0,127.0,126.0,127.0,113.0,128.0,17.0,127.0,-77.0,127.0,127.0,127.0,127.0,83.0,-113.0
126.0,127.0,127.0,127.0,127.0,127.0,108.0,128.0,17.0,127.0,-77.0,127.0,127.0,127.0,127.0,83.0,-113.0
126.0,126.0,127.0,127.0,126.0,127.0,108.0,128.0,17.0,127.0,-77.0,127.0,127.0,127.0,127.0,83.0,-113.0
126.0,126.0,127.0,127.0,126.0,127.0,110.0,128.0,17.0,127.0,-77.0,127.0,127.0,127.0,127.0,83.0,-113.0
126.0,126.0,127.0,127.0,126.0,127.0,112.0,128.0,17.0,127.0,-77.0,127.0,127.0,127.0,127.0,83.0,-113.0
127.0,126.0,127.0,126.0,126.0,127.0,109.0,128.0,15.0,127.0,-77.0,127.0,127.0,127.0,127.0,83.0,-113.0
127.0,126.0,127.0,126.0,126.0,127.0,113.0,128.0,15.0,127.0,-77.0,127.0,127.0,127.0,127.0,83.0,-113.0
127.0,126.0,127.0,126.0,126.0,127.0,113.0,128.0,15.0,127.0,-77.0,127.0,127.0,127.0,127.0,83.0,-113.0
127.0,127.0,127.0,126.0,126.0,127.0,107.0,128.0,15.0,127.0,-77.0,127.0,127.0,127.0,127.0,83.0,-113.0
127.0,126.0,127.0,126.0,126.0,127.0,106.0,128.0,15.0,127.0,-77.0,127.0,127.0,127.0,127.0,83.0,-113.0
127.0,126.0,127.0,126.0,126.0,127.0,106.0,128.0,15.0,127.0,-77.0,127.0,127.0,127.0,127.0,83.0,-113.0
127.0,126.0,127.0,126.0,126.0,127.0,106.0,128.0,15.0,127.0,-77.0,127.0,127.0,127.0,127.0,83.0,-113.0
127.0,126.0,127.0,126.0,126.0,127.0,106.0,128.0,15.0,127.0,-77.0,127.0,127.0,127.0,127.0,83.0,-113.0
127.0,126.0,127.0,126.0,126.0,127.0,106.0,128.0,15.0,127.0,-77.0,127.0,127.0,127.0,127.0,83.0,-113.0
127.0,126.0,127.0,126.0,126.0,127.0,106.0,128.0,15.0,127.0,-77.0,127.0,127.0,127.0,127.0,83.0,-113.0
127.0,127.0,127.0,127.0,126.0,127.0,112.0,128.0,15.0,-128.0,-77.0,127.0,127.0,127.0,127.0,83.0,-113.0
127.0,126.0,127.0,127.0,126.0,127.0,112.0,128.0,15.0,-128.0,-77.0,127.0,127.0,127.0,127.0,83.0,-113.0
127.0,127.0,127.0,127.0,126.0,127.0,106.0,128.0,15.0,-128.0,-77.0,127.0,127.0,127.0,127.0,83.0,-113.0
127.0,127.0,127.0,127.0,126.0,127.0,106.0,128.0,15.0,-128.0,-77.0,127.0,127.0,127.0,127.0,83.0,-113.0
127.0,127.0,127.0,127.0,126.0,127.0,105.0,128.0,15.0,-128.0,-77.0,127.0,127.0,127.0,127.0,83.0,-113.0
127.0,127.0,127.0,127.0,126.0,127.0,106.0,128.0,15.0,-128.0,-77.0,127.0,127.0,127.0,127.0,83.0,-113.0
127.0,127.0,127.0,127.0,126.0,127.0,105.0,128.0,15.0,-128.0,-77.0,127.0,127.0,127.0,127.0,83.0,-113.0
127.0,127.0,127.0,126.0,126.0,127.0,106.0,128.0,15.0,-128.0,-77.0,127.0,127.0,127.0,127.0,83.0,-113.0
127.0,127.0,127.0,127.0,126.0,127.0,110.0,128.0,15.0,-128.0,-77.0,127.0,127.0,127.0,127.0,83.0,-113.0
127.0,127.0,127.0,127.0,126.0,127.0,111.0,128.0,15.0,-128.0,-77.0,127.0,127.0,127.0,127.0,83.0,-113.0
127.0,126.0,127.0,127.0,126.0,127.0,113.0,128.0,15.0,-128.0,-78.0,127.0,127.0,127.0,127.0,83.0,-113.0
127.0,127.0,127.0,127.0,127.0,127.0,106.0,128.0,15.0,-128.0,-78.0,127.0,127.0,127.0,127.0,83.0,-113.0
127.0,127.0,127.0,127.0,126.0,127.0,106.0,128.0,15.0,-128.0,-78.0,127.0,127.0,127.0,127.0,83.0,-113.0
127.0,127.0,127.0,127.0,126.0,127.0,106.0,128.0,15.0,-128.0,-78.0,127.0,127.0,127.0,127.0,83.0,-113.0
127.0,127.0,127.0,127.0,126.0,127.0,106.0,128.0,15.0,-128.0,-78.0,127.0,127.0,127.0,127.0,83.0,-113.0
127.0,127.0,127.0,127.0,126.0,127.0,106.0,128.0,15.0,-128.0,-78.0,127.0,127.0,127.0,127.0,83.0,-113.0
127.0,127.0,127.0,127.0,126.0,127.0,110.0,128.0,15.0,-128.0,-78.0,127.0,127.0,127.0,127.0,83.0,-113.0
127.0,127.0,127.0,127.0,126.0,127.0,110.0,128.0,15.0,-128.0,-78.0,127.0,127.0,127.0,127.0,83.0,-113.0
127.0,126.0,127.0,127.0,126.0,127.0,112.0,128.0,15.0,-128.0,-78.0,127.0,127.0,127.0,127.0,83.0,-113.0
127.0,126.0,127.0,127.0,126.0,127.0,113.0,128.0,15.0,-128.0,-78.0,127.0,127.0,127.0,127.0,83.0,-113.0
127.0,126.0,127.0,127.0,126.0,127.0,112.0,127.0,15.0,-128.0,-78.0,127.0,127.0,127.0,127.0,83.0,-113.0
127.0,126.0,127.0,127.0,126.0,127.0,112.0,127.0,15.0,-128.0,-78.0,127.0,127.0,127.0,127.0,83.0,-113.0
127.0,126.0,127.0,127.0,126.0,127.0,112.0,127.0,15.0,-128.0,-78.0,127.0,127.0,127.0,127.0,83.0,-113.0
127.0,126.0,127.0,127.0,126.0,127.0,112.0,127.0,15.0,-128.0,-78.0,127.0,127.0,127.0,127.0,83.0,-113.0
127.0,126.0,127.0,127.0,126.0,127.0,112.0,127.0,15.0,-128.0,-78.0,127.0,127.0,127.0,127.0,83.0,-113.0
127.0,126.0,127.0,127.0,126.0,127.0,113.0,127.0,15.0,-128.0,-78.0,127.0,127.0,127.0,127.0,83.0,-113.0
127.0,127.0,127.0,127.0,127.0,127.0,113.0,128.0,15.0,-128.0,-78.0,127.0,127.0,127.0,127.0,83.0,-113.0
127.0,127.0,127.0,127.0,127.0,127.0,113.0,127.0,15.0,-128.0,-78.0,127.0,127.0,127.0,127.0,83.0,-113.0
127.0,127.0,127.0,127.0,127.0,127.0,114.0,127.0,15.0,-128.0,-78.0,127.0,127.0,127.0,127.0,83.0,-113.0
127.0,127.0,127.0,127.0,127.0,127.0,113.0,128.0,15.0,-128.0,-78.0,127.0,127.0,127.0,127.0,83.0,-113.0
126.0,127.0,127.0,127.0,126.0,127.0,113.0,127.0,15.0,-128.0,-79.0,127.0,127.0,127.0,127.0,83.0,-113.0
126.0,127.0,127.0,127.0,126.0,127.0,112.0,127.0,15.0,-128.0,-79.0,127.0,127.0,127.0,127.0,83.0,-113.0
126.0,127.0,127.0,127.0,127.0,127.0,111.0,128.0,15.0,-128.0,-79.0,127.0,127.0,127.0,127.0,83.0,-113.0
126.0,127.0,127.0,127.0,127.0,127.0,111.0,128.0,15.0,-128.0,-79.0,127.0,127.0,127.0,127.0,83.0,-113.0
126.0,127.0,127.0,127.0,127.0,127.0,112.0,128.0,15.0,-128.0,-79.0,127.0,127.0,127.0,127.0,83.0,-113.0
126.0,127.0,127.0,127.0,127.0,127.0,113.0,127.0,15.0,-128.0,-79.0,127.0,127.0,127.0,127.0,83.0,-113.0
126.0,127.0,127.0,127.0,127.0,127.0,113.0,127.0,15.0,-128.0,-79.0,127.0,127.0,127.0,127.0,83.0,-113.0
126.0,127.0,127.0,127.0,127.0,127.0,112.0,127.0,15.0,-128.0,-79.0,127.0,127.0,127.0,127.0,83.0,-113.0
126.0,127.0,127.0,127.0,127.0,127.0,111.0,128.0,15.0,-128.0,-79.0,127.0,127.0,127.0,127.0,83.0,-113.0
126.0,127.0,127.0,127.0,126.0,127.0,113.0,127.0,15.0,-128.0,-79.0,127.0,127.0,127.0,127.0,83.0,-113.0
126.0,127.0,127.0,127.0,127.0,127.0,106.0,128.0,16.0,-128.0,-79.0,127.0,127.0,127.0,127.0,83.0,-113.0
126.0,127.0,127.0,127.0,127.0,127.0,106.0,128.0,16.0,-128.0,-79.0,127.0,127.0,127.0,127.0,83.0,-113.0
126.0,127.0,127.0,127.0,127.0,127.0,106.0,128.0,16.0,-128.0,-79.0,127.0,127.0,127.0,127.0,83.0,-113.0
126.0,127.0,127.0,127.0,127.0,127.0,106.0,128.0,16.0,-128.0,-79.0,127.0,127.0,127.0,127.0,83.0,-113.0
127.0,127.0,127.0,127.0,127.0,127.0,106.0,128.0,16.0,-128.0,-79.0,127.0,127.0,127.0,127.0,83.0,-113.0
126.0,127.0,127.0,127.0,127.0,127.0,108.0,128.0,16.0,-128.0,-79.0,127.0,127.0,127.0,127.0,83.0,-113.0
126.0,127.0,127.0,127.0,127.0,127.0,109.0,128.0,16.0,-128.0,-79.0,127.0,127.0,127.0,127.0,83.0,-113.0
127.0,127.0,127.0,127.0,127.0,127.0,109.0,127.0,16.0,-128.0,-79.0,127.0,127.0,127.0,127.0,83.0,-113.0
126.0,127.0,127.0,127.0,127.0,127.0,107.0,128.0,16.0,-128.0,-79.0,127.0,127.0,127.0,127.0,83.0,-113.0
126.0,127.0,127.0,127.0,127.0,127.0,106.0,128.0,16.0,-128.0,-79.0,127.0,127.0,127.0,127.0,83.0,-113.0
126.0,127.0,127.0,127.0,127.0,127.0,106.0,128.0,16.0,-128.0,-79.0,127.0,127.0,127.0,127.0,83.0,-113.0
126.0,127.0,127.0,127.0,127.0,127.0,107.0,128.0,16.0,-128.0,-79.0,127.0,127.0,127.0,127.0,83.0,-113.0
126.0,127.0,127.0,127.0,127.0,127.0,107.0,128.0,16.0,-128.0,-79.0,127.0,127.0,127.0,127.0,83.0,-113.0
126.0,127.0,127.0,127.0,127.0,127.0,106.0,128.0,16.0,-128.0,-79.0,127.0,127.0,127.0,127.0,83.0,-113.0
126.0,127.0,127.0,127.0,127.0,127.0,106.0,128.0,16.0,-128.0,-79.0,127.0,127.0,127.0,127.0,83.0,-113.0
126.0,127.0,127.0,127.0,127.0,127.0,106.0,128.0,16.0,-128.0,-79.0,127.0,127.0,127.0,127.0,83.0,-113.0
126.0,127.0,127.0,127.0,127.0,127.0,106.0,128.0,16.0,-128.0,-79.0,127.0,127.0,127.0,127.0,83.0,-113.0
126.0,127.0,127.0,127.0,127.0,127.0,107.0,128.0,16.0,-128.0,-79.0,127.0,127.0,127.0,127.0,83.0,-113.0
126.0,127.0,127.0,127.0,127.0,127.0,107.0,128.0,16.0,-128.0,-79.0,127.0,127.0,127.0,127.0,83.0,-113.0
126.0,127.0,127.0,127.0,127.0,127.0,107.0,128.0,16.0,-128.0,-79.0,127.0,127.0,127.0,127.0,83.0,-113.0
126.0,127.0,127.0,127.0,127.0,127.0,106.0,128.0,16.0,-128.0,-79.0,127.0,127.0,127.0,127.0,83.0,-113.0
126.0,127.0,127.0,127.0,127.0,127.0,106.0,128.0,16.0,-128.0,-79.0,127.0,127.0,127.0,127.0,83.0,-113.0
126.0,127.0,127.0,127.0,127.0,127.0,106.0,128.0,16.0,-128.0,-79.0,127.0,127.0,127.0,127.0,83.0,-113.0
