emg1,emg2,emg3,emg4,emg5,emg6,emg7,emg8,acc_x,acc_y,acc_z,gyro_x,gyro_y,gyro_z,angle_pitch,angle_roll,angle_yaw
127.0,127.0,126.0,127.0,127.0,126.0,112.0,128.0,-1.0,114.0,-58.0,127.0,127.0,127.0,75.0,75.0,-62.0
127.0,128.0,126.0,127.0,128.0,126.0,112.0,128.0,-1.0,114.0,-58.0,127.0,127.0,127.0,75.0,75.0,-62.0
127.0,128.0,125.0,127.0,128.0,127.0,112.0,128.0,-1.0,114.0,-58.0,127.0,127.0,127.0,75.0,75.0,-62.0
127.0,128.0,125.0,127.0,128.0,127.0,113.0,129.0,-1.0,114.0,-58.0,127.0,127.0,127.0,75.0,75.0,-62.0
127.0,126.0,127.0,127.0,127.0,126.0,110.0,127.0,-1.0,114.0,-58.0,127.0,127.0,127.0,75.0,75.0,-62.0
127.0,127.0,127.0,127.0,127.0,126.0,111.0,127.0,-1.0,114.0,-58.0,127.0,127.0,127.0,75.0,75.0,-62.0
127.0,127.0,127.0,127.0,127.0,126.0,111.0,127.0,-1.0,114.0,-58.0,127.0,127.0,127.0,75.0,75.0,-62.0
127.0,127.0,126.0,127.0,127.0,126.0,112.0,127.0,-1.0,114.0,-58.0,127.0,127.0,127.0,75.0,75.0,-62.0
127.0,127.0,126.0,127.0,127.0,126.0,111.0,127.0,-1.0,114.0,-58.0,127.0,127.0,127.0,75.0,75.0,-62.0
127.0,127.0,126.0,127.0,127.0,127.0,106.0,128.0,-1.0,114.0,-58.0,127.0,127.0,127.0,60.0,60.0,-62.0
127.0,127.0,126.0,127.0,127.0,127.0,106.0,128.0,-1.0,114.0,-58.0,127.0,127.0,127.0,60.0,60.0,-62.0
127.0,128.0,126.0,127.0,127.0,127.0,106.0,128.0,-1.0,114.0,-58.0,127.0,127.0,127.0,60.0,60.0,-62.0
127.0,128.0,126.0,127.0,127.0,127.0,107.0,129.0,-1.0,114.0,-58.0,127.0,127.0,127.0,60.0,60.0,-62.0
127.0,125.0,128.0,127.0,126.0,126.0,112.0,127.0,-1.0,114.0,-58.0,127.0,127.0,127.0,60.0,60.0,-62.0
127.0,126.0,128.0,127.0,126.0,126.0,112.0,127.0,-1.0,114.0,-58.0,127.0,127.0,127.0,60.0,60.0,-62.0
127.0,126.0,127.0,127.0,126.0,127.0,112.0,127.0,-1.0,114.0,-58.0,127.0,127.0,127.0,60.0,60.0,-62.0
127.0,126.0,127.0,127.0,127.0,127.0,113.0,128.0,-1.0,114.0,-58.0,127.0,127.0,127.0,60.0,60.0,-62.0
127.0,127.0,127.0,127.0,127.0,127.0,113.0,128.0,-1.0,114.0,-58.0,127.0,127.0,127.0,60.0,60.0,-62.0
127.0,127.0,127.0,127.0,127.0,127.0,108.0,128.0,-1.0,114.0,-58.0,127.0,127.0,127.0,60.0,60.0,-62.0
127.0,127.0,126.0,127.0,127.0,127.0,110.0,128.0,-1.0,114.0,-58.0,127.0,127.0,127.0,48.0,48.0,-62.0
127.0,128.0,125.0,127.0,128.0,127.0,107.0,128.0,-1.0,114.0,-58.0,127.0,127.0,127.0,48.0,48.0,-62.0
127.0,128.0,125.0,127.0,128.0,127.0,106.0,129.0,-1.0,114.0,-58.0,127.0,127.0,127.0,48.0,48.0,-62.0
127.0,126.0,128.0,127.0,126.0,126.0,112.0,127.0,-1.0,114.0,-58.0,127.0,127.0,127.0,48.0,48.0,-62.0
127.0,126.0,127.0,127.0,126.0,126.0,111.0,127.0,-1.0,114.0,-58.0,127.0,127.0,127.0,48.0,48.0,-62.0
127.0,126.0,127.0,127.0,126.0,126.0,112.0,127.0,-1.0,114.0,-58.0,127.0,127.0,127.0,48.0,48.0,-62.0
127.0,126.0,127.0,127.0,127.0,127.0,112.0,128.0,-1.0,114.0,-58.0,127.0,127.0,127.0,48.0,48.0,-62.0
127.0,127.0,127.0,127.0,127.0,127.0,112.0,128.0,-1.0,114.0,-58.0,127.0,127.0,127.0,48.0,48.0,-62.0
127.0,127.0,126.0,127.0,127.0,127.0,113.0,128.0,-1.0,114.0,-58.0,127.0,127.0,127.0,48.0,48.0,-62.0
127.0,127.0,126.0,127.0,127.0,127.0,113.0,128.0,-1.0,114.0,-58.0,127.0,127.0,127.0,48.0,48.0,-62.0
126.0,128.0,125.0,127.0,128.0,127.0,113.0,128.0,-1.0,114.0,-58.0,127.0,127.0,127.0,39.0,39.0,-62.0
126.0,128.0,125.0,127.0,128.0,127.0,114.0,128.0,-1.0,114.0,-58.0,127.0,127.0,127.0,39.0,39.0,-62.0
126.0,125.0,128.0,127.0,126.0,126.0,112.0,127.0,-1.0,114.0,-58.0,127.0,127.0,127.0,39.0,39.0,-62.0
126.0,126.0,127.0,127.0,126.0,126.0,112.0,127.0,-1.0,114.0,-58.0,127.0,127.0,127.0,39.0,39.0,-62.0
127.0,126.0,127.0,127.0,127.0,126.0,112.0,127.0,-1.0,114.0,-58.0,127.0,127.0,127.0,39.0,39.0,-62.0
127.0,127.0,127.0,127.0,127.0,126.0,112.0,127.0,-1.0,114.0,-58.0,127.0,127.0,127.0,39.0,39.0,-62.0
127.0,127.0,126.0,127.0,127.0,127.0,112.0,127.0,-1.0,114.0,-58.0,127.0,127.0,127.0,39.0,39.0,-62.0
126.0,127.0,126.0,127.0,127.0,127.0,112.0,127.0,-1.0,114.0,-58.0,127.0,127.0,127.0,39.0,39.0,-62.0
126.0,127.0,126.0,127.0,127.0,127.0,112.0,128.0,-1.0,114.0,-58.0,127.0,127.0,127.0,39.0,39.0,-62.0
126.0,127.0,125.0,127.0,127.0,127.0,113.0,128.0,-1.0,114.0,-58.0,127.0,127.0,127.0,39.0,39.0,-62.0
127.0,127.0,124.0,127.0,128.0,127.0,106.0,128.0,-1.0,114.0,-58.0,127.0,127.0,127.0,32.0,32.0,-62.0
126.0,126.0,127.0,127.0,126.0,126.0,111.0,126.0,-1.0,114.0,-58.0,127.0,127.0,127.0,32.0,32.0,-62.0
126.0,126.0,126.0,127.0,126.0,126.0,111.0,127.0,-1.0,114.0,-58.0,127.0,127.0,127.0,32.0,32.0,-62.0
127.0,126.0,126.0,127.0,127.0,126.0,112.0,127.0,-1.0,114.0,-58.0,127.0,127.0,127.0,32.0,32.0,-62.0
126.0,126.0,126.0,127.0,127.0,126.0,112.0,127.0,-1.0,114.0,-58.0,127.0,127.0,127.0,32.0,32.0,-62.0
126.0,127.0,125.0,127.0,127.0,127.0,112.0,127.0,-1.0,114.0,-58.0,127.0,127.0,127.0,32.0,32.0,-62.0
126.0,127.0,125.0,127.0,127.0,127.0,112.0,127.0,-1.0,114.0,-58.0,127.0,127.0,127.0,32.0,32.0,-62.0
126.0,127.0,125.0,127.0,128.0,127.0,112.0,128.0,-1.0,114.0,-58.0,127.0,127.0,127.0,32.0,32.0,-62.0
127.0,127.0,125.0,127.0,128.0,127.0,112.0,128.0,-1.0,114.0,-58.0,127.0,127.0,127.0,32.0,32.0,-62.0
127.0,127.0,124.0,127.0,128.0,127.0,109.0,128.0,-1.0,114.0,-58.0,127.0,127.0,127.0,32.0,32.0,-62.0
127.0,126.0,127.0,127.0,126.0,126.0,111.0,126.0,-1.0,114.0,-58.0,127.0,127.0,127.0,26.0,26.0,-62.0
127.0,126.0,127.0,127.0,127.0,126.0,111.0,127.0,-1.0,114.0,-58.0,127.0,127.0,127.0,26.0,26.0,-62.0
127.0,126.0,127.0,127.0,127.0,126.0,112.0,127.0,-1.0,114.0,-58.0,127.0,127.0,127.0,26.0,26.0,-62.0
127.0,127.0,127.0,127.0,127.0,126.0,112.0,127.0,-1.0,114.0,-58.0,127.0,127.0,127.0,26.0,26.0,-62.0
127.0,127.0,126.0,127.0,127.0,126.0,112.0,127.0,-1.0,114.0,-58.0,127.0,127.0,127.0,26.0,26.0,-62.0
127.0,127.0,126.0,127.0,127.0,126.0,112.0,127.0,-1.0,114.0,-58.0,127.0,127.0,127.0,26.0,26.0,-62.0
127.0,128.0,126.0,127.0,127.0,127.0,112.0,128.0,-1.0,114.0,-58.0,127.0,127.0,127.0,26.0,26.0,-62.0
126.0,127.0,125.0,127.0,128.0,127.0,112.0,128.0,-1.0,114.0,-58.0,127.0,127.0,127.0,26.0,26.0,-62.0
126.0,128.0,125.0,127.0,128.0,127.0,113.0,128.0,-1.0,114.0,-58.0,127.0,127.0,127.0,26.0,26.0,-62.0
126.0,128.0,125.0,127.0,128.0,127.0,113.0,128.0,-1.0,114.0,-58.0,127.0,127.0,127.0,26.0,26.0,-62.0
127.0,126.0,127.0,127.0,126.0,126.0,112.0,127.0,-1.0,114.0,-58.0,127.0,127.0,127.0,21.0,21.0,-62.0
127.0,126.0,127.0,127.0,126.0,126.0,112.0,127.0,-1.0,114.0,-58.0,127.0,127.0,127.0,21.0,21.0,-62.0
127.0,126.0,127.0,127.0,127.0,126.0,112.0,127.0,-1.0,114.0,-58.0,127.0,127.0,127.0,21.0,21.0,-62.0
127.0,127.0,127.0,127.0,127.0,127.0,112.0,127.0,-1.0,114.0,-58.0,127.0,127.0,127.0,21.0,21.0,-62.0
127.0,127.0,126.0,127.0,127.0,127.0,112.0,127.0,-1.0,114.0,-58.0,127.0,127.0,127.0,21.0,21.0,-62.0
127.0,127.0,126.0,127.0,127.0,127.0,113.0,128.0,-1.0,114.0,-58.0,127.0,127.0,127.0,21.0,21.0,-62.0
127.0,127.0,126.0,127.0,127.0,127.0,110.0,128.0,-1.0,114.0,-58.0,127.0,127.0,127.0,21.0,21.0,-62.0
127.0,127.0,125.0,127.0,128.0,127.0,106.0,128.0,-1.0,114.0,-58.0,127.0,127.0,127.0,21.0,21.0,-62.0
127.0,128.0,125.0,127.0,128.0,127.0,106.0,128.0,-1.0,114.0,-58.0,127.0,127.0,127.0,21.0,21.0,-62.0
127.0,126.0,128.0,127.0,126.0,126.0,112.0,126.0,-1.0,114.0,-58.0,127.0,127.0,127.0,21.0,21.0,-62.0
127.0,126.0,128.0,127.0,126.0,126.0,113.0,127.0,-1.0,114.0,-58.0,127.0,127.0,127.0,17.0,17.0,-62.0
127.0,126.0,127.0,127.0,127.0,127.0,112.0,127.0,-1.0,114.0,-58.0,127.0,127.0,127.0,17.0,17.0,-62.0
127.0,126.0,127.0,127.0,127.0,127.0,112.0,128.0,-1.0,114.0,-58.0,127.0,127.0,127.0,17.0,17.0,-62.0
126.0,127.0,127.0,127.0,127.0,127.0,112.0,128.0,-1.0,114.0,-58.0,127.0,127.0,127.0,17.0,17.0,-62.0
126.0,127.0,126.0,127.0,127.0,127.0,112.0,128.0,-1.0,114.0,-58.0,127.0,127.0,127.0,17.0,17.0,-62.0
126.0,127.0,126.0,127.0,127.0,127.0,113.0,128.0,-1.0,114.0,-58.0,127.0,127.0,127.0,17.0,17.0,-62.0
126.0,127.0,126.0,127.0,127.0,127.0,111.0,128.0,-1.0,114.0,-58.0,127.0,127.0,127.0,17.0,17.0,-62.0
126.0,127.0,126.0,127.0,127.0,127.0,107.0,129.0,-1.0,114.0,-58.0,127.0,127.0,127.0,17.0,17.0,-62.0
127.0,125.0,128.0,127.0,126.0,126.0,111.0,127.0,-1.0,114.0,-58.0,127.0,127.0,127.0,17.0,17.0,-62.0
127.0,125.0,128.0,127.0,126.0,126.0,112.0,127.0,-1.0,114.0,-58.0,127.0,127.0,127.0,17.0,17.0,-62.0
126.0,127.0,127.0,127.0,127.0,126.0,111.0,127.0,-1.0,114.0,-58.0,127.0,127.0,127.0,15.0,15.0,-62.0
127.0,127.0,127.0,127.0,127.0,126.0,112.0,127.0,-1.0,114.0,-58.0,127.0,127.0,127.0,15.0,15.0,-62.0
127.0,127.0,126.0,127.0,127.0,126.0,112.0,127.0,-1.0,114.0,-58.0,127.0,127.0,127.0,15.0,15.0,-62.0
127.0,128.0,126.0,127.0,127.0,126.0,112.0,128.0,-1.0,114.0,-58.0,127.0,127.0,127.0,15.0,15.0,-62.0
127.0,128.0,126.0,127.0,127.0,126.0,113.0,128.0,-1.0,114.0,-58.0,127.0,127.0,127.0,15.0,15.0,-62.0
127.0,128.0,126.0,127.0,127.0,127.0,112.0,128.0,-1.0,114.0,-58.0,127.0,127.0,127.0,15.0,15.0,-62.0
127.0,128.0,125.0,127.0,127.0,127.0,112.0,128.0,-1.0,114.0,-58.0,127.0,127.0,127.0,15.0,15.0,-62.0
126.0,126.0,128.0,127.0,126.0,126.0,111.0,127.0,-1.0,114.0,-58.0,127.0,127.0,127.0,15.0,15.0,-62.0
126.0,126.0,128.0,127.0,126.0,126.0,112.0,127.0,-1.0,114.0,-58.0,127.0,127.0,127.0,15.0,15.0,-62.0
126.0,126.0,127.0,127.0,126.0,126.0,112.0,127.0,-1.0,114.0,-58.0,127.0,127.0,127.0,15.0,15.0,-62.0
127.0,126.0,127.0,127.0,127.0,127.0,112.0,127.0,-1.0,114.0,-59.0,127.0,127.0,127.0,12.0,12.0,-62.0
127.0,126.0,127.0,127.0,127.0,127.0,112.0,128.0,-1.0,114.0,-59.0,127.0,127.0,127.0,12.0,12.0,-62.0
127.0,127.0,127.0,127.0,127.0,127.0,112.0,128.0,-1.0,114.0,-59.0,127.0,127.0,127.0,12.0,12.0,-62.0
127.0,127.0,127.0,127.0,127.0,127.0,112.0,128.0,-1.0,114.0,-59.0,127.0,127.0,127.0,12.0,12.0,-62.0
126.0,127.0,126.0,127.0,127.0,127.0,110.0,128.0,-1.0,114.0,-59.0,127.0,127.0,127.0,12.0,12.0,-62.0
126.0,127.0,126.0,127.0,127.0,127.0,107.0,128.0,-1.0,114.0,-59.0,127.0,127.0,127.0,12.0,12.0,-62.0
127.0,125.0,128.0,127.0,126.0,126.0,111.0,127.0,-1.0,114.0,-59.0,127.0,127.0,127.0,12.0,12.0,-62.0
127.0,126.0,128.0,127.0,126.0,126.0,112.0,127.0,-1.0,114.0,-59.0,127.0,127.0,127.0,12.0,12.0,-62.0
127.0,126.0,128.0,127.0,126.0,126.0,111.0,127.0,-1.0,114.0,-59.0,127.0,127.0,127.0,12.0,12.0,-62.0
127.0,126.0,128.0,127.0,127.0,126.0,112.0,127.0,-1.0,114.0,-59.0,127.0,127.0,127.0,12.0,12.0,-62.0
127.0,127.0,127.0,127.0,127.0,127.0,112.0,128.0,-1.0,114.0,-59.0,127.0,127.0,127.0,60.0,60.0,-62.0
127.0,127.0,127.0,127.0,127.0,127.0,112.0,128.0,-1.0,114.0,-59.0,127.0,127.0,127.0,60.0,60.0,-62.0
127.0,127.0,126.0,127.0,127.0,127.0,113.0,128.0,-1.0,114.0,-59.0,127.0,127.0,127.0,60.0,60.0,-62.0
127.0,127.0,126.0,127.0,127.0,127.0,113.0,128.0,-1.0,114.0,-59.0,127.0,127.0,127.0,60.0,60.0,-62.0
127.0,127.0,126.0,127.0,127.0,127.0,112.0,128.0,-1.0,114.0,-59.0,127.0,127.0,127.0,60.0,60.0,-62.0
126.0,126.0,128.0,127.0,126.0,126.0,112.0,127.0,-1.0,114.0,-59.0,127.0,127.0,127.0,60.0,60.0,-62.0
127.0,126.0,128.0,127.0,127.0,126.0,111.0,127.0,-1.0,114.0,-59.0,127.0,127.0,127.0,60.0,60.0,-62.0
127.0,126.0,128.0,127.0,127.0,126.0,111.0,127.0,-1.0,114.0,-59.0,127.0,127.0,127.0,60.0,60.0,-62.0
127.0,126.0,127.0,127.0,127.0,126.0,112.0,127.0,-1.0,114.0,-59.0,127.0,127.0,127.0,60.0,60.0,-62.0
127.0,126.0,127.0,127.0,127.0,126.0,113.0,127.0,-1.0,114.0,-59.0,127.0,127.0,127.0,60.0,60.0,-62.0
127.0,127.0,126.0,127.0,127.0,126.0,112.0,127.0,-1.0,114.0,-59.0,127.0,127.0,127.0,48.0,48.0,-62.0
127.0,127.0,126.0,127.0,127.0,126.0,112.0,127.0,-1.0,114.0,-59.0,127.0,127.0,127.0,48.0,48.0,-62.0
126.0,127.0,126.0,127.0,127.0,126.0,112.0,128.0,-1.0,114.0,-59.0,127.0,127.0,127.0,48.0,48.0,-62.0
126.0,127.0,126.0,127.0,127.0,126.0,113.0,128.0,-1.0,114.0,-59.0,127.0,127.0,127.0,48.0,48.0,-62.0
127.0,125.0,128.0,127.0,126.0,125.0,110.0,126.0,-1.0,114.0,-59.0,127.0,127.0,127.0,48.0,48.0,-62.0
127.0,126.0,128.0,127.0,126.0,125.0,110.0,126.0,-1.0,114.0,-59.0,127.0,127.0,127.0,48.0,48.0,-62.0
127.0,126.0,127.0,127.0,126.0,126.0,110.0,126.0,-1.0,114.0,-59.0,127.0,127.0,127.0,48.0,48.0,-62.0
127.0,126.0,127.0,127.0,127.0,126.0,111.0,127.0,-1.0,114.0,-59.0,127.0,127.0,127.0,48.0,48.0,-62.0
127.0,126.0,127.0,127.0,127.0,126.0,111.0,127.0,-1.0,114.0,-59.0,127.0,127.0,127.0,48.0,48.0,-62.0
127.0,126.0,127.0,127.0,127.0,126.0,111.0,127.0,-1.0,114.0,-59.0,127.0,127.0,127.0,48.0,48.0,-62.0
126.0,127.0,126.0,127.0,127.0,127.0,113.0,128.0,-1.0,114.0,-59.0,127.0,127.0,127.0,39.0,39.0,-62.0
126.0,127.0,126.0,127.0,127.0,127.0,113.0,128.0,-1.0,114.0,-59.0,127.0,127.0,127.0,39.0,39.0,-62.0
127.0,127.0,126.0,127.0,127.0,127.0,110.0,129.0,-1.0,114.0,-59.0,127.0,127.0,127.0,39.0,39.0,-62.0
126.0,125.0,128.0,127.0,126.0,126.0,111.0,127.0,-1.0,114.0,-59.0,127.0,127.0,127.0,39.0,39.0,-62.0
126.0,125.0,128.0,127.0,126.0,126.0,111.0,127.0,-1.0,114.0,-59.0,127.0,127.0,127.0,39.0,39.0,-62.0
126.0,126.0,128.0,127.0,126.0,126.0,112.0,127.0,-1.0,114.0,-59.0,127.0,127.0,127.0,39.0,39.0,-62.0
126.0,126.0,127.0,127.0,126.0,126.0,112.0,127.0,-1.0,114.0,-59.0,127.0,127.0,127.0,39.0,39.0,-62.0
126.0,127.0,127.0,127.0,126.0,126.0,112.0,127.0,-1.0,114.0,-59.0,127.0,127.0,127.0,39.0,39.0,-62.0
126.0,127.0,127.0,127.0,127.0,126.0,112.0,128.0,-1.0,114.0,-59.0,127.0,127.0,127.0,39.0,39.0,-62.0
126.0,127.0,127.0,127.0,127.0,127.0,112.0,128.0,-1.0,114.0,-59.0,127.0,127.0,127.0,39.0,39.0,-62.0
127.0,127.0,126.0,127.0,127.0,127.0,113.0,128.0,-1.0,114.0,-59.0,127.0,127.0,127.0,32.0,32.0,-62.0
127.0,127.0,126.0,127.0,127.0,127.0,112.0,128.0,-1.0,114.0,-59.0,127.0,127.0,127.0,32.0,32.0,-62.0
127.0,125.0,128.0,127.0,126.0,126.0,111.0,126.0,-1.0,114.0,-59.0,127.0,127.0,127.0,32.0,32.0,-62.0
127.0,125.0,128.0,127.0,126.0,126.0,111.0,126.0,-1.0,114.0,-59.0,127.0,127.0,127.0,32.0,32.0,-62.0
127.0,126.0,128.0,127.0,126.0,126.0,112.0,127.0,-1.0,114.0,-59.0,127.0,127.0,127.0,32.0,32.0,-62.0
127.0,126.0,128.0,127.0,126.0,126.0,111.0,127.0,-1.0,114.0,-59.0,127.0,127.0,127.0,32.0,32.0,-62.0
127.0,126.0,127.0,127.0,126.0,126.0,112.0,127.0,-1.0,114.0,-59.0,127.0,127.0,127.0,32.0,32.0,-62.0
127.0,126.0,127.0,127.0,127.0,127.0,112.0,127.0,-1.0,114.0,-59.0,127.0,127.0,127.0,32.0,32.0,-62.0
127.0,126.0,127.0,127.0,127.0,127.0,112.0,127.0,-1.0,114.0,-59.0,127.0,127.0,127.0,32.0,32.0,-62.0
127.0,127.0,127.0,127.0,127.0,127.0,112.0,128.0,-1.0,114.0,-59.0,127.0,127.0,127.0,32.0,32.0,-62.0
127.0,127.0,126.0,127.0,127.0,127.0,113.0,128.0,-1.0,114.0,-59.0,127.0,127.0,127.0,26.0,26.0,-62.0
126.0,125.0,128.0,127.0,126.0,126.0,111.0,127.0,-1.0,114.0,-59.0,127.0,127.0,127.0,26.0,26.0,-62.0
126.0,125.0,128.0,127.0,126.0,126.0,111.0,127.0,-1.0,114.0,-59.0,127.0,127.0,127.0,26.0,26.0,-62.0
126.0,125.0,128.0,127.0,126.0,126.0,112.0,127.0,-1.0,114.0,-59.0,127.0,127.0,127.0,26.0,26.0,-62.0
126.0,125.0,128.0,127.0,126.0,126.0,111.0,127.0,-1.0,114.0,-59.0,127.0,127.0,127.0,26.0,26.0,-62.0
126.0,126.0,127.0,127.0,127.0,126.0,112.0,127.0,-1.0,114.0,-59.0,127.0,127.0,127.0,26.0,26.0,-62.0
127.0,126.0,127.0,127.0,127.0,126.0,112.0,128.0,-1.0,114.0,-59.0,127.0,127.0,127.0,26.0,26.0,-62.0
126.0,126.0,127.0,127.0,127.0,126.0,112.0,128.0,-1.0,114.0,-59.0,127.0,127.0,127.0,26.0,26.0,-62.0
127.0,127.0,126.0,127.0,127.0,127.0,112.0,128.0,-1.0,114.0,-59.0,127.0,127.0,127.0,26.0,26.0,-62.0
127.0,127.0,126.0,127.0,127.0,127.0,112.0,128.0,-1.0,114.0,-59.0,127.0,127.0,127.0,26.0,26.0,-62.0
127.0,125.0,129.0,127.0,126.0,126.0,111.0,127.0,-1.0,114.0,-59.0,127.0,127.0,127.0,21.0,21.0,-62.0
127.0,125.0,129.0,127.0,126.0,126.0,111.0,127.0,-1.0,114.0,-59.0,127.0,127.0,127.0,21.0,21.0,-62.0
127.0,125.0,128.0,127.0,126.0,126.0,111.0,127.0,-1.0,114.0,-59.0,127.0,127.0,127.0,21.0,21.0,-62.0
126.0,125.0,128.0,127.0,126.0,126.0,112.0,127.0,-1.0,114.0,-59.0,127.0,127.0,127.0,21.0,21.0,-62.0
127.0,126.0,128.0,127.0,126.0,126.0,111.0,127.0,-1.0,114.0,-59.0,127.0,127.0,127.0,21.0,21.0,-62.0
127.0,126.0,128.0,127.0,126.0,126.0,112.0,128.0,-1.0,114.0,-59.0,127.0,127.0,127.0,21.0,21.0,-62.0
127.0,126.0,127.0,127.0,126.0,126.0,112.0,128.0,-1.0,114.0,-59.0,127.0,127.0,127.0,21.0,21.0,-62.0
126.0,127.0,127.0,127.0,127.0,126.0,112.0,128.0,-1.0,114.0,-59.0,127.0,127.0,127.0,21.0,21.0,-62.0
126.0,127.0,127.0,127.0,127.0,127.0,112.0,128.0,-1.0,114.0,-59.0,127.0,127.0,127.0,21.0,21.0,-62.0
126.0,127.0,126.0,127.0,127.0,127.0,112.0,128.0,-1.0,114.0,-59.0,127.0,127.0,127.0,21.0,21.0,-62.0
126.0,125.0,128.0,127.0,125.0,126.0,112.0,127.0,-1.0,114.0,-59.0,127.0,127.0,127.0,17.0,17.0,-62.0
126.0,125.0,128.0,127.0,126.0,126.0,111.0,127.0,-1.0,114.0,-59.0,127.0,127.0,127.0,17.0,17.0,-62.0
126.0,126.0,128.0,127.0,126.0,126.0,111.0,127.0,-1.0,114.0,-59.0,127.0,127.0,127.0,17.0,17.0,-62.0
126.0,126.0,127.0,127.0,126.0,126.0,112.0,127.0,-1.0,114.0,-59.0,127.0,127.0,127.0,17.0,17.0,-62.0
126.0,126.0,127.0,127.0,126.0,126.0,112.0,128.0,-1.0,114.0,-59.0,127.0,127.0,127.0,17.0,17.0,-62.0
126.0,126.0,127.0,127.0,126.0,127.0,112.0,128.0,-1.0,114.0,-59.0,127.0,127.0,127.0,17.0,17.0,-62.0
126.0,127.0,126.0,127.0,126.0,127.0,112.0,128.0,-1.0,114.0,-59.0,127.0,127.0,127.0,17.0,17.0,-62.0
126.0,127.0,126.0,127.0,127.0,127.0,113.0,128.0,-1.0,114.0,-59.0,127.0,127.0,127.0,17.0,17.0,-62.0
126.0,127.0,126.0,127.0,127.0,127.0,113.0,128.0,-1.0,114.0,-59.0,127.0,127.0,127.0,17.0,17.0,-62.0
126.0,125.0,128.0,127.0,125.0,126.0,112.0,127.0,-1.0,114.0,-59.0,127.0,127.0,127.0,17.0,17.0,-62.0
127.0,126.0,127.0,127.0,126.0,126.0,111.0,127.0,-1.0,114.0,-59.0,127.0,127.0,127.0,15.0,15.0,-62.0
127.0,126.0,127.0,127.0,126.0,126.0,111.0,127.0,-1.0,114.0,-59.0,127.0,127.0,127.0,15.0,15.0,-62.0
127.0,126.0,127.0,127.0,126.0,126.0,111.0,127.0,-1.0,114.0,-59.0,127.0,127.0,127.0,15.0,15.0,-62.0
127.0,126.0,127.0,127.0,127.0,126.0,112.0,127.0,-1.0,114.0,-59.0,127.0,127.0,127.0,15.0,15.0,-62.0
127.0,127.0,126.0,127.0,127.0,126.0,111.0,128.0,-1.0,114.0,-59.0,127.0,127.0,127.0,15.0,15.0,-62.0
126.0,127.0,126.0,127.0,127.0,126.0,112.0,128.0,-1.0,114.0,-59.0,127.0,127.0,127.0,15.0,15.0,-62.0
126.0,127.0,126.0,127.0,127.0,126.0,112.0,128.0,-1.0,114.0,-59.0,127.0,127.0,127.0,15.0,15.0,-62.0
126.0,127.0,126.0,127.0,127.0,127.0,112.0,128.0,-1.0,114.0,-59.0,127.0,127.0,127.0,15.0,15.0,-62.0
127.0,125.0,128.0,127.0,126.0,126.0,111.0,127.0,-1.0,114.0,-59.0,127.0,127.0,127.0,15.0,15.0,-62.0
127.0,125.0,128.0,127.0,126.0,126.0,111.0,127.0,-1.0,114.0,-59.0,127.0,127.0,127.0,15.0,15.0,-62.0
126.0,125.0,128.0,127.0,126.0,126.0,112.0,127.0,-1.0,114.0,-59.0,127.0,127.0,127.0,12.0,12.0,-62.0
127.0,126.0,128.0,127.0,126.0,126.0,112.0,127.0,-1.0,114.0,-59.0,127.0,127.0,127.0,12.0,12.0,-62.0
127.0,126.0,128.0,127.0,126.0,127.0,112.0,128.0,-1.0,114.0,-59.0,127.0,127.0,127.0,12.0,12.0,-62.0
127.0,126.0,127.0,127.0,127.0,127.0,112.0,128.0,-1.0,114.0,-59.0,127.0,127.0,127.0,12.0,12.0,-62.0
127.0,127.0,127.0,127.0,127.0,127.0,112.0,128.0,-1.0,114.0,-59.0,127.0,127.0,127.0,12.0,12.0,-62.0
127.0,127.0,127.0,127.0,127.0,127.0,113.0,128.0,-1.0,114.0,-59.0,127.0,127.0,127.0,12.0,12.0,-62.0
127.0,127.0,127.0,127.0,127.0,127.0,110.0,128.0,-1.0,114.0,-59.0,127.0,127.0,127.0,12.0,12.0,-62.0
126.0,125.0,129.0,127.0,125.0,126.0,112.0,127.0,-1.0,114.0,-59.0,127.0,127.0,127.0,12.0,12.0,-62.0
126.0,125.0,129.0,127.0,126.0,126.0,112.0,127.0,-1.0,114.0,-59.0,127.0,127.0,127.0,12.0,12.0,-62.0
126.0,125.0,129.0,127.0,126.0,126.0,111.0,127.0,-1.0,114.0,-59.0,127.0,127.0,127.0,12.0,12.0,-62.0
127.0,126.0,127.0,127.0,126.0,126.0,112.0,127.0,-1.0,114.0,-59.0,127.0,127.0,127.0,10.0,10.0,-62.0
127.0,126.0,127.0,127.0,127.0,126.0,111.0,127.0,-1.0,114.0,-59.0,127.0,127.0,127.0,10.0,10.0,-62.0
127.0,127.0,127.0,127.0,127.0,126.0,112.0,128.0,-1.0,114.0,-59.0,127.0,127.0,127.0,10.0,10.0,-62.0
127.0,127.0,126.0,127.0,127.0,126.0,112.0,128.0,-1.0,114.0,-59.0,127.0,127.0,127.0,10.0,10.0,-62.0
126.0,127.0,126.0,127.0,127.0,127.0,112.0,128.0,-1.0,114.0,-59.0,127.0,127.0,127.0,10.0,10.0,-62.0
126.0,127.0,126.0,127.0,127.0,127.0,113.0,128.0,-1.0,114.0,-59.0,127.0,127.0,127.0,10.0,10.0,-62.0
127.0,126.0,128.0,127.0,126.0,125.0,110.0,126.0,-1.0,114.0,-59.0,127.0,127.0,127.0,10.0,10.0,-62.0
127.0,126.0,128.0,127.0,126.0,125.0,111.0,127.0,-1.0,114.0,-59.0,127.0,127.0,127.0,10.0,10.0,-62.0
127.0,126.0,128.0,127.0,126.0,126.0,110.0,127.0,-1.0,114.0,-59.0,127.0,127.0,127.0,10.0,10.0,-62.0
127.0,126.0,128.0,127.0,126.0,126.0,111.0,127.0,-1.0,114.0,-59.0,127.0,127.0,127.0,10.0,10.0,-62.0
127.0,126.0,128.0,127.0,126.0,126.0,112.0,127.0,-1.0,114.0,-59.0,127.0,127.0,127.0,8.0,8.0,-62.0
127.0,126.0,127.0,127.0,127.0,126.0,112.0,128.0,-1.0,114.0,-59.0,127.0,127.0,127.0,8.0,8.0,-62.0
127.0,126.0,127.0,127.0,127.0,127.0,112.0,128.0,-1.0,114.0,-59.0,127.0,127.0,127.0,8.0,8.0,-62.0
127.0,126.0,127.0,127.0,127.0,127.0,112.0,128.0,-1.0,114.0,-59.0,127.0,127.0,127.0,8.0,8.0,-62.0
127.0,127.0,127.0,127.0,127.0,127.0,111.0,128.0,-1.0,114.0,-59.0,127.0,127.0,127.0,8.0,8.0,-62.0
126.0,125.0,129.0,127.0,126.0,126.0,111.0,127.0,-1.0,114.0,-59.0,127.0,127.0,127.0,8.0,8.0,-62.0
126.0,125.0,128.0,127.0,126.0,126.0,111.0,127.0,-1.0,114.0,-59.0,127.0,127.0,127.0,8.0,8.0,-62.0
126.0,125.0,128.0,127.0,126.0,126.0,111.0,127.0,-1.0,114.0,-59.0,127.0,127.0,127.0,8.0,8.0,-62.0
126.0,125.0,128.0,127.0,126.0,126.0,112.0,127.0,-1.0,114.0,-59.0,127.0,127.0,127.0,8.0,8.0,-62.0
126.0,126.0,128.0,127.0,126.0,126.0,111.0,127.0,-1.0,114.0,-59.0,127.0,127.0,127.0,8.0,8.0,-62.0
127.0,126.0,127.0,127.0,127.0,127.0,112.0,128.0,-1.0,114.0,-59.0,127.0,127.0,127.0,7.0,7.0,-62.0
127.0,127.0,127.0,127.0,127.0,127.0,112.0,128.0,-1.0,114.0,-59.0,127.0,127.0,127.0,7.0,7.0,-62.0
126.0,127.0,126.0,127.0,127.0,127.0,113.0,129.0,-1.0,114.0,-59.0,127.0,127.0,127.0,7.0,7.0,-62.0
126.0,127.0,126.0,127.0,127.0,127.0,113.0,129.0,-1.0,114.0,-59.0,127.0,127.0,127.0,7.0,7.0,-62.0
127.0,125.0,129.0,127.0,126.0,126.0,111.0,127.0,-1.0,114.0,-59.0,127.0,127.0,127.0,7.0,7.0,-62.0
126.0,125.0,129.0,127.0,126.0,126.0,111.0,127.0,-1.0,114.0,-59.0,127.0,127.0,127.0,7.0,7.0,-62.0
127.0,126.0,128.0,127.0,126.0,126.0,112.0,127.0,-1.0,114.0,-59.0,127.0,127.0,127.0,7.0,7.0,-62.0
127.0,126.0,128.0,127.0,126.0,126.0,112.0,128.0,-1.0,114.0,-59.0,127.0,127.0,127.0,7.0,7.0,-62.0
127.0,126.0,128.0,127.0,126.0,126.0,112.0,128.0,-1.0,114.0,-59.0,127.0,127.0,127.0,7.0,7.0,-62.0
127.0,126.0,127.0,127.0,127.0,126.0,112.0,128.0,-1.0,114.0,-59.0,127.0,127.0,127.0,7.0,7.0,-62.0
126.0,126.0,127.0,127.0,127.0,126.0,111.0,128.0,-1.0,114.0,-59.0,127.0,127.0,127.0,6.0,6.0,-62.0
126.0,126.0,126.0,127.0,127.0,126.0,111.0,128.0,-1.0,114.0,-59.0,127.0,127.0,127.0,6.0,6.0,-62.0
126.0,126.0,126.0,127.0,127.0,126.0,112.0,128.0,-1.0,114.0,-59.0,127.0,127.0,127.0,6.0,6.0,-62.0
126.0,125.0,128.0,127.0,126.0,125.0,110.0,127.0,-1.0,114.0,-59.0,127.0,127.0,127.0,6.0,6.0,-62.0
126.0,125.0,128.0,127.0,126.0,125.0,110.0,127.0,-1.0,114.0,-59.0,127.0,127.0,127.0,6.0,6.0,-62.0
126.0,125.0,128.0,127.0,126.0,125.0,110.0,127.0,-1.0,114.0,-59.0,127.0,127.0,127.0,6.0,6.0,-62.0
126.0,125.0,128.0,127.0,126.0,125.0,110.0,127.0,-1.0,114.0,-59.0,127.0,127.0,127.0,6.0,6.0,-62.0
126.0,126.0,127.0,127.0,126.0,125.0,111.0,127.0,-1.0,114.0,-59.0,127.0,127.0,127.0,6.0,6.0,-62.0
126.0,126.0,127.0,127.0,126.0,126.0,111.0,127.0,-1.0,114.0,-59.0,127.0,127.0,127.0,6.0,6.0,-62.0
126.0,126.0,127.0,127.0,126.0,126.0,111.0,128.0,-1.0,114.0,-59.0,127.0,127.0,127.0,6.0,6.0,-62.0
127.0,127.0,126.0,127.0,127.0,126.0,111.0,128.0,-1.0,114.0,-59.0,127.0,127.0,127.0,5.0,5.0,-62.0
127.0,127.0,126.0,127.0,127.0,126.0,112.0,128.0,-1.0,114.0,-59.0,127.0,127.0,127.0,5.0,5.0,-62.0
127.0,125.0,128.0,127.0,125.0,125.0,111.0,127.0,-1.0,114.0,-59.0,127.0,127.0,127.0,5.0,5.0,-62.0
127.0,125.0,128.0,127.0,125.0,125.0,111.0,127.0,-1.0,114.0,-59.0,127.0,127.0,127.0,5.0,5.0,-62.0
127.0,125.0,128.0,127.0,126.0,125.0,110.0,127.0,-1.0,114.0,-59.0,127.0,127.0,127.0,5.0,5.0,-62.0
127.0,126.0,127.0,127.0,126.0,125.0,111.0,127.0,-1.0,114.0,-59.0,127.0,127.0,127.0,5.0,5.0,-62.0
127.0,126.0,127.0,127.0,126.0,126.0,111.0,127.0,-1.0,114.0,-59.0,127.0,127.0,127.0,5.0,5.0,-62.0
127.0,126.0,127.0,127.0,126.0,125.0,111.0,127.0,-1.0,114.0,-59.0,127.0,127.0,127.0,5.0,5.0,-62.0
127.0,127.0,126.0,127.0,126.0,126.0,110.0,127.0,-1.0,114.0,-59.0,127.0,127.0,127.0,5.0,5.0,-62.0
127.0,127.0,126.0,127.0,127.0,126.0,111.0,128.0,-1.0,114.0,-59.0,127.0,127.0,127.0,5.0,5.0,-62.0
127.0,127.0,127.0,127.0,127.0,126.0,112.0,128.0,-1.0,114.0,-59.0,127.0,127.0,127.0,5.0,5.0,-62.0
127.0,126.0,128.0,127.0,126.0,125.0,109.0,127.0,-1.0,114.0,-59.0,127.0,127.0,127.0,5.0,5.0,-62.0
127.0,126.0,128.0,127.0,126.0,125.0,110.0,127.0,-1.0,114.0,-59.0,127.0,127.0,127.0,5.0,5.0,-62.0
126.0,126.0,128.0,127.0,126.0,125.0,110.0,127.0,-1.0,114.0,-59.0,127.0,127.0,127.0,5.0,5.0,-62.0
127.0,126.0,128.0,127.0,126.0,125.0,110.0,127.0,-1.0,114.0,-59.0,127.0,127.0,127.0,5.0,5.0,-62.0
127.0,126.0,128.0,127.0,126.0,125.0,111.0,127.0,-1.0,114.0,-59.0,127.0,127.0,127.0,5.0,5.0,-62.0
127.0,126.0,128.0,127.0,127.0,126.0,111.0,127.0,-1.0,114.0,-59.0,127.0,127.0,127.0,5.0,5.0,-62.0
127.0,126.0,127.0,127.0,127.0,126.0,111.0,127.0,-1.0,114.0,-59.0,127.0,127.0,127.0,5.0,5.0,-62.0
127.0,127.0,127.0,127.0,127.0,126.0,111.0,128.0,-1.0,114.0,-59.0,127.0,127.0,127.0,5.0,5.0,-62.0
127.0,127.0,127.0,127.0,127.0,126.0,111.0,128.0,-1.0,114.0,-59.0,127.0,127.0,127.0,5.0,5.0,-62.0
126.0,125.0,130.0,127.0,123.0,125.0,109.0,127.0,-1.0,114.0,-59.0,127.0,127.0,127.0,4.0,4.0,-62.0
127.0,125.0,130.0,127.0,123.0,125.0,110.0,127.0,-1.0,114.0,-59.0,127.0,127.0,127.0,4.0,4.0,-62.0
126.0,125.0,129.0,127.0,123.0,126.0,111.0,127.0,-1.0,114.0,-59.0,127.0,127.0,127.0,4.0,4.0,-62.0
126.0,126.0,129.0,127.0,123.0,126.0,111.0,127.0,-1.0,114.0,-59.0,127.0,127.0,127.0,4.0,4.0,-62.0
126.0,126.0,129.0,127.0,123.0,126.0,112.0,127.0,-1.0,114.0,-59.0,127.0,127.0,127.0,4.0,4.0,-62.0
126.0,126.0,129.0,127.0,123.0,127.0,112.0,128.0,-1.0,114.0,-59.0,127.0,127.0,127.0,4.0,4.0,-62.0
127.0,126.0,128.0,127.0,123.0,127.0,112.0,128.0,-1.0,114.0,-59.0,127.0,127.0,127.0,4.0,4.0,-62.0
126.0,127.0,128.0,127.0,123.0,127.0,113.0,128.0,-1.0,114.0,-59.0,127.0,127.0,127.0,4.0,4.0,-62.0
126.0,127.0,128.0,127.0,123.0,127.0,113.0,128.0,-1.0,114.0,-59.0,127.0,127.0,127.0,4.0,4.0,-62.0
126.0,127.0,127.0,127.0,124.0,127.0,108.0,129.0,-1.0,114.0,-59.0,127.0,127.0,127.0,4.0,4.0,-62.0
126.0,128.0,122.0,127.0,131.0,138.0,117.0,141.0,-1.0,114.0,-58.0,127.0,127.0,127.0,3.0,3.0,-62.0
126.0,129.0,122.0,127.0,132.0,139.0,118.0,141.0,-1.0,114.0,-58.0,127.0,127.0,127.0,3.0,3.0,-62.0
126.0,129.0,122.0,127.0,132.0,140.0,120.0,142.0,-1.0,114.0,-58.0,127.0,127.0,127.0,3.0,3.0,-62.0
126.0,130.0,121.0,127.0,133.0,141.0,121.0,142.0,-1.0,114.0,-58.0,127.0,127.0,127.0,3.0,3.0,-62.0
127.0,130.0,121.0,127.0,133.0,142.0,123.0,143.0,-1.0,114.0,-58.0,127.0,127.0,127.0,3.0,3.0,-62.0
126.0,131.0,120.0,127.0,134.0,143.0,124.0,144.0,-1.0,114.0,-58.0,127.0,127.0,127.0,3.0,3.0,-62.0
126.0,131.0,119.0,127.0,134.0,143.0,120.0,144.0,-1.0,114.0,-58.0,127.0,127.0,127.0,3.0,3.0,-62.0
126.0,132.0,119.0,127.0,134.0,144.0,120.0,145.0,-1.0,114.0,-58.0,127.0,127.0,127.0,3.0,3.0,-62.0
126.0,133.0,118.0,127.0,135.0,144.0,120.0,145.0,-1.0,114.0,-58.0,127.0,127.0,127.0,3.0,3.0,-62.0
126.0,128.0,123.0,127.0,131.0,137.0,115.0,140.0,-1.0,114.0,-58.0,127.0,127.0,127.0,3.0,3.0,-62.0
127.0,123.0,103.0,127.0,138.0,137.0,116.0,139.0,-1.0,114.0,-58.0,127.0,127.0,127.0,3.0,3.0,-62.0
127.0,122.0,102.0,127.0,138.0,136.0,114.0,139.0,-1.0,114.0,-58.0,127.0,127.0,127.0,3.0,3.0,-62.0
127.0,122.0,101.0,127.0,137.0,135.0,113.0,140.0,-1.0,114.0,-58.0,127.0,127.0,127.0,3.0,3.0,-62.0
127.0,121.0,99.0,127.0,137.0,134.0,117.0,140.0,-1.0,114.0,-58.0,127.0,127.0,127.0,3.0,3.0,-62.0
126.0,121.0,98.0,127.0,137.0,134.0,118.0,140.0,-1.0,114.0,-58.0,127.0,127.0,127.0,3.0,3.0,-62.0
126.0,121.0,97.0,127.0,137.0,134.0,118.0,141.0,-1.0,114.0,-58.0,127.0,127.0,127.0,3.0,3.0,-62.0
126.0,120.0,95.0,127.0,136.0,134.0,118.0,141.0,-1.0,114.0,-58.0,127.0,127.0,127.0,3.0,3.0,-62.0
126.0,119.0,94.0,127.0,136.0,135.0,118.0,142.0,-1.0,114.0,-58.0,127.0,127.0,127.0,3.0,3.0,-62.0
127.0,124.0,105.0,127.0,139.0,139.0,120.0,137.0,-1.0,114.0,-58.0,127.0,127.0,127.0,3.0,3.0,-62.0
127.0,124.0,104.0,127.0,138.0,138.0,118.0,138.0,-1.0,114.0,-58.0,127.0,127.0,127.0,3.0,3.0,-62.0
126.0,106.0,77.0,127.0,143.0,130.0,112.0,157.0,-1.0,115.0,-57.0,126.0,127.0,127.0,3.0,3.0,-62.0
126.0,108.0,77.0,127.0,144.0,131.0,112.0,158.0,-1.0,115.0,-57.0,126.0,127.0,127.0,3.0,3.0,-62.0
127.0,109.0,77.0,127.0,144.0,131.0,112.0,158.0,-1.0,115.0,-57.0,126.0,127.0,127.0,3.0,3.0,-62.0
126.0,111.0,77.0,127.0,145.0,131.0,112.0,158.0,-1.0,115.0,-57.0,126.0,127.0,127.0,3.0,3.0,-62.0
127.0,113.0,77.0,127.0,146.0,131.0,112.0,158.0,-1.0,115.0,-57.0,126.0,127.0,127.0,3.0,3.0,-62.0
127.0,115.0,77.0,127.0,146.0,131.0,112.0,158.0,-1.0,115.0,-57.0,126.0,127.0,127.0,3.0,3.0,-62.0
127.0,117.0,78.0,127.0,147.0,131.0,113.0,157.0,-1.0,115.0,-57.0,126.0,127.0,127.0,3.0,3.0,-62.0
126.0,102.0,76.0,127.0,141.0,130.0,111.0,156.0,-1.0,115.0,-57.0,126.0,127.0,127.0,3.0,3.0,-62.0
126.0,103.0,76.0,127.0,141.0,130.0,111.0,156.0,-1.0,115.0,-57.0,126.0,127.0,127.0,3.0,3.0,-62.0
126.0,105.0,77.0,127.0,142.0,130.0,111.0,157.0,-1.0,115.0,-57.0,126.0,127.0,127.0,3.0,3.0,-62.0
127.0,155.0,124.0,127.0,134.0,132.0,114.0,156.0,-1.0,116.0,-60.0,126.0,127.0,127.0,3.0,3.0,-62.0
127.0,155.0,124.0,127.0,133.0,133.0,115.0,156.0,-1.0,116.0,-60.0,126.0,127.0,127.0,3.0,3.0,-62.0
126.0,155.0,124.0,127.0,132.0,133.0,116.0,156.0,-1.0,116.0,-60.0,126.0,127.0,127.0,3.0,3.0,-62.0
126.0,155.0,125.0,127.0,132.0,134.0,116.0,156.0,-1.0,116.0,-60.0,126.0,127.0,127.0,3.0,3.0,-62.0
126.0,154.0,125.0,127.0,131.0,134.0,117.0,156.0,-1.0,116.0,-60.0,126.0,127.0,127.0,3.0,3.0,-62.0
126.0,154.0,125.0,127.0,131.0,135.0,118.0,156.0,-1.0,116.0,-60.0,126.0,127.0,127.0,3.0,3.0,-62.0
127.0,155.0,123.0,127.0,139.0,132.0,115.0,156.0,-1.0,116.0,-60.0,126.0,127.0,127.0,3.0,3.0,-62.0
127.0,155.0,123.0,127.0,138.0,132.0,115.0,156.0,-1.0,116.0,-60.0,126.0,127.0,127.0,3.0,3.0,-62.0
127.0,155.0,124.0,127.0,136.0,132.0,114.0,156.0,-1.0,116.0,-60.0,126.0,127.0,127.0,3.0,3.0,-62.0
127.0,155.0,124.0,127.0,135.0,132.0,113.0,156.0,-1.0,116.0,-60.0,126.0,127.0,127.0,3.0,3.0,-62.0
127.0,124.0,99.0,127.0,129.0,151.0,125.0,185.0,-1.0,114.0,-61.0,126.0,127.0,127.0,3.0,3.0,-62.0
127.0,123.0,98.0,127.0,129.0,151.0,124.0,185.0,-1.0,114.0,-61.0,126.0,127.0,127.0,3.0,3.0,-62.0
127.0,123.0,97.0,127.0,130.0,151.0,125.0,185.0,-1.0,114.0,-61.0,126.0,127.0,127.0,3.0,3.0,-62.0
127.0,123.0,96.0,127.0,130.0,152.0,125.0,186.0,-1.0,114.0,-61.0,126.0,127.0,127.0,3.0,3.0,-62.0
127.0,123.0,95.0,127.0,130.0,152.0,126.0,186.0,-1.0,114.0,-61.0,126.0,127.0,127.0,3.0,3.0,-62.0
126.0,124.0,105.0,127.0,128.0,149.0,128.0,182.0,-1.0,114.0,-61.0,126.0,127.0,127.0,3.0,3.0,-62.0
127.0,124.0,104.0,127.0,128.0,150.0,130.0,183.0,-1.0,114.0,-61.0,126.0,127.0,127.0,3.0,3.0,-62.0
127.0,124.0,103.0,127.0,129.0,151.0,128.0,184.0,-1.0,114.0,-61.0,126.0,127.0,127.0,3.0,3.0,-62.0
127.0,124.0,102.0,127.0,129.0,151.0,125.0,184.0,-1.0,114.0,-61.0,126.0,127.0,127.0,3.0,3.0,-62.0
127.0,124.0,100.0,127.0,129.0,151.0,125.0,184.0,-1.0,114.0,-61.0,126.0,127.0,127.0,3.0,3.0,-62.0
127.0,141.0,150.0,127.0,123.0,127.0,112.0,125.0,-1.0,115.0,-61.0,126.0,127.0,127.0,3.0,3.0,-62.0
127.0,142.0,151.0,127.0,123.0,126.0,112.0,124.0,-1.0,115.0,-61.0,126.0,127.0,127.0,3.0,3.0,-62.0
127.0,143.0,152.0,127.0,123.0,125.0,111.0,123.0,-1.0,115.0,-61.0,126.0,127.0,127.0,3.0,3.0,-62.0
126.0,143.0,153.0,127.0,123.0,125.0,110.0,123.0,-1.0,115.0,-61.0,126.0,127.0,127.0,3.0,3.0,-62.0
127.0,138.0,141.0,127.0,121.0,127.0,108.0,133.0,-1.0,115.0,-61.0,126.0,127.0,127.0,3.0,3.0,-62.0
127.0,139.0,143.0,127.0,121.0,127.0,112.0,131.0,-1.0,115.0,-61.0,126.0,127.0,127.0,3.0,3.0,-62.0
127.0,139.0,144.0,127.0,121.0,126.0,112.0,130.0,-1.0,115.0,-61.0,126.0,127.0,127.0,3.0,3.0,-62.0
127.0,140.0,146.0,127.0,122.0,127.0,113.0,129.0,-1.0,115.0,-61.0,126.0,127.0,127.0,3.0,3.0,-62.0
127.0,140.0,147.0,127.0,122.0,127.0,109.0,127.0,-1.0,115.0,-61.0,126.0,127.0,127.0,3.0,3.0,-62.0
127.0,141.0,148.0,127.0,122.0,127.0,108.0,126.0,-1.0,115.0,-61.0,126.0,127.0,127.0,3.0,3.0,-62.0
127.0,133.0,158.0,127.0,153.0,116.0,101.0,93.0,-1.0,110.0,-58.0,126.0,-128.0,127.0,3.0,3.0,-62.0
127.0,132.0,156.0,127.0,154.0,117.0,102.0,93.0,-1.0,110.0,-58.0,126.0,-128.0,127.0,3.0,3.0,-62.0
127.0,132.0,155.0,127.0,155.0,118.0,104.0,94.0,-1.0,110.0,-58.0,126.0,-128.0,127.0,3.0,3.0,-62.0
126.0,137.0,164.0,127.0,148.0,114.0,97.0,92.0,-1.0,110.0,-58.0,126.0,-128.0,127.0,3.0,3.0,-62.0
126.0,136.0,164.0,127.0,149.0,115.0,99.0,91.0,-1.0,110.0,-58.0,126.0,-128.0,127.0,3.0,3.0,-62.0
126.0,136.0,163.0,127.0,150.0,115.0,100.0,91.0,-1.0,110.0,-58.0,126.0,-128.0,127.0,3.0,3.0,-62.0
126.0,135.0,162.0,127.0,151.0,116.0,102.0,91.0,-1.0,110.0,-58.0,126.0,-128.0,127.0,3.0,3.0,-62.0
126.0,135.0,161.0,127.0,152.0,116.0,102.0,91.0,-1.0,110.0,-58.0,126.0,-128.0,127.0,3.0,3.0,-62.0
127.0,134.0,160.0,127.0,152.0,115.0,101.0,91.0,-1.0,110.0,-58.0,126.0,-128.0,127.0,3.0,3.0,-62.0
127.0,134.0,159.0,127.0,153.0,115.0,100.0,92.0,-1.0,110.0,-58.0,126.0,-128.0,127.0,3.0,3.0,-62.0
126.0,118.0,127.0,127.0,111.0,120.0,102.0,125.0,-1.0,107.0,-58.0,-128.0,127.0,127.0,3.0,3.0,-62.0
126.0,118.0,126.0,127.0,110.0,120.0,102.0,127.0,-1.0,107.0,-58.0,-128.0,127.0,127.0,3.0,3.0,-62.0
126.0,116.0,130.0,127.0,115.0,121.0,102.0,116.0,-1.0,107.0,-58.0,-128.0,127.0,127.0,3.0,3.0,-62.0
126.0,116.0,130.0,127.0,114.0,121.0,103.0,117.0,-1.0,107.0,-58.0,-128.0,127.0,127.0,3.0,3.0,-62.0
126.0,117.0,130.0,127.0,114.0,121.0,103.0,118.0,-1.0,107.0,-58.0,-128.0,127.0,127.0,3.0,3.0,-62.0
127.0,117.0,129.0,127.0,113.0,120.0,102.0,119.0,-1.0,107.0,-58.0,-128.0,127.0,127.0,3.0,3.0,-62.0
126.0,117.0,129.0,127.0,112.0,120.0,101.0,120.0,-1.0,107.0,-58.0,-128.0,127.0,127.0,3.0,3.0,-62.0
127.0,117.0,128.0,127.0,112.0,119.0,100.0,122.0,-1.0,107.0,-58.0,-128.0,127.0,127.0,3.0,3.0,-62.0
126.0,117.0,128.0,127.0,111.0,120.0,100.0,123.0,-1.0,107.0,-58.0,-128.0,127.0,127.0,3.0,3.0,-62.0
126.0,118.0,127.0,127.0,111.0,120.0,101.0,124.0,-1.0,107.0,-58.0,-128.0,127.0,127.0,3.0,3.0,-62.0
127.0,121.0,131.0,127.0,100.0,128.0,108.0,168.0,-1.0,112.0,-58.0,127.0,127.0,127.0,3.0,3.0,-62.0
126.0,119.0,131.0,127.0,100.0,126.0,111.0,163.0,-1.0,112.0,-58.0,127.0,127.0,127.0,3.0,3.0,-62.0
126.0,119.0,131.0,127.0,99.0,126.0,111.0,163.0,-1.0,112.0,-58.0,127.0,127.0,127.0,3.0,3.0,-62.0
126.0,120.0,131.0,127.0,99.0,125.0,110.0,164.0,-1.0,112.0,-58.0,127.0,127.0,127.0,3.0,3.0,-62.0
127.0,120.0,131.0,127.0,99.0,126.0,110.0,164.0,-1.0,112.0,-58.0,127.0,127.0,127.0,3.0,3.0,-62.0
126.0,120.0,131.0,127.0,99.0,126.0,111.0,165.0,-1.0,112.0,-58.0,127.0,127.0,127.0,3.0,3.0,-62.0
127.0,121.0,131.0,127.0,99.0,126.0,112.0,165.0,-1.0,112.0,-58.0,127.0,127.0,127.0,3.0,3.0,-62.0
127.0,121.0,131.0,127.0,99.0,127.0,111.0,166.0,-1.0,112.0,-58.0,127.0,127.0,127.0,3.0,3.0,-62.0
127.0,121.0,131.0,127.0,100.0,127.0,107.0,167.0,-1.0,112.0,-58.0,127.0,127.0,127.0,3.0,3.0,-62.0
127.0,121.0,131.0,127.0,100.0,128.0,107.0,167.0,-1.0,112.0,-58.0,127.0,127.0,127.0,3.0,3.0,-62.0
127.0,121.0,147.0,127.0,105.0,124.0,108.0,145.0,-1.0,116.0,-58.0,126.0,127.0,127.0,3.0,3.0,-62.0
127.0,121.0,147.0,127.0,105.0,124.0,108.0,143.0,-1.0,116.0,-58.0,126.0,127.0,127.0,3.0,3.0,-62.0
127.0,121.0,147.0,127.0,105.0,124.0,108.0,142.0,-1.0,116.0,-58.0,126.0,127.0,127.0,3.0,3.0,-62.0
127.0,122.0,147.0,127.0,105.0,124.0,108.0,141.0,-1.0,116.0,-58.0,126.0,127.0,127.0,3.0,3.0,-62.0
127.0,122.0,146.0,127.0,106.0,124.0,108.0,140.0,-1.0,116.0,-58.0,126.0,127.0,127.0,3.0,3.0,-62.0
127.0,123.0,146.0,127.0,106.0,124.0,108.0,139.0,-1.0,116.0,-58.0,126.0,127.0,127.0,3.0,3.0,-62.0
127.0,123.0,146.0,127.0,107.0,124.0,108.0,138.0,-1.0,116.0,-58.0,126.0,127.0,127.0,3.0,3.0,-62.0
127.0,123.0,145.0,127.0,107.0,124.0,108.0,137.0,-1.0,116.0,-58.0,126.0,127.0,127.0,3.0,3.0,-62.0
127.0,123.0,145.0,127.0,107.0,124.0,108.0,136.0,-1.0,116.0,-58.0,126.0,127.0,127.0,3.0,3.0,-62.0
127.0,124.0,145.0,127.0,108.0,125.0,109.0,135.0,-1.0,116.0,-58.0,126.0,127.0,127.0,3.0,3.0,-62.0
127.0,123.0,152.0,127.0,112.0,122.0,104.0,90.0,-1.0,113.0,-58.0,126.0,127.0,127.0,3.0,3.0,-62.0
127.0,123.0,151.0,127.0,112.0,122.0,105.0,89.0,-1.0,113.0,-58.0,126.0,127.0,127.0,3.0,3.0,-62.0
127.0,123.0,151.0,127.0,112.0,122.0,105.0,89.0,-1.0,113.0,-58.0,126.0,127.0,127.0,3.0,3.0,-62.0
127.0,124.0,151.0,127.0,112.0,123.0,105.0,89.0,-1.0,113.0,-58.0,126.0,127.0,127.0,3.0,3.0,-62.0
127.0,124.0,151.0,127.0,112.0,123.0,106.0,88.0,-1.0,113.0,-58.0,126.0,127.0,127.0,3.0,3.0,-62.0
127.0,124.0,150.0,127.0,113.0,123.0,106.0,88.0,-1.0,113.0,-58.0,126.0,127.0,127.0,3.0,3.0,-62.0
127.0,124.0,150.0,127.0,113.0,124.0,107.0,88.0,-1.0,113.0,-58.0,126.0,127.0,127.0,3.0,3.0,-62.0
126.0,124.0,150.0,127.0,114.0,124.0,108.0,88.0,-1.0,113.0,-58.0,126.0,127.0,127.0,3.0,3.0,-62.0
127.0,125.0,149.0,127.0,114.0,124.0,108.0,88.0,-1.0,113.0,-58.0,126.0,127.0,127.0,3.0,3.0,-62.0
127.0,123.0,152.0,127.0,112.0,122.0,105.0,90.0,-1.0,113.0,-58.0,126.0,127.0,127.0,3.0,3.0,-62.0
127.0,123.0,141.0,127.0,120.0,125.0,110.0,89.0,-1.0,109.0,-58.0,126.0,127.0,127.0,3.0,3.0,-62.0
127.0,123.0,141.0,127.0,120.0,125.0,110.0,90.0,-1.0,109.0,-58.0,126.0,127.0,127.0,3.0,3.0,-62.0
127.0,123.0,140.0,127.0,121.0,126.0,111.0,90.0,-1.0,109.0,-58.0,126.0,127.0,127.0,3.0,3.0,-62.0
127.0,123.0,140.0,127.0,121.0,126.0,111.0,90.0,-1.0,109.0,-58.0,126.0,127.0,127.0,3.0,3.0,-62.0
127.0,124.0,140.0,127.0,121.0,126.0,112.0,91.0,-1.0,109.0,-58.0,126.0,127.0,127.0,3.0,3.0,-62.0
127.0,124.0,139.0,127.0,121.0,126.0,112.0,91.0,-1.0,109.0,-58.0,126.0,127.0,127.0,3.0,3.0,-62.0
127.0,124.0,139.0,127.0,122.0,127.0,112.0,92.0,-1.0,109.0,-58.0,126.0,127.0,127.0,3.0,3.0,-62.0
126.0,124.0,138.0,127.0,122.0,127.0,110.0,92.0,-1.0,109.0,-58.0,126.0,127.0,127.0,3.0,3.0,-62.0
127.0,123.0,142.0,127.0,120.0,125.0,110.0,89.0,-1.0,109.0,-58.0,126.0,127.0,127.0,3.0,3.0,-62.0
127.0,123.0,141.0,127.0,120.0,125.0,110.0,89.0,-1.0,109.0,-58.0,126.0,127.0,127.0,3.0,3.0,-62.0
127.0,120.0,135.0,127.0,124.0,127.0,107.0,100.0,-1.0,108.0,-58.0,127.0,127.0,127.0,3.0,3.0,-62.0
127.0,120.0,134.0,127.0,124.0,127.0,107.0,100.0,-1.0,108.0,-58.0,127.0,127.0,127.0,3.0,3.0,-62.0
127.0,120.0,134.0,127.0,124.0,127.0,106.0,100.0,-1.0,108.0,-58.0,127.0,127.0,127.0,3.0,3.0,-62.0
127.0,120.0,134.0,127.0,125.0,128.0,106.0,101.0,-1.0,108.0,-58.0,127.0,127.0,127.0,3.0,3.0,-62.0
126.0,120.0,134.0,127.0,125.0,128.0,107.0,101.0,-1.0,108.0,-58.0,127.0,127.0,127.0,3.0,3.0,-62.0
126.0,121.0,133.0,127.0,125.0,128.0,107.0,101.0,-1.0,108.0,-58.0,127.0,127.0,127.0,3.0,3.0,-62.0
127.0,121.0,133.0,127.0,126.0,128.0,108.0,101.0,-1.0,108.0,-58.0,127.0,127.0,127.0,3.0,3.0,-62.0
126.0,120.0,135.0,127.0,124.0,127.0,107.0,99.0,-1.0,108.0,-58.0,127.0,127.0,127.0,3.0,3.0,-62.0
127.0,120.0,135.0,127.0,124.0,127.0,106.0,99.0,-1.0,108.0,-58.0,127.0,127.0,127.0,3.0,3.0,-62.0
126.0,120.0,135.0,127.0,124.0,127.0,106.0,100.0,-1.0,108.0,-58.0,127.0,127.0,127.0,3.0,3.0,-62.0
127.0,118.0,137.0,127.0,124.0,123.0,107.0,101.0,-1.0,110.0,-59.0,127.0,127.0,127.0,3.0,3.0,-62.0
127.0,118.0,137.0,127.0,125.0,123.0,107.0,101.0,-1.0,110.0,-59.0,127.0,127.0,127.0,3.0,3.0,-62.0
127.0,118.0,137.0,127.0,125.0,123.0,107.0,101.0,-1.0,110.0,-59.0,127.0,127.0,127.0,3.0,3.0,-62.0
127.0,118.0,137.0,127.0,125.0,124.0,107.0,101.0,-1.0,110.0,-59.0,127.0,127.0,127.0,3.0,3.0,-62.0
127.0,119.0,137.0,127.0,125.0,124.0,107.0,102.0,-1.0,110.0,-59.0,127.0,127.0,127.0,3.0,3.0,-62.0
127.0,119.0,136.0,127.0,125.0,124.0,107.0,102.0,-1.0,110.0,-59.0,127.0,127.0,127.0,3.0,3.0,-62.0
127.0,118.0,137.0,127.0,124.0,124.0,107.0,101.0,-1.0,110.0,-59.0,127.0,127.0,127.0,3.0,3.0,-62.0
127.0,118.0,137.0,127.0,124.0,124.0,107.0,101.0,-1.0,110.0,-59.0,127.0,127.0,127.0,3.0,3.0,-62.0
127.0,118.0,137.0,127.0,124.0,123.0,107.0,101.0,-1.0,110.0,-59.0,127.0,127.0,127.0,3.0,3.0,-62.0
127.0,118.0,137.0,127.0,124.0,123.0,107.0,101.0,-1.0,110.0,-59.0,127.0,127.0,127.0,3.0,3.0,-62.0
127.0,116.0,137.0,127.0,125.0,120.0,101.0,100.0,-1.0,110.0,-59.0,127.0,127.0,127.0,3.0,3.0,-62.0
127.0,116.0,137.0,127.0,125.0,120.0,101.0,100.0,-1.0,110.0,-59.0,127.0,127.0,127.0,3.0,3.0,-62.0
127.0,117.0,136.0,127.0,125.0,120.0,101.0,100.0,-1.0,110.0,-59.0,127.0,127.0,127.0,3.0,3.0,-62.0
127.0,117.0,136.0,127.0,125.0,120.0,102.0,100.0,-1.0,110.0,-59.0,127.0,127.0,127.0,3.0,3.0,-62.0
127.0,117.0,135.0,127.0,126.0,121.0,102.0,100.0,-1.0,110.0,-59.0,127.0,127.0,127.0,3.0,3.0,-62.0
127.0,116.0,138.0,127.0,124.0,120.0,101.0,99.0,-1.0,110.0,-59.0,127.0,127.0,127.0,3.0,3.0,-62.0
127.0,116.0,138.0,127.0,124.0,120.0,101.0,99.0,-1.0,110.0,-59.0,127.0,127.0,127.0,3.0,3.0,-62.0
127.0,116.0,138.0,127.0,124.0,120.0,101.0,99.0,-1.0,110.0,-59.0,127.0,127.0,127.0,3.0,3.0,-62.0
127.0,116.0,137.0,127.0,125.0,120.0,101.0,99.0,-1.0,110.0,-59.0,127.0,127.0,127.0,3.0,3.0,-62.0
127.0,116.0,137.0,127.0,125.0,120.0,102.0,99.0,-1.0,110.0,-59.0,127.0,127.0,127.0,3.0,3.0,-62.0
127.0,116.0,134.0,127.0,125.0,121.0,102.0,102.0,-1.0,109.0,-59.0,127.0,127.0,127.0,3.0,3.0,-62.0
127.0,116.0,134.0,127.0,126.0,121.0,102.0,102.0,-1.0,109.0,-59.0,127.0,127.0,127.0,3.0,3.0,-62.0
127.0,116.0,133.0,127.0,126.0,121.0,102.0,102.0,-1.0,109.0,-59.0,127.0,127.0,127.0,3.0,3.0,-62.0
127.0,116.0,133.0,127.0,126.0,121.0,102.0,102.0,-1.0,109.0,-59.0,127.0,127.0,127.0,3.0,3.0,-62.0
127.0,114.0,135.0,127.0,125.0,120.0,101.0,101.0,-1.0,109.0,-59.0,127.0,127.0,127.0,3.0,3.0,-62.0
127.0,114.0,135.0,127.0,125.0,120.0,101.0,101.0,-1.0,109.0,-59.0,127.0,127.0,127.0,3.0,3.0,-62.0
127.0,114.0,135.0,127.0,125.0,120.0,101.0,101.0,-1.0,109.0,-59.0,127.0,127.0,127.0,3.0,3.0,-62.0
127.0,115.0,135.0,127.0,125.0,120.0,102.0,101.0,-1.0,109.0,-59.0,127.0,127.0,127.0,3.0,3.0,-62.0
127.0,115.0,135.0,127.0,125.0,120.0,102.0,101.0,-1.0,109.0,-59.0,127.0,127.0,127.0,3.0,3.0,-62.0
127.0,115.0,134.0,127.0,125.0,120.0,102.0,101.0,-1.0,109.0,-59.0,127.0,127.0,127.0,3.0,3.0,-62.0
127.0,116.0,134.0,127.0,125.0,122.0,104.0,103.0,-1.0,109.0,-60.0,-128.0,127.0,127.0,3.0,3.0,-62.0
127.0,117.0,133.0,127.0,125.0,122.0,105.0,103.0,-1.0,109.0,-60.0,-128.0,127.0,127.0,3.0,3.0,-62.0
127.0,117.0,133.0,127.0,125.0,122.0,104.0,103.0,-1.0,109.0,-60.0,-128.0,127.0,127.0,3.0,3.0,-62.0
127.0,115.0,135.0,127.0,124.0,121.0,103.0,102.0,-1.0,109.0,-60.0,-128.0,127.0,127.0,3.0,3.0,-62.0
127.0,115.0,135.0,127.0,124.0,121.0,103.0,102.0,-1.0,109.0,-60.0,-128.0,127.0,127.0,3.0,3.0,-62.0
126.0,115.0,135.0,127.0,124.0,121.0,103.0,102.0,-1.0,109.0,-60.0,-128.0,127.0,127.0,3.0,3.0,-62.0
127.0,116.0,134.0,127.0,125.0,121.0,104.0,102.0,-1.0,109.0,-60.0,-128.0,127.0,127.0,3.0,3.0,-62.0
127.0,116.0,134.0,127.0,125.0,122.0,103.0,102.0,-1.0,109.0,-60.0,-128.0,127.0,127.0,3.0,3.0,-62.0
127.0,116.0,134.0,127.0,125.0,122.0,104.0,102.0,-1.0,109.0,-60.0,-128.0,127.0,127.0,3.0,3.0,-62.0
127.0,116.0,134.0,127.0,125.0,122.0,104.0,103.0,-1.0,109.0,-60.0,-128.0,127.0,127.0,3.0,3.0,-62.0
126.0,118.0,133.0,127.0,126.0,124.0,108.0,108.0,-1.0,110.0,-60.0,-128.0,127.0,127.0,3.0,3.0,-62.0
126.0,118.0,133.0,127.0,126.0,124.0,109.0,108.0,-1.0,110.0,-60.0,-128.0,127.0,127.0,3.0,3.0,-62.0
127.0,116.0,134.0,127.0,125.0,123.0,107.0,106.0,-1.0,110.0,-60.0,-128.0,127.0,127.0,3.0,3.0,-62.0
127.0,116.0,134.0,127.0,125.0,124.0,107.0,106.0,-1.0,110.0,-60.0,-128.0,127.0,127.0,3.0,3.0,-62.0
127.0,116.0,134.0,127.0,125.0,124.0,107.0,106.0,-1.0,110.0,-60.0,-128.0,127.0,127.0,3.0,3.0,-62.0
127.0,117.0,134.0,127.0,125.0,124.0,107.0,107.0,-1.0,110.0,-60.0,-128.0,127.0,127.0,3.0,3.0,-62.0
127.0,117.0,134.0,127.0,125.0,124.0,108.0,107.0,-1.0,110.0,-60.0,-128.0,127.0,127.0,3.0,3.0,-62.0
127.0,117.0,134.0,127.0,125.0,124.0,108.0,107.0,-1.0,110.0,-60.0,-128.0,127.0,127.0,3.0,3.0,-62.0
126.0,117.0,134.0,127.0,126.0,124.0,108.0,107.0,-1.0,110.0,-60.0,-128.0,127.0,127.0,3.0,3.0,-62.0
127.0,118.0,133.0,127.0,126.0,124.0,108.0,107.0,-1.0,110.0,-60.0,-128.0,127.0,127.0,3.0,3.0,-62.0
127.0,122.0,132.0,127.0,127.0,124.0,108.0,110.0,-1.0,111.0,-59.0,-128.0,127.0,127.0,3.0,3.0,-62.0
127.0,120.0,134.0,127.0,126.0,124.0,107.0,109.0,-1.0,111.0,-59.0,-128.0,127.0,127.0,3.0,3.0,-62.0
127.0,120.0,133.0,128.0,126.0,124.0,108.0,109.0,-1.0,111.0,-59.0,-128.0,127.0,127.0,3.0,3.0,-62.0
127.0,120.0,133.0,127.0,126.0,124.0,108.0,109.0,-1.0,111.0,-59.0,-128.0,127.0,127.0,3.0,3.0,-62.0
127.0,121.0,133.0,127.0,126.0,124.0,108.0,109.0,-1.0,111.0,-59.0,-128.0,127.0,127.0,3.0,3.0,-62.0
127.0,121.0,133.0,128.0,126.0,124.0,108.0,110.0,-1.0,111.0,-59.0,-128.0,127.0,127.0,3.0,3.0,-62.0
127.0,121.0,133.0,127.0,126.0,124.0,108.0,110.0,-1.0,111.0,-59.0,-128.0,127.0,127.0,3.0,3.0,-62.0
127.0,121.0,133.0,127.0,126.0,124.0,108.0,110.0,-1.0,111.0,-59.0,-128.0,127.0,127.0,3.0,3.0,-62.0
127.0,121.0,133.0,127.0,126.0,124.0,108.0,110.0,-1.0,111.0,-59.0,-128.0,127.0,127.0,3.0,3.0,-62.0
127.0,122.0,132.0,127.0,126.0,124.0,108.0,110.0,-1.0,111.0,-59.0,-128.0,127.0,127.0,3.0,3.0,-62.0
127.0,120.0,137.0,127.0,124.0,122.0,104.0,111.0,-1.0,112.0,-58.0,-128.0,127.0,127.0,3.0,3.0,-62.0
127.0,120.0,137.0,127.0,124.0,122.0,105.0,111.0,-1.0,112.0,-58.0,-128.0,127.0,127.0,3.0,3.0,-62.0
127.0,120.0,137.0,127.0,124.0,122.0,104.0,111.0,-1.0,112.0,-58.0,-128.0,127.0,127.0,3.0,3.0,-62.0
127.0,121.0,137.0,127.0,124.0,122.0,104.0,111.0,-1.0,112.0,-58.0,-128.0,127.0,127.0,3.0,3.0,-62.0
127.0,121.0,137.0,127.0,124.0,122.0,104.0,111.0,-1.0,112.0,-58.0,-128.0,127.0,127.0,3.0,3.0,-62.0
127.0,121.0,137.0,127.0,125.0,122.0,105.0,111.0,-1.0,112.0,-58.0,-128.0,127.0,127.0,3.0,3.0,-62.0
127.0,122.0,136.0,127.0,125.0,122.0,105.0,112.0,-1.0,112.0,-58.0,-128.0,127.0,127.0,3.0,3.0,-62.0
127.0,122.0,136.0,127.0,125.0,122.0,105.0,112.0,-1.0,112.0,-58.0,-128.0,127.0,127.0,3.0,3.0,-62.0
127.0,122.0,136.0,127.0,125.0,122.0,106.0,112.0,-1.0,112.0,-58.0,-128.0,127.0,127.0,3.0,3.0,-62.0
127.0,123.0,136.0,127.0,125.0,123.0,105.0,112.0,-1.0,112.0,-58.0,-128.0,127.0,127.0,3.0,3.0,-62.0
126.0,124.0,135.0,127.0,124.0,121.0,103.0,112.0,-1.0,112.0,-58.0,-128.0,127.0,127.0,3.0,3.0,-62.0
126.0,125.0,135.0,127.0,124.0,121.0,104.0,112.0,-1.0,112.0,-58.0,-128.0,127.0,127.0,3.0,3.0,-62.0
126.0,125.0,135.0,127.0,124.0,121.0,104.0,112.0,-1.0,112.0,-58.0,-128.0,127.0,127.0,3.0,3.0,-62.0
127.0,125.0,134.0,127.0,124.0,121.0,104.0,112.0,-1.0,112.0,-58.0,-128.0,127.0,127.0,3.0,3.0,-62.0
126.0,125.0,134.0,127.0,124.0,122.0,103.0,112.0,-1.0,112.0,-58.0,-128.0,127.0,127.0,3.0,3.0,-62.0
127.0,126.0,134.0,127.0,125.0,122.0,104.0,113.0,-1.0,112.0,-58.0,-128.0,127.0,127.0,3.0,3.0,-62.0
127.0,126.0,133.0,127.0,125.0,122.0,104.0,113.0,-1.0,112.0,-58.0,-128.0,127.0,127.0,3.0,3.0,-62.0
127.0,126.0,133.0,127.0,125.0,122.0,105.0,113.0,-1.0,112.0,-58.0,-128.0,127.0,127.0,3.0,3.0,-62.0
127.0,127.0,133.0,127.0,125.0,122.0,105.0,113.0,-1.0,112.0,-58.0,-128.0,127.0,127.0,3.0,3.0,-62.0
126.0,124.0,135.0,127.0,124.0,121.0,103.0,112.0,-1.0,112.0,-58.0,-128.0,127.0,127.0,3.0,3.0,-62.0
127.0,128.0,131.0,127.0,126.0,120.0,102.0,115.0,-1.0,113.0,-57.0,-128.0,127.0,127.0,3.0,3.0,-62.0
127.0,128.0,131.0,127.0,126.0,120.0,102.0,115.0,-1.0,113.0,-57.0,-128.0,127.0,127.0,3.0,3.0,-62.0
127.0,128.0,131.0,127.0,126.0,120.0,102.0,115.0,-1.0,113.0,-57.0,-128.0,127.0,127.0,3.0,3.0,-62.0
126.0,128.0,131.0,127.0,126.0,120.0,102.0,115.0,-1.0,113.0,-57.0,-128.0,127.0,127.0,3.0,3.0,-62.0
126.0,128.0,130.0,127.0,126.0,120.0,101.0,115.0,-1.0,113.0,-57.0,-128.0,127.0,127.0,3.0,3.0,-62.0
126.0,129.0,130.0,127.0,126.0,120.0,102.0,116.0,-1.0,113.0,-57.0,-128.0,127.0,127.0,3.0,3.0,-62.0
126.0,129.0,130.0,127.0,126.0,120.0,102.0,116.0,-1.0,113.0,-57.0,-128.0,127.0,127.0,3.0,3.0,-62.0
126.0,129.0,129.0,127.0,127.0,121.0,102.0,116.0,-1.0,113.0,-57.0,-128.0,127.0,127.0,3.0,3.0,-62.0
127.0,127.0,131.0,127.0,126.0,120.0,101.0,115.0,-1.0,113.0,-57.0,-128.0,127.0,127.0,3.0,3.0,-62.0
127.0,128.0,131.0,127.0,126.0,120.0,101.0,115.0,-1.0,113.0,-57.0,-128.0,127.0,127.0,3.0,3.0,-62.0
127.0,127.0,127.0,127.0,128.0,122.0,105.0,119.0,-1.0,114.0,-56.0,127.0,127.0,127.0,3.0,3.0,-62.0
127.0,127.0,126.0,127.0,128.0,122.0,106.0,119.0,-1.0,114.0,-56.0,127.0,127.0,127.0,3.0,3.0,-62.0
127.0,127.0,126.0,127.0,128.0,123.0,105.0,119.0,-1.0,114.0,-56.0,127.0,127.0,127.0,3.0,3.0,-62.0
127.0,127.0,126.0,127.0,128.0,123.0,105.0,119.0,-1.0,114.0,-56.0,127.0,127.0,127.0,3.0,3.0,-62.0
127.0,128.0,126.0,127.0,128.0,123.0,106.0,119.0,-1.0,114.0,-56.0,127.0,127.0,127.0,3.0,3.0,-62.0
127.0,128.0,125.0,127.0,128.0,123.0,106.0,120.0,-1.0,114.0,-56.0,127.0,127.0,127.0,3.0,3.0,-62.0
127.0,128.0,125.0,127.0,129.0,123.0,106.0,120.0,-1.0,114.0,-56.0,127.0,127.0,127.0,3.0,3.0,-62.0
127.0,127.0,127.0,127.0,127.0,122.0,104.0,119.0,-1.0,114.0,-56.0,127.0,127.0,127.0,3.0,3.0,-62.0
127.0,127.0,127.0,127.0,127.0,122.0,105.0,119.0,-1.0,114.0,-56.0,127.0,127.0,127.0,3.0,3.0,-62.0
127.0,127.0,127.0,127.0,128.0,122.0,105.0,119.0,-1.0,114.0,-56.0,127.0,127.0,127.0,3.0,3.0,-62.0
127.0,126.0,123.0,127.0,130.0,125.0,109.0,122.0,-1.0,114.0,-56.0,127.0,126.0,127.0,3.0,3.0,-62.0
127.0,127.0,123.0,127.0,130.0,125.0,110.0,122.0,-1.0,114.0,-56.0,127.0,126.0,127.0,3.0,3.0,-62.0
127.0,127.0,123.0,127.0,130.0,125.0,110.0,122.0,-1.0,114.0,-56.0,127.0,126.0,127.0,3.0,3.0,-62.0
127.0,127.0,122.0,127.0,130.0,125.0,110.0,122.0,-1.0,114.0,-56.0,127.0,126.0,127.0,3.0,3.0,-62.0
127.0,127.0,122.0,127.0,130.0,125.0,111.0,122.0,-1.0,114.0,-56.0,127.0,126.0,127.0,3.0,3.0,-62.0
127.0,127.0,122.0,127.0,130.0,126.0,111.0,122.0,-1.0,114.0,-56.0,127.0,126.0,127.0,3.0,3.0,-62.0
127.0,126.0,123.0,127.0,129.0,124.0,109.0,121.0,-1.0,114.0,-56.0,127.0,126.0,127.0,3.0,3.0,-62.0
127.0,126.0,123.0,127.0,129.0,124.0,109.0,121.0,-1.0,114.0,-56.0,127.0,126.0,127.0,3.0,3.0,-62.0
127.0,126.0,123.0,127.0,129.0,125.0,109.0,121.0,-1.0,114.0,-56.0,127.0,126.0,127.0,3.0,3.0,-62.0
127.0,126.0,123.0,127.0,130.0,125.0,109.0,121.0,-1.0,114.0,-56.0,127.0,126.0,127.0,3.0,3.0,-62.0
127.0,125.0,122.0,127.0,129.0,127.0,112.0,125.0,-1.0,114.0,-57.0,127.0,126.0,127.0,3.0,3.0,-62.0
127.0,125.0,121.0,127.0,129.0,127.0,110.0,125.0,-1.0,114.0,-57.0,127.0,126.0,127.0,3.0,3.0,-62.0
127.0,125.0,121.0,127.0,129.0,127.0,106.0,125.0,-1.0,114.0,-57.0,127.0,126.0,127.0,3.0,3.0,-62.0
127.0,125.0,121.0,127.0,129.0,127.0,106.0,125.0,-1.0,114.0,-57.0,127.0,126.0,127.0,3.0,3.0,-62.0
127.0,126.0,121.0,127.0,129.0,127.0,107.0,125.0,-1.0,114.0,-57.0,127.0,126.0,127.0,3.0,3.0,-62.0
127.0,124.0,122.0,127.0,128.0,126.0,112.0,124.0,-1.0,114.0,-57.0,127.0,126.0,127.0,3.0,3.0,-62.0
127.0,124.0,122.0,127.0,128.0,126.0,112.0,124.0,-1.0,114.0,-57.0,127.0,126.0,127.0,3.0,3.0,-62.0
127.0,125.0,122.0,127.0,128.0,126.0,113.0,124.0,-1.0,114.0,-57.0,127.0,126.0,127.0,3.0,3.0,-62.0
127.0,125.0,122.0,127.0,129.0,127.0,112.0,124.0,-1.0,114.0,-57.0,127.0,126.0,127.0,3.0,3.0,-62.0
127.0,125.0,122.0,127.0,129.0,127.0,113.0,124.0,-1.0,114.0,-57.0,127.0,126.0,127.0,3.0,3.0,-62.0
126.0,125.0,122.0,127.0,128.0,129.0,110.0,126.0,-1.0,113.0,-57.0,127.0,126.0,127.0,3.0,3.0,-62.0
126.0,125.0,122.0,127.0,128.0,129.0,110.0,126.0,-1.0,113.0,-57.0,127.0,126.0,127.0,3.0,3.0,-62.0
126.0,125.0,122.0,127.0,128.0,129.0,110.0,126.0,-1.0,113.0,-57.0,127.0,126.0,127.0,3.0,3.0,-62.0
126.0,125.0,122.0,127.0,129.0,130.0,110.0,126.0,-1.0,113.0,-57.0,127.0,126.0,127.0,3.0,3.0,-62.0
127.0,124.0,123.0,127.0,128.0,129.0,110.0,125.0,-1.0,113.0,-57.0,127.0,126.0,127.0,3.0,3.0,-62.0
127.0,124.0,123.0,127.0,128.0,129.0,110.0,125.0,-1.0,113.0,-57.0,127.0,126.0,127.0,3.0,3.0,-62.0
127.0,124.0,123.0,127.0,128.0,129.0,109.0,125.0,-1.0,113.0,-57.0,127.0,126.0,127.0,3.0,3.0,-62.0
127.0,124.0,123.0,127.0,128.0,129.0,109.0,125.0,-1.0,113.0,-57.0,127.0,126.0,127.0,3.0,3.0,-62.0
127.0,124.0,123.0,127.0,128.0,129.0,109.0,125.0,-1.0,113.0,-57.0,127.0,126.0,127.0,3.0,3.0,-62.0
127.0,125.0,123.0,127.0,128.0,129.0,109.0,125.0,-1.0,113.0,-57.0,127.0,126.0,127.0,3.0,3.0,-62.0
127.0,125.0,122.0,127.0,127.0,129.0,110.0,125.0,-1.0,113.0,-57.0,127.0,126.0,127.0,3.0,3.0,-62.0
127.0,125.0,122.0,127.0,127.0,129.0,110.0,125.0,-1.0,113.0,-57.0,127.0,126.0,127.0,3.0,3.0,-62.0
127.0,125.0,122.0,127.0,128.0,130.0,110.0,125.0,-1.0,113.0,-57.0,127.0,126.0,127.0,3.0,3.0,-62.0
126.0,124.0,123.0,127.0,127.0,129.0,109.0,125.0,-1.0,113.0,-57.0,127.0,126.0,127.0,3.0,3.0,-62.0
126.0,124.0,123.0,127.0,127.0,129.0,109.0,125.0,-1.0,113.0,-57.0,127.0,126.0,127.0,3.0,3.0,-62.0
126.0,124.0,123.0,127.0,127.0,129.0,109.0,125.0,-1.0,113.0,-57.0,127.0,126.0,127.0,3.0,3.0,-62.0
126.0,124.0,123.0,127.0,127.0,129.0,109.0,125.0,-1.0,113.0,-57.0,127.0,126.0,127.0,3.0,3.0,-62.0
127.0,125.0,123.0,127.0,127.0,129.0,109.0,124.0,-1.0,113.0,-57.0,127.0,126.0,127.0,3.0,3.0,-62.0
127.0,125.0,123.0,127.0,127.0,129.0,110.0,125.0,-1.0,113.0,-57.0,127.0,126.0,127.0,3.0,3.0,-62.0
127.0,125.0,122.0,127.0,127.0,129.0,110.0,125.0,-1.0,113.0,-57.0,127.0,126.0,127.0,3.0,3.0,-62.0
126.0,125.0,123.0,127.0,126.0,128.0,107.0,123.0,-1.0,113.0,-57.0,127.0,127.0,127.0,3.0,3.0,-62.0
126.0,125.0,123.0,127.0,126.0,128.0,107.0,123.0,-1.0,113.0,-57.0,127.0,127.0,127.0,3.0,3.0,-62.0
127.0,124.0,124.0,127.0,126.0,128.0,107.0,123.0,-1.0,113.0,-57.0,127.0,127.0,127.0,3.0,3.0,-62.0
127.0,124.0,124.0,127.0,126.0,128.0,107.0,123.0,-1.0,113.0,-57.0,127.0,127.0,127.0,3.0,3.0,-62.0
127.0,124.0,124.0,127.0,126.0,128.0,107.0,123.0,-1.0,113.0,-57.0,127.0,127.0,127.0,3.0,3.0,-62.0
127.0,124.0,124.0,127.0,126.0,128.0,107.0,123.0,-1.0,113.0,-57.0,127.0,127.0,127.0,3.0,3.0,-62.0
127.0,124.0,124.0,127.0,126.0,128.0,107.0,123.0,-1.0,113.0,-57.0,127.0,127.0,127.0,3.0,3.0,-62.0
126.0,125.0,123.0,127.0,126.0,128.0,107.0,123.0,-1.0,113.0,-57.0,127.0,127.0,127.0,3.0,3.0,-62.0
126.0,125.0,123.0,127.0,126.0,128.0,107.0,123.0,-1.0,113.0,-57.0,127.0,127.0,127.0,3.0,3.0,-62.0
126.0,125.0,123.0,127.0,126.0,128.0,107.0,123.0,-1.0,113.0,-57.0,127.0,127.0,127.0,3.0,3.0,-62.0
127.0,125.0,123.0,127.0,127.0,128.0,107.0,123.0,-1.0,113.0,-57.0,127.0,127.0,127.0,3.0,3.0,-62.0
127.0,124.0,124.0,127.0,127.0,127.0,106.0,122.0,-1.0,113.0,-57.0,127.0,127.0,127.0,3.0,3.0,-62.0
127.0,124.0,124.0,127.0,126.0,127.0,108.0,122.0,-1.0,113.0,-57.0,127.0,127.0,127.0,3.0,3.0,-62.0
127.0,125.0,124.0,127.0,127.0,127.0,107.0,122.0,-1.0,113.0,-57.0,127.0,127.0,127.0,3.0,3.0,-62.0
127.0,125.0,124.0,127.0,127.0,127.0,106.0,122.0,-1.0,113.0,-57.0,127.0,127.0,127.0,3.0,3.0,-62.0
127.0,125.0,124.0,127.0,127.0,127.0,106.0,122.0,-1.0,113.0,-57.0,127.0,127.0,127.0,3.0,3.0,-62.0
127.0,124.0,124.0,127.0,127.0,127.0,106.0,122.0,-1.0,113.0,-57.0,127.0,127.0,127.0,3.0,3.0,-62.0
127.0,125.0,124.0,127.0,127.0,127.0,106.0,122.0,-1.0,113.0,-57.0,127.0,127.0,127.0,3.0,3.0,-62.0
127.0,125.0,123.0,127.0,127.0,128.0,106.0,123.0,-1.0,113.0,-57.0,127.0,127.0,127.0,3.0,3.0,-62.0
127.0,125.0,123.0,127.0,127.0,128.0,107.0,123.0,-1.0,113.0,-57.0,127.0,127.0,127.0,3.0,3.0,-62.0
127.0,125.0,125.0,127.0,127.0,126.0,110.0,122.0,-1.0,113.0,-57.0,127.0,127.0,127.0,3.0,3.0,-62.0
127.0,125.0,125.0,127.0,127.0,125.0,110.0,122.0,-1.0,113.0,-57.0,127.0,127.0,127.0,3.0,3.0,-62.0
127.0,125.0,125.0,127.0,127.0,125.0,111.0,122.0,-1.0,113.0,-57.0,127.0,127.0,127.0,3.0,3.0,-62.0
126.0,125.0,125.0,127.0,127.0,125.0,111.0,122.0,-1.0,113.0,-57.0,127.0,127.0,127.0,3.0,3.0,-62.0
126.0,125.0,125.0,127.0,127.0,125.0,111.0,122.0,-1.0,113.0,-57.0,127.0,127.0,127.0,3.0,3.0,-62.0
126.0,125.0,125.0,127.0,127.0,126.0,111.0,122.0,-1.0,113.0,-57.0,127.0,127.0,127.0,3.0,3.0,-62.0
126.0,125.0,125.0,127.0,127.0,126.0,110.0,122.0,-1.0,113.0,-57.0,127.0,127.0,127.0,3.0,3.0,-62.0
126.0,125.0,125.0,127.0,127.0,126.0,111.0,123.0,-1.0,113.0,-57.0,127.0,127.0,127.0,3.0,3.0,-62.0
126.0,125.0,124.0,127.0,127.0,126.0,111.0,123.0,-1.0,113.0,-57.0,127.0,127.0,127.0,3.0,3.0,-62.0
126.0,125.0,124.0,127.0,127.0,126.0,112.0,123.0,-1.0,113.0,-57.0,127.0,127.0,127.0,3.0,3.0,-62.0
127.0,124.0,126.0,127.0,126.0,125.0,109.0,123.0,-1.0,113.0,-57.0,127.0,127.0,127.0,3.0,3.0,-62.0
127.0,124.0,126.0,127.0,126.0,125.0,109.0,123.0,-1.0,113.0,-57.0,127.0,127.0,127.0,3.0,3.0,-62.0
127.0,124.0,126.0,127.0,126.0,125.0,109.0,123.0,-1.0,113.0,-57.0,127.0,127.0,127.0,3.0,3.0,-62.0
127.0,124.0,126.0,127.0,126.0,125.0,109.0,124.0,-1.0,113.0,-57.0,127.0,127.0,127.0,3.0,3.0,-62.0
127.0,124.0,126.0,127.0,126.0,125.0,110.0,124.0,-1.0,113.0,-57.0,127.0,127.0,127.0,3.0,3.0,-62.0
127.0,124.0,126.0,127.0,126.0,125.0,110.0,124.0,-1.0,113.0,-57.0,127.0,127.0,127.0,3.0,3.0,-62.0
127.0,124.0,126.0,127.0,127.0,125.0,110.0,124.0,-1.0,113.0,-57.0,127.0,127.0,127.0,3.0,3.0,-62.0
127.0,124.0,126.0,127.0,127.0,125.0,109.0,124.0,-1.0,113.0,-57.0,127.0,127.0,127.0,3.0,3.0,-62.0
127.0,125.0,125.0,127.0,127.0,125.0,110.0,124.0,-1.0,113.0,-57.0,127.0,127.0,127.0,3.0,3.0,-62.0
127.0,124.0,126.0,127.0,126.0,124.0,109.0,123.0,-1.0,113.0,-57.0,127.0,127.0,127.0,3.0,3.0,-62.0
127.0,124.0,127.0,127.0,126.0,124.0,109.0,124.0,-1.0,113.0,-57.0,127.0,127.0,127.0,3.0,3.0,-62.0
127.0,124.0,127.0,127.0,126.0,124.0,109.0,124.0,-1.0,113.0,-57.0,127.0,127.0,127.0,3.0,3.0,-62.0
127.0,124.0,127.0,127.0,126.0,124.0,109.0,124.0,-1.0,113.0,-57.0,127.0,127.0,127.0,3.0,3.0,-62.0
126.0,124.0,127.0,127.0,126.0,124.0,109.0,124.0,-1.0,113.0,-57.0,127.0,127.0,127.0,3.0,3.0,-62.0
126.0,125.0,127.0,127.0,126.0,124.0,109.0,125.0,-1.0,113.0,-57.0,127.0,127.0,127.0,3.0,3.0,-62.0
126.0,125.0,127.0,127.0,126.0,125.0,109.0,125.0,-1.0,113.0,-57.0,127.0,127.0,127.0,3.0,3.0,-62.0
126.0,125.0,126.0,127.0,126.0,124.0,109.0,125.0,-1.0,113.0,-57.0,127.0,127.0,127.0,3.0,3.0,-62.0
126.0,125.0,126.0,127.0,126.0,125.0,109.0,125.0,-1.0,113.0,-57.0,127.0,127.0,127.0,3.0,3.0,-62.0
127.0,124.0,127.0,127.0,126.0,124.0,109.0,124.0,-1.0,113.0,-57.0,127.0,127.0,127.0,3.0,3.0,-62.0
127.0,124.0,127.0,127.0,126.0,124.0,108.0,124.0,-1.0,113.0,-57.0,127.0,127.0,127.0,3.0,3.0,-62.0
127.0,124.0,128.0,127.0,125.0,124.0,108.0,125.0,-1.0,113.0,-57.0,127.0,127.0,127.0,3.0,3.0,-62.0
127.0,124.0,128.0,127.0,125.0,124.0,108.0,125.0,-1.0,113.0,-57.0,127.0,127.0,127.0,3.0,3.0,-62.0
127.0,124.0,128.0,127.0,125.0,124.0,108.0,125.0,-1.0,113.0,-57.0,127.0,127.0,127.0,3.0,3.0,-62.0
127.0,125.0,128.0,127.0,126.0,124.0,108.0,125.0,-1.0,113.0,-57.0,127.0,127.0,127.0,3.0,3.0,-62.0
127.0,125.0,127.0,127.0,126.0,124.0,108.0,125.0,-1.0,113.0,-57.0,127.0,127.0,127.0,3.0,3.0,-62.0
127.0,125.0,127.0,127.0,126.0,124.0,109.0,125.0,-1.0,113.0,-57.0,127.0,127.0,127.0,3.0,3.0,-62.0
127.0,125.0,127.0,127.0,126.0,124.0,109.0,125.0,-1.0,113.0,-57.0,127.0,127.0,127.0,3.0,3.0,-62.0
127.0,124.0,128.0,127.0,125.0,124.0,108.0,125.0,-1.0,113.0,-57.0,127.0,127.0,127.0,3.0,3.0,-62.0
127.0,124.0,128.0,127.0,125.0,124.0,108.0,125.0,-1.0,113.0,-57.0,127.0,127.0,127.0,3.0,3.0,-62.0
127.0,124.0,128.0,127.0,125.0,124.0,108.0,125.0,-1.0,113.0,-57.0,127.0,127.0,127.0,3.0,3.0,-62.0
127.0,124.0,129.0,127.0,126.0,124.0,108.0,125.0,-1.0,113.0,-58.0,127.0,127.0,127.0,54.0,54.0,-62.0
126.0,124.0,129.0,127.0,126.0,124.0,108.0,125.0,-1.0,113.0,-58.0,127.0,127.0,127.0,54.0,54.0,-62.0
126.0,125.0,128.0,127.0,126.0,124.0,108.0,125.0,-1.0,113.0,-58.0,127.0,127.0,127.0,54.0,54.0,-62.0
127.0,125.0,128.0,127.0,126.0,124.0,109.0,125.0,-1.0,113.0,-58.0,127.0,127.0,127.0,54.0,54.0,-62.0
126.0,125.0,128.0,127.0,126.0,124.0,109.0,125.0,-1.0,113.0,-58.0,127.0,127.0,127.0,54.0,54.0,-62.0
126.0,125.0,128.0,127.0,126.0,125.0,109.0,125.0,-1.0,113.0,-58.0,127.0,127.0,127.0,54.0,54.0,-62.0
127.0,124.0,129.0,127.0,126.0,124.0,108.0,125.0,-1.0,113.0,-58.0,127.0,127.0,127.0,54.0,54.0,-62.0
127.0,124.0,129.0,127.0,126.0,124.0,108.0,125.0,-1.0,113.0,-58.0,127.0,127.0,127.0,54.0,54.0,-62.0
127.0,124.0,129.0,127.0,126.0,124.0,108.0,125.0,-1.0,113.0,-58.0,127.0,127.0,127.0,54.0,54.0,-62.0
127.0,124.0,129.0,127.0,126.0,124.0,108.0,124.0,-1.0,113.0,-58.0,127.0,127.0,127.0,54.0,54.0,-62.0
126.0,124.0,128.0,127.0,126.0,124.0,109.0,125.0,-1.0,113.0,-58.0,127.0,127.0,127.0,44.0,44.0,-62.0
127.0,125.0,128.0,127.0,126.0,124.0,109.0,125.0,-1.0,113.0,-58.0,127.0,127.0,127.0,44.0,44.0,-62.0
127.0,125.0,128.0,127.0,126.0,124.0,109.0,125.0,-1.0,113.0,-58.0,127.0,127.0,127.0,44.0,44.0,-62.0
127.0,125.0,128.0,127.0,126.0,124.0,109.0,125.0,-1.0,113.0,-58.0,127.0,127.0,127.0,44.0,44.0,-62.0
127.0,125.0,127.0,127.0,126.0,125.0,109.0,125.0,-1.0,113.0,-58.0,127.0,127.0,127.0,44.0,44.0,-62.0
126.0,124.0,128.0,127.0,126.0,124.0,108.0,125.0,-1.0,113.0,-58.0,127.0,127.0,127.0,44.0,44.0,-62.0
126.0,124.0,128.0,127.0,126.0,124.0,108.0,125.0,-1.0,113.0,-58.0,127.0,127.0,127.0,44.0,44.0,-62.0
126.0,124.0,128.0,127.0,126.0,124.0,108.0,125.0,-1.0,113.0,-58.0,127.0,127.0,127.0,44.0,44.0,-62.0
126.0,124.0,128.0,127.0,126.0,124.0,108.0,125.0,-1.0,113.0,-58.0,127.0,127.0,127.0,44.0,44.0,-62.0
126.0,124.0,128.0,127.0,126.0,124.0,108.0,125.0,-1.0,113.0,-58.0,127.0,127.0,127.0,44.0,44.0,-62.0
126.0,125.0,129.0,127.0,126.0,125.0,110.0,125.0,-1.0,113.0,-58.0,127.0,127.0,127.0,35.0,35.0,-62.0
127.0,125.0,129.0,127.0,126.0,125.0,110.0,125.0,-1.0,113.0,-58.0,127.0,127.0,127.0,35.0,35.0,-62.0
127.0,125.0,129.0,127.0,126.0,125.0,110.0,125.0,-1.0,113.0,-58.0,127.0,127.0,127.0,35.0,35.0,-62.0
127.0,125.0,129.0,127.0,126.0,125.0,110.0,125.0,-1.0,113.0,-58.0,127.0,127.0,127.0,35.0,35.0,-62.0
127.0,124.0,129.0,127.0,126.0,125.0,110.0,125.0,-1.0,113.0,-58.0,127.0,127.0,127.0,35.0,35.0,-62.0
127.0,124.0,129.0,127.0,126.0,125.0,109.0,125.0,-1.0,113.0,-58.0,127.0,127.0,127.0,35.0,35.0,-62.0
127.0,124.0,129.0,127.0,126.0,125.0,110.0,125.0,-1.0,113.0,-58.0,127.0,127.0,127.0,35.0,35.0,-62.0
127.0,124.0,129.0,127.0,126.0,125.0,110.0,125.0,-1.0,113.0,-58.0,127.0,127.0,127.0,35.0,35.0,-62.0
127.0,124.0,129.0,127.0,126.0,125.0,110.0,125.0,-1.0,113.0,-58.0,127.0,127.0,127.0,35.0,35.0,-62.0
126.0,125.0,129.0,127.0,126.0,125.0,110.0,125.0,-1.0,113.0,-58.0,127.0,127.0,127.0,35.0,35.0,-62.0
127.0,125.0,128.0,127.0,126.0,125.0,109.0,125.0,-1.0,113.0,-58.0,127.0,127.0,127.0,29.0,29.0,-62.0
127.0,125.0,128.0,127.0,126.0,125.0,110.0,126.0,-1.0,113.0,-58.0,127.0,127.0,127.0,29.0,29.0,-62.0
127.0,126.0,128.0,127.0,127.0,125.0,109.0,126.0,-1.0,113.0,-58.0,127.0,127.0,127.0,29.0,29.0,-62.0
127.0,124.0,129.0,127.0,126.0,125.0,110.0,125.0,-1.0,113.0,-58.0,127.0,127.0,127.0,29.0,29.0,-62.0
127.0,124.0,129.0,127.0,126.0,125.0,110.0,125.0,-1.0,113.0,-58.0,127.0,127.0,127.0,29.0,29.0,-62.0
127.0,124.0,129.0,127.0,126.0,125.0,110.0,125.0,-1.0,113.0,-58.0,127.0,127.0,127.0,29.0,29.0,-62.0
127.0,125.0,129.0,127.0,126.0,125.0,110.0,125.0,-1.0,113.0,-58.0,127.0,127.0,127.0,29.0,29.0,-62.0
127.0,125.0,129.0,127.0,126.0,125.0,109.0,125.0,-1.0,113.0,-58.0,127.0,127.0,127.0,29.0,29.0,-62.0
127.0,125.0,129.0,127.0,126.0,125.0,109.0,125.0,-1.0,113.0,-58.0,127.0,127.0,127.0,29.0,29.0,-62.0
127.0,125.0,129.0,127.0,126.0,125.0,109.0,125.0,-1.0,113.0,-58.0,127.0,127.0,127.0,29.0,29.0,-62.0
126.0,125.0,128.0,127.0,125.0,125.0,109.0,126.0,-1.0,113.0,-58.0,127.0,127.0,127.0,23.0,23.0,-62.0
126.0,125.0,128.0,127.0,126.0,125.0,109.0,126.0,-1.0,113.0,-58.0,127.0,127.0,127.0,23.0,23.0,-62.0
127.0,124.0,129.0,127.0,125.0,125.0,109.0,126.0,-1.0,113.0,-58.0,127.0,127.0,127.0,23.0,23.0,-62.0
127.0,124.0,129.0,127.0,125.0,125.0,109.0,126.0,-1.0,113.0,-58.0,127.0,127.0,127.0,23.0,23.0,-62.0
127.0,124.0,129.0,127.0,125.0,125.0,109.0,126.0,-1.0,113.0,-58.0,127.0,127.0,127.0,23.0,23.0,-62.0
127.0,124.0,129.0,127.0,125.0,124.0,109.0,126.0,-1.0,113.0,-58.0,127.0,127.0,127.0,23.0,23.0,-62.0
127.0,124.0,129.0,127.0,125.0,124.0,109.0,126.0,-1.0,113.0,-58.0,127.0,127.0,127.0,23.0,23.0,-62.0
127.0,124.0,129.0,127.0,125.0,124.0,109.0,126.0,-1.0,113.0,-58.0,127.0,127.0,127.0,23.0,23.0,-62.0
126.0,124.0,128.0,127.0,125.0,125.0,109.0,126.0,-1.0,113.0,-58.0,127.0,127.0,127.0,23.0,23.0,-62.0
126.0,125.0,128.0,127.0,125.0,125.0,109.0,126.0,-1.0,113.0,-58.0,127.0,127.0,127.0,23.0,23.0,-62.0
127.0,125.0,128.0,127.0,126.0,125.0,109.0,126.0,-1.0,113.0,-58.0,127.0,127.0,127.0,19.0,19.0,-62.0
127.0,124.0,128.0,127.0,126.0,124.0,109.0,126.0,-1.0,113.0,-58.0,127.0,127.0,127.0,19.0,19.0,-62.0
127.0,124.0,128.0,127.0,126.0,124.0,109.0,126.0,-1.0,113.0,-58.0,127.0,127.0,127.0,19.0,19.0,-62.0
127.0,124.0,129.0,127.0,126.0,124.0,109.0,126.0,-1.0,113.0,-58.0,127.0,127.0,127.0,19.0,19.0,-62.0
127.0,124.0,128.0,127.0,126.0,124.0,108.0,126.0,-1.0,113.0,-58.0,127.0,127.0,127.0,19.0,19.0,-62.0
127.0,125.0,128.0,127.0,126.0,124.0,109.0,126.0,-1.0,113.0,-58.0,127.0,127.0,127.0,19.0,19.0,-62.0
127.0,125.0,128.0,127.0,126.0,124.0,109.0,126.0,-1.0,113.0,-58.0,127.0,127.0,127.0,19.0,19.0,-62.0
127.0,125.0,128.0,127.0,126.0,124.0,109.0,126.0,-1.0,113.0,-58.0,127.0,127.0,127.0,19.0,19.0,-62.0
127.0,125.0,128.0,127.0,126.0,125.0,109.0,126.0,-1.0,113.0,-58.0,127.0,127.0,127.0,19.0,19.0,-62.0
127.0,125.0,128.0,127.0,126.0,125.0,109.0,126.0,-1.0,113.0,-58.0,127.0,127.0,127.0,19.0,19.0,-62.0
127.0,124.0,129.0,127.0,125.0,124.0,109.0,127.0,-1.0,114.0,-58.0,127.0,127.0,127.0,15.0,15.0,-62.0
127.0,124.0,129.0,127.0,125.0,124.0,109.0,126.0,-1.0,114.0,-58.0,127.0,127.0,127.0,15.0,15.0,-62.0
127.0,124.0,129.0,127.0,125.0,125.0,109.0,127.0,-1.0,114.0,-58.0,127.0,127.0,127.0,15.0,15.0,-62.0
127.0,124.0,129.0,127.0,125.0,125.0,109.0,126.0,-1.0,114.0,-58.0,127.0,127.0,127.0,15.0,15.0,-62.0
127.0,124.0,129.0,127.0,125.0,125.0,109.0,126.0,-1.0,114.0,-58.0,127.0,127.0,127.0,15.0,15.0,-62.0
126.0,125.0,129.0,127.0,125.0,125.0,109.0,126.0,-1.0,114.0,-58.0,127.0,127.0,127.0,15.0,15.0,-62.0
126.0,125.0,129.0,127.0,125.0,125.0,109.0,126.0,-1.0,114.0,-58.0,127.0,127.0,127.0,15.0,15.0,-62.0
126.0,125.0,128.0,127.0,126.0,124.0,109.0,127.0,-1.0,114.0,-58.0,127.0,127.0,127.0,15.0,15.0,-62.0
126.0,125.0,128.0,127.0,126.0,125.0,109.0,127.0,-1.0,114.0,-58.0,127.0,127.0,127.0,15.0,15.0,-62.0
126.0,125.0,128.0,127.0,126.0,125.0,109.0,127.0,-1.0,114.0,-58.0,127.0,127.0,127.0,15.0,15.0,-62.0
126.0,124.0,130.0,127.0,125.0,125.0,110.0,127.0,-1.0,114.0,-58.0,127.0,127.0,127.0,12.0,12.0,-62.0
126.0,124.0,130.0,127.0,125.0,125.0,110.0,127.0,-1.0,114.0,-58.0,127.0,127.0,127.0,12.0,12.0,-62.0
126.0,124.0,130.0,127.0,125.0,125.0,110.0,127.0,-1.0,114.0,-58.0,127.0,127.0,127.0,12.0,12.0,-62.0
126.0,124.0,130.0,127.0,125.0,125.0,110.0,127.0,-1.0,114.0,-58.0,127.0,127.0,127.0,12.0,12.0,-62.0
127.0,124.0,129.0,127.0,125.0,125.0,110.0,127.0,-1.0,114.0,-58.0,127.0,127.0,127.0,12.0,12.0,-62.0
127.0,124.0,129.0,127.0,125.0,125.0,110.0,127.0,-1.0,114.0,-58.0,127.0,127.0,127.0,12.0,12.0,-62.0
127.0,124.0,129.0,127.0,125.0,125.0,110.0,127.0,-1.0,114.0,-58.0,127.0,127.0,127.0,12.0,12.0,-62.0
127.0,124.0,129.0,127.0,125.0,125.0,110.0,127.0,-1.0,114.0,-58.0,127.0,127.0,127.0,12.0,12.0,-62.0
127.0,125.0,129.0,127.0,126.0,125.0,110.0,127.0,-1.0,114.0,-58.0,127.0,127.0,127.0,12.0,12.0,-62.0
126.0,124.0,129.0,127.0,125.0,125.0,110.0,127.0,-1.0,114.0,-58.0,127.0,127.0,127.0,12.0,12.0,-62.0
127.0,124.0,129.0,127.0,125.0,125.0,109.0,126.0,-1.0,114.0,-59.0,127.0,127.0,127.0,10.0,10.0,-62.0
127.0,124.0,129.0,127.0,125.0,125.0,109.0,126.0,-1.0,114.0,-59.0,127.0,127.0,127.0,10.0,10.0,-62.0
127.0,124.0,129.0,127.0,125.0,125.0,109.0,126.0,-1.0,114.0,-59.0,127.0,127.0,127.0,10.0,10.0,-62.0
126.0,124.0,129.0,127.0,125.0,125.0,109.0,126.0,-1.0,114.0,-59.0,127.0,127.0,127.0,10.0,10.0,-62.0
126.0,124.0,129.0,127.0,125.0,125.0,109.0,127.0,-1.0,114.0,-59.0,127.0,127.0,127.0,10.0,10.0,-62.0
126.0,124.0,129.0,127.0,125.0,125.0,109.0,127.0,-1.0,114.0,-59.0,127.0,127.0,127.0,10.0,10.0,-62.0
126.0,124.0,129.0,127.0,125.0,125.0,109.0,127.0,-1.0,114.0,-59.0,127.0,127.0,127.0,10.0,10.0,-62.0
126.0,125.0,129.0,127.0,125.0,125.0,110.0,127.0,-1.0,114.0,-59.0,127.0,127.0,127.0,10.0,10.0,-62.0
127.0,124.0,129.0,127.0,126.0,125.0,109.0,127.0,-1.0,114.0,-59.0,127.0,127.0,127.0,10.0,10.0,-62.0
127.0,124.0,129.0,127.0,125.0,125.0,109.0,127.0,-1.0,114.0,-59.0,127.0,127.0,127.0,10.0,10.0,-62.0
126.0,124.0,129.0,127.0,125.0,125.0,110.0,127.0,-1.0,114.0,-59.0,127.0,127.0,127.0,9.0,9.0,-62.0
126.0,124.0,129.0,127.0,125.0,125.0,110.0,127.0,-1.0,114.0,-59.0,127.0,127.0,127.0,9.0,9.0,-62.0
126.0,124.0,129.0,127.0,125.0,125.0,109.0,127.0,-1.0,114.0,-59.0,127.0,127.0,127.0,9.0,9.0,-62.0
126.0,124.0,129.0,127.0,125.0,125.0,110.0,127.0,-1.0,114.0,-59.0,127.0,127.0,127.0,9.0,9.0,-62.0
127.0,124.0,129.0,127.0,125.0,125.0,110.0,127.0,-1.0,114.0,-59.0,127.0,127.0,127.0,9.0,9.0,-62.0
126.0,125.0,129.0,127.0,125.0,125.0,110.0,127.0,-1.0,114.0,-59.0,127.0,127.0,127.0,9.0,9.0,-62.0
126.0,125.0,129.0,127.0,126.0,125.0,110.0,127.0,-1.0,114.0,-59.0,127.0,127.0,127.0,9.0,9.0,-62.0
126.0,124.0,129.0,127.0,125.0,125.0,110.0,127.0,-1.0,114.0,-59.0,127.0,127.0,127.0,9.0,9.0,-62.0
126.0,124.0,129.0,127.0,125.0,125.0,110.0,127.0,-1.0,114.0,-59.0,127.0,127.0,127.0,9.0,9.0,-62.0
126.0,124.0,129.0,127.0,125.0,125.0,110.0,127.0,-1.0,114.0,-59.0,127.0,127.0,127.0,9.0,9.0,-62.0
127.0,124.0,129.0,127.0,126.0,125.0,110.0,127.0,-1.0,114.0,-59.0,127.0,127.0,127.0,58.0,58.0,-62.0
126.0,124.0,129.0,127.0,126.0,125.0,110.0,127.0,-1.0,114.0,-59.0,127.0,127.0,127.0,58.0,58.0,-62.0
126.0,124.0,129.0,127.0,126.0,125.0,110.0,127.0,-1.0,114.0,-59.0,127.0,127.0,127.0,58.0,58.0,-62.0
126.0,125.0,129.0,127.0,126.0,125.0,110.0,127.0,-1.0,114.0,-59.0,127.0,127.0,127.0,58.0,58.0,-62.0
126.0,125.0,129.0,127.0,126.0,125.0,110.0,127.0,-1.0,114.0,-59.0,127.0,127.0,127.0,58.0,58.0,-62.0
126.0,125.0,128.0,127.0,126.0,125.0,110.0,127.0,-1.0,114.0,-59.0,127.0,127.0,127.0,58.0,58.0,-62.0
127.0,124.0,129.0,127.0,126.0,125.0,110.0,127.0,-1.0,114.0,-59.0,127.0,127.0,127.0,58.0,58.0,-62.0
127.0,124.0,129.0,127.0,126.0,125.0,110.0,127.0,-1.0,114.0,-59.0,127.0,127.0,127.0,58.0,58.0,-62.0
127.0,124.0,129.0,127.0,126.0,125.0,110.0,127.0,-1.0,114.0,-59.0,127.0,127.0,127.0,58.0,58.0,-62.0
127.0,124.0,129.0,127.0,126.0,125.0,110.0,127.0,-1.0,114.0,-59.0,127.0,127.0,127.0,58.0,58.0,-62.0
127.0,124.0,130.0,127.0,125.0,125.0,110.0,127.0,-1.0,114.0,-59.0,127.0,127.0,127.0,47.0,47.0,-62.0
127.0,124.0,130.0,127.0,126.0,125.0,110.0,127.0,-1.0,114.0,-59.0,127.0,127.0,127.0,47.0,47.0,-62.0
127.0,124.0,129.0,127.0,126.0,125.0,110.0,127.0,-1.0,114.0,-59.0,127.0,127.0,127.0,47.0,47.0,-62.0
127.0,124.0,129.0,127.0,126.0,125.0,110.0,127.0,-1.0,114.0,-59.0,127.0,127.0,127.0,47.0,47.0,-62.0
127.0,124.0,129.0,127.0,126.0,125.0,109.0,127.0,-1.0,114.0,-59.0,127.0,127.0,127.0,47.0,47.0,-62.0
126.0,124.0,129.0,127.0,126.0,125.0,110.0,127.0,-1.0,114.0,-59.0,127.0,127.0,127.0,47.0,47.0,-62.0
127.0,124.0,130.0,127.0,125.0,125.0,110.0,127.0,-1.0,114.0,-59.0,127.0,127.0,127.0,47.0,47.0,-62.0
127.0,124.0,130.0,127.0,125.0,125.0,110.0,127.0,-1.0,114.0,-59.0,127.0,127.0,127.0,47.0,47.0,-62.0
127.0,124.0,130.0,127.0,125.0,125.0,110.0,127.0,-1.0,114.0,-59.0,127.0,127.0,127.0,47.0,47.0,-62.0
127.0,124.0,130.0,127.0,125.0,125.0,110.0,127.0,-1.0,114.0,-59.0,127.0,127.0,127.0,47.0,47.0,-62.0
126.0,124.0,129.0,127.0,125.0,125.0,110.0,127.0,-1.0,114.0,-59.0,127.0,127.0,127.0,38.0,38.0,-62.0
126.0,124.0,129.0,127.0,125.0,125.0,110.0,127.0,-1.0,114.0,-59.0,127.0,127.0,127.0,38.0,38.0,-62.0
126.0,124.0,129.0,127.0,125.0,125.0,110.0,127.0,-1.0,114.0,-59.0,127.0,127.0,127.0,38.0,38.0,-62.0
127.0,125.0,129.0,127.0,126.0,125.0,110.0,127.0,-1.0,114.0,-59.0,127.0,127.0,127.0,38.0,38.0,-62.0
127.0,124.0,129.0,127.0,125.0,125.0,109.0,127.0,-1.0,114.0,-59.0,127.0,127.0,127.0,38.0,38.0,-62.0
127.0,124.0,129.0,127.0,125.0,125.0,109.0,127.0,-1.0,114.0,-59.0,127.0,127.0,127.0,38.0,38.0,-62.0
127.0,124.0,129.0,127.0,125.0,125.0,109.0,127.0,-1.0,114.0,-59.0,127.0,127.0,127.0,38.0,38.0,-62.0
127.0,124.0,129.0,127.0,125.0,125.0,109.0,127.0,-1.0,114.0,-59.0,127.0,127.0,127.0,38.0,38.0,-62.0
126.0,124.0,129.0,127.0,125.0,125.0,109.0,127.0,-1.0,114.0,-59.0,127.0,127.0,127.0,38.0,38.0,-62.0
126.0,124.0,129.0,127.0,125.0,125.0,110.0,127.0,-1.0,114.0,-59.0,127.0,127.0,127.0,38.0,38.0,-62.0
127.0,124.0,129.0,127.0,126.0,125.0,110.0,127.0,-1.0,114.0,-59.0,127.0,127.0,127.0,31.0,31.0,-62.0
127.0,124.0,129.0,127.0,126.0,125.0,110.0,127.0,-1.0,114.0,-59.0,127.0,127.0,127.0,31.0,31.0,-62.0
127.0,125.0,128.0,127.0,126.0,125.0,110.0,127.0,-1.0,114.0,-59.0,127.0,127.0,127.0,31.0,31.0,-62.0
126.0,124.0,129.0,127.0,126.0,125.0,110.0,127.0,-1.0,114.0,-59.0,127.0,127.0,127.0,31.0,31.0,-62.0
126.0,124.0,129.0,127.0,126.0,125.0,110.0,127.0,-1.0,114.0,-59.0,127.0,127.0,127.0,31.0,31.0,-62.0
127.0,124.0,129.0,127.0,125.0,125.0,110.0,127.0,-1.0,114.0,-59.0,127.0,127.0,127.0,31.0,31.0,-62.0
127.0,124.0,129.0,127.0,125.0,125.0,110.0,127.0,-1.0,114.0,-59.0,127.0,127.0,127.0,31.0,31.0,-62.0
127.0,124.0,129.0,127.0,125.0,125.0,110.0,127.0,-1.0,114.0,-59.0,127.0,127.0,127.0,31.0,31.0,-62.0
127.0,124.0,129.0,127.0,126.0,125.0,109.0,127.0,-1.0,114.0,-59.0,127.0,127.0,127.0,31.0,31.0,-62.0
127.0,124.0,129.0,127.0,126.0,125.0,109.0,127.0,-1.0,114.0,-59.0,127.0,127.0,127.0,31.0,31.0,-62.0
127.0,124.0,129.0,127.0,126.0,125.0,111.0,128.0,-1.0,114.0,-59.0,127.0,127.0,127.0,76.0,76.0,-62.0
127.0,124.0,129.0,127.0,126.0,126.0,111.0,128.0,-1.0,114.0,-59.0,127.0,127.0,127.0,76.0,76.0,-62.0
127.0,124.0,129.0,127.0,126.0,125.0,110.0,128.0,-1.0,114.0,-59.0,127.0,127.0,127.0,76.0,76.0,-62.0
127.0,124.0,129.0,127.0,126.0,125.0,110.0,128.0,-1.0,114.0,-59.0,127.0,127.0,127.0,76.0,76.0,-62.0
127.0,124.0,129.0,127.0,126.0,125.0,110.0,128.0,-1.0,114.0,-59.0,127.0,127.0,127.0,76.0,76.0,-62.0
127.0,124.0,129.0,127.0,126.0,125.0,110.0,128.0,-1.0,114.0,-59.0,127.0,127.0,127.0,76.0,76.0,-62.0
127.0,124.0,129.0,127.0,126.0,125.0,110.0,128.0,-1.0,114.0,-59.0,127.0,127.0,127.0,76.0,76.0,-62.0
127.0,124.0,129.0,127.0,126.0,125.0,110.0,128.0,-1.0,114.0,-59.0,127.0,127.0,127.0,76.0,76.0,-62.0
127.0,124.0,129.0,127.0,126.0,125.0,110.0,128.0,-1.0,114.0,-59.0,127.0,127.0,127.0,76.0,76.0,-62.0
127.0,124.0,129.0,127.0,126.0,125.0,111.0,128.0,-1.0,114.0,-59.0,127.0,127.0,127.0,76.0,76.0,-62.0
127.0,124.0,129.0,127.0,125.0,125.0,111.0,128.0,-1.0,114.0,-59.0,127.0,127.0,127.0,61.0,61.0,-62.0
126.0,124.0,129.0,127.0,125.0,125.0,111.0,128.0,-1.0,114.0,-59.0,127.0,127.0,127.0,61.0,61.0,-62.0
127.0,124.0,129.0,127.0,125.0,125.0,111.0,127.0,-1.0,114.0,-59.0,127.0,127.0,127.0,61.0,61.0,-62.0
127.0,124.0,129.0,127.0,125.0,125.0,110.0,127.0,-1.0,114.0,-59.0,127.0,127.0,127.0,61.0,61.0,-62.0
127.0,124.0,129.0,127.0,125.0,125.0,110.0,127.0,-1.0,114.0,-59.0,127.0,127.0,127.0,61.0,61.0,-62.0
127.0,124.0,129.0,127.0,125.0,125.0,110.0,127.0,-1.0,114.0,-59.0,127.0,127.0,127.0,61.0,61.0,-62.0
127.0,124.0,129.0,127.0,125.0,125.0,110.0,127.0,-1.0,114.0,-59.0,127.0,127.0,127.0,61.0,61.0,-62.0
127.0,124.0,129.0,127.0,125.0,125.0,110.0,127.0,-1.0,114.0,-59.0,127.0,127.0,127.0,61.0,61.0,-62.0
127.0,124.0,129.0,127.0,125.0,125.0,110.0,127.0,-1.0,114.0,-59.0,127.0,127.0,127.0,61.0,61.0,-62.0
127.0,124.0,129.0,127.0,125.0,125.0,111.0,127.0,-1.0,114.0,-59.0,127.0,127.0,127.0,61.0,61.0,-62.0
127.0,124.0,129.0,127.0,126.0,125.0,111.0,128.0,-1.0,114.0,-59.0,127.0,127.0,127.0,49.0,49.0,-62.0
127.0,124.0,129.0,127.0,126.0,125.0,111.0,128.0,-1.0,114.0,-59.0,127.0,127.0,127.0,49.0,49.0,-62.0
127.0,124.0,129.0,127.0,126.0,125.0,110.0,127.0,-1.0,114.0,-59.0,127.0,127.0,127.0,49.0,49.0,-62.0
127.0,125.0,129.0,127.0,126.0,125.0,110.0,127.0,-1.0,114.0,-59.0,127.0,127.0,127.0,49.0,49.0,-62.0
127.0,125.0,129.0,127.0,126.0,125.0,110.0,127.0,-1.0,114.0,-59.0,127.0,127.0,127.0,49.0,49.0,-62.0
127.0,125.0,129.0,127.0,126.0,125.0,110.0,127.0,-1.0,114.0,-59.0,127.0,127.0,127.0,49.0,49.0,-62.0
127.0,124.0,129.0,127.0,126.0,125.0,110.0,127.0,-1.0,114.0,-59.0,127.0,127.0,127.0,49.0,49.0,-62.0
127.0,125.0,129.0,127.0,126.0,125.0,110.0,127.0,-1.0,114.0,-59.0,127.0,127.0,127.0,49.0,49.0,-62.0
127.0,125.0,129.0,127.0,126.0,125.0,110.0,127.0,-1.0,114.0,-59.0,127.0,127.0,127.0,49.0,49.0,-62.0
127.0,125.0,128.0,127.0,126.0,125.0,110.0,127.0,-1.0,114.0,-59.0,127.0,127.0,127.0,49.0,49.0,-62.0
127.0,124.0,129.0,127.0,126.0,125.0,110.0,127.0,-1.0,114.0,-59.0,127.0,127.0,127.0,40.0,40.0,-62.0
127.0,124.0,129.0,127.0,126.0,125.0,110.0,127.0,-1.0,114.0,-59.0,127.0,127.0,127.0,40.0,40.0,-62.0
127.0,124.0,129.0,127.0,126.0,125.0,110.0,127.0,-1.0,114.0,-59.0,127.0,127.0,127.0,40.0,40.0,-62.0
127.0,124.0,129.0,127.0,126.0,125.0,110.0,127.0,-1.0,114.0,-59.0,127.0,127.0,127.0,40.0,40.0,-62.0
127.0,124.0,129.0,127.0,126.0,125.0,110.0,126.0,-1.0,114.0,-59.0,127.0,127.0,127.0,40.0,40.0,-62.0
127.0,124.0,129.0,127.0,126.0,125.0,109.0,127.0,-1.0,114.0,-59.0,127.0,127.0,127.0,40.0,40.0,-62.0
127.0,124.0,129.0,127.0,126.0,125.0,109.0,127.0,-1.0,114.0,-59.0,127.0,127.0,127.0,40.0,40.0,-62.0
127.0,125.0,129.0,127.0,126.0,125.0,110.0,127.0,-1.0,114.0,-59.0,127.0,127.0,127.0,40.0,40.0,-62.0
127.0,125.0,129.0,127.0,126.0,125.0,110.0,127.0,-1.0,114.0,-59.0,127.0,127.0,127.0,40.0,40.0,-62.0
127.0,125.0,128.0,127.0,126.0,125.0,110.0,127.0,-1.0,114.0,-59.0,127.0,127.0,127.0,40.0,40.0,-62.0
127.0,124.0,129.0,127.0,125.0,125.0,111.0,127.0,-1.0,114.0,-59.0,127.0,127.0,127.0,32.0,32.0,-62.0
127.0,124.0,129.0,127.0,125.0,125.0,111.0,127.0,-1.0,114.0,-59.0,127.0,127.0,127.0,32.0,32.0,-62.0
127.0,124.0,129.0,127.0,125.0,125.0,111.0,127.0,-1.0,114.0,-59.0,127.0,127.0,127.0,32.0,32.0,-62.0
126.0,124.0,129.0,127.0,125.0,125.0,111.0,127.0,-1.0,114.0,-59.0,127.0,127.0,127.0,32.0,32.0,-62.0
126.0,124.0,129.0,127.0,125.0,125.0,111.0,127.0,-1.0,114.0,-59.0,127.0,127.0,127.0,32.0,32.0,-62.0
127.0,125.0,129.0,127.0,125.0,125.0,111.0,127.0,-1.0,114.0,-59.0,127.0,127.0,127.0,32.0,32.0,-62.0
127.0,125.0,129.0,127.0,125.0,125.0,111.0,127.0,-1.0,114.0,-59.0,127.0,127.0,127.0,32.0,32.0,-62.0
127.0,125.0,129.0,127.0,125.0,125.0,111.0,127.0,-1.0,114.0,-59.0,127.0,127.0,127.0,32.0,32.0,-62.0
127.0,124.0,129.0,127.0,125.0,126.0,111.0,127.0,-1.0,114.0,-59.0,127.0,127.0,127.0,32.0,32.0,-62.0
127.0,124.0,129.0,127.0,125.0,125.0,111.0,127.0,-1.0,114.0,-59.0,127.0,127.0,127.0,32.0,32.0,-62.0
127.0,124.0,129.0,127.0,125.0,126.0,111.0,127.0,-1.0,114.0,-59.0,127.0,127.0,127.0,77.0,77.0,-62.0
127.0,124.0,129.0,127.0,125.0,126.0,111.0,127.0,-1.0,114.0,-59.0,127.0,127.0,127.0,77.0,77.0,-62.0
127.0,124.0,129.0,127.0,125.0,126.0,111.0,127.0,-1.0,114.0,-59.0,127.0,127.0,127.0,77.0,77.0,-62.0
127.0,124.0,129.0,127.0,125.0,126.0,111.0,127.0,-1.0,114.0,-59.0,127.0,127.0,127.0,77.0,77.0,-62.0
127.0,124.0,129.0,127.0,125.0,126.0,111.0,127.0,-1.0,114.0,-59.0,127.0,127.0,127.0,77.0,77.0,-62.0
127.0,124.0,129.0,127.0,125.0,126.0,111.0,127.0,-1.0,114.0,-59.0,127.0,127.0,127.0,77.0,77.0,-62.0
127.0,124.0,129.0,127.0,125.0,126.0,111.0,127.0,-1.0,114.0,-59.0,127.0,127.0,127.0,77.0,77.0,-62.0
127.0,124.0,129.0,127.0,125.0,126.0,111.0,127.0,-1.0,114.0,-59.0,127.0,127.0,127.0,77.0,77.0,-62.0
127.0,124.0,129.0,127.0,125.0,126.0,111.0,127.0,-1.0,114.0,-59.0,127.0,127.0,127.0,77.0,77.0,-62.0
127.0,124.0,129.0,127.0,125.0,126.0,111.0,127.0,-1.0,114.0,-59.0,127.0,127.0,127.0,77.0,77.0,-62.0
126.0,124.0,129.0,127.0,125.0,126.0,111.0,126.0,-1.0,114.0,-59.0,127.0,127.0,127.0,113.0,113.0,-62.0
126.0,124.0,129.0,127.0,126.0,126.0,111.0,126.0,-1.0,114.0,-59.0,127.0,127.0,127.0,113.0,113.0,-62.0
126.0,124.0,129.0,127.0,125.0,126.0,111.0,126.0,-1.0,114.0,-59.0,127.0,127.0,127.0,113.0,113.0,-62.0
126.0,124.0,129.0,127.0,126.0,126.0,111.0,126.0,-1.0,114.0,-59.0,127.0,127.0,127.0,113.0,113.0,-62.0
127.0,124.0,129.0,127.0,126.0,126.0,111.0,126.0,-1.0,114.0,-59.0,127.0,127.0,127.0,113.0,113.0,-62.0
127.0,124.0,128.0,127.0,126.0,126.0,111.0,127.0,-1.0,114.0,-59.0,127.0,127.0,127.0,113.0,113.0,-62.0
127.0,124.0,128.0,127.0,126.0,126.0,112.0,127.0,-1.0,114.0,-59.0,127.0,127.0,127.0,113.0,113.0,-62.0
127.0,124.0,129.0,127.0,126.0,126.0,112.0,127.0,-1.0,114.0,-59.0,127.0,127.0,127.0,113.0,113.0,-62.0
126.0,124.0,129.0,127.0,126.0,126.0,112.0,127.0,-1.0,114.0,-59.0,127.0,127.0,127.0,113.0,113.0,-62.0
126.0,124.0,129.0,127.0,126.0,126.0,112.0,127.0,-1.0,114.0,-59.0,127.0,127.0,127.0,113.0,113.0,-62.0
127.0,124.0,129.0,127.0,126.0,125.0,110.0,126.0,-1.0,114.0,-59.0,127.0,127.0,127.0,-116.0,-116.0,-62.0
126.0,124.0,128.0,127.0,126.0,125.0,110.0,126.0,-1.0,114.0,-59.0,127.0,127.0,127.0,-116.0,-116.0,-62.0
127.0,125.0,128.0,127.0,126.0,125.0,110.0,126.0,-1.0,114.0,-59.0,127.0,127.0,127.0,-116.0,-116.0,-62.0
127.0,125.0,128.0,127.0,126.0,125.0,110.0,126.0,-1.0,114.0,-59.0,127.0,127.0,127.0,-116.0,-116.0,-62.0
127.0,125.0,128.0,127.0,126.0,125.0,110.0,126.0,-1.0,114.0,-59.0,127.0,127.0,127.0,-116.0,-116.0,-62.0
126.0,124.0,128.0,127.0,126.0,126.0,112.0,127.0,-1.0,114.0,-59.0,127.0,127.0,127.0,-116.0,-116.0,-62.0
126.0,124.0,128.0,127.0,126.0,126.0,111.0,126.0,-1.0,114.0,-59.0,127.0,127.0,127.0,-116.0,-116.0,-62.0
126.0,124.0,129.0,127.0,125.0,126.0,111.0,126.0,-1.0,114.0,-59.0,127.0,127.0,127.0,-116.0,-116.0,-62.0
126.0,124.0,129.0,127.0,125.0,125.0,110.0,126.0,-1.0,114.0,-59.0,127.0,127.0,127.0,-116.0,-116.0,-62.0
127.0,124.0,128.0,127.0,126.0,125.0,110.0,126.0,-1.0,114.0,-59.0,127.0,127.0,127.0,-116.0,-116.0,-62.0
126.0,124.0,129.0,127.0,125.0,125.0,111.0,126.0,-1.0,114.0,-59.0,127.0,127.0,127.0,113.0,113.0,-62.0
126.0,124.0,129.0,127.0,125.0,125.0,111.0,126.0,-1.0,114.0,-59.0,127.0,127.0,127.0,113.0,113.0,-62.0
126.0,124.0,129.0,127.0,125.0,125.0,111.0,126.0,-1.0,114.0,-59.0,127.0,127.0,127.0,113.0,113.0,-62.0
126.0,124.0,129.0,127.0,125.0,125.0,110.0,126.0,-1.0,114.0,-59.0,127.0,127.0,127.0,113.0,113.0,-62.0
127.0,124.0,128.0,127.0,126.0,126.0,111.0,127.0,-1.0,114.0,-59.0,127.0,127.0,127.0,113.0,113.0,-62.0
126.0,124.0,128.0,127.0,125.0,126.0,111.0,127.0,-1.0,114.0,-59.0,127.0,127.0,127.0,113.0,113.0,-62.0
126.0,124.0,129.0,127.0,125.0,126.0,110.0,126.0,-1.0,114.0,-59.0,127.0,127.0,127.0,113.0,113.0,-62.0
126.0,124.0,129.0,127.0,125.0,125.0,111.0,126.0,-1.0,114.0,-59.0,127.0,127.0,127.0,113.0,113.0,-62.0
126.0,124.0,129.0,127.0,125.0,125.0,111.0,126.0,-1.0,114.0,-59.0,127.0,127.0,127.0,113.0,113.0,-62.0
126.0,124.0,129.0,127.0,125.0,125.0,111.0,126.0,-1.0,114.0,-59.0,127.0,127.0,127.0,113.0,113.0,-62.0
127.0,125.0,129.0,127.0,125.0,125.0,110.0,126.0,-1.0,114.0,-59.0,127.0,127.0,127.0,91.0,91.0,-62.0
127.0,125.0,129.0,127.0,125.0,125.0,110.0,126.0,-1.0,114.0,-59.0,127.0,127.0,127.0,91.0,91.0,-62.0
127.0,125.0,129.0,127.0,125.0,125.0,109.0,126.0,-1.0,114.0,-59.0,127.0,127.0,127.0,91.0,91.0,-62.0
127.0,125.0,129.0,127.0,126.0,125.0,111.0,127.0,-1.0,114.0,-59.0,127.0,127.0,127.0,91.0,91.0,-62.0
127.0,124.0,129.0,127.0,126.0,125.0,111.0,127.0,-1.0,114.0,-59.0,127.0,127.0,127.0,91.0,91.0,-62.0
127.0,124.0,129.0,127.0,125.0,125.0,110.0,127.0,-1.0,114.0,-59.0,127.0,127.0,127.0,91.0,91.0,-62.0
127.0,124.0,129.0,127.0,125.0,125.0,110.0,126.0,-1.0,114.0,-59.0,127.0,127.0,127.0,91.0,91.0,-62.0
127.0,124.0,129.0,127.0,125.0,125.0,110.0,126.0,-1.0,114.0,-59.0,127.0,127.0,127.0,91.0,91.0,-62.0
127.0,124.0,129.0,127.0,125.0,125.0,110.0,126.0,-1.0,114.0,-59.0,127.0,127.0,127.0,91.0,91.0,-62.0
127.0,124.0,129.0,127.0,125.0,125.0,110.0,126.0,-1.0,114.0,-59.0,127.0,127.0,127.0,91.0,91.0,-62.0
126.0,124.0,130.0,127.0,125.0,126.0,110.0,126.0,-1.0,114.0,-59.0,127.0,127.0,127.0,124.0,124.0,-62.0
127.0,125.0,130.0,127.0,125.0,126.0,111.0,126.0,-1.0,114.0,-59.0,127.0,127.0,127.0,124.0,124.0,-62.0
127.0,124.0,129.0,127.0,126.0,126.0,111.0,127.0,-1.0,114.0,-59.0,127.0,127.0,127.0,124.0,124.0,-62.0
127.0,125.0,129.0,127.0,126.0,126.0,111.0,127.0,-1.0,114.0,-59.0,127.0,127.0,127.0,124.0,124.0,-62.0
126.0,125.0,130.0,127.0,126.0,126.0,111.0,127.0,-1.0,114.0,-59.0,127.0,127.0,127.0,124.0,124.0,-62.0
126.0,124.0,130.0,127.0,126.0,126.0,111.0,126.0,-1.0,114.0,-59.0,127.0,127.0,127.0,124.0,124.0,-62.0
126.0,124.0,130.0,127.0,126.0,126.0,111.0,126.0,-1.0,114.0,-59.0,127.0,127.0,127.0,124.0,124.0,-62.0
126.0,124.0,130.0,127.0,126.0,126.0,111.0,126.0,-1.0,114.0,-59.0,127.0,127.0,127.0,124.0,124.0,-62.0
126.0,124.0,130.0,127.0,125.0,126.0,111.0,126.0,-1.0,114.0,-59.0,127.0,127.0,127.0,124.0,124.0,-62.0
126.0,124.0,130.0,127.0,125.0,126.0,110.0,126.0,-1.0,114.0,-59.0,127.0,127.0,127.0,124.0,124.0,-62.0
127.0,124.0,129.0,127.0,125.0,125.0,110.0,126.0,-1.0,114.0,-59.0,127.0,127.0,127.0,-107.0,-107.0,-62.0
126.0,124.0,129.0,127.0,126.0,125.0,111.0,127.0,-1.0,114.0,-59.0,127.0,127.0,127.0,-107.0,-107.0,-62.0
127.0,125.0,129.0,127.0,126.0,125.0,110.0,126.0,-1.0,114.0,-59.0,127.0,127.0,127.0,-107.0,-107.0,-62.0
127.0,124.0,129.0,127.0,126.0,125.0,110.0,126.0,-1.0,114.0,-59.0,127.0,127.0,127.0,-107.0,-107.0,-62.0
127.0,124.0,129.0,127.0,125.0,125.0,110.0,126.0,-1.0,114.0,-59.0,127.0,127.0,127.0,-107.0,-107.0,-62.0
126.0,124.0,129.0,127.0,125.0,125.0,110.0,126.0,-1.0,114.0,-59.0,127.0,127.0,127.0,-107.0,-107.0,-62.0
127.0,124.0,129.0,127.0,125.0,125.0,110.0,126.0,-1.0,114.0,-59.0,127.0,127.0,127.0,-107.0,-107.0,-62.0
127.0,124.0,129.0,127.0,125.0,125.0,110.0,126.0,-1.0,114.0,-59.0,127.0,127.0,127.0,-107.0,-107.0,-62.0
127.0,124.0,129.0,127.0,125.0,125.0,110.0,126.0,-1.0,114.0,-59.0,127.0,127.0,127.0,-107.0,-107.0,-62.0
127.0,124.0,129.0,127.0,125.0,125.0,110.0,126.0,-1.0,114.0,-59.0,127.0,127.0,127.0,-107.0,-107.0,-62.0
127.0,124.0,129.0,127.0,126.0,126.0,111.0,127.0,-1.0,114.0,-59.0,127.0,127.0,127.0,-86.0,-86.0,-62.0
127.0,124.0,129.0,127.0,125.0,126.0,112.0,127.0,-1.0,114.0,-59.0,127.0,127.0,127.0,-86.0,-86.0,-62.0
126.0,124.0,129.0,127.0,125.0,126.0,112.0,127.0,-1.0,114.0,-59.0,127.0,127.0,127.0,-86.0,-86.0,-62.0
126.0,124.0,129.0,127.0,125.0,126.0,111.0,127.0,-1.0,114.0,-59.0,127.0,127.0,127.0,-86.0,-86.0,-62.0
126.0,124.0,130.0,127.0,125.0,126.0,111.0,126.0,-1.0,114.0,-59.0,127.0,127.0,127.0,-86.0,-86.0,-62.0
126.0,124.0,130.0,127.0,125.0,126.0,111.0,126.0,-1.0,114.0,-59.0,127.0,127.0,127.0,-86.0,-86.0,-62.0
126.0,124.0,130.0,127.0,125.0,126.0,111.0,126.0,-1.0,114.0,-59.0,127.0,127.0,127.0,-86.0,-86.0,-62.0
126.0,124.0,130.0,127.0,125.0,126.0,111.0,126.0,-1.0,114.0,-59.0,127.0,127.0,127.0,-86.0,-86.0,-62.0
126.0,124.0,130.0,127.0,125.0,126.0,111.0,126.0,-1.0,114.0,-59.0,127.0,127.0,127.0,-86.0,-86.0,-62.0
126.0,125.0,129.0,127.0,125.0,126.0,111.0,126.0,-1.0,114.0,-59.0,127.0,127.0,127.0,-86.0,-86.0,-62.0
127.0,125.0,128.0,127.0,126.0,125.0,110.0,127.0,-1.0,114.0,-59.0,127.0,127.0,127.0,-121.0,-121.0,-62.0
127.0,125.0,128.0,127.0,126.0,125.0,110.0,126.0,-1.0,114.0,-59.0,127.0,127.0,127.0,-121.0,-121.0,-62.0
127.0,125.0,129.0,127.0,126.0,125.0,110.0,126.0,-1.0,114.0,-59.0,127.0,127.0,127.0,-121.0,-121.0,-62.0
127.0,125.0,129.0,127.0,126.0,125.0,110.0,126.0,-1.0,114.0,-59.0,127.0,127.0,127.0,-121.0,-121.0,-62.0
127.0,124.0,129.0,127.0,126.0,125.0,109.0,126.0,-1.0,114.0,-59.0,127.0,127.0,127.0,-121.0,-121.0,-62.0
127.0,124.0,129.0,127.0,126.0,125.0,109.0,126.0,-1.0,114.0,-59.0,127.0,127.0,127.0,-121.0,-121.0,-62.0
127.0,125.0,129.0,127.0,126.0,125.0,109.0,126.0,-1.0,114.0,-59.0,127.0,127.0,127.0,-121.0,-121.0,-62.0
127.0,125.0,129.0,127.0,126.0,125.0,109.0,126.0,-1.0,114.0,-59.0,127.0,127.0,127.0,-121.0,-121.0,-62.0
127.0,125.0,129.0,127.0,126.0,125.0,110.0,126.0,-1.0,114.0,-59.0,127.0,127.0,127.0,-121.0,-121.0,-62.0
127.0,125.0,128.0,127.0,126.0,125.0,111.0,127.0,-1.0,114.0,-59.0,127.0,127.0,127.0,-121.0,-121.0,-62.0
127.0,124.0,129.0,127.0,126.0,125.0,109.0,126.0,-1.0,114.0,-59.0,127.0,127.0,127.0,109.0,109.0,-62.0
126.0,124.0,129.0,127.0,126.0,125.0,110.0,126.0,-1.0,114.0,-59.0,127.0,127.0,127.0,109.0,109.0,-62.0
126.0,124.0,129.0,127.0,125.0,125.0,110.0,126.0,-1.0,114.0,-59.0,127.0,127.0,127.0,109.0,109.0,-62.0
126.0,124.0,129.0,127.0,126.0,125.0,110.0,126.0,-1.0,114.0,-59.0,127.0,127.0,127.0,109.0,109.0,-62.0
126.0,124.0,129.0,127.0,125.0,125.0,110.0,126.0,-1.0,114.0,-59.0,127.0,127.0,127.0,109.0,109.0,-62.0
126.0,124.0,129.0,127.0,125.0,125.0,110.0,126.0,-1.0,114.0,-59.0,127.0,127.0,127.0,109.0,109.0,-62.0
126.0,124.0,129.0,127.0,125.0,125.0,110.0,126.0,-1.0,114.0,-59.0,127.0,127.0,127.0,109.0,109.0,-62.0
126.0,124.0,129.0,127.0,125.0,125.0,110.0,126.0,-1.0,114.0,-59.0,127.0,127.0,127.0,109.0,109.0,-62.0
127.0,125.0,128.0,127.0,126.0,125.0,110.0,126.0,-1.0,114.0,-59.0,127.0,127.0,127.0,109.0,109.0,-62.0
127.0,124.0,128.0,127.0,126.0,125.0,110.0,126.0,-1.0,114.0,-59.0,127.0,127.0,127.0,109.0,109.0,-62.0
127.0,125.0,129.0,127.0,126.0,125.0,111.0,126.0,-1.0,114.0,-59.0,127.0,127.0,127.0,88.0,88.0,-62.0
127.0,124.0,129.0,127.0,125.0,125.0,111.0,126.0,-1.0,114.0,-59.0,127.0,127.0,127.0,88.0,88.0,-62.0
127.0,124.0,129.0,127.0,125.0,125.0,111.0,126.0,-1.0,114.0,-59.0,127.0,127.0,127.0,88.0,88.0,-62.0
127.0,124.0,129.0,127.0,125.0,125.0,111.0,126.0,-1.0,114.0,-59.0,127.0,127.0,127.0,88.0,88.0,-62.0
127.0,124.0,129.0,127.0,125.0,125.0,111.0,126.0,-1.0,114.0,-59.0,127.0,127.0,127.0,88.0,88.0,-62.0
127.0,124.0,129.0,127.0,125.0,125.0,111.0,126.0,-1.0,114.0,-59.0,127.0,127.0,127.0,88.0,88.0,-62.0
127.0,124.0,129.0,127.0,125.0,125.0,111.0,126.0,-1.0,114.0,-59.0,127.0,127.0,127.0,88.0,88.0,-62.0
127.0,125.0,128.0,127.0,126.0,125.0,111.0,127.0,-1.0,114.0,-59.0,127.0,127.0,127.0,88.0,88.0,-62.0
127.0,125.0,128.0,127.0,126.0,125.0,111.0,126.0,-1.0,114.0,-59.0,127.0,127.0,127.0,88.0,88.0,-62.0
127.0,125.0,128.0,127.0,126.0,125.0,111.0,126.0,-1.0,114.0,-59.0,127.0,127.0,127.0,88.0,88.0,-62.0
127.0,124.0,130.0,127.0,126.0,125.0,110.0,127.0,-1.0,114.0,-59.0,127.0,127.0,127.0,71.0,71.0,-62.0
127.0,124.0,130.0,127.0,126.0,125.0,110.0,126.0,-1.0,114.0,-59.0,127.0,127.0,127.0,71.0,71.0,-62.0
127.0,124.0,130.0,127.0,126.0,125.0,110.0,126.0,-1.0,114.0,-59.0,127.0,127.0,127.0,71.0,71.0,-62.0
126.0,124.0,130.0,127.0,126.0,125.0,110.0,126.0,-1.0,114.0,-59.0,127.0,127.0,127.0,71.0,71.0,-62.0
127.0,124.0,130.0,127.0,125.0,125.0,111.0,126.0,-1.0,114.0,-59.0,127.0,127.0,127.0,71.0,71.0,-62.0
127.0,124.0,130.0,127.0,125.0,125.0,110.0,126.0,-1.0,114.0,-59.0,127.0,127.0,127.0,71.0,71.0,-62.0
127.0,125.0,129.0,127.0,126.0,126.0,111.0,127.0,-1.0,114.0,-59.0,127.0,127.0,127.0,71.0,71.0,-62.0
127.0,124.0,130.0,127.0,126.0,125.0,110.0,127.0,-1.0,114.0,-59.0,127.0,127.0,127.0,71.0,71.0,-62.0
127.0,125.0,130.0,127.0,126.0,125.0,111.0,127.0,-1.0,114.0,-59.0,127.0,127.0,127.0,71.0,71.0,-62.0
127.0,125.0,130.0,127.0,126.0,125.0,111.0,127.0,-1.0,114.0,-59.0,127.0,127.0,127.0,71.0,71.0,-62.0
127.0,124.0,130.0,127.0,126.0,126.0,110.0,127.0,-1.0,114.0,-59.0,127.0,127.0,127.0,57.0,57.0,-62.0
127.0,124.0,130.0,127.0,126.0,126.0,111.0,127.0,-1.0,114.0,-59.0,127.0,127.0,127.0,57.0,57.0,-62.0
127.0,124.0,130.0,127.0,126.0,126.0,110.0,127.0,-1.0,114.0,-59.0,127.0,127.0,127.0,57.0,57.0,-62.0
127.0,124.0,130.0,127.0,126.0,126.0,111.0,127.0,-1.0,114.0,-59.0,127.0,127.0,127.0,57.0,57.0,-62.0
127.0,124.0,130.0,127.0,126.0,125.0,110.0,127.0,-1.0,114.0,-59.0,127.0,127.0,127.0,57.0,57.0,-62.0
127.0,125.0,129.0,127.0,126.0,126.0,112.0,128.0,-1.0,114.0,-59.0,127.0,127.0,127.0,57.0,57.0,-62.0
127.0,124.0,129.0,127.0,126.0,126.0,111.0,127.0,-1.0,114.0,-59.0,127.0,127.0,127.0,57.0,57.0,-62.0
127.0,124.0,129.0,127.0,126.0,126.0,111.0,127.0,-1.0,114.0,-59.0,127.0,127.0,127.0,57.0,57.0,-62.0
127.0,124.0,130.0,127.0,126.0,126.0,111.0,127.0,-1.0,114.0,-59.0,127.0,127.0,127.0,57.0,57.0,-62.0
127.0,124.0,130.0,127.0,126.0,126.0,110.0,127.0,-1.0,114.0,-59.0,127.0,127.0,127.0,57.0,57.0,-62.0
127.0,125.0,129.0,127.0,126.0,125.0,110.0,127.0,-1.0,114.0,-59.0,127.0,127.0,127.0,46.0,46.0,-62.0
127.0,125.0,129.0,127.0,126.0,125.0,110.0,127.0,-1.0,114.0,-59.0,127.0,127.0,127.0,46.0,46.0,-62.0
127.0,125.0,129.0,127.0,126.0,125.0,110.0,127.0,-1.0,114.0,-59.0,127.0,127.0,127.0,46.0,46.0,-62.0
127.0,125.0,129.0,127.0,126.0,125.0,109.0,127.0,-1.0,114.0,-59.0,127.0,127.0,127.0,46.0,46.0,-62.0
127.0,125.0,128.0,127.0,126.0,126.0,111.0,127.0,-1.0,114.0,-59.0,127.0,127.0,127.0,46.0,46.0,-62.0
127.0,125.0,129.0,127.0,126.0,125.0,111.0,127.0,-1.0,114.0,-59.0,127.0,127.0,127.0,46.0,46.0,-62.0
127.0,125.0,129.0,127.0,126.0,125.0,111.0,127.0,-1.0,114.0,-59.0,127.0,127.0,127.0,46.0,46.0,-62.0
127.0,125.0,129.0,127.0,126.0,125.0,111.0,127.0,-1.0,114.0,-59.0,127.0,127.0,127.0,46.0,46.0,-62.0
127.0,125.0,129.0,127.0,126.0,125.0,110.0,127.0,-1.0,114.0,-59.0,127.0,127.0,127.0,46.0,46.0,-62.0
127.0,125.0,129.0,127.0,126.0,125.0,110.0,127.0,-1.0,114.0,-59.0,127.0,127.0,127.0,46.0,46.0,-62.0
127.0,124.0,129.0,127.0,125.0,125.0,111.0,127.0,-1.0,114.0,-59.0,127.0,127.0,127.0,37.0,37.0,-62.0
127.0,124.0,129.0,127.0,125.0,125.0,111.0,127.0,-1.0,114.0,-59.0,127.0,127.0,127.0,37.0,37.0,-62.0
127.0,124.0,129.0,127.0,125.0,125.0,111.0,127.0,-1.0,114.0,-59.0,127.0,127.0,127.0,37.0,37.0,-62.0
127.0,125.0,128.0,127.0,126.0,126.0,112.0,128.0,-1.0,114.0,-59.0,127.0,127.0,127.0,37.0,37.0,-62.0
127.0,125.0,128.0,127.0,126.0,126.0,111.0,127.0,-1.0,114.0,-59.0,127.0,127.0,127.0,37.0,37.0,-62.0
127.0,125.0,129.0,127.0,126.0,126.0,111.0,127.0,-1.0,114.0,-59.0,127.0,127.0,127.0,37.0,37.0,-62.0
127.0,125.0,129.0,127.0,126.0,126.0,110.0,127.0,-1.0,114.0,-59.0,127.0,127.0,127.0,37.0,37.0,-62.0
127.0,124.0,129.0,127.0,126.0,126.0,110.0,127.0,-1.0,114.0,-59.0,127.0,127.0,127.0,37.0,37.0,-62.0
127.0,124.0,129.0,127.0,125.0,125.0,111.0,127.0,-1.0,114.0,-59.0,127.0,127.0,127.0,37.0,37.0,-62.0
127.0,124.0,129.0,127.0,125.0,125.0,111.0,127.0,-1.0,114.0,-59.0,127.0,127.0,127.0,37.0,37.0,-62.0
127.0,125.0,129.0,127.0,126.0,125.0,110.0,127.0,-1.0,114.0,-59.0,127.0,127.0,127.0,30.0,30.0,-62.0
127.0,125.0,129.0,127.0,126.0,125.0,110.0,127.0,-1.0,114.0,-59.0,127.0,127.0,127.0,30.0,30.0,-62.0
127.0,125.0,128.0,127.0,126.0,126.0,111.0,128.0,-1.0,114.0,-59.0,127.0,127.0,127.0,30.0,30.0,-62.0
127.0,125.0,128.0,127.0,126.0,125.0,111.0,128.0,-1.0,114.0,-59.0,127.0,127.0,127.0,30.0,30.0,-62.0
127.0,125.0,128.0,127.0,126.0,125.0,110.0,127.0,-1.0,114.0,-59.0,127.0,127.0,127.0,30.0,30.0,-62.0
127.0,124.0,128.0,127.0,126.0,125.0,110.0,127.0,-1.0,114.0,-59.0,127.0,127.0,127.0,30.0,30.0,-62.0
127.0,124.0,128.0,127.0,126.0,125.0,110.0,127.0,-1.0,114.0,-59.0,127.0,127.0,127.0,30.0,30.0,-62.0
127.0,125.0,129.0,127.0,126.0,125.0,110.0,127.0,-1.0,114.0,-59.0,127.0,127.0,127.0,30.0,30.0,-62.0
127.0,125.0,129.0,127.0,126.0,125.0,110.0,127.0,-1.0,114.0,-59.0,127.0,127.0,127.0,30.0,30.0,-62.0
127.0,125.0,129.0,127.0,126.0,125.0,110.0,127.0,-1.0,114.0,-59.0,127.0,127.0,127.0,30.0,30.0,-62.0
127.0,124.0,129.0,127.0,126.0,125.0,109.0,127.0,-1.0,114.0,-59.0,127.0,127.0,127.0,24.0,24.0,-62.0
126.0,125.0,127.0,127.0,126.0,125.0,111.0,128.0,-1.0,114.0,-59.0,127.0,127.0,127.0,24.0,24.0,-62.0
126.0,124.0,128.0,127.0,126.0,125.0,111.0,128.0,-1.0,114.0,-59.0,127.0,127.0,127.0,24.0,24.0,-62.0
126.0,124.0,128.0,127.0,126.0,125.0,110.0,128.0,-1.0,114.0,-59.0,127.0,127.0,127.0,24.0,24.0,-62.0
127.0,124.0,128.0,127.0,126.0,125.0,110.0,127.0,-1.0,114.0,-59.0,127.0,127.0,127.0,24.0,24.0,-62.0
127.0,124.0,128.0,127.0,126.0,125.0,110.0,127.0,-1.0,114.0,-59.0,127.0,127.0,127.0,24.0,24.0,-62.0
127.0,124.0,128.0,127.0,126.0,125.0,110.0,127.0,-1.0,114.0,-59.0,127.0,127.0,127.0,24.0,24.0,-62.0
127.0,124.0,128.0,127.0,126.0,125.0,110.0,127.0,-1.0,114.0,-59.0,127.0,127.0,127.0,24.0,24.0,-62.0
127.0,124.0,128.0,127.0,126.0,125.0,110.0,127.0,-1.0,114.0,-59.0,127.0,127.0,127.0,24.0,24.0,-62.0
127.0,124.0,128.0,127.0,126.0,125.0,110.0,127.0,-1.0,114.0,-59.0,127.0,127.0,127.0,24.0,24.0,-62.0
127.0,125.0,128.0,127.0,126.0,126.0,112.0,128.0,-1.0,114.0,-59.0,127.0,127.0,127.0,20.0,20.0,-62.0
127.0,125.0,128.0,127.0,126.0,126.0,111.0,128.0,-1.0,114.0,-59.0,127.0,127.0,127.0,20.0,20.0,-62.0
126.0,125.0,128.0,127.0,126.0,126.0,111.0,128.0,-1.0,114.0,-59.0,127.0,127.0,127.0,20.0,20.0,-62.0
126.0,125.0,128.0,127.0,126.0,125.0,110.0,127.0,-1.0,114.0,-59.0,127.0,127.0,127.0,20.0,20.0,-62.0
126.0,125.0,128.0,127.0,126.0,125.0,111.0,127.0,-1.0,114.0,-59.0,127.0,127.0,127.0,20.0,20.0,-62.0
127.0,125.0,129.0,127.0,126.0,125.0,111.0,127.0,-1.0,114.0,-59.0,127.0,127.0,127.0,20.0,20.0,-62.0
126.0,125.0,128.0,127.0,126.0,125.0,110.0,127.0,-1.0,114.0,-59.0,127.0,127.0,127.0,20.0,20.0,-62.0
126.0,125.0,129.0,127.0,126.0,125.0,110.0,127.0,-1.0,114.0,-59.0,127.0,127.0,127.0,20.0,20.0,-62.0
126.0,125.0,129.0,127.0,126.0,125.0,110.0,127.0,-1.0,114.0,-59.0,127.0,127.0,127.0,20.0,20.0,-62.0
126.0,125.0,129.0,127.0,126.0,125.0,110.0,127.0,-1.0,114.0,-59.0,127.0,127.0,127.0,20.0,20.0,-62.0
127.0,125.0,128.0,127.0,126.0,126.0,111.0,128.0,-1.0,114.0,-59.0,127.0,127.0,127.0,68.0,68.0,-62.0
127.0,124.0,129.0,127.0,126.0,126.0,111.0,128.0,-1.0,114.0,-59.0,127.0,127.0,127.0,68.0,68.0,-62.0
127.0,124.0,129.0,127.0,126.0,126.0,110.0,128.0,-1.0,114.0,-59.0,127.0,127.0,127.0,68.0,68.0,-62.0
127.0,124.0,129.0,127.0,125.0,125.0,110.0,128.0,-1.0,114.0,-59.0,127.0,127.0,127.0,68.0,68.0,-62.0
127.0,124.0,129.0,127.0,125.0,125.0,111.0,128.0,-1.0,114.0,-59.0,127.0,127.0,127.0,68.0,68.0,-62.0
127.0,124.0,129.0,127.0,125.0,125.0,110.0,128.0,-1.0,114.0,-59.0,127.0,127.0,127.0,68.0,68.0,-62.0
127.0,124.0,130.0,127.0,125.0,125.0,111.0,128.0,-1.0,114.0,-59.0,127.0,127.0,127.0,68.0,68.0,-62.0
127.0,124.0,130.0,127.0,125.0,125.0,111.0,127.0,-1.0,114.0,-59.0,127.0,127.0,127.0,68.0,68.0,-62.0
127.0,124.0,129.0,127.0,125.0,125.0,110.0,127.0,-1.0,114.0,-59.0,127.0,127.0,127.0,68.0,68.0,-62.0
127.0,125.0,128.0,127.0,126.0,126.0,111.0,128.0,-1.0,114.0,-59.0,127.0,127.0,127.0,68.0,68.0,-62.0
126.0,125.0,129.0,127.0,126.0,126.0,112.0,128.0,-1.0,114.0,-59.0,127.0,127.0,127.0,54.0,54.0,-62.0
126.0,125.0,129.0,127.0,126.0,126.0,111.0,128.0,-1.0,114.0,-59.0,127.0,127.0,127.0,54.0,54.0,-62.0
126.0,125.0,129.0,127.0,126.0,126.0,111.0,128.0,-1.0,114.0,-59.0,127.0,127.0,127.0,54.0,54.0,-62.0
126.0,125.0,129.0,127.0,126.0,126.0,110.0,128.0,-1.0,114.0,-59.0,127.0,127.0,127.0,54.0,54.0,-62.0
126.0,124.0,129.0,127.0,126.0,125.0,111.0,127.0,-1.0,114.0,-59.0,127.0,127.0,127.0,54.0,54.0,-62.0
126.0,124.0,129.0,127.0,126.0,125.0,111.0,127.0,-1.0,114.0,-59.0,127.0,127.0,127.0,54.0,54.0,-62.0
126.0,124.0,129.0,127.0,126.0,125.0,111.0,127.0,-1.0,114.0,-59.0,127.0,127.0,127.0,54.0,54.0,-62.0
127.0,124.0,129.0,127.0,126.0,125.0,111.0,127.0,-1.0,114.0,-59.0,127.0,127.0,127.0,54.0,54.0,-62.0
126.0,125.0,128.0,127.0,127.0,126.0,111.0,129.0,-1.0,114.0,-59.0,127.0,127.0,127.0,54.0,54.0,-62.0
126.0,125.0,128.0,127.0,126.0,126.0,111.0,128.0,-1.0,114.0,-59.0,127.0,127.0,127.0,54.0,54.0,-62.0
127.0,125.0,128.0,127.0,125.0,125.0,110.0,127.0,-1.0,114.0,-59.0,127.0,127.0,127.0,44.0,44.0,-62.0
127.0,125.0,128.0,127.0,125.0,125.0,110.0,127.0,-1.0,114.0,-59.0,127.0,127.0,127.0,44.0,44.0,-62.0
127.0,125.0,129.0,127.0,125.0,125.0,110.0,127.0,-1.0,114.0,-59.0,127.0,127.0,127.0,44.0,44.0,-62.0
127.0,124.0,129.0,127.0,125.0,125.0,110.0,127.0,-1.0,114.0,-59.0,127.0,127.0,127.0,44.0,44.0,-62.0
127.0,124.0,129.0,127.0,125.0,125.0,110.0,127.0,-1.0,114.0,-59.0,127.0,127.0,127.0,44.0,44.0,-62.0
127.0,124.0,129.0,127.0,125.0,125.0,110.0,127.0,-1.0,114.0,-59.0,127.0,127.0,127.0,44.0,44.0,-62.0
127.0,124.0,129.0,127.0,125.0,125.0,110.0,127.0,-1.0,114.0,-59.0,127.0,127.0,127.0,44.0,44.0,-62.0
127.0,125.0,128.0,127.0,126.0,125.0,111.0,128.0,-1.0,114.0,-59.0,127.0,127.0,127.0,44.0,44.0,-62.0
127.0,125.0,128.0,127.0,126.0,125.0,110.0,128.0,-1.0,114.0,-59.0,127.0,127.0,127.0,44.0,44.0,-62.0
127.0,125.0,128.0,127.0,126.0,125.0,110.0,128.0,-1.0,114.0,-59.0,127.0,127.0,127.0,44.0,44.0,-62.0
126.0,124.0,129.0,127.0,125.0,126.0,111.0,128.0,-1.0,114.0,-59.0,127.0,127.0,127.0,35.0,35.0,-62.0
126.0,124.0,129.0,127.0,125.0,126.0,111.0,128.0,-1.0,114.0,-59.0,127.0,127.0,127.0,35.0,35.0,-62.0
127.0,124.0,130.0,127.0,125.0,125.0,111.0,128.0,-1.0,114.0,-59.0,127.0,127.0,127.0,35.0,35.0,-62.0
127.0,124.0,130.0,127.0,125.0,125.0,111.0,128.0,-1.0,114.0,-59.0,127.0,127.0,127.0,35.0,35.0,-62.0
126.0,124.0,130.0,127.0,125.0,125.0,111.0,128.0,-1.0,114.0,-59.0,127.0,127.0,127.0,35.0,35.0,-62.0
126.0,124.0,130.0,127.0,125.0,125.0,111.0,128.0,-1.0,114.0,-59.0,127.0,127.0,127.0,35.0,35.0,-62.0
127.0,125.0,129.0,127.0,126.0,126.0,112.0,129.0,-1.0,114.0,-59.0,127.0,127.0,127.0,35.0,35.0,-62.0
126.0,124.0,129.0,127.0,126.0,126.0,111.0,129.0,-1.0,114.0,-59.0,127.0,127.0,127.0,35.0,35.0,-62.0
126.0,124.0,129.0,127.0,125.0,126.0,111.0,128.0,-1.0,114.0,-59.0,127.0,127.0,127.0,35.0,35.0,-62.0
126.0,124.0,129.0,127.0,125.0,126.0,111.0,128.0,-1.0,114.0,-59.0,127.0,127.0,127.0,35.0,35.0,-62.0
127.0,124.0,129.0,127.0,126.0,125.0,111.0,128.0,-1.0,114.0,-59.0,127.0,127.0,127.0,29.0,29.0,-62.0
127.0,124.0,129.0,127.0,125.0,125.0,111.0,128.0,-1.0,114.0,-59.0,127.0,127.0,127.0,29.0,29.0,-62.0
127.0,124.0,129.0,127.0,125.0,125.0,110.0,128.0,-1.0,114.0,-59.0,127.0,127.0,127.0,29.0,29.0,-62.0
127.0,125.0,129.0,127.0,126.0,125.0,110.0,128.0,-1.0,114.0,-59.0,127.0,127.0,127.0,29.0,29.0,-62.0
127.0,125.0,129.0,127.0,126.0,125.0,109.0,127.0,-1.0,114.0,-59.0,127.0,127.0,127.0,29.0,29.0,-62.0
127.0,125.0,127.0,127.0,126.0,126.0,111.0,129.0,-1.0,114.0,-59.0,127.0,127.0,127.0,29.0,29.0,-62.0
127.0,125.0,128.0,127.0,126.0,126.0,111.0,128.0,-1.0,114.0,-59.0,127.0,127.0,127.0,29.0,29.0,-62.0
127.0,125.0,128.0,127.0,126.0,126.0,111.0,128.0,-1.0,114.0,-59.0,127.0,127.0,127.0,29.0,29.0,-62.0
127.0,125.0,128.0,127.0,126.0,126.0,111.0,128.0,-1.0,114.0,-59.0,127.0,127.0,127.0,29.0,29.0,-62.0
127.0,124.0,128.0,127.0,126.0,125.0,111.0,128.0,-1.0,114.0,-59.0,127.0,127.0,127.0,29.0,29.0,-62.0
126.0,124.0,129.0,127.0,125.0,125.0,111.0,128.0,-1.0,114.0,-59.0,127.0,127.0,127.0,23.0,23.0,-62.0
126.0,124.0,129.0,127.0,125.0,125.0,110.0,128.0,-1.0,114.0,-59.0,127.0,127.0,127.0,23.0,23.0,-62.0
126.0,124.0,128.0,127.0,125.0,125.0,110.0,128.0,-1.0,114.0,-59.0,127.0,127.0,127.0,23.0,23.0,-62.0
126.0,124.0,129.0,127.0,125.0,125.0,109.0,128.0,-1.0,114.0,-59.0,127.0,127.0,127.0,23.0,23.0,-62.0
126.0,125.0,127.0,127.0,126.0,126.0,112.0,129.0,-1.0,114.0,-59.0,127.0,127.0,127.0,23.0,23.0,-62.0
126.0,125.0,128.0,127.0,126.0,126.0,111.0,129.0,-1.0,114.0,-59.0,127.0,127.0,127.0,23.0,23.0,-62.0
126.0,124.0,128.0,127.0,126.0,126.0,111.0,129.0,-1.0,114.0,-59.0,127.0,127.0,127.0,23.0,23.0,-62.0
126.0,124.0,128.0,127.0,126.0,126.0,110.0,128.0,-1.0,114.0,-59.0,127.0,127.0,127.0,23.0,23.0,-62.0
126.0,124.0,128.0,127.0,126.0,125.0,111.0,128.0,-1.0,114.0,-59.0,127.0,127.0,127.0,23.0,23.0,-62.0
126.0,124.0,128.0,127.0,125.0,125.0,111.0,128.0,-1.0,114.0,-59.0,127.0,127.0,127.0,23.0,23.0,-62.0
127.0,124.0,129.0,127.0,125.0,126.0,112.0,128.0,-1.0,114.0,-59.0,127.0,127.0,127.0,70.0,70.0,-62.0
127.0,124.0,129.0,127.0,125.0,126.0,112.0,128.0,-1.0,114.0,-59.0,127.0,127.0,127.0,70.0,70.0,-62.0
127.0,124.0,129.0,127.0,125.0,126.0,112.0,128.0,-1.0,114.0,-59.0,127.0,127.0,127.0,70.0,70.0,-62.0
127.0,125.0,127.0,127.0,126.0,127.0,113.0,129.0,-1.0,114.0,-59.0,127.0,127.0,127.0,70.0,70.0,-62.0
127.0,125.0,128.0,127.0,126.0,126.0,113.0,129.0,-1.0,114.0,-59.0,127.0,127.0,127.0,70.0,70.0,-62.0
127.0,125.0,128.0,127.0,126.0,126.0,113.0,129.0,-1.0,114.0,-59.0,127.0,127.0,127.0,70.0,70.0,-62.0
127.0,124.0,128.0,127.0,126.0,126.0,112.0,128.0,-1.0,114.0,-59.0,127.0,127.0,127.0,70.0,70.0,-62.0
127.0,124.0,128.0,127.0,126.0,126.0,112.0,128.0,-1.0,114.0,-59.0,127.0,127.0,127.0,70.0,70.0,-62.0
127.0,124.0,129.0,127.0,126.0,126.0,112.0,128.0,-1.0,114.0,-59.0,127.0,127.0,127.0,70.0,70.0,-62.0
127.0,124.0,129.0,127.0,126.0,126.0,111.0,128.0,-1.0,114.0,-59.0,127.0,127.0,127.0,70.0,70.0,-62.0
127.0,124.0,129.0,127.0,126.0,125.0,109.0,127.0,-1.0,114.0,-59.0,127.0,127.0,127.0,56.0,56.0,-62.0
127.0,125.0,129.0,127.0,126.0,125.0,109.0,127.0,-1.0,114.0,-59.0,127.0,127.0,127.0,56.0,56.0,-62.0
126.0,126.0,128.0,127.0,127.0,125.0,111.0,128.0,-1.0,114.0,-59.0,127.0,127.0,127.0,56.0,56.0,-62.0
126.0,125.0,128.0,127.0,126.0,125.0,111.0,128.0,-1.0,114.0,-59.0,127.0,127.0,127.0,56.0,56.0,-62.0
126.0,126.0,128.0,127.0,126.0,125.0,110.0,128.0,-1.0,114.0,-59.0,127.0,127.0,127.0,56.0,56.0,-62.0
126.0,125.0,128.0,127.0,126.0,125.0,110.0,128.0,-1.0,114.0,-59.0,127.0,127.0,127.0,56.0,56.0,-62.0
127.0,125.0,128.0,127.0,126.0,125.0,110.0,128.0,-1.0,114.0,-59.0,127.0,127.0,127.0,56.0,56.0,-62.0
126.0,125.0,129.0,127.0,126.0,125.0,110.0,128.0,-1.0,114.0,-59.0,127.0,127.0,127.0,56.0,56.0,-62.0
127.0,124.0,129.0,127.0,126.0,125.0,110.0,127.0,-1.0,114.0,-59.0,127.0,127.0,127.0,56.0,56.0,-62.0
127.0,124.0,129.0,127.0,126.0,125.0,110.0,127.0,-1.0,114.0,-59.0,127.0,127.0,127.0,56.0,56.0,-62.0
126.0,124.0,130.0,127.0,125.0,125.0,110.0,128.0,-1.0,114.0,-59.0,127.0,127.0,127.0,96.0,96.0,-62.0
127.0,125.0,128.0,127.0,126.0,126.0,111.0,129.0,-1.0,114.0,-59.0,127.0,127.0,127.0,96.0,96.0,-62.0
127.0,125.0,128.0,127.0,126.0,126.0,111.0,129.0,-1.0,114.0,-59.0,127.0,127.0,127.0,96.0,96.0,-62.0
127.0,125.0,129.0,127.0,126.0,126.0,111.0,129.0,-1.0,114.0,-59.0,127.0,127.0,127.0,96.0,96.0,-62.0
127.0,124.0,129.0,127.0,126.0,125.0,111.0,128.0,-1.0,114.0,-59.0,127.0,127.0,127.0,96.0,96.0,-62.0
127.0,124.0,129.0,127.0,126.0,125.0,111.0,128.0,-1.0,114.0,-59.0,127.0,127.0,127.0,96.0,96.0,-62.0
127.0,124.0,130.0,127.0,125.0,125.0,111.0,128.0,-1.0,114.0,-59.0,127.0,127.0,127.0,96.0,96.0,-62.0
127.0,124.0,130.0,127.0,125.0,125.0,110.0,128.0,-1.0,114.0,-59.0,127.0,127.0,127.0,96.0,96.0,-62.0
127.0,124.0,130.0,127.0,125.0,125.0,110.0,128.0,-1.0,114.0,-59.0,127.0,127.0,127.0,96.0,96.0,-62.0
126.0,124.0,130.0,127.0,125.0,125.0,110.0,128.0,-1.0,114.0,-59.0,127.0,127.0,127.0,96.0,96.0,-62.0
126.0,125.0,127.0,127.0,127.0,126.0,111.0,129.0,-1.0,114.0,-59.0,127.0,127.0,127.0,127.0,127.0,-62.0
126.0,125.0,127.0,127.0,127.0,126.0,110.0,129.0,-1.0,114.0,-59.0,127.0,127.0,127.0,127.0,127.0,-62.0
126.0,125.0,128.0,127.0,126.0,125.0,111.0,129.0,-1.0,114.0,-59.0,127.0,127.0,127.0,127.0,127.0,-62.0
126.0,124.0,128.0,127.0,126.0,125.0,111.0,129.0,-1.0,114.0,-59.0,127.0,127.0,127.0,127.0,127.0,-62.0
126.0,124.0,128.0,127.0,126.0,125.0,111.0,128.0,-1.0,114.0,-59.0,127.0,127.0,127.0,127.0,127.0,-62.0
126.0,124.0,128.0,127.0,126.0,125.0,110.0,128.0,-1.0,114.0,-59.0,127.0,127.0,127.0,127.0,127.0,-62.0
126.0,124.0,128.0,127.0,126.0,125.0,110.0,128.0,-1.0,114.0,-59.0,127.0,127.0,127.0,127.0,127.0,-62.0
126.0,124.0,128.0,127.0,126.0,125.0,110.0,128.0,-1.0,114.0,-59.0,127.0,127.0,127.0,127.0,127.0,-62.0
126.0,124.0,128.0,127.0,126.0,125.0,109.0,128.0,-1.0,114.0,-59.0,127.0,127.0,127.0,127.0,127.0,-62.0
127.0,124.0,128.0,127.0,126.0,125.0,109.0,128.0,-1.0,114.0,-59.0,127.0,127.0,127.0,127.0,127.0,-62.0
126.0,124.0,128.0,127.0,126.0,126.0,112.0,129.0,-1.0,114.0,-59.0,127.0,127.0,127.0,102.0,102.0,-62.0
126.0,125.0,128.0,127.0,126.0,126.0,112.0,129.0,-1.0,114.0,-59.0,127.0,127.0,127.0,102.0,102.0,-62.0
126.0,124.0,128.0,127.0,126.0,126.0,112.0,129.0,-1.0,114.0,-59.0,127.0,127.0,127.0,102.0,102.0,-62.0
127.0,124.0,128.0,127.0,126.0,126.0,112.0,128.0,-1.0,114.0,-59.0,127.0,127.0,127.0,102.0,102.0,-62.0
127.0,124.0,128.0,127.0,125.0,126.0,111.0,128.0,-1.0,114.0,-59.0,127.0,127.0,127.0,102.0,102.0,-62.0
126.0,124.0,128.0,127.0,125.0,125.0,110.0,128.0,-1.0,114.0,-59.0,127.0,127.0,127.0,102.0,102.0,-62.0
126.0,124.0,129.0,127.0,125.0,125.0,111.0,128.0,-1.0,114.0,-59.0,127.0,127.0,127.0,102.0,102.0,-62.0
126.0,124.0,128.0,127.0,125.0,125.0,110.0,128.0,-1.0,114.0,-59.0,127.0,127.0,127.0,102.0,102.0,-62.0
126.0,124.0,128.0,127.0,125.0,125.0,110.0,128.0,-1.0,114.0,-59.0,127.0,127.0,127.0,102.0,102.0,-62.0
127.0,125.0,127.0,127.0,126.0,127.0,112.0,129.0,-1.0,114.0,-59.0,127.0,127.0,127.0,102.0,102.0,-62.0
126.0,125.0,128.0,127.0,126.0,126.0,112.0,128.0,-1.0,114.0,-59.0,127.0,127.0,127.0,82.0,82.0,-62.0
126.0,125.0,128.0,127.0,126.0,126.0,111.0,128.0,-1.0,114.0,-59.0,127.0,127.0,127.0,82.0,82.0,-62.0
126.0,124.0,129.0,127.0,126.0,126.0,111.0,128.0,-1.0,114.0,-59.0,127.0,127.0,127.0,82.0,82.0,-62.0
126.0,124.0,129.0,127.0,125.0,126.0,111.0,128.0,-1.0,114.0,-59.0,127.0,127.0,127.0,82.0,82.0,-62.0
126.0,124.0,129.0,126.0,125.0,126.0,110.0,128.0,-1.0,114.0,-59.0,127.0,127.0,127.0,82.0,82.0,-62.0
126.0,124.0,129.0,127.0,125.0,125.0,111.0,128.0,-1.0,114.0,-59.0,127.0,127.0,127.0,82.0,82.0,-62.0
126.0,124.0,129.0,127.0,125.0,125.0,111.0,128.0,-1.0,114.0,-59.0,127.0,127.0,127.0,82.0,82.0,-62.0
126.0,124.0,129.0,127.0,125.0,125.0,111.0,127.0,-1.0,114.0,-59.0,127.0,127.0,127.0,82.0,82.0,-62.0
126.0,125.0,128.0,127.0,126.0,126.0,111.0,129.0,-1.0,114.0,-59.0,127.0,127.0,127.0,82.0,82.0,-62.0
126.0,125.0,128.0,127.0,126.0,126.0,112.0,129.0,-1.0,114.0,-59.0,127.0,127.0,127.0,82.0,82.0,-62.0
127.0,125.0,128.0,127.0,126.0,126.0,111.0,128.0,-1.0,114.0,-59.0,127.0,127.0,127.0,66.0,66.0,-62.0
127.0,125.0,128.0,127.0,126.0,125.0,111.0,128.0,-1.0,114.0,-59.0,127.0,127.0,127.0,66.0,66.0,-62.0
127.0,125.0,128.0,127.0,126.0,125.0,111.0,128.0,-1.0,114.0,-59.0,127.0,127.0,127.0,66.0,66.0,-62.0
127.0,125.0,129.0,127.0,126.0,125.0,111.0,128.0,-1.0,114.0,-59.0,127.0,127.0,127.0,66.0,66.0,-62.0
126.0,124.0,129.0,127.0,126.0,125.0,110.0,128.0,-1.0,114.0,-59.0,127.0,127.0,127.0,66.0,66.0,-62.0
126.0,124.0,129.0,127.0,125.0,125.0,110.0,128.0,-1.0,114.0,-59.0,127.0,127.0,127.0,66.0,66.0,-62.0
127.0,125.0,129.0,127.0,126.0,125.0,110.0,128.0,-1.0,114.0,-59.0,127.0,127.0,127.0,66.0,66.0,-62.0
126.0,125.0,127.0,127.0,126.0,126.0,112.0,129.0,-1.0,114.0,-59.0,127.0,127.0,127.0,66.0,66.0,-62.0
126.0,125.0,128.0,127.0,126.0,126.0,112.0,129.0,-1.0,114.0,-59.0,127.0,127.0,127.0,66.0,66.0,-62.0
127.0,125.0,128.0,127.0,126.0,126.0,111.0,128.0,-1.0,114.0,-59.0,127.0,127.0,127.0,66.0,66.0,-62.0
127.0,124.0,128.0,127.0,127.0,126.0,112.0,128.0,-1.0,114.0,-59.0,127.0,127.0,127.0,53.0,53.0,-62.0
127.0,124.0,128.0,127.0,126.0,126.0,111.0,128.0,-1.0,114.0,-59.0,127.0,127.0,127.0,53.0,53.0,-62.0
127.0,124.0,129.0,127.0,126.0,126.0,111.0,128.0,-1.0,114.0,-59.0,127.0,127.0,127.0,53.0,53.0,-62.0
127.0,124.0,129.0,127.0,126.0,126.0,111.0,128.0,-1.0,114.0,-59.0,127.0,127.0,127.0,53.0,53.0,-62.0
127.0,124.0,129.0,127.0,126.0,126.0,111.0,128.0,-1.0,114.0,-59.0,127.0,127.0,127.0,53.0,53.0,-62.0
127.0,124.0,129.0,127.0,126.0,125.0,110.0,127.0,-1.0,114.0,-59.0,127.0,127.0,127.0,53.0,53.0,-62.0
126.0,125.0,127.0,127.0,127.0,126.0,113.0,129.0,-1.0,114.0,-59.0,127.0,127.0,127.0,53.0,53.0,-62.0
126.0,125.0,128.0,127.0,127.0,126.0,112.0,129.0,-1.0,114.0,-59.0,127.0,127.0,127.0,53.0,53.0,-62.0
127.0,125.0,128.0,127.0,127.0,126.0,112.0,129.0,-1.0,114.0,-59.0,127.0,127.0,127.0,53.0,53.0,-62.0
127.0,125.0,128.0,127.0,127.0,126.0,111.0,128.0,-1.0,114.0,-59.0,127.0,127.0,127.0,53.0,53.0,-62.0
127.0,125.0,128.0,127.0,126.0,126.0,111.0,128.0,-1.0,114.0,-59.0,127.0,127.0,127.0,43.0,43.0,-62.0
127.0,125.0,128.0,127.0,126.0,125.0,111.0,128.0,-1.0,114.0,-59.0,127.0,127.0,127.0,43.0,43.0,-62.0
127.0,125.0,128.0,127.0,126.0,125.0,111.0,128.0,-1.0,114.0,-59.0,127.0,127.0,127.0,43.0,43.0,-62.0
126.0,125.0,128.0,127.0,126.0,125.0,110.0,128.0,-1.0,114.0,-59.0,127.0,127.0,127.0,43.0,43.0,-62.0
127.0,124.0,128.0,127.0,126.0,125.0,110.0,128.0,-1.0,114.0,-59.0,127.0,127.0,127.0,43.0,43.0,-62.0
127.0,126.0,126.0,127.0,127.0,126.0,112.0,129.0,-1.0,114.0,-59.0,127.0,127.0,127.0,43.0,43.0,-62.0
127.0,126.0,127.0,127.0,126.0,126.0,112.0,129.0,-1.0,114.0,-59.0,127.0,127.0,127.0,43.0,43.0,-62.0
127.0,125.0,127.0,127.0,126.0,126.0,111.0,129.0,-1.0,114.0,-59.0,127.0,127.0,127.0,43.0,43.0,-62.0
127.0,125.0,127.0,127.0,126.0,126.0,112.0,129.0,-1.0,114.0,-59.0,127.0,127.0,127.0,43.0,43.0,-62.0
127.0,125.0,127.0,127.0,126.0,126.0,111.0,129.0,-1.0,114.0,-59.0,127.0,127.0,127.0,43.0,43.0,-62.0
127.0,125.0,128.0,127.0,126.0,125.0,110.0,128.0,-1.0,114.0,-59.0,127.0,127.0,127.0,34.0,34.0,-62.0
127.0,125.0,128.0,127.0,126.0,125.0,110.0,128.0,-1.0,114.0,-59.0,127.0,127.0,127.0,34.0,34.0,-62.0
127.0,125.0,129.0,127.0,126.0,125.0,110.0,128.0,-1.0,114.0,-59.0,127.0,127.0,127.0,34.0,34.0,-62.0
127.0,125.0,129.0,127.0,126.0,125.0,110.0,128.0,-1.0,114.0,-59.0,127.0,127.0,127.0,34.0,34.0,-62.0
127.0,124.0,129.0,127.0,126.0,125.0,110.0,128.0,-1.0,114.0,-59.0,127.0,127.0,127.0,34.0,34.0,-62.0
127.0,126.0,127.0,127.0,126.0,126.0,112.0,129.0,-1.0,114.0,-59.0,127.0,127.0,127.0,34.0,34.0,-62.0
127.0,125.0,127.0,127.0,126.0,126.0,112.0,129.0,-1.0,114.0,-59.0,127.0,127.0,127.0,34.0,34.0,-62.0
127.0,125.0,128.0,127.0,126.0,126.0,111.0,129.0,-1.0,114.0,-59.0,127.0,127.0,127.0,34.0,34.0,-62.0
127.0,125.0,128.0,127.0,126.0,126.0,111.0,129.0,-1.0,114.0,-59.0,127.0,127.0,127.0,34.0,34.0,-62.0
127.0,125.0,128.0,127.0,126.0,125.0,111.0,128.0,-1.0,114.0,-59.0,127.0,127.0,127.0,34.0,34.0,-62.0
126.0,125.0,128.0,127.0,126.0,125.0,110.0,128.0,-1.0,114.0,-59.0,127.0,127.0,127.0,79.0,79.0,-62.0
126.0,125.0,128.0,127.0,126.0,125.0,109.0,128.0,-1.0,114.0,-59.0,127.0,127.0,127.0,79.0,79.0,-62.0
126.0,124.0,128.0,127.0,126.0,125.0,110.0,127.0,-1.0,114.0,-59.0,127.0,127.0,127.0,79.0,79.0,-62.0
126.0,125.0,128.0,127.0,126.0,125.0,109.0,127.0,-1.0,114.0,-59.0,127.0,127.0,127.0,79.0,79.0,-62.0
127.0,125.0,127.0,127.0,126.0,126.0,112.0,129.0,-1.0,114.0,-59.0,127.0,127.0,127.0,79.0,79.0,-62.0
127.0,125.0,127.0,127.0,126.0,126.0,112.0,129.0,-1.0,114.0,-59.0,127.0,127.0,127.0,79.0,79.0,-62.0
127.0,125.0,127.0,127.0,126.0,126.0,111.0,129.0,-1.0,114.0,-59.0,127.0,127.0,127.0,79.0,79.0,-62.0
127.0,125.0,128.0,127.0,126.0,126.0,110.0,128.0,-1.0,114.0,-59.0,127.0,127.0,127.0,79.0,79.0,-62.0
126.0,125.0,128.0,127.0,126.0,125.0,111.0,128.0,-1.0,114.0,-59.0,127.0,127.0,127.0,79.0,79.0,-62.0
126.0,124.0,128.0,127.0,126.0,125.0,111.0,128.0,-1.0,114.0,-59.0,127.0,127.0,127.0,79.0,79.0,-62.0
127.0,124.0,129.0,127.0,125.0,125.0,111.0,128.0,-1.0,114.0,-59.0,127.0,127.0,127.0,114.0,114.0,-62.0
127.0,124.0,129.0,127.0,125.0,125.0,111.0,128.0,-1.0,114.0,-59.0,127.0,127.0,127.0,114.0,114.0,-62.0
127.0,124.0,129.0,127.0,125.0,125.0,110.0,128.0,-1.0,114.0,-59.0,127.0,127.0,127.0,114.0,114.0,-62.0
126.0,125.0,128.0,127.0,126.0,126.0,113.0,129.0,-1.0,114.0,-59.0,127.0,127.0,127.0,114.0,114.0,-62.0
126.0,125.0,128.0,127.0,126.0,126.0,112.0,129.0,-1.0,114.0,-59.0,127.0,127.0,127.0,114.0,114.0,-62.0
126.0,125.0,128.0,127.0,126.0,126.0,112.0,129.0,-1.0,114.0,-59.0,127.0,127.0,127.0,114.0,114.0,-62.0
126.0,125.0,128.0,127.0,126.0,126.0,112.0,128.0,-1.0,114.0,-59.0,127.0,127.0,127.0,114.0,114.0,-62.0
127.0,125.0,128.0,127.0,126.0,126.0,111.0,128.0,-1.0,114.0,-59.0,127.0,127.0,127.0,114.0,114.0,-62.0
127.0,125.0,129.0,127.0,126.0,126.0,111.0,128.0,-1.0,114.0,-59.0,127.0,127.0,127.0,114.0,114.0,-62.0
127.0,124.0,129.0,127.0,125.0,126.0,111.0,128.0,-1.0,114.0,-59.0,127.0,127.0,127.0,114.0,114.0,-62.0
126.0,124.0,129.0,127.0,126.0,125.0,110.0,128.0,-1.0,114.0,-59.0,127.0,127.0,127.0,-115.0,-115.0,-62.0
127.0,124.0,129.0,127.0,125.0,125.0,110.0,128.0,-1.0,114.0,-59.0,127.0,127.0,127.0,-115.0,-115.0,-62.0
127.0,126.0,127.0,127.0,127.0,126.0,112.0,129.0,-1.0,114.0,-59.0,127.0,127.0,127.0,-115.0,-115.0,-62.0
127.0,125.0,127.0,127.0,126.0,126.0,111.0,129.0,-1.0,114.0,-59.0,127.0,127.0,127.0,-115.0,-115.0,-62.0
127.0,125.0,127.0,127.0,126.0,126.0,111.0,129.0,-1.0,114.0,-59.0,127.0,127.0,127.0,-115.0,-115.0,-62.0
126.0,125.0,128.0,127.0,126.0,125.0,111.0,129.0,-1.0,114.0,-59.0,127.0,127.0,127.0,-115.0,-115.0,-62.0
127.0,125.0,128.0,127.0,126.0,125.0,111.0,129.0,-1.0,114.0,-59.0,127.0,127.0,127.0,-115.0,-115.0,-62.0
126.0,125.0,128.0,127.0,126.0,125.0,110.0,128.0,-1.0,114.0,-59.0,127.0,127.0,127.0,-115.0,-115.0,-62.0
126.0,125.0,128.0,127.0,126.0,125.0,110.0,128.0,-1.0,114.0,-59.0,127.0,127.0,127.0,-115.0,-115.0,-62.0
127.0,125.0,128.0,127.0,126.0,125.0,110.0,128.0,-1.0,114.0,-59.0,127.0,127.0,127.0,-115.0,-115.0,-62.0
127.0,125.0,127.0,127.0,127.0,126.0,112.0,129.0,-1.0,114.0,-59.0,127.0,127.0,127.0,-93.0,-93.0,-62.0
127.0,125.0,127.0,127.0,126.0,126.0,111.0,129.0,-1.0,114.0,-59.0,127.0,127.0,127.0,-93.0,-93.0,-62.0
127.0,125.0,128.0,127.0,126.0,126.0,111.0,129.0,-1.0,114.0,-59.0,127.0,127.0,127.0,-93.0,-93.0,-62.0
127.0,125.0,128.0,127.0,126.0,126.0,112.0,129.0,-1.0,114.0,-59.0,127.0,127.0,127.0,-93.0,-93.0,-62.0
127.0,124.0,128.0,127.0,126.0,126.0,111.0,128.0,-1.0,114.0,-59.0,127.0,127.0,127.0,-93.0,-93.0,-62.0
127.0,124.0,128.0,127.0,126.0,126.0,111.0,128.0,-1.0,114.0,-59.0,127.0,127.0,127.0,-93.0,-93.0,-62.0
127.0,124.0,129.0,127.0,126.0,126.0,110.0,128.0,-1.0,114.0,-59.0,127.0,127.0,127.0,-93.0,-93.0,-62.0
127.0,124.0,129.0,127.0,126.0,125.0,111.0,128.0,-1.0,114.0,-59.0,127.0,127.0,127.0,-93.0,-93.0,-62.0
127.0,124.0,129.0,127.0,125.0,125.0,111.0,128.0,-1.0,114.0,-59.0,127.0,127.0,127.0,-93.0,-93.0,-62.0
127.0,124.0,129.0,127.0,125.0,125.0,111.0,128.0,-1.0,114.0,-59.0,127.0,127.0,127.0,-93.0,-93.0,-62.0
127.0,126.0,127.0,127.0,127.0,126.0,112.0,128.0,-1.0,114.0,-59.0,127.0,127.0,127.0,-75.0,-75.0,-62.0
127.0,125.0,127.0,127.0,127.0,126.0,112.0,128.0,-1.0,114.0,-59.0,127.0,127.0,127.0,-75.0,-75.0,-62.0
127.0,125.0,127.0,127.0,127.0,126.0,112.0,128.0,-1.0,114.0,-59.0,127.0,127.0,127.0,-75.0,-75.0,-62.0
126.0,125.0,128.0,127.0,126.0,126.0,111.0,128.0,-1.0,114.0,-59.0,127.0,127.0,127.0,-75.0,-75.0,-62.0
127.0,125.0,128.0,127.0,126.0,126.0,111.0,128.0,-1.0,114.0,-59.0,127.0,127.0,127.0,-75.0,-75.0,-62.0
126.0,125.0,128.0,127.0,126.0,126.0,110.0,128.0,-1.0,114.0,-59.0,127.0,127.0,127.0,-75.0,-75.0,-62.0
126.0,124.0,128.0,127.0,126.0,125.0,111.0,128.0,-1.0,114.0,-59.0,127.0,127.0,127.0,-75.0,-75.0,-62.0
126.0,124.0,129.0,127.0,126.0,125.0,111.0,127.0,-1.0,114.0,-59.0,127.0,127.0,127.0,-75.0,-75.0,-62.0
126.0,124.0,129.0,127.0,126.0,125.0,111.0,127.0,-1.0,114.0,-59.0,127.0,127.0,127.0,-75.0,-75.0,-62.0
126.0,124.0,129.0,127.0,126.0,125.0,111.0,127.0,-1.0,114.0,-59.0,127.0,127.0,127.0,-75.0,-75.0,-62.0
126.0,125.0,127.0,127.0,126.0,126.0,112.0,129.0,-1.0,114.0,-59.0,127.0,127.0,127.0,-61.0,-61.0,-62.0
127.0,125.0,127.0,127.0,126.0,126.0,112.0,129.0,-1.0,114.0,-59.0,127.0,127.0,127.0,-61.0,-61.0,-62.0
127.0,125.0,128.0,127.0,126.0,126.0,111.0,129.0,-1.0,114.0,-59.0,127.0,127.0,127.0,-61.0,-61.0,-62.0
127.0,125.0,128.0,127.0,126.0,126.0,111.0,129.0,-1.0,114.0,-59.0,127.0,127.0,127.0,-61.0,-61.0,-62.0
127.0,124.0,128.0,127.0,125.0,126.0,111.0,128.0,-1.0,114.0,-59.0,127.0,127.0,127.0,-61.0,-61.0,-62.0
127.0,124.0,128.0,127.0,125.0,126.0,111.0,128.0,-1.0,114.0,-59.0,127.0,127.0,127.0,-61.0,-61.0,-62.0
127.0,124.0,128.0,127.0,125.0,126.0,110.0,128.0,-1.0,114.0,-59.0,127.0,127.0,127.0,-61.0,-61.0,-62.0
127.0,124.0,129.0,127.0,125.0,126.0,111.0,128.0,-1.0,114.0,-59.0,127.0,127.0,127.0,-61.0,-61.0,-62.0
127.0,124.0,129.0,127.0,125.0,125.0,111.0,128.0,-1.0,114.0,-59.0,127.0,127.0,127.0,-61.0,-61.0,-62.0
127.0,125.0,127.0,127.0,126.0,127.0,112.0,129.0,-1.0,114.0,-59.0,127.0,127.0,127.0,-61.0,-61.0,-62.0
126.0,126.0,127.0,127.0,126.0,126.0,111.0,129.0,-1.0,114.0,-59.0,127.0,127.0,127.0,-50.0,-50.0,-62.0
126.0,125.0,127.0,127.0,126.0,126.0,111.0,128.0,-1.0,114.0,-59.0,127.0,127.0,127.0,-50.0,-50.0,-62.0
126.0,125.0,127.0,127.0,126.0,126.0,111.0,128.0,-1.0,114.0,-59.0,127.0,127.0,127.0,-50.0,-50.0,-62.0
127.0,125.0,128.0,127.0,126.0,126.0,111.0,128.0,-1.0,114.0,-59.0,127.0,127.0,127.0,-50.0,-50.0,-62.0
127.0,125.0,128.0,127.0,126.0,126.0,111.0,128.0,-1.0,114.0,-59.0,127.0,127.0,127.0,-50.0,-50.0,-62.0
127.0,125.0,128.0,127.0,126.0,126.0,111.0,128.0,-1.0,114.0,-59.0,127.0,127.0,127.0,-50.0,-50.0,-62.0
127.0,124.0,129.0,127.0,126.0,126.0,111.0,128.0,-1.0,114.0,-59.0,127.0,127.0,127.0,-50.0,-50.0,-62.0
127.0,124.0,129.0,127.0,125.0,126.0,111.0,127.0,-1.0,114.0,-59.0,127.0,127.0,127.0,-50.0,-50.0,-62.0
127.0,126.0,126.0,127.0,127.0,126.0,112.0,129.0,-1.0,114.0,-59.0,127.0,127.0,127.0,-50.0,-50.0,-62.0
127.0,126.0,127.0,127.0,126.0,126.0,112.0,129.0,-1.0,114.0,-59.0,127.0,127.0,127.0,-50.0,-50.0,-62.0
127.0,125.0,128.0,127.0,126.0,126.0,111.0,128.0,-1.0,114.0,-59.0,127.0,127.0,127.0,-41.0,-41.0,-62.0
127.0,125.0,128.0,127.0,126.0,126.0,111.0,128.0,-1.0,114.0,-59.0,127.0,127.0,127.0,-41.0,-41.0,-62.0
127.0,125.0,128.0,127.0,126.0,126.0,111.0,128.0,-1.0,114.0,-59.0,127.0,127.0,127.0,-41.0,-41.0,-62.0
127.0,125.0,128.0,127.0,126.0,126.0,111.0,128.0,-1.0,114.0,-59.0,127.0,127.0,127.0,-41.0,-41.0,-62.0
127.0,125.0,128.0,127.0,126.0,125.0,110.0,128.0,-1.0,114.0,-59.0,127.0,127.0,127.0,-41.0,-41.0,-62.0
127.0,125.0,128.0,127.0,126.0,125.0,111.0,127.0,-1.0,114.0,-59.0,127.0,127.0,127.0,-41.0,-41.0,-62.0
127.0,124.0,129.0,127.0,125.0,125.0,111.0,127.0,-1.0,114.0,-59.0,127.0,127.0,127.0,-41.0,-41.0,-62.0
127.0,126.0,127.0,127.0,126.0,126.0,112.0,129.0,-1.0,114.0,-59.0,127.0,127.0,127.0,-41.0,-41.0,-62.0
127.0,126.0,127.0,127.0,126.0,126.0,112.0,129.0,-1.0,114.0,-59.0,127.0,127.0,127.0,-41.0,-41.0,-62.0
127.0,125.0,127.0,127.0,126.0,126.0,111.0,129.0,-1.0,114.0,-59.0,127.0,127.0,127.0,-41.0,-41.0,-62.0
126.0,125.0,128.0,127.0,126.0,126.0,112.0,129.0,-1.0,114.0,-59.0,127.0,127.0,127.0,-34.0,-34.0,-62.0
126.0,125.0,128.0,127.0,126.0,126.0,112.0,128.0,-1.0,114.0,-59.0,127.0,127.0,127.0,-34.0,-34.0,-62.0
126.0,124.0,128.0,127.0,126.0,126.0,111.0,128.0,-1.0,114.0,-59.0,127.0,127.0,127.0,-34.0,-34.0,-62.0
127.0,124.0,129.0,127.0,126.0,126.0,111.0,128.0,-1.0,114.0,-59.0,127.0,127.0,127.0,-34.0,-34.0,-62.0
126.0,124.0,129.0,127.0,126.0,126.0,112.0,128.0,-1.0,114.0,-59.0,127.0,127.0,127.0,-34.0,-34.0,-62.0
127.0,124.0,129.0,127.0,126.0,126.0,112.0,128.0,-1.0,114.0,-59.0,127.0,127.0,127.0,-34.0,-34.0,-62.0
126.0,125.0,127.0,127.0,127.0,127.0,107.0,130.0,-1.0,114.0,-59.0,127.0,127.0,127.0,-34.0,-34.0,-62.0
126.0,125.0,127.0,127.0,127.0,127.0,112.0,129.0,-1.0,114.0,-59.0,127.0,127.0,127.0,-34.0,-34.0,-62.0
126.0,125.0,127.0,127.0,127.0,127.0,112.0,129.0,-1.0,114.0,-59.0,127.0,127.0,127.0,-34.0,-34.0,-62.0
126.0,125.0,128.0,127.0,126.0,126.0,112.0,129.0,-1.0,114.0,-59.0,127.0,127.0,127.0,-34.0,-34.0,-62.0
127.0,125.0,128.0,127.0,126.0,126.0,111.0,128.0,-1.0,114.0,-59.0,127.0,127.0,127.0,-28.0,-28.0,-62.0
127.0,125.0,129.0,127.0,126.0,125.0,111.0,128.0,-1.0,114.0,-59.0,127.0,127.0,127.0,-28.0,-28.0,-62.0
127.0,125.0,129.0,127.0,126.0,125.0,111.0,128.0,-1.0,114.0,-59.0,127.0,127.0,127.0,-28.0,-28.0,-62.0
127.0,124.0,129.0,127.0,125.0,125.0,111.0,128.0,-1.0,114.0,-59.0,127.0,127.0,127.0,-28.0,-28.0,-62.0
127.0,124.0,130.0,127.0,125.0,125.0,111.0,128.0,-1.0,114.0,-59.0,127.0,127.0,127.0,-28.0,-28.0,-62.0
