emg1,emg2,emg3,emg4,emg5,emg6,emg7,emg8,acc_x,acc_y,acc_z,gyro_x,gyro_y,gyro_z,angle_pitch,angle_roll,angle_yaw
126.0,127.0,127.0,128.0,126.0,128.0,126.0,129.0,-1.0,104.0,-80.0,127.0,127.0,127.0,-113.0,-84.0,118.0
126.0,127.0,127.0,127.0,126.0,128.0,126.0,129.0,-1.0,104.0,-80.0,127.0,127.0,127.0,-113.0,-84.0,118.0
126.0,127.0,127.0,127.0,126.0,128.0,126.0,129.0,-1.0,104.0,-80.0,127.0,127.0,127.0,-113.0,-84.0,118.0
126.0,127.0,127.0,127.0,127.0,128.0,126.0,129.0,-1.0,104.0,-80.0,127.0,127.0,127.0,-113.0,-84.0,118.0
126.0,127.0,127.0,128.0,127.0,128.0,126.0,129.0,-1.0,104.0,-80.0,127.0,127.0,127.0,-113.0,-84.0,118.0
126.0,127.0,127.0,127.0,127.0,128.0,126.0,129.0,-1.0,104.0,-80.0,127.0,127.0,127.0,-113.0,-84.0,118.0
126.0,127.0,127.0,127.0,126.0,128.0,126.0,129.0,-1.0,104.0,-80.0,127.0,127.0,127.0,-113.0,-84.0,118.0
126.0,127.0,127.0,127.0,126.0,129.0,126.0,129.0,-1.0,104.0,-80.0,127.0,127.0,127.0,-113.0,-84.0,118.0
126.0,127.0,127.0,127.0,126.0,129.0,126.0,129.0,-1.0,104.0,-80.0,127.0,127.0,127.0,-113.0,-84.0,118.0
126.0,127.0,127.0,127.0,126.0,128.0,126.0,129.0,-1.0,104.0,-80.0,127.0,127.0,127.0,-113.0,-84.0,118.0
126.0,127.0,127.0,127.0,126.0,128.0,127.0,130.0,-1.0,104.0,-80.0,127.0,127.0,127.0,-113.0,-84.0,118.0
126.0,127.0,127.0,127.0,126.0,128.0,127.0,129.0,-1.0,104.0,-80.0,127.0,127.0,127.0,-113.0,-84.0,118.0
126.0,127.0,127.0,127.0,127.0,128.0,127.0,129.0,-1.0,104.0,-80.0,127.0,127.0,127.0,-113.0,-84.0,118.0
126.0,127.0,127.0,127.0,127.0,128.0,127.0,129.0,-1.0,104.0,-80.0,127.0,127.0,127.0,-113.0,-84.0,118.0
126.0,127.0,127.0,127.0,127.0,128.0,127.0,129.0,-1.0,104.0,-80.0,127.0,127.0,127.0,-113.0,-84.0,118.0
126.0,127.0,127.0,127.0,126.0,128.0,126.0,129.0,-1.0,104.0,-80.0,127.0,127.0,127.0,-113.0,-84.0,118.0
126.0,127.0,127.0,127.0,126.0,129.0,126.0,129.0,-1.0,104.0,-80.0,127.0,127.0,127.0,-113.0,-84.0,118.0
126.0,128.0,127.0,128.0,126.0,128.0,125.0,129.0,-1.0,105.0,-79.0,127.0,127.0,127.0,-113.0,-84.0,118.0
126.0,128.0,127.0,127.0,126.0,128.0,125.0,129.0,-1.0,105.0,-79.0,127.0,127.0,127.0,-113.0,-84.0,118.0
126.0,127.0,127.0,127.0,126.0,128.0,126.0,129.0,-1.0,105.0,-79.0,127.0,127.0,127.0,-113.0,-84.0,118.0
126.0,128.0,127.0,127.0,126.0,128.0,126.0,129.0,-1.0,105.0,-79.0,127.0,127.0,127.0,-113.0,-84.0,118.0
126.0,127.0,127.0,127.0,126.0,128.0,126.0,129.0,-1.0,105.0,-79.0,127.0,127.0,127.0,-113.0,-84.0,118.0
126.0,127.0,127.0,127.0,127.0,128.0,126.0,129.0,-1.0,105.0,-79.0,127.0,127.0,127.0,-113.0,-84.0,118.0
126.0,127.0,127.0,127.0,126.0,128.0,126.0,129.0,-1.0,105.0,-79.0,127.0,127.0,127.0,-113.0,-84.0,118.0
126.0,127.0,127.0,127.0,126.0,128.0,126.0,129.0,-1.0,105.0,-79.0,127.0,127.0,127.0,-113.0,-84.0,118.0
126.0,128.0,127.0,127.0,126.0,129.0,125.0,129.0,-1.0,105.0,-79.0,127.0,127.0,127.0,-113.0,-84.0,118.0
126.0,128.0,127.0,127.0,126.0,128.0,125.0,129.0,-1.0,105.0,-79.0,127.0,127.0,127.0,-113.0,-84.0,118.0
126.0,127.0,127.0,127.0,127.0,129.0,125.0,129.0,-1.0,105.0,-79.0,127.0,127.0,127.0,-113.0,-84.0,118.0
126.0,127.0,127.0,127.0,127.0,128.0,125.0,129.0,-1.0,105.0,-79.0,127.0,127.0,127.0,-113.0,-84.0,118.0
126.0,127.0,127.0,127.0,127.0,128.0,125.0,129.0,-1.0,105.0,-79.0,127.0,127.0,127.0,-113.0,-84.0,118.0
126.0,127.0,127.0,127.0,127.0,128.0,125.0,129.0,-1.0,105.0,-79.0,127.0,127.0,127.0,-113.0,-84.0,118.0
126.0,127.0,127.0,127.0,127.0,128.0,125.0,129.0,-1.0,105.0,-79.0,127.0,127.0,127.0,-113.0,-84.0,118.0
126.0,127.0,127.0,127.0,127.0,128.0,125.0,129.0,-1.0,105.0,-79.0,127.0,127.0,127.0,-113.0,-84.0,118.0
126.0,127.0,128.0,127.0,127.0,128.0,125.0,129.0,-1.0,105.0,-79.0,127.0,127.0,127.0,-113.0,-84.0,118.0
126.0,127.0,127.0,127.0,127.0,129.0,125.0,129.0,-1.0,105.0,-79.0,127.0,127.0,127.0,-113.0,-84.0,118.0
126.0,127.0,127.0,127.0,127.0,129.0,125.0,129.0,-1.0,105.0,-79.0,127.0,127.0,127.0,-113.0,-84.0,118.0
126.0,127.0,127.0,127.0,127.0,129.0,125.0,129.0,-1.0,105.0,-79.0,127.0,127.0,127.0,-113.0,-84.0,118.0
126.0,127.0,127.0,128.0,126.0,129.0,126.0,130.0,-1.0,105.0,-79.0,127.0,127.0,127.0,-113.0,-84.0,118.0
127.0,127.0,127.0,128.0,126.0,129.0,126.0,130.0,-1.0,105.0,-79.0,127.0,127.0,127.0,-113.0,-84.0,118.0
127.0,127.0,127.0,128.0,127.0,129.0,126.0,130.0,-1.0,105.0,-79.0,127.0,127.0,127.0,-113.0,-84.0,118.0
127.0,127.0,127.0,128.0,127.0,129.0,126.0,130.0,-1.0,105.0,-79.0,127.0,127.0,127.0,-113.0,-84.0,118.0
127.0,127.0,127.0,128.0,127.0,129.0,126.0,130.0,-1.0,105.0,-79.0,127.0,127.0,127.0,-113.0,-84.0,118.0
126.0,127.0,127.0,128.0,127.0,129.0,126.0,130.0,-1.0,105.0,-79.0,127.0,127.0,127.0,-113.0,-84.0,118.0
127.0,127.0,127.0,128.0,127.0,129.0,126.0,130.0,-1.0,105.0,-79.0,127.0,127.0,127.0,-113.0,-84.0,118.0
126.0,127.0,127.0,128.0,127.0,129.0,126.0,129.0,-1.0,105.0,-79.0,127.0,127.0,127.0,-113.0,-84.0,118.0
126.0,127.0,127.0,128.0,127.0,128.0,126.0,129.0,-1.0,105.0,-79.0,127.0,127.0,127.0,-113.0,-84.0,118.0
126.0,127.0,127.0,128.0,127.0,128.0,126.0,129.0,-1.0,105.0,-79.0,127.0,127.0,127.0,-113.0,-84.0,118.0
127.0,127.0,127.0,127.0,126.0,128.0,127.0,130.0,-1.0,105.0,-79.0,127.0,127.0,127.0,-113.0,-84.0,118.0
127.0,127.0,127.0,127.0,127.0,128.0,126.0,129.0,-1.0,105.0,-79.0,127.0,127.0,127.0,-113.0,-84.0,118.0
127.0,128.0,127.0,127.0,126.0,129.0,126.0,129.0,-1.0,105.0,-79.0,127.0,127.0,127.0,-113.0,-84.0,118.0
127.0,128.0,127.0,128.0,126.0,129.0,126.0,130.0,-1.0,105.0,-79.0,127.0,127.0,127.0,-113.0,-84.0,118.0
127.0,128.0,127.0,128.0,127.0,129.0,126.0,129.0,-1.0,105.0,-79.0,127.0,127.0,127.0,-113.0,-84.0,118.0
127.0,128.0,127.0,128.0,127.0,128.0,126.0,129.0,-1.0,105.0,-79.0,127.0,127.0,127.0,-113.0,-84.0,118.0
127.0,128.0,127.0,127.0,127.0,128.0,126.0,129.0,-1.0,105.0,-79.0,127.0,127.0,127.0,-113.0,-84.0,118.0
127.0,128.0,127.0,127.0,127.0,128.0,126.0,129.0,-1.0,105.0,-79.0,127.0,127.0,127.0,-113.0,-84.0,118.0
126.0,128.0,127.0,128.0,127.0,128.0,126.0,129.0,-1.0,105.0,-79.0,127.0,127.0,127.0,-113.0,-84.0,118.0
127.0,128.0,127.0,127.0,126.0,128.0,126.0,129.0,-1.0,105.0,-79.0,127.0,127.0,127.0,-113.0,-84.0,118.0
127.0,127.0,127.0,128.0,127.0,128.0,126.0,129.0,-1.0,105.0,-79.0,127.0,127.0,127.0,-113.0,-84.0,118.0
127.0,127.0,127.0,127.0,127.0,128.0,126.0,129.0,-1.0,105.0,-79.0,127.0,127.0,127.0,-113.0,-84.0,118.0
127.0,127.0,127.0,128.0,127.0,128.0,126.0,129.0,-1.0,105.0,-79.0,127.0,127.0,127.0,-113.0,-84.0,118.0
127.0,127.0,127.0,128.0,127.0,128.0,126.0,129.0,-1.0,105.0,-79.0,127.0,127.0,127.0,-113.0,-84.0,118.0
126.0,127.0,127.0,128.0,126.0,128.0,126.0,129.0,-1.0,105.0,-79.0,127.0,127.0,127.0,-113.0,-84.0,118.0
127.0,127.0,127.0,128.0,126.0,129.0,126.0,129.0,-1.0,105.0,-79.0,127.0,127.0,127.0,-113.0,-84.0,118.0
127.0,127.0,127.0,127.0,126.0,129.0,126.0,129.0,-1.0,105.0,-79.0,127.0,127.0,127.0,-113.0,-84.0,118.0
127.0,127.0,127.0,128.0,126.0,129.0,126.0,129.0,-1.0,105.0,-79.0,127.0,127.0,127.0,-113.0,-84.0,118.0
127.0,127.0,127.0,127.0,127.0,128.0,126.0,129.0,-1.0,105.0,-79.0,127.0,127.0,127.0,-113.0,-84.0,118.0
127.0,127.0,127.0,128.0,127.0,128.0,126.0,129.0,-1.0,105.0,-79.0,127.0,127.0,127.0,-113.0,-84.0,118.0
127.0,127.0,127.0,127.0,126.0,128.0,125.0,128.0,-1.0,105.0,-79.0,127.0,127.0,127.0,-113.0,-84.0,118.0
127.0,127.0,127.0,127.0,126.0,128.0,125.0,128.0,-1.0,105.0,-79.0,127.0,127.0,127.0,-113.0,-84.0,118.0
127.0,127.0,127.0,127.0,126.0,128.0,125.0,128.0,-1.0,105.0,-79.0,127.0,127.0,127.0,-113.0,-84.0,118.0
127.0,127.0,127.0,127.0,126.0,128.0,125.0,128.0,-1.0,105.0,-79.0,127.0,127.0,127.0,-113.0,-84.0,118.0
127.0,127.0,127.0,127.0,126.0,129.0,125.0,129.0,-1.0,105.0,-79.0,127.0,127.0,127.0,-113.0,-84.0,118.0
127.0,127.0,127.0,127.0,126.0,129.0,125.0,129.0,-1.0,105.0,-79.0,127.0,127.0,127.0,-113.0,-84.0,118.0
127.0,127.0,127.0,127.0,126.0,129.0,125.0,129.0,-1.0,105.0,-79.0,127.0,127.0,127.0,-113.0,-84.0,118.0
127.0,127.0,127.0,127.0,125.0,128.0,125.0,128.0,-1.0,105.0,-79.0,127.0,127.0,127.0,-113.0,-84.0,118.0
127.0,127.0,127.0,127.0,126.0,128.0,125.0,128.0,-1.0,105.0,-79.0,127.0,127.0,127.0,-113.0,-84.0,118.0
127.0,127.0,127.0,127.0,126.0,128.0,125.0,129.0,-1.0,105.0,-79.0,127.0,127.0,127.0,-113.0,-84.0,118.0
126.0,127.0,127.0,127.0,127.0,128.0,125.0,128.0,-1.0,105.0,-79.0,127.0,127.0,127.0,-113.0,-84.0,118.0
126.0,127.0,127.0,127.0,127.0,128.0,125.0,128.0,-1.0,105.0,-79.0,127.0,127.0,127.0,-113.0,-84.0,118.0
126.0,127.0,127.0,127.0,127.0,128.0,124.0,128.0,-1.0,105.0,-79.0,127.0,127.0,127.0,-113.0,-84.0,118.0
126.0,127.0,127.0,127.0,126.0,129.0,124.0,128.0,-1.0,105.0,-79.0,127.0,127.0,127.0,-113.0,-84.0,118.0
126.0,127.0,127.0,127.0,126.0,129.0,124.0,128.0,-1.0,105.0,-79.0,127.0,127.0,127.0,-113.0,-84.0,118.0
126.0,127.0,127.0,127.0,126.0,129.0,124.0,128.0,-1.0,105.0,-79.0,127.0,127.0,127.0,-113.0,-84.0,118.0
126.0,127.0,127.0,127.0,127.0,128.0,125.0,128.0,-1.0,105.0,-79.0,127.0,127.0,127.0,-113.0,-84.0,118.0
126.0,127.0,127.0,127.0,127.0,128.0,125.0,128.0,-1.0,105.0,-79.0,127.0,127.0,127.0,-113.0,-84.0,118.0
126.0,127.0,127.0,127.0,127.0,128.0,125.0,128.0,-1.0,105.0,-79.0,127.0,127.0,127.0,-113.0,-84.0,118.0
126.0,127.0,127.0,127.0,127.0,128.0,125.0,128.0,-1.0,105.0,-79.0,127.0,127.0,127.0,-113.0,-84.0,118.0
127.0,127.0,127.0,127.0,127.0,128.0,125.0,129.0,-1.0,105.0,-79.0,127.0,127.0,127.0,-113.0,-84.0,118.0
126.0,127.0,127.0,127.0,127.0,128.0,125.0,129.0,-1.0,105.0,-79.0,127.0,127.0,127.0,-113.0,-84.0,118.0
127.0,127.0,127.0,127.0,127.0,128.0,125.0,129.0,-1.0,105.0,-79.0,127.0,127.0,127.0,-113.0,-84.0,118.0
126.0,127.0,127.0,127.0,127.0,128.0,125.0,129.0,-1.0,105.0,-79.0,127.0,127.0,127.0,-113.0,-84.0,118.0
127.0,127.0,127.0,127.0,127.0,128.0,125.0,129.0,-1.0,105.0,-79.0,127.0,127.0,127.0,-113.0,-84.0,118.0
126.0,127.0,127.0,127.0,127.0,128.0,125.0,129.0,-1.0,105.0,-79.0,127.0,127.0,127.0,-113.0,-84.0,118.0
127.0,127.0,127.0,127.0,127.0,128.0,125.0,129.0,-1.0,105.0,-79.0,127.0,127.0,127.0,-113.0,-84.0,118.0
127.0,127.0,127.0,127.0,127.0,128.0,125.0,129.0,-1.0,105.0,-79.0,127.0,127.0,127.0,-113.0,-84.0,118.0
127.0,127.0,127.0,127.0,127.0,128.0,125.0,129.0,-1.0,105.0,-79.0,127.0,127.0,127.0,-113.0,-84.0,118.0
126.0,127.0,127.0,127.0,127.0,128.0,125.0,129.0,-1.0,105.0,-79.0,127.0,127.0,127.0,-113.0,-84.0,118.0
127.0,127.0,127.0,127.0,127.0,127.0,125.0,129.0,-1.0,105.0,-79.0,127.0,127.0,127.0,-113.0,-84.0,118.0
127.0,127.0,127.0,127.0,127.0,128.0,124.0,129.0,-1.0,105.0,-79.0,127.0,127.0,127.0,-113.0,-84.0,118.0
127.0,127.0,127.0,127.0,127.0,128.0,124.0,129.0,-1.0,105.0,-79.0,127.0,127.0,127.0,-113.0,-84.0,118.0
127.0,127.0,127.0,127.0,127.0,128.0,125.0,129.0,-1.0,105.0,-79.0,127.0,127.0,127.0,-113.0,-84.0,118.0
126.0,127.0,127.0,127.0,127.0,127.0,125.0,129.0,-1.0,105.0,-79.0,127.0,127.0,127.0,-113.0,-84.0,118.0
127.0,127.0,127.0,127.0,127.0,128.0,125.0,129.0,-1.0,105.0,-79.0,127.0,127.0,127.0,-113.0,-84.0,118.0
127.0,127.0,127.0,127.0,127.0,128.0,125.0,129.0,-1.0,105.0,-79.0,127.0,127.0,127.0,-113.0,-84.0,118.0
127.0,127.0,127.0,127.0,127.0,127.0,125.0,129.0,-1.0,105.0,-79.0,127.0,127.0,127.0,-113.0,-84.0,118.0
127.0,127.0,127.0,127.0,127.0,127.0,125.0,129.0,-1.0,105.0,-79.0,127.0,127.0,127.0,-113.0,-84.0,118.0
127.0,127.0,127.0,127.0,127.0,127.0,125.0,129.0,-1.0,105.0,-79.0,127.0,127.0,127.0,-113.0,-84.0,118.0
127.0,127.0,127.0,127.0,127.0,129.0,125.0,129.0,-1.0,105.0,-79.0,127.0,127.0,127.0,-113.0,-84.0,118.0
127.0,127.0,127.0,127.0,127.0,129.0,125.0,129.0,-1.0,105.0,-79.0,127.0,127.0,127.0,-113.0,-84.0,118.0
127.0,127.0,127.0,127.0,127.0,129.0,125.0,129.0,-1.0,105.0,-79.0,127.0,127.0,127.0,-113.0,-84.0,118.0
127.0,127.0,127.0,127.0,127.0,128.0,125.0,129.0,-1.0,105.0,-79.0,127.0,127.0,127.0,-113.0,-84.0,118.0
127.0,127.0,127.0,127.0,127.0,128.0,125.0,130.0,-1.0,105.0,-79.0,127.0,127.0,127.0,-113.0,-84.0,118.0
127.0,127.0,127.0,127.0,127.0,128.0,125.0,130.0,-1.0,105.0,-79.0,127.0,127.0,127.0,-113.0,-84.0,118.0
127.0,127.0,127.0,127.0,127.0,128.0,125.0,130.0,-1.0,105.0,-79.0,127.0,127.0,127.0,-113.0,-84.0,118.0
127.0,127.0,127.0,127.0,127.0,128.0,125.0,129.0,-1.0,105.0,-79.0,127.0,127.0,127.0,-113.0,-84.0,118.0
127.0,127.0,127.0,127.0,127.0,128.0,125.0,129.0,-1.0,105.0,-79.0,127.0,127.0,127.0,-113.0,-84.0,118.0
127.0,127.0,127.0,127.0,127.0,128.0,125.0,129.0,-1.0,105.0,-79.0,127.0,127.0,127.0,-113.0,-84.0,118.0
127.0,126.0,127.0,127.0,127.0,127.0,125.0,128.0,-1.0,105.0,-79.0,127.0,127.0,127.0,-113.0,-84.0,118.0
127.0,126.0,127.0,127.0,127.0,127.0,125.0,128.0,-1.0,105.0,-79.0,127.0,127.0,127.0,-113.0,-84.0,118.0
127.0,126.0,127.0,127.0,127.0,127.0,125.0,129.0,-1.0,105.0,-79.0,127.0,127.0,127.0,-113.0,-84.0,118.0
127.0,126.0,127.0,127.0,127.0,127.0,125.0,128.0,-1.0,105.0,-79.0,127.0,127.0,127.0,-113.0,-84.0,118.0
127.0,127.0,127.0,127.0,127.0,127.0,125.0,129.0,-1.0,105.0,-79.0,127.0,127.0,127.0,-113.0,-84.0,118.0
127.0,127.0,128.0,127.0,127.0,127.0,125.0,128.0,-1.0,105.0,-79.0,127.0,127.0,127.0,-113.0,-84.0,118.0
127.0,126.0,127.0,127.0,127.0,127.0,125.0,128.0,-1.0,105.0,-79.0,127.0,127.0,127.0,-113.0,-84.0,118.0
127.0,126.0,127.0,127.0,127.0,127.0,125.0,128.0,-1.0,105.0,-79.0,127.0,127.0,127.0,-113.0,-84.0,118.0
127.0,127.0,127.0,127.0,127.0,127.0,125.0,128.0,-1.0,105.0,-79.0,127.0,127.0,127.0,-113.0,-84.0,118.0
127.0,126.0,127.0,127.0,127.0,127.0,125.0,129.0,-1.0,105.0,-79.0,127.0,127.0,127.0,-113.0,-84.0,118.0
127.0,127.0,127.0,127.0,127.0,128.0,125.0,129.0,-1.0,105.0,-79.0,127.0,127.0,127.0,-113.0,-84.0,118.0
127.0,127.0,127.0,127.0,127.0,128.0,125.0,129.0,-1.0,105.0,-79.0,127.0,127.0,127.0,-113.0,-84.0,118.0
127.0,127.0,127.0,127.0,127.0,127.0,125.0,129.0,-1.0,105.0,-79.0,127.0,127.0,127.0,-113.0,-84.0,118.0
127.0,127.0,127.0,127.0,127.0,127.0,125.0,129.0,-1.0,105.0,-79.0,127.0,127.0,127.0,-113.0,-84.0,118.0
127.0,127.0,127.0,127.0,127.0,127.0,125.0,129.0,-1.0,105.0,-79.0,127.0,127.0,127.0,-113.0,-84.0,118.0
127.0,127.0,127.0,127.0,127.0,128.0,125.0,129.0,-1.0,105.0,-79.0,127.0,127.0,127.0,-113.0,-84.0,118.0
127.0,127.0,127.0,127.0,127.0,128.0,125.0,129.0,-1.0,105.0,-79.0,127.0,127.0,127.0,-113.0,-84.0,118.0
127.0,127.0,127.0,127.0,127.0,128.0,125.0,129.0,-1.0,105.0,-79.0,127.0,127.0,127.0,-113.0,-84.0,118.0
127.0,127.0,127.0,127.0,127.0,128.0,125.0,129.0,-1.0,105.0,-79.0,127.0,127.0,127.0,-113.0,-84.0,118.0
127.0,127.0,127.0,127.0,127.0,128.0,125.0,129.0,-1.0,105.0,-79.0,127.0,127.0,127.0,-113.0,-84.0,118.0
127.0,127.0,127.0,127.0,127.0,128.0,126.0,129.0,-1.0,105.0,-79.0,127.0,127.0,127.0,-113.0,-84.0,118.0
127.0,127.0,127.0,127.0,127.0,127.0,126.0,128.0,-1.0,105.0,-79.0,127.0,127.0,127.0,-113.0,-84.0,118.0
127.0,127.0,127.0,127.0,127.0,127.0,126.0,128.0,-1.0,105.0,-79.0,127.0,127.0,127.0,-113.0,-84.0,118.0
127.0,127.0,127.0,127.0,127.0,127.0,126.0,128.0,-1.0,105.0,-79.0,127.0,127.0,127.0,-113.0,-84.0,118.0
127.0,127.0,127.0,127.0,126.0,128.0,125.0,129.0,-1.0,105.0,-79.0,127.0,127.0,127.0,-113.0,-84.0,118.0
127.0,127.0,127.0,127.0,126.0,128.0,125.0,129.0,-1.0,105.0,-79.0,127.0,127.0,127.0,-113.0,-84.0,118.0
127.0,127.0,127.0,127.0,126.0,128.0,125.0,129.0,-1.0,105.0,-79.0,127.0,127.0,127.0,-113.0,-84.0,118.0
127.0,127.0,127.0,127.0,126.0,128.0,125.0,128.0,-1.0,105.0,-79.0,127.0,127.0,127.0,-113.0,-84.0,118.0
127.0,127.0,127.0,127.0,126.0,128.0,125.0,128.0,-1.0,105.0,-79.0,127.0,127.0,127.0,-113.0,-84.0,118.0
127.0,127.0,127.0,127.0,126.0,128.0,125.0,128.0,-1.0,105.0,-79.0,127.0,127.0,127.0,-113.0,-84.0,118.0
127.0,127.0,127.0,127.0,126.0,128.0,125.0,129.0,-1.0,105.0,-79.0,127.0,127.0,127.0,-113.0,-84.0,118.0
127.0,127.0,127.0,127.0,126.0,128.0,125.0,129.0,-1.0,105.0,-79.0,127.0,127.0,127.0,-113.0,-84.0,118.0
127.0,127.0,127.0,127.0,126.0,128.0,125.0,129.0,-1.0,105.0,-79.0,127.0,127.0,127.0,-113.0,-84.0,118.0
127.0,127.0,127.0,127.0,126.0,128.0,125.0,129.0,-1.0,105.0,-79.0,127.0,127.0,127.0,-113.0,-84.0,118.0
127.0,127.0,127.0,127.0,126.0,128.0,125.0,129.0,-1.0,105.0,-79.0,127.0,127.0,127.0,-113.0,-84.0,118.0
127.0,127.0,127.0,127.0,126.0,128.0,125.0,129.0,-1.0,105.0,-79.0,127.0,127.0,127.0,-113.0,-84.0,118.0
127.0,127.0,127.0,127.0,126.0,128.0,125.0,129.0,-1.0,105.0,-79.0,127.0,127.0,127.0,-113.0,-84.0,118.0
127.0,127.0,127.0,127.0,126.0,128.0,125.0,129.0,-1.0,105.0,-79.0,127.0,127.0,127.0,-113.0,-84.0,118.0
127.0,127.0,127.0,127.0,126.0,128.0,125.0,129.0,-1.0,105.0,-79.0,127.0,127.0,127.0,-113.0,-84.0,118.0
127.0,127.0,127.0,127.0,126.0,128.0,125.0,129.0,-1.0,105.0,-79.0,127.0,127.0,127.0,-113.0,-84.0,118.0
127.0,127.0,127.0,127.0,126.0,128.0,126.0,129.0,-1.0,105.0,-79.0,127.0,127.0,127.0,-113.0,-84.0,118.0
127.0,127.0,127.0,127.0,126.0,128.0,126.0,129.0,-1.0,105.0,-79.0,127.0,127.0,127.0,-113.0,-84.0,118.0
127.0,127.0,127.0,127.0,126.0,128.0,125.0,129.0,-1.0,105.0,-79.0,127.0,127.0,127.0,-113.0,-84.0,118.0
127.0,127.0,127.0,127.0,126.0,129.0,125.0,129.0,-1.0,105.0,-79.0,127.0,127.0,127.0,-113.0,-84.0,118.0
127.0,127.0,127.0,127.0,126.0,129.0,125.0,129.0,-1.0,105.0,-79.0,127.0,127.0,127.0,-113.0,-84.0,118.0
127.0,127.0,127.0,127.0,126.0,129.0,125.0,129.0,-1.0,105.0,-79.0,127.0,127.0,127.0,-113.0,-84.0,118.0
127.0,127.0,127.0,127.0,126.0,129.0,125.0,129.0,-1.0,105.0,-79.0,127.0,127.0,127.0,-113.0,-84.0,118.0
127.0,127.0,127.0,127.0,126.0,128.0,126.0,129.0,-1.0,105.0,-79.0,127.0,127.0,127.0,-113.0,-84.0,118.0
127.0,127.0,127.0,127.0,126.0,128.0,126.0,129.0,-1.0,105.0,-79.0,127.0,127.0,127.0,-113.0,-84.0,118.0
127.0,127.0,127.0,127.0,126.0,128.0,126.0,129.0,-1.0,105.0,-79.0,127.0,127.0,127.0,-113.0,-84.0,118.0
127.0,127.0,127.0,127.0,127.0,128.0,125.0,129.0,-1.0,105.0,-79.0,127.0,127.0,127.0,-113.0,-84.0,118.0
127.0,127.0,127.0,127.0,126.0,129.0,125.0,129.0,-1.0,105.0,-79.0,127.0,127.0,127.0,-113.0,-84.0,118.0
127.0,127.0,127.0,127.0,126.0,129.0,125.0,129.0,-1.0,105.0,-79.0,127.0,127.0,127.0,-113.0,-84.0,118.0
127.0,127.0,127.0,127.0,126.0,129.0,125.0,129.0,-1.0,105.0,-79.0,127.0,127.0,127.0,-113.0,-84.0,118.0
127.0,127.0,127.0,127.0,126.0,129.0,125.0,129.0,-1.0,105.0,-79.0,127.0,127.0,127.0,-113.0,-84.0,118.0
127.0,127.0,127.0,127.0,126.0,129.0,125.0,129.0,-1.0,105.0,-79.0,127.0,127.0,127.0,-113.0,-84.0,118.0
127.0,127.0,127.0,127.0,126.0,129.0,126.0,129.0,-1.0,105.0,-79.0,127.0,127.0,127.0,-113.0,-84.0,118.0
127.0,127.0,127.0,127.0,127.0,129.0,126.0,129.0,-1.0,105.0,-79.0,127.0,127.0,127.0,-113.0,-84.0,118.0
127.0,127.0,127.0,127.0,127.0,129.0,125.0,129.0,-1.0,105.0,-79.0,127.0,127.0,127.0,-113.0,-84.0,118.0
127.0,127.0,127.0,127.0,127.0,128.0,125.0,129.0,-1.0,105.0,-79.0,127.0,127.0,127.0,-113.0,-84.0,118.0
127.0,127.0,127.0,127.0,127.0,128.0,127.0,129.0,-1.0,105.0,-79.0,127.0,127.0,127.0,-113.0,-84.0,118.0
127.0,127.0,127.0,127.0,127.0,127.0,127.0,129.0,-1.0,105.0,-79.0,127.0,127.0,127.0,-113.0,-84.0,118.0
127.0,127.0,127.0,127.0,127.0,128.0,127.0,129.0,-1.0,105.0,-79.0,127.0,127.0,127.0,-113.0,-84.0,118.0
127.0,127.0,127.0,127.0,127.0,127.0,126.0,129.0,-1.0,105.0,-79.0,127.0,127.0,127.0,-113.0,-84.0,118.0
127.0,127.0,127.0,127.0,127.0,128.0,126.0,129.0,-1.0,105.0,-79.0,127.0,127.0,127.0,-113.0,-84.0,118.0
127.0,127.0,128.0,127.0,127.0,126.0,127.0,129.0,-1.0,105.0,-79.0,127.0,127.0,127.0,-113.0,-84.0,118.0
127.0,127.0,127.0,127.0,127.0,127.0,127.0,129.0,-1.0,105.0,-79.0,127.0,127.0,127.0,-113.0,-84.0,118.0
127.0,127.0,127.0,127.0,127.0,127.0,127.0,129.0,-1.0,105.0,-79.0,127.0,127.0,127.0,-113.0,-84.0,118.0
127.0,127.0,127.0,127.0,126.0,128.0,127.0,129.0,-1.0,105.0,-79.0,127.0,127.0,127.0,-113.0,-84.0,118.0
127.0,127.0,127.0,127.0,127.0,128.0,127.0,129.0,-1.0,105.0,-79.0,127.0,127.0,127.0,-113.0,-84.0,118.0
127.0,127.0,127.0,127.0,127.0,128.0,127.0,129.0,-1.0,105.0,-79.0,127.0,127.0,127.0,-113.0,-84.0,118.0
127.0,127.0,127.0,127.0,127.0,128.0,127.0,129.0,-1.0,105.0,-79.0,127.0,127.0,127.0,-113.0,-84.0,118.0
127.0,127.0,127.0,127.0,127.0,127.0,126.0,129.0,-1.0,105.0,-79.0,127.0,127.0,127.0,-113.0,-84.0,118.0
127.0,127.0,127.0,127.0,127.0,128.0,126.0,129.0,-1.0,105.0,-79.0,127.0,127.0,127.0,-113.0,-84.0,118.0
127.0,127.0,127.0,127.0,127.0,127.0,127.0,129.0,-1.0,105.0,-79.0,127.0,127.0,127.0,-113.0,-84.0,118.0
127.0,127.0,127.0,127.0,127.0,127.0,127.0,129.0,-1.0,105.0,-79.0,127.0,127.0,127.0,-113.0,-84.0,118.0
127.0,127.0,127.0,127.0,127.0,127.0,127.0,129.0,-1.0,105.0,-79.0,127.0,127.0,127.0,-113.0,-84.0,118.0
127.0,127.0,127.0,127.0,127.0,128.0,126.0,129.0,-1.0,105.0,-79.0,127.0,127.0,127.0,-113.0,-84.0,118.0
127.0,127.0,127.0,127.0,127.0,128.0,127.0,129.0,-1.0,105.0,-79.0,127.0,127.0,127.0,-113.0,-84.0,118.0
127.0,127.0,127.0,127.0,127.0,128.0,127.0,129.0,-1.0,105.0,-79.0,127.0,127.0,127.0,-113.0,-84.0,118.0
127.0,127.0,127.0,127.0,127.0,126.0,126.0,129.0,-1.0,105.0,-79.0,127.0,127.0,127.0,-113.0,-84.0,118.0
127.0,127.0,127.0,127.0,127.0,126.0,126.0,129.0,-1.0,105.0,-79.0,127.0,127.0,127.0,-113.0,-84.0,118.0
127.0,127.0,127.0,127.0,127.0,126.0,126.0,129.0,-1.0,105.0,-79.0,127.0,127.0,127.0,-113.0,-84.0,118.0
127.0,127.0,127.0,127.0,127.0,126.0,127.0,129.0,-1.0,105.0,-79.0,127.0,127.0,127.0,-113.0,-84.0,118.0
127.0,127.0,127.0,127.0,127.0,127.0,127.0,129.0,-1.0,105.0,-79.0,127.0,127.0,127.0,-113.0,-84.0,118.0
127.0,127.0,127.0,127.0,127.0,127.0,127.0,129.0,-1.0,105.0,-79.0,127.0,127.0,127.0,-113.0,-84.0,118.0
127.0,127.0,127.0,127.0,127.0,126.0,126.0,129.0,-1.0,105.0,-79.0,127.0,127.0,127.0,-113.0,-84.0,118.0
127.0,127.0,127.0,127.0,127.0,127.0,126.0,129.0,-1.0,105.0,-79.0,127.0,127.0,127.0,-113.0,-84.0,118.0
127.0,127.0,127.0,127.0,127.0,126.0,126.0,129.0,-1.0,105.0,-79.0,127.0,127.0,127.0,-113.0,-84.0,118.0
127.0,127.0,127.0,127.0,127.0,126.0,126.0,129.0,-1.0,105.0,-79.0,127.0,127.0,127.0,-113.0,-84.0,118.0
127.0,127.0,127.0,127.0,127.0,128.0,126.0,129.0,-1.0,105.0,-79.0,127.0,127.0,127.0,-113.0,-84.0,118.0
127.0,127.0,127.0,127.0,127.0,128.0,126.0,129.0,-1.0,105.0,-79.0,127.0,127.0,127.0,-113.0,-84.0,118.0
127.0,127.0,127.0,127.0,126.0,128.0,126.0,129.0,-1.0,105.0,-79.0,127.0,127.0,127.0,-113.0,-84.0,118.0
127.0,127.0,127.0,127.0,126.0,128.0,126.0,129.0,-1.0,105.0,-79.0,127.0,127.0,127.0,-113.0,-84.0,118.0
127.0,127.0,127.0,127.0,127.0,128.0,126.0,129.0,-1.0,105.0,-79.0,127.0,127.0,127.0,-113.0,-84.0,118.0
127.0,127.0,127.0,127.0,127.0,128.0,126.0,129.0,-1.0,105.0,-79.0,127.0,127.0,127.0,-113.0,-84.0,118.0
127.0,127.0,127.0,127.0,127.0,128.0,126.0,129.0,-1.0,105.0,-79.0,127.0,127.0,127.0,-113.0,-84.0,118.0
127.0,127.0,127.0,127.0,127.0,128.0,126.0,129.0,-1.0,105.0,-79.0,127.0,127.0,127.0,-113.0,-84.0,118.0
127.0,127.0,127.0,127.0,127.0,128.0,126.0,129.0,-1.0,105.0,-79.0,127.0,127.0,127.0,-113.0,-84.0,118.0
127.0,127.0,128.0,127.0,127.0,128.0,126.0,129.0,-1.0,105.0,-79.0,127.0,127.0,127.0,-113.0,-84.0,118.0
127.0,127.0,127.0,127.0,126.0,127.0,127.0,129.0,-1.0,105.0,-79.0,127.0,127.0,127.0,-113.0,-84.0,118.0
127.0,127.0,127.0,127.0,126.0,128.0,127.0,129.0,-1.0,105.0,-79.0,127.0,127.0,127.0,-113.0,-84.0,118.0
127.0,127.0,127.0,127.0,126.0,128.0,127.0,129.0,-1.0,105.0,-79.0,127.0,127.0,127.0,-113.0,-84.0,118.0
127.0,127.0,127.0,127.0,126.0,128.0,127.0,129.0,-1.0,105.0,-79.0,127.0,127.0,127.0,-113.0,-84.0,118.0
127.0,127.0,127.0,127.0,126.0,128.0,127.0,129.0,-1.0,105.0,-79.0,127.0,127.0,127.0,-113.0,-84.0,118.0
127.0,127.0,127.0,127.0,126.0,128.0,127.0,129.0,-1.0,105.0,-79.0,127.0,127.0,127.0,-113.0,-84.0,118.0
127.0,127.0,127.0,127.0,126.0,128.0,127.0,129.0,-1.0,105.0,-79.0,127.0,127.0,127.0,-113.0,-84.0,118.0
127.0,127.0,127.0,127.0,126.0,128.0,127.0,129.0,-1.0,105.0,-79.0,127.0,127.0,127.0,-113.0,-84.0,118.0
127.0,127.0,127.0,127.0,126.0,128.0,127.0,129.0,-1.0,105.0,-79.0,127.0,127.0,127.0,-113.0,-84.0,118.0
127.0,127.0,127.0,127.0,126.0,128.0,127.0,129.0,-1.0,105.0,-79.0,127.0,127.0,127.0,-113.0,-84.0,118.0
127.0,127.0,127.0,127.0,126.0,128.0,127.0,129.0,-1.0,105.0,-79.0,127.0,127.0,127.0,-113.0,-84.0,118.0
127.0,127.0,127.0,127.0,126.0,128.0,127.0,130.0,-1.0,105.0,-79.0,127.0,127.0,127.0,-113.0,-84.0,118.0
127.0,127.0,127.0,127.0,127.0,128.0,127.0,130.0,-1.0,105.0,-79.0,127.0,127.0,127.0,-113.0,-84.0,118.0
127.0,127.0,127.0,127.0,127.0,128.0,127.0,129.0,-1.0,105.0,-79.0,127.0,127.0,127.0,-113.0,-84.0,118.0
127.0,127.0,127.0,127.0,127.0,128.0,127.0,129.0,-1.0,105.0,-79.0,127.0,127.0,127.0,-113.0,-84.0,118.0
127.0,127.0,127.0,127.0,127.0,128.0,127.0,130.0,-1.0,105.0,-79.0,127.0,127.0,127.0,-113.0,-84.0,118.0
127.0,127.0,127.0,127.0,127.0,128.0,127.0,129.0,-1.0,105.0,-79.0,127.0,127.0,127.0,-113.0,-84.0,118.0
127.0,127.0,127.0,127.0,127.0,128.0,127.0,129.0,-1.0,105.0,-79.0,127.0,127.0,127.0,-113.0,-84.0,118.0
127.0,127.0,127.0,127.0,127.0,128.0,127.0,129.0,-1.0,105.0,-79.0,127.0,127.0,127.0,-113.0,-84.0,118.0
127.0,127.0,127.0,127.0,127.0,127.0,127.0,129.0,-1.0,105.0,-79.0,127.0,127.0,127.0,-113.0,-84.0,118.0
127.0,127.0,127.0,127.0,127.0,128.0,126.0,130.0,-1.0,105.0,-79.0,127.0,127.0,127.0,-113.0,-84.0,118.0
127.0,127.0,127.0,127.0,127.0,128.0,126.0,130.0,-1.0,105.0,-79.0,127.0,127.0,127.0,-113.0,-84.0,118.0
127.0,127.0,127.0,127.0,127.0,128.0,126.0,130.0,-1.0,105.0,-79.0,127.0,127.0,127.0,-113.0,-84.0,118.0
127.0,127.0,127.0,127.0,127.0,128.0,126.0,130.0,-1.0,105.0,-79.0,127.0,127.0,127.0,-113.0,-84.0,118.0
127.0,127.0,127.0,127.0,127.0,128.0,126.0,130.0,-1.0,105.0,-79.0,127.0,127.0,127.0,-113.0,-84.0,118.0
127.0,127.0,127.0,127.0,127.0,128.0,126.0,130.0,-1.0,105.0,-79.0,127.0,127.0,127.0,-113.0,-84.0,118.0
127.0,127.0,127.0,127.0,127.0,128.0,126.0,129.0,-1.0,105.0,-79.0,127.0,127.0,127.0,-113.0,-84.0,118.0
127.0,127.0,127.0,127.0,127.0,128.0,126.0,129.0,-1.0,105.0,-79.0,127.0,127.0,127.0,-113.0,-84.0,118.0
127.0,127.0,127.0,127.0,127.0,127.0,126.0,129.0,-1.0,105.0,-79.0,127.0,127.0,127.0,-113.0,-84.0,118.0
127.0,127.0,127.0,127.0,127.0,128.0,126.0,130.0,-1.0,105.0,-79.0,127.0,127.0,127.0,-113.0,-84.0,118.0
127.0,127.0,127.0,127.0,126.0,129.0,126.0,130.0,-1.0,105.0,-79.0,127.0,127.0,127.0,-113.0,-84.0,118.0
127.0,127.0,127.0,127.0,127.0,128.0,126.0,130.0,-1.0,105.0,-79.0,127.0,127.0,127.0,-113.0,-84.0,118.0
127.0,127.0,127.0,127.0,127.0,128.0,126.0,130.0,-1.0,105.0,-79.0,127.0,127.0,127.0,-113.0,-84.0,118.0
127.0,127.0,127.0,127.0,127.0,128.0,126.0,130.0,-1.0,105.0,-79.0,127.0,127.0,127.0,-113.0,-84.0,118.0
127.0,127.0,127.0,127.0,127.0,128.0,126.0,130.0,-1.0,105.0,-79.0,127.0,127.0,127.0,-113.0,-84.0,118.0
127.0,127.0,127.0,127.0,127.0,128.0,126.0,130.0,-1.0,105.0,-79.0,127.0,127.0,127.0,-113.0,-84.0,118.0
127.0,127.0,127.0,127.0,127.0,128.0,126.0,130.0,-1.0,105.0,-79.0,127.0,127.0,127.0,-113.0,-84.0,118.0
127.0,127.0,127.0,127.0,127.0,128.0,126.0,129.0,-1.0,105.0,-79.0,127.0,127.0,127.0,-113.0,-84.0,118.0
127.0,127.0,127.0,127.0,126.0,128.0,127.0,130.0,-1.0,105.0,-79.0,127.0,127.0,127.0,-113.0,-84.0,118.0
127.0,127.0,127.0,127.0,126.0,129.0,126.0,130.0,-1.0,105.0,-79.0,127.0,127.0,127.0,-113.0,-84.0,118.0
126.0,127.0,127.0,128.0,127.0,129.0,127.0,129.0,-1.0,105.0,-79.0,127.0,127.0,127.0,-113.0,-84.0,118.0
127.0,127.0,127.0,128.0,127.0,129.0,127.0,130.0,-1.0,105.0,-79.0,127.0,127.0,127.0,-113.0,-84.0,118.0
127.0,127.0,127.0,128.0,127.0,130.0,128.0,130.0,-1.0,105.0,-79.0,127.0,127.0,127.0,-113.0,-84.0,118.0
127.0,128.0,127.0,128.0,128.0,130.0,128.0,130.0,-1.0,105.0,-79.0,127.0,127.0,127.0,-113.0,-84.0,118.0
128.0,128.0,127.0,128.0,128.0,130.0,128.0,130.0,-1.0,105.0,-79.0,127.0,127.0,127.0,-113.0,-84.0,118.0
128.0,128.0,127.0,128.0,128.0,131.0,128.0,130.0,-1.0,105.0,-79.0,127.0,127.0,127.0,-113.0,-84.0,118.0
129.0,129.0,128.0,128.0,128.0,131.0,129.0,130.0,-1.0,105.0,-79.0,127.0,127.0,127.0,-113.0,-84.0,118.0
126.0,127.0,127.0,128.0,127.0,128.0,127.0,129.0,-1.0,105.0,-79.0,127.0,127.0,127.0,-113.0,-84.0,118.0
126.0,127.0,127.0,128.0,127.0,129.0,127.0,130.0,-1.0,105.0,-79.0,127.0,127.0,127.0,-113.0,-84.0,118.0
126.0,127.0,127.0,128.0,127.0,129.0,127.0,130.0,-1.0,105.0,-79.0,127.0,127.0,127.0,-113.0,-84.0,118.0
129.0,129.0,128.0,130.0,130.0,126.0,250.0,128.0,-1.0,105.0,-79.0,127.0,127.0,127.0,-113.0,-84.0,118.0
129.0,130.0,128.0,130.0,129.0,124.0,254.0,128.0,-1.0,105.0,-79.0,127.0,127.0,127.0,-113.0,-84.0,118.0
129.0,130.0,128.0,130.0,129.0,122.0,254.0,128.0,-1.0,105.0,-79.0,127.0,127.0,127.0,-113.0,-84.0,118.0
129.0,130.0,128.0,130.0,129.0,121.0,254.0,127.0,-1.0,105.0,-79.0,127.0,127.0,127.0,-113.0,-84.0,118.0
129.0,130.0,128.0,130.0,129.0,121.0,254.0,127.0,-1.0,105.0,-79.0,127.0,127.0,127.0,-113.0,-84.0,118.0
129.0,130.0,128.0,129.0,128.0,120.0,254.0,126.0,-1.0,105.0,-79.0,127.0,127.0,127.0,-113.0,-84.0,118.0
127.0,128.0,127.0,129.0,130.0,133.0,228.0,129.0,-1.0,105.0,-79.0,127.0,127.0,127.0,-113.0,-84.0,118.0
128.0,128.0,127.0,129.0,130.0,133.0,233.0,129.0,-1.0,105.0,-79.0,127.0,127.0,127.0,-113.0,-84.0,118.0
128.0,128.0,127.0,129.0,130.0,131.0,239.0,129.0,-1.0,105.0,-79.0,127.0,127.0,127.0,-113.0,-84.0,118.0
128.0,129.0,127.0,130.0,130.0,129.0,244.0,129.0,-1.0,105.0,-79.0,127.0,127.0,127.0,-113.0,-84.0,118.0
125.0,125.0,127.0,126.0,115.0,111.0,107.0,117.0,-1.0,105.0,-79.0,127.0,127.0,127.0,-113.0,-84.0,118.0
125.0,125.0,128.0,126.0,115.0,110.0,103.0,117.0,-1.0,105.0,-79.0,127.0,127.0,127.0,-113.0,-84.0,118.0
125.0,125.0,128.0,126.0,116.0,109.0,99.0,117.0,-1.0,105.0,-79.0,127.0,127.0,127.0,-113.0,-84.0,118.0
124.0,124.0,128.0,126.0,116.0,109.0,96.0,117.0,-1.0,105.0,-79.0,127.0,127.0,127.0,-113.0,-84.0,118.0
124.0,122.0,127.0,126.0,116.0,108.0,94.0,117.0,-1.0,105.0,-79.0,127.0,127.0,127.0,-113.0,-84.0,118.0
127.0,123.0,123.0,126.0,116.0,111.0,132.0,114.0,-1.0,105.0,-79.0,127.0,127.0,127.0,-113.0,-84.0,118.0
128.0,124.0,124.0,126.0,116.0,110.0,127.0,114.0,-1.0,105.0,-79.0,127.0,127.0,127.0,-113.0,-84.0,118.0
128.0,124.0,125.0,126.0,116.0,110.0,121.0,115.0,-1.0,105.0,-79.0,127.0,127.0,127.0,-113.0,-84.0,118.0
127.0,124.0,126.0,126.0,116.0,110.0,116.0,115.0,-1.0,105.0,-79.0,127.0,127.0,127.0,-113.0,-84.0,118.0
126.0,124.0,127.0,126.0,115.0,111.0,111.0,116.0,-1.0,105.0,-79.0,127.0,127.0,127.0,-113.0,-84.0,118.0
118.0,104.0,95.0,130.0,125.0,137.0,139.0,145.0,-1.0,106.0,-77.0,126.0,127.0,127.0,-113.0,-84.0,118.0
119.0,105.0,97.0,131.0,126.0,138.0,143.0,145.0,-1.0,106.0,-77.0,126.0,127.0,127.0,-113.0,-84.0,118.0
120.0,106.0,101.0,132.0,127.0,138.0,146.0,146.0,-1.0,106.0,-77.0,126.0,127.0,127.0,-113.0,-84.0,118.0
120.0,107.0,105.0,133.0,128.0,139.0,149.0,146.0,-1.0,106.0,-77.0,126.0,127.0,127.0,-113.0,-84.0,118.0
118.0,100.0,94.0,126.0,119.0,125.0,122.0,142.0,-1.0,106.0,-77.0,126.0,127.0,127.0,-113.0,-84.0,118.0
118.0,100.0,93.0,126.0,120.0,128.0,124.0,142.0,-1.0,106.0,-77.0,126.0,127.0,127.0,-113.0,-84.0,118.0
118.0,101.0,92.0,127.0,120.0,130.0,127.0,142.0,-1.0,106.0,-77.0,126.0,127.0,127.0,-113.0,-84.0,118.0
118.0,101.0,92.0,127.0,121.0,132.0,130.0,143.0,-1.0,106.0,-77.0,126.0,127.0,127.0,-113.0,-84.0,118.0
118.0,102.0,92.0,128.0,122.0,134.0,133.0,143.0,-1.0,106.0,-77.0,126.0,127.0,127.0,-113.0,-84.0,118.0
118.0,103.0,93.0,129.0,123.0,135.0,136.0,144.0,-1.0,106.0,-77.0,126.0,127.0,127.0,-113.0,-84.0,118.0
125.0,133.0,143.0,133.0,133.0,98.0,113.0,162.0,-1.0,109.0,-79.0,126.0,127.0,127.0,-114.0,-84.0,118.0
125.0,133.0,143.0,133.0,133.0,99.0,113.0,162.0,-1.0,109.0,-79.0,126.0,127.0,127.0,-114.0,-84.0,118.0
124.0,133.0,142.0,133.0,133.0,99.0,113.0,161.0,-1.0,109.0,-79.0,126.0,127.0,127.0,-114.0,-84.0,118.0
126.0,132.0,142.0,133.0,133.0,101.0,114.0,163.0,-1.0,109.0,-79.0,126.0,127.0,127.0,-114.0,-84.0,118.0
126.0,132.0,142.0,133.0,133.0,100.0,114.0,163.0,-1.0,109.0,-79.0,126.0,127.0,127.0,-114.0,-84.0,118.0
125.0,133.0,143.0,133.0,133.0,99.0,114.0,163.0,-1.0,109.0,-79.0,126.0,127.0,127.0,-114.0,-84.0,118.0
125.0,133.0,143.0,133.0,133.0,98.0,114.0,163.0,-1.0,109.0,-79.0,126.0,127.0,127.0,-114.0,-84.0,118.0
125.0,133.0,143.0,133.0,133.0,97.0,114.0,163.0,-1.0,109.0,-79.0,126.0,127.0,127.0,-114.0,-84.0,118.0
125.0,133.0,143.0,133.0,133.0,97.0,114.0,162.0,-1.0,109.0,-79.0,126.0,127.0,127.0,-114.0,-84.0,118.0
125.0,133.0,143.0,133.0,133.0,98.0,113.0,162.0,-1.0,109.0,-79.0,126.0,127.0,127.0,-114.0,-84.0,118.0
133.0,125.0,124.0,182.0,131.0,138.0,236.0,164.0,-1.0,105.0,-78.0,125.0,127.0,127.0,-114.0,-84.0,118.0
133.0,125.0,124.0,182.0,130.0,137.0,237.0,164.0,-1.0,105.0,-78.0,125.0,127.0,127.0,-114.0,-84.0,118.0
133.0,126.0,129.0,174.0,131.0,144.0,218.0,163.0,-1.0,105.0,-78.0,125.0,127.0,127.0,-114.0,-84.0,118.0
133.0,126.0,128.0,176.0,132.0,145.0,221.0,164.0,-1.0,105.0,-78.0,125.0,127.0,127.0,-114.0,-84.0,118.0
133.0,125.0,128.0,177.0,132.0,145.0,225.0,164.0,-1.0,105.0,-78.0,125.0,127.0,127.0,-114.0,-84.0,118.0
133.0,125.0,128.0,179.0,132.0,145.0,227.0,165.0,-1.0,105.0,-78.0,125.0,127.0,127.0,-114.0,-84.0,118.0
133.0,125.0,127.0,180.0,132.0,144.0,230.0,165.0,-1.0,105.0,-78.0,125.0,127.0,127.0,-114.0,-84.0,118.0
134.0,125.0,127.0,180.0,132.0,143.0,232.0,165.0,-1.0,105.0,-78.0,125.0,127.0,127.0,-114.0,-84.0,118.0
134.0,125.0,126.0,181.0,131.0,141.0,233.0,165.0,-1.0,105.0,-78.0,125.0,127.0,127.0,-114.0,-84.0,118.0
133.0,125.0,125.0,182.0,131.0,140.0,235.0,165.0,-1.0,105.0,-78.0,125.0,127.0,127.0,-114.0,-84.0,118.0
130.0,139.0,136.0,137.0,125.0,97.0,214.0,160.0,-1.0,105.0,-78.0,126.0,127.0,127.0,-114.0,-84.0,118.0
132.0,134.0,132.0,144.0,125.0,94.0,217.0,163.0,-1.0,105.0,-78.0,126.0,127.0,127.0,-114.0,-84.0,118.0
134.0,135.0,133.0,143.0,125.0,93.0,217.0,163.0,-1.0,105.0,-78.0,126.0,127.0,127.0,-114.0,-84.0,118.0
135.0,135.0,134.0,142.0,125.0,92.0,217.0,163.0,-1.0,105.0,-78.0,126.0,127.0,127.0,-114.0,-84.0,118.0
136.0,136.0,135.0,141.0,125.0,92.0,216.0,163.0,-1.0,105.0,-78.0,126.0,127.0,127.0,-114.0,-84.0,118.0
136.0,137.0,135.0,140.0,125.0,92.0,216.0,163.0,-1.0,105.0,-78.0,126.0,127.0,127.0,-114.0,-84.0,118.0
135.0,137.0,135.0,139.0,125.0,92.0,215.0,162.0,-1.0,105.0,-78.0,126.0,127.0,127.0,-114.0,-84.0,118.0
134.0,138.0,136.0,139.0,125.0,93.0,215.0,161.0,-1.0,105.0,-78.0,126.0,127.0,127.0,-114.0,-84.0,118.0
132.0,138.0,136.0,138.0,125.0,94.0,215.0,161.0,-1.0,105.0,-78.0,126.0,127.0,127.0,-114.0,-84.0,118.0
131.0,139.0,136.0,137.0,125.0,95.0,214.0,160.0,-1.0,105.0,-78.0,126.0,127.0,127.0,-114.0,-84.0,118.0
132.0,137.0,134.0,130.0,125.0,131.0,196.0,154.0,-1.0,102.0,-77.0,126.0,127.0,127.0,-114.0,-84.0,118.0
132.0,137.0,133.0,130.0,124.0,133.0,196.0,153.0,-1.0,102.0,-77.0,126.0,127.0,127.0,-114.0,-84.0,118.0
132.0,137.0,133.0,130.0,124.0,136.0,196.0,153.0,-1.0,102.0,-77.0,126.0,127.0,127.0,-114.0,-84.0,118.0
132.0,137.0,133.0,129.0,124.0,138.0,195.0,153.0,-1.0,102.0,-77.0,126.0,127.0,127.0,-114.0,-84.0,118.0
132.0,137.0,133.0,129.0,124.0,140.0,195.0,152.0,-1.0,102.0,-77.0,126.0,127.0,127.0,-114.0,-84.0,118.0
132.0,137.0,133.0,129.0,124.0,142.0,195.0,152.0,-1.0,102.0,-77.0,126.0,127.0,127.0,-114.0,-84.0,118.0
132.0,137.0,133.0,129.0,124.0,143.0,194.0,152.0,-1.0,102.0,-77.0,126.0,127.0,127.0,-114.0,-84.0,118.0
132.0,137.0,133.0,129.0,125.0,145.0,194.0,152.0,-1.0,102.0,-77.0,126.0,127.0,127.0,-114.0,-84.0,118.0
132.0,137.0,133.0,129.0,125.0,146.0,194.0,152.0,-1.0,102.0,-77.0,126.0,127.0,127.0,-114.0,-84.0,118.0
133.0,137.0,134.0,131.0,125.0,128.0,196.0,154.0,-1.0,102.0,-77.0,126.0,127.0,127.0,-114.0,-84.0,118.0
132.0,140.0,132.0,125.0,126.0,139.0,175.0,148.0,-1.0,101.0,-79.0,126.0,127.0,127.0,-114.0,-84.0,118.0
132.0,141.0,132.0,125.0,126.0,139.0,175.0,148.0,-1.0,101.0,-79.0,126.0,127.0,127.0,-114.0,-84.0,118.0
131.0,141.0,132.0,125.0,126.0,137.0,174.0,148.0,-1.0,101.0,-79.0,126.0,127.0,127.0,-114.0,-84.0,118.0
131.0,142.0,133.0,125.0,127.0,136.0,174.0,148.0,-1.0,101.0,-79.0,126.0,127.0,127.0,-114.0,-84.0,118.0
131.0,142.0,133.0,125.0,127.0,135.0,173.0,148.0,-1.0,101.0,-79.0,126.0,127.0,127.0,-114.0,-84.0,118.0
131.0,143.0,133.0,125.0,127.0,133.0,173.0,148.0,-1.0,101.0,-79.0,126.0,127.0,127.0,-114.0,-84.0,118.0
131.0,143.0,133.0,125.0,127.0,133.0,173.0,148.0,-1.0,101.0,-79.0,126.0,127.0,127.0,-114.0,-84.0,118.0
130.0,142.0,133.0,124.0,127.0,132.0,173.0,148.0,-1.0,101.0,-79.0,126.0,127.0,127.0,-114.0,-84.0,118.0
130.0,141.0,133.0,124.0,127.0,131.0,173.0,148.0,-1.0,101.0,-79.0,126.0,127.0,127.0,-114.0,-84.0,118.0
132.0,139.0,132.0,124.0,125.0,140.0,175.0,148.0,-1.0,101.0,-79.0,126.0,127.0,127.0,-114.0,-84.0,118.0
121.0,137.0,129.0,120.0,126.0,137.0,161.0,139.0,-1.0,105.0,-80.0,126.0,127.0,127.0,-114.0,-84.0,118.0
122.0,137.0,129.0,120.0,126.0,137.0,160.0,139.0,-1.0,105.0,-80.0,126.0,127.0,127.0,-114.0,-84.0,118.0
122.0,138.0,129.0,120.0,127.0,137.0,160.0,139.0,-1.0,105.0,-80.0,126.0,127.0,127.0,-114.0,-84.0,118.0
122.0,138.0,129.0,120.0,127.0,137.0,159.0,139.0,-1.0,105.0,-80.0,126.0,127.0,127.0,-114.0,-84.0,118.0
123.0,139.0,129.0,120.0,127.0,138.0,159.0,140.0,-1.0,105.0,-80.0,126.0,127.0,127.0,-114.0,-84.0,118.0
123.0,140.0,130.0,120.0,127.0,138.0,158.0,140.0,-1.0,105.0,-80.0,126.0,127.0,127.0,-114.0,-84.0,118.0
123.0,140.0,130.0,121.0,128.0,139.0,157.0,140.0,-1.0,105.0,-80.0,126.0,127.0,127.0,-114.0,-84.0,118.0
121.0,136.0,128.0,120.0,126.0,139.0,162.0,141.0,-1.0,105.0,-80.0,126.0,127.0,127.0,-114.0,-84.0,118.0
121.0,136.0,128.0,120.0,126.0,138.0,162.0,140.0,-1.0,105.0,-80.0,126.0,127.0,127.0,-114.0,-84.0,118.0
121.0,136.0,128.0,120.0,126.0,138.0,161.0,140.0,-1.0,105.0,-80.0,126.0,127.0,127.0,-114.0,-84.0,118.0
127.0,137.0,127.0,124.0,129.0,133.0,148.0,138.0,-1.0,106.0,-80.0,126.0,127.0,127.0,-114.0,-84.0,118.0
127.0,137.0,127.0,124.0,129.0,133.0,148.0,138.0,-1.0,106.0,-80.0,126.0,127.0,127.0,-114.0,-84.0,118.0
127.0,138.0,127.0,124.0,129.0,133.0,148.0,137.0,-1.0,106.0,-80.0,126.0,127.0,127.0,-114.0,-84.0,118.0
127.0,138.0,127.0,124.0,128.0,133.0,148.0,137.0,-1.0,106.0,-80.0,126.0,127.0,127.0,-114.0,-84.0,118.0
127.0,138.0,127.0,124.0,128.0,134.0,148.0,137.0,-1.0,106.0,-80.0,126.0,127.0,127.0,-114.0,-84.0,118.0
127.0,138.0,127.0,124.0,128.0,134.0,147.0,137.0,-1.0,106.0,-80.0,126.0,127.0,127.0,-114.0,-84.0,118.0
127.0,136.0,128.0,123.0,130.0,129.0,148.0,137.0,-1.0,106.0,-80.0,126.0,127.0,127.0,-114.0,-84.0,118.0
127.0,136.0,128.0,123.0,130.0,130.0,148.0,137.0,-1.0,106.0,-80.0,126.0,127.0,127.0,-114.0,-84.0,118.0
127.0,136.0,128.0,123.0,129.0,131.0,148.0,138.0,-1.0,106.0,-80.0,126.0,127.0,127.0,-114.0,-84.0,118.0
127.0,136.0,127.0,124.0,129.0,132.0,148.0,138.0,-1.0,106.0,-80.0,126.0,127.0,127.0,-114.0,-84.0,118.0
129.0,134.0,128.0,125.0,129.0,139.0,143.0,130.0,-1.0,104.0,-80.0,126.0,127.0,127.0,-114.0,-84.0,118.0
129.0,134.0,129.0,125.0,129.0,139.0,143.0,130.0,-1.0,104.0,-80.0,126.0,127.0,127.0,-114.0,-84.0,118.0
129.0,134.0,129.0,125.0,129.0,139.0,143.0,130.0,-1.0,104.0,-80.0,126.0,127.0,127.0,-114.0,-84.0,118.0
129.0,134.0,129.0,125.0,130.0,138.0,143.0,131.0,-1.0,104.0,-80.0,126.0,127.0,127.0,-114.0,-84.0,118.0
129.0,134.0,129.0,126.0,130.0,138.0,143.0,131.0,-1.0,104.0,-80.0,126.0,127.0,127.0,-114.0,-84.0,118.0
128.0,133.0,128.0,124.0,128.0,136.0,144.0,128.0,-1.0,104.0,-80.0,126.0,127.0,127.0,-114.0,-84.0,118.0
128.0,133.0,128.0,124.0,128.0,136.0,144.0,129.0,-1.0,104.0,-80.0,126.0,127.0,127.0,-114.0,-84.0,118.0
128.0,133.0,128.0,124.0,128.0,137.0,144.0,129.0,-1.0,104.0,-80.0,126.0,127.0,127.0,-114.0,-84.0,118.0
128.0,134.0,128.0,124.0,128.0,138.0,143.0,129.0,-1.0,104.0,-80.0,126.0,127.0,127.0,-114.0,-84.0,118.0
128.0,134.0,128.0,124.0,128.0,138.0,143.0,130.0,-1.0,104.0,-80.0,126.0,127.0,127.0,-114.0,-84.0,118.0
130.0,135.0,125.0,124.0,127.0,135.0,140.0,130.0,-1.0,103.0,-80.0,127.0,127.0,127.0,-114.0,-84.0,118.0
130.0,135.0,125.0,124.0,127.0,136.0,140.0,130.0,-1.0,103.0,-80.0,127.0,127.0,127.0,-114.0,-84.0,118.0
130.0,135.0,126.0,124.0,127.0,136.0,140.0,130.0,-1.0,103.0,-80.0,127.0,127.0,127.0,-114.0,-84.0,118.0
130.0,135.0,127.0,124.0,127.0,136.0,140.0,130.0,-1.0,103.0,-80.0,127.0,127.0,127.0,-114.0,-84.0,118.0
130.0,136.0,125.0,124.0,127.0,137.0,140.0,130.0,-1.0,103.0,-80.0,127.0,127.0,127.0,-114.0,-84.0,118.0
129.0,136.0,125.0,124.0,127.0,136.0,140.0,130.0,-1.0,103.0,-80.0,127.0,127.0,127.0,-114.0,-84.0,118.0
129.0,136.0,125.0,125.0,127.0,136.0,140.0,130.0,-1.0,103.0,-80.0,127.0,127.0,127.0,-114.0,-84.0,118.0
130.0,136.0,125.0,125.0,127.0,136.0,140.0,130.0,-1.0,103.0,-80.0,127.0,127.0,127.0,-114.0,-84.0,118.0
130.0,136.0,125.0,124.0,127.0,136.0,140.0,130.0,-1.0,103.0,-80.0,127.0,127.0,127.0,-114.0,-84.0,118.0
130.0,136.0,125.0,124.0,127.0,135.0,140.0,130.0,-1.0,103.0,-80.0,127.0,127.0,127.0,-114.0,-84.0,118.0
129.0,133.0,127.0,125.0,126.0,133.0,143.0,131.0,-1.0,103.0,-80.0,127.0,127.0,127.0,-114.0,-84.0,118.0
129.0,133.0,127.0,125.0,126.0,134.0,143.0,131.0,-1.0,103.0,-80.0,127.0,127.0,127.0,-114.0,-84.0,118.0
130.0,134.0,127.0,125.0,126.0,134.0,143.0,131.0,-1.0,103.0,-80.0,127.0,127.0,127.0,-114.0,-84.0,118.0
129.0,135.0,127.0,125.0,127.0,133.0,143.0,130.0,-1.0,103.0,-80.0,127.0,127.0,127.0,-114.0,-84.0,118.0
129.0,134.0,127.0,125.0,127.0,133.0,143.0,130.0,-1.0,103.0,-80.0,127.0,127.0,127.0,-114.0,-84.0,118.0
129.0,134.0,127.0,125.0,127.0,133.0,143.0,131.0,-1.0,103.0,-80.0,127.0,127.0,127.0,-114.0,-84.0,118.0
129.0,134.0,127.0,125.0,127.0,133.0,143.0,131.0,-1.0,103.0,-80.0,127.0,127.0,127.0,-114.0,-84.0,118.0
129.0,134.0,127.0,125.0,126.0,132.0,143.0,131.0,-1.0,103.0,-80.0,127.0,127.0,127.0,-114.0,-84.0,118.0
129.0,133.0,127.0,125.0,126.0,132.0,143.0,131.0,-1.0,103.0,-80.0,127.0,127.0,127.0,-114.0,-84.0,118.0
129.0,133.0,127.0,125.0,126.0,132.0,143.0,131.0,-1.0,103.0,-80.0,127.0,127.0,127.0,-114.0,-84.0,118.0
126.0,132.0,127.0,124.0,126.0,132.0,142.0,130.0,-1.0,102.0,-81.0,127.0,127.0,127.0,-114.0,-84.0,118.0
126.0,132.0,127.0,124.0,126.0,132.0,141.0,130.0,-1.0,102.0,-81.0,127.0,127.0,127.0,-114.0,-84.0,118.0
127.0,133.0,126.0,125.0,126.0,133.0,141.0,130.0,-1.0,102.0,-81.0,127.0,127.0,127.0,-114.0,-84.0,118.0
127.0,132.0,126.0,125.0,126.0,133.0,141.0,130.0,-1.0,102.0,-81.0,127.0,127.0,127.0,-114.0,-84.0,118.0
127.0,132.0,126.0,125.0,126.0,133.0,141.0,130.0,-1.0,102.0,-81.0,127.0,127.0,127.0,-114.0,-84.0,118.0
127.0,132.0,126.0,125.0,126.0,133.0,141.0,130.0,-1.0,102.0,-81.0,127.0,127.0,127.0,-114.0,-84.0,118.0
126.0,132.0,126.0,125.0,126.0,133.0,142.0,130.0,-1.0,102.0,-81.0,127.0,127.0,127.0,-114.0,-84.0,118.0
126.0,132.0,126.0,125.0,126.0,132.0,142.0,130.0,-1.0,102.0,-81.0,127.0,127.0,127.0,-114.0,-84.0,118.0
126.0,132.0,126.0,125.0,126.0,132.0,142.0,130.0,-1.0,102.0,-81.0,127.0,127.0,127.0,-114.0,-84.0,118.0
126.0,132.0,127.0,124.0,126.0,132.0,142.0,130.0,-1.0,102.0,-81.0,127.0,127.0,127.0,-114.0,-84.0,118.0
122.0,132.0,127.0,124.0,127.0,135.0,137.0,131.0,-1.0,102.0,-81.0,127.0,127.0,127.0,-114.0,-84.0,118.0
123.0,133.0,126.0,124.0,126.0,135.0,138.0,131.0,-1.0,102.0,-81.0,127.0,127.0,127.0,-114.0,-84.0,118.0
123.0,132.0,126.0,124.0,126.0,135.0,138.0,131.0,-1.0,102.0,-81.0,127.0,127.0,127.0,-114.0,-84.0,118.0
123.0,132.0,126.0,124.0,126.0,135.0,138.0,131.0,-1.0,102.0,-81.0,127.0,127.0,127.0,-114.0,-84.0,118.0
123.0,132.0,126.0,124.0,126.0,135.0,138.0,131.0,-1.0,102.0,-81.0,127.0,127.0,127.0,-114.0,-84.0,118.0
123.0,132.0,127.0,124.0,126.0,135.0,138.0,131.0,-1.0,102.0,-81.0,127.0,127.0,127.0,-114.0,-84.0,118.0
123.0,132.0,127.0,124.0,126.0,135.0,137.0,131.0,-1.0,102.0,-81.0,127.0,127.0,127.0,-114.0,-84.0,118.0
123.0,132.0,127.0,124.0,126.0,134.0,137.0,131.0,-1.0,102.0,-81.0,127.0,127.0,127.0,-114.0,-84.0,118.0
123.0,132.0,127.0,124.0,127.0,134.0,137.0,131.0,-1.0,102.0,-81.0,127.0,127.0,127.0,-114.0,-84.0,118.0
123.0,132.0,127.0,124.0,127.0,134.0,137.0,131.0,-1.0,102.0,-81.0,127.0,127.0,127.0,-114.0,-84.0,118.0
115.0,132.0,126.0,124.0,126.0,132.0,137.0,130.0,-1.0,102.0,-81.0,127.0,127.0,127.0,-114.0,-84.0,118.0
115.0,132.0,126.0,124.0,126.0,132.0,136.0,130.0,-1.0,102.0,-81.0,127.0,127.0,127.0,-114.0,-84.0,118.0
115.0,132.0,126.0,124.0,127.0,131.0,136.0,130.0,-1.0,102.0,-81.0,127.0,127.0,127.0,-114.0,-84.0,118.0
115.0,132.0,126.0,124.0,127.0,131.0,136.0,130.0,-1.0,102.0,-81.0,127.0,127.0,127.0,-114.0,-84.0,118.0
115.0,131.0,127.0,124.0,127.0,131.0,136.0,130.0,-1.0,102.0,-81.0,127.0,127.0,127.0,-114.0,-84.0,118.0
115.0,131.0,127.0,124.0,127.0,131.0,136.0,130.0,-1.0,102.0,-81.0,127.0,127.0,127.0,-114.0,-84.0,118.0
115.0,131.0,127.0,124.0,127.0,131.0,136.0,130.0,-1.0,102.0,-81.0,127.0,127.0,127.0,-114.0,-84.0,118.0
115.0,131.0,127.0,124.0,127.0,131.0,136.0,130.0,-1.0,102.0,-81.0,127.0,127.0,127.0,-114.0,-84.0,118.0
116.0,131.0,127.0,124.0,127.0,131.0,136.0,130.0,-1.0,102.0,-81.0,127.0,127.0,127.0,-114.0,-84.0,118.0
116.0,131.0,127.0,124.0,127.0,131.0,136.0,130.0,-1.0,102.0,-81.0,127.0,127.0,127.0,-114.0,-84.0,118.0
121.0,130.0,126.0,123.0,127.0,133.0,135.0,130.0,-1.0,102.0,-81.0,127.0,127.0,127.0,-114.0,-84.0,118.0
121.0,129.0,126.0,123.0,127.0,133.0,134.0,130.0,-1.0,102.0,-81.0,127.0,127.0,127.0,-114.0,-84.0,118.0
121.0,129.0,126.0,123.0,127.0,133.0,134.0,130.0,-1.0,102.0,-81.0,127.0,127.0,127.0,-114.0,-84.0,118.0
121.0,129.0,127.0,123.0,127.0,132.0,134.0,130.0,-1.0,102.0,-81.0,127.0,127.0,127.0,-114.0,-84.0,118.0
122.0,129.0,127.0,123.0,127.0,132.0,133.0,130.0,-1.0,102.0,-81.0,127.0,127.0,127.0,-114.0,-84.0,118.0
122.0,129.0,127.0,123.0,127.0,132.0,133.0,130.0,-1.0,102.0,-81.0,127.0,127.0,127.0,-114.0,-84.0,118.0
122.0,129.0,127.0,123.0,127.0,132.0,133.0,129.0,-1.0,102.0,-81.0,127.0,127.0,127.0,-114.0,-84.0,118.0
122.0,129.0,127.0,123.0,127.0,132.0,133.0,129.0,-1.0,102.0,-81.0,127.0,127.0,127.0,-114.0,-84.0,118.0
123.0,129.0,127.0,123.0,127.0,132.0,132.0,129.0,-1.0,102.0,-81.0,127.0,127.0,127.0,-114.0,-84.0,118.0
120.0,130.0,126.0,123.0,127.0,133.0,135.0,130.0,-1.0,102.0,-81.0,127.0,127.0,127.0,-114.0,-84.0,118.0
126.0,127.0,127.0,123.0,126.0,132.0,138.0,120.0,-1.0,102.0,-81.0,127.0,127.0,127.0,-114.0,-84.0,118.0
126.0,127.0,127.0,123.0,126.0,132.0,139.0,120.0,-1.0,102.0,-81.0,127.0,127.0,127.0,-114.0,-84.0,118.0
126.0,127.0,127.0,123.0,126.0,132.0,139.0,120.0,-1.0,102.0,-81.0,127.0,127.0,127.0,-114.0,-84.0,118.0
126.0,127.0,127.0,122.0,126.0,132.0,139.0,120.0,-1.0,102.0,-81.0,127.0,127.0,127.0,-114.0,-84.0,118.0
126.0,127.0,127.0,122.0,126.0,132.0,139.0,120.0,-1.0,102.0,-81.0,127.0,127.0,127.0,-114.0,-84.0,118.0
126.0,127.0,127.0,122.0,126.0,133.0,140.0,120.0,-1.0,102.0,-81.0,127.0,127.0,127.0,-114.0,-84.0,118.0
126.0,127.0,127.0,123.0,126.0,134.0,140.0,120.0,-1.0,102.0,-81.0,127.0,127.0,127.0,-114.0,-84.0,118.0
126.0,127.0,127.0,122.0,126.0,134.0,141.0,120.0,-1.0,102.0,-81.0,127.0,127.0,127.0,-114.0,-84.0,118.0
126.0,127.0,127.0,122.0,127.0,131.0,138.0,119.0,-1.0,102.0,-81.0,127.0,127.0,127.0,-114.0,-84.0,118.0
126.0,127.0,127.0,122.0,126.0,132.0,138.0,120.0,-1.0,102.0,-81.0,127.0,127.0,127.0,-114.0,-84.0,118.0
126.0,126.0,127.0,123.0,126.0,132.0,160.0,121.0,-1.0,102.0,-80.0,127.0,127.0,127.0,-114.0,-84.0,118.0
126.0,126.0,127.0,123.0,126.0,132.0,160.0,121.0,-1.0,102.0,-80.0,127.0,127.0,127.0,-114.0,-84.0,118.0
126.0,126.0,127.0,123.0,126.0,132.0,160.0,120.0,-1.0,102.0,-80.0,127.0,127.0,127.0,-114.0,-84.0,118.0
126.0,126.0,127.0,123.0,126.0,132.0,160.0,121.0,-1.0,102.0,-80.0,127.0,127.0,127.0,-114.0,-84.0,118.0
126.0,126.0,127.0,123.0,126.0,132.0,160.0,121.0,-1.0,102.0,-80.0,127.0,127.0,127.0,-114.0,-84.0,118.0
126.0,126.0,127.0,123.0,126.0,133.0,161.0,121.0,-1.0,102.0,-80.0,127.0,127.0,127.0,-114.0,-84.0,118.0
126.0,126.0,127.0,123.0,126.0,133.0,161.0,121.0,-1.0,102.0,-80.0,127.0,127.0,127.0,-114.0,-84.0,118.0
126.0,126.0,127.0,122.0,126.0,131.0,160.0,120.0,-1.0,102.0,-80.0,127.0,127.0,127.0,-114.0,-84.0,118.0
126.0,126.0,127.0,122.0,126.0,132.0,160.0,120.0,-1.0,102.0,-80.0,127.0,127.0,127.0,-114.0,-84.0,118.0
126.0,126.0,127.0,123.0,126.0,132.0,160.0,121.0,-1.0,102.0,-80.0,127.0,127.0,127.0,-114.0,-84.0,118.0
126.0,127.0,126.0,125.0,127.0,132.0,157.0,123.0,-1.0,103.0,-80.0,127.0,127.0,127.0,-114.0,-84.0,118.0
126.0,127.0,126.0,125.0,127.0,132.0,157.0,123.0,-1.0,103.0,-80.0,127.0,127.0,127.0,-114.0,-84.0,118.0
126.0,127.0,126.0,125.0,127.0,132.0,158.0,123.0,-1.0,103.0,-80.0,127.0,127.0,127.0,-114.0,-84.0,118.0
126.0,127.0,125.0,125.0,126.0,132.0,158.0,123.0,-1.0,103.0,-80.0,127.0,127.0,127.0,-114.0,-84.0,118.0
126.0,127.0,125.0,125.0,126.0,132.0,158.0,124.0,-1.0,103.0,-80.0,127.0,127.0,127.0,-114.0,-84.0,118.0
126.0,127.0,125.0,125.0,126.0,132.0,159.0,124.0,-1.0,103.0,-80.0,127.0,127.0,127.0,-114.0,-84.0,118.0
126.0,127.0,126.0,124.0,127.0,131.0,155.0,122.0,-1.0,103.0,-80.0,127.0,127.0,127.0,-114.0,-84.0,118.0
126.0,127.0,125.0,124.0,126.0,132.0,155.0,123.0,-1.0,103.0,-80.0,127.0,127.0,127.0,-114.0,-84.0,118.0
126.0,127.0,125.0,125.0,126.0,132.0,156.0,123.0,-1.0,103.0,-80.0,127.0,127.0,127.0,-114.0,-84.0,118.0
126.0,127.0,125.0,125.0,126.0,132.0,156.0,123.0,-1.0,103.0,-80.0,127.0,127.0,127.0,-114.0,-84.0,118.0
128.0,127.0,125.0,125.0,126.0,130.0,66.0,129.0,-1.0,103.0,-81.0,127.0,127.0,127.0,-114.0,-84.0,118.0
128.0,127.0,125.0,125.0,126.0,130.0,62.0,129.0,-1.0,103.0,-81.0,127.0,127.0,127.0,-114.0,-84.0,118.0
128.0,127.0,125.0,125.0,126.0,130.0,57.0,129.0,-1.0,103.0,-81.0,127.0,127.0,127.0,-114.0,-84.0,118.0
128.0,128.0,125.0,125.0,125.0,130.0,53.0,129.0,-1.0,103.0,-81.0,127.0,127.0,127.0,-114.0,-84.0,118.0
128.0,128.0,125.0,125.0,125.0,130.0,48.0,129.0,-1.0,103.0,-81.0,127.0,127.0,127.0,-114.0,-84.0,118.0
128.0,127.0,125.0,125.0,126.0,129.0,89.0,128.0,-1.0,103.0,-81.0,127.0,127.0,127.0,-114.0,-84.0,118.0
128.0,128.0,125.0,125.0,126.0,130.0,85.0,128.0,-1.0,103.0,-81.0,127.0,127.0,127.0,-114.0,-84.0,118.0
129.0,128.0,125.0,125.0,126.0,130.0,80.0,129.0,-1.0,103.0,-81.0,127.0,127.0,127.0,-114.0,-84.0,118.0
129.0,128.0,125.0,125.0,126.0,130.0,76.0,129.0,-1.0,103.0,-81.0,127.0,127.0,127.0,-114.0,-84.0,118.0
129.0,128.0,125.0,125.0,126.0,130.0,71.0,129.0,-1.0,103.0,-81.0,127.0,127.0,127.0,-114.0,-84.0,118.0
126.0,126.0,125.0,125.0,125.0,127.0,0.0,128.0,-1.0,103.0,-81.0,127.0,127.0,127.0,-114.0,-84.0,118.0
126.0,126.0,125.0,125.0,125.0,127.0,0.0,128.0,-1.0,103.0,-81.0,127.0,127.0,127.0,-114.0,-84.0,118.0
126.0,126.0,125.0,125.0,125.0,128.0,0.0,128.0,-1.0,103.0,-81.0,127.0,127.0,127.0,-114.0,-84.0,118.0
126.0,126.0,125.0,124.0,125.0,128.0,0.0,128.0,-1.0,103.0,-81.0,127.0,127.0,127.0,-114.0,-84.0,118.0
127.0,126.0,125.0,125.0,125.0,127.0,0.0,128.0,-1.0,103.0,-81.0,127.0,127.0,127.0,-114.0,-84.0,118.0
126.0,126.0,125.0,125.0,125.0,127.0,0.0,128.0,-1.0,103.0,-81.0,127.0,127.0,127.0,-114.0,-84.0,118.0
126.0,126.0,125.0,125.0,125.0,127.0,0.0,128.0,-1.0,103.0,-81.0,127.0,127.0,127.0,-114.0,-84.0,118.0
126.0,126.0,125.0,125.0,125.0,128.0,0.0,128.0,-1.0,103.0,-81.0,127.0,127.0,127.0,-114.0,-84.0,118.0
126.0,126.0,125.0,125.0,125.0,127.0,0.0,128.0,-1.0,103.0,-81.0,127.0,127.0,127.0,-114.0,-84.0,118.0
126.0,126.0,125.0,125.0,125.0,127.0,0.0,128.0,-1.0,103.0,-81.0,127.0,127.0,127.0,-114.0,-84.0,118.0
124.0,125.0,125.0,124.0,126.0,128.0,0.0,128.0,-1.0,103.0,-80.0,127.0,127.0,127.0,-114.0,-84.0,118.0
124.0,125.0,125.0,124.0,125.0,128.0,0.0,129.0,-1.0,103.0,-80.0,127.0,127.0,127.0,-114.0,-84.0,118.0
124.0,125.0,125.0,124.0,125.0,129.0,0.0,129.0,-1.0,103.0,-80.0,127.0,127.0,127.0,-114.0,-84.0,118.0
124.0,125.0,125.0,123.0,125.0,127.0,0.0,128.0,-1.0,103.0,-80.0,127.0,127.0,127.0,-114.0,-84.0,118.0
124.0,125.0,125.0,123.0,125.0,127.0,0.0,128.0,-1.0,103.0,-80.0,127.0,127.0,127.0,-114.0,-84.0,118.0
124.0,126.0,125.0,123.0,125.0,128.0,0.0,128.0,-1.0,103.0,-80.0,127.0,127.0,127.0,-114.0,-84.0,118.0
124.0,126.0,125.0,123.0,125.0,128.0,0.0,128.0,-1.0,103.0,-80.0,127.0,127.0,127.0,-114.0,-84.0,118.0
124.0,126.0,125.0,123.0,125.0,128.0,0.0,128.0,-1.0,103.0,-80.0,127.0,127.0,127.0,-114.0,-84.0,118.0
124.0,125.0,125.0,123.0,126.0,128.0,0.0,128.0,-1.0,103.0,-80.0,127.0,127.0,127.0,-114.0,-84.0,118.0
124.0,125.0,125.0,124.0,126.0,128.0,0.0,128.0,-1.0,103.0,-80.0,127.0,127.0,127.0,-114.0,-84.0,118.0
124.0,126.0,125.0,125.0,125.0,126.0,0.0,130.0,-1.0,103.0,-80.0,127.0,127.0,127.0,-114.0,-84.0,118.0
124.0,126.0,125.0,125.0,125.0,126.0,0.0,130.0,-1.0,103.0,-80.0,127.0,127.0,127.0,-114.0,-84.0,118.0
124.0,126.0,126.0,124.0,126.0,126.0,0.0,130.0,-1.0,103.0,-80.0,127.0,127.0,127.0,-114.0,-84.0,118.0
124.0,126.0,126.0,124.0,126.0,126.0,0.0,130.0,-1.0,103.0,-80.0,127.0,127.0,127.0,-114.0,-84.0,118.0
124.0,126.0,125.0,124.0,125.0,127.0,0.0,130.0,-1.0,103.0,-80.0,127.0,127.0,127.0,-114.0,-84.0,118.0
124.0,126.0,125.0,124.0,125.0,127.0,0.0,130.0,-1.0,103.0,-80.0,127.0,127.0,127.0,-114.0,-84.0,118.0
124.0,126.0,125.0,124.0,125.0,126.0,0.0,130.0,-1.0,103.0,-80.0,127.0,127.0,127.0,-114.0,-84.0,118.0
124.0,126.0,125.0,124.0,125.0,126.0,0.0,130.0,-1.0,103.0,-80.0,127.0,127.0,127.0,-114.0,-84.0,118.0
124.0,126.0,125.0,124.0,125.0,126.0,0.0,130.0,-1.0,103.0,-80.0,127.0,127.0,127.0,-114.0,-84.0,118.0
124.0,126.0,125.0,124.0,125.0,125.0,0.0,130.0,-1.0,103.0,-80.0,127.0,127.0,127.0,-114.0,-84.0,118.0
124.0,124.0,126.0,126.0,126.0,125.0,0.0,126.0,-1.0,104.0,-80.0,127.0,127.0,127.0,-114.0,-84.0,118.0
124.0,125.0,126.0,125.0,125.0,125.0,0.0,127.0,-1.0,104.0,-80.0,127.0,127.0,127.0,-114.0,-84.0,118.0
124.0,125.0,126.0,125.0,125.0,125.0,0.0,127.0,-1.0,104.0,-80.0,127.0,127.0,127.0,-114.0,-84.0,118.0
124.0,125.0,126.0,125.0,125.0,125.0,0.0,127.0,-1.0,104.0,-80.0,127.0,127.0,127.0,-114.0,-84.0,118.0
124.0,125.0,126.0,125.0,125.0,125.0,0.0,126.0,-1.0,104.0,-80.0,127.0,127.0,127.0,-114.0,-84.0,118.0
124.0,124.0,126.0,125.0,126.0,125.0,0.0,126.0,-1.0,104.0,-80.0,127.0,127.0,127.0,-114.0,-84.0,118.0
124.0,124.0,126.0,125.0,126.0,125.0,0.0,126.0,-1.0,104.0,-80.0,127.0,127.0,127.0,-114.0,-84.0,118.0
124.0,124.0,126.0,125.0,126.0,125.0,0.0,126.0,-1.0,104.0,-80.0,127.0,127.0,127.0,-114.0,-84.0,118.0
124.0,124.0,126.0,126.0,126.0,125.0,0.0,126.0,-1.0,104.0,-80.0,127.0,127.0,127.0,-114.0,-84.0,118.0
124.0,124.0,126.0,126.0,126.0,125.0,0.0,126.0,-1.0,104.0,-80.0,127.0,127.0,127.0,-114.0,-84.0,118.0
123.0,122.0,127.0,126.0,126.0,123.0,0.0,125.0,-1.0,104.0,-80.0,127.0,127.0,127.0,-114.0,-84.0,118.0
123.0,122.0,127.0,126.0,126.0,124.0,0.0,125.0,-1.0,104.0,-80.0,127.0,127.0,127.0,-114.0,-84.0,118.0
123.0,123.0,127.0,126.0,125.0,124.0,0.0,125.0,-1.0,104.0,-80.0,127.0,127.0,127.0,-114.0,-84.0,118.0
123.0,123.0,127.0,126.0,126.0,125.0,0.0,125.0,-1.0,104.0,-80.0,127.0,127.0,127.0,-114.0,-84.0,118.0
123.0,123.0,127.0,126.0,126.0,125.0,0.0,125.0,-1.0,104.0,-80.0,127.0,127.0,127.0,-114.0,-84.0,118.0
123.0,122.0,127.0,126.0,126.0,125.0,0.0,125.0,-1.0,104.0,-80.0,127.0,127.0,127.0,-114.0,-84.0,118.0
123.0,122.0,127.0,126.0,126.0,125.0,0.0,125.0,-1.0,104.0,-80.0,127.0,127.0,127.0,-114.0,-84.0,118.0
123.0,122.0,127.0,126.0,126.0,125.0,0.0,125.0,-1.0,104.0,-80.0,127.0,127.0,127.0,-114.0,-84.0,118.0
123.0,122.0,127.0,126.0,126.0,125.0,0.0,125.0,-1.0,104.0,-80.0,127.0,127.0,127.0,-114.0,-84.0,118.0
123.0,123.0,127.0,126.0,126.0,125.0,0.0,125.0,-1.0,104.0,-80.0,127.0,127.0,127.0,-114.0,-84.0,118.0
124.0,123.0,128.0,127.0,127.0,126.0,0.0,124.0,-1.0,104.0,-79.0,127.0,127.0,127.0,-114.0,-84.0,118.0
124.0,123.0,128.0,127.0,127.0,126.0,0.0,125.0,-1.0,104.0,-79.0,127.0,127.0,127.0,-114.0,-84.0,118.0
124.0,123.0,128.0,127.0,127.0,127.0,0.0,125.0,-1.0,104.0,-79.0,127.0,127.0,127.0,-114.0,-84.0,118.0
124.0,123.0,128.0,127.0,127.0,127.0,0.0,125.0,-1.0,104.0,-79.0,127.0,127.0,127.0,-114.0,-84.0,118.0
124.0,123.0,128.0,127.0,127.0,127.0,0.0,125.0,-1.0,104.0,-79.0,127.0,127.0,127.0,-114.0,-84.0,118.0
124.0,123.0,128.0,127.0,127.0,127.0,0.0,125.0,-1.0,104.0,-79.0,127.0,127.0,127.0,-114.0,-84.0,118.0
124.0,123.0,128.0,127.0,127.0,127.0,0.0,125.0,-1.0,104.0,-79.0,127.0,127.0,127.0,-114.0,-84.0,118.0
124.0,123.0,128.0,127.0,127.0,127.0,0.0,125.0,-1.0,104.0,-79.0,127.0,127.0,127.0,-114.0,-84.0,118.0
124.0,123.0,128.0,127.0,127.0,125.0,0.0,124.0,-1.0,104.0,-79.0,127.0,127.0,127.0,-114.0,-84.0,118.0
124.0,123.0,128.0,127.0,127.0,126.0,0.0,124.0,-1.0,104.0,-79.0,127.0,127.0,127.0,-114.0,-84.0,118.0
123.0,125.0,128.0,127.0,128.0,127.0,39.0,124.0,-1.0,104.0,-79.0,127.0,127.0,127.0,-114.0,-84.0,118.0
123.0,125.0,128.0,127.0,128.0,127.0,41.0,124.0,-1.0,104.0,-79.0,127.0,127.0,127.0,-114.0,-84.0,118.0
123.0,125.0,128.0,127.0,128.0,127.0,44.0,124.0,-1.0,104.0,-79.0,127.0,127.0,127.0,-114.0,-84.0,118.0
123.0,125.0,128.0,127.0,128.0,127.0,46.0,124.0,-1.0,104.0,-79.0,127.0,127.0,127.0,-114.0,-84.0,118.0
123.0,124.0,128.0,127.0,128.0,127.0,49.0,124.0,-1.0,104.0,-79.0,127.0,127.0,127.0,-114.0,-84.0,118.0
123.0,124.0,128.0,127.0,128.0,127.0,51.0,124.0,-1.0,104.0,-79.0,127.0,127.0,127.0,-114.0,-84.0,118.0
123.0,124.0,128.0,127.0,128.0,127.0,53.0,124.0,-1.0,104.0,-79.0,127.0,127.0,127.0,-114.0,-84.0,118.0
123.0,125.0,127.0,127.0,127.0,127.0,32.0,124.0,-1.0,104.0,-79.0,127.0,127.0,127.0,-114.0,-84.0,118.0
123.0,125.0,127.0,127.0,127.0,127.0,34.0,124.0,-1.0,104.0,-79.0,127.0,127.0,127.0,-114.0,-84.0,118.0
123.0,125.0,127.0,127.0,127.0,127.0,36.0,125.0,-1.0,104.0,-79.0,127.0,127.0,127.0,-114.0,-84.0,118.0
124.0,125.0,128.0,126.0,127.0,126.0,124.0,124.0,-1.0,103.0,-79.0,127.0,127.0,127.0,-114.0,-84.0,118.0
124.0,125.0,128.0,126.0,127.0,127.0,125.0,124.0,-1.0,103.0,-79.0,127.0,127.0,127.0,-114.0,-84.0,118.0
124.0,125.0,128.0,126.0,127.0,127.0,125.0,124.0,-1.0,103.0,-79.0,127.0,127.0,127.0,-114.0,-84.0,118.0
124.0,125.0,128.0,126.0,127.0,126.0,126.0,124.0,-1.0,103.0,-79.0,127.0,127.0,127.0,-114.0,-84.0,118.0
124.0,125.0,128.0,126.0,127.0,127.0,127.0,124.0,-1.0,103.0,-79.0,127.0,127.0,127.0,-114.0,-84.0,118.0
124.0,125.0,128.0,126.0,127.0,127.0,128.0,124.0,-1.0,103.0,-79.0,127.0,127.0,127.0,-114.0,-84.0,118.0
124.0,125.0,127.0,126.0,127.0,127.0,121.0,124.0,-1.0,103.0,-79.0,127.0,127.0,127.0,-114.0,-84.0,118.0
124.0,125.0,128.0,126.0,127.0,127.0,121.0,124.0,-1.0,103.0,-79.0,127.0,127.0,127.0,-114.0,-84.0,118.0
124.0,126.0,128.0,126.0,127.0,127.0,122.0,125.0,-1.0,103.0,-79.0,127.0,127.0,127.0,-114.0,-84.0,118.0
124.0,125.0,128.0,126.0,127.0,127.0,123.0,124.0,-1.0,103.0,-79.0,127.0,127.0,127.0,-114.0,-84.0,118.0
125.0,126.0,127.0,126.0,127.0,128.0,145.0,125.0,-1.0,103.0,-79.0,127.0,127.0,127.0,-114.0,-84.0,118.0
125.0,126.0,127.0,126.0,127.0,127.0,145.0,125.0,-1.0,103.0,-79.0,127.0,127.0,127.0,-114.0,-84.0,118.0
125.0,126.0,128.0,126.0,127.0,127.0,145.0,124.0,-1.0,103.0,-79.0,127.0,127.0,127.0,-114.0,-84.0,118.0
125.0,126.0,128.0,126.0,127.0,127.0,145.0,124.0,-1.0,103.0,-79.0,127.0,127.0,127.0,-114.0,-84.0,118.0
125.0,126.0,128.0,126.0,127.0,127.0,145.0,124.0,-1.0,103.0,-79.0,127.0,127.0,127.0,-114.0,-84.0,118.0
125.0,126.0,127.0,126.0,126.0,127.0,144.0,125.0,-1.0,103.0,-79.0,127.0,127.0,127.0,-114.0,-84.0,118.0
125.0,126.0,127.0,126.0,126.0,128.0,144.0,125.0,-1.0,103.0,-79.0,127.0,127.0,127.0,-114.0,-84.0,118.0
125.0,126.0,127.0,126.0,127.0,128.0,144.0,125.0,-1.0,103.0,-79.0,127.0,127.0,127.0,-114.0,-84.0,118.0
125.0,126.0,127.0,126.0,127.0,128.0,144.0,125.0,-1.0,103.0,-79.0,127.0,127.0,127.0,-114.0,-84.0,118.0
125.0,126.0,127.0,126.0,127.0,128.0,145.0,125.0,-1.0,103.0,-79.0,127.0,127.0,127.0,-114.0,-84.0,118.0
124.0,126.0,127.0,126.0,127.0,127.0,150.0,124.0,-1.0,103.0,-79.0,127.0,127.0,127.0,-114.0,-84.0,118.0
124.0,126.0,127.0,126.0,127.0,127.0,150.0,124.0,-1.0,103.0,-79.0,127.0,127.0,127.0,-114.0,-84.0,118.0
124.0,126.0,127.0,126.0,127.0,127.0,150.0,124.0,-1.0,103.0,-79.0,127.0,127.0,127.0,-114.0,-84.0,118.0
124.0,126.0,127.0,126.0,127.0,127.0,150.0,124.0,-1.0,103.0,-79.0,127.0,127.0,127.0,-114.0,-84.0,118.0
124.0,126.0,127.0,126.0,126.0,127.0,150.0,124.0,-1.0,103.0,-79.0,127.0,127.0,127.0,-114.0,-84.0,118.0
124.0,126.0,126.0,126.0,126.0,127.0,150.0,124.0,-1.0,103.0,-79.0,127.0,127.0,127.0,-114.0,-84.0,118.0
124.0,126.0,127.0,126.0,126.0,127.0,150.0,124.0,-1.0,103.0,-79.0,127.0,127.0,127.0,-114.0,-84.0,118.0
124.0,126.0,127.0,126.0,126.0,127.0,150.0,124.0,-1.0,103.0,-79.0,127.0,127.0,127.0,-114.0,-84.0,118.0
124.0,126.0,127.0,126.0,126.0,127.0,150.0,124.0,-1.0,103.0,-79.0,127.0,127.0,127.0,-114.0,-84.0,118.0
124.0,126.0,127.0,126.0,126.0,127.0,150.0,124.0,-1.0,103.0,-79.0,127.0,127.0,127.0,-114.0,-84.0,118.0
125.0,126.0,127.0,126.0,127.0,127.0,130.0,124.0,-1.0,103.0,-79.0,127.0,127.0,127.0,-114.0,-84.0,118.0
125.0,126.0,127.0,126.0,127.0,127.0,129.0,124.0,-1.0,103.0,-79.0,127.0,127.0,127.0,-114.0,-84.0,118.0
125.0,126.0,127.0,126.0,127.0,127.0,128.0,124.0,-1.0,103.0,-79.0,127.0,127.0,127.0,-114.0,-84.0,118.0
125.0,126.0,127.0,126.0,127.0,126.0,137.0,124.0,-1.0,103.0,-79.0,127.0,127.0,127.0,-114.0,-84.0,118.0
125.0,127.0,127.0,126.0,126.0,127.0,136.0,124.0,-1.0,103.0,-79.0,127.0,127.0,127.0,-114.0,-84.0,118.0
125.0,127.0,127.0,126.0,126.0,127.0,135.0,124.0,-1.0,103.0,-79.0,127.0,127.0,127.0,-114.0,-84.0,118.0
125.0,127.0,127.0,126.0,127.0,127.0,134.0,124.0,-1.0,103.0,-79.0,127.0,127.0,127.0,-114.0,-84.0,118.0
125.0,127.0,127.0,126.0,126.0,127.0,133.0,124.0,-1.0,103.0,-79.0,127.0,127.0,127.0,-114.0,-84.0,118.0
125.0,127.0,127.0,126.0,126.0,127.0,132.0,124.0,-1.0,103.0,-79.0,127.0,127.0,127.0,-114.0,-84.0,118.0
125.0,127.0,127.0,126.0,127.0,127.0,131.0,124.0,-1.0,103.0,-79.0,127.0,127.0,127.0,-114.0,-84.0,118.0
125.0,126.0,127.0,126.0,127.0,127.0,105.0,125.0,-1.0,103.0,-79.0,127.0,127.0,127.0,-114.0,-84.0,118.0
126.0,126.0,127.0,126.0,127.0,127.0,105.0,125.0,-1.0,103.0,-79.0,127.0,127.0,127.0,-114.0,-84.0,118.0
125.0,126.0,127.0,126.0,127.0,126.0,108.0,124.0,-1.0,103.0,-79.0,127.0,127.0,127.0,-114.0,-84.0,118.0
125.0,126.0,127.0,126.0,127.0,126.0,108.0,124.0,-1.0,103.0,-79.0,127.0,127.0,127.0,-114.0,-84.0,118.0
125.0,126.0,127.0,126.0,127.0,126.0,107.0,124.0,-1.0,103.0,-79.0,127.0,127.0,127.0,-114.0,-84.0,118.0
125.0,126.0,127.0,126.0,127.0,126.0,107.0,124.0,-1.0,103.0,-79.0,127.0,127.0,127.0,-114.0,-84.0,118.0
125.0,126.0,127.0,126.0,127.0,126.0,106.0,125.0,-1.0,103.0,-79.0,127.0,127.0,127.0,-114.0,-84.0,118.0
125.0,126.0,127.0,126.0,127.0,127.0,106.0,125.0,-1.0,103.0,-79.0,127.0,127.0,127.0,-114.0,-84.0,118.0
126.0,126.0,127.0,126.0,127.0,127.0,106.0,125.0,-1.0,103.0,-79.0,127.0,127.0,127.0,-114.0,-84.0,118.0
125.0,126.0,127.0,126.0,127.0,126.0,105.0,125.0,-1.0,103.0,-79.0,127.0,127.0,127.0,-114.0,-84.0,118.0
126.0,126.0,128.0,126.0,127.0,126.0,106.0,125.0,-1.0,103.0,-79.0,127.0,127.0,127.0,-114.0,-84.0,118.0
126.0,126.0,127.0,126.0,127.0,125.0,104.0,125.0,-1.0,103.0,-79.0,127.0,127.0,127.0,-114.0,-84.0,118.0
126.0,126.0,127.0,126.0,127.0,125.0,105.0,125.0,-1.0,103.0,-79.0,127.0,127.0,127.0,-114.0,-84.0,118.0
126.0,126.0,127.0,126.0,128.0,125.0,105.0,125.0,-1.0,103.0,-79.0,127.0,127.0,127.0,-114.0,-84.0,118.0
126.0,126.0,128.0,126.0,128.0,125.0,105.0,125.0,-1.0,103.0,-79.0,127.0,127.0,127.0,-114.0,-84.0,118.0
126.0,126.0,128.0,126.0,128.0,125.0,105.0,125.0,-1.0,103.0,-79.0,127.0,127.0,127.0,-114.0,-84.0,118.0
126.0,126.0,128.0,126.0,128.0,125.0,105.0,125.0,-1.0,103.0,-79.0,127.0,127.0,127.0,-114.0,-84.0,118.0
126.0,126.0,128.0,126.0,127.0,125.0,106.0,125.0,-1.0,103.0,-79.0,127.0,127.0,127.0,-114.0,-84.0,118.0
126.0,126.0,128.0,126.0,127.0,125.0,106.0,125.0,-1.0,103.0,-79.0,127.0,127.0,127.0,-114.0,-84.0,118.0
126.0,126.0,128.0,126.0,127.0,126.0,106.0,125.0,-1.0,103.0,-79.0,127.0,127.0,127.0,-114.0,-84.0,118.0
126.0,127.0,127.0,126.0,126.0,126.0,112.0,125.0,-1.0,103.0,-79.0,127.0,127.0,127.0,-114.0,-84.0,118.0
126.0,127.0,127.0,126.0,126.0,127.0,112.0,125.0,-1.0,103.0,-79.0,127.0,127.0,127.0,-114.0,-84.0,118.0
126.0,127.0,127.0,126.0,126.0,127.0,112.0,125.0,-1.0,103.0,-79.0,127.0,127.0,127.0,-114.0,-84.0,118.0
126.0,127.0,127.0,126.0,126.0,127.0,112.0,125.0,-1.0,103.0,-79.0,127.0,127.0,127.0,-114.0,-84.0,118.0
126.0,127.0,127.0,126.0,126.0,127.0,112.0,125.0,-1.0,103.0,-79.0,127.0,127.0,127.0,-114.0,-84.0,118.0
126.0,126.0,127.0,126.0,126.0,127.0,112.0,125.0,-1.0,103.0,-79.0,127.0,127.0,127.0,-114.0,-84.0,118.0
126.0,126.0,127.0,126.0,126.0,127.0,112.0,125.0,-1.0,103.0,-79.0,127.0,127.0,127.0,-114.0,-84.0,118.0
126.0,126.0,127.0,126.0,127.0,127.0,112.0,125.0,-1.0,103.0,-79.0,127.0,127.0,127.0,-114.0,-84.0,118.0
126.0,126.0,127.0,126.0,127.0,127.0,112.0,125.0,-1.0,103.0,-79.0,127.0,127.0,127.0,-114.0,-84.0,118.0
126.0,126.0,127.0,126.0,127.0,127.0,112.0,125.0,-1.0,103.0,-79.0,127.0,127.0,127.0,-114.0,-84.0,118.0
125.0,126.0,127.0,126.0,126.0,127.0,115.0,125.0,-1.0,103.0,-79.0,127.0,127.0,127.0,-114.0,-84.0,118.0
125.0,127.0,127.0,126.0,126.0,128.0,115.0,125.0,-1.0,103.0,-79.0,127.0,127.0,127.0,-114.0,-84.0,118.0
125.0,127.0,127.0,126.0,127.0,128.0,115.0,125.0,-1.0,103.0,-79.0,127.0,127.0,127.0,-114.0,-84.0,118.0
125.0,126.0,127.0,126.0,127.0,128.0,115.0,126.0,-1.0,103.0,-79.0,127.0,127.0,127.0,-114.0,-84.0,118.0
125.0,126.0,127.0,126.0,127.0,128.0,115.0,125.0,-1.0,103.0,-79.0,127.0,127.0,127.0,-114.0,-84.0,118.0
125.0,126.0,127.0,126.0,127.0,128.0,116.0,125.0,-1.0,103.0,-79.0,127.0,127.0,127.0,-114.0,-84.0,118.0
125.0,126.0,127.0,126.0,127.0,127.0,116.0,125.0,-1.0,103.0,-79.0,127.0,127.0,127.0,-114.0,-84.0,118.0
125.0,126.0,127.0,126.0,127.0,127.0,116.0,125.0,-1.0,103.0,-79.0,127.0,127.0,127.0,-114.0,-84.0,118.0
125.0,126.0,127.0,126.0,127.0,127.0,116.0,125.0,-1.0,103.0,-79.0,127.0,127.0,127.0,-114.0,-84.0,118.0
125.0,126.0,127.0,126.0,127.0,127.0,115.0,125.0,-1.0,103.0,-79.0,127.0,127.0,127.0,-114.0,-84.0,118.0
126.0,127.0,127.0,126.0,126.0,127.0,120.0,126.0,-1.0,104.0,-79.0,127.0,127.0,127.0,-114.0,-84.0,118.0
126.0,127.0,127.0,126.0,126.0,127.0,120.0,126.0,-1.0,104.0,-79.0,127.0,127.0,127.0,-114.0,-84.0,118.0
126.0,127.0,127.0,126.0,126.0,127.0,120.0,126.0,-1.0,104.0,-79.0,127.0,127.0,127.0,-114.0,-84.0,118.0
126.0,127.0,127.0,126.0,126.0,127.0,120.0,126.0,-1.0,104.0,-79.0,127.0,127.0,127.0,-114.0,-84.0,118.0
126.0,127.0,127.0,126.0,126.0,127.0,120.0,126.0,-1.0,104.0,-79.0,127.0,127.0,127.0,-114.0,-84.0,118.0
126.0,127.0,127.0,126.0,126.0,127.0,120.0,126.0,-1.0,104.0,-79.0,127.0,127.0,127.0,-114.0,-84.0,118.0
126.0,127.0,128.0,126.0,127.0,127.0,120.0,126.0,-1.0,104.0,-79.0,127.0,127.0,127.0,-114.0,-84.0,118.0
126.0,127.0,128.0,126.0,127.0,127.0,120.0,126.0,-1.0,104.0,-79.0,127.0,127.0,127.0,-114.0,-84.0,118.0
126.0,127.0,127.0,126.0,126.0,126.0,120.0,125.0,-1.0,104.0,-79.0,127.0,127.0,127.0,-114.0,-84.0,118.0
126.0,127.0,127.0,126.0,126.0,126.0,120.0,126.0,-1.0,104.0,-79.0,127.0,127.0,127.0,-114.0,-84.0,118.0
126.0,127.0,127.0,126.0,126.0,127.0,124.0,127.0,-1.0,104.0,-79.0,127.0,127.0,127.0,-114.0,-84.0,118.0
126.0,127.0,127.0,126.0,127.0,127.0,124.0,127.0,-1.0,104.0,-79.0,127.0,127.0,127.0,-114.0,-84.0,118.0
126.0,127.0,127.0,126.0,127.0,127.0,124.0,127.0,-1.0,104.0,-79.0,127.0,127.0,127.0,-114.0,-84.0,118.0
126.0,127.0,127.0,126.0,127.0,128.0,124.0,127.0,-1.0,104.0,-79.0,127.0,127.0,127.0,-114.0,-84.0,118.0
126.0,127.0,127.0,126.0,127.0,128.0,124.0,127.0,-1.0,104.0,-79.0,127.0,127.0,127.0,-114.0,-84.0,118.0
126.0,127.0,127.0,126.0,127.0,127.0,124.0,127.0,-1.0,104.0,-79.0,127.0,127.0,127.0,-114.0,-84.0,118.0
126.0,127.0,127.0,126.0,127.0,127.0,124.0,127.0,-1.0,104.0,-79.0,127.0,127.0,127.0,-114.0,-84.0,118.0
126.0,127.0,127.0,126.0,126.0,126.0,124.0,126.0,-1.0,104.0,-79.0,127.0,127.0,127.0,-114.0,-84.0,118.0
126.0,127.0,127.0,126.0,126.0,127.0,124.0,126.0,-1.0,104.0,-79.0,127.0,127.0,127.0,-114.0,-84.0,118.0
126.0,127.0,127.0,126.0,126.0,127.0,124.0,127.0,-1.0,104.0,-79.0,127.0,127.0,127.0,-114.0,-84.0,118.0
126.0,127.0,127.0,126.0,127.0,127.0,126.0,127.0,-1.0,104.0,-79.0,127.0,127.0,127.0,-114.0,-84.0,118.0
126.0,127.0,127.0,126.0,127.0,127.0,126.0,127.0,-1.0,104.0,-79.0,127.0,127.0,127.0,-114.0,-84.0,118.0
126.0,127.0,127.0,126.0,127.0,127.0,126.0,127.0,-1.0,104.0,-79.0,127.0,127.0,127.0,-114.0,-84.0,118.0
126.0,127.0,127.0,126.0,127.0,127.0,125.0,127.0,-1.0,104.0,-79.0,127.0,127.0,127.0,-114.0,-84.0,118.0
126.0,126.0,127.0,126.0,127.0,127.0,125.0,127.0,-1.0,104.0,-79.0,127.0,127.0,127.0,-114.0,-84.0,118.0
126.0,126.0,127.0,126.0,127.0,127.0,125.0,127.0,-1.0,104.0,-79.0,127.0,127.0,127.0,-114.0,-84.0,118.0
126.0,127.0,126.0,126.0,127.0,127.0,127.0,127.0,-1.0,104.0,-79.0,127.0,127.0,127.0,-114.0,-84.0,118.0
126.0,127.0,126.0,126.0,126.0,127.0,126.0,127.0,-1.0,104.0,-79.0,127.0,127.0,127.0,-114.0,-84.0,118.0
126.0,127.0,126.0,126.0,126.0,127.0,126.0,127.0,-1.0,104.0,-79.0,127.0,127.0,127.0,-114.0,-84.0,118.0
126.0,127.0,126.0,126.0,127.0,127.0,126.0,127.0,-1.0,104.0,-79.0,127.0,127.0,127.0,-114.0,-84.0,118.0
126.0,127.0,127.0,126.0,127.0,129.0,125.0,128.0,-1.0,104.0,-79.0,127.0,127.0,127.0,-114.0,-84.0,118.0
126.0,127.0,127.0,126.0,127.0,129.0,125.0,128.0,-1.0,104.0,-79.0,127.0,127.0,127.0,-114.0,-84.0,118.0
126.0,127.0,127.0,126.0,127.0,129.0,125.0,128.0,-1.0,104.0,-79.0,127.0,127.0,127.0,-114.0,-84.0,118.0
126.0,127.0,127.0,126.0,127.0,128.0,125.0,128.0,-1.0,104.0,-79.0,127.0,127.0,127.0,-114.0,-84.0,118.0
126.0,127.0,127.0,126.0,127.0,128.0,125.0,127.0,-1.0,104.0,-79.0,127.0,127.0,127.0,-114.0,-84.0,118.0
126.0,127.0,127.0,126.0,127.0,127.0,125.0,127.0,-1.0,104.0,-79.0,127.0,127.0,127.0,-114.0,-84.0,118.0
126.0,127.0,127.0,126.0,127.0,127.0,125.0,127.0,-1.0,104.0,-79.0,127.0,127.0,127.0,-114.0,-84.0,118.0
126.0,127.0,127.0,126.0,127.0,128.0,125.0,127.0,-1.0,104.0,-79.0,127.0,127.0,127.0,-114.0,-84.0,118.0
126.0,127.0,127.0,126.0,127.0,128.0,125.0,127.0,-1.0,104.0,-79.0,127.0,127.0,127.0,-114.0,-84.0,118.0
126.0,127.0,127.0,126.0,127.0,128.0,125.0,127.0,-1.0,104.0,-79.0,127.0,127.0,127.0,-114.0,-84.0,118.0
127.0,127.0,127.0,126.0,127.0,127.0,130.0,127.0,-1.0,104.0,-79.0,127.0,127.0,127.0,-114.0,-84.0,118.0
127.0,127.0,127.0,126.0,127.0,127.0,130.0,127.0,-1.0,104.0,-79.0,127.0,127.0,127.0,-114.0,-84.0,118.0
126.0,127.0,127.0,126.0,127.0,128.0,130.0,127.0,-1.0,104.0,-79.0,127.0,127.0,127.0,-114.0,-84.0,118.0
127.0,127.0,127.0,126.0,127.0,128.0,130.0,127.0,-1.0,104.0,-79.0,127.0,127.0,127.0,-114.0,-84.0,118.0
127.0,127.0,127.0,126.0,127.0,127.0,131.0,127.0,-1.0,104.0,-79.0,127.0,127.0,127.0,-114.0,-84.0,118.0
126.0,127.0,127.0,126.0,127.0,127.0,131.0,127.0,-1.0,104.0,-79.0,127.0,127.0,127.0,-114.0,-84.0,118.0
127.0,127.0,127.0,126.0,127.0,128.0,130.0,127.0,-1.0,104.0,-79.0,127.0,127.0,127.0,-114.0,-84.0,118.0
127.0,127.0,127.0,126.0,127.0,128.0,130.0,127.0,-1.0,104.0,-79.0,127.0,127.0,127.0,-114.0,-84.0,118.0
127.0,127.0,127.0,126.0,127.0,128.0,130.0,127.0,-1.0,104.0,-79.0,127.0,127.0,127.0,-114.0,-84.0,118.0
127.0,127.0,127.0,126.0,127.0,127.0,130.0,127.0,-1.0,104.0,-79.0,127.0,127.0,127.0,-114.0,-84.0,118.0
126.0,127.0,127.0,126.0,127.0,126.0,133.0,127.0,-1.0,104.0,-79.0,127.0,127.0,127.0,-114.0,-84.0,118.0
126.0,127.0,127.0,126.0,127.0,126.0,133.0,127.0,-1.0,104.0,-79.0,127.0,127.0,127.0,-114.0,-84.0,118.0
126.0,127.0,127.0,126.0,127.0,126.0,133.0,127.0,-1.0,104.0,-79.0,127.0,127.0,127.0,-114.0,-84.0,118.0
127.0,127.0,127.0,126.0,127.0,126.0,133.0,127.0,-1.0,104.0,-79.0,127.0,127.0,127.0,-114.0,-84.0,118.0
127.0,127.0,127.0,126.0,127.0,126.0,133.0,127.0,-1.0,104.0,-79.0,127.0,127.0,127.0,-114.0,-84.0,118.0
126.0,127.0,127.0,126.0,127.0,126.0,133.0,127.0,-1.0,104.0,-79.0,127.0,127.0,127.0,-114.0,-84.0,118.0
126.0,127.0,127.0,126.0,127.0,126.0,133.0,127.0,-1.0,104.0,-79.0,127.0,127.0,127.0,-114.0,-84.0,118.0
126.0,127.0,127.0,126.0,127.0,126.0,133.0,127.0,-1.0,104.0,-79.0,127.0,127.0,127.0,-114.0,-84.0,118.0
126.0,127.0,127.0,126.0,127.0,126.0,133.0,127.0,-1.0,104.0,-79.0,127.0,127.0,127.0,-114.0,-84.0,118.0
127.0,127.0,127.0,126.0,127.0,126.0,133.0,127.0,-1.0,104.0,-79.0,127.0,127.0,127.0,-114.0,-84.0,118.0
127.0,127.0,127.0,126.0,127.0,127.0,135.0,128.0,-1.0,104.0,-79.0,127.0,127.0,127.0,-114.0,-84.0,118.0
127.0,127.0,127.0,126.0,126.0,126.0,135.0,127.0,-1.0,104.0,-79.0,127.0,127.0,127.0,-114.0,-84.0,118.0
127.0,127.0,127.0,126.0,126.0,127.0,135.0,127.0,-1.0,104.0,-79.0,127.0,127.0,127.0,-114.0,-84.0,118.0
127.0,127.0,127.0,126.0,126.0,126.0,135.0,127.0,-1.0,104.0,-79.0,127.0,127.0,127.0,-114.0,-84.0,118.0
127.0,127.0,127.0,126.0,127.0,126.0,135.0,127.0,-1.0,104.0,-79.0,127.0,127.0,127.0,-114.0,-84.0,118.0
127.0,127.0,127.0,126.0,127.0,126.0,135.0,127.0,-1.0,104.0,-79.0,127.0,127.0,127.0,-114.0,-84.0,118.0
127.0,127.0,127.0,126.0,127.0,126.0,135.0,127.0,-1.0,104.0,-79.0,127.0,127.0,127.0,-114.0,-84.0,118.0
127.0,127.0,127.0,126.0,127.0,127.0,135.0,127.0,-1.0,104.0,-79.0,127.0,127.0,127.0,-114.0,-84.0,118.0
127.0,127.0,127.0,126.0,127.0,127.0,135.0,128.0,-1.0,104.0,-79.0,127.0,127.0,127.0,-114.0,-84.0,118.0
127.0,127.0,127.0,126.0,127.0,127.0,135.0,128.0,-1.0,104.0,-79.0,127.0,127.0,127.0,-114.0,-84.0,118.0
127.0,127.0,127.0,126.0,126.0,126.0,138.0,127.0,-1.0,104.0,-79.0,127.0,127.0,127.0,-114.0,-84.0,118.0
127.0,127.0,127.0,126.0,126.0,127.0,138.0,127.0,-1.0,104.0,-79.0,127.0,127.0,127.0,-114.0,-84.0,118.0
127.0,127.0,127.0,126.0,126.0,127.0,138.0,127.0,-1.0,104.0,-79.0,127.0,127.0,127.0,-114.0,-84.0,118.0
127.0,127.0,127.0,126.0,126.0,126.0,138.0,127.0,-1.0,104.0,-79.0,127.0,127.0,127.0,-114.0,-84.0,118.0
127.0,127.0,127.0,126.0,127.0,127.0,138.0,127.0,-1.0,104.0,-79.0,127.0,127.0,127.0,-114.0,-84.0,118.0
127.0,127.0,127.0,126.0,127.0,127.0,138.0,127.0,-1.0,104.0,-79.0,127.0,127.0,127.0,-114.0,-84.0,118.0
127.0,127.0,127.0,126.0,126.0,127.0,138.0,127.0,-1.0,104.0,-79.0,127.0,127.0,127.0,-114.0,-84.0,118.0
127.0,127.0,127.0,126.0,126.0,127.0,138.0,128.0,-1.0,104.0,-79.0,127.0,127.0,127.0,-114.0,-84.0,118.0
127.0,127.0,127.0,126.0,127.0,128.0,138.0,127.0,-1.0,104.0,-79.0,127.0,127.0,127.0,-114.0,-84.0,118.0
127.0,127.0,127.0,126.0,127.0,128.0,138.0,127.0,-1.0,104.0,-79.0,127.0,127.0,127.0,-114.0,-84.0,118.0
127.0,127.0,127.0,126.0,126.0,127.0,137.0,127.0,-1.0,104.0,-79.0,127.0,127.0,127.0,-114.0,-84.0,118.0
127.0,127.0,127.0,126.0,127.0,127.0,137.0,127.0,-1.0,104.0,-79.0,127.0,127.0,127.0,-114.0,-84.0,118.0
127.0,127.0,127.0,126.0,127.0,127.0,137.0,127.0,-1.0,104.0,-79.0,127.0,127.0,127.0,-114.0,-84.0,118.0
127.0,127.0,127.0,126.0,127.0,127.0,136.0,127.0,-1.0,104.0,-79.0,127.0,127.0,127.0,-114.0,-84.0,118.0
127.0,127.0,127.0,126.0,127.0,127.0,136.0,127.0,-1.0,104.0,-79.0,127.0,127.0,127.0,-114.0,-84.0,118.0
127.0,127.0,127.0,126.0,127.0,128.0,136.0,127.0,-1.0,104.0,-79.0,127.0,127.0,127.0,-114.0,-84.0,118.0
127.0,127.0,127.0,126.0,127.0,128.0,136.0,128.0,-1.0,104.0,-79.0,127.0,127.0,127.0,-114.0,-84.0,118.0
127.0,127.0,127.0,127.0,127.0,128.0,135.0,128.0,-1.0,104.0,-79.0,127.0,127.0,127.0,-114.0,-84.0,118.0
127.0,127.0,127.0,127.0,127.0,128.0,135.0,128.0,-1.0,104.0,-79.0,127.0,127.0,127.0,-114.0,-84.0,118.0
127.0,127.0,127.0,126.0,126.0,127.0,137.0,127.0,-1.0,104.0,-79.0,127.0,127.0,127.0,-114.0,-84.0,118.0
127.0,126.0,127.0,126.0,126.0,127.0,131.0,127.0,-1.0,104.0,-79.0,127.0,127.0,127.0,-114.0,-84.0,118.0
127.0,126.0,127.0,126.0,126.0,127.0,131.0,127.0,-1.0,104.0,-79.0,127.0,127.0,127.0,-114.0,-84.0,118.0
127.0,126.0,127.0,126.0,127.0,127.0,131.0,127.0,-1.0,104.0,-79.0,127.0,127.0,127.0,-114.0,-84.0,118.0
127.0,126.0,127.0,127.0,127.0,127.0,131.0,127.0,-1.0,104.0,-79.0,127.0,127.0,127.0,-114.0,-84.0,118.0
127.0,126.0,127.0,127.0,127.0,127.0,130.0,127.0,-1.0,104.0,-79.0,127.0,127.0,127.0,-114.0,-84.0,118.0
127.0,126.0,127.0,127.0,126.0,128.0,130.0,128.0,-1.0,104.0,-79.0,127.0,127.0,127.0,-114.0,-84.0,118.0
127.0,126.0,127.0,127.0,126.0,128.0,130.0,128.0,-1.0,104.0,-79.0,127.0,127.0,127.0,-114.0,-84.0,118.0
127.0,126.0,127.0,127.0,127.0,127.0,130.0,128.0,-1.0,104.0,-79.0,127.0,127.0,127.0,-114.0,-84.0,118.0
127.0,126.0,127.0,126.0,126.0,126.0,131.0,127.0,-1.0,104.0,-79.0,127.0,127.0,127.0,-114.0,-84.0,118.0
127.0,126.0,127.0,126.0,126.0,127.0,131.0,127.0,-1.0,104.0,-79.0,127.0,127.0,127.0,-114.0,-84.0,118.0
127.0,126.0,127.0,127.0,126.0,127.0,131.0,128.0,-1.0,104.0,-79.0,127.0,127.0,127.0,-114.0,-84.0,118.0
127.0,126.0,127.0,127.0,126.0,127.0,131.0,128.0,-1.0,104.0,-79.0,127.0,127.0,127.0,-114.0,-84.0,118.0
126.0,126.0,127.0,127.0,126.0,127.0,131.0,128.0,-1.0,104.0,-79.0,127.0,127.0,127.0,-114.0,-84.0,118.0
126.0,126.0,127.0,127.0,126.0,127.0,131.0,128.0,-1.0,104.0,-79.0,127.0,127.0,127.0,-114.0,-84.0,118.0
127.0,126.0,127.0,127.0,126.0,128.0,131.0,128.0,-1.0,104.0,-79.0,127.0,127.0,127.0,-114.0,-84.0,118.0
127.0,126.0,127.0,127.0,126.0,128.0,131.0,128.0,-1.0,104.0,-79.0,127.0,127.0,127.0,-114.0,-84.0,118.0
127.0,126.0,127.0,127.0,127.0,128.0,131.0,128.0,-1.0,104.0,-79.0,127.0,127.0,127.0,-114.0,-84.0,118.0
126.0,126.0,126.0,126.0,126.0,126.0,132.0,128.0,-1.0,104.0,-79.0,127.0,127.0,127.0,-114.0,-84.0,118.0
127.0,126.0,126.0,127.0,126.0,127.0,132.0,128.0,-1.0,104.0,-79.0,127.0,127.0,127.0,-114.0,-84.0,118.0
127.0,126.0,126.0,127.0,126.0,127.0,132.0,128.0,-1.0,104.0,-79.0,127.0,127.0,127.0,-114.0,-84.0,118.0
126.0,126.0,127.0,127.0,126.0,126.0,131.0,128.0,-1.0,104.0,-79.0,127.0,127.0,127.0,-114.0,-84.0,118.0
126.0,126.0,127.0,127.0,126.0,127.0,131.0,128.0,-1.0,104.0,-79.0,127.0,127.0,127.0,-114.0,-84.0,118.0
126.0,126.0,127.0,127.0,126.0,127.0,131.0,128.0,-1.0,104.0,-79.0,127.0,127.0,127.0,-114.0,-84.0,118.0
126.0,126.0,127.0,127.0,126.0,127.0,131.0,128.0,-1.0,104.0,-79.0,127.0,127.0,127.0,-114.0,-84.0,118.0
126.0,126.0,127.0,127.0,126.0,127.0,131.0,128.0,-1.0,104.0,-79.0,127.0,127.0,127.0,-114.0,-84.0,118.0
126.0,126.0,127.0,127.0,126.0,127.0,131.0,128.0,-1.0,104.0,-79.0,127.0,127.0,127.0,-114.0,-84.0,118.0
126.0,126.0,127.0,127.0,126.0,126.0,131.0,127.0,-1.0,104.0,-79.0,127.0,127.0,127.0,-114.0,-84.0,118.0
126.0,126.0,127.0,127.0,126.0,127.0,131.0,128.0,-1.0,104.0,-79.0,127.0,127.0,127.0,-114.0,-84.0,118.0
126.0,126.0,127.0,127.0,126.0,127.0,131.0,128.0,-1.0,104.0,-79.0,127.0,127.0,127.0,-114.0,-84.0,118.0
126.0,126.0,127.0,127.0,126.0,127.0,131.0,128.0,-1.0,104.0,-79.0,127.0,127.0,127.0,-114.0,-84.0,118.0
126.0,126.0,127.0,126.0,126.0,126.0,131.0,128.0,-1.0,104.0,-79.0,127.0,127.0,127.0,-114.0,-84.0,118.0
126.0,127.0,127.0,126.0,126.0,126.0,131.0,128.0,-1.0,104.0,-79.0,127.0,127.0,127.0,-114.0,-84.0,118.0
126.0,127.0,127.0,126.0,126.0,127.0,131.0,128.0,-1.0,104.0,-79.0,127.0,127.0,127.0,-114.0,-84.0,118.0
126.0,127.0,127.0,126.0,126.0,127.0,131.0,128.0,-1.0,104.0,-79.0,127.0,127.0,127.0,-114.0,-84.0,118.0
126.0,127.0,127.0,127.0,126.0,127.0,131.0,128.0,-1.0,104.0,-79.0,127.0,127.0,127.0,-114.0,-84.0,118.0
126.0,127.0,127.0,126.0,126.0,126.0,131.0,128.0,-1.0,104.0,-79.0,127.0,127.0,127.0,-114.0,-84.0,118.0
127.0,127.0,127.0,126.0,126.0,127.0,131.0,128.0,-1.0,104.0,-79.0,127.0,127.0,127.0,-114.0,-84.0,118.0
126.0,127.0,127.0,126.0,126.0,127.0,131.0,128.0,-1.0,104.0,-79.0,127.0,127.0,127.0,-114.0,-84.0,118.0
126.0,127.0,127.0,126.0,126.0,127.0,131.0,128.0,-1.0,104.0,-79.0,127.0,127.0,127.0,-114.0,-84.0,118.0
126.0,126.0,127.0,126.0,126.0,126.0,131.0,128.0,-1.0,104.0,-79.0,127.0,127.0,127.0,-114.0,-84.0,118.0
126.0,127.0,127.0,127.0,126.0,126.0,130.0,127.0,-1.0,104.0,-79.0,127.0,127.0,127.0,-114.0,-84.0,118.0
126.0,126.0,127.0,127.0,127.0,126.0,130.0,127.0,-1.0,104.0,-79.0,127.0,127.0,127.0,-114.0,-84.0,118.0
126.0,127.0,127.0,127.0,127.0,127.0,130.0,128.0,-1.0,104.0,-79.0,127.0,127.0,127.0,-114.0,-84.0,118.0
126.0,127.0,127.0,127.0,127.0,127.0,130.0,128.0,-1.0,104.0,-79.0,127.0,127.0,127.0,-114.0,-84.0,118.0
126.0,127.0,127.0,127.0,126.0,126.0,131.0,127.0,-1.0,104.0,-79.0,127.0,127.0,127.0,-114.0,-84.0,118.0
126.0,127.0,127.0,127.0,126.0,126.0,131.0,127.0,-1.0,104.0,-79.0,127.0,127.0,127.0,-114.0,-84.0,118.0
126.0,127.0,127.0,127.0,126.0,126.0,131.0,127.0,-1.0,104.0,-79.0,127.0,127.0,127.0,-114.0,-84.0,118.0
126.0,127.0,127.0,127.0,126.0,126.0,130.0,127.0,-1.0,104.0,-79.0,127.0,127.0,127.0,-114.0,-84.0,118.0
126.0,127.0,127.0,127.0,126.0,126.0,130.0,127.0,-1.0,104.0,-79.0,127.0,127.0,127.0,-114.0,-84.0,118.0
126.0,127.0,127.0,127.0,126.0,126.0,130.0,127.0,-1.0,104.0,-79.0,127.0,127.0,127.0,-114.0,-84.0,118.0
127.0,126.0,127.0,127.0,126.0,128.0,129.0,128.0,-1.0,104.0,-79.0,127.0,127.0,127.0,-114.0,-84.0,118.0
127.0,126.0,127.0,127.0,127.0,128.0,129.0,128.0,-1.0,104.0,-79.0,127.0,127.0,127.0,-114.0,-84.0,118.0
127.0,126.0,127.0,127.0,127.0,128.0,128.0,128.0,-1.0,104.0,-79.0,127.0,127.0,127.0,-114.0,-84.0,118.0
127.0,127.0,127.0,127.0,126.0,127.0,129.0,128.0,-1.0,104.0,-79.0,127.0,127.0,127.0,-114.0,-84.0,118.0
127.0,126.0,127.0,126.0,126.0,127.0,129.0,128.0,-1.0,104.0,-79.0,127.0,127.0,127.0,-114.0,-84.0,118.0
127.0,126.0,127.0,126.0,126.0,127.0,129.0,128.0,-1.0,104.0,-79.0,127.0,127.0,127.0,-114.0,-84.0,118.0
127.0,126.0,127.0,126.0,126.0,127.0,129.0,128.0,-1.0,104.0,-79.0,127.0,127.0,127.0,-114.0,-84.0,118.0
127.0,127.0,127.0,126.0,126.0,127.0,129.0,128.0,-1.0,104.0,-79.0,127.0,127.0,127.0,-114.0,-84.0,118.0
127.0,127.0,127.0,127.0,126.0,128.0,129.0,128.0,-1.0,104.0,-79.0,127.0,127.0,127.0,-114.0,-84.0,118.0
127.0,126.0,127.0,127.0,126.0,128.0,129.0,128.0,-1.0,104.0,-79.0,127.0,127.0,127.0,-114.0,-84.0,118.0
127.0,126.0,127.0,127.0,126.0,128.0,129.0,128.0,-1.0,104.0,-79.0,127.0,127.0,127.0,-114.0,-84.0,118.0
127.0,126.0,127.0,127.0,126.0,128.0,129.0,128.0,-1.0,104.0,-79.0,127.0,127.0,127.0,-114.0,-84.0,118.0
127.0,127.0,127.0,127.0,126.0,127.0,130.0,128.0,-1.0,104.0,-79.0,127.0,127.0,127.0,-114.0,-84.0,118.0
127.0,127.0,127.0,127.0,126.0,127.0,130.0,128.0,-1.0,104.0,-79.0,127.0,127.0,127.0,-114.0,-84.0,118.0
127.0,127.0,127.0,127.0,126.0,127.0,130.0,128.0,-1.0,104.0,-79.0,127.0,127.0,127.0,-114.0,-84.0,118.0
127.0,127.0,127.0,127.0,126.0,127.0,130.0,128.0,-1.0,104.0,-79.0,127.0,127.0,127.0,-114.0,-84.0,118.0
127.0,127.0,127.0,127.0,126.0,128.0,130.0,128.0,-1.0,104.0,-79.0,127.0,127.0,127.0,-114.0,-84.0,118.0
127.0,127.0,127.0,127.0,126.0,128.0,129.0,129.0,-1.0,104.0,-79.0,127.0,127.0,127.0,-114.0,-84.0,118.0
127.0,127.0,127.0,127.0,126.0,128.0,129.0,128.0,-1.0,104.0,-79.0,127.0,127.0,127.0,-114.0,-84.0,118.0
127.0,126.0,127.0,127.0,126.0,128.0,129.0,128.0,-1.0,104.0,-79.0,127.0,127.0,127.0,-114.0,-84.0,118.0
127.0,126.0,127.0,127.0,126.0,128.0,130.0,128.0,-1.0,104.0,-79.0,127.0,127.0,127.0,-114.0,-84.0,118.0
127.0,126.0,126.0,126.0,126.0,127.0,131.0,128.0,-1.0,104.0,-79.0,127.0,127.0,127.0,-114.0,-84.0,118.0
127.0,126.0,127.0,126.0,126.0,127.0,131.0,128.0,-1.0,104.0,-79.0,127.0,127.0,127.0,-114.0,-84.0,118.0
127.0,126.0,127.0,126.0,126.0,127.0,131.0,128.0,-1.0,104.0,-79.0,127.0,127.0,127.0,-114.0,-84.0,118.0
127.0,126.0,127.0,126.0,126.0,127.0,131.0,128.0,-1.0,104.0,-79.0,127.0,127.0,127.0,-114.0,-84.0,118.0
127.0,126.0,127.0,126.0,126.0,127.0,130.0,128.0,-1.0,104.0,-79.0,127.0,127.0,127.0,-114.0,-84.0,118.0
127.0,126.0,127.0,126.0,126.0,128.0,130.0,128.0,-1.0,104.0,-79.0,127.0,127.0,127.0,-114.0,-84.0,118.0
127.0,126.0,127.0,126.0,126.0,128.0,130.0,128.0,-1.0,104.0,-79.0,127.0,127.0,127.0,-114.0,-84.0,118.0
127.0,126.0,127.0,126.0,126.0,128.0,130.0,128.0,-1.0,104.0,-79.0,127.0,127.0,127.0,-114.0,-84.0,118.0
127.0,126.0,127.0,127.0,126.0,128.0,130.0,128.0,-1.0,104.0,-79.0,127.0,127.0,127.0,-114.0,-84.0,118.0
127.0,126.0,127.0,126.0,126.0,127.0,131.0,128.0,-1.0,104.0,-79.0,127.0,127.0,127.0,-114.0,-84.0,118.0
127.0,126.0,127.0,127.0,126.0,127.0,131.0,128.0,-1.0,104.0,-79.0,127.0,127.0,127.0,-114.0,-84.0,118.0
127.0,126.0,127.0,127.0,126.0,127.0,131.0,128.0,-1.0,104.0,-79.0,127.0,127.0,127.0,-114.0,-84.0,118.0
127.0,126.0,127.0,127.0,126.0,127.0,131.0,128.0,-1.0,104.0,-79.0,127.0,127.0,127.0,-114.0,-84.0,118.0
127.0,126.0,127.0,127.0,126.0,127.0,131.0,128.0,-1.0,104.0,-79.0,127.0,127.0,127.0,-114.0,-84.0,118.0
127.0,126.0,127.0,127.0,126.0,127.0,131.0,128.0,-1.0,104.0,-79.0,127.0,127.0,127.0,-114.0,-84.0,118.0
127.0,126.0,127.0,127.0,126.0,127.0,131.0,128.0,-1.0,104.0,-79.0,127.0,127.0,127.0,-114.0,-84.0,118.0
127.0,126.0,127.0,127.0,126.0,127.0,131.0,128.0,-1.0,104.0,-79.0,127.0,127.0,127.0,-114.0,-84.0,118.0
127.0,126.0,127.0,127.0,126.0,127.0,131.0,128.0,-1.0,104.0,-79.0,127.0,127.0,127.0,-114.0,-84.0,118.0
127.0,126.0,127.0,127.0,126.0,127.0,131.0,128.0,-1.0,104.0,-79.0,127.0,127.0,127.0,-114.0,-84.0,118.0
127.0,126.0,127.0,127.0,126.0,126.0,133.0,128.0,-1.0,104.0,-79.0,127.0,127.0,127.0,-114.0,-84.0,118.0
127.0,126.0,127.0,127.0,126.0,126.0,132.0,128.0,-1.0,104.0,-79.0,127.0,127.0,127.0,-114.0,-84.0,118.0
127.0,126.0,127.0,127.0,126.0,126.0,132.0,128.0,-1.0,104.0,-79.0,127.0,127.0,127.0,-114.0,-84.0,118.0
127.0,125.0,127.0,127.0,126.0,127.0,132.0,128.0,-1.0,104.0,-79.0,127.0,127.0,127.0,-114.0,-84.0,118.0
127.0,126.0,127.0,127.0,126.0,127.0,132.0,128.0,-1.0,104.0,-79.0,127.0,127.0,127.0,-114.0,-84.0,118.0
127.0,126.0,127.0,127.0,127.0,127.0,132.0,128.0,-1.0,104.0,-79.0,127.0,127.0,127.0,-114.0,-84.0,118.0
127.0,125.0,127.0,127.0,127.0,127.0,132.0,128.0,-1.0,104.0,-79.0,127.0,127.0,127.0,-114.0,-84.0,118.0
127.0,125.0,127.0,127.0,127.0,127.0,132.0,128.0,-1.0,104.0,-79.0,127.0,127.0,127.0,-114.0,-84.0,118.0
127.0,125.0,127.0,127.0,127.0,127.0,132.0,128.0,-1.0,104.0,-79.0,127.0,127.0,127.0,-114.0,-84.0,118.0
127.0,126.0,127.0,127.0,126.0,127.0,133.0,128.0,-1.0,104.0,-79.0,127.0,127.0,127.0,-114.0,-84.0,118.0
127.0,119.0,127.0,126.0,127.0,127.0,132.0,128.0,-1.0,104.0,-79.0,127.0,127.0,127.0,-114.0,-84.0,118.0
127.0,119.0,127.0,127.0,127.0,127.0,132.0,128.0,-1.0,104.0,-79.0,127.0,127.0,127.0,-114.0,-84.0,118.0
127.0,119.0,127.0,127.0,127.0,127.0,132.0,128.0,-1.0,104.0,-79.0,127.0,127.0,127.0,-114.0,-84.0,118.0
127.0,119.0,127.0,127.0,127.0,128.0,132.0,128.0,-1.0,104.0,-79.0,127.0,127.0,127.0,-114.0,-84.0,118.0
127.0,119.0,127.0,127.0,126.0,128.0,132.0,128.0,-1.0,104.0,-79.0,127.0,127.0,127.0,-114.0,-84.0,118.0
127.0,118.0,127.0,127.0,127.0,128.0,131.0,128.0,-1.0,104.0,-79.0,127.0,127.0,127.0,-114.0,-84.0,118.0
127.0,118.0,127.0,127.0,127.0,128.0,131.0,128.0,-1.0,104.0,-79.0,127.0,127.0,127.0,-114.0,-84.0,118.0
127.0,118.0,127.0,127.0,127.0,128.0,131.0,128.0,-1.0,104.0,-79.0,127.0,127.0,127.0,-114.0,-84.0,118.0
127.0,120.0,127.0,126.0,126.0,127.0,132.0,128.0,-1.0,104.0,-79.0,127.0,127.0,127.0,-114.0,-84.0,118.0
127.0,120.0,127.0,127.0,127.0,127.0,132.0,128.0,-1.0,104.0,-79.0,127.0,127.0,127.0,-114.0,-84.0,118.0
127.0,117.0,127.0,127.0,127.0,127.0,132.0,128.0,-1.0,104.0,-79.0,127.0,127.0,127.0,-114.0,-84.0,118.0
127.0,117.0,127.0,127.0,127.0,127.0,132.0,128.0,-1.0,104.0,-79.0,127.0,127.0,127.0,-114.0,-84.0,118.0
127.0,118.0,127.0,127.0,126.0,127.0,132.0,128.0,-1.0,104.0,-79.0,127.0,127.0,127.0,-114.0,-84.0,118.0
127.0,118.0,127.0,127.0,126.0,127.0,131.0,128.0,-1.0,104.0,-79.0,127.0,127.0,127.0,-114.0,-84.0,118.0
127.0,118.0,127.0,127.0,127.0,127.0,131.0,128.0,-1.0,104.0,-79.0,127.0,127.0,127.0,-114.0,-84.0,118.0
127.0,118.0,127.0,127.0,127.0,127.0,131.0,128.0,-1.0,104.0,-79.0,127.0,127.0,127.0,-114.0,-84.0,118.0
127.0,118.0,127.0,127.0,127.0,127.0,131.0,128.0,-1.0,104.0,-79.0,127.0,127.0,127.0,-114.0,-84.0,118.0
127.0,117.0,127.0,127.0,126.0,127.0,132.0,128.0,-1.0,104.0,-79.0,127.0,127.0,127.0,-114.0,-84.0,118.0
127.0,117.0,127.0,127.0,126.0,127.0,132.0,128.0,-1.0,104.0,-79.0,127.0,127.0,127.0,-114.0,-84.0,118.0
127.0,117.0,127.0,127.0,127.0,126.0,132.0,128.0,-1.0,104.0,-79.0,127.0,127.0,127.0,-114.0,-84.0,118.0
126.0,122.0,127.0,126.0,126.0,126.0,131.0,128.0,-1.0,104.0,-79.0,127.0,127.0,127.0,-114.0,-84.0,118.0
126.0,122.0,127.0,126.0,126.0,126.0,130.0,127.0,-1.0,104.0,-79.0,127.0,127.0,127.0,-114.0,-84.0,118.0
126.0,122.0,127.0,127.0,126.0,126.0,130.0,127.0,-1.0,104.0,-79.0,127.0,127.0,127.0,-114.0,-84.0,118.0
126.0,122.0,127.0,127.0,126.0,126.0,130.0,128.0,-1.0,104.0,-79.0,127.0,127.0,127.0,-114.0,-84.0,118.0
126.0,123.0,127.0,126.0,126.0,127.0,130.0,128.0,-1.0,104.0,-79.0,127.0,127.0,127.0,-114.0,-84.0,118.0
126.0,123.0,127.0,127.0,126.0,127.0,130.0,128.0,-1.0,104.0,-79.0,127.0,127.0,127.0,-114.0,-84.0,118.0
127.0,122.0,127.0,127.0,126.0,126.0,131.0,128.0,-1.0,104.0,-79.0,127.0,127.0,127.0,-114.0,-84.0,118.0
127.0,122.0,127.0,126.0,126.0,126.0,131.0,128.0,-1.0,104.0,-79.0,127.0,127.0,127.0,-114.0,-84.0,118.0
126.0,122.0,127.0,126.0,126.0,126.0,131.0,128.0,-1.0,104.0,-79.0,127.0,127.0,127.0,-114.0,-84.0,118.0
126.0,122.0,127.0,126.0,126.0,126.0,131.0,127.0,-1.0,104.0,-79.0,127.0,127.0,127.0,-114.0,-84.0,118.0
127.0,126.0,127.0,127.0,127.0,127.0,131.0,128.0,-1.0,104.0,-79.0,127.0,127.0,127.0,-114.0,-84.0,118.0
127.0,126.0,127.0,127.0,127.0,127.0,131.0,128.0,-1.0,104.0,-79.0,127.0,127.0,127.0,-114.0,-84.0,118.0
127.0,126.0,127.0,127.0,127.0,127.0,131.0,128.0,-1.0,104.0,-79.0,127.0,127.0,127.0,-114.0,-84.0,118.0
127.0,126.0,128.0,127.0,127.0,127.0,131.0,128.0,-1.0,104.0,-79.0,127.0,127.0,127.0,-114.0,-84.0,118.0
127.0,126.0,128.0,127.0,127.0,127.0,131.0,128.0,-1.0,104.0,-79.0,127.0,127.0,127.0,-114.0,-84.0,118.0
127.0,126.0,127.0,126.0,126.0,127.0,131.0,128.0,-1.0,104.0,-79.0,127.0,127.0,127.0,-114.0,-84.0,118.0
127.0,126.0,127.0,127.0,127.0,127.0,131.0,128.0,-1.0,104.0,-79.0,127.0,127.0,127.0,-114.0,-84.0,118.0
127.0,126.0,127.0,127.0,126.0,127.0,131.0,128.0,-1.0,104.0,-79.0,127.0,127.0,127.0,-114.0,-84.0,118.0
127.0,126.0,127.0,127.0,126.0,127.0,131.0,128.0,-1.0,104.0,-79.0,127.0,127.0,127.0,-114.0,-84.0,118.0
127.0,126.0,127.0,127.0,126.0,127.0,131.0,128.0,-1.0,104.0,-79.0,127.0,127.0,127.0,-114.0,-84.0,118.0
127.0,127.0,127.0,127.0,126.0,127.0,130.0,128.0,-1.0,104.0,-79.0,127.0,127.0,127.0,-114.0,-84.0,118.0
127.0,127.0,127.0,127.0,126.0,127.0,130.0,128.0,-1.0,104.0,-79.0,127.0,127.0,127.0,-114.0,-84.0,118.0
126.0,127.0,127.0,127.0,126.0,127.0,130.0,128.0,-1.0,104.0,-79.0,127.0,127.0,127.0,-114.0,-84.0,118.0
126.0,126.0,127.0,127.0,126.0,127.0,130.0,128.0,-1.0,104.0,-79.0,127.0,127.0,127.0,-114.0,-84.0,118.0
127.0,127.0,127.0,126.0,126.0,127.0,131.0,127.0,-1.0,104.0,-79.0,127.0,127.0,127.0,-114.0,-84.0,118.0
127.0,127.0,127.0,126.0,126.0,127.0,130.0,127.0,-1.0,104.0,-79.0,127.0,127.0,127.0,-114.0,-84.0,118.0
126.0,127.0,127.0,127.0,126.0,127.0,130.0,128.0,-1.0,104.0,-79.0,127.0,127.0,127.0,-114.0,-84.0,118.0
127.0,127.0,127.0,127.0,126.0,128.0,130.0,128.0,-1.0,104.0,-79.0,127.0,127.0,127.0,-114.0,-84.0,118.0
127.0,127.0,127.0,127.0,126.0,128.0,130.0,128.0,-1.0,104.0,-79.0,127.0,127.0,127.0,-114.0,-84.0,118.0
127.0,127.0,127.0,127.0,126.0,128.0,130.0,128.0,-1.0,104.0,-79.0,127.0,127.0,127.0,-114.0,-84.0,118.0
127.0,127.0,127.0,127.0,126.0,127.0,130.0,129.0,-1.0,104.0,-79.0,127.0,127.0,127.0,-114.0,-84.0,118.0
126.0,127.0,127.0,127.0,126.0,127.0,130.0,129.0,-1.0,104.0,-79.0,127.0,127.0,127.0,-114.0,-84.0,118.0
127.0,127.0,127.0,126.0,126.0,127.0,130.0,129.0,-1.0,104.0,-79.0,127.0,127.0,127.0,-114.0,-84.0,118.0
127.0,127.0,127.0,126.0,126.0,127.0,130.0,129.0,-1.0,104.0,-79.0,127.0,127.0,127.0,-114.0,-84.0,118.0
127.0,127.0,127.0,126.0,126.0,127.0,130.0,129.0,-1.0,104.0,-79.0,127.0,127.0,127.0,-114.0,-84.0,118.0
127.0,127.0,127.0,126.0,126.0,127.0,130.0,129.0,-1.0,104.0,-79.0,127.0,127.0,127.0,-114.0,-84.0,118.0
127.0,127.0,127.0,127.0,126.0,127.0,130.0,129.0,-1.0,104.0,-79.0,127.0,127.0,127.0,-114.0,-84.0,118.0
127.0,127.0,127.0,127.0,126.0,127.0,130.0,129.0,-1.0,104.0,-79.0,127.0,127.0,127.0,-114.0,-84.0,118.0
127.0,127.0,127.0,127.0,126.0,127.0,130.0,129.0,-1.0,104.0,-79.0,127.0,127.0,127.0,-114.0,-84.0,118.0
127.0,127.0,127.0,127.0,126.0,127.0,130.0,129.0,-1.0,104.0,-79.0,127.0,127.0,127.0,-114.0,-84.0,118.0
127.0,127.0,127.0,127.0,127.0,127.0,130.0,128.0,-1.0,104.0,-79.0,127.0,127.0,127.0,-114.0,-84.0,118.0
127.0,127.0,127.0,127.0,126.0,126.0,130.0,128.0,-1.0,104.0,-79.0,127.0,127.0,127.0,-114.0,-84.0,118.0
126.0,127.0,127.0,127.0,126.0,126.0,130.0,128.0,-1.0,104.0,-79.0,127.0,127.0,127.0,-114.0,-84.0,118.0
127.0,127.0,127.0,127.0,126.0,126.0,130.0,128.0,-1.0,104.0,-79.0,127.0,127.0,127.0,-114.0,-84.0,118.0
126.0,127.0,127.0,126.0,126.0,127.0,130.0,128.0,-1.0,104.0,-79.0,127.0,127.0,127.0,-114.0,-84.0,118.0
127.0,127.0,127.0,127.0,126.0,127.0,130.0,128.0,-1.0,104.0,-79.0,127.0,127.0,127.0,-114.0,-84.0,118.0
127.0,127.0,127.0,127.0,126.0,127.0,130.0,128.0,-1.0,104.0,-79.0,127.0,127.0,127.0,-114.0,-84.0,118.0
127.0,127.0,127.0,127.0,126.0,127.0,130.0,128.0,-1.0,104.0,-79.0,127.0,127.0,127.0,-114.0,-84.0,118.0
127.0,127.0,127.0,127.0,126.0,127.0,130.0,128.0,-1.0,104.0,-79.0,127.0,127.0,127.0,-114.0,-84.0,118.0
126.0,127.0,127.0,127.0,126.0,127.0,130.0,128.0,-1.0,104.0,-79.0,127.0,127.0,127.0,-114.0,-84.0,118.0
126.0,127.0,127.0,126.0,126.0,127.0,130.0,128.0,-1.0,104.0,-79.0,127.0,127.0,127.0,-114.0,-84.0,118.0
126.0,127.0,127.0,126.0,126.0,127.0,130.0,128.0,-1.0,104.0,-79.0,127.0,127.0,127.0,-114.0,-84.0,118.0
126.0,127.0,127.0,126.0,126.0,127.0,130.0,128.0,-1.0,104.0,-79.0,127.0,127.0,127.0,-114.0,-84.0,118.0
126.0,127.0,127.0,126.0,126.0,127.0,130.0,128.0,-1.0,104.0,-79.0,127.0,127.0,127.0,-114.0,-84.0,118.0
126.0,127.0,127.0,127.0,126.0,128.0,130.0,128.0,-1.0,104.0,-79.0,127.0,127.0,127.0,-114.0,-84.0,118.0
126.0,127.0,127.0,127.0,126.0,128.0,130.0,128.0,-1.0,104.0,-79.0,127.0,127.0,127.0,-114.0,-84.0,118.0
126.0,127.0,127.0,127.0,126.0,128.0,130.0,128.0,-1.0,104.0,-79.0,127.0,127.0,127.0,-114.0,-84.0,118.0
126.0,127.0,127.0,127.0,126.0,128.0,130.0,128.0,-1.0,104.0,-79.0,127.0,127.0,127.0,-114.0,-84.0,118.0
126.0,127.0,127.0,127.0,126.0,128.0,130.0,128.0,-1.0,104.0,-79.0,127.0,127.0,127.0,-114.0,-84.0,118.0
126.0,127.0,127.0,127.0,126.0,128.0,130.0,128.0,-1.0,104.0,-79.0,127.0,127.0,127.0,-114.0,-84.0,118.0
126.0,127.0,127.0,127.0,126.0,127.0,131.0,128.0,-1.0,104.0,-79.0,127.0,127.0,127.0,-114.0,-84.0,118.0
126.0,127.0,127.0,127.0,126.0,127.0,131.0,128.0,-1.0,104.0,-79.0,127.0,127.0,127.0,-114.0,-84.0,118.0
126.0,127.0,127.0,127.0,126.0,127.0,131.0,128.0,-1.0,104.0,-79.0,127.0,127.0,127.0,-114.0,-84.0,118.0
126.0,127.0,127.0,127.0,126.0,128.0,131.0,128.0,-1.0,104.0,-79.0,127.0,127.0,127.0,-114.0,-84.0,118.0
126.0,127.0,127.0,127.0,126.0,128.0,130.0,128.0,-1.0,104.0,-79.0,127.0,127.0,127.0,-114.0,-84.0,118.0
126.0,127.0,127.0,127.0,126.0,128.0,130.0,128.0,-1.0,104.0,-79.0,127.0,127.0,127.0,-114.0,-84.0,118.0
126.0,127.0,127.0,127.0,126.0,128.0,130.0,128.0,-1.0,104.0,-79.0,127.0,127.0,127.0,-114.0,-84.0,118.0
126.0,127.0,127.0,127.0,126.0,128.0,130.0,128.0,-1.0,104.0,-79.0,127.0,127.0,127.0,-114.0,-84.0,118.0
126.0,127.0,127.0,127.0,126.0,128.0,130.0,128.0,-1.0,104.0,-79.0,127.0,127.0,127.0,-114.0,-84.0,118.0
126.0,127.0,127.0,127.0,126.0,127.0,131.0,128.0,-1.0,104.0,-79.0,127.0,127.0,127.0,-114.0,-84.0,118.0
126.0,127.0,127.0,126.0,126.0,127.0,131.0,127.0,-1.0,104.0,-79.0,127.0,127.0,127.0,-114.0,-84.0,118.0
126.0,127.0,127.0,127.0,126.0,127.0,131.0,127.0,-1.0,104.0,-79.0,127.0,127.0,127.0,-114.0,-84.0,118.0
126.0,127.0,126.0,127.0,126.0,128.0,131.0,127.0,-1.0,104.0,-79.0,127.0,127.0,127.0,-114.0,-84.0,118.0
126.0,127.0,126.0,127.0,126.0,128.0,130.0,128.0,-1.0,104.0,-79.0,127.0,127.0,127.0,-114.0,-84.0,118.0
126.0,127.0,127.0,127.0,126.0,127.0,130.0,127.0,-1.0,104.0,-79.0,127.0,127.0,127.0,-114.0,-84.0,118.0
126.0,127.0,126.0,127.0,126.0,127.0,130.0,127.0,-1.0,104.0,-79.0,127.0,127.0,127.0,-114.0,-84.0,118.0
126.0,127.0,127.0,127.0,127.0,127.0,130.0,127.0,-1.0,104.0,-79.0,127.0,127.0,127.0,-114.0,-84.0,118.0
126.0,127.0,127.0,127.0,127.0,127.0,130.0,127.0,-1.0,104.0,-79.0,127.0,127.0,127.0,-114.0,-84.0,118.0
126.0,127.0,126.0,127.0,126.0,127.0,131.0,127.0,-1.0,104.0,-79.0,127.0,127.0,127.0,-114.0,-84.0,118.0
126.0,127.0,127.0,126.0,126.0,127.0,131.0,127.0,-1.0,104.0,-79.0,127.0,127.0,127.0,-114.0,-84.0,118.0
127.0,127.0,127.0,126.0,126.0,126.0,131.0,127.0,-1.0,104.0,-79.0,127.0,127.0,127.0,-114.0,-84.0,118.0
127.0,127.0,127.0,126.0,126.0,126.0,131.0,127.0,-1.0,104.0,-79.0,127.0,127.0,127.0,-114.0,-84.0,118.0
127.0,127.0,127.0,126.0,126.0,126.0,131.0,127.0,-1.0,104.0,-79.0,127.0,127.0,127.0,-114.0,-84.0,118.0
127.0,127.0,127.0,126.0,126.0,126.0,131.0,127.0,-1.0,104.0,-79.0,127.0,127.0,127.0,-114.0,-84.0,118.0
127.0,127.0,126.0,126.0,126.0,127.0,131.0,127.0,-1.0,104.0,-79.0,127.0,127.0,127.0,-114.0,-84.0,118.0
127.0,127.0,127.0,127.0,126.0,127.0,131.0,127.0,-1.0,104.0,-79.0,127.0,127.0,127.0,-114.0,-84.0,118.0
127.0,127.0,127.0,127.0,126.0,127.0,131.0,127.0,-1.0,104.0,-79.0,127.0,127.0,127.0,-114.0,-84.0,118.0
127.0,127.0,126.0,126.0,126.0,125.0,131.0,127.0,-1.0,104.0,-79.0,127.0,127.0,127.0,-114.0,-84.0,118.0
127.0,127.0,126.0,126.0,126.0,125.0,131.0,127.0,-1.0,104.0,-79.0,127.0,127.0,127.0,-114.0,-84.0,118.0
127.0,127.0,126.0,126.0,126.0,126.0,131.0,127.0,-1.0,104.0,-79.0,127.0,127.0,127.0,-114.0,-84.0,118.0
127.0,127.0,127.0,127.0,126.0,127.0,130.0,128.0,-1.0,104.0,-79.0,127.0,127.0,127.0,-114.0,-84.0,118.0
126.0,127.0,127.0,127.0,126.0,127.0,130.0,128.0,-1.0,104.0,-79.0,127.0,127.0,127.0,-114.0,-84.0,118.0
127.0,127.0,127.0,127.0,126.0,127.0,130.0,128.0,-1.0,104.0,-79.0,127.0,127.0,127.0,-114.0,-84.0,118.0
127.0,127.0,127.0,127.0,127.0,127.0,130.0,128.0,-1.0,104.0,-79.0,127.0,127.0,127.0,-114.0,-84.0,118.0
126.0,127.0,127.0,127.0,127.0,127.0,130.0,128.0,-1.0,104.0,-79.0,127.0,127.0,127.0,-114.0,-84.0,118.0
126.0,127.0,127.0,127.0,127.0,127.0,130.0,128.0,-1.0,104.0,-79.0,127.0,127.0,127.0,-114.0,-84.0,118.0
127.0,127.0,127.0,127.0,126.0,126.0,131.0,128.0,-1.0,104.0,-79.0,127.0,127.0,127.0,-114.0,-84.0,118.0
127.0,127.0,127.0,127.0,126.0,127.0,131.0,128.0,-1.0,104.0,-79.0,127.0,127.0,127.0,-114.0,-84.0,118.0
127.0,127.0,127.0,127.0,126.0,127.0,130.0,128.0,-1.0,104.0,-79.0,127.0,127.0,127.0,-114.0,-84.0,118.0
126.0,127.0,127.0,127.0,126.0,127.0,130.0,128.0,-1.0,104.0,-79.0,127.0,127.0,127.0,-114.0,-84.0,118.0
127.0,127.0,127.0,127.0,126.0,127.0,130.0,129.0,-1.0,104.0,-79.0,127.0,127.0,127.0,-114.0,-84.0,118.0
127.0,127.0,127.0,127.0,126.0,128.0,130.0,129.0,-1.0,104.0,-79.0,127.0,127.0,127.0,-114.0,-84.0,118.0
127.0,127.0,127.0,127.0,127.0,127.0,130.0,129.0,-1.0,104.0,-79.0,127.0,127.0,127.0,-114.0,-84.0,118.0
127.0,127.0,127.0,127.0,127.0,127.0,130.0,128.0,-1.0,104.0,-79.0,127.0,127.0,127.0,-114.0,-84.0,118.0
127.0,127.0,127.0,127.0,127.0,128.0,129.0,129.0,-1.0,104.0,-79.0,127.0,127.0,127.0,-114.0,-84.0,118.0
127.0,127.0,127.0,126.0,126.0,127.0,130.0,128.0,-1.0,104.0,-79.0,127.0,127.0,127.0,-114.0,-84.0,118.0
127.0,127.0,126.0,126.0,126.0,127.0,130.0,128.0,-1.0,104.0,-79.0,127.0,127.0,127.0,-114.0,-84.0,118.0
127.0,127.0,126.0,127.0,126.0,127.0,130.0,129.0,-1.0,104.0,-79.0,127.0,127.0,127.0,-114.0,-84.0,118.0
127.0,127.0,127.0,127.0,126.0,127.0,130.0,129.0,-1.0,104.0,-79.0,127.0,127.0,127.0,-114.0,-84.0,118.0
127.0,127.0,127.0,127.0,126.0,127.0,130.0,129.0,-1.0,104.0,-79.0,127.0,127.0,127.0,-114.0,-84.0,118.0
126.0,127.0,127.0,127.0,126.0,128.0,129.0,128.0,-1.0,105.0,-79.0,127.0,127.0,127.0,-114.0,-84.0,118.0
126.0,127.0,127.0,127.0,126.0,128.0,129.0,128.0,-1.0,105.0,-79.0,127.0,127.0,127.0,-114.0,-84.0,118.0
126.0,127.0,127.0,127.0,126.0,128.0,129.0,128.0,-1.0,105.0,-79.0,127.0,127.0,127.0,-114.0,-84.0,118.0
126.0,127.0,127.0,127.0,126.0,128.0,129.0,128.0,-1.0,105.0,-79.0,127.0,127.0,127.0,-114.0,-84.0,118.0
126.0,127.0,126.0,126.0,126.0,127.0,130.0,128.0,-1.0,105.0,-79.0,127.0,127.0,127.0,-114.0,-84.0,118.0
126.0,127.0,126.0,126.0,126.0,128.0,130.0,128.0,-1.0,105.0,-79.0,127.0,127.0,127.0,-114.0,-84.0,118.0
126.0,127.0,126.0,127.0,126.0,128.0,130.0,128.0,-1.0,105.0,-79.0,127.0,127.0,127.0,-114.0,-84.0,118.0
126.0,127.0,126.0,127.0,126.0,128.0,130.0,128.0,-1.0,105.0,-79.0,127.0,127.0,127.0,-114.0,-84.0,118.0
126.0,127.0,126.0,127.0,126.0,128.0,130.0,128.0,-1.0,105.0,-79.0,127.0,127.0,127.0,-114.0,-84.0,118.0
126.0,127.0,127.0,127.0,126.0,128.0,129.0,128.0,-1.0,105.0,-79.0,127.0,127.0,127.0,-114.0,-84.0,118.0
126.0,127.0,127.0,127.0,126.0,127.0,129.0,128.0,-1.0,105.0,-79.0,127.0,127.0,127.0,-114.0,-84.0,118.0
126.0,127.0,127.0,127.0,126.0,127.0,129.0,128.0,-1.0,105.0,-79.0,127.0,127.0,127.0,-114.0,-84.0,118.0
126.0,127.0,127.0,127.0,126.0,127.0,129.0,128.0,-1.0,105.0,-79.0,127.0,127.0,127.0,-114.0,-84.0,118.0
126.0,127.0,127.0,127.0,126.0,127.0,130.0,128.0,-1.0,105.0,-79.0,127.0,127.0,127.0,-114.0,-84.0,118.0
126.0,127.0,126.0,127.0,126.0,127.0,129.0,128.0,-1.0,105.0,-79.0,127.0,127.0,127.0,-114.0,-84.0,118.0
126.0,127.0,126.0,127.0,126.0,127.0,129.0,128.0,-1.0,105.0,-79.0,127.0,127.0,127.0,-114.0,-84.0,118.0
126.0,127.0,126.0,127.0,126.0,127.0,129.0,128.0,-1.0,105.0,-79.0,127.0,127.0,127.0,-114.0,-84.0,118.0
126.0,127.0,127.0,127.0,126.0,127.0,129.0,128.0,-1.0,105.0,-79.0,127.0,127.0,127.0,-114.0,-84.0,118.0
126.0,127.0,127.0,127.0,126.0,127.0,129.0,128.0,-1.0,105.0,-79.0,127.0,127.0,127.0,-114.0,-84.0,118.0
126.0,127.0,127.0,127.0,126.0,127.0,129.0,128.0,-1.0,105.0,-79.0,127.0,127.0,127.0,-114.0,-84.0,118.0
126.0,127.0,127.0,127.0,127.0,127.0,127.0,128.0,-1.0,105.0,-79.0,127.0,127.0,127.0,-114.0,-84.0,118.0
126.0,127.0,127.0,127.0,127.0,127.0,127.0,128.0,-1.0,105.0,-79.0,127.0,127.0,127.0,-114.0,-84.0,118.0
127.0,127.0,127.0,127.0,127.0,127.0,128.0,128.0,-1.0,105.0,-79.0,127.0,127.0,127.0,-114.0,-84.0,118.0
127.0,127.0,126.0,127.0,126.0,128.0,128.0,128.0,-1.0,105.0,-79.0,127.0,127.0,127.0,-114.0,-84.0,118.0
127.0,127.0,126.0,127.0,126.0,128.0,128.0,128.0,-1.0,105.0,-79.0,127.0,127.0,127.0,-114.0,-84.0,118.0
127.0,127.0,127.0,127.0,126.0,128.0,128.0,128.0,-1.0,105.0,-79.0,127.0,127.0,127.0,-114.0,-84.0,118.0
127.0,127.0,127.0,127.0,126.0,128.0,128.0,128.0,-1.0,105.0,-79.0,127.0,127.0,127.0,-114.0,-84.0,118.0
127.0,127.0,127.0,127.0,127.0,127.0,128.0,128.0,-1.0,105.0,-79.0,127.0,127.0,127.0,-114.0,-84.0,118.0
127.0,127.0,127.0,127.0,126.0,127.0,128.0,128.0,-1.0,105.0,-79.0,127.0,127.0,127.0,-114.0,-84.0,118.0
127.0,127.0,127.0,127.0,127.0,127.0,128.0,128.0,-1.0,105.0,-79.0,127.0,127.0,127.0,-114.0,-84.0,118.0
127.0,127.0,127.0,127.0,127.0,127.0,127.0,128.0,-1.0,105.0,-79.0,127.0,127.0,127.0,-114.0,-84.0,118.0
127.0,127.0,127.0,127.0,126.0,126.0,127.0,128.0,-1.0,105.0,-79.0,127.0,127.0,127.0,-114.0,-84.0,118.0
127.0,127.0,127.0,127.0,126.0,127.0,127.0,128.0,-1.0,105.0,-79.0,127.0,127.0,127.0,-114.0,-84.0,118.0
127.0,128.0,127.0,127.0,126.0,127.0,127.0,128.0,-1.0,105.0,-79.0,127.0,127.0,127.0,-114.0,-84.0,118.0
127.0,128.0,127.0,127.0,126.0,127.0,127.0,128.0,-1.0,105.0,-79.0,127.0,127.0,127.0,-114.0,-84.0,118.0
127.0,128.0,127.0,127.0,126.0,127.0,127.0,128.0,-1.0,105.0,-79.0,127.0,127.0,127.0,-114.0,-84.0,118.0
127.0,127.0,127.0,127.0,126.0,127.0,127.0,128.0,-1.0,105.0,-79.0,127.0,127.0,127.0,-114.0,-84.0,118.0
127.0,127.0,127.0,127.0,126.0,127.0,127.0,128.0,-1.0,105.0,-79.0,127.0,127.0,127.0,-114.0,-84.0,118.0
127.0,127.0,127.0,127.0,126.0,127.0,127.0,128.0,-1.0,105.0,-79.0,127.0,127.0,127.0,-114.0,-84.0,118.0
127.0,127.0,127.0,127.0,126.0,127.0,127.0,128.0,-1.0,105.0,-79.0,127.0,127.0,127.0,-114.0,-84.0,118.0
127.0,127.0,127.0,127.0,126.0,127.0,127.0,128.0,-1.0,105.0,-79.0,127.0,127.0,127.0,-114.0,-84.0,118.0
127.0,127.0,127.0,127.0,126.0,127.0,127.0,128.0,-1.0,105.0,-79.0,127.0,127.0,127.0,-114.0,-84.0,118.0
127.0,128.0,126.0,127.0,126.0,128.0,127.0,128.0,-1.0,105.0,-79.0,127.0,127.0,127.0,-114.0,-84.0,118.0
127.0,127.0,126.0,127.0,126.0,128.0,127.0,129.0,-1.0,105.0,-79.0,127.0,127.0,127.0,-114.0,-84.0,118.0
127.0,127.0,127.0,127.0,126.0,128.0,127.0,129.0,-1.0,105.0,-79.0,127.0,127.0,127.0,-114.0,-84.0,118.0
127.0,127.0,127.0,127.0,126.0,128.0,127.0,129.0,-1.0,105.0,-79.0,127.0,127.0,127.0,-114.0,-84.0,118.0
127.0,127.0,127.0,127.0,126.0,128.0,127.0,129.0,-1.0,105.0,-79.0,127.0,127.0,127.0,-114.0,-84.0,118.0
127.0,127.0,127.0,127.0,127.0,128.0,127.0,128.0,-1.0,105.0,-79.0,127.0,127.0,127.0,-114.0,-84.0,118.0
127.0,127.0,127.0,127.0,127.0,128.0,126.0,128.0,-1.0,105.0,-79.0,127.0,127.0,127.0,-114.0,-84.0,118.0
127.0,127.0,127.0,127.0,127.0,128.0,126.0,128.0,-1.0,105.0,-79.0,127.0,127.0,127.0,-114.0,-84.0,118.0
127.0,127.0,127.0,127.0,127.0,125.0,128.0,127.0,-1.0,105.0,-79.0,127.0,127.0,127.0,-114.0,-84.0,118.0
127.0,127.0,127.0,127.0,127.0,125.0,128.0,127.0,-1.0,105.0,-79.0,127.0,127.0,127.0,-114.0,-84.0,118.0
127.0,127.0,127.0,127.0,127.0,126.0,128.0,127.0,-1.0,105.0,-79.0,127.0,127.0,127.0,-114.0,-84.0,118.0
127.0,127.0,127.0,127.0,127.0,126.0,128.0,127.0,-1.0,105.0,-79.0,127.0,127.0,127.0,-114.0,-84.0,118.0
127.0,127.0,126.0,127.0,126.0,127.0,128.0,128.0,-1.0,105.0,-79.0,127.0,127.0,127.0,-114.0,-84.0,118.0
127.0,127.0,126.0,127.0,126.0,127.0,128.0,128.0,-1.0,105.0,-79.0,127.0,127.0,127.0,-114.0,-84.0,118.0
127.0,127.0,127.0,127.0,127.0,127.0,128.0,128.0,-1.0,105.0,-79.0,127.0,127.0,127.0,-114.0,-84.0,118.0
127.0,127.0,127.0,127.0,127.0,127.0,128.0,128.0,-1.0,105.0,-79.0,127.0,127.0,127.0,-114.0,-84.0,118.0
127.0,127.0,127.0,127.0,127.0,127.0,128.0,128.0,-1.0,105.0,-79.0,127.0,127.0,127.0,-114.0,-84.0,118.0
127.0,127.0,127.0,127.0,127.0,125.0,128.0,127.0,-1.0,105.0,-79.0,127.0,127.0,127.0,-114.0,-84.0,118.0
127.0,127.0,127.0,127.0,126.0,127.0,128.0,128.0,-1.0,105.0,-79.0,127.0,127.0,127.0,-114.0,-84.0,118.0
127.0,127.0,127.0,127.0,126.0,127.0,128.0,128.0,-1.0,105.0,-79.0,127.0,127.0,127.0,-114.0,-84.0,118.0
127.0,127.0,127.0,127.0,126.0,127.0,128.0,128.0,-1.0,105.0,-79.0,127.0,127.0,127.0,-114.0,-84.0,118.0
127.0,127.0,127.0,127.0,126.0,127.0,128.0,128.0,-1.0,105.0,-79.0,127.0,127.0,127.0,-114.0,-84.0,118.0
127.0,127.0,127.0,127.0,126.0,127.0,128.0,128.0,-1.0,105.0,-79.0,127.0,127.0,127.0,-114.0,-84.0,118.0
127.0,127.0,127.0,127.0,126.0,127.0,128.0,128.0,-1.0,105.0,-79.0,127.0,127.0,127.0,-114.0,-84.0,118.0
127.0,127.0,127.0,127.0,126.0,127.0,128.0,128.0,-1.0,105.0,-79.0,127.0,127.0,127.0,-114.0,-84.0,118.0
126.0,127.0,127.0,127.0,126.0,127.0,128.0,128.0,-1.0,105.0,-79.0,127.0,127.0,127.0,-114.0,-84.0,118.0
127.0,127.0,126.0,127.0,126.0,127.0,128.0,128.0,-1.0,105.0,-79.0,127.0,127.0,127.0,-114.0,-84.0,118.0
127.0,127.0,126.0,127.0,126.0,127.0,128.0,128.0,-1.0,105.0,-79.0,127.0,127.0,127.0,-114.0,-84.0,118.0
127.0,128.0,126.0,127.0,126.0,128.0,128.0,128.0,-1.0,105.0,-79.0,127.0,127.0,127.0,-114.0,-84.0,118.0
126.0,128.0,127.0,127.0,126.0,128.0,128.0,128.0,-1.0,105.0,-79.0,127.0,127.0,127.0,-114.0,-84.0,118.0
126.0,128.0,127.0,127.0,126.0,128.0,128.0,128.0,-1.0,105.0,-79.0,127.0,127.0,127.0,-114.0,-84.0,118.0
126.0,128.0,127.0,127.0,126.0,128.0,128.0,128.0,-1.0,105.0,-79.0,127.0,127.0,127.0,-114.0,-84.0,118.0
126.0,127.0,127.0,127.0,126.0,128.0,128.0,128.0,-1.0,105.0,-79.0,127.0,127.0,127.0,-114.0,-84.0,118.0
126.0,127.0,127.0,127.0,127.0,128.0,128.0,128.0,-1.0,105.0,-79.0,127.0,127.0,127.0,-114.0,-84.0,118.0
126.0,127.0,126.0,127.0,126.0,127.0,128.0,128.0,-1.0,105.0,-79.0,127.0,127.0,127.0,-114.0,-84.0,118.0
126.0,127.0,126.0,127.0,126.0,127.0,128.0,128.0,-1.0,105.0,-79.0,127.0,127.0,127.0,-114.0,-84.0,118.0
126.0,127.0,126.0,127.0,126.0,127.0,128.0,128.0,-1.0,105.0,-79.0,127.0,127.0,127.0,-114.0,-84.0,118.0
126.0,128.0,126.0,127.0,126.0,128.0,128.0,128.0,-1.0,105.0,-79.0,127.0,127.0,127.0,-114.0,-84.0,118.0
127.0,128.0,127.0,127.0,126.0,127.0,127.0,128.0,-1.0,105.0,-79.0,127.0,127.0,127.0,-114.0,-84.0,118.0
127.0,128.0,127.0,126.0,126.0,127.0,127.0,128.0,-1.0,105.0,-79.0,127.0,127.0,127.0,-114.0,-84.0,118.0
127.0,128.0,127.0,126.0,126.0,127.0,127.0,128.0,-1.0,105.0,-79.0,127.0,127.0,127.0,-114.0,-84.0,118.0
127.0,128.0,127.0,126.0,126.0,127.0,127.0,128.0,-1.0,105.0,-79.0,127.0,127.0,127.0,-114.0,-84.0,118.0
127.0,128.0,127.0,127.0,126.0,127.0,127.0,128.0,-1.0,105.0,-79.0,127.0,127.0,127.0,-114.0,-84.0,118.0
127.0,128.0,127.0,126.0,126.0,127.0,127.0,128.0,-1.0,105.0,-79.0,127.0,127.0,127.0,-114.0,-84.0,118.0
127.0,127.0,127.0,126.0,126.0,127.0,127.0,128.0,-1.0,105.0,-79.0,127.0,127.0,127.0,-114.0,-84.0,118.0
127.0,127.0,127.0,126.0,126.0,127.0,127.0,128.0,-1.0,105.0,-79.0,127.0,127.0,127.0,-114.0,-84.0,118.0
127.0,128.0,127.0,126.0,126.0,127.0,127.0,128.0,-1.0,105.0,-79.0,127.0,127.0,127.0,-114.0,-84.0,118.0
127.0,128.0,127.0,126.0,126.0,127.0,127.0,128.0,-1.0,105.0,-79.0,127.0,127.0,127.0,-114.0,-84.0,118.0
127.0,127.0,127.0,127.0,126.0,128.0,128.0,129.0,-1.0,105.0,-79.0,127.0,127.0,127.0,-114.0,-84.0,118.0
127.0,128.0,127.0,127.0,126.0,128.0,128.0,129.0,-1.0,105.0,-79.0,127.0,127.0,127.0,-114.0,-84.0,118.0
127.0,128.0,127.0,127.0,126.0,128.0,128.0,129.0,-1.0,105.0,-79.0,127.0,127.0,127.0,-114.0,-84.0,118.0
127.0,127.0,127.0,127.0,126.0,128.0,128.0,129.0,-1.0,105.0,-79.0,127.0,127.0,127.0,-114.0,-84.0,118.0
127.0,127.0,127.0,127.0,126.0,127.0,129.0,129.0,-1.0,105.0,-79.0,127.0,127.0,127.0,-114.0,-84.0,118.0
127.0,127.0,127.0,127.0,126.0,127.0,129.0,129.0,-1.0,105.0,-79.0,127.0,127.0,127.0,-114.0,-84.0,118.0
127.0,127.0,127.0,127.0,126.0,127.0,129.0,129.0,-1.0,105.0,-79.0,127.0,127.0,127.0,-114.0,-84.0,118.0
127.0,127.0,127.0,127.0,126.0,127.0,129.0,129.0,-1.0,105.0,-79.0,127.0,127.0,127.0,-114.0,-84.0,118.0
127.0,127.0,127.0,127.0,126.0,128.0,129.0,129.0,-1.0,105.0,-79.0,127.0,127.0,127.0,-114.0,-84.0,118.0
127.0,127.0,127.0,127.0,126.0,128.0,129.0,129.0,-1.0,105.0,-79.0,127.0,127.0,127.0,-114.0,-84.0,118.0
127.0,127.0,127.0,127.0,126.0,127.0,128.0,128.0,-1.0,105.0,-79.0,127.0,127.0,127.0,-114.0,-84.0,118.0
127.0,127.0,127.0,127.0,126.0,127.0,128.0,128.0,-1.0,105.0,-79.0,127.0,127.0,127.0,-114.0,-84.0,118.0
127.0,127.0,127.0,127.0,126.0,127.0,128.0,128.0,-1.0,105.0,-79.0,127.0,127.0,127.0,-114.0,-84.0,118.0
127.0,127.0,127.0,126.0,126.0,126.0,129.0,127.0,-1.0,105.0,-79.0,127.0,127.0,127.0,-114.0,-84.0,118.0
127.0,127.0,127.0,126.0,126.0,127.0,129.0,128.0,-1.0,105.0,-79.0,127.0,127.0,127.0,-114.0,-84.0,118.0
127.0,127.0,127.0,126.0,126.0,127.0,129.0,128.0,-1.0,105.0,-79.0,127.0,127.0,127.0,-114.0,-84.0,118.0
127.0,127.0,127.0,126.0,126.0,127.0,128.0,128.0,-1.0,105.0,-79.0,127.0,127.0,127.0,-114.0,-84.0,118.0
127.0,127.0,127.0,127.0,126.0,126.0,128.0,128.0,-1.0,105.0,-79.0,127.0,127.0,127.0,-114.0,-84.0,118.0
127.0,127.0,127.0,127.0,126.0,127.0,128.0,128.0,-1.0,105.0,-79.0,127.0,127.0,127.0,-114.0,-84.0,118.0
127.0,127.0,127.0,126.0,126.0,127.0,128.0,128.0,-1.0,105.0,-79.0,127.0,127.0,127.0,-114.0,-84.0,118.0
127.0,127.0,127.0,127.0,126.0,128.0,127.0,129.0,-1.0,105.0,-79.0,127.0,127.0,127.0,-114.0,-84.0,118.0
127.0,127.0,127.0,127.0,126.0,128.0,127.0,128.0,-1.0,105.0,-79.0,127.0,127.0,127.0,-114.0,-84.0,118.0
127.0,127.0,127.0,127.0,126.0,127.0,128.0,128.0,-1.0,105.0,-79.0,127.0,127.0,127.0,-114.0,-84.0,118.0
127.0,127.0,127.0,127.0,126.0,127.0,128.0,128.0,-1.0,105.0,-79.0,127.0,127.0,127.0,-114.0,-84.0,118.0
127.0,127.0,127.0,127.0,126.0,127.0,127.0,128.0,-1.0,105.0,-79.0,127.0,127.0,127.0,-114.0,-84.0,118.0
127.0,127.0,127.0,127.0,126.0,127.0,127.0,128.0,-1.0,105.0,-79.0,127.0,127.0,127.0,-114.0,-84.0,118.0
127.0,127.0,127.0,127.0,126.0,127.0,127.0,128.0,-1.0,105.0,-79.0,127.0,127.0,127.0,-114.0,-84.0,118.0
127.0,127.0,127.0,127.0,127.0,127.0,127.0,128.0,-1.0,105.0,-79.0,127.0,127.0,127.0,-114.0,-84.0,118.0
127.0,127.0,127.0,127.0,126.0,127.0,127.0,128.0,-1.0,105.0,-79.0,127.0,127.0,127.0,-114.0,-84.0,118.0
127.0,127.0,127.0,127.0,126.0,127.0,127.0,129.0,-1.0,105.0,-79.0,127.0,127.0,127.0,-114.0,-84.0,118.0
127.0,127.0,127.0,127.0,126.0,128.0,124.0,128.0,-1.0,105.0,-79.0,127.0,127.0,127.0,-114.0,-84.0,118.0
127.0,127.0,127.0,126.0,126.0,126.0,124.0,127.0,-1.0,105.0,-79.0,127.0,127.0,127.0,-114.0,-84.0,118.0
127.0,127.0,127.0,127.0,126.0,127.0,125.0,128.0,-1.0,105.0,-79.0,127.0,127.0,127.0,-114.0,-84.0,118.0
127.0,127.0,127.0,126.0,126.0,127.0,124.0,128.0,-1.0,105.0,-79.0,127.0,127.0,127.0,-114.0,-84.0,118.0
127.0,127.0,127.0,126.0,126.0,127.0,124.0,128.0,-1.0,105.0,-79.0,127.0,127.0,127.0,-114.0,-84.0,118.0
127.0,127.0,127.0,126.0,126.0,127.0,124.0,128.0,-1.0,105.0,-79.0,127.0,127.0,127.0,-114.0,-84.0,118.0
127.0,127.0,127.0,126.0,126.0,127.0,124.0,128.0,-1.0,105.0,-79.0,127.0,127.0,127.0,-114.0,-84.0,118.0
127.0,127.0,127.0,126.0,126.0,127.0,124.0,128.0,-1.0,105.0,-79.0,127.0,127.0,127.0,-114.0,-84.0,118.0
127.0,127.0,127.0,126.0,126.0,127.0,124.0,128.0,-1.0,105.0,-79.0,127.0,127.0,127.0,-114.0,-84.0,118.0
127.0,127.0,127.0,127.0,126.0,127.0,124.0,128.0,-1.0,105.0,-79.0,127.0,127.0,127.0,-114.0,-84.0,118.0
127.0,127.0,127.0,127.0,126.0,126.0,126.0,128.0,-1.0,105.0,-79.0,127.0,127.0,127.0,-114.0,-84.0,118.0
127.0,127.0,127.0,127.0,126.0,126.0,126.0,128.0,-1.0,105.0,-79.0,127.0,127.0,127.0,-114.0,-84.0,118.0
127.0,127.0,127.0,127.0,126.0,126.0,126.0,128.0,-1.0,105.0,-79.0,127.0,127.0,127.0,-114.0,-84.0,118.0
127.0,127.0,127.0,127.0,126.0,126.0,126.0,128.0,-1.0,105.0,-79.0,127.0,127.0,127.0,-114.0,-84.0,118.0
127.0,127.0,127.0,127.0,126.0,126.0,126.0,128.0,-1.0,105.0,-79.0,127.0,127.0,127.0,-114.0,-84.0,118.0
127.0,127.0,127.0,127.0,126.0,126.0,126.0,128.0,-1.0,105.0,-79.0,127.0,127.0,127.0,-114.0,-84.0,118.0
127.0,127.0,127.0,127.0,126.0,126.0,126.0,128.0,-1.0,105.0,-79.0,127.0,127.0,127.0,-114.0,-84.0,118.0
127.0,127.0,127.0,127.0,126.0,126.0,126.0,128.0,-1.0,105.0,-79.0,127.0,127.0,127.0,-114.0,-84.0,118.0
127.0,127.0,127.0,127.0,126.0,126.0,126.0,128.0,-1.0,105.0,-79.0,127.0,127.0,127.0,-114.0,-84.0,118.0
127.0,127.0,127.0,127.0,126.0,126.0,126.0,128.0,-1.0,105.0,-79.0,127.0,127.0,127.0,-114.0,-84.0,118.0
127.0,127.0,127.0,127.0,126.0,126.0,127.0,128.0,-1.0,105.0,-79.0,127.0,127.0,127.0,-114.0,-84.0,118.0
127.0,127.0,127.0,127.0,126.0,126.0,127.0,128.0,-1.0,105.0,-79.0,127.0,127.0,127.0,-114.0,-84.0,118.0
127.0,127.0,127.0,127.0,126.0,127.0,127.0,128.0,-1.0,105.0,-79.0,127.0,127.0,127.0,-114.0,-84.0,118.0
127.0,128.0,127.0,127.0,126.0,127.0,127.0,128.0,-1.0,105.0,-79.0,127.0,127.0,127.0,-114.0,-84.0,118.0
127.0,128.0,127.0,127.0,126.0,127.0,127.0,128.0,-1.0,105.0,-79.0,127.0,127.0,127.0,-114.0,-84.0,118.0
127.0,128.0,127.0,127.0,126.0,127.0,127.0,128.0,-1.0,105.0,-79.0,127.0,127.0,127.0,-114.0,-84.0,118.0
127.0,128.0,127.0,127.0,126.0,127.0,127.0,128.0,-1.0,105.0,-79.0,127.0,127.0,127.0,-114.0,-84.0,118.0
127.0,127.0,127.0,127.0,126.0,127.0,126.0,128.0,-1.0,105.0,-79.0,127.0,127.0,127.0,-114.0,-84.0,118.0
127.0,127.0,127.0,127.0,126.0,127.0,126.0,128.0,-1.0,105.0,-79.0,127.0,127.0,127.0,-114.0,-84.0,118.0
127.0,127.0,127.0,127.0,125.0,126.0,127.0,128.0,-1.0,105.0,-79.0,127.0,127.0,127.0,-114.0,-84.0,118.0
127.0,127.0,127.0,127.0,126.0,126.0,127.0,128.0,-1.0,105.0,-79.0,127.0,127.0,127.0,-114.0,-84.0,118.0
127.0,127.0,127.0,126.0,126.0,127.0,127.0,128.0,-1.0,105.0,-79.0,127.0,127.0,127.0,-114.0,-84.0,118.0
127.0,128.0,127.0,127.0,126.0,127.0,127.0,128.0,-1.0,105.0,-79.0,127.0,127.0,127.0,-114.0,-84.0,118.0
127.0,128.0,127.0,127.0,126.0,127.0,127.0,128.0,-1.0,105.0,-79.0,127.0,127.0,127.0,-114.0,-84.0,118.0
127.0,128.0,127.0,127.0,126.0,127.0,127.0,128.0,-1.0,105.0,-79.0,127.0,127.0,127.0,-114.0,-84.0,118.0
127.0,128.0,127.0,127.0,126.0,127.0,127.0,128.0,-1.0,105.0,-79.0,127.0,127.0,127.0,-114.0,-84.0,118.0
127.0,128.0,127.0,127.0,126.0,127.0,127.0,128.0,-1.0,105.0,-79.0,127.0,127.0,127.0,-114.0,-84.0,118.0
127.0,127.0,127.0,127.0,126.0,127.0,127.0,128.0,-1.0,105.0,-79.0,127.0,127.0,127.0,-114.0,-84.0,118.0
127.0,127.0,127.0,126.0,126.0,127.0,127.0,128.0,-1.0,105.0,-79.0,127.0,127.0,127.0,-114.0,-84.0,118.0
127.0,128.0,127.0,126.0,126.0,126.0,127.0,128.0,-1.0,105.0,-79.0,127.0,127.0,127.0,-114.0,-84.0,118.0
127.0,128.0,126.0,127.0,126.0,126.0,128.0,128.0,-1.0,105.0,-79.0,127.0,127.0,127.0,-114.0,-84.0,118.0
127.0,128.0,126.0,127.0,126.0,127.0,128.0,128.0,-1.0,105.0,-79.0,127.0,127.0,127.0,-114.0,-84.0,118.0
127.0,128.0,126.0,127.0,126.0,127.0,128.0,128.0,-1.0,105.0,-79.0,127.0,127.0,127.0,-114.0,-84.0,118.0
127.0,128.0,126.0,127.0,126.0,127.0,128.0,128.0,-1.0,105.0,-79.0,127.0,127.0,127.0,-114.0,-84.0,118.0
127.0,128.0,127.0,127.0,126.0,127.0,127.0,128.0,-1.0,105.0,-79.0,127.0,127.0,127.0,-114.0,-84.0,118.0
127.0,128.0,127.0,127.0,127.0,127.0,128.0,128.0,-1.0,105.0,-79.0,127.0,127.0,127.0,-114.0,-84.0,118.0
127.0,128.0,127.0,127.0,127.0,127.0,128.0,128.0,-1.0,105.0,-79.0,127.0,127.0,127.0,-114.0,-84.0,118.0
127.0,128.0,126.0,127.0,126.0,127.0,128.0,128.0,-1.0,105.0,-79.0,127.0,127.0,127.0,-114.0,-84.0,118.0
127.0,128.0,126.0,127.0,126.0,126.0,128.0,128.0,-1.0,105.0,-79.0,127.0,127.0,127.0,-114.0,-84.0,118.0
127.0,128.0,126.0,127.0,126.0,126.0,128.0,128.0,-1.0,105.0,-79.0,127.0,127.0,127.0,-114.0,-84.0,118.0
127.0,127.0,127.0,127.0,126.0,127.0,128.0,128.0,-1.0,105.0,-79.0,127.0,127.0,127.0,-114.0,-84.0,118.0
127.0,128.0,127.0,127.0,126.0,128.0,128.0,128.0,-1.0,105.0,-79.0,127.0,127.0,127.0,-114.0,-84.0,118.0
127.0,128.0,127.0,127.0,126.0,128.0,128.0,128.0,-1.0,105.0,-79.0,127.0,127.0,127.0,-114.0,-84.0,118.0
127.0,128.0,127.0,127.0,126.0,127.0,128.0,128.0,-1.0,105.0,-79.0,127.0,127.0,127.0,-114.0,-84.0,118.0
127.0,128.0,127.0,127.0,126.0,127.0,128.0,128.0,-1.0,105.0,-79.0,127.0,127.0,127.0,-114.0,-84.0,118.0
127.0,127.0,127.0,127.0,126.0,127.0,127.0,128.0,-1.0,105.0,-79.0,127.0,127.0,127.0,-114.0,-84.0,118.0
127.0,128.0,127.0,127.0,126.0,127.0,128.0,128.0,-1.0,105.0,-79.0,127.0,127.0,127.0,-114.0,-84.0,118.0
127.0,128.0,127.0,127.0,126.0,127.0,128.0,128.0,-1.0,105.0,-79.0,127.0,127.0,127.0,-114.0,-84.0,118.0
127.0,128.0,127.0,127.0,126.0,127.0,128.0,127.0,-1.0,105.0,-79.0,127.0,127.0,127.0,-114.0,-84.0,118.0
127.0,127.0,127.0,127.0,126.0,127.0,128.0,128.0,-1.0,105.0,-79.0,127.0,127.0,127.0,-114.0,-84.0,118.0
127.0,127.0,126.0,127.0,126.0,127.0,128.0,128.0,-1.0,105.0,-79.0,127.0,127.0,127.0,-114.0,-84.0,118.0
127.0,127.0,126.0,127.0,126.0,127.0,128.0,128.0,-1.0,105.0,-79.0,127.0,127.0,127.0,-114.0,-84.0,118.0
127.0,127.0,126.0,127.0,126.0,127.0,128.0,128.0,-1.0,105.0,-79.0,127.0,127.0,127.0,-114.0,-84.0,118.0
127.0,127.0,127.0,127.0,126.0,127.0,128.0,128.0,-1.0,105.0,-79.0,127.0,127.0,127.0,-114.0,-84.0,118.0
127.0,127.0,127.0,127.0,126.0,127.0,128.0,128.0,-1.0,105.0,-79.0,127.0,127.0,127.0,-114.0,-84.0,118.0
127.0,128.0,126.0,127.0,126.0,127.0,128.0,128.0,-1.0,105.0,-79.0,127.0,127.0,127.0,-114.0,-84.0,118.0
127.0,127.0,126.0,126.0,126.0,126.0,128.0,128.0,-1.0,105.0,-79.0,127.0,127.0,127.0,-114.0,-84.0,118.0
127.0,127.0,126.0,126.0,126.0,126.0,128.0,127.0,-1.0,105.0,-79.0,127.0,127.0,127.0,-114.0,-84.0,118.0
127.0,127.0,126.0,126.0,126.0,126.0,128.0,128.0,-1.0,105.0,-79.0,127.0,127.0,127.0,-114.0,-84.0,118.0
127.0,127.0,126.0,126.0,126.0,127.0,128.0,127.0,-1.0,105.0,-79.0,127.0,127.0,127.0,-114.0,-84.0,118.0
127.0,127.0,127.0,127.0,126.0,128.0,128.0,128.0,-1.0,105.0,-79.0,127.0,127.0,127.0,-114.0,-84.0,118.0
127.0,127.0,127.0,127.0,126.0,128.0,128.0,128.0,-1.0,105.0,-79.0,127.0,127.0,127.0,-114.0,-84.0,118.0
127.0,127.0,127.0,127.0,126.0,128.0,128.0,128.0,-1.0,105.0,-79.0,127.0,127.0,127.0,-114.0,-84.0,118.0
127.0,127.0,127.0,127.0,126.0,128.0,127.0,128.0,-1.0,105.0,-79.0,127.0,127.0,127.0,-114.0,-84.0,118.0
127.0,127.0,127.0,127.0,126.0,127.0,128.0,128.0,-1.0,105.0,-79.0,127.0,127.0,127.0,-114.0,-84.0,118.0
127.0,127.0,127.0,127.0,126.0,127.0,128.0,128.0,-1.0,105.0,-79.0,127.0,127.0,127.0,-114.0,-84.0,118.0
127.0,127.0,127.0,127.0,126.0,127.0,128.0,128.0,-1.0,105.0,-79.0,127.0,127.0,127.0,-114.0,-84.0,118.0
127.0,127.0,127.0,127.0,126.0,127.0,128.0,128.0,-1.0,105.0,-79.0,127.0,127.0,127.0,-114.0,-84.0,118.0
127.0,127.0,127.0,126.0,126.0,127.0,128.0,128.0,-1.0,105.0,-79.0,127.0,127.0,127.0,-114.0,-84.0,118.0
127.0,127.0,127.0,127.0,126.0,128.0,128.0,128.0,-1.0,105.0,-79.0,127.0,127.0,127.0,-114.0,-84.0,118.0
127.0,128.0,127.0,127.0,126.0,127.0,128.0,129.0,-1.0,105.0,-79.0,127.0,127.0,127.0,-114.0,-84.0,118.0
127.0,128.0,127.0,127.0,126.0,127.0,128.0,129.0,-1.0,105.0,-79.0,127.0,127.0,127.0,-114.0,-84.0,118.0
127.0,127.0,127.0,127.0,126.0,127.0,128.0,129.0,-1.0,105.0,-79.0,127.0,127.0,127.0,-114.0,-84.0,118.0
127.0,127.0,127.0,127.0,126.0,127.0,129.0,128.0,-1.0,105.0,-79.0,127.0,127.0,127.0,-114.0,-84.0,118.0
127.0,127.0,127.0,127.0,126.0,127.0,128.0,128.0,-1.0,105.0,-79.0,127.0,127.0,127.0,-114.0,-84.0,118.0
127.0,127.0,127.0,127.0,126.0,127.0,129.0,128.0,-1.0,105.0,-79.0,127.0,127.0,127.0,-114.0,-84.0,118.0
127.0,127.0,127.0,127.0,126.0,127.0,129.0,128.0,-1.0,105.0,-79.0,127.0,127.0,127.0,-114.0,-84.0,118.0
127.0,127.0,127.0,127.0,126.0,127.0,128.0,128.0,-1.0,105.0,-79.0,127.0,127.0,127.0,-114.0,-84.0,118.0
127.0,128.0,127.0,127.0,126.0,127.0,128.0,128.0,-1.0,105.0,-79.0,127.0,127.0,127.0,-114.0,-84.0,118.0
127.0,128.0,127.0,127.0,126.0,128.0,128.0,129.0,-1.0,105.0,-79.0,127.0,127.0,127.0,-114.0,-84.0,118.0
127.0,127.0,127.0,127.0,126.0,127.0,128.0,128.0,-1.0,105.0,-79.0,127.0,127.0,127.0,-114.0,-84.0,118.0
127.0,127.0,127.0,127.0,126.0,127.0,128.0,128.0,-1.0,105.0,-79.0,127.0,127.0,127.0,-114.0,-84.0,118.0
127.0,127.0,127.0,126.0,126.0,126.0,128.0,128.0,-1.0,105.0,-79.0,127.0,127.0,127.0,-114.0,-84.0,118.0
127.0,127.0,127.0,127.0,126.0,126.0,128.0,128.0,-1.0,105.0,-79.0,127.0,127.0,127.0,-114.0,-84.0,118.0
127.0,127.0,127.0,127.0,126.0,126.0,128.0,128.0,-1.0,105.0,-79.0,127.0,127.0,127.0,-114.0,-84.0,118.0
127.0,127.0,127.0,127.0,126.0,126.0,128.0,128.0,-1.0,105.0,-79.0,127.0,127.0,127.0,-114.0,-84.0,118.0
127.0,127.0,127.0,127.0,126.0,126.0,128.0,128.0,-1.0,105.0,-79.0,127.0,127.0,127.0,-114.0,-84.0,118.0
127.0,127.0,127.0,127.0,126.0,126.0,128.0,128.0,-1.0,105.0,-79.0,127.0,127.0,127.0,-114.0,-84.0,118.0
127.0,127.0,127.0,127.0,126.0,126.0,128.0,128.0,-1.0,105.0,-79.0,127.0,127.0,127.0,-114.0,-84.0,118.0
127.0,127.0,127.0,127.0,126.0,127.0,128.0,128.0,-1.0,105.0,-79.0,127.0,127.0,127.0,-114.0,-84.0,118.0
127.0,127.0,127.0,127.0,126.0,127.0,128.0,128.0,-1.0,105.0,-79.0,127.0,127.0,127.0,-114.0,-84.0,118.0
127.0,127.0,127.0,127.0,126.0,127.0,128.0,128.0,-1.0,105.0,-79.0,127.0,127.0,127.0,-114.0,-84.0,118.0
127.0,127.0,127.0,127.0,126.0,127.0,128.0,128.0,-1.0,105.0,-79.0,127.0,127.0,127.0,-114.0,-84.0,118.0
127.0,128.0,127.0,127.0,126.0,128.0,128.0,128.0,-1.0,105.0,-79.0,127.0,127.0,127.0,-114.0,-84.0,118.0
127.0,128.0,127.0,127.0,126.0,128.0,128.0,128.0,-1.0,105.0,-79.0,127.0,127.0,127.0,-114.0,-84.0,118.0
127.0,128.0,127.0,127.0,126.0,128.0,128.0,128.0,-1.0,105.0,-79.0,127.0,127.0,127.0,-114.0,-84.0,118.0
127.0,128.0,127.0,127.0,126.0,127.0,128.0,128.0,-1.0,105.0,-79.0,127.0,127.0,127.0,-114.0,-84.0,118.0
127.0,128.0,127.0,127.0,126.0,127.0,128.0,128.0,-1.0,105.0,-79.0,127.0,127.0,127.0,-114.0,-84.0,118.0
127.0,127.0,127.0,127.0,126.0,127.0,128.0,128.0,-1.0,105.0,-79.0,127.0,127.0,127.0,-114.0,-84.0,118.0
127.0,127.0,127.0,127.0,126.0,127.0,128.0,128.0,-1.0,105.0,-79.0,127.0,127.0,127.0,-114.0,-84.0,118.0
