emg1,emg2,emg3,emg4,emg5,emg6,emg7,emg8,acc_x,acc_y,acc_z,gyro_x,gyro_y,gyro_z,angle_pitch,angle_roll,angle_yaw
127.0,128.0,127.0,127.0,127.0,127.0,129.0,129.0,22.0,-104.0,-76.0,127.0,127.0,127.0,112.0,86.0,-94.0
127.0,128.0,127.0,127.0,127.0,127.0,129.0,129.0,22.0,-104.0,-76.0,127.0,127.0,127.0,112.0,86.0,-94.0
127.0,128.0,127.0,127.0,127.0,127.0,129.0,129.0,22.0,-104.0,-76.0,127.0,127.0,127.0,112.0,86.0,-94.0
127.0,128.0,127.0,127.0,127.0,126.0,129.0,129.0,22.0,-104.0,-76.0,127.0,127.0,127.0,112.0,86.0,-94.0
127.0,128.0,127.0,127.0,127.0,126.0,129.0,129.0,22.0,-104.0,-76.0,127.0,127.0,127.0,112.0,86.0,-94.0
127.0,128.0,127.0,127.0,127.0,127.0,129.0,129.0,22.0,-104.0,-76.0,127.0,127.0,127.0,112.0,86.0,-94.0
127.0,128.0,126.0,127.0,127.0,128.0,128.0,129.0,22.0,-104.0,-76.0,127.0,127.0,127.0,112.0,86.0,-94.0
127.0,128.0,126.0,127.0,127.0,128.0,128.0,129.0,22.0,-104.0,-76.0,127.0,127.0,127.0,112.0,86.0,-94.0
127.0,128.0,126.0,127.0,127.0,128.0,128.0,129.0,22.0,-104.0,-76.0,127.0,127.0,127.0,112.0,86.0,-94.0
126.0,127.0,127.0,127.0,127.0,128.0,127.0,128.0,22.0,-104.0,-76.0,127.0,127.0,127.0,112.0,86.0,-94.0
126.0,127.0,127.0,127.0,127.0,128.0,127.0,128.0,22.0,-104.0,-76.0,127.0,127.0,127.0,112.0,86.0,-94.0
126.0,127.0,127.0,127.0,127.0,127.0,128.0,128.0,22.0,-104.0,-76.0,127.0,127.0,127.0,112.0,86.0,-94.0
126.0,127.0,127.0,127.0,126.0,127.0,128.0,128.0,22.0,-104.0,-76.0,127.0,127.0,127.0,112.0,86.0,-94.0
126.0,127.0,127.0,127.0,126.0,127.0,127.0,128.0,22.0,-104.0,-76.0,127.0,127.0,127.0,112.0,86.0,-94.0
126.0,127.0,127.0,127.0,126.0,127.0,127.0,128.0,22.0,-104.0,-76.0,127.0,127.0,127.0,112.0,86.0,-94.0
126.0,127.0,127.0,127.0,127.0,128.0,127.0,128.0,22.0,-104.0,-76.0,127.0,127.0,127.0,112.0,86.0,-94.0
126.0,127.0,128.0,127.0,126.0,128.0,127.0,128.0,22.0,-104.0,-76.0,127.0,127.0,127.0,112.0,86.0,-94.0
126.0,127.0,128.0,127.0,127.0,128.0,127.0,128.0,22.0,-104.0,-76.0,127.0,127.0,127.0,112.0,86.0,-94.0
126.0,127.0,127.0,127.0,126.0,127.0,127.0,128.0,22.0,-104.0,-76.0,127.0,127.0,127.0,112.0,86.0,-94.0
126.0,127.0,126.0,127.0,127.0,127.0,126.0,128.0,22.0,-104.0,-76.0,127.0,127.0,127.0,112.0,86.0,-94.0
126.0,127.0,126.0,127.0,127.0,127.0,126.0,128.0,22.0,-104.0,-76.0,127.0,127.0,127.0,112.0,86.0,-94.0
127.0,128.0,126.0,127.0,127.0,128.0,126.0,128.0,22.0,-104.0,-76.0,127.0,127.0,127.0,112.0,86.0,-94.0
127.0,128.0,126.0,127.0,127.0,128.0,126.0,128.0,22.0,-104.0,-76.0,127.0,127.0,127.0,112.0,86.0,-94.0
127.0,128.0,126.0,127.0,127.0,128.0,126.0,128.0,22.0,-104.0,-76.0,127.0,127.0,127.0,112.0,86.0,-94.0
126.0,127.0,127.0,126.0,127.0,127.0,126.0,128.0,22.0,-104.0,-76.0,127.0,127.0,127.0,112.0,86.0,-94.0
126.0,127.0,127.0,126.0,127.0,128.0,126.0,128.0,22.0,-104.0,-76.0,127.0,127.0,127.0,112.0,86.0,-94.0
126.0,127.0,127.0,126.0,127.0,128.0,126.0,128.0,22.0,-104.0,-76.0,127.0,127.0,127.0,112.0,86.0,-94.0
126.0,127.0,127.0,126.0,127.0,127.0,126.0,128.0,22.0,-104.0,-76.0,127.0,127.0,127.0,112.0,86.0,-94.0
126.0,127.0,126.0,126.0,127.0,127.0,127.0,128.0,22.0,-104.0,-76.0,127.0,127.0,127.0,112.0,86.0,-94.0
126.0,127.0,127.0,126.0,127.0,128.0,125.0,127.0,22.0,-104.0,-77.0,127.0,127.0,127.0,112.0,86.0,-94.0
126.0,127.0,127.0,126.0,127.0,128.0,125.0,127.0,22.0,-104.0,-77.0,127.0,127.0,127.0,112.0,86.0,-94.0
127.0,127.0,127.0,126.0,126.0,128.0,125.0,127.0,22.0,-104.0,-77.0,127.0,127.0,127.0,112.0,86.0,-94.0
126.0,127.0,127.0,126.0,126.0,128.0,125.0,127.0,22.0,-104.0,-77.0,127.0,127.0,127.0,112.0,86.0,-94.0
126.0,126.0,127.0,126.0,126.0,128.0,125.0,127.0,22.0,-104.0,-77.0,127.0,127.0,127.0,112.0,86.0,-94.0
126.0,126.0,127.0,126.0,126.0,127.0,125.0,127.0,22.0,-104.0,-77.0,127.0,127.0,127.0,112.0,86.0,-94.0
126.0,126.0,127.0,126.0,126.0,127.0,125.0,127.0,22.0,-104.0,-77.0,127.0,127.0,127.0,112.0,86.0,-94.0
126.0,126.0,127.0,126.0,126.0,127.0,125.0,127.0,22.0,-104.0,-77.0,127.0,127.0,127.0,112.0,86.0,-94.0
126.0,127.0,127.0,126.0,126.0,128.0,125.0,127.0,22.0,-104.0,-77.0,127.0,127.0,127.0,112.0,86.0,-94.0
126.0,127.0,127.0,126.0,126.0,128.0,125.0,127.0,22.0,-104.0,-77.0,127.0,127.0,127.0,112.0,86.0,-94.0
125.0,126.0,127.0,126.0,127.0,128.0,125.0,127.0,22.0,-104.0,-77.0,127.0,127.0,127.0,112.0,86.0,-94.0
125.0,126.0,127.0,127.0,127.0,128.0,125.0,127.0,22.0,-104.0,-77.0,127.0,127.0,127.0,112.0,86.0,-94.0
125.0,126.0,127.0,127.0,127.0,128.0,125.0,127.0,22.0,-104.0,-77.0,127.0,127.0,127.0,112.0,86.0,-94.0
125.0,125.0,128.0,126.0,127.0,127.0,125.0,127.0,22.0,-104.0,-77.0,127.0,127.0,127.0,112.0,86.0,-94.0
125.0,126.0,128.0,126.0,127.0,127.0,125.0,127.0,22.0,-104.0,-77.0,127.0,127.0,127.0,112.0,86.0,-94.0
125.0,126.0,128.0,126.0,127.0,128.0,125.0,127.0,22.0,-104.0,-77.0,127.0,127.0,127.0,112.0,86.0,-94.0
125.0,126.0,128.0,126.0,127.0,127.0,125.0,127.0,22.0,-104.0,-77.0,127.0,127.0,127.0,112.0,86.0,-94.0
125.0,126.0,128.0,126.0,127.0,127.0,125.0,127.0,22.0,-104.0,-77.0,127.0,127.0,127.0,112.0,86.0,-94.0
125.0,126.0,128.0,126.0,127.0,127.0,125.0,127.0,22.0,-104.0,-77.0,127.0,127.0,127.0,112.0,86.0,-94.0
125.0,126.0,128.0,127.0,127.0,127.0,125.0,127.0,22.0,-104.0,-77.0,127.0,127.0,127.0,112.0,86.0,-94.0
125.0,125.0,127.0,126.0,126.0,127.0,125.0,127.0,22.0,-104.0,-77.0,127.0,127.0,127.0,112.0,86.0,-94.0
125.0,125.0,127.0,126.0,126.0,127.0,125.0,127.0,22.0,-104.0,-77.0,127.0,127.0,127.0,112.0,86.0,-94.0
124.0,125.0,127.0,126.0,127.0,128.0,124.0,127.0,22.0,-104.0,-77.0,127.0,127.0,127.0,112.0,86.0,-94.0
124.0,125.0,127.0,126.0,127.0,128.0,124.0,127.0,22.0,-104.0,-77.0,127.0,127.0,127.0,112.0,86.0,-94.0
124.0,125.0,127.0,126.0,127.0,128.0,124.0,127.0,22.0,-104.0,-77.0,127.0,127.0,127.0,112.0,86.0,-94.0
124.0,125.0,127.0,126.0,127.0,128.0,124.0,127.0,22.0,-104.0,-77.0,127.0,127.0,127.0,112.0,86.0,-94.0
124.0,125.0,127.0,126.0,126.0,128.0,125.0,127.0,22.0,-104.0,-77.0,127.0,127.0,127.0,112.0,86.0,-94.0
124.0,125.0,127.0,126.0,126.0,127.0,125.0,127.0,22.0,-104.0,-77.0,127.0,127.0,127.0,112.0,86.0,-94.0
124.0,125.0,127.0,126.0,126.0,127.0,125.0,127.0,22.0,-104.0,-77.0,127.0,127.0,127.0,112.0,86.0,-94.0
124.0,125.0,127.0,126.0,126.0,127.0,125.0,127.0,22.0,-104.0,-77.0,127.0,127.0,127.0,112.0,86.0,-94.0
126.0,127.0,126.0,127.0,127.0,127.0,126.0,128.0,22.0,-104.0,-78.0,127.0,127.0,127.0,112.0,86.0,-94.0
125.0,126.0,127.0,126.0,127.0,128.0,126.0,128.0,22.0,-104.0,-78.0,127.0,127.0,127.0,112.0,86.0,-94.0
125.0,126.0,127.0,126.0,127.0,128.0,126.0,128.0,22.0,-104.0,-78.0,127.0,127.0,127.0,112.0,86.0,-94.0
125.0,126.0,127.0,127.0,127.0,127.0,126.0,128.0,22.0,-104.0,-78.0,127.0,127.0,127.0,112.0,86.0,-94.0
125.0,126.0,126.0,127.0,127.0,127.0,126.0,128.0,22.0,-104.0,-78.0,127.0,127.0,127.0,112.0,86.0,-94.0
125.0,126.0,126.0,127.0,127.0,128.0,126.0,128.0,22.0,-104.0,-78.0,127.0,127.0,127.0,112.0,86.0,-94.0
126.0,127.0,126.0,127.0,127.0,128.0,126.0,128.0,22.0,-104.0,-78.0,127.0,127.0,127.0,112.0,86.0,-94.0
126.0,127.0,126.0,127.0,127.0,128.0,126.0,128.0,22.0,-104.0,-78.0,127.0,127.0,127.0,112.0,86.0,-94.0
126.0,127.0,126.0,127.0,127.0,128.0,126.0,128.0,22.0,-104.0,-78.0,127.0,127.0,127.0,112.0,86.0,-94.0
126.0,127.0,126.0,127.0,127.0,127.0,126.0,128.0,22.0,-104.0,-78.0,127.0,127.0,127.0,112.0,86.0,-94.0
126.0,127.0,126.0,127.0,127.0,127.0,127.0,128.0,22.0,-104.0,-78.0,127.0,127.0,127.0,112.0,86.0,-94.0
126.0,128.0,126.0,127.0,127.0,128.0,127.0,128.0,22.0,-104.0,-78.0,127.0,127.0,127.0,112.0,86.0,-94.0
127.0,128.0,126.0,127.0,127.0,128.0,127.0,128.0,22.0,-104.0,-78.0,127.0,127.0,127.0,112.0,86.0,-94.0
127.0,128.0,126.0,127.0,127.0,128.0,127.0,128.0,22.0,-104.0,-78.0,127.0,127.0,127.0,112.0,86.0,-94.0
127.0,128.0,125.0,127.0,127.0,128.0,127.0,128.0,22.0,-104.0,-78.0,127.0,127.0,127.0,112.0,86.0,-94.0
127.0,128.0,125.0,127.0,127.0,128.0,127.0,128.0,22.0,-104.0,-78.0,127.0,127.0,127.0,112.0,86.0,-94.0
127.0,128.0,125.0,127.0,127.0,128.0,127.0,128.0,22.0,-104.0,-78.0,127.0,127.0,127.0,112.0,86.0,-94.0
127.0,128.0,125.0,127.0,127.0,128.0,127.0,128.0,22.0,-104.0,-78.0,127.0,127.0,127.0,112.0,86.0,-94.0
127.0,129.0,125.0,127.0,127.0,128.0,127.0,128.0,22.0,-104.0,-78.0,127.0,127.0,127.0,112.0,86.0,-94.0
127.0,129.0,125.0,127.0,127.0,128.0,127.0,128.0,22.0,-104.0,-78.0,127.0,127.0,127.0,112.0,86.0,-94.0
125.0,126.0,127.0,127.0,127.0,125.0,127.0,128.0,22.0,-105.0,-77.0,127.0,127.0,127.0,112.0,86.0,-94.0
125.0,126.0,127.0,127.0,127.0,125.0,127.0,128.0,22.0,-105.0,-77.0,127.0,127.0,127.0,112.0,86.0,-94.0
125.0,126.0,127.0,127.0,127.0,125.0,127.0,128.0,22.0,-105.0,-77.0,127.0,127.0,127.0,112.0,86.0,-94.0
125.0,126.0,127.0,127.0,127.0,125.0,127.0,128.0,22.0,-105.0,-77.0,127.0,127.0,127.0,112.0,86.0,-94.0
125.0,126.0,127.0,127.0,127.0,125.0,127.0,128.0,22.0,-105.0,-77.0,127.0,127.0,127.0,112.0,86.0,-94.0
125.0,126.0,127.0,127.0,127.0,125.0,127.0,128.0,22.0,-105.0,-77.0,127.0,127.0,127.0,112.0,86.0,-94.0
126.0,126.0,126.0,127.0,127.0,125.0,127.0,128.0,22.0,-105.0,-77.0,127.0,127.0,127.0,112.0,86.0,-94.0
126.0,127.0,126.0,127.0,127.0,126.0,127.0,128.0,22.0,-105.0,-77.0,127.0,127.0,127.0,112.0,86.0,-94.0
126.0,127.0,126.0,127.0,127.0,126.0,127.0,128.0,22.0,-105.0,-77.0,127.0,127.0,127.0,112.0,86.0,-94.0
125.0,126.0,127.0,127.0,127.0,125.0,127.0,128.0,22.0,-105.0,-77.0,127.0,127.0,127.0,112.0,86.0,-94.0
126.0,126.0,127.0,127.0,127.0,127.0,126.0,127.0,22.0,-105.0,-77.0,127.0,127.0,127.0,112.0,86.0,-94.0
126.0,126.0,127.0,127.0,127.0,127.0,126.0,127.0,22.0,-105.0,-77.0,127.0,127.0,127.0,112.0,86.0,-94.0
126.0,126.0,127.0,127.0,127.0,126.0,126.0,127.0,22.0,-105.0,-77.0,127.0,127.0,127.0,112.0,86.0,-94.0
126.0,126.0,127.0,127.0,127.0,126.0,126.0,128.0,22.0,-105.0,-77.0,127.0,127.0,127.0,112.0,86.0,-94.0
126.0,126.0,127.0,127.0,127.0,126.0,126.0,127.0,22.0,-105.0,-77.0,127.0,127.0,127.0,112.0,86.0,-94.0
126.0,126.0,127.0,127.0,127.0,126.0,126.0,128.0,22.0,-105.0,-77.0,127.0,127.0,127.0,112.0,86.0,-94.0
126.0,126.0,127.0,127.0,127.0,126.0,126.0,127.0,22.0,-105.0,-77.0,127.0,127.0,127.0,112.0,86.0,-94.0
126.0,126.0,127.0,127.0,127.0,126.0,126.0,127.0,22.0,-105.0,-77.0,127.0,127.0,127.0,112.0,86.0,-94.0
125.0,125.0,127.0,127.0,127.0,126.0,126.0,127.0,22.0,-105.0,-77.0,127.0,127.0,127.0,112.0,86.0,-94.0
125.0,126.0,127.0,126.0,126.0,126.0,126.0,127.0,22.0,-105.0,-77.0,127.0,127.0,127.0,112.0,86.0,-94.0
126.0,127.0,126.0,127.0,127.0,127.0,126.0,127.0,22.0,-105.0,-77.0,127.0,127.0,127.0,112.0,86.0,-94.0
126.0,127.0,126.0,127.0,127.0,127.0,126.0,127.0,22.0,-105.0,-77.0,127.0,127.0,127.0,112.0,86.0,-94.0
126.0,127.0,126.0,127.0,127.0,128.0,126.0,127.0,22.0,-105.0,-77.0,127.0,127.0,127.0,112.0,86.0,-94.0
126.0,127.0,126.0,127.0,127.0,128.0,126.0,128.0,22.0,-105.0,-77.0,127.0,127.0,127.0,112.0,86.0,-94.0
126.0,127.0,126.0,127.0,127.0,127.0,126.0,128.0,22.0,-105.0,-77.0,127.0,127.0,127.0,112.0,86.0,-94.0
126.0,127.0,126.0,127.0,127.0,127.0,126.0,128.0,22.0,-105.0,-77.0,127.0,127.0,127.0,112.0,86.0,-94.0
126.0,127.0,126.0,127.0,127.0,127.0,126.0,128.0,22.0,-105.0,-77.0,127.0,127.0,127.0,112.0,86.0,-94.0
125.0,126.0,127.0,127.0,127.0,127.0,126.0,127.0,22.0,-105.0,-77.0,127.0,127.0,127.0,112.0,86.0,-94.0
125.0,126.0,127.0,127.0,127.0,127.0,126.0,127.0,22.0,-105.0,-77.0,127.0,127.0,127.0,112.0,86.0,-94.0
126.0,127.0,127.0,127.0,127.0,127.0,126.0,127.0,22.0,-105.0,-77.0,127.0,127.0,127.0,112.0,86.0,-94.0
125.0,125.0,127.0,126.0,127.0,128.0,124.0,127.0,22.0,-105.0,-77.0,127.0,127.0,127.0,112.0,86.0,-94.0
125.0,126.0,127.0,126.0,127.0,128.0,124.0,127.0,22.0,-105.0,-77.0,127.0,127.0,127.0,112.0,86.0,-94.0
125.0,126.0,127.0,127.0,127.0,128.0,124.0,127.0,22.0,-105.0,-77.0,127.0,127.0,127.0,112.0,86.0,-94.0
125.0,126.0,127.0,127.0,127.0,128.0,124.0,127.0,22.0,-105.0,-77.0,127.0,127.0,127.0,112.0,86.0,-94.0
126.0,126.0,127.0,127.0,127.0,129.0,124.0,127.0,22.0,-105.0,-77.0,127.0,127.0,127.0,112.0,86.0,-94.0
126.0,126.0,126.0,127.0,127.0,129.0,124.0,127.0,22.0,-105.0,-77.0,127.0,127.0,127.0,112.0,86.0,-94.0
125.0,125.0,127.0,126.0,127.0,128.0,125.0,127.0,22.0,-105.0,-77.0,127.0,127.0,127.0,112.0,86.0,-94.0
125.0,125.0,127.0,126.0,127.0,128.0,125.0,127.0,22.0,-105.0,-77.0,127.0,127.0,127.0,112.0,86.0,-94.0
125.0,125.0,127.0,126.0,127.0,128.0,125.0,127.0,22.0,-105.0,-77.0,127.0,127.0,127.0,112.0,86.0,-94.0
125.0,125.0,127.0,126.0,127.0,128.0,125.0,127.0,22.0,-105.0,-77.0,127.0,127.0,127.0,112.0,86.0,-94.0
125.0,125.0,127.0,127.0,127.0,129.0,124.0,127.0,23.0,-105.0,-77.0,127.0,127.0,127.0,112.0,86.0,-94.0
125.0,125.0,127.0,127.0,127.0,129.0,124.0,127.0,23.0,-105.0,-77.0,127.0,127.0,127.0,112.0,86.0,-94.0
125.0,125.0,127.0,127.0,127.0,129.0,124.0,127.0,23.0,-105.0,-77.0,127.0,127.0,127.0,112.0,86.0,-94.0
125.0,126.0,127.0,127.0,127.0,129.0,124.0,127.0,23.0,-105.0,-77.0,127.0,127.0,127.0,112.0,86.0,-94.0
125.0,126.0,127.0,127.0,127.0,129.0,124.0,127.0,23.0,-105.0,-77.0,127.0,127.0,127.0,112.0,86.0,-94.0
125.0,124.0,127.0,127.0,127.0,129.0,124.0,127.0,23.0,-105.0,-77.0,127.0,127.0,127.0,112.0,86.0,-94.0
125.0,124.0,127.0,127.0,127.0,128.0,124.0,127.0,23.0,-105.0,-77.0,127.0,127.0,127.0,112.0,86.0,-94.0
125.0,125.0,127.0,127.0,127.0,129.0,124.0,127.0,23.0,-105.0,-77.0,127.0,127.0,127.0,112.0,86.0,-94.0
125.0,125.0,127.0,127.0,127.0,129.0,124.0,127.0,23.0,-105.0,-77.0,127.0,127.0,127.0,112.0,86.0,-94.0
125.0,125.0,127.0,127.0,127.0,129.0,124.0,127.0,23.0,-105.0,-77.0,127.0,127.0,127.0,112.0,86.0,-94.0
124.0,125.0,127.0,126.0,126.0,128.0,123.0,127.0,24.0,-104.0,-77.0,127.0,127.0,127.0,112.0,86.0,-94.0
124.0,125.0,127.0,126.0,127.0,128.0,123.0,127.0,24.0,-104.0,-77.0,127.0,127.0,127.0,112.0,86.0,-94.0
125.0,125.0,127.0,126.0,127.0,129.0,123.0,127.0,24.0,-104.0,-77.0,127.0,127.0,127.0,112.0,86.0,-94.0
125.0,125.0,126.0,126.0,127.0,129.0,123.0,127.0,24.0,-104.0,-77.0,127.0,127.0,127.0,112.0,86.0,-94.0
124.0,123.0,128.0,126.0,126.0,128.0,123.0,127.0,24.0,-104.0,-77.0,127.0,127.0,127.0,112.0,86.0,-94.0
124.0,124.0,127.0,126.0,126.0,128.0,123.0,127.0,24.0,-104.0,-77.0,127.0,127.0,127.0,112.0,86.0,-94.0
124.0,124.0,127.0,127.0,127.0,128.0,123.0,127.0,24.0,-104.0,-77.0,127.0,127.0,127.0,112.0,86.0,-94.0
124.0,124.0,127.0,127.0,127.0,129.0,123.0,127.0,24.0,-104.0,-77.0,127.0,127.0,127.0,112.0,86.0,-94.0
124.0,124.0,127.0,127.0,127.0,129.0,123.0,127.0,24.0,-104.0,-77.0,127.0,127.0,127.0,112.0,86.0,-94.0
124.0,124.0,127.0,126.0,127.0,128.0,123.0,127.0,24.0,-104.0,-77.0,127.0,127.0,127.0,112.0,86.0,-94.0
126.0,127.0,125.0,127.0,127.0,126.0,127.0,129.0,24.0,-104.0,-77.0,127.0,127.0,127.0,112.0,86.0,-94.0
126.0,127.0,125.0,127.0,127.0,126.0,127.0,129.0,24.0,-104.0,-77.0,127.0,127.0,127.0,112.0,86.0,-94.0
126.0,127.0,125.0,127.0,127.0,126.0,128.0,129.0,24.0,-104.0,-77.0,127.0,127.0,127.0,112.0,86.0,-94.0
125.0,126.0,126.0,127.0,127.0,127.0,127.0,128.0,24.0,-104.0,-77.0,127.0,127.0,127.0,112.0,86.0,-94.0
125.0,126.0,125.0,127.0,127.0,127.0,127.0,128.0,24.0,-104.0,-77.0,127.0,127.0,127.0,112.0,86.0,-94.0
126.0,126.0,126.0,127.0,127.0,127.0,127.0,128.0,24.0,-104.0,-77.0,127.0,127.0,127.0,112.0,86.0,-94.0
126.0,126.0,125.0,127.0,127.0,126.0,127.0,129.0,24.0,-104.0,-77.0,127.0,127.0,127.0,112.0,86.0,-94.0
126.0,126.0,125.0,127.0,127.0,127.0,127.0,129.0,24.0,-104.0,-77.0,127.0,127.0,127.0,112.0,86.0,-94.0
126.0,126.0,125.0,127.0,127.0,126.0,127.0,129.0,24.0,-104.0,-77.0,127.0,127.0,127.0,112.0,86.0,-94.0
126.0,127.0,125.0,127.0,127.0,126.0,127.0,129.0,24.0,-104.0,-77.0,127.0,127.0,127.0,112.0,86.0,-94.0
127.0,128.0,125.0,127.0,127.0,128.0,129.0,129.0,25.0,-104.0,-77.0,127.0,127.0,127.0,112.0,86.0,-94.0
126.0,128.0,126.0,127.0,127.0,127.0,129.0,129.0,25.0,-104.0,-77.0,127.0,127.0,127.0,112.0,86.0,-94.0
126.0,128.0,126.0,127.0,127.0,127.0,129.0,129.0,25.0,-104.0,-77.0,127.0,127.0,127.0,112.0,86.0,-94.0
127.0,128.0,126.0,127.0,127.0,127.0,129.0,129.0,25.0,-104.0,-77.0,127.0,127.0,127.0,112.0,86.0,-94.0
127.0,128.0,125.0,127.0,127.0,128.0,129.0,129.0,25.0,-104.0,-77.0,127.0,127.0,127.0,112.0,86.0,-94.0
127.0,128.0,125.0,127.0,127.0,128.0,129.0,129.0,25.0,-104.0,-77.0,127.0,127.0,127.0,112.0,86.0,-94.0
127.0,128.0,125.0,127.0,127.0,128.0,129.0,129.0,25.0,-104.0,-77.0,127.0,127.0,127.0,112.0,86.0,-94.0
127.0,128.0,125.0,127.0,127.0,128.0,129.0,129.0,25.0,-104.0,-77.0,127.0,127.0,127.0,112.0,86.0,-94.0
127.0,128.0,125.0,127.0,127.0,128.0,129.0,129.0,25.0,-104.0,-77.0,127.0,127.0,127.0,112.0,86.0,-94.0
127.0,128.0,125.0,127.0,127.0,128.0,129.0,129.0,25.0,-104.0,-77.0,127.0,127.0,127.0,112.0,86.0,-94.0
126.0,127.0,126.0,126.0,126.0,130.0,127.0,128.0,24.0,-104.0,-77.0,127.0,127.0,127.0,112.0,86.0,-94.0
126.0,127.0,126.0,127.0,126.0,130.0,127.0,128.0,24.0,-104.0,-77.0,127.0,127.0,127.0,112.0,86.0,-94.0
126.0,127.0,126.0,127.0,126.0,130.0,127.0,128.0,24.0,-104.0,-77.0,127.0,127.0,127.0,112.0,86.0,-94.0
126.0,128.0,126.0,127.0,126.0,130.0,127.0,128.0,24.0,-104.0,-77.0,127.0,127.0,127.0,112.0,86.0,-94.0
126.0,128.0,126.0,127.0,127.0,130.0,127.0,128.0,24.0,-104.0,-77.0,127.0,127.0,127.0,112.0,86.0,-94.0
126.0,128.0,126.0,127.0,127.0,130.0,127.0,128.0,24.0,-104.0,-77.0,127.0,127.0,127.0,112.0,86.0,-94.0
126.0,127.0,126.0,127.0,127.0,129.0,127.0,128.0,24.0,-104.0,-77.0,127.0,127.0,127.0,112.0,86.0,-94.0
126.0,127.0,127.0,127.0,127.0,129.0,128.0,128.0,24.0,-104.0,-77.0,127.0,127.0,127.0,112.0,86.0,-94.0
126.0,127.0,127.0,127.0,127.0,128.0,128.0,128.0,24.0,-104.0,-77.0,127.0,127.0,127.0,112.0,86.0,-94.0
126.0,127.0,127.0,127.0,127.0,128.0,128.0,128.0,24.0,-104.0,-77.0,127.0,127.0,127.0,112.0,86.0,-94.0
126.0,127.0,127.0,127.0,127.0,127.0,129.0,128.0,24.0,-104.0,-77.0,127.0,127.0,127.0,112.0,86.0,-94.0
126.0,127.0,127.0,127.0,127.0,127.0,129.0,128.0,24.0,-104.0,-77.0,127.0,127.0,127.0,112.0,86.0,-94.0
126.0,127.0,127.0,127.0,127.0,127.0,128.0,128.0,24.0,-104.0,-77.0,127.0,127.0,127.0,112.0,86.0,-94.0
126.0,128.0,127.0,127.0,127.0,128.0,129.0,128.0,24.0,-104.0,-77.0,127.0,127.0,127.0,112.0,86.0,-94.0
126.0,128.0,127.0,127.0,127.0,128.0,129.0,128.0,24.0,-104.0,-77.0,127.0,127.0,127.0,112.0,86.0,-94.0
126.0,128.0,126.0,127.0,127.0,127.0,129.0,128.0,24.0,-104.0,-77.0,127.0,127.0,127.0,112.0,86.0,-94.0
127.0,128.0,126.0,127.0,127.0,128.0,129.0,128.0,24.0,-104.0,-77.0,127.0,127.0,127.0,112.0,86.0,-94.0
127.0,128.0,126.0,127.0,127.0,128.0,129.0,128.0,24.0,-104.0,-77.0,127.0,127.0,127.0,112.0,86.0,-94.0
127.0,128.0,126.0,127.0,127.0,127.0,129.0,128.0,24.0,-104.0,-77.0,127.0,127.0,127.0,112.0,86.0,-94.0
126.0,127.0,127.0,127.0,126.0,127.0,128.0,128.0,24.0,-104.0,-77.0,127.0,127.0,127.0,112.0,86.0,-94.0
127.0,129.0,125.0,127.0,127.0,128.0,129.0,128.0,23.0,-104.0,-76.0,127.0,127.0,127.0,112.0,86.0,-94.0
127.0,129.0,125.0,127.0,127.0,128.0,129.0,128.0,23.0,-104.0,-76.0,127.0,127.0,127.0,112.0,86.0,-94.0
127.0,129.0,125.0,127.0,127.0,127.0,129.0,129.0,23.0,-104.0,-76.0,127.0,127.0,127.0,112.0,86.0,-94.0
127.0,129.0,125.0,127.0,127.0,127.0,129.0,129.0,23.0,-104.0,-76.0,127.0,127.0,127.0,112.0,86.0,-94.0
127.0,129.0,125.0,127.0,127.0,127.0,129.0,129.0,23.0,-104.0,-76.0,127.0,127.0,127.0,112.0,86.0,-94.0
127.0,129.0,125.0,127.0,127.0,127.0,129.0,129.0,23.0,-104.0,-76.0,127.0,127.0,127.0,112.0,86.0,-94.0
127.0,129.0,125.0,127.0,127.0,127.0,129.0,129.0,23.0,-104.0,-76.0,127.0,127.0,127.0,112.0,86.0,-94.0
127.0,129.0,125.0,127.0,127.0,126.0,129.0,129.0,23.0,-104.0,-76.0,127.0,127.0,127.0,112.0,86.0,-94.0
127.0,129.0,125.0,127.0,127.0,128.0,129.0,128.0,23.0,-104.0,-76.0,127.0,127.0,127.0,112.0,86.0,-94.0
127.0,129.0,125.0,127.0,127.0,128.0,129.0,128.0,23.0,-104.0,-76.0,127.0,127.0,127.0,112.0,86.0,-94.0
127.0,129.0,126.0,127.0,127.0,127.0,129.0,129.0,22.0,-104.0,-76.0,127.0,127.0,127.0,112.0,86.0,-94.0
127.0,129.0,126.0,127.0,127.0,127.0,129.0,129.0,22.0,-104.0,-76.0,127.0,127.0,127.0,112.0,86.0,-94.0
127.0,129.0,126.0,127.0,127.0,127.0,129.0,129.0,22.0,-104.0,-76.0,127.0,127.0,127.0,112.0,86.0,-94.0
127.0,129.0,126.0,127.0,127.0,127.0,129.0,129.0,22.0,-104.0,-76.0,127.0,127.0,127.0,112.0,86.0,-94.0
128.0,129.0,125.0,127.0,127.0,127.0,129.0,129.0,22.0,-104.0,-76.0,127.0,127.0,127.0,112.0,86.0,-94.0
128.0,129.0,125.0,127.0,127.0,128.0,129.0,129.0,22.0,-104.0,-76.0,127.0,127.0,127.0,112.0,86.0,-94.0
128.0,129.0,125.0,127.0,127.0,127.0,129.0,129.0,22.0,-104.0,-76.0,127.0,127.0,127.0,112.0,86.0,-94.0
127.0,128.0,126.0,127.0,127.0,127.0,129.0,129.0,22.0,-104.0,-76.0,127.0,127.0,127.0,112.0,86.0,-94.0
127.0,128.0,126.0,127.0,127.0,127.0,129.0,129.0,22.0,-104.0,-76.0,127.0,127.0,127.0,112.0,86.0,-94.0
127.0,129.0,126.0,127.0,127.0,127.0,129.0,129.0,22.0,-104.0,-76.0,127.0,127.0,127.0,112.0,86.0,-94.0
128.0,130.0,125.0,127.0,127.0,129.0,129.0,129.0,22.0,-104.0,-76.0,127.0,127.0,127.0,112.0,86.0,-94.0
128.0,130.0,125.0,127.0,127.0,129.0,129.0,129.0,22.0,-104.0,-76.0,127.0,127.0,127.0,112.0,86.0,-94.0
128.0,130.0,125.0,127.0,127.0,128.0,129.0,129.0,22.0,-104.0,-76.0,127.0,127.0,127.0,112.0,86.0,-94.0
128.0,130.0,125.0,127.0,127.0,128.0,129.0,129.0,22.0,-104.0,-76.0,127.0,127.0,127.0,112.0,86.0,-94.0
128.0,130.0,125.0,127.0,127.0,128.0,129.0,129.0,22.0,-104.0,-76.0,127.0,127.0,127.0,112.0,86.0,-94.0
128.0,130.0,125.0,127.0,127.0,128.0,129.0,129.0,22.0,-104.0,-76.0,127.0,127.0,127.0,112.0,86.0,-94.0
127.0,128.0,126.0,127.0,127.0,128.0,129.0,129.0,22.0,-104.0,-76.0,127.0,127.0,127.0,112.0,86.0,-94.0
127.0,129.0,126.0,127.0,127.0,128.0,129.0,129.0,22.0,-104.0,-76.0,127.0,127.0,127.0,112.0,86.0,-94.0
128.0,129.0,126.0,127.0,127.0,128.0,129.0,129.0,22.0,-104.0,-76.0,127.0,127.0,127.0,112.0,86.0,-94.0
128.0,129.0,126.0,127.0,127.0,128.0,129.0,129.0,22.0,-104.0,-76.0,127.0,127.0,127.0,112.0,86.0,-94.0
128.0,129.0,126.0,128.0,127.0,128.0,128.0,129.0,21.0,-104.0,-76.0,127.0,127.0,127.0,112.0,86.0,-94.0
127.0,129.0,126.0,128.0,127.0,128.0,128.0,129.0,21.0,-104.0,-76.0,127.0,127.0,127.0,112.0,86.0,-94.0
128.0,129.0,126.0,128.0,127.0,129.0,128.0,129.0,21.0,-104.0,-76.0,127.0,127.0,127.0,112.0,86.0,-94.0
128.0,129.0,126.0,128.0,127.0,129.0,128.0,129.0,21.0,-104.0,-76.0,127.0,127.0,127.0,112.0,86.0,-94.0
128.0,129.0,126.0,128.0,127.0,129.0,128.0,129.0,21.0,-104.0,-76.0,127.0,127.0,127.0,112.0,86.0,-94.0
127.0,128.0,126.0,128.0,127.0,128.0,128.0,129.0,21.0,-104.0,-76.0,127.0,127.0,127.0,112.0,86.0,-94.0
127.0,128.0,126.0,128.0,127.0,128.0,128.0,129.0,21.0,-104.0,-76.0,127.0,127.0,127.0,112.0,86.0,-94.0
127.0,128.0,126.0,128.0,127.0,128.0,128.0,129.0,21.0,-104.0,-76.0,127.0,127.0,127.0,112.0,86.0,-94.0
127.0,128.0,126.0,128.0,127.0,128.0,128.0,129.0,21.0,-104.0,-76.0,127.0,127.0,127.0,112.0,86.0,-94.0
127.0,129.0,126.0,128.0,127.0,128.0,128.0,129.0,21.0,-104.0,-76.0,127.0,127.0,127.0,112.0,86.0,-94.0
126.0,127.0,127.0,127.0,127.0,126.0,127.0,129.0,21.0,-104.0,-77.0,127.0,127.0,127.0,112.0,86.0,-94.0
126.0,127.0,127.0,127.0,127.0,126.0,127.0,129.0,21.0,-104.0,-77.0,127.0,127.0,127.0,112.0,86.0,-94.0
126.0,127.0,127.0,127.0,127.0,126.0,127.0,129.0,21.0,-104.0,-77.0,127.0,127.0,127.0,112.0,86.0,-94.0
126.0,127.0,127.0,127.0,127.0,126.0,128.0,129.0,21.0,-104.0,-77.0,127.0,127.0,127.0,112.0,86.0,-94.0
126.0,127.0,127.0,127.0,127.0,126.0,127.0,129.0,21.0,-104.0,-77.0,127.0,127.0,127.0,112.0,86.0,-94.0
126.0,127.0,127.0,127.0,127.0,127.0,127.0,128.0,21.0,-104.0,-77.0,127.0,127.0,127.0,112.0,86.0,-94.0
126.0,127.0,127.0,127.0,127.0,127.0,127.0,129.0,21.0,-104.0,-77.0,127.0,127.0,127.0,112.0,86.0,-94.0
126.0,127.0,127.0,127.0,127.0,127.0,127.0,129.0,21.0,-104.0,-77.0,127.0,127.0,127.0,112.0,86.0,-94.0
126.0,127.0,127.0,127.0,127.0,126.0,127.0,129.0,21.0,-104.0,-77.0,127.0,127.0,127.0,112.0,86.0,-94.0
126.0,127.0,127.0,127.0,127.0,126.0,127.0,129.0,21.0,-104.0,-77.0,127.0,127.0,127.0,112.0,86.0,-94.0
127.0,127.0,118.0,128.0,127.0,128.0,126.0,128.0,21.0,-104.0,-77.0,127.0,127.0,127.0,112.0,86.0,-94.0
127.0,127.0,117.0,128.0,127.0,128.0,127.0,129.0,21.0,-104.0,-77.0,127.0,127.0,127.0,112.0,86.0,-94.0
127.0,127.0,117.0,127.0,127.0,128.0,127.0,129.0,21.0,-104.0,-77.0,127.0,127.0,127.0,112.0,86.0,-94.0
126.0,126.0,121.0,128.0,127.0,127.0,127.0,129.0,21.0,-104.0,-77.0,127.0,127.0,127.0,112.0,86.0,-94.0
126.0,127.0,121.0,129.0,127.0,128.0,127.0,128.0,21.0,-104.0,-77.0,127.0,127.0,127.0,112.0,86.0,-94.0
127.0,127.0,120.0,129.0,127.0,128.0,127.0,129.0,21.0,-104.0,-77.0,127.0,127.0,127.0,112.0,86.0,-94.0
127.0,127.0,120.0,129.0,128.0,128.0,127.0,129.0,21.0,-104.0,-77.0,127.0,127.0,127.0,112.0,86.0,-94.0
127.0,127.0,120.0,129.0,127.0,128.0,127.0,128.0,21.0,-104.0,-77.0,127.0,127.0,127.0,112.0,86.0,-94.0
127.0,127.0,119.0,129.0,127.0,128.0,127.0,129.0,21.0,-104.0,-77.0,127.0,127.0,127.0,112.0,86.0,-94.0
127.0,127.0,118.0,128.0,127.0,128.0,127.0,129.0,21.0,-104.0,-77.0,127.0,127.0,127.0,112.0,86.0,-94.0
126.0,125.0,71.0,123.0,126.0,125.0,126.0,129.0,22.0,-103.0,-77.0,127.0,127.0,127.0,112.0,86.0,-94.0
126.0,125.0,70.0,123.0,126.0,125.0,126.0,129.0,22.0,-103.0,-77.0,127.0,127.0,127.0,112.0,86.0,-94.0
126.0,125.0,83.0,126.0,126.0,126.0,126.0,128.0,22.0,-103.0,-77.0,127.0,127.0,127.0,112.0,86.0,-94.0
126.0,125.0,81.0,126.0,126.0,126.0,126.0,128.0,22.0,-103.0,-77.0,127.0,127.0,127.0,112.0,86.0,-94.0
126.0,125.0,79.0,126.0,126.0,127.0,126.0,128.0,22.0,-103.0,-77.0,127.0,127.0,127.0,112.0,86.0,-94.0
126.0,125.0,78.0,126.0,126.0,126.0,126.0,128.0,22.0,-103.0,-77.0,127.0,127.0,127.0,112.0,86.0,-94.0
126.0,125.0,76.0,125.0,126.0,126.0,126.0,128.0,22.0,-103.0,-77.0,127.0,127.0,127.0,112.0,86.0,-94.0
126.0,125.0,75.0,125.0,126.0,126.0,126.0,128.0,22.0,-103.0,-77.0,127.0,127.0,127.0,112.0,86.0,-94.0
126.0,126.0,73.0,124.0,126.0,126.0,126.0,128.0,22.0,-103.0,-77.0,127.0,127.0,127.0,112.0,86.0,-94.0
126.0,125.0,72.0,124.0,126.0,125.0,126.0,128.0,22.0,-103.0,-77.0,127.0,127.0,127.0,112.0,86.0,-94.0
128.0,127.0,0.0,125.0,126.0,125.0,125.0,129.0,22.0,-103.0,-78.0,127.0,127.0,127.0,112.0,86.0,-94.0
126.0,124.0,20.0,127.0,125.0,125.0,126.0,130.0,22.0,-103.0,-78.0,127.0,127.0,127.0,112.0,86.0,-94.0
126.0,124.0,17.0,127.0,125.0,125.0,126.0,130.0,22.0,-103.0,-78.0,127.0,127.0,127.0,112.0,86.0,-94.0
126.0,124.0,15.0,127.0,125.0,124.0,126.0,130.0,22.0,-103.0,-78.0,127.0,127.0,127.0,112.0,86.0,-94.0
127.0,125.0,12.0,126.0,125.0,124.0,126.0,130.0,22.0,-103.0,-78.0,127.0,127.0,127.0,112.0,86.0,-94.0
127.0,125.0,9.0,127.0,125.0,124.0,126.0,130.0,22.0,-103.0,-78.0,127.0,127.0,127.0,112.0,86.0,-94.0
127.0,125.0,7.0,127.0,125.0,124.0,126.0,130.0,22.0,-103.0,-78.0,127.0,127.0,127.0,112.0,86.0,-94.0
127.0,126.0,4.0,127.0,125.0,124.0,126.0,129.0,22.0,-103.0,-78.0,127.0,127.0,127.0,112.0,86.0,-94.0
127.0,126.0,3.0,127.0,126.0,124.0,125.0,129.0,22.0,-103.0,-78.0,127.0,127.0,127.0,112.0,86.0,-94.0
128.0,127.0,1.0,126.0,126.0,125.0,125.0,129.0,22.0,-103.0,-78.0,127.0,127.0,127.0,112.0,86.0,-94.0
127.0,129.0,0.0,128.0,128.0,121.0,126.0,131.0,22.0,-103.0,-78.0,-128.0,127.0,127.0,112.0,86.0,-94.0
127.0,129.0,0.0,127.0,128.0,121.0,126.0,130.0,22.0,-103.0,-78.0,-128.0,127.0,127.0,112.0,86.0,-94.0
128.0,130.0,0.0,126.0,129.0,121.0,126.0,130.0,22.0,-103.0,-78.0,-128.0,127.0,127.0,112.0,86.0,-94.0
128.0,130.0,0.0,125.0,128.0,121.0,126.0,130.0,22.0,-103.0,-78.0,-128.0,127.0,127.0,112.0,86.0,-94.0
128.0,130.0,0.0,124.0,128.0,121.0,126.0,130.0,22.0,-103.0,-78.0,-128.0,127.0,127.0,112.0,86.0,-94.0
127.0,130.0,0.0,123.0,128.0,121.0,126.0,129.0,22.0,-103.0,-78.0,-128.0,127.0,127.0,112.0,86.0,-94.0
127.0,129.0,0.0,123.0,128.0,120.0,126.0,128.0,22.0,-103.0,-78.0,-128.0,127.0,127.0,112.0,86.0,-94.0
127.0,129.0,0.0,123.0,127.0,120.0,126.0,127.0,22.0,-103.0,-78.0,-128.0,127.0,127.0,112.0,86.0,-94.0
126.0,128.0,0.0,124.0,127.0,119.0,126.0,127.0,22.0,-103.0,-78.0,-128.0,127.0,127.0,112.0,86.0,-94.0
126.0,128.0,0.0,125.0,127.0,119.0,126.0,127.0,22.0,-103.0,-78.0,-128.0,127.0,127.0,112.0,86.0,-94.0
130.0,130.0,0.0,117.0,127.0,120.0,128.0,135.0,21.0,-103.0,-78.0,-128.0,127.0,127.0,112.0,86.0,-94.0
130.0,130.0,0.0,120.0,128.0,121.0,128.0,135.0,21.0,-103.0,-78.0,-128.0,127.0,127.0,112.0,86.0,-94.0
131.0,131.0,0.0,122.0,128.0,121.0,128.0,135.0,21.0,-103.0,-78.0,-128.0,127.0,127.0,112.0,86.0,-94.0
131.0,131.0,0.0,124.0,128.0,120.0,128.0,135.0,21.0,-103.0,-78.0,-128.0,127.0,127.0,112.0,86.0,-94.0
132.0,131.0,0.0,126.0,129.0,121.0,128.0,135.0,21.0,-103.0,-78.0,-128.0,127.0,127.0,112.0,86.0,-94.0
132.0,131.0,0.0,127.0,129.0,121.0,128.0,135.0,21.0,-103.0,-78.0,-128.0,127.0,127.0,112.0,86.0,-94.0
133.0,132.0,0.0,129.0,129.0,120.0,128.0,135.0,21.0,-103.0,-78.0,-128.0,127.0,127.0,112.0,86.0,-94.0
134.0,133.0,0.0,131.0,129.0,121.0,128.0,135.0,21.0,-103.0,-78.0,-128.0,127.0,127.0,112.0,86.0,-94.0
135.0,133.0,0.0,135.0,129.0,121.0,128.0,136.0,21.0,-103.0,-78.0,-128.0,127.0,127.0,112.0,86.0,-94.0
130.0,130.0,0.0,114.0,127.0,120.0,128.0,135.0,21.0,-103.0,-78.0,-128.0,127.0,127.0,112.0,86.0,-94.0
143.0,133.0,0.0,138.0,127.0,117.0,131.0,141.0,21.0,-103.0,-80.0,127.0,127.0,127.0,112.0,86.0,-94.0
143.0,132.0,0.0,136.0,127.0,117.0,131.0,140.0,21.0,-103.0,-80.0,127.0,127.0,127.0,112.0,86.0,-94.0
143.0,132.0,0.0,135.0,127.0,117.0,131.0,139.0,21.0,-103.0,-80.0,127.0,127.0,127.0,112.0,86.0,-94.0
143.0,132.0,0.0,134.0,128.0,117.0,131.0,138.0,21.0,-103.0,-80.0,127.0,127.0,127.0,112.0,86.0,-94.0
143.0,133.0,0.0,133.0,128.0,117.0,131.0,138.0,21.0,-103.0,-80.0,127.0,127.0,127.0,112.0,86.0,-94.0
143.0,134.0,0.0,133.0,129.0,116.0,131.0,138.0,21.0,-103.0,-80.0,127.0,127.0,127.0,112.0,86.0,-94.0
143.0,134.0,0.0,132.0,129.0,116.0,130.0,138.0,21.0,-103.0,-80.0,127.0,127.0,127.0,112.0,86.0,-94.0
143.0,135.0,0.0,132.0,130.0,116.0,130.0,138.0,21.0,-103.0,-80.0,127.0,127.0,127.0,112.0,86.0,-94.0
143.0,133.0,0.0,139.0,127.0,117.0,132.0,144.0,21.0,-103.0,-80.0,127.0,127.0,127.0,112.0,86.0,-94.0
143.0,133.0,0.0,139.0,127.0,117.0,131.0,142.0,21.0,-103.0,-80.0,127.0,127.0,127.0,112.0,86.0,-94.0
157.0,136.0,0.0,132.0,129.0,119.0,130.0,136.0,19.0,-104.0,-80.0,127.0,127.0,127.0,111.0,86.0,-94.0
157.0,136.0,0.0,132.0,129.0,119.0,130.0,136.0,19.0,-104.0,-80.0,127.0,127.0,127.0,111.0,86.0,-94.0
157.0,137.0,0.0,133.0,129.0,119.0,130.0,137.0,19.0,-104.0,-80.0,127.0,127.0,127.0,111.0,86.0,-94.0
157.0,137.0,0.0,132.0,130.0,120.0,130.0,137.0,19.0,-104.0,-80.0,127.0,127.0,127.0,111.0,86.0,-94.0
157.0,136.0,0.0,131.0,129.0,120.0,130.0,138.0,19.0,-104.0,-80.0,127.0,127.0,127.0,111.0,86.0,-94.0
156.0,136.0,0.0,131.0,129.0,120.0,130.0,138.0,19.0,-104.0,-80.0,127.0,127.0,127.0,111.0,86.0,-94.0
156.0,135.0,0.0,130.0,129.0,120.0,129.0,138.0,19.0,-104.0,-80.0,127.0,127.0,127.0,111.0,86.0,-94.0
157.0,135.0,0.0,130.0,128.0,119.0,129.0,135.0,19.0,-104.0,-80.0,127.0,127.0,127.0,111.0,86.0,-94.0
157.0,135.0,0.0,131.0,128.0,118.0,129.0,135.0,19.0,-104.0,-80.0,127.0,127.0,127.0,111.0,86.0,-94.0
157.0,136.0,0.0,132.0,129.0,119.0,130.0,135.0,19.0,-104.0,-80.0,127.0,127.0,127.0,111.0,86.0,-94.0
155.0,126.0,0.0,127.0,125.0,70.0,128.0,137.0,18.0,-105.0,-80.0,127.0,126.0,127.0,111.0,86.0,-94.0
155.0,126.0,0.0,124.0,124.0,66.0,128.0,138.0,18.0,-105.0,-80.0,127.0,126.0,127.0,111.0,86.0,-94.0
156.0,126.0,0.0,122.0,124.0,62.0,128.0,139.0,18.0,-105.0,-80.0,127.0,126.0,127.0,111.0,86.0,-94.0
156.0,126.0,0.0,122.0,124.0,59.0,129.0,140.0,18.0,-105.0,-80.0,127.0,126.0,127.0,111.0,86.0,-94.0
157.0,126.0,0.0,122.0,124.0,56.0,129.0,141.0,18.0,-105.0,-80.0,127.0,126.0,127.0,111.0,86.0,-94.0
158.0,127.0,0.0,123.0,124.0,53.0,130.0,141.0,18.0,-105.0,-80.0,127.0,126.0,127.0,111.0,86.0,-94.0
153.0,125.0,0.0,139.0,126.0,83.0,127.0,135.0,18.0,-105.0,-80.0,127.0,126.0,127.0,111.0,86.0,-94.0
153.0,125.0,0.0,137.0,126.0,79.0,127.0,136.0,18.0,-105.0,-80.0,127.0,126.0,127.0,111.0,86.0,-94.0
154.0,126.0,0.0,134.0,125.0,77.0,127.0,136.0,18.0,-105.0,-80.0,127.0,126.0,127.0,111.0,86.0,-94.0
155.0,126.0,0.0,130.0,125.0,73.0,127.0,137.0,18.0,-105.0,-80.0,127.0,126.0,127.0,111.0,86.0,-94.0
161.0,124.0,0.0,156.0,130.0,28.0,120.0,130.0,18.0,-105.0,-77.0,127.0,126.0,127.0,111.0,86.0,-94.0
160.0,124.0,0.0,159.0,130.0,30.0,119.0,129.0,18.0,-105.0,-77.0,127.0,126.0,127.0,111.0,86.0,-94.0
159.0,124.0,0.0,161.0,129.0,33.0,119.0,129.0,18.0,-105.0,-77.0,127.0,126.0,127.0,111.0,86.0,-94.0
158.0,123.0,0.0,163.0,129.0,35.0,119.0,128.0,18.0,-105.0,-77.0,127.0,126.0,127.0,111.0,86.0,-94.0
168.0,126.0,0.0,142.0,130.0,15.0,123.0,134.0,18.0,-105.0,-77.0,127.0,126.0,127.0,111.0,86.0,-94.0
167.0,125.0,0.0,145.0,130.0,17.0,122.0,133.0,18.0,-105.0,-77.0,127.0,126.0,127.0,111.0,86.0,-94.0
166.0,125.0,0.0,148.0,130.0,19.0,122.0,133.0,18.0,-105.0,-77.0,127.0,126.0,127.0,111.0,86.0,-94.0
165.0,125.0,0.0,150.0,130.0,21.0,121.0,132.0,18.0,-105.0,-77.0,127.0,126.0,127.0,111.0,86.0,-94.0
164.0,125.0,0.0,152.0,130.0,24.0,121.0,131.0,18.0,-105.0,-77.0,127.0,126.0,127.0,111.0,86.0,-94.0
163.0,125.0,0.0,154.0,130.0,26.0,120.0,131.0,18.0,-105.0,-77.0,127.0,126.0,127.0,111.0,86.0,-94.0
121.0,121.0,0.0,136.0,126.0,113.0,116.0,108.0,19.0,-101.0,-74.0,127.0,126.0,127.0,111.0,86.0,-94.0
121.0,121.0,0.0,137.0,126.0,113.0,117.0,108.0,19.0,-101.0,-74.0,127.0,126.0,127.0,111.0,86.0,-94.0
120.0,121.0,0.0,137.0,127.0,114.0,117.0,108.0,19.0,-101.0,-74.0,127.0,126.0,127.0,111.0,86.0,-94.0
124.0,121.0,0.0,138.0,125.0,110.0,115.0,106.0,19.0,-101.0,-74.0,127.0,126.0,127.0,111.0,86.0,-94.0
123.0,121.0,0.0,136.0,125.0,111.0,115.0,106.0,19.0,-101.0,-74.0,127.0,126.0,127.0,111.0,86.0,-94.0
122.0,121.0,0.0,134.0,124.0,111.0,115.0,106.0,19.0,-101.0,-74.0,127.0,126.0,127.0,111.0,86.0,-94.0
122.0,122.0,0.0,133.0,125.0,112.0,115.0,106.0,19.0,-101.0,-74.0,127.0,126.0,127.0,111.0,86.0,-94.0
122.0,122.0,0.0,133.0,125.0,113.0,116.0,107.0,19.0,-101.0,-74.0,127.0,126.0,127.0,111.0,86.0,-94.0
122.0,121.0,0.0,133.0,125.0,113.0,116.0,107.0,19.0,-101.0,-74.0,127.0,126.0,127.0,111.0,86.0,-94.0
121.0,121.0,0.0,135.0,126.0,113.0,116.0,107.0,19.0,-101.0,-74.0,127.0,126.0,127.0,111.0,86.0,-94.0
115.0,115.0,0.0,128.0,124.0,132.0,119.0,119.0,23.0,-96.0,-73.0,126.0,126.0,127.0,111.0,86.0,-94.0
115.0,115.0,0.0,127.0,124.0,132.0,119.0,119.0,23.0,-96.0,-73.0,126.0,126.0,127.0,111.0,86.0,-94.0
116.0,117.0,0.0,117.0,126.0,128.0,119.0,120.0,23.0,-96.0,-73.0,126.0,126.0,127.0,111.0,86.0,-94.0
117.0,117.0,0.0,121.0,126.0,128.0,119.0,120.0,23.0,-96.0,-73.0,126.0,126.0,127.0,111.0,86.0,-94.0
117.0,116.0,0.0,125.0,126.0,129.0,120.0,120.0,23.0,-96.0,-73.0,126.0,126.0,127.0,111.0,86.0,-94.0
117.0,116.0,0.0,127.0,125.0,130.0,119.0,120.0,23.0,-96.0,-73.0,126.0,126.0,127.0,111.0,86.0,-94.0
117.0,116.0,0.0,128.0,125.0,130.0,119.0,120.0,23.0,-96.0,-73.0,126.0,126.0,127.0,111.0,86.0,-94.0
117.0,115.0,0.0,129.0,125.0,131.0,119.0,120.0,23.0,-96.0,-73.0,126.0,126.0,127.0,111.0,86.0,-94.0
117.0,115.0,0.0,129.0,124.0,131.0,119.0,120.0,23.0,-96.0,-73.0,126.0,126.0,127.0,111.0,86.0,-94.0
116.0,115.0,0.0,128.0,124.0,131.0,119.0,119.0,23.0,-96.0,-73.0,126.0,126.0,127.0,111.0,86.0,-94.0
122.0,120.0,146.0,116.0,127.0,144.0,123.0,127.0,27.0,-98.0,-73.0,126.0,126.0,127.0,111.0,86.0,-94.0
125.0,124.0,100.0,123.0,131.0,147.0,123.0,128.0,27.0,-98.0,-73.0,126.0,126.0,127.0,111.0,86.0,-94.0
125.0,124.0,105.0,124.0,131.0,147.0,123.0,128.0,27.0,-98.0,-73.0,126.0,126.0,127.0,111.0,86.0,-94.0
125.0,123.0,110.0,124.0,131.0,147.0,123.0,128.0,27.0,-98.0,-73.0,126.0,126.0,127.0,111.0,86.0,-94.0
124.0,123.0,116.0,124.0,130.0,146.0,123.0,128.0,27.0,-98.0,-73.0,126.0,126.0,127.0,111.0,86.0,-94.0
124.0,122.0,122.0,122.0,130.0,146.0,123.0,128.0,27.0,-98.0,-73.0,126.0,126.0,127.0,111.0,86.0,-94.0
124.0,122.0,127.0,121.0,129.0,145.0,123.0,127.0,27.0,-98.0,-73.0,126.0,126.0,127.0,111.0,86.0,-94.0
123.0,121.0,133.0,119.0,128.0,145.0,123.0,127.0,27.0,-98.0,-73.0,126.0,126.0,127.0,111.0,86.0,-94.0
123.0,121.0,137.0,118.0,128.0,145.0,123.0,127.0,27.0,-98.0,-73.0,126.0,126.0,127.0,111.0,86.0,-94.0
123.0,120.0,142.0,117.0,127.0,144.0,123.0,127.0,27.0,-98.0,-73.0,126.0,126.0,127.0,111.0,86.0,-94.0
123.0,116.0,254.0,116.0,123.0,131.0,125.0,131.0,28.0,-103.0,-72.0,127.0,126.0,127.0,111.0,86.0,-94.0
125.0,118.0,254.0,119.0,124.0,132.0,125.0,131.0,28.0,-103.0,-72.0,127.0,126.0,127.0,111.0,86.0,-94.0
125.0,119.0,254.0,122.0,126.0,132.0,126.0,131.0,28.0,-103.0,-72.0,127.0,126.0,127.0,111.0,86.0,-94.0
126.0,120.0,254.0,124.0,128.0,132.0,127.0,132.0,28.0,-103.0,-72.0,127.0,126.0,127.0,111.0,86.0,-94.0
127.0,121.0,254.0,126.0,129.0,131.0,128.0,132.0,28.0,-103.0,-72.0,127.0,126.0,127.0,111.0,86.0,-94.0
127.0,122.0,254.0,129.0,131.0,132.0,128.0,132.0,28.0,-103.0,-72.0,127.0,126.0,127.0,111.0,86.0,-94.0
128.0,123.0,254.0,131.0,132.0,132.0,129.0,132.0,28.0,-103.0,-72.0,127.0,126.0,127.0,111.0,86.0,-94.0
129.0,124.0,254.0,132.0,133.0,132.0,129.0,131.0,28.0,-103.0,-72.0,127.0,126.0,127.0,111.0,86.0,-94.0
129.0,125.0,254.0,132.0,133.0,133.0,130.0,131.0,28.0,-103.0,-72.0,127.0,126.0,127.0,111.0,86.0,-94.0
129.0,126.0,254.0,131.0,133.0,132.0,130.0,131.0,28.0,-103.0,-72.0,127.0,126.0,127.0,111.0,86.0,-94.0
126.0,122.0,254.0,131.0,124.0,131.0,127.0,125.0,30.0,-105.0,-73.0,-128.0,126.0,127.0,111.0,86.0,-94.0
126.0,123.0,254.0,133.0,125.0,131.0,127.0,126.0,30.0,-105.0,-73.0,-128.0,126.0,127.0,111.0,86.0,-94.0
126.0,124.0,254.0,135.0,125.0,130.0,127.0,127.0,30.0,-105.0,-73.0,-128.0,126.0,127.0,111.0,86.0,-94.0
126.0,125.0,254.0,134.0,125.0,130.0,128.0,127.0,30.0,-105.0,-73.0,-128.0,126.0,127.0,111.0,86.0,-94.0
126.0,126.0,254.0,133.0,125.0,130.0,128.0,127.0,30.0,-105.0,-73.0,-128.0,126.0,127.0,111.0,86.0,-94.0
127.0,126.0,254.0,130.0,125.0,130.0,128.0,128.0,30.0,-105.0,-73.0,-128.0,126.0,127.0,111.0,86.0,-94.0
127.0,126.0,254.0,128.0,125.0,130.0,129.0,127.0,30.0,-105.0,-73.0,-128.0,126.0,127.0,111.0,86.0,-94.0
127.0,126.0,254.0,125.0,125.0,130.0,129.0,127.0,30.0,-105.0,-73.0,-128.0,126.0,127.0,111.0,86.0,-94.0
127.0,126.0,254.0,123.0,125.0,130.0,129.0,127.0,30.0,-105.0,-73.0,-128.0,126.0,127.0,111.0,86.0,-94.0
126.0,121.0,254.0,127.0,124.0,130.0,126.0,124.0,30.0,-105.0,-73.0,-128.0,126.0,127.0,111.0,86.0,-94.0
129.0,128.0,254.0,137.0,129.0,137.0,129.0,126.0,30.0,-104.0,-72.0,-128.0,126.0,127.0,111.0,86.0,-94.0
129.0,128.0,254.0,136.0,129.0,136.0,129.0,126.0,30.0,-104.0,-72.0,-128.0,126.0,127.0,111.0,86.0,-94.0
129.0,128.0,254.0,135.0,129.0,136.0,129.0,125.0,30.0,-104.0,-72.0,-128.0,126.0,127.0,111.0,86.0,-94.0
129.0,128.0,254.0,133.0,129.0,136.0,129.0,125.0,30.0,-104.0,-72.0,-128.0,126.0,127.0,111.0,86.0,-94.0
129.0,127.0,254.0,130.0,129.0,135.0,129.0,125.0,30.0,-104.0,-72.0,-128.0,126.0,127.0,111.0,86.0,-94.0
129.0,127.0,254.0,128.0,128.0,136.0,128.0,125.0,30.0,-104.0,-72.0,-128.0,126.0,127.0,111.0,86.0,-94.0
130.0,127.0,254.0,126.0,128.0,135.0,128.0,125.0,30.0,-104.0,-72.0,-128.0,126.0,127.0,111.0,86.0,-94.0
130.0,126.0,254.0,124.0,128.0,135.0,128.0,125.0,30.0,-104.0,-72.0,-128.0,126.0,127.0,111.0,86.0,-94.0
128.0,128.0,254.0,137.0,128.0,136.0,130.0,126.0,30.0,-104.0,-72.0,-128.0,126.0,127.0,111.0,86.0,-94.0
128.0,129.0,254.0,137.0,128.0,137.0,130.0,126.0,30.0,-104.0,-72.0,-128.0,126.0,127.0,111.0,86.0,-94.0
128.0,128.0,254.0,129.0,130.0,118.0,130.0,125.0,29.0,-102.0,-73.0,127.0,126.0,127.0,111.0,86.0,-94.0
128.0,129.0,254.0,130.0,130.0,119.0,130.0,125.0,29.0,-102.0,-73.0,127.0,126.0,127.0,111.0,86.0,-94.0
129.0,129.0,254.0,132.0,130.0,119.0,130.0,125.0,29.0,-102.0,-73.0,127.0,126.0,127.0,111.0,86.0,-94.0
129.0,129.0,254.0,134.0,131.0,119.0,130.0,124.0,29.0,-102.0,-73.0,127.0,126.0,127.0,111.0,86.0,-94.0
130.0,129.0,254.0,137.0,131.0,119.0,130.0,124.0,29.0,-102.0,-73.0,127.0,126.0,127.0,111.0,86.0,-94.0
130.0,129.0,254.0,138.0,131.0,119.0,130.0,124.0,29.0,-102.0,-73.0,127.0,126.0,127.0,111.0,86.0,-94.0
130.0,129.0,254.0,138.0,130.0,118.0,131.0,123.0,29.0,-102.0,-73.0,127.0,126.0,127.0,111.0,86.0,-94.0
128.0,126.0,254.0,128.0,129.0,118.0,129.0,123.0,29.0,-102.0,-73.0,127.0,126.0,127.0,111.0,86.0,-94.0
128.0,127.0,254.0,128.0,129.0,118.0,129.0,123.0,29.0,-102.0,-73.0,127.0,126.0,127.0,111.0,86.0,-94.0
128.0,128.0,254.0,128.0,129.0,118.0,129.0,124.0,29.0,-102.0,-73.0,127.0,126.0,127.0,111.0,86.0,-94.0
130.0,125.0,254.0,122.0,126.0,105.0,130.0,129.0,29.0,-103.0,-73.0,127.0,127.0,127.0,111.0,86.0,-94.0
130.0,126.0,254.0,123.0,126.0,105.0,130.0,129.0,29.0,-103.0,-73.0,127.0,127.0,127.0,111.0,86.0,-94.0
131.0,126.0,254.0,124.0,126.0,105.0,130.0,130.0,29.0,-103.0,-73.0,127.0,127.0,127.0,111.0,86.0,-94.0
131.0,127.0,254.0,126.0,127.0,105.0,130.0,130.0,29.0,-103.0,-73.0,127.0,127.0,127.0,111.0,86.0,-94.0
131.0,127.0,254.0,128.0,127.0,104.0,130.0,130.0,29.0,-103.0,-73.0,127.0,127.0,127.0,111.0,86.0,-94.0
131.0,128.0,254.0,130.0,127.0,104.0,130.0,130.0,29.0,-103.0,-73.0,127.0,127.0,127.0,111.0,86.0,-94.0
129.0,126.0,254.0,122.0,125.0,108.0,129.0,128.0,29.0,-103.0,-73.0,127.0,127.0,127.0,111.0,86.0,-94.0
129.0,127.0,254.0,121.0,126.0,107.0,130.0,128.0,29.0,-103.0,-73.0,127.0,127.0,127.0,111.0,86.0,-94.0
129.0,127.0,254.0,121.0,126.0,107.0,130.0,128.0,29.0,-103.0,-73.0,127.0,127.0,127.0,111.0,86.0,-94.0
129.0,126.0,254.0,121.0,126.0,106.0,130.0,128.0,29.0,-103.0,-73.0,127.0,127.0,127.0,111.0,86.0,-94.0
131.0,127.0,254.0,124.0,126.0,98.0,131.0,119.0,28.0,-104.0,-73.0,127.0,127.0,127.0,111.0,86.0,-94.0
131.0,127.0,254.0,123.0,126.0,98.0,131.0,120.0,28.0,-104.0,-73.0,127.0,127.0,127.0,111.0,86.0,-94.0
130.0,126.0,254.0,123.0,126.0,98.0,131.0,121.0,28.0,-104.0,-73.0,127.0,127.0,127.0,111.0,86.0,-94.0
130.0,126.0,254.0,123.0,126.0,98.0,131.0,124.0,28.0,-104.0,-73.0,127.0,127.0,127.0,111.0,86.0,-94.0
130.0,127.0,254.0,124.0,126.0,98.0,131.0,126.0,28.0,-104.0,-73.0,127.0,127.0,127.0,111.0,86.0,-94.0
131.0,126.0,254.0,126.0,128.0,98.0,131.0,124.0,28.0,-104.0,-73.0,127.0,127.0,127.0,111.0,86.0,-94.0
131.0,126.0,254.0,125.0,127.0,97.0,131.0,122.0,28.0,-104.0,-73.0,127.0,127.0,127.0,111.0,86.0,-94.0
131.0,126.0,254.0,125.0,127.0,97.0,131.0,121.0,28.0,-104.0,-73.0,127.0,127.0,127.0,111.0,86.0,-94.0
130.0,126.0,254.0,125.0,127.0,97.0,131.0,120.0,28.0,-104.0,-73.0,127.0,127.0,127.0,111.0,86.0,-94.0
130.0,126.0,254.0,124.0,126.0,98.0,131.0,119.0,28.0,-104.0,-73.0,127.0,127.0,127.0,111.0,86.0,-94.0
129.0,128.0,254.0,129.0,121.0,121.0,128.0,127.0,28.0,-105.0,-74.0,127.0,127.0,127.0,111.0,86.0,-94.0
129.0,129.0,254.0,130.0,122.0,122.0,128.0,127.0,28.0,-105.0,-74.0,127.0,127.0,127.0,111.0,86.0,-94.0
129.0,130.0,254.0,131.0,122.0,123.0,128.0,126.0,28.0,-105.0,-74.0,127.0,127.0,127.0,111.0,86.0,-94.0
129.0,132.0,254.0,132.0,122.0,123.0,128.0,126.0,28.0,-105.0,-74.0,127.0,127.0,127.0,111.0,86.0,-94.0
129.0,129.0,254.0,133.0,123.0,119.0,128.0,127.0,28.0,-105.0,-74.0,127.0,127.0,127.0,111.0,86.0,-94.0
129.0,129.0,254.0,132.0,123.0,120.0,127.0,127.0,28.0,-105.0,-74.0,127.0,127.0,127.0,111.0,86.0,-94.0
130.0,129.0,254.0,131.0,122.0,121.0,128.0,127.0,28.0,-105.0,-74.0,127.0,127.0,127.0,111.0,86.0,-94.0
130.0,129.0,254.0,130.0,122.0,121.0,128.0,127.0,28.0,-105.0,-74.0,127.0,127.0,127.0,111.0,86.0,-94.0
130.0,128.0,254.0,129.0,122.0,121.0,128.0,127.0,28.0,-105.0,-74.0,127.0,127.0,127.0,111.0,86.0,-94.0
129.0,128.0,254.0,129.0,121.0,121.0,128.0,127.0,28.0,-105.0,-74.0,127.0,127.0,127.0,111.0,86.0,-94.0
129.0,124.0,254.0,121.0,120.0,127.0,125.0,124.0,27.0,-104.0,-74.0,127.0,127.0,127.0,111.0,86.0,-94.0
130.0,125.0,254.0,126.0,121.0,128.0,125.0,124.0,27.0,-104.0,-74.0,127.0,127.0,127.0,111.0,86.0,-94.0
130.0,127.0,254.0,130.0,121.0,128.0,125.0,124.0,27.0,-104.0,-74.0,127.0,127.0,127.0,111.0,86.0,-94.0
126.0,122.0,254.0,110.0,122.0,127.0,127.0,122.0,27.0,-104.0,-74.0,127.0,127.0,127.0,111.0,86.0,-94.0
127.0,122.0,254.0,109.0,121.0,127.0,126.0,122.0,27.0,-104.0,-74.0,127.0,127.0,127.0,111.0,86.0,-94.0
127.0,123.0,254.0,109.0,121.0,128.0,126.0,122.0,27.0,-104.0,-74.0,127.0,127.0,127.0,111.0,86.0,-94.0
127.0,123.0,254.0,110.0,121.0,128.0,126.0,122.0,27.0,-104.0,-74.0,127.0,127.0,127.0,111.0,86.0,-94.0
127.0,123.0,254.0,112.0,121.0,127.0,126.0,122.0,27.0,-104.0,-74.0,127.0,127.0,127.0,111.0,86.0,-94.0
127.0,123.0,254.0,114.0,120.0,127.0,126.0,123.0,27.0,-104.0,-74.0,127.0,127.0,127.0,111.0,86.0,-94.0
128.0,123.0,254.0,118.0,120.0,127.0,126.0,123.0,27.0,-104.0,-74.0,127.0,127.0,127.0,111.0,86.0,-94.0
128.0,124.0,254.0,142.0,128.0,130.0,128.0,125.0,26.0,-104.0,-74.0,127.0,127.0,127.0,111.0,86.0,-94.0
128.0,125.0,254.0,146.0,128.0,129.0,129.0,127.0,26.0,-104.0,-74.0,127.0,127.0,127.0,111.0,86.0,-94.0
126.0,122.0,254.0,115.0,127.0,130.0,127.0,123.0,26.0,-104.0,-74.0,127.0,127.0,127.0,111.0,86.0,-94.0
126.0,122.0,254.0,115.0,126.0,130.0,127.0,122.0,26.0,-104.0,-74.0,127.0,127.0,127.0,111.0,86.0,-94.0
126.0,123.0,254.0,117.0,125.0,131.0,127.0,122.0,26.0,-104.0,-74.0,127.0,127.0,127.0,111.0,86.0,-94.0
126.0,123.0,254.0,120.0,125.0,130.0,126.0,122.0,26.0,-104.0,-74.0,127.0,127.0,127.0,111.0,86.0,-94.0
126.0,123.0,254.0,124.0,125.0,130.0,127.0,121.0,26.0,-104.0,-74.0,127.0,127.0,127.0,111.0,86.0,-94.0
126.0,123.0,254.0,128.0,126.0,131.0,127.0,121.0,26.0,-104.0,-74.0,127.0,127.0,127.0,111.0,86.0,-94.0
127.0,123.0,254.0,132.0,126.0,130.0,127.0,122.0,26.0,-104.0,-74.0,127.0,127.0,127.0,111.0,86.0,-94.0
127.0,123.0,254.0,137.0,127.0,130.0,128.0,123.0,26.0,-104.0,-74.0,127.0,127.0,127.0,111.0,86.0,-94.0
129.0,127.0,254.0,132.0,128.0,118.0,130.0,125.0,25.0,-104.0,-74.0,127.0,127.0,127.0,111.0,86.0,-94.0
128.0,122.0,254.0,128.0,126.0,121.0,127.0,128.0,25.0,-104.0,-74.0,127.0,127.0,127.0,111.0,86.0,-94.0
128.0,122.0,254.0,125.0,126.0,121.0,127.0,128.0,25.0,-104.0,-74.0,127.0,127.0,127.0,111.0,86.0,-94.0
128.0,123.0,254.0,123.0,126.0,120.0,127.0,128.0,25.0,-104.0,-74.0,127.0,127.0,127.0,111.0,86.0,-94.0
128.0,124.0,254.0,123.0,126.0,119.0,127.0,128.0,25.0,-104.0,-74.0,127.0,127.0,127.0,111.0,86.0,-94.0
128.0,126.0,254.0,123.0,126.0,119.0,128.0,127.0,25.0,-104.0,-74.0,127.0,127.0,127.0,111.0,86.0,-94.0
128.0,128.0,254.0,123.0,126.0,119.0,128.0,127.0,25.0,-104.0,-74.0,127.0,127.0,127.0,111.0,86.0,-94.0
127.0,128.0,254.0,124.0,127.0,119.0,129.0,126.0,25.0,-104.0,-74.0,127.0,127.0,127.0,111.0,86.0,-94.0
128.0,128.0,254.0,126.0,127.0,118.0,129.0,125.0,25.0,-104.0,-74.0,127.0,127.0,127.0,111.0,86.0,-94.0
129.0,127.0,254.0,129.0,127.0,118.0,129.0,125.0,25.0,-104.0,-74.0,127.0,127.0,127.0,111.0,86.0,-94.0
129.0,121.0,254.0,110.0,119.0,62.0,123.0,129.0,25.0,-105.0,-74.0,127.0,127.0,127.0,111.0,86.0,-94.0
129.0,121.0,254.0,113.0,120.0,60.0,123.0,129.0,25.0,-105.0,-74.0,127.0,127.0,127.0,111.0,86.0,-94.0
129.0,122.0,254.0,117.0,121.0,59.0,123.0,129.0,25.0,-105.0,-74.0,127.0,127.0,127.0,111.0,86.0,-94.0
129.0,122.0,254.0,122.0,122.0,57.0,124.0,129.0,25.0,-105.0,-74.0,127.0,127.0,127.0,111.0,86.0,-94.0
129.0,122.0,254.0,127.0,124.0,54.0,124.0,129.0,25.0,-105.0,-74.0,127.0,127.0,127.0,111.0,86.0,-94.0
129.0,122.0,254.0,130.0,125.0,51.0,125.0,130.0,25.0,-105.0,-74.0,127.0,127.0,127.0,111.0,86.0,-94.0
128.0,123.0,254.0,132.0,126.0,48.0,125.0,130.0,25.0,-105.0,-74.0,127.0,127.0,127.0,111.0,86.0,-94.0
128.0,123.0,254.0,132.0,127.0,45.0,126.0,130.0,25.0,-105.0,-74.0,127.0,127.0,127.0,111.0,86.0,-94.0
128.0,123.0,254.0,131.0,128.0,43.0,126.0,131.0,25.0,-105.0,-74.0,127.0,127.0,127.0,111.0,86.0,-94.0
128.0,123.0,254.0,131.0,129.0,40.0,126.0,131.0,25.0,-105.0,-74.0,127.0,127.0,127.0,111.0,86.0,-94.0
123.0,127.0,254.0,126.0,122.0,0.0,124.0,126.0,26.0,-106.0,-74.0,127.0,127.0,127.0,111.0,86.0,-94.0
124.0,126.0,254.0,125.0,122.0,0.0,123.0,126.0,26.0,-106.0,-74.0,127.0,127.0,127.0,111.0,86.0,-94.0
124.0,125.0,254.0,125.0,122.0,0.0,123.0,125.0,26.0,-106.0,-74.0,127.0,127.0,127.0,111.0,86.0,-94.0
124.0,124.0,254.0,125.0,122.0,0.0,123.0,126.0,26.0,-106.0,-74.0,127.0,127.0,127.0,111.0,86.0,-94.0
124.0,123.0,254.0,125.0,121.0,0.0,123.0,126.0,26.0,-106.0,-74.0,127.0,127.0,127.0,111.0,86.0,-94.0
124.0,123.0,254.0,125.0,121.0,0.0,123.0,125.0,26.0,-106.0,-74.0,127.0,127.0,127.0,111.0,86.0,-94.0
124.0,123.0,254.0,124.0,120.0,0.0,122.0,125.0,26.0,-106.0,-74.0,127.0,127.0,127.0,111.0,86.0,-94.0
124.0,123.0,254.0,124.0,119.0,0.0,122.0,125.0,26.0,-106.0,-74.0,127.0,127.0,127.0,111.0,86.0,-94.0
124.0,123.0,254.0,124.0,119.0,0.0,122.0,124.0,26.0,-106.0,-74.0,127.0,127.0,127.0,111.0,86.0,-94.0
123.0,127.0,254.0,126.0,122.0,0.0,124.0,126.0,26.0,-106.0,-74.0,127.0,127.0,127.0,111.0,86.0,-94.0
131.0,128.0,223.0,132.0,129.0,0.0,125.0,126.0,27.0,-105.0,-73.0,127.0,127.0,127.0,111.0,86.0,-94.0
131.0,129.0,222.0,131.0,128.0,0.0,125.0,126.0,27.0,-105.0,-73.0,127.0,127.0,127.0,111.0,86.0,-94.0
132.0,130.0,221.0,128.0,128.0,0.0,125.0,126.0,27.0,-105.0,-73.0,127.0,127.0,127.0,111.0,86.0,-94.0
132.0,129.0,221.0,125.0,127.0,0.0,125.0,125.0,27.0,-105.0,-73.0,127.0,127.0,127.0,111.0,86.0,-94.0
132.0,128.0,220.0,122.0,126.0,0.0,125.0,125.0,27.0,-105.0,-73.0,127.0,127.0,127.0,111.0,86.0,-94.0
132.0,127.0,220.0,120.0,125.0,0.0,125.0,124.0,27.0,-105.0,-73.0,127.0,127.0,127.0,111.0,86.0,-94.0
132.0,126.0,219.0,118.0,124.0,0.0,124.0,123.0,27.0,-105.0,-73.0,127.0,127.0,127.0,111.0,86.0,-94.0
129.0,128.0,228.0,130.0,129.0,0.0,125.0,126.0,27.0,-105.0,-73.0,127.0,127.0,127.0,111.0,86.0,-94.0
129.0,127.0,226.0,132.0,129.0,0.0,125.0,126.0,27.0,-105.0,-73.0,127.0,127.0,127.0,111.0,86.0,-94.0
130.0,127.0,225.0,133.0,129.0,0.0,125.0,126.0,27.0,-105.0,-73.0,127.0,127.0,127.0,111.0,86.0,-94.0
131.0,126.0,227.0,130.0,127.0,0.0,131.0,126.0,26.0,-104.0,-74.0,127.0,127.0,127.0,111.0,86.0,-94.0
131.0,126.0,223.0,133.0,128.0,0.0,131.0,127.0,26.0,-104.0,-74.0,127.0,127.0,127.0,111.0,86.0,-94.0
132.0,126.0,219.0,134.0,129.0,0.0,131.0,127.0,26.0,-104.0,-74.0,127.0,127.0,127.0,111.0,86.0,-94.0
133.0,126.0,215.0,135.0,129.0,0.0,131.0,128.0,26.0,-104.0,-74.0,127.0,127.0,127.0,111.0,86.0,-94.0
134.0,126.0,211.0,135.0,129.0,0.0,131.0,128.0,26.0,-104.0,-74.0,127.0,127.0,127.0,111.0,86.0,-94.0
134.0,126.0,207.0,135.0,129.0,0.0,130.0,128.0,26.0,-104.0,-74.0,127.0,127.0,127.0,111.0,86.0,-94.0
130.0,125.0,241.0,119.0,125.0,0.0,129.0,126.0,26.0,-104.0,-74.0,127.0,127.0,127.0,111.0,86.0,-94.0
130.0,125.0,238.0,122.0,125.0,0.0,130.0,126.0,26.0,-104.0,-74.0,127.0,127.0,127.0,111.0,86.0,-94.0
130.0,125.0,234.0,124.0,126.0,0.0,130.0,126.0,26.0,-104.0,-74.0,127.0,127.0,127.0,111.0,86.0,-94.0
130.0,125.0,231.0,127.0,127.0,0.0,130.0,126.0,26.0,-104.0,-74.0,127.0,127.0,127.0,111.0,86.0,-94.0
136.0,122.0,55.0,127.0,129.0,0.0,127.0,126.0,23.0,-103.0,-75.0,127.0,127.0,127.0,111.0,86.0,-94.0
136.0,122.0,54.0,128.0,129.0,0.0,127.0,127.0,23.0,-103.0,-75.0,127.0,127.0,127.0,111.0,86.0,-94.0
135.0,123.0,52.0,130.0,129.0,0.0,127.0,127.0,23.0,-103.0,-75.0,127.0,127.0,127.0,111.0,86.0,-94.0
134.0,123.0,51.0,132.0,129.0,0.0,127.0,129.0,23.0,-103.0,-75.0,127.0,127.0,127.0,111.0,86.0,-94.0
133.0,123.0,49.0,134.0,129.0,0.0,127.0,129.0,23.0,-103.0,-75.0,127.0,127.0,127.0,111.0,86.0,-94.0
136.0,124.0,64.0,128.0,128.0,0.0,127.0,125.0,23.0,-103.0,-75.0,127.0,127.0,127.0,111.0,86.0,-94.0
136.0,123.0,62.0,126.0,128.0,0.0,127.0,125.0,23.0,-103.0,-75.0,127.0,127.0,127.0,111.0,86.0,-94.0
135.0,123.0,60.0,126.0,128.0,0.0,127.0,125.0,23.0,-103.0,-75.0,127.0,127.0,127.0,111.0,86.0,-94.0
135.0,122.0,59.0,126.0,128.0,0.0,127.0,126.0,23.0,-103.0,-75.0,127.0,127.0,127.0,111.0,86.0,-94.0
135.0,122.0,57.0,127.0,128.0,0.0,127.0,126.0,23.0,-103.0,-75.0,127.0,127.0,127.0,111.0,86.0,-94.0
128.0,124.0,31.0,121.0,119.0,0.0,125.0,132.0,23.0,-103.0,-75.0,127.0,127.0,127.0,111.0,86.0,-94.0
128.0,124.0,31.0,121.0,119.0,0.0,125.0,132.0,23.0,-103.0,-75.0,127.0,127.0,127.0,111.0,86.0,-94.0
128.0,123.0,31.0,120.0,118.0,0.0,125.0,132.0,23.0,-103.0,-75.0,127.0,127.0,127.0,111.0,86.0,-94.0
128.0,124.0,31.0,120.0,118.0,0.0,125.0,132.0,23.0,-103.0,-75.0,127.0,127.0,127.0,111.0,86.0,-94.0
127.0,126.0,30.0,125.0,124.0,0.0,125.0,127.0,23.0,-103.0,-75.0,127.0,127.0,127.0,111.0,86.0,-94.0
127.0,125.0,30.0,124.0,123.0,0.0,125.0,129.0,23.0,-103.0,-75.0,127.0,127.0,127.0,111.0,86.0,-94.0
127.0,125.0,31.0,124.0,122.0,0.0,125.0,130.0,23.0,-103.0,-75.0,127.0,127.0,127.0,111.0,86.0,-94.0
128.0,125.0,31.0,123.0,121.0,0.0,125.0,131.0,23.0,-103.0,-75.0,127.0,127.0,127.0,111.0,86.0,-94.0
128.0,125.0,31.0,122.0,121.0,0.0,125.0,132.0,23.0,-103.0,-75.0,127.0,127.0,127.0,111.0,86.0,-94.0
128.0,125.0,31.0,121.0,120.0,0.0,125.0,132.0,23.0,-103.0,-75.0,127.0,127.0,127.0,111.0,86.0,-94.0
130.0,123.0,45.0,127.0,125.0,54.0,124.0,124.0,25.0,-104.0,-73.0,127.0,127.0,127.0,111.0,86.0,-94.0
130.0,123.0,45.0,128.0,125.0,55.0,124.0,125.0,25.0,-104.0,-73.0,127.0,127.0,127.0,111.0,86.0,-94.0
130.0,123.0,45.0,130.0,125.0,56.0,124.0,127.0,25.0,-104.0,-73.0,127.0,127.0,127.0,111.0,86.0,-94.0
128.0,121.0,42.0,120.0,125.0,42.0,124.0,123.0,25.0,-104.0,-73.0,127.0,127.0,127.0,111.0,86.0,-94.0
128.0,121.0,43.0,120.0,124.0,44.0,124.0,122.0,25.0,-104.0,-73.0,127.0,127.0,127.0,111.0,86.0,-94.0
129.0,121.0,43.0,121.0,124.0,45.0,124.0,122.0,25.0,-104.0,-73.0,127.0,127.0,127.0,111.0,86.0,-94.0
129.0,122.0,43.0,122.0,124.0,47.0,124.0,122.0,25.0,-104.0,-73.0,127.0,127.0,127.0,111.0,86.0,-94.0
129.0,123.0,44.0,123.0,124.0,50.0,124.0,123.0,25.0,-104.0,-73.0,127.0,127.0,127.0,111.0,86.0,-94.0
130.0,123.0,44.0,124.0,125.0,51.0,124.0,124.0,25.0,-104.0,-73.0,127.0,127.0,127.0,111.0,86.0,-94.0
130.0,123.0,44.0,126.0,125.0,53.0,124.0,124.0,25.0,-104.0,-73.0,127.0,127.0,127.0,111.0,86.0,-94.0
128.0,123.0,63.0,128.0,128.0,108.0,125.0,126.0,27.0,-105.0,-72.0,127.0,127.0,127.0,111.0,86.0,-94.0
128.0,124.0,63.0,127.0,128.0,109.0,125.0,126.0,27.0,-105.0,-72.0,127.0,127.0,127.0,111.0,86.0,-94.0
128.0,123.0,60.0,128.0,128.0,103.0,125.0,126.0,27.0,-105.0,-72.0,127.0,127.0,127.0,111.0,86.0,-94.0
128.0,123.0,60.0,129.0,128.0,105.0,125.0,126.0,27.0,-105.0,-72.0,127.0,127.0,127.0,111.0,86.0,-94.0
129.0,123.0,60.0,129.0,128.0,106.0,125.0,126.0,27.0,-105.0,-72.0,127.0,127.0,127.0,111.0,86.0,-94.0
129.0,123.0,61.0,129.0,128.0,106.0,125.0,127.0,27.0,-105.0,-72.0,127.0,127.0,127.0,111.0,86.0,-94.0
128.0,122.0,61.0,129.0,128.0,106.0,125.0,126.0,27.0,-105.0,-72.0,127.0,127.0,127.0,111.0,86.0,-94.0
129.0,123.0,62.0,129.0,128.0,107.0,125.0,126.0,27.0,-105.0,-72.0,127.0,127.0,127.0,111.0,86.0,-94.0
128.0,123.0,62.0,129.0,128.0,107.0,125.0,126.0,27.0,-105.0,-72.0,127.0,127.0,127.0,111.0,86.0,-94.0
128.0,123.0,62.0,128.0,128.0,108.0,125.0,126.0,27.0,-105.0,-72.0,127.0,127.0,127.0,111.0,86.0,-94.0
127.0,123.0,74.0,126.0,127.0,127.0,123.0,124.0,27.0,-104.0,-73.0,127.0,127.0,127.0,111.0,86.0,-94.0
127.0,123.0,72.0,128.0,128.0,125.0,124.0,124.0,27.0,-104.0,-73.0,127.0,127.0,127.0,111.0,86.0,-94.0
127.0,123.0,73.0,128.0,128.0,124.0,124.0,124.0,27.0,-104.0,-73.0,127.0,127.0,127.0,111.0,86.0,-94.0
127.0,123.0,73.0,128.0,128.0,125.0,124.0,124.0,27.0,-104.0,-73.0,127.0,127.0,127.0,111.0,86.0,-94.0
127.0,123.0,73.0,127.0,128.0,125.0,123.0,124.0,27.0,-104.0,-73.0,127.0,127.0,127.0,111.0,86.0,-94.0
127.0,123.0,73.0,127.0,128.0,126.0,123.0,124.0,27.0,-104.0,-73.0,127.0,127.0,127.0,111.0,86.0,-94.0
128.0,123.0,73.0,127.0,128.0,127.0,123.0,124.0,27.0,-104.0,-73.0,127.0,127.0,127.0,111.0,86.0,-94.0
128.0,123.0,73.0,127.0,128.0,127.0,123.0,124.0,27.0,-104.0,-73.0,127.0,127.0,127.0,111.0,86.0,-94.0
127.0,123.0,73.0,127.0,128.0,127.0,123.0,124.0,27.0,-104.0,-73.0,127.0,127.0,127.0,111.0,86.0,-94.0
128.0,123.0,74.0,127.0,127.0,127.0,123.0,124.0,27.0,-104.0,-73.0,127.0,127.0,127.0,111.0,86.0,-94.0
123.0,123.0,84.0,124.0,127.0,131.0,123.0,125.0,26.0,-103.0,-73.0,127.0,127.0,127.0,111.0,86.0,-94.0
123.0,122.0,85.0,124.0,127.0,131.0,123.0,125.0,26.0,-103.0,-73.0,127.0,127.0,127.0,111.0,86.0,-94.0
123.0,122.0,85.0,124.0,127.0,131.0,123.0,125.0,26.0,-103.0,-73.0,127.0,127.0,127.0,111.0,86.0,-94.0
123.0,122.0,85.0,124.0,127.0,131.0,123.0,125.0,26.0,-103.0,-73.0,127.0,127.0,127.0,111.0,86.0,-94.0
123.0,122.0,85.0,123.0,127.0,133.0,123.0,125.0,26.0,-103.0,-73.0,127.0,127.0,127.0,111.0,86.0,-94.0
123.0,122.0,86.0,123.0,127.0,133.0,123.0,125.0,26.0,-103.0,-73.0,127.0,127.0,127.0,111.0,86.0,-94.0
122.0,122.0,86.0,124.0,127.0,133.0,123.0,126.0,26.0,-103.0,-73.0,127.0,127.0,127.0,111.0,86.0,-94.0
122.0,122.0,87.0,124.0,127.0,133.0,123.0,126.0,26.0,-103.0,-73.0,127.0,127.0,127.0,111.0,86.0,-94.0
122.0,122.0,87.0,124.0,128.0,133.0,123.0,126.0,26.0,-103.0,-73.0,127.0,127.0,127.0,111.0,86.0,-94.0
122.0,122.0,88.0,125.0,128.0,133.0,123.0,126.0,26.0,-103.0,-73.0,127.0,127.0,127.0,111.0,86.0,-94.0
120.0,124.0,88.0,124.0,126.0,136.0,126.0,129.0,26.0,-103.0,-72.0,127.0,127.0,127.0,111.0,86.0,-94.0
120.0,124.0,88.0,124.0,126.0,135.0,126.0,129.0,26.0,-103.0,-72.0,127.0,127.0,127.0,111.0,86.0,-94.0
119.0,124.0,89.0,124.0,126.0,135.0,126.0,129.0,26.0,-103.0,-72.0,127.0,127.0,127.0,111.0,86.0,-94.0
120.0,125.0,89.0,124.0,126.0,136.0,126.0,129.0,26.0,-103.0,-72.0,127.0,127.0,127.0,111.0,86.0,-94.0
120.0,125.0,89.0,124.0,126.0,136.0,127.0,129.0,26.0,-103.0,-72.0,127.0,127.0,127.0,111.0,86.0,-94.0
120.0,125.0,89.0,124.0,126.0,135.0,127.0,129.0,26.0,-103.0,-72.0,127.0,127.0,127.0,111.0,86.0,-94.0
120.0,125.0,90.0,124.0,127.0,135.0,127.0,129.0,26.0,-103.0,-72.0,127.0,127.0,127.0,111.0,86.0,-94.0
120.0,125.0,90.0,125.0,127.0,135.0,127.0,129.0,26.0,-103.0,-72.0,127.0,127.0,127.0,111.0,86.0,-94.0
120.0,125.0,91.0,125.0,127.0,135.0,127.0,129.0,26.0,-103.0,-72.0,127.0,127.0,127.0,111.0,86.0,-94.0
119.0,124.0,88.0,124.0,126.0,135.0,126.0,129.0,26.0,-103.0,-72.0,127.0,127.0,127.0,111.0,86.0,-94.0
118.0,127.0,105.0,126.0,129.0,129.0,129.0,131.0,28.0,-103.0,-71.0,127.0,127.0,127.0,111.0,86.0,-94.0
118.0,127.0,106.0,126.0,129.0,129.0,129.0,131.0,28.0,-103.0,-71.0,127.0,127.0,127.0,111.0,86.0,-94.0
118.0,127.0,106.0,125.0,129.0,128.0,129.0,131.0,28.0,-103.0,-71.0,127.0,127.0,127.0,111.0,86.0,-94.0
118.0,127.0,106.0,125.0,129.0,127.0,129.0,131.0,28.0,-103.0,-71.0,127.0,127.0,127.0,111.0,86.0,-94.0
118.0,127.0,106.0,125.0,129.0,127.0,129.0,131.0,28.0,-103.0,-71.0,127.0,127.0,127.0,111.0,86.0,-94.0
118.0,127.0,106.0,125.0,129.0,127.0,129.0,131.0,28.0,-103.0,-71.0,127.0,127.0,127.0,111.0,86.0,-94.0
118.0,127.0,107.0,125.0,129.0,126.0,129.0,131.0,28.0,-103.0,-71.0,127.0,127.0,127.0,111.0,86.0,-94.0
118.0,127.0,107.0,125.0,129.0,126.0,129.0,131.0,28.0,-103.0,-71.0,127.0,127.0,127.0,111.0,86.0,-94.0
118.0,126.0,105.0,127.0,129.0,128.0,129.0,131.0,28.0,-103.0,-71.0,127.0,127.0,127.0,111.0,86.0,-94.0
118.0,127.0,105.0,127.0,129.0,129.0,129.0,131.0,28.0,-103.0,-71.0,127.0,127.0,127.0,111.0,86.0,-94.0
117.0,126.0,112.0,126.0,127.0,117.0,129.0,131.0,29.0,-105.0,-70.0,127.0,127.0,127.0,111.0,86.0,-94.0
118.0,126.0,112.0,126.0,127.0,117.0,129.0,131.0,29.0,-105.0,-70.0,127.0,127.0,127.0,111.0,86.0,-94.0
118.0,126.0,112.0,126.0,127.0,118.0,129.0,131.0,29.0,-105.0,-70.0,127.0,127.0,127.0,111.0,86.0,-94.0
118.0,127.0,112.0,126.0,127.0,118.0,129.0,131.0,29.0,-105.0,-70.0,127.0,127.0,127.0,111.0,86.0,-94.0
118.0,127.0,113.0,126.0,127.0,118.0,128.0,131.0,29.0,-105.0,-70.0,127.0,127.0,127.0,111.0,86.0,-94.0
118.0,127.0,113.0,126.0,127.0,118.0,129.0,131.0,29.0,-105.0,-70.0,127.0,127.0,127.0,111.0,86.0,-94.0
118.0,127.0,113.0,126.0,127.0,118.0,128.0,131.0,29.0,-105.0,-70.0,127.0,127.0,127.0,111.0,86.0,-94.0
117.0,126.0,112.0,126.0,127.0,118.0,129.0,131.0,29.0,-105.0,-70.0,127.0,127.0,127.0,111.0,86.0,-94.0
117.0,126.0,112.0,126.0,127.0,118.0,129.0,131.0,29.0,-105.0,-70.0,127.0,127.0,127.0,111.0,86.0,-94.0
117.0,126.0,112.0,126.0,127.0,117.0,129.0,131.0,29.0,-105.0,-70.0,127.0,127.0,127.0,111.0,86.0,-94.0
119.0,127.0,112.0,124.0,126.0,118.0,128.0,130.0,31.0,-106.0,-69.0,127.0,127.0,127.0,111.0,86.0,-94.0
119.0,127.0,112.0,125.0,126.0,118.0,129.0,130.0,31.0,-106.0,-69.0,127.0,127.0,127.0,111.0,86.0,-94.0
119.0,127.0,112.0,125.0,126.0,118.0,129.0,130.0,31.0,-106.0,-69.0,127.0,127.0,127.0,111.0,86.0,-94.0
119.0,128.0,112.0,125.0,126.0,118.0,129.0,130.0,31.0,-106.0,-69.0,127.0,127.0,127.0,111.0,86.0,-94.0
119.0,128.0,112.0,126.0,126.0,117.0,129.0,130.0,31.0,-106.0,-69.0,127.0,127.0,127.0,111.0,86.0,-94.0
119.0,128.0,112.0,126.0,126.0,117.0,129.0,130.0,31.0,-106.0,-69.0,127.0,127.0,127.0,111.0,86.0,-94.0
118.0,126.0,112.0,123.0,125.0,116.0,128.0,130.0,31.0,-106.0,-69.0,127.0,127.0,127.0,111.0,86.0,-94.0
118.0,126.0,112.0,123.0,125.0,117.0,128.0,130.0,31.0,-106.0,-69.0,127.0,127.0,127.0,111.0,86.0,-94.0
119.0,127.0,112.0,123.0,125.0,118.0,128.0,130.0,31.0,-106.0,-69.0,127.0,127.0,127.0,111.0,86.0,-94.0
119.0,127.0,112.0,124.0,125.0,119.0,128.0,130.0,31.0,-106.0,-69.0,127.0,127.0,127.0,111.0,86.0,-94.0
121.0,130.0,117.0,126.0,126.0,121.0,129.0,128.0,31.0,-106.0,-70.0,127.0,127.0,127.0,111.0,86.0,-94.0
121.0,130.0,117.0,126.0,126.0,121.0,129.0,128.0,31.0,-106.0,-70.0,127.0,127.0,127.0,111.0,86.0,-94.0
121.0,130.0,118.0,126.0,126.0,121.0,129.0,128.0,31.0,-106.0,-70.0,127.0,127.0,127.0,111.0,86.0,-94.0
122.0,130.0,118.0,126.0,126.0,122.0,129.0,128.0,31.0,-106.0,-70.0,127.0,127.0,127.0,111.0,86.0,-94.0
122.0,130.0,118.0,127.0,126.0,123.0,129.0,128.0,31.0,-106.0,-70.0,127.0,127.0,127.0,111.0,86.0,-94.0
121.0,129.0,116.0,126.0,126.0,120.0,129.0,128.0,31.0,-106.0,-70.0,127.0,127.0,127.0,111.0,86.0,-94.0
121.0,129.0,116.0,126.0,126.0,120.0,129.0,128.0,31.0,-106.0,-70.0,127.0,127.0,127.0,111.0,86.0,-94.0
121.0,130.0,117.0,126.0,126.0,122.0,129.0,128.0,31.0,-106.0,-70.0,127.0,127.0,127.0,111.0,86.0,-94.0
121.0,130.0,117.0,126.0,126.0,122.0,129.0,128.0,31.0,-106.0,-70.0,127.0,127.0,127.0,111.0,86.0,-94.0
121.0,130.0,117.0,126.0,126.0,121.0,129.0,128.0,31.0,-106.0,-70.0,127.0,127.0,127.0,111.0,86.0,-94.0
122.0,130.0,113.0,127.0,126.0,131.0,129.0,126.0,30.0,-105.0,-70.0,127.0,127.0,127.0,111.0,86.0,-94.0
122.0,130.0,113.0,127.0,126.0,131.0,129.0,126.0,30.0,-105.0,-70.0,127.0,127.0,127.0,111.0,86.0,-94.0
123.0,130.0,113.0,127.0,126.0,132.0,129.0,126.0,30.0,-105.0,-70.0,127.0,127.0,127.0,111.0,86.0,-94.0
123.0,130.0,112.0,127.0,126.0,132.0,129.0,126.0,30.0,-105.0,-70.0,127.0,127.0,127.0,111.0,86.0,-94.0
122.0,130.0,115.0,128.0,126.0,129.0,129.0,127.0,30.0,-105.0,-70.0,127.0,127.0,127.0,111.0,86.0,-94.0
122.0,130.0,115.0,128.0,126.0,129.0,129.0,126.0,30.0,-105.0,-70.0,127.0,127.0,127.0,111.0,86.0,-94.0
122.0,130.0,114.0,128.0,126.0,130.0,129.0,126.0,30.0,-105.0,-70.0,127.0,127.0,127.0,111.0,86.0,-94.0
122.0,130.0,114.0,128.0,126.0,130.0,129.0,126.0,30.0,-105.0,-70.0,127.0,127.0,127.0,111.0,86.0,-94.0
122.0,130.0,114.0,128.0,126.0,130.0,129.0,126.0,30.0,-105.0,-70.0,127.0,127.0,127.0,111.0,86.0,-94.0
122.0,130.0,113.0,128.0,126.0,131.0,129.0,126.0,30.0,-105.0,-70.0,127.0,127.0,127.0,111.0,86.0,-94.0
123.0,129.0,63.0,127.0,126.0,139.0,128.0,126.0,28.0,-104.0,-70.0,127.0,127.0,127.0,111.0,86.0,-94.0
123.0,129.0,59.0,127.0,126.0,140.0,128.0,126.0,28.0,-104.0,-70.0,127.0,127.0,127.0,111.0,86.0,-94.0
123.0,130.0,57.0,127.0,126.0,140.0,128.0,126.0,28.0,-104.0,-70.0,127.0,127.0,127.0,111.0,86.0,-94.0
122.0,128.0,81.0,127.0,126.0,136.0,128.0,126.0,28.0,-104.0,-70.0,127.0,127.0,127.0,111.0,86.0,-94.0
122.0,128.0,79.0,127.0,126.0,137.0,128.0,126.0,28.0,-104.0,-70.0,127.0,127.0,127.0,111.0,86.0,-94.0
122.0,129.0,76.0,127.0,126.0,138.0,128.0,126.0,28.0,-104.0,-70.0,127.0,127.0,127.0,111.0,86.0,-94.0
122.0,129.0,74.0,127.0,126.0,139.0,128.0,126.0,28.0,-104.0,-70.0,127.0,127.0,127.0,111.0,86.0,-94.0
122.0,129.0,71.0,127.0,126.0,139.0,128.0,126.0,28.0,-104.0,-70.0,127.0,127.0,127.0,111.0,86.0,-94.0
122.0,129.0,68.0,127.0,126.0,138.0,128.0,126.0,28.0,-104.0,-70.0,127.0,127.0,127.0,111.0,86.0,-94.0
122.0,129.0,65.0,127.0,126.0,138.0,128.0,126.0,28.0,-104.0,-70.0,127.0,127.0,127.0,111.0,86.0,-94.0
123.0,129.0,0.0,128.0,127.0,148.0,127.0,127.0,27.0,-103.0,-71.0,127.0,127.0,127.0,111.0,86.0,-94.0
124.0,129.0,0.0,128.0,127.0,149.0,127.0,127.0,27.0,-103.0,-71.0,127.0,127.0,127.0,111.0,86.0,-94.0
122.0,128.0,0.0,127.0,126.0,144.0,127.0,127.0,27.0,-103.0,-71.0,127.0,127.0,127.0,111.0,86.0,-94.0
123.0,128.0,0.0,127.0,126.0,144.0,127.0,127.0,27.0,-103.0,-71.0,127.0,127.0,127.0,111.0,86.0,-94.0
123.0,128.0,0.0,127.0,126.0,146.0,127.0,126.0,27.0,-103.0,-71.0,127.0,127.0,127.0,111.0,86.0,-94.0
123.0,129.0,0.0,127.0,126.0,147.0,127.0,126.0,27.0,-103.0,-71.0,127.0,127.0,127.0,111.0,86.0,-94.0
123.0,128.0,0.0,127.0,127.0,147.0,127.0,127.0,27.0,-103.0,-71.0,127.0,127.0,127.0,111.0,86.0,-94.0
123.0,128.0,0.0,127.0,127.0,147.0,127.0,127.0,27.0,-103.0,-71.0,127.0,127.0,127.0,111.0,86.0,-94.0
123.0,128.0,0.0,128.0,127.0,147.0,127.0,127.0,27.0,-103.0,-71.0,127.0,127.0,127.0,111.0,86.0,-94.0
123.0,128.0,0.0,128.0,127.0,147.0,127.0,127.0,27.0,-103.0,-71.0,127.0,127.0,127.0,111.0,86.0,-94.0
122.0,128.0,0.0,126.0,126.0,189.0,127.0,127.0,26.0,-104.0,-71.0,127.0,127.0,127.0,111.0,86.0,-94.0
122.0,127.0,0.0,127.0,126.0,179.0,127.0,126.0,26.0,-104.0,-71.0,127.0,127.0,127.0,111.0,86.0,-94.0
122.0,127.0,0.0,127.0,126.0,180.0,127.0,126.0,26.0,-104.0,-71.0,127.0,127.0,127.0,111.0,86.0,-94.0
122.0,127.0,0.0,126.0,126.0,182.0,127.0,126.0,26.0,-104.0,-71.0,127.0,127.0,127.0,111.0,86.0,-94.0
122.0,128.0,0.0,126.0,126.0,183.0,127.0,126.0,26.0,-104.0,-71.0,127.0,127.0,127.0,111.0,86.0,-94.0
122.0,127.0,0.0,126.0,126.0,183.0,127.0,127.0,26.0,-104.0,-71.0,127.0,127.0,127.0,111.0,86.0,-94.0
122.0,127.0,0.0,126.0,126.0,184.0,127.0,126.0,26.0,-104.0,-71.0,127.0,127.0,127.0,111.0,86.0,-94.0
122.0,128.0,0.0,126.0,126.0,186.0,127.0,127.0,26.0,-104.0,-71.0,127.0,127.0,127.0,111.0,86.0,-94.0
122.0,128.0,0.0,126.0,126.0,186.0,127.0,127.0,26.0,-104.0,-71.0,127.0,127.0,127.0,111.0,86.0,-94.0
122.0,128.0,0.0,126.0,126.0,187.0,127.0,127.0,26.0,-104.0,-71.0,127.0,127.0,127.0,111.0,86.0,-94.0
120.0,125.0,0.0,127.0,126.0,214.0,127.0,126.0,26.0,-105.0,-71.0,127.0,127.0,127.0,111.0,86.0,-94.0
120.0,125.0,0.0,127.0,126.0,215.0,127.0,126.0,26.0,-105.0,-71.0,127.0,127.0,127.0,111.0,86.0,-94.0
121.0,125.0,0.0,127.0,126.0,216.0,127.0,126.0,26.0,-105.0,-71.0,127.0,127.0,127.0,111.0,86.0,-94.0
121.0,126.0,0.0,127.0,126.0,218.0,127.0,126.0,26.0,-105.0,-71.0,127.0,127.0,127.0,111.0,86.0,-94.0
121.0,126.0,0.0,127.0,126.0,218.0,127.0,126.0,26.0,-105.0,-71.0,127.0,127.0,127.0,111.0,86.0,-94.0
121.0,126.0,0.0,127.0,126.0,219.0,127.0,126.0,26.0,-105.0,-71.0,127.0,127.0,127.0,111.0,86.0,-94.0
121.0,126.0,0.0,127.0,126.0,219.0,127.0,126.0,26.0,-105.0,-71.0,127.0,127.0,127.0,111.0,86.0,-94.0
121.0,126.0,0.0,127.0,126.0,220.0,127.0,126.0,26.0,-105.0,-71.0,127.0,127.0,127.0,111.0,86.0,-94.0
121.0,126.0,0.0,127.0,126.0,220.0,127.0,126.0,26.0,-105.0,-71.0,127.0,127.0,127.0,111.0,86.0,-94.0
122.0,127.0,0.0,127.0,126.0,222.0,127.0,126.0,26.0,-105.0,-71.0,127.0,127.0,127.0,111.0,86.0,-94.0
122.0,125.0,0.0,126.0,126.0,254.0,126.0,126.0,25.0,-105.0,-72.0,127.0,127.0,127.0,111.0,86.0,-94.0
122.0,126.0,0.0,126.0,126.0,254.0,125.0,126.0,25.0,-105.0,-72.0,127.0,127.0,127.0,111.0,86.0,-94.0
123.0,126.0,0.0,126.0,126.0,254.0,125.0,126.0,25.0,-105.0,-72.0,127.0,127.0,127.0,111.0,86.0,-94.0
123.0,126.0,0.0,127.0,126.0,254.0,125.0,126.0,25.0,-105.0,-72.0,127.0,127.0,127.0,111.0,86.0,-94.0
123.0,126.0,0.0,127.0,126.0,254.0,125.0,126.0,25.0,-105.0,-72.0,127.0,127.0,127.0,111.0,86.0,-94.0
123.0,126.0,0.0,127.0,126.0,254.0,125.0,126.0,25.0,-105.0,-72.0,127.0,127.0,127.0,111.0,86.0,-94.0
123.0,126.0,0.0,127.0,126.0,254.0,125.0,126.0,25.0,-105.0,-72.0,127.0,127.0,127.0,111.0,86.0,-94.0
123.0,126.0,0.0,127.0,126.0,254.0,125.0,126.0,25.0,-105.0,-72.0,127.0,127.0,127.0,111.0,86.0,-94.0
123.0,126.0,0.0,128.0,126.0,254.0,125.0,126.0,25.0,-105.0,-72.0,127.0,127.0,127.0,111.0,86.0,-94.0
122.0,125.0,0.0,126.0,126.0,254.0,126.0,126.0,25.0,-105.0,-72.0,127.0,127.0,127.0,111.0,86.0,-94.0
122.0,125.0,13.0,126.0,126.0,254.0,125.0,126.0,25.0,-106.0,-72.0,127.0,127.0,127.0,112.0,86.0,-94.0
122.0,125.0,18.0,126.0,126.0,254.0,125.0,126.0,25.0,-106.0,-72.0,127.0,127.0,127.0,112.0,86.0,-94.0
122.0,125.0,23.0,126.0,126.0,254.0,125.0,126.0,25.0,-106.0,-72.0,127.0,127.0,127.0,112.0,86.0,-94.0
122.0,125.0,28.0,127.0,126.0,254.0,125.0,126.0,25.0,-106.0,-72.0,127.0,127.0,127.0,112.0,86.0,-94.0
122.0,124.0,34.0,127.0,126.0,254.0,125.0,126.0,25.0,-106.0,-72.0,127.0,127.0,127.0,112.0,86.0,-94.0
122.0,124.0,40.0,127.0,126.0,254.0,125.0,126.0,25.0,-106.0,-72.0,127.0,127.0,127.0,112.0,86.0,-94.0
122.0,124.0,47.0,127.0,127.0,254.0,125.0,126.0,25.0,-106.0,-72.0,127.0,127.0,127.0,112.0,86.0,-94.0
122.0,124.0,53.0,128.0,127.0,254.0,125.0,126.0,25.0,-106.0,-72.0,127.0,127.0,127.0,112.0,86.0,-94.0
122.0,125.0,6.0,126.0,126.0,254.0,125.0,126.0,25.0,-106.0,-72.0,127.0,127.0,127.0,112.0,86.0,-94.0
122.0,125.0,9.0,126.0,126.0,254.0,125.0,126.0,25.0,-106.0,-72.0,127.0,127.0,127.0,112.0,86.0,-94.0
122.0,124.0,254.0,125.0,126.0,254.0,124.0,125.0,24.0,-106.0,-72.0,127.0,127.0,127.0,112.0,86.0,-94.0
122.0,124.0,254.0,125.0,126.0,254.0,124.0,125.0,24.0,-106.0,-72.0,127.0,127.0,127.0,112.0,86.0,-94.0
122.0,124.0,254.0,125.0,126.0,254.0,124.0,125.0,24.0,-106.0,-72.0,127.0,127.0,127.0,112.0,86.0,-94.0
122.0,125.0,254.0,126.0,126.0,254.0,124.0,125.0,24.0,-106.0,-72.0,127.0,127.0,127.0,112.0,86.0,-94.0
122.0,125.0,254.0,126.0,126.0,254.0,124.0,125.0,24.0,-106.0,-72.0,127.0,127.0,127.0,112.0,86.0,-94.0
122.0,125.0,254.0,126.0,126.0,254.0,124.0,125.0,24.0,-106.0,-72.0,127.0,127.0,127.0,112.0,86.0,-94.0
122.0,125.0,254.0,126.0,126.0,254.0,124.0,125.0,24.0,-106.0,-72.0,127.0,127.0,127.0,112.0,86.0,-94.0
122.0,124.0,254.0,125.0,126.0,254.0,124.0,125.0,24.0,-106.0,-72.0,127.0,127.0,127.0,112.0,86.0,-94.0
122.0,124.0,254.0,125.0,126.0,254.0,124.0,125.0,24.0,-106.0,-72.0,127.0,127.0,127.0,112.0,86.0,-94.0
121.0,124.0,254.0,125.0,126.0,254.0,124.0,125.0,24.0,-106.0,-72.0,127.0,127.0,127.0,112.0,86.0,-94.0
123.0,124.0,254.0,127.0,127.0,254.0,125.0,126.0,24.0,-106.0,-72.0,127.0,127.0,127.0,112.0,86.0,-94.0
123.0,125.0,254.0,127.0,127.0,254.0,126.0,126.0,24.0,-106.0,-72.0,127.0,127.0,127.0,112.0,86.0,-94.0
124.0,125.0,254.0,127.0,127.0,254.0,126.0,126.0,24.0,-106.0,-72.0,127.0,127.0,127.0,112.0,86.0,-94.0
124.0,125.0,254.0,127.0,127.0,254.0,126.0,126.0,24.0,-106.0,-72.0,127.0,127.0,127.0,112.0,86.0,-94.0
124.0,126.0,254.0,127.0,127.0,254.0,126.0,126.0,24.0,-106.0,-72.0,127.0,127.0,127.0,112.0,86.0,-94.0
124.0,126.0,254.0,127.0,127.0,254.0,126.0,126.0,24.0,-106.0,-72.0,127.0,127.0,127.0,112.0,86.0,-94.0
123.0,124.0,254.0,127.0,126.0,254.0,125.0,126.0,24.0,-106.0,-72.0,127.0,127.0,127.0,112.0,86.0,-94.0
123.0,124.0,254.0,127.0,127.0,254.0,125.0,126.0,24.0,-106.0,-72.0,127.0,127.0,127.0,112.0,86.0,-94.0
123.0,124.0,254.0,127.0,127.0,254.0,125.0,126.0,24.0,-106.0,-72.0,127.0,127.0,127.0,112.0,86.0,-94.0
123.0,124.0,254.0,127.0,127.0,254.0,125.0,126.0,24.0,-106.0,-72.0,127.0,127.0,127.0,112.0,86.0,-94.0
125.0,127.0,254.0,127.0,127.0,236.0,127.0,127.0,25.0,-106.0,-73.0,127.0,127.0,127.0,112.0,86.0,-94.0
125.0,128.0,254.0,127.0,127.0,235.0,127.0,127.0,25.0,-106.0,-73.0,127.0,127.0,127.0,112.0,86.0,-94.0
126.0,128.0,254.0,128.0,127.0,234.0,127.0,127.0,25.0,-106.0,-73.0,127.0,127.0,127.0,112.0,86.0,-94.0
126.0,128.0,254.0,128.0,127.0,233.0,128.0,127.0,25.0,-106.0,-73.0,127.0,127.0,127.0,112.0,86.0,-94.0
126.0,128.0,254.0,128.0,127.0,231.0,127.0,127.0,25.0,-106.0,-73.0,127.0,127.0,127.0,112.0,86.0,-94.0
125.0,127.0,254.0,127.0,127.0,242.0,127.0,127.0,25.0,-106.0,-73.0,127.0,127.0,127.0,112.0,86.0,-94.0
125.0,127.0,254.0,127.0,127.0,241.0,127.0,127.0,25.0,-106.0,-73.0,127.0,127.0,127.0,112.0,86.0,-94.0
125.0,127.0,254.0,127.0,127.0,240.0,127.0,127.0,25.0,-106.0,-73.0,127.0,127.0,127.0,112.0,86.0,-94.0
125.0,127.0,254.0,127.0,127.0,238.0,127.0,127.0,25.0,-106.0,-73.0,127.0,127.0,127.0,112.0,86.0,-94.0
125.0,127.0,254.0,127.0,127.0,237.0,127.0,127.0,25.0,-106.0,-73.0,127.0,127.0,127.0,112.0,86.0,-94.0
126.0,128.0,254.0,127.0,127.0,185.0,127.0,127.0,25.0,-106.0,-73.0,127.0,127.0,127.0,112.0,86.0,-94.0
127.0,128.0,254.0,127.0,127.0,185.0,127.0,127.0,25.0,-106.0,-73.0,127.0,127.0,127.0,112.0,86.0,-94.0
127.0,128.0,254.0,127.0,127.0,184.0,127.0,127.0,25.0,-106.0,-73.0,127.0,127.0,127.0,112.0,86.0,-94.0
127.0,128.0,254.0,127.0,127.0,183.0,127.0,127.0,25.0,-106.0,-73.0,127.0,127.0,127.0,112.0,86.0,-94.0
126.0,128.0,254.0,127.0,127.0,189.0,127.0,127.0,25.0,-106.0,-73.0,127.0,127.0,127.0,112.0,86.0,-94.0
126.0,128.0,254.0,127.0,127.0,189.0,127.0,127.0,25.0,-106.0,-73.0,127.0,127.0,127.0,112.0,86.0,-94.0
126.0,128.0,254.0,127.0,127.0,188.0,127.0,127.0,25.0,-106.0,-73.0,127.0,127.0,127.0,112.0,86.0,-94.0
126.0,128.0,254.0,127.0,127.0,187.0,127.0,127.0,25.0,-106.0,-73.0,127.0,127.0,127.0,112.0,86.0,-94.0
126.0,128.0,254.0,127.0,127.0,187.0,127.0,127.0,25.0,-106.0,-73.0,127.0,127.0,127.0,112.0,86.0,-94.0
126.0,128.0,254.0,127.0,127.0,186.0,127.0,127.0,25.0,-106.0,-73.0,127.0,127.0,127.0,112.0,86.0,-94.0
126.0,126.0,254.0,129.0,127.0,159.0,127.0,128.0,25.0,-106.0,-73.0,127.0,127.0,127.0,112.0,86.0,-94.0
126.0,126.0,254.0,129.0,127.0,159.0,127.0,128.0,25.0,-106.0,-73.0,127.0,127.0,127.0,112.0,86.0,-94.0
126.0,126.0,254.0,129.0,127.0,158.0,126.0,128.0,25.0,-106.0,-73.0,127.0,127.0,127.0,112.0,86.0,-94.0
126.0,126.0,254.0,130.0,127.0,161.0,126.0,127.0,25.0,-106.0,-73.0,127.0,127.0,127.0,112.0,86.0,-94.0
126.0,126.0,254.0,130.0,127.0,161.0,126.0,128.0,25.0,-106.0,-73.0,127.0,127.0,127.0,112.0,86.0,-94.0
126.0,126.0,254.0,130.0,127.0,161.0,126.0,128.0,25.0,-106.0,-73.0,127.0,127.0,127.0,112.0,86.0,-94.0
126.0,126.0,254.0,130.0,127.0,160.0,126.0,128.0,25.0,-106.0,-73.0,127.0,127.0,127.0,112.0,86.0,-94.0
126.0,126.0,254.0,130.0,127.0,160.0,126.0,128.0,25.0,-106.0,-73.0,127.0,127.0,127.0,112.0,86.0,-94.0
126.0,126.0,254.0,129.0,127.0,160.0,126.0,128.0,25.0,-106.0,-73.0,127.0,127.0,127.0,112.0,86.0,-94.0
126.0,126.0,254.0,129.0,127.0,159.0,126.0,128.0,25.0,-106.0,-73.0,127.0,127.0,127.0,112.0,86.0,-94.0
127.0,126.0,254.0,127.0,127.0,149.0,126.0,127.0,25.0,-107.0,-72.0,127.0,127.0,127.0,112.0,86.0,-94.0
127.0,126.0,254.0,127.0,127.0,149.0,126.0,127.0,25.0,-107.0,-72.0,127.0,127.0,127.0,112.0,86.0,-94.0
127.0,126.0,254.0,127.0,127.0,151.0,126.0,127.0,25.0,-107.0,-72.0,127.0,127.0,127.0,112.0,86.0,-94.0
127.0,127.0,254.0,127.0,127.0,152.0,126.0,127.0,25.0,-107.0,-72.0,127.0,127.0,127.0,112.0,86.0,-94.0
127.0,127.0,254.0,127.0,127.0,151.0,126.0,127.0,25.0,-107.0,-72.0,127.0,127.0,127.0,112.0,86.0,-94.0
127.0,126.0,254.0,127.0,127.0,151.0,126.0,127.0,25.0,-107.0,-72.0,127.0,127.0,127.0,112.0,86.0,-94.0
126.0,126.0,254.0,127.0,127.0,150.0,126.0,127.0,25.0,-107.0,-72.0,127.0,127.0,127.0,112.0,86.0,-94.0
126.0,126.0,254.0,127.0,127.0,150.0,126.0,127.0,25.0,-107.0,-72.0,127.0,127.0,127.0,112.0,86.0,-94.0
126.0,126.0,254.0,127.0,127.0,149.0,126.0,127.0,25.0,-107.0,-72.0,127.0,127.0,127.0,112.0,86.0,-94.0
126.0,126.0,254.0,127.0,127.0,149.0,126.0,127.0,25.0,-107.0,-72.0,127.0,127.0,127.0,112.0,86.0,-94.0
125.0,125.0,254.0,127.0,126.0,142.0,125.0,127.0,26.0,-107.0,-72.0,127.0,127.0,127.0,112.0,86.0,-94.0
125.0,125.0,254.0,128.0,127.0,143.0,125.0,127.0,26.0,-107.0,-72.0,127.0,127.0,127.0,112.0,86.0,-94.0
125.0,125.0,254.0,128.0,127.0,143.0,125.0,127.0,26.0,-107.0,-72.0,127.0,127.0,127.0,112.0,86.0,-94.0
125.0,125.0,254.0,128.0,127.0,143.0,125.0,127.0,26.0,-107.0,-72.0,127.0,127.0,127.0,112.0,86.0,-94.0
125.0,125.0,254.0,127.0,127.0,143.0,125.0,127.0,26.0,-107.0,-72.0,127.0,127.0,127.0,112.0,86.0,-94.0
125.0,125.0,254.0,127.0,127.0,143.0,125.0,127.0,26.0,-107.0,-72.0,127.0,127.0,127.0,112.0,86.0,-94.0
125.0,125.0,254.0,127.0,127.0,143.0,125.0,127.0,26.0,-107.0,-72.0,127.0,127.0,127.0,112.0,86.0,-94.0
125.0,125.0,254.0,127.0,126.0,142.0,125.0,127.0,26.0,-107.0,-72.0,127.0,127.0,127.0,112.0,86.0,-94.0
125.0,125.0,254.0,127.0,126.0,142.0,125.0,127.0,26.0,-107.0,-72.0,127.0,127.0,127.0,112.0,86.0,-94.0
125.0,125.0,254.0,127.0,126.0,142.0,125.0,127.0,26.0,-107.0,-72.0,127.0,127.0,127.0,112.0,86.0,-94.0
124.0,123.0,254.0,126.0,126.0,141.0,124.0,126.0,27.0,-106.0,-72.0,127.0,127.0,127.0,112.0,86.0,-94.0
124.0,123.0,254.0,126.0,126.0,141.0,124.0,126.0,27.0,-106.0,-72.0,127.0,127.0,127.0,112.0,86.0,-94.0
124.0,123.0,254.0,126.0,126.0,141.0,124.0,126.0,27.0,-106.0,-72.0,127.0,127.0,127.0,112.0,86.0,-94.0
124.0,123.0,254.0,126.0,126.0,141.0,124.0,126.0,27.0,-106.0,-72.0,127.0,127.0,127.0,112.0,86.0,-94.0
123.0,123.0,254.0,126.0,126.0,141.0,124.0,126.0,27.0,-106.0,-72.0,127.0,127.0,127.0,112.0,86.0,-94.0
124.0,123.0,254.0,126.0,126.0,140.0,123.0,126.0,27.0,-106.0,-72.0,127.0,127.0,127.0,112.0,86.0,-94.0
124.0,123.0,254.0,126.0,126.0,141.0,123.0,126.0,27.0,-106.0,-72.0,127.0,127.0,127.0,112.0,86.0,-94.0
124.0,123.0,254.0,126.0,126.0,140.0,123.0,126.0,27.0,-106.0,-72.0,127.0,127.0,127.0,112.0,86.0,-94.0
124.0,123.0,254.0,126.0,126.0,140.0,123.0,126.0,27.0,-106.0,-72.0,127.0,127.0,127.0,112.0,86.0,-94.0
124.0,124.0,254.0,126.0,126.0,140.0,123.0,126.0,27.0,-106.0,-72.0,127.0,127.0,127.0,112.0,86.0,-94.0
124.0,124.0,254.0,126.0,126.0,140.0,122.0,125.0,28.0,-105.0,-72.0,127.0,127.0,127.0,112.0,86.0,-94.0
124.0,124.0,254.0,126.0,127.0,140.0,122.0,125.0,28.0,-105.0,-72.0,127.0,127.0,127.0,112.0,86.0,-94.0
124.0,123.0,254.0,126.0,127.0,140.0,122.0,125.0,28.0,-105.0,-72.0,127.0,127.0,127.0,112.0,86.0,-94.0
124.0,123.0,254.0,126.0,127.0,140.0,122.0,125.0,28.0,-105.0,-72.0,127.0,127.0,127.0,112.0,86.0,-94.0
124.0,123.0,254.0,126.0,127.0,139.0,122.0,125.0,28.0,-105.0,-72.0,127.0,127.0,127.0,112.0,86.0,-94.0
124.0,123.0,254.0,127.0,127.0,139.0,122.0,125.0,28.0,-105.0,-72.0,127.0,127.0,127.0,112.0,86.0,-94.0
124.0,123.0,254.0,127.0,127.0,139.0,122.0,125.0,28.0,-105.0,-72.0,127.0,127.0,127.0,112.0,86.0,-94.0
124.0,123.0,254.0,127.0,126.0,139.0,122.0,125.0,28.0,-105.0,-72.0,127.0,127.0,127.0,112.0,86.0,-94.0
124.0,123.0,254.0,127.0,127.0,138.0,122.0,125.0,28.0,-105.0,-72.0,127.0,127.0,127.0,112.0,86.0,-94.0
124.0,123.0,254.0,126.0,126.0,140.0,122.0,125.0,28.0,-105.0,-72.0,127.0,127.0,127.0,112.0,86.0,-94.0
126.0,124.0,254.0,127.0,127.0,137.0,123.0,126.0,28.0,-104.0,-72.0,127.0,127.0,127.0,112.0,86.0,-94.0
126.0,124.0,254.0,127.0,127.0,137.0,123.0,126.0,28.0,-104.0,-72.0,127.0,127.0,127.0,112.0,86.0,-94.0
126.0,124.0,254.0,127.0,127.0,137.0,123.0,126.0,28.0,-104.0,-72.0,127.0,127.0,127.0,112.0,86.0,-94.0
126.0,125.0,254.0,127.0,127.0,138.0,123.0,126.0,28.0,-104.0,-72.0,127.0,127.0,127.0,112.0,86.0,-94.0
126.0,125.0,254.0,127.0,127.0,137.0,123.0,126.0,28.0,-104.0,-72.0,127.0,127.0,127.0,112.0,86.0,-94.0
126.0,125.0,254.0,127.0,127.0,137.0,124.0,126.0,28.0,-104.0,-72.0,127.0,127.0,127.0,112.0,86.0,-94.0
126.0,125.0,254.0,127.0,127.0,137.0,124.0,126.0,28.0,-104.0,-72.0,127.0,127.0,127.0,112.0,86.0,-94.0
126.0,125.0,254.0,127.0,127.0,136.0,124.0,126.0,28.0,-104.0,-72.0,127.0,127.0,127.0,112.0,86.0,-94.0
125.0,123.0,254.0,127.0,127.0,137.0,123.0,126.0,28.0,-104.0,-72.0,127.0,127.0,127.0,112.0,86.0,-94.0
125.0,124.0,254.0,127.0,127.0,137.0,123.0,126.0,28.0,-104.0,-72.0,127.0,127.0,127.0,112.0,86.0,-94.0
128.0,127.0,254.0,127.0,126.0,133.0,128.0,129.0,28.0,-104.0,-72.0,127.0,127.0,127.0,112.0,86.0,-94.0
128.0,127.0,254.0,127.0,126.0,133.0,128.0,129.0,28.0,-104.0,-72.0,127.0,127.0,127.0,112.0,86.0,-94.0
128.0,127.0,254.0,127.0,126.0,133.0,128.0,129.0,28.0,-104.0,-72.0,127.0,127.0,127.0,112.0,86.0,-94.0
128.0,127.0,254.0,128.0,127.0,133.0,128.0,129.0,28.0,-104.0,-72.0,127.0,127.0,127.0,112.0,86.0,-94.0
128.0,127.0,254.0,128.0,127.0,132.0,128.0,129.0,28.0,-104.0,-72.0,127.0,127.0,127.0,112.0,86.0,-94.0
128.0,127.0,254.0,128.0,127.0,132.0,129.0,129.0,28.0,-104.0,-72.0,127.0,127.0,127.0,112.0,86.0,-94.0
129.0,128.0,254.0,128.0,127.0,132.0,129.0,129.0,28.0,-104.0,-72.0,127.0,127.0,127.0,112.0,86.0,-94.0
128.0,127.0,254.0,127.0,126.0,133.0,128.0,128.0,28.0,-104.0,-72.0,127.0,127.0,127.0,112.0,86.0,-94.0
128.0,127.0,254.0,127.0,126.0,133.0,128.0,129.0,28.0,-104.0,-72.0,127.0,127.0,127.0,112.0,86.0,-94.0
128.0,127.0,254.0,127.0,126.0,133.0,128.0,129.0,28.0,-104.0,-72.0,127.0,127.0,127.0,112.0,86.0,-94.0
128.0,127.0,227.0,128.0,127.0,133.0,129.0,128.0,28.0,-104.0,-72.0,126.0,127.0,127.0,112.0,86.0,-94.0
128.0,128.0,224.0,128.0,127.0,134.0,129.0,128.0,28.0,-104.0,-72.0,126.0,127.0,127.0,112.0,86.0,-94.0
128.0,128.0,222.0,128.0,127.0,134.0,129.0,128.0,28.0,-104.0,-72.0,126.0,127.0,127.0,112.0,86.0,-94.0
127.0,128.0,220.0,128.0,127.0,134.0,129.0,129.0,28.0,-104.0,-72.0,126.0,127.0,127.0,112.0,86.0,-94.0
127.0,127.0,218.0,128.0,127.0,133.0,129.0,129.0,28.0,-104.0,-72.0,126.0,127.0,127.0,112.0,86.0,-94.0
127.0,127.0,215.0,128.0,127.0,133.0,129.0,129.0,28.0,-104.0,-72.0,126.0,127.0,127.0,112.0,86.0,-94.0
128.0,128.0,235.0,128.0,127.0,134.0,129.0,129.0,28.0,-104.0,-72.0,126.0,127.0,127.0,112.0,86.0,-94.0
128.0,128.0,233.0,128.0,127.0,134.0,129.0,129.0,28.0,-104.0,-72.0,126.0,127.0,127.0,112.0,86.0,-94.0
128.0,128.0,231.0,128.0,127.0,133.0,129.0,129.0,28.0,-104.0,-72.0,126.0,127.0,127.0,112.0,86.0,-94.0
128.0,128.0,229.0,128.0,127.0,133.0,129.0,128.0,28.0,-104.0,-72.0,126.0,127.0,127.0,112.0,86.0,-94.0
127.0,127.0,146.0,129.0,127.0,132.0,129.0,129.0,28.0,-104.0,-72.0,126.0,127.0,127.0,112.0,86.0,-94.0
127.0,128.0,145.0,129.0,127.0,132.0,129.0,129.0,28.0,-104.0,-72.0,126.0,127.0,127.0,112.0,86.0,-94.0
127.0,128.0,144.0,129.0,127.0,131.0,129.0,129.0,28.0,-104.0,-72.0,126.0,127.0,127.0,112.0,86.0,-94.0
127.0,127.0,143.0,129.0,127.0,131.0,129.0,129.0,28.0,-104.0,-72.0,126.0,127.0,127.0,112.0,86.0,-94.0
127.0,127.0,142.0,129.0,127.0,131.0,129.0,129.0,28.0,-104.0,-72.0,126.0,127.0,127.0,112.0,86.0,-94.0
127.0,128.0,150.0,129.0,127.0,134.0,129.0,128.0,28.0,-104.0,-72.0,126.0,127.0,127.0,112.0,86.0,-94.0
127.0,128.0,149.0,129.0,127.0,133.0,129.0,128.0,28.0,-104.0,-72.0,126.0,127.0,127.0,112.0,86.0,-94.0
127.0,128.0,148.0,129.0,127.0,133.0,129.0,128.0,28.0,-104.0,-72.0,126.0,127.0,127.0,112.0,86.0,-94.0
127.0,128.0,147.0,129.0,127.0,133.0,129.0,128.0,28.0,-104.0,-72.0,126.0,127.0,127.0,112.0,86.0,-94.0
127.0,128.0,147.0,129.0,127.0,132.0,129.0,128.0,28.0,-104.0,-72.0,126.0,127.0,127.0,112.0,86.0,-94.0
126.0,129.0,124.0,130.0,127.0,129.0,129.0,129.0,27.0,-105.0,-72.0,127.0,127.0,127.0,112.0,86.0,-94.0
126.0,129.0,124.0,130.0,127.0,129.0,130.0,129.0,27.0,-105.0,-72.0,127.0,127.0,127.0,112.0,86.0,-94.0
127.0,129.0,124.0,130.0,127.0,129.0,130.0,129.0,27.0,-105.0,-72.0,127.0,127.0,127.0,112.0,86.0,-94.0
127.0,129.0,124.0,130.0,127.0,129.0,130.0,129.0,27.0,-105.0,-72.0,127.0,127.0,127.0,112.0,86.0,-94.0
126.0,129.0,124.0,130.0,127.0,129.0,129.0,129.0,27.0,-105.0,-72.0,127.0,127.0,127.0,112.0,86.0,-94.0
126.0,129.0,124.0,130.0,127.0,129.0,129.0,129.0,27.0,-105.0,-72.0,127.0,127.0,127.0,112.0,86.0,-94.0
126.0,128.0,124.0,130.0,127.0,129.0,129.0,129.0,27.0,-105.0,-72.0,127.0,127.0,127.0,112.0,86.0,-94.0
126.0,128.0,124.0,130.0,127.0,129.0,129.0,129.0,27.0,-105.0,-72.0,127.0,127.0,127.0,112.0,86.0,-94.0
126.0,129.0,124.0,130.0,127.0,129.0,129.0,129.0,27.0,-105.0,-72.0,127.0,127.0,127.0,112.0,86.0,-94.0
126.0,129.0,124.0,130.0,127.0,129.0,129.0,129.0,27.0,-105.0,-72.0,127.0,127.0,127.0,112.0,86.0,-94.0
128.0,130.0,112.0,131.0,127.0,130.0,130.0,129.0,26.0,-105.0,-72.0,127.0,127.0,127.0,112.0,86.0,-94.0
128.0,130.0,111.0,131.0,127.0,130.0,130.0,129.0,26.0,-105.0,-72.0,127.0,127.0,127.0,112.0,86.0,-94.0
129.0,130.0,110.0,131.0,128.0,130.0,130.0,129.0,26.0,-105.0,-72.0,127.0,127.0,127.0,112.0,86.0,-94.0
128.0,130.0,116.0,131.0,128.0,130.0,130.0,129.0,26.0,-105.0,-72.0,127.0,127.0,127.0,112.0,86.0,-94.0
128.0,130.0,115.0,131.0,128.0,129.0,130.0,129.0,26.0,-105.0,-72.0,127.0,127.0,127.0,112.0,86.0,-94.0
128.0,130.0,115.0,131.0,128.0,129.0,130.0,129.0,26.0,-105.0,-72.0,127.0,127.0,127.0,112.0,86.0,-94.0
128.0,130.0,114.0,131.0,128.0,129.0,130.0,129.0,26.0,-105.0,-72.0,127.0,127.0,127.0,112.0,86.0,-94.0
128.0,130.0,114.0,131.0,127.0,129.0,130.0,129.0,26.0,-105.0,-72.0,127.0,127.0,127.0,112.0,86.0,-94.0
128.0,130.0,113.0,131.0,127.0,129.0,130.0,129.0,26.0,-105.0,-72.0,127.0,127.0,127.0,112.0,86.0,-94.0
128.0,130.0,112.0,131.0,127.0,130.0,130.0,129.0,26.0,-105.0,-72.0,127.0,127.0,127.0,112.0,86.0,-94.0
127.0,129.0,85.0,130.0,127.0,128.0,129.0,128.0,26.0,-105.0,-72.0,127.0,127.0,127.0,112.0,86.0,-94.0
127.0,128.0,89.0,130.0,127.0,127.0,129.0,129.0,26.0,-105.0,-72.0,127.0,127.0,127.0,112.0,86.0,-94.0
127.0,128.0,88.0,130.0,127.0,127.0,129.0,128.0,26.0,-105.0,-72.0,127.0,127.0,127.0,112.0,86.0,-94.0
127.0,128.0,88.0,130.0,127.0,127.0,129.0,128.0,26.0,-105.0,-72.0,127.0,127.0,127.0,112.0,86.0,-94.0
127.0,128.0,87.0,130.0,127.0,128.0,129.0,128.0,26.0,-105.0,-72.0,127.0,127.0,127.0,112.0,86.0,-94.0
127.0,128.0,87.0,130.0,127.0,128.0,129.0,128.0,26.0,-105.0,-72.0,127.0,127.0,127.0,112.0,86.0,-94.0
127.0,128.0,87.0,130.0,127.0,128.0,129.0,128.0,26.0,-105.0,-72.0,127.0,127.0,127.0,112.0,86.0,-94.0
127.0,128.0,86.0,130.0,127.0,128.0,129.0,128.0,26.0,-105.0,-72.0,127.0,127.0,127.0,112.0,86.0,-94.0
127.0,129.0,86.0,130.0,127.0,128.0,129.0,128.0,26.0,-105.0,-72.0,127.0,127.0,127.0,112.0,86.0,-94.0
127.0,129.0,85.0,130.0,127.0,128.0,129.0,128.0,26.0,-105.0,-72.0,127.0,127.0,127.0,112.0,86.0,-94.0
127.0,128.0,67.0,131.0,127.0,127.0,129.0,128.0,25.0,-105.0,-72.0,127.0,127.0,127.0,112.0,86.0,-94.0
127.0,128.0,67.0,131.0,127.0,127.0,129.0,128.0,25.0,-105.0,-72.0,127.0,127.0,127.0,112.0,86.0,-94.0
127.0,128.0,66.0,131.0,127.0,127.0,129.0,128.0,25.0,-105.0,-72.0,127.0,127.0,127.0,112.0,86.0,-94.0
127.0,128.0,66.0,131.0,127.0,128.0,129.0,128.0,25.0,-105.0,-72.0,127.0,127.0,127.0,112.0,86.0,-94.0
127.0,128.0,65.0,131.0,127.0,128.0,129.0,128.0,25.0,-105.0,-72.0,127.0,127.0,127.0,112.0,86.0,-94.0
127.0,128.0,65.0,131.0,127.0,128.0,129.0,128.0,25.0,-105.0,-72.0,127.0,127.0,127.0,112.0,86.0,-94.0
127.0,128.0,65.0,131.0,127.0,128.0,129.0,128.0,25.0,-105.0,-72.0,127.0,127.0,127.0,112.0,86.0,-94.0
127.0,128.0,65.0,131.0,127.0,127.0,129.0,128.0,25.0,-105.0,-72.0,127.0,127.0,127.0,112.0,86.0,-94.0
127.0,128.0,64.0,131.0,127.0,127.0,129.0,128.0,25.0,-105.0,-72.0,127.0,127.0,127.0,112.0,86.0,-94.0
127.0,128.0,64.0,131.0,127.0,127.0,129.0,128.0,25.0,-105.0,-72.0,127.0,127.0,127.0,112.0,86.0,-94.0
127.0,128.0,54.0,135.0,127.0,130.0,128.0,127.0,25.0,-105.0,-73.0,127.0,127.0,127.0,112.0,86.0,-94.0
127.0,128.0,54.0,135.0,127.0,130.0,128.0,127.0,25.0,-105.0,-73.0,127.0,127.0,127.0,112.0,86.0,-94.0
127.0,128.0,54.0,135.0,127.0,129.0,128.0,127.0,25.0,-105.0,-73.0,127.0,127.0,127.0,112.0,86.0,-94.0
127.0,128.0,53.0,135.0,127.0,129.0,128.0,127.0,25.0,-105.0,-73.0,127.0,127.0,127.0,112.0,86.0,-94.0
127.0,128.0,53.0,135.0,127.0,129.0,128.0,127.0,25.0,-105.0,-73.0,127.0,127.0,127.0,112.0,86.0,-94.0
127.0,128.0,53.0,135.0,127.0,129.0,128.0,127.0,25.0,-105.0,-73.0,127.0,127.0,127.0,112.0,86.0,-94.0
127.0,128.0,53.0,135.0,127.0,130.0,127.0,127.0,25.0,-105.0,-73.0,127.0,127.0,127.0,112.0,86.0,-94.0
127.0,128.0,52.0,135.0,127.0,130.0,127.0,127.0,25.0,-105.0,-73.0,127.0,127.0,127.0,112.0,86.0,-94.0
127.0,128.0,52.0,135.0,127.0,130.0,127.0,127.0,25.0,-105.0,-73.0,127.0,127.0,127.0,112.0,86.0,-94.0
127.0,128.0,54.0,135.0,127.0,129.0,128.0,127.0,25.0,-105.0,-73.0,127.0,127.0,127.0,112.0,86.0,-94.0
127.0,127.0,49.0,129.0,126.0,130.0,127.0,127.0,24.0,-105.0,-73.0,127.0,127.0,127.0,112.0,86.0,-94.0
127.0,127.0,49.0,129.0,126.0,130.0,127.0,127.0,24.0,-105.0,-73.0,127.0,127.0,127.0,112.0,86.0,-94.0
126.0,127.0,49.0,128.0,126.0,130.0,127.0,127.0,24.0,-105.0,-73.0,127.0,127.0,127.0,112.0,86.0,-94.0
126.0,127.0,49.0,128.0,126.0,130.0,127.0,127.0,24.0,-105.0,-73.0,127.0,127.0,127.0,112.0,86.0,-94.0
126.0,127.0,50.0,128.0,126.0,130.0,127.0,127.0,24.0,-105.0,-73.0,127.0,127.0,127.0,112.0,86.0,-94.0
126.0,127.0,50.0,128.0,126.0,129.0,127.0,127.0,24.0,-105.0,-73.0,127.0,127.0,127.0,112.0,86.0,-94.0
126.0,127.0,50.0,128.0,126.0,129.0,127.0,127.0,24.0,-105.0,-73.0,127.0,127.0,127.0,112.0,86.0,-94.0
126.0,127.0,50.0,128.0,126.0,129.0,128.0,127.0,24.0,-105.0,-73.0,127.0,127.0,127.0,112.0,86.0,-94.0
127.0,127.0,49.0,129.0,126.0,130.0,127.0,127.0,24.0,-105.0,-73.0,127.0,127.0,127.0,112.0,86.0,-94.0
127.0,127.0,49.0,129.0,126.0,130.0,127.0,127.0,24.0,-105.0,-73.0,127.0,127.0,127.0,112.0,86.0,-94.0
126.0,127.0,52.0,126.0,126.0,131.0,126.0,127.0,24.0,-105.0,-74.0,127.0,127.0,127.0,112.0,86.0,-94.0
126.0,127.0,52.0,126.0,126.0,130.0,126.0,127.0,24.0,-105.0,-74.0,127.0,127.0,127.0,112.0,86.0,-94.0
126.0,127.0,52.0,126.0,126.0,130.0,126.0,127.0,24.0,-105.0,-74.0,127.0,127.0,127.0,112.0,86.0,-94.0
126.0,126.0,52.0,126.0,126.0,130.0,126.0,127.0,24.0,-105.0,-74.0,127.0,127.0,127.0,112.0,86.0,-94.0
126.0,126.0,52.0,126.0,126.0,130.0,126.0,128.0,24.0,-105.0,-74.0,127.0,127.0,127.0,112.0,86.0,-94.0
126.0,126.0,52.0,126.0,126.0,130.0,126.0,128.0,24.0,-105.0,-74.0,127.0,127.0,127.0,112.0,86.0,-94.0
126.0,126.0,52.0,126.0,126.0,130.0,126.0,128.0,24.0,-105.0,-74.0,127.0,127.0,127.0,112.0,86.0,-94.0
127.0,127.0,51.0,127.0,126.0,131.0,126.0,127.0,24.0,-105.0,-74.0,127.0,127.0,127.0,112.0,86.0,-94.0
127.0,127.0,51.0,127.0,126.0,131.0,126.0,127.0,24.0,-105.0,-74.0,127.0,127.0,127.0,112.0,86.0,-94.0
127.0,127.0,51.0,127.0,126.0,131.0,126.0,127.0,24.0,-105.0,-74.0,127.0,127.0,127.0,112.0,86.0,-94.0
126.0,126.0,63.0,124.0,125.0,130.0,125.0,127.0,24.0,-105.0,-75.0,-128.0,127.0,127.0,112.0,86.0,-94.0
126.0,126.0,63.0,124.0,125.0,130.0,125.0,127.0,24.0,-105.0,-75.0,-128.0,127.0,127.0,112.0,86.0,-94.0
126.0,126.0,63.0,124.0,125.0,129.0,125.0,127.0,24.0,-105.0,-75.0,-128.0,127.0,127.0,112.0,86.0,-94.0
126.0,126.0,63.0,124.0,125.0,130.0,125.0,127.0,24.0,-105.0,-75.0,-128.0,127.0,127.0,112.0,86.0,-94.0
127.0,126.0,63.0,124.0,125.0,130.0,125.0,127.0,24.0,-105.0,-75.0,-128.0,127.0,127.0,112.0,86.0,-94.0
127.0,126.0,64.0,124.0,125.0,130.0,125.0,127.0,24.0,-105.0,-75.0,-128.0,127.0,127.0,112.0,86.0,-94.0
126.0,125.0,61.0,124.0,125.0,129.0,125.0,127.0,24.0,-105.0,-75.0,-128.0,127.0,127.0,112.0,86.0,-94.0
126.0,126.0,62.0,125.0,125.0,130.0,125.0,127.0,24.0,-105.0,-75.0,-128.0,127.0,127.0,112.0,86.0,-94.0
126.0,126.0,62.0,124.0,125.0,130.0,125.0,127.0,24.0,-105.0,-75.0,-128.0,127.0,127.0,112.0,86.0,-94.0
126.0,126.0,62.0,124.0,125.0,130.0,125.0,127.0,24.0,-105.0,-75.0,-128.0,127.0,127.0,112.0,86.0,-94.0
126.0,126.0,70.0,124.0,125.0,129.0,124.0,126.0,23.0,-105.0,-76.0,-128.0,127.0,127.0,112.0,86.0,-94.0
126.0,126.0,71.0,124.0,125.0,129.0,124.0,126.0,23.0,-105.0,-76.0,-128.0,127.0,127.0,112.0,86.0,-94.0
126.0,126.0,71.0,124.0,125.0,129.0,124.0,126.0,23.0,-105.0,-76.0,-128.0,127.0,127.0,112.0,86.0,-94.0
126.0,126.0,71.0,124.0,125.0,129.0,124.0,126.0,23.0,-105.0,-76.0,-128.0,127.0,127.0,112.0,86.0,-94.0
126.0,126.0,71.0,124.0,125.0,129.0,124.0,126.0,23.0,-105.0,-76.0,-128.0,127.0,127.0,112.0,86.0,-94.0
126.0,126.0,70.0,125.0,125.0,128.0,124.0,126.0,23.0,-105.0,-76.0,-128.0,127.0,127.0,112.0,86.0,-94.0
126.0,126.0,70.0,125.0,125.0,129.0,124.0,126.0,23.0,-105.0,-76.0,-128.0,127.0,127.0,112.0,86.0,-94.0
126.0,126.0,70.0,125.0,125.0,129.0,124.0,126.0,23.0,-105.0,-76.0,-128.0,127.0,127.0,112.0,86.0,-94.0
126.0,126.0,70.0,125.0,125.0,129.0,124.0,126.0,23.0,-105.0,-76.0,-128.0,127.0,127.0,112.0,86.0,-94.0
126.0,126.0,70.0,125.0,125.0,129.0,124.0,126.0,23.0,-105.0,-76.0,-128.0,127.0,127.0,112.0,86.0,-94.0
125.0,125.0,79.0,123.0,125.0,129.0,124.0,126.0,23.0,-105.0,-76.0,127.0,127.0,127.0,112.0,86.0,-94.0
125.0,125.0,79.0,123.0,125.0,129.0,124.0,126.0,23.0,-105.0,-76.0,127.0,127.0,127.0,112.0,86.0,-94.0
125.0,125.0,80.0,123.0,125.0,129.0,124.0,126.0,23.0,-105.0,-76.0,127.0,127.0,127.0,112.0,86.0,-94.0
125.0,125.0,79.0,123.0,125.0,129.0,124.0,126.0,23.0,-105.0,-76.0,127.0,127.0,127.0,112.0,86.0,-94.0
126.0,126.0,78.0,123.0,125.0,130.0,124.0,126.0,23.0,-105.0,-76.0,127.0,127.0,127.0,112.0,86.0,-94.0
126.0,125.0,78.0,123.0,125.0,130.0,124.0,126.0,23.0,-105.0,-76.0,127.0,127.0,127.0,112.0,86.0,-94.0
125.0,125.0,79.0,123.0,125.0,129.0,124.0,126.0,23.0,-105.0,-76.0,127.0,127.0,127.0,112.0,86.0,-94.0
125.0,125.0,79.0,123.0,125.0,129.0,124.0,126.0,23.0,-105.0,-76.0,127.0,127.0,127.0,112.0,86.0,-94.0
125.0,125.0,79.0,123.0,125.0,129.0,124.0,126.0,23.0,-105.0,-76.0,127.0,127.0,127.0,112.0,86.0,-94.0
125.0,125.0,79.0,123.0,125.0,129.0,124.0,126.0,23.0,-105.0,-76.0,127.0,127.0,127.0,112.0,86.0,-94.0
127.0,127.0,85.0,124.0,126.0,131.0,126.0,128.0,22.0,-105.0,-77.0,127.0,127.0,127.0,112.0,86.0,-94.0
128.0,127.0,85.0,124.0,126.0,132.0,126.0,128.0,22.0,-105.0,-77.0,127.0,127.0,127.0,112.0,86.0,-94.0
128.0,128.0,86.0,124.0,126.0,132.0,126.0,128.0,22.0,-105.0,-77.0,127.0,127.0,127.0,112.0,86.0,-94.0
127.0,127.0,84.0,124.0,126.0,130.0,126.0,128.0,22.0,-105.0,-77.0,127.0,127.0,127.0,112.0,86.0,-94.0
127.0,127.0,84.0,124.0,126.0,131.0,126.0,128.0,22.0,-105.0,-77.0,127.0,127.0,127.0,112.0,86.0,-94.0
127.0,127.0,85.0,124.0,126.0,131.0,126.0,128.0,22.0,-105.0,-77.0,127.0,127.0,127.0,112.0,86.0,-94.0
127.0,127.0,85.0,124.0,126.0,131.0,126.0,128.0,22.0,-105.0,-77.0,127.0,127.0,127.0,112.0,86.0,-94.0
127.0,127.0,85.0,124.0,126.0,131.0,126.0,128.0,22.0,-105.0,-77.0,127.0,127.0,127.0,112.0,86.0,-94.0
127.0,127.0,85.0,124.0,126.0,131.0,126.0,128.0,22.0,-105.0,-77.0,127.0,127.0,127.0,112.0,86.0,-94.0
127.0,127.0,85.0,124.0,126.0,131.0,126.0,128.0,22.0,-105.0,-77.0,127.0,127.0,127.0,112.0,86.0,-94.0
129.0,129.0,91.0,124.0,126.0,132.0,127.0,128.0,21.0,-105.0,-77.0,127.0,127.0,127.0,112.0,86.0,-94.0
129.0,129.0,91.0,124.0,126.0,132.0,127.0,128.0,21.0,-105.0,-77.0,127.0,127.0,127.0,112.0,86.0,-94.0
129.0,128.0,91.0,124.0,126.0,130.0,127.0,129.0,21.0,-105.0,-77.0,127.0,127.0,127.0,112.0,86.0,-94.0
129.0,128.0,90.0,124.0,126.0,131.0,127.0,129.0,21.0,-105.0,-77.0,127.0,127.0,127.0,112.0,86.0,-94.0
129.0,128.0,91.0,124.0,126.0,131.0,127.0,129.0,21.0,-105.0,-77.0,127.0,127.0,127.0,112.0,86.0,-94.0
129.0,128.0,91.0,124.0,126.0,131.0,127.0,129.0,21.0,-105.0,-77.0,127.0,127.0,127.0,112.0,86.0,-94.0
129.0,128.0,91.0,124.0,126.0,131.0,127.0,129.0,21.0,-105.0,-77.0,127.0,127.0,127.0,112.0,86.0,-94.0
129.0,128.0,91.0,124.0,126.0,131.0,127.0,129.0,21.0,-105.0,-77.0,127.0,127.0,127.0,112.0,86.0,-94.0
129.0,128.0,91.0,124.0,126.0,131.0,127.0,129.0,21.0,-105.0,-77.0,127.0,127.0,127.0,112.0,86.0,-94.0
129.0,128.0,91.0,124.0,126.0,131.0,127.0,128.0,21.0,-105.0,-77.0,127.0,127.0,127.0,112.0,86.0,-94.0
128.0,128.0,99.0,124.0,126.0,132.0,126.0,127.0,21.0,-105.0,-78.0,127.0,127.0,127.0,112.0,86.0,-94.0
128.0,128.0,98.0,124.0,126.0,131.0,126.0,127.0,21.0,-105.0,-78.0,127.0,127.0,127.0,112.0,86.0,-94.0
128.0,128.0,98.0,124.0,126.0,131.0,126.0,127.0,21.0,-105.0,-78.0,127.0,127.0,127.0,112.0,86.0,-94.0
128.0,128.0,98.0,124.0,126.0,132.0,126.0,127.0,21.0,-105.0,-78.0,127.0,127.0,127.0,112.0,86.0,-94.0
128.0,128.0,98.0,124.0,126.0,131.0,126.0,127.0,21.0,-105.0,-78.0,127.0,127.0,127.0,112.0,86.0,-94.0
128.0,128.0,98.0,124.0,126.0,131.0,126.0,127.0,21.0,-105.0,-78.0,127.0,127.0,127.0,112.0,86.0,-94.0
128.0,128.0,98.0,124.0,126.0,132.0,126.0,127.0,21.0,-105.0,-78.0,127.0,127.0,127.0,112.0,86.0,-94.0
128.0,128.0,99.0,124.0,126.0,132.0,126.0,127.0,21.0,-105.0,-78.0,127.0,127.0,127.0,112.0,86.0,-94.0
128.0,127.0,99.0,124.0,126.0,131.0,126.0,127.0,21.0,-105.0,-78.0,127.0,127.0,127.0,112.0,86.0,-94.0
128.0,128.0,99.0,124.0,126.0,132.0,126.0,127.0,21.0,-105.0,-78.0,127.0,127.0,127.0,112.0,86.0,-94.0
126.0,126.0,105.0,124.0,126.0,129.0,125.0,127.0,21.0,-105.0,-78.0,127.0,127.0,127.0,112.0,86.0,-94.0
126.0,126.0,105.0,124.0,126.0,129.0,125.0,127.0,21.0,-105.0,-78.0,127.0,127.0,127.0,112.0,86.0,-94.0
127.0,126.0,105.0,124.0,126.0,130.0,125.0,127.0,21.0,-105.0,-78.0,127.0,127.0,127.0,112.0,86.0,-94.0
127.0,126.0,105.0,124.0,126.0,130.0,125.0,127.0,21.0,-105.0,-78.0,127.0,127.0,127.0,112.0,86.0,-94.0
127.0,126.0,105.0,124.0,126.0,130.0,125.0,127.0,21.0,-105.0,-78.0,127.0,127.0,127.0,112.0,86.0,-94.0
126.0,126.0,105.0,124.0,126.0,130.0,125.0,127.0,21.0,-105.0,-78.0,127.0,127.0,127.0,112.0,86.0,-94.0
126.0,126.0,105.0,124.0,126.0,130.0,125.0,127.0,21.0,-105.0,-78.0,127.0,127.0,127.0,112.0,86.0,-94.0
126.0,126.0,105.0,124.0,126.0,130.0,125.0,127.0,21.0,-105.0,-78.0,127.0,127.0,127.0,112.0,86.0,-94.0
127.0,126.0,105.0,124.0,126.0,131.0,125.0,127.0,21.0,-105.0,-78.0,127.0,127.0,127.0,112.0,86.0,-94.0
127.0,126.0,105.0,124.0,126.0,131.0,125.0,127.0,21.0,-105.0,-78.0,127.0,127.0,127.0,112.0,86.0,-94.0
127.0,126.0,109.0,124.0,126.0,131.0,126.0,127.0,21.0,-104.0,-78.0,127.0,127.0,127.0,112.0,86.0,-94.0
127.0,126.0,109.0,124.0,126.0,130.0,126.0,127.0,21.0,-104.0,-78.0,127.0,127.0,127.0,112.0,86.0,-94.0
127.0,126.0,109.0,124.0,126.0,130.0,126.0,127.0,21.0,-104.0,-78.0,127.0,127.0,127.0,112.0,86.0,-94.0
127.0,125.0,109.0,124.0,126.0,130.0,126.0,127.0,21.0,-104.0,-78.0,127.0,127.0,127.0,112.0,86.0,-94.0
127.0,126.0,109.0,124.0,126.0,131.0,126.0,127.0,21.0,-104.0,-78.0,127.0,127.0,127.0,112.0,86.0,-94.0
127.0,126.0,109.0,124.0,126.0,131.0,126.0,127.0,21.0,-104.0,-78.0,127.0,127.0,127.0,112.0,86.0,-94.0
127.0,126.0,109.0,124.0,126.0,131.0,126.0,127.0,21.0,-104.0,-78.0,127.0,127.0,127.0,112.0,86.0,-94.0
127.0,126.0,109.0,124.0,126.0,131.0,126.0,127.0,21.0,-104.0,-78.0,127.0,127.0,127.0,112.0,86.0,-94.0
127.0,126.0,109.0,124.0,126.0,132.0,126.0,127.0,21.0,-104.0,-78.0,127.0,127.0,127.0,112.0,86.0,-94.0
127.0,126.0,109.0,124.0,126.0,131.0,126.0,127.0,21.0,-104.0,-78.0,127.0,127.0,127.0,112.0,86.0,-94.0
127.0,125.0,113.0,124.0,127.0,132.0,126.0,127.0,21.0,-104.0,-78.0,127.0,127.0,127.0,112.0,86.0,-94.0
126.0,125.0,113.0,124.0,127.0,132.0,126.0,127.0,21.0,-104.0,-78.0,127.0,127.0,127.0,112.0,86.0,-94.0
126.0,125.0,113.0,124.0,127.0,132.0,126.0,127.0,21.0,-104.0,-78.0,127.0,127.0,127.0,112.0,86.0,-94.0
126.0,125.0,113.0,124.0,127.0,132.0,125.0,127.0,21.0,-104.0,-78.0,127.0,127.0,127.0,112.0,86.0,-94.0
126.0,125.0,113.0,124.0,127.0,132.0,125.0,127.0,21.0,-104.0,-78.0,127.0,127.0,127.0,112.0,86.0,-94.0
126.0,125.0,113.0,124.0,127.0,132.0,125.0,127.0,21.0,-104.0,-78.0,127.0,127.0,127.0,112.0,86.0,-94.0
126.0,125.0,113.0,124.0,127.0,132.0,125.0,127.0,21.0,-104.0,-78.0,127.0,127.0,127.0,112.0,86.0,-94.0
126.0,124.0,114.0,124.0,127.0,132.0,125.0,127.0,21.0,-104.0,-78.0,127.0,127.0,127.0,112.0,86.0,-94.0
127.0,125.0,112.0,124.0,127.0,132.0,126.0,127.0,21.0,-104.0,-78.0,127.0,127.0,127.0,112.0,86.0,-94.0
126.0,125.0,112.0,124.0,127.0,131.0,126.0,127.0,21.0,-104.0,-78.0,127.0,127.0,127.0,112.0,86.0,-94.0
125.0,123.0,117.0,125.0,126.0,131.0,123.0,128.0,22.0,-104.0,-78.0,127.0,127.0,127.0,112.0,86.0,-94.0
125.0,123.0,117.0,125.0,126.0,131.0,123.0,128.0,22.0,-104.0,-78.0,127.0,127.0,127.0,112.0,86.0,-94.0
126.0,123.0,117.0,125.0,126.0,132.0,123.0,128.0,22.0,-104.0,-78.0,127.0,127.0,127.0,112.0,86.0,-94.0
126.0,123.0,117.0,125.0,126.0,132.0,123.0,128.0,22.0,-104.0,-78.0,127.0,127.0,127.0,112.0,86.0,-94.0
126.0,123.0,117.0,125.0,126.0,132.0,123.0,128.0,22.0,-104.0,-78.0,127.0,127.0,127.0,112.0,86.0,-94.0
126.0,123.0,117.0,125.0,126.0,132.0,123.0,128.0,22.0,-104.0,-78.0,127.0,127.0,127.0,112.0,86.0,-94.0
126.0,123.0,117.0,125.0,126.0,132.0,123.0,128.0,22.0,-104.0,-78.0,127.0,127.0,127.0,112.0,86.0,-94.0
126.0,123.0,116.0,125.0,127.0,131.0,123.0,128.0,22.0,-104.0,-78.0,127.0,127.0,127.0,112.0,86.0,-94.0
126.0,123.0,116.0,125.0,126.0,131.0,123.0,128.0,22.0,-104.0,-78.0,127.0,127.0,127.0,112.0,86.0,-94.0
125.0,123.0,117.0,125.0,126.0,131.0,123.0,128.0,22.0,-104.0,-78.0,127.0,127.0,127.0,112.0,86.0,-94.0
125.0,123.0,119.0,124.0,126.0,132.0,122.0,128.0,22.0,-103.0,-78.0,127.0,127.0,127.0,112.0,86.0,-94.0
125.0,123.0,119.0,124.0,126.0,132.0,122.0,128.0,22.0,-103.0,-78.0,127.0,127.0,127.0,112.0,86.0,-94.0
125.0,123.0,119.0,124.0,126.0,131.0,122.0,128.0,22.0,-103.0,-78.0,127.0,127.0,127.0,112.0,86.0,-94.0
125.0,123.0,119.0,124.0,126.0,132.0,122.0,128.0,22.0,-103.0,-78.0,127.0,127.0,127.0,112.0,86.0,-94.0
125.0,123.0,119.0,124.0,126.0,132.0,122.0,128.0,22.0,-103.0,-78.0,127.0,127.0,127.0,112.0,86.0,-94.0
125.0,123.0,119.0,124.0,126.0,132.0,122.0,128.0,22.0,-103.0,-78.0,127.0,127.0,127.0,112.0,86.0,-94.0
125.0,123.0,119.0,124.0,126.0,130.0,122.0,128.0,22.0,-103.0,-78.0,127.0,127.0,127.0,112.0,86.0,-94.0
125.0,123.0,119.0,124.0,126.0,131.0,122.0,128.0,22.0,-103.0,-78.0,127.0,127.0,127.0,112.0,86.0,-94.0
125.0,123.0,119.0,124.0,126.0,131.0,122.0,128.0,22.0,-103.0,-78.0,127.0,127.0,127.0,112.0,86.0,-94.0
125.0,123.0,119.0,124.0,126.0,132.0,122.0,128.0,22.0,-103.0,-78.0,127.0,127.0,127.0,112.0,86.0,-94.0
126.0,126.0,118.0,125.0,127.0,129.0,126.0,129.0,23.0,-103.0,-78.0,127.0,127.0,127.0,112.0,86.0,-94.0
126.0,126.0,118.0,125.0,127.0,129.0,126.0,129.0,23.0,-103.0,-78.0,127.0,127.0,127.0,112.0,86.0,-94.0
126.0,126.0,118.0,125.0,127.0,129.0,126.0,129.0,23.0,-103.0,-78.0,127.0,127.0,127.0,112.0,86.0,-94.0
126.0,126.0,118.0,125.0,127.0,129.0,126.0,129.0,23.0,-103.0,-78.0,127.0,127.0,127.0,112.0,86.0,-94.0
127.0,126.0,118.0,125.0,127.0,130.0,126.0,129.0,23.0,-103.0,-78.0,127.0,127.0,127.0,112.0,86.0,-94.0
126.0,125.0,118.0,125.0,127.0,128.0,126.0,129.0,23.0,-103.0,-78.0,127.0,127.0,127.0,112.0,86.0,-94.0
126.0,125.0,118.0,125.0,127.0,129.0,126.0,129.0,23.0,-103.0,-78.0,127.0,127.0,127.0,112.0,86.0,-94.0
126.0,126.0,118.0,125.0,127.0,129.0,126.0,129.0,23.0,-103.0,-78.0,127.0,127.0,127.0,112.0,86.0,-94.0
127.0,126.0,118.0,125.0,127.0,130.0,126.0,129.0,23.0,-103.0,-78.0,127.0,127.0,127.0,112.0,86.0,-94.0
127.0,126.0,118.0,125.0,127.0,130.0,126.0,129.0,23.0,-103.0,-78.0,127.0,127.0,127.0,112.0,86.0,-94.0
128.0,128.0,118.0,126.0,127.0,128.0,129.0,129.0,23.0,-104.0,-77.0,127.0,127.0,127.0,112.0,86.0,-94.0
128.0,128.0,118.0,126.0,127.0,128.0,129.0,129.0,23.0,-104.0,-77.0,127.0,127.0,127.0,112.0,86.0,-94.0
128.0,128.0,118.0,126.0,127.0,127.0,129.0,129.0,23.0,-104.0,-77.0,127.0,127.0,127.0,112.0,86.0,-94.0
127.0,128.0,118.0,126.0,127.0,127.0,129.0,129.0,23.0,-104.0,-77.0,127.0,127.0,127.0,112.0,86.0,-94.0
128.0,129.0,117.0,126.0,127.0,128.0,129.0,129.0,23.0,-104.0,-77.0,127.0,127.0,127.0,112.0,86.0,-94.0
128.0,128.0,117.0,126.0,127.0,128.0,129.0,129.0,23.0,-104.0,-77.0,127.0,127.0,127.0,112.0,86.0,-94.0
128.0,128.0,118.0,126.0,127.0,127.0,129.0,129.0,23.0,-104.0,-77.0,127.0,127.0,127.0,112.0,86.0,-94.0
127.0,128.0,118.0,126.0,127.0,127.0,129.0,129.0,23.0,-104.0,-77.0,127.0,127.0,127.0,112.0,86.0,-94.0
127.0,128.0,118.0,126.0,127.0,127.0,129.0,129.0,23.0,-104.0,-77.0,127.0,127.0,127.0,112.0,86.0,-94.0
127.0,128.0,118.0,125.0,127.0,127.0,129.0,129.0,23.0,-104.0,-77.0,127.0,127.0,127.0,112.0,86.0,-94.0
127.0,127.0,120.0,125.0,127.0,128.0,127.0,128.0,23.0,-104.0,-77.0,127.0,127.0,127.0,112.0,86.0,-94.0
127.0,127.0,120.0,125.0,127.0,128.0,127.0,128.0,23.0,-104.0,-77.0,127.0,127.0,127.0,112.0,86.0,-94.0
127.0,127.0,119.0,125.0,127.0,127.0,128.0,128.0,23.0,-104.0,-77.0,127.0,127.0,127.0,112.0,86.0,-94.0
127.0,127.0,119.0,126.0,127.0,127.0,128.0,128.0,23.0,-104.0,-77.0,127.0,127.0,127.0,112.0,86.0,-94.0
127.0,127.0,120.0,125.0,127.0,127.0,128.0,128.0,23.0,-104.0,-77.0,127.0,127.0,127.0,112.0,86.0,-94.0
127.0,127.0,120.0,125.0,127.0,127.0,127.0,128.0,23.0,-104.0,-77.0,127.0,127.0,127.0,112.0,86.0,-94.0
126.0,127.0,120.0,125.0,127.0,127.0,127.0,128.0,23.0,-104.0,-77.0,127.0,127.0,127.0,112.0,86.0,-94.0
126.0,127.0,120.0,125.0,127.0,127.0,127.0,128.0,23.0,-104.0,-77.0,127.0,127.0,127.0,112.0,86.0,-94.0
126.0,127.0,120.0,125.0,127.0,127.0,127.0,128.0,23.0,-104.0,-77.0,127.0,127.0,127.0,112.0,86.0,-94.0
127.0,127.0,120.0,125.0,127.0,128.0,127.0,128.0,23.0,-104.0,-77.0,127.0,127.0,127.0,112.0,86.0,-94.0
128.0,128.0,120.0,126.0,127.0,127.0,127.0,128.0,22.0,-104.0,-77.0,127.0,127.0,127.0,112.0,86.0,-94.0
127.0,128.0,120.0,126.0,127.0,126.0,127.0,128.0,22.0,-104.0,-77.0,127.0,127.0,127.0,112.0,86.0,-94.0
128.0,128.0,119.0,126.0,127.0,126.0,128.0,128.0,22.0,-104.0,-77.0,127.0,127.0,127.0,112.0,86.0,-94.0
128.0,128.0,120.0,126.0,127.0,126.0,128.0,128.0,22.0,-104.0,-77.0,127.0,127.0,127.0,112.0,86.0,-94.0
127.0,128.0,120.0,126.0,127.0,126.0,127.0,128.0,22.0,-104.0,-77.0,127.0,127.0,127.0,112.0,86.0,-94.0
127.0,128.0,120.0,126.0,127.0,126.0,127.0,128.0,22.0,-104.0,-77.0,127.0,127.0,127.0,112.0,86.0,-94.0
127.0,128.0,120.0,126.0,127.0,126.0,127.0,128.0,22.0,-104.0,-77.0,127.0,127.0,127.0,112.0,86.0,-94.0
127.0,128.0,120.0,126.0,127.0,126.0,127.0,128.0,22.0,-104.0,-77.0,127.0,127.0,127.0,112.0,86.0,-94.0
128.0,128.0,119.0,126.0,127.0,127.0,127.0,128.0,22.0,-104.0,-77.0,127.0,127.0,127.0,112.0,86.0,-94.0
128.0,128.0,120.0,126.0,127.0,127.0,127.0,128.0,22.0,-104.0,-77.0,127.0,127.0,127.0,112.0,86.0,-94.0
128.0,129.0,121.0,126.0,127.0,127.0,128.0,129.0,22.0,-104.0,-76.0,127.0,127.0,127.0,112.0,86.0,-94.0
128.0,129.0,121.0,126.0,127.0,127.0,128.0,129.0,22.0,-104.0,-76.0,127.0,127.0,127.0,112.0,86.0,-94.0
128.0,129.0,121.0,126.0,127.0,127.0,128.0,129.0,22.0,-104.0,-76.0,127.0,127.0,127.0,112.0,86.0,-94.0
128.0,129.0,121.0,126.0,127.0,127.0,128.0,129.0,22.0,-104.0,-76.0,127.0,127.0,127.0,112.0,86.0,-94.0
128.0,129.0,121.0,126.0,127.0,127.0,128.0,129.0,22.0,-104.0,-76.0,127.0,127.0,127.0,112.0,86.0,-94.0
128.0,129.0,121.0,126.0,127.0,128.0,128.0,129.0,22.0,-104.0,-76.0,127.0,127.0,127.0,112.0,86.0,-94.0
128.0,129.0,121.0,126.0,127.0,128.0,128.0,129.0,22.0,-104.0,-76.0,127.0,127.0,127.0,112.0,86.0,-94.0
128.0,129.0,121.0,126.0,127.0,129.0,128.0,129.0,22.0,-104.0,-76.0,127.0,127.0,127.0,112.0,86.0,-94.0
128.0,129.0,121.0,126.0,127.0,129.0,128.0,129.0,22.0,-104.0,-76.0,127.0,127.0,127.0,112.0,86.0,-94.0
128.0,129.0,121.0,126.0,127.0,129.0,129.0,129.0,22.0,-104.0,-76.0,127.0,127.0,127.0,112.0,86.0,-94.0
129.0,129.0,121.0,126.0,127.0,129.0,129.0,129.0,21.0,-104.0,-76.0,127.0,127.0,127.0,112.0,86.0,-94.0
129.0,129.0,121.0,126.0,127.0,129.0,129.0,129.0,21.0,-104.0,-76.0,127.0,127.0,127.0,112.0,86.0,-94.0
129.0,129.0,121.0,126.0,127.0,129.0,129.0,129.0,21.0,-104.0,-76.0,127.0,127.0,127.0,112.0,86.0,-94.0
129.0,129.0,121.0,126.0,127.0,130.0,129.0,129.0,21.0,-104.0,-76.0,127.0,127.0,127.0,112.0,86.0,-94.0
129.0,129.0,121.0,125.0,127.0,130.0,129.0,129.0,21.0,-104.0,-76.0,127.0,127.0,127.0,112.0,86.0,-94.0
129.0,129.0,121.0,126.0,127.0,130.0,129.0,129.0,21.0,-104.0,-76.0,127.0,127.0,127.0,112.0,86.0,-94.0
129.0,129.0,121.0,126.0,127.0,130.0,129.0,129.0,21.0,-104.0,-76.0,127.0,127.0,127.0,112.0,86.0,-94.0
129.0,129.0,121.0,126.0,127.0,130.0,129.0,129.0,21.0,-104.0,-76.0,127.0,127.0,127.0,112.0,86.0,-94.0
129.0,129.0,121.0,126.0,127.0,130.0,129.0,129.0,21.0,-104.0,-76.0,127.0,127.0,127.0,112.0,86.0,-94.0
129.0,129.0,121.0,126.0,127.0,129.0,129.0,129.0,21.0,-104.0,-76.0,127.0,127.0,127.0,112.0,86.0,-94.0
128.0,128.0,123.0,126.0,127.0,127.0,129.0,130.0,21.0,-104.0,-77.0,127.0,127.0,127.0,112.0,86.0,-94.0
128.0,128.0,123.0,126.0,127.0,127.0,129.0,130.0,21.0,-104.0,-77.0,127.0,127.0,127.0,112.0,86.0,-94.0
128.0,128.0,123.0,126.0,127.0,128.0,129.0,129.0,21.0,-104.0,-77.0,127.0,127.0,127.0,112.0,86.0,-94.0
128.0,128.0,123.0,126.0,127.0,129.0,129.0,129.0,21.0,-104.0,-77.0,127.0,127.0,127.0,112.0,86.0,-94.0
128.0,128.0,123.0,126.0,127.0,128.0,129.0,129.0,21.0,-104.0,-77.0,127.0,127.0,127.0,112.0,86.0,-94.0
128.0,128.0,123.0,126.0,127.0,128.0,129.0,129.0,21.0,-104.0,-77.0,127.0,127.0,127.0,112.0,86.0,-94.0
128.0,128.0,123.0,126.0,127.0,128.0,129.0,129.0,21.0,-104.0,-77.0,127.0,127.0,127.0,112.0,86.0,-94.0
128.0,128.0,123.0,126.0,127.0,128.0,129.0,129.0,21.0,-104.0,-77.0,127.0,127.0,127.0,112.0,86.0,-94.0
128.0,128.0,123.0,126.0,127.0,127.0,129.0,130.0,21.0,-104.0,-77.0,127.0,127.0,127.0,112.0,86.0,-94.0
128.0,127.0,123.0,126.0,127.0,127.0,129.0,130.0,21.0,-104.0,-77.0,127.0,127.0,127.0,112.0,86.0,-94.0
128.0,128.0,123.0,126.0,127.0,129.0,128.0,129.0,20.0,-105.0,-77.0,127.0,127.0,127.0,112.0,86.0,-94.0
128.0,128.0,124.0,126.0,127.0,129.0,128.0,129.0,20.0,-105.0,-77.0,127.0,127.0,127.0,112.0,86.0,-94.0
128.0,128.0,124.0,125.0,127.0,129.0,128.0,129.0,20.0,-105.0,-77.0,127.0,127.0,127.0,112.0,86.0,-94.0
128.0,128.0,124.0,125.0,127.0,129.0,128.0,129.0,20.0,-105.0,-77.0,127.0,127.0,127.0,112.0,86.0,-94.0
128.0,128.0,124.0,125.0,127.0,129.0,128.0,129.0,20.0,-105.0,-77.0,127.0,127.0,127.0,112.0,86.0,-94.0
127.0,128.0,124.0,125.0,127.0,129.0,128.0,129.0,20.0,-105.0,-77.0,127.0,127.0,127.0,112.0,86.0,-94.0
127.0,128.0,124.0,125.0,127.0,129.0,128.0,129.0,20.0,-105.0,-77.0,127.0,127.0,127.0,112.0,86.0,-94.0
128.0,128.0,123.0,126.0,127.0,128.0,128.0,129.0,20.0,-105.0,-77.0,127.0,127.0,127.0,112.0,86.0,-94.0
128.0,129.0,123.0,126.0,127.0,129.0,128.0,129.0,20.0,-105.0,-77.0,127.0,127.0,127.0,112.0,86.0,-94.0
128.0,128.0,123.0,126.0,127.0,129.0,128.0,129.0,20.0,-105.0,-77.0,127.0,127.0,127.0,112.0,86.0,-94.0
128.0,128.0,124.0,125.0,127.0,131.0,127.0,129.0,20.0,-105.0,-77.0,127.0,127.0,127.0,112.0,86.0,-94.0
128.0,128.0,124.0,126.0,127.0,131.0,127.0,129.0,20.0,-105.0,-77.0,127.0,127.0,127.0,112.0,86.0,-94.0
128.0,128.0,125.0,125.0,127.0,131.0,127.0,129.0,20.0,-105.0,-77.0,127.0,127.0,127.0,112.0,86.0,-94.0
128.0,128.0,124.0,125.0,127.0,131.0,127.0,129.0,20.0,-105.0,-77.0,127.0,127.0,127.0,112.0,86.0,-94.0
128.0,128.0,124.0,125.0,127.0,132.0,127.0,129.0,20.0,-105.0,-77.0,127.0,127.0,127.0,112.0,86.0,-94.0
128.0,128.0,125.0,125.0,127.0,132.0,127.0,129.0,20.0,-105.0,-77.0,127.0,127.0,127.0,112.0,86.0,-94.0
127.0,128.0,125.0,126.0,127.0,129.0,128.0,129.0,20.0,-105.0,-77.0,127.0,127.0,127.0,112.0,86.0,-94.0
128.0,128.0,124.0,126.0,127.0,130.0,128.0,129.0,20.0,-105.0,-77.0,127.0,127.0,127.0,112.0,86.0,-94.0
128.0,128.0,124.0,126.0,127.0,130.0,128.0,129.0,20.0,-105.0,-77.0,127.0,127.0,127.0,112.0,86.0,-94.0
128.0,128.0,125.0,126.0,127.0,130.0,128.0,129.0,20.0,-105.0,-77.0,127.0,127.0,127.0,112.0,86.0,-94.0
126.0,126.0,125.0,125.0,127.0,128.0,127.0,128.0,20.0,-105.0,-78.0,127.0,127.0,127.0,112.0,86.0,-94.0
126.0,126.0,125.0,125.0,127.0,128.0,127.0,128.0,20.0,-105.0,-78.0,127.0,127.0,127.0,112.0,86.0,-94.0
126.0,126.0,125.0,125.0,126.0,128.0,127.0,128.0,20.0,-105.0,-78.0,127.0,127.0,127.0,112.0,86.0,-94.0
126.0,126.0,125.0,125.0,127.0,129.0,127.0,128.0,20.0,-105.0,-78.0,127.0,127.0,127.0,112.0,86.0,-94.0
126.0,126.0,125.0,125.0,126.0,129.0,127.0,128.0,20.0,-105.0,-78.0,127.0,127.0,127.0,112.0,86.0,-94.0
126.0,127.0,125.0,125.0,126.0,128.0,127.0,129.0,20.0,-105.0,-78.0,127.0,127.0,127.0,112.0,86.0,-94.0
126.0,127.0,125.0,125.0,127.0,128.0,127.0,128.0,20.0,-105.0,-78.0,127.0,127.0,127.0,112.0,86.0,-94.0
126.0,127.0,125.0,125.0,127.0,129.0,127.0,128.0,20.0,-105.0,-78.0,127.0,127.0,127.0,112.0,86.0,-94.0
126.0,127.0,125.0,125.0,127.0,128.0,127.0,128.0,20.0,-105.0,-78.0,127.0,127.0,127.0,112.0,86.0,-94.0
126.0,126.0,125.0,125.0,127.0,128.0,127.0,128.0,20.0,-105.0,-78.0,127.0,127.0,127.0,112.0,86.0,-94.0
126.0,126.0,127.0,125.0,127.0,128.0,125.0,127.0,20.0,-105.0,-78.0,127.0,127.0,127.0,112.0,86.0,-94.0
126.0,126.0,127.0,125.0,127.0,128.0,125.0,127.0,20.0,-105.0,-78.0,127.0,127.0,127.0,112.0,86.0,-94.0
126.0,125.0,127.0,125.0,127.0,128.0,125.0,127.0,20.0,-105.0,-78.0,127.0,127.0,127.0,112.0,86.0,-94.0
126.0,125.0,127.0,125.0,127.0,128.0,125.0,127.0,20.0,-105.0,-78.0,127.0,127.0,127.0,112.0,86.0,-94.0
126.0,126.0,126.0,125.0,127.0,127.0,126.0,128.0,20.0,-105.0,-78.0,127.0,127.0,127.0,112.0,86.0,-94.0
126.0,126.0,126.0,125.0,127.0,127.0,126.0,127.0,20.0,-105.0,-78.0,127.0,127.0,127.0,112.0,86.0,-94.0
127.0,126.0,126.0,125.0,127.0,128.0,126.0,127.0,20.0,-105.0,-78.0,127.0,127.0,127.0,112.0,86.0,-94.0
126.0,126.0,126.0,125.0,127.0,128.0,126.0,127.0,20.0,-105.0,-78.0,127.0,127.0,127.0,112.0,86.0,-94.0
126.0,126.0,127.0,125.0,127.0,128.0,125.0,127.0,20.0,-105.0,-78.0,127.0,127.0,127.0,112.0,86.0,-94.0
126.0,126.0,126.0,125.0,127.0,128.0,125.0,127.0,20.0,-105.0,-78.0,127.0,127.0,127.0,112.0,86.0,-94.0
126.0,125.0,128.0,124.0,126.0,128.0,125.0,127.0,20.0,-105.0,-79.0,127.0,127.0,127.0,112.0,86.0,-94.0
125.0,125.0,128.0,124.0,126.0,128.0,125.0,127.0,20.0,-105.0,-79.0,127.0,127.0,127.0,112.0,86.0,-94.0
125.0,125.0,128.0,124.0,126.0,128.0,125.0,127.0,20.0,-105.0,-79.0,127.0,127.0,127.0,112.0,86.0,-94.0
126.0,126.0,127.0,125.0,126.0,129.0,125.0,127.0,20.0,-105.0,-79.0,127.0,127.0,127.0,112.0,86.0,-94.0
126.0,126.0,127.0,125.0,126.0,128.0,125.0,127.0,20.0,-105.0,-79.0,127.0,127.0,127.0,112.0,86.0,-94.0
126.0,125.0,127.0,125.0,126.0,128.0,125.0,127.0,20.0,-105.0,-79.0,127.0,127.0,127.0,112.0,86.0,-94.0
126.0,125.0,127.0,125.0,126.0,128.0,125.0,127.0,20.0,-105.0,-79.0,127.0,127.0,127.0,112.0,86.0,-94.0
126.0,125.0,128.0,125.0,126.0,128.0,124.0,127.0,20.0,-105.0,-79.0,127.0,127.0,127.0,112.0,86.0,-94.0
126.0,125.0,127.0,125.0,126.0,129.0,124.0,127.0,20.0,-105.0,-79.0,127.0,127.0,127.0,112.0,86.0,-94.0
126.0,125.0,128.0,125.0,126.0,129.0,124.0,127.0,20.0,-105.0,-79.0,127.0,127.0,127.0,112.0,86.0,-94.0
125.0,123.0,128.0,125.0,126.0,128.0,124.0,127.0,20.0,-105.0,-79.0,127.0,127.0,127.0,112.0,86.0,-94.0
125.0,123.0,128.0,125.0,126.0,128.0,124.0,127.0,20.0,-105.0,-79.0,127.0,127.0,127.0,112.0,86.0,-94.0
125.0,125.0,127.0,125.0,127.0,128.0,124.0,127.0,20.0,-105.0,-79.0,127.0,127.0,127.0,112.0,86.0,-94.0
125.0,124.0,128.0,125.0,127.0,128.0,124.0,127.0,20.0,-105.0,-79.0,127.0,127.0,127.0,112.0,86.0,-94.0
125.0,124.0,128.0,125.0,127.0,128.0,124.0,127.0,20.0,-105.0,-79.0,127.0,127.0,127.0,112.0,86.0,-94.0
125.0,124.0,128.0,125.0,127.0,128.0,124.0,127.0,20.0,-105.0,-79.0,127.0,127.0,127.0,112.0,86.0,-94.0
125.0,124.0,128.0,125.0,126.0,128.0,124.0,127.0,20.0,-105.0,-79.0,127.0,127.0,127.0,112.0,86.0,-94.0
125.0,124.0,128.0,125.0,126.0,128.0,124.0,127.0,20.0,-105.0,-79.0,127.0,127.0,127.0,112.0,86.0,-94.0
125.0,124.0,128.0,125.0,126.0,128.0,124.0,127.0,20.0,-105.0,-79.0,127.0,127.0,127.0,112.0,86.0,-94.0
125.0,124.0,128.0,125.0,126.0,128.0,124.0,127.0,20.0,-105.0,-79.0,127.0,127.0,127.0,112.0,86.0,-94.0
127.0,126.0,126.0,126.0,127.0,129.0,126.0,127.0,20.0,-105.0,-79.0,127.0,127.0,127.0,112.0,86.0,-94.0
126.0,126.0,126.0,126.0,126.0,127.0,126.0,127.0,20.0,-105.0,-79.0,127.0,127.0,127.0,112.0,86.0,-94.0
126.0,126.0,126.0,126.0,127.0,127.0,126.0,127.0,20.0,-105.0,-79.0,127.0,127.0,127.0,112.0,86.0,-94.0
127.0,126.0,126.0,126.0,127.0,128.0,126.0,127.0,20.0,-105.0,-79.0,127.0,127.0,127.0,112.0,86.0,-94.0
127.0,126.0,126.0,126.0,127.0,128.0,126.0,127.0,20.0,-105.0,-79.0,127.0,127.0,127.0,112.0,86.0,-94.0
127.0,126.0,126.0,126.0,127.0,128.0,126.0,127.0,20.0,-105.0,-79.0,127.0,127.0,127.0,112.0,86.0,-94.0
127.0,126.0,126.0,126.0,127.0,128.0,126.0,127.0,20.0,-105.0,-79.0,127.0,127.0,127.0,112.0,86.0,-94.0
127.0,126.0,126.0,126.0,127.0,128.0,126.0,127.0,20.0,-105.0,-79.0,127.0,127.0,127.0,112.0,86.0,-94.0
127.0,126.0,126.0,126.0,127.0,128.0,126.0,127.0,20.0,-105.0,-79.0,127.0,127.0,127.0,112.0,86.0,-94.0
127.0,126.0,126.0,126.0,127.0,128.0,126.0,127.0,20.0,-105.0,-79.0,127.0,127.0,127.0,112.0,86.0,-94.0
127.0,127.0,125.0,126.0,127.0,127.0,127.0,128.0,20.0,-105.0,-79.0,127.0,127.0,127.0,112.0,86.0,-94.0
127.0,127.0,125.0,126.0,127.0,126.0,127.0,128.0,20.0,-105.0,-79.0,127.0,127.0,127.0,112.0,86.0,-94.0
127.0,127.0,125.0,126.0,127.0,126.0,127.0,128.0,20.0,-105.0,-79.0,127.0,127.0,127.0,112.0,86.0,-94.0
127.0,127.0,125.0,126.0,127.0,127.0,127.0,128.0,20.0,-105.0,-79.0,127.0,127.0,127.0,112.0,86.0,-94.0
127.0,127.0,125.0,126.0,127.0,127.0,127.0,128.0,20.0,-105.0,-79.0,127.0,127.0,127.0,112.0,86.0,-94.0
127.0,127.0,125.0,126.0,127.0,127.0,127.0,128.0,20.0,-105.0,-79.0,127.0,127.0,127.0,112.0,86.0,-94.0
127.0,127.0,125.0,126.0,127.0,127.0,127.0,127.0,20.0,-105.0,-79.0,127.0,127.0,127.0,112.0,86.0,-94.0
127.0,127.0,125.0,126.0,127.0,127.0,127.0,128.0,20.0,-105.0,-79.0,127.0,127.0,127.0,112.0,86.0,-94.0
127.0,127.0,125.0,126.0,127.0,127.0,127.0,128.0,20.0,-105.0,-79.0,127.0,127.0,127.0,112.0,86.0,-94.0
127.0,127.0,125.0,126.0,127.0,127.0,127.0,128.0,20.0,-105.0,-79.0,127.0,127.0,127.0,112.0,86.0,-94.0
127.0,126.0,125.0,126.0,127.0,126.0,126.0,127.0,20.0,-105.0,-79.0,127.0,127.0,127.0,112.0,86.0,-94.0
127.0,127.0,125.0,126.0,127.0,127.0,126.0,127.0,20.0,-105.0,-79.0,127.0,127.0,127.0,112.0,86.0,-94.0
127.0,127.0,126.0,126.0,127.0,127.0,126.0,127.0,20.0,-105.0,-79.0,127.0,127.0,127.0,112.0,86.0,-94.0
127.0,126.0,126.0,126.0,127.0,127.0,126.0,127.0,20.0,-105.0,-79.0,127.0,127.0,127.0,112.0,86.0,-94.0
127.0,126.0,126.0,126.0,127.0,127.0,126.0,127.0,20.0,-105.0,-79.0,127.0,127.0,127.0,112.0,86.0,-94.0
127.0,126.0,126.0,126.0,127.0,127.0,126.0,127.0,20.0,-105.0,-79.0,127.0,127.0,127.0,112.0,86.0,-94.0
127.0,126.0,126.0,126.0,127.0,127.0,126.0,127.0,20.0,-105.0,-79.0,127.0,127.0,127.0,112.0,86.0,-94.0
127.0,126.0,126.0,126.0,127.0,127.0,126.0,127.0,20.0,-105.0,-79.0,127.0,127.0,127.0,112.0,86.0,-94.0
127.0,127.0,126.0,126.0,127.0,128.0,126.0,127.0,20.0,-105.0,-79.0,127.0,127.0,127.0,112.0,86.0,-94.0
127.0,126.0,126.0,126.0,127.0,126.0,126.0,127.0,20.0,-105.0,-79.0,127.0,127.0,127.0,112.0,86.0,-94.0
127.0,126.0,127.0,126.0,127.0,128.0,125.0,127.0,20.0,-105.0,-79.0,127.0,127.0,127.0,112.0,86.0,-94.0
127.0,126.0,127.0,126.0,126.0,128.0,125.0,127.0,20.0,-105.0,-79.0,127.0,127.0,127.0,112.0,86.0,-94.0
127.0,126.0,127.0,126.0,126.0,128.0,125.0,127.0,20.0,-105.0,-79.0,127.0,127.0,127.0,112.0,86.0,-94.0
127.0,126.0,127.0,126.0,126.0,127.0,125.0,127.0,20.0,-105.0,-79.0,127.0,127.0,127.0,112.0,86.0,-94.0
126.0,125.0,127.0,126.0,126.0,127.0,125.0,127.0,20.0,-105.0,-79.0,127.0,127.0,127.0,112.0,86.0,-94.0
126.0,125.0,127.0,126.0,126.0,127.0,125.0,127.0,20.0,-105.0,-79.0,127.0,127.0,127.0,112.0,86.0,-94.0
126.0,125.0,127.0,126.0,126.0,127.0,125.0,127.0,20.0,-105.0,-79.0,127.0,127.0,127.0,112.0,86.0,-94.0
127.0,126.0,126.0,126.0,127.0,128.0,125.0,127.0,20.0,-105.0,-79.0,127.0,127.0,127.0,112.0,86.0,-94.0
127.0,126.0,126.0,126.0,127.0,128.0,125.0,127.0,20.0,-105.0,-79.0,127.0,127.0,127.0,112.0,86.0,-94.0
127.0,126.0,126.0,126.0,127.0,128.0,125.0,127.0,20.0,-105.0,-79.0,127.0,127.0,127.0,112.0,86.0,-94.0
126.0,125.0,127.0,126.0,127.0,127.0,125.0,127.0,20.0,-105.0,-79.0,127.0,127.0,127.0,112.0,86.0,-94.0
126.0,125.0,127.0,126.0,127.0,127.0,125.0,127.0,20.0,-105.0,-79.0,127.0,127.0,127.0,112.0,86.0,-94.0
126.0,125.0,127.0,126.0,127.0,127.0,125.0,127.0,20.0,-105.0,-79.0,127.0,127.0,127.0,112.0,86.0,-94.0
126.0,125.0,127.0,126.0,127.0,127.0,125.0,127.0,20.0,-105.0,-79.0,127.0,127.0,127.0,112.0,86.0,-94.0
126.0,125.0,127.0,126.0,127.0,127.0,125.0,127.0,20.0,-105.0,-79.0,127.0,127.0,127.0,112.0,86.0,-94.0
126.0,125.0,127.0,126.0,127.0,127.0,125.0,127.0,20.0,-105.0,-79.0,127.0,127.0,127.0,112.0,86.0,-94.0
126.0,126.0,126.0,126.0,127.0,127.0,125.0,127.0,20.0,-105.0,-79.0,127.0,127.0,127.0,112.0,86.0,-94.0
126.0,126.0,126.0,126.0,127.0,127.0,125.0,127.0,20.0,-105.0,-79.0,127.0,127.0,127.0,112.0,86.0,-94.0
126.0,126.0,126.0,126.0,127.0,127.0,125.0,127.0,20.0,-105.0,-79.0,127.0,127.0,127.0,112.0,86.0,-94.0
126.0,125.0,127.0,126.0,127.0,127.0,125.0,127.0,20.0,-105.0,-79.0,127.0,127.0,127.0,112.0,86.0,-94.0
126.0,125.0,127.0,126.0,127.0,128.0,124.0,127.0,21.0,-105.0,-79.0,127.0,127.0,127.0,112.0,86.0,-94.0
126.0,125.0,127.0,126.0,127.0,128.0,124.0,126.0,21.0,-105.0,-79.0,127.0,127.0,127.0,112.0,86.0,-94.0
126.0,125.0,127.0,126.0,127.0,128.0,124.0,127.0,21.0,-105.0,-79.0,127.0,127.0,127.0,112.0,86.0,-94.0
126.0,125.0,127.0,126.0,127.0,128.0,124.0,127.0,21.0,-105.0,-79.0,127.0,127.0,127.0,112.0,86.0,-94.0
125.0,125.0,127.0,126.0,127.0,128.0,124.0,127.0,21.0,-105.0,-79.0,127.0,127.0,127.0,112.0,86.0,-94.0
126.0,126.0,127.0,126.0,127.0,128.0,124.0,127.0,21.0,-105.0,-79.0,127.0,127.0,127.0,112.0,86.0,-94.0
126.0,126.0,127.0,126.0,127.0,128.0,124.0,127.0,21.0,-105.0,-79.0,127.0,127.0,127.0,112.0,86.0,-94.0
126.0,126.0,127.0,126.0,127.0,128.0,124.0,127.0,21.0,-105.0,-79.0,127.0,127.0,127.0,112.0,86.0,-94.0
126.0,125.0,127.0,126.0,127.0,128.0,124.0,127.0,21.0,-105.0,-79.0,127.0,127.0,127.0,112.0,86.0,-94.0
126.0,125.0,127.0,126.0,127.0,128.0,124.0,127.0,21.0,-105.0,-79.0,127.0,127.0,127.0,112.0,86.0,-94.0
125.0,123.0,128.0,126.0,126.0,127.0,123.0,126.0,21.0,-105.0,-79.0,127.0,127.0,127.0,112.0,86.0,-94.0
125.0,123.0,128.0,126.0,126.0,127.0,123.0,126.0,21.0,-105.0,-79.0,127.0,127.0,127.0,112.0,86.0,-94.0
125.0,123.0,128.0,126.0,126.0,127.0,123.0,126.0,21.0,-105.0,-79.0,127.0,127.0,127.0,112.0,86.0,-94.0
125.0,123.0,128.0,126.0,127.0,127.0,123.0,126.0,21.0,-105.0,-79.0,127.0,127.0,127.0,112.0,86.0,-94.0
125.0,124.0,127.0,126.0,127.0,128.0,123.0,126.0,21.0,-105.0,-79.0,127.0,127.0,127.0,112.0,86.0,-94.0
125.0,124.0,127.0,126.0,127.0,128.0,123.0,126.0,21.0,-105.0,-79.0,127.0,127.0,127.0,112.0,86.0,-94.0
125.0,124.0,127.0,126.0,127.0,128.0,123.0,126.0,21.0,-105.0,-79.0,127.0,127.0,127.0,112.0,86.0,-94.0
125.0,124.0,127.0,126.0,127.0,128.0,123.0,126.0,21.0,-105.0,-79.0,127.0,127.0,127.0,112.0,86.0,-94.0
125.0,124.0,127.0,126.0,127.0,128.0,123.0,126.0,21.0,-105.0,-79.0,127.0,127.0,127.0,112.0,86.0,-94.0
125.0,123.0,128.0,126.0,126.0,128.0,123.0,126.0,21.0,-105.0,-79.0,127.0,127.0,127.0,112.0,86.0,-94.0
126.0,125.0,127.0,126.0,127.0,130.0,123.0,127.0,22.0,-105.0,-79.0,127.0,127.0,127.0,112.0,86.0,-94.0
126.0,124.0,127.0,126.0,127.0,130.0,123.0,127.0,22.0,-105.0,-79.0,127.0,127.0,127.0,112.0,86.0,-94.0
126.0,124.0,127.0,126.0,127.0,129.0,123.0,127.0,22.0,-105.0,-79.0,127.0,127.0,127.0,112.0,86.0,-94.0
126.0,124.0,127.0,126.0,127.0,129.0,123.0,126.0,22.0,-105.0,-79.0,127.0,127.0,127.0,112.0,86.0,-94.0
126.0,125.0,127.0,126.0,127.0,129.0,123.0,126.0,22.0,-105.0,-79.0,127.0,127.0,127.0,112.0,86.0,-94.0
126.0,124.0,127.0,126.0,127.0,129.0,123.0,127.0,22.0,-105.0,-79.0,127.0,127.0,127.0,112.0,86.0,-94.0
126.0,124.0,127.0,126.0,127.0,129.0,123.0,126.0,22.0,-105.0,-79.0,127.0,127.0,127.0,112.0,86.0,-94.0
126.0,125.0,127.0,126.0,127.0,130.0,123.0,127.0,22.0,-105.0,-79.0,127.0,127.0,127.0,112.0,86.0,-94.0
126.0,125.0,127.0,126.0,127.0,130.0,123.0,127.0,22.0,-105.0,-79.0,127.0,127.0,127.0,112.0,86.0,-94.0
126.0,124.0,127.0,126.0,127.0,129.0,123.0,127.0,22.0,-105.0,-79.0,127.0,127.0,127.0,112.0,86.0,-94.0
127.0,126.0,125.0,127.0,127.0,126.0,127.0,128.0,22.0,-104.0,-79.0,127.0,127.0,127.0,112.0,86.0,-94.0
127.0,126.0,125.0,127.0,127.0,126.0,127.0,128.0,22.0,-104.0,-79.0,127.0,127.0,127.0,112.0,86.0,-94.0
128.0,127.0,124.0,127.0,127.0,127.0,127.0,128.0,22.0,-104.0,-79.0,127.0,127.0,127.0,112.0,86.0,-94.0
