emg1,emg2,emg3,emg4,emg5,emg6,emg7,emg8,acc_x,acc_y,acc_z,gyro_x,gyro_y,gyro_z,angle_pitch,angle_roll,angle_yaw
126.0,127.0,126.0,126.0,128.0,126.0,133.0,128.0,-1.0,111.0,-66.0,127.0,127.0,127.0,-120.0,-89.0,127.0
126.0,127.0,127.0,126.0,128.0,126.0,133.0,128.0,-1.0,111.0,-66.0,127.0,127.0,127.0,-120.0,-89.0,127.0
126.0,127.0,127.0,126.0,126.0,126.0,132.0,128.0,-1.0,111.0,-66.0,127.0,127.0,127.0,-120.0,-89.0,127.0
126.0,127.0,127.0,126.0,126.0,126.0,132.0,128.0,-1.0,111.0,-66.0,127.0,127.0,127.0,-120.0,-89.0,127.0
126.0,127.0,127.0,126.0,126.0,126.0,132.0,128.0,-1.0,111.0,-66.0,127.0,127.0,127.0,-120.0,-89.0,127.0
126.0,127.0,127.0,126.0,125.0,127.0,132.0,128.0,-1.0,111.0,-66.0,127.0,127.0,127.0,-120.0,-89.0,127.0
126.0,127.0,127.0,126.0,125.0,127.0,132.0,128.0,-1.0,111.0,-66.0,127.0,127.0,127.0,-120.0,-89.0,127.0
126.0,126.0,127.0,126.0,126.0,125.0,132.0,128.0,-1.0,111.0,-66.0,127.0,127.0,127.0,-120.0,-89.0,127.0
126.0,126.0,127.0,126.0,126.0,125.0,132.0,128.0,-1.0,111.0,-66.0,127.0,127.0,127.0,-120.0,-89.0,127.0
126.0,127.0,127.0,126.0,126.0,126.0,132.0,128.0,-1.0,111.0,-66.0,127.0,127.0,127.0,-120.0,-89.0,127.0
126.0,127.0,127.0,126.0,126.0,126.0,132.0,128.0,-1.0,111.0,-66.0,127.0,127.0,127.0,-120.0,-89.0,127.0
126.0,127.0,127.0,126.0,126.0,126.0,132.0,128.0,-1.0,111.0,-66.0,127.0,127.0,127.0,-120.0,-89.0,127.0
128.0,127.0,127.0,126.0,126.0,126.0,131.0,126.0,-1.0,111.0,-66.0,127.0,127.0,127.0,-120.0,-89.0,127.0
128.0,127.0,127.0,126.0,126.0,126.0,131.0,126.0,-1.0,111.0,-66.0,127.0,127.0,127.0,-120.0,-89.0,127.0
128.0,127.0,127.0,126.0,126.0,127.0,131.0,126.0,-1.0,111.0,-66.0,127.0,127.0,127.0,-120.0,-89.0,127.0
128.0,127.0,127.0,126.0,126.0,127.0,131.0,126.0,-1.0,111.0,-66.0,127.0,127.0,127.0,-120.0,-89.0,127.0
127.0,127.0,127.0,125.0,126.0,125.0,131.0,126.0,-1.0,111.0,-66.0,127.0,127.0,127.0,-120.0,-89.0,127.0
127.0,127.0,127.0,125.0,126.0,126.0,131.0,126.0,-1.0,111.0,-66.0,127.0,127.0,127.0,-120.0,-89.0,127.0
127.0,127.0,127.0,125.0,125.0,126.0,131.0,126.0,-1.0,111.0,-66.0,127.0,127.0,127.0,-120.0,-89.0,127.0
127.0,127.0,127.0,126.0,125.0,126.0,131.0,126.0,-1.0,111.0,-66.0,127.0,127.0,127.0,-120.0,-89.0,127.0
127.0,127.0,127.0,126.0,126.0,126.0,131.0,126.0,-1.0,111.0,-66.0,127.0,127.0,127.0,-120.0,-89.0,127.0
128.0,127.0,127.0,126.0,126.0,126.0,131.0,126.0,-1.0,111.0,-66.0,127.0,127.0,127.0,-120.0,-89.0,127.0
127.0,127.0,127.0,126.0,126.0,126.0,130.0,125.0,-1.0,111.0,-66.0,127.0,126.0,127.0,-120.0,-89.0,127.0
127.0,127.0,127.0,126.0,126.0,126.0,130.0,125.0,-1.0,111.0,-66.0,127.0,126.0,127.0,-120.0,-89.0,127.0
127.0,127.0,127.0,126.0,126.0,126.0,130.0,125.0,-1.0,111.0,-66.0,127.0,126.0,127.0,-120.0,-89.0,127.0
127.0,127.0,126.0,125.0,127.0,125.0,130.0,125.0,-1.0,111.0,-66.0,127.0,126.0,127.0,-120.0,-89.0,127.0
127.0,127.0,126.0,125.0,126.0,125.0,130.0,125.0,-1.0,111.0,-66.0,127.0,126.0,127.0,-120.0,-89.0,127.0
127.0,127.0,126.0,125.0,126.0,126.0,130.0,125.0,-1.0,111.0,-66.0,127.0,126.0,127.0,-120.0,-89.0,127.0
127.0,127.0,126.0,126.0,126.0,126.0,130.0,125.0,-1.0,111.0,-66.0,127.0,126.0,127.0,-120.0,-89.0,127.0
127.0,127.0,126.0,126.0,126.0,126.0,130.0,125.0,-1.0,111.0,-66.0,127.0,126.0,127.0,-120.0,-89.0,127.0
127.0,127.0,126.0,126.0,126.0,126.0,130.0,125.0,-1.0,111.0,-66.0,127.0,126.0,127.0,-120.0,-89.0,127.0
127.0,127.0,126.0,126.0,126.0,126.0,130.0,125.0,-1.0,111.0,-66.0,127.0,126.0,127.0,-120.0,-89.0,127.0
127.0,127.0,126.0,126.0,125.0,127.0,130.0,123.0,-1.0,110.0,-66.0,127.0,126.0,127.0,-120.0,-89.0,127.0
127.0,127.0,126.0,126.0,125.0,127.0,130.0,123.0,-1.0,110.0,-66.0,127.0,126.0,127.0,-120.0,-89.0,127.0
127.0,127.0,126.0,125.0,126.0,126.0,130.0,123.0,-1.0,110.0,-66.0,127.0,126.0,127.0,-120.0,-89.0,127.0
127.0,127.0,126.0,125.0,126.0,126.0,130.0,123.0,-1.0,110.0,-66.0,127.0,126.0,127.0,-120.0,-89.0,127.0
127.0,127.0,126.0,125.0,126.0,126.0,130.0,123.0,-1.0,110.0,-66.0,127.0,126.0,127.0,-120.0,-89.0,127.0
127.0,127.0,126.0,125.0,126.0,126.0,130.0,123.0,-1.0,110.0,-66.0,127.0,126.0,127.0,-120.0,-89.0,127.0
127.0,127.0,126.0,125.0,126.0,126.0,130.0,123.0,-1.0,110.0,-66.0,127.0,126.0,127.0,-120.0,-89.0,127.0
127.0,127.0,126.0,125.0,126.0,127.0,130.0,123.0,-1.0,110.0,-66.0,127.0,126.0,127.0,-120.0,-89.0,127.0
127.0,127.0,126.0,126.0,125.0,127.0,130.0,123.0,-1.0,110.0,-66.0,127.0,126.0,127.0,-120.0,-89.0,127.0
127.0,127.0,126.0,126.0,125.0,127.0,130.0,123.0,-1.0,110.0,-66.0,127.0,126.0,127.0,-120.0,-89.0,127.0
126.0,126.0,126.0,126.0,127.0,127.0,130.0,125.0,-1.0,109.0,-67.0,127.0,126.0,127.0,-120.0,-89.0,127.0
126.0,126.0,126.0,126.0,126.0,127.0,130.0,124.0,-1.0,109.0,-67.0,127.0,126.0,127.0,-120.0,-89.0,127.0
126.0,126.0,126.0,126.0,126.0,127.0,130.0,124.0,-1.0,109.0,-67.0,127.0,126.0,127.0,-120.0,-89.0,127.0
126.0,126.0,126.0,126.0,127.0,127.0,130.0,124.0,-1.0,109.0,-67.0,127.0,126.0,127.0,-120.0,-89.0,127.0
126.0,126.0,126.0,126.0,127.0,127.0,130.0,124.0,-1.0,109.0,-67.0,127.0,126.0,127.0,-120.0,-89.0,127.0
126.0,126.0,126.0,126.0,127.0,127.0,130.0,124.0,-1.0,109.0,-67.0,127.0,126.0,127.0,-120.0,-89.0,127.0
126.0,126.0,126.0,126.0,127.0,127.0,130.0,124.0,-1.0,109.0,-67.0,127.0,126.0,127.0,-120.0,-89.0,127.0
126.0,126.0,126.0,126.0,127.0,127.0,130.0,125.0,-1.0,109.0,-67.0,127.0,126.0,127.0,-120.0,-89.0,127.0
126.0,126.0,126.0,126.0,127.0,127.0,130.0,125.0,-1.0,109.0,-67.0,127.0,126.0,127.0,-120.0,-89.0,127.0
126.0,126.0,126.0,126.0,127.0,127.0,130.0,125.0,-1.0,109.0,-67.0,127.0,126.0,127.0,-120.0,-89.0,127.0
126.0,126.0,126.0,128.0,127.0,126.0,130.0,127.0,-1.0,109.0,-67.0,127.0,126.0,127.0,-120.0,-89.0,127.0
126.0,126.0,126.0,128.0,127.0,127.0,130.0,128.0,-1.0,109.0,-67.0,127.0,126.0,127.0,-120.0,-89.0,127.0
126.0,126.0,126.0,128.0,127.0,126.0,130.0,128.0,-1.0,109.0,-67.0,127.0,126.0,127.0,-120.0,-89.0,127.0
126.0,126.0,126.0,128.0,127.0,126.0,130.0,128.0,-1.0,109.0,-67.0,127.0,126.0,127.0,-120.0,-89.0,127.0
126.0,126.0,126.0,128.0,127.0,126.0,130.0,128.0,-1.0,109.0,-67.0,127.0,126.0,127.0,-120.0,-89.0,127.0
126.0,126.0,126.0,128.0,127.0,127.0,130.0,128.0,-1.0,109.0,-67.0,127.0,126.0,127.0,-120.0,-89.0,127.0
126.0,126.0,126.0,128.0,126.0,127.0,130.0,128.0,-1.0,109.0,-67.0,127.0,126.0,127.0,-120.0,-89.0,127.0
126.0,126.0,126.0,128.0,126.0,127.0,130.0,128.0,-1.0,109.0,-67.0,127.0,126.0,127.0,-120.0,-89.0,127.0
126.0,126.0,126.0,128.0,127.0,127.0,130.0,128.0,-1.0,109.0,-67.0,127.0,126.0,127.0,-120.0,-89.0,127.0
126.0,126.0,127.0,128.0,127.0,127.0,130.0,128.0,-1.0,109.0,-67.0,127.0,126.0,127.0,-120.0,-89.0,127.0
126.0,127.0,126.0,129.0,126.0,127.0,130.0,125.0,-1.0,108.0,-67.0,127.0,126.0,127.0,-120.0,-89.0,127.0
126.0,127.0,126.0,129.0,126.0,127.0,130.0,125.0,-1.0,108.0,-67.0,127.0,126.0,127.0,-120.0,-89.0,127.0
126.0,127.0,126.0,129.0,127.0,127.0,130.0,125.0,-1.0,108.0,-67.0,127.0,126.0,127.0,-120.0,-89.0,127.0
125.0,127.0,126.0,129.0,127.0,127.0,130.0,124.0,-1.0,108.0,-67.0,127.0,126.0,127.0,-120.0,-89.0,127.0
125.0,127.0,126.0,129.0,127.0,127.0,130.0,124.0,-1.0,108.0,-67.0,127.0,126.0,127.0,-120.0,-89.0,127.0
125.0,127.0,126.0,129.0,127.0,128.0,130.0,125.0,-1.0,108.0,-67.0,127.0,126.0,127.0,-120.0,-89.0,127.0
125.0,127.0,126.0,129.0,127.0,128.0,130.0,125.0,-1.0,108.0,-67.0,127.0,126.0,127.0,-120.0,-89.0,127.0
125.0,127.0,126.0,129.0,127.0,128.0,130.0,125.0,-1.0,108.0,-67.0,127.0,126.0,127.0,-120.0,-89.0,127.0
125.0,127.0,126.0,129.0,127.0,128.0,130.0,125.0,-1.0,108.0,-67.0,127.0,126.0,127.0,-120.0,-89.0,127.0
126.0,127.0,126.0,129.0,126.0,127.0,130.0,125.0,-1.0,108.0,-67.0,127.0,126.0,127.0,-120.0,-89.0,127.0
124.0,127.0,126.0,130.0,125.0,126.0,130.0,124.0,-1.0,108.0,-67.0,127.0,126.0,127.0,-120.0,-89.0,127.0
124.0,127.0,126.0,130.0,125.0,126.0,131.0,124.0,-1.0,108.0,-67.0,127.0,126.0,127.0,-120.0,-89.0,127.0
124.0,127.0,126.0,130.0,125.0,126.0,131.0,124.0,-1.0,108.0,-67.0,127.0,126.0,127.0,-120.0,-89.0,127.0
124.0,127.0,126.0,130.0,125.0,126.0,130.0,124.0,-1.0,108.0,-67.0,127.0,126.0,127.0,-120.0,-89.0,127.0
124.0,127.0,126.0,130.0,124.0,127.0,130.0,125.0,-1.0,108.0,-67.0,127.0,126.0,127.0,-120.0,-89.0,127.0
124.0,127.0,126.0,130.0,125.0,127.0,130.0,125.0,-1.0,108.0,-67.0,127.0,126.0,127.0,-120.0,-89.0,127.0
124.0,127.0,126.0,130.0,125.0,127.0,130.0,125.0,-1.0,108.0,-67.0,127.0,126.0,127.0,-120.0,-89.0,127.0
124.0,127.0,127.0,130.0,125.0,127.0,130.0,125.0,-1.0,108.0,-67.0,127.0,126.0,127.0,-120.0,-89.0,127.0
124.0,127.0,126.0,130.0,125.0,126.0,130.0,124.0,-1.0,108.0,-67.0,127.0,126.0,127.0,-120.0,-89.0,127.0
124.0,127.0,126.0,130.0,125.0,126.0,130.0,124.0,-1.0,108.0,-67.0,127.0,126.0,127.0,-120.0,-89.0,127.0
125.0,127.0,127.0,130.0,127.0,125.0,130.0,122.0,-1.0,108.0,-67.0,127.0,126.0,127.0,-120.0,-89.0,127.0
125.0,127.0,127.0,130.0,127.0,125.0,130.0,122.0,-1.0,108.0,-67.0,127.0,126.0,127.0,-120.0,-89.0,127.0
125.0,127.0,127.0,130.0,127.0,125.0,130.0,122.0,-1.0,108.0,-67.0,127.0,126.0,127.0,-120.0,-89.0,127.0
125.0,127.0,127.0,130.0,127.0,125.0,130.0,122.0,-1.0,108.0,-67.0,127.0,126.0,127.0,-120.0,-89.0,127.0
125.0,127.0,127.0,130.0,127.0,125.0,130.0,122.0,-1.0,108.0,-67.0,127.0,126.0,127.0,-120.0,-89.0,127.0
125.0,127.0,127.0,130.0,127.0,125.0,130.0,122.0,-1.0,108.0,-67.0,127.0,126.0,127.0,-120.0,-89.0,127.0
125.0,127.0,127.0,130.0,127.0,126.0,130.0,122.0,-1.0,108.0,-67.0,127.0,126.0,127.0,-120.0,-89.0,127.0
124.0,127.0,127.0,129.0,127.0,125.0,130.0,122.0,-1.0,108.0,-67.0,127.0,126.0,127.0,-120.0,-89.0,127.0
124.0,127.0,127.0,130.0,127.0,125.0,130.0,122.0,-1.0,108.0,-67.0,127.0,126.0,127.0,-120.0,-89.0,127.0
124.0,127.0,127.0,130.0,127.0,125.0,130.0,122.0,-1.0,108.0,-67.0,127.0,126.0,127.0,-120.0,-89.0,127.0
127.0,126.0,127.0,129.0,125.0,127.0,131.0,123.0,-1.0,108.0,-66.0,127.0,126.0,127.0,-120.0,-89.0,127.0
127.0,126.0,127.0,129.0,125.0,127.0,131.0,124.0,-1.0,108.0,-66.0,127.0,126.0,127.0,-120.0,-89.0,127.0
127.0,126.0,127.0,129.0,125.0,127.0,131.0,124.0,-1.0,108.0,-66.0,127.0,126.0,127.0,-120.0,-89.0,127.0
127.0,126.0,127.0,129.0,125.0,127.0,131.0,124.0,-1.0,108.0,-66.0,127.0,126.0,127.0,-120.0,-89.0,127.0
127.0,126.0,127.0,129.0,125.0,127.0,131.0,124.0,-1.0,108.0,-66.0,127.0,126.0,127.0,-120.0,-89.0,127.0
127.0,126.0,127.0,130.0,126.0,127.0,131.0,124.0,-1.0,108.0,-66.0,127.0,126.0,127.0,-120.0,-89.0,127.0
127.0,126.0,127.0,129.0,126.0,126.0,131.0,123.0,-1.0,108.0,-66.0,127.0,126.0,127.0,-120.0,-89.0,127.0
127.0,126.0,127.0,129.0,126.0,126.0,131.0,123.0,-1.0,108.0,-66.0,127.0,126.0,127.0,-120.0,-89.0,127.0
127.0,126.0,127.0,129.0,125.0,126.0,131.0,123.0,-1.0,108.0,-66.0,127.0,126.0,127.0,-120.0,-89.0,127.0
126.0,126.0,127.0,129.0,125.0,126.0,131.0,123.0,-1.0,108.0,-66.0,127.0,126.0,127.0,-120.0,-89.0,127.0
126.0,127.0,127.0,129.0,127.0,126.0,131.0,127.0,-1.0,109.0,-66.0,127.0,126.0,127.0,-120.0,-89.0,127.0
127.0,127.0,127.0,129.0,127.0,126.0,130.0,127.0,-1.0,109.0,-66.0,127.0,126.0,127.0,-120.0,-89.0,127.0
126.0,127.0,127.0,129.0,127.0,126.0,130.0,127.0,-1.0,109.0,-66.0,127.0,126.0,127.0,-120.0,-89.0,127.0
126.0,127.0,127.0,129.0,127.0,126.0,130.0,127.0,-1.0,109.0,-66.0,127.0,126.0,127.0,-120.0,-89.0,127.0
126.0,127.0,127.0,129.0,128.0,126.0,130.0,127.0,-1.0,109.0,-66.0,127.0,126.0,127.0,-120.0,-89.0,127.0
127.0,127.0,126.0,129.0,127.0,126.0,131.0,126.0,-1.0,109.0,-66.0,127.0,126.0,127.0,-120.0,-89.0,127.0
126.0,127.0,127.0,129.0,127.0,126.0,131.0,126.0,-1.0,109.0,-66.0,127.0,126.0,127.0,-120.0,-89.0,127.0
126.0,127.0,127.0,129.0,127.0,126.0,131.0,127.0,-1.0,109.0,-66.0,127.0,126.0,127.0,-120.0,-89.0,127.0
126.0,127.0,126.0,129.0,127.0,126.0,131.0,127.0,-1.0,109.0,-66.0,127.0,126.0,127.0,-120.0,-89.0,127.0
126.0,127.0,126.0,129.0,127.0,127.0,131.0,127.0,-1.0,109.0,-66.0,127.0,126.0,127.0,-120.0,-89.0,127.0
125.0,127.0,127.0,128.0,126.0,127.0,128.0,128.0,-1.0,109.0,-65.0,127.0,126.0,127.0,-120.0,-89.0,127.0
125.0,127.0,127.0,128.0,126.0,127.0,128.0,128.0,-1.0,109.0,-65.0,127.0,126.0,127.0,-120.0,-89.0,127.0
125.0,127.0,127.0,128.0,126.0,127.0,128.0,128.0,-1.0,109.0,-65.0,127.0,126.0,127.0,-120.0,-89.0,127.0
125.0,127.0,127.0,128.0,127.0,127.0,128.0,128.0,-1.0,109.0,-65.0,127.0,126.0,127.0,-120.0,-89.0,127.0
125.0,127.0,127.0,128.0,126.0,126.0,128.0,128.0,-1.0,109.0,-65.0,127.0,126.0,127.0,-120.0,-89.0,127.0
125.0,127.0,127.0,128.0,126.0,126.0,128.0,127.0,-1.0,109.0,-65.0,127.0,126.0,127.0,-120.0,-89.0,127.0
125.0,127.0,127.0,128.0,126.0,126.0,128.0,127.0,-1.0,109.0,-65.0,127.0,126.0,127.0,-120.0,-89.0,127.0
125.0,126.0,127.0,128.0,127.0,126.0,128.0,127.0,-1.0,109.0,-65.0,127.0,126.0,127.0,-120.0,-89.0,127.0
125.0,127.0,127.0,128.0,126.0,127.0,128.0,128.0,-1.0,109.0,-65.0,127.0,126.0,127.0,-120.0,-89.0,127.0
125.0,127.0,127.0,128.0,126.0,127.0,128.0,128.0,-1.0,109.0,-65.0,127.0,126.0,127.0,-120.0,-89.0,127.0
124.0,127.0,127.0,126.0,126.0,126.0,126.0,124.0,-1.0,110.0,-65.0,126.0,126.0,127.0,-120.0,-89.0,127.0
124.0,127.0,127.0,126.0,126.0,126.0,126.0,124.0,-1.0,110.0,-65.0,126.0,126.0,127.0,-120.0,-89.0,127.0
124.0,127.0,127.0,126.0,126.0,126.0,126.0,124.0,-1.0,110.0,-65.0,126.0,126.0,127.0,-120.0,-89.0,127.0
124.0,127.0,127.0,126.0,125.0,125.0,126.0,124.0,-1.0,110.0,-65.0,126.0,126.0,127.0,-120.0,-89.0,127.0
124.0,127.0,127.0,126.0,126.0,125.0,126.0,124.0,-1.0,110.0,-65.0,126.0,126.0,127.0,-120.0,-89.0,127.0
124.0,127.0,127.0,126.0,126.0,125.0,126.0,124.0,-1.0,110.0,-65.0,126.0,126.0,127.0,-120.0,-89.0,127.0
124.0,127.0,127.0,126.0,126.0,125.0,126.0,124.0,-1.0,110.0,-65.0,126.0,126.0,127.0,-120.0,-89.0,127.0
124.0,127.0,127.0,126.0,125.0,126.0,126.0,124.0,-1.0,110.0,-65.0,126.0,126.0,127.0,-120.0,-89.0,127.0
124.0,127.0,127.0,126.0,126.0,126.0,126.0,124.0,-1.0,110.0,-65.0,126.0,126.0,127.0,-120.0,-89.0,127.0
124.0,127.0,127.0,126.0,126.0,126.0,126.0,124.0,-1.0,110.0,-65.0,126.0,126.0,127.0,-120.0,-89.0,127.0
126.0,127.0,127.0,125.0,125.0,127.0,124.0,121.0,-1.0,110.0,-65.0,126.0,126.0,127.0,-120.0,-89.0,127.0
126.0,127.0,127.0,125.0,125.0,127.0,124.0,121.0,-1.0,110.0,-65.0,126.0,126.0,127.0,-120.0,-89.0,127.0
125.0,127.0,127.0,125.0,125.0,126.0,124.0,121.0,-1.0,110.0,-65.0,126.0,126.0,127.0,-120.0,-89.0,127.0
125.0,127.0,127.0,125.0,125.0,126.0,124.0,121.0,-1.0,110.0,-65.0,126.0,126.0,127.0,-120.0,-89.0,127.0
125.0,127.0,127.0,125.0,125.0,126.0,124.0,121.0,-1.0,110.0,-65.0,126.0,126.0,127.0,-120.0,-89.0,127.0
125.0,127.0,127.0,125.0,125.0,126.0,124.0,121.0,-1.0,110.0,-65.0,126.0,126.0,127.0,-120.0,-89.0,127.0
125.0,127.0,127.0,125.0,125.0,126.0,124.0,121.0,-1.0,110.0,-65.0,126.0,126.0,127.0,-120.0,-89.0,127.0
125.0,127.0,127.0,125.0,125.0,127.0,124.0,121.0,-1.0,110.0,-65.0,126.0,126.0,127.0,-120.0,-89.0,127.0
125.0,127.0,127.0,125.0,125.0,127.0,124.0,121.0,-1.0,110.0,-65.0,126.0,126.0,127.0,-120.0,-89.0,127.0
126.0,127.0,127.0,125.0,125.0,127.0,124.0,121.0,-1.0,110.0,-65.0,126.0,126.0,127.0,-120.0,-89.0,127.0
127.0,127.0,126.0,124.0,127.0,127.0,125.0,121.0,-1.0,110.0,-66.0,126.0,126.0,127.0,-120.0,-89.0,127.0
126.0,127.0,126.0,124.0,126.0,126.0,125.0,120.0,-1.0,110.0,-66.0,126.0,126.0,127.0,-120.0,-89.0,127.0
126.0,127.0,126.0,124.0,126.0,126.0,125.0,120.0,-1.0,110.0,-66.0,126.0,126.0,127.0,-120.0,-89.0,127.0
126.0,127.0,126.0,124.0,126.0,126.0,125.0,120.0,-1.0,110.0,-66.0,126.0,126.0,127.0,-120.0,-89.0,127.0
126.0,127.0,126.0,124.0,126.0,126.0,125.0,120.0,-1.0,110.0,-66.0,126.0,126.0,127.0,-120.0,-89.0,127.0
126.0,127.0,126.0,124.0,126.0,126.0,125.0,121.0,-1.0,110.0,-66.0,126.0,126.0,127.0,-120.0,-89.0,127.0
126.0,127.0,126.0,124.0,126.0,126.0,125.0,121.0,-1.0,110.0,-66.0,126.0,126.0,127.0,-120.0,-89.0,127.0
126.0,127.0,126.0,124.0,127.0,127.0,125.0,121.0,-1.0,110.0,-66.0,126.0,126.0,127.0,-120.0,-89.0,127.0
126.0,127.0,126.0,124.0,127.0,127.0,125.0,121.0,-1.0,110.0,-66.0,126.0,126.0,127.0,-120.0,-89.0,127.0
126.0,127.0,126.0,124.0,127.0,127.0,125.0,121.0,-1.0,110.0,-66.0,126.0,126.0,127.0,-120.0,-89.0,127.0
128.0,127.0,126.0,123.0,128.0,127.0,126.0,127.0,-1.0,109.0,-68.0,127.0,126.0,127.0,-120.0,-89.0,127.0
128.0,127.0,126.0,123.0,128.0,126.0,126.0,127.0,-1.0,109.0,-68.0,127.0,126.0,127.0,-120.0,-89.0,127.0
128.0,126.0,126.0,123.0,128.0,127.0,126.0,127.0,-1.0,109.0,-68.0,127.0,126.0,127.0,-120.0,-89.0,127.0
128.0,126.0,126.0,123.0,128.0,127.0,126.0,127.0,-1.0,109.0,-68.0,127.0,126.0,127.0,-120.0,-89.0,127.0
128.0,126.0,126.0,123.0,128.0,126.0,126.0,128.0,-1.0,109.0,-68.0,127.0,126.0,127.0,-120.0,-89.0,127.0
128.0,126.0,126.0,123.0,128.0,126.0,126.0,128.0,-1.0,109.0,-68.0,127.0,126.0,127.0,-120.0,-89.0,127.0
128.0,126.0,126.0,123.0,128.0,127.0,126.0,128.0,-1.0,109.0,-68.0,127.0,126.0,127.0,-120.0,-89.0,127.0
128.0,126.0,126.0,123.0,128.0,127.0,126.0,128.0,-1.0,109.0,-68.0,127.0,126.0,127.0,-120.0,-89.0,127.0
128.0,126.0,127.0,123.0,128.0,127.0,126.0,129.0,-1.0,109.0,-68.0,127.0,126.0,127.0,-120.0,-89.0,127.0
128.0,126.0,127.0,123.0,129.0,127.0,126.0,129.0,-1.0,109.0,-68.0,127.0,126.0,127.0,-120.0,-89.0,127.0
128.0,127.0,126.0,123.0,125.0,127.0,126.0,132.0,-1.0,108.0,-70.0,127.0,126.0,127.0,-120.0,-89.0,127.0
128.0,127.0,126.0,123.0,125.0,127.0,126.0,132.0,-1.0,108.0,-70.0,127.0,126.0,127.0,-120.0,-89.0,127.0
128.0,127.0,126.0,123.0,124.0,127.0,126.0,132.0,-1.0,108.0,-70.0,127.0,126.0,127.0,-120.0,-89.0,127.0
128.0,127.0,126.0,123.0,124.0,127.0,126.0,132.0,-1.0,108.0,-70.0,127.0,126.0,127.0,-120.0,-89.0,127.0
128.0,127.0,127.0,123.0,124.0,127.0,126.0,132.0,-1.0,108.0,-70.0,127.0,126.0,127.0,-120.0,-89.0,127.0
128.0,127.0,127.0,123.0,124.0,127.0,126.0,132.0,-1.0,108.0,-70.0,127.0,126.0,127.0,-120.0,-89.0,127.0
128.0,127.0,126.0,123.0,124.0,127.0,126.0,133.0,-1.0,108.0,-70.0,127.0,126.0,127.0,-120.0,-89.0,127.0
128.0,127.0,127.0,123.0,124.0,127.0,126.0,133.0,-1.0,108.0,-70.0,127.0,126.0,127.0,-120.0,-89.0,127.0
128.0,127.0,126.0,123.0,124.0,127.0,126.0,133.0,-1.0,108.0,-70.0,127.0,126.0,127.0,-120.0,-89.0,127.0
128.0,127.0,126.0,123.0,125.0,127.0,126.0,132.0,-1.0,108.0,-70.0,127.0,126.0,127.0,-120.0,-89.0,127.0
128.0,126.0,126.0,124.0,126.0,126.0,127.0,131.0,-1.0,107.0,-72.0,127.0,127.0,127.0,-120.0,-89.0,127.0
128.0,126.0,126.0,124.0,126.0,126.0,127.0,131.0,-1.0,107.0,-72.0,127.0,127.0,127.0,-120.0,-89.0,127.0
128.0,126.0,127.0,124.0,126.0,126.0,127.0,131.0,-1.0,107.0,-72.0,127.0,127.0,127.0,-120.0,-89.0,127.0
127.0,126.0,127.0,124.0,127.0,126.0,127.0,131.0,-1.0,107.0,-72.0,127.0,127.0,127.0,-120.0,-89.0,127.0
128.0,126.0,127.0,124.0,127.0,126.0,127.0,131.0,-1.0,107.0,-72.0,127.0,127.0,127.0,-120.0,-89.0,127.0
127.0,126.0,127.0,124.0,127.0,126.0,127.0,131.0,-1.0,107.0,-72.0,127.0,127.0,127.0,-120.0,-89.0,127.0
127.0,126.0,127.0,124.0,127.0,126.0,127.0,131.0,-1.0,107.0,-72.0,127.0,127.0,127.0,-120.0,-89.0,127.0
128.0,126.0,126.0,124.0,126.0,126.0,127.0,131.0,-1.0,107.0,-72.0,127.0,127.0,127.0,-120.0,-89.0,127.0
128.0,126.0,126.0,124.0,126.0,126.0,127.0,131.0,-1.0,107.0,-72.0,127.0,127.0,127.0,-120.0,-89.0,127.0
128.0,126.0,126.0,124.0,126.0,126.0,127.0,131.0,-1.0,107.0,-72.0,127.0,127.0,127.0,-120.0,-89.0,127.0
127.0,127.0,127.0,125.0,125.0,126.0,128.0,132.0,-1.0,105.0,-73.0,127.0,127.0,127.0,-120.0,-89.0,127.0
127.0,126.0,127.0,126.0,126.0,126.0,128.0,132.0,-1.0,105.0,-73.0,127.0,127.0,127.0,-120.0,-89.0,127.0
127.0,126.0,127.0,126.0,126.0,126.0,128.0,132.0,-1.0,105.0,-73.0,127.0,127.0,127.0,-120.0,-89.0,127.0
127.0,126.0,127.0,126.0,126.0,126.0,128.0,132.0,-1.0,105.0,-73.0,127.0,127.0,127.0,-120.0,-89.0,127.0
127.0,126.0,127.0,126.0,126.0,127.0,128.0,133.0,-1.0,105.0,-73.0,127.0,127.0,127.0,-120.0,-89.0,127.0
127.0,127.0,127.0,126.0,126.0,127.0,128.0,133.0,-1.0,105.0,-73.0,127.0,127.0,127.0,-120.0,-89.0,127.0
127.0,126.0,127.0,125.0,126.0,125.0,128.0,132.0,-1.0,105.0,-73.0,127.0,127.0,127.0,-120.0,-89.0,127.0
127.0,126.0,127.0,125.0,126.0,126.0,128.0,132.0,-1.0,105.0,-73.0,127.0,127.0,127.0,-120.0,-89.0,127.0
127.0,126.0,127.0,125.0,125.0,126.0,128.0,132.0,-1.0,105.0,-73.0,127.0,127.0,127.0,-120.0,-89.0,127.0
127.0,127.0,127.0,125.0,125.0,127.0,128.0,132.0,-1.0,105.0,-73.0,127.0,127.0,127.0,-120.0,-89.0,127.0
127.0,126.0,127.0,127.0,126.0,126.0,128.0,132.0,-1.0,105.0,-74.0,127.0,127.0,127.0,-120.0,-89.0,127.0
127.0,126.0,127.0,127.0,126.0,126.0,128.0,132.0,-1.0,105.0,-74.0,127.0,127.0,127.0,-120.0,-89.0,127.0
127.0,126.0,127.0,127.0,126.0,126.0,128.0,132.0,-1.0,105.0,-74.0,127.0,127.0,127.0,-120.0,-89.0,127.0
127.0,126.0,127.0,127.0,126.0,126.0,128.0,132.0,-1.0,105.0,-74.0,127.0,127.0,127.0,-120.0,-89.0,127.0
127.0,126.0,127.0,127.0,125.0,127.0,128.0,132.0,-1.0,105.0,-74.0,127.0,127.0,127.0,-120.0,-89.0,127.0
127.0,126.0,127.0,127.0,126.0,125.0,128.0,131.0,-1.0,105.0,-74.0,127.0,127.0,127.0,-120.0,-89.0,127.0
127.0,126.0,127.0,127.0,126.0,126.0,128.0,131.0,-1.0,105.0,-74.0,127.0,127.0,127.0,-120.0,-89.0,127.0
127.0,126.0,127.0,127.0,126.0,126.0,128.0,131.0,-1.0,105.0,-74.0,127.0,127.0,127.0,-120.0,-89.0,127.0
127.0,126.0,127.0,127.0,126.0,126.0,128.0,132.0,-1.0,105.0,-74.0,127.0,127.0,127.0,-120.0,-89.0,127.0
127.0,126.0,127.0,127.0,126.0,126.0,128.0,132.0,-1.0,105.0,-74.0,127.0,127.0,127.0,-120.0,-89.0,127.0
127.0,126.0,127.0,127.0,126.0,125.0,128.0,133.0,-1.0,104.0,-75.0,127.0,127.0,127.0,-120.0,-89.0,127.0
127.0,126.0,127.0,127.0,126.0,125.0,128.0,133.0,-1.0,104.0,-75.0,127.0,127.0,127.0,-120.0,-89.0,127.0
127.0,126.0,127.0,127.0,126.0,125.0,128.0,133.0,-1.0,104.0,-75.0,127.0,127.0,127.0,-120.0,-89.0,127.0
127.0,126.0,127.0,127.0,126.0,125.0,128.0,133.0,-1.0,104.0,-75.0,127.0,127.0,127.0,-120.0,-89.0,127.0
127.0,126.0,127.0,127.0,126.0,125.0,128.0,133.0,-1.0,104.0,-75.0,127.0,127.0,127.0,-120.0,-89.0,127.0
127.0,126.0,127.0,127.0,126.0,125.0,128.0,133.0,-1.0,104.0,-75.0,127.0,127.0,127.0,-120.0,-89.0,127.0
127.0,126.0,127.0,127.0,126.0,125.0,128.0,133.0,-1.0,104.0,-75.0,127.0,127.0,127.0,-120.0,-89.0,127.0
127.0,126.0,127.0,127.0,126.0,125.0,128.0,133.0,-1.0,104.0,-75.0,127.0,127.0,127.0,-120.0,-89.0,127.0
127.0,126.0,127.0,127.0,126.0,125.0,128.0,133.0,-1.0,104.0,-75.0,127.0,127.0,127.0,-120.0,-89.0,127.0
127.0,126.0,127.0,127.0,126.0,125.0,128.0,133.0,-1.0,104.0,-75.0,127.0,127.0,127.0,-120.0,-89.0,127.0
128.0,127.0,126.0,128.0,125.0,127.0,128.0,133.0,-1.0,104.0,-75.0,127.0,127.0,127.0,-120.0,-89.0,127.0
128.0,127.0,127.0,128.0,125.0,127.0,128.0,133.0,-1.0,104.0,-75.0,127.0,127.0,127.0,-120.0,-89.0,127.0
128.0,127.0,127.0,128.0,125.0,127.0,128.0,133.0,-1.0,104.0,-75.0,127.0,127.0,127.0,-120.0,-89.0,127.0
128.0,127.0,126.0,128.0,124.0,127.0,128.0,133.0,-1.0,104.0,-75.0,127.0,127.0,127.0,-120.0,-89.0,127.0
128.0,127.0,126.0,128.0,124.0,127.0,128.0,133.0,-1.0,104.0,-75.0,127.0,127.0,127.0,-120.0,-89.0,127.0
128.0,127.0,126.0,128.0,124.0,127.0,128.0,133.0,-1.0,104.0,-75.0,127.0,127.0,127.0,-120.0,-89.0,127.0
128.0,127.0,126.0,128.0,124.0,127.0,128.0,133.0,-1.0,104.0,-75.0,127.0,127.0,127.0,-120.0,-89.0,127.0
128.0,127.0,126.0,128.0,124.0,127.0,128.0,134.0,-1.0,104.0,-75.0,127.0,127.0,127.0,-120.0,-89.0,127.0
128.0,127.0,126.0,128.0,124.0,127.0,128.0,134.0,-1.0,104.0,-75.0,127.0,127.0,127.0,-120.0,-89.0,127.0
128.0,127.0,126.0,128.0,125.0,127.0,128.0,134.0,-1.0,104.0,-75.0,127.0,127.0,127.0,-120.0,-89.0,127.0
126.0,127.0,126.0,128.0,126.0,127.0,129.0,132.0,-1.0,105.0,-74.0,127.0,127.0,127.0,-120.0,-89.0,127.0
126.0,127.0,126.0,127.0,127.0,127.0,129.0,132.0,-1.0,105.0,-74.0,127.0,127.0,127.0,-120.0,-89.0,127.0
126.0,127.0,126.0,127.0,127.0,126.0,129.0,132.0,-1.0,105.0,-74.0,127.0,127.0,127.0,-120.0,-89.0,127.0
126.0,127.0,126.0,127.0,127.0,126.0,129.0,132.0,-1.0,105.0,-74.0,127.0,127.0,127.0,-120.0,-89.0,127.0
126.0,127.0,126.0,127.0,127.0,126.0,129.0,132.0,-1.0,105.0,-74.0,127.0,127.0,127.0,-120.0,-89.0,127.0
126.0,127.0,126.0,127.0,127.0,126.0,129.0,132.0,-1.0,105.0,-74.0,127.0,127.0,127.0,-120.0,-89.0,127.0
126.0,127.0,126.0,127.0,126.0,127.0,129.0,132.0,-1.0,105.0,-74.0,127.0,127.0,127.0,-120.0,-89.0,127.0
126.0,127.0,126.0,127.0,126.0,127.0,129.0,132.0,-1.0,105.0,-74.0,127.0,127.0,127.0,-120.0,-89.0,127.0
126.0,127.0,126.0,127.0,126.0,127.0,129.0,132.0,-1.0,105.0,-74.0,127.0,127.0,127.0,-120.0,-89.0,127.0
126.0,127.0,126.0,127.0,126.0,127.0,129.0,132.0,-1.0,105.0,-74.0,127.0,127.0,127.0,-120.0,-89.0,127.0
125.0,128.0,127.0,127.0,127.0,127.0,128.0,130.0,-1.0,105.0,-73.0,127.0,127.0,127.0,-120.0,-89.0,127.0
125.0,127.0,126.0,127.0,126.0,126.0,128.0,130.0,-1.0,105.0,-73.0,127.0,127.0,127.0,-120.0,-89.0,127.0
125.0,127.0,127.0,127.0,126.0,126.0,128.0,130.0,-1.0,105.0,-73.0,127.0,127.0,127.0,-120.0,-89.0,127.0
125.0,127.0,127.0,127.0,126.0,126.0,128.0,130.0,-1.0,105.0,-73.0,127.0,127.0,127.0,-120.0,-89.0,127.0
125.0,127.0,126.0,127.0,126.0,126.0,128.0,130.0,-1.0,105.0,-73.0,127.0,127.0,127.0,-120.0,-89.0,127.0
125.0,127.0,126.0,127.0,126.0,127.0,128.0,130.0,-1.0,105.0,-73.0,127.0,127.0,127.0,-120.0,-89.0,127.0
125.0,128.0,126.0,127.0,126.0,127.0,128.0,130.0,-1.0,105.0,-73.0,127.0,127.0,127.0,-120.0,-89.0,127.0
125.0,128.0,127.0,127.0,126.0,127.0,128.0,130.0,-1.0,105.0,-73.0,127.0,127.0,127.0,-120.0,-89.0,127.0
125.0,128.0,127.0,127.0,127.0,127.0,128.0,130.0,-1.0,105.0,-73.0,127.0,127.0,127.0,-120.0,-89.0,127.0
125.0,128.0,127.0,127.0,127.0,127.0,128.0,130.0,-1.0,105.0,-73.0,127.0,127.0,127.0,-120.0,-89.0,127.0
126.0,127.0,127.0,127.0,127.0,126.0,128.0,129.0,-1.0,105.0,-72.0,127.0,127.0,127.0,-120.0,-89.0,127.0
126.0,127.0,127.0,127.0,127.0,126.0,128.0,129.0,-1.0,105.0,-72.0,127.0,127.0,127.0,-120.0,-89.0,127.0
125.0,127.0,127.0,127.0,127.0,126.0,128.0,129.0,-1.0,105.0,-72.0,127.0,127.0,127.0,-120.0,-89.0,127.0
126.0,127.0,127.0,127.0,127.0,126.0,128.0,129.0,-1.0,105.0,-72.0,127.0,127.0,127.0,-120.0,-89.0,127.0
125.0,127.0,127.0,127.0,127.0,125.0,128.0,129.0,-1.0,105.0,-72.0,127.0,127.0,127.0,-120.0,-89.0,127.0
125.0,127.0,127.0,127.0,127.0,126.0,127.0,129.0,-1.0,105.0,-72.0,127.0,127.0,127.0,-120.0,-89.0,127.0
125.0,127.0,127.0,127.0,127.0,126.0,127.0,129.0,-1.0,105.0,-72.0,127.0,127.0,127.0,-120.0,-89.0,127.0
125.0,127.0,127.0,127.0,126.0,126.0,127.0,129.0,-1.0,105.0,-72.0,127.0,127.0,127.0,-120.0,-89.0,127.0
125.0,127.0,127.0,127.0,126.0,126.0,127.0,129.0,-1.0,105.0,-72.0,127.0,127.0,127.0,-120.0,-89.0,127.0
125.0,127.0,127.0,127.0,126.0,126.0,127.0,129.0,-1.0,105.0,-72.0,127.0,127.0,127.0,-120.0,-89.0,127.0
126.0,128.0,127.0,128.0,125.0,127.0,130.0,129.0,-1.0,105.0,-71.0,127.0,127.0,127.0,-120.0,-89.0,127.0
126.0,128.0,127.0,128.0,126.0,127.0,130.0,130.0,-1.0,105.0,-71.0,127.0,127.0,127.0,-120.0,-89.0,127.0
126.0,128.0,127.0,128.0,126.0,127.0,130.0,129.0,-1.0,105.0,-71.0,127.0,127.0,127.0,-120.0,-89.0,127.0
126.0,128.0,127.0,128.0,126.0,126.0,130.0,129.0,-1.0,105.0,-71.0,127.0,127.0,127.0,-120.0,-89.0,127.0
126.0,128.0,127.0,128.0,126.0,126.0,130.0,129.0,-1.0,105.0,-71.0,127.0,127.0,127.0,-120.0,-89.0,127.0
126.0,128.0,127.0,128.0,126.0,126.0,130.0,129.0,-1.0,105.0,-71.0,127.0,127.0,127.0,-120.0,-89.0,127.0
125.0,128.0,127.0,128.0,126.0,126.0,131.0,129.0,-1.0,105.0,-71.0,127.0,127.0,127.0,-120.0,-89.0,127.0
125.0,128.0,127.0,128.0,126.0,126.0,131.0,129.0,-1.0,105.0,-71.0,127.0,127.0,127.0,-120.0,-89.0,127.0
125.0,127.0,127.0,128.0,126.0,125.0,131.0,129.0,-1.0,105.0,-71.0,127.0,127.0,127.0,-120.0,-89.0,127.0
126.0,128.0,127.0,128.0,125.0,127.0,130.0,129.0,-1.0,105.0,-71.0,127.0,127.0,127.0,-120.0,-89.0,127.0
125.0,128.0,126.0,128.0,126.0,127.0,183.0,126.0,-1.0,105.0,-70.0,127.0,127.0,127.0,-120.0,-89.0,127.0
125.0,128.0,126.0,128.0,125.0,126.0,186.0,126.0,-1.0,105.0,-70.0,127.0,127.0,127.0,-120.0,-89.0,127.0
126.0,128.0,126.0,128.0,125.0,126.0,190.0,126.0,-1.0,105.0,-70.0,127.0,127.0,127.0,-120.0,-89.0,127.0
126.0,128.0,126.0,128.0,125.0,125.0,193.0,126.0,-1.0,105.0,-70.0,127.0,127.0,127.0,-120.0,-89.0,127.0
126.0,128.0,126.0,128.0,125.0,125.0,198.0,126.0,-1.0,105.0,-70.0,127.0,127.0,127.0,-120.0,-89.0,127.0
126.0,128.0,126.0,128.0,125.0,124.0,202.0,126.0,-1.0,105.0,-70.0,127.0,127.0,127.0,-120.0,-89.0,127.0
126.0,127.0,126.0,128.0,125.0,124.0,206.0,126.0,-1.0,105.0,-70.0,127.0,127.0,127.0,-120.0,-89.0,127.0
127.0,127.0,126.0,128.0,125.0,124.0,211.0,126.0,-1.0,105.0,-70.0,127.0,127.0,127.0,-120.0,-89.0,127.0
125.0,128.0,126.0,128.0,126.0,127.0,177.0,126.0,-1.0,105.0,-70.0,127.0,127.0,127.0,-120.0,-89.0,127.0
125.0,128.0,126.0,128.0,126.0,127.0,180.0,126.0,-1.0,105.0,-70.0,127.0,127.0,127.0,-120.0,-89.0,127.0
125.0,127.0,123.0,129.0,123.0,121.0,234.0,111.0,-1.0,105.0,-70.0,127.0,127.0,127.0,-120.0,-89.0,127.0
125.0,127.0,122.0,129.0,122.0,121.0,230.0,110.0,-1.0,105.0,-70.0,127.0,127.0,127.0,-120.0,-89.0,127.0
125.0,127.0,122.0,129.0,122.0,121.0,226.0,110.0,-1.0,105.0,-70.0,127.0,127.0,127.0,-120.0,-89.0,127.0
124.0,126.0,122.0,129.0,122.0,121.0,222.0,109.0,-1.0,105.0,-70.0,127.0,127.0,127.0,-120.0,-89.0,127.0
124.0,126.0,122.0,129.0,122.0,122.0,217.0,109.0,-1.0,105.0,-70.0,127.0,127.0,127.0,-120.0,-89.0,127.0
124.0,126.0,122.0,129.0,122.0,122.0,213.0,108.0,-1.0,105.0,-70.0,127.0,127.0,127.0,-120.0,-89.0,127.0
124.0,126.0,122.0,129.0,122.0,123.0,209.0,108.0,-1.0,105.0,-70.0,127.0,127.0,127.0,-120.0,-89.0,127.0
125.0,128.0,123.0,129.0,123.0,121.0,244.0,113.0,-1.0,105.0,-70.0,127.0,127.0,127.0,-120.0,-89.0,127.0
125.0,128.0,123.0,129.0,123.0,121.0,241.0,112.0,-1.0,105.0,-70.0,127.0,127.0,127.0,-120.0,-89.0,127.0
125.0,127.0,123.0,129.0,123.0,121.0,238.0,112.0,-1.0,105.0,-70.0,127.0,127.0,127.0,-120.0,-89.0,127.0
113.0,118.0,121.0,131.0,117.0,121.0,0.0,100.0,-1.0,105.0,-69.0,126.0,127.0,127.0,-120.0,-89.0,127.0
113.0,117.0,121.0,131.0,117.0,121.0,0.0,100.0,-1.0,105.0,-69.0,126.0,127.0,127.0,-120.0,-89.0,127.0
112.0,116.0,121.0,131.0,117.0,121.0,0.0,100.0,-1.0,105.0,-69.0,126.0,127.0,127.0,-120.0,-89.0,127.0
112.0,115.0,120.0,131.0,117.0,121.0,0.0,100.0,-1.0,105.0,-69.0,126.0,127.0,127.0,-120.0,-89.0,127.0
112.0,114.0,120.0,131.0,118.0,121.0,0.0,101.0,-1.0,105.0,-69.0,126.0,127.0,127.0,-120.0,-89.0,127.0
113.0,113.0,120.0,131.0,118.0,122.0,0.0,102.0,-1.0,105.0,-69.0,126.0,127.0,127.0,-120.0,-89.0,127.0
116.0,120.0,120.0,132.0,118.0,120.0,5.0,100.0,-1.0,105.0,-69.0,126.0,127.0,127.0,-120.0,-89.0,127.0
115.0,120.0,120.0,132.0,117.0,121.0,0.0,100.0,-1.0,105.0,-69.0,126.0,127.0,127.0,-120.0,-89.0,127.0
115.0,120.0,120.0,131.0,117.0,122.0,0.0,100.0,-1.0,105.0,-69.0,126.0,127.0,127.0,-120.0,-89.0,127.0
114.0,119.0,120.0,131.0,117.0,122.0,0.0,100.0,-1.0,105.0,-69.0,126.0,127.0,127.0,-120.0,-89.0,127.0
115.0,92.0,110.0,123.0,127.0,106.0,73.0,120.0,-1.0,106.0,-68.0,126.0,127.0,127.0,-120.0,-89.0,127.0
116.0,92.0,109.0,123.0,128.0,106.0,75.0,120.0,-1.0,106.0,-68.0,126.0,127.0,127.0,-120.0,-89.0,127.0
116.0,91.0,109.0,123.0,128.0,105.0,78.0,120.0,-1.0,106.0,-68.0,126.0,127.0,127.0,-120.0,-89.0,127.0
116.0,90.0,108.0,123.0,129.0,105.0,79.0,121.0,-1.0,106.0,-68.0,126.0,127.0,127.0,-120.0,-89.0,127.0
116.0,90.0,108.0,123.0,129.0,103.0,81.0,121.0,-1.0,106.0,-68.0,126.0,127.0,127.0,-120.0,-89.0,127.0
118.0,94.0,115.0,122.0,125.0,105.0,57.0,119.0,-1.0,106.0,-68.0,126.0,127.0,127.0,-120.0,-89.0,127.0
117.0,94.0,114.0,122.0,125.0,105.0,61.0,119.0,-1.0,106.0,-68.0,126.0,127.0,127.0,-120.0,-89.0,127.0
116.0,93.0,112.0,122.0,126.0,106.0,64.0,119.0,-1.0,106.0,-68.0,126.0,127.0,127.0,-120.0,-89.0,127.0
115.0,93.0,111.0,122.0,126.0,106.0,67.0,120.0,-1.0,106.0,-68.0,126.0,127.0,127.0,-120.0,-89.0,127.0
115.0,93.0,111.0,122.0,127.0,106.0,70.0,120.0,-1.0,106.0,-68.0,126.0,127.0,127.0,-120.0,-89.0,127.0
110.0,108.0,133.0,129.0,128.0,79.0,18.0,139.0,-1.0,107.0,-69.0,126.0,127.0,127.0,-120.0,-89.0,127.0
110.0,109.0,134.0,130.0,128.0,77.0,18.0,140.0,-1.0,107.0,-69.0,126.0,127.0,127.0,-120.0,-89.0,127.0
110.0,110.0,135.0,131.0,128.0,75.0,19.0,141.0,-1.0,107.0,-69.0,126.0,127.0,127.0,-120.0,-89.0,127.0
109.0,111.0,135.0,131.0,128.0,73.0,19.0,142.0,-1.0,107.0,-69.0,126.0,127.0,127.0,-120.0,-89.0,127.0
110.0,103.0,129.0,126.0,127.0,77.0,19.0,133.0,-1.0,107.0,-69.0,126.0,127.0,127.0,-120.0,-89.0,127.0
110.0,104.0,129.0,127.0,127.0,79.0,18.0,134.0,-1.0,107.0,-69.0,126.0,127.0,127.0,-120.0,-89.0,127.0
110.0,105.0,130.0,127.0,127.0,81.0,18.0,135.0,-1.0,107.0,-69.0,126.0,127.0,127.0,-120.0,-89.0,127.0
110.0,106.0,130.0,128.0,127.0,82.0,18.0,136.0,-1.0,107.0,-69.0,126.0,127.0,127.0,-120.0,-89.0,127.0
110.0,106.0,131.0,128.0,127.0,81.0,18.0,137.0,-1.0,107.0,-69.0,126.0,127.0,127.0,-120.0,-89.0,127.0
110.0,107.0,132.0,129.0,127.0,80.0,18.0,138.0,-1.0,107.0,-69.0,126.0,127.0,127.0,-120.0,-89.0,127.0
120.0,118.0,138.0,153.0,126.0,122.0,95.0,163.0,-1.0,106.0,-70.0,125.0,127.0,127.0,-120.0,-89.0,127.0
121.0,118.0,137.0,153.0,127.0,126.0,100.0,163.0,-1.0,106.0,-70.0,125.0,127.0,127.0,-120.0,-89.0,127.0
123.0,117.0,137.0,154.0,127.0,129.0,104.0,163.0,-1.0,106.0,-70.0,125.0,127.0,127.0,-120.0,-89.0,127.0
115.0,121.0,140.0,148.0,126.0,109.0,74.0,160.0,-1.0,106.0,-70.0,125.0,127.0,127.0,-120.0,-89.0,127.0
116.0,121.0,139.0,149.0,126.0,110.0,76.0,161.0,-1.0,106.0,-70.0,125.0,127.0,127.0,-120.0,-89.0,127.0
117.0,120.0,139.0,150.0,126.0,112.0,78.0,161.0,-1.0,106.0,-70.0,125.0,127.0,127.0,-120.0,-89.0,127.0
117.0,120.0,139.0,150.0,126.0,113.0,81.0,161.0,-1.0,106.0,-70.0,125.0,127.0,127.0,-120.0,-89.0,127.0
118.0,119.0,139.0,151.0,126.0,115.0,84.0,162.0,-1.0,106.0,-70.0,125.0,127.0,127.0,-120.0,-89.0,127.0
119.0,119.0,139.0,151.0,126.0,116.0,87.0,162.0,-1.0,106.0,-70.0,125.0,127.0,127.0,-120.0,-89.0,127.0
119.0,118.0,138.0,152.0,126.0,119.0,91.0,162.0,-1.0,106.0,-70.0,125.0,127.0,127.0,-120.0,-89.0,127.0
126.0,123.0,133.0,170.0,129.0,93.0,157.0,172.0,-1.0,106.0,-69.0,125.0,127.0,127.0,-119.0,-89.0,127.0
125.0,123.0,133.0,170.0,129.0,90.0,157.0,172.0,-1.0,106.0,-69.0,125.0,127.0,127.0,-119.0,-89.0,127.0
132.0,117.0,130.0,172.0,123.0,116.0,167.0,171.0,-1.0,106.0,-69.0,125.0,127.0,127.0,-119.0,-89.0,127.0
131.0,118.0,130.0,171.0,123.0,112.0,166.0,171.0,-1.0,106.0,-69.0,125.0,127.0,127.0,-119.0,-89.0,127.0
130.0,119.0,131.0,171.0,124.0,108.0,164.0,171.0,-1.0,106.0,-69.0,125.0,127.0,127.0,-119.0,-89.0,127.0
129.0,119.0,131.0,171.0,124.0,105.0,163.0,171.0,-1.0,106.0,-69.0,125.0,127.0,127.0,-119.0,-89.0,127.0
128.0,120.0,132.0,171.0,125.0,103.0,162.0,171.0,-1.0,106.0,-69.0,125.0,127.0,127.0,-119.0,-89.0,127.0
128.0,121.0,132.0,171.0,126.0,101.0,160.0,172.0,-1.0,106.0,-69.0,125.0,127.0,127.0,-119.0,-89.0,127.0
127.0,122.0,132.0,171.0,127.0,99.0,159.0,172.0,-1.0,106.0,-69.0,125.0,127.0,127.0,-119.0,-89.0,127.0
127.0,123.0,133.0,170.0,128.0,96.0,158.0,172.0,-1.0,106.0,-69.0,125.0,127.0,127.0,-119.0,-89.0,127.0
126.0,136.0,139.0,151.0,136.0,129.0,153.0,172.0,-1.0,104.0,-68.0,125.0,127.0,127.0,-119.0,-89.0,127.0
124.0,140.0,142.0,154.0,137.0,111.0,153.0,173.0,-1.0,104.0,-68.0,125.0,127.0,127.0,-119.0,-89.0,127.0
125.0,140.0,142.0,154.0,137.0,113.0,153.0,173.0,-1.0,104.0,-68.0,125.0,127.0,127.0,-119.0,-89.0,127.0
124.0,140.0,142.0,153.0,137.0,115.0,153.0,174.0,-1.0,104.0,-68.0,125.0,127.0,127.0,-119.0,-89.0,127.0
124.0,140.0,142.0,153.0,137.0,117.0,153.0,174.0,-1.0,104.0,-68.0,125.0,127.0,127.0,-119.0,-89.0,127.0
123.0,139.0,142.0,153.0,137.0,118.0,153.0,173.0,-1.0,104.0,-68.0,125.0,127.0,127.0,-119.0,-89.0,127.0
123.0,138.0,142.0,153.0,137.0,120.0,153.0,173.0,-1.0,104.0,-68.0,125.0,127.0,127.0,-119.0,-89.0,127.0
124.0,137.0,141.0,152.0,137.0,122.0,153.0,173.0,-1.0,104.0,-68.0,125.0,127.0,127.0,-119.0,-89.0,127.0
124.0,136.0,141.0,152.0,136.0,124.0,153.0,172.0,-1.0,104.0,-68.0,125.0,127.0,127.0,-119.0,-89.0,127.0
125.0,136.0,140.0,152.0,136.0,126.0,153.0,172.0,-1.0,104.0,-68.0,125.0,127.0,127.0,-119.0,-89.0,127.0
124.0,105.0,132.0,147.0,122.0,162.0,174.0,162.0,-1.0,100.0,-70.0,126.0,127.0,127.0,-118.0,-89.0,127.0
124.0,105.0,132.0,147.0,122.0,161.0,175.0,162.0,-1.0,100.0,-70.0,126.0,127.0,127.0,-118.0,-89.0,127.0
125.0,106.0,132.0,147.0,121.0,161.0,175.0,161.0,-1.0,100.0,-70.0,126.0,127.0,127.0,-118.0,-89.0,127.0
125.0,106.0,131.0,148.0,121.0,161.0,175.0,161.0,-1.0,100.0,-70.0,126.0,127.0,127.0,-118.0,-89.0,127.0
126.0,106.0,131.0,148.0,121.0,162.0,175.0,161.0,-1.0,100.0,-70.0,126.0,127.0,127.0,-118.0,-89.0,127.0
127.0,107.0,131.0,148.0,121.0,164.0,175.0,161.0,-1.0,100.0,-70.0,126.0,127.0,127.0,-118.0,-89.0,127.0
127.0,107.0,130.0,148.0,120.0,165.0,175.0,161.0,-1.0,100.0,-70.0,126.0,127.0,127.0,-118.0,-89.0,127.0
128.0,107.0,130.0,148.0,120.0,166.0,175.0,161.0,-1.0,100.0,-70.0,126.0,127.0,127.0,-118.0,-89.0,127.0
129.0,107.0,130.0,149.0,120.0,167.0,175.0,161.0,-1.0,100.0,-70.0,126.0,127.0,127.0,-118.0,-89.0,127.0
129.0,107.0,130.0,149.0,120.0,168.0,175.0,161.0,-1.0,100.0,-70.0,126.0,127.0,127.0,-118.0,-89.0,127.0
139.0,120.0,128.0,155.0,119.0,167.0,163.0,155.0,-1.0,102.0,-73.0,126.0,127.0,127.0,-118.0,-89.0,127.0
139.0,120.0,128.0,155.0,119.0,167.0,162.0,156.0,-1.0,102.0,-73.0,126.0,127.0,127.0,-118.0,-89.0,127.0
139.0,120.0,128.0,156.0,120.0,166.0,162.0,156.0,-1.0,102.0,-73.0,126.0,127.0,127.0,-118.0,-89.0,127.0
139.0,121.0,128.0,156.0,120.0,166.0,161.0,156.0,-1.0,102.0,-73.0,126.0,127.0,127.0,-118.0,-89.0,127.0
139.0,122.0,128.0,156.0,121.0,166.0,161.0,156.0,-1.0,102.0,-73.0,126.0,127.0,127.0,-118.0,-89.0,127.0
139.0,122.0,128.0,156.0,121.0,166.0,160.0,156.0,-1.0,102.0,-73.0,126.0,127.0,127.0,-118.0,-89.0,127.0
139.0,123.0,129.0,156.0,122.0,165.0,160.0,156.0,-1.0,102.0,-73.0,126.0,127.0,127.0,-118.0,-89.0,127.0
140.0,123.0,130.0,156.0,122.0,164.0,159.0,156.0,-1.0,102.0,-73.0,126.0,127.0,127.0,-118.0,-89.0,127.0
141.0,124.0,130.0,156.0,122.0,164.0,158.0,156.0,-1.0,102.0,-73.0,126.0,127.0,127.0,-118.0,-89.0,127.0
140.0,120.0,128.0,155.0,118.0,168.0,163.0,155.0,-1.0,102.0,-73.0,126.0,127.0,127.0,-118.0,-89.0,127.0
132.0,125.0,127.0,150.0,129.0,157.0,72.0,151.0,-1.0,104.0,-74.0,126.0,127.0,127.0,-118.0,-89.0,127.0
132.0,125.0,127.0,150.0,129.0,156.0,70.0,151.0,-1.0,104.0,-74.0,126.0,127.0,127.0,-118.0,-89.0,127.0
131.0,125.0,127.0,150.0,130.0,155.0,67.0,151.0,-1.0,104.0,-74.0,126.0,127.0,127.0,-118.0,-89.0,127.0
131.0,125.0,127.0,150.0,129.0,154.0,65.0,151.0,-1.0,104.0,-74.0,126.0,127.0,127.0,-118.0,-89.0,127.0
130.0,124.0,127.0,151.0,129.0,154.0,63.0,151.0,-1.0,104.0,-74.0,126.0,127.0,127.0,-118.0,-89.0,127.0
130.0,124.0,127.0,151.0,129.0,153.0,61.0,151.0,-1.0,104.0,-74.0,126.0,127.0,127.0,-118.0,-89.0,127.0
130.0,124.0,127.0,151.0,130.0,152.0,60.0,151.0,-1.0,104.0,-74.0,126.0,127.0,127.0,-118.0,-89.0,127.0
130.0,124.0,127.0,151.0,130.0,151.0,58.0,151.0,-1.0,104.0,-74.0,126.0,127.0,127.0,-118.0,-89.0,127.0
132.0,127.0,127.0,150.0,128.0,158.0,78.0,152.0,-1.0,104.0,-74.0,126.0,127.0,127.0,-118.0,-89.0,127.0
132.0,126.0,127.0,150.0,129.0,158.0,75.0,151.0,-1.0,104.0,-74.0,126.0,127.0,127.0,-118.0,-89.0,127.0
119.0,121.0,126.0,159.0,133.0,137.0,122.0,144.0,-1.0,102.0,-74.0,126.0,127.0,127.0,-118.0,-89.0,127.0
118.0,122.0,127.0,159.0,133.0,136.0,124.0,144.0,-1.0,102.0,-74.0,126.0,127.0,127.0,-118.0,-89.0,127.0
116.0,122.0,127.0,159.0,133.0,136.0,126.0,143.0,-1.0,102.0,-74.0,126.0,127.0,127.0,-118.0,-89.0,127.0
115.0,122.0,128.0,159.0,133.0,136.0,129.0,143.0,-1.0,102.0,-74.0,126.0,127.0,127.0,-118.0,-89.0,127.0
114.0,122.0,128.0,158.0,133.0,135.0,131.0,143.0,-1.0,102.0,-74.0,126.0,127.0,127.0,-118.0,-89.0,127.0
114.0,122.0,128.0,158.0,132.0,134.0,133.0,142.0,-1.0,102.0,-74.0,126.0,127.0,127.0,-118.0,-89.0,127.0
114.0,122.0,128.0,158.0,132.0,133.0,135.0,142.0,-1.0,102.0,-74.0,126.0,127.0,127.0,-118.0,-89.0,127.0
122.0,121.0,124.0,159.0,132.0,136.0,114.0,145.0,-1.0,102.0,-74.0,126.0,127.0,127.0,-118.0,-89.0,127.0
122.0,121.0,125.0,159.0,133.0,136.0,117.0,145.0,-1.0,102.0,-74.0,126.0,127.0,127.0,-118.0,-89.0,127.0
121.0,121.0,125.0,159.0,133.0,137.0,119.0,145.0,-1.0,102.0,-74.0,126.0,127.0,127.0,-118.0,-89.0,127.0
123.0,125.0,126.0,156.0,129.0,134.0,175.0,139.0,-1.0,101.0,-74.0,126.0,127.0,127.0,-117.0,-89.0,127.0
123.0,125.0,126.0,156.0,129.0,135.0,175.0,139.0,-1.0,101.0,-74.0,126.0,127.0,127.0,-117.0,-89.0,127.0
124.0,125.0,126.0,156.0,129.0,136.0,175.0,140.0,-1.0,101.0,-74.0,126.0,127.0,127.0,-117.0,-89.0,127.0
124.0,125.0,126.0,157.0,130.0,136.0,175.0,140.0,-1.0,101.0,-74.0,126.0,127.0,127.0,-117.0,-89.0,127.0
125.0,125.0,126.0,157.0,131.0,137.0,175.0,140.0,-1.0,101.0,-74.0,126.0,127.0,127.0,-117.0,-89.0,127.0
125.0,124.0,126.0,157.0,132.0,137.0,175.0,140.0,-1.0,101.0,-74.0,126.0,127.0,127.0,-117.0,-89.0,127.0
123.0,126.0,126.0,155.0,127.0,130.0,175.0,140.0,-1.0,101.0,-74.0,126.0,127.0,127.0,-117.0,-89.0,127.0
123.0,126.0,126.0,155.0,127.0,130.0,175.0,139.0,-1.0,101.0,-74.0,126.0,127.0,127.0,-117.0,-89.0,127.0
123.0,125.0,126.0,155.0,128.0,131.0,175.0,139.0,-1.0,101.0,-74.0,126.0,127.0,127.0,-117.0,-89.0,127.0
123.0,125.0,126.0,155.0,128.0,132.0,175.0,139.0,-1.0,101.0,-74.0,126.0,127.0,127.0,-117.0,-89.0,127.0
133.0,125.0,128.0,166.0,136.0,138.0,165.0,138.0,-1.0,102.0,-75.0,126.0,127.0,127.0,-117.0,-89.0,127.0
133.0,125.0,127.0,166.0,135.0,139.0,165.0,138.0,-1.0,102.0,-75.0,126.0,127.0,127.0,-117.0,-89.0,127.0
132.0,125.0,127.0,166.0,135.0,140.0,165.0,138.0,-1.0,102.0,-75.0,126.0,127.0,127.0,-117.0,-89.0,127.0
132.0,125.0,127.0,166.0,134.0,141.0,164.0,138.0,-1.0,102.0,-75.0,126.0,127.0,127.0,-117.0,-89.0,127.0
132.0,125.0,127.0,166.0,134.0,142.0,164.0,138.0,-1.0,102.0,-75.0,126.0,127.0,127.0,-117.0,-89.0,127.0
135.0,125.0,127.0,166.0,135.0,138.0,167.0,139.0,-1.0,102.0,-75.0,126.0,127.0,127.0,-117.0,-89.0,127.0
135.0,125.0,127.0,166.0,135.0,137.0,166.0,139.0,-1.0,102.0,-75.0,126.0,127.0,127.0,-117.0,-89.0,127.0
135.0,125.0,128.0,166.0,136.0,137.0,166.0,139.0,-1.0,102.0,-75.0,126.0,127.0,127.0,-117.0,-89.0,127.0
135.0,125.0,128.0,166.0,136.0,137.0,166.0,139.0,-1.0,102.0,-75.0,126.0,127.0,127.0,-117.0,-89.0,127.0
134.0,125.0,128.0,166.0,136.0,137.0,165.0,139.0,-1.0,102.0,-75.0,126.0,127.0,127.0,-117.0,-89.0,127.0
125.0,126.0,125.0,171.0,131.0,138.0,153.0,130.0,-1.0,102.0,-76.0,126.0,127.0,127.0,-116.0,-89.0,127.0
126.0,126.0,126.0,171.0,131.0,137.0,153.0,130.0,-1.0,102.0,-76.0,126.0,127.0,127.0,-116.0,-89.0,127.0
126.0,126.0,126.0,172.0,131.0,137.0,153.0,131.0,-1.0,102.0,-76.0,126.0,127.0,127.0,-116.0,-89.0,127.0
126.0,126.0,126.0,172.0,132.0,138.0,153.0,131.0,-1.0,102.0,-76.0,126.0,127.0,127.0,-116.0,-89.0,127.0
125.0,126.0,125.0,170.0,130.0,136.0,153.0,131.0,-1.0,102.0,-76.0,126.0,127.0,127.0,-116.0,-89.0,127.0
125.0,126.0,125.0,170.0,130.0,137.0,153.0,131.0,-1.0,102.0,-76.0,126.0,127.0,127.0,-116.0,-89.0,127.0
125.0,126.0,125.0,170.0,130.0,137.0,153.0,130.0,-1.0,102.0,-76.0,126.0,127.0,127.0,-116.0,-89.0,127.0
125.0,126.0,125.0,171.0,130.0,138.0,153.0,130.0,-1.0,102.0,-76.0,126.0,127.0,127.0,-116.0,-89.0,127.0
125.0,126.0,125.0,171.0,130.0,138.0,153.0,130.0,-1.0,102.0,-76.0,126.0,127.0,127.0,-116.0,-89.0,127.0
125.0,126.0,125.0,171.0,130.0,138.0,153.0,130.0,-1.0,102.0,-76.0,126.0,127.0,127.0,-116.0,-89.0,127.0
115.0,127.0,125.0,165.0,130.0,136.0,139.0,128.0,-1.0,100.0,-76.0,127.0,127.0,127.0,-115.0,-89.0,127.0
115.0,126.0,125.0,165.0,131.0,136.0,139.0,128.0,-1.0,100.0,-76.0,127.0,127.0,127.0,-115.0,-89.0,127.0
115.0,126.0,125.0,164.0,131.0,135.0,138.0,128.0,-1.0,100.0,-76.0,127.0,127.0,127.0,-115.0,-89.0,127.0
114.0,126.0,124.0,167.0,130.0,136.0,143.0,127.0,-1.0,100.0,-76.0,127.0,127.0,127.0,-115.0,-89.0,127.0
114.0,126.0,124.0,167.0,130.0,135.0,143.0,127.0,-1.0,100.0,-76.0,127.0,127.0,127.0,-115.0,-89.0,127.0
114.0,126.0,124.0,166.0,130.0,135.0,142.0,127.0,-1.0,100.0,-76.0,127.0,127.0,127.0,-115.0,-89.0,127.0
114.0,127.0,124.0,166.0,129.0,136.0,142.0,128.0,-1.0,100.0,-76.0,127.0,127.0,127.0,-115.0,-89.0,127.0
115.0,127.0,124.0,166.0,129.0,136.0,141.0,128.0,-1.0,100.0,-76.0,127.0,127.0,127.0,-115.0,-89.0,127.0
115.0,127.0,125.0,166.0,130.0,136.0,141.0,128.0,-1.0,100.0,-76.0,127.0,127.0,127.0,-115.0,-89.0,127.0
115.0,127.0,125.0,165.0,130.0,136.0,140.0,128.0,-1.0,100.0,-76.0,127.0,127.0,127.0,-115.0,-89.0,127.0
112.0,126.0,125.0,154.0,127.0,135.0,145.0,126.0,-1.0,100.0,-76.0,127.0,127.0,127.0,-115.0,-89.0,127.0
113.0,126.0,126.0,155.0,129.0,131.0,143.0,126.0,-1.0,100.0,-76.0,127.0,127.0,127.0,-115.0,-89.0,127.0
113.0,126.0,126.0,154.0,128.0,130.0,143.0,126.0,-1.0,100.0,-76.0,127.0,127.0,127.0,-115.0,-89.0,127.0
112.0,126.0,126.0,154.0,128.0,130.0,143.0,126.0,-1.0,100.0,-76.0,127.0,127.0,127.0,-115.0,-89.0,127.0
112.0,126.0,126.0,154.0,128.0,130.0,143.0,126.0,-1.0,100.0,-76.0,127.0,127.0,127.0,-115.0,-89.0,127.0
112.0,126.0,126.0,154.0,127.0,132.0,144.0,126.0,-1.0,100.0,-76.0,127.0,127.0,127.0,-115.0,-89.0,127.0
112.0,126.0,126.0,154.0,127.0,132.0,144.0,126.0,-1.0,100.0,-76.0,127.0,127.0,127.0,-115.0,-89.0,127.0
112.0,126.0,126.0,154.0,127.0,133.0,144.0,126.0,-1.0,100.0,-76.0,127.0,127.0,127.0,-115.0,-89.0,127.0
112.0,126.0,126.0,154.0,127.0,133.0,144.0,126.0,-1.0,100.0,-76.0,127.0,127.0,127.0,-115.0,-89.0,127.0
112.0,126.0,125.0,154.0,127.0,134.0,145.0,126.0,-1.0,100.0,-76.0,127.0,127.0,127.0,-115.0,-89.0,127.0
111.0,126.0,125.0,155.0,126.0,134.0,143.0,126.0,-1.0,100.0,-76.0,127.0,127.0,127.0,-115.0,-89.0,127.0
111.0,126.0,125.0,155.0,126.0,134.0,143.0,126.0,-1.0,100.0,-76.0,127.0,127.0,127.0,-115.0,-89.0,127.0
111.0,126.0,125.0,155.0,126.0,134.0,143.0,126.0,-1.0,100.0,-76.0,127.0,127.0,127.0,-115.0,-89.0,127.0
111.0,126.0,125.0,155.0,126.0,134.0,142.0,126.0,-1.0,100.0,-76.0,127.0,127.0,127.0,-115.0,-89.0,127.0
111.0,126.0,124.0,155.0,125.0,135.0,142.0,127.0,-1.0,100.0,-76.0,127.0,127.0,127.0,-115.0,-89.0,127.0
111.0,126.0,125.0,155.0,125.0,135.0,142.0,127.0,-1.0,100.0,-76.0,127.0,127.0,127.0,-115.0,-89.0,127.0
111.0,126.0,125.0,155.0,125.0,136.0,142.0,127.0,-1.0,100.0,-76.0,127.0,127.0,127.0,-115.0,-89.0,127.0
111.0,126.0,125.0,155.0,125.0,136.0,142.0,127.0,-1.0,100.0,-76.0,127.0,127.0,127.0,-115.0,-89.0,127.0
111.0,126.0,125.0,155.0,125.0,136.0,142.0,127.0,-1.0,100.0,-76.0,127.0,127.0,127.0,-115.0,-89.0,127.0
111.0,126.0,125.0,155.0,125.0,137.0,142.0,127.0,-1.0,100.0,-76.0,127.0,127.0,127.0,-115.0,-89.0,127.0
110.0,127.0,124.0,153.0,127.0,139.0,135.0,127.0,-1.0,101.0,-75.0,127.0,127.0,127.0,-115.0,-89.0,127.0
110.0,127.0,124.0,153.0,127.0,139.0,135.0,127.0,-1.0,101.0,-75.0,127.0,127.0,127.0,-115.0,-89.0,127.0
110.0,127.0,124.0,153.0,127.0,139.0,135.0,127.0,-1.0,101.0,-75.0,127.0,127.0,127.0,-115.0,-89.0,127.0
110.0,127.0,124.0,153.0,126.0,140.0,135.0,127.0,-1.0,101.0,-75.0,127.0,127.0,127.0,-115.0,-89.0,127.0
110.0,127.0,124.0,153.0,126.0,140.0,134.0,127.0,-1.0,101.0,-75.0,127.0,127.0,127.0,-115.0,-89.0,127.0
110.0,127.0,124.0,153.0,126.0,140.0,134.0,127.0,-1.0,101.0,-75.0,127.0,127.0,127.0,-115.0,-89.0,127.0
110.0,127.0,124.0,153.0,127.0,140.0,134.0,126.0,-1.0,101.0,-75.0,127.0,127.0,127.0,-115.0,-89.0,127.0
110.0,127.0,124.0,153.0,127.0,140.0,134.0,126.0,-1.0,101.0,-75.0,127.0,127.0,127.0,-115.0,-89.0,127.0
110.0,127.0,125.0,153.0,127.0,140.0,133.0,126.0,-1.0,101.0,-75.0,127.0,127.0,127.0,-115.0,-89.0,127.0
110.0,127.0,124.0,153.0,127.0,139.0,135.0,127.0,-1.0,101.0,-75.0,127.0,127.0,127.0,-115.0,-89.0,127.0
118.0,127.0,125.0,150.0,129.0,146.0,117.0,120.0,-1.0,100.0,-75.0,127.0,127.0,127.0,-115.0,-89.0,127.0
118.0,127.0,125.0,150.0,129.0,146.0,116.0,120.0,-1.0,100.0,-75.0,127.0,127.0,127.0,-115.0,-89.0,127.0
118.0,126.0,125.0,150.0,128.0,147.0,116.0,120.0,-1.0,100.0,-75.0,127.0,127.0,127.0,-115.0,-89.0,127.0
118.0,127.0,125.0,150.0,128.0,147.0,115.0,120.0,-1.0,100.0,-75.0,127.0,127.0,127.0,-115.0,-89.0,127.0
119.0,127.0,125.0,150.0,128.0,148.0,114.0,120.0,-1.0,100.0,-75.0,127.0,127.0,127.0,-115.0,-89.0,127.0
119.0,126.0,125.0,149.0,129.0,148.0,114.0,119.0,-1.0,100.0,-75.0,127.0,127.0,127.0,-115.0,-89.0,127.0
119.0,126.0,125.0,149.0,129.0,147.0,113.0,119.0,-1.0,100.0,-75.0,127.0,127.0,127.0,-115.0,-89.0,127.0
119.0,126.0,125.0,149.0,129.0,148.0,113.0,119.0,-1.0,100.0,-75.0,127.0,127.0,127.0,-115.0,-89.0,127.0
118.0,127.0,125.0,150.0,128.0,146.0,117.0,120.0,-1.0,100.0,-75.0,127.0,127.0,127.0,-115.0,-89.0,127.0
118.0,127.0,125.0,150.0,128.0,146.0,117.0,120.0,-1.0,100.0,-75.0,127.0,127.0,127.0,-115.0,-89.0,127.0
118.0,124.0,126.0,147.0,124.0,147.0,95.0,116.0,-1.0,100.0,-74.0,127.0,127.0,127.0,-115.0,-89.0,127.0
117.0,124.0,126.0,147.0,124.0,146.0,95.0,116.0,-1.0,100.0,-74.0,127.0,127.0,127.0,-115.0,-89.0,127.0
117.0,124.0,126.0,147.0,124.0,146.0,96.0,116.0,-1.0,100.0,-74.0,127.0,127.0,127.0,-115.0,-89.0,127.0
117.0,125.0,126.0,147.0,124.0,146.0,97.0,116.0,-1.0,100.0,-74.0,127.0,127.0,127.0,-115.0,-89.0,127.0
117.0,125.0,126.0,147.0,124.0,146.0,97.0,116.0,-1.0,100.0,-74.0,127.0,127.0,127.0,-115.0,-89.0,127.0
116.0,125.0,127.0,147.0,124.0,145.0,98.0,116.0,-1.0,100.0,-74.0,127.0,127.0,127.0,-115.0,-89.0,127.0
116.0,125.0,127.0,147.0,125.0,145.0,99.0,116.0,-1.0,100.0,-74.0,127.0,127.0,127.0,-115.0,-89.0,127.0
118.0,124.0,126.0,147.0,125.0,147.0,93.0,116.0,-1.0,100.0,-74.0,127.0,127.0,127.0,-115.0,-89.0,127.0
118.0,124.0,126.0,147.0,125.0,147.0,93.0,116.0,-1.0,100.0,-74.0,127.0,127.0,127.0,-115.0,-89.0,127.0
118.0,124.0,126.0,147.0,125.0,147.0,94.0,116.0,-1.0,100.0,-74.0,127.0,127.0,127.0,-115.0,-89.0,127.0
114.0,131.0,126.0,146.0,123.0,130.0,135.0,119.0,-1.0,99.0,-74.0,127.0,127.0,127.0,-114.0,-89.0,127.0
114.0,131.0,126.0,146.0,123.0,129.0,136.0,120.0,-1.0,99.0,-74.0,127.0,127.0,127.0,-114.0,-89.0,127.0
114.0,131.0,126.0,146.0,123.0,129.0,137.0,120.0,-1.0,99.0,-74.0,127.0,127.0,127.0,-114.0,-89.0,127.0
114.0,131.0,126.0,146.0,124.0,129.0,138.0,120.0,-1.0,99.0,-74.0,127.0,127.0,127.0,-114.0,-89.0,127.0
114.0,131.0,126.0,146.0,124.0,128.0,139.0,120.0,-1.0,99.0,-74.0,127.0,127.0,127.0,-114.0,-89.0,127.0
115.0,131.0,126.0,146.0,124.0,128.0,140.0,120.0,-1.0,99.0,-74.0,127.0,127.0,127.0,-114.0,-89.0,127.0
114.0,131.0,126.0,147.0,122.0,130.0,132.0,119.0,-1.0,99.0,-74.0,127.0,127.0,127.0,-114.0,-89.0,127.0
114.0,131.0,126.0,147.0,122.0,130.0,133.0,119.0,-1.0,99.0,-74.0,127.0,127.0,127.0,-114.0,-89.0,127.0
114.0,131.0,126.0,147.0,122.0,130.0,134.0,119.0,-1.0,99.0,-74.0,127.0,127.0,127.0,-114.0,-89.0,127.0
114.0,131.0,126.0,146.0,123.0,130.0,134.0,119.0,-1.0,99.0,-74.0,127.0,127.0,127.0,-114.0,-89.0,127.0
117.0,129.0,126.0,129.0,128.0,132.0,149.0,123.0,-1.0,98.0,-74.0,127.0,127.0,127.0,-114.0,-89.0,127.0
117.0,129.0,126.0,129.0,128.0,132.0,149.0,123.0,-1.0,98.0,-74.0,127.0,127.0,127.0,-114.0,-89.0,127.0
117.0,129.0,126.0,128.0,129.0,132.0,148.0,123.0,-1.0,98.0,-74.0,127.0,127.0,127.0,-114.0,-89.0,127.0
117.0,129.0,126.0,128.0,129.0,132.0,147.0,123.0,-1.0,98.0,-74.0,127.0,127.0,127.0,-114.0,-89.0,127.0
117.0,129.0,126.0,127.0,129.0,132.0,146.0,123.0,-1.0,98.0,-74.0,127.0,127.0,127.0,-114.0,-89.0,127.0
117.0,130.0,126.0,132.0,128.0,131.0,153.0,123.0,-1.0,98.0,-74.0,127.0,127.0,127.0,-114.0,-89.0,127.0
117.0,129.0,126.0,132.0,128.0,131.0,152.0,122.0,-1.0,98.0,-74.0,127.0,127.0,127.0,-114.0,-89.0,127.0
117.0,129.0,126.0,131.0,128.0,131.0,152.0,123.0,-1.0,98.0,-74.0,127.0,127.0,127.0,-114.0,-89.0,127.0
117.0,129.0,126.0,130.0,128.0,131.0,151.0,122.0,-1.0,98.0,-74.0,127.0,127.0,127.0,-114.0,-89.0,127.0
117.0,129.0,126.0,130.0,128.0,131.0,150.0,122.0,-1.0,98.0,-74.0,127.0,127.0,127.0,-114.0,-89.0,127.0
121.0,131.0,126.0,97.0,131.0,132.0,147.0,124.0,-1.0,99.0,-75.0,-128.0,127.0,127.0,-114.0,-89.0,127.0
121.0,131.0,126.0,97.0,132.0,132.0,147.0,124.0,-1.0,99.0,-75.0,-128.0,127.0,127.0,-114.0,-89.0,127.0
121.0,131.0,126.0,96.0,132.0,132.0,147.0,124.0,-1.0,99.0,-75.0,-128.0,127.0,127.0,-114.0,-89.0,127.0
121.0,131.0,126.0,96.0,132.0,132.0,147.0,124.0,-1.0,99.0,-75.0,-128.0,127.0,127.0,-114.0,-89.0,127.0
120.0,130.0,126.0,100.0,131.0,132.0,146.0,123.0,-1.0,99.0,-75.0,-128.0,127.0,127.0,-114.0,-89.0,127.0
120.0,130.0,126.0,100.0,131.0,132.0,146.0,123.0,-1.0,99.0,-75.0,-128.0,127.0,127.0,-114.0,-89.0,127.0
121.0,130.0,126.0,99.0,131.0,132.0,146.0,124.0,-1.0,99.0,-75.0,-128.0,127.0,127.0,-114.0,-89.0,127.0
121.0,130.0,126.0,99.0,131.0,132.0,147.0,124.0,-1.0,99.0,-75.0,-128.0,127.0,127.0,-114.0,-89.0,127.0
121.0,130.0,126.0,98.0,131.0,132.0,147.0,124.0,-1.0,99.0,-75.0,-128.0,127.0,127.0,-114.0,-89.0,127.0
121.0,131.0,126.0,98.0,131.0,132.0,147.0,124.0,-1.0,99.0,-75.0,-128.0,127.0,127.0,-114.0,-89.0,127.0
122.0,130.0,126.0,77.0,129.0,129.0,137.0,123.0,-1.0,100.0,-75.0,-128.0,127.0,127.0,-114.0,-89.0,127.0
122.0,130.0,126.0,77.0,129.0,129.0,137.0,123.0,-1.0,100.0,-75.0,-128.0,127.0,127.0,-114.0,-89.0,127.0
122.0,130.0,126.0,77.0,129.0,129.0,136.0,123.0,-1.0,100.0,-75.0,-128.0,127.0,127.0,-114.0,-89.0,127.0
121.0,131.0,126.0,80.0,129.0,130.0,139.0,123.0,-1.0,100.0,-75.0,-128.0,127.0,127.0,-114.0,-89.0,127.0
121.0,130.0,126.0,79.0,129.0,129.0,139.0,123.0,-1.0,100.0,-75.0,-128.0,127.0,127.0,-114.0,-89.0,127.0
121.0,131.0,126.0,79.0,129.0,130.0,138.0,123.0,-1.0,100.0,-75.0,-128.0,127.0,127.0,-114.0,-89.0,127.0
121.0,130.0,126.0,79.0,129.0,130.0,138.0,123.0,-1.0,100.0,-75.0,-128.0,127.0,127.0,-114.0,-89.0,127.0
121.0,130.0,126.0,79.0,129.0,130.0,138.0,123.0,-1.0,100.0,-75.0,-128.0,127.0,127.0,-114.0,-89.0,127.0
121.0,130.0,126.0,78.0,129.0,130.0,137.0,123.0,-1.0,100.0,-75.0,-128.0,127.0,127.0,-114.0,-89.0,127.0
121.0,130.0,126.0,78.0,129.0,129.0,137.0,123.0,-1.0,100.0,-75.0,-128.0,127.0,127.0,-114.0,-89.0,127.0
124.0,129.0,126.0,62.0,127.0,126.0,187.0,125.0,-1.0,102.0,-76.0,-128.0,127.0,127.0,-114.0,-89.0,127.0
124.0,129.0,126.0,61.0,127.0,126.0,188.0,125.0,-1.0,102.0,-76.0,-128.0,127.0,127.0,-114.0,-89.0,127.0
123.0,129.0,126.0,64.0,128.0,127.0,175.0,125.0,-1.0,102.0,-76.0,-128.0,127.0,127.0,-114.0,-89.0,127.0
123.0,129.0,126.0,63.0,128.0,126.0,176.0,125.0,-1.0,102.0,-76.0,-128.0,127.0,127.0,-114.0,-89.0,127.0
123.0,129.0,126.0,63.0,128.0,127.0,178.0,125.0,-1.0,102.0,-76.0,-128.0,127.0,127.0,-114.0,-89.0,127.0
123.0,129.0,126.0,63.0,127.0,127.0,179.0,125.0,-1.0,102.0,-76.0,-128.0,127.0,127.0,-114.0,-89.0,127.0
124.0,129.0,126.0,62.0,127.0,127.0,181.0,125.0,-1.0,102.0,-76.0,-128.0,127.0,127.0,-114.0,-89.0,127.0
124.0,129.0,126.0,62.0,127.0,127.0,182.0,125.0,-1.0,102.0,-76.0,-128.0,127.0,127.0,-114.0,-89.0,127.0
124.0,129.0,126.0,62.0,127.0,127.0,184.0,125.0,-1.0,102.0,-76.0,-128.0,127.0,127.0,-114.0,-89.0,127.0
124.0,129.0,126.0,62.0,127.0,127.0,185.0,125.0,-1.0,102.0,-76.0,-128.0,127.0,127.0,-114.0,-89.0,127.0
125.0,129.0,126.0,66.0,128.0,124.0,211.0,126.0,-1.0,104.0,-76.0,-128.0,127.0,127.0,-114.0,-89.0,127.0
125.0,129.0,126.0,65.0,127.0,124.0,213.0,126.0,-1.0,104.0,-76.0,-128.0,127.0,127.0,-114.0,-89.0,127.0
125.0,129.0,126.0,65.0,127.0,124.0,213.0,126.0,-1.0,104.0,-76.0,-128.0,127.0,127.0,-114.0,-89.0,127.0
124.0,129.0,125.0,65.0,126.0,125.0,213.0,126.0,-1.0,104.0,-76.0,-128.0,127.0,127.0,-114.0,-89.0,127.0
125.0,129.0,125.0,65.0,127.0,125.0,213.0,126.0,-1.0,104.0,-76.0,-128.0,127.0,127.0,-114.0,-89.0,127.0
125.0,129.0,125.0,66.0,127.0,125.0,213.0,126.0,-1.0,104.0,-76.0,-128.0,127.0,127.0,-114.0,-89.0,127.0
125.0,129.0,125.0,66.0,127.0,125.0,212.0,126.0,-1.0,104.0,-76.0,-128.0,127.0,127.0,-114.0,-89.0,127.0
125.0,129.0,125.0,66.0,127.0,125.0,212.0,126.0,-1.0,104.0,-76.0,-128.0,127.0,127.0,-114.0,-89.0,127.0
125.0,129.0,125.0,66.0,127.0,125.0,212.0,126.0,-1.0,104.0,-76.0,-128.0,127.0,127.0,-114.0,-89.0,127.0
125.0,129.0,125.0,66.0,128.0,124.0,211.0,126.0,-1.0,104.0,-76.0,-128.0,127.0,127.0,-114.0,-89.0,127.0
126.0,130.0,125.0,77.0,125.0,124.0,187.0,122.0,-1.0,105.0,-75.0,-128.0,127.0,127.0,-114.0,-89.0,127.0
126.0,130.0,125.0,78.0,125.0,124.0,186.0,122.0,-1.0,105.0,-75.0,-128.0,127.0,127.0,-114.0,-89.0,127.0
126.0,130.0,125.0,78.0,124.0,124.0,185.0,122.0,-1.0,105.0,-75.0,-128.0,127.0,127.0,-114.0,-89.0,127.0
126.0,130.0,124.0,78.0,125.0,124.0,185.0,122.0,-1.0,105.0,-75.0,-128.0,127.0,127.0,-114.0,-89.0,127.0
126.0,130.0,124.0,79.0,125.0,124.0,184.0,122.0,-1.0,105.0,-75.0,-128.0,127.0,127.0,-114.0,-89.0,127.0
126.0,130.0,124.0,79.0,125.0,124.0,183.0,122.0,-1.0,105.0,-75.0,-128.0,127.0,127.0,-114.0,-89.0,127.0
126.0,130.0,124.0,79.0,125.0,123.0,183.0,122.0,-1.0,105.0,-75.0,-128.0,127.0,127.0,-114.0,-89.0,127.0
126.0,130.0,124.0,79.0,125.0,123.0,182.0,122.0,-1.0,105.0,-75.0,-128.0,127.0,127.0,-114.0,-89.0,127.0
126.0,130.0,125.0,80.0,125.0,123.0,181.0,122.0,-1.0,105.0,-75.0,-128.0,127.0,127.0,-114.0,-89.0,127.0
126.0,130.0,125.0,80.0,125.0,123.0,181.0,121.0,-1.0,105.0,-75.0,-128.0,127.0,127.0,-114.0,-89.0,127.0
126.0,130.0,124.0,90.0,122.0,124.0,149.0,120.0,-1.0,105.0,-75.0,-128.0,127.0,127.0,-114.0,-89.0,127.0
126.0,131.0,124.0,91.0,122.0,124.0,149.0,120.0,-1.0,105.0,-75.0,-128.0,127.0,127.0,-114.0,-89.0,127.0
126.0,131.0,124.0,91.0,122.0,124.0,148.0,121.0,-1.0,105.0,-75.0,-128.0,127.0,127.0,-114.0,-89.0,127.0
126.0,131.0,124.0,91.0,122.0,124.0,147.0,121.0,-1.0,105.0,-75.0,-128.0,127.0,127.0,-114.0,-89.0,127.0
126.0,131.0,124.0,91.0,122.0,124.0,147.0,121.0,-1.0,105.0,-75.0,-128.0,127.0,127.0,-114.0,-89.0,127.0
126.0,131.0,124.0,92.0,122.0,124.0,146.0,121.0,-1.0,105.0,-75.0,-128.0,127.0,127.0,-114.0,-89.0,127.0
126.0,131.0,124.0,92.0,122.0,124.0,145.0,121.0,-1.0,105.0,-75.0,-128.0,127.0,127.0,-114.0,-89.0,127.0
126.0,131.0,124.0,92.0,122.0,124.0,145.0,121.0,-1.0,105.0,-75.0,-128.0,127.0,127.0,-114.0,-89.0,127.0
126.0,131.0,124.0,92.0,123.0,124.0,144.0,121.0,-1.0,105.0,-75.0,-128.0,127.0,127.0,-114.0,-89.0,127.0
126.0,130.0,124.0,90.0,122.0,124.0,150.0,120.0,-1.0,105.0,-75.0,-128.0,127.0,127.0,-114.0,-89.0,127.0
126.0,129.0,125.0,100.0,123.0,125.0,123.0,121.0,-1.0,105.0,-74.0,-128.0,127.0,127.0,-114.0,-89.0,127.0
126.0,130.0,124.0,100.0,123.0,126.0,122.0,122.0,-1.0,105.0,-74.0,-128.0,127.0,127.0,-114.0,-89.0,127.0
126.0,130.0,124.0,100.0,123.0,126.0,122.0,122.0,-1.0,105.0,-74.0,-128.0,127.0,127.0,-114.0,-89.0,127.0
126.0,129.0,124.0,100.0,123.0,126.0,122.0,122.0,-1.0,105.0,-74.0,-128.0,127.0,127.0,-114.0,-89.0,127.0
126.0,129.0,124.0,101.0,123.0,126.0,121.0,122.0,-1.0,105.0,-74.0,-128.0,127.0,127.0,-114.0,-89.0,127.0
126.0,129.0,124.0,101.0,123.0,126.0,121.0,122.0,-1.0,105.0,-74.0,-128.0,127.0,127.0,-114.0,-89.0,127.0
126.0,129.0,124.0,101.0,124.0,126.0,120.0,122.0,-1.0,105.0,-74.0,-128.0,127.0,127.0,-114.0,-89.0,127.0
126.0,129.0,124.0,101.0,124.0,126.0,120.0,122.0,-1.0,105.0,-74.0,-128.0,127.0,127.0,-114.0,-89.0,127.0
126.0,130.0,125.0,99.0,123.0,125.0,123.0,121.0,-1.0,105.0,-74.0,-128.0,127.0,127.0,-114.0,-89.0,127.0
126.0,130.0,125.0,100.0,123.0,125.0,123.0,121.0,-1.0,105.0,-74.0,-128.0,127.0,127.0,-114.0,-89.0,127.0
126.0,127.0,125.0,109.0,126.0,126.0,108.0,117.0,-1.0,105.0,-74.0,-128.0,127.0,127.0,-114.0,-89.0,127.0
126.0,127.0,125.0,109.0,126.0,126.0,107.0,117.0,-1.0,105.0,-74.0,-128.0,127.0,127.0,-114.0,-89.0,127.0
126.0,128.0,125.0,110.0,126.0,126.0,107.0,117.0,-1.0,105.0,-74.0,-128.0,127.0,127.0,-114.0,-89.0,127.0
126.0,128.0,125.0,110.0,125.0,127.0,107.0,117.0,-1.0,105.0,-74.0,-128.0,127.0,127.0,-114.0,-89.0,127.0
126.0,128.0,125.0,110.0,125.0,128.0,107.0,117.0,-1.0,105.0,-74.0,-128.0,127.0,127.0,-114.0,-89.0,127.0
126.0,128.0,125.0,110.0,125.0,128.0,107.0,117.0,-1.0,105.0,-74.0,-128.0,127.0,127.0,-114.0,-89.0,127.0
126.0,128.0,125.0,110.0,125.0,127.0,106.0,117.0,-1.0,105.0,-74.0,-128.0,127.0,127.0,-114.0,-89.0,127.0
126.0,127.0,125.0,109.0,126.0,126.0,108.0,117.0,-1.0,105.0,-74.0,-128.0,127.0,127.0,-114.0,-89.0,127.0
126.0,127.0,125.0,109.0,126.0,126.0,108.0,117.0,-1.0,105.0,-74.0,-128.0,127.0,127.0,-114.0,-89.0,127.0
126.0,127.0,125.0,109.0,126.0,126.0,108.0,117.0,-1.0,105.0,-74.0,-128.0,127.0,127.0,-114.0,-89.0,127.0
127.0,129.0,125.0,116.0,123.0,129.0,99.0,122.0,-1.0,104.0,-73.0,-128.0,127.0,127.0,-114.0,-89.0,127.0
127.0,128.0,125.0,116.0,123.0,129.0,99.0,122.0,-1.0,104.0,-73.0,-128.0,127.0,127.0,-114.0,-89.0,127.0
127.0,128.0,125.0,116.0,123.0,128.0,99.0,122.0,-1.0,104.0,-73.0,-128.0,127.0,127.0,-114.0,-89.0,127.0
127.0,128.0,125.0,116.0,123.0,128.0,99.0,122.0,-1.0,104.0,-73.0,-128.0,127.0,127.0,-114.0,-89.0,127.0
127.0,128.0,125.0,116.0,123.0,128.0,99.0,122.0,-1.0,104.0,-73.0,-128.0,127.0,127.0,-114.0,-89.0,127.0
127.0,128.0,125.0,116.0,123.0,128.0,99.0,123.0,-1.0,104.0,-73.0,-128.0,127.0,127.0,-114.0,-89.0,127.0
126.0,129.0,125.0,115.0,124.0,129.0,99.0,122.0,-1.0,104.0,-73.0,-128.0,127.0,127.0,-114.0,-89.0,127.0
126.0,129.0,125.0,115.0,124.0,129.0,99.0,122.0,-1.0,104.0,-73.0,-128.0,127.0,127.0,-114.0,-89.0,127.0
126.0,129.0,125.0,115.0,123.0,129.0,99.0,122.0,-1.0,104.0,-73.0,-128.0,127.0,127.0,-114.0,-89.0,127.0
127.0,128.0,125.0,115.0,123.0,129.0,99.0,122.0,-1.0,104.0,-73.0,-128.0,127.0,127.0,-114.0,-89.0,127.0
127.0,128.0,126.0,120.0,126.0,129.0,82.0,125.0,-1.0,104.0,-73.0,-128.0,127.0,127.0,-114.0,-89.0,127.0
127.0,128.0,126.0,120.0,127.0,129.0,82.0,125.0,-1.0,104.0,-73.0,-128.0,127.0,127.0,-114.0,-89.0,127.0
127.0,128.0,126.0,120.0,127.0,129.0,81.0,125.0,-1.0,104.0,-73.0,-128.0,127.0,127.0,-114.0,-89.0,127.0
127.0,128.0,126.0,120.0,127.0,129.0,80.0,125.0,-1.0,104.0,-73.0,-128.0,127.0,127.0,-114.0,-89.0,127.0
127.0,128.0,126.0,120.0,127.0,129.0,80.0,125.0,-1.0,104.0,-73.0,-128.0,127.0,127.0,-114.0,-89.0,127.0
127.0,128.0,126.0,119.0,126.0,129.0,85.0,124.0,-1.0,104.0,-73.0,-128.0,127.0,127.0,-114.0,-89.0,127.0
127.0,128.0,126.0,119.0,126.0,130.0,85.0,124.0,-1.0,104.0,-73.0,-128.0,127.0,127.0,-114.0,-89.0,127.0
127.0,128.0,126.0,119.0,126.0,130.0,84.0,124.0,-1.0,104.0,-73.0,-128.0,127.0,127.0,-114.0,-89.0,127.0
127.0,128.0,126.0,120.0,126.0,129.0,83.0,124.0,-1.0,104.0,-73.0,-128.0,127.0,127.0,-114.0,-89.0,127.0
127.0,128.0,126.0,120.0,126.0,129.0,83.0,124.0,-1.0,104.0,-73.0,-128.0,127.0,127.0,-114.0,-89.0,127.0
128.0,124.0,126.0,120.0,127.0,129.0,63.0,129.0,-1.0,104.0,-73.0,-128.0,127.0,127.0,-114.0,-89.0,127.0
128.0,124.0,126.0,120.0,127.0,129.0,63.0,129.0,-1.0,104.0,-73.0,-128.0,127.0,127.0,-114.0,-89.0,127.0
128.0,124.0,126.0,121.0,127.0,129.0,63.0,129.0,-1.0,104.0,-73.0,-128.0,127.0,127.0,-114.0,-89.0,127.0
128.0,124.0,126.0,121.0,127.0,128.0,63.0,129.0,-1.0,104.0,-73.0,-128.0,127.0,127.0,-114.0,-89.0,127.0
128.0,124.0,126.0,120.0,125.0,129.0,63.0,129.0,-1.0,104.0,-73.0,-128.0,127.0,127.0,-114.0,-89.0,127.0
128.0,125.0,126.0,120.0,126.0,130.0,63.0,129.0,-1.0,104.0,-73.0,-128.0,127.0,127.0,-114.0,-89.0,127.0
128.0,125.0,126.0,120.0,126.0,130.0,63.0,129.0,-1.0,104.0,-73.0,-128.0,127.0,127.0,-114.0,-89.0,127.0
128.0,125.0,126.0,120.0,126.0,129.0,63.0,129.0,-1.0,104.0,-73.0,-128.0,127.0,127.0,-114.0,-89.0,127.0
128.0,124.0,126.0,120.0,126.0,129.0,63.0,129.0,-1.0,104.0,-73.0,-128.0,127.0,127.0,-114.0,-89.0,127.0
128.0,124.0,126.0,120.0,127.0,129.0,63.0,129.0,-1.0,104.0,-73.0,-128.0,127.0,127.0,-114.0,-89.0,127.0
128.0,127.0,127.0,123.0,126.0,128.0,72.0,128.0,-1.0,104.0,-72.0,-128.0,127.0,127.0,-114.0,-89.0,127.0
128.0,127.0,127.0,123.0,126.0,128.0,72.0,128.0,-1.0,104.0,-72.0,-128.0,127.0,127.0,-114.0,-89.0,127.0
128.0,127.0,127.0,123.0,126.0,128.0,72.0,128.0,-1.0,104.0,-72.0,-128.0,127.0,127.0,-114.0,-89.0,127.0
128.0,126.0,127.0,122.0,125.0,128.0,69.0,129.0,-1.0,104.0,-72.0,-128.0,127.0,127.0,-114.0,-89.0,127.0
128.0,127.0,126.0,122.0,125.0,129.0,70.0,129.0,-1.0,104.0,-72.0,-128.0,127.0,127.0,-114.0,-89.0,127.0
128.0,127.0,126.0,122.0,125.0,129.0,70.0,129.0,-1.0,104.0,-72.0,-128.0,127.0,127.0,-114.0,-89.0,127.0
128.0,127.0,126.0,122.0,125.0,128.0,70.0,129.0,-1.0,104.0,-72.0,-128.0,127.0,127.0,-114.0,-89.0,127.0
128.0,127.0,126.0,122.0,125.0,128.0,71.0,129.0,-1.0,104.0,-72.0,-128.0,127.0,127.0,-114.0,-89.0,127.0
128.0,127.0,126.0,122.0,126.0,128.0,71.0,128.0,-1.0,104.0,-72.0,-128.0,127.0,127.0,-114.0,-89.0,127.0
128.0,127.0,126.0,122.0,126.0,128.0,71.0,128.0,-1.0,104.0,-72.0,-128.0,127.0,127.0,-114.0,-89.0,127.0
128.0,128.0,126.0,124.0,126.0,127.0,83.0,132.0,-1.0,104.0,-72.0,127.0,127.0,127.0,-114.0,-89.0,127.0
128.0,127.0,126.0,124.0,126.0,127.0,83.0,132.0,-1.0,104.0,-72.0,127.0,127.0,127.0,-114.0,-89.0,127.0
128.0,128.0,126.0,124.0,126.0,126.0,81.0,130.0,-1.0,104.0,-72.0,127.0,127.0,127.0,-114.0,-89.0,127.0
128.0,128.0,126.0,124.0,125.0,127.0,82.0,131.0,-1.0,104.0,-72.0,127.0,127.0,127.0,-114.0,-89.0,127.0
128.0,128.0,126.0,124.0,125.0,127.0,82.0,131.0,-1.0,104.0,-72.0,127.0,127.0,127.0,-114.0,-89.0,127.0
128.0,128.0,126.0,124.0,126.0,127.0,82.0,131.0,-1.0,104.0,-72.0,127.0,127.0,127.0,-114.0,-89.0,127.0
128.0,128.0,126.0,124.0,126.0,127.0,82.0,131.0,-1.0,104.0,-72.0,127.0,127.0,127.0,-114.0,-89.0,127.0
128.0,128.0,126.0,124.0,126.0,127.0,82.0,131.0,-1.0,104.0,-72.0,127.0,127.0,127.0,-114.0,-89.0,127.0
128.0,128.0,126.0,124.0,126.0,127.0,83.0,131.0,-1.0,104.0,-72.0,127.0,127.0,127.0,-114.0,-89.0,127.0
128.0,128.0,126.0,124.0,126.0,127.0,83.0,131.0,-1.0,104.0,-72.0,127.0,127.0,127.0,-114.0,-89.0,127.0
130.0,127.0,127.0,125.0,123.0,128.0,84.0,130.0,-1.0,104.0,-72.0,127.0,127.0,127.0,-114.0,-89.0,127.0
129.0,127.0,126.0,125.0,124.0,128.0,84.0,132.0,-1.0,104.0,-72.0,127.0,127.0,127.0,-114.0,-89.0,127.0
129.0,128.0,126.0,125.0,124.0,128.0,84.0,132.0,-1.0,104.0,-72.0,127.0,127.0,127.0,-114.0,-89.0,127.0
130.0,128.0,126.0,125.0,123.0,128.0,84.0,132.0,-1.0,104.0,-72.0,127.0,127.0,127.0,-114.0,-89.0,127.0
130.0,128.0,126.0,125.0,123.0,128.0,84.0,132.0,-1.0,104.0,-72.0,127.0,127.0,127.0,-114.0,-89.0,127.0
130.0,128.0,126.0,125.0,123.0,128.0,84.0,132.0,-1.0,104.0,-72.0,127.0,127.0,127.0,-114.0,-89.0,127.0
130.0,128.0,126.0,125.0,123.0,128.0,84.0,131.0,-1.0,104.0,-72.0,127.0,127.0,127.0,-114.0,-89.0,127.0
130.0,128.0,126.0,125.0,123.0,128.0,84.0,131.0,-1.0,104.0,-72.0,127.0,127.0,127.0,-114.0,-89.0,127.0
130.0,128.0,127.0,125.0,123.0,128.0,84.0,131.0,-1.0,104.0,-72.0,127.0,127.0,127.0,-114.0,-89.0,127.0
130.0,127.0,127.0,125.0,123.0,128.0,84.0,130.0,-1.0,104.0,-72.0,127.0,127.0,127.0,-114.0,-89.0,127.0
130.0,127.0,127.0,126.0,124.0,128.0,92.0,127.0,-1.0,104.0,-72.0,127.0,127.0,127.0,-114.0,-89.0,127.0
130.0,127.0,127.0,126.0,124.0,128.0,92.0,127.0,-1.0,104.0,-72.0,127.0,127.0,127.0,-114.0,-89.0,127.0
130.0,127.0,127.0,126.0,124.0,128.0,93.0,127.0,-1.0,104.0,-72.0,127.0,127.0,127.0,-114.0,-89.0,127.0
130.0,127.0,127.0,126.0,125.0,128.0,93.0,127.0,-1.0,104.0,-72.0,127.0,127.0,127.0,-114.0,-89.0,127.0
130.0,127.0,127.0,126.0,125.0,128.0,93.0,127.0,-1.0,104.0,-72.0,127.0,127.0,127.0,-114.0,-89.0,127.0
130.0,127.0,127.0,126.0,125.0,128.0,94.0,127.0,-1.0,104.0,-72.0,127.0,127.0,127.0,-114.0,-89.0,127.0
130.0,127.0,127.0,126.0,125.0,128.0,94.0,127.0,-1.0,104.0,-72.0,127.0,127.0,127.0,-114.0,-89.0,127.0
130.0,127.0,127.0,126.0,125.0,127.0,94.0,127.0,-1.0,104.0,-72.0,127.0,127.0,127.0,-114.0,-89.0,127.0
130.0,126.0,127.0,126.0,125.0,127.0,94.0,127.0,-1.0,104.0,-72.0,127.0,127.0,127.0,-114.0,-89.0,127.0
130.0,127.0,127.0,126.0,126.0,127.0,95.0,127.0,-1.0,104.0,-72.0,127.0,127.0,127.0,-114.0,-89.0,127.0
129.0,126.0,127.0,125.0,126.0,125.0,106.0,128.0,-1.0,105.0,-72.0,127.0,127.0,127.0,-114.0,-89.0,127.0
129.0,126.0,127.0,125.0,126.0,125.0,106.0,128.0,-1.0,105.0,-72.0,127.0,127.0,127.0,-114.0,-89.0,127.0
129.0,126.0,127.0,125.0,126.0,125.0,107.0,128.0,-1.0,105.0,-72.0,127.0,127.0,127.0,-114.0,-89.0,127.0
129.0,126.0,126.0,125.0,125.0,126.0,107.0,128.0,-1.0,105.0,-72.0,127.0,127.0,127.0,-114.0,-89.0,127.0
129.0,126.0,126.0,125.0,125.0,126.0,107.0,128.0,-1.0,105.0,-72.0,127.0,127.0,127.0,-114.0,-89.0,127.0
129.0,126.0,126.0,125.0,125.0,126.0,107.0,128.0,-1.0,105.0,-72.0,127.0,127.0,127.0,-114.0,-89.0,127.0
129.0,126.0,127.0,125.0,125.0,126.0,108.0,128.0,-1.0,105.0,-72.0,127.0,127.0,127.0,-114.0,-89.0,127.0
129.0,126.0,127.0,125.0,125.0,126.0,108.0,128.0,-1.0,105.0,-72.0,127.0,127.0,127.0,-114.0,-89.0,127.0
129.0,126.0,127.0,125.0,125.0,126.0,108.0,128.0,-1.0,105.0,-72.0,127.0,127.0,127.0,-114.0,-89.0,127.0
129.0,126.0,127.0,125.0,126.0,125.0,106.0,128.0,-1.0,105.0,-72.0,127.0,127.0,127.0,-114.0,-89.0,127.0
128.0,126.0,126.0,124.0,127.0,127.0,111.0,129.0,-1.0,105.0,-72.0,127.0,127.0,127.0,-114.0,-89.0,127.0
128.0,126.0,126.0,124.0,128.0,127.0,111.0,129.0,-1.0,105.0,-72.0,127.0,127.0,127.0,-114.0,-89.0,127.0
128.0,126.0,126.0,124.0,128.0,127.0,111.0,129.0,-1.0,105.0,-72.0,127.0,127.0,127.0,-114.0,-89.0,127.0
128.0,126.0,126.0,124.0,128.0,126.0,111.0,129.0,-1.0,105.0,-72.0,127.0,127.0,127.0,-114.0,-89.0,127.0
128.0,126.0,126.0,124.0,128.0,126.0,111.0,129.0,-1.0,105.0,-72.0,127.0,127.0,127.0,-114.0,-89.0,127.0
128.0,126.0,127.0,124.0,128.0,126.0,111.0,129.0,-1.0,105.0,-72.0,127.0,127.0,127.0,-114.0,-89.0,127.0
128.0,126.0,127.0,124.0,128.0,126.0,111.0,129.0,-1.0,105.0,-72.0,127.0,127.0,127.0,-114.0,-89.0,127.0
128.0,126.0,127.0,124.0,128.0,126.0,112.0,129.0,-1.0,105.0,-72.0,127.0,127.0,127.0,-114.0,-89.0,127.0
128.0,126.0,126.0,124.0,127.0,127.0,111.0,130.0,-1.0,105.0,-72.0,127.0,127.0,127.0,-114.0,-89.0,127.0
128.0,126.0,126.0,124.0,127.0,127.0,111.0,130.0,-1.0,105.0,-72.0,127.0,127.0,127.0,-114.0,-89.0,127.0
128.0,126.0,127.0,124.0,126.0,128.0,111.0,128.0,-1.0,105.0,-72.0,127.0,127.0,127.0,-114.0,-89.0,127.0
128.0,126.0,127.0,124.0,126.0,127.0,111.0,128.0,-1.0,105.0,-72.0,127.0,127.0,127.0,-114.0,-89.0,127.0
128.0,126.0,127.0,124.0,126.0,127.0,111.0,127.0,-1.0,105.0,-72.0,127.0,127.0,127.0,-114.0,-89.0,127.0
128.0,126.0,127.0,124.0,126.0,127.0,111.0,127.0,-1.0,105.0,-72.0,127.0,127.0,127.0,-114.0,-89.0,127.0
128.0,126.0,127.0,124.0,126.0,127.0,111.0,127.0,-1.0,105.0,-72.0,127.0,127.0,127.0,-114.0,-89.0,127.0
128.0,125.0,127.0,124.0,126.0,127.0,110.0,127.0,-1.0,105.0,-72.0,127.0,127.0,127.0,-114.0,-89.0,127.0
128.0,125.0,127.0,124.0,126.0,126.0,110.0,127.0,-1.0,105.0,-72.0,127.0,127.0,127.0,-114.0,-89.0,127.0
128.0,126.0,127.0,124.0,127.0,127.0,111.0,128.0,-1.0,105.0,-72.0,127.0,127.0,127.0,-114.0,-89.0,127.0
128.0,126.0,127.0,124.0,126.0,127.0,111.0,127.0,-1.0,105.0,-72.0,127.0,127.0,127.0,-114.0,-89.0,127.0
128.0,126.0,127.0,124.0,126.0,128.0,111.0,128.0,-1.0,105.0,-72.0,127.0,127.0,127.0,-114.0,-89.0,127.0
127.0,126.0,127.0,124.0,124.0,127.0,112.0,129.0,-1.0,105.0,-72.0,127.0,127.0,127.0,-114.0,-89.0,127.0
127.0,126.0,127.0,124.0,124.0,126.0,112.0,129.0,-1.0,105.0,-72.0,127.0,127.0,127.0,-114.0,-89.0,127.0
127.0,126.0,127.0,124.0,124.0,126.0,112.0,129.0,-1.0,105.0,-72.0,127.0,127.0,127.0,-114.0,-89.0,127.0
127.0,126.0,127.0,124.0,125.0,126.0,113.0,129.0,-1.0,105.0,-72.0,127.0,127.0,127.0,-114.0,-89.0,127.0
127.0,125.0,127.0,124.0,125.0,126.0,113.0,129.0,-1.0,105.0,-72.0,127.0,127.0,127.0,-114.0,-89.0,127.0
127.0,125.0,127.0,124.0,125.0,126.0,113.0,129.0,-1.0,105.0,-72.0,127.0,127.0,127.0,-114.0,-89.0,127.0
127.0,125.0,127.0,124.0,124.0,126.0,112.0,128.0,-1.0,105.0,-72.0,127.0,127.0,127.0,-114.0,-89.0,127.0
127.0,125.0,127.0,124.0,124.0,126.0,112.0,128.0,-1.0,105.0,-72.0,127.0,127.0,127.0,-114.0,-89.0,127.0
127.0,126.0,127.0,124.0,124.0,127.0,112.0,129.0,-1.0,105.0,-72.0,127.0,127.0,127.0,-114.0,-89.0,127.0
127.0,126.0,127.0,124.0,124.0,127.0,112.0,129.0,-1.0,105.0,-72.0,127.0,127.0,127.0,-114.0,-89.0,127.0
127.0,125.0,126.0,124.0,127.0,127.0,120.0,132.0,-1.0,105.0,-72.0,127.0,127.0,127.0,-114.0,-89.0,127.0
127.0,125.0,126.0,124.0,127.0,127.0,120.0,132.0,-1.0,105.0,-72.0,127.0,127.0,127.0,-114.0,-89.0,127.0
127.0,125.0,127.0,124.0,127.0,127.0,120.0,132.0,-1.0,105.0,-72.0,127.0,127.0,127.0,-114.0,-89.0,127.0
127.0,125.0,127.0,124.0,127.0,126.0,120.0,131.0,-1.0,105.0,-72.0,127.0,127.0,127.0,-114.0,-89.0,127.0
127.0,125.0,127.0,124.0,127.0,126.0,120.0,131.0,-1.0,105.0,-72.0,127.0,127.0,127.0,-114.0,-89.0,127.0
127.0,125.0,127.0,124.0,126.0,127.0,119.0,131.0,-1.0,105.0,-72.0,127.0,127.0,127.0,-114.0,-89.0,127.0
127.0,125.0,127.0,124.0,126.0,127.0,119.0,131.0,-1.0,105.0,-72.0,127.0,127.0,127.0,-114.0,-89.0,127.0
127.0,125.0,126.0,124.0,126.0,127.0,119.0,132.0,-1.0,105.0,-72.0,127.0,127.0,127.0,-114.0,-89.0,127.0
127.0,125.0,126.0,124.0,126.0,127.0,119.0,132.0,-1.0,105.0,-72.0,127.0,127.0,127.0,-114.0,-89.0,127.0
127.0,125.0,126.0,124.0,127.0,127.0,119.0,132.0,-1.0,105.0,-72.0,127.0,127.0,127.0,-114.0,-89.0,127.0
127.0,125.0,126.0,123.0,125.0,127.0,124.0,132.0,-1.0,106.0,-72.0,127.0,127.0,127.0,-114.0,-89.0,127.0
127.0,125.0,127.0,124.0,125.0,127.0,124.0,132.0,-1.0,106.0,-72.0,127.0,127.0,127.0,-114.0,-89.0,127.0
127.0,125.0,127.0,124.0,126.0,127.0,124.0,132.0,-1.0,106.0,-72.0,127.0,127.0,127.0,-114.0,-89.0,127.0
127.0,125.0,127.0,123.0,126.0,127.0,125.0,132.0,-1.0,106.0,-72.0,127.0,127.0,127.0,-114.0,-89.0,127.0
127.0,125.0,127.0,123.0,125.0,127.0,124.0,132.0,-1.0,106.0,-72.0,127.0,127.0,127.0,-114.0,-89.0,127.0
127.0,125.0,127.0,123.0,125.0,127.0,124.0,132.0,-1.0,106.0,-72.0,127.0,127.0,127.0,-114.0,-89.0,127.0
127.0,125.0,127.0,123.0,125.0,127.0,124.0,132.0,-1.0,106.0,-72.0,127.0,127.0,127.0,-114.0,-89.0,127.0
127.0,125.0,126.0,123.0,125.0,127.0,124.0,132.0,-1.0,106.0,-72.0,127.0,127.0,127.0,-114.0,-89.0,127.0
127.0,125.0,127.0,123.0,125.0,127.0,124.0,132.0,-1.0,106.0,-72.0,127.0,127.0,127.0,-114.0,-89.0,127.0
127.0,125.0,127.0,124.0,125.0,127.0,124.0,132.0,-1.0,106.0,-72.0,127.0,127.0,127.0,-114.0,-89.0,127.0
126.0,125.0,126.0,124.0,125.0,127.0,128.0,132.0,-1.0,106.0,-72.0,127.0,127.0,127.0,-114.0,-89.0,127.0
126.0,125.0,126.0,124.0,125.0,127.0,128.0,132.0,-1.0,106.0,-72.0,127.0,127.0,127.0,-114.0,-89.0,127.0
126.0,125.0,127.0,124.0,125.0,127.0,128.0,132.0,-1.0,106.0,-72.0,127.0,127.0,127.0,-114.0,-89.0,127.0
126.0,125.0,127.0,124.0,126.0,127.0,128.0,133.0,-1.0,106.0,-72.0,127.0,127.0,127.0,-114.0,-89.0,127.0
126.0,125.0,126.0,123.0,126.0,127.0,128.0,133.0,-1.0,106.0,-72.0,127.0,127.0,127.0,-114.0,-89.0,127.0
126.0,125.0,126.0,123.0,126.0,127.0,128.0,133.0,-1.0,106.0,-72.0,127.0,127.0,127.0,-114.0,-89.0,127.0
126.0,125.0,126.0,124.0,126.0,127.0,128.0,133.0,-1.0,106.0,-72.0,127.0,127.0,127.0,-114.0,-89.0,127.0
126.0,125.0,126.0,124.0,125.0,127.0,128.0,133.0,-1.0,106.0,-72.0,127.0,127.0,127.0,-114.0,-89.0,127.0
126.0,125.0,126.0,124.0,125.0,127.0,128.0,133.0,-1.0,106.0,-72.0,127.0,127.0,127.0,-114.0,-89.0,127.0
126.0,125.0,126.0,124.0,125.0,127.0,128.0,132.0,-1.0,106.0,-72.0,127.0,127.0,127.0,-114.0,-89.0,127.0
128.0,125.0,126.0,124.0,124.0,127.0,131.0,130.0,-1.0,106.0,-72.0,127.0,127.0,127.0,-114.0,-89.0,127.0
128.0,125.0,126.0,123.0,124.0,127.0,131.0,130.0,-1.0,106.0,-72.0,127.0,127.0,127.0,-114.0,-89.0,127.0
128.0,125.0,126.0,123.0,125.0,127.0,131.0,130.0,-1.0,106.0,-72.0,127.0,127.0,127.0,-114.0,-89.0,127.0
128.0,125.0,126.0,124.0,125.0,127.0,131.0,130.0,-1.0,106.0,-72.0,127.0,127.0,127.0,-114.0,-89.0,127.0
128.0,125.0,126.0,123.0,125.0,127.0,131.0,130.0,-1.0,106.0,-72.0,127.0,127.0,127.0,-114.0,-89.0,127.0
128.0,125.0,126.0,124.0,124.0,127.0,131.0,130.0,-1.0,106.0,-72.0,127.0,127.0,127.0,-114.0,-89.0,127.0
128.0,125.0,126.0,124.0,124.0,127.0,131.0,130.0,-1.0,106.0,-72.0,127.0,127.0,127.0,-114.0,-89.0,127.0
128.0,125.0,126.0,123.0,124.0,127.0,131.0,130.0,-1.0,106.0,-72.0,127.0,127.0,127.0,-114.0,-89.0,127.0
128.0,125.0,126.0,124.0,124.0,127.0,131.0,130.0,-1.0,106.0,-72.0,127.0,127.0,127.0,-114.0,-89.0,127.0
128.0,125.0,126.0,124.0,124.0,127.0,131.0,130.0,-1.0,106.0,-72.0,127.0,127.0,127.0,-114.0,-89.0,127.0
127.0,123.0,127.0,123.0,127.0,127.0,132.0,133.0,-1.0,106.0,-72.0,127.0,127.0,127.0,-114.0,-89.0,127.0
127.0,123.0,127.0,123.0,127.0,126.0,132.0,132.0,-1.0,106.0,-72.0,127.0,127.0,127.0,-114.0,-89.0,127.0
127.0,123.0,127.0,123.0,127.0,126.0,132.0,132.0,-1.0,106.0,-72.0,127.0,127.0,127.0,-114.0,-89.0,127.0
127.0,123.0,127.0,123.0,127.0,126.0,132.0,132.0,-1.0,106.0,-72.0,127.0,127.0,127.0,-114.0,-89.0,127.0
127.0,123.0,127.0,123.0,127.0,126.0,132.0,132.0,-1.0,106.0,-72.0,127.0,127.0,127.0,-114.0,-89.0,127.0
127.0,123.0,127.0,123.0,127.0,126.0,132.0,132.0,-1.0,106.0,-72.0,127.0,127.0,127.0,-114.0,-89.0,127.0
127.0,123.0,127.0,123.0,127.0,126.0,132.0,132.0,-1.0,106.0,-72.0,127.0,127.0,127.0,-114.0,-89.0,127.0
127.0,123.0,127.0,123.0,127.0,127.0,132.0,133.0,-1.0,106.0,-72.0,127.0,127.0,127.0,-114.0,-89.0,127.0
127.0,124.0,127.0,123.0,127.0,127.0,132.0,133.0,-1.0,106.0,-72.0,127.0,127.0,127.0,-114.0,-89.0,127.0
127.0,123.0,127.0,123.0,127.0,127.0,132.0,133.0,-1.0,106.0,-72.0,127.0,127.0,127.0,-114.0,-89.0,127.0
126.0,124.0,126.0,124.0,127.0,128.0,132.0,136.0,-1.0,106.0,-72.0,127.0,127.0,127.0,-114.0,-89.0,127.0
126.0,124.0,126.0,124.0,127.0,128.0,132.0,136.0,-1.0,106.0,-72.0,127.0,127.0,127.0,-114.0,-89.0,127.0
126.0,124.0,126.0,124.0,127.0,128.0,132.0,136.0,-1.0,106.0,-72.0,127.0,127.0,127.0,-114.0,-89.0,127.0
126.0,124.0,126.0,124.0,127.0,128.0,132.0,136.0,-1.0,106.0,-72.0,127.0,127.0,127.0,-114.0,-89.0,127.0
126.0,124.0,126.0,124.0,127.0,128.0,132.0,136.0,-1.0,106.0,-72.0,127.0,127.0,127.0,-114.0,-89.0,127.0
126.0,124.0,126.0,124.0,127.0,128.0,132.0,136.0,-1.0,106.0,-72.0,127.0,127.0,127.0,-114.0,-89.0,127.0
126.0,124.0,126.0,124.0,127.0,128.0,132.0,136.0,-1.0,106.0,-72.0,127.0,127.0,127.0,-114.0,-89.0,127.0
126.0,124.0,126.0,124.0,127.0,127.0,131.0,136.0,-1.0,106.0,-72.0,127.0,127.0,127.0,-114.0,-89.0,127.0
126.0,124.0,126.0,124.0,128.0,127.0,131.0,136.0,-1.0,106.0,-72.0,127.0,127.0,127.0,-114.0,-89.0,127.0
126.0,124.0,126.0,124.0,128.0,127.0,131.0,136.0,-1.0,106.0,-72.0,127.0,127.0,127.0,-114.0,-89.0,127.0
126.0,124.0,127.0,124.0,124.0,128.0,131.0,136.0,-1.0,107.0,-72.0,127.0,127.0,127.0,-114.0,-89.0,127.0
126.0,124.0,127.0,124.0,124.0,128.0,131.0,135.0,-1.0,107.0,-72.0,127.0,127.0,127.0,-114.0,-89.0,127.0
126.0,124.0,127.0,124.0,124.0,128.0,131.0,135.0,-1.0,107.0,-72.0,127.0,127.0,127.0,-114.0,-89.0,127.0
126.0,124.0,127.0,124.0,123.0,128.0,131.0,135.0,-1.0,107.0,-72.0,127.0,127.0,127.0,-114.0,-89.0,127.0
126.0,124.0,127.0,124.0,123.0,128.0,131.0,135.0,-1.0,107.0,-72.0,127.0,127.0,127.0,-114.0,-89.0,127.0
126.0,124.0,127.0,124.0,124.0,128.0,131.0,135.0,-1.0,107.0,-72.0,127.0,127.0,127.0,-114.0,-89.0,127.0
126.0,124.0,127.0,124.0,124.0,128.0,131.0,135.0,-1.0,107.0,-72.0,127.0,127.0,127.0,-114.0,-89.0,127.0
126.0,124.0,127.0,124.0,124.0,128.0,131.0,135.0,-1.0,107.0,-72.0,127.0,127.0,127.0,-114.0,-89.0,127.0
126.0,124.0,127.0,124.0,124.0,127.0,131.0,135.0,-1.0,107.0,-72.0,127.0,127.0,127.0,-114.0,-89.0,127.0
126.0,124.0,127.0,124.0,124.0,128.0,131.0,136.0,-1.0,107.0,-72.0,127.0,127.0,127.0,-114.0,-89.0,127.0
126.0,123.0,127.0,123.0,124.0,129.0,131.0,134.0,-1.0,107.0,-72.0,127.0,127.0,127.0,-114.0,-89.0,127.0
126.0,123.0,127.0,123.0,124.0,129.0,131.0,134.0,-1.0,107.0,-72.0,127.0,127.0,127.0,-114.0,-89.0,127.0
126.0,123.0,127.0,123.0,124.0,129.0,131.0,134.0,-1.0,107.0,-72.0,127.0,127.0,127.0,-114.0,-89.0,127.0
126.0,123.0,127.0,123.0,124.0,129.0,131.0,134.0,-1.0,107.0,-72.0,127.0,127.0,127.0,-114.0,-89.0,127.0
126.0,123.0,127.0,123.0,124.0,128.0,131.0,134.0,-1.0,107.0,-72.0,127.0,127.0,127.0,-114.0,-89.0,127.0
126.0,123.0,127.0,123.0,124.0,128.0,131.0,134.0,-1.0,107.0,-72.0,127.0,127.0,127.0,-114.0,-89.0,127.0
126.0,123.0,127.0,123.0,124.0,128.0,131.0,134.0,-1.0,107.0,-72.0,127.0,127.0,127.0,-114.0,-89.0,127.0
126.0,123.0,127.0,123.0,125.0,128.0,131.0,134.0,-1.0,107.0,-72.0,127.0,127.0,127.0,-114.0,-89.0,127.0
126.0,123.0,127.0,123.0,123.0,129.0,131.0,134.0,-1.0,107.0,-72.0,127.0,127.0,127.0,-114.0,-89.0,127.0
126.0,123.0,127.0,123.0,124.0,129.0,131.0,134.0,-1.0,107.0,-72.0,127.0,127.0,127.0,-114.0,-89.0,127.0
126.0,121.0,126.0,124.0,126.0,127.0,132.0,137.0,-1.0,107.0,-72.0,127.0,127.0,127.0,-115.0,-89.0,127.0
126.0,121.0,126.0,123.0,126.0,127.0,132.0,137.0,-1.0,107.0,-72.0,127.0,127.0,127.0,-115.0,-89.0,127.0
126.0,121.0,126.0,124.0,126.0,127.0,132.0,137.0,-1.0,107.0,-72.0,127.0,127.0,127.0,-115.0,-89.0,127.0
126.0,121.0,126.0,123.0,125.0,127.0,132.0,137.0,-1.0,107.0,-72.0,127.0,127.0,127.0,-115.0,-89.0,127.0
126.0,122.0,126.0,124.0,125.0,127.0,132.0,137.0,-1.0,107.0,-72.0,127.0,127.0,127.0,-115.0,-89.0,127.0
126.0,122.0,126.0,124.0,125.0,127.0,132.0,137.0,-1.0,107.0,-72.0,127.0,127.0,127.0,-115.0,-89.0,127.0
126.0,122.0,126.0,124.0,125.0,127.0,132.0,137.0,-1.0,107.0,-72.0,127.0,127.0,127.0,-115.0,-89.0,127.0
126.0,121.0,126.0,123.0,126.0,127.0,132.0,137.0,-1.0,107.0,-72.0,127.0,127.0,127.0,-115.0,-89.0,127.0
126.0,121.0,126.0,124.0,126.0,127.0,132.0,137.0,-1.0,107.0,-72.0,127.0,127.0,127.0,-115.0,-89.0,127.0
126.0,121.0,126.0,124.0,126.0,127.0,132.0,137.0,-1.0,107.0,-72.0,127.0,127.0,127.0,-115.0,-89.0,127.0
126.0,120.0,125.0,124.0,126.0,128.0,131.0,136.0,-1.0,107.0,-72.0,127.0,127.0,127.0,-115.0,-89.0,127.0
126.0,120.0,125.0,124.0,126.0,128.0,131.0,136.0,-1.0,107.0,-72.0,127.0,127.0,127.0,-115.0,-89.0,127.0
126.0,120.0,125.0,124.0,126.0,127.0,131.0,135.0,-1.0,107.0,-72.0,127.0,127.0,127.0,-115.0,-89.0,127.0
126.0,120.0,125.0,124.0,126.0,127.0,131.0,135.0,-1.0,107.0,-72.0,127.0,127.0,127.0,-115.0,-89.0,127.0
126.0,120.0,125.0,124.0,126.0,127.0,131.0,135.0,-1.0,107.0,-72.0,127.0,127.0,127.0,-115.0,-89.0,127.0
126.0,120.0,125.0,124.0,126.0,127.0,131.0,135.0,-1.0,107.0,-72.0,127.0,127.0,127.0,-115.0,-89.0,127.0
126.0,120.0,125.0,124.0,127.0,127.0,131.0,136.0,-1.0,107.0,-72.0,127.0,127.0,127.0,-115.0,-89.0,127.0
126.0,120.0,125.0,124.0,127.0,128.0,131.0,136.0,-1.0,107.0,-72.0,127.0,127.0,127.0,-115.0,-89.0,127.0
126.0,120.0,125.0,124.0,126.0,128.0,131.0,136.0,-1.0,107.0,-72.0,127.0,127.0,127.0,-115.0,-89.0,127.0
126.0,120.0,125.0,124.0,126.0,128.0,131.0,136.0,-1.0,107.0,-72.0,127.0,127.0,127.0,-115.0,-89.0,127.0
125.0,119.0,126.0,125.0,127.0,128.0,129.0,133.0,-1.0,107.0,-72.0,127.0,127.0,127.0,-115.0,-89.0,127.0
125.0,119.0,126.0,125.0,127.0,127.0,129.0,133.0,-1.0,107.0,-72.0,127.0,127.0,127.0,-115.0,-89.0,127.0
125.0,119.0,126.0,125.0,127.0,127.0,129.0,133.0,-1.0,107.0,-72.0,127.0,127.0,127.0,-115.0,-89.0,127.0
125.0,119.0,126.0,125.0,127.0,127.0,129.0,133.0,-1.0,107.0,-72.0,127.0,127.0,127.0,-115.0,-89.0,127.0
125.0,119.0,126.0,125.0,128.0,127.0,129.0,133.0,-1.0,107.0,-72.0,127.0,127.0,127.0,-115.0,-89.0,127.0
125.0,119.0,126.0,125.0,127.0,127.0,129.0,133.0,-1.0,107.0,-72.0,127.0,127.0,127.0,-115.0,-89.0,127.0
125.0,119.0,126.0,125.0,127.0,128.0,129.0,133.0,-1.0,107.0,-72.0,127.0,127.0,127.0,-115.0,-89.0,127.0
125.0,119.0,126.0,125.0,127.0,128.0,129.0,133.0,-1.0,107.0,-72.0,127.0,127.0,127.0,-115.0,-89.0,127.0
125.0,119.0,126.0,125.0,127.0,128.0,129.0,133.0,-1.0,107.0,-72.0,127.0,127.0,127.0,-115.0,-89.0,127.0
125.0,119.0,126.0,125.0,127.0,127.0,129.0,133.0,-1.0,107.0,-72.0,127.0,127.0,127.0,-115.0,-89.0,127.0
126.0,119.0,126.0,125.0,125.0,128.0,129.0,130.0,-1.0,107.0,-72.0,127.0,127.0,127.0,-115.0,-89.0,127.0
126.0,119.0,126.0,125.0,126.0,127.0,129.0,130.0,-1.0,107.0,-72.0,127.0,127.0,127.0,-115.0,-89.0,127.0
126.0,119.0,126.0,125.0,126.0,127.0,129.0,130.0,-1.0,107.0,-72.0,127.0,127.0,127.0,-115.0,-89.0,127.0
126.0,119.0,126.0,125.0,126.0,127.0,129.0,130.0,-1.0,107.0,-72.0,127.0,127.0,127.0,-115.0,-89.0,127.0
126.0,119.0,127.0,125.0,126.0,127.0,129.0,130.0,-1.0,107.0,-72.0,127.0,127.0,127.0,-115.0,-89.0,127.0
126.0,119.0,126.0,125.0,125.0,128.0,129.0,130.0,-1.0,107.0,-72.0,127.0,127.0,127.0,-115.0,-89.0,127.0
126.0,119.0,126.0,125.0,125.0,128.0,129.0,130.0,-1.0,107.0,-72.0,127.0,127.0,127.0,-115.0,-89.0,127.0
126.0,119.0,126.0,125.0,125.0,128.0,129.0,130.0,-1.0,107.0,-72.0,127.0,127.0,127.0,-115.0,-89.0,127.0
126.0,119.0,126.0,125.0,125.0,128.0,129.0,130.0,-1.0,107.0,-72.0,127.0,127.0,127.0,-115.0,-89.0,127.0
126.0,119.0,126.0,125.0,125.0,128.0,129.0,130.0,-1.0,107.0,-72.0,127.0,127.0,127.0,-115.0,-89.0,127.0
126.0,118.0,126.0,125.0,126.0,127.0,129.0,127.0,-1.0,107.0,-72.0,127.0,127.0,127.0,-115.0,-89.0,127.0
126.0,118.0,127.0,125.0,127.0,127.0,129.0,127.0,-1.0,107.0,-72.0,127.0,127.0,127.0,-115.0,-89.0,127.0
126.0,118.0,127.0,125.0,127.0,127.0,129.0,127.0,-1.0,107.0,-72.0,127.0,127.0,127.0,-115.0,-89.0,127.0
126.0,118.0,127.0,125.0,127.0,127.0,129.0,127.0,-1.0,107.0,-72.0,127.0,127.0,127.0,-115.0,-89.0,127.0
126.0,118.0,127.0,125.0,127.0,127.0,129.0,127.0,-1.0,107.0,-72.0,127.0,127.0,127.0,-115.0,-89.0,127.0
126.0,118.0,127.0,125.0,126.0,126.0,129.0,127.0,-1.0,107.0,-72.0,127.0,127.0,127.0,-115.0,-89.0,127.0
126.0,118.0,127.0,125.0,126.0,127.0,129.0,127.0,-1.0,107.0,-72.0,127.0,127.0,127.0,-115.0,-89.0,127.0
126.0,118.0,126.0,125.0,126.0,127.0,129.0,127.0,-1.0,107.0,-72.0,127.0,127.0,127.0,-115.0,-89.0,127.0
126.0,118.0,126.0,125.0,126.0,127.0,129.0,127.0,-1.0,107.0,-72.0,127.0,127.0,127.0,-115.0,-89.0,127.0
126.0,118.0,126.0,125.0,126.0,127.0,129.0,127.0,-1.0,107.0,-72.0,127.0,127.0,127.0,-115.0,-89.0,127.0
127.0,117.0,126.0,125.0,127.0,126.0,129.0,125.0,-1.0,107.0,-72.0,127.0,127.0,127.0,-115.0,-89.0,127.0
127.0,117.0,126.0,125.0,127.0,126.0,129.0,125.0,-1.0,107.0,-72.0,127.0,127.0,127.0,-115.0,-89.0,127.0
127.0,117.0,126.0,125.0,126.0,127.0,129.0,126.0,-1.0,107.0,-72.0,127.0,127.0,127.0,-115.0,-89.0,127.0
127.0,117.0,126.0,125.0,126.0,127.0,129.0,126.0,-1.0,107.0,-72.0,127.0,127.0,127.0,-115.0,-89.0,127.0
127.0,117.0,126.0,125.0,127.0,127.0,129.0,126.0,-1.0,107.0,-72.0,127.0,127.0,127.0,-115.0,-89.0,127.0
127.0,117.0,126.0,125.0,127.0,127.0,129.0,126.0,-1.0,107.0,-72.0,127.0,127.0,127.0,-115.0,-89.0,127.0
127.0,117.0,126.0,125.0,127.0,127.0,129.0,126.0,-1.0,107.0,-72.0,127.0,127.0,127.0,-115.0,-89.0,127.0
127.0,117.0,126.0,125.0,127.0,127.0,129.0,125.0,-1.0,107.0,-72.0,127.0,127.0,127.0,-115.0,-89.0,127.0
127.0,117.0,126.0,125.0,127.0,127.0,129.0,125.0,-1.0,107.0,-72.0,127.0,127.0,127.0,-115.0,-89.0,127.0
127.0,117.0,126.0,125.0,127.0,126.0,129.0,125.0,-1.0,107.0,-72.0,127.0,127.0,127.0,-115.0,-89.0,127.0
126.0,116.0,127.0,126.0,125.0,127.0,128.0,123.0,-1.0,107.0,-72.0,127.0,127.0,127.0,-115.0,-89.0,127.0
126.0,116.0,127.0,126.0,125.0,128.0,129.0,124.0,-1.0,107.0,-72.0,127.0,127.0,127.0,-115.0,-89.0,127.0
126.0,116.0,127.0,126.0,125.0,128.0,129.0,124.0,-1.0,107.0,-72.0,127.0,127.0,127.0,-115.0,-89.0,127.0
126.0,116.0,127.0,126.0,125.0,128.0,129.0,124.0,-1.0,107.0,-72.0,127.0,127.0,127.0,-115.0,-89.0,127.0
126.0,116.0,127.0,126.0,124.0,128.0,129.0,124.0,-1.0,107.0,-72.0,127.0,127.0,127.0,-115.0,-89.0,127.0
126.0,116.0,127.0,126.0,124.0,128.0,129.0,123.0,-1.0,107.0,-72.0,127.0,127.0,127.0,-115.0,-89.0,127.0
126.0,116.0,127.0,126.0,124.0,128.0,129.0,123.0,-1.0,107.0,-72.0,127.0,127.0,127.0,-115.0,-89.0,127.0
126.0,116.0,127.0,126.0,124.0,128.0,129.0,123.0,-1.0,107.0,-72.0,127.0,127.0,127.0,-115.0,-89.0,127.0
126.0,116.0,127.0,126.0,125.0,127.0,129.0,123.0,-1.0,107.0,-72.0,127.0,127.0,127.0,-115.0,-89.0,127.0
126.0,116.0,127.0,126.0,125.0,127.0,128.0,123.0,-1.0,107.0,-72.0,127.0,127.0,127.0,-115.0,-89.0,127.0
124.0,116.0,127.0,126.0,125.0,128.0,128.0,124.0,-1.0,107.0,-72.0,127.0,127.0,127.0,-115.0,-89.0,127.0
124.0,116.0,127.0,126.0,125.0,128.0,128.0,124.0,-1.0,107.0,-72.0,127.0,127.0,127.0,-115.0,-89.0,127.0
124.0,116.0,127.0,126.0,125.0,128.0,128.0,124.0,-1.0,107.0,-72.0,127.0,127.0,127.0,-115.0,-89.0,127.0
124.0,116.0,127.0,126.0,125.0,128.0,128.0,124.0,-1.0,107.0,-72.0,127.0,127.0,127.0,-115.0,-89.0,127.0
124.0,116.0,127.0,126.0,125.0,127.0,128.0,124.0,-1.0,107.0,-72.0,127.0,127.0,127.0,-115.0,-89.0,127.0
124.0,116.0,127.0,126.0,125.0,127.0,128.0,124.0,-1.0,107.0,-72.0,127.0,127.0,127.0,-115.0,-89.0,127.0
124.0,116.0,127.0,126.0,125.0,127.0,128.0,124.0,-1.0,107.0,-72.0,127.0,127.0,127.0,-115.0,-89.0,127.0
124.0,116.0,127.0,126.0,126.0,127.0,128.0,124.0,-1.0,107.0,-72.0,127.0,127.0,127.0,-115.0,-89.0,127.0
124.0,116.0,127.0,126.0,126.0,127.0,128.0,124.0,-1.0,107.0,-72.0,127.0,127.0,127.0,-115.0,-89.0,127.0
124.0,116.0,127.0,126.0,126.0,127.0,128.0,124.0,-1.0,107.0,-72.0,127.0,127.0,127.0,-115.0,-89.0,127.0
125.0,116.0,126.0,125.0,125.0,128.0,128.0,127.0,-1.0,107.0,-72.0,127.0,127.0,127.0,-115.0,-89.0,127.0
125.0,116.0,126.0,125.0,125.0,128.0,128.0,127.0,-1.0,107.0,-72.0,127.0,127.0,127.0,-115.0,-89.0,127.0
125.0,116.0,126.0,125.0,125.0,128.0,128.0,127.0,-1.0,107.0,-72.0,127.0,127.0,127.0,-115.0,-89.0,127.0
125.0,116.0,126.0,125.0,125.0,128.0,128.0,127.0,-1.0,107.0,-72.0,127.0,127.0,127.0,-115.0,-89.0,127.0
125.0,116.0,126.0,125.0,125.0,128.0,128.0,127.0,-1.0,107.0,-72.0,127.0,127.0,127.0,-115.0,-89.0,127.0
125.0,116.0,126.0,125.0,125.0,128.0,128.0,127.0,-1.0,107.0,-72.0,127.0,127.0,127.0,-115.0,-89.0,127.0
125.0,116.0,126.0,125.0,126.0,128.0,128.0,127.0,-1.0,107.0,-72.0,127.0,127.0,127.0,-115.0,-89.0,127.0
126.0,116.0,126.0,125.0,126.0,127.0,128.0,127.0,-1.0,107.0,-72.0,127.0,127.0,127.0,-115.0,-89.0,127.0
126.0,116.0,127.0,125.0,126.0,127.0,128.0,127.0,-1.0,107.0,-72.0,127.0,127.0,127.0,-115.0,-89.0,127.0
125.0,116.0,126.0,125.0,125.0,128.0,128.0,127.0,-1.0,107.0,-72.0,127.0,127.0,127.0,-115.0,-89.0,127.0
125.0,116.0,126.0,126.0,126.0,128.0,128.0,131.0,-1.0,107.0,-72.0,127.0,127.0,127.0,-115.0,-89.0,127.0
125.0,116.0,126.0,126.0,127.0,128.0,128.0,131.0,-1.0,107.0,-72.0,127.0,127.0,127.0,-115.0,-89.0,127.0
125.0,116.0,126.0,126.0,127.0,128.0,128.0,131.0,-1.0,107.0,-72.0,127.0,127.0,127.0,-115.0,-89.0,127.0
125.0,116.0,126.0,126.0,127.0,128.0,128.0,131.0,-1.0,107.0,-72.0,127.0,127.0,127.0,-115.0,-89.0,127.0
125.0,116.0,126.0,126.0,127.0,127.0,128.0,131.0,-1.0,107.0,-72.0,127.0,127.0,127.0,-115.0,-89.0,127.0
125.0,116.0,126.0,126.0,127.0,127.0,128.0,132.0,-1.0,107.0,-72.0,127.0,127.0,127.0,-115.0,-89.0,127.0
125.0,116.0,126.0,126.0,127.0,127.0,128.0,131.0,-1.0,107.0,-72.0,127.0,127.0,127.0,-115.0,-89.0,127.0
125.0,116.0,126.0,126.0,127.0,127.0,128.0,131.0,-1.0,107.0,-72.0,127.0,127.0,127.0,-115.0,-89.0,127.0
125.0,116.0,126.0,126.0,126.0,128.0,128.0,131.0,-1.0,107.0,-72.0,127.0,127.0,127.0,-115.0,-89.0,127.0
125.0,116.0,126.0,126.0,126.0,128.0,128.0,131.0,-1.0,107.0,-72.0,127.0,127.0,127.0,-115.0,-89.0,127.0
126.0,115.0,127.0,126.0,124.0,129.0,128.0,133.0,-1.0,107.0,-73.0,127.0,127.0,127.0,-115.0,-89.0,127.0
126.0,115.0,126.0,126.0,124.0,129.0,128.0,133.0,-1.0,107.0,-73.0,127.0,127.0,127.0,-115.0,-89.0,127.0
126.0,115.0,126.0,126.0,124.0,129.0,129.0,133.0,-1.0,107.0,-73.0,127.0,127.0,127.0,-115.0,-89.0,127.0
126.0,115.0,126.0,126.0,124.0,128.0,128.0,133.0,-1.0,107.0,-73.0,127.0,127.0,127.0,-115.0,-89.0,127.0
126.0,115.0,126.0,126.0,124.0,128.0,129.0,133.0,-1.0,107.0,-73.0,127.0,127.0,127.0,-115.0,-89.0,127.0
126.0,115.0,126.0,126.0,124.0,128.0,129.0,133.0,-1.0,107.0,-73.0,127.0,127.0,127.0,-115.0,-89.0,127.0
126.0,115.0,126.0,126.0,124.0,128.0,129.0,133.0,-1.0,107.0,-73.0,127.0,127.0,127.0,-115.0,-89.0,127.0
125.0,115.0,127.0,126.0,125.0,129.0,128.0,133.0,-1.0,107.0,-73.0,127.0,127.0,127.0,-115.0,-89.0,127.0
125.0,115.0,127.0,126.0,124.0,129.0,128.0,133.0,-1.0,107.0,-73.0,127.0,127.0,127.0,-115.0,-89.0,127.0
126.0,115.0,127.0,126.0,124.0,129.0,128.0,133.0,-1.0,107.0,-73.0,127.0,127.0,127.0,-115.0,-89.0,127.0
126.0,113.0,126.0,126.0,124.0,128.0,129.0,134.0,-1.0,107.0,-73.0,127.0,127.0,127.0,-115.0,-89.0,127.0
126.0,113.0,127.0,126.0,124.0,128.0,129.0,133.0,-1.0,107.0,-73.0,127.0,127.0,127.0,-115.0,-89.0,127.0
126.0,113.0,127.0,126.0,124.0,128.0,129.0,133.0,-1.0,107.0,-73.0,127.0,127.0,127.0,-115.0,-89.0,127.0
126.0,113.0,126.0,126.0,124.0,128.0,129.0,133.0,-1.0,107.0,-73.0,127.0,127.0,127.0,-115.0,-89.0,127.0
126.0,112.0,127.0,126.0,124.0,128.0,129.0,133.0,-1.0,107.0,-73.0,127.0,127.0,127.0,-115.0,-89.0,127.0
126.0,112.0,127.0,126.0,124.0,127.0,129.0,133.0,-1.0,107.0,-73.0,127.0,127.0,127.0,-115.0,-89.0,127.0
126.0,113.0,127.0,126.0,124.0,129.0,129.0,134.0,-1.0,107.0,-73.0,127.0,127.0,127.0,-115.0,-89.0,127.0
126.0,113.0,127.0,126.0,124.0,128.0,129.0,134.0,-1.0,107.0,-73.0,127.0,127.0,127.0,-115.0,-89.0,127.0
126.0,113.0,127.0,126.0,124.0,128.0,129.0,134.0,-1.0,107.0,-73.0,127.0,127.0,127.0,-115.0,-89.0,127.0
126.0,113.0,127.0,126.0,124.0,128.0,129.0,134.0,-1.0,107.0,-73.0,127.0,127.0,127.0,-115.0,-89.0,127.0
126.0,106.0,126.0,126.0,126.0,128.0,128.0,131.0,-1.0,107.0,-72.0,127.0,127.0,127.0,-115.0,-89.0,127.0
126.0,106.0,126.0,126.0,126.0,128.0,128.0,131.0,-1.0,107.0,-72.0,127.0,127.0,127.0,-115.0,-89.0,127.0
126.0,106.0,126.0,126.0,126.0,127.0,128.0,131.0,-1.0,107.0,-72.0,127.0,127.0,127.0,-115.0,-89.0,127.0
126.0,106.0,126.0,126.0,125.0,127.0,128.0,131.0,-1.0,107.0,-72.0,127.0,127.0,127.0,-115.0,-89.0,127.0
126.0,106.0,126.0,126.0,125.0,128.0,128.0,131.0,-1.0,107.0,-72.0,127.0,127.0,127.0,-115.0,-89.0,127.0
126.0,106.0,127.0,125.0,126.0,127.0,128.0,130.0,-1.0,107.0,-72.0,127.0,127.0,127.0,-115.0,-89.0,127.0
126.0,106.0,127.0,125.0,126.0,127.0,128.0,130.0,-1.0,107.0,-72.0,127.0,127.0,127.0,-115.0,-89.0,127.0
126.0,106.0,126.0,125.0,126.0,127.0,128.0,130.0,-1.0,107.0,-72.0,127.0,127.0,127.0,-115.0,-89.0,127.0
126.0,106.0,126.0,125.0,125.0,128.0,128.0,131.0,-1.0,107.0,-72.0,127.0,127.0,127.0,-115.0,-89.0,127.0
126.0,106.0,126.0,125.0,125.0,128.0,128.0,131.0,-1.0,107.0,-72.0,127.0,127.0,127.0,-115.0,-89.0,127.0
126.0,103.0,127.0,126.0,126.0,127.0,128.0,128.0,-1.0,107.0,-72.0,127.0,127.0,127.0,-115.0,-89.0,127.0
126.0,103.0,127.0,126.0,126.0,127.0,128.0,128.0,-1.0,107.0,-72.0,127.0,127.0,127.0,-115.0,-89.0,127.0
126.0,103.0,127.0,126.0,127.0,127.0,128.0,128.0,-1.0,107.0,-72.0,127.0,127.0,127.0,-115.0,-89.0,127.0
126.0,102.0,127.0,126.0,127.0,126.0,128.0,128.0,-1.0,107.0,-72.0,127.0,127.0,127.0,-115.0,-89.0,127.0
126.0,103.0,127.0,126.0,126.0,128.0,128.0,129.0,-1.0,107.0,-72.0,127.0,127.0,127.0,-115.0,-89.0,127.0
126.0,103.0,127.0,126.0,126.0,128.0,128.0,129.0,-1.0,107.0,-72.0,127.0,127.0,127.0,-115.0,-89.0,127.0
126.0,103.0,127.0,126.0,126.0,127.0,128.0,129.0,-1.0,107.0,-72.0,127.0,127.0,127.0,-115.0,-89.0,127.0
126.0,103.0,127.0,126.0,126.0,127.0,128.0,129.0,-1.0,107.0,-72.0,127.0,127.0,127.0,-115.0,-89.0,127.0
126.0,103.0,127.0,126.0,126.0,127.0,128.0,129.0,-1.0,107.0,-72.0,127.0,127.0,127.0,-115.0,-89.0,127.0
126.0,103.0,127.0,126.0,126.0,127.0,128.0,129.0,-1.0,107.0,-72.0,127.0,127.0,127.0,-115.0,-89.0,127.0
127.0,99.0,126.0,127.0,125.0,127.0,128.0,127.0,-1.0,107.0,-72.0,127.0,127.0,127.0,-115.0,-89.0,127.0
127.0,99.0,126.0,127.0,125.0,127.0,128.0,127.0,-1.0,107.0,-72.0,127.0,127.0,127.0,-115.0,-89.0,127.0
127.0,99.0,126.0,127.0,125.0,127.0,128.0,127.0,-1.0,107.0,-72.0,127.0,127.0,127.0,-115.0,-89.0,127.0
127.0,100.0,126.0,127.0,125.0,128.0,128.0,128.0,-1.0,107.0,-72.0,127.0,127.0,127.0,-115.0,-89.0,127.0
127.0,100.0,126.0,127.0,125.0,128.0,128.0,128.0,-1.0,107.0,-72.0,127.0,127.0,127.0,-115.0,-89.0,127.0
127.0,100.0,126.0,127.0,125.0,128.0,128.0,128.0,-1.0,107.0,-72.0,127.0,127.0,127.0,-115.0,-89.0,127.0
127.0,100.0,126.0,127.0,125.0,128.0,128.0,128.0,-1.0,107.0,-72.0,127.0,127.0,127.0,-115.0,-89.0,127.0
127.0,100.0,126.0,127.0,125.0,128.0,128.0,128.0,-1.0,107.0,-72.0,127.0,127.0,127.0,-115.0,-89.0,127.0
127.0,99.0,126.0,127.0,125.0,128.0,128.0,128.0,-1.0,107.0,-72.0,127.0,127.0,127.0,-115.0,-89.0,127.0
127.0,99.0,126.0,127.0,125.0,128.0,128.0,127.0,-1.0,107.0,-72.0,127.0,127.0,127.0,-115.0,-89.0,127.0
126.0,94.0,126.0,126.0,126.0,127.0,128.0,127.0,-1.0,107.0,-72.0,127.0,127.0,127.0,-116.0,-89.0,127.0
126.0,94.0,126.0,126.0,126.0,127.0,128.0,126.0,-1.0,107.0,-72.0,127.0,127.0,127.0,-116.0,-89.0,127.0
126.0,95.0,126.0,126.0,126.0,128.0,128.0,127.0,-1.0,107.0,-72.0,127.0,127.0,127.0,-116.0,-89.0,127.0
126.0,95.0,126.0,126.0,126.0,128.0,128.0,127.0,-1.0,107.0,-72.0,127.0,127.0,127.0,-116.0,-89.0,127.0
126.0,95.0,126.0,127.0,126.0,127.0,128.0,127.0,-1.0,107.0,-72.0,127.0,127.0,127.0,-116.0,-89.0,127.0
126.0,94.0,126.0,126.0,126.0,127.0,128.0,127.0,-1.0,107.0,-72.0,127.0,127.0,127.0,-116.0,-89.0,127.0
126.0,94.0,126.0,126.0,126.0,127.0,128.0,127.0,-1.0,107.0,-72.0,127.0,127.0,127.0,-116.0,-89.0,127.0
126.0,94.0,126.0,126.0,126.0,127.0,128.0,127.0,-1.0,107.0,-72.0,127.0,127.0,127.0,-116.0,-89.0,127.0
126.0,94.0,126.0,126.0,126.0,127.0,128.0,127.0,-1.0,107.0,-72.0,127.0,127.0,127.0,-116.0,-89.0,127.0
126.0,94.0,126.0,126.0,126.0,127.0,128.0,127.0,-1.0,107.0,-72.0,127.0,127.0,127.0,-116.0,-89.0,127.0
126.0,88.0,126.0,126.0,125.0,127.0,128.0,127.0,-1.0,107.0,-72.0,127.0,127.0,127.0,-116.0,-89.0,127.0
126.0,89.0,126.0,126.0,125.0,128.0,127.0,127.0,-1.0,107.0,-72.0,127.0,127.0,127.0,-116.0,-89.0,127.0
126.0,89.0,126.0,126.0,125.0,128.0,127.0,127.0,-1.0,107.0,-72.0,127.0,127.0,127.0,-116.0,-89.0,127.0
126.0,89.0,126.0,126.0,125.0,128.0,127.0,127.0,-1.0,107.0,-72.0,127.0,127.0,127.0,-116.0,-89.0,127.0
126.0,89.0,126.0,126.0,125.0,128.0,127.0,127.0,-1.0,107.0,-72.0,127.0,127.0,127.0,-116.0,-89.0,127.0
126.0,89.0,126.0,126.0,125.0,128.0,127.0,127.0,-1.0,107.0,-72.0,127.0,127.0,127.0,-116.0,-89.0,127.0
126.0,89.0,126.0,126.0,125.0,127.0,128.0,127.0,-1.0,107.0,-72.0,127.0,127.0,127.0,-116.0,-89.0,127.0
126.0,89.0,126.0,126.0,125.0,127.0,128.0,127.0,-1.0,107.0,-72.0,127.0,127.0,127.0,-116.0,-89.0,127.0
126.0,89.0,126.0,126.0,125.0,127.0,127.0,127.0,-1.0,107.0,-72.0,127.0,127.0,127.0,-116.0,-89.0,127.0
126.0,88.0,126.0,126.0,125.0,127.0,128.0,127.0,-1.0,107.0,-72.0,127.0,127.0,127.0,-116.0,-89.0,127.0
126.0,84.0,127.0,126.0,125.0,129.0,127.0,129.0,-1.0,107.0,-72.0,127.0,127.0,127.0,-116.0,-89.0,127.0
126.0,84.0,127.0,126.0,125.0,129.0,127.0,129.0,-1.0,107.0,-72.0,127.0,127.0,127.0,-116.0,-89.0,127.0
126.0,84.0,127.0,126.0,124.0,129.0,127.0,129.0,-1.0,107.0,-72.0,127.0,127.0,127.0,-116.0,-89.0,127.0
126.0,84.0,127.0,126.0,124.0,129.0,127.0,129.0,-1.0,107.0,-72.0,127.0,127.0,127.0,-116.0,-89.0,127.0
126.0,84.0,127.0,126.0,124.0,129.0,127.0,129.0,-1.0,107.0,-72.0,127.0,127.0,127.0,-116.0,-89.0,127.0
126.0,84.0,127.0,126.0,124.0,129.0,127.0,129.0,-1.0,107.0,-72.0,127.0,127.0,127.0,-116.0,-89.0,127.0
126.0,84.0,127.0,126.0,124.0,128.0,127.0,128.0,-1.0,107.0,-72.0,127.0,127.0,127.0,-116.0,-89.0,127.0
126.0,84.0,127.0,126.0,124.0,128.0,127.0,128.0,-1.0,107.0,-72.0,127.0,127.0,127.0,-116.0,-89.0,127.0
126.0,84.0,127.0,126.0,124.0,128.0,127.0,128.0,-1.0,107.0,-72.0,127.0,127.0,127.0,-116.0,-89.0,127.0
126.0,84.0,127.0,126.0,124.0,128.0,127.0,128.0,-1.0,107.0,-72.0,127.0,127.0,127.0,-116.0,-89.0,127.0
126.0,80.0,126.0,126.0,125.0,128.0,127.0,128.0,-1.0,107.0,-72.0,127.0,127.0,127.0,-116.0,-89.0,127.0
126.0,80.0,126.0,126.0,126.0,128.0,127.0,129.0,-1.0,107.0,-72.0,127.0,127.0,127.0,-116.0,-89.0,127.0
126.0,81.0,126.0,126.0,126.0,128.0,127.0,129.0,-1.0,107.0,-72.0,127.0,127.0,127.0,-116.0,-89.0,127.0
126.0,80.0,126.0,126.0,126.0,128.0,127.0,129.0,-1.0,107.0,-72.0,127.0,127.0,127.0,-116.0,-89.0,127.0
126.0,80.0,126.0,126.0,126.0,128.0,127.0,128.0,-1.0,107.0,-72.0,127.0,127.0,127.0,-116.0,-89.0,127.0
126.0,80.0,126.0,126.0,126.0,128.0,127.0,129.0,-1.0,107.0,-72.0,127.0,127.0,127.0,-116.0,-89.0,127.0
126.0,80.0,126.0,126.0,126.0,128.0,127.0,128.0,-1.0,107.0,-72.0,127.0,127.0,127.0,-116.0,-89.0,127.0
126.0,80.0,126.0,126.0,126.0,127.0,127.0,128.0,-1.0,107.0,-72.0,127.0,127.0,127.0,-116.0,-89.0,127.0
126.0,80.0,126.0,126.0,126.0,127.0,127.0,128.0,-1.0,107.0,-72.0,127.0,127.0,127.0,-116.0,-89.0,127.0
126.0,80.0,126.0,126.0,126.0,128.0,126.0,128.0,-1.0,107.0,-72.0,127.0,127.0,127.0,-116.0,-89.0,127.0
126.0,83.0,126.0,126.0,127.0,128.0,127.0,130.0,-1.0,107.0,-72.0,127.0,127.0,127.0,-116.0,-89.0,127.0
126.0,83.0,126.0,126.0,127.0,128.0,127.0,130.0,-1.0,107.0,-72.0,127.0,127.0,127.0,-116.0,-89.0,127.0
126.0,83.0,126.0,126.0,127.0,128.0,127.0,130.0,-1.0,107.0,-72.0,127.0,127.0,127.0,-116.0,-89.0,127.0
126.0,83.0,126.0,126.0,127.0,128.0,127.0,130.0,-1.0,107.0,-72.0,127.0,127.0,127.0,-116.0,-89.0,127.0
126.0,83.0,126.0,126.0,127.0,128.0,127.0,130.0,-1.0,107.0,-72.0,127.0,127.0,127.0,-116.0,-89.0,127.0
126.0,83.0,126.0,126.0,127.0,127.0,127.0,130.0,-1.0,107.0,-72.0,127.0,127.0,127.0,-116.0,-89.0,127.0
126.0,83.0,126.0,126.0,127.0,127.0,127.0,130.0,-1.0,107.0,-72.0,127.0,127.0,127.0,-116.0,-89.0,127.0
126.0,83.0,126.0,126.0,127.0,127.0,127.0,130.0,-1.0,107.0,-72.0,127.0,127.0,127.0,-116.0,-89.0,127.0
126.0,82.0,126.0,126.0,127.0,128.0,127.0,129.0,-1.0,107.0,-72.0,127.0,127.0,127.0,-116.0,-89.0,127.0
126.0,82.0,126.0,126.0,127.0,128.0,127.0,130.0,-1.0,107.0,-72.0,127.0,127.0,127.0,-116.0,-89.0,127.0
126.0,86.0,127.0,126.0,127.0,127.0,128.0,130.0,-1.0,107.0,-72.0,127.0,127.0,127.0,-116.0,-89.0,127.0
126.0,86.0,127.0,126.0,127.0,126.0,128.0,131.0,-1.0,107.0,-72.0,127.0,127.0,127.0,-116.0,-89.0,127.0
126.0,86.0,126.0,126.0,127.0,126.0,128.0,131.0,-1.0,107.0,-72.0,127.0,127.0,127.0,-116.0,-89.0,127.0
126.0,86.0,126.0,126.0,127.0,126.0,128.0,131.0,-1.0,107.0,-72.0,127.0,127.0,127.0,-116.0,-89.0,127.0
126.0,86.0,126.0,126.0,127.0,126.0,128.0,131.0,-1.0,107.0,-72.0,127.0,127.0,127.0,-116.0,-89.0,127.0
126.0,86.0,126.0,126.0,127.0,126.0,128.0,131.0,-1.0,107.0,-72.0,127.0,127.0,127.0,-116.0,-89.0,127.0
126.0,86.0,126.0,126.0,126.0,126.0,128.0,131.0,-1.0,107.0,-72.0,127.0,127.0,127.0,-116.0,-89.0,127.0
126.0,86.0,127.0,126.0,127.0,127.0,128.0,130.0,-1.0,107.0,-72.0,127.0,127.0,127.0,-116.0,-89.0,127.0
126.0,86.0,127.0,126.0,127.0,127.0,128.0,130.0,-1.0,107.0,-72.0,127.0,127.0,127.0,-116.0,-89.0,127.0
126.0,86.0,127.0,126.0,127.0,127.0,128.0,130.0,-1.0,107.0,-72.0,127.0,127.0,127.0,-116.0,-89.0,127.0
126.0,87.0,127.0,126.0,125.0,127.0,127.0,131.0,-1.0,107.0,-72.0,127.0,127.0,127.0,-116.0,-89.0,127.0
126.0,87.0,127.0,126.0,125.0,128.0,127.0,131.0,-1.0,107.0,-72.0,127.0,127.0,127.0,-116.0,-89.0,127.0
126.0,87.0,127.0,126.0,125.0,128.0,127.0,131.0,-1.0,107.0,-72.0,127.0,127.0,127.0,-116.0,-89.0,127.0
126.0,87.0,127.0,126.0,125.0,128.0,127.0,130.0,-1.0,107.0,-72.0,127.0,127.0,127.0,-116.0,-89.0,127.0
126.0,87.0,127.0,126.0,125.0,127.0,127.0,130.0,-1.0,107.0,-72.0,127.0,127.0,127.0,-116.0,-89.0,127.0
126.0,87.0,126.0,126.0,125.0,127.0,127.0,130.0,-1.0,107.0,-72.0,127.0,127.0,127.0,-116.0,-89.0,127.0
126.0,87.0,127.0,126.0,126.0,128.0,127.0,131.0,-1.0,107.0,-72.0,127.0,127.0,127.0,-116.0,-89.0,127.0
126.0,87.0,127.0,126.0,126.0,127.0,127.0,131.0,-1.0,107.0,-72.0,127.0,127.0,127.0,-116.0,-89.0,127.0
126.0,87.0,127.0,126.0,126.0,127.0,127.0,131.0,-1.0,107.0,-72.0,127.0,127.0,127.0,-116.0,-89.0,127.0
126.0,87.0,127.0,126.0,126.0,127.0,127.0,131.0,-1.0,107.0,-72.0,127.0,127.0,127.0,-116.0,-89.0,127.0
126.0,87.0,126.0,126.0,125.0,128.0,126.0,127.0,-1.0,107.0,-72.0,127.0,127.0,127.0,-116.0,-89.0,127.0
126.0,88.0,126.0,126.0,125.0,128.0,126.0,127.0,-1.0,107.0,-72.0,127.0,127.0,127.0,-116.0,-89.0,127.0
126.0,88.0,126.0,126.0,125.0,128.0,126.0,127.0,-1.0,107.0,-72.0,127.0,127.0,127.0,-116.0,-89.0,127.0
126.0,88.0,127.0,125.0,125.0,128.0,126.0,127.0,-1.0,107.0,-72.0,127.0,127.0,127.0,-116.0,-89.0,127.0
126.0,88.0,126.0,126.0,125.0,128.0,126.0,127.0,-1.0,107.0,-72.0,127.0,127.0,127.0,-116.0,-89.0,127.0
126.0,87.0,127.0,126.0,125.0,128.0,126.0,127.0,-1.0,107.0,-72.0,127.0,127.0,127.0,-116.0,-89.0,127.0
126.0,87.0,127.0,126.0,125.0,128.0,127.0,127.0,-1.0,107.0,-72.0,127.0,127.0,127.0,-116.0,-89.0,127.0
126.0,87.0,127.0,126.0,126.0,128.0,127.0,127.0,-1.0,107.0,-72.0,127.0,127.0,127.0,-116.0,-89.0,127.0
126.0,87.0,127.0,126.0,126.0,128.0,126.0,127.0,-1.0,107.0,-72.0,127.0,127.0,127.0,-116.0,-89.0,127.0
126.0,87.0,127.0,125.0,125.0,128.0,126.0,127.0,-1.0,107.0,-72.0,127.0,127.0,127.0,-116.0,-89.0,127.0
126.0,89.0,126.0,125.0,126.0,128.0,126.0,127.0,-1.0,107.0,-72.0,127.0,127.0,127.0,-116.0,-89.0,127.0
126.0,89.0,126.0,125.0,126.0,128.0,126.0,127.0,-1.0,107.0,-72.0,127.0,127.0,127.0,-116.0,-89.0,127.0
126.0,89.0,126.0,125.0,127.0,128.0,126.0,127.0,-1.0,107.0,-72.0,127.0,127.0,127.0,-116.0,-89.0,127.0
126.0,89.0,126.0,125.0,127.0,128.0,126.0,127.0,-1.0,107.0,-72.0,127.0,127.0,127.0,-116.0,-89.0,127.0
126.0,88.0,126.0,125.0,126.0,128.0,126.0,127.0,-1.0,107.0,-72.0,127.0,127.0,127.0,-116.0,-89.0,127.0
126.0,88.0,126.0,125.0,126.0,128.0,126.0,127.0,-1.0,107.0,-72.0,127.0,127.0,127.0,-116.0,-89.0,127.0
126.0,88.0,126.0,125.0,126.0,127.0,126.0,127.0,-1.0,107.0,-72.0,127.0,127.0,127.0,-116.0,-89.0,127.0
126.0,89.0,126.0,125.0,127.0,127.0,126.0,127.0,-1.0,107.0,-72.0,127.0,127.0,127.0,-116.0,-89.0,127.0
126.0,89.0,126.0,125.0,126.0,127.0,126.0,127.0,-1.0,107.0,-72.0,127.0,127.0,127.0,-116.0,-89.0,127.0
126.0,89.0,126.0,125.0,126.0,128.0,126.0,127.0,-1.0,107.0,-72.0,127.0,127.0,127.0,-116.0,-89.0,127.0
126.0,90.0,127.0,126.0,126.0,128.0,127.0,126.0,-1.0,107.0,-72.0,127.0,127.0,127.0,-116.0,-89.0,127.0
126.0,90.0,127.0,126.0,127.0,128.0,127.0,126.0,-1.0,107.0,-72.0,127.0,127.0,127.0,-116.0,-89.0,127.0
126.0,90.0,126.0,125.0,127.0,128.0,127.0,125.0,-1.0,107.0,-72.0,127.0,127.0,127.0,-116.0,-89.0,127.0
126.0,90.0,127.0,126.0,126.0,128.0,127.0,126.0,-1.0,107.0,-72.0,127.0,127.0,127.0,-116.0,-89.0,127.0
126.0,90.0,127.0,126.0,126.0,128.0,127.0,126.0,-1.0,107.0,-72.0,127.0,127.0,127.0,-116.0,-89.0,127.0
126.0,90.0,127.0,126.0,126.0,127.0,127.0,126.0,-1.0,107.0,-72.0,127.0,127.0,127.0,-116.0,-89.0,127.0
126.0,90.0,127.0,126.0,126.0,127.0,127.0,126.0,-1.0,107.0,-72.0,127.0,127.0,127.0,-116.0,-89.0,127.0
126.0,90.0,127.0,126.0,126.0,127.0,127.0,126.0,-1.0,107.0,-72.0,127.0,127.0,127.0,-116.0,-89.0,127.0
126.0,90.0,127.0,125.0,126.0,128.0,127.0,126.0,-1.0,107.0,-72.0,127.0,127.0,127.0,-116.0,-89.0,127.0
126.0,90.0,127.0,126.0,126.0,128.0,127.0,126.0,-1.0,107.0,-72.0,127.0,127.0,127.0,-116.0,-89.0,127.0
125.0,90.0,126.0,125.0,124.0,127.0,127.0,124.0,-1.0,107.0,-72.0,127.0,127.0,127.0,-116.0,-89.0,127.0
125.0,90.0,126.0,125.0,124.0,127.0,127.0,123.0,-1.0,107.0,-72.0,127.0,127.0,127.0,-116.0,-89.0,127.0
125.0,90.0,127.0,125.0,126.0,128.0,127.0,124.0,-1.0,107.0,-72.0,127.0,127.0,127.0,-116.0,-89.0,127.0
125.0,90.0,127.0,125.0,126.0,128.0,127.0,123.0,-1.0,107.0,-72.0,127.0,127.0,127.0,-116.0,-89.0,127.0
125.0,90.0,127.0,125.0,126.0,127.0,127.0,123.0,-1.0,107.0,-72.0,127.0,127.0,127.0,-116.0,-89.0,127.0
125.0,90.0,127.0,125.0,125.0,127.0,127.0,123.0,-1.0,107.0,-72.0,127.0,127.0,127.0,-116.0,-89.0,127.0
125.0,90.0,127.0,125.0,125.0,127.0,127.0,123.0,-1.0,107.0,-72.0,127.0,127.0,127.0,-116.0,-89.0,127.0
125.0,90.0,126.0,125.0,125.0,127.0,127.0,123.0,-1.0,107.0,-72.0,127.0,127.0,127.0,-116.0,-89.0,127.0
125.0,90.0,126.0,125.0,124.0,128.0,127.0,124.0,-1.0,107.0,-72.0,127.0,127.0,127.0,-116.0,-89.0,127.0
125.0,90.0,126.0,125.0,124.0,128.0,127.0,124.0,-1.0,107.0,-72.0,127.0,127.0,127.0,-116.0,-89.0,127.0
125.0,92.0,126.0,125.0,126.0,127.0,127.0,125.0,-1.0,107.0,-72.0,127.0,127.0,127.0,-116.0,-89.0,127.0
125.0,92.0,127.0,125.0,125.0,128.0,127.0,124.0,-1.0,107.0,-72.0,127.0,127.0,127.0,-116.0,-89.0,127.0
125.0,92.0,127.0,125.0,125.0,128.0,127.0,124.0,-1.0,107.0,-72.0,127.0,127.0,127.0,-116.0,-89.0,127.0
125.0,92.0,127.0,125.0,125.0,128.0,127.0,124.0,-1.0,107.0,-72.0,127.0,127.0,127.0,-116.0,-89.0,127.0
125.0,92.0,126.0,125.0,125.0,127.0,127.0,124.0,-1.0,107.0,-72.0,127.0,127.0,127.0,-116.0,-89.0,127.0
125.0,92.0,126.0,125.0,125.0,127.0,127.0,124.0,-1.0,107.0,-72.0,127.0,127.0,127.0,-116.0,-89.0,127.0
125.0,92.0,126.0,125.0,125.0,127.0,127.0,124.0,-1.0,107.0,-72.0,127.0,127.0,127.0,-116.0,-89.0,127.0
125.0,92.0,126.0,125.0,125.0,128.0,127.0,124.0,-1.0,107.0,-72.0,127.0,127.0,127.0,-116.0,-89.0,127.0
125.0,92.0,126.0,125.0,125.0,128.0,127.0,124.0,-1.0,107.0,-72.0,127.0,127.0,127.0,-116.0,-89.0,127.0
125.0,92.0,126.0,125.0,125.0,128.0,127.0,125.0,-1.0,107.0,-72.0,127.0,127.0,127.0,-116.0,-89.0,127.0
125.0,92.0,127.0,125.0,126.0,128.0,127.0,128.0,-1.0,107.0,-72.0,127.0,127.0,127.0,-116.0,-89.0,127.0
125.0,92.0,127.0,125.0,126.0,128.0,127.0,128.0,-1.0,107.0,-72.0,127.0,127.0,127.0,-116.0,-89.0,127.0
125.0,92.0,127.0,125.0,126.0,128.0,127.0,128.0,-1.0,107.0,-72.0,127.0,127.0,127.0,-116.0,-89.0,127.0
125.0,92.0,126.0,125.0,126.0,127.0,127.0,128.0,-1.0,107.0,-72.0,127.0,127.0,127.0,-116.0,-89.0,127.0
125.0,93.0,126.0,125.0,126.0,127.0,127.0,128.0,-1.0,107.0,-72.0,127.0,127.0,127.0,-116.0,-89.0,127.0
125.0,93.0,126.0,125.0,126.0,127.0,127.0,128.0,-1.0,107.0,-72.0,127.0,127.0,127.0,-116.0,-89.0,127.0
125.0,93.0,126.0,125.0,126.0,128.0,127.0,129.0,-1.0,107.0,-72.0,127.0,127.0,127.0,-116.0,-89.0,127.0
125.0,93.0,126.0,125.0,126.0,128.0,127.0,129.0,-1.0,107.0,-72.0,127.0,127.0,127.0,-116.0,-89.0,127.0
125.0,93.0,126.0,125.0,126.0,128.0,127.0,129.0,-1.0,107.0,-72.0,127.0,127.0,127.0,-116.0,-89.0,127.0
125.0,93.0,126.0,125.0,126.0,128.0,127.0,129.0,-1.0,107.0,-72.0,127.0,127.0,127.0,-116.0,-89.0,127.0
125.0,93.0,127.0,125.0,126.0,127.0,127.0,129.0,-1.0,107.0,-72.0,127.0,127.0,127.0,-116.0,-89.0,127.0
125.0,93.0,127.0,125.0,126.0,127.0,127.0,129.0,-1.0,107.0,-72.0,127.0,127.0,127.0,-116.0,-89.0,127.0
125.0,93.0,127.0,125.0,126.0,127.0,127.0,129.0,-1.0,107.0,-72.0,127.0,127.0,127.0,-116.0,-89.0,127.0
125.0,93.0,127.0,125.0,126.0,127.0,127.0,129.0,-1.0,107.0,-72.0,127.0,127.0,127.0,-116.0,-89.0,127.0
125.0,93.0,127.0,125.0,126.0,126.0,127.0,129.0,-1.0,107.0,-72.0,127.0,127.0,127.0,-116.0,-89.0,127.0
125.0,93.0,127.0,125.0,126.0,126.0,127.0,129.0,-1.0,107.0,-72.0,127.0,127.0,127.0,-116.0,-89.0,127.0
125.0,93.0,127.0,125.0,126.0,126.0,127.0,129.0,-1.0,107.0,-72.0,127.0,127.0,127.0,-116.0,-89.0,127.0
125.0,93.0,127.0,125.0,126.0,126.0,127.0,129.0,-1.0,107.0,-72.0,127.0,127.0,127.0,-116.0,-89.0,127.0
125.0,93.0,127.0,125.0,126.0,127.0,127.0,129.0,-1.0,107.0,-72.0,127.0,127.0,127.0,-116.0,-89.0,127.0
125.0,92.0,127.0,125.0,126.0,127.0,127.0,129.0,-1.0,107.0,-72.0,127.0,127.0,127.0,-116.0,-89.0,127.0
125.0,94.0,127.0,125.0,127.0,127.0,127.0,128.0,-1.0,107.0,-72.0,127.0,127.0,127.0,-116.0,-89.0,127.0
125.0,95.0,127.0,125.0,126.0,128.0,127.0,128.0,-1.0,107.0,-72.0,127.0,127.0,127.0,-116.0,-89.0,127.0
125.0,95.0,127.0,125.0,126.0,128.0,127.0,128.0,-1.0,107.0,-72.0,127.0,127.0,127.0,-116.0,-89.0,127.0
126.0,95.0,127.0,125.0,126.0,128.0,127.0,128.0,-1.0,107.0,-72.0,127.0,127.0,127.0,-116.0,-89.0,127.0
126.0,95.0,126.0,125.0,126.0,128.0,127.0,128.0,-1.0,107.0,-72.0,127.0,127.0,127.0,-116.0,-89.0,127.0
125.0,95.0,126.0,125.0,126.0,128.0,127.0,128.0,-1.0,107.0,-72.0,127.0,127.0,127.0,-116.0,-89.0,127.0
126.0,95.0,126.0,125.0,126.0,128.0,127.0,128.0,-1.0,107.0,-72.0,127.0,127.0,127.0,-116.0,-89.0,127.0
126.0,95.0,126.0,125.0,126.0,128.0,127.0,128.0,-1.0,107.0,-72.0,127.0,127.0,127.0,-116.0,-89.0,127.0
125.0,94.0,127.0,125.0,127.0,127.0,127.0,128.0,-1.0,107.0,-72.0,127.0,127.0,127.0,-116.0,-89.0,127.0
125.0,94.0,127.0,125.0,127.0,127.0,127.0,128.0,-1.0,107.0,-72.0,127.0,127.0,127.0,-116.0,-89.0,127.0
126.0,96.0,127.0,125.0,127.0,128.0,127.0,128.0,-1.0,107.0,-72.0,127.0,127.0,127.0,-116.0,-89.0,127.0
126.0,96.0,127.0,125.0,127.0,127.0,127.0,128.0,-1.0,107.0,-72.0,127.0,127.0,127.0,-116.0,-89.0,127.0
126.0,96.0,127.0,125.0,127.0,127.0,127.0,128.0,-1.0,107.0,-72.0,127.0,127.0,127.0,-116.0,-89.0,127.0
126.0,96.0,127.0,125.0,126.0,128.0,127.0,128.0,-1.0,107.0,-72.0,127.0,127.0,127.0,-116.0,-89.0,127.0
126.0,96.0,127.0,125.0,126.0,128.0,127.0,128.0,-1.0,107.0,-72.0,127.0,127.0,127.0,-116.0,-89.0,127.0
126.0,96.0,127.0,125.0,126.0,128.0,127.0,128.0,-1.0,107.0,-72.0,127.0,127.0,127.0,-116.0,-89.0,127.0
126.0,96.0,127.0,125.0,126.0,128.0,127.0,128.0,-1.0,107.0,-72.0,127.0,127.0,127.0,-116.0,-89.0,127.0
126.0,96.0,127.0,125.0,126.0,128.0,127.0,128.0,-1.0,107.0,-72.0,127.0,127.0,127.0,-116.0,-89.0,127.0
126.0,96.0,127.0,125.0,126.0,128.0,127.0,128.0,-1.0,107.0,-72.0,127.0,127.0,127.0,-116.0,-89.0,127.0
126.0,96.0,127.0,125.0,126.0,128.0,127.0,128.0,-1.0,107.0,-72.0,127.0,127.0,127.0,-116.0,-89.0,127.0
125.0,94.0,127.0,125.0,126.0,127.0,128.0,127.0,-1.0,107.0,-72.0,127.0,127.0,127.0,-116.0,-89.0,127.0
125.0,94.0,127.0,125.0,126.0,127.0,128.0,127.0,-1.0,107.0,-72.0,127.0,127.0,127.0,-116.0,-89.0,127.0
125.0,94.0,127.0,125.0,125.0,127.0,128.0,127.0,-1.0,107.0,-72.0,127.0,127.0,127.0,-116.0,-89.0,127.0
125.0,95.0,126.0,125.0,125.0,128.0,128.0,127.0,-1.0,107.0,-72.0,127.0,127.0,127.0,-116.0,-89.0,127.0
125.0,94.0,126.0,125.0,126.0,128.0,128.0,127.0,-1.0,107.0,-72.0,127.0,127.0,127.0,-116.0,-89.0,127.0
125.0,95.0,126.0,125.0,126.0,128.0,128.0,127.0,-1.0,107.0,-72.0,127.0,127.0,127.0,-116.0,-89.0,127.0
125.0,94.0,127.0,125.0,126.0,127.0,128.0,127.0,-1.0,107.0,-72.0,127.0,127.0,127.0,-116.0,-89.0,127.0
125.0,94.0,127.0,125.0,126.0,128.0,128.0,127.0,-1.0,107.0,-72.0,127.0,127.0,127.0,-116.0,-89.0,127.0
125.0,94.0,127.0,125.0,126.0,128.0,128.0,127.0,-1.0,107.0,-72.0,127.0,127.0,127.0,-116.0,-89.0,127.0
125.0,94.0,127.0,125.0,126.0,127.0,128.0,127.0,-1.0,107.0,-72.0,127.0,127.0,127.0,-116.0,-89.0,127.0
126.0,94.0,127.0,125.0,125.0,128.0,128.0,129.0,-1.0,107.0,-72.0,127.0,127.0,127.0,-116.0,-89.0,127.0
126.0,94.0,127.0,125.0,125.0,128.0,128.0,129.0,-1.0,107.0,-72.0,127.0,127.0,127.0,-116.0,-89.0,127.0
126.0,95.0,126.0,125.0,125.0,128.0,128.0,129.0,-1.0,107.0,-72.0,127.0,127.0,127.0,-116.0,-89.0,127.0
126.0,95.0,126.0,125.0,125.0,128.0,128.0,129.0,-1.0,107.0,-72.0,127.0,127.0,127.0,-116.0,-89.0,127.0
126.0,95.0,126.0,125.0,124.0,128.0,128.0,129.0,-1.0,107.0,-72.0,127.0,127.0,127.0,-116.0,-89.0,127.0
126.0,94.0,127.0,125.0,126.0,128.0,128.0,129.0,-1.0,107.0,-72.0,127.0,127.0,127.0,-116.0,-89.0,127.0
126.0,94.0,127.0,125.0,126.0,128.0,128.0,129.0,-1.0,107.0,-72.0,127.0,127.0,127.0,-116.0,-89.0,127.0
126.0,94.0,127.0,125.0,126.0,128.0,128.0,129.0,-1.0,107.0,-72.0,127.0,127.0,127.0,-116.0,-89.0,127.0
126.0,94.0,127.0,125.0,126.0,128.0,128.0,129.0,-1.0,107.0,-72.0,127.0,127.0,127.0,-116.0,-89.0,127.0
126.0,94.0,127.0,125.0,126.0,128.0,128.0,129.0,-1.0,107.0,-72.0,127.0,127.0,127.0,-116.0,-89.0,127.0
126.0,96.0,126.0,125.0,125.0,127.0,127.0,128.0,-1.0,107.0,-73.0,127.0,127.0,127.0,-116.0,-89.0,127.0
126.0,96.0,126.0,125.0,125.0,128.0,127.0,128.0,-1.0,107.0,-73.0,127.0,127.0,127.0,-116.0,-89.0,127.0
126.0,96.0,126.0,125.0,125.0,128.0,127.0,128.0,-1.0,107.0,-73.0,127.0,127.0,127.0,-116.0,-89.0,127.0
126.0,96.0,126.0,125.0,125.0,128.0,127.0,128.0,-1.0,107.0,-73.0,127.0,127.0,127.0,-116.0,-89.0,127.0
126.0,96.0,127.0,125.0,126.0,127.0,127.0,128.0,-1.0,107.0,-73.0,127.0,127.0,127.0,-116.0,-89.0,127.0
126.0,96.0,127.0,125.0,125.0,128.0,127.0,128.0,-1.0,107.0,-73.0,127.0,127.0,127.0,-116.0,-89.0,127.0
126.0,96.0,127.0,125.0,125.0,128.0,127.0,128.0,-1.0,107.0,-73.0,127.0,127.0,127.0,-116.0,-89.0,127.0
126.0,96.0,127.0,125.0,126.0,127.0,127.0,128.0,-1.0,107.0,-73.0,127.0,127.0,127.0,-116.0,-89.0,127.0
126.0,96.0,127.0,125.0,126.0,127.0,127.0,128.0,-1.0,107.0,-73.0,127.0,127.0,127.0,-116.0,-89.0,127.0
126.0,96.0,126.0,125.0,126.0,127.0,127.0,128.0,-1.0,107.0,-73.0,127.0,127.0,127.0,-116.0,-89.0,127.0
126.0,96.0,126.0,125.0,125.0,128.0,128.0,129.0,-1.0,107.0,-73.0,127.0,127.0,127.0,-116.0,-89.0,127.0
126.0,96.0,126.0,125.0,125.0,128.0,128.0,129.0,-1.0,107.0,-73.0,127.0,127.0,127.0,-116.0,-89.0,127.0
126.0,96.0,126.0,125.0,126.0,128.0,128.0,129.0,-1.0,107.0,-73.0,127.0,127.0,127.0,-116.0,-89.0,127.0
126.0,96.0,127.0,125.0,126.0,127.0,127.0,129.0,-1.0,107.0,-73.0,127.0,127.0,127.0,-116.0,-89.0,127.0
126.0,96.0,127.0,125.0,125.0,128.0,127.0,129.0,-1.0,107.0,-73.0,127.0,127.0,127.0,-116.0,-89.0,127.0
126.0,96.0,127.0,125.0,125.0,128.0,128.0,129.0,-1.0,107.0,-73.0,127.0,127.0,127.0,-116.0,-89.0,127.0
126.0,96.0,127.0,125.0,126.0,128.0,128.0,129.0,-1.0,107.0,-73.0,127.0,127.0,127.0,-116.0,-89.0,127.0
126.0,96.0,127.0,125.0,126.0,128.0,128.0,129.0,-1.0,107.0,-73.0,127.0,127.0,127.0,-116.0,-89.0,127.0
126.0,96.0,127.0,125.0,125.0,128.0,128.0,129.0,-1.0,107.0,-73.0,127.0,127.0,127.0,-116.0,-89.0,127.0
126.0,96.0,127.0,125.0,126.0,128.0,128.0,129.0,-1.0,107.0,-73.0,127.0,127.0,127.0,-116.0,-89.0,127.0
126.0,97.0,126.0,125.0,125.0,128.0,128.0,129.0,-1.0,107.0,-73.0,127.0,127.0,127.0,-116.0,-89.0,127.0
126.0,97.0,126.0,125.0,125.0,128.0,128.0,129.0,-1.0,107.0,-73.0,127.0,127.0,127.0,-116.0,-89.0,127.0
126.0,96.0,127.0,125.0,126.0,127.0,128.0,129.0,-1.0,107.0,-73.0,127.0,127.0,127.0,-116.0,-89.0,127.0
126.0,96.0,127.0,125.0,126.0,127.0,128.0,129.0,-1.0,107.0,-73.0,127.0,127.0,127.0,-116.0,-89.0,127.0
126.0,96.0,127.0,125.0,126.0,128.0,128.0,129.0,-1.0,107.0,-73.0,127.0,127.0,127.0,-116.0,-89.0,127.0
126.0,96.0,127.0,125.0,126.0,127.0,128.0,129.0,-1.0,107.0,-73.0,127.0,127.0,127.0,-116.0,-89.0,127.0
126.0,96.0,126.0,125.0,126.0,127.0,128.0,129.0,-1.0,107.0,-73.0,127.0,127.0,127.0,-116.0,-89.0,127.0
126.0,96.0,126.0,125.0,126.0,127.0,128.0,129.0,-1.0,107.0,-73.0,127.0,127.0,127.0,-116.0,-89.0,127.0
126.0,96.0,126.0,125.0,126.0,127.0,128.0,129.0,-1.0,107.0,-73.0,127.0,127.0,127.0,-116.0,-89.0,127.0
126.0,96.0,126.0,125.0,126.0,128.0,128.0,129.0,-1.0,107.0,-73.0,127.0,127.0,127.0,-116.0,-89.0,127.0
127.0,96.0,127.0,125.0,125.0,126.0,127.0,129.0,-1.0,107.0,-73.0,127.0,127.0,127.0,-116.0,-89.0,127.0
127.0,96.0,127.0,125.0,126.0,127.0,127.0,129.0,-1.0,107.0,-73.0,127.0,127.0,127.0,-116.0,-89.0,127.0
127.0,96.0,127.0,125.0,126.0,127.0,127.0,129.0,-1.0,107.0,-73.0,127.0,127.0,127.0,-116.0,-89.0,127.0
127.0,95.0,127.0,125.0,125.0,127.0,127.0,129.0,-1.0,107.0,-73.0,127.0,127.0,127.0,-116.0,-89.0,127.0
127.0,96.0,127.0,125.0,125.0,127.0,127.0,129.0,-1.0,107.0,-73.0,127.0,127.0,127.0,-116.0,-89.0,127.0
127.0,95.0,127.0,125.0,125.0,126.0,127.0,129.0,-1.0,107.0,-73.0,127.0,127.0,127.0,-116.0,-89.0,127.0
127.0,96.0,127.0,125.0,125.0,126.0,127.0,129.0,-1.0,107.0,-73.0,127.0,127.0,127.0,-116.0,-89.0,127.0
127.0,96.0,127.0,125.0,125.0,126.0,127.0,129.0,-1.0,107.0,-73.0,127.0,127.0,127.0,-116.0,-89.0,127.0
127.0,95.0,127.0,125.0,125.0,126.0,127.0,129.0,-1.0,107.0,-73.0,127.0,127.0,127.0,-116.0,-89.0,127.0
127.0,95.0,127.0,125.0,125.0,126.0,127.0,129.0,-1.0,107.0,-73.0,127.0,127.0,127.0,-116.0,-89.0,127.0
127.0,95.0,127.0,125.0,124.0,128.0,127.0,129.0,-1.0,107.0,-73.0,127.0,127.0,127.0,-116.0,-89.0,127.0
127.0,95.0,127.0,125.0,124.0,127.0,127.0,129.0,-1.0,107.0,-73.0,127.0,127.0,127.0,-116.0,-89.0,127.0
127.0,95.0,127.0,125.0,124.0,127.0,127.0,128.0,-1.0,107.0,-73.0,127.0,127.0,127.0,-116.0,-89.0,127.0
127.0,95.0,127.0,125.0,124.0,127.0,127.0,128.0,-1.0,107.0,-73.0,127.0,127.0,127.0,-116.0,-89.0,127.0
127.0,95.0,127.0,125.0,124.0,127.0,127.0,128.0,-1.0,107.0,-73.0,127.0,127.0,127.0,-116.0,-89.0,127.0
127.0,95.0,127.0,125.0,123.0,128.0,127.0,128.0,-1.0,107.0,-73.0,127.0,127.0,127.0,-116.0,-89.0,127.0
127.0,96.0,127.0,125.0,123.0,128.0,127.0,128.0,-1.0,107.0,-73.0,127.0,127.0,127.0,-116.0,-89.0,127.0
127.0,96.0,126.0,125.0,123.0,128.0,127.0,128.0,-1.0,107.0,-73.0,127.0,127.0,127.0,-116.0,-89.0,127.0
127.0,96.0,126.0,125.0,123.0,128.0,127.0,128.0,-1.0,107.0,-73.0,127.0,127.0,127.0,-116.0,-89.0,127.0
127.0,96.0,126.0,125.0,123.0,128.0,127.0,128.0,-1.0,107.0,-73.0,127.0,127.0,127.0,-116.0,-89.0,127.0
127.0,97.0,127.0,126.0,126.0,127.0,127.0,127.0,-1.0,107.0,-73.0,127.0,127.0,127.0,-116.0,-89.0,127.0
127.0,97.0,127.0,125.0,126.0,127.0,127.0,127.0,-1.0,107.0,-73.0,127.0,127.0,127.0,-116.0,-89.0,127.0
127.0,97.0,127.0,125.0,127.0,127.0,127.0,127.0,-1.0,107.0,-73.0,127.0,127.0,127.0,-116.0,-89.0,127.0
127.0,97.0,127.0,125.0,126.0,127.0,127.0,127.0,-1.0,107.0,-73.0,127.0,127.0,127.0,-116.0,-89.0,127.0
127.0,97.0,127.0,126.0,126.0,128.0,127.0,127.0,-1.0,107.0,-73.0,127.0,127.0,127.0,-116.0,-89.0,127.0
127.0,97.0,127.0,125.0,126.0,128.0,127.0,127.0,-1.0,107.0,-73.0,127.0,127.0,127.0,-116.0,-89.0,127.0
127.0,98.0,127.0,125.0,127.0,128.0,127.0,127.0,-1.0,107.0,-73.0,127.0,127.0,127.0,-116.0,-89.0,127.0
127.0,98.0,127.0,125.0,127.0,128.0,127.0,127.0,-1.0,107.0,-73.0,127.0,127.0,127.0,-116.0,-89.0,127.0
127.0,98.0,127.0,125.0,127.0,128.0,127.0,127.0,-1.0,107.0,-73.0,127.0,127.0,127.0,-116.0,-89.0,127.0
127.0,97.0,127.0,126.0,126.0,128.0,127.0,127.0,-1.0,107.0,-73.0,127.0,127.0,127.0,-116.0,-89.0,127.0
127.0,98.0,127.0,126.0,128.0,127.0,127.0,129.0,-1.0,107.0,-73.0,127.0,127.0,127.0,-116.0,-89.0,127.0
127.0,98.0,126.0,126.0,128.0,127.0,127.0,129.0,-1.0,107.0,-73.0,127.0,127.0,127.0,-116.0,-89.0,127.0
127.0,98.0,126.0,126.0,128.0,127.0,127.0,129.0,-1.0,107.0,-73.0,127.0,127.0,127.0,-116.0,-89.0,127.0
127.0,98.0,126.0,126.0,127.0,128.0,127.0,129.0,-1.0,107.0,-73.0,127.0,127.0,127.0,-116.0,-89.0,127.0
127.0,98.0,126.0,126.0,128.0,128.0,127.0,129.0,-1.0,107.0,-73.0,127.0,127.0,127.0,-116.0,-89.0,127.0
127.0,98.0,126.0,126.0,128.0,128.0,127.0,129.0,-1.0,107.0,-73.0,127.0,127.0,127.0,-116.0,-89.0,127.0
127.0,98.0,126.0,126.0,128.0,128.0,127.0,129.0,-1.0,107.0,-73.0,127.0,127.0,127.0,-116.0,-89.0,127.0
127.0,98.0,126.0,126.0,128.0,127.0,127.0,129.0,-1.0,107.0,-73.0,127.0,127.0,127.0,-116.0,-89.0,127.0
127.0,98.0,127.0,126.0,127.0,128.0,127.0,129.0,-1.0,107.0,-73.0,127.0,127.0,127.0,-116.0,-89.0,127.0
127.0,98.0,127.0,126.0,127.0,127.0,127.0,129.0,-1.0,107.0,-73.0,127.0,127.0,127.0,-116.0,-89.0,127.0
128.0,96.0,127.0,125.0,126.0,128.0,128.0,131.0,-1.0,107.0,-72.0,127.0,127.0,127.0,-116.0,-89.0,127.0
128.0,96.0,127.0,125.0,126.0,128.0,127.0,131.0,-1.0,107.0,-72.0,127.0,127.0,127.0,-116.0,-89.0,127.0
127.0,96.0,126.0,125.0,125.0,128.0,127.0,131.0,-1.0,107.0,-72.0,127.0,127.0,127.0,-116.0,-89.0,127.0
128.0,96.0,126.0,125.0,125.0,128.0,128.0,131.0,-1.0,107.0,-72.0,127.0,127.0,127.0,-116.0,-89.0,127.0
128.0,96.0,126.0,125.0,125.0,128.0,128.0,131.0,-1.0,107.0,-72.0,127.0,127.0,127.0,-116.0,-89.0,127.0
128.0,96.0,126.0,125.0,125.0,128.0,128.0,131.0,-1.0,107.0,-72.0,127.0,127.0,127.0,-116.0,-89.0,127.0
128.0,96.0,126.0,125.0,125.0,128.0,128.0,131.0,-1.0,107.0,-72.0,127.0,127.0,127.0,-116.0,-89.0,127.0
127.0,96.0,127.0,125.0,127.0,128.0,127.0,131.0,-1.0,107.0,-72.0,127.0,127.0,127.0,-116.0,-89.0,127.0
128.0,96.0,127.0,125.0,126.0,128.0,127.0,131.0,-1.0,107.0,-72.0,127.0,127.0,127.0,-116.0,-89.0,127.0
128.0,96.0,127.0,125.0,126.0,128.0,128.0,131.0,-1.0,107.0,-72.0,127.0,127.0,127.0,-116.0,-89.0,127.0
128.0,93.0,127.0,125.0,126.0,127.0,127.0,132.0,-1.0,108.0,-72.0,127.0,127.0,127.0,-117.0,-89.0,127.0
128.0,93.0,126.0,125.0,126.0,128.0,127.0,132.0,-1.0,108.0,-72.0,127.0,127.0,127.0,-117.0,-89.0,127.0
127.0,93.0,126.0,125.0,126.0,128.0,127.0,132.0,-1.0,108.0,-72.0,127.0,127.0,127.0,-117.0,-89.0,127.0
127.0,93.0,126.0,125.0,126.0,128.0,127.0,132.0,-1.0,108.0,-72.0,127.0,127.0,127.0,-117.0,-89.0,127.0
127.0,93.0,126.0,125.0,126.0,128.0,127.0,132.0,-1.0,108.0,-72.0,127.0,127.0,127.0,-117.0,-89.0,127.0
127.0,93.0,126.0,125.0,126.0,128.0,127.0,132.0,-1.0,108.0,-72.0,127.0,127.0,127.0,-117.0,-89.0,127.0
128.0,94.0,127.0,125.0,126.0,128.0,127.0,132.0,-1.0,108.0,-72.0,127.0,127.0,127.0,-117.0,-89.0,127.0
