emg1,emg2,emg3,emg4,emg5,emg6,emg7,emg8,acc_x,acc_y,acc_z,gyro_x,gyro_y,gyro_z,angle_pitch,angle_roll,angle_yaw
126.0,127.0,127.0,137.0,126.0,126.0,128.0,129.0,-1.0,112.0,-70.0,127.0,127.0,127.0,-120.0,-86.0,-122.0
126.0,127.0,127.0,137.0,125.0,126.0,128.0,129.0,-1.0,112.0,-70.0,127.0,127.0,127.0,-120.0,-86.0,-122.0
126.0,127.0,127.0,137.0,125.0,126.0,128.0,129.0,-1.0,112.0,-70.0,127.0,127.0,127.0,-120.0,-86.0,-122.0
126.0,127.0,127.0,137.0,125.0,126.0,127.0,129.0,-1.0,112.0,-70.0,127.0,127.0,127.0,-120.0,-86.0,-122.0
127.0,127.0,127.0,137.0,125.0,125.0,128.0,129.0,-1.0,112.0,-70.0,127.0,127.0,127.0,-120.0,-86.0,-122.0
127.0,127.0,127.0,135.0,126.0,125.0,127.0,129.0,-1.0,112.0,-70.0,127.0,127.0,127.0,-120.0,-86.0,-122.0
127.0,127.0,127.0,136.0,126.0,126.0,127.0,129.0,-1.0,112.0,-70.0,127.0,127.0,127.0,-120.0,-86.0,-122.0
127.0,127.0,127.0,136.0,126.0,126.0,127.0,129.0,-1.0,112.0,-70.0,127.0,127.0,127.0,-120.0,-86.0,-122.0
127.0,127.0,127.0,136.0,126.0,125.0,127.0,129.0,-1.0,112.0,-70.0,127.0,127.0,127.0,-120.0,-86.0,-122.0
127.0,127.0,127.0,136.0,126.0,125.0,127.0,129.0,-1.0,112.0,-70.0,127.0,127.0,127.0,-120.0,-86.0,-122.0
127.0,127.0,127.0,135.0,126.0,125.0,127.0,129.0,-1.0,112.0,-70.0,127.0,127.0,127.0,-120.0,-86.0,-122.0
127.0,127.0,127.0,135.0,126.0,125.0,127.0,129.0,-1.0,112.0,-70.0,127.0,127.0,127.0,-120.0,-86.0,-122.0
127.0,127.0,127.0,135.0,126.0,125.0,127.0,129.0,-1.0,112.0,-70.0,127.0,127.0,127.0,-120.0,-86.0,-122.0
127.0,127.0,127.0,135.0,126.0,125.0,127.0,129.0,-1.0,112.0,-70.0,127.0,127.0,127.0,-120.0,-86.0,-122.0
127.0,127.0,127.0,135.0,126.0,125.0,127.0,129.0,-1.0,112.0,-70.0,127.0,127.0,127.0,-120.0,-86.0,-122.0
127.0,127.0,127.0,134.0,126.0,126.0,127.0,129.0,-1.0,112.0,-70.0,127.0,127.0,127.0,-120.0,-86.0,-122.0
127.0,127.0,127.0,134.0,126.0,126.0,127.0,129.0,-1.0,112.0,-70.0,127.0,127.0,127.0,-120.0,-86.0,-122.0
127.0,127.0,127.0,134.0,125.0,126.0,127.0,129.0,-1.0,112.0,-70.0,127.0,127.0,127.0,-120.0,-86.0,-122.0
127.0,128.0,127.0,134.0,125.0,126.0,127.0,129.0,-1.0,112.0,-70.0,127.0,127.0,127.0,-120.0,-86.0,-122.0
127.0,128.0,127.0,134.0,125.0,126.0,127.0,129.0,-1.0,112.0,-70.0,127.0,127.0,127.0,-120.0,-86.0,-122.0
127.0,128.0,127.0,134.0,125.0,126.0,127.0,129.0,-1.0,112.0,-70.0,127.0,127.0,127.0,-120.0,-86.0,-122.0
127.0,128.0,127.0,134.0,125.0,126.0,127.0,129.0,-1.0,112.0,-70.0,127.0,127.0,127.0,-120.0,-86.0,-122.0
127.0,127.0,127.0,134.0,125.0,126.0,127.0,129.0,-1.0,112.0,-70.0,127.0,127.0,127.0,-120.0,-86.0,-122.0
127.0,127.0,127.0,134.0,125.0,126.0,127.0,129.0,-1.0,112.0,-70.0,127.0,127.0,127.0,-120.0,-86.0,-122.0
127.0,127.0,127.0,134.0,125.0,126.0,127.0,129.0,-1.0,112.0,-70.0,127.0,127.0,127.0,-120.0,-86.0,-122.0
127.0,127.0,127.0,136.0,127.0,125.0,127.0,128.0,-1.0,112.0,-70.0,127.0,127.0,127.0,-120.0,-86.0,-122.0
127.0,127.0,127.0,136.0,126.0,125.0,127.0,128.0,-1.0,112.0,-70.0,127.0,127.0,127.0,-120.0,-86.0,-122.0
127.0,127.0,127.0,136.0,126.0,126.0,127.0,128.0,-1.0,112.0,-70.0,127.0,127.0,127.0,-120.0,-86.0,-122.0
127.0,127.0,127.0,136.0,126.0,125.0,127.0,129.0,-1.0,112.0,-70.0,127.0,127.0,127.0,-120.0,-86.0,-122.0
127.0,127.0,127.0,136.0,126.0,125.0,127.0,128.0,-1.0,112.0,-70.0,127.0,127.0,127.0,-120.0,-86.0,-122.0
127.0,127.0,127.0,136.0,126.0,125.0,127.0,128.0,-1.0,112.0,-70.0,127.0,127.0,127.0,-120.0,-86.0,-122.0
127.0,127.0,127.0,136.0,126.0,125.0,127.0,128.0,-1.0,112.0,-70.0,127.0,127.0,127.0,-120.0,-86.0,-122.0
127.0,127.0,127.0,136.0,126.0,125.0,127.0,128.0,-1.0,112.0,-70.0,127.0,127.0,127.0,-120.0,-86.0,-122.0
127.0,127.0,127.0,136.0,126.0,125.0,127.0,128.0,-1.0,112.0,-70.0,127.0,127.0,127.0,-120.0,-86.0,-122.0
127.0,127.0,127.0,136.0,126.0,125.0,127.0,128.0,-1.0,112.0,-70.0,127.0,127.0,127.0,-120.0,-86.0,-122.0
127.0,127.0,127.0,137.0,127.0,125.0,128.0,128.0,-1.0,112.0,-70.0,127.0,127.0,127.0,-120.0,-86.0,-122.0
127.0,127.0,127.0,137.0,126.0,125.0,128.0,129.0,-1.0,112.0,-70.0,127.0,127.0,127.0,-120.0,-86.0,-122.0
127.0,127.0,127.0,137.0,126.0,125.0,128.0,129.0,-1.0,112.0,-70.0,127.0,127.0,127.0,-120.0,-86.0,-122.0
127.0,127.0,127.0,137.0,126.0,125.0,128.0,129.0,-1.0,112.0,-70.0,127.0,127.0,127.0,-120.0,-86.0,-122.0
127.0,127.0,127.0,137.0,126.0,125.0,128.0,129.0,-1.0,112.0,-70.0,127.0,127.0,127.0,-120.0,-86.0,-122.0
127.0,127.0,127.0,137.0,126.0,125.0,128.0,129.0,-1.0,112.0,-70.0,127.0,127.0,127.0,-120.0,-86.0,-122.0
127.0,127.0,127.0,137.0,126.0,125.0,128.0,129.0,-1.0,112.0,-70.0,127.0,127.0,127.0,-120.0,-86.0,-122.0
127.0,127.0,127.0,137.0,126.0,125.0,128.0,129.0,-1.0,112.0,-70.0,127.0,127.0,127.0,-120.0,-86.0,-122.0
127.0,127.0,127.0,137.0,127.0,125.0,128.0,129.0,-1.0,112.0,-70.0,127.0,127.0,127.0,-120.0,-86.0,-122.0
127.0,127.0,127.0,137.0,127.0,125.0,128.0,128.0,-1.0,112.0,-70.0,127.0,127.0,127.0,-120.0,-86.0,-122.0
127.0,127.0,127.0,138.0,126.0,125.0,126.0,129.0,-1.0,112.0,-70.0,127.0,127.0,127.0,-120.0,-86.0,-122.0
127.0,127.0,128.0,138.0,126.0,126.0,126.0,129.0,-1.0,112.0,-70.0,127.0,127.0,127.0,-120.0,-86.0,-122.0
127.0,127.0,128.0,138.0,126.0,125.0,126.0,129.0,-1.0,112.0,-70.0,127.0,127.0,127.0,-120.0,-86.0,-122.0
127.0,127.0,128.0,138.0,126.0,125.0,126.0,129.0,-1.0,112.0,-70.0,127.0,127.0,127.0,-120.0,-86.0,-122.0
127.0,127.0,128.0,138.0,126.0,125.0,126.0,129.0,-1.0,112.0,-70.0,127.0,127.0,127.0,-120.0,-86.0,-122.0
127.0,127.0,128.0,138.0,126.0,125.0,126.0,129.0,-1.0,112.0,-70.0,127.0,127.0,127.0,-120.0,-86.0,-122.0
127.0,127.0,127.0,138.0,126.0,125.0,126.0,129.0,-1.0,112.0,-70.0,127.0,127.0,127.0,-120.0,-86.0,-122.0
127.0,127.0,127.0,138.0,126.0,125.0,127.0,129.0,-1.0,112.0,-70.0,127.0,127.0,127.0,-120.0,-86.0,-122.0
127.0,127.0,127.0,138.0,126.0,125.0,127.0,129.0,-1.0,112.0,-70.0,127.0,127.0,127.0,-120.0,-86.0,-122.0
127.0,127.0,127.0,138.0,126.0,125.0,127.0,129.0,-1.0,112.0,-70.0,127.0,127.0,127.0,-120.0,-86.0,-122.0
127.0,127.0,126.0,138.0,125.0,125.0,126.0,128.0,-1.0,112.0,-70.0,127.0,127.0,127.0,-120.0,-86.0,-122.0
127.0,127.0,126.0,138.0,125.0,125.0,127.0,128.0,-1.0,112.0,-70.0,127.0,127.0,127.0,-120.0,-86.0,-122.0
127.0,127.0,126.0,138.0,125.0,125.0,127.0,128.0,-1.0,112.0,-70.0,127.0,127.0,127.0,-120.0,-86.0,-122.0
127.0,127.0,126.0,138.0,125.0,125.0,127.0,128.0,-1.0,112.0,-70.0,127.0,127.0,127.0,-120.0,-86.0,-122.0
127.0,127.0,126.0,138.0,125.0,125.0,127.0,128.0,-1.0,112.0,-70.0,127.0,127.0,127.0,-120.0,-86.0,-122.0
127.0,127.0,126.0,138.0,125.0,125.0,127.0,128.0,-1.0,112.0,-70.0,127.0,127.0,127.0,-120.0,-86.0,-122.0
127.0,127.0,126.0,138.0,126.0,125.0,126.0,128.0,-1.0,112.0,-70.0,127.0,127.0,127.0,-120.0,-86.0,-122.0
126.0,127.0,126.0,138.0,126.0,125.0,126.0,128.0,-1.0,112.0,-70.0,127.0,127.0,127.0,-120.0,-86.0,-122.0
127.0,127.0,126.0,138.0,126.0,125.0,126.0,128.0,-1.0,112.0,-70.0,127.0,127.0,127.0,-120.0,-86.0,-122.0
127.0,127.0,126.0,138.0,126.0,125.0,126.0,128.0,-1.0,112.0,-70.0,127.0,127.0,127.0,-120.0,-86.0,-122.0
127.0,127.0,127.0,138.0,126.0,125.0,128.0,128.0,-1.0,112.0,-70.0,127.0,127.0,127.0,-120.0,-86.0,-122.0
127.0,127.0,127.0,138.0,125.0,125.0,128.0,128.0,-1.0,112.0,-70.0,127.0,127.0,127.0,-120.0,-86.0,-122.0
127.0,127.0,127.0,138.0,125.0,125.0,128.0,128.0,-1.0,112.0,-70.0,127.0,127.0,127.0,-120.0,-86.0,-122.0
127.0,127.0,127.0,139.0,125.0,125.0,128.0,128.0,-1.0,112.0,-70.0,127.0,127.0,127.0,-120.0,-86.0,-122.0
127.0,127.0,128.0,139.0,125.0,125.0,128.0,128.0,-1.0,112.0,-70.0,127.0,127.0,127.0,-120.0,-86.0,-122.0
127.0,127.0,127.0,138.0,126.0,125.0,128.0,128.0,-1.0,112.0,-70.0,127.0,127.0,127.0,-120.0,-86.0,-122.0
127.0,127.0,127.0,138.0,126.0,125.0,128.0,128.0,-1.0,112.0,-70.0,127.0,127.0,127.0,-120.0,-86.0,-122.0
127.0,127.0,127.0,138.0,126.0,125.0,128.0,128.0,-1.0,112.0,-70.0,127.0,127.0,127.0,-120.0,-86.0,-122.0
127.0,127.0,127.0,138.0,126.0,125.0,128.0,128.0,-1.0,112.0,-70.0,127.0,127.0,127.0,-120.0,-86.0,-122.0
127.0,127.0,127.0,138.0,126.0,125.0,128.0,128.0,-1.0,112.0,-70.0,127.0,127.0,127.0,-120.0,-86.0,-122.0
127.0,126.0,127.0,138.0,126.0,125.0,127.0,129.0,-1.0,112.0,-70.0,127.0,127.0,127.0,-120.0,-86.0,-122.0
127.0,127.0,127.0,138.0,126.0,125.0,127.0,129.0,-1.0,112.0,-70.0,127.0,127.0,127.0,-120.0,-86.0,-122.0
127.0,127.0,127.0,138.0,126.0,125.0,127.0,129.0,-1.0,112.0,-70.0,127.0,127.0,127.0,-120.0,-86.0,-122.0
127.0,127.0,127.0,138.0,126.0,125.0,127.0,129.0,-1.0,112.0,-70.0,127.0,127.0,127.0,-120.0,-86.0,-122.0
127.0,126.0,127.0,138.0,127.0,125.0,127.0,129.0,-1.0,112.0,-70.0,127.0,127.0,127.0,-120.0,-86.0,-122.0
127.0,126.0,127.0,138.0,126.0,125.0,127.0,129.0,-1.0,112.0,-70.0,127.0,127.0,127.0,-120.0,-86.0,-122.0
127.0,127.0,127.0,138.0,126.0,125.0,127.0,129.0,-1.0,112.0,-70.0,127.0,127.0,127.0,-120.0,-86.0,-122.0
127.0,127.0,127.0,138.0,126.0,125.0,127.0,129.0,-1.0,112.0,-70.0,127.0,127.0,127.0,-120.0,-86.0,-122.0
127.0,126.0,127.0,138.0,126.0,125.0,127.0,129.0,-1.0,112.0,-70.0,127.0,127.0,127.0,-120.0,-86.0,-122.0
127.0,127.0,127.0,138.0,126.0,125.0,127.0,129.0,-1.0,112.0,-70.0,127.0,127.0,127.0,-120.0,-86.0,-122.0
127.0,127.0,127.0,139.0,126.0,126.0,127.0,128.0,-1.0,112.0,-70.0,127.0,127.0,127.0,-120.0,-86.0,-122.0
127.0,127.0,127.0,139.0,126.0,126.0,127.0,128.0,-1.0,112.0,-70.0,127.0,127.0,127.0,-120.0,-86.0,-122.0
127.0,127.0,127.0,139.0,126.0,126.0,127.0,128.0,-1.0,112.0,-70.0,127.0,127.0,127.0,-120.0,-86.0,-122.0
127.0,126.0,127.0,139.0,127.0,125.0,126.0,128.0,-1.0,112.0,-70.0,127.0,127.0,127.0,-120.0,-86.0,-122.0
127.0,127.0,127.0,139.0,126.0,126.0,127.0,128.0,-1.0,112.0,-70.0,127.0,127.0,127.0,-120.0,-86.0,-122.0
127.0,127.0,127.0,139.0,126.0,126.0,127.0,128.0,-1.0,112.0,-70.0,127.0,127.0,127.0,-120.0,-86.0,-122.0
127.0,127.0,127.0,139.0,126.0,126.0,127.0,128.0,-1.0,112.0,-70.0,127.0,127.0,127.0,-120.0,-86.0,-122.0
127.0,127.0,127.0,139.0,126.0,126.0,127.0,128.0,-1.0,112.0,-70.0,127.0,127.0,127.0,-120.0,-86.0,-122.0
127.0,127.0,127.0,139.0,126.0,126.0,127.0,128.0,-1.0,112.0,-70.0,127.0,127.0,127.0,-120.0,-86.0,-122.0
127.0,127.0,127.0,139.0,126.0,125.0,127.0,128.0,-1.0,112.0,-70.0,127.0,127.0,127.0,-120.0,-86.0,-122.0
127.0,127.0,127.0,138.0,127.0,124.0,128.0,128.0,-1.0,112.0,-70.0,127.0,127.0,127.0,-120.0,-86.0,-122.0
127.0,127.0,127.0,138.0,126.0,124.0,128.0,128.0,-1.0,112.0,-70.0,127.0,127.0,127.0,-120.0,-86.0,-122.0
127.0,127.0,127.0,138.0,127.0,125.0,128.0,128.0,-1.0,112.0,-70.0,127.0,127.0,127.0,-120.0,-86.0,-122.0
127.0,126.0,127.0,138.0,127.0,124.0,128.0,128.0,-1.0,112.0,-70.0,127.0,127.0,127.0,-120.0,-86.0,-122.0
127.0,127.0,127.0,138.0,127.0,124.0,128.0,128.0,-1.0,112.0,-70.0,127.0,127.0,127.0,-120.0,-86.0,-122.0
127.0,127.0,127.0,138.0,127.0,124.0,128.0,128.0,-1.0,112.0,-70.0,127.0,127.0,127.0,-120.0,-86.0,-122.0
127.0,127.0,127.0,138.0,127.0,124.0,128.0,128.0,-1.0,112.0,-70.0,127.0,127.0,127.0,-120.0,-86.0,-122.0
127.0,127.0,127.0,138.0,127.0,124.0,128.0,128.0,-1.0,112.0,-70.0,127.0,127.0,127.0,-120.0,-86.0,-122.0
127.0,127.0,127.0,138.0,127.0,124.0,128.0,128.0,-1.0,112.0,-70.0,127.0,127.0,127.0,-120.0,-86.0,-122.0
127.0,127.0,127.0,138.0,127.0,124.0,128.0,128.0,-1.0,112.0,-70.0,127.0,127.0,127.0,-120.0,-86.0,-122.0
127.0,128.0,126.0,137.0,126.0,125.0,127.0,128.0,-1.0,112.0,-71.0,127.0,127.0,127.0,-120.0,-86.0,-122.0
126.0,127.0,126.0,137.0,127.0,125.0,127.0,128.0,-1.0,112.0,-71.0,127.0,127.0,127.0,-120.0,-86.0,-122.0
126.0,127.0,126.0,137.0,127.0,125.0,127.0,128.0,-1.0,112.0,-71.0,127.0,127.0,127.0,-120.0,-86.0,-122.0
127.0,127.0,126.0,137.0,126.0,125.0,128.0,128.0,-1.0,112.0,-71.0,127.0,127.0,127.0,-120.0,-86.0,-122.0
126.0,127.0,126.0,137.0,126.0,125.0,128.0,128.0,-1.0,112.0,-71.0,127.0,127.0,127.0,-120.0,-86.0,-122.0
126.0,127.0,126.0,137.0,126.0,125.0,127.0,128.0,-1.0,112.0,-71.0,127.0,127.0,127.0,-120.0,-86.0,-122.0
126.0,127.0,126.0,137.0,126.0,125.0,127.0,128.0,-1.0,112.0,-71.0,127.0,127.0,127.0,-120.0,-86.0,-122.0
126.0,127.0,126.0,137.0,126.0,125.0,127.0,128.0,-1.0,112.0,-71.0,127.0,127.0,127.0,-120.0,-86.0,-122.0
126.0,127.0,126.0,137.0,126.0,125.0,127.0,128.0,-1.0,112.0,-71.0,127.0,127.0,127.0,-120.0,-86.0,-122.0
126.0,127.0,126.0,137.0,126.0,125.0,127.0,128.0,-1.0,112.0,-71.0,127.0,127.0,127.0,-120.0,-86.0,-122.0
126.0,127.0,127.0,138.0,127.0,125.0,126.0,128.0,-1.0,112.0,-71.0,127.0,127.0,127.0,-120.0,-86.0,-122.0
126.0,127.0,127.0,138.0,127.0,125.0,126.0,128.0,-1.0,112.0,-71.0,127.0,127.0,127.0,-120.0,-86.0,-122.0
127.0,127.0,127.0,138.0,126.0,125.0,126.0,129.0,-1.0,112.0,-71.0,127.0,127.0,127.0,-120.0,-86.0,-122.0
127.0,127.0,127.0,138.0,126.0,125.0,127.0,129.0,-1.0,112.0,-71.0,127.0,127.0,127.0,-120.0,-86.0,-122.0
127.0,127.0,127.0,138.0,126.0,125.0,126.0,129.0,-1.0,112.0,-71.0,127.0,127.0,127.0,-120.0,-86.0,-122.0
127.0,127.0,127.0,138.0,126.0,125.0,126.0,128.0,-1.0,112.0,-71.0,127.0,127.0,127.0,-120.0,-86.0,-122.0
127.0,127.0,127.0,138.0,126.0,125.0,127.0,128.0,-1.0,112.0,-71.0,127.0,127.0,127.0,-120.0,-86.0,-122.0
127.0,127.0,127.0,138.0,126.0,125.0,127.0,128.0,-1.0,112.0,-71.0,127.0,127.0,127.0,-120.0,-86.0,-122.0
127.0,127.0,127.0,138.0,126.0,125.0,127.0,129.0,-1.0,112.0,-71.0,127.0,127.0,127.0,-120.0,-86.0,-122.0
127.0,127.0,127.0,139.0,126.0,125.0,127.0,129.0,-1.0,112.0,-71.0,127.0,127.0,127.0,-120.0,-86.0,-122.0
127.0,127.0,127.0,139.0,126.0,125.0,126.0,128.0,-1.0,112.0,-71.0,127.0,127.0,127.0,-120.0,-86.0,-122.0
127.0,127.0,127.0,139.0,126.0,126.0,126.0,128.0,-1.0,112.0,-71.0,127.0,127.0,127.0,-120.0,-86.0,-122.0
127.0,127.0,127.0,139.0,126.0,126.0,126.0,128.0,-1.0,112.0,-71.0,127.0,127.0,127.0,-120.0,-86.0,-122.0
127.0,127.0,127.0,139.0,126.0,126.0,126.0,128.0,-1.0,112.0,-71.0,127.0,127.0,127.0,-120.0,-86.0,-122.0
127.0,127.0,127.0,139.0,126.0,125.0,126.0,128.0,-1.0,112.0,-71.0,127.0,127.0,127.0,-120.0,-86.0,-122.0
126.0,127.0,127.0,139.0,126.0,125.0,126.0,128.0,-1.0,112.0,-71.0,127.0,127.0,127.0,-120.0,-86.0,-122.0
126.0,127.0,127.0,139.0,126.0,125.0,126.0,128.0,-1.0,112.0,-71.0,127.0,127.0,127.0,-120.0,-86.0,-122.0
126.0,127.0,127.0,139.0,126.0,126.0,126.0,128.0,-1.0,112.0,-71.0,127.0,127.0,127.0,-120.0,-86.0,-122.0
126.0,127.0,127.0,139.0,126.0,126.0,126.0,128.0,-1.0,112.0,-71.0,127.0,127.0,127.0,-120.0,-86.0,-122.0
127.0,127.0,127.0,139.0,127.0,125.0,126.0,128.0,-1.0,112.0,-71.0,127.0,127.0,127.0,-120.0,-86.0,-122.0
127.0,127.0,127.0,139.0,126.0,126.0,127.0,128.0,-1.0,112.0,-71.0,127.0,127.0,127.0,-120.0,-86.0,-122.0
127.0,127.0,127.0,139.0,126.0,126.0,127.0,128.0,-1.0,112.0,-71.0,127.0,127.0,127.0,-120.0,-86.0,-122.0
127.0,127.0,127.0,139.0,126.0,126.0,127.0,128.0,-1.0,112.0,-71.0,127.0,127.0,127.0,-120.0,-86.0,-122.0
127.0,127.0,127.0,139.0,126.0,126.0,127.0,128.0,-1.0,112.0,-71.0,127.0,127.0,127.0,-120.0,-86.0,-122.0
127.0,127.0,127.0,139.0,126.0,125.0,127.0,128.0,-1.0,112.0,-71.0,127.0,127.0,127.0,-120.0,-86.0,-122.0
127.0,127.0,127.0,139.0,126.0,125.0,127.0,128.0,-1.0,112.0,-71.0,127.0,127.0,127.0,-120.0,-86.0,-122.0
127.0,127.0,127.0,139.0,126.0,126.0,127.0,128.0,-1.0,112.0,-71.0,127.0,127.0,127.0,-120.0,-86.0,-122.0
127.0,127.0,127.0,139.0,126.0,126.0,127.0,128.0,-1.0,112.0,-71.0,127.0,127.0,127.0,-120.0,-86.0,-122.0
127.0,127.0,127.0,139.0,126.0,125.0,127.0,128.0,-1.0,112.0,-71.0,127.0,127.0,127.0,-120.0,-86.0,-122.0
127.0,127.0,127.0,139.0,126.0,125.0,127.0,128.0,-1.0,112.0,-71.0,127.0,127.0,127.0,-120.0,-86.0,-122.0
127.0,127.0,127.0,139.0,126.0,126.0,128.0,129.0,-1.0,112.0,-71.0,127.0,127.0,127.0,-120.0,-86.0,-122.0
127.0,127.0,127.0,139.0,126.0,126.0,128.0,129.0,-1.0,112.0,-71.0,127.0,127.0,127.0,-120.0,-86.0,-122.0
127.0,127.0,127.0,139.0,126.0,126.0,128.0,129.0,-1.0,112.0,-71.0,127.0,127.0,127.0,-120.0,-86.0,-122.0
127.0,127.0,127.0,139.0,126.0,126.0,127.0,129.0,-1.0,112.0,-71.0,127.0,127.0,127.0,-120.0,-86.0,-122.0
127.0,127.0,127.0,139.0,126.0,126.0,127.0,129.0,-1.0,112.0,-71.0,127.0,127.0,127.0,-120.0,-86.0,-122.0
127.0,127.0,127.0,139.0,126.0,126.0,127.0,129.0,-1.0,112.0,-71.0,127.0,127.0,127.0,-120.0,-86.0,-122.0
127.0,127.0,127.0,139.0,126.0,126.0,128.0,129.0,-1.0,112.0,-71.0,127.0,127.0,127.0,-120.0,-86.0,-122.0
127.0,127.0,127.0,139.0,127.0,126.0,127.0,128.0,-1.0,112.0,-71.0,127.0,127.0,127.0,-120.0,-86.0,-122.0
127.0,127.0,127.0,139.0,127.0,126.0,127.0,128.0,-1.0,112.0,-71.0,127.0,127.0,127.0,-120.0,-86.0,-122.0
127.0,127.0,127.0,139.0,126.0,126.0,128.0,129.0,-1.0,112.0,-71.0,127.0,127.0,127.0,-120.0,-86.0,-122.0
127.0,127.0,127.0,139.0,127.0,126.0,127.0,129.0,-1.0,112.0,-71.0,127.0,127.0,127.0,-120.0,-86.0,-122.0
127.0,127.0,127.0,139.0,127.0,126.0,127.0,129.0,-1.0,112.0,-71.0,127.0,127.0,127.0,-120.0,-86.0,-122.0
127.0,127.0,127.0,139.0,127.0,126.0,127.0,129.0,-1.0,112.0,-71.0,127.0,127.0,127.0,-120.0,-86.0,-122.0
127.0,127.0,127.0,139.0,127.0,126.0,127.0,129.0,-1.0,112.0,-71.0,127.0,127.0,127.0,-120.0,-86.0,-122.0
127.0,127.0,127.0,139.0,126.0,126.0,127.0,129.0,-1.0,112.0,-71.0,127.0,127.0,127.0,-120.0,-86.0,-122.0
127.0,127.0,127.0,139.0,126.0,125.0,127.0,129.0,-1.0,112.0,-71.0,127.0,127.0,127.0,-120.0,-86.0,-122.0
127.0,127.0,127.0,139.0,127.0,126.0,127.0,129.0,-1.0,112.0,-71.0,127.0,127.0,127.0,-120.0,-86.0,-122.0
127.0,127.0,127.0,139.0,127.0,126.0,127.0,129.0,-1.0,112.0,-71.0,127.0,127.0,127.0,-120.0,-86.0,-122.0
127.0,127.0,127.0,139.0,127.0,126.0,127.0,129.0,-1.0,112.0,-71.0,127.0,127.0,127.0,-120.0,-86.0,-122.0
127.0,127.0,127.0,139.0,127.0,126.0,127.0,129.0,-1.0,112.0,-71.0,127.0,127.0,127.0,-120.0,-86.0,-122.0
127.0,127.0,126.0,139.0,126.0,126.0,127.0,129.0,-1.0,112.0,-71.0,127.0,127.0,127.0,-120.0,-86.0,-122.0
127.0,127.0,126.0,139.0,126.0,125.0,127.0,129.0,-1.0,112.0,-71.0,127.0,127.0,127.0,-120.0,-86.0,-122.0
127.0,127.0,126.0,139.0,126.0,125.0,127.0,129.0,-1.0,112.0,-71.0,127.0,127.0,127.0,-120.0,-86.0,-122.0
127.0,127.0,126.0,139.0,126.0,125.0,127.0,128.0,-1.0,112.0,-71.0,127.0,127.0,127.0,-120.0,-86.0,-122.0
126.0,127.0,126.0,139.0,126.0,125.0,127.0,128.0,-1.0,112.0,-71.0,127.0,127.0,127.0,-120.0,-86.0,-122.0
126.0,127.0,126.0,139.0,127.0,126.0,127.0,129.0,-1.0,112.0,-71.0,127.0,127.0,127.0,-120.0,-86.0,-122.0
127.0,127.0,126.0,139.0,126.0,126.0,127.0,129.0,-1.0,112.0,-71.0,127.0,127.0,127.0,-120.0,-86.0,-122.0
126.0,127.0,126.0,139.0,126.0,126.0,127.0,129.0,-1.0,112.0,-71.0,127.0,127.0,127.0,-120.0,-86.0,-122.0
126.0,127.0,126.0,138.0,126.0,126.0,127.0,129.0,-1.0,112.0,-71.0,127.0,127.0,127.0,-120.0,-86.0,-122.0
127.0,127.0,126.0,139.0,126.0,126.0,127.0,129.0,-1.0,112.0,-71.0,127.0,127.0,127.0,-120.0,-86.0,-122.0
126.0,127.0,127.0,138.0,126.0,125.0,127.0,128.0,-1.0,112.0,-71.0,127.0,127.0,127.0,-120.0,-86.0,-122.0
126.0,127.0,127.0,138.0,126.0,125.0,127.0,128.0,-1.0,112.0,-71.0,127.0,127.0,127.0,-120.0,-86.0,-122.0
126.0,127.0,127.0,138.0,126.0,125.0,127.0,128.0,-1.0,112.0,-71.0,127.0,127.0,127.0,-120.0,-86.0,-122.0
126.0,127.0,127.0,138.0,126.0,125.0,127.0,128.0,-1.0,112.0,-71.0,127.0,127.0,127.0,-120.0,-86.0,-122.0
127.0,127.0,127.0,138.0,127.0,125.0,127.0,128.0,-1.0,112.0,-71.0,127.0,127.0,127.0,-120.0,-86.0,-122.0
127.0,127.0,127.0,138.0,127.0,125.0,127.0,128.0,-1.0,112.0,-71.0,127.0,127.0,127.0,-120.0,-86.0,-122.0
127.0,127.0,127.0,138.0,126.0,125.0,127.0,128.0,-1.0,112.0,-71.0,127.0,127.0,127.0,-120.0,-86.0,-122.0
127.0,127.0,127.0,138.0,126.0,126.0,127.0,128.0,-1.0,112.0,-71.0,127.0,127.0,127.0,-120.0,-86.0,-122.0
127.0,127.0,127.0,138.0,126.0,125.0,127.0,128.0,-1.0,112.0,-71.0,127.0,127.0,127.0,-120.0,-86.0,-122.0
127.0,127.0,127.0,138.0,126.0,125.0,127.0,128.0,-1.0,112.0,-71.0,127.0,127.0,127.0,-120.0,-86.0,-122.0
127.0,127.0,127.0,139.0,126.0,125.0,127.0,128.0,-1.0,112.0,-70.0,127.0,127.0,127.0,-120.0,-86.0,-122.0
127.0,127.0,127.0,139.0,126.0,125.0,127.0,128.0,-1.0,112.0,-70.0,127.0,127.0,127.0,-120.0,-86.0,-122.0
127.0,127.0,127.0,139.0,126.0,126.0,127.0,128.0,-1.0,112.0,-70.0,127.0,127.0,127.0,-120.0,-86.0,-122.0
126.0,126.0,127.0,139.0,127.0,125.0,127.0,128.0,-1.0,112.0,-70.0,127.0,127.0,127.0,-120.0,-86.0,-122.0
126.0,127.0,127.0,139.0,127.0,125.0,127.0,128.0,-1.0,112.0,-70.0,127.0,127.0,127.0,-120.0,-86.0,-122.0
126.0,127.0,127.0,139.0,127.0,125.0,127.0,128.0,-1.0,112.0,-70.0,127.0,127.0,127.0,-120.0,-86.0,-122.0
126.0,127.0,127.0,139.0,126.0,126.0,127.0,129.0,-1.0,112.0,-70.0,127.0,127.0,127.0,-120.0,-86.0,-122.0
127.0,127.0,127.0,139.0,126.0,126.0,127.0,129.0,-1.0,112.0,-70.0,127.0,127.0,127.0,-120.0,-86.0,-122.0
127.0,127.0,127.0,139.0,126.0,126.0,127.0,128.0,-1.0,112.0,-70.0,127.0,127.0,127.0,-120.0,-86.0,-122.0
127.0,127.0,127.0,139.0,126.0,126.0,127.0,128.0,-1.0,112.0,-70.0,127.0,127.0,127.0,-120.0,-86.0,-122.0
127.0,127.0,127.0,139.0,126.0,125.0,127.0,129.0,-1.0,112.0,-70.0,127.0,127.0,127.0,-120.0,-86.0,-122.0
127.0,127.0,127.0,139.0,126.0,125.0,127.0,129.0,-1.0,112.0,-70.0,127.0,127.0,127.0,-120.0,-86.0,-122.0
127.0,127.0,127.0,139.0,127.0,125.0,127.0,129.0,-1.0,112.0,-70.0,127.0,127.0,127.0,-120.0,-86.0,-122.0
127.0,127.0,127.0,139.0,127.0,125.0,127.0,129.0,-1.0,112.0,-70.0,127.0,127.0,127.0,-120.0,-86.0,-122.0
127.0,127.0,127.0,139.0,127.0,125.0,127.0,129.0,-1.0,112.0,-70.0,127.0,127.0,127.0,-120.0,-86.0,-122.0
127.0,127.0,127.0,139.0,127.0,125.0,127.0,129.0,-1.0,112.0,-70.0,127.0,127.0,127.0,-120.0,-86.0,-122.0
127.0,127.0,127.0,139.0,126.0,125.0,127.0,129.0,-1.0,112.0,-70.0,127.0,127.0,127.0,-120.0,-86.0,-122.0
127.0,127.0,128.0,139.0,126.0,125.0,127.0,129.0,-1.0,112.0,-70.0,127.0,127.0,127.0,-120.0,-86.0,-122.0
127.0,127.0,128.0,139.0,126.0,125.0,127.0,129.0,-1.0,112.0,-70.0,127.0,127.0,127.0,-120.0,-86.0,-122.0
127.0,127.0,128.0,139.0,126.0,125.0,127.0,129.0,-1.0,112.0,-70.0,127.0,127.0,127.0,-120.0,-86.0,-122.0
127.0,127.0,127.0,139.0,126.0,125.0,127.0,129.0,-1.0,112.0,-70.0,127.0,127.0,127.0,-120.0,-86.0,-122.0
127.0,127.0,127.0,138.0,126.0,126.0,127.0,129.0,-1.0,112.0,-70.0,127.0,127.0,127.0,-120.0,-86.0,-122.0
127.0,127.0,127.0,138.0,126.0,126.0,127.0,129.0,-1.0,112.0,-70.0,127.0,127.0,127.0,-120.0,-86.0,-122.0
127.0,127.0,127.0,138.0,126.0,126.0,127.0,129.0,-1.0,112.0,-70.0,127.0,127.0,127.0,-120.0,-86.0,-122.0
127.0,127.0,127.0,138.0,126.0,126.0,127.0,129.0,-1.0,112.0,-70.0,127.0,127.0,127.0,-120.0,-86.0,-122.0
126.0,127.0,127.0,138.0,126.0,126.0,127.0,129.0,-1.0,112.0,-70.0,127.0,127.0,127.0,-120.0,-86.0,-122.0
126.0,127.0,127.0,138.0,126.0,125.0,127.0,129.0,-1.0,112.0,-70.0,127.0,127.0,127.0,-120.0,-86.0,-122.0
127.0,127.0,127.0,138.0,126.0,125.0,127.0,129.0,-1.0,112.0,-70.0,127.0,127.0,127.0,-120.0,-86.0,-122.0
127.0,127.0,127.0,138.0,126.0,125.0,127.0,129.0,-1.0,112.0,-70.0,127.0,127.0,127.0,-120.0,-86.0,-122.0
127.0,127.0,127.0,138.0,126.0,125.0,127.0,129.0,-1.0,112.0,-70.0,127.0,127.0,127.0,-120.0,-86.0,-122.0
127.0,127.0,127.0,137.0,126.0,127.0,127.0,129.0,-1.0,112.0,-70.0,127.0,127.0,127.0,-120.0,-86.0,-122.0
127.0,127.0,127.0,137.0,126.0,127.0,127.0,129.0,-1.0,112.0,-70.0,127.0,127.0,127.0,-120.0,-86.0,-122.0
127.0,127.0,127.0,137.0,126.0,127.0,127.0,129.0,-1.0,112.0,-70.0,127.0,127.0,127.0,-120.0,-86.0,-122.0
127.0,127.0,127.0,137.0,126.0,127.0,127.0,129.0,-1.0,112.0,-70.0,127.0,127.0,127.0,-120.0,-86.0,-122.0
127.0,127.0,127.0,137.0,126.0,127.0,127.0,129.0,-1.0,112.0,-70.0,127.0,127.0,127.0,-120.0,-86.0,-122.0
127.0,127.0,127.0,137.0,126.0,127.0,127.0,129.0,-1.0,112.0,-70.0,127.0,127.0,127.0,-120.0,-86.0,-122.0
127.0,127.0,127.0,137.0,126.0,126.0,127.0,129.0,-1.0,112.0,-70.0,127.0,127.0,127.0,-120.0,-86.0,-122.0
127.0,127.0,127.0,137.0,126.0,126.0,127.0,129.0,-1.0,112.0,-70.0,127.0,127.0,127.0,-120.0,-86.0,-122.0
127.0,127.0,127.0,137.0,126.0,126.0,127.0,129.0,-1.0,112.0,-70.0,127.0,127.0,127.0,-120.0,-86.0,-122.0
127.0,127.0,127.0,137.0,126.0,126.0,127.0,129.0,-1.0,112.0,-70.0,127.0,127.0,127.0,-120.0,-86.0,-122.0
127.0,127.0,127.0,136.0,126.0,126.0,127.0,129.0,-1.0,112.0,-70.0,127.0,127.0,127.0,-120.0,-86.0,-122.0
127.0,127.0,127.0,136.0,126.0,126.0,127.0,129.0,-1.0,112.0,-70.0,127.0,127.0,127.0,-120.0,-86.0,-122.0
127.0,127.0,127.0,136.0,126.0,126.0,127.0,129.0,-1.0,112.0,-70.0,127.0,127.0,127.0,-120.0,-86.0,-122.0
127.0,127.0,127.0,136.0,125.0,127.0,127.0,129.0,-1.0,112.0,-70.0,127.0,127.0,127.0,-120.0,-86.0,-122.0
127.0,127.0,127.0,136.0,125.0,126.0,127.0,129.0,-1.0,112.0,-70.0,127.0,127.0,127.0,-120.0,-86.0,-122.0
127.0,127.0,127.0,136.0,125.0,126.0,127.0,129.0,-1.0,112.0,-70.0,127.0,127.0,127.0,-120.0,-86.0,-122.0
127.0,127.0,127.0,136.0,125.0,126.0,127.0,129.0,-1.0,112.0,-70.0,127.0,127.0,127.0,-120.0,-86.0,-122.0
127.0,127.0,127.0,136.0,125.0,126.0,127.0,129.0,-1.0,112.0,-70.0,127.0,127.0,127.0,-120.0,-86.0,-122.0
127.0,127.0,127.0,136.0,125.0,126.0,127.0,129.0,-1.0,112.0,-70.0,127.0,127.0,127.0,-120.0,-86.0,-122.0
127.0,126.0,127.0,136.0,126.0,126.0,127.0,129.0,-1.0,112.0,-70.0,127.0,127.0,127.0,-120.0,-86.0,-122.0
126.0,127.0,127.0,136.0,126.0,126.0,127.0,129.0,-1.0,112.0,-70.0,127.0,127.0,127.0,-120.0,-86.0,-122.0
126.0,127.0,127.0,136.0,126.0,125.0,127.0,129.0,-1.0,112.0,-70.0,127.0,127.0,127.0,-120.0,-86.0,-122.0
126.0,127.0,127.0,136.0,126.0,126.0,127.0,129.0,-1.0,112.0,-70.0,127.0,127.0,127.0,-120.0,-86.0,-122.0
126.0,127.0,127.0,136.0,126.0,126.0,127.0,129.0,-1.0,112.0,-70.0,127.0,127.0,127.0,-120.0,-86.0,-122.0
127.0,127.0,127.0,136.0,126.0,126.0,127.0,129.0,-1.0,112.0,-70.0,127.0,127.0,127.0,-120.0,-86.0,-122.0
127.0,127.0,127.0,136.0,126.0,126.0,127.0,129.0,-1.0,112.0,-70.0,127.0,127.0,127.0,-120.0,-86.0,-122.0
127.0,127.0,127.0,136.0,126.0,126.0,127.0,129.0,-1.0,112.0,-70.0,127.0,127.0,127.0,-120.0,-86.0,-122.0
127.0,127.0,127.0,136.0,126.0,125.0,127.0,129.0,-1.0,112.0,-70.0,127.0,127.0,127.0,-120.0,-86.0,-122.0
127.0,127.0,127.0,136.0,126.0,126.0,127.0,129.0,-1.0,112.0,-70.0,127.0,127.0,127.0,-120.0,-86.0,-122.0
126.0,127.0,127.0,136.0,126.0,126.0,127.0,129.0,-1.0,112.0,-70.0,127.0,127.0,127.0,-120.0,-86.0,-122.0
127.0,127.0,127.0,135.0,127.0,126.0,128.0,129.0,-1.0,112.0,-70.0,127.0,127.0,127.0,-120.0,-86.0,-122.0
127.0,127.0,127.0,135.0,127.0,126.0,128.0,129.0,-1.0,112.0,-70.0,127.0,127.0,127.0,-120.0,-86.0,-122.0
127.0,127.0,127.0,135.0,126.0,126.0,128.0,129.0,-1.0,112.0,-70.0,127.0,127.0,127.0,-120.0,-86.0,-122.0
127.0,127.0,127.0,135.0,126.0,126.0,128.0,129.0,-1.0,112.0,-70.0,127.0,127.0,127.0,-120.0,-86.0,-122.0
127.0,127.0,127.0,135.0,126.0,126.0,128.0,129.0,-1.0,112.0,-70.0,127.0,127.0,127.0,-120.0,-86.0,-122.0
127.0,127.0,127.0,135.0,126.0,126.0,128.0,129.0,-1.0,112.0,-70.0,127.0,127.0,127.0,-120.0,-86.0,-122.0
127.0,127.0,127.0,135.0,126.0,126.0,128.0,129.0,-1.0,112.0,-70.0,127.0,127.0,127.0,-120.0,-86.0,-122.0
127.0,126.0,127.0,135.0,127.0,126.0,128.0,129.0,-1.0,112.0,-70.0,127.0,127.0,127.0,-120.0,-86.0,-122.0
127.0,127.0,127.0,135.0,127.0,126.0,128.0,129.0,-1.0,112.0,-70.0,127.0,127.0,127.0,-120.0,-86.0,-122.0
127.0,127.0,127.0,135.0,127.0,126.0,128.0,129.0,-1.0,112.0,-70.0,127.0,127.0,127.0,-120.0,-86.0,-122.0
127.0,127.0,125.0,134.0,127.0,124.0,141.0,129.0,-1.0,112.0,-70.0,127.0,127.0,127.0,-120.0,-86.0,-122.0
127.0,126.0,125.0,134.0,127.0,123.0,141.0,129.0,-1.0,112.0,-70.0,127.0,127.0,127.0,-120.0,-86.0,-122.0
126.0,126.0,125.0,134.0,127.0,123.0,141.0,129.0,-1.0,112.0,-70.0,127.0,127.0,127.0,-120.0,-86.0,-122.0
126.0,126.0,125.0,134.0,127.0,122.0,142.0,129.0,-1.0,112.0,-70.0,127.0,127.0,127.0,-120.0,-86.0,-122.0
126.0,126.0,125.0,134.0,126.0,122.0,142.0,129.0,-1.0,112.0,-70.0,127.0,127.0,127.0,-120.0,-86.0,-122.0
126.0,126.0,124.0,134.0,126.0,121.0,142.0,129.0,-1.0,112.0,-70.0,127.0,127.0,127.0,-120.0,-86.0,-122.0
127.0,127.0,125.0,134.0,128.0,125.0,138.0,129.0,-1.0,112.0,-70.0,127.0,127.0,127.0,-120.0,-86.0,-122.0
127.0,127.0,125.0,134.0,127.0,125.0,139.0,129.0,-1.0,112.0,-70.0,127.0,127.0,127.0,-120.0,-86.0,-122.0
127.0,127.0,125.0,134.0,127.0,124.0,139.0,129.0,-1.0,112.0,-70.0,127.0,127.0,127.0,-120.0,-86.0,-122.0
127.0,127.0,125.0,134.0,127.0,124.0,140.0,129.0,-1.0,112.0,-70.0,127.0,127.0,127.0,-120.0,-86.0,-122.0
127.0,138.0,111.0,146.0,98.0,111.0,0.0,122.0,-1.0,112.0,-70.0,127.0,127.0,127.0,-120.0,-86.0,-122.0
127.0,138.0,111.0,147.0,97.0,113.0,0.0,122.0,-1.0,112.0,-70.0,127.0,127.0,127.0,-120.0,-86.0,-122.0
127.0,138.0,110.0,147.0,97.0,113.0,0.0,122.0,-1.0,112.0,-70.0,127.0,127.0,127.0,-120.0,-86.0,-122.0
127.0,138.0,110.0,148.0,97.0,113.0,0.0,122.0,-1.0,112.0,-70.0,127.0,127.0,127.0,-120.0,-86.0,-122.0
127.0,138.0,109.0,148.0,96.0,114.0,0.0,123.0,-1.0,112.0,-70.0,127.0,127.0,127.0,-120.0,-86.0,-122.0
127.0,138.0,113.0,144.0,100.0,105.0,0.0,121.0,-1.0,112.0,-70.0,127.0,127.0,127.0,-120.0,-86.0,-122.0
126.0,138.0,112.0,144.0,99.0,106.0,0.0,121.0,-1.0,112.0,-70.0,127.0,127.0,127.0,-120.0,-86.0,-122.0
127.0,139.0,112.0,145.0,99.0,107.0,0.0,122.0,-1.0,112.0,-70.0,127.0,127.0,127.0,-120.0,-86.0,-122.0
127.0,139.0,111.0,145.0,98.0,109.0,0.0,122.0,-1.0,112.0,-70.0,127.0,127.0,127.0,-120.0,-86.0,-122.0
127.0,139.0,111.0,146.0,98.0,110.0,0.0,122.0,-1.0,112.0,-70.0,127.0,127.0,127.0,-120.0,-86.0,-122.0
127.0,103.0,104.0,180.0,101.0,61.0,82.0,133.0,-1.0,112.0,-70.0,127.0,127.0,127.0,-120.0,-86.0,-122.0
127.0,101.0,105.0,181.0,101.0,59.0,94.0,133.0,-1.0,112.0,-70.0,127.0,127.0,127.0,-120.0,-86.0,-122.0
127.0,99.0,106.0,182.0,101.0,58.0,106.0,133.0,-1.0,112.0,-70.0,127.0,127.0,127.0,-120.0,-86.0,-122.0
127.0,96.0,106.0,184.0,101.0,56.0,119.0,133.0,-1.0,112.0,-70.0,127.0,127.0,127.0,-120.0,-86.0,-122.0
127.0,115.0,99.0,174.0,100.0,73.0,21.0,133.0,-1.0,112.0,-70.0,127.0,127.0,127.0,-120.0,-86.0,-122.0
127.0,113.0,100.0,175.0,101.0,70.0,29.0,133.0,-1.0,112.0,-70.0,127.0,127.0,127.0,-120.0,-86.0,-122.0
127.0,111.0,100.0,176.0,101.0,68.0,38.0,133.0,-1.0,112.0,-70.0,127.0,127.0,127.0,-120.0,-86.0,-122.0
127.0,109.0,101.0,177.0,101.0,66.0,48.0,133.0,-1.0,112.0,-70.0,127.0,127.0,127.0,-120.0,-86.0,-122.0
127.0,107.0,102.0,177.0,101.0,64.0,59.0,133.0,-1.0,112.0,-70.0,127.0,127.0,127.0,-120.0,-86.0,-122.0
127.0,105.0,103.0,179.0,101.0,63.0,70.0,133.0,-1.0,112.0,-70.0,127.0,127.0,127.0,-120.0,-86.0,-122.0
127.0,0.0,98.0,254.0,66.0,0.0,252.0,79.0,-1.0,114.0,-68.0,126.0,127.0,127.0,-120.0,-86.0,-122.0
127.0,0.0,98.0,254.0,65.0,0.0,250.0,78.0,-1.0,114.0,-68.0,126.0,127.0,127.0,-120.0,-86.0,-122.0
127.0,0.0,99.0,254.0,65.0,0.0,249.0,76.0,-1.0,114.0,-68.0,126.0,127.0,127.0,-120.0,-86.0,-122.0
127.0,0.0,91.0,254.0,68.0,0.0,254.0,89.0,-1.0,114.0,-68.0,126.0,127.0,127.0,-120.0,-86.0,-122.0
127.0,0.0,92.0,254.0,68.0,0.0,254.0,88.0,-1.0,114.0,-68.0,126.0,127.0,127.0,-120.0,-86.0,-122.0
126.0,0.0,93.0,254.0,67.0,0.0,254.0,86.0,-1.0,114.0,-68.0,126.0,127.0,127.0,-120.0,-86.0,-122.0
126.0,0.0,94.0,254.0,67.0,0.0,254.0,84.0,-1.0,114.0,-68.0,126.0,127.0,127.0,-120.0,-86.0,-122.0
126.0,0.0,95.0,254.0,67.0,0.0,254.0,82.0,-1.0,114.0,-68.0,126.0,127.0,127.0,-120.0,-86.0,-122.0
126.0,0.0,96.0,254.0,66.0,0.0,254.0,81.0,-1.0,114.0,-68.0,126.0,127.0,127.0,-120.0,-86.0,-122.0
126.0,0.0,97.0,254.0,66.0,0.0,253.0,80.0,-1.0,114.0,-68.0,126.0,127.0,127.0,-120.0,-86.0,-122.0
127.0,92.0,130.0,254.0,97.0,0.0,254.0,72.0,-1.0,115.0,-70.0,125.0,127.0,127.0,-120.0,-86.0,-122.0
127.0,94.0,132.0,254.0,98.0,0.0,254.0,72.0,-1.0,115.0,-70.0,125.0,127.0,127.0,-120.0,-86.0,-122.0
127.0,69.0,115.0,254.0,85.0,0.0,254.0,66.0,-1.0,115.0,-70.0,125.0,127.0,127.0,-120.0,-86.0,-122.0
127.0,73.0,117.0,254.0,87.0,0.0,254.0,67.0,-1.0,115.0,-70.0,125.0,127.0,127.0,-120.0,-86.0,-122.0
127.0,76.0,119.0,254.0,89.0,0.0,254.0,67.0,-1.0,115.0,-70.0,125.0,127.0,127.0,-120.0,-86.0,-122.0
127.0,79.0,121.0,254.0,90.0,0.0,254.0,68.0,-1.0,115.0,-70.0,125.0,127.0,127.0,-120.0,-86.0,-122.0
127.0,82.0,123.0,254.0,91.0,0.0,254.0,68.0,-1.0,115.0,-70.0,125.0,127.0,127.0,-120.0,-86.0,-122.0
127.0,85.0,125.0,254.0,92.0,0.0,254.0,69.0,-1.0,115.0,-70.0,125.0,127.0,127.0,-120.0,-86.0,-122.0
127.0,87.0,127.0,254.0,94.0,0.0,254.0,70.0,-1.0,115.0,-70.0,125.0,127.0,127.0,-120.0,-86.0,-122.0
127.0,90.0,129.0,254.0,95.0,0.0,254.0,71.0,-1.0,115.0,-70.0,125.0,127.0,127.0,-120.0,-86.0,-122.0
127.0,35.0,167.0,254.0,118.0,0.0,254.0,119.0,-1.0,112.0,-69.0,124.0,126.0,127.0,-120.0,-86.0,-122.0
127.0,30.0,157.0,254.0,133.0,0.0,254.0,117.0,-1.0,112.0,-69.0,124.0,126.0,127.0,-120.0,-86.0,-122.0
127.0,29.0,158.0,254.0,132.0,0.0,254.0,117.0,-1.0,112.0,-69.0,124.0,126.0,127.0,-120.0,-86.0,-122.0
127.0,29.0,159.0,254.0,130.0,0.0,254.0,117.0,-1.0,112.0,-69.0,124.0,126.0,127.0,-120.0,-86.0,-122.0
127.0,29.0,160.0,254.0,128.0,0.0,254.0,118.0,-1.0,112.0,-69.0,124.0,126.0,127.0,-120.0,-86.0,-122.0
127.0,30.0,161.0,254.0,127.0,0.0,254.0,118.0,-1.0,112.0,-69.0,124.0,126.0,127.0,-120.0,-86.0,-122.0
127.0,30.0,162.0,254.0,125.0,0.0,254.0,119.0,-1.0,112.0,-69.0,124.0,126.0,127.0,-120.0,-86.0,-122.0
127.0,31.0,163.0,254.0,123.0,0.0,254.0,119.0,-1.0,112.0,-69.0,124.0,126.0,127.0,-120.0,-86.0,-122.0
127.0,32.0,165.0,254.0,121.0,0.0,254.0,119.0,-1.0,112.0,-69.0,124.0,126.0,127.0,-120.0,-86.0,-122.0
127.0,33.0,166.0,254.0,120.0,0.0,254.0,119.0,-1.0,112.0,-69.0,124.0,126.0,127.0,-120.0,-86.0,-122.0
126.0,137.0,155.0,254.0,145.0,0.0,254.0,86.0,-1.0,112.0,-68.0,125.0,126.0,127.0,-120.0,-86.0,-122.0
126.0,138.0,153.0,254.0,146.0,0.0,254.0,86.0,-1.0,112.0,-68.0,125.0,126.0,127.0,-120.0,-86.0,-122.0
127.0,140.0,152.0,254.0,148.0,0.0,254.0,86.0,-1.0,112.0,-68.0,125.0,126.0,127.0,-120.0,-86.0,-122.0
127.0,142.0,151.0,254.0,149.0,0.0,254.0,86.0,-1.0,112.0,-68.0,125.0,126.0,127.0,-120.0,-86.0,-122.0
127.0,143.0,150.0,254.0,151.0,0.0,254.0,86.0,-1.0,112.0,-68.0,125.0,126.0,127.0,-120.0,-86.0,-122.0
127.0,144.0,149.0,254.0,153.0,0.0,254.0,87.0,-1.0,112.0,-68.0,125.0,126.0,127.0,-120.0,-86.0,-122.0
127.0,145.0,149.0,254.0,154.0,0.0,254.0,87.0,-1.0,112.0,-68.0,125.0,126.0,127.0,-120.0,-86.0,-122.0
127.0,146.0,148.0,254.0,155.0,0.0,254.0,87.0,-1.0,112.0,-68.0,125.0,126.0,127.0,-120.0,-86.0,-122.0
127.0,147.0,147.0,254.0,157.0,0.0,254.0,87.0,-1.0,112.0,-68.0,125.0,126.0,127.0,-120.0,-86.0,-122.0
127.0,147.0,146.0,254.0,157.0,0.0,254.0,87.0,-1.0,112.0,-68.0,125.0,126.0,127.0,-120.0,-86.0,-122.0
127.0,113.0,128.0,254.0,150.0,0.0,254.0,83.0,-1.0,106.0,-70.0,126.0,127.0,127.0,-120.0,-86.0,-122.0
127.0,113.0,128.0,254.0,149.0,0.0,254.0,84.0,-1.0,106.0,-70.0,126.0,127.0,127.0,-120.0,-86.0,-122.0
127.0,113.0,128.0,254.0,148.0,0.0,254.0,84.0,-1.0,106.0,-70.0,126.0,127.0,127.0,-120.0,-86.0,-122.0
127.0,113.0,128.0,254.0,148.0,0.0,253.0,85.0,-1.0,106.0,-70.0,126.0,127.0,127.0,-120.0,-86.0,-122.0
127.0,113.0,128.0,254.0,148.0,0.0,253.0,86.0,-1.0,106.0,-70.0,126.0,127.0,127.0,-120.0,-86.0,-122.0
127.0,112.0,128.0,254.0,148.0,0.0,251.0,86.0,-1.0,106.0,-70.0,126.0,127.0,127.0,-120.0,-86.0,-122.0
127.0,112.0,128.0,254.0,148.0,0.0,250.0,87.0,-1.0,106.0,-70.0,126.0,127.0,127.0,-120.0,-86.0,-122.0
127.0,112.0,128.0,254.0,147.0,0.0,249.0,88.0,-1.0,106.0,-70.0,126.0,127.0,127.0,-120.0,-86.0,-122.0
127.0,112.0,128.0,254.0,147.0,0.0,247.0,88.0,-1.0,106.0,-70.0,126.0,127.0,127.0,-120.0,-86.0,-122.0
127.0,113.0,128.0,254.0,150.0,0.0,254.0,83.0,-1.0,106.0,-70.0,126.0,127.0,127.0,-120.0,-86.0,-122.0
127.0,124.0,128.0,254.0,141.0,0.0,142.0,117.0,-1.0,106.0,-73.0,127.0,127.0,127.0,-120.0,-86.0,-122.0
127.0,125.0,129.0,254.0,141.0,0.0,140.0,117.0,-1.0,106.0,-73.0,127.0,127.0,127.0,-120.0,-86.0,-122.0
127.0,125.0,130.0,254.0,141.0,0.0,138.0,118.0,-1.0,106.0,-73.0,127.0,127.0,127.0,-120.0,-86.0,-122.0
126.0,125.0,130.0,254.0,140.0,0.0,136.0,118.0,-1.0,106.0,-73.0,127.0,127.0,127.0,-120.0,-86.0,-122.0
127.0,125.0,131.0,254.0,140.0,0.0,135.0,118.0,-1.0,106.0,-73.0,127.0,127.0,127.0,-120.0,-86.0,-122.0
127.0,125.0,131.0,254.0,140.0,0.0,133.0,118.0,-1.0,106.0,-73.0,127.0,127.0,127.0,-120.0,-86.0,-122.0
127.0,124.0,132.0,254.0,139.0,0.0,132.0,118.0,-1.0,106.0,-73.0,127.0,127.0,127.0,-120.0,-86.0,-122.0
127.0,124.0,133.0,254.0,139.0,0.0,130.0,118.0,-1.0,106.0,-73.0,127.0,127.0,127.0,-120.0,-86.0,-122.0
127.0,124.0,127.0,254.0,141.0,0.0,145.0,116.0,-1.0,106.0,-73.0,127.0,127.0,127.0,-120.0,-86.0,-122.0
127.0,124.0,128.0,254.0,141.0,0.0,143.0,117.0,-1.0,106.0,-73.0,127.0,127.0,127.0,-120.0,-86.0,-122.0
127.0,129.0,154.0,254.0,126.0,0.0,86.0,117.0,-1.0,109.0,-71.0,126.0,127.0,127.0,-120.0,-86.0,-122.0
127.0,129.0,155.0,254.0,126.0,0.0,86.0,117.0,-1.0,109.0,-71.0,126.0,127.0,127.0,-120.0,-86.0,-122.0
127.0,129.0,155.0,254.0,126.0,0.0,86.0,117.0,-1.0,109.0,-71.0,126.0,127.0,127.0,-120.0,-86.0,-122.0
127.0,129.0,156.0,254.0,127.0,0.0,85.0,117.0,-1.0,109.0,-71.0,126.0,127.0,127.0,-120.0,-86.0,-122.0
127.0,129.0,156.0,254.0,127.0,0.0,85.0,117.0,-1.0,109.0,-71.0,126.0,127.0,127.0,-120.0,-86.0,-122.0
127.0,129.0,156.0,254.0,128.0,0.0,85.0,117.0,-1.0,109.0,-71.0,126.0,127.0,127.0,-120.0,-86.0,-122.0
127.0,129.0,157.0,254.0,128.0,0.0,85.0,117.0,-1.0,109.0,-71.0,126.0,127.0,127.0,-120.0,-86.0,-122.0
127.0,129.0,153.0,254.0,125.0,0.0,86.0,117.0,-1.0,109.0,-71.0,126.0,127.0,127.0,-120.0,-86.0,-122.0
127.0,129.0,154.0,254.0,125.0,0.0,86.0,117.0,-1.0,109.0,-71.0,126.0,127.0,127.0,-120.0,-86.0,-122.0
127.0,129.0,154.0,254.0,125.0,0.0,86.0,117.0,-1.0,109.0,-71.0,126.0,127.0,127.0,-120.0,-86.0,-122.0
127.0,119.0,154.0,254.0,139.0,0.0,85.0,123.0,-1.0,112.0,-69.0,126.0,127.0,127.0,-120.0,-86.0,-122.0
127.0,119.0,153.0,254.0,139.0,0.0,85.0,123.0,-1.0,112.0,-69.0,126.0,127.0,127.0,-120.0,-86.0,-122.0
127.0,120.0,152.0,254.0,138.0,0.0,85.0,124.0,-1.0,112.0,-69.0,126.0,127.0,127.0,-120.0,-86.0,-122.0
127.0,120.0,151.0,254.0,138.0,0.0,84.0,124.0,-1.0,112.0,-69.0,126.0,127.0,127.0,-120.0,-86.0,-122.0
127.0,120.0,150.0,254.0,138.0,0.0,84.0,123.0,-1.0,112.0,-69.0,126.0,127.0,127.0,-120.0,-86.0,-122.0
126.0,120.0,149.0,254.0,138.0,0.0,84.0,124.0,-1.0,112.0,-69.0,126.0,127.0,127.0,-120.0,-86.0,-122.0
127.0,119.0,157.0,254.0,138.0,0.0,87.0,124.0,-1.0,112.0,-69.0,126.0,127.0,127.0,-120.0,-86.0,-122.0
127.0,119.0,156.0,254.0,138.0,0.0,86.0,124.0,-1.0,112.0,-69.0,126.0,127.0,127.0,-120.0,-86.0,-122.0
127.0,119.0,156.0,254.0,138.0,0.0,86.0,124.0,-1.0,112.0,-69.0,126.0,127.0,127.0,-120.0,-86.0,-122.0
127.0,119.0,155.0,254.0,138.0,0.0,86.0,123.0,-1.0,112.0,-69.0,126.0,127.0,127.0,-120.0,-86.0,-122.0
127.0,103.0,108.0,238.0,144.0,42.0,87.0,114.0,-1.0,113.0,-70.0,126.0,127.0,127.0,-120.0,-86.0,-122.0
127.0,102.0,107.0,236.0,144.0,42.0,88.0,114.0,-1.0,113.0,-70.0,126.0,127.0,127.0,-120.0,-86.0,-122.0
127.0,101.0,107.0,234.0,144.0,43.0,90.0,114.0,-1.0,113.0,-70.0,126.0,127.0,127.0,-120.0,-86.0,-122.0
127.0,100.0,106.0,232.0,144.0,44.0,91.0,114.0,-1.0,113.0,-70.0,126.0,127.0,127.0,-120.0,-86.0,-122.0
127.0,99.0,106.0,230.0,144.0,44.0,93.0,114.0,-1.0,113.0,-70.0,126.0,127.0,127.0,-120.0,-86.0,-122.0
127.0,106.0,110.0,246.0,143.0,37.0,81.0,115.0,-1.0,113.0,-70.0,126.0,127.0,127.0,-120.0,-86.0,-122.0
127.0,105.0,109.0,245.0,143.0,38.0,82.0,115.0,-1.0,113.0,-70.0,126.0,127.0,127.0,-120.0,-86.0,-122.0
127.0,104.0,109.0,243.0,144.0,39.0,83.0,115.0,-1.0,113.0,-70.0,126.0,127.0,127.0,-120.0,-86.0,-122.0
127.0,104.0,108.0,241.0,144.0,40.0,84.0,115.0,-1.0,113.0,-70.0,126.0,127.0,127.0,-120.0,-86.0,-122.0
127.0,103.0,108.0,239.0,144.0,41.0,86.0,114.0,-1.0,113.0,-70.0,126.0,127.0,127.0,-120.0,-86.0,-122.0
127.0,93.0,107.0,166.0,149.0,80.0,102.0,121.0,-1.0,111.0,-74.0,126.0,127.0,127.0,-120.0,-86.0,-122.0
127.0,95.0,108.0,165.0,148.0,79.0,100.0,122.0,-1.0,111.0,-74.0,126.0,127.0,127.0,-120.0,-86.0,-122.0
127.0,96.0,109.0,165.0,148.0,78.0,99.0,122.0,-1.0,111.0,-74.0,126.0,127.0,127.0,-120.0,-86.0,-122.0
127.0,97.0,110.0,164.0,148.0,78.0,97.0,122.0,-1.0,111.0,-74.0,126.0,127.0,127.0,-120.0,-86.0,-122.0
127.0,87.0,103.0,171.0,149.0,82.0,112.0,121.0,-1.0,111.0,-74.0,126.0,127.0,127.0,-120.0,-86.0,-122.0
127.0,88.0,103.0,170.0,149.0,82.0,110.0,121.0,-1.0,111.0,-74.0,126.0,127.0,127.0,-120.0,-86.0,-122.0
127.0,89.0,104.0,169.0,149.0,82.0,109.0,121.0,-1.0,111.0,-74.0,126.0,127.0,127.0,-120.0,-86.0,-122.0
127.0,90.0,105.0,168.0,149.0,81.0,107.0,121.0,-1.0,111.0,-74.0,126.0,127.0,127.0,-120.0,-86.0,-122.0
127.0,91.0,105.0,167.0,149.0,81.0,106.0,121.0,-1.0,111.0,-74.0,126.0,127.0,127.0,-120.0,-86.0,-122.0
127.0,92.0,106.0,167.0,149.0,80.0,104.0,121.0,-1.0,111.0,-74.0,126.0,127.0,127.0,-120.0,-86.0,-122.0
126.0,125.0,140.0,144.0,140.0,45.0,18.0,127.0,-1.0,109.0,-76.0,127.0,127.0,127.0,-120.0,-86.0,-122.0
126.0,126.0,140.0,144.0,140.0,44.0,19.0,127.0,-1.0,109.0,-76.0,127.0,127.0,127.0,-120.0,-86.0,-122.0
126.0,126.0,140.0,144.0,140.0,44.0,19.0,127.0,-1.0,109.0,-76.0,127.0,127.0,127.0,-120.0,-86.0,-122.0
127.0,122.0,137.0,145.0,142.0,50.0,18.0,127.0,-1.0,109.0,-76.0,127.0,127.0,127.0,-120.0,-86.0,-122.0
127.0,123.0,137.0,145.0,142.0,50.0,18.0,127.0,-1.0,109.0,-76.0,127.0,127.0,127.0,-120.0,-86.0,-122.0
127.0,123.0,138.0,145.0,141.0,50.0,17.0,127.0,-1.0,109.0,-76.0,127.0,127.0,127.0,-120.0,-86.0,-122.0
127.0,123.0,138.0,145.0,141.0,49.0,17.0,127.0,-1.0,109.0,-76.0,127.0,127.0,127.0,-120.0,-86.0,-122.0
127.0,124.0,138.0,144.0,141.0,49.0,17.0,127.0,-1.0,109.0,-76.0,127.0,127.0,127.0,-120.0,-86.0,-122.0
127.0,124.0,139.0,144.0,141.0,48.0,17.0,127.0,-1.0,109.0,-76.0,127.0,127.0,127.0,-120.0,-86.0,-122.0
126.0,125.0,139.0,144.0,141.0,46.0,18.0,127.0,-1.0,109.0,-76.0,127.0,127.0,127.0,-120.0,-86.0,-122.0
127.0,129.0,137.0,147.0,125.0,28.0,87.0,128.0,-1.0,109.0,-73.0,127.0,127.0,127.0,-120.0,-86.0,-122.0
127.0,129.0,136.0,147.0,124.0,27.0,88.0,128.0,-1.0,109.0,-73.0,127.0,127.0,127.0,-120.0,-86.0,-122.0
126.0,129.0,140.0,146.0,130.0,33.0,77.0,128.0,-1.0,109.0,-73.0,127.0,127.0,127.0,-120.0,-86.0,-122.0
126.0,129.0,139.0,146.0,129.0,32.0,78.0,128.0,-1.0,109.0,-73.0,127.0,127.0,127.0,-120.0,-86.0,-122.0
127.0,129.0,139.0,146.0,128.0,32.0,79.0,128.0,-1.0,109.0,-73.0,127.0,127.0,127.0,-120.0,-86.0,-122.0
127.0,129.0,139.0,146.0,128.0,31.0,80.0,128.0,-1.0,109.0,-73.0,127.0,127.0,127.0,-120.0,-86.0,-122.0
127.0,129.0,138.0,146.0,127.0,30.0,81.0,128.0,-1.0,109.0,-73.0,127.0,127.0,127.0,-120.0,-86.0,-122.0
127.0,129.0,138.0,146.0,127.0,30.0,83.0,128.0,-1.0,109.0,-73.0,127.0,127.0,127.0,-120.0,-86.0,-122.0
127.0,129.0,138.0,146.0,126.0,29.0,84.0,128.0,-1.0,109.0,-73.0,127.0,127.0,127.0,-120.0,-86.0,-122.0
127.0,129.0,137.0,146.0,125.0,28.0,85.0,128.0,-1.0,109.0,-73.0,127.0,127.0,127.0,-120.0,-86.0,-122.0
127.0,124.0,113.0,140.0,118.0,74.0,128.0,123.0,-1.0,110.0,-71.0,126.0,127.0,127.0,-120.0,-86.0,-122.0
127.0,126.0,115.0,142.0,117.0,64.0,125.0,124.0,-1.0,110.0,-71.0,126.0,127.0,127.0,-120.0,-86.0,-122.0
127.0,126.0,115.0,141.0,117.0,65.0,125.0,123.0,-1.0,110.0,-71.0,126.0,127.0,127.0,-120.0,-86.0,-122.0
127.0,126.0,114.0,141.0,117.0,66.0,126.0,123.0,-1.0,110.0,-71.0,126.0,127.0,127.0,-120.0,-86.0,-122.0
127.0,125.0,114.0,141.0,117.0,68.0,126.0,123.0,-1.0,110.0,-71.0,126.0,127.0,127.0,-120.0,-86.0,-122.0
127.0,125.0,114.0,141.0,117.0,69.0,127.0,123.0,-1.0,110.0,-71.0,126.0,127.0,127.0,-120.0,-86.0,-122.0
127.0,125.0,113.0,141.0,117.0,70.0,127.0,123.0,-1.0,110.0,-71.0,126.0,127.0,127.0,-120.0,-86.0,-122.0
127.0,125.0,113.0,141.0,117.0,71.0,127.0,123.0,-1.0,110.0,-71.0,126.0,127.0,127.0,-120.0,-86.0,-122.0
127.0,124.0,113.0,141.0,118.0,72.0,128.0,123.0,-1.0,110.0,-71.0,126.0,127.0,127.0,-120.0,-86.0,-122.0
127.0,124.0,113.0,140.0,118.0,73.0,128.0,123.0,-1.0,110.0,-71.0,126.0,127.0,127.0,-120.0,-86.0,-122.0
127.0,117.0,115.0,134.0,126.0,111.0,124.0,123.0,-1.0,110.0,-72.0,126.0,127.0,127.0,-120.0,-86.0,-122.0
127.0,117.0,115.0,134.0,127.0,112.0,124.0,124.0,-1.0,110.0,-72.0,126.0,127.0,127.0,-120.0,-86.0,-122.0
127.0,117.0,115.0,134.0,127.0,113.0,123.0,124.0,-1.0,110.0,-72.0,126.0,127.0,127.0,-120.0,-86.0,-122.0
127.0,117.0,115.0,134.0,127.0,113.0,123.0,124.0,-1.0,110.0,-72.0,126.0,127.0,127.0,-120.0,-86.0,-122.0
127.0,117.0,115.0,134.0,127.0,114.0,123.0,123.0,-1.0,110.0,-72.0,126.0,127.0,127.0,-120.0,-86.0,-122.0
127.0,116.0,115.0,134.0,127.0,114.0,123.0,124.0,-1.0,110.0,-72.0,126.0,127.0,127.0,-120.0,-86.0,-122.0
127.0,116.0,115.0,134.0,128.0,115.0,122.0,123.0,-1.0,110.0,-72.0,126.0,127.0,127.0,-120.0,-86.0,-122.0
127.0,116.0,115.0,133.0,128.0,116.0,122.0,123.0,-1.0,110.0,-72.0,126.0,127.0,127.0,-120.0,-86.0,-122.0
127.0,116.0,115.0,133.0,128.0,116.0,122.0,124.0,-1.0,110.0,-72.0,126.0,127.0,127.0,-120.0,-86.0,-122.0
127.0,116.0,116.0,133.0,128.0,117.0,122.0,124.0,-1.0,110.0,-72.0,126.0,127.0,127.0,-120.0,-86.0,-122.0
127.0,116.0,124.0,130.0,137.0,143.0,113.0,127.0,-1.0,109.0,-74.0,127.0,127.0,127.0,-120.0,-86.0,-122.0
127.0,116.0,124.0,130.0,137.0,143.0,113.0,128.0,-1.0,109.0,-74.0,127.0,127.0,127.0,-120.0,-86.0,-122.0
127.0,116.0,124.0,130.0,137.0,142.0,113.0,128.0,-1.0,109.0,-74.0,127.0,127.0,127.0,-120.0,-86.0,-122.0
127.0,117.0,125.0,130.0,137.0,142.0,113.0,128.0,-1.0,109.0,-74.0,127.0,127.0,127.0,-120.0,-86.0,-122.0
127.0,117.0,125.0,130.0,137.0,142.0,113.0,128.0,-1.0,109.0,-74.0,127.0,127.0,127.0,-120.0,-86.0,-122.0
127.0,117.0,125.0,130.0,136.0,141.0,113.0,128.0,-1.0,109.0,-74.0,127.0,127.0,127.0,-120.0,-86.0,-122.0
127.0,117.0,125.0,130.0,136.0,140.0,113.0,128.0,-1.0,109.0,-74.0,127.0,127.0,127.0,-120.0,-86.0,-122.0
127.0,118.0,125.0,130.0,136.0,139.0,113.0,128.0,-1.0,109.0,-74.0,127.0,127.0,127.0,-120.0,-86.0,-122.0
127.0,118.0,126.0,130.0,136.0,138.0,113.0,128.0,-1.0,109.0,-74.0,127.0,127.0,127.0,-120.0,-86.0,-122.0
127.0,116.0,124.0,130.0,137.0,143.0,113.0,128.0,-1.0,109.0,-74.0,127.0,127.0,127.0,-120.0,-86.0,-122.0
127.0,126.0,130.0,129.0,136.0,103.0,100.0,128.0,-1.0,108.0,-74.0,127.0,127.0,127.0,-120.0,-86.0,-122.0
127.0,126.0,130.0,130.0,136.0,102.0,100.0,128.0,-1.0,108.0,-74.0,127.0,127.0,127.0,-120.0,-86.0,-122.0
127.0,126.0,130.0,130.0,135.0,103.0,100.0,128.0,-1.0,108.0,-74.0,127.0,127.0,127.0,-120.0,-86.0,-122.0
127.0,126.0,130.0,130.0,135.0,102.0,100.0,128.0,-1.0,108.0,-74.0,127.0,127.0,127.0,-120.0,-86.0,-122.0
127.0,126.0,130.0,130.0,135.0,102.0,100.0,128.0,-1.0,108.0,-74.0,127.0,127.0,127.0,-120.0,-86.0,-122.0
127.0,126.0,131.0,130.0,135.0,101.0,100.0,128.0,-1.0,108.0,-74.0,127.0,127.0,127.0,-120.0,-86.0,-122.0
127.0,126.0,131.0,130.0,135.0,101.0,100.0,128.0,-1.0,108.0,-74.0,127.0,127.0,127.0,-120.0,-86.0,-122.0
127.0,126.0,130.0,131.0,135.0,100.0,100.0,128.0,-1.0,108.0,-74.0,127.0,127.0,127.0,-120.0,-86.0,-122.0
127.0,126.0,130.0,129.0,136.0,103.0,100.0,129.0,-1.0,108.0,-74.0,127.0,127.0,127.0,-120.0,-86.0,-122.0
127.0,126.0,130.0,129.0,136.0,103.0,100.0,128.0,-1.0,108.0,-74.0,127.0,127.0,127.0,-120.0,-86.0,-122.0
126.0,124.0,126.0,131.0,130.0,107.0,99.0,128.0,-1.0,109.0,-72.0,127.0,127.0,127.0,-120.0,-86.0,-122.0
127.0,125.0,125.0,131.0,129.0,108.0,99.0,129.0,-1.0,109.0,-72.0,127.0,127.0,127.0,-120.0,-86.0,-122.0
127.0,125.0,125.0,131.0,129.0,109.0,99.0,129.0,-1.0,109.0,-72.0,127.0,127.0,127.0,-120.0,-86.0,-122.0
127.0,125.0,125.0,131.0,129.0,109.0,99.0,129.0,-1.0,109.0,-72.0,127.0,127.0,127.0,-120.0,-86.0,-122.0
127.0,125.0,125.0,131.0,129.0,110.0,99.0,129.0,-1.0,109.0,-72.0,127.0,127.0,127.0,-120.0,-86.0,-122.0
127.0,125.0,124.0,131.0,128.0,110.0,99.0,129.0,-1.0,109.0,-72.0,127.0,127.0,127.0,-120.0,-86.0,-122.0
127.0,125.0,124.0,131.0,128.0,111.0,99.0,129.0,-1.0,109.0,-72.0,127.0,127.0,127.0,-120.0,-86.0,-122.0
127.0,124.0,127.0,131.0,130.0,105.0,99.0,128.0,-1.0,109.0,-72.0,127.0,127.0,127.0,-120.0,-86.0,-122.0
126.0,124.0,126.0,131.0,130.0,106.0,99.0,128.0,-1.0,109.0,-72.0,127.0,127.0,127.0,-120.0,-86.0,-122.0
126.0,124.0,126.0,131.0,130.0,106.0,99.0,128.0,-1.0,109.0,-72.0,127.0,127.0,127.0,-120.0,-86.0,-122.0
127.0,130.0,115.0,126.0,116.0,118.0,81.0,129.0,-1.0,110.0,-71.0,127.0,127.0,127.0,-120.0,-86.0,-122.0
127.0,130.0,115.0,126.0,115.0,119.0,81.0,129.0,-1.0,110.0,-71.0,127.0,127.0,127.0,-120.0,-86.0,-122.0
127.0,130.0,115.0,126.0,115.0,119.0,81.0,129.0,-1.0,110.0,-71.0,127.0,127.0,127.0,-120.0,-86.0,-122.0
127.0,130.0,115.0,126.0,115.0,120.0,80.0,129.0,-1.0,110.0,-71.0,127.0,127.0,127.0,-120.0,-86.0,-122.0
127.0,130.0,115.0,126.0,114.0,121.0,80.0,129.0,-1.0,110.0,-71.0,127.0,127.0,127.0,-120.0,-86.0,-122.0
127.0,130.0,115.0,126.0,114.0,121.0,80.0,129.0,-1.0,110.0,-71.0,127.0,127.0,127.0,-120.0,-86.0,-122.0
127.0,130.0,115.0,127.0,117.0,117.0,83.0,129.0,-1.0,110.0,-71.0,127.0,127.0,127.0,-120.0,-86.0,-122.0
127.0,130.0,115.0,127.0,117.0,117.0,83.0,129.0,-1.0,110.0,-71.0,127.0,127.0,127.0,-120.0,-86.0,-122.0
127.0,130.0,115.0,127.0,116.0,117.0,82.0,129.0,-1.0,110.0,-71.0,127.0,127.0,127.0,-120.0,-86.0,-122.0
127.0,130.0,115.0,127.0,116.0,118.0,82.0,129.0,-1.0,110.0,-71.0,127.0,127.0,127.0,-120.0,-86.0,-122.0
127.0,122.0,120.0,128.0,117.0,160.0,88.0,127.0,-1.0,111.0,-71.0,127.0,127.0,127.0,-120.0,-86.0,-122.0
127.0,122.0,120.0,128.0,117.0,160.0,88.0,127.0,-1.0,111.0,-71.0,127.0,127.0,127.0,-120.0,-86.0,-122.0
127.0,122.0,120.0,128.0,117.0,160.0,88.0,127.0,-1.0,111.0,-71.0,127.0,127.0,127.0,-120.0,-86.0,-122.0
127.0,122.0,120.0,128.0,117.0,161.0,88.0,128.0,-1.0,111.0,-71.0,127.0,127.0,127.0,-120.0,-86.0,-122.0
127.0,122.0,119.0,128.0,117.0,162.0,88.0,128.0,-1.0,111.0,-71.0,127.0,127.0,127.0,-120.0,-86.0,-122.0
127.0,122.0,121.0,128.0,118.0,158.0,89.0,127.0,-1.0,111.0,-71.0,127.0,127.0,127.0,-120.0,-86.0,-122.0
127.0,122.0,120.0,128.0,117.0,159.0,89.0,127.0,-1.0,111.0,-71.0,127.0,127.0,127.0,-120.0,-86.0,-122.0
127.0,122.0,121.0,128.0,117.0,159.0,89.0,127.0,-1.0,111.0,-71.0,127.0,127.0,127.0,-120.0,-86.0,-122.0
127.0,122.0,120.0,128.0,117.0,160.0,88.0,127.0,-1.0,111.0,-71.0,127.0,127.0,127.0,-120.0,-86.0,-122.0
127.0,122.0,120.0,128.0,117.0,160.0,88.0,127.0,-1.0,111.0,-71.0,127.0,127.0,127.0,-120.0,-86.0,-122.0
127.0,124.0,119.0,120.0,129.0,185.0,113.0,133.0,-1.0,111.0,-72.0,127.0,127.0,127.0,-120.0,-86.0,-122.0
127.0,124.0,119.0,120.0,129.0,185.0,113.0,133.0,-1.0,111.0,-72.0,127.0,127.0,127.0,-120.0,-86.0,-122.0
126.0,124.0,119.0,120.0,129.0,186.0,114.0,133.0,-1.0,111.0,-72.0,127.0,127.0,127.0,-120.0,-86.0,-122.0
127.0,124.0,119.0,120.0,129.0,187.0,115.0,133.0,-1.0,111.0,-72.0,127.0,127.0,127.0,-120.0,-86.0,-122.0
126.0,124.0,118.0,121.0,128.0,180.0,109.0,132.0,-1.0,111.0,-72.0,127.0,127.0,127.0,-120.0,-86.0,-122.0
126.0,124.0,118.0,121.0,129.0,181.0,110.0,132.0,-1.0,111.0,-72.0,127.0,127.0,127.0,-120.0,-86.0,-122.0
126.0,124.0,118.0,120.0,129.0,182.0,111.0,132.0,-1.0,111.0,-72.0,127.0,127.0,127.0,-120.0,-86.0,-122.0
126.0,124.0,119.0,120.0,129.0,183.0,111.0,132.0,-1.0,111.0,-72.0,127.0,127.0,127.0,-120.0,-86.0,-122.0
126.0,124.0,119.0,120.0,129.0,184.0,112.0,133.0,-1.0,111.0,-72.0,127.0,127.0,127.0,-120.0,-86.0,-122.0
126.0,124.0,119.0,120.0,129.0,184.0,113.0,133.0,-1.0,111.0,-72.0,127.0,127.0,127.0,-120.0,-86.0,-122.0
127.0,130.0,129.0,120.0,129.0,186.0,90.0,134.0,-1.0,111.0,-72.0,127.0,127.0,127.0,-120.0,-86.0,-122.0
127.0,131.0,129.0,119.0,129.0,185.0,88.0,134.0,-1.0,111.0,-72.0,127.0,127.0,127.0,-120.0,-86.0,-122.0
127.0,131.0,130.0,119.0,129.0,185.0,87.0,134.0,-1.0,111.0,-72.0,127.0,127.0,127.0,-120.0,-86.0,-122.0
127.0,128.0,127.0,120.0,129.0,189.0,99.0,134.0,-1.0,111.0,-72.0,127.0,127.0,127.0,-120.0,-86.0,-122.0
127.0,129.0,127.0,120.0,129.0,188.0,98.0,134.0,-1.0,111.0,-72.0,127.0,127.0,127.0,-120.0,-86.0,-122.0
127.0,129.0,128.0,120.0,129.0,188.0,96.0,134.0,-1.0,111.0,-72.0,127.0,127.0,127.0,-120.0,-86.0,-122.0
127.0,129.0,128.0,120.0,129.0,187.0,95.0,134.0,-1.0,111.0,-72.0,127.0,127.0,127.0,-120.0,-86.0,-122.0
127.0,130.0,128.0,120.0,129.0,187.0,94.0,134.0,-1.0,111.0,-72.0,127.0,127.0,127.0,-120.0,-86.0,-122.0
127.0,130.0,128.0,120.0,129.0,186.0,93.0,134.0,-1.0,111.0,-72.0,127.0,127.0,127.0,-120.0,-86.0,-122.0
127.0,130.0,129.0,120.0,129.0,186.0,91.0,134.0,-1.0,111.0,-72.0,127.0,127.0,127.0,-120.0,-86.0,-122.0
127.0,142.0,141.0,110.0,126.0,184.0,66.0,136.0,-1.0,110.0,-72.0,127.0,127.0,127.0,-120.0,-86.0,-122.0
127.0,142.0,141.0,110.0,125.0,184.0,66.0,136.0,-1.0,110.0,-72.0,127.0,127.0,127.0,-120.0,-86.0,-122.0
127.0,141.0,139.0,111.0,127.0,184.0,66.0,135.0,-1.0,110.0,-72.0,127.0,127.0,127.0,-120.0,-86.0,-122.0
127.0,141.0,139.0,111.0,127.0,184.0,66.0,135.0,-1.0,110.0,-72.0,127.0,127.0,127.0,-120.0,-86.0,-122.0
127.0,141.0,139.0,111.0,127.0,185.0,66.0,135.0,-1.0,110.0,-72.0,127.0,127.0,127.0,-120.0,-86.0,-122.0
127.0,141.0,140.0,111.0,126.0,185.0,66.0,135.0,-1.0,110.0,-72.0,127.0,127.0,127.0,-120.0,-86.0,-122.0
127.0,141.0,140.0,111.0,126.0,184.0,66.0,135.0,-1.0,110.0,-72.0,127.0,127.0,127.0,-120.0,-86.0,-122.0
127.0,142.0,140.0,111.0,126.0,185.0,66.0,135.0,-1.0,110.0,-72.0,127.0,127.0,127.0,-120.0,-86.0,-122.0
127.0,142.0,140.0,110.0,126.0,184.0,66.0,135.0,-1.0,110.0,-72.0,127.0,127.0,127.0,-120.0,-86.0,-122.0
127.0,142.0,141.0,110.0,126.0,184.0,66.0,135.0,-1.0,110.0,-72.0,127.0,127.0,127.0,-120.0,-86.0,-122.0
127.0,140.0,146.0,109.0,113.0,177.0,82.0,135.0,-1.0,108.0,-71.0,-128.0,127.0,127.0,-120.0,-86.0,-122.0
127.0,139.0,147.0,109.0,115.0,181.0,80.0,136.0,-1.0,108.0,-71.0,-128.0,127.0,127.0,-120.0,-86.0,-122.0
127.0,140.0,147.0,109.0,114.0,180.0,80.0,136.0,-1.0,108.0,-71.0,-128.0,127.0,127.0,-120.0,-86.0,-122.0
127.0,140.0,147.0,109.0,114.0,180.0,81.0,136.0,-1.0,108.0,-71.0,-128.0,127.0,127.0,-120.0,-86.0,-122.0
127.0,139.0,146.0,109.0,114.0,180.0,81.0,136.0,-1.0,108.0,-71.0,-128.0,127.0,127.0,-120.0,-86.0,-122.0
127.0,140.0,146.0,109.0,114.0,179.0,81.0,136.0,-1.0,108.0,-71.0,-128.0,127.0,127.0,-120.0,-86.0,-122.0
127.0,140.0,146.0,109.0,113.0,179.0,82.0,136.0,-1.0,108.0,-71.0,-128.0,127.0,127.0,-120.0,-86.0,-122.0
127.0,140.0,146.0,109.0,113.0,179.0,82.0,135.0,-1.0,108.0,-71.0,-128.0,127.0,127.0,-120.0,-86.0,-122.0
127.0,140.0,146.0,109.0,113.0,179.0,82.0,135.0,-1.0,108.0,-71.0,-128.0,127.0,127.0,-120.0,-86.0,-122.0
127.0,140.0,146.0,109.0,113.0,178.0,82.0,135.0,-1.0,108.0,-71.0,-128.0,127.0,127.0,-120.0,-86.0,-122.0
127.0,136.0,140.0,108.0,130.0,170.0,85.0,131.0,-1.0,107.0,-70.0,-128.0,127.0,127.0,-120.0,-86.0,-122.0
127.0,135.0,140.0,108.0,131.0,169.0,85.0,131.0,-1.0,107.0,-70.0,-128.0,127.0,127.0,-120.0,-86.0,-122.0
127.0,135.0,140.0,108.0,131.0,169.0,86.0,131.0,-1.0,107.0,-70.0,-128.0,127.0,127.0,-120.0,-86.0,-122.0
127.0,135.0,140.0,108.0,131.0,169.0,86.0,131.0,-1.0,107.0,-70.0,-128.0,127.0,127.0,-120.0,-86.0,-122.0
127.0,135.0,140.0,108.0,131.0,169.0,86.0,131.0,-1.0,107.0,-70.0,-128.0,127.0,127.0,-120.0,-86.0,-122.0
127.0,135.0,140.0,108.0,131.0,169.0,86.0,131.0,-1.0,107.0,-70.0,-128.0,127.0,127.0,-120.0,-86.0,-122.0
127.0,135.0,140.0,108.0,132.0,169.0,87.0,131.0,-1.0,107.0,-70.0,-128.0,127.0,127.0,-120.0,-86.0,-122.0
127.0,135.0,140.0,109.0,132.0,169.0,87.0,131.0,-1.0,107.0,-70.0,-128.0,127.0,127.0,-120.0,-86.0,-122.0
127.0,135.0,140.0,109.0,132.0,169.0,87.0,131.0,-1.0,107.0,-70.0,-128.0,127.0,127.0,-120.0,-86.0,-122.0
127.0,135.0,140.0,109.0,132.0,169.0,88.0,131.0,-1.0,107.0,-70.0,-128.0,127.0,127.0,-120.0,-86.0,-122.0
127.0,132.0,134.0,109.0,139.0,163.0,111.0,131.0,-1.0,109.0,-70.0,-128.0,127.0,127.0,-120.0,-86.0,-122.0
127.0,132.0,134.0,109.0,140.0,162.0,111.0,131.0,-1.0,109.0,-70.0,-128.0,127.0,127.0,-120.0,-86.0,-122.0
127.0,132.0,134.0,109.0,140.0,162.0,111.0,131.0,-1.0,109.0,-70.0,-128.0,127.0,127.0,-120.0,-86.0,-122.0
127.0,131.0,134.0,108.0,140.0,162.0,111.0,131.0,-1.0,109.0,-70.0,-128.0,127.0,127.0,-120.0,-86.0,-122.0
127.0,132.0,133.0,108.0,140.0,162.0,112.0,131.0,-1.0,109.0,-70.0,-128.0,127.0,127.0,-120.0,-86.0,-122.0
127.0,131.0,133.0,108.0,140.0,161.0,111.0,131.0,-1.0,109.0,-70.0,-128.0,127.0,127.0,-120.0,-86.0,-122.0
127.0,131.0,133.0,108.0,140.0,161.0,111.0,131.0,-1.0,109.0,-70.0,-128.0,127.0,127.0,-120.0,-86.0,-122.0
127.0,131.0,133.0,108.0,141.0,160.0,111.0,131.0,-1.0,109.0,-70.0,-128.0,127.0,127.0,-120.0,-86.0,-122.0
127.0,131.0,133.0,108.0,141.0,160.0,111.0,131.0,-1.0,109.0,-70.0,-128.0,127.0,127.0,-120.0,-86.0,-122.0
126.0,132.0,134.0,109.0,139.0,163.0,111.0,131.0,-1.0,109.0,-70.0,-128.0,127.0,127.0,-120.0,-86.0,-122.0
127.0,132.0,134.0,102.0,148.0,155.0,107.0,134.0,-1.0,112.0,-71.0,-128.0,127.0,127.0,-120.0,-86.0,-122.0
127.0,131.0,134.0,102.0,148.0,155.0,107.0,134.0,-1.0,112.0,-71.0,-128.0,127.0,127.0,-120.0,-86.0,-122.0
127.0,132.0,134.0,102.0,148.0,155.0,107.0,134.0,-1.0,112.0,-71.0,-128.0,127.0,127.0,-120.0,-86.0,-122.0
127.0,132.0,134.0,102.0,148.0,155.0,107.0,134.0,-1.0,112.0,-71.0,-128.0,127.0,127.0,-120.0,-86.0,-122.0
127.0,132.0,134.0,102.0,148.0,154.0,107.0,134.0,-1.0,112.0,-71.0,-128.0,127.0,127.0,-120.0,-86.0,-122.0
127.0,132.0,134.0,102.0,149.0,154.0,107.0,135.0,-1.0,112.0,-71.0,-128.0,127.0,127.0,-120.0,-86.0,-122.0
127.0,132.0,134.0,102.0,149.0,154.0,107.0,134.0,-1.0,112.0,-71.0,-128.0,127.0,127.0,-120.0,-86.0,-122.0
127.0,132.0,134.0,102.0,149.0,153.0,107.0,134.0,-1.0,112.0,-71.0,-128.0,127.0,127.0,-120.0,-86.0,-122.0
127.0,131.0,133.0,102.0,148.0,156.0,107.0,134.0,-1.0,112.0,-71.0,-128.0,127.0,127.0,-120.0,-86.0,-122.0
127.0,132.0,133.0,102.0,148.0,156.0,107.0,134.0,-1.0,112.0,-71.0,-128.0,127.0,127.0,-120.0,-86.0,-122.0
127.0,132.0,137.0,102.0,146.0,158.0,135.0,136.0,-1.0,113.0,-72.0,127.0,127.0,127.0,-120.0,-86.0,-122.0
127.0,132.0,137.0,102.0,146.0,158.0,137.0,136.0,-1.0,113.0,-72.0,127.0,127.0,127.0,-120.0,-86.0,-122.0
127.0,132.0,137.0,102.0,146.0,159.0,138.0,136.0,-1.0,113.0,-72.0,127.0,127.0,127.0,-120.0,-86.0,-122.0
127.0,132.0,137.0,102.0,146.0,159.0,140.0,136.0,-1.0,113.0,-72.0,127.0,127.0,127.0,-120.0,-86.0,-122.0
127.0,132.0,137.0,102.0,146.0,159.0,141.0,136.0,-1.0,113.0,-72.0,127.0,127.0,127.0,-120.0,-86.0,-122.0
127.0,132.0,137.0,102.0,145.0,159.0,142.0,136.0,-1.0,113.0,-72.0,127.0,127.0,127.0,-120.0,-86.0,-122.0
127.0,132.0,137.0,102.0,145.0,159.0,144.0,136.0,-1.0,113.0,-72.0,127.0,127.0,127.0,-120.0,-86.0,-122.0
127.0,132.0,137.0,102.0,146.0,157.0,131.0,136.0,-1.0,113.0,-72.0,127.0,127.0,127.0,-120.0,-86.0,-122.0
127.0,132.0,137.0,102.0,146.0,158.0,132.0,136.0,-1.0,113.0,-72.0,127.0,127.0,127.0,-120.0,-86.0,-122.0
127.0,132.0,137.0,102.0,146.0,158.0,134.0,136.0,-1.0,113.0,-72.0,127.0,127.0,127.0,-120.0,-86.0,-122.0
127.0,135.0,139.0,102.0,140.0,169.0,235.0,135.0,-1.0,114.0,-71.0,127.0,127.0,127.0,-120.0,-86.0,-122.0
127.0,135.0,139.0,102.0,140.0,169.0,236.0,135.0,-1.0,114.0,-71.0,127.0,127.0,127.0,-120.0,-86.0,-122.0
127.0,135.0,139.0,102.0,140.0,169.0,237.0,135.0,-1.0,114.0,-71.0,127.0,127.0,127.0,-120.0,-86.0,-122.0
127.0,135.0,139.0,102.0,140.0,169.0,238.0,134.0,-1.0,114.0,-71.0,127.0,127.0,127.0,-120.0,-86.0,-122.0
127.0,135.0,139.0,102.0,140.0,169.0,239.0,134.0,-1.0,114.0,-71.0,127.0,127.0,127.0,-120.0,-86.0,-122.0
127.0,135.0,139.0,102.0,140.0,169.0,240.0,134.0,-1.0,114.0,-71.0,127.0,127.0,127.0,-120.0,-86.0,-122.0
127.0,134.0,139.0,102.0,140.0,169.0,230.0,135.0,-1.0,114.0,-71.0,127.0,127.0,127.0,-120.0,-86.0,-122.0
127.0,135.0,139.0,102.0,140.0,169.0,231.0,135.0,-1.0,114.0,-71.0,127.0,127.0,127.0,-120.0,-86.0,-122.0
127.0,135.0,139.0,102.0,140.0,169.0,233.0,135.0,-1.0,114.0,-71.0,127.0,127.0,127.0,-120.0,-86.0,-122.0
127.0,135.0,139.0,102.0,140.0,169.0,234.0,135.0,-1.0,114.0,-71.0,127.0,127.0,127.0,-120.0,-86.0,-122.0
127.0,137.0,143.0,101.0,136.0,173.0,237.0,135.0,-1.0,113.0,-71.0,-128.0,127.0,127.0,-120.0,-86.0,-122.0
127.0,137.0,143.0,101.0,136.0,173.0,236.0,135.0,-1.0,113.0,-71.0,-128.0,127.0,127.0,-120.0,-86.0,-122.0
127.0,137.0,143.0,101.0,136.0,173.0,235.0,135.0,-1.0,113.0,-71.0,-128.0,127.0,127.0,-120.0,-86.0,-122.0
126.0,137.0,143.0,101.0,135.0,173.0,235.0,135.0,-1.0,113.0,-71.0,-128.0,127.0,127.0,-120.0,-86.0,-122.0
126.0,137.0,143.0,101.0,135.0,173.0,234.0,135.0,-1.0,113.0,-71.0,-128.0,127.0,127.0,-120.0,-86.0,-122.0
127.0,137.0,142.0,101.0,136.0,174.0,240.0,136.0,-1.0,113.0,-71.0,-128.0,127.0,127.0,-120.0,-86.0,-122.0
127.0,137.0,142.0,101.0,136.0,174.0,239.0,136.0,-1.0,113.0,-71.0,-128.0,127.0,127.0,-120.0,-86.0,-122.0
127.0,137.0,142.0,101.0,136.0,174.0,239.0,136.0,-1.0,113.0,-71.0,-128.0,127.0,127.0,-120.0,-86.0,-122.0
127.0,137.0,142.0,101.0,136.0,174.0,238.0,136.0,-1.0,113.0,-71.0,-128.0,127.0,127.0,-120.0,-86.0,-122.0
127.0,137.0,142.0,101.0,136.0,174.0,237.0,136.0,-1.0,113.0,-71.0,-128.0,127.0,127.0,-120.0,-86.0,-122.0
126.0,138.0,141.0,103.0,131.0,174.0,196.0,135.0,-1.0,113.0,-70.0,-128.0,127.0,127.0,-120.0,-86.0,-122.0
127.0,138.0,141.0,103.0,131.0,174.0,196.0,135.0,-1.0,113.0,-70.0,-128.0,127.0,127.0,-120.0,-86.0,-122.0
127.0,138.0,141.0,104.0,131.0,174.0,195.0,135.0,-1.0,113.0,-70.0,-128.0,127.0,127.0,-120.0,-86.0,-122.0
127.0,138.0,141.0,104.0,131.0,174.0,195.0,135.0,-1.0,113.0,-70.0,-128.0,127.0,127.0,-120.0,-86.0,-122.0
126.0,137.0,142.0,102.0,132.0,174.0,201.0,135.0,-1.0,113.0,-70.0,-128.0,127.0,127.0,-120.0,-86.0,-122.0
126.0,138.0,142.0,103.0,132.0,174.0,200.0,135.0,-1.0,113.0,-70.0,-128.0,127.0,127.0,-120.0,-86.0,-122.0
126.0,138.0,142.0,103.0,132.0,174.0,199.0,135.0,-1.0,113.0,-70.0,-128.0,127.0,127.0,-120.0,-86.0,-122.0
126.0,138.0,142.0,103.0,132.0,174.0,198.0,135.0,-1.0,113.0,-70.0,-128.0,127.0,127.0,-120.0,-86.0,-122.0
126.0,138.0,142.0,103.0,132.0,174.0,198.0,135.0,-1.0,113.0,-70.0,-128.0,127.0,127.0,-120.0,-86.0,-122.0
127.0,138.0,142.0,103.0,132.0,174.0,197.0,135.0,-1.0,113.0,-70.0,-128.0,127.0,127.0,-120.0,-86.0,-122.0
127.0,139.0,132.0,105.0,129.0,172.0,163.0,135.0,-1.0,112.0,-70.0,-128.0,127.0,127.0,-120.0,-86.0,-122.0
127.0,139.0,132.0,105.0,129.0,172.0,162.0,135.0,-1.0,112.0,-70.0,-128.0,127.0,127.0,-120.0,-86.0,-122.0
127.0,139.0,134.0,105.0,130.0,172.0,169.0,134.0,-1.0,112.0,-70.0,-128.0,127.0,127.0,-120.0,-86.0,-122.0
127.0,139.0,133.0,105.0,129.0,172.0,168.0,134.0,-1.0,112.0,-70.0,-128.0,127.0,127.0,-120.0,-86.0,-122.0
127.0,139.0,133.0,105.0,129.0,172.0,168.0,134.0,-1.0,112.0,-70.0,-128.0,127.0,127.0,-120.0,-86.0,-122.0
127.0,139.0,133.0,105.0,129.0,172.0,167.0,134.0,-1.0,112.0,-70.0,-128.0,127.0,127.0,-120.0,-86.0,-122.0
127.0,139.0,133.0,105.0,129.0,172.0,166.0,134.0,-1.0,112.0,-70.0,-128.0,127.0,127.0,-120.0,-86.0,-122.0
127.0,139.0,132.0,105.0,129.0,172.0,165.0,134.0,-1.0,112.0,-70.0,-128.0,127.0,127.0,-120.0,-86.0,-122.0
127.0,139.0,132.0,105.0,129.0,172.0,164.0,134.0,-1.0,112.0,-70.0,-128.0,127.0,127.0,-120.0,-86.0,-122.0
127.0,139.0,132.0,104.0,129.0,172.0,164.0,134.0,-1.0,112.0,-70.0,-128.0,127.0,127.0,-120.0,-86.0,-122.0
126.0,140.0,122.0,104.0,127.0,167.0,123.0,135.0,-1.0,111.0,-70.0,-128.0,127.0,127.0,-120.0,-86.0,-122.0
127.0,140.0,123.0,103.0,128.0,167.0,127.0,134.0,-1.0,111.0,-70.0,-128.0,127.0,127.0,-120.0,-86.0,-122.0
127.0,140.0,123.0,103.0,128.0,167.0,126.0,135.0,-1.0,111.0,-70.0,-128.0,127.0,127.0,-120.0,-86.0,-122.0
127.0,140.0,123.0,103.0,127.0,167.0,126.0,135.0,-1.0,111.0,-70.0,-128.0,127.0,127.0,-120.0,-86.0,-122.0
127.0,140.0,123.0,103.0,127.0,167.0,125.0,135.0,-1.0,111.0,-70.0,-128.0,127.0,127.0,-120.0,-86.0,-122.0
127.0,140.0,123.0,103.0,127.0,167.0,125.0,135.0,-1.0,111.0,-70.0,-128.0,127.0,127.0,-120.0,-86.0,-122.0
126.0,140.0,122.0,104.0,127.0,167.0,124.0,135.0,-1.0,111.0,-70.0,-128.0,127.0,127.0,-120.0,-86.0,-122.0
126.0,140.0,122.0,104.0,127.0,167.0,124.0,135.0,-1.0,111.0,-70.0,-128.0,127.0,127.0,-120.0,-86.0,-122.0
126.0,140.0,122.0,104.0,127.0,166.0,123.0,134.0,-1.0,111.0,-70.0,-128.0,127.0,127.0,-120.0,-86.0,-122.0
127.0,140.0,122.0,104.0,127.0,167.0,123.0,135.0,-1.0,111.0,-70.0,-128.0,127.0,127.0,-120.0,-86.0,-122.0
126.0,138.0,116.0,107.0,125.0,160.0,115.0,135.0,-1.0,111.0,-70.0,-128.0,127.0,127.0,-120.0,-86.0,-122.0
126.0,138.0,116.0,107.0,124.0,160.0,115.0,134.0,-1.0,111.0,-70.0,-128.0,127.0,127.0,-120.0,-86.0,-122.0
127.0,138.0,116.0,107.0,124.0,160.0,115.0,135.0,-1.0,111.0,-70.0,-128.0,127.0,127.0,-120.0,-86.0,-122.0
127.0,138.0,116.0,107.0,124.0,160.0,115.0,135.0,-1.0,111.0,-70.0,-128.0,127.0,127.0,-120.0,-86.0,-122.0
127.0,138.0,116.0,107.0,124.0,160.0,115.0,135.0,-1.0,111.0,-70.0,-128.0,127.0,127.0,-120.0,-86.0,-122.0
127.0,138.0,116.0,107.0,124.0,159.0,115.0,134.0,-1.0,111.0,-70.0,-128.0,127.0,127.0,-120.0,-86.0,-122.0
127.0,138.0,116.0,107.0,124.0,159.0,115.0,134.0,-1.0,111.0,-70.0,-128.0,127.0,127.0,-120.0,-86.0,-122.0
127.0,138.0,115.0,107.0,124.0,159.0,115.0,134.0,-1.0,111.0,-70.0,-128.0,127.0,127.0,-120.0,-86.0,-122.0
127.0,138.0,115.0,107.0,123.0,159.0,115.0,134.0,-1.0,111.0,-70.0,-128.0,127.0,127.0,-120.0,-86.0,-122.0
127.0,138.0,115.0,107.0,123.0,159.0,115.0,134.0,-1.0,111.0,-70.0,-128.0,127.0,127.0,-120.0,-86.0,-122.0
127.0,136.0,113.0,110.0,122.0,153.0,112.0,132.0,-1.0,111.0,-70.0,-128.0,127.0,127.0,-120.0,-86.0,-122.0
127.0,136.0,113.0,110.0,122.0,153.0,112.0,131.0,-1.0,111.0,-70.0,-128.0,127.0,127.0,-120.0,-86.0,-122.0
127.0,136.0,113.0,110.0,122.0,153.0,111.0,131.0,-1.0,111.0,-70.0,-128.0,127.0,127.0,-120.0,-86.0,-122.0
127.0,135.0,113.0,110.0,122.0,152.0,111.0,131.0,-1.0,111.0,-70.0,-128.0,127.0,127.0,-120.0,-86.0,-122.0
127.0,135.0,113.0,110.0,122.0,152.0,111.0,131.0,-1.0,111.0,-70.0,-128.0,127.0,127.0,-120.0,-86.0,-122.0
127.0,135.0,113.0,110.0,122.0,152.0,111.0,131.0,-1.0,111.0,-70.0,-128.0,127.0,127.0,-120.0,-86.0,-122.0
127.0,135.0,113.0,110.0,122.0,151.0,111.0,131.0,-1.0,111.0,-70.0,-128.0,127.0,127.0,-120.0,-86.0,-122.0
127.0,135.0,113.0,110.0,122.0,151.0,111.0,131.0,-1.0,111.0,-70.0,-128.0,127.0,127.0,-120.0,-86.0,-122.0
127.0,135.0,113.0,111.0,122.0,151.0,111.0,131.0,-1.0,111.0,-70.0,-128.0,127.0,127.0,-120.0,-86.0,-122.0
127.0,136.0,113.0,110.0,122.0,153.0,112.0,132.0,-1.0,111.0,-70.0,-128.0,127.0,127.0,-120.0,-86.0,-122.0
126.0,134.0,116.0,115.0,120.0,144.0,117.0,129.0,-1.0,111.0,-70.0,-128.0,127.0,127.0,-120.0,-86.0,-122.0
126.0,134.0,117.0,115.0,120.0,144.0,117.0,129.0,-1.0,111.0,-70.0,-128.0,127.0,127.0,-120.0,-86.0,-122.0
127.0,134.0,117.0,115.0,120.0,144.0,117.0,129.0,-1.0,111.0,-70.0,-128.0,127.0,127.0,-120.0,-86.0,-122.0
127.0,134.0,117.0,115.0,120.0,144.0,117.0,129.0,-1.0,111.0,-70.0,-128.0,127.0,127.0,-120.0,-86.0,-122.0
127.0,134.0,117.0,115.0,120.0,144.0,117.0,129.0,-1.0,111.0,-70.0,-128.0,127.0,127.0,-120.0,-86.0,-122.0
127.0,134.0,117.0,115.0,120.0,144.0,118.0,129.0,-1.0,111.0,-70.0,-128.0,127.0,127.0,-120.0,-86.0,-122.0
127.0,134.0,117.0,115.0,120.0,143.0,118.0,129.0,-1.0,111.0,-70.0,-128.0,127.0,127.0,-120.0,-86.0,-122.0
127.0,134.0,117.0,116.0,120.0,143.0,118.0,128.0,-1.0,111.0,-70.0,-128.0,127.0,127.0,-120.0,-86.0,-122.0
127.0,134.0,116.0,114.0,120.0,145.0,116.0,129.0,-1.0,111.0,-70.0,-128.0,127.0,127.0,-120.0,-86.0,-122.0
127.0,134.0,116.0,114.0,120.0,145.0,116.0,129.0,-1.0,111.0,-70.0,-128.0,127.0,127.0,-120.0,-86.0,-122.0
127.0,133.0,120.0,121.0,119.0,135.0,124.0,128.0,-1.0,111.0,-70.0,-128.0,127.0,127.0,-120.0,-86.0,-122.0
127.0,133.0,120.0,121.0,119.0,135.0,124.0,128.0,-1.0,111.0,-70.0,-128.0,127.0,127.0,-120.0,-86.0,-122.0
127.0,133.0,120.0,121.0,119.0,135.0,124.0,128.0,-1.0,111.0,-70.0,-128.0,127.0,127.0,-120.0,-86.0,-122.0
126.0,133.0,120.0,121.0,119.0,135.0,124.0,128.0,-1.0,111.0,-70.0,-128.0,127.0,127.0,-120.0,-86.0,-122.0
126.0,133.0,120.0,121.0,119.0,135.0,124.0,128.0,-1.0,111.0,-70.0,-128.0,127.0,127.0,-120.0,-86.0,-122.0
126.0,133.0,121.0,121.0,119.0,135.0,124.0,128.0,-1.0,111.0,-70.0,-128.0,127.0,127.0,-120.0,-86.0,-122.0
127.0,133.0,120.0,121.0,119.0,134.0,124.0,127.0,-1.0,111.0,-70.0,-128.0,127.0,127.0,-120.0,-86.0,-122.0
126.0,133.0,120.0,120.0,119.0,136.0,124.0,128.0,-1.0,111.0,-70.0,-128.0,127.0,127.0,-120.0,-86.0,-122.0
126.0,133.0,120.0,120.0,119.0,136.0,124.0,128.0,-1.0,111.0,-70.0,-128.0,127.0,127.0,-120.0,-86.0,-122.0
126.0,133.0,120.0,121.0,119.0,135.0,124.0,128.0,-1.0,111.0,-70.0,-128.0,127.0,127.0,-120.0,-86.0,-122.0
127.0,131.0,121.0,124.0,121.0,133.0,127.0,127.0,-1.0,111.0,-70.0,-128.0,127.0,127.0,-120.0,-86.0,-122.0
126.0,131.0,121.0,124.0,121.0,133.0,127.0,127.0,-1.0,111.0,-70.0,-128.0,127.0,127.0,-120.0,-86.0,-122.0
126.0,131.0,121.0,124.0,121.0,133.0,127.0,127.0,-1.0,111.0,-70.0,-128.0,127.0,127.0,-120.0,-86.0,-122.0
126.0,131.0,121.0,124.0,121.0,133.0,127.0,127.0,-1.0,111.0,-70.0,-128.0,127.0,127.0,-120.0,-86.0,-122.0
126.0,131.0,121.0,124.0,121.0,133.0,127.0,127.0,-1.0,111.0,-70.0,-128.0,127.0,127.0,-120.0,-86.0,-122.0
126.0,131.0,121.0,124.0,121.0,133.0,127.0,127.0,-1.0,111.0,-70.0,-128.0,127.0,127.0,-120.0,-86.0,-122.0
127.0,131.0,121.0,124.0,121.0,133.0,126.0,127.0,-1.0,111.0,-70.0,-128.0,127.0,127.0,-120.0,-86.0,-122.0
127.0,131.0,121.0,124.0,121.0,133.0,126.0,127.0,-1.0,111.0,-70.0,-128.0,127.0,127.0,-120.0,-86.0,-122.0
127.0,131.0,121.0,124.0,121.0,133.0,127.0,127.0,-1.0,111.0,-70.0,-128.0,127.0,127.0,-120.0,-86.0,-122.0
127.0,131.0,121.0,124.0,121.0,133.0,127.0,127.0,-1.0,111.0,-70.0,-128.0,127.0,127.0,-120.0,-86.0,-122.0
127.0,130.0,121.0,127.0,123.0,134.0,111.0,128.0,-1.0,112.0,-70.0,-128.0,127.0,127.0,-120.0,-86.0,-122.0
127.0,130.0,121.0,127.0,123.0,134.0,110.0,128.0,-1.0,112.0,-70.0,-128.0,127.0,127.0,-120.0,-86.0,-122.0
127.0,130.0,121.0,127.0,123.0,134.0,110.0,128.0,-1.0,112.0,-70.0,-128.0,127.0,127.0,-120.0,-86.0,-122.0
127.0,130.0,121.0,127.0,123.0,134.0,110.0,128.0,-1.0,112.0,-70.0,-128.0,127.0,127.0,-120.0,-86.0,-122.0
127.0,130.0,121.0,127.0,123.0,133.0,110.0,128.0,-1.0,112.0,-70.0,-128.0,127.0,127.0,-120.0,-86.0,-122.0
127.0,130.0,121.0,126.0,123.0,134.0,112.0,128.0,-1.0,112.0,-70.0,-128.0,127.0,127.0,-120.0,-86.0,-122.0
127.0,130.0,121.0,127.0,123.0,134.0,112.0,128.0,-1.0,112.0,-70.0,-128.0,127.0,127.0,-120.0,-86.0,-122.0
127.0,130.0,121.0,127.0,123.0,134.0,111.0,128.0,-1.0,112.0,-70.0,-128.0,127.0,127.0,-120.0,-86.0,-122.0
127.0,130.0,121.0,127.0,123.0,134.0,111.0,128.0,-1.0,112.0,-70.0,-128.0,127.0,127.0,-120.0,-86.0,-122.0
127.0,130.0,121.0,127.0,123.0,134.0,111.0,128.0,-1.0,112.0,-70.0,-128.0,127.0,127.0,-120.0,-86.0,-122.0
127.0,129.0,121.0,128.0,123.0,131.0,111.0,128.0,-1.0,112.0,-69.0,127.0,127.0,127.0,-120.0,-86.0,-122.0
127.0,129.0,121.0,128.0,123.0,131.0,111.0,128.0,-1.0,112.0,-69.0,127.0,127.0,127.0,-120.0,-86.0,-122.0
127.0,129.0,121.0,128.0,123.0,130.0,111.0,128.0,-1.0,112.0,-69.0,127.0,127.0,127.0,-120.0,-86.0,-122.0
127.0,129.0,121.0,129.0,123.0,130.0,111.0,128.0,-1.0,112.0,-69.0,127.0,127.0,127.0,-120.0,-86.0,-122.0
127.0,129.0,121.0,128.0,123.0,131.0,109.0,128.0,-1.0,112.0,-69.0,127.0,127.0,127.0,-120.0,-86.0,-122.0
127.0,129.0,121.0,128.0,123.0,131.0,109.0,128.0,-1.0,112.0,-69.0,127.0,127.0,127.0,-120.0,-86.0,-122.0
127.0,129.0,121.0,128.0,123.0,131.0,109.0,128.0,-1.0,112.0,-69.0,127.0,127.0,127.0,-120.0,-86.0,-122.0
127.0,129.0,121.0,128.0,123.0,131.0,110.0,128.0,-1.0,112.0,-69.0,127.0,127.0,127.0,-120.0,-86.0,-122.0
127.0,129.0,121.0,128.0,123.0,131.0,110.0,128.0,-1.0,112.0,-69.0,127.0,127.0,127.0,-120.0,-86.0,-122.0
127.0,129.0,121.0,128.0,123.0,131.0,110.0,128.0,-1.0,112.0,-69.0,127.0,127.0,127.0,-120.0,-86.0,-122.0
127.0,128.0,122.0,130.0,122.0,129.0,117.0,128.0,-1.0,113.0,-69.0,127.0,127.0,127.0,-120.0,-86.0,-122.0
127.0,128.0,122.0,130.0,122.0,129.0,117.0,128.0,-1.0,113.0,-69.0,127.0,127.0,127.0,-120.0,-86.0,-122.0
127.0,128.0,122.0,130.0,122.0,129.0,117.0,128.0,-1.0,113.0,-69.0,127.0,127.0,127.0,-120.0,-86.0,-122.0
127.0,129.0,122.0,129.0,122.0,129.0,118.0,128.0,-1.0,113.0,-69.0,127.0,127.0,127.0,-120.0,-86.0,-122.0
127.0,129.0,122.0,129.0,122.0,130.0,118.0,128.0,-1.0,113.0,-69.0,127.0,127.0,127.0,-120.0,-86.0,-122.0
127.0,129.0,122.0,129.0,122.0,129.0,118.0,128.0,-1.0,113.0,-69.0,127.0,127.0,127.0,-120.0,-86.0,-122.0
127.0,129.0,122.0,129.0,122.0,129.0,118.0,128.0,-1.0,113.0,-69.0,127.0,127.0,127.0,-120.0,-86.0,-122.0
127.0,129.0,122.0,129.0,122.0,129.0,118.0,128.0,-1.0,113.0,-69.0,127.0,127.0,127.0,-120.0,-86.0,-122.0
127.0,129.0,122.0,130.0,122.0,129.0,118.0,128.0,-1.0,113.0,-69.0,127.0,127.0,127.0,-120.0,-86.0,-122.0
127.0,128.0,122.0,130.0,122.0,129.0,118.0,128.0,-1.0,113.0,-69.0,127.0,127.0,127.0,-120.0,-86.0,-122.0
127.0,128.0,123.0,131.0,122.0,127.0,114.0,127.0,-1.0,113.0,-69.0,127.0,127.0,127.0,-120.0,-86.0,-122.0
127.0,128.0,123.0,131.0,122.0,127.0,114.0,127.0,-1.0,113.0,-69.0,127.0,127.0,127.0,-120.0,-86.0,-122.0
126.0,128.0,123.0,131.0,121.0,128.0,115.0,128.0,-1.0,113.0,-69.0,127.0,127.0,127.0,-120.0,-86.0,-122.0
126.0,128.0,123.0,131.0,121.0,128.0,115.0,128.0,-1.0,113.0,-69.0,127.0,127.0,127.0,-120.0,-86.0,-122.0
127.0,128.0,123.0,131.0,121.0,128.0,115.0,128.0,-1.0,113.0,-69.0,127.0,127.0,127.0,-120.0,-86.0,-122.0
127.0,128.0,123.0,131.0,122.0,128.0,115.0,128.0,-1.0,113.0,-69.0,127.0,127.0,127.0,-120.0,-86.0,-122.0
127.0,128.0,123.0,131.0,122.0,127.0,114.0,128.0,-1.0,113.0,-69.0,127.0,127.0,127.0,-120.0,-86.0,-122.0
127.0,128.0,123.0,131.0,122.0,127.0,114.0,128.0,-1.0,113.0,-69.0,127.0,127.0,127.0,-120.0,-86.0,-122.0
127.0,128.0,123.0,131.0,122.0,127.0,114.0,128.0,-1.0,113.0,-69.0,127.0,127.0,127.0,-120.0,-86.0,-122.0
127.0,128.0,123.0,131.0,122.0,127.0,114.0,128.0,-1.0,113.0,-69.0,127.0,127.0,127.0,-120.0,-86.0,-122.0
127.0,127.0,125.0,133.0,122.0,127.0,114.0,126.0,-1.0,113.0,-68.0,127.0,127.0,127.0,-120.0,-86.0,-122.0
127.0,128.0,124.0,133.0,122.0,127.0,115.0,127.0,-1.0,113.0,-68.0,127.0,127.0,127.0,-120.0,-86.0,-122.0
127.0,128.0,124.0,133.0,122.0,127.0,115.0,127.0,-1.0,113.0,-68.0,127.0,127.0,127.0,-120.0,-86.0,-122.0
127.0,128.0,124.0,133.0,122.0,127.0,115.0,127.0,-1.0,113.0,-68.0,127.0,127.0,127.0,-120.0,-86.0,-122.0
127.0,128.0,124.0,133.0,122.0,127.0,115.0,127.0,-1.0,113.0,-68.0,127.0,127.0,127.0,-120.0,-86.0,-122.0
127.0,128.0,125.0,133.0,122.0,127.0,115.0,126.0,-1.0,113.0,-68.0,127.0,127.0,127.0,-120.0,-86.0,-122.0
127.0,128.0,125.0,133.0,122.0,127.0,115.0,126.0,-1.0,113.0,-68.0,127.0,127.0,127.0,-120.0,-86.0,-122.0
127.0,127.0,125.0,133.0,122.0,127.0,115.0,126.0,-1.0,113.0,-68.0,127.0,127.0,127.0,-120.0,-86.0,-122.0
127.0,127.0,125.0,133.0,122.0,127.0,115.0,126.0,-1.0,113.0,-68.0,127.0,127.0,127.0,-120.0,-86.0,-122.0
127.0,127.0,125.0,133.0,122.0,127.0,115.0,126.0,-1.0,113.0,-68.0,127.0,127.0,127.0,-120.0,-86.0,-122.0
127.0,128.0,126.0,134.0,123.0,128.0,115.0,126.0,-1.0,113.0,-68.0,127.0,127.0,127.0,-120.0,-86.0,-122.0
126.0,128.0,126.0,134.0,123.0,128.0,115.0,126.0,-1.0,113.0,-68.0,127.0,127.0,127.0,-120.0,-86.0,-122.0
126.0,128.0,126.0,134.0,123.0,128.0,116.0,126.0,-1.0,113.0,-68.0,127.0,127.0,127.0,-120.0,-86.0,-122.0
126.0,128.0,126.0,134.0,123.0,128.0,116.0,126.0,-1.0,113.0,-68.0,127.0,127.0,127.0,-120.0,-86.0,-122.0
126.0,128.0,126.0,134.0,123.0,128.0,116.0,125.0,-1.0,113.0,-68.0,127.0,127.0,127.0,-120.0,-86.0,-122.0
127.0,128.0,126.0,134.0,123.0,128.0,116.0,125.0,-1.0,113.0,-68.0,127.0,127.0,127.0,-120.0,-86.0,-122.0
127.0,128.0,126.0,134.0,123.0,128.0,116.0,125.0,-1.0,113.0,-68.0,127.0,127.0,127.0,-120.0,-86.0,-122.0
127.0,128.0,126.0,134.0,123.0,128.0,116.0,125.0,-1.0,113.0,-68.0,127.0,127.0,127.0,-120.0,-86.0,-122.0
127.0,128.0,126.0,134.0,123.0,128.0,117.0,125.0,-1.0,113.0,-68.0,127.0,127.0,127.0,-120.0,-86.0,-122.0
127.0,127.0,126.0,134.0,123.0,128.0,117.0,125.0,-1.0,113.0,-68.0,127.0,127.0,127.0,-120.0,-86.0,-122.0
127.0,127.0,127.0,135.0,124.0,129.0,120.0,126.0,-1.0,113.0,-68.0,127.0,127.0,127.0,-120.0,-86.0,-122.0
127.0,127.0,127.0,135.0,124.0,128.0,120.0,126.0,-1.0,113.0,-68.0,127.0,127.0,127.0,-120.0,-86.0,-122.0
127.0,127.0,127.0,135.0,124.0,128.0,120.0,126.0,-1.0,113.0,-68.0,127.0,127.0,127.0,-120.0,-86.0,-122.0
127.0,127.0,127.0,135.0,124.0,128.0,120.0,126.0,-1.0,113.0,-68.0,127.0,127.0,127.0,-120.0,-86.0,-122.0
127.0,127.0,127.0,135.0,124.0,128.0,120.0,126.0,-1.0,113.0,-68.0,127.0,127.0,127.0,-120.0,-86.0,-122.0
127.0,127.0,127.0,135.0,124.0,128.0,120.0,126.0,-1.0,113.0,-68.0,127.0,127.0,127.0,-120.0,-86.0,-122.0
127.0,127.0,127.0,135.0,124.0,129.0,120.0,126.0,-1.0,113.0,-68.0,127.0,127.0,127.0,-120.0,-86.0,-122.0
127.0,127.0,127.0,135.0,124.0,128.0,120.0,126.0,-1.0,113.0,-68.0,127.0,127.0,127.0,-120.0,-86.0,-122.0
127.0,127.0,127.0,135.0,124.0,128.0,120.0,126.0,-1.0,113.0,-68.0,127.0,127.0,127.0,-120.0,-86.0,-122.0
126.0,127.0,127.0,135.0,124.0,128.0,120.0,126.0,-1.0,113.0,-68.0,127.0,127.0,127.0,-120.0,-86.0,-122.0
127.0,128.0,126.0,135.0,126.0,130.0,128.0,128.0,-1.0,113.0,-67.0,127.0,127.0,127.0,-120.0,-86.0,-122.0
127.0,128.0,126.0,135.0,126.0,130.0,128.0,128.0,-1.0,113.0,-67.0,127.0,127.0,127.0,-120.0,-86.0,-122.0
127.0,127.0,126.0,135.0,126.0,130.0,128.0,128.0,-1.0,113.0,-67.0,127.0,127.0,127.0,-120.0,-86.0,-122.0
127.0,127.0,126.0,134.0,127.0,130.0,128.0,128.0,-1.0,113.0,-67.0,127.0,127.0,127.0,-120.0,-86.0,-122.0
127.0,127.0,126.0,134.0,127.0,130.0,128.0,128.0,-1.0,113.0,-67.0,127.0,127.0,127.0,-120.0,-86.0,-122.0
127.0,127.0,126.0,134.0,127.0,129.0,128.0,128.0,-1.0,113.0,-67.0,127.0,127.0,127.0,-120.0,-86.0,-122.0
127.0,127.0,126.0,134.0,127.0,129.0,128.0,128.0,-1.0,113.0,-67.0,127.0,127.0,127.0,-120.0,-86.0,-122.0
127.0,127.0,126.0,134.0,127.0,129.0,128.0,128.0,-1.0,113.0,-67.0,127.0,127.0,127.0,-120.0,-86.0,-122.0
127.0,128.0,126.0,135.0,126.0,129.0,128.0,127.0,-1.0,113.0,-67.0,127.0,127.0,127.0,-120.0,-86.0,-122.0
127.0,128.0,126.0,135.0,126.0,130.0,128.0,128.0,-1.0,113.0,-67.0,127.0,127.0,127.0,-120.0,-86.0,-122.0
126.0,127.0,126.0,134.0,129.0,129.0,132.0,128.0,-1.0,113.0,-67.0,127.0,127.0,127.0,-120.0,-86.0,-122.0
126.0,127.0,126.0,134.0,129.0,129.0,133.0,129.0,-1.0,113.0,-67.0,127.0,127.0,127.0,-120.0,-86.0,-122.0
127.0,127.0,126.0,134.0,129.0,129.0,133.0,129.0,-1.0,113.0,-67.0,127.0,127.0,127.0,-120.0,-86.0,-122.0
127.0,127.0,126.0,134.0,129.0,129.0,133.0,129.0,-1.0,113.0,-67.0,127.0,127.0,127.0,-120.0,-86.0,-122.0
127.0,127.0,125.0,134.0,129.0,129.0,133.0,129.0,-1.0,113.0,-67.0,127.0,127.0,127.0,-120.0,-86.0,-122.0
127.0,127.0,125.0,134.0,129.0,129.0,133.0,129.0,-1.0,113.0,-67.0,127.0,127.0,127.0,-120.0,-86.0,-122.0
127.0,127.0,125.0,134.0,129.0,129.0,133.0,128.0,-1.0,113.0,-67.0,127.0,127.0,127.0,-120.0,-86.0,-122.0
126.0,127.0,126.0,134.0,129.0,128.0,132.0,128.0,-1.0,113.0,-67.0,127.0,127.0,127.0,-120.0,-86.0,-122.0
126.0,127.0,126.0,134.0,129.0,128.0,132.0,128.0,-1.0,113.0,-67.0,127.0,127.0,127.0,-120.0,-86.0,-122.0
126.0,127.0,126.0,134.0,129.0,129.0,132.0,128.0,-1.0,113.0,-67.0,127.0,127.0,127.0,-120.0,-86.0,-122.0
127.0,128.0,124.0,133.0,129.0,127.0,134.0,129.0,-1.0,113.0,-68.0,127.0,127.0,127.0,-120.0,-86.0,-122.0
127.0,128.0,124.0,133.0,129.0,127.0,134.0,129.0,-1.0,113.0,-68.0,127.0,127.0,127.0,-120.0,-86.0,-122.0
127.0,128.0,124.0,133.0,129.0,127.0,134.0,129.0,-1.0,113.0,-68.0,127.0,127.0,127.0,-120.0,-86.0,-122.0
127.0,128.0,124.0,133.0,129.0,127.0,134.0,129.0,-1.0,113.0,-68.0,127.0,127.0,127.0,-120.0,-86.0,-122.0
127.0,128.0,124.0,133.0,129.0,127.0,133.0,129.0,-1.0,113.0,-68.0,127.0,127.0,127.0,-120.0,-86.0,-122.0
126.0,128.0,124.0,133.0,129.0,127.0,133.0,129.0,-1.0,113.0,-68.0,127.0,127.0,127.0,-120.0,-86.0,-122.0
127.0,128.0,124.0,133.0,129.0,128.0,134.0,129.0,-1.0,113.0,-68.0,127.0,127.0,127.0,-120.0,-86.0,-122.0
127.0,128.0,124.0,133.0,129.0,128.0,134.0,129.0,-1.0,113.0,-68.0,127.0,127.0,127.0,-120.0,-86.0,-122.0
127.0,128.0,124.0,133.0,129.0,128.0,134.0,129.0,-1.0,113.0,-68.0,127.0,127.0,127.0,-120.0,-86.0,-122.0
127.0,128.0,124.0,133.0,129.0,128.0,134.0,129.0,-1.0,113.0,-68.0,127.0,127.0,127.0,-120.0,-86.0,-122.0
127.0,127.0,126.0,135.0,128.0,127.0,131.0,128.0,-1.0,113.0,-68.0,127.0,127.0,127.0,-120.0,-86.0,-122.0
127.0,127.0,126.0,135.0,128.0,127.0,131.0,128.0,-1.0,113.0,-68.0,127.0,127.0,127.0,-120.0,-86.0,-122.0
127.0,127.0,126.0,135.0,128.0,126.0,131.0,128.0,-1.0,113.0,-68.0,127.0,127.0,127.0,-120.0,-86.0,-122.0
127.0,127.0,126.0,135.0,128.0,126.0,131.0,128.0,-1.0,113.0,-68.0,127.0,127.0,127.0,-120.0,-86.0,-122.0
127.0,127.0,126.0,135.0,128.0,126.0,131.0,128.0,-1.0,113.0,-68.0,127.0,127.0,127.0,-120.0,-86.0,-122.0
127.0,128.0,126.0,135.0,128.0,127.0,132.0,129.0,-1.0,113.0,-68.0,127.0,127.0,127.0,-120.0,-86.0,-122.0
127.0,128.0,126.0,135.0,128.0,127.0,131.0,129.0,-1.0,113.0,-68.0,127.0,127.0,127.0,-120.0,-86.0,-122.0
127.0,128.0,126.0,135.0,128.0,127.0,131.0,129.0,-1.0,113.0,-68.0,127.0,127.0,127.0,-120.0,-86.0,-122.0
127.0,128.0,126.0,135.0,128.0,127.0,131.0,129.0,-1.0,113.0,-68.0,127.0,127.0,127.0,-120.0,-86.0,-122.0
127.0,127.0,126.0,135.0,128.0,127.0,131.0,129.0,-1.0,113.0,-68.0,127.0,127.0,127.0,-120.0,-86.0,-122.0
127.0,127.0,126.0,136.0,127.0,125.0,129.0,128.0,-1.0,113.0,-68.0,127.0,127.0,127.0,-120.0,-86.0,-122.0
127.0,127.0,126.0,136.0,127.0,125.0,129.0,128.0,-1.0,113.0,-68.0,127.0,127.0,127.0,-120.0,-86.0,-122.0
127.0,127.0,126.0,136.0,127.0,125.0,129.0,128.0,-1.0,113.0,-68.0,127.0,127.0,127.0,-120.0,-86.0,-122.0
127.0,127.0,126.0,136.0,127.0,125.0,129.0,128.0,-1.0,113.0,-68.0,127.0,127.0,127.0,-120.0,-86.0,-122.0
127.0,127.0,126.0,136.0,127.0,126.0,129.0,128.0,-1.0,113.0,-68.0,127.0,127.0,127.0,-120.0,-86.0,-122.0
127.0,127.0,126.0,136.0,127.0,126.0,129.0,128.0,-1.0,113.0,-68.0,127.0,127.0,127.0,-120.0,-86.0,-122.0
127.0,127.0,126.0,136.0,127.0,126.0,129.0,128.0,-1.0,113.0,-68.0,127.0,127.0,127.0,-120.0,-86.0,-122.0
127.0,127.0,126.0,136.0,127.0,126.0,129.0,128.0,-1.0,113.0,-68.0,127.0,127.0,127.0,-120.0,-86.0,-122.0
127.0,127.0,126.0,136.0,127.0,126.0,129.0,128.0,-1.0,113.0,-68.0,127.0,127.0,127.0,-120.0,-86.0,-122.0
127.0,127.0,126.0,136.0,127.0,125.0,129.0,128.0,-1.0,113.0,-68.0,127.0,127.0,127.0,-120.0,-86.0,-122.0
126.0,127.0,127.0,136.0,127.0,125.0,126.0,128.0,-1.0,113.0,-68.0,127.0,127.0,127.0,-120.0,-86.0,-122.0
126.0,127.0,127.0,136.0,127.0,125.0,126.0,128.0,-1.0,113.0,-68.0,127.0,127.0,127.0,-120.0,-86.0,-122.0
126.0,127.0,127.0,136.0,127.0,125.0,126.0,128.0,-1.0,113.0,-68.0,127.0,127.0,127.0,-120.0,-86.0,-122.0
127.0,128.0,127.0,136.0,127.0,125.0,127.0,128.0,-1.0,113.0,-68.0,127.0,127.0,127.0,-120.0,-86.0,-122.0
127.0,128.0,127.0,136.0,127.0,125.0,127.0,128.0,-1.0,113.0,-68.0,127.0,127.0,127.0,-120.0,-86.0,-122.0
127.0,128.0,127.0,136.0,127.0,125.0,127.0,128.0,-1.0,113.0,-68.0,127.0,127.0,127.0,-120.0,-86.0,-122.0
127.0,128.0,127.0,136.0,127.0,125.0,127.0,128.0,-1.0,113.0,-68.0,127.0,127.0,127.0,-120.0,-86.0,-122.0
127.0,128.0,127.0,136.0,127.0,125.0,127.0,128.0,-1.0,113.0,-68.0,127.0,127.0,127.0,-120.0,-86.0,-122.0
127.0,127.0,127.0,136.0,127.0,125.0,127.0,128.0,-1.0,113.0,-68.0,127.0,127.0,127.0,-120.0,-86.0,-122.0
127.0,127.0,127.0,136.0,127.0,125.0,126.0,128.0,-1.0,113.0,-68.0,127.0,127.0,127.0,-120.0,-86.0,-122.0
127.0,128.0,127.0,136.0,127.0,125.0,125.0,128.0,-1.0,113.0,-68.0,127.0,127.0,127.0,-120.0,-86.0,-122.0
127.0,128.0,127.0,136.0,127.0,125.0,125.0,128.0,-1.0,113.0,-68.0,127.0,127.0,127.0,-120.0,-86.0,-122.0
127.0,128.0,127.0,137.0,127.0,126.0,125.0,129.0,-1.0,113.0,-68.0,127.0,127.0,127.0,-120.0,-86.0,-122.0
127.0,128.0,127.0,136.0,127.0,126.0,125.0,129.0,-1.0,113.0,-68.0,127.0,127.0,127.0,-120.0,-86.0,-122.0
127.0,128.0,127.0,137.0,127.0,126.0,125.0,129.0,-1.0,113.0,-68.0,127.0,127.0,127.0,-120.0,-86.0,-122.0
127.0,128.0,127.0,136.0,127.0,126.0,125.0,129.0,-1.0,113.0,-68.0,127.0,127.0,127.0,-120.0,-86.0,-122.0
127.0,128.0,127.0,136.0,127.0,126.0,125.0,129.0,-1.0,113.0,-68.0,127.0,127.0,127.0,-120.0,-86.0,-122.0
127.0,128.0,127.0,136.0,127.0,126.0,125.0,128.0,-1.0,113.0,-68.0,127.0,127.0,127.0,-120.0,-86.0,-122.0
127.0,128.0,127.0,136.0,127.0,126.0,125.0,129.0,-1.0,113.0,-68.0,127.0,127.0,127.0,-120.0,-86.0,-122.0
127.0,128.0,127.0,136.0,127.0,125.0,125.0,128.0,-1.0,113.0,-68.0,127.0,127.0,127.0,-120.0,-86.0,-122.0
127.0,127.0,127.0,137.0,126.0,125.0,125.0,129.0,-1.0,113.0,-68.0,127.0,127.0,127.0,-120.0,-86.0,-122.0
127.0,128.0,127.0,137.0,126.0,126.0,125.0,129.0,-1.0,113.0,-68.0,127.0,127.0,127.0,-120.0,-86.0,-122.0
127.0,128.0,127.0,137.0,126.0,126.0,125.0,129.0,-1.0,113.0,-68.0,127.0,127.0,127.0,-120.0,-86.0,-122.0
127.0,128.0,127.0,137.0,126.0,126.0,126.0,129.0,-1.0,113.0,-68.0,127.0,127.0,127.0,-120.0,-86.0,-122.0
127.0,128.0,127.0,137.0,126.0,126.0,125.0,129.0,-1.0,113.0,-68.0,127.0,127.0,127.0,-120.0,-86.0,-122.0
127.0,128.0,127.0,137.0,126.0,126.0,126.0,129.0,-1.0,113.0,-68.0,127.0,127.0,127.0,-120.0,-86.0,-122.0
127.0,128.0,127.0,137.0,126.0,126.0,125.0,129.0,-1.0,113.0,-68.0,127.0,127.0,127.0,-120.0,-86.0,-122.0
127.0,128.0,127.0,137.0,126.0,126.0,125.0,129.0,-1.0,113.0,-68.0,127.0,127.0,127.0,-120.0,-86.0,-122.0
127.0,127.0,127.0,137.0,126.0,126.0,125.0,129.0,-1.0,113.0,-68.0,127.0,127.0,127.0,-120.0,-86.0,-122.0
127.0,127.0,127.0,138.0,126.0,125.0,125.0,129.0,-1.0,113.0,-68.0,127.0,127.0,127.0,-120.0,-86.0,-122.0
127.0,128.0,128.0,138.0,126.0,126.0,124.0,129.0,-1.0,113.0,-67.0,127.0,127.0,127.0,-120.0,-86.0,-122.0
127.0,128.0,128.0,138.0,126.0,126.0,124.0,129.0,-1.0,113.0,-67.0,127.0,127.0,127.0,-120.0,-86.0,-122.0
127.0,128.0,128.0,138.0,126.0,126.0,124.0,128.0,-1.0,113.0,-67.0,127.0,127.0,127.0,-120.0,-86.0,-122.0
127.0,128.0,128.0,138.0,126.0,126.0,124.0,129.0,-1.0,113.0,-67.0,127.0,127.0,127.0,-120.0,-86.0,-122.0
127.0,128.0,128.0,138.0,126.0,126.0,124.0,129.0,-1.0,113.0,-67.0,127.0,127.0,127.0,-120.0,-86.0,-122.0
127.0,128.0,128.0,138.0,126.0,125.0,124.0,128.0,-1.0,113.0,-67.0,127.0,127.0,127.0,-120.0,-86.0,-122.0
127.0,128.0,127.0,138.0,126.0,125.0,124.0,128.0,-1.0,113.0,-67.0,127.0,127.0,127.0,-120.0,-86.0,-122.0
127.0,128.0,127.0,138.0,126.0,125.0,124.0,128.0,-1.0,113.0,-67.0,127.0,127.0,127.0,-120.0,-86.0,-122.0
127.0,128.0,127.0,138.0,126.0,125.0,124.0,128.0,-1.0,113.0,-67.0,127.0,127.0,127.0,-120.0,-86.0,-122.0
127.0,128.0,127.0,138.0,126.0,125.0,124.0,128.0,-1.0,113.0,-67.0,127.0,127.0,127.0,-120.0,-86.0,-122.0
127.0,127.0,127.0,138.0,127.0,124.0,123.0,128.0,-1.0,113.0,-67.0,127.0,127.0,127.0,-120.0,-86.0,-122.0
127.0,127.0,127.0,138.0,126.0,124.0,123.0,128.0,-1.0,113.0,-67.0,127.0,127.0,127.0,-120.0,-86.0,-122.0
127.0,128.0,127.0,138.0,126.0,124.0,124.0,128.0,-1.0,113.0,-67.0,127.0,127.0,127.0,-120.0,-86.0,-122.0
127.0,128.0,127.0,138.0,126.0,124.0,124.0,128.0,-1.0,113.0,-67.0,127.0,127.0,127.0,-120.0,-86.0,-122.0
127.0,127.0,127.0,138.0,126.0,124.0,124.0,128.0,-1.0,113.0,-67.0,127.0,127.0,127.0,-120.0,-86.0,-122.0
127.0,127.0,127.0,138.0,126.0,124.0,124.0,128.0,-1.0,113.0,-67.0,127.0,127.0,127.0,-120.0,-86.0,-122.0
127.0,127.0,127.0,138.0,126.0,124.0,124.0,128.0,-1.0,113.0,-67.0,127.0,127.0,127.0,-120.0,-86.0,-122.0
127.0,127.0,127.0,138.0,126.0,124.0,124.0,128.0,-1.0,113.0,-67.0,127.0,127.0,127.0,-120.0,-86.0,-122.0
127.0,128.0,127.0,138.0,126.0,125.0,124.0,129.0,-1.0,113.0,-67.0,127.0,127.0,127.0,-120.0,-86.0,-122.0
127.0,127.0,127.0,138.0,127.0,124.0,123.0,128.0,-1.0,113.0,-67.0,127.0,127.0,127.0,-120.0,-86.0,-122.0
127.0,127.0,127.0,138.0,126.0,124.0,128.0,128.0,-1.0,113.0,-67.0,127.0,127.0,127.0,-121.0,-86.0,-122.0
127.0,127.0,127.0,138.0,126.0,124.0,128.0,128.0,-1.0,113.0,-67.0,127.0,127.0,127.0,-121.0,-86.0,-122.0
127.0,127.0,127.0,138.0,126.0,124.0,128.0,128.0,-1.0,113.0,-67.0,127.0,127.0,127.0,-121.0,-86.0,-122.0
127.0,127.0,127.0,138.0,126.0,124.0,128.0,128.0,-1.0,113.0,-67.0,127.0,127.0,127.0,-121.0,-86.0,-122.0
127.0,127.0,127.0,138.0,127.0,124.0,128.0,128.0,-1.0,113.0,-67.0,127.0,127.0,127.0,-121.0,-86.0,-122.0
126.0,127.0,127.0,138.0,126.0,124.0,128.0,128.0,-1.0,113.0,-67.0,127.0,127.0,127.0,-121.0,-86.0,-122.0
126.0,127.0,127.0,138.0,126.0,124.0,128.0,128.0,-1.0,113.0,-67.0,127.0,127.0,127.0,-121.0,-86.0,-122.0
127.0,128.0,127.0,138.0,126.0,124.0,129.0,129.0,-1.0,113.0,-67.0,127.0,127.0,127.0,-121.0,-86.0,-122.0
127.0,127.0,127.0,138.0,127.0,123.0,127.0,128.0,-1.0,113.0,-67.0,127.0,127.0,127.0,-121.0,-86.0,-122.0
127.0,127.0,127.0,138.0,127.0,123.0,127.0,128.0,-1.0,113.0,-67.0,127.0,127.0,127.0,-121.0,-86.0,-122.0
126.0,127.0,127.0,138.0,127.0,125.0,132.0,128.0,-1.0,114.0,-67.0,127.0,127.0,127.0,-121.0,-86.0,-122.0
127.0,127.0,127.0,138.0,127.0,125.0,132.0,128.0,-1.0,114.0,-67.0,127.0,127.0,127.0,-121.0,-86.0,-122.0
127.0,127.0,127.0,138.0,127.0,125.0,132.0,128.0,-1.0,114.0,-67.0,127.0,127.0,127.0,-121.0,-86.0,-122.0
127.0,127.0,128.0,138.0,127.0,125.0,132.0,128.0,-1.0,114.0,-67.0,127.0,127.0,127.0,-121.0,-86.0,-122.0
127.0,127.0,128.0,138.0,127.0,125.0,132.0,128.0,-1.0,114.0,-67.0,127.0,127.0,127.0,-121.0,-86.0,-122.0
127.0,127.0,127.0,138.0,127.0,125.0,132.0,128.0,-1.0,114.0,-67.0,127.0,127.0,127.0,-121.0,-86.0,-122.0
127.0,127.0,127.0,138.0,127.0,125.0,132.0,128.0,-1.0,114.0,-67.0,127.0,127.0,127.0,-121.0,-86.0,-122.0
126.0,127.0,127.0,138.0,127.0,124.0,132.0,128.0,-1.0,114.0,-67.0,127.0,127.0,127.0,-121.0,-86.0,-122.0
126.0,127.0,127.0,138.0,127.0,124.0,132.0,128.0,-1.0,114.0,-67.0,127.0,127.0,127.0,-121.0,-86.0,-122.0
126.0,127.0,127.0,138.0,127.0,124.0,132.0,128.0,-1.0,114.0,-67.0,127.0,127.0,127.0,-121.0,-86.0,-122.0
127.0,128.0,128.0,138.0,127.0,126.0,130.0,129.0,-1.0,114.0,-67.0,127.0,127.0,127.0,-121.0,-86.0,-122.0
127.0,128.0,128.0,138.0,127.0,125.0,130.0,129.0,-1.0,114.0,-67.0,127.0,127.0,127.0,-121.0,-86.0,-122.0
127.0,127.0,128.0,138.0,127.0,125.0,130.0,129.0,-1.0,114.0,-67.0,127.0,127.0,127.0,-121.0,-86.0,-122.0
127.0,128.0,128.0,138.0,127.0,125.0,130.0,129.0,-1.0,114.0,-67.0,127.0,127.0,127.0,-121.0,-86.0,-122.0
127.0,128.0,128.0,138.0,127.0,125.0,130.0,129.0,-1.0,114.0,-67.0,127.0,127.0,127.0,-121.0,-86.0,-122.0
127.0,128.0,128.0,138.0,127.0,126.0,130.0,129.0,-1.0,114.0,-67.0,127.0,127.0,127.0,-121.0,-86.0,-122.0
127.0,127.0,128.0,138.0,127.0,125.0,130.0,128.0,-1.0,114.0,-67.0,127.0,127.0,127.0,-121.0,-86.0,-122.0
127.0,127.0,128.0,138.0,127.0,125.0,130.0,129.0,-1.0,114.0,-67.0,127.0,127.0,127.0,-121.0,-86.0,-122.0
127.0,127.0,128.0,138.0,127.0,125.0,130.0,129.0,-1.0,114.0,-67.0,127.0,127.0,127.0,-121.0,-86.0,-122.0
127.0,128.0,128.0,138.0,127.0,125.0,130.0,129.0,-1.0,114.0,-67.0,127.0,127.0,127.0,-121.0,-86.0,-122.0
127.0,128.0,128.0,137.0,127.0,126.0,125.0,129.0,-1.0,114.0,-67.0,127.0,127.0,127.0,-121.0,-86.0,-122.0
127.0,127.0,128.0,137.0,127.0,126.0,125.0,129.0,-1.0,114.0,-67.0,127.0,127.0,127.0,-121.0,-86.0,-122.0
127.0,128.0,128.0,137.0,128.0,126.0,125.0,129.0,-1.0,114.0,-67.0,127.0,127.0,127.0,-121.0,-86.0,-122.0
127.0,127.0,128.0,137.0,128.0,126.0,125.0,129.0,-1.0,114.0,-67.0,127.0,127.0,127.0,-121.0,-86.0,-122.0
127.0,128.0,128.0,137.0,127.0,126.0,125.0,129.0,-1.0,114.0,-67.0,127.0,127.0,127.0,-121.0,-86.0,-122.0
127.0,127.0,128.0,137.0,128.0,125.0,125.0,129.0,-1.0,114.0,-67.0,127.0,127.0,127.0,-121.0,-86.0,-122.0
127.0,127.0,128.0,137.0,128.0,125.0,125.0,129.0,-1.0,114.0,-67.0,127.0,127.0,127.0,-121.0,-86.0,-122.0
126.0,127.0,128.0,137.0,128.0,125.0,125.0,129.0,-1.0,114.0,-67.0,127.0,127.0,127.0,-121.0,-86.0,-122.0
127.0,128.0,128.0,137.0,127.0,126.0,125.0,129.0,-1.0,114.0,-67.0,127.0,127.0,127.0,-121.0,-86.0,-122.0
127.0,128.0,128.0,137.0,127.0,126.0,125.0,129.0,-1.0,114.0,-67.0,127.0,127.0,127.0,-121.0,-86.0,-122.0
127.0,127.0,128.0,136.0,127.0,126.0,127.0,129.0,-1.0,114.0,-67.0,127.0,127.0,127.0,-121.0,-86.0,-122.0
127.0,127.0,128.0,136.0,127.0,126.0,127.0,129.0,-1.0,114.0,-67.0,127.0,127.0,127.0,-121.0,-86.0,-122.0
127.0,127.0,128.0,136.0,127.0,126.0,127.0,129.0,-1.0,114.0,-67.0,127.0,127.0,127.0,-121.0,-86.0,-122.0
127.0,127.0,128.0,136.0,127.0,126.0,127.0,129.0,-1.0,114.0,-67.0,127.0,127.0,127.0,-121.0,-86.0,-122.0
126.0,127.0,128.0,136.0,127.0,127.0,127.0,129.0,-1.0,114.0,-67.0,127.0,127.0,127.0,-121.0,-86.0,-122.0
126.0,127.0,128.0,136.0,127.0,127.0,127.0,129.0,-1.0,114.0,-67.0,127.0,127.0,127.0,-121.0,-86.0,-122.0
127.0,127.0,128.0,136.0,127.0,127.0,127.0,129.0,-1.0,114.0,-67.0,127.0,127.0,127.0,-121.0,-86.0,-122.0
127.0,127.0,128.0,136.0,127.0,127.0,127.0,129.0,-1.0,114.0,-67.0,127.0,127.0,127.0,-121.0,-86.0,-122.0
127.0,127.0,128.0,136.0,127.0,127.0,127.0,129.0,-1.0,114.0,-67.0,127.0,127.0,127.0,-121.0,-86.0,-122.0
127.0,127.0,128.0,136.0,127.0,127.0,127.0,129.0,-1.0,114.0,-67.0,127.0,127.0,127.0,-121.0,-86.0,-122.0
127.0,127.0,128.0,136.0,127.0,127.0,130.0,129.0,-1.0,114.0,-67.0,127.0,127.0,127.0,-121.0,-86.0,-122.0
127.0,127.0,128.0,136.0,127.0,127.0,130.0,129.0,-1.0,114.0,-67.0,127.0,127.0,127.0,-121.0,-86.0,-122.0
127.0,127.0,128.0,135.0,127.0,127.0,130.0,129.0,-1.0,114.0,-67.0,127.0,127.0,127.0,-121.0,-86.0,-122.0
127.0,127.0,128.0,136.0,126.0,127.0,130.0,129.0,-1.0,114.0,-67.0,127.0,127.0,127.0,-121.0,-86.0,-122.0
127.0,127.0,128.0,136.0,127.0,127.0,130.0,129.0,-1.0,114.0,-67.0,127.0,127.0,127.0,-121.0,-86.0,-122.0
127.0,127.0,128.0,136.0,127.0,127.0,130.0,129.0,-1.0,114.0,-67.0,127.0,127.0,127.0,-121.0,-86.0,-122.0
127.0,127.0,128.0,136.0,127.0,127.0,130.0,129.0,-1.0,114.0,-67.0,127.0,127.0,127.0,-121.0,-86.0,-122.0
127.0,127.0,128.0,136.0,127.0,127.0,130.0,129.0,-1.0,114.0,-67.0,127.0,127.0,127.0,-121.0,-86.0,-122.0
127.0,127.0,128.0,136.0,127.0,127.0,130.0,129.0,-1.0,114.0,-67.0,127.0,127.0,127.0,-121.0,-86.0,-122.0
127.0,127.0,128.0,135.0,127.0,127.0,130.0,129.0,-1.0,114.0,-67.0,127.0,127.0,127.0,-121.0,-86.0,-122.0
127.0,127.0,126.0,135.0,127.0,127.0,131.0,129.0,-1.0,114.0,-67.0,127.0,127.0,127.0,-121.0,-86.0,-122.0
127.0,127.0,126.0,135.0,127.0,127.0,131.0,129.0,-1.0,114.0,-67.0,127.0,127.0,127.0,-121.0,-86.0,-122.0
127.0,127.0,127.0,136.0,127.0,127.0,131.0,129.0,-1.0,114.0,-67.0,127.0,127.0,127.0,-121.0,-86.0,-122.0
127.0,127.0,127.0,136.0,127.0,127.0,131.0,129.0,-1.0,114.0,-67.0,127.0,127.0,127.0,-121.0,-86.0,-122.0
127.0,127.0,127.0,135.0,127.0,127.0,131.0,129.0,-1.0,114.0,-67.0,127.0,127.0,127.0,-121.0,-86.0,-122.0
127.0,127.0,127.0,135.0,127.0,127.0,131.0,129.0,-1.0,114.0,-67.0,127.0,127.0,127.0,-121.0,-86.0,-122.0
127.0,127.0,126.0,135.0,127.0,127.0,131.0,129.0,-1.0,114.0,-67.0,127.0,127.0,127.0,-121.0,-86.0,-122.0
127.0,127.0,126.0,135.0,127.0,127.0,131.0,129.0,-1.0,114.0,-67.0,127.0,127.0,127.0,-121.0,-86.0,-122.0
127.0,127.0,126.0,135.0,127.0,127.0,131.0,129.0,-1.0,114.0,-67.0,127.0,127.0,127.0,-121.0,-86.0,-122.0
127.0,127.0,126.0,135.0,127.0,127.0,131.0,129.0,-1.0,114.0,-67.0,127.0,127.0,127.0,-121.0,-86.0,-122.0
127.0,127.0,126.0,133.0,126.0,128.0,126.0,129.0,-1.0,114.0,-67.0,127.0,127.0,127.0,-121.0,-86.0,-122.0
126.0,127.0,126.0,135.0,126.0,127.0,127.0,129.0,-1.0,114.0,-67.0,127.0,127.0,127.0,-121.0,-86.0,-122.0
126.0,127.0,126.0,134.0,126.0,127.0,127.0,129.0,-1.0,114.0,-67.0,127.0,127.0,127.0,-121.0,-86.0,-122.0
127.0,127.0,126.0,134.0,126.0,127.0,127.0,129.0,-1.0,114.0,-67.0,127.0,127.0,127.0,-121.0,-86.0,-122.0
127.0,127.0,126.0,134.0,126.0,127.0,127.0,129.0,-1.0,114.0,-67.0,127.0,127.0,127.0,-121.0,-86.0,-122.0
127.0,127.0,126.0,134.0,126.0,127.0,127.0,129.0,-1.0,114.0,-67.0,127.0,127.0,127.0,-121.0,-86.0,-122.0
127.0,127.0,126.0,134.0,126.0,127.0,127.0,129.0,-1.0,114.0,-67.0,127.0,127.0,127.0,-121.0,-86.0,-122.0
127.0,127.0,126.0,133.0,126.0,127.0,127.0,129.0,-1.0,114.0,-67.0,127.0,127.0,127.0,-121.0,-86.0,-122.0
127.0,127.0,126.0,133.0,126.0,128.0,127.0,129.0,-1.0,114.0,-67.0,127.0,127.0,127.0,-121.0,-86.0,-122.0
127.0,127.0,126.0,133.0,126.0,128.0,127.0,129.0,-1.0,114.0,-67.0,127.0,127.0,127.0,-121.0,-86.0,-122.0
127.0,127.0,127.0,133.0,127.0,126.0,124.0,128.0,-1.0,114.0,-67.0,127.0,127.0,127.0,-121.0,-86.0,-122.0
127.0,127.0,127.0,133.0,127.0,127.0,124.0,128.0,-1.0,114.0,-67.0,127.0,127.0,127.0,-121.0,-86.0,-122.0
127.0,127.0,127.0,133.0,127.0,127.0,124.0,128.0,-1.0,114.0,-67.0,127.0,127.0,127.0,-121.0,-86.0,-122.0
127.0,127.0,127.0,133.0,127.0,127.0,124.0,128.0,-1.0,114.0,-67.0,127.0,127.0,127.0,-121.0,-86.0,-122.0
127.0,127.0,127.0,133.0,127.0,127.0,124.0,128.0,-1.0,114.0,-67.0,127.0,127.0,127.0,-121.0,-86.0,-122.0
127.0,127.0,127.0,133.0,127.0,127.0,124.0,128.0,-1.0,114.0,-67.0,127.0,127.0,127.0,-121.0,-86.0,-122.0
127.0,127.0,127.0,133.0,127.0,127.0,124.0,128.0,-1.0,114.0,-67.0,127.0,127.0,127.0,-121.0,-86.0,-122.0
127.0,127.0,127.0,134.0,127.0,127.0,124.0,128.0,-1.0,114.0,-67.0,127.0,127.0,127.0,-121.0,-86.0,-122.0
127.0,127.0,127.0,134.0,127.0,127.0,124.0,128.0,-1.0,114.0,-67.0,127.0,127.0,127.0,-121.0,-86.0,-122.0
127.0,127.0,127.0,134.0,127.0,128.0,124.0,128.0,-1.0,114.0,-67.0,127.0,127.0,127.0,-121.0,-86.0,-122.0
126.0,127.0,127.0,134.0,127.0,128.0,125.0,128.0,-1.0,114.0,-67.0,127.0,127.0,127.0,-121.0,-86.0,-122.0
126.0,127.0,127.0,134.0,127.0,128.0,125.0,128.0,-1.0,114.0,-67.0,127.0,127.0,127.0,-121.0,-86.0,-122.0
126.0,127.0,127.0,134.0,127.0,128.0,125.0,128.0,-1.0,114.0,-67.0,127.0,127.0,127.0,-121.0,-86.0,-122.0
126.0,127.0,127.0,134.0,127.0,128.0,125.0,128.0,-1.0,114.0,-67.0,127.0,127.0,127.0,-121.0,-86.0,-122.0
126.0,127.0,127.0,134.0,127.0,128.0,124.0,128.0,-1.0,114.0,-67.0,127.0,127.0,127.0,-121.0,-86.0,-122.0
126.0,127.0,127.0,134.0,127.0,128.0,124.0,128.0,-1.0,114.0,-67.0,127.0,127.0,127.0,-121.0,-86.0,-122.0
126.0,127.0,127.0,134.0,127.0,129.0,124.0,128.0,-1.0,114.0,-67.0,127.0,127.0,127.0,-121.0,-86.0,-122.0
126.0,127.0,127.0,134.0,127.0,129.0,124.0,128.0,-1.0,114.0,-67.0,127.0,127.0,127.0,-121.0,-86.0,-122.0
126.0,127.0,127.0,134.0,128.0,129.0,124.0,128.0,-1.0,114.0,-67.0,127.0,127.0,127.0,-121.0,-86.0,-122.0
127.0,126.0,127.0,135.0,127.0,127.0,125.0,128.0,-1.0,114.0,-67.0,127.0,127.0,127.0,-121.0,-86.0,-122.0
127.0,127.0,127.0,135.0,127.0,129.0,124.0,128.0,-1.0,114.0,-67.0,127.0,127.0,127.0,-121.0,-86.0,-122.0
127.0,127.0,127.0,135.0,127.0,129.0,124.0,128.0,-1.0,114.0,-67.0,127.0,127.0,127.0,-121.0,-86.0,-122.0
127.0,127.0,127.0,135.0,127.0,128.0,124.0,128.0,-1.0,114.0,-67.0,127.0,127.0,127.0,-121.0,-86.0,-122.0
127.0,127.0,127.0,135.0,127.0,128.0,124.0,128.0,-1.0,114.0,-67.0,127.0,127.0,127.0,-121.0,-86.0,-122.0
127.0,127.0,127.0,135.0,127.0,128.0,124.0,128.0,-1.0,114.0,-67.0,127.0,127.0,127.0,-121.0,-86.0,-122.0
127.0,127.0,127.0,135.0,127.0,128.0,124.0,128.0,-1.0,114.0,-67.0,127.0,127.0,127.0,-121.0,-86.0,-122.0
127.0,126.0,127.0,135.0,127.0,128.0,124.0,128.0,-1.0,114.0,-67.0,127.0,127.0,127.0,-121.0,-86.0,-122.0
127.0,126.0,127.0,135.0,127.0,128.0,125.0,128.0,-1.0,114.0,-67.0,127.0,127.0,127.0,-121.0,-86.0,-122.0
127.0,127.0,127.0,135.0,127.0,128.0,124.0,128.0,-1.0,114.0,-67.0,127.0,127.0,127.0,-121.0,-86.0,-122.0
127.0,127.0,127.0,135.0,127.0,128.0,124.0,128.0,-1.0,114.0,-67.0,127.0,127.0,127.0,-121.0,-86.0,-122.0
127.0,127.0,127.0,135.0,126.0,128.0,130.0,128.0,-1.0,113.0,-68.0,127.0,127.0,127.0,-121.0,-86.0,-122.0
127.0,127.0,127.0,135.0,127.0,128.0,130.0,128.0,-1.0,113.0,-68.0,127.0,127.0,127.0,-121.0,-86.0,-122.0
127.0,126.0,127.0,135.0,127.0,128.0,130.0,128.0,-1.0,113.0,-68.0,127.0,127.0,127.0,-121.0,-86.0,-122.0
127.0,126.0,127.0,135.0,127.0,128.0,130.0,128.0,-1.0,113.0,-68.0,127.0,127.0,127.0,-121.0,-86.0,-122.0
127.0,126.0,127.0,135.0,127.0,128.0,130.0,128.0,-1.0,113.0,-68.0,127.0,127.0,127.0,-121.0,-86.0,-122.0
126.0,126.0,127.0,134.0,127.0,128.0,130.0,128.0,-1.0,113.0,-68.0,127.0,127.0,127.0,-121.0,-86.0,-122.0
126.0,126.0,127.0,134.0,127.0,128.0,130.0,128.0,-1.0,113.0,-68.0,127.0,127.0,127.0,-121.0,-86.0,-122.0
127.0,126.0,127.0,135.0,127.0,128.0,130.0,128.0,-1.0,113.0,-68.0,127.0,127.0,127.0,-121.0,-86.0,-122.0
127.0,126.0,127.0,135.0,127.0,128.0,130.0,128.0,-1.0,113.0,-68.0,127.0,127.0,127.0,-121.0,-86.0,-122.0
127.0,127.0,127.0,135.0,126.0,128.0,130.0,128.0,-1.0,113.0,-68.0,127.0,127.0,127.0,-121.0,-86.0,-122.0
127.0,126.0,126.0,133.0,126.0,128.0,130.0,129.0,-1.0,113.0,-68.0,127.0,127.0,127.0,-121.0,-86.0,-122.0
127.0,126.0,126.0,133.0,126.0,128.0,130.0,129.0,-1.0,113.0,-68.0,127.0,127.0,127.0,-121.0,-86.0,-122.0
127.0,127.0,126.0,133.0,126.0,128.0,130.0,129.0,-1.0,113.0,-68.0,127.0,127.0,127.0,-121.0,-86.0,-122.0
127.0,126.0,126.0,133.0,126.0,128.0,130.0,129.0,-1.0,113.0,-68.0,127.0,127.0,127.0,-121.0,-86.0,-122.0
127.0,126.0,126.0,133.0,126.0,128.0,130.0,129.0,-1.0,113.0,-68.0,127.0,127.0,127.0,-121.0,-86.0,-122.0
127.0,126.0,126.0,133.0,126.0,128.0,130.0,129.0,-1.0,113.0,-68.0,127.0,127.0,127.0,-121.0,-86.0,-122.0
126.0,126.0,126.0,134.0,126.0,128.0,130.0,129.0,-1.0,113.0,-68.0,127.0,127.0,127.0,-121.0,-86.0,-122.0
126.0,126.0,126.0,133.0,126.0,128.0,130.0,129.0,-1.0,113.0,-68.0,127.0,127.0,127.0,-121.0,-86.0,-122.0
127.0,126.0,126.0,133.0,126.0,128.0,130.0,129.0,-1.0,113.0,-68.0,127.0,127.0,127.0,-121.0,-86.0,-122.0
127.0,126.0,126.0,133.0,126.0,128.0,130.0,129.0,-1.0,113.0,-68.0,127.0,127.0,127.0,-121.0,-86.0,-122.0
127.0,126.0,125.0,134.0,125.0,127.0,130.0,130.0,-1.0,113.0,-68.0,127.0,127.0,127.0,-121.0,-86.0,-122.0
127.0,126.0,125.0,134.0,125.0,127.0,130.0,130.0,-1.0,113.0,-68.0,127.0,127.0,127.0,-121.0,-86.0,-122.0
127.0,126.0,125.0,134.0,125.0,127.0,130.0,130.0,-1.0,113.0,-68.0,127.0,127.0,127.0,-121.0,-86.0,-122.0
127.0,126.0,125.0,134.0,125.0,127.0,130.0,130.0,-1.0,113.0,-68.0,127.0,127.0,127.0,-121.0,-86.0,-122.0
127.0,126.0,125.0,134.0,125.0,127.0,130.0,130.0,-1.0,113.0,-68.0,127.0,127.0,127.0,-121.0,-86.0,-122.0
127.0,126.0,125.0,134.0,125.0,127.0,130.0,130.0,-1.0,113.0,-68.0,127.0,127.0,127.0,-121.0,-86.0,-122.0
127.0,126.0,125.0,134.0,126.0,127.0,130.0,130.0,-1.0,113.0,-68.0,127.0,127.0,127.0,-121.0,-86.0,-122.0
127.0,126.0,125.0,134.0,126.0,127.0,130.0,130.0,-1.0,113.0,-68.0,127.0,127.0,127.0,-121.0,-86.0,-122.0
127.0,126.0,125.0,134.0,126.0,127.0,130.0,130.0,-1.0,113.0,-68.0,127.0,127.0,127.0,-121.0,-86.0,-122.0
127.0,126.0,125.0,134.0,126.0,127.0,130.0,130.0,-1.0,113.0,-68.0,127.0,127.0,127.0,-121.0,-86.0,-122.0
126.0,127.0,126.0,134.0,126.0,126.0,130.0,129.0,-1.0,112.0,-69.0,127.0,127.0,127.0,-121.0,-86.0,-122.0
126.0,127.0,126.0,134.0,126.0,127.0,130.0,129.0,-1.0,112.0,-69.0,127.0,127.0,127.0,-121.0,-86.0,-122.0
126.0,127.0,126.0,134.0,126.0,126.0,130.0,129.0,-1.0,112.0,-69.0,127.0,127.0,127.0,-121.0,-86.0,-122.0
126.0,127.0,126.0,134.0,126.0,126.0,130.0,129.0,-1.0,112.0,-69.0,127.0,127.0,127.0,-121.0,-86.0,-122.0
127.0,127.0,126.0,134.0,125.0,126.0,130.0,129.0,-1.0,112.0,-69.0,127.0,127.0,127.0,-121.0,-86.0,-122.0
127.0,127.0,126.0,134.0,126.0,126.0,130.0,129.0,-1.0,112.0,-69.0,127.0,127.0,127.0,-121.0,-86.0,-122.0
127.0,127.0,126.0,134.0,126.0,126.0,130.0,129.0,-1.0,112.0,-69.0,127.0,127.0,127.0,-121.0,-86.0,-122.0
127.0,127.0,126.0,134.0,126.0,126.0,130.0,129.0,-1.0,112.0,-69.0,127.0,127.0,127.0,-121.0,-86.0,-122.0
126.0,127.0,126.0,134.0,126.0,126.0,130.0,129.0,-1.0,112.0,-69.0,127.0,127.0,127.0,-121.0,-86.0,-122.0
126.0,127.0,126.0,134.0,126.0,126.0,130.0,129.0,-1.0,112.0,-69.0,127.0,127.0,127.0,-121.0,-86.0,-122.0
127.0,126.0,127.0,135.0,126.0,126.0,127.0,128.0,-1.0,112.0,-69.0,127.0,127.0,127.0,-121.0,-86.0,-122.0
127.0,126.0,127.0,135.0,126.0,126.0,127.0,129.0,-1.0,112.0,-69.0,127.0,127.0,127.0,-121.0,-86.0,-122.0
127.0,127.0,127.0,135.0,126.0,126.0,127.0,129.0,-1.0,112.0,-69.0,127.0,127.0,127.0,-121.0,-86.0,-122.0
126.0,126.0,126.0,135.0,126.0,125.0,128.0,129.0,-1.0,112.0,-69.0,127.0,127.0,127.0,-121.0,-86.0,-122.0
126.0,127.0,126.0,135.0,126.0,125.0,128.0,128.0,-1.0,112.0,-69.0,127.0,127.0,127.0,-121.0,-86.0,-122.0
126.0,126.0,126.0,135.0,126.0,125.0,128.0,128.0,-1.0,112.0,-69.0,127.0,127.0,127.0,-121.0,-86.0,-122.0
126.0,126.0,126.0,135.0,126.0,125.0,128.0,128.0,-1.0,112.0,-69.0,127.0,127.0,127.0,-121.0,-86.0,-122.0
127.0,126.0,126.0,135.0,126.0,126.0,128.0,128.0,-1.0,112.0,-69.0,127.0,127.0,127.0,-121.0,-86.0,-122.0
127.0,126.0,127.0,135.0,126.0,126.0,127.0,128.0,-1.0,112.0,-69.0,127.0,127.0,127.0,-121.0,-86.0,-122.0
127.0,126.0,127.0,135.0,126.0,126.0,127.0,128.0,-1.0,112.0,-69.0,127.0,127.0,127.0,-121.0,-86.0,-122.0
127.0,127.0,127.0,136.0,127.0,127.0,128.0,129.0,-1.0,112.0,-69.0,127.0,127.0,127.0,-121.0,-86.0,-122.0
127.0,127.0,127.0,136.0,127.0,126.0,128.0,129.0,-1.0,112.0,-69.0,127.0,127.0,127.0,-121.0,-86.0,-122.0
127.0,127.0,127.0,136.0,126.0,126.0,127.0,128.0,-1.0,112.0,-69.0,127.0,127.0,127.0,-121.0,-86.0,-122.0
127.0,127.0,127.0,136.0,126.0,126.0,127.0,129.0,-1.0,112.0,-69.0,127.0,127.0,127.0,-121.0,-86.0,-122.0
127.0,127.0,127.0,136.0,126.0,126.0,127.0,128.0,-1.0,112.0,-69.0,127.0,127.0,127.0,-121.0,-86.0,-122.0
127.0,127.0,127.0,136.0,126.0,126.0,128.0,129.0,-1.0,112.0,-69.0,127.0,127.0,127.0,-121.0,-86.0,-122.0
127.0,127.0,127.0,136.0,126.0,126.0,128.0,129.0,-1.0,112.0,-69.0,127.0,127.0,127.0,-121.0,-86.0,-122.0
127.0,127.0,127.0,136.0,127.0,126.0,128.0,129.0,-1.0,112.0,-69.0,127.0,127.0,127.0,-121.0,-86.0,-122.0
127.0,128.0,127.0,136.0,126.0,127.0,128.0,129.0,-1.0,112.0,-69.0,127.0,127.0,127.0,-121.0,-86.0,-122.0
127.0,127.0,127.0,136.0,127.0,127.0,128.0,129.0,-1.0,112.0,-69.0,127.0,127.0,127.0,-121.0,-86.0,-122.0
127.0,127.0,128.0,137.0,126.0,126.0,130.0,128.0,-1.0,112.0,-68.0,127.0,127.0,127.0,-121.0,-86.0,-122.0
127.0,127.0,128.0,137.0,126.0,126.0,130.0,128.0,-1.0,112.0,-68.0,127.0,127.0,127.0,-121.0,-86.0,-122.0
127.0,127.0,128.0,137.0,126.0,126.0,130.0,128.0,-1.0,112.0,-68.0,127.0,127.0,127.0,-121.0,-86.0,-122.0
127.0,127.0,128.0,137.0,126.0,126.0,130.0,128.0,-1.0,112.0,-68.0,127.0,127.0,127.0,-121.0,-86.0,-122.0
127.0,127.0,128.0,137.0,126.0,126.0,130.0,128.0,-1.0,112.0,-68.0,127.0,127.0,127.0,-121.0,-86.0,-122.0
127.0,127.0,128.0,137.0,126.0,126.0,130.0,128.0,-1.0,112.0,-68.0,127.0,127.0,127.0,-121.0,-86.0,-122.0
127.0,127.0,128.0,137.0,126.0,126.0,130.0,128.0,-1.0,112.0,-68.0,127.0,127.0,127.0,-121.0,-86.0,-122.0
127.0,127.0,128.0,137.0,126.0,126.0,130.0,128.0,-1.0,112.0,-68.0,127.0,127.0,127.0,-121.0,-86.0,-122.0
127.0,127.0,128.0,137.0,126.0,126.0,130.0,128.0,-1.0,112.0,-68.0,127.0,127.0,127.0,-121.0,-86.0,-122.0
127.0,127.0,128.0,137.0,126.0,126.0,130.0,128.0,-1.0,112.0,-68.0,127.0,127.0,127.0,-121.0,-86.0,-122.0
126.0,127.0,128.0,137.0,125.0,125.0,129.0,128.0,-1.0,112.0,-68.0,127.0,127.0,127.0,-121.0,-86.0,-122.0
127.0,127.0,128.0,137.0,125.0,125.0,129.0,128.0,-1.0,112.0,-68.0,127.0,127.0,127.0,-121.0,-86.0,-122.0
127.0,127.0,128.0,138.0,125.0,125.0,129.0,128.0,-1.0,112.0,-68.0,127.0,127.0,127.0,-121.0,-86.0,-122.0
127.0,127.0,128.0,137.0,125.0,125.0,129.0,128.0,-1.0,112.0,-68.0,127.0,127.0,127.0,-121.0,-86.0,-122.0
127.0,127.0,128.0,137.0,126.0,125.0,129.0,128.0,-1.0,112.0,-68.0,127.0,127.0,127.0,-121.0,-86.0,-122.0
127.0,127.0,128.0,137.0,126.0,125.0,129.0,128.0,-1.0,112.0,-68.0,127.0,127.0,127.0,-121.0,-86.0,-122.0
127.0,127.0,128.0,137.0,125.0,125.0,129.0,128.0,-1.0,112.0,-68.0,127.0,127.0,127.0,-121.0,-86.0,-122.0
127.0,127.0,128.0,137.0,125.0,125.0,129.0,128.0,-1.0,112.0,-68.0,127.0,127.0,127.0,-121.0,-86.0,-122.0
127.0,127.0,128.0,138.0,125.0,125.0,129.0,128.0,-1.0,112.0,-68.0,127.0,127.0,127.0,-121.0,-86.0,-122.0
127.0,127.0,128.0,138.0,125.0,125.0,129.0,128.0,-1.0,112.0,-68.0,127.0,127.0,127.0,-121.0,-86.0,-122.0
127.0,127.0,128.0,139.0,125.0,124.0,129.0,128.0,-1.0,113.0,-68.0,127.0,127.0,127.0,-121.0,-87.0,-122.0
127.0,127.0,128.0,139.0,125.0,124.0,129.0,128.0,-1.0,113.0,-68.0,127.0,127.0,127.0,-121.0,-87.0,-122.0
127.0,127.0,128.0,139.0,125.0,124.0,129.0,128.0,-1.0,113.0,-68.0,127.0,127.0,127.0,-121.0,-87.0,-122.0
127.0,127.0,128.0,139.0,125.0,124.0,129.0,128.0,-1.0,113.0,-68.0,127.0,127.0,127.0,-121.0,-87.0,-122.0
126.0,127.0,128.0,139.0,125.0,124.0,129.0,128.0,-1.0,113.0,-68.0,127.0,127.0,127.0,-121.0,-87.0,-122.0
126.0,127.0,128.0,138.0,125.0,124.0,129.0,128.0,-1.0,113.0,-68.0,127.0,127.0,127.0,-121.0,-87.0,-122.0
126.0,127.0,128.0,139.0,125.0,124.0,129.0,129.0,-1.0,113.0,-68.0,127.0,127.0,127.0,-121.0,-87.0,-122.0
127.0,127.0,128.0,139.0,125.0,124.0,129.0,129.0,-1.0,113.0,-68.0,127.0,127.0,127.0,-121.0,-87.0,-122.0
126.0,127.0,128.0,139.0,125.0,124.0,129.0,129.0,-1.0,113.0,-68.0,127.0,127.0,127.0,-121.0,-87.0,-122.0
127.0,127.0,128.0,139.0,125.0,124.0,130.0,129.0,-1.0,113.0,-68.0,127.0,127.0,127.0,-121.0,-87.0,-122.0
127.0,127.0,128.0,139.0,126.0,124.0,130.0,128.0,-1.0,113.0,-68.0,127.0,127.0,127.0,-121.0,-87.0,-122.0
127.0,127.0,127.0,139.0,126.0,124.0,130.0,128.0,-1.0,113.0,-68.0,127.0,127.0,127.0,-121.0,-87.0,-122.0
127.0,127.0,127.0,139.0,126.0,124.0,130.0,128.0,-1.0,113.0,-68.0,127.0,127.0,127.0,-121.0,-87.0,-122.0
127.0,127.0,127.0,139.0,126.0,124.0,130.0,128.0,-1.0,113.0,-68.0,127.0,127.0,127.0,-121.0,-87.0,-122.0
127.0,127.0,127.0,139.0,126.0,124.0,130.0,128.0,-1.0,113.0,-68.0,127.0,127.0,127.0,-121.0,-87.0,-122.0
127.0,127.0,127.0,139.0,126.0,124.0,130.0,128.0,-1.0,113.0,-68.0,127.0,127.0,127.0,-121.0,-87.0,-122.0
127.0,127.0,127.0,139.0,126.0,124.0,130.0,128.0,-1.0,113.0,-68.0,127.0,127.0,127.0,-121.0,-87.0,-122.0
127.0,127.0,127.0,139.0,126.0,124.0,130.0,128.0,-1.0,113.0,-68.0,127.0,127.0,127.0,-121.0,-87.0,-122.0
127.0,127.0,127.0,139.0,126.0,124.0,130.0,128.0,-1.0,113.0,-68.0,127.0,127.0,127.0,-121.0,-87.0,-122.0
127.0,127.0,127.0,139.0,126.0,124.0,130.0,128.0,-1.0,113.0,-68.0,127.0,127.0,127.0,-121.0,-87.0,-122.0
127.0,127.0,127.0,139.0,126.0,124.0,129.0,127.0,-1.0,113.0,-67.0,127.0,127.0,127.0,-121.0,-87.0,-122.0
127.0,127.0,127.0,139.0,126.0,124.0,129.0,127.0,-1.0,113.0,-67.0,127.0,127.0,127.0,-121.0,-87.0,-122.0
127.0,127.0,127.0,139.0,126.0,124.0,129.0,127.0,-1.0,113.0,-67.0,127.0,127.0,127.0,-121.0,-87.0,-122.0
127.0,127.0,127.0,139.0,126.0,124.0,129.0,127.0,-1.0,113.0,-67.0,127.0,127.0,127.0,-121.0,-87.0,-122.0
127.0,127.0,127.0,139.0,126.0,125.0,129.0,128.0,-1.0,113.0,-67.0,127.0,127.0,127.0,-121.0,-87.0,-122.0
127.0,127.0,127.0,139.0,126.0,125.0,129.0,128.0,-1.0,113.0,-67.0,127.0,127.0,127.0,-121.0,-87.0,-122.0
127.0,127.0,127.0,139.0,126.0,125.0,129.0,128.0,-1.0,113.0,-67.0,127.0,127.0,127.0,-121.0,-87.0,-122.0
127.0,127.0,127.0,139.0,126.0,125.0,129.0,128.0,-1.0,113.0,-67.0,127.0,127.0,127.0,-121.0,-87.0,-122.0
127.0,127.0,127.0,139.0,126.0,124.0,129.0,127.0,-1.0,113.0,-67.0,127.0,127.0,127.0,-121.0,-87.0,-122.0
127.0,127.0,127.0,139.0,126.0,124.0,129.0,127.0,-1.0,113.0,-67.0,127.0,127.0,127.0,-121.0,-87.0,-122.0
127.0,127.0,128.0,140.0,127.0,124.0,128.0,127.0,-1.0,114.0,-67.0,127.0,127.0,127.0,-121.0,-87.0,-122.0
127.0,127.0,128.0,140.0,127.0,124.0,128.0,127.0,-1.0,114.0,-67.0,127.0,127.0,127.0,-121.0,-87.0,-122.0
127.0,127.0,128.0,140.0,127.0,124.0,128.0,127.0,-1.0,114.0,-67.0,127.0,127.0,127.0,-121.0,-87.0,-122.0
127.0,126.0,128.0,140.0,127.0,124.0,128.0,127.0,-1.0,114.0,-67.0,127.0,127.0,127.0,-121.0,-87.0,-122.0
127.0,126.0,128.0,140.0,127.0,124.0,128.0,127.0,-1.0,114.0,-67.0,127.0,127.0,127.0,-121.0,-87.0,-122.0
127.0,126.0,128.0,140.0,127.0,124.0,128.0,127.0,-1.0,114.0,-67.0,127.0,127.0,127.0,-121.0,-87.0,-122.0
127.0,127.0,128.0,139.0,127.0,125.0,128.0,127.0,-1.0,114.0,-67.0,127.0,127.0,127.0,-121.0,-87.0,-122.0
127.0,127.0,128.0,140.0,126.0,124.0,128.0,127.0,-1.0,114.0,-67.0,127.0,127.0,127.0,-121.0,-87.0,-122.0
127.0,127.0,128.0,140.0,126.0,124.0,128.0,127.0,-1.0,114.0,-67.0,127.0,127.0,127.0,-121.0,-87.0,-122.0
127.0,127.0,128.0,140.0,126.0,124.0,128.0,127.0,-1.0,114.0,-67.0,127.0,127.0,127.0,-121.0,-87.0,-122.0
127.0,127.0,128.0,139.0,126.0,124.0,128.0,128.0,-1.0,114.0,-67.0,127.0,127.0,127.0,-121.0,-87.0,-122.0
127.0,127.0,128.0,139.0,126.0,124.0,128.0,128.0,-1.0,114.0,-67.0,127.0,127.0,127.0,-121.0,-87.0,-122.0
126.0,127.0,128.0,139.0,127.0,124.0,128.0,128.0,-1.0,114.0,-67.0,127.0,127.0,127.0,-121.0,-87.0,-122.0
126.0,127.0,128.0,138.0,127.0,124.0,128.0,128.0,-1.0,114.0,-67.0,127.0,127.0,127.0,-121.0,-87.0,-122.0
126.0,127.0,128.0,138.0,127.0,124.0,128.0,128.0,-1.0,114.0,-67.0,127.0,127.0,127.0,-121.0,-87.0,-122.0
126.0,127.0,128.0,138.0,127.0,124.0,128.0,128.0,-1.0,114.0,-67.0,127.0,127.0,127.0,-121.0,-87.0,-122.0
127.0,127.0,128.0,139.0,126.0,125.0,129.0,128.0,-1.0,114.0,-67.0,127.0,127.0,127.0,-121.0,-87.0,-122.0
127.0,127.0,128.0,139.0,126.0,125.0,128.0,128.0,-1.0,114.0,-67.0,127.0,127.0,127.0,-121.0,-87.0,-122.0
127.0,127.0,128.0,139.0,126.0,124.0,128.0,128.0,-1.0,114.0,-67.0,127.0,127.0,127.0,-121.0,-87.0,-122.0
127.0,127.0,128.0,139.0,126.0,124.0,128.0,128.0,-1.0,114.0,-67.0,127.0,127.0,127.0,-121.0,-87.0,-122.0
127.0,127.0,128.0,138.0,128.0,124.0,127.0,129.0,-1.0,114.0,-67.0,127.0,127.0,127.0,-122.0,-87.0,-122.0
127.0,127.0,128.0,137.0,128.0,124.0,127.0,129.0,-1.0,114.0,-67.0,127.0,127.0,127.0,-122.0,-87.0,-122.0
127.0,127.0,128.0,137.0,128.0,124.0,127.0,129.0,-1.0,114.0,-67.0,127.0,127.0,127.0,-122.0,-87.0,-122.0
127.0,127.0,128.0,137.0,128.0,125.0,127.0,129.0,-1.0,114.0,-67.0,127.0,127.0,127.0,-122.0,-87.0,-122.0
127.0,127.0,128.0,137.0,128.0,124.0,127.0,129.0,-1.0,114.0,-67.0,127.0,127.0,127.0,-122.0,-87.0,-122.0
127.0,127.0,128.0,138.0,128.0,124.0,127.0,128.0,-1.0,114.0,-67.0,127.0,127.0,127.0,-122.0,-87.0,-122.0
127.0,127.0,128.0,138.0,128.0,124.0,127.0,128.0,-1.0,114.0,-67.0,127.0,127.0,127.0,-122.0,-87.0,-122.0
127.0,127.0,128.0,138.0,128.0,125.0,127.0,128.0,-1.0,114.0,-67.0,127.0,127.0,127.0,-122.0,-87.0,-122.0
127.0,127.0,128.0,138.0,128.0,124.0,127.0,129.0,-1.0,114.0,-67.0,127.0,127.0,127.0,-122.0,-87.0,-122.0
127.0,127.0,128.0,138.0,128.0,124.0,127.0,129.0,-1.0,114.0,-67.0,127.0,127.0,127.0,-122.0,-87.0,-122.0
127.0,127.0,126.0,136.0,129.0,127.0,126.0,129.0,-1.0,114.0,-67.0,127.0,127.0,127.0,-122.0,-87.0,-122.0
127.0,127.0,126.0,136.0,128.0,127.0,126.0,130.0,-1.0,114.0,-67.0,127.0,127.0,127.0,-122.0,-87.0,-122.0
127.0,127.0,126.0,136.0,129.0,127.0,126.0,130.0,-1.0,114.0,-67.0,127.0,127.0,127.0,-122.0,-87.0,-122.0
127.0,127.0,126.0,136.0,129.0,127.0,126.0,130.0,-1.0,114.0,-67.0,127.0,127.0,127.0,-122.0,-87.0,-122.0
126.0,127.0,126.0,136.0,128.0,126.0,126.0,129.0,-1.0,114.0,-67.0,127.0,127.0,127.0,-122.0,-87.0,-122.0
127.0,127.0,126.0,136.0,128.0,126.0,126.0,129.0,-1.0,114.0,-67.0,127.0,127.0,127.0,-122.0,-87.0,-122.0
127.0,127.0,126.0,136.0,128.0,126.0,126.0,129.0,-1.0,114.0,-67.0,127.0,127.0,127.0,-122.0,-87.0,-122.0
127.0,127.0,126.0,136.0,128.0,126.0,126.0,129.0,-1.0,114.0,-67.0,127.0,127.0,127.0,-122.0,-87.0,-122.0
127.0,127.0,126.0,136.0,129.0,126.0,126.0,129.0,-1.0,114.0,-67.0,127.0,127.0,127.0,-122.0,-87.0,-122.0
127.0,127.0,126.0,136.0,129.0,126.0,126.0,129.0,-1.0,114.0,-67.0,127.0,127.0,127.0,-122.0,-87.0,-122.0
127.0,126.0,126.0,134.0,129.0,127.0,128.0,130.0,-1.0,113.0,-68.0,127.0,127.0,127.0,-122.0,-87.0,-122.0
127.0,126.0,126.0,134.0,129.0,127.0,128.0,130.0,-1.0,113.0,-68.0,127.0,127.0,127.0,-122.0,-87.0,-122.0
127.0,126.0,126.0,134.0,129.0,127.0,128.0,130.0,-1.0,113.0,-68.0,127.0,127.0,127.0,-122.0,-87.0,-122.0
127.0,126.0,126.0,135.0,129.0,127.0,128.0,129.0,-1.0,113.0,-68.0,127.0,127.0,127.0,-122.0,-87.0,-122.0
127.0,127.0,126.0,135.0,129.0,127.0,128.0,130.0,-1.0,113.0,-68.0,127.0,127.0,127.0,-122.0,-87.0,-122.0
127.0,127.0,126.0,135.0,129.0,127.0,128.0,130.0,-1.0,113.0,-68.0,127.0,127.0,127.0,-122.0,-87.0,-122.0
127.0,127.0,126.0,135.0,129.0,127.0,128.0,130.0,-1.0,113.0,-68.0,127.0,127.0,127.0,-122.0,-87.0,-122.0
127.0,127.0,126.0,135.0,129.0,127.0,128.0,130.0,-1.0,113.0,-68.0,127.0,127.0,127.0,-122.0,-87.0,-122.0
127.0,127.0,126.0,135.0,129.0,127.0,128.0,130.0,-1.0,113.0,-68.0,127.0,127.0,127.0,-122.0,-87.0,-122.0
127.0,126.0,126.0,135.0,129.0,127.0,128.0,130.0,-1.0,113.0,-68.0,127.0,127.0,127.0,-122.0,-87.0,-122.0
126.0,127.0,126.0,133.0,128.0,128.0,129.0,130.0,-1.0,113.0,-68.0,127.0,127.0,127.0,-122.0,-87.0,-122.0
126.0,127.0,126.0,133.0,128.0,128.0,128.0,130.0,-1.0,113.0,-68.0,127.0,127.0,127.0,-122.0,-87.0,-122.0
126.0,127.0,126.0,133.0,128.0,127.0,128.0,129.0,-1.0,113.0,-68.0,127.0,127.0,127.0,-122.0,-87.0,-122.0
126.0,127.0,126.0,133.0,128.0,127.0,128.0,130.0,-1.0,113.0,-68.0,127.0,127.0,127.0,-122.0,-87.0,-122.0
126.0,127.0,126.0,133.0,129.0,127.0,128.0,130.0,-1.0,113.0,-68.0,127.0,127.0,127.0,-122.0,-87.0,-122.0
126.0,127.0,126.0,133.0,129.0,127.0,128.0,130.0,-1.0,113.0,-68.0,127.0,127.0,127.0,-122.0,-87.0,-122.0
126.0,127.0,126.0,133.0,129.0,127.0,128.0,130.0,-1.0,113.0,-68.0,127.0,127.0,127.0,-122.0,-87.0,-122.0
126.0,127.0,126.0,133.0,129.0,127.0,128.0,130.0,-1.0,113.0,-68.0,127.0,127.0,127.0,-122.0,-87.0,-122.0
126.0,127.0,126.0,133.0,129.0,127.0,128.0,130.0,-1.0,113.0,-68.0,127.0,127.0,127.0,-122.0,-87.0,-122.0
126.0,127.0,126.0,133.0,128.0,128.0,128.0,130.0,-1.0,113.0,-68.0,127.0,127.0,127.0,-122.0,-87.0,-122.0
127.0,127.0,126.0,133.0,127.0,127.0,129.0,129.0,-1.0,113.0,-68.0,127.0,127.0,127.0,-122.0,-87.0,-122.0
127.0,127.0,127.0,133.0,127.0,126.0,129.0,129.0,-1.0,113.0,-68.0,127.0,127.0,127.0,-122.0,-87.0,-122.0
127.0,127.0,127.0,133.0,127.0,127.0,129.0,129.0,-1.0,113.0,-68.0,127.0,127.0,127.0,-122.0,-87.0,-122.0
127.0,127.0,127.0,133.0,127.0,127.0,129.0,129.0,-1.0,113.0,-68.0,127.0,127.0,127.0,-122.0,-87.0,-122.0
127.0,127.0,127.0,133.0,127.0,127.0,129.0,129.0,-1.0,113.0,-68.0,127.0,127.0,127.0,-122.0,-87.0,-122.0
127.0,127.0,127.0,133.0,127.0,127.0,129.0,129.0,-1.0,113.0,-68.0,127.0,127.0,127.0,-122.0,-87.0,-122.0
127.0,127.0,127.0,133.0,127.0,127.0,129.0,129.0,-1.0,113.0,-68.0,127.0,127.0,127.0,-122.0,-87.0,-122.0
127.0,127.0,127.0,133.0,127.0,127.0,129.0,129.0,-1.0,113.0,-68.0,127.0,127.0,127.0,-122.0,-87.0,-122.0
127.0,127.0,127.0,133.0,127.0,127.0,129.0,129.0,-1.0,113.0,-68.0,127.0,127.0,127.0,-122.0,-87.0,-122.0
127.0,127.0,127.0,133.0,127.0,127.0,129.0,129.0,-1.0,113.0,-68.0,127.0,127.0,127.0,-122.0,-87.0,-122.0
127.0,128.0,128.0,134.0,126.0,127.0,125.0,129.0,-1.0,113.0,-68.0,127.0,127.0,127.0,-122.0,-87.0,-122.0
127.0,128.0,128.0,134.0,126.0,127.0,125.0,128.0,-1.0,113.0,-68.0,127.0,127.0,127.0,-122.0,-87.0,-122.0
127.0,128.0,128.0,134.0,126.0,127.0,125.0,128.0,-1.0,113.0,-68.0,127.0,127.0,127.0,-122.0,-87.0,-122.0
127.0,127.0,128.0,134.0,126.0,127.0,125.0,128.0,-1.0,113.0,-68.0,127.0,127.0,127.0,-122.0,-87.0,-122.0
127.0,127.0,128.0,134.0,127.0,127.0,125.0,128.0,-1.0,113.0,-68.0,127.0,127.0,127.0,-122.0,-87.0,-122.0
127.0,127.0,128.0,134.0,127.0,127.0,125.0,128.0,-1.0,113.0,-68.0,127.0,127.0,127.0,-122.0,-87.0,-122.0
127.0,127.0,128.0,134.0,127.0,127.0,124.0,128.0,-1.0,113.0,-68.0,127.0,127.0,127.0,-122.0,-87.0,-122.0
127.0,127.0,128.0,134.0,127.0,127.0,124.0,128.0,-1.0,113.0,-68.0,127.0,127.0,127.0,-122.0,-87.0,-122.0
127.0,127.0,127.0,134.0,127.0,127.0,124.0,128.0,-1.0,113.0,-68.0,127.0,127.0,127.0,-122.0,-87.0,-122.0
127.0,127.0,127.0,134.0,127.0,127.0,124.0,128.0,-1.0,113.0,-68.0,127.0,127.0,127.0,-122.0,-87.0,-122.0
126.0,127.0,128.0,134.0,126.0,126.0,123.0,127.0,-1.0,113.0,-68.0,127.0,127.0,127.0,-122.0,-87.0,-122.0
127.0,127.0,128.0,134.0,126.0,126.0,123.0,128.0,-1.0,113.0,-68.0,127.0,127.0,127.0,-122.0,-87.0,-122.0
127.0,127.0,128.0,134.0,126.0,126.0,123.0,128.0,-1.0,113.0,-68.0,127.0,127.0,127.0,-122.0,-87.0,-122.0
127.0,127.0,128.0,134.0,126.0,126.0,123.0,128.0,-1.0,113.0,-68.0,127.0,127.0,127.0,-122.0,-87.0,-122.0
127.0,127.0,128.0,135.0,127.0,126.0,123.0,128.0,-1.0,113.0,-68.0,127.0,127.0,127.0,-122.0,-87.0,-122.0
127.0,127.0,128.0,134.0,127.0,126.0,124.0,128.0,-1.0,113.0,-68.0,127.0,127.0,127.0,-122.0,-87.0,-122.0
127.0,127.0,128.0,134.0,127.0,126.0,124.0,128.0,-1.0,113.0,-68.0,127.0,127.0,127.0,-122.0,-87.0,-122.0
127.0,127.0,128.0,134.0,127.0,126.0,124.0,128.0,-1.0,113.0,-68.0,127.0,127.0,127.0,-122.0,-87.0,-122.0
127.0,127.0,128.0,134.0,127.0,126.0,124.0,128.0,-1.0,113.0,-68.0,127.0,127.0,127.0,-122.0,-87.0,-122.0
126.0,128.0,128.0,135.0,126.0,126.0,123.0,127.0,-1.0,113.0,-68.0,127.0,127.0,127.0,-122.0,-87.0,-122.0
127.0,127.0,127.0,135.0,127.0,125.0,125.0,127.0,-1.0,114.0,-68.0,127.0,127.0,127.0,-122.0,-87.0,-122.0
127.0,127.0,127.0,135.0,127.0,125.0,125.0,127.0,-1.0,114.0,-68.0,127.0,127.0,127.0,-122.0,-87.0,-122.0
127.0,127.0,127.0,135.0,126.0,125.0,125.0,127.0,-1.0,114.0,-68.0,127.0,127.0,127.0,-122.0,-87.0,-122.0
127.0,127.0,127.0,135.0,126.0,126.0,125.0,127.0,-1.0,114.0,-68.0,127.0,127.0,127.0,-122.0,-87.0,-122.0
127.0,127.0,127.0,135.0,126.0,126.0,125.0,127.0,-1.0,114.0,-68.0,127.0,127.0,127.0,-122.0,-87.0,-122.0
127.0,127.0,127.0,135.0,126.0,126.0,125.0,127.0,-1.0,114.0,-68.0,127.0,127.0,127.0,-122.0,-87.0,-122.0
127.0,127.0,127.0,135.0,126.0,126.0,125.0,128.0,-1.0,114.0,-68.0,127.0,127.0,127.0,-122.0,-87.0,-122.0
127.0,127.0,127.0,135.0,126.0,126.0,125.0,127.0,-1.0,114.0,-68.0,127.0,127.0,127.0,-122.0,-87.0,-122.0
127.0,127.0,127.0,135.0,127.0,125.0,125.0,127.0,-1.0,114.0,-68.0,127.0,127.0,127.0,-122.0,-87.0,-122.0
127.0,127.0,127.0,135.0,127.0,125.0,125.0,127.0,-1.0,114.0,-68.0,127.0,127.0,127.0,-122.0,-87.0,-122.0
126.0,127.0,127.0,135.0,125.0,126.0,127.0,127.0,-1.0,114.0,-69.0,127.0,127.0,127.0,-122.0,-87.0,-122.0
126.0,127.0,127.0,135.0,125.0,126.0,127.0,127.0,-1.0,114.0,-69.0,127.0,127.0,127.0,-122.0,-87.0,-122.0
126.0,127.0,127.0,135.0,125.0,126.0,127.0,127.0,-1.0,114.0,-69.0,127.0,127.0,127.0,-122.0,-87.0,-122.0
127.0,127.0,127.0,135.0,125.0,126.0,127.0,127.0,-1.0,114.0,-69.0,127.0,127.0,127.0,-122.0,-87.0,-122.0
127.0,127.0,127.0,135.0,125.0,126.0,127.0,127.0,-1.0,114.0,-69.0,127.0,127.0,127.0,-122.0,-87.0,-122.0
126.0,127.0,127.0,135.0,126.0,125.0,127.0,127.0,-1.0,114.0,-69.0,127.0,127.0,127.0,-122.0,-87.0,-122.0
126.0,127.0,127.0,135.0,126.0,125.0,127.0,127.0,-1.0,114.0,-69.0,127.0,127.0,127.0,-122.0,-87.0,-122.0
127.0,127.0,127.0,135.0,125.0,126.0,127.0,127.0,-1.0,114.0,-69.0,127.0,127.0,127.0,-122.0,-87.0,-122.0
126.0,127.0,127.0,135.0,125.0,126.0,127.0,127.0,-1.0,114.0,-69.0,127.0,127.0,127.0,-122.0,-87.0,-122.0
126.0,127.0,127.0,135.0,125.0,126.0,126.0,127.0,-1.0,114.0,-69.0,127.0,127.0,127.0,-122.0,-87.0,-122.0
127.0,127.0,127.0,135.0,124.0,125.0,126.0,127.0,-1.0,113.0,-69.0,127.0,127.0,127.0,-122.0,-87.0,-122.0
127.0,127.0,127.0,135.0,124.0,125.0,126.0,127.0,-1.0,113.0,-69.0,127.0,127.0,127.0,-122.0,-87.0,-122.0
127.0,127.0,127.0,135.0,124.0,125.0,126.0,127.0,-1.0,113.0,-69.0,127.0,127.0,127.0,-122.0,-87.0,-122.0
127.0,127.0,127.0,135.0,124.0,125.0,126.0,127.0,-1.0,113.0,-69.0,127.0,127.0,127.0,-122.0,-87.0,-122.0
127.0,126.0,127.0,135.0,124.0,125.0,126.0,127.0,-1.0,113.0,-69.0,127.0,127.0,127.0,-122.0,-87.0,-122.0
127.0,126.0,126.0,135.0,125.0,125.0,126.0,127.0,-1.0,113.0,-69.0,127.0,127.0,127.0,-122.0,-87.0,-122.0
127.0,127.0,127.0,135.0,124.0,125.0,127.0,127.0,-1.0,113.0,-69.0,127.0,127.0,127.0,-122.0,-87.0,-122.0
127.0,127.0,127.0,135.0,124.0,125.0,127.0,127.0,-1.0,113.0,-69.0,127.0,127.0,127.0,-122.0,-87.0,-122.0
127.0,127.0,127.0,135.0,124.0,125.0,127.0,127.0,-1.0,113.0,-69.0,127.0,127.0,127.0,-122.0,-87.0,-122.0
127.0,127.0,127.0,135.0,124.0,125.0,126.0,127.0,-1.0,113.0,-69.0,127.0,127.0,127.0,-122.0,-87.0,-122.0
127.0,127.0,125.0,134.0,125.0,125.0,127.0,128.0,-1.0,113.0,-70.0,127.0,127.0,127.0,-122.0,-87.0,-122.0
127.0,127.0,125.0,134.0,125.0,125.0,127.0,128.0,-1.0,113.0,-70.0,127.0,127.0,127.0,-122.0,-87.0,-122.0
