emg1,emg2,emg3,emg4,emg5,emg6,emg7,emg8,acc_x,acc_y,acc_z,gyro_x,gyro_y,gyro_z,angle_pitch,angle_roll,angle_yaw
126.0,126.0,127.0,133.0,127.0,127.0,127.0,129.0,-1.0,113.0,-66.0,127.0,127.0,127.0,-122.0,-87.0,-124.0
126.0,126.0,127.0,133.0,127.0,127.0,127.0,129.0,-1.0,113.0,-66.0,127.0,127.0,127.0,-122.0,-87.0,-124.0
127.0,126.0,127.0,133.0,127.0,127.0,127.0,129.0,-1.0,113.0,-66.0,127.0,127.0,127.0,-122.0,-87.0,-124.0
126.0,126.0,126.0,133.0,126.0,127.0,127.0,129.0,-1.0,113.0,-66.0,127.0,127.0,127.0,-122.0,-87.0,-124.0
126.0,126.0,127.0,133.0,127.0,126.0,127.0,129.0,-1.0,113.0,-66.0,127.0,127.0,127.0,-122.0,-87.0,-124.0
127.0,126.0,127.0,133.0,127.0,126.0,127.0,129.0,-1.0,113.0,-66.0,127.0,127.0,127.0,-122.0,-87.0,-124.0
127.0,126.0,127.0,133.0,127.0,126.0,127.0,129.0,-1.0,113.0,-66.0,127.0,127.0,127.0,-122.0,-87.0,-124.0
127.0,126.0,127.0,132.0,126.0,127.0,127.0,129.0,-1.0,113.0,-66.0,127.0,127.0,127.0,-122.0,-87.0,-124.0
127.0,127.0,127.0,132.0,126.0,127.0,127.0,129.0,-1.0,113.0,-66.0,127.0,127.0,127.0,-122.0,-87.0,-124.0
127.0,126.0,127.0,133.0,126.0,127.0,127.0,129.0,-1.0,113.0,-66.0,127.0,127.0,127.0,-122.0,-87.0,-124.0
127.0,126.0,127.0,133.0,126.0,127.0,127.0,129.0,-1.0,113.0,-66.0,127.0,127.0,127.0,-122.0,-87.0,-124.0
127.0,126.0,127.0,133.0,127.0,127.0,127.0,129.0,-1.0,113.0,-66.0,127.0,127.0,127.0,-122.0,-87.0,-124.0
127.0,126.0,127.0,133.0,127.0,127.0,127.0,129.0,-1.0,113.0,-66.0,127.0,127.0,127.0,-122.0,-87.0,-124.0
127.0,127.0,127.0,132.0,125.0,127.0,127.0,129.0,-1.0,113.0,-66.0,127.0,127.0,127.0,-122.0,-87.0,-124.0
127.0,127.0,127.0,133.0,125.0,128.0,127.0,129.0,-1.0,113.0,-66.0,127.0,127.0,127.0,-122.0,-87.0,-124.0
127.0,127.0,127.0,133.0,126.0,128.0,127.0,129.0,-1.0,113.0,-66.0,127.0,127.0,127.0,-122.0,-87.0,-124.0
127.0,127.0,127.0,133.0,126.0,127.0,127.0,129.0,-1.0,113.0,-66.0,127.0,127.0,127.0,-122.0,-87.0,-124.0
127.0,126.0,127.0,132.0,126.0,128.0,126.0,129.0,-1.0,113.0,-66.0,127.0,127.0,127.0,-122.0,-87.0,-124.0
126.0,126.0,127.0,132.0,126.0,128.0,126.0,129.0,-1.0,113.0,-66.0,127.0,127.0,127.0,-122.0,-87.0,-124.0
127.0,126.0,127.0,132.0,126.0,128.0,126.0,129.0,-1.0,113.0,-66.0,127.0,127.0,127.0,-122.0,-87.0,-124.0
127.0,126.0,127.0,132.0,126.0,128.0,126.0,129.0,-1.0,113.0,-66.0,127.0,127.0,127.0,-122.0,-87.0,-124.0
127.0,126.0,127.0,132.0,126.0,128.0,126.0,129.0,-1.0,113.0,-66.0,127.0,127.0,127.0,-122.0,-87.0,-124.0
126.0,126.0,127.0,132.0,126.0,127.0,126.0,128.0,-1.0,113.0,-66.0,127.0,127.0,127.0,-122.0,-87.0,-124.0
126.0,126.0,127.0,132.0,126.0,127.0,126.0,128.0,-1.0,113.0,-66.0,127.0,127.0,127.0,-122.0,-87.0,-124.0
126.0,126.0,127.0,132.0,126.0,127.0,126.0,128.0,-1.0,113.0,-66.0,127.0,127.0,127.0,-122.0,-87.0,-124.0
126.0,126.0,127.0,132.0,126.0,127.0,126.0,129.0,-1.0,113.0,-66.0,127.0,127.0,127.0,-122.0,-87.0,-124.0
126.0,126.0,127.0,132.0,126.0,127.0,126.0,129.0,-1.0,113.0,-66.0,127.0,127.0,127.0,-122.0,-87.0,-124.0
127.0,126.0,127.0,132.0,128.0,127.0,126.0,129.0,-1.0,113.0,-66.0,127.0,127.0,127.0,-122.0,-87.0,-124.0
127.0,126.0,127.0,132.0,128.0,127.0,126.0,129.0,-1.0,113.0,-66.0,127.0,127.0,127.0,-122.0,-87.0,-124.0
127.0,126.0,127.0,132.0,128.0,127.0,126.0,129.0,-1.0,113.0,-66.0,127.0,127.0,127.0,-122.0,-87.0,-124.0
127.0,126.0,127.0,132.0,128.0,127.0,126.0,129.0,-1.0,113.0,-66.0,127.0,127.0,127.0,-122.0,-87.0,-124.0
127.0,126.0,127.0,132.0,126.0,127.0,126.0,128.0,-1.0,113.0,-66.0,127.0,127.0,127.0,-122.0,-87.0,-124.0
127.0,126.0,127.0,132.0,127.0,127.0,126.0,129.0,-1.0,113.0,-66.0,127.0,127.0,127.0,-122.0,-87.0,-124.0
127.0,126.0,127.0,132.0,127.0,127.0,126.0,129.0,-1.0,113.0,-66.0,127.0,127.0,127.0,-122.0,-87.0,-124.0
127.0,126.0,127.0,132.0,127.0,127.0,126.0,129.0,-1.0,113.0,-66.0,127.0,127.0,127.0,-122.0,-87.0,-124.0
127.0,126.0,127.0,132.0,127.0,127.0,126.0,129.0,-1.0,113.0,-66.0,127.0,127.0,127.0,-122.0,-87.0,-124.0
127.0,126.0,127.0,132.0,127.0,127.0,126.0,129.0,-1.0,113.0,-66.0,127.0,127.0,127.0,-122.0,-87.0,-124.0
127.0,126.0,127.0,131.0,127.0,128.0,127.0,129.0,-1.0,113.0,-66.0,127.0,127.0,127.0,-122.0,-87.0,-124.0
127.0,126.0,127.0,131.0,127.0,128.0,127.0,129.0,-1.0,113.0,-66.0,127.0,127.0,127.0,-122.0,-87.0,-124.0
127.0,126.0,127.0,132.0,127.0,128.0,127.0,129.0,-1.0,113.0,-66.0,127.0,127.0,127.0,-122.0,-87.0,-124.0
127.0,126.0,127.0,131.0,127.0,126.0,127.0,128.0,-1.0,113.0,-66.0,127.0,127.0,127.0,-122.0,-87.0,-124.0
127.0,126.0,127.0,132.0,127.0,127.0,127.0,128.0,-1.0,113.0,-66.0,127.0,127.0,127.0,-122.0,-87.0,-124.0
127.0,126.0,127.0,132.0,127.0,127.0,127.0,129.0,-1.0,113.0,-66.0,127.0,127.0,127.0,-122.0,-87.0,-124.0
127.0,126.0,127.0,132.0,127.0,127.0,127.0,129.0,-1.0,113.0,-66.0,127.0,127.0,127.0,-122.0,-87.0,-124.0
127.0,126.0,127.0,131.0,127.0,127.0,127.0,128.0,-1.0,113.0,-66.0,127.0,127.0,127.0,-122.0,-87.0,-124.0
127.0,126.0,127.0,131.0,127.0,127.0,127.0,129.0,-1.0,113.0,-66.0,127.0,127.0,127.0,-122.0,-87.0,-124.0
127.0,126.0,127.0,131.0,128.0,127.0,127.0,129.0,-1.0,113.0,-66.0,127.0,127.0,127.0,-122.0,-87.0,-124.0
127.0,127.0,127.0,131.0,127.0,128.0,126.0,129.0,-1.0,113.0,-66.0,127.0,127.0,127.0,-122.0,-87.0,-124.0
127.0,127.0,127.0,131.0,127.0,128.0,126.0,129.0,-1.0,113.0,-66.0,127.0,127.0,127.0,-122.0,-87.0,-124.0
127.0,127.0,127.0,132.0,127.0,127.0,126.0,128.0,-1.0,113.0,-66.0,127.0,127.0,127.0,-122.0,-87.0,-124.0
127.0,127.0,127.0,131.0,127.0,127.0,126.0,129.0,-1.0,113.0,-66.0,127.0,127.0,127.0,-122.0,-87.0,-124.0
127.0,127.0,127.0,131.0,127.0,127.0,126.0,129.0,-1.0,113.0,-66.0,127.0,127.0,127.0,-122.0,-87.0,-124.0
127.0,127.0,127.0,131.0,127.0,127.0,126.0,129.0,-1.0,113.0,-66.0,127.0,127.0,127.0,-122.0,-87.0,-124.0
127.0,127.0,127.0,131.0,127.0,127.0,126.0,129.0,-1.0,113.0,-66.0,127.0,127.0,127.0,-122.0,-87.0,-124.0
127.0,127.0,127.0,132.0,127.0,127.0,126.0,129.0,-1.0,113.0,-66.0,127.0,127.0,127.0,-122.0,-87.0,-124.0
127.0,127.0,127.0,131.0,127.0,127.0,126.0,129.0,-1.0,113.0,-66.0,127.0,127.0,127.0,-122.0,-87.0,-124.0
127.0,127.0,127.0,131.0,127.0,128.0,126.0,129.0,-1.0,113.0,-66.0,127.0,127.0,127.0,-122.0,-87.0,-124.0
127.0,127.0,127.0,131.0,127.0,128.0,126.0,129.0,-1.0,113.0,-66.0,127.0,127.0,127.0,-122.0,-87.0,-124.0
127.0,126.0,127.0,132.0,127.0,127.0,126.0,128.0,-1.0,113.0,-66.0,127.0,127.0,127.0,-122.0,-87.0,-124.0
127.0,127.0,127.0,131.0,126.0,127.0,126.0,129.0,-1.0,113.0,-66.0,127.0,127.0,127.0,-122.0,-87.0,-124.0
127.0,127.0,127.0,132.0,126.0,128.0,126.0,129.0,-1.0,113.0,-66.0,127.0,127.0,127.0,-122.0,-87.0,-124.0
127.0,127.0,127.0,132.0,127.0,128.0,126.0,129.0,-1.0,113.0,-66.0,127.0,127.0,127.0,-122.0,-87.0,-124.0
127.0,127.0,127.0,132.0,127.0,128.0,126.0,129.0,-1.0,113.0,-66.0,127.0,127.0,127.0,-122.0,-87.0,-124.0
127.0,127.0,127.0,131.0,127.0,128.0,126.0,129.0,-1.0,113.0,-66.0,127.0,127.0,127.0,-122.0,-87.0,-124.0
127.0,126.0,127.0,131.0,127.0,128.0,126.0,129.0,-1.0,113.0,-66.0,127.0,127.0,127.0,-122.0,-87.0,-124.0
127.0,126.0,127.0,131.0,127.0,128.0,126.0,129.0,-1.0,113.0,-66.0,127.0,127.0,127.0,-122.0,-87.0,-124.0
127.0,127.0,127.0,131.0,127.0,128.0,126.0,129.0,-1.0,113.0,-66.0,127.0,127.0,127.0,-122.0,-87.0,-124.0
127.0,127.0,127.0,131.0,127.0,126.0,127.0,128.0,-1.0,113.0,-66.0,127.0,127.0,127.0,-122.0,-87.0,-124.0
126.0,127.0,127.0,131.0,127.0,126.0,127.0,128.0,-1.0,113.0,-66.0,127.0,127.0,127.0,-122.0,-87.0,-124.0
126.0,127.0,127.0,131.0,127.0,127.0,127.0,128.0,-1.0,113.0,-66.0,127.0,127.0,127.0,-122.0,-87.0,-124.0
127.0,127.0,127.0,131.0,127.0,127.0,127.0,128.0,-1.0,113.0,-66.0,127.0,127.0,127.0,-122.0,-87.0,-124.0
127.0,127.0,127.0,131.0,127.0,127.0,127.0,128.0,-1.0,113.0,-66.0,127.0,127.0,127.0,-122.0,-87.0,-124.0
126.0,127.0,127.0,131.0,127.0,127.0,127.0,128.0,-1.0,113.0,-66.0,127.0,127.0,127.0,-122.0,-87.0,-124.0
127.0,127.0,127.0,131.0,127.0,127.0,127.0,128.0,-1.0,113.0,-66.0,127.0,127.0,127.0,-122.0,-87.0,-124.0
126.0,127.0,127.0,131.0,127.0,127.0,126.0,128.0,-1.0,113.0,-66.0,127.0,127.0,127.0,-122.0,-87.0,-124.0
127.0,127.0,127.0,131.0,127.0,127.0,127.0,128.0,-1.0,113.0,-66.0,127.0,127.0,127.0,-122.0,-87.0,-124.0
127.0,127.0,127.0,131.0,127.0,127.0,127.0,128.0,-1.0,113.0,-66.0,127.0,127.0,127.0,-122.0,-87.0,-124.0
127.0,127.0,127.0,132.0,127.0,126.0,127.0,128.0,-1.0,113.0,-66.0,127.0,127.0,127.0,-122.0,-87.0,-124.0
127.0,127.0,127.0,132.0,127.0,127.0,127.0,128.0,-1.0,113.0,-66.0,127.0,127.0,127.0,-122.0,-87.0,-124.0
127.0,127.0,127.0,132.0,127.0,127.0,127.0,128.0,-1.0,113.0,-66.0,127.0,127.0,127.0,-122.0,-87.0,-124.0
127.0,127.0,127.0,132.0,127.0,127.0,127.0,128.0,-1.0,113.0,-66.0,127.0,127.0,127.0,-122.0,-87.0,-124.0
127.0,127.0,127.0,132.0,127.0,127.0,128.0,128.0,-1.0,113.0,-66.0,127.0,127.0,127.0,-122.0,-87.0,-124.0
127.0,127.0,127.0,132.0,127.0,127.0,127.0,128.0,-1.0,113.0,-66.0,127.0,127.0,127.0,-122.0,-87.0,-124.0
127.0,127.0,127.0,131.0,127.0,127.0,127.0,128.0,-1.0,113.0,-66.0,127.0,127.0,127.0,-122.0,-87.0,-124.0
127.0,127.0,127.0,131.0,127.0,128.0,128.0,129.0,-1.0,113.0,-66.0,127.0,127.0,127.0,-122.0,-87.0,-124.0
127.0,127.0,127.0,132.0,127.0,128.0,128.0,129.0,-1.0,113.0,-66.0,127.0,127.0,127.0,-122.0,-87.0,-124.0
127.0,127.0,127.0,132.0,127.0,126.0,127.0,128.0,-1.0,113.0,-66.0,127.0,127.0,127.0,-122.0,-87.0,-124.0
126.0,127.0,127.0,131.0,127.0,127.0,128.0,128.0,-1.0,113.0,-66.0,127.0,127.0,127.0,-122.0,-87.0,-124.0
126.0,127.0,127.0,131.0,127.0,127.0,128.0,128.0,-1.0,113.0,-66.0,127.0,127.0,127.0,-122.0,-87.0,-124.0
126.0,127.0,127.0,131.0,127.0,127.0,128.0,128.0,-1.0,113.0,-66.0,127.0,127.0,127.0,-122.0,-87.0,-124.0
126.0,126.0,127.0,131.0,127.0,127.0,128.0,128.0,-1.0,113.0,-66.0,127.0,127.0,127.0,-122.0,-87.0,-124.0
126.0,127.0,127.0,131.0,127.0,127.0,128.0,129.0,-1.0,113.0,-66.0,127.0,127.0,127.0,-122.0,-87.0,-124.0
126.0,126.0,127.0,131.0,127.0,127.0,128.0,129.0,-1.0,113.0,-66.0,127.0,127.0,127.0,-122.0,-87.0,-124.0
126.0,127.0,127.0,131.0,127.0,128.0,128.0,129.0,-1.0,113.0,-66.0,127.0,127.0,127.0,-122.0,-87.0,-124.0
126.0,127.0,127.0,131.0,126.0,128.0,128.0,129.0,-1.0,113.0,-66.0,127.0,127.0,127.0,-122.0,-87.0,-124.0
126.0,126.0,127.0,131.0,127.0,126.0,128.0,128.0,-1.0,113.0,-66.0,127.0,127.0,127.0,-122.0,-87.0,-124.0
126.0,126.0,127.0,131.0,127.0,126.0,128.0,128.0,-1.0,113.0,-66.0,127.0,127.0,127.0,-122.0,-87.0,-124.0
127.0,126.0,127.0,131.0,126.0,127.0,128.0,128.0,-1.0,113.0,-66.0,127.0,127.0,127.0,-122.0,-87.0,-124.0
127.0,126.0,127.0,131.0,126.0,127.0,128.0,128.0,-1.0,113.0,-66.0,127.0,127.0,127.0,-122.0,-87.0,-124.0
127.0,126.0,127.0,131.0,126.0,127.0,128.0,128.0,-1.0,113.0,-66.0,127.0,127.0,127.0,-122.0,-87.0,-124.0
127.0,126.0,127.0,131.0,126.0,127.0,128.0,128.0,-1.0,113.0,-66.0,127.0,127.0,127.0,-122.0,-87.0,-124.0
127.0,126.0,127.0,131.0,126.0,127.0,128.0,128.0,-1.0,113.0,-66.0,127.0,127.0,127.0,-122.0,-87.0,-124.0
127.0,126.0,127.0,131.0,126.0,127.0,128.0,129.0,-1.0,113.0,-66.0,127.0,127.0,127.0,-122.0,-87.0,-124.0
127.0,127.0,127.0,131.0,127.0,128.0,128.0,129.0,-1.0,113.0,-66.0,127.0,127.0,127.0,-122.0,-87.0,-124.0
127.0,126.0,127.0,131.0,126.0,126.0,128.0,128.0,-1.0,113.0,-66.0,127.0,127.0,127.0,-122.0,-87.0,-124.0
127.0,126.0,127.0,131.0,126.0,126.0,128.0,128.0,-1.0,113.0,-66.0,127.0,127.0,127.0,-122.0,-87.0,-124.0
127.0,126.0,127.0,131.0,126.0,127.0,128.0,128.0,-1.0,113.0,-66.0,127.0,127.0,127.0,-122.0,-87.0,-124.0
127.0,126.0,127.0,131.0,127.0,127.0,126.0,128.0,-1.0,113.0,-66.0,127.0,127.0,127.0,-122.0,-87.0,-124.0
127.0,126.0,127.0,131.0,127.0,127.0,126.0,128.0,-1.0,113.0,-66.0,127.0,127.0,127.0,-122.0,-87.0,-124.0
127.0,126.0,127.0,131.0,127.0,127.0,126.0,128.0,-1.0,113.0,-66.0,127.0,127.0,127.0,-122.0,-87.0,-124.0
127.0,126.0,127.0,131.0,127.0,127.0,126.0,128.0,-1.0,113.0,-66.0,127.0,127.0,127.0,-122.0,-87.0,-124.0
127.0,126.0,127.0,131.0,127.0,127.0,126.0,128.0,-1.0,113.0,-66.0,127.0,127.0,127.0,-122.0,-87.0,-124.0
127.0,126.0,127.0,131.0,127.0,127.0,126.0,128.0,-1.0,113.0,-66.0,127.0,127.0,127.0,-122.0,-87.0,-124.0
127.0,126.0,127.0,131.0,127.0,126.0,126.0,128.0,-1.0,113.0,-66.0,127.0,127.0,127.0,-122.0,-87.0,-124.0
127.0,126.0,127.0,131.0,127.0,126.0,126.0,128.0,-1.0,113.0,-66.0,127.0,127.0,127.0,-122.0,-87.0,-124.0
127.0,127.0,127.0,131.0,127.0,126.0,126.0,128.0,-1.0,113.0,-66.0,127.0,127.0,127.0,-122.0,-87.0,-124.0
127.0,127.0,127.0,131.0,127.0,127.0,126.0,128.0,-1.0,113.0,-66.0,127.0,127.0,127.0,-122.0,-87.0,-124.0
127.0,126.0,127.0,131.0,126.0,126.0,126.0,128.0,-1.0,113.0,-66.0,127.0,127.0,127.0,-122.0,-87.0,-124.0
127.0,126.0,127.0,131.0,126.0,126.0,126.0,128.0,-1.0,113.0,-66.0,127.0,127.0,127.0,-122.0,-87.0,-124.0
127.0,126.0,127.0,131.0,126.0,127.0,126.0,128.0,-1.0,113.0,-66.0,127.0,127.0,127.0,-122.0,-87.0,-124.0
127.0,126.0,127.0,131.0,126.0,127.0,126.0,128.0,-1.0,113.0,-66.0,127.0,127.0,127.0,-122.0,-87.0,-124.0
127.0,126.0,127.0,131.0,126.0,127.0,126.0,128.0,-1.0,113.0,-66.0,127.0,127.0,127.0,-122.0,-87.0,-124.0
127.0,126.0,127.0,132.0,125.0,126.0,126.0,128.0,-1.0,113.0,-66.0,127.0,127.0,127.0,-122.0,-87.0,-124.0
127.0,126.0,127.0,132.0,125.0,126.0,126.0,128.0,-1.0,113.0,-66.0,127.0,127.0,127.0,-122.0,-87.0,-124.0
127.0,126.0,127.0,132.0,125.0,126.0,126.0,128.0,-1.0,113.0,-66.0,127.0,127.0,127.0,-122.0,-87.0,-124.0
127.0,126.0,127.0,132.0,125.0,126.0,126.0,128.0,-1.0,113.0,-66.0,127.0,127.0,127.0,-122.0,-87.0,-124.0
127.0,126.0,127.0,132.0,125.0,126.0,126.0,128.0,-1.0,113.0,-66.0,127.0,127.0,127.0,-122.0,-87.0,-124.0
127.0,126.0,127.0,131.0,124.0,128.0,127.0,129.0,-1.0,113.0,-66.0,127.0,127.0,127.0,-122.0,-87.0,-124.0
127.0,126.0,127.0,131.0,124.0,128.0,127.0,129.0,-1.0,113.0,-66.0,127.0,127.0,127.0,-122.0,-87.0,-124.0
127.0,126.0,127.0,131.0,125.0,128.0,127.0,129.0,-1.0,113.0,-66.0,127.0,127.0,127.0,-122.0,-87.0,-124.0
127.0,126.0,127.0,131.0,125.0,128.0,127.0,129.0,-1.0,113.0,-66.0,127.0,127.0,127.0,-122.0,-87.0,-124.0
127.0,126.0,127.0,131.0,124.0,127.0,127.0,129.0,-1.0,113.0,-66.0,127.0,127.0,127.0,-122.0,-87.0,-124.0
127.0,126.0,127.0,131.0,124.0,127.0,127.0,129.0,-1.0,113.0,-66.0,127.0,127.0,127.0,-122.0,-87.0,-124.0
127.0,126.0,127.0,131.0,124.0,127.0,127.0,129.0,-1.0,113.0,-66.0,127.0,127.0,127.0,-122.0,-87.0,-124.0
127.0,126.0,127.0,131.0,124.0,127.0,127.0,129.0,-1.0,113.0,-66.0,127.0,127.0,127.0,-122.0,-87.0,-124.0
127.0,126.0,127.0,131.0,124.0,127.0,127.0,129.0,-1.0,113.0,-66.0,127.0,127.0,127.0,-122.0,-87.0,-124.0
127.0,126.0,127.0,131.0,124.0,127.0,127.0,129.0,-1.0,113.0,-66.0,127.0,127.0,127.0,-122.0,-87.0,-124.0
127.0,126.0,127.0,131.0,126.0,128.0,129.0,128.0,-1.0,113.0,-66.0,127.0,127.0,127.0,-122.0,-87.0,-124.0
127.0,126.0,127.0,131.0,126.0,128.0,129.0,129.0,-1.0,113.0,-66.0,127.0,127.0,127.0,-122.0,-87.0,-124.0
127.0,126.0,127.0,131.0,126.0,128.0,129.0,129.0,-1.0,113.0,-66.0,127.0,127.0,127.0,-122.0,-87.0,-124.0
126.0,126.0,127.0,131.0,126.0,127.0,129.0,128.0,-1.0,113.0,-66.0,127.0,127.0,127.0,-122.0,-87.0,-124.0
126.0,126.0,127.0,131.0,126.0,127.0,129.0,128.0,-1.0,113.0,-66.0,127.0,127.0,127.0,-122.0,-87.0,-124.0
126.0,126.0,127.0,131.0,126.0,127.0,129.0,128.0,-1.0,113.0,-66.0,127.0,127.0,127.0,-122.0,-87.0,-124.0
126.0,126.0,127.0,131.0,126.0,127.0,129.0,128.0,-1.0,113.0,-66.0,127.0,127.0,127.0,-122.0,-87.0,-124.0
126.0,126.0,127.0,131.0,126.0,127.0,129.0,128.0,-1.0,113.0,-66.0,127.0,127.0,127.0,-122.0,-87.0,-124.0
126.0,126.0,127.0,131.0,126.0,127.0,129.0,128.0,-1.0,113.0,-66.0,127.0,127.0,127.0,-122.0,-87.0,-124.0
126.0,126.0,127.0,131.0,126.0,128.0,129.0,128.0,-1.0,113.0,-66.0,127.0,127.0,127.0,-122.0,-87.0,-124.0
127.0,126.0,127.0,131.0,126.0,128.0,127.0,129.0,-1.0,113.0,-66.0,127.0,127.0,127.0,-122.0,-87.0,-124.0
127.0,126.0,127.0,131.0,126.0,128.0,127.0,129.0,-1.0,113.0,-66.0,127.0,127.0,127.0,-122.0,-87.0,-124.0
127.0,126.0,127.0,131.0,125.0,127.0,127.0,128.0,-1.0,113.0,-66.0,127.0,127.0,127.0,-122.0,-87.0,-124.0
127.0,126.0,127.0,131.0,125.0,127.0,127.0,128.0,-1.0,113.0,-66.0,127.0,127.0,127.0,-122.0,-87.0,-124.0
127.0,126.0,127.0,131.0,126.0,127.0,127.0,128.0,-1.0,113.0,-66.0,127.0,127.0,127.0,-122.0,-87.0,-124.0
127.0,126.0,127.0,131.0,126.0,127.0,127.0,128.0,-1.0,113.0,-66.0,127.0,127.0,127.0,-122.0,-87.0,-124.0
127.0,126.0,127.0,131.0,126.0,127.0,127.0,128.0,-1.0,113.0,-66.0,127.0,127.0,127.0,-122.0,-87.0,-124.0
127.0,126.0,127.0,131.0,126.0,127.0,127.0,128.0,-1.0,113.0,-66.0,127.0,127.0,127.0,-122.0,-87.0,-124.0
127.0,126.0,127.0,131.0,126.0,127.0,127.0,129.0,-1.0,113.0,-66.0,127.0,127.0,127.0,-122.0,-87.0,-124.0
127.0,126.0,127.0,131.0,126.0,128.0,127.0,129.0,-1.0,113.0,-66.0,127.0,127.0,127.0,-122.0,-87.0,-124.0
127.0,126.0,128.0,130.0,126.0,127.0,127.0,128.0,-1.0,113.0,-66.0,127.0,127.0,127.0,-122.0,-87.0,-124.0
127.0,126.0,127.0,130.0,126.0,126.0,127.0,128.0,-1.0,113.0,-66.0,127.0,127.0,127.0,-122.0,-87.0,-124.0
127.0,126.0,127.0,131.0,126.0,127.0,127.0,128.0,-1.0,113.0,-66.0,127.0,127.0,127.0,-122.0,-87.0,-124.0
127.0,126.0,128.0,131.0,127.0,127.0,127.0,128.0,-1.0,113.0,-66.0,127.0,127.0,127.0,-122.0,-87.0,-124.0
127.0,126.0,128.0,130.0,127.0,127.0,127.0,128.0,-1.0,113.0,-66.0,127.0,127.0,127.0,-122.0,-87.0,-124.0
127.0,126.0,128.0,130.0,127.0,127.0,127.0,128.0,-1.0,113.0,-66.0,127.0,127.0,127.0,-122.0,-87.0,-124.0
127.0,126.0,128.0,130.0,127.0,127.0,127.0,128.0,-1.0,113.0,-66.0,127.0,127.0,127.0,-122.0,-87.0,-124.0
127.0,126.0,128.0,130.0,127.0,127.0,127.0,128.0,-1.0,113.0,-66.0,127.0,127.0,127.0,-122.0,-87.0,-124.0
127.0,126.0,128.0,130.0,127.0,127.0,127.0,128.0,-1.0,113.0,-66.0,127.0,127.0,127.0,-122.0,-87.0,-124.0
127.0,126.0,128.0,130.0,127.0,127.0,127.0,128.0,-1.0,113.0,-66.0,127.0,127.0,127.0,-122.0,-87.0,-124.0
127.0,127.0,127.0,130.0,127.0,127.0,127.0,129.0,-1.0,113.0,-66.0,127.0,127.0,127.0,-122.0,-87.0,-124.0
127.0,127.0,127.0,130.0,127.0,127.0,127.0,129.0,-1.0,113.0,-66.0,127.0,127.0,127.0,-122.0,-87.0,-124.0
127.0,127.0,127.0,130.0,128.0,127.0,127.0,129.0,-1.0,113.0,-66.0,127.0,127.0,127.0,-122.0,-87.0,-124.0
127.0,127.0,127.0,130.0,128.0,127.0,127.0,129.0,-1.0,113.0,-66.0,127.0,127.0,127.0,-122.0,-87.0,-124.0
127.0,127.0,127.0,130.0,128.0,127.0,127.0,128.0,-1.0,113.0,-66.0,127.0,127.0,127.0,-122.0,-87.0,-124.0
127.0,127.0,127.0,130.0,128.0,127.0,127.0,129.0,-1.0,113.0,-66.0,127.0,127.0,127.0,-122.0,-87.0,-124.0
127.0,126.0,127.0,130.0,128.0,127.0,127.0,129.0,-1.0,113.0,-66.0,127.0,127.0,127.0,-122.0,-87.0,-124.0
127.0,126.0,127.0,130.0,128.0,127.0,127.0,129.0,-1.0,113.0,-66.0,127.0,127.0,127.0,-122.0,-87.0,-124.0
127.0,126.0,127.0,130.0,128.0,127.0,127.0,129.0,-1.0,113.0,-66.0,127.0,127.0,127.0,-122.0,-87.0,-124.0
127.0,126.0,127.0,130.0,128.0,127.0,127.0,129.0,-1.0,113.0,-66.0,127.0,127.0,127.0,-122.0,-87.0,-124.0
127.0,127.0,128.0,130.0,126.0,127.0,126.0,129.0,-1.0,113.0,-66.0,127.0,127.0,127.0,-122.0,-87.0,-124.0
127.0,127.0,128.0,130.0,126.0,127.0,126.0,129.0,-1.0,113.0,-66.0,127.0,127.0,127.0,-122.0,-87.0,-124.0
127.0,127.0,128.0,130.0,127.0,127.0,126.0,129.0,-1.0,113.0,-66.0,127.0,127.0,127.0,-122.0,-87.0,-124.0
127.0,127.0,128.0,130.0,127.0,127.0,126.0,129.0,-1.0,113.0,-66.0,127.0,127.0,127.0,-122.0,-87.0,-124.0
127.0,127.0,128.0,130.0,127.0,127.0,126.0,129.0,-1.0,113.0,-66.0,127.0,127.0,127.0,-122.0,-87.0,-124.0
126.0,126.0,128.0,130.0,127.0,127.0,126.0,129.0,-1.0,113.0,-66.0,127.0,127.0,127.0,-122.0,-87.0,-124.0
126.0,126.0,128.0,130.0,127.0,127.0,126.0,129.0,-1.0,113.0,-66.0,127.0,127.0,127.0,-122.0,-87.0,-124.0
127.0,126.0,128.0,130.0,127.0,127.0,126.0,129.0,-1.0,113.0,-66.0,127.0,127.0,127.0,-122.0,-87.0,-124.0
127.0,126.0,128.0,130.0,127.0,127.0,126.0,129.0,-1.0,113.0,-66.0,127.0,127.0,127.0,-122.0,-87.0,-124.0
127.0,127.0,128.0,130.0,126.0,127.0,126.0,129.0,-1.0,113.0,-66.0,127.0,127.0,127.0,-122.0,-87.0,-124.0
127.0,126.0,128.0,131.0,125.0,127.0,126.0,128.0,-1.0,114.0,-66.0,127.0,127.0,127.0,-122.0,-87.0,-124.0
127.0,126.0,128.0,130.0,125.0,127.0,126.0,128.0,-1.0,114.0,-66.0,127.0,127.0,127.0,-122.0,-87.0,-124.0
127.0,126.0,128.0,130.0,126.0,127.0,125.0,128.0,-1.0,114.0,-66.0,127.0,127.0,127.0,-122.0,-87.0,-124.0
127.0,126.0,128.0,130.0,126.0,127.0,126.0,128.0,-1.0,114.0,-66.0,127.0,127.0,127.0,-122.0,-87.0,-124.0
127.0,126.0,128.0,130.0,126.0,127.0,125.0,128.0,-1.0,114.0,-66.0,127.0,127.0,127.0,-122.0,-87.0,-124.0
127.0,126.0,127.0,130.0,126.0,127.0,125.0,128.0,-1.0,114.0,-66.0,127.0,127.0,127.0,-122.0,-87.0,-124.0
127.0,126.0,127.0,130.0,126.0,127.0,125.0,128.0,-1.0,114.0,-66.0,127.0,127.0,127.0,-122.0,-87.0,-124.0
127.0,126.0,127.0,130.0,126.0,127.0,125.0,128.0,-1.0,114.0,-66.0,127.0,127.0,127.0,-122.0,-87.0,-124.0
127.0,126.0,128.0,131.0,126.0,127.0,126.0,128.0,-1.0,114.0,-66.0,127.0,127.0,127.0,-122.0,-87.0,-124.0
127.0,126.0,128.0,131.0,126.0,127.0,126.0,128.0,-1.0,114.0,-66.0,127.0,127.0,127.0,-122.0,-87.0,-124.0
127.0,127.0,127.0,131.0,126.0,127.0,127.0,128.0,-1.0,114.0,-66.0,127.0,127.0,127.0,-122.0,-87.0,-124.0
127.0,126.0,127.0,131.0,126.0,127.0,127.0,128.0,-1.0,114.0,-66.0,127.0,127.0,127.0,-122.0,-87.0,-124.0
127.0,126.0,127.0,131.0,126.0,127.0,127.0,128.0,-1.0,114.0,-66.0,127.0,127.0,127.0,-122.0,-87.0,-124.0
127.0,126.0,127.0,131.0,126.0,127.0,127.0,128.0,-1.0,114.0,-66.0,127.0,127.0,127.0,-122.0,-87.0,-124.0
127.0,127.0,127.0,131.0,126.0,127.0,127.0,128.0,-1.0,114.0,-66.0,127.0,127.0,127.0,-122.0,-87.0,-124.0
127.0,127.0,127.0,131.0,126.0,128.0,127.0,128.0,-1.0,114.0,-66.0,127.0,127.0,127.0,-122.0,-87.0,-124.0
127.0,127.0,127.0,131.0,126.0,128.0,127.0,128.0,-1.0,114.0,-66.0,127.0,127.0,127.0,-122.0,-87.0,-124.0
127.0,126.0,127.0,130.0,126.0,126.0,127.0,128.0,-1.0,114.0,-66.0,127.0,127.0,127.0,-122.0,-87.0,-124.0
127.0,127.0,127.0,131.0,126.0,127.0,127.0,128.0,-1.0,114.0,-66.0,127.0,127.0,127.0,-122.0,-87.0,-124.0
127.0,127.0,127.0,131.0,126.0,127.0,127.0,128.0,-1.0,114.0,-66.0,127.0,127.0,127.0,-122.0,-87.0,-124.0
127.0,126.0,127.0,130.0,127.0,126.0,128.0,128.0,-1.0,114.0,-66.0,127.0,127.0,127.0,-122.0,-87.0,-124.0
127.0,126.0,127.0,130.0,127.0,127.0,128.0,128.0,-1.0,114.0,-66.0,127.0,127.0,127.0,-122.0,-87.0,-124.0
127.0,126.0,127.0,130.0,127.0,126.0,128.0,128.0,-1.0,114.0,-66.0,127.0,127.0,127.0,-122.0,-87.0,-124.0
127.0,126.0,127.0,130.0,127.0,127.0,128.0,128.0,-1.0,114.0,-66.0,127.0,127.0,127.0,-122.0,-87.0,-124.0
127.0,127.0,127.0,130.0,127.0,127.0,128.0,128.0,-1.0,114.0,-66.0,127.0,127.0,127.0,-122.0,-87.0,-124.0
127.0,127.0,127.0,130.0,127.0,127.0,128.0,128.0,-1.0,114.0,-66.0,127.0,127.0,127.0,-122.0,-87.0,-124.0
127.0,126.0,127.0,130.0,126.0,126.0,128.0,128.0,-1.0,114.0,-66.0,127.0,127.0,127.0,-122.0,-87.0,-124.0
127.0,126.0,127.0,130.0,126.0,126.0,128.0,128.0,-1.0,114.0,-66.0,127.0,127.0,127.0,-122.0,-87.0,-124.0
127.0,127.0,127.0,130.0,126.0,127.0,128.0,128.0,-1.0,114.0,-66.0,127.0,127.0,127.0,-122.0,-87.0,-124.0
127.0,127.0,127.0,130.0,127.0,127.0,128.0,128.0,-1.0,114.0,-66.0,127.0,127.0,127.0,-122.0,-87.0,-124.0
127.0,126.0,126.0,129.0,127.0,127.0,128.0,129.0,-1.0,113.0,-66.0,127.0,127.0,127.0,-122.0,-87.0,-124.0
127.0,126.0,126.0,129.0,127.0,127.0,127.0,129.0,-1.0,113.0,-66.0,127.0,127.0,127.0,-122.0,-87.0,-124.0
127.0,126.0,126.0,129.0,127.0,127.0,127.0,129.0,-1.0,113.0,-66.0,127.0,127.0,127.0,-122.0,-87.0,-124.0
127.0,126.0,126.0,129.0,126.0,128.0,128.0,129.0,-1.0,113.0,-66.0,127.0,127.0,127.0,-122.0,-87.0,-124.0
126.0,126.0,127.0,129.0,126.0,128.0,127.0,129.0,-1.0,113.0,-66.0,127.0,127.0,127.0,-122.0,-87.0,-124.0
127.0,126.0,126.0,129.0,127.0,126.0,128.0,128.0,-1.0,113.0,-66.0,127.0,127.0,127.0,-122.0,-87.0,-124.0
127.0,126.0,126.0,129.0,127.0,127.0,128.0,129.0,-1.0,113.0,-66.0,127.0,127.0,127.0,-122.0,-87.0,-124.0
127.0,126.0,126.0,129.0,127.0,127.0,128.0,129.0,-1.0,113.0,-66.0,127.0,127.0,127.0,-122.0,-87.0,-124.0
127.0,126.0,126.0,129.0,127.0,127.0,128.0,129.0,-1.0,113.0,-66.0,127.0,127.0,127.0,-122.0,-87.0,-124.0
127.0,126.0,126.0,129.0,127.0,127.0,128.0,129.0,-1.0,113.0,-66.0,127.0,127.0,127.0,-122.0,-87.0,-124.0
127.0,127.0,127.0,129.0,126.0,127.0,127.0,129.0,-1.0,113.0,-66.0,127.0,127.0,127.0,-122.0,-87.0,-124.0
127.0,127.0,127.0,129.0,126.0,127.0,127.0,129.0,-1.0,113.0,-66.0,127.0,127.0,127.0,-122.0,-87.0,-124.0
127.0,127.0,127.0,129.0,126.0,128.0,127.0,129.0,-1.0,113.0,-66.0,127.0,127.0,127.0,-122.0,-87.0,-124.0
127.0,127.0,127.0,129.0,126.0,128.0,127.0,129.0,-1.0,113.0,-66.0,127.0,127.0,127.0,-122.0,-87.0,-124.0
127.0,127.0,127.0,129.0,126.0,126.0,127.0,128.0,-1.0,113.0,-66.0,127.0,127.0,127.0,-122.0,-87.0,-124.0
126.0,127.0,127.0,129.0,126.0,126.0,127.0,128.0,-1.0,113.0,-66.0,127.0,127.0,127.0,-122.0,-87.0,-124.0
127.0,127.0,127.0,129.0,126.0,127.0,127.0,128.0,-1.0,113.0,-66.0,127.0,127.0,127.0,-122.0,-87.0,-124.0
127.0,127.0,127.0,129.0,126.0,127.0,127.0,128.0,-1.0,113.0,-66.0,127.0,127.0,127.0,-122.0,-87.0,-124.0
127.0,127.0,127.0,129.0,126.0,127.0,127.0,129.0,-1.0,113.0,-66.0,127.0,127.0,127.0,-122.0,-87.0,-124.0
127.0,127.0,127.0,129.0,126.0,127.0,127.0,128.0,-1.0,113.0,-66.0,127.0,127.0,127.0,-122.0,-87.0,-124.0
127.0,126.0,127.0,129.0,125.0,127.0,127.0,129.0,-1.0,113.0,-66.0,127.0,127.0,127.0,-122.0,-87.0,-124.0
127.0,126.0,127.0,129.0,125.0,128.0,127.0,129.0,-1.0,113.0,-66.0,127.0,127.0,127.0,-122.0,-87.0,-124.0
127.0,126.0,127.0,129.0,125.0,128.0,127.0,129.0,-1.0,113.0,-66.0,127.0,127.0,127.0,-122.0,-87.0,-124.0
127.0,126.0,127.0,129.0,126.0,126.0,127.0,128.0,-1.0,113.0,-66.0,127.0,127.0,127.0,-122.0,-87.0,-124.0
127.0,126.0,127.0,129.0,126.0,126.0,127.0,128.0,-1.0,113.0,-66.0,127.0,127.0,127.0,-122.0,-87.0,-124.0
127.0,126.0,127.0,129.0,125.0,127.0,127.0,129.0,-1.0,113.0,-66.0,127.0,127.0,127.0,-122.0,-87.0,-124.0
127.0,126.0,127.0,129.0,125.0,127.0,127.0,129.0,-1.0,113.0,-66.0,127.0,127.0,127.0,-122.0,-87.0,-124.0
127.0,126.0,127.0,129.0,125.0,127.0,127.0,129.0,-1.0,113.0,-66.0,127.0,127.0,127.0,-122.0,-87.0,-124.0
127.0,126.0,127.0,129.0,125.0,127.0,127.0,129.0,-1.0,113.0,-66.0,127.0,127.0,127.0,-122.0,-87.0,-124.0
127.0,126.0,127.0,129.0,125.0,127.0,127.0,129.0,-1.0,113.0,-66.0,127.0,127.0,127.0,-122.0,-87.0,-124.0
127.0,127.0,127.0,129.0,127.0,126.0,128.0,128.0,-1.0,113.0,-66.0,127.0,127.0,127.0,-122.0,-87.0,-124.0
127.0,127.0,127.0,129.0,127.0,125.0,128.0,128.0,-1.0,113.0,-66.0,127.0,127.0,127.0,-122.0,-87.0,-124.0
127.0,127.0,127.0,129.0,126.0,125.0,127.0,128.0,-1.0,113.0,-66.0,127.0,127.0,127.0,-122.0,-87.0,-124.0
127.0,127.0,127.0,129.0,126.0,125.0,127.0,128.0,-1.0,113.0,-66.0,127.0,127.0,127.0,-122.0,-87.0,-124.0
127.0,127.0,127.0,129.0,126.0,126.0,127.0,128.0,-1.0,113.0,-66.0,127.0,127.0,127.0,-122.0,-87.0,-124.0
127.0,127.0,127.0,129.0,126.0,126.0,127.0,128.0,-1.0,113.0,-66.0,127.0,127.0,127.0,-122.0,-87.0,-124.0
127.0,127.0,127.0,129.0,126.0,126.0,127.0,128.0,-1.0,113.0,-66.0,127.0,127.0,127.0,-122.0,-87.0,-124.0
127.0,126.0,127.0,129.0,127.0,125.0,127.0,128.0,-1.0,113.0,-66.0,127.0,127.0,127.0,-122.0,-87.0,-124.0
127.0,126.0,127.0,129.0,127.0,125.0,127.0,128.0,-1.0,113.0,-66.0,127.0,127.0,127.0,-122.0,-87.0,-124.0
127.0,126.0,127.0,129.0,127.0,125.0,127.0,128.0,-1.0,113.0,-66.0,127.0,127.0,127.0,-122.0,-87.0,-124.0
127.0,126.0,121.0,129.0,124.0,117.0,194.0,125.0,-1.0,113.0,-66.0,127.0,127.0,127.0,-122.0,-87.0,-124.0
126.0,127.0,123.0,129.0,125.0,119.0,193.0,126.0,-1.0,113.0,-66.0,127.0,127.0,127.0,-122.0,-87.0,-124.0
126.0,127.0,123.0,129.0,125.0,119.0,195.0,126.0,-1.0,113.0,-66.0,127.0,127.0,127.0,-122.0,-87.0,-124.0
126.0,127.0,123.0,129.0,124.0,119.0,197.0,126.0,-1.0,113.0,-66.0,127.0,127.0,127.0,-122.0,-87.0,-124.0
127.0,127.0,122.0,129.0,124.0,119.0,198.0,126.0,-1.0,113.0,-66.0,127.0,127.0,127.0,-122.0,-87.0,-124.0
127.0,127.0,122.0,129.0,124.0,119.0,199.0,126.0,-1.0,113.0,-66.0,127.0,127.0,127.0,-122.0,-87.0,-124.0
127.0,127.0,122.0,129.0,124.0,119.0,199.0,126.0,-1.0,113.0,-66.0,127.0,127.0,127.0,-122.0,-87.0,-124.0
127.0,127.0,122.0,129.0,124.0,118.0,199.0,126.0,-1.0,113.0,-66.0,127.0,127.0,127.0,-122.0,-87.0,-124.0
127.0,127.0,121.0,129.0,124.0,118.0,198.0,126.0,-1.0,113.0,-66.0,127.0,127.0,127.0,-122.0,-87.0,-124.0
127.0,127.0,121.0,129.0,124.0,118.0,196.0,125.0,-1.0,113.0,-66.0,127.0,127.0,127.0,-122.0,-87.0,-124.0
127.0,131.0,111.0,136.0,103.0,111.0,0.0,118.0,-1.0,113.0,-66.0,127.0,127.0,127.0,-122.0,-87.0,-124.0
127.0,130.0,110.0,137.0,103.0,113.0,0.0,118.0,-1.0,113.0,-66.0,127.0,127.0,127.0,-122.0,-87.0,-124.0
127.0,130.0,110.0,137.0,103.0,114.0,0.0,119.0,-1.0,113.0,-66.0,127.0,127.0,127.0,-122.0,-87.0,-124.0
127.0,130.0,109.0,137.0,104.0,115.0,0.0,119.0,-1.0,113.0,-66.0,127.0,127.0,127.0,-122.0,-87.0,-124.0
127.0,130.0,108.0,138.0,104.0,116.0,0.0,119.0,-1.0,113.0,-66.0,127.0,127.0,127.0,-122.0,-87.0,-124.0
127.0,130.0,108.0,138.0,103.0,117.0,0.0,120.0,-1.0,113.0,-66.0,127.0,127.0,127.0,-122.0,-87.0,-124.0
127.0,129.0,107.0,138.0,104.0,118.0,0.0,120.0,-1.0,113.0,-66.0,127.0,127.0,127.0,-122.0,-87.0,-124.0
127.0,129.0,107.0,138.0,104.0,118.0,0.0,120.0,-1.0,113.0,-66.0,127.0,127.0,127.0,-122.0,-87.0,-124.0
127.0,128.0,106.0,138.0,105.0,119.0,0.0,120.0,-1.0,113.0,-66.0,127.0,127.0,127.0,-122.0,-87.0,-124.0
127.0,128.0,105.0,139.0,105.0,121.0,0.0,120.0,-1.0,113.0,-66.0,127.0,127.0,127.0,-122.0,-87.0,-124.0
126.0,84.0,104.0,144.0,110.0,72.0,57.0,131.0,-1.0,114.0,-65.0,127.0,127.0,127.0,-122.0,-87.0,-124.0
126.0,82.0,104.0,144.0,109.0,72.0,66.0,130.0,-1.0,114.0,-65.0,127.0,127.0,127.0,-122.0,-87.0,-124.0
126.0,80.0,103.0,144.0,108.0,72.0,74.0,129.0,-1.0,114.0,-65.0,127.0,127.0,127.0,-122.0,-87.0,-124.0
126.0,77.0,103.0,144.0,107.0,71.0,83.0,128.0,-1.0,114.0,-65.0,127.0,127.0,127.0,-122.0,-87.0,-124.0
127.0,75.0,102.0,144.0,107.0,71.0,92.0,128.0,-1.0,114.0,-65.0,127.0,127.0,127.0,-122.0,-87.0,-124.0
127.0,73.0,102.0,145.0,106.0,71.0,100.0,127.0,-1.0,114.0,-65.0,127.0,127.0,127.0,-122.0,-87.0,-124.0
127.0,71.0,101.0,145.0,105.0,71.0,109.0,126.0,-1.0,114.0,-65.0,127.0,127.0,127.0,-122.0,-87.0,-124.0
127.0,68.0,101.0,145.0,104.0,71.0,118.0,126.0,-1.0,114.0,-65.0,127.0,127.0,127.0,-122.0,-87.0,-124.0
127.0,66.0,100.0,145.0,103.0,71.0,127.0,126.0,-1.0,114.0,-65.0,127.0,127.0,127.0,-122.0,-87.0,-124.0
126.0,86.0,104.0,144.0,110.0,72.0,49.0,131.0,-1.0,114.0,-65.0,127.0,127.0,127.0,-122.0,-87.0,-124.0
127.0,0.0,82.0,184.0,101.0,17.0,176.0,96.0,-1.0,117.0,-64.0,126.0,127.0,127.0,-122.0,-87.0,-124.0
127.0,0.0,83.0,185.0,102.0,15.0,173.0,96.0,-1.0,117.0,-64.0,126.0,127.0,127.0,-122.0,-87.0,-124.0
127.0,0.0,84.0,186.0,103.0,13.0,169.0,96.0,-1.0,117.0,-64.0,126.0,127.0,127.0,-122.0,-87.0,-124.0
127.0,0.0,86.0,187.0,103.0,10.0,166.0,96.0,-1.0,117.0,-64.0,126.0,127.0,127.0,-122.0,-87.0,-124.0
127.0,0.0,87.0,188.0,104.0,6.0,162.0,96.0,-1.0,117.0,-64.0,126.0,127.0,127.0,-122.0,-87.0,-124.0
127.0,0.0,88.0,189.0,104.0,3.0,159.0,96.0,-1.0,117.0,-64.0,126.0,127.0,127.0,-122.0,-87.0,-124.0
127.0,0.0,89.0,189.0,105.0,0.0,157.0,97.0,-1.0,117.0,-64.0,126.0,127.0,127.0,-122.0,-87.0,-124.0
127.0,0.0,90.0,190.0,106.0,0.0,154.0,97.0,-1.0,117.0,-64.0,126.0,127.0,127.0,-122.0,-87.0,-124.0
127.0,0.0,80.0,182.0,100.0,21.0,185.0,97.0,-1.0,117.0,-64.0,126.0,127.0,127.0,-122.0,-87.0,-124.0
127.0,0.0,81.0,183.0,100.0,19.0,181.0,97.0,-1.0,117.0,-64.0,126.0,127.0,127.0,-122.0,-87.0,-124.0
127.0,102.0,128.0,254.0,119.0,0.0,254.0,121.0,-1.0,117.0,-66.0,126.0,127.0,127.0,-122.0,-87.0,-124.0
127.0,105.0,129.0,254.0,119.0,0.0,254.0,121.0,-1.0,117.0,-66.0,126.0,127.0,127.0,-122.0,-87.0,-124.0
127.0,107.0,130.0,254.0,119.0,0.0,254.0,121.0,-1.0,117.0,-66.0,126.0,127.0,127.0,-122.0,-87.0,-124.0
127.0,109.0,130.0,254.0,120.0,0.0,254.0,121.0,-1.0,117.0,-66.0,126.0,127.0,127.0,-122.0,-87.0,-124.0
127.0,111.0,131.0,254.0,120.0,0.0,254.0,121.0,-1.0,117.0,-66.0,126.0,127.0,127.0,-122.0,-87.0,-124.0
127.0,113.0,131.0,254.0,120.0,0.0,254.0,121.0,-1.0,117.0,-66.0,126.0,127.0,127.0,-122.0,-87.0,-124.0
127.0,114.0,132.0,254.0,120.0,0.0,254.0,121.0,-1.0,117.0,-66.0,126.0,127.0,127.0,-122.0,-87.0,-124.0
127.0,92.0,127.0,254.0,119.0,0.0,254.0,121.0,-1.0,117.0,-66.0,126.0,127.0,127.0,-122.0,-87.0,-124.0
127.0,96.0,127.0,254.0,119.0,0.0,254.0,121.0,-1.0,117.0,-66.0,126.0,127.0,127.0,-122.0,-87.0,-124.0
127.0,99.0,128.0,254.0,119.0,0.0,254.0,121.0,-1.0,117.0,-66.0,126.0,127.0,127.0,-122.0,-87.0,-124.0
127.0,63.0,147.0,254.0,109.0,0.0,254.0,102.0,-1.0,113.0,-62.0,125.0,127.0,127.0,-122.0,-88.0,-124.0
127.0,63.0,148.0,254.0,109.0,0.0,254.0,101.0,-1.0,113.0,-62.0,125.0,127.0,127.0,-122.0,-88.0,-124.0
127.0,63.0,149.0,254.0,109.0,0.0,254.0,100.0,-1.0,113.0,-62.0,125.0,127.0,127.0,-122.0,-88.0,-124.0
127.0,63.0,150.0,254.0,108.0,0.0,254.0,100.0,-1.0,113.0,-62.0,125.0,127.0,127.0,-122.0,-88.0,-124.0
127.0,63.0,151.0,254.0,108.0,0.0,254.0,99.0,-1.0,113.0,-62.0,125.0,127.0,127.0,-122.0,-88.0,-124.0
127.0,63.0,151.0,254.0,108.0,0.0,254.0,98.0,-1.0,113.0,-62.0,125.0,127.0,127.0,-122.0,-88.0,-124.0
127.0,66.0,144.0,254.0,111.0,0.0,254.0,104.0,-1.0,113.0,-62.0,125.0,127.0,127.0,-122.0,-88.0,-124.0
127.0,65.0,144.0,254.0,111.0,0.0,254.0,103.0,-1.0,113.0,-62.0,125.0,127.0,127.0,-122.0,-88.0,-124.0
127.0,64.0,145.0,254.0,110.0,0.0,254.0,103.0,-1.0,113.0,-62.0,125.0,127.0,127.0,-122.0,-88.0,-124.0
127.0,64.0,146.0,254.0,110.0,0.0,254.0,102.0,-1.0,113.0,-62.0,125.0,127.0,127.0,-122.0,-88.0,-124.0
127.0,151.0,139.0,254.0,152.0,0.0,190.0,115.0,-1.0,111.0,-63.0,125.0,127.0,127.0,-122.0,-88.0,-124.0
127.0,151.0,138.0,254.0,153.0,0.0,182.0,115.0,-1.0,111.0,-63.0,125.0,127.0,127.0,-122.0,-88.0,-124.0
127.0,151.0,137.0,254.0,153.0,0.0,174.0,115.0,-1.0,111.0,-63.0,125.0,127.0,127.0,-122.0,-88.0,-124.0
127.0,151.0,137.0,254.0,155.0,0.0,166.0,115.0,-1.0,111.0,-63.0,125.0,127.0,127.0,-122.0,-88.0,-124.0
127.0,151.0,136.0,254.0,156.0,0.0,158.0,115.0,-1.0,111.0,-63.0,125.0,127.0,127.0,-122.0,-88.0,-124.0
127.0,147.0,142.0,254.0,146.0,0.0,224.0,110.0,-1.0,111.0,-63.0,125.0,127.0,127.0,-122.0,-88.0,-124.0
127.0,148.0,141.0,254.0,147.0,0.0,218.0,111.0,-1.0,111.0,-63.0,125.0,127.0,127.0,-122.0,-88.0,-124.0
127.0,148.0,141.0,254.0,148.0,0.0,211.0,112.0,-1.0,111.0,-63.0,125.0,127.0,127.0,-122.0,-88.0,-124.0
127.0,149.0,140.0,254.0,149.0,0.0,204.0,113.0,-1.0,111.0,-63.0,125.0,127.0,127.0,-122.0,-88.0,-124.0
127.0,150.0,139.0,254.0,150.0,0.0,197.0,114.0,-1.0,111.0,-63.0,125.0,127.0,127.0,-122.0,-88.0,-124.0
127.0,100.0,135.0,254.0,140.0,0.0,87.0,114.0,-1.0,106.0,-65.0,127.0,127.0,127.0,-122.0,-88.0,-124.0
127.0,101.0,136.0,254.0,140.0,0.0,90.0,115.0,-1.0,106.0,-65.0,127.0,127.0,127.0,-122.0,-88.0,-124.0
127.0,101.0,136.0,254.0,139.0,0.0,94.0,115.0,-1.0,106.0,-65.0,127.0,127.0,127.0,-122.0,-88.0,-124.0
127.0,102.0,136.0,254.0,139.0,0.0,97.0,115.0,-1.0,106.0,-65.0,127.0,127.0,127.0,-122.0,-88.0,-124.0
127.0,98.0,133.0,254.0,145.0,0.0,68.0,113.0,-1.0,106.0,-65.0,127.0,127.0,127.0,-122.0,-88.0,-124.0
127.0,98.0,134.0,254.0,144.0,0.0,71.0,113.0,-1.0,106.0,-65.0,127.0,127.0,127.0,-122.0,-88.0,-124.0
127.0,98.0,134.0,254.0,143.0,0.0,74.0,113.0,-1.0,106.0,-65.0,127.0,127.0,127.0,-122.0,-88.0,-124.0
126.0,98.0,134.0,254.0,142.0,0.0,77.0,114.0,-1.0,106.0,-65.0,127.0,127.0,127.0,-122.0,-88.0,-124.0
126.0,99.0,135.0,254.0,141.0,0.0,81.0,114.0,-1.0,106.0,-65.0,127.0,127.0,127.0,-122.0,-88.0,-124.0
126.0,99.0,135.0,254.0,141.0,0.0,84.0,114.0,-1.0,106.0,-65.0,127.0,127.0,127.0,-122.0,-88.0,-124.0
127.0,114.0,140.0,206.0,125.0,0.0,238.0,117.0,-1.0,109.0,-68.0,127.0,127.0,127.0,-122.0,-88.0,-124.0
127.0,114.0,140.0,204.0,126.0,0.0,239.0,118.0,-1.0,109.0,-68.0,127.0,127.0,127.0,-122.0,-88.0,-124.0
127.0,114.0,140.0,203.0,126.0,0.0,239.0,118.0,-1.0,109.0,-68.0,127.0,127.0,127.0,-122.0,-88.0,-124.0
127.0,113.0,140.0,216.0,125.0,0.0,230.0,116.0,-1.0,109.0,-68.0,127.0,127.0,127.0,-122.0,-88.0,-124.0
127.0,113.0,140.0,214.0,124.0,0.0,232.0,116.0,-1.0,109.0,-68.0,127.0,127.0,127.0,-122.0,-88.0,-124.0
127.0,113.0,140.0,213.0,125.0,0.0,233.0,116.0,-1.0,109.0,-68.0,127.0,127.0,127.0,-122.0,-88.0,-124.0
127.0,114.0,140.0,211.0,125.0,0.0,234.0,117.0,-1.0,109.0,-68.0,127.0,127.0,127.0,-122.0,-88.0,-124.0
127.0,114.0,140.0,210.0,125.0,0.0,235.0,117.0,-1.0,109.0,-68.0,127.0,127.0,127.0,-122.0,-88.0,-124.0
127.0,114.0,140.0,208.0,125.0,0.0,237.0,117.0,-1.0,109.0,-68.0,127.0,127.0,127.0,-122.0,-88.0,-124.0
127.0,114.0,140.0,207.0,125.0,0.0,237.0,117.0,-1.0,109.0,-68.0,127.0,127.0,127.0,-122.0,-88.0,-124.0
127.0,124.0,148.0,170.0,139.0,0.0,143.0,116.0,-1.0,115.0,-69.0,126.0,127.0,127.0,-122.0,-88.0,-124.0
127.0,124.0,149.0,170.0,139.0,0.0,140.0,116.0,-1.0,115.0,-69.0,126.0,127.0,127.0,-122.0,-88.0,-124.0
127.0,124.0,146.0,173.0,135.0,0.0,170.0,117.0,-1.0,115.0,-69.0,126.0,127.0,127.0,-122.0,-88.0,-124.0
127.0,124.0,146.0,173.0,135.0,0.0,167.0,117.0,-1.0,115.0,-69.0,126.0,127.0,127.0,-122.0,-88.0,-124.0
127.0,124.0,146.0,172.0,135.0,0.0,163.0,117.0,-1.0,115.0,-69.0,126.0,127.0,127.0,-122.0,-88.0,-124.0
127.0,124.0,147.0,172.0,136.0,0.0,160.0,117.0,-1.0,115.0,-69.0,126.0,127.0,127.0,-122.0,-88.0,-124.0
127.0,124.0,147.0,172.0,136.0,0.0,156.0,117.0,-1.0,115.0,-69.0,126.0,127.0,127.0,-122.0,-88.0,-124.0
127.0,124.0,147.0,171.0,137.0,0.0,153.0,117.0,-1.0,115.0,-69.0,126.0,127.0,127.0,-122.0,-88.0,-124.0
127.0,124.0,147.0,171.0,137.0,0.0,150.0,116.0,-1.0,115.0,-69.0,126.0,127.0,127.0,-122.0,-88.0,-124.0
127.0,124.0,148.0,170.0,138.0,0.0,146.0,116.0,-1.0,115.0,-69.0,126.0,127.0,127.0,-122.0,-88.0,-124.0
127.0,117.0,143.0,151.0,142.0,0.0,76.0,123.0,-1.0,114.0,-67.0,126.0,127.0,127.0,-122.0,-88.0,-124.0
126.0,118.0,148.0,156.0,142.0,0.0,75.0,120.0,-1.0,114.0,-67.0,126.0,127.0,127.0,-122.0,-88.0,-124.0
126.0,117.0,147.0,155.0,142.0,0.0,75.0,120.0,-1.0,114.0,-67.0,126.0,127.0,127.0,-122.0,-88.0,-124.0
126.0,117.0,147.0,155.0,143.0,0.0,75.0,120.0,-1.0,114.0,-67.0,126.0,127.0,127.0,-122.0,-88.0,-124.0
126.0,117.0,146.0,154.0,143.0,0.0,75.0,121.0,-1.0,114.0,-67.0,126.0,127.0,127.0,-122.0,-88.0,-124.0
126.0,117.0,146.0,154.0,143.0,0.0,75.0,121.0,-1.0,114.0,-67.0,126.0,127.0,127.0,-122.0,-88.0,-124.0
126.0,117.0,145.0,153.0,143.0,0.0,75.0,122.0,-1.0,114.0,-67.0,126.0,127.0,127.0,-122.0,-88.0,-124.0
126.0,117.0,145.0,152.0,142.0,0.0,75.0,122.0,-1.0,114.0,-67.0,126.0,127.0,127.0,-122.0,-88.0,-124.0
126.0,117.0,144.0,152.0,142.0,0.0,75.0,122.0,-1.0,114.0,-67.0,126.0,127.0,127.0,-122.0,-88.0,-124.0
127.0,117.0,144.0,151.0,142.0,0.0,76.0,123.0,-1.0,114.0,-67.0,126.0,127.0,127.0,-122.0,-88.0,-124.0
127.0,119.0,127.0,138.0,136.0,0.0,65.0,124.0,-1.0,110.0,-67.0,126.0,127.0,127.0,-122.0,-88.0,-124.0
127.0,119.0,127.0,138.0,136.0,0.0,65.0,124.0,-1.0,110.0,-67.0,126.0,127.0,127.0,-122.0,-88.0,-124.0
127.0,119.0,127.0,138.0,136.0,0.0,65.0,124.0,-1.0,110.0,-67.0,126.0,127.0,127.0,-122.0,-88.0,-124.0
127.0,119.0,127.0,137.0,136.0,0.0,65.0,123.0,-1.0,110.0,-67.0,126.0,127.0,127.0,-122.0,-88.0,-124.0
127.0,120.0,127.0,137.0,136.0,0.0,65.0,123.0,-1.0,110.0,-67.0,126.0,127.0,127.0,-122.0,-88.0,-124.0
127.0,120.0,127.0,137.0,136.0,0.0,65.0,123.0,-1.0,110.0,-67.0,126.0,127.0,127.0,-122.0,-88.0,-124.0
127.0,120.0,127.0,137.0,137.0,0.0,65.0,123.0,-1.0,110.0,-67.0,126.0,127.0,127.0,-122.0,-88.0,-124.0
127.0,120.0,127.0,137.0,137.0,0.0,66.0,123.0,-1.0,110.0,-67.0,126.0,127.0,127.0,-122.0,-88.0,-124.0
127.0,120.0,127.0,137.0,137.0,0.0,66.0,123.0,-1.0,110.0,-67.0,126.0,127.0,127.0,-122.0,-88.0,-124.0
126.0,120.0,126.0,136.0,137.0,0.0,66.0,123.0,-1.0,110.0,-67.0,126.0,127.0,127.0,-122.0,-88.0,-124.0
126.0,122.0,119.0,130.0,128.0,0.0,99.0,124.0,-1.0,110.0,-68.0,127.0,127.0,127.0,-122.0,-88.0,-124.0
127.0,121.0,119.0,130.0,128.0,0.0,100.0,124.0,-1.0,110.0,-68.0,127.0,127.0,127.0,-122.0,-88.0,-124.0
127.0,121.0,119.0,130.0,128.0,0.0,101.0,125.0,-1.0,110.0,-68.0,127.0,127.0,127.0,-122.0,-88.0,-124.0
127.0,121.0,119.0,130.0,128.0,0.0,101.0,125.0,-1.0,110.0,-68.0,127.0,127.0,127.0,-122.0,-88.0,-124.0
127.0,121.0,119.0,130.0,128.0,0.0,102.0,125.0,-1.0,110.0,-68.0,127.0,127.0,127.0,-122.0,-88.0,-124.0
127.0,122.0,119.0,130.0,128.0,0.0,102.0,125.0,-1.0,110.0,-68.0,127.0,127.0,127.0,-122.0,-88.0,-124.0
127.0,122.0,120.0,129.0,128.0,0.0,103.0,125.0,-1.0,110.0,-68.0,127.0,127.0,127.0,-122.0,-88.0,-124.0
127.0,122.0,120.0,129.0,128.0,0.0,103.0,126.0,-1.0,110.0,-68.0,127.0,127.0,127.0,-122.0,-88.0,-124.0
127.0,122.0,120.0,129.0,128.0,0.0,103.0,126.0,-1.0,110.0,-68.0,127.0,127.0,127.0,-122.0,-88.0,-124.0
127.0,121.0,119.0,131.0,129.0,0.0,99.0,124.0,-1.0,110.0,-68.0,127.0,127.0,127.0,-122.0,-88.0,-124.0
127.0,126.0,130.0,127.0,128.0,54.0,95.0,129.0,-1.0,110.0,-69.0,126.0,127.0,127.0,-122.0,-88.0,-124.0
127.0,126.0,130.0,127.0,128.0,55.0,95.0,129.0,-1.0,110.0,-69.0,126.0,127.0,127.0,-122.0,-88.0,-124.0
127.0,126.0,130.0,127.0,128.0,56.0,94.0,129.0,-1.0,110.0,-69.0,126.0,127.0,127.0,-122.0,-88.0,-124.0
127.0,126.0,131.0,127.0,128.0,58.0,94.0,129.0,-1.0,110.0,-69.0,126.0,127.0,127.0,-122.0,-88.0,-124.0
127.0,126.0,131.0,127.0,128.0,59.0,93.0,130.0,-1.0,110.0,-69.0,126.0,127.0,127.0,-122.0,-88.0,-124.0
127.0,126.0,131.0,127.0,129.0,60.0,93.0,130.0,-1.0,110.0,-69.0,126.0,127.0,127.0,-122.0,-88.0,-124.0
127.0,126.0,131.0,127.0,129.0,61.0,92.0,130.0,-1.0,110.0,-69.0,126.0,127.0,127.0,-122.0,-88.0,-124.0
127.0,126.0,131.0,127.0,129.0,62.0,92.0,130.0,-1.0,110.0,-69.0,126.0,127.0,127.0,-122.0,-88.0,-124.0
127.0,126.0,130.0,127.0,128.0,50.0,96.0,129.0,-1.0,110.0,-69.0,126.0,127.0,127.0,-122.0,-88.0,-124.0
127.0,126.0,130.0,127.0,128.0,52.0,95.0,129.0,-1.0,110.0,-69.0,126.0,127.0,127.0,-122.0,-88.0,-124.0
127.0,125.0,135.0,134.0,129.0,82.0,102.0,129.0,-1.0,110.0,-68.0,126.0,127.0,127.0,-122.0,-88.0,-124.0
127.0,125.0,135.0,134.0,129.0,82.0,103.0,129.0,-1.0,110.0,-68.0,126.0,127.0,127.0,-122.0,-88.0,-124.0
126.0,125.0,135.0,134.0,129.0,82.0,104.0,129.0,-1.0,110.0,-68.0,126.0,127.0,127.0,-122.0,-88.0,-124.0
126.0,125.0,135.0,134.0,129.0,82.0,104.0,129.0,-1.0,110.0,-68.0,126.0,127.0,127.0,-122.0,-88.0,-124.0
126.0,125.0,135.0,134.0,129.0,82.0,105.0,129.0,-1.0,110.0,-68.0,126.0,127.0,127.0,-122.0,-88.0,-124.0
126.0,125.0,135.0,134.0,129.0,82.0,105.0,129.0,-1.0,110.0,-68.0,126.0,127.0,127.0,-122.0,-88.0,-124.0
126.0,125.0,135.0,134.0,129.0,81.0,106.0,129.0,-1.0,110.0,-68.0,126.0,127.0,127.0,-122.0,-88.0,-124.0
127.0,125.0,135.0,134.0,129.0,81.0,100.0,128.0,-1.0,110.0,-68.0,126.0,127.0,127.0,-122.0,-88.0,-124.0
127.0,125.0,135.0,134.0,129.0,82.0,101.0,128.0,-1.0,110.0,-68.0,126.0,127.0,127.0,-122.0,-88.0,-124.0
127.0,125.0,135.0,134.0,129.0,82.0,102.0,128.0,-1.0,110.0,-68.0,126.0,127.0,127.0,-122.0,-88.0,-124.0
127.0,125.0,131.0,133.0,127.0,86.0,120.0,125.0,-1.0,110.0,-66.0,127.0,127.0,127.0,-122.0,-88.0,-124.0
127.0,125.0,131.0,133.0,128.0,87.0,120.0,125.0,-1.0,110.0,-66.0,127.0,127.0,127.0,-122.0,-88.0,-124.0
127.0,125.0,131.0,132.0,128.0,88.0,121.0,125.0,-1.0,110.0,-66.0,127.0,127.0,127.0,-122.0,-88.0,-124.0
127.0,124.0,131.0,132.0,128.0,89.0,121.0,125.0,-1.0,110.0,-66.0,127.0,127.0,127.0,-122.0,-88.0,-124.0
127.0,124.0,131.0,132.0,128.0,90.0,121.0,125.0,-1.0,110.0,-66.0,127.0,127.0,127.0,-122.0,-88.0,-124.0
127.0,124.0,130.0,132.0,128.0,91.0,122.0,126.0,-1.0,110.0,-66.0,127.0,127.0,127.0,-122.0,-88.0,-124.0
127.0,126.0,131.0,133.0,127.0,83.0,118.0,126.0,-1.0,110.0,-66.0,127.0,127.0,127.0,-122.0,-88.0,-124.0
127.0,126.0,131.0,133.0,127.0,84.0,119.0,126.0,-1.0,110.0,-66.0,127.0,127.0,127.0,-122.0,-88.0,-124.0
127.0,126.0,131.0,133.0,127.0,85.0,119.0,126.0,-1.0,110.0,-66.0,127.0,127.0,127.0,-122.0,-88.0,-124.0
127.0,126.0,131.0,133.0,127.0,85.0,119.0,126.0,-1.0,110.0,-66.0,127.0,127.0,127.0,-122.0,-88.0,-124.0
127.0,121.0,124.0,127.0,127.0,125.0,119.0,129.0,-1.0,111.0,-66.0,127.0,127.0,127.0,-122.0,-88.0,-124.0
127.0,120.0,124.0,126.0,127.0,126.0,118.0,129.0,-1.0,111.0,-66.0,127.0,127.0,127.0,-122.0,-88.0,-124.0
127.0,120.0,124.0,126.0,127.0,126.0,118.0,129.0,-1.0,111.0,-66.0,127.0,127.0,127.0,-122.0,-88.0,-124.0
127.0,121.0,124.0,126.0,127.0,128.0,118.0,129.0,-1.0,111.0,-66.0,127.0,127.0,127.0,-122.0,-88.0,-124.0
127.0,121.0,124.0,126.0,127.0,128.0,118.0,130.0,-1.0,111.0,-66.0,127.0,127.0,127.0,-122.0,-88.0,-124.0
127.0,120.0,124.0,127.0,126.0,119.0,120.0,128.0,-1.0,111.0,-66.0,127.0,127.0,127.0,-122.0,-88.0,-124.0
127.0,120.0,124.0,127.0,126.0,121.0,120.0,128.0,-1.0,111.0,-66.0,127.0,127.0,127.0,-122.0,-88.0,-124.0
127.0,121.0,124.0,127.0,126.0,123.0,120.0,129.0,-1.0,111.0,-66.0,127.0,127.0,127.0,-122.0,-88.0,-124.0
127.0,121.0,124.0,127.0,126.0,124.0,119.0,129.0,-1.0,111.0,-66.0,127.0,127.0,127.0,-122.0,-88.0,-124.0
127.0,121.0,124.0,127.0,126.0,124.0,119.0,129.0,-1.0,111.0,-66.0,127.0,127.0,127.0,-122.0,-88.0,-124.0
127.0,121.0,123.0,124.0,128.0,138.0,118.0,128.0,-1.0,111.0,-68.0,127.0,127.0,127.0,-122.0,-88.0,-124.0
126.0,121.0,123.0,124.0,128.0,139.0,118.0,128.0,-1.0,111.0,-68.0,127.0,127.0,127.0,-122.0,-88.0,-124.0
127.0,121.0,123.0,124.0,128.0,139.0,118.0,128.0,-1.0,111.0,-68.0,127.0,127.0,127.0,-122.0,-88.0,-124.0
127.0,121.0,123.0,124.0,128.0,139.0,118.0,128.0,-1.0,111.0,-68.0,127.0,127.0,127.0,-122.0,-88.0,-124.0
127.0,120.0,123.0,124.0,129.0,135.0,117.0,129.0,-1.0,111.0,-68.0,127.0,127.0,127.0,-122.0,-88.0,-124.0
126.0,120.0,123.0,124.0,129.0,136.0,117.0,129.0,-1.0,111.0,-68.0,127.0,127.0,127.0,-122.0,-88.0,-124.0
127.0,121.0,123.0,123.0,128.0,137.0,117.0,129.0,-1.0,111.0,-68.0,127.0,127.0,127.0,-122.0,-88.0,-124.0
127.0,121.0,123.0,123.0,128.0,137.0,117.0,129.0,-1.0,111.0,-68.0,127.0,127.0,127.0,-122.0,-88.0,-124.0
127.0,121.0,123.0,123.0,128.0,137.0,118.0,129.0,-1.0,111.0,-68.0,127.0,127.0,127.0,-122.0,-88.0,-124.0
126.0,121.0,123.0,124.0,128.0,137.0,118.0,128.0,-1.0,111.0,-68.0,127.0,127.0,127.0,-122.0,-88.0,-124.0
127.0,128.0,128.0,125.0,128.0,114.0,103.0,128.0,-1.0,111.0,-68.0,127.0,127.0,127.0,-122.0,-88.0,-124.0
127.0,128.0,128.0,125.0,128.0,114.0,102.0,128.0,-1.0,111.0,-68.0,127.0,127.0,127.0,-122.0,-88.0,-124.0
127.0,128.0,128.0,125.0,128.0,114.0,102.0,128.0,-1.0,111.0,-68.0,127.0,127.0,127.0,-122.0,-88.0,-124.0
127.0,126.0,127.0,125.0,127.0,115.0,105.0,127.0,-1.0,111.0,-68.0,127.0,127.0,127.0,-122.0,-88.0,-124.0
127.0,126.0,127.0,125.0,127.0,115.0,104.0,127.0,-1.0,111.0,-68.0,127.0,127.0,127.0,-122.0,-88.0,-124.0
126.0,127.0,127.0,125.0,127.0,115.0,104.0,127.0,-1.0,111.0,-68.0,127.0,127.0,127.0,-122.0,-88.0,-124.0
126.0,127.0,127.0,125.0,128.0,114.0,104.0,127.0,-1.0,111.0,-68.0,127.0,127.0,127.0,-122.0,-88.0,-124.0
127.0,127.0,127.0,125.0,128.0,114.0,103.0,127.0,-1.0,111.0,-68.0,127.0,127.0,127.0,-122.0,-88.0,-124.0
127.0,127.0,128.0,125.0,128.0,115.0,103.0,128.0,-1.0,111.0,-68.0,127.0,127.0,127.0,-122.0,-88.0,-124.0
127.0,128.0,128.0,125.0,128.0,115.0,103.0,128.0,-1.0,111.0,-68.0,127.0,127.0,127.0,-122.0,-88.0,-124.0
126.0,123.0,131.0,130.0,127.0,122.0,112.0,128.0,-1.0,111.0,-67.0,127.0,127.0,127.0,-122.0,-88.0,-124.0
126.0,123.0,131.0,130.0,127.0,122.0,112.0,128.0,-1.0,111.0,-67.0,127.0,127.0,127.0,-122.0,-88.0,-124.0
127.0,125.0,132.0,129.0,125.0,118.0,108.0,128.0,-1.0,111.0,-67.0,127.0,127.0,127.0,-122.0,-88.0,-124.0
127.0,124.0,132.0,129.0,125.0,118.0,109.0,128.0,-1.0,111.0,-67.0,127.0,127.0,127.0,-122.0,-88.0,-124.0
127.0,124.0,131.0,130.0,126.0,118.0,109.0,128.0,-1.0,111.0,-67.0,127.0,127.0,127.0,-122.0,-88.0,-124.0
127.0,124.0,131.0,130.0,126.0,119.0,109.0,128.0,-1.0,111.0,-67.0,127.0,127.0,127.0,-122.0,-88.0,-124.0
126.0,124.0,131.0,130.0,126.0,120.0,110.0,128.0,-1.0,111.0,-67.0,127.0,127.0,127.0,-122.0,-88.0,-124.0
127.0,124.0,131.0,130.0,126.0,121.0,110.0,128.0,-1.0,111.0,-67.0,127.0,127.0,127.0,-122.0,-88.0,-124.0
126.0,124.0,131.0,130.0,126.0,121.0,111.0,128.0,-1.0,111.0,-67.0,127.0,127.0,127.0,-122.0,-88.0,-124.0
126.0,123.0,131.0,130.0,126.0,122.0,111.0,128.0,-1.0,111.0,-67.0,127.0,127.0,127.0,-122.0,-88.0,-124.0
127.0,128.0,126.0,128.0,129.0,120.0,118.0,127.0,-1.0,112.0,-66.0,127.0,127.0,127.0,-122.0,-88.0,-124.0
127.0,126.0,127.0,129.0,127.0,118.0,120.0,127.0,-1.0,112.0,-66.0,127.0,127.0,127.0,-122.0,-88.0,-124.0
127.0,126.0,126.0,129.0,128.0,118.0,120.0,127.0,-1.0,112.0,-66.0,127.0,127.0,127.0,-122.0,-88.0,-124.0
127.0,126.0,126.0,129.0,128.0,117.0,119.0,127.0,-1.0,112.0,-66.0,127.0,127.0,127.0,-122.0,-88.0,-124.0
127.0,127.0,126.0,129.0,128.0,117.0,119.0,127.0,-1.0,112.0,-66.0,127.0,127.0,127.0,-122.0,-88.0,-124.0
127.0,127.0,126.0,128.0,128.0,118.0,119.0,127.0,-1.0,112.0,-66.0,127.0,127.0,127.0,-122.0,-88.0,-124.0
127.0,127.0,126.0,128.0,128.0,118.0,119.0,128.0,-1.0,112.0,-66.0,127.0,127.0,127.0,-122.0,-88.0,-124.0
127.0,128.0,126.0,128.0,128.0,119.0,118.0,128.0,-1.0,112.0,-66.0,127.0,127.0,127.0,-122.0,-88.0,-124.0
127.0,128.0,126.0,128.0,129.0,119.0,118.0,128.0,-1.0,112.0,-66.0,127.0,127.0,127.0,-122.0,-88.0,-124.0
127.0,128.0,126.0,128.0,129.0,119.0,118.0,128.0,-1.0,112.0,-66.0,127.0,127.0,127.0,-122.0,-88.0,-124.0
127.0,125.0,123.0,127.0,127.0,137.0,105.0,126.0,-1.0,113.0,-66.0,127.0,127.0,127.0,-122.0,-88.0,-124.0
127.0,125.0,122.0,127.0,127.0,137.0,105.0,126.0,-1.0,113.0,-66.0,127.0,127.0,127.0,-122.0,-88.0,-124.0
127.0,125.0,122.0,127.0,127.0,137.0,104.0,126.0,-1.0,113.0,-66.0,127.0,127.0,127.0,-122.0,-88.0,-124.0
127.0,125.0,122.0,127.0,127.0,138.0,104.0,126.0,-1.0,113.0,-66.0,127.0,127.0,127.0,-122.0,-88.0,-124.0
127.0,125.0,122.0,126.0,127.0,138.0,104.0,126.0,-1.0,113.0,-66.0,127.0,127.0,127.0,-122.0,-88.0,-124.0
127.0,125.0,122.0,126.0,127.0,139.0,103.0,126.0,-1.0,113.0,-66.0,127.0,127.0,127.0,-122.0,-88.0,-124.0
127.0,125.0,122.0,126.0,127.0,140.0,103.0,127.0,-1.0,113.0,-66.0,127.0,127.0,127.0,-122.0,-88.0,-124.0
127.0,125.0,122.0,126.0,126.0,141.0,102.0,127.0,-1.0,113.0,-66.0,127.0,127.0,127.0,-122.0,-88.0,-124.0
127.0,125.0,122.0,126.0,126.0,141.0,102.0,127.0,-1.0,113.0,-66.0,127.0,127.0,127.0,-122.0,-88.0,-124.0
127.0,125.0,122.0,126.0,126.0,141.0,101.0,127.0,-1.0,113.0,-66.0,127.0,127.0,127.0,-122.0,-88.0,-124.0
126.0,133.0,121.0,122.0,126.0,138.0,64.0,128.0,-1.0,112.0,-67.0,127.0,127.0,127.0,-122.0,-88.0,-124.0
126.0,133.0,122.0,122.0,126.0,138.0,63.0,128.0,-1.0,112.0,-67.0,127.0,127.0,127.0,-122.0,-88.0,-124.0
126.0,133.0,122.0,122.0,126.0,138.0,63.0,128.0,-1.0,112.0,-67.0,127.0,127.0,127.0,-122.0,-88.0,-124.0
126.0,133.0,122.0,122.0,126.0,138.0,62.0,128.0,-1.0,112.0,-67.0,127.0,127.0,127.0,-122.0,-88.0,-124.0
126.0,133.0,122.0,122.0,126.0,138.0,62.0,128.0,-1.0,112.0,-67.0,127.0,127.0,127.0,-122.0,-88.0,-124.0
126.0,133.0,122.0,121.0,125.0,139.0,61.0,128.0,-1.0,112.0,-67.0,127.0,127.0,127.0,-122.0,-88.0,-124.0
126.0,133.0,122.0,121.0,125.0,139.0,61.0,128.0,-1.0,112.0,-67.0,127.0,127.0,127.0,-122.0,-88.0,-124.0
127.0,134.0,122.0,121.0,125.0,140.0,60.0,128.0,-1.0,112.0,-67.0,127.0,127.0,127.0,-122.0,-88.0,-124.0
127.0,134.0,122.0,121.0,125.0,140.0,60.0,128.0,-1.0,112.0,-67.0,127.0,127.0,127.0,-122.0,-88.0,-124.0
126.0,132.0,121.0,122.0,126.0,138.0,65.0,128.0,-1.0,112.0,-67.0,127.0,127.0,127.0,-122.0,-88.0,-124.0
127.0,136.0,124.0,121.0,125.0,138.0,60.0,128.0,-1.0,111.0,-67.0,127.0,127.0,127.0,-122.0,-88.0,-124.0
127.0,136.0,124.0,121.0,125.0,138.0,61.0,128.0,-1.0,111.0,-67.0,127.0,127.0,127.0,-122.0,-88.0,-124.0
127.0,136.0,124.0,121.0,125.0,139.0,61.0,128.0,-1.0,111.0,-67.0,127.0,127.0,127.0,-122.0,-88.0,-124.0
127.0,136.0,124.0,121.0,125.0,139.0,61.0,128.0,-1.0,111.0,-67.0,127.0,127.0,127.0,-122.0,-88.0,-124.0
127.0,137.0,124.0,121.0,125.0,140.0,61.0,129.0,-1.0,111.0,-67.0,127.0,127.0,127.0,-122.0,-88.0,-124.0
127.0,137.0,124.0,121.0,125.0,140.0,61.0,129.0,-1.0,111.0,-67.0,127.0,127.0,127.0,-122.0,-88.0,-124.0
127.0,137.0,124.0,121.0,125.0,140.0,62.0,129.0,-1.0,111.0,-67.0,127.0,127.0,127.0,-122.0,-88.0,-124.0
127.0,137.0,124.0,120.0,126.0,140.0,62.0,129.0,-1.0,111.0,-67.0,127.0,127.0,127.0,-122.0,-88.0,-124.0
127.0,136.0,124.0,122.0,125.0,138.0,60.0,128.0,-1.0,111.0,-67.0,127.0,127.0,127.0,-122.0,-88.0,-124.0
127.0,136.0,124.0,121.0,125.0,138.0,60.0,128.0,-1.0,111.0,-67.0,127.0,127.0,127.0,-122.0,-88.0,-124.0
127.0,135.0,128.0,122.0,121.0,164.0,56.0,129.0,-1.0,111.0,-66.0,127.0,127.0,127.0,-122.0,-88.0,-124.0
127.0,135.0,128.0,122.0,121.0,165.0,55.0,129.0,-1.0,111.0,-66.0,127.0,127.0,127.0,-122.0,-88.0,-124.0
127.0,135.0,128.0,122.0,121.0,165.0,55.0,129.0,-1.0,111.0,-66.0,127.0,127.0,127.0,-122.0,-88.0,-124.0
126.0,135.0,128.0,122.0,121.0,167.0,54.0,130.0,-1.0,111.0,-66.0,127.0,127.0,127.0,-122.0,-88.0,-124.0
127.0,135.0,129.0,122.0,122.0,168.0,54.0,130.0,-1.0,111.0,-66.0,127.0,127.0,127.0,-122.0,-88.0,-124.0
127.0,135.0,129.0,122.0,122.0,168.0,53.0,130.0,-1.0,111.0,-66.0,127.0,127.0,127.0,-122.0,-88.0,-124.0
127.0,134.0,129.0,122.0,122.0,169.0,53.0,130.0,-1.0,111.0,-66.0,127.0,127.0,127.0,-122.0,-88.0,-124.0
127.0,136.0,128.0,121.0,120.0,162.0,58.0,129.0,-1.0,111.0,-66.0,127.0,127.0,127.0,-122.0,-88.0,-124.0
127.0,135.0,128.0,121.0,120.0,163.0,57.0,129.0,-1.0,111.0,-66.0,127.0,127.0,127.0,-122.0,-88.0,-124.0
127.0,135.0,128.0,121.0,120.0,164.0,56.0,129.0,-1.0,111.0,-66.0,127.0,127.0,127.0,-122.0,-88.0,-124.0
127.0,136.0,132.0,122.0,128.0,182.0,38.0,129.0,-1.0,112.0,-66.0,127.0,127.0,127.0,-122.0,-88.0,-124.0
127.0,136.0,132.0,122.0,128.0,183.0,38.0,129.0,-1.0,112.0,-66.0,127.0,127.0,127.0,-122.0,-88.0,-124.0
127.0,136.0,132.0,122.0,128.0,183.0,38.0,129.0,-1.0,112.0,-66.0,127.0,127.0,127.0,-122.0,-88.0,-124.0
127.0,136.0,133.0,122.0,128.0,184.0,38.0,129.0,-1.0,112.0,-66.0,127.0,127.0,127.0,-122.0,-88.0,-124.0
127.0,136.0,133.0,122.0,128.0,185.0,38.0,129.0,-1.0,112.0,-66.0,127.0,127.0,127.0,-122.0,-88.0,-124.0
127.0,136.0,133.0,121.0,129.0,185.0,38.0,129.0,-1.0,112.0,-66.0,127.0,127.0,127.0,-122.0,-88.0,-124.0
127.0,135.0,132.0,122.0,126.0,181.0,38.0,128.0,-1.0,112.0,-66.0,127.0,127.0,127.0,-122.0,-88.0,-124.0
127.0,135.0,132.0,122.0,127.0,182.0,38.0,129.0,-1.0,112.0,-66.0,127.0,127.0,127.0,-122.0,-88.0,-124.0
127.0,136.0,132.0,122.0,127.0,182.0,38.0,129.0,-1.0,112.0,-66.0,127.0,127.0,127.0,-122.0,-88.0,-124.0
127.0,136.0,132.0,122.0,127.0,182.0,38.0,129.0,-1.0,112.0,-66.0,127.0,127.0,127.0,-122.0,-88.0,-124.0
127.0,135.0,139.0,120.0,130.0,197.0,75.0,130.0,-1.0,113.0,-66.0,127.0,127.0,127.0,-122.0,-88.0,-124.0
127.0,135.0,139.0,119.0,131.0,196.0,75.0,130.0,-1.0,113.0,-66.0,127.0,127.0,127.0,-122.0,-88.0,-124.0
126.0,135.0,139.0,119.0,130.0,196.0,76.0,130.0,-1.0,113.0,-66.0,127.0,127.0,127.0,-122.0,-88.0,-124.0
126.0,135.0,139.0,119.0,131.0,196.0,77.0,130.0,-1.0,113.0,-66.0,127.0,127.0,127.0,-122.0,-88.0,-124.0
126.0,135.0,139.0,119.0,131.0,195.0,77.0,130.0,-1.0,113.0,-66.0,127.0,127.0,127.0,-122.0,-88.0,-124.0
127.0,136.0,138.0,120.0,130.0,197.0,70.0,130.0,-1.0,113.0,-66.0,127.0,127.0,127.0,-122.0,-88.0,-124.0
127.0,136.0,139.0,120.0,130.0,197.0,71.0,130.0,-1.0,113.0,-66.0,127.0,127.0,127.0,-122.0,-88.0,-124.0
127.0,136.0,139.0,120.0,130.0,197.0,72.0,130.0,-1.0,113.0,-66.0,127.0,127.0,127.0,-122.0,-88.0,-124.0
127.0,135.0,139.0,120.0,130.0,197.0,73.0,130.0,-1.0,113.0,-66.0,127.0,127.0,127.0,-122.0,-88.0,-124.0
127.0,135.0,139.0,120.0,130.0,196.0,74.0,130.0,-1.0,113.0,-66.0,127.0,127.0,127.0,-122.0,-88.0,-124.0
127.0,137.0,141.0,112.0,133.0,186.0,92.0,131.0,-1.0,113.0,-67.0,127.0,127.0,127.0,-122.0,-88.0,-124.0
127.0,137.0,140.0,112.0,133.0,186.0,93.0,131.0,-1.0,113.0,-67.0,127.0,127.0,127.0,-122.0,-88.0,-124.0
127.0,137.0,140.0,112.0,132.0,186.0,93.0,131.0,-1.0,113.0,-67.0,127.0,127.0,127.0,-122.0,-88.0,-124.0
127.0,137.0,140.0,112.0,132.0,186.0,93.0,131.0,-1.0,113.0,-67.0,127.0,127.0,127.0,-122.0,-88.0,-124.0
127.0,137.0,141.0,113.0,133.0,187.0,91.0,131.0,-1.0,113.0,-67.0,127.0,127.0,127.0,-122.0,-88.0,-124.0
127.0,137.0,141.0,113.0,133.0,187.0,92.0,131.0,-1.0,113.0,-67.0,127.0,127.0,127.0,-122.0,-88.0,-124.0
127.0,137.0,141.0,113.0,133.0,187.0,92.0,131.0,-1.0,113.0,-67.0,127.0,127.0,127.0,-122.0,-88.0,-124.0
127.0,137.0,141.0,113.0,133.0,186.0,92.0,131.0,-1.0,113.0,-67.0,127.0,127.0,127.0,-122.0,-88.0,-124.0
127.0,137.0,141.0,113.0,133.0,186.0,92.0,131.0,-1.0,113.0,-67.0,127.0,127.0,127.0,-122.0,-88.0,-124.0
127.0,137.0,141.0,113.0,133.0,186.0,92.0,131.0,-1.0,113.0,-67.0,127.0,127.0,127.0,-122.0,-88.0,-124.0
127.0,139.0,132.0,102.0,130.0,194.0,118.0,135.0,-1.0,112.0,-67.0,127.0,127.0,127.0,-122.0,-88.0,-124.0
127.0,139.0,132.0,102.0,130.0,194.0,119.0,135.0,-1.0,112.0,-67.0,127.0,127.0,127.0,-122.0,-88.0,-124.0
127.0,139.0,132.0,102.0,130.0,194.0,120.0,135.0,-1.0,112.0,-67.0,127.0,127.0,127.0,-122.0,-88.0,-124.0
127.0,139.0,134.0,103.0,131.0,192.0,112.0,134.0,-1.0,112.0,-67.0,127.0,127.0,127.0,-122.0,-88.0,-124.0
127.0,139.0,134.0,103.0,131.0,192.0,112.0,134.0,-1.0,112.0,-67.0,127.0,127.0,127.0,-122.0,-88.0,-124.0
127.0,139.0,133.0,103.0,131.0,193.0,113.0,135.0,-1.0,112.0,-67.0,127.0,127.0,127.0,-122.0,-88.0,-124.0
127.0,139.0,133.0,103.0,131.0,193.0,114.0,135.0,-1.0,112.0,-67.0,127.0,127.0,127.0,-122.0,-88.0,-124.0
127.0,139.0,133.0,102.0,130.0,194.0,115.0,135.0,-1.0,112.0,-67.0,127.0,127.0,127.0,-122.0,-88.0,-124.0
127.0,139.0,133.0,102.0,130.0,194.0,116.0,135.0,-1.0,112.0,-67.0,127.0,127.0,127.0,-122.0,-88.0,-124.0
127.0,139.0,132.0,102.0,130.0,194.0,117.0,135.0,-1.0,112.0,-67.0,127.0,127.0,127.0,-122.0,-88.0,-124.0
127.0,136.0,125.0,98.0,130.0,210.0,131.0,137.0,-1.0,112.0,-67.0,127.0,127.0,127.0,-122.0,-88.0,-125.0
126.0,135.0,125.0,98.0,130.0,210.0,131.0,137.0,-1.0,112.0,-67.0,127.0,127.0,127.0,-122.0,-88.0,-125.0
127.0,136.0,126.0,100.0,129.0,207.0,131.0,137.0,-1.0,112.0,-67.0,127.0,127.0,127.0,-122.0,-88.0,-125.0
127.0,136.0,126.0,99.0,129.0,208.0,131.0,137.0,-1.0,112.0,-67.0,127.0,127.0,127.0,-122.0,-88.0,-125.0
127.0,136.0,125.0,99.0,129.0,209.0,131.0,137.0,-1.0,112.0,-67.0,127.0,127.0,127.0,-122.0,-88.0,-125.0
126.0,136.0,125.0,99.0,130.0,209.0,131.0,137.0,-1.0,112.0,-67.0,127.0,127.0,127.0,-122.0,-88.0,-125.0
126.0,136.0,125.0,99.0,130.0,209.0,130.0,137.0,-1.0,112.0,-67.0,127.0,127.0,127.0,-122.0,-88.0,-125.0
126.0,136.0,125.0,99.0,130.0,209.0,130.0,137.0,-1.0,112.0,-67.0,127.0,127.0,127.0,-122.0,-88.0,-125.0
126.0,136.0,125.0,99.0,130.0,210.0,131.0,137.0,-1.0,112.0,-67.0,127.0,127.0,127.0,-122.0,-88.0,-125.0
126.0,136.0,125.0,99.0,130.0,210.0,131.0,137.0,-1.0,112.0,-67.0,127.0,127.0,127.0,-122.0,-88.0,-125.0
127.0,135.0,127.0,97.0,130.0,216.0,196.0,139.0,-1.0,113.0,-67.0,127.0,127.0,127.0,-122.0,-88.0,-125.0
126.0,135.0,126.0,97.0,130.0,216.0,176.0,139.0,-1.0,113.0,-67.0,127.0,127.0,127.0,-122.0,-88.0,-125.0
126.0,135.0,126.0,97.0,130.0,215.0,178.0,139.0,-1.0,113.0,-67.0,127.0,127.0,127.0,-122.0,-88.0,-125.0
126.0,135.0,126.0,97.0,130.0,216.0,180.0,139.0,-1.0,113.0,-67.0,127.0,127.0,127.0,-122.0,-88.0,-125.0
126.0,135.0,126.0,97.0,130.0,215.0,182.0,139.0,-1.0,113.0,-67.0,127.0,127.0,127.0,-122.0,-88.0,-125.0
126.0,135.0,126.0,97.0,130.0,215.0,185.0,139.0,-1.0,113.0,-67.0,127.0,127.0,127.0,-122.0,-88.0,-125.0
126.0,135.0,126.0,97.0,130.0,215.0,187.0,139.0,-1.0,113.0,-67.0,127.0,127.0,127.0,-122.0,-88.0,-125.0
126.0,135.0,126.0,97.0,130.0,215.0,189.0,139.0,-1.0,113.0,-67.0,127.0,127.0,127.0,-122.0,-88.0,-125.0
126.0,135.0,126.0,97.0,130.0,216.0,192.0,139.0,-1.0,113.0,-67.0,127.0,127.0,127.0,-122.0,-88.0,-125.0
127.0,135.0,126.0,97.0,130.0,216.0,194.0,139.0,-1.0,113.0,-67.0,127.0,127.0,127.0,-122.0,-88.0,-125.0
126.0,135.0,132.0,97.0,129.0,212.0,251.0,138.0,-1.0,114.0,-67.0,127.0,127.0,127.0,-122.0,-88.0,-125.0
126.0,135.0,132.0,97.0,129.0,212.0,251.0,138.0,-1.0,114.0,-67.0,127.0,127.0,127.0,-122.0,-88.0,-125.0
126.0,135.0,132.0,97.0,128.0,213.0,252.0,138.0,-1.0,114.0,-67.0,127.0,127.0,127.0,-122.0,-88.0,-125.0
126.0,135.0,132.0,97.0,128.0,213.0,252.0,138.0,-1.0,114.0,-67.0,127.0,127.0,127.0,-122.0,-88.0,-125.0
126.0,135.0,132.0,97.0,129.0,213.0,253.0,138.0,-1.0,114.0,-67.0,127.0,127.0,127.0,-122.0,-88.0,-125.0
126.0,135.0,132.0,97.0,129.0,213.0,253.0,138.0,-1.0,114.0,-67.0,127.0,127.0,127.0,-122.0,-88.0,-125.0
126.0,135.0,132.0,97.0,129.0,213.0,253.0,138.0,-1.0,114.0,-67.0,127.0,127.0,127.0,-122.0,-88.0,-125.0
126.0,135.0,132.0,97.0,129.0,212.0,254.0,138.0,-1.0,114.0,-67.0,127.0,127.0,127.0,-122.0,-88.0,-125.0
126.0,135.0,132.0,97.0,129.0,212.0,254.0,138.0,-1.0,114.0,-67.0,127.0,127.0,127.0,-122.0,-88.0,-125.0
126.0,135.0,133.0,97.0,129.0,211.0,254.0,138.0,-1.0,114.0,-67.0,127.0,127.0,127.0,-122.0,-88.0,-125.0
127.0,135.0,136.0,102.0,128.0,202.0,246.0,136.0,-1.0,114.0,-66.0,127.0,127.0,127.0,-122.0,-88.0,-125.0
127.0,136.0,136.0,102.0,128.0,202.0,245.0,136.0,-1.0,114.0,-66.0,127.0,127.0,127.0,-122.0,-88.0,-125.0
127.0,136.0,136.0,102.0,128.0,202.0,244.0,136.0,-1.0,114.0,-66.0,127.0,127.0,127.0,-122.0,-88.0,-125.0
127.0,136.0,136.0,102.0,128.0,202.0,243.0,136.0,-1.0,114.0,-66.0,127.0,127.0,127.0,-122.0,-88.0,-125.0
127.0,136.0,136.0,102.0,128.0,201.0,242.0,135.0,-1.0,114.0,-66.0,127.0,127.0,127.0,-122.0,-88.0,-125.0
127.0,136.0,136.0,102.0,128.0,201.0,241.0,135.0,-1.0,114.0,-66.0,127.0,127.0,127.0,-122.0,-88.0,-125.0
127.0,136.0,136.0,102.0,128.0,201.0,240.0,135.0,-1.0,114.0,-66.0,127.0,127.0,127.0,-122.0,-88.0,-125.0
127.0,136.0,136.0,102.0,128.0,201.0,239.0,135.0,-1.0,114.0,-66.0,127.0,127.0,127.0,-122.0,-88.0,-125.0
127.0,135.0,136.0,102.0,128.0,200.0,238.0,135.0,-1.0,114.0,-66.0,127.0,127.0,127.0,-122.0,-88.0,-125.0
127.0,135.0,136.0,102.0,128.0,202.0,247.0,136.0,-1.0,114.0,-66.0,127.0,127.0,127.0,-122.0,-88.0,-125.0
127.0,137.0,135.0,105.0,125.0,194.0,190.0,134.0,-1.0,115.0,-65.0,127.0,127.0,127.0,-122.0,-88.0,-125.0
127.0,137.0,135.0,105.0,125.0,194.0,189.0,134.0,-1.0,115.0,-65.0,127.0,127.0,127.0,-122.0,-88.0,-125.0
127.0,137.0,135.0,105.0,125.0,193.0,189.0,134.0,-1.0,115.0,-65.0,127.0,127.0,127.0,-122.0,-88.0,-125.0
127.0,137.0,135.0,105.0,125.0,193.0,188.0,134.0,-1.0,115.0,-65.0,127.0,127.0,127.0,-122.0,-88.0,-125.0
127.0,137.0,135.0,105.0,125.0,193.0,187.0,134.0,-1.0,115.0,-65.0,127.0,127.0,127.0,-122.0,-88.0,-125.0
127.0,137.0,135.0,105.0,125.0,193.0,186.0,134.0,-1.0,115.0,-65.0,127.0,127.0,127.0,-122.0,-88.0,-125.0
127.0,137.0,135.0,105.0,125.0,193.0,185.0,134.0,-1.0,115.0,-65.0,127.0,127.0,127.0,-122.0,-88.0,-125.0
127.0,137.0,135.0,105.0,125.0,193.0,185.0,134.0,-1.0,115.0,-65.0,127.0,127.0,127.0,-122.0,-88.0,-125.0
127.0,137.0,135.0,105.0,125.0,193.0,192.0,133.0,-1.0,115.0,-65.0,127.0,127.0,127.0,-122.0,-88.0,-125.0
127.0,137.0,135.0,105.0,125.0,193.0,191.0,133.0,-1.0,115.0,-65.0,127.0,127.0,127.0,-122.0,-88.0,-125.0
127.0,135.0,130.0,108.0,124.0,184.0,155.0,134.0,-1.0,115.0,-64.0,127.0,127.0,127.0,-122.0,-88.0,-125.0
126.0,135.0,130.0,108.0,124.0,184.0,155.0,134.0,-1.0,115.0,-64.0,127.0,127.0,127.0,-122.0,-88.0,-125.0
126.0,136.0,130.0,108.0,124.0,185.0,154.0,134.0,-1.0,115.0,-64.0,127.0,127.0,127.0,-122.0,-88.0,-125.0
126.0,136.0,130.0,108.0,124.0,185.0,154.0,134.0,-1.0,115.0,-64.0,127.0,127.0,127.0,-122.0,-88.0,-125.0
127.0,135.0,129.0,108.0,124.0,184.0,153.0,134.0,-1.0,115.0,-64.0,127.0,127.0,127.0,-122.0,-88.0,-125.0
126.0,135.0,129.0,108.0,124.0,184.0,153.0,134.0,-1.0,115.0,-64.0,127.0,127.0,127.0,-122.0,-88.0,-125.0
126.0,135.0,129.0,108.0,124.0,184.0,152.0,134.0,-1.0,115.0,-64.0,127.0,127.0,127.0,-122.0,-88.0,-125.0
127.0,136.0,130.0,108.0,124.0,185.0,157.0,134.0,-1.0,115.0,-64.0,127.0,127.0,127.0,-122.0,-88.0,-125.0
127.0,135.0,130.0,108.0,124.0,185.0,156.0,134.0,-1.0,115.0,-64.0,127.0,127.0,127.0,-122.0,-88.0,-125.0
127.0,135.0,130.0,108.0,124.0,184.0,156.0,134.0,-1.0,115.0,-64.0,127.0,127.0,127.0,-122.0,-88.0,-125.0
127.0,134.0,126.0,120.0,122.0,173.0,129.0,131.0,-1.0,115.0,-64.0,127.0,127.0,127.0,-122.0,-88.0,-125.0
127.0,134.0,126.0,120.0,122.0,173.0,129.0,131.0,-1.0,115.0,-64.0,127.0,127.0,127.0,-122.0,-88.0,-125.0
127.0,134.0,126.0,121.0,122.0,173.0,128.0,131.0,-1.0,115.0,-64.0,127.0,127.0,127.0,-122.0,-88.0,-125.0
127.0,134.0,126.0,121.0,122.0,172.0,128.0,131.0,-1.0,115.0,-64.0,127.0,127.0,127.0,-122.0,-88.0,-125.0
127.0,134.0,126.0,121.0,122.0,172.0,128.0,131.0,-1.0,115.0,-64.0,127.0,127.0,127.0,-122.0,-88.0,-125.0
127.0,134.0,126.0,122.0,122.0,171.0,127.0,131.0,-1.0,115.0,-64.0,127.0,127.0,127.0,-122.0,-88.0,-125.0
127.0,134.0,126.0,118.0,122.0,175.0,130.0,132.0,-1.0,115.0,-64.0,127.0,127.0,127.0,-122.0,-88.0,-125.0
127.0,134.0,126.0,119.0,122.0,175.0,130.0,132.0,-1.0,115.0,-64.0,127.0,127.0,127.0,-122.0,-88.0,-125.0
127.0,134.0,126.0,119.0,122.0,174.0,130.0,131.0,-1.0,115.0,-64.0,127.0,127.0,127.0,-122.0,-88.0,-125.0
127.0,134.0,126.0,119.0,122.0,174.0,129.0,131.0,-1.0,115.0,-64.0,127.0,127.0,127.0,-122.0,-88.0,-125.0
127.0,132.0,124.0,134.0,122.0,162.0,116.0,128.0,-1.0,115.0,-64.0,127.0,127.0,127.0,-122.0,-88.0,-125.0
127.0,132.0,124.0,134.0,122.0,161.0,116.0,128.0,-1.0,115.0,-64.0,127.0,127.0,127.0,-122.0,-88.0,-125.0
127.0,132.0,124.0,134.0,122.0,161.0,115.0,128.0,-1.0,115.0,-64.0,127.0,127.0,127.0,-122.0,-88.0,-125.0
127.0,132.0,124.0,134.0,122.0,161.0,115.0,128.0,-1.0,115.0,-64.0,127.0,127.0,127.0,-122.0,-88.0,-125.0
126.0,132.0,124.0,134.0,122.0,161.0,114.0,128.0,-1.0,115.0,-64.0,127.0,127.0,127.0,-122.0,-88.0,-125.0
127.0,132.0,124.0,133.0,122.0,163.0,118.0,128.0,-1.0,115.0,-64.0,127.0,127.0,127.0,-122.0,-88.0,-125.0
127.0,132.0,124.0,133.0,122.0,163.0,118.0,128.0,-1.0,115.0,-64.0,127.0,127.0,127.0,-122.0,-88.0,-125.0
127.0,132.0,124.0,134.0,122.0,162.0,118.0,128.0,-1.0,115.0,-64.0,127.0,127.0,127.0,-122.0,-88.0,-125.0
127.0,132.0,124.0,134.0,122.0,162.0,117.0,128.0,-1.0,115.0,-64.0,127.0,127.0,127.0,-122.0,-88.0,-125.0
127.0,132.0,124.0,134.0,122.0,162.0,117.0,128.0,-1.0,115.0,-64.0,127.0,127.0,127.0,-122.0,-88.0,-125.0
127.0,131.0,124.0,140.0,121.0,152.0,103.0,126.0,-1.0,115.0,-64.0,127.0,127.0,127.0,-122.0,-88.0,-125.0
127.0,131.0,124.0,141.0,121.0,152.0,103.0,126.0,-1.0,115.0,-64.0,127.0,127.0,127.0,-122.0,-88.0,-125.0
127.0,131.0,124.0,141.0,121.0,152.0,103.0,126.0,-1.0,115.0,-64.0,127.0,127.0,127.0,-122.0,-88.0,-125.0
127.0,131.0,124.0,141.0,121.0,151.0,103.0,126.0,-1.0,115.0,-64.0,127.0,127.0,127.0,-122.0,-88.0,-125.0
126.0,132.0,124.0,140.0,121.0,152.0,103.0,126.0,-1.0,115.0,-64.0,127.0,127.0,127.0,-122.0,-88.0,-125.0
126.0,132.0,124.0,140.0,121.0,152.0,103.0,126.0,-1.0,115.0,-64.0,127.0,127.0,127.0,-122.0,-88.0,-125.0
126.0,132.0,124.0,140.0,121.0,152.0,103.0,126.0,-1.0,115.0,-64.0,127.0,127.0,127.0,-122.0,-88.0,-125.0
127.0,131.0,124.0,140.0,121.0,152.0,103.0,126.0,-1.0,115.0,-64.0,127.0,127.0,127.0,-122.0,-88.0,-125.0
127.0,131.0,124.0,140.0,121.0,152.0,103.0,126.0,-1.0,115.0,-64.0,127.0,127.0,127.0,-122.0,-88.0,-125.0
127.0,131.0,124.0,140.0,121.0,152.0,103.0,126.0,-1.0,115.0,-64.0,127.0,127.0,127.0,-122.0,-88.0,-125.0
127.0,130.0,122.0,146.0,122.0,148.0,101.0,126.0,-1.0,115.0,-64.0,127.0,127.0,127.0,-122.0,-88.0,-125.0
127.0,129.0,122.0,145.0,122.0,147.0,101.0,126.0,-1.0,115.0,-64.0,127.0,127.0,127.0,-122.0,-88.0,-125.0
127.0,129.0,122.0,146.0,123.0,147.0,101.0,126.0,-1.0,115.0,-64.0,127.0,127.0,127.0,-122.0,-88.0,-125.0
127.0,130.0,123.0,145.0,121.0,148.0,100.0,126.0,-1.0,115.0,-64.0,127.0,127.0,127.0,-122.0,-88.0,-125.0
127.0,130.0,123.0,145.0,121.0,148.0,100.0,126.0,-1.0,115.0,-64.0,127.0,127.0,127.0,-122.0,-88.0,-125.0
127.0,130.0,122.0,145.0,121.0,148.0,100.0,126.0,-1.0,115.0,-64.0,127.0,127.0,127.0,-122.0,-88.0,-125.0
127.0,130.0,122.0,145.0,122.0,148.0,100.0,126.0,-1.0,115.0,-64.0,127.0,127.0,127.0,-122.0,-88.0,-125.0
127.0,130.0,122.0,145.0,122.0,148.0,100.0,126.0,-1.0,115.0,-64.0,127.0,127.0,127.0,-122.0,-88.0,-125.0
127.0,130.0,122.0,145.0,122.0,148.0,100.0,126.0,-1.0,115.0,-64.0,127.0,127.0,127.0,-122.0,-88.0,-125.0
127.0,130.0,122.0,146.0,122.0,148.0,101.0,126.0,-1.0,115.0,-64.0,127.0,127.0,127.0,-122.0,-88.0,-125.0
126.0,129.0,117.0,146.0,122.0,141.0,111.0,127.0,-1.0,115.0,-63.0,-128.0,127.0,127.0,-122.0,-88.0,-125.0
126.0,129.0,117.0,146.0,122.0,141.0,111.0,127.0,-1.0,115.0,-63.0,-128.0,127.0,127.0,-122.0,-88.0,-125.0
126.0,129.0,118.0,146.0,122.0,142.0,109.0,127.0,-1.0,115.0,-63.0,-128.0,127.0,127.0,-122.0,-88.0,-125.0
127.0,129.0,118.0,146.0,122.0,142.0,109.0,127.0,-1.0,115.0,-63.0,-128.0,127.0,127.0,-122.0,-88.0,-125.0
126.0,129.0,118.0,146.0,122.0,142.0,109.0,127.0,-1.0,115.0,-63.0,-128.0,127.0,127.0,-122.0,-88.0,-125.0
126.0,129.0,118.0,146.0,122.0,142.0,110.0,127.0,-1.0,115.0,-63.0,-128.0,127.0,127.0,-122.0,-88.0,-125.0
126.0,129.0,118.0,146.0,122.0,142.0,110.0,127.0,-1.0,115.0,-63.0,-128.0,127.0,127.0,-122.0,-88.0,-125.0
126.0,129.0,118.0,146.0,122.0,141.0,110.0,127.0,-1.0,115.0,-63.0,-128.0,127.0,127.0,-122.0,-88.0,-125.0
126.0,129.0,118.0,146.0,122.0,141.0,111.0,126.0,-1.0,115.0,-63.0,-128.0,127.0,127.0,-122.0,-88.0,-125.0
126.0,129.0,117.0,146.0,122.0,141.0,111.0,127.0,-1.0,115.0,-63.0,-128.0,127.0,127.0,-122.0,-88.0,-125.0
127.0,129.0,117.0,148.0,123.0,136.0,112.0,128.0,-1.0,116.0,-63.0,127.0,127.0,127.0,-122.0,-88.0,-125.0
127.0,129.0,117.0,148.0,123.0,136.0,112.0,127.0,-1.0,116.0,-63.0,127.0,127.0,127.0,-122.0,-88.0,-125.0
127.0,129.0,117.0,148.0,123.0,136.0,112.0,128.0,-1.0,116.0,-63.0,127.0,127.0,127.0,-122.0,-88.0,-125.0
127.0,129.0,117.0,148.0,123.0,136.0,112.0,128.0,-1.0,116.0,-63.0,127.0,127.0,127.0,-122.0,-88.0,-125.0
127.0,129.0,117.0,148.0,123.0,136.0,112.0,128.0,-1.0,116.0,-63.0,127.0,127.0,127.0,-122.0,-88.0,-125.0
127.0,129.0,117.0,148.0,123.0,136.0,112.0,128.0,-1.0,116.0,-63.0,127.0,127.0,127.0,-122.0,-88.0,-125.0
127.0,129.0,117.0,148.0,123.0,136.0,112.0,128.0,-1.0,116.0,-63.0,127.0,127.0,127.0,-122.0,-88.0,-125.0
127.0,129.0,117.0,148.0,123.0,136.0,112.0,128.0,-1.0,116.0,-63.0,127.0,127.0,127.0,-122.0,-88.0,-125.0
127.0,129.0,117.0,148.0,123.0,136.0,113.0,128.0,-1.0,116.0,-63.0,127.0,127.0,127.0,-122.0,-88.0,-125.0
127.0,129.0,117.0,148.0,123.0,136.0,112.0,128.0,-1.0,116.0,-63.0,127.0,127.0,127.0,-122.0,-88.0,-125.0
127.0,129.0,120.0,149.0,124.0,132.0,119.0,127.0,-1.0,116.0,-63.0,127.0,127.0,127.0,-122.0,-88.0,-125.0
127.0,129.0,120.0,149.0,124.0,132.0,120.0,127.0,-1.0,116.0,-63.0,127.0,127.0,127.0,-122.0,-88.0,-125.0
127.0,129.0,120.0,149.0,124.0,132.0,120.0,127.0,-1.0,116.0,-63.0,127.0,127.0,127.0,-122.0,-88.0,-125.0
127.0,129.0,120.0,149.0,124.0,131.0,120.0,127.0,-1.0,116.0,-63.0,127.0,127.0,127.0,-122.0,-88.0,-125.0
127.0,129.0,120.0,149.0,124.0,131.0,120.0,127.0,-1.0,116.0,-63.0,127.0,127.0,127.0,-122.0,-88.0,-125.0
127.0,129.0,120.0,149.0,124.0,131.0,120.0,127.0,-1.0,116.0,-63.0,127.0,127.0,127.0,-122.0,-88.0,-125.0
127.0,129.0,120.0,149.0,124.0,132.0,121.0,127.0,-1.0,116.0,-63.0,127.0,127.0,127.0,-122.0,-88.0,-125.0
127.0,129.0,120.0,149.0,124.0,132.0,121.0,127.0,-1.0,116.0,-63.0,127.0,127.0,127.0,-122.0,-88.0,-125.0
127.0,129.0,120.0,149.0,124.0,132.0,121.0,127.0,-1.0,116.0,-63.0,127.0,127.0,127.0,-122.0,-88.0,-125.0
127.0,129.0,120.0,149.0,125.0,132.0,121.0,127.0,-1.0,116.0,-63.0,127.0,127.0,127.0,-122.0,-88.0,-125.0
127.0,129.0,123.0,150.0,126.0,130.0,127.0,127.0,-1.0,116.0,-63.0,127.0,127.0,127.0,-122.0,-88.0,-125.0
127.0,129.0,123.0,150.0,126.0,130.0,127.0,127.0,-1.0,116.0,-63.0,127.0,127.0,127.0,-122.0,-88.0,-125.0
127.0,129.0,123.0,150.0,126.0,129.0,127.0,126.0,-1.0,116.0,-63.0,127.0,127.0,127.0,-122.0,-88.0,-125.0
127.0,129.0,123.0,150.0,126.0,130.0,127.0,126.0,-1.0,116.0,-63.0,127.0,127.0,127.0,-122.0,-88.0,-125.0
127.0,129.0,123.0,150.0,126.0,130.0,127.0,126.0,-1.0,116.0,-63.0,127.0,127.0,127.0,-122.0,-88.0,-125.0
127.0,129.0,123.0,150.0,126.0,129.0,127.0,126.0,-1.0,116.0,-63.0,127.0,127.0,127.0,-122.0,-88.0,-125.0
127.0,129.0,123.0,150.0,126.0,130.0,127.0,126.0,-1.0,116.0,-63.0,127.0,127.0,127.0,-122.0,-88.0,-125.0
127.0,129.0,123.0,150.0,126.0,130.0,127.0,126.0,-1.0,116.0,-63.0,127.0,127.0,127.0,-122.0,-88.0,-125.0
127.0,129.0,123.0,150.0,126.0,130.0,127.0,126.0,-1.0,116.0,-63.0,127.0,127.0,127.0,-122.0,-88.0,-125.0
127.0,129.0,123.0,150.0,126.0,130.0,127.0,127.0,-1.0,116.0,-63.0,127.0,127.0,127.0,-122.0,-88.0,-125.0
127.0,128.0,124.0,150.0,124.0,129.0,135.0,126.0,-1.0,116.0,-63.0,127.0,127.0,127.0,-122.0,-88.0,-125.0
127.0,128.0,124.0,150.0,124.0,130.0,135.0,126.0,-1.0,116.0,-63.0,127.0,127.0,127.0,-122.0,-88.0,-125.0
127.0,128.0,124.0,150.0,124.0,130.0,135.0,126.0,-1.0,116.0,-63.0,127.0,127.0,127.0,-122.0,-88.0,-125.0
126.0,128.0,124.0,150.0,124.0,130.0,135.0,126.0,-1.0,116.0,-63.0,127.0,127.0,127.0,-122.0,-88.0,-125.0
126.0,128.0,124.0,150.0,124.0,130.0,135.0,126.0,-1.0,116.0,-63.0,127.0,127.0,127.0,-122.0,-88.0,-125.0
126.0,128.0,124.0,150.0,124.0,130.0,135.0,126.0,-1.0,116.0,-63.0,127.0,127.0,127.0,-122.0,-88.0,-125.0
126.0,128.0,124.0,150.0,124.0,130.0,135.0,126.0,-1.0,116.0,-63.0,127.0,127.0,127.0,-122.0,-88.0,-125.0
126.0,128.0,124.0,150.0,125.0,130.0,135.0,126.0,-1.0,116.0,-63.0,127.0,127.0,127.0,-122.0,-88.0,-125.0
127.0,128.0,124.0,150.0,124.0,130.0,135.0,126.0,-1.0,116.0,-63.0,127.0,127.0,127.0,-122.0,-88.0,-125.0
127.0,128.0,124.0,150.0,124.0,129.0,135.0,126.0,-1.0,116.0,-63.0,127.0,127.0,127.0,-122.0,-88.0,-125.0
126.0,127.0,126.0,151.0,124.0,129.0,133.0,126.0,-1.0,117.0,-63.0,127.0,127.0,127.0,-122.0,-88.0,-125.0
127.0,128.0,126.0,151.0,124.0,130.0,133.0,127.0,-1.0,117.0,-63.0,127.0,127.0,127.0,-122.0,-88.0,-125.0
127.0,128.0,126.0,151.0,124.0,130.0,133.0,127.0,-1.0,117.0,-63.0,127.0,127.0,127.0,-122.0,-88.0,-125.0
127.0,128.0,126.0,151.0,124.0,130.0,133.0,127.0,-1.0,117.0,-63.0,127.0,127.0,127.0,-122.0,-88.0,-125.0
127.0,128.0,126.0,151.0,124.0,130.0,133.0,127.0,-1.0,117.0,-63.0,127.0,127.0,127.0,-122.0,-88.0,-125.0
127.0,128.0,126.0,151.0,123.0,130.0,133.0,127.0,-1.0,117.0,-63.0,127.0,127.0,127.0,-122.0,-88.0,-125.0
127.0,128.0,126.0,151.0,124.0,130.0,133.0,127.0,-1.0,117.0,-63.0,127.0,127.0,127.0,-122.0,-88.0,-125.0
127.0,127.0,126.0,151.0,124.0,129.0,133.0,126.0,-1.0,117.0,-63.0,127.0,127.0,127.0,-122.0,-88.0,-125.0
126.0,127.0,126.0,151.0,124.0,129.0,133.0,126.0,-1.0,117.0,-63.0,127.0,127.0,127.0,-122.0,-88.0,-125.0
126.0,127.0,126.0,151.0,124.0,129.0,133.0,126.0,-1.0,117.0,-63.0,127.0,127.0,127.0,-122.0,-88.0,-125.0
127.0,128.0,125.0,150.0,125.0,130.0,128.0,127.0,-1.0,117.0,-63.0,127.0,127.0,127.0,-122.0,-88.0,-125.0
127.0,128.0,125.0,150.0,125.0,130.0,128.0,127.0,-1.0,117.0,-63.0,127.0,127.0,127.0,-122.0,-88.0,-125.0
127.0,128.0,125.0,150.0,125.0,130.0,128.0,127.0,-1.0,117.0,-63.0,127.0,127.0,127.0,-122.0,-88.0,-125.0
127.0,128.0,125.0,150.0,125.0,129.0,127.0,127.0,-1.0,117.0,-63.0,127.0,127.0,127.0,-122.0,-88.0,-125.0
127.0,128.0,125.0,150.0,125.0,129.0,127.0,127.0,-1.0,117.0,-63.0,127.0,127.0,127.0,-122.0,-88.0,-125.0
127.0,128.0,125.0,150.0,125.0,129.0,127.0,127.0,-1.0,117.0,-63.0,127.0,127.0,127.0,-122.0,-88.0,-125.0
127.0,128.0,125.0,150.0,125.0,129.0,128.0,127.0,-1.0,117.0,-63.0,127.0,127.0,127.0,-122.0,-88.0,-125.0
127.0,128.0,125.0,150.0,125.0,129.0,128.0,127.0,-1.0,117.0,-63.0,127.0,127.0,127.0,-122.0,-88.0,-125.0
127.0,128.0,125.0,150.0,125.0,129.0,128.0,127.0,-1.0,117.0,-63.0,127.0,127.0,127.0,-122.0,-88.0,-125.0
127.0,128.0,125.0,150.0,125.0,129.0,128.0,127.0,-1.0,117.0,-63.0,127.0,127.0,127.0,-122.0,-88.0,-125.0
126.0,128.0,125.0,148.0,125.0,129.0,127.0,128.0,-1.0,118.0,-63.0,127.0,127.0,127.0,-122.0,-88.0,-125.0
127.0,128.0,125.0,148.0,125.0,129.0,127.0,128.0,-1.0,118.0,-63.0,127.0,127.0,127.0,-122.0,-88.0,-125.0
127.0,128.0,125.0,148.0,125.0,129.0,127.0,128.0,-1.0,118.0,-63.0,127.0,127.0,127.0,-122.0,-88.0,-125.0
127.0,128.0,125.0,148.0,125.0,129.0,127.0,128.0,-1.0,118.0,-63.0,127.0,127.0,127.0,-122.0,-88.0,-125.0
127.0,128.0,125.0,148.0,125.0,129.0,127.0,128.0,-1.0,118.0,-63.0,127.0,127.0,127.0,-122.0,-88.0,-125.0
126.0,128.0,125.0,148.0,126.0,128.0,126.0,127.0,-1.0,118.0,-63.0,127.0,127.0,127.0,-122.0,-88.0,-125.0
126.0,128.0,125.0,148.0,126.0,128.0,126.0,127.0,-1.0,118.0,-63.0,127.0,127.0,127.0,-122.0,-88.0,-125.0
126.0,128.0,125.0,148.0,126.0,128.0,126.0,127.0,-1.0,118.0,-63.0,127.0,127.0,127.0,-122.0,-88.0,-125.0
126.0,128.0,125.0,148.0,126.0,128.0,126.0,127.0,-1.0,118.0,-63.0,127.0,127.0,127.0,-122.0,-88.0,-125.0
126.0,128.0,125.0,148.0,125.0,129.0,127.0,127.0,-1.0,118.0,-63.0,127.0,127.0,127.0,-122.0,-88.0,-125.0
127.0,128.0,126.0,147.0,126.0,130.0,125.0,128.0,-1.0,118.0,-63.0,127.0,127.0,127.0,-122.0,-88.0,-125.0
127.0,127.0,126.0,147.0,126.0,129.0,125.0,128.0,-1.0,118.0,-63.0,127.0,127.0,127.0,-122.0,-88.0,-125.0
127.0,127.0,126.0,147.0,126.0,129.0,126.0,128.0,-1.0,118.0,-63.0,127.0,127.0,127.0,-122.0,-88.0,-125.0
127.0,127.0,126.0,147.0,126.0,130.0,126.0,128.0,-1.0,118.0,-63.0,127.0,127.0,127.0,-122.0,-88.0,-125.0
127.0,128.0,126.0,147.0,125.0,130.0,125.0,128.0,-1.0,118.0,-63.0,127.0,127.0,127.0,-122.0,-88.0,-125.0
127.0,128.0,126.0,147.0,125.0,130.0,125.0,128.0,-1.0,118.0,-63.0,127.0,127.0,127.0,-122.0,-88.0,-125.0
127.0,128.0,126.0,147.0,125.0,130.0,125.0,128.0,-1.0,118.0,-63.0,127.0,127.0,127.0,-122.0,-88.0,-125.0
127.0,128.0,126.0,147.0,125.0,130.0,125.0,128.0,-1.0,118.0,-63.0,127.0,127.0,127.0,-122.0,-88.0,-125.0
127.0,128.0,126.0,147.0,125.0,130.0,125.0,128.0,-1.0,118.0,-63.0,127.0,127.0,127.0,-122.0,-88.0,-125.0
127.0,128.0,126.0,147.0,126.0,130.0,125.0,128.0,-1.0,118.0,-63.0,127.0,127.0,127.0,-122.0,-88.0,-125.0
127.0,127.0,127.0,146.0,126.0,129.0,128.0,128.0,-1.0,118.0,-62.0,127.0,127.0,127.0,-123.0,-88.0,-125.0
127.0,127.0,127.0,146.0,126.0,129.0,128.0,128.0,-1.0,118.0,-62.0,127.0,127.0,127.0,-123.0,-88.0,-125.0
127.0,127.0,127.0,146.0,126.0,129.0,128.0,128.0,-1.0,118.0,-62.0,127.0,127.0,127.0,-123.0,-88.0,-125.0
127.0,128.0,127.0,146.0,125.0,129.0,127.0,128.0,-1.0,118.0,-62.0,127.0,127.0,127.0,-123.0,-88.0,-125.0
127.0,128.0,127.0,146.0,125.0,129.0,127.0,128.0,-1.0,118.0,-62.0,127.0,127.0,127.0,-123.0,-88.0,-125.0
127.0,128.0,127.0,146.0,125.0,129.0,127.0,128.0,-1.0,118.0,-62.0,127.0,127.0,127.0,-123.0,-88.0,-125.0
127.0,128.0,127.0,146.0,126.0,129.0,127.0,128.0,-1.0,118.0,-62.0,127.0,127.0,127.0,-123.0,-88.0,-125.0
127.0,128.0,127.0,146.0,126.0,129.0,127.0,128.0,-1.0,118.0,-62.0,127.0,127.0,127.0,-123.0,-88.0,-125.0
127.0,128.0,127.0,146.0,126.0,129.0,127.0,128.0,-1.0,118.0,-62.0,127.0,127.0,127.0,-123.0,-88.0,-125.0
127.0,128.0,127.0,146.0,126.0,129.0,128.0,128.0,-1.0,118.0,-62.0,127.0,127.0,127.0,-123.0,-88.0,-125.0
127.0,127.0,126.0,146.0,125.0,129.0,134.0,128.0,-1.0,118.0,-62.0,127.0,127.0,127.0,-123.0,-88.0,-125.0
127.0,127.0,126.0,146.0,125.0,129.0,133.0,128.0,-1.0,118.0,-62.0,127.0,127.0,127.0,-123.0,-88.0,-125.0
127.0,128.0,127.0,146.0,125.0,130.0,134.0,128.0,-1.0,118.0,-62.0,127.0,127.0,127.0,-123.0,-88.0,-125.0
127.0,128.0,127.0,146.0,125.0,130.0,134.0,128.0,-1.0,118.0,-62.0,127.0,127.0,127.0,-123.0,-88.0,-125.0
127.0,127.0,127.0,146.0,125.0,129.0,134.0,128.0,-1.0,118.0,-62.0,127.0,127.0,127.0,-123.0,-88.0,-125.0
127.0,127.0,127.0,146.0,125.0,129.0,134.0,128.0,-1.0,118.0,-62.0,127.0,127.0,127.0,-123.0,-88.0,-125.0
127.0,127.0,127.0,146.0,125.0,129.0,134.0,128.0,-1.0,118.0,-62.0,127.0,127.0,127.0,-123.0,-88.0,-125.0
127.0,127.0,127.0,146.0,125.0,129.0,134.0,128.0,-1.0,118.0,-62.0,127.0,127.0,127.0,-123.0,-88.0,-125.0
127.0,127.0,126.0,146.0,125.0,129.0,134.0,128.0,-1.0,118.0,-62.0,127.0,127.0,127.0,-123.0,-88.0,-125.0
127.0,127.0,126.0,146.0,125.0,129.0,134.0,128.0,-1.0,118.0,-62.0,127.0,127.0,127.0,-123.0,-88.0,-125.0
126.0,128.0,127.0,145.0,126.0,130.0,129.0,128.0,-1.0,118.0,-62.0,127.0,127.0,127.0,-123.0,-88.0,-125.0
127.0,127.0,126.0,145.0,126.0,128.0,129.0,128.0,-1.0,118.0,-62.0,127.0,127.0,127.0,-123.0,-88.0,-125.0
126.0,127.0,126.0,145.0,126.0,128.0,129.0,128.0,-1.0,118.0,-62.0,127.0,127.0,127.0,-123.0,-88.0,-125.0
127.0,127.0,126.0,145.0,126.0,129.0,129.0,128.0,-1.0,118.0,-62.0,127.0,127.0,127.0,-123.0,-88.0,-125.0
127.0,127.0,126.0,145.0,126.0,129.0,129.0,128.0,-1.0,118.0,-62.0,127.0,127.0,127.0,-123.0,-88.0,-125.0
127.0,127.0,126.0,145.0,126.0,129.0,129.0,128.0,-1.0,118.0,-62.0,127.0,127.0,127.0,-123.0,-88.0,-125.0
127.0,127.0,126.0,145.0,126.0,129.0,129.0,128.0,-1.0,118.0,-62.0,127.0,127.0,127.0,-123.0,-88.0,-125.0
127.0,127.0,126.0,145.0,126.0,129.0,129.0,128.0,-1.0,118.0,-62.0,127.0,127.0,127.0,-123.0,-88.0,-125.0
126.0,127.0,126.0,145.0,126.0,129.0,129.0,128.0,-1.0,118.0,-62.0,127.0,127.0,127.0,-123.0,-88.0,-125.0
126.0,127.0,127.0,145.0,126.0,129.0,129.0,128.0,-1.0,118.0,-62.0,127.0,127.0,127.0,-123.0,-88.0,-125.0
126.0,127.0,128.0,145.0,126.0,129.0,125.0,128.0,-1.0,118.0,-62.0,127.0,127.0,127.0,-123.0,-88.0,-125.0
126.0,127.0,128.0,145.0,126.0,129.0,125.0,128.0,-1.0,118.0,-62.0,127.0,127.0,127.0,-123.0,-88.0,-125.0
126.0,127.0,128.0,145.0,126.0,130.0,125.0,128.0,-1.0,118.0,-62.0,127.0,127.0,127.0,-123.0,-88.0,-125.0
126.0,127.0,128.0,145.0,126.0,130.0,125.0,128.0,-1.0,118.0,-62.0,127.0,127.0,127.0,-123.0,-88.0,-125.0
126.0,127.0,128.0,145.0,126.0,130.0,124.0,128.0,-1.0,118.0,-62.0,127.0,127.0,127.0,-123.0,-88.0,-125.0
127.0,127.0,128.0,145.0,126.0,130.0,124.0,128.0,-1.0,118.0,-62.0,127.0,127.0,127.0,-123.0,-88.0,-125.0
127.0,127.0,128.0,145.0,126.0,130.0,124.0,128.0,-1.0,118.0,-62.0,127.0,127.0,127.0,-123.0,-88.0,-125.0
127.0,127.0,128.0,145.0,126.0,130.0,124.0,128.0,-1.0,118.0,-62.0,127.0,127.0,127.0,-123.0,-88.0,-125.0
127.0,127.0,128.0,145.0,126.0,130.0,124.0,128.0,-1.0,118.0,-62.0,127.0,127.0,127.0,-123.0,-88.0,-125.0
127.0,127.0,128.0,145.0,126.0,131.0,124.0,128.0,-1.0,118.0,-62.0,127.0,127.0,127.0,-123.0,-88.0,-125.0
127.0,127.0,127.0,145.0,126.0,130.0,126.0,128.0,-1.0,119.0,-62.0,127.0,127.0,127.0,-124.0,-89.0,-125.0
127.0,127.0,127.0,145.0,125.0,131.0,126.0,128.0,-1.0,119.0,-62.0,127.0,127.0,127.0,-124.0,-89.0,-125.0
127.0,127.0,127.0,145.0,125.0,131.0,127.0,128.0,-1.0,119.0,-62.0,127.0,127.0,127.0,-124.0,-89.0,-125.0
127.0,127.0,127.0,145.0,125.0,131.0,127.0,128.0,-1.0,119.0,-62.0,127.0,127.0,127.0,-124.0,-89.0,-125.0
127.0,127.0,127.0,145.0,125.0,131.0,127.0,128.0,-1.0,119.0,-62.0,127.0,127.0,127.0,-124.0,-89.0,-125.0
127.0,127.0,127.0,145.0,125.0,131.0,127.0,128.0,-1.0,119.0,-62.0,127.0,127.0,127.0,-124.0,-89.0,-125.0
127.0,127.0,127.0,145.0,125.0,131.0,127.0,128.0,-1.0,119.0,-62.0,127.0,127.0,127.0,-124.0,-89.0,-125.0
127.0,127.0,127.0,145.0,125.0,131.0,127.0,128.0,-1.0,119.0,-62.0,127.0,127.0,127.0,-124.0,-89.0,-125.0
127.0,127.0,127.0,145.0,125.0,131.0,127.0,128.0,-1.0,119.0,-62.0,127.0,127.0,127.0,-124.0,-89.0,-125.0
127.0,127.0,127.0,145.0,126.0,130.0,126.0,128.0,-1.0,119.0,-62.0,127.0,127.0,127.0,-124.0,-89.0,-125.0
127.0,127.0,127.0,145.0,126.0,130.0,129.0,128.0,-1.0,119.0,-62.0,127.0,127.0,127.0,-124.0,-89.0,-125.0
127.0,127.0,127.0,145.0,126.0,131.0,129.0,128.0,-1.0,119.0,-62.0,127.0,127.0,127.0,-124.0,-89.0,-125.0
127.0,127.0,127.0,145.0,126.0,130.0,129.0,128.0,-1.0,119.0,-62.0,127.0,127.0,127.0,-124.0,-89.0,-125.0
127.0,127.0,127.0,145.0,126.0,130.0,128.0,128.0,-1.0,119.0,-62.0,127.0,127.0,127.0,-124.0,-89.0,-125.0
127.0,127.0,127.0,145.0,126.0,130.0,128.0,128.0,-1.0,119.0,-62.0,127.0,127.0,127.0,-124.0,-89.0,-125.0
127.0,127.0,127.0,145.0,126.0,130.0,128.0,128.0,-1.0,119.0,-62.0,127.0,127.0,127.0,-124.0,-89.0,-125.0
126.0,127.0,127.0,145.0,125.0,130.0,128.0,128.0,-1.0,119.0,-62.0,127.0,127.0,127.0,-124.0,-89.0,-125.0
127.0,127.0,127.0,145.0,125.0,131.0,128.0,128.0,-1.0,119.0,-62.0,127.0,127.0,127.0,-124.0,-89.0,-125.0
127.0,127.0,127.0,145.0,126.0,130.0,128.0,127.0,-1.0,119.0,-62.0,127.0,127.0,127.0,-124.0,-89.0,-125.0
127.0,127.0,127.0,145.0,126.0,130.0,129.0,127.0,-1.0,119.0,-62.0,127.0,127.0,127.0,-124.0,-89.0,-125.0
127.0,127.0,127.0,144.0,125.0,130.0,128.0,128.0,-1.0,119.0,-62.0,127.0,127.0,127.0,-124.0,-89.0,-125.0
127.0,127.0,127.0,144.0,125.0,130.0,128.0,128.0,-1.0,119.0,-62.0,127.0,127.0,127.0,-124.0,-89.0,-125.0
127.0,127.0,127.0,144.0,125.0,129.0,128.0,128.0,-1.0,119.0,-62.0,127.0,127.0,127.0,-124.0,-89.0,-125.0
127.0,127.0,127.0,144.0,125.0,129.0,128.0,128.0,-1.0,119.0,-62.0,127.0,127.0,127.0,-124.0,-89.0,-125.0
127.0,127.0,127.0,144.0,125.0,129.0,128.0,128.0,-1.0,119.0,-62.0,127.0,127.0,127.0,-124.0,-89.0,-125.0
127.0,127.0,127.0,144.0,125.0,129.0,128.0,128.0,-1.0,119.0,-62.0,127.0,127.0,127.0,-124.0,-89.0,-125.0
127.0,127.0,127.0,144.0,125.0,130.0,128.0,128.0,-1.0,119.0,-62.0,127.0,127.0,127.0,-124.0,-89.0,-125.0
127.0,127.0,127.0,144.0,126.0,129.0,128.0,128.0,-1.0,119.0,-62.0,127.0,127.0,127.0,-124.0,-89.0,-125.0
127.0,127.0,127.0,144.0,126.0,129.0,128.0,128.0,-1.0,119.0,-62.0,127.0,127.0,127.0,-124.0,-89.0,-125.0
127.0,127.0,127.0,144.0,125.0,129.0,128.0,128.0,-1.0,119.0,-62.0,127.0,127.0,127.0,-124.0,-89.0,-125.0
127.0,127.0,128.0,143.0,126.0,129.0,128.0,128.0,-1.0,118.0,-62.0,127.0,127.0,127.0,-124.0,-89.0,-125.0
127.0,127.0,128.0,143.0,126.0,129.0,128.0,128.0,-1.0,118.0,-62.0,127.0,127.0,127.0,-124.0,-89.0,-125.0
127.0,127.0,127.0,143.0,126.0,129.0,128.0,128.0,-1.0,118.0,-62.0,127.0,127.0,127.0,-124.0,-89.0,-125.0
127.0,127.0,127.0,143.0,126.0,129.0,128.0,128.0,-1.0,118.0,-62.0,127.0,127.0,127.0,-124.0,-89.0,-125.0
127.0,127.0,127.0,143.0,126.0,129.0,128.0,128.0,-1.0,118.0,-62.0,127.0,127.0,127.0,-124.0,-89.0,-125.0
127.0,127.0,127.0,143.0,126.0,129.0,128.0,128.0,-1.0,118.0,-62.0,127.0,127.0,127.0,-124.0,-89.0,-125.0
127.0,126.0,127.0,143.0,126.0,128.0,128.0,128.0,-1.0,118.0,-62.0,127.0,127.0,127.0,-124.0,-89.0,-125.0
127.0,127.0,127.0,143.0,126.0,128.0,128.0,128.0,-1.0,118.0,-62.0,127.0,127.0,127.0,-124.0,-89.0,-125.0
127.0,127.0,127.0,143.0,126.0,128.0,128.0,128.0,-1.0,118.0,-62.0,127.0,127.0,127.0,-124.0,-89.0,-125.0
127.0,127.0,128.0,143.0,126.0,129.0,128.0,128.0,-1.0,118.0,-62.0,127.0,127.0,127.0,-124.0,-89.0,-125.0
127.0,127.0,127.0,142.0,126.0,129.0,128.0,128.0,-1.0,118.0,-62.0,127.0,127.0,127.0,-124.0,-89.0,-125.0
127.0,127.0,127.0,142.0,126.0,128.0,128.0,128.0,-1.0,118.0,-62.0,127.0,127.0,127.0,-124.0,-89.0,-125.0
127.0,127.0,127.0,142.0,126.0,128.0,128.0,128.0,-1.0,118.0,-62.0,127.0,127.0,127.0,-124.0,-89.0,-125.0
127.0,127.0,127.0,142.0,126.0,128.0,128.0,128.0,-1.0,118.0,-62.0,127.0,127.0,127.0,-124.0,-89.0,-125.0
127.0,127.0,127.0,142.0,125.0,129.0,128.0,128.0,-1.0,118.0,-62.0,127.0,127.0,127.0,-124.0,-89.0,-125.0
126.0,126.0,127.0,142.0,127.0,128.0,128.0,128.0,-1.0,118.0,-62.0,127.0,127.0,127.0,-124.0,-89.0,-125.0
126.0,126.0,127.0,142.0,126.0,128.0,128.0,128.0,-1.0,118.0,-62.0,127.0,127.0,127.0,-124.0,-89.0,-125.0
126.0,126.0,127.0,142.0,126.0,128.0,128.0,128.0,-1.0,118.0,-62.0,127.0,127.0,127.0,-124.0,-89.0,-125.0
126.0,127.0,127.0,142.0,126.0,128.0,128.0,128.0,-1.0,118.0,-62.0,127.0,127.0,127.0,-124.0,-89.0,-125.0
127.0,127.0,127.0,142.0,126.0,129.0,128.0,128.0,-1.0,118.0,-62.0,127.0,127.0,127.0,-124.0,-89.0,-125.0
127.0,127.0,127.0,141.0,125.0,128.0,127.0,128.0,-1.0,118.0,-62.0,127.0,127.0,127.0,-124.0,-89.0,-125.0
127.0,127.0,127.0,141.0,125.0,128.0,127.0,128.0,-1.0,118.0,-62.0,127.0,127.0,127.0,-124.0,-89.0,-125.0
126.0,127.0,127.0,141.0,125.0,128.0,127.0,128.0,-1.0,118.0,-62.0,127.0,127.0,127.0,-124.0,-89.0,-125.0
126.0,127.0,127.0,141.0,125.0,128.0,127.0,128.0,-1.0,118.0,-62.0,127.0,127.0,127.0,-124.0,-89.0,-125.0
127.0,127.0,127.0,141.0,124.0,129.0,127.0,128.0,-1.0,118.0,-62.0,127.0,127.0,127.0,-124.0,-89.0,-125.0
127.0,127.0,127.0,141.0,124.0,129.0,127.0,128.0,-1.0,118.0,-62.0,127.0,127.0,127.0,-124.0,-89.0,-125.0
127.0,127.0,127.0,141.0,124.0,129.0,127.0,128.0,-1.0,118.0,-62.0,127.0,127.0,127.0,-124.0,-89.0,-125.0
127.0,127.0,127.0,141.0,125.0,129.0,127.0,128.0,-1.0,118.0,-62.0,127.0,127.0,127.0,-124.0,-89.0,-125.0
127.0,127.0,127.0,141.0,125.0,129.0,127.0,128.0,-1.0,118.0,-62.0,127.0,127.0,127.0,-124.0,-89.0,-125.0
127.0,127.0,127.0,141.0,125.0,129.0,127.0,128.0,-1.0,118.0,-62.0,127.0,127.0,127.0,-124.0,-89.0,-125.0
127.0,127.0,127.0,141.0,126.0,129.0,127.0,128.0,-1.0,118.0,-62.0,127.0,127.0,127.0,-125.0,-89.0,-125.0
127.0,127.0,127.0,141.0,126.0,129.0,127.0,128.0,-1.0,118.0,-62.0,127.0,127.0,127.0,-125.0,-89.0,-125.0
127.0,127.0,127.0,141.0,126.0,129.0,127.0,128.0,-1.0,118.0,-62.0,127.0,127.0,127.0,-125.0,-89.0,-125.0
126.0,127.0,127.0,141.0,126.0,128.0,127.0,128.0,-1.0,118.0,-62.0,127.0,127.0,127.0,-125.0,-89.0,-125.0
126.0,127.0,127.0,141.0,126.0,128.0,127.0,128.0,-1.0,118.0,-62.0,127.0,127.0,127.0,-125.0,-89.0,-125.0
127.0,127.0,127.0,141.0,126.0,128.0,127.0,128.0,-1.0,118.0,-62.0,127.0,127.0,127.0,-125.0,-89.0,-125.0
127.0,127.0,127.0,141.0,126.0,128.0,127.0,128.0,-1.0,118.0,-62.0,127.0,127.0,127.0,-125.0,-89.0,-125.0
127.0,127.0,127.0,141.0,126.0,128.0,127.0,128.0,-1.0,118.0,-62.0,127.0,127.0,127.0,-125.0,-89.0,-125.0
127.0,127.0,127.0,141.0,126.0,128.0,127.0,128.0,-1.0,118.0,-62.0,127.0,127.0,127.0,-125.0,-89.0,-125.0
127.0,127.0,127.0,141.0,126.0,128.0,127.0,128.0,-1.0,118.0,-62.0,127.0,127.0,127.0,-125.0,-89.0,-125.0
127.0,127.0,128.0,140.0,126.0,129.0,127.0,128.0,-1.0,118.0,-62.0,127.0,127.0,127.0,-125.0,-89.0,-125.0
127.0,127.0,128.0,140.0,126.0,129.0,127.0,128.0,-1.0,118.0,-62.0,127.0,127.0,127.0,-125.0,-89.0,-125.0
127.0,127.0,128.0,140.0,126.0,128.0,126.0,128.0,-1.0,118.0,-62.0,127.0,127.0,127.0,-125.0,-89.0,-125.0
127.0,127.0,128.0,140.0,126.0,128.0,126.0,128.0,-1.0,118.0,-62.0,127.0,127.0,127.0,-125.0,-89.0,-125.0
127.0,127.0,128.0,140.0,126.0,128.0,126.0,128.0,-1.0,118.0,-62.0,127.0,127.0,127.0,-125.0,-89.0,-125.0
127.0,127.0,128.0,140.0,126.0,128.0,126.0,128.0,-1.0,118.0,-62.0,127.0,127.0,127.0,-125.0,-89.0,-125.0
127.0,127.0,128.0,140.0,126.0,128.0,126.0,128.0,-1.0,118.0,-62.0,127.0,127.0,127.0,-125.0,-89.0,-125.0
127.0,127.0,128.0,140.0,126.0,128.0,126.0,128.0,-1.0,118.0,-62.0,127.0,127.0,127.0,-125.0,-89.0,-125.0
127.0,127.0,128.0,140.0,126.0,128.0,126.0,128.0,-1.0,118.0,-62.0,127.0,127.0,127.0,-125.0,-89.0,-125.0
127.0,127.0,128.0,140.0,126.0,129.0,127.0,128.0,-1.0,118.0,-62.0,127.0,127.0,127.0,-125.0,-89.0,-125.0
127.0,127.0,128.0,139.0,126.0,129.0,128.0,129.0,-1.0,118.0,-62.0,127.0,127.0,127.0,-125.0,-89.0,-125.0
127.0,127.0,127.0,139.0,127.0,128.0,128.0,128.0,-1.0,118.0,-62.0,127.0,127.0,127.0,-125.0,-89.0,-125.0
127.0,127.0,127.0,139.0,127.0,128.0,128.0,128.0,-1.0,118.0,-62.0,127.0,127.0,127.0,-125.0,-89.0,-125.0
127.0,127.0,127.0,139.0,127.0,128.0,128.0,128.0,-1.0,118.0,-62.0,127.0,127.0,127.0,-125.0,-89.0,-125.0
126.0,127.0,127.0,139.0,127.0,128.0,128.0,128.0,-1.0,118.0,-62.0,127.0,127.0,127.0,-125.0,-89.0,-125.0
126.0,127.0,127.0,139.0,127.0,128.0,128.0,128.0,-1.0,118.0,-62.0,127.0,127.0,127.0,-125.0,-89.0,-125.0
127.0,127.0,127.0,139.0,127.0,128.0,128.0,128.0,-1.0,118.0,-62.0,127.0,127.0,127.0,-125.0,-89.0,-125.0
126.0,127.0,128.0,139.0,127.0,128.0,128.0,128.0,-1.0,118.0,-62.0,127.0,127.0,127.0,-125.0,-89.0,-125.0
126.0,127.0,127.0,139.0,126.0,129.0,128.0,128.0,-1.0,118.0,-62.0,127.0,127.0,127.0,-125.0,-89.0,-125.0
127.0,127.0,128.0,139.0,126.0,129.0,128.0,129.0,-1.0,118.0,-62.0,127.0,127.0,127.0,-125.0,-89.0,-125.0
126.0,126.0,128.0,139.0,126.0,128.0,128.0,128.0,-1.0,118.0,-62.0,127.0,127.0,127.0,-125.0,-89.0,-125.0
126.0,127.0,127.0,139.0,126.0,128.0,129.0,128.0,-1.0,118.0,-62.0,127.0,127.0,127.0,-125.0,-89.0,-125.0
127.0,127.0,128.0,139.0,126.0,128.0,129.0,128.0,-1.0,118.0,-62.0,127.0,127.0,127.0,-125.0,-89.0,-125.0
126.0,127.0,127.0,139.0,126.0,128.0,129.0,128.0,-1.0,118.0,-62.0,127.0,127.0,127.0,-125.0,-89.0,-125.0
127.0,127.0,127.0,139.0,125.0,128.0,129.0,128.0,-1.0,118.0,-62.0,127.0,127.0,127.0,-125.0,-89.0,-125.0
127.0,127.0,127.0,139.0,125.0,128.0,129.0,128.0,-1.0,118.0,-62.0,127.0,127.0,127.0,-125.0,-89.0,-125.0
127.0,127.0,127.0,139.0,125.0,128.0,129.0,128.0,-1.0,118.0,-62.0,127.0,127.0,127.0,-125.0,-89.0,-125.0
127.0,127.0,128.0,139.0,125.0,128.0,129.0,128.0,-1.0,118.0,-62.0,127.0,127.0,127.0,-125.0,-89.0,-125.0
127.0,127.0,127.0,139.0,125.0,128.0,129.0,129.0,-1.0,118.0,-62.0,127.0,127.0,127.0,-125.0,-89.0,-125.0
127.0,127.0,127.0,139.0,125.0,128.0,129.0,129.0,-1.0,118.0,-62.0,127.0,127.0,127.0,-125.0,-89.0,-125.0
127.0,127.0,127.0,138.0,125.0,128.0,130.0,129.0,-1.0,118.0,-62.0,127.0,127.0,127.0,-125.0,-89.0,-125.0
127.0,127.0,127.0,138.0,125.0,129.0,130.0,129.0,-1.0,118.0,-62.0,127.0,127.0,127.0,-125.0,-89.0,-125.0
127.0,127.0,127.0,138.0,125.0,129.0,130.0,129.0,-1.0,118.0,-62.0,127.0,127.0,127.0,-125.0,-89.0,-125.0
127.0,127.0,127.0,138.0,126.0,128.0,129.0,129.0,-1.0,118.0,-62.0,127.0,127.0,127.0,-125.0,-89.0,-125.0
127.0,127.0,127.0,138.0,126.0,128.0,129.0,129.0,-1.0,118.0,-62.0,127.0,127.0,127.0,-125.0,-89.0,-125.0
127.0,127.0,127.0,138.0,126.0,128.0,129.0,129.0,-1.0,118.0,-62.0,127.0,127.0,127.0,-125.0,-89.0,-125.0
126.0,127.0,127.0,138.0,126.0,128.0,129.0,129.0,-1.0,118.0,-62.0,127.0,127.0,127.0,-125.0,-89.0,-125.0
127.0,127.0,127.0,138.0,126.0,129.0,130.0,129.0,-1.0,118.0,-62.0,127.0,127.0,127.0,-125.0,-89.0,-125.0
127.0,127.0,127.0,138.0,126.0,129.0,129.0,129.0,-1.0,118.0,-62.0,127.0,127.0,127.0,-125.0,-89.0,-125.0
127.0,127.0,127.0,138.0,125.0,128.0,129.0,129.0,-1.0,118.0,-62.0,127.0,127.0,127.0,-125.0,-89.0,-125.0
127.0,127.0,127.0,138.0,127.0,128.0,128.0,129.0,-1.0,118.0,-62.0,127.0,127.0,127.0,-125.0,-89.0,-125.0
127.0,127.0,127.0,138.0,127.0,128.0,128.0,128.0,-1.0,118.0,-62.0,127.0,127.0,127.0,-125.0,-89.0,-125.0
127.0,127.0,127.0,138.0,127.0,128.0,128.0,128.0,-1.0,118.0,-62.0,127.0,127.0,127.0,-125.0,-89.0,-125.0
127.0,127.0,127.0,139.0,127.0,127.0,128.0,128.0,-1.0,118.0,-62.0,127.0,127.0,127.0,-125.0,-89.0,-125.0
127.0,127.0,127.0,138.0,127.0,128.0,128.0,128.0,-1.0,118.0,-62.0,127.0,127.0,127.0,-125.0,-89.0,-125.0
127.0,127.0,127.0,139.0,127.0,127.0,127.0,128.0,-1.0,118.0,-62.0,127.0,127.0,127.0,-125.0,-89.0,-125.0
127.0,127.0,127.0,139.0,127.0,128.0,127.0,129.0,-1.0,118.0,-62.0,127.0,127.0,127.0,-125.0,-89.0,-125.0
127.0,127.0,127.0,139.0,127.0,128.0,127.0,129.0,-1.0,118.0,-62.0,127.0,127.0,127.0,-125.0,-89.0,-125.0
127.0,127.0,127.0,138.0,127.0,127.0,128.0,128.0,-1.0,118.0,-62.0,127.0,127.0,127.0,-125.0,-89.0,-125.0
127.0,127.0,127.0,138.0,127.0,128.0,128.0,128.0,-1.0,118.0,-62.0,127.0,127.0,127.0,-125.0,-89.0,-125.0
127.0,127.0,128.0,139.0,127.0,129.0,126.0,128.0,-1.0,118.0,-62.0,127.0,127.0,127.0,-125.0,-89.0,-125.0
127.0,126.0,128.0,139.0,127.0,129.0,126.0,128.0,-1.0,118.0,-62.0,127.0,127.0,127.0,-125.0,-89.0,-125.0
127.0,126.0,128.0,139.0,127.0,129.0,126.0,128.0,-1.0,118.0,-62.0,127.0,127.0,127.0,-125.0,-89.0,-125.0
127.0,126.0,128.0,139.0,127.0,129.0,126.0,128.0,-1.0,118.0,-62.0,127.0,127.0,127.0,-125.0,-89.0,-125.0
127.0,126.0,128.0,139.0,126.0,129.0,126.0,128.0,-1.0,118.0,-62.0,127.0,127.0,127.0,-125.0,-89.0,-125.0
127.0,127.0,128.0,139.0,126.0,130.0,126.0,128.0,-1.0,118.0,-62.0,127.0,127.0,127.0,-125.0,-89.0,-125.0
127.0,127.0,128.0,139.0,126.0,130.0,126.0,128.0,-1.0,118.0,-62.0,127.0,127.0,127.0,-125.0,-89.0,-125.0
127.0,126.0,128.0,139.0,127.0,128.0,126.0,128.0,-1.0,118.0,-62.0,127.0,127.0,127.0,-125.0,-89.0,-125.0
127.0,126.0,128.0,139.0,127.0,129.0,126.0,128.0,-1.0,118.0,-62.0,127.0,127.0,127.0,-125.0,-89.0,-125.0
127.0,127.0,128.0,139.0,127.0,129.0,126.0,128.0,-1.0,118.0,-62.0,127.0,127.0,127.0,-125.0,-89.0,-125.0
126.0,127.0,127.0,138.0,124.0,130.0,127.0,128.0,-1.0,119.0,-62.0,127.0,127.0,127.0,-125.0,-89.0,-125.0
126.0,127.0,127.0,138.0,124.0,130.0,127.0,128.0,-1.0,119.0,-62.0,127.0,127.0,127.0,-125.0,-89.0,-125.0
126.0,127.0,127.0,138.0,124.0,130.0,127.0,128.0,-1.0,119.0,-62.0,127.0,127.0,127.0,-125.0,-89.0,-125.0
126.0,127.0,127.0,138.0,124.0,130.0,127.0,128.0,-1.0,119.0,-62.0,127.0,127.0,127.0,-125.0,-89.0,-125.0
127.0,127.0,127.0,138.0,124.0,130.0,127.0,128.0,-1.0,119.0,-62.0,127.0,127.0,127.0,-125.0,-89.0,-125.0
127.0,127.0,127.0,138.0,124.0,130.0,127.0,128.0,-1.0,119.0,-62.0,127.0,127.0,127.0,-125.0,-89.0,-125.0
126.0,126.0,127.0,138.0,125.0,129.0,126.0,128.0,-1.0,119.0,-62.0,127.0,127.0,127.0,-125.0,-89.0,-125.0
126.0,126.0,127.0,138.0,125.0,129.0,126.0,128.0,-1.0,119.0,-62.0,127.0,127.0,127.0,-125.0,-89.0,-125.0
126.0,127.0,127.0,138.0,125.0,130.0,126.0,128.0,-1.0,119.0,-62.0,127.0,127.0,127.0,-125.0,-89.0,-125.0
126.0,127.0,127.0,138.0,125.0,130.0,127.0,128.0,-1.0,119.0,-62.0,127.0,127.0,127.0,-125.0,-89.0,-125.0
127.0,126.0,126.0,137.0,125.0,128.0,127.0,128.0,-1.0,119.0,-62.0,127.0,127.0,127.0,-125.0,-89.0,-125.0
127.0,126.0,126.0,138.0,125.0,128.0,127.0,128.0,-1.0,119.0,-62.0,127.0,127.0,127.0,-125.0,-89.0,-125.0
127.0,126.0,126.0,137.0,125.0,128.0,127.0,128.0,-1.0,119.0,-62.0,127.0,127.0,127.0,-125.0,-89.0,-125.0
127.0,126.0,126.0,137.0,125.0,128.0,127.0,128.0,-1.0,119.0,-62.0,127.0,127.0,127.0,-125.0,-89.0,-125.0
127.0,126.0,126.0,137.0,125.0,128.0,127.0,128.0,-1.0,119.0,-62.0,127.0,127.0,127.0,-125.0,-89.0,-125.0
126.0,126.0,126.0,137.0,125.0,128.0,127.0,128.0,-1.0,119.0,-62.0,127.0,127.0,127.0,-125.0,-89.0,-125.0
126.0,126.0,126.0,137.0,125.0,128.0,127.0,128.0,-1.0,119.0,-62.0,127.0,127.0,127.0,-125.0,-89.0,-125.0
127.0,126.0,126.0,137.0,125.0,128.0,127.0,128.0,-1.0,119.0,-62.0,127.0,127.0,127.0,-125.0,-89.0,-125.0
126.0,126.0,126.0,138.0,125.0,128.0,127.0,128.0,-1.0,119.0,-62.0,127.0,127.0,127.0,-125.0,-89.0,-125.0
127.0,126.0,126.0,137.0,125.0,128.0,127.0,128.0,-1.0,119.0,-62.0,127.0,127.0,127.0,-125.0,-89.0,-125.0
127.0,127.0,126.0,137.0,125.0,129.0,127.0,129.0,-1.0,119.0,-62.0,127.0,127.0,127.0,-125.0,-89.0,-125.0
127.0,127.0,126.0,137.0,125.0,129.0,127.0,129.0,-1.0,119.0,-62.0,127.0,127.0,127.0,-125.0,-89.0,-125.0
127.0,127.0,126.0,137.0,125.0,129.0,127.0,129.0,-1.0,119.0,-62.0,127.0,127.0,127.0,-125.0,-89.0,-125.0
127.0,127.0,126.0,137.0,125.0,129.0,127.0,129.0,-1.0,119.0,-62.0,127.0,127.0,127.0,-125.0,-89.0,-125.0
127.0,127.0,126.0,137.0,126.0,129.0,127.0,129.0,-1.0,119.0,-62.0,127.0,127.0,127.0,-125.0,-89.0,-125.0
127.0,127.0,126.0,137.0,126.0,129.0,127.0,129.0,-1.0,119.0,-62.0,127.0,127.0,127.0,-125.0,-89.0,-125.0
127.0,127.0,126.0,137.0,126.0,129.0,127.0,129.0,-1.0,119.0,-62.0,127.0,127.0,127.0,-125.0,-89.0,-125.0
127.0,127.0,126.0,137.0,125.0,129.0,127.0,129.0,-1.0,119.0,-62.0,127.0,127.0,127.0,-125.0,-89.0,-125.0
127.0,127.0,126.0,137.0,125.0,129.0,127.0,129.0,-1.0,119.0,-62.0,127.0,127.0,127.0,-125.0,-89.0,-125.0
127.0,127.0,126.0,137.0,125.0,129.0,127.0,129.0,-1.0,119.0,-62.0,127.0,127.0,127.0,-125.0,-89.0,-125.0
127.0,127.0,126.0,136.0,126.0,128.0,127.0,129.0,-1.0,119.0,-61.0,127.0,127.0,127.0,-125.0,-89.0,-125.0
127.0,127.0,126.0,136.0,127.0,128.0,127.0,129.0,-1.0,119.0,-61.0,127.0,127.0,127.0,-125.0,-89.0,-125.0
127.0,127.0,126.0,136.0,127.0,128.0,127.0,129.0,-1.0,119.0,-61.0,127.0,127.0,127.0,-125.0,-89.0,-125.0
127.0,127.0,126.0,136.0,127.0,128.0,127.0,129.0,-1.0,119.0,-61.0,127.0,127.0,127.0,-125.0,-89.0,-125.0
127.0,127.0,126.0,136.0,127.0,128.0,127.0,129.0,-1.0,119.0,-61.0,127.0,127.0,127.0,-125.0,-89.0,-125.0
127.0,127.0,126.0,136.0,127.0,128.0,127.0,129.0,-1.0,119.0,-61.0,127.0,127.0,127.0,-125.0,-89.0,-125.0
127.0,127.0,126.0,136.0,127.0,128.0,127.0,129.0,-1.0,119.0,-61.0,127.0,127.0,127.0,-125.0,-89.0,-125.0
127.0,127.0,126.0,136.0,126.0,128.0,127.0,129.0,-1.0,119.0,-61.0,127.0,127.0,127.0,-125.0,-89.0,-125.0
127.0,127.0,126.0,136.0,126.0,128.0,127.0,129.0,-1.0,119.0,-61.0,127.0,127.0,127.0,-125.0,-89.0,-125.0
127.0,127.0,126.0,136.0,126.0,128.0,127.0,129.0,-1.0,119.0,-61.0,127.0,127.0,127.0,-125.0,-89.0,-125.0
127.0,127.0,127.0,136.0,124.0,128.0,128.0,128.0,-1.0,119.0,-61.0,127.0,127.0,127.0,-125.0,-89.0,-125.0
127.0,126.0,127.0,136.0,124.0,128.0,128.0,128.0,-1.0,119.0,-61.0,127.0,127.0,127.0,-125.0,-89.0,-125.0
127.0,127.0,126.0,136.0,125.0,129.0,128.0,129.0,-1.0,119.0,-61.0,127.0,127.0,127.0,-125.0,-89.0,-125.0
127.0,127.0,126.0,136.0,125.0,129.0,128.0,129.0,-1.0,119.0,-61.0,127.0,127.0,127.0,-125.0,-89.0,-125.0
127.0,127.0,126.0,136.0,125.0,129.0,128.0,129.0,-1.0,119.0,-61.0,127.0,127.0,127.0,-125.0,-89.0,-125.0
127.0,127.0,126.0,136.0,125.0,129.0,128.0,129.0,-1.0,119.0,-61.0,127.0,127.0,127.0,-125.0,-89.0,-125.0
127.0,127.0,126.0,136.0,124.0,129.0,128.0,129.0,-1.0,119.0,-61.0,127.0,127.0,127.0,-125.0,-89.0,-125.0
127.0,127.0,126.0,136.0,124.0,128.0,128.0,129.0,-1.0,119.0,-61.0,127.0,127.0,127.0,-125.0,-89.0,-125.0
127.0,127.0,126.0,136.0,124.0,128.0,128.0,128.0,-1.0,119.0,-61.0,127.0,127.0,127.0,-125.0,-89.0,-125.0
127.0,127.0,127.0,136.0,124.0,128.0,128.0,128.0,-1.0,119.0,-61.0,127.0,127.0,127.0,-125.0,-89.0,-125.0
127.0,127.0,128.0,135.0,124.0,128.0,127.0,128.0,-1.0,119.0,-61.0,127.0,127.0,127.0,-125.0,-89.0,-125.0
127.0,127.0,128.0,135.0,125.0,129.0,127.0,128.0,-1.0,119.0,-61.0,127.0,127.0,127.0,-125.0,-89.0,-125.0
127.0,127.0,128.0,135.0,125.0,129.0,127.0,128.0,-1.0,119.0,-61.0,127.0,127.0,127.0,-125.0,-89.0,-125.0
126.0,127.0,128.0,135.0,125.0,129.0,127.0,128.0,-1.0,119.0,-61.0,127.0,127.0,127.0,-125.0,-89.0,-125.0
127.0,127.0,128.0,136.0,124.0,129.0,127.0,128.0,-1.0,119.0,-61.0,127.0,127.0,127.0,-125.0,-89.0,-125.0
127.0,127.0,128.0,135.0,124.0,129.0,127.0,128.0,-1.0,119.0,-61.0,127.0,127.0,127.0,-125.0,-89.0,-125.0
127.0,127.0,128.0,135.0,124.0,129.0,127.0,128.0,-1.0,119.0,-61.0,127.0,127.0,127.0,-125.0,-89.0,-125.0
127.0,127.0,128.0,135.0,124.0,129.0,127.0,128.0,-1.0,119.0,-61.0,127.0,127.0,127.0,-125.0,-89.0,-125.0
127.0,127.0,128.0,135.0,124.0,129.0,127.0,128.0,-1.0,119.0,-61.0,127.0,127.0,127.0,-125.0,-89.0,-125.0
127.0,127.0,128.0,135.0,124.0,129.0,127.0,128.0,-1.0,119.0,-61.0,127.0,127.0,127.0,-125.0,-89.0,-125.0
127.0,127.0,129.0,135.0,126.0,129.0,127.0,128.0,-1.0,119.0,-61.0,127.0,127.0,127.0,-125.0,-89.0,-125.0
127.0,127.0,129.0,135.0,126.0,129.0,127.0,128.0,-1.0,119.0,-61.0,127.0,127.0,127.0,-125.0,-89.0,-125.0
127.0,126.0,128.0,135.0,126.0,129.0,127.0,128.0,-1.0,119.0,-61.0,127.0,127.0,127.0,-125.0,-89.0,-125.0
127.0,127.0,129.0,135.0,126.0,129.0,127.0,128.0,-1.0,119.0,-61.0,127.0,127.0,127.0,-125.0,-89.0,-125.0
127.0,127.0,129.0,135.0,126.0,129.0,127.0,128.0,-1.0,119.0,-61.0,127.0,127.0,127.0,-125.0,-89.0,-125.0
127.0,127.0,129.0,135.0,126.0,129.0,127.0,128.0,-1.0,119.0,-61.0,127.0,127.0,127.0,-125.0,-89.0,-125.0
127.0,127.0,129.0,135.0,126.0,129.0,127.0,128.0,-1.0,119.0,-61.0,127.0,127.0,127.0,-125.0,-89.0,-125.0
127.0,127.0,129.0,135.0,126.0,129.0,127.0,128.0,-1.0,119.0,-61.0,127.0,127.0,127.0,-125.0,-89.0,-125.0
127.0,127.0,128.0,135.0,126.0,129.0,127.0,128.0,-1.0,119.0,-61.0,127.0,127.0,127.0,-125.0,-89.0,-125.0
127.0,127.0,128.0,135.0,126.0,129.0,128.0,128.0,-1.0,119.0,-61.0,127.0,127.0,127.0,-125.0,-89.0,-125.0
127.0,126.0,127.0,135.0,126.0,129.0,127.0,128.0,-1.0,119.0,-62.0,127.0,127.0,127.0,-125.0,-89.0,-125.0
127.0,126.0,127.0,135.0,126.0,128.0,127.0,128.0,-1.0,119.0,-62.0,127.0,127.0,127.0,-125.0,-89.0,-125.0
127.0,127.0,127.0,135.0,126.0,129.0,127.0,128.0,-1.0,119.0,-62.0,127.0,127.0,127.0,-125.0,-89.0,-125.0
127.0,127.0,127.0,135.0,126.0,129.0,127.0,128.0,-1.0,119.0,-62.0,127.0,127.0,127.0,-125.0,-89.0,-125.0
127.0,127.0,127.0,135.0,126.0,129.0,127.0,128.0,-1.0,119.0,-62.0,127.0,127.0,127.0,-125.0,-89.0,-125.0
127.0,127.0,127.0,135.0,125.0,129.0,127.0,128.0,-1.0,119.0,-62.0,127.0,127.0,127.0,-125.0,-89.0,-125.0
127.0,127.0,127.0,135.0,125.0,129.0,127.0,128.0,-1.0,119.0,-62.0,127.0,127.0,127.0,-125.0,-89.0,-125.0
127.0,127.0,127.0,135.0,125.0,129.0,127.0,128.0,-1.0,119.0,-62.0,127.0,127.0,127.0,-125.0,-89.0,-125.0
127.0,126.0,127.0,135.0,125.0,128.0,127.0,128.0,-1.0,119.0,-62.0,127.0,127.0,127.0,-125.0,-89.0,-125.0
127.0,126.0,127.0,135.0,126.0,129.0,127.0,128.0,-1.0,119.0,-62.0,127.0,127.0,127.0,-125.0,-89.0,-125.0
127.0,127.0,126.0,134.0,127.0,128.0,127.0,128.0,-1.0,119.0,-62.0,127.0,127.0,127.0,-125.0,-89.0,-125.0
127.0,127.0,126.0,134.0,127.0,128.0,127.0,129.0,-1.0,119.0,-62.0,127.0,127.0,127.0,-125.0,-89.0,-125.0
127.0,127.0,126.0,134.0,127.0,128.0,127.0,129.0,-1.0,119.0,-62.0,127.0,127.0,127.0,-125.0,-89.0,-125.0
127.0,127.0,126.0,134.0,127.0,128.0,127.0,129.0,-1.0,119.0,-62.0,127.0,127.0,127.0,-125.0,-89.0,-125.0
127.0,127.0,126.0,134.0,127.0,128.0,127.0,129.0,-1.0,119.0,-62.0,127.0,127.0,127.0,-125.0,-89.0,-125.0
127.0,127.0,126.0,134.0,127.0,128.0,127.0,129.0,-1.0,119.0,-62.0,127.0,127.0,127.0,-125.0,-89.0,-125.0
127.0,127.0,126.0,134.0,127.0,128.0,127.0,129.0,-1.0,119.0,-62.0,127.0,127.0,127.0,-125.0,-89.0,-125.0
127.0,127.0,126.0,134.0,127.0,128.0,127.0,129.0,-1.0,119.0,-62.0,127.0,127.0,127.0,-125.0,-89.0,-125.0
127.0,127.0,126.0,134.0,127.0,128.0,127.0,128.0,-1.0,119.0,-62.0,127.0,127.0,127.0,-125.0,-89.0,-125.0
127.0,127.0,126.0,134.0,127.0,128.0,127.0,129.0,-1.0,119.0,-62.0,127.0,127.0,127.0,-125.0,-89.0,-125.0
127.0,126.0,127.0,135.0,127.0,127.0,125.0,129.0,-1.0,119.0,-62.0,127.0,127.0,127.0,-125.0,-89.0,-125.0
127.0,126.0,127.0,135.0,127.0,127.0,125.0,129.0,-1.0,119.0,-62.0,127.0,127.0,127.0,-125.0,-89.0,-125.0
127.0,127.0,127.0,135.0,127.0,127.0,125.0,129.0,-1.0,119.0,-62.0,127.0,127.0,127.0,-125.0,-89.0,-125.0
126.0,127.0,127.0,135.0,126.0,127.0,125.0,129.0,-1.0,119.0,-62.0,127.0,127.0,127.0,-125.0,-89.0,-125.0
127.0,127.0,127.0,135.0,126.0,127.0,125.0,129.0,-1.0,119.0,-62.0,127.0,127.0,127.0,-125.0,-89.0,-125.0
127.0,127.0,127.0,135.0,126.0,127.0,125.0,129.0,-1.0,119.0,-62.0,127.0,127.0,127.0,-125.0,-89.0,-125.0
127.0,127.0,127.0,135.0,126.0,127.0,125.0,129.0,-1.0,119.0,-62.0,127.0,127.0,127.0,-125.0,-89.0,-125.0
127.0,126.0,127.0,134.0,127.0,127.0,125.0,129.0,-1.0,119.0,-62.0,127.0,127.0,127.0,-125.0,-89.0,-125.0
127.0,126.0,127.0,135.0,127.0,127.0,125.0,129.0,-1.0,119.0,-62.0,127.0,127.0,127.0,-125.0,-89.0,-125.0
127.0,127.0,127.0,135.0,127.0,127.0,125.0,129.0,-1.0,119.0,-62.0,127.0,127.0,127.0,-125.0,-89.0,-125.0
127.0,127.0,127.0,135.0,128.0,128.0,127.0,129.0,-1.0,119.0,-62.0,127.0,127.0,127.0,-125.0,-89.0,-125.0
127.0,127.0,127.0,135.0,128.0,128.0,127.0,129.0,-1.0,119.0,-62.0,127.0,127.0,127.0,-125.0,-89.0,-125.0
127.0,127.0,127.0,135.0,128.0,127.0,127.0,129.0,-1.0,119.0,-62.0,127.0,127.0,127.0,-125.0,-89.0,-125.0
127.0,127.0,127.0,135.0,128.0,127.0,127.0,128.0,-1.0,119.0,-62.0,127.0,127.0,127.0,-125.0,-89.0,-125.0
127.0,127.0,127.0,135.0,128.0,127.0,127.0,129.0,-1.0,119.0,-62.0,127.0,127.0,127.0,-125.0,-89.0,-125.0
127.0,127.0,127.0,135.0,127.0,127.0,127.0,128.0,-1.0,119.0,-62.0,127.0,127.0,127.0,-125.0,-89.0,-125.0
126.0,127.0,127.0,134.0,128.0,128.0,126.0,129.0,-1.0,119.0,-62.0,127.0,127.0,127.0,-125.0,-89.0,-125.0
127.0,127.0,127.0,134.0,128.0,128.0,127.0,129.0,-1.0,119.0,-62.0,127.0,127.0,127.0,-125.0,-89.0,-125.0
127.0,127.0,127.0,135.0,127.0,128.0,127.0,129.0,-1.0,119.0,-62.0,127.0,127.0,127.0,-125.0,-89.0,-125.0
127.0,127.0,127.0,135.0,128.0,128.0,127.0,129.0,-1.0,119.0,-62.0,127.0,127.0,127.0,-125.0,-89.0,-125.0
127.0,127.0,127.0,135.0,126.0,129.0,127.0,129.0,-1.0,119.0,-62.0,127.0,127.0,127.0,-125.0,-89.0,-125.0
127.0,127.0,127.0,135.0,126.0,129.0,127.0,129.0,-1.0,119.0,-62.0,127.0,127.0,127.0,-125.0,-89.0,-125.0
127.0,127.0,127.0,135.0,126.0,128.0,127.0,129.0,-1.0,119.0,-62.0,127.0,127.0,127.0,-125.0,-89.0,-125.0
127.0,127.0,127.0,135.0,126.0,128.0,127.0,129.0,-1.0,119.0,-62.0,127.0,127.0,127.0,-125.0,-89.0,-125.0
127.0,127.0,127.0,135.0,126.0,128.0,127.0,129.0,-1.0,119.0,-62.0,127.0,127.0,127.0,-125.0,-89.0,-125.0
127.0,127.0,127.0,135.0,126.0,128.0,127.0,129.0,-1.0,119.0,-62.0,127.0,127.0,127.0,-125.0,-89.0,-125.0
127.0,127.0,127.0,135.0,126.0,129.0,127.0,129.0,-1.0,119.0,-62.0,127.0,127.0,127.0,-125.0,-89.0,-125.0
127.0,127.0,127.0,135.0,126.0,129.0,127.0,129.0,-1.0,119.0,-62.0,127.0,127.0,127.0,-125.0,-89.0,-125.0
127.0,127.0,127.0,135.0,126.0,129.0,127.0,129.0,-1.0,119.0,-62.0,127.0,127.0,127.0,-125.0,-89.0,-125.0
127.0,127.0,127.0,135.0,126.0,129.0,127.0,129.0,-1.0,119.0,-62.0,127.0,127.0,127.0,-125.0,-89.0,-125.0
127.0,126.0,128.0,135.0,125.0,128.0,127.0,128.0,-1.0,119.0,-63.0,127.0,127.0,127.0,-125.0,-89.0,-125.0
127.0,126.0,128.0,135.0,125.0,128.0,127.0,128.0,-1.0,119.0,-63.0,127.0,127.0,127.0,-125.0,-89.0,-125.0
127.0,126.0,128.0,135.0,125.0,128.0,127.0,128.0,-1.0,119.0,-63.0,127.0,127.0,127.0,-125.0,-89.0,-125.0
127.0,126.0,128.0,135.0,125.0,128.0,127.0,128.0,-1.0,119.0,-63.0,127.0,127.0,127.0,-125.0,-89.0,-125.0
127.0,126.0,128.0,135.0,126.0,128.0,127.0,128.0,-1.0,119.0,-63.0,127.0,127.0,127.0,-125.0,-89.0,-125.0
127.0,126.0,128.0,135.0,126.0,129.0,127.0,128.0,-1.0,119.0,-63.0,127.0,127.0,127.0,-125.0,-89.0,-125.0
127.0,126.0,128.0,135.0,125.0,129.0,127.0,128.0,-1.0,119.0,-63.0,127.0,127.0,127.0,-125.0,-89.0,-125.0
127.0,126.0,128.0,135.0,125.0,129.0,127.0,128.0,-1.0,119.0,-63.0,127.0,127.0,127.0,-125.0,-89.0,-125.0
127.0,126.0,128.0,135.0,125.0,129.0,127.0,128.0,-1.0,119.0,-63.0,127.0,127.0,127.0,-125.0,-89.0,-125.0
127.0,127.0,128.0,135.0,125.0,129.0,127.0,128.0,-1.0,119.0,-63.0,127.0,127.0,127.0,-125.0,-89.0,-125.0
126.0,126.0,128.0,135.0,126.0,128.0,127.0,128.0,-1.0,119.0,-63.0,127.0,127.0,127.0,-125.0,-89.0,-125.0
126.0,126.0,128.0,135.0,126.0,128.0,127.0,128.0,-1.0,119.0,-63.0,127.0,127.0,127.0,-125.0,-89.0,-125.0
126.0,126.0,128.0,135.0,126.0,128.0,127.0,128.0,-1.0,119.0,-63.0,127.0,127.0,127.0,-125.0,-89.0,-125.0
127.0,126.0,128.0,135.0,126.0,128.0,127.0,128.0,-1.0,119.0,-63.0,127.0,127.0,127.0,-125.0,-89.0,-125.0
127.0,126.0,128.0,135.0,126.0,128.0,127.0,128.0,-1.0,119.0,-63.0,127.0,127.0,127.0,-125.0,-89.0,-125.0
127.0,126.0,128.0,135.0,126.0,128.0,127.0,128.0,-1.0,119.0,-63.0,127.0,127.0,127.0,-125.0,-89.0,-125.0
127.0,126.0,128.0,135.0,126.0,128.0,127.0,128.0,-1.0,119.0,-63.0,127.0,127.0,127.0,-125.0,-89.0,-125.0
127.0,126.0,128.0,135.0,126.0,128.0,127.0,128.0,-1.0,119.0,-63.0,127.0,127.0,127.0,-125.0,-89.0,-125.0
127.0,126.0,128.0,135.0,125.0,128.0,127.0,128.0,-1.0,119.0,-63.0,127.0,127.0,127.0,-125.0,-89.0,-125.0
127.0,126.0,128.0,135.0,126.0,128.0,127.0,128.0,-1.0,119.0,-63.0,127.0,127.0,127.0,-125.0,-89.0,-125.0
127.0,126.0,126.0,134.0,126.0,127.0,127.0,128.0,-1.0,119.0,-63.0,127.0,127.0,127.0,-125.0,-89.0,-125.0
127.0,126.0,126.0,134.0,126.0,127.0,127.0,128.0,-1.0,119.0,-63.0,127.0,127.0,127.0,-125.0,-89.0,-125.0
127.0,126.0,127.0,134.0,125.0,128.0,127.0,128.0,-1.0,119.0,-63.0,127.0,127.0,127.0,-125.0,-89.0,-125.0
127.0,126.0,126.0,134.0,125.0,128.0,127.0,128.0,-1.0,119.0,-63.0,127.0,127.0,127.0,-125.0,-89.0,-125.0
127.0,126.0,126.0,134.0,125.0,128.0,127.0,128.0,-1.0,119.0,-63.0,127.0,127.0,127.0,-125.0,-89.0,-125.0
127.0,126.0,126.0,134.0,126.0,128.0,127.0,128.0,-1.0,119.0,-63.0,127.0,127.0,127.0,-125.0,-89.0,-125.0
127.0,126.0,126.0,134.0,126.0,127.0,127.0,128.0,-1.0,119.0,-63.0,127.0,127.0,127.0,-125.0,-89.0,-125.0
127.0,126.0,126.0,134.0,126.0,127.0,127.0,128.0,-1.0,119.0,-63.0,127.0,127.0,127.0,-125.0,-89.0,-125.0
127.0,126.0,126.0,134.0,126.0,127.0,127.0,128.0,-1.0,119.0,-63.0,127.0,127.0,127.0,-125.0,-89.0,-125.0
127.0,126.0,126.0,134.0,126.0,127.0,127.0,128.0,-1.0,119.0,-63.0,127.0,127.0,127.0,-125.0,-89.0,-125.0
127.0,126.0,126.0,134.0,126.0,127.0,128.0,128.0,-1.0,119.0,-63.0,127.0,127.0,127.0,-125.0,-89.0,-125.0
127.0,126.0,127.0,134.0,126.0,128.0,128.0,128.0,-1.0,119.0,-63.0,127.0,127.0,127.0,-125.0,-89.0,-125.0
127.0,126.0,127.0,134.0,126.0,128.0,128.0,128.0,-1.0,119.0,-63.0,127.0,127.0,127.0,-125.0,-89.0,-125.0
127.0,126.0,127.0,134.0,126.0,128.0,128.0,128.0,-1.0,119.0,-63.0,127.0,127.0,127.0,-125.0,-89.0,-125.0
127.0,126.0,127.0,134.0,126.0,128.0,128.0,128.0,-1.0,119.0,-63.0,127.0,127.0,127.0,-125.0,-89.0,-125.0
127.0,126.0,127.0,134.0,126.0,128.0,128.0,128.0,-1.0,119.0,-63.0,127.0,127.0,127.0,-125.0,-89.0,-125.0
127.0,126.0,127.0,134.0,126.0,128.0,128.0,128.0,-1.0,119.0,-63.0,127.0,127.0,127.0,-125.0,-89.0,-125.0
127.0,126.0,127.0,134.0,126.0,128.0,128.0,128.0,-1.0,119.0,-63.0,127.0,127.0,127.0,-125.0,-89.0,-125.0
127.0,126.0,127.0,134.0,126.0,127.0,128.0,128.0,-1.0,119.0,-63.0,127.0,127.0,127.0,-125.0,-89.0,-125.0
127.0,126.0,127.0,134.0,126.0,127.0,128.0,128.0,-1.0,119.0,-63.0,127.0,127.0,127.0,-125.0,-89.0,-125.0
126.0,126.0,126.0,134.0,126.0,128.0,128.0,128.0,-1.0,119.0,-63.0,127.0,127.0,127.0,-125.0,-89.0,-125.0
126.0,126.0,126.0,134.0,126.0,128.0,128.0,128.0,-1.0,119.0,-63.0,127.0,127.0,127.0,-125.0,-89.0,-125.0
126.0,126.0,126.0,134.0,126.0,128.0,128.0,128.0,-1.0,119.0,-63.0,127.0,127.0,127.0,-125.0,-89.0,-125.0
126.0,126.0,126.0,134.0,126.0,128.0,128.0,128.0,-1.0,119.0,-63.0,127.0,127.0,127.0,-125.0,-89.0,-125.0
126.0,126.0,126.0,134.0,126.0,128.0,128.0,128.0,-1.0,119.0,-63.0,127.0,127.0,127.0,-125.0,-89.0,-125.0
126.0,127.0,126.0,134.0,125.0,128.0,128.0,128.0,-1.0,119.0,-63.0,127.0,127.0,127.0,-125.0,-89.0,-125.0
126.0,127.0,126.0,134.0,125.0,128.0,128.0,128.0,-1.0,119.0,-63.0,127.0,127.0,127.0,-125.0,-89.0,-125.0
126.0,126.0,126.0,134.0,125.0,128.0,128.0,128.0,-1.0,119.0,-63.0,127.0,127.0,127.0,-125.0,-89.0,-125.0
126.0,127.0,126.0,134.0,125.0,128.0,128.0,128.0,-1.0,119.0,-63.0,127.0,127.0,127.0,-125.0,-89.0,-125.0
126.0,126.0,126.0,134.0,125.0,128.0,128.0,128.0,-1.0,119.0,-63.0,127.0,127.0,127.0,-125.0,-89.0,-125.0
127.0,126.0,128.0,134.0,127.0,127.0,128.0,127.0,-1.0,119.0,-63.0,127.0,127.0,127.0,-125.0,-89.0,-125.0
127.0,126.0,128.0,134.0,127.0,127.0,128.0,127.0,-1.0,119.0,-63.0,127.0,127.0,127.0,-125.0,-89.0,-125.0
127.0,126.0,128.0,134.0,127.0,127.0,128.0,127.0,-1.0,119.0,-63.0,127.0,127.0,127.0,-125.0,-89.0,-125.0
127.0,126.0,128.0,134.0,127.0,127.0,128.0,127.0,-1.0,119.0,-63.0,127.0,127.0,127.0,-125.0,-89.0,-125.0
127.0,126.0,128.0,134.0,127.0,127.0,128.0,127.0,-1.0,119.0,-63.0,127.0,127.0,127.0,-125.0,-89.0,-125.0
127.0,126.0,128.0,134.0,127.0,127.0,128.0,127.0,-1.0,119.0,-63.0,127.0,127.0,127.0,-125.0,-89.0,-125.0
127.0,126.0,128.0,134.0,126.0,127.0,128.0,127.0,-1.0,119.0,-63.0,127.0,127.0,127.0,-125.0,-89.0,-125.0
127.0,126.0,128.0,134.0,126.0,127.0,128.0,127.0,-1.0,119.0,-63.0,127.0,127.0,127.0,-125.0,-89.0,-125.0
127.0,126.0,128.0,134.0,126.0,127.0,128.0,127.0,-1.0,119.0,-63.0,127.0,127.0,127.0,-125.0,-89.0,-125.0
127.0,126.0,128.0,134.0,127.0,127.0,128.0,127.0,-1.0,119.0,-63.0,127.0,127.0,127.0,-125.0,-89.0,-125.0
126.0,126.0,127.0,134.0,126.0,128.0,129.0,128.0,-1.0,119.0,-63.0,127.0,127.0,127.0,-125.0,-89.0,-125.0
126.0,126.0,127.0,134.0,125.0,128.0,129.0,128.0,-1.0,119.0,-63.0,127.0,127.0,127.0,-125.0,-89.0,-125.0
127.0,126.0,127.0,134.0,125.0,128.0,129.0,128.0,-1.0,119.0,-63.0,127.0,127.0,127.0,-125.0,-89.0,-125.0
127.0,126.0,127.0,134.0,125.0,128.0,129.0,128.0,-1.0,119.0,-63.0,127.0,127.0,127.0,-125.0,-89.0,-125.0
127.0,126.0,127.0,134.0,125.0,128.0,129.0,128.0,-1.0,119.0,-63.0,127.0,127.0,127.0,-125.0,-89.0,-125.0
127.0,126.0,127.0,134.0,125.0,128.0,129.0,128.0,-1.0,119.0,-63.0,127.0,127.0,127.0,-125.0,-89.0,-125.0
127.0,126.0,127.0,134.0,125.0,127.0,129.0,128.0,-1.0,119.0,-63.0,127.0,127.0,127.0,-125.0,-89.0,-125.0
127.0,126.0,127.0,134.0,125.0,127.0,129.0,128.0,-1.0,119.0,-63.0,127.0,127.0,127.0,-125.0,-89.0,-125.0
126.0,126.0,127.0,134.0,126.0,128.0,129.0,128.0,-1.0,119.0,-63.0,127.0,127.0,127.0,-125.0,-89.0,-125.0
126.0,126.0,127.0,134.0,126.0,127.0,129.0,128.0,-1.0,119.0,-63.0,127.0,127.0,127.0,-125.0,-89.0,-125.0
127.0,127.0,127.0,134.0,125.0,128.0,128.0,129.0,-1.0,119.0,-63.0,127.0,127.0,127.0,-125.0,-89.0,-125.0
127.0,127.0,127.0,134.0,125.0,128.0,128.0,129.0,-1.0,119.0,-63.0,127.0,127.0,127.0,-125.0,-89.0,-125.0
127.0,127.0,127.0,134.0,125.0,128.0,128.0,129.0,-1.0,119.0,-63.0,127.0,127.0,127.0,-125.0,-89.0,-125.0
127.0,127.0,127.0,134.0,125.0,128.0,128.0,129.0,-1.0,119.0,-63.0,127.0,127.0,127.0,-125.0,-89.0,-125.0
127.0,127.0,127.0,134.0,125.0,128.0,128.0,129.0,-1.0,119.0,-63.0,127.0,127.0,127.0,-125.0,-89.0,-125.0
127.0,127.0,127.0,134.0,125.0,128.0,128.0,129.0,-1.0,119.0,-63.0,127.0,127.0,127.0,-125.0,-89.0,-125.0
127.0,126.0,127.0,134.0,125.0,128.0,128.0,128.0,-1.0,119.0,-63.0,127.0,127.0,127.0,-125.0,-89.0,-125.0
127.0,126.0,127.0,133.0,125.0,128.0,128.0,129.0,-1.0,119.0,-63.0,127.0,127.0,127.0,-125.0,-89.0,-125.0
127.0,126.0,127.0,133.0,125.0,128.0,128.0,129.0,-1.0,119.0,-63.0,127.0,127.0,127.0,-125.0,-89.0,-125.0
127.0,127.0,127.0,133.0,125.0,128.0,128.0,129.0,-1.0,119.0,-63.0,127.0,127.0,127.0,-125.0,-89.0,-125.0
127.0,127.0,127.0,133.0,127.0,128.0,126.0,128.0,-1.0,118.0,-63.0,127.0,127.0,127.0,-125.0,-89.0,-125.0
127.0,127.0,127.0,133.0,127.0,128.0,126.0,129.0,-1.0,118.0,-63.0,127.0,127.0,127.0,-125.0,-89.0,-125.0
127.0,127.0,127.0,133.0,127.0,128.0,126.0,129.0,-1.0,118.0,-63.0,127.0,127.0,127.0,-125.0,-89.0,-125.0
127.0,127.0,127.0,133.0,127.0,128.0,127.0,129.0,-1.0,118.0,-63.0,127.0,127.0,127.0,-125.0,-89.0,-125.0
127.0,127.0,127.0,133.0,127.0,128.0,127.0,128.0,-1.0,118.0,-63.0,127.0,127.0,127.0,-125.0,-89.0,-125.0
127.0,127.0,127.0,133.0,127.0,128.0,127.0,128.0,-1.0,118.0,-63.0,127.0,127.0,127.0,-125.0,-89.0,-125.0
127.0,126.0,127.0,133.0,127.0,128.0,126.0,128.0,-1.0,118.0,-63.0,127.0,127.0,127.0,-125.0,-89.0,-125.0
127.0,126.0,127.0,133.0,127.0,128.0,126.0,128.0,-1.0,118.0,-63.0,127.0,127.0,127.0,-125.0,-89.0,-125.0
127.0,126.0,127.0,133.0,127.0,128.0,126.0,128.0,-1.0,118.0,-63.0,127.0,127.0,127.0,-125.0,-89.0,-125.0
127.0,127.0,127.0,133.0,127.0,128.0,126.0,129.0,-1.0,118.0,-63.0,127.0,127.0,127.0,-125.0,-89.0,-125.0
127.0,126.0,127.0,132.0,126.0,127.0,127.0,128.0,-1.0,118.0,-63.0,127.0,127.0,127.0,-125.0,-89.0,-125.0
127.0,126.0,127.0,132.0,126.0,127.0,127.0,128.0,-1.0,118.0,-63.0,127.0,127.0,127.0,-125.0,-89.0,-125.0
127.0,126.0,127.0,133.0,126.0,127.0,127.0,128.0,-1.0,118.0,-63.0,127.0,127.0,127.0,-125.0,-89.0,-125.0
127.0,126.0,127.0,132.0,125.0,127.0,127.0,128.0,-1.0,118.0,-63.0,127.0,127.0,127.0,-125.0,-89.0,-125.0
127.0,126.0,127.0,132.0,125.0,127.0,127.0,128.0,-1.0,118.0,-63.0,127.0,127.0,127.0,-125.0,-89.0,-125.0
127.0,126.0,127.0,132.0,127.0,127.0,127.0,128.0,-1.0,118.0,-63.0,127.0,127.0,127.0,-125.0,-89.0,-125.0
127.0,126.0,127.0,132.0,127.0,127.0,127.0,128.0,-1.0,118.0,-63.0,127.0,127.0,127.0,-125.0,-89.0,-125.0
127.0,126.0,127.0,132.0,127.0,127.0,127.0,128.0,-1.0,118.0,-63.0,127.0,127.0,127.0,-125.0,-89.0,-125.0
127.0,126.0,127.0,132.0,127.0,127.0,127.0,128.0,-1.0,118.0,-63.0,127.0,127.0,127.0,-125.0,-89.0,-125.0
127.0,126.0,127.0,132.0,126.0,127.0,127.0,128.0,-1.0,118.0,-63.0,127.0,127.0,127.0,-125.0,-89.0,-125.0
126.0,127.0,127.0,132.0,125.0,128.0,126.0,128.0,-1.0,118.0,-62.0,127.0,127.0,127.0,-125.0,-89.0,-125.0
126.0,127.0,127.0,132.0,125.0,128.0,126.0,128.0,-1.0,118.0,-62.0,127.0,127.0,127.0,-125.0,-89.0,-125.0
126.0,127.0,127.0,132.0,125.0,128.0,126.0,128.0,-1.0,118.0,-62.0,127.0,127.0,127.0,-125.0,-89.0,-125.0
127.0,127.0,127.0,132.0,125.0,128.0,126.0,128.0,-1.0,118.0,-62.0,127.0,127.0,127.0,-125.0,-89.0,-125.0
127.0,126.0,127.0,132.0,125.0,128.0,126.0,128.0,-1.0,118.0,-62.0,127.0,127.0,127.0,-125.0,-89.0,-125.0
127.0,126.0,127.0,132.0,125.0,128.0,126.0,129.0,-1.0,118.0,-62.0,127.0,127.0,127.0,-125.0,-89.0,-125.0
127.0,126.0,127.0,132.0,125.0,128.0,126.0,128.0,-1.0,118.0,-62.0,127.0,127.0,127.0,-125.0,-89.0,-125.0
126.0,126.0,127.0,132.0,125.0,127.0,126.0,128.0,-1.0,118.0,-62.0,127.0,127.0,127.0,-125.0,-89.0,-125.0
126.0,126.0,127.0,132.0,125.0,127.0,126.0,128.0,-1.0,118.0,-62.0,127.0,127.0,127.0,-125.0,-89.0,-125.0
126.0,126.0,127.0,132.0,125.0,127.0,126.0,128.0,-1.0,118.0,-62.0,127.0,127.0,127.0,-125.0,-89.0,-125.0
127.0,127.0,128.0,132.0,126.0,128.0,127.0,128.0,-1.0,118.0,-62.0,127.0,127.0,127.0,-125.0,-89.0,-125.0
127.0,127.0,128.0,132.0,127.0,128.0,127.0,128.0,-1.0,118.0,-62.0,127.0,127.0,127.0,-125.0,-89.0,-125.0
127.0,127.0,128.0,132.0,127.0,128.0,127.0,128.0,-1.0,118.0,-62.0,127.0,127.0,127.0,-125.0,-89.0,-125.0
126.0,127.0,127.0,132.0,127.0,128.0,127.0,128.0,-1.0,118.0,-62.0,127.0,127.0,127.0,-125.0,-89.0,-125.0
126.0,127.0,127.0,132.0,127.0,128.0,127.0,128.0,-1.0,118.0,-62.0,127.0,127.0,127.0,-125.0,-89.0,-125.0
127.0,127.0,128.0,132.0,127.0,128.0,127.0,128.0,-1.0,118.0,-62.0,127.0,127.0,127.0,-125.0,-89.0,-125.0
127.0,127.0,128.0,132.0,127.0,127.0,127.0,128.0,-1.0,118.0,-62.0,127.0,127.0,127.0,-125.0,-89.0,-125.0
127.0,127.0,128.0,132.0,127.0,127.0,127.0,128.0,-1.0,118.0,-62.0,127.0,127.0,127.0,-125.0,-89.0,-125.0
127.0,127.0,128.0,132.0,127.0,127.0,127.0,128.0,-1.0,118.0,-62.0,127.0,127.0,127.0,-125.0,-89.0,-125.0
127.0,127.0,128.0,132.0,127.0,128.0,127.0,128.0,-1.0,118.0,-62.0,127.0,127.0,127.0,-125.0,-89.0,-125.0
127.0,127.0,127.0,132.0,125.0,128.0,127.0,128.0,-1.0,118.0,-62.0,127.0,127.0,127.0,-125.0,-89.0,-125.0
127.0,126.0,127.0,132.0,124.0,128.0,127.0,128.0,-1.0,118.0,-62.0,127.0,127.0,127.0,-125.0,-89.0,-125.0
127.0,126.0,127.0,132.0,126.0,127.0,127.0,128.0,-1.0,118.0,-62.0,127.0,127.0,127.0,-125.0,-89.0,-125.0
127.0,126.0,127.0,132.0,126.0,127.0,127.0,128.0,-1.0,118.0,-62.0,127.0,127.0,127.0,-125.0,-89.0,-125.0
127.0,126.0,127.0,132.0,126.0,127.0,127.0,128.0,-1.0,118.0,-62.0,127.0,127.0,127.0,-125.0,-89.0,-125.0
126.0,126.0,127.0,132.0,126.0,127.0,127.0,128.0,-1.0,118.0,-62.0,127.0,127.0,127.0,-125.0,-89.0,-125.0
126.0,126.0,127.0,132.0,126.0,127.0,127.0,128.0,-1.0,118.0,-62.0,127.0,127.0,127.0,-125.0,-89.0,-125.0
126.0,126.0,127.0,132.0,125.0,127.0,127.0,128.0,-1.0,118.0,-62.0,127.0,127.0,127.0,-125.0,-89.0,-125.0
126.0,126.0,127.0,132.0,125.0,127.0,127.0,128.0,-1.0,118.0,-62.0,127.0,127.0,127.0,-125.0,-89.0,-125.0
127.0,127.0,127.0,132.0,125.0,128.0,127.0,128.0,-1.0,118.0,-62.0,127.0,127.0,127.0,-125.0,-89.0,-125.0
127.0,126.0,127.0,132.0,125.0,127.0,126.0,128.0,-1.0,118.0,-62.0,127.0,127.0,127.0,-125.0,-89.0,-125.0
127.0,126.0,127.0,132.0,125.0,128.0,126.0,128.0,-1.0,118.0,-62.0,127.0,127.0,127.0,-125.0,-89.0,-125.0
127.0,126.0,127.0,132.0,125.0,128.0,126.0,128.0,-1.0,118.0,-62.0,127.0,127.0,127.0,-125.0,-89.0,-125.0
127.0,126.0,127.0,132.0,125.0,128.0,126.0,128.0,-1.0,118.0,-62.0,127.0,127.0,127.0,-125.0,-89.0,-125.0
127.0,126.0,127.0,132.0,125.0,128.0,126.0,128.0,-1.0,118.0,-62.0,127.0,127.0,127.0,-125.0,-89.0,-125.0
127.0,126.0,127.0,132.0,125.0,127.0,126.0,128.0,-1.0,118.0,-62.0,127.0,127.0,127.0,-125.0,-89.0,-125.0
127.0,126.0,127.0,132.0,125.0,127.0,126.0,128.0,-1.0,118.0,-62.0,127.0,127.0,127.0,-125.0,-89.0,-125.0
127.0,126.0,127.0,132.0,125.0,127.0,126.0,128.0,-1.0,118.0,-62.0,127.0,127.0,127.0,-125.0,-89.0,-125.0
127.0,126.0,127.0,132.0,125.0,127.0,126.0,128.0,-1.0,118.0,-62.0,127.0,127.0,127.0,-125.0,-89.0,-125.0
127.0,126.0,127.0,132.0,125.0,127.0,126.0,128.0,-1.0,118.0,-62.0,127.0,127.0,127.0,-125.0,-89.0,-125.0
127.0,127.0,127.0,132.0,125.0,128.0,126.0,129.0,-1.0,118.0,-62.0,127.0,127.0,127.0,-125.0,-89.0,-125.0
