emg1,emg2,emg3,emg4,emg5,emg6,emg7,emg8,acc_x,acc_y,acc_z,gyro_x,gyro_y,gyro_z,angle_pitch,angle_roll,angle_yaw
126.0,127.0,128.0,127.0,126.0,127.0,107.0,128.0,28.0,-124.0,-65.0,127.0,127.0,127.0,127.0,88.0,-37.0
126.0,127.0,128.0,127.0,126.0,127.0,107.0,128.0,28.0,-124.0,-65.0,127.0,127.0,127.0,127.0,88.0,-37.0
127.0,127.0,128.0,127.0,126.0,127.0,106.0,128.0,28.0,-124.0,-65.0,127.0,127.0,127.0,127.0,88.0,-37.0
127.0,127.0,128.0,127.0,126.0,127.0,106.0,128.0,28.0,-124.0,-65.0,127.0,127.0,127.0,127.0,88.0,-37.0
127.0,127.0,128.0,127.0,126.0,127.0,106.0,128.0,28.0,-124.0,-65.0,127.0,127.0,127.0,127.0,88.0,-37.0
127.0,127.0,128.0,127.0,126.0,127.0,106.0,128.0,28.0,-124.0,-65.0,127.0,127.0,127.0,127.0,88.0,-37.0
127.0,127.0,128.0,127.0,126.0,127.0,110.0,128.0,28.0,-124.0,-65.0,127.0,127.0,127.0,127.0,88.0,-37.0
127.0,127.0,128.0,127.0,126.0,127.0,113.0,128.0,28.0,-124.0,-65.0,127.0,127.0,127.0,127.0,88.0,-37.0
126.0,127.0,127.0,127.0,126.0,127.0,107.0,128.0,28.0,-124.0,-65.0,127.0,127.0,127.0,127.0,88.0,-37.0
127.0,127.0,127.0,127.0,127.0,126.0,112.0,128.0,28.0,-124.0,-65.0,127.0,127.0,127.0,127.0,88.0,-37.0
127.0,127.0,127.0,127.0,127.0,127.0,112.0,128.0,28.0,-124.0,-65.0,127.0,127.0,127.0,127.0,88.0,-37.0
127.0,127.0,127.0,127.0,127.0,127.0,112.0,128.0,28.0,-124.0,-65.0,127.0,127.0,127.0,127.0,88.0,-37.0
127.0,127.0,127.0,127.0,127.0,126.0,112.0,128.0,28.0,-124.0,-65.0,127.0,127.0,127.0,127.0,88.0,-37.0
127.0,127.0,127.0,127.0,127.0,126.0,112.0,127.0,28.0,-124.0,-65.0,127.0,127.0,127.0,127.0,88.0,-37.0
127.0,127.0,127.0,127.0,127.0,127.0,112.0,127.0,28.0,-124.0,-65.0,127.0,127.0,127.0,127.0,88.0,-37.0
127.0,127.0,127.0,127.0,127.0,126.0,112.0,127.0,28.0,-124.0,-65.0,127.0,127.0,127.0,127.0,88.0,-37.0
127.0,127.0,127.0,127.0,127.0,127.0,112.0,128.0,28.0,-124.0,-65.0,127.0,127.0,127.0,127.0,88.0,-37.0
127.0,127.0,127.0,127.0,127.0,127.0,112.0,128.0,28.0,-124.0,-65.0,127.0,127.0,127.0,127.0,88.0,-37.0
127.0,127.0,127.0,127.0,127.0,127.0,112.0,128.0,28.0,-124.0,-65.0,127.0,127.0,127.0,127.0,88.0,-37.0
126.0,127.0,127.0,127.0,127.0,128.0,107.0,128.0,27.0,-124.0,-65.0,127.0,127.0,127.0,127.0,88.0,-37.0
126.0,127.0,127.0,127.0,127.0,128.0,106.0,128.0,27.0,-124.0,-65.0,127.0,127.0,127.0,127.0,88.0,-37.0
126.0,127.0,127.0,127.0,127.0,127.0,106.0,128.0,27.0,-124.0,-65.0,127.0,127.0,127.0,127.0,88.0,-37.0
126.0,127.0,127.0,127.0,127.0,127.0,107.0,128.0,27.0,-124.0,-65.0,127.0,127.0,127.0,127.0,88.0,-37.0
127.0,127.0,127.0,127.0,127.0,127.0,107.0,128.0,27.0,-124.0,-65.0,127.0,127.0,127.0,127.0,88.0,-37.0
127.0,127.0,127.0,127.0,126.0,127.0,107.0,128.0,27.0,-124.0,-65.0,127.0,127.0,127.0,127.0,88.0,-37.0
127.0,127.0,127.0,127.0,126.0,127.0,106.0,128.0,27.0,-124.0,-65.0,127.0,127.0,127.0,127.0,88.0,-37.0
126.0,127.0,127.0,127.0,127.0,127.0,107.0,128.0,27.0,-124.0,-65.0,127.0,127.0,127.0,127.0,88.0,-37.0
126.0,127.0,127.0,127.0,127.0,127.0,106.0,128.0,27.0,-124.0,-65.0,127.0,127.0,127.0,127.0,88.0,-37.0
126.0,127.0,127.0,127.0,127.0,128.0,106.0,128.0,27.0,-124.0,-65.0,127.0,127.0,127.0,127.0,88.0,-37.0
127.0,126.0,127.0,127.0,127.0,127.0,113.0,128.0,27.0,-124.0,-65.0,127.0,127.0,127.0,127.0,88.0,-37.0
126.0,127.0,127.0,127.0,127.0,127.0,111.0,128.0,27.0,-124.0,-65.0,127.0,127.0,127.0,127.0,88.0,-37.0
126.0,127.0,127.0,127.0,127.0,127.0,107.0,128.0,27.0,-124.0,-65.0,127.0,127.0,127.0,127.0,88.0,-37.0
126.0,127.0,127.0,127.0,127.0,127.0,106.0,128.0,27.0,-124.0,-65.0,127.0,127.0,127.0,127.0,88.0,-37.0
126.0,126.0,127.0,127.0,126.0,127.0,106.0,128.0,27.0,-124.0,-65.0,127.0,127.0,127.0,127.0,88.0,-37.0
127.0,127.0,127.0,127.0,126.0,127.0,106.0,128.0,27.0,-124.0,-65.0,127.0,127.0,127.0,127.0,88.0,-37.0
127.0,126.0,127.0,127.0,127.0,127.0,109.0,128.0,27.0,-124.0,-65.0,127.0,127.0,127.0,127.0,88.0,-37.0
127.0,126.0,127.0,127.0,127.0,127.0,112.0,128.0,27.0,-124.0,-65.0,127.0,127.0,127.0,127.0,88.0,-37.0
127.0,126.0,127.0,127.0,127.0,127.0,112.0,128.0,27.0,-124.0,-65.0,127.0,127.0,127.0,127.0,88.0,-37.0
127.0,126.0,127.0,127.0,127.0,127.0,112.0,128.0,27.0,-124.0,-65.0,127.0,127.0,127.0,127.0,88.0,-37.0
126.0,127.0,127.0,127.0,126.0,127.0,112.0,128.0,27.0,-124.0,-65.0,127.0,127.0,127.0,127.0,88.0,-37.0
126.0,127.0,127.0,127.0,126.0,127.0,110.0,128.0,27.0,-124.0,-65.0,127.0,127.0,127.0,127.0,88.0,-37.0
126.0,127.0,127.0,127.0,126.0,127.0,112.0,128.0,27.0,-124.0,-65.0,127.0,127.0,127.0,127.0,88.0,-37.0
126.0,127.0,127.0,127.0,126.0,127.0,113.0,128.0,27.0,-124.0,-65.0,127.0,127.0,127.0,127.0,88.0,-37.0
126.0,127.0,127.0,127.0,126.0,127.0,113.0,128.0,27.0,-124.0,-65.0,127.0,127.0,127.0,127.0,88.0,-37.0
127.0,127.0,128.0,127.0,126.0,127.0,111.0,128.0,27.0,-124.0,-65.0,127.0,127.0,127.0,127.0,88.0,-37.0
127.0,127.0,128.0,127.0,126.0,127.0,113.0,128.0,27.0,-124.0,-65.0,127.0,127.0,127.0,127.0,88.0,-37.0
127.0,127.0,128.0,127.0,126.0,127.0,113.0,128.0,27.0,-124.0,-65.0,127.0,127.0,127.0,127.0,88.0,-37.0
127.0,127.0,128.0,127.0,126.0,127.0,113.0,128.0,27.0,-124.0,-65.0,127.0,127.0,127.0,127.0,88.0,-37.0
127.0,127.0,128.0,127.0,126.0,127.0,113.0,128.0,27.0,-124.0,-65.0,127.0,127.0,127.0,127.0,88.0,-37.0
126.0,127.0,127.0,127.0,127.0,127.0,107.0,128.0,27.0,-124.0,-65.0,127.0,127.0,127.0,127.0,88.0,-37.0
126.0,127.0,127.0,127.0,127.0,127.0,107.0,128.0,27.0,-124.0,-65.0,127.0,127.0,127.0,127.0,88.0,-37.0
126.0,127.0,127.0,127.0,127.0,127.0,107.0,128.0,27.0,-124.0,-65.0,127.0,127.0,127.0,127.0,88.0,-37.0
126.0,127.0,127.0,127.0,127.0,128.0,107.0,128.0,27.0,-124.0,-65.0,127.0,127.0,127.0,127.0,88.0,-37.0
126.0,127.0,127.0,127.0,127.0,127.0,107.0,128.0,27.0,-124.0,-65.0,127.0,127.0,127.0,127.0,88.0,-37.0
126.0,127.0,127.0,127.0,127.0,127.0,107.0,128.0,27.0,-124.0,-65.0,127.0,127.0,127.0,127.0,88.0,-37.0
127.0,127.0,127.0,127.0,127.0,127.0,110.0,128.0,27.0,-124.0,-65.0,127.0,127.0,127.0,127.0,88.0,-37.0
127.0,126.0,127.0,127.0,127.0,127.0,113.0,128.0,27.0,-124.0,-65.0,127.0,127.0,127.0,127.0,88.0,-37.0
127.0,127.0,127.0,127.0,127.0,127.0,113.0,128.0,27.0,-124.0,-65.0,127.0,127.0,127.0,127.0,88.0,-37.0
126.0,127.0,127.0,127.0,127.0,127.0,111.0,128.0,27.0,-124.0,-65.0,127.0,127.0,127.0,127.0,88.0,-37.0
126.0,127.0,127.0,127.0,127.0,127.0,106.0,128.0,27.0,-124.0,-65.0,127.0,127.0,127.0,127.0,88.0,-37.0
126.0,127.0,127.0,127.0,127.0,127.0,107.0,128.0,27.0,-124.0,-65.0,127.0,127.0,127.0,127.0,88.0,-37.0
126.0,127.0,128.0,127.0,127.0,127.0,107.0,128.0,27.0,-124.0,-65.0,127.0,127.0,127.0,127.0,88.0,-37.0
126.0,127.0,127.0,126.0,126.0,127.0,112.0,128.0,27.0,-124.0,-65.0,127.0,127.0,127.0,127.0,88.0,-37.0
126.0,127.0,127.0,126.0,126.0,127.0,113.0,128.0,27.0,-124.0,-65.0,127.0,127.0,127.0,127.0,88.0,-37.0
126.0,127.0,127.0,126.0,126.0,127.0,113.0,128.0,27.0,-124.0,-65.0,127.0,127.0,127.0,127.0,88.0,-37.0
126.0,126.0,127.0,127.0,126.0,127.0,113.0,128.0,27.0,-124.0,-65.0,127.0,127.0,127.0,127.0,88.0,-37.0
126.0,127.0,127.0,127.0,126.0,127.0,113.0,128.0,27.0,-124.0,-65.0,127.0,127.0,127.0,127.0,88.0,-37.0
126.0,127.0,127.0,127.0,126.0,127.0,112.0,128.0,27.0,-124.0,-65.0,127.0,127.0,127.0,127.0,88.0,-37.0
126.0,127.0,127.0,127.0,127.0,127.0,110.0,128.0,27.0,-124.0,-65.0,127.0,127.0,127.0,127.0,88.0,-37.0
126.0,127.0,127.0,127.0,127.0,127.0,106.0,128.0,27.0,-124.0,-65.0,127.0,127.0,127.0,127.0,88.0,-37.0
126.0,127.0,127.0,127.0,127.0,127.0,107.0,128.0,27.0,-124.0,-65.0,127.0,127.0,127.0,127.0,88.0,-37.0
126.0,127.0,127.0,127.0,127.0,127.0,106.0,128.0,27.0,-124.0,-65.0,127.0,127.0,127.0,127.0,88.0,-37.0
127.0,127.0,127.0,127.0,127.0,127.0,106.0,128.0,27.0,-124.0,-65.0,127.0,127.0,127.0,127.0,88.0,-37.0
126.0,127.0,127.0,127.0,127.0,127.0,106.0,128.0,27.0,-124.0,-65.0,127.0,127.0,127.0,127.0,88.0,-37.0
126.0,127.0,127.0,127.0,127.0,128.0,107.0,128.0,27.0,-124.0,-65.0,127.0,127.0,127.0,127.0,88.0,-37.0
126.0,127.0,127.0,127.0,127.0,128.0,107.0,128.0,27.0,-124.0,-65.0,127.0,127.0,127.0,127.0,88.0,-37.0
126.0,127.0,127.0,127.0,127.0,128.0,107.0,128.0,27.0,-124.0,-65.0,127.0,127.0,127.0,127.0,88.0,-37.0
126.0,127.0,127.0,127.0,127.0,128.0,106.0,128.0,27.0,-124.0,-65.0,127.0,127.0,127.0,127.0,88.0,-37.0
126.0,127.0,127.0,127.0,127.0,127.0,106.0,128.0,27.0,-124.0,-65.0,127.0,127.0,127.0,127.0,88.0,-37.0
127.0,126.0,127.0,127.0,127.0,127.0,113.0,128.0,27.0,-124.0,-65.0,127.0,127.0,127.0,127.0,88.0,-36.0
127.0,126.0,127.0,127.0,127.0,127.0,113.0,128.0,27.0,-124.0,-65.0,127.0,127.0,127.0,127.0,88.0,-36.0
127.0,126.0,127.0,127.0,127.0,127.0,113.0,128.0,27.0,-124.0,-65.0,127.0,127.0,127.0,127.0,88.0,-36.0
127.0,126.0,127.0,127.0,127.0,127.0,113.0,128.0,27.0,-124.0,-65.0,127.0,127.0,127.0,127.0,88.0,-36.0
127.0,126.0,127.0,127.0,127.0,127.0,113.0,128.0,27.0,-124.0,-65.0,127.0,127.0,127.0,127.0,88.0,-36.0
127.0,126.0,127.0,127.0,127.0,127.0,113.0,128.0,27.0,-124.0,-65.0,127.0,127.0,127.0,127.0,88.0,-36.0
127.0,126.0,127.0,127.0,127.0,127.0,113.0,128.0,27.0,-124.0,-65.0,127.0,127.0,127.0,127.0,88.0,-36.0
127.0,126.0,127.0,127.0,127.0,127.0,113.0,128.0,27.0,-124.0,-65.0,127.0,127.0,127.0,127.0,88.0,-36.0
127.0,126.0,127.0,127.0,127.0,127.0,112.0,128.0,27.0,-124.0,-65.0,127.0,127.0,127.0,127.0,88.0,-36.0
127.0,126.0,127.0,127.0,127.0,127.0,113.0,128.0,27.0,-124.0,-65.0,127.0,127.0,127.0,127.0,88.0,-36.0
127.0,127.0,128.0,128.0,127.0,128.0,107.0,128.0,27.0,-124.0,-65.0,127.0,127.0,127.0,127.0,88.0,-36.0
127.0,127.0,128.0,128.0,127.0,128.0,107.0,128.0,27.0,-124.0,-65.0,127.0,127.0,127.0,127.0,88.0,-36.0
127.0,127.0,127.0,128.0,127.0,128.0,107.0,128.0,27.0,-124.0,-65.0,127.0,127.0,127.0,127.0,88.0,-36.0
126.0,127.0,127.0,128.0,127.0,128.0,107.0,128.0,27.0,-124.0,-65.0,127.0,127.0,127.0,127.0,88.0,-36.0
127.0,127.0,127.0,128.0,127.0,128.0,107.0,128.0,27.0,-124.0,-65.0,127.0,127.0,127.0,127.0,88.0,-36.0
127.0,127.0,127.0,128.0,127.0,128.0,107.0,128.0,27.0,-124.0,-65.0,127.0,127.0,127.0,127.0,88.0,-36.0
126.0,127.0,127.0,127.0,127.0,128.0,107.0,128.0,27.0,-124.0,-65.0,127.0,127.0,127.0,127.0,88.0,-36.0
126.0,127.0,127.0,127.0,127.0,128.0,107.0,128.0,27.0,-124.0,-65.0,127.0,127.0,127.0,127.0,88.0,-36.0
126.0,127.0,127.0,127.0,127.0,128.0,107.0,128.0,27.0,-124.0,-65.0,127.0,127.0,127.0,127.0,88.0,-36.0
126.0,127.0,127.0,127.0,127.0,128.0,107.0,128.0,27.0,-124.0,-65.0,127.0,127.0,127.0,127.0,88.0,-36.0
127.0,127.0,127.0,127.0,127.0,127.0,112.0,128.0,28.0,-124.0,-65.0,127.0,127.0,127.0,127.0,88.0,-36.0
127.0,127.0,127.0,127.0,127.0,127.0,112.0,128.0,28.0,-124.0,-65.0,127.0,127.0,127.0,127.0,88.0,-36.0
127.0,127.0,127.0,127.0,127.0,127.0,112.0,128.0,28.0,-124.0,-65.0,127.0,127.0,127.0,127.0,88.0,-36.0
127.0,127.0,127.0,127.0,127.0,127.0,113.0,128.0,28.0,-124.0,-65.0,127.0,127.0,127.0,127.0,88.0,-36.0
127.0,127.0,127.0,127.0,126.0,127.0,113.0,128.0,28.0,-124.0,-65.0,127.0,127.0,127.0,127.0,88.0,-36.0
127.0,127.0,127.0,127.0,127.0,127.0,113.0,128.0,28.0,-124.0,-65.0,127.0,127.0,127.0,127.0,88.0,-36.0
127.0,127.0,127.0,127.0,127.0,127.0,112.0,128.0,28.0,-124.0,-65.0,127.0,127.0,127.0,127.0,88.0,-36.0
127.0,127.0,127.0,127.0,127.0,127.0,112.0,128.0,28.0,-124.0,-65.0,127.0,127.0,127.0,127.0,88.0,-36.0
127.0,127.0,127.0,127.0,127.0,127.0,112.0,128.0,28.0,-124.0,-65.0,127.0,127.0,127.0,127.0,88.0,-36.0
127.0,127.0,127.0,127.0,126.0,127.0,110.0,128.0,28.0,-124.0,-65.0,127.0,127.0,127.0,127.0,88.0,-36.0
126.0,127.0,127.0,127.0,127.0,127.0,113.0,128.0,28.0,-124.0,-65.0,127.0,127.0,127.0,127.0,88.0,-36.0
126.0,127.0,127.0,127.0,127.0,127.0,113.0,128.0,28.0,-124.0,-65.0,127.0,127.0,127.0,127.0,88.0,-36.0
126.0,126.0,127.0,127.0,127.0,127.0,113.0,128.0,28.0,-124.0,-65.0,127.0,127.0,127.0,127.0,88.0,-36.0
126.0,126.0,127.0,127.0,127.0,127.0,113.0,128.0,28.0,-124.0,-65.0,127.0,127.0,127.0,127.0,88.0,-36.0
127.0,126.0,127.0,127.0,127.0,127.0,112.0,128.0,28.0,-124.0,-65.0,127.0,127.0,127.0,127.0,88.0,-36.0
127.0,126.0,127.0,127.0,127.0,127.0,112.0,128.0,28.0,-124.0,-65.0,127.0,127.0,127.0,127.0,88.0,-36.0
126.0,126.0,127.0,127.0,127.0,127.0,112.0,128.0,28.0,-124.0,-65.0,127.0,127.0,127.0,127.0,88.0,-36.0
127.0,126.0,127.0,127.0,127.0,127.0,112.0,128.0,28.0,-124.0,-65.0,127.0,127.0,127.0,127.0,88.0,-36.0
126.0,127.0,127.0,127.0,127.0,127.0,112.0,128.0,28.0,-124.0,-65.0,127.0,127.0,127.0,127.0,88.0,-36.0
126.0,127.0,127.0,127.0,127.0,127.0,112.0,128.0,28.0,-124.0,-65.0,127.0,127.0,127.0,127.0,88.0,-36.0
126.0,126.0,127.0,127.0,127.0,127.0,110.0,128.0,28.0,-124.0,-65.0,127.0,127.0,127.0,127.0,88.0,-36.0
126.0,126.0,127.0,127.0,127.0,127.0,113.0,128.0,28.0,-124.0,-65.0,127.0,127.0,127.0,127.0,88.0,-36.0
126.0,126.0,127.0,127.0,127.0,127.0,113.0,128.0,28.0,-124.0,-65.0,127.0,127.0,127.0,127.0,88.0,-36.0
126.0,126.0,127.0,127.0,127.0,127.0,113.0,128.0,28.0,-124.0,-65.0,127.0,127.0,127.0,127.0,88.0,-36.0
126.0,126.0,128.0,127.0,127.0,127.0,112.0,128.0,28.0,-124.0,-65.0,127.0,127.0,127.0,127.0,88.0,-36.0
126.0,126.0,128.0,127.0,127.0,127.0,112.0,128.0,28.0,-124.0,-65.0,127.0,127.0,127.0,127.0,88.0,-36.0
126.0,126.0,128.0,127.0,127.0,127.0,112.0,128.0,28.0,-124.0,-65.0,127.0,127.0,127.0,127.0,88.0,-36.0
126.0,127.0,127.0,127.0,127.0,127.0,107.0,128.0,28.0,-124.0,-65.0,127.0,127.0,127.0,127.0,88.0,-36.0
126.0,127.0,127.0,127.0,127.0,127.0,109.0,128.0,28.0,-124.0,-65.0,127.0,127.0,127.0,127.0,88.0,-36.0
126.0,127.0,127.0,127.0,127.0,127.0,108.0,128.0,28.0,-124.0,-65.0,127.0,127.0,127.0,127.0,88.0,-36.0
127.0,127.0,127.0,127.0,127.0,127.0,106.0,128.0,29.0,-124.0,-65.0,127.0,127.0,127.0,127.0,88.0,-36.0
127.0,127.0,127.0,127.0,126.0,127.0,106.0,128.0,29.0,-124.0,-65.0,127.0,127.0,127.0,127.0,88.0,-36.0
127.0,126.0,127.0,127.0,127.0,127.0,106.0,128.0,29.0,-124.0,-65.0,127.0,127.0,127.0,127.0,88.0,-36.0
127.0,126.0,127.0,127.0,126.0,127.0,111.0,128.0,29.0,-124.0,-65.0,127.0,127.0,127.0,127.0,88.0,-36.0
127.0,126.0,127.0,127.0,126.0,127.0,113.0,128.0,29.0,-124.0,-65.0,127.0,127.0,127.0,127.0,88.0,-36.0
127.0,126.0,127.0,127.0,126.0,127.0,113.0,128.0,29.0,-124.0,-65.0,127.0,127.0,127.0,127.0,88.0,-36.0
127.0,127.0,127.0,127.0,127.0,127.0,107.0,128.0,29.0,-124.0,-65.0,127.0,127.0,127.0,127.0,88.0,-36.0
127.0,127.0,127.0,127.0,127.0,127.0,107.0,128.0,29.0,-124.0,-65.0,127.0,127.0,127.0,127.0,88.0,-36.0
127.0,127.0,127.0,127.0,127.0,127.0,107.0,128.0,29.0,-124.0,-65.0,127.0,127.0,127.0,127.0,88.0,-36.0
127.0,127.0,127.0,127.0,127.0,127.0,107.0,128.0,29.0,-124.0,-65.0,127.0,127.0,127.0,127.0,88.0,-36.0
126.0,127.0,127.0,127.0,127.0,127.0,106.0,128.0,29.0,-124.0,-65.0,127.0,127.0,127.0,127.0,88.0,-36.0
126.0,127.0,127.0,127.0,126.0,127.0,106.0,128.0,29.0,-124.0,-65.0,127.0,127.0,127.0,127.0,88.0,-36.0
126.0,126.0,127.0,127.0,126.0,127.0,106.0,128.0,29.0,-124.0,-65.0,127.0,127.0,127.0,127.0,88.0,-36.0
126.0,126.0,127.0,127.0,126.0,127.0,106.0,128.0,29.0,-124.0,-65.0,127.0,127.0,127.0,127.0,88.0,-36.0
126.0,126.0,127.0,127.0,126.0,127.0,107.0,128.0,29.0,-124.0,-65.0,127.0,127.0,127.0,127.0,88.0,-36.0
126.0,127.0,127.0,127.0,127.0,127.0,106.0,128.0,29.0,-124.0,-65.0,127.0,127.0,127.0,127.0,88.0,-36.0
126.0,127.0,127.0,127.0,127.0,127.0,106.0,128.0,29.0,-124.0,-65.0,127.0,127.0,127.0,127.0,88.0,-36.0
126.0,127.0,127.0,127.0,127.0,127.0,106.0,128.0,29.0,-124.0,-65.0,127.0,127.0,127.0,127.0,88.0,-36.0
126.0,127.0,127.0,127.0,127.0,127.0,106.0,128.0,29.0,-124.0,-65.0,127.0,127.0,127.0,127.0,88.0,-36.0
126.0,127.0,127.0,127.0,127.0,127.0,107.0,128.0,29.0,-124.0,-65.0,127.0,127.0,127.0,127.0,88.0,-36.0
127.0,127.0,127.0,127.0,127.0,128.0,107.0,128.0,29.0,-124.0,-65.0,127.0,127.0,127.0,127.0,88.0,-36.0
127.0,127.0,127.0,127.0,127.0,128.0,107.0,128.0,29.0,-124.0,-65.0,127.0,127.0,127.0,127.0,88.0,-36.0
127.0,127.0,127.0,127.0,127.0,127.0,106.0,128.0,29.0,-124.0,-65.0,127.0,127.0,127.0,127.0,88.0,-36.0
127.0,127.0,127.0,127.0,127.0,127.0,106.0,128.0,29.0,-124.0,-65.0,127.0,127.0,127.0,127.0,88.0,-36.0
127.0,127.0,127.0,127.0,127.0,127.0,106.0,128.0,29.0,-124.0,-65.0,127.0,127.0,127.0,127.0,88.0,-36.0
126.0,127.0,127.0,127.0,127.0,127.0,106.0,128.0,29.0,-124.0,-65.0,127.0,127.0,127.0,127.0,88.0,-36.0
126.0,127.0,127.0,127.0,127.0,128.0,107.0,128.0,29.0,-124.0,-65.0,127.0,127.0,127.0,127.0,88.0,-36.0
127.0,127.0,127.0,127.0,127.0,128.0,106.0,128.0,29.0,-124.0,-65.0,127.0,127.0,127.0,127.0,88.0,-36.0
126.0,127.0,127.0,127.0,127.0,128.0,107.0,128.0,29.0,-124.0,-65.0,127.0,127.0,127.0,127.0,88.0,-36.0
126.0,127.0,127.0,127.0,127.0,128.0,107.0,128.0,29.0,-124.0,-65.0,127.0,127.0,127.0,127.0,88.0,-36.0
127.0,126.0,127.0,127.0,127.0,127.0,113.0,128.0,28.0,-123.0,-65.0,127.0,127.0,127.0,127.0,88.0,-36.0
127.0,126.0,127.0,127.0,127.0,127.0,112.0,128.0,28.0,-123.0,-65.0,127.0,127.0,127.0,127.0,88.0,-36.0
127.0,126.0,127.0,127.0,127.0,127.0,113.0,128.0,28.0,-123.0,-65.0,127.0,127.0,127.0,127.0,88.0,-36.0
127.0,126.0,127.0,127.0,127.0,127.0,113.0,128.0,28.0,-123.0,-65.0,127.0,127.0,127.0,127.0,88.0,-36.0
127.0,126.0,127.0,127.0,127.0,127.0,113.0,128.0,28.0,-123.0,-65.0,127.0,127.0,127.0,127.0,88.0,-36.0
127.0,126.0,127.0,127.0,127.0,127.0,112.0,128.0,28.0,-123.0,-65.0,127.0,127.0,127.0,127.0,88.0,-36.0
127.0,126.0,127.0,127.0,127.0,127.0,112.0,128.0,28.0,-123.0,-65.0,127.0,127.0,127.0,127.0,88.0,-36.0
127.0,126.0,127.0,127.0,127.0,127.0,112.0,128.0,28.0,-123.0,-65.0,127.0,127.0,127.0,127.0,88.0,-36.0
127.0,126.0,127.0,127.0,127.0,127.0,113.0,128.0,28.0,-123.0,-65.0,127.0,127.0,127.0,127.0,88.0,-36.0
127.0,126.0,127.0,127.0,127.0,127.0,113.0,128.0,28.0,-123.0,-65.0,127.0,127.0,127.0,127.0,88.0,-36.0
127.0,127.0,128.0,128.0,127.0,127.0,106.0,128.0,28.0,-123.0,-65.0,127.0,127.0,127.0,127.0,88.0,-36.0
127.0,127.0,127.0,128.0,127.0,127.0,105.0,128.0,28.0,-123.0,-65.0,127.0,127.0,127.0,127.0,88.0,-36.0
127.0,127.0,127.0,128.0,127.0,127.0,106.0,128.0,28.0,-123.0,-65.0,127.0,127.0,127.0,127.0,88.0,-36.0
127.0,127.0,127.0,128.0,127.0,127.0,107.0,128.0,28.0,-123.0,-65.0,127.0,127.0,127.0,127.0,88.0,-36.0
127.0,127.0,127.0,128.0,127.0,127.0,107.0,128.0,28.0,-123.0,-65.0,127.0,127.0,127.0,127.0,88.0,-36.0
127.0,127.0,127.0,128.0,127.0,127.0,107.0,128.0,28.0,-123.0,-65.0,127.0,127.0,127.0,127.0,88.0,-36.0
127.0,127.0,127.0,128.0,127.0,127.0,107.0,128.0,28.0,-123.0,-65.0,127.0,127.0,127.0,127.0,88.0,-36.0
127.0,127.0,127.0,128.0,127.0,127.0,107.0,128.0,28.0,-123.0,-65.0,127.0,127.0,127.0,127.0,88.0,-36.0
127.0,127.0,127.0,128.0,127.0,127.0,106.0,128.0,28.0,-123.0,-65.0,127.0,127.0,127.0,127.0,88.0,-36.0
127.0,127.0,127.0,128.0,127.0,127.0,106.0,128.0,28.0,-123.0,-65.0,127.0,127.0,127.0,127.0,88.0,-36.0
126.0,127.0,127.0,127.0,126.0,127.0,113.0,128.0,29.0,-123.0,-65.0,127.0,127.0,127.0,127.0,88.0,-36.0
126.0,127.0,126.0,127.0,126.0,127.0,113.0,128.0,29.0,-123.0,-65.0,127.0,127.0,127.0,127.0,88.0,-36.0
126.0,127.0,127.0,127.0,126.0,127.0,113.0,128.0,29.0,-123.0,-65.0,127.0,127.0,127.0,127.0,88.0,-36.0
126.0,127.0,127.0,127.0,126.0,127.0,108.0,128.0,29.0,-123.0,-65.0,127.0,127.0,127.0,127.0,88.0,-36.0
126.0,127.0,127.0,127.0,126.0,127.0,106.0,128.0,29.0,-123.0,-65.0,127.0,127.0,127.0,127.0,88.0,-36.0
126.0,127.0,127.0,127.0,126.0,127.0,106.0,128.0,29.0,-123.0,-65.0,127.0,127.0,127.0,127.0,88.0,-36.0
126.0,127.0,127.0,127.0,126.0,127.0,106.0,128.0,29.0,-123.0,-65.0,127.0,127.0,127.0,127.0,88.0,-36.0
126.0,127.0,127.0,127.0,126.0,127.0,106.0,128.0,29.0,-123.0,-65.0,127.0,127.0,127.0,127.0,88.0,-36.0
126.0,127.0,127.0,127.0,126.0,127.0,108.0,128.0,29.0,-123.0,-65.0,127.0,127.0,127.0,127.0,88.0,-36.0
126.0,127.0,127.0,127.0,126.0,127.0,112.0,128.0,29.0,-123.0,-65.0,127.0,127.0,127.0,127.0,88.0,-36.0
127.0,127.0,127.0,127.0,127.0,127.0,106.0,128.0,29.0,-123.0,-65.0,127.0,127.0,127.0,127.0,88.0,-36.0
127.0,127.0,127.0,127.0,127.0,127.0,107.0,128.0,29.0,-123.0,-65.0,127.0,127.0,127.0,127.0,88.0,-36.0
126.0,127.0,127.0,127.0,127.0,128.0,106.0,128.0,29.0,-123.0,-65.0,127.0,127.0,127.0,127.0,88.0,-36.0
126.0,127.0,127.0,127.0,127.0,128.0,107.0,128.0,29.0,-123.0,-65.0,127.0,127.0,127.0,127.0,88.0,-36.0
126.0,127.0,127.0,127.0,127.0,127.0,106.0,128.0,29.0,-123.0,-65.0,127.0,127.0,127.0,127.0,88.0,-36.0
126.0,127.0,127.0,127.0,127.0,128.0,107.0,128.0,29.0,-123.0,-65.0,127.0,127.0,127.0,127.0,88.0,-36.0
126.0,127.0,127.0,127.0,127.0,128.0,107.0,128.0,29.0,-123.0,-65.0,127.0,127.0,127.0,127.0,88.0,-36.0
126.0,127.0,127.0,127.0,127.0,128.0,108.0,128.0,29.0,-123.0,-65.0,127.0,127.0,127.0,127.0,88.0,-36.0
126.0,127.0,127.0,127.0,127.0,128.0,107.0,128.0,29.0,-123.0,-65.0,127.0,127.0,127.0,127.0,88.0,-36.0
126.0,127.0,127.0,127.0,127.0,128.0,107.0,128.0,29.0,-123.0,-65.0,127.0,127.0,127.0,127.0,88.0,-36.0
127.0,127.0,127.0,127.0,127.0,127.0,106.0,128.0,30.0,-123.0,-65.0,127.0,127.0,127.0,127.0,88.0,-36.0
127.0,127.0,127.0,127.0,127.0,127.0,107.0,128.0,30.0,-123.0,-65.0,127.0,127.0,127.0,127.0,88.0,-36.0
127.0,127.0,127.0,127.0,127.0,127.0,109.0,128.0,30.0,-123.0,-65.0,127.0,127.0,127.0,127.0,88.0,-36.0
127.0,127.0,127.0,127.0,127.0,127.0,110.0,128.0,30.0,-123.0,-65.0,127.0,127.0,127.0,127.0,88.0,-36.0
127.0,127.0,127.0,127.0,127.0,127.0,112.0,128.0,30.0,-123.0,-65.0,127.0,127.0,127.0,127.0,88.0,-36.0
127.0,127.0,127.0,127.0,127.0,127.0,113.0,128.0,30.0,-123.0,-65.0,127.0,127.0,127.0,127.0,88.0,-36.0
127.0,127.0,127.0,127.0,127.0,127.0,113.0,128.0,30.0,-123.0,-65.0,127.0,127.0,127.0,127.0,88.0,-36.0
127.0,127.0,127.0,127.0,127.0,127.0,112.0,128.0,30.0,-123.0,-65.0,127.0,127.0,127.0,127.0,88.0,-36.0
127.0,127.0,127.0,127.0,127.0,127.0,113.0,128.0,30.0,-123.0,-65.0,127.0,127.0,127.0,127.0,88.0,-36.0
126.0,127.0,127.0,127.0,127.0,127.0,107.0,128.0,30.0,-123.0,-65.0,127.0,127.0,127.0,127.0,88.0,-36.0
126.0,127.0,127.0,127.0,127.0,127.0,110.0,128.0,30.0,-123.0,-65.0,127.0,127.0,127.0,127.0,88.0,-36.0
126.0,127.0,127.0,127.0,127.0,127.0,113.0,128.0,30.0,-123.0,-65.0,127.0,127.0,127.0,127.0,88.0,-36.0
126.0,127.0,127.0,127.0,127.0,127.0,114.0,128.0,30.0,-123.0,-65.0,127.0,127.0,127.0,127.0,88.0,-36.0
126.0,127.0,127.0,127.0,127.0,127.0,112.0,128.0,30.0,-123.0,-65.0,127.0,127.0,127.0,127.0,88.0,-36.0
126.0,127.0,127.0,127.0,127.0,127.0,107.0,128.0,30.0,-123.0,-65.0,127.0,127.0,127.0,127.0,88.0,-36.0
126.0,127.0,127.0,127.0,127.0,127.0,106.0,128.0,30.0,-123.0,-65.0,127.0,127.0,127.0,127.0,88.0,-36.0
126.0,127.0,127.0,127.0,127.0,127.0,106.0,128.0,30.0,-123.0,-65.0,127.0,127.0,127.0,127.0,88.0,-36.0
126.0,127.0,127.0,127.0,127.0,127.0,106.0,128.0,30.0,-123.0,-65.0,127.0,127.0,127.0,127.0,88.0,-36.0
126.0,127.0,127.0,127.0,127.0,127.0,107.0,128.0,30.0,-123.0,-65.0,127.0,127.0,127.0,127.0,88.0,-36.0
126.0,127.0,127.0,127.0,127.0,127.0,108.0,128.0,30.0,-123.0,-65.0,127.0,127.0,127.0,127.0,88.0,-36.0
126.0,127.0,127.0,127.0,127.0,127.0,106.0,128.0,31.0,-123.0,-65.0,127.0,127.0,127.0,127.0,88.0,-36.0
126.0,127.0,127.0,128.0,127.0,127.0,106.0,128.0,31.0,-123.0,-65.0,127.0,127.0,127.0,127.0,88.0,-36.0
126.0,127.0,127.0,128.0,127.0,127.0,106.0,128.0,31.0,-123.0,-65.0,127.0,127.0,127.0,127.0,88.0,-36.0
126.0,127.0,127.0,128.0,127.0,128.0,107.0,128.0,31.0,-123.0,-65.0,127.0,127.0,127.0,127.0,88.0,-36.0
126.0,127.0,127.0,128.0,127.0,128.0,106.0,128.0,31.0,-123.0,-65.0,127.0,127.0,127.0,127.0,88.0,-36.0
126.0,127.0,127.0,128.0,127.0,128.0,106.0,128.0,31.0,-123.0,-65.0,127.0,127.0,127.0,127.0,88.0,-36.0
126.0,127.0,127.0,128.0,127.0,127.0,106.0,128.0,31.0,-123.0,-65.0,127.0,127.0,127.0,127.0,88.0,-36.0
126.0,127.0,127.0,127.0,126.0,127.0,107.0,128.0,31.0,-123.0,-65.0,127.0,127.0,127.0,127.0,88.0,-36.0
126.0,127.0,127.0,127.0,126.0,127.0,106.0,128.0,31.0,-123.0,-65.0,127.0,127.0,127.0,127.0,88.0,-36.0
126.0,127.0,127.0,127.0,127.0,127.0,106.0,128.0,31.0,-123.0,-65.0,127.0,127.0,127.0,127.0,88.0,-36.0
127.0,126.0,125.0,123.0,125.0,126.0,111.0,127.0,31.0,-123.0,-65.0,127.0,127.0,127.0,127.0,88.0,-36.0
127.0,126.0,124.0,121.0,124.0,126.0,111.0,127.0,31.0,-123.0,-65.0,127.0,127.0,127.0,127.0,88.0,-36.0
126.0,126.0,124.0,119.0,124.0,126.0,112.0,127.0,31.0,-123.0,-65.0,127.0,127.0,127.0,127.0,88.0,-36.0
126.0,126.0,123.0,118.0,124.0,127.0,112.0,127.0,31.0,-123.0,-65.0,127.0,127.0,127.0,127.0,88.0,-36.0
127.0,126.0,123.0,116.0,124.0,126.0,113.0,127.0,31.0,-123.0,-65.0,127.0,127.0,127.0,127.0,88.0,-36.0
127.0,125.0,122.0,115.0,124.0,126.0,113.0,127.0,31.0,-123.0,-65.0,127.0,127.0,127.0,127.0,88.0,-36.0
127.0,126.0,125.0,128.0,125.0,126.0,112.0,127.0,31.0,-123.0,-65.0,127.0,127.0,127.0,127.0,88.0,-36.0
127.0,126.0,125.0,127.0,125.0,126.0,113.0,127.0,31.0,-123.0,-65.0,127.0,127.0,127.0,127.0,88.0,-36.0
127.0,126.0,125.0,126.0,125.0,126.0,112.0,127.0,31.0,-123.0,-65.0,127.0,127.0,127.0,127.0,88.0,-36.0
127.0,126.0,125.0,124.0,125.0,126.0,111.0,127.0,31.0,-123.0,-65.0,127.0,127.0,127.0,127.0,88.0,-36.0
126.0,126.0,137.0,134.0,127.0,125.0,111.0,126.0,31.0,-123.0,-65.0,127.0,127.0,127.0,127.0,88.0,-36.0
126.0,126.0,138.0,133.0,127.0,125.0,111.0,126.0,31.0,-123.0,-65.0,127.0,127.0,127.0,127.0,88.0,-36.0
126.0,127.0,139.0,133.0,127.0,125.0,110.0,126.0,31.0,-123.0,-65.0,127.0,127.0,127.0,127.0,88.0,-36.0
126.0,127.0,139.0,131.0,128.0,125.0,110.0,127.0,31.0,-123.0,-65.0,127.0,127.0,127.0,127.0,88.0,-36.0
127.0,127.0,139.0,129.0,128.0,125.0,111.0,127.0,31.0,-123.0,-65.0,127.0,127.0,127.0,127.0,88.0,-36.0
126.0,124.0,130.0,127.0,124.0,125.0,111.0,127.0,31.0,-123.0,-65.0,127.0,127.0,127.0,127.0,88.0,-36.0
126.0,124.0,132.0,130.0,125.0,125.0,111.0,127.0,31.0,-123.0,-65.0,127.0,127.0,127.0,127.0,88.0,-36.0
125.0,125.0,134.0,132.0,125.0,125.0,111.0,127.0,31.0,-123.0,-65.0,127.0,127.0,127.0,127.0,88.0,-36.0
125.0,125.0,135.0,133.0,126.0,125.0,111.0,126.0,31.0,-123.0,-65.0,127.0,127.0,127.0,127.0,88.0,-36.0
126.0,126.0,136.0,134.0,126.0,125.0,111.0,126.0,31.0,-123.0,-65.0,127.0,127.0,127.0,127.0,88.0,-36.0
129.0,130.0,157.0,127.0,132.0,127.0,109.0,135.0,31.0,-123.0,-65.0,127.0,127.0,127.0,127.0,88.0,-36.0
129.0,130.0,157.0,129.0,133.0,127.0,106.0,135.0,31.0,-123.0,-65.0,127.0,127.0,127.0,127.0,88.0,-36.0
128.0,130.0,156.0,131.0,133.0,127.0,106.0,135.0,31.0,-123.0,-65.0,127.0,127.0,127.0,127.0,88.0,-36.0
127.0,130.0,156.0,134.0,134.0,128.0,106.0,135.0,31.0,-123.0,-65.0,127.0,127.0,127.0,127.0,88.0,-36.0
132.0,128.0,155.0,128.0,127.0,125.0,111.0,133.0,31.0,-123.0,-65.0,127.0,127.0,127.0,127.0,88.0,-36.0
132.0,128.0,156.0,128.0,127.0,126.0,111.0,133.0,31.0,-123.0,-65.0,127.0,127.0,127.0,127.0,88.0,-36.0
131.0,128.0,157.0,128.0,128.0,126.0,111.0,134.0,31.0,-123.0,-65.0,127.0,127.0,127.0,127.0,88.0,-36.0
130.0,129.0,157.0,127.0,129.0,126.0,112.0,134.0,31.0,-123.0,-65.0,127.0,127.0,127.0,127.0,88.0,-36.0
129.0,129.0,157.0,127.0,130.0,127.0,112.0,135.0,31.0,-123.0,-65.0,127.0,127.0,127.0,127.0,88.0,-36.0
129.0,130.0,157.0,127.0,131.0,127.0,113.0,135.0,31.0,-123.0,-65.0,127.0,127.0,127.0,127.0,88.0,-36.0
108.0,130.0,119.0,162.0,132.0,125.0,111.0,150.0,31.0,-124.0,-64.0,127.0,127.0,127.0,127.0,88.0,-36.0
107.0,130.0,120.0,162.0,132.0,125.0,110.0,151.0,31.0,-124.0,-64.0,127.0,127.0,127.0,127.0,88.0,-36.0
106.0,130.0,121.0,162.0,132.0,124.0,108.0,152.0,31.0,-124.0,-64.0,127.0,127.0,127.0,127.0,88.0,-36.0
120.0,128.0,108.0,167.0,132.0,128.0,108.0,152.0,31.0,-124.0,-64.0,127.0,127.0,127.0,127.0,88.0,-36.0
119.0,129.0,109.0,167.0,132.0,128.0,107.0,151.0,31.0,-124.0,-64.0,127.0,127.0,127.0,127.0,88.0,-36.0
117.0,129.0,109.0,167.0,132.0,128.0,107.0,150.0,31.0,-124.0,-64.0,127.0,127.0,127.0,127.0,88.0,-36.0
116.0,129.0,109.0,167.0,132.0,127.0,107.0,150.0,31.0,-124.0,-64.0,127.0,127.0,127.0,127.0,88.0,-36.0
114.0,130.0,111.0,166.0,132.0,127.0,108.0,150.0,31.0,-124.0,-64.0,127.0,127.0,127.0,127.0,88.0,-36.0
112.0,130.0,113.0,164.0,132.0,127.0,112.0,150.0,31.0,-124.0,-64.0,127.0,127.0,127.0,127.0,88.0,-36.0
110.0,130.0,116.0,163.0,132.0,126.0,112.0,150.0,31.0,-124.0,-64.0,127.0,127.0,127.0,127.0,88.0,-36.0
120.0,124.0,93.0,182.0,132.0,94.0,86.0,172.0,31.0,-127.0,-64.0,127.0,127.0,127.0,127.0,88.0,-36.0
121.0,125.0,95.0,186.0,133.0,93.0,84.0,172.0,31.0,-127.0,-64.0,127.0,127.0,127.0,127.0,88.0,-36.0
117.0,124.0,74.0,146.0,130.0,103.0,89.0,179.0,31.0,-127.0,-64.0,127.0,127.0,127.0,127.0,88.0,-36.0
118.0,123.0,75.0,144.0,129.0,102.0,92.0,177.0,31.0,-127.0,-64.0,127.0,127.0,127.0,127.0,88.0,-36.0
118.0,123.0,76.0,145.0,128.0,101.0,91.0,176.0,31.0,-127.0,-64.0,127.0,127.0,127.0,127.0,88.0,-36.0
118.0,122.0,78.0,147.0,127.0,99.0,89.0,175.0,31.0,-127.0,-64.0,127.0,127.0,127.0,127.0,88.0,-36.0
118.0,122.0,80.0,153.0,127.0,98.0,86.0,174.0,31.0,-127.0,-64.0,127.0,127.0,127.0,127.0,88.0,-36.0
119.0,123.0,84.0,161.0,128.0,97.0,85.0,173.0,31.0,-127.0,-64.0,127.0,127.0,127.0,127.0,88.0,-36.0
119.0,123.0,87.0,170.0,129.0,96.0,83.0,172.0,31.0,-127.0,-64.0,127.0,127.0,127.0,127.0,88.0,-36.0
120.0,124.0,90.0,177.0,130.0,95.0,85.0,172.0,31.0,-127.0,-64.0,127.0,127.0,127.0,127.0,88.0,-36.0
134.0,130.0,130.0,252.0,123.0,0.0,22.0,121.0,31.0,-127.0,-66.0,-128.0,127.0,127.0,127.0,88.0,-36.0
135.0,125.0,119.0,236.0,127.0,47.0,53.0,125.0,31.0,-127.0,-66.0,-128.0,127.0,127.0,127.0,88.0,-36.0
135.0,125.0,118.0,234.0,126.0,42.0,50.0,125.0,31.0,-127.0,-66.0,-128.0,127.0,127.0,127.0,88.0,-36.0
135.0,125.0,117.0,232.0,124.0,36.0,48.0,124.0,31.0,-127.0,-66.0,-128.0,127.0,127.0,127.0,88.0,-36.0
135.0,125.0,118.0,233.0,122.0,30.0,44.0,124.0,31.0,-127.0,-66.0,-128.0,127.0,127.0,127.0,88.0,-36.0
135.0,126.0,118.0,234.0,122.0,24.0,40.0,123.0,31.0,-127.0,-66.0,-128.0,127.0,127.0,127.0,88.0,-36.0
134.0,126.0,120.0,238.0,121.0,17.0,36.0,123.0,31.0,-127.0,-66.0,-128.0,127.0,127.0,127.0,88.0,-36.0
134.0,127.0,122.0,241.0,121.0,10.0,32.0,122.0,31.0,-127.0,-66.0,-128.0,127.0,127.0,127.0,88.0,-36.0
134.0,128.0,125.0,245.0,122.0,2.0,28.0,122.0,31.0,-127.0,-66.0,-128.0,127.0,127.0,127.0,88.0,-36.0
134.0,129.0,128.0,249.0,122.0,0.0,23.0,121.0,31.0,-127.0,-66.0,-128.0,127.0,127.0,127.0,88.0,-36.0
126.0,138.0,170.0,193.0,128.0,0.0,22.0,130.0,35.0,-124.0,-62.0,-127.0,127.0,127.0,127.0,88.0,-36.0
126.0,138.0,171.0,190.0,128.0,0.0,22.0,131.0,35.0,-124.0,-62.0,-127.0,127.0,127.0,127.0,88.0,-36.0
126.0,138.0,172.0,188.0,128.0,0.0,22.0,131.0,35.0,-124.0,-62.0,-127.0,127.0,127.0,127.0,88.0,-36.0
126.0,137.0,175.0,186.0,128.0,0.0,22.0,131.0,35.0,-124.0,-62.0,-127.0,127.0,127.0,127.0,88.0,-36.0
126.0,137.0,178.0,185.0,128.0,0.0,22.0,132.0,35.0,-124.0,-62.0,-127.0,127.0,127.0,127.0,88.0,-36.0
126.0,136.0,180.0,184.0,127.0,0.0,22.0,132.0,35.0,-124.0,-62.0,-127.0,127.0,127.0,127.0,88.0,-36.0
126.0,136.0,180.0,183.0,127.0,0.0,22.0,132.0,35.0,-124.0,-62.0,-127.0,127.0,127.0,127.0,88.0,-36.0
126.0,136.0,179.0,184.0,126.0,0.0,22.0,131.0,35.0,-124.0,-62.0,-127.0,127.0,127.0,127.0,88.0,-36.0
126.0,135.0,179.0,185.0,125.0,0.0,22.0,131.0,35.0,-124.0,-62.0,-127.0,127.0,127.0,127.0,88.0,-36.0
126.0,135.0,180.0,187.0,125.0,0.0,22.0,129.0,35.0,-124.0,-62.0,-127.0,127.0,127.0,127.0,88.0,-36.0
131.0,129.0,155.0,211.0,124.0,0.0,22.0,129.0,35.0,-122.0,-64.0,-127.0,127.0,127.0,127.0,88.0,-36.0
131.0,129.0,154.0,209.0,125.0,0.0,22.0,130.0,35.0,-122.0,-64.0,-127.0,127.0,127.0,127.0,88.0,-36.0
131.0,129.0,153.0,205.0,126.0,0.0,22.0,130.0,35.0,-122.0,-64.0,-127.0,127.0,127.0,127.0,88.0,-36.0
132.0,129.0,152.0,202.0,126.0,0.0,22.0,130.0,35.0,-122.0,-64.0,-127.0,127.0,127.0,127.0,88.0,-36.0
132.0,129.0,150.0,198.0,126.0,0.0,22.0,129.0,35.0,-122.0,-64.0,-127.0,127.0,127.0,127.0,88.0,-36.0
133.0,130.0,147.0,195.0,126.0,0.0,22.0,129.0,35.0,-122.0,-64.0,-127.0,127.0,127.0,127.0,88.0,-36.0
133.0,130.0,145.0,193.0,126.0,0.0,22.0,129.0,35.0,-122.0,-64.0,-127.0,127.0,127.0,127.0,88.0,-36.0
133.0,131.0,143.0,191.0,126.0,0.0,22.0,129.0,35.0,-122.0,-64.0,-127.0,127.0,127.0,127.0,88.0,-36.0
134.0,132.0,141.0,189.0,125.0,0.0,22.0,129.0,35.0,-122.0,-64.0,-127.0,127.0,127.0,127.0,88.0,-36.0
130.0,128.0,157.0,212.0,123.0,0.0,22.0,128.0,35.0,-122.0,-64.0,-127.0,127.0,127.0,127.0,88.0,-36.0
129.0,126.0,127.0,117.0,128.0,0.0,22.0,136.0,29.0,-119.0,-66.0,-128.0,127.0,127.0,126.0,88.0,-36.0
129.0,126.0,127.0,117.0,128.0,0.0,22.0,136.0,29.0,-119.0,-66.0,-128.0,127.0,127.0,126.0,88.0,-36.0
129.0,125.0,127.0,118.0,127.0,0.0,22.0,135.0,29.0,-119.0,-66.0,-128.0,127.0,127.0,126.0,88.0,-36.0
129.0,125.0,127.0,118.0,127.0,0.0,22.0,135.0,29.0,-119.0,-66.0,-128.0,127.0,127.0,126.0,88.0,-36.0
130.0,124.0,127.0,118.0,127.0,0.0,22.0,133.0,29.0,-119.0,-66.0,-128.0,127.0,127.0,126.0,88.0,-36.0
130.0,124.0,127.0,118.0,127.0,0.0,22.0,132.0,29.0,-119.0,-66.0,-128.0,127.0,127.0,126.0,88.0,-36.0
130.0,124.0,126.0,118.0,127.0,0.0,22.0,129.0,29.0,-119.0,-66.0,-128.0,127.0,127.0,126.0,88.0,-36.0
130.0,123.0,126.0,118.0,127.0,0.0,22.0,126.0,29.0,-119.0,-66.0,-128.0,127.0,127.0,126.0,88.0,-36.0
129.0,125.0,127.0,117.0,128.0,0.0,22.0,135.0,29.0,-119.0,-66.0,-128.0,127.0,127.0,126.0,88.0,-36.0
129.0,126.0,127.0,116.0,128.0,0.0,22.0,135.0,29.0,-119.0,-66.0,-128.0,127.0,127.0,126.0,88.0,-36.0
128.0,123.0,129.0,89.0,127.0,0.0,22.0,134.0,27.0,-119.0,-68.0,-128.0,127.0,127.0,125.0,88.0,-36.0
128.0,123.0,131.0,90.0,127.0,0.0,22.0,134.0,27.0,-119.0,-68.0,-128.0,127.0,127.0,125.0,88.0,-36.0
129.0,123.0,133.0,90.0,126.0,0.0,23.0,134.0,27.0,-119.0,-68.0,-128.0,127.0,127.0,125.0,88.0,-36.0
129.0,123.0,134.0,89.0,126.0,0.0,23.0,133.0,27.0,-119.0,-68.0,-128.0,127.0,127.0,125.0,88.0,-36.0
129.0,123.0,135.0,90.0,125.0,1.0,24.0,132.0,27.0,-119.0,-68.0,-128.0,127.0,127.0,125.0,88.0,-36.0
129.0,122.0,136.0,90.0,125.0,2.0,25.0,131.0,27.0,-119.0,-68.0,-128.0,127.0,127.0,125.0,88.0,-36.0
129.0,122.0,136.0,92.0,125.0,3.0,26.0,130.0,27.0,-119.0,-68.0,-128.0,127.0,127.0,125.0,88.0,-36.0
127.0,124.0,127.0,91.0,128.0,0.0,22.0,134.0,27.0,-119.0,-68.0,-128.0,127.0,127.0,125.0,88.0,-36.0
127.0,124.0,128.0,89.0,127.0,0.0,22.0,134.0,27.0,-119.0,-68.0,-128.0,127.0,127.0,125.0,88.0,-36.0
127.0,123.0,128.0,89.0,127.0,0.0,22.0,134.0,27.0,-119.0,-68.0,-128.0,127.0,127.0,125.0,88.0,-36.0
128.0,125.0,133.0,85.0,121.0,48.0,50.0,128.0,23.0,-121.0,-68.0,-128.0,127.0,127.0,125.0,88.0,-36.0
127.0,125.0,132.0,85.0,120.0,47.0,51.0,125.0,23.0,-121.0,-68.0,-128.0,127.0,127.0,125.0,88.0,-36.0
127.0,126.0,132.0,84.0,120.0,47.0,52.0,123.0,23.0,-121.0,-68.0,-128.0,127.0,127.0,125.0,88.0,-36.0
126.0,127.0,133.0,84.0,121.0,47.0,53.0,121.0,23.0,-121.0,-68.0,-128.0,127.0,127.0,125.0,88.0,-36.0
126.0,128.0,133.0,84.0,122.0,48.0,50.0,119.0,23.0,-121.0,-68.0,-128.0,127.0,127.0,125.0,88.0,-36.0
126.0,128.0,133.0,84.0,123.0,48.0,50.0,117.0,23.0,-121.0,-68.0,-128.0,127.0,127.0,125.0,88.0,-36.0
129.0,126.0,134.0,95.0,123.0,48.0,51.0,132.0,23.0,-121.0,-68.0,-128.0,127.0,127.0,125.0,88.0,-36.0
129.0,126.0,134.0,92.0,122.0,48.0,51.0,132.0,23.0,-121.0,-68.0,-128.0,127.0,127.0,125.0,88.0,-36.0
128.0,125.0,134.0,89.0,122.0,48.0,51.0,131.0,23.0,-121.0,-68.0,-128.0,127.0,127.0,125.0,88.0,-36.0
128.0,125.0,133.0,87.0,121.0,48.0,51.0,130.0,23.0,-121.0,-68.0,-128.0,127.0,127.0,125.0,88.0,-36.0
127.0,128.0,132.0,108.0,126.0,21.0,38.0,128.0,25.0,-122.0,-66.0,-128.0,126.0,127.0,125.0,88.0,-36.0
127.0,128.0,132.0,110.0,127.0,20.0,37.0,127.0,25.0,-122.0,-66.0,-128.0,126.0,127.0,125.0,88.0,-36.0
127.0,128.0,132.0,112.0,126.0,19.0,36.0,126.0,25.0,-122.0,-66.0,-128.0,126.0,127.0,125.0,88.0,-36.0
126.0,128.0,132.0,112.0,126.0,19.0,35.0,126.0,25.0,-122.0,-66.0,-128.0,126.0,127.0,125.0,88.0,-36.0
125.0,128.0,133.0,112.0,125.0,18.0,34.0,125.0,25.0,-122.0,-66.0,-128.0,126.0,127.0,125.0,88.0,-36.0
127.0,125.0,126.0,93.0,125.0,23.0,40.0,129.0,25.0,-122.0,-66.0,-128.0,126.0,127.0,125.0,88.0,-36.0
127.0,125.0,128.0,96.0,125.0,22.0,40.0,129.0,25.0,-122.0,-66.0,-128.0,126.0,127.0,125.0,88.0,-36.0
127.0,126.0,130.0,100.0,125.0,22.0,39.0,129.0,25.0,-122.0,-66.0,-128.0,126.0,127.0,125.0,88.0,-36.0
127.0,126.0,131.0,104.0,126.0,21.0,39.0,129.0,25.0,-122.0,-66.0,-128.0,126.0,127.0,125.0,88.0,-36.0
127.0,127.0,132.0,106.0,126.0,21.0,38.0,128.0,25.0,-122.0,-66.0,-128.0,126.0,127.0,125.0,88.0,-36.0
121.0,124.0,106.0,111.0,125.0,39.0,48.0,128.0,28.0,-121.0,-65.0,127.0,126.0,127.0,125.0,88.0,-36.0
122.0,124.0,106.0,110.0,125.0,40.0,46.0,127.0,28.0,-121.0,-65.0,127.0,126.0,127.0,125.0,88.0,-36.0
122.0,125.0,105.0,109.0,126.0,42.0,48.0,127.0,28.0,-121.0,-65.0,127.0,126.0,127.0,125.0,88.0,-36.0
123.0,125.0,103.0,108.0,126.0,44.0,50.0,127.0,28.0,-121.0,-65.0,127.0,126.0,127.0,125.0,88.0,-36.0
124.0,122.0,104.0,114.0,125.0,29.0,42.0,130.0,28.0,-121.0,-65.0,127.0,126.0,127.0,125.0,88.0,-36.0
123.0,122.0,104.0,114.0,125.0,30.0,44.0,129.0,28.0,-121.0,-65.0,127.0,126.0,127.0,125.0,88.0,-36.0
122.0,122.0,104.0,114.0,125.0,32.0,42.0,129.0,28.0,-121.0,-65.0,127.0,126.0,127.0,125.0,88.0,-36.0
122.0,123.0,104.0,113.0,125.0,34.0,42.0,129.0,28.0,-121.0,-65.0,127.0,126.0,127.0,125.0,88.0,-36.0
122.0,123.0,105.0,113.0,125.0,35.0,44.0,128.0,28.0,-121.0,-65.0,127.0,126.0,127.0,125.0,88.0,-36.0
121.0,124.0,106.0,112.0,125.0,37.0,47.0,128.0,28.0,-121.0,-65.0,127.0,126.0,127.0,125.0,88.0,-36.0
126.0,127.0,106.0,105.0,127.0,85.0,79.0,131.0,30.0,-120.0,-64.0,127.0,127.0,127.0,125.0,88.0,-36.0
126.0,127.0,106.0,104.0,126.0,86.0,80.0,131.0,30.0,-120.0,-64.0,127.0,127.0,127.0,125.0,88.0,-36.0
126.0,127.0,106.0,103.0,126.0,87.0,80.0,131.0,30.0,-120.0,-64.0,127.0,127.0,127.0,125.0,88.0,-36.0
129.0,130.0,109.0,105.0,127.0,79.0,74.0,131.0,30.0,-120.0,-64.0,127.0,127.0,127.0,125.0,88.0,-36.0
128.0,131.0,107.0,105.0,127.0,80.0,71.0,131.0,30.0,-120.0,-64.0,127.0,127.0,127.0,125.0,88.0,-36.0
128.0,131.0,106.0,106.0,128.0,82.0,73.0,131.0,30.0,-120.0,-64.0,127.0,127.0,127.0,125.0,88.0,-36.0
127.0,130.0,106.0,106.0,127.0,83.0,74.0,131.0,30.0,-120.0,-64.0,127.0,127.0,127.0,125.0,88.0,-36.0
127.0,129.0,106.0,106.0,127.0,83.0,76.0,131.0,30.0,-120.0,-64.0,127.0,127.0,127.0,125.0,88.0,-36.0
127.0,128.0,106.0,106.0,127.0,84.0,77.0,131.0,30.0,-120.0,-64.0,127.0,127.0,127.0,125.0,88.0,-36.0
127.0,128.0,106.0,105.0,127.0,85.0,78.0,131.0,30.0,-120.0,-64.0,127.0,127.0,127.0,125.0,88.0,-36.0
127.0,125.0,116.0,99.0,127.0,137.0,115.0,129.0,31.0,-121.0,-64.0,127.0,127.0,127.0,125.0,88.0,-36.0
127.0,124.0,115.0,99.0,127.0,138.0,116.0,129.0,31.0,-121.0,-64.0,127.0,127.0,127.0,125.0,88.0,-36.0
127.0,126.0,119.0,100.0,129.0,128.0,108.0,130.0,31.0,-121.0,-64.0,127.0,127.0,127.0,125.0,88.0,-36.0
127.0,126.0,120.0,100.0,129.0,130.0,110.0,130.0,31.0,-121.0,-64.0,127.0,127.0,127.0,125.0,88.0,-36.0
127.0,126.0,119.0,100.0,129.0,132.0,112.0,130.0,31.0,-121.0,-64.0,127.0,127.0,127.0,125.0,88.0,-36.0
127.0,126.0,119.0,100.0,129.0,133.0,115.0,130.0,31.0,-121.0,-64.0,127.0,127.0,127.0,125.0,88.0,-36.0
127.0,126.0,118.0,100.0,129.0,134.0,117.0,129.0,31.0,-121.0,-64.0,127.0,127.0,127.0,125.0,88.0,-36.0
127.0,126.0,117.0,99.0,129.0,135.0,118.0,129.0,31.0,-121.0,-64.0,127.0,127.0,127.0,125.0,88.0,-36.0
127.0,125.0,117.0,99.0,128.0,135.0,115.0,129.0,31.0,-121.0,-64.0,127.0,127.0,127.0,125.0,88.0,-36.0
127.0,125.0,116.0,99.0,128.0,136.0,114.0,129.0,31.0,-121.0,-64.0,127.0,127.0,127.0,125.0,88.0,-36.0
128.0,126.0,118.0,98.0,125.0,171.0,142.0,127.0,29.0,-120.0,-63.0,-128.0,127.0,127.0,125.0,88.0,-36.0
128.0,126.0,118.0,97.0,125.0,171.0,143.0,127.0,29.0,-120.0,-63.0,-128.0,127.0,127.0,125.0,88.0,-36.0
128.0,125.0,118.0,97.0,124.0,171.0,143.0,127.0,29.0,-120.0,-63.0,-128.0,127.0,127.0,125.0,88.0,-36.0
127.0,126.0,118.0,97.0,124.0,172.0,144.0,128.0,29.0,-120.0,-63.0,-128.0,127.0,127.0,125.0,88.0,-36.0
127.0,125.0,118.0,98.0,124.0,173.0,145.0,128.0,29.0,-120.0,-63.0,-128.0,127.0,127.0,125.0,88.0,-36.0
127.0,125.0,118.0,99.0,124.0,173.0,146.0,128.0,29.0,-120.0,-63.0,-128.0,127.0,127.0,125.0,88.0,-36.0
127.0,125.0,118.0,99.0,124.0,173.0,146.0,128.0,29.0,-120.0,-63.0,-128.0,127.0,127.0,125.0,88.0,-36.0
127.0,125.0,118.0,100.0,124.0,174.0,146.0,128.0,29.0,-120.0,-63.0,-128.0,127.0,127.0,125.0,88.0,-36.0
127.0,125.0,119.0,101.0,124.0,174.0,147.0,128.0,29.0,-120.0,-63.0,-128.0,127.0,127.0,125.0,88.0,-36.0
127.0,125.0,119.0,102.0,124.0,174.0,147.0,127.0,29.0,-120.0,-63.0,-128.0,127.0,127.0,125.0,88.0,-36.0
127.0,125.0,123.0,111.0,131.0,181.0,151.0,128.0,29.0,-119.0,-63.0,127.0,126.0,127.0,125.0,88.0,-36.0
127.0,125.0,124.0,111.0,131.0,181.0,151.0,128.0,29.0,-119.0,-63.0,127.0,126.0,127.0,125.0,88.0,-36.0
127.0,125.0,124.0,110.0,131.0,182.0,152.0,128.0,29.0,-119.0,-63.0,127.0,126.0,127.0,125.0,88.0,-36.0
127.0,125.0,124.0,110.0,130.0,182.0,153.0,128.0,29.0,-119.0,-63.0,127.0,126.0,127.0,125.0,88.0,-36.0
127.0,125.0,124.0,110.0,129.0,182.0,153.0,128.0,29.0,-119.0,-63.0,127.0,126.0,127.0,125.0,88.0,-36.0
127.0,125.0,124.0,109.0,128.0,182.0,153.0,128.0,29.0,-119.0,-63.0,127.0,126.0,127.0,125.0,88.0,-36.0
127.0,125.0,124.0,108.0,127.0,182.0,152.0,128.0,29.0,-119.0,-63.0,127.0,126.0,127.0,125.0,88.0,-36.0
127.0,125.0,124.0,108.0,125.0,182.0,153.0,128.0,29.0,-119.0,-63.0,127.0,126.0,127.0,125.0,88.0,-36.0
127.0,125.0,124.0,107.0,124.0,182.0,152.0,128.0,29.0,-119.0,-63.0,127.0,126.0,127.0,125.0,88.0,-36.0
127.0,125.0,124.0,107.0,124.0,181.0,152.0,127.0,29.0,-119.0,-63.0,127.0,126.0,127.0,125.0,88.0,-36.0
126.0,125.0,127.0,109.0,128.0,174.0,148.0,127.0,30.0,-119.0,-62.0,127.0,127.0,127.0,125.0,88.0,-36.0
126.0,125.0,127.0,109.0,128.0,174.0,147.0,127.0,30.0,-119.0,-62.0,127.0,127.0,127.0,125.0,88.0,-36.0
126.0,125.0,127.0,109.0,128.0,174.0,147.0,127.0,30.0,-119.0,-62.0,127.0,127.0,127.0,125.0,88.0,-36.0
126.0,125.0,127.0,109.0,128.0,174.0,147.0,127.0,30.0,-119.0,-62.0,127.0,127.0,127.0,125.0,88.0,-36.0
126.0,125.0,127.0,109.0,128.0,173.0,146.0,127.0,30.0,-119.0,-62.0,127.0,127.0,127.0,125.0,88.0,-36.0
126.0,125.0,127.0,109.0,128.0,173.0,146.0,127.0,30.0,-119.0,-62.0,127.0,127.0,127.0,125.0,88.0,-36.0
126.0,125.0,127.0,109.0,128.0,173.0,146.0,127.0,30.0,-119.0,-62.0,127.0,127.0,127.0,125.0,88.0,-36.0
126.0,125.0,127.0,109.0,129.0,173.0,146.0,127.0,30.0,-119.0,-62.0,127.0,127.0,127.0,125.0,88.0,-36.0
126.0,126.0,128.0,109.0,129.0,174.0,146.0,127.0,30.0,-119.0,-62.0,127.0,127.0,127.0,125.0,88.0,-36.0
126.0,125.0,127.0,109.0,128.0,174.0,148.0,127.0,30.0,-119.0,-62.0,127.0,127.0,127.0,125.0,88.0,-36.0
127.0,126.0,128.0,103.0,128.0,171.0,142.0,126.0,31.0,-120.0,-62.0,127.0,127.0,127.0,125.0,88.0,-36.0
127.0,126.0,128.0,103.0,128.0,172.0,143.0,126.0,31.0,-120.0,-62.0,127.0,127.0,127.0,125.0,88.0,-36.0
127.0,126.0,128.0,103.0,127.0,172.0,144.0,126.0,31.0,-120.0,-62.0,127.0,127.0,127.0,125.0,88.0,-36.0
127.0,126.0,128.0,102.0,127.0,172.0,144.0,126.0,31.0,-120.0,-62.0,127.0,127.0,127.0,125.0,88.0,-36.0
127.0,126.0,128.0,102.0,127.0,172.0,144.0,126.0,31.0,-120.0,-62.0,127.0,127.0,127.0,125.0,88.0,-36.0
127.0,126.0,128.0,102.0,127.0,172.0,144.0,126.0,31.0,-120.0,-62.0,127.0,127.0,127.0,125.0,88.0,-36.0
128.0,126.0,127.0,101.0,127.0,172.0,144.0,126.0,31.0,-120.0,-62.0,127.0,127.0,127.0,125.0,88.0,-36.0
127.0,126.0,127.0,101.0,126.0,171.0,143.0,126.0,31.0,-120.0,-62.0,127.0,127.0,127.0,125.0,88.0,-36.0
127.0,126.0,128.0,104.0,128.0,171.0,142.0,126.0,31.0,-120.0,-62.0,127.0,127.0,127.0,125.0,88.0,-36.0
127.0,126.0,128.0,104.0,128.0,171.0,142.0,126.0,31.0,-120.0,-62.0,127.0,127.0,127.0,125.0,88.0,-36.0
127.0,126.0,121.0,87.0,127.0,173.0,145.0,125.0,31.0,-120.0,-62.0,127.0,127.0,127.0,125.0,88.0,-36.0
127.0,126.0,121.0,87.0,127.0,173.0,146.0,125.0,31.0,-120.0,-62.0,127.0,127.0,127.0,125.0,88.0,-36.0
127.0,126.0,121.0,87.0,126.0,173.0,145.0,125.0,31.0,-120.0,-62.0,127.0,127.0,127.0,125.0,88.0,-36.0
127.0,126.0,120.0,87.0,126.0,173.0,145.0,126.0,31.0,-120.0,-62.0,127.0,127.0,127.0,125.0,88.0,-36.0
127.0,126.0,120.0,87.0,126.0,173.0,145.0,125.0,31.0,-120.0,-62.0,127.0,127.0,127.0,125.0,88.0,-36.0
127.0,126.0,120.0,87.0,126.0,173.0,145.0,125.0,31.0,-120.0,-62.0,127.0,127.0,127.0,125.0,88.0,-36.0
128.0,126.0,120.0,87.0,126.0,172.0,144.0,126.0,31.0,-120.0,-62.0,127.0,127.0,127.0,125.0,88.0,-36.0
128.0,126.0,121.0,88.0,127.0,173.0,145.0,125.0,31.0,-120.0,-62.0,127.0,127.0,127.0,125.0,88.0,-36.0
127.0,126.0,121.0,87.0,127.0,173.0,145.0,125.0,31.0,-120.0,-62.0,127.0,127.0,127.0,125.0,88.0,-36.0
127.0,126.0,121.0,87.0,127.0,173.0,145.0,125.0,31.0,-120.0,-62.0,127.0,127.0,127.0,125.0,88.0,-36.0
127.0,126.0,119.0,91.0,126.0,173.0,144.0,124.0,31.0,-120.0,-63.0,127.0,127.0,127.0,125.0,88.0,-36.0
127.0,126.0,119.0,91.0,125.0,172.0,145.0,124.0,31.0,-120.0,-63.0,127.0,127.0,127.0,125.0,88.0,-36.0
127.0,126.0,119.0,91.0,126.0,173.0,145.0,124.0,31.0,-120.0,-63.0,127.0,127.0,127.0,125.0,88.0,-36.0
127.0,126.0,119.0,91.0,125.0,173.0,146.0,124.0,31.0,-120.0,-63.0,127.0,127.0,127.0,125.0,88.0,-36.0
127.0,126.0,119.0,92.0,125.0,173.0,146.0,124.0,31.0,-120.0,-63.0,127.0,127.0,127.0,125.0,88.0,-36.0
127.0,126.0,119.0,92.0,125.0,174.0,146.0,124.0,31.0,-120.0,-63.0,127.0,127.0,127.0,125.0,88.0,-36.0
127.0,126.0,119.0,90.0,126.0,171.0,143.0,125.0,31.0,-120.0,-63.0,127.0,127.0,127.0,125.0,88.0,-36.0
127.0,126.0,119.0,90.0,126.0,171.0,143.0,125.0,31.0,-120.0,-63.0,127.0,127.0,127.0,125.0,88.0,-36.0
127.0,126.0,119.0,90.0,126.0,171.0,143.0,124.0,31.0,-120.0,-63.0,127.0,127.0,127.0,125.0,88.0,-36.0
127.0,126.0,119.0,91.0,126.0,172.0,143.0,124.0,31.0,-120.0,-63.0,127.0,127.0,127.0,125.0,88.0,-36.0
127.0,126.0,121.0,103.0,126.0,182.0,152.0,123.0,31.0,-119.0,-64.0,127.0,127.0,127.0,125.0,88.0,-36.0
127.0,126.0,121.0,103.0,126.0,182.0,152.0,123.0,31.0,-119.0,-64.0,127.0,127.0,127.0,125.0,88.0,-36.0
127.0,126.0,121.0,103.0,126.0,182.0,152.0,123.0,31.0,-119.0,-64.0,127.0,127.0,127.0,125.0,88.0,-36.0
127.0,126.0,121.0,103.0,126.0,182.0,153.0,123.0,31.0,-119.0,-64.0,127.0,127.0,127.0,125.0,88.0,-36.0
127.0,126.0,121.0,104.0,126.0,182.0,153.0,123.0,31.0,-119.0,-64.0,127.0,127.0,127.0,125.0,88.0,-36.0
127.0,126.0,121.0,103.0,127.0,180.0,150.0,123.0,31.0,-119.0,-64.0,127.0,127.0,127.0,125.0,88.0,-36.0
127.0,126.0,121.0,103.0,127.0,180.0,150.0,123.0,31.0,-119.0,-64.0,127.0,127.0,127.0,125.0,88.0,-36.0
127.0,126.0,121.0,103.0,126.0,181.0,150.0,123.0,31.0,-119.0,-64.0,127.0,127.0,127.0,125.0,88.0,-36.0
127.0,126.0,121.0,103.0,126.0,181.0,151.0,123.0,31.0,-119.0,-64.0,127.0,127.0,127.0,125.0,88.0,-36.0
127.0,126.0,121.0,103.0,126.0,182.0,152.0,123.0,31.0,-119.0,-64.0,127.0,127.0,127.0,125.0,88.0,-36.0
127.0,126.0,103.0,110.0,125.0,208.0,163.0,125.0,31.0,-119.0,-64.0,127.0,127.0,127.0,125.0,88.0,-36.0
127.0,126.0,102.0,110.0,126.0,209.0,164.0,125.0,31.0,-119.0,-64.0,127.0,127.0,127.0,125.0,88.0,-36.0
127.0,126.0,102.0,111.0,126.0,209.0,165.0,125.0,31.0,-119.0,-64.0,127.0,127.0,127.0,125.0,88.0,-36.0
127.0,126.0,109.0,108.0,125.0,203.0,163.0,125.0,31.0,-119.0,-64.0,127.0,127.0,127.0,125.0,88.0,-36.0
127.0,126.0,109.0,109.0,125.0,204.0,164.0,125.0,31.0,-119.0,-64.0,127.0,127.0,127.0,125.0,88.0,-36.0
127.0,126.0,108.0,109.0,126.0,204.0,165.0,125.0,31.0,-119.0,-64.0,127.0,127.0,127.0,125.0,88.0,-36.0
127.0,126.0,107.0,109.0,126.0,205.0,166.0,125.0,31.0,-119.0,-64.0,127.0,127.0,127.0,125.0,88.0,-36.0
127.0,126.0,106.0,110.0,126.0,206.0,166.0,125.0,31.0,-119.0,-64.0,127.0,127.0,127.0,125.0,88.0,-36.0
127.0,126.0,105.0,110.0,126.0,207.0,166.0,125.0,31.0,-119.0,-64.0,127.0,127.0,127.0,125.0,88.0,-36.0
127.0,126.0,104.0,110.0,125.0,207.0,163.0,125.0,31.0,-119.0,-64.0,127.0,127.0,127.0,125.0,88.0,-36.0
127.0,127.0,68.0,119.0,126.0,221.0,175.0,125.0,30.0,-120.0,-64.0,127.0,127.0,127.0,125.0,88.0,-36.0
127.0,127.0,68.0,119.0,127.0,221.0,175.0,126.0,30.0,-120.0,-64.0,127.0,127.0,127.0,125.0,88.0,-36.0
127.0,126.0,71.0,117.0,126.0,217.0,169.0,125.0,30.0,-120.0,-64.0,127.0,127.0,127.0,125.0,88.0,-36.0
127.0,127.0,71.0,117.0,126.0,218.0,169.0,125.0,30.0,-120.0,-64.0,127.0,127.0,127.0,125.0,88.0,-36.0
127.0,127.0,70.0,118.0,126.0,218.0,171.0,125.0,30.0,-120.0,-64.0,127.0,127.0,127.0,125.0,88.0,-36.0
127.0,127.0,70.0,118.0,126.0,218.0,171.0,125.0,30.0,-120.0,-64.0,127.0,127.0,127.0,125.0,88.0,-36.0
127.0,126.0,70.0,118.0,126.0,219.0,171.0,125.0,30.0,-120.0,-64.0,127.0,127.0,127.0,125.0,88.0,-36.0
127.0,126.0,69.0,118.0,126.0,219.0,172.0,125.0,30.0,-120.0,-64.0,127.0,127.0,127.0,125.0,88.0,-36.0
127.0,126.0,69.0,118.0,126.0,220.0,173.0,125.0,30.0,-120.0,-64.0,127.0,127.0,127.0,125.0,88.0,-36.0
127.0,126.0,68.0,118.0,126.0,220.0,173.0,125.0,30.0,-120.0,-64.0,127.0,127.0,127.0,125.0,88.0,-36.0
127.0,126.0,83.0,119.0,126.0,218.0,171.0,126.0,30.0,-120.0,-64.0,127.0,127.0,127.0,125.0,88.0,-36.0
127.0,126.0,76.0,119.0,125.0,221.0,175.0,126.0,30.0,-120.0,-64.0,127.0,127.0,127.0,125.0,88.0,-36.0
127.0,126.0,77.0,119.0,125.0,220.0,175.0,126.0,30.0,-120.0,-64.0,127.0,127.0,127.0,125.0,88.0,-36.0
127.0,126.0,78.0,119.0,125.0,220.0,174.0,126.0,30.0,-120.0,-64.0,127.0,127.0,127.0,125.0,88.0,-36.0
127.0,126.0,78.0,119.0,125.0,220.0,174.0,126.0,30.0,-120.0,-64.0,127.0,127.0,127.0,125.0,88.0,-36.0
127.0,126.0,79.0,119.0,125.0,219.0,173.0,126.0,30.0,-120.0,-64.0,127.0,127.0,127.0,125.0,88.0,-36.0
127.0,126.0,80.0,119.0,125.0,219.0,172.0,126.0,30.0,-120.0,-64.0,127.0,127.0,127.0,125.0,88.0,-36.0
127.0,126.0,80.0,119.0,125.0,219.0,172.0,126.0,30.0,-120.0,-64.0,127.0,127.0,127.0,125.0,88.0,-36.0
127.0,126.0,81.0,119.0,125.0,219.0,172.0,126.0,30.0,-120.0,-64.0,127.0,127.0,127.0,125.0,88.0,-36.0
127.0,126.0,82.0,119.0,126.0,218.0,171.0,126.0,30.0,-120.0,-64.0,127.0,127.0,127.0,125.0,88.0,-36.0
127.0,127.0,106.0,119.0,126.0,205.0,165.0,126.0,29.0,-121.0,-64.0,127.0,127.0,127.0,125.0,88.0,-36.0
127.0,127.0,106.0,119.0,126.0,205.0,165.0,126.0,29.0,-121.0,-64.0,127.0,127.0,127.0,125.0,88.0,-36.0
127.0,127.0,107.0,119.0,126.0,205.0,165.0,126.0,29.0,-121.0,-64.0,127.0,127.0,127.0,125.0,88.0,-36.0
127.0,127.0,108.0,119.0,126.0,205.0,165.0,126.0,29.0,-121.0,-64.0,127.0,127.0,127.0,125.0,88.0,-36.0
127.0,127.0,109.0,119.0,126.0,204.0,165.0,126.0,29.0,-121.0,-64.0,127.0,127.0,127.0,125.0,88.0,-36.0
127.0,127.0,110.0,119.0,126.0,204.0,164.0,126.0,29.0,-121.0,-64.0,127.0,127.0,127.0,125.0,88.0,-36.0
127.0,127.0,110.0,119.0,126.0,204.0,164.0,126.0,29.0,-121.0,-64.0,127.0,127.0,127.0,125.0,88.0,-36.0
127.0,127.0,111.0,119.0,126.0,203.0,164.0,126.0,29.0,-121.0,-64.0,127.0,127.0,127.0,125.0,88.0,-36.0
127.0,127.0,112.0,119.0,126.0,204.0,164.0,126.0,29.0,-121.0,-64.0,127.0,127.0,127.0,125.0,88.0,-36.0
127.0,127.0,113.0,119.0,126.0,203.0,164.0,126.0,29.0,-121.0,-64.0,127.0,127.0,127.0,125.0,88.0,-36.0
127.0,127.0,149.0,121.0,127.0,195.0,157.0,125.0,29.0,-121.0,-63.0,127.0,127.0,127.0,125.0,88.0,-36.0
127.0,127.0,150.0,121.0,127.0,195.0,158.0,125.0,29.0,-121.0,-63.0,127.0,127.0,127.0,125.0,88.0,-36.0
127.0,127.0,150.0,121.0,127.0,195.0,158.0,125.0,29.0,-121.0,-63.0,127.0,127.0,127.0,125.0,88.0,-36.0
127.0,127.0,151.0,121.0,127.0,195.0,158.0,125.0,29.0,-121.0,-63.0,127.0,127.0,127.0,125.0,88.0,-36.0
127.0,127.0,151.0,121.0,127.0,196.0,159.0,125.0,29.0,-121.0,-63.0,127.0,127.0,127.0,125.0,88.0,-36.0
127.0,127.0,152.0,121.0,127.0,196.0,159.0,125.0,29.0,-121.0,-63.0,127.0,127.0,127.0,125.0,88.0,-36.0
127.0,127.0,152.0,121.0,127.0,196.0,159.0,125.0,29.0,-121.0,-63.0,127.0,127.0,127.0,125.0,88.0,-36.0
127.0,127.0,153.0,121.0,127.0,196.0,160.0,125.0,29.0,-121.0,-63.0,127.0,127.0,127.0,125.0,88.0,-36.0
127.0,127.0,153.0,121.0,127.0,196.0,160.0,125.0,29.0,-121.0,-63.0,127.0,127.0,127.0,125.0,88.0,-36.0
127.0,127.0,149.0,121.0,127.0,195.0,158.0,125.0,29.0,-121.0,-63.0,127.0,127.0,127.0,125.0,88.0,-36.0
127.0,127.0,160.0,123.0,127.0,189.0,156.0,125.0,29.0,-122.0,-63.0,127.0,127.0,127.0,125.0,88.0,-36.0
127.0,127.0,159.0,123.0,126.0,189.0,156.0,125.0,29.0,-122.0,-63.0,127.0,127.0,127.0,125.0,88.0,-36.0
127.0,127.0,159.0,123.0,126.0,189.0,156.0,125.0,29.0,-122.0,-63.0,127.0,127.0,127.0,125.0,88.0,-36.0
127.0,127.0,159.0,123.0,126.0,188.0,155.0,125.0,29.0,-122.0,-63.0,127.0,127.0,127.0,125.0,88.0,-36.0
127.0,127.0,159.0,123.0,126.0,188.0,155.0,125.0,29.0,-122.0,-63.0,127.0,127.0,127.0,125.0,88.0,-36.0
127.0,127.0,159.0,123.0,126.0,188.0,154.0,125.0,29.0,-122.0,-63.0,127.0,127.0,127.0,125.0,88.0,-36.0
127.0,127.0,159.0,123.0,126.0,188.0,154.0,125.0,29.0,-122.0,-63.0,127.0,127.0,127.0,125.0,88.0,-36.0
127.0,127.0,159.0,123.0,126.0,188.0,154.0,125.0,29.0,-122.0,-63.0,127.0,127.0,127.0,125.0,88.0,-36.0
127.0,127.0,158.0,123.0,126.0,188.0,154.0,125.0,29.0,-122.0,-63.0,127.0,127.0,127.0,125.0,88.0,-36.0
127.0,127.0,160.0,123.0,126.0,189.0,156.0,125.0,29.0,-122.0,-63.0,127.0,127.0,127.0,125.0,88.0,-36.0
127.0,127.0,153.0,126.0,127.0,179.0,148.0,126.0,29.0,-121.0,-63.0,127.0,127.0,127.0,125.0,88.0,-36.0
127.0,127.0,153.0,126.0,127.0,179.0,148.0,126.0,29.0,-121.0,-63.0,127.0,127.0,127.0,125.0,88.0,-36.0
127.0,127.0,152.0,126.0,127.0,179.0,148.0,126.0,29.0,-121.0,-63.0,127.0,127.0,127.0,125.0,88.0,-36.0
127.0,127.0,152.0,126.0,127.0,179.0,148.0,126.0,29.0,-121.0,-63.0,127.0,127.0,127.0,125.0,88.0,-36.0
127.0,127.0,152.0,126.0,127.0,179.0,147.0,126.0,29.0,-121.0,-63.0,127.0,127.0,127.0,125.0,88.0,-36.0
127.0,127.0,152.0,126.0,127.0,179.0,147.0,126.0,29.0,-121.0,-63.0,127.0,127.0,127.0,125.0,88.0,-36.0
127.0,127.0,152.0,126.0,127.0,178.0,147.0,126.0,29.0,-121.0,-63.0,127.0,127.0,127.0,125.0,88.0,-36.0
127.0,127.0,152.0,126.0,127.0,178.0,147.0,126.0,29.0,-121.0,-63.0,127.0,127.0,127.0,125.0,88.0,-36.0
127.0,127.0,153.0,126.0,127.0,179.0,148.0,126.0,29.0,-121.0,-63.0,127.0,127.0,127.0,125.0,88.0,-36.0
127.0,127.0,153.0,126.0,127.0,179.0,148.0,126.0,29.0,-121.0,-63.0,127.0,127.0,127.0,125.0,88.0,-36.0
127.0,127.0,148.0,128.0,127.0,173.0,145.0,126.0,28.0,-121.0,-63.0,127.0,127.0,127.0,125.0,88.0,-36.0
127.0,127.0,148.0,128.0,127.0,173.0,145.0,126.0,28.0,-121.0,-63.0,127.0,127.0,127.0,125.0,88.0,-36.0
127.0,127.0,148.0,128.0,127.0,173.0,145.0,126.0,28.0,-121.0,-63.0,127.0,127.0,127.0,125.0,88.0,-36.0
127.0,127.0,148.0,128.0,127.0,173.0,145.0,126.0,28.0,-121.0,-63.0,127.0,127.0,127.0,125.0,88.0,-36.0
127.0,127.0,148.0,128.0,127.0,172.0,144.0,126.0,28.0,-121.0,-63.0,127.0,127.0,127.0,125.0,88.0,-36.0
127.0,127.0,147.0,128.0,127.0,172.0,144.0,126.0,28.0,-121.0,-63.0,127.0,127.0,127.0,125.0,88.0,-36.0
127.0,127.0,149.0,128.0,127.0,174.0,148.0,126.0,28.0,-121.0,-63.0,127.0,127.0,127.0,125.0,88.0,-36.0
127.0,127.0,149.0,128.0,127.0,174.0,147.0,126.0,28.0,-121.0,-63.0,127.0,127.0,127.0,125.0,88.0,-36.0
127.0,127.0,148.0,128.0,127.0,173.0,146.0,126.0,28.0,-121.0,-63.0,127.0,127.0,127.0,125.0,88.0,-36.0
127.0,127.0,148.0,128.0,127.0,173.0,146.0,126.0,28.0,-121.0,-63.0,127.0,127.0,127.0,125.0,88.0,-36.0
127.0,127.0,142.0,129.0,128.0,163.0,137.0,127.0,28.0,-121.0,-63.0,127.0,127.0,127.0,125.0,88.0,-36.0
127.0,127.0,141.0,129.0,127.0,163.0,137.0,127.0,28.0,-121.0,-63.0,127.0,127.0,127.0,125.0,88.0,-36.0
127.0,128.0,141.0,129.0,127.0,163.0,137.0,127.0,28.0,-121.0,-63.0,127.0,127.0,127.0,125.0,88.0,-36.0
127.0,127.0,141.0,129.0,127.0,163.0,136.0,127.0,28.0,-121.0,-63.0,127.0,127.0,127.0,125.0,88.0,-36.0
127.0,127.0,141.0,129.0,127.0,162.0,136.0,127.0,28.0,-121.0,-63.0,127.0,127.0,127.0,125.0,88.0,-36.0
127.0,127.0,143.0,130.0,128.0,164.0,139.0,126.0,28.0,-121.0,-63.0,127.0,127.0,127.0,125.0,88.0,-36.0
127.0,128.0,143.0,129.0,128.0,164.0,138.0,127.0,28.0,-121.0,-63.0,127.0,127.0,127.0,125.0,88.0,-36.0
127.0,127.0,142.0,129.0,128.0,164.0,138.0,127.0,28.0,-121.0,-63.0,127.0,127.0,127.0,125.0,88.0,-36.0
127.0,127.0,142.0,129.0,128.0,163.0,138.0,126.0,28.0,-121.0,-63.0,127.0,127.0,127.0,125.0,88.0,-36.0
127.0,127.0,142.0,129.0,128.0,163.0,137.0,127.0,28.0,-121.0,-63.0,127.0,127.0,127.0,125.0,88.0,-36.0
127.0,126.0,135.0,128.0,127.0,156.0,133.0,127.0,29.0,-122.0,-63.0,126.0,127.0,127.0,125.0,88.0,-36.0
127.0,127.0,134.0,128.0,127.0,156.0,133.0,127.0,29.0,-122.0,-63.0,126.0,127.0,127.0,125.0,88.0,-36.0
127.0,127.0,134.0,128.0,127.0,156.0,132.0,127.0,29.0,-122.0,-63.0,126.0,127.0,127.0,125.0,88.0,-36.0
127.0,126.0,135.0,128.0,127.0,156.0,132.0,127.0,29.0,-122.0,-63.0,126.0,127.0,127.0,125.0,88.0,-36.0
127.0,127.0,136.0,128.0,127.0,157.0,134.0,126.0,29.0,-122.0,-63.0,126.0,127.0,127.0,125.0,88.0,-36.0
127.0,127.0,136.0,128.0,127.0,157.0,134.0,126.0,29.0,-122.0,-63.0,126.0,127.0,127.0,125.0,88.0,-36.0
127.0,126.0,135.0,128.0,127.0,156.0,133.0,126.0,29.0,-122.0,-63.0,126.0,127.0,127.0,125.0,88.0,-36.0
127.0,126.0,135.0,128.0,127.0,156.0,133.0,126.0,29.0,-122.0,-63.0,126.0,127.0,127.0,125.0,88.0,-36.0
127.0,126.0,135.0,128.0,127.0,156.0,133.0,126.0,29.0,-122.0,-63.0,126.0,127.0,127.0,125.0,88.0,-36.0
127.0,126.0,135.0,128.0,127.0,156.0,133.0,127.0,29.0,-122.0,-63.0,126.0,127.0,127.0,125.0,88.0,-36.0
127.0,127.0,135.0,130.0,128.0,146.0,124.0,127.0,30.0,-122.0,-63.0,126.0,127.0,127.0,125.0,88.0,-36.0
127.0,127.0,135.0,130.0,128.0,146.0,124.0,127.0,30.0,-122.0,-63.0,126.0,127.0,127.0,125.0,88.0,-36.0
127.0,127.0,135.0,130.0,128.0,146.0,123.0,127.0,30.0,-122.0,-63.0,126.0,127.0,127.0,125.0,88.0,-36.0
127.0,127.0,135.0,130.0,127.0,147.0,125.0,127.0,30.0,-122.0,-63.0,126.0,127.0,127.0,125.0,88.0,-36.0
127.0,127.0,135.0,130.0,127.0,147.0,125.0,127.0,30.0,-122.0,-63.0,126.0,127.0,127.0,125.0,88.0,-36.0
127.0,127.0,135.0,130.0,127.0,147.0,125.0,127.0,30.0,-122.0,-63.0,126.0,127.0,127.0,125.0,88.0,-36.0
127.0,127.0,135.0,130.0,127.0,147.0,124.0,127.0,30.0,-122.0,-63.0,126.0,127.0,127.0,125.0,88.0,-36.0
127.0,127.0,135.0,130.0,128.0,146.0,124.0,127.0,30.0,-122.0,-63.0,126.0,127.0,127.0,125.0,88.0,-36.0
127.0,127.0,135.0,130.0,127.0,146.0,124.0,127.0,30.0,-122.0,-63.0,126.0,127.0,127.0,125.0,88.0,-36.0
127.0,127.0,135.0,130.0,128.0,146.0,124.0,127.0,30.0,-122.0,-63.0,126.0,127.0,127.0,125.0,88.0,-36.0
126.0,127.0,133.0,131.0,127.0,137.0,116.0,127.0,31.0,-123.0,-63.0,126.0,127.0,127.0,125.0,88.0,-36.0
126.0,127.0,133.0,131.0,127.0,137.0,116.0,127.0,31.0,-123.0,-63.0,126.0,127.0,127.0,125.0,88.0,-36.0
126.0,127.0,135.0,130.0,126.0,138.0,118.0,127.0,31.0,-123.0,-63.0,126.0,127.0,127.0,125.0,88.0,-36.0
126.0,127.0,135.0,130.0,126.0,138.0,117.0,127.0,31.0,-123.0,-63.0,126.0,127.0,127.0,125.0,88.0,-36.0
126.0,127.0,135.0,130.0,127.0,138.0,117.0,127.0,31.0,-123.0,-63.0,126.0,127.0,127.0,125.0,88.0,-36.0
126.0,127.0,134.0,131.0,127.0,138.0,117.0,127.0,31.0,-123.0,-63.0,126.0,127.0,127.0,125.0,88.0,-36.0
126.0,127.0,134.0,131.0,127.0,138.0,117.0,127.0,31.0,-123.0,-63.0,126.0,127.0,127.0,125.0,88.0,-36.0
126.0,127.0,134.0,131.0,127.0,138.0,117.0,127.0,31.0,-123.0,-63.0,126.0,127.0,127.0,125.0,88.0,-36.0
126.0,127.0,134.0,131.0,127.0,138.0,116.0,127.0,31.0,-123.0,-63.0,126.0,127.0,127.0,125.0,88.0,-36.0
126.0,127.0,133.0,131.0,127.0,137.0,116.0,127.0,31.0,-123.0,-63.0,126.0,127.0,127.0,125.0,88.0,-36.0
127.0,127.0,129.0,130.0,127.0,134.0,117.0,127.0,32.0,-124.0,-62.0,127.0,127.0,127.0,125.0,88.0,-36.0
127.0,127.0,130.0,131.0,127.0,135.0,118.0,127.0,32.0,-124.0,-62.0,127.0,127.0,127.0,125.0,88.0,-36.0
127.0,127.0,130.0,130.0,127.0,134.0,118.0,127.0,32.0,-124.0,-62.0,127.0,127.0,127.0,125.0,88.0,-36.0
127.0,127.0,130.0,130.0,127.0,134.0,118.0,127.0,32.0,-124.0,-62.0,127.0,127.0,127.0,125.0,88.0,-36.0
127.0,127.0,130.0,130.0,127.0,134.0,119.0,127.0,32.0,-124.0,-62.0,127.0,127.0,127.0,125.0,88.0,-36.0
127.0,127.0,129.0,130.0,127.0,134.0,118.0,127.0,32.0,-124.0,-62.0,127.0,127.0,127.0,125.0,88.0,-36.0
127.0,127.0,129.0,130.0,127.0,134.0,118.0,127.0,32.0,-124.0,-62.0,127.0,127.0,127.0,125.0,88.0,-36.0
127.0,127.0,129.0,130.0,127.0,134.0,118.0,127.0,32.0,-124.0,-62.0,127.0,127.0,127.0,125.0,88.0,-36.0
127.0,127.0,129.0,130.0,127.0,134.0,118.0,127.0,32.0,-124.0,-62.0,127.0,127.0,127.0,125.0,88.0,-36.0
127.0,127.0,129.0,130.0,127.0,134.0,118.0,127.0,32.0,-124.0,-62.0,127.0,127.0,127.0,125.0,88.0,-36.0
127.0,127.0,127.0,129.0,126.0,131.0,113.0,126.0,33.0,-124.0,-62.0,127.0,127.0,127.0,125.0,88.0,-36.0
127.0,126.0,127.0,129.0,126.0,131.0,113.0,126.0,33.0,-124.0,-62.0,127.0,127.0,127.0,125.0,88.0,-36.0
127.0,126.0,127.0,129.0,126.0,131.0,113.0,126.0,33.0,-124.0,-62.0,127.0,127.0,127.0,125.0,88.0,-36.0
127.0,126.0,128.0,129.0,126.0,131.0,114.0,126.0,33.0,-124.0,-62.0,127.0,127.0,127.0,125.0,88.0,-36.0
127.0,126.0,128.0,129.0,126.0,131.0,114.0,126.0,33.0,-124.0,-62.0,127.0,127.0,127.0,125.0,88.0,-36.0
127.0,126.0,128.0,129.0,126.0,131.0,113.0,126.0,33.0,-124.0,-62.0,127.0,127.0,127.0,125.0,88.0,-36.0
127.0,126.0,128.0,129.0,126.0,131.0,113.0,126.0,33.0,-124.0,-62.0,127.0,127.0,127.0,125.0,88.0,-36.0
127.0,126.0,128.0,129.0,126.0,131.0,112.0,126.0,33.0,-124.0,-62.0,127.0,127.0,127.0,125.0,88.0,-36.0
127.0,126.0,128.0,129.0,126.0,131.0,112.0,126.0,33.0,-124.0,-62.0,127.0,127.0,127.0,125.0,88.0,-36.0
127.0,126.0,128.0,129.0,126.0,131.0,112.0,126.0,33.0,-124.0,-62.0,127.0,127.0,127.0,125.0,88.0,-36.0
126.0,127.0,128.0,129.0,127.0,130.0,112.0,127.0,34.0,-124.0,-62.0,127.0,127.0,127.0,125.0,88.0,-36.0
127.0,127.0,128.0,129.0,127.0,130.0,111.0,127.0,34.0,-124.0,-62.0,127.0,127.0,127.0,125.0,88.0,-36.0
126.0,127.0,128.0,129.0,127.0,130.0,111.0,126.0,34.0,-124.0,-62.0,127.0,127.0,127.0,125.0,88.0,-36.0
127.0,127.0,128.0,129.0,127.0,130.0,112.0,127.0,34.0,-124.0,-62.0,127.0,127.0,127.0,125.0,88.0,-36.0
127.0,127.0,128.0,129.0,127.0,130.0,111.0,127.0,34.0,-124.0,-62.0,127.0,127.0,127.0,125.0,88.0,-36.0
127.0,127.0,128.0,129.0,126.0,130.0,111.0,127.0,34.0,-124.0,-62.0,127.0,127.0,127.0,125.0,88.0,-36.0
127.0,127.0,128.0,129.0,126.0,130.0,111.0,126.0,34.0,-124.0,-62.0,127.0,127.0,127.0,125.0,88.0,-36.0
127.0,127.0,128.0,129.0,126.0,130.0,111.0,126.0,34.0,-124.0,-62.0,127.0,127.0,127.0,125.0,88.0,-36.0
127.0,127.0,128.0,129.0,126.0,130.0,111.0,126.0,34.0,-124.0,-62.0,127.0,127.0,127.0,125.0,88.0,-36.0
126.0,127.0,128.0,130.0,127.0,130.0,111.0,126.0,34.0,-124.0,-62.0,127.0,127.0,127.0,125.0,88.0,-36.0
126.0,127.0,128.0,129.0,127.0,129.0,109.0,126.0,35.0,-123.0,-62.0,127.0,127.0,127.0,125.0,88.0,-36.0
126.0,127.0,128.0,129.0,127.0,129.0,109.0,126.0,35.0,-123.0,-62.0,127.0,127.0,127.0,125.0,88.0,-36.0
126.0,127.0,128.0,129.0,127.0,130.0,110.0,127.0,35.0,-123.0,-62.0,127.0,127.0,127.0,125.0,88.0,-36.0
126.0,127.0,128.0,129.0,127.0,130.0,110.0,127.0,35.0,-123.0,-62.0,127.0,127.0,127.0,125.0,88.0,-36.0
126.0,127.0,128.0,129.0,127.0,129.0,110.0,127.0,35.0,-123.0,-62.0,127.0,127.0,127.0,125.0,88.0,-36.0
126.0,127.0,128.0,128.0,126.0,129.0,110.0,126.0,35.0,-123.0,-62.0,127.0,127.0,127.0,125.0,88.0,-36.0
126.0,127.0,127.0,128.0,126.0,129.0,110.0,127.0,35.0,-123.0,-62.0,127.0,127.0,127.0,125.0,88.0,-36.0
127.0,126.0,127.0,128.0,126.0,129.0,110.0,127.0,35.0,-123.0,-62.0,127.0,127.0,127.0,125.0,88.0,-36.0
126.0,127.0,128.0,129.0,127.0,129.0,110.0,126.0,35.0,-123.0,-62.0,127.0,127.0,127.0,125.0,88.0,-36.0
127.0,127.0,128.0,129.0,127.0,129.0,109.0,126.0,35.0,-123.0,-62.0,127.0,127.0,127.0,125.0,88.0,-36.0
127.0,127.0,126.0,130.0,127.0,128.0,108.0,126.0,35.0,-123.0,-62.0,127.0,127.0,127.0,125.0,88.0,-36.0
126.0,127.0,126.0,130.0,127.0,129.0,108.0,126.0,35.0,-123.0,-62.0,127.0,127.0,127.0,125.0,88.0,-36.0
126.0,127.0,126.0,130.0,127.0,129.0,109.0,127.0,35.0,-123.0,-62.0,127.0,127.0,127.0,125.0,88.0,-36.0
127.0,127.0,126.0,130.0,127.0,129.0,108.0,127.0,35.0,-123.0,-62.0,127.0,127.0,127.0,125.0,88.0,-36.0
126.0,127.0,126.0,129.0,127.0,129.0,109.0,127.0,35.0,-123.0,-62.0,127.0,127.0,127.0,125.0,88.0,-36.0
126.0,127.0,126.0,129.0,127.0,129.0,109.0,127.0,35.0,-123.0,-62.0,127.0,127.0,127.0,125.0,88.0,-36.0
126.0,127.0,126.0,130.0,127.0,129.0,109.0,127.0,35.0,-123.0,-62.0,127.0,127.0,127.0,125.0,88.0,-36.0
127.0,127.0,127.0,130.0,127.0,128.0,108.0,126.0,35.0,-123.0,-62.0,127.0,127.0,127.0,125.0,88.0,-36.0
127.0,127.0,127.0,130.0,127.0,128.0,108.0,126.0,35.0,-123.0,-62.0,127.0,127.0,127.0,125.0,88.0,-36.0
127.0,127.0,126.0,130.0,127.0,128.0,108.0,126.0,35.0,-123.0,-62.0,127.0,127.0,127.0,125.0,88.0,-36.0
126.0,127.0,127.0,129.0,127.0,128.0,108.0,127.0,35.0,-124.0,-62.0,127.0,127.0,127.0,125.0,88.0,-36.0
126.0,127.0,127.0,129.0,127.0,128.0,108.0,127.0,35.0,-124.0,-62.0,127.0,127.0,127.0,125.0,88.0,-36.0
126.0,127.0,127.0,129.0,127.0,128.0,108.0,127.0,35.0,-124.0,-62.0,127.0,127.0,127.0,125.0,88.0,-36.0
126.0,127.0,127.0,129.0,127.0,128.0,108.0,127.0,35.0,-124.0,-62.0,127.0,127.0,127.0,125.0,88.0,-36.0
126.0,127.0,127.0,129.0,127.0,128.0,108.0,127.0,35.0,-124.0,-62.0,127.0,127.0,127.0,125.0,88.0,-36.0
126.0,127.0,127.0,129.0,127.0,128.0,108.0,127.0,35.0,-124.0,-62.0,127.0,127.0,127.0,125.0,88.0,-36.0
126.0,127.0,127.0,129.0,127.0,128.0,107.0,127.0,35.0,-124.0,-62.0,127.0,127.0,127.0,125.0,88.0,-36.0
126.0,127.0,127.0,129.0,127.0,128.0,107.0,127.0,35.0,-124.0,-62.0,127.0,127.0,127.0,125.0,88.0,-36.0
126.0,127.0,127.0,129.0,127.0,128.0,108.0,127.0,35.0,-124.0,-62.0,127.0,127.0,127.0,125.0,88.0,-36.0
126.0,127.0,127.0,129.0,127.0,128.0,108.0,126.0,35.0,-124.0,-62.0,127.0,127.0,127.0,125.0,88.0,-36.0
126.0,127.0,127.0,129.0,127.0,128.0,107.0,127.0,35.0,-124.0,-62.0,127.0,127.0,127.0,125.0,88.0,-36.0
126.0,127.0,127.0,129.0,127.0,128.0,108.0,127.0,35.0,-124.0,-62.0,127.0,127.0,127.0,125.0,88.0,-36.0
126.0,127.0,127.0,129.0,127.0,128.0,107.0,127.0,35.0,-124.0,-62.0,127.0,127.0,127.0,125.0,88.0,-36.0
126.0,127.0,127.0,129.0,127.0,128.0,108.0,127.0,35.0,-124.0,-62.0,127.0,127.0,127.0,125.0,88.0,-36.0
126.0,127.0,127.0,129.0,127.0,128.0,108.0,127.0,35.0,-124.0,-62.0,127.0,127.0,127.0,125.0,88.0,-36.0
126.0,127.0,127.0,129.0,127.0,127.0,107.0,127.0,35.0,-124.0,-62.0,127.0,127.0,127.0,125.0,88.0,-36.0
126.0,127.0,127.0,129.0,127.0,128.0,107.0,127.0,35.0,-124.0,-62.0,127.0,127.0,127.0,125.0,88.0,-36.0
126.0,127.0,127.0,129.0,127.0,128.0,107.0,127.0,35.0,-124.0,-62.0,127.0,127.0,127.0,125.0,88.0,-36.0
126.0,127.0,127.0,129.0,127.0,128.0,107.0,127.0,35.0,-124.0,-62.0,127.0,127.0,127.0,125.0,88.0,-36.0
126.0,127.0,127.0,129.0,127.0,128.0,108.0,127.0,35.0,-124.0,-62.0,127.0,127.0,127.0,125.0,88.0,-36.0
127.0,126.0,127.0,129.0,126.0,127.0,106.0,127.0,34.0,-124.0,-62.0,127.0,127.0,127.0,125.0,88.0,-36.0
127.0,126.0,127.0,129.0,126.0,127.0,106.0,127.0,34.0,-124.0,-62.0,127.0,127.0,127.0,125.0,88.0,-36.0
127.0,126.0,127.0,129.0,126.0,127.0,106.0,127.0,34.0,-124.0,-62.0,127.0,127.0,127.0,125.0,88.0,-36.0
127.0,126.0,127.0,129.0,126.0,127.0,106.0,127.0,34.0,-124.0,-62.0,127.0,127.0,127.0,125.0,88.0,-36.0
127.0,127.0,127.0,129.0,127.0,127.0,107.0,127.0,34.0,-124.0,-62.0,127.0,127.0,127.0,125.0,88.0,-36.0
127.0,127.0,127.0,130.0,126.0,127.0,107.0,127.0,34.0,-124.0,-62.0,127.0,127.0,127.0,125.0,88.0,-36.0
127.0,127.0,127.0,129.0,126.0,127.0,107.0,127.0,34.0,-124.0,-62.0,127.0,127.0,127.0,125.0,88.0,-36.0
127.0,127.0,127.0,129.0,126.0,127.0,106.0,127.0,34.0,-124.0,-62.0,127.0,127.0,127.0,125.0,88.0,-36.0
127.0,126.0,127.0,129.0,126.0,127.0,106.0,127.0,34.0,-124.0,-62.0,127.0,127.0,127.0,125.0,88.0,-36.0
127.0,126.0,127.0,129.0,126.0,127.0,106.0,127.0,34.0,-124.0,-62.0,127.0,127.0,127.0,125.0,88.0,-36.0
127.0,127.0,127.0,129.0,127.0,127.0,106.0,127.0,33.0,-124.0,-62.0,127.0,127.0,127.0,125.0,88.0,-36.0
127.0,127.0,127.0,129.0,127.0,128.0,107.0,127.0,33.0,-124.0,-62.0,127.0,127.0,127.0,125.0,88.0,-36.0
127.0,127.0,127.0,129.0,127.0,128.0,107.0,127.0,33.0,-124.0,-62.0,127.0,127.0,127.0,125.0,88.0,-36.0
127.0,127.0,127.0,129.0,126.0,127.0,113.0,127.0,33.0,-124.0,-62.0,127.0,127.0,127.0,125.0,88.0,-36.0
127.0,127.0,127.0,129.0,126.0,127.0,111.0,127.0,33.0,-124.0,-62.0,127.0,127.0,127.0,125.0,88.0,-36.0
127.0,127.0,127.0,129.0,126.0,127.0,107.0,127.0,33.0,-124.0,-62.0,127.0,127.0,127.0,125.0,88.0,-36.0
127.0,127.0,127.0,129.0,126.0,128.0,106.0,127.0,33.0,-124.0,-62.0,127.0,127.0,127.0,125.0,88.0,-36.0
127.0,127.0,127.0,129.0,127.0,127.0,106.0,127.0,33.0,-124.0,-62.0,127.0,127.0,127.0,125.0,88.0,-36.0
127.0,127.0,127.0,129.0,127.0,127.0,106.0,127.0,33.0,-124.0,-62.0,127.0,127.0,127.0,125.0,88.0,-36.0
127.0,127.0,127.0,129.0,127.0,127.0,106.0,127.0,33.0,-124.0,-62.0,127.0,127.0,127.0,125.0,88.0,-36.0
126.0,127.0,126.0,128.0,127.0,127.0,106.0,127.0,32.0,-124.0,-62.0,127.0,127.0,127.0,125.0,88.0,-36.0
126.0,127.0,126.0,129.0,127.0,128.0,106.0,127.0,32.0,-124.0,-62.0,127.0,127.0,127.0,125.0,88.0,-36.0
127.0,126.0,126.0,128.0,126.0,127.0,113.0,127.0,32.0,-124.0,-62.0,127.0,127.0,127.0,125.0,88.0,-36.0
126.0,126.0,126.0,128.0,126.0,127.0,113.0,127.0,32.0,-124.0,-62.0,127.0,127.0,127.0,125.0,88.0,-36.0
126.0,127.0,126.0,128.0,127.0,127.0,108.0,127.0,32.0,-124.0,-62.0,127.0,127.0,127.0,125.0,88.0,-36.0
126.0,127.0,126.0,128.0,127.0,127.0,107.0,127.0,32.0,-124.0,-62.0,127.0,127.0,127.0,125.0,88.0,-36.0
126.0,126.0,126.0,128.0,127.0,127.0,107.0,127.0,32.0,-124.0,-62.0,127.0,127.0,127.0,125.0,88.0,-36.0
126.0,126.0,126.0,128.0,127.0,127.0,106.0,127.0,32.0,-124.0,-62.0,127.0,127.0,127.0,125.0,88.0,-36.0
126.0,126.0,126.0,128.0,126.0,127.0,106.0,127.0,32.0,-124.0,-62.0,127.0,127.0,127.0,125.0,88.0,-36.0
126.0,126.0,126.0,128.0,126.0,127.0,106.0,127.0,32.0,-124.0,-62.0,127.0,127.0,127.0,125.0,88.0,-36.0
126.0,127.0,126.0,128.0,126.0,128.0,108.0,127.0,31.0,-124.0,-62.0,127.0,127.0,127.0,125.0,88.0,-36.0
126.0,127.0,125.0,129.0,127.0,128.0,107.0,127.0,31.0,-124.0,-62.0,127.0,127.0,127.0,125.0,88.0,-36.0
126.0,127.0,125.0,129.0,127.0,127.0,106.0,127.0,31.0,-124.0,-62.0,127.0,127.0,127.0,125.0,88.0,-36.0
126.0,127.0,126.0,129.0,127.0,128.0,107.0,127.0,31.0,-124.0,-62.0,127.0,127.0,127.0,125.0,88.0,-36.0
126.0,127.0,126.0,129.0,127.0,128.0,107.0,127.0,31.0,-124.0,-62.0,127.0,127.0,127.0,125.0,88.0,-36.0
126.0,127.0,126.0,128.0,126.0,128.0,107.0,127.0,31.0,-124.0,-62.0,127.0,127.0,127.0,125.0,88.0,-36.0
126.0,127.0,126.0,128.0,126.0,128.0,107.0,127.0,31.0,-124.0,-62.0,127.0,127.0,127.0,125.0,88.0,-36.0
126.0,127.0,126.0,128.0,126.0,128.0,107.0,127.0,31.0,-124.0,-62.0,127.0,127.0,127.0,125.0,88.0,-36.0
126.0,127.0,126.0,128.0,126.0,128.0,107.0,127.0,31.0,-124.0,-62.0,127.0,127.0,127.0,125.0,88.0,-36.0
126.0,127.0,126.0,128.0,126.0,128.0,107.0,127.0,31.0,-124.0,-62.0,127.0,127.0,127.0,125.0,88.0,-36.0
127.0,127.0,126.0,128.0,127.0,127.0,108.0,127.0,30.0,-124.0,-62.0,127.0,127.0,127.0,125.0,88.0,-36.0
127.0,127.0,127.0,128.0,127.0,127.0,108.0,127.0,30.0,-124.0,-62.0,127.0,127.0,127.0,125.0,88.0,-36.0
127.0,127.0,127.0,128.0,127.0,127.0,111.0,127.0,30.0,-124.0,-62.0,127.0,127.0,127.0,125.0,88.0,-36.0
127.0,127.0,126.0,128.0,127.0,127.0,112.0,127.0,30.0,-124.0,-62.0,127.0,127.0,127.0,125.0,88.0,-36.0
127.0,127.0,126.0,128.0,127.0,127.0,113.0,127.0,30.0,-124.0,-62.0,127.0,127.0,127.0,125.0,88.0,-36.0
127.0,126.0,126.0,128.0,127.0,127.0,110.0,127.0,30.0,-124.0,-62.0,127.0,127.0,127.0,125.0,88.0,-36.0
127.0,127.0,126.0,128.0,127.0,127.0,107.0,127.0,30.0,-124.0,-62.0,127.0,127.0,127.0,125.0,88.0,-36.0
127.0,127.0,126.0,128.0,127.0,127.0,107.0,127.0,30.0,-124.0,-62.0,127.0,127.0,127.0,125.0,88.0,-36.0
126.0,127.0,126.0,128.0,127.0,127.0,106.0,127.0,30.0,-124.0,-62.0,127.0,127.0,127.0,125.0,88.0,-36.0
127.0,127.0,126.0,128.0,127.0,128.0,107.0,127.0,30.0,-124.0,-62.0,127.0,127.0,127.0,125.0,88.0,-36.0
127.0,127.0,126.0,128.0,127.0,127.0,106.0,127.0,30.0,-124.0,-62.0,127.0,127.0,127.0,125.0,88.0,-36.0
127.0,127.0,126.0,128.0,127.0,127.0,106.0,127.0,30.0,-124.0,-62.0,127.0,127.0,127.0,125.0,88.0,-36.0
127.0,127.0,126.0,128.0,127.0,127.0,106.0,127.0,30.0,-124.0,-62.0,127.0,127.0,127.0,125.0,88.0,-36.0
127.0,127.0,126.0,128.0,127.0,127.0,106.0,127.0,30.0,-124.0,-62.0,127.0,127.0,127.0,125.0,88.0,-36.0
127.0,127.0,126.0,128.0,127.0,127.0,106.0,127.0,30.0,-124.0,-62.0,127.0,127.0,127.0,125.0,88.0,-36.0
127.0,127.0,126.0,128.0,127.0,127.0,108.0,127.0,30.0,-124.0,-62.0,127.0,127.0,127.0,125.0,88.0,-36.0
127.0,127.0,126.0,128.0,127.0,127.0,110.0,127.0,30.0,-124.0,-62.0,127.0,127.0,127.0,125.0,88.0,-36.0
127.0,127.0,126.0,128.0,127.0,127.0,113.0,127.0,30.0,-124.0,-62.0,127.0,127.0,127.0,125.0,88.0,-36.0
127.0,127.0,126.0,128.0,127.0,127.0,113.0,127.0,30.0,-124.0,-62.0,127.0,127.0,127.0,125.0,88.0,-36.0
126.0,127.0,126.0,128.0,127.0,127.0,108.0,127.0,30.0,-124.0,-62.0,127.0,127.0,127.0,125.0,88.0,-36.0
126.0,127.0,127.0,128.0,127.0,127.0,106.0,127.0,29.0,-124.0,-62.0,127.0,127.0,127.0,125.0,88.0,-36.0
126.0,127.0,127.0,128.0,127.0,127.0,106.0,127.0,29.0,-124.0,-62.0,127.0,127.0,127.0,125.0,88.0,-36.0
127.0,127.0,127.0,128.0,127.0,127.0,106.0,127.0,29.0,-124.0,-62.0,127.0,127.0,127.0,125.0,88.0,-36.0
127.0,127.0,127.0,128.0,127.0,127.0,106.0,127.0,29.0,-124.0,-62.0,127.0,127.0,127.0,125.0,88.0,-36.0
127.0,126.0,127.0,128.0,127.0,127.0,107.0,127.0,29.0,-124.0,-62.0,127.0,127.0,127.0,125.0,88.0,-36.0
127.0,126.0,127.0,128.0,127.0,127.0,106.0,127.0,29.0,-124.0,-62.0,127.0,127.0,127.0,125.0,88.0,-36.0
127.0,126.0,127.0,128.0,127.0,127.0,106.0,127.0,29.0,-124.0,-62.0,127.0,127.0,127.0,125.0,88.0,-36.0
127.0,126.0,127.0,128.0,127.0,127.0,106.0,127.0,29.0,-124.0,-62.0,127.0,127.0,127.0,125.0,88.0,-36.0
127.0,126.0,127.0,128.0,127.0,127.0,107.0,127.0,29.0,-124.0,-62.0,127.0,127.0,127.0,125.0,88.0,-36.0
126.0,127.0,127.0,128.0,127.0,127.0,106.0,127.0,29.0,-124.0,-62.0,127.0,127.0,127.0,125.0,88.0,-36.0
126.0,127.0,127.0,128.0,127.0,127.0,106.0,127.0,29.0,-125.0,-62.0,127.0,127.0,127.0,125.0,88.0,-36.0
126.0,127.0,127.0,128.0,127.0,127.0,107.0,127.0,29.0,-125.0,-62.0,127.0,127.0,127.0,125.0,88.0,-36.0
126.0,127.0,127.0,128.0,127.0,127.0,107.0,127.0,29.0,-125.0,-62.0,127.0,127.0,127.0,125.0,88.0,-36.0
126.0,127.0,127.0,128.0,127.0,127.0,106.0,127.0,29.0,-125.0,-62.0,127.0,127.0,127.0,125.0,88.0,-36.0
126.0,127.0,127.0,128.0,127.0,127.0,106.0,127.0,29.0,-125.0,-62.0,127.0,127.0,127.0,125.0,88.0,-36.0
126.0,127.0,127.0,128.0,127.0,127.0,107.0,127.0,29.0,-125.0,-62.0,127.0,127.0,127.0,125.0,88.0,-36.0
126.0,126.0,127.0,128.0,127.0,127.0,112.0,127.0,29.0,-125.0,-62.0,127.0,127.0,127.0,125.0,88.0,-36.0
126.0,127.0,127.0,128.0,127.0,128.0,107.0,127.0,29.0,-125.0,-62.0,127.0,127.0,127.0,125.0,88.0,-36.0
126.0,127.0,127.0,128.0,127.0,128.0,106.0,127.0,29.0,-125.0,-62.0,127.0,127.0,127.0,125.0,88.0,-36.0
126.0,127.0,127.0,128.0,127.0,127.0,106.0,127.0,29.0,-125.0,-62.0,127.0,127.0,127.0,125.0,88.0,-36.0
126.0,127.0,126.0,128.0,126.0,127.0,113.0,127.0,29.0,-125.0,-62.0,127.0,127.0,127.0,125.0,88.0,-36.0
126.0,126.0,126.0,128.0,126.0,127.0,113.0,127.0,29.0,-125.0,-62.0,127.0,127.0,127.0,125.0,88.0,-36.0
126.0,126.0,126.0,128.0,126.0,127.0,113.0,127.0,29.0,-125.0,-62.0,127.0,127.0,127.0,125.0,88.0,-36.0
126.0,126.0,126.0,127.0,126.0,127.0,112.0,127.0,29.0,-125.0,-62.0,127.0,127.0,127.0,125.0,88.0,-36.0
126.0,126.0,126.0,128.0,126.0,127.0,112.0,127.0,29.0,-125.0,-62.0,127.0,127.0,127.0,125.0,88.0,-36.0
126.0,126.0,126.0,127.0,126.0,127.0,112.0,127.0,29.0,-125.0,-62.0,127.0,127.0,127.0,125.0,88.0,-36.0
126.0,126.0,127.0,128.0,126.0,126.0,113.0,127.0,29.0,-125.0,-62.0,127.0,127.0,127.0,125.0,88.0,-36.0
126.0,126.0,127.0,128.0,126.0,126.0,112.0,127.0,29.0,-125.0,-62.0,127.0,127.0,127.0,125.0,88.0,-36.0
126.0,126.0,127.0,128.0,126.0,126.0,113.0,127.0,29.0,-125.0,-62.0,127.0,127.0,127.0,125.0,88.0,-36.0
126.0,127.0,126.0,128.0,126.0,127.0,113.0,127.0,29.0,-125.0,-62.0,127.0,127.0,127.0,125.0,88.0,-36.0
127.0,127.0,126.0,128.0,126.0,127.0,106.0,127.0,29.0,-125.0,-62.0,127.0,127.0,127.0,125.0,88.0,-36.0
127.0,127.0,126.0,128.0,126.0,127.0,106.0,127.0,29.0,-125.0,-62.0,127.0,127.0,127.0,125.0,88.0,-36.0
127.0,127.0,126.0,128.0,126.0,127.0,106.0,127.0,29.0,-125.0,-62.0,127.0,127.0,127.0,125.0,88.0,-36.0
127.0,127.0,126.0,128.0,126.0,127.0,106.0,127.0,29.0,-125.0,-62.0,127.0,127.0,127.0,125.0,88.0,-36.0
127.0,127.0,126.0,128.0,126.0,127.0,106.0,127.0,29.0,-125.0,-62.0,127.0,127.0,127.0,125.0,88.0,-36.0
127.0,127.0,126.0,128.0,127.0,127.0,106.0,127.0,29.0,-125.0,-62.0,127.0,127.0,127.0,125.0,88.0,-36.0
127.0,127.0,126.0,128.0,127.0,127.0,110.0,127.0,29.0,-125.0,-62.0,127.0,127.0,127.0,125.0,88.0,-36.0
127.0,127.0,126.0,128.0,126.0,127.0,112.0,127.0,29.0,-125.0,-62.0,127.0,127.0,127.0,125.0,88.0,-36.0
127.0,127.0,126.0,128.0,126.0,127.0,110.0,127.0,29.0,-125.0,-62.0,127.0,127.0,127.0,125.0,88.0,-36.0
127.0,127.0,126.0,128.0,126.0,127.0,107.0,127.0,29.0,-125.0,-62.0,127.0,127.0,127.0,125.0,88.0,-36.0
126.0,127.0,126.0,128.0,127.0,127.0,107.0,127.0,28.0,-125.0,-62.0,127.0,127.0,127.0,125.0,88.0,-36.0
126.0,127.0,126.0,128.0,127.0,128.0,107.0,127.0,28.0,-125.0,-62.0,127.0,127.0,127.0,125.0,88.0,-36.0
126.0,127.0,126.0,128.0,127.0,128.0,107.0,127.0,28.0,-125.0,-62.0,127.0,127.0,127.0,125.0,88.0,-36.0
126.0,127.0,126.0,128.0,127.0,128.0,108.0,127.0,28.0,-125.0,-62.0,127.0,127.0,127.0,125.0,88.0,-36.0
126.0,127.0,126.0,128.0,127.0,127.0,107.0,127.0,28.0,-125.0,-62.0,127.0,127.0,127.0,125.0,88.0,-36.0
126.0,126.0,126.0,128.0,127.0,127.0,111.0,127.0,28.0,-125.0,-62.0,127.0,127.0,127.0,125.0,88.0,-36.0
126.0,126.0,126.0,128.0,127.0,127.0,108.0,127.0,28.0,-125.0,-62.0,127.0,127.0,127.0,125.0,88.0,-36.0
126.0,127.0,126.0,128.0,127.0,127.0,110.0,127.0,28.0,-125.0,-62.0,127.0,127.0,127.0,125.0,88.0,-36.0
126.0,127.0,126.0,128.0,127.0,127.0,107.0,127.0,28.0,-125.0,-62.0,127.0,127.0,127.0,125.0,88.0,-36.0
126.0,127.0,126.0,128.0,127.0,127.0,106.0,127.0,28.0,-125.0,-62.0,127.0,127.0,127.0,125.0,88.0,-36.0
126.0,127.0,128.0,128.0,126.0,127.0,112.0,127.0,28.0,-125.0,-62.0,127.0,127.0,127.0,125.0,88.0,-36.0
126.0,127.0,128.0,128.0,126.0,127.0,112.0,127.0,28.0,-125.0,-62.0,127.0,127.0,127.0,125.0,88.0,-36.0
126.0,126.0,128.0,128.0,126.0,127.0,112.0,127.0,28.0,-125.0,-62.0,127.0,127.0,127.0,125.0,88.0,-36.0
127.0,127.0,128.0,128.0,126.0,127.0,112.0,127.0,28.0,-125.0,-62.0,127.0,127.0,127.0,125.0,88.0,-36.0
126.0,127.0,128.0,128.0,127.0,127.0,113.0,127.0,28.0,-125.0,-62.0,127.0,127.0,127.0,125.0,88.0,-36.0
126.0,127.0,128.0,128.0,127.0,127.0,113.0,127.0,28.0,-125.0,-62.0,127.0,127.0,127.0,125.0,88.0,-36.0
126.0,127.0,128.0,128.0,127.0,127.0,113.0,127.0,28.0,-125.0,-62.0,127.0,127.0,127.0,125.0,88.0,-36.0
126.0,127.0,128.0,128.0,127.0,127.0,112.0,127.0,28.0,-125.0,-62.0,127.0,127.0,127.0,125.0,88.0,-36.0
126.0,127.0,128.0,128.0,127.0,127.0,112.0,127.0,28.0,-125.0,-62.0,127.0,127.0,127.0,125.0,88.0,-36.0
126.0,127.0,128.0,128.0,126.0,127.0,112.0,127.0,28.0,-125.0,-62.0,127.0,127.0,127.0,125.0,88.0,-36.0
126.0,127.0,127.0,128.0,126.0,127.0,107.0,127.0,28.0,-125.0,-63.0,127.0,127.0,127.0,125.0,88.0,-36.0
126.0,127.0,127.0,128.0,126.0,127.0,106.0,127.0,28.0,-125.0,-63.0,127.0,127.0,127.0,125.0,88.0,-36.0
126.0,127.0,127.0,128.0,126.0,127.0,106.0,127.0,28.0,-125.0,-63.0,127.0,127.0,127.0,125.0,88.0,-36.0
126.0,127.0,127.0,128.0,126.0,127.0,113.0,127.0,28.0,-125.0,-63.0,127.0,127.0,127.0,125.0,88.0,-36.0
126.0,127.0,127.0,128.0,126.0,127.0,113.0,127.0,28.0,-125.0,-63.0,127.0,127.0,127.0,125.0,88.0,-36.0
126.0,127.0,127.0,128.0,126.0,127.0,112.0,127.0,28.0,-125.0,-63.0,127.0,127.0,127.0,125.0,88.0,-36.0
126.0,127.0,127.0,128.0,126.0,127.0,110.0,127.0,28.0,-125.0,-63.0,127.0,127.0,127.0,125.0,88.0,-36.0
126.0,127.0,127.0,128.0,126.0,127.0,106.0,127.0,28.0,-125.0,-63.0,127.0,127.0,127.0,125.0,88.0,-36.0
126.0,127.0,127.0,128.0,126.0,127.0,108.0,127.0,28.0,-125.0,-63.0,127.0,127.0,127.0,125.0,88.0,-36.0
126.0,127.0,127.0,128.0,126.0,127.0,108.0,127.0,28.0,-125.0,-63.0,127.0,127.0,127.0,125.0,88.0,-36.0
126.0,127.0,126.0,128.0,126.0,127.0,112.0,127.0,28.0,-125.0,-63.0,127.0,127.0,127.0,125.0,88.0,-36.0
126.0,127.0,126.0,128.0,126.0,127.0,112.0,127.0,28.0,-125.0,-63.0,127.0,127.0,127.0,125.0,88.0,-36.0
126.0,127.0,126.0,128.0,127.0,127.0,110.0,127.0,28.0,-125.0,-63.0,127.0,127.0,127.0,125.0,88.0,-36.0
126.0,127.0,127.0,128.0,127.0,127.0,106.0,127.0,28.0,-125.0,-63.0,127.0,127.0,127.0,125.0,88.0,-36.0
126.0,127.0,126.0,128.0,127.0,127.0,105.0,128.0,28.0,-125.0,-63.0,127.0,127.0,127.0,125.0,88.0,-36.0
126.0,127.0,126.0,128.0,127.0,127.0,109.0,127.0,28.0,-125.0,-63.0,127.0,127.0,127.0,125.0,88.0,-36.0
126.0,127.0,126.0,128.0,127.0,127.0,113.0,127.0,28.0,-125.0,-63.0,127.0,127.0,127.0,125.0,88.0,-36.0
126.0,127.0,126.0,128.0,127.0,127.0,113.0,127.0,28.0,-125.0,-63.0,127.0,127.0,127.0,125.0,88.0,-36.0
126.0,127.0,126.0,128.0,127.0,127.0,113.0,127.0,28.0,-125.0,-63.0,127.0,127.0,127.0,125.0,88.0,-36.0
126.0,127.0,126.0,128.0,127.0,127.0,113.0,127.0,28.0,-125.0,-63.0,127.0,127.0,127.0,125.0,88.0,-36.0
126.0,127.0,126.0,127.0,126.0,127.0,112.0,127.0,28.0,-125.0,-63.0,127.0,127.0,127.0,125.0,88.0,-36.0
126.0,127.0,127.0,128.0,126.0,127.0,113.0,127.0,28.0,-125.0,-63.0,127.0,127.0,127.0,125.0,88.0,-36.0
126.0,127.0,127.0,128.0,126.0,127.0,113.0,127.0,28.0,-125.0,-63.0,127.0,127.0,127.0,125.0,88.0,-36.0
126.0,127.0,127.0,128.0,126.0,127.0,113.0,127.0,28.0,-125.0,-63.0,127.0,127.0,127.0,125.0,88.0,-36.0
127.0,127.0,126.0,127.0,126.0,127.0,113.0,127.0,28.0,-125.0,-63.0,127.0,127.0,127.0,125.0,88.0,-36.0
127.0,126.0,126.0,127.0,126.0,127.0,113.0,127.0,28.0,-125.0,-63.0,127.0,127.0,127.0,125.0,88.0,-36.0
127.0,126.0,126.0,127.0,126.0,127.0,113.0,127.0,28.0,-125.0,-63.0,127.0,127.0,127.0,125.0,88.0,-36.0
126.0,127.0,126.0,127.0,126.0,127.0,112.0,127.0,28.0,-125.0,-63.0,127.0,127.0,127.0,125.0,88.0,-36.0
126.0,127.0,126.0,127.0,126.0,127.0,111.0,127.0,28.0,-125.0,-63.0,127.0,127.0,127.0,125.0,88.0,-36.0
126.0,127.0,126.0,127.0,126.0,127.0,111.0,127.0,28.0,-125.0,-63.0,127.0,127.0,127.0,125.0,88.0,-36.0
127.0,127.0,127.0,128.0,127.0,127.0,113.0,127.0,28.0,-125.0,-63.0,127.0,127.0,127.0,125.0,88.0,-36.0
127.0,127.0,127.0,128.0,127.0,127.0,111.0,127.0,28.0,-125.0,-63.0,127.0,127.0,127.0,125.0,88.0,-36.0
127.0,127.0,127.0,128.0,127.0,127.0,113.0,127.0,28.0,-125.0,-63.0,127.0,127.0,127.0,125.0,88.0,-36.0
127.0,127.0,128.0,128.0,127.0,127.0,113.0,127.0,28.0,-125.0,-63.0,127.0,127.0,127.0,125.0,88.0,-36.0
127.0,126.0,127.0,128.0,127.0,127.0,113.0,127.0,28.0,-125.0,-63.0,127.0,127.0,127.0,125.0,88.0,-36.0
127.0,126.0,128.0,128.0,127.0,127.0,112.0,127.0,28.0,-125.0,-63.0,127.0,127.0,127.0,125.0,88.0,-36.0
127.0,126.0,128.0,128.0,127.0,127.0,112.0,127.0,28.0,-125.0,-63.0,127.0,127.0,127.0,125.0,88.0,-36.0
127.0,126.0,127.0,128.0,127.0,126.0,112.0,127.0,28.0,-125.0,-63.0,127.0,127.0,127.0,125.0,88.0,-36.0
127.0,126.0,127.0,128.0,127.0,126.0,113.0,127.0,28.0,-125.0,-63.0,127.0,127.0,127.0,125.0,88.0,-36.0
127.0,126.0,127.0,128.0,127.0,126.0,113.0,127.0,28.0,-125.0,-63.0,127.0,127.0,127.0,125.0,88.0,-36.0
127.0,126.0,127.0,128.0,127.0,126.0,112.0,127.0,28.0,-125.0,-63.0,127.0,127.0,127.0,125.0,88.0,-36.0
127.0,126.0,127.0,128.0,127.0,126.0,112.0,127.0,28.0,-125.0,-63.0,127.0,127.0,127.0,125.0,88.0,-36.0
127.0,126.0,127.0,128.0,127.0,126.0,112.0,127.0,28.0,-125.0,-63.0,127.0,127.0,127.0,125.0,88.0,-36.0
127.0,126.0,127.0,128.0,127.0,126.0,112.0,127.0,28.0,-125.0,-63.0,127.0,127.0,127.0,125.0,88.0,-36.0
127.0,126.0,127.0,128.0,127.0,126.0,112.0,127.0,28.0,-125.0,-63.0,127.0,127.0,127.0,125.0,88.0,-36.0
127.0,126.0,127.0,128.0,127.0,126.0,112.0,127.0,28.0,-125.0,-63.0,127.0,127.0,127.0,125.0,88.0,-36.0
127.0,126.0,127.0,128.0,127.0,126.0,112.0,127.0,28.0,-125.0,-63.0,127.0,127.0,127.0,125.0,88.0,-36.0
127.0,126.0,127.0,128.0,127.0,126.0,112.0,127.0,28.0,-125.0,-63.0,127.0,127.0,127.0,125.0,88.0,-36.0
127.0,126.0,127.0,128.0,127.0,126.0,112.0,127.0,28.0,-125.0,-63.0,127.0,127.0,127.0,125.0,88.0,-36.0
127.0,126.0,127.0,128.0,127.0,126.0,112.0,127.0,28.0,-125.0,-63.0,127.0,127.0,127.0,125.0,88.0,-36.0
127.0,127.0,127.0,128.0,127.0,127.0,106.0,127.0,28.0,-125.0,-64.0,127.0,127.0,127.0,125.0,88.0,-36.0
127.0,127.0,127.0,128.0,127.0,127.0,106.0,127.0,28.0,-125.0,-64.0,127.0,127.0,127.0,125.0,88.0,-36.0
127.0,127.0,127.0,128.0,127.0,127.0,106.0,128.0,28.0,-125.0,-64.0,127.0,127.0,127.0,125.0,88.0,-36.0
127.0,127.0,127.0,128.0,127.0,127.0,106.0,127.0,28.0,-125.0,-64.0,127.0,127.0,127.0,125.0,88.0,-36.0
127.0,127.0,127.0,128.0,127.0,127.0,107.0,127.0,28.0,-125.0,-64.0,127.0,127.0,127.0,125.0,88.0,-36.0
126.0,127.0,127.0,128.0,127.0,128.0,107.0,128.0,28.0,-125.0,-64.0,127.0,127.0,127.0,125.0,88.0,-36.0
127.0,127.0,127.0,128.0,127.0,128.0,107.0,128.0,28.0,-125.0,-64.0,127.0,127.0,127.0,125.0,88.0,-36.0
127.0,127.0,127.0,128.0,127.0,128.0,107.0,128.0,28.0,-125.0,-64.0,127.0,127.0,127.0,125.0,88.0,-36.0
127.0,127.0,128.0,128.0,127.0,127.0,106.0,127.0,28.0,-125.0,-64.0,127.0,127.0,127.0,125.0,88.0,-36.0
127.0,127.0,127.0,128.0,127.0,127.0,106.0,127.0,28.0,-125.0,-64.0,127.0,127.0,127.0,125.0,88.0,-36.0
127.0,127.0,127.0,128.0,127.0,127.0,112.0,127.0,28.0,-125.0,-64.0,127.0,127.0,127.0,125.0,88.0,-36.0
127.0,127.0,127.0,128.0,127.0,127.0,111.0,128.0,28.0,-125.0,-64.0,127.0,127.0,127.0,125.0,88.0,-36.0
127.0,127.0,127.0,128.0,127.0,127.0,106.0,128.0,28.0,-125.0,-64.0,127.0,127.0,127.0,125.0,88.0,-36.0
127.0,127.0,127.0,128.0,127.0,127.0,106.0,127.0,28.0,-125.0,-64.0,127.0,127.0,127.0,125.0,88.0,-36.0
126.0,127.0,127.0,128.0,127.0,127.0,106.0,128.0,28.0,-125.0,-64.0,127.0,127.0,127.0,125.0,88.0,-36.0
127.0,127.0,127.0,128.0,127.0,127.0,106.0,128.0,28.0,-125.0,-64.0,127.0,127.0,127.0,125.0,88.0,-36.0
127.0,127.0,127.0,128.0,127.0,127.0,106.0,128.0,28.0,-125.0,-64.0,127.0,127.0,127.0,125.0,88.0,-36.0
127.0,127.0,127.0,128.0,127.0,127.0,113.0,127.0,28.0,-125.0,-64.0,127.0,127.0,127.0,125.0,88.0,-36.0
127.0,127.0,127.0,128.0,127.0,127.0,112.0,127.0,28.0,-125.0,-64.0,127.0,127.0,127.0,125.0,88.0,-36.0
127.0,127.0,127.0,128.0,127.0,127.0,112.0,127.0,28.0,-125.0,-64.0,127.0,127.0,127.0,125.0,88.0,-36.0
127.0,126.0,127.0,128.0,127.0,126.0,112.0,127.0,28.0,-125.0,-64.0,127.0,127.0,127.0,125.0,88.0,-36.0
127.0,126.0,127.0,128.0,127.0,126.0,112.0,127.0,28.0,-125.0,-64.0,127.0,127.0,127.0,125.0,88.0,-36.0
127.0,126.0,127.0,128.0,127.0,126.0,111.0,127.0,28.0,-125.0,-64.0,127.0,127.0,127.0,125.0,88.0,-36.0
127.0,126.0,127.0,128.0,127.0,126.0,111.0,127.0,28.0,-125.0,-64.0,127.0,127.0,127.0,125.0,88.0,-36.0
127.0,127.0,127.0,128.0,127.0,127.0,112.0,127.0,28.0,-125.0,-64.0,127.0,127.0,127.0,125.0,88.0,-36.0
127.0,126.0,127.0,128.0,127.0,126.0,111.0,127.0,28.0,-125.0,-64.0,127.0,127.0,127.0,125.0,88.0,-36.0
127.0,126.0,127.0,128.0,127.0,126.0,111.0,127.0,28.0,-125.0,-64.0,127.0,127.0,127.0,125.0,88.0,-36.0
127.0,126.0,127.0,128.0,127.0,126.0,111.0,127.0,28.0,-125.0,-64.0,127.0,127.0,127.0,125.0,88.0,-36.0
127.0,126.0,127.0,128.0,127.0,126.0,112.0,127.0,28.0,-125.0,-64.0,127.0,127.0,127.0,125.0,88.0,-36.0
127.0,126.0,127.0,128.0,127.0,126.0,112.0,127.0,28.0,-125.0,-64.0,127.0,127.0,127.0,125.0,88.0,-36.0
126.0,126.0,127.0,127.0,126.0,126.0,112.0,127.0,28.0,-125.0,-64.0,127.0,127.0,127.0,125.0,88.0,-36.0
126.0,127.0,127.0,128.0,127.0,126.0,112.0,127.0,28.0,-125.0,-64.0,127.0,127.0,127.0,125.0,88.0,-36.0
126.0,127.0,127.0,128.0,127.0,126.0,113.0,127.0,28.0,-125.0,-64.0,127.0,127.0,127.0,125.0,88.0,-36.0
126.0,126.0,127.0,128.0,127.0,126.0,112.0,127.0,28.0,-125.0,-64.0,127.0,127.0,127.0,125.0,88.0,-36.0
126.0,126.0,127.0,128.0,127.0,126.0,112.0,127.0,28.0,-125.0,-64.0,127.0,127.0,127.0,125.0,88.0,-36.0
126.0,127.0,127.0,128.0,127.0,126.0,112.0,127.0,28.0,-125.0,-64.0,127.0,127.0,127.0,125.0,88.0,-36.0
126.0,127.0,127.0,127.0,126.0,127.0,112.0,127.0,28.0,-125.0,-64.0,127.0,127.0,127.0,125.0,88.0,-36.0
126.0,127.0,127.0,127.0,127.0,127.0,112.0,127.0,28.0,-125.0,-64.0,127.0,127.0,127.0,125.0,88.0,-36.0
126.0,127.0,127.0,127.0,127.0,127.0,112.0,127.0,28.0,-125.0,-64.0,127.0,127.0,127.0,125.0,88.0,-36.0
126.0,127.0,127.0,127.0,127.0,127.0,112.0,127.0,28.0,-125.0,-64.0,127.0,127.0,127.0,125.0,88.0,-36.0
127.0,126.0,127.0,128.0,127.0,127.0,112.0,127.0,28.0,-125.0,-65.0,127.0,127.0,127.0,125.0,88.0,-36.0
127.0,126.0,127.0,128.0,127.0,127.0,112.0,127.0,28.0,-125.0,-65.0,127.0,127.0,127.0,125.0,88.0,-36.0
127.0,126.0,128.0,128.0,127.0,127.0,112.0,127.0,28.0,-125.0,-65.0,127.0,127.0,127.0,125.0,88.0,-36.0
127.0,126.0,127.0,127.0,127.0,127.0,112.0,127.0,28.0,-125.0,-65.0,127.0,127.0,127.0,125.0,88.0,-36.0
126.0,127.0,127.0,128.0,127.0,127.0,113.0,127.0,28.0,-125.0,-65.0,127.0,127.0,127.0,125.0,88.0,-36.0
126.0,127.0,127.0,128.0,127.0,127.0,113.0,127.0,28.0,-125.0,-65.0,127.0,127.0,127.0,125.0,88.0,-36.0
126.0,127.0,127.0,128.0,127.0,127.0,113.0,127.0,28.0,-125.0,-65.0,127.0,127.0,127.0,125.0,88.0,-36.0
126.0,127.0,127.0,128.0,127.0,127.0,113.0,127.0,28.0,-125.0,-65.0,127.0,127.0,127.0,125.0,88.0,-36.0
126.0,126.0,127.0,128.0,127.0,127.0,113.0,127.0,28.0,-125.0,-65.0,127.0,127.0,127.0,125.0,88.0,-36.0
127.0,126.0,127.0,128.0,127.0,127.0,112.0,127.0,28.0,-125.0,-65.0,127.0,127.0,127.0,125.0,88.0,-36.0
127.0,127.0,127.0,128.0,127.0,127.0,113.0,127.0,28.0,-125.0,-65.0,127.0,127.0,127.0,125.0,88.0,-36.0
126.0,127.0,127.0,128.0,127.0,127.0,108.0,127.0,28.0,-125.0,-65.0,127.0,127.0,127.0,125.0,88.0,-36.0
127.0,127.0,127.0,128.0,127.0,127.0,107.0,127.0,28.0,-125.0,-65.0,127.0,127.0,127.0,125.0,88.0,-36.0
127.0,127.0,128.0,128.0,127.0,127.0,113.0,127.0,28.0,-125.0,-65.0,127.0,127.0,127.0,125.0,88.0,-36.0
127.0,127.0,128.0,128.0,127.0,127.0,113.0,127.0,28.0,-125.0,-65.0,127.0,127.0,127.0,125.0,88.0,-36.0
127.0,127.0,127.0,128.0,127.0,127.0,112.0,127.0,28.0,-125.0,-65.0,127.0,127.0,127.0,125.0,88.0,-36.0
127.0,127.0,127.0,128.0,127.0,127.0,113.0,127.0,28.0,-125.0,-65.0,127.0,127.0,127.0,125.0,88.0,-36.0
127.0,127.0,127.0,128.0,127.0,127.0,112.0,127.0,28.0,-125.0,-65.0,127.0,127.0,127.0,125.0,88.0,-36.0
127.0,127.0,127.0,128.0,127.0,127.0,112.0,127.0,28.0,-125.0,-65.0,127.0,127.0,127.0,125.0,88.0,-36.0
127.0,126.0,127.0,128.0,127.0,127.0,113.0,127.0,28.0,-125.0,-65.0,127.0,127.0,127.0,125.0,88.0,-36.0
127.0,127.0,126.0,127.0,126.0,127.0,106.0,127.0,28.0,-125.0,-65.0,127.0,127.0,127.0,125.0,88.0,-36.0
127.0,127.0,127.0,127.0,126.0,127.0,106.0,127.0,28.0,-125.0,-65.0,127.0,127.0,127.0,125.0,88.0,-36.0
127.0,127.0,126.0,127.0,126.0,127.0,113.0,127.0,28.0,-125.0,-65.0,127.0,127.0,127.0,125.0,88.0,-36.0
126.0,127.0,126.0,127.0,126.0,127.0,112.0,127.0,28.0,-125.0,-65.0,127.0,127.0,127.0,125.0,88.0,-36.0
126.0,127.0,126.0,127.0,126.0,127.0,108.0,127.0,28.0,-125.0,-65.0,127.0,127.0,127.0,125.0,88.0,-36.0
126.0,127.0,126.0,127.0,126.0,127.0,106.0,127.0,28.0,-125.0,-65.0,127.0,127.0,127.0,125.0,88.0,-36.0
126.0,127.0,126.0,127.0,126.0,127.0,106.0,127.0,28.0,-125.0,-65.0,127.0,127.0,127.0,125.0,88.0,-36.0
126.0,127.0,126.0,127.0,126.0,127.0,107.0,127.0,28.0,-125.0,-65.0,127.0,127.0,127.0,125.0,88.0,-36.0
126.0,127.0,126.0,127.0,126.0,127.0,106.0,127.0,28.0,-125.0,-65.0,127.0,127.0,127.0,125.0,88.0,-36.0
126.0,127.0,126.0,127.0,126.0,127.0,107.0,127.0,28.0,-125.0,-65.0,127.0,127.0,127.0,125.0,88.0,-36.0
127.0,127.0,126.0,127.0,126.0,127.0,113.0,128.0,27.0,-125.0,-66.0,127.0,127.0,127.0,125.0,88.0,-36.0
127.0,126.0,127.0,127.0,126.0,126.0,112.0,127.0,27.0,-125.0,-66.0,127.0,127.0,127.0,125.0,88.0,-36.0
127.0,126.0,127.0,127.0,126.0,126.0,112.0,127.0,27.0,-125.0,-66.0,127.0,127.0,127.0,125.0,88.0,-36.0
127.0,126.0,127.0,127.0,126.0,126.0,112.0,127.0,27.0,-125.0,-66.0,127.0,127.0,127.0,125.0,88.0,-36.0
127.0,126.0,127.0,127.0,126.0,126.0,112.0,127.0,27.0,-125.0,-66.0,127.0,127.0,127.0,125.0,88.0,-36.0
127.0,126.0,127.0,127.0,126.0,126.0,112.0,127.0,27.0,-125.0,-66.0,127.0,127.0,127.0,125.0,88.0,-36.0
127.0,126.0,127.0,127.0,126.0,126.0,112.0,127.0,27.0,-125.0,-66.0,127.0,127.0,127.0,125.0,88.0,-36.0
127.0,126.0,127.0,127.0,126.0,126.0,111.0,127.0,27.0,-125.0,-66.0,127.0,127.0,127.0,125.0,88.0,-36.0
127.0,126.0,127.0,127.0,126.0,126.0,112.0,127.0,27.0,-125.0,-66.0,127.0,127.0,127.0,125.0,88.0,-36.0
127.0,126.0,126.0,127.0,126.0,126.0,112.0,127.0,27.0,-125.0,-66.0,127.0,127.0,127.0,125.0,88.0,-36.0
127.0,127.0,127.0,128.0,127.0,127.0,107.0,128.0,27.0,-125.0,-66.0,127.0,127.0,127.0,125.0,88.0,-36.0
127.0,127.0,127.0,128.0,127.0,127.0,106.0,128.0,27.0,-125.0,-66.0,127.0,127.0,127.0,125.0,88.0,-36.0
126.0,127.0,127.0,128.0,127.0,127.0,107.0,128.0,27.0,-125.0,-66.0,127.0,127.0,127.0,125.0,88.0,-36.0
126.0,127.0,127.0,128.0,127.0,127.0,106.0,128.0,27.0,-125.0,-66.0,127.0,127.0,127.0,125.0,88.0,-36.0
127.0,127.0,127.0,128.0,127.0,127.0,106.0,128.0,27.0,-125.0,-66.0,127.0,127.0,127.0,125.0,88.0,-36.0
126.0,127.0,127.0,128.0,127.0,127.0,106.0,128.0,27.0,-125.0,-66.0,127.0,127.0,127.0,125.0,88.0,-36.0
127.0,127.0,127.0,128.0,127.0,128.0,107.0,128.0,27.0,-125.0,-66.0,127.0,127.0,127.0,125.0,88.0,-36.0
127.0,127.0,127.0,128.0,127.0,128.0,106.0,128.0,27.0,-125.0,-66.0,127.0,127.0,127.0,125.0,88.0,-36.0
127.0,127.0,127.0,128.0,127.0,127.0,106.0,128.0,27.0,-125.0,-66.0,127.0,127.0,127.0,125.0,88.0,-36.0
127.0,127.0,127.0,128.0,127.0,128.0,107.0,128.0,27.0,-125.0,-66.0,127.0,127.0,127.0,125.0,88.0,-36.0
127.0,127.0,127.0,128.0,127.0,127.0,113.0,128.0,27.0,-126.0,-66.0,127.0,127.0,127.0,125.0,88.0,-36.0
127.0,127.0,127.0,128.0,127.0,127.0,113.0,128.0,27.0,-126.0,-66.0,127.0,127.0,127.0,125.0,88.0,-36.0
127.0,127.0,127.0,128.0,127.0,127.0,113.0,127.0,27.0,-126.0,-66.0,127.0,127.0,127.0,125.0,88.0,-36.0
127.0,127.0,127.0,128.0,127.0,127.0,113.0,127.0,27.0,-126.0,-66.0,127.0,127.0,127.0,125.0,88.0,-36.0
127.0,127.0,127.0,128.0,127.0,127.0,113.0,127.0,27.0,-126.0,-66.0,127.0,127.0,127.0,125.0,88.0,-36.0
127.0,127.0,127.0,128.0,127.0,127.0,108.0,128.0,27.0,-126.0,-66.0,127.0,127.0,127.0,125.0,88.0,-36.0
127.0,127.0,127.0,128.0,127.0,127.0,106.0,128.0,27.0,-126.0,-66.0,127.0,127.0,127.0,125.0,88.0,-36.0
127.0,127.0,127.0,128.0,127.0,127.0,106.0,128.0,27.0,-126.0,-66.0,127.0,127.0,127.0,125.0,88.0,-36.0
127.0,127.0,127.0,128.0,127.0,127.0,107.0,128.0,27.0,-126.0,-66.0,127.0,127.0,127.0,125.0,88.0,-36.0
127.0,127.0,127.0,128.0,127.0,127.0,113.0,127.0,27.0,-126.0,-66.0,127.0,127.0,127.0,125.0,88.0,-36.0
127.0,127.0,127.0,128.0,127.0,127.0,108.0,128.0,28.0,-126.0,-66.0,127.0,127.0,127.0,125.0,88.0,-36.0
127.0,127.0,127.0,128.0,127.0,127.0,112.0,128.0,28.0,-126.0,-66.0,127.0,127.0,127.0,125.0,88.0,-36.0
127.0,127.0,127.0,128.0,127.0,127.0,111.0,128.0,28.0,-126.0,-66.0,127.0,127.0,127.0,125.0,88.0,-36.0
127.0,127.0,127.0,128.0,127.0,127.0,113.0,128.0,28.0,-126.0,-66.0,127.0,127.0,127.0,125.0,88.0,-36.0
127.0,126.0,127.0,128.0,127.0,127.0,113.0,128.0,28.0,-126.0,-66.0,127.0,127.0,127.0,125.0,88.0,-36.0
127.0,127.0,127.0,128.0,127.0,127.0,113.0,128.0,28.0,-126.0,-66.0,127.0,127.0,127.0,125.0,88.0,-36.0
127.0,126.0,128.0,128.0,127.0,127.0,113.0,128.0,28.0,-126.0,-66.0,127.0,127.0,127.0,125.0,88.0,-36.0
127.0,126.0,128.0,128.0,126.0,127.0,112.0,128.0,28.0,-126.0,-66.0,127.0,127.0,127.0,125.0,88.0,-36.0
127.0,127.0,127.0,128.0,127.0,127.0,110.0,128.0,28.0,-126.0,-66.0,127.0,127.0,127.0,125.0,88.0,-36.0
127.0,127.0,127.0,128.0,127.0,127.0,108.0,128.0,28.0,-126.0,-66.0,127.0,127.0,127.0,125.0,88.0,-36.0
127.0,127.0,128.0,128.0,127.0,127.0,108.0,128.0,28.0,-126.0,-66.0,127.0,127.0,127.0,125.0,88.0,-36.0
127.0,127.0,128.0,128.0,127.0,127.0,107.0,128.0,28.0,-126.0,-66.0,127.0,127.0,127.0,125.0,88.0,-36.0
127.0,127.0,127.0,128.0,127.0,127.0,107.0,128.0,28.0,-126.0,-66.0,127.0,127.0,127.0,125.0,88.0,-36.0
127.0,127.0,127.0,128.0,127.0,127.0,106.0,128.0,28.0,-126.0,-66.0,127.0,127.0,127.0,125.0,88.0,-36.0
127.0,127.0,127.0,128.0,127.0,127.0,106.0,127.0,28.0,-126.0,-66.0,127.0,127.0,127.0,125.0,88.0,-36.0
127.0,127.0,127.0,128.0,127.0,127.0,106.0,127.0,28.0,-126.0,-66.0,127.0,127.0,127.0,125.0,88.0,-36.0
127.0,127.0,128.0,128.0,127.0,127.0,113.0,127.0,28.0,-126.0,-66.0,127.0,127.0,127.0,125.0,88.0,-36.0
127.0,127.0,128.0,128.0,127.0,127.0,113.0,127.0,28.0,-126.0,-66.0,127.0,127.0,127.0,125.0,88.0,-36.0
127.0,127.0,128.0,128.0,127.0,127.0,113.0,127.0,28.0,-126.0,-66.0,127.0,127.0,127.0,125.0,88.0,-36.0
127.0,127.0,128.0,128.0,127.0,127.0,112.0,127.0,28.0,-126.0,-66.0,127.0,127.0,127.0,125.0,88.0,-36.0
127.0,127.0,127.0,128.0,127.0,127.0,107.0,128.0,28.0,-126.0,-66.0,127.0,127.0,127.0,125.0,88.0,-36.0
127.0,127.0,127.0,128.0,127.0,127.0,106.0,128.0,28.0,-126.0,-66.0,127.0,127.0,127.0,125.0,88.0,-36.0
127.0,127.0,127.0,128.0,127.0,127.0,106.0,128.0,28.0,-126.0,-66.0,127.0,127.0,127.0,125.0,88.0,-36.0
127.0,127.0,127.0,128.0,127.0,127.0,106.0,128.0,28.0,-126.0,-66.0,127.0,127.0,127.0,125.0,88.0,-36.0
127.0,127.0,127.0,128.0,127.0,127.0,106.0,128.0,28.0,-126.0,-66.0,127.0,127.0,127.0,125.0,88.0,-36.0
127.0,127.0,127.0,128.0,127.0,127.0,111.0,128.0,28.0,-126.0,-66.0,127.0,127.0,127.0,125.0,88.0,-36.0
127.0,127.0,127.0,128.0,127.0,127.0,111.0,128.0,28.0,-126.0,-66.0,127.0,127.0,127.0,125.0,88.0,-36.0
127.0,127.0,127.0,128.0,127.0,127.0,111.0,128.0,28.0,-126.0,-66.0,127.0,127.0,127.0,125.0,88.0,-36.0
127.0,127.0,127.0,128.0,127.0,127.0,110.0,128.0,28.0,-126.0,-66.0,127.0,127.0,127.0,125.0,88.0,-36.0
127.0,127.0,127.0,128.0,127.0,127.0,108.0,128.0,28.0,-126.0,-66.0,127.0,127.0,127.0,125.0,88.0,-36.0
126.0,127.0,127.0,127.0,127.0,127.0,106.0,128.0,28.0,-126.0,-66.0,127.0,127.0,127.0,125.0,88.0,-36.0
126.0,127.0,127.0,127.0,127.0,127.0,106.0,128.0,28.0,-126.0,-66.0,127.0,127.0,127.0,125.0,88.0,-36.0
126.0,127.0,127.0,127.0,127.0,127.0,105.0,128.0,28.0,-126.0,-66.0,127.0,127.0,127.0,125.0,88.0,-36.0
127.0,127.0,127.0,127.0,127.0,127.0,106.0,128.0,28.0,-126.0,-66.0,127.0,127.0,127.0,125.0,88.0,-36.0
127.0,127.0,127.0,127.0,127.0,127.0,108.0,128.0,28.0,-126.0,-66.0,127.0,127.0,127.0,125.0,88.0,-36.0
126.0,127.0,127.0,127.0,127.0,127.0,113.0,128.0,28.0,-126.0,-66.0,127.0,127.0,127.0,125.0,88.0,-36.0
126.0,127.0,127.0,127.0,126.0,127.0,113.0,128.0,28.0,-126.0,-66.0,127.0,127.0,127.0,125.0,88.0,-36.0
126.0,127.0,127.0,127.0,127.0,127.0,113.0,128.0,28.0,-126.0,-66.0,127.0,127.0,127.0,125.0,88.0,-36.0
126.0,127.0,127.0,127.0,127.0,127.0,111.0,128.0,28.0,-126.0,-66.0,127.0,127.0,127.0,125.0,88.0,-36.0
126.0,127.0,127.0,127.0,127.0,127.0,106.0,128.0,28.0,-126.0,-66.0,127.0,127.0,127.0,125.0,88.0,-36.0
126.0,127.0,127.0,128.0,127.0,127.0,107.0,128.0,28.0,-126.0,-66.0,127.0,127.0,127.0,126.0,88.0,-36.0
126.0,127.0,127.0,128.0,127.0,127.0,106.0,128.0,28.0,-126.0,-66.0,127.0,127.0,127.0,126.0,88.0,-36.0
126.0,127.0,127.0,128.0,127.0,127.0,106.0,128.0,28.0,-126.0,-66.0,127.0,127.0,127.0,126.0,88.0,-36.0
126.0,127.0,127.0,128.0,127.0,127.0,106.0,128.0,28.0,-126.0,-66.0,127.0,127.0,127.0,126.0,88.0,-36.0
126.0,127.0,127.0,128.0,127.0,127.0,110.0,128.0,28.0,-126.0,-66.0,127.0,127.0,127.0,126.0,88.0,-36.0
126.0,127.0,127.0,128.0,127.0,127.0,112.0,128.0,28.0,-126.0,-66.0,127.0,127.0,127.0,126.0,88.0,-36.0
126.0,127.0,127.0,128.0,127.0,127.0,109.0,128.0,28.0,-126.0,-66.0,127.0,127.0,127.0,126.0,88.0,-36.0
126.0,127.0,127.0,128.0,127.0,127.0,108.0,128.0,28.0,-126.0,-66.0,127.0,127.0,127.0,126.0,88.0,-36.0
126.0,127.0,127.0,128.0,127.0,127.0,107.0,128.0,28.0,-126.0,-66.0,127.0,127.0,127.0,126.0,88.0,-36.0
126.0,127.0,127.0,128.0,127.0,127.0,107.0,128.0,28.0,-126.0,-66.0,127.0,127.0,127.0,126.0,88.0,-36.0
127.0,127.0,127.0,127.0,126.0,127.0,112.0,127.0,28.0,-126.0,-66.0,127.0,127.0,127.0,126.0,88.0,-36.0
127.0,127.0,127.0,127.0,126.0,127.0,112.0,127.0,28.0,-126.0,-66.0,127.0,127.0,127.0,126.0,88.0,-36.0
127.0,127.0,127.0,127.0,126.0,127.0,112.0,127.0,28.0,-126.0,-66.0,127.0,127.0,127.0,126.0,88.0,-36.0
126.0,127.0,128.0,128.0,127.0,127.0,108.0,127.0,28.0,-126.0,-66.0,127.0,127.0,127.0,126.0,88.0,-36.0
126.0,127.0,128.0,128.0,127.0,127.0,112.0,127.0,28.0,-126.0,-66.0,127.0,127.0,127.0,126.0,88.0,-36.0
126.0,127.0,128.0,128.0,127.0,127.0,112.0,127.0,28.0,-126.0,-66.0,127.0,127.0,127.0,126.0,88.0,-36.0
127.0,127.0,128.0,128.0,127.0,127.0,113.0,127.0,28.0,-126.0,-66.0,127.0,127.0,127.0,126.0,88.0,-36.0
127.0,127.0,128.0,127.0,127.0,127.0,113.0,127.0,28.0,-126.0,-66.0,127.0,127.0,127.0,126.0,88.0,-36.0
127.0,127.0,127.0,127.0,127.0,127.0,113.0,127.0,28.0,-126.0,-66.0,127.0,127.0,127.0,126.0,88.0,-36.0
127.0,127.0,127.0,127.0,127.0,127.0,113.0,127.0,28.0,-126.0,-66.0,127.0,127.0,127.0,126.0,88.0,-36.0
126.0,127.0,127.0,127.0,127.0,127.0,107.0,128.0,27.0,-126.0,-66.0,127.0,127.0,127.0,126.0,88.0,-36.0
127.0,127.0,127.0,127.0,127.0,127.0,107.0,128.0,27.0,-126.0,-66.0,127.0,127.0,127.0,126.0,88.0,-36.0
126.0,127.0,127.0,127.0,127.0,127.0,112.0,127.0,27.0,-126.0,-66.0,127.0,127.0,127.0,126.0,88.0,-36.0
126.0,127.0,127.0,128.0,127.0,127.0,110.0,127.0,27.0,-126.0,-66.0,127.0,127.0,127.0,126.0,88.0,-36.0
126.0,127.0,127.0,128.0,127.0,127.0,109.0,127.0,27.0,-126.0,-66.0,127.0,127.0,127.0,126.0,88.0,-36.0
127.0,127.0,127.0,127.0,127.0,127.0,112.0,127.0,27.0,-126.0,-66.0,127.0,127.0,127.0,126.0,88.0,-36.0
126.0,127.0,127.0,128.0,127.0,127.0,114.0,127.0,27.0,-126.0,-66.0,127.0,127.0,127.0,126.0,88.0,-36.0
127.0,127.0,127.0,128.0,127.0,127.0,112.0,127.0,27.0,-126.0,-66.0,127.0,127.0,127.0,126.0,88.0,-36.0
127.0,127.0,127.0,127.0,127.0,127.0,112.0,127.0,27.0,-126.0,-66.0,127.0,127.0,127.0,126.0,88.0,-36.0
126.0,127.0,127.0,127.0,127.0,127.0,108.0,128.0,27.0,-126.0,-66.0,127.0,127.0,127.0,126.0,88.0,-36.0
127.0,126.0,127.0,127.0,126.0,127.0,113.0,127.0,27.0,-126.0,-66.0,127.0,127.0,127.0,126.0,88.0,-36.0
127.0,127.0,127.0,127.0,126.0,127.0,111.0,127.0,27.0,-126.0,-66.0,127.0,127.0,127.0,126.0,88.0,-36.0
127.0,127.0,127.0,127.0,126.0,127.0,107.0,128.0,27.0,-126.0,-66.0,127.0,127.0,127.0,126.0,88.0,-36.0
127.0,127.0,128.0,127.0,126.0,127.0,106.0,128.0,27.0,-126.0,-66.0,127.0,127.0,127.0,126.0,88.0,-36.0
127.0,127.0,128.0,127.0,126.0,127.0,106.0,128.0,27.0,-126.0,-66.0,127.0,127.0,127.0,126.0,88.0,-36.0
127.0,127.0,128.0,127.0,126.0,127.0,106.0,128.0,27.0,-126.0,-66.0,127.0,127.0,127.0,126.0,88.0,-36.0
127.0,127.0,127.0,127.0,126.0,127.0,106.0,128.0,27.0,-126.0,-66.0,127.0,127.0,127.0,126.0,88.0,-36.0
127.0,127.0,127.0,127.0,126.0,127.0,106.0,128.0,27.0,-126.0,-66.0,127.0,127.0,127.0,126.0,88.0,-36.0
127.0,127.0,127.0,127.0,126.0,127.0,109.0,128.0,27.0,-126.0,-66.0,127.0,127.0,127.0,126.0,88.0,-36.0
127.0,127.0,127.0,127.0,126.0,127.0,112.0,127.0,27.0,-126.0,-66.0,127.0,127.0,127.0,126.0,88.0,-36.0
127.0,127.0,127.0,128.0,128.0,127.0,113.0,128.0,27.0,-126.0,-66.0,127.0,127.0,127.0,126.0,88.0,-36.0
127.0,127.0,127.0,128.0,128.0,127.0,113.0,128.0,27.0,-126.0,-66.0,127.0,127.0,127.0,126.0,88.0,-36.0
127.0,127.0,127.0,128.0,128.0,127.0,113.0,128.0,27.0,-126.0,-66.0,127.0,127.0,127.0,126.0,88.0,-36.0
127.0,127.0,127.0,128.0,128.0,127.0,113.0,128.0,27.0,-126.0,-66.0,127.0,127.0,127.0,126.0,88.0,-36.0
127.0,127.0,127.0,128.0,127.0,127.0,113.0,128.0,27.0,-126.0,-66.0,127.0,127.0,127.0,126.0,88.0,-36.0
127.0,127.0,127.0,128.0,127.0,127.0,113.0,128.0,27.0,-126.0,-66.0,127.0,127.0,127.0,126.0,88.0,-36.0
127.0,127.0,127.0,128.0,127.0,127.0,113.0,128.0,27.0,-126.0,-66.0,127.0,127.0,127.0,126.0,88.0,-36.0
127.0,127.0,127.0,128.0,127.0,127.0,113.0,128.0,27.0,-126.0,-66.0,127.0,127.0,127.0,126.0,88.0,-36.0
127.0,127.0,127.0,128.0,127.0,127.0,113.0,128.0,27.0,-126.0,-66.0,127.0,127.0,127.0,126.0,88.0,-36.0
127.0,127.0,127.0,128.0,127.0,127.0,113.0,128.0,27.0,-126.0,-66.0,127.0,127.0,127.0,126.0,88.0,-36.0
126.0,126.0,126.0,128.0,127.0,127.0,111.0,128.0,27.0,-126.0,-66.0,127.0,127.0,127.0,126.0,88.0,-36.0
126.0,126.0,126.0,128.0,127.0,127.0,107.0,128.0,27.0,-126.0,-66.0,127.0,127.0,127.0,126.0,88.0,-36.0
126.0,126.0,126.0,128.0,127.0,127.0,107.0,128.0,27.0,-126.0,-66.0,127.0,127.0,127.0,126.0,88.0,-36.0
126.0,126.0,126.0,128.0,127.0,127.0,111.0,128.0,27.0,-126.0,-66.0,127.0,127.0,127.0,126.0,88.0,-36.0
127.0,126.0,126.0,128.0,127.0,127.0,112.0,128.0,27.0,-126.0,-66.0,127.0,127.0,127.0,126.0,88.0,-36.0
127.0,126.0,126.0,128.0,127.0,127.0,113.0,128.0,27.0,-126.0,-66.0,127.0,127.0,127.0,126.0,88.0,-36.0
127.0,126.0,126.0,128.0,127.0,127.0,113.0,128.0,27.0,-126.0,-66.0,127.0,127.0,127.0,126.0,88.0,-36.0
127.0,126.0,126.0,127.0,127.0,127.0,112.0,127.0,27.0,-126.0,-66.0,127.0,127.0,127.0,126.0,88.0,-36.0
127.0,126.0,127.0,127.0,126.0,127.0,112.0,127.0,27.0,-126.0,-66.0,127.0,127.0,127.0,126.0,88.0,-36.0
126.0,126.0,126.0,128.0,127.0,127.0,113.0,127.0,27.0,-126.0,-66.0,127.0,127.0,127.0,126.0,88.0,-36.0
126.0,127.0,127.0,128.0,127.0,127.0,107.0,128.0,28.0,-125.0,-65.0,127.0,127.0,127.0,126.0,88.0,-36.0
126.0,127.0,127.0,128.0,127.0,127.0,106.0,128.0,28.0,-125.0,-65.0,127.0,127.0,127.0,126.0,88.0,-36.0
126.0,127.0,127.0,128.0,127.0,127.0,106.0,128.0,28.0,-125.0,-65.0,127.0,127.0,127.0,126.0,88.0,-36.0
126.0,127.0,127.0,128.0,127.0,127.0,107.0,128.0,28.0,-125.0,-65.0,127.0,127.0,127.0,126.0,88.0,-36.0
126.0,127.0,127.0,128.0,127.0,127.0,106.0,128.0,28.0,-125.0,-65.0,127.0,127.0,127.0,126.0,88.0,-36.0
126.0,127.0,127.0,128.0,127.0,127.0,106.0,128.0,28.0,-125.0,-65.0,127.0,127.0,127.0,126.0,88.0,-36.0
126.0,127.0,127.0,128.0,127.0,128.0,107.0,128.0,28.0,-125.0,-65.0,127.0,127.0,127.0,126.0,88.0,-36.0
126.0,127.0,127.0,128.0,127.0,127.0,113.0,128.0,28.0,-125.0,-65.0,127.0,127.0,127.0,126.0,88.0,-36.0
126.0,127.0,127.0,128.0,127.0,127.0,113.0,128.0,28.0,-125.0,-65.0,127.0,127.0,127.0,126.0,88.0,-36.0
126.0,127.0,127.0,128.0,127.0,127.0,111.0,128.0,28.0,-125.0,-65.0,127.0,127.0,127.0,126.0,88.0,-36.0
126.0,126.0,127.0,127.0,127.0,126.0,112.0,127.0,28.0,-125.0,-65.0,127.0,127.0,127.0,126.0,88.0,-36.0
126.0,127.0,127.0,127.0,127.0,127.0,113.0,127.0,28.0,-125.0,-65.0,127.0,127.0,127.0,126.0,88.0,-36.0
126.0,127.0,127.0,127.0,127.0,127.0,113.0,127.0,28.0,-125.0,-65.0,127.0,127.0,127.0,126.0,88.0,-36.0
126.0,127.0,126.0,127.0,127.0,127.0,113.0,128.0,28.0,-125.0,-65.0,127.0,127.0,127.0,126.0,88.0,-36.0
126.0,127.0,126.0,127.0,127.0,127.0,113.0,127.0,28.0,-125.0,-65.0,127.0,127.0,127.0,126.0,88.0,-36.0
126.0,126.0,126.0,127.0,127.0,127.0,113.0,127.0,28.0,-125.0,-65.0,127.0,127.0,127.0,126.0,88.0,-36.0
127.0,127.0,127.0,128.0,127.0,126.0,112.0,127.0,28.0,-125.0,-65.0,127.0,127.0,127.0,126.0,88.0,-36.0
127.0,127.0,127.0,128.0,127.0,126.0,112.0,127.0,28.0,-125.0,-65.0,127.0,127.0,127.0,126.0,88.0,-36.0
127.0,126.0,127.0,128.0,127.0,126.0,113.0,127.0,28.0,-125.0,-65.0,127.0,127.0,127.0,126.0,88.0,-36.0
127.0,127.0,127.0,128.0,127.0,126.0,113.0,127.0,28.0,-125.0,-65.0,127.0,127.0,127.0,126.0,88.0,-36.0
126.0,127.0,127.0,127.0,126.0,127.0,108.0,128.0,29.0,-126.0,-65.0,127.0,127.0,127.0,126.0,88.0,-36.0
126.0,127.0,127.0,128.0,127.0,127.0,111.0,128.0,29.0,-126.0,-65.0,127.0,127.0,127.0,126.0,88.0,-36.0
126.0,127.0,127.0,128.0,127.0,127.0,113.0,128.0,29.0,-126.0,-65.0,127.0,127.0,127.0,126.0,88.0,-36.0
127.0,127.0,127.0,128.0,127.0,127.0,114.0,128.0,29.0,-126.0,-65.0,127.0,127.0,127.0,126.0,88.0,-36.0
127.0,127.0,127.0,128.0,127.0,127.0,113.0,128.0,29.0,-126.0,-65.0,127.0,127.0,127.0,126.0,88.0,-36.0
126.0,127.0,127.0,127.0,126.0,127.0,114.0,128.0,29.0,-126.0,-65.0,127.0,127.0,127.0,126.0,88.0,-36.0
126.0,127.0,127.0,127.0,126.0,127.0,114.0,128.0,29.0,-126.0,-65.0,127.0,127.0,127.0,126.0,88.0,-36.0
126.0,127.0,127.0,127.0,126.0,127.0,113.0,128.0,29.0,-126.0,-65.0,127.0,127.0,127.0,126.0,88.0,-36.0
126.0,127.0,127.0,127.0,126.0,127.0,108.0,128.0,29.0,-126.0,-65.0,127.0,127.0,127.0,126.0,88.0,-36.0
126.0,127.0,127.0,127.0,126.0,127.0,106.0,128.0,29.0,-126.0,-65.0,127.0,127.0,127.0,126.0,88.0,-36.0
127.0,127.0,127.0,127.0,126.0,127.0,111.0,128.0,29.0,-126.0,-64.0,127.0,127.0,127.0,126.0,88.0,-36.0
127.0,127.0,127.0,127.0,126.0,127.0,109.0,128.0,29.0,-126.0,-64.0,127.0,127.0,127.0,126.0,88.0,-36.0
127.0,127.0,127.0,127.0,126.0,127.0,111.0,128.0,29.0,-126.0,-64.0,127.0,127.0,127.0,126.0,88.0,-36.0
127.0,126.0,127.0,127.0,126.0,127.0,113.0,128.0,29.0,-126.0,-64.0,127.0,127.0,127.0,126.0,88.0,-36.0
127.0,126.0,127.0,127.0,126.0,127.0,112.0,128.0,29.0,-126.0,-64.0,127.0,127.0,127.0,126.0,88.0,-36.0
127.0,126.0,127.0,127.0,126.0,127.0,112.0,128.0,29.0,-126.0,-64.0,127.0,127.0,127.0,126.0,88.0,-36.0
127.0,127.0,127.0,127.0,126.0,127.0,112.0,128.0,29.0,-126.0,-64.0,127.0,127.0,127.0,126.0,88.0,-36.0
127.0,126.0,127.0,127.0,126.0,127.0,112.0,128.0,29.0,-126.0,-64.0,127.0,127.0,127.0,126.0,88.0,-36.0
127.0,127.0,127.0,127.0,126.0,127.0,113.0,128.0,29.0,-126.0,-64.0,127.0,127.0,127.0,126.0,88.0,-36.0
127.0,127.0,127.0,127.0,126.0,127.0,112.0,128.0,29.0,-126.0,-64.0,127.0,127.0,127.0,126.0,88.0,-36.0
127.0,127.0,127.0,127.0,127.0,127.0,107.0,128.0,29.0,-126.0,-64.0,127.0,127.0,127.0,126.0,88.0,-36.0
127.0,127.0,127.0,127.0,127.0,127.0,108.0,128.0,29.0,-126.0,-64.0,127.0,127.0,127.0,126.0,88.0,-36.0
127.0,127.0,127.0,127.0,127.0,127.0,108.0,128.0,29.0,-126.0,-64.0,127.0,127.0,127.0,126.0,88.0,-36.0
127.0,127.0,127.0,127.0,127.0,127.0,107.0,128.0,29.0,-126.0,-64.0,127.0,127.0,127.0,126.0,88.0,-36.0
127.0,127.0,127.0,127.0,127.0,127.0,106.0,128.0,29.0,-126.0,-64.0,127.0,127.0,127.0,126.0,88.0,-36.0
127.0,127.0,127.0,127.0,127.0,127.0,106.0,128.0,29.0,-126.0,-64.0,127.0,127.0,127.0,126.0,88.0,-36.0
127.0,127.0,127.0,127.0,127.0,127.0,106.0,128.0,29.0,-126.0,-64.0,127.0,127.0,127.0,126.0,88.0,-36.0
127.0,127.0,127.0,127.0,127.0,127.0,106.0,128.0,29.0,-126.0,-64.0,127.0,127.0,127.0,126.0,88.0,-36.0
127.0,127.0,127.0,127.0,127.0,127.0,107.0,128.0,29.0,-126.0,-64.0,127.0,127.0,127.0,126.0,88.0,-36.0
127.0,127.0,127.0,127.0,127.0,127.0,106.0,128.0,29.0,-126.0,-64.0,127.0,127.0,127.0,126.0,88.0,-36.0
127.0,127.0,127.0,128.0,127.0,126.0,111.0,128.0,29.0,-125.0,-64.0,127.0,127.0,127.0,126.0,88.0,-36.0
127.0,126.0,127.0,127.0,127.0,126.0,111.0,127.0,29.0,-125.0,-64.0,127.0,127.0,127.0,126.0,88.0,-36.0
127.0,127.0,127.0,127.0,127.0,127.0,112.0,128.0,29.0,-125.0,-64.0,127.0,127.0,127.0,126.0,88.0,-36.0
127.0,127.0,127.0,127.0,127.0,126.0,111.0,128.0,29.0,-125.0,-64.0,127.0,127.0,127.0,126.0,88.0,-36.0
127.0,127.0,127.0,128.0,127.0,126.0,111.0,128.0,29.0,-125.0,-64.0,127.0,127.0,127.0,126.0,88.0,-36.0
127.0,127.0,127.0,127.0,127.0,126.0,111.0,128.0,29.0,-125.0,-64.0,127.0,127.0,127.0,126.0,88.0,-36.0
127.0,127.0,127.0,128.0,127.0,126.0,111.0,128.0,29.0,-125.0,-64.0,127.0,127.0,127.0,126.0,88.0,-36.0
127.0,127.0,127.0,128.0,127.0,126.0,111.0,128.0,29.0,-125.0,-64.0,127.0,127.0,127.0,126.0,88.0,-36.0
127.0,127.0,127.0,128.0,127.0,126.0,111.0,128.0,29.0,-125.0,-64.0,127.0,127.0,127.0,126.0,88.0,-36.0
127.0,126.0,127.0,128.0,127.0,126.0,112.0,127.0,29.0,-125.0,-64.0,127.0,127.0,127.0,126.0,88.0,-36.0
126.0,127.0,127.0,127.0,127.0,127.0,106.0,128.0,30.0,-125.0,-63.0,127.0,127.0,127.0,126.0,88.0,-36.0
126.0,127.0,127.0,127.0,127.0,128.0,107.0,128.0,30.0,-125.0,-63.0,127.0,127.0,127.0,126.0,88.0,-36.0
127.0,127.0,127.0,128.0,127.0,127.0,107.0,128.0,30.0,-125.0,-63.0,127.0,127.0,127.0,126.0,88.0,-36.0
127.0,127.0,127.0,128.0,127.0,127.0,106.0,128.0,30.0,-125.0,-63.0,127.0,127.0,127.0,126.0,88.0,-36.0
126.0,127.0,127.0,127.0,127.0,127.0,106.0,128.0,30.0,-125.0,-63.0,127.0,127.0,127.0,126.0,88.0,-36.0
126.0,127.0,127.0,128.0,127.0,127.0,107.0,128.0,30.0,-125.0,-63.0,127.0,127.0,127.0,126.0,88.0,-36.0
126.0,127.0,127.0,128.0,127.0,127.0,107.0,128.0,30.0,-125.0,-63.0,127.0,127.0,127.0,126.0,88.0,-36.0
126.0,127.0,127.0,128.0,127.0,127.0,106.0,128.0,30.0,-125.0,-63.0,127.0,127.0,127.0,126.0,88.0,-36.0
126.0,127.0,127.0,128.0,127.0,128.0,106.0,128.0,30.0,-125.0,-63.0,127.0,127.0,127.0,126.0,88.0,-36.0
126.0,127.0,127.0,128.0,127.0,127.0,106.0,128.0,30.0,-125.0,-63.0,127.0,127.0,127.0,126.0,88.0,-36.0
126.0,127.0,127.0,127.0,126.0,126.0,112.0,127.0,31.0,-125.0,-63.0,127.0,127.0,127.0,126.0,88.0,-36.0
126.0,127.0,127.0,127.0,126.0,126.0,111.0,127.0,31.0,-125.0,-63.0,127.0,127.0,127.0,126.0,88.0,-36.0
126.0,127.0,127.0,127.0,126.0,126.0,111.0,127.0,31.0,-125.0,-63.0,127.0,127.0,127.0,126.0,88.0,-36.0
126.0,127.0,127.0,127.0,126.0,126.0,111.0,127.0,31.0,-125.0,-63.0,127.0,127.0,127.0,126.0,88.0,-36.0
126.0,127.0,127.0,127.0,126.0,126.0,112.0,127.0,31.0,-125.0,-63.0,127.0,127.0,127.0,126.0,88.0,-36.0
126.0,127.0,127.0,127.0,126.0,126.0,112.0,127.0,31.0,-125.0,-63.0,127.0,127.0,127.0,126.0,88.0,-36.0
126.0,127.0,127.0,127.0,126.0,126.0,113.0,128.0,31.0,-125.0,-63.0,127.0,127.0,127.0,126.0,88.0,-36.0
126.0,127.0,127.0,127.0,126.0,126.0,113.0,127.0,31.0,-125.0,-63.0,127.0,127.0,127.0,126.0,88.0,-36.0
126.0,127.0,127.0,127.0,126.0,126.0,112.0,127.0,31.0,-125.0,-63.0,127.0,127.0,127.0,126.0,88.0,-36.0
126.0,127.0,127.0,127.0,126.0,126.0,112.0,127.0,31.0,-125.0,-63.0,127.0,127.0,127.0,126.0,88.0,-36.0
126.0,127.0,127.0,128.0,127.0,126.0,113.0,127.0,32.0,-125.0,-63.0,127.0,127.0,127.0,126.0,88.0,-36.0
126.0,127.0,127.0,128.0,127.0,126.0,113.0,128.0,32.0,-125.0,-63.0,127.0,127.0,127.0,126.0,88.0,-36.0
126.0,127.0,127.0,128.0,127.0,126.0,113.0,127.0,32.0,-125.0,-63.0,127.0,127.0,127.0,126.0,88.0,-36.0
126.0,127.0,127.0,128.0,127.0,126.0,113.0,127.0,32.0,-125.0,-63.0,127.0,127.0,127.0,126.0,88.0,-36.0
126.0,127.0,127.0,128.0,127.0,126.0,113.0,127.0,32.0,-125.0,-63.0,127.0,127.0,127.0,126.0,88.0,-36.0
126.0,127.0,127.0,128.0,127.0,126.0,112.0,127.0,32.0,-125.0,-63.0,127.0,127.0,127.0,126.0,88.0,-36.0
126.0,127.0,127.0,128.0,127.0,126.0,113.0,127.0,32.0,-125.0,-63.0,127.0,127.0,127.0,126.0,88.0,-36.0
126.0,127.0,127.0,128.0,127.0,126.0,112.0,127.0,32.0,-125.0,-63.0,127.0,127.0,127.0,126.0,88.0,-36.0
126.0,126.0,127.0,128.0,127.0,126.0,112.0,127.0,32.0,-125.0,-63.0,127.0,127.0,127.0,126.0,88.0,-36.0
126.0,127.0,127.0,127.0,127.0,126.0,112.0,127.0,32.0,-125.0,-63.0,127.0,127.0,127.0,126.0,88.0,-36.0
126.0,127.0,127.0,127.0,127.0,127.0,112.0,128.0,33.0,-125.0,-63.0,127.0,127.0,127.0,126.0,88.0,-36.0
126.0,127.0,127.0,127.0,127.0,127.0,112.0,128.0,33.0,-125.0,-63.0,127.0,127.0,127.0,126.0,88.0,-36.0
126.0,127.0,127.0,127.0,127.0,126.0,112.0,128.0,33.0,-125.0,-63.0,127.0,127.0,127.0,126.0,88.0,-36.0
126.0,127.0,127.0,127.0,127.0,126.0,112.0,128.0,33.0,-125.0,-63.0,127.0,127.0,127.0,126.0,88.0,-36.0
126.0,127.0,127.0,127.0,127.0,126.0,113.0,128.0,33.0,-125.0,-63.0,127.0,127.0,127.0,126.0,88.0,-36.0
126.0,127.0,127.0,127.0,127.0,126.0,113.0,128.0,33.0,-125.0,-63.0,127.0,127.0,127.0,126.0,88.0,-36.0
126.0,127.0,127.0,127.0,127.0,126.0,112.0,128.0,33.0,-125.0,-63.0,127.0,127.0,127.0,126.0,88.0,-36.0
126.0,127.0,127.0,127.0,127.0,126.0,113.0,128.0,33.0,-125.0,-63.0,127.0,127.0,127.0,126.0,88.0,-36.0
126.0,127.0,127.0,127.0,127.0,126.0,112.0,127.0,33.0,-125.0,-63.0,127.0,127.0,127.0,126.0,88.0,-36.0
126.0,127.0,127.0,127.0,127.0,127.0,112.0,128.0,33.0,-125.0,-63.0,127.0,127.0,127.0,126.0,88.0,-36.0
126.0,127.0,127.0,127.0,126.0,127.0,106.0,128.0,33.0,-126.0,-63.0,127.0,127.0,127.0,126.0,88.0,-36.0
126.0,127.0,127.0,127.0,126.0,127.0,109.0,128.0,33.0,-126.0,-63.0,127.0,127.0,127.0,126.0,88.0,-36.0
126.0,127.0,127.0,127.0,126.0,127.0,113.0,128.0,33.0,-126.0,-63.0,127.0,127.0,127.0,126.0,88.0,-36.0
126.0,127.0,127.0,127.0,126.0,127.0,114.0,128.0,33.0,-126.0,-63.0,127.0,127.0,127.0,126.0,88.0,-36.0
126.0,127.0,127.0,127.0,126.0,127.0,113.0,128.0,33.0,-126.0,-63.0,127.0,127.0,127.0,126.0,88.0,-36.0
126.0,127.0,127.0,127.0,126.0,127.0,112.0,128.0,33.0,-126.0,-63.0,127.0,127.0,127.0,126.0,88.0,-36.0
126.0,126.0,127.0,127.0,126.0,127.0,112.0,128.0,33.0,-126.0,-63.0,127.0,127.0,127.0,126.0,88.0,-36.0
127.0,126.0,127.0,127.0,126.0,127.0,112.0,128.0,33.0,-126.0,-63.0,127.0,127.0,127.0,126.0,88.0,-36.0
126.0,127.0,127.0,127.0,127.0,127.0,106.0,128.0,33.0,-126.0,-63.0,127.0,127.0,127.0,126.0,88.0,-36.0
126.0,127.0,127.0,127.0,126.0,127.0,106.0,128.0,33.0,-126.0,-63.0,127.0,127.0,127.0,126.0,88.0,-36.0
126.0,127.0,127.0,127.0,126.0,127.0,112.0,127.0,33.0,-126.0,-63.0,127.0,127.0,127.0,126.0,88.0,-36.0
126.0,126.0,127.0,127.0,126.0,126.0,112.0,127.0,33.0,-126.0,-63.0,127.0,127.0,127.0,126.0,88.0,-36.0
126.0,126.0,127.0,127.0,127.0,127.0,112.0,127.0,33.0,-126.0,-63.0,127.0,127.0,127.0,126.0,88.0,-36.0
126.0,126.0,127.0,127.0,126.0,127.0,112.0,127.0,33.0,-126.0,-63.0,127.0,127.0,127.0,126.0,88.0,-36.0
126.0,127.0,127.0,127.0,126.0,127.0,112.0,128.0,33.0,-126.0,-63.0,127.0,127.0,127.0,126.0,88.0,-36.0
126.0,127.0,127.0,127.0,126.0,127.0,109.0,128.0,33.0,-126.0,-63.0,127.0,127.0,127.0,126.0,88.0,-36.0
126.0,126.0,127.0,127.0,126.0,127.0,112.0,128.0,33.0,-126.0,-63.0,127.0,127.0,127.0,126.0,88.0,-36.0
126.0,127.0,127.0,127.0,126.0,126.0,112.0,127.0,33.0,-126.0,-63.0,127.0,127.0,127.0,126.0,88.0,-36.0
126.0,127.0,127.0,127.0,126.0,127.0,113.0,127.0,33.0,-126.0,-63.0,127.0,127.0,127.0,126.0,88.0,-36.0
126.0,127.0,127.0,127.0,126.0,127.0,112.0,128.0,33.0,-126.0,-63.0,127.0,127.0,127.0,126.0,88.0,-36.0
127.0,127.0,128.0,128.0,127.0,127.0,113.0,128.0,32.0,-126.0,-63.0,127.0,127.0,127.0,126.0,88.0,-36.0
127.0,127.0,128.0,128.0,127.0,127.0,113.0,128.0,32.0,-126.0,-63.0,127.0,127.0,127.0,126.0,88.0,-36.0
127.0,127.0,128.0,128.0,127.0,127.0,112.0,128.0,32.0,-126.0,-63.0,127.0,127.0,127.0,126.0,88.0,-36.0
127.0,127.0,128.0,127.0,127.0,127.0,113.0,128.0,32.0,-126.0,-63.0,127.0,127.0,127.0,126.0,88.0,-36.0
127.0,127.0,128.0,128.0,127.0,127.0,112.0,128.0,32.0,-126.0,-63.0,127.0,127.0,127.0,126.0,88.0,-36.0
127.0,127.0,128.0,128.0,127.0,127.0,112.0,128.0,32.0,-126.0,-63.0,127.0,127.0,127.0,126.0,88.0,-36.0
127.0,127.0,128.0,128.0,127.0,126.0,112.0,128.0,32.0,-126.0,-63.0,127.0,127.0,127.0,126.0,88.0,-36.0
127.0,127.0,128.0,128.0,127.0,126.0,113.0,127.0,32.0,-126.0,-63.0,127.0,127.0,127.0,126.0,88.0,-36.0
127.0,127.0,128.0,128.0,127.0,126.0,113.0,128.0,32.0,-126.0,-63.0,127.0,127.0,127.0,126.0,88.0,-36.0
127.0,127.0,128.0,128.0,127.0,126.0,112.0,127.0,32.0,-126.0,-63.0,127.0,127.0,127.0,126.0,88.0,-36.0
126.0,127.0,127.0,127.0,127.0,127.0,112.0,128.0,32.0,-126.0,-63.0,127.0,127.0,127.0,126.0,88.0,-36.0
126.0,127.0,127.0,127.0,127.0,127.0,113.0,128.0,32.0,-126.0,-63.0,127.0,127.0,127.0,126.0,88.0,-36.0
126.0,127.0,127.0,127.0,127.0,127.0,112.0,128.0,32.0,-126.0,-63.0,127.0,127.0,127.0,126.0,88.0,-36.0
127.0,127.0,127.0,127.0,127.0,127.0,113.0,128.0,32.0,-126.0,-63.0,127.0,127.0,127.0,126.0,88.0,-36.0
127.0,127.0,127.0,127.0,127.0,127.0,113.0,128.0,32.0,-126.0,-63.0,127.0,127.0,127.0,126.0,88.0,-36.0
126.0,127.0,126.0,127.0,127.0,127.0,112.0,128.0,32.0,-126.0,-63.0,127.0,127.0,127.0,126.0,88.0,-36.0
126.0,127.0,126.0,127.0,127.0,127.0,112.0,128.0,32.0,-126.0,-63.0,127.0,127.0,127.0,126.0,88.0,-36.0
126.0,127.0,127.0,127.0,127.0,127.0,112.0,128.0,32.0,-126.0,-63.0,127.0,127.0,127.0,126.0,88.0,-36.0
126.0,127.0,127.0,127.0,127.0,127.0,112.0,128.0,32.0,-126.0,-63.0,127.0,127.0,127.0,126.0,88.0,-36.0
126.0,127.0,127.0,127.0,127.0,127.0,112.0,128.0,32.0,-126.0,-63.0,127.0,127.0,127.0,126.0,88.0,-36.0
126.0,127.0,128.0,127.0,127.0,127.0,110.0,128.0,31.0,-126.0,-63.0,127.0,127.0,127.0,126.0,88.0,-36.0
126.0,127.0,128.0,127.0,127.0,127.0,108.0,128.0,31.0,-126.0,-63.0,127.0,127.0,127.0,126.0,88.0,-36.0
126.0,127.0,128.0,127.0,127.0,127.0,107.0,128.0,31.0,-126.0,-63.0,127.0,127.0,127.0,126.0,88.0,-36.0
126.0,127.0,127.0,127.0,127.0,127.0,106.0,128.0,31.0,-126.0,-63.0,127.0,127.0,127.0,126.0,88.0,-36.0
126.0,127.0,128.0,127.0,127.0,127.0,108.0,128.0,31.0,-126.0,-63.0,127.0,127.0,127.0,126.0,88.0,-36.0
126.0,127.0,128.0,127.0,127.0,127.0,107.0,128.0,31.0,-126.0,-63.0,127.0,127.0,127.0,126.0,88.0,-36.0
126.0,127.0,128.0,127.0,127.0,127.0,107.0,128.0,31.0,-126.0,-63.0,127.0,127.0,127.0,126.0,88.0,-36.0
126.0,127.0,128.0,127.0,127.0,127.0,106.0,128.0,31.0,-126.0,-63.0,127.0,127.0,127.0,126.0,88.0,-36.0
126.0,127.0,128.0,127.0,127.0,127.0,106.0,128.0,31.0,-126.0,-63.0,127.0,127.0,127.0,126.0,88.0,-36.0
126.0,127.0,128.0,127.0,127.0,127.0,110.0,128.0,31.0,-126.0,-63.0,127.0,127.0,127.0,126.0,88.0,-36.0
126.0,126.0,127.0,127.0,126.0,127.0,112.0,127.0,31.0,-126.0,-64.0,127.0,127.0,127.0,126.0,88.0,-36.0
126.0,126.0,127.0,127.0,126.0,127.0,112.0,127.0,31.0,-126.0,-64.0,127.0,127.0,127.0,126.0,88.0,-36.0
126.0,127.0,127.0,127.0,126.0,127.0,112.0,127.0,31.0,-126.0,-64.0,127.0,127.0,127.0,126.0,88.0,-36.0
126.0,127.0,127.0,127.0,127.0,127.0,112.0,127.0,31.0,-126.0,-64.0,127.0,127.0,127.0,126.0,88.0,-36.0
126.0,127.0,127.0,127.0,127.0,127.0,111.0,127.0,31.0,-126.0,-64.0,127.0,127.0,127.0,126.0,88.0,-36.0
126.0,127.0,127.0,127.0,127.0,127.0,108.0,128.0,31.0,-126.0,-64.0,127.0,127.0,127.0,126.0,88.0,-36.0
126.0,127.0,127.0,127.0,127.0,127.0,112.0,128.0,31.0,-126.0,-64.0,127.0,127.0,127.0,126.0,88.0,-36.0
126.0,127.0,127.0,127.0,127.0,127.0,113.0,127.0,31.0,-126.0,-64.0,127.0,127.0,127.0,126.0,88.0,-36.0
126.0,127.0,127.0,127.0,126.0,127.0,113.0,127.0,31.0,-126.0,-64.0,127.0,127.0,127.0,126.0,88.0,-36.0
126.0,127.0,127.0,127.0,126.0,127.0,112.0,127.0,31.0,-126.0,-64.0,127.0,127.0,127.0,126.0,88.0,-36.0
126.0,127.0,127.0,127.0,126.0,127.0,113.0,128.0,31.0,-126.0,-64.0,127.0,127.0,127.0,126.0,88.0,-36.0
126.0,126.0,127.0,127.0,126.0,127.0,113.0,128.0,31.0,-126.0,-64.0,127.0,127.0,127.0,126.0,88.0,-36.0
126.0,127.0,127.0,127.0,127.0,127.0,110.0,128.0,31.0,-126.0,-64.0,127.0,127.0,127.0,126.0,88.0,-36.0
126.0,127.0,127.0,127.0,127.0,127.0,113.0,128.0,31.0,-126.0,-64.0,127.0,127.0,127.0,126.0,88.0,-36.0
126.0,127.0,127.0,127.0,127.0,127.0,113.0,128.0,31.0,-126.0,-64.0,127.0,127.0,127.0,126.0,88.0,-36.0
126.0,127.0,127.0,127.0,127.0,127.0,114.0,128.0,31.0,-126.0,-64.0,127.0,127.0,127.0,126.0,88.0,-36.0
126.0,127.0,127.0,127.0,127.0,127.0,113.0,128.0,31.0,-126.0,-64.0,127.0,127.0,127.0,126.0,88.0,-36.0
126.0,127.0,127.0,127.0,126.0,127.0,113.0,128.0,31.0,-126.0,-64.0,127.0,127.0,127.0,126.0,88.0,-36.0
126.0,127.0,127.0,127.0,126.0,127.0,113.0,128.0,31.0,-126.0,-64.0,127.0,127.0,127.0,126.0,88.0,-36.0
126.0,127.0,127.0,127.0,126.0,127.0,113.0,128.0,31.0,-126.0,-64.0,127.0,127.0,127.0,126.0,88.0,-36.0
127.0,127.0,127.0,128.0,127.0,127.0,106.0,128.0,30.0,-126.0,-64.0,127.0,127.0,127.0,126.0,88.0,-36.0
126.0,127.0,129.0,128.0,127.0,127.0,106.0,128.0,30.0,-126.0,-64.0,127.0,127.0,127.0,126.0,88.0,-36.0
126.0,127.0,129.0,128.0,127.0,127.0,106.0,128.0,30.0,-126.0,-64.0,127.0,127.0,127.0,126.0,88.0,-36.0
126.0,127.0,129.0,128.0,127.0,127.0,106.0,128.0,30.0,-126.0,-64.0,127.0,127.0,127.0,126.0,88.0,-36.0
126.0,127.0,129.0,128.0,127.0,127.0,106.0,128.0,30.0,-126.0,-64.0,127.0,127.0,127.0,126.0,88.0,-36.0
126.0,127.0,129.0,128.0,127.0,127.0,106.0,128.0,30.0,-126.0,-64.0,127.0,127.0,127.0,126.0,88.0,-36.0
126.0,127.0,129.0,128.0,127.0,127.0,106.0,128.0,30.0,-126.0,-64.0,127.0,127.0,127.0,126.0,88.0,-36.0
126.0,127.0,128.0,128.0,127.0,127.0,106.0,128.0,30.0,-126.0,-64.0,127.0,127.0,127.0,126.0,88.0,-36.0
126.0,127.0,128.0,128.0,127.0,127.0,107.0,128.0,30.0,-126.0,-64.0,127.0,127.0,127.0,126.0,88.0,-36.0
127.0,127.0,128.0,128.0,127.0,127.0,106.0,128.0,30.0,-126.0,-64.0,127.0,127.0,127.0,126.0,88.0,-36.0
