emg1,emg2,emg3,emg4,emg5,emg6,emg7,emg8,acc_x,acc_y,acc_z,gyro_x,gyro_y,gyro_z,angle_pitch,angle_roll,angle_yaw
127.0,127.0,127.0,128.0,126.0,128.0,126.0,128.0,-1.0,111.0,-63.0,127.0,127.0,127.0,-120.0,-91.0,115.0
127.0,127.0,127.0,128.0,126.0,128.0,126.0,128.0,-1.0,111.0,-63.0,127.0,127.0,127.0,-120.0,-91.0,115.0
127.0,127.0,127.0,127.0,126.0,128.0,126.0,128.0,-1.0,110.0,-63.0,127.0,127.0,127.0,-120.0,-91.0,115.0
126.0,127.0,127.0,127.0,126.0,128.0,126.0,128.0,-1.0,110.0,-63.0,127.0,127.0,127.0,-120.0,-91.0,115.0
126.0,127.0,127.0,127.0,126.0,128.0,126.0,128.0,-1.0,110.0,-63.0,127.0,127.0,127.0,-120.0,-91.0,115.0
126.0,127.0,127.0,127.0,126.0,127.0,126.0,128.0,-1.0,110.0,-63.0,127.0,127.0,127.0,-120.0,-91.0,115.0
126.0,127.0,127.0,127.0,127.0,127.0,126.0,128.0,-1.0,110.0,-63.0,127.0,127.0,127.0,-120.0,-91.0,115.0
126.0,127.0,127.0,127.0,126.0,127.0,126.0,128.0,-1.0,110.0,-63.0,127.0,127.0,127.0,-120.0,-91.0,115.0
126.0,127.0,127.0,127.0,127.0,127.0,126.0,128.0,-1.0,110.0,-63.0,127.0,127.0,127.0,-120.0,-91.0,115.0
127.0,127.0,126.0,127.0,126.0,128.0,126.0,128.0,-1.0,110.0,-63.0,127.0,127.0,127.0,-120.0,-91.0,115.0
127.0,127.0,126.0,127.0,126.0,128.0,126.0,128.0,-1.0,110.0,-63.0,127.0,127.0,127.0,-120.0,-91.0,115.0
127.0,127.0,126.0,127.0,126.0,128.0,126.0,128.0,-1.0,110.0,-63.0,127.0,127.0,127.0,-120.0,-91.0,115.0
127.0,127.0,127.0,128.0,126.0,127.0,126.0,128.0,-1.0,110.0,-63.0,127.0,127.0,127.0,-120.0,-91.0,115.0
127.0,127.0,127.0,128.0,126.0,127.0,126.0,128.0,-1.0,110.0,-63.0,127.0,127.0,127.0,-120.0,-91.0,115.0
127.0,127.0,127.0,128.0,126.0,127.0,126.0,128.0,-1.0,110.0,-63.0,127.0,127.0,127.0,-120.0,-91.0,115.0
127.0,127.0,127.0,128.0,126.0,127.0,126.0,128.0,-1.0,110.0,-63.0,127.0,127.0,127.0,-120.0,-91.0,115.0
127.0,127.0,127.0,128.0,127.0,127.0,126.0,128.0,-1.0,110.0,-63.0,127.0,127.0,127.0,-120.0,-91.0,115.0
127.0,127.0,127.0,128.0,127.0,127.0,126.0,128.0,-1.0,110.0,-63.0,127.0,127.0,127.0,-120.0,-91.0,115.0
127.0,127.0,127.0,128.0,126.0,128.0,126.0,128.0,-1.0,110.0,-63.0,127.0,127.0,127.0,-120.0,-91.0,115.0
127.0,127.0,127.0,128.0,126.0,128.0,126.0,128.0,-1.0,110.0,-63.0,127.0,127.0,127.0,-120.0,-91.0,115.0
127.0,127.0,127.0,128.0,126.0,128.0,126.0,128.0,-1.0,110.0,-63.0,127.0,127.0,127.0,-120.0,-91.0,115.0
127.0,127.0,127.0,128.0,126.0,128.0,126.0,128.0,-1.0,110.0,-63.0,127.0,127.0,127.0,-120.0,-91.0,115.0
127.0,127.0,127.0,127.0,126.0,128.0,126.0,128.0,-1.0,110.0,-63.0,127.0,127.0,127.0,-120.0,-91.0,115.0
127.0,127.0,127.0,127.0,126.0,128.0,126.0,128.0,-1.0,110.0,-63.0,127.0,127.0,127.0,-120.0,-91.0,115.0
126.0,127.0,127.0,127.0,126.0,128.0,126.0,128.0,-1.0,110.0,-63.0,127.0,127.0,127.0,-120.0,-91.0,115.0
126.0,127.0,127.0,127.0,126.0,127.0,126.0,128.0,-1.0,110.0,-63.0,127.0,127.0,127.0,-120.0,-91.0,115.0
126.0,127.0,127.0,127.0,126.0,127.0,125.0,128.0,-1.0,110.0,-63.0,127.0,127.0,127.0,-120.0,-91.0,115.0
127.0,127.0,127.0,127.0,126.0,127.0,126.0,128.0,-1.0,110.0,-63.0,127.0,127.0,127.0,-120.0,-91.0,115.0
127.0,127.0,127.0,127.0,126.0,127.0,126.0,128.0,-1.0,110.0,-63.0,127.0,127.0,127.0,-120.0,-91.0,115.0
127.0,127.0,127.0,127.0,126.0,127.0,126.0,128.0,-1.0,110.0,-63.0,127.0,127.0,127.0,-120.0,-91.0,115.0
126.0,127.0,127.0,127.0,126.0,127.0,126.0,128.0,-1.0,110.0,-63.0,127.0,127.0,127.0,-120.0,-91.0,115.0
126.0,127.0,127.0,127.0,126.0,128.0,126.0,128.0,-1.0,110.0,-63.0,127.0,127.0,127.0,-120.0,-91.0,115.0
127.0,127.0,127.0,127.0,126.0,126.0,127.0,127.0,-1.0,110.0,-63.0,127.0,127.0,127.0,-120.0,-91.0,115.0
127.0,127.0,127.0,128.0,126.0,126.0,127.0,127.0,-1.0,110.0,-63.0,127.0,127.0,127.0,-120.0,-91.0,115.0
127.0,126.0,127.0,127.0,126.0,126.0,127.0,127.0,-1.0,110.0,-63.0,127.0,127.0,127.0,-120.0,-91.0,115.0
127.0,126.0,127.0,128.0,126.0,126.0,127.0,127.0,-1.0,110.0,-63.0,127.0,127.0,127.0,-120.0,-91.0,115.0
127.0,127.0,127.0,127.0,126.0,126.0,126.0,127.0,-1.0,110.0,-63.0,127.0,127.0,127.0,-120.0,-91.0,115.0
127.0,127.0,127.0,127.0,126.0,126.0,126.0,127.0,-1.0,110.0,-63.0,127.0,127.0,127.0,-120.0,-91.0,115.0
127.0,127.0,127.0,127.0,126.0,126.0,126.0,127.0,-1.0,110.0,-63.0,127.0,127.0,127.0,-120.0,-91.0,115.0
127.0,127.0,127.0,127.0,126.0,126.0,126.0,127.0,-1.0,110.0,-63.0,127.0,127.0,127.0,-120.0,-91.0,115.0
127.0,127.0,127.0,127.0,126.0,126.0,126.0,127.0,-1.0,110.0,-63.0,127.0,127.0,127.0,-120.0,-91.0,115.0
127.0,127.0,127.0,127.0,126.0,126.0,126.0,127.0,-1.0,110.0,-63.0,127.0,127.0,127.0,-120.0,-91.0,115.0
127.0,127.0,127.0,127.0,126.0,127.0,127.0,128.0,-1.0,111.0,-63.0,127.0,127.0,127.0,-120.0,-91.0,115.0
127.0,127.0,127.0,127.0,126.0,128.0,127.0,128.0,-1.0,111.0,-63.0,127.0,127.0,127.0,-120.0,-91.0,115.0
127.0,127.0,127.0,127.0,127.0,128.0,127.0,128.0,-1.0,111.0,-63.0,127.0,127.0,127.0,-120.0,-91.0,115.0
127.0,127.0,127.0,127.0,127.0,126.0,128.0,127.0,-1.0,111.0,-63.0,127.0,127.0,127.0,-120.0,-91.0,115.0
127.0,127.0,127.0,127.0,126.0,127.0,127.0,127.0,-1.0,111.0,-63.0,127.0,127.0,127.0,-120.0,-91.0,115.0
127.0,127.0,127.0,127.0,126.0,127.0,127.0,128.0,-1.0,111.0,-63.0,127.0,127.0,127.0,-120.0,-91.0,115.0
127.0,127.0,127.0,127.0,126.0,127.0,127.0,128.0,-1.0,111.0,-63.0,127.0,127.0,127.0,-120.0,-91.0,115.0
127.0,127.0,127.0,127.0,127.0,127.0,127.0,128.0,-1.0,111.0,-63.0,127.0,127.0,127.0,-120.0,-91.0,115.0
127.0,127.0,127.0,127.0,127.0,127.0,127.0,128.0,-1.0,111.0,-63.0,127.0,127.0,127.0,-120.0,-91.0,115.0
127.0,127.0,127.0,127.0,127.0,127.0,127.0,128.0,-1.0,111.0,-63.0,127.0,127.0,127.0,-120.0,-91.0,115.0
127.0,127.0,127.0,127.0,126.0,129.0,126.0,128.0,-1.0,111.0,-63.0,127.0,127.0,127.0,-120.0,-91.0,115.0
127.0,127.0,127.0,128.0,127.0,129.0,126.0,128.0,-1.0,111.0,-63.0,127.0,127.0,127.0,-120.0,-91.0,115.0
126.0,127.0,127.0,127.0,127.0,126.0,127.0,128.0,-1.0,111.0,-63.0,127.0,127.0,127.0,-120.0,-91.0,115.0
127.0,127.0,127.0,127.0,126.0,127.0,127.0,128.0,-1.0,111.0,-63.0,127.0,127.0,127.0,-120.0,-91.0,115.0
127.0,127.0,126.0,127.0,126.0,128.0,127.0,128.0,-1.0,111.0,-63.0,127.0,127.0,127.0,-120.0,-91.0,115.0
127.0,127.0,127.0,127.0,126.0,128.0,127.0,128.0,-1.0,111.0,-63.0,127.0,127.0,127.0,-120.0,-91.0,115.0
127.0,127.0,127.0,127.0,127.0,128.0,127.0,128.0,-1.0,111.0,-63.0,127.0,127.0,127.0,-120.0,-91.0,115.0
127.0,127.0,127.0,127.0,127.0,127.0,127.0,128.0,-1.0,111.0,-63.0,127.0,127.0,127.0,-120.0,-91.0,115.0
127.0,127.0,127.0,127.0,127.0,128.0,127.0,128.0,-1.0,111.0,-63.0,127.0,127.0,127.0,-120.0,-91.0,115.0
127.0,127.0,127.0,127.0,127.0,128.0,126.0,128.0,-1.0,111.0,-63.0,127.0,127.0,127.0,-120.0,-91.0,115.0
127.0,127.0,127.0,127.0,126.0,128.0,127.0,128.0,-1.0,111.0,-63.0,127.0,127.0,127.0,-120.0,-91.0,115.0
127.0,127.0,127.0,127.0,126.0,126.0,127.0,127.0,-1.0,111.0,-63.0,127.0,127.0,127.0,-120.0,-91.0,115.0
127.0,127.0,126.0,127.0,126.0,126.0,127.0,128.0,-1.0,111.0,-63.0,127.0,127.0,127.0,-120.0,-91.0,115.0
127.0,127.0,126.0,127.0,126.0,127.0,127.0,128.0,-1.0,111.0,-63.0,127.0,127.0,127.0,-120.0,-91.0,115.0
127.0,127.0,126.0,127.0,126.0,127.0,127.0,128.0,-1.0,111.0,-63.0,127.0,127.0,127.0,-120.0,-91.0,115.0
127.0,127.0,126.0,127.0,126.0,127.0,127.0,128.0,-1.0,111.0,-63.0,127.0,127.0,127.0,-120.0,-91.0,115.0
127.0,127.0,127.0,127.0,126.0,127.0,127.0,128.0,-1.0,111.0,-63.0,127.0,127.0,127.0,-120.0,-91.0,115.0
127.0,127.0,127.0,127.0,126.0,127.0,127.0,128.0,-1.0,111.0,-63.0,127.0,127.0,127.0,-120.0,-91.0,115.0
127.0,127.0,127.0,127.0,126.0,127.0,127.0,128.0,-1.0,111.0,-63.0,127.0,127.0,127.0,-120.0,-91.0,115.0
127.0,127.0,126.0,127.0,126.0,128.0,127.0,128.0,-1.0,111.0,-63.0,127.0,127.0,127.0,-120.0,-91.0,115.0
127.0,127.0,126.0,127.0,127.0,126.0,127.0,127.0,-1.0,111.0,-63.0,127.0,127.0,127.0,-120.0,-91.0,115.0
127.0,127.0,126.0,127.0,126.0,126.0,127.0,127.0,-1.0,111.0,-63.0,127.0,127.0,127.0,-120.0,-91.0,115.0
127.0,127.0,126.0,127.0,126.0,127.0,127.0,127.0,-1.0,111.0,-63.0,127.0,127.0,127.0,-120.0,-91.0,115.0
127.0,127.0,126.0,127.0,126.0,127.0,127.0,128.0,-1.0,111.0,-63.0,127.0,127.0,127.0,-120.0,-91.0,115.0
127.0,127.0,126.0,127.0,126.0,127.0,127.0,127.0,-1.0,111.0,-63.0,127.0,127.0,127.0,-120.0,-91.0,115.0
127.0,127.0,126.0,127.0,126.0,127.0,127.0,127.0,-1.0,111.0,-63.0,127.0,127.0,127.0,-120.0,-91.0,115.0
127.0,127.0,126.0,127.0,126.0,127.0,126.0,127.0,-1.0,111.0,-63.0,127.0,127.0,127.0,-120.0,-91.0,115.0
126.0,127.0,127.0,127.0,126.0,127.0,126.0,127.0,-1.0,111.0,-63.0,127.0,127.0,127.0,-120.0,-91.0,115.0
127.0,127.0,126.0,127.0,126.0,128.0,126.0,128.0,-1.0,111.0,-63.0,127.0,127.0,127.0,-120.0,-91.0,115.0
127.0,127.0,126.0,127.0,126.0,128.0,126.0,128.0,-1.0,111.0,-63.0,127.0,127.0,127.0,-120.0,-91.0,115.0
126.0,127.0,126.0,127.0,126.0,126.0,127.0,127.0,-1.0,111.0,-63.0,127.0,127.0,127.0,-120.0,-91.0,115.0
126.0,127.0,126.0,127.0,126.0,127.0,127.0,127.0,-1.0,111.0,-63.0,127.0,127.0,127.0,-120.0,-91.0,115.0
126.0,127.0,126.0,127.0,126.0,127.0,126.0,127.0,-1.0,111.0,-63.0,127.0,127.0,127.0,-120.0,-91.0,115.0
126.0,127.0,126.0,127.0,126.0,127.0,126.0,127.0,-1.0,111.0,-63.0,127.0,127.0,127.0,-120.0,-91.0,115.0
126.0,127.0,126.0,127.0,126.0,127.0,126.0,127.0,-1.0,111.0,-63.0,127.0,127.0,127.0,-120.0,-91.0,115.0
126.0,127.0,126.0,127.0,126.0,127.0,126.0,127.0,-1.0,111.0,-63.0,127.0,127.0,127.0,-120.0,-91.0,115.0
126.0,127.0,127.0,127.0,127.0,127.0,126.0,127.0,-1.0,111.0,-63.0,127.0,127.0,127.0,-120.0,-91.0,115.0
126.0,127.0,126.0,127.0,126.0,128.0,126.0,127.0,-1.0,111.0,-63.0,127.0,127.0,127.0,-120.0,-91.0,115.0
126.0,127.0,126.0,128.0,126.0,128.0,126.0,128.0,-1.0,111.0,-63.0,127.0,127.0,127.0,-120.0,-91.0,115.0
126.0,127.0,126.0,127.0,126.0,126.0,127.0,127.0,-1.0,111.0,-63.0,127.0,127.0,127.0,-120.0,-91.0,115.0
127.0,127.0,127.0,127.0,126.0,127.0,127.0,128.0,-1.0,111.0,-63.0,127.0,127.0,127.0,-120.0,-91.0,115.0
127.0,127.0,127.0,128.0,126.0,128.0,127.0,128.0,-1.0,111.0,-63.0,127.0,127.0,127.0,-120.0,-91.0,115.0
127.0,127.0,127.0,128.0,126.0,128.0,127.0,128.0,-1.0,111.0,-63.0,127.0,127.0,127.0,-120.0,-91.0,115.0
127.0,127.0,127.0,128.0,126.0,127.0,127.0,128.0,-1.0,111.0,-63.0,127.0,127.0,127.0,-120.0,-91.0,115.0
127.0,127.0,127.0,128.0,126.0,127.0,127.0,128.0,-1.0,111.0,-63.0,127.0,127.0,127.0,-120.0,-91.0,115.0
127.0,127.0,127.0,128.0,126.0,127.0,127.0,128.0,-1.0,111.0,-63.0,127.0,127.0,127.0,-120.0,-91.0,115.0
127.0,127.0,127.0,127.0,126.0,128.0,126.0,128.0,-1.0,111.0,-63.0,127.0,127.0,127.0,-120.0,-91.0,115.0
127.0,127.0,127.0,128.0,126.0,128.0,126.0,128.0,-1.0,111.0,-63.0,127.0,127.0,127.0,-120.0,-91.0,115.0
127.0,127.0,127.0,127.0,126.0,127.0,127.0,128.0,-1.0,111.0,-63.0,127.0,127.0,127.0,-120.0,-91.0,115.0
127.0,127.0,127.0,127.0,126.0,127.0,127.0,128.0,-1.0,111.0,-63.0,127.0,127.0,127.0,-120.0,-91.0,115.0
126.0,127.0,127.0,127.0,126.0,127.0,127.0,128.0,-1.0,111.0,-63.0,127.0,127.0,127.0,-120.0,-91.0,115.0
126.0,127.0,127.0,127.0,126.0,127.0,127.0,128.0,-1.0,111.0,-63.0,127.0,127.0,127.0,-120.0,-91.0,115.0
126.0,127.0,127.0,127.0,126.0,127.0,127.0,128.0,-1.0,111.0,-63.0,127.0,127.0,127.0,-120.0,-91.0,115.0
126.0,127.0,127.0,127.0,126.0,127.0,127.0,128.0,-1.0,111.0,-63.0,127.0,127.0,127.0,-120.0,-91.0,115.0
126.0,127.0,127.0,127.0,126.0,127.0,127.0,128.0,-1.0,111.0,-63.0,127.0,127.0,127.0,-120.0,-91.0,115.0
126.0,127.0,127.0,127.0,126.0,127.0,126.0,128.0,-1.0,111.0,-63.0,127.0,127.0,127.0,-120.0,-91.0,115.0
126.0,127.0,127.0,128.0,126.0,128.0,126.0,128.0,-1.0,111.0,-63.0,127.0,127.0,127.0,-120.0,-91.0,115.0
126.0,127.0,127.0,127.0,126.0,126.0,127.0,128.0,-1.0,111.0,-63.0,127.0,127.0,127.0,-120.0,-91.0,115.0
126.0,127.0,127.0,127.0,126.0,126.0,127.0,128.0,-1.0,111.0,-63.0,127.0,127.0,127.0,-120.0,-91.0,115.0
126.0,127.0,127.0,127.0,126.0,127.0,127.0,128.0,-1.0,111.0,-63.0,127.0,127.0,127.0,-120.0,-91.0,115.0
126.0,127.0,127.0,127.0,126.0,126.0,127.0,127.0,-1.0,111.0,-63.0,127.0,127.0,127.0,-120.0,-91.0,115.0
126.0,127.0,127.0,127.0,126.0,126.0,127.0,127.0,-1.0,111.0,-63.0,127.0,127.0,127.0,-120.0,-91.0,115.0
126.0,127.0,127.0,127.0,126.0,126.0,127.0,127.0,-1.0,111.0,-63.0,127.0,127.0,127.0,-120.0,-91.0,115.0
126.0,127.0,127.0,127.0,126.0,126.0,127.0,127.0,-1.0,111.0,-63.0,127.0,127.0,127.0,-120.0,-91.0,115.0
126.0,127.0,127.0,127.0,126.0,126.0,127.0,127.0,-1.0,111.0,-63.0,127.0,127.0,127.0,-120.0,-91.0,115.0
126.0,127.0,127.0,127.0,126.0,126.0,127.0,127.0,-1.0,111.0,-63.0,127.0,127.0,127.0,-120.0,-91.0,115.0
126.0,127.0,127.0,127.0,126.0,126.0,127.0,127.0,-1.0,111.0,-63.0,127.0,127.0,127.0,-120.0,-91.0,115.0
126.0,127.0,127.0,127.0,126.0,126.0,127.0,127.0,-1.0,111.0,-63.0,127.0,127.0,127.0,-120.0,-91.0,115.0
126.0,127.0,127.0,127.0,126.0,126.0,127.0,127.0,-1.0,111.0,-63.0,127.0,127.0,127.0,-120.0,-91.0,115.0
126.0,127.0,127.0,127.0,126.0,126.0,127.0,127.0,-1.0,111.0,-63.0,127.0,127.0,127.0,-120.0,-91.0,115.0
127.0,127.0,127.0,127.0,126.0,127.0,126.0,127.0,-1.0,111.0,-63.0,127.0,127.0,127.0,-120.0,-91.0,115.0
127.0,127.0,127.0,127.0,126.0,128.0,126.0,128.0,-1.0,111.0,-63.0,127.0,127.0,127.0,-120.0,-91.0,115.0
127.0,127.0,127.0,128.0,126.0,128.0,126.0,128.0,-1.0,111.0,-63.0,127.0,127.0,127.0,-120.0,-91.0,115.0
127.0,127.0,127.0,128.0,126.0,128.0,126.0,128.0,-1.0,111.0,-63.0,127.0,127.0,127.0,-120.0,-91.0,115.0
127.0,127.0,127.0,128.0,126.0,128.0,126.0,128.0,-1.0,111.0,-63.0,127.0,127.0,127.0,-120.0,-91.0,115.0
127.0,127.0,127.0,127.0,126.0,127.0,127.0,128.0,-1.0,111.0,-63.0,127.0,127.0,127.0,-120.0,-91.0,115.0
127.0,127.0,127.0,127.0,126.0,127.0,126.0,128.0,-1.0,111.0,-63.0,127.0,127.0,127.0,-120.0,-91.0,115.0
127.0,127.0,127.0,127.0,126.0,127.0,126.0,127.0,-1.0,111.0,-63.0,127.0,127.0,127.0,-120.0,-91.0,115.0
127.0,127.0,127.0,127.0,126.0,127.0,126.0,127.0,-1.0,111.0,-63.0,127.0,127.0,127.0,-120.0,-91.0,115.0
127.0,127.0,127.0,127.0,126.0,127.0,126.0,127.0,-1.0,111.0,-63.0,127.0,127.0,127.0,-120.0,-91.0,115.0
127.0,127.0,127.0,128.0,126.0,128.0,127.0,128.0,-1.0,111.0,-63.0,127.0,127.0,127.0,-120.0,-91.0,115.0
126.0,127.0,127.0,128.0,126.0,128.0,126.0,128.0,-1.0,111.0,-63.0,127.0,127.0,127.0,-120.0,-91.0,115.0
127.0,127.0,127.0,128.0,126.0,128.0,126.0,128.0,-1.0,111.0,-63.0,127.0,127.0,127.0,-120.0,-91.0,115.0
127.0,127.0,127.0,128.0,126.0,128.0,126.0,128.0,-1.0,111.0,-63.0,127.0,127.0,127.0,-120.0,-91.0,115.0
127.0,127.0,127.0,127.0,126.0,127.0,127.0,128.0,-1.0,111.0,-63.0,127.0,127.0,127.0,-120.0,-91.0,115.0
127.0,127.0,127.0,127.0,126.0,127.0,127.0,128.0,-1.0,111.0,-63.0,127.0,127.0,127.0,-120.0,-91.0,115.0
127.0,127.0,127.0,128.0,126.0,127.0,127.0,128.0,-1.0,111.0,-63.0,127.0,127.0,127.0,-120.0,-91.0,115.0
127.0,127.0,127.0,127.0,126.0,127.0,127.0,128.0,-1.0,111.0,-63.0,127.0,127.0,127.0,-120.0,-91.0,115.0
127.0,127.0,127.0,127.0,126.0,127.0,127.0,128.0,-1.0,111.0,-63.0,127.0,127.0,127.0,-120.0,-91.0,115.0
127.0,127.0,127.0,128.0,126.0,127.0,127.0,128.0,-1.0,111.0,-63.0,127.0,127.0,127.0,-120.0,-91.0,115.0
127.0,127.0,126.0,128.0,126.0,128.0,126.0,128.0,-1.0,111.0,-63.0,127.0,127.0,127.0,-120.0,-91.0,115.0
126.0,127.0,126.0,128.0,126.0,128.0,126.0,128.0,-1.0,111.0,-63.0,127.0,127.0,127.0,-120.0,-91.0,115.0
126.0,127.0,127.0,128.0,126.0,128.0,126.0,128.0,-1.0,111.0,-63.0,127.0,127.0,127.0,-120.0,-91.0,115.0
126.0,127.0,126.0,127.0,126.0,127.0,127.0,128.0,-1.0,111.0,-63.0,127.0,127.0,127.0,-120.0,-91.0,115.0
126.0,127.0,126.0,127.0,126.0,128.0,126.0,128.0,-1.0,111.0,-63.0,127.0,127.0,127.0,-120.0,-91.0,115.0
126.0,127.0,126.0,127.0,126.0,127.0,126.0,128.0,-1.0,111.0,-63.0,127.0,127.0,127.0,-120.0,-91.0,115.0
126.0,127.0,126.0,127.0,126.0,127.0,126.0,128.0,-1.0,111.0,-63.0,127.0,127.0,127.0,-120.0,-91.0,115.0
126.0,127.0,126.0,128.0,126.0,127.0,126.0,128.0,-1.0,111.0,-63.0,127.0,127.0,127.0,-120.0,-91.0,115.0
126.0,127.0,126.0,128.0,126.0,127.0,126.0,128.0,-1.0,111.0,-63.0,127.0,127.0,127.0,-120.0,-91.0,115.0
126.0,127.0,126.0,128.0,126.0,128.0,126.0,128.0,-1.0,111.0,-63.0,127.0,127.0,127.0,-120.0,-91.0,115.0
127.0,127.0,127.0,127.0,126.0,128.0,126.0,128.0,-1.0,111.0,-63.0,127.0,127.0,127.0,-120.0,-91.0,115.0
127.0,127.0,127.0,127.0,126.0,128.0,126.0,128.0,-1.0,111.0,-63.0,127.0,127.0,127.0,-120.0,-91.0,115.0
127.0,127.0,126.0,127.0,126.0,127.0,127.0,128.0,-1.0,111.0,-63.0,127.0,127.0,127.0,-120.0,-91.0,115.0
127.0,127.0,126.0,127.0,126.0,127.0,127.0,128.0,-1.0,111.0,-63.0,127.0,127.0,127.0,-120.0,-91.0,115.0
127.0,127.0,127.0,127.0,126.0,127.0,127.0,128.0,-1.0,111.0,-63.0,127.0,127.0,127.0,-120.0,-91.0,115.0
127.0,127.0,127.0,127.0,126.0,127.0,127.0,128.0,-1.0,111.0,-63.0,127.0,127.0,127.0,-120.0,-91.0,115.0
127.0,127.0,127.0,127.0,126.0,127.0,127.0,128.0,-1.0,111.0,-63.0,127.0,127.0,127.0,-120.0,-91.0,115.0
127.0,127.0,127.0,127.0,126.0,127.0,127.0,128.0,-1.0,111.0,-63.0,127.0,127.0,127.0,-120.0,-91.0,115.0
127.0,127.0,127.0,127.0,126.0,127.0,126.0,128.0,-1.0,111.0,-63.0,127.0,127.0,127.0,-120.0,-91.0,115.0
127.0,127.0,127.0,128.0,126.0,128.0,126.0,128.0,-1.0,111.0,-63.0,127.0,127.0,127.0,-120.0,-91.0,115.0
127.0,127.0,127.0,128.0,126.0,128.0,127.0,129.0,-1.0,111.0,-63.0,127.0,127.0,127.0,-120.0,-91.0,115.0
127.0,127.0,127.0,127.0,126.0,127.0,127.0,128.0,-1.0,111.0,-63.0,127.0,127.0,127.0,-120.0,-91.0,115.0
127.0,127.0,127.0,127.0,126.0,128.0,127.0,128.0,-1.0,111.0,-63.0,127.0,127.0,127.0,-120.0,-91.0,115.0
127.0,127.0,127.0,127.0,126.0,128.0,127.0,128.0,-1.0,111.0,-63.0,127.0,127.0,127.0,-120.0,-91.0,115.0
127.0,127.0,127.0,127.0,126.0,127.0,127.0,128.0,-1.0,111.0,-63.0,127.0,127.0,127.0,-120.0,-91.0,115.0
127.0,127.0,127.0,128.0,126.0,127.0,127.0,128.0,-1.0,111.0,-63.0,127.0,127.0,127.0,-120.0,-91.0,115.0
127.0,127.0,127.0,128.0,126.0,127.0,127.0,128.0,-1.0,111.0,-63.0,127.0,127.0,127.0,-120.0,-91.0,115.0
127.0,127.0,127.0,128.0,126.0,127.0,127.0,128.0,-1.0,111.0,-63.0,127.0,127.0,127.0,-120.0,-91.0,115.0
127.0,127.0,127.0,128.0,126.0,128.0,127.0,129.0,-1.0,111.0,-63.0,127.0,127.0,127.0,-120.0,-91.0,115.0
127.0,127.0,127.0,128.0,126.0,128.0,127.0,129.0,-1.0,111.0,-63.0,127.0,127.0,127.0,-120.0,-91.0,115.0
127.0,127.0,126.0,127.0,126.0,126.0,127.0,128.0,-1.0,111.0,-63.0,127.0,127.0,127.0,-120.0,-91.0,115.0
127.0,127.0,126.0,127.0,126.0,127.0,127.0,128.0,-1.0,111.0,-63.0,127.0,127.0,127.0,-120.0,-91.0,115.0
127.0,127.0,126.0,127.0,126.0,127.0,127.0,128.0,-1.0,111.0,-63.0,127.0,127.0,127.0,-120.0,-91.0,115.0
127.0,127.0,126.0,127.0,126.0,127.0,127.0,128.0,-1.0,111.0,-63.0,127.0,127.0,127.0,-120.0,-91.0,115.0
127.0,127.0,127.0,127.0,126.0,127.0,127.0,128.0,-1.0,111.0,-63.0,127.0,127.0,127.0,-120.0,-91.0,115.0
127.0,127.0,127.0,127.0,126.0,127.0,127.0,128.0,-1.0,111.0,-63.0,127.0,127.0,127.0,-120.0,-91.0,115.0
127.0,127.0,127.0,127.0,126.0,127.0,126.0,128.0,-1.0,111.0,-63.0,127.0,127.0,127.0,-120.0,-91.0,115.0
127.0,127.0,126.0,127.0,126.0,128.0,126.0,128.0,-1.0,111.0,-63.0,127.0,127.0,127.0,-120.0,-91.0,115.0
127.0,127.0,126.0,127.0,126.0,128.0,126.0,128.0,-1.0,111.0,-63.0,127.0,127.0,127.0,-120.0,-91.0,115.0
127.0,127.0,126.0,127.0,126.0,128.0,126.0,128.0,-1.0,111.0,-63.0,127.0,127.0,127.0,-120.0,-91.0,115.0
127.0,127.0,126.0,127.0,126.0,127.0,127.0,128.0,-1.0,111.0,-63.0,127.0,127.0,127.0,-120.0,-91.0,115.0
127.0,127.0,126.0,127.0,126.0,127.0,127.0,128.0,-1.0,111.0,-63.0,127.0,127.0,127.0,-120.0,-91.0,115.0
127.0,127.0,126.0,127.0,127.0,127.0,127.0,128.0,-1.0,111.0,-63.0,127.0,127.0,127.0,-120.0,-91.0,115.0
127.0,127.0,127.0,127.0,127.0,127.0,127.0,128.0,-1.0,111.0,-63.0,127.0,127.0,127.0,-120.0,-91.0,115.0
127.0,127.0,126.0,127.0,127.0,127.0,127.0,128.0,-1.0,111.0,-63.0,127.0,127.0,127.0,-120.0,-91.0,115.0
127.0,127.0,126.0,127.0,127.0,127.0,127.0,128.0,-1.0,111.0,-63.0,127.0,127.0,127.0,-120.0,-91.0,115.0
127.0,127.0,126.0,127.0,126.0,128.0,127.0,128.0,-1.0,111.0,-63.0,127.0,127.0,127.0,-120.0,-91.0,115.0
127.0,127.0,126.0,127.0,127.0,128.0,126.0,128.0,-1.0,111.0,-63.0,127.0,127.0,127.0,-120.0,-91.0,115.0
127.0,127.0,127.0,128.0,127.0,128.0,126.0,128.0,-1.0,111.0,-63.0,127.0,127.0,127.0,-120.0,-91.0,115.0
127.0,127.0,126.0,127.0,127.0,126.0,127.0,127.0,-1.0,111.0,-63.0,127.0,127.0,127.0,-120.0,-91.0,115.0
127.0,127.0,127.0,127.0,126.0,126.0,127.0,127.0,-1.0,111.0,-63.0,127.0,127.0,127.0,-120.0,-91.0,115.0
127.0,127.0,127.0,127.0,126.0,126.0,127.0,127.0,-1.0,111.0,-63.0,127.0,127.0,127.0,-120.0,-91.0,115.0
127.0,127.0,127.0,127.0,126.0,126.0,127.0,127.0,-1.0,111.0,-63.0,127.0,127.0,127.0,-120.0,-91.0,115.0
127.0,127.0,127.0,127.0,127.0,126.0,127.0,127.0,-1.0,111.0,-63.0,127.0,127.0,127.0,-120.0,-91.0,115.0
127.0,127.0,127.0,127.0,127.0,126.0,127.0,127.0,-1.0,111.0,-63.0,127.0,127.0,127.0,-120.0,-91.0,115.0
127.0,127.0,127.0,127.0,127.0,126.0,127.0,127.0,-1.0,111.0,-63.0,127.0,127.0,127.0,-120.0,-91.0,115.0
127.0,126.0,127.0,127.0,127.0,126.0,127.0,127.0,-1.0,111.0,-63.0,127.0,127.0,127.0,-120.0,-91.0,115.0
127.0,127.0,127.0,127.0,127.0,126.0,127.0,128.0,-1.0,111.0,-63.0,127.0,127.0,127.0,-120.0,-91.0,115.0
127.0,127.0,127.0,127.0,126.0,126.0,127.0,127.0,-1.0,111.0,-63.0,127.0,127.0,127.0,-120.0,-91.0,115.0
127.0,127.0,127.0,127.0,126.0,126.0,127.0,127.0,-1.0,111.0,-63.0,127.0,127.0,127.0,-120.0,-91.0,115.0
127.0,127.0,127.0,127.0,127.0,126.0,127.0,128.0,-1.0,111.0,-63.0,127.0,127.0,127.0,-120.0,-91.0,115.0
127.0,127.0,127.0,127.0,126.0,127.0,126.0,128.0,-1.0,111.0,-63.0,127.0,127.0,127.0,-120.0,-91.0,115.0
127.0,127.0,127.0,127.0,126.0,127.0,126.0,128.0,-1.0,111.0,-63.0,127.0,127.0,127.0,-120.0,-91.0,115.0
127.0,127.0,127.0,127.0,126.0,127.0,126.0,128.0,-1.0,111.0,-63.0,127.0,127.0,127.0,-120.0,-91.0,115.0
127.0,127.0,127.0,127.0,126.0,127.0,126.0,128.0,-1.0,111.0,-63.0,127.0,127.0,127.0,-120.0,-91.0,115.0
127.0,127.0,127.0,127.0,126.0,127.0,126.0,128.0,-1.0,111.0,-63.0,127.0,127.0,127.0,-120.0,-91.0,115.0
127.0,127.0,127.0,128.0,126.0,127.0,126.0,128.0,-1.0,111.0,-63.0,127.0,127.0,127.0,-120.0,-91.0,115.0
127.0,127.0,127.0,127.0,126.0,126.0,127.0,128.0,-1.0,111.0,-63.0,127.0,127.0,127.0,-120.0,-91.0,115.0
127.0,127.0,127.0,127.0,127.0,126.0,127.0,128.0,-1.0,111.0,-63.0,127.0,127.0,127.0,-120.0,-91.0,115.0
127.0,127.0,127.0,127.0,127.0,126.0,127.0,128.0,-1.0,111.0,-63.0,127.0,127.0,127.0,-120.0,-91.0,115.0
127.0,127.0,126.0,127.0,126.0,127.0,126.0,128.0,-1.0,110.0,-63.0,127.0,127.0,127.0,-120.0,-91.0,115.0
127.0,127.0,126.0,128.0,126.0,128.0,126.0,128.0,-1.0,110.0,-63.0,127.0,127.0,127.0,-120.0,-91.0,115.0
127.0,127.0,126.0,128.0,126.0,128.0,126.0,128.0,-1.0,110.0,-63.0,127.0,127.0,127.0,-120.0,-91.0,115.0
127.0,127.0,126.0,128.0,126.0,128.0,126.0,128.0,-1.0,110.0,-63.0,127.0,127.0,127.0,-120.0,-91.0,115.0
127.0,127.0,126.0,128.0,126.0,128.0,126.0,128.0,-1.0,110.0,-63.0,127.0,127.0,127.0,-120.0,-91.0,115.0
127.0,127.0,126.0,128.0,126.0,128.0,126.0,128.0,-1.0,110.0,-63.0,127.0,127.0,127.0,-120.0,-91.0,115.0
127.0,127.0,126.0,128.0,126.0,127.0,127.0,128.0,-1.0,110.0,-63.0,127.0,127.0,127.0,-120.0,-91.0,115.0
127.0,127.0,126.0,127.0,126.0,127.0,127.0,128.0,-1.0,110.0,-63.0,127.0,127.0,127.0,-120.0,-91.0,115.0
127.0,127.0,127.0,127.0,126.0,127.0,127.0,128.0,-1.0,110.0,-63.0,127.0,127.0,127.0,-120.0,-91.0,115.0
127.0,127.0,127.0,127.0,126.0,127.0,127.0,128.0,-1.0,110.0,-63.0,127.0,127.0,127.0,-120.0,-91.0,115.0
127.0,127.0,126.0,127.0,126.0,128.0,126.0,128.0,-1.0,110.0,-63.0,127.0,127.0,127.0,-120.0,-91.0,115.0
127.0,127.0,126.0,127.0,126.0,128.0,126.0,128.0,-1.0,110.0,-63.0,127.0,127.0,127.0,-120.0,-91.0,115.0
127.0,127.0,126.0,127.0,126.0,128.0,126.0,128.0,-1.0,110.0,-63.0,127.0,127.0,127.0,-120.0,-91.0,115.0
127.0,127.0,126.0,127.0,126.0,128.0,126.0,128.0,-1.0,110.0,-63.0,127.0,127.0,127.0,-120.0,-91.0,115.0
127.0,127.0,126.0,127.0,126.0,128.0,126.0,128.0,-1.0,110.0,-63.0,127.0,127.0,127.0,-120.0,-91.0,115.0
127.0,127.0,126.0,127.0,126.0,127.0,127.0,128.0,-1.0,110.0,-63.0,127.0,127.0,127.0,-120.0,-91.0,115.0
127.0,127.0,126.0,127.0,126.0,127.0,127.0,128.0,-1.0,110.0,-63.0,127.0,127.0,127.0,-120.0,-91.0,115.0
127.0,127.0,126.0,127.0,126.0,127.0,127.0,128.0,-1.0,110.0,-63.0,127.0,127.0,127.0,-120.0,-91.0,115.0
127.0,127.0,126.0,127.0,126.0,127.0,127.0,128.0,-1.0,110.0,-63.0,127.0,127.0,127.0,-120.0,-91.0,115.0
127.0,127.0,126.0,127.0,126.0,127.0,127.0,128.0,-1.0,110.0,-63.0,127.0,127.0,127.0,-120.0,-91.0,115.0
127.0,127.0,126.0,127.0,126.0,128.0,126.0,128.0,-1.0,110.0,-63.0,127.0,127.0,127.0,-120.0,-91.0,115.0
127.0,127.0,127.0,127.0,126.0,128.0,126.0,128.0,-1.0,110.0,-63.0,127.0,127.0,127.0,-120.0,-91.0,115.0
127.0,127.0,127.0,127.0,126.0,128.0,126.0,128.0,-1.0,110.0,-63.0,127.0,127.0,127.0,-120.0,-91.0,115.0
127.0,127.0,127.0,127.0,126.0,128.0,126.0,129.0,-1.0,110.0,-63.0,127.0,127.0,127.0,-120.0,-91.0,115.0
127.0,127.0,126.0,127.0,126.0,127.0,127.0,128.0,-1.0,110.0,-63.0,127.0,127.0,127.0,-120.0,-91.0,115.0
127.0,127.0,126.0,127.0,126.0,127.0,127.0,128.0,-1.0,110.0,-63.0,127.0,127.0,127.0,-120.0,-91.0,115.0
127.0,127.0,126.0,127.0,126.0,127.0,127.0,128.0,-1.0,110.0,-63.0,127.0,127.0,127.0,-120.0,-91.0,115.0
127.0,127.0,127.0,127.0,126.0,127.0,127.0,128.0,-1.0,110.0,-63.0,127.0,127.0,127.0,-120.0,-91.0,115.0
127.0,127.0,126.0,127.0,126.0,127.0,127.0,128.0,-1.0,110.0,-63.0,127.0,127.0,127.0,-120.0,-91.0,115.0
127.0,127.0,126.0,127.0,126.0,128.0,126.0,128.0,-1.0,110.0,-63.0,127.0,127.0,127.0,-120.0,-91.0,115.0
127.0,127.0,127.0,127.0,126.0,126.0,127.0,128.0,-1.0,111.0,-63.0,127.0,127.0,127.0,-120.0,-91.0,115.0
127.0,127.0,127.0,127.0,126.0,126.0,127.0,128.0,-1.0,111.0,-63.0,127.0,127.0,127.0,-120.0,-91.0,115.0
127.0,127.0,127.0,127.0,127.0,126.0,127.0,128.0,-1.0,111.0,-63.0,127.0,127.0,127.0,-120.0,-91.0,115.0
127.0,127.0,126.0,127.0,126.0,127.0,127.0,128.0,-1.0,111.0,-63.0,127.0,127.0,127.0,-120.0,-91.0,115.0
127.0,127.0,126.0,127.0,126.0,127.0,127.0,128.0,-1.0,111.0,-63.0,127.0,127.0,127.0,-120.0,-91.0,115.0
127.0,127.0,127.0,127.0,126.0,127.0,127.0,128.0,-1.0,111.0,-63.0,127.0,127.0,127.0,-120.0,-91.0,115.0
127.0,127.0,127.0,127.0,126.0,127.0,127.0,128.0,-1.0,111.0,-63.0,127.0,127.0,127.0,-120.0,-91.0,115.0
127.0,127.0,127.0,127.0,126.0,127.0,127.0,128.0,-1.0,111.0,-63.0,127.0,127.0,127.0,-120.0,-91.0,115.0
127.0,127.0,127.0,127.0,126.0,126.0,127.0,128.0,-1.0,111.0,-63.0,127.0,127.0,127.0,-120.0,-91.0,115.0
127.0,127.0,127.0,127.0,126.0,126.0,127.0,128.0,-1.0,111.0,-63.0,127.0,127.0,127.0,-120.0,-91.0,115.0
127.0,126.0,127.0,127.0,127.0,128.0,129.0,128.0,-1.0,111.0,-63.0,127.0,127.0,127.0,-120.0,-91.0,115.0
127.0,126.0,127.0,127.0,127.0,128.0,130.0,128.0,-1.0,111.0,-63.0,127.0,127.0,127.0,-120.0,-91.0,115.0
127.0,127.0,127.0,127.0,126.0,127.0,128.0,128.0,-1.0,111.0,-63.0,127.0,127.0,127.0,-120.0,-91.0,115.0
127.0,128.0,127.0,127.0,126.0,127.0,128.0,128.0,-1.0,111.0,-63.0,127.0,127.0,127.0,-120.0,-91.0,115.0
127.0,127.0,127.0,127.0,126.0,127.0,128.0,128.0,-1.0,111.0,-63.0,127.0,127.0,127.0,-120.0,-91.0,115.0
127.0,127.0,127.0,127.0,127.0,127.0,128.0,128.0,-1.0,111.0,-63.0,127.0,127.0,127.0,-120.0,-91.0,115.0
127.0,127.0,127.0,127.0,127.0,127.0,129.0,128.0,-1.0,111.0,-63.0,127.0,127.0,127.0,-120.0,-91.0,115.0
127.0,127.0,127.0,127.0,127.0,127.0,129.0,128.0,-1.0,111.0,-63.0,127.0,127.0,127.0,-120.0,-91.0,115.0
127.0,127.0,127.0,127.0,127.0,128.0,129.0,128.0,-1.0,111.0,-63.0,127.0,127.0,127.0,-120.0,-91.0,115.0
127.0,126.0,127.0,127.0,127.0,128.0,129.0,128.0,-1.0,111.0,-63.0,127.0,127.0,127.0,-120.0,-91.0,115.0
127.0,128.0,128.0,129.0,128.0,128.0,197.0,128.0,-1.0,111.0,-63.0,127.0,127.0,127.0,-120.0,-91.0,115.0
126.0,126.0,127.0,128.0,127.0,128.0,166.0,128.0,-1.0,111.0,-63.0,127.0,127.0,127.0,-120.0,-91.0,115.0
126.0,127.0,127.0,128.0,127.0,128.0,169.0,128.0,-1.0,111.0,-63.0,127.0,127.0,127.0,-120.0,-91.0,115.0
126.0,127.0,127.0,128.0,127.0,129.0,171.0,128.0,-1.0,111.0,-63.0,127.0,127.0,127.0,-120.0,-91.0,115.0
126.0,127.0,127.0,128.0,127.0,129.0,174.0,128.0,-1.0,111.0,-63.0,127.0,127.0,127.0,-120.0,-91.0,115.0
126.0,127.0,128.0,128.0,127.0,129.0,178.0,128.0,-1.0,111.0,-63.0,127.0,127.0,127.0,-120.0,-91.0,115.0
126.0,127.0,128.0,128.0,128.0,129.0,181.0,128.0,-1.0,111.0,-63.0,127.0,127.0,127.0,-120.0,-91.0,115.0
126.0,127.0,128.0,129.0,128.0,129.0,185.0,128.0,-1.0,111.0,-63.0,127.0,127.0,127.0,-120.0,-91.0,115.0
126.0,128.0,128.0,129.0,128.0,129.0,189.0,128.0,-1.0,111.0,-63.0,127.0,127.0,127.0,-120.0,-91.0,115.0
126.0,128.0,128.0,129.0,128.0,128.0,192.0,128.0,-1.0,111.0,-63.0,127.0,127.0,127.0,-120.0,-91.0,115.0
127.0,129.0,127.0,129.0,125.0,120.0,173.0,116.0,-1.0,111.0,-63.0,127.0,127.0,127.0,-120.0,-91.0,115.0
127.0,130.0,127.0,129.0,125.0,119.0,169.0,115.0,-1.0,111.0,-63.0,127.0,127.0,127.0,-120.0,-91.0,115.0
126.0,131.0,127.0,129.0,124.0,118.0,164.0,115.0,-1.0,111.0,-63.0,127.0,127.0,127.0,-120.0,-91.0,115.0
126.0,132.0,127.0,129.0,124.0,118.0,159.0,114.0,-1.0,111.0,-63.0,127.0,127.0,127.0,-120.0,-91.0,115.0
126.0,133.0,127.0,129.0,124.0,117.0,155.0,114.0,-1.0,111.0,-63.0,127.0,127.0,127.0,-120.0,-91.0,115.0
126.0,133.0,127.0,129.0,124.0,115.0,150.0,113.0,-1.0,111.0,-63.0,127.0,127.0,127.0,-120.0,-91.0,115.0
127.0,134.0,127.0,129.0,124.0,114.0,145.0,112.0,-1.0,111.0,-63.0,127.0,127.0,127.0,-120.0,-91.0,115.0
127.0,135.0,128.0,129.0,124.0,114.0,141.0,112.0,-1.0,111.0,-63.0,127.0,127.0,127.0,-120.0,-91.0,115.0
127.0,136.0,128.0,130.0,124.0,114.0,137.0,112.0,-1.0,111.0,-63.0,127.0,127.0,127.0,-120.0,-91.0,115.0
127.0,136.0,128.0,130.0,124.0,115.0,132.0,112.0,-1.0,111.0,-63.0,127.0,127.0,127.0,-120.0,-91.0,115.0
128.0,128.0,124.0,123.0,119.0,123.0,28.0,106.0,-1.0,111.0,-62.0,127.0,127.0,127.0,-120.0,-91.0,115.0
129.0,128.0,124.0,123.0,119.0,122.0,28.0,107.0,-1.0,111.0,-62.0,127.0,127.0,127.0,-120.0,-91.0,115.0
130.0,128.0,123.0,122.0,118.0,121.0,29.0,107.0,-1.0,111.0,-62.0,127.0,127.0,127.0,-120.0,-91.0,115.0
130.0,129.0,124.0,122.0,118.0,120.0,29.0,107.0,-1.0,111.0,-62.0,127.0,127.0,127.0,-120.0,-91.0,115.0
129.0,130.0,124.0,122.0,118.0,119.0,30.0,108.0,-1.0,111.0,-62.0,127.0,127.0,127.0,-120.0,-91.0,115.0
128.0,131.0,124.0,122.0,119.0,118.0,32.0,108.0,-1.0,111.0,-62.0,127.0,127.0,127.0,-120.0,-91.0,115.0
126.0,131.0,125.0,122.0,119.0,118.0,33.0,108.0,-1.0,111.0,-62.0,127.0,127.0,127.0,-120.0,-91.0,115.0
125.0,130.0,125.0,122.0,119.0,117.0,35.0,109.0,-1.0,111.0,-62.0,127.0,127.0,127.0,-120.0,-91.0,115.0
123.0,129.0,125.0,121.0,119.0,116.0,37.0,109.0,-1.0,111.0,-62.0,127.0,127.0,127.0,-120.0,-91.0,115.0
127.0,127.0,124.0,123.0,119.0,124.0,28.0,106.0,-1.0,111.0,-62.0,127.0,127.0,127.0,-120.0,-91.0,115.0
128.0,111.0,101.0,113.0,126.0,123.0,142.0,128.0,-1.0,112.0,-61.0,126.0,127.0,127.0,-120.0,-91.0,115.0
128.0,112.0,100.0,113.0,126.0,125.0,143.0,129.0,-1.0,112.0,-61.0,126.0,127.0,127.0,-120.0,-91.0,115.0
127.0,112.0,99.0,113.0,126.0,125.0,146.0,129.0,-1.0,112.0,-61.0,126.0,127.0,127.0,-120.0,-91.0,115.0
127.0,112.0,98.0,113.0,126.0,124.0,148.0,129.0,-1.0,112.0,-61.0,126.0,127.0,127.0,-120.0,-91.0,115.0
126.0,112.0,97.0,113.0,126.0,122.0,150.0,130.0,-1.0,112.0,-61.0,126.0,127.0,127.0,-120.0,-91.0,115.0
126.0,112.0,97.0,113.0,126.0,121.0,152.0,130.0,-1.0,112.0,-61.0,126.0,127.0,127.0,-120.0,-91.0,115.0
126.0,112.0,96.0,113.0,126.0,119.0,154.0,131.0,-1.0,112.0,-61.0,126.0,127.0,127.0,-120.0,-91.0,115.0
126.0,112.0,96.0,113.0,125.0,119.0,156.0,131.0,-1.0,112.0,-61.0,126.0,127.0,127.0,-120.0,-91.0,115.0
128.0,109.0,103.0,113.0,125.0,119.0,138.0,127.0,-1.0,112.0,-61.0,126.0,127.0,127.0,-120.0,-91.0,115.0
128.0,110.0,102.0,113.0,125.0,121.0,140.0,127.0,-1.0,112.0,-61.0,126.0,127.0,127.0,-120.0,-91.0,115.0
121.0,124.0,135.0,131.0,132.0,50.0,154.0,141.0,-1.0,113.0,-63.0,127.0,127.0,127.0,-120.0,-91.0,115.0
121.0,124.0,135.0,132.0,131.0,45.0,153.0,140.0,-1.0,113.0,-63.0,127.0,127.0,127.0,-120.0,-91.0,115.0
121.0,124.0,135.0,132.0,130.0,40.0,152.0,140.0,-1.0,113.0,-63.0,127.0,127.0,127.0,-120.0,-91.0,115.0
121.0,124.0,136.0,132.0,129.0,35.0,151.0,139.0,-1.0,113.0,-63.0,127.0,127.0,127.0,-120.0,-91.0,115.0
120.0,125.0,136.0,133.0,128.0,30.0,150.0,139.0,-1.0,113.0,-63.0,127.0,127.0,127.0,-120.0,-91.0,115.0
120.0,125.0,137.0,133.0,127.0,25.0,149.0,139.0,-1.0,113.0,-63.0,127.0,127.0,127.0,-120.0,-91.0,115.0
119.0,125.0,137.0,133.0,127.0,21.0,147.0,138.0,-1.0,113.0,-63.0,127.0,127.0,127.0,-120.0,-91.0,115.0
121.0,124.0,132.0,129.0,133.0,66.0,157.0,140.0,-1.0,113.0,-63.0,127.0,127.0,127.0,-120.0,-91.0,115.0
121.0,124.0,133.0,130.0,133.0,60.0,156.0,141.0,-1.0,113.0,-63.0,127.0,127.0,127.0,-120.0,-91.0,115.0
121.0,124.0,134.0,131.0,132.0,55.0,155.0,141.0,-1.0,113.0,-63.0,127.0,127.0,127.0,-120.0,-91.0,115.0
129.0,131.0,137.0,133.0,124.0,104.0,183.0,153.0,-1.0,111.0,-63.0,126.0,127.0,127.0,-120.0,-91.0,115.0
129.0,130.0,136.0,133.0,124.0,108.0,188.0,154.0,-1.0,111.0,-63.0,126.0,127.0,127.0,-120.0,-91.0,115.0
130.0,129.0,136.0,134.0,124.0,112.0,194.0,154.0,-1.0,111.0,-63.0,126.0,127.0,127.0,-120.0,-91.0,115.0
130.0,128.0,136.0,135.0,124.0,116.0,200.0,155.0,-1.0,111.0,-63.0,126.0,127.0,127.0,-120.0,-91.0,115.0
131.0,128.0,136.0,136.0,124.0,120.0,205.0,156.0,-1.0,111.0,-63.0,126.0,127.0,127.0,-120.0,-91.0,115.0
131.0,128.0,136.0,137.0,124.0,123.0,211.0,156.0,-1.0,111.0,-63.0,126.0,127.0,127.0,-120.0,-91.0,115.0
128.0,132.0,138.0,132.0,124.0,86.0,164.0,152.0,-1.0,111.0,-63.0,126.0,127.0,127.0,-120.0,-91.0,115.0
128.0,132.0,138.0,132.0,124.0,91.0,168.0,152.0,-1.0,111.0,-63.0,126.0,127.0,127.0,-120.0,-91.0,115.0
129.0,132.0,137.0,132.0,124.0,95.0,173.0,152.0,-1.0,111.0,-63.0,126.0,127.0,127.0,-120.0,-91.0,115.0
129.0,131.0,137.0,132.0,124.0,100.0,178.0,153.0,-1.0,111.0,-63.0,126.0,127.0,127.0,-120.0,-91.0,115.0
131.0,134.0,137.0,162.0,118.0,94.0,254.0,148.0,-1.0,112.0,-62.0,126.0,127.0,127.0,-120.0,-91.0,115.0
129.0,133.0,137.0,162.0,117.0,94.0,254.0,147.0,-1.0,112.0,-62.0,126.0,127.0,127.0,-120.0,-91.0,115.0
128.0,133.0,136.0,161.0,117.0,94.0,254.0,146.0,-1.0,112.0,-62.0,126.0,127.0,127.0,-120.0,-91.0,115.0
127.0,132.0,136.0,161.0,117.0,95.0,254.0,145.0,-1.0,112.0,-62.0,126.0,127.0,127.0,-120.0,-91.0,115.0
126.0,132.0,136.0,160.0,118.0,95.0,254.0,145.0,-1.0,112.0,-62.0,126.0,127.0,127.0,-120.0,-91.0,115.0
137.0,135.0,138.0,163.0,118.0,102.0,254.0,151.0,-1.0,112.0,-62.0,126.0,127.0,127.0,-120.0,-91.0,115.0
137.0,135.0,138.0,163.0,118.0,100.0,254.0,151.0,-1.0,112.0,-62.0,126.0,127.0,127.0,-120.0,-91.0,115.0
136.0,135.0,138.0,163.0,118.0,97.0,254.0,150.0,-1.0,112.0,-62.0,126.0,127.0,127.0,-120.0,-91.0,115.0
135.0,135.0,138.0,163.0,118.0,96.0,254.0,150.0,-1.0,112.0,-62.0,126.0,127.0,127.0,-120.0,-91.0,115.0
133.0,135.0,137.0,162.0,118.0,95.0,254.0,149.0,-1.0,112.0,-62.0,126.0,127.0,127.0,-120.0,-91.0,115.0
129.0,143.0,134.0,138.0,131.0,168.0,162.0,144.0,-1.0,109.0,-60.0,125.0,127.0,127.0,-120.0,-91.0,115.0
128.0,142.0,134.0,137.0,131.0,168.0,160.0,143.0,-1.0,109.0,-60.0,125.0,127.0,127.0,-120.0,-91.0,115.0
128.0,141.0,134.0,137.0,131.0,168.0,159.0,143.0,-1.0,109.0,-60.0,125.0,127.0,127.0,-120.0,-91.0,115.0
128.0,140.0,134.0,137.0,131.0,168.0,158.0,142.0,-1.0,109.0,-60.0,125.0,127.0,127.0,-120.0,-91.0,115.0
130.0,142.0,134.0,140.0,131.0,159.0,175.0,148.0,-1.0,109.0,-60.0,125.0,127.0,127.0,-120.0,-91.0,115.0
130.0,143.0,134.0,139.0,131.0,161.0,173.0,147.0,-1.0,109.0,-60.0,125.0,127.0,127.0,-120.0,-91.0,115.0
130.0,144.0,134.0,139.0,131.0,163.0,170.0,147.0,-1.0,109.0,-60.0,125.0,127.0,127.0,-120.0,-91.0,115.0
129.0,144.0,134.0,139.0,131.0,164.0,168.0,146.0,-1.0,109.0,-60.0,125.0,127.0,127.0,-120.0,-91.0,115.0
129.0,144.0,134.0,138.0,131.0,165.0,166.0,146.0,-1.0,109.0,-60.0,125.0,127.0,127.0,-120.0,-91.0,115.0
129.0,143.0,134.0,138.0,131.0,167.0,164.0,145.0,-1.0,109.0,-60.0,125.0,127.0,127.0,-120.0,-91.0,115.0
128.0,138.0,132.0,127.0,128.0,159.0,145.0,138.0,-1.0,105.0,-62.0,127.0,127.0,127.0,-120.0,-91.0,115.0
127.0,138.0,132.0,127.0,127.0,159.0,146.0,138.0,-1.0,105.0,-62.0,127.0,127.0,127.0,-120.0,-91.0,115.0
126.0,138.0,132.0,127.0,127.0,158.0,147.0,138.0,-1.0,105.0,-62.0,127.0,127.0,127.0,-120.0,-91.0,115.0
129.0,140.0,129.0,127.0,128.0,167.0,142.0,138.0,-1.0,105.0,-62.0,127.0,127.0,127.0,-120.0,-91.0,115.0
129.0,140.0,129.0,127.0,128.0,166.0,143.0,138.0,-1.0,105.0,-62.0,127.0,127.0,127.0,-120.0,-91.0,115.0
129.0,139.0,129.0,127.0,128.0,165.0,143.0,138.0,-1.0,105.0,-62.0,127.0,127.0,127.0,-120.0,-91.0,115.0
129.0,139.0,130.0,127.0,128.0,164.0,143.0,138.0,-1.0,105.0,-62.0,127.0,127.0,127.0,-120.0,-91.0,115.0
129.0,139.0,130.0,128.0,128.0,162.0,144.0,138.0,-1.0,105.0,-62.0,127.0,127.0,127.0,-120.0,-91.0,115.0
129.0,139.0,131.0,128.0,128.0,161.0,144.0,138.0,-1.0,105.0,-62.0,127.0,127.0,127.0,-120.0,-91.0,115.0
128.0,139.0,131.0,128.0,128.0,160.0,145.0,138.0,-1.0,105.0,-62.0,127.0,127.0,127.0,-120.0,-91.0,115.0
128.0,133.0,129.0,120.0,127.0,148.0,154.0,144.0,-1.0,108.0,-64.0,126.0,127.0,127.0,-120.0,-91.0,115.0
128.0,132.0,129.0,119.0,127.0,148.0,153.0,144.0,-1.0,108.0,-64.0,126.0,127.0,127.0,-120.0,-91.0,115.0
128.0,135.0,130.0,121.0,126.0,147.0,158.0,144.0,-1.0,108.0,-64.0,126.0,127.0,127.0,-120.0,-91.0,115.0
128.0,136.0,130.0,121.0,126.0,147.0,158.0,144.0,-1.0,108.0,-64.0,126.0,127.0,127.0,-120.0,-91.0,115.0
128.0,135.0,130.0,121.0,126.0,147.0,157.0,144.0,-1.0,108.0,-64.0,126.0,127.0,127.0,-120.0,-91.0,115.0
128.0,135.0,130.0,121.0,126.0,146.0,156.0,144.0,-1.0,108.0,-64.0,126.0,127.0,127.0,-120.0,-91.0,115.0
128.0,135.0,130.0,121.0,127.0,146.0,156.0,144.0,-1.0,108.0,-64.0,126.0,127.0,127.0,-120.0,-91.0,115.0
128.0,134.0,130.0,120.0,127.0,146.0,155.0,144.0,-1.0,108.0,-64.0,126.0,127.0,127.0,-120.0,-91.0,115.0
128.0,134.0,130.0,120.0,127.0,147.0,155.0,144.0,-1.0,108.0,-64.0,126.0,127.0,127.0,-120.0,-91.0,115.0
128.0,133.0,130.0,120.0,127.0,148.0,154.0,144.0,-1.0,108.0,-64.0,126.0,127.0,127.0,-120.0,-91.0,115.0
126.0,134.0,127.0,125.0,132.0,138.0,148.0,140.0,-1.0,108.0,-63.0,126.0,127.0,127.0,-120.0,-91.0,115.0
125.0,133.0,127.0,122.0,130.0,137.0,148.0,139.0,-1.0,108.0,-63.0,126.0,127.0,127.0,-120.0,-91.0,115.0
126.0,133.0,127.0,122.0,130.0,138.0,147.0,140.0,-1.0,108.0,-63.0,126.0,127.0,127.0,-120.0,-91.0,115.0
126.0,133.0,127.0,123.0,130.0,139.0,147.0,140.0,-1.0,108.0,-63.0,126.0,127.0,127.0,-120.0,-91.0,115.0
126.0,133.0,127.0,123.0,131.0,139.0,147.0,140.0,-1.0,108.0,-63.0,126.0,127.0,127.0,-120.0,-91.0,115.0
126.0,133.0,127.0,123.0,131.0,139.0,147.0,140.0,-1.0,108.0,-63.0,126.0,127.0,127.0,-120.0,-91.0,115.0
126.0,133.0,127.0,123.0,131.0,139.0,147.0,140.0,-1.0,108.0,-63.0,126.0,127.0,127.0,-120.0,-91.0,115.0
126.0,133.0,127.0,124.0,132.0,139.0,148.0,140.0,-1.0,108.0,-63.0,126.0,127.0,127.0,-120.0,-91.0,115.0
126.0,133.0,127.0,124.0,132.0,140.0,148.0,140.0,-1.0,108.0,-63.0,126.0,127.0,127.0,-120.0,-91.0,115.0
126.0,134.0,127.0,124.0,132.0,139.0,148.0,141.0,-1.0,108.0,-63.0,126.0,127.0,127.0,-120.0,-91.0,115.0
130.0,133.0,124.0,124.0,130.0,139.0,146.0,133.0,-1.0,107.0,-63.0,126.0,127.0,127.0,-120.0,-91.0,115.0
130.0,133.0,124.0,124.0,129.0,140.0,145.0,133.0,-1.0,107.0,-63.0,126.0,127.0,127.0,-120.0,-91.0,115.0
129.0,133.0,124.0,124.0,129.0,140.0,145.0,133.0,-1.0,107.0,-63.0,126.0,127.0,127.0,-120.0,-91.0,115.0
128.0,133.0,124.0,124.0,129.0,140.0,145.0,132.0,-1.0,107.0,-63.0,126.0,127.0,127.0,-120.0,-91.0,115.0
127.0,133.0,124.0,124.0,130.0,139.0,144.0,132.0,-1.0,107.0,-63.0,126.0,127.0,127.0,-120.0,-91.0,115.0
125.0,133.0,124.0,125.0,130.0,139.0,144.0,132.0,-1.0,107.0,-63.0,126.0,127.0,127.0,-120.0,-91.0,115.0
125.0,133.0,124.0,125.0,130.0,139.0,144.0,131.0,-1.0,107.0,-63.0,126.0,127.0,127.0,-120.0,-91.0,115.0
124.0,133.0,124.0,125.0,130.0,139.0,144.0,131.0,-1.0,107.0,-63.0,126.0,127.0,127.0,-120.0,-91.0,115.0
124.0,133.0,124.0,125.0,130.0,139.0,143.0,131.0,-1.0,107.0,-63.0,126.0,127.0,127.0,-120.0,-91.0,115.0
123.0,133.0,124.0,125.0,130.0,140.0,143.0,131.0,-1.0,107.0,-63.0,126.0,127.0,127.0,-120.0,-91.0,115.0
123.0,132.0,125.0,124.0,127.0,147.0,140.0,129.0,-1.0,106.0,-63.0,126.0,127.0,127.0,-120.0,-91.0,115.0
123.0,132.0,125.0,124.0,127.0,147.0,139.0,129.0,-1.0,106.0,-63.0,126.0,127.0,127.0,-120.0,-91.0,115.0
123.0,132.0,125.0,124.0,128.0,147.0,139.0,129.0,-1.0,106.0,-63.0,126.0,127.0,127.0,-120.0,-91.0,115.0
123.0,132.0,126.0,124.0,128.0,146.0,139.0,130.0,-1.0,106.0,-63.0,126.0,127.0,127.0,-120.0,-91.0,115.0
123.0,132.0,126.0,124.0,128.0,145.0,139.0,130.0,-1.0,106.0,-63.0,126.0,127.0,127.0,-120.0,-91.0,115.0
123.0,132.0,126.0,124.0,129.0,144.0,139.0,130.0,-1.0,106.0,-63.0,126.0,127.0,127.0,-120.0,-91.0,115.0
123.0,132.0,126.0,125.0,128.0,143.0,139.0,130.0,-1.0,106.0,-63.0,126.0,127.0,127.0,-120.0,-91.0,115.0
123.0,132.0,126.0,125.0,128.0,142.0,139.0,130.0,-1.0,106.0,-63.0,126.0,127.0,127.0,-120.0,-91.0,115.0
123.0,132.0,126.0,125.0,128.0,141.0,139.0,130.0,-1.0,106.0,-63.0,126.0,127.0,127.0,-120.0,-91.0,115.0
123.0,132.0,125.0,124.0,128.0,145.0,140.0,129.0,-1.0,106.0,-63.0,126.0,127.0,127.0,-120.0,-91.0,115.0
124.0,134.0,127.0,125.0,127.0,138.0,134.0,131.0,-1.0,106.0,-64.0,127.0,127.0,127.0,-120.0,-91.0,115.0
124.0,134.0,127.0,124.0,127.0,138.0,134.0,131.0,-1.0,106.0,-64.0,127.0,127.0,127.0,-120.0,-91.0,115.0
125.0,134.0,127.0,124.0,127.0,138.0,134.0,131.0,-1.0,106.0,-64.0,127.0,127.0,127.0,-120.0,-91.0,115.0
125.0,134.0,127.0,124.0,127.0,138.0,134.0,131.0,-1.0,106.0,-64.0,127.0,127.0,127.0,-120.0,-91.0,115.0
125.0,134.0,127.0,124.0,127.0,138.0,134.0,131.0,-1.0,106.0,-64.0,127.0,127.0,127.0,-120.0,-91.0,115.0
125.0,133.0,126.0,124.0,127.0,138.0,133.0,131.0,-1.0,106.0,-64.0,127.0,127.0,127.0,-120.0,-91.0,115.0
125.0,132.0,126.0,124.0,127.0,138.0,133.0,131.0,-1.0,106.0,-64.0,127.0,127.0,127.0,-120.0,-91.0,115.0
124.0,132.0,126.0,124.0,127.0,139.0,133.0,131.0,-1.0,106.0,-64.0,127.0,127.0,127.0,-120.0,-91.0,115.0
123.0,134.0,128.0,124.0,128.0,139.0,134.0,131.0,-1.0,106.0,-64.0,127.0,127.0,127.0,-120.0,-91.0,115.0
123.0,134.0,127.0,124.0,127.0,138.0,134.0,131.0,-1.0,106.0,-64.0,127.0,127.0,127.0,-120.0,-91.0,115.0
126.0,130.0,126.0,124.0,126.0,137.0,132.0,131.0,-1.0,106.0,-64.0,127.0,127.0,127.0,-120.0,-91.0,115.0
126.0,130.0,126.0,124.0,126.0,136.0,132.0,131.0,-1.0,106.0,-64.0,127.0,127.0,127.0,-120.0,-91.0,115.0
126.0,130.0,127.0,124.0,127.0,136.0,132.0,131.0,-1.0,106.0,-64.0,127.0,127.0,127.0,-120.0,-91.0,115.0
126.0,130.0,127.0,124.0,127.0,136.0,132.0,131.0,-1.0,106.0,-64.0,127.0,127.0,127.0,-120.0,-91.0,115.0
126.0,130.0,127.0,124.0,127.0,136.0,132.0,131.0,-1.0,106.0,-64.0,127.0,127.0,127.0,-120.0,-91.0,115.0
126.0,130.0,127.0,124.0,127.0,135.0,132.0,131.0,-1.0,106.0,-64.0,127.0,127.0,127.0,-120.0,-91.0,115.0
126.0,130.0,127.0,124.0,126.0,135.0,132.0,131.0,-1.0,106.0,-64.0,127.0,127.0,127.0,-120.0,-91.0,115.0
126.0,130.0,126.0,123.0,127.0,138.0,132.0,131.0,-1.0,106.0,-64.0,127.0,127.0,127.0,-120.0,-91.0,115.0
126.0,130.0,126.0,123.0,127.0,138.0,132.0,131.0,-1.0,106.0,-64.0,127.0,127.0,127.0,-120.0,-91.0,115.0
126.0,130.0,126.0,124.0,126.0,138.0,132.0,131.0,-1.0,106.0,-64.0,127.0,127.0,127.0,-120.0,-91.0,115.0
126.0,130.0,126.0,123.0,126.0,138.0,133.0,123.0,-1.0,106.0,-64.0,127.0,127.0,127.0,-120.0,-91.0,115.0
125.0,130.0,126.0,123.0,126.0,137.0,133.0,122.0,-1.0,106.0,-64.0,127.0,127.0,127.0,-120.0,-91.0,115.0
125.0,130.0,126.0,123.0,126.0,137.0,133.0,122.0,-1.0,106.0,-64.0,127.0,127.0,127.0,-120.0,-91.0,115.0
125.0,130.0,126.0,123.0,126.0,136.0,133.0,121.0,-1.0,106.0,-64.0,127.0,127.0,127.0,-120.0,-91.0,115.0
125.0,130.0,126.0,123.0,126.0,135.0,133.0,120.0,-1.0,106.0,-64.0,127.0,127.0,127.0,-120.0,-91.0,115.0
125.0,130.0,126.0,123.0,126.0,135.0,133.0,120.0,-1.0,106.0,-64.0,127.0,127.0,127.0,-120.0,-91.0,115.0
126.0,130.0,126.0,123.0,126.0,137.0,132.0,125.0,-1.0,106.0,-64.0,127.0,127.0,127.0,-120.0,-91.0,115.0
126.0,130.0,126.0,123.0,126.0,137.0,133.0,125.0,-1.0,106.0,-64.0,127.0,127.0,127.0,-120.0,-91.0,115.0
126.0,130.0,126.0,123.0,126.0,138.0,133.0,125.0,-1.0,106.0,-64.0,127.0,127.0,127.0,-120.0,-91.0,115.0
126.0,130.0,126.0,123.0,126.0,138.0,133.0,124.0,-1.0,106.0,-64.0,127.0,127.0,127.0,-120.0,-91.0,115.0
126.0,129.0,126.0,123.0,126.0,137.0,132.0,119.0,-1.0,106.0,-64.0,127.0,127.0,127.0,-120.0,-91.0,115.0
126.0,129.0,126.0,123.0,126.0,137.0,132.0,119.0,-1.0,106.0,-64.0,127.0,127.0,127.0,-120.0,-91.0,115.0
126.0,129.0,126.0,123.0,126.0,137.0,132.0,119.0,-1.0,106.0,-64.0,127.0,127.0,127.0,-120.0,-91.0,115.0
126.0,129.0,126.0,123.0,126.0,137.0,132.0,119.0,-1.0,106.0,-64.0,127.0,127.0,127.0,-120.0,-91.0,115.0
126.0,129.0,126.0,123.0,126.0,136.0,132.0,119.0,-1.0,106.0,-64.0,127.0,127.0,127.0,-120.0,-91.0,115.0
126.0,129.0,126.0,123.0,126.0,136.0,132.0,118.0,-1.0,106.0,-64.0,127.0,127.0,127.0,-120.0,-91.0,115.0
126.0,129.0,126.0,123.0,126.0,136.0,132.0,118.0,-1.0,106.0,-64.0,127.0,127.0,127.0,-120.0,-91.0,115.0
126.0,129.0,126.0,123.0,125.0,137.0,132.0,118.0,-1.0,106.0,-64.0,127.0,127.0,127.0,-120.0,-91.0,115.0
126.0,129.0,126.0,123.0,125.0,137.0,132.0,119.0,-1.0,106.0,-64.0,127.0,127.0,127.0,-120.0,-91.0,115.0
126.0,129.0,126.0,123.0,125.0,137.0,132.0,119.0,-1.0,106.0,-64.0,127.0,127.0,127.0,-120.0,-91.0,115.0
126.0,128.0,125.0,123.0,126.0,136.0,132.0,123.0,-1.0,107.0,-64.0,127.0,127.0,127.0,-120.0,-91.0,115.0
126.0,128.0,126.0,123.0,126.0,136.0,132.0,123.0,-1.0,107.0,-64.0,127.0,127.0,127.0,-120.0,-91.0,115.0
126.0,128.0,126.0,124.0,126.0,136.0,132.0,123.0,-1.0,107.0,-64.0,127.0,127.0,127.0,-120.0,-91.0,115.0
126.0,128.0,126.0,124.0,126.0,136.0,132.0,123.0,-1.0,107.0,-64.0,127.0,127.0,127.0,-120.0,-91.0,115.0
126.0,128.0,126.0,123.0,126.0,137.0,132.0,123.0,-1.0,107.0,-64.0,127.0,127.0,127.0,-120.0,-91.0,115.0
126.0,128.0,126.0,123.0,126.0,137.0,132.0,123.0,-1.0,107.0,-64.0,127.0,127.0,127.0,-120.0,-91.0,115.0
126.0,128.0,126.0,123.0,126.0,136.0,132.0,123.0,-1.0,107.0,-64.0,127.0,127.0,127.0,-120.0,-91.0,115.0
126.0,128.0,126.0,123.0,126.0,136.0,132.0,123.0,-1.0,107.0,-64.0,127.0,127.0,127.0,-120.0,-91.0,115.0
126.0,128.0,126.0,123.0,126.0,136.0,132.0,123.0,-1.0,107.0,-64.0,127.0,127.0,127.0,-120.0,-91.0,115.0
126.0,128.0,125.0,123.0,126.0,136.0,132.0,123.0,-1.0,107.0,-64.0,127.0,127.0,127.0,-120.0,-91.0,115.0
126.0,126.0,126.0,124.0,127.0,134.0,131.0,125.0,-1.0,107.0,-64.0,127.0,127.0,127.0,-120.0,-91.0,115.0
126.0,126.0,126.0,124.0,127.0,134.0,131.0,125.0,-1.0,107.0,-64.0,127.0,127.0,127.0,-120.0,-91.0,115.0
126.0,126.0,127.0,124.0,127.0,134.0,131.0,125.0,-1.0,107.0,-64.0,127.0,127.0,127.0,-120.0,-91.0,115.0
126.0,126.0,126.0,124.0,126.0,136.0,131.0,125.0,-1.0,107.0,-64.0,127.0,127.0,127.0,-120.0,-91.0,115.0
127.0,126.0,126.0,124.0,126.0,135.0,131.0,125.0,-1.0,107.0,-64.0,127.0,127.0,127.0,-120.0,-91.0,115.0
126.0,126.0,126.0,124.0,126.0,135.0,131.0,125.0,-1.0,107.0,-64.0,127.0,127.0,127.0,-120.0,-91.0,115.0
126.0,126.0,126.0,124.0,126.0,135.0,131.0,125.0,-1.0,107.0,-64.0,127.0,127.0,127.0,-120.0,-91.0,115.0
126.0,126.0,126.0,124.0,126.0,135.0,131.0,125.0,-1.0,107.0,-64.0,127.0,127.0,127.0,-120.0,-91.0,115.0
126.0,126.0,126.0,124.0,126.0,135.0,131.0,125.0,-1.0,107.0,-64.0,127.0,127.0,127.0,-120.0,-91.0,115.0
126.0,126.0,126.0,124.0,126.0,134.0,131.0,125.0,-1.0,107.0,-64.0,127.0,127.0,127.0,-120.0,-91.0,115.0
128.0,124.0,126.0,125.0,126.0,134.0,127.0,124.0,-1.0,107.0,-63.0,127.0,127.0,127.0,-120.0,-91.0,115.0
128.0,124.0,126.0,125.0,126.0,134.0,127.0,124.0,-1.0,107.0,-63.0,127.0,127.0,127.0,-120.0,-91.0,115.0
128.0,125.0,126.0,125.0,125.0,134.0,128.0,125.0,-1.0,107.0,-63.0,127.0,127.0,127.0,-120.0,-91.0,115.0
128.0,125.0,126.0,125.0,126.0,134.0,128.0,124.0,-1.0,107.0,-63.0,127.0,127.0,127.0,-120.0,-91.0,115.0
128.0,125.0,126.0,125.0,126.0,134.0,128.0,124.0,-1.0,107.0,-63.0,127.0,127.0,127.0,-120.0,-91.0,115.0
128.0,125.0,126.0,125.0,126.0,134.0,128.0,124.0,-1.0,107.0,-63.0,127.0,127.0,127.0,-120.0,-91.0,115.0
128.0,125.0,126.0,125.0,126.0,135.0,128.0,124.0,-1.0,107.0,-63.0,127.0,127.0,127.0,-120.0,-91.0,115.0
128.0,125.0,126.0,125.0,126.0,134.0,128.0,124.0,-1.0,107.0,-63.0,127.0,127.0,127.0,-120.0,-91.0,115.0
128.0,124.0,126.0,125.0,126.0,134.0,128.0,124.0,-1.0,107.0,-63.0,127.0,127.0,127.0,-120.0,-91.0,115.0
128.0,124.0,126.0,125.0,126.0,134.0,127.0,124.0,-1.0,107.0,-63.0,127.0,127.0,127.0,-120.0,-91.0,115.0
129.0,125.0,126.0,125.0,126.0,132.0,121.0,121.0,-1.0,107.0,-63.0,127.0,127.0,127.0,-120.0,-91.0,115.0
129.0,125.0,126.0,125.0,125.0,134.0,122.0,122.0,-1.0,107.0,-63.0,127.0,127.0,127.0,-120.0,-91.0,115.0
129.0,125.0,126.0,125.0,125.0,134.0,122.0,122.0,-1.0,107.0,-63.0,127.0,127.0,127.0,-120.0,-91.0,115.0
129.0,125.0,126.0,125.0,126.0,133.0,122.0,122.0,-1.0,107.0,-63.0,127.0,127.0,127.0,-120.0,-91.0,115.0
129.0,125.0,126.0,125.0,126.0,133.0,122.0,122.0,-1.0,107.0,-63.0,127.0,127.0,127.0,-120.0,-91.0,115.0
129.0,125.0,126.0,125.0,126.0,133.0,122.0,122.0,-1.0,107.0,-63.0,127.0,127.0,127.0,-120.0,-91.0,115.0
129.0,125.0,126.0,125.0,126.0,133.0,122.0,122.0,-1.0,107.0,-63.0,127.0,127.0,127.0,-120.0,-91.0,115.0
129.0,125.0,126.0,125.0,126.0,132.0,121.0,122.0,-1.0,107.0,-63.0,127.0,127.0,127.0,-120.0,-91.0,115.0
129.0,125.0,126.0,125.0,126.0,132.0,121.0,122.0,-1.0,107.0,-63.0,127.0,127.0,127.0,-120.0,-91.0,115.0
129.0,125.0,126.0,125.0,126.0,132.0,121.0,122.0,-1.0,107.0,-63.0,127.0,127.0,127.0,-120.0,-91.0,115.0
126.0,126.0,126.0,126.0,125.0,131.0,115.0,121.0,-1.0,107.0,-63.0,127.0,127.0,127.0,-120.0,-91.0,115.0
126.0,126.0,126.0,126.0,126.0,131.0,115.0,121.0,-1.0,107.0,-63.0,127.0,127.0,127.0,-120.0,-91.0,115.0
126.0,126.0,126.0,126.0,126.0,131.0,114.0,121.0,-1.0,107.0,-63.0,127.0,127.0,127.0,-120.0,-91.0,115.0
126.0,126.0,126.0,126.0,126.0,131.0,114.0,121.0,-1.0,107.0,-63.0,127.0,127.0,127.0,-120.0,-91.0,115.0
126.0,126.0,126.0,126.0,126.0,131.0,114.0,121.0,-1.0,107.0,-63.0,127.0,127.0,127.0,-120.0,-91.0,115.0
126.0,126.0,126.0,126.0,126.0,131.0,113.0,121.0,-1.0,107.0,-63.0,127.0,127.0,127.0,-120.0,-91.0,115.0
126.0,126.0,126.0,126.0,126.0,130.0,113.0,121.0,-1.0,107.0,-63.0,127.0,127.0,127.0,-120.0,-91.0,115.0
126.0,126.0,126.0,126.0,126.0,130.0,113.0,121.0,-1.0,107.0,-63.0,127.0,127.0,127.0,-120.0,-91.0,115.0
126.0,126.0,126.0,126.0,126.0,130.0,113.0,121.0,-1.0,107.0,-63.0,127.0,127.0,127.0,-120.0,-91.0,115.0
126.0,126.0,126.0,126.0,126.0,130.0,112.0,121.0,-1.0,107.0,-63.0,127.0,127.0,127.0,-120.0,-91.0,115.0
126.0,126.0,125.0,127.0,127.0,129.0,94.0,120.0,-1.0,108.0,-63.0,127.0,127.0,127.0,-120.0,-91.0,115.0
126.0,126.0,125.0,127.0,127.0,129.0,93.0,120.0,-1.0,108.0,-63.0,127.0,127.0,127.0,-120.0,-91.0,115.0
126.0,126.0,125.0,127.0,127.0,128.0,92.0,120.0,-1.0,108.0,-63.0,127.0,127.0,127.0,-120.0,-91.0,115.0
126.0,126.0,125.0,127.0,127.0,128.0,91.0,120.0,-1.0,108.0,-63.0,127.0,127.0,127.0,-120.0,-91.0,115.0
126.0,126.0,125.0,127.0,127.0,128.0,90.0,120.0,-1.0,108.0,-63.0,127.0,127.0,127.0,-120.0,-91.0,115.0
126.0,126.0,125.0,127.0,127.0,128.0,89.0,119.0,-1.0,108.0,-63.0,127.0,127.0,127.0,-120.0,-91.0,115.0
126.0,126.0,125.0,127.0,127.0,128.0,89.0,119.0,-1.0,108.0,-63.0,127.0,127.0,127.0,-120.0,-91.0,115.0
126.0,126.0,125.0,127.0,128.0,128.0,88.0,119.0,-1.0,108.0,-63.0,127.0,127.0,127.0,-120.0,-91.0,115.0
126.0,126.0,125.0,127.0,128.0,128.0,87.0,119.0,-1.0,108.0,-63.0,127.0,127.0,127.0,-120.0,-91.0,115.0
126.0,126.0,125.0,127.0,127.0,129.0,95.0,120.0,-1.0,108.0,-63.0,127.0,127.0,127.0,-120.0,-91.0,115.0
127.0,127.0,125.0,127.0,126.0,128.0,77.0,117.0,-1.0,107.0,-63.0,127.0,127.0,127.0,-120.0,-91.0,115.0
127.0,127.0,125.0,127.0,126.0,128.0,77.0,117.0,-1.0,107.0,-63.0,127.0,127.0,127.0,-120.0,-91.0,115.0
127.0,127.0,125.0,127.0,126.0,128.0,77.0,117.0,-1.0,107.0,-63.0,127.0,127.0,127.0,-120.0,-91.0,115.0
127.0,127.0,125.0,127.0,126.0,127.0,77.0,117.0,-1.0,107.0,-63.0,127.0,127.0,127.0,-120.0,-91.0,115.0
127.0,127.0,125.0,127.0,126.0,127.0,77.0,117.0,-1.0,107.0,-63.0,127.0,127.0,127.0,-120.0,-91.0,115.0
127.0,127.0,125.0,127.0,127.0,127.0,77.0,117.0,-1.0,107.0,-63.0,127.0,127.0,127.0,-120.0,-91.0,115.0
127.0,127.0,125.0,127.0,127.0,127.0,77.0,117.0,-1.0,107.0,-63.0,127.0,127.0,127.0,-120.0,-91.0,115.0
127.0,127.0,125.0,127.0,127.0,126.0,77.0,117.0,-1.0,107.0,-63.0,127.0,127.0,127.0,-120.0,-91.0,115.0
127.0,127.0,125.0,127.0,126.0,128.0,77.0,117.0,-1.0,107.0,-63.0,127.0,127.0,127.0,-120.0,-91.0,115.0
127.0,127.0,125.0,127.0,126.0,128.0,77.0,117.0,-1.0,107.0,-63.0,127.0,127.0,127.0,-120.0,-91.0,115.0
127.0,127.0,125.0,128.0,127.0,128.0,69.0,119.0,-1.0,107.0,-62.0,127.0,127.0,127.0,-120.0,-91.0,115.0
127.0,127.0,125.0,128.0,127.0,128.0,69.0,119.0,-1.0,107.0,-62.0,127.0,127.0,127.0,-120.0,-91.0,115.0
127.0,127.0,125.0,128.0,127.0,128.0,68.0,119.0,-1.0,107.0,-62.0,127.0,127.0,127.0,-120.0,-91.0,115.0
127.0,127.0,125.0,128.0,127.0,128.0,68.0,119.0,-1.0,107.0,-62.0,127.0,127.0,127.0,-120.0,-91.0,115.0
127.0,127.0,125.0,128.0,127.0,128.0,67.0,119.0,-1.0,107.0,-62.0,127.0,127.0,127.0,-120.0,-91.0,115.0
127.0,127.0,125.0,128.0,127.0,128.0,67.0,119.0,-1.0,107.0,-62.0,127.0,127.0,127.0,-120.0,-91.0,115.0
127.0,127.0,125.0,128.0,127.0,128.0,67.0,119.0,-1.0,107.0,-62.0,127.0,127.0,127.0,-120.0,-91.0,115.0
127.0,127.0,125.0,128.0,127.0,128.0,71.0,118.0,-1.0,107.0,-62.0,127.0,127.0,127.0,-120.0,-91.0,115.0
127.0,127.0,125.0,128.0,127.0,129.0,71.0,119.0,-1.0,107.0,-62.0,127.0,127.0,127.0,-120.0,-91.0,115.0
127.0,127.0,125.0,128.0,127.0,128.0,70.0,119.0,-1.0,107.0,-62.0,127.0,127.0,127.0,-120.0,-91.0,115.0
127.0,127.0,125.0,128.0,127.0,127.0,61.0,121.0,-1.0,107.0,-62.0,127.0,127.0,127.0,-120.0,-91.0,115.0
127.0,127.0,125.0,128.0,127.0,127.0,61.0,122.0,-1.0,107.0,-62.0,127.0,127.0,127.0,-120.0,-91.0,115.0
127.0,127.0,126.0,128.0,127.0,127.0,61.0,121.0,-1.0,107.0,-62.0,127.0,127.0,127.0,-120.0,-91.0,115.0
127.0,127.0,126.0,128.0,127.0,127.0,61.0,121.0,-1.0,107.0,-62.0,127.0,127.0,127.0,-120.0,-91.0,115.0
127.0,127.0,125.0,128.0,127.0,127.0,60.0,121.0,-1.0,107.0,-62.0,127.0,127.0,127.0,-120.0,-91.0,115.0
127.0,127.0,125.0,128.0,127.0,127.0,60.0,121.0,-1.0,107.0,-62.0,127.0,127.0,127.0,-120.0,-91.0,115.0
127.0,127.0,126.0,128.0,127.0,126.0,63.0,121.0,-1.0,107.0,-62.0,127.0,127.0,127.0,-120.0,-91.0,115.0
127.0,127.0,126.0,128.0,127.0,126.0,63.0,121.0,-1.0,107.0,-62.0,127.0,127.0,127.0,-120.0,-91.0,115.0
127.0,127.0,126.0,128.0,127.0,126.0,62.0,121.0,-1.0,107.0,-62.0,127.0,127.0,127.0,-120.0,-91.0,115.0
127.0,127.0,126.0,128.0,127.0,126.0,62.0,121.0,-1.0,107.0,-62.0,127.0,127.0,127.0,-120.0,-91.0,115.0
127.0,127.0,125.0,128.0,126.0,125.0,53.0,124.0,-1.0,107.0,-63.0,127.0,127.0,127.0,-120.0,-91.0,115.0
127.0,127.0,125.0,128.0,126.0,125.0,53.0,124.0,-1.0,107.0,-63.0,127.0,127.0,127.0,-120.0,-91.0,115.0
127.0,127.0,125.0,128.0,126.0,125.0,54.0,124.0,-1.0,107.0,-63.0,127.0,127.0,127.0,-120.0,-91.0,115.0
127.0,127.0,125.0,128.0,126.0,125.0,54.0,124.0,-1.0,107.0,-63.0,127.0,127.0,127.0,-120.0,-91.0,115.0
127.0,127.0,125.0,128.0,126.0,125.0,55.0,124.0,-1.0,107.0,-63.0,127.0,127.0,127.0,-120.0,-91.0,115.0
127.0,128.0,125.0,128.0,126.0,126.0,52.0,123.0,-1.0,107.0,-63.0,127.0,127.0,127.0,-120.0,-91.0,115.0
127.0,128.0,125.0,128.0,126.0,126.0,52.0,123.0,-1.0,107.0,-63.0,127.0,127.0,127.0,-120.0,-91.0,115.0
127.0,127.0,125.0,128.0,126.0,126.0,52.0,123.0,-1.0,107.0,-63.0,127.0,127.0,127.0,-120.0,-91.0,115.0
127.0,127.0,125.0,128.0,126.0,126.0,53.0,123.0,-1.0,107.0,-63.0,127.0,127.0,127.0,-120.0,-91.0,115.0
127.0,127.0,125.0,128.0,126.0,125.0,53.0,123.0,-1.0,107.0,-63.0,127.0,127.0,127.0,-120.0,-91.0,115.0
127.0,127.0,125.0,128.0,126.0,127.0,74.0,124.0,-1.0,107.0,-63.0,127.0,127.0,127.0,-120.0,-91.0,115.0
127.0,127.0,125.0,128.0,126.0,126.0,74.0,123.0,-1.0,107.0,-63.0,127.0,127.0,127.0,-120.0,-91.0,115.0
127.0,127.0,125.0,128.0,126.0,126.0,74.0,123.0,-1.0,107.0,-63.0,127.0,127.0,127.0,-120.0,-91.0,115.0
127.0,126.0,125.0,128.0,126.0,126.0,75.0,123.0,-1.0,107.0,-63.0,127.0,127.0,127.0,-120.0,-91.0,115.0
127.0,127.0,125.0,128.0,126.0,127.0,72.0,124.0,-1.0,107.0,-63.0,127.0,127.0,127.0,-120.0,-91.0,115.0
127.0,127.0,125.0,128.0,126.0,127.0,73.0,124.0,-1.0,107.0,-63.0,127.0,127.0,127.0,-120.0,-91.0,115.0
127.0,127.0,125.0,128.0,126.0,127.0,73.0,124.0,-1.0,107.0,-63.0,127.0,127.0,127.0,-120.0,-91.0,115.0
127.0,127.0,125.0,128.0,126.0,127.0,73.0,124.0,-1.0,107.0,-63.0,127.0,127.0,127.0,-120.0,-91.0,115.0
127.0,127.0,125.0,128.0,126.0,127.0,74.0,124.0,-1.0,107.0,-63.0,127.0,127.0,127.0,-120.0,-91.0,115.0
127.0,127.0,125.0,128.0,126.0,127.0,74.0,124.0,-1.0,107.0,-63.0,127.0,127.0,127.0,-120.0,-91.0,115.0
126.0,126.0,126.0,128.0,126.0,125.0,82.0,125.0,-1.0,107.0,-63.0,127.0,127.0,127.0,-120.0,-91.0,115.0
126.0,126.0,126.0,128.0,126.0,125.0,82.0,125.0,-1.0,107.0,-63.0,127.0,127.0,127.0,-120.0,-91.0,115.0
126.0,126.0,126.0,128.0,126.0,124.0,82.0,125.0,-1.0,107.0,-63.0,127.0,127.0,127.0,-120.0,-91.0,115.0
127.0,126.0,126.0,128.0,126.0,126.0,81.0,125.0,-1.0,107.0,-63.0,127.0,127.0,127.0,-120.0,-91.0,115.0
127.0,126.0,126.0,128.0,126.0,126.0,81.0,125.0,-1.0,107.0,-63.0,127.0,127.0,127.0,-120.0,-91.0,115.0
127.0,126.0,126.0,128.0,126.0,126.0,81.0,125.0,-1.0,107.0,-63.0,127.0,127.0,127.0,-120.0,-91.0,115.0
127.0,126.0,126.0,128.0,126.0,125.0,81.0,125.0,-1.0,107.0,-63.0,127.0,127.0,127.0,-120.0,-91.0,115.0
127.0,126.0,126.0,128.0,126.0,125.0,81.0,125.0,-1.0,107.0,-63.0,127.0,127.0,127.0,-120.0,-91.0,115.0
127.0,126.0,126.0,128.0,126.0,125.0,81.0,125.0,-1.0,107.0,-63.0,127.0,127.0,127.0,-120.0,-91.0,115.0
127.0,126.0,126.0,128.0,126.0,125.0,82.0,125.0,-1.0,107.0,-63.0,127.0,127.0,127.0,-120.0,-91.0,115.0
126.0,126.0,127.0,128.0,127.0,125.0,101.0,127.0,-1.0,107.0,-63.0,127.0,127.0,127.0,-120.0,-91.0,115.0
126.0,126.0,127.0,128.0,127.0,125.0,102.0,127.0,-1.0,107.0,-63.0,127.0,127.0,127.0,-120.0,-91.0,115.0
126.0,126.0,126.0,128.0,126.0,127.0,97.0,128.0,-1.0,107.0,-63.0,127.0,127.0,127.0,-120.0,-91.0,115.0
126.0,126.0,126.0,128.0,126.0,126.0,97.0,128.0,-1.0,107.0,-63.0,127.0,127.0,127.0,-120.0,-91.0,115.0
126.0,126.0,126.0,128.0,126.0,126.0,98.0,127.0,-1.0,107.0,-63.0,127.0,127.0,127.0,-120.0,-91.0,115.0
126.0,126.0,126.0,128.0,126.0,126.0,98.0,128.0,-1.0,107.0,-63.0,127.0,127.0,127.0,-120.0,-91.0,115.0
126.0,126.0,126.0,128.0,126.0,126.0,99.0,127.0,-1.0,107.0,-63.0,127.0,127.0,127.0,-120.0,-91.0,115.0
126.0,126.0,126.0,128.0,126.0,126.0,100.0,127.0,-1.0,107.0,-63.0,127.0,127.0,127.0,-120.0,-91.0,115.0
126.0,126.0,126.0,128.0,127.0,126.0,100.0,127.0,-1.0,107.0,-63.0,127.0,127.0,127.0,-120.0,-91.0,115.0
126.0,126.0,127.0,128.0,127.0,125.0,101.0,127.0,-1.0,107.0,-63.0,127.0,127.0,127.0,-120.0,-91.0,115.0
126.0,125.0,127.0,127.0,127.0,124.0,119.0,127.0,-1.0,106.0,-63.0,127.0,127.0,127.0,-120.0,-91.0,115.0
126.0,126.0,127.0,128.0,126.0,126.0,116.0,127.0,-1.0,106.0,-63.0,127.0,127.0,127.0,-120.0,-91.0,115.0
126.0,126.0,127.0,128.0,126.0,126.0,117.0,127.0,-1.0,106.0,-63.0,127.0,127.0,127.0,-120.0,-91.0,115.0
126.0,126.0,127.0,128.0,127.0,126.0,117.0,127.0,-1.0,106.0,-63.0,127.0,127.0,127.0,-120.0,-91.0,115.0
126.0,126.0,127.0,128.0,127.0,125.0,117.0,127.0,-1.0,106.0,-63.0,127.0,127.0,127.0,-120.0,-91.0,115.0
126.0,125.0,127.0,128.0,127.0,125.0,118.0,127.0,-1.0,106.0,-63.0,127.0,127.0,127.0,-120.0,-91.0,115.0
126.0,126.0,127.0,127.0,127.0,125.0,118.0,127.0,-1.0,106.0,-63.0,127.0,127.0,127.0,-120.0,-91.0,115.0
126.0,125.0,127.0,127.0,127.0,125.0,118.0,127.0,-1.0,106.0,-63.0,127.0,127.0,127.0,-120.0,-91.0,115.0
126.0,125.0,127.0,127.0,127.0,124.0,119.0,127.0,-1.0,106.0,-63.0,127.0,127.0,127.0,-120.0,-91.0,115.0
126.0,125.0,127.0,127.0,127.0,124.0,119.0,127.0,-1.0,106.0,-63.0,127.0,127.0,127.0,-120.0,-91.0,115.0
126.0,125.0,127.0,127.0,127.0,125.0,123.0,128.0,-1.0,106.0,-63.0,127.0,127.0,127.0,-120.0,-91.0,115.0
126.0,125.0,127.0,127.0,127.0,124.0,123.0,128.0,-1.0,106.0,-63.0,127.0,127.0,127.0,-120.0,-91.0,115.0
126.0,126.0,127.0,127.0,127.0,124.0,123.0,128.0,-1.0,106.0,-63.0,127.0,127.0,127.0,-120.0,-91.0,115.0
126.0,125.0,127.0,127.0,127.0,124.0,123.0,128.0,-1.0,106.0,-63.0,127.0,127.0,127.0,-120.0,-91.0,115.0
126.0,125.0,127.0,127.0,127.0,124.0,123.0,128.0,-1.0,106.0,-63.0,127.0,127.0,127.0,-120.0,-91.0,115.0
126.0,125.0,127.0,127.0,127.0,124.0,123.0,128.0,-1.0,106.0,-63.0,127.0,127.0,127.0,-120.0,-91.0,115.0
126.0,125.0,127.0,127.0,127.0,124.0,123.0,128.0,-1.0,106.0,-63.0,127.0,127.0,127.0,-120.0,-91.0,115.0
126.0,125.0,127.0,127.0,127.0,124.0,124.0,128.0,-1.0,106.0,-63.0,127.0,127.0,127.0,-120.0,-91.0,115.0
126.0,125.0,127.0,127.0,127.0,124.0,124.0,128.0,-1.0,106.0,-63.0,127.0,127.0,127.0,-120.0,-91.0,115.0
126.0,125.0,127.0,127.0,127.0,124.0,124.0,127.0,-1.0,106.0,-63.0,127.0,127.0,127.0,-120.0,-91.0,115.0
126.0,126.0,127.0,127.0,126.0,126.0,126.0,127.0,-1.0,107.0,-63.0,127.0,127.0,127.0,-120.0,-91.0,115.0
126.0,126.0,127.0,127.0,126.0,126.0,126.0,127.0,-1.0,107.0,-63.0,127.0,127.0,127.0,-120.0,-91.0,115.0
126.0,126.0,127.0,127.0,126.0,126.0,126.0,127.0,-1.0,107.0,-63.0,127.0,127.0,127.0,-120.0,-91.0,115.0
126.0,126.0,127.0,127.0,126.0,126.0,126.0,127.0,-1.0,107.0,-63.0,127.0,127.0,127.0,-120.0,-91.0,115.0
126.0,126.0,127.0,127.0,126.0,125.0,126.0,127.0,-1.0,107.0,-63.0,127.0,127.0,127.0,-120.0,-91.0,115.0
126.0,126.0,127.0,127.0,126.0,125.0,126.0,127.0,-1.0,107.0,-63.0,127.0,127.0,127.0,-120.0,-91.0,115.0
126.0,126.0,127.0,127.0,126.0,125.0,126.0,127.0,-1.0,107.0,-63.0,127.0,127.0,127.0,-120.0,-91.0,115.0
126.0,126.0,127.0,127.0,126.0,125.0,126.0,127.0,-1.0,107.0,-63.0,127.0,127.0,127.0,-120.0,-91.0,115.0
126.0,125.0,127.0,127.0,126.0,125.0,126.0,127.0,-1.0,107.0,-63.0,127.0,127.0,127.0,-120.0,-91.0,115.0
126.0,126.0,127.0,127.0,126.0,126.0,126.0,127.0,-1.0,107.0,-63.0,127.0,127.0,127.0,-120.0,-91.0,115.0
126.0,126.0,127.0,127.0,126.0,126.0,128.0,127.0,-1.0,107.0,-63.0,127.0,127.0,127.0,-120.0,-91.0,115.0
127.0,126.0,127.0,127.0,126.0,126.0,128.0,127.0,-1.0,107.0,-63.0,127.0,127.0,127.0,-120.0,-91.0,115.0
127.0,126.0,127.0,127.0,126.0,126.0,128.0,127.0,-1.0,107.0,-63.0,127.0,127.0,127.0,-120.0,-91.0,115.0
127.0,126.0,127.0,127.0,126.0,126.0,128.0,127.0,-1.0,107.0,-63.0,127.0,127.0,127.0,-120.0,-91.0,115.0
127.0,126.0,127.0,127.0,126.0,126.0,128.0,127.0,-1.0,107.0,-63.0,127.0,127.0,127.0,-120.0,-91.0,115.0
127.0,126.0,127.0,127.0,126.0,126.0,128.0,127.0,-1.0,107.0,-63.0,127.0,127.0,127.0,-120.0,-91.0,115.0
127.0,127.0,127.0,127.0,126.0,126.0,128.0,127.0,-1.0,107.0,-63.0,127.0,127.0,127.0,-120.0,-91.0,115.0
127.0,127.0,127.0,127.0,126.0,126.0,128.0,127.0,-1.0,107.0,-63.0,127.0,127.0,127.0,-120.0,-91.0,115.0
126.0,126.0,127.0,127.0,127.0,126.0,129.0,127.0,-1.0,107.0,-63.0,127.0,127.0,127.0,-120.0,-91.0,115.0
126.0,126.0,127.0,127.0,127.0,126.0,128.0,127.0,-1.0,107.0,-63.0,127.0,127.0,127.0,-120.0,-91.0,115.0
126.0,127.0,126.0,127.0,126.0,126.0,130.0,126.0,-1.0,107.0,-63.0,127.0,127.0,127.0,-120.0,-91.0,115.0
127.0,127.0,126.0,126.0,126.0,126.0,130.0,126.0,-1.0,107.0,-63.0,127.0,127.0,127.0,-120.0,-91.0,115.0
126.0,127.0,126.0,126.0,126.0,126.0,130.0,126.0,-1.0,107.0,-63.0,127.0,127.0,127.0,-120.0,-91.0,115.0
126.0,127.0,126.0,126.0,126.0,126.0,130.0,126.0,-1.0,107.0,-63.0,127.0,127.0,127.0,-120.0,-91.0,115.0
126.0,127.0,126.0,126.0,126.0,125.0,130.0,126.0,-1.0,107.0,-63.0,127.0,127.0,127.0,-120.0,-91.0,115.0
126.0,127.0,126.0,126.0,126.0,126.0,130.0,127.0,-1.0,107.0,-63.0,127.0,127.0,127.0,-120.0,-91.0,115.0
126.0,127.0,126.0,126.0,126.0,126.0,130.0,127.0,-1.0,107.0,-63.0,127.0,127.0,127.0,-120.0,-91.0,115.0
126.0,127.0,127.0,126.0,126.0,126.0,130.0,126.0,-1.0,107.0,-63.0,127.0,127.0,127.0,-120.0,-91.0,115.0
126.0,127.0,126.0,126.0,126.0,125.0,130.0,126.0,-1.0,107.0,-63.0,127.0,127.0,127.0,-120.0,-91.0,115.0
126.0,127.0,126.0,127.0,126.0,126.0,130.0,126.0,-1.0,107.0,-63.0,127.0,127.0,127.0,-120.0,-91.0,115.0
126.0,127.0,126.0,126.0,126.0,126.0,134.0,128.0,-1.0,108.0,-63.0,127.0,127.0,127.0,-120.0,-91.0,115.0
126.0,127.0,126.0,126.0,126.0,126.0,134.0,128.0,-1.0,108.0,-63.0,127.0,127.0,127.0,-120.0,-91.0,115.0
126.0,127.0,126.0,126.0,126.0,126.0,134.0,128.0,-1.0,108.0,-63.0,127.0,127.0,127.0,-120.0,-91.0,115.0
126.0,127.0,126.0,126.0,126.0,126.0,134.0,128.0,-1.0,108.0,-63.0,127.0,127.0,127.0,-120.0,-91.0,115.0
126.0,127.0,126.0,126.0,126.0,126.0,134.0,128.0,-1.0,108.0,-63.0,127.0,127.0,127.0,-120.0,-91.0,115.0
126.0,127.0,126.0,126.0,126.0,127.0,134.0,128.0,-1.0,108.0,-63.0,127.0,127.0,127.0,-120.0,-91.0,115.0
126.0,127.0,127.0,126.0,126.0,126.0,134.0,127.0,-1.0,108.0,-63.0,127.0,127.0,127.0,-120.0,-91.0,115.0
126.0,127.0,127.0,126.0,126.0,126.0,134.0,127.0,-1.0,108.0,-63.0,127.0,127.0,127.0,-120.0,-91.0,115.0
126.0,127.0,126.0,126.0,126.0,126.0,134.0,128.0,-1.0,108.0,-63.0,127.0,127.0,127.0,-120.0,-91.0,115.0
126.0,127.0,126.0,126.0,126.0,127.0,134.0,128.0,-1.0,108.0,-63.0,127.0,127.0,127.0,-120.0,-91.0,115.0
126.0,126.0,127.0,126.0,126.0,126.0,136.0,128.0,-1.0,108.0,-63.0,127.0,127.0,127.0,-120.0,-91.0,115.0
126.0,126.0,127.0,126.0,126.0,125.0,136.0,128.0,-1.0,108.0,-63.0,127.0,127.0,127.0,-120.0,-91.0,115.0
126.0,126.0,127.0,126.0,126.0,126.0,136.0,128.0,-1.0,108.0,-63.0,127.0,127.0,127.0,-120.0,-91.0,115.0
126.0,126.0,127.0,126.0,126.0,126.0,136.0,128.0,-1.0,108.0,-63.0,127.0,127.0,127.0,-120.0,-91.0,115.0
126.0,126.0,126.0,126.0,126.0,126.0,135.0,128.0,-1.0,108.0,-63.0,127.0,127.0,127.0,-120.0,-91.0,115.0
126.0,126.0,127.0,126.0,127.0,125.0,136.0,127.0,-1.0,108.0,-63.0,127.0,127.0,127.0,-120.0,-91.0,115.0
126.0,126.0,127.0,126.0,126.0,125.0,136.0,127.0,-1.0,108.0,-63.0,127.0,127.0,127.0,-120.0,-91.0,115.0
126.0,126.0,127.0,126.0,126.0,125.0,136.0,128.0,-1.0,108.0,-63.0,127.0,127.0,127.0,-120.0,-91.0,115.0
126.0,126.0,127.0,126.0,126.0,126.0,136.0,128.0,-1.0,108.0,-63.0,127.0,127.0,127.0,-120.0,-91.0,115.0
126.0,127.0,127.0,126.0,126.0,126.0,136.0,128.0,-1.0,108.0,-63.0,127.0,127.0,127.0,-120.0,-91.0,115.0
126.0,126.0,127.0,126.0,126.0,125.0,135.0,126.0,-1.0,108.0,-62.0,127.0,127.0,127.0,-120.0,-91.0,115.0
126.0,126.0,127.0,126.0,126.0,125.0,135.0,127.0,-1.0,108.0,-62.0,127.0,127.0,127.0,-120.0,-91.0,115.0
126.0,126.0,127.0,126.0,126.0,124.0,135.0,126.0,-1.0,108.0,-62.0,127.0,127.0,127.0,-120.0,-91.0,115.0
126.0,126.0,127.0,126.0,126.0,124.0,135.0,126.0,-1.0,108.0,-62.0,127.0,127.0,127.0,-120.0,-91.0,115.0
126.0,126.0,126.0,126.0,126.0,126.0,134.0,127.0,-1.0,108.0,-62.0,127.0,127.0,127.0,-120.0,-91.0,115.0
126.0,126.0,126.0,126.0,126.0,125.0,134.0,127.0,-1.0,108.0,-62.0,127.0,127.0,127.0,-120.0,-91.0,115.0
126.0,126.0,127.0,126.0,126.0,125.0,134.0,127.0,-1.0,108.0,-62.0,127.0,127.0,127.0,-120.0,-91.0,115.0
126.0,126.0,126.0,126.0,126.0,125.0,134.0,127.0,-1.0,108.0,-62.0,127.0,127.0,127.0,-120.0,-91.0,115.0
126.0,126.0,127.0,126.0,126.0,125.0,134.0,127.0,-1.0,108.0,-62.0,127.0,127.0,127.0,-120.0,-91.0,115.0
126.0,126.0,127.0,126.0,126.0,125.0,134.0,127.0,-1.0,108.0,-62.0,127.0,127.0,127.0,-120.0,-91.0,115.0
126.0,127.0,127.0,126.0,126.0,125.0,129.0,127.0,-1.0,108.0,-62.0,127.0,127.0,127.0,-120.0,-91.0,115.0
126.0,127.0,127.0,126.0,126.0,125.0,129.0,127.0,-1.0,108.0,-62.0,127.0,127.0,127.0,-120.0,-91.0,115.0
126.0,126.0,127.0,126.0,126.0,125.0,129.0,127.0,-1.0,108.0,-62.0,127.0,127.0,127.0,-120.0,-91.0,115.0
126.0,127.0,127.0,126.0,126.0,126.0,130.0,127.0,-1.0,108.0,-62.0,127.0,127.0,127.0,-120.0,-91.0,115.0
126.0,127.0,127.0,126.0,126.0,126.0,130.0,127.0,-1.0,108.0,-62.0,127.0,127.0,127.0,-120.0,-91.0,115.0
126.0,127.0,127.0,126.0,126.0,126.0,130.0,127.0,-1.0,108.0,-62.0,127.0,127.0,127.0,-120.0,-91.0,115.0
126.0,127.0,127.0,126.0,126.0,126.0,130.0,127.0,-1.0,108.0,-62.0,127.0,127.0,127.0,-120.0,-91.0,115.0
126.0,127.0,127.0,126.0,126.0,126.0,130.0,127.0,-1.0,108.0,-62.0,127.0,127.0,127.0,-120.0,-91.0,115.0
126.0,127.0,127.0,126.0,126.0,125.0,130.0,127.0,-1.0,108.0,-62.0,127.0,127.0,127.0,-120.0,-91.0,115.0
126.0,127.0,127.0,126.0,126.0,125.0,130.0,127.0,-1.0,108.0,-62.0,127.0,127.0,127.0,-120.0,-91.0,115.0
126.0,127.0,127.0,126.0,126.0,126.0,127.0,127.0,-1.0,109.0,-62.0,127.0,127.0,127.0,-120.0,-91.0,115.0
126.0,127.0,127.0,126.0,126.0,126.0,127.0,127.0,-1.0,109.0,-62.0,127.0,127.0,127.0,-120.0,-91.0,115.0
126.0,127.0,126.0,126.0,126.0,127.0,126.0,128.0,-1.0,109.0,-62.0,127.0,127.0,127.0,-120.0,-91.0,115.0
126.0,127.0,126.0,126.0,126.0,127.0,126.0,128.0,-1.0,109.0,-62.0,127.0,127.0,127.0,-120.0,-91.0,115.0
126.0,127.0,126.0,126.0,126.0,127.0,126.0,127.0,-1.0,109.0,-62.0,127.0,127.0,127.0,-120.0,-91.0,115.0
126.0,127.0,126.0,126.0,126.0,126.0,126.0,127.0,-1.0,109.0,-62.0,127.0,127.0,127.0,-120.0,-91.0,115.0
126.0,127.0,126.0,126.0,126.0,126.0,126.0,127.0,-1.0,109.0,-62.0,127.0,127.0,127.0,-120.0,-91.0,115.0
126.0,127.0,126.0,126.0,126.0,126.0,127.0,127.0,-1.0,109.0,-62.0,127.0,127.0,127.0,-120.0,-91.0,115.0
126.0,127.0,127.0,126.0,126.0,126.0,127.0,127.0,-1.0,109.0,-62.0,127.0,127.0,127.0,-120.0,-91.0,115.0
126.0,127.0,126.0,126.0,126.0,126.0,127.0,127.0,-1.0,109.0,-62.0,127.0,127.0,127.0,-120.0,-91.0,115.0
126.0,127.0,127.0,126.0,126.0,127.0,127.0,127.0,-1.0,109.0,-62.0,127.0,127.0,127.0,-120.0,-91.0,115.0
126.0,127.0,127.0,126.0,126.0,127.0,127.0,127.0,-1.0,109.0,-62.0,127.0,127.0,127.0,-120.0,-91.0,115.0
126.0,127.0,127.0,126.0,126.0,127.0,127.0,126.0,-1.0,109.0,-62.0,127.0,127.0,127.0,-120.0,-91.0,115.0
126.0,127.0,127.0,126.0,126.0,127.0,127.0,126.0,-1.0,109.0,-62.0,127.0,127.0,127.0,-120.0,-91.0,115.0
126.0,127.0,127.0,126.0,126.0,126.0,127.0,126.0,-1.0,109.0,-62.0,127.0,127.0,127.0,-120.0,-91.0,115.0
126.0,127.0,127.0,126.0,126.0,126.0,127.0,126.0,-1.0,109.0,-62.0,127.0,127.0,127.0,-120.0,-91.0,115.0
126.0,127.0,127.0,126.0,126.0,126.0,128.0,126.0,-1.0,109.0,-62.0,127.0,127.0,127.0,-120.0,-91.0,115.0
126.0,127.0,127.0,126.0,126.0,126.0,128.0,126.0,-1.0,109.0,-62.0,127.0,127.0,127.0,-120.0,-91.0,115.0
126.0,127.0,127.0,126.0,126.0,125.0,128.0,125.0,-1.0,109.0,-62.0,127.0,127.0,127.0,-120.0,-91.0,115.0
126.0,127.0,127.0,126.0,126.0,125.0,128.0,125.0,-1.0,109.0,-62.0,127.0,127.0,127.0,-120.0,-91.0,115.0
126.0,127.0,127.0,126.0,126.0,126.0,128.0,125.0,-1.0,109.0,-62.0,127.0,127.0,127.0,-120.0,-91.0,115.0
126.0,127.0,127.0,126.0,126.0,126.0,128.0,126.0,-1.0,109.0,-62.0,127.0,127.0,127.0,-120.0,-91.0,115.0
126.0,127.0,127.0,126.0,126.0,126.0,128.0,125.0,-1.0,109.0,-62.0,127.0,127.0,127.0,-120.0,-91.0,115.0
126.0,127.0,127.0,126.0,126.0,126.0,128.0,125.0,-1.0,109.0,-62.0,127.0,127.0,127.0,-120.0,-91.0,115.0
126.0,127.0,127.0,126.0,126.0,126.0,128.0,125.0,-1.0,109.0,-62.0,127.0,127.0,127.0,-120.0,-91.0,115.0
126.0,127.0,127.0,126.0,126.0,126.0,128.0,125.0,-1.0,109.0,-62.0,127.0,127.0,127.0,-120.0,-91.0,115.0
126.0,127.0,127.0,126.0,126.0,126.0,128.0,126.0,-1.0,109.0,-62.0,127.0,127.0,127.0,-120.0,-91.0,115.0
126.0,127.0,126.0,127.0,126.0,127.0,128.0,126.0,-1.0,109.0,-62.0,127.0,127.0,127.0,-120.0,-91.0,115.0
126.0,127.0,126.0,126.0,126.0,127.0,128.0,126.0,-1.0,109.0,-62.0,127.0,127.0,127.0,-120.0,-91.0,115.0
126.0,127.0,127.0,127.0,126.0,126.0,128.0,126.0,-1.0,109.0,-62.0,127.0,127.0,127.0,-120.0,-91.0,115.0
127.0,127.0,127.0,126.0,126.0,126.0,131.0,127.0,-1.0,109.0,-62.0,127.0,127.0,127.0,-120.0,-91.0,115.0
126.0,127.0,127.0,126.0,126.0,126.0,131.0,127.0,-1.0,109.0,-62.0,127.0,127.0,127.0,-120.0,-91.0,115.0
127.0,127.0,127.0,126.0,126.0,126.0,131.0,127.0,-1.0,109.0,-62.0,127.0,127.0,127.0,-120.0,-91.0,115.0
126.0,127.0,127.0,126.0,126.0,125.0,131.0,126.0,-1.0,109.0,-62.0,127.0,127.0,127.0,-120.0,-91.0,115.0
126.0,127.0,127.0,126.0,126.0,125.0,131.0,126.0,-1.0,109.0,-62.0,127.0,127.0,127.0,-120.0,-91.0,115.0
126.0,127.0,126.0,126.0,126.0,125.0,131.0,127.0,-1.0,109.0,-62.0,127.0,127.0,127.0,-120.0,-91.0,115.0
127.0,127.0,126.0,126.0,125.0,126.0,131.0,127.0,-1.0,109.0,-62.0,127.0,127.0,127.0,-120.0,-91.0,115.0
126.0,127.0,126.0,126.0,125.0,126.0,131.0,127.0,-1.0,109.0,-62.0,127.0,127.0,127.0,-120.0,-91.0,115.0
127.0,127.0,126.0,126.0,126.0,126.0,131.0,127.0,-1.0,109.0,-62.0,127.0,127.0,127.0,-120.0,-91.0,115.0
126.0,127.0,127.0,126.0,126.0,126.0,131.0,126.0,-1.0,109.0,-62.0,127.0,127.0,127.0,-120.0,-91.0,115.0
126.0,127.0,127.0,127.0,126.0,126.0,131.0,127.0,-1.0,109.0,-62.0,127.0,127.0,127.0,-120.0,-91.0,115.0
126.0,127.0,127.0,127.0,126.0,126.0,131.0,127.0,-1.0,109.0,-62.0,127.0,127.0,127.0,-120.0,-91.0,115.0
126.0,127.0,127.0,127.0,126.0,125.0,131.0,127.0,-1.0,109.0,-62.0,127.0,127.0,127.0,-120.0,-91.0,115.0
126.0,127.0,127.0,126.0,126.0,125.0,131.0,127.0,-1.0,109.0,-62.0,127.0,127.0,127.0,-120.0,-91.0,115.0
126.0,127.0,127.0,127.0,126.0,125.0,131.0,127.0,-1.0,109.0,-62.0,127.0,127.0,127.0,-120.0,-91.0,115.0
126.0,127.0,127.0,127.0,126.0,126.0,131.0,128.0,-1.0,109.0,-62.0,127.0,127.0,127.0,-120.0,-91.0,115.0
126.0,127.0,127.0,127.0,126.0,126.0,131.0,127.0,-1.0,109.0,-62.0,127.0,127.0,127.0,-120.0,-91.0,115.0
126.0,127.0,127.0,127.0,126.0,126.0,131.0,127.0,-1.0,109.0,-62.0,127.0,127.0,127.0,-120.0,-91.0,115.0
126.0,127.0,127.0,127.0,126.0,125.0,131.0,127.0,-1.0,109.0,-62.0,127.0,127.0,127.0,-120.0,-91.0,115.0
126.0,127.0,127.0,127.0,126.0,126.0,131.0,127.0,-1.0,109.0,-62.0,127.0,127.0,127.0,-120.0,-91.0,115.0
126.0,127.0,127.0,126.0,126.0,126.0,132.0,127.0,-1.0,110.0,-62.0,127.0,127.0,127.0,-120.0,-91.0,115.0
126.0,127.0,127.0,126.0,126.0,125.0,132.0,127.0,-1.0,110.0,-62.0,127.0,127.0,127.0,-120.0,-91.0,115.0
126.0,127.0,127.0,126.0,126.0,125.0,132.0,127.0,-1.0,110.0,-62.0,127.0,127.0,127.0,-120.0,-91.0,115.0
126.0,127.0,127.0,126.0,126.0,125.0,132.0,127.0,-1.0,110.0,-62.0,127.0,127.0,127.0,-120.0,-91.0,115.0
126.0,127.0,126.0,126.0,125.0,126.0,131.0,128.0,-1.0,110.0,-62.0,127.0,127.0,127.0,-120.0,-91.0,115.0
126.0,127.0,127.0,126.0,125.0,126.0,131.0,128.0,-1.0,110.0,-62.0,127.0,127.0,127.0,-120.0,-91.0,115.0
126.0,127.0,126.0,126.0,125.0,126.0,131.0,127.0,-1.0,110.0,-62.0,127.0,127.0,127.0,-120.0,-91.0,115.0
126.0,127.0,127.0,126.0,126.0,125.0,132.0,127.0,-1.0,110.0,-62.0,127.0,127.0,127.0,-120.0,-91.0,115.0
126.0,127.0,127.0,126.0,126.0,126.0,132.0,128.0,-1.0,110.0,-62.0,127.0,127.0,127.0,-120.0,-91.0,115.0
126.0,127.0,127.0,126.0,126.0,126.0,132.0,127.0,-1.0,110.0,-62.0,127.0,127.0,127.0,-120.0,-91.0,115.0
126.0,127.0,127.0,127.0,126.0,126.0,130.0,127.0,-1.0,110.0,-62.0,127.0,127.0,127.0,-120.0,-91.0,115.0
126.0,127.0,127.0,127.0,126.0,126.0,130.0,127.0,-1.0,110.0,-62.0,127.0,127.0,127.0,-120.0,-91.0,115.0
126.0,127.0,127.0,127.0,126.0,126.0,130.0,127.0,-1.0,110.0,-62.0,127.0,127.0,127.0,-120.0,-91.0,115.0
126.0,127.0,126.0,127.0,126.0,126.0,130.0,127.0,-1.0,110.0,-62.0,127.0,127.0,127.0,-120.0,-91.0,115.0
126.0,127.0,126.0,127.0,126.0,127.0,130.0,127.0,-1.0,110.0,-62.0,127.0,127.0,127.0,-120.0,-91.0,115.0
126.0,127.0,127.0,127.0,126.0,127.0,130.0,127.0,-1.0,110.0,-62.0,127.0,127.0,127.0,-120.0,-91.0,115.0
126.0,127.0,127.0,126.0,126.0,126.0,131.0,127.0,-1.0,110.0,-62.0,127.0,127.0,127.0,-120.0,-91.0,115.0
126.0,127.0,127.0,127.0,126.0,126.0,130.0,128.0,-1.0,110.0,-62.0,127.0,127.0,127.0,-120.0,-91.0,115.0
126.0,127.0,127.0,127.0,126.0,126.0,130.0,128.0,-1.0,110.0,-62.0,127.0,127.0,127.0,-120.0,-91.0,115.0
126.0,127.0,127.0,127.0,126.0,126.0,130.0,127.0,-1.0,110.0,-62.0,127.0,127.0,127.0,-120.0,-91.0,115.0
126.0,127.0,127.0,127.0,126.0,126.0,130.0,127.0,-1.0,110.0,-62.0,127.0,127.0,127.0,-120.0,-91.0,115.0
126.0,127.0,127.0,127.0,126.0,126.0,130.0,127.0,-1.0,110.0,-62.0,127.0,127.0,127.0,-120.0,-91.0,115.0
126.0,127.0,126.0,127.0,125.0,126.0,130.0,127.0,-1.0,110.0,-62.0,127.0,127.0,127.0,-120.0,-91.0,115.0
126.0,127.0,126.0,127.0,125.0,127.0,130.0,127.0,-1.0,110.0,-62.0,127.0,127.0,127.0,-120.0,-91.0,115.0
126.0,127.0,126.0,127.0,125.0,127.0,130.0,127.0,-1.0,110.0,-62.0,127.0,127.0,127.0,-120.0,-91.0,115.0
126.0,127.0,127.0,127.0,126.0,126.0,130.0,127.0,-1.0,110.0,-62.0,127.0,127.0,127.0,-120.0,-91.0,115.0
126.0,127.0,127.0,127.0,126.0,127.0,130.0,127.0,-1.0,110.0,-62.0,127.0,127.0,127.0,-120.0,-91.0,115.0
126.0,127.0,127.0,127.0,126.0,127.0,130.0,127.0,-1.0,110.0,-62.0,127.0,127.0,127.0,-120.0,-91.0,115.0
126.0,127.0,127.0,127.0,126.0,126.0,130.0,127.0,-1.0,110.0,-62.0,127.0,127.0,127.0,-120.0,-91.0,115.0
126.0,127.0,127.0,127.0,126.0,126.0,130.0,127.0,-1.0,110.0,-62.0,127.0,127.0,127.0,-120.0,-91.0,115.0
127.0,126.0,127.0,127.0,126.0,127.0,128.0,128.0,-1.0,109.0,-62.0,127.0,127.0,127.0,-120.0,-91.0,115.0
127.0,126.0,127.0,127.0,126.0,127.0,128.0,128.0,-1.0,109.0,-62.0,127.0,127.0,127.0,-120.0,-91.0,115.0
127.0,126.0,126.0,127.0,126.0,127.0,128.0,128.0,-1.0,109.0,-62.0,127.0,127.0,127.0,-120.0,-91.0,115.0
127.0,126.0,126.0,127.0,126.0,127.0,128.0,128.0,-1.0,109.0,-62.0,127.0,127.0,127.0,-120.0,-91.0,115.0
126.0,126.0,127.0,127.0,127.0,126.0,129.0,128.0,-1.0,109.0,-62.0,127.0,127.0,127.0,-120.0,-91.0,115.0
127.0,126.0,127.0,127.0,126.0,127.0,128.0,128.0,-1.0,109.0,-62.0,127.0,127.0,127.0,-120.0,-91.0,115.0
127.0,126.0,127.0,127.0,126.0,127.0,128.0,128.0,-1.0,109.0,-62.0,127.0,127.0,127.0,-120.0,-91.0,115.0
127.0,126.0,127.0,127.0,126.0,127.0,128.0,128.0,-1.0,109.0,-62.0,127.0,127.0,127.0,-120.0,-91.0,115.0
127.0,126.0,127.0,127.0,126.0,127.0,128.0,128.0,-1.0,109.0,-62.0,127.0,127.0,127.0,-120.0,-91.0,115.0
127.0,126.0,127.0,127.0,126.0,127.0,128.0,128.0,-1.0,109.0,-62.0,127.0,127.0,127.0,-120.0,-91.0,115.0
126.0,126.0,127.0,127.0,126.0,127.0,128.0,128.0,-1.0,109.0,-63.0,127.0,127.0,127.0,-120.0,-91.0,115.0
126.0,126.0,126.0,127.0,126.0,127.0,127.0,128.0,-1.0,109.0,-63.0,127.0,127.0,127.0,-120.0,-91.0,115.0
126.0,126.0,127.0,127.0,126.0,127.0,127.0,128.0,-1.0,109.0,-63.0,127.0,127.0,127.0,-120.0,-91.0,115.0
126.0,126.0,127.0,127.0,126.0,126.0,128.0,128.0,-1.0,109.0,-63.0,127.0,127.0,127.0,-120.0,-91.0,115.0
126.0,126.0,127.0,127.0,126.0,127.0,128.0,128.0,-1.0,109.0,-63.0,127.0,127.0,127.0,-120.0,-91.0,115.0
126.0,126.0,127.0,127.0,126.0,127.0,128.0,128.0,-1.0,109.0,-63.0,127.0,127.0,127.0,-120.0,-91.0,115.0
126.0,126.0,127.0,127.0,126.0,127.0,128.0,128.0,-1.0,109.0,-63.0,127.0,127.0,127.0,-120.0,-91.0,115.0
126.0,126.0,127.0,127.0,126.0,127.0,128.0,128.0,-1.0,109.0,-63.0,127.0,127.0,127.0,-120.0,-91.0,115.0
126.0,126.0,127.0,127.0,126.0,127.0,128.0,128.0,-1.0,109.0,-63.0,127.0,127.0,127.0,-120.0,-91.0,115.0
126.0,126.0,127.0,127.0,126.0,127.0,128.0,128.0,-1.0,109.0,-63.0,127.0,127.0,127.0,-120.0,-91.0,115.0
126.0,126.0,127.0,127.0,127.0,126.0,130.0,126.0,-1.0,109.0,-63.0,127.0,127.0,127.0,-120.0,-91.0,115.0
126.0,126.0,127.0,127.0,127.0,126.0,129.0,127.0,-1.0,109.0,-63.0,127.0,127.0,127.0,-120.0,-91.0,115.0
126.0,126.0,127.0,127.0,126.0,126.0,129.0,127.0,-1.0,109.0,-63.0,127.0,127.0,127.0,-120.0,-91.0,115.0
126.0,126.0,127.0,127.0,127.0,126.0,130.0,127.0,-1.0,109.0,-63.0,127.0,127.0,127.0,-120.0,-91.0,115.0
126.0,126.0,127.0,127.0,127.0,126.0,130.0,127.0,-1.0,109.0,-63.0,127.0,127.0,127.0,-120.0,-91.0,115.0
126.0,126.0,127.0,127.0,127.0,126.0,130.0,127.0,-1.0,109.0,-63.0,127.0,127.0,127.0,-120.0,-91.0,115.0
126.0,126.0,127.0,127.0,127.0,126.0,130.0,127.0,-1.0,109.0,-63.0,127.0,127.0,127.0,-120.0,-91.0,115.0
126.0,126.0,127.0,127.0,127.0,126.0,130.0,127.0,-1.0,109.0,-63.0,127.0,127.0,127.0,-120.0,-91.0,115.0
126.0,126.0,127.0,127.0,127.0,126.0,130.0,126.0,-1.0,109.0,-63.0,127.0,127.0,127.0,-120.0,-91.0,115.0
126.0,126.0,127.0,127.0,127.0,126.0,130.0,126.0,-1.0,109.0,-63.0,127.0,127.0,127.0,-120.0,-91.0,115.0
126.0,127.0,127.0,127.0,126.0,127.0,129.0,127.0,-1.0,109.0,-63.0,127.0,127.0,127.0,-120.0,-91.0,115.0
127.0,127.0,127.0,128.0,126.0,128.0,128.0,128.0,-1.0,109.0,-63.0,127.0,127.0,127.0,-120.0,-91.0,115.0
126.0,127.0,127.0,127.0,126.0,128.0,129.0,127.0,-1.0,109.0,-63.0,127.0,127.0,127.0,-120.0,-91.0,115.0
126.0,127.0,127.0,127.0,127.0,127.0,129.0,127.0,-1.0,109.0,-63.0,127.0,127.0,127.0,-120.0,-91.0,115.0
126.0,126.0,127.0,127.0,126.0,127.0,129.0,127.0,-1.0,109.0,-63.0,127.0,127.0,127.0,-120.0,-91.0,115.0
126.0,126.0,127.0,127.0,126.0,127.0,129.0,127.0,-1.0,109.0,-63.0,127.0,127.0,127.0,-120.0,-91.0,115.0
126.0,127.0,126.0,127.0,126.0,127.0,129.0,127.0,-1.0,109.0,-63.0,127.0,127.0,127.0,-120.0,-91.0,115.0
126.0,127.0,126.0,127.0,126.0,127.0,129.0,127.0,-1.0,109.0,-63.0,127.0,127.0,127.0,-120.0,-91.0,115.0
126.0,127.0,126.0,127.0,126.0,127.0,129.0,127.0,-1.0,109.0,-63.0,127.0,127.0,127.0,-120.0,-91.0,115.0
126.0,127.0,127.0,127.0,126.0,127.0,129.0,127.0,-1.0,109.0,-63.0,127.0,127.0,127.0,-120.0,-91.0,115.0
126.0,126.0,127.0,127.0,126.0,127.0,129.0,128.0,-1.0,109.0,-63.0,127.0,127.0,127.0,-120.0,-91.0,115.0
126.0,126.0,127.0,127.0,126.0,126.0,129.0,128.0,-1.0,109.0,-63.0,127.0,127.0,127.0,-120.0,-91.0,115.0
126.0,126.0,127.0,127.0,126.0,126.0,129.0,127.0,-1.0,109.0,-63.0,127.0,127.0,127.0,-120.0,-91.0,115.0
126.0,126.0,127.0,127.0,126.0,126.0,129.0,127.0,-1.0,109.0,-63.0,127.0,127.0,127.0,-120.0,-91.0,115.0
126.0,127.0,127.0,127.0,126.0,126.0,129.0,127.0,-1.0,109.0,-63.0,127.0,127.0,127.0,-120.0,-91.0,115.0
126.0,127.0,126.0,127.0,126.0,127.0,129.0,128.0,-1.0,109.0,-63.0,127.0,127.0,127.0,-120.0,-91.0,115.0
126.0,127.0,126.0,127.0,126.0,127.0,129.0,128.0,-1.0,109.0,-63.0,127.0,127.0,127.0,-120.0,-91.0,115.0
127.0,127.0,126.0,127.0,126.0,126.0,129.0,128.0,-1.0,109.0,-63.0,127.0,127.0,127.0,-120.0,-91.0,115.0
127.0,127.0,127.0,127.0,126.0,126.0,129.0,128.0,-1.0,109.0,-63.0,127.0,127.0,127.0,-120.0,-91.0,115.0
127.0,127.0,127.0,127.0,126.0,126.0,129.0,128.0,-1.0,109.0,-63.0,127.0,127.0,127.0,-120.0,-91.0,115.0
126.0,126.0,127.0,127.0,126.0,127.0,128.0,128.0,-1.0,109.0,-63.0,127.0,127.0,127.0,-120.0,-91.0,115.0
126.0,127.0,127.0,127.0,126.0,127.0,128.0,128.0,-1.0,109.0,-63.0,127.0,127.0,127.0,-120.0,-91.0,115.0
126.0,127.0,127.0,127.0,126.0,127.0,128.0,128.0,-1.0,109.0,-63.0,127.0,127.0,127.0,-120.0,-91.0,115.0
126.0,127.0,127.0,127.0,126.0,127.0,128.0,128.0,-1.0,109.0,-63.0,127.0,127.0,127.0,-120.0,-91.0,115.0
126.0,127.0,126.0,127.0,126.0,127.0,128.0,128.0,-1.0,109.0,-63.0,127.0,127.0,127.0,-120.0,-91.0,115.0
126.0,127.0,126.0,127.0,126.0,128.0,128.0,128.0,-1.0,109.0,-63.0,127.0,127.0,127.0,-120.0,-91.0,115.0
126.0,127.0,126.0,127.0,126.0,128.0,128.0,128.0,-1.0,109.0,-63.0,127.0,127.0,127.0,-120.0,-91.0,115.0
126.0,127.0,126.0,127.0,126.0,128.0,128.0,128.0,-1.0,109.0,-63.0,127.0,127.0,127.0,-120.0,-91.0,115.0
126.0,127.0,126.0,127.0,126.0,127.0,128.0,128.0,-1.0,109.0,-63.0,127.0,127.0,127.0,-120.0,-91.0,115.0
126.0,126.0,127.0,127.0,126.0,127.0,128.0,128.0,-1.0,109.0,-63.0,127.0,127.0,127.0,-120.0,-91.0,115.0
127.0,127.0,127.0,127.0,126.0,128.0,127.0,127.0,-1.0,109.0,-63.0,127.0,127.0,127.0,-120.0,-91.0,115.0
127.0,127.0,127.0,127.0,126.0,128.0,127.0,127.0,-1.0,109.0,-63.0,127.0,127.0,127.0,-120.0,-91.0,115.0
127.0,127.0,127.0,127.0,126.0,128.0,127.0,127.0,-1.0,109.0,-63.0,127.0,127.0,127.0,-120.0,-91.0,115.0
127.0,127.0,127.0,127.0,126.0,128.0,127.0,127.0,-1.0,109.0,-63.0,127.0,127.0,127.0,-120.0,-91.0,115.0
127.0,127.0,126.0,127.0,126.0,128.0,127.0,128.0,-1.0,109.0,-63.0,127.0,127.0,127.0,-120.0,-91.0,115.0
127.0,127.0,127.0,127.0,126.0,128.0,127.0,128.0,-1.0,109.0,-63.0,127.0,127.0,127.0,-120.0,-91.0,115.0
127.0,127.0,127.0,127.0,126.0,128.0,127.0,128.0,-1.0,109.0,-63.0,127.0,127.0,127.0,-120.0,-91.0,115.0
127.0,127.0,127.0,127.0,126.0,127.0,127.0,128.0,-1.0,109.0,-63.0,127.0,127.0,127.0,-120.0,-91.0,115.0
127.0,127.0,127.0,127.0,126.0,128.0,127.0,128.0,-1.0,109.0,-63.0,127.0,127.0,127.0,-120.0,-91.0,115.0
127.0,127.0,127.0,127.0,126.0,128.0,127.0,128.0,-1.0,109.0,-63.0,127.0,127.0,127.0,-120.0,-91.0,115.0
126.0,127.0,127.0,126.0,126.0,126.0,128.0,127.0,-1.0,109.0,-62.0,127.0,127.0,127.0,-120.0,-91.0,115.0
126.0,127.0,127.0,126.0,126.0,126.0,128.0,127.0,-1.0,109.0,-62.0,127.0,127.0,127.0,-120.0,-91.0,115.0
126.0,127.0,127.0,126.0,126.0,126.0,128.0,127.0,-1.0,109.0,-62.0,127.0,127.0,127.0,-120.0,-91.0,115.0
126.0,127.0,126.0,126.0,126.0,127.0,127.0,127.0,-1.0,109.0,-62.0,127.0,127.0,127.0,-120.0,-91.0,115.0
126.0,127.0,126.0,127.0,126.0,127.0,127.0,127.0,-1.0,109.0,-62.0,127.0,127.0,127.0,-120.0,-91.0,115.0
126.0,127.0,126.0,127.0,126.0,127.0,127.0,127.0,-1.0,109.0,-62.0,127.0,127.0,127.0,-120.0,-91.0,115.0
126.0,127.0,127.0,127.0,126.0,127.0,127.0,127.0,-1.0,109.0,-62.0,127.0,127.0,127.0,-120.0,-91.0,115.0
126.0,127.0,126.0,127.0,126.0,127.0,128.0,127.0,-1.0,109.0,-62.0,127.0,127.0,127.0,-120.0,-91.0,115.0
126.0,127.0,127.0,127.0,126.0,127.0,128.0,127.0,-1.0,109.0,-62.0,127.0,127.0,127.0,-120.0,-91.0,115.0
126.0,127.0,127.0,126.0,126.0,127.0,128.0,127.0,-1.0,109.0,-62.0,127.0,127.0,127.0,-120.0,-91.0,115.0
126.0,127.0,127.0,127.0,126.0,126.0,127.0,127.0,-1.0,109.0,-62.0,127.0,127.0,127.0,-120.0,-91.0,115.0
126.0,127.0,127.0,127.0,126.0,126.0,127.0,127.0,-1.0,109.0,-62.0,127.0,127.0,127.0,-120.0,-91.0,115.0
126.0,127.0,126.0,127.0,126.0,127.0,127.0,127.0,-1.0,109.0,-62.0,127.0,127.0,127.0,-120.0,-91.0,115.0
126.0,127.0,126.0,127.0,126.0,127.0,127.0,127.0,-1.0,109.0,-62.0,127.0,127.0,127.0,-120.0,-91.0,115.0
126.0,127.0,126.0,127.0,126.0,127.0,127.0,127.0,-1.0,109.0,-62.0,127.0,127.0,127.0,-120.0,-91.0,115.0
127.0,127.0,127.0,127.0,126.0,127.0,127.0,127.0,-1.0,109.0,-62.0,127.0,127.0,127.0,-120.0,-91.0,115.0
126.0,127.0,127.0,127.0,126.0,127.0,127.0,127.0,-1.0,109.0,-62.0,127.0,127.0,127.0,-120.0,-91.0,115.0
126.0,127.0,127.0,127.0,126.0,127.0,127.0,127.0,-1.0,109.0,-62.0,127.0,127.0,127.0,-120.0,-91.0,115.0
126.0,127.0,127.0,127.0,126.0,127.0,127.0,127.0,-1.0,109.0,-62.0,127.0,127.0,127.0,-120.0,-91.0,115.0
126.0,127.0,127.0,127.0,126.0,126.0,127.0,127.0,-1.0,109.0,-62.0,127.0,127.0,127.0,-120.0,-91.0,115.0
127.0,126.0,127.0,127.0,126.0,127.0,128.0,127.0,-1.0,109.0,-62.0,127.0,127.0,127.0,-120.0,-91.0,115.0
127.0,126.0,126.0,127.0,126.0,127.0,127.0,127.0,-1.0,109.0,-62.0,127.0,127.0,127.0,-120.0,-91.0,115.0
127.0,127.0,126.0,127.0,126.0,128.0,127.0,127.0,-1.0,109.0,-62.0,127.0,127.0,127.0,-120.0,-91.0,115.0
127.0,127.0,126.0,127.0,126.0,127.0,127.0,127.0,-1.0,109.0,-62.0,127.0,127.0,127.0,-120.0,-91.0,115.0
127.0,127.0,126.0,127.0,126.0,127.0,127.0,127.0,-1.0,109.0,-62.0,127.0,127.0,127.0,-120.0,-91.0,115.0
127.0,126.0,127.0,127.0,126.0,127.0,127.0,127.0,-1.0,109.0,-62.0,127.0,127.0,127.0,-120.0,-91.0,115.0
127.0,126.0,127.0,127.0,126.0,127.0,127.0,127.0,-1.0,109.0,-62.0,127.0,127.0,127.0,-120.0,-91.0,115.0
127.0,126.0,127.0,127.0,126.0,127.0,127.0,127.0,-1.0,109.0,-62.0,127.0,127.0,127.0,-120.0,-91.0,115.0
127.0,126.0,127.0,127.0,126.0,127.0,128.0,127.0,-1.0,109.0,-62.0,127.0,127.0,127.0,-120.0,-91.0,115.0
127.0,126.0,127.0,127.0,126.0,127.0,128.0,127.0,-1.0,109.0,-62.0,127.0,127.0,127.0,-120.0,-91.0,115.0
127.0,127.0,127.0,126.0,127.0,126.0,126.0,127.0,-1.0,109.0,-63.0,127.0,127.0,127.0,-120.0,-91.0,115.0
127.0,127.0,127.0,126.0,127.0,126.0,126.0,127.0,-1.0,109.0,-63.0,127.0,127.0,127.0,-120.0,-91.0,115.0
127.0,127.0,127.0,126.0,127.0,126.0,126.0,127.0,-1.0,109.0,-63.0,127.0,127.0,127.0,-120.0,-91.0,115.0
127.0,127.0,127.0,126.0,127.0,126.0,125.0,127.0,-1.0,109.0,-63.0,127.0,127.0,127.0,-120.0,-91.0,115.0
127.0,127.0,127.0,126.0,127.0,127.0,125.0,127.0,-1.0,109.0,-63.0,127.0,127.0,127.0,-120.0,-91.0,115.0
127.0,127.0,127.0,126.0,127.0,127.0,125.0,127.0,-1.0,109.0,-63.0,127.0,127.0,127.0,-120.0,-91.0,115.0
127.0,127.0,127.0,126.0,127.0,127.0,125.0,127.0,-1.0,109.0,-63.0,127.0,127.0,127.0,-120.0,-91.0,115.0
127.0,127.0,127.0,126.0,127.0,127.0,126.0,127.0,-1.0,109.0,-63.0,127.0,127.0,127.0,-120.0,-91.0,115.0
127.0,127.0,127.0,126.0,127.0,126.0,125.0,127.0,-1.0,109.0,-63.0,127.0,127.0,127.0,-120.0,-91.0,115.0
127.0,127.0,127.0,126.0,127.0,126.0,126.0,127.0,-1.0,109.0,-63.0,127.0,127.0,127.0,-120.0,-91.0,115.0
127.0,127.0,127.0,127.0,126.0,126.0,124.0,127.0,-1.0,109.0,-63.0,127.0,127.0,127.0,-120.0,-91.0,115.0
127.0,127.0,126.0,127.0,126.0,126.0,124.0,127.0,-1.0,109.0,-63.0,127.0,127.0,127.0,-120.0,-91.0,115.0
126.0,127.0,127.0,127.0,126.0,127.0,124.0,127.0,-1.0,109.0,-63.0,127.0,127.0,127.0,-120.0,-91.0,115.0
127.0,127.0,127.0,127.0,126.0,126.0,124.0,127.0,-1.0,109.0,-63.0,127.0,127.0,127.0,-120.0,-91.0,115.0
126.0,127.0,127.0,127.0,126.0,126.0,124.0,127.0,-1.0,109.0,-63.0,127.0,127.0,127.0,-120.0,-91.0,115.0
126.0,127.0,127.0,127.0,126.0,126.0,124.0,127.0,-1.0,109.0,-63.0,127.0,127.0,127.0,-120.0,-91.0,115.0
126.0,127.0,127.0,127.0,126.0,127.0,124.0,127.0,-1.0,109.0,-63.0,127.0,127.0,127.0,-120.0,-91.0,115.0
127.0,127.0,126.0,127.0,126.0,127.0,124.0,127.0,-1.0,109.0,-63.0,127.0,127.0,127.0,-120.0,-91.0,115.0
127.0,127.0,126.0,127.0,126.0,127.0,124.0,127.0,-1.0,109.0,-63.0,127.0,127.0,127.0,-120.0,-91.0,115.0
127.0,127.0,127.0,127.0,126.0,126.0,124.0,127.0,-1.0,109.0,-63.0,127.0,127.0,127.0,-120.0,-91.0,115.0
127.0,127.0,127.0,127.0,126.0,127.0,125.0,128.0,-1.0,109.0,-63.0,127.0,127.0,127.0,-120.0,-91.0,115.0
127.0,127.0,127.0,127.0,126.0,127.0,125.0,127.0,-1.0,109.0,-63.0,127.0,127.0,127.0,-120.0,-91.0,115.0
127.0,127.0,127.0,127.0,126.0,127.0,125.0,127.0,-1.0,109.0,-63.0,127.0,127.0,127.0,-120.0,-91.0,115.0
127.0,127.0,127.0,127.0,126.0,127.0,125.0,127.0,-1.0,109.0,-63.0,127.0,127.0,127.0,-120.0,-91.0,115.0
127.0,127.0,127.0,127.0,126.0,127.0,125.0,127.0,-1.0,109.0,-63.0,127.0,127.0,127.0,-120.0,-91.0,115.0
127.0,127.0,126.0,127.0,126.0,127.0,125.0,127.0,-1.0,109.0,-63.0,127.0,127.0,127.0,-120.0,-91.0,115.0
127.0,127.0,126.0,127.0,126.0,128.0,125.0,128.0,-1.0,109.0,-63.0,127.0,127.0,127.0,-120.0,-91.0,115.0
127.0,127.0,126.0,127.0,126.0,127.0,125.0,128.0,-1.0,109.0,-63.0,127.0,127.0,127.0,-120.0,-91.0,115.0
127.0,127.0,126.0,127.0,126.0,127.0,125.0,128.0,-1.0,109.0,-63.0,127.0,127.0,127.0,-120.0,-91.0,115.0
127.0,127.0,126.0,127.0,126.0,127.0,125.0,128.0,-1.0,109.0,-63.0,127.0,127.0,127.0,-120.0,-91.0,115.0
126.0,127.0,127.0,127.0,126.0,127.0,126.0,127.0,-1.0,109.0,-63.0,127.0,127.0,127.0,-120.0,-91.0,115.0
126.0,127.0,127.0,127.0,126.0,127.0,126.0,127.0,-1.0,109.0,-63.0,127.0,127.0,127.0,-120.0,-91.0,115.0
126.0,127.0,127.0,127.0,126.0,127.0,126.0,127.0,-1.0,109.0,-63.0,127.0,127.0,127.0,-120.0,-91.0,115.0
126.0,127.0,127.0,127.0,126.0,127.0,126.0,127.0,-1.0,109.0,-63.0,127.0,127.0,127.0,-120.0,-91.0,115.0
126.0,127.0,126.0,127.0,126.0,127.0,126.0,127.0,-1.0,109.0,-63.0,127.0,127.0,127.0,-120.0,-91.0,115.0
126.0,127.0,126.0,127.0,125.0,127.0,126.0,127.0,-1.0,109.0,-63.0,127.0,127.0,127.0,-120.0,-91.0,115.0
126.0,127.0,126.0,127.0,126.0,127.0,126.0,127.0,-1.0,109.0,-63.0,127.0,127.0,127.0,-120.0,-91.0,115.0
126.0,127.0,126.0,127.0,126.0,127.0,126.0,127.0,-1.0,109.0,-63.0,127.0,127.0,127.0,-120.0,-91.0,115.0
126.0,127.0,126.0,127.0,126.0,127.0,126.0,127.0,-1.0,109.0,-63.0,127.0,127.0,127.0,-120.0,-91.0,115.0
126.0,127.0,126.0,127.0,126.0,127.0,126.0,127.0,-1.0,109.0,-63.0,127.0,127.0,127.0,-120.0,-91.0,115.0
126.0,127.0,127.0,127.0,126.0,127.0,127.0,128.0,-1.0,109.0,-63.0,127.0,127.0,127.0,-120.0,-91.0,115.0
126.0,127.0,127.0,127.0,126.0,127.0,127.0,128.0,-1.0,109.0,-63.0,127.0,127.0,127.0,-120.0,-91.0,115.0
126.0,127.0,127.0,127.0,126.0,127.0,127.0,128.0,-1.0,109.0,-63.0,127.0,127.0,127.0,-120.0,-91.0,115.0
126.0,127.0,127.0,127.0,126.0,127.0,127.0,128.0,-1.0,109.0,-63.0,127.0,127.0,127.0,-120.0,-91.0,115.0
126.0,127.0,127.0,127.0,126.0,128.0,127.0,128.0,-1.0,109.0,-63.0,127.0,127.0,127.0,-120.0,-91.0,115.0
126.0,127.0,127.0,127.0,126.0,128.0,127.0,128.0,-1.0,109.0,-63.0,127.0,127.0,127.0,-120.0,-91.0,115.0
126.0,127.0,127.0,127.0,126.0,128.0,127.0,128.0,-1.0,109.0,-63.0,127.0,127.0,127.0,-120.0,-91.0,115.0
126.0,127.0,127.0,127.0,126.0,127.0,127.0,128.0,-1.0,109.0,-63.0,127.0,127.0,127.0,-120.0,-91.0,115.0
126.0,127.0,127.0,127.0,126.0,127.0,127.0,128.0,-1.0,109.0,-63.0,127.0,127.0,127.0,-120.0,-91.0,115.0
127.0,127.0,127.0,127.0,126.0,127.0,127.0,128.0,-1.0,109.0,-63.0,127.0,127.0,127.0,-120.0,-91.0,115.0
126.0,127.0,127.0,127.0,126.0,127.0,127.0,128.0,-1.0,109.0,-63.0,127.0,127.0,127.0,-120.0,-91.0,115.0
126.0,127.0,127.0,126.0,126.0,127.0,127.0,128.0,-1.0,109.0,-63.0,127.0,127.0,127.0,-120.0,-91.0,115.0
127.0,127.0,127.0,126.0,126.0,127.0,127.0,128.0,-1.0,109.0,-63.0,127.0,127.0,127.0,-120.0,-91.0,115.0
127.0,127.0,126.0,126.0,126.0,127.0,126.0,128.0,-1.0,109.0,-63.0,127.0,127.0,127.0,-120.0,-91.0,115.0
127.0,127.0,126.0,126.0,126.0,127.0,126.0,128.0,-1.0,109.0,-63.0,127.0,127.0,127.0,-120.0,-91.0,115.0
126.0,127.0,126.0,126.0,126.0,127.0,126.0,128.0,-1.0,109.0,-63.0,127.0,127.0,127.0,-120.0,-91.0,115.0
126.0,127.0,126.0,126.0,126.0,127.0,127.0,128.0,-1.0,109.0,-63.0,127.0,127.0,127.0,-120.0,-91.0,115.0
126.0,127.0,127.0,126.0,126.0,127.0,127.0,128.0,-1.0,109.0,-63.0,127.0,127.0,127.0,-120.0,-91.0,115.0
127.0,127.0,126.0,126.0,126.0,127.0,127.0,128.0,-1.0,109.0,-63.0,127.0,127.0,127.0,-120.0,-91.0,115.0
127.0,127.0,127.0,127.0,126.0,127.0,127.0,128.0,-1.0,109.0,-63.0,127.0,127.0,127.0,-120.0,-91.0,115.0
127.0,127.0,127.0,127.0,127.0,127.0,127.0,128.0,-1.0,109.0,-63.0,127.0,127.0,127.0,-120.0,-91.0,115.0
127.0,127.0,127.0,126.0,127.0,127.0,127.0,128.0,-1.0,109.0,-63.0,127.0,127.0,127.0,-120.0,-91.0,115.0
127.0,127.0,127.0,126.0,126.0,127.0,126.0,128.0,-1.0,109.0,-63.0,127.0,127.0,127.0,-120.0,-91.0,115.0
127.0,127.0,127.0,126.0,126.0,127.0,126.0,129.0,-1.0,109.0,-63.0,127.0,127.0,127.0,-120.0,-91.0,115.0
127.0,127.0,127.0,126.0,126.0,127.0,126.0,129.0,-1.0,109.0,-63.0,127.0,127.0,127.0,-120.0,-91.0,115.0
127.0,127.0,127.0,126.0,126.0,127.0,126.0,129.0,-1.0,109.0,-63.0,127.0,127.0,127.0,-120.0,-91.0,115.0
127.0,127.0,127.0,126.0,126.0,127.0,126.0,128.0,-1.0,109.0,-63.0,127.0,127.0,127.0,-120.0,-91.0,115.0
127.0,127.0,127.0,126.0,126.0,127.0,126.0,128.0,-1.0,109.0,-63.0,127.0,127.0,127.0,-120.0,-91.0,115.0
127.0,127.0,127.0,127.0,127.0,127.0,127.0,128.0,-1.0,109.0,-63.0,127.0,127.0,127.0,-120.0,-91.0,115.0
127.0,127.0,127.0,127.0,127.0,127.0,127.0,128.0,-1.0,109.0,-63.0,127.0,127.0,127.0,-120.0,-91.0,115.0
126.0,127.0,127.0,127.0,126.0,127.0,126.0,129.0,-1.0,109.0,-63.0,127.0,127.0,127.0,-120.0,-91.0,115.0
126.0,127.0,127.0,126.0,126.0,127.0,126.0,129.0,-1.0,109.0,-63.0,127.0,127.0,127.0,-120.0,-91.0,115.0
126.0,127.0,127.0,127.0,126.0,128.0,126.0,129.0,-1.0,109.0,-63.0,127.0,127.0,127.0,-120.0,-91.0,115.0
127.0,127.0,127.0,127.0,126.0,128.0,126.0,129.0,-1.0,109.0,-63.0,127.0,127.0,127.0,-120.0,-91.0,115.0
126.0,127.0,127.0,127.0,126.0,127.0,126.0,129.0,-1.0,109.0,-63.0,127.0,127.0,127.0,-120.0,-91.0,115.0
126.0,127.0,127.0,127.0,126.0,127.0,126.0,129.0,-1.0,109.0,-63.0,127.0,127.0,127.0,-120.0,-91.0,115.0
126.0,127.0,127.0,127.0,126.0,127.0,126.0,129.0,-1.0,109.0,-63.0,127.0,127.0,127.0,-120.0,-91.0,115.0
126.0,127.0,127.0,127.0,126.0,127.0,126.0,130.0,-1.0,109.0,-63.0,127.0,127.0,127.0,-120.0,-91.0,115.0
126.0,127.0,127.0,127.0,126.0,127.0,126.0,129.0,-1.0,109.0,-63.0,127.0,127.0,127.0,-120.0,-91.0,115.0
126.0,127.0,127.0,126.0,126.0,127.0,126.0,129.0,-1.0,109.0,-63.0,127.0,127.0,127.0,-120.0,-91.0,115.0
126.0,127.0,127.0,127.0,126.0,126.0,128.0,128.0,-1.0,109.0,-63.0,127.0,127.0,127.0,-120.0,-91.0,115.0
126.0,127.0,127.0,127.0,126.0,125.0,128.0,128.0,-1.0,109.0,-63.0,127.0,127.0,127.0,-120.0,-91.0,115.0
126.0,127.0,127.0,127.0,126.0,126.0,128.0,128.0,-1.0,109.0,-63.0,127.0,127.0,127.0,-120.0,-91.0,115.0
126.0,127.0,127.0,127.0,126.0,126.0,128.0,128.0,-1.0,109.0,-63.0,127.0,127.0,127.0,-120.0,-91.0,115.0
126.0,127.0,126.0,127.0,126.0,126.0,128.0,128.0,-1.0,109.0,-63.0,127.0,127.0,127.0,-120.0,-91.0,115.0
126.0,127.0,127.0,127.0,127.0,126.0,127.0,128.0,-1.0,109.0,-63.0,127.0,127.0,127.0,-120.0,-91.0,115.0
126.0,127.0,127.0,127.0,126.0,126.0,127.0,128.0,-1.0,109.0,-63.0,127.0,127.0,127.0,-120.0,-91.0,115.0
126.0,127.0,127.0,127.0,127.0,126.0,127.0,128.0,-1.0,109.0,-63.0,127.0,127.0,127.0,-120.0,-91.0,115.0
126.0,127.0,127.0,127.0,126.0,126.0,128.0,128.0,-1.0,109.0,-63.0,127.0,127.0,127.0,-120.0,-91.0,115.0
126.0,127.0,127.0,127.0,126.0,126.0,128.0,128.0,-1.0,109.0,-63.0,127.0,127.0,127.0,-120.0,-91.0,115.0
126.0,127.0,126.0,127.0,126.0,127.0,127.0,128.0,-1.0,109.0,-63.0,127.0,127.0,127.0,-120.0,-91.0,115.0
126.0,127.0,126.0,127.0,126.0,127.0,127.0,128.0,-1.0,109.0,-63.0,127.0,127.0,127.0,-120.0,-91.0,115.0
126.0,127.0,126.0,127.0,126.0,127.0,128.0,128.0,-1.0,109.0,-63.0,127.0,127.0,127.0,-120.0,-91.0,115.0
126.0,127.0,126.0,127.0,126.0,127.0,128.0,128.0,-1.0,109.0,-63.0,127.0,127.0,127.0,-120.0,-91.0,115.0
126.0,127.0,127.0,127.0,126.0,127.0,128.0,128.0,-1.0,109.0,-63.0,127.0,127.0,127.0,-120.0,-91.0,115.0
126.0,127.0,127.0,127.0,126.0,127.0,128.0,128.0,-1.0,109.0,-63.0,127.0,127.0,127.0,-120.0,-91.0,115.0
126.0,127.0,127.0,127.0,126.0,127.0,127.0,128.0,-1.0,109.0,-63.0,127.0,127.0,127.0,-120.0,-91.0,115.0
126.0,127.0,127.0,127.0,126.0,128.0,127.0,128.0,-1.0,109.0,-63.0,127.0,127.0,127.0,-120.0,-91.0,115.0
126.0,127.0,127.0,127.0,126.0,128.0,127.0,128.0,-1.0,109.0,-63.0,127.0,127.0,127.0,-120.0,-91.0,115.0
126.0,127.0,127.0,127.0,126.0,127.0,127.0,128.0,-1.0,109.0,-63.0,127.0,127.0,127.0,-120.0,-91.0,115.0
126.0,127.0,126.0,127.0,126.0,128.0,127.0,128.0,-1.0,109.0,-63.0,127.0,127.0,127.0,-120.0,-91.0,115.0
126.0,127.0,126.0,127.0,126.0,128.0,127.0,128.0,-1.0,109.0,-63.0,127.0,127.0,127.0,-120.0,-91.0,115.0
126.0,127.0,126.0,127.0,126.0,127.0,128.0,128.0,-1.0,109.0,-63.0,127.0,127.0,127.0,-120.0,-91.0,115.0
126.0,127.0,127.0,127.0,126.0,127.0,128.0,128.0,-1.0,109.0,-63.0,127.0,127.0,127.0,-120.0,-91.0,115.0
126.0,126.0,127.0,127.0,126.0,127.0,128.0,128.0,-1.0,109.0,-63.0,127.0,127.0,127.0,-120.0,-91.0,115.0
126.0,127.0,127.0,127.0,126.0,127.0,128.0,128.0,-1.0,109.0,-63.0,127.0,127.0,127.0,-120.0,-91.0,115.0
126.0,127.0,126.0,127.0,126.0,128.0,127.0,128.0,-1.0,109.0,-63.0,127.0,127.0,127.0,-120.0,-91.0,115.0
126.0,127.0,126.0,127.0,126.0,128.0,127.0,128.0,-1.0,109.0,-63.0,127.0,127.0,127.0,-120.0,-91.0,115.0
126.0,127.0,126.0,127.0,126.0,128.0,127.0,128.0,-1.0,109.0,-63.0,127.0,127.0,127.0,-120.0,-91.0,115.0
126.0,127.0,126.0,127.0,126.0,128.0,127.0,128.0,-1.0,109.0,-63.0,127.0,127.0,127.0,-120.0,-91.0,115.0
126.0,127.0,127.0,127.0,126.0,127.0,126.0,128.0,-1.0,109.0,-63.0,127.0,127.0,127.0,-120.0,-91.0,115.0
126.0,127.0,127.0,127.0,126.0,127.0,126.0,128.0,-1.0,109.0,-63.0,127.0,127.0,127.0,-120.0,-91.0,115.0
126.0,127.0,127.0,127.0,126.0,127.0,127.0,128.0,-1.0,109.0,-63.0,127.0,127.0,127.0,-120.0,-91.0,115.0
126.0,127.0,127.0,127.0,126.0,127.0,127.0,128.0,-1.0,109.0,-63.0,127.0,127.0,127.0,-120.0,-91.0,115.0
126.0,127.0,127.0,127.0,126.0,127.0,127.0,128.0,-1.0,109.0,-63.0,127.0,127.0,127.0,-120.0,-91.0,115.0
126.0,127.0,127.0,127.0,126.0,127.0,126.0,128.0,-1.0,109.0,-63.0,127.0,127.0,127.0,-120.0,-91.0,115.0
126.0,127.0,127.0,127.0,126.0,127.0,126.0,128.0,-1.0,109.0,-63.0,127.0,127.0,127.0,-120.0,-91.0,115.0
126.0,127.0,127.0,127.0,126.0,127.0,126.0,128.0,-1.0,109.0,-63.0,127.0,127.0,127.0,-120.0,-91.0,115.0
126.0,127.0,127.0,127.0,126.0,127.0,126.0,128.0,-1.0,109.0,-63.0,127.0,127.0,127.0,-120.0,-91.0,115.0
126.0,127.0,127.0,127.0,126.0,127.0,126.0,128.0,-1.0,109.0,-63.0,127.0,127.0,127.0,-120.0,-91.0,115.0
127.0,127.0,127.0,127.0,126.0,127.0,126.0,128.0,-1.0,109.0,-63.0,127.0,127.0,127.0,-120.0,-91.0,115.0
126.0,127.0,127.0,127.0,126.0,127.0,126.0,128.0,-1.0,109.0,-63.0,127.0,127.0,127.0,-120.0,-91.0,115.0
126.0,127.0,127.0,127.0,126.0,128.0,126.0,128.0,-1.0,109.0,-63.0,127.0,127.0,127.0,-120.0,-91.0,115.0
126.0,127.0,127.0,127.0,126.0,127.0,126.0,127.0,-1.0,109.0,-63.0,127.0,127.0,127.0,-120.0,-91.0,115.0
126.0,127.0,127.0,127.0,126.0,128.0,126.0,128.0,-1.0,109.0,-63.0,127.0,127.0,127.0,-120.0,-91.0,115.0
127.0,127.0,127.0,127.0,126.0,128.0,126.0,128.0,-1.0,109.0,-63.0,127.0,127.0,127.0,-120.0,-91.0,115.0
127.0,127.0,127.0,127.0,126.0,128.0,126.0,128.0,-1.0,109.0,-63.0,127.0,127.0,127.0,-120.0,-91.0,115.0
127.0,127.0,127.0,127.0,126.0,128.0,126.0,128.0,-1.0,109.0,-63.0,127.0,127.0,127.0,-120.0,-91.0,115.0
127.0,127.0,127.0,127.0,126.0,128.0,126.0,128.0,-1.0,109.0,-63.0,127.0,127.0,127.0,-120.0,-91.0,115.0
127.0,127.0,127.0,127.0,126.0,128.0,126.0,128.0,-1.0,109.0,-63.0,127.0,127.0,127.0,-120.0,-91.0,115.0
126.0,127.0,127.0,127.0,127.0,128.0,126.0,128.0,-1.0,109.0,-63.0,127.0,127.0,127.0,-120.0,-91.0,115.0
126.0,127.0,127.0,127.0,127.0,128.0,126.0,128.0,-1.0,109.0,-63.0,127.0,127.0,127.0,-120.0,-91.0,115.0
126.0,127.0,127.0,127.0,126.0,128.0,126.0,128.0,-1.0,109.0,-63.0,127.0,127.0,127.0,-120.0,-91.0,115.0
126.0,127.0,127.0,127.0,126.0,128.0,126.0,129.0,-1.0,109.0,-63.0,127.0,127.0,127.0,-120.0,-91.0,115.0
126.0,127.0,127.0,127.0,126.0,128.0,126.0,129.0,-1.0,109.0,-63.0,127.0,127.0,127.0,-120.0,-91.0,115.0
126.0,127.0,127.0,127.0,126.0,128.0,126.0,128.0,-1.0,109.0,-63.0,127.0,127.0,127.0,-120.0,-91.0,115.0
126.0,127.0,127.0,127.0,126.0,128.0,126.0,128.0,-1.0,109.0,-63.0,127.0,127.0,127.0,-120.0,-91.0,115.0
126.0,127.0,127.0,127.0,126.0,128.0,126.0,128.0,-1.0,109.0,-63.0,127.0,127.0,127.0,-120.0,-91.0,115.0
126.0,127.0,127.0,127.0,126.0,128.0,126.0,128.0,-1.0,109.0,-63.0,127.0,127.0,127.0,-120.0,-91.0,115.0
127.0,127.0,127.0,127.0,126.0,127.0,126.0,128.0,-1.0,109.0,-63.0,127.0,127.0,127.0,-120.0,-91.0,115.0
127.0,127.0,127.0,127.0,127.0,127.0,126.0,128.0,-1.0,109.0,-63.0,127.0,127.0,127.0,-120.0,-91.0,115.0
127.0,127.0,127.0,127.0,127.0,128.0,126.0,128.0,-1.0,109.0,-63.0,127.0,127.0,127.0,-120.0,-91.0,115.0
126.0,127.0,127.0,127.0,126.0,128.0,126.0,128.0,-1.0,109.0,-63.0,127.0,127.0,127.0,-120.0,-91.0,115.0
127.0,127.0,127.0,127.0,126.0,128.0,126.0,128.0,-1.0,109.0,-63.0,127.0,127.0,127.0,-120.0,-91.0,115.0
127.0,127.0,127.0,127.0,126.0,128.0,126.0,128.0,-1.0,109.0,-63.0,127.0,127.0,127.0,-120.0,-91.0,115.0
127.0,127.0,127.0,127.0,127.0,128.0,126.0,128.0,-1.0,109.0,-63.0,127.0,127.0,127.0,-120.0,-91.0,115.0
127.0,127.0,127.0,127.0,127.0,128.0,126.0,128.0,-1.0,109.0,-63.0,127.0,127.0,127.0,-120.0,-91.0,115.0
127.0,127.0,127.0,127.0,127.0,128.0,126.0,128.0,-1.0,109.0,-63.0,127.0,127.0,127.0,-120.0,-91.0,115.0
127.0,127.0,127.0,127.0,127.0,128.0,126.0,128.0,-1.0,109.0,-63.0,127.0,127.0,127.0,-120.0,-91.0,115.0
127.0,127.0,127.0,127.0,127.0,128.0,126.0,128.0,-1.0,109.0,-63.0,127.0,127.0,127.0,-120.0,-91.0,115.0
126.0,127.0,127.0,127.0,126.0,127.0,128.0,127.0,-1.0,109.0,-63.0,127.0,127.0,127.0,-120.0,-91.0,115.0
126.0,127.0,127.0,127.0,126.0,127.0,128.0,128.0,-1.0,109.0,-63.0,127.0,127.0,127.0,-120.0,-91.0,115.0
127.0,127.0,126.0,127.0,126.0,128.0,128.0,128.0,-1.0,109.0,-63.0,127.0,127.0,127.0,-120.0,-91.0,115.0
127.0,127.0,126.0,127.0,126.0,128.0,128.0,128.0,-1.0,109.0,-63.0,127.0,127.0,127.0,-120.0,-91.0,115.0
127.0,127.0,126.0,127.0,126.0,128.0,128.0,128.0,-1.0,109.0,-63.0,127.0,127.0,127.0,-120.0,-91.0,115.0
126.0,127.0,126.0,127.0,126.0,127.0,128.0,128.0,-1.0,109.0,-63.0,127.0,127.0,127.0,-120.0,-91.0,115.0
127.0,127.0,126.0,127.0,126.0,127.0,128.0,128.0,-1.0,109.0,-63.0,127.0,127.0,127.0,-120.0,-91.0,115.0
127.0,127.0,126.0,127.0,126.0,127.0,128.0,128.0,-1.0,109.0,-63.0,127.0,127.0,127.0,-120.0,-91.0,115.0
127.0,127.0,127.0,127.0,126.0,127.0,128.0,128.0,-1.0,109.0,-63.0,127.0,127.0,127.0,-120.0,-91.0,115.0
126.0,127.0,127.0,127.0,126.0,127.0,128.0,127.0,-1.0,109.0,-63.0,127.0,127.0,127.0,-120.0,-91.0,115.0
126.0,127.0,127.0,126.0,127.0,126.0,125.0,127.0,-1.0,109.0,-63.0,127.0,127.0,127.0,-120.0,-91.0,115.0
126.0,127.0,127.0,126.0,127.0,126.0,125.0,127.0,-1.0,109.0,-63.0,127.0,127.0,127.0,-120.0,-91.0,115.0
126.0,127.0,127.0,126.0,126.0,126.0,125.0,127.0,-1.0,109.0,-63.0,127.0,127.0,127.0,-120.0,-91.0,115.0
126.0,127.0,127.0,126.0,126.0,126.0,125.0,127.0,-1.0,109.0,-63.0,127.0,127.0,127.0,-120.0,-91.0,115.0
127.0,127.0,127.0,126.0,126.0,127.0,124.0,128.0,-1.0,109.0,-63.0,127.0,127.0,127.0,-120.0,-91.0,115.0
127.0,127.0,127.0,126.0,126.0,127.0,124.0,128.0,-1.0,109.0,-63.0,127.0,127.0,127.0,-120.0,-91.0,115.0
127.0,127.0,127.0,126.0,126.0,127.0,124.0,128.0,-1.0,109.0,-63.0,127.0,127.0,127.0,-120.0,-91.0,115.0
127.0,127.0,127.0,126.0,126.0,127.0,124.0,127.0,-1.0,109.0,-63.0,127.0,127.0,127.0,-120.0,-91.0,115.0
126.0,127.0,127.0,126.0,127.0,126.0,125.0,127.0,-1.0,109.0,-63.0,127.0,127.0,127.0,-120.0,-91.0,115.0
126.0,127.0,127.0,126.0,127.0,126.0,125.0,127.0,-1.0,109.0,-63.0,127.0,127.0,127.0,-120.0,-91.0,115.0
127.0,127.0,127.0,127.0,126.0,128.0,124.0,128.0,-1.0,109.0,-63.0,127.0,127.0,127.0,-120.0,-91.0,115.0
127.0,127.0,127.0,127.0,126.0,128.0,124.0,128.0,-1.0,109.0,-63.0,127.0,127.0,127.0,-120.0,-91.0,115.0
127.0,127.0,127.0,127.0,126.0,128.0,124.0,128.0,-1.0,109.0,-63.0,127.0,127.0,127.0,-120.0,-91.0,115.0
127.0,127.0,127.0,127.0,126.0,127.0,125.0,128.0,-1.0,109.0,-63.0,127.0,127.0,127.0,-120.0,-91.0,115.0
127.0,127.0,127.0,127.0,126.0,127.0,125.0,128.0,-1.0,109.0,-63.0,127.0,127.0,127.0,-120.0,-91.0,115.0
127.0,127.0,127.0,127.0,126.0,127.0,125.0,128.0,-1.0,109.0,-63.0,127.0,127.0,127.0,-120.0,-91.0,115.0
127.0,127.0,127.0,127.0,126.0,127.0,124.0,128.0,-1.0,109.0,-63.0,127.0,127.0,127.0,-120.0,-91.0,115.0
127.0,127.0,127.0,127.0,126.0,128.0,124.0,128.0,-1.0,109.0,-63.0,127.0,127.0,127.0,-120.0,-91.0,115.0
127.0,127.0,127.0,127.0,126.0,128.0,124.0,128.0,-1.0,109.0,-63.0,127.0,127.0,127.0,-120.0,-91.0,115.0
127.0,127.0,127.0,127.0,126.0,128.0,124.0,128.0,-1.0,109.0,-63.0,127.0,127.0,127.0,-120.0,-91.0,115.0
127.0,127.0,127.0,127.0,126.0,128.0,126.0,128.0,-1.0,109.0,-63.0,127.0,127.0,127.0,-120.0,-91.0,115.0
127.0,127.0,127.0,127.0,126.0,128.0,126.0,128.0,-1.0,109.0,-63.0,127.0,127.0,127.0,-120.0,-91.0,115.0
127.0,127.0,127.0,127.0,126.0,127.0,126.0,128.0,-1.0,109.0,-63.0,127.0,127.0,127.0,-120.0,-91.0,115.0
127.0,127.0,127.0,127.0,126.0,127.0,126.0,128.0,-1.0,109.0,-63.0,127.0,127.0,127.0,-120.0,-91.0,115.0
127.0,127.0,127.0,127.0,126.0,127.0,127.0,128.0,-1.0,109.0,-63.0,127.0,127.0,127.0,-120.0,-91.0,115.0
127.0,127.0,127.0,127.0,127.0,127.0,126.0,128.0,-1.0,109.0,-63.0,127.0,127.0,127.0,-120.0,-91.0,115.0
127.0,127.0,127.0,127.0,126.0,128.0,126.0,128.0,-1.0,109.0,-63.0,127.0,127.0,127.0,-120.0,-91.0,115.0
127.0,127.0,127.0,127.0,126.0,128.0,126.0,128.0,-1.0,109.0,-63.0,127.0,127.0,127.0,-120.0,-91.0,115.0
127.0,127.0,127.0,127.0,126.0,128.0,126.0,128.0,-1.0,109.0,-63.0,127.0,127.0,127.0,-120.0,-91.0,115.0
127.0,127.0,127.0,127.0,126.0,128.0,126.0,128.0,-1.0,109.0,-63.0,127.0,127.0,127.0,-120.0,-91.0,115.0
127.0,127.0,127.0,127.0,126.0,128.0,123.0,128.0,-1.0,109.0,-63.0,127.0,127.0,127.0,-120.0,-91.0,115.0
127.0,127.0,127.0,127.0,126.0,127.0,123.0,128.0,-1.0,109.0,-63.0,127.0,127.0,127.0,-120.0,-91.0,115.0
127.0,127.0,127.0,127.0,126.0,127.0,123.0,128.0,-1.0,109.0,-63.0,127.0,127.0,127.0,-120.0,-91.0,115.0
127.0,127.0,127.0,127.0,126.0,127.0,123.0,128.0,-1.0,109.0,-63.0,127.0,127.0,127.0,-120.0,-91.0,115.0
127.0,126.0,127.0,127.0,127.0,127.0,124.0,128.0,-1.0,109.0,-63.0,127.0,127.0,127.0,-120.0,-91.0,115.0
127.0,127.0,127.0,127.0,126.0,128.0,124.0,128.0,-1.0,109.0,-63.0,127.0,127.0,127.0,-120.0,-91.0,115.0
127.0,127.0,127.0,127.0,126.0,128.0,123.0,128.0,-1.0,109.0,-63.0,127.0,127.0,127.0,-120.0,-91.0,115.0
127.0,127.0,127.0,127.0,126.0,128.0,123.0,128.0,-1.0,109.0,-63.0,127.0,127.0,127.0,-120.0,-91.0,115.0
127.0,127.0,127.0,127.0,126.0,128.0,123.0,128.0,-1.0,109.0,-63.0,127.0,127.0,127.0,-120.0,-91.0,115.0
127.0,127.0,127.0,127.0,126.0,128.0,123.0,128.0,-1.0,109.0,-63.0,127.0,127.0,127.0,-120.0,-91.0,115.0
127.0,127.0,127.0,127.0,126.0,127.0,121.0,128.0,-1.0,109.0,-63.0,127.0,127.0,127.0,-120.0,-91.0,115.0
127.0,127.0,127.0,127.0,126.0,127.0,121.0,128.0,-1.0,109.0,-63.0,127.0,127.0,127.0,-120.0,-91.0,115.0
127.0,127.0,127.0,127.0,126.0,127.0,121.0,128.0,-1.0,109.0,-63.0,127.0,127.0,127.0,-120.0,-91.0,115.0
127.0,127.0,127.0,127.0,126.0,127.0,121.0,128.0,-1.0,109.0,-63.0,127.0,127.0,127.0,-120.0,-91.0,115.0
127.0,127.0,127.0,127.0,126.0,128.0,121.0,128.0,-1.0,109.0,-63.0,127.0,127.0,127.0,-120.0,-91.0,115.0
127.0,127.0,126.0,127.0,126.0,128.0,120.0,128.0,-1.0,109.0,-63.0,127.0,127.0,127.0,-120.0,-91.0,115.0
127.0,127.0,127.0,127.0,126.0,128.0,120.0,128.0,-1.0,109.0,-63.0,127.0,127.0,127.0,-120.0,-91.0,115.0
127.0,127.0,127.0,127.0,126.0,128.0,121.0,128.0,-1.0,109.0,-63.0,127.0,127.0,127.0,-120.0,-91.0,115.0
127.0,127.0,127.0,127.0,126.0,128.0,121.0,128.0,-1.0,109.0,-63.0,127.0,127.0,127.0,-120.0,-91.0,115.0
127.0,127.0,126.0,127.0,126.0,127.0,121.0,128.0,-1.0,109.0,-63.0,127.0,127.0,127.0,-120.0,-91.0,115.0
127.0,127.0,127.0,127.0,126.0,127.0,123.0,127.0,-1.0,109.0,-63.0,127.0,127.0,127.0,-120.0,-91.0,115.0
127.0,127.0,127.0,127.0,126.0,127.0,123.0,127.0,-1.0,109.0,-63.0,127.0,127.0,127.0,-120.0,-91.0,115.0
127.0,127.0,127.0,127.0,127.0,127.0,123.0,127.0,-1.0,109.0,-63.0,127.0,127.0,127.0,-120.0,-91.0,115.0
127.0,127.0,127.0,127.0,126.0,127.0,123.0,127.0,-1.0,109.0,-63.0,127.0,127.0,127.0,-120.0,-91.0,115.0
127.0,127.0,127.0,127.0,126.0,128.0,122.0,128.0,-1.0,109.0,-63.0,127.0,127.0,127.0,-120.0,-91.0,115.0
127.0,127.0,127.0,127.0,126.0,128.0,122.0,128.0,-1.0,109.0,-63.0,127.0,127.0,127.0,-120.0,-91.0,115.0
127.0,127.0,127.0,127.0,126.0,127.0,122.0,128.0,-1.0,109.0,-63.0,127.0,127.0,127.0,-120.0,-91.0,115.0
127.0,127.0,127.0,127.0,126.0,127.0,123.0,127.0,-1.0,109.0,-63.0,127.0,127.0,127.0,-120.0,-91.0,115.0
127.0,127.0,127.0,127.0,126.0,127.0,123.0,127.0,-1.0,109.0,-63.0,127.0,127.0,127.0,-120.0,-91.0,115.0
127.0,127.0,127.0,127.0,126.0,127.0,123.0,127.0,-1.0,109.0,-63.0,127.0,127.0,127.0,-120.0,-91.0,115.0
127.0,127.0,127.0,127.0,126.0,127.0,124.0,127.0,-1.0,109.0,-63.0,127.0,127.0,127.0,-120.0,-91.0,115.0
127.0,127.0,127.0,127.0,127.0,127.0,124.0,127.0,-1.0,109.0,-63.0,127.0,127.0,127.0,-120.0,-91.0,115.0
127.0,127.0,127.0,127.0,126.0,127.0,124.0,127.0,-1.0,109.0,-63.0,127.0,127.0,127.0,-120.0,-91.0,115.0
127.0,127.0,127.0,127.0,126.0,128.0,123.0,128.0,-1.0,109.0,-63.0,127.0,127.0,127.0,-120.0,-91.0,115.0
127.0,127.0,127.0,127.0,126.0,128.0,123.0,128.0,-1.0,109.0,-63.0,127.0,127.0,127.0,-120.0,-91.0,115.0
127.0,127.0,127.0,127.0,126.0,128.0,123.0,127.0,-1.0,109.0,-63.0,127.0,127.0,127.0,-120.0,-91.0,115.0
127.0,127.0,127.0,127.0,126.0,128.0,124.0,127.0,-1.0,109.0,-63.0,127.0,127.0,127.0,-120.0,-91.0,115.0
127.0,127.0,127.0,127.0,126.0,128.0,124.0,127.0,-1.0,109.0,-63.0,127.0,127.0,127.0,-120.0,-91.0,115.0
127.0,127.0,127.0,127.0,126.0,127.0,124.0,127.0,-1.0,109.0,-63.0,127.0,127.0,127.0,-120.0,-91.0,115.0
127.0,127.0,127.0,127.0,126.0,127.0,124.0,127.0,-1.0,109.0,-63.0,127.0,127.0,127.0,-120.0,-91.0,115.0
127.0,127.0,127.0,127.0,126.0,127.0,124.0,128.0,-1.0,110.0,-63.0,127.0,127.0,127.0,-120.0,-91.0,115.0
127.0,127.0,127.0,127.0,126.0,127.0,124.0,128.0,-1.0,110.0,-63.0,127.0,127.0,127.0,-120.0,-91.0,115.0
127.0,127.0,127.0,127.0,126.0,128.0,124.0,128.0,-1.0,110.0,-63.0,127.0,127.0,127.0,-120.0,-91.0,115.0
127.0,127.0,127.0,127.0,126.0,128.0,124.0,128.0,-1.0,110.0,-63.0,127.0,127.0,127.0,-120.0,-91.0,115.0
127.0,127.0,127.0,127.0,126.0,128.0,124.0,128.0,-1.0,110.0,-63.0,127.0,127.0,127.0,-120.0,-91.0,115.0
127.0,127.0,127.0,127.0,126.0,128.0,124.0,128.0,-1.0,110.0,-63.0,127.0,127.0,127.0,-120.0,-91.0,115.0
127.0,127.0,127.0,127.0,126.0,128.0,124.0,128.0,-1.0,110.0,-63.0,127.0,127.0,127.0,-120.0,-91.0,115.0
127.0,127.0,127.0,127.0,126.0,127.0,124.0,128.0,-1.0,110.0,-63.0,127.0,127.0,127.0,-120.0,-91.0,115.0
127.0,127.0,127.0,127.0,126.0,127.0,124.0,128.0,-1.0,110.0,-63.0,127.0,127.0,127.0,-120.0,-91.0,115.0
127.0,127.0,127.0,127.0,126.0,127.0,124.0,128.0,-1.0,110.0,-63.0,127.0,127.0,127.0,-120.0,-91.0,115.0
126.0,127.0,127.0,127.0,127.0,127.0,125.0,127.0,-1.0,110.0,-62.0,127.0,127.0,127.0,-120.0,-91.0,115.0
127.0,127.0,127.0,127.0,127.0,126.0,125.0,127.0,-1.0,110.0,-62.0,127.0,127.0,127.0,-120.0,-91.0,115.0
127.0,127.0,127.0,127.0,127.0,126.0,125.0,127.0,-1.0,110.0,-62.0,127.0,127.0,127.0,-120.0,-91.0,115.0
126.0,127.0,127.0,127.0,126.0,126.0,125.0,127.0,-1.0,110.0,-62.0,127.0,127.0,127.0,-120.0,-91.0,115.0
126.0,127.0,127.0,127.0,126.0,127.0,125.0,127.0,-1.0,110.0,-62.0,127.0,127.0,127.0,-120.0,-91.0,115.0
127.0,127.0,127.0,127.0,126.0,127.0,125.0,127.0,-1.0,110.0,-62.0,127.0,127.0,127.0,-120.0,-91.0,115.0
127.0,127.0,127.0,127.0,126.0,127.0,125.0,127.0,-1.0,110.0,-62.0,127.0,127.0,127.0,-120.0,-91.0,115.0
127.0,127.0,127.0,127.0,126.0,127.0,125.0,127.0,-1.0,110.0,-62.0,127.0,127.0,127.0,-120.0,-91.0,115.0
126.0,127.0,127.0,127.0,126.0,127.0,125.0,127.0,-1.0,110.0,-62.0,127.0,127.0,127.0,-120.0,-91.0,115.0
126.0,127.0,127.0,127.0,126.0,127.0,125.0,127.0,-1.0,110.0,-62.0,127.0,127.0,127.0,-120.0,-91.0,115.0
127.0,127.0,127.0,127.0,126.0,128.0,124.0,128.0,-1.0,110.0,-62.0,127.0,127.0,127.0,-120.0,-91.0,115.0
127.0,127.0,127.0,127.0,126.0,128.0,124.0,128.0,-1.0,110.0,-62.0,127.0,127.0,127.0,-120.0,-91.0,115.0
127.0,127.0,127.0,127.0,126.0,128.0,124.0,128.0,-1.0,110.0,-62.0,127.0,127.0,127.0,-120.0,-91.0,115.0
127.0,127.0,127.0,127.0,126.0,128.0,124.0,128.0,-1.0,110.0,-62.0,127.0,127.0,127.0,-120.0,-91.0,115.0
127.0,127.0,127.0,127.0,126.0,127.0,124.0,128.0,-1.0,110.0,-62.0,127.0,127.0,127.0,-120.0,-91.0,115.0
127.0,127.0,127.0,127.0,126.0,127.0,125.0,128.0,-1.0,110.0,-62.0,127.0,127.0,127.0,-120.0,-91.0,115.0
127.0,127.0,127.0,127.0,126.0,127.0,125.0,128.0,-1.0,110.0,-62.0,127.0,127.0,127.0,-120.0,-91.0,115.0
127.0,127.0,127.0,127.0,127.0,127.0,125.0,128.0,-1.0,110.0,-62.0,127.0,127.0,127.0,-120.0,-91.0,115.0
127.0,127.0,127.0,127.0,126.0,127.0,125.0,128.0,-1.0,110.0,-62.0,127.0,127.0,127.0,-120.0,-91.0,115.0
127.0,127.0,127.0,127.0,126.0,129.0,124.0,128.0,-1.0,110.0,-62.0,127.0,127.0,127.0,-120.0,-91.0,115.0
127.0,127.0,127.0,127.0,127.0,127.0,125.0,128.0,-1.0,110.0,-62.0,127.0,127.0,127.0,-120.0,-91.0,115.0
127.0,127.0,127.0,127.0,127.0,127.0,125.0,128.0,-1.0,110.0,-62.0,127.0,127.0,127.0,-120.0,-91.0,115.0
127.0,127.0,127.0,127.0,126.0,127.0,125.0,128.0,-1.0,110.0,-62.0,127.0,127.0,127.0,-120.0,-91.0,115.0
127.0,127.0,127.0,127.0,126.0,127.0,125.0,128.0,-1.0,110.0,-62.0,127.0,127.0,127.0,-120.0,-91.0,115.0
127.0,127.0,127.0,127.0,126.0,128.0,125.0,128.0,-1.0,110.0,-62.0,127.0,127.0,127.0,-120.0,-91.0,115.0
127.0,127.0,127.0,127.0,126.0,127.0,125.0,128.0,-1.0,110.0,-62.0,127.0,127.0,127.0,-120.0,-91.0,115.0
127.0,127.0,127.0,127.0,126.0,127.0,125.0,128.0,-1.0,110.0,-62.0,127.0,127.0,127.0,-120.0,-91.0,115.0
127.0,127.0,127.0,127.0,126.0,127.0,125.0,128.0,-1.0,110.0,-62.0,127.0,127.0,127.0,-120.0,-91.0,115.0
127.0,127.0,127.0,127.0,127.0,127.0,125.0,128.0,-1.0,110.0,-62.0,127.0,127.0,127.0,-120.0,-91.0,115.0
127.0,127.0,127.0,127.0,127.0,127.0,125.0,128.0,-1.0,110.0,-62.0,127.0,127.0,127.0,-120.0,-91.0,115.0
127.0,127.0,126.0,127.0,126.0,128.0,124.0,128.0,-1.0,110.0,-62.0,127.0,127.0,127.0,-120.0,-91.0,115.0
127.0,127.0,126.0,127.0,126.0,128.0,125.0,128.0,-1.0,110.0,-62.0,127.0,127.0,127.0,-120.0,-91.0,115.0
127.0,127.0,126.0,127.0,126.0,128.0,125.0,128.0,-1.0,110.0,-62.0,127.0,127.0,127.0,-120.0,-91.0,115.0
127.0,127.0,126.0,127.0,127.0,128.0,125.0,128.0,-1.0,110.0,-62.0,127.0,127.0,127.0,-120.0,-91.0,115.0
127.0,127.0,126.0,127.0,127.0,128.0,125.0,128.0,-1.0,110.0,-62.0,127.0,127.0,127.0,-120.0,-91.0,115.0
127.0,127.0,126.0,127.0,127.0,127.0,125.0,128.0,-1.0,110.0,-62.0,127.0,127.0,127.0,-120.0,-91.0,115.0
127.0,127.0,127.0,127.0,126.0,128.0,124.0,128.0,-1.0,110.0,-62.0,127.0,127.0,127.0,-120.0,-91.0,115.0
127.0,127.0,127.0,127.0,126.0,128.0,125.0,128.0,-1.0,110.0,-62.0,127.0,127.0,127.0,-120.0,-91.0,115.0
127.0,127.0,127.0,127.0,126.0,128.0,124.0,128.0,-1.0,110.0,-62.0,127.0,127.0,127.0,-120.0,-91.0,115.0
127.0,127.0,126.0,127.0,126.0,128.0,124.0,128.0,-1.0,110.0,-62.0,127.0,127.0,127.0,-120.0,-91.0,115.0
127.0,127.0,126.0,127.0,126.0,128.0,125.0,128.0,-1.0,110.0,-62.0,127.0,127.0,127.0,-120.0,-91.0,115.0
127.0,127.0,127.0,127.0,126.0,128.0,125.0,128.0,-1.0,110.0,-62.0,127.0,127.0,127.0,-120.0,-91.0,115.0
127.0,127.0,126.0,127.0,126.0,127.0,125.0,128.0,-1.0,110.0,-62.0,127.0,127.0,127.0,-120.0,-91.0,115.0
127.0,127.0,126.0,127.0,126.0,127.0,125.0,128.0,-1.0,110.0,-62.0,127.0,127.0,127.0,-120.0,-91.0,115.0
127.0,127.0,126.0,127.0,126.0,127.0,126.0,128.0,-1.0,110.0,-62.0,127.0,127.0,127.0,-120.0,-91.0,115.0
127.0,127.0,127.0,127.0,126.0,127.0,126.0,128.0,-1.0,110.0,-62.0,127.0,127.0,127.0,-120.0,-91.0,115.0
127.0,127.0,127.0,127.0,126.0,127.0,126.0,128.0,-1.0,110.0,-62.0,127.0,127.0,127.0,-120.0,-91.0,115.0
127.0,127.0,127.0,127.0,126.0,127.0,126.0,128.0,-1.0,110.0,-62.0,127.0,127.0,127.0,-120.0,-91.0,115.0
127.0,127.0,126.0,127.0,126.0,128.0,125.0,128.0,-1.0,110.0,-62.0,127.0,127.0,127.0,-120.0,-91.0,115.0
127.0,127.0,126.0,127.0,126.0,128.0,125.0,128.0,-1.0,110.0,-62.0,127.0,127.0,127.0,-120.0,-91.0,115.0
127.0,127.0,127.0,127.0,126.0,128.0,124.0,128.0,-1.0,110.0,-62.0,127.0,127.0,127.0,-120.0,-91.0,115.0
127.0,127.0,127.0,127.0,126.0,128.0,124.0,128.0,-1.0,110.0,-62.0,127.0,127.0,127.0,-120.0,-91.0,115.0
127.0,127.0,127.0,127.0,126.0,128.0,124.0,128.0,-1.0,110.0,-62.0,127.0,127.0,127.0,-120.0,-91.0,115.0
127.0,127.0,127.0,127.0,126.0,128.0,124.0,128.0,-1.0,110.0,-62.0,127.0,127.0,127.0,-120.0,-91.0,115.0
127.0,127.0,127.0,127.0,126.0,128.0,125.0,127.0,-1.0,110.0,-62.0,127.0,127.0,127.0,-120.0,-91.0,115.0
127.0,127.0,127.0,127.0,126.0,128.0,125.0,127.0,-1.0,110.0,-62.0,127.0,127.0,127.0,-120.0,-91.0,115.0
127.0,127.0,127.0,127.0,126.0,127.0,125.0,127.0,-1.0,110.0,-62.0,127.0,127.0,127.0,-120.0,-91.0,115.0
127.0,127.0,127.0,127.0,126.0,128.0,124.0,128.0,-1.0,110.0,-62.0,127.0,127.0,127.0,-120.0,-91.0,115.0
127.0,127.0,127.0,127.0,126.0,128.0,124.0,128.0,-1.0,110.0,-62.0,127.0,127.0,127.0,-120.0,-91.0,115.0
127.0,127.0,127.0,127.0,126.0,128.0,124.0,128.0,-1.0,110.0,-62.0,127.0,127.0,127.0,-120.0,-91.0,115.0
127.0,127.0,127.0,127.0,126.0,128.0,124.0,128.0,-1.0,110.0,-62.0,127.0,127.0,127.0,-120.0,-91.0,115.0
127.0,127.0,127.0,127.0,126.0,128.0,124.0,128.0,-1.0,110.0,-62.0,127.0,127.0,127.0,-120.0,-91.0,115.0
127.0,127.0,127.0,127.0,126.0,128.0,125.0,128.0,-1.0,110.0,-62.0,127.0,127.0,127.0,-120.0,-91.0,115.0
127.0,127.0,127.0,127.0,127.0,128.0,124.0,128.0,-1.0,110.0,-62.0,127.0,127.0,127.0,-120.0,-91.0,115.0
127.0,127.0,127.0,127.0,127.0,128.0,124.0,128.0,-1.0,110.0,-62.0,127.0,127.0,127.0,-120.0,-91.0,115.0
127.0,127.0,127.0,127.0,127.0,128.0,124.0,128.0,-1.0,110.0,-62.0,127.0,127.0,127.0,-120.0,-91.0,115.0
127.0,127.0,127.0,127.0,126.0,129.0,124.0,128.0,-1.0,110.0,-62.0,127.0,127.0,127.0,-120.0,-91.0,115.0
127.0,127.0,127.0,127.0,126.0,129.0,124.0,128.0,-1.0,110.0,-62.0,127.0,127.0,127.0,-120.0,-91.0,115.0
127.0,127.0,127.0,127.0,126.0,129.0,124.0,128.0,-1.0,110.0,-62.0,127.0,127.0,127.0,-120.0,-91.0,115.0
127.0,127.0,127.0,127.0,126.0,128.0,124.0,128.0,-1.0,110.0,-62.0,127.0,127.0,127.0,-120.0,-91.0,115.0
127.0,127.0,127.0,127.0,126.0,128.0,125.0,128.0,-1.0,110.0,-62.0,127.0,127.0,127.0,-120.0,-91.0,115.0
127.0,127.0,127.0,127.0,126.0,128.0,125.0,128.0,-1.0,110.0,-62.0,127.0,127.0,127.0,-120.0,-91.0,115.0
127.0,127.0,127.0,127.0,126.0,127.0,125.0,128.0,-1.0,110.0,-62.0,127.0,127.0,127.0,-120.0,-91.0,115.0
127.0,127.0,127.0,127.0,126.0,127.0,125.0,128.0,-1.0,110.0,-62.0,127.0,127.0,127.0,-120.0,-91.0,115.0
127.0,127.0,127.0,127.0,126.0,127.0,125.0,128.0,-1.0,110.0,-62.0,127.0,127.0,127.0,-120.0,-91.0,115.0
127.0,127.0,127.0,127.0,126.0,127.0,125.0,128.0,-1.0,110.0,-62.0,127.0,127.0,127.0,-120.0,-91.0,115.0
127.0,127.0,127.0,127.0,126.0,128.0,125.0,128.0,-1.0,110.0,-62.0,127.0,127.0,127.0,-120.0,-91.0,115.0
127.0,127.0,127.0,127.0,126.0,128.0,125.0,128.0,-1.0,110.0,-62.0,127.0,127.0,127.0,-120.0,-91.0,115.0
127.0,127.0,127.0,127.0,126.0,128.0,125.0,128.0,-1.0,110.0,-62.0,127.0,127.0,127.0,-120.0,-91.0,115.0
127.0,127.0,127.0,127.0,126.0,128.0,125.0,128.0,-1.0,110.0,-62.0,127.0,127.0,127.0,-120.0,-91.0,115.0
127.0,127.0,127.0,127.0,126.0,126.0,126.0,127.0,-1.0,110.0,-62.0,127.0,127.0,127.0,-120.0,-91.0,115.0
127.0,127.0,126.0,127.0,126.0,127.0,126.0,127.0,-1.0,110.0,-62.0,127.0,127.0,127.0,-120.0,-91.0,115.0
127.0,127.0,127.0,127.0,126.0,126.0,126.0,127.0,-1.0,110.0,-62.0,127.0,127.0,127.0,-120.0,-91.0,115.0
127.0,127.0,127.0,127.0,126.0,127.0,126.0,127.0,-1.0,110.0,-62.0,127.0,127.0,127.0,-120.0,-91.0,115.0
127.0,127.0,127.0,127.0,126.0,126.0,126.0,127.0,-1.0,110.0,-62.0,127.0,127.0,127.0,-120.0,-91.0,115.0
127.0,127.0,127.0,127.0,126.0,126.0,126.0,127.0,-1.0,110.0,-62.0,127.0,127.0,127.0,-120.0,-91.0,115.0
127.0,127.0,127.0,127.0,126.0,126.0,126.0,127.0,-1.0,110.0,-62.0,127.0,127.0,127.0,-120.0,-91.0,115.0
127.0,127.0,127.0,127.0,126.0,126.0,126.0,127.0,-1.0,110.0,-62.0,127.0,127.0,127.0,-120.0,-91.0,115.0
127.0,127.0,127.0,127.0,126.0,126.0,126.0,127.0,-1.0,110.0,-62.0,127.0,127.0,127.0,-120.0,-91.0,115.0
127.0,127.0,127.0,127.0,126.0,126.0,126.0,127.0,-1.0,110.0,-62.0,127.0,127.0,127.0,-120.0,-91.0,115.0
127.0,127.0,127.0,127.0,126.0,128.0,127.0,128.0,-1.0,110.0,-62.0,127.0,127.0,127.0,-120.0,-91.0,115.0
127.0,127.0,127.0,127.0,126.0,127.0,127.0,128.0,-1.0,110.0,-62.0,127.0,127.0,127.0,-120.0,-91.0,115.0
127.0,127.0,127.0,127.0,126.0,127.0,127.0,128.0,-1.0,110.0,-62.0,127.0,127.0,127.0,-120.0,-91.0,115.0
127.0,127.0,127.0,127.0,126.0,127.0,127.0,128.0,-1.0,110.0,-62.0,127.0,127.0,127.0,-120.0,-91.0,115.0
127.0,127.0,127.0,127.0,126.0,128.0,126.0,128.0,-1.0,110.0,-62.0,127.0,127.0,127.0,-120.0,-91.0,115.0
127.0,127.0,127.0,127.0,126.0,128.0,126.0,128.0,-1.0,110.0,-62.0,127.0,127.0,127.0,-120.0,-91.0,115.0
127.0,127.0,127.0,127.0,126.0,128.0,126.0,128.0,-1.0,110.0,-62.0,127.0,127.0,127.0,-120.0,-91.0,115.0
127.0,127.0,127.0,127.0,126.0,128.0,126.0,128.0,-1.0,110.0,-62.0,127.0,127.0,127.0,-120.0,-91.0,115.0
127.0,127.0,127.0,127.0,126.0,128.0,126.0,128.0,-1.0,110.0,-62.0,127.0,127.0,127.0,-120.0,-91.0,115.0
127.0,127.0,127.0,127.0,126.0,128.0,126.0,128.0,-1.0,110.0,-62.0,127.0,127.0,127.0,-120.0,-91.0,115.0
127.0,127.0,127.0,127.0,127.0,128.0,127.0,128.0,-1.0,111.0,-62.0,127.0,127.0,127.0,-120.0,-91.0,115.0
127.0,127.0,127.0,127.0,127.0,128.0,127.0,128.0,-1.0,111.0,-62.0,127.0,127.0,127.0,-120.0,-91.0,115.0
127.0,127.0,127.0,127.0,127.0,127.0,127.0,128.0,-1.0,111.0,-62.0,127.0,127.0,127.0,-120.0,-91.0,115.0
127.0,127.0,127.0,127.0,126.0,128.0,127.0,128.0,-1.0,111.0,-62.0,127.0,127.0,127.0,-120.0,-91.0,115.0
