emg1,emg2,emg3,emg4,emg5,emg6,emg7,emg8,acc_x,acc_y,acc_z,gyro_x,gyro_y,gyro_z,angle_pitch,angle_roll,angle_yaw
126.0,125.0,127.0,127.0,127.0,126.0,126.0,128.0,-1.0,117.0,-64.0,127.0,127.0,127.0,-125.0,-89.0,-125.0
126.0,125.0,127.0,127.0,127.0,126.0,125.0,128.0,-1.0,117.0,-64.0,127.0,127.0,127.0,-125.0,-89.0,-125.0
126.0,125.0,127.0,127.0,127.0,126.0,125.0,128.0,-1.0,117.0,-64.0,127.0,127.0,127.0,-125.0,-89.0,-125.0
126.0,125.0,127.0,127.0,127.0,126.0,125.0,128.0,-1.0,117.0,-64.0,127.0,127.0,127.0,-125.0,-89.0,-125.0
126.0,125.0,127.0,127.0,127.0,126.0,125.0,128.0,-1.0,117.0,-64.0,127.0,127.0,127.0,-125.0,-89.0,-125.0
126.0,125.0,127.0,127.0,127.0,126.0,125.0,128.0,-1.0,117.0,-64.0,127.0,127.0,127.0,-125.0,-89.0,-125.0
126.0,125.0,127.0,127.0,127.0,126.0,126.0,128.0,-1.0,117.0,-64.0,127.0,127.0,127.0,-125.0,-89.0,-125.0
126.0,125.0,127.0,127.0,127.0,126.0,126.0,128.0,-1.0,117.0,-64.0,127.0,127.0,127.0,-125.0,-89.0,-125.0
126.0,125.0,127.0,127.0,127.0,126.0,126.0,128.0,-1.0,117.0,-64.0,127.0,127.0,127.0,-125.0,-89.0,-125.0
126.0,125.0,127.0,127.0,127.0,126.0,126.0,128.0,-1.0,117.0,-64.0,127.0,127.0,127.0,-125.0,-89.0,-125.0
127.0,126.0,128.0,127.0,128.0,128.0,127.0,128.0,-1.0,117.0,-63.0,127.0,127.0,127.0,-125.0,-89.0,-125.0
127.0,126.0,128.0,127.0,128.0,128.0,127.0,128.0,-1.0,117.0,-63.0,127.0,127.0,127.0,-125.0,-89.0,-125.0
127.0,126.0,128.0,127.0,128.0,128.0,127.0,128.0,-1.0,117.0,-63.0,127.0,127.0,127.0,-125.0,-89.0,-125.0
127.0,126.0,128.0,127.0,128.0,128.0,127.0,128.0,-1.0,117.0,-63.0,127.0,127.0,127.0,-125.0,-89.0,-125.0
127.0,126.0,128.0,127.0,128.0,127.0,127.0,128.0,-1.0,117.0,-63.0,127.0,127.0,127.0,-125.0,-89.0,-125.0
127.0,126.0,128.0,127.0,128.0,128.0,127.0,128.0,-1.0,117.0,-63.0,127.0,127.0,127.0,-125.0,-89.0,-125.0
127.0,126.0,128.0,127.0,128.0,127.0,127.0,128.0,-1.0,117.0,-63.0,127.0,127.0,127.0,-125.0,-89.0,-125.0
127.0,126.0,128.0,127.0,128.0,128.0,127.0,128.0,-1.0,117.0,-63.0,127.0,127.0,127.0,-125.0,-89.0,-125.0
127.0,126.0,128.0,127.0,128.0,128.0,127.0,128.0,-1.0,117.0,-63.0,127.0,127.0,127.0,-125.0,-89.0,-125.0
127.0,126.0,128.0,127.0,128.0,128.0,127.0,128.0,-1.0,117.0,-63.0,127.0,127.0,127.0,-125.0,-89.0,-125.0
127.0,126.0,127.0,127.0,128.0,127.0,127.0,128.0,-1.0,117.0,-63.0,127.0,127.0,127.0,-125.0,-89.0,-125.0
127.0,126.0,127.0,127.0,128.0,127.0,127.0,128.0,-1.0,117.0,-63.0,127.0,127.0,127.0,-125.0,-89.0,-125.0
127.0,126.0,127.0,127.0,129.0,127.0,127.0,128.0,-1.0,117.0,-63.0,127.0,127.0,127.0,-125.0,-89.0,-125.0
127.0,126.0,127.0,127.0,129.0,127.0,127.0,128.0,-1.0,117.0,-63.0,127.0,127.0,127.0,-125.0,-89.0,-125.0
127.0,126.0,128.0,127.0,128.0,127.0,127.0,128.0,-1.0,117.0,-63.0,127.0,127.0,127.0,-125.0,-89.0,-125.0
127.0,126.0,128.0,127.0,128.0,127.0,127.0,128.0,-1.0,117.0,-63.0,127.0,127.0,127.0,-125.0,-89.0,-125.0
127.0,126.0,127.0,127.0,128.0,127.0,127.0,128.0,-1.0,117.0,-63.0,127.0,127.0,127.0,-125.0,-89.0,-125.0
127.0,126.0,127.0,127.0,128.0,127.0,127.0,128.0,-1.0,117.0,-63.0,127.0,127.0,127.0,-125.0,-89.0,-125.0
127.0,126.0,127.0,127.0,128.0,127.0,127.0,128.0,-1.0,117.0,-63.0,127.0,127.0,127.0,-125.0,-89.0,-125.0
127.0,126.0,127.0,127.0,128.0,127.0,127.0,128.0,-1.0,117.0,-63.0,127.0,127.0,127.0,-125.0,-89.0,-125.0
127.0,126.0,127.0,126.0,127.0,128.0,127.0,129.0,-1.0,117.0,-63.0,127.0,127.0,127.0,-125.0,-89.0,-125.0
127.0,126.0,127.0,127.0,127.0,128.0,127.0,129.0,-1.0,117.0,-63.0,127.0,127.0,127.0,-125.0,-89.0,-125.0
127.0,126.0,127.0,127.0,127.0,128.0,127.0,129.0,-1.0,117.0,-63.0,127.0,127.0,127.0,-125.0,-89.0,-125.0
127.0,126.0,127.0,126.0,128.0,127.0,127.0,129.0,-1.0,117.0,-63.0,127.0,127.0,127.0,-125.0,-89.0,-125.0
127.0,126.0,127.0,126.0,128.0,127.0,127.0,129.0,-1.0,117.0,-63.0,127.0,127.0,127.0,-125.0,-89.0,-125.0
127.0,125.0,127.0,126.0,128.0,127.0,127.0,129.0,-1.0,117.0,-63.0,127.0,127.0,127.0,-125.0,-89.0,-125.0
127.0,125.0,127.0,126.0,128.0,127.0,127.0,129.0,-1.0,117.0,-63.0,127.0,127.0,127.0,-125.0,-89.0,-125.0
127.0,126.0,127.0,126.0,128.0,127.0,127.0,129.0,-1.0,117.0,-63.0,127.0,127.0,127.0,-125.0,-89.0,-125.0
127.0,126.0,127.0,126.0,128.0,127.0,127.0,129.0,-1.0,117.0,-63.0,127.0,127.0,127.0,-125.0,-89.0,-125.0
127.0,126.0,127.0,126.0,128.0,128.0,127.0,129.0,-1.0,117.0,-63.0,127.0,127.0,127.0,-125.0,-89.0,-125.0
126.0,126.0,127.0,126.0,126.0,127.0,126.0,128.0,-1.0,117.0,-63.0,127.0,127.0,127.0,-125.0,-89.0,-125.0
127.0,126.0,127.0,126.0,126.0,128.0,126.0,128.0,-1.0,117.0,-63.0,127.0,127.0,127.0,-125.0,-89.0,-125.0
127.0,125.0,127.0,126.0,126.0,127.0,126.0,128.0,-1.0,117.0,-63.0,127.0,127.0,127.0,-125.0,-89.0,-125.0
126.0,125.0,127.0,126.0,126.0,127.0,126.0,128.0,-1.0,117.0,-63.0,127.0,127.0,127.0,-125.0,-89.0,-125.0
126.0,125.0,127.0,126.0,126.0,127.0,126.0,128.0,-1.0,117.0,-63.0,127.0,127.0,127.0,-125.0,-89.0,-125.0
126.0,125.0,127.0,126.0,126.0,127.0,126.0,128.0,-1.0,117.0,-63.0,127.0,127.0,127.0,-125.0,-89.0,-125.0
126.0,125.0,127.0,126.0,126.0,127.0,126.0,128.0,-1.0,117.0,-63.0,127.0,127.0,127.0,-125.0,-89.0,-125.0
126.0,125.0,127.0,126.0,126.0,127.0,126.0,128.0,-1.0,117.0,-63.0,127.0,127.0,127.0,-125.0,-89.0,-125.0
126.0,125.0,127.0,126.0,126.0,127.0,126.0,128.0,-1.0,117.0,-63.0,127.0,127.0,127.0,-125.0,-89.0,-125.0
126.0,125.0,127.0,126.0,126.0,127.0,126.0,128.0,-1.0,117.0,-63.0,127.0,127.0,127.0,-125.0,-89.0,-125.0
127.0,126.0,127.0,126.0,126.0,128.0,126.0,129.0,-1.0,117.0,-63.0,127.0,127.0,127.0,-125.0,-89.0,-125.0
126.0,126.0,127.0,126.0,127.0,127.0,126.0,128.0,-1.0,117.0,-63.0,127.0,127.0,127.0,-125.0,-89.0,-125.0
126.0,126.0,127.0,126.0,127.0,127.0,126.0,128.0,-1.0,117.0,-63.0,127.0,127.0,127.0,-125.0,-89.0,-125.0
126.0,126.0,127.0,126.0,127.0,127.0,126.0,128.0,-1.0,117.0,-63.0,127.0,127.0,127.0,-125.0,-89.0,-125.0
126.0,126.0,127.0,126.0,127.0,127.0,126.0,129.0,-1.0,117.0,-63.0,127.0,127.0,127.0,-125.0,-89.0,-125.0
127.0,126.0,127.0,126.0,127.0,127.0,126.0,129.0,-1.0,117.0,-63.0,127.0,127.0,127.0,-125.0,-89.0,-125.0
126.0,126.0,127.0,126.0,127.0,127.0,126.0,129.0,-1.0,117.0,-63.0,127.0,127.0,127.0,-125.0,-89.0,-125.0
127.0,126.0,127.0,126.0,126.0,128.0,126.0,129.0,-1.0,117.0,-63.0,127.0,127.0,127.0,-125.0,-89.0,-125.0
127.0,126.0,127.0,126.0,126.0,128.0,126.0,129.0,-1.0,117.0,-63.0,127.0,127.0,127.0,-125.0,-89.0,-125.0
127.0,126.0,127.0,126.0,126.0,128.0,126.0,129.0,-1.0,117.0,-63.0,127.0,127.0,127.0,-125.0,-89.0,-125.0
127.0,125.0,127.0,126.0,126.0,127.0,125.0,128.0,-1.0,117.0,-63.0,127.0,127.0,127.0,-125.0,-89.0,-125.0
127.0,125.0,127.0,127.0,127.0,127.0,125.0,128.0,-1.0,117.0,-63.0,127.0,127.0,127.0,-125.0,-89.0,-125.0
127.0,125.0,127.0,126.0,126.0,127.0,125.0,128.0,-1.0,117.0,-63.0,127.0,127.0,127.0,-125.0,-89.0,-125.0
127.0,125.0,127.0,126.0,126.0,127.0,125.0,128.0,-1.0,117.0,-63.0,127.0,127.0,127.0,-125.0,-89.0,-125.0
127.0,125.0,127.0,127.0,126.0,128.0,126.0,128.0,-1.0,117.0,-63.0,127.0,127.0,127.0,-125.0,-89.0,-125.0
127.0,126.0,128.0,126.0,126.0,128.0,125.0,128.0,-1.0,117.0,-63.0,127.0,127.0,127.0,-125.0,-89.0,-125.0
127.0,125.0,128.0,126.0,126.0,127.0,125.0,128.0,-1.0,117.0,-63.0,127.0,127.0,127.0,-125.0,-89.0,-125.0
127.0,125.0,128.0,126.0,126.0,127.0,125.0,128.0,-1.0,117.0,-63.0,127.0,127.0,127.0,-125.0,-89.0,-125.0
127.0,125.0,128.0,126.0,126.0,127.0,125.0,128.0,-1.0,117.0,-63.0,127.0,127.0,127.0,-125.0,-89.0,-125.0
127.0,126.0,128.0,126.0,126.0,128.0,126.0,128.0,-1.0,117.0,-63.0,127.0,127.0,127.0,-125.0,-89.0,-125.0
126.0,126.0,127.0,126.0,125.0,128.0,127.0,128.0,-1.0,117.0,-63.0,127.0,127.0,127.0,-125.0,-89.0,-125.0
126.0,126.0,127.0,126.0,125.0,128.0,127.0,128.0,-1.0,117.0,-63.0,127.0,127.0,127.0,-125.0,-89.0,-125.0
126.0,126.0,127.0,126.0,125.0,128.0,127.0,128.0,-1.0,117.0,-63.0,127.0,127.0,127.0,-125.0,-89.0,-125.0
126.0,126.0,127.0,126.0,125.0,128.0,127.0,128.0,-1.0,117.0,-63.0,127.0,127.0,127.0,-125.0,-89.0,-125.0
126.0,126.0,127.0,126.0,126.0,128.0,127.0,128.0,-1.0,117.0,-63.0,127.0,127.0,127.0,-125.0,-89.0,-125.0
126.0,126.0,127.0,126.0,126.0,128.0,127.0,128.0,-1.0,117.0,-63.0,127.0,127.0,127.0,-125.0,-89.0,-125.0
126.0,126.0,127.0,126.0,126.0,128.0,127.0,128.0,-1.0,117.0,-63.0,127.0,127.0,127.0,-125.0,-89.0,-125.0
126.0,126.0,127.0,126.0,126.0,128.0,127.0,128.0,-1.0,117.0,-63.0,127.0,127.0,127.0,-125.0,-89.0,-125.0
126.0,126.0,127.0,126.0,126.0,127.0,127.0,128.0,-1.0,117.0,-63.0,127.0,127.0,127.0,-125.0,-89.0,-125.0
127.0,126.0,127.0,126.0,125.0,128.0,126.0,128.0,-1.0,117.0,-63.0,127.0,127.0,127.0,-125.0,-89.0,-125.0
127.0,126.0,128.0,126.0,128.0,128.0,128.0,128.0,-1.0,117.0,-63.0,127.0,127.0,127.0,-125.0,-89.0,-125.0
127.0,126.0,128.0,126.0,128.0,127.0,128.0,128.0,-1.0,117.0,-63.0,127.0,127.0,127.0,-125.0,-89.0,-125.0
127.0,126.0,128.0,126.0,128.0,127.0,128.0,128.0,-1.0,117.0,-63.0,127.0,127.0,127.0,-125.0,-89.0,-125.0
127.0,126.0,128.0,126.0,128.0,127.0,128.0,128.0,-1.0,117.0,-63.0,127.0,127.0,127.0,-125.0,-89.0,-125.0
127.0,126.0,128.0,126.0,128.0,127.0,128.0,128.0,-1.0,117.0,-63.0,127.0,127.0,127.0,-125.0,-89.0,-125.0
127.0,126.0,128.0,126.0,128.0,127.0,128.0,128.0,-1.0,117.0,-63.0,127.0,127.0,127.0,-125.0,-89.0,-125.0
127.0,126.0,128.0,126.0,128.0,127.0,128.0,128.0,-1.0,117.0,-63.0,127.0,127.0,127.0,-125.0,-89.0,-125.0
127.0,126.0,128.0,126.0,128.0,127.0,128.0,128.0,-1.0,117.0,-63.0,127.0,127.0,127.0,-125.0,-89.0,-125.0
127.0,126.0,128.0,126.0,127.0,127.0,128.0,128.0,-1.0,117.0,-63.0,127.0,127.0,127.0,-125.0,-89.0,-125.0
127.0,126.0,128.0,126.0,127.0,128.0,128.0,128.0,-1.0,117.0,-63.0,127.0,127.0,127.0,-125.0,-89.0,-125.0
127.0,126.0,126.0,126.0,126.0,128.0,127.0,128.0,-1.0,117.0,-63.0,127.0,127.0,127.0,-125.0,-89.0,-125.0
127.0,126.0,126.0,126.0,126.0,128.0,127.0,128.0,-1.0,117.0,-63.0,127.0,127.0,127.0,-125.0,-89.0,-125.0
127.0,126.0,126.0,126.0,126.0,128.0,127.0,128.0,-1.0,117.0,-63.0,127.0,127.0,127.0,-125.0,-89.0,-125.0
126.0,126.0,126.0,126.0,126.0,128.0,127.0,128.0,-1.0,117.0,-63.0,127.0,127.0,127.0,-125.0,-89.0,-125.0
127.0,126.0,126.0,126.0,126.0,128.0,127.0,128.0,-1.0,117.0,-63.0,127.0,127.0,127.0,-125.0,-89.0,-125.0
127.0,126.0,126.0,126.0,126.0,128.0,127.0,128.0,-1.0,117.0,-63.0,127.0,127.0,127.0,-125.0,-89.0,-125.0
127.0,126.0,126.0,126.0,126.0,128.0,127.0,128.0,-1.0,117.0,-63.0,127.0,127.0,127.0,-125.0,-89.0,-125.0
127.0,126.0,126.0,126.0,126.0,128.0,127.0,128.0,-1.0,117.0,-63.0,127.0,127.0,127.0,-125.0,-89.0,-125.0
127.0,126.0,126.0,126.0,126.0,128.0,127.0,128.0,-1.0,117.0,-63.0,127.0,127.0,127.0,-125.0,-89.0,-125.0
127.0,126.0,126.0,126.0,126.0,128.0,127.0,128.0,-1.0,117.0,-63.0,127.0,127.0,127.0,-125.0,-89.0,-125.0
127.0,126.0,127.0,126.0,129.0,127.0,128.0,128.0,-1.0,117.0,-63.0,127.0,127.0,127.0,-125.0,-89.0,-125.0
127.0,126.0,127.0,126.0,129.0,127.0,128.0,128.0,-1.0,117.0,-63.0,127.0,127.0,127.0,-125.0,-89.0,-125.0
127.0,126.0,127.0,126.0,129.0,127.0,128.0,128.0,-1.0,117.0,-63.0,127.0,127.0,127.0,-125.0,-89.0,-125.0
127.0,125.0,127.0,126.0,129.0,127.0,128.0,128.0,-1.0,117.0,-63.0,127.0,127.0,127.0,-125.0,-89.0,-125.0
127.0,125.0,127.0,126.0,129.0,127.0,128.0,128.0,-1.0,117.0,-63.0,127.0,127.0,127.0,-125.0,-89.0,-125.0
127.0,125.0,127.0,126.0,129.0,127.0,128.0,128.0,-1.0,117.0,-63.0,127.0,127.0,127.0,-125.0,-89.0,-125.0
127.0,126.0,127.0,126.0,128.0,127.0,128.0,128.0,-1.0,117.0,-63.0,127.0,127.0,127.0,-125.0,-89.0,-125.0
127.0,126.0,127.0,126.0,128.0,127.0,128.0,128.0,-1.0,117.0,-63.0,127.0,127.0,127.0,-125.0,-89.0,-125.0
127.0,126.0,127.0,126.0,128.0,128.0,128.0,128.0,-1.0,117.0,-63.0,127.0,127.0,127.0,-125.0,-89.0,-125.0
127.0,126.0,127.0,126.0,128.0,127.0,128.0,128.0,-1.0,117.0,-63.0,127.0,127.0,127.0,-125.0,-89.0,-125.0
127.0,126.0,127.0,125.0,127.0,127.0,126.0,129.0,-1.0,117.0,-63.0,127.0,127.0,127.0,-125.0,-89.0,-125.0
127.0,126.0,127.0,126.0,127.0,127.0,126.0,129.0,-1.0,117.0,-63.0,127.0,127.0,127.0,-125.0,-89.0,-125.0
127.0,126.0,127.0,125.0,127.0,127.0,126.0,129.0,-1.0,117.0,-63.0,127.0,127.0,127.0,-125.0,-89.0,-125.0
127.0,126.0,127.0,125.0,127.0,127.0,126.0,129.0,-1.0,117.0,-63.0,127.0,127.0,127.0,-125.0,-89.0,-125.0
127.0,126.0,127.0,125.0,127.0,127.0,126.0,129.0,-1.0,117.0,-63.0,127.0,127.0,127.0,-125.0,-89.0,-125.0
127.0,126.0,127.0,126.0,127.0,128.0,127.0,129.0,-1.0,117.0,-63.0,127.0,127.0,127.0,-125.0,-89.0,-125.0
127.0,126.0,127.0,126.0,127.0,128.0,126.0,129.0,-1.0,117.0,-63.0,127.0,127.0,127.0,-125.0,-89.0,-125.0
127.0,126.0,127.0,126.0,127.0,128.0,126.0,129.0,-1.0,117.0,-63.0,127.0,127.0,127.0,-125.0,-89.0,-125.0
127.0,126.0,127.0,126.0,127.0,128.0,126.0,129.0,-1.0,117.0,-63.0,127.0,127.0,127.0,-125.0,-89.0,-125.0
127.0,126.0,127.0,125.0,127.0,128.0,126.0,129.0,-1.0,117.0,-63.0,127.0,127.0,127.0,-125.0,-89.0,-125.0
127.0,126.0,126.0,125.0,125.0,128.0,127.0,129.0,-1.0,117.0,-64.0,127.0,127.0,127.0,-125.0,-89.0,-125.0
127.0,126.0,126.0,125.0,125.0,127.0,127.0,129.0,-1.0,117.0,-64.0,127.0,127.0,127.0,-125.0,-89.0,-125.0
127.0,126.0,126.0,125.0,125.0,127.0,127.0,129.0,-1.0,117.0,-64.0,127.0,127.0,127.0,-125.0,-89.0,-125.0
127.0,126.0,126.0,125.0,125.0,127.0,127.0,129.0,-1.0,117.0,-64.0,127.0,127.0,127.0,-125.0,-89.0,-125.0
127.0,126.0,126.0,125.0,125.0,128.0,127.0,129.0,-1.0,117.0,-64.0,127.0,127.0,127.0,-125.0,-89.0,-125.0
127.0,126.0,126.0,125.0,125.0,128.0,127.0,129.0,-1.0,117.0,-64.0,127.0,127.0,127.0,-125.0,-89.0,-125.0
126.0,126.0,126.0,125.0,125.0,128.0,127.0,129.0,-1.0,117.0,-64.0,127.0,127.0,127.0,-125.0,-89.0,-125.0
127.0,126.0,126.0,125.0,125.0,128.0,127.0,129.0,-1.0,117.0,-64.0,127.0,127.0,127.0,-125.0,-89.0,-125.0
127.0,126.0,126.0,125.0,125.0,128.0,127.0,129.0,-1.0,117.0,-64.0,127.0,127.0,127.0,-125.0,-89.0,-125.0
127.0,126.0,126.0,125.0,125.0,128.0,127.0,129.0,-1.0,117.0,-64.0,127.0,127.0,127.0,-125.0,-89.0,-125.0
127.0,126.0,127.0,127.0,127.0,127.0,127.0,129.0,-1.0,117.0,-64.0,127.0,127.0,127.0,-125.0,-89.0,-125.0
127.0,126.0,128.0,127.0,127.0,127.0,127.0,129.0,-1.0,117.0,-64.0,127.0,127.0,127.0,-125.0,-89.0,-125.0
127.0,126.0,128.0,127.0,127.0,127.0,127.0,129.0,-1.0,117.0,-64.0,127.0,127.0,127.0,-125.0,-89.0,-125.0
127.0,126.0,127.0,126.0,126.0,128.0,127.0,129.0,-1.0,117.0,-64.0,127.0,127.0,127.0,-125.0,-89.0,-125.0
127.0,126.0,127.0,126.0,126.0,128.0,127.0,129.0,-1.0,117.0,-64.0,127.0,127.0,127.0,-125.0,-89.0,-125.0
127.0,126.0,127.0,127.0,126.0,128.0,127.0,129.0,-1.0,117.0,-64.0,127.0,127.0,127.0,-125.0,-89.0,-125.0
127.0,126.0,127.0,126.0,126.0,128.0,127.0,129.0,-1.0,117.0,-64.0,127.0,127.0,127.0,-125.0,-89.0,-125.0
127.0,126.0,127.0,127.0,126.0,128.0,127.0,129.0,-1.0,117.0,-64.0,127.0,127.0,127.0,-125.0,-89.0,-125.0
127.0,126.0,127.0,127.0,126.0,128.0,127.0,129.0,-1.0,117.0,-64.0,127.0,127.0,127.0,-125.0,-89.0,-125.0
127.0,126.0,127.0,127.0,126.0,128.0,127.0,129.0,-1.0,117.0,-64.0,127.0,127.0,127.0,-125.0,-89.0,-125.0
127.0,126.0,127.0,126.0,126.0,128.0,127.0,128.0,-1.0,117.0,-64.0,127.0,127.0,127.0,-125.0,-89.0,-125.0
127.0,126.0,127.0,126.0,126.0,128.0,127.0,128.0,-1.0,117.0,-64.0,127.0,127.0,127.0,-125.0,-89.0,-125.0
127.0,126.0,127.0,126.0,126.0,128.0,127.0,129.0,-1.0,117.0,-64.0,127.0,127.0,127.0,-125.0,-89.0,-125.0
127.0,126.0,127.0,126.0,126.0,128.0,127.0,129.0,-1.0,117.0,-64.0,127.0,127.0,127.0,-125.0,-89.0,-125.0
127.0,126.0,127.0,126.0,126.0,128.0,127.0,128.0,-1.0,117.0,-64.0,127.0,127.0,127.0,-125.0,-89.0,-125.0
127.0,126.0,127.0,126.0,126.0,128.0,127.0,129.0,-1.0,117.0,-64.0,127.0,127.0,127.0,-125.0,-89.0,-125.0
127.0,126.0,127.0,126.0,126.0,128.0,127.0,129.0,-1.0,117.0,-64.0,127.0,127.0,127.0,-125.0,-89.0,-125.0
127.0,126.0,127.0,126.0,126.0,128.0,127.0,129.0,-1.0,117.0,-64.0,127.0,127.0,127.0,-125.0,-89.0,-125.0
127.0,126.0,127.0,126.0,126.0,128.0,127.0,129.0,-1.0,117.0,-64.0,127.0,127.0,127.0,-125.0,-89.0,-125.0
127.0,126.0,127.0,126.0,126.0,128.0,127.0,128.0,-1.0,117.0,-64.0,127.0,127.0,127.0,-125.0,-89.0,-125.0
127.0,126.0,126.0,126.0,127.0,128.0,128.0,128.0,-1.0,117.0,-64.0,127.0,127.0,127.0,-125.0,-89.0,-125.0
127.0,126.0,126.0,126.0,126.0,128.0,128.0,128.0,-1.0,117.0,-64.0,127.0,127.0,127.0,-125.0,-89.0,-125.0
127.0,126.0,126.0,126.0,126.0,128.0,128.0,128.0,-1.0,117.0,-64.0,127.0,127.0,127.0,-125.0,-89.0,-125.0
127.0,126.0,126.0,126.0,126.0,128.0,128.0,128.0,-1.0,117.0,-64.0,127.0,127.0,127.0,-125.0,-89.0,-125.0
127.0,126.0,126.0,126.0,126.0,128.0,128.0,129.0,-1.0,117.0,-64.0,127.0,127.0,127.0,-125.0,-89.0,-125.0
127.0,126.0,126.0,126.0,127.0,128.0,128.0,129.0,-1.0,117.0,-64.0,127.0,127.0,127.0,-125.0,-89.0,-125.0
127.0,126.0,126.0,126.0,127.0,128.0,128.0,128.0,-1.0,117.0,-64.0,127.0,127.0,127.0,-125.0,-89.0,-125.0
127.0,126.0,126.0,126.0,127.0,128.0,128.0,128.0,-1.0,117.0,-64.0,127.0,127.0,127.0,-125.0,-89.0,-125.0
127.0,126.0,126.0,126.0,127.0,128.0,128.0,128.0,-1.0,117.0,-64.0,127.0,127.0,127.0,-125.0,-89.0,-125.0
127.0,126.0,126.0,126.0,127.0,128.0,128.0,128.0,-1.0,117.0,-64.0,127.0,127.0,127.0,-125.0,-89.0,-125.0
127.0,126.0,127.0,126.0,127.0,128.0,129.0,129.0,-1.0,117.0,-64.0,127.0,127.0,127.0,-125.0,-89.0,-125.0
127.0,126.0,127.0,126.0,127.0,128.0,129.0,129.0,-1.0,117.0,-64.0,127.0,127.0,127.0,-125.0,-89.0,-125.0
127.0,126.0,127.0,126.0,127.0,128.0,129.0,129.0,-1.0,117.0,-64.0,127.0,127.0,127.0,-125.0,-89.0,-125.0
127.0,126.0,127.0,126.0,127.0,128.0,128.0,129.0,-1.0,117.0,-64.0,127.0,127.0,127.0,-125.0,-89.0,-125.0
127.0,126.0,127.0,126.0,127.0,128.0,128.0,129.0,-1.0,117.0,-64.0,127.0,127.0,127.0,-125.0,-89.0,-125.0
127.0,125.0,127.0,126.0,127.0,128.0,128.0,128.0,-1.0,117.0,-64.0,127.0,127.0,127.0,-125.0,-89.0,-125.0
127.0,125.0,127.0,126.0,127.0,128.0,128.0,128.0,-1.0,117.0,-64.0,127.0,127.0,127.0,-125.0,-89.0,-125.0
127.0,125.0,127.0,126.0,127.0,128.0,128.0,128.0,-1.0,117.0,-64.0,127.0,127.0,127.0,-125.0,-89.0,-125.0
127.0,125.0,127.0,126.0,127.0,128.0,128.0,128.0,-1.0,117.0,-64.0,127.0,127.0,127.0,-125.0,-89.0,-125.0
127.0,125.0,127.0,126.0,127.0,128.0,128.0,128.0,-1.0,117.0,-64.0,127.0,127.0,127.0,-125.0,-89.0,-125.0
127.0,126.0,127.0,126.0,127.0,128.0,128.0,129.0,-1.0,117.0,-64.0,127.0,127.0,127.0,-125.0,-89.0,-125.0
127.0,126.0,127.0,126.0,127.0,128.0,128.0,129.0,-1.0,117.0,-64.0,127.0,127.0,127.0,-125.0,-89.0,-125.0
127.0,126.0,127.0,126.0,127.0,128.0,128.0,129.0,-1.0,117.0,-64.0,127.0,127.0,127.0,-125.0,-89.0,-125.0
127.0,126.0,127.0,126.0,128.0,128.0,128.0,129.0,-1.0,117.0,-64.0,127.0,127.0,127.0,-125.0,-89.0,-125.0
127.0,126.0,127.0,126.0,128.0,128.0,128.0,129.0,-1.0,117.0,-64.0,127.0,127.0,127.0,-125.0,-89.0,-125.0
127.0,126.0,127.0,126.0,128.0,128.0,128.0,129.0,-1.0,117.0,-64.0,127.0,127.0,127.0,-125.0,-89.0,-125.0
126.0,126.0,127.0,126.0,128.0,128.0,128.0,129.0,-1.0,117.0,-64.0,127.0,127.0,127.0,-125.0,-89.0,-125.0
126.0,126.0,127.0,126.0,128.0,128.0,128.0,129.0,-1.0,117.0,-64.0,127.0,127.0,127.0,-125.0,-89.0,-125.0
126.0,125.0,127.0,126.0,128.0,128.0,128.0,129.0,-1.0,117.0,-64.0,127.0,127.0,127.0,-125.0,-89.0,-125.0
127.0,126.0,127.0,126.0,127.0,128.0,128.0,129.0,-1.0,117.0,-64.0,127.0,127.0,127.0,-125.0,-89.0,-125.0
127.0,126.0,127.0,126.0,127.0,128.0,124.0,129.0,-1.0,117.0,-64.0,127.0,127.0,127.0,-125.0,-89.0,-125.0
127.0,126.0,127.0,126.0,127.0,128.0,124.0,129.0,-1.0,117.0,-64.0,127.0,127.0,127.0,-125.0,-89.0,-125.0
127.0,126.0,127.0,126.0,127.0,128.0,124.0,129.0,-1.0,117.0,-64.0,127.0,127.0,127.0,-125.0,-89.0,-125.0
127.0,126.0,127.0,126.0,127.0,128.0,124.0,129.0,-1.0,117.0,-64.0,127.0,127.0,127.0,-125.0,-89.0,-125.0
127.0,126.0,127.0,126.0,127.0,128.0,124.0,129.0,-1.0,117.0,-64.0,127.0,127.0,127.0,-125.0,-89.0,-125.0
127.0,126.0,127.0,126.0,127.0,128.0,124.0,129.0,-1.0,117.0,-64.0,127.0,127.0,127.0,-125.0,-89.0,-125.0
127.0,126.0,126.0,126.0,127.0,127.0,123.0,129.0,-1.0,117.0,-64.0,127.0,127.0,127.0,-125.0,-89.0,-125.0
127.0,126.0,126.0,126.0,127.0,127.0,123.0,129.0,-1.0,117.0,-64.0,127.0,127.0,127.0,-125.0,-89.0,-125.0
127.0,126.0,127.0,126.0,127.0,128.0,124.0,129.0,-1.0,117.0,-64.0,127.0,127.0,127.0,-125.0,-89.0,-125.0
127.0,126.0,127.0,126.0,127.0,128.0,124.0,129.0,-1.0,117.0,-64.0,127.0,127.0,127.0,-125.0,-89.0,-125.0
127.0,126.0,127.0,126.0,127.0,128.0,125.0,129.0,-1.0,117.0,-64.0,127.0,127.0,127.0,-125.0,-89.0,-125.0
127.0,126.0,127.0,126.0,127.0,128.0,125.0,129.0,-1.0,117.0,-64.0,127.0,127.0,127.0,-125.0,-89.0,-125.0
127.0,126.0,127.0,126.0,127.0,128.0,125.0,129.0,-1.0,117.0,-64.0,127.0,127.0,127.0,-125.0,-89.0,-125.0
127.0,126.0,127.0,126.0,128.0,128.0,125.0,129.0,-1.0,117.0,-64.0,127.0,127.0,127.0,-125.0,-89.0,-125.0
127.0,126.0,127.0,126.0,128.0,128.0,125.0,129.0,-1.0,117.0,-64.0,127.0,127.0,127.0,-125.0,-89.0,-125.0
127.0,126.0,127.0,126.0,128.0,127.0,125.0,129.0,-1.0,117.0,-64.0,127.0,127.0,127.0,-125.0,-89.0,-125.0
127.0,126.0,127.0,126.0,128.0,127.0,125.0,128.0,-1.0,117.0,-64.0,127.0,127.0,127.0,-125.0,-89.0,-125.0
126.0,126.0,127.0,126.0,127.0,128.0,124.0,128.0,-1.0,117.0,-64.0,127.0,127.0,127.0,-125.0,-89.0,-125.0
126.0,126.0,127.0,126.0,127.0,128.0,124.0,129.0,-1.0,117.0,-64.0,127.0,127.0,127.0,-125.0,-89.0,-125.0
127.0,126.0,127.0,126.0,127.0,128.0,124.0,129.0,-1.0,117.0,-64.0,127.0,127.0,127.0,-125.0,-89.0,-125.0
126.0,126.0,126.0,126.0,127.0,126.0,127.0,128.0,-1.0,117.0,-64.0,127.0,127.0,127.0,-125.0,-89.0,-125.0
126.0,126.0,126.0,126.0,127.0,126.0,127.0,128.0,-1.0,117.0,-64.0,127.0,127.0,127.0,-125.0,-89.0,-125.0
126.0,126.0,126.0,126.0,127.0,126.0,127.0,128.0,-1.0,117.0,-64.0,127.0,127.0,127.0,-125.0,-89.0,-125.0
126.0,126.0,126.0,126.0,127.0,127.0,127.0,128.0,-1.0,117.0,-64.0,127.0,127.0,127.0,-125.0,-89.0,-125.0
126.0,126.0,126.0,126.0,127.0,127.0,127.0,128.0,-1.0,117.0,-64.0,127.0,127.0,127.0,-125.0,-89.0,-125.0
127.0,126.0,126.0,126.0,127.0,126.0,127.0,128.0,-1.0,117.0,-64.0,127.0,127.0,127.0,-125.0,-89.0,-125.0
127.0,126.0,126.0,126.0,126.0,126.0,126.0,128.0,-1.0,117.0,-64.0,127.0,127.0,127.0,-125.0,-89.0,-125.0
127.0,126.0,126.0,126.0,126.0,126.0,127.0,128.0,-1.0,117.0,-64.0,127.0,127.0,127.0,-125.0,-89.0,-125.0
127.0,126.0,126.0,126.0,126.0,126.0,127.0,128.0,-1.0,117.0,-64.0,127.0,127.0,127.0,-125.0,-89.0,-125.0
127.0,126.0,126.0,126.0,126.0,126.0,127.0,128.0,-1.0,117.0,-64.0,127.0,127.0,127.0,-125.0,-89.0,-125.0
127.0,126.0,128.0,127.0,127.0,128.0,127.0,128.0,-1.0,117.0,-64.0,127.0,127.0,127.0,-125.0,-89.0,-125.0
127.0,126.0,127.0,127.0,127.0,127.0,127.0,128.0,-1.0,117.0,-64.0,127.0,127.0,127.0,-125.0,-89.0,-125.0
127.0,126.0,127.0,127.0,127.0,127.0,127.0,128.0,-1.0,117.0,-64.0,127.0,127.0,127.0,-125.0,-89.0,-125.0
127.0,126.0,127.0,127.0,127.0,127.0,127.0,128.0,-1.0,117.0,-64.0,127.0,127.0,127.0,-125.0,-89.0,-125.0
127.0,126.0,127.0,127.0,127.0,127.0,127.0,128.0,-1.0,117.0,-64.0,127.0,127.0,127.0,-125.0,-89.0,-125.0
127.0,126.0,127.0,127.0,127.0,128.0,127.0,128.0,-1.0,117.0,-64.0,127.0,127.0,127.0,-125.0,-89.0,-125.0
127.0,126.0,128.0,127.0,127.0,128.0,127.0,128.0,-1.0,117.0,-64.0,127.0,127.0,127.0,-125.0,-89.0,-125.0
127.0,126.0,127.0,127.0,127.0,128.0,127.0,128.0,-1.0,117.0,-64.0,127.0,127.0,127.0,-125.0,-89.0,-125.0
127.0,126.0,128.0,127.0,127.0,128.0,127.0,128.0,-1.0,117.0,-64.0,127.0,127.0,127.0,-125.0,-89.0,-125.0
127.0,126.0,127.0,127.0,127.0,128.0,127.0,128.0,-1.0,117.0,-64.0,127.0,127.0,127.0,-125.0,-89.0,-125.0
127.0,126.0,127.0,127.0,126.0,127.0,125.0,128.0,-1.0,117.0,-64.0,127.0,127.0,127.0,-125.0,-89.0,-125.0
127.0,126.0,127.0,127.0,126.0,127.0,124.0,128.0,-1.0,117.0,-64.0,127.0,127.0,127.0,-125.0,-89.0,-125.0
127.0,126.0,127.0,127.0,126.0,127.0,124.0,128.0,-1.0,117.0,-64.0,127.0,127.0,127.0,-125.0,-89.0,-125.0
126.0,126.0,127.0,127.0,126.0,127.0,124.0,128.0,-1.0,117.0,-64.0,127.0,127.0,127.0,-125.0,-89.0,-125.0
127.0,126.0,127.0,127.0,125.0,127.0,125.0,128.0,-1.0,117.0,-64.0,127.0,127.0,127.0,-125.0,-89.0,-125.0
127.0,126.0,127.0,127.0,125.0,127.0,125.0,128.0,-1.0,117.0,-64.0,127.0,127.0,127.0,-125.0,-89.0,-125.0
127.0,126.0,127.0,127.0,125.0,127.0,125.0,128.0,-1.0,117.0,-64.0,127.0,127.0,127.0,-125.0,-89.0,-125.0
127.0,126.0,127.0,127.0,125.0,127.0,125.0,128.0,-1.0,117.0,-64.0,127.0,127.0,127.0,-125.0,-89.0,-125.0
127.0,126.0,127.0,127.0,125.0,127.0,125.0,128.0,-1.0,117.0,-64.0,127.0,127.0,127.0,-125.0,-89.0,-125.0
127.0,126.0,127.0,127.0,126.0,127.0,125.0,128.0,-1.0,117.0,-64.0,127.0,127.0,127.0,-125.0,-89.0,-125.0
126.0,126.0,127.0,127.0,128.0,128.0,123.0,129.0,-1.0,117.0,-64.0,127.0,127.0,127.0,-125.0,-89.0,-125.0
126.0,126.0,127.0,127.0,128.0,128.0,123.0,129.0,-1.0,117.0,-64.0,127.0,127.0,127.0,-125.0,-89.0,-125.0
127.0,126.0,127.0,127.0,128.0,127.0,123.0,129.0,-1.0,117.0,-64.0,127.0,127.0,127.0,-125.0,-89.0,-125.0
127.0,127.0,127.0,127.0,127.0,128.0,123.0,129.0,-1.0,117.0,-64.0,127.0,127.0,127.0,-125.0,-89.0,-125.0
126.0,126.0,127.0,127.0,127.0,128.0,123.0,129.0,-1.0,117.0,-64.0,127.0,127.0,127.0,-125.0,-89.0,-125.0
127.0,126.0,127.0,127.0,127.0,128.0,123.0,129.0,-1.0,117.0,-64.0,127.0,127.0,127.0,-125.0,-89.0,-125.0
126.0,126.0,127.0,127.0,127.0,128.0,123.0,129.0,-1.0,117.0,-64.0,127.0,127.0,127.0,-125.0,-89.0,-125.0
126.0,126.0,127.0,127.0,127.0,128.0,123.0,129.0,-1.0,117.0,-64.0,127.0,127.0,127.0,-125.0,-89.0,-125.0
126.0,126.0,127.0,127.0,128.0,128.0,123.0,129.0,-1.0,117.0,-64.0,127.0,127.0,127.0,-125.0,-89.0,-125.0
126.0,126.0,127.0,127.0,128.0,128.0,123.0,129.0,-1.0,117.0,-64.0,127.0,127.0,127.0,-125.0,-89.0,-125.0
127.0,126.0,128.0,127.0,127.0,128.0,123.0,129.0,-1.0,117.0,-64.0,127.0,127.0,127.0,-125.0,-89.0,-125.0
127.0,126.0,128.0,127.0,127.0,128.0,123.0,129.0,-1.0,117.0,-64.0,127.0,127.0,127.0,-125.0,-89.0,-125.0
127.0,126.0,128.0,127.0,127.0,127.0,122.0,129.0,-1.0,117.0,-64.0,127.0,127.0,127.0,-125.0,-89.0,-125.0
127.0,127.0,128.0,127.0,127.0,128.0,122.0,129.0,-1.0,117.0,-64.0,127.0,127.0,127.0,-125.0,-89.0,-125.0
127.0,127.0,128.0,127.0,127.0,128.0,123.0,129.0,-1.0,117.0,-64.0,127.0,127.0,127.0,-125.0,-89.0,-125.0
127.0,126.0,128.0,127.0,127.0,128.0,123.0,129.0,-1.0,117.0,-64.0,127.0,127.0,127.0,-125.0,-89.0,-125.0
127.0,126.0,128.0,127.0,127.0,128.0,123.0,129.0,-1.0,117.0,-64.0,127.0,127.0,127.0,-125.0,-89.0,-125.0
127.0,126.0,128.0,127.0,127.0,128.0,123.0,129.0,-1.0,117.0,-64.0,127.0,127.0,127.0,-125.0,-89.0,-125.0
127.0,126.0,128.0,127.0,127.0,128.0,123.0,129.0,-1.0,117.0,-64.0,127.0,127.0,127.0,-125.0,-89.0,-125.0
127.0,126.0,128.0,127.0,127.0,128.0,123.0,129.0,-1.0,117.0,-64.0,127.0,127.0,127.0,-125.0,-89.0,-125.0
126.0,127.0,126.0,127.0,127.0,122.0,133.0,128.0,-1.0,117.0,-64.0,127.0,127.0,127.0,-125.0,-89.0,-125.0
127.0,127.0,127.0,127.0,127.0,126.0,128.0,128.0,-1.0,117.0,-64.0,127.0,127.0,127.0,-125.0,-89.0,-125.0
127.0,127.0,127.0,127.0,127.0,126.0,128.0,129.0,-1.0,117.0,-64.0,127.0,127.0,127.0,-125.0,-89.0,-125.0
127.0,127.0,127.0,127.0,127.0,126.0,129.0,129.0,-1.0,117.0,-64.0,127.0,127.0,127.0,-125.0,-89.0,-125.0
127.0,127.0,126.0,127.0,127.0,125.0,129.0,129.0,-1.0,117.0,-64.0,127.0,127.0,127.0,-125.0,-89.0,-125.0
126.0,127.0,126.0,127.0,127.0,125.0,130.0,128.0,-1.0,117.0,-64.0,127.0,127.0,127.0,-125.0,-89.0,-125.0
126.0,127.0,126.0,127.0,127.0,124.0,130.0,128.0,-1.0,117.0,-64.0,127.0,127.0,127.0,-125.0,-89.0,-125.0
126.0,127.0,126.0,127.0,127.0,124.0,131.0,129.0,-1.0,117.0,-64.0,127.0,127.0,127.0,-125.0,-89.0,-125.0
126.0,127.0,126.0,127.0,127.0,123.0,132.0,128.0,-1.0,117.0,-64.0,127.0,127.0,127.0,-125.0,-89.0,-125.0
126.0,127.0,126.0,127.0,127.0,123.0,132.0,128.0,-1.0,117.0,-64.0,127.0,127.0,127.0,-125.0,-89.0,-125.0
126.0,132.0,120.0,129.0,116.0,113.0,69.0,122.0,-1.0,117.0,-64.0,127.0,127.0,127.0,-125.0,-89.0,-125.0
126.0,133.0,120.0,130.0,115.0,113.0,63.0,122.0,-1.0,117.0,-64.0,127.0,127.0,127.0,-125.0,-89.0,-125.0
127.0,133.0,120.0,130.0,114.0,112.0,56.0,122.0,-1.0,117.0,-64.0,127.0,127.0,127.0,-125.0,-89.0,-125.0
127.0,133.0,120.0,130.0,113.0,111.0,50.0,121.0,-1.0,117.0,-64.0,127.0,127.0,127.0,-125.0,-89.0,-125.0
127.0,134.0,119.0,130.0,113.0,111.0,43.0,121.0,-1.0,117.0,-64.0,127.0,127.0,127.0,-125.0,-89.0,-125.0
127.0,134.0,119.0,131.0,112.0,110.0,35.0,120.0,-1.0,117.0,-64.0,127.0,127.0,127.0,-125.0,-89.0,-125.0
127.0,134.0,119.0,131.0,111.0,110.0,28.0,120.0,-1.0,117.0,-64.0,127.0,127.0,127.0,-125.0,-89.0,-125.0
127.0,135.0,119.0,131.0,110.0,110.0,20.0,119.0,-1.0,117.0,-64.0,127.0,127.0,127.0,-125.0,-89.0,-125.0
127.0,135.0,118.0,132.0,110.0,110.0,12.0,119.0,-1.0,117.0,-64.0,127.0,127.0,127.0,-125.0,-89.0,-125.0
127.0,135.0,118.0,132.0,109.0,109.0,4.0,118.0,-1.0,117.0,-64.0,127.0,127.0,127.0,-125.0,-89.0,-125.0
127.0,127.0,104.0,137.0,110.0,124.0,0.0,121.0,-1.0,117.0,-63.0,127.0,127.0,127.0,-125.0,-89.0,-125.0
127.0,127.0,104.0,137.0,110.0,122.0,0.0,122.0,-1.0,117.0,-63.0,127.0,127.0,127.0,-125.0,-89.0,-125.0
127.0,127.0,104.0,137.0,110.0,121.0,0.0,122.0,-1.0,117.0,-63.0,127.0,127.0,127.0,-125.0,-89.0,-125.0
127.0,126.0,104.0,137.0,110.0,119.0,0.0,122.0,-1.0,117.0,-63.0,127.0,127.0,127.0,-125.0,-89.0,-125.0
127.0,125.0,104.0,137.0,110.0,117.0,0.0,123.0,-1.0,117.0,-63.0,127.0,127.0,127.0,-125.0,-89.0,-125.0
127.0,125.0,104.0,137.0,110.0,114.0,0.0,123.0,-1.0,117.0,-63.0,127.0,127.0,127.0,-125.0,-89.0,-125.0
127.0,124.0,104.0,137.0,111.0,112.0,0.0,123.0,-1.0,117.0,-63.0,127.0,127.0,127.0,-125.0,-89.0,-125.0
127.0,123.0,104.0,137.0,111.0,110.0,0.0,123.0,-1.0,117.0,-63.0,127.0,127.0,127.0,-125.0,-89.0,-125.0
127.0,123.0,104.0,137.0,111.0,109.0,0.0,124.0,-1.0,117.0,-63.0,127.0,127.0,127.0,-125.0,-89.0,-125.0
127.0,127.0,104.0,137.0,110.0,124.0,0.0,121.0,-1.0,117.0,-63.0,127.0,127.0,127.0,-125.0,-89.0,-125.0
126.0,78.0,111.0,153.0,109.0,44.0,163.0,111.0,-1.0,118.0,-62.0,126.0,127.0,127.0,-125.0,-89.0,-125.0
126.0,77.0,110.0,153.0,108.0,43.0,167.0,110.0,-1.0,118.0,-62.0,126.0,127.0,127.0,-125.0,-89.0,-125.0
127.0,76.0,110.0,154.0,108.0,42.0,170.0,110.0,-1.0,118.0,-62.0,126.0,127.0,127.0,-125.0,-89.0,-125.0
127.0,75.0,110.0,155.0,107.0,41.0,173.0,109.0,-1.0,118.0,-62.0,126.0,127.0,127.0,-125.0,-89.0,-125.0
127.0,73.0,109.0,156.0,107.0,39.0,176.0,107.0,-1.0,118.0,-62.0,126.0,127.0,127.0,-125.0,-89.0,-125.0
127.0,72.0,109.0,157.0,106.0,38.0,179.0,106.0,-1.0,118.0,-62.0,126.0,127.0,127.0,-125.0,-89.0,-125.0
127.0,70.0,108.0,157.0,106.0,37.0,181.0,105.0,-1.0,118.0,-62.0,126.0,127.0,127.0,-125.0,-89.0,-125.0
127.0,69.0,107.0,158.0,105.0,35.0,184.0,103.0,-1.0,118.0,-62.0,126.0,127.0,127.0,-125.0,-89.0,-125.0
126.0,81.0,111.0,151.0,109.0,46.0,156.0,112.0,-1.0,118.0,-62.0,126.0,127.0,127.0,-125.0,-89.0,-125.0
126.0,79.0,111.0,152.0,109.0,45.0,159.0,112.0,-1.0,118.0,-62.0,126.0,127.0,127.0,-125.0,-89.0,-125.0
127.0,88.0,101.0,162.0,105.0,0.0,240.0,89.0,-1.0,121.0,-64.0,126.0,127.0,127.0,-125.0,-89.0,-125.0
127.0,89.0,101.0,162.0,105.0,0.0,244.0,90.0,-1.0,121.0,-64.0,126.0,127.0,127.0,-125.0,-89.0,-125.0
127.0,91.0,101.0,163.0,106.0,0.0,248.0,91.0,-1.0,121.0,-64.0,126.0,127.0,127.0,-125.0,-89.0,-125.0
127.0,93.0,101.0,163.0,106.0,0.0,252.0,92.0,-1.0,121.0,-64.0,126.0,127.0,127.0,-125.0,-89.0,-125.0
127.0,94.0,101.0,164.0,106.0,0.0,254.0,93.0,-1.0,121.0,-64.0,126.0,127.0,127.0,-125.0,-89.0,-125.0
127.0,96.0,101.0,165.0,107.0,0.0,254.0,94.0,-1.0,121.0,-64.0,126.0,127.0,127.0,-125.0,-89.0,-125.0
127.0,98.0,102.0,165.0,107.0,0.0,254.0,95.0,-1.0,121.0,-64.0,126.0,127.0,127.0,-125.0,-89.0,-125.0
127.0,83.0,101.0,162.0,103.0,0.0,230.0,86.0,-1.0,121.0,-64.0,126.0,127.0,127.0,-125.0,-89.0,-125.0
127.0,84.0,101.0,162.0,104.0,0.0,233.0,87.0,-1.0,121.0,-64.0,126.0,127.0,127.0,-125.0,-89.0,-125.0
127.0,86.0,101.0,162.0,105.0,0.0,237.0,88.0,-1.0,121.0,-64.0,126.0,127.0,127.0,-125.0,-89.0,-125.0
127.0,115.0,127.0,254.0,120.0,0.0,254.0,94.0,-1.0,119.0,-64.0,125.0,127.0,127.0,-125.0,-89.0,-125.0
127.0,114.0,127.0,254.0,120.0,0.0,254.0,92.0,-1.0,119.0,-64.0,125.0,127.0,127.0,-125.0,-89.0,-125.0
127.0,113.0,127.0,254.0,119.0,0.0,254.0,90.0,-1.0,119.0,-64.0,125.0,127.0,127.0,-125.0,-89.0,-125.0
127.0,112.0,127.0,254.0,118.0,0.0,254.0,88.0,-1.0,119.0,-64.0,125.0,127.0,127.0,-125.0,-89.0,-125.0
127.0,111.0,127.0,254.0,118.0,0.0,254.0,86.0,-1.0,119.0,-64.0,125.0,127.0,127.0,-125.0,-89.0,-125.0
127.0,110.0,127.0,254.0,117.0,0.0,254.0,84.0,-1.0,119.0,-64.0,125.0,127.0,127.0,-125.0,-89.0,-125.0
127.0,118.0,126.0,254.0,121.0,0.0,254.0,101.0,-1.0,119.0,-64.0,125.0,127.0,127.0,-125.0,-89.0,-125.0
127.0,117.0,126.0,254.0,121.0,0.0,254.0,99.0,-1.0,119.0,-64.0,125.0,127.0,127.0,-125.0,-89.0,-125.0
126.0,116.0,126.0,254.0,121.0,0.0,254.0,97.0,-1.0,119.0,-64.0,125.0,127.0,127.0,-125.0,-89.0,-125.0
127.0,116.0,127.0,254.0,120.0,0.0,254.0,95.0,-1.0,119.0,-64.0,125.0,127.0,127.0,-125.0,-89.0,-125.0
127.0,112.0,110.0,254.0,101.0,0.0,254.0,33.0,-1.0,117.0,-62.0,125.0,127.0,127.0,-125.0,-89.0,-125.0
127.0,114.0,110.0,254.0,103.0,0.0,254.0,34.0,-1.0,117.0,-62.0,125.0,127.0,127.0,-125.0,-89.0,-125.0
127.0,116.0,110.0,254.0,104.0,0.0,254.0,34.0,-1.0,117.0,-62.0,125.0,127.0,127.0,-125.0,-89.0,-125.0
127.0,117.0,110.0,254.0,105.0,0.0,254.0,35.0,-1.0,117.0,-62.0,125.0,127.0,127.0,-125.0,-89.0,-125.0
127.0,119.0,111.0,254.0,106.0,0.0,254.0,36.0,-1.0,117.0,-62.0,125.0,127.0,127.0,-125.0,-89.0,-125.0
127.0,103.0,112.0,254.0,98.0,0.0,254.0,33.0,-1.0,117.0,-62.0,125.0,127.0,127.0,-125.0,-89.0,-125.0
127.0,105.0,112.0,254.0,98.0,0.0,254.0,32.0,-1.0,117.0,-62.0,125.0,127.0,127.0,-125.0,-89.0,-125.0
127.0,107.0,111.0,254.0,99.0,0.0,254.0,32.0,-1.0,117.0,-62.0,125.0,127.0,127.0,-125.0,-89.0,-125.0
127.0,109.0,111.0,254.0,100.0,0.0,254.0,32.0,-1.0,117.0,-62.0,125.0,127.0,127.0,-125.0,-89.0,-125.0
127.0,110.0,111.0,254.0,100.0,0.0,254.0,33.0,-1.0,117.0,-62.0,125.0,127.0,127.0,-125.0,-89.0,-125.0
126.0,132.0,156.0,254.0,166.0,0.0,227.0,112.0,-1.0,112.0,-62.0,125.0,127.0,127.0,-125.0,-89.0,-125.0
126.0,131.0,156.0,253.0,166.0,0.0,222.0,113.0,-1.0,112.0,-62.0,125.0,127.0,127.0,-125.0,-89.0,-125.0
126.0,130.0,156.0,252.0,167.0,0.0,216.0,114.0,-1.0,112.0,-62.0,125.0,127.0,127.0,-125.0,-89.0,-125.0
126.0,129.0,156.0,250.0,167.0,0.0,209.0,115.0,-1.0,112.0,-62.0,125.0,127.0,127.0,-125.0,-89.0,-125.0
127.0,136.0,153.0,254.0,162.0,0.0,252.0,105.0,-1.0,112.0,-62.0,125.0,127.0,127.0,-125.0,-89.0,-125.0
127.0,136.0,153.0,254.0,163.0,0.0,249.0,106.0,-1.0,112.0,-62.0,125.0,127.0,127.0,-125.0,-89.0,-125.0
127.0,135.0,154.0,254.0,164.0,0.0,246.0,107.0,-1.0,112.0,-62.0,125.0,127.0,127.0,-125.0,-89.0,-125.0
127.0,135.0,155.0,254.0,164.0,0.0,242.0,108.0,-1.0,112.0,-62.0,125.0,127.0,127.0,-125.0,-89.0,-125.0
127.0,134.0,155.0,254.0,165.0,0.0,238.0,109.0,-1.0,112.0,-62.0,125.0,127.0,127.0,-125.0,-89.0,-125.0
126.0,133.0,155.0,254.0,166.0,0.0,233.0,110.0,-1.0,112.0,-62.0,125.0,127.0,127.0,-125.0,-89.0,-125.0
127.0,104.0,136.0,158.0,149.0,0.0,77.0,120.0,-1.0,107.0,-64.0,-128.0,127.0,127.0,-125.0,-89.0,-125.0
127.0,103.0,135.0,157.0,149.0,0.0,80.0,120.0,-1.0,107.0,-64.0,-128.0,127.0,127.0,-125.0,-89.0,-125.0
127.0,103.0,135.0,156.0,148.0,0.0,83.0,119.0,-1.0,107.0,-64.0,-128.0,127.0,127.0,-125.0,-89.0,-125.0
127.0,104.0,137.0,166.0,155.0,0.0,61.0,124.0,-1.0,107.0,-64.0,-128.0,127.0,127.0,-125.0,-89.0,-125.0
127.0,104.0,137.0,164.0,154.0,0.0,63.0,124.0,-1.0,107.0,-64.0,-128.0,127.0,127.0,-125.0,-89.0,-125.0
127.0,104.0,137.0,164.0,153.0,0.0,65.0,124.0,-1.0,107.0,-64.0,-128.0,127.0,127.0,-125.0,-89.0,-125.0
127.0,104.0,136.0,162.0,152.0,0.0,67.0,123.0,-1.0,107.0,-64.0,-128.0,127.0,127.0,-125.0,-89.0,-125.0
127.0,104.0,136.0,161.0,151.0,0.0,69.0,122.0,-1.0,107.0,-64.0,-128.0,127.0,127.0,-125.0,-89.0,-125.0
127.0,104.0,136.0,160.0,151.0,0.0,72.0,122.0,-1.0,107.0,-64.0,-128.0,127.0,127.0,-125.0,-89.0,-125.0
127.0,104.0,136.0,159.0,150.0,0.0,74.0,121.0,-1.0,107.0,-64.0,-128.0,127.0,127.0,-125.0,-89.0,-125.0
127.0,107.0,133.0,135.0,123.0,0.0,200.0,113.0,-1.0,111.0,-66.0,-128.0,127.0,127.0,-125.0,-89.0,-125.0
127.0,108.0,133.0,134.0,123.0,0.0,200.0,113.0,-1.0,111.0,-66.0,-128.0,127.0,127.0,-125.0,-89.0,-125.0
127.0,101.0,132.0,136.0,123.0,0.0,199.0,112.0,-1.0,111.0,-66.0,-128.0,127.0,127.0,-125.0,-89.0,-125.0
127.0,102.0,132.0,136.0,123.0,0.0,199.0,112.0,-1.0,111.0,-66.0,-128.0,127.0,127.0,-125.0,-89.0,-125.0
127.0,103.0,132.0,136.0,123.0,0.0,200.0,113.0,-1.0,111.0,-66.0,-128.0,127.0,127.0,-125.0,-89.0,-125.0
127.0,104.0,132.0,136.0,123.0,0.0,200.0,113.0,-1.0,111.0,-66.0,-128.0,127.0,127.0,-125.0,-89.0,-125.0
127.0,104.0,132.0,135.0,123.0,0.0,200.0,113.0,-1.0,111.0,-66.0,-128.0,127.0,127.0,-125.0,-89.0,-125.0
127.0,105.0,132.0,135.0,123.0,0.0,201.0,113.0,-1.0,111.0,-66.0,-128.0,127.0,127.0,-125.0,-89.0,-125.0
127.0,106.0,132.0,135.0,123.0,0.0,201.0,113.0,-1.0,111.0,-66.0,-128.0,127.0,127.0,-125.0,-89.0,-125.0
127.0,107.0,133.0,135.0,123.0,0.0,201.0,113.0,-1.0,111.0,-66.0,-128.0,127.0,127.0,-125.0,-89.0,-125.0
127.0,126.0,136.0,130.0,131.0,0.0,148.0,111.0,-1.0,118.0,-66.0,126.0,127.0,127.0,-125.0,-89.0,-125.0
127.0,128.0,135.0,131.0,128.0,0.0,165.0,110.0,-1.0,118.0,-66.0,126.0,127.0,127.0,-125.0,-89.0,-125.0
127.0,128.0,135.0,130.0,128.0,0.0,163.0,110.0,-1.0,118.0,-66.0,126.0,127.0,127.0,-125.0,-89.0,-125.0
126.0,128.0,135.0,131.0,129.0,0.0,162.0,110.0,-1.0,118.0,-66.0,126.0,127.0,127.0,-125.0,-89.0,-125.0
127.0,128.0,135.0,131.0,129.0,0.0,160.0,110.0,-1.0,118.0,-66.0,126.0,127.0,127.0,-125.0,-89.0,-125.0
127.0,127.0,135.0,131.0,129.0,0.0,158.0,110.0,-1.0,118.0,-66.0,126.0,127.0,127.0,-125.0,-89.0,-125.0
127.0,127.0,136.0,131.0,130.0,0.0,156.0,111.0,-1.0,118.0,-66.0,126.0,127.0,127.0,-125.0,-89.0,-125.0
127.0,127.0,136.0,131.0,130.0,0.0,154.0,111.0,-1.0,118.0,-66.0,126.0,127.0,127.0,-125.0,-89.0,-125.0
127.0,127.0,136.0,130.0,131.0,0.0,152.0,111.0,-1.0,118.0,-66.0,126.0,127.0,127.0,-125.0,-89.0,-125.0
127.0,127.0,136.0,130.0,131.0,0.0,150.0,111.0,-1.0,118.0,-66.0,126.0,127.0,127.0,-125.0,-89.0,-125.0
126.0,120.0,147.0,129.0,143.0,0.0,79.0,125.0,-1.0,118.0,-64.0,125.0,127.0,127.0,-125.0,-89.0,-125.0
126.0,120.0,148.0,129.0,143.0,0.0,77.0,125.0,-1.0,118.0,-64.0,125.0,127.0,127.0,-125.0,-89.0,-125.0
126.0,120.0,148.0,129.0,144.0,0.0,76.0,126.0,-1.0,118.0,-64.0,125.0,127.0,127.0,-125.0,-89.0,-125.0
126.0,120.0,148.0,129.0,144.0,0.0,74.0,126.0,-1.0,118.0,-64.0,125.0,127.0,127.0,-125.0,-89.0,-125.0
126.0,120.0,148.0,129.0,144.0,0.0,72.0,127.0,-1.0,118.0,-64.0,125.0,127.0,127.0,-125.0,-89.0,-125.0
126.0,120.0,149.0,129.0,144.0,0.0,70.0,128.0,-1.0,118.0,-64.0,125.0,127.0,127.0,-125.0,-89.0,-125.0
127.0,120.0,149.0,129.0,144.0,0.0,69.0,128.0,-1.0,118.0,-64.0,125.0,127.0,127.0,-125.0,-89.0,-125.0
127.0,120.0,149.0,129.0,144.0,0.0,67.0,129.0,-1.0,118.0,-64.0,125.0,127.0,127.0,-125.0,-89.0,-125.0
127.0,120.0,149.0,129.0,145.0,0.0,65.0,129.0,-1.0,118.0,-64.0,125.0,127.0,127.0,-125.0,-89.0,-125.0
127.0,120.0,149.0,129.0,145.0,0.0,63.0,129.0,-1.0,118.0,-64.0,125.0,127.0,127.0,-125.0,-89.0,-125.0
127.0,123.0,145.0,129.0,141.0,0.0,26.0,135.0,-1.0,115.0,-61.0,126.0,127.0,127.0,-125.0,-89.0,-125.0
127.0,123.0,144.0,129.0,141.0,0.0,26.0,135.0,-1.0,115.0,-61.0,126.0,127.0,127.0,-125.0,-89.0,-125.0
127.0,123.0,144.0,129.0,141.0,0.0,26.0,135.0,-1.0,115.0,-61.0,126.0,127.0,127.0,-125.0,-89.0,-125.0
127.0,123.0,144.0,129.0,141.0,0.0,26.0,135.0,-1.0,115.0,-61.0,126.0,127.0,127.0,-125.0,-89.0,-125.0
127.0,123.0,144.0,129.0,141.0,0.0,26.0,135.0,-1.0,115.0,-61.0,126.0,127.0,127.0,-125.0,-89.0,-125.0
127.0,123.0,143.0,129.0,141.0,0.0,26.0,135.0,-1.0,115.0,-61.0,126.0,127.0,127.0,-125.0,-89.0,-125.0
127.0,123.0,143.0,129.0,141.0,0.0,26.0,135.0,-1.0,115.0,-61.0,126.0,127.0,127.0,-125.0,-89.0,-125.0
127.0,123.0,143.0,129.0,141.0,0.0,27.0,135.0,-1.0,115.0,-61.0,126.0,127.0,127.0,-125.0,-89.0,-125.0
127.0,123.0,143.0,129.0,141.0,0.0,27.0,135.0,-1.0,115.0,-61.0,126.0,127.0,127.0,-125.0,-89.0,-125.0
127.0,123.0,145.0,129.0,141.0,0.0,26.0,135.0,-1.0,115.0,-61.0,126.0,127.0,127.0,-125.0,-89.0,-125.0
127.0,109.0,128.0,128.0,133.0,0.0,62.0,128.0,-1.0,113.0,-62.0,127.0,127.0,127.0,-125.0,-89.0,-125.0
127.0,108.0,128.0,128.0,134.0,0.0,64.0,128.0,-1.0,113.0,-62.0,127.0,127.0,127.0,-125.0,-89.0,-125.0
127.0,108.0,127.0,128.0,134.0,0.0,65.0,128.0,-1.0,113.0,-62.0,127.0,127.0,127.0,-125.0,-89.0,-125.0
127.0,108.0,127.0,128.0,134.0,0.0,67.0,128.0,-1.0,113.0,-62.0,127.0,127.0,127.0,-125.0,-89.0,-125.0
127.0,107.0,127.0,128.0,134.0,0.0,69.0,128.0,-1.0,113.0,-62.0,127.0,127.0,127.0,-125.0,-89.0,-125.0
127.0,107.0,127.0,128.0,133.0,0.0,71.0,128.0,-1.0,113.0,-62.0,127.0,127.0,127.0,-125.0,-89.0,-125.0
127.0,107.0,127.0,128.0,133.0,0.0,72.0,128.0,-1.0,113.0,-62.0,127.0,127.0,127.0,-125.0,-89.0,-125.0
127.0,107.0,126.0,128.0,133.0,0.0,74.0,128.0,-1.0,113.0,-62.0,127.0,127.0,127.0,-125.0,-89.0,-125.0
127.0,109.0,128.0,129.0,134.0,0.0,59.0,128.0,-1.0,113.0,-62.0,127.0,127.0,127.0,-125.0,-89.0,-125.0
127.0,109.0,128.0,128.0,133.0,0.0,61.0,128.0,-1.0,113.0,-62.0,127.0,127.0,127.0,-125.0,-89.0,-125.0
127.0,115.0,121.0,128.0,125.0,33.0,145.0,128.0,-1.0,116.0,-63.0,127.0,127.0,127.0,-125.0,-89.0,-125.0
127.0,115.0,121.0,128.0,125.0,34.0,146.0,129.0,-1.0,116.0,-63.0,127.0,127.0,127.0,-125.0,-89.0,-125.0
127.0,116.0,121.0,128.0,125.0,36.0,147.0,129.0,-1.0,116.0,-63.0,127.0,127.0,127.0,-125.0,-89.0,-125.0
127.0,116.0,121.0,128.0,125.0,37.0,147.0,129.0,-1.0,116.0,-63.0,127.0,127.0,127.0,-125.0,-89.0,-125.0
127.0,116.0,121.0,128.0,125.0,38.0,148.0,129.0,-1.0,116.0,-63.0,127.0,127.0,127.0,-125.0,-89.0,-125.0
126.0,116.0,121.0,128.0,125.0,38.0,148.0,129.0,-1.0,116.0,-63.0,127.0,127.0,127.0,-125.0,-89.0,-125.0
126.0,117.0,122.0,128.0,125.0,39.0,148.0,129.0,-1.0,116.0,-63.0,127.0,127.0,127.0,-125.0,-89.0,-125.0
127.0,114.0,121.0,129.0,125.0,28.0,143.0,128.0,-1.0,116.0,-63.0,127.0,127.0,127.0,-125.0,-89.0,-125.0
127.0,114.0,121.0,129.0,125.0,30.0,144.0,128.0,-1.0,116.0,-63.0,127.0,127.0,127.0,-125.0,-89.0,-125.0
127.0,114.0,121.0,129.0,125.0,32.0,145.0,128.0,-1.0,116.0,-63.0,127.0,127.0,127.0,-125.0,-89.0,-125.0
127.0,124.0,130.0,128.0,131.0,88.0,126.0,128.0,-1.0,117.0,-65.0,126.0,127.0,127.0,-125.0,-89.0,-125.0
127.0,124.0,130.0,128.0,131.0,88.0,126.0,128.0,-1.0,117.0,-65.0,126.0,127.0,127.0,-125.0,-89.0,-125.0
127.0,124.0,131.0,128.0,132.0,88.0,125.0,128.0,-1.0,117.0,-65.0,126.0,127.0,127.0,-125.0,-89.0,-125.0
127.0,124.0,131.0,128.0,132.0,88.0,124.0,128.0,-1.0,117.0,-65.0,126.0,127.0,127.0,-125.0,-89.0,-125.0
127.0,124.0,131.0,128.0,132.0,88.0,124.0,128.0,-1.0,117.0,-65.0,126.0,127.0,127.0,-125.0,-89.0,-125.0
127.0,124.0,131.0,128.0,132.0,87.0,123.0,128.0,-1.0,117.0,-65.0,126.0,127.0,127.0,-125.0,-89.0,-125.0
127.0,125.0,129.0,128.0,130.0,87.0,129.0,127.0,-1.0,117.0,-65.0,126.0,127.0,127.0,-125.0,-89.0,-125.0
127.0,125.0,130.0,128.0,131.0,88.0,128.0,128.0,-1.0,117.0,-65.0,126.0,127.0,127.0,-125.0,-89.0,-125.0
127.0,124.0,130.0,128.0,131.0,88.0,128.0,128.0,-1.0,117.0,-65.0,126.0,127.0,127.0,-125.0,-89.0,-125.0
127.0,124.0,130.0,128.0,131.0,88.0,127.0,128.0,-1.0,117.0,-65.0,126.0,127.0,127.0,-125.0,-89.0,-125.0
127.0,123.0,134.0,128.0,133.0,87.0,86.0,132.0,-1.0,115.0,-64.0,126.0,127.0,127.0,-125.0,-89.0,-125.0
127.0,123.0,134.0,128.0,133.0,87.0,85.0,132.0,-1.0,115.0,-64.0,126.0,127.0,127.0,-125.0,-89.0,-125.0
127.0,124.0,134.0,128.0,133.0,87.0,85.0,132.0,-1.0,115.0,-64.0,126.0,127.0,127.0,-125.0,-89.0,-125.0
127.0,124.0,134.0,128.0,133.0,87.0,84.0,132.0,-1.0,115.0,-64.0,126.0,127.0,127.0,-125.0,-89.0,-125.0
127.0,124.0,135.0,128.0,133.0,86.0,84.0,132.0,-1.0,115.0,-64.0,126.0,127.0,127.0,-125.0,-89.0,-125.0
127.0,123.0,134.0,128.0,133.0,86.0,88.0,132.0,-1.0,115.0,-64.0,126.0,127.0,127.0,-125.0,-89.0,-125.0
127.0,123.0,134.0,128.0,133.0,86.0,88.0,132.0,-1.0,115.0,-64.0,126.0,127.0,127.0,-125.0,-89.0,-125.0
127.0,123.0,134.0,128.0,133.0,86.0,87.0,132.0,-1.0,115.0,-64.0,126.0,127.0,127.0,-125.0,-89.0,-125.0
127.0,123.0,134.0,128.0,133.0,86.0,87.0,132.0,-1.0,115.0,-64.0,126.0,127.0,127.0,-125.0,-89.0,-125.0
127.0,123.0,134.0,128.0,133.0,87.0,86.0,132.0,-1.0,115.0,-64.0,126.0,127.0,127.0,-125.0,-89.0,-125.0
127.0,125.0,128.0,128.0,129.0,98.0,91.0,130.0,-1.0,113.0,-62.0,127.0,127.0,127.0,-125.0,-89.0,-125.0
127.0,125.0,128.0,128.0,129.0,99.0,92.0,130.0,-1.0,113.0,-62.0,127.0,127.0,127.0,-125.0,-89.0,-125.0
127.0,125.0,128.0,128.0,129.0,100.0,92.0,130.0,-1.0,113.0,-62.0,127.0,127.0,127.0,-125.0,-89.0,-125.0
127.0,125.0,128.0,128.0,129.0,101.0,92.0,130.0,-1.0,113.0,-62.0,127.0,127.0,127.0,-125.0,-89.0,-125.0
127.0,126.0,129.0,128.0,129.0,93.0,89.0,130.0,-1.0,113.0,-62.0,127.0,127.0,127.0,-125.0,-89.0,-125.0
127.0,126.0,129.0,128.0,129.0,94.0,90.0,130.0,-1.0,113.0,-62.0,127.0,127.0,127.0,-125.0,-89.0,-125.0
127.0,126.0,129.0,128.0,129.0,95.0,90.0,130.0,-1.0,113.0,-62.0,127.0,127.0,127.0,-125.0,-89.0,-125.0
127.0,126.0,129.0,128.0,129.0,96.0,90.0,130.0,-1.0,113.0,-62.0,127.0,127.0,127.0,-125.0,-89.0,-125.0
127.0,126.0,129.0,128.0,129.0,97.0,91.0,130.0,-1.0,113.0,-62.0,127.0,127.0,127.0,-125.0,-89.0,-125.0
127.0,125.0,128.0,128.0,129.0,98.0,91.0,130.0,-1.0,113.0,-62.0,127.0,127.0,127.0,-125.0,-89.0,-125.0
127.0,119.0,121.0,128.0,124.0,163.0,145.0,126.0,-1.0,114.0,-62.0,127.0,127.0,127.0,-125.0,-89.0,-125.0
127.0,119.0,121.0,128.0,124.0,163.0,145.0,126.0,-1.0,114.0,-62.0,127.0,127.0,127.0,-125.0,-89.0,-125.0
127.0,119.0,121.0,128.0,124.0,164.0,146.0,126.0,-1.0,114.0,-62.0,127.0,127.0,127.0,-125.0,-89.0,-125.0
127.0,120.0,121.0,128.0,125.0,158.0,141.0,126.0,-1.0,114.0,-62.0,127.0,127.0,127.0,-125.0,-89.0,-125.0
127.0,120.0,121.0,128.0,125.0,159.0,142.0,127.0,-1.0,114.0,-62.0,127.0,127.0,127.0,-125.0,-89.0,-125.0
127.0,120.0,121.0,128.0,125.0,160.0,143.0,127.0,-1.0,114.0,-62.0,127.0,127.0,127.0,-125.0,-89.0,-125.0
127.0,119.0,121.0,128.0,125.0,161.0,143.0,126.0,-1.0,114.0,-62.0,127.0,127.0,127.0,-125.0,-89.0,-125.0
127.0,119.0,121.0,128.0,125.0,161.0,144.0,126.0,-1.0,114.0,-62.0,127.0,127.0,127.0,-125.0,-89.0,-125.0
127.0,119.0,121.0,128.0,125.0,162.0,144.0,126.0,-1.0,114.0,-62.0,127.0,127.0,127.0,-125.0,-89.0,-125.0
127.0,119.0,121.0,128.0,125.0,163.0,145.0,126.0,-1.0,114.0,-62.0,127.0,127.0,127.0,-125.0,-89.0,-125.0
127.0,123.0,126.0,128.0,126.0,166.0,91.0,125.0,-1.0,117.0,-63.0,126.0,127.0,127.0,-125.0,-89.0,-125.0
127.0,123.0,126.0,128.0,126.0,166.0,90.0,125.0,-1.0,117.0,-63.0,126.0,127.0,127.0,-125.0,-89.0,-125.0
127.0,121.0,124.0,128.0,126.0,167.0,99.0,124.0,-1.0,117.0,-63.0,126.0,127.0,127.0,-125.0,-89.0,-125.0
127.0,121.0,125.0,128.0,126.0,167.0,98.0,124.0,-1.0,117.0,-63.0,126.0,127.0,127.0,-125.0,-89.0,-125.0
127.0,122.0,125.0,128.0,126.0,167.0,96.0,124.0,-1.0,117.0,-63.0,126.0,127.0,127.0,-125.0,-89.0,-125.0
127.0,122.0,125.0,128.0,126.0,167.0,95.0,124.0,-1.0,117.0,-63.0,126.0,127.0,127.0,-125.0,-89.0,-125.0
127.0,122.0,125.0,128.0,126.0,168.0,95.0,125.0,-1.0,117.0,-63.0,126.0,127.0,127.0,-125.0,-89.0,-125.0
127.0,122.0,125.0,128.0,126.0,167.0,94.0,125.0,-1.0,117.0,-63.0,126.0,127.0,127.0,-125.0,-89.0,-125.0
127.0,123.0,125.0,128.0,126.0,167.0,93.0,125.0,-1.0,117.0,-63.0,126.0,127.0,127.0,-125.0,-89.0,-125.0
127.0,123.0,126.0,128.0,126.0,167.0,92.0,125.0,-1.0,117.0,-63.0,126.0,127.0,127.0,-125.0,-89.0,-125.0
127.0,123.0,130.0,127.0,130.0,159.0,89.0,130.0,-1.0,118.0,-64.0,126.0,127.0,127.0,-125.0,-89.0,-125.0
126.0,124.0,130.0,128.0,129.0,161.0,88.0,129.0,-1.0,118.0,-64.0,126.0,127.0,127.0,-125.0,-89.0,-125.0
127.0,124.0,130.0,128.0,129.0,161.0,88.0,129.0,-1.0,118.0,-64.0,126.0,127.0,127.0,-125.0,-89.0,-125.0
127.0,124.0,130.0,128.0,129.0,161.0,88.0,129.0,-1.0,118.0,-64.0,126.0,127.0,127.0,-125.0,-89.0,-125.0
127.0,124.0,130.0,128.0,130.0,161.0,88.0,129.0,-1.0,118.0,-64.0,126.0,127.0,127.0,-125.0,-89.0,-125.0
127.0,124.0,130.0,128.0,130.0,160.0,88.0,129.0,-1.0,118.0,-64.0,126.0,127.0,127.0,-125.0,-89.0,-125.0
127.0,123.0,130.0,128.0,130.0,160.0,89.0,129.0,-1.0,118.0,-64.0,126.0,127.0,127.0,-125.0,-89.0,-125.0
127.0,123.0,130.0,128.0,130.0,160.0,89.0,129.0,-1.0,118.0,-64.0,126.0,127.0,127.0,-125.0,-89.0,-125.0
127.0,123.0,130.0,128.0,130.0,160.0,89.0,130.0,-1.0,118.0,-64.0,126.0,127.0,127.0,-125.0,-89.0,-125.0
127.0,123.0,130.0,128.0,130.0,159.0,89.0,130.0,-1.0,118.0,-64.0,126.0,127.0,127.0,-125.0,-89.0,-125.0
127.0,126.0,131.0,128.0,130.0,161.0,87.0,132.0,-1.0,116.0,-64.0,127.0,127.0,127.0,-125.0,-89.0,-125.0
127.0,126.0,131.0,128.0,130.0,162.0,87.0,132.0,-1.0,116.0,-64.0,127.0,127.0,127.0,-125.0,-89.0,-125.0
127.0,126.0,131.0,128.0,131.0,162.0,87.0,132.0,-1.0,116.0,-64.0,127.0,127.0,127.0,-125.0,-89.0,-125.0
127.0,126.0,131.0,128.0,131.0,162.0,87.0,132.0,-1.0,116.0,-64.0,127.0,127.0,127.0,-125.0,-89.0,-125.0
127.0,126.0,131.0,128.0,131.0,163.0,87.0,132.0,-1.0,116.0,-64.0,127.0,127.0,127.0,-125.0,-89.0,-125.0
127.0,126.0,130.0,128.0,131.0,163.0,87.0,132.0,-1.0,116.0,-64.0,127.0,127.0,127.0,-125.0,-89.0,-125.0
127.0,126.0,130.0,128.0,132.0,163.0,87.0,132.0,-1.0,116.0,-64.0,127.0,127.0,127.0,-125.0,-89.0,-125.0
127.0,126.0,130.0,128.0,132.0,164.0,87.0,132.0,-1.0,116.0,-64.0,127.0,127.0,127.0,-125.0,-89.0,-125.0
127.0,126.0,130.0,128.0,132.0,164.0,87.0,133.0,-1.0,116.0,-64.0,127.0,127.0,127.0,-125.0,-89.0,-125.0
127.0,126.0,130.0,128.0,132.0,165.0,87.0,133.0,-1.0,116.0,-64.0,127.0,127.0,127.0,-125.0,-89.0,-125.0
126.0,126.0,130.0,128.0,129.0,204.0,95.0,135.0,-1.0,115.0,-64.0,127.0,127.0,127.0,-125.0,-89.0,-125.0
127.0,126.0,130.0,128.0,129.0,205.0,95.0,135.0,-1.0,115.0,-64.0,127.0,127.0,127.0,-125.0,-89.0,-125.0
126.0,126.0,130.0,128.0,129.0,206.0,95.0,135.0,-1.0,115.0,-64.0,127.0,127.0,127.0,-125.0,-89.0,-125.0
126.0,126.0,130.0,128.0,129.0,206.0,94.0,135.0,-1.0,115.0,-64.0,127.0,127.0,127.0,-125.0,-89.0,-125.0
127.0,126.0,130.0,128.0,129.0,207.0,94.0,135.0,-1.0,115.0,-64.0,127.0,127.0,127.0,-125.0,-89.0,-125.0
127.0,126.0,130.0,128.0,129.0,208.0,94.0,135.0,-1.0,115.0,-64.0,127.0,127.0,127.0,-125.0,-89.0,-125.0
127.0,126.0,130.0,128.0,128.0,208.0,94.0,135.0,-1.0,115.0,-64.0,127.0,127.0,127.0,-125.0,-89.0,-125.0
127.0,126.0,130.0,128.0,128.0,208.0,94.0,135.0,-1.0,115.0,-64.0,127.0,127.0,127.0,-125.0,-89.0,-125.0
127.0,126.0,130.0,128.0,128.0,208.0,94.0,135.0,-1.0,115.0,-64.0,127.0,127.0,127.0,-125.0,-89.0,-125.0
126.0,126.0,130.0,128.0,129.0,203.0,95.0,135.0,-1.0,115.0,-64.0,127.0,127.0,127.0,-125.0,-89.0,-125.0
127.0,130.0,128.0,128.0,126.0,185.0,96.0,132.0,-1.0,116.0,-64.0,127.0,127.0,127.0,-125.0,-89.0,-125.0
127.0,130.0,128.0,128.0,127.0,184.0,97.0,132.0,-1.0,116.0,-64.0,127.0,127.0,127.0,-125.0,-89.0,-125.0
127.0,130.0,128.0,128.0,127.0,183.0,98.0,132.0,-1.0,116.0,-64.0,127.0,127.0,127.0,-125.0,-89.0,-125.0
127.0,131.0,128.0,127.0,127.0,182.0,98.0,132.0,-1.0,116.0,-64.0,127.0,127.0,127.0,-125.0,-89.0,-125.0
127.0,131.0,128.0,127.0,127.0,181.0,99.0,132.0,-1.0,116.0,-64.0,127.0,127.0,127.0,-125.0,-89.0,-125.0
127.0,130.0,128.0,127.0,127.0,180.0,99.0,132.0,-1.0,116.0,-64.0,127.0,127.0,127.0,-125.0,-89.0,-125.0
127.0,130.0,128.0,127.0,127.0,179.0,100.0,132.0,-1.0,116.0,-64.0,127.0,127.0,127.0,-125.0,-89.0,-125.0
127.0,131.0,128.0,127.0,127.0,178.0,100.0,132.0,-1.0,116.0,-64.0,127.0,127.0,127.0,-125.0,-89.0,-125.0
127.0,130.0,128.0,128.0,126.0,186.0,95.0,132.0,-1.0,116.0,-64.0,127.0,127.0,127.0,-125.0,-89.0,-125.0
127.0,130.0,128.0,128.0,126.0,185.0,96.0,132.0,-1.0,116.0,-64.0,127.0,127.0,127.0,-125.0,-89.0,-125.0
127.0,131.0,127.0,128.0,128.0,161.0,119.0,132.0,-1.0,116.0,-64.0,127.0,127.0,127.0,-125.0,-89.0,-125.0
127.0,131.0,127.0,128.0,128.0,161.0,119.0,132.0,-1.0,116.0,-64.0,127.0,127.0,127.0,-125.0,-89.0,-125.0
127.0,131.0,127.0,128.0,128.0,161.0,120.0,132.0,-1.0,116.0,-64.0,127.0,127.0,127.0,-125.0,-89.0,-125.0
127.0,131.0,127.0,128.0,128.0,161.0,120.0,132.0,-1.0,116.0,-64.0,127.0,127.0,127.0,-125.0,-89.0,-125.0
127.0,131.0,127.0,128.0,128.0,161.0,120.0,132.0,-1.0,116.0,-64.0,127.0,127.0,127.0,-125.0,-89.0,-125.0
127.0,131.0,127.0,128.0,128.0,161.0,121.0,132.0,-1.0,116.0,-64.0,127.0,127.0,127.0,-125.0,-89.0,-125.0
127.0,131.0,127.0,128.0,129.0,161.0,121.0,132.0,-1.0,116.0,-64.0,127.0,127.0,127.0,-125.0,-89.0,-125.0
127.0,131.0,127.0,128.0,127.0,161.0,118.0,132.0,-1.0,116.0,-64.0,127.0,127.0,127.0,-125.0,-89.0,-125.0
127.0,131.0,127.0,128.0,128.0,161.0,119.0,132.0,-1.0,116.0,-64.0,127.0,127.0,127.0,-125.0,-89.0,-125.0
127.0,131.0,127.0,128.0,128.0,161.0,119.0,132.0,-1.0,116.0,-64.0,127.0,127.0,127.0,-125.0,-89.0,-125.0
127.0,127.0,126.0,128.0,127.0,185.0,120.0,132.0,-1.0,115.0,-64.0,127.0,127.0,127.0,-125.0,-89.0,-125.0
126.0,127.0,125.0,128.0,127.0,185.0,120.0,132.0,-1.0,115.0,-64.0,127.0,127.0,127.0,-125.0,-89.0,-125.0
127.0,127.0,125.0,128.0,127.0,186.0,120.0,132.0,-1.0,115.0,-64.0,127.0,127.0,127.0,-125.0,-89.0,-125.0
127.0,127.0,125.0,127.0,127.0,186.0,120.0,132.0,-1.0,115.0,-64.0,127.0,127.0,127.0,-125.0,-89.0,-125.0
127.0,126.0,126.0,127.0,127.0,187.0,120.0,132.0,-1.0,115.0,-64.0,127.0,127.0,127.0,-125.0,-89.0,-125.0
127.0,126.0,126.0,127.0,127.0,188.0,120.0,132.0,-1.0,115.0,-64.0,127.0,127.0,127.0,-125.0,-89.0,-125.0
127.0,128.0,125.0,128.0,127.0,181.0,121.0,132.0,-1.0,115.0,-64.0,127.0,127.0,127.0,-125.0,-89.0,-125.0
126.0,127.0,125.0,128.0,127.0,182.0,121.0,132.0,-1.0,115.0,-64.0,127.0,127.0,127.0,-125.0,-89.0,-125.0
127.0,127.0,125.0,128.0,127.0,183.0,120.0,132.0,-1.0,115.0,-64.0,127.0,127.0,127.0,-125.0,-89.0,-125.0
127.0,127.0,125.0,128.0,127.0,184.0,120.0,132.0,-1.0,115.0,-64.0,127.0,127.0,127.0,-125.0,-89.0,-125.0
127.0,127.0,127.0,128.0,125.0,196.0,113.0,129.0,-1.0,115.0,-64.0,127.0,127.0,127.0,-125.0,-89.0,-125.0
127.0,127.0,127.0,128.0,125.0,196.0,113.0,129.0,-1.0,115.0,-64.0,127.0,127.0,127.0,-125.0,-89.0,-125.0
127.0,127.0,127.0,128.0,125.0,195.0,112.0,129.0,-1.0,115.0,-64.0,127.0,127.0,127.0,-125.0,-89.0,-125.0
127.0,127.0,127.0,128.0,125.0,195.0,112.0,129.0,-1.0,115.0,-64.0,127.0,127.0,127.0,-125.0,-89.0,-125.0
127.0,127.0,127.0,128.0,125.0,194.0,112.0,129.0,-1.0,115.0,-64.0,127.0,127.0,127.0,-125.0,-89.0,-125.0
127.0,127.0,127.0,128.0,125.0,196.0,114.0,129.0,-1.0,115.0,-64.0,127.0,127.0,127.0,-125.0,-89.0,-125.0
127.0,127.0,127.0,128.0,125.0,196.0,113.0,129.0,-1.0,115.0,-64.0,127.0,127.0,127.0,-125.0,-89.0,-125.0
127.0,127.0,127.0,128.0,125.0,195.0,113.0,129.0,-1.0,115.0,-64.0,127.0,127.0,127.0,-125.0,-89.0,-125.0
127.0,127.0,127.0,128.0,125.0,196.0,113.0,129.0,-1.0,115.0,-64.0,127.0,127.0,127.0,-125.0,-89.0,-125.0
127.0,127.0,127.0,128.0,125.0,196.0,113.0,129.0,-1.0,115.0,-64.0,127.0,127.0,127.0,-125.0,-89.0,-125.0
127.0,126.0,131.0,127.0,126.0,177.0,110.0,131.0,-1.0,116.0,-65.0,127.0,127.0,127.0,-125.0,-89.0,-125.0
127.0,126.0,132.0,127.0,126.0,177.0,109.0,131.0,-1.0,116.0,-65.0,127.0,127.0,127.0,-125.0,-89.0,-125.0
127.0,126.0,132.0,127.0,127.0,176.0,108.0,131.0,-1.0,116.0,-65.0,127.0,127.0,127.0,-125.0,-89.0,-125.0
127.0,126.0,132.0,127.0,127.0,176.0,108.0,131.0,-1.0,116.0,-65.0,127.0,127.0,127.0,-125.0,-89.0,-125.0
127.0,127.0,131.0,127.0,126.0,178.0,111.0,129.0,-1.0,116.0,-65.0,127.0,127.0,127.0,-125.0,-89.0,-125.0
127.0,127.0,131.0,127.0,126.0,177.0,111.0,130.0,-1.0,116.0,-65.0,127.0,127.0,127.0,-125.0,-89.0,-125.0
127.0,127.0,131.0,127.0,126.0,177.0,111.0,130.0,-1.0,116.0,-65.0,127.0,127.0,127.0,-125.0,-89.0,-125.0
127.0,126.0,131.0,127.0,126.0,177.0,111.0,130.0,-1.0,116.0,-65.0,127.0,127.0,127.0,-125.0,-89.0,-125.0
127.0,126.0,131.0,127.0,126.0,177.0,111.0,130.0,-1.0,116.0,-65.0,127.0,127.0,127.0,-125.0,-89.0,-125.0
127.0,126.0,131.0,127.0,126.0,177.0,110.0,131.0,-1.0,116.0,-65.0,127.0,127.0,127.0,-125.0,-89.0,-125.0
127.0,125.0,131.0,127.0,127.0,162.0,95.0,136.0,-1.0,117.0,-64.0,127.0,127.0,127.0,-125.0,-89.0,-125.0
126.0,125.0,131.0,128.0,127.0,162.0,95.0,136.0,-1.0,117.0,-64.0,127.0,127.0,127.0,-125.0,-89.0,-125.0
126.0,125.0,131.0,128.0,127.0,162.0,96.0,136.0,-1.0,117.0,-64.0,127.0,127.0,127.0,-125.0,-89.0,-125.0
127.0,124.0,132.0,127.0,128.0,162.0,90.0,135.0,-1.0,117.0,-64.0,127.0,127.0,127.0,-125.0,-89.0,-125.0
127.0,124.0,132.0,127.0,128.0,162.0,90.0,135.0,-1.0,117.0,-64.0,127.0,127.0,127.0,-125.0,-89.0,-125.0
127.0,125.0,132.0,127.0,127.0,162.0,91.0,136.0,-1.0,117.0,-64.0,127.0,127.0,127.0,-125.0,-89.0,-125.0
127.0,125.0,132.0,127.0,127.0,162.0,92.0,136.0,-1.0,117.0,-64.0,127.0,127.0,127.0,-125.0,-89.0,-125.0
127.0,125.0,132.0,128.0,127.0,162.0,92.0,136.0,-1.0,117.0,-64.0,127.0,127.0,127.0,-125.0,-89.0,-125.0
127.0,125.0,132.0,128.0,127.0,162.0,93.0,136.0,-1.0,117.0,-64.0,127.0,127.0,127.0,-125.0,-89.0,-125.0
126.0,125.0,131.0,127.0,127.0,162.0,94.0,136.0,-1.0,117.0,-64.0,127.0,127.0,127.0,-125.0,-89.0,-125.0
127.0,128.0,125.0,128.0,127.0,160.0,136.0,133.0,-1.0,117.0,-63.0,127.0,127.0,127.0,-125.0,-89.0,-125.0
127.0,128.0,125.0,128.0,127.0,161.0,136.0,133.0,-1.0,117.0,-63.0,127.0,127.0,127.0,-125.0,-89.0,-125.0
127.0,127.0,125.0,127.0,126.0,158.0,133.0,132.0,-1.0,117.0,-63.0,127.0,127.0,127.0,-125.0,-89.0,-125.0
126.0,127.0,125.0,127.0,127.0,158.0,133.0,132.0,-1.0,117.0,-63.0,127.0,127.0,127.0,-125.0,-89.0,-125.0
126.0,128.0,125.0,127.0,126.0,159.0,134.0,133.0,-1.0,117.0,-63.0,127.0,127.0,127.0,-125.0,-89.0,-125.0
127.0,128.0,125.0,128.0,126.0,159.0,134.0,133.0,-1.0,117.0,-63.0,127.0,127.0,127.0,-125.0,-89.0,-125.0
127.0,128.0,125.0,128.0,127.0,159.0,135.0,133.0,-1.0,117.0,-63.0,127.0,127.0,127.0,-125.0,-89.0,-125.0
127.0,128.0,125.0,128.0,127.0,159.0,135.0,133.0,-1.0,117.0,-63.0,127.0,127.0,127.0,-125.0,-89.0,-125.0
127.0,128.0,125.0,128.0,127.0,159.0,135.0,133.0,-1.0,117.0,-63.0,127.0,127.0,127.0,-125.0,-89.0,-125.0
127.0,128.0,125.0,128.0,127.0,160.0,136.0,133.0,-1.0,117.0,-63.0,127.0,127.0,127.0,-125.0,-89.0,-125.0
127.0,127.0,128.0,128.0,126.0,167.0,140.0,132.0,-1.0,118.0,-63.0,127.0,127.0,127.0,-125.0,-89.0,-125.0
127.0,126.0,127.0,127.0,126.0,165.0,142.0,132.0,-1.0,118.0,-63.0,127.0,127.0,127.0,-125.0,-89.0,-125.0
127.0,126.0,127.0,127.0,126.0,165.0,142.0,132.0,-1.0,118.0,-63.0,127.0,127.0,127.0,-125.0,-89.0,-125.0
127.0,126.0,127.0,127.0,126.0,166.0,142.0,132.0,-1.0,118.0,-63.0,127.0,127.0,127.0,-125.0,-89.0,-125.0
127.0,127.0,127.0,128.0,126.0,166.0,142.0,132.0,-1.0,118.0,-63.0,127.0,127.0,127.0,-125.0,-89.0,-125.0
127.0,126.0,128.0,128.0,126.0,166.0,141.0,132.0,-1.0,118.0,-63.0,127.0,127.0,127.0,-125.0,-89.0,-125.0
127.0,126.0,128.0,128.0,126.0,166.0,141.0,132.0,-1.0,118.0,-63.0,127.0,127.0,127.0,-125.0,-89.0,-125.0
127.0,126.0,128.0,127.0,126.0,166.0,141.0,132.0,-1.0,118.0,-63.0,127.0,127.0,127.0,-125.0,-89.0,-125.0
127.0,126.0,128.0,127.0,126.0,166.0,140.0,132.0,-1.0,118.0,-63.0,127.0,127.0,127.0,-125.0,-89.0,-125.0
127.0,126.0,128.0,128.0,126.0,166.0,140.0,132.0,-1.0,118.0,-63.0,127.0,127.0,127.0,-125.0,-89.0,-125.0
126.0,128.0,134.0,127.0,126.0,164.0,127.0,128.0,-1.0,119.0,-63.0,127.0,127.0,127.0,-125.0,-89.0,-125.0
126.0,128.0,135.0,127.0,126.0,164.0,126.0,128.0,-1.0,119.0,-63.0,127.0,127.0,127.0,-125.0,-89.0,-125.0
126.0,128.0,135.0,127.0,126.0,164.0,126.0,128.0,-1.0,119.0,-63.0,127.0,127.0,127.0,-125.0,-89.0,-125.0
126.0,129.0,135.0,127.0,126.0,165.0,126.0,128.0,-1.0,119.0,-63.0,127.0,127.0,127.0,-125.0,-89.0,-125.0
126.0,129.0,135.0,127.0,126.0,166.0,126.0,128.0,-1.0,119.0,-63.0,127.0,127.0,127.0,-125.0,-89.0,-125.0
126.0,129.0,135.0,127.0,126.0,166.0,126.0,128.0,-1.0,119.0,-63.0,127.0,127.0,127.0,-125.0,-89.0,-125.0
126.0,129.0,135.0,127.0,126.0,166.0,126.0,128.0,-1.0,119.0,-63.0,127.0,127.0,127.0,-125.0,-89.0,-125.0
127.0,129.0,136.0,127.0,126.0,166.0,126.0,127.0,-1.0,119.0,-63.0,127.0,127.0,127.0,-125.0,-89.0,-125.0
127.0,129.0,136.0,127.0,126.0,166.0,126.0,128.0,-1.0,119.0,-63.0,127.0,127.0,127.0,-125.0,-89.0,-125.0
127.0,129.0,136.0,128.0,126.0,167.0,126.0,128.0,-1.0,119.0,-63.0,127.0,127.0,127.0,-125.0,-89.0,-125.0
127.0,132.0,137.0,128.0,127.0,168.0,140.0,126.0,-1.0,118.0,-63.0,127.0,127.0,127.0,-125.0,-89.0,-125.0
127.0,132.0,137.0,128.0,127.0,168.0,141.0,126.0,-1.0,118.0,-63.0,127.0,127.0,127.0,-125.0,-89.0,-125.0
127.0,132.0,137.0,128.0,127.0,168.0,141.0,126.0,-1.0,118.0,-63.0,127.0,127.0,127.0,-125.0,-89.0,-125.0
127.0,132.0,137.0,128.0,127.0,168.0,141.0,126.0,-1.0,118.0,-63.0,127.0,127.0,127.0,-125.0,-89.0,-125.0
127.0,132.0,137.0,128.0,127.0,168.0,142.0,126.0,-1.0,118.0,-63.0,127.0,127.0,127.0,-125.0,-89.0,-125.0
127.0,132.0,137.0,128.0,127.0,168.0,142.0,126.0,-1.0,118.0,-63.0,127.0,127.0,127.0,-125.0,-89.0,-125.0
127.0,131.0,137.0,128.0,127.0,168.0,143.0,126.0,-1.0,118.0,-63.0,127.0,127.0,127.0,-125.0,-89.0,-125.0
127.0,132.0,137.0,128.0,127.0,169.0,144.0,126.0,-1.0,118.0,-63.0,127.0,127.0,127.0,-125.0,-89.0,-125.0
127.0,131.0,136.0,128.0,128.0,169.0,145.0,126.0,-1.0,118.0,-63.0,127.0,127.0,127.0,-125.0,-89.0,-125.0
127.0,132.0,137.0,128.0,127.0,168.0,140.0,126.0,-1.0,118.0,-63.0,127.0,127.0,127.0,-125.0,-89.0,-125.0
127.0,132.0,132.0,128.0,129.0,178.0,226.0,131.0,-1.0,118.0,-63.0,127.0,127.0,127.0,-125.0,-89.0,-125.0
126.0,132.0,132.0,127.0,130.0,178.0,227.0,131.0,-1.0,118.0,-63.0,127.0,127.0,127.0,-125.0,-89.0,-125.0
127.0,132.0,132.0,128.0,130.0,178.0,228.0,131.0,-1.0,118.0,-63.0,127.0,127.0,127.0,-125.0,-89.0,-125.0
127.0,132.0,132.0,128.0,130.0,178.0,229.0,131.0,-1.0,118.0,-63.0,127.0,127.0,127.0,-125.0,-89.0,-125.0
127.0,132.0,132.0,127.0,130.0,178.0,229.0,131.0,-1.0,118.0,-63.0,127.0,127.0,127.0,-125.0,-89.0,-125.0
127.0,132.0,132.0,127.0,130.0,179.0,230.0,132.0,-1.0,118.0,-63.0,127.0,127.0,127.0,-125.0,-89.0,-125.0
127.0,132.0,132.0,127.0,130.0,179.0,230.0,132.0,-1.0,118.0,-63.0,127.0,127.0,127.0,-125.0,-89.0,-125.0
127.0,132.0,132.0,127.0,130.0,179.0,231.0,132.0,-1.0,118.0,-63.0,127.0,127.0,127.0,-125.0,-89.0,-125.0
127.0,132.0,132.0,128.0,129.0,177.0,224.0,131.0,-1.0,118.0,-63.0,127.0,127.0,127.0,-125.0,-89.0,-125.0
127.0,132.0,132.0,128.0,129.0,177.0,225.0,131.0,-1.0,118.0,-63.0,127.0,127.0,127.0,-125.0,-89.0,-125.0
127.0,133.0,130.0,128.0,130.0,181.0,206.0,134.0,-1.0,117.0,-62.0,-128.0,127.0,127.0,-125.0,-89.0,-125.0
127.0,133.0,130.0,128.0,130.0,181.0,205.0,134.0,-1.0,117.0,-62.0,-128.0,127.0,127.0,-125.0,-89.0,-125.0
127.0,133.0,130.0,128.0,130.0,181.0,204.0,134.0,-1.0,117.0,-62.0,-128.0,127.0,127.0,-125.0,-89.0,-125.0
127.0,133.0,130.0,128.0,130.0,181.0,203.0,134.0,-1.0,117.0,-62.0,-128.0,127.0,127.0,-125.0,-89.0,-125.0
127.0,133.0,129.0,127.0,130.0,181.0,203.0,134.0,-1.0,117.0,-62.0,-128.0,127.0,127.0,-125.0,-89.0,-125.0
127.0,133.0,130.0,128.0,130.0,181.0,202.0,135.0,-1.0,117.0,-62.0,-128.0,127.0,127.0,-125.0,-89.0,-125.0
127.0,133.0,129.0,127.0,130.0,181.0,202.0,135.0,-1.0,117.0,-62.0,-128.0,127.0,127.0,-125.0,-89.0,-125.0
127.0,134.0,130.0,128.0,130.0,181.0,207.0,134.0,-1.0,117.0,-62.0,-128.0,127.0,127.0,-125.0,-89.0,-125.0
127.0,134.0,130.0,128.0,130.0,181.0,207.0,134.0,-1.0,117.0,-62.0,-128.0,127.0,127.0,-125.0,-89.0,-125.0
127.0,134.0,130.0,128.0,130.0,181.0,206.0,134.0,-1.0,117.0,-62.0,-128.0,127.0,127.0,-125.0,-89.0,-125.0
127.0,133.0,128.0,128.0,127.0,179.0,167.0,135.0,-1.0,117.0,-61.0,-128.0,127.0,127.0,-125.0,-89.0,-125.0
127.0,133.0,127.0,128.0,127.0,179.0,166.0,135.0,-1.0,117.0,-61.0,-128.0,127.0,127.0,-125.0,-89.0,-125.0
127.0,133.0,127.0,127.0,127.0,178.0,165.0,135.0,-1.0,117.0,-61.0,-128.0,127.0,127.0,-125.0,-89.0,-125.0
127.0,133.0,127.0,127.0,127.0,178.0,164.0,135.0,-1.0,117.0,-61.0,-128.0,127.0,127.0,-125.0,-89.0,-125.0
127.0,133.0,127.0,128.0,127.0,178.0,164.0,135.0,-1.0,117.0,-61.0,-128.0,127.0,127.0,-125.0,-89.0,-125.0
127.0,133.0,127.0,127.0,127.0,178.0,163.0,135.0,-1.0,117.0,-61.0,-128.0,127.0,127.0,-125.0,-89.0,-125.0
127.0,133.0,128.0,127.0,128.0,179.0,170.0,135.0,-1.0,117.0,-61.0,-128.0,127.0,127.0,-125.0,-89.0,-125.0
127.0,133.0,128.0,128.0,127.0,179.0,169.0,135.0,-1.0,117.0,-61.0,-128.0,127.0,127.0,-125.0,-89.0,-125.0
127.0,133.0,128.0,128.0,127.0,179.0,168.0,135.0,-1.0,117.0,-61.0,-128.0,127.0,127.0,-125.0,-89.0,-125.0
127.0,133.0,128.0,127.0,127.0,179.0,167.0,135.0,-1.0,117.0,-61.0,-128.0,127.0,127.0,-125.0,-89.0,-125.0
127.0,133.0,127.0,128.0,126.0,174.0,136.0,135.0,-1.0,117.0,-61.0,-128.0,127.0,127.0,-125.0,-89.0,-125.0
127.0,133.0,127.0,127.0,126.0,173.0,135.0,135.0,-1.0,117.0,-61.0,-128.0,127.0,127.0,-125.0,-89.0,-125.0
127.0,132.0,127.0,127.0,126.0,173.0,134.0,135.0,-1.0,117.0,-61.0,-128.0,127.0,127.0,-125.0,-89.0,-125.0
127.0,132.0,127.0,127.0,126.0,173.0,134.0,135.0,-1.0,117.0,-61.0,-128.0,127.0,127.0,-125.0,-89.0,-125.0
127.0,132.0,127.0,127.0,126.0,173.0,133.0,135.0,-1.0,117.0,-61.0,-128.0,127.0,127.0,-125.0,-89.0,-125.0
127.0,133.0,127.0,127.0,125.0,174.0,139.0,135.0,-1.0,117.0,-61.0,-128.0,127.0,127.0,-125.0,-89.0,-125.0
127.0,133.0,127.0,128.0,125.0,174.0,138.0,135.0,-1.0,117.0,-61.0,-128.0,127.0,127.0,-125.0,-89.0,-125.0
127.0,133.0,127.0,128.0,125.0,174.0,138.0,135.0,-1.0,117.0,-61.0,-128.0,127.0,127.0,-125.0,-89.0,-125.0
127.0,133.0,127.0,128.0,125.0,174.0,137.0,135.0,-1.0,117.0,-61.0,-128.0,127.0,127.0,-125.0,-89.0,-125.0
127.0,133.0,127.0,128.0,126.0,174.0,136.0,135.0,-1.0,117.0,-61.0,-128.0,127.0,127.0,-125.0,-89.0,-125.0
127.0,132.0,125.0,128.0,125.0,168.0,105.0,137.0,-1.0,117.0,-61.0,-128.0,127.0,127.0,-125.0,-89.0,-125.0
127.0,132.0,125.0,127.0,125.0,168.0,105.0,137.0,-1.0,117.0,-61.0,-128.0,127.0,127.0,-125.0,-89.0,-125.0
127.0,131.0,125.0,127.0,125.0,168.0,104.0,137.0,-1.0,117.0,-61.0,-128.0,127.0,127.0,-125.0,-89.0,-125.0
127.0,131.0,125.0,127.0,125.0,167.0,104.0,137.0,-1.0,117.0,-61.0,-128.0,127.0,127.0,-125.0,-89.0,-125.0
127.0,132.0,125.0,128.0,124.0,168.0,107.0,137.0,-1.0,117.0,-61.0,-128.0,127.0,127.0,-125.0,-89.0,-125.0
127.0,132.0,125.0,128.0,124.0,169.0,107.0,137.0,-1.0,117.0,-61.0,-128.0,127.0,127.0,-125.0,-89.0,-125.0
127.0,132.0,125.0,128.0,124.0,169.0,107.0,137.0,-1.0,117.0,-61.0,-128.0,127.0,127.0,-125.0,-89.0,-125.0
127.0,132.0,125.0,128.0,124.0,168.0,107.0,137.0,-1.0,117.0,-61.0,-128.0,127.0,127.0,-125.0,-89.0,-125.0
127.0,132.0,125.0,128.0,124.0,168.0,106.0,137.0,-1.0,117.0,-61.0,-128.0,127.0,127.0,-125.0,-89.0,-125.0
127.0,132.0,125.0,128.0,124.0,168.0,106.0,137.0,-1.0,117.0,-61.0,-128.0,127.0,127.0,-125.0,-89.0,-125.0
127.0,130.0,120.0,128.0,124.0,164.0,95.0,138.0,-1.0,117.0,-61.0,127.0,127.0,127.0,-125.0,-89.0,-125.0
127.0,130.0,120.0,128.0,124.0,164.0,95.0,138.0,-1.0,117.0,-61.0,127.0,127.0,127.0,-125.0,-89.0,-125.0
127.0,130.0,120.0,128.0,124.0,164.0,95.0,138.0,-1.0,117.0,-61.0,127.0,127.0,127.0,-125.0,-89.0,-125.0
127.0,130.0,121.0,128.0,124.0,163.0,95.0,138.0,-1.0,117.0,-61.0,127.0,127.0,127.0,-125.0,-89.0,-125.0
127.0,130.0,121.0,128.0,124.0,164.0,95.0,138.0,-1.0,117.0,-61.0,127.0,127.0,127.0,-125.0,-89.0,-125.0
127.0,130.0,121.0,128.0,124.0,164.0,95.0,138.0,-1.0,117.0,-61.0,127.0,127.0,127.0,-125.0,-89.0,-125.0
127.0,130.0,121.0,127.0,124.0,164.0,95.0,138.0,-1.0,117.0,-61.0,127.0,127.0,127.0,-125.0,-89.0,-125.0
127.0,130.0,121.0,128.0,124.0,164.0,95.0,138.0,-1.0,117.0,-61.0,127.0,127.0,127.0,-125.0,-89.0,-125.0
127.0,130.0,121.0,128.0,124.0,164.0,95.0,138.0,-1.0,117.0,-61.0,127.0,127.0,127.0,-125.0,-89.0,-125.0
127.0,130.0,120.0,128.0,124.0,164.0,95.0,138.0,-1.0,117.0,-61.0,127.0,127.0,127.0,-125.0,-89.0,-125.0
126.0,129.0,119.0,127.0,123.0,154.0,97.0,137.0,-1.0,117.0,-62.0,127.0,127.0,127.0,-125.0,-89.0,-125.0
127.0,129.0,119.0,128.0,123.0,153.0,97.0,137.0,-1.0,117.0,-62.0,127.0,127.0,127.0,-125.0,-89.0,-125.0
127.0,129.0,119.0,127.0,123.0,154.0,96.0,137.0,-1.0,117.0,-62.0,127.0,127.0,127.0,-125.0,-89.0,-125.0
126.0,129.0,119.0,127.0,123.0,154.0,96.0,137.0,-1.0,117.0,-62.0,127.0,127.0,127.0,-125.0,-89.0,-125.0
126.0,129.0,119.0,127.0,123.0,154.0,96.0,137.0,-1.0,117.0,-62.0,127.0,127.0,127.0,-125.0,-89.0,-125.0
126.0,129.0,119.0,127.0,123.0,153.0,96.0,137.0,-1.0,117.0,-62.0,127.0,127.0,127.0,-125.0,-89.0,-125.0
126.0,129.0,119.0,127.0,123.0,154.0,97.0,137.0,-1.0,117.0,-62.0,127.0,127.0,127.0,-125.0,-89.0,-125.0
126.0,129.0,119.0,127.0,123.0,154.0,97.0,137.0,-1.0,117.0,-62.0,127.0,127.0,127.0,-125.0,-89.0,-125.0
126.0,129.0,119.0,127.0,123.0,154.0,97.0,137.0,-1.0,117.0,-62.0,127.0,127.0,127.0,-125.0,-89.0,-125.0
126.0,129.0,119.0,127.0,123.0,154.0,97.0,137.0,-1.0,117.0,-62.0,127.0,127.0,127.0,-125.0,-89.0,-125.0
127.0,127.0,120.0,127.0,123.0,138.0,109.0,135.0,-1.0,117.0,-62.0,127.0,127.0,127.0,-125.0,-89.0,-125.0
127.0,128.0,119.0,127.0,124.0,140.0,109.0,135.0,-1.0,117.0,-62.0,127.0,127.0,127.0,-125.0,-89.0,-125.0
127.0,128.0,119.0,128.0,123.0,140.0,109.0,135.0,-1.0,117.0,-62.0,127.0,127.0,127.0,-125.0,-89.0,-125.0
127.0,128.0,119.0,128.0,123.0,140.0,109.0,135.0,-1.0,117.0,-62.0,127.0,127.0,127.0,-125.0,-89.0,-125.0
127.0,128.0,119.0,128.0,123.0,139.0,109.0,135.0,-1.0,117.0,-62.0,127.0,127.0,127.0,-125.0,-89.0,-125.0
127.0,128.0,119.0,128.0,123.0,139.0,110.0,135.0,-1.0,117.0,-62.0,127.0,127.0,127.0,-125.0,-89.0,-125.0
127.0,128.0,120.0,128.0,123.0,139.0,110.0,135.0,-1.0,117.0,-62.0,127.0,127.0,127.0,-125.0,-89.0,-125.0
127.0,128.0,120.0,128.0,123.0,139.0,110.0,135.0,-1.0,117.0,-62.0,127.0,127.0,127.0,-125.0,-89.0,-125.0
127.0,128.0,120.0,127.0,123.0,138.0,110.0,135.0,-1.0,117.0,-62.0,127.0,127.0,127.0,-125.0,-89.0,-125.0
127.0,127.0,120.0,127.0,123.0,138.0,109.0,135.0,-1.0,117.0,-62.0,127.0,127.0,127.0,-125.0,-89.0,-125.0
127.0,127.0,123.0,127.0,124.0,136.0,110.0,133.0,-1.0,118.0,-63.0,127.0,127.0,127.0,-125.0,-89.0,-125.0
127.0,127.0,123.0,127.0,123.0,136.0,110.0,133.0,-1.0,118.0,-63.0,127.0,127.0,127.0,-125.0,-89.0,-125.0
127.0,127.0,123.0,128.0,123.0,136.0,110.0,133.0,-1.0,118.0,-63.0,127.0,127.0,127.0,-125.0,-89.0,-125.0
127.0,127.0,123.0,128.0,123.0,135.0,111.0,133.0,-1.0,118.0,-63.0,127.0,127.0,127.0,-125.0,-89.0,-125.0
126.0,127.0,123.0,127.0,123.0,135.0,111.0,133.0,-1.0,118.0,-63.0,127.0,127.0,127.0,-125.0,-89.0,-125.0
126.0,127.0,123.0,127.0,123.0,135.0,111.0,133.0,-1.0,118.0,-63.0,127.0,127.0,127.0,-125.0,-89.0,-125.0
127.0,127.0,123.0,127.0,124.0,135.0,111.0,133.0,-1.0,118.0,-63.0,127.0,127.0,127.0,-125.0,-89.0,-125.0
127.0,127.0,123.0,127.0,124.0,135.0,111.0,133.0,-1.0,118.0,-63.0,127.0,127.0,127.0,-125.0,-89.0,-125.0
127.0,127.0,123.0,127.0,124.0,135.0,111.0,133.0,-1.0,118.0,-63.0,127.0,127.0,127.0,-125.0,-89.0,-125.0
127.0,127.0,124.0,127.0,124.0,135.0,111.0,133.0,-1.0,118.0,-63.0,127.0,127.0,127.0,-125.0,-89.0,-125.0
127.0,127.0,125.0,127.0,124.0,136.0,109.0,132.0,-1.0,118.0,-63.0,127.0,127.0,127.0,-125.0,-89.0,-125.0
127.0,127.0,125.0,127.0,124.0,136.0,110.0,132.0,-1.0,118.0,-63.0,127.0,127.0,127.0,-125.0,-89.0,-125.0
127.0,127.0,125.0,127.0,124.0,136.0,110.0,132.0,-1.0,118.0,-63.0,127.0,127.0,127.0,-125.0,-89.0,-125.0
127.0,127.0,125.0,127.0,124.0,136.0,110.0,133.0,-1.0,118.0,-63.0,127.0,127.0,127.0,-125.0,-89.0,-125.0
127.0,127.0,125.0,127.0,124.0,136.0,110.0,132.0,-1.0,118.0,-63.0,127.0,127.0,127.0,-125.0,-89.0,-125.0
127.0,127.0,125.0,127.0,124.0,137.0,110.0,133.0,-1.0,118.0,-63.0,127.0,127.0,127.0,-125.0,-89.0,-125.0
127.0,127.0,125.0,127.0,124.0,137.0,110.0,132.0,-1.0,118.0,-63.0,127.0,127.0,127.0,-125.0,-89.0,-125.0
127.0,127.0,125.0,127.0,124.0,137.0,111.0,132.0,-1.0,118.0,-63.0,127.0,127.0,127.0,-125.0,-89.0,-125.0
127.0,127.0,125.0,127.0,124.0,137.0,111.0,132.0,-1.0,118.0,-63.0,127.0,127.0,127.0,-125.0,-89.0,-125.0
126.0,127.0,125.0,127.0,124.0,135.0,109.0,132.0,-1.0,118.0,-63.0,127.0,127.0,127.0,-125.0,-89.0,-125.0
127.0,127.0,126.0,127.0,125.0,136.0,120.0,131.0,-1.0,118.0,-63.0,127.0,127.0,127.0,-125.0,-89.0,-125.0
127.0,128.0,126.0,127.0,125.0,136.0,120.0,132.0,-1.0,118.0,-63.0,127.0,127.0,127.0,-125.0,-89.0,-125.0
126.0,128.0,126.0,127.0,125.0,136.0,121.0,132.0,-1.0,118.0,-63.0,127.0,127.0,127.0,-125.0,-89.0,-125.0
127.0,128.0,126.0,128.0,125.0,137.0,121.0,132.0,-1.0,118.0,-63.0,127.0,127.0,127.0,-125.0,-89.0,-125.0
127.0,128.0,126.0,128.0,125.0,137.0,122.0,132.0,-1.0,118.0,-63.0,127.0,127.0,127.0,-125.0,-89.0,-125.0
127.0,128.0,126.0,128.0,125.0,137.0,122.0,132.0,-1.0,118.0,-63.0,127.0,127.0,127.0,-125.0,-89.0,-125.0
127.0,128.0,126.0,128.0,125.0,137.0,123.0,132.0,-1.0,118.0,-63.0,127.0,127.0,127.0,-125.0,-89.0,-125.0
127.0,128.0,126.0,127.0,125.0,136.0,119.0,132.0,-1.0,118.0,-63.0,127.0,127.0,127.0,-125.0,-89.0,-125.0
127.0,127.0,126.0,127.0,125.0,136.0,119.0,131.0,-1.0,118.0,-63.0,127.0,127.0,127.0,-125.0,-89.0,-125.0
127.0,127.0,126.0,127.0,125.0,136.0,120.0,132.0,-1.0,118.0,-63.0,127.0,127.0,127.0,-125.0,-89.0,-125.0
127.0,128.0,125.0,128.0,124.0,137.0,135.0,132.0,-1.0,118.0,-63.0,127.0,127.0,127.0,-125.0,-89.0,-125.0
127.0,128.0,125.0,128.0,124.0,137.0,134.0,132.0,-1.0,118.0,-63.0,127.0,127.0,127.0,-125.0,-89.0,-125.0
127.0,128.0,125.0,127.0,124.0,137.0,135.0,133.0,-1.0,118.0,-63.0,127.0,127.0,127.0,-125.0,-89.0,-125.0
127.0,128.0,125.0,127.0,124.0,137.0,135.0,133.0,-1.0,118.0,-63.0,127.0,127.0,127.0,-125.0,-89.0,-125.0
127.0,127.0,125.0,127.0,124.0,137.0,135.0,133.0,-1.0,118.0,-63.0,127.0,127.0,127.0,-125.0,-89.0,-125.0
127.0,127.0,125.0,127.0,124.0,137.0,135.0,132.0,-1.0,118.0,-63.0,127.0,127.0,127.0,-125.0,-89.0,-125.0
127.0,128.0,125.0,128.0,124.0,137.0,134.0,132.0,-1.0,118.0,-63.0,127.0,127.0,127.0,-125.0,-89.0,-125.0
127.0,128.0,125.0,128.0,124.0,137.0,134.0,132.0,-1.0,118.0,-63.0,127.0,127.0,127.0,-125.0,-89.0,-125.0
127.0,128.0,125.0,128.0,124.0,137.0,134.0,132.0,-1.0,118.0,-63.0,127.0,127.0,127.0,-125.0,-89.0,-125.0
127.0,128.0,125.0,128.0,124.0,137.0,134.0,132.0,-1.0,118.0,-63.0,127.0,127.0,127.0,-125.0,-89.0,-125.0
127.0,127.0,126.0,128.0,125.0,136.0,134.0,133.0,-1.0,118.0,-63.0,127.0,127.0,127.0,-125.0,-89.0,-125.0
127.0,127.0,126.0,128.0,125.0,136.0,134.0,133.0,-1.0,118.0,-63.0,127.0,127.0,127.0,-125.0,-89.0,-125.0
127.0,127.0,126.0,127.0,125.0,136.0,133.0,133.0,-1.0,118.0,-63.0,127.0,127.0,127.0,-125.0,-89.0,-125.0
127.0,127.0,126.0,128.0,126.0,136.0,133.0,133.0,-1.0,118.0,-63.0,127.0,127.0,127.0,-125.0,-89.0,-125.0
127.0,127.0,126.0,127.0,126.0,136.0,133.0,133.0,-1.0,118.0,-63.0,127.0,127.0,127.0,-125.0,-89.0,-125.0
127.0,128.0,125.0,128.0,124.0,135.0,135.0,133.0,-1.0,118.0,-63.0,127.0,127.0,127.0,-125.0,-89.0,-125.0
127.0,128.0,126.0,128.0,124.0,135.0,135.0,133.0,-1.0,118.0,-63.0,127.0,127.0,127.0,-125.0,-89.0,-125.0
127.0,127.0,126.0,128.0,124.0,135.0,134.0,133.0,-1.0,118.0,-63.0,127.0,127.0,127.0,-125.0,-89.0,-125.0
127.0,127.0,126.0,128.0,124.0,135.0,134.0,133.0,-1.0,118.0,-63.0,127.0,127.0,127.0,-125.0,-89.0,-125.0
127.0,127.0,126.0,128.0,125.0,136.0,134.0,133.0,-1.0,118.0,-63.0,127.0,127.0,127.0,-125.0,-89.0,-125.0
127.0,127.0,124.0,127.0,125.0,136.0,131.0,133.0,-1.0,118.0,-63.0,127.0,127.0,127.0,-125.0,-89.0,-125.0
126.0,127.0,124.0,127.0,125.0,136.0,131.0,133.0,-1.0,118.0,-63.0,127.0,127.0,127.0,-125.0,-89.0,-125.0
127.0,127.0,124.0,127.0,126.0,136.0,131.0,133.0,-1.0,118.0,-63.0,127.0,127.0,127.0,-125.0,-89.0,-125.0
127.0,127.0,124.0,127.0,126.0,136.0,131.0,133.0,-1.0,118.0,-63.0,127.0,127.0,127.0,-125.0,-89.0,-125.0
126.0,127.0,124.0,127.0,125.0,136.0,131.0,133.0,-1.0,118.0,-63.0,127.0,127.0,127.0,-125.0,-89.0,-125.0
126.0,127.0,124.0,127.0,125.0,136.0,131.0,133.0,-1.0,118.0,-63.0,127.0,127.0,127.0,-125.0,-89.0,-125.0
126.0,127.0,124.0,127.0,125.0,136.0,131.0,133.0,-1.0,118.0,-63.0,127.0,127.0,127.0,-125.0,-89.0,-125.0
126.0,127.0,124.0,127.0,125.0,136.0,131.0,133.0,-1.0,118.0,-63.0,127.0,127.0,127.0,-125.0,-89.0,-125.0
126.0,127.0,124.0,127.0,125.0,136.0,131.0,133.0,-1.0,118.0,-63.0,127.0,127.0,127.0,-125.0,-89.0,-125.0
127.0,127.0,124.0,127.0,125.0,136.0,131.0,133.0,-1.0,118.0,-63.0,127.0,127.0,127.0,-125.0,-89.0,-125.0
127.0,127.0,126.0,127.0,126.0,134.0,134.0,132.0,-1.0,119.0,-63.0,127.0,127.0,127.0,-125.0,-89.0,-125.0
127.0,127.0,126.0,127.0,126.0,134.0,134.0,132.0,-1.0,119.0,-63.0,127.0,127.0,127.0,-125.0,-89.0,-125.0
126.0,127.0,126.0,127.0,126.0,134.0,133.0,132.0,-1.0,119.0,-63.0,127.0,127.0,127.0,-125.0,-89.0,-125.0
127.0,127.0,126.0,127.0,125.0,134.0,134.0,132.0,-1.0,119.0,-63.0,127.0,127.0,127.0,-125.0,-89.0,-125.0
127.0,127.0,126.0,127.0,125.0,134.0,134.0,132.0,-1.0,119.0,-63.0,127.0,127.0,127.0,-125.0,-89.0,-125.0
127.0,127.0,126.0,127.0,125.0,134.0,134.0,132.0,-1.0,119.0,-63.0,127.0,127.0,127.0,-125.0,-89.0,-125.0
127.0,127.0,126.0,127.0,125.0,134.0,134.0,132.0,-1.0,119.0,-63.0,127.0,127.0,127.0,-125.0,-89.0,-125.0
127.0,127.0,126.0,127.0,126.0,134.0,134.0,132.0,-1.0,119.0,-63.0,127.0,127.0,127.0,-125.0,-89.0,-125.0
127.0,127.0,126.0,127.0,126.0,134.0,134.0,132.0,-1.0,119.0,-63.0,127.0,127.0,127.0,-125.0,-89.0,-125.0
127.0,127.0,126.0,127.0,126.0,134.0,134.0,132.0,-1.0,119.0,-63.0,127.0,127.0,127.0,-125.0,-89.0,-125.0
127.0,127.0,126.0,127.0,126.0,134.0,134.0,133.0,-1.0,119.0,-63.0,127.0,127.0,127.0,-125.0,-89.0,-125.0
127.0,127.0,126.0,127.0,126.0,134.0,134.0,132.0,-1.0,119.0,-63.0,127.0,127.0,127.0,-125.0,-89.0,-125.0
127.0,127.0,126.0,127.0,126.0,134.0,134.0,133.0,-1.0,119.0,-63.0,127.0,127.0,127.0,-125.0,-89.0,-125.0
127.0,127.0,127.0,128.0,126.0,134.0,135.0,133.0,-1.0,119.0,-63.0,127.0,127.0,127.0,-125.0,-89.0,-125.0
127.0,127.0,127.0,128.0,126.0,134.0,135.0,133.0,-1.0,119.0,-63.0,127.0,127.0,127.0,-125.0,-89.0,-125.0
127.0,127.0,127.0,128.0,126.0,134.0,135.0,133.0,-1.0,119.0,-63.0,127.0,127.0,127.0,-125.0,-89.0,-125.0
127.0,127.0,127.0,128.0,126.0,134.0,135.0,133.0,-1.0,119.0,-63.0,127.0,127.0,127.0,-125.0,-89.0,-125.0
127.0,127.0,127.0,128.0,126.0,134.0,135.0,133.0,-1.0,119.0,-63.0,127.0,127.0,127.0,-125.0,-89.0,-125.0
127.0,127.0,127.0,127.0,126.0,134.0,134.0,133.0,-1.0,119.0,-63.0,127.0,127.0,127.0,-125.0,-89.0,-125.0
127.0,127.0,126.0,127.0,126.0,134.0,134.0,132.0,-1.0,119.0,-63.0,127.0,127.0,127.0,-125.0,-89.0,-125.0
127.0,127.0,127.0,128.0,126.0,134.0,135.0,132.0,-1.0,119.0,-63.0,127.0,127.0,127.0,-125.0,-89.0,-125.0
127.0,127.0,127.0,128.0,126.0,134.0,135.0,132.0,-1.0,119.0,-63.0,127.0,127.0,127.0,-125.0,-89.0,-125.0
127.0,127.0,127.0,128.0,126.0,134.0,135.0,132.0,-1.0,119.0,-63.0,127.0,127.0,127.0,-125.0,-89.0,-125.0
127.0,127.0,127.0,128.0,126.0,134.0,135.0,132.0,-1.0,119.0,-63.0,127.0,127.0,127.0,-125.0,-89.0,-125.0
127.0,127.0,127.0,128.0,126.0,134.0,135.0,132.0,-1.0,119.0,-63.0,127.0,127.0,127.0,-125.0,-89.0,-125.0
127.0,127.0,127.0,128.0,126.0,134.0,135.0,132.0,-1.0,119.0,-63.0,127.0,127.0,127.0,-125.0,-89.0,-125.0
127.0,127.0,127.0,128.0,126.0,134.0,135.0,132.0,-1.0,119.0,-63.0,127.0,127.0,127.0,-125.0,-89.0,-125.0
127.0,127.0,127.0,128.0,126.0,134.0,135.0,132.0,-1.0,119.0,-63.0,127.0,127.0,127.0,-125.0,-89.0,-125.0
127.0,127.0,127.0,128.0,126.0,134.0,135.0,132.0,-1.0,119.0,-63.0,127.0,127.0,127.0,-125.0,-89.0,-125.0
127.0,127.0,127.0,128.0,126.0,134.0,135.0,132.0,-1.0,119.0,-63.0,127.0,127.0,127.0,-125.0,-89.0,-125.0
127.0,127.0,127.0,127.0,125.0,132.0,135.0,132.0,-1.0,119.0,-63.0,127.0,127.0,127.0,-125.0,-89.0,-125.0
127.0,127.0,127.0,128.0,125.0,133.0,135.0,132.0,-1.0,119.0,-63.0,127.0,127.0,127.0,-125.0,-89.0,-125.0
127.0,127.0,127.0,128.0,126.0,133.0,135.0,132.0,-1.0,119.0,-63.0,127.0,127.0,127.0,-125.0,-89.0,-125.0
127.0,127.0,127.0,128.0,126.0,133.0,134.0,132.0,-1.0,119.0,-63.0,127.0,127.0,127.0,-125.0,-89.0,-125.0
127.0,127.0,127.0,128.0,126.0,133.0,134.0,132.0,-1.0,119.0,-63.0,127.0,127.0,127.0,-125.0,-89.0,-125.0
127.0,127.0,127.0,128.0,126.0,133.0,134.0,132.0,-1.0,119.0,-63.0,127.0,127.0,127.0,-125.0,-89.0,-125.0
127.0,127.0,127.0,128.0,126.0,133.0,134.0,132.0,-1.0,119.0,-63.0,127.0,127.0,127.0,-125.0,-89.0,-125.0
127.0,127.0,127.0,128.0,127.0,133.0,134.0,132.0,-1.0,119.0,-63.0,127.0,127.0,127.0,-125.0,-89.0,-125.0
127.0,127.0,127.0,128.0,127.0,133.0,134.0,132.0,-1.0,119.0,-63.0,127.0,127.0,127.0,-125.0,-89.0,-125.0
127.0,127.0,127.0,128.0,127.0,133.0,134.0,132.0,-1.0,119.0,-63.0,127.0,127.0,127.0,-125.0,-89.0,-125.0
127.0,127.0,127.0,127.0,127.0,133.0,132.0,131.0,-1.0,119.0,-63.0,127.0,127.0,127.0,-125.0,-89.0,-125.0
127.0,127.0,127.0,127.0,127.0,133.0,132.0,131.0,-1.0,119.0,-63.0,127.0,127.0,127.0,-125.0,-89.0,-125.0
127.0,127.0,127.0,127.0,127.0,133.0,132.0,131.0,-1.0,119.0,-63.0,127.0,127.0,127.0,-125.0,-89.0,-125.0
127.0,127.0,127.0,127.0,127.0,134.0,132.0,131.0,-1.0,119.0,-63.0,127.0,127.0,127.0,-125.0,-89.0,-125.0
127.0,127.0,127.0,128.0,127.0,134.0,132.0,131.0,-1.0,119.0,-63.0,127.0,127.0,127.0,-125.0,-89.0,-125.0
127.0,127.0,127.0,128.0,127.0,134.0,132.0,132.0,-1.0,119.0,-63.0,127.0,127.0,127.0,-125.0,-89.0,-125.0
127.0,127.0,127.0,127.0,127.0,134.0,132.0,131.0,-1.0,119.0,-63.0,127.0,127.0,127.0,-125.0,-89.0,-125.0
127.0,127.0,127.0,127.0,127.0,134.0,132.0,131.0,-1.0,119.0,-63.0,127.0,127.0,127.0,-125.0,-89.0,-125.0
127.0,127.0,127.0,127.0,127.0,134.0,132.0,131.0,-1.0,119.0,-63.0,127.0,127.0,127.0,-125.0,-89.0,-125.0
127.0,127.0,127.0,127.0,127.0,133.0,132.0,131.0,-1.0,119.0,-63.0,127.0,127.0,127.0,-125.0,-89.0,-125.0
127.0,127.0,127.0,127.0,126.0,132.0,131.0,131.0,-1.0,118.0,-63.0,127.0,127.0,127.0,-125.0,-89.0,-125.0
127.0,127.0,127.0,127.0,126.0,132.0,131.0,131.0,-1.0,118.0,-63.0,127.0,127.0,127.0,-125.0,-89.0,-125.0
127.0,127.0,127.0,127.0,126.0,132.0,131.0,131.0,-1.0,118.0,-63.0,127.0,127.0,127.0,-125.0,-89.0,-125.0
127.0,127.0,127.0,127.0,126.0,132.0,131.0,131.0,-1.0,118.0,-63.0,127.0,127.0,127.0,-125.0,-89.0,-125.0
127.0,126.0,127.0,127.0,126.0,132.0,131.0,131.0,-1.0,118.0,-63.0,127.0,127.0,127.0,-125.0,-89.0,-125.0
127.0,126.0,127.0,127.0,126.0,132.0,131.0,131.0,-1.0,118.0,-63.0,127.0,127.0,127.0,-125.0,-89.0,-125.0
126.0,126.0,127.0,127.0,126.0,132.0,131.0,131.0,-1.0,118.0,-63.0,127.0,127.0,127.0,-125.0,-89.0,-125.0
126.0,126.0,127.0,127.0,126.0,132.0,131.0,131.0,-1.0,118.0,-63.0,127.0,127.0,127.0,-125.0,-89.0,-125.0
127.0,127.0,127.0,127.0,126.0,133.0,131.0,131.0,-1.0,118.0,-63.0,127.0,127.0,127.0,-125.0,-89.0,-125.0
127.0,127.0,127.0,127.0,126.0,132.0,131.0,131.0,-1.0,118.0,-63.0,127.0,127.0,127.0,-125.0,-89.0,-125.0
126.0,127.0,127.0,127.0,125.0,132.0,131.0,131.0,-1.0,118.0,-63.0,127.0,127.0,127.0,-125.0,-89.0,-125.0
126.0,127.0,127.0,127.0,125.0,132.0,131.0,131.0,-1.0,118.0,-63.0,127.0,127.0,127.0,-125.0,-89.0,-125.0
127.0,127.0,127.0,127.0,126.0,132.0,131.0,131.0,-1.0,118.0,-63.0,127.0,127.0,127.0,-125.0,-89.0,-125.0
126.0,127.0,127.0,127.0,125.0,132.0,131.0,131.0,-1.0,118.0,-63.0,127.0,127.0,127.0,-125.0,-89.0,-125.0
126.0,127.0,127.0,127.0,126.0,132.0,131.0,131.0,-1.0,118.0,-63.0,127.0,127.0,127.0,-125.0,-89.0,-125.0
126.0,126.0,127.0,127.0,126.0,132.0,131.0,131.0,-1.0,118.0,-63.0,127.0,127.0,127.0,-125.0,-89.0,-125.0
126.0,126.0,127.0,127.0,126.0,132.0,131.0,131.0,-1.0,118.0,-63.0,127.0,127.0,127.0,-125.0,-89.0,-125.0
127.0,127.0,127.0,128.0,125.0,132.0,131.0,131.0,-1.0,118.0,-63.0,127.0,127.0,127.0,-125.0,-89.0,-125.0
127.0,127.0,127.0,127.0,125.0,132.0,131.0,131.0,-1.0,118.0,-63.0,127.0,127.0,127.0,-125.0,-89.0,-125.0
127.0,127.0,127.0,127.0,125.0,132.0,131.0,131.0,-1.0,118.0,-63.0,127.0,127.0,127.0,-125.0,-89.0,-125.0
127.0,127.0,126.0,127.0,125.0,133.0,127.0,131.0,-1.0,118.0,-63.0,127.0,127.0,127.0,-125.0,-89.0,-125.0
127.0,127.0,126.0,127.0,125.0,133.0,127.0,131.0,-1.0,118.0,-63.0,127.0,127.0,127.0,-125.0,-89.0,-125.0
127.0,127.0,126.0,127.0,125.0,133.0,127.0,131.0,-1.0,118.0,-63.0,127.0,127.0,127.0,-125.0,-89.0,-125.0
127.0,127.0,126.0,127.0,125.0,133.0,126.0,131.0,-1.0,118.0,-63.0,127.0,127.0,127.0,-125.0,-89.0,-125.0
127.0,127.0,126.0,127.0,125.0,133.0,126.0,131.0,-1.0,118.0,-63.0,127.0,127.0,127.0,-125.0,-89.0,-125.0
127.0,127.0,126.0,127.0,125.0,133.0,126.0,131.0,-1.0,118.0,-63.0,127.0,127.0,127.0,-125.0,-89.0,-125.0
127.0,127.0,127.0,127.0,125.0,133.0,127.0,131.0,-1.0,118.0,-63.0,127.0,127.0,127.0,-125.0,-89.0,-125.0
127.0,127.0,126.0,127.0,125.0,133.0,127.0,131.0,-1.0,118.0,-63.0,127.0,127.0,127.0,-125.0,-89.0,-125.0
127.0,127.0,126.0,127.0,125.0,133.0,127.0,131.0,-1.0,118.0,-63.0,127.0,127.0,127.0,-125.0,-89.0,-125.0
127.0,127.0,126.0,128.0,125.0,133.0,127.0,131.0,-1.0,118.0,-63.0,127.0,127.0,127.0,-125.0,-89.0,-125.0
126.0,127.0,127.0,127.0,124.0,133.0,124.0,132.0,-1.0,118.0,-63.0,127.0,127.0,127.0,-125.0,-89.0,-125.0
126.0,127.0,127.0,127.0,124.0,133.0,124.0,132.0,-1.0,118.0,-63.0,127.0,127.0,127.0,-125.0,-89.0,-125.0
127.0,127.0,127.0,127.0,124.0,133.0,124.0,132.0,-1.0,118.0,-63.0,127.0,127.0,127.0,-125.0,-89.0,-125.0
126.0,126.0,127.0,127.0,124.0,133.0,124.0,132.0,-1.0,118.0,-63.0,127.0,127.0,127.0,-125.0,-89.0,-125.0
127.0,126.0,127.0,127.0,124.0,133.0,124.0,132.0,-1.0,118.0,-63.0,127.0,127.0,127.0,-125.0,-89.0,-125.0
127.0,127.0,127.0,128.0,124.0,133.0,125.0,131.0,-1.0,118.0,-63.0,127.0,127.0,127.0,-125.0,-89.0,-125.0
127.0,127.0,127.0,127.0,124.0,133.0,125.0,132.0,-1.0,118.0,-63.0,127.0,127.0,127.0,-125.0,-89.0,-125.0
127.0,127.0,127.0,127.0,124.0,133.0,124.0,132.0,-1.0,118.0,-63.0,127.0,127.0,127.0,-125.0,-89.0,-125.0
126.0,127.0,127.0,127.0,124.0,133.0,124.0,132.0,-1.0,118.0,-63.0,127.0,127.0,127.0,-125.0,-89.0,-125.0
126.0,127.0,127.0,127.0,124.0,133.0,124.0,132.0,-1.0,118.0,-63.0,127.0,127.0,127.0,-125.0,-89.0,-125.0
127.0,126.0,126.0,127.0,124.0,132.0,124.0,131.0,-1.0,118.0,-63.0,127.0,127.0,127.0,-125.0,-89.0,-125.0
127.0,126.0,126.0,127.0,124.0,132.0,124.0,131.0,-1.0,118.0,-63.0,127.0,127.0,127.0,-125.0,-89.0,-125.0
127.0,126.0,126.0,127.0,124.0,132.0,124.0,131.0,-1.0,118.0,-63.0,127.0,127.0,127.0,-125.0,-89.0,-125.0
127.0,126.0,126.0,127.0,125.0,132.0,124.0,131.0,-1.0,118.0,-63.0,127.0,127.0,127.0,-125.0,-89.0,-125.0
127.0,127.0,126.0,127.0,124.0,133.0,125.0,132.0,-1.0,118.0,-63.0,127.0,127.0,127.0,-125.0,-89.0,-125.0
127.0,126.0,126.0,127.0,124.0,133.0,124.0,131.0,-1.0,118.0,-63.0,127.0,127.0,127.0,-125.0,-89.0,-125.0
127.0,126.0,126.0,127.0,124.0,132.0,125.0,131.0,-1.0,118.0,-63.0,127.0,127.0,127.0,-125.0,-89.0,-125.0
126.0,126.0,126.0,127.0,124.0,132.0,124.0,131.0,-1.0,118.0,-63.0,127.0,127.0,127.0,-125.0,-89.0,-125.0
127.0,126.0,126.0,127.0,124.0,132.0,124.0,131.0,-1.0,118.0,-63.0,127.0,127.0,127.0,-125.0,-89.0,-125.0
127.0,126.0,126.0,127.0,124.0,132.0,124.0,131.0,-1.0,118.0,-63.0,127.0,127.0,127.0,-125.0,-89.0,-125.0
126.0,126.0,127.0,127.0,127.0,132.0,123.0,131.0,-1.0,118.0,-63.0,127.0,127.0,127.0,-125.0,-89.0,-125.0
126.0,126.0,127.0,127.0,127.0,131.0,123.0,130.0,-1.0,118.0,-63.0,127.0,127.0,127.0,-125.0,-89.0,-125.0
126.0,126.0,127.0,127.0,127.0,131.0,123.0,131.0,-1.0,118.0,-63.0,127.0,127.0,127.0,-125.0,-89.0,-125.0
127.0,127.0,127.0,127.0,126.0,132.0,123.0,131.0,-1.0,118.0,-63.0,127.0,127.0,127.0,-125.0,-89.0,-125.0
127.0,127.0,127.0,127.0,126.0,132.0,123.0,130.0,-1.0,118.0,-63.0,127.0,127.0,127.0,-125.0,-89.0,-125.0
127.0,127.0,127.0,127.0,126.0,132.0,123.0,130.0,-1.0,118.0,-63.0,127.0,127.0,127.0,-125.0,-89.0,-125.0
126.0,127.0,127.0,127.0,127.0,132.0,123.0,131.0,-1.0,118.0,-63.0,127.0,127.0,127.0,-125.0,-89.0,-125.0
126.0,127.0,127.0,127.0,127.0,132.0,123.0,131.0,-1.0,118.0,-63.0,127.0,127.0,127.0,-125.0,-89.0,-125.0
126.0,127.0,127.0,127.0,127.0,132.0,123.0,131.0,-1.0,118.0,-63.0,127.0,127.0,127.0,-125.0,-89.0,-125.0
126.0,127.0,127.0,127.0,127.0,132.0,123.0,131.0,-1.0,118.0,-63.0,127.0,127.0,127.0,-125.0,-89.0,-125.0
127.0,126.0,128.0,127.0,126.0,130.0,123.0,131.0,-1.0,118.0,-63.0,127.0,127.0,127.0,-125.0,-89.0,-125.0
127.0,126.0,127.0,127.0,126.0,130.0,123.0,131.0,-1.0,118.0,-63.0,127.0,127.0,127.0,-125.0,-89.0,-125.0
127.0,127.0,127.0,128.0,126.0,130.0,123.0,131.0,-1.0,118.0,-63.0,127.0,127.0,127.0,-125.0,-89.0,-125.0
127.0,127.0,128.0,127.0,126.0,130.0,123.0,131.0,-1.0,118.0,-63.0,127.0,127.0,127.0,-125.0,-89.0,-125.0
127.0,127.0,127.0,127.0,126.0,130.0,123.0,131.0,-1.0,118.0,-63.0,127.0,127.0,127.0,-125.0,-89.0,-125.0
127.0,127.0,128.0,127.0,125.0,130.0,123.0,131.0,-1.0,118.0,-63.0,127.0,127.0,127.0,-125.0,-89.0,-125.0
127.0,127.0,128.0,127.0,125.0,131.0,123.0,131.0,-1.0,118.0,-63.0,127.0,127.0,127.0,-125.0,-89.0,-125.0
127.0,127.0,128.0,127.0,125.0,131.0,123.0,131.0,-1.0,118.0,-63.0,127.0,127.0,127.0,-125.0,-89.0,-125.0
127.0,126.0,127.0,127.0,125.0,130.0,123.0,131.0,-1.0,118.0,-63.0,127.0,127.0,127.0,-125.0,-89.0,-125.0
127.0,126.0,127.0,127.0,125.0,130.0,123.0,131.0,-1.0,118.0,-63.0,127.0,127.0,127.0,-125.0,-89.0,-125.0
127.0,126.0,127.0,128.0,126.0,132.0,125.0,131.0,-1.0,118.0,-63.0,127.0,127.0,127.0,-125.0,-89.0,-125.0
127.0,126.0,126.0,127.0,126.0,130.0,124.0,131.0,-1.0,118.0,-63.0,127.0,127.0,127.0,-125.0,-89.0,-125.0
127.0,126.0,126.0,127.0,126.0,130.0,124.0,131.0,-1.0,118.0,-63.0,127.0,127.0,127.0,-125.0,-89.0,-125.0
127.0,126.0,126.0,127.0,126.0,131.0,124.0,131.0,-1.0,118.0,-63.0,127.0,127.0,127.0,-125.0,-89.0,-125.0
127.0,126.0,126.0,128.0,126.0,131.0,124.0,131.0,-1.0,118.0,-63.0,127.0,127.0,127.0,-125.0,-89.0,-125.0
127.0,126.0,126.0,127.0,126.0,131.0,124.0,131.0,-1.0,118.0,-63.0,127.0,127.0,127.0,-125.0,-89.0,-125.0
127.0,126.0,126.0,127.0,126.0,131.0,124.0,131.0,-1.0,118.0,-63.0,127.0,127.0,127.0,-125.0,-89.0,-125.0
127.0,126.0,126.0,127.0,126.0,131.0,124.0,131.0,-1.0,118.0,-63.0,127.0,127.0,127.0,-125.0,-89.0,-125.0
127.0,126.0,126.0,127.0,126.0,131.0,124.0,131.0,-1.0,118.0,-63.0,127.0,127.0,127.0,-125.0,-89.0,-125.0
126.0,126.0,126.0,127.0,126.0,131.0,124.0,131.0,-1.0,118.0,-63.0,127.0,127.0,127.0,-125.0,-89.0,-125.0
127.0,126.0,126.0,127.0,126.0,130.0,126.0,130.0,-1.0,118.0,-63.0,127.0,127.0,127.0,-125.0,-89.0,-125.0
127.0,126.0,126.0,127.0,126.0,130.0,126.0,131.0,-1.0,118.0,-63.0,127.0,127.0,127.0,-125.0,-89.0,-125.0
126.0,126.0,126.0,127.0,126.0,130.0,126.0,131.0,-1.0,118.0,-63.0,127.0,127.0,127.0,-125.0,-89.0,-125.0
127.0,126.0,127.0,127.0,126.0,131.0,126.0,131.0,-1.0,118.0,-63.0,127.0,127.0,127.0,-125.0,-89.0,-125.0
127.0,126.0,127.0,127.0,126.0,131.0,126.0,131.0,-1.0,118.0,-63.0,127.0,127.0,127.0,-125.0,-89.0,-125.0
127.0,126.0,127.0,127.0,126.0,131.0,126.0,131.0,-1.0,118.0,-63.0,127.0,127.0,127.0,-125.0,-89.0,-125.0
127.0,126.0,127.0,127.0,126.0,131.0,126.0,131.0,-1.0,118.0,-63.0,127.0,127.0,127.0,-125.0,-89.0,-125.0
127.0,126.0,127.0,127.0,126.0,131.0,126.0,131.0,-1.0,118.0,-63.0,127.0,127.0,127.0,-125.0,-89.0,-125.0
127.0,126.0,127.0,127.0,126.0,131.0,126.0,131.0,-1.0,118.0,-63.0,127.0,127.0,127.0,-125.0,-89.0,-125.0
127.0,126.0,127.0,127.0,127.0,131.0,126.0,131.0,-1.0,118.0,-63.0,127.0,127.0,127.0,-125.0,-89.0,-125.0
127.0,126.0,127.0,127.0,126.0,130.0,125.0,131.0,-1.0,118.0,-63.0,127.0,127.0,127.0,-125.0,-89.0,-125.0
127.0,126.0,127.0,127.0,126.0,130.0,125.0,131.0,-1.0,118.0,-63.0,127.0,127.0,127.0,-125.0,-89.0,-125.0
127.0,126.0,127.0,127.0,126.0,131.0,126.0,131.0,-1.0,118.0,-63.0,127.0,127.0,127.0,-125.0,-89.0,-125.0
127.0,126.0,127.0,127.0,126.0,131.0,126.0,131.0,-1.0,118.0,-63.0,127.0,127.0,127.0,-125.0,-89.0,-125.0
127.0,126.0,127.0,127.0,126.0,131.0,126.0,131.0,-1.0,118.0,-63.0,127.0,127.0,127.0,-125.0,-89.0,-125.0
127.0,126.0,127.0,127.0,126.0,131.0,126.0,131.0,-1.0,118.0,-63.0,127.0,127.0,127.0,-125.0,-89.0,-125.0
127.0,126.0,127.0,127.0,126.0,131.0,126.0,131.0,-1.0,118.0,-63.0,127.0,127.0,127.0,-125.0,-89.0,-125.0
127.0,126.0,127.0,127.0,126.0,131.0,126.0,131.0,-1.0,118.0,-63.0,127.0,127.0,127.0,-125.0,-89.0,-125.0
127.0,126.0,127.0,127.0,126.0,131.0,126.0,131.0,-1.0,118.0,-63.0,127.0,127.0,127.0,-125.0,-89.0,-125.0
127.0,126.0,127.0,127.0,126.0,130.0,125.0,130.0,-1.0,118.0,-63.0,127.0,127.0,127.0,-125.0,-89.0,-125.0
127.0,127.0,128.0,127.0,126.0,130.0,125.0,131.0,-1.0,118.0,-63.0,127.0,127.0,127.0,-125.0,-89.0,-125.0
127.0,127.0,128.0,128.0,126.0,130.0,125.0,131.0,-1.0,118.0,-63.0,127.0,127.0,127.0,-125.0,-89.0,-125.0
127.0,127.0,128.0,128.0,126.0,130.0,125.0,131.0,-1.0,118.0,-63.0,127.0,127.0,127.0,-125.0,-89.0,-125.0
127.0,127.0,128.0,128.0,126.0,130.0,125.0,131.0,-1.0,118.0,-63.0,127.0,127.0,127.0,-125.0,-89.0,-125.0
127.0,127.0,128.0,128.0,126.0,130.0,125.0,131.0,-1.0,118.0,-63.0,127.0,127.0,127.0,-125.0,-89.0,-125.0
127.0,127.0,128.0,128.0,126.0,130.0,125.0,131.0,-1.0,118.0,-63.0,127.0,127.0,127.0,-125.0,-89.0,-125.0
127.0,127.0,128.0,128.0,126.0,130.0,125.0,131.0,-1.0,118.0,-63.0,127.0,127.0,127.0,-125.0,-89.0,-125.0
127.0,126.0,128.0,127.0,126.0,130.0,125.0,131.0,-1.0,118.0,-63.0,127.0,127.0,127.0,-125.0,-89.0,-125.0
127.0,126.0,128.0,127.0,126.0,130.0,125.0,130.0,-1.0,118.0,-63.0,127.0,127.0,127.0,-125.0,-89.0,-125.0
127.0,126.0,128.0,127.0,126.0,130.0,125.0,131.0,-1.0,118.0,-63.0,127.0,127.0,127.0,-125.0,-89.0,-125.0
127.0,127.0,127.0,127.0,126.0,130.0,123.0,130.0,-1.0,118.0,-63.0,127.0,127.0,127.0,-125.0,-89.0,-125.0
127.0,127.0,127.0,127.0,126.0,130.0,123.0,131.0,-1.0,118.0,-63.0,127.0,127.0,127.0,-125.0,-89.0,-125.0
127.0,127.0,127.0,127.0,126.0,130.0,123.0,131.0,-1.0,118.0,-63.0,127.0,127.0,127.0,-125.0,-89.0,-125.0
127.0,126.0,127.0,128.0,126.0,130.0,123.0,131.0,-1.0,118.0,-63.0,127.0,127.0,127.0,-125.0,-89.0,-125.0
127.0,126.0,127.0,127.0,126.0,130.0,123.0,131.0,-1.0,118.0,-63.0,127.0,127.0,127.0,-125.0,-89.0,-125.0
127.0,126.0,128.0,127.0,126.0,130.0,124.0,131.0,-1.0,118.0,-63.0,127.0,127.0,127.0,-125.0,-89.0,-125.0
127.0,126.0,128.0,127.0,126.0,130.0,123.0,130.0,-1.0,118.0,-63.0,127.0,127.0,127.0,-125.0,-89.0,-125.0
126.0,126.0,127.0,127.0,126.0,130.0,123.0,130.0,-1.0,118.0,-63.0,127.0,127.0,127.0,-125.0,-89.0,-125.0
126.0,127.0,127.0,127.0,126.0,130.0,123.0,130.0,-1.0,118.0,-63.0,127.0,127.0,127.0,-125.0,-89.0,-125.0
126.0,126.0,127.0,127.0,126.0,130.0,123.0,130.0,-1.0,118.0,-63.0,127.0,127.0,127.0,-125.0,-89.0,-125.0
127.0,127.0,128.0,127.0,125.0,129.0,124.0,130.0,-1.0,118.0,-63.0,127.0,127.0,127.0,-125.0,-89.0,-125.0
127.0,126.0,128.0,127.0,125.0,129.0,124.0,130.0,-1.0,118.0,-63.0,127.0,127.0,127.0,-125.0,-89.0,-125.0
126.0,127.0,128.0,127.0,125.0,129.0,124.0,130.0,-1.0,118.0,-63.0,127.0,127.0,127.0,-125.0,-89.0,-125.0
126.0,127.0,128.0,127.0,125.0,130.0,124.0,130.0,-1.0,118.0,-63.0,127.0,127.0,127.0,-125.0,-89.0,-125.0
126.0,127.0,128.0,127.0,125.0,130.0,124.0,130.0,-1.0,118.0,-63.0,127.0,127.0,127.0,-125.0,-89.0,-125.0
126.0,127.0,128.0,127.0,125.0,129.0,124.0,130.0,-1.0,118.0,-63.0,127.0,127.0,127.0,-125.0,-89.0,-125.0
127.0,126.0,128.0,127.0,125.0,129.0,124.0,130.0,-1.0,118.0,-63.0,127.0,127.0,127.0,-125.0,-89.0,-125.0
127.0,126.0,128.0,127.0,125.0,129.0,124.0,130.0,-1.0,118.0,-63.0,127.0,127.0,127.0,-125.0,-89.0,-125.0
127.0,126.0,128.0,127.0,125.0,129.0,124.0,130.0,-1.0,118.0,-63.0,127.0,127.0,127.0,-125.0,-89.0,-125.0
127.0,126.0,128.0,127.0,125.0,129.0,124.0,130.0,-1.0,118.0,-63.0,127.0,127.0,127.0,-125.0,-89.0,-125.0
127.0,126.0,127.0,127.0,127.0,129.0,128.0,130.0,-1.0,118.0,-63.0,127.0,127.0,127.0,-125.0,-89.0,-125.0
126.0,126.0,127.0,127.0,127.0,129.0,128.0,130.0,-1.0,118.0,-63.0,127.0,127.0,127.0,-125.0,-89.0,-125.0
127.0,126.0,127.0,127.0,127.0,129.0,128.0,130.0,-1.0,118.0,-63.0,127.0,127.0,127.0,-125.0,-89.0,-125.0
127.0,126.0,127.0,127.0,127.0,130.0,128.0,130.0,-1.0,118.0,-63.0,127.0,127.0,127.0,-125.0,-89.0,-125.0
127.0,126.0,127.0,127.0,127.0,130.0,128.0,130.0,-1.0,118.0,-63.0,127.0,127.0,127.0,-125.0,-89.0,-125.0
126.0,126.0,127.0,127.0,126.0,129.0,127.0,130.0,-1.0,118.0,-63.0,127.0,127.0,127.0,-125.0,-89.0,-125.0
127.0,126.0,127.0,127.0,126.0,129.0,127.0,130.0,-1.0,118.0,-63.0,127.0,127.0,127.0,-125.0,-89.0,-125.0
126.0,126.0,127.0,127.0,127.0,129.0,128.0,130.0,-1.0,118.0,-63.0,127.0,127.0,127.0,-125.0,-89.0,-125.0
126.0,126.0,127.0,127.0,127.0,129.0,128.0,130.0,-1.0,118.0,-63.0,127.0,127.0,127.0,-125.0,-89.0,-125.0
126.0,126.0,127.0,127.0,127.0,129.0,128.0,130.0,-1.0,118.0,-63.0,127.0,127.0,127.0,-125.0,-89.0,-125.0
127.0,126.0,126.0,127.0,128.0,129.0,131.0,130.0,-1.0,118.0,-64.0,127.0,127.0,127.0,-125.0,-89.0,-125.0
127.0,126.0,126.0,127.0,128.0,129.0,131.0,130.0,-1.0,118.0,-64.0,127.0,127.0,127.0,-125.0,-89.0,-125.0
127.0,126.0,126.0,127.0,128.0,129.0,131.0,130.0,-1.0,118.0,-64.0,127.0,127.0,127.0,-125.0,-89.0,-125.0
127.0,126.0,126.0,127.0,128.0,129.0,131.0,130.0,-1.0,118.0,-64.0,127.0,127.0,127.0,-125.0,-89.0,-125.0
127.0,126.0,126.0,127.0,127.0,130.0,130.0,130.0,-1.0,118.0,-64.0,127.0,127.0,127.0,-125.0,-89.0,-125.0
127.0,126.0,126.0,127.0,127.0,129.0,130.0,130.0,-1.0,118.0,-64.0,127.0,127.0,127.0,-125.0,-89.0,-125.0
127.0,127.0,126.0,128.0,127.0,129.0,130.0,130.0,-1.0,118.0,-64.0,127.0,127.0,127.0,-125.0,-89.0,-125.0
127.0,126.0,126.0,128.0,127.0,129.0,131.0,130.0,-1.0,118.0,-64.0,127.0,127.0,127.0,-125.0,-89.0,-125.0
127.0,126.0,126.0,128.0,127.0,129.0,131.0,130.0,-1.0,118.0,-64.0,127.0,127.0,127.0,-125.0,-89.0,-125.0
127.0,127.0,126.0,127.0,128.0,129.0,131.0,130.0,-1.0,118.0,-64.0,127.0,127.0,127.0,-125.0,-89.0,-125.0
126.0,126.0,126.0,127.0,125.0,130.0,132.0,131.0,-1.0,118.0,-64.0,127.0,127.0,127.0,-125.0,-89.0,-125.0
127.0,126.0,127.0,127.0,125.0,130.0,132.0,131.0,-1.0,118.0,-64.0,127.0,127.0,127.0,-125.0,-89.0,-125.0
127.0,126.0,127.0,127.0,125.0,130.0,132.0,131.0,-1.0,118.0,-64.0,127.0,127.0,127.0,-125.0,-89.0,-125.0
127.0,126.0,126.0,127.0,126.0,129.0,132.0,130.0,-1.0,118.0,-64.0,127.0,127.0,127.0,-125.0,-89.0,-125.0
127.0,126.0,126.0,127.0,126.0,129.0,132.0,131.0,-1.0,118.0,-64.0,127.0,127.0,127.0,-125.0,-89.0,-125.0
127.0,126.0,126.0,127.0,125.0,129.0,132.0,131.0,-1.0,118.0,-64.0,127.0,127.0,127.0,-125.0,-89.0,-125.0
127.0,126.0,126.0,127.0,125.0,129.0,132.0,131.0,-1.0,118.0,-64.0,127.0,127.0,127.0,-125.0,-89.0,-125.0
127.0,126.0,126.0,127.0,125.0,129.0,132.0,131.0,-1.0,118.0,-64.0,127.0,127.0,127.0,-125.0,-89.0,-125.0
127.0,126.0,126.0,127.0,125.0,129.0,132.0,131.0,-1.0,118.0,-64.0,127.0,127.0,127.0,-125.0,-89.0,-125.0
126.0,126.0,126.0,127.0,125.0,129.0,132.0,131.0,-1.0,118.0,-64.0,127.0,127.0,127.0,-125.0,-89.0,-125.0
127.0,126.0,127.0,127.0,125.0,131.0,131.0,131.0,-1.0,118.0,-64.0,127.0,127.0,127.0,-125.0,-89.0,-125.0
127.0,126.0,127.0,127.0,125.0,131.0,131.0,131.0,-1.0,118.0,-64.0,127.0,127.0,127.0,-125.0,-89.0,-125.0
126.0,126.0,127.0,127.0,125.0,129.0,131.0,130.0,-1.0,118.0,-64.0,127.0,127.0,127.0,-125.0,-89.0,-125.0
127.0,126.0,127.0,127.0,124.0,130.0,131.0,131.0,-1.0,118.0,-64.0,127.0,127.0,127.0,-125.0,-89.0,-125.0
127.0,126.0,127.0,128.0,124.0,130.0,131.0,130.0,-1.0,118.0,-64.0,127.0,127.0,127.0,-125.0,-89.0,-125.0
127.0,126.0,127.0,127.0,124.0,130.0,131.0,131.0,-1.0,118.0,-64.0,127.0,127.0,127.0,-125.0,-89.0,-125.0
127.0,126.0,127.0,127.0,125.0,130.0,131.0,130.0,-1.0,118.0,-64.0,127.0,127.0,127.0,-125.0,-89.0,-125.0
127.0,126.0,127.0,127.0,125.0,130.0,131.0,130.0,-1.0,118.0,-64.0,127.0,127.0,127.0,-125.0,-89.0,-125.0
127.0,126.0,127.0,127.0,125.0,130.0,131.0,130.0,-1.0,118.0,-64.0,127.0,127.0,127.0,-125.0,-89.0,-125.0
127.0,126.0,127.0,127.0,124.0,131.0,131.0,130.0,-1.0,118.0,-64.0,127.0,127.0,127.0,-125.0,-89.0,-125.0
127.0,126.0,128.0,128.0,125.0,131.0,131.0,129.0,-1.0,118.0,-64.0,127.0,127.0,127.0,-125.0,-89.0,-125.0
127.0,126.0,128.0,127.0,125.0,129.0,130.0,129.0,-1.0,118.0,-64.0,127.0,127.0,127.0,-125.0,-89.0,-125.0
127.0,126.0,128.0,127.0,125.0,130.0,131.0,129.0,-1.0,118.0,-64.0,127.0,127.0,127.0,-125.0,-89.0,-125.0
127.0,126.0,128.0,127.0,125.0,130.0,131.0,129.0,-1.0,118.0,-64.0,127.0,127.0,127.0,-125.0,-89.0,-125.0
127.0,126.0,128.0,127.0,125.0,130.0,131.0,129.0,-1.0,118.0,-64.0,127.0,127.0,127.0,-125.0,-89.0,-125.0
127.0,126.0,128.0,127.0,125.0,130.0,131.0,129.0,-1.0,118.0,-64.0,127.0,127.0,127.0,-125.0,-89.0,-125.0
127.0,126.0,128.0,127.0,125.0,130.0,131.0,129.0,-1.0,118.0,-64.0,127.0,127.0,127.0,-125.0,-89.0,-125.0
127.0,126.0,128.0,127.0,125.0,130.0,131.0,129.0,-1.0,118.0,-64.0,127.0,127.0,127.0,-125.0,-89.0,-125.0
127.0,126.0,128.0,127.0,125.0,130.0,131.0,129.0,-1.0,118.0,-64.0,127.0,127.0,127.0,-125.0,-89.0,-125.0
127.0,126.0,128.0,128.0,125.0,131.0,131.0,129.0,-1.0,118.0,-64.0,127.0,127.0,127.0,-125.0,-89.0,-125.0
127.0,126.0,128.0,127.0,125.0,129.0,131.0,129.0,-1.0,118.0,-64.0,127.0,127.0,127.0,-125.0,-89.0,-125.0
126.0,126.0,128.0,127.0,125.0,129.0,131.0,129.0,-1.0,118.0,-64.0,127.0,127.0,127.0,-125.0,-89.0,-125.0
127.0,127.0,128.0,127.0,125.0,129.0,131.0,129.0,-1.0,118.0,-64.0,127.0,127.0,127.0,-125.0,-89.0,-125.0
127.0,127.0,128.0,127.0,126.0,129.0,131.0,129.0,-1.0,118.0,-64.0,127.0,127.0,127.0,-125.0,-89.0,-125.0
127.0,127.0,128.0,127.0,126.0,129.0,131.0,129.0,-1.0,118.0,-64.0,127.0,127.0,127.0,-125.0,-89.0,-125.0
127.0,126.0,128.0,127.0,126.0,129.0,131.0,129.0,-1.0,118.0,-64.0,127.0,127.0,127.0,-125.0,-89.0,-125.0
127.0,126.0,128.0,127.0,126.0,129.0,131.0,129.0,-1.0,118.0,-64.0,127.0,127.0,127.0,-125.0,-89.0,-125.0
127.0,127.0,128.0,127.0,126.0,130.0,131.0,129.0,-1.0,118.0,-64.0,127.0,127.0,127.0,-125.0,-89.0,-125.0
127.0,127.0,128.0,128.0,126.0,130.0,131.0,130.0,-1.0,118.0,-64.0,127.0,127.0,127.0,-125.0,-89.0,-125.0
127.0,127.0,128.0,128.0,127.0,130.0,131.0,130.0,-1.0,118.0,-64.0,127.0,127.0,127.0,-125.0,-89.0,-125.0
126.0,126.0,126.0,127.0,127.0,130.0,128.0,129.0,-1.0,118.0,-64.0,127.0,127.0,127.0,-125.0,-89.0,-125.0
126.0,126.0,127.0,127.0,127.0,130.0,129.0,130.0,-1.0,118.0,-64.0,127.0,127.0,127.0,-125.0,-89.0,-125.0
127.0,126.0,127.0,127.0,127.0,130.0,128.0,130.0,-1.0,118.0,-64.0,127.0,127.0,127.0,-125.0,-89.0,-125.0
127.0,126.0,127.0,127.0,127.0,130.0,128.0,130.0,-1.0,118.0,-64.0,127.0,127.0,127.0,-125.0,-89.0,-125.0
127.0,126.0,127.0,127.0,127.0,130.0,128.0,130.0,-1.0,118.0,-64.0,127.0,127.0,127.0,-125.0,-89.0,-125.0
127.0,126.0,127.0,127.0,127.0,130.0,128.0,130.0,-1.0,118.0,-64.0,127.0,127.0,127.0,-125.0,-89.0,-125.0
127.0,126.0,126.0,127.0,127.0,130.0,128.0,130.0,-1.0,118.0,-64.0,127.0,127.0,127.0,-125.0,-89.0,-125.0
127.0,126.0,127.0,127.0,127.0,130.0,128.0,130.0,-1.0,118.0,-64.0,127.0,127.0,127.0,-125.0,-89.0,-125.0
127.0,126.0,127.0,127.0,127.0,130.0,128.0,130.0,-1.0,118.0,-64.0,127.0,127.0,127.0,-125.0,-89.0,-125.0
126.0,126.0,127.0,127.0,127.0,129.0,128.0,129.0,-1.0,118.0,-64.0,127.0,127.0,127.0,-125.0,-89.0,-125.0
127.0,126.0,127.0,127.0,127.0,130.0,128.0,130.0,-1.0,118.0,-64.0,127.0,127.0,127.0,-125.0,-89.0,-125.0
127.0,127.0,127.0,127.0,127.0,130.0,128.0,130.0,-1.0,118.0,-64.0,127.0,127.0,127.0,-125.0,-89.0,-125.0
127.0,126.0,127.0,127.0,127.0,130.0,128.0,130.0,-1.0,118.0,-64.0,127.0,127.0,127.0,-125.0,-89.0,-125.0
127.0,126.0,127.0,127.0,127.0,130.0,128.0,130.0,-1.0,118.0,-64.0,127.0,127.0,127.0,-125.0,-89.0,-125.0
127.0,126.0,127.0,127.0,127.0,130.0,128.0,130.0,-1.0,118.0,-64.0,127.0,127.0,127.0,-125.0,-89.0,-125.0
127.0,126.0,127.0,127.0,127.0,130.0,128.0,130.0,-1.0,118.0,-64.0,127.0,127.0,127.0,-125.0,-89.0,-125.0
127.0,127.0,127.0,128.0,127.0,130.0,128.0,130.0,-1.0,118.0,-64.0,127.0,127.0,127.0,-125.0,-89.0,-125.0
127.0,127.0,127.0,128.0,127.0,130.0,128.0,130.0,-1.0,118.0,-64.0,127.0,127.0,127.0,-125.0,-89.0,-125.0
127.0,126.0,127.0,127.0,127.0,129.0,128.0,130.0,-1.0,118.0,-64.0,127.0,127.0,127.0,-125.0,-89.0,-125.0
127.0,126.0,127.0,127.0,127.0,129.0,128.0,130.0,-1.0,118.0,-64.0,127.0,127.0,127.0,-125.0,-89.0,-125.0
127.0,127.0,127.0,128.0,126.0,129.0,128.0,129.0,-1.0,118.0,-64.0,127.0,127.0,127.0,-125.0,-89.0,-125.0
127.0,127.0,127.0,127.0,125.0,129.0,128.0,129.0,-1.0,118.0,-64.0,127.0,127.0,127.0,-125.0,-89.0,-125.0
127.0,127.0,127.0,127.0,125.0,129.0,128.0,129.0,-1.0,118.0,-64.0,127.0,127.0,127.0,-125.0,-89.0,-125.0
127.0,127.0,127.0,127.0,125.0,129.0,128.0,129.0,-1.0,118.0,-64.0,127.0,127.0,127.0,-125.0,-89.0,-125.0
127.0,126.0,127.0,127.0,125.0,129.0,128.0,129.0,-1.0,118.0,-64.0,127.0,127.0,127.0,-125.0,-89.0,-125.0
127.0,127.0,127.0,127.0,125.0,130.0,129.0,130.0,-1.0,118.0,-64.0,127.0,127.0,127.0,-125.0,-89.0,-125.0
127.0,127.0,127.0,128.0,125.0,130.0,129.0,130.0,-1.0,118.0,-64.0,127.0,127.0,127.0,-125.0,-89.0,-125.0
127.0,126.0,127.0,127.0,126.0,129.0,128.0,129.0,-1.0,118.0,-64.0,127.0,127.0,127.0,-125.0,-89.0,-125.0
127.0,126.0,127.0,127.0,126.0,129.0,128.0,129.0,-1.0,118.0,-64.0,127.0,127.0,127.0,-125.0,-89.0,-125.0
127.0,127.0,127.0,127.0,126.0,129.0,128.0,129.0,-1.0,118.0,-64.0,127.0,127.0,127.0,-125.0,-89.0,-125.0
127.0,127.0,128.0,127.0,125.0,128.0,129.0,129.0,-1.0,118.0,-64.0,127.0,127.0,127.0,-125.0,-89.0,-125.0
127.0,127.0,127.0,127.0,125.0,128.0,129.0,129.0,-1.0,118.0,-64.0,127.0,127.0,127.0,-125.0,-89.0,-125.0
127.0,127.0,128.0,127.0,125.0,128.0,129.0,129.0,-1.0,118.0,-64.0,127.0,127.0,127.0,-125.0,-89.0,-125.0
127.0,127.0,128.0,127.0,126.0,128.0,129.0,130.0,-1.0,118.0,-64.0,127.0,127.0,127.0,-125.0,-89.0,-125.0
127.0,127.0,128.0,128.0,125.0,129.0,129.0,130.0,-1.0,118.0,-64.0,127.0,127.0,127.0,-125.0,-89.0,-125.0
127.0,127.0,128.0,128.0,125.0,129.0,129.0,130.0,-1.0,118.0,-64.0,127.0,127.0,127.0,-125.0,-89.0,-125.0
127.0,126.0,127.0,127.0,125.0,128.0,129.0,129.0,-1.0,118.0,-64.0,127.0,127.0,127.0,-125.0,-89.0,-125.0
127.0,126.0,127.0,127.0,125.0,128.0,129.0,129.0,-1.0,118.0,-64.0,127.0,127.0,127.0,-125.0,-89.0,-125.0
127.0,127.0,127.0,127.0,125.0,128.0,129.0,129.0,-1.0,118.0,-64.0,127.0,127.0,127.0,-125.0,-89.0,-125.0
127.0,127.0,127.0,127.0,125.0,128.0,129.0,129.0,-1.0,118.0,-64.0,127.0,127.0,127.0,-125.0,-89.0,-125.0
126.0,126.0,127.0,127.0,126.0,128.0,129.0,129.0,-1.0,118.0,-64.0,127.0,127.0,127.0,-125.0,-89.0,-125.0
126.0,126.0,127.0,127.0,126.0,128.0,128.0,130.0,-1.0,118.0,-64.0,127.0,127.0,127.0,-125.0,-89.0,-125.0
126.0,126.0,127.0,127.0,126.0,128.0,129.0,130.0,-1.0,118.0,-64.0,127.0,127.0,127.0,-125.0,-89.0,-125.0
126.0,126.0,127.0,127.0,126.0,128.0,128.0,130.0,-1.0,118.0,-64.0,127.0,127.0,127.0,-125.0,-89.0,-125.0
126.0,126.0,127.0,127.0,126.0,128.0,128.0,130.0,-1.0,118.0,-64.0,127.0,127.0,127.0,-125.0,-89.0,-125.0
127.0,126.0,127.0,127.0,126.0,128.0,128.0,130.0,-1.0,118.0,-64.0,127.0,127.0,127.0,-125.0,-89.0,-125.0
126.0,126.0,127.0,127.0,125.0,128.0,129.0,130.0,-1.0,118.0,-64.0,127.0,127.0,127.0,-125.0,-89.0,-125.0
126.0,126.0,127.0,127.0,125.0,128.0,129.0,130.0,-1.0,118.0,-64.0,127.0,127.0,127.0,-125.0,-89.0,-125.0
126.0,126.0,127.0,127.0,125.0,128.0,128.0,129.0,-1.0,118.0,-64.0,127.0,127.0,127.0,-125.0,-89.0,-125.0
126.0,126.0,127.0,127.0,125.0,128.0,129.0,129.0,-1.0,118.0,-64.0,127.0,127.0,127.0,-125.0,-89.0,-125.0
127.0,126.0,128.0,128.0,126.0,130.0,127.0,130.0,-1.0,118.0,-64.0,127.0,127.0,127.0,-125.0,-89.0,-125.0
127.0,126.0,128.0,128.0,126.0,130.0,127.0,130.0,-1.0,118.0,-64.0,127.0,127.0,127.0,-125.0,-89.0,-125.0
127.0,126.0,128.0,128.0,126.0,130.0,127.0,130.0,-1.0,118.0,-64.0,127.0,127.0,127.0,-125.0,-89.0,-125.0
127.0,127.0,128.0,128.0,126.0,131.0,127.0,131.0,-1.0,118.0,-64.0,127.0,127.0,127.0,-125.0,-89.0,-125.0
127.0,127.0,128.0,128.0,126.0,131.0,127.0,131.0,-1.0,118.0,-64.0,127.0,127.0,127.0,-125.0,-89.0,-125.0
127.0,126.0,127.0,127.0,126.0,130.0,127.0,130.0,-1.0,118.0,-64.0,127.0,127.0,127.0,-125.0,-89.0,-125.0
127.0,126.0,127.0,127.0,126.0,130.0,127.0,130.0,-1.0,118.0,-64.0,127.0,127.0,127.0,-125.0,-89.0,-125.0
127.0,126.0,128.0,127.0,126.0,130.0,127.0,130.0,-1.0,118.0,-64.0,127.0,127.0,127.0,-125.0,-89.0,-125.0
127.0,126.0,128.0,127.0,126.0,130.0,127.0,130.0,-1.0,118.0,-64.0,127.0,127.0,127.0,-125.0,-89.0,-125.0
127.0,126.0,128.0,127.0,126.0,130.0,127.0,130.0,-1.0,118.0,-64.0,127.0,127.0,127.0,-125.0,-89.0,-125.0
127.0,126.0,127.0,127.0,126.0,130.0,126.0,130.0,-1.0,118.0,-63.0,127.0,127.0,127.0,-125.0,-89.0,-125.0
127.0,126.0,127.0,127.0,126.0,130.0,126.0,130.0,-1.0,118.0,-63.0,127.0,127.0,127.0,-125.0,-89.0,-125.0
127.0,126.0,127.0,127.0,126.0,130.0,126.0,130.0,-1.0,118.0,-63.0,127.0,127.0,127.0,-125.0,-89.0,-125.0
127.0,126.0,127.0,127.0,126.0,130.0,126.0,130.0,-1.0,118.0,-63.0,127.0,127.0,127.0,-125.0,-89.0,-125.0
126.0,126.0,127.0,127.0,125.0,130.0,126.0,130.0,-1.0,118.0,-63.0,127.0,127.0,127.0,-125.0,-89.0,-125.0
127.0,126.0,127.0,127.0,126.0,130.0,126.0,130.0,-1.0,118.0,-63.0,127.0,127.0,127.0,-125.0,-89.0,-125.0
127.0,126.0,127.0,127.0,125.0,130.0,126.0,130.0,-1.0,118.0,-63.0,127.0,127.0,127.0,-125.0,-89.0,-125.0
127.0,126.0,127.0,127.0,126.0,130.0,126.0,130.0,-1.0,118.0,-63.0,127.0,127.0,127.0,-125.0,-89.0,-125.0
127.0,126.0,127.0,127.0,126.0,130.0,126.0,130.0,-1.0,118.0,-63.0,127.0,127.0,127.0,-125.0,-89.0,-125.0
127.0,126.0,127.0,127.0,126.0,130.0,126.0,130.0,-1.0,118.0,-63.0,127.0,127.0,127.0,-125.0,-89.0,-125.0
127.0,126.0,127.0,127.0,126.0,130.0,126.0,129.0,-1.0,118.0,-63.0,127.0,127.0,127.0,-125.0,-89.0,-125.0
127.0,126.0,127.0,127.0,126.0,130.0,126.0,129.0,-1.0,118.0,-63.0,127.0,127.0,127.0,-125.0,-89.0,-125.0
127.0,126.0,127.0,127.0,126.0,130.0,126.0,129.0,-1.0,118.0,-63.0,127.0,127.0,127.0,-125.0,-89.0,-125.0
127.0,126.0,126.0,127.0,126.0,130.0,127.0,130.0,-1.0,118.0,-63.0,127.0,127.0,127.0,-125.0,-89.0,-125.0
127.0,126.0,127.0,127.0,126.0,130.0,127.0,130.0,-1.0,118.0,-63.0,127.0,127.0,127.0,-125.0,-89.0,-125.0
127.0,126.0,127.0,127.0,126.0,130.0,127.0,130.0,-1.0,118.0,-63.0,127.0,127.0,127.0,-125.0,-89.0,-125.0
127.0,126.0,127.0,127.0,126.0,130.0,126.0,130.0,-1.0,118.0,-63.0,127.0,127.0,127.0,-125.0,-89.0,-125.0
127.0,126.0,127.0,127.0,126.0,130.0,126.0,130.0,-1.0,118.0,-63.0,127.0,127.0,127.0,-125.0,-89.0,-125.0
127.0,126.0,127.0,127.0,126.0,130.0,126.0,129.0,-1.0,118.0,-63.0,127.0,127.0,127.0,-125.0,-89.0,-125.0
127.0,126.0,127.0,127.0,126.0,130.0,126.0,129.0,-1.0,118.0,-63.0,127.0,127.0,127.0,-125.0,-89.0,-125.0
127.0,126.0,127.0,127.0,126.0,130.0,127.0,129.0,-1.0,118.0,-63.0,127.0,127.0,127.0,-125.0,-89.0,-125.0
127.0,126.0,127.0,127.0,126.0,129.0,127.0,129.0,-1.0,118.0,-63.0,127.0,127.0,127.0,-125.0,-89.0,-125.0
127.0,127.0,127.0,127.0,126.0,130.0,127.0,129.0,-1.0,118.0,-63.0,127.0,127.0,127.0,-125.0,-89.0,-125.0
127.0,127.0,127.0,127.0,126.0,130.0,127.0,129.0,-1.0,118.0,-63.0,127.0,127.0,127.0,-125.0,-89.0,-125.0
127.0,127.0,127.0,127.0,126.0,130.0,127.0,129.0,-1.0,118.0,-63.0,127.0,127.0,127.0,-125.0,-89.0,-125.0
127.0,127.0,127.0,127.0,126.0,130.0,127.0,129.0,-1.0,118.0,-63.0,127.0,127.0,127.0,-125.0,-89.0,-125.0
127.0,127.0,127.0,127.0,126.0,130.0,127.0,129.0,-1.0,118.0,-63.0,127.0,127.0,127.0,-125.0,-89.0,-125.0
127.0,126.0,127.0,127.0,126.0,130.0,127.0,129.0,-1.0,118.0,-63.0,127.0,127.0,127.0,-125.0,-89.0,-125.0
127.0,126.0,127.0,127.0,126.0,130.0,127.0,129.0,-1.0,118.0,-63.0,127.0,127.0,127.0,-125.0,-89.0,-125.0
127.0,126.0,127.0,127.0,126.0,130.0,127.0,129.0,-1.0,118.0,-63.0,127.0,127.0,127.0,-125.0,-89.0,-125.0
126.0,126.0,127.0,127.0,127.0,130.0,126.0,130.0,-1.0,117.0,-63.0,127.0,127.0,127.0,-125.0,-89.0,-125.0
126.0,126.0,127.0,127.0,127.0,130.0,126.0,130.0,-1.0,117.0,-63.0,127.0,127.0,127.0,-125.0,-89.0,-125.0
126.0,126.0,127.0,127.0,127.0,130.0,126.0,130.0,-1.0,117.0,-63.0,127.0,127.0,127.0,-125.0,-89.0,-125.0
126.0,126.0,127.0,127.0,126.0,130.0,126.0,130.0,-1.0,117.0,-63.0,127.0,127.0,127.0,-125.0,-89.0,-125.0
126.0,126.0,127.0,127.0,127.0,130.0,126.0,130.0,-1.0,117.0,-63.0,127.0,127.0,127.0,-125.0,-89.0,-125.0
127.0,126.0,127.0,127.0,127.0,130.0,126.0,130.0,-1.0,117.0,-63.0,127.0,127.0,127.0,-125.0,-89.0,-125.0
127.0,126.0,127.0,127.0,127.0,130.0,126.0,130.0,-1.0,117.0,-63.0,127.0,127.0,127.0,-125.0,-89.0,-125.0
127.0,126.0,127.0,127.0,127.0,130.0,126.0,130.0,-1.0,117.0,-63.0,127.0,127.0,127.0,-125.0,-89.0,-125.0
127.0,126.0,127.0,127.0,127.0,130.0,126.0,130.0,-1.0,117.0,-63.0,127.0,127.0,127.0,-125.0,-89.0,-125.0
127.0,126.0,127.0,127.0,127.0,130.0,126.0,130.0,-1.0,117.0,-63.0,127.0,127.0,127.0,-125.0,-89.0,-125.0
127.0,126.0,127.0,128.0,126.0,130.0,127.0,130.0,-1.0,117.0,-64.0,127.0,127.0,127.0,-125.0,-89.0,-125.0
127.0,126.0,127.0,128.0,126.0,130.0,127.0,130.0,-1.0,117.0,-64.0,127.0,127.0,127.0,-125.0,-89.0,-125.0
127.0,126.0,127.0,128.0,126.0,130.0,127.0,130.0,-1.0,117.0,-64.0,127.0,127.0,127.0,-125.0,-89.0,-125.0
127.0,126.0,127.0,128.0,126.0,130.0,127.0,130.0,-1.0,117.0,-64.0,127.0,127.0,127.0,-125.0,-89.0,-125.0
127.0,126.0,127.0,128.0,127.0,130.0,127.0,130.0,-1.0,117.0,-64.0,127.0,127.0,127.0,-125.0,-89.0,-125.0
127.0,126.0,127.0,128.0,127.0,130.0,127.0,130.0,-1.0,117.0,-64.0,127.0,127.0,127.0,-125.0,-89.0,-125.0
127.0,126.0,127.0,128.0,127.0,130.0,126.0,130.0,-1.0,117.0,-64.0,127.0,127.0,127.0,-125.0,-89.0,-125.0
127.0,126.0,127.0,128.0,127.0,130.0,126.0,130.0,-1.0,117.0,-64.0,127.0,127.0,127.0,-125.0,-89.0,-125.0
127.0,126.0,127.0,128.0,127.0,130.0,126.0,130.0,-1.0,117.0,-64.0,127.0,127.0,127.0,-125.0,-89.0,-125.0
127.0,126.0,127.0,127.0,127.0,129.0,126.0,130.0,-1.0,117.0,-64.0,127.0,127.0,127.0,-125.0,-89.0,-125.0
127.0,126.0,127.0,128.0,126.0,130.0,126.0,130.0,-1.0,117.0,-64.0,127.0,127.0,127.0,-125.0,-89.0,-125.0
127.0,126.0,127.0,128.0,126.0,130.0,126.0,130.0,-1.0,117.0,-64.0,127.0,127.0,127.0,-125.0,-89.0,-125.0
127.0,126.0,127.0,128.0,126.0,130.0,126.0,130.0,-1.0,117.0,-64.0,127.0,127.0,127.0,-125.0,-89.0,-125.0
127.0,126.0,127.0,128.0,126.0,130.0,126.0,130.0,-1.0,117.0,-64.0,127.0,127.0,127.0,-125.0,-89.0,-125.0
127.0,126.0,127.0,127.0,126.0,130.0,126.0,130.0,-1.0,117.0,-64.0,127.0,127.0,127.0,-125.0,-89.0,-125.0
127.0,126.0,127.0,127.0,126.0,130.0,126.0,130.0,-1.0,117.0,-64.0,127.0,127.0,127.0,-125.0,-89.0,-125.0
127.0,126.0,127.0,127.0,126.0,130.0,126.0,130.0,-1.0,117.0,-64.0,127.0,127.0,127.0,-125.0,-89.0,-125.0
127.0,126.0,127.0,127.0,126.0,130.0,126.0,130.0,-1.0,117.0,-64.0,127.0,127.0,127.0,-125.0,-89.0,-125.0
127.0,126.0,127.0,128.0,127.0,130.0,126.0,130.0,-1.0,117.0,-64.0,127.0,127.0,127.0,-125.0,-89.0,-125.0
127.0,126.0,127.0,128.0,126.0,130.0,126.0,130.0,-1.0,117.0,-64.0,127.0,127.0,127.0,-125.0,-89.0,-125.0
127.0,125.0,127.0,127.0,126.0,129.0,128.0,129.0,-1.0,117.0,-64.0,127.0,127.0,127.0,-125.0,-89.0,-125.0
127.0,126.0,127.0,127.0,126.0,129.0,128.0,130.0,-1.0,117.0,-64.0,127.0,127.0,127.0,-125.0,-89.0,-125.0
127.0,126.0,127.0,127.0,126.0,129.0,128.0,130.0,-1.0,117.0,-64.0,127.0,127.0,127.0,-125.0,-89.0,-125.0
127.0,126.0,127.0,127.0,126.0,129.0,128.0,130.0,-1.0,117.0,-64.0,127.0,127.0,127.0,-125.0,-89.0,-125.0
127.0,126.0,127.0,127.0,126.0,129.0,128.0,130.0,-1.0,117.0,-64.0,127.0,127.0,127.0,-125.0,-89.0,-125.0
126.0,126.0,127.0,127.0,126.0,129.0,128.0,130.0,-1.0,117.0,-64.0,127.0,127.0,127.0,-125.0,-89.0,-125.0
126.0,126.0,127.0,127.0,126.0,129.0,128.0,130.0,-1.0,117.0,-64.0,127.0,127.0,127.0,-125.0,-89.0,-125.0
127.0,125.0,127.0,127.0,126.0,129.0,128.0,129.0,-1.0,117.0,-64.0,127.0,127.0,127.0,-125.0,-89.0,-125.0
126.0,125.0,127.0,127.0,126.0,129.0,128.0,129.0,-1.0,117.0,-64.0,127.0,127.0,127.0,-125.0,-89.0,-125.0
126.0,125.0,127.0,127.0,126.0,129.0,128.0,129.0,-1.0,117.0,-64.0,127.0,127.0,127.0,-125.0,-89.0,-125.0
126.0,126.0,126.0,127.0,124.0,130.0,128.0,130.0,-1.0,117.0,-64.0,127.0,127.0,127.0,-125.0,-89.0,-125.0
126.0,126.0,126.0,127.0,124.0,130.0,128.0,130.0,-1.0,117.0,-64.0,127.0,127.0,127.0,-125.0,-89.0,-125.0
126.0,126.0,126.0,127.0,124.0,130.0,128.0,130.0,-1.0,117.0,-64.0,127.0,127.0,127.0,-125.0,-89.0,-125.0
126.0,126.0,126.0,127.0,124.0,129.0,128.0,130.0,-1.0,117.0,-64.0,127.0,127.0,127.0,-125.0,-89.0,-125.0
126.0,126.0,126.0,127.0,124.0,129.0,128.0,130.0,-1.0,117.0,-64.0,127.0,127.0,127.0,-125.0,-89.0,-125.0
127.0,126.0,126.0,127.0,124.0,129.0,128.0,130.0,-1.0,117.0,-64.0,127.0,127.0,127.0,-125.0,-89.0,-125.0
127.0,126.0,126.0,127.0,125.0,129.0,128.0,130.0,-1.0,117.0,-64.0,127.0,127.0,127.0,-125.0,-89.0,-125.0
127.0,126.0,126.0,127.0,125.0,130.0,128.0,130.0,-1.0,117.0,-64.0,127.0,127.0,127.0,-125.0,-89.0,-125.0
126.0,126.0,126.0,127.0,124.0,130.0,128.0,130.0,-1.0,117.0,-64.0,127.0,127.0,127.0,-125.0,-89.0,-125.0
126.0,126.0,126.0,127.0,124.0,130.0,128.0,130.0,-1.0,117.0,-64.0,127.0,127.0,127.0,-125.0,-89.0,-125.0
127.0,127.0,127.0,127.0,125.0,130.0,127.0,130.0,-1.0,117.0,-64.0,127.0,127.0,127.0,-125.0,-89.0,-125.0
127.0,127.0,127.0,127.0,125.0,130.0,127.0,130.0,-1.0,117.0,-64.0,127.0,127.0,127.0,-125.0,-89.0,-125.0
127.0,126.0,127.0,127.0,125.0,130.0,127.0,130.0,-1.0,117.0,-64.0,127.0,127.0,127.0,-125.0,-89.0,-125.0
127.0,126.0,127.0,127.0,126.0,129.0,127.0,130.0,-1.0,117.0,-64.0,127.0,127.0,127.0,-125.0,-89.0,-125.0
127.0,126.0,127.0,127.0,126.0,129.0,127.0,130.0,-1.0,117.0,-64.0,127.0,127.0,127.0,-125.0,-89.0,-125.0
127.0,126.0,127.0,127.0,126.0,129.0,127.0,130.0,-1.0,117.0,-64.0,127.0,127.0,127.0,-125.0,-89.0,-125.0
127.0,127.0,127.0,127.0,125.0,130.0,128.0,131.0,-1.0,117.0,-64.0,127.0,127.0,127.0,-125.0,-89.0,-125.0
127.0,127.0,127.0,128.0,125.0,130.0,128.0,131.0,-1.0,117.0,-64.0,127.0,127.0,127.0,-125.0,-89.0,-125.0
127.0,127.0,127.0,127.0,125.0,130.0,128.0,131.0,-1.0,117.0,-64.0,127.0,127.0,127.0,-125.0,-89.0,-125.0
127.0,127.0,127.0,127.0,125.0,130.0,128.0,131.0,-1.0,117.0,-64.0,127.0,127.0,127.0,-125.0,-89.0,-125.0
127.0,126.0,127.0,127.0,126.0,129.0,128.0,130.0,-1.0,117.0,-64.0,127.0,127.0,127.0,-125.0,-89.0,-125.0
127.0,126.0,127.0,127.0,126.0,129.0,128.0,130.0,-1.0,117.0,-64.0,127.0,127.0,127.0,-125.0,-89.0,-125.0
127.0,126.0,127.0,127.0,126.0,129.0,128.0,130.0,-1.0,117.0,-64.0,127.0,127.0,127.0,-125.0,-89.0,-125.0
127.0,126.0,127.0,127.0,126.0,129.0,128.0,130.0,-1.0,117.0,-64.0,127.0,127.0,127.0,-125.0,-89.0,-125.0
127.0,126.0,127.0,127.0,126.0,129.0,128.0,130.0,-1.0,117.0,-64.0,127.0,127.0,127.0,-125.0,-89.0,-125.0
127.0,126.0,127.0,127.0,126.0,129.0,127.0,130.0,-1.0,117.0,-64.0,127.0,127.0,127.0,-125.0,-89.0,-125.0
127.0,126.0,127.0,128.0,126.0,129.0,128.0,130.0,-1.0,117.0,-64.0,127.0,127.0,127.0,-125.0,-89.0,-125.0
127.0,126.0,127.0,128.0,126.0,129.0,128.0,130.0,-1.0,117.0,-64.0,127.0,127.0,127.0,-125.0,-89.0,-125.0
127.0,126.0,127.0,127.0,126.0,129.0,128.0,130.0,-1.0,117.0,-64.0,127.0,127.0,127.0,-125.0,-89.0,-125.0
127.0,126.0,127.0,128.0,126.0,129.0,128.0,130.0,-1.0,117.0,-64.0,127.0,127.0,127.0,-125.0,-89.0,-125.0
127.0,127.0,128.0,128.0,126.0,129.0,128.0,129.0,-1.0,117.0,-64.0,127.0,127.0,127.0,-125.0,-89.0,-125.0
127.0,127.0,128.0,127.0,126.0,129.0,129.0,129.0,-1.0,117.0,-64.0,127.0,127.0,127.0,-125.0,-89.0,-125.0
127.0,127.0,128.0,127.0,126.0,128.0,129.0,129.0,-1.0,117.0,-64.0,127.0,127.0,127.0,-125.0,-89.0,-125.0
127.0,126.0,128.0,127.0,126.0,128.0,129.0,129.0,-1.0,117.0,-64.0,127.0,127.0,127.0,-125.0,-89.0,-125.0
127.0,126.0,128.0,127.0,126.0,128.0,128.0,129.0,-1.0,117.0,-64.0,127.0,127.0,127.0,-125.0,-89.0,-125.0
127.0,127.0,128.0,127.0,125.0,129.0,129.0,130.0,-1.0,117.0,-64.0,127.0,127.0,127.0,-125.0,-89.0,-125.0
127.0,127.0,128.0,127.0,125.0,129.0,128.0,130.0,-1.0,117.0,-64.0,127.0,127.0,127.0,-125.0,-89.0,-125.0
127.0,127.0,128.0,128.0,126.0,129.0,128.0,130.0,-1.0,117.0,-64.0,127.0,127.0,127.0,-125.0,-89.0,-125.0
127.0,127.0,128.0,127.0,126.0,129.0,128.0,129.0,-1.0,117.0,-64.0,127.0,127.0,127.0,-125.0,-89.0,-125.0
127.0,127.0,128.0,127.0,126.0,129.0,129.0,129.0,-1.0,117.0,-64.0,127.0,127.0,127.0,-125.0,-89.0,-125.0
127.0,126.0,128.0,128.0,125.0,128.0,128.0,129.0,-1.0,117.0,-64.0,127.0,127.0,127.0,-125.0,-89.0,-125.0
127.0,126.0,128.0,127.0,125.0,128.0,128.0,129.0,-1.0,117.0,-64.0,127.0,127.0,127.0,-125.0,-89.0,-125.0
127.0,126.0,128.0,127.0,125.0,128.0,128.0,129.0,-1.0,117.0,-64.0,127.0,127.0,127.0,-125.0,-89.0,-125.0
127.0,126.0,127.0,127.0,125.0,128.0,129.0,129.0,-1.0,117.0,-64.0,127.0,127.0,127.0,-125.0,-89.0,-125.0
127.0,126.0,127.0,127.0,125.0,129.0,129.0,129.0,-1.0,117.0,-64.0,127.0,127.0,127.0,-125.0,-89.0,-125.0
127.0,126.0,127.0,128.0,125.0,129.0,129.0,129.0,-1.0,117.0,-64.0,127.0,127.0,127.0,-125.0,-89.0,-125.0
127.0,126.0,127.0,128.0,125.0,129.0,129.0,129.0,-1.0,117.0,-64.0,127.0,127.0,127.0,-125.0,-89.0,-125.0
127.0,126.0,127.0,128.0,125.0,128.0,129.0,129.0,-1.0,117.0,-64.0,127.0,127.0,127.0,-125.0,-89.0,-125.0
127.0,126.0,127.0,128.0,125.0,129.0,129.0,129.0,-1.0,117.0,-64.0,127.0,127.0,127.0,-125.0,-89.0,-125.0
127.0,126.0,128.0,128.0,125.0,128.0,128.0,129.0,-1.0,117.0,-64.0,127.0,127.0,127.0,-125.0,-89.0,-125.0
127.0,126.0,127.0,127.0,126.0,128.0,127.0,129.0,-1.0,117.0,-64.0,127.0,127.0,127.0,-125.0,-89.0,-125.0
127.0,126.0,127.0,127.0,126.0,128.0,127.0,129.0,-1.0,117.0,-64.0,127.0,127.0,127.0,-125.0,-89.0,-125.0
127.0,126.0,127.0,127.0,126.0,128.0,127.0,129.0,-1.0,117.0,-64.0,127.0,127.0,127.0,-125.0,-89.0,-125.0
127.0,126.0,127.0,127.0,126.0,129.0,127.0,130.0,-1.0,117.0,-64.0,127.0,127.0,127.0,-125.0,-89.0,-125.0
127.0,127.0,127.0,128.0,126.0,129.0,127.0,130.0,-1.0,117.0,-64.0,127.0,127.0,127.0,-125.0,-89.0,-125.0
127.0,126.0,127.0,128.0,126.0,129.0,127.0,129.0,-1.0,117.0,-64.0,127.0,127.0,127.0,-125.0,-89.0,-125.0
127.0,126.0,127.0,128.0,126.0,129.0,127.0,129.0,-1.0,117.0,-64.0,127.0,127.0,127.0,-125.0,-89.0,-125.0
127.0,126.0,127.0,128.0,126.0,129.0,127.0,130.0,-1.0,117.0,-64.0,127.0,127.0,127.0,-125.0,-89.0,-125.0
127.0,126.0,127.0,128.0,126.0,128.0,127.0,130.0,-1.0,117.0,-64.0,127.0,127.0,127.0,-125.0,-89.0,-125.0
127.0,126.0,127.0,128.0,126.0,128.0,127.0,129.0,-1.0,117.0,-64.0,127.0,127.0,127.0,-125.0,-89.0,-125.0
126.0,127.0,127.0,127.0,128.0,127.0,126.0,129.0,-1.0,117.0,-64.0,127.0,127.0,127.0,-125.0,-89.0,-125.0
127.0,127.0,128.0,127.0,127.0,127.0,126.0,129.0,-1.0,117.0,-64.0,127.0,127.0,127.0,-125.0,-89.0,-125.0
127.0,127.0,128.0,127.0,127.0,128.0,126.0,129.0,-1.0,117.0,-64.0,127.0,127.0,127.0,-125.0,-89.0,-125.0
127.0,127.0,128.0,127.0,127.0,128.0,126.0,129.0,-1.0,117.0,-64.0,127.0,127.0,127.0,-125.0,-89.0,-125.0
127.0,127.0,128.0,127.0,127.0,128.0,126.0,129.0,-1.0,117.0,-64.0,127.0,127.0,127.0,-125.0,-89.0,-125.0
127.0,127.0,128.0,127.0,127.0,128.0,126.0,129.0,-1.0,117.0,-64.0,127.0,127.0,127.0,-125.0,-89.0,-125.0
127.0,127.0,128.0,127.0,127.0,128.0,126.0,129.0,-1.0,117.0,-64.0,127.0,127.0,127.0,-125.0,-89.0,-125.0
127.0,127.0,128.0,127.0,127.0,128.0,126.0,129.0,-1.0,117.0,-64.0,127.0,127.0,127.0,-125.0,-89.0,-125.0
127.0,127.0,127.0,127.0,128.0,128.0,126.0,129.0,-1.0,117.0,-64.0,127.0,127.0,127.0,-125.0,-89.0,-125.0
126.0,127.0,127.0,127.0,128.0,127.0,126.0,129.0,-1.0,117.0,-64.0,127.0,127.0,127.0,-125.0,-89.0,-125.0
126.0,126.0,127.0,127.0,126.0,126.0,127.0,128.0,-1.0,117.0,-64.0,127.0,127.0,127.0,-125.0,-89.0,-125.0
126.0,126.0,127.0,127.0,126.0,126.0,127.0,128.0,-1.0,117.0,-64.0,127.0,127.0,127.0,-125.0,-89.0,-125.0
126.0,126.0,127.0,127.0,126.0,126.0,127.0,128.0,-1.0,117.0,-64.0,127.0,127.0,127.0,-125.0,-89.0,-125.0
126.0,126.0,127.0,127.0,126.0,126.0,127.0,128.0,-1.0,117.0,-64.0,127.0,127.0,127.0,-125.0,-89.0,-125.0
126.0,126.0,127.0,127.0,126.0,126.0,127.0,128.0,-1.0,117.0,-64.0,127.0,127.0,127.0,-125.0,-89.0,-125.0
126.0,126.0,127.0,127.0,126.0,126.0,127.0,129.0,-1.0,117.0,-64.0,127.0,127.0,127.0,-125.0,-89.0,-125.0
126.0,126.0,127.0,127.0,126.0,126.0,127.0,129.0,-1.0,117.0,-64.0,127.0,127.0,127.0,-125.0,-89.0,-125.0
