emg1,emg2,emg3,emg4,emg5,emg6,emg7,emg8,acc_x,acc_y,acc_z,gyro_x,gyro_y,gyro_z,angle_pitch,angle_roll,angle_yaw
127.0,124.0,127.0,128.0,127.0,128.0,126.0,130.0,-1.0,108.0,-71.0,127.0,127.0,127.0,-118.0,-88.0,123.0
127.0,124.0,127.0,128.0,127.0,128.0,126.0,131.0,-1.0,108.0,-71.0,127.0,127.0,127.0,-118.0,-88.0,123.0
127.0,124.0,127.0,128.0,127.0,128.0,126.0,130.0,-1.0,108.0,-71.0,127.0,127.0,127.0,-118.0,-88.0,123.0
127.0,124.0,127.0,128.0,127.0,128.0,126.0,130.0,-1.0,108.0,-71.0,127.0,127.0,127.0,-118.0,-88.0,123.0
127.0,124.0,127.0,128.0,127.0,127.0,126.0,130.0,-1.0,108.0,-71.0,127.0,127.0,127.0,-118.0,-88.0,123.0
127.0,124.0,127.0,127.0,127.0,127.0,126.0,130.0,-1.0,108.0,-71.0,127.0,127.0,127.0,-118.0,-88.0,123.0
127.0,124.0,127.0,127.0,127.0,128.0,126.0,130.0,-1.0,108.0,-71.0,127.0,127.0,127.0,-118.0,-88.0,123.0
127.0,124.0,127.0,127.0,127.0,128.0,127.0,130.0,-1.0,108.0,-71.0,127.0,127.0,127.0,-118.0,-88.0,123.0
127.0,124.0,127.0,127.0,127.0,128.0,127.0,130.0,-1.0,108.0,-71.0,127.0,127.0,127.0,-118.0,-88.0,123.0
127.0,124.0,127.0,127.0,127.0,128.0,127.0,130.0,-1.0,108.0,-71.0,127.0,127.0,127.0,-118.0,-88.0,123.0
127.0,124.0,127.0,127.0,127.0,128.0,127.0,130.0,-1.0,108.0,-71.0,127.0,127.0,127.0,-118.0,-88.0,123.0
127.0,124.0,127.0,127.0,127.0,128.0,127.0,130.0,-1.0,108.0,-71.0,127.0,127.0,127.0,-118.0,-88.0,123.0
127.0,124.0,127.0,127.0,127.0,128.0,127.0,130.0,-1.0,108.0,-71.0,127.0,127.0,127.0,-118.0,-88.0,123.0
127.0,124.0,127.0,127.0,127.0,127.0,127.0,130.0,-1.0,108.0,-71.0,127.0,127.0,127.0,-118.0,-88.0,123.0
127.0,124.0,127.0,127.0,127.0,128.0,127.0,130.0,-1.0,108.0,-71.0,127.0,127.0,127.0,-118.0,-88.0,123.0
127.0,124.0,127.0,127.0,127.0,127.0,127.0,130.0,-1.0,108.0,-71.0,127.0,127.0,127.0,-118.0,-88.0,123.0
127.0,124.0,127.0,127.0,127.0,128.0,127.0,130.0,-1.0,108.0,-71.0,127.0,127.0,127.0,-118.0,-88.0,123.0
127.0,126.0,127.0,127.0,127.0,128.0,126.0,130.0,-1.0,108.0,-71.0,127.0,127.0,127.0,-118.0,-88.0,123.0
127.0,125.0,128.0,127.0,127.0,128.0,126.0,130.0,-1.0,108.0,-71.0,127.0,127.0,127.0,-118.0,-88.0,123.0
127.0,125.0,128.0,127.0,127.0,128.0,126.0,129.0,-1.0,108.0,-71.0,127.0,127.0,127.0,-118.0,-88.0,123.0
127.0,125.0,128.0,127.0,127.0,128.0,126.0,129.0,-1.0,108.0,-71.0,127.0,127.0,127.0,-118.0,-88.0,123.0
127.0,125.0,128.0,127.0,127.0,128.0,126.0,129.0,-1.0,108.0,-71.0,127.0,127.0,127.0,-118.0,-88.0,123.0
127.0,125.0,128.0,127.0,127.0,127.0,126.0,129.0,-1.0,108.0,-71.0,127.0,127.0,127.0,-118.0,-88.0,123.0
127.0,125.0,128.0,127.0,127.0,127.0,126.0,129.0,-1.0,108.0,-71.0,127.0,127.0,127.0,-118.0,-88.0,123.0
127.0,125.0,128.0,127.0,127.0,127.0,126.0,129.0,-1.0,108.0,-71.0,127.0,127.0,127.0,-118.0,-88.0,123.0
127.0,126.0,127.0,127.0,127.0,128.0,126.0,130.0,-1.0,108.0,-71.0,127.0,127.0,127.0,-118.0,-88.0,123.0
127.0,126.0,127.0,127.0,127.0,128.0,126.0,130.0,-1.0,108.0,-71.0,127.0,127.0,127.0,-118.0,-88.0,123.0
126.0,125.0,127.0,127.0,127.0,128.0,126.0,130.0,-1.0,108.0,-71.0,127.0,127.0,127.0,-118.0,-88.0,123.0
126.0,125.0,127.0,127.0,127.0,128.0,126.0,130.0,-1.0,108.0,-71.0,127.0,127.0,127.0,-118.0,-88.0,123.0
126.0,125.0,127.0,127.0,127.0,128.0,126.0,130.0,-1.0,108.0,-71.0,127.0,127.0,127.0,-118.0,-88.0,123.0
126.0,125.0,127.0,127.0,127.0,128.0,126.0,130.0,-1.0,108.0,-71.0,127.0,127.0,127.0,-118.0,-88.0,123.0
126.0,125.0,127.0,127.0,127.0,128.0,126.0,129.0,-1.0,108.0,-71.0,127.0,127.0,127.0,-118.0,-88.0,123.0
126.0,125.0,127.0,127.0,127.0,128.0,126.0,130.0,-1.0,108.0,-71.0,127.0,127.0,127.0,-118.0,-88.0,123.0
126.0,125.0,127.0,127.0,127.0,127.0,126.0,129.0,-1.0,108.0,-71.0,127.0,127.0,127.0,-118.0,-88.0,123.0
126.0,125.0,127.0,127.0,127.0,128.0,126.0,130.0,-1.0,108.0,-71.0,127.0,127.0,127.0,-118.0,-88.0,123.0
126.0,125.0,127.0,127.0,127.0,128.0,126.0,130.0,-1.0,108.0,-71.0,127.0,127.0,127.0,-118.0,-88.0,123.0
126.0,125.0,127.0,127.0,127.0,128.0,126.0,130.0,-1.0,108.0,-71.0,127.0,127.0,127.0,-118.0,-88.0,123.0
126.0,125.0,127.0,127.0,127.0,128.0,126.0,130.0,-1.0,108.0,-71.0,127.0,127.0,127.0,-118.0,-88.0,123.0
126.0,125.0,127.0,127.0,127.0,128.0,126.0,130.0,-1.0,108.0,-71.0,127.0,127.0,127.0,-118.0,-88.0,123.0
126.0,125.0,127.0,127.0,127.0,128.0,126.0,130.0,-1.0,108.0,-71.0,127.0,127.0,127.0,-118.0,-88.0,123.0
126.0,125.0,127.0,127.0,127.0,128.0,126.0,130.0,-1.0,108.0,-71.0,127.0,127.0,127.0,-118.0,-88.0,123.0
126.0,125.0,127.0,127.0,127.0,128.0,126.0,130.0,-1.0,108.0,-71.0,127.0,127.0,127.0,-118.0,-88.0,123.0
126.0,125.0,127.0,127.0,127.0,128.0,126.0,129.0,-1.0,108.0,-71.0,127.0,127.0,127.0,-118.0,-88.0,123.0
126.0,125.0,127.0,127.0,127.0,129.0,126.0,130.0,-1.0,108.0,-71.0,127.0,127.0,127.0,-118.0,-88.0,123.0
126.0,125.0,127.0,127.0,127.0,128.0,126.0,130.0,-1.0,108.0,-71.0,127.0,127.0,127.0,-118.0,-88.0,123.0
126.0,125.0,127.0,127.0,127.0,129.0,126.0,130.0,-1.0,108.0,-71.0,127.0,127.0,127.0,-118.0,-88.0,123.0
126.0,125.0,127.0,127.0,127.0,129.0,126.0,130.0,-1.0,108.0,-71.0,127.0,127.0,127.0,-118.0,-88.0,123.0
127.0,125.0,127.0,127.0,127.0,128.0,126.0,129.0,-1.0,108.0,-71.0,127.0,127.0,127.0,-118.0,-88.0,123.0
126.0,125.0,127.0,127.0,127.0,128.0,126.0,129.0,-1.0,108.0,-71.0,127.0,127.0,127.0,-118.0,-88.0,123.0
126.0,125.0,127.0,127.0,127.0,128.0,126.0,129.0,-1.0,108.0,-71.0,127.0,127.0,127.0,-118.0,-88.0,123.0
126.0,125.0,127.0,127.0,127.0,128.0,126.0,129.0,-1.0,108.0,-71.0,127.0,127.0,127.0,-118.0,-88.0,123.0
126.0,125.0,127.0,127.0,127.0,128.0,126.0,129.0,-1.0,108.0,-71.0,127.0,127.0,127.0,-118.0,-88.0,123.0
127.0,125.0,127.0,127.0,126.0,129.0,126.0,129.0,-1.0,108.0,-71.0,127.0,127.0,127.0,-118.0,-88.0,123.0
127.0,125.0,127.0,127.0,127.0,128.0,126.0,129.0,-1.0,108.0,-71.0,127.0,127.0,127.0,-118.0,-88.0,123.0
127.0,125.0,127.0,127.0,127.0,128.0,126.0,129.0,-1.0,108.0,-71.0,127.0,127.0,127.0,-118.0,-88.0,123.0
127.0,125.0,127.0,127.0,127.0,128.0,126.0,129.0,-1.0,108.0,-71.0,127.0,127.0,127.0,-118.0,-88.0,123.0
127.0,125.0,127.0,127.0,127.0,128.0,126.0,129.0,-1.0,108.0,-71.0,127.0,127.0,127.0,-118.0,-88.0,123.0
126.0,126.0,127.0,127.0,127.0,128.0,126.0,129.0,-1.0,108.0,-71.0,127.0,127.0,127.0,-118.0,-88.0,123.0
126.0,126.0,127.0,127.0,127.0,128.0,126.0,129.0,-1.0,108.0,-71.0,127.0,127.0,127.0,-118.0,-88.0,123.0
126.0,125.0,127.0,127.0,127.0,128.0,126.0,129.0,-1.0,108.0,-71.0,127.0,127.0,127.0,-118.0,-88.0,123.0
126.0,125.0,127.0,127.0,127.0,128.0,126.0,129.0,-1.0,108.0,-71.0,127.0,127.0,127.0,-118.0,-88.0,123.0
126.0,126.0,127.0,127.0,126.0,129.0,126.0,129.0,-1.0,108.0,-71.0,127.0,127.0,127.0,-118.0,-88.0,123.0
126.0,126.0,127.0,127.0,126.0,129.0,126.0,129.0,-1.0,108.0,-71.0,127.0,127.0,127.0,-118.0,-88.0,123.0
126.0,126.0,127.0,127.0,126.0,129.0,126.0,129.0,-1.0,108.0,-71.0,127.0,127.0,127.0,-118.0,-88.0,123.0
127.0,126.0,127.0,127.0,126.0,129.0,126.0,129.0,-1.0,108.0,-71.0,127.0,127.0,127.0,-118.0,-88.0,123.0
127.0,126.0,127.0,127.0,127.0,129.0,126.0,129.0,-1.0,108.0,-71.0,127.0,127.0,127.0,-118.0,-88.0,123.0
126.0,126.0,127.0,127.0,127.0,128.0,126.0,129.0,-1.0,108.0,-71.0,127.0,127.0,127.0,-118.0,-88.0,123.0
126.0,125.0,127.0,127.0,127.0,128.0,126.0,129.0,-1.0,109.0,-71.0,127.0,127.0,127.0,-118.0,-88.0,123.0
127.0,125.0,127.0,127.0,127.0,129.0,126.0,129.0,-1.0,109.0,-71.0,127.0,127.0,127.0,-118.0,-88.0,123.0
127.0,125.0,127.0,127.0,127.0,129.0,126.0,129.0,-1.0,109.0,-71.0,127.0,127.0,127.0,-118.0,-88.0,123.0
127.0,125.0,127.0,127.0,127.0,127.0,127.0,129.0,-1.0,109.0,-71.0,127.0,127.0,127.0,-118.0,-88.0,123.0
126.0,125.0,127.0,127.0,127.0,128.0,127.0,129.0,-1.0,109.0,-71.0,127.0,127.0,127.0,-118.0,-88.0,123.0
126.0,126.0,127.0,127.0,127.0,128.0,127.0,129.0,-1.0,109.0,-71.0,127.0,127.0,127.0,-118.0,-88.0,123.0
126.0,125.0,127.0,127.0,127.0,128.0,127.0,129.0,-1.0,109.0,-71.0,127.0,127.0,127.0,-118.0,-88.0,123.0
126.0,125.0,127.0,127.0,127.0,128.0,126.0,129.0,-1.0,109.0,-71.0,127.0,127.0,127.0,-118.0,-88.0,123.0
126.0,125.0,127.0,127.0,127.0,128.0,126.0,129.0,-1.0,109.0,-71.0,127.0,127.0,127.0,-118.0,-88.0,123.0
127.0,125.0,127.0,127.0,127.0,128.0,127.0,129.0,-1.0,109.0,-71.0,127.0,127.0,127.0,-118.0,-88.0,123.0
127.0,125.0,127.0,127.0,126.0,129.0,127.0,130.0,-1.0,109.0,-71.0,127.0,127.0,127.0,-118.0,-88.0,123.0
127.0,125.0,127.0,127.0,126.0,129.0,126.0,130.0,-1.0,109.0,-71.0,127.0,127.0,127.0,-118.0,-88.0,123.0
126.0,125.0,127.0,127.0,127.0,127.0,127.0,129.0,-1.0,109.0,-71.0,127.0,127.0,127.0,-118.0,-88.0,123.0
126.0,125.0,127.0,127.0,126.0,127.0,127.0,130.0,-1.0,109.0,-71.0,127.0,127.0,127.0,-118.0,-88.0,123.0
126.0,125.0,127.0,127.0,126.0,128.0,127.0,130.0,-1.0,109.0,-71.0,127.0,127.0,127.0,-118.0,-88.0,123.0
126.0,125.0,127.0,127.0,126.0,128.0,127.0,130.0,-1.0,109.0,-71.0,127.0,127.0,127.0,-118.0,-88.0,123.0
126.0,125.0,127.0,127.0,126.0,128.0,127.0,130.0,-1.0,109.0,-71.0,127.0,127.0,127.0,-118.0,-88.0,123.0
126.0,125.0,127.0,127.0,127.0,128.0,127.0,130.0,-1.0,109.0,-71.0,127.0,127.0,127.0,-118.0,-88.0,123.0
127.0,125.0,127.0,127.0,127.0,128.0,127.0,130.0,-1.0,109.0,-71.0,127.0,127.0,127.0,-118.0,-88.0,123.0
127.0,125.0,127.0,127.0,127.0,128.0,126.0,130.0,-1.0,109.0,-71.0,127.0,127.0,127.0,-118.0,-88.0,123.0
127.0,126.0,127.0,128.0,126.0,129.0,126.0,130.0,-1.0,108.0,-71.0,127.0,127.0,127.0,-118.0,-88.0,123.0
127.0,125.0,127.0,127.0,127.0,127.0,126.0,130.0,-1.0,108.0,-71.0,127.0,127.0,127.0,-118.0,-88.0,123.0
127.0,125.0,127.0,127.0,127.0,128.0,126.0,130.0,-1.0,108.0,-71.0,127.0,127.0,127.0,-118.0,-88.0,123.0
127.0,126.0,127.0,127.0,126.0,128.0,126.0,130.0,-1.0,108.0,-71.0,127.0,127.0,127.0,-118.0,-88.0,123.0
127.0,126.0,127.0,128.0,126.0,128.0,126.0,130.0,-1.0,108.0,-71.0,127.0,127.0,127.0,-118.0,-88.0,123.0
127.0,126.0,127.0,128.0,127.0,128.0,126.0,130.0,-1.0,108.0,-71.0,127.0,127.0,127.0,-118.0,-88.0,123.0
126.0,126.0,127.0,128.0,127.0,128.0,126.0,130.0,-1.0,108.0,-71.0,127.0,127.0,127.0,-118.0,-88.0,123.0
127.0,126.0,127.0,128.0,127.0,128.0,126.0,130.0,-1.0,108.0,-71.0,127.0,127.0,127.0,-118.0,-88.0,123.0
127.0,125.0,127.0,127.0,127.0,128.0,126.0,130.0,-1.0,108.0,-71.0,127.0,127.0,127.0,-118.0,-88.0,123.0
127.0,126.0,127.0,127.0,126.0,129.0,126.0,130.0,-1.0,108.0,-71.0,127.0,127.0,127.0,-118.0,-88.0,123.0
126.0,125.0,127.0,127.0,127.0,127.0,127.0,129.0,-1.0,108.0,-71.0,127.0,127.0,127.0,-118.0,-88.0,123.0
126.0,125.0,127.0,127.0,127.0,127.0,127.0,129.0,-1.0,108.0,-71.0,127.0,127.0,127.0,-118.0,-88.0,123.0
126.0,125.0,127.0,127.0,126.0,128.0,126.0,130.0,-1.0,108.0,-71.0,127.0,127.0,127.0,-118.0,-88.0,123.0
127.0,125.0,127.0,127.0,126.0,128.0,126.0,130.0,-1.0,108.0,-71.0,127.0,127.0,127.0,-118.0,-88.0,123.0
127.0,125.0,127.0,127.0,127.0,128.0,126.0,130.0,-1.0,108.0,-71.0,127.0,127.0,127.0,-118.0,-88.0,123.0
127.0,125.0,127.0,127.0,127.0,128.0,126.0,130.0,-1.0,108.0,-71.0,127.0,127.0,127.0,-118.0,-88.0,123.0
127.0,125.0,127.0,128.0,127.0,128.0,126.0,130.0,-1.0,108.0,-71.0,127.0,127.0,127.0,-118.0,-88.0,123.0
126.0,125.0,127.0,128.0,127.0,128.0,126.0,130.0,-1.0,108.0,-71.0,127.0,127.0,127.0,-118.0,-88.0,123.0
126.0,126.0,127.0,128.0,126.0,129.0,126.0,130.0,-1.0,108.0,-71.0,127.0,127.0,127.0,-118.0,-88.0,123.0
127.0,125.0,127.0,128.0,126.0,129.0,126.0,130.0,-1.0,108.0,-71.0,127.0,127.0,127.0,-118.0,-88.0,123.0
126.0,125.0,127.0,127.0,127.0,127.0,127.0,129.0,-1.0,109.0,-71.0,127.0,127.0,127.0,-118.0,-88.0,123.0
126.0,125.0,127.0,127.0,127.0,128.0,126.0,129.0,-1.0,109.0,-71.0,127.0,127.0,127.0,-118.0,-88.0,123.0
126.0,125.0,127.0,127.0,127.0,128.0,126.0,130.0,-1.0,109.0,-71.0,127.0,127.0,127.0,-118.0,-88.0,123.0
126.0,125.0,127.0,127.0,127.0,128.0,126.0,130.0,-1.0,109.0,-71.0,127.0,127.0,127.0,-118.0,-88.0,123.0
126.0,125.0,127.0,127.0,127.0,128.0,126.0,129.0,-1.0,109.0,-71.0,127.0,127.0,127.0,-118.0,-88.0,123.0
126.0,125.0,127.0,127.0,127.0,128.0,126.0,129.0,-1.0,109.0,-71.0,127.0,127.0,127.0,-118.0,-88.0,123.0
126.0,125.0,127.0,127.0,127.0,128.0,126.0,129.0,-1.0,109.0,-71.0,127.0,127.0,127.0,-118.0,-88.0,123.0
126.0,125.0,127.0,127.0,127.0,128.0,126.0,130.0,-1.0,109.0,-71.0,127.0,127.0,127.0,-118.0,-88.0,123.0
126.0,125.0,127.0,127.0,127.0,129.0,126.0,130.0,-1.0,109.0,-71.0,127.0,127.0,127.0,-118.0,-88.0,123.0
126.0,125.0,127.0,127.0,127.0,127.0,127.0,129.0,-1.0,109.0,-71.0,127.0,127.0,127.0,-118.0,-88.0,123.0
127.0,125.0,127.0,127.0,126.0,128.0,126.0,130.0,-1.0,109.0,-71.0,127.0,127.0,127.0,-118.0,-88.0,123.0
127.0,125.0,127.0,127.0,126.0,128.0,126.0,130.0,-1.0,109.0,-71.0,127.0,127.0,127.0,-118.0,-88.0,123.0
127.0,125.0,127.0,127.0,126.0,128.0,126.0,130.0,-1.0,109.0,-71.0,127.0,127.0,127.0,-118.0,-88.0,123.0
127.0,125.0,127.0,127.0,127.0,128.0,126.0,130.0,-1.0,109.0,-71.0,127.0,127.0,127.0,-118.0,-88.0,123.0
127.0,125.0,127.0,127.0,127.0,128.0,126.0,130.0,-1.0,109.0,-71.0,127.0,127.0,127.0,-118.0,-88.0,123.0
127.0,125.0,127.0,127.0,127.0,128.0,126.0,130.0,-1.0,109.0,-71.0,127.0,127.0,127.0,-118.0,-88.0,123.0
127.0,125.0,127.0,127.0,126.0,128.0,126.0,130.0,-1.0,109.0,-71.0,127.0,127.0,127.0,-118.0,-88.0,123.0
127.0,125.0,127.0,127.0,126.0,129.0,126.0,130.0,-1.0,109.0,-71.0,127.0,127.0,127.0,-118.0,-88.0,123.0
127.0,125.0,127.0,127.0,127.0,127.0,126.0,129.0,-1.0,109.0,-71.0,127.0,127.0,127.0,-118.0,-88.0,123.0
127.0,125.0,127.0,127.0,127.0,127.0,126.0,130.0,-1.0,109.0,-71.0,127.0,127.0,127.0,-118.0,-88.0,123.0
127.0,125.0,127.0,127.0,126.0,128.0,127.0,129.0,-1.0,108.0,-71.0,127.0,127.0,127.0,-118.0,-88.0,123.0
127.0,125.0,127.0,127.0,126.0,128.0,127.0,129.0,-1.0,108.0,-71.0,127.0,127.0,127.0,-118.0,-88.0,123.0
127.0,125.0,127.0,127.0,127.0,128.0,126.0,129.0,-1.0,108.0,-71.0,127.0,127.0,127.0,-118.0,-88.0,123.0
127.0,125.0,127.0,127.0,127.0,128.0,126.0,129.0,-1.0,108.0,-71.0,127.0,127.0,127.0,-118.0,-88.0,123.0
127.0,125.0,127.0,127.0,127.0,128.0,126.0,129.0,-1.0,108.0,-71.0,127.0,127.0,127.0,-118.0,-88.0,123.0
127.0,125.0,127.0,127.0,126.0,128.0,126.0,129.0,-1.0,108.0,-71.0,127.0,127.0,127.0,-118.0,-88.0,123.0
127.0,125.0,127.0,127.0,126.0,129.0,126.0,129.0,-1.0,108.0,-71.0,127.0,127.0,127.0,-118.0,-88.0,123.0
127.0,125.0,127.0,127.0,127.0,127.0,127.0,129.0,-1.0,108.0,-71.0,127.0,127.0,127.0,-118.0,-88.0,123.0
127.0,124.0,127.0,127.0,127.0,127.0,127.0,129.0,-1.0,108.0,-71.0,127.0,127.0,127.0,-118.0,-88.0,123.0
127.0,125.0,127.0,127.0,126.0,128.0,127.0,129.0,-1.0,108.0,-71.0,127.0,127.0,127.0,-118.0,-88.0,123.0
127.0,124.0,127.0,127.0,127.0,128.0,126.0,129.0,-1.0,108.0,-71.0,127.0,127.0,127.0,-118.0,-88.0,123.0
127.0,124.0,127.0,127.0,127.0,128.0,126.0,129.0,-1.0,108.0,-71.0,127.0,127.0,127.0,-118.0,-88.0,123.0
127.0,124.0,127.0,127.0,127.0,128.0,126.0,129.0,-1.0,108.0,-71.0,127.0,127.0,127.0,-118.0,-88.0,123.0
127.0,124.0,127.0,127.0,127.0,128.0,126.0,129.0,-1.0,108.0,-71.0,127.0,127.0,127.0,-118.0,-88.0,123.0
127.0,124.0,127.0,127.0,127.0,128.0,126.0,129.0,-1.0,108.0,-71.0,127.0,127.0,127.0,-118.0,-88.0,123.0
127.0,124.0,127.0,127.0,127.0,128.0,126.0,130.0,-1.0,108.0,-71.0,127.0,127.0,127.0,-118.0,-88.0,123.0
127.0,124.0,127.0,127.0,127.0,127.0,127.0,129.0,-1.0,108.0,-71.0,127.0,127.0,127.0,-118.0,-88.0,123.0
127.0,124.0,127.0,127.0,127.0,127.0,126.0,129.0,-1.0,108.0,-71.0,127.0,127.0,127.0,-118.0,-88.0,123.0
127.0,124.0,127.0,127.0,127.0,127.0,126.0,129.0,-1.0,108.0,-71.0,127.0,127.0,127.0,-118.0,-88.0,123.0
127.0,124.0,127.0,127.0,127.0,128.0,126.0,129.0,-1.0,108.0,-71.0,127.0,127.0,127.0,-118.0,-88.0,123.0
127.0,124.0,127.0,127.0,127.0,127.0,127.0,129.0,-1.0,108.0,-71.0,127.0,127.0,127.0,-118.0,-88.0,123.0
127.0,124.0,127.0,127.0,127.0,127.0,127.0,129.0,-1.0,108.0,-71.0,127.0,127.0,127.0,-118.0,-88.0,123.0
127.0,124.0,127.0,127.0,127.0,127.0,127.0,129.0,-1.0,108.0,-71.0,127.0,127.0,127.0,-118.0,-88.0,123.0
127.0,124.0,127.0,127.0,127.0,127.0,127.0,129.0,-1.0,108.0,-71.0,127.0,127.0,127.0,-118.0,-88.0,123.0
127.0,124.0,127.0,127.0,127.0,127.0,127.0,129.0,-1.0,108.0,-71.0,127.0,127.0,127.0,-118.0,-88.0,123.0
127.0,124.0,127.0,127.0,127.0,127.0,127.0,129.0,-1.0,108.0,-71.0,127.0,127.0,127.0,-118.0,-88.0,123.0
127.0,124.0,127.0,127.0,127.0,127.0,127.0,129.0,-1.0,108.0,-71.0,127.0,127.0,127.0,-118.0,-88.0,123.0
127.0,124.0,127.0,127.0,127.0,127.0,127.0,129.0,-1.0,108.0,-71.0,127.0,127.0,127.0,-118.0,-88.0,123.0
127.0,124.0,127.0,127.0,127.0,127.0,127.0,129.0,-1.0,108.0,-71.0,127.0,127.0,127.0,-118.0,-88.0,123.0
127.0,124.0,127.0,127.0,127.0,127.0,127.0,129.0,-1.0,108.0,-71.0,127.0,127.0,127.0,-118.0,-88.0,123.0
127.0,125.0,127.0,127.0,127.0,128.0,126.0,129.0,-1.0,108.0,-71.0,127.0,127.0,127.0,-118.0,-88.0,123.0
127.0,125.0,127.0,127.0,127.0,128.0,126.0,129.0,-1.0,108.0,-71.0,127.0,127.0,127.0,-118.0,-88.0,123.0
127.0,125.0,127.0,127.0,127.0,128.0,126.0,129.0,-1.0,108.0,-71.0,127.0,127.0,127.0,-118.0,-88.0,123.0
127.0,125.0,127.0,127.0,127.0,128.0,126.0,129.0,-1.0,108.0,-71.0,127.0,127.0,127.0,-118.0,-88.0,123.0
127.0,125.0,127.0,127.0,127.0,128.0,127.0,129.0,-1.0,108.0,-71.0,127.0,127.0,127.0,-118.0,-88.0,123.0
127.0,125.0,127.0,127.0,127.0,128.0,127.0,129.0,-1.0,108.0,-71.0,127.0,127.0,127.0,-118.0,-88.0,123.0
127.0,125.0,127.0,127.0,127.0,128.0,127.0,129.0,-1.0,108.0,-71.0,127.0,127.0,127.0,-118.0,-88.0,123.0
127.0,125.0,127.0,127.0,127.0,127.0,127.0,129.0,-1.0,108.0,-71.0,127.0,127.0,127.0,-118.0,-88.0,123.0
127.0,125.0,127.0,127.0,127.0,128.0,127.0,128.0,-1.0,108.0,-71.0,127.0,127.0,127.0,-118.0,-88.0,123.0
127.0,125.0,127.0,127.0,127.0,127.0,127.0,129.0,-1.0,108.0,-71.0,127.0,127.0,127.0,-118.0,-88.0,123.0
126.0,126.0,127.0,127.0,127.0,129.0,126.0,130.0,-1.0,108.0,-71.0,127.0,127.0,127.0,-118.0,-88.0,123.0
126.0,126.0,127.0,127.0,127.0,129.0,126.0,130.0,-1.0,108.0,-71.0,127.0,127.0,127.0,-118.0,-88.0,123.0
126.0,126.0,127.0,127.0,127.0,129.0,126.0,130.0,-1.0,108.0,-71.0,127.0,127.0,127.0,-118.0,-88.0,123.0
126.0,126.0,127.0,127.0,127.0,128.0,127.0,129.0,-1.0,108.0,-71.0,127.0,127.0,127.0,-118.0,-88.0,123.0
127.0,126.0,127.0,127.0,127.0,128.0,127.0,130.0,-1.0,108.0,-71.0,127.0,127.0,127.0,-118.0,-88.0,123.0
126.0,126.0,127.0,127.0,127.0,128.0,127.0,130.0,-1.0,108.0,-71.0,127.0,127.0,127.0,-118.0,-88.0,123.0
126.0,126.0,127.0,127.0,127.0,128.0,127.0,130.0,-1.0,108.0,-71.0,127.0,127.0,127.0,-118.0,-88.0,123.0
126.0,125.0,128.0,127.0,127.0,128.0,126.0,130.0,-1.0,108.0,-71.0,127.0,127.0,127.0,-118.0,-88.0,123.0
126.0,125.0,128.0,127.0,127.0,128.0,126.0,129.0,-1.0,108.0,-71.0,127.0,127.0,127.0,-118.0,-88.0,123.0
126.0,126.0,127.0,127.0,127.0,129.0,126.0,130.0,-1.0,108.0,-71.0,127.0,127.0,127.0,-118.0,-88.0,123.0
126.0,126.0,127.0,127.0,127.0,129.0,126.0,131.0,-1.0,108.0,-71.0,127.0,127.0,127.0,-118.0,-88.0,123.0
126.0,126.0,127.0,127.0,127.0,129.0,126.0,131.0,-1.0,108.0,-71.0,127.0,127.0,127.0,-118.0,-88.0,123.0
127.0,126.0,127.0,127.0,127.0,128.0,126.0,130.0,-1.0,108.0,-71.0,127.0,127.0,127.0,-118.0,-88.0,123.0
127.0,126.0,127.0,127.0,127.0,128.0,126.0,131.0,-1.0,108.0,-71.0,127.0,127.0,127.0,-118.0,-88.0,123.0
127.0,126.0,127.0,127.0,127.0,128.0,126.0,131.0,-1.0,108.0,-71.0,127.0,127.0,127.0,-118.0,-88.0,123.0
127.0,126.0,127.0,127.0,127.0,128.0,126.0,131.0,-1.0,108.0,-71.0,127.0,127.0,127.0,-118.0,-88.0,123.0
127.0,126.0,127.0,127.0,127.0,128.0,126.0,131.0,-1.0,108.0,-71.0,127.0,127.0,127.0,-118.0,-88.0,123.0
126.0,126.0,127.0,127.0,127.0,128.0,126.0,131.0,-1.0,108.0,-71.0,127.0,127.0,127.0,-118.0,-88.0,123.0
126.0,126.0,127.0,127.0,127.0,128.0,126.0,131.0,-1.0,108.0,-71.0,127.0,127.0,127.0,-118.0,-88.0,123.0
126.0,126.0,127.0,127.0,127.0,129.0,126.0,131.0,-1.0,108.0,-71.0,127.0,127.0,127.0,-118.0,-88.0,123.0
126.0,126.0,127.0,127.0,126.0,128.0,126.0,131.0,-1.0,108.0,-71.0,127.0,127.0,127.0,-118.0,-88.0,123.0
126.0,125.0,127.0,127.0,127.0,127.0,126.0,131.0,-1.0,108.0,-71.0,127.0,127.0,127.0,-118.0,-88.0,123.0
126.0,126.0,127.0,127.0,127.0,128.0,126.0,131.0,-1.0,108.0,-71.0,127.0,127.0,127.0,-118.0,-88.0,123.0
126.0,125.0,127.0,127.0,127.0,128.0,126.0,131.0,-1.0,108.0,-71.0,127.0,127.0,127.0,-118.0,-88.0,123.0
126.0,125.0,127.0,127.0,127.0,128.0,126.0,131.0,-1.0,108.0,-71.0,127.0,127.0,127.0,-118.0,-88.0,123.0
126.0,125.0,127.0,127.0,127.0,128.0,126.0,131.0,-1.0,108.0,-71.0,127.0,127.0,127.0,-118.0,-88.0,123.0
126.0,125.0,127.0,127.0,127.0,128.0,126.0,131.0,-1.0,108.0,-71.0,127.0,127.0,127.0,-118.0,-88.0,123.0
126.0,125.0,127.0,127.0,127.0,128.0,126.0,131.0,-1.0,108.0,-71.0,127.0,127.0,127.0,-118.0,-88.0,123.0
126.0,126.0,127.0,127.0,126.0,129.0,126.0,131.0,-1.0,108.0,-71.0,127.0,127.0,127.0,-118.0,-88.0,123.0
126.0,126.0,127.0,127.0,126.0,129.0,126.0,131.0,-1.0,108.0,-71.0,127.0,127.0,127.0,-118.0,-88.0,123.0
126.0,125.0,127.0,127.0,126.0,127.0,126.0,130.0,-1.0,108.0,-71.0,127.0,127.0,127.0,-118.0,-88.0,123.0
126.0,125.0,127.0,127.0,126.0,128.0,126.0,130.0,-1.0,108.0,-71.0,127.0,127.0,127.0,-118.0,-88.0,123.0
126.0,125.0,127.0,127.0,126.0,128.0,126.0,130.0,-1.0,108.0,-71.0,127.0,127.0,127.0,-118.0,-88.0,123.0
126.0,125.0,127.0,127.0,127.0,128.0,126.0,130.0,-1.0,108.0,-71.0,127.0,127.0,127.0,-118.0,-88.0,123.0
126.0,125.0,127.0,127.0,127.0,128.0,126.0,130.0,-1.0,108.0,-71.0,127.0,127.0,127.0,-118.0,-88.0,123.0
126.0,125.0,127.0,127.0,127.0,128.0,126.0,130.0,-1.0,108.0,-71.0,127.0,127.0,127.0,-118.0,-88.0,123.0
126.0,125.0,127.0,127.0,127.0,128.0,126.0,130.0,-1.0,108.0,-71.0,127.0,127.0,127.0,-118.0,-88.0,123.0
126.0,126.0,127.0,127.0,127.0,129.0,126.0,130.0,-1.0,108.0,-71.0,127.0,127.0,127.0,-118.0,-88.0,123.0
126.0,126.0,127.0,127.0,127.0,129.0,126.0,130.0,-1.0,108.0,-71.0,127.0,127.0,127.0,-118.0,-88.0,123.0
126.0,126.0,127.0,127.0,127.0,128.0,126.0,130.0,-1.0,108.0,-71.0,127.0,127.0,127.0,-118.0,-88.0,123.0
126.0,126.0,127.0,126.0,127.0,128.0,126.0,129.0,-1.0,108.0,-71.0,127.0,127.0,127.0,-118.0,-88.0,123.0
126.0,126.0,127.0,127.0,127.0,128.0,126.0,129.0,-1.0,108.0,-71.0,127.0,127.0,127.0,-118.0,-88.0,123.0
126.0,126.0,127.0,127.0,127.0,128.0,126.0,129.0,-1.0,108.0,-71.0,127.0,127.0,127.0,-118.0,-88.0,123.0
126.0,126.0,127.0,127.0,127.0,128.0,126.0,129.0,-1.0,108.0,-71.0,127.0,127.0,127.0,-118.0,-88.0,123.0
126.0,126.0,127.0,127.0,127.0,128.0,126.0,129.0,-1.0,108.0,-71.0,127.0,127.0,127.0,-118.0,-88.0,123.0
126.0,126.0,127.0,127.0,127.0,128.0,126.0,129.0,-1.0,108.0,-71.0,127.0,127.0,127.0,-118.0,-88.0,123.0
126.0,126.0,127.0,127.0,127.0,129.0,126.0,129.0,-1.0,108.0,-71.0,127.0,127.0,127.0,-118.0,-88.0,123.0
126.0,126.0,127.0,127.0,127.0,129.0,125.0,130.0,-1.0,108.0,-71.0,127.0,127.0,127.0,-118.0,-88.0,123.0
126.0,126.0,127.0,127.0,127.0,129.0,125.0,129.0,-1.0,108.0,-71.0,127.0,127.0,127.0,-118.0,-88.0,123.0
126.0,126.0,127.0,126.0,127.0,127.0,126.0,129.0,-1.0,108.0,-71.0,127.0,127.0,127.0,-118.0,-88.0,123.0
126.0,126.0,127.0,126.0,126.0,128.0,126.0,130.0,-1.0,108.0,-71.0,127.0,127.0,127.0,-118.0,-88.0,123.0
126.0,126.0,127.0,126.0,126.0,128.0,126.0,130.0,-1.0,108.0,-71.0,127.0,127.0,127.0,-118.0,-88.0,123.0
126.0,125.0,127.0,126.0,126.0,128.0,126.0,129.0,-1.0,108.0,-71.0,127.0,127.0,127.0,-118.0,-88.0,123.0
126.0,125.0,127.0,126.0,126.0,128.0,126.0,129.0,-1.0,108.0,-71.0,127.0,127.0,127.0,-118.0,-88.0,123.0
126.0,126.0,127.0,126.0,126.0,128.0,126.0,129.0,-1.0,108.0,-71.0,127.0,127.0,127.0,-118.0,-88.0,123.0
126.0,126.0,127.0,126.0,126.0,129.0,126.0,130.0,-1.0,108.0,-71.0,127.0,127.0,127.0,-118.0,-88.0,123.0
127.0,126.0,127.0,126.0,126.0,129.0,126.0,130.0,-1.0,108.0,-71.0,127.0,127.0,127.0,-118.0,-88.0,123.0
127.0,126.0,127.0,126.0,126.0,129.0,126.0,130.0,-1.0,108.0,-71.0,127.0,127.0,127.0,-118.0,-88.0,123.0
126.0,125.0,127.0,126.0,126.0,127.0,126.0,129.0,-1.0,108.0,-71.0,127.0,127.0,127.0,-118.0,-88.0,123.0
126.0,126.0,126.0,126.0,126.0,128.0,126.0,130.0,-1.0,108.0,-71.0,127.0,127.0,127.0,-118.0,-88.0,123.0
127.0,126.0,127.0,126.0,128.0,127.0,127.0,129.0,-1.0,108.0,-71.0,127.0,127.0,127.0,-118.0,-88.0,123.0
127.0,126.0,127.0,126.0,128.0,127.0,127.0,129.0,-1.0,108.0,-71.0,127.0,127.0,127.0,-118.0,-88.0,123.0
127.0,126.0,127.0,126.0,128.0,127.0,127.0,129.0,-1.0,108.0,-71.0,127.0,127.0,127.0,-118.0,-88.0,123.0
127.0,126.0,127.0,126.0,128.0,127.0,127.0,129.0,-1.0,108.0,-71.0,127.0,127.0,127.0,-118.0,-88.0,123.0
127.0,125.0,127.0,126.0,128.0,127.0,127.0,129.0,-1.0,108.0,-71.0,127.0,127.0,127.0,-118.0,-88.0,123.0
127.0,125.0,127.0,126.0,128.0,127.0,127.0,129.0,-1.0,108.0,-71.0,127.0,127.0,127.0,-118.0,-88.0,123.0
127.0,126.0,127.0,126.0,128.0,127.0,126.0,129.0,-1.0,108.0,-71.0,127.0,127.0,127.0,-118.0,-88.0,123.0
127.0,126.0,127.0,126.0,127.0,127.0,127.0,129.0,-1.0,108.0,-71.0,127.0,127.0,127.0,-118.0,-88.0,123.0
127.0,126.0,127.0,126.0,128.0,127.0,127.0,129.0,-1.0,108.0,-71.0,127.0,127.0,127.0,-118.0,-88.0,123.0
127.0,126.0,127.0,126.0,128.0,127.0,127.0,129.0,-1.0,108.0,-71.0,127.0,127.0,127.0,-118.0,-88.0,123.0
126.0,125.0,127.0,126.0,127.0,126.0,126.0,129.0,-1.0,108.0,-71.0,127.0,127.0,127.0,-118.0,-88.0,123.0
126.0,125.0,127.0,126.0,127.0,126.0,126.0,129.0,-1.0,108.0,-71.0,127.0,127.0,127.0,-118.0,-88.0,123.0
126.0,125.0,127.0,126.0,127.0,127.0,126.0,129.0,-1.0,108.0,-71.0,127.0,127.0,127.0,-118.0,-88.0,123.0
126.0,125.0,127.0,126.0,127.0,127.0,126.0,129.0,-1.0,108.0,-71.0,127.0,127.0,127.0,-118.0,-88.0,123.0
126.0,125.0,127.0,126.0,127.0,127.0,126.0,129.0,-1.0,108.0,-71.0,127.0,127.0,127.0,-118.0,-88.0,123.0
126.0,125.0,127.0,126.0,127.0,127.0,126.0,129.0,-1.0,108.0,-71.0,127.0,127.0,127.0,-118.0,-88.0,123.0
126.0,125.0,127.0,126.0,127.0,126.0,126.0,129.0,-1.0,108.0,-71.0,127.0,127.0,127.0,-118.0,-88.0,123.0
126.0,125.0,127.0,126.0,127.0,126.0,126.0,129.0,-1.0,108.0,-71.0,127.0,127.0,127.0,-118.0,-88.0,123.0
126.0,125.0,127.0,126.0,127.0,126.0,126.0,129.0,-1.0,108.0,-71.0,127.0,127.0,127.0,-118.0,-88.0,123.0
126.0,125.0,127.0,126.0,127.0,126.0,126.0,129.0,-1.0,108.0,-71.0,127.0,127.0,127.0,-118.0,-88.0,123.0
127.0,126.0,127.0,126.0,126.0,129.0,127.0,129.0,-1.0,108.0,-71.0,127.0,127.0,127.0,-118.0,-88.0,123.0
127.0,126.0,127.0,126.0,126.0,129.0,127.0,129.0,-1.0,108.0,-71.0,127.0,127.0,127.0,-118.0,-88.0,123.0
127.0,126.0,127.0,126.0,126.0,129.0,127.0,129.0,-1.0,108.0,-71.0,127.0,127.0,127.0,-118.0,-88.0,123.0
127.0,126.0,127.0,126.0,127.0,129.0,126.0,129.0,-1.0,108.0,-71.0,127.0,127.0,127.0,-118.0,-88.0,123.0
127.0,126.0,127.0,126.0,126.0,129.0,126.0,129.0,-1.0,108.0,-71.0,127.0,127.0,127.0,-118.0,-88.0,123.0
127.0,127.0,127.0,126.0,127.0,128.0,127.0,129.0,-1.0,108.0,-71.0,127.0,127.0,127.0,-118.0,-88.0,123.0
127.0,127.0,127.0,126.0,127.0,128.0,127.0,129.0,-1.0,108.0,-71.0,127.0,127.0,127.0,-118.0,-88.0,123.0
127.0,127.0,127.0,126.0,127.0,128.0,127.0,129.0,-1.0,108.0,-71.0,127.0,127.0,127.0,-118.0,-88.0,123.0
127.0,127.0,127.0,126.0,127.0,128.0,127.0,129.0,-1.0,108.0,-71.0,127.0,127.0,127.0,-118.0,-88.0,123.0
127.0,126.0,127.0,126.0,127.0,129.0,127.0,129.0,-1.0,108.0,-71.0,127.0,127.0,127.0,-118.0,-88.0,123.0
127.0,126.0,126.0,126.0,125.0,127.0,142.0,129.0,-1.0,108.0,-70.0,127.0,127.0,127.0,-118.0,-88.0,123.0
127.0,126.0,126.0,126.0,125.0,127.0,144.0,129.0,-1.0,108.0,-70.0,127.0,127.0,127.0,-118.0,-88.0,123.0
127.0,126.0,126.0,126.0,125.0,127.0,146.0,129.0,-1.0,108.0,-70.0,127.0,127.0,127.0,-118.0,-88.0,123.0
127.0,126.0,126.0,126.0,125.0,128.0,148.0,128.0,-1.0,108.0,-70.0,127.0,127.0,127.0,-118.0,-88.0,123.0
126.0,126.0,126.0,126.0,125.0,125.0,134.0,128.0,-1.0,108.0,-70.0,127.0,127.0,127.0,-118.0,-88.0,123.0
127.0,126.0,126.0,126.0,125.0,125.0,135.0,128.0,-1.0,108.0,-70.0,127.0,127.0,127.0,-118.0,-88.0,123.0
127.0,126.0,126.0,125.0,125.0,125.0,137.0,128.0,-1.0,108.0,-70.0,127.0,127.0,127.0,-118.0,-88.0,123.0
127.0,126.0,126.0,126.0,125.0,125.0,138.0,128.0,-1.0,108.0,-70.0,127.0,127.0,127.0,-118.0,-88.0,123.0
127.0,126.0,126.0,125.0,125.0,126.0,139.0,128.0,-1.0,108.0,-70.0,127.0,127.0,127.0,-118.0,-88.0,123.0
127.0,126.0,126.0,126.0,125.0,127.0,141.0,129.0,-1.0,108.0,-70.0,127.0,127.0,127.0,-118.0,-88.0,123.0
126.0,126.0,124.0,124.0,123.0,120.0,254.0,120.0,-1.0,108.0,-70.0,127.0,127.0,127.0,-118.0,-88.0,123.0
126.0,127.0,124.0,124.0,122.0,119.0,254.0,119.0,-1.0,108.0,-70.0,127.0,127.0,127.0,-118.0,-88.0,123.0
127.0,128.0,124.0,124.0,122.0,119.0,254.0,119.0,-1.0,108.0,-70.0,127.0,127.0,127.0,-118.0,-88.0,123.0
127.0,127.0,125.0,126.0,125.0,125.0,254.0,124.0,-1.0,108.0,-70.0,127.0,127.0,127.0,-118.0,-88.0,123.0
127.0,127.0,125.0,125.0,125.0,124.0,254.0,123.0,-1.0,108.0,-70.0,127.0,127.0,127.0,-118.0,-88.0,123.0
127.0,126.0,125.0,125.0,125.0,122.0,254.0,123.0,-1.0,108.0,-70.0,127.0,127.0,127.0,-118.0,-88.0,123.0
126.0,126.0,125.0,125.0,124.0,121.0,254.0,122.0,-1.0,108.0,-70.0,127.0,127.0,127.0,-118.0,-88.0,123.0
126.0,126.0,125.0,125.0,124.0,120.0,254.0,121.0,-1.0,108.0,-70.0,127.0,127.0,127.0,-118.0,-88.0,123.0
126.0,126.0,124.0,125.0,123.0,121.0,254.0,121.0,-1.0,108.0,-70.0,127.0,127.0,127.0,-118.0,-88.0,123.0
126.0,126.0,124.0,125.0,123.0,120.0,254.0,120.0,-1.0,108.0,-70.0,127.0,127.0,127.0,-118.0,-88.0,123.0
127.0,124.0,124.0,124.0,122.0,123.0,73.0,113.0,-1.0,109.0,-70.0,127.0,127.0,127.0,-118.0,-88.0,123.0
127.0,124.0,125.0,124.0,122.0,123.0,69.0,113.0,-1.0,109.0,-70.0,127.0,127.0,127.0,-118.0,-88.0,123.0
128.0,125.0,125.0,125.0,123.0,118.0,103.0,114.0,-1.0,109.0,-70.0,127.0,127.0,127.0,-118.0,-88.0,123.0
128.0,124.0,124.0,125.0,123.0,117.0,99.0,113.0,-1.0,109.0,-70.0,127.0,127.0,127.0,-118.0,-88.0,123.0
127.0,123.0,124.0,125.0,123.0,118.0,95.0,113.0,-1.0,109.0,-70.0,127.0,127.0,127.0,-118.0,-88.0,123.0
127.0,123.0,124.0,125.0,123.0,119.0,91.0,113.0,-1.0,109.0,-70.0,127.0,127.0,127.0,-118.0,-88.0,123.0
126.0,123.0,124.0,124.0,123.0,120.0,87.0,113.0,-1.0,109.0,-70.0,127.0,127.0,127.0,-118.0,-88.0,123.0
126.0,123.0,124.0,124.0,123.0,122.0,84.0,113.0,-1.0,109.0,-70.0,127.0,127.0,127.0,-118.0,-88.0,123.0
126.0,124.0,124.0,124.0,123.0,123.0,80.0,113.0,-1.0,109.0,-70.0,127.0,127.0,127.0,-118.0,-88.0,123.0
126.0,124.0,124.0,124.0,123.0,123.0,76.0,113.0,-1.0,109.0,-70.0,127.0,127.0,127.0,-118.0,-88.0,123.0
128.0,108.0,125.0,138.0,131.0,109.0,49.0,133.0,-1.0,109.0,-69.0,126.0,127.0,127.0,-118.0,-88.0,123.0
129.0,110.0,122.0,131.0,128.0,124.0,18.0,127.0,-1.0,109.0,-69.0,126.0,127.0,127.0,-118.0,-88.0,123.0
128.0,110.0,123.0,132.0,129.0,123.0,21.0,128.0,-1.0,109.0,-69.0,126.0,127.0,127.0,-118.0,-88.0,123.0
128.0,109.0,124.0,133.0,130.0,122.0,24.0,128.0,-1.0,109.0,-69.0,126.0,127.0,127.0,-118.0,-88.0,123.0
127.0,109.0,124.0,134.0,131.0,122.0,27.0,129.0,-1.0,109.0,-69.0,126.0,127.0,127.0,-118.0,-88.0,123.0
127.0,109.0,125.0,135.0,132.0,120.0,30.0,130.0,-1.0,109.0,-69.0,126.0,127.0,127.0,-118.0,-88.0,123.0
128.0,108.0,125.0,136.0,132.0,119.0,34.0,131.0,-1.0,109.0,-69.0,126.0,127.0,127.0,-118.0,-88.0,123.0
128.0,109.0,125.0,136.0,132.0,117.0,37.0,131.0,-1.0,109.0,-69.0,126.0,127.0,127.0,-118.0,-88.0,123.0
128.0,109.0,125.0,137.0,132.0,115.0,41.0,132.0,-1.0,109.0,-69.0,126.0,127.0,127.0,-118.0,-88.0,123.0
128.0,108.0,125.0,138.0,132.0,112.0,45.0,133.0,-1.0,109.0,-69.0,126.0,127.0,127.0,-118.0,-88.0,123.0
125.0,107.0,124.0,145.0,121.0,105.0,133.0,142.0,-1.0,110.0,-69.0,126.0,127.0,127.0,-118.0,-88.0,123.0
125.0,108.0,125.0,145.0,122.0,105.0,133.0,143.0,-1.0,110.0,-69.0,126.0,127.0,127.0,-118.0,-88.0,123.0
125.0,109.0,126.0,145.0,123.0,105.0,132.0,143.0,-1.0,110.0,-69.0,126.0,127.0,127.0,-118.0,-88.0,123.0
125.0,110.0,126.0,145.0,124.0,105.0,131.0,143.0,-1.0,110.0,-69.0,126.0,127.0,127.0,-118.0,-88.0,123.0
125.0,111.0,127.0,145.0,125.0,105.0,130.0,144.0,-1.0,110.0,-69.0,126.0,127.0,127.0,-118.0,-88.0,123.0
124.0,112.0,127.0,145.0,126.0,105.0,130.0,144.0,-1.0,110.0,-69.0,126.0,127.0,127.0,-118.0,-88.0,123.0
125.0,113.0,127.0,145.0,127.0,104.0,129.0,145.0,-1.0,110.0,-69.0,126.0,127.0,127.0,-118.0,-88.0,123.0
125.0,113.0,128.0,145.0,128.0,102.0,129.0,145.0,-1.0,110.0,-69.0,126.0,127.0,127.0,-118.0,-88.0,123.0
125.0,113.0,128.0,145.0,129.0,101.0,129.0,145.0,-1.0,110.0,-69.0,126.0,127.0,127.0,-118.0,-88.0,123.0
126.0,114.0,128.0,144.0,129.0,99.0,129.0,146.0,-1.0,110.0,-69.0,126.0,127.0,127.0,-118.0,-88.0,123.0
118.0,129.0,133.0,122.0,118.0,65.0,129.0,153.0,-1.0,109.0,-71.0,126.0,127.0,127.0,-118.0,-88.0,123.0
118.0,130.0,133.0,122.0,118.0,66.0,129.0,153.0,-1.0,109.0,-71.0,126.0,127.0,127.0,-118.0,-88.0,123.0
117.0,130.0,132.0,122.0,118.0,66.0,128.0,154.0,-1.0,109.0,-71.0,126.0,127.0,127.0,-118.0,-88.0,123.0
117.0,129.0,132.0,122.0,117.0,67.0,128.0,153.0,-1.0,109.0,-71.0,126.0,127.0,127.0,-118.0,-88.0,123.0
116.0,129.0,131.0,121.0,116.0,68.0,128.0,153.0,-1.0,109.0,-71.0,126.0,127.0,127.0,-118.0,-88.0,123.0
116.0,128.0,131.0,121.0,116.0,70.0,128.0,153.0,-1.0,109.0,-71.0,126.0,127.0,127.0,-118.0,-88.0,123.0
115.0,127.0,131.0,121.0,115.0,73.0,128.0,152.0,-1.0,109.0,-71.0,126.0,127.0,127.0,-118.0,-88.0,123.0
115.0,127.0,131.0,121.0,114.0,76.0,128.0,152.0,-1.0,109.0,-71.0,126.0,127.0,127.0,-118.0,-88.0,123.0
116.0,126.0,131.0,120.0,113.0,79.0,129.0,153.0,-1.0,109.0,-71.0,126.0,127.0,127.0,-118.0,-88.0,123.0
119.0,128.0,133.0,122.0,119.0,63.0,130.0,153.0,-1.0,109.0,-71.0,126.0,127.0,127.0,-118.0,-88.0,123.0
133.0,111.0,127.0,146.0,138.0,160.0,191.0,179.0,-1.0,107.0,-71.0,126.0,127.0,127.0,-118.0,-88.0,123.0
133.0,112.0,127.0,147.0,139.0,161.0,189.0,179.0,-1.0,107.0,-71.0,126.0,127.0,127.0,-118.0,-88.0,123.0
134.0,113.0,128.0,147.0,139.0,160.0,187.0,180.0,-1.0,107.0,-71.0,126.0,127.0,127.0,-118.0,-88.0,123.0
134.0,114.0,128.0,148.0,140.0,158.0,185.0,180.0,-1.0,107.0,-71.0,126.0,127.0,127.0,-118.0,-88.0,123.0
134.0,114.0,129.0,148.0,140.0,157.0,183.0,181.0,-1.0,107.0,-71.0,126.0,127.0,127.0,-118.0,-88.0,123.0
135.0,115.0,129.0,149.0,141.0,155.0,181.0,181.0,-1.0,107.0,-71.0,126.0,127.0,127.0,-118.0,-88.0,123.0
135.0,116.0,130.0,149.0,141.0,153.0,179.0,181.0,-1.0,107.0,-71.0,126.0,127.0,127.0,-118.0,-88.0,123.0
135.0,116.0,130.0,150.0,142.0,151.0,177.0,182.0,-1.0,107.0,-71.0,126.0,127.0,127.0,-118.0,-88.0,123.0
132.0,110.0,126.0,145.0,137.0,159.0,194.0,178.0,-1.0,107.0,-71.0,126.0,127.0,127.0,-118.0,-88.0,123.0
133.0,110.0,127.0,146.0,138.0,160.0,192.0,178.0,-1.0,107.0,-71.0,126.0,127.0,127.0,-118.0,-88.0,123.0
130.0,139.0,134.0,147.0,135.0,136.0,144.0,176.0,-1.0,110.0,-71.0,125.0,127.0,127.0,-118.0,-88.0,123.0
130.0,139.0,134.0,146.0,135.0,136.0,144.0,176.0,-1.0,110.0,-71.0,125.0,127.0,127.0,-118.0,-88.0,123.0
130.0,139.0,134.0,146.0,135.0,136.0,144.0,176.0,-1.0,110.0,-71.0,125.0,127.0,127.0,-118.0,-88.0,123.0
130.0,139.0,134.0,146.0,135.0,137.0,144.0,176.0,-1.0,110.0,-71.0,125.0,127.0,127.0,-118.0,-88.0,123.0
130.0,140.0,134.0,146.0,135.0,137.0,144.0,176.0,-1.0,110.0,-71.0,125.0,127.0,127.0,-118.0,-88.0,123.0
130.0,140.0,134.0,145.0,135.0,138.0,144.0,176.0,-1.0,110.0,-71.0,125.0,127.0,127.0,-118.0,-88.0,123.0
130.0,140.0,135.0,145.0,136.0,139.0,144.0,176.0,-1.0,110.0,-71.0,125.0,127.0,127.0,-118.0,-88.0,123.0
130.0,139.0,134.0,148.0,136.0,136.0,145.0,176.0,-1.0,110.0,-71.0,125.0,127.0,127.0,-118.0,-88.0,123.0
130.0,139.0,134.0,148.0,136.0,136.0,145.0,176.0,-1.0,110.0,-71.0,125.0,127.0,127.0,-118.0,-88.0,123.0
130.0,139.0,134.0,147.0,135.0,136.0,144.0,176.0,-1.0,110.0,-71.0,125.0,127.0,127.0,-118.0,-88.0,123.0
131.0,124.0,130.0,142.0,130.0,151.0,148.0,165.0,-1.0,106.0,-69.0,126.0,127.0,127.0,-118.0,-88.0,123.0
131.0,124.0,130.0,142.0,130.0,151.0,148.0,165.0,-1.0,106.0,-69.0,126.0,127.0,127.0,-118.0,-88.0,123.0
131.0,124.0,130.0,142.0,130.0,151.0,148.0,164.0,-1.0,106.0,-69.0,126.0,127.0,127.0,-118.0,-88.0,123.0
131.0,124.0,130.0,142.0,129.0,150.0,148.0,164.0,-1.0,106.0,-69.0,126.0,127.0,127.0,-118.0,-88.0,123.0
130.0,124.0,130.0,141.0,129.0,150.0,148.0,163.0,-1.0,106.0,-69.0,126.0,127.0,127.0,-118.0,-88.0,123.0
130.0,124.0,130.0,141.0,129.0,149.0,148.0,162.0,-1.0,106.0,-69.0,126.0,127.0,127.0,-118.0,-88.0,123.0
130.0,123.0,130.0,142.0,130.0,155.0,147.0,165.0,-1.0,106.0,-69.0,126.0,127.0,127.0,-118.0,-88.0,123.0
130.0,124.0,130.0,142.0,130.0,153.0,147.0,165.0,-1.0,106.0,-69.0,126.0,127.0,127.0,-118.0,-88.0,123.0
131.0,124.0,130.0,142.0,130.0,152.0,147.0,165.0,-1.0,106.0,-69.0,126.0,127.0,127.0,-118.0,-88.0,123.0
131.0,124.0,130.0,142.0,130.0,152.0,147.0,165.0,-1.0,106.0,-69.0,126.0,127.0,127.0,-118.0,-88.0,123.0
122.0,127.0,128.0,134.0,126.0,150.0,141.0,156.0,-1.0,105.0,-69.0,126.0,127.0,127.0,-118.0,-88.0,123.0
122.0,126.0,128.0,134.0,127.0,151.0,141.0,156.0,-1.0,105.0,-69.0,126.0,127.0,127.0,-118.0,-88.0,123.0
122.0,126.0,128.0,134.0,127.0,151.0,140.0,156.0,-1.0,105.0,-69.0,126.0,127.0,127.0,-118.0,-88.0,123.0
122.0,127.0,128.0,134.0,127.0,152.0,139.0,156.0,-1.0,105.0,-69.0,126.0,127.0,127.0,-118.0,-88.0,123.0
122.0,128.0,130.0,134.0,125.0,143.0,144.0,157.0,-1.0,105.0,-69.0,126.0,127.0,127.0,-118.0,-88.0,123.0
122.0,128.0,130.0,134.0,126.0,143.0,143.0,157.0,-1.0,105.0,-69.0,126.0,127.0,127.0,-118.0,-88.0,123.0
122.0,127.0,129.0,134.0,126.0,144.0,143.0,157.0,-1.0,105.0,-69.0,126.0,127.0,127.0,-118.0,-88.0,123.0
122.0,127.0,129.0,134.0,126.0,145.0,143.0,157.0,-1.0,105.0,-69.0,126.0,127.0,127.0,-118.0,-88.0,123.0
122.0,127.0,129.0,134.0,126.0,147.0,142.0,157.0,-1.0,105.0,-69.0,126.0,127.0,127.0,-118.0,-88.0,123.0
122.0,127.0,129.0,134.0,126.0,148.0,142.0,156.0,-1.0,105.0,-69.0,126.0,127.0,127.0,-118.0,-88.0,123.0
123.0,133.0,130.0,130.0,127.0,134.0,59.0,155.0,-1.0,106.0,-69.0,126.0,127.0,127.0,-118.0,-88.0,123.0
123.0,133.0,130.0,130.0,126.0,134.0,59.0,154.0,-1.0,106.0,-69.0,126.0,127.0,127.0,-118.0,-88.0,123.0
123.0,132.0,130.0,130.0,127.0,134.0,59.0,154.0,-1.0,106.0,-69.0,126.0,127.0,127.0,-118.0,-88.0,123.0
125.0,134.0,130.0,131.0,126.0,139.0,66.0,156.0,-1.0,106.0,-69.0,126.0,127.0,127.0,-118.0,-88.0,123.0
125.0,134.0,130.0,131.0,126.0,138.0,64.0,156.0,-1.0,106.0,-69.0,126.0,127.0,127.0,-118.0,-88.0,123.0
125.0,133.0,130.0,131.0,126.0,137.0,63.0,156.0,-1.0,106.0,-69.0,126.0,127.0,127.0,-118.0,-88.0,123.0
124.0,133.0,131.0,131.0,126.0,137.0,61.0,156.0,-1.0,106.0,-69.0,126.0,127.0,127.0,-118.0,-88.0,123.0
124.0,133.0,131.0,131.0,127.0,136.0,60.0,156.0,-1.0,106.0,-69.0,126.0,127.0,127.0,-118.0,-88.0,123.0
124.0,133.0,131.0,131.0,127.0,135.0,59.0,156.0,-1.0,106.0,-69.0,126.0,127.0,127.0,-118.0,-88.0,123.0
124.0,133.0,130.0,131.0,127.0,134.0,59.0,155.0,-1.0,106.0,-69.0,126.0,127.0,127.0,-118.0,-88.0,123.0
117.0,136.0,130.0,129.0,128.0,141.0,196.0,145.0,-1.0,107.0,-70.0,126.0,127.0,127.0,-118.0,-88.0,123.0
117.0,135.0,129.0,129.0,128.0,141.0,198.0,144.0,-1.0,107.0,-70.0,126.0,127.0,127.0,-118.0,-88.0,123.0
118.0,134.0,128.0,129.0,128.0,143.0,177.0,147.0,-1.0,107.0,-70.0,126.0,127.0,127.0,-118.0,-88.0,123.0
118.0,134.0,128.0,129.0,128.0,143.0,180.0,147.0,-1.0,107.0,-70.0,126.0,127.0,127.0,-118.0,-88.0,123.0
118.0,135.0,129.0,129.0,128.0,143.0,182.0,147.0,-1.0,107.0,-70.0,126.0,127.0,127.0,-118.0,-88.0,123.0
118.0,136.0,129.0,129.0,128.0,142.0,185.0,147.0,-1.0,107.0,-70.0,126.0,127.0,127.0,-118.0,-88.0,123.0
118.0,136.0,129.0,129.0,128.0,142.0,187.0,147.0,-1.0,107.0,-70.0,126.0,127.0,127.0,-118.0,-88.0,123.0
118.0,136.0,130.0,129.0,128.0,142.0,189.0,146.0,-1.0,107.0,-70.0,126.0,127.0,127.0,-118.0,-88.0,123.0
118.0,137.0,130.0,129.0,128.0,141.0,192.0,146.0,-1.0,107.0,-70.0,126.0,127.0,127.0,-118.0,-88.0,123.0
118.0,136.0,130.0,129.0,128.0,141.0,194.0,145.0,-1.0,107.0,-70.0,126.0,127.0,127.0,-118.0,-88.0,123.0
118.0,133.0,125.0,127.0,126.0,137.0,253.0,135.0,-1.0,105.0,-70.0,126.0,127.0,127.0,-118.0,-88.0,123.0
117.0,134.0,126.0,129.0,128.0,138.0,250.0,137.0,-1.0,105.0,-70.0,126.0,127.0,127.0,-118.0,-88.0,123.0
118.0,134.0,126.0,128.0,128.0,138.0,251.0,137.0,-1.0,105.0,-70.0,126.0,127.0,127.0,-118.0,-88.0,123.0
118.0,134.0,126.0,128.0,128.0,138.0,251.0,136.0,-1.0,105.0,-70.0,126.0,127.0,127.0,-118.0,-88.0,123.0
119.0,135.0,125.0,128.0,127.0,137.0,251.0,136.0,-1.0,105.0,-70.0,126.0,127.0,127.0,-118.0,-88.0,123.0
119.0,135.0,125.0,128.0,127.0,137.0,252.0,136.0,-1.0,105.0,-70.0,126.0,127.0,127.0,-118.0,-88.0,123.0
118.0,134.0,125.0,128.0,127.0,137.0,252.0,136.0,-1.0,105.0,-70.0,126.0,127.0,127.0,-118.0,-88.0,123.0
118.0,134.0,125.0,127.0,127.0,137.0,252.0,136.0,-1.0,105.0,-70.0,126.0,127.0,127.0,-118.0,-88.0,123.0
118.0,134.0,125.0,127.0,127.0,137.0,252.0,135.0,-1.0,105.0,-70.0,126.0,127.0,127.0,-118.0,-88.0,123.0
118.0,133.0,125.0,127.0,126.0,137.0,253.0,135.0,-1.0,105.0,-70.0,126.0,127.0,127.0,-118.0,-88.0,123.0
119.0,132.0,128.0,131.0,130.0,138.0,217.0,136.0,-1.0,104.0,-71.0,126.0,127.0,127.0,-118.0,-88.0,123.0
118.0,132.0,128.0,131.0,129.0,139.0,216.0,136.0,-1.0,104.0,-71.0,126.0,127.0,127.0,-118.0,-88.0,123.0
118.0,132.0,128.0,131.0,129.0,140.0,215.0,136.0,-1.0,104.0,-71.0,126.0,127.0,127.0,-118.0,-88.0,123.0
119.0,132.0,128.0,131.0,129.0,140.0,213.0,136.0,-1.0,104.0,-71.0,126.0,127.0,127.0,-118.0,-88.0,123.0
119.0,132.0,128.0,131.0,129.0,140.0,212.0,136.0,-1.0,104.0,-71.0,126.0,127.0,127.0,-118.0,-88.0,123.0
120.0,133.0,128.0,131.0,128.0,139.0,210.0,135.0,-1.0,104.0,-71.0,126.0,127.0,127.0,-118.0,-88.0,123.0
121.0,133.0,128.0,131.0,128.0,139.0,209.0,135.0,-1.0,104.0,-71.0,126.0,127.0,127.0,-118.0,-88.0,123.0
122.0,133.0,128.0,131.0,128.0,140.0,207.0,135.0,-1.0,104.0,-71.0,126.0,127.0,127.0,-118.0,-88.0,123.0
123.0,133.0,128.0,131.0,127.0,140.0,206.0,135.0,-1.0,104.0,-71.0,126.0,127.0,127.0,-118.0,-88.0,123.0
124.0,133.0,128.0,131.0,127.0,141.0,205.0,135.0,-1.0,104.0,-71.0,126.0,127.0,127.0,-118.0,-88.0,123.0
123.0,132.0,127.0,142.0,125.0,134.0,160.0,135.0,-1.0,104.0,-72.0,127.0,127.0,127.0,-118.0,-88.0,123.0
123.0,132.0,127.0,142.0,125.0,134.0,159.0,135.0,-1.0,104.0,-72.0,127.0,127.0,127.0,-118.0,-88.0,123.0
123.0,133.0,127.0,142.0,126.0,134.0,157.0,136.0,-1.0,104.0,-72.0,127.0,127.0,127.0,-118.0,-88.0,123.0
123.0,132.0,127.0,142.0,126.0,134.0,156.0,136.0,-1.0,104.0,-72.0,127.0,127.0,127.0,-118.0,-88.0,123.0
123.0,133.0,128.0,142.0,126.0,134.0,154.0,136.0,-1.0,104.0,-72.0,127.0,127.0,127.0,-118.0,-88.0,123.0
124.0,133.0,128.0,143.0,126.0,135.0,153.0,136.0,-1.0,104.0,-72.0,127.0,127.0,127.0,-118.0,-88.0,123.0
124.0,133.0,128.0,143.0,126.0,136.0,151.0,136.0,-1.0,104.0,-72.0,127.0,127.0,127.0,-118.0,-88.0,123.0
124.0,133.0,128.0,143.0,126.0,137.0,149.0,136.0,-1.0,104.0,-72.0,127.0,127.0,127.0,-118.0,-88.0,123.0
124.0,133.0,128.0,143.0,126.0,137.0,147.0,136.0,-1.0,104.0,-72.0,127.0,127.0,127.0,-118.0,-88.0,123.0
123.0,132.0,127.0,142.0,126.0,133.0,161.0,134.0,-1.0,104.0,-72.0,127.0,127.0,127.0,-118.0,-88.0,123.0
123.0,133.0,124.0,140.0,125.0,139.0,68.0,135.0,-1.0,104.0,-73.0,127.0,127.0,127.0,-118.0,-88.0,123.0
123.0,132.0,124.0,140.0,125.0,139.0,67.0,135.0,-1.0,104.0,-73.0,127.0,127.0,127.0,-118.0,-88.0,123.0
123.0,132.0,124.0,139.0,126.0,139.0,66.0,135.0,-1.0,104.0,-73.0,127.0,127.0,127.0,-118.0,-88.0,123.0
123.0,132.0,124.0,139.0,126.0,138.0,64.0,135.0,-1.0,104.0,-73.0,127.0,127.0,127.0,-118.0,-88.0,123.0
123.0,132.0,124.0,139.0,126.0,138.0,63.0,135.0,-1.0,104.0,-73.0,127.0,127.0,127.0,-118.0,-88.0,123.0
123.0,132.0,124.0,139.0,126.0,138.0,62.0,135.0,-1.0,104.0,-73.0,127.0,127.0,127.0,-118.0,-88.0,123.0
123.0,132.0,124.0,139.0,126.0,138.0,61.0,135.0,-1.0,104.0,-73.0,127.0,127.0,127.0,-118.0,-88.0,123.0
122.0,132.0,124.0,139.0,126.0,137.0,60.0,135.0,-1.0,104.0,-73.0,127.0,127.0,127.0,-118.0,-88.0,123.0
123.0,132.0,125.0,140.0,126.0,136.0,71.0,135.0,-1.0,104.0,-73.0,127.0,127.0,127.0,-118.0,-88.0,123.0
123.0,132.0,124.0,140.0,126.0,137.0,70.0,135.0,-1.0,104.0,-73.0,127.0,127.0,127.0,-118.0,-88.0,123.0
116.0,132.0,126.0,136.0,128.0,140.0,57.0,124.0,-1.0,104.0,-74.0,127.0,127.0,127.0,-118.0,-88.0,123.0
116.0,132.0,126.0,136.0,128.0,139.0,57.0,124.0,-1.0,104.0,-74.0,127.0,127.0,127.0,-118.0,-88.0,123.0
116.0,132.0,126.0,136.0,128.0,139.0,58.0,124.0,-1.0,104.0,-74.0,127.0,127.0,127.0,-118.0,-88.0,123.0
116.0,132.0,126.0,136.0,128.0,138.0,58.0,124.0,-1.0,104.0,-74.0,127.0,127.0,127.0,-118.0,-88.0,123.0
116.0,132.0,126.0,136.0,128.0,138.0,59.0,124.0,-1.0,104.0,-74.0,127.0,127.0,127.0,-118.0,-88.0,123.0
116.0,132.0,126.0,136.0,127.0,138.0,59.0,124.0,-1.0,104.0,-74.0,127.0,127.0,127.0,-118.0,-88.0,123.0
116.0,132.0,126.0,135.0,127.0,138.0,60.0,124.0,-1.0,104.0,-74.0,127.0,127.0,127.0,-118.0,-88.0,123.0
116.0,132.0,126.0,136.0,128.0,138.0,56.0,124.0,-1.0,104.0,-74.0,127.0,127.0,127.0,-118.0,-88.0,123.0
116.0,132.0,126.0,136.0,127.0,138.0,56.0,124.0,-1.0,104.0,-74.0,127.0,127.0,127.0,-118.0,-88.0,123.0
116.0,132.0,126.0,136.0,127.0,139.0,57.0,125.0,-1.0,104.0,-74.0,127.0,127.0,127.0,-118.0,-88.0,123.0
116.0,131.0,127.0,132.0,126.0,136.0,96.0,128.0,-1.0,104.0,-74.0,127.0,127.0,127.0,-118.0,-88.0,123.0
116.0,130.0,127.0,132.0,127.0,136.0,96.0,128.0,-1.0,104.0,-74.0,127.0,127.0,127.0,-118.0,-88.0,123.0
116.0,130.0,127.0,132.0,127.0,136.0,97.0,128.0,-1.0,104.0,-74.0,127.0,127.0,127.0,-118.0,-88.0,123.0
116.0,130.0,127.0,132.0,127.0,137.0,98.0,128.0,-1.0,104.0,-74.0,127.0,127.0,127.0,-118.0,-88.0,123.0
116.0,130.0,127.0,132.0,127.0,137.0,98.0,128.0,-1.0,104.0,-74.0,127.0,127.0,127.0,-118.0,-88.0,123.0
115.0,130.0,127.0,132.0,127.0,138.0,99.0,129.0,-1.0,104.0,-74.0,127.0,127.0,127.0,-118.0,-88.0,123.0
116.0,131.0,126.0,133.0,126.0,135.0,92.0,127.0,-1.0,104.0,-74.0,127.0,127.0,127.0,-118.0,-88.0,123.0
116.0,131.0,126.0,133.0,126.0,135.0,93.0,127.0,-1.0,104.0,-74.0,127.0,127.0,127.0,-118.0,-88.0,123.0
116.0,131.0,126.0,133.0,126.0,136.0,94.0,127.0,-1.0,104.0,-74.0,127.0,127.0,127.0,-118.0,-88.0,123.0
116.0,131.0,126.0,133.0,126.0,136.0,95.0,128.0,-1.0,104.0,-74.0,127.0,127.0,127.0,-118.0,-88.0,123.0
112.0,128.0,127.0,121.0,127.0,138.0,109.0,133.0,-1.0,104.0,-74.0,127.0,127.0,127.0,-118.0,-88.0,123.0
112.0,128.0,127.0,121.0,127.0,138.0,109.0,133.0,-1.0,104.0,-74.0,127.0,127.0,127.0,-118.0,-88.0,123.0
112.0,128.0,127.0,120.0,127.0,138.0,109.0,133.0,-1.0,104.0,-74.0,127.0,127.0,127.0,-118.0,-88.0,123.0
112.0,128.0,127.0,120.0,126.0,138.0,109.0,133.0,-1.0,104.0,-74.0,127.0,127.0,127.0,-118.0,-88.0,123.0
113.0,128.0,127.0,119.0,126.0,138.0,109.0,133.0,-1.0,104.0,-74.0,127.0,127.0,127.0,-118.0,-88.0,123.0
112.0,128.0,127.0,124.0,127.0,138.0,109.0,132.0,-1.0,104.0,-74.0,127.0,127.0,127.0,-118.0,-88.0,123.0
112.0,128.0,127.0,123.0,127.0,138.0,109.0,132.0,-1.0,104.0,-74.0,127.0,127.0,127.0,-118.0,-88.0,123.0
112.0,128.0,126.0,123.0,127.0,138.0,109.0,133.0,-1.0,104.0,-74.0,127.0,127.0,127.0,-118.0,-88.0,123.0
112.0,128.0,126.0,123.0,127.0,139.0,109.0,133.0,-1.0,104.0,-74.0,127.0,127.0,127.0,-118.0,-88.0,123.0
112.0,128.0,127.0,122.0,127.0,138.0,109.0,133.0,-1.0,104.0,-74.0,127.0,127.0,127.0,-118.0,-88.0,123.0
134.0,127.0,127.0,105.0,127.0,139.0,117.0,134.0,-1.0,105.0,-73.0,127.0,127.0,127.0,-118.0,-88.0,123.0
134.0,127.0,127.0,105.0,127.0,139.0,117.0,134.0,-1.0,105.0,-73.0,127.0,127.0,127.0,-118.0,-88.0,123.0
134.0,127.0,127.0,105.0,127.0,139.0,117.0,134.0,-1.0,105.0,-73.0,127.0,127.0,127.0,-118.0,-88.0,123.0
134.0,127.0,127.0,105.0,127.0,140.0,118.0,134.0,-1.0,105.0,-73.0,127.0,127.0,127.0,-118.0,-88.0,123.0
132.0,127.0,127.0,105.0,127.0,138.0,117.0,134.0,-1.0,105.0,-73.0,127.0,127.0,127.0,-118.0,-88.0,123.0
133.0,127.0,127.0,105.0,127.0,138.0,117.0,134.0,-1.0,105.0,-73.0,127.0,127.0,127.0,-118.0,-88.0,123.0
133.0,127.0,127.0,105.0,127.0,139.0,117.0,134.0,-1.0,105.0,-73.0,127.0,127.0,127.0,-118.0,-88.0,123.0
133.0,127.0,127.0,105.0,127.0,139.0,117.0,134.0,-1.0,105.0,-73.0,127.0,127.0,127.0,-118.0,-88.0,123.0
134.0,127.0,127.0,105.0,127.0,139.0,117.0,134.0,-1.0,105.0,-73.0,127.0,127.0,127.0,-118.0,-88.0,123.0
134.0,127.0,127.0,105.0,127.0,139.0,117.0,134.0,-1.0,105.0,-73.0,127.0,127.0,127.0,-118.0,-88.0,123.0
127.0,127.0,127.0,108.0,126.0,137.0,113.0,131.0,-1.0,105.0,-73.0,127.0,127.0,127.0,-118.0,-88.0,123.0
126.0,127.0,127.0,108.0,126.0,137.0,113.0,131.0,-1.0,105.0,-73.0,127.0,127.0,127.0,-118.0,-88.0,123.0
126.0,127.0,127.0,108.0,126.0,138.0,113.0,132.0,-1.0,105.0,-73.0,127.0,127.0,127.0,-118.0,-88.0,123.0
128.0,127.0,127.0,108.0,126.0,136.0,115.0,131.0,-1.0,105.0,-73.0,127.0,127.0,127.0,-118.0,-88.0,123.0
128.0,127.0,127.0,108.0,126.0,136.0,115.0,132.0,-1.0,105.0,-73.0,127.0,127.0,127.0,-118.0,-88.0,123.0
128.0,127.0,127.0,108.0,126.0,137.0,114.0,132.0,-1.0,105.0,-73.0,127.0,127.0,127.0,-118.0,-88.0,123.0
127.0,127.0,127.0,108.0,126.0,137.0,114.0,132.0,-1.0,105.0,-73.0,127.0,127.0,127.0,-118.0,-88.0,123.0
127.0,127.0,127.0,108.0,126.0,137.0,114.0,132.0,-1.0,105.0,-73.0,127.0,127.0,127.0,-118.0,-88.0,123.0
127.0,127.0,127.0,108.0,126.0,137.0,114.0,131.0,-1.0,105.0,-73.0,127.0,127.0,127.0,-118.0,-88.0,123.0
127.0,127.0,127.0,108.0,126.0,137.0,113.0,131.0,-1.0,105.0,-73.0,127.0,127.0,127.0,-118.0,-88.0,123.0
122.0,125.0,126.0,110.0,126.0,136.0,106.0,128.0,-1.0,106.0,-73.0,127.0,127.0,127.0,-118.0,-88.0,123.0
122.0,125.0,126.0,110.0,126.0,136.0,106.0,128.0,-1.0,106.0,-73.0,127.0,127.0,127.0,-118.0,-88.0,123.0
122.0,126.0,125.0,110.0,126.0,136.0,109.0,128.0,-1.0,106.0,-73.0,127.0,127.0,127.0,-118.0,-88.0,123.0
122.0,126.0,126.0,110.0,126.0,136.0,109.0,128.0,-1.0,106.0,-73.0,127.0,127.0,127.0,-118.0,-88.0,123.0
122.0,126.0,126.0,110.0,126.0,136.0,109.0,128.0,-1.0,106.0,-73.0,127.0,127.0,127.0,-118.0,-88.0,123.0
122.0,126.0,126.0,110.0,126.0,136.0,109.0,128.0,-1.0,106.0,-73.0,127.0,127.0,127.0,-118.0,-88.0,123.0
122.0,126.0,126.0,110.0,126.0,137.0,108.0,128.0,-1.0,106.0,-73.0,127.0,127.0,127.0,-118.0,-88.0,123.0
122.0,126.0,126.0,110.0,126.0,136.0,108.0,128.0,-1.0,106.0,-73.0,127.0,127.0,127.0,-118.0,-88.0,123.0
122.0,126.0,126.0,110.0,126.0,136.0,108.0,128.0,-1.0,106.0,-73.0,127.0,127.0,127.0,-118.0,-88.0,123.0
122.0,125.0,126.0,110.0,126.0,136.0,107.0,128.0,-1.0,106.0,-73.0,127.0,127.0,127.0,-118.0,-88.0,123.0
122.0,125.0,126.0,113.0,128.0,137.0,133.0,127.0,-1.0,106.0,-73.0,127.0,127.0,127.0,-118.0,-88.0,123.0
122.0,125.0,125.0,112.0,128.0,136.0,119.0,127.0,-1.0,106.0,-73.0,127.0,127.0,127.0,-118.0,-88.0,123.0
122.0,125.0,125.0,112.0,128.0,136.0,121.0,127.0,-1.0,106.0,-73.0,127.0,127.0,127.0,-118.0,-88.0,123.0
122.0,125.0,125.0,112.0,128.0,136.0,123.0,126.0,-1.0,106.0,-73.0,127.0,127.0,127.0,-118.0,-88.0,123.0
122.0,125.0,125.0,112.0,128.0,136.0,124.0,126.0,-1.0,106.0,-73.0,127.0,127.0,127.0,-118.0,-88.0,123.0
122.0,125.0,126.0,112.0,128.0,136.0,126.0,126.0,-1.0,106.0,-73.0,127.0,127.0,127.0,-118.0,-88.0,123.0
122.0,125.0,126.0,112.0,128.0,136.0,127.0,126.0,-1.0,106.0,-73.0,127.0,127.0,127.0,-118.0,-88.0,123.0
122.0,125.0,125.0,112.0,128.0,137.0,129.0,127.0,-1.0,106.0,-73.0,127.0,127.0,127.0,-118.0,-88.0,123.0
122.0,125.0,126.0,112.0,128.0,137.0,130.0,127.0,-1.0,106.0,-73.0,127.0,127.0,127.0,-118.0,-88.0,123.0
122.0,125.0,126.0,112.0,128.0,137.0,132.0,127.0,-1.0,106.0,-73.0,127.0,127.0,127.0,-118.0,-88.0,123.0
123.0,124.0,126.0,115.0,127.0,135.0,193.0,127.0,-1.0,107.0,-72.0,-128.0,127.0,127.0,-118.0,-88.0,123.0
123.0,124.0,126.0,115.0,127.0,135.0,195.0,127.0,-1.0,107.0,-72.0,-128.0,127.0,127.0,-118.0,-88.0,123.0
123.0,124.0,126.0,115.0,127.0,134.0,196.0,127.0,-1.0,107.0,-72.0,-128.0,127.0,127.0,-118.0,-88.0,123.0
123.0,124.0,126.0,115.0,127.0,134.0,198.0,127.0,-1.0,107.0,-72.0,-128.0,127.0,127.0,-118.0,-88.0,123.0
123.0,124.0,126.0,115.0,127.0,134.0,199.0,127.0,-1.0,107.0,-72.0,-128.0,127.0,127.0,-118.0,-88.0,123.0
123.0,124.0,126.0,115.0,127.0,134.0,201.0,127.0,-1.0,107.0,-72.0,-128.0,127.0,127.0,-118.0,-88.0,123.0
123.0,124.0,126.0,115.0,127.0,135.0,203.0,127.0,-1.0,107.0,-72.0,-128.0,127.0,127.0,-118.0,-88.0,123.0
123.0,124.0,126.0,116.0,127.0,135.0,205.0,127.0,-1.0,107.0,-72.0,-128.0,127.0,127.0,-118.0,-88.0,123.0
123.0,124.0,126.0,116.0,127.0,135.0,206.0,127.0,-1.0,107.0,-72.0,-128.0,127.0,127.0,-118.0,-88.0,123.0
123.0,124.0,127.0,116.0,127.0,135.0,208.0,127.0,-1.0,107.0,-72.0,-128.0,127.0,127.0,-118.0,-88.0,123.0
123.0,123.0,126.0,118.0,125.0,132.0,228.0,127.0,-1.0,107.0,-72.0,-128.0,127.0,127.0,-118.0,-88.0,123.0
123.0,123.0,126.0,118.0,125.0,132.0,228.0,127.0,-1.0,107.0,-72.0,-128.0,127.0,127.0,-118.0,-88.0,123.0
123.0,123.0,126.0,118.0,126.0,132.0,227.0,127.0,-1.0,107.0,-72.0,-128.0,127.0,127.0,-118.0,-88.0,123.0
123.0,123.0,126.0,118.0,126.0,132.0,226.0,127.0,-1.0,107.0,-72.0,-128.0,127.0,127.0,-118.0,-88.0,123.0
123.0,123.0,126.0,118.0,126.0,132.0,226.0,127.0,-1.0,107.0,-72.0,-128.0,127.0,127.0,-118.0,-88.0,123.0
123.0,123.0,126.0,118.0,125.0,132.0,225.0,127.0,-1.0,107.0,-72.0,-128.0,127.0,127.0,-118.0,-88.0,123.0
123.0,124.0,126.0,118.0,125.0,133.0,224.0,127.0,-1.0,107.0,-72.0,-128.0,127.0,127.0,-118.0,-88.0,123.0
123.0,124.0,126.0,118.0,126.0,133.0,224.0,127.0,-1.0,107.0,-72.0,-128.0,127.0,127.0,-118.0,-88.0,123.0
123.0,123.0,126.0,118.0,126.0,132.0,223.0,127.0,-1.0,107.0,-72.0,-128.0,127.0,127.0,-118.0,-88.0,123.0
123.0,124.0,126.0,118.0,125.0,131.0,229.0,127.0,-1.0,107.0,-72.0,-128.0,127.0,127.0,-118.0,-88.0,123.0
123.0,124.0,125.0,120.0,125.0,128.0,186.0,127.0,-1.0,107.0,-71.0,-128.0,127.0,127.0,-118.0,-88.0,123.0
122.0,124.0,125.0,120.0,125.0,128.0,185.0,127.0,-1.0,107.0,-71.0,-128.0,127.0,127.0,-118.0,-88.0,123.0
122.0,124.0,125.0,120.0,125.0,128.0,184.0,127.0,-1.0,107.0,-71.0,-128.0,127.0,127.0,-118.0,-88.0,123.0
122.0,124.0,125.0,120.0,125.0,128.0,184.0,127.0,-1.0,107.0,-71.0,-128.0,127.0,127.0,-118.0,-88.0,123.0
122.0,124.0,125.0,120.0,125.0,128.0,183.0,127.0,-1.0,107.0,-71.0,-128.0,127.0,127.0,-118.0,-88.0,123.0
122.0,124.0,125.0,120.0,125.0,129.0,182.0,127.0,-1.0,107.0,-71.0,-128.0,127.0,127.0,-118.0,-88.0,123.0
122.0,124.0,125.0,120.0,125.0,129.0,181.0,127.0,-1.0,107.0,-71.0,-128.0,127.0,127.0,-118.0,-88.0,123.0
122.0,124.0,125.0,120.0,125.0,129.0,180.0,127.0,-1.0,107.0,-71.0,-128.0,127.0,127.0,-118.0,-88.0,123.0
123.0,124.0,125.0,120.0,125.0,128.0,188.0,127.0,-1.0,107.0,-71.0,-128.0,127.0,127.0,-118.0,-88.0,123.0
123.0,124.0,125.0,120.0,125.0,128.0,187.0,127.0,-1.0,107.0,-71.0,-128.0,127.0,127.0,-118.0,-88.0,123.0
121.0,124.0,126.0,122.0,125.0,127.0,148.0,126.0,-1.0,107.0,-71.0,-128.0,127.0,127.0,-118.0,-88.0,123.0
121.0,124.0,126.0,122.0,125.0,127.0,147.0,126.0,-1.0,107.0,-71.0,-128.0,127.0,127.0,-118.0,-88.0,123.0
121.0,124.0,126.0,122.0,125.0,127.0,147.0,126.0,-1.0,107.0,-71.0,-128.0,127.0,127.0,-118.0,-88.0,123.0
121.0,124.0,126.0,122.0,125.0,127.0,146.0,126.0,-1.0,107.0,-71.0,-128.0,127.0,127.0,-118.0,-88.0,123.0
121.0,124.0,126.0,123.0,125.0,128.0,146.0,126.0,-1.0,107.0,-71.0,-128.0,127.0,127.0,-118.0,-88.0,123.0
121.0,124.0,126.0,123.0,125.0,128.0,145.0,126.0,-1.0,107.0,-71.0,-128.0,127.0,127.0,-118.0,-88.0,123.0
121.0,124.0,126.0,123.0,125.0,128.0,144.0,125.0,-1.0,107.0,-71.0,-128.0,127.0,127.0,-118.0,-88.0,123.0
120.0,124.0,125.0,122.0,125.0,127.0,150.0,126.0,-1.0,107.0,-71.0,-128.0,127.0,127.0,-118.0,-88.0,123.0
120.0,124.0,125.0,122.0,125.0,127.0,149.0,126.0,-1.0,107.0,-71.0,-128.0,127.0,127.0,-118.0,-88.0,123.0
121.0,124.0,126.0,122.0,125.0,127.0,149.0,126.0,-1.0,107.0,-71.0,-128.0,127.0,127.0,-118.0,-88.0,123.0
121.0,124.0,126.0,125.0,125.0,125.0,123.0,118.0,-1.0,106.0,-70.0,-128.0,127.0,127.0,-118.0,-88.0,123.0
121.0,124.0,126.0,125.0,125.0,126.0,122.0,118.0,-1.0,106.0,-70.0,-128.0,127.0,127.0,-118.0,-88.0,123.0
121.0,124.0,126.0,125.0,125.0,126.0,122.0,118.0,-1.0,106.0,-70.0,-128.0,127.0,127.0,-118.0,-88.0,123.0
121.0,124.0,126.0,125.0,125.0,126.0,121.0,118.0,-1.0,106.0,-70.0,-128.0,127.0,127.0,-118.0,-88.0,123.0
121.0,124.0,126.0,125.0,125.0,127.0,121.0,118.0,-1.0,106.0,-70.0,-128.0,127.0,127.0,-118.0,-88.0,123.0
121.0,124.0,126.0,125.0,125.0,127.0,121.0,118.0,-1.0,106.0,-70.0,-128.0,127.0,127.0,-118.0,-88.0,123.0
122.0,124.0,126.0,125.0,125.0,125.0,124.0,119.0,-1.0,106.0,-70.0,-128.0,127.0,127.0,-118.0,-88.0,123.0
122.0,124.0,126.0,125.0,125.0,126.0,124.0,119.0,-1.0,106.0,-70.0,-128.0,127.0,127.0,-118.0,-88.0,123.0
121.0,124.0,126.0,125.0,125.0,126.0,124.0,119.0,-1.0,106.0,-70.0,-128.0,127.0,127.0,-118.0,-88.0,123.0
121.0,124.0,126.0,125.0,125.0,126.0,123.0,118.0,-1.0,106.0,-70.0,-128.0,127.0,127.0,-118.0,-88.0,123.0
122.0,122.0,127.0,127.0,126.0,127.0,114.0,117.0,-1.0,106.0,-70.0,-128.0,127.0,127.0,-118.0,-88.0,123.0
122.0,122.0,127.0,127.0,126.0,127.0,114.0,117.0,-1.0,106.0,-70.0,-128.0,127.0,127.0,-118.0,-88.0,123.0
122.0,122.0,126.0,127.0,126.0,127.0,114.0,118.0,-1.0,106.0,-70.0,-128.0,127.0,127.0,-118.0,-88.0,123.0
122.0,122.0,126.0,127.0,126.0,128.0,114.0,118.0,-1.0,106.0,-70.0,-128.0,127.0,127.0,-118.0,-88.0,123.0
122.0,122.0,127.0,127.0,126.0,128.0,114.0,118.0,-1.0,106.0,-70.0,-128.0,127.0,127.0,-118.0,-88.0,123.0
122.0,122.0,126.0,127.0,126.0,126.0,115.0,116.0,-1.0,106.0,-70.0,-128.0,127.0,127.0,-118.0,-88.0,123.0
122.0,122.0,126.0,127.0,126.0,127.0,115.0,117.0,-1.0,106.0,-70.0,-128.0,127.0,127.0,-118.0,-88.0,123.0
122.0,122.0,126.0,127.0,126.0,127.0,115.0,117.0,-1.0,106.0,-70.0,-128.0,127.0,127.0,-118.0,-88.0,123.0
122.0,122.0,126.0,127.0,126.0,127.0,114.0,117.0,-1.0,106.0,-70.0,-128.0,127.0,127.0,-118.0,-88.0,123.0
122.0,122.0,126.0,127.0,126.0,127.0,114.0,117.0,-1.0,106.0,-70.0,-128.0,127.0,127.0,-118.0,-88.0,123.0
124.0,123.0,127.0,126.0,127.0,125.0,111.0,123.0,-1.0,106.0,-70.0,127.0,127.0,127.0,-118.0,-88.0,123.0
124.0,123.0,127.0,126.0,127.0,125.0,111.0,123.0,-1.0,106.0,-70.0,127.0,127.0,127.0,-118.0,-88.0,123.0
124.0,123.0,127.0,126.0,127.0,125.0,111.0,123.0,-1.0,106.0,-70.0,127.0,127.0,127.0,-118.0,-88.0,123.0
124.0,123.0,127.0,126.0,127.0,125.0,110.0,123.0,-1.0,106.0,-70.0,127.0,127.0,127.0,-118.0,-88.0,123.0
124.0,123.0,127.0,126.0,127.0,125.0,111.0,122.0,-1.0,106.0,-70.0,127.0,127.0,127.0,-118.0,-88.0,123.0
124.0,123.0,127.0,126.0,127.0,125.0,111.0,122.0,-1.0,106.0,-70.0,127.0,127.0,127.0,-118.0,-88.0,123.0
124.0,123.0,127.0,126.0,127.0,125.0,111.0,122.0,-1.0,106.0,-70.0,127.0,127.0,127.0,-118.0,-88.0,123.0
124.0,123.0,127.0,126.0,127.0,125.0,111.0,122.0,-1.0,106.0,-70.0,127.0,127.0,127.0,-118.0,-88.0,123.0
124.0,123.0,127.0,126.0,127.0,125.0,111.0,123.0,-1.0,106.0,-70.0,127.0,127.0,127.0,-118.0,-88.0,123.0
124.0,123.0,127.0,126.0,127.0,125.0,111.0,123.0,-1.0,106.0,-70.0,127.0,127.0,127.0,-118.0,-88.0,123.0
125.0,122.0,126.0,126.0,126.0,127.0,103.0,124.0,-1.0,106.0,-70.0,127.0,127.0,127.0,-118.0,-88.0,123.0
125.0,122.0,127.0,126.0,126.0,127.0,103.0,124.0,-1.0,106.0,-70.0,127.0,127.0,127.0,-118.0,-88.0,123.0
125.0,122.0,127.0,126.0,126.0,127.0,103.0,124.0,-1.0,106.0,-70.0,127.0,127.0,127.0,-118.0,-88.0,123.0
125.0,122.0,126.0,125.0,126.0,125.0,106.0,123.0,-1.0,106.0,-70.0,127.0,127.0,127.0,-118.0,-88.0,123.0
125.0,122.0,127.0,125.0,127.0,125.0,105.0,123.0,-1.0,106.0,-70.0,127.0,127.0,127.0,-118.0,-88.0,123.0
125.0,122.0,127.0,126.0,127.0,126.0,105.0,123.0,-1.0,106.0,-70.0,127.0,127.0,127.0,-118.0,-88.0,123.0
125.0,122.0,127.0,126.0,127.0,125.0,105.0,123.0,-1.0,106.0,-70.0,127.0,127.0,127.0,-118.0,-88.0,123.0
125.0,122.0,126.0,126.0,126.0,126.0,104.0,123.0,-1.0,106.0,-70.0,127.0,127.0,127.0,-118.0,-88.0,123.0
125.0,122.0,127.0,126.0,126.0,126.0,104.0,123.0,-1.0,106.0,-70.0,127.0,127.0,127.0,-118.0,-88.0,123.0
125.0,122.0,127.0,126.0,126.0,126.0,104.0,123.0,-1.0,106.0,-70.0,127.0,127.0,127.0,-118.0,-88.0,123.0
125.0,124.0,127.0,126.0,127.0,127.0,95.0,124.0,-1.0,106.0,-71.0,127.0,127.0,127.0,-118.0,-88.0,123.0
125.0,124.0,127.0,126.0,127.0,127.0,95.0,124.0,-1.0,106.0,-71.0,127.0,127.0,127.0,-118.0,-88.0,123.0
125.0,123.0,127.0,126.0,127.0,125.0,96.0,124.0,-1.0,106.0,-71.0,127.0,127.0,127.0,-118.0,-88.0,123.0
125.0,123.0,127.0,126.0,126.0,126.0,96.0,124.0,-1.0,106.0,-71.0,127.0,127.0,127.0,-118.0,-88.0,123.0
125.0,123.0,127.0,126.0,127.0,126.0,96.0,124.0,-1.0,106.0,-71.0,127.0,127.0,127.0,-118.0,-88.0,123.0
125.0,123.0,127.0,126.0,127.0,126.0,96.0,124.0,-1.0,106.0,-71.0,127.0,127.0,127.0,-118.0,-88.0,123.0
125.0,123.0,127.0,126.0,127.0,126.0,96.0,124.0,-1.0,106.0,-71.0,127.0,127.0,127.0,-118.0,-88.0,123.0
125.0,123.0,127.0,126.0,127.0,126.0,96.0,124.0,-1.0,106.0,-71.0,127.0,127.0,127.0,-118.0,-88.0,123.0
125.0,123.0,127.0,126.0,127.0,126.0,95.0,124.0,-1.0,106.0,-71.0,127.0,127.0,127.0,-118.0,-88.0,123.0
125.0,124.0,127.0,126.0,127.0,126.0,95.0,124.0,-1.0,106.0,-71.0,127.0,127.0,127.0,-118.0,-88.0,123.0
125.0,125.0,127.0,126.0,127.0,128.0,92.0,127.0,-1.0,106.0,-71.0,127.0,127.0,127.0,-118.0,-88.0,123.0
125.0,125.0,127.0,125.0,127.0,126.0,93.0,126.0,-1.0,106.0,-71.0,127.0,127.0,127.0,-118.0,-88.0,123.0
125.0,125.0,127.0,125.0,126.0,127.0,92.0,126.0,-1.0,106.0,-71.0,127.0,127.0,127.0,-118.0,-88.0,123.0
125.0,125.0,127.0,125.0,127.0,127.0,92.0,126.0,-1.0,106.0,-71.0,127.0,127.0,127.0,-118.0,-88.0,123.0
125.0,125.0,127.0,125.0,127.0,127.0,92.0,126.0,-1.0,106.0,-71.0,127.0,127.0,127.0,-118.0,-88.0,123.0
125.0,125.0,127.0,125.0,127.0,127.0,92.0,126.0,-1.0,106.0,-71.0,127.0,127.0,127.0,-118.0,-88.0,123.0
125.0,125.0,127.0,125.0,127.0,127.0,92.0,126.0,-1.0,106.0,-71.0,127.0,127.0,127.0,-118.0,-88.0,123.0
125.0,125.0,127.0,125.0,127.0,127.0,92.0,126.0,-1.0,106.0,-71.0,127.0,127.0,127.0,-118.0,-88.0,123.0
125.0,125.0,127.0,125.0,127.0,127.0,92.0,126.0,-1.0,106.0,-71.0,127.0,127.0,127.0,-118.0,-88.0,123.0
125.0,125.0,127.0,125.0,127.0,128.0,92.0,127.0,-1.0,106.0,-71.0,127.0,127.0,127.0,-118.0,-88.0,123.0
125.0,125.0,127.0,126.0,126.0,126.0,96.0,127.0,-1.0,106.0,-71.0,127.0,127.0,127.0,-118.0,-88.0,123.0
125.0,125.0,126.0,126.0,126.0,126.0,96.0,127.0,-1.0,106.0,-71.0,127.0,127.0,127.0,-118.0,-88.0,123.0
125.0,125.0,126.0,126.0,126.0,127.0,96.0,127.0,-1.0,106.0,-71.0,127.0,127.0,127.0,-118.0,-88.0,123.0
125.0,125.0,126.0,126.0,126.0,127.0,96.0,127.0,-1.0,106.0,-71.0,127.0,127.0,127.0,-118.0,-88.0,123.0
125.0,125.0,126.0,126.0,126.0,127.0,96.0,127.0,-1.0,106.0,-71.0,127.0,127.0,127.0,-118.0,-88.0,123.0
125.0,125.0,127.0,126.0,126.0,127.0,96.0,127.0,-1.0,106.0,-71.0,127.0,127.0,127.0,-118.0,-88.0,123.0
125.0,125.0,127.0,126.0,127.0,127.0,96.0,127.0,-1.0,106.0,-71.0,127.0,127.0,127.0,-118.0,-88.0,123.0
125.0,125.0,127.0,126.0,127.0,127.0,96.0,127.0,-1.0,106.0,-71.0,127.0,127.0,127.0,-118.0,-88.0,123.0
125.0,125.0,127.0,126.0,126.0,128.0,96.0,127.0,-1.0,106.0,-71.0,127.0,127.0,127.0,-118.0,-88.0,123.0
125.0,125.0,127.0,126.0,127.0,128.0,96.0,127.0,-1.0,106.0,-71.0,127.0,127.0,127.0,-118.0,-88.0,123.0
125.0,124.0,127.0,126.0,126.0,127.0,98.0,126.0,-1.0,107.0,-71.0,127.0,127.0,127.0,-118.0,-88.0,123.0
125.0,124.0,127.0,126.0,126.0,128.0,98.0,126.0,-1.0,107.0,-71.0,127.0,127.0,127.0,-118.0,-88.0,123.0
126.0,124.0,127.0,126.0,126.0,128.0,97.0,126.0,-1.0,107.0,-71.0,127.0,127.0,127.0,-118.0,-88.0,123.0
125.0,124.0,127.0,126.0,127.0,128.0,97.0,126.0,-1.0,107.0,-71.0,127.0,127.0,127.0,-118.0,-88.0,123.0
125.0,124.0,127.0,126.0,127.0,128.0,97.0,126.0,-1.0,107.0,-71.0,127.0,127.0,127.0,-118.0,-88.0,123.0
125.0,124.0,127.0,126.0,127.0,128.0,97.0,126.0,-1.0,107.0,-71.0,127.0,127.0,127.0,-118.0,-88.0,123.0
125.0,124.0,127.0,126.0,127.0,128.0,97.0,126.0,-1.0,107.0,-71.0,127.0,127.0,127.0,-118.0,-88.0,123.0
125.0,124.0,127.0,126.0,127.0,128.0,97.0,126.0,-1.0,107.0,-71.0,127.0,127.0,127.0,-118.0,-88.0,123.0
126.0,124.0,127.0,126.0,127.0,129.0,97.0,126.0,-1.0,107.0,-71.0,127.0,127.0,127.0,-118.0,-88.0,123.0
125.0,124.0,127.0,126.0,127.0,127.0,98.0,126.0,-1.0,107.0,-71.0,127.0,127.0,127.0,-118.0,-88.0,123.0
126.0,124.0,127.0,126.0,127.0,127.0,97.0,126.0,-1.0,107.0,-70.0,127.0,127.0,127.0,-118.0,-88.0,123.0
126.0,124.0,127.0,126.0,127.0,128.0,97.0,126.0,-1.0,107.0,-70.0,127.0,127.0,127.0,-118.0,-88.0,123.0
126.0,124.0,127.0,126.0,127.0,128.0,97.0,126.0,-1.0,107.0,-70.0,127.0,127.0,127.0,-118.0,-88.0,123.0
126.0,124.0,127.0,126.0,127.0,127.0,97.0,126.0,-1.0,107.0,-70.0,127.0,127.0,127.0,-118.0,-88.0,123.0
126.0,124.0,127.0,126.0,127.0,127.0,97.0,126.0,-1.0,107.0,-70.0,127.0,127.0,127.0,-118.0,-88.0,123.0
126.0,124.0,127.0,126.0,127.0,127.0,97.0,126.0,-1.0,107.0,-70.0,127.0,127.0,127.0,-118.0,-88.0,123.0
126.0,124.0,127.0,126.0,127.0,128.0,97.0,126.0,-1.0,107.0,-70.0,127.0,127.0,127.0,-118.0,-88.0,123.0
126.0,124.0,127.0,126.0,127.0,128.0,97.0,126.0,-1.0,107.0,-70.0,127.0,127.0,127.0,-118.0,-88.0,123.0
126.0,124.0,127.0,126.0,127.0,126.0,97.0,125.0,-1.0,107.0,-70.0,127.0,127.0,127.0,-118.0,-88.0,123.0
126.0,124.0,127.0,125.0,127.0,127.0,97.0,125.0,-1.0,107.0,-70.0,127.0,127.0,127.0,-118.0,-88.0,123.0
126.0,125.0,127.0,126.0,126.0,127.0,103.0,126.0,-1.0,107.0,-71.0,127.0,127.0,127.0,-118.0,-88.0,123.0
126.0,125.0,127.0,126.0,127.0,127.0,103.0,126.0,-1.0,107.0,-71.0,127.0,127.0,127.0,-118.0,-88.0,123.0
126.0,125.0,127.0,126.0,127.0,127.0,103.0,126.0,-1.0,107.0,-71.0,127.0,127.0,127.0,-118.0,-88.0,123.0
126.0,125.0,127.0,126.0,127.0,127.0,103.0,126.0,-1.0,107.0,-71.0,127.0,127.0,127.0,-118.0,-88.0,123.0
126.0,125.0,128.0,126.0,127.0,127.0,103.0,126.0,-1.0,107.0,-71.0,127.0,127.0,127.0,-118.0,-88.0,123.0
126.0,125.0,127.0,126.0,127.0,128.0,103.0,126.0,-1.0,107.0,-71.0,127.0,127.0,127.0,-118.0,-88.0,123.0
126.0,125.0,128.0,126.0,127.0,128.0,104.0,127.0,-1.0,107.0,-71.0,127.0,127.0,127.0,-118.0,-88.0,123.0
126.0,125.0,127.0,125.0,126.0,126.0,103.0,126.0,-1.0,107.0,-71.0,127.0,127.0,127.0,-118.0,-88.0,123.0
126.0,125.0,127.0,125.0,126.0,126.0,103.0,126.0,-1.0,107.0,-71.0,127.0,127.0,127.0,-118.0,-88.0,123.0
126.0,125.0,127.0,125.0,126.0,127.0,103.0,126.0,-1.0,107.0,-71.0,127.0,127.0,127.0,-118.0,-88.0,123.0
126.0,125.0,127.0,125.0,127.0,128.0,106.0,126.0,-1.0,107.0,-71.0,127.0,127.0,127.0,-118.0,-88.0,123.0
126.0,125.0,127.0,125.0,127.0,128.0,106.0,127.0,-1.0,107.0,-71.0,127.0,127.0,127.0,-118.0,-88.0,123.0
126.0,125.0,127.0,125.0,127.0,128.0,106.0,127.0,-1.0,107.0,-71.0,127.0,127.0,127.0,-118.0,-88.0,123.0
126.0,125.0,128.0,125.0,127.0,128.0,106.0,127.0,-1.0,107.0,-71.0,127.0,127.0,127.0,-118.0,-88.0,123.0
126.0,125.0,127.0,125.0,127.0,128.0,105.0,127.0,-1.0,107.0,-71.0,127.0,127.0,127.0,-118.0,-88.0,123.0
126.0,125.0,127.0,125.0,126.0,128.0,107.0,126.0,-1.0,107.0,-71.0,127.0,127.0,127.0,-118.0,-88.0,123.0
126.0,125.0,127.0,125.0,126.0,128.0,106.0,126.0,-1.0,107.0,-71.0,127.0,127.0,127.0,-118.0,-88.0,123.0
126.0,125.0,127.0,125.0,126.0,128.0,106.0,127.0,-1.0,107.0,-71.0,127.0,127.0,127.0,-118.0,-88.0,123.0
126.0,125.0,127.0,125.0,127.0,128.0,106.0,126.0,-1.0,107.0,-71.0,127.0,127.0,127.0,-118.0,-88.0,123.0
126.0,125.0,127.0,125.0,127.0,128.0,106.0,127.0,-1.0,107.0,-71.0,127.0,127.0,127.0,-118.0,-88.0,123.0
126.0,125.0,127.0,125.0,127.0,127.0,97.0,124.0,-1.0,107.0,-71.0,127.0,127.0,127.0,-118.0,-88.0,123.0
126.0,125.0,128.0,125.0,127.0,127.0,97.0,124.0,-1.0,107.0,-71.0,127.0,127.0,127.0,-118.0,-88.0,123.0
126.0,125.0,127.0,125.0,127.0,127.0,97.0,124.0,-1.0,107.0,-71.0,127.0,127.0,127.0,-118.0,-88.0,123.0
126.0,125.0,128.0,125.0,127.0,127.0,97.0,124.0,-1.0,107.0,-71.0,127.0,127.0,127.0,-118.0,-88.0,123.0
126.0,125.0,127.0,125.0,127.0,126.0,99.0,124.0,-1.0,107.0,-71.0,127.0,127.0,127.0,-118.0,-88.0,123.0
126.0,125.0,127.0,125.0,127.0,126.0,99.0,124.0,-1.0,107.0,-71.0,127.0,127.0,127.0,-118.0,-88.0,123.0
126.0,125.0,127.0,125.0,127.0,126.0,99.0,124.0,-1.0,107.0,-71.0,127.0,127.0,127.0,-118.0,-88.0,123.0
126.0,125.0,127.0,125.0,127.0,126.0,98.0,124.0,-1.0,107.0,-71.0,127.0,127.0,127.0,-118.0,-88.0,123.0
126.0,125.0,127.0,125.0,127.0,126.0,98.0,124.0,-1.0,107.0,-71.0,127.0,127.0,127.0,-118.0,-88.0,123.0
126.0,125.0,127.0,125.0,127.0,127.0,98.0,124.0,-1.0,107.0,-71.0,127.0,127.0,127.0,-118.0,-88.0,123.0
126.0,125.0,127.0,125.0,127.0,127.0,93.0,126.0,-1.0,107.0,-71.0,127.0,127.0,127.0,-118.0,-88.0,123.0
126.0,125.0,127.0,125.0,127.0,127.0,93.0,126.0,-1.0,107.0,-71.0,127.0,127.0,127.0,-118.0,-88.0,123.0
126.0,125.0,127.0,125.0,127.0,127.0,93.0,126.0,-1.0,107.0,-71.0,127.0,127.0,127.0,-118.0,-88.0,123.0
126.0,126.0,126.0,125.0,127.0,128.0,93.0,126.0,-1.0,107.0,-71.0,127.0,127.0,127.0,-118.0,-88.0,123.0
126.0,126.0,126.0,125.0,127.0,128.0,93.0,126.0,-1.0,107.0,-71.0,127.0,127.0,127.0,-118.0,-88.0,123.0
126.0,126.0,126.0,125.0,127.0,128.0,93.0,126.0,-1.0,107.0,-71.0,127.0,127.0,127.0,-118.0,-88.0,123.0
126.0,126.0,126.0,125.0,127.0,128.0,93.0,126.0,-1.0,107.0,-71.0,127.0,127.0,127.0,-118.0,-88.0,123.0
126.0,125.0,127.0,125.0,127.0,128.0,93.0,126.0,-1.0,107.0,-71.0,127.0,127.0,127.0,-118.0,-88.0,123.0
126.0,125.0,127.0,125.0,127.0,128.0,93.0,126.0,-1.0,107.0,-71.0,127.0,127.0,127.0,-118.0,-88.0,123.0
126.0,125.0,127.0,125.0,127.0,127.0,93.0,126.0,-1.0,107.0,-71.0,127.0,127.0,127.0,-118.0,-88.0,123.0
127.0,125.0,127.0,125.0,126.0,128.0,95.0,125.0,-1.0,107.0,-71.0,127.0,127.0,127.0,-118.0,-88.0,123.0
127.0,125.0,127.0,125.0,126.0,128.0,95.0,125.0,-1.0,107.0,-71.0,127.0,127.0,127.0,-118.0,-88.0,123.0
127.0,126.0,127.0,125.0,125.0,128.0,95.0,126.0,-1.0,107.0,-71.0,127.0,127.0,127.0,-118.0,-88.0,123.0
127.0,126.0,127.0,125.0,125.0,128.0,95.0,126.0,-1.0,107.0,-71.0,127.0,127.0,127.0,-118.0,-88.0,123.0
127.0,126.0,127.0,125.0,125.0,128.0,95.0,125.0,-1.0,107.0,-71.0,127.0,127.0,127.0,-118.0,-88.0,123.0
127.0,125.0,127.0,125.0,126.0,128.0,95.0,125.0,-1.0,107.0,-71.0,127.0,127.0,127.0,-118.0,-88.0,123.0
127.0,125.0,127.0,125.0,126.0,128.0,95.0,125.0,-1.0,107.0,-71.0,127.0,127.0,127.0,-118.0,-88.0,123.0
127.0,125.0,127.0,125.0,126.0,128.0,95.0,125.0,-1.0,107.0,-71.0,127.0,127.0,127.0,-118.0,-88.0,123.0
127.0,125.0,127.0,125.0,126.0,128.0,95.0,125.0,-1.0,107.0,-71.0,127.0,127.0,127.0,-118.0,-88.0,123.0
127.0,125.0,127.0,125.0,126.0,128.0,95.0,125.0,-1.0,107.0,-71.0,127.0,127.0,127.0,-118.0,-88.0,123.0
127.0,125.0,128.0,125.0,126.0,128.0,99.0,123.0,-1.0,108.0,-71.0,127.0,127.0,127.0,-118.0,-88.0,123.0
127.0,125.0,127.0,124.0,125.0,128.0,99.0,123.0,-1.0,108.0,-71.0,127.0,127.0,127.0,-118.0,-88.0,123.0
127.0,125.0,127.0,124.0,125.0,128.0,99.0,123.0,-1.0,108.0,-71.0,127.0,127.0,127.0,-118.0,-88.0,123.0
127.0,125.0,127.0,124.0,125.0,129.0,99.0,123.0,-1.0,108.0,-71.0,127.0,127.0,127.0,-118.0,-88.0,123.0
127.0,125.0,127.0,124.0,125.0,128.0,99.0,123.0,-1.0,108.0,-71.0,127.0,127.0,127.0,-118.0,-88.0,123.0
127.0,125.0,127.0,124.0,126.0,128.0,99.0,123.0,-1.0,108.0,-71.0,127.0,127.0,127.0,-118.0,-88.0,123.0
127.0,125.0,127.0,124.0,126.0,128.0,99.0,123.0,-1.0,108.0,-71.0,127.0,127.0,127.0,-118.0,-88.0,123.0
127.0,125.0,127.0,124.0,126.0,128.0,99.0,123.0,-1.0,108.0,-71.0,127.0,127.0,127.0,-118.0,-88.0,123.0
127.0,125.0,127.0,124.0,126.0,128.0,99.0,123.0,-1.0,108.0,-71.0,127.0,127.0,127.0,-118.0,-88.0,123.0
127.0,125.0,127.0,124.0,126.0,128.0,99.0,123.0,-1.0,108.0,-71.0,127.0,127.0,127.0,-118.0,-88.0,123.0
126.0,125.0,126.0,124.0,125.0,128.0,90.0,122.0,-1.0,108.0,-71.0,127.0,127.0,127.0,-118.0,-88.0,123.0
127.0,125.0,126.0,124.0,125.0,128.0,90.0,122.0,-1.0,108.0,-71.0,127.0,127.0,127.0,-118.0,-88.0,123.0
126.0,125.0,126.0,124.0,125.0,128.0,90.0,122.0,-1.0,108.0,-71.0,127.0,127.0,127.0,-118.0,-88.0,123.0
126.0,125.0,127.0,124.0,125.0,128.0,90.0,123.0,-1.0,108.0,-71.0,127.0,127.0,127.0,-118.0,-88.0,123.0
126.0,125.0,127.0,124.0,125.0,128.0,90.0,123.0,-1.0,108.0,-71.0,127.0,127.0,127.0,-118.0,-88.0,123.0
126.0,125.0,127.0,124.0,126.0,128.0,90.0,123.0,-1.0,108.0,-71.0,127.0,127.0,127.0,-118.0,-88.0,123.0
126.0,125.0,127.0,124.0,126.0,128.0,90.0,123.0,-1.0,108.0,-71.0,127.0,127.0,127.0,-118.0,-88.0,123.0
126.0,125.0,127.0,124.0,126.0,128.0,90.0,123.0,-1.0,108.0,-71.0,127.0,127.0,127.0,-118.0,-88.0,123.0
126.0,125.0,127.0,124.0,126.0,128.0,90.0,123.0,-1.0,108.0,-71.0,127.0,127.0,127.0,-118.0,-88.0,123.0
126.0,125.0,127.0,124.0,126.0,128.0,90.0,123.0,-1.0,108.0,-71.0,127.0,127.0,127.0,-118.0,-88.0,123.0
126.0,126.0,126.0,125.0,127.0,128.0,99.0,125.0,-1.0,108.0,-71.0,127.0,127.0,127.0,-118.0,-88.0,123.0
126.0,126.0,126.0,125.0,127.0,128.0,99.0,125.0,-1.0,108.0,-71.0,127.0,127.0,127.0,-118.0,-88.0,123.0
127.0,126.0,126.0,125.0,127.0,128.0,100.0,125.0,-1.0,108.0,-71.0,127.0,127.0,127.0,-118.0,-88.0,123.0
127.0,126.0,126.0,125.0,127.0,128.0,100.0,125.0,-1.0,108.0,-71.0,127.0,127.0,127.0,-118.0,-88.0,123.0
127.0,126.0,126.0,125.0,127.0,128.0,100.0,125.0,-1.0,108.0,-71.0,127.0,127.0,127.0,-118.0,-88.0,123.0
127.0,125.0,126.0,125.0,127.0,128.0,101.0,125.0,-1.0,108.0,-71.0,127.0,127.0,127.0,-118.0,-88.0,123.0
127.0,125.0,126.0,125.0,127.0,128.0,101.0,124.0,-1.0,108.0,-71.0,127.0,127.0,127.0,-118.0,-88.0,123.0
127.0,125.0,127.0,125.0,127.0,128.0,101.0,125.0,-1.0,108.0,-71.0,127.0,127.0,127.0,-118.0,-88.0,123.0
127.0,125.0,127.0,125.0,127.0,128.0,101.0,125.0,-1.0,108.0,-71.0,127.0,127.0,127.0,-118.0,-88.0,123.0
127.0,125.0,127.0,125.0,128.0,128.0,102.0,125.0,-1.0,108.0,-71.0,127.0,127.0,127.0,-118.0,-88.0,123.0
127.0,126.0,126.0,124.0,126.0,128.0,112.0,126.0,-1.0,108.0,-71.0,127.0,127.0,127.0,-118.0,-88.0,123.0
127.0,126.0,127.0,124.0,126.0,128.0,112.0,126.0,-1.0,108.0,-71.0,127.0,127.0,127.0,-118.0,-88.0,123.0
127.0,125.0,127.0,124.0,126.0,128.0,112.0,126.0,-1.0,108.0,-71.0,127.0,127.0,127.0,-118.0,-88.0,123.0
127.0,125.0,127.0,124.0,126.0,128.0,113.0,125.0,-1.0,108.0,-71.0,127.0,127.0,127.0,-118.0,-88.0,123.0
127.0,125.0,127.0,124.0,126.0,128.0,113.0,126.0,-1.0,108.0,-71.0,127.0,127.0,127.0,-118.0,-88.0,123.0
127.0,125.0,127.0,124.0,127.0,128.0,113.0,126.0,-1.0,108.0,-71.0,127.0,127.0,127.0,-118.0,-88.0,123.0
127.0,125.0,127.0,124.0,127.0,128.0,113.0,126.0,-1.0,108.0,-71.0,127.0,127.0,127.0,-118.0,-88.0,123.0
127.0,125.0,127.0,124.0,127.0,128.0,113.0,126.0,-1.0,108.0,-71.0,127.0,127.0,127.0,-118.0,-88.0,123.0
127.0,125.0,127.0,124.0,127.0,128.0,113.0,126.0,-1.0,108.0,-71.0,127.0,127.0,127.0,-118.0,-88.0,123.0
127.0,126.0,126.0,124.0,126.0,128.0,112.0,125.0,-1.0,108.0,-71.0,127.0,127.0,127.0,-118.0,-88.0,123.0
127.0,125.0,126.0,124.0,126.0,128.0,122.0,126.0,-1.0,108.0,-71.0,127.0,127.0,127.0,-118.0,-88.0,123.0
127.0,125.0,126.0,124.0,126.0,128.0,122.0,126.0,-1.0,108.0,-71.0,127.0,127.0,127.0,-118.0,-88.0,123.0
127.0,125.0,126.0,124.0,126.0,128.0,122.0,126.0,-1.0,108.0,-71.0,127.0,127.0,127.0,-118.0,-88.0,123.0
126.0,125.0,127.0,124.0,126.0,128.0,122.0,126.0,-1.0,108.0,-71.0,127.0,127.0,127.0,-118.0,-88.0,123.0
127.0,125.0,126.0,124.0,126.0,128.0,122.0,126.0,-1.0,108.0,-71.0,127.0,127.0,127.0,-118.0,-88.0,123.0
127.0,125.0,126.0,124.0,126.0,129.0,122.0,126.0,-1.0,108.0,-71.0,127.0,127.0,127.0,-118.0,-88.0,123.0
127.0,125.0,126.0,124.0,126.0,129.0,121.0,126.0,-1.0,108.0,-71.0,127.0,127.0,127.0,-118.0,-88.0,123.0
127.0,125.0,126.0,124.0,126.0,127.0,122.0,126.0,-1.0,108.0,-71.0,127.0,127.0,127.0,-118.0,-88.0,123.0
127.0,125.0,126.0,124.0,125.0,128.0,122.0,126.0,-1.0,108.0,-71.0,127.0,127.0,127.0,-118.0,-88.0,123.0
127.0,125.0,126.0,124.0,125.0,128.0,122.0,126.0,-1.0,108.0,-71.0,127.0,127.0,127.0,-118.0,-88.0,123.0
127.0,125.0,126.0,125.0,126.0,128.0,117.0,124.0,-1.0,108.0,-71.0,127.0,127.0,127.0,-118.0,-88.0,123.0
127.0,125.0,126.0,125.0,126.0,128.0,116.0,124.0,-1.0,108.0,-71.0,127.0,127.0,127.0,-118.0,-88.0,123.0
127.0,125.0,127.0,125.0,126.0,128.0,116.0,124.0,-1.0,108.0,-71.0,127.0,127.0,127.0,-118.0,-88.0,123.0
127.0,125.0,127.0,124.0,126.0,128.0,116.0,124.0,-1.0,108.0,-71.0,127.0,127.0,127.0,-118.0,-88.0,123.0
127.0,125.0,126.0,124.0,126.0,129.0,116.0,125.0,-1.0,108.0,-71.0,127.0,127.0,127.0,-118.0,-88.0,123.0
127.0,125.0,126.0,125.0,126.0,129.0,116.0,125.0,-1.0,108.0,-71.0,127.0,127.0,127.0,-118.0,-88.0,123.0
127.0,125.0,127.0,124.0,126.0,127.0,117.0,124.0,-1.0,108.0,-71.0,127.0,127.0,127.0,-118.0,-88.0,123.0
127.0,125.0,126.0,124.0,126.0,127.0,117.0,124.0,-1.0,108.0,-71.0,127.0,127.0,127.0,-118.0,-88.0,123.0
127.0,125.0,126.0,125.0,126.0,128.0,117.0,124.0,-1.0,108.0,-71.0,127.0,127.0,127.0,-118.0,-88.0,123.0
127.0,125.0,126.0,125.0,126.0,128.0,117.0,124.0,-1.0,108.0,-71.0,127.0,127.0,127.0,-118.0,-88.0,123.0
127.0,125.0,126.0,124.0,126.0,128.0,116.0,127.0,-1.0,108.0,-71.0,127.0,127.0,127.0,-118.0,-88.0,123.0
127.0,125.0,126.0,124.0,126.0,128.0,115.0,127.0,-1.0,108.0,-71.0,127.0,127.0,127.0,-118.0,-88.0,123.0
127.0,125.0,126.0,124.0,126.0,128.0,115.0,127.0,-1.0,108.0,-71.0,127.0,127.0,127.0,-118.0,-88.0,123.0
127.0,125.0,126.0,124.0,126.0,129.0,115.0,127.0,-1.0,108.0,-71.0,127.0,127.0,127.0,-118.0,-88.0,123.0
127.0,125.0,126.0,124.0,126.0,129.0,115.0,127.0,-1.0,108.0,-71.0,127.0,127.0,127.0,-118.0,-88.0,123.0
127.0,125.0,126.0,124.0,126.0,127.0,116.0,126.0,-1.0,108.0,-71.0,127.0,127.0,127.0,-118.0,-88.0,123.0
127.0,125.0,126.0,124.0,126.0,128.0,116.0,126.0,-1.0,108.0,-71.0,127.0,127.0,127.0,-118.0,-88.0,123.0
127.0,125.0,126.0,124.0,126.0,128.0,116.0,127.0,-1.0,108.0,-71.0,127.0,127.0,127.0,-118.0,-88.0,123.0
127.0,125.0,126.0,124.0,126.0,128.0,116.0,127.0,-1.0,108.0,-71.0,127.0,127.0,127.0,-118.0,-88.0,123.0
127.0,125.0,126.0,124.0,126.0,128.0,115.0,127.0,-1.0,108.0,-71.0,127.0,127.0,127.0,-118.0,-88.0,123.0
127.0,125.0,127.0,125.0,126.0,128.0,121.0,126.0,-1.0,108.0,-71.0,127.0,127.0,127.0,-118.0,-88.0,123.0
127.0,125.0,127.0,125.0,126.0,128.0,121.0,126.0,-1.0,108.0,-71.0,127.0,127.0,127.0,-118.0,-88.0,123.0
127.0,125.0,127.0,125.0,126.0,129.0,121.0,126.0,-1.0,108.0,-71.0,127.0,127.0,127.0,-118.0,-88.0,123.0
127.0,125.0,127.0,125.0,126.0,129.0,121.0,126.0,-1.0,108.0,-71.0,127.0,127.0,127.0,-118.0,-88.0,123.0
127.0,125.0,127.0,124.0,126.0,127.0,120.0,125.0,-1.0,108.0,-71.0,127.0,127.0,127.0,-118.0,-88.0,123.0
127.0,125.0,126.0,124.0,126.0,127.0,120.0,125.0,-1.0,108.0,-71.0,127.0,127.0,127.0,-118.0,-88.0,123.0
127.0,125.0,126.0,124.0,126.0,128.0,120.0,125.0,-1.0,108.0,-71.0,127.0,127.0,127.0,-118.0,-88.0,123.0
127.0,125.0,126.0,125.0,126.0,128.0,121.0,125.0,-1.0,108.0,-71.0,127.0,127.0,127.0,-118.0,-88.0,123.0
127.0,125.0,127.0,125.0,126.0,128.0,121.0,125.0,-1.0,108.0,-71.0,127.0,127.0,127.0,-118.0,-88.0,123.0
127.0,125.0,127.0,125.0,126.0,128.0,121.0,125.0,-1.0,108.0,-71.0,127.0,127.0,127.0,-118.0,-88.0,123.0
127.0,125.0,127.0,124.0,126.0,128.0,125.0,126.0,-1.0,108.0,-71.0,127.0,127.0,127.0,-118.0,-88.0,123.0
127.0,125.0,127.0,124.0,126.0,128.0,125.0,126.0,-1.0,108.0,-71.0,127.0,127.0,127.0,-118.0,-88.0,123.0
127.0,126.0,127.0,125.0,126.0,129.0,125.0,126.0,-1.0,108.0,-71.0,127.0,127.0,127.0,-118.0,-88.0,123.0
127.0,125.0,126.0,124.0,126.0,127.0,125.0,125.0,-1.0,108.0,-71.0,127.0,127.0,127.0,-118.0,-88.0,123.0
127.0,125.0,126.0,124.0,126.0,127.0,125.0,125.0,-1.0,108.0,-71.0,127.0,127.0,127.0,-118.0,-88.0,123.0
127.0,125.0,126.0,124.0,126.0,128.0,125.0,126.0,-1.0,108.0,-71.0,127.0,127.0,127.0,-118.0,-88.0,123.0
127.0,125.0,126.0,124.0,126.0,128.0,125.0,126.0,-1.0,108.0,-71.0,127.0,127.0,127.0,-118.0,-88.0,123.0
127.0,126.0,126.0,124.0,126.0,128.0,125.0,126.0,-1.0,108.0,-71.0,127.0,127.0,127.0,-118.0,-88.0,123.0
127.0,125.0,126.0,124.0,126.0,128.0,125.0,126.0,-1.0,108.0,-71.0,127.0,127.0,127.0,-118.0,-88.0,123.0
127.0,125.0,127.0,124.0,126.0,128.0,125.0,126.0,-1.0,108.0,-71.0,127.0,127.0,127.0,-118.0,-88.0,123.0
127.0,125.0,127.0,125.0,126.0,128.0,130.0,126.0,-1.0,108.0,-71.0,127.0,127.0,127.0,-118.0,-88.0,123.0
127.0,125.0,127.0,125.0,126.0,129.0,130.0,127.0,-1.0,108.0,-71.0,127.0,127.0,127.0,-118.0,-88.0,123.0
127.0,125.0,127.0,124.0,126.0,127.0,130.0,126.0,-1.0,108.0,-71.0,127.0,127.0,127.0,-118.0,-88.0,123.0
127.0,126.0,127.0,124.0,126.0,127.0,130.0,126.0,-1.0,108.0,-71.0,127.0,127.0,127.0,-118.0,-88.0,123.0
127.0,125.0,127.0,124.0,126.0,127.0,130.0,126.0,-1.0,108.0,-71.0,127.0,127.0,127.0,-118.0,-88.0,123.0
127.0,126.0,127.0,124.0,126.0,128.0,130.0,126.0,-1.0,108.0,-71.0,127.0,127.0,127.0,-118.0,-88.0,123.0
127.0,126.0,127.0,124.0,126.0,128.0,130.0,126.0,-1.0,108.0,-71.0,127.0,127.0,127.0,-118.0,-88.0,123.0
127.0,125.0,127.0,124.0,126.0,128.0,130.0,126.0,-1.0,108.0,-71.0,127.0,127.0,127.0,-118.0,-88.0,123.0
127.0,125.0,127.0,124.0,126.0,128.0,130.0,126.0,-1.0,108.0,-71.0,127.0,127.0,127.0,-118.0,-88.0,123.0
127.0,125.0,127.0,125.0,127.0,128.0,130.0,126.0,-1.0,108.0,-71.0,127.0,127.0,127.0,-118.0,-88.0,123.0
127.0,125.0,126.0,125.0,126.0,128.0,129.0,127.0,-1.0,108.0,-71.0,127.0,127.0,127.0,-118.0,-88.0,123.0
127.0,125.0,126.0,124.0,126.0,126.0,129.0,126.0,-1.0,108.0,-71.0,127.0,127.0,127.0,-118.0,-88.0,123.0
127.0,125.0,126.0,124.0,126.0,127.0,129.0,126.0,-1.0,108.0,-71.0,127.0,127.0,127.0,-118.0,-88.0,123.0
127.0,125.0,126.0,124.0,126.0,127.0,129.0,126.0,-1.0,108.0,-71.0,127.0,127.0,127.0,-118.0,-88.0,123.0
127.0,125.0,126.0,125.0,126.0,128.0,129.0,127.0,-1.0,108.0,-71.0,127.0,127.0,127.0,-118.0,-88.0,123.0
127.0,125.0,126.0,125.0,126.0,128.0,129.0,127.0,-1.0,108.0,-71.0,127.0,127.0,127.0,-118.0,-88.0,123.0
127.0,125.0,126.0,125.0,126.0,127.0,129.0,127.0,-1.0,108.0,-71.0,127.0,127.0,127.0,-118.0,-88.0,123.0
127.0,125.0,126.0,125.0,126.0,127.0,129.0,127.0,-1.0,108.0,-71.0,127.0,127.0,127.0,-118.0,-88.0,123.0
127.0,125.0,126.0,125.0,126.0,128.0,129.0,127.0,-1.0,108.0,-71.0,127.0,127.0,127.0,-118.0,-88.0,123.0
127.0,125.0,126.0,125.0,126.0,128.0,129.0,126.0,-1.0,108.0,-71.0,127.0,127.0,127.0,-118.0,-88.0,123.0
127.0,126.0,126.0,125.0,126.0,127.0,131.0,128.0,-1.0,108.0,-71.0,127.0,127.0,127.0,-118.0,-88.0,123.0
127.0,126.0,126.0,125.0,126.0,127.0,131.0,128.0,-1.0,108.0,-71.0,127.0,127.0,127.0,-118.0,-88.0,123.0
127.0,126.0,126.0,125.0,126.0,127.0,131.0,128.0,-1.0,108.0,-71.0,127.0,127.0,127.0,-118.0,-88.0,123.0
127.0,126.0,126.0,125.0,126.0,128.0,131.0,129.0,-1.0,108.0,-71.0,127.0,127.0,127.0,-118.0,-88.0,123.0
127.0,126.0,126.0,125.0,126.0,128.0,131.0,129.0,-1.0,108.0,-71.0,127.0,127.0,127.0,-118.0,-88.0,123.0
127.0,126.0,126.0,125.0,126.0,128.0,131.0,129.0,-1.0,108.0,-71.0,127.0,127.0,127.0,-118.0,-88.0,123.0
127.0,126.0,127.0,125.0,126.0,128.0,131.0,129.0,-1.0,108.0,-71.0,127.0,127.0,127.0,-118.0,-88.0,123.0
127.0,126.0,127.0,125.0,126.0,128.0,131.0,129.0,-1.0,108.0,-71.0,127.0,127.0,127.0,-118.0,-88.0,123.0
127.0,126.0,127.0,125.0,126.0,128.0,131.0,129.0,-1.0,108.0,-71.0,127.0,127.0,127.0,-118.0,-88.0,123.0
127.0,126.0,126.0,125.0,126.0,128.0,131.0,129.0,-1.0,108.0,-71.0,127.0,127.0,127.0,-118.0,-88.0,123.0
127.0,126.0,127.0,125.0,126.0,127.0,133.0,129.0,-1.0,108.0,-71.0,127.0,127.0,127.0,-118.0,-88.0,123.0
127.0,125.0,127.0,125.0,127.0,127.0,133.0,129.0,-1.0,108.0,-71.0,127.0,127.0,127.0,-118.0,-88.0,123.0
127.0,125.0,127.0,125.0,127.0,127.0,133.0,129.0,-1.0,108.0,-71.0,127.0,127.0,127.0,-118.0,-88.0,123.0
127.0,125.0,127.0,125.0,127.0,127.0,133.0,129.0,-1.0,108.0,-71.0,127.0,127.0,127.0,-118.0,-88.0,123.0
127.0,125.0,127.0,125.0,127.0,127.0,133.0,129.0,-1.0,108.0,-71.0,127.0,127.0,127.0,-118.0,-88.0,123.0
127.0,125.0,127.0,125.0,127.0,127.0,133.0,129.0,-1.0,108.0,-71.0,127.0,127.0,127.0,-118.0,-88.0,123.0
127.0,125.0,127.0,125.0,127.0,127.0,133.0,129.0,-1.0,108.0,-71.0,127.0,127.0,127.0,-118.0,-88.0,123.0
127.0,125.0,127.0,125.0,127.0,127.0,133.0,129.0,-1.0,108.0,-71.0,127.0,127.0,127.0,-118.0,-88.0,123.0
127.0,125.0,127.0,125.0,127.0,127.0,133.0,129.0,-1.0,108.0,-71.0,127.0,127.0,127.0,-118.0,-88.0,123.0
127.0,125.0,127.0,125.0,127.0,127.0,133.0,129.0,-1.0,108.0,-71.0,127.0,127.0,127.0,-118.0,-88.0,123.0
127.0,126.0,126.0,125.0,126.0,127.0,132.0,130.0,-1.0,108.0,-71.0,127.0,127.0,127.0,-118.0,-88.0,123.0
127.0,126.0,127.0,125.0,126.0,127.0,132.0,130.0,-1.0,108.0,-71.0,127.0,127.0,127.0,-118.0,-88.0,123.0
127.0,126.0,127.0,125.0,126.0,127.0,132.0,130.0,-1.0,108.0,-71.0,127.0,127.0,127.0,-118.0,-88.0,123.0
127.0,126.0,127.0,125.0,126.0,127.0,132.0,130.0,-1.0,108.0,-71.0,127.0,127.0,127.0,-118.0,-88.0,123.0
127.0,126.0,126.0,125.0,126.0,128.0,132.0,130.0,-1.0,108.0,-71.0,127.0,127.0,127.0,-118.0,-88.0,123.0
127.0,126.0,127.0,125.0,126.0,128.0,132.0,130.0,-1.0,108.0,-71.0,127.0,127.0,127.0,-118.0,-88.0,123.0
127.0,126.0,127.0,125.0,126.0,128.0,132.0,130.0,-1.0,108.0,-71.0,127.0,127.0,127.0,-118.0,-88.0,123.0
127.0,126.0,127.0,125.0,126.0,128.0,132.0,130.0,-1.0,108.0,-71.0,127.0,127.0,127.0,-118.0,-88.0,123.0
127.0,126.0,126.0,125.0,126.0,127.0,133.0,129.0,-1.0,108.0,-71.0,127.0,127.0,127.0,-118.0,-88.0,123.0
127.0,126.0,126.0,125.0,126.0,127.0,133.0,130.0,-1.0,108.0,-71.0,127.0,127.0,127.0,-118.0,-88.0,123.0
127.0,125.0,126.0,125.0,126.0,128.0,128.0,130.0,-1.0,108.0,-71.0,127.0,127.0,127.0,-118.0,-88.0,123.0
127.0,125.0,127.0,125.0,126.0,128.0,127.0,130.0,-1.0,108.0,-71.0,127.0,127.0,127.0,-118.0,-88.0,123.0
127.0,125.0,127.0,125.0,126.0,128.0,127.0,129.0,-1.0,108.0,-71.0,127.0,127.0,127.0,-118.0,-88.0,123.0
127.0,126.0,127.0,125.0,125.0,128.0,127.0,130.0,-1.0,108.0,-71.0,127.0,127.0,127.0,-118.0,-88.0,123.0
127.0,125.0,127.0,125.0,126.0,129.0,127.0,130.0,-1.0,108.0,-71.0,127.0,127.0,127.0,-118.0,-88.0,123.0
127.0,126.0,127.0,125.0,126.0,129.0,127.0,130.0,-1.0,108.0,-71.0,127.0,127.0,127.0,-118.0,-88.0,123.0
127.0,125.0,127.0,125.0,126.0,129.0,127.0,130.0,-1.0,108.0,-71.0,127.0,127.0,127.0,-118.0,-88.0,123.0
127.0,125.0,126.0,125.0,125.0,127.0,128.0,129.0,-1.0,108.0,-71.0,127.0,127.0,127.0,-118.0,-88.0,123.0
127.0,126.0,126.0,125.0,125.0,128.0,128.0,129.0,-1.0,108.0,-71.0,127.0,127.0,127.0,-118.0,-88.0,123.0
127.0,125.0,126.0,125.0,125.0,128.0,128.0,130.0,-1.0,108.0,-71.0,127.0,127.0,127.0,-118.0,-88.0,123.0
127.0,126.0,127.0,125.0,126.0,127.0,123.0,129.0,-1.0,108.0,-71.0,127.0,127.0,127.0,-118.0,-88.0,123.0
127.0,125.0,127.0,125.0,126.0,128.0,123.0,129.0,-1.0,108.0,-71.0,127.0,127.0,127.0,-118.0,-88.0,123.0
127.0,125.0,127.0,125.0,126.0,128.0,123.0,129.0,-1.0,108.0,-71.0,127.0,127.0,127.0,-118.0,-88.0,123.0
127.0,126.0,127.0,125.0,126.0,128.0,123.0,130.0,-1.0,108.0,-71.0,127.0,127.0,127.0,-118.0,-88.0,123.0
127.0,126.0,127.0,125.0,126.0,128.0,123.0,130.0,-1.0,108.0,-71.0,127.0,127.0,127.0,-118.0,-88.0,123.0
127.0,126.0,127.0,125.0,126.0,128.0,123.0,130.0,-1.0,108.0,-71.0,127.0,127.0,127.0,-118.0,-88.0,123.0
127.0,126.0,127.0,125.0,125.0,127.0,123.0,129.0,-1.0,108.0,-71.0,127.0,127.0,127.0,-118.0,-88.0,123.0
127.0,126.0,127.0,125.0,125.0,128.0,123.0,129.0,-1.0,108.0,-71.0,127.0,127.0,127.0,-118.0,-88.0,123.0
127.0,126.0,127.0,125.0,126.0,128.0,123.0,129.0,-1.0,108.0,-71.0,127.0,127.0,127.0,-118.0,-88.0,123.0
127.0,126.0,127.0,125.0,126.0,127.0,123.0,129.0,-1.0,108.0,-71.0,127.0,127.0,127.0,-118.0,-88.0,123.0
127.0,126.0,127.0,125.0,127.0,128.0,127.0,129.0,-1.0,108.0,-71.0,127.0,127.0,127.0,-118.0,-88.0,123.0
127.0,126.0,127.0,125.0,127.0,128.0,127.0,129.0,-1.0,108.0,-71.0,127.0,127.0,127.0,-118.0,-88.0,123.0
127.0,126.0,127.0,125.0,126.0,129.0,127.0,130.0,-1.0,108.0,-71.0,127.0,127.0,127.0,-118.0,-88.0,123.0
127.0,126.0,127.0,125.0,127.0,129.0,127.0,130.0,-1.0,108.0,-71.0,127.0,127.0,127.0,-118.0,-88.0,123.0
127.0,126.0,127.0,125.0,127.0,129.0,127.0,130.0,-1.0,108.0,-71.0,127.0,127.0,127.0,-118.0,-88.0,123.0
127.0,126.0,127.0,125.0,126.0,128.0,127.0,129.0,-1.0,108.0,-71.0,127.0,127.0,127.0,-118.0,-88.0,123.0
127.0,126.0,127.0,125.0,126.0,128.0,127.0,129.0,-1.0,108.0,-71.0,127.0,127.0,127.0,-118.0,-88.0,123.0
127.0,126.0,127.0,125.0,126.0,128.0,127.0,129.0,-1.0,108.0,-71.0,127.0,127.0,127.0,-118.0,-88.0,123.0
127.0,126.0,127.0,125.0,127.0,128.0,127.0,129.0,-1.0,108.0,-71.0,127.0,127.0,127.0,-118.0,-88.0,123.0
127.0,126.0,127.0,125.0,127.0,128.0,127.0,129.0,-1.0,108.0,-71.0,127.0,127.0,127.0,-118.0,-88.0,123.0
127.0,126.0,126.0,125.0,126.0,127.0,129.0,129.0,-1.0,109.0,-71.0,127.0,127.0,127.0,-118.0,-88.0,123.0
127.0,126.0,126.0,125.0,126.0,128.0,129.0,129.0,-1.0,109.0,-71.0,127.0,127.0,127.0,-118.0,-88.0,123.0
127.0,126.0,126.0,125.0,126.0,128.0,128.0,129.0,-1.0,109.0,-71.0,127.0,127.0,127.0,-118.0,-88.0,123.0
127.0,126.0,126.0,125.0,127.0,128.0,128.0,130.0,-1.0,109.0,-71.0,127.0,127.0,127.0,-118.0,-88.0,123.0
127.0,126.0,126.0,125.0,126.0,127.0,129.0,129.0,-1.0,109.0,-71.0,127.0,127.0,127.0,-118.0,-88.0,123.0
127.0,126.0,126.0,125.0,126.0,127.0,129.0,129.0,-1.0,109.0,-71.0,127.0,127.0,127.0,-118.0,-88.0,123.0
127.0,126.0,126.0,125.0,126.0,127.0,129.0,129.0,-1.0,109.0,-71.0,127.0,127.0,127.0,-118.0,-88.0,123.0
127.0,126.0,126.0,125.0,126.0,127.0,129.0,129.0,-1.0,109.0,-71.0,127.0,127.0,127.0,-118.0,-88.0,123.0
127.0,126.0,126.0,125.0,126.0,127.0,129.0,129.0,-1.0,109.0,-71.0,127.0,127.0,127.0,-118.0,-88.0,123.0
127.0,126.0,126.0,125.0,127.0,127.0,129.0,129.0,-1.0,109.0,-71.0,127.0,127.0,127.0,-118.0,-88.0,123.0
127.0,126.0,126.0,125.0,126.0,128.0,130.0,130.0,-1.0,109.0,-71.0,127.0,127.0,127.0,-118.0,-88.0,123.0
127.0,126.0,126.0,125.0,126.0,128.0,130.0,130.0,-1.0,109.0,-71.0,127.0,127.0,127.0,-118.0,-88.0,123.0
127.0,126.0,126.0,125.0,126.0,128.0,130.0,130.0,-1.0,109.0,-71.0,127.0,127.0,127.0,-118.0,-88.0,123.0
127.0,126.0,126.0,125.0,126.0,127.0,130.0,129.0,-1.0,109.0,-71.0,127.0,127.0,127.0,-118.0,-88.0,123.0
127.0,126.0,126.0,125.0,126.0,127.0,130.0,129.0,-1.0,109.0,-71.0,127.0,127.0,127.0,-118.0,-88.0,123.0
127.0,126.0,126.0,125.0,126.0,128.0,130.0,129.0,-1.0,109.0,-71.0,127.0,127.0,127.0,-118.0,-88.0,123.0
127.0,126.0,126.0,125.0,126.0,127.0,130.0,129.0,-1.0,109.0,-71.0,127.0,127.0,127.0,-118.0,-88.0,123.0
127.0,126.0,126.0,125.0,126.0,127.0,130.0,129.0,-1.0,109.0,-71.0,127.0,127.0,127.0,-118.0,-88.0,123.0
127.0,126.0,126.0,125.0,126.0,127.0,130.0,129.0,-1.0,109.0,-71.0,127.0,127.0,127.0,-118.0,-88.0,123.0
127.0,125.0,126.0,125.0,126.0,127.0,130.0,129.0,-1.0,109.0,-71.0,127.0,127.0,127.0,-118.0,-88.0,123.0
127.0,126.0,127.0,125.0,126.0,129.0,129.0,130.0,-1.0,109.0,-71.0,127.0,127.0,127.0,-118.0,-88.0,123.0
128.0,126.0,127.0,125.0,126.0,129.0,129.0,130.0,-1.0,109.0,-71.0,127.0,127.0,127.0,-118.0,-88.0,123.0
127.0,126.0,127.0,125.0,126.0,127.0,130.0,129.0,-1.0,109.0,-71.0,127.0,127.0,127.0,-118.0,-88.0,123.0
127.0,126.0,126.0,125.0,126.0,128.0,130.0,129.0,-1.0,109.0,-71.0,127.0,127.0,127.0,-118.0,-88.0,123.0
127.0,126.0,126.0,125.0,126.0,128.0,130.0,129.0,-1.0,109.0,-71.0,127.0,127.0,127.0,-118.0,-88.0,123.0
127.0,126.0,126.0,125.0,126.0,128.0,130.0,129.0,-1.0,109.0,-71.0,127.0,127.0,127.0,-118.0,-88.0,123.0
127.0,126.0,127.0,125.0,126.0,128.0,130.0,129.0,-1.0,109.0,-71.0,127.0,127.0,127.0,-118.0,-88.0,123.0
127.0,126.0,127.0,125.0,126.0,128.0,130.0,129.0,-1.0,109.0,-71.0,127.0,127.0,127.0,-118.0,-88.0,123.0
127.0,126.0,127.0,125.0,126.0,128.0,130.0,129.0,-1.0,109.0,-71.0,127.0,127.0,127.0,-118.0,-88.0,123.0
127.0,126.0,126.0,125.0,126.0,128.0,129.0,129.0,-1.0,109.0,-71.0,127.0,127.0,127.0,-118.0,-88.0,123.0
127.0,125.0,127.0,125.0,126.0,127.0,130.0,129.0,-1.0,109.0,-71.0,127.0,127.0,127.0,-118.0,-88.0,123.0
128.0,125.0,127.0,125.0,125.0,127.0,130.0,129.0,-1.0,109.0,-71.0,127.0,127.0,127.0,-118.0,-88.0,123.0
128.0,125.0,127.0,125.0,126.0,127.0,130.0,129.0,-1.0,109.0,-71.0,127.0,127.0,127.0,-118.0,-88.0,123.0
127.0,126.0,127.0,125.0,126.0,127.0,130.0,129.0,-1.0,109.0,-71.0,127.0,127.0,127.0,-118.0,-88.0,123.0
127.0,125.0,127.0,125.0,126.0,127.0,130.0,129.0,-1.0,109.0,-71.0,127.0,127.0,127.0,-118.0,-88.0,123.0
127.0,125.0,127.0,125.0,126.0,127.0,130.0,129.0,-1.0,109.0,-71.0,127.0,127.0,127.0,-118.0,-88.0,123.0
127.0,125.0,127.0,125.0,126.0,127.0,130.0,129.0,-1.0,109.0,-71.0,127.0,127.0,127.0,-118.0,-88.0,123.0
127.0,125.0,127.0,125.0,126.0,127.0,130.0,129.0,-1.0,109.0,-71.0,127.0,127.0,127.0,-118.0,-88.0,123.0
127.0,125.0,127.0,125.0,126.0,127.0,130.0,129.0,-1.0,109.0,-71.0,127.0,127.0,127.0,-118.0,-88.0,123.0
127.0,125.0,127.0,125.0,126.0,127.0,130.0,129.0,-1.0,109.0,-71.0,127.0,127.0,127.0,-118.0,-88.0,123.0
127.0,126.0,126.0,125.0,127.0,127.0,130.0,130.0,-1.0,109.0,-71.0,127.0,127.0,127.0,-118.0,-88.0,123.0
127.0,126.0,126.0,125.0,127.0,127.0,130.0,130.0,-1.0,109.0,-71.0,127.0,127.0,127.0,-118.0,-88.0,123.0
127.0,126.0,126.0,125.0,127.0,127.0,129.0,129.0,-1.0,109.0,-71.0,127.0,127.0,127.0,-118.0,-88.0,123.0
127.0,126.0,126.0,125.0,127.0,127.0,129.0,130.0,-1.0,109.0,-71.0,127.0,127.0,127.0,-118.0,-88.0,123.0
127.0,126.0,126.0,125.0,127.0,127.0,129.0,130.0,-1.0,109.0,-71.0,127.0,127.0,127.0,-118.0,-88.0,123.0
127.0,126.0,126.0,125.0,126.0,128.0,129.0,130.0,-1.0,109.0,-71.0,127.0,127.0,127.0,-118.0,-88.0,123.0
127.0,126.0,126.0,125.0,127.0,128.0,129.0,130.0,-1.0,109.0,-71.0,127.0,127.0,127.0,-118.0,-88.0,123.0
127.0,126.0,126.0,125.0,127.0,128.0,129.0,130.0,-1.0,109.0,-71.0,127.0,127.0,127.0,-118.0,-88.0,123.0
127.0,126.0,127.0,126.0,127.0,128.0,129.0,130.0,-1.0,109.0,-71.0,127.0,127.0,127.0,-118.0,-88.0,123.0
127.0,126.0,127.0,125.0,127.0,128.0,129.0,130.0,-1.0,109.0,-71.0,127.0,127.0,127.0,-118.0,-88.0,123.0
127.0,126.0,126.0,125.0,127.0,127.0,129.0,130.0,-1.0,109.0,-71.0,127.0,127.0,127.0,-118.0,-88.0,123.0
127.0,126.0,126.0,125.0,127.0,127.0,129.0,130.0,-1.0,109.0,-71.0,127.0,127.0,127.0,-118.0,-88.0,123.0
127.0,126.0,126.0,125.0,127.0,127.0,129.0,130.0,-1.0,109.0,-71.0,127.0,127.0,127.0,-118.0,-88.0,123.0
127.0,126.0,126.0,125.0,127.0,128.0,129.0,130.0,-1.0,109.0,-71.0,127.0,127.0,127.0,-118.0,-88.0,123.0
127.0,126.0,126.0,126.0,127.0,128.0,129.0,130.0,-1.0,109.0,-71.0,127.0,127.0,127.0,-118.0,-88.0,123.0
127.0,126.0,126.0,126.0,127.0,128.0,129.0,130.0,-1.0,109.0,-71.0,127.0,127.0,127.0,-118.0,-88.0,123.0
127.0,126.0,126.0,126.0,127.0,128.0,129.0,130.0,-1.0,109.0,-71.0,127.0,127.0,127.0,-118.0,-88.0,123.0
127.0,126.0,126.0,126.0,127.0,128.0,129.0,130.0,-1.0,109.0,-71.0,127.0,127.0,127.0,-118.0,-88.0,123.0
127.0,126.0,126.0,126.0,127.0,128.0,129.0,130.0,-1.0,109.0,-71.0,127.0,127.0,127.0,-118.0,-88.0,123.0
127.0,126.0,126.0,125.0,127.0,128.0,129.0,130.0,-1.0,109.0,-71.0,127.0,127.0,127.0,-118.0,-88.0,123.0
127.0,125.0,126.0,125.0,127.0,127.0,129.0,130.0,-1.0,109.0,-72.0,127.0,127.0,127.0,-118.0,-88.0,123.0
127.0,125.0,127.0,125.0,127.0,127.0,129.0,130.0,-1.0,109.0,-72.0,127.0,127.0,127.0,-118.0,-88.0,123.0
127.0,125.0,127.0,125.0,127.0,127.0,129.0,130.0,-1.0,109.0,-72.0,127.0,127.0,127.0,-118.0,-88.0,123.0
127.0,126.0,126.0,125.0,127.0,128.0,129.0,130.0,-1.0,109.0,-72.0,127.0,127.0,127.0,-118.0,-88.0,123.0
127.0,126.0,126.0,125.0,127.0,128.0,129.0,130.0,-1.0,109.0,-72.0,127.0,127.0,127.0,-118.0,-88.0,123.0
127.0,126.0,127.0,125.0,127.0,128.0,129.0,130.0,-1.0,109.0,-72.0,127.0,127.0,127.0,-118.0,-88.0,123.0
127.0,126.0,127.0,125.0,127.0,128.0,129.0,130.0,-1.0,109.0,-72.0,127.0,127.0,127.0,-118.0,-88.0,123.0
127.0,125.0,127.0,125.0,127.0,128.0,129.0,130.0,-1.0,109.0,-72.0,127.0,127.0,127.0,-118.0,-88.0,123.0
127.0,126.0,126.0,125.0,127.0,128.0,129.0,130.0,-1.0,109.0,-72.0,127.0,127.0,127.0,-118.0,-88.0,123.0
127.0,125.0,126.0,125.0,127.0,127.0,129.0,130.0,-1.0,109.0,-72.0,127.0,127.0,127.0,-118.0,-88.0,123.0
127.0,126.0,127.0,125.0,127.0,127.0,129.0,129.0,-1.0,109.0,-72.0,127.0,127.0,127.0,-118.0,-88.0,123.0
127.0,126.0,126.0,125.0,127.0,127.0,129.0,129.0,-1.0,109.0,-72.0,127.0,127.0,127.0,-118.0,-88.0,123.0
127.0,126.0,126.0,125.0,127.0,128.0,129.0,129.0,-1.0,109.0,-72.0,127.0,127.0,127.0,-118.0,-88.0,123.0
127.0,126.0,126.0,125.0,127.0,128.0,129.0,129.0,-1.0,109.0,-72.0,127.0,127.0,127.0,-118.0,-88.0,123.0
127.0,126.0,127.0,125.0,127.0,128.0,129.0,129.0,-1.0,109.0,-72.0,127.0,127.0,127.0,-118.0,-88.0,123.0
127.0,126.0,127.0,125.0,127.0,128.0,129.0,129.0,-1.0,109.0,-72.0,127.0,127.0,127.0,-118.0,-88.0,123.0
127.0,126.0,127.0,125.0,127.0,128.0,129.0,129.0,-1.0,109.0,-72.0,127.0,127.0,127.0,-118.0,-88.0,123.0
127.0,126.0,126.0,125.0,126.0,128.0,129.0,129.0,-1.0,109.0,-72.0,127.0,127.0,127.0,-118.0,-88.0,123.0
127.0,126.0,126.0,125.0,127.0,127.0,129.0,129.0,-1.0,109.0,-72.0,127.0,127.0,127.0,-118.0,-88.0,123.0
127.0,126.0,126.0,125.0,127.0,127.0,129.0,129.0,-1.0,109.0,-72.0,127.0,127.0,127.0,-118.0,-88.0,123.0
127.0,126.0,126.0,125.0,126.0,127.0,128.0,129.0,-1.0,109.0,-72.0,127.0,127.0,127.0,-118.0,-88.0,123.0
127.0,126.0,126.0,125.0,126.0,128.0,128.0,129.0,-1.0,109.0,-72.0,127.0,127.0,127.0,-118.0,-88.0,123.0
127.0,126.0,126.0,125.0,126.0,128.0,128.0,130.0,-1.0,109.0,-72.0,127.0,127.0,127.0,-118.0,-88.0,123.0
127.0,126.0,126.0,125.0,126.0,128.0,128.0,130.0,-1.0,109.0,-72.0,127.0,127.0,127.0,-118.0,-88.0,123.0
127.0,126.0,126.0,125.0,126.0,128.0,128.0,130.0,-1.0,109.0,-72.0,127.0,127.0,127.0,-118.0,-88.0,123.0
127.0,126.0,126.0,125.0,126.0,128.0,128.0,130.0,-1.0,109.0,-72.0,127.0,127.0,127.0,-118.0,-88.0,123.0
127.0,126.0,126.0,125.0,126.0,127.0,128.0,129.0,-1.0,109.0,-72.0,127.0,127.0,127.0,-118.0,-88.0,123.0
127.0,126.0,126.0,125.0,126.0,127.0,128.0,129.0,-1.0,109.0,-72.0,127.0,127.0,127.0,-118.0,-88.0,123.0
127.0,126.0,126.0,125.0,126.0,127.0,128.0,129.0,-1.0,109.0,-72.0,127.0,127.0,127.0,-118.0,-88.0,123.0
127.0,126.0,126.0,125.0,126.0,127.0,128.0,129.0,-1.0,109.0,-72.0,127.0,127.0,127.0,-118.0,-88.0,123.0
127.0,126.0,126.0,125.0,126.0,128.0,128.0,130.0,-1.0,109.0,-72.0,127.0,127.0,127.0,-118.0,-88.0,123.0
127.0,126.0,126.0,125.0,126.0,128.0,128.0,130.0,-1.0,109.0,-72.0,127.0,127.0,127.0,-118.0,-88.0,123.0
127.0,126.0,126.0,125.0,126.0,128.0,128.0,130.0,-1.0,109.0,-72.0,127.0,127.0,127.0,-118.0,-88.0,123.0
127.0,126.0,126.0,125.0,126.0,128.0,128.0,130.0,-1.0,109.0,-72.0,127.0,127.0,127.0,-118.0,-88.0,123.0
127.0,126.0,126.0,125.0,126.0,128.0,128.0,130.0,-1.0,109.0,-72.0,127.0,127.0,127.0,-118.0,-88.0,123.0
127.0,126.0,126.0,125.0,126.0,128.0,128.0,130.0,-1.0,109.0,-72.0,127.0,127.0,127.0,-118.0,-88.0,123.0
127.0,126.0,126.0,125.0,126.0,128.0,128.0,130.0,-1.0,109.0,-72.0,127.0,127.0,127.0,-118.0,-88.0,123.0
127.0,126.0,126.0,125.0,126.0,127.0,128.0,130.0,-1.0,109.0,-72.0,127.0,127.0,127.0,-118.0,-88.0,123.0
127.0,126.0,126.0,125.0,126.0,127.0,128.0,129.0,-1.0,109.0,-72.0,127.0,127.0,127.0,-118.0,-88.0,123.0
127.0,126.0,126.0,125.0,126.0,127.0,128.0,129.0,-1.0,109.0,-72.0,127.0,127.0,127.0,-118.0,-88.0,123.0
126.0,126.0,127.0,125.0,126.0,127.0,127.0,129.0,-1.0,109.0,-71.0,127.0,127.0,127.0,-118.0,-88.0,123.0
126.0,126.0,127.0,125.0,126.0,127.0,127.0,129.0,-1.0,109.0,-71.0,127.0,127.0,127.0,-118.0,-88.0,123.0
126.0,125.0,127.0,125.0,126.0,128.0,127.0,129.0,-1.0,109.0,-71.0,127.0,127.0,127.0,-118.0,-88.0,123.0
126.0,126.0,127.0,125.0,126.0,128.0,127.0,129.0,-1.0,109.0,-71.0,127.0,127.0,127.0,-118.0,-88.0,123.0
126.0,126.0,126.0,125.0,126.0,127.0,127.0,129.0,-1.0,109.0,-71.0,127.0,127.0,127.0,-118.0,-88.0,123.0
127.0,126.0,126.0,125.0,126.0,127.0,127.0,129.0,-1.0,109.0,-71.0,127.0,127.0,127.0,-118.0,-88.0,123.0
127.0,126.0,127.0,125.0,126.0,127.0,127.0,129.0,-1.0,109.0,-71.0,127.0,127.0,127.0,-118.0,-88.0,123.0
127.0,126.0,127.0,125.0,126.0,127.0,127.0,129.0,-1.0,109.0,-71.0,127.0,127.0,127.0,-118.0,-88.0,123.0
127.0,126.0,127.0,125.0,126.0,127.0,127.0,129.0,-1.0,109.0,-71.0,127.0,127.0,127.0,-118.0,-88.0,123.0
126.0,126.0,127.0,125.0,126.0,127.0,127.0,129.0,-1.0,109.0,-71.0,127.0,127.0,127.0,-118.0,-88.0,123.0
127.0,126.0,127.0,125.0,125.0,128.0,126.0,129.0,-1.0,109.0,-71.0,127.0,127.0,127.0,-118.0,-88.0,123.0
127.0,126.0,127.0,125.0,125.0,127.0,126.0,129.0,-1.0,109.0,-71.0,127.0,127.0,127.0,-118.0,-88.0,123.0
127.0,126.0,127.0,125.0,125.0,127.0,126.0,129.0,-1.0,109.0,-71.0,127.0,127.0,127.0,-118.0,-88.0,123.0
127.0,126.0,126.0,125.0,125.0,129.0,127.0,129.0,-1.0,109.0,-71.0,127.0,127.0,127.0,-118.0,-88.0,123.0
127.0,126.0,126.0,125.0,125.0,128.0,127.0,129.0,-1.0,109.0,-71.0,127.0,127.0,127.0,-118.0,-88.0,123.0
127.0,126.0,126.0,125.0,125.0,128.0,127.0,129.0,-1.0,109.0,-71.0,127.0,127.0,127.0,-118.0,-88.0,123.0
127.0,126.0,127.0,125.0,125.0,128.0,127.0,129.0,-1.0,109.0,-71.0,127.0,127.0,127.0,-118.0,-88.0,123.0
127.0,126.0,127.0,125.0,125.0,128.0,127.0,129.0,-1.0,109.0,-71.0,127.0,127.0,127.0,-118.0,-88.0,123.0
127.0,126.0,127.0,125.0,125.0,128.0,126.0,129.0,-1.0,109.0,-71.0,127.0,127.0,127.0,-118.0,-88.0,123.0
127.0,126.0,127.0,125.0,125.0,128.0,126.0,129.0,-1.0,109.0,-71.0,127.0,127.0,127.0,-118.0,-88.0,123.0
126.0,126.0,127.0,125.0,126.0,126.0,126.0,128.0,-1.0,109.0,-71.0,127.0,127.0,127.0,-118.0,-88.0,123.0
126.0,126.0,127.0,125.0,127.0,126.0,126.0,128.0,-1.0,109.0,-71.0,127.0,127.0,127.0,-118.0,-88.0,123.0
127.0,126.0,126.0,125.0,126.0,126.0,127.0,128.0,-1.0,109.0,-71.0,127.0,127.0,127.0,-118.0,-88.0,123.0
127.0,126.0,126.0,125.0,126.0,126.0,127.0,128.0,-1.0,109.0,-71.0,127.0,127.0,127.0,-118.0,-88.0,123.0
127.0,126.0,126.0,125.0,126.0,126.0,127.0,128.0,-1.0,109.0,-71.0,127.0,127.0,127.0,-118.0,-88.0,123.0
127.0,126.0,126.0,125.0,126.0,126.0,127.0,128.0,-1.0,109.0,-71.0,127.0,127.0,127.0,-118.0,-88.0,123.0
127.0,126.0,126.0,125.0,126.0,126.0,127.0,128.0,-1.0,109.0,-71.0,127.0,127.0,127.0,-118.0,-88.0,123.0
126.0,126.0,126.0,125.0,126.0,126.0,127.0,128.0,-1.0,109.0,-71.0,127.0,127.0,127.0,-118.0,-88.0,123.0
126.0,126.0,126.0,125.0,126.0,126.0,127.0,128.0,-1.0,109.0,-71.0,127.0,127.0,127.0,-118.0,-88.0,123.0
126.0,126.0,126.0,125.0,126.0,126.0,126.0,128.0,-1.0,109.0,-71.0,127.0,127.0,127.0,-118.0,-88.0,123.0
126.0,126.0,126.0,125.0,126.0,128.0,127.0,128.0,-1.0,109.0,-71.0,127.0,127.0,127.0,-118.0,-88.0,123.0
126.0,126.0,126.0,125.0,126.0,126.0,127.0,128.0,-1.0,109.0,-71.0,127.0,127.0,127.0,-118.0,-88.0,123.0
126.0,126.0,126.0,125.0,126.0,126.0,127.0,128.0,-1.0,109.0,-71.0,127.0,127.0,127.0,-118.0,-88.0,123.0
126.0,126.0,126.0,125.0,127.0,126.0,127.0,128.0,-1.0,109.0,-71.0,127.0,127.0,127.0,-118.0,-88.0,123.0
126.0,126.0,126.0,125.0,126.0,127.0,127.0,128.0,-1.0,109.0,-71.0,127.0,127.0,127.0,-118.0,-88.0,123.0
126.0,126.0,126.0,125.0,126.0,127.0,127.0,128.0,-1.0,109.0,-71.0,127.0,127.0,127.0,-118.0,-88.0,123.0
126.0,126.0,126.0,125.0,126.0,127.0,127.0,128.0,-1.0,109.0,-71.0,127.0,127.0,127.0,-118.0,-88.0,123.0
126.0,126.0,126.0,125.0,126.0,127.0,127.0,128.0,-1.0,109.0,-71.0,127.0,127.0,127.0,-118.0,-88.0,123.0
126.0,126.0,126.0,125.0,126.0,127.0,127.0,128.0,-1.0,109.0,-71.0,127.0,127.0,127.0,-118.0,-88.0,123.0
126.0,126.0,127.0,125.0,127.0,127.0,127.0,128.0,-1.0,109.0,-71.0,127.0,127.0,127.0,-118.0,-88.0,123.0
126.0,126.0,126.0,125.0,126.0,127.0,127.0,128.0,-1.0,109.0,-71.0,127.0,127.0,127.0,-118.0,-88.0,123.0
126.0,126.0,126.0,125.0,126.0,127.0,126.0,128.0,-1.0,109.0,-71.0,127.0,127.0,127.0,-118.0,-88.0,123.0
126.0,126.0,126.0,125.0,126.0,127.0,126.0,128.0,-1.0,109.0,-71.0,127.0,127.0,127.0,-118.0,-88.0,123.0
126.0,126.0,126.0,125.0,126.0,127.0,127.0,128.0,-1.0,109.0,-71.0,127.0,127.0,127.0,-118.0,-88.0,123.0
126.0,126.0,126.0,125.0,126.0,127.0,127.0,128.0,-1.0,109.0,-71.0,127.0,127.0,127.0,-118.0,-88.0,123.0
126.0,126.0,126.0,125.0,127.0,127.0,127.0,128.0,-1.0,109.0,-71.0,127.0,127.0,127.0,-118.0,-88.0,123.0
126.0,126.0,126.0,125.0,127.0,127.0,127.0,128.0,-1.0,109.0,-71.0,127.0,127.0,127.0,-118.0,-88.0,123.0
126.0,126.0,126.0,125.0,127.0,126.0,127.0,128.0,-1.0,109.0,-71.0,127.0,127.0,127.0,-118.0,-88.0,123.0
126.0,126.0,126.0,125.0,127.0,126.0,127.0,128.0,-1.0,109.0,-71.0,127.0,127.0,127.0,-118.0,-88.0,123.0
126.0,126.0,127.0,125.0,127.0,126.0,127.0,128.0,-1.0,109.0,-71.0,127.0,127.0,127.0,-118.0,-88.0,123.0
127.0,126.0,126.0,125.0,126.0,128.0,128.0,128.0,-1.0,109.0,-71.0,127.0,127.0,127.0,-118.0,-88.0,123.0
127.0,126.0,126.0,125.0,126.0,128.0,128.0,128.0,-1.0,109.0,-71.0,127.0,127.0,127.0,-118.0,-88.0,123.0
127.0,126.0,126.0,125.0,126.0,127.0,128.0,128.0,-1.0,109.0,-71.0,127.0,127.0,127.0,-118.0,-88.0,123.0
127.0,126.0,126.0,125.0,126.0,127.0,128.0,128.0,-1.0,109.0,-71.0,127.0,127.0,127.0,-118.0,-88.0,123.0
127.0,126.0,126.0,125.0,126.0,127.0,128.0,128.0,-1.0,109.0,-71.0,127.0,127.0,127.0,-118.0,-88.0,123.0
127.0,126.0,126.0,125.0,126.0,127.0,128.0,128.0,-1.0,109.0,-71.0,127.0,127.0,127.0,-118.0,-88.0,123.0
127.0,126.0,126.0,125.0,126.0,127.0,128.0,128.0,-1.0,109.0,-71.0,127.0,127.0,127.0,-118.0,-88.0,123.0
127.0,126.0,126.0,125.0,126.0,127.0,128.0,128.0,-1.0,109.0,-71.0,127.0,127.0,127.0,-118.0,-88.0,123.0
127.0,126.0,126.0,125.0,126.0,127.0,128.0,128.0,-1.0,109.0,-71.0,127.0,127.0,127.0,-118.0,-88.0,123.0
127.0,126.0,126.0,125.0,125.0,128.0,128.0,128.0,-1.0,109.0,-71.0,127.0,127.0,127.0,-118.0,-88.0,123.0
127.0,126.0,126.0,125.0,126.0,128.0,129.0,129.0,-1.0,109.0,-71.0,127.0,127.0,127.0,-118.0,-88.0,123.0
127.0,126.0,126.0,125.0,126.0,128.0,129.0,128.0,-1.0,109.0,-71.0,127.0,127.0,127.0,-118.0,-88.0,123.0
127.0,126.0,126.0,125.0,126.0,127.0,129.0,128.0,-1.0,109.0,-71.0,127.0,127.0,127.0,-118.0,-88.0,123.0
127.0,126.0,126.0,125.0,127.0,127.0,129.0,128.0,-1.0,109.0,-71.0,127.0,127.0,127.0,-118.0,-88.0,123.0
127.0,126.0,126.0,125.0,127.0,127.0,129.0,128.0,-1.0,109.0,-71.0,127.0,127.0,127.0,-118.0,-88.0,123.0
127.0,126.0,126.0,125.0,127.0,127.0,129.0,128.0,-1.0,109.0,-71.0,127.0,127.0,127.0,-118.0,-88.0,123.0
127.0,126.0,126.0,125.0,127.0,127.0,129.0,128.0,-1.0,109.0,-71.0,127.0,127.0,127.0,-118.0,-88.0,123.0
127.0,126.0,127.0,125.0,127.0,127.0,129.0,128.0,-1.0,109.0,-71.0,127.0,127.0,127.0,-118.0,-88.0,123.0
127.0,126.0,126.0,125.0,126.0,128.0,129.0,129.0,-1.0,109.0,-71.0,127.0,127.0,127.0,-118.0,-88.0,123.0
127.0,126.0,126.0,125.0,126.0,127.0,129.0,129.0,-1.0,109.0,-71.0,127.0,127.0,127.0,-118.0,-88.0,123.0
127.0,126.0,127.0,125.0,127.0,128.0,127.0,128.0,-1.0,109.0,-71.0,127.0,127.0,127.0,-118.0,-88.0,123.0
127.0,126.0,127.0,125.0,127.0,128.0,127.0,128.0,-1.0,109.0,-71.0,127.0,127.0,127.0,-118.0,-88.0,123.0
127.0,126.0,127.0,125.0,127.0,128.0,127.0,128.0,-1.0,109.0,-71.0,127.0,127.0,127.0,-118.0,-88.0,123.0
127.0,126.0,127.0,125.0,127.0,128.0,127.0,128.0,-1.0,109.0,-71.0,127.0,127.0,127.0,-118.0,-88.0,123.0
127.0,126.0,127.0,125.0,127.0,127.0,127.0,128.0,-1.0,109.0,-71.0,127.0,127.0,127.0,-118.0,-88.0,123.0
127.0,126.0,127.0,125.0,127.0,127.0,127.0,128.0,-1.0,109.0,-71.0,127.0,127.0,127.0,-118.0,-88.0,123.0
127.0,126.0,127.0,125.0,127.0,127.0,127.0,127.0,-1.0,109.0,-71.0,127.0,127.0,127.0,-118.0,-88.0,123.0
127.0,126.0,127.0,125.0,126.0,128.0,128.0,128.0,-1.0,109.0,-71.0,127.0,127.0,127.0,-118.0,-88.0,123.0
127.0,126.0,127.0,125.0,126.0,128.0,128.0,128.0,-1.0,109.0,-71.0,127.0,127.0,127.0,-118.0,-88.0,123.0
127.0,126.0,127.0,125.0,127.0,128.0,127.0,128.0,-1.0,109.0,-71.0,127.0,127.0,127.0,-118.0,-88.0,123.0
127.0,126.0,126.0,125.0,126.0,128.0,128.0,128.0,-1.0,109.0,-71.0,127.0,127.0,127.0,-118.0,-88.0,123.0
127.0,126.0,126.0,125.0,126.0,128.0,128.0,128.0,-1.0,109.0,-71.0,127.0,127.0,127.0,-118.0,-88.0,123.0
127.0,126.0,126.0,125.0,126.0,127.0,128.0,128.0,-1.0,109.0,-71.0,127.0,127.0,127.0,-118.0,-88.0,123.0
127.0,126.0,126.0,125.0,126.0,127.0,129.0,128.0,-1.0,109.0,-71.0,127.0,127.0,127.0,-118.0,-88.0,123.0
127.0,126.0,127.0,125.0,126.0,127.0,129.0,128.0,-1.0,109.0,-71.0,127.0,127.0,127.0,-118.0,-88.0,123.0
127.0,126.0,127.0,125.0,126.0,127.0,129.0,128.0,-1.0,109.0,-71.0,127.0,127.0,127.0,-118.0,-88.0,123.0
127.0,126.0,126.0,125.0,125.0,128.0,128.0,128.0,-1.0,109.0,-71.0,127.0,127.0,127.0,-118.0,-88.0,123.0
127.0,126.0,126.0,125.0,126.0,128.0,128.0,128.0,-1.0,109.0,-71.0,127.0,127.0,127.0,-118.0,-88.0,123.0
127.0,126.0,126.0,125.0,126.0,128.0,128.0,128.0,-1.0,109.0,-71.0,127.0,127.0,127.0,-118.0,-88.0,123.0
127.0,126.0,126.0,125.0,126.0,128.0,128.0,128.0,-1.0,109.0,-71.0,127.0,127.0,127.0,-118.0,-88.0,123.0
127.0,126.0,127.0,125.0,126.0,127.0,126.0,129.0,-1.0,109.0,-71.0,127.0,127.0,127.0,-118.0,-88.0,123.0
127.0,126.0,127.0,125.0,126.0,127.0,126.0,129.0,-1.0,109.0,-71.0,127.0,127.0,127.0,-118.0,-88.0,123.0
127.0,126.0,127.0,125.0,126.0,128.0,125.0,129.0,-1.0,109.0,-71.0,127.0,127.0,127.0,-118.0,-88.0,123.0
127.0,126.0,127.0,125.0,126.0,128.0,125.0,129.0,-1.0,109.0,-71.0,127.0,127.0,127.0,-118.0,-88.0,123.0
127.0,126.0,127.0,125.0,126.0,128.0,125.0,129.0,-1.0,109.0,-71.0,127.0,127.0,127.0,-118.0,-88.0,123.0
127.0,125.0,127.0,125.0,126.0,127.0,127.0,128.0,-1.0,109.0,-71.0,127.0,127.0,127.0,-118.0,-88.0,123.0
127.0,126.0,126.0,125.0,126.0,128.0,127.0,129.0,-1.0,109.0,-71.0,127.0,127.0,127.0,-118.0,-88.0,123.0
127.0,126.0,127.0,125.0,126.0,128.0,126.0,129.0,-1.0,109.0,-71.0,127.0,127.0,127.0,-118.0,-88.0,123.0
127.0,126.0,127.0,125.0,126.0,127.0,126.0,129.0,-1.0,109.0,-71.0,127.0,127.0,127.0,-118.0,-88.0,123.0
127.0,126.0,127.0,125.0,126.0,127.0,126.0,129.0,-1.0,109.0,-71.0,127.0,127.0,127.0,-118.0,-88.0,123.0
127.0,126.0,127.0,125.0,127.0,127.0,124.0,130.0,-1.0,109.0,-71.0,127.0,127.0,127.0,-118.0,-88.0,123.0
127.0,126.0,127.0,125.0,127.0,127.0,124.0,130.0,-1.0,109.0,-71.0,127.0,127.0,127.0,-118.0,-88.0,123.0
127.0,126.0,127.0,125.0,127.0,127.0,124.0,130.0,-1.0,109.0,-71.0,127.0,127.0,127.0,-118.0,-88.0,123.0
127.0,126.0,127.0,125.0,127.0,127.0,124.0,130.0,-1.0,109.0,-71.0,127.0,127.0,127.0,-118.0,-88.0,123.0
127.0,126.0,127.0,125.0,127.0,127.0,124.0,129.0,-1.0,109.0,-71.0,127.0,127.0,127.0,-118.0,-88.0,123.0
127.0,126.0,127.0,125.0,127.0,128.0,124.0,130.0,-1.0,109.0,-71.0,127.0,127.0,127.0,-118.0,-88.0,123.0
127.0,126.0,127.0,125.0,127.0,128.0,124.0,130.0,-1.0,109.0,-71.0,127.0,127.0,127.0,-118.0,-88.0,123.0
127.0,126.0,127.0,125.0,127.0,128.0,124.0,130.0,-1.0,109.0,-71.0,127.0,127.0,127.0,-118.0,-88.0,123.0
127.0,126.0,127.0,125.0,127.0,128.0,124.0,130.0,-1.0,109.0,-71.0,127.0,127.0,127.0,-118.0,-88.0,123.0
127.0,126.0,127.0,125.0,127.0,128.0,124.0,130.0,-1.0,109.0,-71.0,127.0,127.0,127.0,-118.0,-88.0,123.0
127.0,125.0,127.0,125.0,126.0,127.0,125.0,130.0,-1.0,109.0,-71.0,127.0,127.0,127.0,-118.0,-88.0,123.0
127.0,125.0,127.0,125.0,126.0,128.0,125.0,130.0,-1.0,109.0,-71.0,127.0,127.0,127.0,-118.0,-88.0,123.0
127.0,126.0,127.0,125.0,126.0,128.0,125.0,130.0,-1.0,109.0,-71.0,127.0,127.0,127.0,-118.0,-88.0,123.0
127.0,125.0,127.0,125.0,126.0,127.0,125.0,130.0,-1.0,109.0,-71.0,127.0,127.0,127.0,-118.0,-88.0,123.0
127.0,126.0,126.0,125.0,126.0,127.0,125.0,130.0,-1.0,109.0,-71.0,127.0,127.0,127.0,-118.0,-88.0,123.0
127.0,126.0,126.0,125.0,126.0,127.0,125.0,130.0,-1.0,109.0,-71.0,127.0,127.0,127.0,-118.0,-88.0,123.0
127.0,126.0,127.0,125.0,126.0,127.0,125.0,130.0,-1.0,109.0,-71.0,127.0,127.0,127.0,-118.0,-88.0,123.0
127.0,125.0,127.0,125.0,126.0,127.0,125.0,130.0,-1.0,109.0,-71.0,127.0,127.0,127.0,-118.0,-88.0,123.0
127.0,125.0,127.0,125.0,126.0,127.0,125.0,130.0,-1.0,109.0,-71.0,127.0,127.0,127.0,-118.0,-88.0,123.0
127.0,125.0,127.0,125.0,126.0,127.0,125.0,130.0,-1.0,109.0,-71.0,127.0,127.0,127.0,-118.0,-88.0,123.0
127.0,125.0,126.0,125.0,126.0,128.0,126.0,130.0,-1.0,109.0,-71.0,127.0,127.0,127.0,-118.0,-88.0,123.0
127.0,126.0,126.0,125.0,126.0,128.0,126.0,130.0,-1.0,109.0,-71.0,127.0,127.0,127.0,-118.0,-88.0,123.0
127.0,125.0,126.0,125.0,126.0,127.0,126.0,129.0,-1.0,109.0,-71.0,127.0,127.0,127.0,-118.0,-88.0,123.0
127.0,125.0,126.0,125.0,126.0,127.0,126.0,129.0,-1.0,109.0,-71.0,127.0,127.0,127.0,-118.0,-88.0,123.0
127.0,125.0,126.0,125.0,126.0,128.0,126.0,129.0,-1.0,109.0,-71.0,127.0,127.0,127.0,-118.0,-88.0,123.0
127.0,125.0,126.0,125.0,126.0,128.0,126.0,129.0,-1.0,109.0,-71.0,127.0,127.0,127.0,-118.0,-88.0,123.0
127.0,125.0,126.0,125.0,126.0,128.0,126.0,129.0,-1.0,109.0,-71.0,127.0,127.0,127.0,-118.0,-88.0,123.0
127.0,125.0,126.0,125.0,126.0,127.0,126.0,129.0,-1.0,109.0,-71.0,127.0,127.0,127.0,-118.0,-88.0,123.0
127.0,125.0,126.0,125.0,126.0,127.0,126.0,129.0,-1.0,109.0,-71.0,127.0,127.0,127.0,-118.0,-88.0,123.0
127.0,125.0,126.0,125.0,126.0,128.0,126.0,129.0,-1.0,109.0,-71.0,127.0,127.0,127.0,-118.0,-88.0,123.0
127.0,126.0,126.0,125.0,126.0,128.0,127.0,129.0,-1.0,109.0,-71.0,127.0,127.0,127.0,-118.0,-88.0,123.0
127.0,125.0,126.0,125.0,126.0,127.0,127.0,128.0,-1.0,109.0,-71.0,127.0,127.0,127.0,-118.0,-88.0,123.0
127.0,125.0,126.0,125.0,126.0,127.0,127.0,128.0,-1.0,109.0,-71.0,127.0,127.0,127.0,-118.0,-88.0,123.0
127.0,126.0,126.0,125.0,126.0,128.0,127.0,129.0,-1.0,109.0,-71.0,127.0,127.0,127.0,-118.0,-88.0,123.0
127.0,126.0,126.0,125.0,126.0,128.0,127.0,129.0,-1.0,109.0,-71.0,127.0,127.0,127.0,-118.0,-88.0,123.0
127.0,125.0,126.0,125.0,126.0,127.0,127.0,129.0,-1.0,109.0,-71.0,127.0,127.0,127.0,-118.0,-88.0,123.0
127.0,125.0,126.0,125.0,127.0,127.0,127.0,129.0,-1.0,109.0,-71.0,127.0,127.0,127.0,-118.0,-88.0,123.0
127.0,125.0,126.0,125.0,126.0,127.0,127.0,129.0,-1.0,109.0,-71.0,127.0,127.0,127.0,-118.0,-88.0,123.0
127.0,125.0,126.0,125.0,127.0,127.0,127.0,129.0,-1.0,109.0,-71.0,127.0,127.0,127.0,-118.0,-88.0,123.0
127.0,126.0,126.0,125.0,126.0,128.0,127.0,129.0,-1.0,109.0,-71.0,127.0,127.0,127.0,-118.0,-88.0,123.0
127.0,126.0,126.0,125.0,126.0,127.0,127.0,129.0,-1.0,109.0,-71.0,127.0,127.0,127.0,-118.0,-88.0,123.0
127.0,126.0,126.0,125.0,126.0,127.0,127.0,130.0,-1.0,109.0,-71.0,127.0,127.0,127.0,-118.0,-88.0,123.0
127.0,126.0,126.0,125.0,126.0,128.0,127.0,130.0,-1.0,109.0,-71.0,127.0,127.0,127.0,-118.0,-88.0,123.0
127.0,126.0,126.0,125.0,126.0,128.0,127.0,130.0,-1.0,109.0,-71.0,127.0,127.0,127.0,-118.0,-88.0,123.0
127.0,126.0,126.0,125.0,126.0,128.0,127.0,130.0,-1.0,109.0,-71.0,127.0,127.0,127.0,-118.0,-88.0,123.0
127.0,126.0,126.0,125.0,126.0,128.0,127.0,130.0,-1.0,109.0,-71.0,127.0,127.0,127.0,-118.0,-88.0,123.0
127.0,126.0,126.0,125.0,126.0,128.0,127.0,130.0,-1.0,109.0,-71.0,127.0,127.0,127.0,-118.0,-88.0,123.0
127.0,126.0,126.0,125.0,126.0,128.0,127.0,130.0,-1.0,109.0,-71.0,127.0,127.0,127.0,-118.0,-88.0,123.0
127.0,126.0,126.0,125.0,126.0,128.0,127.0,130.0,-1.0,109.0,-71.0,127.0,127.0,127.0,-118.0,-88.0,123.0
127.0,126.0,126.0,125.0,126.0,129.0,127.0,131.0,-1.0,109.0,-71.0,127.0,127.0,127.0,-118.0,-88.0,123.0
127.0,126.0,127.0,125.0,126.0,127.0,128.0,130.0,-1.0,109.0,-71.0,127.0,127.0,127.0,-118.0,-88.0,123.0
127.0,126.0,126.0,125.0,126.0,127.0,128.0,130.0,-1.0,109.0,-71.0,127.0,127.0,127.0,-118.0,-88.0,123.0
127.0,126.0,126.0,125.0,126.0,127.0,128.0,130.0,-1.0,109.0,-71.0,127.0,127.0,127.0,-118.0,-88.0,123.0
127.0,126.0,127.0,125.0,126.0,127.0,128.0,130.0,-1.0,109.0,-71.0,127.0,127.0,127.0,-118.0,-88.0,123.0
127.0,126.0,127.0,125.0,126.0,127.0,128.0,130.0,-1.0,109.0,-71.0,127.0,127.0,127.0,-118.0,-88.0,123.0
127.0,126.0,127.0,125.0,126.0,127.0,128.0,130.0,-1.0,109.0,-71.0,127.0,127.0,127.0,-118.0,-88.0,123.0
127.0,126.0,127.0,125.0,126.0,127.0,128.0,130.0,-1.0,109.0,-71.0,127.0,127.0,127.0,-118.0,-88.0,123.0
127.0,126.0,127.0,125.0,126.0,127.0,127.0,130.0,-1.0,109.0,-71.0,127.0,127.0,127.0,-118.0,-88.0,123.0
127.0,126.0,127.0,126.0,126.0,128.0,127.0,131.0,-1.0,109.0,-71.0,127.0,127.0,127.0,-118.0,-88.0,123.0
127.0,126.0,127.0,125.0,126.0,127.0,128.0,130.0,-1.0,109.0,-71.0,127.0,127.0,127.0,-118.0,-88.0,123.0
127.0,126.0,126.0,126.0,126.0,128.0,127.0,130.0,-1.0,109.0,-71.0,127.0,127.0,127.0,-118.0,-88.0,123.0
127.0,127.0,126.0,126.0,126.0,128.0,127.0,130.0,-1.0,109.0,-71.0,127.0,127.0,127.0,-118.0,-88.0,123.0
127.0,127.0,126.0,126.0,126.0,128.0,127.0,130.0,-1.0,109.0,-71.0,127.0,127.0,127.0,-118.0,-88.0,123.0
127.0,126.0,126.0,126.0,126.0,128.0,127.0,130.0,-1.0,109.0,-71.0,127.0,127.0,127.0,-118.0,-88.0,123.0
127.0,126.0,126.0,126.0,126.0,128.0,127.0,130.0,-1.0,109.0,-71.0,127.0,127.0,127.0,-118.0,-88.0,123.0
127.0,126.0,127.0,126.0,126.0,128.0,127.0,130.0,-1.0,109.0,-71.0,127.0,127.0,127.0,-118.0,-88.0,123.0
127.0,126.0,126.0,126.0,126.0,128.0,127.0,130.0,-1.0,109.0,-71.0,127.0,127.0,127.0,-118.0,-88.0,123.0
127.0,126.0,126.0,126.0,125.0,129.0,127.0,130.0,-1.0,109.0,-71.0,127.0,127.0,127.0,-118.0,-88.0,123.0
127.0,126.0,126.0,126.0,126.0,127.0,127.0,130.0,-1.0,109.0,-71.0,127.0,127.0,127.0,-118.0,-88.0,123.0
127.0,126.0,126.0,125.0,126.0,127.0,127.0,130.0,-1.0,109.0,-71.0,127.0,127.0,127.0,-118.0,-88.0,123.0
127.0,126.0,126.0,126.0,127.0,126.0,127.0,129.0,-1.0,109.0,-71.0,127.0,127.0,127.0,-118.0,-88.0,123.0
127.0,126.0,126.0,126.0,127.0,127.0,127.0,129.0,-1.0,109.0,-71.0,127.0,127.0,127.0,-118.0,-88.0,123.0
127.0,126.0,126.0,126.0,127.0,126.0,127.0,129.0,-1.0,109.0,-71.0,127.0,127.0,127.0,-118.0,-88.0,123.0
127.0,126.0,126.0,126.0,127.0,127.0,127.0,129.0,-1.0,109.0,-71.0,127.0,127.0,127.0,-118.0,-88.0,123.0
127.0,126.0,126.0,126.0,127.0,127.0,127.0,129.0,-1.0,109.0,-71.0,127.0,127.0,127.0,-118.0,-88.0,123.0
127.0,126.0,126.0,126.0,127.0,127.0,128.0,129.0,-1.0,109.0,-71.0,127.0,127.0,127.0,-118.0,-88.0,123.0
127.0,126.0,126.0,126.0,127.0,127.0,127.0,129.0,-1.0,109.0,-71.0,127.0,127.0,127.0,-118.0,-88.0,123.0
127.0,126.0,126.0,126.0,127.0,126.0,127.0,129.0,-1.0,109.0,-71.0,127.0,127.0,127.0,-118.0,-88.0,123.0
127.0,126.0,126.0,126.0,127.0,126.0,127.0,129.0,-1.0,109.0,-71.0,127.0,127.0,127.0,-118.0,-88.0,123.0
127.0,126.0,126.0,126.0,127.0,126.0,127.0,129.0,-1.0,109.0,-71.0,127.0,127.0,127.0,-118.0,-88.0,123.0
127.0,126.0,126.0,125.0,126.0,128.0,127.0,129.0,-1.0,109.0,-71.0,127.0,127.0,127.0,-118.0,-88.0,123.0
127.0,126.0,126.0,125.0,126.0,128.0,127.0,129.0,-1.0,109.0,-71.0,127.0,127.0,127.0,-118.0,-88.0,123.0
127.0,126.0,126.0,125.0,126.0,128.0,127.0,129.0,-1.0,109.0,-71.0,127.0,127.0,127.0,-118.0,-88.0,123.0
127.0,126.0,126.0,125.0,126.0,128.0,127.0,129.0,-1.0,109.0,-71.0,127.0,127.0,127.0,-118.0,-88.0,123.0
127.0,126.0,126.0,125.0,126.0,128.0,127.0,129.0,-1.0,109.0,-71.0,127.0,127.0,127.0,-118.0,-88.0,123.0
127.0,126.0,126.0,125.0,126.0,128.0,127.0,129.0,-1.0,109.0,-71.0,127.0,127.0,127.0,-118.0,-88.0,123.0
127.0,126.0,126.0,125.0,126.0,128.0,127.0,129.0,-1.0,109.0,-71.0,127.0,127.0,127.0,-118.0,-88.0,123.0
127.0,126.0,126.0,125.0,126.0,128.0,127.0,129.0,-1.0,109.0,-71.0,127.0,127.0,127.0,-118.0,-88.0,123.0
127.0,126.0,126.0,125.0,126.0,128.0,127.0,129.0,-1.0,109.0,-71.0,127.0,127.0,127.0,-118.0,-88.0,123.0
127.0,126.0,126.0,125.0,126.0,128.0,127.0,129.0,-1.0,109.0,-71.0,127.0,127.0,127.0,-118.0,-88.0,123.0
127.0,126.0,126.0,125.0,126.0,127.0,127.0,129.0,-1.0,109.0,-71.0,127.0,127.0,127.0,-118.0,-88.0,123.0
127.0,127.0,126.0,125.0,126.0,128.0,127.0,129.0,-1.0,109.0,-71.0,127.0,127.0,127.0,-118.0,-88.0,123.0
127.0,127.0,126.0,125.0,126.0,128.0,127.0,129.0,-1.0,109.0,-71.0,127.0,127.0,127.0,-118.0,-88.0,123.0
127.0,127.0,126.0,125.0,126.0,128.0,127.0,129.0,-1.0,109.0,-71.0,127.0,127.0,127.0,-118.0,-88.0,123.0
127.0,127.0,126.0,125.0,126.0,128.0,127.0,129.0,-1.0,109.0,-71.0,127.0,127.0,127.0,-118.0,-88.0,123.0
127.0,127.0,126.0,125.0,126.0,128.0,127.0,129.0,-1.0,109.0,-71.0,127.0,127.0,127.0,-118.0,-88.0,123.0
127.0,127.0,126.0,125.0,126.0,128.0,127.0,129.0,-1.0,109.0,-71.0,127.0,127.0,127.0,-118.0,-88.0,123.0
127.0,127.0,126.0,125.0,126.0,128.0,127.0,129.0,-1.0,109.0,-71.0,127.0,127.0,127.0,-118.0,-88.0,123.0
127.0,126.0,126.0,125.0,126.0,127.0,127.0,129.0,-1.0,109.0,-71.0,127.0,127.0,127.0,-118.0,-88.0,123.0
127.0,126.0,126.0,125.0,126.0,128.0,127.0,129.0,-1.0,109.0,-71.0,127.0,127.0,127.0,-118.0,-88.0,123.0
127.0,126.0,126.0,126.0,126.0,128.0,128.0,129.0,-1.0,109.0,-71.0,127.0,127.0,127.0,-118.0,-88.0,123.0
127.0,126.0,126.0,126.0,126.0,128.0,128.0,129.0,-1.0,109.0,-71.0,127.0,127.0,127.0,-118.0,-88.0,123.0
127.0,126.0,127.0,126.0,126.0,128.0,128.0,129.0,-1.0,109.0,-71.0,127.0,127.0,127.0,-118.0,-88.0,123.0
127.0,126.0,127.0,126.0,126.0,128.0,128.0,129.0,-1.0,109.0,-71.0,127.0,127.0,127.0,-118.0,-88.0,123.0
127.0,126.0,127.0,126.0,125.0,127.0,128.0,129.0,-1.0,109.0,-71.0,127.0,127.0,127.0,-118.0,-88.0,123.0
127.0,126.0,126.0,126.0,126.0,128.0,128.0,129.0,-1.0,109.0,-71.0,127.0,127.0,127.0,-118.0,-88.0,123.0
127.0,126.0,127.0,126.0,126.0,128.0,128.0,129.0,-1.0,109.0,-71.0,127.0,127.0,127.0,-118.0,-88.0,123.0
127.0,126.0,127.0,126.0,126.0,128.0,128.0,129.0,-1.0,109.0,-71.0,127.0,127.0,127.0,-118.0,-88.0,123.0
127.0,126.0,127.0,126.0,126.0,127.0,128.0,129.0,-1.0,109.0,-71.0,127.0,127.0,127.0,-118.0,-88.0,123.0
127.0,126.0,127.0,126.0,126.0,128.0,128.0,129.0,-1.0,109.0,-71.0,127.0,127.0,127.0,-118.0,-88.0,123.0
127.0,126.0,126.0,125.0,126.0,128.0,128.0,129.0,-1.0,109.0,-71.0,127.0,127.0,127.0,-118.0,-88.0,123.0
127.0,126.0,126.0,125.0,126.0,128.0,128.0,129.0,-1.0,109.0,-71.0,127.0,127.0,127.0,-118.0,-88.0,123.0
127.0,126.0,126.0,125.0,126.0,128.0,128.0,129.0,-1.0,109.0,-71.0,127.0,127.0,127.0,-118.0,-88.0,123.0
127.0,126.0,126.0,125.0,126.0,128.0,128.0,129.0,-1.0,109.0,-71.0,127.0,127.0,127.0,-118.0,-88.0,123.0
127.0,126.0,126.0,125.0,126.0,127.0,128.0,129.0,-1.0,109.0,-71.0,127.0,127.0,127.0,-118.0,-88.0,123.0
127.0,126.0,126.0,125.0,126.0,127.0,128.0,129.0,-1.0,109.0,-71.0,127.0,127.0,127.0,-118.0,-88.0,123.0
127.0,126.0,126.0,125.0,126.0,127.0,128.0,129.0,-1.0,109.0,-71.0,127.0,127.0,127.0,-118.0,-88.0,123.0
127.0,126.0,126.0,125.0,126.0,127.0,128.0,129.0,-1.0,109.0,-71.0,127.0,127.0,127.0,-118.0,-88.0,123.0
127.0,126.0,126.0,125.0,126.0,127.0,128.0,129.0,-1.0,109.0,-71.0,127.0,127.0,127.0,-118.0,-88.0,123.0
127.0,126.0,126.0,125.0,126.0,127.0,128.0,129.0,-1.0,109.0,-71.0,127.0,127.0,127.0,-118.0,-88.0,123.0
127.0,126.0,126.0,125.0,126.0,128.0,128.0,129.0,-1.0,109.0,-71.0,127.0,127.0,127.0,-118.0,-88.0,123.0
127.0,126.0,126.0,125.0,126.0,128.0,128.0,129.0,-1.0,109.0,-71.0,127.0,127.0,127.0,-118.0,-88.0,123.0
127.0,126.0,126.0,125.0,126.0,127.0,128.0,129.0,-1.0,109.0,-71.0,127.0,127.0,127.0,-118.0,-88.0,123.0
127.0,126.0,126.0,125.0,126.0,128.0,128.0,129.0,-1.0,109.0,-71.0,127.0,127.0,127.0,-118.0,-88.0,123.0
127.0,126.0,126.0,125.0,126.0,128.0,128.0,129.0,-1.0,109.0,-71.0,127.0,127.0,127.0,-118.0,-88.0,123.0
127.0,126.0,126.0,125.0,126.0,128.0,128.0,129.0,-1.0,109.0,-71.0,127.0,127.0,127.0,-118.0,-88.0,123.0
127.0,126.0,126.0,125.0,126.0,127.0,128.0,129.0,-1.0,109.0,-71.0,127.0,127.0,127.0,-118.0,-88.0,123.0
127.0,126.0,126.0,125.0,126.0,127.0,128.0,129.0,-1.0,109.0,-71.0,127.0,127.0,127.0,-118.0,-88.0,123.0
127.0,126.0,126.0,125.0,126.0,127.0,128.0,129.0,-1.0,109.0,-71.0,127.0,127.0,127.0,-118.0,-88.0,123.0
127.0,126.0,126.0,125.0,126.0,128.0,128.0,129.0,-1.0,109.0,-71.0,127.0,127.0,127.0,-118.0,-88.0,123.0
127.0,126.0,126.0,125.0,126.0,128.0,128.0,130.0,-1.0,109.0,-71.0,127.0,127.0,127.0,-118.0,-88.0,123.0
127.0,126.0,126.0,125.0,126.0,127.0,128.0,130.0,-1.0,109.0,-71.0,127.0,127.0,127.0,-118.0,-88.0,123.0
127.0,126.0,126.0,125.0,126.0,127.0,128.0,130.0,-1.0,109.0,-71.0,127.0,127.0,127.0,-118.0,-88.0,123.0
127.0,126.0,126.0,125.0,126.0,127.0,128.0,130.0,-1.0,109.0,-71.0,127.0,127.0,127.0,-118.0,-88.0,123.0
127.0,126.0,126.0,125.0,126.0,127.0,128.0,130.0,-1.0,109.0,-71.0,127.0,127.0,127.0,-118.0,-88.0,123.0
127.0,126.0,126.0,125.0,126.0,127.0,128.0,130.0,-1.0,109.0,-71.0,127.0,127.0,127.0,-118.0,-88.0,123.0
127.0,126.0,126.0,125.0,126.0,127.0,128.0,130.0,-1.0,109.0,-71.0,127.0,127.0,127.0,-118.0,-88.0,123.0
127.0,126.0,126.0,125.0,126.0,127.0,128.0,130.0,-1.0,109.0,-71.0,127.0,127.0,127.0,-118.0,-88.0,123.0
127.0,126.0,126.0,125.0,126.0,128.0,128.0,130.0,-1.0,109.0,-71.0,127.0,127.0,127.0,-118.0,-88.0,123.0
