emg1,emg2,emg3,emg4,emg5,emg6,emg7,emg8,acc_x,acc_y,acc_z,gyro_x,gyro_y,gyro_z,angle_pitch,angle_roll,angle_yaw
126.0,128.0,127.0,127.0,127.0,128.0,107.0,128.0,27.0,-118.0,-67.0,127.0,127.0,127.0,123.0,87.0,-82.0
126.0,128.0,127.0,127.0,127.0,128.0,107.0,128.0,27.0,-118.0,-67.0,127.0,127.0,127.0,123.0,87.0,-82.0
126.0,127.0,127.0,127.0,127.0,128.0,107.0,128.0,27.0,-118.0,-67.0,127.0,127.0,127.0,123.0,87.0,-82.0
126.0,127.0,127.0,127.0,127.0,128.0,107.0,128.0,27.0,-118.0,-67.0,127.0,127.0,127.0,123.0,87.0,-82.0
126.0,127.0,127.0,127.0,127.0,128.0,107.0,128.0,27.0,-118.0,-67.0,127.0,127.0,127.0,123.0,87.0,-82.0
127.0,127.0,127.0,127.0,127.0,128.0,106.0,128.0,27.0,-118.0,-67.0,127.0,127.0,127.0,123.0,87.0,-82.0
126.0,127.0,127.0,127.0,127.0,127.0,106.0,128.0,27.0,-118.0,-67.0,127.0,127.0,127.0,123.0,87.0,-82.0
126.0,127.0,127.0,127.0,127.0,127.0,106.0,128.0,27.0,-118.0,-67.0,127.0,127.0,127.0,123.0,87.0,-82.0
126.0,128.0,127.0,127.0,127.0,128.0,107.0,128.0,27.0,-118.0,-67.0,127.0,127.0,127.0,123.0,87.0,-82.0
126.0,127.0,127.0,127.0,127.0,128.0,107.0,128.0,27.0,-118.0,-67.0,127.0,127.0,127.0,123.0,87.0,-82.0
126.0,127.0,127.0,127.0,127.0,127.0,106.0,127.0,27.0,-119.0,-67.0,127.0,127.0,127.0,123.0,87.0,-82.0
126.0,127.0,127.0,127.0,127.0,127.0,106.0,127.0,27.0,-119.0,-67.0,127.0,127.0,127.0,123.0,87.0,-82.0
126.0,127.0,126.0,127.0,127.0,128.0,107.0,127.0,27.0,-119.0,-67.0,127.0,127.0,127.0,123.0,87.0,-82.0
126.0,127.0,126.0,127.0,127.0,128.0,107.0,128.0,27.0,-119.0,-67.0,127.0,127.0,127.0,123.0,87.0,-82.0
126.0,127.0,127.0,127.0,127.0,128.0,108.0,128.0,27.0,-119.0,-67.0,127.0,127.0,127.0,123.0,87.0,-82.0
126.0,127.0,127.0,127.0,127.0,128.0,108.0,128.0,27.0,-119.0,-67.0,127.0,127.0,127.0,123.0,87.0,-82.0
126.0,127.0,127.0,127.0,127.0,128.0,108.0,128.0,27.0,-119.0,-67.0,127.0,127.0,127.0,123.0,87.0,-82.0
126.0,127.0,127.0,127.0,127.0,128.0,106.0,127.0,27.0,-119.0,-67.0,127.0,127.0,127.0,123.0,87.0,-82.0
126.0,127.0,127.0,127.0,127.0,128.0,106.0,127.0,27.0,-119.0,-67.0,127.0,127.0,127.0,123.0,87.0,-82.0
126.0,127.0,127.0,127.0,127.0,127.0,106.0,127.0,27.0,-119.0,-67.0,127.0,127.0,127.0,123.0,87.0,-82.0
127.0,127.0,127.0,126.0,127.0,127.0,106.0,128.0,27.0,-119.0,-67.0,127.0,127.0,127.0,123.0,87.0,-82.0
127.0,127.0,127.0,126.0,127.0,128.0,107.0,128.0,27.0,-119.0,-67.0,127.0,127.0,127.0,123.0,87.0,-82.0
127.0,127.0,127.0,126.0,127.0,128.0,107.0,128.0,27.0,-119.0,-67.0,127.0,127.0,127.0,123.0,87.0,-82.0
127.0,127.0,127.0,126.0,127.0,128.0,108.0,128.0,27.0,-119.0,-67.0,127.0,127.0,127.0,123.0,87.0,-82.0
127.0,127.0,127.0,126.0,127.0,128.0,108.0,128.0,27.0,-119.0,-67.0,127.0,127.0,127.0,123.0,87.0,-82.0
127.0,127.0,128.0,126.0,127.0,128.0,107.0,128.0,27.0,-119.0,-67.0,127.0,127.0,127.0,123.0,87.0,-82.0
127.0,127.0,127.0,126.0,127.0,128.0,107.0,128.0,27.0,-119.0,-67.0,127.0,127.0,127.0,123.0,87.0,-82.0
127.0,127.0,127.0,126.0,127.0,128.0,107.0,128.0,27.0,-119.0,-67.0,127.0,127.0,127.0,123.0,87.0,-82.0
127.0,127.0,127.0,126.0,127.0,128.0,106.0,128.0,27.0,-119.0,-67.0,127.0,127.0,127.0,123.0,87.0,-82.0
127.0,127.0,127.0,126.0,127.0,128.0,106.0,128.0,27.0,-119.0,-67.0,127.0,127.0,127.0,123.0,87.0,-82.0
127.0,127.0,127.0,127.0,127.0,128.0,107.0,128.0,27.0,-119.0,-67.0,127.0,127.0,127.0,123.0,87.0,-82.0
127.0,127.0,127.0,127.0,127.0,128.0,107.0,128.0,27.0,-119.0,-67.0,127.0,127.0,127.0,123.0,87.0,-82.0
127.0,127.0,127.0,127.0,127.0,128.0,107.0,128.0,27.0,-119.0,-67.0,127.0,127.0,127.0,123.0,87.0,-82.0
127.0,127.0,127.0,127.0,127.0,128.0,107.0,128.0,27.0,-119.0,-67.0,127.0,127.0,127.0,123.0,87.0,-82.0
127.0,127.0,127.0,127.0,127.0,128.0,108.0,128.0,27.0,-119.0,-67.0,127.0,127.0,127.0,123.0,87.0,-82.0
127.0,127.0,127.0,127.0,127.0,128.0,106.0,128.0,27.0,-119.0,-67.0,127.0,127.0,127.0,123.0,87.0,-82.0
127.0,127.0,127.0,127.0,127.0,128.0,107.0,128.0,27.0,-119.0,-67.0,127.0,127.0,127.0,123.0,87.0,-82.0
127.0,127.0,127.0,127.0,127.0,128.0,107.0,128.0,27.0,-119.0,-67.0,127.0,127.0,127.0,123.0,87.0,-82.0
127.0,127.0,127.0,127.0,127.0,127.0,106.0,128.0,27.0,-119.0,-67.0,127.0,127.0,127.0,123.0,87.0,-82.0
127.0,127.0,127.0,127.0,127.0,128.0,106.0,128.0,27.0,-119.0,-67.0,127.0,127.0,127.0,123.0,87.0,-82.0
127.0,127.0,127.0,127.0,127.0,127.0,106.0,128.0,26.0,-119.0,-67.0,127.0,127.0,127.0,123.0,87.0,-82.0
127.0,126.0,127.0,127.0,127.0,127.0,106.0,128.0,26.0,-119.0,-67.0,127.0,127.0,127.0,123.0,87.0,-82.0
127.0,126.0,127.0,127.0,126.0,127.0,106.0,128.0,26.0,-119.0,-67.0,127.0,127.0,127.0,123.0,87.0,-82.0
127.0,127.0,127.0,127.0,126.0,127.0,106.0,128.0,26.0,-119.0,-67.0,127.0,127.0,127.0,123.0,87.0,-82.0
127.0,127.0,127.0,127.0,126.0,127.0,106.0,128.0,26.0,-119.0,-67.0,127.0,127.0,127.0,123.0,87.0,-82.0
127.0,127.0,127.0,127.0,127.0,127.0,107.0,128.0,26.0,-119.0,-67.0,127.0,127.0,127.0,123.0,87.0,-82.0
127.0,127.0,127.0,127.0,126.0,127.0,106.0,128.0,26.0,-119.0,-67.0,127.0,127.0,127.0,123.0,87.0,-82.0
127.0,127.0,127.0,127.0,126.0,127.0,106.0,128.0,26.0,-119.0,-67.0,127.0,127.0,127.0,123.0,87.0,-82.0
127.0,127.0,127.0,127.0,127.0,127.0,106.0,128.0,26.0,-119.0,-67.0,127.0,127.0,127.0,123.0,87.0,-82.0
127.0,127.0,127.0,127.0,127.0,127.0,106.0,128.0,26.0,-119.0,-67.0,127.0,127.0,127.0,123.0,87.0,-82.0
126.0,127.0,127.0,127.0,127.0,128.0,106.0,128.0,26.0,-119.0,-67.0,127.0,127.0,127.0,123.0,87.0,-82.0
126.0,127.0,127.0,127.0,127.0,128.0,106.0,128.0,26.0,-119.0,-67.0,127.0,127.0,127.0,123.0,87.0,-82.0
126.0,127.0,126.0,127.0,127.0,127.0,106.0,128.0,26.0,-119.0,-67.0,127.0,127.0,127.0,123.0,87.0,-82.0
126.0,127.0,127.0,127.0,127.0,127.0,107.0,128.0,26.0,-119.0,-67.0,127.0,127.0,127.0,123.0,87.0,-82.0
126.0,127.0,127.0,127.0,127.0,127.0,107.0,128.0,26.0,-119.0,-67.0,127.0,127.0,127.0,123.0,87.0,-82.0
126.0,127.0,127.0,127.0,127.0,127.0,107.0,128.0,26.0,-119.0,-67.0,127.0,127.0,127.0,123.0,87.0,-82.0
126.0,127.0,126.0,127.0,127.0,127.0,106.0,128.0,26.0,-119.0,-67.0,127.0,127.0,127.0,123.0,87.0,-82.0
126.0,127.0,126.0,127.0,127.0,127.0,106.0,128.0,26.0,-119.0,-67.0,127.0,127.0,127.0,123.0,87.0,-82.0
126.0,127.0,126.0,127.0,127.0,127.0,106.0,128.0,26.0,-119.0,-67.0,127.0,127.0,127.0,123.0,87.0,-82.0
126.0,127.0,126.0,127.0,127.0,127.0,106.0,128.0,26.0,-119.0,-67.0,127.0,127.0,127.0,123.0,87.0,-82.0
127.0,127.0,127.0,127.0,127.0,128.0,107.0,128.0,26.0,-119.0,-68.0,127.0,127.0,127.0,123.0,87.0,-82.0
127.0,127.0,128.0,127.0,127.0,128.0,107.0,128.0,26.0,-119.0,-68.0,127.0,127.0,127.0,123.0,87.0,-82.0
127.0,127.0,127.0,127.0,127.0,128.0,107.0,128.0,26.0,-119.0,-68.0,127.0,127.0,127.0,123.0,87.0,-82.0
127.0,127.0,127.0,127.0,127.0,128.0,107.0,128.0,26.0,-119.0,-68.0,127.0,127.0,127.0,123.0,87.0,-82.0
127.0,127.0,127.0,127.0,127.0,128.0,107.0,128.0,26.0,-119.0,-68.0,127.0,127.0,127.0,123.0,87.0,-82.0
127.0,127.0,128.0,127.0,127.0,128.0,107.0,128.0,26.0,-119.0,-68.0,127.0,127.0,127.0,123.0,87.0,-82.0
127.0,127.0,127.0,127.0,127.0,128.0,107.0,128.0,26.0,-119.0,-68.0,127.0,127.0,127.0,123.0,87.0,-82.0
127.0,127.0,127.0,127.0,127.0,128.0,107.0,128.0,26.0,-119.0,-68.0,127.0,127.0,127.0,123.0,87.0,-82.0
127.0,127.0,127.0,127.0,127.0,128.0,107.0,128.0,26.0,-119.0,-68.0,127.0,127.0,127.0,123.0,87.0,-82.0
127.0,127.0,127.0,127.0,127.0,128.0,107.0,128.0,26.0,-119.0,-68.0,127.0,127.0,127.0,123.0,87.0,-82.0
127.0,127.0,127.0,127.0,127.0,128.0,107.0,128.0,26.0,-119.0,-68.0,127.0,127.0,127.0,123.0,87.0,-82.0
127.0,127.0,127.0,127.0,127.0,127.0,107.0,128.0,26.0,-119.0,-68.0,127.0,127.0,127.0,123.0,87.0,-82.0
127.0,127.0,126.0,127.0,127.0,127.0,106.0,128.0,26.0,-119.0,-68.0,127.0,127.0,127.0,123.0,87.0,-82.0
127.0,127.0,126.0,127.0,127.0,127.0,106.0,128.0,26.0,-119.0,-68.0,127.0,127.0,127.0,123.0,87.0,-82.0
127.0,127.0,126.0,127.0,127.0,127.0,107.0,128.0,26.0,-119.0,-68.0,127.0,127.0,127.0,123.0,87.0,-82.0
127.0,127.0,126.0,127.0,127.0,127.0,107.0,128.0,26.0,-119.0,-68.0,127.0,127.0,127.0,123.0,87.0,-82.0
127.0,127.0,127.0,127.0,127.0,127.0,107.0,128.0,26.0,-119.0,-68.0,127.0,127.0,127.0,123.0,87.0,-82.0
127.0,127.0,126.0,127.0,127.0,128.0,106.0,128.0,26.0,-119.0,-68.0,127.0,127.0,127.0,123.0,87.0,-82.0
127.0,127.0,126.0,127.0,127.0,128.0,107.0,128.0,26.0,-119.0,-68.0,127.0,127.0,127.0,123.0,87.0,-82.0
127.0,127.0,127.0,127.0,127.0,128.0,107.0,128.0,26.0,-119.0,-68.0,127.0,127.0,127.0,123.0,87.0,-82.0
127.0,127.0,127.0,127.0,127.0,127.0,106.0,128.0,26.0,-119.0,-68.0,127.0,127.0,127.0,123.0,87.0,-82.0
127.0,127.0,127.0,127.0,127.0,128.0,106.0,128.0,26.0,-119.0,-68.0,127.0,127.0,127.0,123.0,87.0,-82.0
127.0,127.0,127.0,127.0,127.0,128.0,107.0,128.0,26.0,-119.0,-68.0,127.0,127.0,127.0,123.0,87.0,-82.0
127.0,127.0,127.0,127.0,127.0,128.0,107.0,128.0,26.0,-119.0,-68.0,127.0,127.0,127.0,123.0,87.0,-82.0
127.0,127.0,127.0,127.0,127.0,128.0,106.0,128.0,26.0,-119.0,-68.0,127.0,127.0,127.0,123.0,87.0,-82.0
127.0,127.0,127.0,127.0,127.0,128.0,107.0,128.0,26.0,-119.0,-68.0,127.0,127.0,127.0,123.0,87.0,-82.0
127.0,127.0,127.0,127.0,127.0,128.0,107.0,128.0,26.0,-119.0,-68.0,127.0,127.0,127.0,123.0,87.0,-82.0
127.0,127.0,127.0,127.0,127.0,128.0,107.0,128.0,26.0,-119.0,-68.0,127.0,127.0,127.0,123.0,87.0,-82.0
127.0,127.0,127.0,127.0,127.0,128.0,107.0,128.0,26.0,-119.0,-68.0,127.0,127.0,127.0,123.0,87.0,-82.0
127.0,127.0,127.0,127.0,127.0,128.0,107.0,128.0,26.0,-119.0,-68.0,127.0,127.0,127.0,123.0,87.0,-82.0
127.0,127.0,127.0,127.0,127.0,127.0,106.0,128.0,26.0,-119.0,-68.0,127.0,127.0,127.0,123.0,87.0,-82.0
127.0,127.0,127.0,127.0,127.0,128.0,106.0,128.0,26.0,-119.0,-68.0,127.0,127.0,127.0,123.0,87.0,-82.0
127.0,127.0,127.0,127.0,127.0,128.0,106.0,128.0,26.0,-119.0,-68.0,127.0,127.0,127.0,123.0,87.0,-82.0
127.0,127.0,127.0,127.0,127.0,127.0,106.0,128.0,26.0,-119.0,-68.0,127.0,127.0,127.0,123.0,87.0,-82.0
127.0,127.0,127.0,127.0,127.0,128.0,106.0,128.0,26.0,-119.0,-68.0,127.0,127.0,127.0,123.0,87.0,-82.0
127.0,127.0,127.0,127.0,127.0,127.0,106.0,128.0,26.0,-119.0,-68.0,127.0,127.0,127.0,123.0,87.0,-82.0
127.0,127.0,127.0,127.0,127.0,128.0,107.0,128.0,26.0,-119.0,-68.0,127.0,127.0,127.0,123.0,87.0,-82.0
127.0,127.0,127.0,127.0,127.0,128.0,108.0,128.0,26.0,-119.0,-68.0,127.0,127.0,127.0,123.0,87.0,-82.0
126.0,127.0,127.0,127.0,127.0,128.0,107.0,128.0,26.0,-119.0,-68.0,127.0,127.0,127.0,123.0,87.0,-82.0
126.0,127.0,127.0,127.0,127.0,127.0,106.0,128.0,26.0,-119.0,-68.0,127.0,127.0,127.0,123.0,87.0,-82.0
126.0,127.0,127.0,127.0,126.0,128.0,107.0,128.0,26.0,-119.0,-68.0,127.0,127.0,127.0,123.0,87.0,-82.0
126.0,127.0,127.0,127.0,126.0,128.0,107.0,128.0,26.0,-119.0,-68.0,127.0,127.0,127.0,123.0,87.0,-82.0
126.0,127.0,127.0,127.0,126.0,127.0,107.0,128.0,26.0,-119.0,-68.0,127.0,127.0,127.0,123.0,87.0,-82.0
126.0,127.0,127.0,127.0,126.0,127.0,107.0,128.0,26.0,-119.0,-68.0,127.0,127.0,127.0,123.0,87.0,-82.0
126.0,127.0,127.0,127.0,126.0,127.0,107.0,128.0,26.0,-119.0,-68.0,127.0,127.0,127.0,123.0,87.0,-82.0
126.0,127.0,127.0,127.0,126.0,127.0,106.0,128.0,26.0,-119.0,-68.0,127.0,127.0,127.0,123.0,87.0,-82.0
126.0,127.0,127.0,127.0,126.0,127.0,106.0,128.0,26.0,-119.0,-68.0,127.0,127.0,127.0,123.0,87.0,-82.0
126.0,127.0,127.0,127.0,126.0,127.0,106.0,128.0,26.0,-119.0,-68.0,127.0,127.0,127.0,123.0,87.0,-82.0
126.0,127.0,127.0,127.0,127.0,128.0,107.0,128.0,26.0,-119.0,-68.0,127.0,127.0,127.0,123.0,87.0,-82.0
126.0,127.0,127.0,127.0,126.0,128.0,107.0,128.0,26.0,-119.0,-68.0,127.0,127.0,127.0,123.0,87.0,-82.0
126.0,127.0,127.0,127.0,127.0,127.0,106.0,128.0,26.0,-119.0,-68.0,127.0,127.0,127.0,123.0,87.0,-82.0
127.0,127.0,127.0,127.0,127.0,127.0,106.0,128.0,26.0,-119.0,-68.0,127.0,127.0,127.0,123.0,87.0,-82.0
127.0,127.0,127.0,127.0,127.0,127.0,106.0,128.0,26.0,-119.0,-68.0,127.0,127.0,127.0,123.0,87.0,-82.0
127.0,127.0,127.0,127.0,127.0,127.0,106.0,128.0,26.0,-119.0,-68.0,127.0,127.0,127.0,123.0,87.0,-82.0
126.0,127.0,127.0,127.0,127.0,127.0,106.0,128.0,26.0,-119.0,-68.0,127.0,127.0,127.0,123.0,87.0,-82.0
127.0,127.0,127.0,127.0,126.0,127.0,107.0,128.0,26.0,-119.0,-68.0,127.0,127.0,127.0,123.0,87.0,-82.0
127.0,127.0,127.0,127.0,126.0,127.0,106.0,128.0,26.0,-119.0,-68.0,127.0,127.0,127.0,123.0,87.0,-82.0
126.0,127.0,127.0,127.0,127.0,128.0,106.0,128.0,26.0,-119.0,-68.0,127.0,127.0,127.0,123.0,87.0,-82.0
126.0,127.0,127.0,127.0,127.0,127.0,106.0,128.0,26.0,-119.0,-68.0,127.0,127.0,127.0,123.0,87.0,-82.0
126.0,127.0,127.0,127.0,127.0,127.0,106.0,128.0,26.0,-119.0,-68.0,127.0,127.0,127.0,123.0,87.0,-82.0
126.0,127.0,127.0,127.0,127.0,127.0,106.0,128.0,27.0,-119.0,-67.0,127.0,127.0,127.0,123.0,87.0,-82.0
126.0,127.0,127.0,127.0,127.0,127.0,107.0,128.0,27.0,-119.0,-67.0,127.0,127.0,127.0,123.0,87.0,-82.0
126.0,127.0,127.0,127.0,127.0,127.0,107.0,128.0,27.0,-119.0,-67.0,127.0,127.0,127.0,123.0,87.0,-82.0
126.0,127.0,127.0,127.0,127.0,127.0,106.0,128.0,27.0,-119.0,-67.0,127.0,127.0,127.0,123.0,87.0,-82.0
126.0,127.0,127.0,127.0,127.0,128.0,107.0,128.0,27.0,-119.0,-67.0,127.0,127.0,127.0,123.0,87.0,-82.0
126.0,127.0,127.0,127.0,127.0,128.0,107.0,128.0,27.0,-119.0,-67.0,127.0,127.0,127.0,123.0,87.0,-82.0
126.0,127.0,127.0,126.0,127.0,127.0,107.0,127.0,27.0,-119.0,-67.0,127.0,127.0,127.0,123.0,87.0,-82.0
126.0,127.0,127.0,126.0,127.0,127.0,107.0,128.0,27.0,-119.0,-67.0,127.0,127.0,127.0,123.0,87.0,-82.0
126.0,127.0,127.0,126.0,127.0,127.0,106.0,128.0,27.0,-119.0,-67.0,127.0,127.0,127.0,123.0,87.0,-82.0
126.0,127.0,127.0,127.0,127.0,127.0,106.0,128.0,27.0,-119.0,-67.0,127.0,127.0,127.0,123.0,87.0,-82.0
126.0,127.0,127.0,127.0,126.0,127.0,107.0,127.0,27.0,-119.0,-67.0,127.0,127.0,127.0,123.0,87.0,-82.0
126.0,127.0,127.0,127.0,126.0,127.0,107.0,127.0,27.0,-119.0,-67.0,127.0,127.0,127.0,123.0,87.0,-82.0
126.0,127.0,127.0,127.0,126.0,127.0,106.0,127.0,27.0,-119.0,-67.0,127.0,127.0,127.0,123.0,87.0,-82.0
126.0,127.0,127.0,127.0,126.0,127.0,106.0,127.0,27.0,-119.0,-67.0,127.0,127.0,127.0,123.0,87.0,-82.0
126.0,127.0,127.0,127.0,126.0,127.0,106.0,127.0,27.0,-119.0,-67.0,127.0,127.0,127.0,123.0,87.0,-82.0
126.0,127.0,127.0,127.0,127.0,127.0,105.0,127.0,27.0,-119.0,-67.0,127.0,127.0,127.0,123.0,87.0,-82.0
126.0,127.0,127.0,127.0,127.0,127.0,106.0,127.0,27.0,-119.0,-67.0,127.0,127.0,127.0,123.0,87.0,-82.0
126.0,127.0,127.0,127.0,127.0,127.0,106.0,127.0,27.0,-119.0,-67.0,127.0,127.0,127.0,123.0,87.0,-82.0
126.0,127.0,127.0,127.0,127.0,127.0,106.0,127.0,27.0,-119.0,-67.0,127.0,127.0,127.0,123.0,87.0,-82.0
126.0,127.0,127.0,127.0,127.0,127.0,107.0,127.0,27.0,-119.0,-67.0,127.0,127.0,127.0,123.0,87.0,-82.0
126.0,127.0,128.0,127.0,127.0,127.0,107.0,128.0,27.0,-119.0,-67.0,127.0,127.0,127.0,123.0,87.0,-82.0
126.0,127.0,128.0,127.0,127.0,127.0,106.0,128.0,27.0,-119.0,-67.0,127.0,127.0,127.0,123.0,87.0,-82.0
127.0,127.0,128.0,127.0,127.0,128.0,107.0,128.0,27.0,-119.0,-67.0,127.0,127.0,127.0,123.0,87.0,-82.0
126.0,127.0,128.0,127.0,127.0,128.0,107.0,128.0,27.0,-119.0,-67.0,127.0,127.0,127.0,123.0,87.0,-82.0
126.0,127.0,127.0,127.0,127.0,127.0,113.0,127.0,27.0,-119.0,-67.0,127.0,127.0,127.0,123.0,87.0,-82.0
126.0,127.0,127.0,127.0,127.0,127.0,111.0,127.0,27.0,-119.0,-67.0,127.0,127.0,127.0,123.0,87.0,-82.0
126.0,127.0,127.0,127.0,127.0,127.0,107.0,128.0,27.0,-119.0,-67.0,127.0,127.0,127.0,123.0,87.0,-82.0
126.0,127.0,127.0,127.0,127.0,127.0,107.0,128.0,27.0,-119.0,-67.0,127.0,127.0,127.0,123.0,87.0,-82.0
126.0,127.0,128.0,127.0,127.0,127.0,107.0,128.0,27.0,-119.0,-67.0,127.0,127.0,127.0,123.0,87.0,-82.0
126.0,127.0,128.0,127.0,127.0,127.0,107.0,128.0,27.0,-119.0,-67.0,127.0,127.0,127.0,123.0,87.0,-82.0
127.0,127.0,128.0,127.0,127.0,127.0,107.0,128.0,28.0,-119.0,-67.0,127.0,127.0,127.0,123.0,87.0,-82.0
127.0,127.0,127.0,127.0,127.0,128.0,107.0,128.0,28.0,-119.0,-67.0,127.0,127.0,127.0,123.0,87.0,-82.0
127.0,127.0,128.0,127.0,127.0,128.0,107.0,128.0,28.0,-119.0,-67.0,127.0,127.0,127.0,123.0,87.0,-82.0
127.0,127.0,128.0,127.0,127.0,127.0,113.0,128.0,28.0,-119.0,-67.0,127.0,127.0,127.0,123.0,87.0,-82.0
127.0,127.0,127.0,127.0,127.0,127.0,112.0,128.0,28.0,-119.0,-67.0,127.0,127.0,127.0,123.0,87.0,-82.0
127.0,127.0,127.0,127.0,127.0,127.0,108.0,128.0,28.0,-119.0,-67.0,127.0,127.0,127.0,123.0,87.0,-82.0
127.0,127.0,127.0,127.0,127.0,127.0,107.0,128.0,28.0,-119.0,-67.0,127.0,127.0,127.0,123.0,87.0,-82.0
127.0,127.0,128.0,127.0,127.0,127.0,107.0,128.0,28.0,-119.0,-67.0,127.0,127.0,127.0,123.0,87.0,-82.0
127.0,127.0,128.0,127.0,127.0,127.0,107.0,128.0,28.0,-119.0,-67.0,127.0,127.0,127.0,123.0,87.0,-82.0
127.0,127.0,128.0,127.0,127.0,127.0,107.0,128.0,28.0,-119.0,-67.0,127.0,127.0,127.0,123.0,87.0,-82.0
127.0,127.0,127.0,127.0,127.0,127.0,106.0,128.0,28.0,-120.0,-67.0,127.0,127.0,127.0,123.0,87.0,-82.0
127.0,127.0,127.0,127.0,127.0,127.0,106.0,128.0,28.0,-120.0,-67.0,127.0,127.0,127.0,123.0,87.0,-82.0
127.0,127.0,127.0,127.0,127.0,127.0,114.0,127.0,28.0,-120.0,-67.0,127.0,127.0,127.0,123.0,87.0,-82.0
127.0,127.0,127.0,127.0,127.0,127.0,112.0,127.0,28.0,-120.0,-67.0,127.0,127.0,127.0,123.0,87.0,-82.0
127.0,127.0,127.0,127.0,127.0,127.0,108.0,127.0,28.0,-120.0,-67.0,127.0,127.0,127.0,123.0,87.0,-82.0
126.0,127.0,127.0,127.0,127.0,127.0,107.0,127.0,28.0,-120.0,-67.0,127.0,127.0,127.0,123.0,87.0,-82.0
127.0,127.0,127.0,127.0,127.0,127.0,107.0,127.0,28.0,-120.0,-67.0,127.0,127.0,127.0,123.0,87.0,-82.0
127.0,127.0,127.0,127.0,127.0,127.0,107.0,127.0,28.0,-120.0,-67.0,127.0,127.0,127.0,123.0,87.0,-82.0
127.0,127.0,127.0,127.0,127.0,127.0,106.0,127.0,28.0,-120.0,-67.0,127.0,127.0,127.0,123.0,87.0,-82.0
127.0,127.0,127.0,127.0,127.0,127.0,106.0,127.0,28.0,-120.0,-67.0,127.0,127.0,127.0,123.0,87.0,-82.0
127.0,127.0,127.0,127.0,127.0,128.0,107.0,128.0,28.0,-120.0,-67.0,127.0,127.0,127.0,123.0,87.0,-82.0
127.0,127.0,127.0,127.0,127.0,127.0,112.0,127.0,28.0,-120.0,-67.0,127.0,127.0,127.0,123.0,87.0,-82.0
127.0,127.0,127.0,127.0,127.0,127.0,109.0,127.0,28.0,-120.0,-67.0,127.0,127.0,127.0,123.0,87.0,-82.0
127.0,127.0,127.0,127.0,127.0,127.0,107.0,127.0,28.0,-120.0,-67.0,127.0,127.0,127.0,123.0,87.0,-82.0
127.0,127.0,127.0,127.0,127.0,127.0,106.0,128.0,28.0,-120.0,-67.0,127.0,127.0,127.0,123.0,87.0,-82.0
127.0,127.0,127.0,127.0,127.0,127.0,106.0,128.0,28.0,-120.0,-67.0,127.0,127.0,127.0,123.0,87.0,-82.0
127.0,127.0,127.0,127.0,127.0,127.0,107.0,127.0,28.0,-120.0,-67.0,127.0,127.0,127.0,123.0,87.0,-82.0
127.0,127.0,127.0,127.0,127.0,127.0,107.0,128.0,28.0,-120.0,-67.0,127.0,127.0,127.0,123.0,87.0,-82.0
127.0,127.0,127.0,127.0,127.0,127.0,107.0,127.0,28.0,-120.0,-67.0,127.0,127.0,127.0,123.0,87.0,-82.0
127.0,127.0,127.0,127.0,127.0,128.0,107.0,128.0,28.0,-120.0,-67.0,127.0,127.0,127.0,123.0,87.0,-82.0
127.0,127.0,127.0,127.0,127.0,127.0,112.0,128.0,28.0,-120.0,-67.0,127.0,127.0,127.0,123.0,87.0,-82.0
127.0,127.0,127.0,127.0,127.0,127.0,110.0,128.0,28.0,-120.0,-67.0,127.0,127.0,127.0,123.0,87.0,-82.0
127.0,127.0,127.0,127.0,127.0,127.0,109.0,128.0,28.0,-120.0,-67.0,127.0,127.0,127.0,123.0,87.0,-82.0
127.0,127.0,127.0,127.0,127.0,127.0,107.0,128.0,28.0,-120.0,-67.0,127.0,127.0,127.0,123.0,87.0,-82.0
127.0,127.0,127.0,127.0,127.0,127.0,107.0,128.0,28.0,-120.0,-67.0,127.0,127.0,127.0,123.0,87.0,-82.0
127.0,127.0,127.0,127.0,127.0,127.0,107.0,128.0,28.0,-120.0,-67.0,127.0,127.0,127.0,123.0,87.0,-82.0
127.0,127.0,127.0,127.0,127.0,127.0,107.0,128.0,28.0,-120.0,-67.0,127.0,127.0,127.0,123.0,87.0,-82.0
127.0,127.0,127.0,127.0,127.0,127.0,107.0,128.0,28.0,-120.0,-67.0,127.0,127.0,127.0,123.0,87.0,-82.0
127.0,127.0,127.0,127.0,127.0,127.0,107.0,128.0,28.0,-120.0,-67.0,127.0,127.0,127.0,123.0,87.0,-82.0
127.0,127.0,127.0,127.0,127.0,128.0,107.0,128.0,28.0,-120.0,-67.0,127.0,127.0,127.0,123.0,87.0,-82.0
127.0,127.0,127.0,127.0,127.0,128.0,107.0,128.0,28.0,-120.0,-67.0,127.0,127.0,127.0,123.0,87.0,-82.0
127.0,127.0,127.0,127.0,127.0,128.0,107.0,128.0,28.0,-120.0,-67.0,127.0,127.0,127.0,123.0,87.0,-82.0
127.0,127.0,127.0,127.0,127.0,128.0,107.0,128.0,28.0,-120.0,-67.0,127.0,127.0,127.0,123.0,87.0,-82.0
127.0,127.0,127.0,127.0,127.0,128.0,106.0,128.0,28.0,-120.0,-67.0,127.0,127.0,127.0,123.0,87.0,-82.0
127.0,127.0,127.0,127.0,127.0,128.0,106.0,128.0,28.0,-120.0,-67.0,127.0,127.0,127.0,123.0,87.0,-82.0
127.0,127.0,127.0,127.0,127.0,127.0,106.0,128.0,28.0,-120.0,-67.0,127.0,127.0,127.0,123.0,87.0,-82.0
127.0,127.0,127.0,127.0,127.0,127.0,107.0,128.0,28.0,-120.0,-67.0,127.0,127.0,127.0,123.0,87.0,-82.0
127.0,127.0,127.0,127.0,126.0,127.0,107.0,128.0,28.0,-120.0,-67.0,127.0,127.0,127.0,123.0,87.0,-82.0
127.0,127.0,127.0,127.0,126.0,127.0,106.0,128.0,28.0,-120.0,-67.0,127.0,127.0,127.0,123.0,87.0,-82.0
127.0,127.0,127.0,127.0,127.0,128.0,107.0,128.0,28.0,-120.0,-67.0,127.0,127.0,127.0,123.0,87.0,-82.0
127.0,127.0,127.0,127.0,127.0,127.0,107.0,128.0,28.0,-120.0,-67.0,127.0,127.0,127.0,123.0,87.0,-82.0
127.0,127.0,127.0,127.0,127.0,127.0,107.0,128.0,28.0,-120.0,-67.0,127.0,127.0,127.0,123.0,87.0,-82.0
127.0,127.0,127.0,127.0,127.0,127.0,106.0,128.0,28.0,-120.0,-67.0,127.0,127.0,127.0,123.0,87.0,-82.0
127.0,127.0,127.0,127.0,127.0,127.0,106.0,128.0,28.0,-120.0,-67.0,127.0,127.0,127.0,123.0,87.0,-82.0
127.0,127.0,127.0,127.0,127.0,127.0,107.0,128.0,28.0,-120.0,-67.0,127.0,127.0,127.0,123.0,87.0,-82.0
127.0,127.0,127.0,127.0,127.0,127.0,107.0,128.0,28.0,-120.0,-67.0,127.0,127.0,127.0,123.0,87.0,-82.0
127.0,127.0,127.0,127.0,127.0,127.0,106.0,128.0,28.0,-120.0,-67.0,127.0,127.0,127.0,123.0,87.0,-82.0
127.0,127.0,127.0,127.0,127.0,128.0,107.0,128.0,28.0,-120.0,-67.0,127.0,127.0,127.0,123.0,87.0,-82.0
127.0,127.0,127.0,127.0,127.0,127.0,108.0,127.0,28.0,-120.0,-67.0,127.0,127.0,127.0,123.0,87.0,-82.0
127.0,126.0,127.0,127.0,127.0,127.0,106.0,128.0,28.0,-120.0,-67.0,127.0,127.0,127.0,123.0,87.0,-82.0
127.0,127.0,127.0,127.0,127.0,127.0,108.0,128.0,28.0,-120.0,-67.0,127.0,127.0,127.0,123.0,87.0,-82.0
127.0,127.0,127.0,127.0,127.0,127.0,107.0,128.0,28.0,-120.0,-67.0,127.0,127.0,127.0,123.0,87.0,-82.0
127.0,127.0,127.0,127.0,127.0,127.0,107.0,128.0,28.0,-120.0,-67.0,127.0,127.0,127.0,123.0,87.0,-82.0
127.0,127.0,127.0,127.0,127.0,127.0,107.0,128.0,28.0,-120.0,-67.0,127.0,127.0,127.0,123.0,87.0,-82.0
127.0,127.0,127.0,127.0,127.0,127.0,106.0,128.0,28.0,-120.0,-67.0,127.0,127.0,127.0,123.0,87.0,-82.0
127.0,127.0,127.0,127.0,127.0,127.0,106.0,128.0,28.0,-120.0,-67.0,127.0,127.0,127.0,123.0,87.0,-82.0
126.0,127.0,127.0,127.0,127.0,127.0,107.0,128.0,28.0,-120.0,-67.0,127.0,127.0,127.0,123.0,87.0,-82.0
127.0,127.0,127.0,127.0,127.0,127.0,114.0,127.0,28.0,-120.0,-67.0,127.0,127.0,127.0,123.0,87.0,-82.0
127.0,127.0,127.0,127.0,127.0,127.0,113.0,127.0,28.0,-120.0,-67.0,127.0,127.0,127.0,123.0,87.0,-82.0
127.0,127.0,127.0,127.0,127.0,127.0,113.0,127.0,28.0,-120.0,-67.0,127.0,127.0,127.0,123.0,87.0,-82.0
126.0,127.0,127.0,127.0,126.0,127.0,107.0,128.0,28.0,-120.0,-67.0,127.0,127.0,127.0,123.0,87.0,-82.0
126.0,127.0,127.0,127.0,126.0,127.0,107.0,128.0,28.0,-120.0,-67.0,127.0,127.0,127.0,123.0,87.0,-82.0
127.0,126.0,127.0,127.0,126.0,127.0,106.0,128.0,28.0,-120.0,-67.0,127.0,127.0,127.0,123.0,87.0,-82.0
127.0,126.0,127.0,127.0,126.0,127.0,106.0,128.0,28.0,-120.0,-67.0,127.0,127.0,127.0,123.0,87.0,-82.0
126.0,126.0,127.0,127.0,126.0,127.0,106.0,127.0,28.0,-120.0,-67.0,127.0,127.0,127.0,123.0,87.0,-82.0
127.0,126.0,127.0,127.0,126.0,127.0,105.0,127.0,28.0,-120.0,-67.0,127.0,127.0,127.0,123.0,87.0,-82.0
126.0,127.0,127.0,127.0,127.0,128.0,107.0,128.0,28.0,-120.0,-67.0,127.0,127.0,127.0,123.0,87.0,-82.0
126.0,127.0,127.0,127.0,127.0,128.0,106.0,128.0,28.0,-120.0,-67.0,127.0,127.0,127.0,123.0,87.0,-82.0
126.0,127.0,127.0,127.0,127.0,128.0,106.0,128.0,28.0,-120.0,-67.0,127.0,127.0,127.0,123.0,87.0,-82.0
126.0,127.0,127.0,127.0,127.0,127.0,106.0,128.0,28.0,-120.0,-67.0,127.0,127.0,127.0,123.0,87.0,-82.0
127.0,127.0,127.0,126.0,126.0,127.0,106.0,127.0,28.0,-120.0,-67.0,127.0,127.0,127.0,123.0,87.0,-82.0
127.0,126.0,127.0,126.0,126.0,127.0,106.0,127.0,28.0,-120.0,-67.0,127.0,127.0,127.0,123.0,87.0,-82.0
127.0,126.0,127.0,126.0,126.0,127.0,111.0,127.0,28.0,-120.0,-67.0,127.0,127.0,127.0,123.0,87.0,-82.0
127.0,127.0,127.0,126.0,126.0,127.0,112.0,127.0,28.0,-120.0,-67.0,127.0,127.0,127.0,123.0,87.0,-82.0
127.0,127.0,127.0,125.0,126.0,127.0,113.0,127.0,28.0,-120.0,-67.0,127.0,127.0,127.0,123.0,87.0,-82.0
127.0,127.0,128.0,127.0,127.0,128.0,106.0,128.0,28.0,-120.0,-67.0,127.0,127.0,127.0,123.0,87.0,-82.0
127.0,127.0,128.0,127.0,126.0,128.0,106.0,128.0,28.0,-120.0,-67.0,127.0,127.0,127.0,123.0,87.0,-82.0
127.0,127.0,128.0,126.0,126.0,127.0,106.0,127.0,28.0,-120.0,-67.0,127.0,127.0,127.0,123.0,87.0,-82.0
127.0,127.0,127.0,126.0,126.0,127.0,107.0,127.0,28.0,-120.0,-67.0,127.0,127.0,127.0,123.0,87.0,-82.0
127.0,127.0,127.0,126.0,126.0,127.0,107.0,127.0,28.0,-120.0,-67.0,127.0,127.0,127.0,123.0,87.0,-82.0
126.0,126.0,128.0,115.0,125.0,127.0,113.0,124.0,28.0,-120.0,-67.0,127.0,127.0,127.0,123.0,87.0,-82.0
126.0,127.0,129.0,115.0,125.0,127.0,113.0,124.0,28.0,-120.0,-67.0,127.0,127.0,127.0,123.0,87.0,-82.0
126.0,127.0,131.0,115.0,125.0,127.0,113.0,124.0,28.0,-120.0,-67.0,127.0,127.0,127.0,123.0,87.0,-82.0
126.0,127.0,132.0,115.0,125.0,127.0,113.0,124.0,28.0,-120.0,-67.0,127.0,127.0,127.0,123.0,87.0,-82.0
125.0,125.0,122.0,121.0,125.0,127.0,106.0,125.0,28.0,-120.0,-67.0,127.0,127.0,127.0,123.0,87.0,-82.0
124.0,125.0,122.0,119.0,125.0,127.0,108.0,125.0,28.0,-120.0,-67.0,127.0,127.0,127.0,123.0,87.0,-82.0
124.0,125.0,123.0,118.0,125.0,127.0,106.0,125.0,28.0,-120.0,-67.0,127.0,127.0,127.0,123.0,87.0,-82.0
125.0,125.0,124.0,117.0,125.0,127.0,110.0,125.0,28.0,-120.0,-67.0,127.0,127.0,127.0,123.0,87.0,-82.0
125.0,126.0,125.0,116.0,125.0,127.0,113.0,125.0,28.0,-120.0,-67.0,127.0,127.0,127.0,123.0,87.0,-82.0
126.0,126.0,126.0,116.0,125.0,127.0,113.0,125.0,28.0,-120.0,-67.0,127.0,127.0,127.0,123.0,87.0,-82.0
124.0,129.0,216.0,72.0,130.0,126.0,112.0,119.0,27.0,-120.0,-67.0,127.0,127.0,127.0,123.0,87.0,-82.0
124.0,129.0,218.0,72.0,130.0,126.0,113.0,119.0,27.0,-120.0,-67.0,127.0,127.0,127.0,123.0,87.0,-82.0
125.0,129.0,219.0,72.0,130.0,126.0,113.0,119.0,27.0,-120.0,-67.0,127.0,127.0,127.0,123.0,87.0,-82.0
121.0,129.0,198.0,88.0,130.0,126.0,111.0,120.0,27.0,-120.0,-67.0,127.0,127.0,127.0,123.0,87.0,-82.0
121.0,129.0,200.0,84.0,130.0,126.0,111.0,119.0,27.0,-120.0,-67.0,127.0,127.0,127.0,123.0,87.0,-82.0
121.0,129.0,203.0,80.0,130.0,126.0,111.0,119.0,27.0,-120.0,-67.0,127.0,127.0,127.0,123.0,87.0,-82.0
121.0,129.0,205.0,77.0,130.0,126.0,112.0,118.0,27.0,-120.0,-67.0,127.0,127.0,127.0,123.0,87.0,-82.0
121.0,129.0,208.0,74.0,130.0,126.0,112.0,118.0,27.0,-120.0,-67.0,127.0,127.0,127.0,123.0,87.0,-82.0
122.0,129.0,210.0,73.0,130.0,126.0,112.0,119.0,27.0,-120.0,-67.0,127.0,127.0,127.0,123.0,87.0,-82.0
122.0,129.0,213.0,73.0,130.0,126.0,112.0,119.0,27.0,-120.0,-67.0,127.0,127.0,127.0,123.0,87.0,-82.0
120.0,136.0,204.0,139.0,139.0,132.0,115.0,131.0,27.0,-120.0,-66.0,127.0,127.0,127.0,123.0,87.0,-82.0
121.0,135.0,197.0,140.0,139.0,132.0,116.0,133.0,27.0,-120.0,-66.0,127.0,127.0,127.0,123.0,87.0,-82.0
118.0,135.0,242.0,135.0,136.0,130.0,112.0,124.0,27.0,-120.0,-66.0,127.0,127.0,127.0,123.0,87.0,-82.0
118.0,135.0,239.0,136.0,136.0,131.0,112.0,124.0,27.0,-120.0,-66.0,127.0,127.0,127.0,123.0,87.0,-82.0
118.0,135.0,236.0,137.0,136.0,131.0,112.0,125.0,27.0,-120.0,-66.0,127.0,127.0,127.0,123.0,87.0,-82.0
118.0,136.0,232.0,138.0,137.0,131.0,113.0,126.0,27.0,-120.0,-66.0,127.0,127.0,127.0,123.0,87.0,-82.0
117.0,136.0,228.0,138.0,137.0,131.0,113.0,126.0,27.0,-120.0,-66.0,127.0,127.0,127.0,123.0,87.0,-82.0
118.0,136.0,222.0,139.0,138.0,132.0,114.0,127.0,27.0,-120.0,-66.0,127.0,127.0,127.0,123.0,87.0,-82.0
119.0,136.0,216.0,139.0,138.0,132.0,114.0,127.0,27.0,-120.0,-66.0,127.0,127.0,127.0,123.0,87.0,-82.0
120.0,136.0,210.0,139.0,138.0,132.0,115.0,129.0,27.0,-120.0,-66.0,127.0,127.0,127.0,123.0,87.0,-82.0
114.0,125.0,154.0,172.0,131.0,71.0,68.0,166.0,27.0,-122.0,-65.0,127.0,127.0,127.0,123.0,87.0,-82.0
108.0,132.0,174.0,172.0,131.0,97.0,86.0,166.0,27.0,-122.0,-65.0,127.0,127.0,127.0,123.0,87.0,-82.0
109.0,132.0,172.0,171.0,131.0,95.0,85.0,166.0,27.0,-122.0,-65.0,127.0,127.0,127.0,123.0,87.0,-82.0
110.0,131.0,169.0,171.0,130.0,92.0,84.0,167.0,27.0,-122.0,-65.0,127.0,127.0,127.0,123.0,87.0,-82.0
111.0,130.0,167.0,171.0,130.0,89.0,80.0,168.0,27.0,-122.0,-65.0,127.0,127.0,127.0,123.0,87.0,-82.0
111.0,130.0,165.0,170.0,130.0,86.0,78.0,168.0,27.0,-122.0,-65.0,127.0,127.0,127.0,123.0,87.0,-82.0
112.0,129.0,163.0,169.0,130.0,84.0,78.0,168.0,27.0,-122.0,-65.0,127.0,127.0,127.0,123.0,87.0,-82.0
112.0,128.0,160.0,168.0,129.0,81.0,74.0,168.0,27.0,-122.0,-65.0,127.0,127.0,127.0,123.0,87.0,-82.0
113.0,127.0,158.0,168.0,130.0,78.0,73.0,167.0,27.0,-122.0,-65.0,127.0,127.0,127.0,123.0,87.0,-82.0
114.0,126.0,156.0,169.0,130.0,74.0,70.0,167.0,27.0,-122.0,-65.0,127.0,127.0,127.0,123.0,87.0,-82.0
126.0,120.0,102.0,254.0,129.0,23.0,39.0,128.0,27.0,-124.0,-68.0,-128.0,127.0,127.0,123.0,87.0,-82.0
127.0,120.0,98.0,254.0,128.0,26.0,38.0,129.0,27.0,-124.0,-68.0,-128.0,127.0,127.0,123.0,87.0,-82.0
127.0,120.0,94.0,254.0,127.0,27.0,40.0,130.0,27.0,-124.0,-68.0,-128.0,127.0,127.0,123.0,87.0,-82.0
127.0,120.0,90.0,254.0,126.0,29.0,42.0,129.0,27.0,-124.0,-68.0,-128.0,127.0,127.0,123.0,87.0,-82.0
127.0,121.0,87.0,254.0,124.0,31.0,44.0,129.0,27.0,-124.0,-68.0,-128.0,127.0,127.0,123.0,87.0,-82.0
127.0,122.0,84.0,254.0,124.0,32.0,42.0,129.0,27.0,-124.0,-68.0,-128.0,127.0,127.0,123.0,87.0,-82.0
127.0,123.0,81.0,254.0,123.0,34.0,43.0,129.0,27.0,-124.0,-68.0,-128.0,127.0,127.0,123.0,87.0,-82.0
127.0,124.0,79.0,254.0,122.0,36.0,46.0,129.0,27.0,-124.0,-68.0,-128.0,127.0,127.0,123.0,87.0,-82.0
128.0,125.0,78.0,254.0,122.0,38.0,48.0,129.0,27.0,-124.0,-68.0,-128.0,127.0,127.0,123.0,87.0,-82.0
128.0,126.0,77.0,254.0,121.0,40.0,46.0,129.0,27.0,-124.0,-68.0,-128.0,127.0,127.0,123.0,87.0,-82.0
127.0,140.0,22.0,246.0,126.0,0.0,22.0,132.0,29.0,-122.0,-66.0,-127.0,127.0,127.0,123.0,87.0,-82.0
126.0,140.0,23.0,245.0,126.0,0.0,22.0,132.0,29.0,-122.0,-66.0,-127.0,127.0,127.0,123.0,87.0,-82.0
126.0,140.0,25.0,244.0,126.0,0.0,22.0,132.0,29.0,-122.0,-66.0,-127.0,127.0,127.0,123.0,87.0,-82.0
126.0,140.0,28.0,242.0,126.0,0.0,22.0,131.0,29.0,-122.0,-66.0,-127.0,127.0,127.0,123.0,87.0,-82.0
126.0,139.0,30.0,241.0,125.0,0.0,22.0,131.0,29.0,-122.0,-66.0,-127.0,127.0,127.0,123.0,87.0,-82.0
126.0,139.0,31.0,239.0,125.0,0.0,22.0,130.0,29.0,-122.0,-66.0,-127.0,127.0,127.0,123.0,87.0,-82.0
126.0,138.0,32.0,238.0,125.0,0.0,22.0,130.0,29.0,-122.0,-66.0,-127.0,127.0,127.0,123.0,87.0,-82.0
126.0,139.0,33.0,237.0,126.0,0.0,22.0,130.0,29.0,-122.0,-66.0,-127.0,127.0,127.0,123.0,87.0,-82.0
126.0,138.0,33.0,236.0,126.0,0.0,22.0,130.0,29.0,-122.0,-66.0,-127.0,127.0,127.0,123.0,87.0,-82.0
127.0,140.0,21.0,248.0,126.0,0.0,22.0,132.0,29.0,-122.0,-66.0,-127.0,127.0,127.0,123.0,87.0,-82.0
122.0,125.0,100.0,254.0,122.0,0.0,22.0,132.0,28.0,-120.0,-65.0,-127.0,126.0,127.0,123.0,87.0,-82.0
123.0,125.0,103.0,254.0,122.0,0.0,22.0,132.0,28.0,-120.0,-65.0,-127.0,126.0,127.0,123.0,87.0,-82.0
124.0,125.0,106.0,254.0,121.0,0.0,22.0,131.0,28.0,-120.0,-65.0,-127.0,126.0,127.0,123.0,87.0,-82.0
125.0,124.0,108.0,254.0,121.0,0.0,22.0,131.0,28.0,-120.0,-65.0,-127.0,126.0,127.0,123.0,87.0,-82.0
126.0,124.0,110.0,254.0,120.0,0.0,22.0,130.0,28.0,-120.0,-65.0,-127.0,126.0,127.0,123.0,87.0,-82.0
127.0,123.0,112.0,254.0,121.0,0.0,22.0,130.0,28.0,-120.0,-65.0,-127.0,126.0,127.0,123.0,87.0,-82.0
128.0,124.0,113.0,254.0,121.0,0.0,22.0,130.0,28.0,-120.0,-65.0,-127.0,126.0,127.0,123.0,87.0,-82.0
129.0,124.0,114.0,254.0,122.0,0.0,22.0,129.0,28.0,-120.0,-65.0,-127.0,126.0,127.0,123.0,87.0,-82.0
122.0,125.0,96.0,254.0,123.0,0.0,22.0,133.0,28.0,-120.0,-65.0,-127.0,126.0,127.0,123.0,87.0,-82.0
122.0,125.0,98.0,254.0,122.0,0.0,22.0,132.0,28.0,-120.0,-65.0,-127.0,126.0,127.0,123.0,87.0,-82.0
132.0,126.0,118.0,223.0,131.0,0.0,22.0,135.0,27.0,-114.0,-64.0,-127.0,126.0,127.0,123.0,87.0,-82.0
132.0,126.0,117.0,219.0,131.0,0.0,22.0,136.0,27.0,-114.0,-64.0,-127.0,126.0,127.0,123.0,87.0,-82.0
132.0,126.0,116.0,215.0,131.0,0.0,22.0,136.0,27.0,-114.0,-64.0,-127.0,126.0,127.0,123.0,87.0,-82.0
132.0,126.0,115.0,211.0,131.0,0.0,22.0,137.0,27.0,-114.0,-64.0,-127.0,126.0,127.0,123.0,87.0,-82.0
132.0,125.0,114.0,207.0,130.0,0.0,22.0,137.0,27.0,-114.0,-64.0,-127.0,126.0,127.0,123.0,87.0,-82.0
132.0,125.0,112.0,202.0,130.0,0.0,22.0,137.0,27.0,-114.0,-64.0,-127.0,126.0,127.0,123.0,87.0,-82.0
132.0,124.0,111.0,199.0,129.0,0.0,22.0,138.0,27.0,-114.0,-64.0,-127.0,126.0,127.0,123.0,87.0,-82.0
132.0,126.0,120.0,229.0,130.0,0.0,22.0,134.0,27.0,-114.0,-64.0,-127.0,126.0,127.0,123.0,87.0,-82.0
133.0,126.0,120.0,228.0,130.0,0.0,22.0,134.0,27.0,-114.0,-64.0,-127.0,126.0,127.0,123.0,87.0,-82.0
133.0,126.0,119.0,226.0,131.0,0.0,22.0,135.0,27.0,-114.0,-64.0,-127.0,126.0,127.0,123.0,87.0,-82.0
121.0,129.0,113.0,120.0,132.0,0.0,22.0,139.0,28.0,-114.0,-67.0,127.0,127.0,127.0,123.0,87.0,-82.0
122.0,129.0,112.0,119.0,132.0,0.0,22.0,140.0,28.0,-114.0,-67.0,127.0,127.0,127.0,123.0,87.0,-82.0
122.0,129.0,110.0,118.0,133.0,0.0,22.0,141.0,28.0,-114.0,-67.0,127.0,127.0,127.0,123.0,87.0,-82.0
122.0,128.0,110.0,117.0,133.0,0.0,22.0,142.0,28.0,-114.0,-67.0,127.0,127.0,127.0,123.0,87.0,-82.0
122.0,128.0,109.0,117.0,133.0,0.0,22.0,143.0,28.0,-114.0,-67.0,127.0,127.0,127.0,123.0,87.0,-82.0
123.0,128.0,109.0,116.0,133.0,0.0,22.0,143.0,28.0,-114.0,-67.0,127.0,127.0,127.0,123.0,87.0,-82.0
121.0,128.0,119.0,126.0,131.0,0.0,22.0,137.0,28.0,-114.0,-67.0,127.0,127.0,127.0,123.0,87.0,-82.0
121.0,128.0,118.0,125.0,132.0,0.0,22.0,137.0,28.0,-114.0,-67.0,127.0,127.0,127.0,123.0,87.0,-82.0
121.0,129.0,117.0,123.0,132.0,0.0,22.0,137.0,28.0,-114.0,-67.0,127.0,127.0,127.0,123.0,87.0,-82.0
121.0,129.0,115.0,122.0,132.0,0.0,22.0,138.0,28.0,-114.0,-67.0,127.0,127.0,127.0,123.0,87.0,-82.0
125.0,128.0,113.0,117.0,113.0,0.0,22.0,141.0,27.0,-118.0,-67.0,-128.0,127.0,127.0,123.0,87.0,-82.0
125.0,128.0,112.0,117.0,113.0,0.0,22.0,141.0,27.0,-118.0,-67.0,-128.0,127.0,127.0,123.0,87.0,-82.0
125.0,128.0,112.0,118.0,113.0,0.0,22.0,140.0,27.0,-118.0,-67.0,-128.0,127.0,127.0,123.0,87.0,-82.0
126.0,129.0,113.0,118.0,113.0,0.0,22.0,140.0,27.0,-118.0,-67.0,-128.0,127.0,127.0,123.0,87.0,-82.0
127.0,130.0,114.0,118.0,114.0,0.0,22.0,140.0,27.0,-118.0,-67.0,-128.0,127.0,127.0,123.0,87.0,-82.0
126.0,126.0,115.0,115.0,114.0,0.0,22.0,143.0,27.0,-118.0,-67.0,-128.0,127.0,127.0,123.0,87.0,-82.0
126.0,126.0,115.0,116.0,113.0,0.0,22.0,142.0,27.0,-118.0,-67.0,-128.0,127.0,127.0,123.0,87.0,-82.0
125.0,127.0,115.0,116.0,113.0,0.0,22.0,142.0,27.0,-118.0,-67.0,-128.0,127.0,127.0,123.0,87.0,-82.0
125.0,127.0,114.0,117.0,113.0,0.0,22.0,142.0,27.0,-118.0,-67.0,-128.0,127.0,127.0,123.0,87.0,-82.0
125.0,127.0,113.0,117.0,113.0,0.0,22.0,141.0,27.0,-118.0,-67.0,-128.0,127.0,127.0,123.0,87.0,-82.0
129.0,127.0,107.0,123.0,124.0,0.0,22.0,133.0,28.0,-118.0,-66.0,-127.0,127.0,127.0,123.0,87.0,-82.0
129.0,127.0,109.0,123.0,124.0,0.0,22.0,134.0,28.0,-118.0,-66.0,-127.0,127.0,127.0,123.0,87.0,-82.0
129.0,127.0,110.0,123.0,124.0,0.0,22.0,134.0,28.0,-118.0,-66.0,-127.0,127.0,127.0,123.0,87.0,-82.0
129.0,127.0,111.0,123.0,124.0,0.0,22.0,134.0,28.0,-118.0,-66.0,-127.0,127.0,127.0,123.0,87.0,-82.0
129.0,129.0,109.0,126.0,125.0,0.0,22.0,132.0,28.0,-118.0,-66.0,-127.0,127.0,127.0,123.0,87.0,-82.0
129.0,128.0,109.0,125.0,125.0,0.0,22.0,132.0,28.0,-118.0,-66.0,-127.0,127.0,127.0,123.0,87.0,-82.0
129.0,128.0,108.0,125.0,125.0,0.0,22.0,132.0,28.0,-118.0,-66.0,-127.0,127.0,127.0,123.0,87.0,-82.0
129.0,128.0,108.0,124.0,125.0,0.0,22.0,132.0,28.0,-118.0,-66.0,-127.0,127.0,127.0,123.0,87.0,-82.0
129.0,128.0,107.0,124.0,125.0,0.0,22.0,132.0,28.0,-118.0,-66.0,-127.0,127.0,127.0,123.0,87.0,-82.0
129.0,127.0,107.0,124.0,124.0,0.0,22.0,133.0,28.0,-118.0,-66.0,-127.0,127.0,127.0,123.0,87.0,-82.0
128.0,123.0,124.0,128.0,128.0,0.0,22.0,139.0,29.0,-115.0,-66.0,-128.0,127.0,127.0,123.0,87.0,-82.0
129.0,124.0,125.0,127.0,128.0,0.0,22.0,139.0,29.0,-115.0,-66.0,-128.0,127.0,127.0,123.0,87.0,-82.0
129.0,125.0,126.0,127.0,129.0,0.0,22.0,139.0,29.0,-115.0,-66.0,-128.0,127.0,127.0,123.0,87.0,-82.0
127.0,120.0,119.0,116.0,125.0,0.0,22.0,136.0,29.0,-115.0,-66.0,-128.0,127.0,127.0,123.0,87.0,-82.0
128.0,121.0,119.0,118.0,125.0,0.0,22.0,136.0,29.0,-115.0,-66.0,-128.0,127.0,127.0,123.0,87.0,-82.0
128.0,121.0,120.0,121.0,126.0,0.0,22.0,136.0,29.0,-115.0,-66.0,-128.0,127.0,127.0,123.0,87.0,-82.0
128.0,122.0,122.0,123.0,126.0,0.0,22.0,137.0,29.0,-115.0,-66.0,-128.0,127.0,127.0,123.0,87.0,-82.0
128.0,122.0,123.0,125.0,127.0,0.0,22.0,138.0,29.0,-115.0,-66.0,-128.0,127.0,127.0,123.0,87.0,-82.0
128.0,122.0,123.0,127.0,127.0,0.0,22.0,138.0,29.0,-115.0,-66.0,-128.0,127.0,127.0,123.0,87.0,-82.0
128.0,123.0,124.0,127.0,127.0,0.0,22.0,139.0,29.0,-115.0,-66.0,-128.0,127.0,127.0,123.0,87.0,-82.0
128.0,123.0,126.0,111.0,126.0,0.0,22.0,140.0,27.0,-114.0,-68.0,127.0,127.0,127.0,123.0,87.0,-82.0
128.0,122.0,126.0,111.0,125.0,0.0,22.0,140.0,27.0,-114.0,-68.0,127.0,127.0,127.0,123.0,87.0,-82.0
127.0,124.0,128.0,115.0,128.0,0.0,22.0,140.0,27.0,-114.0,-68.0,127.0,127.0,127.0,123.0,87.0,-82.0
128.0,124.0,129.0,114.0,128.0,0.0,22.0,140.0,27.0,-114.0,-68.0,127.0,127.0,127.0,123.0,87.0,-82.0
128.0,125.0,129.0,114.0,128.0,0.0,22.0,140.0,27.0,-114.0,-68.0,127.0,127.0,127.0,123.0,87.0,-82.0
128.0,125.0,129.0,113.0,128.0,0.0,22.0,140.0,27.0,-114.0,-68.0,127.0,127.0,127.0,123.0,87.0,-82.0
128.0,125.0,129.0,113.0,127.0,0.0,22.0,140.0,27.0,-114.0,-68.0,127.0,127.0,127.0,123.0,87.0,-82.0
128.0,124.0,128.0,112.0,127.0,0.0,22.0,140.0,27.0,-114.0,-68.0,127.0,127.0,127.0,123.0,87.0,-82.0
128.0,124.0,127.0,111.0,126.0,0.0,22.0,140.0,27.0,-114.0,-68.0,127.0,127.0,127.0,123.0,87.0,-82.0
128.0,123.0,126.0,111.0,126.0,0.0,22.0,140.0,27.0,-114.0,-68.0,127.0,127.0,127.0,123.0,87.0,-82.0
128.0,124.0,128.0,118.0,127.0,0.0,22.0,137.0,25.0,-114.0,-68.0,127.0,127.0,127.0,123.0,87.0,-82.0
128.0,126.0,128.0,118.0,127.0,0.0,22.0,137.0,25.0,-114.0,-68.0,127.0,127.0,127.0,123.0,87.0,-82.0
128.0,126.0,128.0,118.0,127.0,0.0,22.0,137.0,25.0,-114.0,-68.0,127.0,127.0,127.0,123.0,87.0,-82.0
128.0,126.0,128.0,118.0,127.0,0.0,22.0,137.0,25.0,-114.0,-68.0,127.0,127.0,127.0,123.0,87.0,-82.0
128.0,125.0,128.0,118.0,127.0,0.0,22.0,137.0,25.0,-114.0,-68.0,127.0,127.0,127.0,123.0,87.0,-82.0
128.0,125.0,128.0,118.0,127.0,0.0,22.0,136.0,25.0,-114.0,-68.0,127.0,127.0,127.0,123.0,87.0,-82.0
128.0,125.0,128.0,118.0,127.0,0.0,22.0,136.0,25.0,-114.0,-68.0,127.0,127.0,127.0,123.0,87.0,-82.0
128.0,125.0,128.0,119.0,127.0,0.0,22.0,136.0,25.0,-114.0,-68.0,127.0,127.0,127.0,123.0,87.0,-82.0
128.0,124.0,128.0,119.0,127.0,0.0,22.0,136.0,25.0,-114.0,-68.0,127.0,127.0,127.0,123.0,87.0,-82.0
128.0,124.0,128.0,119.0,127.0,0.0,22.0,137.0,25.0,-114.0,-68.0,127.0,127.0,127.0,123.0,87.0,-82.0
127.0,125.0,129.0,126.0,130.0,51.0,53.0,132.0,24.0,-115.0,-68.0,127.0,127.0,127.0,123.0,87.0,-82.0
127.0,125.0,129.0,126.0,129.0,55.0,57.0,132.0,24.0,-115.0,-68.0,127.0,127.0,127.0,123.0,87.0,-82.0
127.0,125.0,129.0,126.0,129.0,59.0,59.0,132.0,24.0,-115.0,-68.0,127.0,127.0,127.0,123.0,87.0,-82.0
127.0,126.0,130.0,126.0,129.0,64.0,62.0,132.0,24.0,-115.0,-68.0,127.0,127.0,127.0,123.0,87.0,-82.0
127.0,126.0,130.0,125.0,129.0,69.0,65.0,132.0,24.0,-115.0,-68.0,127.0,127.0,127.0,123.0,87.0,-82.0
128.0,126.0,130.0,125.0,129.0,73.0,67.0,132.0,24.0,-115.0,-68.0,127.0,127.0,127.0,123.0,87.0,-82.0
128.0,126.0,131.0,125.0,128.0,77.0,70.0,132.0,24.0,-115.0,-68.0,127.0,127.0,127.0,123.0,87.0,-82.0
128.0,126.0,131.0,124.0,128.0,81.0,73.0,132.0,24.0,-115.0,-68.0,127.0,127.0,127.0,123.0,87.0,-82.0
128.0,126.0,132.0,124.0,128.0,84.0,76.0,132.0,24.0,-115.0,-68.0,127.0,127.0,127.0,123.0,87.0,-82.0
128.0,126.0,132.0,124.0,127.0,89.0,79.0,131.0,24.0,-115.0,-68.0,127.0,127.0,127.0,123.0,87.0,-82.0
128.0,125.0,130.0,116.0,126.0,181.0,150.0,130.0,25.0,-115.0,-67.0,127.0,127.0,127.0,123.0,87.0,-82.0
128.0,125.0,130.0,116.0,126.0,181.0,151.0,130.0,25.0,-115.0,-67.0,127.0,127.0,127.0,123.0,87.0,-82.0
128.0,125.0,129.0,116.0,126.0,183.0,151.0,130.0,25.0,-115.0,-67.0,127.0,127.0,127.0,123.0,87.0,-82.0
128.0,125.0,130.0,116.0,126.0,184.0,148.0,130.0,25.0,-115.0,-67.0,127.0,127.0,127.0,123.0,87.0,-82.0
128.0,125.0,129.0,116.0,126.0,184.0,149.0,130.0,25.0,-115.0,-67.0,127.0,127.0,127.0,123.0,87.0,-82.0
128.0,125.0,129.0,116.0,127.0,185.0,149.0,130.0,25.0,-115.0,-67.0,127.0,127.0,127.0,123.0,87.0,-82.0
128.0,125.0,129.0,116.0,127.0,185.0,150.0,130.0,25.0,-115.0,-67.0,127.0,127.0,127.0,123.0,87.0,-82.0
128.0,125.0,129.0,116.0,127.0,186.0,151.0,130.0,25.0,-115.0,-67.0,127.0,127.0,127.0,123.0,87.0,-82.0
128.0,125.0,129.0,116.0,127.0,186.0,152.0,130.0,25.0,-115.0,-67.0,127.0,127.0,127.0,123.0,87.0,-82.0
128.0,125.0,130.0,116.0,126.0,180.0,149.0,130.0,25.0,-115.0,-67.0,127.0,127.0,127.0,123.0,87.0,-82.0
129.0,125.0,127.0,108.0,126.0,199.0,158.0,131.0,27.0,-116.0,-66.0,127.0,127.0,127.0,123.0,87.0,-82.0
129.0,125.0,127.0,107.0,126.0,200.0,158.0,130.0,27.0,-116.0,-66.0,127.0,127.0,127.0,123.0,87.0,-82.0
129.0,125.0,127.0,107.0,126.0,201.0,159.0,131.0,27.0,-116.0,-66.0,127.0,127.0,127.0,123.0,87.0,-82.0
129.0,125.0,127.0,107.0,126.0,201.0,161.0,131.0,27.0,-116.0,-66.0,127.0,127.0,127.0,123.0,87.0,-82.0
129.0,125.0,127.0,106.0,126.0,202.0,161.0,131.0,27.0,-116.0,-66.0,127.0,127.0,127.0,123.0,87.0,-82.0
129.0,125.0,127.0,106.0,126.0,202.0,161.0,131.0,27.0,-116.0,-66.0,127.0,127.0,127.0,123.0,87.0,-82.0
129.0,125.0,127.0,105.0,126.0,203.0,162.0,131.0,27.0,-116.0,-66.0,127.0,127.0,127.0,123.0,87.0,-82.0
129.0,125.0,127.0,105.0,126.0,203.0,163.0,131.0,27.0,-116.0,-66.0,127.0,127.0,127.0,123.0,87.0,-82.0
129.0,125.0,127.0,109.0,126.0,198.0,163.0,131.0,27.0,-116.0,-66.0,127.0,127.0,127.0,123.0,87.0,-82.0
129.0,125.0,127.0,108.0,126.0,199.0,161.0,130.0,27.0,-116.0,-66.0,127.0,127.0,127.0,123.0,87.0,-82.0
129.0,125.0,124.0,81.0,127.0,218.0,171.0,130.0,28.0,-117.0,-66.0,127.0,127.0,127.0,123.0,87.0,-82.0
129.0,125.0,124.0,81.0,127.0,219.0,173.0,130.0,28.0,-117.0,-66.0,127.0,127.0,127.0,123.0,87.0,-82.0
129.0,125.0,124.0,80.0,127.0,219.0,172.0,130.0,28.0,-117.0,-66.0,127.0,127.0,127.0,123.0,87.0,-82.0
129.0,125.0,125.0,80.0,127.0,219.0,173.0,130.0,28.0,-117.0,-66.0,127.0,127.0,127.0,123.0,87.0,-82.0
129.0,125.0,125.0,79.0,127.0,219.0,173.0,130.0,28.0,-117.0,-66.0,127.0,127.0,127.0,123.0,87.0,-82.0
129.0,125.0,125.0,79.0,127.0,220.0,174.0,130.0,28.0,-117.0,-66.0,127.0,127.0,127.0,123.0,87.0,-82.0
129.0,125.0,125.0,78.0,127.0,219.0,174.0,130.0,28.0,-117.0,-66.0,127.0,127.0,127.0,123.0,87.0,-82.0
129.0,125.0,124.0,83.0,127.0,217.0,170.0,130.0,28.0,-117.0,-66.0,127.0,127.0,127.0,123.0,87.0,-82.0
129.0,125.0,124.0,82.0,127.0,218.0,170.0,130.0,28.0,-117.0,-66.0,127.0,127.0,127.0,123.0,87.0,-82.0
129.0,125.0,124.0,82.0,127.0,218.0,171.0,130.0,28.0,-117.0,-66.0,127.0,127.0,127.0,123.0,87.0,-82.0
128.0,126.0,122.0,66.0,129.0,219.0,172.0,129.0,29.0,-117.0,-67.0,127.0,127.0,127.0,123.0,87.0,-82.0
128.0,126.0,122.0,66.0,129.0,219.0,172.0,129.0,29.0,-117.0,-67.0,127.0,127.0,127.0,123.0,87.0,-82.0
129.0,126.0,122.0,65.0,129.0,218.0,172.0,129.0,29.0,-117.0,-67.0,127.0,127.0,127.0,123.0,87.0,-82.0
128.0,126.0,122.0,65.0,128.0,218.0,171.0,129.0,29.0,-117.0,-67.0,127.0,127.0,127.0,123.0,87.0,-82.0
128.0,126.0,122.0,65.0,129.0,218.0,171.0,129.0,29.0,-117.0,-67.0,127.0,127.0,127.0,123.0,87.0,-82.0
128.0,126.0,122.0,65.0,129.0,218.0,171.0,129.0,29.0,-117.0,-67.0,127.0,127.0,127.0,123.0,87.0,-82.0
129.0,126.0,122.0,66.0,129.0,218.0,171.0,129.0,29.0,-117.0,-67.0,127.0,127.0,127.0,123.0,87.0,-82.0
129.0,126.0,122.0,66.0,128.0,218.0,171.0,129.0,29.0,-117.0,-67.0,127.0,127.0,127.0,123.0,87.0,-82.0
129.0,126.0,122.0,66.0,128.0,218.0,171.0,129.0,29.0,-117.0,-67.0,127.0,127.0,127.0,123.0,87.0,-82.0
129.0,126.0,122.0,66.0,129.0,218.0,171.0,129.0,29.0,-117.0,-67.0,127.0,127.0,127.0,123.0,87.0,-82.0
128.0,126.0,124.0,71.0,127.0,215.0,171.0,129.0,29.0,-117.0,-67.0,127.0,127.0,127.0,123.0,87.0,-82.0
128.0,126.0,124.0,71.0,127.0,215.0,167.0,129.0,29.0,-117.0,-67.0,127.0,127.0,127.0,123.0,87.0,-82.0
128.0,126.0,124.0,72.0,127.0,215.0,166.0,129.0,29.0,-117.0,-67.0,127.0,127.0,127.0,123.0,87.0,-82.0
128.0,126.0,124.0,72.0,127.0,215.0,167.0,129.0,29.0,-117.0,-67.0,127.0,127.0,127.0,123.0,87.0,-82.0
128.0,126.0,124.0,72.0,127.0,215.0,167.0,129.0,29.0,-117.0,-67.0,127.0,127.0,127.0,123.0,87.0,-82.0
128.0,126.0,124.0,70.0,127.0,213.0,171.0,129.0,29.0,-117.0,-67.0,127.0,127.0,127.0,123.0,87.0,-82.0
128.0,126.0,124.0,70.0,127.0,213.0,171.0,128.0,29.0,-117.0,-67.0,127.0,127.0,127.0,123.0,87.0,-82.0
128.0,126.0,124.0,70.0,127.0,213.0,171.0,129.0,29.0,-117.0,-67.0,127.0,127.0,127.0,123.0,87.0,-82.0
128.0,126.0,124.0,70.0,127.0,214.0,171.0,129.0,29.0,-117.0,-67.0,127.0,127.0,127.0,123.0,87.0,-82.0
128.0,126.0,124.0,71.0,128.0,214.0,172.0,129.0,29.0,-117.0,-67.0,127.0,127.0,127.0,123.0,87.0,-82.0
127.0,125.0,120.0,81.0,126.0,221.0,176.0,127.0,30.0,-116.0,-68.0,126.0,127.0,127.0,123.0,87.0,-82.0
127.0,125.0,120.0,81.0,126.0,222.0,176.0,127.0,30.0,-116.0,-68.0,126.0,127.0,127.0,123.0,87.0,-82.0
127.0,125.0,120.0,81.0,126.0,223.0,175.0,127.0,30.0,-116.0,-68.0,126.0,127.0,127.0,123.0,87.0,-82.0
127.0,125.0,120.0,81.0,126.0,223.0,172.0,127.0,30.0,-116.0,-68.0,126.0,127.0,127.0,123.0,87.0,-82.0
127.0,125.0,121.0,81.0,127.0,220.0,174.0,127.0,30.0,-116.0,-68.0,126.0,127.0,127.0,123.0,87.0,-82.0
127.0,125.0,121.0,81.0,127.0,220.0,174.0,127.0,30.0,-116.0,-68.0,126.0,127.0,127.0,123.0,87.0,-82.0
127.0,125.0,121.0,81.0,126.0,221.0,175.0,127.0,30.0,-116.0,-68.0,126.0,127.0,127.0,123.0,87.0,-82.0
127.0,125.0,120.0,81.0,126.0,221.0,175.0,127.0,30.0,-116.0,-68.0,126.0,127.0,127.0,123.0,87.0,-82.0
127.0,125.0,120.0,81.0,126.0,221.0,175.0,127.0,30.0,-116.0,-68.0,126.0,127.0,127.0,123.0,87.0,-82.0
127.0,125.0,120.0,81.0,126.0,221.0,176.0,127.0,30.0,-116.0,-68.0,126.0,127.0,127.0,123.0,87.0,-82.0
127.0,126.0,110.0,90.0,125.0,224.0,173.0,127.0,30.0,-116.0,-68.0,126.0,127.0,127.0,122.0,87.0,-82.0
127.0,126.0,109.0,91.0,125.0,224.0,173.0,127.0,30.0,-116.0,-68.0,126.0,127.0,127.0,122.0,87.0,-82.0
127.0,126.0,109.0,91.0,125.0,224.0,173.0,127.0,30.0,-116.0,-68.0,126.0,127.0,127.0,122.0,87.0,-82.0
127.0,126.0,111.0,90.0,126.0,224.0,173.0,126.0,30.0,-116.0,-68.0,126.0,127.0,127.0,122.0,87.0,-82.0
127.0,126.0,111.0,90.0,126.0,225.0,174.0,127.0,30.0,-116.0,-68.0,126.0,127.0,127.0,122.0,87.0,-82.0
127.0,126.0,111.0,90.0,126.0,225.0,174.0,127.0,30.0,-116.0,-68.0,126.0,127.0,127.0,122.0,87.0,-82.0
127.0,126.0,111.0,90.0,126.0,225.0,174.0,127.0,30.0,-116.0,-68.0,126.0,127.0,127.0,122.0,87.0,-82.0
127.0,126.0,110.0,90.0,126.0,224.0,174.0,127.0,30.0,-116.0,-68.0,126.0,127.0,127.0,122.0,87.0,-82.0
127.0,126.0,110.0,90.0,126.0,224.0,174.0,127.0,30.0,-116.0,-68.0,126.0,127.0,127.0,122.0,87.0,-82.0
127.0,126.0,110.0,90.0,125.0,224.0,173.0,127.0,30.0,-116.0,-68.0,126.0,127.0,127.0,122.0,87.0,-82.0
127.0,126.0,98.0,95.0,124.0,231.0,176.0,126.0,30.0,-117.0,-68.0,126.0,127.0,127.0,122.0,87.0,-82.0
127.0,126.0,97.0,95.0,124.0,231.0,175.0,126.0,30.0,-117.0,-68.0,126.0,127.0,127.0,122.0,87.0,-82.0
127.0,126.0,103.0,94.0,125.0,229.0,180.0,126.0,30.0,-117.0,-68.0,126.0,127.0,127.0,122.0,87.0,-82.0
127.0,126.0,102.0,94.0,125.0,230.0,181.0,126.0,30.0,-117.0,-68.0,126.0,127.0,127.0,122.0,87.0,-82.0
127.0,126.0,102.0,95.0,125.0,230.0,181.0,126.0,30.0,-117.0,-68.0,126.0,127.0,127.0,122.0,87.0,-82.0
127.0,126.0,101.0,95.0,125.0,230.0,182.0,126.0,30.0,-117.0,-68.0,126.0,127.0,127.0,122.0,87.0,-82.0
127.0,126.0,101.0,95.0,125.0,230.0,181.0,126.0,30.0,-117.0,-68.0,126.0,127.0,127.0,122.0,87.0,-82.0
127.0,126.0,100.0,95.0,125.0,231.0,179.0,126.0,30.0,-117.0,-68.0,126.0,127.0,127.0,122.0,87.0,-82.0
127.0,126.0,99.0,95.0,125.0,231.0,176.0,126.0,30.0,-117.0,-68.0,126.0,127.0,127.0,122.0,87.0,-82.0
127.0,126.0,99.0,95.0,125.0,231.0,175.0,126.0,30.0,-117.0,-68.0,126.0,127.0,127.0,122.0,87.0,-82.0
127.0,126.0,96.0,104.0,125.0,228.0,179.0,126.0,29.0,-117.0,-68.0,126.0,127.0,127.0,122.0,87.0,-82.0
127.0,126.0,91.0,103.0,125.0,229.0,180.0,126.0,29.0,-117.0,-68.0,126.0,127.0,127.0,122.0,87.0,-82.0
127.0,126.0,92.0,103.0,125.0,229.0,180.0,126.0,29.0,-117.0,-68.0,126.0,127.0,127.0,122.0,87.0,-82.0
127.0,126.0,92.0,103.0,125.0,229.0,180.0,126.0,29.0,-117.0,-68.0,126.0,127.0,127.0,122.0,87.0,-82.0
127.0,126.0,93.0,103.0,125.0,229.0,180.0,126.0,29.0,-117.0,-68.0,126.0,127.0,127.0,122.0,87.0,-82.0
127.0,126.0,93.0,103.0,125.0,229.0,180.0,126.0,29.0,-117.0,-68.0,126.0,127.0,127.0,122.0,87.0,-82.0
127.0,126.0,94.0,104.0,125.0,229.0,180.0,126.0,29.0,-117.0,-68.0,126.0,127.0,127.0,122.0,87.0,-82.0
127.0,126.0,94.0,104.0,125.0,229.0,180.0,126.0,29.0,-117.0,-68.0,126.0,127.0,127.0,122.0,87.0,-82.0
127.0,126.0,95.0,104.0,125.0,229.0,180.0,126.0,29.0,-117.0,-68.0,126.0,127.0,127.0,122.0,87.0,-82.0
127.0,126.0,96.0,104.0,125.0,228.0,179.0,126.0,29.0,-117.0,-68.0,126.0,127.0,127.0,122.0,87.0,-82.0
127.0,126.0,128.0,110.0,126.0,217.0,170.0,125.0,29.0,-118.0,-67.0,126.0,127.0,127.0,122.0,87.0,-82.0
127.0,126.0,129.0,110.0,126.0,217.0,170.0,125.0,29.0,-118.0,-67.0,126.0,127.0,127.0,122.0,87.0,-82.0
127.0,126.0,129.0,110.0,126.0,217.0,169.0,125.0,29.0,-118.0,-67.0,126.0,127.0,127.0,122.0,87.0,-82.0
127.0,127.0,130.0,111.0,126.0,217.0,169.0,125.0,29.0,-118.0,-67.0,126.0,127.0,127.0,122.0,87.0,-82.0
127.0,127.0,131.0,111.0,125.0,217.0,169.0,125.0,29.0,-118.0,-67.0,126.0,127.0,127.0,122.0,87.0,-82.0
127.0,127.0,131.0,111.0,126.0,217.0,170.0,125.0,29.0,-118.0,-67.0,126.0,127.0,127.0,122.0,87.0,-82.0
127.0,127.0,132.0,111.0,126.0,217.0,169.0,125.0,29.0,-118.0,-67.0,126.0,127.0,127.0,122.0,87.0,-82.0
127.0,127.0,132.0,111.0,126.0,217.0,169.0,125.0,29.0,-118.0,-67.0,126.0,127.0,127.0,122.0,87.0,-82.0
127.0,127.0,133.0,111.0,125.0,217.0,169.0,125.0,29.0,-118.0,-67.0,126.0,127.0,127.0,122.0,87.0,-82.0
127.0,127.0,133.0,111.0,125.0,216.0,169.0,125.0,29.0,-118.0,-67.0,126.0,127.0,127.0,122.0,87.0,-82.0
127.0,127.0,147.0,115.0,126.0,210.0,166.0,125.0,29.0,-119.0,-67.0,126.0,127.0,127.0,122.0,87.0,-82.0
127.0,127.0,147.0,115.0,126.0,209.0,166.0,125.0,29.0,-119.0,-67.0,126.0,127.0,127.0,122.0,87.0,-82.0
127.0,127.0,147.0,115.0,126.0,209.0,166.0,125.0,29.0,-119.0,-67.0,126.0,127.0,127.0,122.0,87.0,-82.0
127.0,127.0,147.0,115.0,126.0,209.0,165.0,124.0,29.0,-119.0,-67.0,126.0,127.0,127.0,122.0,87.0,-82.0
127.0,127.0,147.0,115.0,127.0,209.0,166.0,125.0,29.0,-119.0,-67.0,126.0,127.0,127.0,122.0,87.0,-82.0
127.0,127.0,147.0,115.0,126.0,209.0,165.0,125.0,29.0,-119.0,-67.0,126.0,127.0,127.0,122.0,87.0,-82.0
127.0,127.0,148.0,115.0,126.0,209.0,165.0,125.0,29.0,-119.0,-67.0,126.0,127.0,127.0,122.0,87.0,-82.0
127.0,127.0,148.0,115.0,126.0,209.0,165.0,125.0,29.0,-119.0,-67.0,126.0,127.0,127.0,122.0,87.0,-82.0
127.0,127.0,148.0,115.0,126.0,208.0,164.0,125.0,29.0,-119.0,-67.0,126.0,127.0,127.0,122.0,87.0,-82.0
127.0,127.0,147.0,115.0,127.0,210.0,167.0,125.0,29.0,-119.0,-67.0,126.0,127.0,127.0,122.0,87.0,-82.0
127.0,127.0,149.0,117.0,126.0,197.0,162.0,124.0,29.0,-119.0,-66.0,126.0,127.0,127.0,122.0,87.0,-82.0
127.0,127.0,149.0,117.0,126.0,197.0,161.0,124.0,29.0,-119.0,-66.0,126.0,127.0,127.0,122.0,87.0,-82.0
127.0,127.0,149.0,117.0,126.0,197.0,161.0,124.0,29.0,-119.0,-66.0,126.0,127.0,127.0,122.0,87.0,-82.0
127.0,127.0,149.0,117.0,126.0,197.0,161.0,124.0,29.0,-119.0,-66.0,126.0,127.0,127.0,122.0,87.0,-82.0
127.0,128.0,149.0,117.0,126.0,197.0,161.0,124.0,29.0,-119.0,-66.0,126.0,127.0,127.0,122.0,87.0,-82.0
127.0,127.0,149.0,117.0,126.0,196.0,160.0,124.0,29.0,-119.0,-66.0,126.0,127.0,127.0,122.0,87.0,-82.0
127.0,127.0,149.0,117.0,126.0,196.0,160.0,124.0,29.0,-119.0,-66.0,126.0,127.0,127.0,122.0,87.0,-82.0
127.0,127.0,149.0,117.0,126.0,196.0,160.0,124.0,29.0,-119.0,-66.0,126.0,127.0,127.0,122.0,87.0,-82.0
127.0,128.0,149.0,117.0,126.0,198.0,162.0,124.0,29.0,-119.0,-66.0,126.0,127.0,127.0,122.0,87.0,-82.0
127.0,127.0,149.0,117.0,126.0,197.0,162.0,124.0,29.0,-119.0,-66.0,126.0,127.0,127.0,122.0,87.0,-82.0
127.0,127.0,149.0,119.0,127.0,183.0,148.0,124.0,29.0,-119.0,-66.0,126.0,127.0,127.0,122.0,87.0,-82.0
127.0,127.0,149.0,119.0,127.0,183.0,147.0,124.0,29.0,-119.0,-66.0,126.0,127.0,127.0,122.0,87.0,-82.0
127.0,127.0,148.0,119.0,127.0,183.0,147.0,124.0,29.0,-119.0,-66.0,126.0,127.0,127.0,122.0,87.0,-82.0
127.0,128.0,148.0,119.0,127.0,183.0,147.0,125.0,29.0,-119.0,-66.0,126.0,127.0,127.0,122.0,87.0,-82.0
127.0,128.0,148.0,119.0,127.0,183.0,147.0,124.0,29.0,-119.0,-66.0,126.0,127.0,127.0,122.0,87.0,-82.0
127.0,127.0,148.0,119.0,127.0,183.0,147.0,125.0,29.0,-119.0,-66.0,126.0,127.0,127.0,122.0,87.0,-82.0
127.0,127.0,148.0,119.0,127.0,183.0,152.0,125.0,29.0,-119.0,-66.0,126.0,127.0,127.0,122.0,87.0,-82.0
127.0,128.0,149.0,119.0,127.0,184.0,149.0,124.0,29.0,-119.0,-66.0,126.0,127.0,127.0,122.0,87.0,-82.0
127.0,128.0,149.0,119.0,127.0,184.0,149.0,124.0,29.0,-119.0,-66.0,126.0,127.0,127.0,122.0,87.0,-82.0
127.0,127.0,149.0,119.0,127.0,184.0,148.0,124.0,29.0,-119.0,-66.0,126.0,127.0,127.0,122.0,87.0,-82.0
127.0,127.0,146.0,121.0,127.0,172.0,144.0,125.0,28.0,-119.0,-65.0,126.0,127.0,127.0,122.0,87.0,-82.0
127.0,127.0,146.0,121.0,127.0,171.0,143.0,125.0,28.0,-119.0,-65.0,126.0,127.0,127.0,122.0,87.0,-82.0
127.0,127.0,146.0,121.0,127.0,171.0,143.0,125.0,28.0,-119.0,-65.0,126.0,127.0,127.0,122.0,87.0,-82.0
127.0,127.0,146.0,121.0,127.0,171.0,142.0,125.0,28.0,-119.0,-65.0,126.0,127.0,127.0,122.0,87.0,-82.0
127.0,127.0,146.0,120.0,127.0,171.0,142.0,125.0,28.0,-119.0,-65.0,126.0,127.0,127.0,122.0,87.0,-82.0
127.0,127.0,146.0,120.0,127.0,171.0,143.0,125.0,28.0,-119.0,-65.0,126.0,127.0,127.0,122.0,87.0,-82.0
127.0,127.0,146.0,121.0,127.0,172.0,145.0,125.0,28.0,-119.0,-65.0,126.0,127.0,127.0,122.0,87.0,-82.0
127.0,127.0,146.0,121.0,127.0,172.0,144.0,125.0,28.0,-119.0,-65.0,126.0,127.0,127.0,122.0,87.0,-82.0
127.0,127.0,146.0,121.0,127.0,172.0,144.0,125.0,28.0,-119.0,-65.0,126.0,127.0,127.0,122.0,87.0,-82.0
127.0,127.0,146.0,121.0,127.0,172.0,144.0,125.0,28.0,-119.0,-65.0,126.0,127.0,127.0,122.0,87.0,-82.0
127.0,127.0,142.0,120.0,127.0,163.0,138.0,125.0,28.0,-119.0,-65.0,126.0,127.0,127.0,122.0,87.0,-82.0
127.0,127.0,141.0,120.0,127.0,163.0,137.0,125.0,28.0,-119.0,-65.0,126.0,127.0,127.0,122.0,87.0,-82.0
127.0,127.0,141.0,120.0,127.0,163.0,136.0,125.0,28.0,-119.0,-65.0,126.0,127.0,127.0,122.0,87.0,-82.0
127.0,127.0,141.0,120.0,127.0,163.0,136.0,125.0,28.0,-119.0,-65.0,126.0,127.0,127.0,122.0,87.0,-82.0
127.0,127.0,141.0,120.0,127.0,162.0,136.0,125.0,28.0,-119.0,-65.0,126.0,127.0,127.0,122.0,87.0,-82.0
127.0,127.0,142.0,120.0,127.0,164.0,138.0,125.0,28.0,-119.0,-65.0,126.0,127.0,127.0,122.0,87.0,-82.0
127.0,127.0,142.0,120.0,127.0,163.0,137.0,125.0,28.0,-119.0,-65.0,126.0,127.0,127.0,122.0,87.0,-82.0
127.0,127.0,142.0,120.0,127.0,163.0,138.0,125.0,28.0,-119.0,-65.0,126.0,127.0,127.0,122.0,87.0,-82.0
127.0,127.0,142.0,120.0,127.0,164.0,138.0,125.0,28.0,-119.0,-65.0,126.0,127.0,127.0,122.0,87.0,-82.0
127.0,127.0,142.0,120.0,127.0,163.0,138.0,125.0,28.0,-119.0,-65.0,126.0,127.0,127.0,122.0,87.0,-82.0
127.0,127.0,136.0,122.0,127.0,157.0,134.0,125.0,29.0,-120.0,-64.0,126.0,127.0,127.0,122.0,87.0,-82.0
127.0,127.0,136.0,122.0,127.0,157.0,134.0,126.0,29.0,-120.0,-64.0,126.0,127.0,127.0,122.0,87.0,-82.0
127.0,127.0,136.0,122.0,127.0,157.0,134.0,126.0,29.0,-120.0,-64.0,126.0,127.0,127.0,122.0,87.0,-82.0
127.0,127.0,135.0,122.0,127.0,156.0,133.0,125.0,29.0,-120.0,-64.0,126.0,127.0,127.0,122.0,87.0,-82.0
127.0,127.0,137.0,122.0,127.0,157.0,134.0,125.0,29.0,-120.0,-64.0,126.0,127.0,127.0,122.0,87.0,-82.0
127.0,127.0,137.0,122.0,127.0,157.0,134.0,125.0,29.0,-120.0,-64.0,126.0,127.0,127.0,122.0,87.0,-82.0
127.0,127.0,136.0,122.0,127.0,157.0,134.0,125.0,29.0,-120.0,-64.0,126.0,127.0,127.0,122.0,87.0,-82.0
127.0,128.0,136.0,122.0,127.0,157.0,134.0,125.0,29.0,-120.0,-64.0,126.0,127.0,127.0,122.0,87.0,-82.0
127.0,127.0,136.0,122.0,127.0,157.0,134.0,125.0,29.0,-120.0,-64.0,126.0,127.0,127.0,122.0,87.0,-82.0
127.0,127.0,136.0,122.0,127.0,157.0,134.0,125.0,29.0,-120.0,-64.0,126.0,127.0,127.0,122.0,87.0,-82.0
128.0,127.0,132.0,123.0,127.0,152.0,126.0,126.0,29.0,-120.0,-64.0,126.0,127.0,127.0,122.0,87.0,-82.0
128.0,127.0,132.0,123.0,128.0,152.0,126.0,126.0,29.0,-120.0,-64.0,126.0,127.0,127.0,122.0,87.0,-82.0
128.0,127.0,132.0,123.0,128.0,152.0,126.0,126.0,29.0,-120.0,-64.0,126.0,127.0,127.0,122.0,87.0,-82.0
128.0,127.0,132.0,123.0,127.0,152.0,126.0,126.0,29.0,-120.0,-64.0,126.0,127.0,127.0,122.0,87.0,-82.0
128.0,127.0,132.0,123.0,127.0,152.0,127.0,126.0,29.0,-120.0,-64.0,126.0,127.0,127.0,122.0,87.0,-82.0
127.0,127.0,132.0,123.0,127.0,152.0,126.0,126.0,29.0,-120.0,-64.0,126.0,127.0,127.0,122.0,87.0,-82.0
127.0,128.0,132.0,123.0,127.0,152.0,127.0,126.0,29.0,-120.0,-64.0,126.0,127.0,127.0,122.0,87.0,-82.0
127.0,128.0,132.0,123.0,127.0,152.0,126.0,126.0,29.0,-120.0,-64.0,126.0,127.0,127.0,122.0,87.0,-82.0
128.0,127.0,132.0,123.0,128.0,152.0,126.0,126.0,29.0,-120.0,-64.0,126.0,127.0,127.0,122.0,87.0,-82.0
128.0,127.0,132.0,123.0,128.0,152.0,127.0,126.0,29.0,-120.0,-64.0,126.0,127.0,127.0,122.0,87.0,-82.0
127.0,127.0,129.0,126.0,127.0,147.0,125.0,126.0,30.0,-121.0,-64.0,126.0,127.0,127.0,122.0,87.0,-82.0
127.0,127.0,129.0,126.0,127.0,147.0,125.0,126.0,30.0,-121.0,-64.0,126.0,127.0,127.0,122.0,87.0,-82.0
127.0,127.0,130.0,126.0,128.0,147.0,125.0,126.0,30.0,-121.0,-64.0,126.0,127.0,127.0,122.0,87.0,-82.0
127.0,127.0,130.0,126.0,128.0,147.0,125.0,126.0,30.0,-121.0,-64.0,126.0,127.0,127.0,122.0,87.0,-82.0
127.0,127.0,130.0,126.0,128.0,147.0,125.0,126.0,30.0,-121.0,-64.0,126.0,127.0,127.0,122.0,87.0,-82.0
127.0,127.0,130.0,126.0,128.0,147.0,126.0,126.0,30.0,-121.0,-64.0,126.0,127.0,127.0,122.0,87.0,-82.0
127.0,127.0,130.0,126.0,128.0,147.0,126.0,126.0,30.0,-121.0,-64.0,126.0,127.0,127.0,122.0,87.0,-82.0
127.0,127.0,130.0,126.0,128.0,147.0,126.0,126.0,30.0,-121.0,-64.0,126.0,127.0,127.0,122.0,87.0,-82.0
127.0,127.0,130.0,126.0,128.0,147.0,125.0,126.0,30.0,-121.0,-64.0,126.0,127.0,127.0,122.0,87.0,-82.0
127.0,127.0,130.0,126.0,128.0,147.0,125.0,126.0,30.0,-121.0,-64.0,126.0,127.0,127.0,122.0,87.0,-82.0
127.0,127.0,128.0,127.0,127.0,144.0,120.0,126.0,30.0,-122.0,-63.0,127.0,127.0,127.0,122.0,87.0,-82.0
127.0,127.0,128.0,127.0,127.0,144.0,120.0,126.0,30.0,-122.0,-63.0,127.0,127.0,127.0,122.0,87.0,-82.0
127.0,127.0,128.0,127.0,127.0,144.0,120.0,126.0,30.0,-122.0,-63.0,127.0,127.0,127.0,122.0,87.0,-82.0
127.0,127.0,128.0,127.0,127.0,144.0,120.0,126.0,30.0,-122.0,-63.0,127.0,127.0,127.0,122.0,87.0,-82.0
127.0,127.0,128.0,127.0,127.0,144.0,120.0,126.0,30.0,-122.0,-63.0,127.0,127.0,127.0,122.0,87.0,-82.0
127.0,127.0,128.0,127.0,127.0,144.0,121.0,126.0,30.0,-122.0,-63.0,127.0,127.0,127.0,122.0,87.0,-82.0
127.0,127.0,128.0,127.0,127.0,144.0,121.0,126.0,30.0,-122.0,-63.0,127.0,127.0,127.0,122.0,87.0,-82.0
127.0,127.0,128.0,127.0,127.0,144.0,121.0,126.0,30.0,-122.0,-63.0,127.0,127.0,127.0,122.0,87.0,-82.0
127.0,127.0,128.0,127.0,127.0,144.0,121.0,126.0,30.0,-122.0,-63.0,127.0,127.0,127.0,122.0,87.0,-82.0
127.0,127.0,128.0,127.0,127.0,144.0,121.0,126.0,30.0,-122.0,-63.0,127.0,127.0,127.0,122.0,87.0,-82.0
127.0,127.0,127.0,128.0,127.0,143.0,118.0,126.0,31.0,-122.0,-63.0,127.0,127.0,127.0,122.0,87.0,-82.0
127.0,127.0,127.0,128.0,127.0,143.0,118.0,126.0,31.0,-122.0,-63.0,127.0,127.0,127.0,122.0,87.0,-82.0
127.0,127.0,127.0,128.0,127.0,143.0,118.0,126.0,31.0,-122.0,-63.0,127.0,127.0,127.0,122.0,87.0,-82.0
127.0,127.0,127.0,128.0,127.0,143.0,119.0,126.0,31.0,-122.0,-63.0,127.0,127.0,127.0,122.0,87.0,-82.0
127.0,127.0,127.0,128.0,127.0,143.0,119.0,126.0,31.0,-122.0,-63.0,127.0,127.0,127.0,122.0,87.0,-82.0
127.0,127.0,126.0,128.0,127.0,143.0,119.0,126.0,31.0,-122.0,-63.0,127.0,127.0,127.0,122.0,87.0,-82.0
127.0,127.0,127.0,128.0,127.0,143.0,119.0,126.0,31.0,-122.0,-63.0,127.0,127.0,127.0,122.0,87.0,-82.0
127.0,127.0,127.0,128.0,126.0,143.0,119.0,126.0,31.0,-122.0,-63.0,127.0,127.0,127.0,122.0,87.0,-82.0
127.0,127.0,126.0,128.0,127.0,143.0,119.0,126.0,31.0,-122.0,-63.0,127.0,127.0,127.0,122.0,87.0,-82.0
127.0,127.0,127.0,128.0,127.0,143.0,119.0,126.0,31.0,-122.0,-63.0,127.0,127.0,127.0,122.0,87.0,-82.0
127.0,127.0,126.0,128.0,126.0,141.0,122.0,126.0,31.0,-122.0,-64.0,127.0,127.0,127.0,122.0,87.0,-82.0
127.0,127.0,126.0,128.0,126.0,141.0,122.0,126.0,31.0,-122.0,-64.0,127.0,127.0,127.0,122.0,87.0,-82.0
127.0,127.0,126.0,127.0,126.0,141.0,122.0,126.0,31.0,-122.0,-64.0,127.0,127.0,127.0,122.0,87.0,-82.0
127.0,127.0,126.0,127.0,126.0,141.0,123.0,126.0,31.0,-122.0,-64.0,127.0,127.0,127.0,122.0,87.0,-82.0
127.0,127.0,126.0,127.0,126.0,141.0,123.0,126.0,31.0,-122.0,-64.0,127.0,127.0,127.0,122.0,87.0,-82.0
127.0,127.0,126.0,127.0,126.0,141.0,123.0,126.0,31.0,-122.0,-64.0,127.0,127.0,127.0,122.0,87.0,-82.0
127.0,127.0,126.0,127.0,126.0,141.0,123.0,126.0,31.0,-122.0,-64.0,127.0,127.0,127.0,122.0,87.0,-82.0
127.0,127.0,126.0,127.0,126.0,141.0,122.0,126.0,31.0,-122.0,-64.0,127.0,127.0,127.0,122.0,87.0,-82.0
127.0,127.0,126.0,127.0,126.0,141.0,122.0,126.0,31.0,-122.0,-64.0,127.0,127.0,127.0,122.0,87.0,-82.0
127.0,127.0,126.0,128.0,126.0,141.0,122.0,126.0,31.0,-122.0,-64.0,127.0,127.0,127.0,122.0,87.0,-82.0
127.0,127.0,126.0,127.0,127.0,138.0,118.0,126.0,31.0,-122.0,-64.0,127.0,127.0,127.0,122.0,87.0,-82.0
127.0,127.0,126.0,127.0,127.0,138.0,117.0,126.0,31.0,-122.0,-64.0,127.0,127.0,127.0,122.0,87.0,-82.0
127.0,127.0,126.0,127.0,127.0,138.0,117.0,126.0,31.0,-122.0,-64.0,127.0,127.0,127.0,122.0,87.0,-82.0
127.0,127.0,126.0,127.0,127.0,138.0,117.0,126.0,31.0,-122.0,-64.0,127.0,127.0,127.0,122.0,87.0,-82.0
127.0,127.0,126.0,127.0,126.0,138.0,117.0,126.0,31.0,-122.0,-64.0,127.0,127.0,127.0,122.0,87.0,-82.0
127.0,127.0,126.0,127.0,127.0,138.0,118.0,126.0,31.0,-122.0,-64.0,127.0,127.0,127.0,122.0,87.0,-82.0
127.0,127.0,126.0,127.0,126.0,139.0,118.0,126.0,31.0,-122.0,-64.0,127.0,127.0,127.0,122.0,87.0,-82.0
127.0,127.0,126.0,127.0,126.0,138.0,118.0,126.0,31.0,-122.0,-64.0,127.0,127.0,127.0,122.0,87.0,-82.0
127.0,127.0,126.0,127.0,127.0,138.0,118.0,126.0,31.0,-122.0,-64.0,127.0,127.0,127.0,122.0,87.0,-82.0
127.0,127.0,126.0,127.0,127.0,138.0,117.0,126.0,31.0,-122.0,-64.0,127.0,127.0,127.0,122.0,87.0,-82.0
127.0,127.0,125.0,127.0,127.0,137.0,116.0,126.0,31.0,-122.0,-64.0,127.0,127.0,127.0,122.0,87.0,-82.0
127.0,127.0,126.0,127.0,127.0,137.0,116.0,126.0,31.0,-122.0,-64.0,127.0,127.0,127.0,122.0,87.0,-82.0
127.0,127.0,126.0,127.0,127.0,137.0,116.0,126.0,31.0,-122.0,-64.0,127.0,127.0,127.0,122.0,87.0,-82.0
127.0,127.0,126.0,127.0,127.0,137.0,116.0,126.0,31.0,-122.0,-64.0,127.0,127.0,127.0,122.0,87.0,-82.0
127.0,127.0,126.0,127.0,127.0,137.0,116.0,126.0,31.0,-122.0,-64.0,127.0,127.0,127.0,122.0,87.0,-82.0
127.0,127.0,126.0,127.0,127.0,137.0,115.0,126.0,31.0,-122.0,-64.0,127.0,127.0,127.0,122.0,87.0,-82.0
127.0,127.0,126.0,127.0,127.0,137.0,115.0,126.0,31.0,-122.0,-64.0,127.0,127.0,127.0,122.0,87.0,-82.0
127.0,127.0,125.0,127.0,127.0,137.0,115.0,126.0,31.0,-122.0,-64.0,127.0,127.0,127.0,122.0,87.0,-82.0
127.0,128.0,125.0,127.0,127.0,137.0,116.0,126.0,31.0,-122.0,-64.0,127.0,127.0,127.0,122.0,87.0,-82.0
127.0,127.0,125.0,127.0,127.0,137.0,116.0,126.0,31.0,-122.0,-64.0,127.0,127.0,127.0,122.0,87.0,-82.0
127.0,128.0,126.0,127.0,127.0,136.0,114.0,126.0,31.0,-121.0,-64.0,127.0,127.0,127.0,122.0,87.0,-82.0
127.0,128.0,126.0,127.0,127.0,136.0,114.0,126.0,31.0,-121.0,-64.0,127.0,127.0,127.0,122.0,87.0,-82.0
127.0,127.0,126.0,127.0,127.0,136.0,115.0,126.0,31.0,-121.0,-64.0,127.0,127.0,127.0,122.0,87.0,-82.0
127.0,127.0,126.0,127.0,127.0,136.0,114.0,126.0,31.0,-121.0,-64.0,127.0,127.0,127.0,122.0,87.0,-82.0
127.0,127.0,127.0,127.0,127.0,136.0,114.0,126.0,31.0,-121.0,-64.0,127.0,127.0,127.0,122.0,87.0,-82.0
127.0,127.0,127.0,127.0,127.0,136.0,114.0,126.0,31.0,-121.0,-64.0,127.0,127.0,127.0,122.0,87.0,-82.0
126.0,128.0,126.0,127.0,127.0,136.0,114.0,126.0,31.0,-121.0,-64.0,127.0,127.0,127.0,122.0,87.0,-82.0
126.0,128.0,126.0,127.0,127.0,136.0,114.0,126.0,31.0,-121.0,-64.0,127.0,127.0,127.0,122.0,87.0,-82.0
127.0,128.0,126.0,127.0,127.0,136.0,114.0,126.0,31.0,-121.0,-64.0,127.0,127.0,127.0,122.0,87.0,-82.0
127.0,128.0,126.0,127.0,127.0,136.0,115.0,126.0,31.0,-121.0,-64.0,127.0,127.0,127.0,122.0,87.0,-82.0
126.0,127.0,126.0,126.0,127.0,136.0,114.0,126.0,30.0,-121.0,-64.0,127.0,127.0,127.0,122.0,87.0,-82.0
127.0,127.0,127.0,126.0,127.0,136.0,114.0,126.0,30.0,-121.0,-64.0,127.0,127.0,127.0,122.0,87.0,-82.0
127.0,127.0,127.0,126.0,127.0,136.0,113.0,126.0,30.0,-121.0,-64.0,127.0,127.0,127.0,122.0,87.0,-82.0
127.0,127.0,127.0,126.0,127.0,136.0,114.0,126.0,30.0,-121.0,-64.0,127.0,127.0,127.0,122.0,87.0,-82.0
127.0,127.0,127.0,126.0,127.0,136.0,114.0,126.0,30.0,-121.0,-64.0,127.0,127.0,127.0,122.0,87.0,-82.0
126.0,127.0,126.0,126.0,127.0,136.0,113.0,126.0,30.0,-121.0,-64.0,127.0,127.0,127.0,122.0,87.0,-82.0
126.0,127.0,126.0,126.0,127.0,136.0,114.0,126.0,30.0,-121.0,-64.0,127.0,127.0,127.0,122.0,87.0,-82.0
126.0,127.0,126.0,126.0,127.0,136.0,114.0,126.0,30.0,-121.0,-64.0,127.0,127.0,127.0,122.0,87.0,-82.0
126.0,127.0,126.0,126.0,127.0,136.0,114.0,126.0,30.0,-121.0,-64.0,127.0,127.0,127.0,122.0,87.0,-82.0
126.0,127.0,126.0,126.0,127.0,136.0,114.0,126.0,30.0,-121.0,-64.0,127.0,127.0,127.0,122.0,87.0,-82.0
126.0,128.0,127.0,125.0,127.0,135.0,113.0,126.0,30.0,-120.0,-64.0,127.0,127.0,127.0,122.0,87.0,-82.0
126.0,127.0,127.0,125.0,127.0,135.0,113.0,126.0,30.0,-120.0,-64.0,127.0,127.0,127.0,122.0,87.0,-82.0
126.0,127.0,127.0,125.0,127.0,135.0,112.0,126.0,30.0,-120.0,-64.0,127.0,127.0,127.0,122.0,87.0,-82.0
126.0,127.0,127.0,125.0,127.0,135.0,112.0,126.0,30.0,-120.0,-64.0,127.0,127.0,127.0,122.0,87.0,-82.0
126.0,127.0,127.0,125.0,127.0,135.0,115.0,126.0,30.0,-120.0,-64.0,127.0,127.0,127.0,122.0,87.0,-82.0
126.0,128.0,127.0,125.0,127.0,135.0,114.0,126.0,30.0,-120.0,-64.0,127.0,127.0,127.0,122.0,87.0,-82.0
126.0,128.0,127.0,125.0,127.0,135.0,113.0,126.0,30.0,-120.0,-64.0,127.0,127.0,127.0,122.0,87.0,-82.0
126.0,128.0,127.0,125.0,127.0,135.0,113.0,126.0,30.0,-120.0,-64.0,127.0,127.0,127.0,122.0,87.0,-82.0
126.0,128.0,127.0,125.0,127.0,135.0,113.0,126.0,30.0,-120.0,-64.0,127.0,127.0,127.0,122.0,87.0,-82.0
126.0,128.0,127.0,125.0,127.0,135.0,113.0,126.0,30.0,-120.0,-64.0,127.0,127.0,127.0,122.0,87.0,-82.0
126.0,127.0,127.0,126.0,127.0,134.0,119.0,126.0,29.0,-120.0,-64.0,127.0,127.0,127.0,122.0,87.0,-82.0
126.0,127.0,127.0,126.0,127.0,134.0,119.0,126.0,29.0,-120.0,-64.0,127.0,127.0,127.0,122.0,87.0,-82.0
126.0,127.0,127.0,126.0,127.0,134.0,119.0,126.0,29.0,-120.0,-64.0,127.0,127.0,127.0,122.0,87.0,-82.0
126.0,127.0,127.0,126.0,128.0,134.0,119.0,126.0,29.0,-120.0,-64.0,127.0,127.0,127.0,122.0,87.0,-82.0
126.0,128.0,127.0,126.0,128.0,134.0,118.0,126.0,29.0,-120.0,-64.0,127.0,127.0,127.0,122.0,87.0,-82.0
126.0,128.0,127.0,126.0,128.0,135.0,119.0,126.0,29.0,-120.0,-64.0,127.0,127.0,127.0,122.0,87.0,-82.0
126.0,128.0,127.0,126.0,128.0,135.0,119.0,126.0,29.0,-120.0,-64.0,127.0,127.0,127.0,122.0,87.0,-82.0
126.0,128.0,127.0,126.0,128.0,135.0,119.0,126.0,29.0,-120.0,-64.0,127.0,127.0,127.0,122.0,87.0,-82.0
126.0,128.0,127.0,126.0,127.0,135.0,119.0,126.0,29.0,-120.0,-64.0,127.0,127.0,127.0,122.0,87.0,-82.0
126.0,127.0,127.0,126.0,127.0,135.0,119.0,126.0,29.0,-120.0,-64.0,127.0,127.0,127.0,122.0,87.0,-82.0
126.0,127.0,127.0,126.0,127.0,134.0,118.0,126.0,28.0,-120.0,-65.0,127.0,127.0,127.0,122.0,87.0,-82.0
126.0,127.0,127.0,126.0,127.0,134.0,117.0,126.0,28.0,-120.0,-65.0,127.0,127.0,127.0,122.0,87.0,-82.0
126.0,127.0,127.0,126.0,127.0,134.0,117.0,126.0,28.0,-120.0,-65.0,127.0,127.0,127.0,122.0,87.0,-82.0
126.0,127.0,127.0,126.0,127.0,133.0,117.0,126.0,28.0,-120.0,-65.0,127.0,127.0,127.0,122.0,87.0,-82.0
126.0,128.0,127.0,126.0,127.0,134.0,118.0,126.0,28.0,-120.0,-65.0,127.0,127.0,127.0,122.0,87.0,-82.0
126.0,127.0,127.0,126.0,127.0,134.0,118.0,126.0,28.0,-120.0,-65.0,127.0,127.0,127.0,122.0,87.0,-82.0
126.0,127.0,127.0,126.0,127.0,134.0,117.0,126.0,28.0,-120.0,-65.0,127.0,127.0,127.0,122.0,87.0,-82.0
126.0,127.0,127.0,126.0,127.0,134.0,118.0,126.0,28.0,-120.0,-65.0,127.0,127.0,127.0,122.0,87.0,-82.0
126.0,127.0,127.0,126.0,127.0,134.0,118.0,126.0,28.0,-120.0,-65.0,127.0,127.0,127.0,122.0,87.0,-82.0
126.0,127.0,127.0,126.0,127.0,134.0,118.0,126.0,28.0,-120.0,-65.0,127.0,127.0,127.0,122.0,87.0,-82.0
126.0,128.0,127.0,126.0,127.0,133.0,117.0,126.0,28.0,-120.0,-65.0,127.0,127.0,127.0,122.0,87.0,-82.0
126.0,128.0,126.0,126.0,127.0,133.0,116.0,126.0,28.0,-120.0,-65.0,127.0,127.0,127.0,122.0,87.0,-82.0
126.0,128.0,126.0,126.0,127.0,133.0,116.0,126.0,28.0,-120.0,-65.0,127.0,127.0,127.0,122.0,87.0,-82.0
126.0,128.0,126.0,126.0,127.0,134.0,116.0,126.0,28.0,-120.0,-65.0,127.0,127.0,127.0,122.0,87.0,-82.0
126.0,128.0,126.0,126.0,127.0,134.0,117.0,126.0,28.0,-120.0,-65.0,127.0,127.0,127.0,122.0,87.0,-82.0
126.0,128.0,126.0,126.0,127.0,133.0,116.0,126.0,28.0,-120.0,-65.0,127.0,127.0,127.0,122.0,87.0,-82.0
126.0,128.0,126.0,126.0,127.0,133.0,117.0,126.0,28.0,-120.0,-65.0,127.0,127.0,127.0,122.0,87.0,-82.0
126.0,128.0,126.0,126.0,127.0,133.0,117.0,126.0,28.0,-120.0,-65.0,127.0,127.0,127.0,122.0,87.0,-82.0
126.0,128.0,127.0,126.0,127.0,133.0,117.0,126.0,28.0,-120.0,-65.0,127.0,127.0,127.0,122.0,87.0,-82.0
126.0,128.0,127.0,126.0,127.0,133.0,117.0,126.0,28.0,-120.0,-65.0,127.0,127.0,127.0,122.0,87.0,-82.0
126.0,127.0,126.0,125.0,126.0,132.0,114.0,126.0,27.0,-120.0,-65.0,127.0,127.0,127.0,122.0,87.0,-82.0
126.0,127.0,126.0,125.0,126.0,132.0,114.0,126.0,27.0,-120.0,-65.0,127.0,127.0,127.0,122.0,87.0,-82.0
126.0,127.0,126.0,125.0,126.0,132.0,114.0,126.0,27.0,-120.0,-65.0,127.0,127.0,127.0,122.0,87.0,-82.0
126.0,127.0,126.0,125.0,126.0,132.0,114.0,126.0,27.0,-120.0,-65.0,127.0,127.0,127.0,122.0,87.0,-82.0
126.0,127.0,126.0,125.0,127.0,132.0,114.0,126.0,27.0,-120.0,-65.0,127.0,127.0,127.0,122.0,87.0,-82.0
126.0,127.0,126.0,125.0,127.0,132.0,115.0,126.0,27.0,-120.0,-65.0,127.0,127.0,127.0,122.0,87.0,-82.0
126.0,127.0,126.0,125.0,127.0,133.0,115.0,126.0,27.0,-120.0,-65.0,127.0,127.0,127.0,122.0,87.0,-82.0
126.0,127.0,126.0,125.0,127.0,133.0,115.0,126.0,27.0,-120.0,-65.0,127.0,127.0,127.0,122.0,87.0,-82.0
126.0,127.0,126.0,125.0,127.0,133.0,115.0,126.0,27.0,-120.0,-65.0,127.0,127.0,127.0,122.0,87.0,-82.0
126.0,127.0,126.0,125.0,127.0,133.0,115.0,126.0,27.0,-120.0,-65.0,127.0,127.0,127.0,122.0,87.0,-82.0
126.0,127.0,126.0,125.0,127.0,132.0,116.0,127.0,27.0,-119.0,-66.0,127.0,127.0,127.0,122.0,87.0,-82.0
126.0,127.0,126.0,126.0,127.0,132.0,116.0,127.0,27.0,-119.0,-66.0,127.0,127.0,127.0,122.0,87.0,-82.0
126.0,127.0,126.0,125.0,127.0,132.0,115.0,127.0,27.0,-119.0,-66.0,127.0,127.0,127.0,122.0,87.0,-82.0
126.0,127.0,126.0,126.0,127.0,132.0,116.0,127.0,27.0,-119.0,-66.0,127.0,127.0,127.0,122.0,87.0,-82.0
126.0,127.0,126.0,126.0,127.0,132.0,115.0,127.0,27.0,-119.0,-66.0,127.0,127.0,127.0,122.0,87.0,-82.0
126.0,127.0,126.0,126.0,127.0,132.0,115.0,127.0,27.0,-119.0,-66.0,127.0,127.0,127.0,122.0,87.0,-82.0
126.0,127.0,126.0,126.0,127.0,132.0,114.0,127.0,27.0,-119.0,-66.0,127.0,127.0,127.0,122.0,87.0,-82.0
126.0,127.0,126.0,126.0,127.0,132.0,114.0,127.0,27.0,-119.0,-66.0,127.0,127.0,127.0,122.0,87.0,-82.0
126.0,127.0,126.0,125.0,127.0,132.0,114.0,127.0,27.0,-119.0,-66.0,127.0,127.0,127.0,122.0,87.0,-82.0
126.0,127.0,126.0,125.0,127.0,132.0,115.0,127.0,27.0,-119.0,-66.0,127.0,127.0,127.0,122.0,87.0,-82.0
126.0,128.0,126.0,126.0,127.0,132.0,114.0,127.0,27.0,-119.0,-66.0,127.0,127.0,127.0,122.0,87.0,-82.0
126.0,127.0,126.0,126.0,127.0,132.0,114.0,127.0,27.0,-119.0,-66.0,127.0,127.0,127.0,122.0,87.0,-82.0
126.0,127.0,126.0,126.0,127.0,132.0,114.0,127.0,27.0,-119.0,-66.0,127.0,127.0,127.0,122.0,87.0,-82.0
126.0,127.0,126.0,126.0,127.0,132.0,114.0,127.0,27.0,-119.0,-66.0,127.0,127.0,127.0,122.0,87.0,-82.0
126.0,127.0,126.0,126.0,127.0,132.0,115.0,127.0,27.0,-119.0,-66.0,127.0,127.0,127.0,122.0,87.0,-82.0
126.0,127.0,126.0,126.0,127.0,132.0,115.0,127.0,27.0,-119.0,-66.0,127.0,127.0,127.0,122.0,87.0,-82.0
126.0,127.0,126.0,126.0,127.0,132.0,114.0,127.0,27.0,-119.0,-66.0,127.0,127.0,127.0,122.0,87.0,-82.0
126.0,127.0,126.0,126.0,127.0,132.0,114.0,127.0,27.0,-119.0,-66.0,127.0,127.0,127.0,122.0,87.0,-82.0
126.0,128.0,126.0,126.0,127.0,132.0,114.0,127.0,27.0,-119.0,-66.0,127.0,127.0,127.0,122.0,87.0,-82.0
126.0,128.0,126.0,126.0,127.0,132.0,114.0,127.0,27.0,-119.0,-66.0,127.0,127.0,127.0,122.0,87.0,-82.0
126.0,127.0,127.0,127.0,127.0,132.0,114.0,127.0,26.0,-119.0,-66.0,127.0,127.0,127.0,122.0,87.0,-82.0
127.0,127.0,127.0,127.0,127.0,132.0,114.0,127.0,26.0,-119.0,-66.0,127.0,127.0,127.0,122.0,87.0,-82.0
127.0,127.0,127.0,127.0,127.0,132.0,114.0,127.0,26.0,-119.0,-66.0,127.0,127.0,127.0,122.0,87.0,-82.0
127.0,127.0,127.0,127.0,127.0,132.0,114.0,127.0,26.0,-119.0,-66.0,127.0,127.0,127.0,122.0,87.0,-82.0
127.0,127.0,127.0,127.0,127.0,132.0,114.0,127.0,26.0,-119.0,-66.0,127.0,127.0,127.0,122.0,87.0,-82.0
127.0,127.0,127.0,127.0,127.0,132.0,114.0,127.0,26.0,-119.0,-66.0,127.0,127.0,127.0,122.0,87.0,-82.0
127.0,127.0,127.0,127.0,127.0,132.0,114.0,127.0,26.0,-119.0,-66.0,127.0,127.0,127.0,122.0,87.0,-82.0
126.0,128.0,126.0,127.0,127.0,132.0,114.0,127.0,26.0,-119.0,-66.0,127.0,127.0,127.0,122.0,87.0,-82.0
126.0,128.0,127.0,127.0,127.0,132.0,114.0,127.0,26.0,-119.0,-66.0,127.0,127.0,127.0,122.0,87.0,-82.0
127.0,127.0,127.0,127.0,127.0,132.0,114.0,127.0,26.0,-119.0,-66.0,127.0,127.0,127.0,122.0,87.0,-82.0
126.0,127.0,127.0,127.0,127.0,132.0,114.0,127.0,26.0,-120.0,-67.0,127.0,127.0,127.0,122.0,87.0,-82.0
126.0,127.0,127.0,127.0,127.0,132.0,114.0,127.0,26.0,-120.0,-67.0,127.0,127.0,127.0,122.0,87.0,-82.0
126.0,127.0,127.0,127.0,127.0,132.0,114.0,127.0,26.0,-120.0,-67.0,127.0,127.0,127.0,122.0,87.0,-82.0
126.0,127.0,127.0,127.0,127.0,132.0,114.0,127.0,26.0,-120.0,-67.0,127.0,127.0,127.0,122.0,87.0,-82.0
126.0,127.0,127.0,127.0,127.0,132.0,114.0,127.0,26.0,-120.0,-67.0,127.0,127.0,127.0,122.0,87.0,-82.0
126.0,127.0,127.0,127.0,127.0,132.0,114.0,127.0,26.0,-120.0,-67.0,127.0,127.0,127.0,122.0,87.0,-82.0
126.0,128.0,127.0,127.0,127.0,132.0,114.0,127.0,26.0,-120.0,-67.0,127.0,127.0,127.0,122.0,87.0,-82.0
126.0,128.0,127.0,127.0,127.0,132.0,114.0,127.0,26.0,-120.0,-67.0,127.0,127.0,127.0,122.0,87.0,-82.0
126.0,127.0,127.0,127.0,127.0,132.0,114.0,127.0,26.0,-120.0,-67.0,127.0,127.0,127.0,122.0,87.0,-82.0
126.0,127.0,127.0,127.0,127.0,132.0,114.0,127.0,26.0,-120.0,-67.0,127.0,127.0,127.0,122.0,87.0,-82.0
127.0,127.0,127.0,127.0,127.0,132.0,113.0,127.0,26.0,-120.0,-67.0,127.0,127.0,127.0,122.0,87.0,-82.0
127.0,127.0,127.0,127.0,127.0,131.0,113.0,127.0,26.0,-120.0,-67.0,127.0,127.0,127.0,122.0,87.0,-82.0
127.0,127.0,127.0,127.0,127.0,131.0,114.0,127.0,26.0,-120.0,-67.0,127.0,127.0,127.0,122.0,87.0,-82.0
127.0,127.0,127.0,127.0,127.0,131.0,114.0,127.0,26.0,-120.0,-67.0,127.0,127.0,127.0,122.0,87.0,-82.0
127.0,127.0,127.0,127.0,127.0,131.0,113.0,127.0,26.0,-120.0,-67.0,127.0,127.0,127.0,122.0,87.0,-82.0
126.0,128.0,127.0,127.0,127.0,132.0,113.0,127.0,26.0,-120.0,-67.0,127.0,127.0,127.0,122.0,87.0,-82.0
126.0,127.0,127.0,127.0,127.0,132.0,114.0,127.0,26.0,-120.0,-67.0,127.0,127.0,127.0,122.0,87.0,-82.0
127.0,127.0,127.0,127.0,127.0,132.0,113.0,127.0,26.0,-120.0,-67.0,127.0,127.0,127.0,122.0,87.0,-82.0
127.0,127.0,127.0,127.0,127.0,132.0,113.0,127.0,26.0,-120.0,-67.0,127.0,127.0,127.0,122.0,87.0,-82.0
127.0,127.0,127.0,127.0,127.0,131.0,113.0,127.0,26.0,-120.0,-67.0,127.0,127.0,127.0,122.0,87.0,-82.0
127.0,127.0,127.0,127.0,127.0,131.0,112.0,127.0,27.0,-120.0,-67.0,127.0,127.0,127.0,122.0,87.0,-82.0
126.0,127.0,127.0,127.0,127.0,131.0,112.0,126.0,27.0,-120.0,-67.0,127.0,127.0,127.0,122.0,87.0,-82.0
126.0,127.0,127.0,127.0,127.0,131.0,112.0,126.0,27.0,-120.0,-67.0,127.0,127.0,127.0,122.0,87.0,-82.0
126.0,127.0,127.0,127.0,127.0,131.0,112.0,126.0,27.0,-120.0,-67.0,127.0,127.0,127.0,122.0,87.0,-82.0
127.0,128.0,127.0,127.0,127.0,131.0,113.0,127.0,27.0,-120.0,-67.0,127.0,127.0,127.0,122.0,87.0,-82.0
126.0,128.0,127.0,127.0,127.0,131.0,113.0,127.0,27.0,-120.0,-67.0,127.0,127.0,127.0,122.0,87.0,-82.0
126.0,127.0,127.0,127.0,127.0,131.0,113.0,127.0,27.0,-120.0,-67.0,127.0,127.0,127.0,122.0,87.0,-82.0
126.0,127.0,127.0,127.0,127.0,131.0,113.0,127.0,27.0,-120.0,-67.0,127.0,127.0,127.0,122.0,87.0,-82.0
127.0,127.0,127.0,127.0,127.0,131.0,112.0,126.0,27.0,-120.0,-67.0,127.0,127.0,127.0,122.0,87.0,-82.0
127.0,127.0,127.0,127.0,127.0,131.0,113.0,127.0,27.0,-120.0,-67.0,127.0,127.0,127.0,122.0,87.0,-82.0
126.0,127.0,127.0,125.0,126.0,131.0,112.0,127.0,27.0,-120.0,-67.0,127.0,127.0,127.0,122.0,87.0,-82.0
127.0,127.0,127.0,125.0,126.0,131.0,112.0,127.0,27.0,-120.0,-67.0,127.0,127.0,127.0,122.0,87.0,-82.0
126.0,127.0,127.0,125.0,126.0,131.0,112.0,127.0,27.0,-120.0,-67.0,127.0,127.0,127.0,122.0,87.0,-82.0
126.0,128.0,126.0,126.0,127.0,131.0,112.0,127.0,27.0,-120.0,-67.0,127.0,127.0,127.0,122.0,87.0,-82.0
126.0,128.0,126.0,126.0,127.0,131.0,112.0,127.0,27.0,-120.0,-67.0,127.0,127.0,127.0,122.0,87.0,-82.0
126.0,128.0,126.0,126.0,127.0,131.0,112.0,127.0,27.0,-120.0,-67.0,127.0,127.0,127.0,122.0,87.0,-82.0
126.0,127.0,126.0,126.0,126.0,131.0,113.0,127.0,27.0,-120.0,-67.0,127.0,127.0,127.0,122.0,87.0,-82.0
126.0,127.0,126.0,126.0,126.0,131.0,112.0,127.0,27.0,-120.0,-67.0,127.0,127.0,127.0,122.0,87.0,-82.0
126.0,127.0,127.0,126.0,126.0,131.0,113.0,127.0,27.0,-120.0,-67.0,127.0,127.0,127.0,122.0,87.0,-82.0
126.0,127.0,127.0,126.0,126.0,131.0,112.0,127.0,27.0,-120.0,-67.0,127.0,127.0,127.0,122.0,87.0,-82.0
127.0,127.0,127.0,125.0,127.0,130.0,112.0,127.0,27.0,-120.0,-67.0,127.0,127.0,127.0,122.0,87.0,-82.0
127.0,127.0,127.0,125.0,127.0,130.0,112.0,127.0,27.0,-120.0,-67.0,127.0,127.0,127.0,122.0,87.0,-82.0
127.0,127.0,127.0,125.0,127.0,130.0,111.0,126.0,27.0,-120.0,-67.0,127.0,127.0,127.0,122.0,87.0,-82.0
127.0,127.0,127.0,125.0,127.0,130.0,111.0,126.0,27.0,-120.0,-67.0,127.0,127.0,127.0,122.0,87.0,-82.0
127.0,127.0,127.0,125.0,127.0,130.0,111.0,126.0,27.0,-120.0,-67.0,127.0,127.0,127.0,122.0,87.0,-82.0
127.0,127.0,127.0,125.0,127.0,130.0,111.0,126.0,27.0,-120.0,-67.0,127.0,127.0,127.0,122.0,87.0,-82.0
127.0,127.0,127.0,125.0,127.0,130.0,112.0,127.0,27.0,-120.0,-67.0,127.0,127.0,127.0,122.0,87.0,-82.0
127.0,127.0,127.0,125.0,127.0,130.0,111.0,127.0,27.0,-120.0,-67.0,127.0,127.0,127.0,122.0,87.0,-82.0
127.0,127.0,127.0,125.0,127.0,130.0,112.0,127.0,27.0,-120.0,-67.0,127.0,127.0,127.0,122.0,87.0,-82.0
127.0,127.0,127.0,125.0,127.0,130.0,112.0,127.0,27.0,-120.0,-67.0,127.0,127.0,127.0,122.0,87.0,-82.0
127.0,127.0,127.0,127.0,127.0,130.0,112.0,126.0,27.0,-120.0,-67.0,127.0,127.0,127.0,123.0,87.0,-82.0
126.0,127.0,127.0,126.0,127.0,130.0,111.0,126.0,27.0,-120.0,-67.0,127.0,127.0,127.0,123.0,87.0,-82.0
126.0,127.0,127.0,126.0,127.0,131.0,112.0,126.0,27.0,-120.0,-67.0,127.0,127.0,127.0,123.0,87.0,-82.0
126.0,127.0,127.0,126.0,127.0,131.0,112.0,127.0,27.0,-120.0,-67.0,127.0,127.0,127.0,123.0,87.0,-82.0
126.0,127.0,127.0,126.0,127.0,131.0,112.0,126.0,27.0,-120.0,-67.0,127.0,127.0,127.0,123.0,87.0,-82.0
126.0,127.0,127.0,126.0,127.0,131.0,112.0,126.0,27.0,-120.0,-67.0,127.0,127.0,127.0,123.0,87.0,-82.0
126.0,127.0,127.0,127.0,127.0,131.0,112.0,126.0,27.0,-120.0,-67.0,127.0,127.0,127.0,123.0,87.0,-82.0
126.0,127.0,127.0,127.0,127.0,130.0,111.0,126.0,27.0,-120.0,-67.0,127.0,127.0,127.0,123.0,87.0,-82.0
126.0,127.0,127.0,127.0,127.0,130.0,111.0,126.0,27.0,-120.0,-67.0,127.0,127.0,127.0,123.0,87.0,-82.0
127.0,127.0,127.0,127.0,127.0,130.0,112.0,126.0,27.0,-120.0,-67.0,127.0,127.0,127.0,123.0,87.0,-82.0
126.0,128.0,127.0,128.0,128.0,130.0,111.0,127.0,27.0,-120.0,-67.0,127.0,127.0,127.0,123.0,87.0,-82.0
126.0,128.0,127.0,128.0,128.0,130.0,111.0,127.0,27.0,-120.0,-67.0,127.0,127.0,127.0,123.0,87.0,-82.0
126.0,128.0,127.0,128.0,128.0,131.0,112.0,127.0,27.0,-120.0,-67.0,127.0,127.0,127.0,123.0,87.0,-82.0
126.0,128.0,127.0,128.0,128.0,131.0,112.0,127.0,27.0,-120.0,-67.0,127.0,127.0,127.0,123.0,87.0,-82.0
126.0,128.0,127.0,128.0,128.0,130.0,111.0,127.0,27.0,-120.0,-67.0,127.0,127.0,127.0,123.0,87.0,-82.0
126.0,128.0,127.0,128.0,128.0,130.0,112.0,127.0,27.0,-120.0,-67.0,127.0,127.0,127.0,123.0,87.0,-82.0
127.0,127.0,127.0,128.0,128.0,131.0,111.0,127.0,27.0,-120.0,-67.0,127.0,127.0,127.0,123.0,87.0,-82.0
127.0,127.0,127.0,128.0,127.0,130.0,111.0,127.0,27.0,-120.0,-67.0,127.0,127.0,127.0,123.0,87.0,-82.0
127.0,127.0,127.0,128.0,127.0,130.0,112.0,127.0,27.0,-120.0,-67.0,127.0,127.0,127.0,123.0,87.0,-82.0
127.0,127.0,127.0,128.0,127.0,130.0,112.0,127.0,27.0,-120.0,-67.0,127.0,127.0,127.0,123.0,87.0,-82.0
126.0,127.0,127.0,128.0,127.0,131.0,111.0,127.0,27.0,-121.0,-67.0,127.0,127.0,127.0,123.0,87.0,-82.0
126.0,127.0,127.0,128.0,127.0,131.0,112.0,127.0,27.0,-121.0,-67.0,127.0,127.0,127.0,123.0,87.0,-82.0
126.0,127.0,127.0,128.0,127.0,131.0,112.0,127.0,27.0,-121.0,-67.0,127.0,127.0,127.0,123.0,87.0,-82.0
127.0,127.0,127.0,128.0,127.0,130.0,111.0,127.0,27.0,-121.0,-67.0,127.0,127.0,127.0,123.0,87.0,-82.0
126.0,127.0,127.0,128.0,126.0,130.0,111.0,127.0,27.0,-121.0,-67.0,127.0,127.0,127.0,123.0,87.0,-82.0
126.0,127.0,127.0,128.0,126.0,130.0,111.0,127.0,27.0,-121.0,-67.0,127.0,127.0,127.0,123.0,87.0,-82.0
127.0,127.0,127.0,128.0,126.0,130.0,112.0,127.0,27.0,-121.0,-67.0,127.0,127.0,127.0,123.0,87.0,-82.0
127.0,127.0,127.0,128.0,126.0,130.0,111.0,127.0,27.0,-121.0,-67.0,127.0,127.0,127.0,123.0,87.0,-82.0
127.0,127.0,127.0,128.0,126.0,130.0,111.0,127.0,27.0,-121.0,-67.0,127.0,127.0,127.0,123.0,87.0,-82.0
126.0,127.0,127.0,128.0,127.0,130.0,111.0,127.0,27.0,-121.0,-67.0,127.0,127.0,127.0,123.0,87.0,-82.0
126.0,127.0,127.0,128.0,126.0,130.0,112.0,127.0,27.0,-121.0,-67.0,127.0,127.0,127.0,123.0,87.0,-82.0
127.0,127.0,127.0,128.0,126.0,130.0,112.0,127.0,27.0,-121.0,-67.0,127.0,127.0,127.0,123.0,87.0,-82.0
127.0,127.0,127.0,128.0,126.0,130.0,112.0,127.0,27.0,-121.0,-67.0,127.0,127.0,127.0,123.0,87.0,-82.0
126.0,127.0,127.0,128.0,126.0,130.0,112.0,127.0,27.0,-121.0,-67.0,127.0,127.0,127.0,123.0,87.0,-82.0
127.0,127.0,127.0,128.0,126.0,130.0,112.0,127.0,27.0,-121.0,-67.0,127.0,127.0,127.0,123.0,87.0,-82.0
127.0,127.0,127.0,128.0,126.0,130.0,112.0,127.0,27.0,-121.0,-67.0,127.0,127.0,127.0,123.0,87.0,-82.0
127.0,127.0,127.0,128.0,126.0,130.0,111.0,127.0,27.0,-121.0,-67.0,127.0,127.0,127.0,123.0,87.0,-82.0
127.0,127.0,127.0,128.0,126.0,130.0,111.0,127.0,27.0,-121.0,-67.0,127.0,127.0,127.0,123.0,87.0,-82.0
127.0,127.0,127.0,128.0,126.0,130.0,111.0,127.0,27.0,-121.0,-67.0,127.0,127.0,127.0,123.0,87.0,-82.0
127.0,127.0,127.0,128.0,126.0,130.0,111.0,127.0,27.0,-121.0,-67.0,127.0,127.0,127.0,123.0,87.0,-82.0
126.0,127.0,127.0,128.0,127.0,131.0,112.0,127.0,27.0,-121.0,-67.0,127.0,127.0,127.0,123.0,87.0,-82.0
126.0,127.0,126.0,128.0,127.0,131.0,112.0,127.0,27.0,-121.0,-67.0,127.0,127.0,127.0,123.0,87.0,-82.0
126.0,127.0,126.0,128.0,127.0,131.0,112.0,127.0,27.0,-121.0,-67.0,127.0,127.0,127.0,123.0,87.0,-82.0
127.0,127.0,127.0,128.0,127.0,131.0,112.0,127.0,27.0,-121.0,-67.0,127.0,127.0,127.0,123.0,87.0,-82.0
127.0,127.0,126.0,128.0,127.0,131.0,112.0,127.0,27.0,-121.0,-67.0,127.0,127.0,127.0,123.0,87.0,-82.0
127.0,127.0,127.0,128.0,127.0,131.0,112.0,127.0,27.0,-121.0,-67.0,127.0,127.0,127.0,123.0,87.0,-82.0
127.0,127.0,126.0,128.0,127.0,131.0,112.0,127.0,27.0,-121.0,-67.0,127.0,127.0,127.0,123.0,87.0,-82.0
127.0,127.0,127.0,128.0,127.0,130.0,111.0,127.0,27.0,-121.0,-67.0,127.0,127.0,127.0,123.0,87.0,-82.0
126.0,127.0,127.0,128.0,127.0,130.0,111.0,127.0,27.0,-121.0,-67.0,127.0,127.0,127.0,123.0,87.0,-82.0
126.0,127.0,127.0,128.0,127.0,130.0,112.0,127.0,27.0,-121.0,-67.0,127.0,127.0,127.0,123.0,87.0,-82.0
127.0,127.0,127.0,128.0,127.0,130.0,110.0,127.0,27.0,-121.0,-67.0,127.0,127.0,127.0,123.0,87.0,-82.0
127.0,127.0,127.0,128.0,127.0,130.0,111.0,127.0,27.0,-121.0,-67.0,127.0,127.0,127.0,123.0,87.0,-82.0
127.0,127.0,127.0,128.0,127.0,130.0,110.0,127.0,27.0,-121.0,-67.0,127.0,127.0,127.0,123.0,87.0,-82.0
127.0,127.0,127.0,128.0,127.0,130.0,111.0,127.0,27.0,-121.0,-67.0,127.0,127.0,127.0,123.0,87.0,-82.0
127.0,127.0,127.0,128.0,127.0,130.0,111.0,127.0,27.0,-121.0,-67.0,127.0,127.0,127.0,123.0,87.0,-82.0
127.0,127.0,127.0,128.0,127.0,130.0,111.0,127.0,27.0,-121.0,-67.0,127.0,127.0,127.0,123.0,87.0,-82.0
127.0,127.0,127.0,128.0,127.0,130.0,111.0,127.0,27.0,-121.0,-67.0,127.0,127.0,127.0,123.0,87.0,-82.0
127.0,127.0,127.0,128.0,127.0,130.0,111.0,127.0,27.0,-121.0,-67.0,127.0,127.0,127.0,123.0,87.0,-82.0
127.0,127.0,127.0,128.0,127.0,130.0,110.0,127.0,27.0,-121.0,-67.0,127.0,127.0,127.0,123.0,87.0,-82.0
127.0,127.0,127.0,128.0,127.0,130.0,110.0,127.0,27.0,-121.0,-67.0,127.0,127.0,127.0,123.0,87.0,-82.0
126.0,127.0,127.0,127.0,127.0,130.0,111.0,127.0,27.0,-121.0,-67.0,127.0,127.0,127.0,123.0,87.0,-82.0
127.0,127.0,127.0,127.0,127.0,130.0,111.0,127.0,27.0,-121.0,-67.0,127.0,127.0,127.0,123.0,87.0,-82.0
127.0,127.0,127.0,127.0,127.0,130.0,111.0,127.0,27.0,-121.0,-67.0,127.0,127.0,127.0,123.0,87.0,-82.0
127.0,127.0,127.0,127.0,127.0,130.0,111.0,127.0,27.0,-121.0,-67.0,127.0,127.0,127.0,123.0,87.0,-82.0
127.0,127.0,127.0,127.0,127.0,130.0,111.0,127.0,27.0,-121.0,-67.0,127.0,127.0,127.0,123.0,87.0,-82.0
127.0,127.0,127.0,127.0,127.0,130.0,110.0,127.0,27.0,-121.0,-67.0,127.0,127.0,127.0,123.0,87.0,-82.0
127.0,127.0,127.0,127.0,127.0,129.0,110.0,127.0,27.0,-121.0,-67.0,127.0,127.0,127.0,123.0,87.0,-82.0
127.0,127.0,127.0,127.0,127.0,129.0,110.0,127.0,27.0,-121.0,-67.0,127.0,127.0,127.0,123.0,87.0,-82.0
127.0,127.0,127.0,127.0,127.0,129.0,110.0,127.0,27.0,-121.0,-67.0,127.0,127.0,127.0,123.0,87.0,-82.0
127.0,127.0,127.0,127.0,127.0,129.0,110.0,127.0,27.0,-121.0,-67.0,127.0,127.0,127.0,123.0,87.0,-82.0
127.0,127.0,127.0,127.0,126.0,129.0,110.0,127.0,27.0,-121.0,-67.0,127.0,127.0,127.0,123.0,87.0,-82.0
126.0,127.0,127.0,127.0,126.0,129.0,110.0,127.0,27.0,-121.0,-67.0,127.0,127.0,127.0,123.0,87.0,-82.0
127.0,127.0,127.0,127.0,127.0,130.0,110.0,127.0,27.0,-121.0,-67.0,127.0,127.0,127.0,123.0,87.0,-82.0
127.0,127.0,127.0,127.0,127.0,130.0,111.0,127.0,27.0,-121.0,-67.0,127.0,127.0,127.0,123.0,87.0,-82.0
127.0,127.0,127.0,127.0,127.0,129.0,110.0,127.0,27.0,-121.0,-67.0,127.0,127.0,127.0,123.0,87.0,-82.0
126.0,126.0,127.0,127.0,127.0,129.0,109.0,127.0,27.0,-121.0,-67.0,127.0,127.0,127.0,123.0,87.0,-82.0
126.0,126.0,127.0,127.0,127.0,129.0,110.0,127.0,27.0,-121.0,-67.0,127.0,127.0,127.0,123.0,87.0,-82.0
126.0,127.0,127.0,127.0,127.0,129.0,110.0,127.0,27.0,-121.0,-67.0,127.0,127.0,127.0,123.0,87.0,-82.0
127.0,127.0,127.0,127.0,127.0,129.0,110.0,127.0,27.0,-121.0,-67.0,127.0,127.0,127.0,123.0,87.0,-82.0
127.0,126.0,127.0,127.0,127.0,129.0,110.0,127.0,27.0,-121.0,-67.0,127.0,127.0,127.0,123.0,87.0,-82.0
127.0,127.0,127.0,127.0,127.0,130.0,110.0,127.0,27.0,-121.0,-67.0,127.0,127.0,127.0,123.0,87.0,-82.0
127.0,127.0,127.0,127.0,127.0,130.0,110.0,127.0,27.0,-121.0,-67.0,127.0,127.0,127.0,123.0,87.0,-82.0
127.0,127.0,127.0,127.0,127.0,129.0,110.0,127.0,27.0,-121.0,-67.0,127.0,127.0,127.0,123.0,87.0,-82.0
127.0,127.0,127.0,127.0,127.0,129.0,110.0,127.0,27.0,-121.0,-67.0,127.0,127.0,127.0,123.0,87.0,-82.0
127.0,127.0,127.0,127.0,127.0,129.0,110.0,127.0,27.0,-121.0,-67.0,127.0,127.0,127.0,123.0,87.0,-82.0
127.0,127.0,127.0,127.0,127.0,130.0,110.0,127.0,27.0,-121.0,-67.0,127.0,127.0,127.0,123.0,87.0,-82.0
127.0,127.0,126.0,127.0,127.0,130.0,110.0,127.0,27.0,-121.0,-67.0,127.0,127.0,127.0,123.0,87.0,-82.0
127.0,127.0,127.0,127.0,127.0,130.0,110.0,127.0,27.0,-121.0,-67.0,127.0,127.0,127.0,123.0,87.0,-82.0
127.0,127.0,127.0,127.0,127.0,130.0,110.0,127.0,27.0,-121.0,-67.0,127.0,127.0,127.0,123.0,87.0,-82.0
127.0,127.0,127.0,127.0,127.0,130.0,110.0,127.0,27.0,-121.0,-67.0,127.0,127.0,127.0,123.0,87.0,-82.0
127.0,127.0,127.0,127.0,127.0,130.0,111.0,127.0,27.0,-121.0,-67.0,127.0,127.0,127.0,123.0,87.0,-82.0
127.0,127.0,127.0,127.0,127.0,130.0,110.0,127.0,27.0,-121.0,-67.0,127.0,127.0,127.0,123.0,87.0,-82.0
127.0,127.0,127.0,127.0,127.0,129.0,110.0,127.0,27.0,-121.0,-67.0,127.0,127.0,127.0,123.0,87.0,-82.0
127.0,127.0,127.0,127.0,127.0,129.0,110.0,127.0,27.0,-121.0,-67.0,127.0,127.0,127.0,123.0,87.0,-82.0
127.0,127.0,127.0,127.0,127.0,130.0,110.0,127.0,27.0,-121.0,-67.0,127.0,127.0,127.0,123.0,87.0,-82.0
127.0,127.0,127.0,127.0,127.0,130.0,111.0,127.0,27.0,-121.0,-67.0,127.0,127.0,127.0,123.0,87.0,-82.0
127.0,127.0,127.0,127.0,127.0,130.0,111.0,127.0,27.0,-121.0,-67.0,127.0,127.0,127.0,123.0,87.0,-82.0
127.0,127.0,127.0,127.0,127.0,130.0,111.0,127.0,27.0,-121.0,-67.0,127.0,127.0,127.0,123.0,87.0,-82.0
127.0,127.0,127.0,127.0,127.0,130.0,111.0,127.0,27.0,-121.0,-67.0,127.0,127.0,127.0,123.0,87.0,-82.0
127.0,127.0,127.0,127.0,127.0,130.0,111.0,127.0,27.0,-121.0,-67.0,127.0,127.0,127.0,123.0,87.0,-82.0
127.0,127.0,127.0,127.0,127.0,130.0,110.0,127.0,27.0,-121.0,-67.0,127.0,127.0,127.0,123.0,87.0,-82.0
126.0,127.0,127.0,127.0,127.0,129.0,110.0,127.0,27.0,-121.0,-67.0,127.0,127.0,127.0,123.0,87.0,-82.0
126.0,127.0,127.0,127.0,127.0,129.0,110.0,127.0,27.0,-121.0,-67.0,127.0,127.0,127.0,123.0,87.0,-82.0
126.0,127.0,127.0,127.0,127.0,129.0,110.0,127.0,27.0,-121.0,-67.0,127.0,127.0,127.0,123.0,87.0,-82.0
126.0,127.0,127.0,127.0,127.0,130.0,111.0,127.0,27.0,-121.0,-67.0,127.0,127.0,127.0,123.0,87.0,-82.0
126.0,127.0,127.0,127.0,127.0,130.0,111.0,127.0,27.0,-121.0,-67.0,127.0,127.0,127.0,123.0,87.0,-82.0
126.0,127.0,127.0,127.0,127.0,130.0,111.0,127.0,27.0,-121.0,-67.0,127.0,127.0,127.0,123.0,87.0,-82.0
127.0,127.0,127.0,127.0,127.0,130.0,111.0,127.0,27.0,-121.0,-67.0,127.0,127.0,127.0,123.0,87.0,-82.0
127.0,127.0,127.0,127.0,127.0,130.0,111.0,127.0,27.0,-121.0,-67.0,127.0,127.0,127.0,123.0,87.0,-82.0
127.0,127.0,127.0,127.0,127.0,130.0,111.0,127.0,27.0,-121.0,-67.0,127.0,127.0,127.0,123.0,87.0,-82.0
126.0,127.0,127.0,127.0,127.0,129.0,110.0,127.0,27.0,-121.0,-67.0,127.0,127.0,127.0,123.0,87.0,-82.0
126.0,127.0,127.0,127.0,127.0,129.0,110.0,127.0,27.0,-121.0,-67.0,127.0,127.0,127.0,123.0,87.0,-82.0
126.0,127.0,127.0,127.0,127.0,129.0,110.0,127.0,27.0,-121.0,-67.0,127.0,127.0,127.0,123.0,87.0,-82.0
126.0,128.0,127.0,127.0,127.0,130.0,110.0,127.0,27.0,-121.0,-67.0,127.0,127.0,127.0,123.0,87.0,-82.0
126.0,128.0,127.0,127.0,127.0,130.0,110.0,127.0,27.0,-121.0,-67.0,127.0,127.0,127.0,123.0,87.0,-82.0
126.0,127.0,127.0,127.0,127.0,130.0,110.0,127.0,27.0,-121.0,-67.0,127.0,127.0,127.0,123.0,87.0,-82.0
126.0,127.0,127.0,127.0,127.0,130.0,110.0,127.0,27.0,-121.0,-67.0,127.0,127.0,127.0,123.0,87.0,-82.0
126.0,127.0,127.0,127.0,127.0,130.0,110.0,127.0,27.0,-121.0,-67.0,127.0,127.0,127.0,123.0,87.0,-82.0
127.0,127.0,127.0,127.0,127.0,130.0,110.0,127.0,27.0,-121.0,-67.0,127.0,127.0,127.0,123.0,87.0,-82.0
127.0,127.0,127.0,127.0,127.0,129.0,110.0,127.0,27.0,-121.0,-67.0,127.0,127.0,127.0,123.0,87.0,-82.0
127.0,127.0,127.0,127.0,127.0,129.0,109.0,127.0,27.0,-121.0,-67.0,127.0,127.0,127.0,123.0,87.0,-82.0
127.0,127.0,127.0,127.0,127.0,129.0,109.0,127.0,27.0,-121.0,-67.0,127.0,127.0,127.0,123.0,87.0,-82.0
127.0,128.0,127.0,127.0,127.0,129.0,110.0,127.0,27.0,-121.0,-67.0,127.0,127.0,127.0,123.0,87.0,-82.0
127.0,128.0,127.0,127.0,127.0,129.0,110.0,127.0,27.0,-121.0,-67.0,127.0,127.0,127.0,123.0,87.0,-82.0
127.0,128.0,127.0,127.0,127.0,129.0,110.0,127.0,27.0,-121.0,-67.0,127.0,127.0,127.0,123.0,87.0,-82.0
127.0,127.0,127.0,127.0,127.0,129.0,110.0,127.0,27.0,-121.0,-67.0,127.0,127.0,127.0,123.0,87.0,-82.0
127.0,127.0,127.0,127.0,127.0,129.0,110.0,127.0,27.0,-121.0,-67.0,127.0,127.0,127.0,123.0,87.0,-82.0
127.0,127.0,127.0,127.0,127.0,129.0,110.0,127.0,27.0,-121.0,-67.0,127.0,127.0,127.0,123.0,87.0,-82.0
127.0,127.0,127.0,127.0,127.0,129.0,110.0,127.0,27.0,-121.0,-67.0,127.0,127.0,127.0,123.0,87.0,-82.0
127.0,127.0,127.0,127.0,127.0,129.0,109.0,127.0,27.0,-121.0,-67.0,127.0,127.0,127.0,123.0,87.0,-82.0
127.0,127.0,127.0,127.0,127.0,129.0,109.0,127.0,27.0,-121.0,-67.0,127.0,127.0,127.0,123.0,87.0,-82.0
126.0,127.0,127.0,127.0,127.0,129.0,109.0,127.0,27.0,-121.0,-67.0,127.0,127.0,127.0,123.0,87.0,-82.0
127.0,127.0,126.0,127.0,127.0,129.0,109.0,127.0,27.0,-121.0,-67.0,127.0,127.0,127.0,123.0,87.0,-82.0
127.0,127.0,127.0,127.0,127.0,129.0,109.0,127.0,27.0,-121.0,-67.0,127.0,127.0,127.0,123.0,87.0,-82.0
127.0,127.0,127.0,127.0,127.0,129.0,109.0,127.0,27.0,-121.0,-67.0,127.0,127.0,127.0,123.0,87.0,-82.0
127.0,127.0,127.0,127.0,127.0,129.0,109.0,127.0,27.0,-121.0,-67.0,127.0,127.0,127.0,123.0,87.0,-82.0
127.0,127.0,127.0,127.0,127.0,129.0,109.0,127.0,27.0,-121.0,-67.0,127.0,127.0,127.0,123.0,87.0,-82.0
127.0,127.0,127.0,127.0,127.0,129.0,109.0,127.0,27.0,-121.0,-67.0,127.0,127.0,127.0,123.0,87.0,-82.0
127.0,127.0,127.0,127.0,127.0,129.0,109.0,127.0,27.0,-121.0,-67.0,127.0,127.0,127.0,123.0,87.0,-82.0
127.0,127.0,127.0,127.0,127.0,129.0,109.0,127.0,27.0,-121.0,-67.0,127.0,127.0,127.0,123.0,87.0,-82.0
126.0,128.0,127.0,127.0,127.0,129.0,109.0,127.0,27.0,-121.0,-67.0,127.0,127.0,127.0,123.0,87.0,-82.0
127.0,128.0,127.0,127.0,127.0,129.0,110.0,127.0,27.0,-121.0,-67.0,127.0,127.0,127.0,123.0,87.0,-82.0
127.0,128.0,127.0,127.0,127.0,129.0,110.0,127.0,27.0,-121.0,-67.0,127.0,127.0,127.0,123.0,87.0,-82.0
127.0,128.0,127.0,127.0,127.0,129.0,110.0,127.0,27.0,-121.0,-67.0,127.0,127.0,127.0,123.0,87.0,-82.0
127.0,128.0,127.0,127.0,127.0,129.0,110.0,127.0,27.0,-121.0,-67.0,127.0,127.0,127.0,123.0,87.0,-82.0
127.0,128.0,127.0,127.0,127.0,129.0,110.0,127.0,27.0,-121.0,-67.0,127.0,127.0,127.0,123.0,87.0,-82.0
127.0,127.0,127.0,127.0,127.0,129.0,110.0,127.0,27.0,-121.0,-67.0,127.0,127.0,127.0,123.0,87.0,-82.0
127.0,127.0,127.0,127.0,127.0,129.0,109.0,127.0,27.0,-121.0,-67.0,127.0,127.0,127.0,123.0,87.0,-82.0
127.0,128.0,127.0,127.0,127.0,129.0,109.0,127.0,27.0,-121.0,-67.0,127.0,127.0,127.0,123.0,87.0,-82.0
127.0,127.0,127.0,127.0,127.0,129.0,109.0,127.0,27.0,-121.0,-67.0,127.0,127.0,127.0,123.0,87.0,-82.0
127.0,127.0,127.0,127.0,127.0,128.0,108.0,127.0,27.0,-120.0,-67.0,127.0,127.0,127.0,123.0,87.0,-82.0
127.0,127.0,127.0,127.0,127.0,128.0,108.0,127.0,27.0,-120.0,-67.0,127.0,127.0,127.0,123.0,87.0,-82.0
127.0,127.0,127.0,127.0,127.0,128.0,108.0,127.0,27.0,-120.0,-67.0,127.0,127.0,127.0,123.0,87.0,-82.0
127.0,128.0,127.0,127.0,127.0,129.0,109.0,127.0,27.0,-120.0,-67.0,127.0,127.0,127.0,123.0,87.0,-82.0
127.0,127.0,127.0,127.0,127.0,129.0,109.0,127.0,27.0,-120.0,-67.0,127.0,127.0,127.0,123.0,87.0,-82.0
127.0,127.0,127.0,127.0,127.0,129.0,109.0,127.0,27.0,-120.0,-67.0,127.0,127.0,127.0,123.0,87.0,-82.0
127.0,127.0,127.0,127.0,127.0,128.0,108.0,127.0,27.0,-120.0,-67.0,127.0,127.0,127.0,123.0,87.0,-82.0
127.0,127.0,127.0,127.0,127.0,128.0,108.0,127.0,27.0,-120.0,-67.0,127.0,127.0,127.0,123.0,87.0,-82.0
127.0,127.0,127.0,127.0,127.0,128.0,108.0,127.0,27.0,-120.0,-67.0,127.0,127.0,127.0,123.0,87.0,-82.0
127.0,127.0,127.0,127.0,127.0,128.0,108.0,127.0,27.0,-120.0,-67.0,127.0,127.0,127.0,123.0,87.0,-82.0
126.0,127.0,127.0,127.0,127.0,129.0,109.0,127.0,27.0,-120.0,-67.0,127.0,127.0,127.0,123.0,87.0,-82.0
127.0,127.0,127.0,127.0,127.0,129.0,109.0,127.0,27.0,-120.0,-67.0,127.0,127.0,127.0,123.0,87.0,-82.0
127.0,127.0,127.0,127.0,127.0,129.0,109.0,127.0,27.0,-120.0,-67.0,127.0,127.0,127.0,123.0,87.0,-82.0
127.0,127.0,127.0,127.0,127.0,129.0,109.0,127.0,27.0,-120.0,-67.0,127.0,127.0,127.0,123.0,87.0,-82.0
127.0,127.0,127.0,127.0,127.0,129.0,109.0,127.0,27.0,-120.0,-67.0,127.0,127.0,127.0,123.0,87.0,-82.0
126.0,127.0,127.0,127.0,127.0,129.0,110.0,127.0,27.0,-120.0,-67.0,127.0,127.0,127.0,123.0,87.0,-82.0
126.0,127.0,127.0,127.0,127.0,129.0,109.0,127.0,27.0,-120.0,-67.0,127.0,127.0,127.0,123.0,87.0,-82.0
126.0,127.0,127.0,127.0,127.0,129.0,109.0,127.0,27.0,-120.0,-67.0,127.0,127.0,127.0,123.0,87.0,-82.0
126.0,127.0,127.0,127.0,127.0,129.0,109.0,127.0,27.0,-120.0,-67.0,127.0,127.0,127.0,123.0,87.0,-82.0
126.0,127.0,127.0,127.0,127.0,129.0,109.0,127.0,27.0,-120.0,-67.0,127.0,127.0,127.0,123.0,87.0,-82.0
126.0,127.0,126.0,127.0,127.0,129.0,110.0,127.0,27.0,-120.0,-68.0,127.0,127.0,127.0,123.0,87.0,-82.0
126.0,127.0,126.0,127.0,127.0,129.0,109.0,127.0,27.0,-120.0,-68.0,127.0,127.0,127.0,123.0,87.0,-82.0
126.0,127.0,126.0,127.0,127.0,129.0,109.0,127.0,27.0,-120.0,-68.0,127.0,127.0,127.0,123.0,87.0,-82.0
126.0,127.0,127.0,127.0,127.0,129.0,110.0,127.0,27.0,-120.0,-68.0,127.0,127.0,127.0,123.0,87.0,-82.0
126.0,127.0,127.0,127.0,127.0,129.0,109.0,127.0,27.0,-120.0,-68.0,127.0,127.0,127.0,123.0,87.0,-82.0
126.0,127.0,127.0,127.0,127.0,129.0,109.0,127.0,27.0,-120.0,-68.0,127.0,127.0,127.0,123.0,87.0,-82.0
126.0,127.0,127.0,127.0,127.0,129.0,109.0,127.0,27.0,-120.0,-68.0,127.0,127.0,127.0,123.0,87.0,-82.0
126.0,127.0,126.0,127.0,127.0,129.0,109.0,127.0,27.0,-120.0,-68.0,127.0,127.0,127.0,123.0,87.0,-82.0
126.0,127.0,126.0,127.0,127.0,129.0,109.0,127.0,27.0,-120.0,-68.0,127.0,127.0,127.0,123.0,87.0,-82.0
126.0,127.0,126.0,127.0,127.0,129.0,109.0,127.0,27.0,-120.0,-68.0,127.0,127.0,127.0,123.0,87.0,-82.0
126.0,127.0,127.0,127.0,127.0,129.0,109.0,127.0,27.0,-120.0,-68.0,127.0,127.0,127.0,123.0,87.0,-82.0
126.0,127.0,127.0,127.0,127.0,129.0,109.0,127.0,27.0,-120.0,-68.0,127.0,127.0,127.0,123.0,87.0,-82.0
126.0,127.0,127.0,127.0,127.0,129.0,109.0,127.0,27.0,-120.0,-68.0,127.0,127.0,127.0,123.0,87.0,-82.0
126.0,127.0,127.0,127.0,127.0,129.0,109.0,127.0,27.0,-120.0,-68.0,127.0,127.0,127.0,123.0,87.0,-82.0
126.0,127.0,127.0,127.0,127.0,129.0,109.0,127.0,27.0,-120.0,-68.0,127.0,127.0,127.0,123.0,87.0,-82.0
126.0,127.0,127.0,127.0,127.0,129.0,109.0,127.0,27.0,-120.0,-68.0,127.0,127.0,127.0,123.0,87.0,-82.0
126.0,127.0,127.0,127.0,127.0,129.0,109.0,127.0,27.0,-120.0,-68.0,127.0,127.0,127.0,123.0,87.0,-82.0
126.0,128.0,126.0,127.0,127.0,129.0,109.0,127.0,27.0,-120.0,-68.0,127.0,127.0,127.0,123.0,87.0,-82.0
126.0,127.0,127.0,127.0,127.0,129.0,109.0,127.0,27.0,-120.0,-68.0,127.0,127.0,127.0,123.0,87.0,-82.0
126.0,127.0,127.0,127.0,127.0,129.0,109.0,127.0,27.0,-120.0,-68.0,127.0,127.0,127.0,123.0,87.0,-82.0
127.0,127.0,126.0,127.0,127.0,129.0,108.0,127.0,27.0,-120.0,-68.0,127.0,127.0,127.0,123.0,87.0,-82.0
127.0,127.0,126.0,127.0,127.0,129.0,108.0,127.0,27.0,-120.0,-68.0,127.0,127.0,127.0,123.0,87.0,-82.0
127.0,127.0,127.0,127.0,127.0,128.0,108.0,127.0,27.0,-120.0,-68.0,127.0,127.0,127.0,123.0,87.0,-82.0
127.0,127.0,127.0,127.0,127.0,129.0,109.0,127.0,27.0,-120.0,-68.0,127.0,127.0,127.0,123.0,87.0,-82.0
127.0,127.0,126.0,127.0,127.0,129.0,109.0,127.0,27.0,-120.0,-68.0,127.0,127.0,127.0,123.0,87.0,-82.0
127.0,127.0,126.0,127.0,127.0,129.0,109.0,127.0,27.0,-120.0,-68.0,127.0,127.0,127.0,123.0,87.0,-82.0
127.0,127.0,126.0,127.0,127.0,129.0,109.0,127.0,27.0,-120.0,-68.0,127.0,127.0,127.0,123.0,87.0,-82.0
127.0,127.0,126.0,127.0,127.0,129.0,109.0,127.0,27.0,-120.0,-68.0,127.0,127.0,127.0,123.0,87.0,-82.0
127.0,127.0,126.0,127.0,127.0,129.0,109.0,127.0,27.0,-120.0,-68.0,127.0,127.0,127.0,123.0,87.0,-82.0
127.0,127.0,126.0,127.0,127.0,129.0,109.0,127.0,27.0,-120.0,-68.0,127.0,127.0,127.0,123.0,87.0,-82.0
127.0,127.0,127.0,127.0,126.0,128.0,108.0,127.0,27.0,-120.0,-68.0,127.0,127.0,127.0,123.0,87.0,-82.0
127.0,127.0,127.0,127.0,127.0,128.0,108.0,127.0,27.0,-120.0,-68.0,127.0,127.0,127.0,123.0,87.0,-82.0
127.0,127.0,127.0,127.0,127.0,128.0,108.0,127.0,27.0,-120.0,-68.0,127.0,127.0,127.0,123.0,87.0,-82.0
126.0,127.0,127.0,127.0,127.0,129.0,108.0,127.0,27.0,-120.0,-68.0,127.0,127.0,127.0,123.0,87.0,-82.0
127.0,127.0,127.0,127.0,127.0,128.0,108.0,127.0,27.0,-120.0,-68.0,127.0,127.0,127.0,123.0,87.0,-82.0
127.0,127.0,127.0,127.0,127.0,129.0,108.0,127.0,27.0,-120.0,-68.0,127.0,127.0,127.0,123.0,87.0,-82.0
127.0,127.0,127.0,127.0,127.0,129.0,108.0,127.0,27.0,-120.0,-68.0,127.0,127.0,127.0,123.0,87.0,-82.0
127.0,127.0,127.0,127.0,127.0,128.0,108.0,127.0,27.0,-120.0,-68.0,127.0,127.0,127.0,123.0,87.0,-82.0
127.0,127.0,127.0,127.0,126.0,128.0,108.0,127.0,27.0,-120.0,-68.0,127.0,127.0,127.0,123.0,87.0,-82.0
127.0,127.0,127.0,127.0,126.0,128.0,108.0,127.0,27.0,-120.0,-68.0,127.0,127.0,127.0,123.0,87.0,-82.0
126.0,127.0,127.0,127.0,127.0,128.0,107.0,127.0,26.0,-120.0,-68.0,127.0,127.0,127.0,123.0,87.0,-82.0
126.0,127.0,127.0,127.0,127.0,128.0,107.0,127.0,26.0,-120.0,-68.0,127.0,127.0,127.0,123.0,87.0,-82.0
126.0,128.0,127.0,127.0,127.0,128.0,108.0,127.0,26.0,-120.0,-68.0,127.0,127.0,127.0,123.0,87.0,-82.0
126.0,128.0,127.0,127.0,127.0,128.0,108.0,127.0,26.0,-120.0,-68.0,127.0,127.0,127.0,123.0,87.0,-82.0
126.0,128.0,127.0,127.0,127.0,128.0,108.0,127.0,26.0,-120.0,-68.0,127.0,127.0,127.0,123.0,87.0,-82.0
126.0,128.0,127.0,127.0,127.0,128.0,108.0,127.0,26.0,-120.0,-68.0,127.0,127.0,127.0,123.0,87.0,-82.0
126.0,128.0,127.0,127.0,127.0,128.0,108.0,127.0,26.0,-120.0,-68.0,127.0,127.0,127.0,123.0,87.0,-82.0
127.0,128.0,127.0,127.0,127.0,128.0,108.0,127.0,26.0,-120.0,-68.0,127.0,127.0,127.0,123.0,87.0,-82.0
127.0,127.0,127.0,127.0,127.0,128.0,107.0,127.0,26.0,-120.0,-68.0,127.0,127.0,127.0,123.0,87.0,-82.0
127.0,127.0,127.0,127.0,127.0,128.0,107.0,127.0,26.0,-120.0,-68.0,127.0,127.0,127.0,123.0,87.0,-82.0
126.0,128.0,127.0,127.0,127.0,128.0,107.0,127.0,26.0,-120.0,-67.0,127.0,127.0,127.0,123.0,87.0,-82.0
126.0,128.0,127.0,127.0,127.0,128.0,108.0,127.0,26.0,-120.0,-67.0,127.0,127.0,127.0,123.0,87.0,-82.0
126.0,128.0,127.0,127.0,127.0,128.0,108.0,127.0,26.0,-120.0,-67.0,127.0,127.0,127.0,123.0,87.0,-82.0
126.0,128.0,127.0,127.0,127.0,128.0,108.0,127.0,26.0,-120.0,-67.0,127.0,127.0,127.0,123.0,87.0,-82.0
126.0,128.0,127.0,127.0,127.0,128.0,108.0,127.0,26.0,-120.0,-67.0,127.0,127.0,127.0,123.0,87.0,-82.0
126.0,127.0,127.0,127.0,127.0,128.0,108.0,127.0,26.0,-120.0,-67.0,127.0,127.0,127.0,123.0,87.0,-82.0
126.0,127.0,127.0,127.0,127.0,128.0,108.0,127.0,26.0,-120.0,-67.0,127.0,127.0,127.0,123.0,87.0,-82.0
126.0,127.0,127.0,127.0,127.0,128.0,107.0,127.0,26.0,-120.0,-67.0,127.0,127.0,127.0,123.0,87.0,-82.0
126.0,127.0,127.0,127.0,127.0,128.0,107.0,127.0,26.0,-120.0,-67.0,127.0,127.0,127.0,123.0,87.0,-82.0
126.0,127.0,127.0,127.0,127.0,128.0,107.0,127.0,26.0,-120.0,-67.0,127.0,127.0,127.0,123.0,87.0,-82.0
127.0,127.0,127.0,127.0,126.0,128.0,107.0,127.0,26.0,-120.0,-67.0,127.0,127.0,127.0,123.0,87.0,-82.0
127.0,127.0,127.0,127.0,127.0,128.0,107.0,127.0,26.0,-120.0,-67.0,127.0,127.0,127.0,123.0,87.0,-82.0
127.0,127.0,127.0,127.0,127.0,128.0,107.0,127.0,26.0,-120.0,-67.0,127.0,127.0,127.0,123.0,87.0,-82.0
126.0,127.0,127.0,127.0,127.0,128.0,107.0,127.0,26.0,-120.0,-67.0,127.0,127.0,127.0,123.0,87.0,-82.0
127.0,127.0,127.0,127.0,127.0,128.0,107.0,127.0,26.0,-120.0,-67.0,127.0,127.0,127.0,123.0,87.0,-82.0
127.0,127.0,126.0,127.0,127.0,128.0,107.0,127.0,26.0,-120.0,-67.0,127.0,127.0,127.0,123.0,87.0,-82.0
127.0,127.0,126.0,127.0,127.0,128.0,107.0,127.0,26.0,-120.0,-67.0,127.0,127.0,127.0,123.0,87.0,-82.0
127.0,127.0,126.0,127.0,127.0,128.0,107.0,127.0,26.0,-120.0,-67.0,127.0,127.0,127.0,123.0,87.0,-82.0
126.0,127.0,127.0,127.0,127.0,128.0,107.0,127.0,26.0,-120.0,-67.0,127.0,127.0,127.0,123.0,87.0,-82.0
127.0,127.0,127.0,127.0,126.0,128.0,107.0,127.0,26.0,-120.0,-67.0,127.0,127.0,127.0,123.0,87.0,-82.0
127.0,127.0,127.0,127.0,127.0,128.0,108.0,127.0,26.0,-120.0,-67.0,127.0,127.0,127.0,123.0,87.0,-82.0
127.0,127.0,127.0,127.0,127.0,128.0,108.0,127.0,26.0,-120.0,-67.0,127.0,127.0,127.0,123.0,87.0,-82.0
127.0,127.0,127.0,127.0,127.0,128.0,107.0,127.0,26.0,-120.0,-67.0,127.0,127.0,127.0,123.0,87.0,-82.0
127.0,127.0,127.0,127.0,127.0,128.0,107.0,127.0,26.0,-120.0,-67.0,127.0,127.0,127.0,123.0,87.0,-82.0
127.0,127.0,127.0,127.0,127.0,128.0,107.0,127.0,26.0,-120.0,-67.0,127.0,127.0,127.0,123.0,87.0,-82.0
127.0,127.0,127.0,127.0,127.0,128.0,107.0,127.0,26.0,-120.0,-67.0,127.0,127.0,127.0,123.0,87.0,-82.0
127.0,127.0,127.0,127.0,127.0,128.0,107.0,127.0,26.0,-120.0,-67.0,127.0,127.0,127.0,123.0,87.0,-82.0
126.0,128.0,127.0,127.0,127.0,128.0,108.0,127.0,26.0,-120.0,-67.0,127.0,127.0,127.0,123.0,87.0,-82.0
126.0,127.0,127.0,127.0,127.0,128.0,108.0,127.0,26.0,-120.0,-67.0,127.0,127.0,127.0,123.0,87.0,-82.0
127.0,127.0,127.0,127.0,127.0,128.0,108.0,127.0,26.0,-120.0,-67.0,127.0,127.0,127.0,123.0,87.0,-82.0
126.0,127.0,127.0,127.0,127.0,128.0,106.0,127.0,26.0,-120.0,-67.0,127.0,127.0,127.0,123.0,87.0,-82.0
126.0,127.0,127.0,127.0,127.0,127.0,106.0,127.0,26.0,-120.0,-67.0,127.0,127.0,127.0,123.0,87.0,-82.0
126.0,127.0,127.0,127.0,127.0,127.0,107.0,127.0,26.0,-120.0,-67.0,127.0,127.0,127.0,123.0,87.0,-82.0
126.0,127.0,127.0,127.0,127.0,127.0,107.0,127.0,26.0,-120.0,-67.0,127.0,127.0,127.0,123.0,87.0,-82.0
126.0,127.0,127.0,127.0,127.0,127.0,107.0,127.0,26.0,-120.0,-67.0,127.0,127.0,127.0,123.0,87.0,-82.0
126.0,127.0,127.0,127.0,127.0,127.0,107.0,127.0,26.0,-120.0,-67.0,127.0,127.0,127.0,123.0,87.0,-82.0
126.0,127.0,127.0,127.0,127.0,128.0,107.0,127.0,26.0,-120.0,-67.0,127.0,127.0,127.0,123.0,87.0,-82.0
126.0,127.0,127.0,127.0,127.0,128.0,107.0,127.0,26.0,-120.0,-67.0,127.0,127.0,127.0,123.0,87.0,-82.0
126.0,127.0,127.0,127.0,127.0,128.0,107.0,127.0,26.0,-120.0,-67.0,127.0,127.0,127.0,123.0,87.0,-82.0
126.0,127.0,127.0,127.0,127.0,128.0,106.0,127.0,26.0,-120.0,-67.0,127.0,127.0,127.0,123.0,87.0,-82.0
127.0,127.0,127.0,127.0,126.0,128.0,108.0,127.0,25.0,-120.0,-67.0,127.0,127.0,127.0,123.0,87.0,-82.0
127.0,127.0,128.0,127.0,126.0,128.0,108.0,127.0,25.0,-120.0,-67.0,127.0,127.0,127.0,123.0,87.0,-82.0
127.0,127.0,128.0,127.0,126.0,128.0,107.0,127.0,25.0,-120.0,-67.0,127.0,127.0,127.0,123.0,87.0,-82.0
127.0,127.0,128.0,127.0,126.0,128.0,107.0,127.0,25.0,-120.0,-67.0,127.0,127.0,127.0,123.0,87.0,-82.0
127.0,127.0,128.0,127.0,126.0,128.0,107.0,127.0,25.0,-120.0,-67.0,127.0,127.0,127.0,123.0,87.0,-82.0
126.0,127.0,127.0,127.0,127.0,128.0,108.0,127.0,25.0,-120.0,-67.0,127.0,127.0,127.0,123.0,87.0,-82.0
126.0,127.0,127.0,127.0,127.0,128.0,108.0,127.0,25.0,-120.0,-67.0,127.0,127.0,127.0,123.0,87.0,-82.0
127.0,127.0,127.0,127.0,127.0,128.0,108.0,127.0,25.0,-120.0,-67.0,127.0,127.0,127.0,123.0,87.0,-82.0
127.0,127.0,127.0,127.0,126.0,128.0,108.0,127.0,25.0,-120.0,-67.0,127.0,127.0,127.0,123.0,87.0,-82.0
127.0,127.0,127.0,127.0,126.0,128.0,108.0,127.0,25.0,-120.0,-67.0,127.0,127.0,127.0,123.0,87.0,-82.0
127.0,127.0,128.0,127.0,127.0,129.0,109.0,127.0,25.0,-120.0,-67.0,127.0,127.0,127.0,123.0,87.0,-82.0
127.0,127.0,127.0,127.0,127.0,129.0,109.0,127.0,25.0,-120.0,-67.0,127.0,127.0,127.0,123.0,87.0,-82.0
127.0,127.0,127.0,127.0,127.0,129.0,109.0,127.0,25.0,-120.0,-67.0,127.0,127.0,127.0,123.0,87.0,-82.0
127.0,127.0,127.0,127.0,127.0,129.0,109.0,127.0,25.0,-120.0,-67.0,127.0,127.0,127.0,123.0,87.0,-82.0
127.0,127.0,127.0,127.0,127.0,129.0,110.0,127.0,25.0,-120.0,-67.0,127.0,127.0,127.0,123.0,87.0,-82.0
127.0,127.0,127.0,127.0,127.0,129.0,110.0,127.0,25.0,-120.0,-67.0,127.0,127.0,127.0,123.0,87.0,-82.0
127.0,127.0,127.0,127.0,127.0,129.0,110.0,127.0,25.0,-120.0,-67.0,127.0,127.0,127.0,123.0,87.0,-82.0
127.0,127.0,128.0,127.0,127.0,129.0,109.0,127.0,25.0,-120.0,-67.0,127.0,127.0,127.0,123.0,87.0,-82.0
127.0,127.0,127.0,127.0,127.0,129.0,109.0,127.0,25.0,-120.0,-67.0,127.0,127.0,127.0,123.0,87.0,-82.0
127.0,127.0,127.0,127.0,127.0,129.0,109.0,127.0,25.0,-120.0,-67.0,127.0,127.0,127.0,123.0,87.0,-82.0
126.0,127.0,127.0,127.0,126.0,129.0,109.0,126.0,24.0,-120.0,-67.0,127.0,127.0,127.0,123.0,87.0,-82.0
126.0,127.0,127.0,127.0,126.0,129.0,109.0,126.0,24.0,-120.0,-67.0,127.0,127.0,127.0,123.0,87.0,-82.0
127.0,127.0,127.0,127.0,126.0,129.0,109.0,126.0,24.0,-120.0,-67.0,127.0,127.0,127.0,123.0,87.0,-82.0
127.0,127.0,127.0,127.0,127.0,129.0,110.0,127.0,24.0,-120.0,-67.0,127.0,127.0,127.0,123.0,87.0,-82.0
127.0,127.0,127.0,127.0,127.0,129.0,110.0,127.0,24.0,-120.0,-67.0,127.0,127.0,127.0,123.0,87.0,-82.0
127.0,127.0,127.0,127.0,127.0,129.0,110.0,127.0,24.0,-120.0,-67.0,127.0,127.0,127.0,123.0,87.0,-82.0
126.0,127.0,127.0,127.0,127.0,129.0,110.0,127.0,24.0,-120.0,-67.0,127.0,127.0,127.0,123.0,87.0,-82.0
126.0,127.0,127.0,127.0,127.0,129.0,110.0,127.0,24.0,-120.0,-67.0,127.0,127.0,127.0,123.0,87.0,-82.0
126.0,127.0,127.0,127.0,127.0,129.0,110.0,126.0,24.0,-120.0,-67.0,127.0,127.0,127.0,123.0,87.0,-82.0
127.0,127.0,127.0,127.0,126.0,129.0,109.0,126.0,24.0,-120.0,-67.0,127.0,127.0,127.0,123.0,87.0,-82.0
126.0,127.0,127.0,127.0,126.0,129.0,110.0,126.0,24.0,-119.0,-67.0,127.0,127.0,127.0,123.0,87.0,-82.0
126.0,127.0,127.0,127.0,126.0,129.0,110.0,126.0,24.0,-119.0,-67.0,127.0,127.0,127.0,123.0,87.0,-82.0
126.0,127.0,127.0,127.0,126.0,129.0,110.0,126.0,24.0,-119.0,-67.0,127.0,127.0,127.0,123.0,87.0,-82.0
126.0,127.0,127.0,127.0,126.0,129.0,110.0,126.0,24.0,-119.0,-67.0,127.0,127.0,127.0,123.0,87.0,-82.0
126.0,127.0,127.0,127.0,126.0,129.0,110.0,126.0,24.0,-119.0,-67.0,127.0,127.0,127.0,123.0,87.0,-82.0
126.0,127.0,127.0,127.0,127.0,130.0,110.0,127.0,24.0,-119.0,-67.0,127.0,127.0,127.0,123.0,87.0,-82.0
126.0,128.0,127.0,127.0,127.0,130.0,110.0,126.0,24.0,-119.0,-67.0,127.0,127.0,127.0,123.0,87.0,-82.0
126.0,127.0,127.0,127.0,126.0,130.0,110.0,126.0,24.0,-119.0,-67.0,127.0,127.0,127.0,123.0,87.0,-82.0
126.0,127.0,127.0,127.0,126.0,129.0,110.0,126.0,24.0,-119.0,-67.0,127.0,127.0,127.0,123.0,87.0,-82.0
126.0,127.0,127.0,127.0,126.0,129.0,110.0,126.0,24.0,-119.0,-67.0,127.0,127.0,127.0,123.0,87.0,-82.0
126.0,128.0,127.0,127.0,127.0,129.0,110.0,126.0,24.0,-119.0,-67.0,127.0,127.0,127.0,123.0,87.0,-82.0
126.0,127.0,127.0,127.0,127.0,129.0,109.0,126.0,24.0,-119.0,-67.0,127.0,127.0,127.0,123.0,87.0,-82.0
126.0,127.0,127.0,127.0,127.0,129.0,109.0,126.0,24.0,-119.0,-67.0,127.0,127.0,127.0,123.0,87.0,-82.0
126.0,127.0,127.0,127.0,127.0,129.0,109.0,126.0,24.0,-119.0,-67.0,127.0,127.0,127.0,123.0,87.0,-82.0
126.0,127.0,127.0,127.0,127.0,129.0,109.0,126.0,24.0,-119.0,-67.0,127.0,127.0,127.0,123.0,87.0,-82.0
126.0,127.0,127.0,127.0,127.0,129.0,110.0,126.0,24.0,-119.0,-67.0,127.0,127.0,127.0,123.0,87.0,-82.0
126.0,127.0,127.0,127.0,127.0,129.0,109.0,126.0,24.0,-119.0,-67.0,127.0,127.0,127.0,123.0,87.0,-82.0
126.0,128.0,127.0,127.0,127.0,129.0,110.0,126.0,24.0,-119.0,-67.0,127.0,127.0,127.0,123.0,87.0,-82.0
126.0,128.0,127.0,127.0,127.0,129.0,110.0,127.0,24.0,-119.0,-67.0,127.0,127.0,127.0,123.0,87.0,-82.0
126.0,128.0,127.0,127.0,127.0,129.0,110.0,127.0,24.0,-119.0,-67.0,127.0,127.0,127.0,123.0,87.0,-82.0
126.0,127.0,127.0,127.0,126.0,128.0,107.0,126.0,25.0,-120.0,-67.0,127.0,127.0,127.0,123.0,87.0,-82.0
126.0,127.0,127.0,127.0,127.0,128.0,107.0,126.0,25.0,-120.0,-67.0,127.0,127.0,127.0,123.0,87.0,-82.0
126.0,127.0,127.0,127.0,126.0,128.0,107.0,126.0,25.0,-120.0,-67.0,127.0,127.0,127.0,123.0,87.0,-82.0
126.0,127.0,127.0,127.0,127.0,128.0,108.0,126.0,25.0,-120.0,-67.0,127.0,127.0,127.0,123.0,87.0,-82.0
126.0,127.0,127.0,127.0,126.0,128.0,108.0,127.0,25.0,-120.0,-67.0,127.0,127.0,127.0,123.0,87.0,-82.0
126.0,127.0,127.0,127.0,126.0,128.0,108.0,126.0,25.0,-120.0,-67.0,127.0,127.0,127.0,123.0,87.0,-82.0
126.0,127.0,127.0,127.0,126.0,128.0,107.0,126.0,25.0,-120.0,-67.0,127.0,127.0,127.0,123.0,87.0,-82.0
126.0,127.0,127.0,127.0,126.0,128.0,107.0,126.0,25.0,-120.0,-67.0,127.0,127.0,127.0,123.0,87.0,-82.0
126.0,127.0,127.0,127.0,126.0,128.0,107.0,126.0,25.0,-120.0,-67.0,127.0,127.0,127.0,123.0,87.0,-82.0
126.0,127.0,127.0,127.0,126.0,128.0,107.0,127.0,25.0,-120.0,-67.0,127.0,127.0,127.0,123.0,87.0,-82.0
126.0,127.0,127.0,127.0,127.0,128.0,108.0,127.0,27.0,-120.0,-66.0,127.0,127.0,127.0,123.0,87.0,-82.0
126.0,127.0,127.0,127.0,127.0,128.0,108.0,127.0,27.0,-120.0,-66.0,127.0,127.0,127.0,123.0,87.0,-82.0
126.0,128.0,127.0,127.0,127.0,128.0,107.0,127.0,27.0,-120.0,-66.0,127.0,127.0,127.0,123.0,87.0,-82.0
126.0,128.0,127.0,127.0,127.0,128.0,108.0,127.0,27.0,-120.0,-66.0,127.0,127.0,127.0,123.0,87.0,-82.0
126.0,128.0,127.0,127.0,127.0,128.0,108.0,127.0,27.0,-120.0,-66.0,127.0,127.0,127.0,123.0,87.0,-82.0
126.0,128.0,127.0,127.0,127.0,128.0,107.0,127.0,27.0,-120.0,-66.0,127.0,127.0,127.0,123.0,87.0,-82.0
126.0,128.0,127.0,127.0,127.0,128.0,107.0,127.0,27.0,-120.0,-66.0,127.0,127.0,127.0,123.0,87.0,-82.0
126.0,128.0,127.0,127.0,127.0,128.0,107.0,127.0,27.0,-120.0,-66.0,127.0,127.0,127.0,123.0,87.0,-82.0
126.0,128.0,127.0,127.0,127.0,128.0,107.0,127.0,27.0,-120.0,-66.0,127.0,127.0,127.0,123.0,87.0,-82.0
126.0,127.0,127.0,127.0,127.0,128.0,107.0,127.0,27.0,-120.0,-66.0,127.0,127.0,127.0,123.0,87.0,-82.0
126.0,127.0,127.0,127.0,127.0,127.0,106.0,127.0,28.0,-121.0,-66.0,127.0,127.0,127.0,123.0,87.0,-82.0
126.0,128.0,127.0,127.0,127.0,128.0,107.0,126.0,28.0,-121.0,-66.0,127.0,127.0,127.0,123.0,87.0,-82.0
126.0,128.0,127.0,127.0,127.0,128.0,107.0,127.0,28.0,-121.0,-66.0,127.0,127.0,127.0,123.0,87.0,-82.0
126.0,128.0,127.0,127.0,127.0,128.0,107.0,127.0,28.0,-121.0,-66.0,127.0,127.0,127.0,123.0,87.0,-82.0
126.0,128.0,127.0,127.0,127.0,128.0,107.0,127.0,28.0,-121.0,-66.0,127.0,127.0,127.0,123.0,87.0,-82.0
126.0,128.0,127.0,127.0,127.0,128.0,106.0,127.0,28.0,-121.0,-66.0,127.0,127.0,127.0,123.0,87.0,-82.0
126.0,128.0,127.0,127.0,127.0,128.0,106.0,127.0,28.0,-121.0,-66.0,127.0,127.0,127.0,123.0,87.0,-82.0
126.0,128.0,127.0,127.0,127.0,128.0,106.0,127.0,28.0,-121.0,-66.0,127.0,127.0,127.0,123.0,87.0,-82.0
126.0,127.0,127.0,127.0,127.0,128.0,107.0,126.0,28.0,-121.0,-66.0,127.0,127.0,127.0,123.0,87.0,-82.0
126.0,127.0,127.0,127.0,127.0,128.0,106.0,126.0,28.0,-121.0,-66.0,127.0,127.0,127.0,123.0,87.0,-82.0
126.0,127.0,127.0,127.0,127.0,127.0,106.0,127.0,30.0,-121.0,-66.0,127.0,127.0,127.0,123.0,87.0,-82.0
126.0,128.0,127.0,127.0,127.0,128.0,107.0,127.0,30.0,-121.0,-66.0,127.0,127.0,127.0,123.0,87.0,-82.0
126.0,128.0,127.0,127.0,127.0,128.0,106.0,127.0,30.0,-121.0,-66.0,127.0,127.0,127.0,123.0,87.0,-82.0
126.0,128.0,127.0,127.0,127.0,128.0,106.0,127.0,30.0,-121.0,-66.0,127.0,127.0,127.0,123.0,87.0,-82.0
126.0,128.0,127.0,127.0,127.0,127.0,106.0,127.0,30.0,-121.0,-66.0,127.0,127.0,127.0,123.0,87.0,-82.0
126.0,128.0,127.0,127.0,127.0,127.0,106.0,127.0,30.0,-121.0,-66.0,127.0,127.0,127.0,123.0,87.0,-82.0
126.0,128.0,127.0,127.0,127.0,127.0,106.0,127.0,30.0,-121.0,-66.0,127.0,127.0,127.0,123.0,87.0,-82.0
126.0,127.0,127.0,127.0,127.0,127.0,107.0,127.0,30.0,-121.0,-66.0,127.0,127.0,127.0,123.0,87.0,-82.0
126.0,127.0,127.0,127.0,127.0,127.0,107.0,127.0,30.0,-121.0,-66.0,127.0,127.0,127.0,123.0,87.0,-82.0
126.0,127.0,127.0,127.0,127.0,127.0,107.0,127.0,30.0,-121.0,-66.0,127.0,127.0,127.0,123.0,87.0,-82.0
126.0,127.0,127.0,127.0,127.0,128.0,108.0,127.0,31.0,-122.0,-66.0,127.0,127.0,127.0,123.0,87.0,-82.0
126.0,127.0,127.0,127.0,127.0,128.0,108.0,127.0,31.0,-122.0,-66.0,127.0,127.0,127.0,123.0,87.0,-82.0
126.0,127.0,127.0,127.0,127.0,128.0,108.0,128.0,31.0,-122.0,-66.0,127.0,127.0,127.0,123.0,87.0,-82.0
126.0,127.0,127.0,127.0,127.0,128.0,108.0,128.0,31.0,-122.0,-66.0,127.0,127.0,127.0,123.0,87.0,-82.0
126.0,127.0,127.0,127.0,127.0,128.0,108.0,128.0,31.0,-122.0,-66.0,127.0,127.0,127.0,123.0,87.0,-82.0
126.0,127.0,127.0,127.0,127.0,128.0,108.0,128.0,31.0,-122.0,-66.0,127.0,127.0,127.0,123.0,87.0,-82.0
126.0,127.0,127.0,127.0,127.0,128.0,107.0,127.0,31.0,-122.0,-66.0,127.0,127.0,127.0,123.0,87.0,-82.0
126.0,127.0,127.0,127.0,127.0,128.0,107.0,127.0,31.0,-122.0,-66.0,127.0,127.0,127.0,123.0,87.0,-82.0
126.0,127.0,127.0,127.0,127.0,128.0,107.0,127.0,31.0,-122.0,-66.0,127.0,127.0,127.0,123.0,87.0,-82.0
126.0,127.0,127.0,127.0,127.0,128.0,107.0,127.0,31.0,-122.0,-66.0,127.0,127.0,127.0,123.0,87.0,-82.0
126.0,127.0,127.0,127.0,126.0,128.0,108.0,128.0,31.0,-122.0,-67.0,127.0,127.0,127.0,123.0,87.0,-82.0
126.0,127.0,127.0,127.0,127.0,128.0,108.0,128.0,31.0,-122.0,-67.0,127.0,127.0,127.0,123.0,87.0,-82.0
126.0,127.0,127.0,127.0,127.0,128.0,108.0,128.0,31.0,-122.0,-67.0,127.0,127.0,127.0,123.0,87.0,-82.0
126.0,127.0,127.0,127.0,127.0,128.0,108.0,128.0,31.0,-122.0,-67.0,127.0,127.0,127.0,123.0,87.0,-82.0
126.0,127.0,127.0,127.0,127.0,128.0,108.0,128.0,31.0,-122.0,-67.0,127.0,127.0,127.0,123.0,87.0,-82.0
126.0,127.0,127.0,127.0,126.0,128.0,108.0,128.0,31.0,-122.0,-67.0,127.0,127.0,127.0,123.0,87.0,-82.0
126.0,127.0,128.0,127.0,126.0,128.0,107.0,128.0,31.0,-122.0,-67.0,127.0,127.0,127.0,123.0,87.0,-82.0
126.0,127.0,127.0,127.0,126.0,128.0,107.0,128.0,31.0,-122.0,-67.0,127.0,127.0,127.0,123.0,87.0,-82.0
126.0,127.0,127.0,127.0,126.0,128.0,107.0,128.0,31.0,-122.0,-67.0,127.0,127.0,127.0,123.0,87.0,-82.0
126.0,127.0,127.0,127.0,127.0,128.0,108.0,128.0,31.0,-122.0,-67.0,127.0,127.0,127.0,123.0,87.0,-82.0
127.0,127.0,127.0,127.0,127.0,129.0,109.0,129.0,30.0,-122.0,-67.0,127.0,127.0,127.0,123.0,87.0,-82.0
127.0,127.0,127.0,127.0,127.0,129.0,109.0,128.0,30.0,-122.0,-67.0,127.0,127.0,127.0,123.0,87.0,-82.0
127.0,127.0,127.0,127.0,127.0,129.0,109.0,128.0,30.0,-122.0,-67.0,127.0,127.0,127.0,123.0,87.0,-82.0
127.0,127.0,127.0,127.0,127.0,129.0,109.0,128.0,30.0,-122.0,-67.0,127.0,127.0,127.0,123.0,87.0,-82.0
127.0,126.0,128.0,127.0,127.0,129.0,109.0,128.0,30.0,-122.0,-67.0,127.0,127.0,127.0,123.0,87.0,-82.0
127.0,126.0,128.0,127.0,127.0,129.0,109.0,128.0,30.0,-122.0,-67.0,127.0,127.0,127.0,123.0,87.0,-82.0
127.0,126.0,128.0,127.0,127.0,129.0,108.0,128.0,30.0,-122.0,-67.0,127.0,127.0,127.0,123.0,87.0,-82.0
127.0,126.0,127.0,127.0,127.0,129.0,108.0,128.0,30.0,-122.0,-67.0,127.0,127.0,127.0,123.0,87.0,-82.0
127.0,127.0,127.0,127.0,127.0,129.0,108.0,128.0,30.0,-122.0,-67.0,127.0,127.0,127.0,123.0,87.0,-82.0
127.0,127.0,127.0,127.0,127.0,129.0,109.0,129.0,30.0,-122.0,-67.0,127.0,127.0,127.0,123.0,87.0,-82.0
127.0,127.0,127.0,127.0,127.0,129.0,109.0,129.0,29.0,-122.0,-68.0,127.0,127.0,127.0,123.0,87.0,-82.0
127.0,127.0,127.0,127.0,127.0,129.0,109.0,129.0,29.0,-122.0,-68.0,127.0,127.0,127.0,123.0,87.0,-82.0
127.0,127.0,127.0,126.0,126.0,129.0,108.0,129.0,29.0,-122.0,-68.0,127.0,127.0,127.0,123.0,87.0,-82.0
127.0,126.0,127.0,126.0,127.0,129.0,109.0,129.0,29.0,-122.0,-68.0,127.0,127.0,127.0,123.0,87.0,-82.0
127.0,126.0,127.0,126.0,126.0,129.0,108.0,129.0,29.0,-122.0,-68.0,127.0,127.0,127.0,123.0,87.0,-82.0
127.0,126.0,127.0,126.0,126.0,129.0,108.0,129.0,29.0,-122.0,-68.0,127.0,127.0,127.0,123.0,87.0,-82.0
127.0,126.0,127.0,127.0,126.0,129.0,108.0,129.0,29.0,-122.0,-68.0,127.0,127.0,127.0,123.0,87.0,-82.0
127.0,127.0,127.0,127.0,127.0,129.0,109.0,129.0,29.0,-122.0,-68.0,127.0,127.0,127.0,123.0,87.0,-82.0
127.0,127.0,127.0,127.0,127.0,129.0,109.0,129.0,29.0,-122.0,-68.0,127.0,127.0,127.0,123.0,87.0,-82.0
127.0,127.0,127.0,127.0,127.0,129.0,109.0,129.0,29.0,-122.0,-68.0,127.0,127.0,127.0,123.0,87.0,-82.0
127.0,127.0,127.0,127.0,127.0,129.0,108.0,129.0,28.0,-122.0,-69.0,127.0,127.0,127.0,123.0,87.0,-82.0
127.0,127.0,127.0,127.0,127.0,129.0,108.0,129.0,28.0,-122.0,-69.0,127.0,127.0,127.0,123.0,87.0,-82.0
127.0,126.0,127.0,127.0,127.0,128.0,108.0,129.0,28.0,-122.0,-69.0,127.0,127.0,127.0,123.0,87.0,-82.0
127.0,126.0,127.0,127.0,127.0,128.0,108.0,129.0,28.0,-122.0,-69.0,127.0,127.0,127.0,123.0,87.0,-82.0
127.0,126.0,127.0,127.0,127.0,128.0,108.0,129.0,28.0,-122.0,-69.0,127.0,127.0,127.0,123.0,87.0,-82.0
127.0,126.0,127.0,127.0,127.0,128.0,108.0,129.0,28.0,-122.0,-69.0,127.0,127.0,127.0,123.0,87.0,-82.0
127.0,126.0,127.0,127.0,127.0,128.0,108.0,129.0,28.0,-122.0,-69.0,127.0,127.0,127.0,123.0,87.0,-82.0
127.0,126.0,127.0,127.0,127.0,128.0,108.0,129.0,28.0,-122.0,-69.0,127.0,127.0,127.0,123.0,87.0,-82.0
127.0,126.0,127.0,127.0,127.0,128.0,108.0,129.0,28.0,-122.0,-69.0,127.0,127.0,127.0,123.0,87.0,-82.0
127.0,127.0,127.0,127.0,127.0,128.0,108.0,129.0,28.0,-122.0,-69.0,127.0,127.0,127.0,123.0,87.0,-82.0
127.0,126.0,128.0,127.0,127.0,128.0,108.0,128.0,26.0,-121.0,-69.0,127.0,127.0,127.0,123.0,87.0,-82.0
127.0,126.0,128.0,127.0,127.0,128.0,109.0,128.0,26.0,-121.0,-69.0,127.0,127.0,127.0,123.0,87.0,-82.0
127.0,127.0,127.0,127.0,127.0,128.0,108.0,128.0,26.0,-121.0,-69.0,127.0,127.0,127.0,123.0,87.0,-82.0
127.0,127.0,127.0,127.0,127.0,129.0,108.0,129.0,26.0,-121.0,-69.0,127.0,127.0,127.0,123.0,87.0,-82.0
127.0,127.0,127.0,127.0,127.0,129.0,108.0,129.0,26.0,-121.0,-69.0,127.0,127.0,127.0,123.0,87.0,-82.0
127.0,127.0,127.0,127.0,127.0,128.0,108.0,129.0,26.0,-121.0,-69.0,127.0,127.0,127.0,123.0,87.0,-82.0
127.0,127.0,127.0,127.0,127.0,128.0,108.0,129.0,26.0,-121.0,-69.0,127.0,127.0,127.0,123.0,87.0,-82.0
127.0,127.0,127.0,127.0,127.0,128.0,108.0,129.0,26.0,-121.0,-69.0,127.0,127.0,127.0,123.0,87.0,-82.0
127.0,127.0,127.0,127.0,127.0,128.0,109.0,129.0,26.0,-121.0,-69.0,127.0,127.0,127.0,123.0,87.0,-82.0
127.0,127.0,127.0,127.0,127.0,128.0,108.0,128.0,26.0,-121.0,-69.0,127.0,127.0,127.0,123.0,87.0,-82.0
127.0,126.0,127.0,127.0,127.0,128.0,107.0,128.0,25.0,-121.0,-69.0,127.0,127.0,127.0,123.0,87.0,-82.0
127.0,126.0,127.0,127.0,127.0,128.0,107.0,128.0,25.0,-121.0,-69.0,127.0,127.0,127.0,123.0,87.0,-82.0
127.0,127.0,127.0,127.0,127.0,128.0,108.0,128.0,25.0,-121.0,-69.0,127.0,127.0,127.0,123.0,87.0,-82.0
127.0,127.0,127.0,127.0,127.0,128.0,108.0,128.0,25.0,-121.0,-69.0,127.0,127.0,127.0,123.0,87.0,-82.0
127.0,127.0,127.0,127.0,127.0,128.0,108.0,128.0,25.0,-121.0,-69.0,127.0,127.0,127.0,123.0,87.0,-82.0
127.0,127.0,127.0,127.0,127.0,128.0,108.0,128.0,25.0,-121.0,-69.0,127.0,127.0,127.0,123.0,87.0,-82.0
127.0,127.0,127.0,127.0,127.0,128.0,108.0,128.0,25.0,-121.0,-69.0,127.0,127.0,127.0,123.0,87.0,-82.0
127.0,127.0,127.0,127.0,127.0,128.0,108.0,128.0,25.0,-121.0,-69.0,127.0,127.0,127.0,123.0,87.0,-82.0
127.0,127.0,127.0,127.0,127.0,128.0,107.0,128.0,25.0,-121.0,-69.0,127.0,127.0,127.0,123.0,87.0,-82.0
127.0,127.0,127.0,127.0,127.0,128.0,107.0,128.0,25.0,-121.0,-69.0,127.0,127.0,127.0,123.0,87.0,-82.0
