emg1,emg2,emg3,emg4,emg5,emg6,emg7,emg8,acc_x,acc_y,acc_z,gyro_x,gyro_y,gyro_z,angle_pitch,angle_roll,angle_yaw
126.0,127.0,127.0,127.0,127.0,123.0,106.0,127.0,23.0,-118.0,-71.0,127.0,127.0,127.0,123.0,87.0,-77.0
126.0,127.0,127.0,127.0,127.0,123.0,106.0,127.0,23.0,-118.0,-71.0,127.0,127.0,127.0,123.0,87.0,-77.0
127.0,127.0,127.0,127.0,127.0,123.0,106.0,127.0,23.0,-118.0,-71.0,127.0,127.0,127.0,123.0,87.0,-77.0
126.0,126.0,127.0,127.0,127.0,122.0,105.0,127.0,23.0,-118.0,-71.0,127.0,127.0,127.0,123.0,87.0,-77.0
126.0,126.0,127.0,127.0,127.0,122.0,106.0,127.0,23.0,-118.0,-71.0,127.0,127.0,127.0,123.0,87.0,-77.0
126.0,127.0,127.0,127.0,127.0,122.0,106.0,127.0,23.0,-118.0,-71.0,127.0,127.0,127.0,123.0,87.0,-77.0
126.0,127.0,127.0,127.0,127.0,123.0,106.0,127.0,23.0,-118.0,-71.0,127.0,127.0,127.0,123.0,87.0,-77.0
126.0,127.0,127.0,127.0,127.0,123.0,106.0,127.0,23.0,-118.0,-71.0,127.0,127.0,127.0,123.0,87.0,-77.0
126.0,127.0,127.0,127.0,127.0,123.0,106.0,127.0,23.0,-118.0,-71.0,127.0,127.0,127.0,123.0,87.0,-77.0
126.0,126.0,127.0,127.0,127.0,123.0,106.0,127.0,23.0,-118.0,-71.0,127.0,127.0,127.0,123.0,87.0,-77.0
127.0,127.0,127.0,127.0,126.0,123.0,106.0,127.0,23.0,-118.0,-71.0,127.0,127.0,127.0,123.0,87.0,-77.0
127.0,127.0,128.0,127.0,127.0,123.0,106.0,127.0,23.0,-118.0,-71.0,127.0,127.0,127.0,123.0,87.0,-77.0
126.0,126.0,127.0,127.0,126.0,122.0,105.0,127.0,23.0,-118.0,-71.0,127.0,127.0,127.0,123.0,87.0,-77.0
126.0,126.0,127.0,127.0,126.0,122.0,105.0,127.0,23.0,-118.0,-71.0,127.0,127.0,127.0,123.0,87.0,-77.0
126.0,126.0,127.0,127.0,126.0,122.0,105.0,127.0,23.0,-118.0,-71.0,127.0,127.0,127.0,123.0,87.0,-77.0
127.0,127.0,127.0,127.0,127.0,123.0,106.0,127.0,23.0,-118.0,-71.0,127.0,127.0,127.0,123.0,87.0,-77.0
127.0,127.0,127.0,127.0,127.0,123.0,106.0,127.0,23.0,-118.0,-71.0,127.0,127.0,127.0,123.0,87.0,-77.0
127.0,127.0,127.0,127.0,127.0,123.0,106.0,127.0,23.0,-118.0,-71.0,127.0,127.0,127.0,123.0,87.0,-77.0
127.0,127.0,127.0,127.0,127.0,123.0,106.0,127.0,23.0,-118.0,-71.0,127.0,127.0,127.0,123.0,87.0,-77.0
127.0,127.0,127.0,127.0,127.0,123.0,106.0,127.0,23.0,-118.0,-71.0,127.0,127.0,127.0,123.0,87.0,-77.0
126.0,127.0,128.0,127.0,127.0,123.0,105.0,127.0,23.0,-118.0,-71.0,127.0,127.0,127.0,123.0,87.0,-77.0
126.0,126.0,127.0,127.0,127.0,122.0,104.0,127.0,23.0,-118.0,-71.0,127.0,127.0,127.0,123.0,87.0,-77.0
126.0,126.0,127.0,127.0,127.0,122.0,104.0,127.0,23.0,-118.0,-71.0,127.0,127.0,127.0,123.0,87.0,-77.0
126.0,127.0,127.0,127.0,127.0,122.0,105.0,127.0,23.0,-118.0,-71.0,127.0,127.0,127.0,123.0,87.0,-77.0
126.0,127.0,128.0,127.0,127.0,123.0,105.0,127.0,23.0,-118.0,-71.0,127.0,127.0,127.0,123.0,87.0,-77.0
126.0,127.0,128.0,127.0,127.0,123.0,105.0,127.0,23.0,-118.0,-71.0,127.0,127.0,127.0,123.0,87.0,-77.0
126.0,127.0,128.0,127.0,127.0,123.0,105.0,127.0,23.0,-118.0,-71.0,127.0,127.0,127.0,123.0,87.0,-77.0
126.0,127.0,128.0,127.0,127.0,122.0,106.0,127.0,23.0,-118.0,-71.0,127.0,127.0,127.0,123.0,87.0,-77.0
126.0,127.0,127.0,127.0,127.0,122.0,105.0,127.0,23.0,-118.0,-71.0,127.0,127.0,127.0,123.0,87.0,-77.0
126.0,127.0,127.0,127.0,127.0,122.0,105.0,127.0,23.0,-118.0,-71.0,127.0,127.0,127.0,123.0,87.0,-77.0
127.0,127.0,127.0,127.0,127.0,122.0,104.0,128.0,23.0,-118.0,-71.0,127.0,127.0,127.0,123.0,87.0,-77.0
127.0,126.0,127.0,127.0,127.0,122.0,104.0,128.0,23.0,-118.0,-71.0,127.0,127.0,127.0,123.0,87.0,-77.0
126.0,127.0,127.0,127.0,127.0,122.0,104.0,128.0,23.0,-118.0,-71.0,127.0,127.0,127.0,123.0,87.0,-77.0
127.0,127.0,127.0,127.0,127.0,122.0,104.0,127.0,23.0,-118.0,-71.0,127.0,127.0,127.0,123.0,87.0,-77.0
127.0,127.0,127.0,127.0,127.0,122.0,104.0,128.0,23.0,-118.0,-71.0,127.0,127.0,127.0,123.0,87.0,-77.0
127.0,127.0,127.0,127.0,127.0,122.0,104.0,128.0,23.0,-118.0,-71.0,127.0,127.0,127.0,123.0,87.0,-77.0
127.0,127.0,127.0,127.0,127.0,122.0,105.0,128.0,23.0,-118.0,-71.0,127.0,127.0,127.0,123.0,87.0,-77.0
127.0,127.0,127.0,127.0,127.0,122.0,105.0,128.0,23.0,-118.0,-71.0,127.0,127.0,127.0,123.0,87.0,-77.0
127.0,127.0,127.0,127.0,127.0,122.0,105.0,128.0,23.0,-118.0,-71.0,127.0,127.0,127.0,123.0,87.0,-77.0
127.0,127.0,127.0,127.0,127.0,122.0,104.0,128.0,23.0,-118.0,-71.0,127.0,127.0,127.0,123.0,87.0,-77.0
127.0,127.0,127.0,127.0,127.0,121.0,104.0,128.0,23.0,-118.0,-71.0,127.0,127.0,127.0,123.0,87.0,-77.0
127.0,127.0,127.0,127.0,127.0,121.0,104.0,128.0,23.0,-118.0,-71.0,127.0,127.0,127.0,123.0,87.0,-77.0
127.0,127.0,128.0,127.0,127.0,122.0,104.0,128.0,23.0,-118.0,-71.0,127.0,127.0,127.0,123.0,87.0,-77.0
127.0,127.0,128.0,127.0,127.0,122.0,105.0,128.0,23.0,-118.0,-71.0,127.0,127.0,127.0,123.0,87.0,-77.0
127.0,127.0,128.0,127.0,127.0,122.0,104.0,128.0,23.0,-118.0,-71.0,127.0,127.0,127.0,123.0,87.0,-77.0
127.0,127.0,128.0,127.0,127.0,122.0,104.0,128.0,23.0,-118.0,-71.0,127.0,127.0,127.0,123.0,87.0,-77.0
127.0,127.0,128.0,127.0,127.0,122.0,104.0,128.0,23.0,-118.0,-71.0,127.0,127.0,127.0,123.0,87.0,-77.0
127.0,127.0,128.0,127.0,127.0,122.0,104.0,128.0,23.0,-118.0,-71.0,127.0,127.0,127.0,123.0,87.0,-77.0
127.0,127.0,128.0,127.0,127.0,122.0,104.0,128.0,23.0,-118.0,-71.0,127.0,127.0,127.0,123.0,87.0,-77.0
127.0,127.0,127.0,127.0,127.0,121.0,104.0,128.0,23.0,-118.0,-71.0,127.0,127.0,127.0,123.0,87.0,-77.0
126.0,126.0,127.0,127.0,126.0,121.0,103.0,127.0,23.0,-118.0,-71.0,127.0,127.0,127.0,123.0,87.0,-77.0
126.0,126.0,127.0,127.0,126.0,121.0,102.0,127.0,23.0,-118.0,-71.0,127.0,127.0,127.0,123.0,87.0,-77.0
126.0,126.0,127.0,127.0,126.0,121.0,102.0,127.0,23.0,-118.0,-71.0,127.0,127.0,127.0,123.0,87.0,-77.0
126.0,126.0,127.0,127.0,126.0,121.0,102.0,127.0,23.0,-118.0,-71.0,127.0,127.0,127.0,123.0,87.0,-77.0
127.0,126.0,127.0,127.0,126.0,121.0,102.0,127.0,23.0,-118.0,-71.0,127.0,127.0,127.0,123.0,87.0,-77.0
127.0,127.0,127.0,127.0,126.0,121.0,102.0,127.0,23.0,-118.0,-71.0,127.0,127.0,127.0,123.0,87.0,-77.0
127.0,127.0,127.0,127.0,126.0,121.0,102.0,127.0,23.0,-118.0,-71.0,127.0,127.0,127.0,123.0,87.0,-77.0
127.0,127.0,127.0,127.0,126.0,121.0,102.0,127.0,23.0,-118.0,-71.0,127.0,127.0,127.0,123.0,87.0,-77.0
126.0,126.0,127.0,127.0,126.0,121.0,103.0,127.0,23.0,-118.0,-71.0,127.0,127.0,127.0,123.0,87.0,-77.0
126.0,126.0,127.0,127.0,126.0,121.0,103.0,127.0,23.0,-118.0,-71.0,127.0,127.0,127.0,123.0,87.0,-77.0
127.0,127.0,127.0,127.0,127.0,121.0,104.0,127.0,23.0,-118.0,-71.0,127.0,127.0,127.0,123.0,87.0,-77.0
127.0,127.0,127.0,127.0,127.0,121.0,104.0,127.0,23.0,-118.0,-71.0,127.0,127.0,127.0,123.0,87.0,-77.0
127.0,127.0,127.0,127.0,127.0,121.0,104.0,127.0,23.0,-118.0,-71.0,127.0,127.0,127.0,123.0,87.0,-77.0
127.0,127.0,127.0,127.0,127.0,121.0,104.0,127.0,23.0,-118.0,-71.0,127.0,127.0,127.0,123.0,87.0,-77.0
127.0,127.0,127.0,127.0,127.0,121.0,104.0,127.0,23.0,-118.0,-71.0,127.0,127.0,127.0,123.0,87.0,-77.0
127.0,127.0,127.0,127.0,127.0,121.0,104.0,127.0,23.0,-118.0,-71.0,127.0,127.0,127.0,123.0,87.0,-77.0
127.0,127.0,127.0,127.0,127.0,121.0,103.0,127.0,23.0,-118.0,-71.0,127.0,127.0,127.0,123.0,87.0,-77.0
127.0,126.0,127.0,127.0,127.0,121.0,104.0,127.0,23.0,-118.0,-71.0,127.0,127.0,127.0,123.0,87.0,-77.0
127.0,126.0,127.0,127.0,127.0,121.0,104.0,127.0,23.0,-118.0,-71.0,127.0,127.0,127.0,123.0,87.0,-77.0
127.0,127.0,127.0,127.0,127.0,121.0,104.0,127.0,23.0,-118.0,-71.0,127.0,127.0,127.0,123.0,87.0,-77.0
126.0,126.0,127.0,127.0,127.0,120.0,102.0,128.0,23.0,-118.0,-71.0,127.0,127.0,127.0,123.0,87.0,-77.0
126.0,126.0,127.0,127.0,127.0,120.0,102.0,128.0,23.0,-118.0,-71.0,127.0,127.0,127.0,123.0,87.0,-77.0
126.0,126.0,127.0,127.0,127.0,120.0,102.0,128.0,23.0,-118.0,-71.0,127.0,127.0,127.0,123.0,87.0,-77.0
126.0,126.0,127.0,127.0,127.0,120.0,102.0,128.0,23.0,-118.0,-71.0,127.0,127.0,127.0,123.0,87.0,-77.0
126.0,126.0,127.0,127.0,127.0,121.0,102.0,128.0,23.0,-118.0,-71.0,127.0,127.0,127.0,123.0,87.0,-77.0
126.0,126.0,127.0,127.0,127.0,121.0,102.0,128.0,23.0,-118.0,-71.0,127.0,127.0,127.0,123.0,87.0,-77.0
126.0,126.0,127.0,127.0,127.0,120.0,102.0,128.0,23.0,-118.0,-71.0,127.0,127.0,127.0,123.0,87.0,-77.0
126.0,126.0,127.0,127.0,127.0,120.0,102.0,128.0,23.0,-118.0,-71.0,127.0,127.0,127.0,123.0,87.0,-77.0
126.0,126.0,127.0,127.0,127.0,120.0,102.0,127.0,23.0,-118.0,-71.0,127.0,127.0,127.0,123.0,87.0,-77.0
126.0,126.0,127.0,127.0,127.0,120.0,103.0,128.0,23.0,-118.0,-71.0,127.0,127.0,127.0,123.0,87.0,-77.0
127.0,127.0,127.0,127.0,127.0,121.0,103.0,127.0,23.0,-118.0,-71.0,127.0,127.0,127.0,123.0,87.0,-77.0
127.0,127.0,127.0,127.0,127.0,121.0,103.0,127.0,23.0,-118.0,-71.0,127.0,127.0,127.0,123.0,87.0,-77.0
127.0,127.0,127.0,127.0,127.0,121.0,103.0,127.0,23.0,-118.0,-71.0,127.0,127.0,127.0,123.0,87.0,-77.0
127.0,127.0,127.0,127.0,127.0,121.0,104.0,127.0,23.0,-118.0,-71.0,127.0,127.0,127.0,123.0,87.0,-77.0
127.0,127.0,127.0,127.0,127.0,121.0,104.0,127.0,23.0,-118.0,-71.0,127.0,127.0,127.0,123.0,87.0,-77.0
126.0,126.0,127.0,127.0,127.0,121.0,102.0,127.0,23.0,-118.0,-71.0,127.0,127.0,127.0,123.0,87.0,-77.0
126.0,127.0,127.0,127.0,127.0,121.0,103.0,127.0,23.0,-118.0,-71.0,127.0,127.0,127.0,123.0,87.0,-77.0
126.0,126.0,127.0,127.0,127.0,121.0,103.0,127.0,23.0,-118.0,-71.0,127.0,127.0,127.0,123.0,87.0,-77.0
126.0,126.0,127.0,127.0,127.0,121.0,102.0,127.0,23.0,-118.0,-71.0,127.0,127.0,127.0,123.0,87.0,-77.0
126.0,126.0,127.0,127.0,127.0,121.0,103.0,127.0,23.0,-118.0,-71.0,127.0,127.0,127.0,123.0,87.0,-77.0
127.0,127.0,127.0,127.0,127.0,122.0,104.0,128.0,23.0,-118.0,-71.0,127.0,127.0,127.0,123.0,87.0,-77.0
127.0,127.0,127.0,127.0,127.0,122.0,105.0,128.0,23.0,-118.0,-71.0,127.0,127.0,127.0,123.0,87.0,-77.0
127.0,127.0,127.0,127.0,127.0,122.0,104.0,128.0,23.0,-118.0,-71.0,127.0,127.0,127.0,123.0,87.0,-77.0
127.0,127.0,127.0,127.0,127.0,122.0,104.0,128.0,23.0,-118.0,-71.0,127.0,127.0,127.0,123.0,87.0,-77.0
126.0,127.0,127.0,127.0,126.0,122.0,104.0,127.0,23.0,-118.0,-71.0,127.0,127.0,127.0,123.0,87.0,-77.0
127.0,127.0,127.0,127.0,127.0,122.0,104.0,127.0,23.0,-118.0,-71.0,127.0,127.0,127.0,123.0,87.0,-77.0
127.0,127.0,127.0,127.0,127.0,122.0,105.0,128.0,23.0,-118.0,-71.0,127.0,127.0,127.0,123.0,87.0,-77.0
127.0,127.0,127.0,127.0,127.0,122.0,105.0,127.0,23.0,-118.0,-71.0,127.0,127.0,127.0,123.0,87.0,-77.0
127.0,127.0,127.0,127.0,127.0,122.0,105.0,128.0,23.0,-118.0,-71.0,127.0,127.0,127.0,123.0,87.0,-77.0
127.0,127.0,127.0,127.0,127.0,122.0,104.0,128.0,23.0,-118.0,-71.0,127.0,127.0,127.0,123.0,87.0,-77.0
127.0,127.0,127.0,127.0,126.0,122.0,103.0,128.0,23.0,-118.0,-71.0,127.0,127.0,127.0,123.0,87.0,-77.0
127.0,127.0,127.0,127.0,126.0,121.0,104.0,127.0,23.0,-118.0,-71.0,127.0,127.0,127.0,123.0,87.0,-77.0
126.0,127.0,127.0,127.0,126.0,122.0,104.0,127.0,23.0,-118.0,-71.0,127.0,127.0,127.0,123.0,87.0,-77.0
126.0,126.0,127.0,127.0,126.0,122.0,105.0,127.0,23.0,-118.0,-71.0,127.0,127.0,127.0,123.0,87.0,-77.0
126.0,126.0,127.0,127.0,126.0,122.0,105.0,127.0,23.0,-118.0,-71.0,127.0,127.0,127.0,123.0,87.0,-77.0
126.0,127.0,127.0,127.0,126.0,122.0,105.0,127.0,23.0,-118.0,-71.0,127.0,127.0,127.0,123.0,87.0,-77.0
126.0,127.0,127.0,127.0,126.0,122.0,105.0,127.0,23.0,-118.0,-71.0,127.0,127.0,127.0,123.0,87.0,-77.0
126.0,127.0,127.0,127.0,126.0,122.0,104.0,127.0,23.0,-118.0,-71.0,127.0,127.0,127.0,123.0,87.0,-77.0
127.0,127.0,127.0,127.0,126.0,122.0,104.0,127.0,23.0,-118.0,-71.0,127.0,127.0,127.0,123.0,87.0,-77.0
127.0,127.0,127.0,127.0,126.0,122.0,104.0,127.0,23.0,-118.0,-71.0,127.0,127.0,127.0,123.0,87.0,-77.0
127.0,127.0,127.0,127.0,127.0,122.0,104.0,128.0,23.0,-118.0,-71.0,127.0,127.0,127.0,123.0,87.0,-77.0
127.0,127.0,127.0,127.0,127.0,122.0,105.0,127.0,23.0,-118.0,-71.0,127.0,127.0,127.0,123.0,87.0,-77.0
127.0,127.0,127.0,127.0,127.0,122.0,105.0,127.0,23.0,-118.0,-71.0,127.0,127.0,127.0,123.0,87.0,-77.0
127.0,127.0,127.0,127.0,127.0,122.0,105.0,127.0,23.0,-118.0,-71.0,127.0,127.0,127.0,123.0,87.0,-77.0
127.0,127.0,127.0,127.0,127.0,122.0,105.0,127.0,23.0,-118.0,-71.0,127.0,127.0,127.0,123.0,87.0,-77.0
127.0,127.0,127.0,127.0,127.0,122.0,105.0,127.0,23.0,-118.0,-71.0,127.0,127.0,127.0,123.0,87.0,-77.0
127.0,127.0,127.0,127.0,127.0,122.0,104.0,127.0,23.0,-118.0,-71.0,127.0,127.0,127.0,123.0,87.0,-77.0
127.0,127.0,127.0,127.0,127.0,122.0,105.0,127.0,23.0,-118.0,-71.0,127.0,127.0,127.0,123.0,87.0,-77.0
127.0,127.0,127.0,127.0,127.0,122.0,105.0,128.0,23.0,-118.0,-71.0,127.0,127.0,127.0,123.0,87.0,-77.0
127.0,127.0,127.0,127.0,127.0,122.0,104.0,128.0,23.0,-118.0,-71.0,127.0,127.0,127.0,123.0,87.0,-77.0
127.0,127.0,127.0,127.0,127.0,122.0,105.0,127.0,23.0,-118.0,-71.0,127.0,127.0,127.0,123.0,87.0,-77.0
127.0,127.0,127.0,127.0,127.0,122.0,105.0,127.0,23.0,-118.0,-71.0,127.0,127.0,127.0,123.0,87.0,-77.0
127.0,127.0,127.0,127.0,127.0,122.0,105.0,127.0,23.0,-118.0,-71.0,127.0,127.0,127.0,123.0,87.0,-77.0
126.0,127.0,127.0,127.0,127.0,122.0,105.0,127.0,23.0,-118.0,-71.0,127.0,127.0,127.0,123.0,87.0,-77.0
127.0,127.0,127.0,127.0,127.0,122.0,105.0,127.0,23.0,-118.0,-71.0,127.0,127.0,127.0,123.0,87.0,-77.0
127.0,127.0,127.0,127.0,127.0,122.0,104.0,128.0,23.0,-118.0,-71.0,127.0,127.0,127.0,123.0,87.0,-77.0
127.0,127.0,127.0,127.0,127.0,122.0,104.0,128.0,23.0,-118.0,-71.0,127.0,127.0,127.0,123.0,87.0,-77.0
127.0,127.0,127.0,127.0,127.0,122.0,105.0,128.0,23.0,-118.0,-71.0,127.0,127.0,127.0,123.0,87.0,-77.0
127.0,127.0,127.0,127.0,127.0,122.0,105.0,128.0,23.0,-118.0,-71.0,127.0,127.0,127.0,123.0,87.0,-77.0
127.0,127.0,127.0,127.0,127.0,122.0,105.0,128.0,23.0,-118.0,-71.0,127.0,127.0,127.0,123.0,87.0,-77.0
126.0,127.0,127.0,126.0,126.0,122.0,105.0,127.0,23.0,-118.0,-71.0,127.0,127.0,127.0,123.0,87.0,-77.0
126.0,127.0,127.0,127.0,126.0,122.0,105.0,127.0,23.0,-118.0,-71.0,127.0,127.0,127.0,123.0,87.0,-77.0
126.0,127.0,127.0,127.0,126.0,122.0,105.0,127.0,23.0,-118.0,-71.0,127.0,127.0,127.0,123.0,87.0,-77.0
126.0,127.0,127.0,127.0,126.0,122.0,105.0,127.0,23.0,-118.0,-71.0,127.0,127.0,127.0,123.0,87.0,-77.0
126.0,127.0,127.0,127.0,126.0,122.0,104.0,127.0,23.0,-118.0,-71.0,127.0,127.0,127.0,123.0,87.0,-77.0
127.0,127.0,127.0,127.0,126.0,122.0,105.0,127.0,23.0,-118.0,-71.0,127.0,127.0,127.0,123.0,87.0,-77.0
127.0,127.0,127.0,127.0,126.0,122.0,106.0,127.0,23.0,-118.0,-71.0,127.0,127.0,127.0,123.0,87.0,-77.0
127.0,127.0,127.0,127.0,126.0,122.0,105.0,127.0,23.0,-118.0,-71.0,127.0,127.0,127.0,123.0,87.0,-77.0
126.0,127.0,127.0,127.0,126.0,122.0,105.0,127.0,23.0,-118.0,-71.0,127.0,127.0,127.0,123.0,87.0,-77.0
126.0,127.0,127.0,126.0,126.0,122.0,105.0,127.0,23.0,-118.0,-71.0,127.0,127.0,127.0,123.0,87.0,-77.0
127.0,126.0,127.0,127.0,127.0,122.0,104.0,128.0,23.0,-118.0,-71.0,127.0,127.0,127.0,123.0,87.0,-77.0
127.0,126.0,127.0,127.0,127.0,122.0,104.0,127.0,23.0,-118.0,-71.0,127.0,127.0,127.0,123.0,87.0,-77.0
127.0,126.0,127.0,127.0,127.0,122.0,104.0,128.0,23.0,-118.0,-71.0,127.0,127.0,127.0,123.0,87.0,-77.0
127.0,127.0,127.0,127.0,127.0,122.0,103.0,128.0,23.0,-118.0,-71.0,127.0,127.0,127.0,123.0,87.0,-77.0
127.0,127.0,127.0,127.0,127.0,122.0,104.0,128.0,23.0,-118.0,-71.0,127.0,127.0,127.0,123.0,87.0,-77.0
127.0,127.0,127.0,127.0,127.0,122.0,103.0,127.0,23.0,-118.0,-71.0,127.0,127.0,127.0,123.0,87.0,-77.0
127.0,127.0,127.0,127.0,127.0,121.0,103.0,127.0,23.0,-118.0,-71.0,127.0,127.0,127.0,123.0,87.0,-77.0
127.0,127.0,127.0,127.0,127.0,121.0,104.0,127.0,23.0,-118.0,-71.0,127.0,127.0,127.0,123.0,87.0,-77.0
127.0,126.0,127.0,127.0,127.0,122.0,104.0,127.0,23.0,-118.0,-71.0,127.0,127.0,127.0,123.0,87.0,-77.0
127.0,126.0,127.0,127.0,127.0,122.0,104.0,127.0,23.0,-118.0,-71.0,127.0,127.0,127.0,123.0,87.0,-77.0
126.0,127.0,127.0,127.0,127.0,122.0,105.0,127.0,23.0,-118.0,-71.0,127.0,127.0,127.0,123.0,87.0,-77.0
127.0,127.0,127.0,127.0,127.0,122.0,105.0,127.0,23.0,-118.0,-71.0,127.0,127.0,127.0,123.0,87.0,-77.0
126.0,127.0,127.0,127.0,127.0,122.0,105.0,127.0,23.0,-118.0,-71.0,127.0,127.0,127.0,123.0,87.0,-77.0
126.0,127.0,127.0,127.0,126.0,122.0,105.0,127.0,23.0,-118.0,-71.0,127.0,127.0,127.0,123.0,87.0,-77.0
127.0,127.0,127.0,127.0,126.0,122.0,104.0,127.0,23.0,-118.0,-71.0,127.0,127.0,127.0,123.0,87.0,-77.0
126.0,127.0,127.0,127.0,126.0,122.0,105.0,127.0,23.0,-118.0,-71.0,127.0,127.0,127.0,123.0,87.0,-77.0
126.0,127.0,127.0,127.0,126.0,122.0,104.0,128.0,23.0,-118.0,-71.0,127.0,127.0,127.0,123.0,87.0,-77.0
126.0,126.0,127.0,127.0,127.0,122.0,104.0,127.0,23.0,-118.0,-71.0,127.0,127.0,127.0,123.0,87.0,-77.0
126.0,126.0,127.0,127.0,127.0,122.0,105.0,127.0,23.0,-118.0,-71.0,127.0,127.0,127.0,123.0,87.0,-77.0
126.0,126.0,127.0,127.0,127.0,122.0,104.0,127.0,23.0,-118.0,-71.0,127.0,127.0,127.0,123.0,87.0,-77.0
126.0,127.0,127.0,127.0,127.0,122.0,106.0,127.0,23.0,-118.0,-71.0,127.0,127.0,127.0,123.0,87.0,-77.0
126.0,127.0,127.0,127.0,127.0,122.0,106.0,127.0,23.0,-118.0,-71.0,127.0,127.0,127.0,123.0,87.0,-77.0
126.0,127.0,127.0,127.0,127.0,123.0,106.0,127.0,23.0,-118.0,-71.0,127.0,127.0,127.0,123.0,87.0,-77.0
126.0,127.0,127.0,127.0,127.0,123.0,106.0,127.0,23.0,-118.0,-71.0,127.0,127.0,127.0,123.0,87.0,-77.0
126.0,127.0,127.0,127.0,127.0,123.0,106.0,127.0,23.0,-118.0,-71.0,127.0,127.0,127.0,123.0,87.0,-77.0
126.0,127.0,127.0,127.0,127.0,123.0,106.0,127.0,23.0,-118.0,-71.0,127.0,127.0,127.0,123.0,87.0,-77.0
126.0,127.0,127.0,127.0,127.0,123.0,105.0,127.0,23.0,-118.0,-71.0,127.0,127.0,127.0,123.0,87.0,-77.0
126.0,126.0,127.0,127.0,127.0,123.0,105.0,127.0,23.0,-118.0,-71.0,127.0,127.0,127.0,123.0,87.0,-77.0
126.0,126.0,127.0,127.0,127.0,122.0,105.0,127.0,23.0,-118.0,-71.0,127.0,127.0,127.0,123.0,87.0,-77.0
126.0,126.0,127.0,127.0,127.0,122.0,105.0,127.0,23.0,-118.0,-71.0,127.0,127.0,127.0,123.0,87.0,-77.0
127.0,127.0,128.0,127.0,127.0,122.0,106.0,127.0,24.0,-118.0,-71.0,127.0,127.0,127.0,123.0,87.0,-77.0
127.0,127.0,128.0,127.0,127.0,122.0,105.0,127.0,24.0,-118.0,-71.0,127.0,127.0,127.0,123.0,87.0,-77.0
127.0,127.0,127.0,127.0,127.0,122.0,105.0,127.0,24.0,-118.0,-71.0,127.0,127.0,127.0,123.0,87.0,-77.0
127.0,127.0,128.0,127.0,127.0,122.0,105.0,127.0,24.0,-118.0,-71.0,127.0,127.0,127.0,123.0,87.0,-77.0
127.0,127.0,128.0,127.0,127.0,122.0,105.0,128.0,24.0,-118.0,-71.0,127.0,127.0,127.0,123.0,87.0,-77.0
127.0,127.0,127.0,127.0,127.0,123.0,105.0,127.0,24.0,-118.0,-71.0,127.0,127.0,127.0,123.0,87.0,-77.0
127.0,127.0,127.0,127.0,127.0,123.0,106.0,127.0,24.0,-118.0,-71.0,127.0,127.0,127.0,123.0,87.0,-77.0
127.0,127.0,127.0,127.0,127.0,123.0,105.0,127.0,24.0,-118.0,-71.0,127.0,127.0,127.0,123.0,87.0,-77.0
127.0,126.0,127.0,127.0,127.0,122.0,106.0,127.0,24.0,-118.0,-71.0,127.0,127.0,127.0,123.0,87.0,-77.0
127.0,127.0,128.0,127.0,127.0,122.0,106.0,127.0,24.0,-118.0,-71.0,127.0,127.0,127.0,123.0,87.0,-77.0
127.0,126.0,127.0,127.0,127.0,122.0,105.0,128.0,24.0,-118.0,-71.0,127.0,127.0,127.0,123.0,87.0,-77.0
127.0,127.0,127.0,127.0,127.0,122.0,104.0,128.0,24.0,-118.0,-71.0,127.0,127.0,127.0,123.0,87.0,-77.0
127.0,127.0,127.0,127.0,127.0,122.0,104.0,128.0,24.0,-118.0,-71.0,127.0,127.0,127.0,123.0,87.0,-77.0
127.0,127.0,127.0,127.0,127.0,122.0,103.0,128.0,24.0,-118.0,-71.0,127.0,127.0,127.0,123.0,87.0,-77.0
127.0,127.0,127.0,127.0,127.0,122.0,105.0,127.0,24.0,-118.0,-71.0,127.0,127.0,127.0,123.0,87.0,-77.0
127.0,127.0,127.0,127.0,127.0,122.0,105.0,127.0,24.0,-118.0,-71.0,127.0,127.0,127.0,123.0,87.0,-77.0
127.0,127.0,127.0,127.0,127.0,122.0,104.0,127.0,24.0,-118.0,-71.0,127.0,127.0,127.0,123.0,87.0,-77.0
127.0,127.0,127.0,127.0,127.0,122.0,104.0,127.0,24.0,-118.0,-71.0,127.0,127.0,127.0,123.0,87.0,-77.0
127.0,127.0,127.0,127.0,127.0,122.0,105.0,128.0,24.0,-118.0,-71.0,127.0,127.0,127.0,123.0,87.0,-77.0
127.0,127.0,127.0,127.0,127.0,122.0,105.0,128.0,24.0,-118.0,-71.0,127.0,127.0,127.0,123.0,87.0,-77.0
126.0,127.0,127.0,127.0,127.0,122.0,105.0,127.0,24.0,-118.0,-71.0,127.0,127.0,127.0,123.0,87.0,-77.0
127.0,127.0,127.0,127.0,127.0,122.0,105.0,128.0,24.0,-118.0,-71.0,127.0,127.0,127.0,123.0,87.0,-77.0
126.0,127.0,127.0,127.0,127.0,122.0,105.0,128.0,24.0,-118.0,-71.0,127.0,127.0,127.0,123.0,87.0,-77.0
126.0,127.0,127.0,126.0,127.0,122.0,104.0,127.0,24.0,-118.0,-71.0,127.0,127.0,127.0,123.0,87.0,-77.0
127.0,127.0,127.0,127.0,127.0,122.0,105.0,127.0,24.0,-118.0,-71.0,127.0,127.0,127.0,123.0,87.0,-77.0
126.0,127.0,127.0,127.0,127.0,122.0,104.0,127.0,24.0,-118.0,-71.0,127.0,127.0,127.0,123.0,87.0,-77.0
126.0,127.0,127.0,127.0,127.0,122.0,104.0,127.0,24.0,-118.0,-71.0,127.0,127.0,127.0,123.0,87.0,-77.0
127.0,127.0,127.0,127.0,127.0,122.0,105.0,127.0,24.0,-118.0,-71.0,127.0,127.0,127.0,123.0,87.0,-77.0
127.0,127.0,127.0,127.0,127.0,122.0,105.0,127.0,24.0,-118.0,-71.0,127.0,127.0,127.0,123.0,87.0,-77.0
127.0,127.0,127.0,127.0,127.0,122.0,105.0,127.0,24.0,-118.0,-71.0,127.0,127.0,127.0,123.0,87.0,-77.0
127.0,127.0,127.0,127.0,127.0,122.0,104.0,127.0,24.0,-118.0,-71.0,127.0,127.0,127.0,123.0,87.0,-77.0
127.0,127.0,127.0,127.0,127.0,122.0,105.0,127.0,24.0,-118.0,-71.0,127.0,127.0,127.0,123.0,87.0,-77.0
126.0,126.0,127.0,127.0,127.0,122.0,105.0,127.0,24.0,-118.0,-71.0,127.0,127.0,127.0,123.0,87.0,-77.0
126.0,126.0,127.0,127.0,127.0,122.0,105.0,127.0,24.0,-118.0,-71.0,127.0,127.0,127.0,123.0,87.0,-77.0
126.0,126.0,127.0,127.0,127.0,122.0,105.0,127.0,24.0,-118.0,-71.0,127.0,127.0,127.0,123.0,87.0,-77.0
127.0,127.0,127.0,127.0,127.0,122.0,105.0,127.0,24.0,-118.0,-71.0,127.0,127.0,127.0,123.0,87.0,-77.0
127.0,127.0,127.0,127.0,127.0,122.0,105.0,127.0,24.0,-118.0,-71.0,127.0,127.0,127.0,123.0,87.0,-77.0
127.0,127.0,127.0,127.0,127.0,122.0,105.0,127.0,24.0,-118.0,-71.0,127.0,127.0,127.0,123.0,87.0,-77.0
127.0,127.0,127.0,127.0,127.0,122.0,105.0,127.0,24.0,-118.0,-71.0,127.0,127.0,127.0,123.0,87.0,-77.0
127.0,127.0,127.0,127.0,127.0,122.0,104.0,127.0,24.0,-118.0,-71.0,127.0,127.0,127.0,123.0,87.0,-77.0
127.0,127.0,127.0,127.0,127.0,122.0,105.0,127.0,24.0,-118.0,-71.0,127.0,127.0,127.0,123.0,87.0,-77.0
127.0,126.0,127.0,127.0,127.0,122.0,106.0,127.0,24.0,-118.0,-71.0,127.0,127.0,127.0,123.0,87.0,-77.0
127.0,126.0,127.0,127.0,127.0,122.0,105.0,127.0,24.0,-118.0,-71.0,127.0,127.0,127.0,123.0,87.0,-77.0
127.0,126.0,127.0,127.0,127.0,122.0,105.0,127.0,24.0,-118.0,-71.0,127.0,127.0,127.0,123.0,87.0,-77.0
127.0,126.0,127.0,127.0,127.0,122.0,105.0,127.0,24.0,-118.0,-71.0,127.0,127.0,127.0,123.0,87.0,-77.0
127.0,127.0,127.0,127.0,127.0,123.0,106.0,127.0,24.0,-118.0,-71.0,127.0,127.0,127.0,123.0,87.0,-77.0
127.0,127.0,127.0,127.0,127.0,123.0,105.0,127.0,24.0,-118.0,-71.0,127.0,127.0,127.0,123.0,87.0,-77.0
127.0,127.0,127.0,127.0,127.0,123.0,105.0,127.0,24.0,-118.0,-71.0,127.0,127.0,127.0,123.0,87.0,-77.0
127.0,127.0,127.0,127.0,127.0,122.0,105.0,127.0,24.0,-118.0,-71.0,127.0,127.0,127.0,123.0,87.0,-77.0
127.0,127.0,127.0,127.0,127.0,123.0,105.0,127.0,24.0,-118.0,-71.0,127.0,127.0,127.0,123.0,87.0,-77.0
127.0,126.0,127.0,127.0,126.0,122.0,104.0,127.0,24.0,-118.0,-71.0,127.0,127.0,127.0,123.0,87.0,-77.0
127.0,126.0,127.0,127.0,126.0,122.0,104.0,127.0,24.0,-118.0,-71.0,127.0,127.0,127.0,123.0,87.0,-77.0
127.0,126.0,127.0,127.0,127.0,122.0,104.0,127.0,24.0,-118.0,-71.0,127.0,127.0,127.0,123.0,87.0,-77.0
127.0,126.0,127.0,127.0,127.0,122.0,104.0,127.0,24.0,-118.0,-71.0,127.0,127.0,127.0,123.0,87.0,-77.0
127.0,126.0,127.0,127.0,127.0,122.0,104.0,127.0,24.0,-118.0,-71.0,127.0,127.0,127.0,123.0,87.0,-77.0
127.0,126.0,127.0,127.0,127.0,122.0,104.0,127.0,24.0,-118.0,-71.0,127.0,127.0,127.0,123.0,87.0,-77.0
127.0,126.0,127.0,127.0,126.0,122.0,104.0,127.0,24.0,-118.0,-71.0,127.0,127.0,127.0,123.0,87.0,-77.0
127.0,127.0,127.0,127.0,127.0,122.0,105.0,127.0,24.0,-118.0,-71.0,127.0,127.0,127.0,123.0,87.0,-77.0
127.0,127.0,127.0,127.0,127.0,122.0,105.0,127.0,24.0,-118.0,-71.0,127.0,127.0,127.0,123.0,87.0,-77.0
127.0,126.0,127.0,127.0,127.0,122.0,105.0,127.0,24.0,-118.0,-71.0,127.0,127.0,127.0,123.0,87.0,-77.0
127.0,126.0,127.0,127.0,127.0,122.0,104.0,127.0,24.0,-118.0,-70.0,127.0,127.0,127.0,123.0,87.0,-77.0
126.0,126.0,127.0,127.0,127.0,122.0,104.0,127.0,24.0,-118.0,-70.0,127.0,127.0,127.0,123.0,87.0,-77.0
126.0,126.0,127.0,127.0,127.0,122.0,104.0,127.0,24.0,-118.0,-70.0,127.0,127.0,127.0,123.0,87.0,-77.0
127.0,126.0,127.0,127.0,127.0,122.0,105.0,127.0,24.0,-118.0,-70.0,127.0,127.0,127.0,123.0,87.0,-77.0
127.0,127.0,127.0,127.0,127.0,122.0,104.0,127.0,24.0,-118.0,-70.0,127.0,127.0,127.0,123.0,87.0,-77.0
127.0,126.0,127.0,127.0,127.0,122.0,104.0,127.0,24.0,-118.0,-70.0,127.0,127.0,127.0,123.0,87.0,-77.0
127.0,127.0,127.0,127.0,127.0,122.0,105.0,127.0,24.0,-118.0,-70.0,127.0,127.0,127.0,123.0,87.0,-77.0
127.0,127.0,127.0,127.0,127.0,122.0,105.0,127.0,24.0,-118.0,-70.0,127.0,127.0,127.0,123.0,87.0,-77.0
127.0,127.0,127.0,127.0,127.0,122.0,105.0,128.0,24.0,-118.0,-70.0,127.0,127.0,127.0,123.0,87.0,-77.0
127.0,126.0,127.0,127.0,127.0,122.0,105.0,127.0,24.0,-118.0,-70.0,127.0,127.0,127.0,123.0,87.0,-77.0
126.0,126.0,127.0,126.0,127.0,122.0,105.0,127.0,24.0,-117.0,-70.0,127.0,127.0,127.0,123.0,87.0,-77.0
126.0,126.0,127.0,126.0,127.0,122.0,104.0,127.0,24.0,-117.0,-70.0,127.0,127.0,127.0,123.0,87.0,-77.0
126.0,127.0,127.0,126.0,127.0,122.0,105.0,127.0,24.0,-117.0,-70.0,127.0,127.0,127.0,123.0,87.0,-77.0
126.0,127.0,127.0,127.0,127.0,122.0,105.0,127.0,24.0,-117.0,-70.0,127.0,127.0,127.0,123.0,87.0,-77.0
126.0,127.0,127.0,126.0,127.0,122.0,105.0,127.0,24.0,-117.0,-70.0,127.0,127.0,127.0,123.0,87.0,-77.0
126.0,127.0,127.0,127.0,127.0,122.0,105.0,127.0,24.0,-117.0,-70.0,127.0,127.0,127.0,123.0,87.0,-77.0
126.0,127.0,127.0,127.0,127.0,122.0,106.0,127.0,24.0,-117.0,-70.0,127.0,127.0,127.0,123.0,87.0,-77.0
126.0,127.0,127.0,127.0,127.0,122.0,105.0,127.0,24.0,-117.0,-70.0,127.0,127.0,127.0,123.0,87.0,-77.0
126.0,126.0,127.0,126.0,127.0,122.0,104.0,127.0,24.0,-117.0,-70.0,127.0,127.0,127.0,123.0,87.0,-77.0
126.0,126.0,127.0,126.0,127.0,122.0,105.0,127.0,24.0,-117.0,-70.0,127.0,127.0,127.0,123.0,87.0,-77.0
126.0,127.0,127.0,127.0,126.0,122.0,105.0,128.0,24.0,-117.0,-70.0,127.0,127.0,127.0,123.0,87.0,-77.0
126.0,127.0,127.0,127.0,126.0,122.0,105.0,128.0,24.0,-117.0,-70.0,127.0,127.0,127.0,123.0,87.0,-77.0
126.0,127.0,127.0,127.0,126.0,122.0,105.0,128.0,24.0,-117.0,-70.0,127.0,127.0,127.0,123.0,87.0,-77.0
127.0,126.0,127.0,127.0,126.0,122.0,104.0,128.0,24.0,-117.0,-70.0,127.0,127.0,127.0,123.0,87.0,-77.0
127.0,126.0,127.0,127.0,126.0,122.0,104.0,128.0,24.0,-117.0,-70.0,127.0,127.0,127.0,123.0,87.0,-77.0
126.0,127.0,127.0,127.0,126.0,122.0,104.0,128.0,24.0,-117.0,-70.0,127.0,127.0,127.0,123.0,87.0,-77.0
126.0,127.0,127.0,127.0,126.0,122.0,104.0,128.0,24.0,-117.0,-70.0,127.0,127.0,127.0,123.0,87.0,-77.0
126.0,127.0,127.0,127.0,127.0,122.0,105.0,127.0,24.0,-117.0,-70.0,127.0,127.0,127.0,123.0,87.0,-77.0
126.0,127.0,127.0,127.0,127.0,122.0,104.0,127.0,24.0,-117.0,-70.0,127.0,127.0,127.0,123.0,87.0,-77.0
126.0,127.0,127.0,127.0,127.0,122.0,104.0,127.0,24.0,-117.0,-70.0,127.0,127.0,127.0,123.0,87.0,-77.0
127.0,127.0,127.0,127.0,127.0,122.0,105.0,128.0,24.0,-117.0,-70.0,127.0,127.0,127.0,123.0,87.0,-77.0
127.0,127.0,127.0,127.0,127.0,122.0,105.0,128.0,24.0,-117.0,-70.0,127.0,127.0,127.0,123.0,87.0,-77.0
127.0,127.0,127.0,127.0,127.0,122.0,105.0,128.0,24.0,-117.0,-70.0,127.0,127.0,127.0,123.0,87.0,-77.0
127.0,127.0,127.0,127.0,127.0,122.0,104.0,128.0,24.0,-117.0,-70.0,127.0,127.0,127.0,123.0,87.0,-77.0
127.0,127.0,127.0,127.0,127.0,122.0,104.0,128.0,24.0,-117.0,-70.0,127.0,127.0,127.0,123.0,87.0,-77.0
127.0,127.0,127.0,127.0,127.0,122.0,104.0,128.0,24.0,-117.0,-70.0,127.0,127.0,127.0,123.0,87.0,-77.0
127.0,127.0,127.0,127.0,127.0,122.0,105.0,127.0,24.0,-117.0,-70.0,127.0,127.0,127.0,123.0,87.0,-77.0
127.0,127.0,127.0,127.0,127.0,122.0,105.0,128.0,24.0,-117.0,-70.0,127.0,127.0,127.0,123.0,87.0,-77.0
127.0,127.0,127.0,127.0,127.0,122.0,105.0,128.0,24.0,-117.0,-70.0,127.0,127.0,127.0,123.0,87.0,-77.0
127.0,127.0,127.0,127.0,127.0,122.0,105.0,128.0,24.0,-117.0,-70.0,127.0,127.0,127.0,123.0,87.0,-77.0
126.0,126.0,127.0,127.0,127.0,122.0,104.0,127.0,24.0,-117.0,-70.0,127.0,127.0,127.0,123.0,87.0,-77.0
126.0,126.0,127.0,127.0,127.0,122.0,105.0,127.0,24.0,-117.0,-70.0,127.0,127.0,127.0,123.0,87.0,-77.0
126.0,126.0,127.0,127.0,127.0,122.0,105.0,127.0,24.0,-117.0,-70.0,127.0,127.0,127.0,123.0,87.0,-77.0
126.0,126.0,127.0,127.0,127.0,122.0,104.0,127.0,24.0,-117.0,-70.0,127.0,127.0,127.0,123.0,87.0,-77.0
126.0,126.0,127.0,127.0,127.0,122.0,104.0,127.0,24.0,-117.0,-70.0,127.0,127.0,127.0,123.0,87.0,-77.0
126.0,126.0,127.0,127.0,127.0,122.0,105.0,127.0,24.0,-117.0,-70.0,127.0,127.0,127.0,123.0,87.0,-77.0
126.0,126.0,127.0,127.0,127.0,122.0,105.0,127.0,24.0,-117.0,-70.0,127.0,127.0,127.0,123.0,87.0,-77.0
126.0,126.0,127.0,127.0,127.0,122.0,105.0,127.0,24.0,-117.0,-70.0,127.0,127.0,127.0,123.0,87.0,-77.0
126.0,126.0,127.0,127.0,127.0,122.0,105.0,127.0,24.0,-117.0,-70.0,127.0,127.0,127.0,123.0,87.0,-77.0
126.0,126.0,127.0,127.0,127.0,122.0,104.0,127.0,24.0,-117.0,-70.0,127.0,127.0,127.0,123.0,87.0,-77.0
127.0,126.0,127.0,127.0,126.0,122.0,105.0,127.0,24.0,-117.0,-70.0,127.0,127.0,127.0,123.0,87.0,-77.0
127.0,126.0,127.0,127.0,127.0,122.0,104.0,128.0,24.0,-117.0,-70.0,127.0,127.0,127.0,123.0,87.0,-77.0
127.0,126.0,127.0,127.0,127.0,122.0,104.0,127.0,24.0,-117.0,-70.0,127.0,127.0,127.0,123.0,87.0,-77.0
127.0,126.0,127.0,127.0,127.0,122.0,104.0,128.0,24.0,-117.0,-70.0,127.0,127.0,127.0,123.0,87.0,-77.0
127.0,126.0,127.0,127.0,127.0,122.0,105.0,127.0,24.0,-117.0,-70.0,127.0,127.0,127.0,123.0,87.0,-77.0
127.0,126.0,127.0,127.0,126.0,122.0,106.0,127.0,24.0,-117.0,-70.0,127.0,127.0,127.0,123.0,87.0,-77.0
127.0,126.0,126.0,127.0,126.0,122.0,106.0,127.0,24.0,-117.0,-70.0,127.0,127.0,127.0,123.0,87.0,-77.0
127.0,126.0,127.0,127.0,126.0,122.0,105.0,127.0,24.0,-117.0,-70.0,127.0,127.0,127.0,123.0,87.0,-77.0
127.0,126.0,127.0,127.0,126.0,122.0,105.0,127.0,24.0,-117.0,-70.0,127.0,127.0,127.0,123.0,87.0,-77.0
127.0,126.0,127.0,127.0,126.0,122.0,105.0,127.0,24.0,-117.0,-70.0,127.0,127.0,127.0,123.0,87.0,-77.0
127.0,126.0,127.0,127.0,127.0,122.0,105.0,128.0,24.0,-117.0,-70.0,127.0,127.0,127.0,123.0,87.0,-77.0
127.0,126.0,127.0,127.0,127.0,122.0,105.0,128.0,24.0,-117.0,-70.0,127.0,127.0,127.0,123.0,87.0,-77.0
127.0,127.0,127.0,127.0,127.0,122.0,104.0,128.0,24.0,-117.0,-70.0,127.0,127.0,127.0,123.0,87.0,-77.0
127.0,126.0,127.0,127.0,127.0,122.0,105.0,127.0,24.0,-117.0,-70.0,127.0,127.0,127.0,123.0,87.0,-77.0
127.0,126.0,127.0,127.0,127.0,122.0,105.0,127.0,24.0,-117.0,-70.0,127.0,127.0,127.0,123.0,87.0,-77.0
127.0,126.0,127.0,127.0,127.0,122.0,105.0,127.0,24.0,-117.0,-70.0,127.0,127.0,127.0,123.0,87.0,-77.0
127.0,126.0,127.0,127.0,127.0,122.0,105.0,127.0,24.0,-117.0,-70.0,127.0,127.0,127.0,123.0,87.0,-77.0
127.0,126.0,127.0,127.0,127.0,122.0,104.0,128.0,24.0,-117.0,-70.0,127.0,127.0,127.0,123.0,87.0,-77.0
127.0,126.0,127.0,127.0,127.0,122.0,104.0,128.0,24.0,-117.0,-70.0,127.0,127.0,127.0,123.0,87.0,-77.0
127.0,126.0,127.0,127.0,127.0,122.0,105.0,128.0,24.0,-117.0,-70.0,127.0,127.0,127.0,123.0,87.0,-77.0
127.0,127.0,127.0,127.0,127.0,122.0,105.0,127.0,24.0,-117.0,-70.0,127.0,127.0,127.0,123.0,87.0,-77.0
127.0,126.0,127.0,127.0,126.0,121.0,104.0,127.0,24.0,-117.0,-70.0,127.0,127.0,127.0,123.0,87.0,-77.0
127.0,126.0,127.0,127.0,126.0,121.0,104.0,127.0,24.0,-117.0,-70.0,127.0,127.0,127.0,123.0,87.0,-77.0
127.0,126.0,127.0,127.0,127.0,122.0,104.0,127.0,24.0,-117.0,-70.0,127.0,127.0,127.0,123.0,87.0,-77.0
127.0,126.0,127.0,127.0,127.0,122.0,104.0,127.0,24.0,-117.0,-70.0,127.0,127.0,127.0,123.0,87.0,-77.0
127.0,126.0,127.0,127.0,127.0,122.0,105.0,127.0,24.0,-117.0,-70.0,127.0,127.0,127.0,123.0,87.0,-77.0
127.0,126.0,127.0,127.0,127.0,122.0,105.0,127.0,24.0,-117.0,-70.0,127.0,127.0,127.0,123.0,87.0,-77.0
127.0,126.0,127.0,127.0,127.0,122.0,104.0,127.0,24.0,-117.0,-70.0,127.0,127.0,127.0,123.0,87.0,-77.0
127.0,126.0,127.0,127.0,127.0,122.0,105.0,128.0,24.0,-117.0,-70.0,127.0,127.0,127.0,123.0,87.0,-77.0
127.0,126.0,127.0,127.0,127.0,122.0,105.0,127.0,24.0,-117.0,-70.0,127.0,127.0,127.0,123.0,87.0,-77.0
126.0,126.0,127.0,127.0,127.0,121.0,104.0,127.0,24.0,-117.0,-70.0,127.0,127.0,127.0,123.0,87.0,-77.0
126.0,126.0,127.0,127.0,127.0,122.0,103.0,127.0,24.0,-117.0,-70.0,127.0,127.0,127.0,123.0,87.0,-77.0
126.0,126.0,127.0,127.0,127.0,122.0,104.0,127.0,24.0,-117.0,-70.0,127.0,127.0,127.0,123.0,87.0,-77.0
126.0,126.0,127.0,127.0,127.0,122.0,104.0,127.0,24.0,-117.0,-70.0,127.0,127.0,127.0,123.0,87.0,-77.0
126.0,126.0,127.0,127.0,127.0,122.0,104.0,128.0,24.0,-117.0,-70.0,127.0,127.0,127.0,123.0,87.0,-77.0
126.0,126.0,127.0,127.0,127.0,122.0,105.0,127.0,24.0,-117.0,-70.0,127.0,127.0,127.0,123.0,87.0,-77.0
126.0,126.0,127.0,127.0,127.0,122.0,105.0,128.0,24.0,-117.0,-70.0,127.0,127.0,127.0,123.0,87.0,-77.0
126.0,126.0,127.0,127.0,127.0,122.0,105.0,128.0,24.0,-117.0,-70.0,127.0,127.0,127.0,123.0,87.0,-77.0
126.0,126.0,127.0,127.0,127.0,122.0,105.0,128.0,24.0,-117.0,-70.0,127.0,127.0,127.0,123.0,87.0,-77.0
126.0,126.0,127.0,127.0,127.0,122.0,105.0,128.0,24.0,-117.0,-70.0,127.0,127.0,127.0,123.0,87.0,-77.0
126.0,126.0,127.0,127.0,127.0,122.0,104.0,127.0,24.0,-117.0,-70.0,127.0,127.0,127.0,123.0,87.0,-77.0
126.0,126.0,127.0,127.0,127.0,122.0,105.0,127.0,24.0,-117.0,-70.0,127.0,127.0,127.0,123.0,87.0,-77.0
126.0,126.0,127.0,127.0,127.0,122.0,105.0,127.0,24.0,-117.0,-70.0,127.0,127.0,127.0,123.0,87.0,-77.0
126.0,126.0,127.0,127.0,127.0,122.0,105.0,127.0,24.0,-117.0,-70.0,127.0,127.0,127.0,123.0,87.0,-77.0
126.0,126.0,127.0,127.0,127.0,122.0,104.0,127.0,24.0,-117.0,-70.0,127.0,127.0,127.0,123.0,87.0,-77.0
127.0,126.0,127.0,127.0,127.0,122.0,105.0,127.0,24.0,-117.0,-70.0,127.0,127.0,127.0,123.0,87.0,-77.0
127.0,127.0,127.0,127.0,127.0,122.0,105.0,127.0,24.0,-117.0,-70.0,127.0,127.0,127.0,123.0,87.0,-77.0
126.0,126.0,127.0,127.0,127.0,122.0,105.0,127.0,24.0,-117.0,-70.0,127.0,127.0,127.0,123.0,87.0,-77.0
127.0,126.0,127.0,127.0,127.0,122.0,104.0,128.0,24.0,-117.0,-70.0,127.0,127.0,127.0,123.0,87.0,-77.0
126.0,126.0,127.0,127.0,127.0,122.0,104.0,127.0,24.0,-117.0,-70.0,127.0,127.0,127.0,123.0,87.0,-77.0
127.0,127.0,127.0,127.0,127.0,122.0,105.0,127.0,24.0,-117.0,-70.0,127.0,127.0,127.0,123.0,87.0,-77.0
127.0,127.0,127.0,127.0,127.0,122.0,105.0,127.0,24.0,-117.0,-70.0,127.0,127.0,127.0,123.0,87.0,-77.0
127.0,127.0,127.0,127.0,127.0,122.0,105.0,127.0,24.0,-117.0,-70.0,127.0,127.0,127.0,123.0,87.0,-77.0
127.0,127.0,127.0,127.0,127.0,122.0,105.0,127.0,24.0,-117.0,-70.0,127.0,127.0,127.0,123.0,87.0,-77.0
127.0,127.0,127.0,127.0,127.0,123.0,105.0,127.0,24.0,-117.0,-70.0,127.0,127.0,127.0,123.0,87.0,-77.0
127.0,127.0,127.0,127.0,127.0,123.0,105.0,127.0,24.0,-117.0,-70.0,127.0,127.0,127.0,123.0,87.0,-77.0
127.0,127.0,127.0,127.0,127.0,123.0,105.0,127.0,24.0,-117.0,-70.0,127.0,127.0,127.0,123.0,87.0,-77.0
127.0,127.0,127.0,127.0,127.0,122.0,106.0,127.0,24.0,-117.0,-70.0,127.0,127.0,127.0,123.0,87.0,-77.0
127.0,127.0,127.0,127.0,127.0,122.0,105.0,127.0,24.0,-117.0,-70.0,127.0,127.0,127.0,123.0,87.0,-77.0
127.0,127.0,127.0,127.0,127.0,122.0,106.0,127.0,24.0,-117.0,-70.0,127.0,127.0,127.0,123.0,87.0,-77.0
127.0,126.0,127.0,127.0,127.0,123.0,106.0,127.0,24.0,-117.0,-70.0,127.0,127.0,127.0,123.0,87.0,-77.0
127.0,126.0,127.0,127.0,127.0,123.0,106.0,127.0,24.0,-117.0,-70.0,127.0,127.0,127.0,123.0,87.0,-77.0
127.0,126.0,127.0,127.0,127.0,123.0,106.0,127.0,24.0,-117.0,-70.0,127.0,127.0,127.0,123.0,87.0,-77.0
127.0,126.0,127.0,127.0,127.0,123.0,106.0,127.0,24.0,-117.0,-70.0,127.0,127.0,127.0,123.0,87.0,-77.0
127.0,126.0,127.0,127.0,126.0,123.0,106.0,127.0,24.0,-117.0,-70.0,127.0,127.0,127.0,123.0,87.0,-77.0
127.0,126.0,127.0,127.0,127.0,123.0,106.0,127.0,24.0,-117.0,-70.0,127.0,127.0,127.0,123.0,87.0,-77.0
127.0,126.0,127.0,127.0,126.0,123.0,105.0,127.0,24.0,-117.0,-70.0,127.0,127.0,127.0,123.0,87.0,-77.0
126.0,126.0,127.0,127.0,126.0,122.0,106.0,127.0,24.0,-117.0,-70.0,127.0,127.0,127.0,123.0,87.0,-77.0
126.0,126.0,127.0,127.0,126.0,122.0,106.0,127.0,24.0,-117.0,-70.0,127.0,127.0,127.0,123.0,87.0,-77.0
126.0,126.0,127.0,127.0,127.0,122.0,105.0,127.0,24.0,-117.0,-70.0,127.0,127.0,127.0,123.0,87.0,-77.0
127.0,127.0,127.0,127.0,127.0,123.0,107.0,127.0,24.0,-117.0,-70.0,127.0,127.0,127.0,123.0,87.0,-77.0
127.0,127.0,127.0,127.0,127.0,123.0,107.0,127.0,24.0,-117.0,-70.0,127.0,127.0,127.0,123.0,87.0,-77.0
127.0,127.0,127.0,127.0,127.0,123.0,107.0,127.0,24.0,-117.0,-70.0,127.0,127.0,127.0,123.0,87.0,-77.0
127.0,127.0,127.0,127.0,127.0,123.0,107.0,127.0,24.0,-117.0,-70.0,127.0,127.0,127.0,123.0,87.0,-77.0
127.0,127.0,127.0,127.0,127.0,123.0,107.0,127.0,24.0,-117.0,-70.0,127.0,127.0,127.0,123.0,87.0,-77.0
127.0,127.0,127.0,127.0,127.0,123.0,107.0,128.0,24.0,-117.0,-70.0,127.0,127.0,127.0,123.0,87.0,-77.0
127.0,127.0,127.0,127.0,127.0,123.0,106.0,127.0,24.0,-117.0,-70.0,127.0,127.0,127.0,123.0,87.0,-77.0
127.0,127.0,127.0,127.0,127.0,123.0,106.0,127.0,24.0,-117.0,-70.0,127.0,127.0,127.0,123.0,87.0,-77.0
127.0,127.0,127.0,127.0,127.0,123.0,106.0,127.0,24.0,-117.0,-70.0,127.0,127.0,127.0,123.0,87.0,-77.0
127.0,127.0,127.0,127.0,127.0,123.0,106.0,127.0,24.0,-117.0,-70.0,127.0,127.0,127.0,123.0,87.0,-77.0
127.0,127.0,127.0,126.0,126.0,123.0,107.0,127.0,24.0,-117.0,-70.0,127.0,127.0,127.0,122.0,87.0,-77.0
127.0,126.0,127.0,126.0,126.0,123.0,107.0,127.0,24.0,-117.0,-70.0,127.0,127.0,127.0,122.0,87.0,-77.0
127.0,126.0,127.0,126.0,126.0,123.0,107.0,127.0,24.0,-117.0,-70.0,127.0,127.0,127.0,122.0,87.0,-77.0
127.0,126.0,127.0,126.0,126.0,123.0,107.0,127.0,24.0,-117.0,-70.0,127.0,127.0,127.0,122.0,87.0,-77.0
127.0,126.0,127.0,126.0,126.0,123.0,106.0,127.0,24.0,-117.0,-70.0,127.0,127.0,127.0,122.0,87.0,-77.0
126.0,126.0,127.0,126.0,126.0,123.0,106.0,127.0,24.0,-117.0,-70.0,127.0,127.0,127.0,122.0,87.0,-77.0
126.0,126.0,127.0,126.0,126.0,123.0,106.0,127.0,24.0,-117.0,-70.0,127.0,127.0,127.0,122.0,87.0,-77.0
127.0,126.0,127.0,126.0,126.0,123.0,106.0,127.0,24.0,-117.0,-70.0,127.0,127.0,127.0,122.0,87.0,-77.0
127.0,126.0,127.0,126.0,126.0,123.0,106.0,127.0,24.0,-117.0,-70.0,127.0,127.0,127.0,122.0,87.0,-77.0
127.0,127.0,127.0,126.0,126.0,123.0,107.0,127.0,24.0,-117.0,-70.0,127.0,127.0,127.0,122.0,87.0,-77.0
126.0,127.0,127.0,127.0,127.0,123.0,106.0,127.0,24.0,-117.0,-70.0,127.0,127.0,127.0,122.0,87.0,-77.0
126.0,127.0,127.0,127.0,127.0,123.0,106.0,127.0,24.0,-117.0,-70.0,127.0,127.0,127.0,122.0,87.0,-77.0
126.0,127.0,127.0,127.0,127.0,123.0,106.0,127.0,24.0,-117.0,-70.0,127.0,127.0,127.0,122.0,87.0,-77.0
126.0,127.0,127.0,127.0,127.0,123.0,106.0,127.0,24.0,-117.0,-70.0,127.0,127.0,127.0,122.0,87.0,-77.0
126.0,126.0,127.0,127.0,127.0,123.0,106.0,127.0,24.0,-117.0,-70.0,127.0,127.0,127.0,122.0,87.0,-77.0
126.0,126.0,127.0,127.0,127.0,123.0,106.0,127.0,24.0,-117.0,-70.0,127.0,127.0,127.0,122.0,87.0,-77.0
126.0,126.0,127.0,127.0,127.0,123.0,106.0,127.0,24.0,-117.0,-70.0,127.0,127.0,127.0,122.0,87.0,-77.0
126.0,126.0,127.0,127.0,127.0,123.0,106.0,127.0,24.0,-117.0,-70.0,127.0,127.0,127.0,122.0,87.0,-77.0
126.0,127.0,127.0,127.0,127.0,123.0,106.0,127.0,24.0,-117.0,-70.0,127.0,127.0,127.0,122.0,87.0,-77.0
126.0,127.0,127.0,127.0,127.0,123.0,106.0,127.0,24.0,-117.0,-70.0,127.0,127.0,127.0,122.0,87.0,-77.0
127.0,127.0,127.0,127.0,127.0,123.0,106.0,127.0,25.0,-117.0,-70.0,127.0,127.0,127.0,122.0,87.0,-77.0
127.0,127.0,127.0,127.0,127.0,123.0,106.0,127.0,25.0,-117.0,-70.0,127.0,127.0,127.0,122.0,87.0,-77.0
127.0,127.0,127.0,127.0,127.0,123.0,106.0,128.0,25.0,-117.0,-70.0,127.0,127.0,127.0,122.0,87.0,-77.0
126.0,126.0,127.0,127.0,127.0,122.0,105.0,127.0,25.0,-117.0,-70.0,127.0,127.0,127.0,122.0,87.0,-77.0
126.0,126.0,127.0,127.0,127.0,122.0,105.0,127.0,25.0,-117.0,-70.0,127.0,127.0,127.0,122.0,87.0,-77.0
126.0,127.0,127.0,127.0,127.0,122.0,106.0,127.0,25.0,-117.0,-70.0,127.0,127.0,127.0,122.0,87.0,-77.0
127.0,127.0,127.0,127.0,127.0,122.0,106.0,127.0,25.0,-117.0,-70.0,127.0,127.0,127.0,122.0,87.0,-77.0
127.0,127.0,127.0,127.0,127.0,122.0,105.0,127.0,25.0,-117.0,-70.0,127.0,127.0,127.0,122.0,87.0,-77.0
127.0,127.0,127.0,127.0,127.0,122.0,105.0,127.0,25.0,-117.0,-70.0,127.0,127.0,127.0,122.0,87.0,-77.0
127.0,127.0,127.0,127.0,127.0,122.0,105.0,127.0,25.0,-117.0,-70.0,127.0,127.0,127.0,122.0,87.0,-77.0
126.0,126.0,127.0,127.0,126.0,122.0,104.0,128.0,25.0,-117.0,-70.0,127.0,127.0,127.0,122.0,87.0,-77.0
127.0,126.0,127.0,127.0,126.0,122.0,104.0,128.0,25.0,-117.0,-70.0,127.0,127.0,127.0,122.0,87.0,-77.0
127.0,126.0,127.0,126.0,126.0,122.0,104.0,127.0,25.0,-117.0,-70.0,127.0,127.0,127.0,122.0,87.0,-77.0
127.0,127.0,127.0,126.0,126.0,122.0,105.0,127.0,25.0,-117.0,-70.0,127.0,127.0,127.0,122.0,87.0,-77.0
127.0,126.0,127.0,126.0,126.0,122.0,106.0,127.0,25.0,-117.0,-70.0,127.0,127.0,127.0,122.0,87.0,-77.0
127.0,126.0,127.0,126.0,126.0,122.0,106.0,127.0,25.0,-117.0,-70.0,127.0,127.0,127.0,122.0,87.0,-77.0
126.0,126.0,127.0,127.0,126.0,122.0,106.0,127.0,25.0,-117.0,-70.0,127.0,127.0,127.0,122.0,87.0,-77.0
127.0,127.0,127.0,126.0,126.0,122.0,105.0,127.0,25.0,-117.0,-70.0,127.0,127.0,127.0,122.0,87.0,-77.0
127.0,126.0,127.0,127.0,126.0,122.0,105.0,127.0,25.0,-117.0,-70.0,127.0,127.0,127.0,122.0,87.0,-77.0
127.0,126.0,127.0,127.0,126.0,122.0,105.0,128.0,25.0,-117.0,-70.0,127.0,127.0,127.0,122.0,87.0,-77.0
126.0,127.0,127.0,127.0,127.0,122.0,106.0,127.0,25.0,-117.0,-70.0,127.0,127.0,127.0,122.0,87.0,-77.0
126.0,127.0,127.0,127.0,127.0,122.0,105.0,127.0,25.0,-117.0,-70.0,127.0,127.0,127.0,122.0,87.0,-77.0
126.0,127.0,127.0,127.0,127.0,123.0,105.0,127.0,25.0,-117.0,-70.0,127.0,127.0,127.0,122.0,87.0,-77.0
126.0,127.0,127.0,127.0,127.0,123.0,105.0,127.0,25.0,-117.0,-70.0,127.0,127.0,127.0,122.0,87.0,-77.0
126.0,127.0,127.0,127.0,127.0,123.0,105.0,127.0,25.0,-117.0,-70.0,127.0,127.0,127.0,122.0,87.0,-77.0
126.0,127.0,127.0,127.0,127.0,123.0,105.0,127.0,25.0,-117.0,-70.0,127.0,127.0,127.0,122.0,87.0,-77.0
126.0,127.0,127.0,127.0,127.0,123.0,106.0,127.0,25.0,-117.0,-70.0,127.0,127.0,127.0,122.0,87.0,-77.0
126.0,127.0,127.0,127.0,127.0,123.0,105.0,127.0,25.0,-117.0,-70.0,127.0,127.0,127.0,122.0,87.0,-77.0
126.0,127.0,127.0,127.0,127.0,122.0,105.0,127.0,25.0,-117.0,-70.0,127.0,127.0,127.0,122.0,87.0,-77.0
126.0,127.0,127.0,127.0,127.0,122.0,106.0,127.0,25.0,-117.0,-70.0,127.0,127.0,127.0,122.0,87.0,-77.0
126.0,126.0,127.0,127.0,126.0,122.0,105.0,127.0,25.0,-117.0,-70.0,127.0,127.0,127.0,122.0,87.0,-77.0
126.0,127.0,127.0,127.0,127.0,123.0,106.0,127.0,25.0,-117.0,-70.0,127.0,127.0,127.0,122.0,87.0,-77.0
126.0,127.0,127.0,127.0,127.0,123.0,106.0,127.0,25.0,-117.0,-70.0,127.0,127.0,127.0,122.0,87.0,-77.0
126.0,127.0,127.0,127.0,127.0,123.0,106.0,127.0,25.0,-117.0,-70.0,127.0,127.0,127.0,122.0,87.0,-77.0
126.0,127.0,127.0,127.0,127.0,123.0,106.0,127.0,25.0,-117.0,-70.0,127.0,127.0,127.0,122.0,87.0,-77.0
127.0,127.0,128.0,127.0,127.0,123.0,106.0,127.0,25.0,-117.0,-70.0,127.0,127.0,127.0,122.0,87.0,-77.0
127.0,127.0,128.0,127.0,127.0,123.0,105.0,127.0,25.0,-117.0,-70.0,127.0,127.0,127.0,122.0,87.0,-77.0
127.0,127.0,128.0,127.0,127.0,123.0,105.0,128.0,25.0,-117.0,-70.0,127.0,127.0,127.0,122.0,87.0,-77.0
127.0,127.0,128.0,127.0,127.0,122.0,105.0,128.0,25.0,-117.0,-70.0,127.0,127.0,127.0,122.0,87.0,-77.0
127.0,127.0,128.0,127.0,127.0,122.0,106.0,128.0,25.0,-117.0,-70.0,127.0,127.0,127.0,122.0,87.0,-77.0
126.0,127.0,127.0,127.0,126.0,123.0,106.0,127.0,25.0,-117.0,-70.0,127.0,127.0,127.0,122.0,87.0,-77.0
126.0,127.0,127.0,127.0,126.0,123.0,106.0,127.0,25.0,-117.0,-70.0,127.0,127.0,127.0,122.0,87.0,-77.0
126.0,127.0,127.0,127.0,126.0,123.0,106.0,127.0,25.0,-117.0,-70.0,127.0,127.0,127.0,122.0,87.0,-77.0
126.0,127.0,127.0,127.0,126.0,123.0,106.0,127.0,25.0,-117.0,-70.0,127.0,127.0,127.0,122.0,87.0,-77.0
126.0,127.0,127.0,126.0,126.0,123.0,105.0,127.0,25.0,-117.0,-70.0,127.0,127.0,127.0,122.0,87.0,-77.0
126.0,127.0,127.0,127.0,126.0,123.0,105.0,127.0,25.0,-117.0,-70.0,127.0,127.0,127.0,122.0,87.0,-77.0
126.0,127.0,127.0,127.0,126.0,122.0,105.0,128.0,25.0,-117.0,-70.0,127.0,127.0,127.0,122.0,87.0,-77.0
126.0,127.0,127.0,127.0,126.0,122.0,105.0,128.0,25.0,-117.0,-70.0,127.0,127.0,127.0,122.0,87.0,-77.0
127.0,127.0,127.0,127.0,126.0,122.0,106.0,128.0,25.0,-117.0,-70.0,127.0,127.0,127.0,122.0,87.0,-77.0
126.0,126.0,127.0,127.0,126.0,122.0,105.0,127.0,25.0,-117.0,-70.0,127.0,127.0,127.0,122.0,87.0,-77.0
127.0,127.0,127.0,127.0,127.0,123.0,106.0,127.0,25.0,-117.0,-70.0,127.0,127.0,127.0,122.0,87.0,-77.0
126.0,126.0,127.0,127.0,127.0,123.0,106.0,127.0,25.0,-117.0,-70.0,127.0,127.0,127.0,122.0,87.0,-77.0
127.0,126.0,127.0,127.0,127.0,123.0,106.0,127.0,25.0,-117.0,-70.0,127.0,127.0,127.0,122.0,87.0,-77.0
126.0,126.0,127.0,127.0,127.0,123.0,105.0,127.0,25.0,-117.0,-70.0,127.0,127.0,127.0,122.0,87.0,-77.0
127.0,127.0,127.0,127.0,127.0,123.0,106.0,127.0,25.0,-117.0,-70.0,127.0,127.0,127.0,122.0,87.0,-77.0
127.0,126.0,127.0,127.0,127.0,123.0,105.0,128.0,25.0,-117.0,-70.0,127.0,127.0,127.0,122.0,87.0,-77.0
127.0,126.0,127.0,127.0,127.0,122.0,105.0,127.0,25.0,-117.0,-70.0,127.0,127.0,127.0,122.0,87.0,-77.0
127.0,126.0,127.0,127.0,127.0,122.0,106.0,128.0,25.0,-117.0,-70.0,127.0,127.0,127.0,122.0,87.0,-77.0
126.0,126.0,127.0,127.0,127.0,122.0,105.0,127.0,25.0,-117.0,-70.0,127.0,127.0,127.0,122.0,87.0,-77.0
126.0,126.0,127.0,127.0,127.0,123.0,106.0,127.0,25.0,-117.0,-70.0,127.0,127.0,127.0,122.0,87.0,-77.0
127.0,127.0,128.0,127.0,127.0,123.0,107.0,127.0,25.0,-117.0,-70.0,127.0,127.0,127.0,122.0,87.0,-77.0
127.0,127.0,128.0,127.0,127.0,124.0,107.0,127.0,25.0,-117.0,-70.0,127.0,127.0,127.0,122.0,87.0,-77.0
127.0,127.0,128.0,127.0,127.0,124.0,108.0,127.0,25.0,-117.0,-70.0,127.0,127.0,127.0,122.0,87.0,-77.0
127.0,127.0,128.0,127.0,127.0,124.0,108.0,127.0,25.0,-117.0,-70.0,127.0,127.0,127.0,122.0,87.0,-77.0
127.0,127.0,128.0,127.0,127.0,124.0,107.0,127.0,25.0,-117.0,-70.0,127.0,127.0,127.0,122.0,87.0,-77.0
127.0,127.0,128.0,127.0,127.0,123.0,107.0,127.0,25.0,-117.0,-70.0,127.0,127.0,127.0,122.0,87.0,-77.0
127.0,127.0,127.0,127.0,127.0,123.0,108.0,128.0,25.0,-117.0,-70.0,127.0,127.0,127.0,122.0,87.0,-77.0
127.0,126.0,127.0,127.0,127.0,123.0,106.0,127.0,25.0,-117.0,-70.0,127.0,127.0,127.0,122.0,87.0,-77.0
127.0,127.0,127.0,127.0,127.0,123.0,107.0,127.0,25.0,-117.0,-70.0,127.0,127.0,127.0,122.0,87.0,-77.0
127.0,127.0,128.0,127.0,127.0,123.0,107.0,127.0,25.0,-117.0,-70.0,127.0,127.0,127.0,122.0,87.0,-77.0
126.0,126.0,127.0,128.0,127.0,123.0,106.0,127.0,25.0,-117.0,-70.0,127.0,127.0,127.0,122.0,87.0,-77.0
127.0,127.0,127.0,128.0,128.0,123.0,107.0,127.0,25.0,-117.0,-70.0,127.0,127.0,127.0,122.0,87.0,-77.0
127.0,127.0,127.0,128.0,127.0,123.0,107.0,127.0,25.0,-117.0,-70.0,127.0,127.0,127.0,122.0,87.0,-77.0
127.0,127.0,127.0,128.0,127.0,123.0,108.0,127.0,25.0,-117.0,-70.0,127.0,127.0,127.0,122.0,87.0,-77.0
127.0,127.0,127.0,128.0,127.0,123.0,107.0,127.0,25.0,-117.0,-70.0,127.0,127.0,127.0,122.0,87.0,-77.0
127.0,127.0,127.0,128.0,127.0,123.0,107.0,127.0,25.0,-117.0,-70.0,127.0,127.0,127.0,122.0,87.0,-77.0
127.0,126.0,127.0,128.0,127.0,123.0,106.0,127.0,25.0,-117.0,-70.0,127.0,127.0,127.0,122.0,87.0,-77.0
127.0,126.0,127.0,128.0,128.0,123.0,106.0,127.0,25.0,-117.0,-70.0,127.0,127.0,127.0,122.0,87.0,-77.0
126.0,126.0,127.0,128.0,128.0,123.0,106.0,127.0,25.0,-117.0,-70.0,127.0,127.0,127.0,122.0,87.0,-77.0
126.0,126.0,127.0,128.0,128.0,123.0,106.0,127.0,25.0,-117.0,-70.0,127.0,127.0,127.0,122.0,87.0,-77.0
126.0,126.0,127.0,128.0,127.0,123.0,107.0,128.0,25.0,-117.0,-70.0,127.0,127.0,127.0,122.0,87.0,-77.0
126.0,126.0,127.0,128.0,127.0,123.0,107.0,128.0,25.0,-117.0,-70.0,127.0,127.0,127.0,122.0,87.0,-77.0
126.0,126.0,127.0,128.0,127.0,123.0,107.0,127.0,25.0,-117.0,-70.0,127.0,127.0,127.0,122.0,87.0,-77.0
126.0,126.0,127.0,128.0,127.0,124.0,107.0,127.0,25.0,-117.0,-70.0,127.0,127.0,127.0,122.0,87.0,-77.0
126.0,126.0,127.0,127.0,127.0,124.0,107.0,127.0,25.0,-117.0,-70.0,127.0,127.0,127.0,122.0,87.0,-77.0
126.0,126.0,127.0,128.0,127.0,124.0,107.0,127.0,25.0,-117.0,-70.0,127.0,127.0,127.0,122.0,87.0,-77.0
126.0,126.0,127.0,128.0,127.0,124.0,107.0,128.0,25.0,-117.0,-70.0,127.0,127.0,127.0,122.0,87.0,-77.0
126.0,126.0,127.0,128.0,127.0,124.0,107.0,128.0,25.0,-117.0,-70.0,127.0,127.0,127.0,122.0,87.0,-77.0
126.0,126.0,127.0,128.0,127.0,124.0,107.0,128.0,25.0,-117.0,-70.0,127.0,127.0,127.0,122.0,87.0,-77.0
126.0,126.0,127.0,128.0,127.0,123.0,107.0,128.0,25.0,-117.0,-70.0,127.0,127.0,127.0,122.0,87.0,-77.0
125.0,126.0,128.0,129.0,128.0,102.0,91.0,126.0,25.0,-117.0,-70.0,127.0,127.0,127.0,122.0,87.0,-77.0
125.0,126.0,128.0,128.0,128.0,99.0,89.0,126.0,25.0,-117.0,-70.0,127.0,127.0,127.0,122.0,87.0,-77.0
125.0,126.0,128.0,128.0,128.0,96.0,85.0,126.0,25.0,-117.0,-70.0,127.0,127.0,127.0,122.0,87.0,-77.0
125.0,126.0,128.0,127.0,128.0,93.0,85.0,126.0,25.0,-117.0,-70.0,127.0,127.0,127.0,122.0,87.0,-77.0
126.0,126.0,128.0,131.0,128.0,111.0,95.0,127.0,25.0,-117.0,-70.0,127.0,127.0,127.0,122.0,87.0,-77.0
126.0,126.0,128.0,131.0,128.0,110.0,98.0,126.0,25.0,-117.0,-70.0,127.0,127.0,127.0,122.0,87.0,-77.0
126.0,127.0,128.0,131.0,128.0,109.0,98.0,126.0,25.0,-117.0,-70.0,127.0,127.0,127.0,122.0,87.0,-77.0
125.0,126.0,128.0,130.0,128.0,108.0,95.0,126.0,25.0,-117.0,-70.0,127.0,127.0,127.0,122.0,87.0,-77.0
125.0,126.0,128.0,130.0,128.0,106.0,93.0,126.0,25.0,-117.0,-70.0,127.0,127.0,127.0,122.0,87.0,-77.0
125.0,126.0,128.0,129.0,128.0,104.0,90.0,126.0,25.0,-117.0,-70.0,127.0,127.0,127.0,122.0,87.0,-77.0
128.0,128.0,118.0,125.0,126.0,0.0,22.0,120.0,25.0,-117.0,-70.0,127.0,127.0,127.0,122.0,87.0,-77.0
128.0,128.0,118.0,124.0,126.0,0.0,22.0,120.0,25.0,-117.0,-70.0,127.0,127.0,127.0,122.0,87.0,-77.0
128.0,128.0,117.0,123.0,126.0,0.0,22.0,120.0,25.0,-117.0,-70.0,127.0,127.0,127.0,122.0,87.0,-77.0
127.0,127.0,119.0,125.0,126.0,0.0,22.0,121.0,25.0,-117.0,-70.0,127.0,127.0,127.0,122.0,87.0,-77.0
127.0,127.0,119.0,126.0,126.0,0.0,22.0,121.0,25.0,-117.0,-70.0,127.0,127.0,127.0,122.0,87.0,-77.0
127.0,127.0,119.0,126.0,126.0,0.0,22.0,120.0,25.0,-117.0,-70.0,127.0,127.0,127.0,122.0,87.0,-77.0
128.0,127.0,119.0,126.0,126.0,0.0,22.0,120.0,25.0,-117.0,-70.0,127.0,127.0,127.0,122.0,87.0,-77.0
128.0,128.0,118.0,126.0,126.0,0.0,22.0,120.0,25.0,-117.0,-70.0,127.0,127.0,127.0,122.0,87.0,-77.0
128.0,128.0,118.0,126.0,126.0,0.0,22.0,120.0,25.0,-117.0,-70.0,127.0,127.0,127.0,122.0,87.0,-77.0
128.0,128.0,118.0,126.0,126.0,0.0,22.0,120.0,25.0,-117.0,-70.0,127.0,127.0,127.0,122.0,87.0,-77.0
138.0,134.0,141.0,143.0,143.0,0.0,22.0,124.0,25.0,-116.0,-71.0,-128.0,127.0,127.0,122.0,87.0,-77.0
138.0,135.0,141.0,144.0,144.0,0.0,22.0,124.0,25.0,-116.0,-71.0,-128.0,127.0,127.0,122.0,87.0,-77.0
134.0,129.0,151.0,144.0,139.0,0.0,22.0,123.0,25.0,-116.0,-71.0,-128.0,127.0,127.0,122.0,87.0,-77.0
135.0,131.0,147.0,144.0,140.0,0.0,22.0,123.0,25.0,-116.0,-71.0,-128.0,127.0,127.0,122.0,87.0,-77.0
135.0,132.0,144.0,144.0,140.0,0.0,22.0,124.0,25.0,-116.0,-71.0,-128.0,127.0,127.0,122.0,87.0,-77.0
136.0,133.0,143.0,144.0,140.0,0.0,22.0,124.0,25.0,-116.0,-71.0,-128.0,127.0,127.0,122.0,87.0,-77.0
136.0,133.0,142.0,144.0,141.0,0.0,22.0,124.0,25.0,-116.0,-71.0,-128.0,127.0,127.0,122.0,87.0,-77.0
137.0,132.0,142.0,144.0,141.0,0.0,22.0,124.0,25.0,-116.0,-71.0,-128.0,127.0,127.0,122.0,87.0,-77.0
137.0,132.0,142.0,144.0,142.0,0.0,22.0,124.0,25.0,-116.0,-71.0,-128.0,127.0,127.0,122.0,87.0,-77.0
138.0,133.0,141.0,144.0,142.0,0.0,22.0,124.0,25.0,-116.0,-71.0,-128.0,127.0,127.0,122.0,87.0,-77.0
163.0,140.0,149.0,169.0,209.0,0.0,22.0,147.0,25.0,-115.0,-72.0,-127.0,-128.0,127.0,121.0,87.0,-77.0
157.0,140.0,148.0,169.0,191.0,0.0,22.0,149.0,25.0,-115.0,-72.0,-127.0,-128.0,127.0,121.0,87.0,-77.0
158.0,140.0,148.0,169.0,193.0,0.0,22.0,149.0,25.0,-115.0,-72.0,-127.0,-128.0,127.0,121.0,87.0,-77.0
158.0,140.0,147.0,169.0,195.0,0.0,22.0,148.0,25.0,-115.0,-72.0,-127.0,-128.0,127.0,121.0,87.0,-77.0
159.0,140.0,146.0,169.0,197.0,0.0,22.0,147.0,25.0,-115.0,-72.0,-127.0,-128.0,127.0,121.0,87.0,-77.0
159.0,139.0,146.0,170.0,199.0,0.0,22.0,146.0,25.0,-115.0,-72.0,-127.0,-128.0,127.0,121.0,87.0,-77.0
160.0,139.0,146.0,170.0,202.0,0.0,22.0,146.0,25.0,-115.0,-72.0,-127.0,-128.0,127.0,121.0,87.0,-77.0
161.0,140.0,147.0,170.0,204.0,0.0,22.0,146.0,25.0,-115.0,-72.0,-127.0,-128.0,127.0,121.0,87.0,-77.0
161.0,141.0,148.0,170.0,206.0,0.0,22.0,146.0,25.0,-115.0,-72.0,-127.0,-128.0,127.0,121.0,87.0,-77.0
162.0,141.0,149.0,170.0,208.0,0.0,22.0,146.0,25.0,-115.0,-72.0,-127.0,-128.0,127.0,121.0,87.0,-77.0
161.0,128.0,92.0,144.0,161.0,254.0,194.0,176.0,25.0,-119.0,-71.0,-125.0,-128.0,126.0,121.0,87.0,-77.0
160.0,127.0,91.0,143.0,159.0,254.0,195.0,176.0,25.0,-119.0,-71.0,-125.0,-128.0,126.0,121.0,87.0,-77.0
159.0,126.0,90.0,142.0,155.0,254.0,194.0,175.0,25.0,-119.0,-71.0,-125.0,-128.0,126.0,121.0,87.0,-77.0
159.0,126.0,90.0,141.0,152.0,254.0,194.0,175.0,25.0,-119.0,-71.0,-125.0,-128.0,126.0,121.0,87.0,-77.0
158.0,126.0,89.0,140.0,149.0,252.0,192.0,174.0,25.0,-119.0,-71.0,-125.0,-128.0,126.0,121.0,87.0,-77.0
157.0,126.0,89.0,138.0,145.0,248.0,188.0,172.0,25.0,-119.0,-71.0,-125.0,-128.0,126.0,121.0,87.0,-77.0
156.0,126.0,88.0,137.0,142.0,242.0,186.0,171.0,25.0,-119.0,-71.0,-125.0,-128.0,126.0,121.0,87.0,-77.0
155.0,126.0,88.0,135.0,138.0,236.0,183.0,170.0,25.0,-119.0,-71.0,-125.0,-128.0,126.0,121.0,87.0,-77.0
154.0,126.0,88.0,134.0,134.0,228.0,178.0,169.0,25.0,-119.0,-71.0,-125.0,-128.0,126.0,121.0,87.0,-77.0
161.0,128.0,94.0,145.0,164.0,254.0,194.0,177.0,25.0,-119.0,-71.0,-125.0,-128.0,126.0,121.0,87.0,-77.0
101.0,136.0,93.0,113.0,60.0,30.0,42.0,141.0,24.0,-126.0,-71.0,-123.0,-128.0,126.0,121.0,87.0,-77.0
101.0,137.0,94.0,113.0,60.0,35.0,44.0,141.0,24.0,-126.0,-71.0,-123.0,-128.0,126.0,121.0,87.0,-77.0
101.0,137.0,95.0,113.0,60.0,41.0,47.0,141.0,24.0,-126.0,-71.0,-123.0,-128.0,126.0,121.0,87.0,-77.0
101.0,137.0,95.0,114.0,60.0,47.0,51.0,141.0,24.0,-126.0,-71.0,-123.0,-128.0,126.0,121.0,87.0,-77.0
101.0,137.0,94.0,114.0,60.0,52.0,54.0,141.0,24.0,-126.0,-71.0,-123.0,-128.0,126.0,121.0,87.0,-77.0
101.0,137.0,93.0,114.0,60.0,58.0,57.0,140.0,24.0,-126.0,-71.0,-123.0,-128.0,126.0,121.0,87.0,-77.0
101.0,137.0,93.0,113.0,60.0,65.0,62.0,140.0,24.0,-126.0,-71.0,-123.0,-128.0,126.0,121.0,87.0,-77.0
101.0,137.0,94.0,113.0,61.0,72.0,66.0,141.0,24.0,-126.0,-71.0,-123.0,-128.0,126.0,121.0,87.0,-77.0
102.0,135.0,91.0,113.0,60.0,19.0,35.0,142.0,24.0,-126.0,-71.0,-123.0,-128.0,126.0,121.0,87.0,-77.0
101.0,135.0,92.0,113.0,60.0,25.0,38.0,142.0,24.0,-126.0,-71.0,-123.0,-128.0,126.0,121.0,87.0,-77.0
134.0,134.0,131.0,120.0,93.0,254.0,194.0,137.0,19.0,127.0,-73.0,-121.0,-128.0,126.0,122.0,87.0,-77.0
134.0,134.0,131.0,120.0,94.0,254.0,194.0,137.0,19.0,127.0,-73.0,-121.0,-128.0,126.0,122.0,87.0,-77.0
135.0,134.0,132.0,121.0,95.0,254.0,195.0,137.0,19.0,127.0,-73.0,-121.0,-128.0,126.0,122.0,87.0,-77.0
135.0,134.0,132.0,122.0,96.0,254.0,195.0,136.0,19.0,127.0,-73.0,-121.0,-128.0,126.0,122.0,87.0,-77.0
135.0,134.0,133.0,122.0,97.0,254.0,194.0,136.0,19.0,127.0,-73.0,-121.0,-128.0,126.0,122.0,87.0,-77.0
136.0,135.0,134.0,123.0,98.0,254.0,194.0,136.0,19.0,127.0,-73.0,-121.0,-128.0,126.0,122.0,87.0,-77.0
136.0,135.0,135.0,123.0,99.0,254.0,195.0,136.0,19.0,127.0,-73.0,-121.0,-128.0,126.0,122.0,87.0,-77.0
132.0,135.0,129.0,120.0,90.0,254.0,194.0,138.0,19.0,127.0,-73.0,-121.0,-128.0,126.0,122.0,87.0,-77.0
133.0,134.0,130.0,120.0,91.0,254.0,194.0,138.0,19.0,127.0,-73.0,-121.0,-128.0,126.0,122.0,87.0,-77.0
133.0,134.0,131.0,120.0,92.0,254.0,195.0,138.0,19.0,127.0,-73.0,-121.0,-128.0,126.0,122.0,87.0,-77.0
140.0,120.0,174.0,138.0,152.0,254.0,195.0,122.0,19.0,-119.0,-73.0,-122.0,-128.0,126.0,122.0,87.0,-77.0
140.0,121.0,174.0,139.0,152.0,254.0,195.0,122.0,19.0,-119.0,-73.0,-122.0,-128.0,126.0,122.0,87.0,-77.0
140.0,121.0,173.0,140.0,152.0,254.0,195.0,122.0,19.0,-119.0,-73.0,-122.0,-128.0,126.0,122.0,87.0,-77.0
140.0,122.0,173.0,141.0,152.0,254.0,194.0,122.0,19.0,-119.0,-73.0,-122.0,-128.0,126.0,122.0,87.0,-77.0
141.0,122.0,172.0,143.0,152.0,254.0,195.0,122.0,19.0,-119.0,-73.0,-122.0,-128.0,126.0,122.0,87.0,-77.0
141.0,122.0,172.0,144.0,152.0,254.0,194.0,121.0,19.0,-119.0,-73.0,-122.0,-128.0,126.0,122.0,87.0,-77.0
140.0,120.0,174.0,135.0,151.0,254.0,195.0,122.0,19.0,-119.0,-73.0,-122.0,-128.0,126.0,122.0,87.0,-77.0
140.0,120.0,175.0,136.0,151.0,254.0,194.0,122.0,19.0,-119.0,-73.0,-122.0,-128.0,126.0,122.0,87.0,-77.0
140.0,120.0,175.0,136.0,151.0,254.0,194.0,122.0,19.0,-119.0,-73.0,-122.0,-128.0,126.0,122.0,87.0,-77.0
140.0,120.0,175.0,137.0,151.0,254.0,194.0,122.0,19.0,-119.0,-73.0,-122.0,-128.0,126.0,122.0,87.0,-77.0
144.0,132.0,120.0,120.0,108.0,254.0,194.0,131.0,21.0,-111.0,-71.0,-124.0,-128.0,126.0,121.0,87.0,-77.0
143.0,132.0,118.0,119.0,108.0,254.0,195.0,132.0,21.0,-111.0,-71.0,-124.0,-128.0,126.0,121.0,87.0,-77.0
143.0,131.0,117.0,119.0,107.0,254.0,195.0,132.0,21.0,-111.0,-71.0,-124.0,-128.0,126.0,121.0,87.0,-77.0
143.0,131.0,116.0,118.0,107.0,254.0,195.0,133.0,21.0,-111.0,-71.0,-124.0,-128.0,126.0,121.0,87.0,-77.0
143.0,131.0,115.0,117.0,106.0,254.0,194.0,133.0,21.0,-111.0,-71.0,-124.0,-128.0,126.0,121.0,87.0,-77.0
144.0,133.0,129.0,123.0,112.0,254.0,194.0,129.0,21.0,-111.0,-71.0,-124.0,-128.0,126.0,121.0,87.0,-77.0
144.0,133.0,127.0,123.0,111.0,254.0,194.0,130.0,21.0,-111.0,-71.0,-124.0,-128.0,126.0,121.0,87.0,-77.0
144.0,133.0,125.0,122.0,110.0,254.0,195.0,130.0,21.0,-111.0,-71.0,-124.0,-128.0,126.0,121.0,87.0,-77.0
144.0,133.0,123.0,122.0,109.0,254.0,194.0,130.0,21.0,-111.0,-71.0,-124.0,-128.0,126.0,121.0,87.0,-77.0
144.0,133.0,121.0,121.0,109.0,254.0,194.0,131.0,21.0,-111.0,-71.0,-124.0,-128.0,126.0,121.0,87.0,-77.0
140.0,133.0,106.0,107.0,102.0,254.0,195.0,138.0,21.0,-112.0,-71.0,-125.0,-128.0,126.0,121.0,87.0,-77.0
140.0,133.0,107.0,107.0,103.0,254.0,195.0,138.0,21.0,-112.0,-71.0,-125.0,-128.0,126.0,121.0,87.0,-77.0
140.0,134.0,108.0,107.0,103.0,254.0,195.0,138.0,21.0,-112.0,-71.0,-125.0,-128.0,126.0,121.0,87.0,-77.0
140.0,135.0,110.0,107.0,103.0,254.0,195.0,138.0,21.0,-112.0,-71.0,-125.0,-128.0,126.0,121.0,87.0,-77.0
141.0,134.0,103.0,106.0,101.0,254.0,195.0,139.0,21.0,-112.0,-71.0,-125.0,-128.0,126.0,121.0,87.0,-77.0
140.0,134.0,104.0,106.0,101.0,254.0,195.0,139.0,21.0,-112.0,-71.0,-125.0,-128.0,126.0,121.0,87.0,-77.0
140.0,134.0,105.0,106.0,101.0,254.0,195.0,139.0,21.0,-112.0,-71.0,-125.0,-128.0,126.0,121.0,87.0,-77.0
140.0,133.0,105.0,106.0,101.0,254.0,194.0,138.0,21.0,-112.0,-71.0,-125.0,-128.0,126.0,121.0,87.0,-77.0
140.0,133.0,106.0,107.0,102.0,254.0,194.0,138.0,21.0,-112.0,-71.0,-125.0,-128.0,126.0,121.0,87.0,-77.0
140.0,133.0,106.0,107.0,102.0,254.0,195.0,138.0,21.0,-112.0,-71.0,-125.0,-128.0,126.0,121.0,87.0,-77.0
140.0,132.0,117.0,112.0,111.0,254.0,195.0,138.0,21.0,-115.0,-73.0,-125.0,127.0,126.0,121.0,87.0,-77.0
140.0,132.0,116.0,112.0,111.0,254.0,194.0,138.0,21.0,-115.0,-73.0,-125.0,127.0,126.0,121.0,87.0,-77.0
140.0,132.0,115.0,112.0,111.0,254.0,195.0,138.0,21.0,-115.0,-73.0,-125.0,127.0,126.0,121.0,87.0,-77.0
139.0,130.0,115.0,111.0,112.0,254.0,195.0,138.0,21.0,-115.0,-73.0,-125.0,127.0,126.0,121.0,87.0,-77.0
139.0,130.0,115.0,111.0,112.0,254.0,195.0,138.0,21.0,-115.0,-73.0,-125.0,127.0,126.0,121.0,87.0,-77.0
139.0,130.0,116.0,112.0,112.0,254.0,195.0,137.0,21.0,-115.0,-73.0,-125.0,127.0,126.0,121.0,87.0,-77.0
139.0,131.0,116.0,112.0,112.0,254.0,194.0,137.0,21.0,-115.0,-73.0,-125.0,127.0,126.0,121.0,87.0,-77.0
139.0,131.0,117.0,112.0,112.0,254.0,194.0,137.0,21.0,-115.0,-73.0,-125.0,127.0,126.0,121.0,87.0,-77.0
139.0,132.0,117.0,112.0,112.0,254.0,194.0,138.0,21.0,-115.0,-73.0,-125.0,127.0,126.0,121.0,87.0,-77.0
140.0,132.0,117.0,112.0,112.0,254.0,194.0,138.0,21.0,-115.0,-73.0,-125.0,127.0,126.0,121.0,87.0,-77.0
137.0,130.0,123.0,116.0,110.0,254.0,194.0,137.0,22.0,-114.0,-76.0,-125.0,127.0,126.0,120.0,87.0,-77.0
137.0,131.0,123.0,116.0,110.0,254.0,195.0,137.0,22.0,-114.0,-76.0,-125.0,127.0,126.0,120.0,87.0,-77.0
138.0,130.0,122.0,116.0,110.0,254.0,195.0,138.0,22.0,-114.0,-76.0,-125.0,127.0,126.0,120.0,87.0,-77.0
138.0,130.0,122.0,116.0,110.0,254.0,194.0,138.0,22.0,-114.0,-76.0,-125.0,127.0,126.0,120.0,87.0,-77.0
138.0,130.0,122.0,116.0,110.0,254.0,195.0,139.0,22.0,-114.0,-76.0,-125.0,127.0,126.0,120.0,87.0,-77.0
138.0,130.0,121.0,116.0,110.0,254.0,194.0,139.0,22.0,-114.0,-76.0,-125.0,127.0,126.0,120.0,87.0,-77.0
138.0,130.0,121.0,116.0,110.0,254.0,195.0,139.0,22.0,-114.0,-76.0,-125.0,127.0,126.0,120.0,87.0,-77.0
138.0,130.0,121.0,116.0,110.0,254.0,195.0,138.0,22.0,-114.0,-76.0,-125.0,127.0,126.0,120.0,87.0,-77.0
137.0,130.0,122.0,116.0,110.0,254.0,195.0,138.0,22.0,-114.0,-76.0,-125.0,127.0,126.0,120.0,87.0,-77.0
137.0,130.0,122.0,116.0,110.0,254.0,195.0,138.0,22.0,-114.0,-76.0,-125.0,127.0,126.0,120.0,87.0,-77.0
135.0,129.0,123.0,118.0,113.0,254.0,195.0,136.0,22.0,-112.0,-79.0,-126.0,127.0,126.0,120.0,87.0,-77.0
135.0,129.0,123.0,118.0,113.0,254.0,195.0,136.0,22.0,-112.0,-79.0,-126.0,127.0,126.0,120.0,87.0,-77.0
135.0,128.0,122.0,118.0,113.0,254.0,195.0,136.0,22.0,-112.0,-79.0,-126.0,127.0,126.0,120.0,87.0,-77.0
135.0,128.0,122.0,118.0,113.0,254.0,195.0,136.0,22.0,-112.0,-79.0,-126.0,127.0,126.0,120.0,87.0,-77.0
135.0,128.0,121.0,118.0,113.0,254.0,195.0,136.0,22.0,-112.0,-79.0,-126.0,127.0,126.0,120.0,87.0,-77.0
135.0,128.0,121.0,118.0,113.0,254.0,195.0,136.0,22.0,-112.0,-79.0,-126.0,127.0,126.0,120.0,87.0,-77.0
135.0,128.0,121.0,118.0,113.0,254.0,195.0,136.0,22.0,-112.0,-79.0,-126.0,127.0,126.0,120.0,87.0,-77.0
135.0,128.0,122.0,118.0,113.0,254.0,195.0,136.0,22.0,-112.0,-79.0,-126.0,127.0,126.0,120.0,87.0,-77.0
135.0,128.0,122.0,118.0,113.0,254.0,195.0,136.0,22.0,-112.0,-79.0,-126.0,127.0,126.0,120.0,87.0,-77.0
135.0,128.0,123.0,119.0,113.0,254.0,194.0,136.0,22.0,-112.0,-79.0,-126.0,127.0,126.0,120.0,87.0,-77.0
134.0,128.0,123.0,118.0,116.0,254.0,195.0,131.0,20.0,-110.0,-82.0,-126.0,127.0,126.0,119.0,86.0,-77.0
134.0,128.0,123.0,119.0,116.0,254.0,194.0,131.0,20.0,-110.0,-82.0,-126.0,127.0,126.0,119.0,86.0,-77.0
134.0,128.0,124.0,119.0,116.0,254.0,195.0,131.0,20.0,-110.0,-82.0,-126.0,127.0,126.0,119.0,86.0,-77.0
134.0,128.0,124.0,119.0,117.0,254.0,195.0,131.0,20.0,-110.0,-82.0,-126.0,127.0,126.0,119.0,86.0,-77.0
134.0,128.0,124.0,119.0,117.0,254.0,195.0,131.0,20.0,-110.0,-82.0,-126.0,127.0,126.0,119.0,86.0,-77.0
134.0,128.0,125.0,120.0,117.0,254.0,194.0,131.0,20.0,-110.0,-82.0,-126.0,127.0,126.0,119.0,86.0,-77.0
134.0,128.0,124.0,120.0,117.0,254.0,195.0,131.0,20.0,-110.0,-82.0,-126.0,127.0,126.0,119.0,86.0,-77.0
134.0,128.0,124.0,120.0,117.0,254.0,195.0,131.0,20.0,-110.0,-82.0,-126.0,127.0,126.0,119.0,86.0,-77.0
133.0,128.0,124.0,120.0,117.0,254.0,194.0,131.0,20.0,-110.0,-82.0,-126.0,127.0,126.0,119.0,86.0,-77.0
134.0,128.0,123.0,118.0,116.0,254.0,195.0,131.0,20.0,-110.0,-82.0,-126.0,127.0,126.0,119.0,86.0,-77.0
133.0,128.0,130.0,119.0,119.0,254.0,194.0,128.0,18.0,-109.0,-85.0,-126.0,127.0,126.0,118.0,86.0,-77.0
133.0,128.0,130.0,119.0,119.0,254.0,194.0,128.0,18.0,-109.0,-85.0,-126.0,127.0,126.0,118.0,86.0,-77.0
133.0,127.0,130.0,119.0,119.0,254.0,194.0,129.0,18.0,-109.0,-85.0,-126.0,127.0,126.0,118.0,86.0,-77.0
133.0,127.0,129.0,119.0,120.0,254.0,195.0,128.0,18.0,-109.0,-85.0,-126.0,127.0,126.0,118.0,86.0,-77.0
133.0,127.0,129.0,119.0,120.0,254.0,194.0,128.0,18.0,-109.0,-85.0,-126.0,127.0,126.0,118.0,86.0,-77.0
133.0,127.0,129.0,119.0,120.0,254.0,195.0,128.0,18.0,-109.0,-85.0,-126.0,127.0,126.0,118.0,86.0,-77.0
133.0,127.0,128.0,118.0,120.0,254.0,195.0,128.0,18.0,-109.0,-85.0,-126.0,127.0,126.0,118.0,86.0,-77.0
133.0,127.0,128.0,118.0,120.0,254.0,194.0,128.0,18.0,-109.0,-85.0,-126.0,127.0,126.0,118.0,86.0,-77.0
133.0,128.0,130.0,119.0,119.0,254.0,194.0,128.0,18.0,-109.0,-85.0,-126.0,127.0,126.0,118.0,86.0,-77.0
133.0,128.0,130.0,119.0,119.0,254.0,195.0,128.0,18.0,-109.0,-85.0,-126.0,127.0,126.0,118.0,86.0,-77.0
133.0,129.0,127.0,119.0,124.0,249.0,188.0,126.0,17.0,-108.0,-86.0,-127.0,127.0,127.0,118.0,85.0,-78.0
133.0,129.0,127.0,120.0,124.0,248.0,186.0,126.0,17.0,-108.0,-86.0,-127.0,127.0,127.0,118.0,85.0,-78.0
133.0,129.0,127.0,120.0,125.0,247.0,186.0,126.0,17.0,-108.0,-86.0,-127.0,127.0,127.0,118.0,85.0,-78.0
133.0,128.0,127.0,121.0,125.0,245.0,189.0,127.0,17.0,-108.0,-86.0,-127.0,127.0,127.0,118.0,85.0,-78.0
133.0,128.0,126.0,121.0,125.0,244.0,188.0,127.0,17.0,-108.0,-86.0,-127.0,127.0,127.0,118.0,85.0,-78.0
134.0,129.0,126.0,121.0,125.0,243.0,186.0,127.0,17.0,-108.0,-86.0,-127.0,127.0,127.0,118.0,85.0,-78.0
134.0,129.0,126.0,121.0,126.0,241.0,184.0,127.0,17.0,-108.0,-86.0,-127.0,127.0,127.0,118.0,85.0,-78.0
133.0,128.0,125.0,118.0,123.0,252.0,191.0,126.0,17.0,-108.0,-86.0,-127.0,127.0,127.0,118.0,85.0,-78.0
133.0,128.0,125.0,118.0,123.0,251.0,190.0,126.0,17.0,-108.0,-86.0,-127.0,127.0,127.0,118.0,85.0,-78.0
133.0,128.0,126.0,119.0,124.0,250.0,189.0,126.0,17.0,-108.0,-86.0,-127.0,127.0,127.0,118.0,85.0,-78.0
131.0,128.0,133.0,121.0,128.0,182.0,151.0,127.0,15.0,-107.0,-87.0,-127.0,127.0,127.0,117.0,85.0,-78.0
131.0,127.0,132.0,121.0,128.0,181.0,152.0,128.0,15.0,-107.0,-87.0,-127.0,127.0,127.0,117.0,85.0,-78.0
131.0,127.0,131.0,121.0,128.0,180.0,151.0,128.0,15.0,-107.0,-87.0,-127.0,127.0,127.0,117.0,85.0,-78.0
131.0,127.0,129.0,121.0,128.0,180.0,149.0,128.0,15.0,-107.0,-87.0,-127.0,127.0,127.0,117.0,85.0,-78.0
131.0,128.0,128.0,121.0,128.0,179.0,148.0,127.0,15.0,-107.0,-87.0,-127.0,127.0,127.0,117.0,85.0,-78.0
131.0,128.0,127.0,121.0,128.0,178.0,147.0,127.0,15.0,-107.0,-87.0,-127.0,127.0,127.0,117.0,85.0,-78.0
131.0,127.0,130.0,119.0,128.0,186.0,152.0,127.0,15.0,-107.0,-87.0,-127.0,127.0,127.0,117.0,85.0,-78.0
131.0,127.0,130.0,119.0,128.0,185.0,150.0,127.0,15.0,-107.0,-87.0,-127.0,127.0,127.0,117.0,85.0,-78.0
131.0,128.0,131.0,120.0,128.0,184.0,149.0,127.0,15.0,-107.0,-87.0,-127.0,127.0,127.0,117.0,85.0,-78.0
131.0,128.0,132.0,120.0,128.0,183.0,147.0,127.0,15.0,-107.0,-87.0,-127.0,127.0,127.0,117.0,85.0,-78.0
130.0,128.0,127.0,121.0,125.0,158.0,136.0,129.0,15.0,-106.0,-88.0,-128.0,127.0,127.0,116.0,85.0,-78.0
130.0,129.0,128.0,121.0,126.0,158.0,136.0,129.0,15.0,-106.0,-88.0,-128.0,127.0,127.0,116.0,85.0,-78.0
130.0,129.0,129.0,120.0,126.0,158.0,136.0,129.0,15.0,-106.0,-88.0,-128.0,127.0,127.0,116.0,85.0,-78.0
130.0,130.0,129.0,120.0,126.0,158.0,135.0,129.0,15.0,-106.0,-88.0,-128.0,127.0,127.0,116.0,85.0,-78.0
130.0,130.0,130.0,120.0,126.0,158.0,135.0,129.0,15.0,-106.0,-88.0,-128.0,127.0,127.0,116.0,85.0,-78.0
130.0,127.0,125.0,121.0,126.0,159.0,131.0,129.0,15.0,-106.0,-88.0,-128.0,127.0,127.0,116.0,85.0,-78.0
130.0,127.0,125.0,121.0,126.0,159.0,131.0,129.0,15.0,-106.0,-88.0,-128.0,127.0,127.0,116.0,85.0,-78.0
130.0,127.0,125.0,122.0,126.0,159.0,131.0,129.0,15.0,-106.0,-88.0,-128.0,127.0,127.0,116.0,85.0,-78.0
130.0,127.0,126.0,122.0,126.0,159.0,132.0,129.0,15.0,-106.0,-88.0,-128.0,127.0,127.0,116.0,85.0,-78.0
130.0,128.0,126.0,121.0,125.0,159.0,135.0,129.0,15.0,-106.0,-88.0,-128.0,127.0,127.0,116.0,85.0,-78.0
130.0,127.0,125.0,122.0,126.0,152.0,127.0,130.0,14.0,-106.0,-88.0,-128.0,127.0,127.0,116.0,84.0,-78.0
130.0,127.0,124.0,122.0,126.0,152.0,126.0,130.0,14.0,-106.0,-88.0,-128.0,127.0,127.0,116.0,84.0,-78.0
130.0,127.0,125.0,122.0,126.0,152.0,126.0,130.0,14.0,-106.0,-88.0,-128.0,127.0,127.0,116.0,84.0,-78.0
130.0,127.0,126.0,122.0,127.0,152.0,127.0,130.0,14.0,-106.0,-88.0,-128.0,127.0,127.0,116.0,84.0,-78.0
129.0,127.0,131.0,122.0,127.0,153.0,127.0,130.0,14.0,-106.0,-88.0,-128.0,127.0,127.0,116.0,84.0,-78.0
129.0,126.0,131.0,122.0,127.0,152.0,126.0,130.0,14.0,-106.0,-88.0,-128.0,127.0,127.0,116.0,84.0,-78.0
129.0,127.0,131.0,122.0,127.0,152.0,127.0,130.0,14.0,-106.0,-88.0,-128.0,127.0,127.0,116.0,84.0,-78.0
129.0,127.0,130.0,123.0,126.0,152.0,126.0,130.0,14.0,-106.0,-88.0,-128.0,127.0,127.0,116.0,84.0,-78.0
129.0,127.0,128.0,123.0,126.0,152.0,126.0,130.0,14.0,-106.0,-88.0,-128.0,127.0,127.0,116.0,84.0,-78.0
130.0,127.0,126.0,123.0,126.0,152.0,127.0,130.0,14.0,-106.0,-88.0,-128.0,127.0,127.0,116.0,84.0,-78.0
129.0,128.0,130.0,123.0,129.0,150.0,131.0,129.0,13.0,-105.0,-88.0,-128.0,127.0,127.0,115.0,84.0,-78.0
129.0,128.0,130.0,124.0,129.0,150.0,130.0,128.0,13.0,-105.0,-88.0,-128.0,127.0,127.0,115.0,84.0,-78.0
129.0,128.0,129.0,124.0,129.0,150.0,131.0,128.0,13.0,-105.0,-88.0,-128.0,127.0,127.0,115.0,84.0,-78.0
129.0,128.0,126.0,122.0,129.0,150.0,131.0,130.0,13.0,-105.0,-88.0,-128.0,127.0,127.0,115.0,84.0,-78.0
129.0,127.0,127.0,123.0,129.0,150.0,130.0,130.0,13.0,-105.0,-88.0,-128.0,127.0,127.0,115.0,84.0,-78.0
129.0,127.0,127.0,122.0,129.0,150.0,131.0,129.0,13.0,-105.0,-88.0,-128.0,127.0,127.0,115.0,84.0,-78.0
129.0,127.0,127.0,122.0,129.0,150.0,131.0,129.0,13.0,-105.0,-88.0,-128.0,127.0,127.0,115.0,84.0,-78.0
129.0,127.0,128.0,123.0,129.0,150.0,130.0,129.0,13.0,-105.0,-88.0,-128.0,127.0,127.0,115.0,84.0,-78.0
129.0,128.0,128.0,123.0,129.0,150.0,131.0,129.0,13.0,-105.0,-88.0,-128.0,127.0,127.0,115.0,84.0,-78.0
129.0,128.0,129.0,123.0,129.0,150.0,131.0,129.0,13.0,-105.0,-88.0,-128.0,127.0,127.0,115.0,84.0,-78.0
129.0,128.0,127.0,121.0,130.0,150.0,129.0,130.0,13.0,-105.0,-88.0,-128.0,127.0,127.0,114.0,84.0,-78.0
129.0,128.0,127.0,121.0,130.0,150.0,130.0,130.0,13.0,-105.0,-88.0,-128.0,127.0,127.0,114.0,84.0,-78.0
129.0,127.0,125.0,119.0,130.0,150.0,129.0,130.0,13.0,-105.0,-88.0,-128.0,127.0,127.0,114.0,84.0,-78.0
129.0,127.0,125.0,120.0,130.0,150.0,129.0,131.0,13.0,-105.0,-88.0,-128.0,127.0,127.0,114.0,84.0,-78.0
129.0,127.0,125.0,120.0,130.0,150.0,130.0,131.0,13.0,-105.0,-88.0,-128.0,127.0,127.0,114.0,84.0,-78.0
129.0,127.0,126.0,121.0,130.0,150.0,130.0,132.0,13.0,-105.0,-88.0,-128.0,127.0,127.0,114.0,84.0,-78.0
129.0,127.0,126.0,121.0,130.0,150.0,130.0,132.0,13.0,-105.0,-88.0,-128.0,127.0,127.0,114.0,84.0,-78.0
129.0,127.0,126.0,121.0,130.0,150.0,130.0,131.0,13.0,-105.0,-88.0,-128.0,127.0,127.0,114.0,84.0,-78.0
129.0,127.0,126.0,121.0,130.0,150.0,129.0,131.0,13.0,-105.0,-88.0,-128.0,127.0,127.0,114.0,84.0,-78.0
129.0,127.0,127.0,121.0,130.0,150.0,130.0,131.0,13.0,-105.0,-88.0,-128.0,127.0,127.0,114.0,84.0,-78.0
129.0,126.0,126.0,124.0,130.0,150.0,130.0,129.0,13.0,-105.0,-88.0,127.0,127.0,127.0,113.0,84.0,-78.0
129.0,126.0,126.0,123.0,129.0,150.0,129.0,129.0,13.0,-105.0,-88.0,127.0,127.0,127.0,113.0,84.0,-78.0
129.0,126.0,126.0,123.0,129.0,150.0,129.0,129.0,13.0,-105.0,-88.0,127.0,127.0,127.0,113.0,84.0,-78.0
129.0,126.0,126.0,123.0,129.0,150.0,130.0,129.0,13.0,-105.0,-88.0,127.0,127.0,127.0,113.0,84.0,-78.0
129.0,126.0,126.0,123.0,129.0,150.0,130.0,129.0,13.0,-105.0,-88.0,127.0,127.0,127.0,113.0,84.0,-78.0
129.0,126.0,126.0,123.0,128.0,150.0,130.0,129.0,13.0,-105.0,-88.0,127.0,127.0,127.0,113.0,84.0,-78.0
129.0,126.0,126.0,123.0,128.0,150.0,130.0,129.0,13.0,-105.0,-88.0,127.0,127.0,127.0,113.0,84.0,-78.0
129.0,126.0,125.0,123.0,128.0,150.0,129.0,129.0,13.0,-105.0,-88.0,127.0,127.0,127.0,113.0,84.0,-78.0
129.0,126.0,125.0,123.0,128.0,150.0,129.0,128.0,13.0,-105.0,-88.0,127.0,127.0,127.0,113.0,84.0,-78.0
129.0,126.0,126.0,122.0,128.0,150.0,129.0,128.0,13.0,-105.0,-88.0,127.0,127.0,127.0,113.0,84.0,-78.0
129.0,127.0,128.0,125.0,130.0,149.0,129.0,129.0,14.0,-105.0,-87.0,127.0,127.0,127.0,113.0,84.0,-78.0
129.0,127.0,128.0,125.0,130.0,149.0,129.0,128.0,14.0,-105.0,-87.0,127.0,127.0,127.0,113.0,84.0,-78.0
129.0,127.0,128.0,124.0,130.0,149.0,129.0,127.0,14.0,-105.0,-87.0,127.0,127.0,127.0,113.0,84.0,-78.0
129.0,127.0,127.0,124.0,130.0,149.0,129.0,125.0,14.0,-105.0,-87.0,127.0,127.0,127.0,113.0,84.0,-78.0
129.0,127.0,127.0,124.0,130.0,149.0,129.0,124.0,14.0,-105.0,-87.0,127.0,127.0,127.0,113.0,84.0,-78.0
129.0,127.0,127.0,123.0,129.0,149.0,129.0,124.0,14.0,-105.0,-87.0,127.0,127.0,127.0,113.0,84.0,-78.0
129.0,127.0,127.0,123.0,129.0,149.0,129.0,124.0,14.0,-105.0,-87.0,127.0,127.0,127.0,113.0,84.0,-78.0
129.0,127.0,128.0,123.0,129.0,149.0,129.0,124.0,14.0,-105.0,-87.0,127.0,127.0,127.0,113.0,84.0,-78.0
129.0,127.0,129.0,122.0,129.0,149.0,129.0,124.0,14.0,-105.0,-87.0,127.0,127.0,127.0,113.0,84.0,-78.0
130.0,127.0,128.0,125.0,130.0,149.0,130.0,130.0,14.0,-105.0,-87.0,127.0,127.0,127.0,113.0,84.0,-78.0
129.0,125.0,128.0,123.0,130.0,149.0,129.0,130.0,14.0,-105.0,-87.0,127.0,127.0,127.0,112.0,84.0,-78.0
129.0,124.0,129.0,123.0,130.0,149.0,129.0,130.0,14.0,-105.0,-87.0,127.0,127.0,127.0,112.0,84.0,-78.0
129.0,125.0,129.0,123.0,130.0,149.0,129.0,129.0,14.0,-105.0,-87.0,127.0,127.0,127.0,112.0,84.0,-78.0
129.0,125.0,130.0,123.0,130.0,149.0,129.0,129.0,14.0,-105.0,-87.0,127.0,127.0,127.0,112.0,84.0,-78.0
129.0,126.0,131.0,123.0,130.0,149.0,129.0,129.0,14.0,-105.0,-87.0,127.0,127.0,127.0,112.0,84.0,-78.0
129.0,127.0,131.0,123.0,130.0,149.0,129.0,129.0,14.0,-105.0,-87.0,127.0,127.0,127.0,112.0,84.0,-78.0
129.0,127.0,130.0,122.0,130.0,149.0,129.0,129.0,14.0,-105.0,-87.0,127.0,127.0,127.0,112.0,84.0,-78.0
129.0,126.0,130.0,122.0,130.0,149.0,128.0,129.0,14.0,-105.0,-87.0,127.0,127.0,127.0,112.0,84.0,-78.0
130.0,126.0,128.0,123.0,130.0,149.0,129.0,130.0,14.0,-105.0,-87.0,127.0,127.0,127.0,112.0,84.0,-78.0
129.0,125.0,128.0,123.0,130.0,149.0,129.0,130.0,14.0,-105.0,-87.0,127.0,127.0,127.0,112.0,84.0,-78.0
129.0,127.0,128.0,124.0,129.0,149.0,128.0,130.0,14.0,-105.0,-87.0,127.0,127.0,127.0,111.0,84.0,-78.0
129.0,127.0,129.0,124.0,130.0,149.0,128.0,130.0,14.0,-105.0,-87.0,127.0,127.0,127.0,111.0,84.0,-78.0
129.0,128.0,128.0,124.0,130.0,149.0,128.0,130.0,14.0,-105.0,-87.0,127.0,127.0,127.0,111.0,84.0,-78.0
129.0,128.0,128.0,124.0,130.0,149.0,128.0,130.0,14.0,-105.0,-87.0,127.0,127.0,127.0,111.0,84.0,-78.0
129.0,128.0,128.0,123.0,129.0,149.0,128.0,130.0,14.0,-105.0,-87.0,127.0,127.0,127.0,111.0,84.0,-78.0
129.0,127.0,128.0,123.0,129.0,149.0,128.0,130.0,14.0,-105.0,-87.0,127.0,127.0,127.0,111.0,84.0,-78.0
129.0,127.0,128.0,123.0,129.0,149.0,128.0,130.0,14.0,-105.0,-87.0,127.0,127.0,127.0,111.0,84.0,-78.0
129.0,127.0,129.0,123.0,129.0,149.0,129.0,130.0,14.0,-105.0,-87.0,127.0,127.0,127.0,111.0,84.0,-78.0
130.0,127.0,129.0,123.0,129.0,149.0,129.0,130.0,14.0,-105.0,-87.0,127.0,127.0,127.0,111.0,84.0,-78.0
129.0,127.0,129.0,123.0,129.0,149.0,128.0,130.0,14.0,-105.0,-87.0,127.0,127.0,127.0,111.0,84.0,-78.0
129.0,126.0,126.0,123.0,128.0,149.0,128.0,130.0,15.0,-105.0,-86.0,127.0,127.0,127.0,111.0,84.0,-78.0
129.0,127.0,126.0,123.0,128.0,149.0,128.0,130.0,15.0,-105.0,-86.0,127.0,127.0,127.0,111.0,84.0,-78.0
129.0,127.0,126.0,123.0,128.0,149.0,128.0,130.0,15.0,-105.0,-86.0,127.0,127.0,127.0,111.0,84.0,-78.0
129.0,127.0,127.0,123.0,128.0,149.0,128.0,130.0,15.0,-105.0,-86.0,127.0,127.0,127.0,111.0,84.0,-78.0
129.0,127.0,127.0,123.0,128.0,149.0,128.0,130.0,15.0,-105.0,-86.0,127.0,127.0,127.0,111.0,84.0,-78.0
129.0,128.0,127.0,123.0,128.0,149.0,129.0,130.0,15.0,-105.0,-86.0,127.0,127.0,127.0,111.0,84.0,-78.0
129.0,126.0,127.0,123.0,128.0,149.0,129.0,130.0,15.0,-105.0,-86.0,127.0,127.0,127.0,111.0,84.0,-78.0
129.0,126.0,127.0,123.0,128.0,149.0,129.0,130.0,15.0,-105.0,-86.0,127.0,127.0,127.0,111.0,84.0,-78.0
129.0,126.0,127.0,123.0,128.0,149.0,129.0,130.0,15.0,-105.0,-86.0,127.0,127.0,127.0,111.0,84.0,-78.0
129.0,126.0,126.0,123.0,128.0,149.0,128.0,130.0,15.0,-105.0,-86.0,127.0,127.0,127.0,111.0,84.0,-78.0
129.0,127.0,126.0,123.0,129.0,149.0,128.0,127.0,15.0,-106.0,-86.0,127.0,127.0,127.0,110.0,84.0,-78.0
129.0,127.0,127.0,123.0,129.0,149.0,128.0,128.0,15.0,-106.0,-86.0,127.0,127.0,127.0,110.0,84.0,-78.0
129.0,128.0,127.0,123.0,128.0,149.0,128.0,129.0,15.0,-106.0,-86.0,127.0,127.0,127.0,110.0,84.0,-78.0
129.0,128.0,127.0,123.0,128.0,149.0,128.0,129.0,15.0,-106.0,-86.0,127.0,127.0,127.0,110.0,84.0,-78.0
129.0,127.0,127.0,123.0,128.0,149.0,129.0,129.0,15.0,-106.0,-86.0,127.0,127.0,127.0,110.0,84.0,-78.0
129.0,127.0,126.0,122.0,128.0,149.0,128.0,127.0,15.0,-106.0,-86.0,127.0,127.0,127.0,110.0,84.0,-78.0
129.0,126.0,127.0,123.0,128.0,149.0,128.0,126.0,15.0,-106.0,-86.0,127.0,127.0,127.0,110.0,84.0,-78.0
129.0,126.0,127.0,123.0,129.0,149.0,128.0,126.0,15.0,-106.0,-86.0,127.0,127.0,127.0,110.0,84.0,-78.0
129.0,126.0,127.0,123.0,129.0,149.0,128.0,126.0,15.0,-106.0,-86.0,127.0,127.0,127.0,110.0,84.0,-78.0
129.0,126.0,127.0,123.0,129.0,149.0,128.0,127.0,15.0,-106.0,-86.0,127.0,127.0,127.0,110.0,84.0,-78.0
129.0,127.0,123.0,124.0,129.0,149.0,128.0,129.0,15.0,-106.0,-86.0,127.0,127.0,127.0,109.0,84.0,-78.0
129.0,127.0,123.0,124.0,130.0,149.0,128.0,129.0,15.0,-106.0,-86.0,127.0,127.0,127.0,109.0,84.0,-78.0
129.0,127.0,123.0,124.0,130.0,149.0,128.0,128.0,15.0,-106.0,-86.0,127.0,127.0,127.0,109.0,84.0,-78.0
129.0,126.0,123.0,125.0,130.0,149.0,128.0,128.0,15.0,-106.0,-86.0,127.0,127.0,127.0,109.0,84.0,-78.0
129.0,127.0,126.0,125.0,128.0,149.0,129.0,128.0,15.0,-106.0,-86.0,127.0,127.0,127.0,109.0,84.0,-78.0
129.0,127.0,126.0,124.0,128.0,149.0,129.0,128.0,15.0,-106.0,-86.0,127.0,127.0,127.0,109.0,84.0,-78.0
129.0,127.0,125.0,124.0,129.0,149.0,129.0,128.0,15.0,-106.0,-86.0,127.0,127.0,127.0,109.0,84.0,-78.0
129.0,127.0,125.0,124.0,129.0,149.0,129.0,128.0,15.0,-106.0,-86.0,127.0,127.0,127.0,109.0,84.0,-78.0
129.0,127.0,124.0,124.0,129.0,149.0,129.0,128.0,15.0,-106.0,-86.0,127.0,127.0,127.0,109.0,84.0,-78.0
129.0,127.0,123.0,124.0,129.0,149.0,128.0,128.0,15.0,-106.0,-86.0,127.0,127.0,127.0,109.0,84.0,-78.0
128.0,125.0,124.0,123.0,126.0,148.0,127.0,128.0,15.0,-106.0,-86.0,127.0,127.0,127.0,108.0,83.0,-78.0
128.0,125.0,123.0,123.0,126.0,148.0,127.0,128.0,15.0,-106.0,-86.0,127.0,127.0,127.0,108.0,83.0,-78.0
128.0,125.0,122.0,123.0,126.0,148.0,127.0,128.0,15.0,-106.0,-86.0,127.0,127.0,127.0,108.0,83.0,-78.0
129.0,126.0,126.0,126.0,128.0,149.0,127.0,128.0,15.0,-106.0,-86.0,127.0,127.0,127.0,108.0,83.0,-78.0
128.0,126.0,126.0,126.0,128.0,148.0,127.0,128.0,15.0,-106.0,-86.0,127.0,127.0,127.0,108.0,83.0,-78.0
128.0,126.0,126.0,126.0,128.0,148.0,127.0,128.0,15.0,-106.0,-86.0,127.0,127.0,127.0,108.0,83.0,-78.0
128.0,126.0,125.0,125.0,127.0,148.0,127.0,128.0,15.0,-106.0,-86.0,127.0,127.0,127.0,108.0,83.0,-78.0
128.0,126.0,125.0,125.0,127.0,148.0,127.0,128.0,15.0,-106.0,-86.0,127.0,127.0,127.0,108.0,83.0,-78.0
128.0,126.0,125.0,124.0,127.0,148.0,127.0,128.0,15.0,-106.0,-86.0,127.0,127.0,127.0,108.0,83.0,-78.0
128.0,125.0,124.0,124.0,127.0,148.0,127.0,127.0,15.0,-106.0,-86.0,127.0,127.0,127.0,108.0,83.0,-78.0
128.0,127.0,125.0,123.0,127.0,149.0,128.0,127.0,15.0,-107.0,-85.0,127.0,127.0,127.0,108.0,83.0,-78.0
128.0,127.0,125.0,123.0,127.0,149.0,128.0,127.0,15.0,-107.0,-85.0,127.0,127.0,127.0,108.0,83.0,-78.0
128.0,128.0,134.0,125.0,129.0,149.0,128.0,128.0,15.0,-107.0,-85.0,127.0,127.0,127.0,108.0,83.0,-78.0
128.0,128.0,134.0,125.0,129.0,149.0,128.0,128.0,15.0,-107.0,-85.0,127.0,127.0,127.0,108.0,83.0,-78.0
128.0,127.0,133.0,125.0,129.0,149.0,128.0,128.0,15.0,-107.0,-85.0,127.0,127.0,127.0,108.0,83.0,-78.0
128.0,127.0,132.0,125.0,128.0,149.0,128.0,128.0,15.0,-107.0,-85.0,127.0,127.0,127.0,108.0,83.0,-78.0
128.0,128.0,130.0,124.0,128.0,149.0,128.0,128.0,15.0,-107.0,-85.0,127.0,127.0,127.0,108.0,83.0,-78.0
128.0,128.0,129.0,124.0,128.0,149.0,128.0,127.0,15.0,-107.0,-85.0,127.0,127.0,127.0,108.0,83.0,-78.0
128.0,128.0,128.0,124.0,128.0,149.0,128.0,127.0,15.0,-107.0,-85.0,127.0,127.0,127.0,108.0,83.0,-78.0
128.0,127.0,126.0,123.0,127.0,149.0,128.0,127.0,15.0,-107.0,-85.0,127.0,127.0,127.0,108.0,83.0,-78.0
129.0,127.0,129.0,122.0,128.0,149.0,128.0,128.0,15.0,-107.0,-85.0,127.0,127.0,127.0,108.0,83.0,-78.0
129.0,127.0,124.0,123.0,128.0,149.0,128.0,128.0,15.0,-107.0,-85.0,127.0,127.0,127.0,108.0,83.0,-78.0
129.0,127.0,124.0,123.0,128.0,149.0,128.0,129.0,15.0,-107.0,-85.0,127.0,127.0,127.0,108.0,83.0,-78.0
129.0,127.0,124.0,123.0,128.0,149.0,128.0,129.0,15.0,-107.0,-85.0,127.0,127.0,127.0,108.0,83.0,-78.0
129.0,127.0,124.0,123.0,128.0,149.0,128.0,129.0,15.0,-107.0,-85.0,127.0,127.0,127.0,108.0,83.0,-78.0
129.0,127.0,125.0,123.0,128.0,149.0,128.0,128.0,15.0,-107.0,-85.0,127.0,127.0,127.0,108.0,83.0,-78.0
129.0,127.0,125.0,123.0,128.0,149.0,128.0,128.0,15.0,-107.0,-85.0,127.0,127.0,127.0,108.0,83.0,-78.0
129.0,127.0,126.0,122.0,128.0,149.0,128.0,128.0,15.0,-107.0,-85.0,127.0,127.0,127.0,108.0,83.0,-78.0
129.0,127.0,127.0,122.0,128.0,149.0,128.0,128.0,15.0,-107.0,-85.0,127.0,127.0,127.0,108.0,83.0,-78.0
129.0,127.0,128.0,122.0,128.0,149.0,128.0,128.0,15.0,-107.0,-85.0,127.0,127.0,127.0,108.0,83.0,-78.0
128.0,126.0,128.0,127.0,130.0,149.0,129.0,127.0,15.0,-107.0,-85.0,127.0,127.0,127.0,108.0,83.0,-78.0
128.0,126.0,128.0,127.0,130.0,149.0,128.0,127.0,15.0,-107.0,-85.0,127.0,127.0,127.0,108.0,83.0,-78.0
128.0,126.0,129.0,127.0,129.0,149.0,129.0,128.0,15.0,-107.0,-85.0,127.0,127.0,127.0,108.0,83.0,-78.0
128.0,127.0,129.0,127.0,129.0,149.0,129.0,128.0,15.0,-107.0,-85.0,127.0,127.0,127.0,108.0,83.0,-78.0
129.0,127.0,129.0,127.0,129.0,149.0,129.0,128.0,15.0,-107.0,-85.0,127.0,127.0,127.0,108.0,83.0,-78.0
129.0,127.0,129.0,127.0,128.0,149.0,129.0,128.0,15.0,-107.0,-85.0,127.0,127.0,127.0,108.0,83.0,-78.0
129.0,127.0,129.0,126.0,128.0,149.0,129.0,128.0,15.0,-107.0,-85.0,127.0,127.0,127.0,108.0,83.0,-78.0
129.0,127.0,129.0,126.0,128.0,149.0,129.0,128.0,15.0,-107.0,-85.0,127.0,127.0,127.0,108.0,83.0,-78.0
129.0,127.0,129.0,126.0,127.0,149.0,128.0,128.0,15.0,-107.0,-85.0,127.0,127.0,127.0,108.0,83.0,-78.0
128.0,126.0,127.0,127.0,130.0,149.0,129.0,127.0,15.0,-107.0,-85.0,127.0,127.0,127.0,108.0,83.0,-78.0
128.0,126.0,127.0,126.0,127.0,149.0,129.0,128.0,15.0,-107.0,-85.0,127.0,127.0,127.0,108.0,83.0,-78.0
128.0,126.0,127.0,126.0,127.0,149.0,129.0,128.0,15.0,-107.0,-85.0,127.0,127.0,127.0,108.0,83.0,-78.0
128.0,126.0,126.0,127.0,128.0,149.0,129.0,127.0,15.0,-107.0,-85.0,127.0,127.0,127.0,108.0,83.0,-78.0
128.0,126.0,126.0,126.0,128.0,149.0,129.0,127.0,15.0,-107.0,-85.0,127.0,127.0,127.0,108.0,83.0,-78.0
128.0,126.0,126.0,126.0,128.0,149.0,129.0,126.0,15.0,-107.0,-85.0,127.0,127.0,127.0,108.0,83.0,-78.0
128.0,126.0,126.0,126.0,128.0,149.0,129.0,126.0,15.0,-107.0,-85.0,127.0,127.0,127.0,108.0,83.0,-78.0
128.0,126.0,126.0,126.0,128.0,149.0,129.0,126.0,15.0,-107.0,-85.0,127.0,127.0,127.0,108.0,83.0,-78.0
128.0,126.0,127.0,126.0,128.0,149.0,128.0,126.0,15.0,-107.0,-85.0,127.0,127.0,127.0,108.0,83.0,-78.0
128.0,127.0,127.0,126.0,127.0,149.0,129.0,128.0,15.0,-107.0,-85.0,127.0,127.0,127.0,108.0,83.0,-78.0
128.0,127.0,127.0,126.0,127.0,149.0,129.0,128.0,15.0,-107.0,-85.0,127.0,127.0,127.0,108.0,83.0,-78.0
131.0,127.0,127.0,124.0,125.0,149.0,129.0,129.0,15.0,-108.0,-85.0,127.0,127.0,127.0,108.0,83.0,-78.0
131.0,127.0,127.0,123.0,125.0,149.0,128.0,129.0,15.0,-108.0,-85.0,127.0,127.0,127.0,108.0,83.0,-78.0
131.0,127.0,127.0,122.0,125.0,149.0,128.0,129.0,15.0,-108.0,-85.0,127.0,127.0,127.0,108.0,83.0,-78.0
131.0,126.0,127.0,122.0,125.0,149.0,128.0,129.0,15.0,-108.0,-85.0,127.0,127.0,127.0,108.0,83.0,-78.0
130.0,126.0,127.0,121.0,125.0,149.0,128.0,129.0,15.0,-108.0,-85.0,127.0,127.0,127.0,108.0,83.0,-78.0
131.0,126.0,126.0,121.0,124.0,149.0,128.0,128.0,15.0,-108.0,-85.0,127.0,127.0,127.0,108.0,83.0,-78.0
131.0,126.0,124.0,120.0,124.0,149.0,128.0,128.0,15.0,-108.0,-85.0,127.0,127.0,127.0,108.0,83.0,-78.0
131.0,126.0,128.0,125.0,127.0,149.0,129.0,128.0,15.0,-108.0,-85.0,127.0,127.0,127.0,108.0,83.0,-78.0
131.0,127.0,128.0,125.0,126.0,149.0,129.0,128.0,15.0,-108.0,-85.0,127.0,127.0,127.0,108.0,83.0,-78.0
131.0,127.0,127.0,124.0,126.0,149.0,129.0,128.0,15.0,-108.0,-85.0,127.0,127.0,127.0,108.0,83.0,-78.0
129.0,126.0,125.0,125.0,128.0,149.0,129.0,128.0,15.0,-107.0,-85.0,127.0,127.0,127.0,108.0,83.0,-78.0
129.0,126.0,125.0,125.0,128.0,149.0,128.0,128.0,15.0,-107.0,-85.0,127.0,127.0,127.0,108.0,83.0,-78.0
129.0,126.0,124.0,125.0,128.0,149.0,128.0,129.0,15.0,-107.0,-85.0,127.0,127.0,127.0,108.0,83.0,-78.0
130.0,126.0,124.0,124.0,128.0,149.0,128.0,129.0,15.0,-107.0,-85.0,127.0,127.0,127.0,108.0,83.0,-78.0
130.0,127.0,124.0,124.0,127.0,149.0,128.0,130.0,15.0,-107.0,-85.0,127.0,127.0,127.0,108.0,83.0,-78.0
130.0,127.0,123.0,124.0,127.0,149.0,128.0,130.0,15.0,-107.0,-85.0,127.0,127.0,127.0,108.0,83.0,-78.0
129.0,125.0,124.0,125.0,128.0,149.0,128.0,128.0,15.0,-107.0,-85.0,127.0,127.0,127.0,108.0,83.0,-78.0
129.0,125.0,124.0,125.0,128.0,149.0,128.0,128.0,15.0,-107.0,-85.0,127.0,127.0,127.0,108.0,83.0,-78.0
129.0,125.0,125.0,125.0,128.0,149.0,128.0,128.0,15.0,-107.0,-85.0,127.0,127.0,127.0,108.0,83.0,-78.0
129.0,125.0,125.0,125.0,128.0,149.0,129.0,128.0,15.0,-107.0,-85.0,127.0,127.0,127.0,108.0,83.0,-78.0
129.0,127.0,130.0,127.0,128.0,149.0,129.0,127.0,15.0,-108.0,-84.0,127.0,127.0,127.0,108.0,83.0,-78.0
129.0,127.0,130.0,127.0,128.0,149.0,129.0,128.0,15.0,-108.0,-84.0,127.0,127.0,127.0,108.0,83.0,-78.0
129.0,126.0,129.0,127.0,128.0,149.0,129.0,128.0,15.0,-108.0,-84.0,127.0,127.0,127.0,108.0,83.0,-78.0
129.0,126.0,129.0,128.0,128.0,149.0,129.0,128.0,15.0,-108.0,-84.0,127.0,127.0,127.0,108.0,83.0,-78.0
129.0,126.0,129.0,128.0,128.0,149.0,129.0,128.0,15.0,-108.0,-84.0,127.0,127.0,127.0,108.0,83.0,-78.0
129.0,125.0,129.0,126.0,128.0,149.0,129.0,127.0,15.0,-108.0,-84.0,127.0,127.0,127.0,108.0,83.0,-78.0
129.0,126.0,129.0,126.0,128.0,149.0,129.0,127.0,15.0,-108.0,-84.0,127.0,127.0,127.0,108.0,83.0,-78.0
129.0,127.0,130.0,127.0,128.0,149.0,129.0,127.0,15.0,-108.0,-84.0,127.0,127.0,127.0,108.0,83.0,-78.0
129.0,127.0,131.0,127.0,128.0,149.0,129.0,127.0,15.0,-108.0,-84.0,127.0,127.0,127.0,108.0,83.0,-78.0
129.0,127.0,130.0,127.0,128.0,149.0,129.0,127.0,15.0,-108.0,-84.0,127.0,127.0,127.0,108.0,83.0,-78.0
129.0,127.0,125.0,125.0,127.0,150.0,129.0,128.0,15.0,-108.0,-84.0,127.0,127.0,127.0,108.0,83.0,-78.0
129.0,126.0,125.0,124.0,127.0,150.0,130.0,129.0,15.0,-108.0,-84.0,127.0,127.0,127.0,108.0,83.0,-78.0
129.0,126.0,125.0,124.0,128.0,150.0,129.0,129.0,15.0,-108.0,-84.0,127.0,127.0,127.0,108.0,83.0,-78.0
129.0,126.0,125.0,123.0,128.0,150.0,129.0,129.0,15.0,-108.0,-84.0,127.0,127.0,127.0,108.0,83.0,-78.0
129.0,128.0,126.0,125.0,127.0,150.0,130.0,128.0,15.0,-108.0,-84.0,127.0,127.0,127.0,108.0,83.0,-78.0
129.0,128.0,126.0,125.0,127.0,150.0,129.0,128.0,15.0,-108.0,-84.0,127.0,127.0,127.0,108.0,83.0,-78.0
129.0,127.0,126.0,125.0,127.0,150.0,129.0,128.0,15.0,-108.0,-84.0,127.0,127.0,127.0,108.0,83.0,-78.0
129.0,127.0,125.0,125.0,127.0,149.0,129.0,128.0,15.0,-108.0,-84.0,127.0,127.0,127.0,108.0,83.0,-78.0
129.0,127.0,125.0,125.0,127.0,149.0,129.0,128.0,15.0,-108.0,-84.0,127.0,127.0,127.0,108.0,83.0,-78.0
129.0,127.0,125.0,125.0,127.0,149.0,129.0,128.0,15.0,-108.0,-84.0,127.0,127.0,127.0,108.0,83.0,-78.0
129.0,126.0,127.0,124.0,127.0,150.0,129.0,128.0,15.0,-108.0,-84.0,127.0,127.0,127.0,108.0,83.0,-78.0
129.0,126.0,127.0,124.0,127.0,149.0,129.0,128.0,15.0,-108.0,-84.0,127.0,127.0,127.0,108.0,83.0,-78.0
129.0,126.0,127.0,125.0,127.0,149.0,129.0,128.0,15.0,-108.0,-84.0,127.0,127.0,127.0,108.0,83.0,-78.0
129.0,127.0,125.0,123.0,127.0,150.0,129.0,130.0,15.0,-108.0,-84.0,127.0,127.0,127.0,108.0,83.0,-78.0
129.0,127.0,125.0,123.0,127.0,150.0,129.0,130.0,15.0,-108.0,-84.0,127.0,127.0,127.0,108.0,83.0,-78.0
129.0,127.0,124.0,123.0,127.0,149.0,129.0,130.0,15.0,-108.0,-84.0,127.0,127.0,127.0,108.0,83.0,-78.0
129.0,126.0,124.0,123.0,127.0,149.0,129.0,130.0,15.0,-108.0,-84.0,127.0,127.0,127.0,108.0,83.0,-78.0
129.0,126.0,125.0,123.0,127.0,149.0,129.0,129.0,15.0,-108.0,-84.0,127.0,127.0,127.0,108.0,83.0,-78.0
129.0,126.0,125.0,123.0,127.0,149.0,129.0,129.0,15.0,-108.0,-84.0,127.0,127.0,127.0,108.0,83.0,-78.0
129.0,126.0,126.0,124.0,127.0,149.0,129.0,128.0,15.0,-108.0,-84.0,127.0,127.0,127.0,108.0,83.0,-78.0
129.0,126.0,126.0,124.0,127.0,150.0,130.0,129.0,15.0,-108.0,-85.0,127.0,127.0,127.0,108.0,83.0,-78.0
129.0,126.0,126.0,124.0,127.0,150.0,130.0,129.0,15.0,-108.0,-85.0,127.0,127.0,127.0,108.0,83.0,-78.0
128.0,126.0,131.0,125.0,128.0,150.0,129.0,129.0,15.0,-108.0,-85.0,127.0,127.0,127.0,108.0,83.0,-78.0
128.0,126.0,130.0,125.0,127.0,150.0,130.0,129.0,15.0,-108.0,-85.0,127.0,127.0,127.0,108.0,83.0,-78.0
128.0,126.0,129.0,125.0,127.0,150.0,130.0,129.0,15.0,-108.0,-85.0,127.0,127.0,127.0,108.0,83.0,-78.0
129.0,126.0,129.0,125.0,127.0,150.0,130.0,129.0,15.0,-108.0,-85.0,127.0,127.0,127.0,108.0,83.0,-78.0
129.0,126.0,128.0,124.0,127.0,150.0,130.0,129.0,15.0,-108.0,-85.0,127.0,127.0,127.0,108.0,83.0,-78.0
129.0,126.0,128.0,124.0,127.0,150.0,130.0,129.0,15.0,-108.0,-85.0,127.0,127.0,127.0,108.0,83.0,-78.0
129.0,126.0,127.0,124.0,127.0,150.0,130.0,129.0,15.0,-108.0,-85.0,127.0,127.0,127.0,108.0,83.0,-78.0
129.0,126.0,127.0,124.0,127.0,150.0,129.0,129.0,15.0,-108.0,-85.0,127.0,127.0,127.0,108.0,83.0,-78.0
128.0,126.0,131.0,126.0,127.0,150.0,130.0,128.0,15.0,-108.0,-84.0,127.0,127.0,127.0,108.0,83.0,-78.0
128.0,126.0,130.0,127.0,127.0,150.0,130.0,128.0,15.0,-108.0,-84.0,127.0,127.0,127.0,108.0,83.0,-78.0
128.0,126.0,130.0,127.0,127.0,150.0,130.0,128.0,15.0,-108.0,-84.0,127.0,127.0,127.0,108.0,83.0,-78.0
128.0,126.0,129.0,127.0,127.0,150.0,130.0,129.0,15.0,-108.0,-84.0,127.0,127.0,127.0,108.0,83.0,-78.0
128.0,126.0,128.0,127.0,127.0,150.0,130.0,129.0,15.0,-108.0,-84.0,127.0,127.0,127.0,108.0,83.0,-78.0
128.0,126.0,127.0,127.0,127.0,150.0,130.0,129.0,15.0,-108.0,-84.0,127.0,127.0,127.0,108.0,83.0,-78.0
128.0,126.0,126.0,127.0,127.0,150.0,130.0,129.0,15.0,-108.0,-84.0,127.0,127.0,127.0,108.0,83.0,-78.0
128.0,126.0,125.0,127.0,127.0,150.0,130.0,129.0,15.0,-108.0,-84.0,127.0,127.0,127.0,108.0,83.0,-78.0
128.0,126.0,125.0,127.0,127.0,150.0,130.0,129.0,15.0,-108.0,-84.0,127.0,127.0,127.0,108.0,83.0,-78.0
128.0,126.0,125.0,127.0,127.0,150.0,130.0,129.0,15.0,-108.0,-84.0,127.0,127.0,127.0,108.0,83.0,-78.0
128.0,128.0,131.0,126.0,128.0,150.0,130.0,129.0,15.0,-108.0,-84.0,127.0,127.0,127.0,108.0,83.0,-78.0
128.0,127.0,132.0,126.0,128.0,150.0,130.0,129.0,15.0,-108.0,-84.0,127.0,127.0,127.0,108.0,83.0,-78.0
128.0,127.0,131.0,126.0,128.0,150.0,130.0,129.0,15.0,-108.0,-84.0,127.0,127.0,127.0,108.0,83.0,-78.0
129.0,127.0,130.0,126.0,128.0,150.0,130.0,129.0,15.0,-108.0,-84.0,127.0,127.0,127.0,108.0,83.0,-78.0
129.0,127.0,128.0,126.0,127.0,150.0,130.0,130.0,15.0,-108.0,-84.0,127.0,127.0,127.0,108.0,83.0,-78.0
129.0,127.0,126.0,125.0,127.0,150.0,130.0,130.0,15.0,-108.0,-84.0,127.0,127.0,127.0,108.0,83.0,-78.0
129.0,127.0,124.0,125.0,127.0,150.0,130.0,130.0,15.0,-108.0,-84.0,127.0,127.0,127.0,108.0,83.0,-78.0
129.0,127.0,123.0,125.0,126.0,150.0,130.0,130.0,15.0,-108.0,-84.0,127.0,127.0,127.0,108.0,83.0,-78.0
129.0,127.0,122.0,124.0,126.0,150.0,130.0,130.0,15.0,-108.0,-84.0,127.0,127.0,127.0,108.0,83.0,-78.0
128.0,129.0,131.0,126.0,128.0,150.0,130.0,129.0,15.0,-108.0,-84.0,127.0,127.0,127.0,108.0,83.0,-78.0
128.0,127.0,124.0,125.0,127.0,149.0,129.0,129.0,15.0,-108.0,-84.0,127.0,127.0,127.0,108.0,83.0,-78.0
128.0,126.0,124.0,125.0,127.0,149.0,129.0,129.0,15.0,-108.0,-84.0,127.0,127.0,127.0,108.0,83.0,-78.0
128.0,126.0,125.0,124.0,127.0,149.0,129.0,129.0,15.0,-108.0,-84.0,127.0,127.0,127.0,108.0,83.0,-78.0
128.0,126.0,125.0,124.0,127.0,149.0,129.0,129.0,15.0,-108.0,-84.0,127.0,127.0,127.0,108.0,83.0,-78.0
128.0,125.0,126.0,125.0,127.0,149.0,129.0,129.0,15.0,-108.0,-84.0,127.0,127.0,127.0,108.0,83.0,-78.0
128.0,124.0,126.0,125.0,127.0,149.0,129.0,129.0,15.0,-108.0,-84.0,127.0,127.0,127.0,108.0,83.0,-78.0
128.0,124.0,125.0,125.0,127.0,149.0,129.0,129.0,15.0,-108.0,-84.0,127.0,127.0,127.0,108.0,83.0,-78.0
128.0,124.0,125.0,125.0,127.0,149.0,129.0,129.0,15.0,-108.0,-84.0,127.0,127.0,127.0,108.0,83.0,-78.0
129.0,128.0,124.0,125.0,127.0,149.0,129.0,129.0,15.0,-108.0,-84.0,127.0,127.0,127.0,108.0,83.0,-78.0
129.0,127.0,124.0,125.0,127.0,150.0,129.0,129.0,15.0,-108.0,-84.0,127.0,127.0,127.0,108.0,83.0,-78.0
129.0,126.0,129.0,125.0,128.0,149.0,129.0,129.0,15.0,-108.0,-85.0,127.0,127.0,127.0,108.0,83.0,-78.0
129.0,126.0,129.0,125.0,128.0,149.0,129.0,129.0,15.0,-108.0,-85.0,127.0,127.0,127.0,108.0,83.0,-78.0
129.0,126.0,129.0,126.0,128.0,149.0,129.0,129.0,15.0,-108.0,-85.0,127.0,127.0,127.0,108.0,83.0,-78.0
129.0,126.0,129.0,126.0,128.0,149.0,129.0,129.0,15.0,-108.0,-85.0,127.0,127.0,127.0,108.0,83.0,-78.0
129.0,126.0,128.0,126.0,128.0,149.0,128.0,130.0,15.0,-108.0,-85.0,127.0,127.0,127.0,108.0,83.0,-78.0
129.0,126.0,127.0,126.0,128.0,149.0,128.0,130.0,15.0,-108.0,-85.0,127.0,127.0,127.0,108.0,83.0,-78.0
129.0,126.0,127.0,126.0,128.0,149.0,128.0,130.0,15.0,-108.0,-85.0,127.0,127.0,127.0,108.0,83.0,-78.0
128.0,126.0,128.0,126.0,127.0,149.0,128.0,128.0,15.0,-108.0,-85.0,127.0,127.0,127.0,108.0,83.0,-78.0
129.0,126.0,129.0,125.0,128.0,149.0,129.0,128.0,15.0,-108.0,-85.0,127.0,127.0,127.0,108.0,83.0,-78.0
129.0,126.0,129.0,125.0,128.0,149.0,129.0,128.0,15.0,-108.0,-85.0,127.0,127.0,127.0,108.0,83.0,-78.0
129.0,126.0,126.0,123.0,126.0,149.0,129.0,129.0,15.0,-108.0,-85.0,127.0,127.0,127.0,108.0,82.0,-78.0
129.0,126.0,125.0,123.0,126.0,149.0,129.0,128.0,15.0,-108.0,-85.0,127.0,127.0,127.0,108.0,82.0,-78.0
129.0,126.0,125.0,123.0,127.0,149.0,130.0,128.0,15.0,-108.0,-85.0,127.0,127.0,127.0,108.0,82.0,-78.0
128.0,126.0,125.0,123.0,127.0,149.0,130.0,128.0,15.0,-108.0,-85.0,127.0,127.0,127.0,108.0,82.0,-78.0
128.0,126.0,125.0,123.0,127.0,149.0,129.0,128.0,15.0,-108.0,-85.0,127.0,127.0,127.0,108.0,82.0,-78.0
128.0,126.0,124.0,123.0,127.0,149.0,130.0,128.0,15.0,-108.0,-85.0,127.0,127.0,127.0,108.0,82.0,-78.0
129.0,127.0,126.0,124.0,126.0,150.0,129.0,129.0,15.0,-108.0,-85.0,127.0,127.0,127.0,108.0,82.0,-78.0
129.0,127.0,126.0,123.0,126.0,150.0,129.0,129.0,15.0,-108.0,-85.0,127.0,127.0,127.0,108.0,82.0,-78.0
129.0,127.0,126.0,123.0,126.0,149.0,129.0,129.0,15.0,-108.0,-85.0,127.0,127.0,127.0,108.0,82.0,-78.0
129.0,127.0,126.0,123.0,126.0,149.0,129.0,129.0,15.0,-108.0,-85.0,127.0,127.0,127.0,108.0,82.0,-78.0
128.0,125.0,126.0,122.0,127.0,150.0,130.0,128.0,15.0,-108.0,-85.0,127.0,127.0,127.0,108.0,82.0,-78.0
128.0,125.0,126.0,123.0,127.0,150.0,130.0,128.0,15.0,-108.0,-85.0,127.0,127.0,127.0,108.0,82.0,-78.0
129.0,125.0,127.0,124.0,127.0,150.0,129.0,128.0,15.0,-108.0,-85.0,127.0,127.0,127.0,108.0,82.0,-78.0
129.0,125.0,127.0,125.0,127.0,149.0,129.0,128.0,15.0,-108.0,-85.0,127.0,127.0,127.0,108.0,82.0,-78.0
129.0,125.0,127.0,126.0,127.0,149.0,129.0,128.0,15.0,-108.0,-85.0,127.0,127.0,127.0,108.0,82.0,-78.0
128.0,126.0,128.0,123.0,128.0,150.0,129.0,128.0,15.0,-108.0,-85.0,127.0,127.0,127.0,108.0,82.0,-78.0
128.0,125.0,129.0,122.0,128.0,150.0,130.0,128.0,15.0,-108.0,-85.0,127.0,127.0,127.0,108.0,82.0,-78.0
128.0,125.0,128.0,122.0,127.0,150.0,130.0,128.0,15.0,-108.0,-85.0,127.0,127.0,127.0,108.0,82.0,-78.0
128.0,125.0,127.0,122.0,127.0,150.0,130.0,128.0,15.0,-108.0,-85.0,127.0,127.0,127.0,108.0,82.0,-78.0
128.0,125.0,126.0,122.0,127.0,150.0,130.0,128.0,15.0,-108.0,-85.0,127.0,127.0,127.0,108.0,82.0,-78.0
129.0,127.0,128.0,126.0,126.0,150.0,130.0,129.0,15.0,-108.0,-85.0,127.0,127.0,127.0,108.0,82.0,-78.0
128.0,127.0,128.0,126.0,126.0,150.0,130.0,129.0,15.0,-108.0,-85.0,127.0,127.0,127.0,108.0,82.0,-78.0
129.0,127.0,128.0,126.0,126.0,150.0,130.0,128.0,15.0,-108.0,-85.0,127.0,127.0,127.0,108.0,82.0,-78.0
129.0,127.0,127.0,126.0,126.0,150.0,130.0,128.0,15.0,-108.0,-85.0,127.0,127.0,127.0,108.0,82.0,-78.0
128.0,125.0,129.0,128.0,127.0,150.0,130.0,128.0,15.0,-108.0,-85.0,127.0,127.0,127.0,108.0,82.0,-78.0
128.0,125.0,130.0,128.0,127.0,150.0,130.0,128.0,15.0,-108.0,-85.0,127.0,127.0,127.0,108.0,82.0,-78.0
128.0,125.0,130.0,127.0,127.0,150.0,130.0,128.0,15.0,-108.0,-85.0,127.0,127.0,127.0,108.0,82.0,-78.0
128.0,126.0,129.0,127.0,127.0,150.0,130.0,128.0,15.0,-108.0,-85.0,127.0,127.0,127.0,108.0,82.0,-78.0
128.0,126.0,129.0,127.0,127.0,150.0,130.0,129.0,15.0,-108.0,-85.0,127.0,127.0,127.0,108.0,82.0,-78.0
129.0,127.0,129.0,126.0,126.0,150.0,130.0,129.0,15.0,-108.0,-85.0,127.0,127.0,127.0,108.0,82.0,-78.0
128.0,126.0,128.0,124.0,127.0,150.0,130.0,129.0,15.0,-108.0,-86.0,127.0,127.0,127.0,108.0,82.0,-78.0
129.0,127.0,128.0,124.0,127.0,150.0,130.0,129.0,15.0,-108.0,-86.0,127.0,127.0,127.0,108.0,82.0,-78.0
129.0,127.0,128.0,124.0,127.0,150.0,130.0,129.0,15.0,-108.0,-86.0,127.0,127.0,127.0,108.0,82.0,-78.0
128.0,126.0,128.0,126.0,127.0,150.0,130.0,128.0,15.0,-108.0,-86.0,127.0,127.0,127.0,108.0,82.0,-78.0
129.0,126.0,128.0,125.0,127.0,150.0,130.0,128.0,15.0,-108.0,-86.0,127.0,127.0,127.0,108.0,82.0,-78.0
129.0,126.0,128.0,125.0,127.0,150.0,130.0,128.0,15.0,-108.0,-86.0,127.0,127.0,127.0,108.0,82.0,-78.0
128.0,126.0,128.0,124.0,127.0,150.0,130.0,129.0,15.0,-108.0,-86.0,127.0,127.0,127.0,108.0,82.0,-78.0
128.0,126.0,127.0,124.0,127.0,150.0,130.0,129.0,15.0,-108.0,-86.0,127.0,127.0,127.0,108.0,82.0,-78.0
128.0,126.0,128.0,124.0,127.0,150.0,130.0,129.0,15.0,-108.0,-86.0,127.0,127.0,127.0,108.0,82.0,-78.0
128.0,126.0,128.0,124.0,127.0,150.0,130.0,129.0,15.0,-108.0,-86.0,127.0,127.0,127.0,108.0,82.0,-78.0
129.0,126.0,123.0,126.0,127.0,149.0,129.0,128.0,15.0,-108.0,-86.0,127.0,127.0,127.0,108.0,82.0,-78.0
129.0,126.0,125.0,126.0,127.0,149.0,129.0,129.0,15.0,-108.0,-86.0,127.0,127.0,127.0,108.0,82.0,-78.0
129.0,126.0,122.0,125.0,126.0,149.0,129.0,128.0,15.0,-108.0,-86.0,127.0,127.0,127.0,108.0,82.0,-78.0
128.0,126.0,121.0,125.0,126.0,149.0,129.0,128.0,15.0,-108.0,-86.0,127.0,127.0,127.0,108.0,82.0,-78.0
129.0,126.0,121.0,125.0,126.0,149.0,129.0,128.0,15.0,-108.0,-86.0,127.0,127.0,127.0,108.0,82.0,-78.0
129.0,126.0,121.0,125.0,127.0,149.0,129.0,128.0,15.0,-108.0,-86.0,127.0,127.0,127.0,108.0,82.0,-78.0
129.0,126.0,121.0,126.0,127.0,149.0,129.0,128.0,15.0,-108.0,-86.0,127.0,127.0,127.0,108.0,82.0,-78.0
129.0,126.0,121.0,126.0,127.0,149.0,129.0,128.0,15.0,-108.0,-86.0,127.0,127.0,127.0,108.0,82.0,-78.0
129.0,126.0,121.0,126.0,127.0,149.0,129.0,128.0,15.0,-108.0,-86.0,127.0,127.0,127.0,108.0,82.0,-78.0
129.0,126.0,121.0,126.0,127.0,149.0,129.0,128.0,15.0,-108.0,-86.0,127.0,127.0,127.0,108.0,82.0,-78.0
128.0,126.0,130.0,125.0,125.0,150.0,130.0,128.0,15.0,-108.0,-86.0,127.0,127.0,127.0,108.0,82.0,-78.0
129.0,126.0,126.0,125.0,126.0,150.0,130.0,129.0,15.0,-108.0,-86.0,127.0,127.0,127.0,108.0,82.0,-78.0
129.0,127.0,127.0,125.0,125.0,150.0,130.0,129.0,15.0,-108.0,-86.0,127.0,127.0,127.0,108.0,82.0,-78.0
129.0,127.0,127.0,125.0,125.0,150.0,130.0,129.0,15.0,-108.0,-86.0,127.0,127.0,127.0,108.0,82.0,-78.0
129.0,126.0,128.0,125.0,125.0,150.0,130.0,129.0,15.0,-108.0,-86.0,127.0,127.0,127.0,108.0,82.0,-78.0
129.0,126.0,128.0,125.0,125.0,150.0,130.0,129.0,15.0,-108.0,-86.0,127.0,127.0,127.0,108.0,82.0,-78.0
129.0,126.0,129.0,125.0,125.0,150.0,130.0,129.0,15.0,-108.0,-86.0,127.0,127.0,127.0,108.0,82.0,-78.0
129.0,125.0,130.0,125.0,125.0,150.0,130.0,128.0,15.0,-108.0,-86.0,127.0,127.0,127.0,108.0,82.0,-78.0
128.0,125.0,130.0,125.0,125.0,150.0,130.0,128.0,15.0,-108.0,-86.0,127.0,127.0,127.0,108.0,82.0,-78.0
128.0,125.0,130.0,125.0,125.0,150.0,130.0,128.0,15.0,-108.0,-86.0,127.0,127.0,127.0,108.0,82.0,-78.0
129.0,126.0,127.0,127.0,130.0,150.0,130.0,129.0,15.0,-108.0,-86.0,127.0,127.0,127.0,108.0,82.0,-78.0
129.0,126.0,127.0,127.0,130.0,150.0,130.0,129.0,15.0,-108.0,-86.0,127.0,127.0,127.0,108.0,82.0,-78.0
129.0,126.0,128.0,127.0,130.0,150.0,130.0,129.0,15.0,-108.0,-86.0,127.0,127.0,127.0,108.0,82.0,-78.0
129.0,126.0,127.0,127.0,130.0,150.0,130.0,129.0,15.0,-108.0,-86.0,127.0,127.0,127.0,108.0,82.0,-78.0
129.0,126.0,127.0,127.0,130.0,150.0,130.0,129.0,15.0,-108.0,-86.0,127.0,127.0,127.0,108.0,82.0,-78.0
129.0,126.0,127.0,127.0,129.0,150.0,130.0,128.0,15.0,-108.0,-86.0,127.0,127.0,127.0,108.0,82.0,-78.0
129.0,127.0,126.0,127.0,129.0,150.0,130.0,128.0,15.0,-108.0,-86.0,127.0,127.0,127.0,108.0,82.0,-78.0
129.0,127.0,126.0,127.0,129.0,150.0,130.0,128.0,15.0,-108.0,-86.0,127.0,127.0,127.0,108.0,82.0,-78.0
129.0,127.0,126.0,127.0,128.0,150.0,130.0,127.0,15.0,-108.0,-86.0,127.0,127.0,127.0,108.0,82.0,-78.0
128.0,127.0,126.0,127.0,128.0,150.0,130.0,127.0,15.0,-108.0,-86.0,127.0,127.0,127.0,108.0,82.0,-78.0
129.0,127.0,129.0,127.0,127.0,150.0,129.0,128.0,15.0,-108.0,-86.0,127.0,127.0,127.0,108.0,82.0,-78.0
129.0,127.0,129.0,127.0,127.0,150.0,130.0,129.0,15.0,-108.0,-86.0,127.0,127.0,127.0,108.0,82.0,-78.0
129.0,127.0,129.0,127.0,127.0,150.0,130.0,129.0,15.0,-108.0,-86.0,127.0,127.0,127.0,108.0,82.0,-78.0
129.0,127.0,128.0,127.0,127.0,150.0,129.0,129.0,15.0,-108.0,-86.0,127.0,127.0,127.0,108.0,82.0,-78.0
129.0,127.0,128.0,127.0,127.0,150.0,129.0,129.0,15.0,-108.0,-86.0,127.0,127.0,127.0,108.0,82.0,-78.0
129.0,127.0,128.0,127.0,127.0,150.0,129.0,128.0,15.0,-108.0,-86.0,127.0,127.0,127.0,108.0,82.0,-78.0
129.0,127.0,128.0,127.0,127.0,150.0,129.0,128.0,15.0,-108.0,-86.0,127.0,127.0,127.0,108.0,82.0,-78.0
129.0,127.0,128.0,127.0,127.0,149.0,129.0,128.0,15.0,-108.0,-86.0,127.0,127.0,127.0,108.0,82.0,-78.0
129.0,127.0,128.0,126.0,127.0,149.0,129.0,128.0,15.0,-108.0,-86.0,127.0,127.0,127.0,108.0,82.0,-78.0
129.0,127.0,130.0,126.0,127.0,150.0,129.0,128.0,15.0,-108.0,-86.0,127.0,127.0,127.0,108.0,82.0,-78.0
128.0,127.0,126.0,125.0,127.0,150.0,130.0,125.0,15.0,-108.0,-86.0,127.0,127.0,127.0,108.0,82.0,-78.0
128.0,127.0,126.0,126.0,127.0,150.0,130.0,127.0,15.0,-108.0,-86.0,127.0,127.0,127.0,108.0,82.0,-78.0
128.0,127.0,126.0,126.0,127.0,150.0,130.0,128.0,15.0,-108.0,-86.0,127.0,127.0,127.0,108.0,82.0,-78.0
128.0,126.0,126.0,126.0,127.0,150.0,130.0,129.0,15.0,-108.0,-86.0,127.0,127.0,127.0,108.0,82.0,-78.0
128.0,126.0,126.0,126.0,127.0,150.0,130.0,129.0,15.0,-108.0,-86.0,127.0,127.0,127.0,108.0,82.0,-78.0
128.0,126.0,126.0,126.0,127.0,150.0,130.0,129.0,15.0,-108.0,-86.0,127.0,127.0,127.0,108.0,82.0,-78.0
128.0,126.0,126.0,126.0,127.0,150.0,130.0,130.0,15.0,-108.0,-86.0,127.0,127.0,127.0,108.0,82.0,-78.0
128.0,126.0,124.0,125.0,126.0,150.0,129.0,130.0,15.0,-108.0,-86.0,127.0,127.0,127.0,108.0,82.0,-78.0
128.0,126.0,124.0,125.0,127.0,150.0,130.0,123.0,15.0,-108.0,-86.0,127.0,127.0,127.0,108.0,82.0,-78.0
128.0,126.0,125.0,125.0,127.0,150.0,130.0,123.0,15.0,-108.0,-86.0,127.0,127.0,127.0,108.0,82.0,-78.0
128.0,126.0,125.0,127.0,127.0,150.0,130.0,128.0,15.0,-108.0,-86.0,127.0,127.0,127.0,108.0,82.0,-78.0
128.0,126.0,125.0,126.0,127.0,150.0,130.0,128.0,15.0,-108.0,-86.0,127.0,127.0,127.0,108.0,82.0,-78.0
128.0,126.0,124.0,126.0,127.0,150.0,130.0,128.0,15.0,-108.0,-86.0,127.0,127.0,127.0,108.0,82.0,-78.0
128.0,127.0,124.0,126.0,127.0,150.0,130.0,128.0,15.0,-108.0,-86.0,127.0,127.0,127.0,108.0,82.0,-78.0
128.0,127.0,123.0,126.0,127.0,150.0,130.0,128.0,15.0,-108.0,-86.0,127.0,127.0,127.0,108.0,82.0,-78.0
128.0,127.0,123.0,126.0,126.0,150.0,130.0,129.0,15.0,-108.0,-86.0,127.0,127.0,127.0,108.0,82.0,-78.0
128.0,127.0,126.0,127.0,128.0,150.0,130.0,129.0,15.0,-108.0,-86.0,127.0,127.0,127.0,108.0,82.0,-78.0
128.0,126.0,126.0,127.0,128.0,150.0,130.0,129.0,15.0,-108.0,-86.0,127.0,127.0,127.0,108.0,82.0,-78.0
128.0,126.0,125.0,127.0,128.0,150.0,130.0,128.0,15.0,-108.0,-86.0,127.0,127.0,127.0,108.0,82.0,-78.0
128.0,126.0,125.0,127.0,128.0,150.0,130.0,128.0,15.0,-108.0,-86.0,127.0,127.0,127.0,108.0,82.0,-78.0
128.0,125.0,126.0,127.0,127.0,150.0,130.0,129.0,15.0,-108.0,-86.0,127.0,127.0,127.0,108.0,82.0,-78.0
128.0,125.0,127.0,126.0,127.0,150.0,130.0,130.0,15.0,-108.0,-86.0,127.0,127.0,127.0,108.0,82.0,-78.0
128.0,125.0,127.0,126.0,128.0,150.0,130.0,130.0,15.0,-108.0,-86.0,127.0,127.0,127.0,108.0,82.0,-78.0
128.0,125.0,127.0,126.0,128.0,150.0,130.0,131.0,15.0,-108.0,-86.0,127.0,127.0,127.0,108.0,82.0,-78.0
128.0,126.0,127.0,126.0,128.0,150.0,130.0,132.0,15.0,-108.0,-86.0,127.0,127.0,127.0,108.0,82.0,-78.0
128.0,126.0,126.0,127.0,127.0,150.0,130.0,128.0,15.0,-108.0,-86.0,127.0,127.0,127.0,108.0,82.0,-78.0
128.0,126.0,126.0,127.0,127.0,150.0,130.0,128.0,15.0,-108.0,-86.0,127.0,127.0,127.0,108.0,82.0,-78.0
128.0,126.0,126.0,127.0,127.0,150.0,130.0,128.0,15.0,-108.0,-86.0,127.0,127.0,127.0,108.0,82.0,-78.0
128.0,126.0,126.0,126.0,127.0,150.0,130.0,128.0,15.0,-108.0,-86.0,127.0,127.0,127.0,108.0,82.0,-78.0
128.0,125.0,126.0,127.0,127.0,150.0,130.0,128.0,15.0,-108.0,-86.0,127.0,127.0,127.0,108.0,82.0,-78.0
128.0,125.0,126.0,125.0,127.0,150.0,130.0,129.0,15.0,-108.0,-86.0,127.0,127.0,127.0,108.0,82.0,-78.0
128.0,125.0,127.0,125.0,127.0,150.0,130.0,129.0,15.0,-108.0,-86.0,127.0,127.0,127.0,108.0,82.0,-78.0
128.0,125.0,127.0,125.0,127.0,150.0,130.0,129.0,15.0,-108.0,-86.0,127.0,127.0,127.0,108.0,82.0,-78.0
127.0,125.0,128.0,124.0,127.0,150.0,130.0,129.0,15.0,-108.0,-86.0,127.0,127.0,127.0,108.0,82.0,-78.0
127.0,125.0,124.0,126.0,126.0,150.0,130.0,127.0,15.0,-108.0,-86.0,127.0,127.0,127.0,108.0,82.0,-78.0
127.0,125.0,124.0,126.0,127.0,150.0,130.0,127.0,15.0,-108.0,-86.0,127.0,127.0,127.0,108.0,82.0,-78.0
127.0,125.0,124.0,126.0,127.0,150.0,130.0,128.0,15.0,-108.0,-86.0,127.0,127.0,127.0,108.0,82.0,-78.0
128.0,125.0,125.0,126.0,127.0,150.0,130.0,128.0,15.0,-108.0,-86.0,127.0,127.0,127.0,108.0,82.0,-78.0
128.0,125.0,125.0,126.0,127.0,150.0,130.0,128.0,15.0,-108.0,-86.0,127.0,127.0,127.0,108.0,82.0,-78.0
128.0,125.0,126.0,126.0,127.0,150.0,130.0,129.0,15.0,-108.0,-86.0,127.0,127.0,127.0,108.0,82.0,-78.0
128.0,126.0,128.0,126.0,128.0,150.0,130.0,130.0,15.0,-108.0,-85.0,127.0,127.0,127.0,108.0,82.0,-78.0
128.0,126.0,129.0,126.0,128.0,150.0,131.0,130.0,15.0,-108.0,-85.0,127.0,127.0,127.0,108.0,82.0,-78.0
128.0,127.0,130.0,127.0,128.0,150.0,131.0,130.0,15.0,-108.0,-85.0,127.0,127.0,127.0,108.0,82.0,-78.0
128.0,125.0,122.0,124.0,128.0,150.0,130.0,127.0,15.0,-108.0,-85.0,127.0,127.0,127.0,108.0,82.0,-78.0
128.0,125.0,122.0,124.0,128.0,150.0,130.0,128.0,15.0,-108.0,-85.0,127.0,127.0,127.0,108.0,82.0,-78.0
128.0,125.0,122.0,124.0,128.0,150.0,130.0,128.0,15.0,-108.0,-85.0,127.0,127.0,127.0,108.0,82.0,-78.0
128.0,125.0,122.0,124.0,128.0,150.0,130.0,129.0,15.0,-108.0,-85.0,127.0,127.0,127.0,108.0,82.0,-78.0
128.0,125.0,123.0,125.0,128.0,150.0,130.0,129.0,15.0,-108.0,-85.0,127.0,127.0,127.0,108.0,82.0,-78.0
128.0,125.0,123.0,125.0,128.0,150.0,130.0,129.0,15.0,-108.0,-85.0,127.0,127.0,127.0,108.0,82.0,-78.0
128.0,126.0,125.0,126.0,128.0,150.0,130.0,130.0,15.0,-108.0,-85.0,127.0,127.0,127.0,108.0,82.0,-78.0
128.0,126.0,126.0,124.0,127.0,150.0,130.0,126.0,15.0,-107.0,-85.0,127.0,127.0,127.0,108.0,82.0,-78.0
128.0,126.0,126.0,124.0,126.0,150.0,130.0,126.0,15.0,-107.0,-85.0,127.0,127.0,127.0,108.0,82.0,-78.0
128.0,126.0,126.0,124.0,127.0,150.0,130.0,129.0,15.0,-107.0,-85.0,127.0,127.0,127.0,108.0,82.0,-78.0
128.0,126.0,126.0,124.0,127.0,150.0,130.0,129.0,15.0,-107.0,-85.0,127.0,127.0,127.0,108.0,82.0,-78.0
128.0,126.0,127.0,124.0,127.0,150.0,130.0,129.0,15.0,-107.0,-85.0,127.0,127.0,127.0,108.0,82.0,-78.0
128.0,126.0,127.0,124.0,127.0,150.0,130.0,128.0,15.0,-107.0,-85.0,127.0,127.0,127.0,108.0,82.0,-78.0
128.0,126.0,127.0,124.0,127.0,150.0,129.0,127.0,15.0,-107.0,-85.0,127.0,127.0,127.0,108.0,82.0,-78.0
128.0,126.0,127.0,125.0,127.0,150.0,129.0,127.0,15.0,-107.0,-85.0,127.0,127.0,127.0,108.0,82.0,-78.0
128.0,126.0,127.0,125.0,127.0,150.0,130.0,126.0,15.0,-107.0,-85.0,127.0,127.0,127.0,108.0,82.0,-78.0
128.0,126.0,127.0,125.0,127.0,150.0,130.0,126.0,15.0,-107.0,-85.0,127.0,127.0,127.0,108.0,82.0,-78.0
128.0,126.0,125.0,123.0,127.0,150.0,130.0,130.0,15.0,-107.0,-85.0,127.0,127.0,127.0,108.0,82.0,-78.0
128.0,126.0,125.0,124.0,128.0,150.0,130.0,130.0,15.0,-107.0,-85.0,127.0,127.0,127.0,108.0,82.0,-78.0
128.0,126.0,125.0,125.0,128.0,150.0,130.0,130.0,15.0,-107.0,-85.0,127.0,127.0,127.0,108.0,82.0,-78.0
128.0,126.0,125.0,125.0,128.0,150.0,130.0,130.0,15.0,-107.0,-85.0,127.0,127.0,127.0,108.0,82.0,-78.0
128.0,126.0,125.0,125.0,128.0,150.0,130.0,130.0,15.0,-107.0,-85.0,127.0,127.0,127.0,108.0,82.0,-78.0
128.0,126.0,125.0,125.0,128.0,150.0,130.0,130.0,15.0,-107.0,-85.0,127.0,127.0,127.0,108.0,82.0,-78.0
128.0,126.0,125.0,125.0,128.0,150.0,130.0,130.0,15.0,-107.0,-85.0,127.0,127.0,127.0,108.0,82.0,-78.0
128.0,126.0,125.0,124.0,128.0,150.0,130.0,130.0,15.0,-107.0,-85.0,127.0,127.0,127.0,108.0,82.0,-78.0
128.0,126.0,125.0,124.0,128.0,150.0,130.0,130.0,15.0,-107.0,-85.0,127.0,127.0,127.0,108.0,82.0,-78.0
128.0,126.0,125.0,124.0,127.0,150.0,130.0,130.0,15.0,-107.0,-85.0,127.0,127.0,127.0,108.0,82.0,-78.0
128.0,126.0,128.0,125.0,126.0,150.0,130.0,128.0,15.0,-108.0,-85.0,127.0,127.0,127.0,108.0,82.0,-78.0
128.0,126.0,128.0,125.0,126.0,150.0,129.0,128.0,15.0,-108.0,-85.0,127.0,127.0,127.0,108.0,82.0,-78.0
128.0,126.0,128.0,125.0,126.0,150.0,129.0,127.0,15.0,-108.0,-85.0,127.0,127.0,127.0,108.0,82.0,-78.0
128.0,126.0,128.0,125.0,127.0,150.0,129.0,127.0,15.0,-108.0,-85.0,127.0,127.0,127.0,108.0,82.0,-78.0
128.0,126.0,128.0,125.0,127.0,150.0,130.0,127.0,15.0,-108.0,-85.0,127.0,127.0,127.0,108.0,82.0,-78.0
128.0,127.0,128.0,126.0,127.0,150.0,130.0,127.0,15.0,-108.0,-85.0,127.0,127.0,127.0,108.0,82.0,-78.0
128.0,127.0,129.0,126.0,127.0,150.0,130.0,127.0,15.0,-108.0,-85.0,127.0,127.0,127.0,108.0,82.0,-78.0
128.0,127.0,129.0,127.0,127.0,150.0,129.0,127.0,15.0,-108.0,-85.0,127.0,127.0,127.0,108.0,82.0,-78.0
128.0,127.0,129.0,127.0,127.0,150.0,129.0,127.0,15.0,-108.0,-85.0,127.0,127.0,127.0,108.0,82.0,-78.0
128.0,126.0,129.0,127.0,127.0,150.0,129.0,127.0,15.0,-108.0,-85.0,127.0,127.0,127.0,108.0,82.0,-78.0
127.0,126.0,129.0,126.0,126.0,150.0,130.0,128.0,15.0,-108.0,-84.0,127.0,127.0,127.0,108.0,82.0,-78.0
127.0,126.0,128.0,126.0,126.0,150.0,130.0,128.0,15.0,-108.0,-84.0,127.0,127.0,127.0,108.0,82.0,-78.0
127.0,126.0,128.0,126.0,126.0,150.0,130.0,128.0,15.0,-108.0,-84.0,127.0,127.0,127.0,108.0,82.0,-78.0
127.0,126.0,128.0,126.0,126.0,150.0,130.0,128.0,15.0,-108.0,-84.0,127.0,127.0,127.0,108.0,82.0,-78.0
127.0,126.0,127.0,126.0,126.0,150.0,130.0,128.0,15.0,-108.0,-84.0,127.0,127.0,127.0,108.0,82.0,-78.0
127.0,126.0,127.0,126.0,126.0,150.0,130.0,129.0,15.0,-108.0,-84.0,127.0,127.0,127.0,108.0,82.0,-78.0
127.0,126.0,126.0,125.0,126.0,150.0,130.0,129.0,15.0,-108.0,-84.0,127.0,127.0,127.0,108.0,82.0,-78.0
127.0,126.0,126.0,125.0,126.0,150.0,130.0,129.0,15.0,-108.0,-84.0,127.0,127.0,127.0,108.0,82.0,-78.0
127.0,126.0,126.0,125.0,126.0,150.0,130.0,129.0,15.0,-108.0,-84.0,127.0,127.0,127.0,108.0,82.0,-78.0
127.0,126.0,129.0,126.0,126.0,150.0,130.0,128.0,15.0,-108.0,-84.0,127.0,127.0,127.0,108.0,82.0,-78.0
127.0,127.0,126.0,126.0,127.0,150.0,129.0,127.0,15.0,-108.0,-84.0,127.0,127.0,127.0,108.0,82.0,-78.0
127.0,127.0,126.0,126.0,127.0,150.0,129.0,127.0,15.0,-108.0,-84.0,127.0,127.0,127.0,108.0,82.0,-78.0
128.0,127.0,126.0,125.0,126.0,149.0,129.0,127.0,15.0,-108.0,-84.0,127.0,127.0,127.0,108.0,82.0,-78.0
128.0,127.0,126.0,125.0,126.0,149.0,129.0,127.0,15.0,-108.0,-84.0,127.0,127.0,127.0,108.0,82.0,-78.0
128.0,126.0,126.0,125.0,126.0,149.0,129.0,128.0,15.0,-108.0,-84.0,127.0,127.0,127.0,108.0,82.0,-78.0
128.0,126.0,125.0,125.0,126.0,149.0,129.0,128.0,15.0,-108.0,-84.0,127.0,127.0,127.0,108.0,82.0,-78.0
128.0,126.0,125.0,125.0,125.0,149.0,129.0,128.0,15.0,-108.0,-84.0,127.0,127.0,127.0,108.0,82.0,-78.0
128.0,126.0,126.0,125.0,125.0,149.0,129.0,128.0,15.0,-108.0,-84.0,127.0,127.0,127.0,108.0,82.0,-78.0
127.0,126.0,125.0,126.0,127.0,149.0,129.0,125.0,15.0,-108.0,-84.0,127.0,127.0,127.0,108.0,82.0,-78.0
127.0,126.0,126.0,126.0,127.0,150.0,129.0,126.0,15.0,-108.0,-84.0,127.0,127.0,127.0,108.0,82.0,-78.0
128.0,125.0,126.0,125.0,127.0,149.0,129.0,129.0,15.0,-108.0,-84.0,127.0,127.0,127.0,108.0,82.0,-78.0
128.0,125.0,126.0,125.0,127.0,149.0,129.0,129.0,15.0,-108.0,-84.0,127.0,127.0,127.0,108.0,82.0,-78.0
128.0,125.0,126.0,125.0,127.0,149.0,129.0,129.0,15.0,-108.0,-84.0,127.0,127.0,127.0,108.0,82.0,-78.0
128.0,125.0,126.0,125.0,127.0,149.0,129.0,129.0,15.0,-108.0,-84.0,127.0,127.0,127.0,108.0,82.0,-78.0
128.0,125.0,126.0,125.0,127.0,149.0,129.0,129.0,15.0,-108.0,-84.0,127.0,127.0,127.0,108.0,82.0,-78.0
128.0,125.0,126.0,125.0,127.0,149.0,129.0,128.0,15.0,-108.0,-84.0,127.0,127.0,127.0,108.0,82.0,-78.0
128.0,125.0,126.0,125.0,127.0,149.0,129.0,128.0,15.0,-108.0,-84.0,127.0,127.0,127.0,108.0,82.0,-78.0
128.0,125.0,125.0,125.0,127.0,149.0,129.0,128.0,15.0,-108.0,-84.0,127.0,127.0,127.0,108.0,82.0,-78.0
128.0,125.0,125.0,125.0,127.0,149.0,129.0,128.0,15.0,-108.0,-84.0,127.0,127.0,127.0,108.0,82.0,-78.0
128.0,125.0,126.0,126.0,127.0,149.0,129.0,128.0,15.0,-108.0,-84.0,127.0,127.0,127.0,108.0,82.0,-78.0
128.0,127.0,128.0,126.0,128.0,150.0,130.0,128.0,15.0,-108.0,-84.0,127.0,127.0,127.0,108.0,82.0,-78.0
128.0,127.0,128.0,126.0,128.0,150.0,130.0,128.0,15.0,-108.0,-84.0,127.0,127.0,127.0,108.0,82.0,-78.0
128.0,127.0,128.0,126.0,127.0,150.0,130.0,128.0,15.0,-108.0,-84.0,127.0,127.0,127.0,108.0,82.0,-78.0
127.0,126.0,127.0,125.0,127.0,150.0,130.0,128.0,15.0,-108.0,-84.0,127.0,127.0,127.0,108.0,82.0,-78.0
127.0,125.0,127.0,125.0,127.0,150.0,130.0,128.0,15.0,-108.0,-84.0,127.0,127.0,127.0,108.0,82.0,-78.0
128.0,125.0,128.0,128.0,129.0,150.0,130.0,126.0,15.0,-108.0,-84.0,127.0,127.0,127.0,108.0,82.0,-78.0
128.0,126.0,128.0,128.0,129.0,150.0,130.0,127.0,15.0,-108.0,-84.0,127.0,127.0,127.0,108.0,82.0,-78.0
128.0,126.0,128.0,127.0,128.0,150.0,130.0,127.0,15.0,-108.0,-84.0,127.0,127.0,127.0,108.0,82.0,-78.0
128.0,126.0,128.0,127.0,128.0,150.0,130.0,128.0,15.0,-108.0,-84.0,127.0,127.0,127.0,108.0,82.0,-78.0
128.0,127.0,128.0,127.0,128.0,150.0,130.0,128.0,15.0,-108.0,-84.0,127.0,127.0,127.0,108.0,82.0,-78.0
128.0,126.0,129.0,126.0,127.0,150.0,130.0,128.0,15.0,-108.0,-84.0,127.0,127.0,127.0,108.0,82.0,-78.0
128.0,125.0,128.0,126.0,127.0,150.0,130.0,128.0,15.0,-108.0,-84.0,127.0,127.0,127.0,108.0,82.0,-78.0
127.0,125.0,128.0,126.0,127.0,150.0,129.0,128.0,15.0,-108.0,-84.0,127.0,127.0,127.0,108.0,82.0,-78.0
127.0,125.0,128.0,126.0,127.0,150.0,130.0,128.0,15.0,-108.0,-84.0,127.0,127.0,127.0,108.0,82.0,-78.0
128.0,125.0,127.0,126.0,127.0,150.0,130.0,128.0,15.0,-108.0,-84.0,127.0,127.0,127.0,108.0,82.0,-78.0
128.0,126.0,127.0,126.0,127.0,150.0,130.0,128.0,15.0,-108.0,-84.0,127.0,127.0,127.0,108.0,82.0,-78.0
128.0,125.0,128.0,126.0,127.0,150.0,130.0,128.0,15.0,-108.0,-84.0,127.0,127.0,127.0,108.0,82.0,-78.0
128.0,126.0,128.0,126.0,127.0,150.0,130.0,128.0,15.0,-108.0,-84.0,127.0,127.0,127.0,108.0,82.0,-78.0
128.0,126.0,129.0,126.0,127.0,150.0,130.0,128.0,15.0,-108.0,-84.0,127.0,127.0,127.0,108.0,82.0,-78.0
128.0,126.0,129.0,126.0,127.0,150.0,130.0,128.0,15.0,-108.0,-84.0,127.0,127.0,127.0,108.0,82.0,-78.0
128.0,125.0,126.0,126.0,127.0,151.0,131.0,128.0,15.0,-108.0,-84.0,127.0,127.0,127.0,108.0,82.0,-78.0
128.0,125.0,126.0,126.0,126.0,150.0,131.0,128.0,15.0,-108.0,-84.0,127.0,127.0,127.0,108.0,82.0,-78.0
128.0,125.0,126.0,126.0,126.0,150.0,131.0,128.0,15.0,-108.0,-84.0,127.0,127.0,127.0,108.0,82.0,-78.0
128.0,125.0,126.0,126.0,127.0,151.0,131.0,128.0,15.0,-108.0,-84.0,127.0,127.0,127.0,108.0,82.0,-78.0
128.0,125.0,126.0,126.0,127.0,151.0,131.0,128.0,15.0,-108.0,-84.0,127.0,127.0,127.0,108.0,82.0,-78.0
128.0,125.0,126.0,126.0,127.0,151.0,131.0,128.0,15.0,-108.0,-84.0,127.0,127.0,127.0,108.0,82.0,-78.0
128.0,125.0,126.0,126.0,127.0,151.0,131.0,128.0,15.0,-108.0,-84.0,127.0,127.0,127.0,108.0,82.0,-78.0
128.0,125.0,126.0,126.0,127.0,151.0,131.0,128.0,15.0,-108.0,-84.0,127.0,127.0,127.0,108.0,82.0,-78.0
128.0,125.0,126.0,126.0,127.0,151.0,131.0,128.0,15.0,-108.0,-84.0,127.0,127.0,127.0,108.0,82.0,-78.0
128.0,125.0,126.0,126.0,127.0,150.0,130.0,128.0,15.0,-108.0,-84.0,127.0,127.0,127.0,108.0,82.0,-78.0
127.0,125.0,127.0,124.0,126.0,150.0,131.0,127.0,15.0,-109.0,-84.0,127.0,127.0,127.0,108.0,82.0,-78.0
127.0,125.0,127.0,125.0,126.0,150.0,130.0,127.0,15.0,-109.0,-84.0,127.0,127.0,127.0,108.0,82.0,-78.0
127.0,125.0,128.0,124.0,125.0,151.0,131.0,127.0,15.0,-109.0,-84.0,127.0,127.0,127.0,108.0,82.0,-78.0
127.0,125.0,128.0,124.0,125.0,151.0,131.0,127.0,15.0,-109.0,-84.0,127.0,127.0,127.0,108.0,82.0,-78.0
127.0,125.0,128.0,124.0,125.0,150.0,131.0,127.0,15.0,-109.0,-84.0,127.0,127.0,127.0,108.0,82.0,-78.0
128.0,125.0,128.0,124.0,125.0,150.0,131.0,127.0,15.0,-109.0,-84.0,127.0,127.0,127.0,108.0,82.0,-78.0
127.0,125.0,128.0,124.0,125.0,150.0,131.0,127.0,15.0,-109.0,-84.0,127.0,127.0,127.0,108.0,82.0,-78.0
127.0,125.0,128.0,124.0,125.0,150.0,131.0,127.0,15.0,-109.0,-84.0,127.0,127.0,127.0,108.0,82.0,-78.0
128.0,125.0,128.0,124.0,126.0,150.0,131.0,127.0,15.0,-109.0,-84.0,127.0,127.0,127.0,108.0,82.0,-78.0
127.0,125.0,128.0,124.0,126.0,150.0,131.0,127.0,15.0,-109.0,-84.0,127.0,127.0,127.0,108.0,82.0,-78.0
127.0,124.0,126.0,127.0,128.0,150.0,130.0,127.0,15.0,-109.0,-84.0,127.0,127.0,127.0,108.0,82.0,-78.0
127.0,124.0,130.0,129.0,128.0,150.0,131.0,127.0,15.0,-109.0,-84.0,127.0,127.0,127.0,108.0,82.0,-78.0
127.0,124.0,130.0,129.0,128.0,150.0,131.0,127.0,15.0,-109.0,-84.0,127.0,127.0,127.0,108.0,82.0,-78.0
127.0,124.0,130.0,128.0,128.0,150.0,131.0,127.0,15.0,-109.0,-84.0,127.0,127.0,127.0,108.0,82.0,-78.0
127.0,124.0,129.0,128.0,128.0,150.0,131.0,127.0,15.0,-109.0,-84.0,127.0,127.0,127.0,108.0,82.0,-78.0
127.0,124.0,129.0,128.0,128.0,150.0,131.0,127.0,15.0,-109.0,-84.0,127.0,127.0,127.0,108.0,82.0,-78.0
127.0,124.0,128.0,128.0,128.0,150.0,131.0,127.0,15.0,-109.0,-84.0,127.0,127.0,127.0,108.0,82.0,-78.0
127.0,124.0,128.0,128.0,128.0,150.0,131.0,127.0,15.0,-109.0,-84.0,127.0,127.0,127.0,108.0,82.0,-78.0
127.0,124.0,127.0,128.0,128.0,150.0,131.0,127.0,15.0,-109.0,-84.0,127.0,127.0,127.0,108.0,82.0,-78.0
127.0,124.0,126.0,127.0,128.0,150.0,130.0,127.0,15.0,-109.0,-84.0,127.0,127.0,127.0,108.0,82.0,-78.0
128.0,125.0,126.0,125.0,128.0,151.0,125.0,127.0,15.0,-108.0,-84.0,127.0,127.0,127.0,108.0,82.0,-78.0
128.0,125.0,126.0,125.0,128.0,151.0,125.0,128.0,15.0,-108.0,-84.0,127.0,127.0,127.0,108.0,82.0,-78.0
128.0,125.0,126.0,125.0,128.0,151.0,125.0,128.0,15.0,-108.0,-84.0,127.0,127.0,127.0,108.0,82.0,-78.0
128.0,125.0,126.0,125.0,128.0,151.0,125.0,128.0,15.0,-108.0,-84.0,127.0,127.0,127.0,108.0,82.0,-78.0
128.0,124.0,127.0,125.0,128.0,151.0,125.0,128.0,15.0,-108.0,-84.0,127.0,127.0,127.0,108.0,82.0,-78.0
128.0,124.0,127.0,126.0,128.0,151.0,125.0,128.0,15.0,-108.0,-84.0,127.0,127.0,127.0,108.0,82.0,-78.0
128.0,124.0,127.0,126.0,128.0,151.0,125.0,129.0,15.0,-108.0,-84.0,127.0,127.0,127.0,108.0,82.0,-78.0
128.0,124.0,127.0,126.0,128.0,151.0,125.0,129.0,15.0,-108.0,-84.0,127.0,127.0,127.0,108.0,82.0,-78.0
128.0,124.0,127.0,127.0,128.0,151.0,125.0,129.0,15.0,-108.0,-84.0,127.0,127.0,127.0,108.0,82.0,-78.0
128.0,124.0,126.0,127.0,128.0,151.0,124.0,129.0,15.0,-108.0,-84.0,127.0,127.0,127.0,108.0,82.0,-78.0
128.0,125.0,127.0,126.0,129.0,152.0,126.0,128.0,15.0,-108.0,-84.0,127.0,127.0,127.0,108.0,82.0,-78.0
128.0,125.0,127.0,125.0,128.0,152.0,126.0,128.0,15.0,-108.0,-84.0,127.0,127.0,127.0,108.0,82.0,-78.0
128.0,125.0,127.0,125.0,128.0,152.0,126.0,128.0,15.0,-108.0,-84.0,127.0,127.0,127.0,108.0,82.0,-78.0
128.0,125.0,126.0,125.0,128.0,152.0,126.0,128.0,15.0,-108.0,-84.0,127.0,127.0,127.0,108.0,82.0,-78.0
128.0,125.0,126.0,125.0,128.0,152.0,126.0,128.0,15.0,-108.0,-84.0,127.0,127.0,127.0,108.0,82.0,-78.0
128.0,125.0,126.0,125.0,128.0,152.0,126.0,128.0,15.0,-108.0,-84.0,127.0,127.0,127.0,108.0,82.0,-78.0
128.0,125.0,126.0,125.0,128.0,152.0,126.0,128.0,15.0,-108.0,-84.0,127.0,127.0,127.0,108.0,82.0,-78.0
128.0,125.0,126.0,125.0,128.0,152.0,126.0,128.0,15.0,-108.0,-84.0,127.0,127.0,127.0,108.0,82.0,-78.0
128.0,125.0,126.0,125.0,128.0,152.0,125.0,128.0,15.0,-108.0,-84.0,127.0,127.0,127.0,108.0,82.0,-78.0
128.0,125.0,127.0,126.0,129.0,152.0,126.0,128.0,15.0,-108.0,-84.0,127.0,127.0,127.0,108.0,82.0,-78.0
127.0,125.0,126.0,126.0,129.0,152.0,127.0,128.0,14.0,-108.0,-84.0,127.0,127.0,127.0,108.0,82.0,-79.0
127.0,125.0,126.0,126.0,129.0,152.0,127.0,128.0,14.0,-108.0,-84.0,127.0,127.0,127.0,108.0,82.0,-79.0
127.0,125.0,126.0,126.0,129.0,152.0,127.0,128.0,14.0,-108.0,-84.0,127.0,127.0,127.0,108.0,82.0,-79.0
127.0,125.0,125.0,126.0,129.0,152.0,127.0,128.0,14.0,-108.0,-84.0,127.0,127.0,127.0,108.0,82.0,-79.0
127.0,124.0,125.0,126.0,129.0,152.0,127.0,128.0,14.0,-108.0,-84.0,127.0,127.0,127.0,108.0,82.0,-79.0
127.0,124.0,125.0,126.0,129.0,152.0,127.0,128.0,14.0,-108.0,-84.0,127.0,127.0,127.0,108.0,82.0,-79.0
127.0,124.0,124.0,126.0,129.0,152.0,127.0,128.0,14.0,-108.0,-84.0,127.0,127.0,127.0,108.0,82.0,-79.0
127.0,124.0,124.0,126.0,129.0,152.0,126.0,128.0,14.0,-108.0,-84.0,127.0,127.0,127.0,108.0,82.0,-79.0
127.0,125.0,126.0,126.0,129.0,152.0,127.0,128.0,14.0,-108.0,-84.0,127.0,127.0,127.0,108.0,82.0,-79.0
127.0,125.0,126.0,126.0,129.0,152.0,127.0,128.0,14.0,-108.0,-84.0,127.0,127.0,127.0,108.0,82.0,-79.0
128.0,125.0,128.0,127.0,130.0,154.0,129.0,128.0,15.0,-109.0,-84.0,127.0,127.0,127.0,108.0,82.0,-79.0
128.0,125.0,128.0,127.0,130.0,154.0,128.0,128.0,15.0,-109.0,-84.0,127.0,127.0,127.0,108.0,82.0,-79.0
128.0,125.0,128.0,127.0,129.0,154.0,128.0,128.0,15.0,-109.0,-84.0,127.0,127.0,127.0,108.0,82.0,-79.0
128.0,125.0,128.0,127.0,129.0,154.0,128.0,128.0,15.0,-109.0,-84.0,127.0,127.0,127.0,108.0,82.0,-79.0
128.0,125.0,128.0,127.0,129.0,154.0,128.0,128.0,15.0,-109.0,-84.0,127.0,127.0,127.0,108.0,82.0,-79.0
128.0,125.0,128.0,127.0,129.0,154.0,129.0,128.0,15.0,-109.0,-84.0,127.0,127.0,127.0,108.0,82.0,-79.0
128.0,124.0,129.0,127.0,129.0,154.0,129.0,128.0,15.0,-109.0,-84.0,127.0,127.0,127.0,108.0,82.0,-79.0
128.0,125.0,128.0,127.0,130.0,154.0,128.0,128.0,15.0,-109.0,-84.0,127.0,127.0,127.0,108.0,82.0,-79.0
128.0,125.0,128.0,127.0,130.0,154.0,128.0,128.0,15.0,-109.0,-84.0,127.0,127.0,127.0,108.0,82.0,-79.0
128.0,125.0,128.0,127.0,130.0,154.0,128.0,128.0,15.0,-109.0,-84.0,127.0,127.0,127.0,108.0,82.0,-79.0
128.0,123.0,126.0,127.0,130.0,179.0,147.0,128.0,15.0,-109.0,-84.0,127.0,127.0,127.0,108.0,82.0,-79.0
128.0,123.0,126.0,127.0,130.0,181.0,150.0,128.0,15.0,-109.0,-84.0,127.0,127.0,127.0,108.0,82.0,-79.0
127.0,123.0,126.0,127.0,131.0,184.0,149.0,128.0,15.0,-109.0,-84.0,127.0,127.0,127.0,108.0,82.0,-79.0
127.0,123.0,126.0,127.0,131.0,187.0,151.0,128.0,15.0,-109.0,-84.0,127.0,127.0,127.0,108.0,82.0,-79.0
127.0,123.0,126.0,127.0,131.0,189.0,155.0,128.0,15.0,-109.0,-84.0,127.0,127.0,127.0,108.0,82.0,-79.0
127.0,123.0,125.0,127.0,131.0,192.0,155.0,128.0,15.0,-109.0,-84.0,127.0,127.0,127.0,108.0,82.0,-79.0
