emg1,emg2,emg3,emg4,emg5,emg6,emg7,emg8,acc_x,acc_y,acc_z,gyro_x,gyro_y,gyro_z,angle_pitch,angle_roll,angle_yaw
127.0,127.0,127.0,127.0,127.0,128.0,107.0,127.0,21.0,-111.0,-75.0,127.0,127.0,127.0,118.0,87.0,-71.0
127.0,126.0,127.0,127.0,127.0,128.0,107.0,127.0,21.0,-111.0,-75.0,127.0,127.0,127.0,118.0,87.0,-71.0
127.0,126.0,127.0,127.0,127.0,128.0,107.0,127.0,21.0,-111.0,-75.0,127.0,127.0,127.0,118.0,87.0,-71.0
127.0,126.0,127.0,127.0,127.0,128.0,108.0,127.0,21.0,-111.0,-75.0,127.0,127.0,127.0,118.0,87.0,-71.0
127.0,126.0,127.0,127.0,127.0,128.0,107.0,127.0,21.0,-111.0,-75.0,127.0,127.0,127.0,118.0,87.0,-71.0
127.0,126.0,127.0,127.0,127.0,128.0,107.0,127.0,21.0,-111.0,-75.0,127.0,127.0,127.0,118.0,87.0,-71.0
127.0,127.0,127.0,127.0,127.0,127.0,106.0,127.0,21.0,-111.0,-75.0,127.0,127.0,127.0,118.0,87.0,-71.0
127.0,127.0,127.0,127.0,127.0,128.0,107.0,127.0,21.0,-111.0,-75.0,127.0,127.0,127.0,118.0,87.0,-71.0
127.0,127.0,127.0,127.0,127.0,128.0,107.0,127.0,21.0,-111.0,-75.0,127.0,127.0,127.0,118.0,87.0,-71.0
127.0,127.0,127.0,127.0,127.0,128.0,107.0,127.0,21.0,-111.0,-75.0,127.0,127.0,127.0,118.0,87.0,-71.0
127.0,127.0,127.0,127.0,127.0,128.0,107.0,127.0,21.0,-111.0,-75.0,127.0,127.0,127.0,118.0,87.0,-71.0
127.0,127.0,127.0,127.0,127.0,128.0,107.0,127.0,21.0,-111.0,-75.0,127.0,127.0,127.0,118.0,87.0,-71.0
127.0,127.0,127.0,127.0,127.0,128.0,107.0,127.0,21.0,-111.0,-75.0,127.0,127.0,127.0,118.0,87.0,-71.0
127.0,126.0,127.0,127.0,127.0,128.0,107.0,127.0,21.0,-111.0,-75.0,127.0,127.0,127.0,118.0,87.0,-71.0
127.0,126.0,127.0,127.0,127.0,128.0,107.0,127.0,21.0,-111.0,-75.0,127.0,127.0,127.0,118.0,87.0,-71.0
127.0,127.0,127.0,127.0,127.0,128.0,107.0,127.0,21.0,-111.0,-75.0,127.0,127.0,127.0,118.0,87.0,-71.0
127.0,127.0,127.0,127.0,127.0,128.0,107.0,127.0,21.0,-111.0,-75.0,127.0,127.0,127.0,118.0,87.0,-71.0
127.0,127.0,127.0,127.0,127.0,128.0,107.0,127.0,21.0,-111.0,-75.0,127.0,127.0,127.0,118.0,87.0,-71.0
127.0,127.0,127.0,127.0,127.0,128.0,108.0,127.0,21.0,-111.0,-75.0,127.0,127.0,127.0,118.0,87.0,-71.0
127.0,127.0,127.0,127.0,127.0,128.0,107.0,127.0,21.0,-111.0,-75.0,127.0,127.0,127.0,118.0,87.0,-71.0
127.0,127.0,127.0,127.0,127.0,128.0,107.0,127.0,21.0,-111.0,-75.0,127.0,127.0,127.0,118.0,87.0,-71.0
127.0,126.0,127.0,127.0,126.0,128.0,107.0,127.0,21.0,-111.0,-75.0,127.0,127.0,127.0,118.0,87.0,-71.0
127.0,126.0,127.0,127.0,126.0,128.0,107.0,127.0,21.0,-111.0,-75.0,127.0,127.0,127.0,118.0,87.0,-71.0
127.0,126.0,127.0,127.0,126.0,128.0,107.0,127.0,21.0,-111.0,-75.0,127.0,127.0,127.0,118.0,87.0,-71.0
127.0,127.0,127.0,127.0,127.0,127.0,106.0,128.0,21.0,-111.0,-75.0,127.0,127.0,127.0,118.0,87.0,-71.0
127.0,127.0,127.0,127.0,127.0,128.0,107.0,127.0,21.0,-111.0,-75.0,127.0,127.0,127.0,118.0,87.0,-71.0
127.0,127.0,127.0,127.0,127.0,128.0,107.0,127.0,21.0,-111.0,-75.0,127.0,127.0,127.0,118.0,87.0,-71.0
127.0,127.0,128.0,127.0,127.0,128.0,107.0,127.0,21.0,-111.0,-75.0,127.0,127.0,127.0,118.0,87.0,-71.0
127.0,127.0,128.0,127.0,127.0,128.0,108.0,127.0,21.0,-111.0,-75.0,127.0,127.0,127.0,118.0,87.0,-71.0
127.0,127.0,127.0,127.0,127.0,128.0,108.0,127.0,21.0,-111.0,-75.0,127.0,127.0,127.0,118.0,87.0,-71.0
127.0,126.0,127.0,127.0,127.0,128.0,108.0,127.0,21.0,-111.0,-75.0,127.0,127.0,127.0,118.0,87.0,-71.0
127.0,126.0,127.0,127.0,127.0,128.0,107.0,127.0,21.0,-111.0,-75.0,127.0,127.0,127.0,118.0,87.0,-71.0
127.0,126.0,127.0,127.0,127.0,128.0,107.0,127.0,21.0,-111.0,-75.0,127.0,127.0,127.0,118.0,87.0,-71.0
127.0,127.0,127.0,127.0,127.0,127.0,106.0,127.0,21.0,-111.0,-75.0,127.0,127.0,127.0,118.0,87.0,-71.0
127.0,127.0,127.0,127.0,127.0,128.0,107.0,127.0,21.0,-111.0,-75.0,127.0,127.0,127.0,118.0,87.0,-71.0
127.0,127.0,127.0,127.0,127.0,128.0,107.0,127.0,21.0,-111.0,-75.0,127.0,127.0,127.0,118.0,87.0,-71.0
127.0,127.0,127.0,127.0,127.0,128.0,107.0,127.0,21.0,-111.0,-75.0,127.0,127.0,127.0,118.0,87.0,-71.0
127.0,127.0,127.0,127.0,127.0,128.0,108.0,127.0,21.0,-111.0,-75.0,127.0,127.0,127.0,118.0,87.0,-71.0
127.0,127.0,127.0,127.0,127.0,128.0,107.0,127.0,21.0,-111.0,-75.0,127.0,127.0,127.0,118.0,87.0,-71.0
127.0,126.0,127.0,127.0,127.0,128.0,107.0,127.0,21.0,-111.0,-75.0,127.0,127.0,127.0,118.0,87.0,-71.0
127.0,126.0,127.0,127.0,127.0,128.0,107.0,127.0,21.0,-111.0,-75.0,127.0,127.0,127.0,118.0,87.0,-71.0
127.0,126.0,127.0,127.0,126.0,128.0,108.0,127.0,21.0,-111.0,-75.0,127.0,127.0,127.0,118.0,87.0,-71.0
127.0,126.0,127.0,127.0,127.0,127.0,107.0,128.0,21.0,-111.0,-75.0,127.0,127.0,127.0,118.0,87.0,-71.0
127.0,126.0,127.0,127.0,127.0,127.0,106.0,128.0,21.0,-111.0,-75.0,127.0,127.0,127.0,118.0,87.0,-71.0
127.0,126.0,127.0,127.0,127.0,127.0,107.0,127.0,21.0,-111.0,-75.0,127.0,127.0,127.0,118.0,87.0,-71.0
127.0,126.0,127.0,127.0,127.0,127.0,106.0,127.0,21.0,-111.0,-75.0,127.0,127.0,127.0,118.0,87.0,-71.0
127.0,126.0,127.0,127.0,127.0,128.0,107.0,127.0,21.0,-111.0,-75.0,127.0,127.0,127.0,118.0,87.0,-71.0
127.0,127.0,127.0,127.0,127.0,128.0,107.0,127.0,21.0,-111.0,-75.0,127.0,127.0,127.0,118.0,87.0,-71.0
127.0,126.0,127.0,127.0,127.0,128.0,107.0,127.0,21.0,-111.0,-75.0,127.0,127.0,127.0,118.0,87.0,-71.0
127.0,126.0,127.0,127.0,127.0,128.0,107.0,127.0,21.0,-111.0,-75.0,127.0,127.0,127.0,118.0,87.0,-71.0
127.0,126.0,127.0,127.0,127.0,128.0,106.0,127.0,21.0,-111.0,-75.0,127.0,127.0,127.0,118.0,87.0,-71.0
127.0,127.0,127.0,127.0,127.0,128.0,108.0,127.0,21.0,-111.0,-75.0,127.0,127.0,127.0,118.0,87.0,-71.0
127.0,127.0,127.0,127.0,127.0,128.0,107.0,127.0,21.0,-111.0,-75.0,127.0,127.0,127.0,118.0,87.0,-71.0
127.0,127.0,127.0,127.0,127.0,128.0,107.0,128.0,21.0,-111.0,-75.0,127.0,127.0,127.0,118.0,87.0,-71.0
127.0,127.0,127.0,127.0,127.0,128.0,107.0,128.0,21.0,-111.0,-75.0,127.0,127.0,127.0,118.0,87.0,-71.0
127.0,127.0,127.0,127.0,127.0,128.0,107.0,128.0,21.0,-111.0,-75.0,127.0,127.0,127.0,118.0,87.0,-71.0
127.0,127.0,127.0,127.0,127.0,128.0,107.0,127.0,21.0,-111.0,-75.0,127.0,127.0,127.0,118.0,87.0,-71.0
127.0,126.0,127.0,127.0,127.0,128.0,107.0,128.0,21.0,-111.0,-75.0,127.0,127.0,127.0,118.0,87.0,-71.0
127.0,126.0,127.0,127.0,127.0,128.0,107.0,128.0,21.0,-111.0,-75.0,127.0,127.0,127.0,118.0,87.0,-71.0
127.0,126.0,127.0,127.0,127.0,128.0,106.0,128.0,21.0,-111.0,-75.0,127.0,127.0,127.0,118.0,87.0,-71.0
127.0,127.0,127.0,127.0,127.0,128.0,107.0,127.0,21.0,-111.0,-75.0,127.0,127.0,127.0,118.0,87.0,-71.0
127.0,127.0,127.0,127.0,127.0,128.0,107.0,127.0,21.0,-111.0,-75.0,127.0,127.0,127.0,118.0,87.0,-71.0
127.0,127.0,127.0,127.0,127.0,128.0,108.0,127.0,21.0,-111.0,-75.0,127.0,127.0,127.0,118.0,87.0,-71.0
127.0,126.0,127.0,127.0,127.0,128.0,108.0,127.0,21.0,-111.0,-75.0,127.0,127.0,127.0,118.0,87.0,-71.0
127.0,126.0,127.0,127.0,127.0,128.0,108.0,127.0,21.0,-111.0,-75.0,127.0,127.0,127.0,118.0,87.0,-71.0
127.0,126.0,127.0,127.0,127.0,128.0,107.0,127.0,21.0,-111.0,-75.0,127.0,127.0,127.0,118.0,87.0,-71.0
127.0,126.0,127.0,127.0,127.0,128.0,107.0,127.0,21.0,-111.0,-75.0,127.0,127.0,127.0,118.0,87.0,-71.0
127.0,126.0,127.0,127.0,127.0,128.0,107.0,127.0,21.0,-111.0,-75.0,127.0,127.0,127.0,118.0,87.0,-71.0
127.0,126.0,127.0,127.0,127.0,128.0,107.0,127.0,21.0,-111.0,-75.0,127.0,127.0,127.0,118.0,87.0,-71.0
127.0,126.0,127.0,127.0,127.0,128.0,107.0,127.0,21.0,-111.0,-75.0,127.0,127.0,127.0,118.0,87.0,-71.0
127.0,127.0,127.0,127.0,127.0,128.0,108.0,128.0,21.0,-111.0,-75.0,127.0,127.0,127.0,118.0,87.0,-71.0
127.0,127.0,127.0,127.0,127.0,129.0,109.0,128.0,21.0,-111.0,-75.0,127.0,127.0,127.0,118.0,87.0,-71.0
127.0,127.0,127.0,127.0,127.0,129.0,109.0,128.0,21.0,-111.0,-75.0,127.0,127.0,127.0,118.0,87.0,-71.0
127.0,127.0,127.0,127.0,127.0,129.0,109.0,128.0,21.0,-111.0,-75.0,127.0,127.0,127.0,118.0,87.0,-71.0
127.0,127.0,127.0,127.0,127.0,129.0,108.0,128.0,21.0,-111.0,-75.0,127.0,127.0,127.0,118.0,87.0,-71.0
127.0,126.0,127.0,127.0,127.0,129.0,108.0,128.0,21.0,-111.0,-75.0,127.0,127.0,127.0,118.0,87.0,-71.0
127.0,126.0,127.0,127.0,127.0,129.0,108.0,127.0,21.0,-111.0,-75.0,127.0,127.0,127.0,118.0,87.0,-71.0
127.0,126.0,127.0,127.0,126.0,128.0,108.0,128.0,21.0,-111.0,-75.0,127.0,127.0,127.0,118.0,87.0,-71.0
127.0,126.0,127.0,127.0,127.0,128.0,108.0,127.0,21.0,-111.0,-75.0,127.0,127.0,127.0,118.0,87.0,-71.0
127.0,127.0,127.0,127.0,127.0,128.0,108.0,128.0,21.0,-111.0,-75.0,127.0,127.0,127.0,118.0,87.0,-71.0
127.0,127.0,127.0,127.0,127.0,128.0,107.0,128.0,21.0,-111.0,-75.0,127.0,127.0,127.0,118.0,86.0,-71.0
127.0,127.0,127.0,127.0,127.0,128.0,107.0,127.0,21.0,-111.0,-75.0,127.0,127.0,127.0,118.0,86.0,-71.0
127.0,127.0,127.0,127.0,127.0,128.0,107.0,127.0,21.0,-111.0,-75.0,127.0,127.0,127.0,118.0,86.0,-71.0
127.0,127.0,127.0,127.0,127.0,128.0,108.0,127.0,21.0,-111.0,-75.0,127.0,127.0,127.0,118.0,86.0,-71.0
127.0,127.0,127.0,127.0,127.0,128.0,108.0,127.0,21.0,-111.0,-75.0,127.0,127.0,127.0,118.0,86.0,-71.0
127.0,127.0,127.0,127.0,127.0,128.0,108.0,127.0,21.0,-111.0,-75.0,127.0,127.0,127.0,118.0,86.0,-71.0
127.0,126.0,127.0,127.0,127.0,128.0,108.0,127.0,21.0,-111.0,-75.0,127.0,127.0,127.0,118.0,86.0,-71.0
127.0,127.0,127.0,127.0,127.0,128.0,107.0,127.0,21.0,-111.0,-75.0,127.0,127.0,127.0,118.0,86.0,-71.0
127.0,127.0,127.0,127.0,127.0,128.0,108.0,128.0,21.0,-111.0,-75.0,127.0,127.0,127.0,118.0,86.0,-71.0
127.0,127.0,127.0,127.0,127.0,128.0,107.0,128.0,21.0,-111.0,-75.0,127.0,127.0,127.0,118.0,86.0,-71.0
127.0,126.0,127.0,127.0,127.0,128.0,107.0,127.0,20.0,-111.0,-75.0,127.0,127.0,127.0,118.0,86.0,-71.0
127.0,126.0,127.0,127.0,127.0,128.0,107.0,127.0,20.0,-111.0,-75.0,127.0,127.0,127.0,118.0,86.0,-71.0
127.0,126.0,127.0,126.0,127.0,128.0,108.0,127.0,20.0,-111.0,-75.0,127.0,127.0,127.0,118.0,86.0,-71.0
127.0,126.0,127.0,126.0,127.0,128.0,108.0,127.0,20.0,-111.0,-75.0,127.0,127.0,127.0,118.0,86.0,-71.0
127.0,126.0,127.0,126.0,127.0,128.0,108.0,127.0,20.0,-111.0,-75.0,127.0,127.0,127.0,118.0,86.0,-71.0
127.0,126.0,127.0,126.0,127.0,128.0,109.0,127.0,20.0,-111.0,-75.0,127.0,127.0,127.0,118.0,86.0,-71.0
127.0,127.0,127.0,127.0,127.0,128.0,107.0,127.0,20.0,-111.0,-75.0,127.0,127.0,127.0,118.0,86.0,-71.0
127.0,127.0,127.0,127.0,127.0,128.0,107.0,127.0,20.0,-111.0,-75.0,127.0,127.0,127.0,118.0,86.0,-71.0
127.0,127.0,127.0,127.0,127.0,128.0,107.0,127.0,20.0,-111.0,-75.0,127.0,127.0,127.0,118.0,86.0,-71.0
127.0,126.0,127.0,127.0,127.0,128.0,107.0,127.0,20.0,-111.0,-75.0,127.0,127.0,127.0,118.0,86.0,-71.0
127.0,127.0,127.0,127.0,127.0,128.0,108.0,127.0,20.0,-111.0,-76.0,127.0,127.0,127.0,118.0,86.0,-71.0
127.0,127.0,127.0,127.0,127.0,128.0,108.0,127.0,20.0,-111.0,-76.0,127.0,127.0,127.0,118.0,86.0,-71.0
127.0,127.0,127.0,127.0,127.0,129.0,108.0,127.0,20.0,-111.0,-76.0,127.0,127.0,127.0,118.0,86.0,-71.0
127.0,127.0,127.0,127.0,127.0,129.0,109.0,127.0,20.0,-111.0,-76.0,127.0,127.0,127.0,118.0,86.0,-71.0
127.0,126.0,127.0,127.0,127.0,129.0,108.0,127.0,20.0,-111.0,-76.0,127.0,127.0,127.0,118.0,86.0,-71.0
127.0,127.0,127.0,127.0,127.0,128.0,108.0,127.0,20.0,-111.0,-76.0,127.0,127.0,127.0,118.0,86.0,-71.0
127.0,127.0,127.0,127.0,127.0,128.0,108.0,127.0,20.0,-111.0,-76.0,127.0,127.0,127.0,118.0,86.0,-71.0
127.0,127.0,127.0,127.0,127.0,128.0,108.0,127.0,20.0,-111.0,-76.0,127.0,127.0,127.0,118.0,86.0,-71.0
127.0,127.0,127.0,127.0,127.0,128.0,108.0,127.0,20.0,-111.0,-76.0,127.0,127.0,127.0,118.0,86.0,-71.0
127.0,127.0,127.0,127.0,127.0,128.0,108.0,127.0,20.0,-111.0,-76.0,127.0,127.0,127.0,118.0,86.0,-71.0
127.0,127.0,127.0,127.0,127.0,128.0,107.0,127.0,20.0,-111.0,-76.0,127.0,127.0,127.0,117.0,86.0,-71.0
127.0,127.0,127.0,127.0,127.0,128.0,108.0,127.0,20.0,-111.0,-76.0,127.0,127.0,127.0,117.0,86.0,-71.0
127.0,127.0,127.0,127.0,127.0,128.0,108.0,127.0,20.0,-111.0,-76.0,127.0,127.0,127.0,117.0,86.0,-71.0
127.0,127.0,127.0,127.0,127.0,128.0,108.0,127.0,20.0,-111.0,-76.0,127.0,127.0,127.0,117.0,86.0,-71.0
127.0,127.0,127.0,127.0,127.0,128.0,107.0,127.0,20.0,-111.0,-76.0,127.0,127.0,127.0,117.0,86.0,-71.0
127.0,127.0,127.0,127.0,127.0,128.0,107.0,127.0,20.0,-111.0,-76.0,127.0,127.0,127.0,117.0,86.0,-71.0
127.0,127.0,127.0,127.0,127.0,128.0,107.0,127.0,20.0,-111.0,-76.0,127.0,127.0,127.0,117.0,86.0,-71.0
127.0,127.0,127.0,127.0,127.0,128.0,107.0,127.0,20.0,-111.0,-76.0,127.0,127.0,127.0,117.0,86.0,-71.0
127.0,127.0,127.0,127.0,127.0,128.0,107.0,127.0,20.0,-111.0,-76.0,127.0,127.0,127.0,117.0,86.0,-71.0
127.0,127.0,127.0,127.0,127.0,128.0,107.0,127.0,20.0,-111.0,-76.0,127.0,127.0,127.0,117.0,86.0,-71.0
127.0,126.0,127.0,127.0,126.0,127.0,106.0,127.0,20.0,-111.0,-76.0,127.0,127.0,127.0,117.0,86.0,-71.0
127.0,126.0,127.0,127.0,126.0,128.0,106.0,127.0,20.0,-111.0,-76.0,127.0,127.0,127.0,117.0,86.0,-71.0
127.0,126.0,127.0,127.0,126.0,128.0,106.0,127.0,20.0,-111.0,-76.0,127.0,127.0,127.0,117.0,86.0,-71.0
127.0,126.0,127.0,127.0,127.0,127.0,106.0,128.0,20.0,-111.0,-76.0,127.0,127.0,127.0,117.0,86.0,-71.0
127.0,126.0,127.0,127.0,127.0,127.0,106.0,128.0,20.0,-111.0,-76.0,127.0,127.0,127.0,117.0,86.0,-71.0
127.0,126.0,127.0,127.0,127.0,127.0,106.0,128.0,20.0,-111.0,-76.0,127.0,127.0,127.0,117.0,86.0,-71.0
127.0,126.0,127.0,127.0,126.0,127.0,106.0,128.0,20.0,-111.0,-76.0,127.0,127.0,127.0,117.0,86.0,-71.0
127.0,126.0,127.0,127.0,126.0,127.0,106.0,128.0,20.0,-111.0,-76.0,127.0,127.0,127.0,117.0,86.0,-71.0
127.0,126.0,127.0,127.0,126.0,128.0,106.0,128.0,20.0,-111.0,-76.0,127.0,127.0,127.0,117.0,86.0,-71.0
127.0,126.0,127.0,127.0,126.0,127.0,106.0,128.0,20.0,-111.0,-76.0,127.0,127.0,127.0,117.0,86.0,-71.0
127.0,126.0,127.0,127.0,127.0,128.0,108.0,128.0,19.0,-111.0,-76.0,127.0,127.0,127.0,117.0,85.0,-71.0
127.0,126.0,127.0,127.0,127.0,128.0,108.0,128.0,19.0,-111.0,-76.0,127.0,127.0,127.0,117.0,85.0,-71.0
127.0,127.0,127.0,127.0,127.0,128.0,107.0,128.0,19.0,-111.0,-76.0,127.0,127.0,127.0,117.0,85.0,-71.0
127.0,126.0,127.0,127.0,127.0,128.0,108.0,128.0,19.0,-111.0,-76.0,127.0,127.0,127.0,117.0,85.0,-71.0
127.0,126.0,127.0,127.0,127.0,128.0,108.0,128.0,19.0,-111.0,-76.0,127.0,127.0,127.0,117.0,85.0,-71.0
127.0,126.0,127.0,127.0,127.0,128.0,107.0,127.0,19.0,-111.0,-76.0,127.0,127.0,127.0,117.0,85.0,-71.0
127.0,126.0,127.0,127.0,127.0,128.0,108.0,128.0,19.0,-111.0,-76.0,127.0,127.0,127.0,117.0,85.0,-71.0
127.0,126.0,127.0,127.0,127.0,128.0,109.0,127.0,19.0,-111.0,-76.0,127.0,127.0,127.0,117.0,85.0,-71.0
127.0,126.0,127.0,127.0,127.0,128.0,108.0,127.0,19.0,-111.0,-76.0,127.0,127.0,127.0,117.0,85.0,-71.0
127.0,126.0,127.0,127.0,127.0,128.0,108.0,128.0,19.0,-111.0,-76.0,127.0,127.0,127.0,117.0,85.0,-71.0
127.0,126.0,127.0,127.0,127.0,128.0,107.0,127.0,19.0,-112.0,-76.0,127.0,127.0,127.0,117.0,85.0,-71.0
127.0,127.0,127.0,127.0,127.0,128.0,107.0,128.0,19.0,-112.0,-76.0,127.0,127.0,127.0,117.0,85.0,-71.0
127.0,127.0,127.0,127.0,127.0,128.0,107.0,127.0,19.0,-112.0,-76.0,127.0,127.0,127.0,117.0,85.0,-71.0
127.0,127.0,127.0,127.0,127.0,128.0,107.0,127.0,19.0,-112.0,-76.0,127.0,127.0,127.0,117.0,85.0,-71.0
127.0,126.0,127.0,127.0,127.0,128.0,107.0,127.0,19.0,-112.0,-76.0,127.0,127.0,127.0,117.0,85.0,-71.0
127.0,126.0,127.0,127.0,127.0,128.0,108.0,127.0,19.0,-112.0,-76.0,127.0,127.0,127.0,117.0,85.0,-71.0
127.0,126.0,127.0,127.0,127.0,128.0,107.0,127.0,19.0,-112.0,-76.0,127.0,127.0,127.0,117.0,85.0,-71.0
127.0,126.0,127.0,127.0,127.0,128.0,107.0,127.0,19.0,-112.0,-76.0,127.0,127.0,127.0,117.0,85.0,-71.0
127.0,126.0,127.0,127.0,127.0,128.0,107.0,127.0,19.0,-112.0,-76.0,127.0,127.0,127.0,117.0,85.0,-71.0
127.0,126.0,127.0,127.0,127.0,128.0,107.0,127.0,19.0,-112.0,-76.0,127.0,127.0,127.0,117.0,85.0,-71.0
127.0,127.0,127.0,127.0,127.0,128.0,108.0,127.0,20.0,-112.0,-76.0,127.0,127.0,127.0,117.0,85.0,-71.0
127.0,127.0,127.0,127.0,127.0,129.0,108.0,127.0,20.0,-112.0,-76.0,127.0,127.0,127.0,117.0,85.0,-71.0
127.0,127.0,127.0,127.0,127.0,128.0,108.0,127.0,20.0,-112.0,-76.0,127.0,127.0,127.0,117.0,85.0,-71.0
127.0,127.0,127.0,127.0,127.0,128.0,108.0,127.0,20.0,-112.0,-76.0,127.0,127.0,127.0,117.0,85.0,-71.0
127.0,127.0,127.0,127.0,127.0,128.0,109.0,127.0,20.0,-112.0,-76.0,127.0,127.0,127.0,117.0,85.0,-71.0
127.0,127.0,127.0,127.0,127.0,128.0,109.0,127.0,20.0,-112.0,-76.0,127.0,127.0,127.0,117.0,85.0,-71.0
127.0,127.0,127.0,127.0,127.0,128.0,109.0,127.0,20.0,-112.0,-76.0,127.0,127.0,127.0,117.0,85.0,-71.0
127.0,126.0,127.0,127.0,127.0,128.0,108.0,127.0,20.0,-112.0,-76.0,127.0,127.0,127.0,117.0,85.0,-71.0
127.0,126.0,127.0,127.0,127.0,128.0,108.0,127.0,20.0,-112.0,-76.0,127.0,127.0,127.0,117.0,85.0,-71.0
127.0,126.0,127.0,127.0,126.0,128.0,107.0,127.0,20.0,-112.0,-76.0,127.0,127.0,127.0,117.0,85.0,-71.0
127.0,127.0,127.0,127.0,127.0,129.0,108.0,127.0,20.0,-112.0,-76.0,127.0,127.0,127.0,117.0,85.0,-71.0
127.0,127.0,127.0,127.0,127.0,129.0,108.0,127.0,20.0,-112.0,-76.0,127.0,127.0,127.0,117.0,85.0,-71.0
127.0,127.0,127.0,127.0,127.0,129.0,108.0,127.0,20.0,-112.0,-76.0,127.0,127.0,127.0,117.0,85.0,-71.0
127.0,126.0,127.0,127.0,127.0,128.0,108.0,127.0,20.0,-112.0,-76.0,127.0,127.0,127.0,117.0,85.0,-71.0
127.0,126.0,127.0,127.0,127.0,129.0,108.0,127.0,20.0,-112.0,-76.0,127.0,127.0,127.0,117.0,85.0,-71.0
127.0,126.0,127.0,127.0,127.0,129.0,108.0,127.0,20.0,-112.0,-76.0,127.0,127.0,127.0,117.0,85.0,-71.0
127.0,126.0,127.0,127.0,127.0,128.0,108.0,127.0,20.0,-112.0,-76.0,127.0,127.0,127.0,117.0,85.0,-71.0
127.0,126.0,127.0,127.0,127.0,129.0,108.0,127.0,20.0,-112.0,-76.0,127.0,127.0,127.0,117.0,85.0,-71.0
127.0,126.0,127.0,127.0,127.0,128.0,108.0,127.0,20.0,-112.0,-76.0,127.0,127.0,127.0,117.0,85.0,-71.0
127.0,126.0,127.0,127.0,127.0,128.0,108.0,127.0,20.0,-112.0,-76.0,127.0,127.0,127.0,117.0,85.0,-71.0
127.0,127.0,127.0,127.0,127.0,129.0,109.0,127.0,20.0,-112.0,-76.0,127.0,127.0,127.0,117.0,85.0,-71.0
127.0,127.0,127.0,127.0,127.0,129.0,109.0,127.0,20.0,-112.0,-76.0,127.0,127.0,127.0,117.0,85.0,-71.0
127.0,127.0,127.0,127.0,127.0,129.0,109.0,127.0,20.0,-112.0,-76.0,127.0,127.0,127.0,117.0,85.0,-71.0
127.0,127.0,127.0,127.0,127.0,129.0,108.0,127.0,20.0,-112.0,-76.0,127.0,127.0,127.0,117.0,85.0,-71.0
127.0,127.0,127.0,127.0,127.0,129.0,109.0,127.0,20.0,-112.0,-76.0,127.0,127.0,127.0,117.0,85.0,-71.0
127.0,127.0,127.0,127.0,127.0,129.0,108.0,127.0,20.0,-112.0,-76.0,127.0,127.0,127.0,117.0,85.0,-71.0
127.0,127.0,127.0,127.0,127.0,128.0,108.0,127.0,20.0,-112.0,-76.0,127.0,127.0,127.0,117.0,85.0,-71.0
127.0,126.0,127.0,127.0,127.0,128.0,108.0,127.0,20.0,-112.0,-76.0,127.0,127.0,127.0,117.0,85.0,-71.0
127.0,127.0,127.0,127.0,127.0,128.0,108.0,127.0,20.0,-112.0,-76.0,127.0,127.0,127.0,117.0,85.0,-71.0
127.0,127.0,127.0,127.0,127.0,129.0,109.0,127.0,20.0,-112.0,-76.0,127.0,127.0,127.0,117.0,85.0,-71.0
127.0,127.0,127.0,127.0,127.0,129.0,108.0,127.0,21.0,-112.0,-76.0,127.0,127.0,127.0,117.0,85.0,-71.0
127.0,127.0,127.0,127.0,127.0,129.0,108.0,127.0,21.0,-112.0,-76.0,127.0,127.0,127.0,117.0,85.0,-71.0
127.0,127.0,127.0,127.0,127.0,129.0,108.0,127.0,21.0,-112.0,-76.0,127.0,127.0,127.0,117.0,85.0,-71.0
127.0,127.0,127.0,127.0,127.0,129.0,108.0,127.0,21.0,-112.0,-76.0,127.0,127.0,127.0,117.0,85.0,-71.0
127.0,127.0,127.0,127.0,127.0,129.0,108.0,127.0,21.0,-112.0,-76.0,127.0,127.0,127.0,117.0,85.0,-71.0
127.0,126.0,127.0,127.0,127.0,128.0,108.0,127.0,21.0,-112.0,-76.0,127.0,127.0,127.0,117.0,85.0,-71.0
127.0,126.0,127.0,127.0,127.0,128.0,108.0,127.0,21.0,-112.0,-76.0,127.0,127.0,127.0,117.0,85.0,-71.0
127.0,127.0,127.0,127.0,127.0,128.0,108.0,127.0,21.0,-112.0,-76.0,127.0,127.0,127.0,117.0,85.0,-71.0
127.0,127.0,127.0,127.0,127.0,129.0,108.0,127.0,21.0,-112.0,-76.0,127.0,127.0,127.0,117.0,85.0,-71.0
127.0,127.0,127.0,127.0,127.0,129.0,108.0,127.0,21.0,-112.0,-76.0,127.0,127.0,127.0,117.0,85.0,-71.0
127.0,127.0,127.0,127.0,127.0,129.0,109.0,127.0,21.0,-112.0,-76.0,127.0,127.0,127.0,117.0,85.0,-71.0
127.0,127.0,127.0,127.0,127.0,129.0,109.0,127.0,21.0,-112.0,-76.0,127.0,127.0,127.0,117.0,85.0,-71.0
127.0,127.0,128.0,127.0,127.0,129.0,109.0,127.0,21.0,-112.0,-76.0,127.0,127.0,127.0,117.0,85.0,-71.0
127.0,127.0,127.0,127.0,127.0,129.0,109.0,127.0,21.0,-112.0,-76.0,127.0,127.0,127.0,117.0,85.0,-71.0
127.0,127.0,127.0,127.0,127.0,129.0,109.0,127.0,21.0,-112.0,-76.0,127.0,127.0,127.0,117.0,85.0,-71.0
127.0,127.0,127.0,127.0,127.0,129.0,109.0,127.0,21.0,-112.0,-76.0,127.0,127.0,127.0,117.0,85.0,-71.0
127.0,127.0,127.0,127.0,127.0,128.0,108.0,127.0,21.0,-112.0,-76.0,127.0,127.0,127.0,117.0,85.0,-71.0
127.0,127.0,127.0,127.0,127.0,129.0,108.0,127.0,21.0,-112.0,-76.0,127.0,127.0,127.0,117.0,85.0,-71.0
127.0,127.0,127.0,127.0,127.0,129.0,109.0,127.0,21.0,-112.0,-76.0,127.0,127.0,127.0,117.0,85.0,-71.0
127.0,127.0,127.0,127.0,127.0,129.0,109.0,127.0,21.0,-112.0,-76.0,127.0,127.0,127.0,117.0,85.0,-71.0
127.0,126.0,127.0,127.0,126.0,128.0,107.0,127.0,21.0,-112.0,-76.0,127.0,127.0,127.0,117.0,85.0,-71.0
127.0,126.0,127.0,127.0,126.0,128.0,107.0,127.0,21.0,-112.0,-76.0,127.0,127.0,127.0,117.0,85.0,-71.0
127.0,126.0,127.0,127.0,126.0,128.0,108.0,127.0,21.0,-112.0,-76.0,127.0,127.0,127.0,117.0,85.0,-71.0
127.0,127.0,127.0,127.0,127.0,129.0,108.0,127.0,21.0,-112.0,-76.0,127.0,127.0,127.0,117.0,85.0,-71.0
127.0,127.0,127.0,127.0,127.0,129.0,108.0,127.0,21.0,-112.0,-76.0,127.0,127.0,127.0,117.0,85.0,-71.0
127.0,127.0,127.0,127.0,127.0,128.0,107.0,128.0,21.0,-112.0,-76.0,127.0,127.0,127.0,117.0,85.0,-71.0
127.0,126.0,127.0,127.0,127.0,128.0,107.0,128.0,21.0,-112.0,-76.0,127.0,127.0,127.0,117.0,85.0,-71.0
127.0,127.0,127.0,127.0,127.0,128.0,107.0,127.0,21.0,-112.0,-76.0,127.0,127.0,127.0,117.0,85.0,-71.0
127.0,126.0,127.0,127.0,127.0,128.0,107.0,127.0,21.0,-112.0,-76.0,127.0,127.0,127.0,117.0,85.0,-71.0
127.0,126.0,127.0,127.0,126.0,128.0,107.0,127.0,21.0,-112.0,-76.0,127.0,127.0,127.0,117.0,85.0,-71.0
127.0,126.0,127.0,127.0,127.0,129.0,109.0,127.0,22.0,-112.0,-75.0,127.0,127.0,127.0,117.0,85.0,-71.0
127.0,126.0,127.0,127.0,127.0,129.0,109.0,127.0,22.0,-112.0,-75.0,127.0,127.0,127.0,117.0,85.0,-71.0
127.0,126.0,127.0,127.0,126.0,129.0,109.0,127.0,22.0,-112.0,-75.0,127.0,127.0,127.0,117.0,85.0,-71.0
127.0,127.0,127.0,127.0,127.0,128.0,108.0,127.0,22.0,-112.0,-75.0,127.0,127.0,127.0,117.0,85.0,-71.0
127.0,126.0,127.0,127.0,127.0,128.0,108.0,127.0,22.0,-112.0,-75.0,127.0,127.0,127.0,117.0,85.0,-71.0
127.0,127.0,127.0,127.0,127.0,128.0,108.0,127.0,22.0,-112.0,-75.0,127.0,127.0,127.0,117.0,85.0,-71.0
127.0,127.0,127.0,127.0,126.0,129.0,109.0,127.0,22.0,-112.0,-75.0,127.0,127.0,127.0,117.0,85.0,-71.0
127.0,127.0,127.0,127.0,126.0,129.0,109.0,127.0,22.0,-112.0,-75.0,127.0,127.0,127.0,117.0,85.0,-71.0
127.0,126.0,127.0,127.0,126.0,129.0,109.0,127.0,22.0,-112.0,-75.0,127.0,127.0,127.0,117.0,85.0,-71.0
127.0,126.0,127.0,127.0,126.0,129.0,109.0,127.0,22.0,-112.0,-75.0,127.0,127.0,127.0,117.0,85.0,-71.0
127.0,127.0,127.0,127.0,127.0,129.0,109.0,127.0,22.0,-112.0,-75.0,127.0,127.0,127.0,117.0,85.0,-71.0
127.0,126.0,127.0,127.0,127.0,129.0,109.0,127.0,22.0,-112.0,-75.0,127.0,127.0,127.0,117.0,85.0,-71.0
127.0,127.0,127.0,127.0,127.0,128.0,108.0,127.0,22.0,-112.0,-75.0,127.0,127.0,127.0,117.0,85.0,-71.0
127.0,127.0,127.0,127.0,127.0,128.0,108.0,127.0,22.0,-112.0,-75.0,127.0,127.0,127.0,117.0,85.0,-71.0
126.0,127.0,127.0,127.0,127.0,129.0,109.0,127.0,22.0,-112.0,-75.0,127.0,127.0,127.0,117.0,85.0,-71.0
127.0,127.0,127.0,127.0,127.0,129.0,109.0,127.0,22.0,-112.0,-75.0,127.0,127.0,127.0,117.0,85.0,-71.0
127.0,127.0,127.0,127.0,127.0,129.0,109.0,127.0,22.0,-112.0,-75.0,127.0,127.0,127.0,117.0,85.0,-71.0
127.0,127.0,127.0,127.0,126.0,129.0,109.0,127.0,22.0,-112.0,-75.0,127.0,127.0,127.0,117.0,85.0,-71.0
127.0,127.0,127.0,127.0,127.0,129.0,109.0,127.0,22.0,-112.0,-75.0,127.0,127.0,127.0,117.0,85.0,-71.0
127.0,127.0,127.0,127.0,127.0,129.0,109.0,127.0,22.0,-112.0,-75.0,127.0,127.0,127.0,117.0,85.0,-71.0
127.0,127.0,127.0,127.0,127.0,128.0,108.0,127.0,22.0,-112.0,-75.0,127.0,127.0,127.0,117.0,85.0,-71.0
127.0,127.0,127.0,127.0,127.0,128.0,107.0,127.0,22.0,-112.0,-75.0,127.0,127.0,127.0,117.0,85.0,-71.0
127.0,127.0,127.0,127.0,127.0,128.0,107.0,127.0,22.0,-112.0,-75.0,127.0,127.0,127.0,117.0,85.0,-71.0
127.0,127.0,127.0,127.0,127.0,128.0,107.0,127.0,22.0,-112.0,-75.0,127.0,127.0,127.0,117.0,85.0,-71.0
127.0,127.0,127.0,127.0,127.0,128.0,107.0,127.0,22.0,-112.0,-75.0,127.0,127.0,127.0,117.0,85.0,-71.0
127.0,127.0,127.0,127.0,127.0,128.0,107.0,127.0,22.0,-112.0,-75.0,127.0,127.0,127.0,117.0,85.0,-71.0
127.0,127.0,127.0,127.0,127.0,128.0,107.0,127.0,22.0,-112.0,-75.0,127.0,127.0,127.0,117.0,85.0,-71.0
127.0,127.0,127.0,127.0,127.0,128.0,108.0,127.0,22.0,-112.0,-75.0,127.0,127.0,127.0,117.0,85.0,-71.0
127.0,127.0,127.0,127.0,127.0,129.0,108.0,127.0,22.0,-112.0,-75.0,127.0,127.0,127.0,117.0,85.0,-71.0
127.0,127.0,127.0,127.0,127.0,128.0,108.0,127.0,22.0,-112.0,-75.0,127.0,127.0,127.0,117.0,85.0,-71.0
127.0,127.0,127.0,127.0,127.0,128.0,108.0,127.0,22.0,-112.0,-75.0,127.0,127.0,127.0,117.0,85.0,-71.0
127.0,127.0,127.0,127.0,127.0,128.0,108.0,127.0,22.0,-112.0,-75.0,127.0,127.0,127.0,117.0,85.0,-71.0
127.0,127.0,127.0,127.0,127.0,128.0,108.0,127.0,22.0,-112.0,-75.0,127.0,127.0,127.0,117.0,85.0,-71.0
127.0,127.0,127.0,127.0,127.0,129.0,108.0,127.0,22.0,-112.0,-75.0,127.0,127.0,127.0,117.0,85.0,-71.0
127.0,127.0,127.0,127.0,127.0,129.0,108.0,127.0,22.0,-112.0,-75.0,127.0,127.0,127.0,117.0,85.0,-71.0
127.0,127.0,127.0,127.0,127.0,128.0,108.0,127.0,22.0,-112.0,-75.0,127.0,127.0,127.0,117.0,85.0,-71.0
127.0,127.0,127.0,127.0,127.0,128.0,108.0,127.0,22.0,-112.0,-75.0,127.0,127.0,127.0,117.0,85.0,-71.0
127.0,127.0,127.0,127.0,127.0,128.0,108.0,127.0,22.0,-112.0,-75.0,127.0,127.0,127.0,117.0,85.0,-71.0
127.0,127.0,127.0,127.0,127.0,128.0,109.0,127.0,22.0,-112.0,-75.0,127.0,127.0,127.0,117.0,85.0,-71.0
127.0,127.0,127.0,127.0,127.0,128.0,108.0,127.0,22.0,-112.0,-75.0,127.0,127.0,127.0,117.0,85.0,-71.0
127.0,127.0,127.0,127.0,127.0,128.0,108.0,128.0,22.0,-112.0,-75.0,127.0,127.0,127.0,117.0,85.0,-71.0
127.0,127.0,127.0,127.0,127.0,128.0,108.0,127.0,22.0,-112.0,-75.0,127.0,127.0,127.0,117.0,85.0,-71.0
127.0,127.0,128.0,127.0,127.0,128.0,108.0,128.0,22.0,-112.0,-75.0,127.0,127.0,127.0,117.0,85.0,-71.0
127.0,127.0,128.0,127.0,127.0,128.0,108.0,127.0,22.0,-112.0,-75.0,127.0,127.0,127.0,117.0,85.0,-71.0
127.0,127.0,127.0,127.0,127.0,128.0,108.0,127.0,22.0,-112.0,-75.0,127.0,127.0,127.0,117.0,85.0,-71.0
127.0,127.0,127.0,127.0,127.0,128.0,108.0,128.0,22.0,-112.0,-75.0,127.0,127.0,127.0,117.0,85.0,-71.0
127.0,127.0,127.0,127.0,127.0,128.0,108.0,127.0,22.0,-112.0,-75.0,127.0,127.0,127.0,117.0,85.0,-71.0
127.0,127.0,127.0,127.0,127.0,128.0,108.0,128.0,22.0,-112.0,-75.0,127.0,127.0,127.0,117.0,85.0,-71.0
127.0,126.0,127.0,127.0,126.0,128.0,108.0,128.0,22.0,-112.0,-75.0,127.0,127.0,127.0,117.0,85.0,-71.0
127.0,127.0,127.0,127.0,127.0,128.0,108.0,128.0,22.0,-112.0,-75.0,127.0,127.0,127.0,117.0,85.0,-71.0
127.0,127.0,128.0,127.0,127.0,128.0,107.0,127.0,22.0,-112.0,-74.0,127.0,127.0,127.0,117.0,85.0,-71.0
127.0,127.0,128.0,127.0,127.0,128.0,108.0,127.0,22.0,-112.0,-74.0,127.0,127.0,127.0,117.0,85.0,-71.0
127.0,127.0,128.0,127.0,127.0,128.0,108.0,127.0,22.0,-112.0,-74.0,127.0,127.0,127.0,117.0,85.0,-71.0
127.0,127.0,128.0,127.0,127.0,128.0,108.0,127.0,22.0,-112.0,-74.0,127.0,127.0,127.0,117.0,85.0,-71.0
127.0,127.0,128.0,127.0,127.0,128.0,108.0,127.0,22.0,-112.0,-74.0,127.0,127.0,127.0,117.0,85.0,-71.0
127.0,127.0,128.0,127.0,127.0,128.0,108.0,127.0,22.0,-112.0,-74.0,127.0,127.0,127.0,117.0,85.0,-71.0
127.0,127.0,127.0,127.0,127.0,128.0,108.0,127.0,22.0,-112.0,-74.0,127.0,127.0,127.0,117.0,85.0,-71.0
127.0,126.0,128.0,127.0,127.0,128.0,108.0,127.0,22.0,-112.0,-74.0,127.0,127.0,127.0,117.0,85.0,-71.0
127.0,127.0,128.0,127.0,127.0,128.0,108.0,127.0,22.0,-112.0,-74.0,127.0,127.0,127.0,117.0,85.0,-71.0
127.0,127.0,128.0,127.0,127.0,128.0,107.0,127.0,22.0,-112.0,-74.0,127.0,127.0,127.0,117.0,85.0,-71.0
127.0,127.0,127.0,127.0,127.0,129.0,108.0,127.0,21.0,-112.0,-74.0,127.0,127.0,127.0,117.0,85.0,-71.0
127.0,127.0,128.0,127.0,127.0,129.0,108.0,127.0,21.0,-112.0,-74.0,127.0,127.0,127.0,117.0,85.0,-71.0
127.0,127.0,128.0,127.0,127.0,129.0,109.0,127.0,21.0,-112.0,-74.0,127.0,127.0,127.0,117.0,85.0,-71.0
127.0,127.0,127.0,127.0,127.0,129.0,109.0,127.0,21.0,-112.0,-74.0,127.0,127.0,127.0,117.0,85.0,-71.0
127.0,127.0,127.0,127.0,127.0,129.0,108.0,127.0,21.0,-112.0,-74.0,127.0,127.0,127.0,117.0,85.0,-71.0
127.0,127.0,127.0,127.0,127.0,129.0,109.0,127.0,21.0,-112.0,-74.0,127.0,127.0,127.0,117.0,85.0,-71.0
127.0,127.0,127.0,127.0,127.0,129.0,109.0,127.0,21.0,-112.0,-74.0,127.0,127.0,127.0,117.0,85.0,-71.0
127.0,127.0,128.0,127.0,127.0,128.0,108.0,127.0,21.0,-112.0,-74.0,127.0,127.0,127.0,117.0,85.0,-71.0
127.0,127.0,128.0,127.0,127.0,128.0,108.0,127.0,21.0,-112.0,-74.0,127.0,127.0,127.0,117.0,85.0,-71.0
127.0,127.0,128.0,127.0,127.0,128.0,108.0,127.0,21.0,-112.0,-74.0,127.0,127.0,127.0,117.0,85.0,-71.0
126.0,126.0,127.0,127.0,127.0,128.0,107.0,127.0,21.0,-112.0,-74.0,127.0,127.0,127.0,117.0,85.0,-71.0
126.0,126.0,127.0,127.0,127.0,128.0,107.0,127.0,21.0,-112.0,-74.0,127.0,127.0,127.0,117.0,85.0,-71.0
126.0,126.0,127.0,127.0,127.0,128.0,107.0,127.0,21.0,-112.0,-74.0,127.0,127.0,127.0,117.0,85.0,-71.0
127.0,126.0,127.0,127.0,127.0,128.0,108.0,127.0,21.0,-112.0,-74.0,127.0,127.0,127.0,117.0,85.0,-71.0
126.0,126.0,127.0,127.0,127.0,128.0,108.0,127.0,21.0,-112.0,-74.0,127.0,127.0,127.0,117.0,85.0,-71.0
127.0,126.0,127.0,127.0,127.0,128.0,108.0,127.0,21.0,-112.0,-74.0,127.0,127.0,127.0,117.0,85.0,-71.0
126.0,126.0,127.0,127.0,127.0,128.0,107.0,127.0,21.0,-112.0,-74.0,127.0,127.0,127.0,117.0,85.0,-71.0
127.0,126.0,127.0,127.0,127.0,128.0,107.0,127.0,21.0,-112.0,-74.0,127.0,127.0,127.0,117.0,85.0,-71.0
126.0,126.0,127.0,127.0,127.0,128.0,107.0,127.0,21.0,-112.0,-74.0,127.0,127.0,127.0,117.0,85.0,-71.0
126.0,126.0,127.0,127.0,127.0,128.0,107.0,127.0,21.0,-112.0,-74.0,127.0,127.0,127.0,117.0,85.0,-71.0
127.0,127.0,127.0,127.0,127.0,129.0,108.0,128.0,21.0,-112.0,-74.0,127.0,127.0,127.0,117.0,85.0,-71.0
127.0,127.0,127.0,127.0,127.0,128.0,108.0,128.0,21.0,-112.0,-74.0,127.0,127.0,127.0,117.0,85.0,-71.0
127.0,126.0,127.0,127.0,126.0,128.0,108.0,128.0,21.0,-112.0,-74.0,127.0,127.0,127.0,117.0,85.0,-71.0
127.0,126.0,127.0,127.0,126.0,128.0,108.0,128.0,21.0,-112.0,-74.0,127.0,127.0,127.0,117.0,85.0,-71.0
127.0,126.0,127.0,127.0,126.0,128.0,108.0,128.0,21.0,-112.0,-74.0,127.0,127.0,127.0,117.0,85.0,-71.0
127.0,127.0,127.0,127.0,127.0,128.0,108.0,128.0,21.0,-112.0,-74.0,127.0,127.0,127.0,117.0,85.0,-71.0
127.0,127.0,127.0,127.0,127.0,129.0,108.0,128.0,21.0,-112.0,-74.0,127.0,127.0,127.0,117.0,85.0,-71.0
127.0,127.0,127.0,127.0,127.0,129.0,108.0,128.0,21.0,-112.0,-74.0,127.0,127.0,127.0,117.0,85.0,-71.0
127.0,127.0,127.0,127.0,127.0,128.0,108.0,128.0,21.0,-112.0,-74.0,127.0,127.0,127.0,117.0,85.0,-71.0
127.0,127.0,127.0,127.0,127.0,128.0,108.0,128.0,21.0,-112.0,-74.0,127.0,127.0,127.0,117.0,85.0,-71.0
127.0,127.0,127.0,127.0,127.0,129.0,109.0,128.0,21.0,-112.0,-74.0,127.0,127.0,127.0,117.0,85.0,-71.0
127.0,127.0,127.0,127.0,127.0,129.0,109.0,128.0,21.0,-112.0,-74.0,127.0,127.0,127.0,117.0,85.0,-71.0
127.0,127.0,127.0,127.0,127.0,129.0,109.0,128.0,21.0,-112.0,-74.0,127.0,127.0,127.0,117.0,85.0,-71.0
127.0,126.0,127.0,127.0,127.0,129.0,109.0,128.0,21.0,-112.0,-74.0,127.0,127.0,127.0,117.0,85.0,-71.0
127.0,127.0,127.0,127.0,127.0,128.0,108.0,128.0,21.0,-112.0,-74.0,127.0,127.0,127.0,117.0,85.0,-71.0
127.0,127.0,128.0,128.0,127.0,129.0,109.0,127.0,21.0,-112.0,-74.0,127.0,127.0,127.0,117.0,85.0,-71.0
127.0,127.0,127.0,128.0,127.0,129.0,109.0,128.0,21.0,-112.0,-74.0,127.0,127.0,127.0,117.0,85.0,-71.0
127.0,127.0,127.0,128.0,127.0,129.0,109.0,128.0,21.0,-112.0,-74.0,127.0,127.0,127.0,117.0,85.0,-71.0
127.0,127.0,127.0,127.0,127.0,129.0,109.0,128.0,21.0,-112.0,-74.0,127.0,127.0,127.0,117.0,85.0,-71.0
127.0,127.0,127.0,127.0,127.0,129.0,109.0,128.0,21.0,-112.0,-74.0,127.0,127.0,127.0,117.0,85.0,-71.0
127.0,127.0,127.0,127.0,127.0,129.0,109.0,128.0,21.0,-112.0,-74.0,127.0,127.0,127.0,117.0,85.0,-71.0
127.0,126.0,127.0,127.0,127.0,129.0,109.0,127.0,21.0,-112.0,-74.0,127.0,127.0,127.0,117.0,85.0,-71.0
127.0,126.0,127.0,127.0,127.0,129.0,109.0,128.0,21.0,-112.0,-74.0,127.0,127.0,127.0,117.0,85.0,-71.0
127.0,127.0,127.0,127.0,127.0,128.0,108.0,127.0,21.0,-112.0,-74.0,127.0,127.0,127.0,117.0,85.0,-71.0
127.0,127.0,127.0,127.0,127.0,129.0,109.0,127.0,21.0,-112.0,-74.0,127.0,127.0,127.0,117.0,85.0,-71.0
127.0,127.0,127.0,127.0,127.0,129.0,109.0,127.0,21.0,-112.0,-74.0,127.0,127.0,127.0,117.0,85.0,-71.0
127.0,127.0,127.0,127.0,127.0,129.0,109.0,127.0,21.0,-112.0,-74.0,127.0,127.0,127.0,117.0,85.0,-71.0
127.0,127.0,127.0,127.0,127.0,129.0,109.0,127.0,21.0,-112.0,-74.0,127.0,127.0,127.0,117.0,85.0,-71.0
127.0,127.0,127.0,127.0,127.0,129.0,109.0,127.0,21.0,-112.0,-74.0,127.0,127.0,127.0,117.0,85.0,-71.0
127.0,127.0,127.0,127.0,127.0,129.0,109.0,128.0,21.0,-112.0,-74.0,127.0,127.0,127.0,117.0,85.0,-71.0
127.0,126.0,127.0,127.0,127.0,128.0,109.0,127.0,21.0,-111.0,-74.0,127.0,127.0,127.0,117.0,85.0,-71.0
127.0,126.0,127.0,127.0,127.0,128.0,108.0,127.0,21.0,-111.0,-74.0,127.0,127.0,127.0,117.0,85.0,-71.0
127.0,127.0,127.0,127.0,127.0,128.0,108.0,127.0,21.0,-111.0,-74.0,127.0,127.0,127.0,117.0,85.0,-71.0
127.0,127.0,127.0,127.0,127.0,128.0,108.0,127.0,21.0,-111.0,-74.0,127.0,127.0,127.0,117.0,85.0,-71.0
127.0,127.0,127.0,127.0,127.0,128.0,108.0,127.0,21.0,-111.0,-74.0,127.0,127.0,127.0,117.0,85.0,-71.0
127.0,127.0,127.0,127.0,127.0,128.0,108.0,127.0,21.0,-111.0,-74.0,127.0,127.0,127.0,117.0,85.0,-71.0
127.0,126.0,127.0,127.0,127.0,128.0,108.0,127.0,21.0,-111.0,-74.0,127.0,127.0,127.0,117.0,85.0,-71.0
127.0,127.0,127.0,127.0,127.0,128.0,108.0,127.0,21.0,-111.0,-74.0,127.0,127.0,127.0,117.0,85.0,-71.0
127.0,126.0,127.0,127.0,127.0,128.0,108.0,127.0,21.0,-111.0,-74.0,127.0,127.0,127.0,117.0,85.0,-71.0
127.0,126.0,127.0,127.0,127.0,128.0,109.0,127.0,21.0,-111.0,-74.0,127.0,127.0,127.0,117.0,85.0,-71.0
127.0,127.0,127.0,127.0,127.0,128.0,108.0,127.0,21.0,-111.0,-74.0,127.0,127.0,127.0,117.0,85.0,-71.0
127.0,127.0,127.0,127.0,127.0,128.0,108.0,128.0,21.0,-111.0,-74.0,127.0,127.0,127.0,117.0,85.0,-71.0
127.0,127.0,127.0,127.0,127.0,128.0,108.0,128.0,21.0,-111.0,-74.0,127.0,127.0,127.0,117.0,85.0,-71.0
127.0,127.0,127.0,127.0,127.0,128.0,108.0,128.0,21.0,-111.0,-74.0,127.0,127.0,127.0,117.0,85.0,-71.0
127.0,127.0,127.0,127.0,127.0,128.0,108.0,128.0,21.0,-111.0,-74.0,127.0,127.0,127.0,117.0,85.0,-71.0
127.0,127.0,127.0,127.0,127.0,128.0,108.0,127.0,21.0,-111.0,-74.0,127.0,127.0,127.0,117.0,85.0,-71.0
127.0,127.0,127.0,127.0,127.0,129.0,108.0,127.0,21.0,-111.0,-74.0,127.0,127.0,127.0,117.0,85.0,-71.0
127.0,127.0,127.0,127.0,127.0,128.0,108.0,127.0,21.0,-111.0,-74.0,127.0,127.0,127.0,117.0,85.0,-71.0
127.0,127.0,127.0,127.0,127.0,128.0,108.0,127.0,21.0,-111.0,-74.0,127.0,127.0,127.0,117.0,85.0,-71.0
127.0,127.0,127.0,127.0,127.0,128.0,108.0,127.0,21.0,-111.0,-74.0,127.0,127.0,127.0,117.0,85.0,-71.0
127.0,127.0,128.0,127.0,127.0,129.0,109.0,128.0,21.0,-111.0,-74.0,127.0,127.0,127.0,117.0,85.0,-71.0
127.0,127.0,128.0,127.0,127.0,129.0,109.0,128.0,21.0,-111.0,-74.0,127.0,127.0,127.0,117.0,85.0,-71.0
127.0,127.0,127.0,127.0,127.0,129.0,109.0,128.0,21.0,-111.0,-74.0,127.0,127.0,127.0,117.0,85.0,-71.0
127.0,127.0,128.0,127.0,127.0,129.0,109.0,128.0,21.0,-111.0,-74.0,127.0,127.0,127.0,117.0,85.0,-71.0
127.0,127.0,127.0,127.0,127.0,129.0,109.0,128.0,21.0,-111.0,-74.0,127.0,127.0,127.0,117.0,85.0,-71.0
127.0,127.0,127.0,127.0,127.0,129.0,108.0,128.0,21.0,-111.0,-74.0,127.0,127.0,127.0,117.0,85.0,-71.0
127.0,127.0,127.0,127.0,127.0,129.0,108.0,128.0,21.0,-111.0,-74.0,127.0,127.0,127.0,117.0,85.0,-71.0
127.0,126.0,127.0,127.0,127.0,128.0,108.0,128.0,21.0,-111.0,-74.0,127.0,127.0,127.0,117.0,85.0,-71.0
127.0,126.0,127.0,127.0,127.0,128.0,108.0,128.0,21.0,-111.0,-74.0,127.0,127.0,127.0,117.0,85.0,-71.0
127.0,126.0,127.0,127.0,127.0,128.0,109.0,128.0,21.0,-111.0,-74.0,127.0,127.0,127.0,117.0,85.0,-71.0
127.0,127.0,127.0,127.0,127.0,129.0,108.0,128.0,22.0,-111.0,-74.0,127.0,127.0,127.0,117.0,85.0,-71.0
127.0,127.0,127.0,127.0,127.0,129.0,108.0,127.0,22.0,-111.0,-74.0,127.0,127.0,127.0,117.0,85.0,-71.0
127.0,127.0,127.0,127.0,127.0,129.0,109.0,128.0,22.0,-111.0,-74.0,127.0,127.0,127.0,117.0,85.0,-71.0
127.0,127.0,127.0,127.0,127.0,129.0,109.0,128.0,22.0,-111.0,-74.0,127.0,127.0,127.0,117.0,85.0,-71.0
127.0,127.0,127.0,127.0,127.0,129.0,108.0,128.0,22.0,-111.0,-74.0,127.0,127.0,127.0,117.0,85.0,-71.0
127.0,126.0,127.0,127.0,127.0,129.0,108.0,127.0,22.0,-111.0,-74.0,127.0,127.0,127.0,117.0,85.0,-71.0
126.0,126.0,127.0,127.0,127.0,128.0,108.0,128.0,22.0,-111.0,-74.0,127.0,127.0,127.0,117.0,85.0,-71.0
126.0,126.0,127.0,127.0,127.0,128.0,108.0,127.0,22.0,-111.0,-74.0,127.0,127.0,127.0,117.0,85.0,-71.0
126.0,126.0,127.0,127.0,127.0,128.0,108.0,127.0,22.0,-111.0,-74.0,127.0,127.0,127.0,117.0,85.0,-71.0
127.0,127.0,127.0,127.0,127.0,129.0,109.0,127.0,22.0,-111.0,-74.0,127.0,127.0,127.0,117.0,85.0,-71.0
127.0,127.0,127.0,127.0,127.0,129.0,108.0,128.0,22.0,-111.0,-74.0,127.0,127.0,127.0,117.0,85.0,-71.0
127.0,127.0,127.0,127.0,127.0,129.0,108.0,128.0,22.0,-111.0,-74.0,127.0,127.0,127.0,117.0,85.0,-71.0
127.0,127.0,127.0,127.0,127.0,129.0,108.0,128.0,22.0,-111.0,-74.0,127.0,127.0,127.0,117.0,85.0,-71.0
127.0,127.0,127.0,127.0,127.0,128.0,108.0,128.0,22.0,-111.0,-74.0,127.0,127.0,127.0,117.0,85.0,-71.0
127.0,127.0,127.0,127.0,127.0,129.0,108.0,128.0,22.0,-111.0,-74.0,127.0,127.0,127.0,117.0,85.0,-71.0
127.0,127.0,127.0,127.0,127.0,129.0,108.0,127.0,22.0,-111.0,-74.0,127.0,127.0,127.0,117.0,85.0,-71.0
127.0,127.0,127.0,127.0,127.0,129.0,109.0,127.0,22.0,-111.0,-74.0,127.0,127.0,127.0,117.0,85.0,-71.0
127.0,127.0,127.0,127.0,127.0,129.0,109.0,127.0,22.0,-111.0,-74.0,127.0,127.0,127.0,117.0,85.0,-71.0
127.0,127.0,127.0,127.0,127.0,128.0,107.0,128.0,22.0,-111.0,-74.0,127.0,127.0,127.0,117.0,85.0,-71.0
127.0,127.0,127.0,127.0,127.0,128.0,108.0,127.0,22.0,-111.0,-74.0,127.0,127.0,127.0,117.0,85.0,-71.0
127.0,127.0,127.0,127.0,127.0,128.0,108.0,127.0,22.0,-111.0,-74.0,127.0,127.0,127.0,117.0,85.0,-71.0
127.0,127.0,127.0,127.0,127.0,128.0,108.0,127.0,22.0,-111.0,-74.0,127.0,127.0,127.0,117.0,85.0,-71.0
127.0,127.0,127.0,127.0,127.0,128.0,108.0,127.0,22.0,-111.0,-74.0,127.0,127.0,127.0,117.0,85.0,-71.0
126.0,127.0,127.0,127.0,127.0,128.0,108.0,127.0,22.0,-111.0,-74.0,127.0,127.0,127.0,117.0,85.0,-71.0
126.0,127.0,127.0,127.0,127.0,128.0,108.0,127.0,22.0,-111.0,-74.0,127.0,127.0,127.0,117.0,85.0,-71.0
126.0,126.0,127.0,127.0,127.0,128.0,108.0,127.0,22.0,-111.0,-74.0,127.0,127.0,127.0,117.0,85.0,-71.0
126.0,126.0,127.0,127.0,127.0,128.0,108.0,127.0,22.0,-111.0,-74.0,127.0,127.0,127.0,117.0,85.0,-71.0
127.0,127.0,127.0,127.0,127.0,128.0,107.0,127.0,22.0,-111.0,-74.0,127.0,127.0,127.0,117.0,85.0,-71.0
127.0,127.0,127.0,127.0,127.0,128.0,107.0,127.0,22.0,-111.0,-74.0,127.0,127.0,127.0,117.0,85.0,-71.0
127.0,127.0,127.0,127.0,127.0,128.0,108.0,127.0,22.0,-111.0,-74.0,127.0,127.0,127.0,117.0,85.0,-71.0
127.0,127.0,127.0,127.0,127.0,128.0,109.0,127.0,22.0,-111.0,-74.0,127.0,127.0,127.0,117.0,85.0,-71.0
127.0,127.0,127.0,127.0,127.0,128.0,108.0,127.0,22.0,-111.0,-74.0,127.0,127.0,127.0,117.0,85.0,-71.0
127.0,127.0,127.0,127.0,127.0,128.0,109.0,127.0,22.0,-111.0,-74.0,127.0,127.0,127.0,117.0,85.0,-71.0
127.0,127.0,127.0,127.0,127.0,128.0,109.0,127.0,22.0,-111.0,-74.0,127.0,127.0,127.0,117.0,85.0,-71.0
127.0,126.0,127.0,127.0,127.0,128.0,108.0,127.0,22.0,-111.0,-74.0,127.0,127.0,127.0,117.0,85.0,-71.0
127.0,126.0,127.0,127.0,127.0,128.0,108.0,127.0,22.0,-111.0,-74.0,127.0,127.0,127.0,117.0,85.0,-71.0
127.0,127.0,127.0,127.0,127.0,128.0,107.0,128.0,22.0,-111.0,-74.0,127.0,127.0,127.0,117.0,85.0,-71.0
127.0,127.0,127.0,127.0,127.0,128.0,107.0,127.0,22.0,-111.0,-74.0,127.0,127.0,127.0,117.0,85.0,-71.0
127.0,127.0,127.0,127.0,127.0,128.0,108.0,127.0,22.0,-111.0,-74.0,127.0,127.0,127.0,117.0,85.0,-71.0
127.0,127.0,127.0,127.0,127.0,128.0,108.0,127.0,22.0,-111.0,-74.0,127.0,127.0,127.0,117.0,85.0,-71.0
127.0,127.0,127.0,127.0,127.0,129.0,109.0,127.0,22.0,-111.0,-74.0,127.0,127.0,127.0,117.0,85.0,-71.0
127.0,127.0,127.0,127.0,127.0,129.0,109.0,127.0,22.0,-111.0,-74.0,127.0,127.0,127.0,117.0,85.0,-71.0
127.0,127.0,127.0,127.0,127.0,129.0,108.0,127.0,22.0,-111.0,-74.0,127.0,127.0,127.0,117.0,85.0,-71.0
127.0,127.0,127.0,127.0,127.0,128.0,108.0,127.0,22.0,-111.0,-74.0,127.0,127.0,127.0,117.0,85.0,-71.0
127.0,127.0,128.0,127.0,127.0,128.0,108.0,128.0,22.0,-111.0,-74.0,127.0,127.0,127.0,117.0,85.0,-71.0
127.0,127.0,128.0,127.0,127.0,128.0,108.0,128.0,22.0,-111.0,-74.0,127.0,127.0,127.0,117.0,85.0,-71.0
127.0,127.0,127.0,127.0,127.0,128.0,108.0,128.0,22.0,-111.0,-74.0,127.0,127.0,127.0,117.0,85.0,-71.0
127.0,127.0,127.0,127.0,127.0,128.0,108.0,128.0,22.0,-111.0,-74.0,127.0,127.0,127.0,117.0,85.0,-71.0
127.0,127.0,127.0,127.0,127.0,128.0,108.0,128.0,22.0,-111.0,-74.0,127.0,127.0,127.0,117.0,85.0,-71.0
127.0,127.0,127.0,127.0,127.0,128.0,108.0,127.0,22.0,-111.0,-74.0,127.0,127.0,127.0,117.0,85.0,-71.0
127.0,127.0,128.0,127.0,127.0,128.0,108.0,128.0,22.0,-111.0,-75.0,127.0,127.0,127.0,117.0,85.0,-71.0
127.0,127.0,127.0,127.0,127.0,128.0,108.0,128.0,22.0,-111.0,-75.0,127.0,127.0,127.0,117.0,85.0,-71.0
127.0,127.0,127.0,127.0,127.0,128.0,108.0,128.0,22.0,-111.0,-75.0,127.0,127.0,127.0,117.0,85.0,-71.0
127.0,127.0,127.0,127.0,127.0,128.0,108.0,127.0,22.0,-111.0,-75.0,127.0,127.0,127.0,117.0,85.0,-71.0
127.0,127.0,127.0,127.0,127.0,129.0,108.0,127.0,22.0,-111.0,-75.0,127.0,127.0,127.0,117.0,85.0,-71.0
127.0,127.0,127.0,127.0,127.0,128.0,108.0,127.0,22.0,-111.0,-75.0,127.0,127.0,127.0,117.0,85.0,-71.0
127.0,127.0,127.0,127.0,127.0,128.0,108.0,127.0,22.0,-111.0,-75.0,127.0,127.0,127.0,117.0,85.0,-71.0
127.0,127.0,128.0,127.0,127.0,129.0,108.0,127.0,22.0,-111.0,-75.0,127.0,127.0,127.0,117.0,85.0,-71.0
127.0,127.0,128.0,127.0,127.0,128.0,108.0,128.0,22.0,-111.0,-75.0,127.0,127.0,127.0,117.0,85.0,-71.0
127.0,127.0,128.0,127.0,127.0,128.0,108.0,128.0,22.0,-111.0,-75.0,127.0,127.0,127.0,117.0,85.0,-71.0
127.0,127.0,127.0,127.0,127.0,128.0,108.0,128.0,22.0,-111.0,-75.0,127.0,127.0,127.0,117.0,85.0,-71.0
127.0,127.0,127.0,127.0,127.0,128.0,109.0,128.0,22.0,-111.0,-75.0,127.0,127.0,127.0,117.0,85.0,-71.0
127.0,128.0,127.0,127.0,127.0,129.0,108.0,128.0,22.0,-111.0,-75.0,127.0,127.0,127.0,117.0,85.0,-71.0
127.0,128.0,127.0,127.0,127.0,129.0,108.0,128.0,22.0,-111.0,-75.0,127.0,127.0,127.0,117.0,85.0,-71.0
127.0,127.0,127.0,127.0,127.0,129.0,108.0,128.0,22.0,-111.0,-75.0,127.0,127.0,127.0,117.0,85.0,-71.0
127.0,127.0,127.0,127.0,127.0,128.0,108.0,128.0,22.0,-111.0,-75.0,127.0,127.0,127.0,117.0,85.0,-71.0
127.0,127.0,127.0,127.0,127.0,129.0,108.0,127.0,22.0,-111.0,-75.0,127.0,127.0,127.0,117.0,85.0,-71.0
127.0,127.0,127.0,127.0,127.0,129.0,108.0,128.0,22.0,-111.0,-75.0,127.0,127.0,127.0,117.0,85.0,-71.0
127.0,127.0,127.0,127.0,127.0,128.0,108.0,128.0,22.0,-111.0,-75.0,127.0,127.0,127.0,117.0,85.0,-71.0
127.0,127.0,127.0,127.0,127.0,128.0,108.0,128.0,22.0,-111.0,-75.0,127.0,127.0,127.0,117.0,85.0,-71.0
127.0,127.0,127.0,127.0,127.0,128.0,108.0,128.0,22.0,-111.0,-75.0,127.0,127.0,127.0,117.0,85.0,-71.0
127.0,127.0,127.0,127.0,127.0,129.0,108.0,127.0,22.0,-111.0,-75.0,127.0,127.0,127.0,117.0,85.0,-71.0
127.0,127.0,127.0,127.0,127.0,129.0,108.0,127.0,22.0,-111.0,-75.0,127.0,127.0,127.0,117.0,85.0,-71.0
127.0,127.0,127.0,127.0,127.0,129.0,108.0,128.0,22.0,-111.0,-75.0,127.0,127.0,127.0,117.0,85.0,-71.0
127.0,127.0,127.0,127.0,127.0,129.0,108.0,127.0,22.0,-111.0,-75.0,127.0,127.0,127.0,117.0,85.0,-71.0
127.0,127.0,127.0,127.0,127.0,128.0,108.0,128.0,22.0,-111.0,-75.0,127.0,127.0,127.0,117.0,85.0,-71.0
127.0,127.0,127.0,127.0,127.0,128.0,108.0,128.0,22.0,-111.0,-75.0,127.0,127.0,127.0,117.0,85.0,-71.0
127.0,127.0,127.0,127.0,127.0,128.0,108.0,128.0,22.0,-111.0,-75.0,127.0,127.0,127.0,117.0,85.0,-71.0
127.0,127.0,127.0,127.0,127.0,128.0,108.0,128.0,22.0,-111.0,-75.0,127.0,127.0,127.0,117.0,85.0,-71.0
127.0,127.0,127.0,127.0,127.0,128.0,109.0,128.0,22.0,-111.0,-75.0,127.0,127.0,127.0,117.0,85.0,-71.0
127.0,127.0,127.0,127.0,127.0,129.0,108.0,127.0,22.0,-112.0,-75.0,127.0,127.0,127.0,117.0,85.0,-71.0
127.0,127.0,127.0,127.0,127.0,129.0,109.0,127.0,22.0,-112.0,-75.0,127.0,127.0,127.0,117.0,85.0,-71.0
127.0,127.0,127.0,127.0,127.0,129.0,108.0,127.0,22.0,-112.0,-75.0,127.0,127.0,127.0,117.0,85.0,-71.0
127.0,127.0,127.0,127.0,127.0,129.0,108.0,128.0,22.0,-112.0,-75.0,127.0,127.0,127.0,117.0,85.0,-71.0
127.0,127.0,127.0,127.0,127.0,129.0,108.0,128.0,22.0,-112.0,-75.0,127.0,127.0,127.0,117.0,85.0,-71.0
127.0,127.0,127.0,127.0,127.0,129.0,108.0,128.0,22.0,-112.0,-75.0,127.0,127.0,127.0,117.0,85.0,-71.0
127.0,127.0,127.0,127.0,127.0,129.0,108.0,128.0,22.0,-112.0,-75.0,127.0,127.0,127.0,117.0,85.0,-71.0
127.0,127.0,127.0,127.0,126.0,128.0,108.0,128.0,22.0,-112.0,-75.0,127.0,127.0,127.0,117.0,85.0,-71.0
127.0,127.0,127.0,127.0,127.0,129.0,108.0,128.0,22.0,-112.0,-75.0,127.0,127.0,127.0,117.0,85.0,-71.0
127.0,127.0,127.0,127.0,126.0,128.0,108.0,127.0,22.0,-112.0,-75.0,127.0,127.0,127.0,117.0,85.0,-71.0
127.0,127.0,127.0,127.0,127.0,128.0,108.0,128.0,22.0,-112.0,-75.0,127.0,127.0,127.0,117.0,85.0,-71.0
127.0,127.0,127.0,127.0,127.0,128.0,108.0,128.0,22.0,-112.0,-75.0,127.0,127.0,127.0,117.0,85.0,-71.0
127.0,127.0,127.0,127.0,127.0,129.0,108.0,128.0,22.0,-112.0,-75.0,127.0,127.0,127.0,117.0,85.0,-71.0
127.0,127.0,128.0,127.0,127.0,129.0,109.0,128.0,22.0,-112.0,-75.0,127.0,127.0,127.0,117.0,85.0,-71.0
127.0,127.0,127.0,127.0,127.0,129.0,108.0,128.0,22.0,-112.0,-75.0,127.0,127.0,127.0,117.0,85.0,-71.0
127.0,127.0,128.0,127.0,127.0,129.0,109.0,128.0,22.0,-112.0,-75.0,127.0,127.0,127.0,117.0,85.0,-71.0
127.0,127.0,127.0,127.0,127.0,129.0,109.0,128.0,22.0,-112.0,-75.0,127.0,127.0,127.0,117.0,85.0,-71.0
127.0,127.0,127.0,127.0,127.0,129.0,109.0,128.0,22.0,-112.0,-75.0,127.0,127.0,127.0,117.0,85.0,-71.0
127.0,127.0,127.0,127.0,127.0,129.0,109.0,127.0,22.0,-112.0,-75.0,127.0,127.0,127.0,117.0,85.0,-71.0
127.0,127.0,127.0,127.0,127.0,128.0,108.0,128.0,22.0,-112.0,-75.0,127.0,127.0,127.0,117.0,85.0,-71.0
127.0,127.0,128.0,127.0,127.0,128.0,108.0,128.0,22.0,-111.0,-75.0,127.0,127.0,127.0,117.0,85.0,-71.0
127.0,127.0,128.0,127.0,127.0,128.0,108.0,127.0,22.0,-111.0,-75.0,127.0,127.0,127.0,117.0,85.0,-71.0
127.0,127.0,128.0,127.0,127.0,128.0,108.0,128.0,22.0,-111.0,-75.0,127.0,127.0,127.0,117.0,85.0,-71.0
127.0,127.0,128.0,127.0,127.0,128.0,108.0,128.0,22.0,-111.0,-75.0,127.0,127.0,127.0,117.0,85.0,-71.0
127.0,127.0,127.0,127.0,127.0,128.0,108.0,128.0,22.0,-111.0,-75.0,127.0,127.0,127.0,117.0,85.0,-71.0
127.0,127.0,127.0,127.0,127.0,128.0,107.0,128.0,22.0,-111.0,-75.0,127.0,127.0,127.0,117.0,85.0,-71.0
127.0,127.0,127.0,127.0,127.0,128.0,107.0,128.0,22.0,-111.0,-75.0,127.0,127.0,127.0,117.0,85.0,-71.0
127.0,127.0,127.0,128.0,127.0,128.0,107.0,128.0,22.0,-111.0,-75.0,127.0,127.0,127.0,117.0,85.0,-71.0
127.0,127.0,128.0,127.0,127.0,128.0,107.0,128.0,22.0,-111.0,-75.0,127.0,127.0,127.0,117.0,85.0,-71.0
127.0,127.0,128.0,127.0,127.0,128.0,107.0,128.0,22.0,-111.0,-75.0,127.0,127.0,127.0,117.0,85.0,-71.0
125.0,126.0,126.0,127.0,127.0,113.0,97.0,126.0,22.0,-111.0,-74.0,127.0,127.0,127.0,117.0,85.0,-71.0
125.0,126.0,126.0,126.0,127.0,111.0,96.0,125.0,22.0,-111.0,-74.0,127.0,127.0,127.0,117.0,85.0,-71.0
125.0,126.0,126.0,125.0,127.0,109.0,98.0,125.0,22.0,-111.0,-74.0,127.0,127.0,127.0,117.0,85.0,-71.0
125.0,126.0,126.0,125.0,127.0,108.0,95.0,125.0,22.0,-111.0,-74.0,127.0,127.0,127.0,117.0,85.0,-71.0
125.0,126.0,127.0,125.0,127.0,106.0,93.0,125.0,22.0,-111.0,-74.0,127.0,127.0,127.0,117.0,85.0,-71.0
125.0,126.0,127.0,124.0,127.0,104.0,90.0,125.0,22.0,-111.0,-74.0,127.0,127.0,127.0,117.0,85.0,-71.0
125.0,126.0,127.0,124.0,127.0,102.0,92.0,125.0,22.0,-111.0,-74.0,127.0,127.0,127.0,117.0,85.0,-71.0
126.0,127.0,127.0,128.0,126.0,117.0,103.0,126.0,22.0,-111.0,-74.0,127.0,127.0,127.0,117.0,85.0,-71.0
126.0,127.0,127.0,127.0,127.0,115.0,102.0,126.0,22.0,-111.0,-74.0,127.0,127.0,127.0,117.0,85.0,-71.0
125.0,127.0,127.0,127.0,127.0,114.0,100.0,126.0,22.0,-111.0,-74.0,127.0,127.0,127.0,117.0,85.0,-71.0
126.0,130.0,123.0,118.0,128.0,0.0,22.0,122.0,22.0,-111.0,-74.0,127.0,127.0,127.0,117.0,85.0,-71.0
126.0,130.0,123.0,117.0,128.0,0.0,22.0,121.0,22.0,-111.0,-74.0,127.0,127.0,127.0,117.0,85.0,-71.0
126.0,130.0,123.0,117.0,128.0,0.0,22.0,121.0,22.0,-111.0,-74.0,127.0,127.0,127.0,117.0,85.0,-71.0
126.0,130.0,123.0,117.0,128.0,0.0,22.0,121.0,22.0,-111.0,-74.0,127.0,127.0,127.0,117.0,85.0,-71.0
126.0,129.0,123.0,118.0,128.0,0.0,22.0,121.0,22.0,-111.0,-74.0,127.0,127.0,127.0,117.0,85.0,-71.0
126.0,129.0,124.0,119.0,129.0,0.0,22.0,121.0,22.0,-111.0,-74.0,127.0,127.0,127.0,117.0,85.0,-71.0
126.0,132.0,125.0,120.0,128.0,0.0,22.0,122.0,22.0,-111.0,-74.0,127.0,127.0,127.0,117.0,85.0,-71.0
126.0,131.0,124.0,119.0,128.0,0.0,22.0,122.0,22.0,-111.0,-74.0,127.0,127.0,127.0,117.0,85.0,-71.0
126.0,131.0,124.0,118.0,128.0,0.0,22.0,122.0,22.0,-111.0,-74.0,127.0,127.0,127.0,117.0,85.0,-71.0
126.0,130.0,124.0,118.0,128.0,0.0,22.0,122.0,22.0,-111.0,-74.0,127.0,127.0,127.0,117.0,85.0,-71.0
135.0,140.0,126.0,135.0,149.0,0.0,22.0,129.0,23.0,-110.0,-75.0,-128.0,127.0,127.0,117.0,85.0,-71.0
135.0,140.0,127.0,135.0,149.0,0.0,22.0,128.0,23.0,-110.0,-75.0,-128.0,127.0,127.0,117.0,85.0,-71.0
136.0,139.0,127.0,135.0,150.0,0.0,22.0,128.0,23.0,-110.0,-75.0,-128.0,127.0,127.0,117.0,85.0,-71.0
136.0,138.0,127.0,136.0,150.0,0.0,22.0,128.0,23.0,-110.0,-75.0,-128.0,127.0,127.0,117.0,85.0,-71.0
137.0,137.0,126.0,137.0,151.0,0.0,22.0,128.0,23.0,-110.0,-75.0,-128.0,127.0,127.0,117.0,85.0,-71.0
132.0,137.0,125.0,140.0,147.0,0.0,22.0,128.0,23.0,-110.0,-75.0,-128.0,127.0,127.0,117.0,85.0,-71.0
133.0,138.0,125.0,139.0,148.0,0.0,22.0,128.0,23.0,-110.0,-75.0,-128.0,127.0,127.0,117.0,85.0,-71.0
133.0,138.0,125.0,138.0,148.0,0.0,22.0,128.0,23.0,-110.0,-75.0,-128.0,127.0,127.0,117.0,85.0,-71.0
134.0,139.0,125.0,137.0,148.0,0.0,22.0,129.0,23.0,-110.0,-75.0,-128.0,127.0,127.0,117.0,85.0,-71.0
134.0,139.0,125.0,136.0,149.0,0.0,22.0,129.0,23.0,-110.0,-75.0,-128.0,127.0,127.0,117.0,85.0,-71.0
155.0,141.0,137.0,169.0,184.0,0.0,22.0,160.0,24.0,-110.0,-76.0,-127.0,-128.0,127.0,117.0,85.0,-71.0
155.0,141.0,138.0,169.0,185.0,0.0,22.0,160.0,24.0,-110.0,-76.0,-127.0,-128.0,127.0,117.0,85.0,-71.0
155.0,141.0,138.0,168.0,186.0,0.0,22.0,160.0,24.0,-110.0,-76.0,-127.0,-128.0,127.0,117.0,85.0,-71.0
155.0,142.0,138.0,168.0,186.0,0.0,22.0,160.0,24.0,-110.0,-76.0,-127.0,-128.0,127.0,117.0,85.0,-71.0
156.0,142.0,134.0,171.0,180.0,0.0,22.0,158.0,24.0,-110.0,-76.0,-127.0,-128.0,127.0,117.0,85.0,-71.0
156.0,142.0,134.0,171.0,181.0,0.0,22.0,158.0,24.0,-110.0,-76.0,-127.0,-128.0,127.0,117.0,85.0,-71.0
156.0,141.0,134.0,171.0,182.0,0.0,22.0,159.0,24.0,-110.0,-76.0,-127.0,-128.0,127.0,117.0,85.0,-71.0
156.0,141.0,135.0,170.0,182.0,0.0,22.0,159.0,24.0,-110.0,-76.0,-127.0,-128.0,127.0,117.0,85.0,-71.0
156.0,141.0,136.0,170.0,183.0,0.0,22.0,159.0,24.0,-110.0,-76.0,-127.0,-128.0,127.0,117.0,85.0,-71.0
155.0,141.0,136.0,170.0,184.0,0.0,22.0,159.0,24.0,-110.0,-76.0,-127.0,-128.0,127.0,117.0,85.0,-71.0
121.0,137.0,90.0,133.0,109.0,0.0,22.0,135.0,23.0,-115.0,-75.0,-125.0,-128.0,126.0,117.0,85.0,-71.0
119.0,137.0,90.0,133.0,107.0,0.0,22.0,134.0,23.0,-115.0,-75.0,-125.0,-128.0,126.0,117.0,85.0,-71.0
117.0,137.0,90.0,132.0,106.0,0.0,22.0,133.0,23.0,-115.0,-75.0,-125.0,-128.0,126.0,117.0,85.0,-71.0
131.0,132.0,100.0,137.0,120.0,0.0,22.0,144.0,23.0,-115.0,-75.0,-125.0,-128.0,126.0,117.0,85.0,-71.0
130.0,132.0,99.0,136.0,118.0,0.0,22.0,142.0,23.0,-115.0,-75.0,-125.0,-128.0,126.0,117.0,85.0,-71.0
128.0,132.0,97.0,135.0,116.0,0.0,22.0,141.0,23.0,-115.0,-75.0,-125.0,-128.0,126.0,117.0,85.0,-71.0
127.0,133.0,95.0,135.0,115.0,0.0,22.0,140.0,23.0,-115.0,-75.0,-125.0,-128.0,126.0,117.0,85.0,-71.0
125.0,134.0,93.0,134.0,113.0,0.0,22.0,139.0,23.0,-115.0,-75.0,-125.0,-128.0,126.0,117.0,85.0,-71.0
124.0,135.0,92.0,134.0,112.0,0.0,22.0,138.0,23.0,-115.0,-75.0,-125.0,-128.0,126.0,117.0,85.0,-71.0
122.0,136.0,91.0,133.0,110.0,0.0,22.0,137.0,23.0,-115.0,-75.0,-125.0,-128.0,126.0,117.0,85.0,-71.0
111.0,141.0,95.0,125.0,87.0,254.0,195.0,132.0,21.0,-122.0,-77.0,-123.0,-128.0,126.0,117.0,85.0,-71.0
112.0,142.0,96.0,125.0,88.0,254.0,195.0,133.0,21.0,-122.0,-77.0,-123.0,-128.0,126.0,117.0,85.0,-71.0
106.0,143.0,85.0,122.0,85.0,248.0,185.0,130.0,21.0,-122.0,-77.0,-123.0,-128.0,126.0,117.0,85.0,-71.0
107.0,143.0,87.0,122.0,85.0,254.0,193.0,131.0,21.0,-122.0,-77.0,-123.0,-128.0,126.0,117.0,85.0,-71.0
108.0,143.0,88.0,123.0,86.0,254.0,194.0,131.0,21.0,-122.0,-77.0,-123.0,-128.0,126.0,117.0,85.0,-71.0
108.0,143.0,90.0,123.0,86.0,254.0,194.0,131.0,21.0,-122.0,-77.0,-123.0,-128.0,126.0,117.0,85.0,-71.0
109.0,142.0,92.0,123.0,86.0,254.0,194.0,131.0,21.0,-122.0,-77.0,-123.0,-128.0,126.0,117.0,85.0,-71.0
109.0,142.0,93.0,123.0,86.0,254.0,194.0,131.0,21.0,-122.0,-77.0,-123.0,-128.0,126.0,117.0,85.0,-71.0
110.0,141.0,95.0,124.0,86.0,254.0,195.0,131.0,21.0,-122.0,-77.0,-123.0,-128.0,126.0,117.0,85.0,-71.0
111.0,141.0,95.0,124.0,87.0,254.0,195.0,132.0,21.0,-122.0,-77.0,-123.0,-128.0,126.0,117.0,85.0,-71.0
135.0,130.0,151.0,134.0,109.0,254.0,195.0,138.0,15.0,-119.0,-79.0,-121.0,-128.0,126.0,117.0,85.0,-71.0
136.0,130.0,151.0,133.0,109.0,254.0,194.0,138.0,15.0,-119.0,-79.0,-121.0,-128.0,126.0,117.0,85.0,-71.0
136.0,130.0,150.0,133.0,110.0,254.0,194.0,137.0,15.0,-119.0,-79.0,-121.0,-128.0,126.0,117.0,85.0,-71.0
137.0,130.0,148.0,133.0,111.0,254.0,194.0,137.0,15.0,-119.0,-79.0,-121.0,-128.0,126.0,117.0,85.0,-71.0
137.0,129.0,148.0,133.0,112.0,254.0,195.0,137.0,15.0,-119.0,-79.0,-121.0,-128.0,126.0,117.0,85.0,-71.0
137.0,129.0,148.0,132.0,112.0,254.0,195.0,136.0,15.0,-119.0,-79.0,-121.0,-128.0,126.0,117.0,85.0,-71.0
138.0,128.0,147.0,132.0,113.0,254.0,195.0,135.0,15.0,-119.0,-79.0,-121.0,-128.0,126.0,117.0,85.0,-71.0
138.0,127.0,147.0,131.0,114.0,254.0,194.0,135.0,15.0,-119.0,-79.0,-121.0,-128.0,126.0,117.0,85.0,-71.0
138.0,127.0,148.0,131.0,116.0,254.0,194.0,135.0,15.0,-119.0,-79.0,-121.0,-128.0,126.0,117.0,85.0,-71.0
139.0,127.0,149.0,130.0,117.0,254.0,194.0,135.0,15.0,-119.0,-79.0,-121.0,-128.0,126.0,117.0,85.0,-71.0
144.0,118.0,199.0,141.0,148.0,254.0,194.0,127.0,15.0,-109.0,-77.0,-123.0,127.0,126.0,117.0,85.0,-71.0
145.0,118.0,199.0,141.0,149.0,254.0,194.0,127.0,15.0,-109.0,-77.0,-123.0,127.0,126.0,117.0,85.0,-71.0
145.0,118.0,197.0,140.0,149.0,254.0,195.0,128.0,15.0,-109.0,-77.0,-123.0,127.0,126.0,117.0,85.0,-71.0
145.0,117.0,196.0,139.0,149.0,254.0,194.0,128.0,15.0,-109.0,-77.0,-123.0,127.0,126.0,117.0,85.0,-71.0
145.0,118.0,194.0,138.0,148.0,254.0,194.0,128.0,15.0,-109.0,-77.0,-123.0,127.0,126.0,117.0,85.0,-71.0
146.0,118.0,193.0,137.0,148.0,254.0,194.0,128.0,15.0,-109.0,-77.0,-123.0,127.0,126.0,117.0,85.0,-71.0
146.0,118.0,192.0,137.0,148.0,254.0,194.0,128.0,15.0,-109.0,-77.0,-123.0,127.0,126.0,117.0,85.0,-71.0
146.0,118.0,191.0,137.0,148.0,254.0,194.0,128.0,15.0,-109.0,-77.0,-123.0,127.0,126.0,117.0,85.0,-71.0
146.0,118.0,190.0,136.0,147.0,254.0,195.0,128.0,15.0,-109.0,-77.0,-123.0,127.0,126.0,117.0,85.0,-71.0
144.0,117.0,200.0,141.0,148.0,254.0,194.0,127.0,15.0,-109.0,-77.0,-123.0,127.0,126.0,117.0,85.0,-71.0
142.0,127.0,115.0,112.0,122.0,254.0,194.0,130.0,18.0,-104.0,-75.0,-125.0,127.0,126.0,116.0,85.0,-71.0
141.0,127.0,113.0,112.0,122.0,254.0,194.0,130.0,18.0,-104.0,-75.0,-125.0,127.0,126.0,116.0,85.0,-71.0
141.0,127.0,112.0,112.0,122.0,254.0,194.0,131.0,18.0,-104.0,-75.0,-125.0,127.0,126.0,116.0,85.0,-71.0
141.0,128.0,112.0,111.0,121.0,254.0,195.0,131.0,18.0,-104.0,-75.0,-125.0,127.0,126.0,116.0,85.0,-71.0
141.0,129.0,113.0,111.0,121.0,254.0,194.0,132.0,18.0,-104.0,-75.0,-125.0,127.0,126.0,116.0,85.0,-71.0
141.0,130.0,114.0,111.0,121.0,254.0,194.0,132.0,18.0,-104.0,-75.0,-125.0,127.0,126.0,116.0,85.0,-71.0
141.0,131.0,115.0,110.0,121.0,254.0,194.0,132.0,18.0,-104.0,-75.0,-125.0,127.0,126.0,116.0,85.0,-71.0
141.0,131.0,115.0,110.0,121.0,254.0,195.0,133.0,18.0,-104.0,-75.0,-125.0,127.0,126.0,116.0,85.0,-71.0
142.0,127.0,117.0,113.0,122.0,254.0,194.0,130.0,18.0,-104.0,-75.0,-125.0,127.0,126.0,116.0,85.0,-71.0
142.0,127.0,116.0,113.0,122.0,254.0,194.0,130.0,18.0,-104.0,-75.0,-125.0,127.0,126.0,116.0,85.0,-71.0
134.0,137.0,103.0,112.0,109.0,254.0,194.0,133.0,17.0,-107.0,-74.0,-126.0,127.0,126.0,116.0,85.0,-71.0
134.0,135.0,100.0,112.0,109.0,254.0,195.0,133.0,17.0,-107.0,-74.0,-126.0,127.0,126.0,116.0,85.0,-71.0
134.0,133.0,97.0,111.0,109.0,254.0,195.0,133.0,17.0,-107.0,-74.0,-126.0,127.0,126.0,116.0,85.0,-71.0
134.0,131.0,96.0,111.0,109.0,254.0,195.0,133.0,17.0,-107.0,-74.0,-126.0,127.0,126.0,116.0,85.0,-71.0
133.0,130.0,95.0,110.0,108.0,254.0,194.0,133.0,17.0,-107.0,-74.0,-126.0,127.0,126.0,116.0,85.0,-71.0
133.0,130.0,95.0,110.0,108.0,254.0,194.0,132.0,17.0,-107.0,-74.0,-126.0,127.0,126.0,116.0,85.0,-71.0
133.0,129.0,95.0,110.0,108.0,254.0,194.0,132.0,17.0,-107.0,-74.0,-126.0,127.0,126.0,116.0,85.0,-71.0
134.0,139.0,103.0,112.0,110.0,254.0,194.0,134.0,17.0,-107.0,-74.0,-126.0,127.0,126.0,116.0,85.0,-71.0
134.0,139.0,105.0,112.0,110.0,254.0,194.0,133.0,17.0,-107.0,-74.0,-126.0,127.0,126.0,116.0,85.0,-71.0
134.0,139.0,105.0,112.0,110.0,254.0,194.0,133.0,17.0,-107.0,-74.0,-126.0,127.0,126.0,116.0,85.0,-71.0
135.0,131.0,118.0,116.0,113.0,254.0,195.0,132.0,17.0,-111.0,-75.0,-125.0,127.0,126.0,116.0,85.0,-72.0
135.0,131.0,118.0,116.0,113.0,254.0,195.0,132.0,17.0,-111.0,-75.0,-125.0,127.0,126.0,116.0,85.0,-72.0
135.0,131.0,119.0,116.0,113.0,254.0,194.0,131.0,17.0,-111.0,-75.0,-125.0,127.0,126.0,116.0,85.0,-72.0
135.0,130.0,120.0,116.0,114.0,254.0,195.0,131.0,17.0,-111.0,-75.0,-125.0,127.0,126.0,116.0,85.0,-72.0
135.0,130.0,120.0,116.0,114.0,254.0,194.0,130.0,17.0,-111.0,-75.0,-125.0,127.0,126.0,116.0,85.0,-72.0
135.0,130.0,121.0,116.0,114.0,254.0,194.0,130.0,17.0,-111.0,-75.0,-125.0,127.0,126.0,116.0,85.0,-72.0
135.0,131.0,118.0,116.0,113.0,254.0,195.0,131.0,17.0,-111.0,-75.0,-125.0,127.0,126.0,116.0,85.0,-72.0
135.0,131.0,118.0,116.0,113.0,254.0,194.0,131.0,17.0,-111.0,-75.0,-125.0,127.0,126.0,116.0,85.0,-72.0
135.0,131.0,118.0,116.0,113.0,254.0,194.0,131.0,17.0,-111.0,-75.0,-125.0,127.0,126.0,116.0,85.0,-72.0
135.0,131.0,118.0,116.0,113.0,254.0,194.0,132.0,17.0,-111.0,-75.0,-125.0,127.0,126.0,116.0,85.0,-72.0
134.0,130.0,123.0,118.0,121.0,254.0,195.0,131.0,17.0,-109.0,-78.0,-126.0,127.0,126.0,116.0,85.0,-72.0
134.0,130.0,123.0,118.0,121.0,254.0,195.0,131.0,17.0,-109.0,-78.0,-126.0,127.0,126.0,116.0,85.0,-72.0
134.0,130.0,123.0,119.0,121.0,254.0,195.0,132.0,17.0,-109.0,-78.0,-126.0,127.0,126.0,116.0,85.0,-72.0
134.0,130.0,123.0,119.0,121.0,254.0,194.0,132.0,17.0,-109.0,-78.0,-126.0,127.0,126.0,116.0,85.0,-72.0
134.0,130.0,123.0,120.0,121.0,254.0,194.0,132.0,17.0,-109.0,-78.0,-126.0,127.0,126.0,116.0,85.0,-72.0
134.0,131.0,123.0,117.0,119.0,254.0,195.0,130.0,17.0,-109.0,-78.0,-126.0,127.0,126.0,116.0,85.0,-72.0
134.0,130.0,124.0,117.0,119.0,254.0,195.0,130.0,17.0,-109.0,-78.0,-126.0,127.0,126.0,116.0,85.0,-72.0
134.0,130.0,124.0,117.0,119.0,254.0,194.0,130.0,17.0,-109.0,-78.0,-126.0,127.0,126.0,116.0,85.0,-72.0
134.0,130.0,124.0,117.0,119.0,254.0,194.0,130.0,17.0,-109.0,-78.0,-126.0,127.0,126.0,116.0,85.0,-72.0
134.0,130.0,123.0,117.0,120.0,254.0,194.0,130.0,17.0,-109.0,-78.0,-126.0,127.0,126.0,116.0,85.0,-72.0
133.0,129.0,125.0,120.0,117.0,254.0,195.0,131.0,17.0,-107.0,-81.0,-126.0,127.0,127.0,116.0,85.0,-72.0
133.0,129.0,126.0,120.0,117.0,254.0,195.0,131.0,17.0,-107.0,-81.0,-126.0,127.0,127.0,116.0,85.0,-72.0
133.0,129.0,126.0,120.0,117.0,254.0,194.0,130.0,17.0,-107.0,-81.0,-126.0,127.0,127.0,116.0,85.0,-72.0
133.0,128.0,126.0,120.0,117.0,254.0,195.0,129.0,17.0,-107.0,-81.0,-126.0,127.0,127.0,116.0,85.0,-72.0
133.0,128.0,120.0,121.0,116.0,254.0,195.0,131.0,17.0,-107.0,-81.0,-126.0,127.0,127.0,116.0,85.0,-72.0
133.0,128.0,120.0,121.0,117.0,254.0,195.0,131.0,17.0,-107.0,-81.0,-126.0,127.0,127.0,116.0,85.0,-72.0
133.0,128.0,119.0,121.0,117.0,254.0,194.0,131.0,17.0,-107.0,-81.0,-126.0,127.0,127.0,116.0,85.0,-72.0
133.0,128.0,120.0,120.0,117.0,254.0,194.0,131.0,17.0,-107.0,-81.0,-126.0,127.0,127.0,116.0,85.0,-72.0
133.0,128.0,122.0,120.0,117.0,254.0,195.0,131.0,17.0,-107.0,-81.0,-126.0,127.0,127.0,116.0,85.0,-72.0
133.0,128.0,123.0,121.0,117.0,254.0,195.0,131.0,17.0,-107.0,-81.0,-126.0,127.0,127.0,116.0,85.0,-72.0
131.0,128.0,124.0,121.0,116.0,254.0,195.0,131.0,17.0,-105.0,-85.0,-127.0,127.0,127.0,115.0,85.0,-72.0
131.0,128.0,124.0,121.0,116.0,254.0,194.0,131.0,17.0,-105.0,-85.0,-127.0,127.0,127.0,115.0,85.0,-72.0
131.0,128.0,124.0,120.0,116.0,254.0,194.0,132.0,17.0,-105.0,-85.0,-127.0,127.0,127.0,115.0,85.0,-72.0
132.0,128.0,128.0,121.0,115.0,254.0,194.0,134.0,17.0,-105.0,-85.0,-127.0,127.0,127.0,115.0,85.0,-72.0
132.0,127.0,127.0,121.0,116.0,254.0,195.0,134.0,17.0,-105.0,-85.0,-127.0,127.0,127.0,115.0,85.0,-72.0
132.0,127.0,127.0,121.0,116.0,254.0,194.0,133.0,17.0,-105.0,-85.0,-127.0,127.0,127.0,115.0,85.0,-72.0
131.0,127.0,126.0,121.0,116.0,254.0,195.0,132.0,17.0,-105.0,-85.0,-127.0,127.0,127.0,115.0,85.0,-72.0
131.0,127.0,125.0,121.0,116.0,254.0,195.0,132.0,17.0,-105.0,-85.0,-127.0,127.0,127.0,115.0,85.0,-72.0
131.0,127.0,124.0,121.0,116.0,254.0,195.0,131.0,17.0,-105.0,-85.0,-127.0,127.0,127.0,115.0,85.0,-72.0
131.0,127.0,124.0,121.0,116.0,254.0,194.0,131.0,17.0,-105.0,-85.0,-127.0,127.0,127.0,115.0,85.0,-72.0
131.0,128.0,123.0,121.0,119.0,214.0,170.0,130.0,17.0,-105.0,-87.0,-127.0,127.0,127.0,114.0,84.0,-72.0
131.0,128.0,123.0,121.0,120.0,212.0,170.0,129.0,17.0,-105.0,-87.0,-127.0,127.0,127.0,114.0,84.0,-72.0
131.0,129.0,125.0,121.0,117.0,227.0,177.0,129.0,17.0,-105.0,-87.0,-127.0,127.0,127.0,114.0,84.0,-72.0
131.0,129.0,125.0,121.0,118.0,225.0,175.0,129.0,17.0,-105.0,-87.0,-127.0,127.0,127.0,114.0,84.0,-72.0
131.0,129.0,124.0,121.0,118.0,224.0,173.0,130.0,17.0,-105.0,-87.0,-127.0,127.0,127.0,114.0,84.0,-72.0
131.0,128.0,124.0,121.0,118.0,222.0,174.0,130.0,17.0,-105.0,-87.0,-127.0,127.0,127.0,114.0,84.0,-72.0
131.0,128.0,124.0,121.0,118.0,220.0,175.0,130.0,17.0,-105.0,-87.0,-127.0,127.0,127.0,114.0,84.0,-72.0
131.0,128.0,123.0,121.0,119.0,219.0,173.0,130.0,17.0,-105.0,-87.0,-127.0,127.0,127.0,114.0,84.0,-72.0
131.0,128.0,123.0,121.0,119.0,217.0,170.0,130.0,17.0,-105.0,-87.0,-127.0,127.0,127.0,114.0,84.0,-72.0
131.0,128.0,123.0,121.0,119.0,216.0,168.0,130.0,17.0,-105.0,-87.0,-127.0,127.0,127.0,114.0,84.0,-72.0
132.0,129.0,129.0,123.0,123.0,170.0,142.0,128.0,17.0,-104.0,-88.0,-127.0,127.0,127.0,113.0,84.0,-72.0
132.0,129.0,131.0,123.0,123.0,170.0,141.0,128.0,17.0,-104.0,-88.0,-127.0,127.0,127.0,113.0,84.0,-72.0
132.0,129.0,132.0,123.0,123.0,169.0,140.0,127.0,17.0,-104.0,-88.0,-127.0,127.0,127.0,113.0,84.0,-72.0
132.0,130.0,131.0,123.0,123.0,168.0,139.0,128.0,17.0,-104.0,-88.0,-127.0,127.0,127.0,113.0,84.0,-72.0
132.0,130.0,130.0,122.0,123.0,168.0,138.0,128.0,17.0,-104.0,-88.0,-127.0,127.0,127.0,113.0,84.0,-72.0
132.0,130.0,129.0,121.0,123.0,167.0,137.0,128.0,17.0,-104.0,-88.0,-127.0,127.0,127.0,113.0,84.0,-72.0
132.0,130.0,128.0,121.0,124.0,167.0,137.0,129.0,17.0,-104.0,-88.0,-127.0,127.0,127.0,113.0,84.0,-72.0
132.0,129.0,127.0,121.0,124.0,166.0,142.0,129.0,17.0,-104.0,-88.0,-127.0,127.0,127.0,113.0,84.0,-72.0
132.0,129.0,126.0,122.0,124.0,166.0,142.0,129.0,17.0,-104.0,-88.0,-127.0,127.0,127.0,113.0,84.0,-72.0
132.0,128.0,124.0,123.0,124.0,165.0,141.0,129.0,17.0,-104.0,-88.0,-127.0,127.0,127.0,113.0,84.0,-72.0
132.0,127.0,130.0,124.0,126.0,154.0,130.0,131.0,17.0,-103.0,-89.0,-127.0,127.0,127.0,113.0,84.0,-72.0
132.0,127.0,130.0,124.0,126.0,154.0,129.0,131.0,17.0,-103.0,-89.0,-127.0,127.0,127.0,113.0,84.0,-72.0
132.0,127.0,129.0,124.0,126.0,154.0,129.0,131.0,17.0,-103.0,-89.0,-127.0,127.0,127.0,113.0,84.0,-72.0
132.0,127.0,129.0,124.0,126.0,154.0,129.0,131.0,17.0,-103.0,-89.0,-127.0,127.0,127.0,113.0,84.0,-72.0
132.0,127.0,129.0,124.0,126.0,154.0,128.0,131.0,17.0,-103.0,-89.0,-127.0,127.0,127.0,113.0,84.0,-72.0
132.0,127.0,129.0,124.0,127.0,153.0,128.0,130.0,17.0,-103.0,-89.0,-127.0,127.0,127.0,113.0,84.0,-72.0
132.0,127.0,129.0,124.0,127.0,153.0,128.0,130.0,17.0,-103.0,-89.0,-127.0,127.0,127.0,113.0,84.0,-72.0
132.0,127.0,128.0,123.0,127.0,153.0,128.0,130.0,17.0,-103.0,-89.0,-127.0,127.0,127.0,113.0,84.0,-72.0
132.0,127.0,128.0,123.0,127.0,153.0,128.0,130.0,17.0,-103.0,-89.0,-127.0,127.0,127.0,113.0,84.0,-72.0
131.0,127.0,129.0,124.0,125.0,154.0,129.0,131.0,17.0,-103.0,-89.0,-127.0,127.0,127.0,113.0,84.0,-72.0
131.0,128.0,124.0,124.0,127.0,150.0,131.0,130.0,17.0,-102.0,-89.0,-128.0,127.0,127.0,112.0,84.0,-72.0
131.0,128.0,124.0,124.0,127.0,150.0,131.0,130.0,17.0,-102.0,-89.0,-128.0,127.0,127.0,112.0,84.0,-72.0
131.0,127.0,125.0,123.0,127.0,150.0,131.0,130.0,17.0,-102.0,-89.0,-128.0,127.0,127.0,112.0,84.0,-72.0
131.0,127.0,125.0,123.0,127.0,150.0,131.0,129.0,17.0,-102.0,-89.0,-128.0,127.0,127.0,112.0,84.0,-72.0
131.0,127.0,124.0,123.0,127.0,150.0,130.0,129.0,17.0,-102.0,-89.0,-128.0,127.0,127.0,112.0,84.0,-72.0
131.0,127.0,124.0,123.0,127.0,150.0,130.0,129.0,17.0,-102.0,-89.0,-128.0,127.0,127.0,112.0,84.0,-72.0
131.0,127.0,124.0,123.0,127.0,150.0,130.0,130.0,17.0,-102.0,-89.0,-128.0,127.0,127.0,112.0,84.0,-72.0
131.0,127.0,124.0,123.0,127.0,150.0,130.0,130.0,17.0,-102.0,-89.0,-128.0,127.0,127.0,112.0,84.0,-72.0
131.0,128.0,123.0,124.0,127.0,150.0,131.0,131.0,17.0,-102.0,-89.0,-128.0,127.0,127.0,112.0,84.0,-72.0
131.0,128.0,123.0,123.0,127.0,150.0,131.0,130.0,17.0,-102.0,-89.0,-128.0,127.0,127.0,112.0,84.0,-72.0
131.0,128.0,128.0,125.0,128.0,149.0,129.0,129.0,17.0,-102.0,-88.0,-128.0,127.0,127.0,111.0,84.0,-72.0
131.0,128.0,128.0,125.0,128.0,149.0,129.0,128.0,17.0,-102.0,-88.0,-128.0,127.0,127.0,111.0,84.0,-72.0
131.0,128.0,127.0,125.0,128.0,149.0,129.0,128.0,17.0,-102.0,-88.0,-128.0,127.0,127.0,111.0,84.0,-72.0
131.0,128.0,127.0,125.0,128.0,149.0,129.0,127.0,17.0,-102.0,-88.0,-128.0,127.0,127.0,111.0,84.0,-72.0
131.0,128.0,126.0,125.0,128.0,149.0,129.0,127.0,17.0,-102.0,-88.0,-128.0,127.0,127.0,111.0,84.0,-72.0
131.0,128.0,126.0,125.0,128.0,149.0,129.0,127.0,17.0,-102.0,-88.0,-128.0,127.0,127.0,111.0,84.0,-72.0
131.0,128.0,126.0,125.0,128.0,149.0,129.0,127.0,17.0,-102.0,-88.0,-128.0,127.0,127.0,111.0,84.0,-72.0
131.0,128.0,128.0,125.0,128.0,149.0,129.0,129.0,17.0,-102.0,-88.0,-128.0,127.0,127.0,111.0,84.0,-72.0
131.0,128.0,128.0,125.0,128.0,149.0,129.0,129.0,17.0,-102.0,-88.0,-128.0,127.0,127.0,111.0,84.0,-72.0
131.0,128.0,128.0,125.0,128.0,149.0,129.0,129.0,17.0,-102.0,-88.0,-128.0,127.0,127.0,111.0,84.0,-72.0
131.0,127.0,123.0,124.0,128.0,149.0,128.0,132.0,17.0,-102.0,-89.0,-128.0,127.0,127.0,111.0,84.0,-72.0
131.0,127.0,123.0,124.0,128.0,149.0,128.0,133.0,17.0,-102.0,-89.0,-128.0,127.0,127.0,111.0,84.0,-72.0
131.0,127.0,123.0,124.0,128.0,149.0,128.0,133.0,17.0,-102.0,-89.0,-128.0,127.0,127.0,111.0,84.0,-72.0
131.0,127.0,123.0,124.0,128.0,149.0,128.0,133.0,17.0,-102.0,-89.0,-128.0,127.0,127.0,111.0,84.0,-72.0
131.0,127.0,124.0,124.0,128.0,149.0,128.0,132.0,17.0,-102.0,-89.0,-128.0,127.0,127.0,111.0,84.0,-72.0
131.0,127.0,127.0,125.0,128.0,149.0,128.0,132.0,17.0,-102.0,-89.0,-128.0,127.0,127.0,111.0,84.0,-72.0
131.0,127.0,123.0,124.0,128.0,149.0,128.0,131.0,17.0,-102.0,-89.0,-128.0,127.0,127.0,111.0,84.0,-72.0
131.0,127.0,123.0,124.0,129.0,149.0,128.0,131.0,17.0,-102.0,-89.0,-128.0,127.0,127.0,111.0,84.0,-72.0
131.0,127.0,123.0,124.0,128.0,149.0,128.0,132.0,17.0,-102.0,-89.0,-128.0,127.0,127.0,111.0,84.0,-72.0
131.0,127.0,123.0,124.0,128.0,149.0,128.0,132.0,17.0,-102.0,-89.0,-128.0,127.0,127.0,111.0,84.0,-72.0
131.0,127.0,132.0,125.0,129.0,149.0,128.0,129.0,17.0,-101.0,-89.0,-128.0,127.0,127.0,110.0,84.0,-72.0
131.0,127.0,133.0,125.0,128.0,149.0,128.0,129.0,17.0,-101.0,-89.0,-128.0,127.0,127.0,110.0,84.0,-72.0
131.0,127.0,133.0,125.0,128.0,149.0,128.0,129.0,17.0,-101.0,-89.0,-128.0,127.0,127.0,110.0,84.0,-72.0
131.0,127.0,132.0,125.0,128.0,149.0,128.0,129.0,17.0,-101.0,-89.0,-128.0,127.0,127.0,110.0,84.0,-72.0
131.0,127.0,132.0,124.0,127.0,149.0,128.0,129.0,17.0,-101.0,-89.0,-128.0,127.0,127.0,110.0,84.0,-72.0
131.0,127.0,130.0,126.0,130.0,149.0,127.0,130.0,17.0,-101.0,-89.0,-128.0,127.0,127.0,110.0,84.0,-72.0
131.0,127.0,130.0,126.0,130.0,148.0,127.0,130.0,17.0,-101.0,-89.0,-128.0,127.0,127.0,110.0,84.0,-72.0
131.0,127.0,131.0,125.0,129.0,149.0,127.0,130.0,17.0,-101.0,-89.0,-128.0,127.0,127.0,110.0,84.0,-72.0
131.0,127.0,132.0,125.0,129.0,148.0,127.0,130.0,17.0,-101.0,-89.0,-128.0,127.0,127.0,110.0,84.0,-72.0
131.0,127.0,132.0,125.0,129.0,149.0,128.0,129.0,17.0,-101.0,-89.0,-128.0,127.0,127.0,110.0,84.0,-72.0
131.0,127.0,126.0,123.0,128.0,148.0,128.0,129.0,17.0,-101.0,-88.0,127.0,127.0,127.0,109.0,84.0,-72.0
131.0,127.0,125.0,123.0,128.0,148.0,127.0,129.0,17.0,-101.0,-88.0,127.0,127.0,127.0,109.0,84.0,-72.0
131.0,127.0,125.0,124.0,128.0,149.0,127.0,129.0,17.0,-101.0,-88.0,127.0,127.0,127.0,109.0,84.0,-72.0
131.0,127.0,124.0,124.0,128.0,148.0,127.0,129.0,17.0,-101.0,-88.0,127.0,127.0,127.0,109.0,84.0,-72.0
131.0,127.0,126.0,123.0,127.0,148.0,127.0,131.0,17.0,-101.0,-88.0,127.0,127.0,127.0,109.0,84.0,-72.0
131.0,127.0,127.0,123.0,127.0,148.0,127.0,130.0,17.0,-101.0,-88.0,127.0,127.0,127.0,109.0,84.0,-72.0
131.0,127.0,128.0,123.0,127.0,148.0,127.0,130.0,17.0,-101.0,-88.0,127.0,127.0,127.0,109.0,84.0,-72.0
131.0,127.0,128.0,123.0,127.0,148.0,127.0,130.0,17.0,-101.0,-88.0,127.0,127.0,127.0,109.0,84.0,-72.0
131.0,127.0,128.0,123.0,127.0,148.0,128.0,130.0,17.0,-101.0,-88.0,127.0,127.0,127.0,109.0,84.0,-72.0
131.0,127.0,127.0,123.0,127.0,148.0,128.0,130.0,17.0,-101.0,-88.0,127.0,127.0,127.0,109.0,84.0,-72.0
130.0,127.0,128.0,125.0,126.0,148.0,127.0,130.0,16.0,-101.0,-88.0,127.0,127.0,127.0,108.0,84.0,-72.0
131.0,127.0,129.0,125.0,126.0,148.0,127.0,130.0,16.0,-101.0,-88.0,127.0,127.0,127.0,108.0,84.0,-72.0
130.0,127.0,130.0,125.0,127.0,148.0,127.0,130.0,16.0,-101.0,-88.0,127.0,127.0,127.0,108.0,84.0,-72.0
130.0,127.0,121.0,122.0,127.0,148.0,126.0,130.0,16.0,-101.0,-88.0,127.0,127.0,127.0,108.0,84.0,-72.0
130.0,127.0,121.0,122.0,127.0,148.0,127.0,130.0,16.0,-101.0,-88.0,127.0,127.0,127.0,108.0,84.0,-72.0
130.0,127.0,122.0,122.0,126.0,148.0,127.0,130.0,16.0,-101.0,-88.0,127.0,127.0,127.0,108.0,84.0,-72.0
130.0,127.0,124.0,123.0,126.0,148.0,127.0,130.0,16.0,-101.0,-88.0,127.0,127.0,127.0,108.0,84.0,-72.0
130.0,127.0,125.0,124.0,126.0,148.0,127.0,130.0,16.0,-101.0,-88.0,127.0,127.0,127.0,108.0,84.0,-72.0
130.0,127.0,126.0,124.0,126.0,148.0,127.0,130.0,16.0,-101.0,-88.0,127.0,127.0,127.0,108.0,84.0,-72.0
130.0,127.0,127.0,124.0,126.0,148.0,127.0,130.0,16.0,-101.0,-88.0,127.0,127.0,127.0,108.0,84.0,-72.0
130.0,126.0,129.0,126.0,128.0,148.0,127.0,130.0,16.0,-101.0,-88.0,127.0,127.0,127.0,108.0,84.0,-72.0
130.0,126.0,130.0,126.0,128.0,148.0,127.0,130.0,16.0,-101.0,-88.0,127.0,127.0,127.0,108.0,84.0,-72.0
130.0,126.0,123.0,125.0,128.0,148.0,127.0,131.0,16.0,-101.0,-88.0,127.0,127.0,127.0,108.0,84.0,-72.0
130.0,126.0,123.0,125.0,128.0,148.0,127.0,131.0,16.0,-101.0,-88.0,127.0,127.0,127.0,108.0,84.0,-72.0
130.0,126.0,122.0,124.0,128.0,148.0,127.0,131.0,16.0,-101.0,-88.0,127.0,127.0,127.0,108.0,84.0,-72.0
130.0,126.0,123.0,124.0,128.0,148.0,127.0,131.0,16.0,-101.0,-88.0,127.0,127.0,127.0,108.0,84.0,-72.0
130.0,126.0,123.0,124.0,128.0,148.0,127.0,131.0,16.0,-101.0,-88.0,127.0,127.0,127.0,108.0,84.0,-72.0
130.0,126.0,125.0,124.0,128.0,148.0,127.0,131.0,16.0,-101.0,-88.0,127.0,127.0,127.0,108.0,84.0,-72.0
130.0,127.0,127.0,125.0,128.0,148.0,127.0,131.0,16.0,-101.0,-88.0,127.0,127.0,127.0,108.0,84.0,-72.0
130.0,126.0,128.0,125.0,128.0,148.0,127.0,130.0,16.0,-101.0,-88.0,127.0,127.0,127.0,108.0,84.0,-72.0
130.0,127.0,129.0,126.0,128.0,148.0,127.0,129.0,16.0,-101.0,-88.0,127.0,127.0,127.0,107.0,84.0,-72.0
130.0,127.0,128.0,125.0,128.0,148.0,127.0,130.0,16.0,-101.0,-88.0,127.0,127.0,127.0,107.0,84.0,-72.0
130.0,127.0,128.0,125.0,128.0,148.0,127.0,130.0,16.0,-101.0,-88.0,127.0,127.0,127.0,107.0,84.0,-72.0
130.0,127.0,128.0,125.0,128.0,148.0,127.0,130.0,16.0,-101.0,-88.0,127.0,127.0,127.0,107.0,84.0,-72.0
130.0,127.0,128.0,125.0,128.0,148.0,128.0,130.0,16.0,-101.0,-88.0,127.0,127.0,127.0,107.0,84.0,-72.0
130.0,127.0,128.0,125.0,128.0,148.0,128.0,130.0,16.0,-101.0,-88.0,127.0,127.0,127.0,107.0,84.0,-72.0
130.0,127.0,128.0,125.0,129.0,148.0,127.0,130.0,16.0,-101.0,-88.0,127.0,127.0,127.0,107.0,84.0,-72.0
130.0,127.0,128.0,125.0,129.0,148.0,127.0,130.0,16.0,-101.0,-88.0,127.0,127.0,127.0,107.0,84.0,-72.0
130.0,127.0,128.0,125.0,129.0,148.0,127.0,129.0,16.0,-101.0,-88.0,127.0,127.0,127.0,107.0,84.0,-72.0
130.0,127.0,128.0,126.0,129.0,148.0,127.0,129.0,16.0,-101.0,-88.0,127.0,127.0,127.0,107.0,84.0,-72.0
129.0,128.0,128.0,125.0,129.0,148.0,127.0,130.0,16.0,-101.0,-88.0,127.0,127.0,127.0,106.0,84.0,-72.0
129.0,128.0,128.0,125.0,130.0,148.0,127.0,130.0,16.0,-101.0,-88.0,127.0,127.0,127.0,106.0,84.0,-72.0
129.0,127.0,129.0,125.0,130.0,148.0,127.0,130.0,16.0,-101.0,-88.0,127.0,127.0,127.0,106.0,84.0,-72.0
129.0,127.0,129.0,125.0,130.0,148.0,127.0,130.0,16.0,-101.0,-88.0,127.0,127.0,127.0,106.0,84.0,-72.0
129.0,126.0,129.0,126.0,130.0,148.0,127.0,130.0,16.0,-101.0,-88.0,127.0,127.0,127.0,106.0,84.0,-72.0
130.0,126.0,129.0,126.0,130.0,148.0,127.0,131.0,16.0,-101.0,-88.0,127.0,127.0,127.0,106.0,84.0,-72.0
130.0,126.0,129.0,126.0,130.0,148.0,127.0,131.0,16.0,-101.0,-88.0,127.0,127.0,127.0,106.0,84.0,-72.0
130.0,126.0,128.0,125.0,130.0,148.0,126.0,131.0,16.0,-101.0,-88.0,127.0,127.0,127.0,106.0,84.0,-72.0
130.0,126.0,128.0,125.0,130.0,148.0,126.0,131.0,16.0,-101.0,-88.0,127.0,127.0,127.0,106.0,84.0,-72.0
129.0,128.0,128.0,125.0,129.0,148.0,127.0,130.0,16.0,-101.0,-88.0,127.0,127.0,127.0,106.0,84.0,-72.0
130.0,128.0,127.0,125.0,127.0,148.0,128.0,129.0,16.0,-102.0,-88.0,127.0,127.0,127.0,106.0,84.0,-72.0
130.0,128.0,127.0,125.0,127.0,148.0,127.0,129.0,16.0,-102.0,-88.0,127.0,127.0,127.0,106.0,84.0,-72.0
130.0,129.0,127.0,125.0,127.0,148.0,127.0,129.0,16.0,-102.0,-88.0,127.0,127.0,127.0,106.0,84.0,-72.0
130.0,129.0,127.0,124.0,127.0,148.0,127.0,129.0,16.0,-102.0,-88.0,127.0,127.0,127.0,106.0,84.0,-72.0
130.0,129.0,128.0,124.0,127.0,148.0,127.0,129.0,16.0,-102.0,-88.0,127.0,127.0,127.0,106.0,84.0,-72.0
130.0,129.0,129.0,124.0,127.0,148.0,127.0,129.0,16.0,-102.0,-88.0,127.0,127.0,127.0,106.0,84.0,-72.0
130.0,128.0,130.0,124.0,127.0,148.0,127.0,129.0,16.0,-102.0,-88.0,127.0,127.0,127.0,106.0,84.0,-72.0
129.0,128.0,131.0,124.0,127.0,148.0,127.0,129.0,16.0,-102.0,-88.0,127.0,127.0,127.0,106.0,84.0,-72.0
130.0,128.0,126.0,126.0,126.0,148.0,127.0,129.0,16.0,-102.0,-88.0,127.0,127.0,127.0,106.0,84.0,-72.0
130.0,128.0,127.0,125.0,126.0,148.0,128.0,129.0,16.0,-102.0,-88.0,127.0,127.0,127.0,106.0,84.0,-72.0
129.0,125.0,128.0,126.0,128.0,149.0,127.0,130.0,16.0,-102.0,-87.0,127.0,127.0,127.0,106.0,83.0,-72.0
129.0,126.0,127.0,126.0,128.0,149.0,127.0,130.0,16.0,-102.0,-87.0,127.0,127.0,127.0,106.0,83.0,-72.0
129.0,126.0,127.0,126.0,128.0,149.0,128.0,131.0,16.0,-102.0,-87.0,127.0,127.0,127.0,106.0,83.0,-72.0
129.0,127.0,127.0,126.0,128.0,149.0,127.0,131.0,16.0,-102.0,-87.0,127.0,127.0,127.0,106.0,83.0,-72.0
129.0,127.0,126.0,126.0,128.0,149.0,128.0,131.0,16.0,-102.0,-87.0,127.0,127.0,127.0,106.0,83.0,-72.0
129.0,127.0,127.0,126.0,128.0,149.0,128.0,131.0,16.0,-102.0,-87.0,127.0,127.0,127.0,106.0,83.0,-72.0
129.0,127.0,127.0,126.0,128.0,149.0,127.0,131.0,16.0,-102.0,-87.0,127.0,127.0,127.0,106.0,83.0,-72.0
129.0,126.0,127.0,126.0,128.0,148.0,127.0,129.0,16.0,-102.0,-87.0,127.0,127.0,127.0,106.0,83.0,-72.0
129.0,125.0,127.0,126.0,128.0,148.0,127.0,129.0,16.0,-102.0,-87.0,127.0,127.0,127.0,106.0,83.0,-72.0
129.0,125.0,128.0,126.0,128.0,149.0,127.0,130.0,16.0,-102.0,-87.0,127.0,127.0,127.0,106.0,83.0,-72.0
129.0,128.0,125.0,127.0,128.0,149.0,128.0,130.0,16.0,-102.0,-87.0,127.0,127.0,127.0,106.0,83.0,-72.0
129.0,128.0,126.0,127.0,127.0,149.0,129.0,129.0,16.0,-102.0,-87.0,127.0,127.0,127.0,106.0,83.0,-72.0
129.0,128.0,126.0,126.0,127.0,149.0,128.0,129.0,16.0,-102.0,-87.0,127.0,127.0,127.0,106.0,83.0,-72.0
129.0,128.0,127.0,126.0,127.0,149.0,128.0,129.0,16.0,-102.0,-87.0,127.0,127.0,127.0,106.0,83.0,-72.0
129.0,127.0,127.0,126.0,126.0,149.0,128.0,129.0,16.0,-102.0,-87.0,127.0,127.0,127.0,106.0,83.0,-72.0
129.0,127.0,127.0,126.0,126.0,149.0,128.0,129.0,16.0,-102.0,-87.0,127.0,127.0,127.0,106.0,83.0,-72.0
129.0,127.0,126.0,128.0,128.0,149.0,127.0,132.0,16.0,-102.0,-87.0,127.0,127.0,127.0,106.0,83.0,-72.0
129.0,127.0,125.0,128.0,128.0,149.0,127.0,131.0,16.0,-102.0,-87.0,127.0,127.0,127.0,106.0,83.0,-72.0
129.0,127.0,124.0,128.0,128.0,149.0,128.0,130.0,16.0,-102.0,-87.0,127.0,127.0,127.0,106.0,83.0,-72.0
129.0,127.0,125.0,128.0,128.0,149.0,128.0,130.0,16.0,-102.0,-87.0,127.0,127.0,127.0,106.0,83.0,-72.0
129.0,126.0,129.0,128.0,126.0,149.0,127.0,130.0,16.0,-103.0,-87.0,127.0,127.0,127.0,106.0,83.0,-72.0
129.0,126.0,129.0,128.0,126.0,148.0,127.0,130.0,16.0,-103.0,-87.0,127.0,127.0,127.0,106.0,83.0,-72.0
129.0,126.0,129.0,128.0,127.0,148.0,127.0,130.0,16.0,-103.0,-87.0,127.0,127.0,127.0,106.0,83.0,-72.0
129.0,126.0,129.0,128.0,127.0,148.0,127.0,130.0,16.0,-103.0,-87.0,127.0,127.0,127.0,106.0,83.0,-72.0
129.0,126.0,130.0,128.0,127.0,148.0,128.0,130.0,16.0,-103.0,-87.0,127.0,127.0,127.0,106.0,83.0,-72.0
129.0,126.0,130.0,126.0,126.0,148.0,128.0,130.0,16.0,-103.0,-87.0,127.0,127.0,127.0,106.0,83.0,-72.0
129.0,126.0,130.0,127.0,126.0,148.0,127.0,130.0,16.0,-103.0,-87.0,127.0,127.0,127.0,106.0,83.0,-72.0
129.0,126.0,130.0,127.0,126.0,148.0,127.0,130.0,16.0,-103.0,-87.0,127.0,127.0,127.0,106.0,83.0,-72.0
129.0,126.0,130.0,128.0,126.0,149.0,127.0,130.0,16.0,-103.0,-87.0,127.0,127.0,127.0,106.0,83.0,-72.0
129.0,126.0,130.0,128.0,126.0,148.0,127.0,130.0,16.0,-103.0,-87.0,127.0,127.0,127.0,106.0,83.0,-72.0
128.0,127.0,126.0,124.0,127.0,148.0,126.0,130.0,16.0,-103.0,-86.0,127.0,127.0,127.0,106.0,83.0,-72.0
128.0,128.0,126.0,124.0,127.0,148.0,127.0,130.0,16.0,-103.0,-86.0,127.0,127.0,127.0,106.0,83.0,-72.0
128.0,128.0,127.0,124.0,127.0,148.0,127.0,130.0,16.0,-103.0,-86.0,127.0,127.0,127.0,106.0,83.0,-72.0
128.0,127.0,128.0,124.0,127.0,148.0,127.0,130.0,16.0,-103.0,-86.0,127.0,127.0,127.0,106.0,83.0,-72.0
129.0,127.0,127.0,126.0,127.0,148.0,127.0,131.0,16.0,-103.0,-86.0,127.0,127.0,127.0,106.0,83.0,-72.0
129.0,127.0,126.0,125.0,127.0,148.0,127.0,131.0,16.0,-103.0,-86.0,127.0,127.0,127.0,106.0,83.0,-72.0
129.0,127.0,126.0,125.0,127.0,148.0,127.0,131.0,16.0,-103.0,-86.0,127.0,127.0,127.0,106.0,83.0,-72.0
129.0,127.0,126.0,125.0,127.0,148.0,127.0,131.0,16.0,-103.0,-86.0,127.0,127.0,127.0,106.0,83.0,-72.0
128.0,127.0,126.0,125.0,127.0,148.0,127.0,130.0,16.0,-103.0,-86.0,127.0,127.0,127.0,106.0,83.0,-72.0
128.0,127.0,125.0,124.0,127.0,148.0,126.0,130.0,16.0,-103.0,-86.0,127.0,127.0,127.0,106.0,83.0,-72.0
129.0,127.0,126.0,129.0,127.0,148.0,127.0,129.0,16.0,-103.0,-86.0,127.0,127.0,127.0,106.0,83.0,-72.0
129.0,127.0,126.0,129.0,127.0,148.0,126.0,129.0,16.0,-103.0,-86.0,127.0,127.0,127.0,106.0,83.0,-72.0
129.0,127.0,127.0,129.0,127.0,148.0,126.0,128.0,16.0,-103.0,-86.0,127.0,127.0,127.0,106.0,83.0,-72.0
128.0,127.0,128.0,129.0,128.0,148.0,127.0,131.0,16.0,-103.0,-86.0,127.0,127.0,127.0,106.0,83.0,-72.0
129.0,127.0,128.0,129.0,128.0,148.0,127.0,131.0,16.0,-103.0,-86.0,127.0,127.0,127.0,106.0,83.0,-72.0
129.0,127.0,128.0,129.0,128.0,148.0,127.0,131.0,16.0,-103.0,-86.0,127.0,127.0,127.0,106.0,83.0,-72.0
129.0,127.0,128.0,129.0,128.0,148.0,127.0,131.0,16.0,-103.0,-86.0,127.0,127.0,127.0,106.0,83.0,-72.0
129.0,127.0,127.0,129.0,127.0,148.0,127.0,131.0,16.0,-103.0,-86.0,127.0,127.0,127.0,106.0,83.0,-72.0
129.0,127.0,127.0,129.0,127.0,148.0,127.0,130.0,16.0,-103.0,-86.0,127.0,127.0,127.0,106.0,83.0,-72.0
129.0,127.0,127.0,129.0,127.0,148.0,127.0,130.0,16.0,-103.0,-86.0,127.0,127.0,127.0,106.0,83.0,-72.0
128.0,127.0,128.0,124.0,126.0,148.0,128.0,129.0,16.0,-103.0,-86.0,127.0,127.0,127.0,106.0,83.0,-72.0
128.0,126.0,128.0,124.0,126.0,148.0,128.0,129.0,16.0,-103.0,-86.0,127.0,127.0,127.0,106.0,83.0,-72.0
128.0,127.0,130.0,123.0,125.0,148.0,127.0,128.0,16.0,-103.0,-86.0,127.0,127.0,127.0,106.0,83.0,-72.0
128.0,127.0,130.0,123.0,125.0,148.0,127.0,128.0,16.0,-103.0,-86.0,127.0,127.0,127.0,106.0,83.0,-72.0
128.0,127.0,130.0,123.0,125.0,148.0,127.0,128.0,16.0,-103.0,-86.0,127.0,127.0,127.0,106.0,83.0,-72.0
128.0,127.0,129.0,123.0,125.0,148.0,127.0,127.0,16.0,-103.0,-86.0,127.0,127.0,127.0,106.0,83.0,-72.0
128.0,127.0,128.0,123.0,125.0,148.0,128.0,128.0,16.0,-103.0,-86.0,127.0,127.0,127.0,106.0,83.0,-72.0
128.0,127.0,127.0,124.0,125.0,148.0,127.0,128.0,16.0,-103.0,-86.0,127.0,127.0,127.0,106.0,83.0,-72.0
128.0,127.0,127.0,124.0,126.0,148.0,127.0,128.0,16.0,-103.0,-86.0,127.0,127.0,127.0,106.0,83.0,-72.0
128.0,127.0,127.0,124.0,126.0,148.0,128.0,129.0,16.0,-103.0,-86.0,127.0,127.0,127.0,106.0,83.0,-72.0
128.0,125.0,124.0,128.0,127.0,148.0,128.0,129.0,16.0,-103.0,-86.0,127.0,127.0,127.0,106.0,83.0,-72.0
128.0,126.0,124.0,128.0,128.0,148.0,127.0,129.0,16.0,-103.0,-86.0,127.0,127.0,127.0,106.0,83.0,-72.0
128.0,126.0,124.0,128.0,128.0,148.0,127.0,130.0,16.0,-103.0,-86.0,127.0,127.0,127.0,106.0,83.0,-72.0
128.0,126.0,124.0,128.0,128.0,148.0,127.0,130.0,16.0,-103.0,-86.0,127.0,127.0,127.0,106.0,83.0,-72.0
128.0,126.0,124.0,128.0,128.0,148.0,127.0,130.0,16.0,-103.0,-86.0,127.0,127.0,127.0,106.0,83.0,-72.0
128.0,127.0,124.0,128.0,128.0,148.0,127.0,130.0,16.0,-103.0,-86.0,127.0,127.0,127.0,106.0,83.0,-72.0
129.0,127.0,124.0,128.0,128.0,148.0,127.0,130.0,16.0,-103.0,-86.0,127.0,127.0,127.0,106.0,83.0,-72.0
128.0,127.0,126.0,128.0,128.0,148.0,127.0,130.0,16.0,-103.0,-86.0,127.0,127.0,127.0,106.0,83.0,-72.0
128.0,127.0,127.0,128.0,128.0,148.0,127.0,130.0,16.0,-103.0,-86.0,127.0,127.0,127.0,106.0,83.0,-72.0
128.0,127.0,127.0,128.0,128.0,148.0,127.0,129.0,16.0,-103.0,-86.0,127.0,127.0,127.0,106.0,83.0,-72.0
128.0,126.0,133.0,126.0,126.0,148.0,127.0,129.0,16.0,-104.0,-85.0,127.0,127.0,127.0,106.0,83.0,-72.0
128.0,127.0,135.0,127.0,126.0,148.0,126.0,130.0,16.0,-104.0,-85.0,127.0,127.0,127.0,106.0,83.0,-72.0
128.0,128.0,137.0,127.0,125.0,148.0,127.0,130.0,16.0,-104.0,-85.0,127.0,127.0,127.0,106.0,83.0,-72.0
128.0,129.0,138.0,127.0,125.0,148.0,127.0,131.0,16.0,-104.0,-85.0,127.0,127.0,127.0,106.0,83.0,-72.0
128.0,130.0,138.0,127.0,125.0,148.0,126.0,131.0,16.0,-104.0,-85.0,127.0,127.0,127.0,106.0,83.0,-72.0
128.0,130.0,137.0,127.0,125.0,148.0,127.0,132.0,16.0,-104.0,-85.0,127.0,127.0,127.0,106.0,83.0,-72.0
128.0,129.0,135.0,127.0,125.0,148.0,127.0,132.0,16.0,-104.0,-85.0,127.0,127.0,127.0,106.0,83.0,-72.0
128.0,129.0,133.0,127.0,125.0,148.0,127.0,132.0,16.0,-104.0,-85.0,127.0,127.0,127.0,106.0,83.0,-72.0
128.0,128.0,131.0,127.0,125.0,148.0,127.0,132.0,16.0,-104.0,-85.0,127.0,127.0,127.0,106.0,83.0,-72.0
127.0,126.0,131.0,126.0,126.0,148.0,126.0,129.0,16.0,-104.0,-85.0,127.0,127.0,127.0,106.0,83.0,-72.0
128.0,127.0,125.0,127.0,127.0,148.0,127.0,129.0,16.0,-104.0,-85.0,127.0,127.0,127.0,106.0,83.0,-72.0
128.0,127.0,124.0,127.0,127.0,148.0,127.0,129.0,16.0,-104.0,-85.0,127.0,127.0,127.0,106.0,83.0,-72.0
128.0,127.0,124.0,127.0,127.0,148.0,127.0,129.0,16.0,-104.0,-85.0,127.0,127.0,127.0,106.0,83.0,-72.0
128.0,127.0,124.0,126.0,127.0,148.0,127.0,129.0,16.0,-104.0,-85.0,127.0,127.0,127.0,106.0,83.0,-72.0
128.0,127.0,125.0,126.0,127.0,148.0,127.0,130.0,16.0,-104.0,-85.0,127.0,127.0,127.0,106.0,83.0,-72.0
128.0,126.0,126.0,126.0,128.0,148.0,127.0,130.0,16.0,-104.0,-85.0,127.0,127.0,127.0,106.0,83.0,-72.0
128.0,126.0,126.0,126.0,128.0,148.0,127.0,129.0,16.0,-104.0,-85.0,127.0,127.0,127.0,106.0,83.0,-72.0
128.0,126.0,125.0,126.0,127.0,148.0,127.0,129.0,16.0,-104.0,-85.0,127.0,127.0,127.0,106.0,83.0,-72.0
128.0,127.0,126.0,128.0,128.0,148.0,127.0,129.0,16.0,-104.0,-85.0,127.0,127.0,127.0,106.0,83.0,-72.0
128.0,127.0,126.0,127.0,128.0,148.0,127.0,129.0,16.0,-104.0,-85.0,127.0,127.0,127.0,106.0,83.0,-72.0
128.0,127.0,129.0,127.0,128.0,148.0,128.0,129.0,16.0,-104.0,-86.0,127.0,127.0,127.0,106.0,83.0,-72.0
128.0,127.0,129.0,126.0,127.0,148.0,127.0,129.0,16.0,-104.0,-86.0,127.0,127.0,127.0,106.0,83.0,-72.0
128.0,127.0,129.0,126.0,127.0,148.0,127.0,129.0,16.0,-104.0,-86.0,127.0,127.0,127.0,106.0,83.0,-72.0
128.0,127.0,130.0,125.0,127.0,148.0,128.0,129.0,16.0,-104.0,-86.0,127.0,127.0,127.0,106.0,83.0,-72.0
128.0,128.0,131.0,125.0,127.0,148.0,128.0,129.0,16.0,-104.0,-86.0,127.0,127.0,127.0,106.0,83.0,-72.0
128.0,128.0,132.0,125.0,127.0,148.0,128.0,129.0,16.0,-104.0,-86.0,127.0,127.0,127.0,106.0,83.0,-72.0
128.0,127.0,133.0,125.0,127.0,148.0,128.0,129.0,16.0,-104.0,-86.0,127.0,127.0,127.0,106.0,83.0,-72.0
128.0,130.0,128.0,128.0,128.0,148.0,126.0,129.0,16.0,-104.0,-86.0,127.0,127.0,127.0,106.0,83.0,-72.0
128.0,129.0,129.0,127.0,128.0,148.0,127.0,129.0,16.0,-104.0,-86.0,127.0,127.0,127.0,106.0,83.0,-72.0
128.0,128.0,128.0,127.0,128.0,148.0,127.0,129.0,16.0,-104.0,-86.0,127.0,127.0,127.0,106.0,83.0,-72.0
128.0,129.0,125.0,127.0,126.0,148.0,127.0,127.0,16.0,-104.0,-86.0,127.0,127.0,127.0,106.0,83.0,-72.0
128.0,128.0,124.0,127.0,126.0,148.0,127.0,127.0,16.0,-104.0,-86.0,127.0,127.0,127.0,106.0,83.0,-72.0
128.0,127.0,123.0,127.0,126.0,148.0,127.0,126.0,16.0,-104.0,-86.0,127.0,127.0,127.0,106.0,83.0,-72.0
128.0,127.0,123.0,127.0,126.0,148.0,127.0,127.0,16.0,-104.0,-86.0,127.0,127.0,127.0,106.0,83.0,-72.0
128.0,127.0,123.0,127.0,127.0,148.0,127.0,127.0,16.0,-104.0,-86.0,127.0,127.0,127.0,106.0,83.0,-72.0
128.0,127.0,123.0,127.0,127.0,148.0,127.0,127.0,16.0,-104.0,-86.0,127.0,127.0,127.0,106.0,83.0,-72.0
128.0,128.0,127.0,127.0,127.0,148.0,127.0,128.0,16.0,-104.0,-86.0,127.0,127.0,127.0,106.0,83.0,-72.0
128.0,128.0,127.0,127.0,126.0,148.0,127.0,128.0,16.0,-104.0,-86.0,127.0,127.0,127.0,106.0,83.0,-72.0
128.0,129.0,126.0,127.0,126.0,148.0,127.0,128.0,16.0,-104.0,-86.0,127.0,127.0,127.0,106.0,83.0,-72.0
128.0,129.0,126.0,127.0,126.0,148.0,127.0,127.0,16.0,-104.0,-86.0,127.0,127.0,127.0,106.0,83.0,-72.0
128.0,127.0,130.0,129.0,128.0,148.0,126.0,129.0,16.0,-104.0,-86.0,127.0,127.0,127.0,106.0,83.0,-72.0
128.0,127.0,131.0,129.0,128.0,148.0,126.0,129.0,16.0,-104.0,-86.0,127.0,127.0,127.0,106.0,83.0,-72.0
128.0,127.0,131.0,129.0,128.0,148.0,126.0,130.0,16.0,-104.0,-86.0,127.0,127.0,127.0,106.0,83.0,-72.0
128.0,127.0,131.0,129.0,128.0,148.0,127.0,130.0,16.0,-104.0,-86.0,127.0,127.0,127.0,106.0,83.0,-72.0
128.0,127.0,130.0,129.0,128.0,148.0,127.0,130.0,16.0,-104.0,-86.0,127.0,127.0,127.0,106.0,83.0,-72.0
128.0,126.0,127.0,127.0,128.0,148.0,126.0,127.0,16.0,-104.0,-86.0,127.0,127.0,127.0,106.0,83.0,-72.0
128.0,127.0,127.0,128.0,128.0,148.0,126.0,127.0,16.0,-104.0,-86.0,127.0,127.0,127.0,106.0,83.0,-72.0
128.0,127.0,128.0,128.0,128.0,148.0,127.0,127.0,16.0,-104.0,-86.0,127.0,127.0,127.0,106.0,83.0,-72.0
128.0,127.0,129.0,128.0,128.0,148.0,127.0,128.0,16.0,-104.0,-86.0,127.0,127.0,127.0,106.0,83.0,-72.0
128.0,127.0,129.0,129.0,128.0,148.0,126.0,128.0,16.0,-104.0,-86.0,127.0,127.0,127.0,106.0,83.0,-72.0
128.0,127.0,126.0,126.0,127.0,148.0,126.0,130.0,16.0,-104.0,-86.0,127.0,127.0,127.0,105.0,83.0,-72.0
128.0,127.0,126.0,126.0,127.0,148.0,126.0,130.0,16.0,-104.0,-86.0,127.0,127.0,127.0,105.0,83.0,-72.0
128.0,127.0,126.0,126.0,127.0,148.0,126.0,131.0,16.0,-104.0,-86.0,127.0,127.0,127.0,105.0,83.0,-72.0
128.0,127.0,126.0,126.0,127.0,148.0,127.0,131.0,16.0,-104.0,-86.0,127.0,127.0,127.0,105.0,83.0,-72.0
128.0,128.0,123.0,126.0,127.0,147.0,126.0,128.0,16.0,-104.0,-86.0,127.0,127.0,127.0,105.0,83.0,-72.0
128.0,128.0,123.0,126.0,127.0,147.0,125.0,128.0,16.0,-104.0,-86.0,127.0,127.0,127.0,105.0,83.0,-72.0
128.0,128.0,123.0,126.0,127.0,148.0,126.0,128.0,16.0,-104.0,-86.0,127.0,127.0,127.0,105.0,83.0,-72.0
128.0,127.0,124.0,126.0,127.0,148.0,126.0,129.0,16.0,-104.0,-86.0,127.0,127.0,127.0,105.0,83.0,-72.0
128.0,127.0,125.0,126.0,127.0,148.0,126.0,129.0,16.0,-104.0,-86.0,127.0,127.0,127.0,105.0,83.0,-72.0
128.0,127.0,125.0,126.0,127.0,148.0,126.0,130.0,16.0,-104.0,-86.0,127.0,127.0,127.0,105.0,83.0,-72.0
128.0,127.0,127.0,126.0,128.0,148.0,127.0,129.0,15.0,-104.0,-87.0,127.0,127.0,127.0,105.0,83.0,-72.0
128.0,127.0,127.0,125.0,128.0,148.0,127.0,128.0,15.0,-104.0,-87.0,127.0,127.0,127.0,105.0,83.0,-72.0
128.0,127.0,126.0,125.0,128.0,148.0,127.0,128.0,15.0,-104.0,-87.0,127.0,127.0,127.0,105.0,83.0,-72.0
128.0,127.0,128.0,128.0,128.0,148.0,126.0,129.0,15.0,-104.0,-87.0,127.0,127.0,127.0,105.0,83.0,-72.0
128.0,127.0,128.0,128.0,128.0,148.0,126.0,129.0,15.0,-104.0,-87.0,127.0,127.0,127.0,105.0,83.0,-72.0
128.0,127.0,127.0,127.0,128.0,148.0,126.0,129.0,15.0,-104.0,-87.0,127.0,127.0,127.0,105.0,83.0,-72.0
128.0,127.0,127.0,127.0,128.0,148.0,126.0,129.0,15.0,-104.0,-87.0,127.0,127.0,127.0,105.0,83.0,-72.0
128.0,127.0,127.0,126.0,128.0,148.0,127.0,129.0,15.0,-104.0,-87.0,127.0,127.0,127.0,105.0,83.0,-72.0
128.0,127.0,127.0,126.0,128.0,148.0,127.0,128.0,15.0,-104.0,-87.0,127.0,127.0,127.0,105.0,83.0,-72.0
128.0,127.0,127.0,126.0,128.0,148.0,127.0,129.0,15.0,-104.0,-87.0,127.0,127.0,127.0,105.0,83.0,-72.0
128.0,127.0,128.0,128.0,128.0,148.0,127.0,129.0,15.0,-104.0,-87.0,127.0,127.0,127.0,105.0,83.0,-72.0
128.0,127.0,129.0,129.0,128.0,148.0,127.0,129.0,15.0,-104.0,-87.0,127.0,127.0,127.0,105.0,83.0,-72.0
128.0,127.0,125.0,124.0,126.0,148.0,127.0,129.0,15.0,-104.0,-87.0,127.0,127.0,127.0,105.0,83.0,-72.0
128.0,127.0,126.0,124.0,126.0,148.0,127.0,128.0,15.0,-104.0,-87.0,127.0,127.0,127.0,105.0,83.0,-72.0
128.0,128.0,126.0,124.0,126.0,148.0,127.0,128.0,15.0,-104.0,-87.0,127.0,127.0,127.0,105.0,83.0,-72.0
128.0,128.0,127.0,125.0,127.0,148.0,127.0,129.0,15.0,-104.0,-87.0,127.0,127.0,127.0,105.0,83.0,-72.0
128.0,128.0,127.0,125.0,127.0,148.0,126.0,129.0,15.0,-104.0,-87.0,127.0,127.0,127.0,105.0,83.0,-72.0
128.0,128.0,128.0,126.0,127.0,148.0,126.0,129.0,15.0,-104.0,-87.0,127.0,127.0,127.0,105.0,83.0,-72.0
128.0,127.0,128.0,127.0,127.0,148.0,127.0,129.0,15.0,-104.0,-87.0,127.0,127.0,127.0,105.0,83.0,-72.0
128.0,127.0,128.0,128.0,127.0,148.0,127.0,129.0,15.0,-104.0,-87.0,127.0,127.0,127.0,105.0,83.0,-72.0
128.0,127.0,127.0,126.0,126.0,148.0,127.0,128.0,15.0,-105.0,-88.0,127.0,127.0,127.0,105.0,82.0,-72.0
127.0,126.0,133.0,125.0,127.0,148.0,127.0,123.0,15.0,-105.0,-88.0,127.0,127.0,127.0,105.0,82.0,-72.0
127.0,126.0,134.0,125.0,126.0,148.0,127.0,123.0,15.0,-105.0,-88.0,127.0,127.0,127.0,105.0,82.0,-72.0
127.0,125.0,135.0,126.0,126.0,148.0,127.0,124.0,15.0,-105.0,-88.0,127.0,127.0,127.0,105.0,82.0,-72.0
127.0,125.0,135.0,126.0,126.0,148.0,127.0,125.0,15.0,-105.0,-88.0,127.0,127.0,127.0,105.0,82.0,-72.0
127.0,125.0,134.0,126.0,126.0,148.0,127.0,126.0,15.0,-105.0,-88.0,127.0,127.0,127.0,105.0,82.0,-72.0
127.0,126.0,132.0,126.0,127.0,148.0,127.0,127.0,15.0,-105.0,-88.0,127.0,127.0,127.0,105.0,82.0,-72.0
127.0,127.0,130.0,126.0,126.0,148.0,127.0,128.0,15.0,-105.0,-88.0,127.0,127.0,127.0,105.0,82.0,-72.0
127.0,127.0,129.0,126.0,127.0,148.0,127.0,128.0,15.0,-105.0,-88.0,127.0,127.0,127.0,105.0,82.0,-72.0
128.0,127.0,128.0,126.0,126.0,148.0,127.0,128.0,15.0,-105.0,-88.0,127.0,127.0,127.0,105.0,82.0,-72.0
128.0,127.0,125.0,126.0,127.0,148.0,126.0,127.0,15.0,-105.0,-88.0,127.0,127.0,127.0,105.0,82.0,-72.0
128.0,127.0,124.0,126.0,127.0,148.0,127.0,127.0,15.0,-105.0,-88.0,127.0,127.0,127.0,105.0,82.0,-72.0
127.0,127.0,125.0,126.0,128.0,148.0,127.0,127.0,15.0,-105.0,-88.0,127.0,127.0,127.0,105.0,82.0,-72.0
127.0,127.0,125.0,126.0,128.0,148.0,127.0,127.0,15.0,-105.0,-88.0,127.0,127.0,127.0,105.0,82.0,-72.0
127.0,127.0,125.0,126.0,128.0,148.0,126.0,127.0,15.0,-105.0,-88.0,127.0,127.0,127.0,105.0,82.0,-72.0
127.0,127.0,125.0,126.0,128.0,148.0,126.0,128.0,15.0,-105.0,-88.0,127.0,127.0,127.0,105.0,82.0,-72.0
128.0,127.0,126.0,126.0,129.0,148.0,126.0,128.0,15.0,-105.0,-88.0,127.0,127.0,127.0,105.0,82.0,-72.0
128.0,127.0,126.0,126.0,129.0,148.0,126.0,129.0,15.0,-105.0,-88.0,127.0,127.0,127.0,105.0,82.0,-72.0
128.0,127.0,126.0,126.0,128.0,148.0,126.0,129.0,15.0,-105.0,-88.0,127.0,127.0,127.0,105.0,82.0,-72.0
128.0,127.0,127.0,126.0,128.0,148.0,126.0,129.0,15.0,-105.0,-88.0,127.0,127.0,127.0,105.0,82.0,-72.0
127.0,127.0,130.0,129.0,129.0,148.0,126.0,129.0,15.0,-105.0,-89.0,127.0,127.0,127.0,105.0,82.0,-72.0
127.0,127.0,129.0,129.0,129.0,148.0,126.0,129.0,15.0,-105.0,-89.0,127.0,127.0,127.0,105.0,82.0,-72.0
127.0,127.0,129.0,129.0,128.0,148.0,126.0,129.0,15.0,-105.0,-89.0,127.0,127.0,127.0,105.0,82.0,-72.0
127.0,127.0,128.0,128.0,128.0,148.0,126.0,129.0,15.0,-105.0,-89.0,127.0,127.0,127.0,105.0,82.0,-72.0
127.0,127.0,128.0,127.0,128.0,148.0,126.0,129.0,15.0,-105.0,-89.0,127.0,127.0,127.0,105.0,82.0,-72.0
128.0,127.0,127.0,127.0,127.0,148.0,127.0,129.0,15.0,-105.0,-89.0,127.0,127.0,127.0,105.0,82.0,-72.0
128.0,127.0,127.0,126.0,127.0,148.0,127.0,129.0,15.0,-105.0,-89.0,127.0,127.0,127.0,105.0,82.0,-72.0
127.0,127.0,127.0,126.0,127.0,148.0,126.0,128.0,15.0,-105.0,-89.0,127.0,127.0,127.0,105.0,82.0,-72.0
128.0,127.0,127.0,126.0,127.0,148.0,126.0,128.0,15.0,-105.0,-89.0,127.0,127.0,127.0,105.0,82.0,-72.0
127.0,127.0,130.0,129.0,129.0,148.0,126.0,129.0,15.0,-105.0,-89.0,127.0,127.0,127.0,105.0,82.0,-72.0
128.0,127.0,128.0,125.0,125.0,148.0,126.0,127.0,14.0,-105.0,-90.0,127.0,127.0,127.0,105.0,82.0,-72.0
128.0,127.0,128.0,125.0,125.0,148.0,126.0,127.0,14.0,-105.0,-90.0,127.0,127.0,127.0,105.0,82.0,-72.0
128.0,127.0,128.0,125.0,125.0,148.0,126.0,127.0,14.0,-105.0,-90.0,127.0,127.0,127.0,105.0,82.0,-72.0
128.0,127.0,128.0,124.0,125.0,148.0,126.0,127.0,14.0,-105.0,-90.0,127.0,127.0,127.0,105.0,82.0,-72.0
128.0,127.0,127.0,124.0,125.0,148.0,127.0,127.0,14.0,-105.0,-90.0,127.0,127.0,127.0,105.0,82.0,-72.0
128.0,127.0,127.0,124.0,125.0,148.0,127.0,127.0,14.0,-105.0,-90.0,127.0,127.0,127.0,105.0,82.0,-72.0
128.0,127.0,127.0,124.0,125.0,148.0,127.0,127.0,14.0,-105.0,-90.0,127.0,127.0,127.0,105.0,82.0,-72.0
128.0,127.0,128.0,125.0,126.0,148.0,126.0,127.0,14.0,-105.0,-90.0,127.0,127.0,127.0,105.0,82.0,-72.0
128.0,127.0,128.0,125.0,126.0,148.0,126.0,127.0,14.0,-105.0,-90.0,127.0,127.0,127.0,105.0,82.0,-72.0
128.0,127.0,128.0,125.0,126.0,148.0,126.0,127.0,14.0,-105.0,-90.0,127.0,127.0,127.0,105.0,82.0,-72.0
127.0,127.0,127.0,127.0,128.0,148.0,127.0,127.0,14.0,-105.0,-90.0,127.0,127.0,127.0,105.0,82.0,-72.0
127.0,127.0,127.0,127.0,128.0,148.0,127.0,126.0,14.0,-105.0,-90.0,127.0,127.0,127.0,105.0,82.0,-72.0
127.0,127.0,127.0,127.0,128.0,148.0,127.0,127.0,14.0,-105.0,-90.0,127.0,127.0,127.0,105.0,82.0,-72.0
127.0,127.0,127.0,127.0,128.0,148.0,127.0,127.0,14.0,-105.0,-90.0,127.0,127.0,127.0,105.0,82.0,-72.0
127.0,127.0,127.0,127.0,128.0,148.0,127.0,127.0,14.0,-105.0,-90.0,127.0,127.0,127.0,105.0,82.0,-72.0
127.0,127.0,127.0,127.0,128.0,148.0,127.0,127.0,14.0,-105.0,-90.0,127.0,127.0,127.0,105.0,82.0,-72.0
128.0,127.0,129.0,127.0,127.0,148.0,126.0,127.0,14.0,-105.0,-90.0,127.0,127.0,127.0,105.0,82.0,-72.0
128.0,127.0,129.0,127.0,127.0,148.0,127.0,127.0,14.0,-105.0,-90.0,127.0,127.0,127.0,105.0,82.0,-72.0
128.0,127.0,128.0,127.0,127.0,148.0,127.0,127.0,14.0,-105.0,-90.0,127.0,127.0,127.0,105.0,82.0,-72.0
128.0,127.0,128.0,127.0,128.0,148.0,127.0,127.0,14.0,-105.0,-90.0,127.0,127.0,127.0,105.0,82.0,-72.0
128.0,127.0,126.0,127.0,127.0,148.0,127.0,128.0,14.0,-105.0,-91.0,127.0,127.0,127.0,105.0,82.0,-72.0
128.0,127.0,126.0,127.0,127.0,148.0,127.0,128.0,14.0,-105.0,-91.0,127.0,127.0,127.0,105.0,82.0,-72.0
127.0,127.0,126.0,127.0,127.0,148.0,127.0,127.0,14.0,-105.0,-91.0,127.0,127.0,127.0,105.0,82.0,-72.0
127.0,127.0,126.0,127.0,127.0,148.0,126.0,127.0,14.0,-105.0,-91.0,127.0,127.0,127.0,105.0,82.0,-72.0
127.0,127.0,126.0,126.0,127.0,148.0,126.0,127.0,14.0,-105.0,-91.0,127.0,127.0,127.0,105.0,82.0,-72.0
127.0,127.0,126.0,127.0,127.0,148.0,126.0,129.0,14.0,-105.0,-91.0,127.0,127.0,127.0,105.0,82.0,-72.0
127.0,127.0,126.0,127.0,128.0,148.0,126.0,129.0,14.0,-105.0,-91.0,127.0,127.0,127.0,105.0,82.0,-72.0
127.0,127.0,126.0,127.0,127.0,148.0,126.0,129.0,14.0,-105.0,-91.0,127.0,127.0,127.0,105.0,82.0,-72.0
127.0,127.0,126.0,127.0,128.0,148.0,126.0,128.0,14.0,-105.0,-91.0,127.0,127.0,127.0,105.0,82.0,-72.0
127.0,127.0,126.0,127.0,127.0,148.0,126.0,128.0,14.0,-105.0,-91.0,127.0,127.0,127.0,105.0,82.0,-72.0
127.0,127.0,128.0,124.0,127.0,148.0,126.0,127.0,13.0,-105.0,-91.0,127.0,127.0,127.0,105.0,82.0,-72.0
127.0,127.0,127.0,124.0,127.0,148.0,126.0,127.0,13.0,-105.0,-91.0,127.0,127.0,127.0,105.0,82.0,-72.0
127.0,127.0,127.0,124.0,127.0,148.0,126.0,127.0,13.0,-105.0,-91.0,127.0,127.0,127.0,105.0,82.0,-72.0
127.0,126.0,127.0,124.0,127.0,148.0,126.0,127.0,13.0,-105.0,-91.0,127.0,127.0,127.0,105.0,82.0,-72.0
127.0,127.0,129.0,125.0,127.0,148.0,127.0,127.0,13.0,-105.0,-91.0,127.0,127.0,127.0,105.0,82.0,-72.0
127.0,127.0,129.0,125.0,127.0,148.0,127.0,127.0,13.0,-105.0,-91.0,127.0,127.0,127.0,105.0,82.0,-72.0
127.0,127.0,129.0,124.0,127.0,148.0,127.0,127.0,13.0,-105.0,-91.0,127.0,127.0,127.0,105.0,82.0,-72.0
127.0,127.0,128.0,124.0,127.0,148.0,126.0,127.0,13.0,-105.0,-91.0,127.0,127.0,127.0,105.0,82.0,-72.0
127.0,127.0,128.0,124.0,127.0,148.0,126.0,127.0,13.0,-105.0,-91.0,127.0,127.0,127.0,105.0,82.0,-72.0
127.0,127.0,128.0,124.0,127.0,148.0,126.0,128.0,13.0,-105.0,-91.0,127.0,127.0,127.0,105.0,82.0,-72.0
127.0,126.0,127.0,126.0,128.0,148.0,127.0,127.0,12.0,-105.0,-92.0,127.0,127.0,127.0,104.0,82.0,-72.0
127.0,126.0,127.0,126.0,128.0,148.0,127.0,127.0,12.0,-105.0,-92.0,127.0,127.0,127.0,104.0,82.0,-72.0
127.0,126.0,127.0,126.0,128.0,148.0,126.0,127.0,12.0,-105.0,-92.0,127.0,127.0,127.0,104.0,82.0,-72.0
127.0,126.0,127.0,126.0,128.0,148.0,127.0,127.0,12.0,-105.0,-92.0,127.0,127.0,127.0,104.0,82.0,-72.0
127.0,126.0,127.0,127.0,128.0,148.0,127.0,127.0,12.0,-105.0,-92.0,127.0,127.0,127.0,104.0,82.0,-72.0
127.0,126.0,127.0,127.0,128.0,148.0,127.0,127.0,12.0,-105.0,-92.0,127.0,127.0,127.0,104.0,82.0,-72.0
127.0,126.0,127.0,126.0,128.0,148.0,127.0,127.0,12.0,-105.0,-92.0,127.0,127.0,127.0,104.0,82.0,-72.0
127.0,126.0,127.0,127.0,128.0,148.0,126.0,127.0,12.0,-105.0,-92.0,127.0,127.0,127.0,104.0,82.0,-72.0
127.0,126.0,127.0,126.0,128.0,148.0,126.0,127.0,12.0,-105.0,-92.0,127.0,127.0,127.0,104.0,82.0,-72.0
127.0,126.0,127.0,126.0,128.0,148.0,126.0,127.0,12.0,-105.0,-92.0,127.0,127.0,127.0,104.0,82.0,-72.0
128.0,125.0,127.0,126.0,128.0,148.0,126.0,128.0,11.0,-105.0,-93.0,127.0,127.0,127.0,104.0,82.0,-72.0
128.0,125.0,127.0,126.0,128.0,148.0,126.0,128.0,11.0,-105.0,-93.0,127.0,127.0,127.0,104.0,82.0,-72.0
128.0,124.0,126.0,127.0,128.0,148.0,127.0,128.0,11.0,-105.0,-93.0,127.0,127.0,127.0,104.0,82.0,-72.0
128.0,124.0,126.0,127.0,128.0,148.0,126.0,128.0,11.0,-105.0,-93.0,127.0,127.0,127.0,104.0,82.0,-72.0
128.0,124.0,126.0,127.0,128.0,148.0,127.0,128.0,11.0,-105.0,-93.0,127.0,127.0,127.0,104.0,82.0,-72.0
128.0,125.0,126.0,127.0,128.0,148.0,126.0,128.0,11.0,-105.0,-93.0,127.0,127.0,127.0,104.0,82.0,-72.0
128.0,125.0,126.0,127.0,128.0,148.0,126.0,128.0,11.0,-105.0,-93.0,127.0,127.0,127.0,104.0,82.0,-72.0
128.0,125.0,126.0,126.0,128.0,148.0,126.0,128.0,11.0,-105.0,-93.0,127.0,127.0,127.0,104.0,82.0,-72.0
128.0,125.0,127.0,126.0,128.0,148.0,126.0,128.0,11.0,-105.0,-93.0,127.0,127.0,127.0,104.0,82.0,-72.0
128.0,125.0,127.0,126.0,128.0,148.0,127.0,128.0,11.0,-105.0,-93.0,127.0,127.0,127.0,104.0,82.0,-72.0
130.0,125.0,129.0,125.0,129.0,147.0,125.0,129.0,11.0,-105.0,-93.0,127.0,127.0,127.0,104.0,82.0,-72.0
130.0,124.0,128.0,126.0,129.0,147.0,126.0,129.0,11.0,-105.0,-93.0,127.0,127.0,127.0,104.0,82.0,-72.0
129.0,124.0,128.0,126.0,129.0,147.0,126.0,129.0,11.0,-105.0,-93.0,127.0,127.0,127.0,104.0,82.0,-72.0
130.0,124.0,128.0,126.0,129.0,147.0,125.0,129.0,11.0,-105.0,-93.0,127.0,127.0,127.0,104.0,82.0,-72.0
130.0,124.0,129.0,126.0,129.0,147.0,125.0,129.0,11.0,-105.0,-93.0,127.0,127.0,127.0,104.0,82.0,-72.0
130.0,124.0,129.0,126.0,129.0,147.0,125.0,129.0,11.0,-105.0,-93.0,127.0,127.0,127.0,104.0,82.0,-72.0
130.0,124.0,129.0,126.0,129.0,147.0,125.0,129.0,11.0,-105.0,-93.0,127.0,127.0,127.0,104.0,82.0,-72.0
130.0,124.0,129.0,125.0,129.0,147.0,125.0,129.0,11.0,-105.0,-93.0,127.0,127.0,127.0,104.0,82.0,-72.0
130.0,125.0,129.0,125.0,129.0,147.0,125.0,129.0,11.0,-105.0,-93.0,127.0,127.0,127.0,104.0,82.0,-72.0
130.0,125.0,129.0,125.0,129.0,147.0,125.0,129.0,11.0,-105.0,-93.0,127.0,127.0,127.0,104.0,82.0,-72.0
129.0,124.0,129.0,127.0,129.0,148.0,127.0,124.0,10.0,-105.0,-93.0,127.0,127.0,127.0,104.0,82.0,-73.0
129.0,124.0,129.0,127.0,130.0,148.0,127.0,126.0,10.0,-105.0,-93.0,127.0,127.0,127.0,104.0,82.0,-73.0
129.0,124.0,128.0,127.0,130.0,148.0,127.0,127.0,10.0,-105.0,-93.0,127.0,127.0,127.0,104.0,82.0,-73.0
129.0,124.0,128.0,127.0,130.0,148.0,128.0,128.0,10.0,-105.0,-93.0,127.0,127.0,127.0,104.0,82.0,-73.0
128.0,124.0,128.0,127.0,130.0,148.0,128.0,127.0,10.0,-105.0,-93.0,127.0,127.0,127.0,104.0,82.0,-73.0
128.0,124.0,127.0,127.0,130.0,148.0,127.0,127.0,10.0,-105.0,-93.0,127.0,127.0,127.0,104.0,82.0,-73.0
128.0,124.0,127.0,127.0,130.0,148.0,127.0,127.0,10.0,-105.0,-93.0,127.0,127.0,127.0,104.0,82.0,-73.0
128.0,124.0,127.0,127.0,130.0,148.0,127.0,127.0,10.0,-105.0,-93.0,127.0,127.0,127.0,104.0,82.0,-73.0
128.0,124.0,127.0,127.0,130.0,148.0,127.0,126.0,10.0,-105.0,-93.0,127.0,127.0,127.0,104.0,82.0,-73.0
128.0,124.0,127.0,127.0,130.0,148.0,127.0,126.0,10.0,-105.0,-93.0,127.0,127.0,127.0,104.0,82.0,-73.0
128.0,124.0,127.0,129.0,129.0,148.0,127.0,128.0,10.0,-105.0,-93.0,127.0,127.0,127.0,104.0,82.0,-73.0
128.0,124.0,127.0,129.0,129.0,148.0,128.0,129.0,10.0,-105.0,-93.0,127.0,127.0,127.0,104.0,82.0,-73.0
128.0,124.0,127.0,129.0,129.0,148.0,128.0,129.0,10.0,-105.0,-93.0,127.0,127.0,127.0,104.0,82.0,-73.0
128.0,124.0,127.0,128.0,129.0,148.0,128.0,129.0,10.0,-105.0,-93.0,127.0,127.0,127.0,104.0,82.0,-73.0
128.0,124.0,127.0,128.0,129.0,148.0,128.0,129.0,10.0,-105.0,-93.0,127.0,127.0,127.0,104.0,82.0,-73.0
128.0,125.0,127.0,128.0,129.0,148.0,127.0,129.0,10.0,-105.0,-93.0,127.0,127.0,127.0,104.0,82.0,-73.0
128.0,125.0,128.0,128.0,129.0,148.0,127.0,129.0,10.0,-105.0,-93.0,127.0,127.0,127.0,104.0,82.0,-73.0
129.0,126.0,129.0,128.0,130.0,148.0,127.0,130.0,10.0,-105.0,-93.0,127.0,127.0,127.0,104.0,82.0,-73.0
129.0,126.0,131.0,129.0,130.0,148.0,127.0,130.0,10.0,-105.0,-93.0,127.0,127.0,127.0,104.0,82.0,-73.0
128.0,124.0,127.0,129.0,129.0,148.0,127.0,128.0,10.0,-105.0,-93.0,127.0,127.0,127.0,104.0,82.0,-73.0
128.0,125.0,126.0,125.0,129.0,148.0,127.0,125.0,11.0,-105.0,-93.0,127.0,127.0,127.0,104.0,82.0,-73.0
128.0,126.0,126.0,125.0,129.0,149.0,127.0,126.0,11.0,-105.0,-93.0,127.0,127.0,127.0,104.0,82.0,-73.0
128.0,126.0,127.0,125.0,129.0,149.0,128.0,127.0,11.0,-105.0,-93.0,127.0,127.0,127.0,104.0,82.0,-73.0
128.0,126.0,127.0,125.0,129.0,149.0,128.0,127.0,11.0,-105.0,-93.0,127.0,127.0,127.0,104.0,82.0,-73.0
128.0,126.0,128.0,125.0,128.0,149.0,129.0,128.0,11.0,-105.0,-93.0,127.0,127.0,127.0,104.0,82.0,-73.0
128.0,126.0,128.0,125.0,128.0,149.0,129.0,128.0,11.0,-105.0,-93.0,127.0,127.0,127.0,104.0,82.0,-73.0
128.0,126.0,129.0,125.0,128.0,149.0,129.0,128.0,11.0,-105.0,-93.0,127.0,127.0,127.0,104.0,82.0,-73.0
128.0,126.0,130.0,125.0,128.0,149.0,128.0,128.0,11.0,-105.0,-93.0,127.0,127.0,127.0,104.0,82.0,-73.0
128.0,125.0,125.0,125.0,129.0,148.0,127.0,125.0,11.0,-105.0,-93.0,127.0,127.0,127.0,104.0,82.0,-73.0
128.0,125.0,125.0,125.0,129.0,148.0,127.0,125.0,11.0,-105.0,-93.0,127.0,127.0,127.0,104.0,82.0,-73.0
129.0,126.0,126.0,126.0,127.0,149.0,128.0,129.0,11.0,-105.0,-92.0,127.0,127.0,127.0,104.0,82.0,-73.0
129.0,126.0,126.0,126.0,127.0,149.0,128.0,129.0,11.0,-105.0,-92.0,127.0,127.0,127.0,104.0,82.0,-73.0
129.0,126.0,126.0,126.0,127.0,149.0,128.0,129.0,11.0,-105.0,-92.0,127.0,127.0,127.0,104.0,82.0,-73.0
129.0,127.0,126.0,126.0,127.0,149.0,128.0,129.0,11.0,-105.0,-92.0,127.0,127.0,127.0,104.0,82.0,-73.0
129.0,127.0,126.0,126.0,127.0,149.0,127.0,129.0,11.0,-105.0,-92.0,127.0,127.0,127.0,104.0,82.0,-73.0
129.0,127.0,126.0,126.0,127.0,148.0,128.0,129.0,11.0,-105.0,-92.0,127.0,127.0,127.0,104.0,82.0,-73.0
129.0,126.0,126.0,126.0,127.0,149.0,128.0,129.0,11.0,-105.0,-92.0,127.0,127.0,127.0,104.0,82.0,-73.0
129.0,126.0,126.0,126.0,127.0,149.0,128.0,129.0,11.0,-105.0,-92.0,127.0,127.0,127.0,104.0,82.0,-73.0
129.0,126.0,126.0,126.0,127.0,149.0,128.0,129.0,11.0,-105.0,-92.0,127.0,127.0,127.0,104.0,82.0,-73.0
129.0,126.0,126.0,126.0,127.0,149.0,128.0,129.0,11.0,-105.0,-92.0,127.0,127.0,127.0,104.0,82.0,-73.0
129.0,125.0,123.0,128.0,127.0,149.0,128.0,129.0,11.0,-106.0,-90.0,127.0,127.0,127.0,104.0,82.0,-73.0
129.0,126.0,124.0,128.0,127.0,149.0,129.0,129.0,11.0,-106.0,-90.0,127.0,127.0,127.0,104.0,82.0,-73.0
129.0,126.0,125.0,129.0,127.0,149.0,128.0,128.0,11.0,-106.0,-90.0,127.0,127.0,127.0,104.0,82.0,-73.0
129.0,126.0,126.0,129.0,127.0,149.0,129.0,128.0,11.0,-106.0,-90.0,127.0,127.0,127.0,104.0,82.0,-73.0
129.0,126.0,126.0,129.0,127.0,149.0,128.0,127.0,11.0,-106.0,-90.0,127.0,127.0,127.0,104.0,82.0,-73.0
129.0,125.0,124.0,126.0,127.0,149.0,128.0,128.0,11.0,-106.0,-90.0,127.0,127.0,127.0,104.0,82.0,-73.0
129.0,125.0,124.0,126.0,127.0,149.0,128.0,128.0,11.0,-106.0,-90.0,127.0,127.0,127.0,104.0,82.0,-73.0
129.0,125.0,123.0,127.0,127.0,149.0,128.0,129.0,11.0,-106.0,-90.0,127.0,127.0,127.0,104.0,82.0,-73.0
129.0,125.0,123.0,127.0,127.0,149.0,128.0,129.0,11.0,-106.0,-90.0,127.0,127.0,127.0,104.0,82.0,-73.0
129.0,125.0,123.0,128.0,127.0,149.0,128.0,129.0,11.0,-106.0,-90.0,127.0,127.0,127.0,104.0,82.0,-73.0
128.0,128.0,127.0,127.0,125.0,149.0,128.0,127.0,12.0,-106.0,-89.0,127.0,127.0,127.0,104.0,82.0,-73.0
128.0,128.0,127.0,127.0,125.0,149.0,128.0,127.0,12.0,-106.0,-89.0,127.0,127.0,127.0,104.0,82.0,-73.0
128.0,127.0,127.0,126.0,125.0,149.0,128.0,128.0,12.0,-106.0,-89.0,127.0,127.0,127.0,104.0,82.0,-73.0
128.0,127.0,126.0,126.0,125.0,149.0,128.0,128.0,12.0,-106.0,-89.0,127.0,127.0,127.0,104.0,82.0,-73.0
128.0,125.0,127.0,126.0,125.0,149.0,128.0,125.0,12.0,-106.0,-89.0,127.0,127.0,127.0,104.0,82.0,-73.0
128.0,126.0,126.0,126.0,125.0,149.0,128.0,125.0,12.0,-106.0,-89.0,127.0,127.0,127.0,104.0,82.0,-73.0
128.0,126.0,126.0,126.0,125.0,149.0,128.0,125.0,12.0,-106.0,-89.0,127.0,127.0,127.0,104.0,82.0,-73.0
128.0,126.0,126.0,126.0,125.0,149.0,128.0,125.0,12.0,-106.0,-89.0,127.0,127.0,127.0,104.0,82.0,-73.0
128.0,127.0,126.0,126.0,125.0,149.0,128.0,125.0,12.0,-106.0,-89.0,127.0,127.0,127.0,104.0,82.0,-73.0
128.0,127.0,126.0,127.0,125.0,149.0,128.0,126.0,12.0,-106.0,-89.0,127.0,127.0,127.0,104.0,82.0,-73.0
128.0,127.0,127.0,129.0,128.0,149.0,128.0,125.0,12.0,-106.0,-88.0,127.0,127.0,127.0,104.0,82.0,-73.0
128.0,127.0,127.0,128.0,128.0,149.0,128.0,125.0,12.0,-106.0,-88.0,127.0,127.0,127.0,104.0,82.0,-73.0
128.0,127.0,126.0,128.0,128.0,149.0,128.0,125.0,12.0,-106.0,-88.0,127.0,127.0,127.0,104.0,82.0,-73.0
128.0,126.0,126.0,127.0,127.0,149.0,128.0,125.0,12.0,-106.0,-88.0,127.0,127.0,127.0,104.0,82.0,-73.0
128.0,126.0,126.0,128.0,127.0,149.0,128.0,125.0,12.0,-106.0,-88.0,127.0,127.0,127.0,104.0,82.0,-73.0
128.0,126.0,126.0,128.0,127.0,149.0,128.0,125.0,12.0,-106.0,-88.0,127.0,127.0,127.0,104.0,82.0,-73.0
128.0,126.0,126.0,128.0,127.0,149.0,128.0,125.0,12.0,-106.0,-88.0,127.0,127.0,127.0,104.0,82.0,-73.0
128.0,126.0,127.0,128.0,128.0,149.0,128.0,126.0,12.0,-106.0,-88.0,127.0,127.0,127.0,104.0,82.0,-73.0
128.0,127.0,127.0,129.0,128.0,149.0,128.0,126.0,12.0,-106.0,-88.0,127.0,127.0,127.0,104.0,82.0,-73.0
128.0,127.0,127.0,129.0,128.0,149.0,128.0,126.0,12.0,-106.0,-88.0,127.0,127.0,127.0,104.0,82.0,-73.0
128.0,127.0,130.0,127.0,127.0,149.0,128.0,130.0,13.0,-107.0,-88.0,127.0,127.0,127.0,104.0,82.0,-73.0
128.0,127.0,130.0,127.0,127.0,149.0,128.0,130.0,13.0,-107.0,-88.0,127.0,127.0,127.0,104.0,82.0,-73.0
128.0,126.0,127.0,126.0,127.0,149.0,128.0,130.0,13.0,-107.0,-88.0,127.0,127.0,127.0,104.0,82.0,-73.0
128.0,126.0,128.0,126.0,127.0,148.0,127.0,129.0,13.0,-107.0,-88.0,127.0,127.0,127.0,104.0,82.0,-73.0
128.0,127.0,129.0,126.0,127.0,149.0,128.0,129.0,13.0,-107.0,-88.0,127.0,127.0,127.0,104.0,82.0,-73.0
128.0,127.0,130.0,126.0,127.0,149.0,128.0,130.0,13.0,-107.0,-88.0,127.0,127.0,127.0,104.0,82.0,-73.0
128.0,127.0,130.0,126.0,127.0,149.0,128.0,130.0,13.0,-107.0,-88.0,127.0,127.0,127.0,104.0,82.0,-73.0
128.0,127.0,130.0,126.0,127.0,149.0,128.0,130.0,13.0,-107.0,-88.0,127.0,127.0,127.0,104.0,82.0,-73.0
128.0,127.0,131.0,126.0,127.0,149.0,128.0,130.0,13.0,-107.0,-88.0,127.0,127.0,127.0,104.0,82.0,-73.0
128.0,127.0,131.0,126.0,127.0,149.0,128.0,130.0,13.0,-107.0,-88.0,127.0,127.0,127.0,104.0,82.0,-73.0
128.0,127.0,130.0,128.0,128.0,148.0,128.0,129.0,13.0,-107.0,-88.0,127.0,127.0,127.0,104.0,82.0,-73.0
128.0,127.0,128.0,127.0,128.0,148.0,127.0,129.0,13.0,-107.0,-88.0,127.0,127.0,127.0,104.0,82.0,-73.0
128.0,127.0,128.0,127.0,128.0,148.0,127.0,129.0,13.0,-107.0,-88.0,127.0,127.0,127.0,104.0,82.0,-73.0
128.0,127.0,128.0,127.0,128.0,148.0,127.0,129.0,13.0,-107.0,-88.0,127.0,127.0,127.0,104.0,82.0,-73.0
128.0,127.0,129.0,127.0,128.0,148.0,127.0,129.0,13.0,-107.0,-88.0,127.0,127.0,127.0,104.0,82.0,-73.0
128.0,127.0,129.0,127.0,128.0,148.0,127.0,129.0,13.0,-107.0,-88.0,127.0,127.0,127.0,104.0,82.0,-73.0
128.0,127.0,130.0,127.0,128.0,148.0,127.0,128.0,13.0,-107.0,-88.0,127.0,127.0,127.0,104.0,82.0,-73.0
128.0,127.0,130.0,127.0,128.0,148.0,128.0,128.0,13.0,-107.0,-88.0,127.0,127.0,127.0,104.0,82.0,-73.0
128.0,127.0,130.0,128.0,128.0,148.0,128.0,128.0,13.0,-107.0,-88.0,127.0,127.0,127.0,104.0,82.0,-73.0
128.0,127.0,130.0,128.0,128.0,148.0,128.0,129.0,13.0,-107.0,-88.0,127.0,127.0,127.0,104.0,82.0,-73.0
128.0,126.0,125.0,126.0,127.0,148.0,127.0,128.0,13.0,-107.0,-88.0,127.0,127.0,127.0,104.0,82.0,-73.0
128.0,126.0,125.0,126.0,127.0,148.0,128.0,128.0,13.0,-107.0,-88.0,127.0,127.0,127.0,104.0,82.0,-73.0
128.0,126.0,125.0,126.0,127.0,148.0,128.0,128.0,13.0,-107.0,-88.0,127.0,127.0,127.0,104.0,82.0,-73.0
128.0,126.0,125.0,126.0,126.0,148.0,128.0,128.0,13.0,-107.0,-88.0,127.0,127.0,127.0,104.0,82.0,-73.0
128.0,126.0,125.0,126.0,126.0,148.0,128.0,128.0,13.0,-107.0,-88.0,127.0,127.0,127.0,104.0,82.0,-73.0
128.0,127.0,125.0,127.0,126.0,148.0,127.0,128.0,13.0,-107.0,-88.0,127.0,127.0,127.0,104.0,82.0,-73.0
128.0,127.0,126.0,127.0,127.0,148.0,127.0,128.0,13.0,-107.0,-88.0,127.0,127.0,127.0,104.0,82.0,-73.0
128.0,127.0,126.0,127.0,127.0,148.0,127.0,128.0,13.0,-107.0,-88.0,127.0,127.0,127.0,104.0,82.0,-73.0
128.0,127.0,126.0,127.0,127.0,148.0,127.0,128.0,13.0,-107.0,-88.0,127.0,127.0,127.0,104.0,82.0,-73.0
128.0,127.0,126.0,127.0,127.0,149.0,128.0,128.0,13.0,-107.0,-88.0,127.0,127.0,127.0,104.0,82.0,-73.0
127.0,123.0,123.0,125.0,124.0,148.0,127.0,128.0,14.0,-107.0,-88.0,127.0,127.0,127.0,104.0,82.0,-73.0
127.0,123.0,122.0,125.0,124.0,148.0,126.0,128.0,14.0,-107.0,-88.0,127.0,127.0,127.0,104.0,82.0,-73.0
127.0,123.0,122.0,125.0,125.0,148.0,126.0,127.0,14.0,-107.0,-88.0,127.0,127.0,127.0,104.0,82.0,-73.0
127.0,124.0,122.0,125.0,125.0,148.0,126.0,128.0,14.0,-107.0,-88.0,127.0,127.0,127.0,104.0,82.0,-73.0
127.0,124.0,123.0,126.0,125.0,148.0,126.0,128.0,14.0,-107.0,-88.0,127.0,127.0,127.0,104.0,82.0,-73.0
127.0,124.0,123.0,126.0,125.0,148.0,127.0,128.0,14.0,-107.0,-88.0,127.0,127.0,127.0,104.0,82.0,-73.0
127.0,125.0,123.0,126.0,125.0,148.0,127.0,128.0,14.0,-107.0,-88.0,127.0,127.0,127.0,104.0,82.0,-73.0
127.0,125.0,123.0,126.0,125.0,148.0,127.0,128.0,14.0,-107.0,-88.0,127.0,127.0,127.0,104.0,82.0,-73.0
128.0,126.0,124.0,126.0,126.0,148.0,127.0,128.0,14.0,-107.0,-88.0,127.0,127.0,127.0,104.0,82.0,-73.0
127.0,124.0,124.0,125.0,124.0,148.0,127.0,127.0,14.0,-107.0,-88.0,127.0,127.0,127.0,104.0,82.0,-73.0
128.0,125.0,124.0,126.0,126.0,148.0,127.0,128.0,14.0,-107.0,-87.0,127.0,127.0,127.0,104.0,82.0,-73.0
128.0,124.0,123.0,126.0,126.0,148.0,127.0,128.0,14.0,-107.0,-87.0,127.0,127.0,127.0,104.0,82.0,-73.0
128.0,124.0,122.0,125.0,125.0,148.0,127.0,128.0,14.0,-107.0,-87.0,127.0,127.0,127.0,104.0,82.0,-73.0
128.0,124.0,121.0,125.0,125.0,148.0,127.0,128.0,14.0,-107.0,-87.0,127.0,127.0,127.0,104.0,82.0,-73.0
128.0,124.0,120.0,125.0,125.0,148.0,127.0,128.0,14.0,-107.0,-87.0,127.0,127.0,127.0,104.0,82.0,-73.0
128.0,124.0,121.0,125.0,125.0,148.0,128.0,128.0,14.0,-107.0,-87.0,127.0,127.0,127.0,104.0,82.0,-73.0
128.0,124.0,121.0,125.0,125.0,148.0,128.0,128.0,14.0,-107.0,-87.0,127.0,127.0,127.0,104.0,82.0,-73.0
128.0,124.0,122.0,125.0,126.0,148.0,128.0,128.0,14.0,-107.0,-87.0,127.0,127.0,127.0,104.0,82.0,-73.0
128.0,125.0,125.0,127.0,126.0,148.0,127.0,128.0,14.0,-107.0,-87.0,127.0,127.0,127.0,104.0,82.0,-73.0
128.0,125.0,124.0,127.0,126.0,148.0,127.0,128.0,14.0,-107.0,-87.0,127.0,127.0,127.0,104.0,82.0,-73.0
132.0,126.0,131.0,126.0,128.0,150.0,129.0,130.0,14.0,-107.0,-87.0,127.0,127.0,127.0,104.0,82.0,-73.0
133.0,126.0,131.0,126.0,128.0,150.0,129.0,130.0,14.0,-107.0,-87.0,127.0,127.0,127.0,104.0,82.0,-73.0
133.0,126.0,131.0,125.0,128.0,150.0,130.0,130.0,14.0,-107.0,-87.0,127.0,127.0,127.0,104.0,82.0,-73.0
133.0,126.0,130.0,126.0,128.0,150.0,130.0,130.0,14.0,-107.0,-87.0,127.0,127.0,127.0,104.0,82.0,-73.0
133.0,126.0,129.0,126.0,128.0,150.0,130.0,130.0,14.0,-107.0,-87.0,127.0,127.0,127.0,104.0,82.0,-73.0
134.0,126.0,129.0,126.0,128.0,150.0,130.0,130.0,14.0,-107.0,-87.0,127.0,127.0,127.0,104.0,82.0,-73.0
134.0,126.0,128.0,126.0,128.0,150.0,130.0,130.0,14.0,-107.0,-87.0,127.0,127.0,127.0,104.0,82.0,-73.0
132.0,126.0,131.0,126.0,128.0,149.0,129.0,130.0,14.0,-107.0,-87.0,127.0,127.0,127.0,104.0,82.0,-73.0
132.0,126.0,131.0,126.0,128.0,149.0,129.0,130.0,14.0,-107.0,-87.0,127.0,127.0,127.0,104.0,82.0,-73.0
132.0,126.0,131.0,126.0,127.0,149.0,129.0,130.0,14.0,-107.0,-87.0,127.0,127.0,127.0,104.0,82.0,-73.0
133.0,122.0,121.0,133.0,134.0,155.0,131.0,129.0,14.0,-107.0,-87.0,127.0,127.0,127.0,104.0,82.0,-73.0
133.0,122.0,121.0,134.0,134.0,155.0,131.0,129.0,14.0,-107.0,-87.0,127.0,127.0,127.0,104.0,82.0,-73.0
133.0,122.0,121.0,134.0,134.0,156.0,132.0,129.0,14.0,-107.0,-87.0,127.0,127.0,127.0,104.0,82.0,-73.0
133.0,122.0,122.0,134.0,134.0,156.0,132.0,129.0,14.0,-107.0,-87.0,127.0,127.0,127.0,104.0,82.0,-73.0
133.0,122.0,122.0,134.0,134.0,156.0,132.0,129.0,14.0,-107.0,-87.0,127.0,127.0,127.0,104.0,82.0,-73.0
134.0,122.0,121.0,132.0,134.0,154.0,129.0,129.0,14.0,-107.0,-87.0,127.0,127.0,127.0,104.0,82.0,-73.0
134.0,123.0,121.0,133.0,134.0,154.0,130.0,129.0,14.0,-107.0,-87.0,127.0,127.0,127.0,104.0,82.0,-73.0
134.0,122.0,121.0,133.0,134.0,155.0,130.0,129.0,14.0,-107.0,-87.0,127.0,127.0,127.0,104.0,82.0,-73.0
134.0,122.0,121.0,133.0,134.0,155.0,130.0,129.0,14.0,-107.0,-87.0,127.0,127.0,127.0,104.0,82.0,-73.0
134.0,122.0,121.0,133.0,134.0,155.0,130.0,129.0,14.0,-107.0,-87.0,127.0,127.0,127.0,104.0,82.0,-73.0
126.0,120.0,123.0,136.0,135.0,237.0,183.0,127.0,14.0,-106.0,-87.0,126.0,126.0,127.0,104.0,82.0,-73.0
125.0,120.0,123.0,136.0,134.0,237.0,184.0,127.0,14.0,-106.0,-87.0,126.0,126.0,127.0,104.0,82.0,-73.0
125.0,120.0,123.0,137.0,134.0,238.0,185.0,127.0,14.0,-106.0,-87.0,126.0,126.0,127.0,104.0,82.0,-73.0
125.0,120.0,123.0,136.0,134.0,238.0,186.0,127.0,14.0,-106.0,-87.0,126.0,126.0,127.0,104.0,82.0,-73.0
126.0,119.0,121.0,135.0,134.0,226.0,174.0,126.0,14.0,-106.0,-87.0,126.0,126.0,127.0,104.0,82.0,-73.0
126.0,119.0,121.0,135.0,134.0,228.0,177.0,126.0,14.0,-106.0,-87.0,126.0,126.0,127.0,104.0,82.0,-73.0
126.0,120.0,121.0,136.0,134.0,230.0,179.0,127.0,14.0,-106.0,-87.0,126.0,126.0,127.0,104.0,82.0,-73.0
126.0,120.0,122.0,136.0,134.0,232.0,177.0,127.0,14.0,-106.0,-87.0,126.0,126.0,127.0,104.0,82.0,-73.0
126.0,120.0,122.0,136.0,134.0,234.0,179.0,127.0,14.0,-106.0,-87.0,126.0,126.0,127.0,104.0,82.0,-73.0
126.0,120.0,122.0,136.0,135.0,236.0,181.0,127.0,14.0,-106.0,-87.0,126.0,126.0,127.0,104.0,82.0,-73.0
120.0,115.0,127.0,135.0,133.0,0.0,22.0,126.0,14.0,-103.0,-87.0,125.0,126.0,127.0,104.0,82.0,-73.0
120.0,115.0,128.0,135.0,133.0,0.0,22.0,126.0,14.0,-103.0,-87.0,125.0,126.0,127.0,104.0,82.0,-73.0
120.0,115.0,128.0,135.0,133.0,0.0,22.0,126.0,14.0,-103.0,-87.0,125.0,126.0,127.0,104.0,82.0,-73.0
121.0,116.0,124.0,135.0,132.0,0.0,22.0,125.0,14.0,-103.0,-87.0,125.0,126.0,127.0,104.0,82.0,-73.0
121.0,116.0,125.0,135.0,132.0,0.0,22.0,125.0,14.0,-103.0,-87.0,125.0,126.0,127.0,104.0,82.0,-73.0
121.0,115.0,125.0,135.0,132.0,0.0,22.0,126.0,14.0,-103.0,-87.0,125.0,126.0,127.0,104.0,82.0,-73.0
121.0,115.0,125.0,135.0,132.0,0.0,22.0,126.0,14.0,-103.0,-87.0,125.0,126.0,127.0,104.0,82.0,-73.0
121.0,115.0,126.0,135.0,132.0,0.0,22.0,126.0,14.0,-103.0,-87.0,125.0,126.0,127.0,104.0,82.0,-73.0
120.0,115.0,126.0,135.0,132.0,0.0,22.0,126.0,14.0,-103.0,-87.0,125.0,126.0,127.0,104.0,82.0,-73.0
120.0,115.0,126.0,135.0,132.0,0.0,22.0,126.0,14.0,-103.0,-87.0,125.0,126.0,127.0,104.0,82.0,-73.0
120.0,118.0,129.0,137.0,136.0,0.0,22.0,130.0,14.0,-100.0,-87.0,124.0,126.0,-128.0,104.0,82.0,-73.0
120.0,118.0,129.0,137.0,136.0,0.0,22.0,130.0,14.0,-100.0,-87.0,124.0,126.0,-128.0,104.0,82.0,-73.0
119.0,117.0,128.0,136.0,135.0,0.0,22.0,129.0,14.0,-100.0,-87.0,124.0,126.0,-128.0,104.0,82.0,-73.0
119.0,117.0,128.0,136.0,135.0,0.0,22.0,130.0,14.0,-100.0,-87.0,124.0,126.0,-128.0,104.0,82.0,-73.0
119.0,118.0,128.0,136.0,135.0,0.0,22.0,130.0,14.0,-100.0,-87.0,124.0,126.0,-128.0,104.0,82.0,-73.0
119.0,118.0,129.0,136.0,135.0,0.0,22.0,130.0,14.0,-100.0,-87.0,124.0,126.0,-128.0,104.0,82.0,-73.0
119.0,118.0,129.0,137.0,135.0,0.0,22.0,130.0,14.0,-100.0,-87.0,124.0,126.0,-128.0,104.0,82.0,-73.0
119.0,118.0,130.0,137.0,136.0,0.0,22.0,130.0,14.0,-100.0,-87.0,124.0,126.0,-128.0,104.0,82.0,-73.0
120.0,118.0,130.0,137.0,136.0,0.0,22.0,130.0,14.0,-100.0,-87.0,124.0,126.0,-128.0,104.0,82.0,-73.0
120.0,118.0,130.0,137.0,136.0,0.0,22.0,130.0,14.0,-100.0,-87.0,124.0,126.0,-128.0,104.0,82.0,-73.0
124.0,120.0,135.0,138.0,135.0,254.0,194.0,136.0,14.0,-98.0,-87.0,123.0,126.0,-128.0,104.0,82.0,-73.0
123.0,120.0,134.0,138.0,135.0,254.0,194.0,134.0,14.0,-98.0,-87.0,123.0,126.0,-128.0,104.0,82.0,-73.0
123.0,120.0,134.0,138.0,135.0,254.0,194.0,134.0,14.0,-98.0,-87.0,123.0,126.0,-128.0,104.0,82.0,-73.0
123.0,120.0,134.0,138.0,135.0,254.0,195.0,135.0,14.0,-98.0,-87.0,123.0,126.0,-128.0,104.0,82.0,-73.0
123.0,120.0,134.0,138.0,135.0,254.0,195.0,135.0,14.0,-98.0,-87.0,123.0,126.0,-128.0,104.0,82.0,-73.0
123.0,120.0,135.0,138.0,135.0,254.0,194.0,135.0,14.0,-98.0,-87.0,123.0,126.0,-128.0,104.0,82.0,-73.0
124.0,120.0,135.0,138.0,135.0,254.0,195.0,135.0,14.0,-98.0,-87.0,123.0,126.0,-128.0,104.0,82.0,-73.0
124.0,120.0,135.0,138.0,135.0,254.0,195.0,135.0,14.0,-98.0,-87.0,123.0,126.0,-128.0,104.0,82.0,-73.0
124.0,120.0,135.0,138.0,135.0,254.0,194.0,135.0,14.0,-98.0,-87.0,123.0,126.0,-128.0,104.0,82.0,-73.0
124.0,120.0,135.0,138.0,135.0,254.0,194.0,136.0,14.0,-98.0,-87.0,123.0,126.0,-128.0,104.0,82.0,-73.0
127.0,122.0,138.0,140.0,133.0,254.0,195.0,140.0,13.0,-99.0,-87.0,122.0,126.0,-128.0,104.0,82.0,-73.0
127.0,122.0,138.0,140.0,133.0,254.0,194.0,140.0,13.0,-99.0,-87.0,122.0,126.0,-128.0,104.0,82.0,-73.0
127.0,122.0,138.0,140.0,133.0,254.0,195.0,140.0,13.0,-99.0,-87.0,122.0,126.0,-128.0,104.0,82.0,-73.0
127.0,122.0,137.0,140.0,133.0,254.0,194.0,139.0,13.0,-99.0,-87.0,122.0,126.0,-128.0,104.0,82.0,-73.0
127.0,122.0,137.0,140.0,133.0,254.0,194.0,139.0,13.0,-99.0,-87.0,122.0,126.0,-128.0,104.0,82.0,-73.0
127.0,122.0,137.0,140.0,133.0,254.0,194.0,139.0,13.0,-99.0,-87.0,122.0,126.0,-128.0,104.0,82.0,-73.0
127.0,122.0,137.0,140.0,133.0,254.0,195.0,139.0,13.0,-99.0,-87.0,122.0,126.0,-128.0,104.0,82.0,-73.0
127.0,122.0,137.0,140.0,133.0,254.0,195.0,139.0,13.0,-99.0,-87.0,122.0,126.0,-128.0,104.0,82.0,-73.0
127.0,122.0,137.0,140.0,133.0,254.0,194.0,139.0,13.0,-99.0,-87.0,122.0,126.0,-128.0,104.0,82.0,-73.0
127.0,122.0,137.0,141.0,133.0,254.0,194.0,139.0,13.0,-99.0,-87.0,122.0,126.0,-128.0,104.0,82.0,-73.0
126.0,122.0,134.0,137.0,131.0,254.0,194.0,131.0,13.0,-101.0,-86.0,122.0,126.0,-128.0,104.0,82.0,-73.0
126.0,122.0,134.0,136.0,131.0,254.0,195.0,131.0,13.0,-101.0,-86.0,122.0,126.0,-128.0,104.0,82.0,-73.0
126.0,122.0,134.0,136.0,130.0,254.0,195.0,131.0,13.0,-101.0,-86.0,122.0,126.0,-128.0,104.0,82.0,-73.0
125.0,122.0,134.0,136.0,130.0,254.0,195.0,130.0,13.0,-101.0,-86.0,122.0,126.0,-128.0,104.0,82.0,-73.0
125.0,122.0,134.0,136.0,130.0,254.0,194.0,130.0,13.0,-101.0,-86.0,122.0,126.0,-128.0,104.0,82.0,-73.0
125.0,122.0,134.0,136.0,130.0,254.0,194.0,130.0,13.0,-101.0,-86.0,122.0,126.0,-128.0,104.0,82.0,-73.0
125.0,122.0,135.0,136.0,130.0,254.0,194.0,130.0,13.0,-101.0,-86.0,122.0,126.0,-128.0,104.0,82.0,-73.0
125.0,122.0,135.0,136.0,130.0,254.0,194.0,130.0,13.0,-101.0,-86.0,122.0,126.0,-128.0,104.0,82.0,-73.0
125.0,122.0,135.0,136.0,130.0,254.0,195.0,129.0,13.0,-101.0,-86.0,122.0,126.0,-128.0,104.0,82.0,-73.0
126.0,123.0,134.0,137.0,131.0,254.0,195.0,131.0,13.0,-101.0,-86.0,122.0,126.0,-128.0,104.0,82.0,-73.0
119.0,122.0,134.0,131.0,125.0,254.0,195.0,122.0,13.0,-102.0,-84.0,122.0,126.0,-128.0,104.0,82.0,-73.0
119.0,122.0,134.0,131.0,125.0,254.0,194.0,122.0,13.0,-102.0,-84.0,122.0,126.0,-128.0,104.0,82.0,-73.0
119.0,123.0,134.0,130.0,125.0,254.0,195.0,121.0,13.0,-102.0,-84.0,122.0,126.0,-128.0,104.0,82.0,-73.0
119.0,123.0,134.0,131.0,124.0,254.0,194.0,121.0,13.0,-102.0,-84.0,122.0,126.0,-128.0,104.0,82.0,-73.0
119.0,123.0,135.0,130.0,124.0,254.0,195.0,121.0,13.0,-102.0,-84.0,122.0,126.0,-128.0,104.0,82.0,-73.0
119.0,123.0,135.0,130.0,124.0,254.0,195.0,121.0,13.0,-102.0,-84.0,122.0,126.0,-128.0,104.0,82.0,-73.0
