emg1,emg2,emg3,emg4,emg5,emg6,emg7,emg8,acc_x,acc_y,acc_z,gyro_x,gyro_y,gyro_z,angle_pitch,angle_roll,angle_yaw
130.0,125.0,129.0,127.0,128.0,153.0,127.0,127.0,12.0,-102.0,-93.0,127.0,127.0,127.0,103.0,81.0,-5.0
130.0,126.0,129.0,127.0,128.0,153.0,127.0,127.0,12.0,-102.0,-93.0,127.0,127.0,127.0,103.0,81.0,-5.0
130.0,127.0,129.0,127.0,128.0,153.0,127.0,127.0,12.0,-102.0,-93.0,127.0,127.0,127.0,103.0,81.0,-5.0
130.0,127.0,130.0,127.0,128.0,153.0,126.0,127.0,12.0,-102.0,-93.0,127.0,127.0,127.0,103.0,81.0,-5.0
131.0,138.0,129.0,128.0,128.0,153.0,129.0,129.0,12.0,-102.0,-93.0,127.0,127.0,127.0,102.0,81.0,-5.0
131.0,140.0,129.0,127.0,128.0,153.0,129.0,129.0,12.0,-102.0,-93.0,127.0,127.0,127.0,102.0,81.0,-5.0
131.0,142.0,129.0,127.0,128.0,153.0,129.0,130.0,12.0,-102.0,-93.0,127.0,127.0,127.0,102.0,81.0,-5.0
131.0,143.0,128.0,126.0,127.0,153.0,130.0,130.0,12.0,-102.0,-93.0,127.0,127.0,127.0,102.0,81.0,-5.0
131.0,143.0,128.0,126.0,127.0,153.0,130.0,130.0,12.0,-102.0,-93.0,127.0,127.0,127.0,102.0,81.0,-5.0
131.0,141.0,128.0,126.0,127.0,153.0,131.0,130.0,12.0,-102.0,-93.0,127.0,127.0,127.0,102.0,81.0,-5.0
131.0,137.0,128.0,126.0,127.0,153.0,131.0,130.0,12.0,-102.0,-93.0,127.0,127.0,127.0,102.0,81.0,-5.0
131.0,133.0,127.0,126.0,127.0,153.0,131.0,130.0,12.0,-102.0,-93.0,127.0,127.0,127.0,102.0,81.0,-5.0
130.0,130.0,127.0,125.0,126.0,153.0,130.0,130.0,12.0,-102.0,-93.0,127.0,127.0,127.0,102.0,81.0,-5.0
130.0,130.0,127.0,125.0,126.0,153.0,129.0,129.0,12.0,-102.0,-93.0,127.0,127.0,127.0,102.0,81.0,-5.0
130.0,124.0,125.0,125.0,127.0,153.0,123.0,128.0,12.0,-102.0,-93.0,127.0,127.0,127.0,102.0,81.0,-5.0
130.0,124.0,125.0,124.0,127.0,153.0,124.0,128.0,12.0,-102.0,-93.0,127.0,127.0,127.0,102.0,81.0,-5.0
130.0,125.0,125.0,124.0,127.0,153.0,124.0,128.0,12.0,-102.0,-93.0,127.0,127.0,127.0,102.0,81.0,-5.0
130.0,125.0,126.0,124.0,127.0,153.0,124.0,128.0,12.0,-102.0,-93.0,127.0,127.0,127.0,102.0,81.0,-5.0
130.0,125.0,126.0,125.0,127.0,153.0,124.0,128.0,12.0,-102.0,-93.0,127.0,127.0,127.0,102.0,81.0,-5.0
130.0,125.0,127.0,125.0,127.0,153.0,123.0,128.0,12.0,-102.0,-93.0,127.0,127.0,127.0,102.0,81.0,-5.0
130.0,125.0,127.0,125.0,127.0,153.0,123.0,128.0,12.0,-102.0,-93.0,127.0,127.0,127.0,102.0,81.0,-5.0
130.0,125.0,128.0,125.0,127.0,153.0,123.0,128.0,12.0,-102.0,-93.0,127.0,127.0,127.0,102.0,81.0,-5.0
130.0,124.0,128.0,126.0,127.0,153.0,122.0,129.0,12.0,-102.0,-93.0,127.0,127.0,127.0,102.0,81.0,-5.0
130.0,124.0,125.0,125.0,127.0,153.0,123.0,128.0,12.0,-102.0,-93.0,127.0,127.0,127.0,102.0,81.0,-5.0
129.0,125.0,127.0,125.0,126.0,153.0,131.0,129.0,12.0,-102.0,-93.0,127.0,127.0,127.0,102.0,81.0,-5.0
129.0,125.0,127.0,126.0,126.0,153.0,132.0,129.0,12.0,-102.0,-93.0,127.0,127.0,127.0,102.0,81.0,-5.0
130.0,125.0,127.0,126.0,126.0,153.0,133.0,129.0,12.0,-102.0,-93.0,127.0,127.0,127.0,102.0,81.0,-5.0
130.0,125.0,127.0,126.0,127.0,153.0,134.0,129.0,12.0,-102.0,-93.0,127.0,127.0,127.0,102.0,81.0,-5.0
130.0,125.0,127.0,126.0,127.0,153.0,135.0,130.0,12.0,-102.0,-93.0,127.0,127.0,127.0,102.0,81.0,-5.0
130.0,125.0,127.0,126.0,126.0,153.0,135.0,130.0,12.0,-102.0,-93.0,127.0,127.0,127.0,102.0,81.0,-5.0
130.0,124.0,127.0,126.0,126.0,153.0,135.0,130.0,12.0,-102.0,-93.0,127.0,127.0,127.0,102.0,81.0,-5.0
130.0,124.0,127.0,126.0,126.0,153.0,134.0,130.0,12.0,-102.0,-93.0,127.0,127.0,127.0,102.0,81.0,-5.0
129.0,125.0,127.0,126.0,126.0,153.0,129.0,129.0,12.0,-102.0,-93.0,127.0,127.0,127.0,102.0,81.0,-5.0
129.0,126.0,127.0,125.0,126.0,153.0,130.0,129.0,12.0,-102.0,-93.0,127.0,127.0,127.0,102.0,81.0,-5.0
129.0,121.0,127.0,126.0,126.0,153.0,127.0,130.0,13.0,-102.0,-93.0,127.0,127.0,127.0,102.0,81.0,-5.0
129.0,122.0,127.0,126.0,126.0,153.0,127.0,130.0,13.0,-102.0,-93.0,127.0,127.0,127.0,102.0,81.0,-5.0
129.0,122.0,127.0,127.0,126.0,153.0,127.0,130.0,13.0,-102.0,-93.0,127.0,127.0,127.0,102.0,81.0,-5.0
130.0,122.0,127.0,127.0,126.0,153.0,127.0,130.0,13.0,-102.0,-93.0,127.0,127.0,127.0,102.0,81.0,-5.0
130.0,122.0,127.0,127.0,126.0,153.0,127.0,130.0,13.0,-102.0,-93.0,127.0,127.0,127.0,102.0,81.0,-5.0
130.0,122.0,127.0,127.0,126.0,153.0,127.0,130.0,13.0,-102.0,-93.0,127.0,127.0,127.0,102.0,81.0,-5.0
129.0,121.0,127.0,126.0,126.0,153.0,125.0,130.0,13.0,-102.0,-93.0,127.0,127.0,127.0,102.0,81.0,-5.0
129.0,121.0,127.0,126.0,126.0,153.0,125.0,130.0,13.0,-102.0,-93.0,127.0,127.0,127.0,102.0,81.0,-5.0
129.0,121.0,126.0,126.0,126.0,153.0,125.0,130.0,13.0,-102.0,-93.0,127.0,127.0,127.0,102.0,81.0,-5.0
129.0,121.0,126.0,126.0,126.0,153.0,126.0,130.0,13.0,-102.0,-93.0,127.0,127.0,127.0,102.0,81.0,-5.0
130.0,128.0,127.0,126.0,127.0,153.0,127.0,129.0,13.0,-102.0,-93.0,127.0,127.0,127.0,102.0,81.0,-5.0
130.0,129.0,127.0,126.0,127.0,153.0,127.0,128.0,13.0,-102.0,-93.0,127.0,127.0,127.0,102.0,81.0,-5.0
130.0,129.0,127.0,126.0,128.0,153.0,127.0,128.0,13.0,-102.0,-93.0,127.0,127.0,127.0,102.0,81.0,-5.0
130.0,128.0,127.0,126.0,128.0,153.0,127.0,128.0,13.0,-102.0,-93.0,127.0,127.0,127.0,102.0,81.0,-5.0
130.0,126.0,127.0,126.0,128.0,153.0,127.0,128.0,13.0,-102.0,-93.0,127.0,127.0,127.0,102.0,81.0,-5.0
130.0,125.0,127.0,126.0,128.0,153.0,127.0,128.0,13.0,-102.0,-93.0,127.0,127.0,127.0,102.0,81.0,-5.0
130.0,125.0,126.0,125.0,127.0,153.0,127.0,129.0,13.0,-102.0,-93.0,127.0,127.0,127.0,102.0,81.0,-5.0
130.0,125.0,126.0,125.0,127.0,153.0,127.0,129.0,13.0,-102.0,-93.0,127.0,127.0,127.0,102.0,81.0,-5.0
130.0,126.0,126.0,125.0,127.0,153.0,127.0,129.0,13.0,-102.0,-93.0,127.0,127.0,127.0,102.0,81.0,-5.0
130.0,127.0,127.0,126.0,127.0,153.0,127.0,129.0,13.0,-102.0,-93.0,127.0,127.0,127.0,102.0,81.0,-5.0
129.0,120.0,127.0,125.0,127.0,153.0,134.0,129.0,12.0,-101.0,-93.0,127.0,127.0,127.0,101.0,81.0,-5.0
129.0,120.0,127.0,125.0,127.0,153.0,135.0,129.0,12.0,-101.0,-93.0,127.0,127.0,127.0,101.0,81.0,-5.0
129.0,120.0,128.0,125.0,127.0,153.0,135.0,129.0,12.0,-101.0,-93.0,127.0,127.0,127.0,101.0,81.0,-5.0
130.0,121.0,128.0,125.0,127.0,153.0,135.0,129.0,12.0,-101.0,-93.0,127.0,127.0,127.0,101.0,81.0,-5.0
130.0,121.0,128.0,125.0,127.0,153.0,135.0,130.0,12.0,-101.0,-93.0,127.0,127.0,127.0,101.0,81.0,-5.0
129.0,121.0,128.0,127.0,127.0,153.0,127.0,128.0,12.0,-101.0,-93.0,127.0,127.0,127.0,101.0,81.0,-5.0
129.0,120.0,128.0,126.0,127.0,153.0,129.0,128.0,12.0,-101.0,-93.0,127.0,127.0,127.0,101.0,81.0,-5.0
129.0,120.0,128.0,126.0,127.0,153.0,130.0,128.0,12.0,-101.0,-93.0,127.0,127.0,127.0,101.0,81.0,-5.0
129.0,120.0,128.0,126.0,127.0,153.0,131.0,128.0,12.0,-101.0,-93.0,127.0,127.0,127.0,101.0,81.0,-5.0
129.0,120.0,127.0,125.0,127.0,153.0,132.0,129.0,12.0,-101.0,-93.0,127.0,127.0,127.0,101.0,81.0,-5.0
129.0,125.0,127.0,127.0,128.0,153.0,130.0,128.0,12.0,-101.0,-93.0,127.0,127.0,127.0,101.0,81.0,-5.0
129.0,125.0,127.0,127.0,128.0,153.0,130.0,128.0,12.0,-101.0,-93.0,127.0,127.0,127.0,101.0,81.0,-5.0
129.0,124.0,127.0,127.0,128.0,153.0,129.0,128.0,12.0,-101.0,-93.0,127.0,127.0,127.0,101.0,81.0,-5.0
129.0,128.0,127.0,127.0,128.0,153.0,128.0,128.0,12.0,-101.0,-93.0,127.0,127.0,127.0,101.0,81.0,-5.0
129.0,127.0,127.0,127.0,128.0,154.0,129.0,128.0,12.0,-101.0,-93.0,127.0,127.0,127.0,101.0,81.0,-5.0
129.0,127.0,127.0,127.0,128.0,154.0,129.0,128.0,12.0,-101.0,-93.0,127.0,127.0,127.0,101.0,81.0,-5.0
129.0,126.0,127.0,127.0,128.0,153.0,130.0,128.0,12.0,-101.0,-93.0,127.0,127.0,127.0,101.0,81.0,-5.0
129.0,126.0,127.0,127.0,128.0,153.0,130.0,128.0,12.0,-101.0,-93.0,127.0,127.0,127.0,101.0,81.0,-5.0
129.0,125.0,127.0,127.0,128.0,153.0,130.0,128.0,12.0,-101.0,-93.0,127.0,127.0,127.0,101.0,81.0,-5.0
129.0,125.0,127.0,127.0,128.0,153.0,130.0,128.0,12.0,-101.0,-93.0,127.0,127.0,127.0,101.0,81.0,-5.0
129.0,125.0,128.0,127.0,127.0,153.0,131.0,128.0,12.0,-101.0,-93.0,127.0,127.0,127.0,101.0,81.0,-5.0
129.0,125.0,128.0,127.0,127.0,153.0,131.0,128.0,12.0,-101.0,-93.0,127.0,127.0,127.0,101.0,81.0,-5.0
129.0,125.0,128.0,127.0,127.0,153.0,131.0,128.0,12.0,-101.0,-93.0,127.0,127.0,127.0,101.0,81.0,-5.0
129.0,125.0,127.0,127.0,128.0,153.0,132.0,129.0,12.0,-101.0,-93.0,127.0,127.0,127.0,101.0,81.0,-5.0
129.0,125.0,127.0,127.0,128.0,153.0,132.0,129.0,12.0,-101.0,-93.0,127.0,127.0,127.0,101.0,81.0,-5.0
129.0,125.0,127.0,127.0,128.0,153.0,132.0,129.0,12.0,-101.0,-93.0,127.0,127.0,127.0,101.0,81.0,-5.0
129.0,125.0,127.0,127.0,128.0,153.0,132.0,129.0,12.0,-101.0,-93.0,127.0,127.0,127.0,101.0,81.0,-5.0
129.0,125.0,127.0,127.0,128.0,153.0,132.0,128.0,12.0,-101.0,-93.0,127.0,127.0,127.0,101.0,81.0,-5.0
129.0,125.0,127.0,127.0,128.0,153.0,132.0,128.0,12.0,-101.0,-93.0,127.0,127.0,127.0,101.0,81.0,-5.0
129.0,125.0,127.0,127.0,128.0,153.0,131.0,128.0,12.0,-101.0,-93.0,127.0,127.0,127.0,101.0,81.0,-5.0
129.0,124.0,126.0,126.0,127.0,153.0,125.0,129.0,12.0,-101.0,-93.0,127.0,127.0,127.0,101.0,81.0,-5.0
129.0,123.0,126.0,126.0,127.0,153.0,124.0,129.0,12.0,-101.0,-93.0,127.0,127.0,127.0,101.0,81.0,-5.0
129.0,124.0,126.0,126.0,127.0,153.0,129.0,126.0,12.0,-101.0,-93.0,127.0,127.0,127.0,101.0,81.0,-5.0
129.0,124.0,126.0,126.0,127.0,153.0,129.0,126.0,12.0,-101.0,-93.0,127.0,127.0,127.0,101.0,81.0,-5.0
129.0,124.0,126.0,126.0,127.0,153.0,129.0,126.0,12.0,-101.0,-93.0,127.0,127.0,127.0,101.0,81.0,-5.0
129.0,124.0,126.0,126.0,127.0,153.0,128.0,126.0,12.0,-101.0,-93.0,127.0,127.0,127.0,101.0,81.0,-5.0
129.0,124.0,126.0,126.0,127.0,153.0,128.0,127.0,12.0,-101.0,-93.0,127.0,127.0,127.0,101.0,81.0,-5.0
129.0,124.0,126.0,126.0,127.0,153.0,128.0,127.0,12.0,-101.0,-93.0,127.0,127.0,127.0,101.0,81.0,-5.0
129.0,124.0,126.0,126.0,127.0,153.0,127.0,128.0,12.0,-101.0,-93.0,127.0,127.0,127.0,101.0,81.0,-5.0
129.0,124.0,126.0,126.0,127.0,153.0,126.0,128.0,12.0,-101.0,-93.0,127.0,127.0,127.0,101.0,81.0,-5.0
129.0,125.0,127.0,128.0,127.0,153.0,126.0,128.0,12.0,-101.0,-93.0,127.0,127.0,127.0,101.0,81.0,-5.0
128.0,124.0,126.0,128.0,127.0,153.0,127.0,128.0,12.0,-101.0,-93.0,127.0,127.0,127.0,101.0,81.0,-5.0
128.0,123.0,127.0,128.0,127.0,153.0,127.0,128.0,12.0,-101.0,-93.0,127.0,127.0,127.0,101.0,81.0,-5.0
128.0,122.0,127.0,128.0,127.0,153.0,128.0,128.0,12.0,-101.0,-93.0,127.0,127.0,127.0,101.0,81.0,-5.0
128.0,122.0,127.0,128.0,127.0,153.0,128.0,128.0,12.0,-101.0,-93.0,127.0,127.0,127.0,101.0,81.0,-5.0
128.0,122.0,128.0,128.0,127.0,153.0,128.0,128.0,12.0,-101.0,-93.0,127.0,127.0,127.0,101.0,81.0,-5.0
128.0,122.0,128.0,128.0,127.0,153.0,128.0,128.0,12.0,-101.0,-93.0,127.0,127.0,127.0,101.0,81.0,-5.0
128.0,122.0,128.0,128.0,128.0,153.0,128.0,128.0,12.0,-101.0,-93.0,127.0,127.0,127.0,101.0,81.0,-5.0
128.0,122.0,127.0,128.0,128.0,153.0,128.0,128.0,12.0,-101.0,-93.0,127.0,127.0,127.0,101.0,81.0,-5.0
128.0,122.0,127.0,128.0,128.0,153.0,128.0,128.0,12.0,-101.0,-93.0,127.0,127.0,127.0,101.0,81.0,-5.0
127.0,124.0,126.0,126.0,127.0,153.0,129.0,128.0,12.0,-101.0,-94.0,127.0,127.0,127.0,101.0,81.0,-5.0
127.0,124.0,127.0,126.0,127.0,153.0,130.0,128.0,12.0,-101.0,-94.0,127.0,127.0,127.0,101.0,81.0,-5.0
127.0,124.0,127.0,126.0,127.0,153.0,130.0,128.0,12.0,-101.0,-94.0,127.0,127.0,127.0,101.0,81.0,-5.0
127.0,124.0,127.0,126.0,127.0,153.0,130.0,128.0,12.0,-101.0,-94.0,127.0,127.0,127.0,101.0,81.0,-5.0
127.0,124.0,127.0,127.0,128.0,153.0,130.0,128.0,12.0,-101.0,-94.0,127.0,127.0,127.0,101.0,81.0,-5.0
127.0,124.0,127.0,127.0,128.0,153.0,129.0,128.0,12.0,-101.0,-94.0,127.0,127.0,127.0,101.0,81.0,-5.0
127.0,124.0,126.0,127.0,128.0,153.0,129.0,128.0,12.0,-101.0,-94.0,127.0,127.0,127.0,101.0,81.0,-5.0
127.0,124.0,127.0,127.0,128.0,153.0,129.0,128.0,12.0,-101.0,-94.0,127.0,127.0,127.0,101.0,81.0,-5.0
127.0,124.0,127.0,127.0,128.0,153.0,129.0,128.0,12.0,-101.0,-94.0,127.0,127.0,127.0,101.0,81.0,-5.0
127.0,124.0,126.0,126.0,126.0,153.0,128.0,128.0,12.0,-101.0,-94.0,127.0,127.0,127.0,101.0,81.0,-5.0
127.0,122.0,127.0,127.0,127.0,153.0,132.0,131.0,12.0,-101.0,-94.0,127.0,127.0,127.0,101.0,81.0,-5.0
127.0,122.0,127.0,127.0,127.0,153.0,131.0,131.0,12.0,-101.0,-94.0,127.0,127.0,127.0,101.0,81.0,-5.0
127.0,122.0,127.0,127.0,127.0,153.0,130.0,131.0,12.0,-101.0,-94.0,127.0,127.0,127.0,101.0,81.0,-5.0
127.0,122.0,127.0,127.0,127.0,153.0,129.0,131.0,12.0,-101.0,-94.0,127.0,127.0,127.0,101.0,81.0,-5.0
127.0,122.0,127.0,127.0,127.0,153.0,128.0,130.0,12.0,-101.0,-94.0,127.0,127.0,127.0,101.0,81.0,-5.0
127.0,122.0,127.0,127.0,127.0,153.0,128.0,129.0,12.0,-101.0,-94.0,127.0,127.0,127.0,101.0,81.0,-5.0
127.0,122.0,127.0,127.0,128.0,153.0,128.0,129.0,12.0,-101.0,-94.0,127.0,127.0,127.0,101.0,81.0,-5.0
127.0,122.0,127.0,127.0,128.0,153.0,127.0,128.0,12.0,-101.0,-94.0,127.0,127.0,127.0,101.0,81.0,-5.0
127.0,122.0,126.0,126.0,127.0,153.0,132.0,130.0,12.0,-101.0,-94.0,127.0,127.0,127.0,101.0,81.0,-5.0
127.0,122.0,127.0,127.0,127.0,153.0,132.0,131.0,12.0,-101.0,-94.0,127.0,127.0,127.0,101.0,81.0,-5.0
127.0,125.0,128.0,127.0,128.0,153.0,126.0,128.0,12.0,-101.0,-93.0,127.0,127.0,127.0,101.0,81.0,-5.0
127.0,125.0,128.0,128.0,128.0,153.0,126.0,128.0,12.0,-101.0,-93.0,127.0,127.0,127.0,101.0,81.0,-5.0
127.0,125.0,128.0,128.0,128.0,153.0,126.0,128.0,12.0,-101.0,-93.0,127.0,127.0,127.0,101.0,81.0,-5.0
127.0,125.0,127.0,128.0,128.0,153.0,127.0,128.0,12.0,-101.0,-93.0,127.0,127.0,127.0,101.0,81.0,-5.0
128.0,125.0,127.0,127.0,127.0,153.0,127.0,129.0,12.0,-101.0,-93.0,127.0,127.0,127.0,101.0,81.0,-5.0
128.0,125.0,127.0,127.0,127.0,153.0,128.0,129.0,12.0,-101.0,-93.0,127.0,127.0,127.0,101.0,81.0,-5.0
128.0,125.0,127.0,127.0,127.0,153.0,129.0,129.0,12.0,-101.0,-93.0,127.0,127.0,127.0,101.0,81.0,-5.0
127.0,125.0,127.0,127.0,128.0,153.0,126.0,129.0,12.0,-101.0,-93.0,127.0,127.0,127.0,101.0,81.0,-5.0
127.0,125.0,127.0,127.0,128.0,153.0,126.0,128.0,12.0,-101.0,-93.0,127.0,127.0,127.0,101.0,81.0,-5.0
127.0,125.0,127.0,127.0,128.0,153.0,126.0,128.0,12.0,-101.0,-93.0,127.0,127.0,127.0,101.0,81.0,-5.0
128.0,125.0,128.0,126.0,127.0,152.0,127.0,128.0,12.0,-101.0,-93.0,127.0,127.0,127.0,101.0,81.0,-5.0
128.0,125.0,128.0,126.0,127.0,152.0,127.0,128.0,12.0,-101.0,-93.0,127.0,127.0,127.0,101.0,81.0,-5.0
128.0,125.0,128.0,126.0,127.0,152.0,127.0,128.0,12.0,-101.0,-93.0,127.0,127.0,127.0,101.0,81.0,-5.0
128.0,125.0,128.0,126.0,127.0,152.0,128.0,128.0,12.0,-101.0,-93.0,127.0,127.0,127.0,101.0,81.0,-5.0
128.0,125.0,128.0,127.0,127.0,152.0,128.0,128.0,12.0,-101.0,-93.0,127.0,127.0,127.0,101.0,81.0,-5.0
128.0,125.0,128.0,127.0,127.0,152.0,128.0,128.0,12.0,-101.0,-93.0,127.0,127.0,127.0,101.0,81.0,-5.0
128.0,124.0,128.0,126.0,127.0,152.0,126.0,128.0,12.0,-101.0,-93.0,127.0,127.0,127.0,101.0,81.0,-5.0
128.0,124.0,128.0,126.0,127.0,152.0,126.0,128.0,12.0,-101.0,-93.0,127.0,127.0,127.0,101.0,81.0,-5.0
128.0,125.0,128.0,126.0,127.0,152.0,126.0,128.0,12.0,-101.0,-93.0,127.0,127.0,127.0,101.0,81.0,-5.0
128.0,125.0,128.0,126.0,127.0,152.0,126.0,128.0,12.0,-101.0,-93.0,127.0,127.0,127.0,101.0,81.0,-5.0
128.0,124.0,127.0,126.0,126.0,153.0,128.0,128.0,12.0,-101.0,-93.0,127.0,127.0,127.0,101.0,81.0,-5.0
128.0,125.0,127.0,126.0,126.0,153.0,129.0,128.0,12.0,-101.0,-93.0,127.0,127.0,127.0,101.0,81.0,-5.0
128.0,124.0,127.0,126.0,126.0,153.0,129.0,128.0,12.0,-101.0,-93.0,127.0,127.0,127.0,101.0,81.0,-5.0
128.0,125.0,127.0,126.0,127.0,152.0,129.0,128.0,12.0,-101.0,-93.0,127.0,127.0,127.0,101.0,81.0,-5.0
128.0,124.0,127.0,126.0,127.0,153.0,129.0,128.0,12.0,-101.0,-93.0,127.0,127.0,127.0,101.0,81.0,-5.0
128.0,124.0,127.0,125.0,126.0,153.0,127.0,128.0,12.0,-101.0,-93.0,127.0,127.0,127.0,101.0,81.0,-5.0
128.0,124.0,127.0,125.0,126.0,153.0,127.0,128.0,12.0,-101.0,-93.0,127.0,127.0,127.0,101.0,81.0,-5.0
128.0,124.0,127.0,125.0,126.0,153.0,128.0,128.0,12.0,-101.0,-93.0,127.0,127.0,127.0,101.0,81.0,-5.0
128.0,124.0,127.0,126.0,126.0,153.0,128.0,128.0,12.0,-101.0,-93.0,127.0,127.0,127.0,101.0,81.0,-5.0
128.0,124.0,127.0,126.0,126.0,153.0,128.0,128.0,12.0,-101.0,-93.0,127.0,127.0,127.0,101.0,81.0,-5.0
128.0,125.0,128.0,126.0,127.0,152.0,128.0,128.0,12.0,-101.0,-93.0,127.0,127.0,127.0,101.0,81.0,-5.0
128.0,125.0,128.0,126.0,127.0,152.0,127.0,128.0,12.0,-101.0,-93.0,127.0,127.0,127.0,101.0,81.0,-5.0
128.0,125.0,128.0,126.0,127.0,152.0,127.0,128.0,12.0,-101.0,-93.0,127.0,127.0,127.0,101.0,81.0,-5.0
128.0,125.0,127.0,126.0,127.0,152.0,127.0,128.0,12.0,-101.0,-93.0,127.0,127.0,127.0,101.0,81.0,-5.0
128.0,125.0,129.0,127.0,128.0,152.0,128.0,129.0,12.0,-101.0,-93.0,127.0,127.0,127.0,101.0,81.0,-5.0
128.0,125.0,128.0,127.0,127.0,152.0,128.0,129.0,12.0,-101.0,-93.0,127.0,127.0,127.0,101.0,81.0,-5.0
128.0,125.0,128.0,127.0,127.0,152.0,128.0,128.0,12.0,-101.0,-93.0,127.0,127.0,127.0,101.0,81.0,-5.0
128.0,125.0,128.0,127.0,127.0,152.0,128.0,128.0,12.0,-101.0,-93.0,127.0,127.0,127.0,101.0,81.0,-5.0
128.0,125.0,128.0,126.0,127.0,152.0,128.0,128.0,12.0,-101.0,-93.0,127.0,127.0,127.0,101.0,81.0,-5.0
128.0,125.0,128.0,126.0,127.0,152.0,128.0,128.0,12.0,-101.0,-93.0,127.0,127.0,127.0,101.0,81.0,-5.0
127.0,123.0,127.0,127.0,127.0,152.0,127.0,127.0,12.0,-101.0,-93.0,127.0,127.0,127.0,101.0,81.0,-5.0
127.0,123.0,127.0,127.0,127.0,152.0,127.0,127.0,12.0,-101.0,-93.0,127.0,127.0,127.0,101.0,81.0,-5.0
127.0,123.0,127.0,127.0,127.0,152.0,127.0,127.0,12.0,-101.0,-93.0,127.0,127.0,127.0,101.0,81.0,-5.0
127.0,124.0,127.0,126.0,127.0,152.0,127.0,128.0,12.0,-101.0,-93.0,127.0,127.0,127.0,101.0,81.0,-5.0
127.0,124.0,127.0,127.0,127.0,152.0,127.0,127.0,12.0,-101.0,-93.0,127.0,127.0,127.0,101.0,81.0,-5.0
127.0,123.0,127.0,127.0,127.0,152.0,127.0,128.0,12.0,-101.0,-93.0,127.0,127.0,127.0,101.0,81.0,-5.0
127.0,123.0,127.0,127.0,127.0,152.0,127.0,128.0,12.0,-101.0,-93.0,127.0,127.0,127.0,101.0,81.0,-5.0
127.0,123.0,127.0,127.0,127.0,152.0,127.0,128.0,12.0,-101.0,-93.0,127.0,127.0,127.0,101.0,81.0,-5.0
127.0,123.0,127.0,127.0,127.0,152.0,127.0,128.0,12.0,-101.0,-93.0,127.0,127.0,127.0,101.0,81.0,-5.0
127.0,123.0,127.0,127.0,127.0,152.0,127.0,127.0,12.0,-101.0,-93.0,127.0,127.0,127.0,101.0,81.0,-5.0
126.0,128.0,127.0,127.0,126.0,152.0,127.0,128.0,12.0,-101.0,-93.0,127.0,127.0,127.0,101.0,81.0,-5.0
126.0,128.0,126.0,127.0,127.0,152.0,127.0,128.0,12.0,-101.0,-93.0,127.0,127.0,127.0,101.0,81.0,-5.0
126.0,128.0,127.0,126.0,126.0,152.0,127.0,128.0,12.0,-101.0,-93.0,127.0,127.0,127.0,101.0,81.0,-5.0
126.0,128.0,127.0,126.0,126.0,152.0,127.0,128.0,12.0,-101.0,-93.0,127.0,127.0,127.0,101.0,81.0,-5.0
126.0,128.0,127.0,126.0,126.0,152.0,127.0,128.0,12.0,-101.0,-93.0,127.0,127.0,127.0,101.0,81.0,-5.0
126.0,128.0,127.0,126.0,126.0,152.0,127.0,128.0,12.0,-101.0,-93.0,127.0,127.0,127.0,101.0,81.0,-5.0
126.0,128.0,127.0,127.0,126.0,152.0,127.0,128.0,12.0,-101.0,-93.0,127.0,127.0,127.0,101.0,81.0,-5.0
126.0,128.0,127.0,127.0,127.0,152.0,127.0,128.0,12.0,-101.0,-93.0,127.0,127.0,127.0,101.0,81.0,-5.0
126.0,128.0,127.0,127.0,126.0,152.0,127.0,128.0,12.0,-101.0,-93.0,127.0,127.0,127.0,101.0,81.0,-5.0
126.0,128.0,127.0,127.0,126.0,152.0,127.0,128.0,12.0,-101.0,-93.0,127.0,127.0,127.0,101.0,81.0,-5.0
127.0,127.0,127.0,127.0,127.0,151.0,130.0,128.0,12.0,-101.0,-93.0,127.0,127.0,127.0,101.0,81.0,-5.0
126.0,127.0,126.0,127.0,127.0,151.0,129.0,128.0,12.0,-101.0,-93.0,127.0,127.0,127.0,101.0,81.0,-5.0
127.0,127.0,126.0,127.0,127.0,152.0,129.0,128.0,12.0,-101.0,-93.0,127.0,127.0,127.0,101.0,81.0,-5.0
127.0,127.0,126.0,127.0,127.0,151.0,129.0,128.0,12.0,-101.0,-93.0,127.0,127.0,127.0,101.0,81.0,-5.0
127.0,127.0,126.0,127.0,127.0,151.0,129.0,128.0,12.0,-101.0,-93.0,127.0,127.0,127.0,101.0,81.0,-5.0
127.0,127.0,126.0,127.0,127.0,151.0,129.0,128.0,12.0,-101.0,-93.0,127.0,127.0,127.0,101.0,81.0,-5.0
127.0,127.0,126.0,127.0,127.0,151.0,129.0,128.0,12.0,-101.0,-93.0,127.0,127.0,127.0,101.0,81.0,-5.0
127.0,127.0,126.0,127.0,127.0,151.0,129.0,128.0,12.0,-101.0,-93.0,127.0,127.0,127.0,101.0,81.0,-5.0
127.0,127.0,126.0,127.0,127.0,151.0,130.0,128.0,12.0,-101.0,-93.0,127.0,127.0,127.0,101.0,81.0,-5.0
127.0,127.0,127.0,127.0,127.0,151.0,130.0,128.0,12.0,-101.0,-93.0,127.0,127.0,127.0,101.0,81.0,-5.0
125.0,125.0,126.0,127.0,127.0,151.0,130.0,128.0,12.0,-101.0,-93.0,127.0,127.0,127.0,101.0,81.0,-5.0
125.0,125.0,125.0,127.0,127.0,151.0,130.0,128.0,12.0,-101.0,-93.0,127.0,127.0,127.0,101.0,81.0,-5.0
124.0,125.0,125.0,127.0,127.0,150.0,130.0,128.0,12.0,-101.0,-93.0,127.0,127.0,127.0,101.0,81.0,-5.0
124.0,125.0,125.0,127.0,127.0,151.0,130.0,128.0,12.0,-101.0,-93.0,127.0,127.0,127.0,101.0,81.0,-5.0
124.0,125.0,125.0,127.0,128.0,151.0,130.0,128.0,12.0,-101.0,-93.0,127.0,127.0,127.0,101.0,81.0,-5.0
125.0,125.0,125.0,127.0,128.0,151.0,130.0,128.0,12.0,-101.0,-93.0,127.0,127.0,127.0,101.0,81.0,-5.0
125.0,125.0,125.0,127.0,128.0,151.0,130.0,128.0,12.0,-101.0,-93.0,127.0,127.0,127.0,101.0,81.0,-5.0
125.0,125.0,125.0,127.0,128.0,151.0,130.0,128.0,12.0,-101.0,-93.0,127.0,127.0,127.0,101.0,81.0,-5.0
125.0,125.0,125.0,127.0,128.0,151.0,130.0,128.0,12.0,-101.0,-93.0,127.0,127.0,127.0,101.0,81.0,-5.0
126.0,125.0,125.0,127.0,128.0,151.0,130.0,128.0,12.0,-101.0,-93.0,127.0,127.0,127.0,101.0,81.0,-5.0
134.0,124.0,125.0,127.0,128.0,150.0,127.0,128.0,12.0,-101.0,-93.0,127.0,127.0,127.0,101.0,81.0,-5.0
133.0,124.0,126.0,127.0,128.0,150.0,127.0,128.0,12.0,-101.0,-93.0,127.0,127.0,127.0,101.0,81.0,-5.0
133.0,124.0,126.0,127.0,128.0,150.0,127.0,128.0,12.0,-101.0,-93.0,127.0,127.0,127.0,101.0,81.0,-5.0
133.0,124.0,126.0,127.0,128.0,150.0,127.0,128.0,12.0,-101.0,-93.0,127.0,127.0,127.0,101.0,81.0,-5.0
132.0,125.0,126.0,127.0,128.0,150.0,127.0,128.0,12.0,-101.0,-93.0,127.0,127.0,127.0,101.0,81.0,-5.0
132.0,125.0,126.0,127.0,128.0,150.0,127.0,128.0,12.0,-101.0,-93.0,127.0,127.0,127.0,101.0,81.0,-5.0
132.0,125.0,126.0,127.0,128.0,150.0,127.0,128.0,12.0,-101.0,-93.0,127.0,127.0,127.0,101.0,81.0,-5.0
131.0,125.0,126.0,127.0,128.0,150.0,127.0,128.0,12.0,-101.0,-93.0,127.0,127.0,127.0,101.0,81.0,-5.0
131.0,125.0,126.0,127.0,128.0,150.0,127.0,128.0,12.0,-101.0,-93.0,127.0,127.0,127.0,101.0,81.0,-5.0
134.0,124.0,125.0,127.0,128.0,150.0,128.0,128.0,12.0,-101.0,-93.0,127.0,127.0,127.0,101.0,81.0,-5.0
123.0,126.0,125.0,127.0,127.0,151.0,125.0,127.0,12.0,-101.0,-93.0,126.0,126.0,127.0,101.0,81.0,-5.0
123.0,126.0,126.0,127.0,127.0,151.0,125.0,127.0,12.0,-101.0,-93.0,126.0,126.0,127.0,101.0,81.0,-5.0
123.0,126.0,126.0,127.0,127.0,151.0,125.0,127.0,12.0,-101.0,-93.0,126.0,126.0,127.0,101.0,81.0,-5.0
123.0,126.0,126.0,127.0,127.0,151.0,125.0,127.0,12.0,-101.0,-93.0,126.0,126.0,127.0,101.0,81.0,-5.0
123.0,125.0,126.0,127.0,127.0,151.0,125.0,127.0,12.0,-101.0,-93.0,126.0,126.0,127.0,101.0,81.0,-5.0
123.0,126.0,126.0,127.0,127.0,151.0,125.0,127.0,12.0,-101.0,-93.0,126.0,126.0,127.0,101.0,81.0,-5.0
123.0,126.0,125.0,127.0,127.0,151.0,125.0,127.0,12.0,-101.0,-93.0,126.0,126.0,127.0,101.0,81.0,-5.0
123.0,126.0,126.0,127.0,127.0,151.0,125.0,127.0,12.0,-101.0,-93.0,126.0,126.0,127.0,101.0,81.0,-5.0
124.0,125.0,126.0,127.0,127.0,151.0,125.0,127.0,12.0,-101.0,-93.0,126.0,126.0,127.0,101.0,81.0,-5.0
123.0,126.0,125.0,127.0,127.0,151.0,125.0,127.0,12.0,-101.0,-93.0,126.0,126.0,127.0,101.0,81.0,-5.0
123.0,126.0,127.0,127.0,126.0,151.0,124.0,128.0,12.0,-100.0,-93.0,126.0,126.0,127.0,101.0,81.0,-5.0
123.0,126.0,127.0,127.0,126.0,151.0,124.0,128.0,12.0,-100.0,-93.0,126.0,126.0,127.0,101.0,81.0,-5.0
123.0,126.0,127.0,127.0,126.0,151.0,124.0,128.0,12.0,-100.0,-93.0,126.0,126.0,127.0,101.0,81.0,-5.0
123.0,126.0,127.0,127.0,126.0,151.0,124.0,128.0,12.0,-100.0,-93.0,126.0,126.0,127.0,101.0,81.0,-5.0
123.0,126.0,126.0,127.0,126.0,151.0,124.0,128.0,12.0,-100.0,-93.0,126.0,126.0,127.0,101.0,81.0,-5.0
123.0,126.0,126.0,127.0,127.0,151.0,124.0,128.0,12.0,-100.0,-93.0,126.0,126.0,127.0,101.0,81.0,-5.0
123.0,126.0,127.0,127.0,127.0,151.0,124.0,128.0,12.0,-100.0,-93.0,126.0,126.0,127.0,101.0,81.0,-5.0
122.0,126.0,127.0,127.0,126.0,151.0,124.0,128.0,12.0,-100.0,-93.0,126.0,126.0,127.0,101.0,81.0,-5.0
122.0,126.0,127.0,127.0,126.0,151.0,124.0,128.0,12.0,-100.0,-93.0,126.0,126.0,127.0,101.0,81.0,-5.0
122.0,126.0,126.0,127.0,126.0,151.0,124.0,128.0,12.0,-100.0,-93.0,126.0,126.0,127.0,101.0,81.0,-5.0
117.0,128.0,127.0,127.0,128.0,150.0,128.0,128.0,13.0,-100.0,-92.0,126.0,126.0,127.0,101.0,81.0,-5.0
117.0,128.0,127.0,127.0,128.0,150.0,129.0,128.0,13.0,-100.0,-92.0,126.0,126.0,127.0,101.0,81.0,-5.0
117.0,128.0,127.0,127.0,128.0,150.0,129.0,128.0,13.0,-100.0,-92.0,126.0,126.0,127.0,101.0,81.0,-5.0
116.0,128.0,127.0,127.0,128.0,150.0,129.0,128.0,13.0,-100.0,-92.0,126.0,126.0,127.0,101.0,81.0,-5.0
116.0,128.0,127.0,127.0,128.0,150.0,129.0,128.0,13.0,-100.0,-92.0,126.0,126.0,127.0,101.0,81.0,-5.0
116.0,128.0,127.0,127.0,128.0,151.0,129.0,128.0,13.0,-100.0,-92.0,126.0,126.0,127.0,101.0,81.0,-5.0
118.0,128.0,127.0,127.0,128.0,150.0,128.0,128.0,13.0,-100.0,-92.0,126.0,126.0,127.0,101.0,81.0,-5.0
118.0,128.0,127.0,127.0,128.0,150.0,128.0,128.0,13.0,-100.0,-92.0,126.0,126.0,127.0,101.0,81.0,-5.0
117.0,128.0,127.0,127.0,128.0,150.0,128.0,128.0,13.0,-100.0,-92.0,126.0,126.0,127.0,101.0,81.0,-5.0
117.0,128.0,127.0,127.0,128.0,150.0,128.0,128.0,13.0,-100.0,-92.0,126.0,126.0,127.0,101.0,81.0,-5.0
112.0,122.0,127.0,127.0,129.0,149.0,131.0,128.0,13.0,-100.0,-92.0,126.0,126.0,127.0,101.0,81.0,-5.0
112.0,121.0,127.0,127.0,129.0,149.0,131.0,128.0,13.0,-100.0,-92.0,126.0,126.0,127.0,101.0,81.0,-5.0
112.0,121.0,127.0,127.0,129.0,149.0,131.0,128.0,13.0,-100.0,-92.0,126.0,126.0,127.0,101.0,81.0,-5.0
111.0,122.0,126.0,127.0,129.0,149.0,130.0,128.0,13.0,-100.0,-92.0,126.0,126.0,127.0,101.0,81.0,-5.0
111.0,121.0,126.0,127.0,129.0,149.0,131.0,128.0,13.0,-100.0,-92.0,126.0,126.0,127.0,101.0,81.0,-5.0
112.0,122.0,128.0,127.0,129.0,149.0,131.0,128.0,13.0,-100.0,-92.0,126.0,126.0,127.0,101.0,81.0,-5.0
112.0,122.0,128.0,127.0,129.0,149.0,131.0,128.0,13.0,-100.0,-92.0,126.0,126.0,127.0,101.0,81.0,-5.0
112.0,122.0,128.0,127.0,129.0,149.0,131.0,128.0,13.0,-100.0,-92.0,126.0,126.0,127.0,101.0,81.0,-5.0
112.0,122.0,127.0,127.0,129.0,149.0,131.0,128.0,13.0,-100.0,-92.0,126.0,126.0,127.0,101.0,81.0,-5.0
112.0,122.0,127.0,127.0,129.0,149.0,131.0,128.0,13.0,-100.0,-92.0,126.0,126.0,127.0,101.0,81.0,-5.0
106.0,117.0,127.0,127.0,128.0,147.0,129.0,128.0,13.0,-101.0,-91.0,126.0,126.0,127.0,101.0,81.0,-5.0
106.0,117.0,127.0,127.0,128.0,147.0,129.0,128.0,13.0,-101.0,-91.0,126.0,126.0,127.0,101.0,81.0,-5.0
105.0,117.0,127.0,127.0,128.0,148.0,129.0,128.0,13.0,-101.0,-91.0,126.0,126.0,127.0,101.0,81.0,-5.0
106.0,117.0,127.0,127.0,128.0,148.0,129.0,128.0,13.0,-101.0,-91.0,126.0,126.0,127.0,101.0,81.0,-5.0
106.0,118.0,127.0,127.0,128.0,148.0,129.0,128.0,13.0,-101.0,-91.0,126.0,126.0,127.0,101.0,81.0,-5.0
106.0,117.0,127.0,127.0,128.0,148.0,129.0,128.0,13.0,-101.0,-91.0,126.0,126.0,127.0,101.0,81.0,-5.0
106.0,118.0,127.0,127.0,129.0,148.0,129.0,128.0,13.0,-101.0,-91.0,126.0,126.0,127.0,101.0,81.0,-5.0
106.0,118.0,127.0,127.0,128.0,148.0,129.0,128.0,13.0,-101.0,-91.0,126.0,126.0,127.0,101.0,81.0,-5.0
106.0,117.0,127.0,127.0,128.0,148.0,129.0,128.0,13.0,-101.0,-91.0,126.0,126.0,127.0,101.0,81.0,-5.0
106.0,117.0,127.0,127.0,128.0,148.0,129.0,128.0,13.0,-101.0,-91.0,126.0,126.0,127.0,101.0,81.0,-5.0
103.0,117.0,127.0,127.0,130.0,146.0,128.0,127.0,13.0,-101.0,-91.0,126.0,126.0,127.0,101.0,81.0,-5.0
103.0,118.0,127.0,127.0,130.0,146.0,127.0,127.0,13.0,-101.0,-91.0,126.0,126.0,127.0,101.0,81.0,-5.0
103.0,118.0,127.0,127.0,130.0,146.0,127.0,127.0,13.0,-101.0,-91.0,126.0,126.0,127.0,101.0,81.0,-5.0
103.0,116.0,127.0,127.0,129.0,146.0,128.0,127.0,13.0,-101.0,-91.0,126.0,126.0,127.0,101.0,81.0,-5.0
103.0,116.0,127.0,127.0,129.0,146.0,128.0,127.0,13.0,-101.0,-91.0,126.0,126.0,127.0,101.0,81.0,-5.0
103.0,116.0,127.0,127.0,130.0,146.0,128.0,127.0,13.0,-101.0,-91.0,126.0,126.0,127.0,101.0,81.0,-5.0
103.0,117.0,127.0,127.0,130.0,146.0,128.0,127.0,13.0,-101.0,-91.0,126.0,126.0,127.0,101.0,81.0,-5.0
103.0,117.0,127.0,127.0,130.0,146.0,128.0,127.0,13.0,-101.0,-91.0,126.0,126.0,127.0,101.0,81.0,-5.0
103.0,117.0,127.0,127.0,130.0,146.0,128.0,127.0,13.0,-101.0,-91.0,126.0,126.0,127.0,101.0,81.0,-5.0
103.0,117.0,127.0,127.0,130.0,146.0,128.0,127.0,13.0,-101.0,-91.0,126.0,126.0,127.0,101.0,81.0,-5.0
106.0,118.0,125.0,128.0,132.0,143.0,123.0,126.0,13.0,-101.0,-90.0,126.0,126.0,127.0,101.0,81.0,-5.0
105.0,118.0,125.0,127.0,131.0,145.0,124.0,126.0,13.0,-101.0,-90.0,126.0,126.0,127.0,101.0,81.0,-5.0
105.0,118.0,125.0,127.0,131.0,144.0,124.0,126.0,13.0,-101.0,-90.0,126.0,126.0,127.0,101.0,81.0,-5.0
106.0,118.0,125.0,127.0,131.0,144.0,124.0,126.0,13.0,-101.0,-90.0,126.0,126.0,127.0,101.0,81.0,-5.0
105.0,118.0,125.0,127.0,131.0,144.0,124.0,126.0,13.0,-101.0,-90.0,126.0,126.0,127.0,101.0,81.0,-5.0
105.0,118.0,125.0,128.0,131.0,144.0,124.0,126.0,13.0,-101.0,-90.0,126.0,126.0,127.0,101.0,81.0,-5.0
106.0,118.0,125.0,128.0,132.0,144.0,124.0,127.0,13.0,-101.0,-90.0,126.0,126.0,127.0,101.0,81.0,-5.0
106.0,118.0,125.0,128.0,132.0,144.0,124.0,127.0,13.0,-101.0,-90.0,126.0,126.0,127.0,101.0,81.0,-5.0
106.0,118.0,125.0,128.0,132.0,144.0,124.0,126.0,13.0,-101.0,-90.0,126.0,126.0,127.0,101.0,81.0,-5.0
106.0,118.0,125.0,128.0,132.0,144.0,124.0,126.0,13.0,-101.0,-90.0,126.0,126.0,127.0,101.0,81.0,-5.0
110.0,119.0,128.0,126.0,132.0,0.0,122.0,127.0,13.0,-100.0,-90.0,126.0,126.0,127.0,101.0,81.0,-5.0
110.0,119.0,128.0,126.0,132.0,0.0,122.0,127.0,13.0,-100.0,-90.0,126.0,126.0,127.0,101.0,81.0,-5.0
110.0,119.0,128.0,126.0,132.0,0.0,122.0,127.0,13.0,-100.0,-90.0,126.0,126.0,127.0,101.0,81.0,-5.0
111.0,119.0,129.0,126.0,132.0,0.0,122.0,127.0,13.0,-100.0,-90.0,126.0,126.0,127.0,101.0,81.0,-5.0
111.0,119.0,129.0,126.0,132.0,0.0,122.0,127.0,13.0,-100.0,-90.0,126.0,126.0,127.0,101.0,81.0,-5.0
111.0,119.0,129.0,126.0,132.0,0.0,122.0,127.0,13.0,-100.0,-90.0,126.0,126.0,127.0,101.0,81.0,-5.0
111.0,119.0,129.0,126.0,132.0,0.0,121.0,127.0,13.0,-100.0,-90.0,126.0,126.0,127.0,101.0,81.0,-5.0
111.0,119.0,129.0,126.0,132.0,0.0,121.0,127.0,13.0,-100.0,-90.0,126.0,126.0,127.0,101.0,81.0,-5.0
111.0,119.0,129.0,126.0,132.0,0.0,121.0,127.0,13.0,-100.0,-90.0,126.0,126.0,127.0,101.0,81.0,-5.0
111.0,119.0,129.0,126.0,132.0,0.0,121.0,127.0,13.0,-100.0,-90.0,126.0,126.0,127.0,101.0,81.0,-5.0
116.0,120.0,130.0,125.0,133.0,0.0,121.0,127.0,14.0,-101.0,-89.0,125.0,126.0,127.0,101.0,81.0,-5.0
116.0,120.0,130.0,125.0,133.0,0.0,121.0,127.0,14.0,-101.0,-89.0,125.0,126.0,127.0,101.0,81.0,-5.0
116.0,120.0,130.0,125.0,133.0,0.0,121.0,127.0,14.0,-101.0,-89.0,125.0,126.0,127.0,101.0,81.0,-5.0
116.0,120.0,130.0,125.0,133.0,0.0,121.0,127.0,14.0,-101.0,-89.0,125.0,126.0,127.0,101.0,81.0,-5.0
116.0,120.0,130.0,125.0,133.0,0.0,121.0,127.0,14.0,-101.0,-89.0,125.0,126.0,127.0,101.0,81.0,-5.0
116.0,120.0,130.0,125.0,133.0,0.0,121.0,127.0,14.0,-101.0,-89.0,125.0,126.0,127.0,101.0,81.0,-5.0
116.0,121.0,130.0,125.0,133.0,0.0,121.0,127.0,14.0,-101.0,-89.0,125.0,126.0,127.0,101.0,81.0,-5.0
116.0,121.0,130.0,125.0,134.0,0.0,121.0,127.0,14.0,-101.0,-89.0,125.0,126.0,127.0,101.0,81.0,-5.0
117.0,121.0,130.0,126.0,134.0,0.0,122.0,127.0,14.0,-101.0,-89.0,125.0,126.0,127.0,101.0,81.0,-5.0
116.0,120.0,130.0,125.0,133.0,0.0,121.0,127.0,14.0,-101.0,-89.0,125.0,126.0,127.0,101.0,81.0,-5.0
118.0,124.0,128.0,127.0,133.0,0.0,124.0,128.0,14.0,-102.0,-89.0,125.0,126.0,127.0,101.0,81.0,-5.0
118.0,124.0,128.0,127.0,133.0,0.0,125.0,128.0,14.0,-102.0,-89.0,125.0,126.0,127.0,101.0,81.0,-5.0
118.0,124.0,128.0,127.0,133.0,0.0,125.0,128.0,14.0,-102.0,-89.0,125.0,126.0,127.0,101.0,81.0,-5.0
118.0,124.0,128.0,127.0,133.0,0.0,125.0,128.0,14.0,-102.0,-89.0,125.0,126.0,127.0,101.0,81.0,-5.0
118.0,124.0,128.0,127.0,133.0,0.0,125.0,128.0,14.0,-102.0,-89.0,125.0,126.0,127.0,101.0,81.0,-5.0
118.0,125.0,127.0,127.0,133.0,0.0,125.0,128.0,14.0,-102.0,-89.0,125.0,126.0,127.0,101.0,81.0,-5.0
118.0,125.0,127.0,127.0,133.0,0.0,125.0,128.0,14.0,-102.0,-89.0,125.0,126.0,127.0,101.0,81.0,-5.0
118.0,125.0,127.0,127.0,133.0,0.0,125.0,128.0,14.0,-102.0,-89.0,125.0,126.0,127.0,101.0,81.0,-5.0
118.0,124.0,128.0,126.0,133.0,0.0,124.0,128.0,14.0,-102.0,-89.0,125.0,126.0,127.0,101.0,81.0,-5.0
118.0,124.0,128.0,126.0,133.0,0.0,124.0,128.0,14.0,-102.0,-89.0,125.0,126.0,127.0,101.0,81.0,-5.0
118.0,126.0,126.0,127.0,131.0,0.0,126.0,128.0,14.0,-103.0,-88.0,126.0,126.0,127.0,101.0,81.0,-5.0
118.0,126.0,126.0,127.0,131.0,0.0,126.0,128.0,14.0,-103.0,-88.0,126.0,126.0,127.0,101.0,81.0,-5.0
118.0,126.0,126.0,127.0,131.0,0.0,126.0,128.0,14.0,-103.0,-88.0,126.0,126.0,127.0,101.0,81.0,-5.0
118.0,126.0,126.0,127.0,131.0,0.0,126.0,128.0,14.0,-103.0,-88.0,126.0,126.0,127.0,101.0,81.0,-5.0
118.0,126.0,126.0,127.0,131.0,0.0,126.0,128.0,14.0,-103.0,-88.0,126.0,126.0,127.0,101.0,81.0,-5.0
118.0,126.0,126.0,127.0,131.0,0.0,126.0,128.0,14.0,-103.0,-88.0,126.0,126.0,127.0,101.0,81.0,-5.0
118.0,126.0,126.0,127.0,131.0,0.0,126.0,128.0,14.0,-103.0,-88.0,126.0,126.0,127.0,101.0,81.0,-5.0
118.0,126.0,126.0,127.0,131.0,0.0,126.0,128.0,14.0,-103.0,-88.0,126.0,126.0,127.0,101.0,81.0,-5.0
118.0,126.0,126.0,127.0,131.0,0.0,126.0,128.0,14.0,-103.0,-88.0,126.0,126.0,127.0,101.0,81.0,-5.0
118.0,126.0,126.0,127.0,131.0,0.0,126.0,128.0,14.0,-103.0,-88.0,126.0,126.0,127.0,101.0,81.0,-5.0
118.0,125.0,125.0,127.0,130.0,0.0,126.0,127.0,15.0,-104.0,-87.0,126.0,126.0,127.0,101.0,81.0,-5.0
118.0,126.0,125.0,127.0,130.0,0.0,126.0,127.0,15.0,-104.0,-87.0,126.0,126.0,127.0,101.0,81.0,-5.0
118.0,125.0,125.0,127.0,130.0,0.0,126.0,127.0,15.0,-104.0,-87.0,126.0,126.0,127.0,101.0,81.0,-5.0
118.0,126.0,125.0,127.0,130.0,0.0,126.0,127.0,15.0,-104.0,-87.0,126.0,126.0,127.0,101.0,81.0,-5.0
118.0,126.0,125.0,128.0,130.0,0.0,126.0,127.0,15.0,-104.0,-87.0,126.0,126.0,127.0,101.0,81.0,-5.0
118.0,126.0,125.0,127.0,130.0,0.0,126.0,127.0,15.0,-104.0,-87.0,126.0,126.0,127.0,101.0,81.0,-5.0
118.0,125.0,124.0,127.0,130.0,0.0,126.0,127.0,15.0,-104.0,-87.0,126.0,126.0,127.0,101.0,81.0,-5.0
118.0,126.0,124.0,127.0,130.0,0.0,126.0,127.0,15.0,-104.0,-87.0,126.0,126.0,127.0,101.0,81.0,-5.0
118.0,126.0,124.0,127.0,130.0,0.0,126.0,127.0,15.0,-104.0,-87.0,126.0,126.0,127.0,101.0,81.0,-5.0
118.0,126.0,125.0,127.0,130.0,0.0,126.0,127.0,15.0,-104.0,-87.0,126.0,126.0,127.0,101.0,81.0,-5.0
119.0,125.0,125.0,128.0,128.0,0.0,126.0,127.0,15.0,-105.0,-87.0,126.0,126.0,127.0,102.0,81.0,-5.0
119.0,125.0,125.0,128.0,128.0,0.0,126.0,127.0,15.0,-105.0,-87.0,126.0,126.0,127.0,102.0,81.0,-5.0
119.0,125.0,124.0,127.0,128.0,0.0,126.0,127.0,15.0,-105.0,-87.0,126.0,126.0,127.0,102.0,81.0,-5.0
119.0,125.0,124.0,128.0,128.0,0.0,126.0,127.0,15.0,-105.0,-87.0,126.0,126.0,127.0,102.0,81.0,-5.0
119.0,125.0,124.0,127.0,128.0,0.0,126.0,127.0,15.0,-105.0,-87.0,126.0,126.0,127.0,102.0,81.0,-5.0
119.0,125.0,126.0,127.0,128.0,0.0,126.0,127.0,15.0,-105.0,-87.0,126.0,126.0,127.0,102.0,81.0,-5.0
119.0,125.0,126.0,127.0,128.0,0.0,126.0,127.0,15.0,-105.0,-87.0,126.0,126.0,127.0,102.0,81.0,-5.0
119.0,125.0,125.0,127.0,128.0,0.0,126.0,127.0,15.0,-105.0,-87.0,126.0,126.0,127.0,102.0,81.0,-5.0
119.0,125.0,125.0,128.0,128.0,0.0,126.0,127.0,15.0,-105.0,-87.0,126.0,126.0,127.0,102.0,81.0,-5.0
119.0,125.0,125.0,128.0,128.0,0.0,126.0,127.0,15.0,-105.0,-87.0,126.0,126.0,127.0,102.0,81.0,-5.0
119.0,125.0,125.0,127.0,127.0,0.0,126.0,127.0,16.0,-105.0,-86.0,126.0,126.0,127.0,102.0,81.0,-5.0
119.0,125.0,125.0,127.0,127.0,0.0,126.0,127.0,16.0,-105.0,-86.0,126.0,126.0,127.0,102.0,81.0,-5.0
119.0,125.0,125.0,127.0,127.0,0.0,126.0,127.0,16.0,-105.0,-86.0,126.0,126.0,127.0,102.0,81.0,-5.0
119.0,125.0,125.0,127.0,127.0,0.0,126.0,127.0,16.0,-105.0,-86.0,126.0,126.0,127.0,102.0,81.0,-5.0
119.0,125.0,125.0,127.0,127.0,0.0,126.0,127.0,16.0,-105.0,-86.0,126.0,126.0,127.0,102.0,81.0,-5.0
119.0,125.0,125.0,127.0,127.0,0.0,126.0,127.0,16.0,-105.0,-86.0,126.0,126.0,127.0,102.0,81.0,-5.0
119.0,125.0,125.0,127.0,127.0,0.0,126.0,127.0,16.0,-105.0,-86.0,126.0,126.0,127.0,102.0,81.0,-5.0
119.0,125.0,125.0,127.0,127.0,0.0,126.0,127.0,16.0,-105.0,-86.0,126.0,126.0,127.0,102.0,81.0,-5.0
119.0,125.0,125.0,127.0,127.0,0.0,126.0,127.0,16.0,-105.0,-86.0,126.0,126.0,127.0,102.0,81.0,-5.0
119.0,125.0,125.0,127.0,127.0,0.0,126.0,127.0,16.0,-105.0,-86.0,126.0,126.0,127.0,102.0,81.0,-5.0
119.0,126.0,126.0,127.0,127.0,0.0,126.0,127.0,16.0,-105.0,-85.0,126.0,126.0,127.0,103.0,81.0,-5.0
119.0,126.0,126.0,127.0,127.0,0.0,126.0,127.0,16.0,-105.0,-85.0,126.0,126.0,127.0,103.0,81.0,-5.0
119.0,126.0,126.0,127.0,127.0,0.0,126.0,127.0,16.0,-105.0,-85.0,126.0,126.0,127.0,103.0,81.0,-5.0
119.0,125.0,125.0,127.0,127.0,0.0,126.0,127.0,16.0,-105.0,-85.0,126.0,126.0,127.0,103.0,81.0,-5.0
119.0,126.0,125.0,127.0,127.0,0.0,126.0,127.0,16.0,-105.0,-85.0,126.0,126.0,127.0,103.0,81.0,-5.0
119.0,125.0,125.0,127.0,127.0,0.0,126.0,127.0,16.0,-105.0,-85.0,126.0,126.0,127.0,103.0,81.0,-5.0
119.0,125.0,125.0,127.0,127.0,0.0,126.0,127.0,16.0,-105.0,-85.0,126.0,126.0,127.0,103.0,81.0,-5.0
119.0,125.0,125.0,127.0,127.0,0.0,126.0,127.0,16.0,-105.0,-85.0,126.0,126.0,127.0,103.0,81.0,-5.0
119.0,125.0,126.0,127.0,127.0,0.0,126.0,127.0,16.0,-105.0,-85.0,126.0,126.0,127.0,103.0,81.0,-5.0
119.0,126.0,126.0,127.0,127.0,0.0,126.0,127.0,16.0,-105.0,-85.0,126.0,126.0,127.0,103.0,81.0,-5.0
121.0,127.0,126.0,127.0,127.0,0.0,126.0,127.0,17.0,-105.0,-85.0,126.0,126.0,127.0,104.0,81.0,-5.0
121.0,127.0,126.0,128.0,127.0,0.0,126.0,127.0,17.0,-105.0,-85.0,126.0,126.0,127.0,104.0,81.0,-5.0
120.0,126.0,126.0,127.0,127.0,0.0,126.0,127.0,17.0,-105.0,-85.0,126.0,126.0,127.0,104.0,81.0,-5.0
120.0,126.0,126.0,127.0,127.0,0.0,126.0,127.0,17.0,-105.0,-85.0,126.0,126.0,127.0,104.0,81.0,-5.0
121.0,126.0,126.0,127.0,127.0,0.0,126.0,127.0,17.0,-105.0,-85.0,126.0,126.0,127.0,104.0,81.0,-5.0
121.0,126.0,126.0,127.0,127.0,0.0,126.0,127.0,17.0,-105.0,-85.0,126.0,126.0,127.0,104.0,81.0,-5.0
121.0,126.0,126.0,127.0,127.0,0.0,126.0,127.0,17.0,-105.0,-85.0,126.0,126.0,127.0,104.0,81.0,-5.0
121.0,126.0,126.0,127.0,127.0,0.0,126.0,127.0,17.0,-105.0,-85.0,126.0,126.0,127.0,104.0,81.0,-5.0
121.0,126.0,126.0,127.0,127.0,0.0,126.0,127.0,17.0,-105.0,-85.0,126.0,126.0,127.0,104.0,81.0,-5.0
121.0,126.0,126.0,127.0,127.0,0.0,126.0,127.0,17.0,-105.0,-85.0,126.0,126.0,127.0,104.0,81.0,-5.0
122.0,126.0,127.0,128.0,128.0,0.0,126.0,127.0,17.0,-105.0,-84.0,126.0,126.0,127.0,104.0,81.0,-5.0
122.0,126.0,127.0,128.0,128.0,0.0,126.0,127.0,17.0,-105.0,-84.0,126.0,126.0,127.0,104.0,81.0,-5.0
122.0,126.0,127.0,128.0,128.0,0.0,126.0,127.0,17.0,-105.0,-84.0,126.0,126.0,127.0,104.0,81.0,-5.0
122.0,126.0,127.0,128.0,128.0,0.0,126.0,127.0,17.0,-105.0,-84.0,126.0,126.0,127.0,104.0,81.0,-5.0
122.0,126.0,127.0,128.0,128.0,0.0,126.0,127.0,17.0,-105.0,-84.0,126.0,126.0,127.0,104.0,81.0,-5.0
122.0,126.0,127.0,128.0,128.0,0.0,126.0,127.0,17.0,-105.0,-84.0,126.0,126.0,127.0,104.0,81.0,-5.0
122.0,126.0,127.0,128.0,128.0,0.0,126.0,127.0,17.0,-105.0,-84.0,126.0,126.0,127.0,104.0,81.0,-5.0
122.0,126.0,127.0,128.0,128.0,0.0,126.0,127.0,17.0,-105.0,-84.0,126.0,126.0,127.0,104.0,81.0,-5.0
122.0,126.0,127.0,128.0,128.0,0.0,126.0,127.0,17.0,-105.0,-84.0,126.0,126.0,127.0,104.0,81.0,-5.0
122.0,126.0,127.0,128.0,128.0,0.0,126.0,127.0,17.0,-105.0,-84.0,126.0,126.0,127.0,104.0,81.0,-5.0
122.0,126.0,129.0,128.0,128.0,0.0,126.0,127.0,18.0,-106.0,-84.0,126.0,126.0,127.0,104.0,81.0,-5.0
122.0,126.0,129.0,127.0,128.0,0.0,126.0,127.0,18.0,-106.0,-84.0,126.0,126.0,127.0,104.0,81.0,-5.0
122.0,126.0,129.0,127.0,128.0,0.0,126.0,127.0,18.0,-106.0,-84.0,126.0,126.0,127.0,104.0,81.0,-5.0
122.0,126.0,129.0,128.0,128.0,0.0,126.0,127.0,18.0,-106.0,-84.0,126.0,126.0,127.0,104.0,81.0,-5.0
122.0,126.0,129.0,127.0,128.0,0.0,126.0,127.0,18.0,-106.0,-84.0,126.0,126.0,127.0,104.0,81.0,-5.0
122.0,126.0,129.0,128.0,128.0,0.0,126.0,127.0,18.0,-106.0,-84.0,126.0,126.0,127.0,104.0,81.0,-5.0
122.0,126.0,129.0,128.0,128.0,0.0,126.0,127.0,18.0,-106.0,-84.0,126.0,126.0,127.0,104.0,81.0,-5.0
122.0,126.0,129.0,128.0,128.0,0.0,126.0,127.0,18.0,-106.0,-84.0,126.0,126.0,127.0,104.0,81.0,-5.0
122.0,126.0,129.0,128.0,128.0,0.0,126.0,127.0,18.0,-106.0,-84.0,126.0,126.0,127.0,104.0,81.0,-5.0
122.0,126.0,129.0,128.0,128.0,0.0,126.0,127.0,18.0,-106.0,-84.0,126.0,126.0,127.0,104.0,81.0,-5.0
123.0,126.0,130.0,128.0,127.0,0.0,126.0,127.0,18.0,-106.0,-83.0,126.0,127.0,127.0,105.0,81.0,-5.0
123.0,126.0,130.0,128.0,127.0,0.0,126.0,127.0,18.0,-106.0,-83.0,126.0,127.0,127.0,105.0,81.0,-5.0
123.0,126.0,130.0,128.0,127.0,0.0,126.0,127.0,18.0,-106.0,-83.0,126.0,127.0,127.0,105.0,81.0,-5.0
123.0,127.0,129.0,128.0,127.0,0.0,126.0,127.0,18.0,-106.0,-83.0,126.0,127.0,127.0,105.0,81.0,-5.0
123.0,127.0,129.0,128.0,127.0,0.0,126.0,127.0,18.0,-106.0,-83.0,126.0,127.0,127.0,105.0,81.0,-5.0
123.0,127.0,129.0,128.0,127.0,0.0,126.0,127.0,18.0,-106.0,-83.0,126.0,127.0,127.0,105.0,81.0,-5.0
123.0,127.0,129.0,128.0,127.0,0.0,126.0,127.0,18.0,-106.0,-83.0,126.0,127.0,127.0,105.0,81.0,-5.0
123.0,127.0,129.0,128.0,127.0,0.0,126.0,127.0,18.0,-106.0,-83.0,126.0,127.0,127.0,105.0,81.0,-5.0
123.0,127.0,129.0,128.0,127.0,0.0,126.0,127.0,18.0,-106.0,-83.0,126.0,127.0,127.0,105.0,81.0,-5.0
123.0,126.0,130.0,128.0,127.0,0.0,126.0,127.0,18.0,-106.0,-83.0,126.0,127.0,127.0,105.0,81.0,-5.0
124.0,127.0,129.0,128.0,126.0,0.0,126.0,127.0,18.0,-106.0,-83.0,126.0,127.0,127.0,105.0,81.0,-5.0
124.0,127.0,129.0,128.0,126.0,0.0,126.0,127.0,18.0,-106.0,-83.0,126.0,127.0,127.0,105.0,81.0,-5.0
124.0,127.0,129.0,128.0,126.0,0.0,126.0,127.0,18.0,-106.0,-83.0,126.0,127.0,127.0,105.0,81.0,-5.0
124.0,127.0,128.0,128.0,126.0,0.0,126.0,127.0,18.0,-106.0,-83.0,126.0,127.0,127.0,105.0,81.0,-5.0
124.0,127.0,128.0,128.0,126.0,0.0,126.0,127.0,18.0,-106.0,-83.0,126.0,127.0,127.0,105.0,81.0,-5.0
124.0,127.0,128.0,128.0,126.0,0.0,126.0,127.0,18.0,-106.0,-83.0,126.0,127.0,127.0,105.0,81.0,-5.0
124.0,127.0,128.0,128.0,126.0,0.0,127.0,127.0,18.0,-106.0,-83.0,126.0,127.0,127.0,105.0,81.0,-5.0
124.0,127.0,128.0,128.0,126.0,0.0,126.0,127.0,18.0,-106.0,-83.0,126.0,127.0,127.0,105.0,81.0,-5.0
124.0,127.0,129.0,128.0,126.0,0.0,126.0,127.0,18.0,-106.0,-83.0,126.0,127.0,127.0,105.0,81.0,-5.0
124.0,127.0,129.0,128.0,126.0,0.0,126.0,127.0,18.0,-106.0,-83.0,126.0,127.0,127.0,105.0,81.0,-5.0
124.0,127.0,127.0,128.0,125.0,0.0,126.0,127.0,18.0,-106.0,-82.0,126.0,127.0,127.0,106.0,81.0,-5.0
124.0,127.0,127.0,128.0,125.0,0.0,126.0,127.0,18.0,-106.0,-82.0,126.0,127.0,127.0,106.0,81.0,-5.0
124.0,127.0,127.0,128.0,125.0,0.0,126.0,127.0,18.0,-106.0,-82.0,126.0,127.0,127.0,106.0,81.0,-5.0
124.0,127.0,126.0,128.0,125.0,0.0,126.0,127.0,18.0,-106.0,-82.0,126.0,127.0,127.0,106.0,81.0,-5.0
124.0,127.0,126.0,128.0,125.0,0.0,126.0,127.0,18.0,-106.0,-82.0,126.0,127.0,127.0,106.0,81.0,-5.0
124.0,127.0,126.0,128.0,125.0,0.0,126.0,127.0,18.0,-106.0,-82.0,126.0,127.0,127.0,106.0,81.0,-5.0
124.0,127.0,127.0,128.0,125.0,0.0,126.0,127.0,18.0,-106.0,-82.0,126.0,127.0,127.0,106.0,81.0,-5.0
124.0,127.0,127.0,128.0,125.0,0.0,126.0,127.0,18.0,-106.0,-82.0,126.0,127.0,127.0,106.0,81.0,-5.0
124.0,126.0,127.0,128.0,125.0,0.0,126.0,127.0,18.0,-106.0,-82.0,126.0,127.0,127.0,106.0,81.0,-5.0
124.0,126.0,127.0,128.0,125.0,0.0,126.0,127.0,18.0,-106.0,-82.0,126.0,127.0,127.0,106.0,81.0,-5.0
124.0,127.0,126.0,127.0,125.0,0.0,127.0,127.0,18.0,-107.0,-82.0,126.0,127.0,127.0,106.0,81.0,-5.0
124.0,127.0,126.0,127.0,125.0,0.0,127.0,127.0,18.0,-107.0,-82.0,126.0,127.0,127.0,106.0,81.0,-5.0
124.0,127.0,126.0,127.0,125.0,0.0,127.0,127.0,18.0,-107.0,-82.0,126.0,127.0,127.0,106.0,81.0,-5.0
124.0,127.0,126.0,128.0,126.0,0.0,127.0,127.0,18.0,-107.0,-82.0,126.0,127.0,127.0,106.0,81.0,-5.0
124.0,127.0,126.0,128.0,125.0,0.0,127.0,127.0,18.0,-107.0,-82.0,126.0,127.0,127.0,106.0,81.0,-5.0
124.0,127.0,125.0,127.0,125.0,0.0,127.0,127.0,18.0,-107.0,-82.0,126.0,127.0,127.0,106.0,81.0,-5.0
124.0,127.0,126.0,127.0,125.0,0.0,127.0,127.0,18.0,-107.0,-82.0,126.0,127.0,127.0,106.0,81.0,-5.0
124.0,127.0,126.0,127.0,125.0,0.0,127.0,127.0,18.0,-107.0,-82.0,126.0,127.0,127.0,106.0,81.0,-5.0
124.0,127.0,126.0,127.0,125.0,0.0,127.0,127.0,18.0,-107.0,-82.0,126.0,127.0,127.0,106.0,81.0,-5.0
124.0,127.0,126.0,127.0,125.0,0.0,127.0,127.0,18.0,-107.0,-82.0,126.0,127.0,127.0,106.0,81.0,-5.0
124.0,127.0,128.0,128.0,125.0,0.0,126.0,127.0,18.0,-107.0,-82.0,126.0,127.0,127.0,106.0,81.0,-5.0
124.0,127.0,128.0,128.0,125.0,0.0,126.0,127.0,18.0,-107.0,-82.0,126.0,127.0,127.0,106.0,81.0,-5.0
124.0,127.0,128.0,128.0,125.0,0.0,126.0,127.0,18.0,-107.0,-82.0,126.0,127.0,127.0,106.0,81.0,-5.0
124.0,127.0,128.0,128.0,125.0,0.0,126.0,127.0,18.0,-107.0,-82.0,126.0,127.0,127.0,106.0,81.0,-5.0
124.0,127.0,128.0,128.0,125.0,0.0,126.0,127.0,18.0,-107.0,-82.0,126.0,127.0,127.0,106.0,81.0,-5.0
124.0,127.0,128.0,128.0,125.0,0.0,126.0,127.0,18.0,-107.0,-82.0,126.0,127.0,127.0,106.0,81.0,-5.0
124.0,127.0,128.0,128.0,125.0,0.0,127.0,127.0,18.0,-107.0,-82.0,126.0,127.0,127.0,106.0,81.0,-5.0
124.0,127.0,129.0,128.0,125.0,0.0,126.0,127.0,18.0,-107.0,-82.0,126.0,127.0,127.0,106.0,81.0,-5.0
124.0,127.0,129.0,128.0,125.0,0.0,127.0,127.0,18.0,-107.0,-82.0,126.0,127.0,127.0,106.0,81.0,-5.0
124.0,127.0,129.0,128.0,125.0,0.0,126.0,127.0,18.0,-107.0,-82.0,126.0,127.0,127.0,106.0,81.0,-5.0
123.0,128.0,128.0,128.0,125.0,0.0,126.0,127.0,18.0,-107.0,-81.0,127.0,127.0,127.0,107.0,82.0,-5.0
123.0,128.0,128.0,128.0,125.0,0.0,126.0,127.0,18.0,-107.0,-81.0,127.0,127.0,127.0,107.0,82.0,-5.0
123.0,128.0,128.0,128.0,125.0,0.0,127.0,127.0,18.0,-107.0,-81.0,127.0,127.0,127.0,107.0,82.0,-5.0
123.0,128.0,128.0,128.0,125.0,0.0,126.0,127.0,18.0,-107.0,-81.0,127.0,127.0,127.0,107.0,82.0,-5.0
123.0,128.0,128.0,128.0,125.0,0.0,126.0,127.0,18.0,-107.0,-81.0,127.0,127.0,127.0,107.0,82.0,-5.0
123.0,128.0,128.0,128.0,125.0,0.0,126.0,127.0,18.0,-107.0,-81.0,127.0,127.0,127.0,107.0,82.0,-5.0
123.0,127.0,128.0,128.0,125.0,0.0,126.0,127.0,18.0,-107.0,-81.0,127.0,127.0,127.0,107.0,82.0,-5.0
123.0,127.0,128.0,128.0,125.0,0.0,127.0,127.0,18.0,-107.0,-81.0,127.0,127.0,127.0,107.0,82.0,-5.0
123.0,127.0,128.0,128.0,125.0,0.0,127.0,127.0,18.0,-107.0,-81.0,127.0,127.0,127.0,107.0,82.0,-5.0
123.0,128.0,128.0,128.0,125.0,0.0,126.0,127.0,18.0,-107.0,-81.0,127.0,127.0,127.0,107.0,82.0,-5.0
124.0,126.0,126.0,127.0,125.0,0.0,126.0,127.0,18.0,-107.0,-81.0,127.0,127.0,127.0,107.0,82.0,-5.0
124.0,126.0,126.0,127.0,125.0,0.0,127.0,127.0,18.0,-107.0,-81.0,127.0,127.0,127.0,107.0,82.0,-5.0
124.0,127.0,126.0,127.0,125.0,0.0,126.0,127.0,18.0,-107.0,-81.0,127.0,127.0,127.0,107.0,82.0,-5.0
124.0,127.0,126.0,127.0,125.0,0.0,126.0,127.0,18.0,-107.0,-81.0,127.0,127.0,127.0,107.0,82.0,-5.0
124.0,127.0,126.0,127.0,125.0,0.0,126.0,127.0,18.0,-107.0,-81.0,127.0,127.0,127.0,107.0,82.0,-5.0
124.0,127.0,126.0,127.0,125.0,0.0,126.0,127.0,18.0,-107.0,-81.0,127.0,127.0,127.0,107.0,82.0,-5.0
124.0,127.0,126.0,127.0,125.0,0.0,126.0,127.0,18.0,-107.0,-81.0,127.0,127.0,127.0,107.0,82.0,-5.0
124.0,127.0,126.0,127.0,125.0,0.0,126.0,127.0,18.0,-107.0,-81.0,127.0,127.0,127.0,107.0,82.0,-5.0
124.0,126.0,126.0,127.0,125.0,0.0,126.0,127.0,18.0,-107.0,-81.0,127.0,127.0,127.0,107.0,82.0,-5.0
124.0,126.0,126.0,127.0,125.0,0.0,126.0,127.0,18.0,-107.0,-81.0,127.0,127.0,127.0,107.0,82.0,-5.0
123.0,126.0,125.0,128.0,125.0,0.0,127.0,128.0,18.0,-107.0,-81.0,127.0,127.0,127.0,108.0,82.0,-5.0
123.0,127.0,125.0,128.0,125.0,0.0,127.0,128.0,18.0,-107.0,-81.0,127.0,127.0,127.0,108.0,82.0,-5.0
123.0,127.0,125.0,128.0,125.0,0.0,127.0,127.0,18.0,-107.0,-81.0,127.0,127.0,127.0,108.0,82.0,-5.0
123.0,127.0,125.0,128.0,125.0,0.0,127.0,127.0,18.0,-107.0,-81.0,127.0,127.0,127.0,108.0,82.0,-5.0
123.0,127.0,125.0,128.0,125.0,0.0,127.0,128.0,18.0,-107.0,-81.0,127.0,127.0,127.0,108.0,82.0,-5.0
123.0,127.0,125.0,128.0,125.0,0.0,127.0,127.0,18.0,-107.0,-81.0,127.0,127.0,127.0,108.0,82.0,-5.0
123.0,127.0,125.0,128.0,125.0,0.0,127.0,128.0,18.0,-107.0,-81.0,127.0,127.0,127.0,108.0,82.0,-5.0
123.0,127.0,125.0,128.0,125.0,0.0,127.0,128.0,18.0,-107.0,-81.0,127.0,127.0,127.0,108.0,82.0,-5.0
123.0,126.0,125.0,127.0,125.0,0.0,127.0,128.0,18.0,-107.0,-81.0,127.0,127.0,127.0,108.0,82.0,-5.0
123.0,127.0,125.0,127.0,125.0,0.0,127.0,127.0,18.0,-107.0,-81.0,127.0,127.0,127.0,108.0,82.0,-5.0
124.0,127.0,124.0,128.0,126.0,0.0,127.0,128.0,18.0,-107.0,-81.0,127.0,127.0,127.0,108.0,82.0,-5.0
124.0,127.0,124.0,128.0,126.0,0.0,127.0,128.0,18.0,-107.0,-81.0,127.0,127.0,127.0,108.0,82.0,-5.0
124.0,127.0,124.0,128.0,126.0,0.0,127.0,128.0,18.0,-107.0,-81.0,127.0,127.0,127.0,108.0,82.0,-5.0
124.0,127.0,124.0,127.0,126.0,0.0,127.0,128.0,18.0,-107.0,-81.0,127.0,127.0,127.0,108.0,82.0,-5.0
124.0,127.0,124.0,127.0,126.0,0.0,127.0,128.0,18.0,-107.0,-81.0,127.0,127.0,127.0,108.0,82.0,-5.0
124.0,127.0,124.0,128.0,126.0,0.0,127.0,128.0,18.0,-107.0,-81.0,127.0,127.0,127.0,108.0,82.0,-5.0
124.0,127.0,124.0,128.0,126.0,0.0,127.0,127.0,18.0,-107.0,-81.0,127.0,127.0,127.0,108.0,82.0,-5.0
124.0,127.0,124.0,128.0,126.0,0.0,127.0,127.0,18.0,-107.0,-81.0,127.0,127.0,127.0,108.0,82.0,-5.0
124.0,127.0,124.0,128.0,126.0,0.0,127.0,128.0,18.0,-107.0,-81.0,127.0,127.0,127.0,108.0,82.0,-5.0
123.0,127.0,124.0,128.0,126.0,0.0,127.0,127.0,18.0,-107.0,-81.0,127.0,127.0,127.0,108.0,82.0,-5.0
124.0,128.0,119.0,128.0,126.0,0.0,127.0,127.0,18.0,-107.0,-81.0,127.0,127.0,127.0,108.0,82.0,-5.0
124.0,128.0,119.0,128.0,126.0,0.0,127.0,127.0,18.0,-107.0,-81.0,127.0,127.0,127.0,108.0,82.0,-5.0
124.0,127.0,120.0,128.0,126.0,0.0,127.0,128.0,18.0,-107.0,-81.0,127.0,127.0,127.0,108.0,82.0,-5.0
124.0,127.0,120.0,128.0,126.0,0.0,127.0,127.0,18.0,-107.0,-81.0,127.0,127.0,127.0,108.0,82.0,-5.0
124.0,127.0,120.0,128.0,126.0,0.0,127.0,128.0,18.0,-107.0,-81.0,127.0,127.0,127.0,108.0,82.0,-5.0
124.0,127.0,120.0,128.0,126.0,0.0,127.0,127.0,18.0,-107.0,-81.0,127.0,127.0,127.0,108.0,82.0,-5.0
124.0,127.0,120.0,128.0,126.0,0.0,127.0,128.0,18.0,-107.0,-81.0,127.0,127.0,127.0,108.0,82.0,-5.0
124.0,127.0,120.0,128.0,126.0,0.0,127.0,127.0,18.0,-107.0,-81.0,127.0,127.0,127.0,108.0,82.0,-5.0
124.0,127.0,120.0,128.0,126.0,0.0,127.0,128.0,18.0,-107.0,-81.0,127.0,127.0,127.0,108.0,82.0,-5.0
124.0,128.0,119.0,128.0,126.0,0.0,127.0,127.0,18.0,-107.0,-81.0,127.0,127.0,127.0,108.0,82.0,-5.0
123.0,127.0,125.0,129.0,126.0,0.0,128.0,127.0,18.0,-107.0,-81.0,127.0,127.0,127.0,108.0,82.0,-5.0
123.0,127.0,125.0,129.0,126.0,0.0,128.0,127.0,18.0,-107.0,-81.0,127.0,127.0,127.0,108.0,82.0,-5.0
123.0,127.0,125.0,129.0,126.0,0.0,128.0,127.0,18.0,-107.0,-81.0,127.0,127.0,127.0,108.0,82.0,-5.0
123.0,127.0,125.0,129.0,126.0,0.0,128.0,127.0,18.0,-107.0,-81.0,127.0,127.0,127.0,108.0,82.0,-5.0
123.0,127.0,125.0,129.0,126.0,0.0,128.0,128.0,18.0,-107.0,-81.0,127.0,127.0,127.0,108.0,82.0,-5.0
123.0,127.0,125.0,129.0,126.0,0.0,128.0,128.0,18.0,-107.0,-81.0,127.0,127.0,127.0,108.0,82.0,-5.0
123.0,127.0,125.0,129.0,126.0,0.0,128.0,128.0,18.0,-107.0,-81.0,127.0,127.0,127.0,108.0,82.0,-5.0
123.0,127.0,126.0,129.0,126.0,0.0,128.0,128.0,18.0,-107.0,-81.0,127.0,127.0,127.0,108.0,82.0,-5.0
123.0,127.0,124.0,129.0,126.0,0.0,128.0,127.0,18.0,-107.0,-81.0,127.0,127.0,127.0,108.0,82.0,-5.0
124.0,127.0,124.0,129.0,126.0,0.0,128.0,127.0,18.0,-107.0,-81.0,127.0,127.0,127.0,108.0,82.0,-5.0
123.0,127.0,129.0,129.0,126.0,0.0,128.0,128.0,18.0,-106.0,-81.0,127.0,127.0,127.0,109.0,82.0,-5.0
123.0,127.0,129.0,129.0,126.0,0.0,128.0,128.0,18.0,-106.0,-81.0,127.0,127.0,127.0,109.0,82.0,-5.0
123.0,127.0,129.0,129.0,126.0,0.0,128.0,128.0,18.0,-106.0,-81.0,127.0,127.0,127.0,109.0,82.0,-5.0
123.0,127.0,130.0,129.0,126.0,0.0,128.0,128.0,18.0,-106.0,-81.0,127.0,127.0,127.0,109.0,82.0,-5.0
123.0,127.0,130.0,129.0,126.0,0.0,128.0,128.0,18.0,-106.0,-81.0,127.0,127.0,127.0,109.0,82.0,-5.0
123.0,127.0,130.0,129.0,126.0,0.0,128.0,128.0,18.0,-106.0,-81.0,127.0,127.0,127.0,109.0,82.0,-5.0
123.0,127.0,130.0,129.0,126.0,0.0,128.0,128.0,18.0,-106.0,-81.0,127.0,127.0,127.0,109.0,82.0,-5.0
123.0,127.0,129.0,129.0,126.0,0.0,128.0,127.0,18.0,-106.0,-81.0,127.0,127.0,127.0,109.0,82.0,-5.0
123.0,127.0,129.0,129.0,126.0,0.0,128.0,128.0,18.0,-106.0,-81.0,127.0,127.0,127.0,109.0,82.0,-5.0
123.0,127.0,129.0,129.0,126.0,0.0,128.0,128.0,18.0,-106.0,-81.0,127.0,127.0,127.0,109.0,82.0,-5.0
123.0,127.0,124.0,129.0,126.0,0.0,127.0,127.0,18.0,-106.0,-81.0,127.0,127.0,127.0,109.0,82.0,-5.0
123.0,127.0,124.0,129.0,126.0,0.0,127.0,127.0,18.0,-106.0,-81.0,127.0,127.0,127.0,109.0,82.0,-5.0
123.0,127.0,124.0,129.0,126.0,0.0,127.0,127.0,18.0,-106.0,-81.0,127.0,127.0,127.0,109.0,82.0,-5.0
123.0,127.0,123.0,129.0,126.0,0.0,127.0,127.0,18.0,-106.0,-81.0,127.0,127.0,127.0,109.0,82.0,-5.0
123.0,127.0,123.0,129.0,126.0,0.0,127.0,127.0,18.0,-106.0,-81.0,127.0,127.0,127.0,109.0,82.0,-5.0
123.0,127.0,123.0,129.0,126.0,0.0,127.0,127.0,18.0,-106.0,-81.0,127.0,127.0,127.0,109.0,82.0,-5.0
123.0,127.0,124.0,129.0,126.0,0.0,127.0,127.0,18.0,-106.0,-81.0,127.0,127.0,127.0,109.0,82.0,-5.0
123.0,127.0,124.0,129.0,126.0,0.0,127.0,127.0,18.0,-106.0,-81.0,127.0,127.0,127.0,109.0,82.0,-5.0
123.0,127.0,124.0,129.0,126.0,0.0,127.0,127.0,18.0,-106.0,-81.0,127.0,127.0,127.0,109.0,82.0,-5.0
123.0,127.0,124.0,129.0,126.0,0.0,127.0,127.0,18.0,-106.0,-81.0,127.0,127.0,127.0,109.0,82.0,-5.0
122.0,127.0,117.0,128.0,127.0,0.0,126.0,127.0,18.0,-106.0,-81.0,127.0,127.0,127.0,109.0,82.0,-5.0
122.0,127.0,118.0,128.0,127.0,0.0,126.0,127.0,18.0,-106.0,-81.0,127.0,127.0,127.0,109.0,82.0,-5.0
122.0,127.0,118.0,128.0,127.0,0.0,126.0,127.0,18.0,-106.0,-81.0,127.0,127.0,127.0,109.0,82.0,-5.0
122.0,127.0,118.0,128.0,127.0,0.0,126.0,127.0,18.0,-106.0,-81.0,127.0,127.0,127.0,109.0,82.0,-5.0
122.0,127.0,118.0,128.0,126.0,0.0,126.0,127.0,18.0,-106.0,-81.0,127.0,127.0,127.0,109.0,82.0,-5.0
122.0,127.0,117.0,128.0,127.0,0.0,126.0,127.0,18.0,-106.0,-81.0,127.0,127.0,127.0,109.0,82.0,-5.0
122.0,127.0,117.0,128.0,127.0,0.0,126.0,127.0,18.0,-106.0,-81.0,127.0,127.0,127.0,109.0,82.0,-5.0
122.0,127.0,117.0,128.0,127.0,0.0,126.0,127.0,18.0,-106.0,-81.0,127.0,127.0,127.0,109.0,82.0,-5.0
122.0,127.0,117.0,129.0,127.0,0.0,126.0,127.0,18.0,-106.0,-81.0,127.0,127.0,127.0,109.0,82.0,-5.0
122.0,127.0,117.0,129.0,127.0,0.0,126.0,127.0,18.0,-106.0,-81.0,127.0,127.0,127.0,109.0,82.0,-5.0
122.0,127.0,125.0,128.0,126.0,0.0,126.0,127.0,18.0,-106.0,-81.0,127.0,127.0,127.0,110.0,82.0,-5.0
122.0,127.0,125.0,128.0,126.0,0.0,126.0,127.0,18.0,-106.0,-81.0,127.0,127.0,127.0,110.0,82.0,-5.0
122.0,127.0,125.0,128.0,126.0,0.0,126.0,127.0,18.0,-106.0,-81.0,127.0,127.0,127.0,110.0,82.0,-5.0
122.0,127.0,125.0,128.0,126.0,0.0,126.0,127.0,18.0,-106.0,-81.0,127.0,127.0,127.0,110.0,82.0,-5.0
122.0,127.0,124.0,128.0,126.0,0.0,126.0,127.0,18.0,-106.0,-81.0,127.0,127.0,127.0,110.0,82.0,-5.0
122.0,127.0,124.0,128.0,126.0,0.0,126.0,127.0,18.0,-106.0,-81.0,127.0,127.0,127.0,110.0,82.0,-5.0
122.0,127.0,124.0,128.0,126.0,0.0,126.0,127.0,18.0,-106.0,-81.0,127.0,127.0,127.0,110.0,82.0,-5.0
122.0,127.0,125.0,128.0,126.0,0.0,126.0,127.0,18.0,-106.0,-81.0,127.0,127.0,127.0,110.0,82.0,-5.0
122.0,127.0,125.0,128.0,126.0,0.0,126.0,127.0,18.0,-106.0,-81.0,127.0,127.0,127.0,110.0,82.0,-5.0
122.0,127.0,125.0,128.0,126.0,0.0,126.0,127.0,18.0,-106.0,-81.0,127.0,127.0,127.0,110.0,82.0,-5.0
122.0,127.0,133.0,128.0,126.0,67.0,125.0,127.0,18.0,-106.0,-80.0,127.0,127.0,127.0,110.0,82.0,-5.0
122.0,127.0,133.0,128.0,126.0,69.0,125.0,127.0,18.0,-106.0,-80.0,127.0,127.0,127.0,110.0,82.0,-5.0
122.0,127.0,133.0,128.0,126.0,71.0,125.0,127.0,18.0,-106.0,-80.0,127.0,127.0,127.0,110.0,82.0,-5.0
122.0,127.0,133.0,128.0,126.0,54.0,125.0,127.0,18.0,-106.0,-80.0,127.0,127.0,127.0,110.0,82.0,-5.0
122.0,127.0,133.0,128.0,126.0,57.0,125.0,127.0,18.0,-106.0,-80.0,127.0,127.0,127.0,110.0,82.0,-5.0
122.0,127.0,133.0,128.0,126.0,59.0,125.0,127.0,18.0,-106.0,-80.0,127.0,127.0,127.0,110.0,82.0,-5.0
122.0,127.0,133.0,128.0,126.0,61.0,125.0,127.0,18.0,-106.0,-80.0,127.0,127.0,127.0,110.0,82.0,-5.0
122.0,127.0,133.0,128.0,126.0,62.0,125.0,127.0,18.0,-106.0,-80.0,127.0,127.0,127.0,110.0,82.0,-5.0
122.0,127.0,133.0,128.0,126.0,63.0,125.0,127.0,18.0,-106.0,-80.0,127.0,127.0,127.0,110.0,82.0,-5.0
122.0,127.0,133.0,128.0,126.0,65.0,125.0,127.0,18.0,-106.0,-80.0,127.0,127.0,127.0,110.0,82.0,-5.0
123.0,128.0,133.0,128.0,126.0,114.0,126.0,127.0,18.0,-106.0,-80.0,127.0,127.0,127.0,110.0,82.0,-5.0
123.0,128.0,133.0,128.0,126.0,115.0,126.0,127.0,18.0,-106.0,-80.0,127.0,127.0,127.0,110.0,82.0,-5.0
123.0,127.0,133.0,128.0,126.0,108.0,126.0,127.0,18.0,-106.0,-80.0,127.0,127.0,127.0,110.0,82.0,-5.0
123.0,127.0,133.0,128.0,126.0,109.0,126.0,127.0,18.0,-106.0,-80.0,127.0,127.0,127.0,110.0,82.0,-5.0
123.0,128.0,133.0,128.0,126.0,110.0,126.0,127.0,18.0,-106.0,-80.0,127.0,127.0,127.0,110.0,82.0,-5.0
123.0,127.0,133.0,128.0,126.0,111.0,126.0,127.0,18.0,-106.0,-80.0,127.0,127.0,127.0,110.0,82.0,-5.0
123.0,127.0,133.0,128.0,126.0,111.0,126.0,127.0,18.0,-106.0,-80.0,127.0,127.0,127.0,110.0,82.0,-5.0
123.0,127.0,133.0,128.0,126.0,112.0,126.0,127.0,18.0,-106.0,-80.0,127.0,127.0,127.0,110.0,82.0,-5.0
123.0,127.0,133.0,128.0,126.0,112.0,126.0,127.0,18.0,-106.0,-80.0,127.0,127.0,127.0,110.0,82.0,-5.0
123.0,127.0,133.0,128.0,126.0,113.0,126.0,127.0,18.0,-106.0,-80.0,127.0,127.0,127.0,110.0,82.0,-5.0
124.0,128.0,135.0,128.0,127.0,125.0,127.0,127.0,18.0,-106.0,-80.0,127.0,127.0,127.0,111.0,82.0,-5.0
124.0,128.0,135.0,128.0,127.0,125.0,127.0,127.0,18.0,-106.0,-80.0,127.0,127.0,127.0,111.0,82.0,-5.0
124.0,128.0,135.0,128.0,127.0,126.0,126.0,127.0,18.0,-106.0,-80.0,127.0,127.0,127.0,111.0,82.0,-5.0
124.0,128.0,135.0,128.0,127.0,127.0,126.0,127.0,18.0,-106.0,-80.0,127.0,127.0,127.0,111.0,82.0,-5.0
124.0,128.0,135.0,128.0,127.0,127.0,126.0,127.0,18.0,-106.0,-80.0,127.0,127.0,127.0,111.0,82.0,-5.0
124.0,128.0,135.0,128.0,127.0,127.0,127.0,127.0,18.0,-106.0,-80.0,127.0,127.0,127.0,111.0,82.0,-5.0
124.0,128.0,135.0,128.0,127.0,127.0,127.0,127.0,18.0,-106.0,-80.0,127.0,127.0,127.0,111.0,82.0,-5.0
124.0,128.0,135.0,128.0,127.0,127.0,127.0,127.0,18.0,-106.0,-80.0,127.0,127.0,127.0,111.0,82.0,-5.0
124.0,127.0,135.0,128.0,127.0,127.0,127.0,127.0,18.0,-106.0,-80.0,127.0,127.0,127.0,111.0,82.0,-5.0
124.0,127.0,135.0,128.0,127.0,127.0,127.0,127.0,18.0,-106.0,-80.0,127.0,127.0,127.0,111.0,82.0,-5.0
123.0,127.0,135.0,127.0,127.0,130.0,127.0,127.0,18.0,-106.0,-80.0,127.0,127.0,127.0,111.0,82.0,-5.0
123.0,127.0,135.0,127.0,127.0,131.0,126.0,127.0,18.0,-106.0,-80.0,127.0,127.0,127.0,111.0,82.0,-5.0
123.0,128.0,135.0,127.0,127.0,131.0,126.0,127.0,18.0,-106.0,-80.0,127.0,127.0,127.0,111.0,82.0,-5.0
123.0,128.0,135.0,127.0,127.0,132.0,126.0,127.0,18.0,-106.0,-80.0,127.0,127.0,127.0,111.0,82.0,-5.0
123.0,127.0,135.0,127.0,127.0,131.0,126.0,127.0,18.0,-106.0,-80.0,127.0,127.0,127.0,111.0,82.0,-5.0
123.0,127.0,135.0,127.0,127.0,131.0,126.0,127.0,18.0,-106.0,-80.0,127.0,127.0,127.0,111.0,82.0,-5.0
123.0,127.0,135.0,127.0,127.0,131.0,126.0,127.0,18.0,-106.0,-80.0,127.0,127.0,127.0,111.0,82.0,-5.0
123.0,127.0,135.0,127.0,127.0,131.0,126.0,127.0,18.0,-106.0,-80.0,127.0,127.0,127.0,111.0,82.0,-5.0
123.0,127.0,135.0,127.0,127.0,131.0,126.0,127.0,18.0,-106.0,-80.0,127.0,127.0,127.0,111.0,82.0,-5.0
123.0,127.0,135.0,127.0,127.0,130.0,127.0,127.0,18.0,-106.0,-80.0,127.0,127.0,127.0,111.0,82.0,-5.0
124.0,128.0,133.0,127.0,126.0,132.0,125.0,127.0,18.0,-106.0,-80.0,127.0,127.0,127.0,111.0,82.0,-5.0
124.0,128.0,132.0,128.0,126.0,133.0,125.0,127.0,18.0,-106.0,-80.0,127.0,127.0,127.0,111.0,82.0,-5.0
124.0,128.0,132.0,128.0,126.0,133.0,125.0,127.0,18.0,-106.0,-80.0,127.0,127.0,127.0,111.0,82.0,-5.0
124.0,128.0,132.0,128.0,126.0,133.0,125.0,127.0,18.0,-106.0,-80.0,127.0,127.0,127.0,111.0,82.0,-5.0
124.0,128.0,132.0,128.0,126.0,133.0,125.0,127.0,18.0,-106.0,-80.0,127.0,127.0,127.0,111.0,82.0,-5.0
124.0,127.0,132.0,128.0,126.0,133.0,125.0,127.0,18.0,-106.0,-80.0,127.0,127.0,127.0,111.0,82.0,-5.0
124.0,127.0,132.0,128.0,126.0,133.0,125.0,127.0,18.0,-106.0,-80.0,127.0,127.0,127.0,111.0,82.0,-5.0
124.0,127.0,132.0,128.0,126.0,133.0,126.0,127.0,18.0,-106.0,-80.0,127.0,127.0,127.0,111.0,82.0,-5.0
124.0,127.0,133.0,128.0,126.0,132.0,126.0,127.0,18.0,-106.0,-80.0,127.0,127.0,127.0,111.0,82.0,-5.0
124.0,127.0,133.0,128.0,126.0,132.0,126.0,127.0,18.0,-106.0,-80.0,127.0,127.0,127.0,111.0,82.0,-5.0
124.0,128.0,128.0,128.0,126.0,134.0,125.0,127.0,19.0,-106.0,-80.0,127.0,127.0,127.0,111.0,82.0,-5.0
124.0,128.0,128.0,128.0,126.0,134.0,126.0,127.0,19.0,-106.0,-80.0,127.0,127.0,127.0,111.0,82.0,-5.0
124.0,128.0,128.0,128.0,126.0,134.0,126.0,127.0,19.0,-106.0,-80.0,127.0,127.0,127.0,111.0,82.0,-5.0
124.0,128.0,128.0,128.0,126.0,134.0,126.0,127.0,19.0,-106.0,-80.0,127.0,127.0,127.0,111.0,82.0,-5.0
124.0,128.0,128.0,128.0,126.0,134.0,126.0,127.0,19.0,-106.0,-80.0,127.0,127.0,127.0,111.0,82.0,-5.0
124.0,128.0,128.0,128.0,126.0,134.0,126.0,127.0,19.0,-106.0,-80.0,127.0,127.0,127.0,111.0,82.0,-5.0
124.0,128.0,128.0,128.0,126.0,133.0,126.0,127.0,19.0,-106.0,-80.0,127.0,127.0,127.0,111.0,82.0,-5.0
124.0,128.0,129.0,128.0,126.0,132.0,126.0,127.0,19.0,-106.0,-80.0,127.0,127.0,127.0,111.0,82.0,-5.0
124.0,128.0,129.0,128.0,126.0,132.0,126.0,127.0,19.0,-106.0,-80.0,127.0,127.0,127.0,111.0,82.0,-5.0
124.0,128.0,129.0,128.0,126.0,132.0,126.0,127.0,19.0,-106.0,-80.0,127.0,127.0,127.0,111.0,82.0,-5.0
125.0,128.0,126.0,127.0,126.0,135.0,126.0,128.0,19.0,-106.0,-80.0,127.0,127.0,127.0,111.0,82.0,-5.0
125.0,128.0,126.0,127.0,126.0,135.0,126.0,128.0,19.0,-106.0,-80.0,127.0,127.0,127.0,111.0,82.0,-5.0
125.0,128.0,126.0,127.0,126.0,135.0,126.0,128.0,19.0,-106.0,-80.0,127.0,127.0,127.0,111.0,82.0,-5.0
125.0,128.0,126.0,127.0,126.0,135.0,126.0,128.0,19.0,-106.0,-80.0,127.0,127.0,127.0,111.0,82.0,-5.0
125.0,128.0,126.0,127.0,126.0,135.0,126.0,128.0,19.0,-106.0,-80.0,127.0,127.0,127.0,111.0,82.0,-5.0
125.0,127.0,126.0,127.0,126.0,135.0,126.0,128.0,19.0,-106.0,-80.0,127.0,127.0,127.0,111.0,82.0,-5.0
125.0,128.0,126.0,128.0,126.0,134.0,126.0,128.0,19.0,-106.0,-80.0,127.0,127.0,127.0,111.0,82.0,-5.0
125.0,128.0,126.0,127.0,126.0,134.0,126.0,128.0,19.0,-106.0,-80.0,127.0,127.0,127.0,111.0,82.0,-5.0
125.0,128.0,126.0,127.0,126.0,134.0,126.0,127.0,19.0,-106.0,-80.0,127.0,127.0,127.0,111.0,82.0,-5.0
125.0,128.0,126.0,127.0,126.0,135.0,126.0,128.0,19.0,-106.0,-80.0,127.0,127.0,127.0,111.0,82.0,-5.0
125.0,128.0,128.0,127.0,126.0,134.0,126.0,127.0,19.0,-107.0,-80.0,127.0,127.0,127.0,111.0,83.0,-5.0
125.0,128.0,127.0,127.0,126.0,135.0,126.0,127.0,19.0,-107.0,-80.0,127.0,127.0,127.0,111.0,83.0,-5.0
125.0,128.0,127.0,127.0,126.0,136.0,126.0,127.0,19.0,-107.0,-80.0,127.0,127.0,127.0,111.0,83.0,-5.0
125.0,128.0,128.0,127.0,126.0,136.0,126.0,127.0,19.0,-107.0,-80.0,127.0,127.0,127.0,111.0,83.0,-5.0
125.0,127.0,128.0,127.0,126.0,135.0,126.0,127.0,19.0,-107.0,-80.0,127.0,127.0,127.0,111.0,83.0,-5.0
125.0,127.0,128.0,127.0,126.0,133.0,126.0,128.0,19.0,-107.0,-80.0,127.0,127.0,127.0,111.0,83.0,-5.0
125.0,127.0,128.0,127.0,126.0,134.0,126.0,128.0,19.0,-107.0,-80.0,127.0,127.0,127.0,111.0,83.0,-5.0
125.0,127.0,128.0,127.0,126.0,134.0,126.0,128.0,19.0,-107.0,-80.0,127.0,127.0,127.0,111.0,83.0,-5.0
125.0,127.0,128.0,127.0,126.0,133.0,126.0,127.0,19.0,-107.0,-80.0,127.0,127.0,127.0,111.0,83.0,-5.0
125.0,127.0,128.0,127.0,126.0,134.0,126.0,127.0,19.0,-107.0,-80.0,127.0,127.0,127.0,111.0,83.0,-5.0
125.0,128.0,129.0,127.0,126.0,136.0,126.0,127.0,19.0,-107.0,-80.0,127.0,127.0,127.0,111.0,83.0,-5.0
125.0,128.0,129.0,127.0,126.0,136.0,126.0,127.0,19.0,-107.0,-80.0,127.0,127.0,127.0,111.0,83.0,-5.0
125.0,128.0,129.0,127.0,126.0,136.0,126.0,127.0,19.0,-107.0,-80.0,127.0,127.0,127.0,111.0,83.0,-5.0
125.0,127.0,129.0,127.0,126.0,135.0,127.0,127.0,19.0,-107.0,-80.0,127.0,127.0,127.0,111.0,83.0,-5.0
125.0,128.0,128.0,128.0,126.0,136.0,126.0,127.0,19.0,-107.0,-80.0,127.0,127.0,127.0,111.0,83.0,-5.0
125.0,128.0,128.0,128.0,126.0,137.0,126.0,127.0,19.0,-107.0,-80.0,127.0,127.0,127.0,111.0,83.0,-5.0
125.0,128.0,129.0,128.0,126.0,137.0,126.0,127.0,19.0,-107.0,-80.0,127.0,127.0,127.0,111.0,83.0,-5.0
125.0,128.0,129.0,128.0,126.0,136.0,126.0,128.0,19.0,-107.0,-80.0,127.0,127.0,127.0,111.0,83.0,-5.0
125.0,128.0,129.0,128.0,126.0,136.0,126.0,127.0,19.0,-107.0,-80.0,127.0,127.0,127.0,111.0,83.0,-5.0
125.0,128.0,129.0,127.0,126.0,136.0,126.0,127.0,19.0,-107.0,-80.0,127.0,127.0,127.0,111.0,83.0,-5.0
125.0,128.0,131.0,127.0,126.0,135.0,127.0,127.0,19.0,-107.0,-80.0,127.0,127.0,127.0,112.0,83.0,-5.0
125.0,128.0,131.0,127.0,126.0,135.0,127.0,127.0,19.0,-107.0,-80.0,127.0,127.0,127.0,112.0,83.0,-5.0
125.0,127.0,131.0,127.0,126.0,135.0,127.0,127.0,19.0,-107.0,-80.0,127.0,127.0,127.0,112.0,83.0,-5.0
125.0,128.0,129.0,127.0,126.0,136.0,127.0,127.0,19.0,-107.0,-80.0,127.0,127.0,127.0,112.0,83.0,-5.0
125.0,128.0,130.0,127.0,126.0,136.0,127.0,127.0,19.0,-107.0,-80.0,127.0,127.0,127.0,112.0,83.0,-5.0
125.0,128.0,130.0,127.0,126.0,136.0,127.0,127.0,19.0,-107.0,-80.0,127.0,127.0,127.0,112.0,83.0,-5.0
125.0,128.0,131.0,127.0,126.0,136.0,127.0,128.0,19.0,-107.0,-80.0,127.0,127.0,127.0,112.0,83.0,-5.0
125.0,128.0,131.0,127.0,126.0,136.0,127.0,128.0,19.0,-107.0,-80.0,127.0,127.0,127.0,112.0,83.0,-5.0
125.0,128.0,131.0,128.0,126.0,136.0,127.0,127.0,19.0,-107.0,-80.0,127.0,127.0,127.0,112.0,83.0,-5.0
125.0,128.0,131.0,127.0,126.0,136.0,127.0,127.0,19.0,-107.0,-80.0,127.0,127.0,127.0,112.0,83.0,-5.0
125.0,127.0,130.0,127.0,126.0,134.0,127.0,127.0,19.0,-107.0,-80.0,127.0,127.0,127.0,112.0,83.0,-5.0
125.0,127.0,130.0,128.0,126.0,134.0,127.0,127.0,19.0,-107.0,-80.0,127.0,127.0,127.0,112.0,83.0,-5.0
125.0,128.0,130.0,127.0,126.0,134.0,126.0,127.0,19.0,-107.0,-80.0,127.0,127.0,127.0,112.0,83.0,-5.0
125.0,128.0,130.0,127.0,126.0,135.0,126.0,127.0,19.0,-107.0,-80.0,127.0,127.0,127.0,112.0,83.0,-5.0
125.0,128.0,130.0,127.0,126.0,135.0,126.0,127.0,19.0,-107.0,-80.0,127.0,127.0,127.0,112.0,83.0,-5.0
125.0,128.0,130.0,127.0,126.0,135.0,126.0,127.0,19.0,-107.0,-80.0,127.0,127.0,127.0,112.0,83.0,-5.0
125.0,128.0,130.0,127.0,126.0,135.0,126.0,127.0,19.0,-107.0,-80.0,127.0,127.0,127.0,112.0,83.0,-5.0
125.0,128.0,130.0,127.0,126.0,135.0,126.0,127.0,19.0,-107.0,-80.0,127.0,127.0,127.0,112.0,83.0,-5.0
125.0,127.0,130.0,127.0,126.0,134.0,127.0,127.0,19.0,-107.0,-80.0,127.0,127.0,127.0,112.0,83.0,-5.0
125.0,127.0,130.0,127.0,126.0,134.0,127.0,127.0,19.0,-107.0,-80.0,127.0,127.0,127.0,112.0,83.0,-5.0
125.0,127.0,130.0,127.0,127.0,135.0,127.0,128.0,19.0,-107.0,-79.0,127.0,127.0,127.0,112.0,83.0,-5.0
125.0,127.0,130.0,127.0,126.0,134.0,127.0,128.0,19.0,-107.0,-79.0,127.0,127.0,127.0,112.0,83.0,-5.0
125.0,128.0,130.0,127.0,126.0,135.0,127.0,128.0,19.0,-107.0,-79.0,127.0,127.0,127.0,112.0,83.0,-5.0
125.0,128.0,130.0,127.0,126.0,135.0,127.0,128.0,19.0,-107.0,-79.0,127.0,127.0,127.0,112.0,83.0,-5.0
125.0,128.0,130.0,127.0,126.0,135.0,127.0,128.0,19.0,-107.0,-79.0,127.0,127.0,127.0,112.0,83.0,-5.0
125.0,128.0,129.0,127.0,127.0,136.0,126.0,128.0,19.0,-107.0,-79.0,127.0,127.0,127.0,112.0,83.0,-5.0
125.0,128.0,129.0,127.0,127.0,136.0,127.0,128.0,19.0,-107.0,-79.0,127.0,127.0,127.0,112.0,83.0,-5.0
125.0,128.0,130.0,127.0,127.0,136.0,127.0,128.0,19.0,-107.0,-79.0,127.0,127.0,127.0,112.0,83.0,-5.0
125.0,127.0,130.0,127.0,127.0,136.0,127.0,128.0,19.0,-107.0,-79.0,127.0,127.0,127.0,112.0,83.0,-5.0
125.0,127.0,130.0,127.0,127.0,136.0,127.0,128.0,19.0,-107.0,-79.0,127.0,127.0,127.0,112.0,83.0,-5.0
125.0,127.0,128.0,128.0,127.0,133.0,127.0,128.0,19.0,-107.0,-79.0,127.0,127.0,127.0,112.0,83.0,-5.0
125.0,127.0,128.0,128.0,127.0,133.0,127.0,128.0,19.0,-107.0,-79.0,127.0,127.0,127.0,112.0,83.0,-5.0
125.0,127.0,128.0,128.0,127.0,133.0,127.0,128.0,19.0,-107.0,-79.0,127.0,127.0,127.0,112.0,83.0,-5.0
125.0,127.0,128.0,128.0,127.0,134.0,127.0,128.0,19.0,-107.0,-79.0,127.0,127.0,127.0,112.0,83.0,-5.0
126.0,128.0,128.0,128.0,127.0,135.0,127.0,128.0,19.0,-107.0,-79.0,127.0,127.0,127.0,112.0,83.0,-5.0
126.0,128.0,128.0,128.0,127.0,135.0,127.0,128.0,19.0,-107.0,-79.0,127.0,127.0,127.0,112.0,83.0,-5.0
126.0,128.0,128.0,128.0,127.0,135.0,127.0,128.0,19.0,-107.0,-79.0,127.0,127.0,127.0,112.0,83.0,-5.0
126.0,128.0,128.0,128.0,127.0,135.0,127.0,128.0,19.0,-107.0,-79.0,127.0,127.0,127.0,112.0,83.0,-5.0
126.0,128.0,128.0,128.0,127.0,135.0,127.0,128.0,19.0,-107.0,-79.0,127.0,127.0,127.0,112.0,83.0,-5.0
126.0,128.0,128.0,128.0,127.0,135.0,127.0,128.0,19.0,-107.0,-79.0,127.0,127.0,127.0,112.0,83.0,-5.0
126.0,127.0,128.0,128.0,127.0,134.0,127.0,127.0,19.0,-107.0,-79.0,127.0,127.0,127.0,113.0,83.0,-5.0
126.0,127.0,128.0,128.0,127.0,134.0,127.0,127.0,19.0,-107.0,-79.0,127.0,127.0,127.0,113.0,83.0,-5.0
125.0,127.0,128.0,128.0,127.0,134.0,126.0,127.0,19.0,-107.0,-79.0,127.0,127.0,127.0,113.0,83.0,-5.0
125.0,128.0,128.0,128.0,127.0,135.0,126.0,127.0,19.0,-107.0,-79.0,127.0,127.0,127.0,113.0,83.0,-5.0
125.0,128.0,128.0,128.0,127.0,136.0,126.0,127.0,19.0,-107.0,-79.0,127.0,127.0,127.0,113.0,83.0,-5.0
126.0,127.0,128.0,128.0,127.0,135.0,126.0,128.0,19.0,-107.0,-79.0,127.0,127.0,127.0,113.0,83.0,-5.0
125.0,127.0,128.0,128.0,127.0,135.0,127.0,127.0,19.0,-107.0,-79.0,127.0,127.0,127.0,113.0,83.0,-5.0
126.0,127.0,128.0,128.0,127.0,135.0,126.0,128.0,19.0,-107.0,-79.0,127.0,127.0,127.0,113.0,83.0,-5.0
126.0,127.0,128.0,128.0,127.0,135.0,127.0,127.0,19.0,-107.0,-79.0,127.0,127.0,127.0,113.0,83.0,-5.0
126.0,127.0,128.0,128.0,127.0,134.0,127.0,128.0,19.0,-107.0,-79.0,127.0,127.0,127.0,113.0,83.0,-5.0
126.0,128.0,128.0,128.0,127.0,137.0,127.0,127.0,19.0,-107.0,-79.0,127.0,127.0,127.0,113.0,83.0,-5.0
126.0,128.0,128.0,128.0,127.0,137.0,127.0,128.0,19.0,-107.0,-79.0,127.0,127.0,127.0,113.0,83.0,-5.0
126.0,128.0,129.0,128.0,127.0,137.0,127.0,128.0,19.0,-107.0,-79.0,127.0,127.0,127.0,113.0,83.0,-5.0
126.0,127.0,129.0,128.0,127.0,137.0,127.0,127.0,19.0,-107.0,-79.0,127.0,127.0,127.0,113.0,83.0,-5.0
126.0,127.0,129.0,128.0,127.0,137.0,127.0,128.0,19.0,-107.0,-79.0,127.0,127.0,127.0,113.0,83.0,-5.0
126.0,127.0,129.0,128.0,127.0,137.0,127.0,128.0,19.0,-107.0,-79.0,127.0,127.0,127.0,113.0,83.0,-5.0
126.0,127.0,129.0,128.0,127.0,136.0,127.0,128.0,19.0,-107.0,-79.0,127.0,127.0,127.0,113.0,83.0,-5.0
126.0,127.0,129.0,128.0,127.0,136.0,127.0,128.0,19.0,-107.0,-79.0,127.0,127.0,127.0,113.0,83.0,-5.0
126.0,127.0,128.0,128.0,127.0,136.0,127.0,127.0,19.0,-107.0,-79.0,127.0,127.0,127.0,113.0,83.0,-5.0
126.0,128.0,128.0,128.0,127.0,137.0,126.0,127.0,19.0,-107.0,-79.0,127.0,127.0,127.0,113.0,83.0,-5.0
126.0,127.0,128.0,128.0,126.0,134.0,127.0,128.0,19.0,-107.0,-79.0,127.0,127.0,127.0,113.0,83.0,-5.0
125.0,127.0,128.0,128.0,126.0,135.0,127.0,127.0,19.0,-107.0,-79.0,127.0,127.0,127.0,113.0,83.0,-5.0
125.0,127.0,128.0,128.0,126.0,136.0,127.0,127.0,19.0,-107.0,-79.0,127.0,127.0,127.0,113.0,83.0,-5.0
125.0,127.0,128.0,128.0,126.0,136.0,127.0,128.0,19.0,-107.0,-79.0,127.0,127.0,127.0,113.0,83.0,-5.0
126.0,127.0,128.0,128.0,126.0,135.0,127.0,128.0,19.0,-107.0,-79.0,127.0,127.0,127.0,113.0,83.0,-5.0
126.0,127.0,128.0,127.0,126.0,135.0,127.0,127.0,19.0,-107.0,-79.0,127.0,127.0,127.0,113.0,83.0,-5.0
126.0,127.0,128.0,127.0,126.0,135.0,127.0,127.0,19.0,-107.0,-79.0,127.0,127.0,127.0,113.0,83.0,-5.0
126.0,127.0,128.0,128.0,126.0,134.0,127.0,128.0,19.0,-107.0,-79.0,127.0,127.0,127.0,113.0,83.0,-5.0
126.0,127.0,128.0,128.0,126.0,134.0,127.0,128.0,19.0,-107.0,-79.0,127.0,127.0,127.0,113.0,83.0,-5.0
126.0,127.0,128.0,128.0,126.0,134.0,127.0,128.0,19.0,-107.0,-79.0,127.0,127.0,127.0,113.0,83.0,-5.0
126.0,127.0,126.0,128.0,127.0,138.0,127.0,128.0,19.0,-107.0,-79.0,127.0,127.0,127.0,113.0,83.0,-5.0
126.0,127.0,127.0,128.0,127.0,138.0,127.0,128.0,19.0,-107.0,-79.0,127.0,127.0,127.0,113.0,83.0,-5.0
126.0,127.0,127.0,128.0,127.0,138.0,127.0,128.0,19.0,-107.0,-79.0,127.0,127.0,127.0,113.0,83.0,-5.0
126.0,127.0,127.0,128.0,127.0,137.0,128.0,128.0,19.0,-107.0,-79.0,127.0,127.0,127.0,113.0,83.0,-5.0
126.0,127.0,127.0,128.0,127.0,137.0,128.0,128.0,19.0,-107.0,-79.0,127.0,127.0,127.0,113.0,83.0,-5.0
126.0,127.0,127.0,128.0,127.0,137.0,128.0,128.0,19.0,-107.0,-79.0,127.0,127.0,127.0,113.0,83.0,-5.0
126.0,127.0,126.0,128.0,127.0,137.0,127.0,128.0,19.0,-107.0,-79.0,127.0,127.0,127.0,113.0,83.0,-5.0
126.0,127.0,126.0,128.0,127.0,138.0,127.0,128.0,19.0,-107.0,-79.0,127.0,127.0,127.0,113.0,83.0,-5.0
126.0,128.0,126.0,128.0,127.0,138.0,127.0,128.0,19.0,-107.0,-79.0,127.0,127.0,127.0,113.0,83.0,-5.0
126.0,127.0,126.0,128.0,127.0,138.0,127.0,128.0,19.0,-107.0,-79.0,127.0,127.0,127.0,113.0,83.0,-5.0
126.0,127.0,126.0,128.0,127.0,137.0,127.0,127.0,19.0,-107.0,-79.0,127.0,127.0,127.0,113.0,83.0,-5.0
126.0,127.0,126.0,128.0,126.0,137.0,127.0,127.0,19.0,-107.0,-79.0,127.0,127.0,127.0,113.0,83.0,-5.0
126.0,127.0,126.0,128.0,126.0,137.0,127.0,127.0,19.0,-107.0,-79.0,127.0,127.0,127.0,113.0,83.0,-5.0
126.0,127.0,126.0,128.0,126.0,137.0,127.0,127.0,19.0,-107.0,-79.0,127.0,127.0,127.0,113.0,83.0,-5.0
126.0,127.0,126.0,128.0,127.0,137.0,127.0,127.0,19.0,-107.0,-79.0,127.0,127.0,127.0,113.0,83.0,-5.0
126.0,127.0,126.0,128.0,127.0,135.0,127.0,127.0,19.0,-107.0,-79.0,127.0,127.0,127.0,113.0,83.0,-5.0
126.0,127.0,126.0,128.0,127.0,136.0,127.0,127.0,19.0,-107.0,-79.0,127.0,127.0,127.0,113.0,83.0,-5.0
126.0,128.0,126.0,128.0,127.0,137.0,127.0,127.0,19.0,-107.0,-79.0,127.0,127.0,127.0,113.0,83.0,-5.0
126.0,127.0,126.0,128.0,127.0,137.0,127.0,127.0,19.0,-107.0,-79.0,127.0,127.0,127.0,113.0,83.0,-5.0
126.0,127.0,126.0,128.0,127.0,137.0,127.0,127.0,19.0,-107.0,-79.0,127.0,127.0,127.0,113.0,83.0,-5.0
126.0,127.0,126.0,129.0,127.0,138.0,127.0,128.0,19.0,-107.0,-79.0,127.0,127.0,127.0,113.0,83.0,-5.0
126.0,127.0,126.0,129.0,127.0,138.0,127.0,128.0,19.0,-107.0,-79.0,127.0,127.0,127.0,113.0,83.0,-5.0
126.0,127.0,126.0,129.0,127.0,138.0,127.0,128.0,19.0,-107.0,-79.0,127.0,127.0,127.0,113.0,83.0,-5.0
126.0,127.0,126.0,129.0,127.0,138.0,127.0,128.0,19.0,-107.0,-79.0,127.0,127.0,127.0,113.0,83.0,-5.0
126.0,127.0,125.0,128.0,127.0,136.0,127.0,128.0,19.0,-107.0,-79.0,127.0,127.0,127.0,113.0,83.0,-5.0
126.0,127.0,125.0,128.0,127.0,137.0,127.0,127.0,19.0,-107.0,-79.0,127.0,127.0,127.0,113.0,83.0,-5.0
126.0,127.0,125.0,128.0,127.0,138.0,127.0,128.0,19.0,-107.0,-79.0,127.0,127.0,127.0,113.0,83.0,-5.0
126.0,127.0,125.0,128.0,127.0,138.0,127.0,128.0,19.0,-107.0,-79.0,127.0,127.0,127.0,113.0,83.0,-5.0
126.0,127.0,126.0,128.0,127.0,138.0,127.0,128.0,19.0,-107.0,-79.0,127.0,127.0,127.0,113.0,83.0,-5.0
126.0,127.0,126.0,129.0,127.0,138.0,127.0,128.0,19.0,-107.0,-79.0,127.0,127.0,127.0,113.0,83.0,-5.0
126.0,127.0,127.0,128.0,127.0,137.0,126.0,128.0,19.0,-107.0,-79.0,127.0,127.0,127.0,113.0,83.0,-5.0
125.0,127.0,127.0,128.0,127.0,137.0,126.0,128.0,19.0,-107.0,-79.0,127.0,127.0,127.0,113.0,83.0,-5.0
126.0,127.0,127.0,128.0,127.0,137.0,126.0,128.0,19.0,-107.0,-79.0,127.0,127.0,127.0,113.0,83.0,-5.0
126.0,127.0,127.0,129.0,127.0,136.0,126.0,128.0,19.0,-107.0,-79.0,127.0,127.0,127.0,113.0,83.0,-5.0
125.0,127.0,126.0,128.0,127.0,136.0,126.0,127.0,19.0,-107.0,-79.0,127.0,127.0,127.0,113.0,83.0,-5.0
125.0,128.0,126.0,128.0,127.0,137.0,126.0,127.0,19.0,-107.0,-79.0,127.0,127.0,127.0,113.0,83.0,-5.0
125.0,128.0,126.0,128.0,127.0,138.0,126.0,127.0,19.0,-107.0,-79.0,127.0,127.0,127.0,113.0,83.0,-5.0
125.0,127.0,127.0,128.0,127.0,137.0,126.0,128.0,19.0,-107.0,-79.0,127.0,127.0,127.0,113.0,83.0,-5.0
125.0,127.0,127.0,128.0,127.0,137.0,126.0,128.0,19.0,-107.0,-79.0,127.0,127.0,127.0,113.0,83.0,-5.0
125.0,127.0,127.0,128.0,127.0,137.0,126.0,128.0,19.0,-107.0,-79.0,127.0,127.0,127.0,113.0,83.0,-5.0
126.0,127.0,127.0,128.0,126.0,137.0,126.0,127.0,19.0,-107.0,-79.0,127.0,127.0,127.0,113.0,83.0,-5.0
125.0,127.0,127.0,128.0,126.0,136.0,126.0,127.0,19.0,-107.0,-79.0,127.0,127.0,127.0,113.0,83.0,-5.0
125.0,127.0,127.0,128.0,126.0,136.0,126.0,127.0,19.0,-107.0,-79.0,127.0,127.0,127.0,113.0,83.0,-5.0
125.0,127.0,127.0,128.0,126.0,136.0,125.0,127.0,19.0,-107.0,-79.0,127.0,127.0,127.0,113.0,83.0,-5.0
125.0,127.0,126.0,128.0,126.0,138.0,125.0,127.0,19.0,-107.0,-79.0,127.0,127.0,127.0,113.0,83.0,-5.0
125.0,127.0,127.0,128.0,126.0,138.0,125.0,127.0,19.0,-107.0,-79.0,127.0,127.0,127.0,113.0,83.0,-5.0
125.0,127.0,127.0,128.0,126.0,138.0,125.0,127.0,19.0,-107.0,-79.0,127.0,127.0,127.0,113.0,83.0,-5.0
125.0,127.0,127.0,128.0,126.0,137.0,126.0,127.0,19.0,-107.0,-79.0,127.0,127.0,127.0,113.0,83.0,-5.0
126.0,127.0,127.0,128.0,126.0,137.0,125.0,127.0,19.0,-107.0,-79.0,127.0,127.0,127.0,113.0,83.0,-5.0
125.0,127.0,127.0,128.0,126.0,137.0,126.0,128.0,19.0,-107.0,-79.0,127.0,127.0,127.0,113.0,83.0,-5.0
126.0,127.0,127.0,128.0,126.0,136.0,125.0,127.0,19.0,-107.0,-79.0,127.0,127.0,127.0,113.0,83.0,-5.0
126.0,127.0,127.0,128.0,126.0,136.0,125.0,127.0,19.0,-107.0,-79.0,127.0,127.0,127.0,113.0,83.0,-5.0
126.0,127.0,127.0,128.0,126.0,136.0,125.0,127.0,19.0,-107.0,-79.0,127.0,127.0,127.0,113.0,83.0,-5.0
126.0,127.0,126.0,128.0,126.0,138.0,125.0,128.0,19.0,-107.0,-79.0,127.0,127.0,127.0,113.0,83.0,-5.0
126.0,127.0,126.0,128.0,126.0,138.0,125.0,128.0,19.0,-107.0,-79.0,127.0,127.0,127.0,113.0,83.0,-5.0
126.0,127.0,126.0,128.0,126.0,138.0,125.0,128.0,19.0,-107.0,-79.0,127.0,127.0,127.0,113.0,83.0,-5.0
125.0,128.0,126.0,128.0,126.0,139.0,125.0,127.0,19.0,-107.0,-79.0,127.0,127.0,127.0,113.0,83.0,-5.0
125.0,127.0,126.0,128.0,126.0,139.0,125.0,128.0,19.0,-107.0,-79.0,127.0,127.0,127.0,113.0,83.0,-5.0
126.0,127.0,126.0,128.0,126.0,139.0,125.0,128.0,19.0,-107.0,-79.0,127.0,127.0,127.0,113.0,83.0,-5.0
126.0,127.0,127.0,128.0,126.0,139.0,125.0,128.0,19.0,-107.0,-79.0,127.0,127.0,127.0,113.0,83.0,-5.0
126.0,127.0,127.0,128.0,126.0,137.0,126.0,127.0,19.0,-107.0,-79.0,127.0,127.0,127.0,113.0,83.0,-5.0
126.0,127.0,127.0,128.0,126.0,137.0,126.0,128.0,19.0,-107.0,-79.0,127.0,127.0,127.0,113.0,83.0,-5.0
126.0,127.0,127.0,128.0,126.0,137.0,126.0,127.0,19.0,-107.0,-79.0,127.0,127.0,127.0,113.0,83.0,-5.0
126.0,127.0,127.0,128.0,126.0,137.0,126.0,127.0,19.0,-107.0,-79.0,127.0,127.0,127.0,113.0,83.0,-5.0
126.0,127.0,127.0,128.0,126.0,137.0,126.0,127.0,19.0,-107.0,-79.0,127.0,127.0,127.0,113.0,83.0,-5.0
126.0,127.0,127.0,128.0,126.0,138.0,125.0,127.0,19.0,-107.0,-79.0,127.0,127.0,127.0,113.0,83.0,-5.0
126.0,127.0,127.0,128.0,126.0,138.0,125.0,128.0,19.0,-107.0,-79.0,127.0,127.0,127.0,113.0,83.0,-5.0
126.0,127.0,127.0,128.0,127.0,138.0,126.0,128.0,19.0,-107.0,-79.0,127.0,127.0,127.0,113.0,83.0,-5.0
126.0,127.0,127.0,128.0,126.0,138.0,126.0,127.0,19.0,-107.0,-79.0,127.0,127.0,127.0,113.0,83.0,-5.0
126.0,127.0,127.0,128.0,126.0,137.0,125.0,127.0,19.0,-107.0,-79.0,127.0,127.0,127.0,113.0,83.0,-5.0
126.0,127.0,127.0,128.0,126.0,135.0,126.0,128.0,19.0,-107.0,-79.0,127.0,127.0,127.0,113.0,83.0,-5.0
126.0,127.0,127.0,128.0,126.0,135.0,126.0,127.0,19.0,-107.0,-79.0,127.0,127.0,127.0,113.0,83.0,-5.0
126.0,127.0,127.0,128.0,126.0,135.0,126.0,127.0,19.0,-107.0,-79.0,127.0,127.0,127.0,113.0,83.0,-5.0
126.0,127.0,127.0,128.0,126.0,135.0,126.0,127.0,19.0,-107.0,-79.0,127.0,127.0,127.0,113.0,83.0,-5.0
126.0,127.0,127.0,128.0,126.0,135.0,126.0,127.0,19.0,-107.0,-79.0,127.0,127.0,127.0,113.0,83.0,-5.0
126.0,127.0,127.0,128.0,126.0,135.0,126.0,128.0,19.0,-107.0,-79.0,127.0,127.0,127.0,113.0,83.0,-5.0
126.0,127.0,127.0,128.0,126.0,135.0,126.0,128.0,19.0,-107.0,-79.0,127.0,127.0,127.0,113.0,83.0,-5.0
126.0,127.0,127.0,128.0,126.0,136.0,126.0,127.0,19.0,-107.0,-79.0,127.0,127.0,127.0,113.0,83.0,-5.0
126.0,127.0,127.0,128.0,126.0,135.0,126.0,127.0,19.0,-107.0,-79.0,127.0,127.0,127.0,113.0,83.0,-5.0
126.0,127.0,127.0,128.0,126.0,135.0,126.0,127.0,19.0,-107.0,-79.0,127.0,127.0,127.0,113.0,83.0,-5.0
126.0,127.0,127.0,128.0,127.0,136.0,127.0,127.0,19.0,-107.0,-79.0,127.0,127.0,127.0,113.0,83.0,-5.0
126.0,127.0,126.0,128.0,127.0,137.0,127.0,127.0,19.0,-107.0,-79.0,127.0,127.0,127.0,113.0,83.0,-5.0
126.0,127.0,127.0,128.0,127.0,137.0,127.0,127.0,19.0,-107.0,-79.0,127.0,127.0,127.0,113.0,83.0,-5.0
126.0,127.0,127.0,128.0,127.0,137.0,127.0,127.0,19.0,-107.0,-79.0,127.0,127.0,127.0,113.0,83.0,-5.0
126.0,127.0,127.0,128.0,127.0,137.0,127.0,127.0,19.0,-107.0,-79.0,127.0,127.0,127.0,113.0,83.0,-5.0
126.0,127.0,127.0,128.0,127.0,137.0,127.0,127.0,19.0,-107.0,-79.0,127.0,127.0,127.0,113.0,83.0,-5.0
126.0,127.0,127.0,128.0,127.0,136.0,127.0,128.0,19.0,-107.0,-79.0,127.0,127.0,127.0,113.0,83.0,-5.0
126.0,127.0,127.0,128.0,127.0,135.0,127.0,127.0,19.0,-107.0,-79.0,127.0,127.0,127.0,113.0,83.0,-5.0
126.0,127.0,127.0,128.0,126.0,135.0,127.0,127.0,19.0,-107.0,-79.0,127.0,127.0,127.0,113.0,83.0,-5.0
126.0,127.0,127.0,128.0,127.0,135.0,127.0,127.0,19.0,-107.0,-79.0,127.0,127.0,127.0,113.0,83.0,-5.0
126.0,127.0,126.0,128.0,126.0,136.0,127.0,128.0,19.0,-107.0,-79.0,127.0,127.0,127.0,113.0,83.0,-5.0
126.0,127.0,126.0,128.0,126.0,136.0,127.0,128.0,19.0,-107.0,-79.0,127.0,127.0,127.0,113.0,83.0,-5.0
126.0,127.0,126.0,128.0,126.0,136.0,127.0,128.0,19.0,-107.0,-79.0,127.0,127.0,127.0,113.0,83.0,-5.0
126.0,127.0,127.0,128.0,126.0,135.0,127.0,128.0,19.0,-107.0,-79.0,127.0,127.0,127.0,113.0,83.0,-5.0
126.0,127.0,127.0,128.0,126.0,136.0,127.0,128.0,19.0,-107.0,-79.0,127.0,127.0,127.0,113.0,83.0,-5.0
126.0,127.0,127.0,128.0,126.0,135.0,127.0,128.0,19.0,-107.0,-79.0,127.0,127.0,127.0,113.0,83.0,-5.0
126.0,127.0,126.0,128.0,127.0,134.0,127.0,128.0,19.0,-107.0,-79.0,127.0,127.0,127.0,113.0,83.0,-5.0
126.0,127.0,126.0,128.0,127.0,134.0,127.0,128.0,19.0,-107.0,-79.0,127.0,127.0,127.0,113.0,83.0,-5.0
126.0,127.0,126.0,128.0,126.0,134.0,127.0,128.0,19.0,-107.0,-79.0,127.0,127.0,127.0,113.0,83.0,-5.0
126.0,127.0,126.0,128.0,126.0,135.0,127.0,128.0,19.0,-107.0,-79.0,127.0,127.0,127.0,113.0,83.0,-5.0
126.0,127.0,126.0,127.0,126.0,136.0,126.0,127.0,19.0,-107.0,-79.0,127.0,127.0,127.0,113.0,83.0,-5.0
126.0,127.0,126.0,127.0,126.0,136.0,126.0,127.0,19.0,-107.0,-79.0,127.0,127.0,127.0,113.0,83.0,-5.0
126.0,127.0,126.0,127.0,126.0,136.0,127.0,127.0,19.0,-107.0,-79.0,127.0,127.0,127.0,113.0,83.0,-5.0
126.0,127.0,126.0,127.0,126.0,136.0,127.0,127.0,19.0,-107.0,-79.0,127.0,127.0,127.0,113.0,83.0,-5.0
126.0,127.0,126.0,127.0,126.0,135.0,127.0,127.0,19.0,-107.0,-79.0,127.0,127.0,127.0,113.0,83.0,-5.0
126.0,127.0,126.0,127.0,126.0,134.0,127.0,127.0,19.0,-107.0,-79.0,127.0,127.0,127.0,113.0,83.0,-5.0
126.0,127.0,126.0,127.0,126.0,134.0,127.0,127.0,19.0,-107.0,-79.0,127.0,127.0,127.0,113.0,83.0,-5.0
126.0,127.0,126.0,127.0,126.0,134.0,127.0,127.0,19.0,-107.0,-79.0,127.0,127.0,127.0,113.0,83.0,-5.0
126.0,127.0,126.0,127.0,126.0,134.0,127.0,127.0,19.0,-107.0,-79.0,127.0,127.0,127.0,113.0,83.0,-5.0
126.0,127.0,126.0,127.0,126.0,136.0,126.0,127.0,19.0,-107.0,-79.0,127.0,127.0,127.0,113.0,83.0,-5.0
126.0,127.0,126.0,127.0,127.0,135.0,127.0,127.0,19.0,-107.0,-79.0,127.0,127.0,127.0,113.0,83.0,-5.0
126.0,127.0,126.0,127.0,127.0,135.0,127.0,127.0,19.0,-107.0,-79.0,127.0,127.0,127.0,113.0,83.0,-5.0
126.0,127.0,126.0,127.0,127.0,136.0,127.0,127.0,19.0,-107.0,-79.0,127.0,127.0,127.0,113.0,83.0,-5.0
126.0,127.0,127.0,127.0,127.0,135.0,127.0,127.0,19.0,-107.0,-79.0,127.0,127.0,127.0,113.0,83.0,-5.0
126.0,127.0,126.0,127.0,127.0,134.0,127.0,127.0,19.0,-107.0,-79.0,127.0,127.0,127.0,113.0,83.0,-5.0
126.0,127.0,126.0,127.0,127.0,134.0,127.0,127.0,19.0,-107.0,-79.0,127.0,127.0,127.0,113.0,83.0,-5.0
126.0,127.0,126.0,127.0,127.0,134.0,127.0,127.0,19.0,-107.0,-79.0,127.0,127.0,127.0,113.0,83.0,-5.0
126.0,127.0,126.0,127.0,127.0,134.0,127.0,127.0,19.0,-107.0,-79.0,127.0,127.0,127.0,113.0,83.0,-5.0
126.0,127.0,126.0,127.0,127.0,135.0,126.0,127.0,19.0,-107.0,-79.0,127.0,127.0,127.0,113.0,83.0,-5.0
126.0,127.0,126.0,127.0,127.0,135.0,127.0,127.0,19.0,-107.0,-79.0,127.0,127.0,127.0,113.0,83.0,-5.0
126.0,127.0,126.0,127.0,127.0,135.0,126.0,128.0,19.0,-107.0,-79.0,127.0,127.0,127.0,113.0,83.0,-5.0
126.0,127.0,126.0,127.0,127.0,135.0,126.0,128.0,19.0,-107.0,-79.0,127.0,127.0,127.0,113.0,83.0,-5.0
126.0,127.0,126.0,127.0,126.0,135.0,126.0,128.0,19.0,-107.0,-79.0,127.0,127.0,127.0,113.0,83.0,-5.0
126.0,127.0,126.0,127.0,127.0,134.0,127.0,128.0,19.0,-107.0,-79.0,127.0,127.0,127.0,113.0,83.0,-5.0
126.0,127.0,126.0,127.0,127.0,133.0,127.0,128.0,19.0,-107.0,-79.0,127.0,127.0,127.0,113.0,83.0,-5.0
126.0,127.0,126.0,127.0,127.0,134.0,127.0,128.0,19.0,-107.0,-79.0,127.0,127.0,127.0,113.0,83.0,-5.0
126.0,127.0,126.0,127.0,127.0,134.0,127.0,128.0,19.0,-107.0,-79.0,127.0,127.0,127.0,113.0,83.0,-5.0
126.0,127.0,126.0,127.0,127.0,135.0,126.0,127.0,19.0,-107.0,-79.0,127.0,127.0,127.0,113.0,83.0,-5.0
126.0,127.0,126.0,127.0,127.0,135.0,126.0,128.0,19.0,-107.0,-79.0,127.0,127.0,127.0,113.0,83.0,-5.0
126.0,127.0,126.0,127.0,127.0,135.0,126.0,128.0,19.0,-107.0,-79.0,127.0,127.0,127.0,113.0,83.0,-5.0
126.0,127.0,126.0,127.0,127.0,136.0,127.0,128.0,19.0,-107.0,-79.0,127.0,127.0,127.0,113.0,83.0,-5.0
126.0,127.0,126.0,127.0,127.0,136.0,127.0,128.0,19.0,-107.0,-79.0,127.0,127.0,127.0,113.0,83.0,-5.0
126.0,127.0,126.0,127.0,127.0,134.0,127.0,128.0,19.0,-107.0,-79.0,127.0,127.0,127.0,113.0,83.0,-5.0
126.0,127.0,126.0,127.0,127.0,134.0,127.0,128.0,19.0,-107.0,-79.0,127.0,127.0,127.0,113.0,83.0,-5.0
126.0,127.0,126.0,127.0,127.0,134.0,127.0,128.0,19.0,-107.0,-79.0,127.0,127.0,127.0,113.0,83.0,-5.0
126.0,127.0,126.0,127.0,127.0,134.0,127.0,128.0,19.0,-107.0,-79.0,127.0,127.0,127.0,113.0,83.0,-5.0
126.0,127.0,126.0,127.0,127.0,136.0,127.0,128.0,19.0,-107.0,-79.0,127.0,127.0,127.0,113.0,83.0,-5.0
126.0,127.0,126.0,127.0,127.0,136.0,126.0,128.0,19.0,-107.0,-79.0,127.0,127.0,127.0,113.0,83.0,-5.0
126.0,127.0,126.0,127.0,127.0,136.0,127.0,128.0,19.0,-107.0,-79.0,127.0,127.0,127.0,113.0,83.0,-5.0
126.0,127.0,126.0,127.0,127.0,136.0,127.0,128.0,19.0,-107.0,-79.0,127.0,127.0,127.0,113.0,83.0,-5.0
126.0,127.0,126.0,127.0,127.0,135.0,127.0,128.0,19.0,-107.0,-79.0,127.0,127.0,127.0,113.0,83.0,-5.0
126.0,127.0,126.0,127.0,127.0,134.0,127.0,128.0,19.0,-107.0,-79.0,127.0,127.0,127.0,113.0,83.0,-5.0
126.0,127.0,126.0,127.0,127.0,134.0,127.0,128.0,19.0,-107.0,-79.0,127.0,127.0,127.0,113.0,83.0,-5.0
126.0,127.0,126.0,127.0,127.0,134.0,127.0,128.0,19.0,-107.0,-79.0,127.0,127.0,127.0,113.0,83.0,-5.0
126.0,127.0,126.0,127.0,127.0,134.0,127.0,128.0,19.0,-107.0,-79.0,127.0,127.0,127.0,113.0,83.0,-5.0
126.0,127.0,126.0,127.0,127.0,135.0,127.0,128.0,19.0,-107.0,-79.0,127.0,127.0,127.0,113.0,83.0,-5.0
126.0,127.0,126.0,127.0,127.0,135.0,127.0,128.0,19.0,-107.0,-79.0,127.0,127.0,127.0,113.0,83.0,-5.0
126.0,127.0,126.0,127.0,127.0,135.0,127.0,128.0,19.0,-107.0,-79.0,127.0,127.0,127.0,113.0,83.0,-5.0
126.0,127.0,126.0,127.0,127.0,135.0,127.0,128.0,19.0,-107.0,-79.0,127.0,127.0,127.0,113.0,83.0,-5.0
126.0,127.0,126.0,127.0,127.0,135.0,127.0,128.0,19.0,-107.0,-79.0,127.0,127.0,127.0,113.0,83.0,-5.0
126.0,126.0,126.0,127.0,127.0,132.0,127.0,127.0,19.0,-107.0,-79.0,127.0,127.0,127.0,113.0,83.0,-5.0
126.0,126.0,126.0,127.0,126.0,132.0,127.0,128.0,19.0,-107.0,-79.0,127.0,127.0,127.0,113.0,83.0,-5.0
126.0,126.0,127.0,127.0,126.0,132.0,127.0,127.0,19.0,-107.0,-79.0,127.0,127.0,127.0,113.0,83.0,-5.0
126.0,126.0,127.0,127.0,126.0,132.0,127.0,127.0,19.0,-107.0,-79.0,127.0,127.0,127.0,113.0,83.0,-5.0
126.0,126.0,127.0,127.0,126.0,131.0,127.0,128.0,19.0,-107.0,-79.0,127.0,127.0,127.0,113.0,83.0,-5.0
126.0,126.0,127.0,127.0,127.0,132.0,127.0,127.0,19.0,-107.0,-79.0,127.0,127.0,127.0,113.0,83.0,-5.0
126.0,126.0,127.0,127.0,126.0,132.0,127.0,128.0,19.0,-107.0,-79.0,127.0,127.0,127.0,113.0,83.0,-5.0
126.0,127.0,126.0,127.0,127.0,133.0,126.0,127.0,19.0,-107.0,-79.0,127.0,127.0,127.0,113.0,83.0,-5.0
126.0,127.0,126.0,127.0,127.0,134.0,127.0,127.0,19.0,-107.0,-79.0,127.0,127.0,127.0,113.0,83.0,-5.0
126.0,127.0,126.0,127.0,127.0,134.0,127.0,128.0,19.0,-107.0,-79.0,127.0,127.0,127.0,113.0,83.0,-5.0
126.0,127.0,126.0,127.0,127.0,134.0,126.0,127.0,19.0,-107.0,-79.0,127.0,127.0,127.0,113.0,83.0,-5.0
126.0,127.0,126.0,127.0,127.0,135.0,126.0,127.0,19.0,-107.0,-79.0,127.0,127.0,127.0,113.0,83.0,-5.0
126.0,127.0,126.0,127.0,127.0,135.0,126.0,127.0,19.0,-107.0,-79.0,127.0,127.0,127.0,113.0,83.0,-5.0
126.0,127.0,126.0,127.0,127.0,134.0,126.0,127.0,19.0,-107.0,-79.0,127.0,127.0,127.0,113.0,83.0,-5.0
126.0,127.0,126.0,127.0,127.0,134.0,126.0,127.0,19.0,-107.0,-79.0,127.0,127.0,127.0,113.0,83.0,-5.0
126.0,127.0,126.0,127.0,127.0,134.0,126.0,127.0,19.0,-107.0,-79.0,127.0,127.0,127.0,113.0,83.0,-5.0
126.0,127.0,126.0,127.0,127.0,134.0,126.0,127.0,19.0,-107.0,-79.0,127.0,127.0,127.0,113.0,83.0,-5.0
126.0,127.0,126.0,127.0,127.0,134.0,127.0,127.0,19.0,-107.0,-79.0,127.0,127.0,127.0,113.0,83.0,-5.0
126.0,127.0,126.0,127.0,127.0,134.0,127.0,127.0,19.0,-107.0,-79.0,127.0,127.0,127.0,113.0,83.0,-5.0
126.0,127.0,126.0,127.0,127.0,133.0,127.0,127.0,19.0,-107.0,-79.0,127.0,127.0,127.0,113.0,83.0,-5.0
126.0,127.0,126.0,127.0,127.0,134.0,126.0,127.0,19.0,-107.0,-79.0,127.0,127.0,127.0,113.0,83.0,-5.0
126.0,127.0,126.0,127.0,127.0,134.0,126.0,128.0,19.0,-107.0,-79.0,127.0,127.0,127.0,113.0,83.0,-5.0
126.0,127.0,126.0,127.0,127.0,134.0,126.0,127.0,19.0,-107.0,-79.0,127.0,127.0,127.0,113.0,83.0,-5.0
126.0,127.0,126.0,127.0,127.0,134.0,126.0,127.0,19.0,-107.0,-79.0,127.0,127.0,127.0,113.0,83.0,-5.0
126.0,127.0,126.0,127.0,127.0,134.0,126.0,128.0,19.0,-107.0,-79.0,127.0,127.0,127.0,113.0,83.0,-5.0
126.0,127.0,127.0,127.0,127.0,134.0,126.0,128.0,19.0,-107.0,-79.0,127.0,127.0,127.0,113.0,83.0,-5.0
126.0,127.0,127.0,127.0,127.0,134.0,126.0,128.0,19.0,-107.0,-79.0,127.0,127.0,127.0,113.0,83.0,-5.0
126.0,127.0,127.0,127.0,127.0,134.0,126.0,127.0,19.0,-107.0,-79.0,127.0,127.0,127.0,113.0,83.0,-5.0
126.0,127.0,126.0,127.0,127.0,133.0,126.0,127.0,19.0,-107.0,-79.0,127.0,127.0,127.0,113.0,83.0,-5.0
126.0,127.0,126.0,127.0,127.0,134.0,126.0,127.0,19.0,-107.0,-79.0,127.0,127.0,127.0,113.0,83.0,-5.0
126.0,127.0,127.0,127.0,127.0,134.0,126.0,128.0,19.0,-107.0,-79.0,127.0,127.0,127.0,113.0,84.0,-5.0
126.0,127.0,127.0,127.0,127.0,134.0,127.0,128.0,19.0,-107.0,-79.0,127.0,127.0,127.0,113.0,84.0,-5.0
126.0,127.0,127.0,127.0,127.0,134.0,127.0,127.0,19.0,-107.0,-79.0,127.0,127.0,127.0,113.0,84.0,-5.0
126.0,127.0,127.0,127.0,127.0,134.0,127.0,128.0,19.0,-107.0,-79.0,127.0,127.0,127.0,113.0,84.0,-5.0
126.0,127.0,127.0,127.0,127.0,134.0,127.0,128.0,19.0,-107.0,-79.0,127.0,127.0,127.0,113.0,84.0,-5.0
126.0,127.0,127.0,127.0,127.0,134.0,127.0,128.0,19.0,-107.0,-79.0,127.0,127.0,127.0,113.0,84.0,-5.0
126.0,127.0,127.0,127.0,127.0,134.0,127.0,128.0,19.0,-107.0,-79.0,127.0,127.0,127.0,113.0,84.0,-5.0
126.0,127.0,127.0,127.0,127.0,132.0,127.0,128.0,19.0,-107.0,-79.0,127.0,127.0,127.0,113.0,84.0,-5.0
126.0,127.0,127.0,127.0,127.0,133.0,126.0,127.0,19.0,-107.0,-79.0,127.0,127.0,127.0,113.0,84.0,-5.0
126.0,127.0,127.0,127.0,127.0,134.0,126.0,128.0,19.0,-107.0,-79.0,127.0,127.0,127.0,113.0,84.0,-5.0
126.0,127.0,126.0,127.0,127.0,134.0,127.0,128.0,19.0,-107.0,-79.0,127.0,127.0,127.0,113.0,84.0,-5.0
126.0,127.0,126.0,127.0,127.0,134.0,127.0,128.0,19.0,-107.0,-79.0,127.0,127.0,127.0,113.0,84.0,-5.0
126.0,127.0,126.0,127.0,127.0,134.0,127.0,128.0,19.0,-107.0,-79.0,127.0,127.0,127.0,113.0,84.0,-5.0
126.0,127.0,126.0,127.0,127.0,134.0,127.0,128.0,19.0,-107.0,-79.0,127.0,127.0,127.0,113.0,84.0,-5.0
126.0,127.0,126.0,127.0,127.0,134.0,127.0,128.0,19.0,-107.0,-79.0,127.0,127.0,127.0,113.0,84.0,-5.0
126.0,127.0,126.0,127.0,127.0,133.0,127.0,128.0,19.0,-107.0,-79.0,127.0,127.0,127.0,113.0,84.0,-5.0
126.0,127.0,126.0,127.0,127.0,133.0,127.0,128.0,19.0,-107.0,-79.0,127.0,127.0,127.0,113.0,84.0,-5.0
126.0,127.0,126.0,127.0,127.0,133.0,126.0,127.0,19.0,-107.0,-79.0,127.0,127.0,127.0,113.0,84.0,-5.0
126.0,127.0,126.0,127.0,127.0,134.0,126.0,128.0,19.0,-107.0,-79.0,127.0,127.0,127.0,113.0,84.0,-5.0
126.0,127.0,126.0,127.0,127.0,134.0,126.0,128.0,19.0,-107.0,-79.0,127.0,127.0,127.0,113.0,84.0,-5.0
126.0,127.0,126.0,127.0,127.0,134.0,126.0,127.0,19.0,-107.0,-79.0,127.0,127.0,127.0,113.0,84.0,-5.0
126.0,127.0,126.0,127.0,127.0,134.0,126.0,127.0,19.0,-107.0,-79.0,127.0,127.0,127.0,113.0,84.0,-5.0
126.0,127.0,126.0,127.0,127.0,134.0,126.0,127.0,19.0,-107.0,-79.0,127.0,127.0,127.0,113.0,84.0,-5.0
126.0,127.0,126.0,127.0,126.0,134.0,126.0,127.0,19.0,-107.0,-79.0,127.0,127.0,127.0,113.0,84.0,-5.0
126.0,126.0,127.0,127.0,126.0,133.0,126.0,127.0,19.0,-107.0,-79.0,127.0,127.0,127.0,113.0,84.0,-5.0
126.0,127.0,127.0,127.0,127.0,133.0,126.0,127.0,19.0,-107.0,-79.0,127.0,127.0,127.0,113.0,84.0,-5.0
126.0,127.0,126.0,127.0,127.0,133.0,126.0,127.0,19.0,-107.0,-79.0,127.0,127.0,127.0,113.0,84.0,-5.0
126.0,127.0,126.0,127.0,127.0,134.0,126.0,127.0,19.0,-107.0,-79.0,127.0,127.0,127.0,113.0,84.0,-5.0
126.0,127.0,126.0,127.0,127.0,134.0,126.0,127.0,19.0,-107.0,-79.0,127.0,127.0,127.0,113.0,84.0,-5.0
126.0,127.0,126.0,127.0,127.0,134.0,126.0,127.0,19.0,-107.0,-79.0,127.0,127.0,127.0,113.0,84.0,-5.0
126.0,127.0,127.0,127.0,127.0,134.0,127.0,128.0,19.0,-107.0,-79.0,127.0,127.0,127.0,113.0,84.0,-5.0
126.0,127.0,127.0,127.0,127.0,134.0,127.0,128.0,19.0,-107.0,-79.0,127.0,127.0,127.0,113.0,84.0,-5.0
126.0,127.0,127.0,127.0,127.0,133.0,127.0,128.0,19.0,-107.0,-79.0,127.0,127.0,127.0,113.0,84.0,-5.0
126.0,127.0,127.0,127.0,127.0,133.0,127.0,128.0,19.0,-107.0,-79.0,127.0,127.0,127.0,113.0,84.0,-5.0
126.0,127.0,127.0,127.0,127.0,132.0,127.0,128.0,19.0,-107.0,-79.0,127.0,127.0,127.0,113.0,84.0,-5.0
126.0,127.0,127.0,127.0,127.0,132.0,126.0,128.0,19.0,-107.0,-79.0,127.0,127.0,127.0,113.0,84.0,-5.0
126.0,127.0,126.0,127.0,127.0,133.0,126.0,128.0,19.0,-107.0,-79.0,127.0,127.0,127.0,113.0,84.0,-5.0
126.0,127.0,126.0,127.0,127.0,134.0,126.0,128.0,19.0,-107.0,-79.0,127.0,127.0,127.0,113.0,84.0,-5.0
126.0,127.0,126.0,127.0,127.0,134.0,126.0,128.0,19.0,-107.0,-79.0,127.0,127.0,127.0,113.0,84.0,-5.0
126.0,127.0,127.0,127.0,127.0,134.0,126.0,128.0,19.0,-107.0,-79.0,127.0,127.0,127.0,113.0,84.0,-5.0
126.0,127.0,126.0,127.0,126.0,132.0,126.0,128.0,19.0,-107.0,-79.0,127.0,127.0,127.0,113.0,84.0,-5.0
126.0,127.0,126.0,127.0,126.0,132.0,126.0,128.0,19.0,-107.0,-79.0,127.0,127.0,127.0,113.0,84.0,-5.0
126.0,127.0,127.0,127.0,126.0,132.0,126.0,128.0,19.0,-107.0,-79.0,127.0,127.0,127.0,113.0,84.0,-5.0
126.0,127.0,127.0,127.0,127.0,131.0,126.0,128.0,19.0,-107.0,-79.0,127.0,127.0,127.0,113.0,84.0,-5.0
126.0,127.0,127.0,127.0,127.0,131.0,126.0,127.0,19.0,-107.0,-79.0,127.0,127.0,127.0,113.0,84.0,-5.0
126.0,127.0,126.0,127.0,127.0,132.0,126.0,127.0,19.0,-107.0,-79.0,127.0,127.0,127.0,113.0,84.0,-5.0
126.0,127.0,126.0,127.0,127.0,133.0,126.0,127.0,19.0,-107.0,-79.0,127.0,127.0,127.0,113.0,84.0,-5.0
126.0,127.0,126.0,127.0,127.0,133.0,126.0,128.0,19.0,-107.0,-79.0,127.0,127.0,127.0,113.0,84.0,-5.0
126.0,127.0,126.0,127.0,127.0,132.0,126.0,128.0,19.0,-107.0,-79.0,127.0,127.0,127.0,113.0,84.0,-5.0
126.0,127.0,126.0,127.0,127.0,132.0,126.0,128.0,19.0,-107.0,-79.0,127.0,127.0,127.0,113.0,84.0,-5.0
126.0,127.0,127.0,127.0,126.0,131.0,126.0,127.0,19.0,-107.0,-79.0,127.0,127.0,127.0,113.0,84.0,-5.0
126.0,127.0,126.0,127.0,127.0,132.0,126.0,127.0,19.0,-107.0,-79.0,127.0,127.0,127.0,113.0,84.0,-5.0
126.0,127.0,127.0,127.0,127.0,130.0,126.0,128.0,19.0,-107.0,-79.0,127.0,127.0,127.0,113.0,84.0,-5.0
126.0,127.0,127.0,127.0,127.0,130.0,126.0,128.0,19.0,-107.0,-79.0,127.0,127.0,127.0,113.0,84.0,-5.0
126.0,127.0,127.0,127.0,127.0,130.0,127.0,128.0,19.0,-107.0,-79.0,127.0,127.0,127.0,113.0,84.0,-5.0
126.0,127.0,127.0,127.0,127.0,130.0,127.0,128.0,19.0,-107.0,-79.0,127.0,127.0,127.0,113.0,84.0,-5.0
126.0,127.0,127.0,127.0,127.0,130.0,127.0,128.0,19.0,-107.0,-79.0,127.0,127.0,127.0,113.0,84.0,-5.0
126.0,127.0,127.0,127.0,127.0,130.0,126.0,128.0,19.0,-107.0,-79.0,127.0,127.0,127.0,113.0,84.0,-5.0
126.0,127.0,127.0,127.0,127.0,130.0,126.0,128.0,19.0,-107.0,-79.0,127.0,127.0,127.0,113.0,84.0,-5.0
126.0,127.0,127.0,127.0,126.0,130.0,126.0,128.0,19.0,-107.0,-79.0,127.0,127.0,127.0,113.0,84.0,-5.0
126.0,127.0,127.0,127.0,127.0,132.0,127.0,128.0,19.0,-107.0,-79.0,127.0,127.0,127.0,113.0,84.0,-5.0
126.0,127.0,126.0,127.0,127.0,131.0,127.0,128.0,19.0,-107.0,-79.0,127.0,127.0,127.0,113.0,84.0,-5.0
126.0,127.0,126.0,127.0,127.0,131.0,127.0,128.0,19.0,-107.0,-79.0,127.0,127.0,127.0,113.0,84.0,-5.0
126.0,127.0,126.0,127.0,127.0,131.0,127.0,128.0,19.0,-107.0,-79.0,127.0,127.0,127.0,113.0,84.0,-5.0
126.0,127.0,126.0,127.0,127.0,133.0,126.0,128.0,19.0,-107.0,-79.0,127.0,127.0,127.0,113.0,84.0,-5.0
126.0,127.0,127.0,127.0,127.0,133.0,126.0,128.0,19.0,-107.0,-79.0,127.0,127.0,127.0,113.0,84.0,-5.0
126.0,127.0,127.0,127.0,127.0,132.0,126.0,128.0,19.0,-107.0,-79.0,127.0,127.0,127.0,113.0,84.0,-5.0
126.0,127.0,127.0,127.0,127.0,132.0,126.0,128.0,19.0,-107.0,-79.0,127.0,127.0,127.0,113.0,84.0,-5.0
126.0,127.0,127.0,127.0,127.0,132.0,126.0,128.0,19.0,-107.0,-79.0,127.0,127.0,127.0,113.0,84.0,-5.0
126.0,127.0,127.0,127.0,127.0,132.0,127.0,128.0,19.0,-107.0,-79.0,127.0,127.0,127.0,113.0,84.0,-5.0
126.0,127.0,127.0,127.0,127.0,131.0,127.0,128.0,19.0,-107.0,-79.0,127.0,127.0,127.0,113.0,84.0,-5.0
126.0,127.0,126.0,127.0,127.0,131.0,127.0,128.0,19.0,-107.0,-79.0,127.0,127.0,127.0,113.0,84.0,-5.0
126.0,127.0,126.0,127.0,127.0,131.0,126.0,128.0,19.0,-107.0,-79.0,127.0,127.0,127.0,113.0,84.0,-5.0
126.0,127.0,126.0,127.0,127.0,132.0,126.0,128.0,19.0,-107.0,-79.0,127.0,127.0,127.0,113.0,84.0,-5.0
126.0,127.0,126.0,127.0,127.0,133.0,126.0,128.0,19.0,-107.0,-79.0,127.0,127.0,127.0,113.0,84.0,-5.0
126.0,127.0,126.0,127.0,127.0,132.0,127.0,128.0,19.0,-107.0,-79.0,127.0,127.0,127.0,113.0,84.0,-5.0
126.0,127.0,127.0,127.0,127.0,132.0,127.0,128.0,19.0,-107.0,-79.0,127.0,127.0,127.0,113.0,84.0,-5.0
126.0,127.0,127.0,127.0,127.0,133.0,126.0,128.0,19.0,-107.0,-79.0,127.0,127.0,127.0,113.0,84.0,-5.0
126.0,127.0,127.0,127.0,127.0,132.0,126.0,128.0,19.0,-107.0,-79.0,127.0,127.0,127.0,113.0,84.0,-5.0
126.0,127.0,127.0,127.0,127.0,132.0,127.0,128.0,19.0,-107.0,-79.0,127.0,127.0,127.0,113.0,84.0,-5.0
126.0,127.0,127.0,127.0,127.0,132.0,127.0,127.0,19.0,-108.0,-79.0,127.0,127.0,127.0,113.0,84.0,-5.0
126.0,127.0,127.0,127.0,127.0,132.0,127.0,127.0,19.0,-108.0,-79.0,127.0,127.0,127.0,113.0,84.0,-5.0
126.0,127.0,127.0,127.0,127.0,133.0,126.0,127.0,19.0,-108.0,-79.0,127.0,127.0,127.0,113.0,84.0,-5.0
126.0,127.0,127.0,127.0,127.0,134.0,126.0,127.0,19.0,-108.0,-79.0,127.0,127.0,127.0,113.0,84.0,-5.0
126.0,127.0,127.0,127.0,127.0,134.0,126.0,127.0,19.0,-108.0,-79.0,127.0,127.0,127.0,113.0,84.0,-5.0
126.0,127.0,127.0,127.0,127.0,134.0,126.0,127.0,19.0,-108.0,-79.0,127.0,127.0,127.0,113.0,84.0,-5.0
126.0,127.0,127.0,127.0,127.0,133.0,126.0,127.0,19.0,-108.0,-79.0,127.0,127.0,127.0,113.0,84.0,-5.0
126.0,127.0,127.0,127.0,127.0,133.0,126.0,127.0,19.0,-108.0,-79.0,127.0,127.0,127.0,113.0,84.0,-5.0
126.0,127.0,127.0,127.0,127.0,133.0,126.0,127.0,19.0,-108.0,-79.0,127.0,127.0,127.0,113.0,84.0,-5.0
126.0,127.0,127.0,127.0,127.0,132.0,127.0,128.0,19.0,-108.0,-79.0,127.0,127.0,127.0,113.0,84.0,-5.0
126.0,127.0,127.0,127.0,127.0,131.0,126.0,127.0,19.0,-108.0,-79.0,127.0,127.0,127.0,113.0,84.0,-5.0
126.0,127.0,126.0,127.0,127.0,132.0,126.0,127.0,19.0,-108.0,-79.0,127.0,127.0,127.0,113.0,84.0,-5.0
126.0,127.0,126.0,127.0,127.0,133.0,126.0,127.0,19.0,-108.0,-79.0,127.0,127.0,127.0,113.0,84.0,-5.0
126.0,127.0,126.0,127.0,127.0,133.0,126.0,128.0,19.0,-108.0,-79.0,127.0,127.0,127.0,113.0,84.0,-5.0
126.0,127.0,127.0,127.0,127.0,133.0,126.0,127.0,19.0,-108.0,-79.0,127.0,127.0,127.0,113.0,84.0,-5.0
126.0,127.0,127.0,127.0,127.0,133.0,126.0,127.0,19.0,-108.0,-79.0,127.0,127.0,127.0,113.0,84.0,-5.0
126.0,127.0,127.0,127.0,127.0,133.0,126.0,128.0,19.0,-108.0,-79.0,127.0,127.0,127.0,113.0,84.0,-5.0
126.0,127.0,127.0,127.0,127.0,133.0,126.0,128.0,19.0,-108.0,-79.0,127.0,127.0,127.0,113.0,84.0,-5.0
126.0,127.0,127.0,127.0,127.0,131.0,126.0,128.0,19.0,-108.0,-79.0,127.0,127.0,127.0,113.0,84.0,-5.0
126.0,127.0,127.0,127.0,127.0,131.0,126.0,128.0,19.0,-108.0,-79.0,127.0,127.0,127.0,113.0,84.0,-5.0
126.0,127.0,127.0,127.0,127.0,132.0,126.0,127.0,19.0,-108.0,-78.0,127.0,127.0,127.0,113.0,84.0,-5.0
126.0,127.0,127.0,127.0,127.0,133.0,126.0,128.0,19.0,-108.0,-78.0,127.0,127.0,127.0,113.0,84.0,-5.0
126.0,127.0,127.0,127.0,127.0,133.0,126.0,128.0,19.0,-108.0,-78.0,127.0,127.0,127.0,113.0,84.0,-5.0
126.0,127.0,127.0,127.0,127.0,133.0,126.0,128.0,19.0,-108.0,-78.0,127.0,127.0,127.0,113.0,84.0,-5.0
126.0,127.0,127.0,127.0,127.0,133.0,127.0,128.0,19.0,-108.0,-78.0,127.0,127.0,127.0,113.0,84.0,-5.0
126.0,127.0,127.0,127.0,127.0,133.0,127.0,128.0,19.0,-108.0,-78.0,127.0,127.0,127.0,113.0,84.0,-5.0
126.0,127.0,127.0,127.0,127.0,132.0,127.0,128.0,19.0,-108.0,-78.0,127.0,127.0,127.0,113.0,84.0,-5.0
126.0,127.0,127.0,127.0,127.0,131.0,127.0,128.0,19.0,-108.0,-78.0,127.0,127.0,127.0,113.0,84.0,-5.0
126.0,127.0,127.0,127.0,127.0,131.0,127.0,128.0,19.0,-108.0,-78.0,127.0,127.0,127.0,113.0,84.0,-5.0
126.0,127.0,127.0,127.0,127.0,131.0,127.0,128.0,19.0,-108.0,-78.0,127.0,127.0,127.0,113.0,84.0,-5.0
126.0,127.0,126.0,127.0,127.0,133.0,126.0,127.0,19.0,-108.0,-78.0,127.0,127.0,127.0,113.0,84.0,-5.0
126.0,127.0,126.0,127.0,127.0,133.0,126.0,127.0,19.0,-108.0,-78.0,127.0,127.0,127.0,113.0,84.0,-5.0
126.0,127.0,126.0,127.0,127.0,133.0,126.0,127.0,19.0,-108.0,-78.0,127.0,127.0,127.0,113.0,84.0,-5.0
126.0,127.0,126.0,127.0,127.0,133.0,126.0,127.0,19.0,-108.0,-78.0,127.0,127.0,127.0,113.0,84.0,-5.0
126.0,127.0,127.0,127.0,127.0,133.0,126.0,128.0,19.0,-108.0,-78.0,127.0,127.0,127.0,113.0,84.0,-5.0
126.0,127.0,127.0,127.0,127.0,133.0,126.0,128.0,19.0,-108.0,-78.0,127.0,127.0,127.0,113.0,84.0,-5.0
126.0,127.0,127.0,127.0,127.0,132.0,126.0,128.0,19.0,-108.0,-78.0,127.0,127.0,127.0,113.0,84.0,-5.0
126.0,127.0,127.0,127.0,127.0,131.0,126.0,128.0,19.0,-108.0,-78.0,127.0,127.0,127.0,113.0,84.0,-5.0
126.0,127.0,127.0,127.0,127.0,132.0,126.0,128.0,19.0,-108.0,-78.0,127.0,127.0,127.0,113.0,84.0,-5.0
126.0,127.0,126.0,127.0,127.0,132.0,126.0,127.0,19.0,-108.0,-78.0,127.0,127.0,127.0,113.0,84.0,-5.0
126.0,127.0,127.0,127.0,127.0,133.0,126.0,128.0,19.0,-108.0,-78.0,127.0,127.0,127.0,113.0,84.0,-5.0
126.0,127.0,127.0,127.0,127.0,133.0,127.0,128.0,19.0,-108.0,-78.0,127.0,127.0,127.0,113.0,84.0,-5.0
126.0,127.0,127.0,127.0,127.0,133.0,127.0,128.0,19.0,-108.0,-78.0,127.0,127.0,127.0,113.0,84.0,-5.0
126.0,127.0,127.0,127.0,127.0,133.0,126.0,128.0,19.0,-108.0,-78.0,127.0,127.0,127.0,113.0,84.0,-5.0
126.0,127.0,127.0,127.0,127.0,133.0,127.0,128.0,19.0,-108.0,-78.0,127.0,127.0,127.0,113.0,84.0,-5.0
126.0,127.0,127.0,127.0,127.0,132.0,127.0,128.0,19.0,-108.0,-78.0,127.0,127.0,127.0,113.0,84.0,-5.0
126.0,127.0,127.0,127.0,127.0,132.0,127.0,128.0,19.0,-108.0,-78.0,127.0,127.0,127.0,113.0,84.0,-5.0
126.0,127.0,127.0,127.0,127.0,132.0,127.0,128.0,19.0,-108.0,-78.0,127.0,127.0,127.0,113.0,84.0,-5.0
126.0,127.0,127.0,127.0,127.0,132.0,127.0,128.0,19.0,-108.0,-78.0,127.0,127.0,127.0,113.0,84.0,-5.0
126.0,127.0,127.0,127.0,127.0,133.0,126.0,127.0,19.0,-108.0,-78.0,127.0,127.0,127.0,113.0,84.0,-5.0
126.0,126.0,127.0,127.0,127.0,130.0,127.0,127.0,19.0,-108.0,-78.0,127.0,127.0,127.0,113.0,84.0,-5.0
126.0,127.0,126.0,127.0,127.0,132.0,126.0,127.0,19.0,-108.0,-78.0,127.0,127.0,127.0,113.0,84.0,-5.0
126.0,127.0,127.0,127.0,127.0,132.0,126.0,127.0,19.0,-108.0,-78.0,127.0,127.0,127.0,113.0,84.0,-5.0
126.0,127.0,127.0,127.0,127.0,132.0,126.0,127.0,19.0,-108.0,-78.0,127.0,127.0,127.0,113.0,84.0,-5.0
126.0,126.0,127.0,127.0,127.0,130.0,127.0,127.0,19.0,-108.0,-78.0,127.0,127.0,127.0,113.0,84.0,-5.0
126.0,126.0,127.0,127.0,127.0,130.0,127.0,127.0,19.0,-108.0,-78.0,127.0,127.0,127.0,113.0,84.0,-5.0
126.0,126.0,127.0,127.0,127.0,130.0,127.0,127.0,19.0,-108.0,-78.0,127.0,127.0,127.0,113.0,84.0,-5.0
126.0,126.0,127.0,127.0,127.0,130.0,127.0,127.0,19.0,-108.0,-78.0,127.0,127.0,127.0,113.0,84.0,-5.0
126.0,126.0,127.0,127.0,127.0,130.0,127.0,127.0,19.0,-108.0,-78.0,127.0,127.0,127.0,113.0,84.0,-5.0
126.0,126.0,127.0,127.0,127.0,130.0,127.0,127.0,19.0,-108.0,-78.0,127.0,127.0,127.0,113.0,84.0,-5.0
126.0,127.0,127.0,127.0,127.0,132.0,127.0,128.0,19.0,-108.0,-78.0,127.0,127.0,127.0,113.0,84.0,-5.0
126.0,127.0,127.0,127.0,127.0,132.0,127.0,128.0,19.0,-108.0,-78.0,127.0,127.0,127.0,113.0,84.0,-5.0
126.0,126.0,127.0,127.0,127.0,132.0,127.0,128.0,19.0,-108.0,-78.0,127.0,127.0,127.0,113.0,84.0,-5.0
126.0,127.0,127.0,127.0,127.0,131.0,127.0,127.0,19.0,-108.0,-78.0,127.0,127.0,127.0,113.0,84.0,-5.0
126.0,127.0,127.0,127.0,127.0,132.0,127.0,128.0,19.0,-108.0,-78.0,127.0,127.0,127.0,113.0,84.0,-5.0
126.0,127.0,127.0,127.0,127.0,133.0,127.0,128.0,19.0,-108.0,-78.0,127.0,127.0,127.0,113.0,84.0,-5.0
126.0,127.0,127.0,127.0,127.0,133.0,127.0,128.0,19.0,-108.0,-78.0,127.0,127.0,127.0,113.0,84.0,-5.0
126.0,127.0,127.0,127.0,127.0,132.0,127.0,128.0,19.0,-108.0,-78.0,127.0,127.0,127.0,113.0,84.0,-5.0
126.0,127.0,127.0,127.0,127.0,132.0,127.0,127.0,19.0,-108.0,-78.0,127.0,127.0,127.0,113.0,84.0,-5.0
126.0,127.0,127.0,127.0,127.0,132.0,127.0,128.0,19.0,-108.0,-78.0,127.0,127.0,127.0,113.0,84.0,-5.0
126.0,127.0,127.0,127.0,127.0,132.0,127.0,128.0,19.0,-108.0,-78.0,127.0,127.0,127.0,113.0,84.0,-5.0
126.0,127.0,127.0,127.0,126.0,132.0,127.0,128.0,19.0,-108.0,-78.0,127.0,127.0,127.0,113.0,84.0,-5.0
126.0,127.0,127.0,127.0,127.0,131.0,127.0,128.0,19.0,-108.0,-78.0,127.0,127.0,127.0,113.0,84.0,-5.0
126.0,127.0,126.0,127.0,127.0,132.0,126.0,128.0,19.0,-108.0,-78.0,127.0,127.0,127.0,113.0,84.0,-5.0
126.0,127.0,126.0,127.0,127.0,133.0,126.0,128.0,19.0,-108.0,-78.0,127.0,127.0,127.0,113.0,84.0,-5.0
126.0,127.0,126.0,127.0,127.0,133.0,126.0,128.0,19.0,-108.0,-78.0,127.0,127.0,127.0,113.0,84.0,-5.0
126.0,127.0,126.0,127.0,127.0,132.0,127.0,128.0,19.0,-108.0,-78.0,127.0,127.0,127.0,113.0,84.0,-5.0
126.0,127.0,126.0,127.0,127.0,132.0,126.0,128.0,19.0,-108.0,-78.0,127.0,127.0,127.0,113.0,84.0,-5.0
126.0,127.0,127.0,127.0,127.0,132.0,126.0,128.0,19.0,-108.0,-78.0,127.0,127.0,127.0,113.0,84.0,-5.0
126.0,127.0,127.0,127.0,127.0,132.0,127.0,128.0,19.0,-108.0,-78.0,127.0,127.0,127.0,113.0,84.0,-5.0
126.0,127.0,127.0,127.0,127.0,133.0,126.0,128.0,19.0,-108.0,-78.0,127.0,127.0,127.0,113.0,84.0,-5.0
126.0,127.0,126.0,127.0,127.0,132.0,126.0,128.0,19.0,-108.0,-78.0,127.0,127.0,127.0,113.0,84.0,-5.0
126.0,127.0,126.0,127.0,127.0,133.0,126.0,127.0,19.0,-108.0,-78.0,127.0,127.0,127.0,113.0,84.0,-5.0
126.0,127.0,126.0,127.0,127.0,133.0,126.0,127.0,19.0,-108.0,-78.0,127.0,127.0,127.0,113.0,84.0,-5.0
126.0,127.0,126.0,127.0,127.0,133.0,126.0,128.0,19.0,-108.0,-78.0,127.0,127.0,127.0,113.0,84.0,-5.0
126.0,127.0,126.0,127.0,127.0,133.0,126.0,128.0,19.0,-108.0,-78.0,127.0,127.0,127.0,113.0,84.0,-5.0
126.0,127.0,126.0,127.0,127.0,133.0,126.0,128.0,19.0,-108.0,-78.0,127.0,127.0,127.0,113.0,84.0,-5.0
126.0,127.0,126.0,127.0,127.0,133.0,126.0,128.0,19.0,-108.0,-78.0,127.0,127.0,127.0,113.0,84.0,-5.0
126.0,127.0,126.0,127.0,127.0,133.0,126.0,128.0,19.0,-108.0,-78.0,127.0,127.0,127.0,113.0,84.0,-5.0
126.0,127.0,126.0,127.0,126.0,133.0,126.0,128.0,19.0,-108.0,-78.0,127.0,127.0,127.0,113.0,84.0,-5.0
126.0,126.0,127.0,127.0,127.0,132.0,127.0,127.0,19.0,-108.0,-78.0,127.0,127.0,127.0,113.0,84.0,-5.0
126.0,127.0,126.0,127.0,127.0,133.0,126.0,127.0,19.0,-108.0,-78.0,127.0,127.0,127.0,113.0,84.0,-5.0
126.0,127.0,126.0,127.0,127.0,134.0,126.0,127.0,19.0,-108.0,-78.0,127.0,127.0,127.0,113.0,84.0,-5.0
126.0,127.0,126.0,127.0,127.0,134.0,126.0,127.0,19.0,-108.0,-78.0,127.0,127.0,127.0,113.0,84.0,-5.0
126.0,127.0,127.0,127.0,127.0,134.0,126.0,127.0,19.0,-108.0,-78.0,127.0,127.0,127.0,113.0,84.0,-5.0
126.0,127.0,127.0,127.0,127.0,134.0,127.0,127.0,19.0,-108.0,-78.0,127.0,127.0,127.0,113.0,84.0,-5.0
126.0,127.0,127.0,127.0,127.0,134.0,127.0,127.0,19.0,-108.0,-78.0,127.0,127.0,127.0,113.0,84.0,-5.0
126.0,127.0,127.0,127.0,127.0,134.0,127.0,127.0,19.0,-108.0,-78.0,127.0,127.0,127.0,113.0,84.0,-5.0
126.0,127.0,127.0,127.0,127.0,133.0,127.0,127.0,19.0,-108.0,-78.0,127.0,127.0,127.0,113.0,84.0,-5.0
126.0,126.0,127.0,127.0,127.0,133.0,127.0,127.0,19.0,-108.0,-78.0,127.0,127.0,127.0,113.0,84.0,-5.0
126.0,127.0,127.0,127.0,127.0,133.0,127.0,127.0,19.0,-108.0,-78.0,127.0,127.0,127.0,113.0,84.0,-5.0
126.0,127.0,126.0,127.0,127.0,134.0,127.0,127.0,19.0,-108.0,-78.0,127.0,127.0,127.0,113.0,84.0,-5.0
126.0,127.0,126.0,127.0,127.0,134.0,127.0,128.0,19.0,-108.0,-78.0,127.0,127.0,127.0,113.0,84.0,-5.0
126.0,127.0,126.0,127.0,127.0,134.0,127.0,128.0,19.0,-108.0,-78.0,127.0,127.0,127.0,113.0,84.0,-5.0
126.0,127.0,127.0,127.0,127.0,134.0,127.0,128.0,19.0,-108.0,-78.0,127.0,127.0,127.0,113.0,84.0,-5.0
126.0,127.0,127.0,127.0,127.0,134.0,127.0,128.0,19.0,-108.0,-78.0,127.0,127.0,127.0,113.0,84.0,-5.0
126.0,127.0,127.0,127.0,127.0,134.0,127.0,128.0,19.0,-108.0,-78.0,127.0,127.0,127.0,113.0,84.0,-5.0
126.0,127.0,127.0,127.0,127.0,134.0,127.0,128.0,19.0,-108.0,-78.0,127.0,127.0,127.0,113.0,84.0,-5.0
126.0,127.0,127.0,127.0,127.0,134.0,127.0,128.0,19.0,-108.0,-78.0,127.0,127.0,127.0,113.0,84.0,-5.0
126.0,127.0,127.0,127.0,127.0,133.0,127.0,127.0,19.0,-108.0,-78.0,127.0,127.0,127.0,113.0,84.0,-5.0
126.0,127.0,126.0,127.0,127.0,133.0,127.0,128.0,19.0,-108.0,-78.0,127.0,127.0,127.0,113.0,84.0,-5.0
126.0,127.0,126.0,127.0,127.0,133.0,127.0,128.0,19.0,-108.0,-78.0,127.0,127.0,127.0,113.0,84.0,-5.0
126.0,127.0,127.0,127.0,127.0,133.0,127.0,128.0,19.0,-108.0,-78.0,127.0,127.0,127.0,113.0,84.0,-5.0
126.0,127.0,127.0,127.0,126.0,133.0,127.0,128.0,19.0,-108.0,-78.0,127.0,127.0,127.0,113.0,84.0,-5.0
126.0,127.0,127.0,127.0,127.0,133.0,127.0,128.0,19.0,-108.0,-78.0,127.0,127.0,127.0,113.0,84.0,-5.0
126.0,127.0,127.0,127.0,126.0,133.0,127.0,128.0,19.0,-108.0,-78.0,127.0,127.0,127.0,113.0,84.0,-5.0
126.0,127.0,127.0,127.0,126.0,132.0,127.0,128.0,19.0,-108.0,-78.0,127.0,127.0,127.0,113.0,84.0,-5.0
126.0,126.0,127.0,127.0,126.0,132.0,127.0,128.0,19.0,-108.0,-78.0,127.0,127.0,127.0,113.0,84.0,-5.0
126.0,127.0,127.0,127.0,127.0,131.0,127.0,128.0,19.0,-108.0,-78.0,127.0,127.0,127.0,113.0,84.0,-5.0
126.0,127.0,127.0,127.0,127.0,131.0,127.0,128.0,19.0,-108.0,-78.0,127.0,127.0,127.0,113.0,84.0,-5.0
126.0,127.0,127.0,127.0,127.0,133.0,127.0,128.0,19.0,-108.0,-78.0,127.0,127.0,127.0,113.0,84.0,-5.0
126.0,127.0,127.0,127.0,127.0,133.0,127.0,128.0,19.0,-108.0,-78.0,127.0,127.0,127.0,113.0,84.0,-5.0
126.0,127.0,127.0,127.0,127.0,134.0,127.0,128.0,19.0,-108.0,-78.0,127.0,127.0,127.0,113.0,84.0,-5.0
126.0,127.0,127.0,127.0,127.0,134.0,127.0,128.0,19.0,-108.0,-78.0,127.0,127.0,127.0,113.0,84.0,-5.0
126.0,127.0,127.0,127.0,127.0,134.0,127.0,128.0,19.0,-108.0,-78.0,127.0,127.0,127.0,113.0,84.0,-5.0
126.0,127.0,127.0,127.0,127.0,134.0,127.0,128.0,19.0,-108.0,-78.0,127.0,127.0,127.0,113.0,84.0,-5.0
126.0,127.0,127.0,127.0,127.0,134.0,127.0,128.0,19.0,-108.0,-78.0,127.0,127.0,127.0,113.0,84.0,-5.0
126.0,127.0,127.0,127.0,127.0,131.0,127.0,128.0,19.0,-108.0,-78.0,127.0,127.0,127.0,113.0,84.0,-5.0
126.0,127.0,127.0,127.0,127.0,131.0,127.0,128.0,19.0,-108.0,-78.0,127.0,127.0,127.0,113.0,84.0,-5.0
126.0,127.0,127.0,127.0,127.0,132.0,127.0,128.0,19.0,-108.0,-78.0,127.0,127.0,127.0,113.0,84.0,-5.0
126.0,126.0,128.0,127.0,126.0,130.0,127.0,127.0,19.0,-108.0,-78.0,127.0,127.0,127.0,113.0,84.0,-5.0
126.0,126.0,128.0,127.0,126.0,130.0,127.0,127.0,19.0,-108.0,-78.0,127.0,127.0,127.0,113.0,84.0,-5.0
126.0,126.0,128.0,127.0,126.0,130.0,127.0,127.0,19.0,-108.0,-78.0,127.0,127.0,127.0,113.0,84.0,-5.0
126.0,126.0,128.0,127.0,126.0,130.0,127.0,127.0,19.0,-108.0,-78.0,127.0,127.0,127.0,113.0,84.0,-5.0
126.0,126.0,127.0,127.0,126.0,130.0,127.0,127.0,19.0,-108.0,-78.0,127.0,127.0,127.0,113.0,84.0,-5.0
126.0,127.0,127.0,127.0,127.0,132.0,126.0,127.0,19.0,-108.0,-78.0,127.0,127.0,127.0,113.0,84.0,-5.0
126.0,126.0,127.0,127.0,126.0,130.0,127.0,127.0,19.0,-108.0,-78.0,127.0,127.0,127.0,113.0,84.0,-5.0
126.0,126.0,127.0,127.0,126.0,130.0,127.0,127.0,19.0,-108.0,-78.0,127.0,127.0,127.0,113.0,84.0,-5.0
126.0,126.0,128.0,127.0,127.0,130.0,127.0,127.0,19.0,-108.0,-78.0,127.0,127.0,127.0,113.0,84.0,-5.0
126.0,126.0,128.0,127.0,126.0,130.0,127.0,127.0,19.0,-108.0,-78.0,127.0,127.0,127.0,113.0,84.0,-5.0
126.0,127.0,127.0,127.0,127.0,133.0,127.0,128.0,19.0,-108.0,-78.0,127.0,127.0,127.0,113.0,84.0,-5.0
126.0,127.0,127.0,127.0,127.0,133.0,127.0,128.0,19.0,-108.0,-78.0,127.0,127.0,127.0,113.0,84.0,-5.0
126.0,127.0,127.0,127.0,127.0,133.0,127.0,128.0,19.0,-108.0,-78.0,127.0,127.0,127.0,113.0,84.0,-5.0
126.0,127.0,127.0,127.0,127.0,132.0,127.0,128.0,19.0,-108.0,-78.0,127.0,127.0,127.0,113.0,84.0,-5.0
126.0,126.0,127.0,127.0,127.0,132.0,127.0,128.0,19.0,-108.0,-78.0,127.0,127.0,127.0,113.0,84.0,-5.0
126.0,127.0,127.0,127.0,127.0,131.0,127.0,128.0,19.0,-108.0,-78.0,127.0,127.0,127.0,113.0,84.0,-5.0
126.0,126.0,127.0,127.0,127.0,131.0,127.0,128.0,19.0,-108.0,-78.0,127.0,127.0,127.0,113.0,84.0,-5.0
126.0,126.0,127.0,127.0,127.0,132.0,126.0,127.0,19.0,-108.0,-78.0,127.0,127.0,127.0,113.0,84.0,-5.0
126.0,127.0,127.0,127.0,127.0,133.0,126.0,128.0,19.0,-108.0,-78.0,127.0,127.0,127.0,113.0,84.0,-5.0
126.0,127.0,127.0,127.0,127.0,133.0,126.0,128.0,19.0,-108.0,-78.0,127.0,127.0,127.0,113.0,84.0,-5.0
126.0,127.0,126.0,127.0,127.0,133.0,127.0,127.0,19.0,-108.0,-78.0,127.0,127.0,127.0,113.0,84.0,-5.0
126.0,127.0,126.0,127.0,126.0,133.0,127.0,127.0,19.0,-108.0,-78.0,127.0,127.0,127.0,113.0,84.0,-5.0
126.0,127.0,127.0,127.0,126.0,132.0,127.0,127.0,19.0,-108.0,-78.0,127.0,127.0,127.0,113.0,84.0,-5.0
126.0,127.0,127.0,127.0,126.0,132.0,127.0,128.0,19.0,-108.0,-78.0,127.0,127.0,127.0,113.0,84.0,-5.0
126.0,127.0,127.0,127.0,127.0,131.0,127.0,127.0,19.0,-108.0,-78.0,127.0,127.0,127.0,113.0,84.0,-5.0
126.0,127.0,127.0,127.0,126.0,131.0,127.0,127.0,19.0,-108.0,-78.0,127.0,127.0,127.0,113.0,84.0,-5.0
126.0,127.0,126.0,127.0,126.0,132.0,127.0,127.0,19.0,-108.0,-78.0,127.0,127.0,127.0,113.0,84.0,-5.0
126.0,127.0,126.0,127.0,127.0,133.0,126.0,127.0,19.0,-108.0,-78.0,127.0,127.0,127.0,113.0,84.0,-5.0
126.0,127.0,126.0,127.0,127.0,133.0,126.0,127.0,19.0,-108.0,-78.0,127.0,127.0,127.0,113.0,84.0,-5.0
126.0,127.0,126.0,127.0,127.0,133.0,127.0,127.0,19.0,-108.0,-78.0,127.0,127.0,127.0,113.0,84.0,-5.0
126.0,127.0,126.0,127.0,127.0,132.0,126.0,128.0,19.0,-108.0,-78.0,127.0,127.0,127.0,113.0,84.0,-5.0
126.0,126.0,126.0,127.0,127.0,132.0,126.0,128.0,19.0,-108.0,-78.0,127.0,127.0,127.0,113.0,84.0,-5.0
126.0,126.0,126.0,127.0,127.0,132.0,127.0,128.0,19.0,-108.0,-78.0,127.0,127.0,127.0,113.0,84.0,-5.0
126.0,127.0,126.0,127.0,127.0,131.0,127.0,128.0,19.0,-108.0,-78.0,127.0,127.0,127.0,113.0,84.0,-5.0
126.0,127.0,126.0,127.0,127.0,131.0,126.0,128.0,19.0,-108.0,-78.0,127.0,127.0,127.0,113.0,84.0,-5.0
126.0,127.0,126.0,127.0,127.0,131.0,126.0,128.0,19.0,-108.0,-78.0,127.0,127.0,127.0,113.0,84.0,-5.0
126.0,127.0,126.0,127.0,127.0,132.0,126.0,128.0,19.0,-108.0,-78.0,127.0,127.0,127.0,113.0,84.0,-5.0
126.0,127.0,126.0,127.0,127.0,133.0,126.0,128.0,19.0,-108.0,-78.0,127.0,127.0,127.0,113.0,84.0,-5.0
126.0,127.0,126.0,127.0,127.0,133.0,126.0,128.0,19.0,-108.0,-78.0,127.0,127.0,127.0,113.0,84.0,-5.0
126.0,127.0,126.0,127.0,127.0,132.0,126.0,128.0,19.0,-108.0,-78.0,127.0,127.0,127.0,113.0,84.0,-5.0
126.0,127.0,126.0,127.0,127.0,133.0,127.0,128.0,19.0,-108.0,-78.0,127.0,127.0,127.0,113.0,84.0,-5.0
126.0,127.0,126.0,127.0,127.0,132.0,127.0,128.0,19.0,-108.0,-78.0,127.0,127.0,127.0,113.0,84.0,-5.0
126.0,127.0,126.0,127.0,127.0,131.0,127.0,128.0,19.0,-108.0,-78.0,127.0,127.0,127.0,113.0,84.0,-5.0
126.0,127.0,126.0,127.0,127.0,131.0,127.0,128.0,19.0,-108.0,-78.0,127.0,127.0,127.0,113.0,84.0,-5.0
126.0,127.0,126.0,127.0,126.0,131.0,127.0,128.0,19.0,-108.0,-78.0,127.0,127.0,127.0,113.0,84.0,-5.0
126.0,127.0,125.0,127.0,127.0,133.0,126.0,127.0,19.0,-108.0,-78.0,127.0,127.0,127.0,113.0,84.0,-5.0
126.0,127.0,126.0,127.0,127.0,133.0,127.0,128.0,19.0,-108.0,-78.0,127.0,127.0,127.0,113.0,84.0,-5.0
126.0,127.0,126.0,127.0,127.0,133.0,127.0,128.0,19.0,-108.0,-78.0,127.0,127.0,127.0,113.0,84.0,-5.0
126.0,127.0,126.0,127.0,127.0,133.0,127.0,128.0,19.0,-108.0,-78.0,127.0,127.0,127.0,113.0,84.0,-5.0
126.0,127.0,126.0,127.0,127.0,133.0,127.0,128.0,19.0,-108.0,-78.0,127.0,127.0,127.0,113.0,84.0,-5.0
126.0,127.0,126.0,127.0,127.0,133.0,126.0,128.0,19.0,-108.0,-78.0,127.0,127.0,127.0,113.0,84.0,-5.0
126.0,127.0,126.0,127.0,127.0,131.0,127.0,127.0,19.0,-108.0,-78.0,127.0,127.0,127.0,113.0,84.0,-5.0
126.0,127.0,126.0,127.0,127.0,131.0,127.0,127.0,19.0,-108.0,-78.0,127.0,127.0,127.0,113.0,84.0,-5.0
126.0,127.0,126.0,127.0,127.0,131.0,127.0,128.0,19.0,-108.0,-78.0,127.0,127.0,127.0,113.0,84.0,-5.0
126.0,127.0,126.0,127.0,127.0,132.0,126.0,127.0,19.0,-108.0,-78.0,127.0,127.0,127.0,113.0,84.0,-5.0
126.0,127.0,126.0,127.0,127.0,132.0,126.0,127.0,19.0,-108.0,-78.0,127.0,127.0,127.0,113.0,84.0,-5.0
126.0,127.0,126.0,127.0,127.0,132.0,126.0,128.0,19.0,-108.0,-78.0,127.0,127.0,127.0,113.0,84.0,-5.0
126.0,127.0,126.0,127.0,127.0,133.0,126.0,127.0,19.0,-108.0,-78.0,127.0,127.0,127.0,113.0,84.0,-5.0
126.0,127.0,126.0,127.0,127.0,133.0,126.0,127.0,19.0,-108.0,-78.0,127.0,127.0,127.0,113.0,84.0,-5.0
126.0,127.0,126.0,127.0,127.0,133.0,126.0,128.0,19.0,-108.0,-78.0,127.0,127.0,127.0,113.0,84.0,-5.0
126.0,127.0,126.0,127.0,127.0,131.0,126.0,127.0,19.0,-108.0,-78.0,127.0,127.0,127.0,113.0,84.0,-5.0
126.0,127.0,126.0,127.0,127.0,131.0,126.0,127.0,19.0,-108.0,-78.0,127.0,127.0,127.0,113.0,84.0,-5.0
126.0,127.0,126.0,127.0,127.0,131.0,126.0,128.0,19.0,-108.0,-78.0,127.0,127.0,127.0,113.0,84.0,-5.0
126.0,127.0,126.0,127.0,127.0,131.0,127.0,127.0,19.0,-108.0,-78.0,127.0,127.0,127.0,113.0,84.0,-5.0
126.0,127.0,126.0,127.0,127.0,131.0,127.0,127.0,19.0,-108.0,-78.0,127.0,127.0,127.0,113.0,84.0,-5.0
126.0,127.0,126.0,127.0,127.0,131.0,127.0,128.0,19.0,-108.0,-78.0,127.0,127.0,127.0,113.0,84.0,-5.0
126.0,127.0,126.0,127.0,127.0,131.0,126.0,128.0,19.0,-108.0,-78.0,127.0,127.0,127.0,113.0,84.0,-5.0
126.0,127.0,126.0,127.0,127.0,133.0,126.0,127.0,19.0,-108.0,-78.0,127.0,127.0,127.0,113.0,84.0,-5.0
126.0,127.0,126.0,127.0,127.0,133.0,126.0,128.0,19.0,-108.0,-78.0,127.0,127.0,127.0,113.0,84.0,-5.0
126.0,127.0,126.0,127.0,127.0,133.0,126.0,128.0,19.0,-108.0,-78.0,127.0,127.0,127.0,113.0,84.0,-5.0
126.0,127.0,126.0,127.0,127.0,132.0,126.0,128.0,19.0,-108.0,-78.0,127.0,127.0,127.0,113.0,84.0,-5.0
126.0,127.0,126.0,127.0,127.0,132.0,126.0,128.0,19.0,-108.0,-78.0,127.0,127.0,127.0,113.0,84.0,-5.0
126.0,127.0,126.0,127.0,127.0,131.0,126.0,128.0,19.0,-108.0,-78.0,127.0,127.0,127.0,113.0,84.0,-5.0
126.0,127.0,126.0,127.0,127.0,131.0,126.0,128.0,19.0,-108.0,-78.0,127.0,127.0,127.0,113.0,84.0,-5.0
126.0,127.0,126.0,127.0,127.0,131.0,126.0,128.0,19.0,-108.0,-78.0,127.0,127.0,127.0,113.0,84.0,-5.0
126.0,127.0,126.0,127.0,127.0,132.0,126.0,128.0,19.0,-108.0,-78.0,127.0,127.0,127.0,113.0,84.0,-5.0
126.0,127.0,126.0,127.0,127.0,133.0,126.0,128.0,19.0,-108.0,-78.0,127.0,127.0,127.0,113.0,84.0,-5.0
126.0,127.0,126.0,127.0,127.0,133.0,126.0,128.0,19.0,-108.0,-78.0,127.0,127.0,127.0,113.0,84.0,-5.0
126.0,127.0,126.0,127.0,127.0,133.0,126.0,128.0,19.0,-108.0,-78.0,127.0,127.0,127.0,113.0,84.0,-5.0
126.0,127.0,126.0,127.0,127.0,130.0,126.0,128.0,19.0,-108.0,-78.0,127.0,127.0,127.0,113.0,84.0,-5.0
126.0,126.0,126.0,127.0,127.0,130.0,127.0,128.0,19.0,-108.0,-79.0,127.0,127.0,127.0,113.0,84.0,-5.0
126.0,126.0,127.0,127.0,127.0,130.0,127.0,128.0,19.0,-108.0,-79.0,127.0,127.0,127.0,113.0,84.0,-5.0
126.0,126.0,127.0,127.0,127.0,130.0,127.0,128.0,19.0,-108.0,-79.0,127.0,127.0,127.0,113.0,84.0,-5.0
126.0,126.0,127.0,127.0,127.0,130.0,127.0,128.0,19.0,-108.0,-79.0,127.0,127.0,127.0,113.0,84.0,-5.0
126.0,126.0,127.0,127.0,127.0,130.0,127.0,128.0,19.0,-108.0,-79.0,127.0,127.0,127.0,113.0,84.0,-5.0
126.0,126.0,127.0,127.0,127.0,130.0,127.0,128.0,19.0,-108.0,-79.0,127.0,127.0,127.0,113.0,84.0,-5.0
126.0,126.0,127.0,127.0,127.0,130.0,127.0,128.0,19.0,-108.0,-79.0,127.0,127.0,127.0,113.0,84.0,-5.0
126.0,126.0,127.0,127.0,127.0,130.0,127.0,128.0,19.0,-108.0,-79.0,127.0,127.0,127.0,113.0,84.0,-5.0
126.0,126.0,126.0,127.0,127.0,130.0,127.0,128.0,19.0,-108.0,-79.0,127.0,127.0,127.0,113.0,84.0,-5.0
126.0,126.0,126.0,127.0,127.0,130.0,127.0,128.0,19.0,-108.0,-79.0,127.0,127.0,127.0,113.0,84.0,-5.0
126.0,126.0,127.0,127.0,127.0,130.0,127.0,128.0,19.0,-108.0,-79.0,127.0,127.0,127.0,113.0,84.0,-5.0
126.0,127.0,126.0,127.0,127.0,132.0,127.0,127.0,19.0,-108.0,-79.0,127.0,127.0,127.0,113.0,84.0,-5.0
126.0,127.0,126.0,127.0,127.0,132.0,127.0,128.0,19.0,-108.0,-79.0,127.0,127.0,127.0,113.0,84.0,-5.0
126.0,127.0,126.0,127.0,127.0,132.0,127.0,128.0,19.0,-108.0,-79.0,127.0,127.0,127.0,113.0,84.0,-5.0
126.0,127.0,126.0,127.0,127.0,132.0,127.0,128.0,19.0,-108.0,-79.0,127.0,127.0,127.0,113.0,84.0,-5.0
126.0,127.0,126.0,127.0,127.0,132.0,127.0,128.0,19.0,-108.0,-79.0,127.0,127.0,127.0,113.0,84.0,-5.0
126.0,127.0,126.0,127.0,127.0,132.0,127.0,128.0,19.0,-108.0,-79.0,127.0,127.0,127.0,113.0,84.0,-5.0
126.0,127.0,126.0,127.0,127.0,131.0,127.0,128.0,19.0,-108.0,-79.0,127.0,127.0,127.0,113.0,84.0,-5.0
126.0,127.0,126.0,127.0,127.0,130.0,127.0,128.0,19.0,-108.0,-79.0,127.0,127.0,127.0,113.0,84.0,-5.0
126.0,127.0,126.0,127.0,127.0,130.0,127.0,128.0,19.0,-108.0,-79.0,127.0,127.0,127.0,113.0,84.0,-5.0
126.0,127.0,126.0,127.0,127.0,131.0,126.0,128.0,19.0,-108.0,-79.0,127.0,127.0,127.0,113.0,84.0,-5.0
126.0,127.0,126.0,127.0,127.0,132.0,126.0,128.0,19.0,-108.0,-79.0,127.0,127.0,127.0,113.0,84.0,-5.0
126.0,127.0,126.0,127.0,127.0,132.0,126.0,128.0,19.0,-108.0,-79.0,127.0,127.0,127.0,113.0,84.0,-5.0
126.0,127.0,126.0,127.0,127.0,132.0,126.0,128.0,19.0,-108.0,-79.0,127.0,127.0,127.0,113.0,84.0,-5.0
126.0,127.0,126.0,127.0,127.0,132.0,126.0,128.0,19.0,-108.0,-79.0,127.0,127.0,127.0,113.0,84.0,-5.0
126.0,127.0,126.0,127.0,127.0,132.0,126.0,128.0,19.0,-108.0,-79.0,127.0,127.0,127.0,113.0,84.0,-5.0
126.0,127.0,126.0,127.0,127.0,131.0,127.0,128.0,19.0,-108.0,-79.0,127.0,127.0,127.0,113.0,84.0,-5.0
126.0,127.0,126.0,127.0,127.0,131.0,127.0,128.0,19.0,-108.0,-79.0,127.0,127.0,127.0,113.0,84.0,-5.0
126.0,127.0,126.0,127.0,127.0,131.0,126.0,128.0,19.0,-108.0,-79.0,127.0,127.0,127.0,113.0,84.0,-5.0
126.0,127.0,126.0,127.0,127.0,130.0,126.0,128.0,19.0,-108.0,-79.0,127.0,127.0,127.0,113.0,84.0,-5.0
