emg1,emg2,emg3,emg4,emg5,emg6,emg7,emg8,acc_x,acc_y,acc_z,gyro_x,gyro_y,gyro_z,angle_pitch,angle_roll,angle_yaw
127.0,127.0,127.0,127.0,126.0,140.0,126.0,127.0,30.0,-103.0,-69.0,127.0,127.0,127.0,114.0,87.0,-5.0
127.0,127.0,127.0,127.0,126.0,141.0,126.0,128.0,30.0,-103.0,-69.0,127.0,127.0,127.0,114.0,87.0,-5.0
127.0,127.0,127.0,127.0,127.0,141.0,126.0,128.0,30.0,-103.0,-69.0,127.0,127.0,127.0,114.0,87.0,-5.0
127.0,127.0,127.0,127.0,127.0,141.0,126.0,128.0,30.0,-103.0,-69.0,127.0,127.0,127.0,114.0,87.0,-5.0
127.0,127.0,127.0,127.0,127.0,141.0,126.0,128.0,30.0,-103.0,-69.0,127.0,127.0,127.0,114.0,87.0,-5.0
127.0,127.0,127.0,127.0,126.0,141.0,126.0,128.0,30.0,-103.0,-69.0,127.0,127.0,127.0,114.0,87.0,-5.0
127.0,127.0,127.0,127.0,127.0,140.0,126.0,128.0,30.0,-103.0,-69.0,127.0,127.0,127.0,114.0,87.0,-5.0
127.0,127.0,127.0,127.0,126.0,140.0,127.0,128.0,30.0,-103.0,-69.0,127.0,127.0,127.0,114.0,87.0,-5.0
127.0,127.0,127.0,127.0,126.0,140.0,127.0,128.0,30.0,-103.0,-69.0,127.0,127.0,127.0,114.0,87.0,-5.0
127.0,126.0,127.0,127.0,126.0,139.0,126.0,128.0,30.0,-103.0,-69.0,127.0,127.0,127.0,114.0,87.0,-5.0
127.0,127.0,127.0,127.0,127.0,141.0,126.0,128.0,30.0,-103.0,-69.0,127.0,127.0,127.0,114.0,87.0,-5.0
127.0,127.0,127.0,127.0,127.0,141.0,126.0,128.0,30.0,-103.0,-69.0,127.0,127.0,127.0,114.0,87.0,-5.0
127.0,127.0,127.0,127.0,127.0,141.0,126.0,128.0,30.0,-103.0,-69.0,127.0,127.0,127.0,114.0,87.0,-5.0
127.0,127.0,127.0,127.0,127.0,141.0,126.0,128.0,30.0,-103.0,-69.0,127.0,127.0,127.0,114.0,87.0,-5.0
127.0,127.0,127.0,127.0,127.0,141.0,127.0,128.0,30.0,-103.0,-69.0,127.0,127.0,127.0,114.0,87.0,-5.0
127.0,127.0,127.0,127.0,127.0,141.0,127.0,128.0,30.0,-103.0,-69.0,127.0,127.0,127.0,114.0,87.0,-5.0
127.0,127.0,127.0,127.0,127.0,140.0,127.0,128.0,30.0,-103.0,-69.0,127.0,127.0,127.0,114.0,87.0,-5.0
127.0,127.0,127.0,127.0,127.0,140.0,127.0,128.0,30.0,-103.0,-69.0,127.0,127.0,127.0,114.0,87.0,-5.0
127.0,127.0,127.0,127.0,127.0,139.0,127.0,128.0,30.0,-103.0,-69.0,127.0,127.0,127.0,114.0,87.0,-5.0
127.0,127.0,127.0,127.0,127.0,140.0,126.0,128.0,30.0,-103.0,-69.0,127.0,127.0,127.0,114.0,87.0,-5.0
127.0,127.0,127.0,127.0,127.0,141.0,126.0,128.0,30.0,-103.0,-69.0,127.0,127.0,127.0,114.0,87.0,-5.0
127.0,127.0,127.0,127.0,127.0,141.0,126.0,128.0,30.0,-103.0,-69.0,127.0,127.0,127.0,114.0,87.0,-5.0
127.0,127.0,127.0,127.0,126.0,141.0,126.0,128.0,30.0,-103.0,-69.0,127.0,127.0,127.0,114.0,87.0,-5.0
127.0,127.0,127.0,127.0,126.0,141.0,126.0,128.0,30.0,-103.0,-69.0,127.0,127.0,127.0,114.0,87.0,-5.0
127.0,127.0,127.0,127.0,127.0,141.0,126.0,128.0,30.0,-103.0,-69.0,127.0,127.0,127.0,114.0,87.0,-5.0
127.0,127.0,127.0,127.0,127.0,140.0,126.0,128.0,30.0,-103.0,-69.0,127.0,127.0,127.0,114.0,87.0,-5.0
127.0,127.0,127.0,127.0,127.0,140.0,126.0,128.0,30.0,-103.0,-69.0,127.0,127.0,127.0,114.0,87.0,-5.0
127.0,127.0,127.0,127.0,126.0,139.0,126.0,128.0,30.0,-103.0,-69.0,127.0,127.0,127.0,114.0,87.0,-5.0
127.0,127.0,127.0,127.0,126.0,139.0,126.0,128.0,30.0,-103.0,-69.0,127.0,127.0,127.0,114.0,87.0,-5.0
127.0,127.0,126.0,127.0,127.0,141.0,126.0,128.0,30.0,-103.0,-69.0,127.0,127.0,127.0,114.0,87.0,-5.0
127.0,127.0,127.0,127.0,127.0,141.0,126.0,127.0,30.0,-103.0,-69.0,127.0,127.0,127.0,114.0,87.0,-5.0
127.0,127.0,127.0,127.0,127.0,140.0,126.0,127.0,30.0,-103.0,-69.0,127.0,127.0,127.0,114.0,87.0,-5.0
127.0,127.0,127.0,127.0,126.0,140.0,126.0,128.0,30.0,-103.0,-69.0,127.0,127.0,127.0,114.0,87.0,-5.0
127.0,127.0,127.0,127.0,127.0,140.0,126.0,128.0,30.0,-103.0,-69.0,127.0,127.0,127.0,114.0,87.0,-5.0
127.0,127.0,127.0,127.0,127.0,140.0,126.0,128.0,30.0,-103.0,-69.0,127.0,127.0,127.0,114.0,87.0,-5.0
127.0,127.0,127.0,127.0,127.0,139.0,126.0,128.0,30.0,-103.0,-69.0,127.0,127.0,127.0,114.0,87.0,-5.0
127.0,127.0,127.0,127.0,126.0,139.0,126.0,127.0,30.0,-103.0,-69.0,127.0,127.0,127.0,114.0,87.0,-5.0
127.0,127.0,127.0,127.0,126.0,139.0,126.0,127.0,30.0,-103.0,-69.0,127.0,127.0,127.0,114.0,87.0,-5.0
127.0,127.0,127.0,127.0,127.0,140.0,126.0,127.0,30.0,-103.0,-69.0,127.0,127.0,127.0,114.0,87.0,-5.0
127.0,127.0,127.0,127.0,127.0,141.0,126.0,127.0,30.0,-103.0,-69.0,127.0,127.0,127.0,114.0,87.0,-5.0
127.0,127.0,127.0,127.0,127.0,140.0,127.0,128.0,30.0,-103.0,-69.0,127.0,127.0,127.0,114.0,87.0,-5.0
127.0,127.0,127.0,127.0,127.0,140.0,127.0,128.0,30.0,-103.0,-69.0,127.0,127.0,127.0,114.0,87.0,-5.0
127.0,127.0,127.0,127.0,127.0,140.0,127.0,128.0,30.0,-103.0,-69.0,127.0,127.0,127.0,114.0,87.0,-5.0
127.0,127.0,127.0,127.0,127.0,140.0,127.0,128.0,30.0,-103.0,-69.0,127.0,127.0,127.0,114.0,87.0,-5.0
127.0,127.0,127.0,127.0,127.0,139.0,127.0,128.0,30.0,-103.0,-69.0,127.0,127.0,127.0,114.0,87.0,-5.0
127.0,127.0,127.0,127.0,127.0,139.0,127.0,128.0,30.0,-103.0,-69.0,127.0,127.0,127.0,114.0,87.0,-5.0
127.0,127.0,127.0,127.0,127.0,139.0,127.0,128.0,30.0,-103.0,-69.0,127.0,127.0,127.0,114.0,87.0,-5.0
127.0,127.0,127.0,127.0,127.0,140.0,126.0,128.0,30.0,-103.0,-69.0,127.0,127.0,127.0,114.0,87.0,-5.0
127.0,127.0,127.0,127.0,127.0,140.0,126.0,128.0,30.0,-103.0,-69.0,127.0,127.0,127.0,114.0,87.0,-5.0
127.0,127.0,127.0,127.0,127.0,140.0,126.0,128.0,30.0,-103.0,-69.0,127.0,127.0,127.0,114.0,87.0,-5.0
127.0,126.0,127.0,127.0,127.0,136.0,127.0,128.0,30.0,-103.0,-69.0,127.0,127.0,127.0,114.0,87.0,-5.0
127.0,126.0,127.0,127.0,127.0,137.0,127.0,128.0,30.0,-103.0,-69.0,127.0,127.0,127.0,114.0,87.0,-5.0
127.0,126.0,127.0,127.0,127.0,137.0,126.0,128.0,30.0,-103.0,-69.0,127.0,127.0,127.0,114.0,87.0,-5.0
127.0,127.0,127.0,127.0,127.0,138.0,126.0,128.0,30.0,-103.0,-69.0,127.0,127.0,127.0,114.0,87.0,-5.0
127.0,126.0,128.0,127.0,127.0,137.0,127.0,128.0,30.0,-103.0,-69.0,127.0,127.0,127.0,114.0,87.0,-5.0
127.0,126.0,128.0,127.0,127.0,137.0,127.0,128.0,30.0,-103.0,-69.0,127.0,127.0,127.0,114.0,87.0,-5.0
127.0,126.0,128.0,127.0,127.0,136.0,127.0,128.0,30.0,-103.0,-69.0,127.0,127.0,127.0,114.0,87.0,-5.0
127.0,126.0,128.0,127.0,127.0,136.0,127.0,128.0,30.0,-103.0,-69.0,127.0,127.0,127.0,114.0,87.0,-5.0
127.0,126.0,127.0,127.0,127.0,137.0,127.0,128.0,30.0,-103.0,-69.0,127.0,127.0,127.0,114.0,87.0,-5.0
127.0,126.0,127.0,127.0,127.0,136.0,127.0,128.0,30.0,-103.0,-69.0,127.0,127.0,127.0,114.0,87.0,-5.0
127.0,127.0,127.0,127.0,127.0,140.0,127.0,128.0,31.0,-103.0,-69.0,127.0,127.0,127.0,114.0,87.0,-5.0
127.0,127.0,127.0,127.0,127.0,139.0,127.0,128.0,31.0,-103.0,-69.0,127.0,127.0,127.0,114.0,87.0,-5.0
127.0,127.0,127.0,127.0,127.0,139.0,127.0,128.0,31.0,-103.0,-69.0,127.0,127.0,127.0,114.0,87.0,-5.0
127.0,126.0,127.0,127.0,127.0,138.0,126.0,128.0,31.0,-103.0,-69.0,127.0,127.0,127.0,114.0,87.0,-5.0
127.0,126.0,127.0,127.0,127.0,138.0,127.0,128.0,31.0,-103.0,-69.0,127.0,127.0,127.0,114.0,87.0,-5.0
127.0,127.0,127.0,127.0,127.0,139.0,126.0,128.0,31.0,-103.0,-69.0,127.0,127.0,127.0,114.0,87.0,-5.0
127.0,127.0,127.0,127.0,127.0,140.0,126.0,128.0,31.0,-103.0,-69.0,127.0,127.0,127.0,114.0,87.0,-5.0
127.0,127.0,127.0,127.0,127.0,140.0,126.0,128.0,31.0,-103.0,-69.0,127.0,127.0,127.0,114.0,87.0,-5.0
127.0,127.0,127.0,127.0,127.0,140.0,127.0,128.0,31.0,-103.0,-69.0,127.0,127.0,127.0,114.0,87.0,-5.0
127.0,127.0,127.0,127.0,127.0,140.0,127.0,128.0,31.0,-103.0,-69.0,127.0,127.0,127.0,114.0,87.0,-5.0
127.0,127.0,127.0,127.0,127.0,140.0,127.0,128.0,31.0,-103.0,-69.0,127.0,127.0,127.0,114.0,87.0,-5.0
127.0,127.0,127.0,127.0,127.0,140.0,126.0,128.0,31.0,-103.0,-69.0,127.0,127.0,127.0,114.0,87.0,-5.0
127.0,127.0,127.0,127.0,127.0,139.0,126.0,128.0,31.0,-103.0,-69.0,127.0,127.0,127.0,114.0,87.0,-5.0
127.0,127.0,127.0,127.0,127.0,139.0,126.0,128.0,31.0,-103.0,-69.0,127.0,127.0,127.0,114.0,87.0,-5.0
127.0,127.0,127.0,127.0,127.0,139.0,126.0,128.0,31.0,-103.0,-69.0,127.0,127.0,127.0,114.0,87.0,-5.0
127.0,127.0,126.0,127.0,127.0,141.0,126.0,128.0,31.0,-103.0,-69.0,127.0,127.0,127.0,114.0,87.0,-5.0
127.0,127.0,126.0,127.0,127.0,141.0,126.0,128.0,31.0,-103.0,-69.0,127.0,127.0,127.0,114.0,87.0,-5.0
127.0,127.0,127.0,127.0,127.0,141.0,126.0,128.0,31.0,-103.0,-69.0,127.0,127.0,127.0,114.0,87.0,-5.0
127.0,127.0,127.0,127.0,127.0,140.0,126.0,128.0,31.0,-103.0,-69.0,127.0,127.0,127.0,114.0,87.0,-5.0
127.0,127.0,126.0,127.0,127.0,140.0,126.0,128.0,31.0,-103.0,-69.0,127.0,127.0,127.0,114.0,87.0,-5.0
127.0,127.0,127.0,127.0,127.0,139.0,126.0,128.0,31.0,-103.0,-69.0,127.0,127.0,127.0,114.0,87.0,-5.0
127.0,127.0,127.0,127.0,127.0,139.0,126.0,128.0,31.0,-103.0,-69.0,127.0,127.0,127.0,114.0,87.0,-5.0
127.0,127.0,127.0,127.0,127.0,139.0,126.0,128.0,31.0,-103.0,-69.0,127.0,127.0,127.0,114.0,87.0,-5.0
127.0,127.0,127.0,127.0,127.0,139.0,126.0,128.0,31.0,-103.0,-69.0,127.0,127.0,127.0,114.0,87.0,-5.0
127.0,127.0,127.0,127.0,127.0,140.0,126.0,127.0,31.0,-103.0,-69.0,127.0,127.0,127.0,114.0,87.0,-5.0
127.0,127.0,127.0,127.0,127.0,140.0,126.0,127.0,31.0,-103.0,-69.0,127.0,127.0,127.0,114.0,87.0,-5.0
127.0,127.0,127.0,127.0,127.0,140.0,126.0,128.0,31.0,-103.0,-69.0,127.0,127.0,127.0,114.0,87.0,-5.0
127.0,127.0,127.0,127.0,127.0,140.0,126.0,128.0,31.0,-103.0,-69.0,127.0,127.0,127.0,114.0,87.0,-5.0
127.0,127.0,127.0,127.0,127.0,140.0,126.0,128.0,31.0,-103.0,-69.0,127.0,127.0,127.0,114.0,87.0,-5.0
127.0,127.0,127.0,127.0,127.0,140.0,126.0,128.0,31.0,-103.0,-69.0,127.0,127.0,127.0,114.0,87.0,-5.0
127.0,127.0,127.0,127.0,127.0,137.0,126.0,128.0,31.0,-103.0,-69.0,127.0,127.0,127.0,114.0,87.0,-5.0
127.0,127.0,127.0,127.0,127.0,137.0,126.0,128.0,31.0,-103.0,-69.0,127.0,127.0,127.0,114.0,87.0,-5.0
127.0,127.0,127.0,127.0,126.0,137.0,126.0,128.0,31.0,-103.0,-69.0,127.0,127.0,127.0,114.0,87.0,-5.0
127.0,127.0,127.0,127.0,126.0,138.0,126.0,128.0,31.0,-103.0,-69.0,127.0,127.0,127.0,114.0,87.0,-5.0
127.0,127.0,127.0,127.0,127.0,139.0,126.0,128.0,31.0,-103.0,-69.0,127.0,127.0,127.0,114.0,87.0,-5.0
127.0,127.0,127.0,127.0,127.0,139.0,126.0,128.0,31.0,-103.0,-69.0,127.0,127.0,127.0,114.0,87.0,-5.0
127.0,127.0,127.0,127.0,127.0,139.0,126.0,128.0,31.0,-103.0,-69.0,127.0,127.0,127.0,114.0,87.0,-5.0
127.0,127.0,127.0,127.0,127.0,138.0,126.0,128.0,31.0,-103.0,-69.0,127.0,127.0,127.0,114.0,87.0,-5.0
127.0,127.0,127.0,127.0,127.0,139.0,126.0,128.0,31.0,-103.0,-69.0,127.0,127.0,127.0,114.0,87.0,-5.0
127.0,127.0,127.0,127.0,127.0,138.0,126.0,128.0,31.0,-103.0,-69.0,127.0,127.0,127.0,114.0,87.0,-5.0
127.0,127.0,127.0,127.0,127.0,137.0,126.0,128.0,31.0,-103.0,-69.0,127.0,127.0,127.0,114.0,87.0,-5.0
127.0,127.0,127.0,127.0,127.0,137.0,126.0,128.0,31.0,-103.0,-69.0,127.0,127.0,127.0,114.0,87.0,-5.0
127.0,127.0,127.0,127.0,127.0,138.0,126.0,127.0,31.0,-103.0,-69.0,127.0,127.0,127.0,114.0,87.0,-5.0
127.0,127.0,127.0,127.0,127.0,139.0,126.0,128.0,31.0,-103.0,-69.0,127.0,127.0,127.0,114.0,87.0,-5.0
127.0,127.0,127.0,127.0,127.0,139.0,126.0,128.0,31.0,-103.0,-69.0,127.0,127.0,127.0,114.0,87.0,-5.0
127.0,127.0,127.0,127.0,127.0,139.0,126.0,128.0,31.0,-103.0,-69.0,127.0,127.0,127.0,114.0,87.0,-5.0
127.0,127.0,126.0,127.0,127.0,139.0,126.0,128.0,31.0,-103.0,-69.0,127.0,127.0,127.0,114.0,87.0,-5.0
127.0,127.0,126.0,127.0,127.0,139.0,126.0,128.0,31.0,-103.0,-69.0,127.0,127.0,127.0,114.0,87.0,-5.0
127.0,127.0,127.0,127.0,127.0,138.0,126.0,128.0,31.0,-103.0,-69.0,127.0,127.0,127.0,114.0,87.0,-5.0
127.0,127.0,127.0,127.0,127.0,137.0,126.0,128.0,31.0,-103.0,-69.0,127.0,127.0,127.0,114.0,87.0,-5.0
127.0,126.0,127.0,127.0,126.0,138.0,126.0,128.0,31.0,-103.0,-69.0,127.0,127.0,127.0,114.0,87.0,-5.0
127.0,127.0,127.0,127.0,127.0,139.0,126.0,128.0,31.0,-103.0,-69.0,127.0,127.0,127.0,114.0,87.0,-5.0
127.0,127.0,127.0,127.0,127.0,140.0,126.0,128.0,31.0,-103.0,-69.0,127.0,127.0,127.0,114.0,87.0,-5.0
127.0,127.0,127.0,127.0,127.0,140.0,126.0,128.0,31.0,-103.0,-69.0,127.0,127.0,127.0,114.0,87.0,-5.0
127.0,127.0,127.0,127.0,127.0,139.0,126.0,128.0,31.0,-103.0,-69.0,127.0,127.0,127.0,114.0,87.0,-5.0
127.0,127.0,127.0,127.0,127.0,139.0,126.0,128.0,31.0,-103.0,-69.0,127.0,127.0,127.0,114.0,87.0,-5.0
127.0,127.0,127.0,127.0,127.0,139.0,126.0,128.0,31.0,-103.0,-69.0,127.0,127.0,127.0,114.0,87.0,-5.0
127.0,127.0,127.0,127.0,127.0,138.0,126.0,128.0,31.0,-103.0,-69.0,127.0,127.0,127.0,114.0,87.0,-5.0
127.0,127.0,127.0,127.0,126.0,138.0,126.0,128.0,31.0,-103.0,-69.0,127.0,127.0,127.0,114.0,87.0,-5.0
127.0,126.0,127.0,127.0,126.0,138.0,126.0,128.0,31.0,-103.0,-69.0,127.0,127.0,127.0,114.0,87.0,-5.0
127.0,127.0,127.0,127.0,127.0,138.0,126.0,128.0,30.0,-103.0,-69.0,127.0,127.0,127.0,114.0,87.0,-5.0
127.0,127.0,127.0,127.0,127.0,139.0,126.0,128.0,30.0,-103.0,-69.0,127.0,127.0,127.0,114.0,87.0,-5.0
127.0,127.0,127.0,127.0,127.0,139.0,127.0,128.0,30.0,-103.0,-69.0,127.0,127.0,127.0,114.0,87.0,-5.0
127.0,127.0,127.0,127.0,127.0,139.0,127.0,128.0,30.0,-103.0,-69.0,127.0,127.0,127.0,114.0,87.0,-5.0
127.0,127.0,127.0,127.0,127.0,139.0,127.0,128.0,30.0,-103.0,-69.0,127.0,127.0,127.0,114.0,87.0,-5.0
127.0,127.0,127.0,127.0,127.0,139.0,127.0,128.0,30.0,-103.0,-69.0,127.0,127.0,127.0,114.0,87.0,-5.0
127.0,127.0,127.0,127.0,127.0,138.0,127.0,128.0,30.0,-103.0,-69.0,127.0,127.0,127.0,114.0,87.0,-5.0
127.0,127.0,127.0,127.0,127.0,137.0,127.0,128.0,30.0,-103.0,-69.0,127.0,127.0,127.0,114.0,87.0,-5.0
127.0,127.0,127.0,127.0,127.0,137.0,127.0,128.0,30.0,-103.0,-69.0,127.0,127.0,127.0,114.0,87.0,-5.0
127.0,127.0,127.0,127.0,127.0,137.0,127.0,128.0,30.0,-103.0,-69.0,127.0,127.0,127.0,114.0,87.0,-5.0
127.0,126.0,127.0,127.0,126.0,136.0,127.0,128.0,30.0,-103.0,-69.0,127.0,127.0,127.0,114.0,87.0,-5.0
127.0,126.0,127.0,127.0,126.0,136.0,127.0,128.0,30.0,-103.0,-69.0,127.0,127.0,127.0,114.0,87.0,-5.0
127.0,126.0,127.0,127.0,126.0,136.0,127.0,128.0,30.0,-103.0,-69.0,127.0,127.0,127.0,114.0,87.0,-5.0
127.0,127.0,127.0,127.0,127.0,138.0,126.0,128.0,30.0,-103.0,-69.0,127.0,127.0,127.0,114.0,87.0,-5.0
127.0,127.0,127.0,127.0,127.0,138.0,126.0,128.0,30.0,-103.0,-69.0,127.0,127.0,127.0,114.0,87.0,-5.0
127.0,127.0,127.0,127.0,127.0,138.0,126.0,128.0,30.0,-103.0,-69.0,127.0,127.0,127.0,114.0,87.0,-5.0
127.0,126.0,128.0,127.0,126.0,136.0,127.0,128.0,30.0,-103.0,-69.0,127.0,127.0,127.0,114.0,87.0,-5.0
127.0,126.0,128.0,127.0,126.0,136.0,127.0,128.0,30.0,-103.0,-69.0,127.0,127.0,127.0,114.0,87.0,-5.0
127.0,126.0,127.0,127.0,126.0,136.0,127.0,128.0,30.0,-103.0,-69.0,127.0,127.0,127.0,114.0,87.0,-5.0
127.0,126.0,127.0,127.0,126.0,136.0,127.0,128.0,30.0,-103.0,-69.0,127.0,127.0,127.0,114.0,87.0,-5.0
127.0,127.0,127.0,127.0,127.0,138.0,127.0,128.0,30.0,-103.0,-69.0,127.0,127.0,127.0,114.0,87.0,-5.0
127.0,127.0,127.0,127.0,127.0,138.0,127.0,128.0,30.0,-103.0,-69.0,127.0,127.0,127.0,114.0,87.0,-5.0
127.0,127.0,127.0,127.0,127.0,137.0,127.0,128.0,30.0,-103.0,-69.0,127.0,127.0,127.0,114.0,87.0,-5.0
127.0,126.0,127.0,127.0,127.0,137.0,127.0,128.0,30.0,-103.0,-69.0,127.0,127.0,127.0,114.0,87.0,-5.0
127.0,126.0,127.0,127.0,127.0,137.0,127.0,128.0,30.0,-103.0,-69.0,127.0,127.0,127.0,114.0,87.0,-5.0
127.0,127.0,127.0,127.0,127.0,137.0,127.0,128.0,30.0,-103.0,-69.0,127.0,127.0,127.0,114.0,87.0,-5.0
127.0,127.0,126.0,127.0,127.0,138.0,126.0,128.0,30.0,-103.0,-69.0,127.0,127.0,127.0,114.0,87.0,-5.0
127.0,127.0,127.0,127.0,127.0,138.0,127.0,128.0,30.0,-103.0,-69.0,127.0,127.0,127.0,114.0,87.0,-5.0
127.0,127.0,127.0,127.0,127.0,138.0,127.0,128.0,30.0,-103.0,-69.0,127.0,127.0,127.0,114.0,87.0,-5.0
127.0,127.0,127.0,127.0,127.0,138.0,127.0,128.0,30.0,-103.0,-69.0,127.0,127.0,127.0,114.0,87.0,-5.0
127.0,127.0,127.0,127.0,126.0,139.0,127.0,128.0,30.0,-103.0,-69.0,127.0,127.0,127.0,114.0,87.0,-5.0
127.0,127.0,127.0,127.0,126.0,138.0,127.0,128.0,30.0,-103.0,-69.0,127.0,127.0,127.0,114.0,87.0,-5.0
127.0,127.0,127.0,127.0,126.0,138.0,127.0,128.0,30.0,-103.0,-69.0,127.0,127.0,127.0,114.0,87.0,-5.0
127.0,127.0,127.0,127.0,126.0,138.0,127.0,128.0,30.0,-103.0,-69.0,127.0,127.0,127.0,114.0,87.0,-5.0
127.0,127.0,127.0,127.0,126.0,137.0,127.0,128.0,30.0,-103.0,-69.0,127.0,127.0,127.0,114.0,87.0,-5.0
127.0,127.0,127.0,127.0,126.0,138.0,126.0,127.0,30.0,-103.0,-69.0,127.0,127.0,127.0,114.0,87.0,-5.0
127.0,127.0,127.0,127.0,126.0,139.0,126.0,128.0,30.0,-103.0,-69.0,127.0,127.0,127.0,114.0,87.0,-5.0
127.0,127.0,127.0,127.0,126.0,139.0,126.0,128.0,30.0,-103.0,-69.0,127.0,127.0,127.0,114.0,87.0,-5.0
127.0,127.0,127.0,127.0,126.0,139.0,126.0,128.0,30.0,-103.0,-69.0,127.0,127.0,127.0,114.0,87.0,-5.0
127.0,127.0,127.0,127.0,126.0,139.0,126.0,128.0,30.0,-103.0,-69.0,127.0,127.0,127.0,114.0,87.0,-5.0
127.0,127.0,127.0,127.0,127.0,139.0,127.0,128.0,30.0,-103.0,-69.0,127.0,127.0,127.0,114.0,87.0,-5.0
127.0,127.0,127.0,127.0,127.0,138.0,127.0,128.0,30.0,-103.0,-69.0,127.0,127.0,127.0,114.0,87.0,-5.0
127.0,127.0,127.0,127.0,127.0,137.0,127.0,128.0,30.0,-103.0,-69.0,127.0,127.0,127.0,114.0,87.0,-5.0
127.0,127.0,127.0,127.0,127.0,138.0,127.0,128.0,30.0,-103.0,-69.0,127.0,127.0,127.0,114.0,87.0,-5.0
127.0,127.0,127.0,127.0,127.0,139.0,127.0,128.0,30.0,-103.0,-69.0,127.0,127.0,127.0,114.0,87.0,-5.0
127.0,127.0,127.0,127.0,127.0,139.0,127.0,128.0,30.0,-103.0,-69.0,127.0,127.0,127.0,114.0,87.0,-5.0
127.0,127.0,127.0,127.0,127.0,139.0,127.0,128.0,30.0,-103.0,-69.0,127.0,127.0,127.0,114.0,87.0,-5.0
127.0,127.0,127.0,127.0,127.0,139.0,127.0,128.0,30.0,-103.0,-69.0,127.0,127.0,127.0,114.0,87.0,-5.0
127.0,127.0,127.0,127.0,127.0,139.0,127.0,128.0,30.0,-103.0,-69.0,127.0,127.0,127.0,114.0,87.0,-5.0
127.0,127.0,127.0,127.0,127.0,139.0,127.0,128.0,30.0,-103.0,-69.0,127.0,127.0,127.0,114.0,87.0,-5.0
127.0,127.0,127.0,127.0,127.0,139.0,127.0,128.0,30.0,-103.0,-69.0,127.0,127.0,127.0,114.0,87.0,-5.0
127.0,127.0,127.0,127.0,126.0,138.0,126.0,128.0,30.0,-103.0,-69.0,127.0,127.0,127.0,114.0,87.0,-5.0
127.0,127.0,127.0,127.0,127.0,138.0,126.0,128.0,30.0,-103.0,-69.0,127.0,127.0,127.0,114.0,87.0,-5.0
127.0,127.0,127.0,127.0,127.0,140.0,126.0,128.0,30.0,-103.0,-69.0,127.0,127.0,127.0,114.0,87.0,-5.0
127.0,127.0,127.0,127.0,127.0,140.0,126.0,128.0,30.0,-103.0,-69.0,127.0,127.0,127.0,114.0,87.0,-5.0
127.0,127.0,127.0,127.0,127.0,140.0,126.0,128.0,30.0,-103.0,-69.0,127.0,127.0,127.0,114.0,87.0,-5.0
127.0,127.0,127.0,127.0,127.0,140.0,126.0,128.0,30.0,-103.0,-69.0,127.0,127.0,127.0,114.0,87.0,-5.0
127.0,127.0,127.0,127.0,127.0,140.0,126.0,128.0,30.0,-103.0,-69.0,127.0,127.0,127.0,114.0,87.0,-5.0
127.0,127.0,127.0,127.0,127.0,140.0,127.0,128.0,30.0,-103.0,-69.0,127.0,127.0,127.0,114.0,87.0,-5.0
127.0,127.0,127.0,127.0,127.0,140.0,127.0,128.0,30.0,-103.0,-69.0,127.0,127.0,127.0,114.0,87.0,-5.0
127.0,127.0,127.0,127.0,127.0,138.0,127.0,128.0,30.0,-103.0,-69.0,127.0,127.0,127.0,114.0,87.0,-5.0
127.0,127.0,126.0,127.0,127.0,138.0,127.0,128.0,30.0,-103.0,-69.0,127.0,127.0,127.0,114.0,87.0,-5.0
127.0,127.0,126.0,127.0,127.0,139.0,127.0,128.0,30.0,-103.0,-69.0,127.0,127.0,127.0,114.0,87.0,-5.0
127.0,127.0,126.0,127.0,127.0,140.0,127.0,128.0,30.0,-103.0,-69.0,127.0,127.0,127.0,114.0,87.0,-5.0
127.0,127.0,126.0,127.0,127.0,140.0,127.0,128.0,30.0,-103.0,-69.0,127.0,127.0,127.0,114.0,87.0,-5.0
127.0,127.0,126.0,127.0,127.0,140.0,127.0,128.0,30.0,-103.0,-69.0,127.0,127.0,127.0,114.0,87.0,-5.0
127.0,127.0,126.0,127.0,127.0,140.0,127.0,128.0,30.0,-103.0,-69.0,127.0,127.0,127.0,114.0,87.0,-5.0
127.0,127.0,126.0,127.0,127.0,140.0,127.0,128.0,30.0,-103.0,-69.0,127.0,127.0,127.0,114.0,87.0,-5.0
127.0,127.0,126.0,127.0,127.0,140.0,127.0,128.0,30.0,-103.0,-69.0,127.0,127.0,127.0,114.0,87.0,-5.0
127.0,127.0,126.0,127.0,127.0,139.0,127.0,128.0,30.0,-103.0,-69.0,127.0,127.0,127.0,114.0,87.0,-5.0
127.0,127.0,127.0,127.0,127.0,139.0,127.0,128.0,29.0,-103.0,-69.0,127.0,127.0,127.0,114.0,87.0,-5.0
127.0,127.0,126.0,127.0,126.0,139.0,126.0,128.0,29.0,-103.0,-69.0,127.0,127.0,127.0,114.0,87.0,-5.0
127.0,127.0,126.0,127.0,127.0,140.0,126.0,128.0,29.0,-103.0,-69.0,127.0,127.0,127.0,114.0,87.0,-5.0
127.0,127.0,126.0,127.0,127.0,140.0,126.0,128.0,29.0,-103.0,-69.0,127.0,127.0,127.0,114.0,87.0,-5.0
127.0,127.0,126.0,127.0,127.0,140.0,126.0,128.0,29.0,-103.0,-69.0,127.0,127.0,127.0,114.0,87.0,-5.0
127.0,127.0,126.0,127.0,127.0,140.0,127.0,128.0,29.0,-103.0,-69.0,127.0,127.0,127.0,114.0,87.0,-5.0
127.0,127.0,126.0,127.0,127.0,140.0,127.0,128.0,29.0,-103.0,-69.0,127.0,127.0,127.0,114.0,87.0,-5.0
127.0,127.0,126.0,127.0,127.0,140.0,127.0,128.0,29.0,-103.0,-69.0,127.0,127.0,127.0,114.0,87.0,-5.0
127.0,127.0,127.0,127.0,127.0,139.0,127.0,128.0,29.0,-103.0,-69.0,127.0,127.0,127.0,114.0,87.0,-5.0
127.0,127.0,127.0,127.0,126.0,139.0,126.0,128.0,29.0,-103.0,-69.0,127.0,127.0,127.0,114.0,87.0,-5.0
127.0,127.0,127.0,127.0,126.0,138.0,126.0,127.0,29.0,-103.0,-69.0,127.0,127.0,127.0,114.0,87.0,-5.0
127.0,127.0,127.0,127.0,127.0,140.0,126.0,127.0,29.0,-103.0,-69.0,127.0,127.0,127.0,114.0,87.0,-5.0
127.0,128.0,127.0,127.0,127.0,140.0,126.0,127.0,29.0,-103.0,-69.0,127.0,127.0,127.0,114.0,87.0,-5.0
127.0,127.0,127.0,127.0,127.0,140.0,126.0,127.0,29.0,-103.0,-69.0,127.0,127.0,127.0,114.0,87.0,-5.0
127.0,127.0,127.0,127.0,127.0,139.0,126.0,128.0,29.0,-103.0,-69.0,127.0,127.0,127.0,114.0,87.0,-5.0
127.0,127.0,127.0,127.0,126.0,139.0,126.0,127.0,29.0,-103.0,-69.0,127.0,127.0,127.0,114.0,87.0,-5.0
127.0,127.0,127.0,127.0,126.0,139.0,126.0,127.0,29.0,-103.0,-69.0,127.0,127.0,127.0,114.0,87.0,-5.0
127.0,127.0,127.0,127.0,126.0,139.0,126.0,128.0,29.0,-103.0,-69.0,127.0,127.0,127.0,114.0,87.0,-5.0
127.0,127.0,128.0,127.0,127.0,138.0,126.0,127.0,29.0,-103.0,-69.0,127.0,127.0,127.0,114.0,87.0,-5.0
127.0,127.0,128.0,127.0,127.0,138.0,126.0,127.0,29.0,-103.0,-69.0,127.0,127.0,127.0,114.0,87.0,-5.0
127.0,126.0,126.0,127.0,126.0,134.0,127.0,127.0,29.0,-102.0,-69.0,127.0,127.0,127.0,114.0,87.0,-5.0
127.0,126.0,126.0,127.0,126.0,134.0,127.0,127.0,29.0,-102.0,-69.0,127.0,127.0,127.0,114.0,87.0,-5.0
127.0,126.0,126.0,127.0,127.0,134.0,127.0,127.0,29.0,-102.0,-69.0,127.0,127.0,127.0,114.0,87.0,-5.0
127.0,126.0,126.0,127.0,127.0,136.0,127.0,127.0,29.0,-102.0,-69.0,127.0,127.0,127.0,114.0,87.0,-5.0
127.0,126.0,126.0,127.0,127.0,136.0,127.0,127.0,29.0,-102.0,-69.0,127.0,127.0,127.0,114.0,87.0,-5.0
127.0,126.0,126.0,127.0,127.0,136.0,127.0,127.0,29.0,-102.0,-69.0,127.0,127.0,127.0,114.0,87.0,-5.0
127.0,126.0,126.0,127.0,127.0,136.0,127.0,128.0,29.0,-102.0,-69.0,127.0,127.0,127.0,114.0,87.0,-5.0
127.0,126.0,127.0,127.0,127.0,134.0,127.0,127.0,29.0,-102.0,-69.0,127.0,127.0,127.0,114.0,87.0,-5.0
127.0,126.0,126.0,127.0,127.0,134.0,127.0,127.0,29.0,-102.0,-69.0,127.0,127.0,127.0,114.0,87.0,-5.0
127.0,126.0,126.0,127.0,126.0,134.0,127.0,127.0,29.0,-102.0,-69.0,127.0,127.0,127.0,114.0,87.0,-5.0
127.0,127.0,127.0,127.0,127.0,138.0,127.0,128.0,29.0,-102.0,-68.0,127.0,127.0,127.0,114.0,87.0,-5.0
127.0,127.0,127.0,127.0,127.0,138.0,127.0,128.0,29.0,-102.0,-68.0,127.0,127.0,127.0,114.0,87.0,-5.0
127.0,127.0,127.0,127.0,127.0,138.0,127.0,128.0,29.0,-102.0,-68.0,127.0,127.0,127.0,114.0,87.0,-5.0
127.0,127.0,127.0,127.0,127.0,137.0,127.0,128.0,29.0,-102.0,-68.0,127.0,127.0,127.0,114.0,87.0,-5.0
127.0,126.0,127.0,127.0,127.0,137.0,127.0,128.0,29.0,-102.0,-68.0,127.0,127.0,127.0,114.0,87.0,-5.0
127.0,126.0,127.0,127.0,127.0,137.0,127.0,128.0,29.0,-102.0,-68.0,127.0,127.0,127.0,114.0,87.0,-5.0
127.0,127.0,127.0,127.0,127.0,138.0,127.0,128.0,29.0,-102.0,-68.0,127.0,127.0,127.0,114.0,87.0,-5.0
127.0,127.0,127.0,127.0,127.0,138.0,127.0,128.0,29.0,-102.0,-68.0,127.0,127.0,127.0,114.0,87.0,-5.0
127.0,127.0,127.0,127.0,127.0,138.0,127.0,128.0,29.0,-102.0,-68.0,127.0,127.0,127.0,114.0,87.0,-5.0
127.0,127.0,127.0,127.0,127.0,138.0,127.0,128.0,29.0,-102.0,-68.0,127.0,127.0,127.0,114.0,87.0,-5.0
127.0,127.0,128.0,127.0,127.0,138.0,127.0,128.0,29.0,-103.0,-68.0,127.0,127.0,127.0,114.0,87.0,-5.0
127.0,127.0,128.0,127.0,127.0,138.0,127.0,128.0,29.0,-103.0,-68.0,127.0,127.0,127.0,114.0,87.0,-5.0
127.0,126.0,128.0,127.0,127.0,137.0,127.0,128.0,29.0,-103.0,-68.0,127.0,127.0,127.0,114.0,87.0,-5.0
127.0,126.0,128.0,127.0,127.0,137.0,127.0,128.0,29.0,-103.0,-68.0,127.0,127.0,127.0,114.0,87.0,-5.0
127.0,126.0,128.0,127.0,127.0,137.0,127.0,128.0,29.0,-103.0,-68.0,127.0,127.0,127.0,114.0,87.0,-5.0
127.0,127.0,127.0,127.0,127.0,138.0,126.0,128.0,29.0,-103.0,-68.0,127.0,127.0,127.0,114.0,87.0,-5.0
127.0,127.0,127.0,127.0,127.0,139.0,126.0,128.0,29.0,-103.0,-68.0,127.0,127.0,127.0,114.0,87.0,-5.0
127.0,127.0,127.0,127.0,127.0,139.0,126.0,128.0,29.0,-103.0,-68.0,127.0,127.0,127.0,114.0,87.0,-5.0
127.0,127.0,127.0,127.0,127.0,138.0,126.0,128.0,29.0,-103.0,-68.0,127.0,127.0,127.0,114.0,87.0,-5.0
127.0,127.0,127.0,127.0,127.0,138.0,127.0,128.0,29.0,-103.0,-68.0,127.0,127.0,127.0,114.0,87.0,-5.0
127.0,127.0,129.0,128.0,127.0,138.0,126.0,128.0,29.0,-103.0,-68.0,127.0,127.0,127.0,114.0,87.0,-5.0
127.0,127.0,129.0,128.0,127.0,138.0,126.0,128.0,29.0,-103.0,-68.0,127.0,127.0,127.0,114.0,87.0,-5.0
127.0,127.0,129.0,128.0,127.0,138.0,126.0,128.0,29.0,-103.0,-68.0,127.0,127.0,127.0,114.0,87.0,-5.0
127.0,127.0,129.0,128.0,127.0,137.0,126.0,128.0,29.0,-103.0,-68.0,127.0,127.0,127.0,114.0,87.0,-5.0
127.0,127.0,128.0,127.0,127.0,138.0,126.0,128.0,29.0,-103.0,-68.0,127.0,127.0,127.0,114.0,87.0,-5.0
127.0,127.0,128.0,127.0,127.0,139.0,126.0,128.0,29.0,-103.0,-68.0,127.0,127.0,127.0,114.0,87.0,-5.0
127.0,127.0,128.0,127.0,127.0,139.0,126.0,128.0,29.0,-103.0,-68.0,127.0,127.0,127.0,114.0,87.0,-5.0
127.0,127.0,128.0,127.0,127.0,139.0,126.0,128.0,29.0,-103.0,-68.0,127.0,127.0,127.0,114.0,87.0,-5.0
127.0,127.0,129.0,128.0,127.0,139.0,126.0,128.0,29.0,-103.0,-68.0,127.0,127.0,127.0,114.0,87.0,-5.0
127.0,127.0,129.0,128.0,127.0,139.0,126.0,128.0,29.0,-103.0,-68.0,127.0,127.0,127.0,114.0,87.0,-5.0
127.0,127.0,127.0,128.0,127.0,118.0,127.0,128.0,29.0,-103.0,-68.0,127.0,127.0,127.0,114.0,87.0,-5.0
127.0,127.0,127.0,128.0,127.0,117.0,127.0,127.0,29.0,-103.0,-68.0,127.0,127.0,127.0,114.0,87.0,-5.0
127.0,127.0,126.0,128.0,127.0,116.0,127.0,127.0,29.0,-103.0,-68.0,127.0,127.0,127.0,114.0,87.0,-5.0
127.0,127.0,127.0,129.0,128.0,123.0,128.0,128.0,29.0,-103.0,-68.0,127.0,127.0,127.0,114.0,87.0,-5.0
127.0,127.0,127.0,129.0,128.0,123.0,128.0,128.0,29.0,-103.0,-68.0,127.0,127.0,127.0,114.0,87.0,-5.0
127.0,127.0,127.0,129.0,128.0,122.0,128.0,128.0,29.0,-103.0,-68.0,127.0,127.0,127.0,114.0,87.0,-5.0
127.0,127.0,127.0,129.0,128.0,121.0,128.0,127.0,29.0,-103.0,-68.0,127.0,127.0,127.0,114.0,87.0,-5.0
127.0,127.0,127.0,129.0,128.0,120.0,128.0,128.0,29.0,-103.0,-68.0,127.0,127.0,127.0,114.0,87.0,-5.0
127.0,127.0,127.0,129.0,127.0,120.0,127.0,128.0,29.0,-103.0,-68.0,127.0,127.0,127.0,114.0,87.0,-5.0
127.0,127.0,127.0,129.0,127.0,119.0,127.0,128.0,29.0,-103.0,-68.0,127.0,127.0,127.0,114.0,87.0,-5.0
127.0,127.0,115.0,127.0,128.0,0.0,127.0,125.0,30.0,-103.0,-68.0,127.0,127.0,127.0,114.0,87.0,-5.0
127.0,127.0,114.0,127.0,128.0,0.0,127.0,125.0,30.0,-103.0,-68.0,127.0,127.0,127.0,114.0,87.0,-5.0
127.0,127.0,117.0,127.0,129.0,0.0,129.0,125.0,30.0,-103.0,-68.0,127.0,127.0,127.0,114.0,87.0,-5.0
127.0,128.0,117.0,127.0,129.0,0.0,129.0,125.0,30.0,-103.0,-68.0,127.0,127.0,127.0,114.0,87.0,-5.0
127.0,128.0,116.0,127.0,129.0,0.0,129.0,125.0,30.0,-103.0,-68.0,127.0,127.0,127.0,114.0,87.0,-5.0
127.0,128.0,116.0,127.0,128.0,0.0,128.0,125.0,30.0,-103.0,-68.0,127.0,127.0,127.0,114.0,87.0,-5.0
127.0,128.0,116.0,127.0,128.0,0.0,128.0,125.0,30.0,-103.0,-68.0,127.0,127.0,127.0,114.0,87.0,-5.0
127.0,128.0,115.0,127.0,128.0,0.0,127.0,125.0,30.0,-103.0,-68.0,127.0,127.0,127.0,114.0,87.0,-5.0
127.0,128.0,115.0,126.0,128.0,0.0,127.0,125.0,30.0,-103.0,-68.0,127.0,127.0,127.0,114.0,87.0,-5.0
127.0,127.0,115.0,127.0,128.0,0.0,127.0,125.0,30.0,-103.0,-68.0,127.0,127.0,127.0,114.0,87.0,-5.0
127.0,129.0,99.0,137.0,139.0,0.0,124.0,124.0,30.0,-103.0,-69.0,127.0,127.0,127.0,114.0,87.0,-5.0
128.0,128.0,104.0,135.0,136.0,0.0,126.0,126.0,30.0,-103.0,-69.0,127.0,127.0,127.0,114.0,87.0,-5.0
128.0,128.0,103.0,135.0,137.0,0.0,126.0,125.0,30.0,-103.0,-69.0,127.0,127.0,127.0,114.0,87.0,-5.0
128.0,128.0,102.0,135.0,137.0,0.0,125.0,125.0,30.0,-103.0,-69.0,127.0,127.0,127.0,114.0,87.0,-5.0
128.0,128.0,102.0,136.0,138.0,0.0,125.0,125.0,30.0,-103.0,-69.0,127.0,127.0,127.0,114.0,87.0,-5.0
128.0,128.0,102.0,136.0,138.0,0.0,125.0,125.0,30.0,-103.0,-69.0,127.0,127.0,127.0,114.0,87.0,-5.0
128.0,128.0,101.0,136.0,138.0,0.0,124.0,125.0,30.0,-103.0,-69.0,127.0,127.0,127.0,114.0,87.0,-5.0
128.0,128.0,101.0,137.0,138.0,0.0,124.0,125.0,30.0,-103.0,-69.0,127.0,127.0,127.0,114.0,87.0,-5.0
128.0,128.0,100.0,137.0,139.0,0.0,124.0,125.0,30.0,-103.0,-69.0,127.0,127.0,127.0,114.0,87.0,-5.0
127.0,128.0,100.0,137.0,139.0,0.0,124.0,124.0,30.0,-103.0,-69.0,127.0,127.0,127.0,114.0,87.0,-5.0
127.0,131.0,95.0,148.0,152.0,0.0,139.0,126.0,30.0,-103.0,-69.0,-128.0,127.0,127.0,114.0,87.0,-5.0
127.0,131.0,95.0,148.0,152.0,2.0,138.0,125.0,30.0,-103.0,-69.0,-128.0,127.0,127.0,114.0,87.0,-5.0
127.0,131.0,95.0,148.0,153.0,5.0,136.0,125.0,30.0,-103.0,-69.0,-128.0,127.0,127.0,114.0,87.0,-5.0
127.0,131.0,94.0,148.0,152.0,7.0,135.0,125.0,30.0,-103.0,-69.0,-128.0,127.0,127.0,114.0,87.0,-5.0
127.0,131.0,94.0,148.0,152.0,9.0,134.0,125.0,30.0,-103.0,-69.0,-128.0,127.0,127.0,114.0,87.0,-5.0
127.0,131.0,95.0,147.0,152.0,12.0,134.0,125.0,30.0,-103.0,-69.0,-128.0,127.0,127.0,114.0,87.0,-5.0
127.0,132.0,95.0,148.0,152.0,15.0,134.0,125.0,30.0,-103.0,-69.0,-128.0,127.0,127.0,114.0,87.0,-5.0
127.0,132.0,95.0,148.0,152.0,18.0,134.0,125.0,30.0,-103.0,-69.0,-128.0,127.0,127.0,114.0,87.0,-5.0
127.0,132.0,95.0,148.0,152.0,22.0,134.0,126.0,30.0,-103.0,-69.0,-128.0,127.0,127.0,114.0,87.0,-5.0
127.0,132.0,95.0,149.0,153.0,26.0,135.0,126.0,30.0,-103.0,-69.0,-128.0,127.0,127.0,114.0,87.0,-5.0
127.0,123.0,90.0,152.0,152.0,254.0,193.0,127.0,30.0,-105.0,-70.0,-127.0,127.0,127.0,114.0,87.0,-5.0
127.0,122.0,89.0,152.0,153.0,254.0,195.0,127.0,30.0,-105.0,-70.0,-127.0,127.0,127.0,114.0,87.0,-5.0
127.0,122.0,89.0,151.0,153.0,254.0,197.0,127.0,30.0,-105.0,-70.0,-127.0,127.0,127.0,114.0,87.0,-5.0
127.0,121.0,89.0,151.0,154.0,254.0,200.0,127.0,30.0,-105.0,-70.0,-127.0,127.0,127.0,114.0,87.0,-5.0
127.0,121.0,89.0,150.0,154.0,254.0,202.0,127.0,30.0,-105.0,-70.0,-127.0,127.0,127.0,114.0,87.0,-5.0
127.0,121.0,89.0,150.0,155.0,254.0,205.0,128.0,30.0,-105.0,-70.0,-127.0,127.0,127.0,114.0,87.0,-5.0
127.0,121.0,89.0,149.0,155.0,254.0,208.0,128.0,30.0,-105.0,-70.0,-127.0,127.0,127.0,114.0,87.0,-5.0
127.0,121.0,89.0,148.0,155.0,254.0,211.0,128.0,30.0,-105.0,-70.0,-127.0,127.0,127.0,114.0,87.0,-5.0
127.0,122.0,89.0,147.0,156.0,254.0,213.0,129.0,30.0,-105.0,-70.0,-127.0,127.0,127.0,114.0,87.0,-5.0
128.0,123.0,90.0,153.0,152.0,254.0,191.0,127.0,30.0,-105.0,-70.0,-127.0,127.0,127.0,114.0,87.0,-5.0
125.0,93.0,65.0,111.0,113.0,254.0,200.0,125.0,30.0,-109.0,-69.0,-125.0,-128.0,126.0,114.0,87.0,-5.0
124.0,92.0,64.0,110.0,111.0,254.0,196.0,125.0,30.0,-109.0,-69.0,-125.0,-128.0,126.0,114.0,87.0,-5.0
124.0,92.0,62.0,109.0,110.0,254.0,192.0,125.0,30.0,-109.0,-69.0,-125.0,-128.0,126.0,114.0,87.0,-5.0
124.0,92.0,61.0,109.0,108.0,254.0,188.0,125.0,30.0,-109.0,-69.0,-125.0,-128.0,126.0,114.0,87.0,-5.0
123.0,91.0,59.0,109.0,107.0,254.0,183.0,125.0,30.0,-109.0,-69.0,-125.0,-128.0,126.0,114.0,87.0,-5.0
123.0,90.0,58.0,108.0,106.0,254.0,179.0,125.0,30.0,-109.0,-69.0,-125.0,-128.0,126.0,114.0,87.0,-5.0
123.0,89.0,56.0,108.0,104.0,254.0,176.0,125.0,30.0,-109.0,-69.0,-125.0,-128.0,126.0,114.0,87.0,-5.0
123.0,89.0,54.0,107.0,103.0,254.0,172.0,125.0,30.0,-109.0,-69.0,-125.0,-128.0,126.0,114.0,87.0,-5.0
125.0,93.0,68.0,112.0,116.0,254.0,207.0,125.0,30.0,-109.0,-69.0,-125.0,-128.0,126.0,114.0,87.0,-5.0
125.0,93.0,67.0,111.0,114.0,254.0,203.0,125.0,30.0,-109.0,-69.0,-125.0,-128.0,126.0,114.0,87.0,-5.0
131.0,111.0,28.0,114.0,81.0,254.0,61.0,131.0,27.0,-115.0,-69.0,-124.0,127.0,126.0,114.0,87.0,-5.0
131.0,112.0,28.0,114.0,81.0,254.0,59.0,131.0,27.0,-115.0,-69.0,-124.0,127.0,126.0,114.0,87.0,-5.0
131.0,113.0,29.0,114.0,81.0,254.0,58.0,131.0,27.0,-115.0,-69.0,-124.0,127.0,126.0,114.0,87.0,-5.0
131.0,114.0,30.0,114.0,81.0,254.0,58.0,131.0,27.0,-115.0,-69.0,-124.0,127.0,126.0,114.0,87.0,-5.0
131.0,115.0,31.0,114.0,81.0,254.0,58.0,131.0,27.0,-115.0,-69.0,-124.0,127.0,126.0,114.0,87.0,-5.0
131.0,115.0,31.0,114.0,80.0,254.0,59.0,131.0,27.0,-115.0,-69.0,-124.0,127.0,126.0,114.0,87.0,-5.0
131.0,116.0,32.0,114.0,80.0,254.0,58.0,131.0,27.0,-115.0,-69.0,-124.0,127.0,126.0,114.0,87.0,-5.0
131.0,111.0,25.0,113.0,80.0,254.0,67.0,131.0,27.0,-115.0,-69.0,-124.0,127.0,126.0,114.0,87.0,-5.0
131.0,111.0,26.0,113.0,81.0,254.0,65.0,131.0,27.0,-115.0,-69.0,-124.0,127.0,126.0,114.0,87.0,-5.0
131.0,111.0,27.0,113.0,81.0,254.0,63.0,131.0,27.0,-115.0,-69.0,-124.0,127.0,126.0,114.0,87.0,-5.0
135.0,129.0,189.0,118.0,97.0,254.0,82.0,129.0,25.0,-113.0,-72.0,-122.0,127.0,126.0,114.0,87.0,-5.0
134.0,129.0,191.0,118.0,97.0,254.0,83.0,129.0,25.0,-113.0,-72.0,-122.0,127.0,126.0,114.0,87.0,-5.0
134.0,129.0,194.0,118.0,98.0,254.0,85.0,129.0,25.0,-113.0,-72.0,-122.0,127.0,126.0,114.0,87.0,-5.0
133.0,128.0,196.0,118.0,98.0,254.0,86.0,129.0,25.0,-113.0,-72.0,-122.0,127.0,126.0,114.0,87.0,-5.0
133.0,128.0,198.0,119.0,99.0,254.0,88.0,128.0,25.0,-113.0,-72.0,-122.0,127.0,126.0,114.0,87.0,-5.0
132.0,128.0,200.0,119.0,100.0,254.0,90.0,128.0,25.0,-113.0,-72.0,-122.0,127.0,126.0,114.0,87.0,-5.0
136.0,129.0,177.0,117.0,95.0,254.0,80.0,129.0,25.0,-113.0,-72.0,-122.0,127.0,126.0,114.0,87.0,-5.0
136.0,129.0,180.0,117.0,95.0,254.0,80.0,129.0,25.0,-113.0,-72.0,-122.0,127.0,126.0,114.0,87.0,-5.0
136.0,129.0,183.0,117.0,96.0,254.0,80.0,129.0,25.0,-113.0,-72.0,-122.0,127.0,126.0,114.0,87.0,-5.0
135.0,129.0,185.0,117.0,96.0,254.0,81.0,129.0,25.0,-113.0,-72.0,-122.0,127.0,126.0,114.0,87.0,-5.0
111.0,123.0,230.0,137.0,119.0,254.0,117.0,128.0,25.0,-103.0,-73.0,-124.0,127.0,126.0,114.0,87.0,-5.0
111.0,123.0,230.0,138.0,120.0,254.0,118.0,128.0,25.0,-103.0,-73.0,-124.0,127.0,126.0,114.0,87.0,-5.0
111.0,123.0,229.0,138.0,120.0,254.0,118.0,129.0,25.0,-103.0,-73.0,-124.0,127.0,126.0,114.0,87.0,-5.0
111.0,124.0,229.0,138.0,120.0,254.0,118.0,129.0,25.0,-103.0,-73.0,-124.0,127.0,126.0,114.0,87.0,-5.0
111.0,124.0,228.0,139.0,120.0,254.0,118.0,129.0,25.0,-103.0,-73.0,-124.0,127.0,126.0,114.0,87.0,-5.0
113.0,124.0,232.0,136.0,118.0,254.0,112.0,128.0,25.0,-103.0,-73.0,-124.0,127.0,126.0,114.0,87.0,-5.0
112.0,124.0,232.0,136.0,118.0,254.0,113.0,128.0,25.0,-103.0,-73.0,-124.0,127.0,126.0,114.0,87.0,-5.0
112.0,123.0,232.0,136.0,118.0,254.0,114.0,128.0,25.0,-103.0,-73.0,-124.0,127.0,126.0,114.0,87.0,-5.0
112.0,123.0,231.0,136.0,119.0,254.0,115.0,128.0,25.0,-103.0,-73.0,-124.0,127.0,126.0,114.0,87.0,-5.0
112.0,123.0,231.0,137.0,119.0,254.0,116.0,128.0,25.0,-103.0,-73.0,-124.0,127.0,126.0,114.0,87.0,-5.0
135.0,130.0,182.0,125.0,119.0,254.0,102.0,130.0,27.0,-96.0,-74.0,-126.0,127.0,126.0,113.0,87.0,-5.0
136.0,131.0,181.0,124.0,119.0,254.0,103.0,130.0,27.0,-96.0,-74.0,-126.0,127.0,126.0,113.0,87.0,-5.0
137.0,133.0,180.0,124.0,119.0,254.0,103.0,131.0,27.0,-96.0,-74.0,-126.0,127.0,126.0,113.0,87.0,-5.0
137.0,135.0,179.0,123.0,118.0,254.0,104.0,131.0,27.0,-96.0,-74.0,-126.0,127.0,126.0,113.0,87.0,-5.0
129.0,122.0,187.0,125.0,117.0,254.0,104.0,130.0,27.0,-96.0,-74.0,-126.0,127.0,126.0,113.0,87.0,-5.0
130.0,122.0,187.0,125.0,117.0,254.0,104.0,130.0,27.0,-96.0,-74.0,-126.0,127.0,126.0,113.0,87.0,-5.0
131.0,123.0,186.0,125.0,118.0,254.0,104.0,130.0,27.0,-96.0,-74.0,-126.0,127.0,126.0,113.0,87.0,-5.0
132.0,124.0,185.0,125.0,118.0,254.0,103.0,130.0,27.0,-96.0,-74.0,-126.0,127.0,126.0,113.0,87.0,-5.0
133.0,126.0,184.0,125.0,118.0,254.0,103.0,130.0,27.0,-96.0,-74.0,-126.0,127.0,126.0,113.0,87.0,-5.0
134.0,128.0,183.0,125.0,118.0,254.0,102.0,130.0,27.0,-96.0,-74.0,-126.0,127.0,126.0,113.0,87.0,-5.0
144.0,134.0,149.0,109.0,121.0,254.0,118.0,130.0,28.0,-95.0,-74.0,-127.0,127.0,126.0,113.0,87.0,-5.0
144.0,134.0,149.0,109.0,121.0,254.0,118.0,130.0,28.0,-95.0,-74.0,-127.0,127.0,126.0,113.0,87.0,-5.0
144.0,134.0,149.0,109.0,121.0,254.0,118.0,130.0,28.0,-95.0,-74.0,-127.0,127.0,126.0,113.0,87.0,-5.0
144.0,128.0,151.0,110.0,121.0,254.0,119.0,129.0,28.0,-95.0,-74.0,-127.0,127.0,126.0,113.0,87.0,-5.0
144.0,128.0,151.0,110.0,121.0,254.0,119.0,129.0,28.0,-95.0,-74.0,-127.0,127.0,126.0,113.0,87.0,-5.0
144.0,128.0,151.0,110.0,121.0,254.0,119.0,129.0,28.0,-95.0,-74.0,-127.0,127.0,126.0,113.0,87.0,-5.0
144.0,128.0,150.0,110.0,121.0,254.0,119.0,129.0,28.0,-95.0,-74.0,-127.0,127.0,126.0,113.0,87.0,-5.0
144.0,129.0,150.0,109.0,121.0,254.0,119.0,129.0,28.0,-95.0,-74.0,-127.0,127.0,126.0,113.0,87.0,-5.0
144.0,130.0,150.0,109.0,121.0,254.0,119.0,129.0,28.0,-95.0,-74.0,-127.0,127.0,126.0,113.0,87.0,-5.0
144.0,132.0,149.0,109.0,121.0,254.0,118.0,129.0,28.0,-95.0,-74.0,-127.0,127.0,126.0,113.0,87.0,-5.0
143.0,129.0,135.0,109.0,123.0,254.0,113.0,129.0,27.0,-98.0,-74.0,-127.0,127.0,126.0,112.0,87.0,-5.0
142.0,129.0,135.0,109.0,123.0,254.0,112.0,129.0,27.0,-98.0,-74.0,-127.0,127.0,126.0,112.0,87.0,-5.0
143.0,128.0,136.0,110.0,125.0,254.0,130.0,131.0,27.0,-98.0,-74.0,-127.0,127.0,126.0,112.0,87.0,-5.0
143.0,128.0,136.0,110.0,125.0,254.0,128.0,131.0,27.0,-98.0,-74.0,-127.0,127.0,126.0,112.0,87.0,-5.0
143.0,129.0,136.0,110.0,124.0,254.0,126.0,130.0,27.0,-98.0,-74.0,-127.0,127.0,126.0,112.0,87.0,-5.0
143.0,129.0,136.0,110.0,124.0,254.0,123.0,130.0,27.0,-98.0,-74.0,-127.0,127.0,126.0,112.0,87.0,-5.0
143.0,129.0,136.0,109.0,124.0,254.0,120.0,130.0,27.0,-98.0,-74.0,-127.0,127.0,126.0,112.0,87.0,-5.0
143.0,129.0,136.0,109.0,124.0,254.0,118.0,130.0,27.0,-98.0,-74.0,-127.0,127.0,126.0,112.0,87.0,-5.0
143.0,129.0,136.0,109.0,124.0,254.0,116.0,130.0,27.0,-98.0,-74.0,-127.0,127.0,126.0,112.0,87.0,-5.0
143.0,129.0,135.0,109.0,123.0,254.0,115.0,130.0,27.0,-98.0,-74.0,-127.0,127.0,126.0,112.0,87.0,-5.0
141.0,126.0,132.0,116.0,127.0,254.0,124.0,128.0,28.0,-99.0,-74.0,-127.0,127.0,126.0,112.0,87.0,-5.0
141.0,125.0,134.0,116.0,128.0,254.0,126.0,129.0,28.0,-99.0,-74.0,-127.0,127.0,126.0,112.0,87.0,-5.0
141.0,125.0,134.0,116.0,128.0,254.0,127.0,130.0,28.0,-99.0,-74.0,-127.0,127.0,126.0,112.0,87.0,-5.0
142.0,125.0,134.0,116.0,128.0,254.0,128.0,130.0,28.0,-99.0,-74.0,-127.0,127.0,126.0,112.0,87.0,-5.0
141.0,125.0,133.0,116.0,128.0,254.0,129.0,130.0,28.0,-99.0,-74.0,-127.0,127.0,126.0,112.0,87.0,-5.0
141.0,125.0,133.0,116.0,128.0,254.0,129.0,130.0,28.0,-99.0,-74.0,-127.0,127.0,126.0,112.0,87.0,-5.0
141.0,126.0,132.0,116.0,128.0,254.0,128.0,129.0,28.0,-99.0,-74.0,-127.0,127.0,126.0,112.0,87.0,-5.0
141.0,126.0,132.0,116.0,127.0,254.0,127.0,129.0,28.0,-99.0,-74.0,-127.0,127.0,126.0,112.0,87.0,-5.0
141.0,126.0,132.0,116.0,127.0,254.0,126.0,128.0,28.0,-99.0,-74.0,-127.0,127.0,126.0,112.0,87.0,-5.0
141.0,126.0,132.0,116.0,127.0,254.0,125.0,128.0,28.0,-99.0,-74.0,-127.0,127.0,126.0,112.0,87.0,-5.0
138.0,130.0,128.0,115.0,127.0,254.0,125.0,127.0,29.0,-99.0,-74.0,-127.0,127.0,126.0,112.0,87.0,-5.0
138.0,130.0,129.0,115.0,127.0,254.0,125.0,127.0,29.0,-99.0,-74.0,-127.0,127.0,126.0,112.0,87.0,-5.0
138.0,128.0,130.0,116.0,127.0,254.0,124.0,127.0,29.0,-99.0,-74.0,-127.0,127.0,126.0,112.0,87.0,-5.0
138.0,126.0,130.0,116.0,128.0,254.0,124.0,127.0,29.0,-99.0,-74.0,-127.0,127.0,126.0,112.0,87.0,-5.0
138.0,124.0,131.0,117.0,128.0,254.0,124.0,127.0,29.0,-99.0,-74.0,-127.0,127.0,126.0,112.0,87.0,-5.0
138.0,123.0,131.0,117.0,128.0,254.0,124.0,127.0,29.0,-99.0,-74.0,-127.0,127.0,126.0,112.0,87.0,-5.0
138.0,123.0,130.0,117.0,128.0,254.0,124.0,127.0,29.0,-99.0,-74.0,-127.0,127.0,126.0,112.0,87.0,-5.0
138.0,123.0,131.0,118.0,128.0,254.0,125.0,128.0,29.0,-99.0,-74.0,-127.0,127.0,126.0,112.0,87.0,-5.0
138.0,123.0,130.0,118.0,128.0,254.0,126.0,128.0,29.0,-99.0,-74.0,-127.0,127.0,126.0,112.0,87.0,-5.0
138.0,124.0,130.0,118.0,128.0,254.0,127.0,129.0,29.0,-99.0,-74.0,-127.0,127.0,126.0,112.0,87.0,-5.0
136.0,131.0,128.0,117.0,125.0,254.0,119.0,128.0,29.0,-97.0,-75.0,-128.0,127.0,127.0,111.0,87.0,-5.0
136.0,133.0,128.0,117.0,126.0,254.0,120.0,129.0,29.0,-97.0,-75.0,-128.0,127.0,127.0,111.0,87.0,-5.0
136.0,136.0,129.0,118.0,126.0,254.0,120.0,129.0,29.0,-97.0,-75.0,-128.0,127.0,127.0,111.0,87.0,-5.0
136.0,137.0,129.0,118.0,126.0,254.0,120.0,129.0,29.0,-97.0,-75.0,-128.0,127.0,127.0,111.0,87.0,-5.0
137.0,137.0,129.0,118.0,126.0,254.0,120.0,129.0,29.0,-97.0,-75.0,-128.0,127.0,127.0,111.0,87.0,-5.0
137.0,136.0,129.0,118.0,126.0,254.0,120.0,129.0,29.0,-97.0,-75.0,-128.0,127.0,127.0,111.0,87.0,-5.0
136.0,133.0,128.0,118.0,126.0,254.0,119.0,129.0,29.0,-97.0,-75.0,-128.0,127.0,127.0,111.0,87.0,-5.0
136.0,130.0,128.0,118.0,126.0,254.0,120.0,129.0,29.0,-97.0,-75.0,-128.0,127.0,127.0,111.0,87.0,-5.0
136.0,128.0,128.0,118.0,126.0,254.0,120.0,129.0,29.0,-97.0,-75.0,-128.0,127.0,127.0,111.0,87.0,-5.0
136.0,128.0,128.0,117.0,125.0,254.0,119.0,128.0,29.0,-97.0,-75.0,-128.0,127.0,127.0,111.0,87.0,-5.0
135.0,125.0,130.0,120.0,127.0,254.0,123.0,129.0,28.0,-96.0,-76.0,-128.0,127.0,127.0,111.0,87.0,-5.0
135.0,125.0,130.0,120.0,127.0,254.0,124.0,129.0,28.0,-96.0,-76.0,-128.0,127.0,127.0,111.0,87.0,-5.0
135.0,125.0,130.0,120.0,127.0,254.0,124.0,130.0,28.0,-96.0,-76.0,-128.0,127.0,127.0,111.0,87.0,-5.0
135.0,126.0,130.0,119.0,127.0,254.0,125.0,130.0,28.0,-96.0,-76.0,-128.0,127.0,127.0,111.0,87.0,-5.0
135.0,126.0,129.0,120.0,127.0,254.0,125.0,130.0,28.0,-96.0,-76.0,-128.0,127.0,127.0,111.0,87.0,-5.0
135.0,126.0,129.0,120.0,127.0,254.0,125.0,130.0,28.0,-96.0,-76.0,-128.0,127.0,127.0,111.0,87.0,-5.0
135.0,126.0,128.0,120.0,127.0,254.0,125.0,130.0,28.0,-96.0,-76.0,-128.0,127.0,127.0,111.0,87.0,-5.0
134.0,127.0,128.0,120.0,127.0,254.0,125.0,130.0,28.0,-96.0,-76.0,-128.0,127.0,127.0,111.0,87.0,-5.0
135.0,125.0,129.0,120.0,127.0,254.0,123.0,128.0,28.0,-96.0,-76.0,-128.0,127.0,127.0,111.0,87.0,-5.0
135.0,125.0,129.0,120.0,127.0,254.0,123.0,129.0,28.0,-96.0,-76.0,-128.0,127.0,127.0,111.0,87.0,-5.0
134.0,127.0,126.0,120.0,127.0,254.0,134.0,129.0,26.0,-97.0,-77.0,-128.0,127.0,127.0,110.0,87.0,-5.0
134.0,127.0,126.0,120.0,127.0,254.0,133.0,129.0,26.0,-97.0,-77.0,-128.0,127.0,127.0,110.0,87.0,-5.0
134.0,127.0,127.0,120.0,127.0,254.0,131.0,129.0,26.0,-97.0,-77.0,-128.0,127.0,127.0,110.0,87.0,-5.0
134.0,128.0,126.0,120.0,127.0,254.0,129.0,129.0,26.0,-97.0,-77.0,-128.0,127.0,127.0,110.0,87.0,-5.0
134.0,128.0,126.0,121.0,128.0,254.0,128.0,129.0,26.0,-97.0,-77.0,-128.0,127.0,127.0,110.0,87.0,-5.0
134.0,127.0,126.0,121.0,128.0,254.0,127.0,130.0,26.0,-97.0,-77.0,-128.0,127.0,127.0,110.0,87.0,-5.0
134.0,127.0,126.0,121.0,128.0,254.0,126.0,130.0,26.0,-97.0,-77.0,-128.0,127.0,127.0,110.0,87.0,-5.0
134.0,127.0,126.0,120.0,127.0,254.0,137.0,129.0,26.0,-97.0,-77.0,-128.0,127.0,127.0,110.0,87.0,-5.0
134.0,127.0,126.0,120.0,127.0,254.0,136.0,129.0,26.0,-97.0,-77.0,-128.0,127.0,127.0,110.0,87.0,-5.0
134.0,127.0,126.0,120.0,127.0,254.0,136.0,129.0,26.0,-97.0,-77.0,-128.0,127.0,127.0,110.0,87.0,-5.0
134.0,128.0,127.0,122.0,128.0,220.0,128.0,129.0,25.0,-97.0,-78.0,-128.0,127.0,127.0,110.0,87.0,-5.0
134.0,129.0,127.0,122.0,128.0,218.0,127.0,129.0,25.0,-97.0,-78.0,-128.0,127.0,127.0,110.0,87.0,-5.0
134.0,131.0,127.0,122.0,128.0,217.0,127.0,128.0,25.0,-97.0,-78.0,-128.0,127.0,127.0,110.0,87.0,-5.0
134.0,132.0,127.0,121.0,128.0,216.0,126.0,128.0,25.0,-97.0,-78.0,-128.0,127.0,127.0,110.0,87.0,-5.0
134.0,132.0,127.0,121.0,128.0,215.0,126.0,129.0,25.0,-97.0,-78.0,-128.0,127.0,127.0,110.0,87.0,-5.0
134.0,132.0,127.0,121.0,128.0,213.0,126.0,128.0,25.0,-97.0,-78.0,-128.0,127.0,127.0,110.0,87.0,-5.0
134.0,125.0,127.0,122.0,128.0,225.0,128.0,129.0,25.0,-97.0,-78.0,-128.0,127.0,127.0,110.0,87.0,-5.0
134.0,125.0,127.0,122.0,128.0,224.0,128.0,129.0,25.0,-97.0,-78.0,-128.0,127.0,127.0,110.0,87.0,-5.0
134.0,125.0,127.0,122.0,128.0,222.0,128.0,129.0,25.0,-97.0,-78.0,-128.0,127.0,127.0,110.0,87.0,-5.0
134.0,126.0,127.0,122.0,128.0,221.0,128.0,129.0,25.0,-97.0,-78.0,-128.0,127.0,127.0,110.0,87.0,-5.0
133.0,124.0,128.0,121.0,127.0,174.0,115.0,127.0,25.0,-97.0,-79.0,-128.0,127.0,127.0,109.0,87.0,-5.0
133.0,125.0,128.0,121.0,127.0,174.0,114.0,127.0,25.0,-97.0,-79.0,-128.0,127.0,127.0,109.0,87.0,-5.0
133.0,126.0,128.0,121.0,127.0,173.0,114.0,127.0,25.0,-97.0,-79.0,-128.0,127.0,127.0,109.0,87.0,-5.0
133.0,127.0,128.0,121.0,127.0,173.0,114.0,128.0,25.0,-97.0,-79.0,-128.0,127.0,127.0,109.0,87.0,-5.0
133.0,125.0,126.0,121.0,126.0,177.0,115.0,127.0,25.0,-97.0,-79.0,-128.0,127.0,127.0,109.0,87.0,-5.0
133.0,125.0,126.0,121.0,127.0,177.0,116.0,127.0,25.0,-97.0,-79.0,-128.0,127.0,127.0,109.0,87.0,-5.0
133.0,125.0,127.0,121.0,127.0,176.0,116.0,127.0,25.0,-97.0,-79.0,-128.0,127.0,127.0,109.0,87.0,-5.0
133.0,125.0,128.0,121.0,127.0,176.0,116.0,127.0,25.0,-97.0,-79.0,-128.0,127.0,127.0,109.0,87.0,-5.0
133.0,124.0,128.0,121.0,127.0,175.0,116.0,127.0,25.0,-97.0,-79.0,-128.0,127.0,127.0,109.0,87.0,-5.0
133.0,124.0,128.0,121.0,127.0,175.0,115.0,127.0,25.0,-97.0,-79.0,-128.0,127.0,127.0,109.0,87.0,-5.0
133.0,121.0,128.0,126.0,131.0,160.0,130.0,129.0,24.0,-97.0,-79.0,127.0,127.0,127.0,108.0,87.0,-5.0
133.0,121.0,128.0,126.0,131.0,160.0,132.0,129.0,24.0,-97.0,-79.0,127.0,127.0,127.0,108.0,87.0,-5.0
133.0,121.0,128.0,126.0,131.0,160.0,134.0,129.0,24.0,-97.0,-79.0,127.0,127.0,127.0,108.0,87.0,-5.0
133.0,124.0,127.0,124.0,130.0,161.0,128.0,128.0,24.0,-97.0,-79.0,127.0,127.0,127.0,108.0,87.0,-5.0
133.0,124.0,127.0,124.0,130.0,161.0,127.0,128.0,24.0,-97.0,-79.0,127.0,127.0,127.0,108.0,87.0,-5.0
133.0,123.0,127.0,125.0,130.0,160.0,126.0,128.0,24.0,-97.0,-79.0,127.0,127.0,127.0,108.0,87.0,-5.0
133.0,122.0,127.0,125.0,131.0,160.0,127.0,128.0,24.0,-97.0,-79.0,127.0,127.0,127.0,108.0,87.0,-5.0
133.0,121.0,128.0,126.0,131.0,160.0,127.0,128.0,24.0,-97.0,-79.0,127.0,127.0,127.0,108.0,87.0,-5.0
133.0,121.0,128.0,126.0,131.0,160.0,128.0,128.0,24.0,-97.0,-79.0,127.0,127.0,127.0,108.0,87.0,-5.0
133.0,121.0,128.0,126.0,131.0,160.0,129.0,129.0,24.0,-97.0,-79.0,127.0,127.0,127.0,108.0,87.0,-5.0
132.0,122.0,126.0,122.0,128.0,156.0,119.0,128.0,23.0,-96.0,-79.0,127.0,127.0,127.0,108.0,87.0,-5.0
132.0,123.0,126.0,122.0,128.0,156.0,120.0,129.0,23.0,-96.0,-79.0,127.0,127.0,127.0,108.0,87.0,-5.0
132.0,122.0,128.0,122.0,128.0,156.0,121.0,127.0,23.0,-96.0,-79.0,127.0,127.0,127.0,108.0,87.0,-5.0
132.0,122.0,128.0,122.0,128.0,156.0,121.0,127.0,23.0,-96.0,-79.0,127.0,127.0,127.0,108.0,87.0,-5.0
132.0,122.0,128.0,122.0,128.0,156.0,120.0,127.0,23.0,-96.0,-79.0,127.0,127.0,127.0,108.0,87.0,-5.0
132.0,122.0,128.0,122.0,128.0,156.0,120.0,128.0,23.0,-96.0,-79.0,127.0,127.0,127.0,108.0,87.0,-5.0
133.0,122.0,127.0,122.0,128.0,156.0,119.0,128.0,23.0,-96.0,-79.0,127.0,127.0,127.0,108.0,87.0,-5.0
132.0,122.0,127.0,122.0,128.0,156.0,119.0,128.0,23.0,-96.0,-79.0,127.0,127.0,127.0,108.0,87.0,-5.0
133.0,122.0,127.0,122.0,128.0,156.0,119.0,128.0,23.0,-96.0,-79.0,127.0,127.0,127.0,108.0,87.0,-5.0
133.0,122.0,127.0,122.0,128.0,156.0,119.0,128.0,23.0,-96.0,-79.0,127.0,127.0,127.0,108.0,87.0,-5.0
132.0,123.0,125.0,123.0,128.0,155.0,132.0,130.0,22.0,-97.0,-79.0,127.0,127.0,127.0,108.0,87.0,-5.0
132.0,130.0,124.0,122.0,128.0,155.0,127.0,129.0,22.0,-97.0,-79.0,127.0,127.0,127.0,108.0,87.0,-5.0
132.0,128.0,123.0,122.0,128.0,155.0,127.0,129.0,22.0,-97.0,-79.0,127.0,127.0,127.0,108.0,87.0,-5.0
132.0,126.0,123.0,122.0,128.0,155.0,127.0,129.0,22.0,-97.0,-79.0,127.0,127.0,127.0,108.0,87.0,-5.0
132.0,125.0,123.0,122.0,128.0,155.0,127.0,129.0,22.0,-97.0,-79.0,127.0,127.0,127.0,108.0,87.0,-5.0
132.0,124.0,123.0,122.0,128.0,155.0,128.0,129.0,22.0,-97.0,-79.0,127.0,127.0,127.0,108.0,87.0,-5.0
131.0,124.0,123.0,122.0,128.0,155.0,129.0,129.0,22.0,-97.0,-79.0,127.0,127.0,127.0,108.0,87.0,-5.0
131.0,123.0,124.0,122.0,128.0,155.0,129.0,129.0,22.0,-97.0,-79.0,127.0,127.0,127.0,108.0,87.0,-5.0
132.0,123.0,124.0,122.0,128.0,155.0,130.0,129.0,22.0,-97.0,-79.0,127.0,127.0,127.0,108.0,87.0,-5.0
131.0,123.0,124.0,123.0,128.0,155.0,131.0,130.0,22.0,-97.0,-79.0,127.0,127.0,127.0,108.0,87.0,-5.0
132.0,123.0,128.0,124.0,128.0,154.0,129.0,129.0,22.0,-97.0,-79.0,127.0,127.0,127.0,108.0,87.0,-5.0
132.0,123.0,127.0,124.0,128.0,154.0,128.0,129.0,22.0,-97.0,-79.0,127.0,127.0,127.0,108.0,87.0,-5.0
132.0,122.0,126.0,124.0,128.0,154.0,127.0,129.0,22.0,-97.0,-79.0,127.0,127.0,127.0,108.0,87.0,-5.0
132.0,122.0,125.0,124.0,128.0,154.0,127.0,128.0,22.0,-97.0,-79.0,127.0,127.0,127.0,108.0,87.0,-5.0
132.0,122.0,124.0,124.0,128.0,154.0,128.0,128.0,22.0,-97.0,-79.0,127.0,127.0,127.0,108.0,87.0,-5.0
132.0,122.0,123.0,124.0,128.0,154.0,128.0,128.0,22.0,-97.0,-79.0,127.0,127.0,127.0,108.0,87.0,-5.0
132.0,122.0,123.0,124.0,128.0,154.0,129.0,128.0,22.0,-97.0,-79.0,127.0,127.0,127.0,108.0,87.0,-5.0
132.0,122.0,122.0,124.0,128.0,154.0,131.0,128.0,22.0,-97.0,-79.0,127.0,127.0,127.0,108.0,87.0,-5.0
132.0,122.0,122.0,123.0,128.0,154.0,132.0,128.0,22.0,-97.0,-79.0,127.0,127.0,127.0,108.0,87.0,-5.0
132.0,122.0,122.0,123.0,128.0,154.0,132.0,129.0,22.0,-97.0,-79.0,127.0,127.0,127.0,108.0,87.0,-5.0
131.0,125.0,122.0,121.0,126.0,154.0,126.0,129.0,22.0,-97.0,-79.0,127.0,127.0,127.0,108.0,87.0,-5.0
132.0,126.0,122.0,121.0,126.0,154.0,126.0,129.0,22.0,-97.0,-79.0,127.0,127.0,127.0,108.0,87.0,-5.0
132.0,127.0,123.0,121.0,126.0,154.0,125.0,129.0,22.0,-97.0,-79.0,127.0,127.0,127.0,108.0,87.0,-5.0
132.0,129.0,123.0,121.0,126.0,154.0,124.0,129.0,22.0,-97.0,-79.0,127.0,127.0,127.0,108.0,87.0,-5.0
132.0,130.0,123.0,121.0,126.0,154.0,123.0,129.0,22.0,-97.0,-79.0,127.0,127.0,127.0,108.0,87.0,-5.0
132.0,131.0,124.0,121.0,126.0,154.0,123.0,129.0,22.0,-97.0,-79.0,127.0,127.0,127.0,108.0,87.0,-5.0
132.0,131.0,124.0,122.0,126.0,154.0,123.0,128.0,22.0,-97.0,-79.0,127.0,127.0,127.0,108.0,87.0,-5.0
132.0,131.0,125.0,122.0,126.0,154.0,123.0,128.0,22.0,-97.0,-79.0,127.0,127.0,127.0,108.0,87.0,-5.0
132.0,131.0,126.0,122.0,126.0,154.0,124.0,128.0,22.0,-97.0,-79.0,127.0,127.0,127.0,108.0,87.0,-5.0
131.0,125.0,123.0,121.0,126.0,154.0,127.0,129.0,22.0,-97.0,-79.0,127.0,127.0,127.0,108.0,87.0,-5.0
131.0,123.0,125.0,123.0,125.0,153.0,118.0,129.0,23.0,-97.0,-79.0,127.0,127.0,127.0,107.0,87.0,-5.0
131.0,123.0,125.0,123.0,125.0,153.0,118.0,128.0,23.0,-97.0,-79.0,127.0,127.0,127.0,107.0,87.0,-5.0
131.0,123.0,125.0,123.0,125.0,153.0,119.0,128.0,23.0,-97.0,-79.0,127.0,127.0,127.0,107.0,87.0,-5.0
131.0,124.0,126.0,123.0,125.0,153.0,119.0,128.0,23.0,-97.0,-79.0,127.0,127.0,127.0,107.0,87.0,-5.0
131.0,124.0,126.0,123.0,126.0,153.0,120.0,128.0,23.0,-97.0,-79.0,127.0,127.0,127.0,107.0,87.0,-5.0
131.0,124.0,127.0,123.0,126.0,153.0,121.0,128.0,23.0,-97.0,-79.0,127.0,127.0,127.0,107.0,87.0,-5.0
131.0,124.0,127.0,123.0,126.0,153.0,122.0,128.0,23.0,-97.0,-79.0,127.0,127.0,127.0,107.0,87.0,-5.0
131.0,124.0,127.0,123.0,126.0,153.0,123.0,128.0,23.0,-97.0,-79.0,127.0,127.0,127.0,107.0,87.0,-5.0
131.0,123.0,125.0,122.0,126.0,153.0,118.0,129.0,23.0,-97.0,-79.0,127.0,127.0,127.0,107.0,87.0,-5.0
131.0,123.0,125.0,123.0,125.0,153.0,118.0,129.0,23.0,-97.0,-79.0,127.0,127.0,127.0,107.0,87.0,-5.0
131.0,125.0,126.0,124.0,127.0,153.0,124.0,128.0,23.0,-97.0,-79.0,127.0,127.0,127.0,107.0,87.0,-5.0
131.0,124.0,126.0,124.0,127.0,153.0,124.0,128.0,23.0,-97.0,-79.0,127.0,127.0,127.0,107.0,87.0,-5.0
131.0,124.0,126.0,123.0,127.0,153.0,123.0,128.0,23.0,-97.0,-79.0,127.0,127.0,127.0,107.0,87.0,-5.0
131.0,125.0,126.0,123.0,127.0,153.0,123.0,128.0,23.0,-97.0,-79.0,127.0,127.0,127.0,107.0,87.0,-5.0
131.0,125.0,127.0,123.0,127.0,153.0,123.0,128.0,23.0,-97.0,-79.0,127.0,127.0,127.0,107.0,87.0,-5.0
131.0,127.0,127.0,123.0,127.0,153.0,123.0,128.0,23.0,-97.0,-79.0,127.0,127.0,127.0,107.0,87.0,-5.0
131.0,130.0,127.0,123.0,127.0,153.0,123.0,128.0,23.0,-97.0,-79.0,127.0,127.0,127.0,107.0,87.0,-5.0
131.0,125.0,126.0,124.0,128.0,153.0,124.0,128.0,23.0,-97.0,-79.0,127.0,127.0,127.0,107.0,87.0,-5.0
131.0,125.0,126.0,124.0,128.0,153.0,124.0,128.0,23.0,-97.0,-79.0,127.0,127.0,127.0,107.0,87.0,-5.0
131.0,125.0,126.0,124.0,128.0,153.0,124.0,128.0,23.0,-97.0,-79.0,127.0,127.0,127.0,107.0,87.0,-5.0
130.0,124.0,127.0,123.0,125.0,154.0,125.0,129.0,23.0,-98.0,-80.0,127.0,127.0,127.0,107.0,87.0,-5.0
130.0,124.0,127.0,123.0,125.0,153.0,126.0,128.0,23.0,-98.0,-80.0,127.0,127.0,127.0,107.0,87.0,-5.0
130.0,124.0,127.0,123.0,125.0,154.0,128.0,128.0,23.0,-98.0,-80.0,127.0,127.0,127.0,107.0,87.0,-5.0
130.0,124.0,127.0,123.0,125.0,154.0,129.0,128.0,23.0,-98.0,-80.0,127.0,127.0,127.0,107.0,87.0,-5.0
130.0,123.0,127.0,123.0,126.0,154.0,130.0,129.0,23.0,-98.0,-80.0,127.0,127.0,127.0,107.0,87.0,-5.0
130.0,123.0,127.0,123.0,126.0,154.0,130.0,129.0,23.0,-98.0,-80.0,127.0,127.0,127.0,107.0,87.0,-5.0
130.0,127.0,127.0,123.0,125.0,154.0,125.0,129.0,23.0,-98.0,-80.0,127.0,127.0,127.0,107.0,87.0,-5.0
130.0,126.0,127.0,123.0,125.0,154.0,125.0,129.0,23.0,-98.0,-80.0,127.0,127.0,127.0,107.0,87.0,-5.0
130.0,125.0,127.0,123.0,125.0,154.0,125.0,129.0,23.0,-98.0,-80.0,127.0,127.0,127.0,107.0,87.0,-5.0
130.0,125.0,127.0,123.0,125.0,153.0,125.0,129.0,23.0,-98.0,-80.0,127.0,127.0,127.0,107.0,87.0,-5.0
131.0,123.0,128.0,125.0,127.0,154.0,125.0,125.0,23.0,-98.0,-80.0,127.0,127.0,127.0,107.0,87.0,-5.0
131.0,123.0,128.0,125.0,127.0,154.0,125.0,127.0,23.0,-98.0,-80.0,127.0,127.0,127.0,107.0,87.0,-5.0
131.0,123.0,127.0,125.0,127.0,154.0,126.0,129.0,23.0,-98.0,-80.0,127.0,127.0,127.0,107.0,87.0,-5.0
131.0,124.0,127.0,125.0,127.0,154.0,126.0,130.0,23.0,-98.0,-80.0,127.0,127.0,127.0,107.0,87.0,-5.0
131.0,124.0,127.0,125.0,127.0,154.0,126.0,131.0,23.0,-98.0,-80.0,127.0,127.0,127.0,107.0,87.0,-5.0
131.0,131.0,129.0,126.0,128.0,154.0,125.0,122.0,23.0,-98.0,-80.0,127.0,127.0,127.0,107.0,87.0,-5.0
131.0,130.0,128.0,126.0,128.0,154.0,125.0,122.0,23.0,-98.0,-80.0,127.0,127.0,127.0,107.0,87.0,-5.0
131.0,128.0,128.0,126.0,128.0,154.0,125.0,122.0,23.0,-98.0,-80.0,127.0,127.0,127.0,107.0,87.0,-5.0
131.0,125.0,128.0,126.0,128.0,154.0,125.0,122.0,23.0,-98.0,-80.0,127.0,127.0,127.0,107.0,87.0,-5.0
131.0,124.0,128.0,126.0,127.0,154.0,125.0,124.0,23.0,-98.0,-80.0,127.0,127.0,127.0,107.0,87.0,-5.0
131.0,129.0,128.0,124.0,125.0,154.0,126.0,127.0,23.0,-98.0,-80.0,127.0,127.0,127.0,106.0,87.0,-5.0
131.0,131.0,128.0,124.0,125.0,154.0,127.0,127.0,23.0,-98.0,-80.0,127.0,127.0,127.0,106.0,87.0,-5.0
130.0,131.0,128.0,124.0,125.0,154.0,128.0,128.0,23.0,-98.0,-80.0,127.0,127.0,127.0,106.0,87.0,-5.0
130.0,130.0,128.0,124.0,125.0,154.0,129.0,128.0,23.0,-98.0,-80.0,127.0,127.0,127.0,106.0,87.0,-5.0
131.0,129.0,127.0,124.0,125.0,154.0,120.0,130.0,23.0,-98.0,-80.0,127.0,127.0,127.0,106.0,87.0,-5.0
131.0,128.0,127.0,124.0,125.0,154.0,121.0,129.0,23.0,-98.0,-80.0,127.0,127.0,127.0,106.0,87.0,-5.0
130.0,127.0,128.0,124.0,125.0,154.0,122.0,129.0,23.0,-98.0,-80.0,127.0,127.0,127.0,106.0,87.0,-5.0
130.0,126.0,128.0,124.0,125.0,154.0,123.0,128.0,23.0,-98.0,-80.0,127.0,127.0,127.0,106.0,87.0,-5.0
130.0,127.0,128.0,124.0,125.0,154.0,124.0,127.0,23.0,-98.0,-80.0,127.0,127.0,127.0,106.0,87.0,-5.0
130.0,128.0,128.0,124.0,125.0,154.0,125.0,127.0,23.0,-98.0,-80.0,127.0,127.0,127.0,106.0,87.0,-5.0
129.0,120.0,124.0,124.0,125.0,154.0,120.0,128.0,23.0,-97.0,-80.0,127.0,127.0,127.0,106.0,87.0,-5.0
129.0,119.0,124.0,124.0,125.0,154.0,120.0,129.0,23.0,-97.0,-80.0,127.0,127.0,127.0,106.0,87.0,-5.0
130.0,119.0,123.0,124.0,125.0,154.0,121.0,129.0,23.0,-97.0,-80.0,127.0,127.0,127.0,106.0,87.0,-5.0
130.0,144.0,127.0,124.0,125.0,154.0,118.0,128.0,23.0,-97.0,-80.0,127.0,127.0,127.0,106.0,87.0,-5.0
130.0,143.0,127.0,124.0,125.0,154.0,118.0,128.0,23.0,-97.0,-80.0,127.0,127.0,127.0,106.0,87.0,-5.0
130.0,140.0,127.0,124.0,125.0,154.0,118.0,128.0,23.0,-97.0,-80.0,127.0,127.0,127.0,106.0,87.0,-5.0
130.0,134.0,127.0,124.0,125.0,154.0,118.0,128.0,23.0,-97.0,-80.0,127.0,127.0,127.0,106.0,87.0,-5.0
130.0,128.0,127.0,124.0,125.0,154.0,118.0,128.0,23.0,-97.0,-80.0,127.0,127.0,127.0,106.0,87.0,-5.0
130.0,124.0,126.0,124.0,125.0,154.0,119.0,128.0,23.0,-97.0,-80.0,127.0,127.0,127.0,106.0,87.0,-5.0
130.0,121.0,125.0,124.0,125.0,154.0,119.0,128.0,23.0,-97.0,-80.0,127.0,127.0,127.0,106.0,87.0,-5.0
130.0,127.0,129.0,126.0,128.0,155.0,129.0,127.0,22.0,-98.0,-80.0,127.0,127.0,127.0,106.0,87.0,-5.0
130.0,128.0,129.0,126.0,127.0,155.0,129.0,127.0,22.0,-98.0,-80.0,127.0,127.0,127.0,106.0,87.0,-5.0
130.0,122.0,128.0,126.0,128.0,155.0,129.0,129.0,22.0,-98.0,-80.0,127.0,127.0,127.0,106.0,87.0,-5.0
130.0,122.0,128.0,125.0,127.0,155.0,127.0,129.0,22.0,-98.0,-80.0,127.0,127.0,127.0,106.0,87.0,-5.0
130.0,122.0,127.0,125.0,127.0,155.0,126.0,128.0,22.0,-98.0,-80.0,127.0,127.0,127.0,106.0,87.0,-5.0
130.0,123.0,127.0,125.0,127.0,155.0,126.0,128.0,22.0,-98.0,-80.0,127.0,127.0,127.0,106.0,87.0,-5.0
130.0,123.0,127.0,125.0,127.0,155.0,127.0,127.0,22.0,-98.0,-80.0,127.0,127.0,127.0,106.0,87.0,-5.0
130.0,124.0,128.0,125.0,127.0,155.0,128.0,127.0,22.0,-98.0,-80.0,127.0,127.0,127.0,106.0,87.0,-5.0
130.0,125.0,128.0,126.0,127.0,155.0,129.0,127.0,22.0,-98.0,-80.0,127.0,127.0,127.0,106.0,87.0,-5.0
130.0,126.0,128.0,126.0,128.0,155.0,129.0,127.0,22.0,-98.0,-80.0,127.0,127.0,127.0,106.0,87.0,-5.0
130.0,125.0,125.0,126.0,126.0,154.0,121.0,129.0,22.0,-98.0,-80.0,127.0,127.0,127.0,106.0,87.0,-5.0
130.0,123.0,127.0,127.0,128.0,154.0,126.0,129.0,22.0,-98.0,-80.0,127.0,127.0,127.0,106.0,87.0,-5.0
130.0,123.0,127.0,127.0,128.0,154.0,126.0,129.0,22.0,-98.0,-80.0,127.0,127.0,127.0,106.0,87.0,-5.0
130.0,123.0,127.0,127.0,128.0,154.0,126.0,130.0,22.0,-98.0,-80.0,127.0,127.0,127.0,106.0,87.0,-5.0
130.0,124.0,127.0,127.0,128.0,154.0,126.0,130.0,22.0,-98.0,-80.0,127.0,127.0,127.0,106.0,87.0,-5.0
130.0,124.0,127.0,127.0,128.0,154.0,126.0,130.0,22.0,-98.0,-80.0,127.0,127.0,127.0,106.0,87.0,-5.0
130.0,124.0,127.0,127.0,128.0,154.0,125.0,130.0,22.0,-98.0,-80.0,127.0,127.0,127.0,106.0,87.0,-5.0
130.0,125.0,127.0,126.0,127.0,154.0,124.0,130.0,22.0,-98.0,-80.0,127.0,127.0,127.0,106.0,87.0,-5.0
130.0,125.0,126.0,126.0,127.0,154.0,123.0,129.0,22.0,-98.0,-80.0,127.0,127.0,127.0,106.0,87.0,-5.0
130.0,125.0,126.0,126.0,127.0,154.0,121.0,129.0,22.0,-98.0,-80.0,127.0,127.0,127.0,106.0,87.0,-5.0
130.0,128.0,126.0,124.0,127.0,153.0,119.0,126.0,22.0,-98.0,-80.0,127.0,127.0,127.0,106.0,87.0,-5.0
130.0,128.0,126.0,124.0,127.0,153.0,120.0,126.0,22.0,-98.0,-80.0,127.0,127.0,127.0,106.0,87.0,-5.0
130.0,126.0,126.0,124.0,127.0,153.0,121.0,126.0,22.0,-98.0,-80.0,127.0,127.0,127.0,106.0,87.0,-5.0
129.0,125.0,126.0,124.0,128.0,153.0,122.0,127.0,22.0,-98.0,-80.0,127.0,127.0,127.0,106.0,87.0,-5.0
129.0,123.0,126.0,125.0,127.0,153.0,123.0,127.0,22.0,-98.0,-80.0,127.0,127.0,127.0,106.0,87.0,-5.0
129.0,122.0,126.0,125.0,127.0,153.0,123.0,127.0,22.0,-98.0,-80.0,127.0,127.0,127.0,106.0,87.0,-5.0
129.0,121.0,126.0,125.0,127.0,153.0,123.0,128.0,22.0,-98.0,-80.0,127.0,127.0,127.0,106.0,87.0,-5.0
129.0,121.0,126.0,125.0,127.0,153.0,122.0,128.0,22.0,-98.0,-80.0,127.0,127.0,127.0,106.0,87.0,-5.0
129.0,121.0,126.0,125.0,127.0,153.0,122.0,128.0,22.0,-98.0,-80.0,127.0,127.0,127.0,106.0,87.0,-5.0
129.0,122.0,126.0,125.0,127.0,153.0,122.0,128.0,22.0,-98.0,-80.0,127.0,127.0,127.0,106.0,87.0,-5.0
129.0,123.0,126.0,127.0,129.0,153.0,124.0,127.0,22.0,-98.0,-80.0,127.0,127.0,127.0,106.0,87.0,-5.0
129.0,125.0,126.0,127.0,129.0,153.0,125.0,127.0,22.0,-98.0,-80.0,127.0,127.0,127.0,106.0,87.0,-5.0
129.0,127.0,127.0,127.0,129.0,153.0,124.0,127.0,22.0,-98.0,-80.0,127.0,127.0,127.0,106.0,87.0,-5.0
129.0,129.0,127.0,128.0,129.0,153.0,124.0,128.0,22.0,-98.0,-80.0,127.0,127.0,127.0,106.0,87.0,-5.0
129.0,129.0,127.0,128.0,129.0,153.0,123.0,128.0,22.0,-98.0,-80.0,127.0,127.0,127.0,106.0,87.0,-5.0
130.0,129.0,128.0,128.0,130.0,153.0,122.0,128.0,22.0,-98.0,-80.0,127.0,127.0,127.0,106.0,87.0,-5.0
130.0,127.0,128.0,128.0,130.0,153.0,122.0,128.0,22.0,-98.0,-80.0,127.0,127.0,127.0,106.0,87.0,-5.0
129.0,125.0,128.0,128.0,129.0,153.0,122.0,128.0,22.0,-98.0,-80.0,127.0,127.0,127.0,106.0,87.0,-5.0
129.0,123.0,127.0,128.0,129.0,153.0,122.0,128.0,22.0,-98.0,-80.0,127.0,127.0,127.0,106.0,87.0,-5.0
129.0,121.0,126.0,127.0,129.0,153.0,124.0,127.0,22.0,-98.0,-80.0,127.0,127.0,127.0,106.0,87.0,-5.0
129.0,125.0,127.0,126.0,126.0,153.0,115.0,128.0,22.0,-98.0,-80.0,127.0,127.0,127.0,106.0,87.0,-5.0
129.0,124.0,126.0,126.0,126.0,153.0,113.0,128.0,22.0,-98.0,-80.0,127.0,127.0,127.0,106.0,87.0,-5.0
129.0,123.0,126.0,126.0,126.0,153.0,113.0,128.0,22.0,-98.0,-80.0,127.0,127.0,127.0,106.0,87.0,-5.0
129.0,123.0,126.0,126.0,126.0,153.0,113.0,128.0,22.0,-98.0,-80.0,127.0,127.0,127.0,106.0,87.0,-5.0
129.0,123.0,126.0,126.0,126.0,153.0,113.0,128.0,22.0,-98.0,-80.0,127.0,127.0,127.0,106.0,87.0,-5.0
129.0,123.0,126.0,126.0,127.0,153.0,114.0,128.0,22.0,-98.0,-80.0,127.0,127.0,127.0,106.0,87.0,-5.0
129.0,123.0,126.0,126.0,127.0,153.0,115.0,128.0,22.0,-98.0,-80.0,127.0,127.0,127.0,106.0,87.0,-5.0
129.0,123.0,126.0,126.0,127.0,153.0,115.0,128.0,22.0,-98.0,-80.0,127.0,127.0,127.0,106.0,87.0,-5.0
129.0,130.0,127.0,126.0,126.0,153.0,118.0,128.0,22.0,-98.0,-80.0,127.0,127.0,127.0,106.0,87.0,-5.0
129.0,127.0,127.0,126.0,126.0,153.0,117.0,129.0,22.0,-98.0,-80.0,127.0,127.0,127.0,106.0,87.0,-5.0
129.0,127.0,127.0,126.0,126.0,153.0,120.0,129.0,22.0,-98.0,-80.0,127.0,127.0,127.0,106.0,87.0,-5.0
129.0,125.0,127.0,126.0,126.0,153.0,122.0,129.0,22.0,-98.0,-80.0,127.0,127.0,127.0,106.0,87.0,-5.0
129.0,124.0,127.0,126.0,126.0,153.0,124.0,129.0,22.0,-98.0,-80.0,127.0,127.0,127.0,106.0,87.0,-5.0
129.0,122.0,127.0,127.0,127.0,153.0,127.0,129.0,22.0,-98.0,-80.0,127.0,127.0,127.0,106.0,87.0,-5.0
129.0,122.0,128.0,127.0,127.0,153.0,129.0,129.0,22.0,-98.0,-80.0,127.0,127.0,127.0,106.0,87.0,-5.0
128.0,122.0,128.0,127.0,127.0,153.0,131.0,129.0,22.0,-98.0,-80.0,127.0,127.0,127.0,106.0,87.0,-5.0
129.0,123.0,128.0,127.0,127.0,153.0,131.0,129.0,22.0,-98.0,-80.0,127.0,127.0,127.0,106.0,87.0,-5.0
129.0,136.0,126.0,125.0,126.0,153.0,118.0,128.0,22.0,-98.0,-80.0,127.0,127.0,127.0,106.0,87.0,-5.0
129.0,134.0,126.0,126.0,126.0,153.0,118.0,129.0,22.0,-98.0,-80.0,127.0,127.0,127.0,106.0,87.0,-5.0
129.0,130.0,127.0,126.0,126.0,153.0,119.0,129.0,22.0,-98.0,-80.0,127.0,127.0,127.0,106.0,87.0,-5.0
129.0,121.0,127.0,126.0,128.0,153.0,129.0,130.0,22.0,-98.0,-80.0,127.0,127.0,127.0,106.0,87.0,-5.0
130.0,121.0,127.0,125.0,128.0,153.0,129.0,130.0,22.0,-98.0,-80.0,127.0,127.0,127.0,106.0,87.0,-5.0
129.0,121.0,127.0,125.0,128.0,153.0,129.0,129.0,22.0,-98.0,-80.0,127.0,127.0,127.0,106.0,87.0,-5.0
129.0,122.0,127.0,125.0,128.0,154.0,130.0,129.0,22.0,-98.0,-80.0,127.0,127.0,127.0,106.0,87.0,-5.0
129.0,122.0,127.0,125.0,128.0,154.0,130.0,129.0,22.0,-98.0,-80.0,127.0,127.0,127.0,106.0,87.0,-5.0
129.0,122.0,126.0,126.0,127.0,154.0,129.0,130.0,22.0,-98.0,-80.0,127.0,127.0,127.0,106.0,87.0,-5.0
129.0,121.0,126.0,126.0,127.0,153.0,129.0,131.0,22.0,-98.0,-80.0,127.0,127.0,127.0,106.0,87.0,-5.0
129.0,121.0,126.0,126.0,127.0,153.0,129.0,131.0,22.0,-98.0,-80.0,127.0,127.0,127.0,106.0,87.0,-5.0
129.0,121.0,126.0,125.0,127.0,153.0,129.0,130.0,22.0,-98.0,-80.0,127.0,127.0,127.0,106.0,87.0,-5.0
129.0,121.0,127.0,125.0,127.0,153.0,129.0,130.0,22.0,-98.0,-80.0,127.0,127.0,127.0,106.0,87.0,-5.0
129.0,123.0,128.0,127.0,127.0,153.0,123.0,128.0,22.0,-98.0,-80.0,127.0,127.0,127.0,106.0,87.0,-5.0
129.0,123.0,129.0,127.0,127.0,153.0,124.0,128.0,22.0,-98.0,-80.0,127.0,127.0,127.0,106.0,87.0,-5.0
129.0,123.0,129.0,127.0,127.0,153.0,125.0,128.0,22.0,-98.0,-80.0,127.0,127.0,127.0,106.0,87.0,-5.0
129.0,123.0,129.0,127.0,127.0,153.0,125.0,128.0,22.0,-98.0,-80.0,127.0,127.0,127.0,106.0,87.0,-5.0
129.0,127.0,128.0,126.0,127.0,153.0,130.0,128.0,22.0,-98.0,-80.0,127.0,127.0,127.0,106.0,87.0,-5.0
129.0,127.0,128.0,126.0,127.0,153.0,127.0,128.0,22.0,-98.0,-80.0,127.0,127.0,127.0,106.0,87.0,-5.0
129.0,126.0,128.0,126.0,127.0,153.0,125.0,129.0,22.0,-98.0,-80.0,127.0,127.0,127.0,106.0,87.0,-5.0
129.0,124.0,128.0,126.0,127.0,153.0,124.0,128.0,22.0,-98.0,-80.0,127.0,127.0,127.0,106.0,87.0,-5.0
129.0,123.0,128.0,126.0,127.0,153.0,123.0,128.0,22.0,-98.0,-80.0,127.0,127.0,127.0,106.0,87.0,-5.0
129.0,123.0,128.0,126.0,127.0,153.0,122.0,128.0,22.0,-98.0,-80.0,127.0,127.0,127.0,106.0,87.0,-5.0
129.0,124.0,125.0,126.0,127.0,152.0,123.0,128.0,23.0,-98.0,-80.0,127.0,127.0,127.0,106.0,87.0,-5.0
129.0,124.0,126.0,126.0,127.0,152.0,124.0,127.0,23.0,-98.0,-80.0,127.0,127.0,127.0,106.0,87.0,-5.0
129.0,124.0,126.0,126.0,127.0,152.0,126.0,127.0,23.0,-98.0,-80.0,127.0,127.0,127.0,106.0,87.0,-5.0
129.0,125.0,123.0,125.0,126.0,152.0,117.0,127.0,23.0,-98.0,-80.0,127.0,127.0,127.0,106.0,87.0,-5.0
129.0,126.0,123.0,125.0,126.0,152.0,117.0,127.0,23.0,-98.0,-80.0,127.0,127.0,127.0,106.0,87.0,-5.0
129.0,126.0,123.0,125.0,126.0,152.0,118.0,127.0,23.0,-98.0,-80.0,127.0,127.0,127.0,106.0,87.0,-5.0
129.0,126.0,124.0,126.0,126.0,152.0,119.0,127.0,23.0,-98.0,-80.0,127.0,127.0,127.0,106.0,87.0,-5.0
129.0,126.0,124.0,126.0,126.0,152.0,120.0,127.0,23.0,-98.0,-80.0,127.0,127.0,127.0,106.0,87.0,-5.0
129.0,125.0,124.0,126.0,126.0,152.0,121.0,127.0,23.0,-98.0,-80.0,127.0,127.0,127.0,106.0,87.0,-5.0
129.0,125.0,124.0,126.0,126.0,152.0,122.0,127.0,23.0,-98.0,-80.0,127.0,127.0,127.0,106.0,87.0,-5.0
129.0,120.0,125.0,127.0,128.0,153.0,129.0,129.0,23.0,-98.0,-79.0,127.0,127.0,127.0,106.0,87.0,-5.0
129.0,120.0,125.0,127.0,127.0,153.0,128.0,129.0,23.0,-98.0,-79.0,127.0,127.0,127.0,106.0,87.0,-5.0
129.0,119.0,125.0,127.0,126.0,153.0,129.0,128.0,23.0,-98.0,-79.0,127.0,127.0,127.0,106.0,87.0,-5.0
129.0,120.0,125.0,127.0,127.0,153.0,128.0,128.0,23.0,-98.0,-79.0,127.0,127.0,127.0,106.0,87.0,-5.0
129.0,122.0,124.0,127.0,127.0,153.0,128.0,128.0,23.0,-98.0,-79.0,127.0,127.0,127.0,106.0,87.0,-5.0
129.0,123.0,124.0,127.0,127.0,153.0,127.0,128.0,23.0,-98.0,-79.0,127.0,127.0,127.0,106.0,87.0,-5.0
129.0,124.0,124.0,127.0,127.0,153.0,127.0,128.0,23.0,-98.0,-79.0,127.0,127.0,127.0,106.0,87.0,-5.0
129.0,124.0,125.0,127.0,127.0,153.0,128.0,128.0,23.0,-98.0,-79.0,127.0,127.0,127.0,106.0,87.0,-5.0
129.0,123.0,125.0,127.0,127.0,153.0,128.0,128.0,23.0,-98.0,-79.0,127.0,127.0,127.0,106.0,87.0,-5.0
129.0,122.0,125.0,127.0,127.0,153.0,129.0,129.0,23.0,-98.0,-79.0,127.0,127.0,127.0,106.0,87.0,-5.0
129.0,131.0,128.0,126.0,126.0,153.0,124.0,127.0,23.0,-98.0,-79.0,127.0,127.0,127.0,106.0,87.0,-5.0
129.0,124.0,127.0,127.0,126.0,153.0,124.0,129.0,23.0,-98.0,-79.0,127.0,127.0,127.0,106.0,87.0,-5.0
128.0,124.0,126.0,127.0,126.0,153.0,123.0,129.0,23.0,-98.0,-79.0,127.0,127.0,127.0,106.0,87.0,-5.0
128.0,124.0,126.0,127.0,126.0,153.0,123.0,129.0,23.0,-98.0,-79.0,127.0,127.0,127.0,106.0,87.0,-5.0
128.0,124.0,126.0,127.0,126.0,153.0,123.0,129.0,23.0,-98.0,-79.0,127.0,127.0,127.0,106.0,87.0,-5.0
128.0,124.0,126.0,126.0,126.0,153.0,123.0,129.0,23.0,-98.0,-79.0,127.0,127.0,127.0,106.0,87.0,-5.0
128.0,125.0,126.0,126.0,126.0,153.0,123.0,129.0,23.0,-98.0,-79.0,127.0,127.0,127.0,106.0,87.0,-5.0
128.0,126.0,127.0,126.0,126.0,153.0,123.0,128.0,23.0,-98.0,-79.0,127.0,127.0,127.0,106.0,87.0,-5.0
128.0,128.0,127.0,126.0,126.0,153.0,123.0,128.0,23.0,-98.0,-79.0,127.0,127.0,127.0,106.0,87.0,-5.0
129.0,130.0,127.0,126.0,126.0,153.0,123.0,127.0,23.0,-98.0,-79.0,127.0,127.0,127.0,106.0,87.0,-5.0
128.0,122.0,126.0,128.0,127.0,153.0,127.0,129.0,23.0,-98.0,-79.0,127.0,127.0,127.0,106.0,87.0,-5.0
128.0,122.0,126.0,128.0,127.0,153.0,126.0,129.0,23.0,-98.0,-79.0,127.0,127.0,127.0,106.0,87.0,-5.0
128.0,122.0,126.0,128.0,127.0,153.0,126.0,129.0,23.0,-98.0,-79.0,127.0,127.0,127.0,106.0,87.0,-5.0
128.0,122.0,126.0,128.0,128.0,153.0,126.0,129.0,23.0,-98.0,-79.0,127.0,127.0,127.0,106.0,87.0,-5.0
128.0,122.0,126.0,128.0,128.0,153.0,126.0,129.0,23.0,-98.0,-79.0,127.0,127.0,127.0,106.0,87.0,-5.0
128.0,122.0,126.0,128.0,128.0,153.0,126.0,129.0,23.0,-98.0,-79.0,127.0,127.0,127.0,106.0,87.0,-5.0
128.0,122.0,127.0,128.0,128.0,153.0,127.0,129.0,23.0,-98.0,-79.0,127.0,127.0,127.0,106.0,87.0,-5.0
129.0,122.0,127.0,128.0,128.0,153.0,127.0,129.0,23.0,-98.0,-79.0,127.0,127.0,127.0,106.0,87.0,-5.0
129.0,122.0,127.0,128.0,128.0,153.0,127.0,129.0,23.0,-98.0,-79.0,127.0,127.0,127.0,106.0,87.0,-5.0
129.0,122.0,127.0,128.0,128.0,153.0,127.0,129.0,23.0,-98.0,-79.0,127.0,127.0,127.0,106.0,87.0,-5.0
129.0,124.0,128.0,128.0,128.0,153.0,131.0,131.0,23.0,-98.0,-80.0,127.0,127.0,127.0,106.0,87.0,-5.0
128.0,124.0,128.0,128.0,128.0,153.0,131.0,131.0,23.0,-98.0,-80.0,127.0,127.0,127.0,106.0,87.0,-5.0
128.0,125.0,128.0,128.0,128.0,153.0,132.0,131.0,23.0,-98.0,-80.0,127.0,127.0,127.0,106.0,87.0,-5.0
128.0,125.0,128.0,128.0,128.0,153.0,132.0,131.0,23.0,-98.0,-80.0,127.0,127.0,127.0,106.0,87.0,-5.0
129.0,124.0,128.0,128.0,128.0,153.0,131.0,130.0,23.0,-98.0,-80.0,127.0,127.0,127.0,106.0,87.0,-5.0
129.0,124.0,128.0,128.0,128.0,153.0,130.0,130.0,23.0,-98.0,-80.0,127.0,127.0,127.0,106.0,87.0,-5.0
129.0,124.0,127.0,128.0,128.0,153.0,130.0,129.0,23.0,-98.0,-80.0,127.0,127.0,127.0,106.0,87.0,-5.0
129.0,124.0,127.0,127.0,128.0,153.0,129.0,129.0,23.0,-98.0,-80.0,127.0,127.0,127.0,106.0,87.0,-5.0
129.0,124.0,127.0,127.0,127.0,153.0,128.0,129.0,23.0,-98.0,-80.0,127.0,127.0,127.0,106.0,87.0,-5.0
129.0,124.0,128.0,128.0,128.0,153.0,131.0,131.0,23.0,-98.0,-80.0,127.0,127.0,127.0,106.0,87.0,-5.0
128.0,125.0,127.0,127.0,127.0,153.0,128.0,128.0,23.0,-98.0,-80.0,127.0,127.0,127.0,106.0,87.0,-5.0
128.0,126.0,127.0,127.0,127.0,153.0,128.0,128.0,23.0,-98.0,-80.0,127.0,127.0,127.0,106.0,87.0,-5.0
128.0,127.0,128.0,127.0,127.0,153.0,128.0,128.0,23.0,-98.0,-80.0,127.0,127.0,127.0,106.0,87.0,-5.0
128.0,128.0,128.0,127.0,127.0,153.0,129.0,128.0,23.0,-98.0,-80.0,127.0,127.0,127.0,106.0,87.0,-5.0
128.0,128.0,128.0,127.0,127.0,153.0,129.0,128.0,23.0,-98.0,-80.0,127.0,127.0,127.0,106.0,87.0,-5.0
128.0,128.0,128.0,127.0,127.0,153.0,129.0,128.0,23.0,-98.0,-80.0,127.0,127.0,127.0,106.0,87.0,-5.0
128.0,127.0,128.0,127.0,127.0,153.0,129.0,128.0,23.0,-98.0,-80.0,127.0,127.0,127.0,106.0,87.0,-5.0
128.0,125.0,128.0,127.0,127.0,152.0,128.0,128.0,23.0,-98.0,-80.0,127.0,127.0,127.0,106.0,87.0,-5.0
128.0,124.0,127.0,127.0,127.0,153.0,127.0,128.0,23.0,-98.0,-80.0,127.0,127.0,127.0,106.0,87.0,-5.0
128.0,124.0,127.0,127.0,127.0,153.0,127.0,128.0,23.0,-98.0,-80.0,127.0,127.0,127.0,106.0,87.0,-5.0
129.0,123.0,127.0,128.0,128.0,152.0,131.0,129.0,23.0,-98.0,-80.0,127.0,127.0,127.0,106.0,87.0,-5.0
129.0,123.0,127.0,128.0,128.0,153.0,130.0,129.0,23.0,-98.0,-80.0,127.0,127.0,127.0,106.0,87.0,-5.0
129.0,124.0,127.0,128.0,128.0,153.0,128.0,129.0,23.0,-98.0,-80.0,127.0,127.0,127.0,106.0,87.0,-5.0
129.0,124.0,127.0,128.0,128.0,153.0,128.0,128.0,23.0,-98.0,-80.0,127.0,127.0,127.0,106.0,87.0,-5.0
129.0,124.0,127.0,128.0,127.0,153.0,127.0,128.0,23.0,-98.0,-80.0,127.0,127.0,127.0,106.0,87.0,-5.0
129.0,124.0,127.0,128.0,127.0,153.0,126.0,128.0,23.0,-98.0,-80.0,127.0,127.0,127.0,106.0,87.0,-5.0
129.0,124.0,127.0,128.0,127.0,153.0,126.0,128.0,23.0,-98.0,-80.0,127.0,127.0,127.0,106.0,87.0,-5.0
129.0,123.0,127.0,128.0,128.0,152.0,132.0,128.0,23.0,-98.0,-80.0,127.0,127.0,127.0,106.0,87.0,-5.0
129.0,123.0,127.0,128.0,128.0,153.0,132.0,128.0,23.0,-98.0,-80.0,127.0,127.0,127.0,106.0,87.0,-5.0
129.0,123.0,127.0,128.0,128.0,153.0,131.0,129.0,23.0,-98.0,-80.0,127.0,127.0,127.0,106.0,87.0,-5.0
128.0,124.0,127.0,128.0,127.0,153.0,127.0,128.0,23.0,-98.0,-80.0,127.0,127.0,127.0,106.0,87.0,-5.0
128.0,123.0,127.0,128.0,127.0,153.0,127.0,128.0,23.0,-98.0,-80.0,127.0,127.0,127.0,106.0,87.0,-5.0
128.0,123.0,127.0,128.0,127.0,153.0,128.0,128.0,23.0,-98.0,-80.0,127.0,127.0,127.0,106.0,87.0,-5.0
128.0,123.0,127.0,128.0,127.0,153.0,129.0,128.0,23.0,-98.0,-80.0,127.0,127.0,127.0,106.0,87.0,-5.0
128.0,123.0,127.0,128.0,127.0,153.0,129.0,128.0,23.0,-98.0,-80.0,127.0,127.0,127.0,106.0,87.0,-5.0
128.0,123.0,127.0,128.0,127.0,153.0,129.0,128.0,23.0,-98.0,-80.0,127.0,127.0,127.0,106.0,87.0,-5.0
128.0,124.0,127.0,128.0,127.0,153.0,125.0,128.0,23.0,-98.0,-80.0,127.0,127.0,127.0,106.0,87.0,-5.0
128.0,124.0,127.0,128.0,127.0,153.0,125.0,128.0,23.0,-98.0,-80.0,127.0,127.0,127.0,106.0,87.0,-5.0
128.0,124.0,127.0,128.0,127.0,153.0,126.0,128.0,23.0,-98.0,-80.0,127.0,127.0,127.0,106.0,87.0,-5.0
128.0,124.0,127.0,128.0,127.0,153.0,126.0,128.0,23.0,-98.0,-80.0,127.0,127.0,127.0,106.0,87.0,-5.0
128.0,124.0,127.0,128.0,126.0,153.0,126.0,128.0,23.0,-98.0,-80.0,127.0,127.0,127.0,106.0,87.0,-5.0
128.0,123.0,127.0,128.0,126.0,153.0,126.0,128.0,23.0,-98.0,-80.0,127.0,127.0,127.0,106.0,87.0,-5.0
128.0,123.0,127.0,128.0,126.0,153.0,125.0,128.0,23.0,-98.0,-80.0,127.0,127.0,127.0,106.0,87.0,-5.0
128.0,123.0,127.0,128.0,126.0,153.0,125.0,128.0,23.0,-98.0,-80.0,127.0,127.0,127.0,106.0,87.0,-5.0
128.0,123.0,127.0,128.0,126.0,153.0,125.0,128.0,23.0,-98.0,-80.0,127.0,127.0,127.0,106.0,87.0,-5.0
128.0,124.0,127.0,128.0,126.0,153.0,125.0,127.0,23.0,-98.0,-80.0,127.0,127.0,127.0,106.0,87.0,-5.0
128.0,124.0,127.0,128.0,126.0,153.0,126.0,128.0,23.0,-98.0,-80.0,127.0,127.0,127.0,106.0,87.0,-5.0
128.0,124.0,127.0,128.0,126.0,153.0,127.0,128.0,23.0,-98.0,-80.0,127.0,127.0,127.0,106.0,87.0,-5.0
128.0,124.0,127.0,128.0,126.0,153.0,127.0,128.0,23.0,-98.0,-80.0,127.0,127.0,127.0,106.0,87.0,-5.0
128.0,124.0,127.0,128.0,126.0,153.0,127.0,128.0,23.0,-98.0,-80.0,127.0,127.0,127.0,106.0,87.0,-5.0
128.0,125.0,127.0,130.0,127.0,153.0,126.0,127.0,23.0,-98.0,-80.0,127.0,127.0,127.0,106.0,87.0,-5.0
128.0,125.0,127.0,130.0,127.0,153.0,126.0,127.0,23.0,-98.0,-80.0,127.0,127.0,127.0,106.0,87.0,-5.0
128.0,125.0,128.0,130.0,127.0,153.0,126.0,127.0,23.0,-98.0,-80.0,127.0,127.0,127.0,106.0,87.0,-5.0
128.0,124.0,128.0,130.0,127.0,153.0,126.0,127.0,23.0,-98.0,-80.0,127.0,127.0,127.0,106.0,87.0,-5.0
128.0,125.0,127.0,129.0,127.0,153.0,124.0,127.0,23.0,-98.0,-80.0,127.0,127.0,127.0,106.0,87.0,-5.0
128.0,125.0,127.0,129.0,127.0,153.0,125.0,127.0,23.0,-98.0,-80.0,127.0,127.0,127.0,106.0,87.0,-5.0
128.0,125.0,127.0,129.0,127.0,153.0,125.0,127.0,23.0,-98.0,-80.0,127.0,127.0,127.0,106.0,87.0,-5.0
128.0,125.0,127.0,130.0,127.0,153.0,125.0,127.0,23.0,-98.0,-80.0,127.0,127.0,127.0,106.0,87.0,-5.0
128.0,125.0,127.0,129.0,127.0,153.0,125.0,127.0,23.0,-98.0,-80.0,127.0,127.0,127.0,106.0,87.0,-5.0
128.0,125.0,127.0,130.0,127.0,153.0,126.0,127.0,23.0,-98.0,-80.0,127.0,127.0,127.0,106.0,87.0,-5.0
126.0,126.0,127.0,129.0,126.0,154.0,127.0,127.0,23.0,-98.0,-80.0,127.0,127.0,127.0,106.0,87.0,-5.0
126.0,126.0,127.0,129.0,127.0,154.0,127.0,127.0,23.0,-98.0,-80.0,127.0,127.0,127.0,106.0,87.0,-5.0
126.0,126.0,127.0,129.0,127.0,154.0,127.0,127.0,23.0,-98.0,-80.0,127.0,127.0,127.0,106.0,87.0,-5.0
126.0,127.0,127.0,129.0,126.0,154.0,127.0,127.0,23.0,-98.0,-80.0,127.0,127.0,127.0,106.0,87.0,-5.0
126.0,127.0,127.0,129.0,126.0,154.0,127.0,127.0,23.0,-98.0,-80.0,127.0,127.0,127.0,106.0,87.0,-5.0
126.0,127.0,127.0,129.0,126.0,154.0,127.0,127.0,23.0,-98.0,-80.0,127.0,127.0,127.0,106.0,87.0,-5.0
126.0,127.0,127.0,129.0,126.0,154.0,127.0,128.0,23.0,-98.0,-80.0,127.0,127.0,127.0,106.0,87.0,-5.0
126.0,127.0,127.0,129.0,126.0,154.0,127.0,128.0,23.0,-98.0,-80.0,127.0,127.0,127.0,106.0,87.0,-5.0
126.0,127.0,127.0,129.0,126.0,154.0,127.0,127.0,23.0,-98.0,-80.0,127.0,127.0,127.0,106.0,87.0,-5.0
126.0,126.0,127.0,129.0,126.0,154.0,127.0,127.0,23.0,-98.0,-80.0,127.0,127.0,127.0,106.0,87.0,-5.0
126.0,126.0,128.0,129.0,127.0,155.0,129.0,129.0,23.0,-97.0,-80.0,127.0,127.0,127.0,105.0,87.0,-5.0
126.0,126.0,128.0,129.0,127.0,155.0,129.0,129.0,23.0,-97.0,-80.0,127.0,127.0,127.0,105.0,87.0,-5.0
125.0,126.0,127.0,129.0,127.0,155.0,130.0,127.0,23.0,-97.0,-80.0,127.0,127.0,127.0,105.0,87.0,-5.0
125.0,126.0,127.0,129.0,127.0,155.0,131.0,128.0,23.0,-97.0,-80.0,127.0,127.0,127.0,105.0,87.0,-5.0
125.0,126.0,127.0,129.0,127.0,155.0,131.0,128.0,23.0,-97.0,-80.0,127.0,127.0,127.0,105.0,87.0,-5.0
126.0,126.0,127.0,129.0,127.0,155.0,131.0,128.0,23.0,-97.0,-80.0,127.0,127.0,127.0,105.0,87.0,-5.0
126.0,126.0,127.0,129.0,127.0,155.0,131.0,128.0,23.0,-97.0,-80.0,127.0,127.0,127.0,105.0,87.0,-5.0
126.0,126.0,127.0,129.0,127.0,155.0,130.0,129.0,23.0,-97.0,-80.0,127.0,127.0,127.0,105.0,87.0,-5.0
126.0,126.0,127.0,129.0,127.0,155.0,130.0,129.0,23.0,-97.0,-80.0,127.0,127.0,127.0,105.0,87.0,-5.0
126.0,126.0,127.0,129.0,127.0,155.0,129.0,129.0,23.0,-97.0,-80.0,127.0,127.0,127.0,105.0,87.0,-5.0
124.0,127.0,126.0,128.0,127.0,154.0,125.0,127.0,23.0,-97.0,-80.0,127.0,127.0,127.0,105.0,87.0,-5.0
124.0,127.0,126.0,128.0,127.0,154.0,125.0,127.0,23.0,-97.0,-80.0,127.0,127.0,127.0,105.0,87.0,-5.0
124.0,127.0,126.0,128.0,127.0,154.0,125.0,127.0,23.0,-97.0,-80.0,127.0,127.0,127.0,105.0,87.0,-5.0
124.0,127.0,126.0,128.0,127.0,154.0,125.0,127.0,23.0,-97.0,-80.0,127.0,127.0,127.0,105.0,87.0,-5.0
124.0,127.0,126.0,128.0,127.0,154.0,125.0,127.0,23.0,-97.0,-80.0,127.0,127.0,127.0,105.0,87.0,-5.0
124.0,127.0,126.0,128.0,127.0,154.0,125.0,127.0,23.0,-97.0,-80.0,127.0,127.0,127.0,105.0,87.0,-5.0
124.0,127.0,126.0,128.0,127.0,154.0,126.0,127.0,23.0,-97.0,-80.0,127.0,127.0,127.0,105.0,87.0,-5.0
124.0,126.0,126.0,128.0,127.0,154.0,126.0,127.0,23.0,-97.0,-80.0,127.0,127.0,127.0,105.0,87.0,-5.0
124.0,126.0,126.0,128.0,127.0,154.0,126.0,127.0,23.0,-97.0,-80.0,127.0,127.0,127.0,105.0,87.0,-5.0
124.0,126.0,126.0,128.0,127.0,154.0,126.0,127.0,23.0,-97.0,-80.0,127.0,127.0,127.0,105.0,87.0,-5.0
118.0,126.0,126.0,128.0,127.0,155.0,127.0,127.0,23.0,-97.0,-80.0,127.0,127.0,127.0,105.0,87.0,-5.0
118.0,126.0,126.0,128.0,127.0,155.0,127.0,127.0,23.0,-97.0,-80.0,127.0,127.0,127.0,105.0,87.0,-5.0
118.0,126.0,126.0,128.0,127.0,155.0,127.0,127.0,23.0,-97.0,-80.0,127.0,127.0,127.0,105.0,87.0,-5.0
118.0,126.0,126.0,128.0,127.0,155.0,127.0,127.0,23.0,-97.0,-80.0,127.0,127.0,127.0,105.0,87.0,-5.0
118.0,126.0,126.0,128.0,127.0,155.0,127.0,127.0,23.0,-97.0,-80.0,127.0,127.0,127.0,105.0,87.0,-5.0
118.0,126.0,126.0,128.0,127.0,155.0,127.0,127.0,23.0,-97.0,-80.0,127.0,127.0,127.0,105.0,87.0,-5.0
118.0,126.0,126.0,128.0,127.0,155.0,127.0,127.0,23.0,-97.0,-80.0,127.0,127.0,127.0,105.0,87.0,-5.0
118.0,126.0,126.0,128.0,127.0,155.0,127.0,127.0,23.0,-97.0,-80.0,127.0,127.0,127.0,105.0,87.0,-5.0
118.0,126.0,126.0,128.0,127.0,155.0,127.0,128.0,23.0,-97.0,-80.0,127.0,127.0,127.0,105.0,87.0,-5.0
118.0,126.0,126.0,128.0,127.0,155.0,127.0,127.0,23.0,-97.0,-80.0,127.0,127.0,127.0,105.0,87.0,-5.0
119.0,127.0,125.0,128.0,126.0,156.0,128.0,128.0,23.0,-96.0,-80.0,126.0,127.0,127.0,105.0,87.0,-5.0
119.0,127.0,126.0,127.0,126.0,156.0,128.0,128.0,23.0,-96.0,-80.0,126.0,127.0,127.0,105.0,87.0,-5.0
119.0,127.0,125.0,127.0,126.0,156.0,128.0,128.0,23.0,-96.0,-80.0,126.0,127.0,127.0,105.0,87.0,-5.0
119.0,127.0,125.0,127.0,126.0,156.0,128.0,128.0,23.0,-96.0,-80.0,126.0,127.0,127.0,105.0,87.0,-5.0
119.0,127.0,126.0,127.0,126.0,156.0,128.0,128.0,23.0,-96.0,-80.0,126.0,127.0,127.0,105.0,87.0,-5.0
119.0,127.0,126.0,127.0,126.0,156.0,128.0,128.0,23.0,-96.0,-80.0,126.0,127.0,127.0,105.0,87.0,-5.0
119.0,127.0,126.0,127.0,126.0,156.0,128.0,128.0,23.0,-96.0,-80.0,126.0,127.0,127.0,105.0,87.0,-5.0
119.0,127.0,126.0,127.0,126.0,156.0,128.0,128.0,23.0,-96.0,-80.0,126.0,127.0,127.0,105.0,87.0,-5.0
118.0,127.0,125.0,128.0,127.0,156.0,128.0,128.0,23.0,-96.0,-80.0,126.0,127.0,127.0,105.0,87.0,-5.0
118.0,127.0,125.0,128.0,126.0,156.0,128.0,128.0,23.0,-96.0,-80.0,126.0,127.0,127.0,105.0,87.0,-5.0
118.0,126.0,126.0,127.0,129.0,156.0,127.0,128.0,23.0,-96.0,-80.0,126.0,127.0,127.0,105.0,87.0,-5.0
118.0,125.0,126.0,127.0,129.0,156.0,127.0,128.0,23.0,-96.0,-80.0,126.0,127.0,127.0,105.0,87.0,-5.0
118.0,125.0,126.0,127.0,129.0,156.0,127.0,128.0,23.0,-96.0,-80.0,126.0,127.0,127.0,105.0,87.0,-5.0
118.0,125.0,126.0,127.0,129.0,156.0,127.0,128.0,23.0,-96.0,-80.0,126.0,127.0,127.0,105.0,87.0,-5.0
118.0,125.0,127.0,127.0,129.0,155.0,127.0,128.0,23.0,-96.0,-80.0,126.0,127.0,127.0,105.0,87.0,-5.0
118.0,125.0,127.0,127.0,129.0,155.0,127.0,128.0,23.0,-96.0,-80.0,126.0,127.0,127.0,105.0,87.0,-5.0
118.0,125.0,127.0,127.0,129.0,155.0,127.0,128.0,23.0,-96.0,-80.0,126.0,127.0,127.0,105.0,87.0,-5.0
118.0,126.0,126.0,128.0,129.0,156.0,128.0,128.0,23.0,-96.0,-80.0,126.0,127.0,127.0,105.0,87.0,-5.0
118.0,126.0,126.0,127.0,129.0,156.0,128.0,128.0,23.0,-96.0,-80.0,126.0,127.0,127.0,105.0,87.0,-5.0
118.0,126.0,126.0,127.0,129.0,156.0,128.0,128.0,23.0,-96.0,-80.0,126.0,127.0,127.0,105.0,87.0,-5.0
124.0,123.0,127.0,127.0,128.0,155.0,125.0,127.0,23.0,-97.0,-80.0,126.0,127.0,127.0,105.0,87.0,-5.0
125.0,123.0,127.0,127.0,128.0,155.0,125.0,127.0,23.0,-97.0,-80.0,126.0,127.0,127.0,105.0,87.0,-5.0
125.0,123.0,127.0,127.0,128.0,155.0,125.0,127.0,23.0,-97.0,-80.0,126.0,127.0,127.0,105.0,87.0,-5.0
125.0,123.0,127.0,127.0,128.0,155.0,125.0,127.0,23.0,-97.0,-80.0,126.0,127.0,127.0,105.0,87.0,-5.0
125.0,123.0,127.0,127.0,128.0,155.0,125.0,127.0,23.0,-97.0,-80.0,126.0,127.0,127.0,105.0,87.0,-5.0
126.0,123.0,127.0,127.0,128.0,155.0,125.0,127.0,23.0,-97.0,-80.0,126.0,127.0,127.0,105.0,87.0,-5.0
123.0,123.0,127.0,127.0,128.0,155.0,125.0,127.0,23.0,-97.0,-80.0,126.0,127.0,127.0,105.0,87.0,-5.0
124.0,123.0,126.0,127.0,128.0,155.0,125.0,127.0,23.0,-97.0,-80.0,126.0,127.0,127.0,105.0,87.0,-5.0
124.0,123.0,126.0,127.0,128.0,155.0,125.0,127.0,23.0,-97.0,-80.0,126.0,127.0,127.0,105.0,87.0,-5.0
124.0,123.0,126.0,127.0,128.0,155.0,125.0,127.0,23.0,-97.0,-80.0,126.0,127.0,127.0,105.0,87.0,-5.0
136.0,126.0,126.0,127.0,127.0,156.0,126.0,128.0,23.0,-97.0,-80.0,126.0,127.0,127.0,105.0,87.0,-5.0
137.0,126.0,126.0,127.0,127.0,156.0,126.0,127.0,23.0,-97.0,-80.0,126.0,127.0,127.0,105.0,87.0,-5.0
137.0,126.0,126.0,127.0,127.0,156.0,126.0,128.0,23.0,-97.0,-80.0,126.0,127.0,127.0,105.0,87.0,-5.0
137.0,126.0,126.0,127.0,127.0,155.0,126.0,128.0,23.0,-97.0,-80.0,126.0,127.0,127.0,105.0,87.0,-5.0
137.0,126.0,126.0,127.0,127.0,156.0,126.0,128.0,23.0,-97.0,-80.0,126.0,127.0,127.0,105.0,87.0,-5.0
136.0,126.0,125.0,127.0,128.0,156.0,125.0,127.0,23.0,-97.0,-80.0,126.0,127.0,127.0,105.0,87.0,-5.0
136.0,126.0,125.0,127.0,127.0,156.0,125.0,127.0,23.0,-97.0,-80.0,126.0,127.0,127.0,105.0,87.0,-5.0
136.0,126.0,125.0,127.0,127.0,156.0,125.0,127.0,23.0,-97.0,-80.0,126.0,127.0,127.0,105.0,87.0,-5.0
136.0,126.0,125.0,127.0,127.0,156.0,125.0,127.0,23.0,-97.0,-80.0,126.0,127.0,127.0,105.0,87.0,-5.0
136.0,126.0,125.0,127.0,127.0,156.0,125.0,127.0,23.0,-97.0,-80.0,126.0,127.0,127.0,105.0,87.0,-5.0
138.0,128.0,128.0,127.0,128.0,156.0,127.0,128.0,23.0,-96.0,-79.0,126.0,127.0,127.0,105.0,87.0,-5.0
138.0,128.0,128.0,127.0,128.0,156.0,127.0,128.0,23.0,-96.0,-79.0,126.0,127.0,127.0,105.0,87.0,-5.0
138.0,128.0,128.0,127.0,128.0,156.0,127.0,128.0,23.0,-96.0,-79.0,126.0,127.0,127.0,105.0,87.0,-5.0
138.0,128.0,128.0,126.0,128.0,156.0,127.0,128.0,23.0,-96.0,-79.0,126.0,127.0,127.0,105.0,87.0,-5.0
137.0,129.0,128.0,127.0,128.0,156.0,127.0,128.0,23.0,-96.0,-79.0,126.0,127.0,127.0,105.0,87.0,-5.0
137.0,129.0,128.0,127.0,128.0,156.0,127.0,128.0,23.0,-96.0,-79.0,126.0,127.0,127.0,105.0,87.0,-5.0
137.0,129.0,128.0,127.0,128.0,156.0,127.0,128.0,23.0,-96.0,-79.0,126.0,127.0,127.0,105.0,87.0,-5.0
138.0,128.0,128.0,127.0,128.0,156.0,127.0,128.0,23.0,-96.0,-79.0,126.0,127.0,127.0,105.0,87.0,-5.0
138.0,128.0,128.0,127.0,128.0,156.0,127.0,128.0,23.0,-96.0,-79.0,126.0,127.0,127.0,105.0,87.0,-5.0
138.0,128.0,128.0,127.0,128.0,156.0,127.0,128.0,23.0,-96.0,-79.0,126.0,127.0,127.0,105.0,87.0,-5.0
120.0,135.0,128.0,127.0,130.0,155.0,129.0,129.0,23.0,-96.0,-79.0,126.0,127.0,127.0,105.0,87.0,-5.0
120.0,135.0,128.0,127.0,130.0,155.0,129.0,129.0,23.0,-96.0,-79.0,126.0,127.0,127.0,105.0,87.0,-5.0
120.0,135.0,128.0,127.0,130.0,155.0,129.0,129.0,23.0,-96.0,-79.0,126.0,127.0,127.0,105.0,87.0,-5.0
121.0,135.0,127.0,127.0,130.0,155.0,129.0,129.0,23.0,-96.0,-79.0,126.0,127.0,127.0,105.0,87.0,-5.0
121.0,135.0,127.0,127.0,130.0,155.0,129.0,128.0,23.0,-96.0,-79.0,126.0,127.0,127.0,105.0,87.0,-5.0
121.0,136.0,127.0,127.0,130.0,155.0,129.0,128.0,23.0,-96.0,-79.0,126.0,127.0,127.0,105.0,87.0,-5.0
121.0,136.0,127.0,127.0,130.0,155.0,129.0,129.0,23.0,-96.0,-79.0,126.0,127.0,127.0,105.0,87.0,-5.0
121.0,136.0,127.0,127.0,130.0,155.0,129.0,129.0,23.0,-96.0,-79.0,126.0,127.0,127.0,105.0,87.0,-5.0
120.0,136.0,127.0,127.0,130.0,155.0,129.0,129.0,23.0,-96.0,-79.0,126.0,127.0,127.0,105.0,87.0,-5.0
120.0,135.0,127.0,127.0,130.0,155.0,129.0,129.0,23.0,-96.0,-79.0,126.0,127.0,127.0,105.0,87.0,-5.0
127.0,133.0,127.0,127.0,132.0,155.0,129.0,128.0,24.0,-97.0,-78.0,126.0,127.0,127.0,105.0,87.0,-5.0
127.0,133.0,127.0,127.0,132.0,155.0,128.0,128.0,24.0,-97.0,-78.0,126.0,127.0,127.0,105.0,87.0,-5.0
127.0,134.0,127.0,127.0,132.0,156.0,129.0,128.0,24.0,-97.0,-78.0,126.0,127.0,127.0,105.0,87.0,-5.0
127.0,134.0,127.0,127.0,132.0,155.0,129.0,128.0,24.0,-97.0,-78.0,126.0,127.0,127.0,105.0,87.0,-5.0
127.0,134.0,127.0,127.0,132.0,155.0,129.0,128.0,24.0,-97.0,-78.0,126.0,127.0,127.0,105.0,87.0,-5.0
127.0,134.0,127.0,127.0,132.0,155.0,129.0,128.0,24.0,-97.0,-78.0,126.0,127.0,127.0,105.0,87.0,-5.0
127.0,134.0,127.0,127.0,132.0,155.0,129.0,128.0,24.0,-97.0,-78.0,126.0,127.0,127.0,105.0,87.0,-5.0
128.0,134.0,127.0,127.0,132.0,155.0,129.0,128.0,24.0,-97.0,-78.0,126.0,127.0,127.0,105.0,87.0,-5.0
127.0,134.0,127.0,127.0,132.0,155.0,129.0,128.0,24.0,-97.0,-78.0,126.0,127.0,127.0,105.0,87.0,-5.0
128.0,133.0,127.0,127.0,132.0,155.0,129.0,128.0,24.0,-97.0,-78.0,126.0,127.0,127.0,105.0,87.0,-5.0
118.0,128.0,128.0,127.0,130.0,155.0,126.0,127.0,24.0,-97.0,-77.0,126.0,127.0,127.0,105.0,87.0,-5.0
121.0,130.0,127.0,127.0,130.0,155.0,126.0,127.0,24.0,-97.0,-77.0,126.0,127.0,127.0,105.0,87.0,-5.0
120.0,130.0,127.0,127.0,130.0,155.0,126.0,127.0,24.0,-97.0,-77.0,126.0,127.0,127.0,105.0,87.0,-5.0
120.0,129.0,127.0,127.0,130.0,155.0,126.0,127.0,24.0,-97.0,-77.0,126.0,127.0,127.0,105.0,87.0,-5.0
120.0,129.0,127.0,127.0,130.0,155.0,126.0,127.0,24.0,-97.0,-77.0,126.0,127.0,127.0,105.0,87.0,-5.0
120.0,129.0,128.0,127.0,130.0,155.0,126.0,127.0,24.0,-97.0,-77.0,126.0,127.0,127.0,105.0,87.0,-5.0
119.0,129.0,128.0,127.0,130.0,155.0,126.0,127.0,24.0,-97.0,-77.0,126.0,127.0,127.0,105.0,87.0,-5.0
119.0,129.0,128.0,127.0,130.0,155.0,126.0,127.0,24.0,-97.0,-77.0,126.0,127.0,127.0,105.0,87.0,-5.0
119.0,129.0,128.0,127.0,130.0,155.0,126.0,127.0,24.0,-97.0,-77.0,126.0,127.0,127.0,105.0,87.0,-5.0
119.0,129.0,128.0,127.0,130.0,155.0,126.0,127.0,24.0,-97.0,-77.0,126.0,127.0,127.0,105.0,87.0,-5.0
115.0,125.0,126.0,127.0,129.0,155.0,127.0,127.0,25.0,-97.0,-77.0,126.0,127.0,127.0,105.0,87.0,-5.0
115.0,124.0,126.0,127.0,129.0,155.0,127.0,127.0,25.0,-97.0,-77.0,126.0,127.0,127.0,105.0,87.0,-5.0
115.0,125.0,126.0,127.0,129.0,155.0,127.0,127.0,25.0,-97.0,-77.0,126.0,127.0,127.0,105.0,87.0,-5.0
115.0,125.0,126.0,127.0,129.0,155.0,127.0,127.0,25.0,-97.0,-77.0,126.0,127.0,127.0,105.0,87.0,-5.0
115.0,125.0,126.0,127.0,129.0,155.0,127.0,127.0,25.0,-97.0,-77.0,126.0,127.0,127.0,105.0,87.0,-5.0
116.0,124.0,126.0,127.0,129.0,155.0,127.0,127.0,25.0,-97.0,-77.0,126.0,127.0,127.0,105.0,87.0,-5.0
116.0,124.0,126.0,127.0,129.0,155.0,127.0,127.0,25.0,-97.0,-77.0,126.0,127.0,127.0,105.0,87.0,-5.0
116.0,124.0,127.0,127.0,129.0,155.0,127.0,127.0,25.0,-97.0,-77.0,126.0,127.0,127.0,105.0,87.0,-5.0
116.0,124.0,126.0,127.0,129.0,155.0,127.0,127.0,25.0,-97.0,-77.0,126.0,127.0,127.0,105.0,87.0,-5.0
116.0,124.0,126.0,126.0,129.0,155.0,127.0,127.0,25.0,-97.0,-77.0,126.0,127.0,127.0,105.0,87.0,-5.0
115.0,124.0,127.0,128.0,128.0,154.0,130.0,128.0,25.0,-96.0,-76.0,126.0,127.0,127.0,105.0,87.0,-5.0
115.0,124.0,127.0,127.0,128.0,154.0,130.0,128.0,25.0,-96.0,-76.0,126.0,127.0,127.0,105.0,87.0,-5.0
115.0,124.0,127.0,127.0,128.0,154.0,130.0,128.0,25.0,-96.0,-76.0,126.0,127.0,127.0,105.0,87.0,-5.0
115.0,124.0,127.0,127.0,128.0,154.0,130.0,128.0,25.0,-96.0,-76.0,126.0,127.0,127.0,105.0,87.0,-5.0
114.0,124.0,127.0,127.0,128.0,154.0,130.0,128.0,25.0,-96.0,-76.0,126.0,127.0,127.0,105.0,87.0,-5.0
114.0,124.0,127.0,127.0,128.0,154.0,130.0,128.0,25.0,-96.0,-76.0,126.0,127.0,127.0,105.0,87.0,-5.0
114.0,124.0,127.0,127.0,128.0,154.0,130.0,128.0,25.0,-96.0,-76.0,126.0,127.0,127.0,105.0,87.0,-5.0
114.0,124.0,127.0,127.0,128.0,154.0,130.0,128.0,25.0,-96.0,-76.0,126.0,127.0,127.0,105.0,87.0,-5.0
114.0,124.0,127.0,127.0,128.0,154.0,130.0,128.0,25.0,-96.0,-76.0,126.0,127.0,127.0,105.0,87.0,-5.0
115.0,124.0,127.0,128.0,128.0,154.0,130.0,128.0,25.0,-96.0,-76.0,126.0,127.0,127.0,105.0,87.0,-5.0
114.0,125.0,126.0,127.0,131.0,151.0,132.0,128.0,25.0,-97.0,-76.0,126.0,127.0,127.0,105.0,87.0,-5.0
114.0,125.0,126.0,127.0,131.0,150.0,132.0,128.0,25.0,-97.0,-76.0,126.0,127.0,127.0,105.0,87.0,-5.0
114.0,125.0,126.0,127.0,131.0,150.0,132.0,128.0,25.0,-97.0,-76.0,126.0,127.0,127.0,105.0,87.0,-5.0
114.0,125.0,126.0,127.0,131.0,150.0,133.0,128.0,25.0,-97.0,-76.0,126.0,127.0,127.0,105.0,87.0,-5.0
114.0,125.0,126.0,127.0,131.0,149.0,133.0,128.0,25.0,-97.0,-76.0,126.0,127.0,127.0,105.0,87.0,-5.0
114.0,124.0,126.0,127.0,131.0,149.0,133.0,128.0,25.0,-97.0,-76.0,126.0,127.0,127.0,105.0,87.0,-5.0
114.0,124.0,126.0,127.0,131.0,149.0,132.0,128.0,25.0,-97.0,-76.0,126.0,127.0,127.0,105.0,87.0,-5.0
114.0,125.0,126.0,127.0,132.0,148.0,132.0,128.0,25.0,-97.0,-76.0,126.0,127.0,127.0,105.0,87.0,-5.0
114.0,125.0,127.0,127.0,131.0,151.0,132.0,128.0,25.0,-97.0,-76.0,126.0,127.0,127.0,105.0,87.0,-5.0
114.0,125.0,127.0,127.0,131.0,151.0,132.0,128.0,25.0,-97.0,-76.0,126.0,127.0,127.0,105.0,87.0,-5.0
115.0,122.0,128.0,126.0,134.0,0.0,129.0,127.0,26.0,-98.0,-75.0,126.0,126.0,127.0,105.0,87.0,-5.0
115.0,122.0,128.0,126.0,134.0,0.0,128.0,128.0,26.0,-98.0,-75.0,126.0,126.0,127.0,105.0,87.0,-5.0
115.0,122.0,128.0,126.0,134.0,0.0,128.0,127.0,26.0,-98.0,-75.0,126.0,126.0,127.0,105.0,87.0,-5.0
115.0,122.0,128.0,126.0,134.0,0.0,128.0,127.0,26.0,-98.0,-75.0,126.0,126.0,127.0,105.0,87.0,-5.0
115.0,122.0,128.0,126.0,134.0,0.0,128.0,128.0,26.0,-98.0,-75.0,126.0,126.0,127.0,105.0,87.0,-5.0
115.0,122.0,128.0,126.0,134.0,0.0,128.0,127.0,26.0,-98.0,-75.0,126.0,126.0,127.0,105.0,87.0,-5.0
115.0,122.0,128.0,126.0,133.0,0.0,130.0,128.0,26.0,-98.0,-75.0,126.0,126.0,127.0,105.0,87.0,-5.0
115.0,122.0,128.0,126.0,133.0,0.0,129.0,128.0,26.0,-98.0,-75.0,126.0,126.0,127.0,105.0,87.0,-5.0
115.0,122.0,128.0,126.0,133.0,0.0,129.0,128.0,26.0,-98.0,-75.0,126.0,126.0,127.0,105.0,87.0,-5.0
115.0,122.0,128.0,126.0,133.0,0.0,129.0,127.0,26.0,-98.0,-75.0,126.0,126.0,127.0,105.0,87.0,-5.0
114.0,122.0,126.0,127.0,136.0,0.0,124.0,127.0,26.0,-99.0,-75.0,126.0,126.0,127.0,105.0,87.0,-5.0
114.0,123.0,126.0,127.0,136.0,0.0,124.0,127.0,26.0,-99.0,-75.0,126.0,126.0,127.0,105.0,87.0,-5.0
114.0,123.0,126.0,127.0,136.0,0.0,124.0,127.0,26.0,-99.0,-75.0,126.0,126.0,127.0,105.0,87.0,-5.0
114.0,123.0,126.0,127.0,136.0,0.0,124.0,127.0,26.0,-99.0,-75.0,126.0,126.0,127.0,105.0,87.0,-5.0
114.0,123.0,126.0,127.0,136.0,0.0,124.0,127.0,26.0,-99.0,-75.0,126.0,126.0,127.0,105.0,87.0,-5.0
114.0,123.0,126.0,127.0,136.0,0.0,124.0,127.0,26.0,-99.0,-75.0,126.0,126.0,127.0,105.0,87.0,-5.0
114.0,123.0,126.0,127.0,136.0,0.0,124.0,127.0,26.0,-99.0,-75.0,126.0,126.0,127.0,105.0,87.0,-5.0
114.0,123.0,126.0,127.0,136.0,0.0,124.0,127.0,26.0,-99.0,-75.0,126.0,126.0,127.0,105.0,87.0,-5.0
114.0,122.0,126.0,127.0,136.0,0.0,124.0,127.0,26.0,-99.0,-75.0,126.0,126.0,127.0,105.0,87.0,-5.0
114.0,122.0,126.0,127.0,136.0,0.0,124.0,127.0,26.0,-99.0,-75.0,126.0,126.0,127.0,105.0,87.0,-5.0
116.0,125.0,125.0,128.0,134.0,0.0,124.0,127.0,27.0,-99.0,-74.0,126.0,126.0,127.0,105.0,87.0,-5.0
116.0,125.0,126.0,129.0,134.0,0.0,124.0,127.0,27.0,-99.0,-74.0,126.0,126.0,127.0,105.0,87.0,-5.0
117.0,125.0,126.0,129.0,134.0,0.0,124.0,127.0,27.0,-99.0,-74.0,126.0,126.0,127.0,105.0,87.0,-5.0
117.0,125.0,126.0,129.0,134.0,0.0,124.0,127.0,27.0,-99.0,-74.0,126.0,126.0,127.0,105.0,87.0,-5.0
116.0,125.0,125.0,128.0,135.0,0.0,124.0,127.0,27.0,-99.0,-74.0,126.0,126.0,127.0,105.0,87.0,-5.0
116.0,125.0,125.0,129.0,135.0,0.0,124.0,127.0,27.0,-99.0,-74.0,126.0,126.0,127.0,105.0,87.0,-5.0
116.0,125.0,125.0,129.0,135.0,0.0,124.0,127.0,27.0,-99.0,-74.0,126.0,126.0,127.0,105.0,87.0,-5.0
116.0,125.0,126.0,129.0,135.0,0.0,124.0,127.0,27.0,-99.0,-74.0,126.0,126.0,127.0,105.0,87.0,-5.0
116.0,125.0,126.0,129.0,134.0,0.0,124.0,127.0,27.0,-99.0,-74.0,126.0,126.0,127.0,105.0,87.0,-5.0
116.0,125.0,126.0,129.0,134.0,0.0,124.0,127.0,27.0,-99.0,-74.0,126.0,126.0,127.0,105.0,87.0,-5.0
119.0,126.0,125.0,129.0,131.0,0.0,124.0,127.0,27.0,-99.0,-74.0,126.0,126.0,127.0,105.0,87.0,-5.0
119.0,126.0,126.0,129.0,131.0,0.0,124.0,127.0,27.0,-99.0,-74.0,126.0,126.0,127.0,105.0,87.0,-5.0
119.0,126.0,126.0,129.0,131.0,0.0,124.0,127.0,27.0,-99.0,-74.0,126.0,126.0,127.0,105.0,87.0,-5.0
118.0,126.0,125.0,129.0,131.0,0.0,124.0,127.0,27.0,-99.0,-74.0,126.0,126.0,127.0,105.0,87.0,-5.0
118.0,126.0,125.0,129.0,131.0,0.0,124.0,127.0,27.0,-99.0,-74.0,126.0,126.0,127.0,105.0,87.0,-5.0
119.0,126.0,125.0,129.0,131.0,0.0,124.0,127.0,27.0,-99.0,-74.0,126.0,126.0,127.0,105.0,87.0,-5.0
119.0,126.0,125.0,129.0,131.0,0.0,124.0,127.0,27.0,-99.0,-74.0,126.0,126.0,127.0,105.0,87.0,-5.0
119.0,126.0,125.0,129.0,131.0,0.0,124.0,127.0,27.0,-99.0,-74.0,126.0,126.0,127.0,105.0,87.0,-5.0
119.0,126.0,125.0,129.0,131.0,0.0,124.0,127.0,27.0,-99.0,-74.0,126.0,126.0,127.0,105.0,87.0,-5.0
119.0,126.0,125.0,129.0,131.0,0.0,124.0,127.0,27.0,-99.0,-74.0,126.0,126.0,127.0,105.0,87.0,-5.0
121.0,127.0,126.0,129.0,130.0,0.0,125.0,127.0,27.0,-99.0,-74.0,126.0,126.0,127.0,105.0,87.0,-5.0
121.0,127.0,126.0,129.0,130.0,0.0,125.0,127.0,27.0,-99.0,-74.0,126.0,126.0,127.0,105.0,87.0,-5.0
121.0,127.0,125.0,129.0,131.0,0.0,125.0,127.0,27.0,-99.0,-74.0,126.0,126.0,127.0,105.0,87.0,-5.0
121.0,127.0,125.0,129.0,131.0,0.0,125.0,127.0,27.0,-99.0,-74.0,126.0,126.0,127.0,105.0,87.0,-5.0
121.0,127.0,126.0,129.0,131.0,0.0,125.0,127.0,27.0,-99.0,-74.0,126.0,126.0,127.0,105.0,87.0,-5.0
121.0,127.0,126.0,129.0,131.0,0.0,125.0,127.0,27.0,-99.0,-74.0,126.0,126.0,127.0,105.0,87.0,-5.0
121.0,127.0,126.0,129.0,131.0,0.0,125.0,127.0,27.0,-99.0,-74.0,126.0,126.0,127.0,105.0,87.0,-5.0
121.0,127.0,126.0,129.0,131.0,0.0,125.0,127.0,27.0,-99.0,-74.0,126.0,126.0,127.0,105.0,87.0,-5.0
121.0,127.0,126.0,129.0,130.0,0.0,125.0,127.0,27.0,-99.0,-74.0,126.0,126.0,127.0,105.0,87.0,-5.0
121.0,127.0,126.0,129.0,130.0,0.0,124.0,127.0,27.0,-99.0,-74.0,126.0,126.0,127.0,105.0,87.0,-5.0
124.0,127.0,128.0,129.0,128.0,0.0,126.0,128.0,27.0,-100.0,-73.0,126.0,126.0,127.0,106.0,87.0,-5.0
123.0,127.0,127.0,129.0,128.0,0.0,126.0,128.0,27.0,-100.0,-73.0,126.0,126.0,127.0,106.0,87.0,-5.0
123.0,127.0,127.0,129.0,128.0,0.0,126.0,128.0,27.0,-100.0,-73.0,126.0,126.0,127.0,106.0,87.0,-5.0
123.0,127.0,128.0,129.0,128.0,0.0,126.0,128.0,27.0,-100.0,-73.0,126.0,126.0,127.0,106.0,87.0,-5.0
123.0,127.0,128.0,129.0,128.0,0.0,126.0,128.0,27.0,-100.0,-73.0,126.0,126.0,127.0,106.0,87.0,-5.0
123.0,127.0,128.0,129.0,128.0,0.0,126.0,128.0,27.0,-100.0,-73.0,126.0,126.0,127.0,106.0,87.0,-5.0
123.0,127.0,128.0,129.0,128.0,0.0,126.0,127.0,27.0,-100.0,-73.0,126.0,126.0,127.0,106.0,87.0,-5.0
124.0,127.0,128.0,129.0,128.0,0.0,126.0,128.0,27.0,-100.0,-73.0,126.0,126.0,127.0,106.0,87.0,-5.0
124.0,127.0,128.0,129.0,128.0,0.0,126.0,128.0,27.0,-100.0,-73.0,126.0,126.0,127.0,106.0,87.0,-5.0
123.0,127.0,128.0,129.0,128.0,0.0,126.0,128.0,27.0,-100.0,-73.0,126.0,126.0,127.0,106.0,87.0,-5.0
123.0,128.0,129.0,130.0,127.0,0.0,127.0,128.0,28.0,-101.0,-73.0,126.0,126.0,127.0,106.0,87.0,-5.0
123.0,128.0,129.0,130.0,127.0,0.0,127.0,128.0,28.0,-101.0,-73.0,126.0,126.0,127.0,106.0,87.0,-5.0
123.0,128.0,129.0,130.0,127.0,0.0,127.0,128.0,28.0,-101.0,-73.0,126.0,126.0,127.0,106.0,87.0,-5.0
123.0,128.0,128.0,130.0,127.0,0.0,127.0,128.0,28.0,-101.0,-73.0,126.0,126.0,127.0,106.0,87.0,-5.0
123.0,128.0,128.0,130.0,127.0,0.0,126.0,127.0,28.0,-101.0,-73.0,126.0,126.0,127.0,106.0,87.0,-5.0
123.0,128.0,128.0,130.0,127.0,0.0,126.0,128.0,28.0,-101.0,-73.0,126.0,126.0,127.0,106.0,87.0,-5.0
124.0,128.0,128.0,130.0,126.0,0.0,127.0,128.0,28.0,-101.0,-73.0,126.0,126.0,127.0,106.0,87.0,-5.0
124.0,128.0,128.0,130.0,126.0,0.0,127.0,128.0,28.0,-101.0,-73.0,126.0,126.0,127.0,106.0,87.0,-5.0
124.0,128.0,128.0,129.0,126.0,0.0,127.0,128.0,28.0,-101.0,-73.0,126.0,126.0,127.0,106.0,87.0,-5.0
124.0,128.0,128.0,130.0,126.0,0.0,127.0,128.0,28.0,-101.0,-73.0,126.0,126.0,127.0,106.0,87.0,-5.0
125.0,127.0,128.0,129.0,125.0,0.0,126.0,127.0,28.0,-101.0,-72.0,126.0,126.0,127.0,106.0,87.0,-5.0
125.0,127.0,128.0,129.0,125.0,0.0,126.0,127.0,28.0,-101.0,-72.0,126.0,126.0,127.0,106.0,87.0,-5.0
124.0,127.0,128.0,129.0,124.0,0.0,126.0,127.0,28.0,-101.0,-72.0,126.0,126.0,127.0,106.0,87.0,-5.0
124.0,127.0,128.0,129.0,124.0,0.0,126.0,127.0,28.0,-101.0,-72.0,126.0,126.0,127.0,106.0,87.0,-5.0
125.0,127.0,128.0,129.0,124.0,0.0,126.0,127.0,28.0,-101.0,-72.0,126.0,126.0,127.0,106.0,87.0,-5.0
125.0,127.0,128.0,129.0,124.0,0.0,126.0,127.0,28.0,-101.0,-72.0,126.0,126.0,127.0,106.0,87.0,-5.0
125.0,127.0,128.0,129.0,124.0,0.0,126.0,127.0,28.0,-101.0,-72.0,126.0,126.0,127.0,106.0,87.0,-5.0
125.0,127.0,128.0,129.0,124.0,0.0,126.0,127.0,28.0,-101.0,-72.0,126.0,126.0,127.0,106.0,87.0,-5.0
125.0,127.0,128.0,129.0,124.0,0.0,126.0,127.0,28.0,-101.0,-72.0,126.0,126.0,127.0,106.0,87.0,-5.0
125.0,127.0,128.0,129.0,125.0,0.0,126.0,127.0,28.0,-101.0,-72.0,126.0,126.0,127.0,106.0,87.0,-5.0
125.0,127.0,127.0,128.0,123.0,0.0,125.0,127.0,28.0,-102.0,-72.0,126.0,126.0,127.0,107.0,87.0,-5.0
125.0,127.0,127.0,128.0,123.0,0.0,125.0,127.0,28.0,-102.0,-72.0,126.0,126.0,127.0,107.0,87.0,-5.0
125.0,127.0,126.0,128.0,123.0,0.0,125.0,127.0,28.0,-102.0,-72.0,126.0,126.0,127.0,107.0,87.0,-5.0
125.0,127.0,126.0,128.0,123.0,0.0,125.0,127.0,28.0,-102.0,-72.0,126.0,126.0,127.0,107.0,87.0,-5.0
125.0,127.0,126.0,128.0,123.0,0.0,125.0,127.0,28.0,-102.0,-72.0,126.0,126.0,127.0,107.0,87.0,-5.0
125.0,127.0,126.0,128.0,123.0,0.0,125.0,127.0,28.0,-102.0,-72.0,126.0,126.0,127.0,107.0,87.0,-5.0
125.0,127.0,127.0,128.0,123.0,0.0,125.0,127.0,28.0,-102.0,-72.0,126.0,126.0,127.0,107.0,87.0,-5.0
125.0,127.0,127.0,128.0,123.0,0.0,125.0,127.0,28.0,-102.0,-72.0,126.0,126.0,127.0,107.0,87.0,-5.0
125.0,127.0,127.0,128.0,123.0,0.0,125.0,127.0,28.0,-102.0,-72.0,126.0,126.0,127.0,107.0,87.0,-5.0
125.0,127.0,127.0,128.0,123.0,0.0,125.0,127.0,28.0,-102.0,-72.0,126.0,126.0,127.0,107.0,87.0,-5.0
124.0,127.0,127.0,129.0,124.0,0.0,126.0,127.0,29.0,-102.0,-71.0,126.0,126.0,127.0,107.0,87.0,-5.0
124.0,127.0,127.0,129.0,124.0,0.0,126.0,127.0,29.0,-102.0,-71.0,126.0,126.0,127.0,107.0,87.0,-5.0
124.0,127.0,127.0,129.0,124.0,0.0,126.0,127.0,29.0,-102.0,-71.0,126.0,126.0,127.0,107.0,87.0,-5.0
124.0,127.0,127.0,129.0,124.0,0.0,126.0,127.0,29.0,-102.0,-71.0,126.0,126.0,127.0,107.0,87.0,-5.0
124.0,127.0,127.0,129.0,124.0,0.0,126.0,127.0,29.0,-102.0,-71.0,126.0,126.0,127.0,107.0,87.0,-5.0
124.0,127.0,127.0,129.0,124.0,0.0,126.0,127.0,29.0,-102.0,-71.0,126.0,126.0,127.0,107.0,87.0,-5.0
124.0,127.0,127.0,129.0,124.0,0.0,126.0,127.0,29.0,-102.0,-71.0,126.0,126.0,127.0,107.0,87.0,-5.0
124.0,127.0,127.0,129.0,124.0,0.0,126.0,127.0,29.0,-102.0,-71.0,126.0,126.0,127.0,107.0,87.0,-5.0
124.0,127.0,127.0,129.0,124.0,0.0,126.0,127.0,29.0,-102.0,-71.0,126.0,126.0,127.0,107.0,87.0,-5.0
124.0,127.0,127.0,129.0,124.0,0.0,126.0,127.0,29.0,-102.0,-71.0,126.0,126.0,127.0,107.0,87.0,-5.0
125.0,127.0,128.0,129.0,125.0,0.0,127.0,127.0,29.0,-102.0,-71.0,126.0,126.0,127.0,108.0,87.0,-5.0
125.0,128.0,128.0,129.0,125.0,0.0,127.0,127.0,29.0,-102.0,-71.0,126.0,126.0,127.0,108.0,87.0,-5.0
125.0,128.0,128.0,130.0,125.0,0.0,127.0,127.0,29.0,-102.0,-71.0,126.0,126.0,127.0,108.0,87.0,-5.0
125.0,128.0,128.0,130.0,125.0,0.0,127.0,127.0,29.0,-102.0,-71.0,126.0,126.0,127.0,108.0,87.0,-5.0
125.0,128.0,128.0,130.0,125.0,0.0,127.0,127.0,29.0,-102.0,-71.0,126.0,126.0,127.0,108.0,87.0,-5.0
126.0,128.0,127.0,130.0,125.0,0.0,127.0,128.0,29.0,-102.0,-71.0,126.0,126.0,127.0,108.0,87.0,-5.0
125.0,127.0,128.0,129.0,124.0,0.0,127.0,127.0,29.0,-102.0,-71.0,126.0,126.0,127.0,108.0,87.0,-5.0
125.0,127.0,128.0,129.0,124.0,0.0,127.0,127.0,29.0,-102.0,-71.0,126.0,126.0,127.0,108.0,87.0,-5.0
125.0,127.0,128.0,129.0,124.0,0.0,127.0,127.0,29.0,-102.0,-71.0,126.0,126.0,127.0,108.0,87.0,-5.0
125.0,127.0,128.0,129.0,125.0,0.0,127.0,127.0,29.0,-102.0,-71.0,126.0,126.0,127.0,108.0,87.0,-5.0
129.0,128.0,127.0,129.0,125.0,0.0,127.0,127.0,30.0,-102.0,-70.0,126.0,126.0,127.0,108.0,87.0,-5.0
129.0,128.0,127.0,129.0,125.0,0.0,127.0,127.0,30.0,-102.0,-70.0,126.0,126.0,127.0,108.0,87.0,-5.0
129.0,128.0,127.0,129.0,125.0,0.0,127.0,127.0,30.0,-102.0,-70.0,126.0,126.0,127.0,108.0,87.0,-5.0
129.0,127.0,127.0,129.0,125.0,0.0,127.0,127.0,30.0,-102.0,-70.0,126.0,126.0,127.0,108.0,87.0,-5.0
129.0,127.0,127.0,129.0,125.0,0.0,127.0,127.0,30.0,-102.0,-70.0,126.0,126.0,127.0,108.0,87.0,-5.0
129.0,128.0,127.0,129.0,125.0,0.0,127.0,127.0,30.0,-102.0,-70.0,126.0,126.0,127.0,108.0,87.0,-5.0
129.0,128.0,127.0,129.0,125.0,0.0,127.0,127.0,30.0,-102.0,-70.0,126.0,126.0,127.0,108.0,87.0,-5.0
129.0,128.0,127.0,129.0,125.0,0.0,127.0,127.0,30.0,-102.0,-70.0,126.0,126.0,127.0,108.0,87.0,-5.0
129.0,128.0,127.0,129.0,125.0,0.0,127.0,127.0,30.0,-102.0,-70.0,126.0,126.0,127.0,108.0,87.0,-5.0
129.0,128.0,127.0,129.0,125.0,0.0,127.0,127.0,30.0,-102.0,-70.0,126.0,126.0,127.0,108.0,87.0,-5.0
126.0,128.0,127.0,129.0,125.0,0.0,127.0,127.0,30.0,-102.0,-70.0,126.0,127.0,127.0,108.0,87.0,-5.0
126.0,128.0,127.0,129.0,125.0,0.0,127.0,127.0,30.0,-102.0,-70.0,126.0,127.0,127.0,108.0,87.0,-5.0
126.0,127.0,127.0,129.0,125.0,0.0,127.0,127.0,30.0,-102.0,-70.0,126.0,127.0,127.0,108.0,87.0,-5.0
126.0,127.0,127.0,129.0,125.0,0.0,127.0,127.0,30.0,-102.0,-70.0,126.0,127.0,127.0,108.0,87.0,-5.0
126.0,127.0,127.0,129.0,125.0,0.0,127.0,127.0,30.0,-102.0,-70.0,126.0,127.0,127.0,108.0,87.0,-5.0
126.0,127.0,127.0,129.0,125.0,0.0,127.0,127.0,30.0,-102.0,-70.0,126.0,127.0,127.0,108.0,87.0,-5.0
126.0,127.0,127.0,129.0,125.0,0.0,127.0,127.0,30.0,-102.0,-70.0,126.0,127.0,127.0,108.0,87.0,-5.0
126.0,127.0,127.0,129.0,125.0,0.0,127.0,127.0,30.0,-102.0,-70.0,126.0,127.0,127.0,108.0,87.0,-5.0
126.0,127.0,127.0,129.0,125.0,0.0,127.0,127.0,30.0,-102.0,-70.0,126.0,127.0,127.0,108.0,87.0,-5.0
126.0,128.0,127.0,129.0,125.0,0.0,127.0,127.0,30.0,-102.0,-70.0,126.0,127.0,127.0,108.0,87.0,-5.0
124.0,127.0,127.0,129.0,126.0,0.0,127.0,127.0,31.0,-102.0,-69.0,127.0,127.0,127.0,108.0,87.0,-5.0
124.0,127.0,127.0,129.0,126.0,0.0,127.0,127.0,31.0,-102.0,-69.0,127.0,127.0,127.0,108.0,87.0,-5.0
124.0,127.0,127.0,129.0,126.0,0.0,127.0,127.0,31.0,-102.0,-69.0,127.0,127.0,127.0,108.0,87.0,-5.0
124.0,127.0,127.0,129.0,126.0,0.0,127.0,127.0,31.0,-102.0,-69.0,127.0,127.0,127.0,108.0,87.0,-5.0
124.0,127.0,127.0,129.0,126.0,0.0,127.0,127.0,31.0,-102.0,-69.0,127.0,127.0,127.0,108.0,87.0,-5.0
124.0,127.0,127.0,129.0,126.0,0.0,127.0,127.0,31.0,-102.0,-69.0,127.0,127.0,127.0,108.0,87.0,-5.0
124.0,127.0,127.0,129.0,126.0,0.0,127.0,127.0,31.0,-102.0,-69.0,127.0,127.0,127.0,108.0,87.0,-5.0
124.0,127.0,127.0,129.0,126.0,0.0,127.0,127.0,31.0,-102.0,-69.0,127.0,127.0,127.0,108.0,87.0,-5.0
124.0,127.0,127.0,129.0,126.0,0.0,127.0,127.0,31.0,-102.0,-69.0,127.0,127.0,127.0,108.0,87.0,-5.0
124.0,127.0,127.0,129.0,126.0,0.0,127.0,127.0,31.0,-102.0,-69.0,127.0,127.0,127.0,108.0,87.0,-5.0
124.0,126.0,126.0,130.0,126.0,0.0,127.0,127.0,31.0,-102.0,-69.0,127.0,127.0,127.0,108.0,87.0,-5.0
124.0,126.0,126.0,130.0,126.0,0.0,127.0,127.0,31.0,-102.0,-69.0,127.0,127.0,127.0,108.0,87.0,-5.0
124.0,126.0,126.0,130.0,126.0,0.0,127.0,127.0,31.0,-102.0,-69.0,127.0,127.0,127.0,108.0,87.0,-5.0
124.0,126.0,126.0,130.0,126.0,0.0,127.0,127.0,31.0,-102.0,-69.0,127.0,127.0,127.0,108.0,87.0,-5.0
124.0,127.0,126.0,130.0,126.0,0.0,127.0,127.0,31.0,-102.0,-69.0,127.0,127.0,127.0,108.0,87.0,-5.0
124.0,127.0,126.0,130.0,126.0,0.0,127.0,127.0,31.0,-102.0,-69.0,127.0,127.0,127.0,108.0,87.0,-5.0
124.0,127.0,126.0,130.0,126.0,0.0,127.0,127.0,31.0,-102.0,-69.0,127.0,127.0,127.0,108.0,87.0,-5.0
124.0,127.0,126.0,130.0,126.0,0.0,127.0,127.0,31.0,-102.0,-69.0,127.0,127.0,127.0,108.0,87.0,-5.0
124.0,127.0,126.0,130.0,126.0,0.0,127.0,127.0,31.0,-102.0,-69.0,127.0,127.0,127.0,108.0,87.0,-5.0
124.0,127.0,126.0,130.0,126.0,0.0,127.0,127.0,31.0,-102.0,-69.0,127.0,127.0,127.0,108.0,87.0,-5.0
125.0,126.0,124.0,130.0,127.0,0.0,128.0,128.0,32.0,-102.0,-68.0,127.0,127.0,127.0,109.0,87.0,-5.0
125.0,127.0,124.0,130.0,127.0,0.0,127.0,127.0,32.0,-102.0,-68.0,127.0,127.0,127.0,109.0,87.0,-5.0
125.0,127.0,124.0,130.0,127.0,0.0,127.0,127.0,32.0,-102.0,-68.0,127.0,127.0,127.0,109.0,87.0,-5.0
125.0,127.0,124.0,130.0,127.0,0.0,127.0,127.0,32.0,-102.0,-68.0,127.0,127.0,127.0,109.0,87.0,-5.0
125.0,127.0,124.0,130.0,127.0,0.0,127.0,127.0,32.0,-102.0,-68.0,127.0,127.0,127.0,109.0,87.0,-5.0
125.0,127.0,124.0,130.0,127.0,0.0,127.0,128.0,32.0,-102.0,-68.0,127.0,127.0,127.0,109.0,87.0,-5.0
125.0,127.0,124.0,130.0,127.0,0.0,128.0,128.0,32.0,-102.0,-68.0,127.0,127.0,127.0,109.0,87.0,-5.0
125.0,127.0,124.0,130.0,127.0,0.0,128.0,128.0,32.0,-102.0,-68.0,127.0,127.0,127.0,109.0,87.0,-5.0
125.0,127.0,124.0,130.0,127.0,0.0,128.0,128.0,32.0,-102.0,-68.0,127.0,127.0,127.0,109.0,87.0,-5.0
125.0,127.0,124.0,130.0,127.0,0.0,128.0,128.0,32.0,-102.0,-68.0,127.0,127.0,127.0,109.0,87.0,-5.0
126.0,128.0,124.0,131.0,127.0,0.0,126.0,127.0,32.0,-102.0,-68.0,127.0,127.0,127.0,109.0,87.0,-5.0
126.0,128.0,124.0,131.0,127.0,0.0,127.0,127.0,32.0,-102.0,-68.0,127.0,127.0,127.0,109.0,87.0,-5.0
126.0,127.0,124.0,131.0,127.0,0.0,127.0,127.0,32.0,-102.0,-68.0,127.0,127.0,127.0,109.0,87.0,-5.0
126.0,127.0,124.0,131.0,127.0,0.0,126.0,127.0,32.0,-102.0,-68.0,127.0,127.0,127.0,109.0,87.0,-5.0
125.0,127.0,124.0,131.0,127.0,0.0,127.0,127.0,32.0,-102.0,-68.0,127.0,127.0,127.0,109.0,87.0,-5.0
125.0,127.0,124.0,131.0,127.0,0.0,127.0,127.0,32.0,-102.0,-68.0,127.0,127.0,127.0,109.0,87.0,-5.0
125.0,127.0,124.0,131.0,127.0,0.0,126.0,127.0,32.0,-102.0,-68.0,127.0,127.0,127.0,109.0,87.0,-5.0
125.0,127.0,124.0,131.0,127.0,0.0,127.0,127.0,32.0,-102.0,-68.0,127.0,127.0,127.0,109.0,87.0,-5.0
125.0,127.0,124.0,131.0,127.0,0.0,127.0,127.0,32.0,-102.0,-68.0,127.0,127.0,127.0,109.0,87.0,-5.0
125.0,127.0,124.0,131.0,127.0,0.0,127.0,127.0,32.0,-102.0,-68.0,127.0,127.0,127.0,109.0,87.0,-5.0
125.0,127.0,125.0,130.0,126.0,0.0,126.0,127.0,32.0,-102.0,-68.0,127.0,127.0,127.0,110.0,87.0,-5.0
125.0,127.0,125.0,130.0,126.0,0.0,126.0,127.0,32.0,-102.0,-68.0,127.0,127.0,127.0,110.0,87.0,-5.0
125.0,127.0,126.0,130.0,126.0,0.0,126.0,127.0,32.0,-102.0,-68.0,127.0,127.0,127.0,110.0,87.0,-5.0
125.0,127.0,126.0,130.0,126.0,0.0,126.0,127.0,32.0,-102.0,-68.0,127.0,127.0,127.0,110.0,87.0,-5.0
125.0,127.0,126.0,130.0,126.0,0.0,126.0,127.0,32.0,-102.0,-68.0,127.0,127.0,127.0,110.0,87.0,-5.0
125.0,127.0,126.0,130.0,126.0,0.0,126.0,127.0,32.0,-102.0,-68.0,127.0,127.0,127.0,110.0,87.0,-5.0
125.0,127.0,127.0,130.0,126.0,0.0,126.0,127.0,32.0,-102.0,-68.0,127.0,127.0,127.0,110.0,87.0,-5.0
125.0,127.0,127.0,130.0,126.0,0.0,126.0,127.0,32.0,-102.0,-68.0,127.0,127.0,127.0,110.0,87.0,-5.0
125.0,127.0,127.0,130.0,126.0,0.0,126.0,127.0,32.0,-102.0,-68.0,127.0,127.0,127.0,110.0,87.0,-5.0
125.0,127.0,125.0,130.0,126.0,0.0,126.0,127.0,32.0,-102.0,-68.0,127.0,127.0,127.0,110.0,87.0,-5.0
125.0,127.0,127.0,130.0,127.0,0.0,126.0,127.0,32.0,-102.0,-68.0,127.0,127.0,127.0,110.0,87.0,-5.0
125.0,127.0,127.0,130.0,126.0,0.0,126.0,127.0,32.0,-102.0,-68.0,127.0,127.0,127.0,110.0,87.0,-5.0
125.0,127.0,127.0,130.0,126.0,0.0,126.0,127.0,32.0,-102.0,-68.0,127.0,127.0,127.0,110.0,87.0,-5.0
125.0,127.0,127.0,130.0,126.0,0.0,126.0,127.0,32.0,-102.0,-68.0,127.0,127.0,127.0,110.0,87.0,-5.0
125.0,127.0,127.0,130.0,126.0,0.0,126.0,127.0,32.0,-102.0,-68.0,127.0,127.0,127.0,110.0,87.0,-5.0
125.0,127.0,127.0,130.0,126.0,0.0,126.0,127.0,32.0,-102.0,-68.0,127.0,127.0,127.0,110.0,87.0,-5.0
125.0,127.0,127.0,130.0,126.0,0.0,126.0,127.0,32.0,-102.0,-68.0,127.0,127.0,127.0,110.0,87.0,-5.0
125.0,127.0,127.0,130.0,126.0,0.0,126.0,127.0,32.0,-102.0,-68.0,127.0,127.0,127.0,110.0,87.0,-5.0
125.0,128.0,127.0,130.0,127.0,0.0,126.0,127.0,32.0,-102.0,-68.0,127.0,127.0,127.0,110.0,87.0,-5.0
125.0,128.0,127.0,130.0,127.0,0.0,126.0,127.0,32.0,-102.0,-68.0,127.0,127.0,127.0,110.0,87.0,-5.0
125.0,128.0,121.0,131.0,126.0,0.0,126.0,127.0,32.0,-102.0,-68.0,127.0,127.0,127.0,110.0,87.0,-5.0
125.0,128.0,121.0,131.0,126.0,0.0,126.0,127.0,32.0,-102.0,-68.0,127.0,127.0,127.0,110.0,87.0,-5.0
125.0,128.0,121.0,131.0,126.0,0.0,126.0,127.0,32.0,-102.0,-68.0,127.0,127.0,127.0,110.0,87.0,-5.0
125.0,128.0,121.0,131.0,126.0,0.0,126.0,127.0,32.0,-102.0,-68.0,127.0,127.0,127.0,110.0,87.0,-5.0
125.0,128.0,120.0,131.0,126.0,0.0,126.0,127.0,32.0,-102.0,-68.0,127.0,127.0,127.0,110.0,87.0,-5.0
125.0,127.0,120.0,131.0,126.0,0.0,126.0,127.0,32.0,-102.0,-68.0,127.0,127.0,127.0,110.0,87.0,-5.0
125.0,128.0,121.0,130.0,126.0,0.0,126.0,127.0,32.0,-102.0,-68.0,127.0,127.0,127.0,110.0,87.0,-5.0
125.0,128.0,121.0,130.0,126.0,0.0,126.0,127.0,32.0,-102.0,-68.0,127.0,127.0,127.0,110.0,87.0,-5.0
125.0,128.0,121.0,130.0,126.0,0.0,126.0,127.0,32.0,-102.0,-68.0,127.0,127.0,127.0,110.0,87.0,-5.0
125.0,128.0,121.0,130.0,126.0,0.0,126.0,127.0,32.0,-102.0,-68.0,127.0,127.0,127.0,110.0,87.0,-5.0
124.0,128.0,127.0,131.0,126.0,0.0,126.0,128.0,32.0,-102.0,-68.0,127.0,127.0,127.0,111.0,87.0,-5.0
124.0,128.0,127.0,131.0,126.0,0.0,126.0,128.0,32.0,-102.0,-68.0,127.0,127.0,127.0,111.0,87.0,-5.0
124.0,128.0,127.0,131.0,126.0,0.0,126.0,128.0,32.0,-102.0,-68.0,127.0,127.0,127.0,111.0,87.0,-5.0
124.0,128.0,127.0,131.0,126.0,0.0,126.0,128.0,32.0,-102.0,-68.0,127.0,127.0,127.0,111.0,87.0,-5.0
124.0,128.0,127.0,131.0,126.0,0.0,126.0,128.0,32.0,-102.0,-68.0,127.0,127.0,127.0,111.0,87.0,-5.0
124.0,128.0,126.0,131.0,126.0,0.0,126.0,128.0,32.0,-102.0,-68.0,127.0,127.0,127.0,111.0,87.0,-5.0
124.0,128.0,126.0,131.0,126.0,0.0,126.0,128.0,32.0,-102.0,-68.0,127.0,127.0,127.0,111.0,87.0,-5.0
124.0,128.0,126.0,131.0,126.0,0.0,126.0,128.0,32.0,-102.0,-68.0,127.0,127.0,127.0,111.0,87.0,-5.0
124.0,128.0,126.0,131.0,126.0,0.0,126.0,128.0,32.0,-102.0,-68.0,127.0,127.0,127.0,111.0,87.0,-5.0
124.0,128.0,126.0,131.0,126.0,0.0,126.0,127.0,32.0,-102.0,-68.0,127.0,127.0,127.0,111.0,87.0,-5.0
125.0,127.0,131.0,130.0,126.0,0.0,127.0,127.0,32.0,-102.0,-68.0,127.0,127.0,127.0,111.0,87.0,-5.0
125.0,127.0,131.0,130.0,126.0,0.0,127.0,127.0,32.0,-102.0,-68.0,127.0,127.0,127.0,111.0,87.0,-5.0
125.0,127.0,131.0,130.0,126.0,0.0,127.0,127.0,32.0,-102.0,-68.0,127.0,127.0,127.0,111.0,87.0,-5.0
125.0,128.0,131.0,130.0,126.0,0.0,127.0,127.0,32.0,-102.0,-68.0,127.0,127.0,127.0,111.0,87.0,-5.0
125.0,127.0,130.0,130.0,126.0,0.0,127.0,127.0,32.0,-102.0,-68.0,127.0,127.0,127.0,111.0,87.0,-5.0
125.0,127.0,130.0,130.0,126.0,0.0,127.0,127.0,32.0,-102.0,-68.0,127.0,127.0,127.0,111.0,87.0,-5.0
125.0,127.0,130.0,130.0,126.0,0.0,127.0,127.0,32.0,-102.0,-68.0,127.0,127.0,127.0,111.0,87.0,-5.0
125.0,127.0,130.0,130.0,126.0,0.0,127.0,127.0,32.0,-102.0,-68.0,127.0,127.0,127.0,111.0,87.0,-5.0
125.0,127.0,131.0,130.0,126.0,0.0,127.0,127.0,32.0,-102.0,-68.0,127.0,127.0,127.0,111.0,87.0,-5.0
125.0,127.0,131.0,130.0,126.0,0.0,127.0,127.0,32.0,-102.0,-68.0,127.0,127.0,127.0,111.0,87.0,-5.0
125.0,127.0,129.0,130.0,126.0,0.0,126.0,127.0,32.0,-102.0,-68.0,127.0,127.0,127.0,111.0,87.0,-5.0
125.0,127.0,129.0,130.0,127.0,0.0,126.0,127.0,32.0,-102.0,-68.0,127.0,127.0,127.0,111.0,87.0,-5.0
125.0,127.0,129.0,130.0,127.0,0.0,126.0,127.0,32.0,-102.0,-68.0,127.0,127.0,127.0,111.0,87.0,-5.0
125.0,127.0,129.0,130.0,127.0,0.0,126.0,127.0,32.0,-102.0,-68.0,127.0,127.0,127.0,111.0,87.0,-5.0
125.0,127.0,129.0,130.0,127.0,0.0,126.0,127.0,32.0,-102.0,-68.0,127.0,127.0,127.0,111.0,87.0,-5.0
125.0,127.0,129.0,130.0,127.0,0.0,126.0,127.0,32.0,-102.0,-68.0,127.0,127.0,127.0,111.0,87.0,-5.0
125.0,127.0,129.0,130.0,127.0,0.0,126.0,127.0,32.0,-102.0,-68.0,127.0,127.0,127.0,111.0,87.0,-5.0
125.0,127.0,129.0,130.0,127.0,0.0,126.0,127.0,32.0,-102.0,-68.0,127.0,127.0,127.0,111.0,87.0,-5.0
125.0,127.0,129.0,130.0,127.0,0.0,126.0,127.0,32.0,-102.0,-68.0,127.0,127.0,127.0,111.0,87.0,-5.0
125.0,127.0,129.0,130.0,127.0,0.0,126.0,127.0,32.0,-102.0,-68.0,127.0,127.0,127.0,111.0,87.0,-5.0
124.0,127.0,126.0,130.0,126.0,63.0,126.0,127.0,32.0,-102.0,-68.0,127.0,127.0,127.0,111.0,87.0,-5.0
124.0,127.0,126.0,130.0,126.0,65.0,126.0,127.0,32.0,-102.0,-68.0,127.0,127.0,127.0,111.0,87.0,-5.0
124.0,127.0,127.0,130.0,126.0,48.0,126.0,127.0,32.0,-102.0,-68.0,127.0,127.0,127.0,111.0,87.0,-5.0
124.0,128.0,127.0,130.0,126.0,51.0,126.0,127.0,32.0,-102.0,-68.0,127.0,127.0,127.0,111.0,87.0,-5.0
124.0,128.0,127.0,130.0,126.0,53.0,126.0,127.0,32.0,-102.0,-68.0,127.0,127.0,127.0,111.0,87.0,-5.0
124.0,127.0,127.0,130.0,126.0,55.0,126.0,127.0,32.0,-102.0,-68.0,127.0,127.0,127.0,111.0,87.0,-5.0
124.0,127.0,127.0,130.0,126.0,57.0,126.0,127.0,32.0,-102.0,-68.0,127.0,127.0,127.0,111.0,87.0,-5.0
124.0,127.0,126.0,130.0,126.0,59.0,126.0,127.0,32.0,-102.0,-68.0,127.0,127.0,127.0,111.0,87.0,-5.0
124.0,127.0,126.0,130.0,126.0,60.0,126.0,127.0,32.0,-102.0,-68.0,127.0,127.0,127.0,111.0,87.0,-5.0
124.0,127.0,126.0,130.0,126.0,62.0,126.0,127.0,32.0,-102.0,-68.0,127.0,127.0,127.0,111.0,87.0,-5.0
124.0,128.0,124.0,130.0,126.0,119.0,127.0,127.0,32.0,-102.0,-68.0,127.0,127.0,127.0,111.0,87.0,-5.0
124.0,128.0,123.0,130.0,127.0,113.0,127.0,127.0,32.0,-102.0,-68.0,127.0,127.0,127.0,111.0,87.0,-5.0
124.0,128.0,123.0,130.0,127.0,115.0,126.0,127.0,32.0,-102.0,-68.0,127.0,127.0,127.0,111.0,87.0,-5.0
124.0,129.0,123.0,130.0,127.0,116.0,126.0,127.0,32.0,-102.0,-68.0,127.0,127.0,127.0,111.0,87.0,-5.0
124.0,129.0,123.0,130.0,127.0,117.0,127.0,127.0,32.0,-102.0,-68.0,127.0,127.0,127.0,111.0,87.0,-5.0
124.0,128.0,124.0,130.0,126.0,117.0,127.0,127.0,32.0,-102.0,-68.0,127.0,127.0,127.0,111.0,87.0,-5.0
124.0,128.0,124.0,130.0,126.0,118.0,127.0,127.0,32.0,-102.0,-68.0,127.0,127.0,127.0,111.0,87.0,-5.0
124.0,128.0,124.0,130.0,126.0,118.0,127.0,127.0,32.0,-102.0,-68.0,127.0,127.0,127.0,111.0,87.0,-5.0
124.0,128.0,124.0,130.0,126.0,118.0,127.0,127.0,32.0,-102.0,-68.0,127.0,127.0,127.0,111.0,87.0,-5.0
124.0,128.0,124.0,130.0,126.0,119.0,127.0,127.0,32.0,-102.0,-68.0,127.0,127.0,127.0,111.0,87.0,-5.0
124.0,128.0,124.0,129.0,126.0,131.0,127.0,127.0,32.0,-102.0,-68.0,127.0,127.0,127.0,111.0,87.0,-5.0
124.0,128.0,123.0,129.0,126.0,132.0,127.0,127.0,32.0,-102.0,-68.0,127.0,127.0,127.0,111.0,87.0,-5.0
124.0,128.0,124.0,129.0,126.0,133.0,127.0,127.0,32.0,-102.0,-68.0,127.0,127.0,127.0,111.0,87.0,-5.0
124.0,128.0,124.0,129.0,126.0,133.0,127.0,127.0,32.0,-102.0,-68.0,127.0,127.0,127.0,111.0,87.0,-5.0
124.0,127.0,124.0,129.0,126.0,133.0,127.0,127.0,32.0,-102.0,-68.0,127.0,127.0,127.0,111.0,87.0,-5.0
124.0,127.0,124.0,129.0,126.0,133.0,127.0,127.0,32.0,-102.0,-68.0,127.0,127.0,127.0,111.0,87.0,-5.0
124.0,127.0,124.0,129.0,126.0,133.0,127.0,127.0,32.0,-102.0,-68.0,127.0,127.0,127.0,111.0,87.0,-5.0
124.0,127.0,124.0,129.0,126.0,133.0,127.0,127.0,32.0,-102.0,-68.0,127.0,127.0,127.0,111.0,87.0,-5.0
124.0,127.0,124.0,129.0,126.0,133.0,127.0,127.0,32.0,-102.0,-68.0,127.0,127.0,127.0,111.0,87.0,-5.0
124.0,127.0,124.0,129.0,126.0,133.0,127.0,127.0,32.0,-102.0,-68.0,127.0,127.0,127.0,111.0,87.0,-5.0
125.0,129.0,123.0,130.0,127.0,136.0,127.0,127.0,32.0,-102.0,-68.0,127.0,127.0,127.0,111.0,87.0,-5.0
125.0,129.0,123.0,130.0,127.0,137.0,127.0,127.0,32.0,-102.0,-68.0,127.0,127.0,127.0,111.0,87.0,-5.0
125.0,129.0,123.0,130.0,127.0,137.0,127.0,127.0,32.0,-102.0,-68.0,127.0,127.0,127.0,111.0,87.0,-5.0
125.0,129.0,124.0,130.0,126.0,137.0,127.0,127.0,32.0,-102.0,-68.0,127.0,127.0,127.0,111.0,87.0,-5.0
125.0,129.0,124.0,130.0,126.0,137.0,127.0,127.0,32.0,-102.0,-68.0,127.0,127.0,127.0,111.0,87.0,-5.0
125.0,129.0,124.0,130.0,126.0,137.0,127.0,127.0,32.0,-102.0,-68.0,127.0,127.0,127.0,111.0,87.0,-5.0
125.0,129.0,124.0,130.0,126.0,137.0,127.0,127.0,32.0,-102.0,-68.0,127.0,127.0,127.0,111.0,87.0,-5.0
125.0,129.0,124.0,130.0,126.0,137.0,127.0,127.0,32.0,-102.0,-68.0,127.0,127.0,127.0,111.0,87.0,-5.0
125.0,129.0,124.0,130.0,126.0,137.0,127.0,127.0,32.0,-102.0,-68.0,127.0,127.0,127.0,111.0,87.0,-5.0
125.0,129.0,123.0,130.0,127.0,135.0,127.0,127.0,32.0,-102.0,-68.0,127.0,127.0,127.0,111.0,87.0,-5.0
124.0,128.0,125.0,130.0,127.0,144.0,127.0,127.0,32.0,-102.0,-68.0,127.0,127.0,127.0,111.0,87.0,-5.0
124.0,128.0,125.0,130.0,127.0,145.0,127.0,127.0,32.0,-102.0,-68.0,127.0,127.0,127.0,111.0,87.0,-5.0
124.0,128.0,125.0,130.0,127.0,145.0,127.0,127.0,32.0,-102.0,-68.0,127.0,127.0,127.0,111.0,87.0,-5.0
124.0,128.0,125.0,130.0,127.0,145.0,127.0,127.0,32.0,-102.0,-68.0,127.0,127.0,127.0,111.0,87.0,-5.0
124.0,128.0,125.0,130.0,127.0,145.0,127.0,127.0,32.0,-102.0,-68.0,127.0,127.0,127.0,111.0,87.0,-5.0
124.0,127.0,125.0,130.0,127.0,145.0,127.0,127.0,32.0,-102.0,-68.0,127.0,127.0,127.0,111.0,87.0,-5.0
124.0,127.0,125.0,130.0,127.0,145.0,127.0,127.0,32.0,-102.0,-68.0,127.0,127.0,127.0,111.0,87.0,-5.0
124.0,127.0,125.0,130.0,127.0,145.0,127.0,127.0,32.0,-102.0,-68.0,127.0,127.0,127.0,111.0,87.0,-5.0
124.0,128.0,125.0,130.0,126.0,143.0,127.0,127.0,32.0,-102.0,-68.0,127.0,127.0,127.0,111.0,87.0,-5.0
124.0,128.0,125.0,130.0,127.0,143.0,127.0,127.0,32.0,-102.0,-68.0,127.0,127.0,127.0,111.0,87.0,-5.0
123.0,127.0,119.0,130.0,128.0,151.0,127.0,127.0,32.0,-102.0,-68.0,127.0,127.0,127.0,111.0,87.0,-5.0
123.0,127.0,119.0,129.0,128.0,150.0,127.0,127.0,32.0,-102.0,-68.0,127.0,127.0,127.0,111.0,87.0,-5.0
123.0,127.0,119.0,129.0,127.0,150.0,127.0,127.0,32.0,-102.0,-68.0,127.0,127.0,127.0,111.0,87.0,-5.0
123.0,127.0,119.0,130.0,128.0,151.0,127.0,127.0,32.0,-102.0,-68.0,127.0,127.0,127.0,111.0,87.0,-5.0
123.0,127.0,119.0,130.0,128.0,150.0,127.0,127.0,32.0,-102.0,-68.0,127.0,127.0,127.0,111.0,87.0,-5.0
123.0,127.0,119.0,130.0,128.0,150.0,127.0,127.0,32.0,-102.0,-68.0,127.0,127.0,127.0,111.0,87.0,-5.0
123.0,127.0,120.0,130.0,128.0,150.0,127.0,127.0,32.0,-102.0,-68.0,127.0,127.0,127.0,111.0,87.0,-5.0
123.0,127.0,119.0,129.0,127.0,149.0,127.0,127.0,32.0,-102.0,-68.0,127.0,127.0,127.0,111.0,87.0,-5.0
123.0,127.0,119.0,129.0,127.0,149.0,127.0,127.0,32.0,-102.0,-68.0,127.0,127.0,127.0,111.0,87.0,-5.0
123.0,127.0,119.0,129.0,128.0,151.0,127.0,127.0,32.0,-102.0,-68.0,127.0,127.0,127.0,111.0,87.0,-5.0
124.0,127.0,119.0,130.0,128.0,146.0,126.0,127.0,32.0,-102.0,-68.0,127.0,127.0,127.0,112.0,87.0,-5.0
124.0,127.0,119.0,130.0,128.0,148.0,126.0,127.0,32.0,-102.0,-68.0,127.0,127.0,127.0,112.0,87.0,-5.0
124.0,127.0,119.0,131.0,128.0,148.0,126.0,127.0,32.0,-102.0,-68.0,127.0,127.0,127.0,112.0,87.0,-5.0
124.0,127.0,119.0,130.0,128.0,148.0,126.0,127.0,32.0,-102.0,-68.0,127.0,127.0,127.0,112.0,87.0,-5.0
124.0,127.0,120.0,130.0,128.0,148.0,126.0,127.0,32.0,-102.0,-68.0,127.0,127.0,127.0,112.0,87.0,-5.0
124.0,127.0,120.0,130.0,128.0,148.0,126.0,127.0,32.0,-102.0,-68.0,127.0,127.0,127.0,112.0,87.0,-5.0
124.0,127.0,119.0,130.0,128.0,146.0,126.0,127.0,32.0,-102.0,-68.0,127.0,127.0,127.0,112.0,87.0,-5.0
124.0,127.0,119.0,130.0,128.0,146.0,126.0,127.0,32.0,-102.0,-68.0,127.0,127.0,127.0,112.0,87.0,-5.0
124.0,127.0,119.0,130.0,128.0,146.0,126.0,127.0,32.0,-102.0,-68.0,127.0,127.0,127.0,112.0,87.0,-5.0
124.0,127.0,119.0,130.0,128.0,146.0,126.0,127.0,32.0,-102.0,-68.0,127.0,127.0,127.0,112.0,87.0,-5.0
125.0,128.0,128.0,131.0,129.0,147.0,127.0,128.0,33.0,-102.0,-68.0,127.0,127.0,127.0,112.0,87.0,-5.0
125.0,128.0,128.0,131.0,129.0,147.0,127.0,128.0,33.0,-102.0,-68.0,127.0,127.0,127.0,112.0,87.0,-5.0
125.0,128.0,129.0,131.0,129.0,147.0,127.0,128.0,33.0,-102.0,-68.0,127.0,127.0,127.0,112.0,87.0,-5.0
125.0,128.0,129.0,131.0,129.0,146.0,127.0,128.0,33.0,-102.0,-68.0,127.0,127.0,127.0,112.0,87.0,-5.0
125.0,128.0,129.0,131.0,129.0,146.0,127.0,128.0,33.0,-102.0,-68.0,127.0,127.0,127.0,112.0,87.0,-5.0
125.0,128.0,126.0,131.0,129.0,148.0,127.0,127.0,33.0,-102.0,-68.0,127.0,127.0,127.0,112.0,87.0,-5.0
125.0,128.0,126.0,131.0,129.0,148.0,127.0,128.0,33.0,-102.0,-68.0,127.0,127.0,127.0,112.0,87.0,-5.0
125.0,128.0,127.0,131.0,129.0,148.0,127.0,128.0,33.0,-102.0,-68.0,127.0,127.0,127.0,112.0,87.0,-5.0
125.0,128.0,127.0,131.0,129.0,148.0,127.0,128.0,33.0,-102.0,-68.0,127.0,127.0,127.0,112.0,87.0,-5.0
125.0,128.0,128.0,131.0,129.0,147.0,127.0,128.0,33.0,-102.0,-68.0,127.0,127.0,127.0,112.0,87.0,-5.0
125.0,127.0,127.0,131.0,129.0,145.0,128.0,127.0,33.0,-102.0,-67.0,127.0,127.0,127.0,112.0,87.0,-5.0
125.0,127.0,127.0,131.0,129.0,145.0,128.0,127.0,33.0,-102.0,-67.0,127.0,127.0,127.0,112.0,87.0,-5.0
124.0,127.0,127.0,131.0,129.0,145.0,128.0,127.0,33.0,-102.0,-67.0,127.0,127.0,127.0,112.0,87.0,-5.0
124.0,127.0,127.0,131.0,129.0,144.0,128.0,127.0,33.0,-102.0,-67.0,127.0,127.0,127.0,112.0,87.0,-5.0
125.0,128.0,126.0,131.0,129.0,146.0,127.0,127.0,33.0,-102.0,-67.0,127.0,127.0,127.0,112.0,87.0,-5.0
125.0,128.0,126.0,131.0,129.0,146.0,128.0,127.0,33.0,-102.0,-67.0,127.0,127.0,127.0,112.0,87.0,-5.0
125.0,128.0,126.0,131.0,129.0,146.0,128.0,127.0,33.0,-102.0,-67.0,127.0,127.0,127.0,112.0,87.0,-5.0
125.0,128.0,126.0,131.0,129.0,146.0,128.0,127.0,33.0,-102.0,-67.0,127.0,127.0,127.0,112.0,87.0,-5.0
125.0,128.0,126.0,131.0,129.0,146.0,128.0,127.0,33.0,-102.0,-67.0,127.0,127.0,127.0,112.0,87.0,-5.0
124.0,128.0,127.0,131.0,129.0,145.0,128.0,127.0,33.0,-102.0,-67.0,127.0,127.0,127.0,112.0,87.0,-5.0
124.0,127.0,135.0,132.0,129.0,143.0,127.0,127.0,33.0,-102.0,-67.0,127.0,127.0,127.0,112.0,87.0,-5.0
124.0,127.0,135.0,132.0,129.0,143.0,127.0,127.0,33.0,-102.0,-67.0,127.0,127.0,127.0,112.0,87.0,-5.0
124.0,127.0,135.0,132.0,128.0,142.0,127.0,127.0,33.0,-102.0,-67.0,127.0,127.0,127.0,112.0,87.0,-5.0
124.0,128.0,134.0,132.0,129.0,144.0,127.0,127.0,33.0,-102.0,-67.0,127.0,127.0,127.0,112.0,87.0,-5.0
124.0,127.0,135.0,132.0,129.0,144.0,127.0,127.0,33.0,-102.0,-67.0,127.0,127.0,127.0,112.0,87.0,-5.0
124.0,127.0,135.0,132.0,129.0,144.0,127.0,127.0,33.0,-102.0,-67.0,127.0,127.0,127.0,112.0,87.0,-5.0
124.0,127.0,135.0,132.0,129.0,144.0,127.0,127.0,33.0,-102.0,-67.0,127.0,127.0,127.0,112.0,87.0,-5.0
124.0,127.0,135.0,132.0,129.0,144.0,127.0,127.0,33.0,-102.0,-67.0,127.0,127.0,127.0,112.0,87.0,-5.0
124.0,127.0,135.0,132.0,129.0,143.0,127.0,127.0,33.0,-102.0,-67.0,127.0,127.0,127.0,112.0,87.0,-5.0
