emg1,emg2,emg3,emg4,emg5,emg6,emg7,emg8,acc_x,acc_y,acc_z,gyro_x,gyro_y,gyro_z,angle_pitch,angle_roll,angle_yaw
126.0,127.0,127.0,127.0,127.0,127.0,106.0,128.0,29.0,-127.0,-64.0,127.0,127.0,127.0,127.0,89.0,-37.0
126.0,127.0,127.0,127.0,127.0,127.0,106.0,128.0,29.0,-127.0,-64.0,127.0,127.0,127.0,127.0,89.0,-37.0
126.0,127.0,127.0,127.0,127.0,127.0,107.0,128.0,29.0,-127.0,-64.0,127.0,127.0,127.0,127.0,89.0,-37.0
126.0,127.0,127.0,127.0,127.0,127.0,106.0,128.0,29.0,-127.0,-64.0,127.0,127.0,127.0,127.0,89.0,-37.0
126.0,127.0,126.0,127.0,127.0,127.0,106.0,128.0,29.0,-127.0,-64.0,127.0,127.0,127.0,127.0,89.0,-37.0
126.0,127.0,126.0,127.0,127.0,127.0,106.0,128.0,29.0,-127.0,-64.0,127.0,127.0,127.0,127.0,89.0,-37.0
126.0,127.0,126.0,127.0,127.0,128.0,106.0,128.0,29.0,-127.0,-64.0,127.0,127.0,127.0,127.0,89.0,-37.0
126.0,127.0,127.0,127.0,127.0,127.0,112.0,128.0,29.0,-127.0,-64.0,127.0,127.0,127.0,127.0,89.0,-37.0
126.0,127.0,127.0,127.0,127.0,127.0,111.0,128.0,29.0,-127.0,-64.0,127.0,127.0,127.0,127.0,89.0,-37.0
126.0,127.0,127.0,127.0,127.0,127.0,107.0,128.0,29.0,-127.0,-64.0,127.0,127.0,127.0,127.0,89.0,-37.0
126.0,127.0,127.0,127.0,127.0,127.0,105.0,128.0,29.0,-127.0,-64.0,127.0,127.0,127.0,127.0,89.0,-37.0
126.0,127.0,127.0,127.0,127.0,127.0,106.0,128.0,29.0,-127.0,-64.0,127.0,127.0,127.0,127.0,89.0,-37.0
126.0,127.0,127.0,127.0,127.0,127.0,106.0,128.0,29.0,-127.0,-64.0,127.0,127.0,127.0,127.0,89.0,-37.0
126.0,127.0,127.0,127.0,127.0,127.0,105.0,128.0,29.0,-127.0,-64.0,127.0,127.0,127.0,127.0,89.0,-37.0
126.0,127.0,127.0,127.0,127.0,127.0,109.0,128.0,29.0,-127.0,-64.0,127.0,127.0,127.0,127.0,89.0,-37.0
126.0,127.0,127.0,127.0,127.0,127.0,113.0,128.0,29.0,-127.0,-64.0,127.0,127.0,127.0,127.0,89.0,-37.0
126.0,127.0,127.0,127.0,127.0,127.0,113.0,128.0,29.0,-127.0,-64.0,127.0,127.0,127.0,127.0,89.0,-37.0
126.0,127.0,127.0,127.0,127.0,127.0,112.0,128.0,29.0,-127.0,-64.0,127.0,127.0,127.0,127.0,89.0,-37.0
126.0,127.0,127.0,127.0,127.0,127.0,108.0,128.0,29.0,-127.0,-64.0,127.0,127.0,127.0,127.0,89.0,-37.0
126.0,127.0,127.0,127.0,127.0,127.0,106.0,128.0,29.0,-127.0,-64.0,127.0,127.0,127.0,127.0,89.0,-37.0
126.0,127.0,127.0,127.0,127.0,127.0,106.0,128.0,29.0,-127.0,-64.0,127.0,127.0,127.0,127.0,89.0,-37.0
126.0,127.0,127.0,127.0,127.0,127.0,106.0,128.0,29.0,-127.0,-64.0,127.0,127.0,127.0,127.0,89.0,-37.0
126.0,127.0,127.0,127.0,127.0,127.0,106.0,128.0,29.0,-127.0,-64.0,127.0,127.0,127.0,127.0,89.0,-37.0
126.0,127.0,127.0,127.0,127.0,127.0,107.0,128.0,29.0,-127.0,-64.0,127.0,127.0,127.0,127.0,89.0,-37.0
126.0,127.0,127.0,127.0,127.0,127.0,109.0,128.0,29.0,-127.0,-64.0,127.0,127.0,127.0,127.0,89.0,-37.0
127.0,127.0,127.0,127.0,126.0,127.0,114.0,128.0,29.0,-127.0,-64.0,127.0,127.0,127.0,127.0,89.0,-37.0
126.0,127.0,127.0,127.0,126.0,127.0,113.0,128.0,29.0,-127.0,-64.0,127.0,127.0,127.0,127.0,89.0,-37.0
126.0,127.0,127.0,127.0,126.0,127.0,108.0,128.0,29.0,-127.0,-64.0,127.0,127.0,127.0,127.0,89.0,-37.0
126.0,127.0,127.0,127.0,126.0,127.0,106.0,128.0,29.0,-127.0,-64.0,127.0,127.0,127.0,127.0,89.0,-37.0
126.0,127.0,127.0,127.0,127.0,127.0,107.0,128.0,29.0,-127.0,-64.0,127.0,127.0,127.0,127.0,89.0,-37.0
126.0,127.0,127.0,127.0,127.0,127.0,107.0,128.0,29.0,-127.0,-64.0,127.0,127.0,127.0,127.0,89.0,-37.0
127.0,127.0,127.0,127.0,127.0,127.0,107.0,128.0,29.0,-127.0,-64.0,127.0,127.0,127.0,127.0,89.0,-37.0
127.0,127.0,127.0,127.0,127.0,127.0,106.0,128.0,29.0,-127.0,-64.0,127.0,127.0,127.0,127.0,89.0,-37.0
127.0,127.0,127.0,127.0,127.0,127.0,106.0,128.0,29.0,-127.0,-64.0,127.0,127.0,127.0,127.0,89.0,-37.0
127.0,127.0,127.0,127.0,127.0,127.0,113.0,128.0,29.0,-127.0,-64.0,127.0,127.0,127.0,127.0,89.0,-37.0
127.0,127.0,127.0,127.0,127.0,127.0,113.0,128.0,29.0,-127.0,-64.0,127.0,127.0,127.0,127.0,89.0,-37.0
127.0,127.0,127.0,127.0,127.0,127.0,113.0,128.0,29.0,-127.0,-64.0,127.0,127.0,127.0,127.0,89.0,-37.0
127.0,127.0,127.0,127.0,127.0,127.0,113.0,128.0,29.0,-127.0,-64.0,127.0,127.0,127.0,127.0,89.0,-37.0
127.0,127.0,127.0,127.0,127.0,127.0,113.0,128.0,29.0,-127.0,-64.0,127.0,127.0,127.0,127.0,89.0,-37.0
126.0,127.0,127.0,127.0,127.0,127.0,108.0,128.0,29.0,-127.0,-64.0,127.0,127.0,127.0,127.0,89.0,-37.0
127.0,127.0,126.0,127.0,126.0,127.0,108.0,128.0,29.0,-127.0,-64.0,127.0,127.0,127.0,127.0,89.0,-37.0
127.0,127.0,126.0,127.0,126.0,127.0,110.0,128.0,29.0,-127.0,-64.0,127.0,127.0,127.0,127.0,89.0,-37.0
127.0,126.0,126.0,127.0,126.0,127.0,113.0,128.0,29.0,-127.0,-64.0,127.0,127.0,127.0,127.0,89.0,-37.0
126.0,127.0,127.0,127.0,126.0,127.0,106.0,128.0,29.0,-127.0,-64.0,127.0,127.0,127.0,127.0,89.0,-37.0
127.0,127.0,127.0,127.0,126.0,127.0,106.0,128.0,29.0,-127.0,-64.0,127.0,127.0,127.0,127.0,89.0,-37.0
127.0,127.0,127.0,127.0,126.0,127.0,106.0,128.0,29.0,-127.0,-64.0,127.0,127.0,127.0,127.0,89.0,-37.0
127.0,127.0,126.0,127.0,126.0,127.0,106.0,128.0,29.0,-127.0,-64.0,127.0,127.0,127.0,127.0,89.0,-37.0
127.0,127.0,126.0,127.0,126.0,127.0,106.0,128.0,29.0,-127.0,-64.0,127.0,127.0,127.0,127.0,89.0,-37.0
127.0,127.0,126.0,127.0,126.0,127.0,106.0,128.0,29.0,-127.0,-64.0,127.0,127.0,127.0,127.0,89.0,-37.0
127.0,127.0,126.0,127.0,126.0,127.0,108.0,128.0,29.0,-127.0,-64.0,127.0,127.0,127.0,127.0,89.0,-37.0
126.0,127.0,127.0,127.0,126.0,127.0,106.0,128.0,29.0,-127.0,-64.0,127.0,127.0,127.0,127.0,89.0,-37.0
126.0,127.0,127.0,127.0,127.0,127.0,106.0,128.0,29.0,-127.0,-64.0,127.0,127.0,127.0,127.0,89.0,-37.0
126.0,127.0,127.0,127.0,126.0,127.0,106.0,128.0,29.0,-127.0,-64.0,127.0,127.0,127.0,127.0,89.0,-37.0
126.0,127.0,127.0,127.0,126.0,127.0,106.0,128.0,29.0,-127.0,-64.0,127.0,127.0,127.0,127.0,89.0,-37.0
126.0,127.0,127.0,127.0,127.0,127.0,106.0,128.0,29.0,-127.0,-64.0,127.0,127.0,127.0,127.0,89.0,-37.0
126.0,127.0,127.0,127.0,127.0,127.0,106.0,128.0,29.0,-127.0,-64.0,127.0,127.0,127.0,127.0,89.0,-37.0
126.0,127.0,127.0,127.0,126.0,127.0,106.0,128.0,29.0,-127.0,-64.0,127.0,127.0,127.0,127.0,89.0,-37.0
126.0,127.0,127.0,127.0,127.0,127.0,107.0,128.0,29.0,-127.0,-64.0,127.0,127.0,127.0,127.0,89.0,-37.0
126.0,127.0,127.0,127.0,126.0,127.0,107.0,128.0,29.0,-127.0,-64.0,127.0,127.0,127.0,127.0,89.0,-37.0
126.0,127.0,127.0,127.0,126.0,127.0,107.0,128.0,29.0,-127.0,-64.0,127.0,127.0,127.0,127.0,89.0,-37.0
127.0,127.0,127.0,127.0,127.0,127.0,107.0,128.0,29.0,-127.0,-64.0,127.0,127.0,127.0,127.0,89.0,-37.0
126.0,127.0,127.0,127.0,127.0,128.0,106.0,128.0,29.0,-127.0,-64.0,127.0,127.0,127.0,127.0,89.0,-37.0
126.0,127.0,127.0,127.0,127.0,128.0,107.0,128.0,29.0,-127.0,-64.0,127.0,127.0,127.0,127.0,89.0,-37.0
126.0,127.0,127.0,127.0,127.0,128.0,106.0,128.0,29.0,-127.0,-64.0,127.0,127.0,127.0,127.0,89.0,-37.0
126.0,127.0,127.0,127.0,127.0,127.0,106.0,128.0,29.0,-127.0,-64.0,127.0,127.0,127.0,127.0,89.0,-37.0
126.0,127.0,127.0,128.0,127.0,128.0,106.0,128.0,29.0,-127.0,-64.0,127.0,127.0,127.0,127.0,89.0,-37.0
126.0,127.0,127.0,128.0,127.0,127.0,106.0,128.0,29.0,-127.0,-64.0,127.0,127.0,127.0,127.0,89.0,-37.0
126.0,127.0,127.0,128.0,127.0,127.0,106.0,128.0,29.0,-127.0,-64.0,127.0,127.0,127.0,127.0,89.0,-37.0
126.0,127.0,127.0,128.0,127.0,127.0,106.0,128.0,29.0,-127.0,-64.0,127.0,127.0,127.0,127.0,89.0,-37.0
126.0,127.0,127.0,127.0,127.0,127.0,107.0,128.0,29.0,-127.0,-64.0,127.0,127.0,127.0,127.0,89.0,-37.0
126.0,127.0,127.0,127.0,126.0,128.0,107.0,128.0,29.0,-127.0,-64.0,127.0,127.0,127.0,127.0,89.0,-37.0
126.0,127.0,127.0,127.0,126.0,128.0,107.0,128.0,29.0,-127.0,-64.0,127.0,127.0,127.0,127.0,89.0,-37.0
126.0,127.0,127.0,127.0,126.0,128.0,107.0,128.0,29.0,-127.0,-64.0,127.0,127.0,127.0,127.0,89.0,-37.0
126.0,127.0,127.0,127.0,126.0,128.0,107.0,128.0,29.0,-127.0,-64.0,127.0,127.0,127.0,127.0,89.0,-37.0
126.0,127.0,127.0,127.0,126.0,128.0,107.0,128.0,29.0,-127.0,-64.0,127.0,127.0,127.0,127.0,89.0,-37.0
126.0,127.0,127.0,127.0,126.0,128.0,106.0,128.0,29.0,-127.0,-64.0,127.0,127.0,127.0,127.0,89.0,-37.0
126.0,127.0,127.0,127.0,126.0,127.0,106.0,128.0,29.0,-127.0,-64.0,127.0,127.0,127.0,127.0,89.0,-37.0
126.0,127.0,127.0,127.0,126.0,127.0,107.0,128.0,29.0,-127.0,-64.0,127.0,127.0,127.0,127.0,89.0,-37.0
126.0,127.0,127.0,127.0,126.0,127.0,107.0,128.0,29.0,-127.0,-64.0,127.0,127.0,127.0,127.0,89.0,-37.0
126.0,127.0,127.0,127.0,126.0,127.0,107.0,128.0,29.0,-127.0,-64.0,127.0,127.0,127.0,127.0,89.0,-37.0
126.0,127.0,127.0,127.0,127.0,127.0,106.0,128.0,29.0,-127.0,-64.0,127.0,127.0,127.0,127.0,89.0,-37.0
126.0,127.0,127.0,127.0,127.0,128.0,107.0,128.0,29.0,-127.0,-64.0,127.0,127.0,127.0,127.0,89.0,-37.0
126.0,127.0,127.0,127.0,127.0,128.0,107.0,128.0,29.0,-127.0,-64.0,127.0,127.0,127.0,127.0,89.0,-37.0
126.0,127.0,127.0,127.0,127.0,128.0,107.0,128.0,29.0,-127.0,-64.0,127.0,127.0,127.0,127.0,89.0,-37.0
127.0,127.0,127.0,127.0,127.0,128.0,107.0,128.0,29.0,-127.0,-64.0,127.0,127.0,127.0,127.0,89.0,-37.0
126.0,127.0,127.0,127.0,127.0,127.0,106.0,128.0,29.0,-127.0,-64.0,127.0,127.0,127.0,127.0,89.0,-37.0
127.0,127.0,127.0,127.0,127.0,128.0,106.0,128.0,29.0,-127.0,-64.0,127.0,127.0,127.0,127.0,89.0,-37.0
127.0,127.0,127.0,127.0,127.0,127.0,106.0,128.0,29.0,-127.0,-64.0,127.0,127.0,127.0,127.0,89.0,-37.0
126.0,127.0,127.0,127.0,127.0,128.0,107.0,128.0,29.0,-127.0,-64.0,127.0,127.0,127.0,127.0,89.0,-37.0
126.0,127.0,127.0,127.0,127.0,127.0,106.0,128.0,29.0,-127.0,-64.0,127.0,127.0,127.0,127.0,89.0,-37.0
126.0,127.0,127.0,127.0,127.0,127.0,106.0,128.0,29.0,-127.0,-64.0,127.0,127.0,127.0,127.0,89.0,-37.0
126.0,127.0,127.0,127.0,127.0,127.0,106.0,128.0,29.0,-127.0,-64.0,127.0,127.0,127.0,127.0,89.0,-37.0
126.0,127.0,127.0,127.0,127.0,127.0,107.0,128.0,29.0,-127.0,-64.0,127.0,127.0,127.0,127.0,89.0,-37.0
126.0,127.0,127.0,127.0,127.0,127.0,106.0,128.0,29.0,-127.0,-64.0,127.0,127.0,127.0,127.0,89.0,-37.0
126.0,126.0,127.0,127.0,127.0,127.0,111.0,128.0,29.0,-127.0,-64.0,127.0,127.0,127.0,127.0,89.0,-37.0
126.0,126.0,127.0,127.0,127.0,127.0,112.0,128.0,29.0,-127.0,-64.0,127.0,127.0,127.0,127.0,89.0,-37.0
126.0,126.0,127.0,127.0,127.0,127.0,112.0,128.0,29.0,-127.0,-64.0,127.0,127.0,127.0,127.0,89.0,-37.0
127.0,126.0,127.0,127.0,127.0,127.0,114.0,128.0,29.0,-127.0,-64.0,127.0,127.0,127.0,127.0,89.0,-37.0
126.0,127.0,127.0,127.0,127.0,127.0,106.0,128.0,29.0,-127.0,-64.0,127.0,127.0,127.0,127.0,89.0,-37.0
126.0,127.0,127.0,127.0,127.0,127.0,106.0,128.0,29.0,-127.0,-64.0,127.0,127.0,127.0,127.0,89.0,-37.0
126.0,127.0,127.0,127.0,127.0,128.0,107.0,128.0,29.0,-127.0,-64.0,127.0,127.0,127.0,127.0,89.0,-37.0
126.0,127.0,127.0,127.0,127.0,128.0,108.0,128.0,29.0,-127.0,-64.0,127.0,127.0,127.0,127.0,89.0,-37.0
126.0,127.0,127.0,127.0,127.0,128.0,107.0,128.0,29.0,-127.0,-64.0,127.0,127.0,127.0,127.0,89.0,-37.0
126.0,127.0,127.0,127.0,127.0,128.0,107.0,128.0,29.0,-127.0,-64.0,127.0,127.0,127.0,127.0,89.0,-37.0
126.0,127.0,127.0,127.0,126.0,128.0,107.0,128.0,29.0,-127.0,-64.0,127.0,127.0,127.0,127.0,89.0,-37.0
126.0,127.0,127.0,127.0,126.0,128.0,107.0,128.0,29.0,-127.0,-64.0,127.0,127.0,127.0,127.0,89.0,-37.0
126.0,127.0,127.0,127.0,126.0,128.0,107.0,128.0,29.0,-127.0,-64.0,127.0,127.0,127.0,127.0,89.0,-37.0
126.0,127.0,127.0,127.0,127.0,128.0,107.0,128.0,29.0,-127.0,-64.0,127.0,127.0,127.0,127.0,89.0,-37.0
126.0,127.0,127.0,127.0,127.0,128.0,107.0,128.0,29.0,-127.0,-64.0,127.0,127.0,127.0,127.0,89.0,-37.0
126.0,127.0,127.0,127.0,127.0,128.0,107.0,128.0,29.0,-127.0,-64.0,127.0,127.0,127.0,127.0,89.0,-37.0
127.0,127.0,127.0,127.0,127.0,127.0,113.0,128.0,29.0,-127.0,-64.0,127.0,127.0,127.0,127.0,89.0,-37.0
127.0,126.0,127.0,127.0,127.0,127.0,113.0,128.0,29.0,-127.0,-64.0,127.0,127.0,127.0,127.0,89.0,-37.0
127.0,126.0,127.0,127.0,127.0,127.0,113.0,128.0,29.0,-127.0,-64.0,127.0,127.0,127.0,127.0,89.0,-37.0
127.0,126.0,127.0,127.0,127.0,127.0,113.0,128.0,29.0,-127.0,-64.0,127.0,127.0,127.0,127.0,89.0,-37.0
127.0,126.0,127.0,127.0,127.0,127.0,113.0,128.0,29.0,-127.0,-64.0,127.0,127.0,127.0,127.0,89.0,-37.0
127.0,127.0,127.0,127.0,127.0,127.0,112.0,128.0,29.0,-127.0,-64.0,127.0,127.0,127.0,127.0,89.0,-37.0
127.0,127.0,127.0,127.0,127.0,127.0,113.0,128.0,29.0,-127.0,-64.0,127.0,127.0,127.0,127.0,89.0,-37.0
127.0,127.0,127.0,127.0,127.0,127.0,113.0,128.0,29.0,-127.0,-64.0,127.0,127.0,127.0,127.0,89.0,-37.0
127.0,127.0,127.0,127.0,127.0,127.0,113.0,128.0,29.0,-127.0,-64.0,127.0,127.0,127.0,127.0,89.0,-37.0
127.0,127.0,127.0,127.0,127.0,127.0,113.0,128.0,29.0,-127.0,-64.0,127.0,127.0,127.0,127.0,89.0,-37.0
126.0,127.0,127.0,127.0,127.0,127.0,113.0,128.0,29.0,-127.0,-64.0,127.0,127.0,127.0,127.0,89.0,-37.0
126.0,127.0,127.0,127.0,127.0,127.0,113.0,128.0,29.0,-127.0,-64.0,127.0,127.0,127.0,127.0,89.0,-37.0
126.0,127.0,127.0,127.0,127.0,127.0,112.0,128.0,29.0,-127.0,-64.0,127.0,127.0,127.0,127.0,89.0,-37.0
126.0,127.0,127.0,127.0,127.0,127.0,113.0,128.0,29.0,-127.0,-64.0,127.0,127.0,127.0,127.0,89.0,-37.0
126.0,127.0,127.0,127.0,126.0,127.0,113.0,128.0,29.0,-127.0,-64.0,127.0,127.0,127.0,127.0,89.0,-37.0
126.0,127.0,127.0,127.0,127.0,127.0,112.0,128.0,29.0,-127.0,-64.0,127.0,127.0,127.0,127.0,89.0,-37.0
126.0,127.0,127.0,127.0,127.0,127.0,111.0,128.0,29.0,-127.0,-64.0,127.0,127.0,127.0,127.0,89.0,-37.0
126.0,127.0,127.0,127.0,127.0,127.0,108.0,128.0,29.0,-127.0,-64.0,127.0,127.0,127.0,127.0,89.0,-37.0
126.0,127.0,127.0,127.0,127.0,127.0,110.0,128.0,29.0,-127.0,-64.0,127.0,127.0,127.0,127.0,89.0,-37.0
126.0,127.0,127.0,127.0,126.0,127.0,113.0,128.0,29.0,-127.0,-64.0,127.0,127.0,127.0,127.0,89.0,-37.0
127.0,127.0,127.0,127.0,127.0,127.0,106.0,128.0,29.0,-127.0,-64.0,127.0,127.0,127.0,127.0,89.0,-37.0
127.0,127.0,127.0,127.0,127.0,127.0,106.0,128.0,29.0,-127.0,-64.0,127.0,127.0,127.0,127.0,89.0,-37.0
127.0,127.0,127.0,127.0,127.0,127.0,107.0,128.0,29.0,-127.0,-64.0,127.0,127.0,127.0,127.0,89.0,-37.0
127.0,127.0,127.0,127.0,127.0,127.0,111.0,128.0,29.0,-127.0,-64.0,127.0,127.0,127.0,127.0,89.0,-37.0
126.0,127.0,127.0,127.0,126.0,127.0,106.0,128.0,29.0,-127.0,-64.0,127.0,127.0,127.0,127.0,89.0,-37.0
126.0,127.0,127.0,127.0,127.0,127.0,106.0,128.0,29.0,-127.0,-64.0,127.0,127.0,127.0,127.0,89.0,-37.0
126.0,127.0,127.0,127.0,127.0,127.0,106.0,128.0,29.0,-127.0,-64.0,127.0,127.0,127.0,127.0,89.0,-37.0
126.0,127.0,127.0,127.0,127.0,127.0,106.0,128.0,29.0,-127.0,-64.0,127.0,127.0,127.0,127.0,89.0,-37.0
126.0,127.0,127.0,127.0,127.0,127.0,106.0,128.0,29.0,-127.0,-64.0,127.0,127.0,127.0,127.0,89.0,-37.0
126.0,127.0,127.0,127.0,127.0,127.0,106.0,128.0,29.0,-127.0,-64.0,127.0,127.0,127.0,127.0,89.0,-37.0
126.0,127.0,127.0,127.0,127.0,127.0,107.0,128.0,29.0,-127.0,-64.0,127.0,127.0,127.0,127.0,89.0,-37.0
126.0,127.0,127.0,127.0,127.0,127.0,106.0,128.0,29.0,-127.0,-64.0,127.0,127.0,127.0,127.0,89.0,-37.0
127.0,127.0,127.0,127.0,127.0,127.0,106.0,128.0,29.0,-127.0,-64.0,127.0,127.0,127.0,127.0,89.0,-37.0
126.0,127.0,127.0,127.0,126.0,127.0,108.0,128.0,29.0,-127.0,-64.0,127.0,127.0,127.0,127.0,89.0,-37.0
126.0,127.0,127.0,127.0,126.0,127.0,107.0,128.0,29.0,-127.0,-64.0,127.0,127.0,127.0,127.0,89.0,-37.0
126.0,127.0,127.0,127.0,126.0,127.0,107.0,128.0,29.0,-127.0,-64.0,127.0,127.0,127.0,127.0,89.0,-37.0
126.0,127.0,127.0,127.0,126.0,127.0,107.0,128.0,29.0,-127.0,-64.0,127.0,127.0,127.0,127.0,89.0,-37.0
126.0,127.0,127.0,127.0,126.0,127.0,107.0,128.0,29.0,-127.0,-64.0,127.0,127.0,127.0,127.0,89.0,-37.0
126.0,127.0,127.0,127.0,126.0,127.0,106.0,128.0,29.0,-127.0,-64.0,127.0,127.0,127.0,127.0,89.0,-37.0
126.0,127.0,127.0,127.0,127.0,127.0,106.0,128.0,29.0,-127.0,-64.0,127.0,127.0,127.0,127.0,89.0,-37.0
126.0,127.0,127.0,127.0,127.0,127.0,106.0,128.0,29.0,-126.0,-64.0,127.0,127.0,127.0,127.0,89.0,-37.0
126.0,127.0,127.0,127.0,127.0,127.0,106.0,128.0,29.0,-126.0,-64.0,127.0,127.0,127.0,127.0,89.0,-37.0
126.0,127.0,127.0,127.0,126.0,127.0,106.0,128.0,29.0,-126.0,-64.0,127.0,127.0,127.0,127.0,89.0,-37.0
126.0,127.0,127.0,127.0,126.0,127.0,107.0,128.0,29.0,-126.0,-64.0,127.0,127.0,127.0,127.0,89.0,-37.0
126.0,127.0,127.0,127.0,126.0,127.0,107.0,128.0,29.0,-126.0,-64.0,127.0,127.0,127.0,127.0,89.0,-37.0
126.0,127.0,127.0,127.0,126.0,127.0,107.0,128.0,29.0,-126.0,-64.0,127.0,127.0,127.0,127.0,89.0,-37.0
126.0,127.0,127.0,127.0,126.0,127.0,107.0,128.0,29.0,-126.0,-64.0,127.0,127.0,127.0,127.0,89.0,-37.0
126.0,127.0,127.0,127.0,127.0,127.0,107.0,128.0,29.0,-126.0,-64.0,127.0,127.0,127.0,127.0,89.0,-37.0
126.0,127.0,127.0,127.0,127.0,127.0,106.0,128.0,29.0,-126.0,-64.0,127.0,127.0,127.0,127.0,89.0,-37.0
126.0,127.0,127.0,127.0,127.0,127.0,106.0,128.0,29.0,-126.0,-64.0,127.0,127.0,127.0,127.0,89.0,-37.0
127.0,127.0,127.0,127.0,127.0,127.0,107.0,128.0,29.0,-126.0,-64.0,127.0,127.0,127.0,127.0,89.0,-37.0
126.0,127.0,127.0,127.0,127.0,127.0,106.0,128.0,29.0,-126.0,-64.0,127.0,127.0,127.0,127.0,89.0,-37.0
126.0,127.0,127.0,127.0,127.0,127.0,106.0,128.0,29.0,-126.0,-64.0,127.0,127.0,127.0,127.0,89.0,-37.0
126.0,127.0,127.0,127.0,127.0,127.0,106.0,128.0,29.0,-126.0,-64.0,127.0,127.0,127.0,127.0,89.0,-37.0
126.0,127.0,127.0,127.0,127.0,127.0,106.0,128.0,29.0,-126.0,-64.0,127.0,127.0,127.0,127.0,89.0,-37.0
126.0,127.0,127.0,127.0,127.0,127.0,106.0,128.0,29.0,-126.0,-64.0,127.0,127.0,127.0,127.0,89.0,-37.0
126.0,127.0,127.0,127.0,127.0,127.0,107.0,128.0,29.0,-126.0,-64.0,127.0,127.0,127.0,127.0,89.0,-37.0
127.0,127.0,127.0,127.0,127.0,127.0,107.0,128.0,29.0,-126.0,-64.0,127.0,127.0,127.0,127.0,89.0,-37.0
127.0,127.0,127.0,127.0,127.0,127.0,107.0,128.0,29.0,-126.0,-64.0,127.0,127.0,127.0,127.0,89.0,-37.0
127.0,127.0,127.0,127.0,127.0,127.0,107.0,128.0,29.0,-126.0,-64.0,127.0,127.0,127.0,127.0,89.0,-37.0
126.0,127.0,127.0,127.0,127.0,127.0,106.0,128.0,28.0,-126.0,-64.0,127.0,127.0,127.0,127.0,89.0,-37.0
126.0,127.0,127.0,127.0,127.0,127.0,107.0,128.0,28.0,-126.0,-64.0,127.0,127.0,127.0,127.0,89.0,-37.0
126.0,127.0,127.0,127.0,127.0,127.0,107.0,128.0,28.0,-126.0,-64.0,127.0,127.0,127.0,127.0,89.0,-37.0
126.0,127.0,127.0,127.0,127.0,127.0,106.0,128.0,28.0,-126.0,-64.0,127.0,127.0,127.0,127.0,89.0,-37.0
126.0,127.0,127.0,127.0,127.0,127.0,107.0,128.0,28.0,-126.0,-64.0,127.0,127.0,127.0,127.0,89.0,-37.0
126.0,127.0,127.0,127.0,126.0,127.0,107.0,128.0,28.0,-126.0,-64.0,127.0,127.0,127.0,127.0,89.0,-37.0
126.0,127.0,127.0,127.0,127.0,127.0,107.0,128.0,28.0,-126.0,-64.0,127.0,127.0,127.0,127.0,89.0,-37.0
126.0,127.0,127.0,127.0,127.0,127.0,106.0,128.0,28.0,-126.0,-64.0,127.0,127.0,127.0,127.0,89.0,-37.0
127.0,127.0,127.0,127.0,126.0,127.0,106.0,128.0,28.0,-126.0,-64.0,127.0,127.0,127.0,127.0,89.0,-37.0
127.0,127.0,127.0,127.0,126.0,127.0,106.0,128.0,28.0,-126.0,-64.0,127.0,127.0,127.0,127.0,89.0,-37.0
126.0,127.0,126.0,127.0,127.0,127.0,107.0,128.0,28.0,-126.0,-64.0,127.0,127.0,127.0,127.0,89.0,-37.0
126.0,127.0,127.0,127.0,127.0,128.0,107.0,128.0,28.0,-126.0,-64.0,127.0,127.0,127.0,127.0,89.0,-37.0
126.0,127.0,126.0,127.0,127.0,128.0,107.0,128.0,28.0,-126.0,-64.0,127.0,127.0,127.0,127.0,89.0,-37.0
126.0,127.0,126.0,127.0,127.0,128.0,107.0,128.0,28.0,-126.0,-64.0,127.0,127.0,127.0,127.0,89.0,-37.0
126.0,127.0,127.0,127.0,127.0,128.0,107.0,128.0,28.0,-126.0,-64.0,127.0,127.0,127.0,127.0,89.0,-37.0
126.0,127.0,126.0,127.0,127.0,128.0,107.0,128.0,28.0,-126.0,-64.0,127.0,127.0,127.0,127.0,89.0,-37.0
126.0,127.0,127.0,127.0,127.0,128.0,106.0,128.0,28.0,-126.0,-64.0,127.0,127.0,127.0,127.0,89.0,-37.0
126.0,127.0,127.0,127.0,127.0,127.0,106.0,128.0,28.0,-126.0,-64.0,127.0,127.0,127.0,127.0,89.0,-37.0
126.0,127.0,127.0,127.0,127.0,127.0,106.0,128.0,28.0,-126.0,-64.0,127.0,127.0,127.0,127.0,89.0,-37.0
126.0,127.0,127.0,127.0,127.0,127.0,106.0,128.0,28.0,-126.0,-64.0,127.0,127.0,127.0,127.0,89.0,-37.0
127.0,127.0,127.0,127.0,126.0,127.0,112.0,128.0,28.0,-126.0,-64.0,127.0,127.0,127.0,127.0,89.0,-37.0
127.0,127.0,127.0,127.0,126.0,127.0,113.0,128.0,28.0,-126.0,-64.0,127.0,127.0,127.0,127.0,89.0,-37.0
127.0,127.0,127.0,127.0,126.0,127.0,113.0,128.0,28.0,-126.0,-64.0,127.0,127.0,127.0,127.0,89.0,-37.0
126.0,127.0,127.0,127.0,126.0,127.0,111.0,128.0,28.0,-126.0,-64.0,127.0,127.0,127.0,127.0,89.0,-37.0
126.0,127.0,127.0,127.0,127.0,127.0,107.0,128.0,28.0,-126.0,-64.0,127.0,127.0,127.0,127.0,89.0,-37.0
127.0,127.0,127.0,127.0,126.0,127.0,106.0,128.0,28.0,-126.0,-64.0,127.0,127.0,127.0,127.0,89.0,-37.0
127.0,127.0,127.0,127.0,126.0,127.0,106.0,128.0,28.0,-126.0,-64.0,127.0,127.0,127.0,127.0,89.0,-37.0
127.0,127.0,127.0,127.0,126.0,127.0,106.0,128.0,28.0,-126.0,-64.0,127.0,127.0,127.0,127.0,89.0,-37.0
127.0,127.0,127.0,127.0,126.0,127.0,113.0,128.0,28.0,-126.0,-64.0,127.0,127.0,127.0,127.0,89.0,-37.0
127.0,127.0,127.0,127.0,126.0,127.0,112.0,128.0,28.0,-126.0,-64.0,127.0,127.0,127.0,127.0,89.0,-37.0
127.0,127.0,127.0,127.0,127.0,127.0,106.0,128.0,28.0,-126.0,-64.0,127.0,127.0,127.0,127.0,89.0,-37.0
127.0,127.0,127.0,127.0,127.0,127.0,107.0,128.0,28.0,-126.0,-64.0,127.0,127.0,127.0,127.0,89.0,-37.0
127.0,127.0,127.0,127.0,127.0,127.0,106.0,128.0,28.0,-126.0,-64.0,127.0,127.0,127.0,127.0,89.0,-37.0
127.0,127.0,127.0,127.0,127.0,127.0,106.0,128.0,28.0,-126.0,-64.0,127.0,127.0,127.0,127.0,89.0,-37.0
127.0,127.0,127.0,127.0,127.0,127.0,106.0,128.0,28.0,-126.0,-64.0,127.0,127.0,127.0,127.0,89.0,-37.0
127.0,127.0,127.0,127.0,127.0,127.0,106.0,128.0,28.0,-126.0,-64.0,127.0,127.0,127.0,127.0,89.0,-37.0
127.0,127.0,127.0,127.0,127.0,127.0,110.0,128.0,28.0,-126.0,-64.0,127.0,127.0,127.0,127.0,89.0,-37.0
127.0,127.0,127.0,127.0,127.0,127.0,107.0,128.0,28.0,-126.0,-64.0,127.0,127.0,127.0,127.0,89.0,-37.0
127.0,127.0,127.0,127.0,127.0,127.0,107.0,128.0,28.0,-126.0,-64.0,127.0,127.0,127.0,127.0,89.0,-37.0
127.0,127.0,127.0,127.0,127.0,127.0,107.0,128.0,28.0,-126.0,-64.0,127.0,127.0,127.0,127.0,89.0,-37.0
127.0,127.0,127.0,127.0,127.0,127.0,106.0,128.0,28.0,-126.0,-64.0,127.0,127.0,127.0,127.0,89.0,-37.0
127.0,127.0,127.0,127.0,127.0,127.0,107.0,128.0,28.0,-126.0,-64.0,127.0,127.0,127.0,127.0,89.0,-37.0
127.0,127.0,127.0,127.0,127.0,127.0,106.0,128.0,28.0,-126.0,-64.0,127.0,127.0,127.0,127.0,89.0,-37.0
127.0,127.0,127.0,127.0,127.0,127.0,107.0,128.0,28.0,-126.0,-64.0,127.0,127.0,127.0,127.0,89.0,-37.0
127.0,127.0,127.0,127.0,127.0,127.0,106.0,128.0,28.0,-126.0,-64.0,127.0,127.0,127.0,127.0,89.0,-37.0
127.0,127.0,127.0,127.0,127.0,127.0,106.0,128.0,28.0,-126.0,-64.0,127.0,127.0,127.0,127.0,89.0,-37.0
126.0,127.0,126.0,127.0,127.0,128.0,106.0,128.0,28.0,-126.0,-64.0,127.0,127.0,127.0,127.0,89.0,-37.0
127.0,127.0,126.0,127.0,127.0,128.0,106.0,128.0,28.0,-126.0,-64.0,127.0,127.0,127.0,127.0,89.0,-37.0
127.0,127.0,127.0,127.0,127.0,127.0,106.0,128.0,28.0,-126.0,-64.0,127.0,127.0,127.0,127.0,89.0,-37.0
127.0,127.0,127.0,127.0,127.0,127.0,106.0,128.0,28.0,-126.0,-64.0,127.0,127.0,127.0,127.0,89.0,-37.0
127.0,127.0,127.0,127.0,127.0,127.0,107.0,128.0,29.0,-126.0,-64.0,127.0,127.0,127.0,127.0,89.0,-37.0
127.0,127.0,127.0,127.0,127.0,127.0,106.0,128.0,29.0,-126.0,-64.0,127.0,127.0,127.0,127.0,89.0,-37.0
127.0,127.0,127.0,127.0,127.0,127.0,106.0,128.0,29.0,-126.0,-64.0,127.0,127.0,127.0,127.0,89.0,-37.0
127.0,127.0,127.0,127.0,126.0,127.0,107.0,128.0,29.0,-126.0,-64.0,127.0,127.0,127.0,127.0,89.0,-37.0
127.0,127.0,127.0,127.0,126.0,127.0,112.0,128.0,29.0,-126.0,-64.0,127.0,127.0,127.0,127.0,89.0,-37.0
126.0,127.0,127.0,127.0,127.0,128.0,106.0,128.0,29.0,-126.0,-64.0,127.0,127.0,127.0,127.0,89.0,-37.0
126.0,127.0,127.0,127.0,127.0,128.0,106.0,128.0,29.0,-126.0,-64.0,127.0,127.0,127.0,127.0,89.0,-37.0
127.0,127.0,127.0,127.0,127.0,127.0,106.0,128.0,29.0,-126.0,-64.0,127.0,127.0,127.0,127.0,89.0,-37.0
127.0,127.0,127.0,127.0,127.0,127.0,107.0,128.0,29.0,-126.0,-64.0,127.0,127.0,127.0,127.0,89.0,-37.0
127.0,127.0,127.0,127.0,127.0,127.0,106.0,128.0,29.0,-126.0,-64.0,127.0,127.0,127.0,127.0,89.0,-37.0
126.0,127.0,127.0,127.0,126.0,127.0,106.0,128.0,29.0,-126.0,-64.0,127.0,127.0,127.0,127.0,89.0,-37.0
126.0,127.0,127.0,127.0,126.0,127.0,106.0,128.0,29.0,-126.0,-64.0,127.0,127.0,127.0,127.0,89.0,-37.0
126.0,127.0,127.0,127.0,126.0,127.0,106.0,128.0,29.0,-126.0,-64.0,127.0,127.0,127.0,127.0,89.0,-37.0
126.0,127.0,127.0,127.0,126.0,127.0,109.0,128.0,29.0,-126.0,-64.0,127.0,127.0,127.0,127.0,89.0,-37.0
126.0,127.0,126.0,127.0,126.0,127.0,107.0,128.0,29.0,-126.0,-64.0,127.0,127.0,127.0,127.0,89.0,-37.0
126.0,127.0,126.0,127.0,126.0,127.0,107.0,128.0,29.0,-126.0,-64.0,127.0,127.0,127.0,127.0,89.0,-37.0
126.0,127.0,126.0,127.0,126.0,127.0,107.0,128.0,29.0,-126.0,-64.0,127.0,127.0,127.0,127.0,89.0,-37.0
126.0,127.0,126.0,127.0,126.0,127.0,107.0,128.0,29.0,-126.0,-64.0,127.0,127.0,127.0,127.0,89.0,-37.0
126.0,127.0,127.0,127.0,126.0,127.0,106.0,128.0,29.0,-126.0,-64.0,127.0,127.0,127.0,127.0,89.0,-37.0
126.0,127.0,127.0,127.0,126.0,127.0,107.0,128.0,29.0,-126.0,-64.0,127.0,127.0,127.0,127.0,89.0,-37.0
127.0,127.0,127.0,127.0,127.0,127.0,106.0,128.0,29.0,-126.0,-64.0,127.0,127.0,127.0,127.0,89.0,-37.0
127.0,127.0,127.0,127.0,127.0,127.0,106.0,128.0,29.0,-126.0,-64.0,127.0,127.0,127.0,127.0,89.0,-37.0
127.0,127.0,127.0,127.0,127.0,127.0,106.0,128.0,29.0,-126.0,-64.0,127.0,127.0,127.0,127.0,89.0,-37.0
126.0,127.0,127.0,127.0,127.0,127.0,107.0,128.0,29.0,-126.0,-64.0,127.0,127.0,127.0,127.0,89.0,-37.0
126.0,127.0,127.0,127.0,127.0,127.0,107.0,128.0,29.0,-126.0,-64.0,127.0,127.0,127.0,127.0,89.0,-37.0
126.0,127.0,127.0,127.0,127.0,127.0,107.0,128.0,29.0,-126.0,-64.0,127.0,127.0,127.0,127.0,89.0,-37.0
126.0,127.0,127.0,127.0,127.0,127.0,107.0,128.0,29.0,-126.0,-64.0,127.0,127.0,127.0,127.0,89.0,-37.0
126.0,127.0,127.0,127.0,127.0,127.0,107.0,128.0,29.0,-126.0,-64.0,127.0,127.0,127.0,127.0,89.0,-37.0
126.0,127.0,127.0,127.0,127.0,127.0,107.0,128.0,29.0,-126.0,-64.0,127.0,127.0,127.0,127.0,89.0,-37.0
126.0,127.0,127.0,127.0,127.0,127.0,106.0,128.0,29.0,-126.0,-64.0,127.0,127.0,127.0,127.0,89.0,-37.0
127.0,127.0,127.0,127.0,126.0,127.0,106.0,128.0,29.0,-126.0,-64.0,127.0,127.0,127.0,127.0,89.0,-37.0
127.0,127.0,127.0,127.0,127.0,127.0,106.0,128.0,29.0,-126.0,-64.0,127.0,127.0,127.0,127.0,89.0,-37.0
126.0,127.0,126.0,127.0,126.0,127.0,106.0,128.0,29.0,-126.0,-64.0,127.0,127.0,127.0,127.0,89.0,-37.0
126.0,127.0,126.0,127.0,126.0,128.0,106.0,128.0,29.0,-126.0,-64.0,127.0,127.0,127.0,127.0,89.0,-37.0
126.0,127.0,126.0,127.0,126.0,127.0,106.0,128.0,29.0,-126.0,-64.0,127.0,127.0,127.0,127.0,89.0,-37.0
126.0,127.0,126.0,127.0,126.0,128.0,107.0,128.0,29.0,-126.0,-64.0,127.0,127.0,127.0,127.0,89.0,-37.0
126.0,127.0,126.0,127.0,126.0,128.0,107.0,128.0,29.0,-126.0,-64.0,127.0,127.0,127.0,127.0,89.0,-37.0
126.0,127.0,127.0,127.0,126.0,128.0,107.0,128.0,29.0,-126.0,-64.0,127.0,127.0,127.0,127.0,89.0,-37.0
127.0,127.0,127.0,127.0,126.0,128.0,106.0,128.0,29.0,-126.0,-64.0,127.0,127.0,127.0,127.0,89.0,-37.0
127.0,127.0,127.0,127.0,126.0,127.0,106.0,128.0,29.0,-126.0,-64.0,127.0,127.0,127.0,127.0,89.0,-37.0
126.0,127.0,127.0,127.0,127.0,127.0,107.0,128.0,30.0,-126.0,-64.0,127.0,127.0,127.0,127.0,89.0,-37.0
126.0,127.0,127.0,127.0,126.0,127.0,111.0,128.0,30.0,-126.0,-64.0,127.0,127.0,127.0,127.0,89.0,-37.0
126.0,127.0,127.0,127.0,126.0,127.0,107.0,128.0,30.0,-126.0,-64.0,127.0,127.0,127.0,127.0,89.0,-37.0
126.0,127.0,127.0,127.0,126.0,127.0,106.0,128.0,30.0,-126.0,-64.0,127.0,127.0,127.0,127.0,89.0,-37.0
126.0,127.0,127.0,127.0,126.0,127.0,105.0,128.0,30.0,-126.0,-64.0,127.0,127.0,127.0,127.0,89.0,-37.0
126.0,127.0,127.0,127.0,126.0,127.0,108.0,128.0,30.0,-126.0,-64.0,127.0,127.0,127.0,127.0,89.0,-37.0
127.0,127.0,127.0,127.0,126.0,127.0,107.0,128.0,30.0,-126.0,-64.0,127.0,127.0,127.0,127.0,89.0,-37.0
126.0,127.0,127.0,127.0,126.0,127.0,108.0,128.0,30.0,-126.0,-64.0,127.0,127.0,127.0,127.0,89.0,-37.0
126.0,127.0,127.0,127.0,127.0,127.0,107.0,128.0,30.0,-126.0,-64.0,127.0,127.0,127.0,127.0,89.0,-37.0
126.0,127.0,127.0,127.0,127.0,127.0,107.0,128.0,30.0,-126.0,-64.0,127.0,127.0,127.0,127.0,89.0,-37.0
126.0,127.0,127.0,127.0,126.0,126.0,113.0,128.0,30.0,-126.0,-64.0,127.0,127.0,127.0,127.0,89.0,-37.0
126.0,126.0,127.0,127.0,126.0,126.0,112.0,128.0,30.0,-126.0,-64.0,127.0,127.0,127.0,127.0,89.0,-37.0
126.0,126.0,127.0,127.0,126.0,126.0,112.0,128.0,30.0,-126.0,-64.0,127.0,127.0,127.0,127.0,89.0,-37.0
126.0,126.0,127.0,127.0,126.0,126.0,113.0,128.0,30.0,-126.0,-64.0,127.0,127.0,127.0,127.0,89.0,-37.0
127.0,126.0,127.0,127.0,126.0,126.0,113.0,128.0,30.0,-126.0,-64.0,127.0,127.0,127.0,127.0,89.0,-37.0
127.0,126.0,127.0,127.0,126.0,127.0,112.0,128.0,30.0,-126.0,-64.0,127.0,127.0,127.0,127.0,89.0,-37.0
127.0,126.0,127.0,127.0,127.0,127.0,112.0,128.0,30.0,-126.0,-64.0,127.0,127.0,127.0,127.0,89.0,-37.0
127.0,126.0,127.0,127.0,127.0,127.0,112.0,128.0,30.0,-126.0,-64.0,127.0,127.0,127.0,127.0,89.0,-37.0
127.0,126.0,127.0,127.0,127.0,127.0,112.0,128.0,30.0,-126.0,-64.0,127.0,127.0,127.0,127.0,89.0,-37.0
127.0,126.0,127.0,127.0,127.0,127.0,113.0,128.0,30.0,-126.0,-64.0,127.0,127.0,127.0,127.0,89.0,-37.0
126.0,127.0,127.0,127.0,127.0,127.0,107.0,128.0,30.0,-126.0,-64.0,127.0,127.0,127.0,127.0,89.0,-37.0
126.0,127.0,127.0,127.0,127.0,127.0,106.0,128.0,30.0,-126.0,-64.0,127.0,127.0,127.0,127.0,89.0,-37.0
126.0,127.0,127.0,127.0,127.0,127.0,106.0,128.0,30.0,-126.0,-64.0,127.0,127.0,127.0,127.0,89.0,-37.0
126.0,127.0,127.0,127.0,127.0,127.0,106.0,128.0,30.0,-126.0,-64.0,127.0,127.0,127.0,127.0,89.0,-37.0
126.0,127.0,127.0,127.0,127.0,127.0,106.0,128.0,30.0,-126.0,-64.0,127.0,127.0,127.0,127.0,89.0,-37.0
126.0,127.0,127.0,127.0,127.0,127.0,107.0,128.0,30.0,-126.0,-64.0,127.0,127.0,127.0,127.0,89.0,-37.0
126.0,127.0,127.0,127.0,127.0,127.0,107.0,128.0,30.0,-126.0,-64.0,127.0,127.0,127.0,127.0,89.0,-37.0
126.0,127.0,127.0,127.0,127.0,127.0,106.0,128.0,30.0,-126.0,-64.0,127.0,127.0,127.0,127.0,89.0,-37.0
126.0,127.0,127.0,127.0,127.0,127.0,107.0,128.0,30.0,-126.0,-64.0,127.0,127.0,127.0,127.0,89.0,-37.0
126.0,127.0,127.0,127.0,127.0,127.0,112.0,128.0,30.0,-126.0,-64.0,127.0,127.0,127.0,127.0,89.0,-37.0
126.0,127.0,127.0,127.0,127.0,127.0,107.0,128.0,30.0,-126.0,-64.0,127.0,127.0,127.0,127.0,89.0,-37.0
126.0,127.0,127.0,127.0,127.0,127.0,107.0,128.0,30.0,-126.0,-64.0,127.0,127.0,127.0,127.0,89.0,-37.0
126.0,127.0,127.0,128.0,127.0,127.0,106.0,128.0,30.0,-126.0,-64.0,127.0,127.0,127.0,127.0,89.0,-37.0
126.0,127.0,127.0,128.0,127.0,127.0,106.0,128.0,30.0,-126.0,-64.0,127.0,127.0,127.0,127.0,89.0,-37.0
126.0,127.0,127.0,127.0,127.0,127.0,106.0,128.0,30.0,-126.0,-64.0,127.0,127.0,127.0,127.0,89.0,-37.0
126.0,127.0,127.0,127.0,127.0,127.0,106.0,128.0,30.0,-126.0,-64.0,127.0,127.0,127.0,127.0,89.0,-37.0
126.0,127.0,127.0,127.0,127.0,127.0,109.0,128.0,30.0,-126.0,-64.0,127.0,127.0,127.0,127.0,89.0,-37.0
126.0,127.0,127.0,127.0,127.0,127.0,107.0,128.0,30.0,-126.0,-64.0,127.0,127.0,127.0,127.0,89.0,-37.0
126.0,127.0,127.0,127.0,127.0,127.0,107.0,128.0,30.0,-126.0,-64.0,127.0,127.0,127.0,127.0,89.0,-37.0
126.0,127.0,127.0,127.0,127.0,127.0,106.0,128.0,30.0,-126.0,-64.0,127.0,127.0,127.0,127.0,89.0,-37.0
126.0,127.0,127.0,128.0,127.0,127.0,106.0,128.0,30.0,-126.0,-64.0,127.0,127.0,127.0,127.0,89.0,-37.0
126.0,127.0,127.0,127.0,127.0,127.0,106.0,128.0,30.0,-126.0,-64.0,127.0,127.0,127.0,127.0,89.0,-37.0
126.0,127.0,127.0,127.0,127.0,127.0,107.0,128.0,30.0,-126.0,-64.0,127.0,127.0,127.0,127.0,89.0,-37.0
126.0,127.0,127.0,127.0,127.0,127.0,107.0,128.0,30.0,-126.0,-64.0,127.0,127.0,127.0,127.0,89.0,-37.0
126.0,127.0,127.0,127.0,127.0,127.0,112.0,128.0,30.0,-126.0,-64.0,127.0,127.0,127.0,127.0,89.0,-37.0
126.0,127.0,127.0,127.0,127.0,127.0,112.0,128.0,30.0,-126.0,-64.0,127.0,127.0,127.0,127.0,89.0,-37.0
126.0,127.0,127.0,127.0,127.0,127.0,113.0,128.0,30.0,-126.0,-64.0,127.0,127.0,127.0,127.0,89.0,-37.0
126.0,127.0,127.0,128.0,127.0,127.0,107.0,128.0,30.0,-126.0,-64.0,127.0,127.0,127.0,127.0,89.0,-37.0
126.0,127.0,127.0,128.0,127.0,127.0,106.0,128.0,30.0,-126.0,-64.0,127.0,127.0,127.0,127.0,89.0,-37.0
126.0,127.0,127.0,128.0,127.0,127.0,106.0,128.0,30.0,-126.0,-64.0,127.0,127.0,127.0,127.0,89.0,-37.0
126.0,127.0,127.0,127.0,126.0,127.0,106.0,128.0,30.0,-126.0,-64.0,127.0,127.0,127.0,127.0,89.0,-37.0
126.0,127.0,127.0,127.0,126.0,127.0,106.0,128.0,30.0,-126.0,-64.0,127.0,127.0,127.0,127.0,89.0,-37.0
126.0,127.0,127.0,127.0,126.0,127.0,106.0,128.0,30.0,-126.0,-64.0,127.0,127.0,127.0,127.0,89.0,-37.0
127.0,127.0,127.0,127.0,127.0,127.0,106.0,128.0,30.0,-126.0,-64.0,127.0,127.0,127.0,127.0,89.0,-37.0
127.0,127.0,127.0,127.0,126.0,127.0,110.0,128.0,30.0,-126.0,-64.0,127.0,127.0,127.0,127.0,89.0,-37.0
127.0,127.0,127.0,127.0,126.0,127.0,110.0,128.0,30.0,-126.0,-64.0,127.0,127.0,127.0,127.0,89.0,-37.0
126.0,127.0,127.0,127.0,126.0,127.0,107.0,128.0,30.0,-126.0,-64.0,127.0,127.0,127.0,127.0,89.0,-37.0
126.0,127.0,127.0,127.0,126.0,127.0,106.0,128.0,30.0,-126.0,-64.0,127.0,127.0,127.0,127.0,89.0,-37.0
126.0,127.0,127.0,127.0,126.0,127.0,106.0,128.0,30.0,-126.0,-64.0,127.0,127.0,127.0,127.0,89.0,-37.0
126.0,127.0,127.0,127.0,127.0,127.0,106.0,128.0,30.0,-126.0,-64.0,127.0,127.0,127.0,127.0,89.0,-37.0
126.0,127.0,127.0,127.0,127.0,128.0,106.0,128.0,30.0,-126.0,-64.0,127.0,127.0,127.0,127.0,89.0,-37.0
126.0,127.0,127.0,127.0,127.0,128.0,106.0,128.0,30.0,-126.0,-64.0,127.0,127.0,127.0,127.0,89.0,-37.0
126.0,127.0,127.0,127.0,127.0,127.0,106.0,128.0,30.0,-126.0,-64.0,127.0,127.0,127.0,127.0,89.0,-37.0
126.0,127.0,127.0,127.0,127.0,127.0,107.0,128.0,30.0,-126.0,-64.0,127.0,127.0,127.0,127.0,89.0,-37.0
127.0,127.0,127.0,127.0,127.0,127.0,106.0,128.0,30.0,-126.0,-64.0,127.0,127.0,127.0,127.0,89.0,-37.0
126.0,127.0,127.0,127.0,127.0,128.0,107.0,128.0,30.0,-126.0,-64.0,127.0,127.0,127.0,127.0,89.0,-37.0
126.0,127.0,127.0,127.0,127.0,128.0,107.0,128.0,30.0,-126.0,-64.0,127.0,127.0,127.0,127.0,89.0,-37.0
126.0,127.0,127.0,127.0,127.0,128.0,106.0,128.0,30.0,-126.0,-64.0,127.0,127.0,127.0,127.0,89.0,-37.0
126.0,127.0,127.0,127.0,127.0,128.0,107.0,128.0,30.0,-126.0,-64.0,127.0,127.0,127.0,127.0,89.0,-37.0
126.0,127.0,127.0,127.0,127.0,128.0,107.0,128.0,30.0,-126.0,-64.0,127.0,127.0,127.0,127.0,89.0,-37.0
126.0,127.0,127.0,127.0,126.0,127.0,107.0,128.0,30.0,-126.0,-64.0,127.0,127.0,127.0,127.0,89.0,-37.0
126.0,127.0,127.0,127.0,126.0,127.0,109.0,128.0,30.0,-126.0,-64.0,127.0,127.0,127.0,127.0,89.0,-37.0
126.0,127.0,127.0,127.0,126.0,127.0,112.0,128.0,30.0,-126.0,-64.0,127.0,127.0,127.0,127.0,89.0,-37.0
126.0,127.0,127.0,127.0,126.0,127.0,113.0,128.0,30.0,-126.0,-64.0,127.0,127.0,127.0,127.0,89.0,-37.0
126.0,127.0,127.0,127.0,127.0,127.0,107.0,128.0,30.0,-126.0,-64.0,127.0,127.0,127.0,127.0,89.0,-37.0
126.0,127.0,127.0,127.0,127.0,127.0,107.0,128.0,30.0,-126.0,-64.0,127.0,127.0,127.0,127.0,89.0,-37.0
126.0,127.0,127.0,127.0,127.0,127.0,106.0,128.0,30.0,-126.0,-64.0,127.0,127.0,127.0,127.0,89.0,-37.0
126.0,127.0,127.0,127.0,126.0,127.0,106.0,128.0,30.0,-126.0,-64.0,127.0,127.0,127.0,127.0,89.0,-37.0
126.0,127.0,127.0,127.0,126.0,127.0,106.0,128.0,30.0,-126.0,-64.0,127.0,127.0,127.0,127.0,89.0,-37.0
126.0,127.0,127.0,127.0,126.0,127.0,107.0,128.0,30.0,-126.0,-64.0,127.0,127.0,127.0,127.0,89.0,-37.0
126.0,127.0,127.0,127.0,126.0,127.0,106.0,128.0,30.0,-126.0,-64.0,127.0,127.0,127.0,127.0,89.0,-37.0
126.0,127.0,127.0,127.0,126.0,128.0,106.0,128.0,30.0,-126.0,-64.0,127.0,127.0,127.0,127.0,89.0,-37.0
126.0,127.0,127.0,127.0,126.0,128.0,107.0,128.0,30.0,-126.0,-64.0,127.0,127.0,127.0,127.0,89.0,-37.0
126.0,127.0,127.0,127.0,127.0,127.0,110.0,128.0,30.0,-126.0,-64.0,127.0,127.0,127.0,127.0,89.0,-37.0
126.0,127.0,127.0,127.0,126.0,127.0,110.0,128.0,30.0,-126.0,-64.0,127.0,127.0,127.0,127.0,89.0,-37.0
126.0,127.0,127.0,127.0,127.0,127.0,107.0,128.0,30.0,-126.0,-64.0,127.0,127.0,127.0,127.0,89.0,-37.0
126.0,127.0,127.0,127.0,126.0,127.0,106.0,128.0,30.0,-126.0,-64.0,127.0,127.0,127.0,127.0,89.0,-37.0
126.0,127.0,127.0,127.0,126.0,127.0,106.0,128.0,30.0,-126.0,-64.0,127.0,127.0,127.0,127.0,89.0,-37.0
126.0,127.0,127.0,127.0,126.0,127.0,107.0,128.0,30.0,-126.0,-64.0,127.0,127.0,127.0,127.0,89.0,-37.0
126.0,127.0,127.0,127.0,126.0,127.0,106.0,128.0,30.0,-126.0,-64.0,127.0,127.0,127.0,127.0,89.0,-37.0
127.0,126.0,127.0,127.0,127.0,127.0,112.0,127.0,30.0,-126.0,-64.0,127.0,127.0,127.0,127.0,89.0,-37.0
127.0,126.0,127.0,127.0,127.0,127.0,112.0,127.0,30.0,-126.0,-64.0,127.0,127.0,127.0,127.0,89.0,-37.0
127.0,127.0,127.0,127.0,127.0,127.0,113.0,128.0,30.0,-126.0,-64.0,127.0,127.0,127.0,127.0,89.0,-37.0
127.0,127.0,127.0,127.0,127.0,127.0,113.0,128.0,30.0,-126.0,-64.0,127.0,127.0,127.0,127.0,89.0,-37.0
127.0,127.0,127.0,127.0,127.0,127.0,112.0,127.0,30.0,-126.0,-64.0,127.0,127.0,127.0,127.0,89.0,-37.0
127.0,127.0,127.0,127.0,127.0,127.0,112.0,128.0,30.0,-126.0,-64.0,127.0,127.0,127.0,127.0,89.0,-37.0
127.0,127.0,127.0,127.0,127.0,127.0,112.0,128.0,30.0,-126.0,-64.0,127.0,127.0,127.0,127.0,89.0,-37.0
127.0,126.0,127.0,127.0,127.0,127.0,112.0,128.0,30.0,-126.0,-64.0,127.0,127.0,127.0,127.0,89.0,-37.0
127.0,126.0,127.0,127.0,127.0,127.0,112.0,127.0,30.0,-126.0,-64.0,127.0,127.0,127.0,127.0,89.0,-37.0
127.0,126.0,127.0,127.0,127.0,127.0,112.0,127.0,30.0,-126.0,-64.0,127.0,127.0,127.0,127.0,89.0,-37.0
126.0,127.0,127.0,127.0,127.0,127.0,106.0,128.0,30.0,-126.0,-64.0,127.0,127.0,127.0,127.0,89.0,-37.0
126.0,127.0,127.0,127.0,127.0,127.0,106.0,128.0,30.0,-126.0,-64.0,127.0,127.0,127.0,127.0,89.0,-37.0
126.0,127.0,127.0,127.0,127.0,127.0,106.0,128.0,30.0,-126.0,-64.0,127.0,127.0,127.0,127.0,89.0,-37.0
126.0,127.0,127.0,127.0,127.0,127.0,108.0,128.0,30.0,-126.0,-64.0,127.0,127.0,127.0,127.0,89.0,-37.0
126.0,127.0,127.0,127.0,127.0,127.0,113.0,128.0,30.0,-126.0,-64.0,127.0,127.0,127.0,127.0,89.0,-37.0
126.0,127.0,127.0,127.0,127.0,127.0,112.0,128.0,30.0,-126.0,-64.0,127.0,127.0,127.0,127.0,89.0,-37.0
126.0,127.0,127.0,127.0,127.0,127.0,111.0,128.0,30.0,-126.0,-64.0,127.0,127.0,127.0,127.0,89.0,-37.0
126.0,127.0,127.0,127.0,127.0,127.0,107.0,128.0,30.0,-126.0,-64.0,127.0,127.0,127.0,127.0,89.0,-37.0
126.0,127.0,127.0,127.0,127.0,127.0,106.0,128.0,30.0,-126.0,-64.0,127.0,127.0,127.0,127.0,89.0,-37.0
126.0,127.0,127.0,127.0,127.0,127.0,107.0,128.0,30.0,-126.0,-64.0,127.0,127.0,127.0,127.0,89.0,-37.0
127.0,127.0,127.0,127.0,126.0,127.0,112.0,128.0,30.0,-126.0,-64.0,127.0,127.0,127.0,127.0,89.0,-37.0
127.0,127.0,127.0,127.0,127.0,127.0,113.0,128.0,30.0,-126.0,-64.0,127.0,127.0,127.0,127.0,89.0,-37.0
126.0,127.0,127.0,127.0,127.0,127.0,112.0,128.0,30.0,-126.0,-64.0,127.0,127.0,127.0,127.0,89.0,-37.0
126.0,127.0,127.0,127.0,127.0,127.0,108.0,128.0,30.0,-126.0,-64.0,127.0,127.0,127.0,127.0,89.0,-37.0
126.0,127.0,127.0,127.0,127.0,127.0,106.0,128.0,30.0,-126.0,-64.0,127.0,127.0,127.0,127.0,89.0,-37.0
127.0,127.0,127.0,127.0,127.0,127.0,106.0,128.0,30.0,-126.0,-64.0,127.0,127.0,127.0,127.0,89.0,-37.0
127.0,127.0,127.0,127.0,127.0,127.0,107.0,128.0,30.0,-126.0,-64.0,127.0,127.0,127.0,127.0,89.0,-37.0
127.0,127.0,127.0,127.0,127.0,127.0,106.0,128.0,30.0,-126.0,-64.0,127.0,127.0,127.0,127.0,89.0,-37.0
127.0,127.0,127.0,127.0,127.0,127.0,106.0,128.0,30.0,-126.0,-64.0,127.0,127.0,127.0,127.0,89.0,-37.0
126.0,127.0,127.0,127.0,127.0,127.0,106.0,128.0,30.0,-126.0,-64.0,127.0,127.0,127.0,127.0,89.0,-37.0
126.0,126.0,127.0,127.0,126.0,127.0,112.0,128.0,30.0,-126.0,-64.0,127.0,127.0,127.0,127.0,89.0,-37.0
126.0,127.0,126.0,127.0,126.0,127.0,112.0,128.0,30.0,-126.0,-64.0,127.0,127.0,127.0,127.0,89.0,-37.0
126.0,127.0,126.0,127.0,126.0,127.0,109.0,128.0,30.0,-126.0,-64.0,127.0,127.0,127.0,127.0,89.0,-37.0
126.0,127.0,127.0,127.0,126.0,127.0,110.0,128.0,30.0,-126.0,-64.0,127.0,127.0,127.0,127.0,89.0,-37.0
126.0,127.0,127.0,127.0,126.0,127.0,113.0,128.0,30.0,-126.0,-64.0,127.0,127.0,127.0,127.0,89.0,-37.0
126.0,127.0,127.0,127.0,126.0,127.0,113.0,128.0,30.0,-126.0,-64.0,127.0,127.0,127.0,127.0,89.0,-37.0
126.0,127.0,127.0,127.0,126.0,127.0,112.0,128.0,30.0,-126.0,-64.0,127.0,127.0,127.0,127.0,89.0,-37.0
126.0,127.0,127.0,127.0,126.0,127.0,113.0,128.0,30.0,-126.0,-64.0,127.0,127.0,127.0,127.0,89.0,-37.0
126.0,127.0,127.0,127.0,126.0,127.0,108.0,128.0,30.0,-126.0,-64.0,127.0,127.0,127.0,127.0,89.0,-37.0
126.0,127.0,127.0,127.0,126.0,126.0,112.0,127.0,30.0,-126.0,-64.0,127.0,127.0,127.0,127.0,89.0,-37.0
126.0,127.0,127.0,127.0,127.0,127.0,113.0,128.0,30.0,-126.0,-64.0,127.0,127.0,127.0,127.0,89.0,-37.0
126.0,127.0,127.0,127.0,127.0,127.0,108.0,128.0,30.0,-126.0,-64.0,127.0,127.0,127.0,127.0,89.0,-37.0
126.0,127.0,127.0,127.0,127.0,127.0,107.0,128.0,30.0,-126.0,-64.0,127.0,127.0,127.0,127.0,89.0,-37.0
126.0,127.0,127.0,127.0,127.0,127.0,107.0,128.0,30.0,-126.0,-64.0,127.0,127.0,127.0,127.0,89.0,-37.0
126.0,127.0,127.0,127.0,127.0,127.0,106.0,128.0,30.0,-126.0,-64.0,127.0,127.0,127.0,127.0,89.0,-37.0
126.0,127.0,127.0,127.0,127.0,127.0,106.0,128.0,30.0,-126.0,-64.0,127.0,127.0,127.0,127.0,89.0,-37.0
126.0,127.0,127.0,127.0,126.0,127.0,106.0,128.0,30.0,-126.0,-64.0,127.0,127.0,127.0,127.0,89.0,-37.0
126.0,127.0,127.0,127.0,126.0,127.0,106.0,128.0,30.0,-126.0,-64.0,127.0,127.0,127.0,127.0,89.0,-37.0
127.0,127.0,127.0,127.0,127.0,127.0,112.0,128.0,30.0,-126.0,-64.0,127.0,127.0,127.0,127.0,89.0,-37.0
126.0,127.0,127.0,127.0,127.0,127.0,113.0,128.0,30.0,-126.0,-64.0,127.0,127.0,127.0,127.0,89.0,-37.0
126.0,127.0,127.0,127.0,127.0,127.0,110.0,128.0,30.0,-126.0,-64.0,127.0,127.0,127.0,127.0,89.0,-37.0
126.0,127.0,127.0,127.0,127.0,127.0,108.0,128.0,30.0,-126.0,-64.0,127.0,127.0,127.0,127.0,89.0,-37.0
126.0,127.0,127.0,127.0,127.0,127.0,107.0,128.0,30.0,-126.0,-64.0,127.0,127.0,127.0,127.0,89.0,-37.0
126.0,127.0,127.0,127.0,127.0,127.0,111.0,128.0,30.0,-126.0,-64.0,127.0,127.0,127.0,127.0,89.0,-37.0
126.0,127.0,127.0,127.0,127.0,127.0,111.0,128.0,30.0,-126.0,-64.0,127.0,127.0,127.0,127.0,89.0,-37.0
126.0,127.0,127.0,127.0,127.0,127.0,108.0,127.0,30.0,-126.0,-64.0,127.0,127.0,127.0,127.0,89.0,-37.0
126.0,127.0,127.0,127.0,127.0,127.0,108.0,128.0,30.0,-126.0,-64.0,127.0,127.0,127.0,127.0,89.0,-37.0
126.0,127.0,127.0,128.0,127.0,127.0,112.0,127.0,30.0,-126.0,-64.0,127.0,127.0,127.0,127.0,89.0,-37.0
126.0,127.0,127.0,127.0,127.0,127.0,112.0,127.0,30.0,-126.0,-64.0,127.0,127.0,127.0,127.0,89.0,-37.0
126.0,127.0,127.0,127.0,127.0,127.0,112.0,127.0,30.0,-126.0,-64.0,127.0,127.0,127.0,127.0,89.0,-37.0
126.0,127.0,127.0,127.0,127.0,127.0,107.0,128.0,30.0,-126.0,-64.0,127.0,127.0,127.0,127.0,89.0,-37.0
126.0,127.0,127.0,127.0,127.0,127.0,107.0,128.0,30.0,-126.0,-64.0,127.0,127.0,127.0,127.0,89.0,-37.0
127.0,127.0,127.0,127.0,127.0,127.0,107.0,128.0,30.0,-126.0,-64.0,127.0,127.0,127.0,127.0,89.0,-37.0
127.0,127.0,127.0,127.0,127.0,127.0,107.0,128.0,30.0,-126.0,-64.0,127.0,127.0,127.0,127.0,89.0,-37.0
127.0,127.0,127.0,127.0,127.0,127.0,106.0,128.0,30.0,-126.0,-64.0,127.0,127.0,127.0,127.0,89.0,-37.0
127.0,127.0,127.0,127.0,127.0,127.0,106.0,128.0,30.0,-126.0,-64.0,127.0,127.0,127.0,127.0,89.0,-37.0
126.0,127.0,127.0,127.0,127.0,128.0,106.0,128.0,30.0,-126.0,-64.0,127.0,127.0,127.0,127.0,89.0,-37.0
126.0,127.0,127.0,127.0,127.0,128.0,106.0,128.0,30.0,-126.0,-64.0,127.0,127.0,127.0,127.0,89.0,-37.0
126.0,127.0,127.0,127.0,127.0,127.0,106.0,128.0,30.0,-126.0,-64.0,127.0,127.0,127.0,127.0,89.0,-37.0
126.0,127.0,127.0,127.0,127.0,127.0,106.0,128.0,30.0,-126.0,-64.0,127.0,127.0,127.0,127.0,89.0,-37.0
126.0,127.0,127.0,127.0,127.0,127.0,106.0,128.0,30.0,-126.0,-64.0,127.0,127.0,127.0,127.0,89.0,-37.0
126.0,127.0,127.0,127.0,127.0,127.0,107.0,128.0,30.0,-126.0,-64.0,127.0,127.0,127.0,127.0,89.0,-37.0
126.0,127.0,127.0,127.0,127.0,127.0,110.0,128.0,30.0,-126.0,-64.0,127.0,127.0,127.0,127.0,89.0,-37.0
126.0,127.0,127.0,127.0,127.0,127.0,108.0,128.0,30.0,-126.0,-64.0,127.0,127.0,127.0,127.0,89.0,-37.0
126.0,127.0,127.0,127.0,127.0,127.0,111.0,128.0,30.0,-126.0,-64.0,127.0,127.0,127.0,127.0,89.0,-37.0
126.0,127.0,127.0,127.0,127.0,127.0,106.0,128.0,30.0,-126.0,-64.0,127.0,127.0,127.0,127.0,89.0,-37.0
126.0,127.0,127.0,127.0,127.0,127.0,108.0,128.0,30.0,-126.0,-64.0,127.0,127.0,127.0,127.0,89.0,-37.0
126.0,127.0,127.0,127.0,127.0,127.0,106.0,128.0,30.0,-126.0,-64.0,127.0,127.0,127.0,127.0,89.0,-37.0
126.0,127.0,127.0,127.0,127.0,127.0,106.0,128.0,30.0,-126.0,-64.0,127.0,127.0,127.0,127.0,89.0,-37.0
126.0,127.0,127.0,127.0,127.0,127.0,106.0,128.0,30.0,-126.0,-64.0,127.0,127.0,127.0,127.0,89.0,-37.0
127.0,127.0,127.0,127.0,127.0,127.0,107.0,128.0,30.0,-126.0,-64.0,127.0,127.0,127.0,127.0,89.0,-37.0
127.0,127.0,127.0,127.0,127.0,127.0,106.0,128.0,30.0,-126.0,-64.0,127.0,127.0,127.0,127.0,89.0,-37.0
127.0,127.0,127.0,127.0,127.0,127.0,106.0,128.0,30.0,-126.0,-64.0,127.0,127.0,127.0,127.0,89.0,-37.0
127.0,127.0,127.0,127.0,127.0,127.0,106.0,128.0,30.0,-126.0,-64.0,127.0,127.0,127.0,127.0,89.0,-37.0
126.0,127.0,127.0,127.0,127.0,128.0,107.0,128.0,30.0,-126.0,-64.0,127.0,127.0,127.0,127.0,89.0,-37.0
126.0,127.0,127.0,127.0,127.0,128.0,107.0,128.0,30.0,-126.0,-64.0,127.0,127.0,127.0,127.0,89.0,-37.0
127.0,127.0,127.0,127.0,127.0,128.0,107.0,128.0,30.0,-126.0,-64.0,127.0,127.0,127.0,127.0,89.0,-37.0
126.0,127.0,127.0,127.0,127.0,128.0,107.0,128.0,30.0,-126.0,-64.0,127.0,127.0,127.0,127.0,89.0,-37.0
127.0,127.0,127.0,127.0,127.0,128.0,107.0,128.0,30.0,-126.0,-64.0,127.0,127.0,127.0,127.0,89.0,-37.0
127.0,127.0,127.0,127.0,127.0,127.0,106.0,128.0,30.0,-126.0,-64.0,127.0,127.0,127.0,127.0,89.0,-37.0
127.0,127.0,127.0,127.0,127.0,127.0,106.0,128.0,30.0,-126.0,-64.0,127.0,127.0,127.0,127.0,89.0,-37.0
127.0,127.0,127.0,127.0,126.0,127.0,107.0,128.0,30.0,-126.0,-64.0,127.0,127.0,127.0,127.0,89.0,-37.0
127.0,127.0,127.0,127.0,126.0,127.0,108.0,128.0,30.0,-126.0,-64.0,127.0,127.0,127.0,127.0,89.0,-37.0
126.0,127.0,127.0,127.0,127.0,127.0,106.0,128.0,30.0,-126.0,-64.0,127.0,127.0,127.0,127.0,89.0,-37.0
126.0,127.0,127.0,128.0,127.0,127.0,106.0,128.0,30.0,-126.0,-64.0,127.0,127.0,127.0,127.0,89.0,-37.0
126.0,127.0,127.0,128.0,127.0,127.0,106.0,128.0,30.0,-126.0,-64.0,127.0,127.0,127.0,127.0,89.0,-37.0
126.0,127.0,127.0,127.0,127.0,127.0,106.0,128.0,30.0,-126.0,-64.0,127.0,127.0,127.0,127.0,89.0,-37.0
127.0,127.0,127.0,127.0,127.0,127.0,107.0,128.0,30.0,-126.0,-64.0,127.0,127.0,127.0,127.0,89.0,-37.0
127.0,127.0,127.0,127.0,127.0,127.0,107.0,128.0,30.0,-126.0,-64.0,127.0,127.0,127.0,127.0,89.0,-37.0
127.0,127.0,127.0,127.0,127.0,127.0,107.0,128.0,30.0,-126.0,-64.0,127.0,127.0,127.0,127.0,89.0,-37.0
126.0,127.0,127.0,127.0,127.0,127.0,107.0,128.0,30.0,-126.0,-64.0,127.0,127.0,127.0,127.0,89.0,-37.0
126.0,127.0,127.0,127.0,127.0,127.0,107.0,128.0,30.0,-126.0,-64.0,127.0,127.0,127.0,127.0,89.0,-37.0
127.0,127.0,127.0,127.0,127.0,127.0,107.0,128.0,30.0,-126.0,-64.0,127.0,127.0,127.0,127.0,89.0,-37.0
126.0,127.0,127.0,127.0,127.0,127.0,107.0,128.0,30.0,-126.0,-64.0,127.0,127.0,127.0,127.0,89.0,-37.0
126.0,127.0,127.0,127.0,127.0,127.0,107.0,128.0,30.0,-126.0,-64.0,127.0,127.0,127.0,127.0,89.0,-37.0
126.0,127.0,127.0,127.0,127.0,127.0,106.0,128.0,30.0,-126.0,-64.0,127.0,127.0,127.0,127.0,89.0,-37.0
126.0,127.0,127.0,127.0,127.0,128.0,107.0,128.0,30.0,-126.0,-64.0,127.0,127.0,127.0,127.0,89.0,-37.0
126.0,127.0,127.0,127.0,127.0,128.0,107.0,128.0,30.0,-126.0,-64.0,127.0,127.0,127.0,127.0,89.0,-37.0
126.0,127.0,127.0,127.0,127.0,128.0,106.0,128.0,30.0,-126.0,-64.0,127.0,127.0,127.0,127.0,89.0,-37.0
126.0,127.0,127.0,127.0,127.0,127.0,106.0,128.0,30.0,-126.0,-64.0,127.0,127.0,127.0,127.0,89.0,-37.0
126.0,127.0,127.0,127.0,126.0,127.0,106.0,128.0,30.0,-126.0,-64.0,127.0,127.0,127.0,127.0,89.0,-37.0
126.0,127.0,127.0,127.0,127.0,127.0,107.0,128.0,30.0,-126.0,-64.0,127.0,127.0,127.0,127.0,89.0,-37.0
126.0,127.0,126.0,127.0,127.0,127.0,107.0,128.0,30.0,-126.0,-64.0,127.0,127.0,127.0,127.0,89.0,-37.0
126.0,127.0,126.0,127.0,127.0,127.0,107.0,128.0,30.0,-126.0,-64.0,127.0,127.0,127.0,127.0,89.0,-37.0
126.0,127.0,126.0,127.0,127.0,127.0,107.0,128.0,30.0,-126.0,-64.0,127.0,127.0,127.0,127.0,89.0,-37.0
126.0,127.0,126.0,127.0,127.0,127.0,106.0,128.0,30.0,-126.0,-64.0,127.0,127.0,127.0,127.0,89.0,-37.0
126.0,127.0,126.0,127.0,127.0,127.0,107.0,128.0,30.0,-126.0,-64.0,127.0,127.0,127.0,127.0,89.0,-37.0
126.0,127.0,126.0,127.0,127.0,127.0,107.0,128.0,30.0,-126.0,-64.0,127.0,127.0,127.0,127.0,89.0,-37.0
126.0,127.0,126.0,127.0,127.0,127.0,107.0,128.0,30.0,-126.0,-64.0,127.0,127.0,127.0,127.0,89.0,-37.0
126.0,127.0,126.0,127.0,126.0,127.0,106.0,128.0,30.0,-126.0,-64.0,127.0,127.0,127.0,127.0,89.0,-37.0
126.0,127.0,127.0,127.0,127.0,127.0,107.0,128.0,30.0,-126.0,-64.0,127.0,127.0,127.0,127.0,89.0,-37.0
126.0,127.0,127.0,127.0,127.0,127.0,107.0,128.0,30.0,-126.0,-64.0,127.0,127.0,127.0,127.0,89.0,-37.0
126.0,127.0,127.0,127.0,127.0,127.0,106.0,128.0,30.0,-126.0,-64.0,127.0,127.0,127.0,127.0,89.0,-37.0
126.0,127.0,127.0,127.0,127.0,127.0,106.0,128.0,30.0,-126.0,-64.0,127.0,127.0,127.0,127.0,89.0,-37.0
126.0,127.0,127.0,127.0,127.0,127.0,106.0,128.0,30.0,-126.0,-64.0,127.0,127.0,127.0,127.0,89.0,-37.0
126.0,127.0,127.0,127.0,127.0,128.0,107.0,128.0,30.0,-126.0,-64.0,127.0,127.0,127.0,127.0,89.0,-37.0
126.0,127.0,127.0,127.0,127.0,128.0,106.0,128.0,30.0,-126.0,-64.0,127.0,127.0,127.0,127.0,89.0,-37.0
126.0,127.0,127.0,127.0,127.0,128.0,107.0,128.0,30.0,-126.0,-64.0,127.0,127.0,127.0,127.0,89.0,-37.0
126.0,127.0,127.0,127.0,127.0,128.0,107.0,128.0,30.0,-126.0,-64.0,127.0,127.0,127.0,127.0,89.0,-37.0
126.0,127.0,127.0,127.0,127.0,128.0,107.0,128.0,30.0,-126.0,-64.0,127.0,127.0,127.0,127.0,89.0,-37.0
126.0,127.0,127.0,127.0,126.0,127.0,112.0,128.0,30.0,-126.0,-64.0,127.0,127.0,127.0,127.0,89.0,-37.0
126.0,127.0,127.0,127.0,127.0,127.0,111.0,128.0,30.0,-126.0,-64.0,127.0,127.0,127.0,127.0,89.0,-37.0
126.0,127.0,127.0,127.0,127.0,127.0,109.0,128.0,30.0,-126.0,-64.0,127.0,127.0,127.0,127.0,89.0,-37.0
126.0,127.0,127.0,127.0,127.0,127.0,112.0,128.0,30.0,-126.0,-64.0,127.0,127.0,127.0,127.0,89.0,-37.0
126.0,127.0,127.0,127.0,126.0,127.0,112.0,128.0,30.0,-126.0,-64.0,127.0,127.0,127.0,127.0,89.0,-37.0
126.0,127.0,127.0,127.0,126.0,127.0,113.0,128.0,30.0,-126.0,-64.0,127.0,127.0,127.0,127.0,89.0,-37.0
126.0,127.0,127.0,127.0,126.0,127.0,113.0,128.0,30.0,-126.0,-64.0,127.0,127.0,127.0,127.0,89.0,-37.0
126.0,127.0,127.0,127.0,127.0,127.0,108.0,128.0,30.0,-126.0,-64.0,127.0,127.0,127.0,127.0,89.0,-37.0
126.0,127.0,127.0,127.0,127.0,127.0,106.0,128.0,30.0,-126.0,-64.0,127.0,127.0,127.0,127.0,89.0,-37.0
126.0,127.0,127.0,127.0,127.0,127.0,112.0,128.0,30.0,-126.0,-64.0,127.0,127.0,127.0,127.0,89.0,-37.0
126.0,127.0,126.0,127.0,127.0,127.0,108.0,128.0,30.0,-126.0,-64.0,127.0,127.0,127.0,127.0,89.0,-37.0
126.0,127.0,127.0,127.0,127.0,127.0,106.0,128.0,30.0,-126.0,-64.0,127.0,127.0,127.0,127.0,89.0,-37.0
126.0,127.0,127.0,127.0,127.0,127.0,106.0,128.0,30.0,-126.0,-64.0,127.0,127.0,127.0,127.0,89.0,-37.0
126.0,127.0,127.0,127.0,127.0,127.0,106.0,128.0,30.0,-126.0,-64.0,127.0,127.0,127.0,127.0,89.0,-37.0
126.0,127.0,127.0,127.0,127.0,127.0,106.0,128.0,30.0,-126.0,-64.0,127.0,127.0,127.0,127.0,89.0,-37.0
126.0,127.0,127.0,127.0,127.0,127.0,106.0,128.0,30.0,-126.0,-64.0,127.0,127.0,127.0,127.0,89.0,-37.0
126.0,127.0,127.0,127.0,127.0,127.0,106.0,128.0,30.0,-126.0,-64.0,127.0,127.0,127.0,127.0,89.0,-37.0
126.0,127.0,127.0,127.0,127.0,128.0,106.0,128.0,30.0,-126.0,-64.0,127.0,127.0,127.0,127.0,89.0,-37.0
126.0,127.0,127.0,127.0,127.0,127.0,112.0,128.0,30.0,-126.0,-64.0,127.0,127.0,127.0,127.0,89.0,-37.0
126.0,127.0,127.0,127.0,127.0,127.0,113.0,128.0,30.0,-126.0,-64.0,127.0,127.0,127.0,127.0,89.0,-37.0
127.0,127.0,127.0,128.0,127.0,128.0,107.0,128.0,30.0,-126.0,-64.0,127.0,127.0,127.0,127.0,89.0,-37.0
127.0,127.0,127.0,128.0,127.0,128.0,107.0,128.0,30.0,-126.0,-64.0,127.0,127.0,127.0,127.0,89.0,-37.0
127.0,127.0,127.0,128.0,127.0,128.0,107.0,128.0,30.0,-126.0,-64.0,127.0,127.0,127.0,127.0,89.0,-37.0
127.0,127.0,127.0,128.0,127.0,128.0,107.0,128.0,30.0,-126.0,-64.0,127.0,127.0,127.0,127.0,89.0,-37.0
127.0,127.0,127.0,128.0,127.0,128.0,107.0,128.0,30.0,-126.0,-64.0,127.0,127.0,127.0,127.0,89.0,-37.0
127.0,127.0,127.0,128.0,127.0,127.0,106.0,128.0,30.0,-126.0,-64.0,127.0,127.0,127.0,127.0,89.0,-37.0
127.0,127.0,127.0,128.0,127.0,127.0,106.0,128.0,30.0,-126.0,-64.0,127.0,127.0,127.0,127.0,89.0,-37.0
127.0,127.0,127.0,127.0,127.0,128.0,106.0,128.0,30.0,-126.0,-64.0,127.0,127.0,127.0,127.0,89.0,-37.0
127.0,127.0,127.0,127.0,127.0,128.0,106.0,128.0,30.0,-126.0,-64.0,127.0,127.0,127.0,127.0,89.0,-37.0
126.0,127.0,127.0,128.0,127.0,128.0,107.0,128.0,30.0,-126.0,-64.0,127.0,127.0,127.0,127.0,89.0,-37.0
126.0,127.0,127.0,127.0,127.0,127.0,112.0,128.0,29.0,-126.0,-64.0,127.0,127.0,127.0,127.0,89.0,-37.0
126.0,127.0,127.0,127.0,127.0,127.0,112.0,128.0,29.0,-126.0,-64.0,127.0,127.0,127.0,127.0,89.0,-37.0
126.0,127.0,127.0,127.0,127.0,127.0,108.0,128.0,29.0,-126.0,-64.0,127.0,127.0,127.0,127.0,89.0,-37.0
126.0,127.0,127.0,127.0,127.0,127.0,106.0,128.0,29.0,-126.0,-64.0,127.0,127.0,127.0,127.0,89.0,-37.0
126.0,127.0,127.0,127.0,127.0,127.0,107.0,128.0,29.0,-126.0,-64.0,127.0,127.0,127.0,127.0,89.0,-37.0
126.0,127.0,127.0,127.0,127.0,127.0,110.0,128.0,29.0,-126.0,-64.0,127.0,127.0,127.0,127.0,89.0,-37.0
126.0,127.0,127.0,127.0,127.0,127.0,112.0,128.0,29.0,-126.0,-64.0,127.0,127.0,127.0,127.0,89.0,-37.0
126.0,127.0,127.0,127.0,127.0,127.0,112.0,128.0,29.0,-126.0,-64.0,127.0,127.0,127.0,127.0,89.0,-37.0
126.0,127.0,127.0,127.0,127.0,127.0,112.0,128.0,29.0,-126.0,-64.0,127.0,127.0,127.0,127.0,89.0,-37.0
126.0,127.0,127.0,127.0,127.0,127.0,112.0,128.0,29.0,-126.0,-64.0,127.0,127.0,127.0,127.0,89.0,-37.0
126.0,127.0,127.0,127.0,127.0,127.0,105.0,128.0,29.0,-126.0,-64.0,127.0,127.0,127.0,127.0,89.0,-37.0
126.0,127.0,127.0,127.0,127.0,127.0,109.0,128.0,29.0,-126.0,-64.0,127.0,127.0,127.0,127.0,89.0,-37.0
126.0,127.0,127.0,127.0,127.0,127.0,110.0,128.0,29.0,-126.0,-64.0,127.0,127.0,127.0,127.0,89.0,-37.0
126.0,127.0,127.0,127.0,127.0,127.0,112.0,128.0,29.0,-126.0,-64.0,127.0,127.0,127.0,127.0,89.0,-37.0
126.0,127.0,127.0,127.0,127.0,127.0,113.0,128.0,29.0,-126.0,-64.0,127.0,127.0,127.0,127.0,89.0,-37.0
126.0,127.0,127.0,127.0,127.0,127.0,106.0,128.0,29.0,-126.0,-64.0,127.0,127.0,127.0,127.0,89.0,-37.0
126.0,127.0,127.0,127.0,127.0,127.0,106.0,128.0,29.0,-126.0,-64.0,127.0,127.0,127.0,127.0,89.0,-37.0
126.0,127.0,127.0,127.0,127.0,127.0,106.0,128.0,29.0,-126.0,-64.0,127.0,127.0,127.0,127.0,89.0,-37.0
126.0,127.0,127.0,127.0,127.0,127.0,105.0,128.0,29.0,-126.0,-64.0,127.0,127.0,127.0,127.0,89.0,-37.0
126.0,127.0,127.0,127.0,127.0,127.0,106.0,128.0,29.0,-126.0,-64.0,127.0,127.0,127.0,127.0,89.0,-37.0
126.0,127.0,127.0,127.0,127.0,127.0,106.0,128.0,29.0,-126.0,-64.0,127.0,127.0,127.0,127.0,89.0,-37.0
127.0,127.0,127.0,127.0,127.0,127.0,106.0,128.0,29.0,-126.0,-64.0,127.0,127.0,127.0,127.0,89.0,-37.0
127.0,127.0,127.0,127.0,127.0,127.0,106.0,128.0,29.0,-126.0,-64.0,127.0,127.0,127.0,127.0,89.0,-37.0
126.0,127.0,127.0,127.0,127.0,127.0,107.0,128.0,29.0,-126.0,-64.0,127.0,127.0,127.0,127.0,89.0,-37.0
126.0,127.0,127.0,127.0,127.0,127.0,106.0,128.0,29.0,-126.0,-64.0,127.0,127.0,127.0,127.0,89.0,-37.0
126.0,127.0,127.0,127.0,127.0,127.0,106.0,128.0,29.0,-126.0,-64.0,127.0,127.0,127.0,127.0,89.0,-37.0
126.0,127.0,127.0,127.0,127.0,127.0,106.0,128.0,29.0,-126.0,-64.0,127.0,127.0,127.0,127.0,89.0,-37.0
126.0,127.0,127.0,127.0,127.0,127.0,107.0,128.0,29.0,-126.0,-64.0,127.0,127.0,127.0,127.0,89.0,-37.0
126.0,127.0,127.0,127.0,127.0,127.0,106.0,128.0,29.0,-126.0,-64.0,127.0,127.0,127.0,127.0,89.0,-37.0
126.0,127.0,127.0,127.0,127.0,127.0,107.0,128.0,29.0,-126.0,-64.0,127.0,127.0,127.0,127.0,89.0,-37.0
126.0,127.0,127.0,127.0,127.0,127.0,106.0,128.0,29.0,-126.0,-64.0,127.0,127.0,127.0,127.0,89.0,-37.0
126.0,127.0,127.0,127.0,127.0,127.0,107.0,128.0,29.0,-126.0,-64.0,127.0,127.0,127.0,127.0,89.0,-37.0
126.0,127.0,127.0,127.0,127.0,127.0,107.0,128.0,29.0,-126.0,-64.0,127.0,127.0,127.0,127.0,89.0,-37.0
126.0,127.0,127.0,127.0,127.0,127.0,106.0,128.0,29.0,-126.0,-64.0,127.0,127.0,127.0,127.0,89.0,-37.0
126.0,127.0,127.0,127.0,127.0,127.0,106.0,128.0,29.0,-126.0,-64.0,127.0,127.0,127.0,127.0,89.0,-37.0
126.0,127.0,127.0,127.0,127.0,127.0,106.0,128.0,29.0,-126.0,-64.0,127.0,127.0,127.0,127.0,89.0,-37.0
126.0,127.0,127.0,127.0,127.0,128.0,107.0,128.0,29.0,-126.0,-64.0,127.0,127.0,127.0,127.0,89.0,-37.0
126.0,127.0,127.0,127.0,127.0,128.0,107.0,128.0,29.0,-126.0,-64.0,127.0,127.0,127.0,127.0,89.0,-37.0
126.0,127.0,127.0,127.0,127.0,128.0,107.0,128.0,29.0,-126.0,-64.0,127.0,127.0,127.0,127.0,89.0,-37.0
126.0,127.0,127.0,127.0,127.0,127.0,106.0,128.0,29.0,-126.0,-64.0,127.0,127.0,127.0,127.0,89.0,-37.0
126.0,127.0,126.0,127.0,127.0,127.0,106.0,128.0,29.0,-126.0,-64.0,127.0,127.0,127.0,127.0,89.0,-37.0
126.0,127.0,126.0,127.0,127.0,127.0,106.0,128.0,29.0,-126.0,-64.0,127.0,127.0,127.0,127.0,89.0,-37.0
126.0,127.0,127.0,127.0,127.0,127.0,106.0,128.0,29.0,-126.0,-64.0,127.0,127.0,127.0,127.0,89.0,-37.0
126.0,127.0,127.0,127.0,127.0,127.0,106.0,128.0,29.0,-126.0,-64.0,127.0,127.0,127.0,127.0,89.0,-37.0
126.0,127.0,127.0,127.0,127.0,127.0,108.0,128.0,29.0,-126.0,-64.0,127.0,127.0,127.0,127.0,89.0,-37.0
126.0,127.0,127.0,127.0,127.0,127.0,108.0,128.0,29.0,-126.0,-64.0,127.0,127.0,127.0,127.0,89.0,-37.0
126.0,127.0,127.0,127.0,127.0,127.0,107.0,128.0,29.0,-126.0,-64.0,127.0,127.0,127.0,127.0,89.0,-37.0
126.0,127.0,127.0,127.0,127.0,127.0,107.0,128.0,29.0,-126.0,-64.0,127.0,127.0,127.0,127.0,89.0,-37.0
126.0,127.0,126.0,127.0,127.0,128.0,107.0,128.0,29.0,-126.0,-64.0,127.0,127.0,127.0,127.0,89.0,-37.0
126.0,127.0,126.0,127.0,127.0,127.0,107.0,128.0,29.0,-126.0,-64.0,127.0,127.0,127.0,127.0,89.0,-37.0
126.0,127.0,127.0,127.0,126.0,127.0,107.0,128.0,29.0,-126.0,-64.0,127.0,127.0,127.0,127.0,89.0,-37.0
126.0,127.0,127.0,127.0,127.0,127.0,108.0,128.0,29.0,-126.0,-64.0,127.0,127.0,127.0,127.0,89.0,-37.0
126.0,127.0,126.0,127.0,127.0,127.0,107.0,128.0,29.0,-126.0,-64.0,127.0,127.0,127.0,127.0,89.0,-37.0
126.0,127.0,127.0,127.0,127.0,127.0,106.0,128.0,29.0,-126.0,-64.0,127.0,127.0,127.0,127.0,89.0,-37.0
126.0,127.0,127.0,127.0,127.0,127.0,107.0,128.0,29.0,-126.0,-64.0,127.0,127.0,127.0,127.0,89.0,-37.0
126.0,127.0,127.0,127.0,127.0,127.0,106.0,128.0,29.0,-126.0,-64.0,127.0,127.0,127.0,127.0,89.0,-37.0
126.0,127.0,127.0,127.0,127.0,127.0,106.0,128.0,29.0,-126.0,-64.0,127.0,127.0,127.0,127.0,89.0,-37.0
126.0,127.0,127.0,127.0,127.0,127.0,107.0,128.0,29.0,-126.0,-64.0,127.0,127.0,127.0,127.0,89.0,-37.0
126.0,127.0,127.0,127.0,126.0,127.0,107.0,128.0,29.0,-126.0,-64.0,127.0,127.0,127.0,127.0,89.0,-37.0
126.0,127.0,127.0,127.0,126.0,127.0,107.0,128.0,29.0,-126.0,-64.0,127.0,127.0,127.0,127.0,89.0,-37.0
127.0,127.0,126.0,127.0,127.0,127.0,106.0,128.0,29.0,-126.0,-64.0,127.0,127.0,127.0,127.0,89.0,-37.0
126.0,127.0,127.0,127.0,127.0,127.0,106.0,128.0,29.0,-126.0,-64.0,127.0,127.0,127.0,127.0,89.0,-37.0
126.0,127.0,127.0,127.0,127.0,127.0,106.0,128.0,29.0,-126.0,-64.0,127.0,127.0,127.0,127.0,89.0,-37.0
127.0,127.0,127.0,127.0,127.0,127.0,107.0,128.0,29.0,-126.0,-64.0,127.0,127.0,127.0,127.0,89.0,-37.0
126.0,127.0,127.0,127.0,127.0,127.0,106.0,128.0,29.0,-126.0,-64.0,127.0,127.0,127.0,127.0,89.0,-37.0
127.0,127.0,127.0,127.0,127.0,127.0,107.0,128.0,29.0,-126.0,-64.0,127.0,127.0,127.0,127.0,89.0,-37.0
126.0,127.0,127.0,127.0,127.0,128.0,107.0,128.0,29.0,-126.0,-64.0,127.0,127.0,127.0,127.0,89.0,-37.0
126.0,127.0,127.0,127.0,127.0,128.0,107.0,128.0,29.0,-126.0,-64.0,127.0,127.0,127.0,127.0,89.0,-37.0
126.0,127.0,127.0,127.0,127.0,128.0,107.0,128.0,29.0,-126.0,-64.0,127.0,127.0,127.0,127.0,89.0,-37.0
126.0,127.0,127.0,127.0,127.0,128.0,107.0,128.0,29.0,-126.0,-64.0,127.0,127.0,127.0,127.0,89.0,-37.0
126.0,127.0,127.0,127.0,126.0,127.0,106.0,128.0,29.0,-126.0,-64.0,127.0,127.0,127.0,127.0,89.0,-37.0
126.0,127.0,127.0,127.0,126.0,127.0,107.0,128.0,29.0,-126.0,-64.0,127.0,127.0,127.0,127.0,89.0,-37.0
126.0,127.0,127.0,127.0,126.0,127.0,107.0,128.0,29.0,-126.0,-64.0,127.0,127.0,127.0,127.0,89.0,-37.0
126.0,127.0,127.0,127.0,126.0,127.0,107.0,128.0,29.0,-126.0,-64.0,127.0,127.0,127.0,127.0,89.0,-37.0
126.0,127.0,127.0,127.0,126.0,127.0,106.0,128.0,29.0,-126.0,-64.0,127.0,127.0,127.0,127.0,89.0,-37.0
126.0,126.0,127.0,127.0,126.0,127.0,107.0,128.0,29.0,-126.0,-64.0,127.0,127.0,127.0,127.0,89.0,-37.0
126.0,126.0,127.0,127.0,126.0,127.0,110.0,128.0,29.0,-126.0,-64.0,127.0,127.0,127.0,127.0,89.0,-37.0
126.0,127.0,127.0,127.0,126.0,127.0,108.0,128.0,29.0,-126.0,-64.0,127.0,127.0,127.0,127.0,89.0,-37.0
126.0,126.0,127.0,127.0,126.0,127.0,111.0,128.0,29.0,-126.0,-64.0,127.0,127.0,127.0,127.0,89.0,-37.0
126.0,127.0,127.0,127.0,126.0,127.0,107.0,128.0,29.0,-126.0,-64.0,127.0,127.0,127.0,127.0,89.0,-37.0
126.0,127.0,127.0,127.0,127.0,127.0,106.0,128.0,29.0,-126.0,-64.0,127.0,127.0,127.0,127.0,89.0,-37.0
126.0,127.0,127.0,127.0,127.0,127.0,106.0,128.0,29.0,-126.0,-64.0,127.0,127.0,127.0,127.0,89.0,-37.0
126.0,127.0,127.0,127.0,127.0,127.0,107.0,128.0,29.0,-126.0,-64.0,127.0,127.0,127.0,127.0,89.0,-37.0
126.0,127.0,127.0,127.0,127.0,127.0,106.0,128.0,29.0,-126.0,-64.0,127.0,127.0,127.0,127.0,89.0,-37.0
126.0,127.0,127.0,127.0,127.0,127.0,107.0,128.0,29.0,-126.0,-64.0,127.0,127.0,127.0,127.0,89.0,-37.0
126.0,127.0,127.0,127.0,127.0,127.0,107.0,128.0,29.0,-126.0,-64.0,127.0,127.0,127.0,127.0,89.0,-37.0
126.0,127.0,127.0,127.0,127.0,127.0,107.0,128.0,29.0,-126.0,-64.0,127.0,127.0,127.0,127.0,89.0,-37.0
126.0,127.0,127.0,127.0,127.0,127.0,107.0,128.0,29.0,-126.0,-64.0,127.0,127.0,127.0,127.0,89.0,-37.0
126.0,127.0,127.0,127.0,127.0,127.0,111.0,128.0,29.0,-126.0,-64.0,127.0,127.0,127.0,127.0,89.0,-37.0
126.0,127.0,127.0,127.0,127.0,127.0,107.0,128.0,29.0,-126.0,-64.0,127.0,127.0,127.0,127.0,89.0,-37.0
127.0,127.0,127.0,127.0,127.0,127.0,106.0,128.0,29.0,-126.0,-64.0,127.0,127.0,127.0,127.0,89.0,-37.0
127.0,127.0,127.0,127.0,127.0,127.0,106.0,128.0,29.0,-126.0,-64.0,127.0,127.0,127.0,127.0,89.0,-37.0
127.0,127.0,127.0,127.0,127.0,127.0,106.0,128.0,29.0,-126.0,-64.0,127.0,127.0,127.0,127.0,89.0,-37.0
127.0,127.0,127.0,127.0,127.0,127.0,108.0,128.0,29.0,-126.0,-64.0,127.0,127.0,127.0,127.0,89.0,-37.0
126.0,127.0,127.0,127.0,127.0,127.0,107.0,128.0,29.0,-126.0,-64.0,127.0,127.0,127.0,127.0,89.0,-37.0
126.0,127.0,127.0,127.0,127.0,127.0,107.0,128.0,29.0,-126.0,-64.0,127.0,127.0,127.0,127.0,89.0,-37.0
127.0,127.0,127.0,127.0,127.0,127.0,107.0,128.0,29.0,-126.0,-64.0,127.0,127.0,127.0,127.0,89.0,-37.0
127.0,127.0,127.0,127.0,127.0,127.0,111.0,128.0,29.0,-126.0,-64.0,127.0,127.0,127.0,127.0,89.0,-37.0
126.0,127.0,127.0,127.0,127.0,127.0,108.0,128.0,29.0,-126.0,-64.0,127.0,127.0,127.0,127.0,89.0,-37.0
127.0,127.0,127.0,127.0,127.0,127.0,107.0,128.0,29.0,-126.0,-64.0,127.0,127.0,127.0,127.0,89.0,-37.0
126.0,127.0,127.0,127.0,127.0,127.0,111.0,128.0,29.0,-126.0,-64.0,127.0,127.0,127.0,127.0,89.0,-37.0
126.0,127.0,127.0,127.0,127.0,127.0,113.0,128.0,29.0,-126.0,-64.0,127.0,127.0,127.0,127.0,89.0,-37.0
126.0,127.0,127.0,127.0,127.0,127.0,113.0,128.0,29.0,-126.0,-64.0,127.0,127.0,127.0,127.0,89.0,-37.0
126.0,127.0,127.0,127.0,127.0,127.0,109.0,128.0,29.0,-126.0,-64.0,127.0,127.0,127.0,127.0,89.0,-37.0
126.0,127.0,127.0,127.0,127.0,127.0,107.0,128.0,29.0,-126.0,-64.0,127.0,127.0,127.0,127.0,89.0,-37.0
126.0,127.0,127.0,127.0,127.0,127.0,107.0,128.0,29.0,-126.0,-64.0,127.0,127.0,127.0,127.0,89.0,-37.0
126.0,127.0,127.0,127.0,127.0,127.0,112.0,128.0,29.0,-126.0,-64.0,127.0,127.0,127.0,127.0,89.0,-37.0
126.0,127.0,127.0,127.0,127.0,127.0,110.0,128.0,29.0,-126.0,-64.0,127.0,127.0,127.0,127.0,89.0,-37.0
126.0,127.0,127.0,127.0,127.0,127.0,106.0,128.0,29.0,-126.0,-64.0,127.0,127.0,127.0,127.0,89.0,-37.0
126.0,127.0,127.0,127.0,127.0,127.0,106.0,128.0,29.0,-126.0,-64.0,127.0,127.0,127.0,127.0,89.0,-37.0
126.0,127.0,127.0,127.0,126.0,127.0,107.0,128.0,29.0,-126.0,-64.0,127.0,127.0,127.0,127.0,89.0,-37.0
126.0,127.0,127.0,127.0,126.0,127.0,106.0,128.0,29.0,-126.0,-64.0,127.0,127.0,127.0,127.0,89.0,-37.0
126.0,127.0,127.0,127.0,126.0,127.0,108.0,128.0,29.0,-126.0,-64.0,127.0,127.0,127.0,127.0,89.0,-37.0
126.0,127.0,126.0,127.0,126.0,127.0,107.0,128.0,29.0,-126.0,-64.0,127.0,127.0,127.0,127.0,89.0,-37.0
126.0,127.0,126.0,127.0,126.0,127.0,107.0,128.0,29.0,-126.0,-64.0,127.0,127.0,127.0,127.0,89.0,-37.0
126.0,126.0,127.0,127.0,126.0,127.0,113.0,128.0,29.0,-126.0,-64.0,127.0,127.0,127.0,127.0,89.0,-37.0
126.0,127.0,127.0,127.0,126.0,127.0,110.0,128.0,29.0,-126.0,-64.0,127.0,127.0,127.0,127.0,89.0,-37.0
126.0,127.0,127.0,127.0,126.0,127.0,106.0,128.0,29.0,-126.0,-64.0,127.0,127.0,127.0,127.0,89.0,-37.0
126.0,127.0,127.0,127.0,126.0,127.0,106.0,128.0,29.0,-126.0,-64.0,127.0,127.0,127.0,127.0,89.0,-37.0
126.0,127.0,127.0,127.0,126.0,127.0,106.0,128.0,29.0,-126.0,-64.0,127.0,127.0,127.0,127.0,89.0,-37.0
126.0,127.0,127.0,127.0,127.0,127.0,106.0,128.0,29.0,-126.0,-64.0,127.0,127.0,127.0,127.0,89.0,-37.0
126.0,127.0,127.0,127.0,127.0,127.0,107.0,128.0,29.0,-126.0,-64.0,127.0,127.0,127.0,127.0,89.0,-37.0
126.0,127.0,127.0,127.0,127.0,127.0,107.0,128.0,29.0,-126.0,-64.0,127.0,127.0,127.0,127.0,89.0,-37.0
126.0,127.0,127.0,127.0,127.0,127.0,107.0,128.0,29.0,-126.0,-64.0,127.0,127.0,127.0,127.0,89.0,-37.0
126.0,127.0,127.0,127.0,127.0,127.0,113.0,128.0,29.0,-126.0,-64.0,127.0,127.0,127.0,127.0,89.0,-37.0
126.0,127.0,127.0,127.0,127.0,127.0,112.0,128.0,29.0,-126.0,-64.0,127.0,127.0,127.0,127.0,89.0,-37.0
126.0,127.0,127.0,127.0,127.0,127.0,107.0,128.0,29.0,-126.0,-64.0,127.0,127.0,127.0,127.0,89.0,-37.0
126.0,127.0,127.0,127.0,127.0,127.0,106.0,128.0,29.0,-126.0,-64.0,127.0,127.0,127.0,127.0,89.0,-37.0
126.0,127.0,127.0,127.0,127.0,127.0,106.0,128.0,29.0,-126.0,-64.0,127.0,127.0,127.0,127.0,89.0,-37.0
126.0,127.0,127.0,127.0,127.0,127.0,106.0,128.0,29.0,-126.0,-64.0,127.0,127.0,127.0,127.0,89.0,-37.0
126.0,127.0,127.0,127.0,127.0,127.0,106.0,128.0,29.0,-126.0,-64.0,127.0,127.0,127.0,127.0,89.0,-37.0
126.0,127.0,127.0,127.0,127.0,127.0,106.0,128.0,29.0,-126.0,-64.0,127.0,127.0,127.0,127.0,89.0,-37.0
126.0,127.0,127.0,127.0,127.0,127.0,106.0,128.0,29.0,-126.0,-64.0,127.0,127.0,127.0,127.0,89.0,-37.0
126.0,127.0,127.0,127.0,126.0,127.0,113.0,128.0,29.0,-126.0,-64.0,127.0,127.0,127.0,127.0,89.0,-37.0
126.0,127.0,127.0,127.0,126.0,127.0,111.0,128.0,29.0,-126.0,-64.0,127.0,127.0,127.0,127.0,89.0,-37.0
126.0,127.0,127.0,127.0,127.0,127.0,107.0,128.0,29.0,-126.0,-64.0,127.0,127.0,127.0,127.0,89.0,-37.0
126.0,127.0,127.0,127.0,127.0,127.0,107.0,128.0,29.0,-126.0,-64.0,127.0,127.0,127.0,127.0,89.0,-37.0
126.0,127.0,127.0,127.0,127.0,127.0,106.0,128.0,29.0,-126.0,-64.0,127.0,127.0,127.0,127.0,89.0,-37.0
126.0,127.0,127.0,127.0,127.0,127.0,107.0,128.0,29.0,-126.0,-64.0,127.0,127.0,127.0,127.0,89.0,-37.0
126.0,127.0,127.0,127.0,127.0,127.0,106.0,128.0,29.0,-126.0,-64.0,127.0,127.0,127.0,127.0,89.0,-37.0
126.0,127.0,126.0,127.0,127.0,127.0,108.0,128.0,29.0,-126.0,-64.0,127.0,127.0,127.0,127.0,89.0,-37.0
126.0,127.0,126.0,127.0,127.0,127.0,107.0,128.0,29.0,-126.0,-64.0,127.0,127.0,127.0,127.0,89.0,-37.0
126.0,127.0,126.0,127.0,127.0,127.0,113.0,128.0,29.0,-126.0,-64.0,127.0,127.0,127.0,127.0,89.0,-37.0
126.0,127.0,126.0,127.0,127.0,127.0,113.0,128.0,29.0,-126.0,-64.0,127.0,127.0,127.0,127.0,89.0,-37.0
126.0,127.0,126.0,127.0,127.0,127.0,108.0,128.0,29.0,-126.0,-64.0,127.0,127.0,127.0,127.0,89.0,-37.0
126.0,127.0,126.0,127.0,127.0,127.0,106.0,128.0,29.0,-126.0,-64.0,127.0,127.0,127.0,127.0,89.0,-37.0
126.0,127.0,126.0,127.0,127.0,127.0,106.0,128.0,29.0,-126.0,-64.0,127.0,127.0,127.0,127.0,89.0,-37.0
126.0,127.0,126.0,127.0,127.0,127.0,108.0,128.0,29.0,-126.0,-64.0,127.0,127.0,127.0,127.0,89.0,-37.0
126.0,127.0,126.0,127.0,127.0,127.0,109.0,128.0,29.0,-126.0,-64.0,127.0,127.0,127.0,127.0,89.0,-37.0
126.0,127.0,126.0,127.0,127.0,127.0,110.0,128.0,29.0,-126.0,-64.0,127.0,127.0,127.0,127.0,89.0,-37.0
126.0,127.0,127.0,127.0,126.0,127.0,112.0,128.0,29.0,-126.0,-64.0,127.0,127.0,127.0,127.0,89.0,-37.0
126.0,127.0,127.0,127.0,127.0,127.0,113.0,128.0,29.0,-126.0,-64.0,127.0,127.0,127.0,127.0,89.0,-37.0
126.0,127.0,127.0,127.0,126.0,127.0,113.0,128.0,29.0,-126.0,-64.0,127.0,127.0,127.0,127.0,89.0,-37.0
126.0,127.0,127.0,127.0,126.0,127.0,108.0,128.0,29.0,-126.0,-64.0,127.0,127.0,127.0,127.0,89.0,-37.0
126.0,127.0,127.0,127.0,126.0,127.0,106.0,128.0,29.0,-126.0,-64.0,127.0,127.0,127.0,127.0,89.0,-37.0
126.0,127.0,127.0,127.0,126.0,127.0,106.0,128.0,29.0,-126.0,-64.0,127.0,127.0,127.0,127.0,89.0,-37.0
126.0,127.0,127.0,127.0,126.0,127.0,106.0,128.0,29.0,-126.0,-64.0,127.0,127.0,127.0,127.0,89.0,-37.0
126.0,127.0,127.0,127.0,126.0,127.0,108.0,128.0,29.0,-126.0,-64.0,127.0,127.0,127.0,127.0,89.0,-37.0
126.0,127.0,127.0,127.0,126.0,127.0,108.0,128.0,29.0,-126.0,-64.0,127.0,127.0,127.0,127.0,89.0,-37.0
126.0,127.0,127.0,127.0,126.0,127.0,113.0,128.0,29.0,-126.0,-64.0,127.0,127.0,127.0,127.0,89.0,-37.0
126.0,127.0,126.0,127.0,127.0,128.0,106.0,128.0,29.0,-126.0,-64.0,127.0,127.0,127.0,127.0,89.0,-37.0
126.0,127.0,127.0,127.0,126.0,128.0,106.0,128.0,29.0,-126.0,-64.0,127.0,127.0,127.0,127.0,89.0,-37.0
126.0,127.0,127.0,127.0,127.0,128.0,106.0,128.0,29.0,-126.0,-64.0,127.0,127.0,127.0,127.0,89.0,-37.0
126.0,127.0,127.0,127.0,127.0,127.0,106.0,128.0,29.0,-126.0,-64.0,127.0,127.0,127.0,127.0,89.0,-37.0
126.0,127.0,127.0,127.0,127.0,127.0,106.0,128.0,29.0,-126.0,-64.0,127.0,127.0,127.0,127.0,89.0,-37.0
126.0,127.0,127.0,127.0,127.0,127.0,106.0,128.0,29.0,-126.0,-64.0,127.0,127.0,127.0,127.0,89.0,-37.0
126.0,127.0,127.0,127.0,127.0,127.0,106.0,128.0,29.0,-126.0,-64.0,127.0,127.0,127.0,127.0,89.0,-37.0
126.0,127.0,127.0,127.0,127.0,127.0,107.0,128.0,29.0,-126.0,-64.0,127.0,127.0,127.0,127.0,89.0,-37.0
127.0,127.0,127.0,127.0,127.0,127.0,106.0,128.0,29.0,-126.0,-64.0,127.0,127.0,127.0,127.0,89.0,-37.0
127.0,127.0,127.0,127.0,127.0,127.0,107.0,128.0,29.0,-126.0,-64.0,127.0,127.0,127.0,127.0,89.0,-37.0
126.0,127.0,127.0,127.0,126.0,127.0,106.0,128.0,29.0,-126.0,-64.0,127.0,127.0,127.0,127.0,89.0,-37.0
126.0,127.0,127.0,127.0,126.0,127.0,107.0,128.0,29.0,-126.0,-64.0,127.0,127.0,127.0,127.0,89.0,-37.0
126.0,127.0,127.0,127.0,126.0,127.0,107.0,128.0,29.0,-126.0,-64.0,127.0,127.0,127.0,127.0,89.0,-37.0
126.0,127.0,127.0,127.0,126.0,127.0,107.0,128.0,29.0,-126.0,-64.0,127.0,127.0,127.0,127.0,89.0,-37.0
126.0,127.0,127.0,127.0,126.0,127.0,106.0,128.0,29.0,-126.0,-64.0,127.0,127.0,127.0,127.0,89.0,-37.0
126.0,127.0,127.0,127.0,126.0,127.0,106.0,128.0,29.0,-126.0,-64.0,127.0,127.0,127.0,127.0,89.0,-37.0
126.0,127.0,127.0,127.0,126.0,127.0,106.0,128.0,29.0,-126.0,-64.0,127.0,127.0,127.0,127.0,89.0,-37.0
126.0,127.0,127.0,127.0,126.0,127.0,106.0,128.0,29.0,-126.0,-64.0,127.0,127.0,127.0,127.0,89.0,-37.0
126.0,127.0,127.0,127.0,126.0,127.0,109.0,128.0,29.0,-126.0,-64.0,127.0,127.0,127.0,127.0,89.0,-37.0
126.0,127.0,127.0,127.0,126.0,127.0,112.0,128.0,29.0,-126.0,-64.0,127.0,127.0,127.0,127.0,89.0,-37.0
126.0,127.0,126.0,127.0,127.0,127.0,106.0,128.0,29.0,-126.0,-64.0,127.0,127.0,127.0,127.0,89.0,-37.0
126.0,127.0,126.0,127.0,127.0,127.0,106.0,128.0,29.0,-126.0,-64.0,127.0,127.0,127.0,127.0,89.0,-37.0
126.0,127.0,126.0,127.0,127.0,127.0,106.0,128.0,29.0,-126.0,-64.0,127.0,127.0,127.0,127.0,89.0,-37.0
126.0,127.0,126.0,127.0,127.0,127.0,106.0,128.0,29.0,-126.0,-64.0,127.0,127.0,127.0,127.0,89.0,-37.0
126.0,127.0,126.0,127.0,127.0,127.0,106.0,128.0,29.0,-126.0,-64.0,127.0,127.0,127.0,127.0,89.0,-37.0
127.0,127.0,126.0,127.0,127.0,127.0,106.0,128.0,29.0,-126.0,-64.0,127.0,127.0,127.0,127.0,89.0,-37.0
127.0,127.0,126.0,127.0,127.0,127.0,106.0,128.0,29.0,-126.0,-64.0,127.0,127.0,127.0,127.0,89.0,-37.0
127.0,127.0,127.0,127.0,127.0,127.0,106.0,128.0,29.0,-126.0,-64.0,127.0,127.0,127.0,127.0,89.0,-37.0
127.0,127.0,127.0,127.0,127.0,127.0,107.0,128.0,29.0,-126.0,-64.0,127.0,127.0,127.0,127.0,89.0,-37.0
126.0,127.0,126.0,127.0,127.0,127.0,106.0,128.0,29.0,-126.0,-64.0,127.0,127.0,127.0,127.0,89.0,-37.0
126.0,127.0,126.0,127.0,127.0,127.0,106.0,128.0,29.0,-126.0,-64.0,127.0,127.0,127.0,127.0,89.0,-37.0
126.0,127.0,126.0,127.0,127.0,127.0,106.0,128.0,29.0,-126.0,-64.0,127.0,127.0,127.0,127.0,89.0,-37.0
126.0,127.0,126.0,127.0,127.0,127.0,106.0,128.0,29.0,-126.0,-64.0,127.0,127.0,127.0,127.0,89.0,-37.0
126.0,127.0,126.0,127.0,127.0,127.0,107.0,128.0,29.0,-126.0,-64.0,127.0,127.0,127.0,127.0,89.0,-37.0
126.0,127.0,126.0,127.0,127.0,127.0,107.0,128.0,29.0,-126.0,-64.0,127.0,127.0,127.0,127.0,89.0,-37.0
126.0,127.0,126.0,127.0,127.0,127.0,107.0,128.0,29.0,-126.0,-64.0,127.0,127.0,127.0,127.0,89.0,-37.0
126.0,127.0,126.0,127.0,127.0,127.0,107.0,128.0,29.0,-126.0,-64.0,127.0,127.0,127.0,127.0,89.0,-37.0
126.0,127.0,127.0,127.0,127.0,127.0,106.0,128.0,29.0,-126.0,-64.0,127.0,127.0,127.0,127.0,89.0,-37.0
126.0,127.0,127.0,127.0,127.0,128.0,107.0,128.0,29.0,-126.0,-64.0,127.0,127.0,127.0,127.0,89.0,-37.0
126.0,127.0,126.0,127.0,127.0,127.0,106.0,128.0,29.0,-126.0,-64.0,127.0,127.0,127.0,127.0,89.0,-37.0
126.0,127.0,127.0,127.0,127.0,127.0,107.0,128.0,29.0,-126.0,-64.0,127.0,127.0,127.0,127.0,89.0,-37.0
126.0,127.0,127.0,127.0,127.0,127.0,107.0,128.0,29.0,-126.0,-64.0,127.0,127.0,127.0,127.0,89.0,-37.0
126.0,127.0,127.0,127.0,127.0,127.0,106.0,128.0,29.0,-126.0,-64.0,127.0,127.0,127.0,127.0,89.0,-37.0
126.0,127.0,127.0,127.0,127.0,127.0,106.0,128.0,29.0,-126.0,-64.0,127.0,127.0,127.0,127.0,89.0,-37.0
126.0,127.0,127.0,127.0,127.0,127.0,108.0,128.0,29.0,-126.0,-64.0,127.0,127.0,127.0,127.0,89.0,-37.0
126.0,127.0,127.0,127.0,127.0,127.0,112.0,128.0,29.0,-126.0,-64.0,127.0,127.0,127.0,127.0,89.0,-37.0
126.0,127.0,127.0,127.0,127.0,127.0,113.0,128.0,29.0,-126.0,-64.0,127.0,127.0,127.0,127.0,89.0,-37.0
126.0,127.0,127.0,127.0,127.0,127.0,106.0,128.0,29.0,-126.0,-64.0,127.0,127.0,127.0,127.0,89.0,-37.0
126.0,127.0,127.0,127.0,127.0,127.0,106.0,128.0,29.0,-126.0,-64.0,127.0,127.0,127.0,127.0,89.0,-37.0
126.0,127.0,127.0,127.0,127.0,127.0,107.0,128.0,29.0,-126.0,-64.0,127.0,127.0,127.0,127.0,89.0,-37.0
126.0,127.0,127.0,127.0,127.0,127.0,106.0,128.0,29.0,-126.0,-64.0,127.0,127.0,127.0,127.0,89.0,-37.0
126.0,127.0,127.0,127.0,127.0,127.0,107.0,128.0,29.0,-126.0,-64.0,127.0,127.0,127.0,127.0,89.0,-37.0
126.0,127.0,127.0,127.0,127.0,127.0,106.0,128.0,29.0,-126.0,-64.0,127.0,127.0,127.0,127.0,89.0,-37.0
127.0,127.0,127.0,127.0,127.0,127.0,106.0,128.0,29.0,-126.0,-64.0,127.0,127.0,127.0,127.0,89.0,-37.0
126.0,127.0,127.0,127.0,127.0,127.0,106.0,128.0,29.0,-126.0,-64.0,127.0,127.0,127.0,127.0,89.0,-37.0
127.0,127.0,127.0,127.0,127.0,127.0,106.0,128.0,29.0,-126.0,-64.0,127.0,127.0,127.0,127.0,89.0,-37.0
126.0,127.0,127.0,127.0,127.0,127.0,107.0,128.0,29.0,-126.0,-64.0,127.0,127.0,127.0,127.0,89.0,-37.0
126.0,127.0,127.0,127.0,127.0,127.0,106.0,128.0,29.0,-126.0,-64.0,127.0,127.0,127.0,127.0,89.0,-37.0
126.0,127.0,127.0,127.0,127.0,127.0,107.0,128.0,29.0,-126.0,-64.0,127.0,127.0,127.0,127.0,89.0,-37.0
126.0,127.0,127.0,127.0,127.0,127.0,107.0,128.0,29.0,-126.0,-64.0,127.0,127.0,127.0,127.0,89.0,-37.0
126.0,127.0,127.0,127.0,127.0,127.0,106.0,128.0,29.0,-126.0,-64.0,127.0,127.0,127.0,127.0,89.0,-37.0
126.0,127.0,127.0,127.0,127.0,127.0,106.0,128.0,29.0,-126.0,-64.0,127.0,127.0,127.0,127.0,89.0,-37.0
126.0,127.0,127.0,127.0,127.0,127.0,106.0,128.0,29.0,-126.0,-64.0,127.0,127.0,127.0,127.0,89.0,-37.0
126.0,127.0,127.0,127.0,127.0,127.0,107.0,128.0,29.0,-126.0,-64.0,127.0,127.0,127.0,127.0,89.0,-37.0
126.0,127.0,127.0,127.0,127.0,127.0,106.0,128.0,29.0,-126.0,-64.0,127.0,127.0,127.0,127.0,89.0,-37.0
126.0,127.0,126.0,127.0,127.0,127.0,107.0,128.0,29.0,-126.0,-64.0,127.0,127.0,127.0,127.0,89.0,-37.0
126.0,127.0,126.0,127.0,127.0,127.0,107.0,128.0,29.0,-126.0,-64.0,127.0,127.0,127.0,127.0,89.0,-37.0
126.0,127.0,126.0,127.0,127.0,127.0,107.0,128.0,29.0,-126.0,-64.0,127.0,127.0,127.0,127.0,89.0,-37.0
126.0,127.0,126.0,127.0,127.0,128.0,107.0,128.0,29.0,-126.0,-64.0,127.0,127.0,127.0,127.0,89.0,-37.0
126.0,127.0,127.0,127.0,127.0,128.0,107.0,128.0,29.0,-126.0,-64.0,127.0,127.0,127.0,127.0,89.0,-37.0
126.0,127.0,126.0,127.0,127.0,128.0,106.0,128.0,29.0,-126.0,-64.0,127.0,127.0,127.0,127.0,89.0,-37.0
126.0,127.0,126.0,127.0,127.0,128.0,106.0,128.0,29.0,-126.0,-64.0,127.0,127.0,127.0,127.0,89.0,-37.0
126.0,127.0,126.0,127.0,127.0,127.0,106.0,128.0,29.0,-126.0,-64.0,127.0,127.0,127.0,127.0,89.0,-37.0
126.0,127.0,126.0,127.0,127.0,128.0,106.0,128.0,29.0,-126.0,-64.0,127.0,127.0,127.0,127.0,89.0,-37.0
126.0,127.0,127.0,127.0,127.0,127.0,112.0,128.0,29.0,-126.0,-64.0,127.0,127.0,127.0,127.0,89.0,-37.0
126.0,127.0,127.0,127.0,127.0,127.0,109.0,128.0,29.0,-126.0,-64.0,127.0,127.0,127.0,127.0,89.0,-37.0
126.0,127.0,126.0,127.0,127.0,127.0,109.0,128.0,29.0,-126.0,-64.0,127.0,127.0,127.0,127.0,89.0,-37.0
126.0,127.0,126.0,127.0,127.0,127.0,107.0,128.0,29.0,-126.0,-64.0,127.0,127.0,127.0,127.0,89.0,-37.0
126.0,127.0,126.0,127.0,127.0,127.0,107.0,128.0,29.0,-126.0,-64.0,127.0,127.0,127.0,127.0,89.0,-37.0
126.0,127.0,126.0,127.0,127.0,127.0,106.0,128.0,29.0,-126.0,-64.0,127.0,127.0,127.0,127.0,89.0,-37.0
126.0,127.0,127.0,127.0,126.0,128.0,107.0,128.0,29.0,-126.0,-64.0,127.0,127.0,127.0,127.0,89.0,-37.0
127.0,127.0,127.0,127.0,126.0,128.0,107.0,128.0,29.0,-126.0,-64.0,127.0,127.0,127.0,127.0,89.0,-37.0
127.0,127.0,127.0,127.0,126.0,127.0,106.0,128.0,29.0,-126.0,-64.0,127.0,127.0,127.0,127.0,89.0,-37.0
126.0,127.0,127.0,127.0,126.0,128.0,107.0,128.0,29.0,-126.0,-64.0,127.0,127.0,127.0,127.0,89.0,-37.0
126.0,127.0,127.0,127.0,126.0,128.0,107.0,128.0,29.0,-126.0,-64.0,127.0,127.0,127.0,127.0,89.0,-37.0
126.0,127.0,127.0,127.0,126.0,128.0,107.0,128.0,29.0,-126.0,-64.0,127.0,127.0,127.0,127.0,89.0,-37.0
126.0,127.0,127.0,127.0,126.0,128.0,107.0,128.0,29.0,-126.0,-64.0,127.0,127.0,127.0,127.0,89.0,-37.0
126.0,127.0,127.0,127.0,126.0,128.0,107.0,128.0,29.0,-126.0,-64.0,127.0,127.0,127.0,127.0,89.0,-37.0
126.0,127.0,127.0,127.0,126.0,128.0,107.0,128.0,29.0,-126.0,-64.0,127.0,127.0,127.0,127.0,89.0,-37.0
126.0,127.0,127.0,127.0,126.0,128.0,107.0,128.0,29.0,-126.0,-64.0,127.0,127.0,127.0,127.0,89.0,-37.0
127.0,127.0,127.0,127.0,127.0,127.0,112.0,128.0,29.0,-126.0,-64.0,127.0,127.0,127.0,127.0,89.0,-37.0
127.0,127.0,127.0,127.0,127.0,127.0,112.0,128.0,29.0,-126.0,-64.0,127.0,127.0,127.0,127.0,89.0,-37.0
127.0,126.0,127.0,127.0,127.0,126.0,112.0,128.0,29.0,-126.0,-64.0,127.0,127.0,127.0,127.0,89.0,-37.0
127.0,126.0,127.0,127.0,127.0,126.0,112.0,128.0,29.0,-126.0,-64.0,127.0,127.0,127.0,127.0,89.0,-37.0
127.0,126.0,127.0,127.0,127.0,126.0,112.0,128.0,29.0,-126.0,-64.0,127.0,127.0,127.0,127.0,89.0,-37.0
127.0,127.0,127.0,127.0,127.0,127.0,112.0,128.0,29.0,-126.0,-64.0,127.0,127.0,127.0,127.0,89.0,-37.0
127.0,127.0,127.0,127.0,127.0,127.0,113.0,128.0,29.0,-126.0,-64.0,127.0,127.0,127.0,127.0,89.0,-37.0
127.0,127.0,127.0,127.0,127.0,127.0,113.0,128.0,29.0,-126.0,-64.0,127.0,127.0,127.0,127.0,89.0,-37.0
127.0,127.0,127.0,127.0,127.0,127.0,112.0,128.0,29.0,-126.0,-64.0,127.0,127.0,127.0,127.0,89.0,-37.0
127.0,127.0,127.0,127.0,127.0,127.0,113.0,128.0,29.0,-126.0,-64.0,127.0,127.0,127.0,127.0,89.0,-37.0
127.0,127.0,127.0,127.0,127.0,127.0,107.0,128.0,29.0,-126.0,-64.0,127.0,127.0,127.0,127.0,89.0,-37.0
127.0,127.0,127.0,127.0,126.0,127.0,106.0,128.0,29.0,-126.0,-64.0,127.0,127.0,127.0,127.0,89.0,-37.0
127.0,127.0,127.0,127.0,126.0,127.0,105.0,128.0,29.0,-126.0,-64.0,127.0,127.0,127.0,127.0,89.0,-37.0
127.0,127.0,127.0,127.0,126.0,127.0,106.0,128.0,29.0,-126.0,-64.0,127.0,127.0,127.0,127.0,89.0,-37.0
127.0,127.0,127.0,127.0,127.0,127.0,106.0,128.0,29.0,-126.0,-64.0,127.0,127.0,127.0,127.0,89.0,-37.0
127.0,127.0,127.0,127.0,127.0,127.0,106.0,128.0,29.0,-126.0,-64.0,127.0,127.0,127.0,127.0,89.0,-37.0
127.0,127.0,127.0,127.0,127.0,127.0,106.0,128.0,29.0,-126.0,-64.0,127.0,127.0,127.0,127.0,89.0,-37.0
127.0,127.0,127.0,127.0,127.0,127.0,107.0,128.0,29.0,-126.0,-64.0,127.0,127.0,127.0,127.0,89.0,-37.0
127.0,127.0,127.0,127.0,127.0,127.0,107.0,128.0,29.0,-126.0,-64.0,127.0,127.0,127.0,127.0,89.0,-37.0
127.0,127.0,127.0,127.0,127.0,127.0,106.0,128.0,29.0,-126.0,-64.0,127.0,127.0,127.0,127.0,89.0,-37.0
126.0,127.0,126.0,127.0,127.0,127.0,106.0,128.0,29.0,-126.0,-64.0,127.0,127.0,127.0,127.0,89.0,-37.0
126.0,127.0,126.0,127.0,127.0,127.0,108.0,128.0,29.0,-126.0,-64.0,127.0,127.0,127.0,127.0,89.0,-37.0
126.0,127.0,126.0,127.0,127.0,127.0,107.0,128.0,29.0,-126.0,-64.0,127.0,127.0,127.0,127.0,89.0,-37.0
127.0,127.0,127.0,127.0,127.0,127.0,109.0,128.0,29.0,-126.0,-64.0,127.0,127.0,127.0,127.0,89.0,-37.0
127.0,127.0,127.0,127.0,127.0,127.0,112.0,128.0,29.0,-126.0,-64.0,127.0,127.0,127.0,127.0,89.0,-37.0
127.0,127.0,127.0,127.0,127.0,127.0,112.0,128.0,29.0,-126.0,-64.0,127.0,127.0,127.0,127.0,89.0,-37.0
127.0,127.0,127.0,127.0,127.0,127.0,114.0,128.0,29.0,-126.0,-64.0,127.0,127.0,127.0,127.0,89.0,-37.0
127.0,127.0,127.0,127.0,127.0,127.0,114.0,128.0,29.0,-126.0,-64.0,127.0,127.0,127.0,127.0,89.0,-37.0
127.0,127.0,127.0,127.0,127.0,127.0,114.0,128.0,29.0,-126.0,-64.0,127.0,127.0,127.0,127.0,89.0,-37.0
126.0,127.0,127.0,127.0,127.0,127.0,112.0,128.0,29.0,-126.0,-64.0,127.0,127.0,127.0,127.0,89.0,-37.0
126.0,127.0,127.0,127.0,127.0,127.0,107.0,128.0,29.0,-126.0,-64.0,127.0,127.0,127.0,127.0,89.0,-37.0
126.0,127.0,127.0,127.0,127.0,127.0,107.0,128.0,29.0,-126.0,-64.0,127.0,127.0,127.0,127.0,89.0,-37.0
126.0,127.0,127.0,127.0,127.0,127.0,108.0,128.0,29.0,-126.0,-64.0,127.0,127.0,127.0,127.0,89.0,-37.0
126.0,127.0,127.0,127.0,127.0,127.0,107.0,128.0,29.0,-126.0,-64.0,127.0,127.0,127.0,127.0,89.0,-37.0
126.0,127.0,127.0,127.0,127.0,127.0,106.0,128.0,29.0,-126.0,-64.0,127.0,127.0,127.0,127.0,89.0,-37.0
126.0,127.0,127.0,127.0,127.0,127.0,107.0,128.0,29.0,-126.0,-64.0,127.0,127.0,127.0,127.0,89.0,-37.0
126.0,127.0,127.0,127.0,127.0,127.0,107.0,128.0,29.0,-126.0,-64.0,127.0,127.0,127.0,127.0,89.0,-37.0
126.0,127.0,127.0,127.0,127.0,127.0,107.0,128.0,29.0,-126.0,-64.0,127.0,127.0,127.0,127.0,89.0,-37.0
126.0,127.0,127.0,127.0,127.0,127.0,106.0,128.0,29.0,-126.0,-64.0,127.0,127.0,127.0,127.0,89.0,-37.0
126.0,127.0,127.0,127.0,127.0,127.0,106.0,128.0,29.0,-126.0,-64.0,127.0,127.0,127.0,127.0,89.0,-37.0
126.0,127.0,127.0,127.0,126.0,127.0,113.0,128.0,29.0,-126.0,-64.0,127.0,127.0,127.0,127.0,89.0,-37.0
126.0,127.0,127.0,127.0,126.0,127.0,113.0,128.0,29.0,-126.0,-64.0,127.0,127.0,127.0,127.0,89.0,-37.0
126.0,127.0,127.0,127.0,126.0,127.0,113.0,128.0,29.0,-126.0,-64.0,127.0,127.0,127.0,127.0,89.0,-37.0
126.0,127.0,127.0,127.0,126.0,127.0,113.0,128.0,29.0,-126.0,-64.0,127.0,127.0,127.0,127.0,89.0,-37.0
126.0,127.0,127.0,127.0,126.0,127.0,113.0,128.0,29.0,-126.0,-64.0,127.0,127.0,127.0,127.0,89.0,-37.0
126.0,127.0,127.0,127.0,126.0,127.0,113.0,128.0,29.0,-126.0,-64.0,127.0,127.0,127.0,127.0,89.0,-37.0
127.0,127.0,127.0,127.0,127.0,127.0,114.0,128.0,29.0,-126.0,-64.0,127.0,127.0,127.0,127.0,89.0,-37.0
127.0,127.0,127.0,127.0,127.0,127.0,114.0,128.0,29.0,-126.0,-64.0,127.0,127.0,127.0,127.0,89.0,-37.0
126.0,127.0,127.0,127.0,126.0,127.0,113.0,128.0,29.0,-126.0,-64.0,127.0,127.0,127.0,127.0,89.0,-37.0
126.0,127.0,127.0,127.0,126.0,127.0,113.0,128.0,29.0,-126.0,-64.0,127.0,127.0,127.0,127.0,89.0,-37.0
126.0,127.0,127.0,127.0,127.0,127.0,107.0,128.0,29.0,-126.0,-64.0,127.0,127.0,127.0,127.0,89.0,-37.0
126.0,127.0,127.0,127.0,127.0,127.0,106.0,128.0,29.0,-126.0,-64.0,127.0,127.0,127.0,127.0,89.0,-37.0
126.0,127.0,127.0,127.0,126.0,127.0,106.0,128.0,29.0,-126.0,-64.0,127.0,127.0,127.0,127.0,89.0,-37.0
126.0,127.0,127.0,127.0,127.0,127.0,106.0,128.0,29.0,-126.0,-64.0,127.0,127.0,127.0,127.0,89.0,-37.0
126.0,127.0,127.0,127.0,127.0,127.0,110.0,128.0,29.0,-126.0,-64.0,127.0,127.0,127.0,127.0,89.0,-37.0
126.0,127.0,127.0,127.0,127.0,127.0,113.0,128.0,29.0,-126.0,-64.0,127.0,127.0,127.0,127.0,89.0,-37.0
126.0,127.0,127.0,127.0,127.0,127.0,113.0,128.0,29.0,-126.0,-64.0,127.0,127.0,127.0,127.0,89.0,-37.0
126.0,127.0,127.0,127.0,127.0,127.0,106.0,128.0,29.0,-126.0,-64.0,127.0,127.0,127.0,127.0,89.0,-37.0
126.0,127.0,127.0,127.0,127.0,127.0,106.0,128.0,29.0,-126.0,-64.0,127.0,127.0,127.0,127.0,89.0,-37.0
126.0,127.0,127.0,127.0,127.0,127.0,106.0,128.0,29.0,-126.0,-64.0,127.0,127.0,127.0,127.0,89.0,-37.0
126.0,127.0,127.0,127.0,127.0,127.0,107.0,128.0,29.0,-126.0,-64.0,127.0,127.0,127.0,127.0,89.0,-37.0
126.0,127.0,127.0,127.0,127.0,127.0,106.0,128.0,29.0,-126.0,-64.0,127.0,127.0,127.0,127.0,89.0,-37.0
126.0,127.0,127.0,127.0,127.0,127.0,106.0,128.0,29.0,-126.0,-64.0,127.0,127.0,127.0,127.0,89.0,-37.0
126.0,127.0,127.0,127.0,127.0,127.0,107.0,128.0,29.0,-126.0,-64.0,127.0,127.0,127.0,127.0,89.0,-37.0
126.0,127.0,127.0,127.0,127.0,127.0,109.0,128.0,29.0,-126.0,-64.0,127.0,127.0,127.0,127.0,89.0,-37.0
126.0,127.0,127.0,127.0,127.0,127.0,111.0,128.0,29.0,-126.0,-64.0,127.0,127.0,127.0,127.0,89.0,-37.0
126.0,127.0,127.0,127.0,127.0,127.0,106.0,128.0,29.0,-126.0,-64.0,127.0,127.0,127.0,127.0,89.0,-37.0
126.0,127.0,127.0,127.0,127.0,127.0,107.0,128.0,29.0,-126.0,-64.0,127.0,127.0,127.0,127.0,89.0,-37.0
126.0,127.0,127.0,127.0,127.0,127.0,106.0,128.0,29.0,-126.0,-64.0,127.0,127.0,127.0,127.0,89.0,-37.0
126.0,127.0,127.0,127.0,127.0,127.0,107.0,128.0,29.0,-126.0,-64.0,127.0,127.0,127.0,127.0,89.0,-37.0
126.0,127.0,126.0,127.0,127.0,127.0,111.0,128.0,29.0,-126.0,-64.0,127.0,127.0,127.0,127.0,89.0,-37.0
126.0,127.0,126.0,127.0,127.0,127.0,112.0,128.0,29.0,-126.0,-64.0,127.0,127.0,127.0,127.0,89.0,-37.0
126.0,127.0,126.0,127.0,127.0,127.0,112.0,128.0,29.0,-126.0,-64.0,127.0,127.0,127.0,127.0,89.0,-37.0
126.0,127.0,126.0,127.0,127.0,127.0,108.0,128.0,29.0,-126.0,-64.0,127.0,127.0,127.0,127.0,89.0,-37.0
126.0,127.0,126.0,127.0,127.0,127.0,107.0,128.0,29.0,-126.0,-64.0,127.0,127.0,127.0,127.0,89.0,-37.0
126.0,127.0,127.0,127.0,127.0,127.0,113.0,128.0,29.0,-126.0,-64.0,127.0,127.0,127.0,127.0,89.0,-37.0
126.0,127.0,127.0,127.0,127.0,127.0,112.0,128.0,29.0,-126.0,-64.0,127.0,127.0,127.0,127.0,89.0,-37.0
126.0,127.0,127.0,127.0,127.0,127.0,108.0,128.0,29.0,-126.0,-64.0,127.0,127.0,127.0,127.0,89.0,-37.0
126.0,127.0,127.0,127.0,127.0,127.0,106.0,128.0,29.0,-126.0,-64.0,127.0,127.0,127.0,127.0,89.0,-37.0
126.0,127.0,127.0,127.0,127.0,127.0,107.0,128.0,29.0,-126.0,-64.0,127.0,127.0,127.0,127.0,89.0,-37.0
126.0,127.0,127.0,127.0,127.0,127.0,111.0,128.0,29.0,-126.0,-64.0,127.0,127.0,127.0,127.0,89.0,-37.0
126.0,127.0,127.0,127.0,126.0,127.0,112.0,128.0,29.0,-126.0,-64.0,127.0,127.0,127.0,127.0,89.0,-37.0
126.0,127.0,126.0,127.0,126.0,127.0,107.0,128.0,29.0,-126.0,-64.0,127.0,127.0,127.0,127.0,89.0,-37.0
126.0,127.0,126.0,127.0,127.0,127.0,106.0,128.0,29.0,-126.0,-64.0,127.0,127.0,127.0,127.0,89.0,-37.0
126.0,127.0,127.0,127.0,127.0,127.0,113.0,128.0,29.0,-126.0,-64.0,127.0,127.0,127.0,127.0,89.0,-37.0
126.0,127.0,127.0,127.0,127.0,127.0,112.0,128.0,29.0,-126.0,-64.0,127.0,127.0,127.0,127.0,89.0,-37.0
126.0,127.0,127.0,127.0,127.0,127.0,107.0,128.0,29.0,-126.0,-64.0,127.0,127.0,127.0,127.0,89.0,-37.0
126.0,127.0,127.0,127.0,127.0,127.0,106.0,128.0,29.0,-126.0,-64.0,127.0,127.0,127.0,127.0,89.0,-37.0
126.0,127.0,127.0,127.0,127.0,127.0,106.0,128.0,29.0,-126.0,-64.0,127.0,127.0,127.0,127.0,89.0,-37.0
126.0,127.0,127.0,127.0,127.0,127.0,109.0,128.0,29.0,-126.0,-64.0,127.0,127.0,127.0,127.0,89.0,-37.0
127.0,127.0,127.0,128.0,126.0,127.0,106.0,127.0,29.0,-126.0,-64.0,127.0,127.0,127.0,127.0,89.0,-37.0
127.0,127.0,127.0,128.0,127.0,127.0,106.0,128.0,29.0,-126.0,-64.0,127.0,127.0,127.0,127.0,89.0,-37.0
127.0,127.0,127.0,128.0,126.0,128.0,106.0,128.0,29.0,-126.0,-64.0,127.0,127.0,127.0,127.0,89.0,-37.0
127.0,127.0,127.0,127.0,127.0,127.0,106.0,128.0,29.0,-126.0,-64.0,127.0,127.0,127.0,127.0,89.0,-37.0
126.0,127.0,127.0,127.0,127.0,127.0,107.0,128.0,29.0,-126.0,-64.0,127.0,127.0,127.0,127.0,89.0,-37.0
126.0,127.0,127.0,127.0,127.0,128.0,106.0,128.0,29.0,-126.0,-64.0,127.0,127.0,127.0,127.0,89.0,-37.0
126.0,127.0,127.0,128.0,127.0,128.0,106.0,128.0,29.0,-126.0,-64.0,127.0,127.0,127.0,127.0,89.0,-37.0
127.0,127.0,127.0,128.0,127.0,127.0,106.0,128.0,29.0,-126.0,-64.0,127.0,127.0,127.0,127.0,89.0,-37.0
127.0,127.0,127.0,128.0,127.0,127.0,107.0,128.0,29.0,-126.0,-64.0,127.0,127.0,127.0,127.0,89.0,-37.0
127.0,127.0,127.0,128.0,126.0,127.0,106.0,128.0,29.0,-126.0,-64.0,127.0,127.0,127.0,127.0,89.0,-37.0
121.0,125.0,123.0,119.0,123.0,126.0,111.0,123.0,29.0,-125.0,-64.0,127.0,127.0,127.0,127.0,89.0,-37.0
121.0,125.0,122.0,119.0,123.0,126.0,112.0,123.0,29.0,-125.0,-64.0,127.0,127.0,127.0,127.0,89.0,-37.0
126.0,126.0,126.0,124.0,125.0,126.0,111.0,128.0,29.0,-125.0,-64.0,127.0,127.0,127.0,127.0,89.0,-37.0
125.0,126.0,125.0,124.0,125.0,126.0,112.0,127.0,29.0,-125.0,-64.0,127.0,127.0,127.0,127.0,89.0,-37.0
125.0,126.0,125.0,123.0,125.0,126.0,112.0,127.0,29.0,-125.0,-64.0,127.0,127.0,127.0,127.0,89.0,-37.0
124.0,126.0,125.0,123.0,125.0,126.0,112.0,127.0,29.0,-125.0,-64.0,127.0,127.0,127.0,127.0,89.0,-37.0
124.0,126.0,125.0,122.0,124.0,126.0,112.0,126.0,29.0,-125.0,-64.0,127.0,127.0,127.0,127.0,89.0,-37.0
123.0,125.0,124.0,122.0,124.0,126.0,111.0,125.0,29.0,-125.0,-64.0,127.0,127.0,127.0,127.0,89.0,-37.0
123.0,125.0,124.0,121.0,124.0,126.0,111.0,125.0,29.0,-125.0,-64.0,127.0,127.0,127.0,127.0,89.0,-37.0
122.0,125.0,123.0,120.0,124.0,126.0,111.0,124.0,29.0,-125.0,-64.0,127.0,127.0,127.0,127.0,89.0,-37.0
124.0,125.0,139.0,123.0,127.0,127.0,113.0,127.0,29.0,-125.0,-64.0,127.0,127.0,127.0,127.0,89.0,-37.0
125.0,123.0,127.0,127.0,124.0,125.0,111.0,127.0,29.0,-125.0,-64.0,127.0,127.0,127.0,127.0,89.0,-37.0
125.0,123.0,129.0,127.0,125.0,126.0,111.0,128.0,29.0,-125.0,-64.0,127.0,127.0,127.0,127.0,89.0,-37.0
124.0,123.0,130.0,126.0,125.0,126.0,111.0,128.0,29.0,-125.0,-64.0,127.0,127.0,127.0,127.0,89.0,-37.0
124.0,123.0,131.0,123.0,125.0,126.0,111.0,128.0,29.0,-125.0,-64.0,127.0,127.0,127.0,127.0,89.0,-37.0
124.0,123.0,133.0,120.0,125.0,126.0,111.0,128.0,29.0,-125.0,-64.0,127.0,127.0,127.0,127.0,89.0,-37.0
124.0,123.0,135.0,118.0,125.0,126.0,111.0,128.0,29.0,-125.0,-64.0,127.0,127.0,127.0,127.0,89.0,-37.0
124.0,123.0,136.0,117.0,125.0,126.0,111.0,128.0,29.0,-125.0,-64.0,127.0,127.0,127.0,127.0,89.0,-37.0
124.0,124.0,137.0,118.0,125.0,126.0,111.0,128.0,29.0,-125.0,-64.0,127.0,127.0,127.0,127.0,89.0,-37.0
124.0,124.0,138.0,120.0,126.0,126.0,112.0,127.0,29.0,-125.0,-64.0,127.0,127.0,127.0,127.0,89.0,-37.0
123.0,127.0,155.0,148.0,131.0,128.0,107.0,129.0,29.0,-126.0,-64.0,127.0,127.0,127.0,127.0,89.0,-37.0
123.0,126.0,155.0,152.0,132.0,128.0,107.0,130.0,29.0,-126.0,-64.0,127.0,127.0,127.0,127.0,89.0,-37.0
124.0,126.0,155.0,157.0,133.0,128.0,108.0,130.0,29.0,-126.0,-64.0,127.0,127.0,127.0,127.0,89.0,-37.0
124.0,127.0,155.0,162.0,134.0,129.0,108.0,131.0,29.0,-126.0,-64.0,127.0,127.0,127.0,127.0,89.0,-37.0
124.0,128.0,156.0,165.0,135.0,129.0,109.0,131.0,29.0,-126.0,-64.0,127.0,127.0,127.0,127.0,89.0,-37.0
125.0,129.0,156.0,166.0,136.0,129.0,110.0,132.0,29.0,-126.0,-64.0,127.0,127.0,127.0,127.0,89.0,-37.0
125.0,130.0,157.0,167.0,136.0,130.0,110.0,133.0,29.0,-126.0,-64.0,127.0,127.0,127.0,127.0,89.0,-37.0
125.0,131.0,158.0,168.0,136.0,130.0,111.0,133.0,29.0,-126.0,-64.0,127.0,127.0,127.0,127.0,89.0,-37.0
126.0,131.0,158.0,169.0,136.0,130.0,111.0,134.0,29.0,-126.0,-64.0,127.0,127.0,127.0,127.0,89.0,-37.0
126.0,131.0,157.0,171.0,137.0,130.0,112.0,135.0,29.0,-126.0,-64.0,127.0,127.0,127.0,127.0,89.0,-37.0
113.0,135.0,115.0,159.0,136.0,126.0,111.0,148.0,29.0,-126.0,-62.0,127.0,127.0,127.0,127.0,89.0,-37.0
110.0,135.0,112.0,158.0,136.0,126.0,111.0,148.0,29.0,-126.0,-62.0,127.0,127.0,127.0,127.0,89.0,-37.0
107.0,134.0,110.0,158.0,135.0,125.0,110.0,147.0,29.0,-126.0,-62.0,127.0,127.0,127.0,127.0,89.0,-37.0
104.0,134.0,109.0,159.0,135.0,124.0,109.0,145.0,29.0,-126.0,-62.0,127.0,127.0,127.0,127.0,89.0,-37.0
102.0,134.0,109.0,161.0,134.0,123.0,107.0,143.0,29.0,-126.0,-62.0,127.0,127.0,127.0,127.0,89.0,-37.0
99.0,135.0,109.0,163.0,134.0,122.0,106.0,141.0,29.0,-126.0,-62.0,127.0,127.0,127.0,127.0,89.0,-37.0
97.0,135.0,110.0,165.0,135.0,122.0,105.0,139.0,29.0,-126.0,-62.0,127.0,127.0,127.0,127.0,89.0,-37.0
95.0,136.0,111.0,165.0,135.0,121.0,103.0,139.0,29.0,-126.0,-62.0,127.0,127.0,127.0,127.0,89.0,-37.0
94.0,136.0,112.0,164.0,135.0,120.0,102.0,138.0,29.0,-126.0,-62.0,127.0,127.0,127.0,127.0,89.0,-37.0
114.0,136.0,118.0,161.0,137.0,127.0,107.0,148.0,29.0,-126.0,-62.0,127.0,127.0,127.0,127.0,89.0,-37.0
110.0,123.0,102.0,190.0,132.0,74.0,68.0,160.0,29.0,126.0,-64.0,127.0,127.0,127.0,127.0,89.0,-37.0
110.0,123.0,105.0,192.0,133.0,72.0,67.0,160.0,29.0,126.0,-64.0,127.0,127.0,127.0,127.0,89.0,-37.0
111.0,123.0,109.0,194.0,134.0,71.0,66.0,159.0,29.0,126.0,-64.0,127.0,127.0,127.0,127.0,89.0,-37.0
112.0,123.0,112.0,196.0,135.0,70.0,69.0,158.0,29.0,126.0,-64.0,127.0,127.0,127.0,127.0,89.0,-37.0
113.0,123.0,116.0,197.0,135.0,69.0,69.0,157.0,29.0,126.0,-64.0,127.0,127.0,127.0,127.0,89.0,-37.0
113.0,124.0,119.0,198.0,136.0,68.0,67.0,156.0,29.0,126.0,-64.0,127.0,127.0,127.0,127.0,89.0,-37.0
114.0,124.0,122.0,198.0,136.0,68.0,66.0,155.0,29.0,126.0,-64.0,127.0,127.0,127.0,127.0,89.0,-37.0
115.0,124.0,124.0,197.0,136.0,67.0,65.0,155.0,29.0,126.0,-64.0,127.0,127.0,127.0,127.0,89.0,-37.0
108.0,122.0,93.0,182.0,129.0,76.0,72.0,162.0,29.0,126.0,-64.0,127.0,127.0,127.0,127.0,89.0,-37.0
109.0,122.0,97.0,186.0,131.0,75.0,70.0,161.0,29.0,126.0,-64.0,127.0,127.0,127.0,127.0,89.0,-37.0
130.0,126.0,139.0,254.0,114.0,5.0,30.0,125.0,29.0,127.0,-65.0,-127.0,127.0,127.0,127.0,89.0,-37.0
130.0,126.0,140.0,254.0,114.0,0.0,24.0,124.0,29.0,127.0,-65.0,-127.0,127.0,127.0,127.0,89.0,-37.0
130.0,126.0,141.0,254.0,115.0,0.0,23.0,124.0,29.0,127.0,-65.0,-127.0,127.0,127.0,127.0,89.0,-37.0
131.0,127.0,141.0,252.0,115.0,0.0,22.0,124.0,29.0,127.0,-65.0,-127.0,127.0,127.0,127.0,89.0,-37.0
131.0,128.0,139.0,249.0,116.0,0.0,22.0,124.0,29.0,127.0,-65.0,-127.0,127.0,127.0,127.0,89.0,-37.0
130.0,128.0,137.0,245.0,116.0,0.0,22.0,123.0,29.0,127.0,-65.0,-127.0,127.0,127.0,127.0,89.0,-37.0
130.0,129.0,134.0,241.0,116.0,0.0,22.0,123.0,29.0,127.0,-65.0,-127.0,127.0,127.0,127.0,89.0,-37.0
132.0,127.0,140.0,254.0,113.0,27.0,42.0,127.0,29.0,127.0,-65.0,-127.0,127.0,127.0,127.0,89.0,-37.0
131.0,126.0,139.0,254.0,113.0,21.0,38.0,126.0,29.0,127.0,-65.0,-127.0,127.0,127.0,127.0,89.0,-37.0
131.0,126.0,139.0,254.0,113.0,13.0,34.0,125.0,29.0,127.0,-65.0,-127.0,127.0,127.0,127.0,89.0,-37.0
125.0,126.0,207.0,203.0,124.0,0.0,22.0,127.0,32.0,-126.0,-62.0,-127.0,127.0,127.0,127.0,89.0,-37.0
125.0,125.0,208.0,205.0,124.0,0.0,22.0,126.0,32.0,-126.0,-62.0,-127.0,127.0,127.0,127.0,89.0,-37.0
125.0,125.0,211.0,207.0,124.0,0.0,22.0,126.0,32.0,-126.0,-62.0,-127.0,127.0,127.0,127.0,89.0,-37.0
125.0,125.0,214.0,211.0,125.0,0.0,22.0,126.0,32.0,-126.0,-62.0,-127.0,127.0,127.0,127.0,89.0,-37.0
125.0,126.0,216.0,216.0,126.0,0.0,22.0,127.0,32.0,-126.0,-62.0,-127.0,127.0,127.0,127.0,89.0,-37.0
125.0,126.0,218.0,222.0,126.0,0.0,22.0,128.0,32.0,-126.0,-62.0,-127.0,127.0,127.0,127.0,89.0,-37.0
129.0,130.0,205.0,198.0,122.0,0.0,22.0,134.0,32.0,-126.0,-62.0,-127.0,127.0,127.0,127.0,89.0,-37.0
128.0,129.0,206.0,200.0,123.0,0.0,22.0,133.0,32.0,-126.0,-62.0,-127.0,127.0,127.0,127.0,89.0,-37.0
126.0,128.0,207.0,201.0,123.0,0.0,22.0,131.0,32.0,-126.0,-62.0,-127.0,127.0,127.0,127.0,89.0,-37.0
126.0,127.0,207.0,202.0,123.0,0.0,22.0,129.0,32.0,-126.0,-62.0,-127.0,127.0,127.0,127.0,89.0,-37.0
137.0,130.0,125.0,214.0,130.0,0.0,22.0,128.0,32.0,-124.0,-63.0,-127.0,127.0,127.0,127.0,89.0,-37.0
139.0,130.0,122.0,214.0,130.0,0.0,22.0,129.0,32.0,-124.0,-63.0,-127.0,127.0,127.0,127.0,89.0,-37.0
140.0,130.0,119.0,213.0,131.0,0.0,22.0,129.0,32.0,-124.0,-63.0,-127.0,127.0,127.0,127.0,89.0,-37.0
141.0,129.0,117.0,211.0,130.0,0.0,22.0,130.0,32.0,-124.0,-63.0,-127.0,127.0,127.0,127.0,89.0,-37.0
142.0,128.0,114.0,208.0,130.0,0.0,22.0,130.0,32.0,-124.0,-63.0,-127.0,127.0,127.0,127.0,89.0,-37.0
130.0,128.0,130.0,219.0,127.0,0.0,22.0,120.0,32.0,-124.0,-63.0,-127.0,127.0,127.0,127.0,89.0,-37.0
130.0,127.0,129.0,217.0,127.0,0.0,22.0,121.0,32.0,-124.0,-63.0,-127.0,127.0,127.0,127.0,89.0,-37.0
132.0,128.0,129.0,216.0,128.0,0.0,22.0,122.0,32.0,-124.0,-63.0,-127.0,127.0,127.0,127.0,89.0,-37.0
134.0,129.0,129.0,215.0,129.0,0.0,22.0,124.0,32.0,-124.0,-63.0,-127.0,127.0,127.0,127.0,89.0,-37.0
136.0,129.0,128.0,214.0,129.0,0.0,22.0,126.0,32.0,-124.0,-63.0,-127.0,127.0,127.0,127.0,89.0,-37.0
136.0,125.0,94.0,102.0,127.0,0.0,22.0,149.0,28.0,-120.0,-64.0,127.0,127.0,127.0,127.0,89.0,-37.0
136.0,126.0,95.0,99.0,128.0,0.0,22.0,149.0,28.0,-120.0,-64.0,127.0,127.0,127.0,127.0,89.0,-37.0
136.0,126.0,97.0,97.0,128.0,0.0,22.0,149.0,28.0,-120.0,-64.0,127.0,127.0,127.0,127.0,89.0,-37.0
136.0,126.0,99.0,97.0,129.0,0.0,22.0,148.0,28.0,-120.0,-64.0,127.0,127.0,127.0,127.0,89.0,-37.0
138.0,127.0,97.0,128.0,128.0,0.0,22.0,149.0,28.0,-120.0,-64.0,127.0,127.0,127.0,127.0,89.0,-37.0
138.0,126.0,97.0,123.0,128.0,0.0,22.0,149.0,28.0,-120.0,-64.0,127.0,127.0,127.0,127.0,89.0,-37.0
137.0,125.0,97.0,118.0,128.0,0.0,22.0,149.0,28.0,-120.0,-64.0,127.0,127.0,127.0,127.0,89.0,-37.0
137.0,124.0,96.0,114.0,127.0,0.0,22.0,149.0,28.0,-120.0,-64.0,127.0,127.0,127.0,127.0,89.0,-37.0
136.0,124.0,95.0,110.0,127.0,0.0,22.0,149.0,28.0,-120.0,-64.0,127.0,127.0,127.0,127.0,89.0,-37.0
136.0,125.0,94.0,106.0,127.0,0.0,22.0,149.0,28.0,-120.0,-64.0,127.0,127.0,127.0,127.0,89.0,-37.0
123.0,122.0,117.0,78.0,119.0,0.0,22.0,132.0,28.0,-122.0,-66.0,-128.0,127.0,127.0,127.0,89.0,-37.0
123.0,122.0,118.0,79.0,119.0,0.0,22.0,132.0,28.0,-122.0,-66.0,-128.0,127.0,127.0,127.0,89.0,-37.0
123.0,122.0,119.0,80.0,119.0,0.0,22.0,132.0,28.0,-122.0,-66.0,-128.0,127.0,127.0,127.0,89.0,-37.0
125.0,125.0,115.0,78.0,123.0,0.0,22.0,135.0,28.0,-122.0,-66.0,-128.0,127.0,127.0,127.0,89.0,-37.0
125.0,124.0,114.0,76.0,122.0,0.0,22.0,135.0,28.0,-122.0,-66.0,-128.0,127.0,127.0,127.0,89.0,-37.0
124.0,123.0,113.0,75.0,122.0,0.0,22.0,134.0,28.0,-122.0,-66.0,-128.0,127.0,127.0,127.0,89.0,-37.0
124.0,122.0,112.0,74.0,121.0,0.0,22.0,134.0,28.0,-122.0,-66.0,-128.0,127.0,127.0,127.0,89.0,-37.0
124.0,122.0,112.0,74.0,121.0,0.0,22.0,134.0,28.0,-122.0,-66.0,-128.0,127.0,127.0,127.0,89.0,-37.0
123.0,122.0,113.0,75.0,120.0,0.0,22.0,133.0,28.0,-122.0,-66.0,-128.0,127.0,127.0,127.0,89.0,-37.0
123.0,122.0,115.0,76.0,120.0,0.0,22.0,133.0,28.0,-122.0,-66.0,-128.0,127.0,127.0,127.0,89.0,-37.0
124.0,128.0,128.0,91.0,126.0,0.0,22.0,130.0,27.0,-125.0,-65.0,-128.0,127.0,127.0,127.0,89.0,-37.0
125.0,128.0,129.0,90.0,126.0,0.0,22.0,130.0,27.0,-125.0,-65.0,-128.0,127.0,127.0,127.0,89.0,-37.0
127.0,127.0,125.0,79.0,126.0,0.0,22.0,135.0,27.0,-125.0,-65.0,-128.0,127.0,127.0,127.0,89.0,-37.0
127.0,127.0,124.0,77.0,126.0,0.0,22.0,134.0,27.0,-125.0,-65.0,-128.0,127.0,127.0,127.0,89.0,-37.0
127.0,127.0,124.0,77.0,125.0,0.0,22.0,134.0,27.0,-125.0,-65.0,-128.0,127.0,127.0,127.0,89.0,-37.0
126.0,126.0,125.0,79.0,125.0,0.0,22.0,133.0,27.0,-125.0,-65.0,-128.0,127.0,127.0,127.0,89.0,-37.0
126.0,127.0,126.0,82.0,125.0,0.0,22.0,133.0,27.0,-125.0,-65.0,-128.0,127.0,127.0,127.0,89.0,-37.0
126.0,127.0,127.0,85.0,125.0,0.0,22.0,132.0,27.0,-125.0,-65.0,-128.0,127.0,127.0,127.0,89.0,-37.0
125.0,127.0,128.0,88.0,125.0,0.0,22.0,131.0,27.0,-125.0,-65.0,-128.0,127.0,127.0,127.0,89.0,-37.0
125.0,128.0,128.0,90.0,125.0,0.0,22.0,131.0,27.0,-125.0,-65.0,-128.0,127.0,127.0,127.0,89.0,-37.0
129.0,125.0,111.0,103.0,123.0,0.0,22.0,130.0,30.0,-125.0,-64.0,-128.0,127.0,127.0,127.0,89.0,-37.0
129.0,125.0,107.0,103.0,122.0,0.0,22.0,129.0,30.0,-125.0,-64.0,-128.0,127.0,127.0,127.0,89.0,-37.0
129.0,124.0,107.0,104.0,122.0,0.0,22.0,129.0,30.0,-125.0,-64.0,-128.0,127.0,127.0,127.0,89.0,-37.0
129.0,124.0,108.0,104.0,122.0,0.0,22.0,128.0,30.0,-125.0,-64.0,-128.0,127.0,127.0,127.0,89.0,-37.0
129.0,124.0,108.0,104.0,122.0,0.0,22.0,128.0,30.0,-125.0,-64.0,-128.0,127.0,127.0,127.0,89.0,-37.0
129.0,124.0,108.0,103.0,122.0,0.0,22.0,128.0,30.0,-125.0,-64.0,-128.0,127.0,127.0,127.0,89.0,-37.0
129.0,124.0,108.0,102.0,122.0,0.0,22.0,128.0,30.0,-125.0,-64.0,-128.0,127.0,127.0,127.0,89.0,-37.0
129.0,124.0,109.0,102.0,122.0,0.0,22.0,128.0,30.0,-125.0,-64.0,-128.0,127.0,127.0,127.0,89.0,-37.0
129.0,124.0,110.0,102.0,122.0,0.0,22.0,128.0,30.0,-125.0,-64.0,-128.0,127.0,127.0,127.0,89.0,-37.0
129.0,124.0,111.0,102.0,122.0,0.0,22.0,129.0,30.0,-125.0,-64.0,-128.0,127.0,127.0,127.0,89.0,-37.0
125.0,124.0,119.0,98.0,125.0,24.0,38.0,127.0,32.0,-122.0,-64.0,127.0,127.0,127.0,127.0,89.0,-37.0
125.0,125.0,120.0,99.0,126.0,26.0,39.0,127.0,32.0,-122.0,-64.0,127.0,127.0,127.0,127.0,89.0,-37.0
124.0,126.0,120.0,102.0,126.0,28.0,41.0,127.0,32.0,-122.0,-64.0,127.0,127.0,127.0,127.0,89.0,-37.0
124.0,127.0,121.0,104.0,126.0,31.0,43.0,127.0,32.0,-122.0,-64.0,127.0,127.0,127.0,127.0,89.0,-37.0
123.0,127.0,122.0,106.0,127.0,34.0,43.0,128.0,32.0,-122.0,-64.0,127.0,127.0,127.0,127.0,89.0,-37.0
123.0,128.0,123.0,109.0,127.0,36.0,46.0,128.0,32.0,-122.0,-64.0,127.0,127.0,127.0,127.0,89.0,-37.0
123.0,128.0,125.0,110.0,127.0,39.0,49.0,129.0,32.0,-122.0,-64.0,127.0,127.0,127.0,127.0,89.0,-37.0
123.0,129.0,127.0,111.0,127.0,41.0,48.0,130.0,32.0,-122.0,-64.0,127.0,127.0,127.0,127.0,89.0,-37.0
123.0,129.0,127.0,111.0,128.0,44.0,50.0,131.0,32.0,-122.0,-64.0,127.0,127.0,127.0,127.0,89.0,-37.0
123.0,128.0,126.0,110.0,128.0,46.0,53.0,131.0,32.0,-122.0,-64.0,127.0,127.0,127.0,127.0,89.0,-37.0
125.0,126.0,120.0,85.0,127.0,122.0,104.0,131.0,32.0,-121.0,-65.0,127.0,127.0,127.0,127.0,89.0,-37.0
125.0,126.0,120.0,85.0,127.0,123.0,106.0,131.0,32.0,-121.0,-65.0,127.0,127.0,127.0,127.0,89.0,-37.0
126.0,126.0,121.0,87.0,128.0,124.0,108.0,131.0,32.0,-121.0,-65.0,127.0,127.0,127.0,127.0,89.0,-37.0
126.0,126.0,122.0,89.0,128.0,125.0,110.0,131.0,32.0,-121.0,-65.0,127.0,127.0,127.0,127.0,89.0,-37.0
126.0,126.0,122.0,91.0,128.0,126.0,112.0,131.0,32.0,-121.0,-65.0,127.0,127.0,127.0,127.0,89.0,-37.0
127.0,126.0,122.0,92.0,128.0,127.0,108.0,131.0,32.0,-121.0,-65.0,127.0,127.0,127.0,127.0,89.0,-37.0
127.0,126.0,122.0,93.0,128.0,128.0,108.0,131.0,32.0,-121.0,-65.0,127.0,127.0,127.0,127.0,89.0,-37.0
127.0,126.0,121.0,94.0,128.0,129.0,109.0,131.0,32.0,-121.0,-65.0,127.0,127.0,127.0,127.0,89.0,-37.0
127.0,126.0,120.0,94.0,128.0,130.0,110.0,131.0,32.0,-121.0,-65.0,127.0,127.0,127.0,127.0,89.0,-37.0
126.0,126.0,120.0,86.0,127.0,121.0,102.0,131.0,32.0,-121.0,-65.0,127.0,127.0,127.0,127.0,89.0,-37.0
127.0,127.0,126.0,83.0,124.0,160.0,132.0,126.0,29.0,-121.0,-65.0,127.0,127.0,127.0,127.0,89.0,-37.0
127.0,127.0,125.0,85.0,124.0,160.0,132.0,125.0,29.0,-121.0,-65.0,127.0,127.0,127.0,127.0,89.0,-37.0
127.0,127.0,124.0,87.0,124.0,161.0,133.0,125.0,29.0,-121.0,-65.0,127.0,127.0,127.0,127.0,89.0,-37.0
127.0,127.0,124.0,90.0,125.0,162.0,135.0,126.0,29.0,-121.0,-65.0,127.0,127.0,127.0,127.0,89.0,-37.0
127.0,127.0,124.0,92.0,125.0,162.0,136.0,126.0,29.0,-121.0,-65.0,127.0,127.0,127.0,127.0,89.0,-37.0
128.0,126.0,125.0,95.0,125.0,163.0,136.0,127.0,29.0,-121.0,-65.0,127.0,127.0,127.0,127.0,89.0,-37.0
128.0,126.0,125.0,96.0,126.0,163.0,137.0,129.0,29.0,-121.0,-65.0,127.0,127.0,127.0,127.0,89.0,-37.0
128.0,126.0,126.0,97.0,126.0,164.0,138.0,131.0,29.0,-121.0,-65.0,127.0,127.0,127.0,127.0,89.0,-37.0
126.0,127.0,125.0,82.0,124.0,158.0,135.0,127.0,29.0,-121.0,-65.0,127.0,127.0,127.0,127.0,89.0,-37.0
126.0,127.0,126.0,82.0,124.0,159.0,134.0,126.0,29.0,-121.0,-65.0,127.0,127.0,127.0,127.0,89.0,-37.0
127.0,125.0,129.0,101.0,127.0,182.0,153.0,129.0,26.0,-121.0,-64.0,-128.0,127.0,127.0,127.0,89.0,-37.0
127.0,125.0,129.0,101.0,127.0,183.0,150.0,128.0,26.0,-121.0,-64.0,-128.0,127.0,127.0,127.0,89.0,-37.0
127.0,125.0,130.0,101.0,127.0,184.0,148.0,128.0,26.0,-121.0,-64.0,-128.0,127.0,127.0,127.0,89.0,-37.0
128.0,125.0,131.0,101.0,127.0,184.0,149.0,128.0,26.0,-121.0,-64.0,-128.0,127.0,127.0,127.0,89.0,-37.0
128.0,126.0,131.0,101.0,127.0,184.0,148.0,128.0,26.0,-121.0,-64.0,-128.0,127.0,127.0,127.0,89.0,-37.0
128.0,126.0,131.0,102.0,127.0,185.0,149.0,127.0,26.0,-121.0,-64.0,-128.0,127.0,127.0,127.0,89.0,-37.0
128.0,126.0,130.0,102.0,127.0,185.0,149.0,127.0,26.0,-121.0,-64.0,-128.0,127.0,127.0,127.0,89.0,-37.0
127.0,125.0,128.0,101.0,127.0,182.0,152.0,129.0,26.0,-121.0,-64.0,-128.0,127.0,127.0,127.0,89.0,-37.0
127.0,125.0,128.0,100.0,127.0,182.0,152.0,129.0,26.0,-121.0,-64.0,-128.0,127.0,127.0,127.0,89.0,-37.0
127.0,125.0,129.0,101.0,127.0,182.0,153.0,129.0,26.0,-121.0,-64.0,-128.0,127.0,127.0,127.0,89.0,-37.0
129.0,125.0,119.0,104.0,127.0,185.0,150.0,131.0,26.0,-120.0,-63.0,127.0,127.0,127.0,126.0,89.0,-37.0
129.0,126.0,118.0,103.0,127.0,186.0,151.0,131.0,26.0,-120.0,-63.0,127.0,127.0,127.0,126.0,89.0,-37.0
129.0,125.0,118.0,103.0,127.0,185.0,151.0,131.0,26.0,-120.0,-63.0,127.0,127.0,127.0,126.0,89.0,-37.0
129.0,125.0,117.0,101.0,127.0,185.0,150.0,131.0,26.0,-120.0,-63.0,127.0,127.0,127.0,126.0,89.0,-37.0
129.0,125.0,117.0,101.0,127.0,185.0,150.0,131.0,26.0,-120.0,-63.0,127.0,127.0,127.0,126.0,89.0,-37.0
129.0,126.0,117.0,100.0,126.0,185.0,150.0,131.0,26.0,-120.0,-63.0,127.0,127.0,127.0,126.0,89.0,-37.0
128.0,125.0,120.0,102.0,127.0,186.0,152.0,130.0,26.0,-120.0,-63.0,127.0,127.0,127.0,126.0,89.0,-37.0
128.0,125.0,120.0,102.0,127.0,186.0,151.0,130.0,26.0,-120.0,-63.0,127.0,127.0,127.0,126.0,89.0,-37.0
129.0,125.0,120.0,103.0,127.0,186.0,151.0,131.0,26.0,-120.0,-63.0,127.0,127.0,127.0,126.0,89.0,-37.0
129.0,125.0,120.0,104.0,127.0,186.0,151.0,131.0,26.0,-120.0,-63.0,127.0,127.0,127.0,126.0,89.0,-37.0
128.0,126.0,119.0,109.0,129.0,173.0,146.0,130.0,29.0,-121.0,-62.0,127.0,127.0,127.0,126.0,89.0,-37.0
128.0,126.0,120.0,109.0,129.0,173.0,145.0,130.0,29.0,-121.0,-62.0,127.0,127.0,127.0,126.0,89.0,-37.0
128.0,126.0,120.0,109.0,129.0,173.0,145.0,130.0,29.0,-121.0,-62.0,127.0,127.0,127.0,126.0,89.0,-37.0
128.0,126.0,120.0,109.0,129.0,172.0,144.0,130.0,29.0,-121.0,-62.0,127.0,127.0,127.0,126.0,89.0,-37.0
128.0,126.0,120.0,109.0,129.0,172.0,144.0,130.0,29.0,-121.0,-62.0,127.0,127.0,127.0,126.0,89.0,-37.0
128.0,126.0,118.0,110.0,128.0,174.0,146.0,129.0,29.0,-121.0,-62.0,127.0,127.0,127.0,126.0,89.0,-37.0
128.0,126.0,118.0,109.0,129.0,173.0,146.0,129.0,29.0,-121.0,-62.0,127.0,127.0,127.0,126.0,89.0,-37.0
128.0,126.0,118.0,109.0,129.0,174.0,147.0,129.0,29.0,-121.0,-62.0,127.0,127.0,127.0,126.0,89.0,-37.0
128.0,126.0,118.0,109.0,129.0,174.0,147.0,130.0,29.0,-121.0,-62.0,127.0,127.0,127.0,126.0,89.0,-37.0
128.0,126.0,119.0,109.0,129.0,173.0,146.0,130.0,29.0,-121.0,-62.0,127.0,127.0,127.0,126.0,89.0,-37.0
128.0,125.0,117.0,108.0,128.0,166.0,142.0,129.0,31.0,-122.0,-62.0,127.0,127.0,127.0,126.0,89.0,-37.0
128.0,125.0,118.0,107.0,127.0,166.0,142.0,129.0,31.0,-122.0,-62.0,127.0,127.0,127.0,126.0,89.0,-37.0
128.0,125.0,119.0,107.0,127.0,166.0,141.0,129.0,31.0,-122.0,-62.0,127.0,127.0,127.0,126.0,89.0,-37.0
128.0,125.0,120.0,107.0,127.0,166.0,141.0,129.0,31.0,-122.0,-62.0,127.0,127.0,127.0,126.0,89.0,-37.0
127.0,124.0,119.0,108.0,127.0,166.0,141.0,129.0,31.0,-122.0,-62.0,127.0,127.0,127.0,126.0,89.0,-37.0
127.0,124.0,119.0,109.0,127.0,166.0,141.0,129.0,31.0,-122.0,-62.0,127.0,127.0,127.0,126.0,89.0,-37.0
127.0,124.0,119.0,109.0,127.0,166.0,142.0,129.0,31.0,-122.0,-62.0,127.0,127.0,127.0,126.0,89.0,-37.0
127.0,125.0,118.0,109.0,127.0,166.0,142.0,129.0,31.0,-122.0,-62.0,127.0,127.0,127.0,126.0,89.0,-37.0
128.0,125.0,117.0,109.0,128.0,166.0,142.0,129.0,31.0,-122.0,-62.0,127.0,127.0,127.0,126.0,89.0,-37.0
128.0,125.0,116.0,109.0,128.0,166.0,142.0,129.0,31.0,-122.0,-62.0,127.0,127.0,127.0,126.0,89.0,-37.0
129.0,126.0,123.0,108.0,127.0,169.0,138.0,127.0,33.0,-123.0,-63.0,127.0,127.0,127.0,126.0,89.0,-37.0
129.0,126.0,123.0,108.0,127.0,169.0,139.0,127.0,33.0,-123.0,-63.0,127.0,127.0,127.0,126.0,89.0,-37.0
129.0,126.0,123.0,108.0,127.0,169.0,139.0,127.0,33.0,-123.0,-63.0,127.0,127.0,127.0,126.0,89.0,-37.0
129.0,126.0,123.0,108.0,127.0,167.0,142.0,127.0,33.0,-123.0,-63.0,127.0,127.0,127.0,126.0,89.0,-37.0
129.0,126.0,123.0,108.0,127.0,167.0,143.0,127.0,33.0,-123.0,-63.0,127.0,127.0,127.0,126.0,89.0,-37.0
129.0,126.0,122.0,108.0,127.0,167.0,138.0,127.0,33.0,-123.0,-63.0,127.0,127.0,127.0,126.0,89.0,-37.0
128.0,126.0,122.0,108.0,127.0,168.0,137.0,127.0,33.0,-123.0,-63.0,127.0,127.0,127.0,126.0,89.0,-37.0
129.0,126.0,122.0,108.0,127.0,168.0,137.0,127.0,33.0,-123.0,-63.0,127.0,127.0,127.0,126.0,89.0,-37.0
129.0,126.0,122.0,108.0,127.0,168.0,137.0,127.0,33.0,-123.0,-63.0,127.0,127.0,127.0,126.0,89.0,-37.0
129.0,126.0,123.0,108.0,127.0,168.0,138.0,127.0,33.0,-123.0,-63.0,127.0,127.0,127.0,126.0,89.0,-37.0
128.0,128.0,124.0,107.0,128.0,181.0,150.0,127.0,34.0,-122.0,-63.0,127.0,127.0,127.0,126.0,89.0,-37.0
128.0,128.0,124.0,107.0,128.0,181.0,151.0,127.0,34.0,-122.0,-63.0,127.0,127.0,127.0,126.0,89.0,-37.0
128.0,127.0,125.0,114.0,127.0,177.0,145.0,127.0,34.0,-122.0,-63.0,127.0,127.0,127.0,126.0,89.0,-37.0
128.0,127.0,125.0,113.0,127.0,177.0,145.0,127.0,34.0,-122.0,-63.0,127.0,127.0,127.0,126.0,89.0,-37.0
128.0,128.0,125.0,111.0,127.0,178.0,146.0,127.0,34.0,-122.0,-63.0,127.0,127.0,127.0,126.0,89.0,-37.0
128.0,128.0,125.0,110.0,128.0,179.0,147.0,127.0,34.0,-122.0,-63.0,127.0,127.0,127.0,126.0,89.0,-37.0
128.0,128.0,125.0,109.0,128.0,179.0,147.0,127.0,34.0,-122.0,-63.0,127.0,127.0,127.0,126.0,89.0,-37.0
128.0,128.0,124.0,109.0,128.0,179.0,148.0,127.0,34.0,-122.0,-63.0,127.0,127.0,127.0,126.0,89.0,-37.0
128.0,128.0,124.0,108.0,128.0,180.0,149.0,127.0,34.0,-122.0,-63.0,127.0,127.0,127.0,126.0,89.0,-37.0
128.0,128.0,124.0,108.0,128.0,180.0,150.0,127.0,34.0,-122.0,-63.0,127.0,127.0,127.0,126.0,89.0,-37.0
127.0,126.0,125.0,108.0,127.0,199.0,158.0,127.0,33.0,-122.0,-64.0,127.0,127.0,127.0,126.0,89.0,-37.0
127.0,126.0,125.0,108.0,127.0,193.0,155.0,127.0,33.0,-122.0,-64.0,127.0,127.0,127.0,126.0,89.0,-37.0
128.0,126.0,125.0,108.0,127.0,194.0,156.0,127.0,33.0,-122.0,-64.0,127.0,127.0,127.0,126.0,89.0,-37.0
127.0,126.0,125.0,108.0,127.0,194.0,157.0,127.0,33.0,-122.0,-64.0,127.0,127.0,127.0,126.0,89.0,-37.0
127.0,126.0,125.0,108.0,127.0,195.0,158.0,127.0,33.0,-122.0,-64.0,127.0,127.0,127.0,126.0,89.0,-37.0
127.0,126.0,125.0,108.0,127.0,196.0,159.0,127.0,33.0,-122.0,-64.0,127.0,127.0,127.0,126.0,89.0,-37.0
127.0,126.0,125.0,108.0,127.0,196.0,160.0,127.0,33.0,-122.0,-64.0,127.0,127.0,127.0,126.0,89.0,-37.0
127.0,126.0,125.0,108.0,127.0,197.0,161.0,127.0,33.0,-122.0,-64.0,127.0,127.0,127.0,126.0,89.0,-37.0
127.0,126.0,125.0,108.0,127.0,198.0,162.0,127.0,33.0,-122.0,-64.0,127.0,127.0,127.0,126.0,89.0,-37.0
127.0,126.0,125.0,108.0,127.0,199.0,162.0,127.0,33.0,-122.0,-64.0,127.0,127.0,127.0,126.0,89.0,-37.0
127.0,127.0,126.0,105.0,126.0,220.0,174.0,127.0,32.0,-121.0,-64.0,127.0,127.0,127.0,126.0,89.0,-37.0
127.0,127.0,126.0,105.0,125.0,220.0,175.0,127.0,32.0,-121.0,-64.0,127.0,127.0,127.0,126.0,89.0,-37.0
127.0,126.0,126.0,104.0,125.0,220.0,175.0,127.0,32.0,-121.0,-64.0,127.0,127.0,127.0,126.0,89.0,-37.0
127.0,126.0,126.0,104.0,125.0,220.0,174.0,127.0,32.0,-121.0,-64.0,127.0,127.0,127.0,126.0,89.0,-37.0
127.0,126.0,126.0,104.0,125.0,220.0,175.0,127.0,32.0,-121.0,-64.0,127.0,127.0,127.0,126.0,89.0,-37.0
127.0,126.0,126.0,104.0,125.0,221.0,175.0,127.0,32.0,-121.0,-64.0,127.0,127.0,127.0,126.0,89.0,-37.0
127.0,127.0,126.0,104.0,124.0,221.0,175.0,127.0,32.0,-121.0,-64.0,127.0,127.0,127.0,126.0,89.0,-37.0
127.0,127.0,126.0,103.0,124.0,221.0,175.0,127.0,32.0,-121.0,-64.0,127.0,127.0,127.0,126.0,89.0,-37.0
127.0,126.0,126.0,103.0,124.0,221.0,175.0,127.0,32.0,-121.0,-64.0,127.0,127.0,127.0,126.0,89.0,-37.0
126.0,127.0,126.0,103.0,124.0,222.0,176.0,127.0,32.0,-121.0,-64.0,127.0,127.0,127.0,126.0,89.0,-37.0
127.0,127.0,123.0,106.0,128.0,221.0,175.0,127.0,31.0,-122.0,-64.0,127.0,127.0,127.0,126.0,89.0,-37.0
127.0,127.0,123.0,106.0,128.0,221.0,175.0,127.0,31.0,-122.0,-64.0,127.0,127.0,127.0,126.0,89.0,-37.0
127.0,127.0,122.0,106.0,128.0,222.0,176.0,127.0,31.0,-122.0,-64.0,127.0,127.0,127.0,126.0,89.0,-37.0
126.0,127.0,122.0,106.0,128.0,222.0,176.0,127.0,31.0,-122.0,-64.0,127.0,127.0,127.0,126.0,89.0,-37.0
127.0,127.0,121.0,106.0,128.0,223.0,176.0,127.0,31.0,-122.0,-64.0,127.0,127.0,127.0,126.0,89.0,-37.0
127.0,127.0,121.0,106.0,128.0,223.0,172.0,127.0,31.0,-122.0,-64.0,127.0,127.0,127.0,126.0,89.0,-37.0
127.0,127.0,121.0,106.0,128.0,223.0,171.0,127.0,31.0,-122.0,-64.0,127.0,127.0,127.0,126.0,89.0,-37.0
127.0,127.0,120.0,106.0,128.0,223.0,172.0,127.0,31.0,-122.0,-64.0,127.0,127.0,127.0,126.0,89.0,-37.0
127.0,127.0,120.0,106.0,128.0,223.0,171.0,127.0,31.0,-122.0,-64.0,127.0,127.0,127.0,126.0,89.0,-37.0
127.0,127.0,124.0,106.0,128.0,221.0,176.0,127.0,31.0,-122.0,-64.0,127.0,127.0,127.0,126.0,89.0,-37.0
127.0,127.0,99.0,103.0,126.0,222.0,176.0,126.0,30.0,-122.0,-65.0,127.0,127.0,127.0,126.0,89.0,-37.0
127.0,127.0,98.0,103.0,126.0,222.0,176.0,126.0,30.0,-122.0,-65.0,127.0,127.0,127.0,126.0,89.0,-37.0
127.0,127.0,98.0,103.0,127.0,222.0,176.0,126.0,30.0,-122.0,-65.0,127.0,127.0,127.0,126.0,89.0,-37.0
127.0,127.0,97.0,103.0,127.0,221.0,176.0,126.0,30.0,-122.0,-65.0,127.0,127.0,127.0,126.0,89.0,-37.0
127.0,127.0,97.0,103.0,127.0,221.0,176.0,126.0,30.0,-122.0,-65.0,127.0,127.0,127.0,126.0,89.0,-37.0
127.0,127.0,96.0,103.0,127.0,221.0,175.0,126.0,30.0,-122.0,-65.0,127.0,127.0,127.0,126.0,89.0,-37.0
127.0,127.0,96.0,103.0,127.0,220.0,174.0,126.0,30.0,-122.0,-65.0,127.0,127.0,127.0,126.0,89.0,-37.0
127.0,127.0,95.0,103.0,127.0,220.0,174.0,126.0,30.0,-122.0,-65.0,127.0,127.0,127.0,126.0,89.0,-37.0
127.0,127.0,100.0,103.0,126.0,222.0,175.0,126.0,30.0,-122.0,-65.0,127.0,127.0,127.0,126.0,89.0,-37.0
127.0,127.0,100.0,103.0,126.0,222.0,177.0,126.0,30.0,-122.0,-65.0,127.0,127.0,127.0,126.0,89.0,-37.0
127.0,126.0,80.0,106.0,126.0,216.0,169.0,125.0,29.0,-122.0,-65.0,127.0,127.0,127.0,126.0,89.0,-37.0
127.0,126.0,79.0,106.0,125.0,217.0,169.0,125.0,29.0,-122.0,-65.0,127.0,127.0,127.0,126.0,89.0,-37.0
127.0,126.0,79.0,106.0,125.0,217.0,169.0,125.0,29.0,-122.0,-65.0,127.0,127.0,127.0,126.0,89.0,-37.0
127.0,126.0,79.0,106.0,125.0,217.0,169.0,125.0,29.0,-122.0,-65.0,127.0,127.0,127.0,126.0,89.0,-37.0
127.0,126.0,79.0,106.0,125.0,217.0,170.0,125.0,29.0,-122.0,-65.0,127.0,127.0,127.0,126.0,89.0,-37.0
127.0,126.0,79.0,106.0,124.0,217.0,170.0,125.0,29.0,-122.0,-65.0,127.0,127.0,127.0,126.0,89.0,-37.0
127.0,126.0,79.0,106.0,124.0,218.0,170.0,125.0,29.0,-122.0,-65.0,127.0,127.0,127.0,126.0,89.0,-37.0
127.0,127.0,81.0,107.0,127.0,216.0,169.0,125.0,29.0,-122.0,-65.0,127.0,127.0,127.0,126.0,89.0,-37.0
127.0,127.0,80.0,106.0,126.0,216.0,168.0,125.0,29.0,-122.0,-65.0,127.0,127.0,127.0,126.0,89.0,-37.0
127.0,127.0,80.0,106.0,126.0,216.0,169.0,125.0,29.0,-122.0,-65.0,127.0,127.0,127.0,126.0,89.0,-37.0
127.0,126.0,87.0,112.0,126.0,218.0,170.0,125.0,29.0,-122.0,-65.0,126.0,127.0,127.0,126.0,89.0,-37.0
127.0,126.0,87.0,112.0,126.0,218.0,171.0,125.0,29.0,-122.0,-65.0,126.0,127.0,127.0,126.0,89.0,-37.0
127.0,126.0,87.0,112.0,126.0,217.0,170.0,125.0,29.0,-122.0,-65.0,126.0,127.0,127.0,126.0,89.0,-37.0
127.0,126.0,87.0,113.0,126.0,218.0,171.0,125.0,29.0,-122.0,-65.0,126.0,127.0,127.0,126.0,89.0,-37.0
127.0,126.0,87.0,113.0,126.0,218.0,170.0,125.0,29.0,-122.0,-65.0,126.0,127.0,127.0,126.0,89.0,-37.0
127.0,126.0,87.0,113.0,126.0,217.0,170.0,125.0,29.0,-122.0,-65.0,126.0,127.0,127.0,126.0,89.0,-37.0
127.0,126.0,86.0,111.0,126.0,218.0,171.0,125.0,29.0,-122.0,-65.0,126.0,127.0,127.0,126.0,89.0,-37.0
127.0,126.0,87.0,112.0,126.0,218.0,171.0,125.0,29.0,-122.0,-65.0,126.0,127.0,127.0,126.0,89.0,-37.0
127.0,126.0,87.0,112.0,126.0,218.0,171.0,125.0,29.0,-122.0,-65.0,126.0,127.0,127.0,126.0,89.0,-37.0
127.0,126.0,87.0,112.0,126.0,218.0,171.0,125.0,29.0,-122.0,-65.0,126.0,127.0,127.0,126.0,89.0,-37.0
127.0,127.0,110.0,119.0,127.0,199.0,158.0,125.0,29.0,-122.0,-65.0,126.0,127.0,127.0,126.0,89.0,-37.0
127.0,127.0,111.0,119.0,127.0,199.0,157.0,125.0,29.0,-122.0,-65.0,126.0,127.0,127.0,126.0,89.0,-37.0
127.0,127.0,112.0,119.0,127.0,199.0,158.0,125.0,29.0,-122.0,-65.0,126.0,127.0,127.0,126.0,89.0,-37.0
127.0,127.0,114.0,119.0,127.0,199.0,162.0,125.0,29.0,-122.0,-65.0,126.0,127.0,127.0,126.0,89.0,-37.0
127.0,127.0,115.0,119.0,127.0,198.0,163.0,125.0,29.0,-122.0,-65.0,126.0,127.0,127.0,126.0,89.0,-37.0
127.0,126.0,104.0,118.0,127.0,201.0,161.0,125.0,29.0,-122.0,-65.0,126.0,127.0,127.0,126.0,89.0,-37.0
127.0,127.0,105.0,118.0,127.0,201.0,160.0,125.0,29.0,-122.0,-65.0,126.0,127.0,127.0,126.0,89.0,-37.0
127.0,127.0,106.0,118.0,127.0,201.0,160.0,125.0,29.0,-122.0,-65.0,126.0,127.0,127.0,126.0,89.0,-37.0
127.0,127.0,107.0,119.0,127.0,200.0,159.0,125.0,29.0,-122.0,-65.0,126.0,127.0,127.0,126.0,89.0,-37.0
127.0,127.0,109.0,119.0,127.0,200.0,158.0,125.0,29.0,-122.0,-65.0,126.0,127.0,127.0,126.0,89.0,-37.0
126.0,128.0,159.0,121.0,127.0,179.0,149.0,126.0,29.0,-123.0,-64.0,126.0,127.0,127.0,126.0,89.0,-37.0
126.0,127.0,160.0,121.0,127.0,179.0,148.0,126.0,29.0,-123.0,-64.0,126.0,127.0,127.0,126.0,89.0,-37.0
126.0,127.0,161.0,121.0,127.0,178.0,147.0,126.0,29.0,-123.0,-64.0,126.0,127.0,127.0,126.0,89.0,-37.0
126.0,127.0,161.0,121.0,127.0,178.0,146.0,126.0,29.0,-123.0,-64.0,126.0,127.0,127.0,126.0,89.0,-37.0
126.0,128.0,156.0,121.0,128.0,182.0,152.0,126.0,29.0,-123.0,-64.0,126.0,127.0,127.0,126.0,89.0,-37.0
126.0,128.0,156.0,121.0,128.0,182.0,152.0,126.0,29.0,-123.0,-64.0,126.0,127.0,127.0,126.0,89.0,-37.0
126.0,128.0,157.0,121.0,127.0,181.0,152.0,126.0,29.0,-123.0,-64.0,126.0,127.0,127.0,126.0,89.0,-37.0
126.0,128.0,158.0,121.0,127.0,181.0,151.0,126.0,29.0,-123.0,-64.0,126.0,127.0,127.0,126.0,89.0,-37.0
126.0,128.0,158.0,121.0,127.0,181.0,151.0,126.0,29.0,-123.0,-64.0,126.0,127.0,127.0,126.0,89.0,-37.0
126.0,128.0,159.0,121.0,127.0,180.0,150.0,126.0,29.0,-123.0,-64.0,126.0,127.0,127.0,126.0,89.0,-37.0
126.0,128.0,173.0,123.0,127.0,159.0,136.0,125.0,29.0,-123.0,-64.0,126.0,127.0,127.0,126.0,89.0,-37.0
126.0,128.0,173.0,123.0,126.0,158.0,136.0,125.0,29.0,-123.0,-64.0,126.0,127.0,127.0,126.0,89.0,-37.0
126.0,127.0,173.0,123.0,127.0,158.0,136.0,125.0,29.0,-123.0,-64.0,126.0,127.0,127.0,126.0,89.0,-37.0
126.0,127.0,175.0,123.0,126.0,160.0,133.0,125.0,29.0,-123.0,-64.0,126.0,127.0,127.0,126.0,89.0,-37.0
126.0,127.0,175.0,123.0,127.0,160.0,133.0,125.0,29.0,-123.0,-64.0,126.0,127.0,127.0,126.0,89.0,-37.0
126.0,128.0,175.0,123.0,127.0,160.0,133.0,125.0,29.0,-123.0,-64.0,126.0,127.0,127.0,126.0,89.0,-37.0
126.0,128.0,174.0,123.0,127.0,160.0,132.0,125.0,29.0,-123.0,-64.0,126.0,127.0,127.0,126.0,89.0,-37.0
126.0,128.0,174.0,123.0,126.0,159.0,131.0,125.0,29.0,-123.0,-64.0,126.0,127.0,127.0,126.0,89.0,-37.0
126.0,128.0,174.0,123.0,127.0,159.0,131.0,125.0,29.0,-123.0,-64.0,126.0,127.0,127.0,126.0,89.0,-37.0
126.0,128.0,173.0,123.0,127.0,159.0,134.0,125.0,29.0,-123.0,-64.0,126.0,127.0,127.0,126.0,89.0,-37.0
127.0,127.0,158.0,126.0,127.0,147.0,124.0,125.0,30.0,-124.0,-63.0,126.0,127.0,127.0,126.0,89.0,-37.0
127.0,127.0,157.0,126.0,127.0,146.0,124.0,125.0,30.0,-124.0,-63.0,126.0,127.0,127.0,126.0,89.0,-37.0
127.0,127.0,160.0,126.0,127.0,148.0,126.0,125.0,30.0,-124.0,-63.0,126.0,127.0,127.0,126.0,89.0,-37.0
127.0,127.0,160.0,126.0,127.0,147.0,125.0,125.0,30.0,-124.0,-63.0,126.0,127.0,127.0,126.0,89.0,-37.0
127.0,127.0,159.0,126.0,127.0,147.0,126.0,125.0,30.0,-124.0,-63.0,126.0,127.0,127.0,126.0,89.0,-37.0
127.0,127.0,159.0,126.0,127.0,147.0,126.0,125.0,30.0,-124.0,-63.0,126.0,127.0,127.0,126.0,89.0,-37.0
127.0,127.0,159.0,126.0,127.0,147.0,125.0,125.0,30.0,-124.0,-63.0,126.0,127.0,127.0,126.0,89.0,-37.0
127.0,127.0,159.0,126.0,127.0,147.0,125.0,125.0,30.0,-124.0,-63.0,126.0,127.0,127.0,126.0,89.0,-37.0
127.0,127.0,158.0,126.0,127.0,147.0,125.0,125.0,30.0,-124.0,-63.0,126.0,127.0,127.0,126.0,89.0,-37.0
127.0,127.0,158.0,126.0,127.0,147.0,125.0,125.0,30.0,-124.0,-63.0,126.0,127.0,127.0,126.0,89.0,-37.0
127.0,128.0,147.0,128.0,127.0,142.0,124.0,126.0,30.0,-125.0,-63.0,127.0,127.0,127.0,126.0,89.0,-37.0
127.0,127.0,148.0,128.0,128.0,143.0,125.0,125.0,30.0,-125.0,-63.0,127.0,127.0,127.0,126.0,89.0,-37.0
127.0,127.0,148.0,128.0,127.0,143.0,125.0,125.0,30.0,-125.0,-63.0,127.0,127.0,127.0,126.0,89.0,-37.0
127.0,127.0,148.0,128.0,127.0,142.0,124.0,125.0,30.0,-125.0,-63.0,127.0,127.0,127.0,126.0,89.0,-37.0
127.0,127.0,148.0,128.0,127.0,142.0,125.0,126.0,30.0,-125.0,-63.0,127.0,127.0,127.0,126.0,89.0,-37.0
126.0,128.0,148.0,128.0,127.0,142.0,124.0,125.0,30.0,-125.0,-63.0,127.0,127.0,127.0,126.0,89.0,-37.0
126.0,128.0,147.0,128.0,127.0,143.0,125.0,126.0,30.0,-125.0,-63.0,127.0,127.0,127.0,126.0,89.0,-37.0
127.0,128.0,147.0,128.0,127.0,143.0,125.0,126.0,30.0,-125.0,-63.0,127.0,127.0,127.0,126.0,89.0,-37.0
127.0,128.0,147.0,128.0,127.0,142.0,125.0,126.0,30.0,-125.0,-63.0,127.0,127.0,127.0,126.0,89.0,-37.0
127.0,127.0,147.0,127.0,127.0,142.0,124.0,125.0,30.0,-125.0,-63.0,127.0,127.0,127.0,126.0,89.0,-37.0
127.0,127.0,139.0,130.0,127.0,140.0,120.0,126.0,30.0,-125.0,-62.0,127.0,127.0,127.0,126.0,89.0,-37.0
127.0,127.0,139.0,130.0,127.0,140.0,120.0,126.0,30.0,-125.0,-62.0,127.0,127.0,127.0,126.0,89.0,-37.0
127.0,127.0,138.0,130.0,128.0,140.0,121.0,126.0,30.0,-125.0,-62.0,127.0,127.0,127.0,126.0,89.0,-37.0
127.0,127.0,138.0,130.0,127.0,140.0,121.0,126.0,30.0,-125.0,-62.0,127.0,127.0,127.0,126.0,89.0,-37.0
127.0,127.0,138.0,130.0,127.0,140.0,120.0,126.0,30.0,-125.0,-62.0,127.0,127.0,127.0,126.0,89.0,-37.0
127.0,127.0,137.0,130.0,128.0,140.0,120.0,126.0,30.0,-125.0,-62.0,127.0,127.0,127.0,126.0,89.0,-37.0
127.0,127.0,137.0,130.0,127.0,140.0,120.0,126.0,30.0,-125.0,-62.0,127.0,127.0,127.0,126.0,89.0,-37.0
127.0,127.0,137.0,130.0,127.0,140.0,121.0,126.0,30.0,-125.0,-62.0,127.0,127.0,127.0,126.0,89.0,-37.0
127.0,127.0,137.0,130.0,127.0,140.0,120.0,126.0,30.0,-125.0,-62.0,127.0,127.0,127.0,126.0,89.0,-37.0
