emg1,emg2,emg3,emg4,emg5,emg6,emg7,emg8,acc_x,acc_y,acc_z,gyro_x,gyro_y,gyro_z,angle_pitch,angle_roll,angle_yaw
127.0,125.0,130.0,127.0,128.0,126.0,128.0,128.0,-1.0,113.0,-72.0,127.0,127.0,127.0,-120.0,-82.0,101.0
127.0,127.0,127.0,127.0,126.0,126.0,130.0,127.0,-1.0,113.0,-72.0,127.0,127.0,127.0,-120.0,-82.0,101.0
127.0,126.0,128.0,127.0,126.0,126.0,130.0,127.0,-1.0,113.0,-72.0,127.0,127.0,127.0,-120.0,-82.0,101.0
127.0,126.0,128.0,127.0,126.0,126.0,130.0,127.0,-1.0,113.0,-72.0,127.0,127.0,127.0,-120.0,-82.0,101.0
127.0,126.0,128.0,127.0,127.0,126.0,130.0,127.0,-1.0,113.0,-72.0,127.0,127.0,127.0,-120.0,-82.0,101.0
127.0,126.0,128.0,127.0,127.0,126.0,130.0,127.0,-1.0,113.0,-72.0,127.0,127.0,127.0,-120.0,-82.0,101.0
127.0,126.0,128.0,127.0,127.0,126.0,129.0,127.0,-1.0,113.0,-72.0,127.0,127.0,127.0,-120.0,-82.0,101.0
127.0,125.0,129.0,127.0,127.0,126.0,129.0,128.0,-1.0,113.0,-72.0,127.0,127.0,127.0,-120.0,-82.0,101.0
127.0,125.0,129.0,127.0,127.0,126.0,129.0,128.0,-1.0,113.0,-72.0,127.0,127.0,127.0,-120.0,-82.0,101.0
127.0,125.0,129.0,127.0,128.0,126.0,128.0,128.0,-1.0,113.0,-72.0,127.0,127.0,127.0,-120.0,-82.0,101.0
127.0,126.0,127.0,127.0,126.0,126.0,130.0,127.0,-1.0,114.0,-71.0,127.0,127.0,127.0,-120.0,-82.0,101.0
127.0,126.0,127.0,127.0,126.0,126.0,130.0,127.0,-1.0,114.0,-71.0,127.0,127.0,127.0,-120.0,-82.0,101.0
126.0,126.0,127.0,127.0,126.0,126.0,130.0,127.0,-1.0,114.0,-71.0,127.0,127.0,127.0,-120.0,-82.0,101.0
126.0,126.0,127.0,127.0,126.0,126.0,130.0,128.0,-1.0,114.0,-71.0,127.0,127.0,127.0,-120.0,-82.0,101.0
126.0,126.0,127.0,127.0,127.0,126.0,130.0,128.0,-1.0,114.0,-71.0,127.0,127.0,127.0,-120.0,-82.0,101.0
126.0,125.0,128.0,127.0,127.0,126.0,129.0,128.0,-1.0,114.0,-71.0,127.0,127.0,127.0,-120.0,-82.0,101.0
126.0,125.0,128.0,127.0,127.0,126.0,129.0,128.0,-1.0,114.0,-71.0,127.0,127.0,127.0,-120.0,-82.0,101.0
126.0,125.0,128.0,127.0,127.0,126.0,129.0,128.0,-1.0,114.0,-71.0,127.0,127.0,127.0,-120.0,-82.0,101.0
126.0,125.0,128.0,127.0,127.0,126.0,129.0,128.0,-1.0,114.0,-71.0,127.0,127.0,127.0,-120.0,-82.0,101.0
127.0,127.0,129.0,127.0,127.0,126.0,128.0,128.0,-1.0,114.0,-71.0,127.0,127.0,127.0,-120.0,-82.0,101.0
127.0,127.0,128.0,128.0,126.0,127.0,130.0,128.0,-1.0,113.0,-71.0,127.0,127.0,127.0,-118.0,-89.0,96.0
127.0,127.0,128.0,128.0,126.0,127.0,130.0,129.0,-1.0,113.0,-71.0,127.0,127.0,127.0,-118.0,-89.0,96.0
127.0,127.0,128.0,128.0,126.0,127.0,130.0,129.0,-1.0,113.0,-71.0,127.0,127.0,127.0,-118.0,-89.0,96.0
127.0,127.0,128.0,128.0,126.0,127.0,129.0,129.0,-1.0,113.0,-71.0,127.0,127.0,127.0,-118.0,-89.0,96.0
127.0,127.0,128.0,128.0,127.0,127.0,129.0,129.0,-1.0,113.0,-71.0,127.0,127.0,127.0,-118.0,-89.0,96.0
127.0,126.0,129.0,128.0,127.0,127.0,129.0,129.0,-1.0,113.0,-71.0,127.0,127.0,127.0,-118.0,-89.0,96.0
127.0,126.0,129.0,128.0,127.0,127.0,129.0,129.0,-1.0,113.0,-71.0,127.0,127.0,127.0,-118.0,-89.0,96.0
127.0,126.0,130.0,127.0,127.0,127.0,128.0,129.0,-1.0,113.0,-71.0,127.0,127.0,127.0,-118.0,-89.0,96.0
127.0,127.0,127.0,128.0,126.0,127.0,130.0,128.0,-1.0,113.0,-71.0,127.0,127.0,127.0,-118.0,-89.0,96.0
127.0,127.0,128.0,128.0,126.0,127.0,130.0,128.0,-1.0,113.0,-71.0,127.0,127.0,127.0,-118.0,-89.0,96.0
127.0,126.0,129.0,127.0,127.0,126.0,130.0,129.0,-1.0,113.0,-70.0,127.0,127.0,127.0,-117.0,-92.0,94.0
127.0,126.0,129.0,127.0,127.0,126.0,130.0,129.0,-1.0,113.0,-70.0,127.0,127.0,127.0,-117.0,-92.0,94.0
127.0,125.0,129.0,127.0,127.0,126.0,130.0,129.0,-1.0,113.0,-70.0,127.0,127.0,127.0,-117.0,-92.0,94.0
127.0,125.0,129.0,127.0,127.0,126.0,130.0,129.0,-1.0,113.0,-70.0,127.0,127.0,127.0,-117.0,-92.0,94.0
127.0,125.0,130.0,127.0,127.0,126.0,129.0,129.0,-1.0,113.0,-70.0,127.0,127.0,127.0,-117.0,-92.0,94.0
127.0,125.0,130.0,127.0,127.0,126.0,129.0,129.0,-1.0,113.0,-70.0,127.0,127.0,127.0,-117.0,-92.0,94.0
127.0,125.0,130.0,127.0,127.0,126.0,129.0,129.0,-1.0,113.0,-70.0,127.0,127.0,127.0,-117.0,-92.0,94.0
127.0,126.0,129.0,127.0,126.0,126.0,131.0,128.0,-1.0,113.0,-70.0,127.0,127.0,127.0,-117.0,-92.0,94.0
127.0,126.0,129.0,127.0,127.0,126.0,131.0,129.0,-1.0,113.0,-70.0,127.0,127.0,127.0,-117.0,-92.0,94.0
127.0,126.0,129.0,127.0,127.0,126.0,130.0,129.0,-1.0,113.0,-70.0,127.0,127.0,127.0,-117.0,-92.0,94.0
127.0,127.0,128.0,127.0,126.0,126.0,130.0,129.0,-1.0,112.0,-70.0,127.0,127.0,127.0,-117.0,-93.0,92.0
127.0,127.0,128.0,127.0,126.0,126.0,130.0,129.0,-1.0,112.0,-70.0,127.0,127.0,127.0,-117.0,-93.0,92.0
127.0,126.0,128.0,127.0,126.0,126.0,129.0,129.0,-1.0,112.0,-70.0,127.0,127.0,127.0,-117.0,-93.0,92.0
127.0,126.0,129.0,127.0,126.0,126.0,129.0,129.0,-1.0,112.0,-70.0,127.0,127.0,127.0,-117.0,-93.0,92.0
127.0,126.0,129.0,127.0,126.0,126.0,129.0,129.0,-1.0,112.0,-70.0,127.0,127.0,127.0,-117.0,-93.0,92.0
127.0,126.0,129.0,127.0,127.0,126.0,129.0,129.0,-1.0,112.0,-70.0,127.0,127.0,127.0,-117.0,-93.0,92.0
126.0,127.0,127.0,127.0,126.0,126.0,131.0,128.0,-1.0,112.0,-70.0,127.0,127.0,127.0,-117.0,-93.0,92.0
126.0,127.0,128.0,127.0,126.0,126.0,131.0,128.0,-1.0,112.0,-70.0,127.0,127.0,127.0,-117.0,-93.0,92.0
126.0,127.0,128.0,127.0,126.0,126.0,130.0,128.0,-1.0,112.0,-70.0,127.0,127.0,127.0,-117.0,-93.0,92.0
126.0,127.0,128.0,127.0,126.0,126.0,130.0,128.0,-1.0,112.0,-70.0,127.0,127.0,127.0,-117.0,-93.0,92.0
127.0,127.0,128.0,127.0,125.0,126.0,127.0,128.0,-1.0,112.0,-69.0,127.0,127.0,127.0,-118.0,-92.0,89.0
126.0,127.0,128.0,127.0,126.0,126.0,127.0,128.0,-1.0,112.0,-69.0,127.0,127.0,127.0,-118.0,-92.0,89.0
126.0,127.0,128.0,127.0,126.0,126.0,126.0,128.0,-1.0,112.0,-69.0,127.0,127.0,127.0,-118.0,-92.0,89.0
127.0,126.0,129.0,127.0,126.0,126.0,126.0,129.0,-1.0,112.0,-69.0,127.0,127.0,127.0,-118.0,-92.0,89.0
127.0,126.0,129.0,127.0,126.0,126.0,126.0,129.0,-1.0,112.0,-69.0,127.0,127.0,127.0,-118.0,-92.0,89.0
127.0,128.0,127.0,127.0,125.0,126.0,128.0,128.0,-1.0,112.0,-69.0,127.0,127.0,127.0,-118.0,-92.0,89.0
127.0,128.0,127.0,127.0,125.0,126.0,127.0,128.0,-1.0,112.0,-69.0,127.0,127.0,127.0,-118.0,-92.0,89.0
127.0,127.0,127.0,127.0,125.0,126.0,127.0,128.0,-1.0,112.0,-69.0,127.0,127.0,127.0,-118.0,-92.0,89.0
127.0,127.0,127.0,127.0,125.0,126.0,127.0,128.0,-1.0,112.0,-69.0,127.0,127.0,127.0,-118.0,-92.0,89.0
127.0,127.0,128.0,127.0,125.0,126.0,127.0,128.0,-1.0,112.0,-69.0,127.0,127.0,127.0,-118.0,-92.0,89.0
127.0,126.0,127.0,127.0,126.0,127.0,124.0,128.0,-1.0,112.0,-69.0,127.0,127.0,127.0,-118.0,-91.0,88.0
127.0,126.0,127.0,127.0,126.0,127.0,124.0,128.0,-1.0,112.0,-69.0,127.0,127.0,127.0,-118.0,-91.0,88.0
127.0,125.0,127.0,127.0,126.0,127.0,124.0,128.0,-1.0,112.0,-69.0,127.0,127.0,127.0,-118.0,-91.0,88.0
127.0,125.0,128.0,127.0,126.0,127.0,123.0,128.0,-1.0,112.0,-69.0,127.0,127.0,127.0,-118.0,-91.0,88.0
127.0,127.0,126.0,127.0,125.0,126.0,125.0,127.0,-1.0,112.0,-69.0,127.0,127.0,127.0,-118.0,-91.0,88.0
127.0,127.0,126.0,127.0,125.0,126.0,125.0,127.0,-1.0,112.0,-69.0,127.0,127.0,127.0,-118.0,-91.0,88.0
127.0,127.0,126.0,127.0,125.0,126.0,125.0,127.0,-1.0,112.0,-69.0,127.0,127.0,127.0,-118.0,-91.0,88.0
127.0,126.0,126.0,127.0,125.0,126.0,125.0,127.0,-1.0,112.0,-69.0,127.0,127.0,127.0,-118.0,-91.0,88.0
127.0,126.0,126.0,127.0,126.0,126.0,124.0,128.0,-1.0,112.0,-69.0,127.0,127.0,127.0,-118.0,-91.0,88.0
127.0,126.0,127.0,127.0,126.0,126.0,124.0,128.0,-1.0,112.0,-69.0,127.0,127.0,127.0,-118.0,-91.0,88.0
126.0,126.0,127.0,127.0,126.0,127.0,123.0,128.0,-1.0,112.0,-69.0,127.0,127.0,127.0,-119.0,-90.0,87.0
126.0,126.0,128.0,127.0,126.0,127.0,123.0,128.0,-1.0,112.0,-69.0,127.0,127.0,127.0,-119.0,-90.0,87.0
126.0,126.0,128.0,127.0,126.0,127.0,122.0,128.0,-1.0,112.0,-69.0,127.0,127.0,127.0,-119.0,-90.0,87.0
126.0,127.0,126.0,127.0,125.0,126.0,124.0,127.0,-1.0,112.0,-69.0,127.0,127.0,127.0,-119.0,-90.0,87.0
126.0,127.0,126.0,127.0,125.0,127.0,124.0,128.0,-1.0,112.0,-69.0,127.0,127.0,127.0,-119.0,-90.0,87.0
126.0,127.0,127.0,127.0,125.0,127.0,123.0,128.0,-1.0,112.0,-69.0,127.0,127.0,127.0,-119.0,-90.0,87.0
126.0,127.0,127.0,127.0,125.0,127.0,123.0,128.0,-1.0,112.0,-69.0,127.0,127.0,127.0,-119.0,-90.0,87.0
126.0,126.0,127.0,127.0,125.0,127.0,123.0,128.0,-1.0,112.0,-69.0,127.0,127.0,127.0,-119.0,-90.0,87.0
126.0,126.0,127.0,127.0,125.0,127.0,123.0,128.0,-1.0,112.0,-69.0,127.0,127.0,127.0,-119.0,-90.0,87.0
126.0,126.0,127.0,127.0,126.0,127.0,123.0,128.0,-1.0,112.0,-69.0,127.0,127.0,127.0,-119.0,-90.0,87.0
127.0,125.0,128.0,127.0,126.0,126.0,127.0,128.0,-1.0,112.0,-68.0,127.0,127.0,127.0,-120.0,-89.0,85.0
127.0,125.0,128.0,127.0,126.0,126.0,127.0,128.0,-1.0,112.0,-68.0,127.0,127.0,127.0,-120.0,-89.0,85.0
127.0,127.0,126.0,127.0,125.0,126.0,127.0,128.0,-1.0,112.0,-68.0,127.0,127.0,127.0,-120.0,-89.0,85.0
127.0,127.0,126.0,127.0,125.0,126.0,127.0,128.0,-1.0,112.0,-68.0,127.0,127.0,127.0,-120.0,-89.0,85.0
127.0,127.0,127.0,127.0,125.0,126.0,127.0,128.0,-1.0,112.0,-68.0,127.0,127.0,127.0,-120.0,-89.0,85.0
127.0,126.0,127.0,127.0,126.0,126.0,127.0,128.0,-1.0,112.0,-68.0,127.0,127.0,127.0,-120.0,-89.0,85.0
127.0,126.0,127.0,127.0,126.0,126.0,127.0,127.0,-1.0,112.0,-68.0,127.0,127.0,127.0,-120.0,-89.0,85.0
127.0,126.0,127.0,127.0,126.0,126.0,127.0,128.0,-1.0,112.0,-68.0,127.0,127.0,127.0,-120.0,-89.0,85.0
127.0,126.0,127.0,127.0,126.0,126.0,127.0,128.0,-1.0,112.0,-68.0,127.0,127.0,127.0,-120.0,-89.0,85.0
127.0,125.0,128.0,127.0,126.0,126.0,127.0,128.0,-1.0,112.0,-68.0,127.0,127.0,127.0,-120.0,-89.0,85.0
126.0,120.0,127.0,127.0,127.0,126.0,130.0,128.0,-1.0,111.0,-68.0,127.0,127.0,127.0,-120.0,-87.0,84.0
127.0,122.0,126.0,127.0,125.0,126.0,131.0,127.0,-1.0,111.0,-68.0,127.0,127.0,127.0,-120.0,-87.0,84.0
127.0,122.0,126.0,127.0,125.0,126.0,131.0,127.0,-1.0,111.0,-68.0,127.0,127.0,127.0,-120.0,-87.0,84.0
127.0,122.0,126.0,127.0,125.0,126.0,131.0,127.0,-1.0,111.0,-68.0,127.0,127.0,127.0,-120.0,-87.0,84.0
127.0,122.0,126.0,127.0,125.0,126.0,131.0,127.0,-1.0,111.0,-68.0,127.0,127.0,127.0,-120.0,-87.0,84.0
127.0,121.0,126.0,127.0,126.0,126.0,131.0,127.0,-1.0,111.0,-68.0,127.0,127.0,127.0,-120.0,-87.0,84.0
127.0,121.0,126.0,127.0,126.0,126.0,131.0,127.0,-1.0,111.0,-68.0,127.0,127.0,127.0,-120.0,-87.0,84.0
126.0,121.0,126.0,127.0,126.0,126.0,131.0,128.0,-1.0,111.0,-68.0,127.0,127.0,127.0,-120.0,-87.0,84.0
126.0,120.0,126.0,127.0,126.0,126.0,131.0,128.0,-1.0,111.0,-68.0,127.0,127.0,127.0,-120.0,-87.0,84.0
126.0,120.0,127.0,127.0,126.0,126.0,130.0,128.0,-1.0,111.0,-68.0,127.0,127.0,127.0,-120.0,-87.0,84.0
127.0,123.0,123.0,127.0,125.0,127.0,137.0,127.0,-1.0,110.0,-68.0,127.0,127.0,127.0,-121.0,-86.0,84.0
127.0,123.0,123.0,127.0,125.0,127.0,136.0,128.0,-1.0,110.0,-68.0,127.0,127.0,127.0,-121.0,-86.0,84.0
127.0,123.0,123.0,127.0,125.0,127.0,136.0,128.0,-1.0,110.0,-68.0,127.0,127.0,127.0,-121.0,-86.0,84.0
127.0,123.0,123.0,127.0,125.0,127.0,136.0,128.0,-1.0,110.0,-68.0,127.0,127.0,127.0,-121.0,-86.0,84.0
127.0,124.0,123.0,127.0,125.0,127.0,136.0,128.0,-1.0,110.0,-68.0,127.0,127.0,127.0,-121.0,-86.0,84.0
127.0,124.0,123.0,127.0,125.0,127.0,136.0,128.0,-1.0,110.0,-68.0,127.0,127.0,127.0,-121.0,-86.0,84.0
127.0,123.0,124.0,128.0,125.0,127.0,136.0,128.0,-1.0,110.0,-68.0,127.0,127.0,127.0,-121.0,-86.0,84.0
127.0,123.0,124.0,127.0,126.0,127.0,136.0,128.0,-1.0,110.0,-68.0,127.0,127.0,127.0,-121.0,-86.0,84.0
127.0,123.0,124.0,127.0,126.0,127.0,135.0,128.0,-1.0,110.0,-68.0,127.0,127.0,127.0,-121.0,-86.0,84.0
127.0,123.0,125.0,127.0,126.0,127.0,135.0,128.0,-1.0,110.0,-68.0,127.0,127.0,127.0,-121.0,-86.0,84.0
127.0,127.0,124.0,127.0,125.0,127.0,135.0,127.0,-1.0,110.0,-68.0,127.0,127.0,127.0,-122.0,-84.0,83.0
127.0,127.0,124.0,127.0,125.0,127.0,135.0,127.0,-1.0,110.0,-68.0,127.0,127.0,127.0,-122.0,-84.0,83.0
127.0,127.0,124.0,127.0,125.0,127.0,134.0,127.0,-1.0,110.0,-68.0,127.0,127.0,127.0,-122.0,-84.0,83.0
126.0,127.0,124.0,127.0,125.0,127.0,134.0,127.0,-1.0,110.0,-68.0,127.0,127.0,127.0,-122.0,-84.0,83.0
126.0,127.0,124.0,127.0,125.0,127.0,134.0,127.0,-1.0,110.0,-68.0,127.0,127.0,127.0,-122.0,-84.0,83.0
126.0,127.0,125.0,127.0,125.0,127.0,134.0,127.0,-1.0,110.0,-68.0,127.0,127.0,127.0,-122.0,-84.0,83.0
126.0,126.0,125.0,127.0,126.0,127.0,134.0,127.0,-1.0,110.0,-68.0,127.0,127.0,127.0,-122.0,-84.0,83.0
126.0,126.0,125.0,127.0,126.0,127.0,133.0,127.0,-1.0,110.0,-68.0,127.0,127.0,127.0,-122.0,-84.0,83.0
126.0,126.0,125.0,127.0,126.0,127.0,133.0,128.0,-1.0,110.0,-68.0,127.0,127.0,127.0,-122.0,-84.0,83.0
127.0,127.0,124.0,127.0,125.0,127.0,135.0,127.0,-1.0,110.0,-68.0,127.0,127.0,127.0,-122.0,-84.0,83.0
126.0,129.0,123.0,127.0,124.0,127.0,132.0,128.0,-1.0,109.0,-68.0,127.0,127.0,127.0,-122.0,-83.0,82.0
127.0,129.0,124.0,127.0,125.0,127.0,131.0,128.0,-1.0,109.0,-68.0,127.0,127.0,127.0,-122.0,-83.0,82.0
126.0,129.0,124.0,127.0,125.0,127.0,131.0,128.0,-1.0,109.0,-68.0,127.0,127.0,127.0,-122.0,-83.0,82.0
126.0,129.0,124.0,127.0,125.0,127.0,131.0,128.0,-1.0,109.0,-68.0,127.0,127.0,127.0,-122.0,-83.0,82.0
127.0,128.0,124.0,127.0,125.0,127.0,131.0,128.0,-1.0,109.0,-68.0,127.0,127.0,127.0,-122.0,-83.0,82.0
126.0,128.0,124.0,127.0,125.0,127.0,131.0,128.0,-1.0,109.0,-68.0,127.0,127.0,127.0,-122.0,-83.0,82.0
127.0,128.0,125.0,127.0,125.0,127.0,130.0,128.0,-1.0,109.0,-68.0,127.0,127.0,127.0,-122.0,-83.0,82.0
127.0,128.0,125.0,127.0,125.0,127.0,130.0,128.0,-1.0,109.0,-68.0,127.0,127.0,127.0,-122.0,-83.0,82.0
126.0,130.0,123.0,127.0,124.0,127.0,132.0,128.0,-1.0,109.0,-68.0,127.0,127.0,127.0,-122.0,-83.0,82.0
126.0,129.0,123.0,127.0,124.0,127.0,132.0,128.0,-1.0,109.0,-68.0,127.0,127.0,127.0,-122.0,-83.0,82.0
127.0,129.0,124.0,127.0,125.0,128.0,129.0,128.0,-1.0,109.0,-67.0,127.0,127.0,127.0,-123.0,-82.0,82.0
127.0,129.0,124.0,127.0,125.0,128.0,129.0,128.0,-1.0,109.0,-67.0,127.0,127.0,127.0,-123.0,-82.0,82.0
127.0,129.0,124.0,127.0,126.0,128.0,129.0,128.0,-1.0,109.0,-67.0,127.0,127.0,127.0,-123.0,-82.0,82.0
127.0,129.0,124.0,127.0,126.0,128.0,129.0,128.0,-1.0,109.0,-67.0,127.0,127.0,127.0,-123.0,-82.0,82.0
127.0,129.0,125.0,127.0,126.0,128.0,129.0,128.0,-1.0,109.0,-67.0,127.0,127.0,127.0,-123.0,-82.0,82.0
127.0,129.0,125.0,127.0,126.0,128.0,128.0,128.0,-1.0,109.0,-67.0,127.0,127.0,127.0,-123.0,-82.0,82.0
127.0,128.0,125.0,127.0,126.0,128.0,128.0,128.0,-1.0,109.0,-67.0,127.0,127.0,127.0,-123.0,-82.0,82.0
127.0,130.0,124.0,127.0,125.0,128.0,130.0,127.0,-1.0,109.0,-67.0,127.0,127.0,127.0,-123.0,-82.0,82.0
127.0,129.0,124.0,127.0,125.0,128.0,129.0,127.0,-1.0,109.0,-67.0,127.0,127.0,127.0,-123.0,-82.0,82.0
127.0,130.0,124.0,127.0,125.0,128.0,129.0,128.0,-1.0,109.0,-67.0,127.0,127.0,127.0,-123.0,-82.0,82.0
127.0,129.0,125.0,127.0,125.0,129.0,131.0,127.0,-1.0,109.0,-66.0,127.0,127.0,127.0,-124.0,-80.0,82.0
127.0,129.0,125.0,127.0,125.0,129.0,130.0,127.0,-1.0,109.0,-66.0,127.0,127.0,127.0,-124.0,-80.0,82.0
127.0,129.0,125.0,127.0,125.0,129.0,130.0,127.0,-1.0,109.0,-66.0,127.0,127.0,127.0,-124.0,-80.0,82.0
127.0,129.0,125.0,127.0,126.0,129.0,130.0,127.0,-1.0,109.0,-66.0,127.0,127.0,127.0,-124.0,-80.0,82.0
127.0,128.0,125.0,127.0,126.0,129.0,130.0,127.0,-1.0,109.0,-66.0,127.0,127.0,127.0,-124.0,-80.0,82.0
127.0,128.0,126.0,127.0,126.0,130.0,130.0,128.0,-1.0,109.0,-66.0,127.0,127.0,127.0,-124.0,-80.0,82.0
126.0,129.0,124.0,127.0,125.0,129.0,131.0,127.0,-1.0,109.0,-66.0,127.0,127.0,127.0,-124.0,-80.0,82.0
126.0,129.0,124.0,127.0,125.0,129.0,131.0,127.0,-1.0,109.0,-66.0,127.0,127.0,127.0,-124.0,-80.0,82.0
127.0,129.0,124.0,127.0,125.0,129.0,131.0,127.0,-1.0,109.0,-66.0,127.0,127.0,127.0,-124.0,-80.0,82.0
126.0,129.0,125.0,127.0,125.0,129.0,131.0,127.0,-1.0,109.0,-66.0,127.0,127.0,127.0,-124.0,-80.0,82.0
127.0,129.0,126.0,127.0,125.0,129.0,128.0,127.0,-1.0,109.0,-66.0,127.0,127.0,127.0,-125.0,-79.0,82.0
127.0,129.0,126.0,127.0,125.0,130.0,128.0,127.0,-1.0,109.0,-66.0,127.0,127.0,127.0,-125.0,-79.0,82.0
127.0,129.0,126.0,127.0,125.0,129.0,128.0,127.0,-1.0,109.0,-66.0,127.0,127.0,127.0,-125.0,-79.0,82.0
127.0,128.0,126.0,127.0,126.0,130.0,127.0,127.0,-1.0,109.0,-66.0,127.0,127.0,127.0,-125.0,-79.0,82.0
127.0,128.0,127.0,127.0,126.0,130.0,127.0,127.0,-1.0,109.0,-66.0,127.0,127.0,127.0,-125.0,-79.0,82.0
127.0,130.0,125.0,127.0,125.0,129.0,129.0,127.0,-1.0,109.0,-66.0,127.0,127.0,127.0,-125.0,-79.0,82.0
127.0,129.0,125.0,127.0,125.0,129.0,129.0,127.0,-1.0,109.0,-66.0,127.0,127.0,127.0,-125.0,-79.0,82.0
127.0,129.0,125.0,127.0,125.0,129.0,129.0,127.0,-1.0,109.0,-66.0,127.0,127.0,127.0,-125.0,-79.0,82.0
127.0,129.0,125.0,127.0,125.0,129.0,128.0,127.0,-1.0,109.0,-66.0,127.0,127.0,127.0,-125.0,-79.0,82.0
127.0,129.0,125.0,127.0,125.0,129.0,128.0,127.0,-1.0,109.0,-66.0,127.0,127.0,127.0,-125.0,-79.0,82.0
127.0,130.0,123.0,127.0,125.0,129.0,115.0,127.0,-1.0,109.0,-65.0,127.0,127.0,127.0,-125.0,-79.0,82.0
127.0,130.0,123.0,127.0,125.0,129.0,115.0,127.0,-1.0,109.0,-65.0,127.0,127.0,127.0,-125.0,-79.0,82.0
127.0,130.0,123.0,127.0,125.0,129.0,114.0,127.0,-1.0,109.0,-65.0,127.0,127.0,127.0,-125.0,-79.0,82.0
127.0,130.0,124.0,127.0,125.0,129.0,114.0,127.0,-1.0,109.0,-65.0,127.0,127.0,127.0,-125.0,-79.0,82.0
126.0,131.0,123.0,127.0,124.0,129.0,118.0,126.0,-1.0,109.0,-65.0,127.0,127.0,127.0,-125.0,-79.0,82.0
126.0,131.0,123.0,127.0,124.0,129.0,118.0,126.0,-1.0,109.0,-65.0,127.0,127.0,127.0,-125.0,-79.0,82.0
127.0,131.0,123.0,127.0,124.0,129.0,117.0,126.0,-1.0,109.0,-65.0,127.0,127.0,127.0,-125.0,-79.0,82.0
127.0,131.0,123.0,127.0,124.0,129.0,117.0,127.0,-1.0,109.0,-65.0,127.0,127.0,127.0,-125.0,-79.0,82.0
126.0,131.0,123.0,127.0,124.0,129.0,116.0,127.0,-1.0,109.0,-65.0,127.0,127.0,127.0,-125.0,-79.0,82.0
127.0,130.0,123.0,127.0,125.0,129.0,116.0,127.0,-1.0,109.0,-65.0,127.0,127.0,127.0,-125.0,-79.0,82.0
127.0,129.0,121.0,127.0,126.0,127.0,111.0,127.0,-1.0,109.0,-65.0,127.0,127.0,127.0,-126.0,-78.0,82.0
127.0,129.0,121.0,127.0,126.0,127.0,110.0,127.0,-1.0,109.0,-65.0,127.0,127.0,127.0,-126.0,-78.0,82.0
127.0,129.0,122.0,127.0,126.0,127.0,110.0,127.0,-1.0,109.0,-65.0,127.0,127.0,127.0,-126.0,-78.0,82.0
127.0,130.0,121.0,127.0,125.0,127.0,112.0,126.0,-1.0,109.0,-65.0,127.0,127.0,127.0,-126.0,-78.0,82.0
127.0,130.0,121.0,127.0,125.0,127.0,112.0,126.0,-1.0,109.0,-65.0,127.0,127.0,127.0,-126.0,-78.0,82.0
127.0,130.0,121.0,127.0,125.0,128.0,111.0,126.0,-1.0,109.0,-65.0,127.0,127.0,127.0,-126.0,-78.0,82.0
127.0,130.0,121.0,127.0,125.0,127.0,111.0,126.0,-1.0,109.0,-65.0,127.0,127.0,127.0,-126.0,-78.0,82.0
127.0,130.0,121.0,127.0,125.0,127.0,111.0,126.0,-1.0,109.0,-65.0,127.0,127.0,127.0,-126.0,-78.0,82.0
127.0,130.0,121.0,127.0,125.0,127.0,111.0,126.0,-1.0,109.0,-65.0,127.0,127.0,127.0,-126.0,-78.0,82.0
127.0,129.0,121.0,127.0,125.0,127.0,111.0,127.0,-1.0,109.0,-65.0,127.0,127.0,127.0,-126.0,-78.0,82.0
127.0,127.0,124.0,127.0,127.0,126.0,112.0,126.0,-1.0,109.0,-65.0,127.0,127.0,127.0,-127.0,-77.0,82.0
126.0,126.0,124.0,127.0,128.0,126.0,112.0,126.0,-1.0,109.0,-65.0,127.0,127.0,127.0,-127.0,-77.0,82.0
126.0,128.0,122.0,127.0,126.0,126.0,112.0,125.0,-1.0,109.0,-65.0,127.0,127.0,127.0,-127.0,-77.0,82.0
126.0,128.0,122.0,127.0,126.0,126.0,112.0,125.0,-1.0,109.0,-65.0,127.0,127.0,127.0,-127.0,-77.0,82.0
126.0,128.0,123.0,127.0,126.0,126.0,112.0,125.0,-1.0,109.0,-65.0,127.0,127.0,127.0,-127.0,-77.0,82.0
126.0,128.0,123.0,127.0,127.0,126.0,112.0,125.0,-1.0,109.0,-65.0,127.0,127.0,127.0,-127.0,-77.0,82.0
126.0,127.0,123.0,127.0,127.0,126.0,112.0,125.0,-1.0,109.0,-65.0,127.0,127.0,127.0,-127.0,-77.0,82.0
126.0,127.0,123.0,127.0,127.0,126.0,112.0,125.0,-1.0,109.0,-65.0,127.0,127.0,127.0,-127.0,-77.0,82.0
126.0,127.0,123.0,127.0,127.0,126.0,112.0,125.0,-1.0,109.0,-65.0,127.0,127.0,127.0,-127.0,-77.0,82.0
127.0,127.0,123.0,127.0,127.0,126.0,112.0,125.0,-1.0,109.0,-65.0,127.0,127.0,127.0,-127.0,-77.0,82.0
127.0,126.0,125.0,127.0,127.0,126.0,122.0,126.0,-1.0,109.0,-65.0,127.0,127.0,127.0,-127.0,-77.0,82.0
127.0,127.0,123.0,127.0,127.0,125.0,122.0,126.0,-1.0,109.0,-65.0,127.0,127.0,127.0,-127.0,-77.0,82.0
127.0,127.0,123.0,127.0,127.0,125.0,122.0,126.0,-1.0,109.0,-65.0,127.0,127.0,127.0,-127.0,-77.0,82.0
127.0,127.0,124.0,127.0,127.0,125.0,122.0,126.0,-1.0,109.0,-65.0,127.0,127.0,127.0,-127.0,-77.0,82.0
127.0,127.0,124.0,127.0,127.0,125.0,122.0,126.0,-1.0,109.0,-65.0,127.0,127.0,127.0,-127.0,-77.0,82.0
127.0,127.0,124.0,127.0,127.0,125.0,122.0,126.0,-1.0,109.0,-65.0,127.0,127.0,127.0,-127.0,-77.0,82.0
127.0,127.0,124.0,127.0,127.0,125.0,122.0,126.0,-1.0,109.0,-65.0,127.0,127.0,127.0,-127.0,-77.0,82.0
127.0,127.0,124.0,127.0,127.0,125.0,122.0,126.0,-1.0,109.0,-65.0,127.0,127.0,127.0,-127.0,-77.0,82.0
127.0,127.0,125.0,127.0,127.0,125.0,122.0,126.0,-1.0,109.0,-65.0,127.0,127.0,127.0,-127.0,-77.0,82.0
127.0,126.0,125.0,127.0,127.0,126.0,122.0,126.0,-1.0,109.0,-65.0,127.0,127.0,127.0,-127.0,-77.0,82.0
127.0,128.0,125.0,127.0,126.0,125.0,127.0,127.0,-1.0,109.0,-66.0,127.0,127.0,127.0,-127.0,-76.0,82.0
127.0,128.0,125.0,127.0,127.0,125.0,127.0,127.0,-1.0,109.0,-66.0,127.0,127.0,127.0,-127.0,-76.0,82.0
126.0,128.0,125.0,127.0,127.0,125.0,127.0,127.0,-1.0,109.0,-66.0,127.0,127.0,127.0,-127.0,-76.0,82.0
126.0,128.0,125.0,127.0,126.0,126.0,127.0,127.0,-1.0,109.0,-66.0,127.0,127.0,127.0,-127.0,-76.0,82.0
127.0,128.0,126.0,127.0,127.0,126.0,127.0,127.0,-1.0,109.0,-66.0,127.0,127.0,127.0,-127.0,-76.0,82.0
127.0,128.0,126.0,127.0,127.0,126.0,127.0,127.0,-1.0,109.0,-66.0,127.0,127.0,127.0,-127.0,-76.0,82.0
127.0,127.0,126.0,127.0,127.0,126.0,127.0,127.0,-1.0,109.0,-66.0,127.0,127.0,127.0,-127.0,-76.0,82.0
127.0,127.0,126.0,127.0,127.0,126.0,126.0,127.0,-1.0,109.0,-66.0,127.0,127.0,127.0,-127.0,-76.0,82.0
127.0,127.0,127.0,127.0,127.0,126.0,126.0,127.0,-1.0,109.0,-66.0,127.0,127.0,127.0,-127.0,-76.0,82.0
126.0,127.0,127.0,127.0,127.0,126.0,126.0,127.0,-1.0,109.0,-66.0,127.0,127.0,127.0,-127.0,-76.0,82.0
127.0,127.0,126.0,127.0,127.0,125.0,130.0,127.0,-1.0,109.0,-67.0,127.0,127.0,127.0,-127.0,-75.0,82.0
127.0,127.0,126.0,127.0,127.0,125.0,130.0,127.0,-1.0,109.0,-67.0,127.0,127.0,127.0,-127.0,-75.0,82.0
127.0,127.0,126.0,127.0,127.0,125.0,130.0,127.0,-1.0,109.0,-67.0,127.0,127.0,127.0,-127.0,-75.0,82.0
127.0,127.0,126.0,127.0,127.0,125.0,130.0,127.0,-1.0,109.0,-67.0,127.0,127.0,127.0,-127.0,-75.0,82.0
127.0,127.0,126.0,127.0,127.0,125.0,129.0,127.0,-1.0,109.0,-67.0,127.0,127.0,127.0,-127.0,-75.0,82.0
127.0,127.0,126.0,127.0,127.0,125.0,129.0,127.0,-1.0,109.0,-67.0,127.0,127.0,127.0,-127.0,-75.0,82.0
127.0,127.0,127.0,127.0,127.0,126.0,129.0,128.0,-1.0,109.0,-67.0,127.0,127.0,127.0,-127.0,-75.0,82.0
127.0,126.0,127.0,127.0,127.0,126.0,129.0,128.0,-1.0,109.0,-67.0,127.0,127.0,127.0,-127.0,-75.0,82.0
127.0,126.0,127.0,127.0,128.0,125.0,129.0,128.0,-1.0,109.0,-67.0,127.0,127.0,127.0,-127.0,-75.0,82.0
127.0,128.0,126.0,127.0,127.0,125.0,130.0,127.0,-1.0,109.0,-67.0,127.0,127.0,127.0,-127.0,-75.0,82.0
127.0,126.0,128.0,127.0,127.0,126.0,132.0,127.0,-1.0,109.0,-68.0,127.0,127.0,127.0,-127.0,-74.0,82.0
127.0,125.0,128.0,127.0,127.0,126.0,132.0,127.0,-1.0,109.0,-68.0,127.0,127.0,127.0,-127.0,-74.0,82.0
127.0,125.0,128.0,127.0,127.0,126.0,131.0,127.0,-1.0,109.0,-68.0,127.0,127.0,127.0,-127.0,-74.0,82.0
127.0,125.0,128.0,127.0,127.0,126.0,131.0,128.0,-1.0,109.0,-68.0,127.0,127.0,127.0,-127.0,-74.0,82.0
127.0,125.0,128.0,127.0,127.0,126.0,131.0,128.0,-1.0,109.0,-68.0,127.0,127.0,127.0,-127.0,-74.0,82.0
127.0,125.0,128.0,127.0,127.0,126.0,131.0,128.0,-1.0,109.0,-68.0,127.0,127.0,127.0,-127.0,-74.0,82.0
127.0,125.0,129.0,127.0,127.0,126.0,130.0,128.0,-1.0,109.0,-68.0,127.0,127.0,127.0,-127.0,-74.0,82.0
127.0,125.0,129.0,127.0,128.0,126.0,130.0,128.0,-1.0,109.0,-68.0,127.0,127.0,127.0,-127.0,-74.0,82.0
127.0,126.0,128.0,127.0,127.0,126.0,132.0,127.0,-1.0,109.0,-68.0,127.0,127.0,127.0,-127.0,-74.0,82.0
127.0,126.0,128.0,127.0,127.0,126.0,132.0,127.0,-1.0,109.0,-68.0,127.0,127.0,127.0,-127.0,-74.0,82.0
127.0,126.0,128.0,127.0,127.0,126.0,132.0,128.0,-1.0,109.0,-68.0,127.0,127.0,127.0,-127.0,-74.0,82.0
127.0,126.0,128.0,127.0,127.0,126.0,131.0,128.0,-1.0,109.0,-68.0,127.0,127.0,127.0,-127.0,-74.0,82.0
127.0,126.0,128.0,127.0,127.0,126.0,131.0,128.0,-1.0,109.0,-68.0,127.0,127.0,127.0,-127.0,-74.0,82.0
127.0,125.0,128.0,127.0,127.0,126.0,131.0,128.0,-1.0,109.0,-68.0,127.0,127.0,127.0,-127.0,-74.0,82.0
127.0,126.0,128.0,127.0,127.0,126.0,131.0,129.0,-1.0,109.0,-68.0,127.0,127.0,127.0,-127.0,-74.0,82.0
127.0,125.0,128.0,127.0,127.0,126.0,131.0,129.0,-1.0,109.0,-68.0,127.0,127.0,127.0,-127.0,-74.0,82.0
127.0,125.0,129.0,127.0,127.0,126.0,131.0,129.0,-1.0,109.0,-68.0,127.0,127.0,127.0,-127.0,-74.0,82.0
127.0,126.0,128.0,127.0,126.0,126.0,132.0,128.0,-1.0,109.0,-68.0,127.0,127.0,127.0,-127.0,-74.0,82.0
127.0,126.0,128.0,127.0,127.0,126.0,132.0,128.0,-1.0,109.0,-68.0,127.0,127.0,127.0,-127.0,-74.0,82.0
127.0,126.0,128.0,127.0,127.0,126.0,132.0,128.0,-1.0,109.0,-68.0,127.0,127.0,127.0,-127.0,-74.0,82.0
127.0,126.0,129.0,127.0,126.0,125.0,131.0,128.0,-1.0,109.0,-69.0,127.0,127.0,127.0,-127.0,-74.0,82.0
127.0,126.0,129.0,127.0,126.0,125.0,131.0,128.0,-1.0,109.0,-69.0,127.0,127.0,127.0,-127.0,-74.0,82.0
127.0,125.0,129.0,127.0,127.0,125.0,131.0,128.0,-1.0,109.0,-69.0,127.0,127.0,127.0,-127.0,-74.0,82.0
127.0,125.0,129.0,127.0,127.0,125.0,131.0,128.0,-1.0,109.0,-69.0,127.0,127.0,127.0,-127.0,-74.0,82.0
127.0,125.0,129.0,127.0,127.0,125.0,131.0,128.0,-1.0,109.0,-69.0,127.0,127.0,127.0,-127.0,-74.0,82.0
127.0,125.0,130.0,127.0,127.0,125.0,131.0,128.0,-1.0,109.0,-69.0,127.0,127.0,127.0,-127.0,-74.0,82.0
126.0,126.0,129.0,127.0,126.0,125.0,132.0,128.0,-1.0,109.0,-69.0,127.0,127.0,127.0,-127.0,-74.0,82.0
126.0,126.0,129.0,127.0,126.0,125.0,132.0,128.0,-1.0,109.0,-69.0,127.0,127.0,127.0,-127.0,-74.0,82.0
126.0,126.0,129.0,127.0,126.0,125.0,132.0,128.0,-1.0,109.0,-69.0,127.0,127.0,127.0,-127.0,-74.0,82.0
126.0,126.0,129.0,127.0,126.0,125.0,132.0,128.0,-1.0,109.0,-69.0,127.0,127.0,127.0,-127.0,-74.0,82.0
127.0,126.0,128.0,127.0,126.0,126.0,132.0,128.0,-1.0,109.0,-69.0,127.0,127.0,127.0,-127.0,-74.0,82.0
127.0,126.0,128.0,127.0,126.0,125.0,131.0,128.0,-1.0,109.0,-69.0,127.0,127.0,127.0,-127.0,-74.0,82.0
127.0,126.0,128.0,127.0,126.0,126.0,131.0,129.0,-1.0,109.0,-69.0,127.0,127.0,127.0,-127.0,-74.0,82.0
127.0,126.0,129.0,127.0,126.0,126.0,131.0,129.0,-1.0,109.0,-69.0,127.0,127.0,127.0,-127.0,-74.0,82.0
127.0,125.0,129.0,127.0,126.0,126.0,131.0,129.0,-1.0,109.0,-69.0,127.0,127.0,127.0,-127.0,-74.0,82.0
127.0,126.0,128.0,127.0,126.0,125.0,132.0,128.0,-1.0,109.0,-69.0,127.0,127.0,127.0,-127.0,-74.0,82.0
127.0,126.0,128.0,127.0,125.0,125.0,132.0,128.0,-1.0,109.0,-69.0,127.0,127.0,127.0,-127.0,-74.0,82.0
127.0,126.0,128.0,127.0,126.0,126.0,132.0,128.0,-1.0,109.0,-69.0,127.0,127.0,127.0,-127.0,-74.0,82.0
127.0,126.0,128.0,127.0,126.0,125.0,132.0,128.0,-1.0,109.0,-69.0,127.0,127.0,127.0,-127.0,-74.0,82.0
127.0,126.0,128.0,127.0,126.0,125.0,132.0,128.0,-1.0,109.0,-69.0,127.0,127.0,127.0,-127.0,-74.0,82.0
126.0,127.0,128.0,127.0,125.0,125.0,127.0,128.0,-1.0,109.0,-69.0,127.0,127.0,127.0,-127.0,-74.0,82.0
126.0,128.0,128.0,127.0,125.0,126.0,127.0,129.0,-1.0,109.0,-69.0,127.0,127.0,127.0,-127.0,-74.0,82.0
126.0,128.0,128.0,127.0,125.0,126.0,126.0,129.0,-1.0,109.0,-69.0,127.0,127.0,127.0,-127.0,-74.0,82.0
126.0,127.0,129.0,127.0,126.0,126.0,126.0,129.0,-1.0,109.0,-69.0,127.0,127.0,127.0,-127.0,-74.0,82.0
126.0,128.0,128.0,127.0,125.0,125.0,128.0,128.0,-1.0,109.0,-69.0,127.0,127.0,127.0,-127.0,-74.0,82.0
126.0,128.0,128.0,127.0,125.0,125.0,128.0,128.0,-1.0,109.0,-69.0,127.0,127.0,127.0,-127.0,-74.0,82.0
126.0,128.0,128.0,127.0,125.0,125.0,128.0,128.0,-1.0,109.0,-69.0,127.0,127.0,127.0,-127.0,-74.0,82.0
126.0,128.0,128.0,127.0,125.0,125.0,128.0,128.0,-1.0,109.0,-69.0,127.0,127.0,127.0,-127.0,-74.0,82.0
126.0,128.0,128.0,127.0,125.0,125.0,128.0,128.0,-1.0,109.0,-69.0,127.0,127.0,127.0,-127.0,-74.0,82.0
126.0,128.0,128.0,127.0,125.0,125.0,127.0,128.0,-1.0,109.0,-69.0,127.0,127.0,127.0,-127.0,-74.0,82.0
127.0,127.0,127.0,127.0,125.0,126.0,123.0,128.0,-1.0,110.0,-68.0,127.0,127.0,127.0,-127.0,-74.0,82.0
127.0,127.0,127.0,127.0,125.0,126.0,123.0,128.0,-1.0,110.0,-68.0,127.0,127.0,127.0,-127.0,-74.0,82.0
126.0,127.0,128.0,127.0,125.0,126.0,123.0,128.0,-1.0,110.0,-68.0,127.0,127.0,127.0,-127.0,-74.0,82.0
127.0,126.0,128.0,127.0,125.0,126.0,123.0,128.0,-1.0,110.0,-68.0,127.0,127.0,127.0,-127.0,-74.0,82.0
127.0,127.0,127.0,127.0,124.0,125.0,124.0,128.0,-1.0,110.0,-68.0,127.0,127.0,127.0,-127.0,-74.0,82.0
127.0,127.0,127.0,127.0,124.0,125.0,124.0,128.0,-1.0,110.0,-68.0,127.0,127.0,127.0,-127.0,-74.0,82.0
127.0,127.0,127.0,127.0,124.0,125.0,124.0,128.0,-1.0,110.0,-68.0,127.0,127.0,127.0,-127.0,-74.0,82.0
127.0,127.0,127.0,127.0,124.0,125.0,124.0,128.0,-1.0,110.0,-68.0,127.0,127.0,127.0,-127.0,-74.0,82.0
127.0,127.0,127.0,127.0,124.0,126.0,123.0,128.0,-1.0,110.0,-68.0,127.0,127.0,127.0,-127.0,-74.0,82.0
127.0,127.0,127.0,127.0,125.0,126.0,123.0,128.0,-1.0,110.0,-68.0,127.0,127.0,127.0,-127.0,-74.0,82.0
127.0,127.0,126.0,127.0,125.0,126.0,123.0,128.0,-1.0,110.0,-68.0,127.0,127.0,127.0,-127.0,-74.0,82.0
127.0,127.0,126.0,127.0,126.0,126.0,123.0,129.0,-1.0,110.0,-68.0,127.0,127.0,127.0,-127.0,-74.0,82.0
127.0,127.0,126.0,127.0,126.0,126.0,123.0,129.0,-1.0,110.0,-68.0,127.0,127.0,127.0,-127.0,-74.0,82.0
126.0,128.0,125.0,127.0,125.0,126.0,123.0,128.0,-1.0,110.0,-68.0,127.0,127.0,127.0,-127.0,-74.0,82.0
126.0,128.0,125.0,127.0,125.0,126.0,123.0,128.0,-1.0,110.0,-68.0,127.0,127.0,127.0,-127.0,-74.0,82.0
127.0,128.0,125.0,127.0,125.0,126.0,123.0,128.0,-1.0,110.0,-68.0,127.0,127.0,127.0,-127.0,-74.0,82.0
127.0,127.0,126.0,127.0,125.0,126.0,123.0,128.0,-1.0,110.0,-68.0,127.0,127.0,127.0,-127.0,-74.0,82.0
127.0,127.0,126.0,127.0,125.0,126.0,123.0,128.0,-1.0,110.0,-68.0,127.0,127.0,127.0,-127.0,-74.0,82.0
127.0,127.0,126.0,127.0,125.0,126.0,123.0,128.0,-1.0,110.0,-68.0,127.0,127.0,127.0,-127.0,-74.0,82.0
127.0,127.0,126.0,127.0,125.0,126.0,123.0,128.0,-1.0,110.0,-68.0,127.0,127.0,127.0,-127.0,-74.0,82.0
127.0,127.0,127.0,127.0,125.0,127.0,130.0,129.0,-1.0,110.0,-68.0,127.0,127.0,127.0,-127.0,-74.0,82.0
126.0,127.0,127.0,127.0,126.0,127.0,130.0,129.0,-1.0,110.0,-68.0,127.0,127.0,127.0,-127.0,-74.0,82.0
127.0,128.0,126.0,127.0,125.0,126.0,130.0,129.0,-1.0,110.0,-68.0,127.0,127.0,127.0,-127.0,-74.0,82.0
127.0,128.0,126.0,127.0,125.0,126.0,130.0,128.0,-1.0,110.0,-68.0,127.0,127.0,127.0,-127.0,-74.0,82.0
127.0,128.0,126.0,127.0,125.0,126.0,130.0,129.0,-1.0,110.0,-68.0,127.0,127.0,127.0,-127.0,-74.0,82.0
127.0,128.0,126.0,127.0,125.0,126.0,130.0,129.0,-1.0,110.0,-68.0,127.0,127.0,127.0,-127.0,-74.0,82.0
127.0,128.0,126.0,127.0,125.0,127.0,130.0,129.0,-1.0,110.0,-68.0,127.0,127.0,127.0,-127.0,-74.0,82.0
127.0,128.0,126.0,127.0,125.0,127.0,130.0,129.0,-1.0,110.0,-68.0,127.0,127.0,127.0,-127.0,-74.0,82.0
127.0,128.0,126.0,127.0,125.0,127.0,130.0,129.0,-1.0,110.0,-68.0,127.0,127.0,127.0,-127.0,-74.0,82.0
127.0,128.0,127.0,127.0,125.0,127.0,130.0,129.0,-1.0,110.0,-68.0,127.0,127.0,127.0,-127.0,-74.0,82.0
126.0,127.0,126.0,127.0,124.0,126.0,134.0,127.0,-1.0,110.0,-68.0,127.0,127.0,127.0,-127.0,-74.0,82.0
126.0,127.0,126.0,127.0,124.0,126.0,134.0,127.0,-1.0,110.0,-68.0,127.0,127.0,127.0,-127.0,-74.0,82.0
126.0,127.0,126.0,127.0,124.0,126.0,134.0,127.0,-1.0,110.0,-68.0,127.0,127.0,127.0,-127.0,-74.0,82.0
126.0,127.0,126.0,127.0,124.0,126.0,134.0,127.0,-1.0,110.0,-68.0,127.0,127.0,127.0,-127.0,-74.0,82.0
126.0,127.0,126.0,127.0,124.0,126.0,134.0,127.0,-1.0,110.0,-68.0,127.0,127.0,127.0,-127.0,-74.0,82.0
126.0,127.0,126.0,127.0,124.0,126.0,134.0,127.0,-1.0,110.0,-68.0,127.0,127.0,127.0,-127.0,-74.0,82.0
126.0,127.0,126.0,127.0,124.0,126.0,134.0,127.0,-1.0,110.0,-68.0,127.0,127.0,127.0,-127.0,-74.0,82.0
126.0,127.0,126.0,127.0,124.0,126.0,133.0,127.0,-1.0,110.0,-68.0,127.0,127.0,127.0,-127.0,-74.0,82.0
126.0,127.0,126.0,127.0,124.0,126.0,133.0,127.0,-1.0,110.0,-68.0,127.0,127.0,127.0,-127.0,-74.0,82.0
126.0,127.0,126.0,127.0,125.0,126.0,133.0,127.0,-1.0,110.0,-68.0,127.0,127.0,127.0,-127.0,-74.0,82.0
127.0,127.0,124.0,127.0,124.0,126.0,135.0,127.0,-1.0,110.0,-68.0,127.0,127.0,127.0,-127.0,-74.0,82.0
127.0,127.0,124.0,127.0,124.0,126.0,135.0,127.0,-1.0,110.0,-68.0,127.0,127.0,127.0,-127.0,-74.0,82.0
127.0,127.0,124.0,127.0,124.0,126.0,135.0,127.0,-1.0,110.0,-68.0,127.0,127.0,127.0,-127.0,-74.0,82.0
127.0,126.0,124.0,127.0,125.0,126.0,135.0,128.0,-1.0,110.0,-68.0,127.0,127.0,127.0,-127.0,-74.0,82.0
127.0,126.0,124.0,127.0,125.0,126.0,135.0,127.0,-1.0,110.0,-68.0,127.0,127.0,127.0,-127.0,-74.0,82.0
127.0,126.0,124.0,127.0,125.0,126.0,135.0,127.0,-1.0,110.0,-68.0,127.0,127.0,127.0,-127.0,-74.0,82.0
127.0,126.0,124.0,127.0,125.0,126.0,135.0,128.0,-1.0,110.0,-68.0,127.0,127.0,127.0,-127.0,-74.0,82.0
127.0,126.0,124.0,127.0,125.0,127.0,135.0,128.0,-1.0,110.0,-68.0,127.0,127.0,127.0,-127.0,-74.0,82.0
127.0,126.0,124.0,127.0,125.0,127.0,135.0,128.0,-1.0,110.0,-68.0,127.0,127.0,127.0,-127.0,-74.0,82.0
127.0,126.0,124.0,127.0,125.0,127.0,135.0,128.0,-1.0,110.0,-68.0,127.0,127.0,127.0,-127.0,-74.0,82.0
127.0,128.0,123.0,127.0,125.0,127.0,137.0,127.0,-1.0,109.0,-68.0,127.0,127.0,127.0,-127.0,-74.0,82.0
127.0,128.0,123.0,127.0,125.0,127.0,137.0,128.0,-1.0,109.0,-68.0,127.0,127.0,127.0,-127.0,-74.0,82.0
127.0,127.0,123.0,127.0,125.0,127.0,137.0,127.0,-1.0,109.0,-68.0,127.0,127.0,127.0,-127.0,-74.0,82.0
127.0,127.0,123.0,127.0,125.0,127.0,137.0,127.0,-1.0,109.0,-68.0,127.0,127.0,127.0,-127.0,-74.0,82.0
126.0,127.0,124.0,127.0,125.0,127.0,137.0,128.0,-1.0,109.0,-68.0,127.0,127.0,127.0,-127.0,-74.0,82.0
126.0,127.0,124.0,127.0,125.0,127.0,137.0,128.0,-1.0,109.0,-68.0,127.0,127.0,127.0,-127.0,-74.0,82.0
127.0,127.0,124.0,127.0,125.0,127.0,136.0,128.0,-1.0,109.0,-68.0,127.0,127.0,127.0,-127.0,-74.0,82.0
127.0,127.0,124.0,127.0,125.0,127.0,136.0,128.0,-1.0,109.0,-68.0,127.0,127.0,127.0,-127.0,-74.0,82.0
127.0,128.0,123.0,127.0,124.0,127.0,138.0,128.0,-1.0,109.0,-68.0,127.0,127.0,127.0,-127.0,-74.0,82.0
127.0,128.0,123.0,127.0,125.0,127.0,137.0,128.0,-1.0,109.0,-68.0,127.0,127.0,127.0,-127.0,-74.0,82.0
126.0,128.0,122.0,127.0,125.0,126.0,135.0,127.0,-1.0,109.0,-68.0,127.0,127.0,127.0,-127.0,-74.0,82.0
126.0,128.0,122.0,127.0,125.0,126.0,135.0,128.0,-1.0,109.0,-68.0,127.0,127.0,127.0,-127.0,-74.0,82.0
126.0,127.0,122.0,127.0,125.0,126.0,135.0,127.0,-1.0,109.0,-68.0,127.0,127.0,127.0,-127.0,-74.0,82.0
126.0,127.0,122.0,127.0,125.0,126.0,134.0,128.0,-1.0,109.0,-68.0,127.0,127.0,127.0,-127.0,-74.0,82.0
126.0,127.0,122.0,127.0,125.0,126.0,134.0,128.0,-1.0,109.0,-68.0,127.0,127.0,127.0,-127.0,-74.0,82.0
126.0,127.0,122.0,127.0,125.0,126.0,134.0,128.0,-1.0,109.0,-68.0,127.0,127.0,127.0,-127.0,-74.0,82.0
127.0,127.0,122.0,127.0,125.0,127.0,134.0,128.0,-1.0,109.0,-68.0,127.0,127.0,127.0,-127.0,-74.0,82.0
126.0,128.0,122.0,127.0,125.0,126.0,135.0,127.0,-1.0,109.0,-68.0,127.0,127.0,127.0,-127.0,-74.0,82.0
126.0,128.0,122.0,127.0,125.0,126.0,135.0,127.0,-1.0,109.0,-68.0,127.0,127.0,127.0,-127.0,-74.0,82.0
126.0,128.0,121.0,127.0,125.0,126.0,135.0,127.0,-1.0,109.0,-68.0,127.0,127.0,127.0,-127.0,-74.0,82.0
127.0,128.0,124.0,127.0,125.0,126.0,135.0,128.0,-1.0,109.0,-67.0,127.0,127.0,127.0,-127.0,-74.0,82.0
127.0,128.0,123.0,127.0,125.0,126.0,135.0,128.0,-1.0,109.0,-67.0,127.0,127.0,127.0,-127.0,-74.0,82.0
126.0,128.0,124.0,127.0,125.0,127.0,135.0,128.0,-1.0,109.0,-67.0,127.0,127.0,127.0,-127.0,-74.0,82.0
127.0,128.0,124.0,127.0,125.0,127.0,135.0,128.0,-1.0,109.0,-67.0,127.0,127.0,127.0,-127.0,-74.0,82.0
127.0,128.0,124.0,127.0,125.0,127.0,135.0,128.0,-1.0,109.0,-67.0,127.0,127.0,127.0,-127.0,-74.0,82.0
127.0,128.0,124.0,127.0,125.0,127.0,135.0,128.0,-1.0,109.0,-67.0,127.0,127.0,127.0,-127.0,-74.0,82.0
127.0,129.0,123.0,127.0,124.0,127.0,135.0,128.0,-1.0,109.0,-67.0,127.0,127.0,127.0,-127.0,-74.0,82.0
127.0,129.0,123.0,127.0,124.0,127.0,135.0,128.0,-1.0,109.0,-67.0,127.0,127.0,127.0,-127.0,-74.0,82.0
127.0,128.0,123.0,127.0,125.0,126.0,135.0,128.0,-1.0,109.0,-67.0,127.0,127.0,127.0,-127.0,-74.0,82.0
127.0,128.0,123.0,127.0,125.0,126.0,135.0,128.0,-1.0,109.0,-67.0,127.0,127.0,127.0,-127.0,-74.0,82.0
126.0,128.0,124.0,127.0,125.0,127.0,134.0,127.0,-1.0,109.0,-67.0,127.0,127.0,127.0,-127.0,-74.0,82.0
127.0,128.0,124.0,127.0,125.0,127.0,134.0,127.0,-1.0,109.0,-67.0,127.0,127.0,127.0,-127.0,-74.0,82.0
127.0,128.0,124.0,127.0,126.0,127.0,133.0,127.0,-1.0,109.0,-67.0,127.0,127.0,127.0,-127.0,-74.0,82.0
127.0,128.0,124.0,127.0,126.0,127.0,133.0,127.0,-1.0,109.0,-67.0,127.0,127.0,127.0,-127.0,-74.0,82.0
127.0,128.0,124.0,127.0,126.0,127.0,133.0,128.0,-1.0,109.0,-67.0,127.0,127.0,127.0,-127.0,-74.0,82.0
126.0,129.0,124.0,127.0,125.0,127.0,134.0,127.0,-1.0,109.0,-67.0,127.0,127.0,127.0,-127.0,-74.0,82.0
126.0,129.0,124.0,127.0,125.0,126.0,134.0,127.0,-1.0,109.0,-67.0,127.0,127.0,127.0,-127.0,-74.0,82.0
126.0,129.0,124.0,127.0,125.0,126.0,134.0,127.0,-1.0,109.0,-67.0,127.0,127.0,127.0,-127.0,-74.0,82.0
126.0,128.0,124.0,127.0,125.0,126.0,134.0,127.0,-1.0,109.0,-67.0,127.0,127.0,127.0,-127.0,-74.0,82.0
126.0,128.0,124.0,127.0,125.0,126.0,134.0,127.0,-1.0,109.0,-67.0,127.0,127.0,127.0,-127.0,-74.0,82.0
126.0,129.0,123.0,127.0,125.0,127.0,130.0,127.0,-1.0,109.0,-66.0,127.0,127.0,127.0,-127.0,-74.0,82.0
126.0,129.0,124.0,127.0,125.0,127.0,130.0,127.0,-1.0,109.0,-66.0,127.0,127.0,127.0,-127.0,-74.0,82.0
127.0,129.0,124.0,127.0,125.0,127.0,130.0,127.0,-1.0,109.0,-66.0,127.0,127.0,127.0,-127.0,-74.0,82.0
126.0,129.0,124.0,127.0,125.0,127.0,129.0,127.0,-1.0,109.0,-66.0,127.0,127.0,127.0,-127.0,-74.0,82.0
127.0,130.0,123.0,127.0,124.0,127.0,131.0,127.0,-1.0,109.0,-66.0,127.0,127.0,127.0,-127.0,-74.0,82.0
127.0,130.0,123.0,127.0,124.0,127.0,131.0,127.0,-1.0,109.0,-66.0,127.0,127.0,127.0,-127.0,-74.0,82.0
126.0,129.0,123.0,127.0,125.0,127.0,131.0,127.0,-1.0,109.0,-66.0,127.0,127.0,127.0,-127.0,-74.0,82.0
126.0,129.0,123.0,127.0,125.0,127.0,131.0,127.0,-1.0,109.0,-66.0,127.0,127.0,127.0,-127.0,-74.0,82.0
126.0,129.0,123.0,127.0,125.0,127.0,131.0,127.0,-1.0,109.0,-66.0,127.0,127.0,127.0,-127.0,-74.0,82.0
126.0,129.0,123.0,127.0,125.0,127.0,130.0,127.0,-1.0,109.0,-66.0,127.0,127.0,127.0,-127.0,-74.0,82.0
127.0,129.0,121.0,127.0,125.0,128.0,123.0,126.0,-1.0,109.0,-65.0,127.0,127.0,127.0,-127.0,-74.0,82.0
127.0,129.0,121.0,127.0,125.0,128.0,123.0,126.0,-1.0,109.0,-65.0,127.0,127.0,127.0,-127.0,-74.0,82.0
127.0,129.0,121.0,127.0,125.0,128.0,123.0,127.0,-1.0,109.0,-65.0,127.0,127.0,127.0,-127.0,-74.0,82.0
126.0,130.0,121.0,127.0,124.0,127.0,124.0,126.0,-1.0,109.0,-65.0,127.0,127.0,127.0,-127.0,-74.0,82.0
126.0,129.0,121.0,127.0,124.0,127.0,124.0,126.0,-1.0,109.0,-65.0,127.0,127.0,127.0,-127.0,-74.0,82.0
126.0,129.0,120.0,127.0,124.0,127.0,124.0,126.0,-1.0,109.0,-65.0,127.0,127.0,127.0,-127.0,-74.0,82.0
126.0,130.0,120.0,127.0,124.0,128.0,124.0,126.0,-1.0,109.0,-65.0,127.0,127.0,127.0,-127.0,-74.0,82.0
127.0,129.0,120.0,127.0,124.0,128.0,124.0,126.0,-1.0,109.0,-65.0,127.0,127.0,127.0,-127.0,-74.0,82.0
127.0,129.0,120.0,127.0,124.0,128.0,124.0,126.0,-1.0,109.0,-65.0,127.0,127.0,127.0,-127.0,-74.0,82.0
127.0,129.0,120.0,127.0,125.0,128.0,124.0,126.0,-1.0,109.0,-65.0,127.0,127.0,127.0,-127.0,-74.0,82.0
127.0,129.0,122.0,127.0,124.0,128.0,123.0,126.0,-1.0,109.0,-64.0,127.0,127.0,127.0,-127.0,-74.0,82.0
127.0,129.0,122.0,127.0,124.0,128.0,122.0,127.0,-1.0,109.0,-64.0,127.0,127.0,127.0,-127.0,-74.0,82.0
127.0,130.0,121.0,127.0,124.0,128.0,123.0,126.0,-1.0,109.0,-64.0,127.0,127.0,127.0,-127.0,-74.0,82.0
127.0,130.0,121.0,127.0,124.0,128.0,123.0,126.0,-1.0,109.0,-64.0,127.0,127.0,127.0,-127.0,-74.0,82.0
127.0,130.0,121.0,127.0,124.0,128.0,123.0,126.0,-1.0,109.0,-64.0,127.0,127.0,127.0,-127.0,-74.0,82.0
127.0,130.0,121.0,127.0,124.0,128.0,123.0,126.0,-1.0,109.0,-64.0,127.0,127.0,127.0,-127.0,-74.0,82.0
127.0,130.0,121.0,127.0,124.0,128.0,123.0,126.0,-1.0,109.0,-64.0,127.0,127.0,127.0,-127.0,-74.0,82.0
127.0,130.0,121.0,127.0,124.0,128.0,123.0,126.0,-1.0,109.0,-64.0,127.0,127.0,127.0,-127.0,-74.0,82.0
127.0,130.0,122.0,127.0,124.0,128.0,123.0,126.0,-1.0,109.0,-64.0,127.0,127.0,127.0,-127.0,-74.0,82.0
126.0,129.0,122.0,127.0,124.0,128.0,123.0,126.0,-1.0,109.0,-64.0,127.0,127.0,127.0,-127.0,-74.0,82.0
127.0,129.0,124.0,127.0,127.0,126.0,122.0,126.0,-1.0,109.0,-65.0,127.0,127.0,127.0,-127.0,-74.0,82.0
126.0,130.0,123.0,127.0,125.0,126.0,123.0,126.0,-1.0,109.0,-65.0,127.0,127.0,127.0,-127.0,-74.0,82.0
126.0,130.0,123.0,127.0,125.0,126.0,123.0,126.0,-1.0,109.0,-65.0,127.0,127.0,127.0,-127.0,-74.0,82.0
126.0,129.0,123.0,127.0,126.0,126.0,123.0,126.0,-1.0,109.0,-65.0,127.0,127.0,127.0,-127.0,-74.0,82.0
126.0,129.0,124.0,127.0,126.0,126.0,123.0,126.0,-1.0,109.0,-65.0,127.0,127.0,127.0,-127.0,-74.0,82.0
126.0,129.0,124.0,127.0,126.0,126.0,123.0,126.0,-1.0,109.0,-65.0,127.0,127.0,127.0,-127.0,-74.0,82.0
126.0,129.0,124.0,127.0,126.0,126.0,123.0,126.0,-1.0,109.0,-65.0,127.0,127.0,127.0,-127.0,-74.0,82.0
126.0,129.0,124.0,127.0,126.0,126.0,123.0,126.0,-1.0,109.0,-65.0,127.0,127.0,127.0,-127.0,-74.0,82.0
126.0,129.0,124.0,127.0,126.0,126.0,123.0,126.0,-1.0,109.0,-65.0,127.0,127.0,127.0,-127.0,-74.0,82.0
127.0,129.0,124.0,127.0,126.0,126.0,122.0,126.0,-1.0,109.0,-65.0,127.0,127.0,127.0,-127.0,-74.0,82.0
127.0,128.0,125.0,127.0,127.0,126.0,124.0,126.0,-1.0,109.0,-65.0,127.0,127.0,127.0,-127.0,-74.0,82.0
127.0,128.0,125.0,127.0,127.0,126.0,124.0,126.0,-1.0,109.0,-65.0,127.0,127.0,127.0,-127.0,-74.0,82.0
127.0,128.0,125.0,127.0,127.0,126.0,124.0,126.0,-1.0,109.0,-65.0,127.0,127.0,127.0,-127.0,-74.0,82.0
127.0,128.0,125.0,127.0,127.0,126.0,124.0,126.0,-1.0,109.0,-65.0,127.0,127.0,127.0,-127.0,-74.0,82.0
127.0,128.0,125.0,127.0,127.0,126.0,124.0,126.0,-1.0,109.0,-65.0,127.0,127.0,127.0,-127.0,-74.0,82.0
126.0,128.0,125.0,127.0,127.0,126.0,124.0,126.0,-1.0,109.0,-65.0,127.0,127.0,127.0,-127.0,-74.0,82.0
127.0,128.0,125.0,127.0,127.0,126.0,124.0,126.0,-1.0,109.0,-65.0,127.0,127.0,127.0,-127.0,-74.0,82.0
127.0,128.0,126.0,127.0,127.0,126.0,124.0,127.0,-1.0,109.0,-65.0,127.0,127.0,127.0,-127.0,-74.0,82.0
127.0,128.0,126.0,127.0,128.0,126.0,124.0,127.0,-1.0,109.0,-65.0,127.0,127.0,127.0,-127.0,-74.0,82.0
127.0,128.0,126.0,127.0,128.0,126.0,124.0,127.0,-1.0,109.0,-65.0,127.0,127.0,127.0,-127.0,-74.0,82.0
127.0,127.0,127.0,127.0,127.0,126.0,126.0,127.0,-1.0,109.0,-66.0,127.0,127.0,127.0,-127.0,-74.0,82.0
127.0,127.0,127.0,127.0,127.0,126.0,126.0,127.0,-1.0,109.0,-66.0,127.0,127.0,127.0,-127.0,-74.0,82.0
127.0,127.0,127.0,127.0,127.0,126.0,126.0,127.0,-1.0,109.0,-66.0,127.0,127.0,127.0,-127.0,-74.0,82.0
127.0,127.0,127.0,127.0,127.0,126.0,126.0,127.0,-1.0,109.0,-66.0,127.0,127.0,127.0,-127.0,-74.0,82.0
127.0,127.0,127.0,127.0,128.0,126.0,125.0,127.0,-1.0,109.0,-66.0,127.0,127.0,127.0,-127.0,-74.0,82.0
127.0,127.0,127.0,127.0,128.0,126.0,125.0,127.0,-1.0,109.0,-66.0,127.0,127.0,127.0,-127.0,-74.0,82.0
127.0,127.0,127.0,127.0,128.0,126.0,125.0,127.0,-1.0,109.0,-66.0,127.0,127.0,127.0,-127.0,-74.0,82.0
127.0,126.0,127.0,127.0,128.0,126.0,125.0,127.0,-1.0,109.0,-66.0,127.0,127.0,127.0,-127.0,-74.0,82.0
127.0,126.0,127.0,127.0,128.0,126.0,125.0,127.0,-1.0,109.0,-66.0,127.0,127.0,127.0,-127.0,-74.0,82.0
127.0,127.0,127.0,127.0,127.0,126.0,126.0,127.0,-1.0,109.0,-66.0,127.0,127.0,127.0,-127.0,-74.0,82.0
127.0,127.0,127.0,127.0,127.0,126.0,125.0,128.0,-1.0,108.0,-67.0,127.0,127.0,127.0,-127.0,-74.0,82.0
127.0,126.0,127.0,127.0,127.0,126.0,125.0,128.0,-1.0,108.0,-67.0,127.0,127.0,127.0,-127.0,-74.0,82.0
127.0,126.0,127.0,127.0,127.0,126.0,125.0,127.0,-1.0,108.0,-67.0,127.0,127.0,127.0,-127.0,-74.0,82.0
127.0,126.0,127.0,127.0,127.0,126.0,125.0,128.0,-1.0,108.0,-67.0,127.0,127.0,127.0,-127.0,-74.0,82.0
127.0,126.0,127.0,127.0,127.0,126.0,125.0,128.0,-1.0,108.0,-67.0,127.0,127.0,127.0,-127.0,-74.0,82.0
127.0,126.0,127.0,127.0,127.0,126.0,125.0,128.0,-1.0,108.0,-67.0,127.0,127.0,127.0,-127.0,-74.0,82.0
127.0,126.0,127.0,127.0,128.0,126.0,125.0,128.0,-1.0,108.0,-67.0,127.0,127.0,127.0,-127.0,-74.0,82.0
127.0,126.0,128.0,127.0,128.0,126.0,125.0,128.0,-1.0,108.0,-67.0,127.0,127.0,127.0,-127.0,-74.0,82.0
127.0,127.0,127.0,127.0,127.0,126.0,125.0,128.0,-1.0,108.0,-67.0,127.0,127.0,127.0,-127.0,-74.0,82.0
127.0,127.0,127.0,127.0,127.0,126.0,125.0,127.0,-1.0,108.0,-67.0,127.0,127.0,127.0,-127.0,-74.0,82.0
126.0,126.0,127.0,127.0,127.0,126.0,127.0,128.0,-1.0,108.0,-68.0,127.0,127.0,127.0,-127.0,-74.0,82.0
126.0,126.0,127.0,127.0,127.0,126.0,127.0,128.0,-1.0,108.0,-68.0,127.0,127.0,127.0,-127.0,-74.0,82.0
126.0,126.0,127.0,127.0,127.0,126.0,127.0,128.0,-1.0,108.0,-68.0,127.0,127.0,127.0,-127.0,-74.0,82.0
126.0,126.0,127.0,127.0,127.0,126.0,127.0,128.0,-1.0,108.0,-68.0,127.0,127.0,127.0,-127.0,-74.0,82.0
126.0,125.0,127.0,127.0,127.0,126.0,127.0,128.0,-1.0,108.0,-68.0,127.0,127.0,127.0,-127.0,-74.0,82.0
126.0,125.0,127.0,127.0,127.0,126.0,127.0,128.0,-1.0,108.0,-68.0,127.0,127.0,127.0,-127.0,-74.0,82.0
126.0,125.0,128.0,127.0,128.0,126.0,127.0,128.0,-1.0,108.0,-68.0,127.0,127.0,127.0,-127.0,-74.0,82.0
126.0,126.0,127.0,127.0,127.0,126.0,127.0,128.0,-1.0,108.0,-68.0,127.0,127.0,127.0,-127.0,-74.0,82.0
126.0,126.0,127.0,127.0,127.0,125.0,127.0,128.0,-1.0,108.0,-68.0,127.0,127.0,127.0,-127.0,-74.0,82.0
126.0,126.0,127.0,127.0,127.0,126.0,127.0,128.0,-1.0,108.0,-68.0,127.0,127.0,127.0,-127.0,-74.0,82.0
127.0,126.0,128.0,127.0,126.0,126.0,128.0,129.0,-1.0,108.0,-69.0,127.0,127.0,127.0,-127.0,-74.0,82.0
127.0,126.0,128.0,127.0,126.0,126.0,128.0,129.0,-1.0,108.0,-69.0,127.0,127.0,127.0,-127.0,-74.0,82.0
127.0,126.0,128.0,127.0,127.0,126.0,128.0,129.0,-1.0,108.0,-69.0,127.0,127.0,127.0,-127.0,-74.0,82.0
127.0,125.0,128.0,127.0,127.0,126.0,128.0,129.0,-1.0,108.0,-69.0,127.0,127.0,127.0,-127.0,-74.0,82.0
127.0,125.0,128.0,127.0,127.0,126.0,127.0,129.0,-1.0,108.0,-69.0,127.0,127.0,127.0,-127.0,-74.0,82.0
127.0,125.0,129.0,127.0,127.0,126.0,127.0,128.0,-1.0,108.0,-69.0,127.0,127.0,127.0,-127.0,-74.0,82.0
127.0,126.0,128.0,127.0,126.0,126.0,128.0,128.0,-1.0,108.0,-69.0,127.0,127.0,127.0,-127.0,-74.0,82.0
127.0,126.0,128.0,127.0,126.0,126.0,128.0,128.0,-1.0,108.0,-69.0,127.0,127.0,127.0,-127.0,-74.0,82.0
127.0,126.0,128.0,127.0,126.0,126.0,128.0,128.0,-1.0,108.0,-69.0,127.0,127.0,127.0,-127.0,-74.0,82.0
127.0,126.0,128.0,127.0,126.0,126.0,128.0,128.0,-1.0,108.0,-69.0,127.0,127.0,127.0,-127.0,-74.0,82.0
127.0,125.0,128.0,127.0,126.0,126.0,129.0,127.0,-1.0,108.0,-69.0,127.0,127.0,127.0,-127.0,-74.0,82.0
127.0,125.0,129.0,127.0,127.0,126.0,128.0,127.0,-1.0,108.0,-69.0,127.0,127.0,127.0,-127.0,-74.0,82.0
127.0,125.0,129.0,127.0,127.0,126.0,128.0,127.0,-1.0,108.0,-69.0,127.0,127.0,127.0,-127.0,-74.0,82.0
127.0,125.0,129.0,127.0,127.0,126.0,128.0,127.0,-1.0,108.0,-69.0,127.0,127.0,127.0,-127.0,-74.0,82.0
127.0,125.0,129.0,127.0,127.0,126.0,128.0,128.0,-1.0,108.0,-69.0,127.0,127.0,127.0,-127.0,-74.0,82.0
126.0,125.0,129.0,127.0,126.0,125.0,129.0,127.0,-1.0,108.0,-69.0,127.0,127.0,127.0,-127.0,-74.0,82.0
126.0,125.0,129.0,127.0,126.0,125.0,129.0,127.0,-1.0,108.0,-69.0,127.0,127.0,127.0,-127.0,-74.0,82.0
126.0,125.0,129.0,127.0,126.0,125.0,129.0,127.0,-1.0,108.0,-69.0,127.0,127.0,127.0,-127.0,-74.0,82.0
126.0,125.0,128.0,127.0,126.0,125.0,129.0,127.0,-1.0,108.0,-69.0,127.0,127.0,127.0,-127.0,-74.0,82.0
127.0,125.0,128.0,127.0,126.0,125.0,129.0,127.0,-1.0,108.0,-69.0,127.0,127.0,127.0,-127.0,-74.0,82.0
127.0,127.0,127.0,127.0,125.0,126.0,129.0,128.0,-1.0,109.0,-69.0,127.0,127.0,127.0,-127.0,-75.0,82.0
127.0,127.0,127.0,127.0,125.0,126.0,129.0,128.0,-1.0,109.0,-69.0,127.0,127.0,127.0,-127.0,-75.0,82.0
127.0,127.0,127.0,127.0,125.0,126.0,129.0,128.0,-1.0,109.0,-69.0,127.0,127.0,127.0,-127.0,-75.0,82.0
127.0,126.0,127.0,127.0,125.0,126.0,129.0,128.0,-1.0,109.0,-69.0,127.0,127.0,127.0,-127.0,-75.0,82.0
127.0,127.0,126.0,127.0,125.0,126.0,129.0,128.0,-1.0,109.0,-69.0,127.0,127.0,127.0,-127.0,-75.0,82.0
127.0,127.0,126.0,127.0,125.0,126.0,129.0,128.0,-1.0,109.0,-69.0,127.0,127.0,127.0,-127.0,-75.0,82.0
127.0,127.0,126.0,127.0,125.0,126.0,129.0,128.0,-1.0,109.0,-69.0,127.0,127.0,127.0,-127.0,-75.0,82.0
127.0,127.0,126.0,127.0,125.0,126.0,129.0,128.0,-1.0,109.0,-69.0,127.0,127.0,127.0,-127.0,-75.0,82.0
127.0,127.0,126.0,127.0,125.0,126.0,129.0,128.0,-1.0,109.0,-69.0,127.0,127.0,127.0,-127.0,-75.0,82.0
127.0,127.0,127.0,127.0,125.0,126.0,129.0,128.0,-1.0,109.0,-69.0,127.0,127.0,127.0,-127.0,-75.0,82.0
127.0,129.0,127.0,127.0,125.0,126.0,125.0,128.0,-1.0,109.0,-69.0,127.0,127.0,127.0,-127.0,-75.0,82.0
127.0,128.0,127.0,127.0,125.0,126.0,125.0,128.0,-1.0,109.0,-69.0,127.0,127.0,127.0,-127.0,-75.0,82.0
127.0,128.0,127.0,127.0,125.0,126.0,125.0,128.0,-1.0,109.0,-69.0,127.0,127.0,127.0,-127.0,-75.0,82.0
127.0,129.0,126.0,127.0,124.0,126.0,126.0,128.0,-1.0,109.0,-69.0,127.0,127.0,127.0,-127.0,-75.0,82.0
127.0,129.0,126.0,127.0,124.0,126.0,126.0,128.0,-1.0,109.0,-69.0,127.0,127.0,127.0,-127.0,-75.0,82.0
127.0,129.0,126.0,127.0,125.0,126.0,126.0,128.0,-1.0,109.0,-69.0,127.0,127.0,127.0,-127.0,-75.0,82.0
127.0,129.0,126.0,127.0,124.0,126.0,126.0,128.0,-1.0,109.0,-69.0,127.0,127.0,127.0,-127.0,-75.0,82.0
126.0,129.0,126.0,127.0,124.0,126.0,126.0,128.0,-1.0,109.0,-69.0,127.0,127.0,127.0,-127.0,-75.0,82.0
127.0,129.0,126.0,127.0,124.0,126.0,125.0,128.0,-1.0,109.0,-69.0,127.0,127.0,127.0,-127.0,-75.0,82.0
127.0,129.0,126.0,127.0,125.0,126.0,125.0,128.0,-1.0,109.0,-69.0,127.0,127.0,127.0,-127.0,-75.0,82.0
127.0,128.0,126.0,127.0,124.0,126.0,124.0,128.0,-1.0,110.0,-69.0,127.0,127.0,127.0,-127.0,-76.0,82.0
127.0,128.0,126.0,127.0,125.0,126.0,123.0,128.0,-1.0,110.0,-69.0,127.0,127.0,127.0,-127.0,-76.0,82.0
127.0,128.0,126.0,127.0,124.0,126.0,124.0,128.0,-1.0,110.0,-69.0,127.0,127.0,127.0,-127.0,-76.0,82.0
127.0,128.0,126.0,127.0,124.0,126.0,124.0,127.0,-1.0,110.0,-69.0,127.0,127.0,127.0,-127.0,-76.0,82.0
127.0,128.0,126.0,127.0,124.0,126.0,124.0,127.0,-1.0,110.0,-69.0,127.0,127.0,127.0,-127.0,-76.0,82.0
127.0,128.0,126.0,127.0,124.0,126.0,124.0,127.0,-1.0,110.0,-69.0,127.0,127.0,127.0,-127.0,-76.0,82.0
127.0,128.0,126.0,127.0,124.0,126.0,124.0,127.0,-1.0,110.0,-69.0,127.0,127.0,127.0,-127.0,-76.0,82.0
127.0,128.0,126.0,127.0,124.0,126.0,124.0,128.0,-1.0,110.0,-69.0,127.0,127.0,127.0,-127.0,-76.0,82.0
127.0,128.0,126.0,127.0,124.0,126.0,124.0,128.0,-1.0,110.0,-69.0,127.0,127.0,127.0,-127.0,-76.0,82.0
127.0,128.0,126.0,127.0,124.0,126.0,124.0,128.0,-1.0,110.0,-69.0,127.0,127.0,127.0,-127.0,-76.0,82.0
127.0,128.0,126.0,127.0,125.0,126.0,126.0,128.0,-1.0,110.0,-68.0,127.0,127.0,127.0,-127.0,-76.0,82.0
127.0,128.0,126.0,127.0,124.0,126.0,126.0,128.0,-1.0,110.0,-68.0,127.0,127.0,127.0,-127.0,-76.0,82.0
127.0,128.0,126.0,127.0,124.0,126.0,126.0,128.0,-1.0,110.0,-68.0,127.0,127.0,127.0,-127.0,-76.0,82.0
127.0,129.0,126.0,127.0,124.0,126.0,126.0,128.0,-1.0,110.0,-68.0,127.0,127.0,127.0,-127.0,-76.0,82.0
127.0,129.0,126.0,127.0,124.0,126.0,126.0,128.0,-1.0,110.0,-68.0,127.0,127.0,127.0,-127.0,-76.0,82.0
127.0,128.0,126.0,127.0,124.0,126.0,126.0,128.0,-1.0,110.0,-68.0,127.0,127.0,127.0,-127.0,-76.0,82.0
127.0,128.0,126.0,127.0,124.0,126.0,126.0,128.0,-1.0,110.0,-68.0,127.0,127.0,127.0,-127.0,-76.0,82.0
127.0,128.0,126.0,127.0,124.0,126.0,126.0,128.0,-1.0,110.0,-68.0,127.0,127.0,127.0,-127.0,-76.0,82.0
127.0,128.0,126.0,127.0,124.0,126.0,126.0,128.0,-1.0,110.0,-68.0,127.0,127.0,127.0,-127.0,-76.0,82.0
127.0,128.0,126.0,127.0,124.0,126.0,126.0,128.0,-1.0,110.0,-68.0,127.0,127.0,127.0,-127.0,-76.0,82.0
127.0,128.0,126.0,127.0,125.0,126.0,129.0,127.0,-1.0,110.0,-68.0,127.0,127.0,127.0,-126.0,-77.0,82.0
127.0,128.0,126.0,127.0,125.0,126.0,129.0,127.0,-1.0,110.0,-68.0,127.0,127.0,127.0,-126.0,-77.0,82.0
127.0,129.0,126.0,127.0,125.0,126.0,129.0,127.0,-1.0,110.0,-68.0,127.0,127.0,127.0,-126.0,-77.0,82.0
127.0,129.0,126.0,127.0,125.0,126.0,129.0,127.0,-1.0,110.0,-68.0,127.0,127.0,127.0,-126.0,-77.0,82.0
127.0,129.0,126.0,127.0,125.0,126.0,130.0,127.0,-1.0,110.0,-68.0,127.0,127.0,127.0,-126.0,-77.0,82.0
127.0,129.0,127.0,127.0,125.0,126.0,130.0,127.0,-1.0,110.0,-68.0,127.0,127.0,127.0,-126.0,-77.0,82.0
127.0,129.0,127.0,127.0,125.0,126.0,129.0,127.0,-1.0,110.0,-68.0,127.0,127.0,127.0,-126.0,-77.0,82.0
127.0,129.0,127.0,127.0,125.0,126.0,130.0,127.0,-1.0,110.0,-68.0,127.0,127.0,127.0,-126.0,-77.0,82.0
127.0,128.0,127.0,127.0,125.0,126.0,130.0,127.0,-1.0,110.0,-68.0,127.0,127.0,127.0,-126.0,-77.0,82.0
127.0,128.0,127.0,127.0,125.0,126.0,129.0,127.0,-1.0,110.0,-68.0,127.0,127.0,127.0,-126.0,-77.0,82.0
126.0,128.0,126.0,127.0,124.0,126.0,134.0,127.0,-1.0,110.0,-68.0,127.0,127.0,127.0,-126.0,-77.0,82.0
126.0,128.0,126.0,127.0,124.0,126.0,134.0,127.0,-1.0,110.0,-68.0,127.0,127.0,127.0,-126.0,-77.0,82.0
126.0,128.0,126.0,127.0,124.0,126.0,134.0,127.0,-1.0,110.0,-68.0,127.0,127.0,127.0,-126.0,-77.0,82.0
126.0,128.0,126.0,127.0,125.0,126.0,135.0,127.0,-1.0,110.0,-68.0,127.0,127.0,127.0,-126.0,-77.0,82.0
126.0,127.0,126.0,127.0,125.0,126.0,135.0,127.0,-1.0,110.0,-68.0,127.0,127.0,127.0,-126.0,-77.0,82.0
126.0,127.0,126.0,127.0,125.0,126.0,135.0,127.0,-1.0,110.0,-68.0,127.0,127.0,127.0,-126.0,-77.0,82.0
126.0,127.0,126.0,127.0,125.0,126.0,135.0,127.0,-1.0,110.0,-68.0,127.0,127.0,127.0,-126.0,-77.0,82.0
126.0,127.0,126.0,127.0,125.0,126.0,135.0,127.0,-1.0,110.0,-68.0,127.0,127.0,127.0,-126.0,-77.0,82.0
126.0,127.0,126.0,127.0,125.0,126.0,135.0,127.0,-1.0,110.0,-68.0,127.0,127.0,127.0,-126.0,-77.0,82.0
126.0,128.0,126.0,127.0,124.0,126.0,134.0,127.0,-1.0,110.0,-68.0,127.0,127.0,127.0,-126.0,-77.0,82.0
127.0,128.0,124.0,127.0,125.0,126.0,138.0,127.0,-1.0,110.0,-68.0,127.0,127.0,127.0,-126.0,-77.0,82.0
127.0,128.0,124.0,127.0,125.0,126.0,139.0,128.0,-1.0,110.0,-68.0,127.0,127.0,127.0,-126.0,-77.0,82.0
127.0,128.0,124.0,127.0,125.0,126.0,139.0,128.0,-1.0,110.0,-68.0,127.0,127.0,127.0,-126.0,-77.0,82.0
127.0,128.0,124.0,127.0,125.0,126.0,138.0,128.0,-1.0,110.0,-68.0,127.0,127.0,127.0,-126.0,-77.0,82.0
127.0,128.0,124.0,127.0,125.0,126.0,138.0,128.0,-1.0,110.0,-68.0,127.0,127.0,127.0,-126.0,-77.0,82.0
126.0,128.0,124.0,127.0,125.0,126.0,138.0,128.0,-1.0,110.0,-68.0,127.0,127.0,127.0,-126.0,-77.0,82.0
126.0,128.0,124.0,127.0,125.0,126.0,138.0,128.0,-1.0,110.0,-68.0,127.0,127.0,127.0,-126.0,-77.0,82.0
126.0,128.0,124.0,127.0,125.0,126.0,138.0,128.0,-1.0,110.0,-68.0,127.0,127.0,127.0,-126.0,-77.0,82.0
127.0,127.0,124.0,127.0,125.0,126.0,139.0,127.0,-1.0,110.0,-68.0,127.0,127.0,127.0,-126.0,-77.0,82.0
127.0,127.0,124.0,127.0,125.0,126.0,139.0,127.0,-1.0,110.0,-68.0,127.0,127.0,127.0,-126.0,-77.0,82.0
127.0,128.0,123.0,127.0,125.0,127.0,137.0,128.0,-1.0,109.0,-68.0,127.0,127.0,127.0,-125.0,-78.0,82.0
127.0,128.0,123.0,127.0,125.0,126.0,137.0,128.0,-1.0,109.0,-68.0,127.0,127.0,127.0,-125.0,-78.0,82.0
127.0,128.0,123.0,127.0,125.0,126.0,137.0,127.0,-1.0,109.0,-68.0,127.0,127.0,127.0,-125.0,-78.0,82.0
127.0,128.0,124.0,127.0,125.0,126.0,137.0,127.0,-1.0,109.0,-68.0,127.0,127.0,127.0,-125.0,-78.0,82.0
127.0,128.0,124.0,127.0,125.0,126.0,137.0,127.0,-1.0,109.0,-68.0,127.0,127.0,127.0,-125.0,-78.0,82.0
127.0,127.0,124.0,127.0,125.0,126.0,137.0,127.0,-1.0,109.0,-68.0,127.0,127.0,127.0,-125.0,-78.0,82.0
127.0,127.0,124.0,127.0,125.0,126.0,137.0,127.0,-1.0,109.0,-68.0,127.0,127.0,127.0,-125.0,-78.0,82.0
127.0,128.0,124.0,127.0,125.0,126.0,138.0,128.0,-1.0,109.0,-68.0,127.0,127.0,127.0,-125.0,-78.0,82.0
127.0,128.0,124.0,127.0,125.0,126.0,138.0,128.0,-1.0,109.0,-68.0,127.0,127.0,127.0,-125.0,-78.0,82.0
127.0,128.0,123.0,127.0,125.0,126.0,137.0,128.0,-1.0,109.0,-68.0,127.0,127.0,127.0,-125.0,-78.0,82.0
127.0,129.0,123.0,127.0,124.0,126.0,134.0,128.0,-1.0,109.0,-67.0,127.0,127.0,127.0,-125.0,-78.0,82.0
127.0,129.0,123.0,127.0,124.0,126.0,134.0,128.0,-1.0,109.0,-67.0,127.0,127.0,127.0,-125.0,-78.0,82.0
127.0,129.0,123.0,127.0,125.0,126.0,133.0,128.0,-1.0,109.0,-67.0,127.0,127.0,127.0,-125.0,-78.0,82.0
127.0,129.0,123.0,127.0,125.0,126.0,133.0,128.0,-1.0,109.0,-67.0,127.0,127.0,127.0,-125.0,-78.0,82.0
126.0,129.0,123.0,127.0,125.0,126.0,133.0,128.0,-1.0,109.0,-67.0,127.0,127.0,127.0,-125.0,-78.0,82.0
126.0,128.0,123.0,127.0,125.0,126.0,133.0,127.0,-1.0,109.0,-67.0,127.0,127.0,127.0,-125.0,-78.0,82.0
127.0,129.0,123.0,127.0,124.0,126.0,134.0,128.0,-1.0,109.0,-67.0,127.0,127.0,127.0,-125.0,-78.0,82.0
127.0,129.0,123.0,127.0,124.0,126.0,134.0,128.0,-1.0,109.0,-67.0,127.0,127.0,127.0,-125.0,-78.0,82.0
127.0,129.0,123.0,127.0,124.0,126.0,134.0,128.0,-1.0,109.0,-67.0,127.0,127.0,127.0,-125.0,-78.0,82.0
127.0,129.0,123.0,127.0,124.0,126.0,134.0,128.0,-1.0,109.0,-67.0,127.0,127.0,127.0,-125.0,-78.0,82.0
127.0,129.0,124.0,127.0,124.0,126.0,129.0,127.0,-1.0,109.0,-67.0,127.0,127.0,127.0,-125.0,-79.0,82.0
127.0,128.0,124.0,127.0,124.0,126.0,129.0,127.0,-1.0,109.0,-67.0,127.0,127.0,127.0,-125.0,-79.0,82.0
127.0,128.0,124.0,127.0,124.0,126.0,129.0,127.0,-1.0,109.0,-67.0,127.0,127.0,127.0,-125.0,-79.0,82.0
127.0,128.0,125.0,127.0,124.0,126.0,129.0,127.0,-1.0,109.0,-67.0,127.0,127.0,127.0,-125.0,-79.0,82.0
127.0,128.0,125.0,127.0,125.0,126.0,129.0,127.0,-1.0,109.0,-67.0,127.0,127.0,127.0,-125.0,-79.0,82.0
126.0,128.0,125.0,127.0,124.0,126.0,129.0,127.0,-1.0,109.0,-67.0,127.0,127.0,127.0,-125.0,-79.0,82.0
127.0,129.0,124.0,127.0,124.0,126.0,129.0,127.0,-1.0,109.0,-67.0,127.0,127.0,127.0,-125.0,-79.0,82.0
127.0,129.0,124.0,127.0,124.0,126.0,129.0,127.0,-1.0,109.0,-67.0,127.0,127.0,127.0,-125.0,-79.0,82.0
127.0,129.0,124.0,127.0,124.0,126.0,129.0,127.0,-1.0,109.0,-67.0,127.0,127.0,127.0,-125.0,-79.0,82.0
127.0,129.0,124.0,127.0,124.0,126.0,129.0,127.0,-1.0,109.0,-67.0,127.0,127.0,127.0,-125.0,-79.0,82.0
127.0,130.0,124.0,127.0,124.0,127.0,128.0,128.0,-1.0,109.0,-66.0,127.0,127.0,127.0,-125.0,-79.0,82.0
127.0,130.0,124.0,128.0,124.0,127.0,128.0,128.0,-1.0,109.0,-66.0,127.0,127.0,127.0,-125.0,-79.0,82.0
127.0,130.0,124.0,128.0,124.0,126.0,127.0,128.0,-1.0,109.0,-66.0,127.0,127.0,127.0,-125.0,-79.0,82.0
127.0,129.0,124.0,128.0,124.0,126.0,127.0,128.0,-1.0,109.0,-66.0,127.0,127.0,127.0,-125.0,-79.0,82.0
127.0,129.0,125.0,127.0,124.0,127.0,128.0,128.0,-1.0,109.0,-66.0,127.0,127.0,127.0,-125.0,-79.0,82.0
127.0,129.0,124.0,127.0,124.0,126.0,128.0,128.0,-1.0,109.0,-66.0,127.0,127.0,127.0,-125.0,-79.0,82.0
127.0,129.0,124.0,127.0,124.0,126.0,128.0,128.0,-1.0,109.0,-66.0,127.0,127.0,127.0,-125.0,-79.0,82.0
127.0,130.0,124.0,127.0,124.0,127.0,128.0,128.0,-1.0,109.0,-66.0,127.0,127.0,127.0,-125.0,-79.0,82.0
127.0,130.0,124.0,128.0,124.0,127.0,128.0,128.0,-1.0,109.0,-66.0,127.0,127.0,127.0,-125.0,-79.0,82.0
127.0,130.0,124.0,127.0,124.0,126.0,128.0,128.0,-1.0,109.0,-66.0,127.0,127.0,127.0,-125.0,-79.0,82.0
127.0,130.0,126.0,127.0,124.0,126.0,123.0,128.0,-1.0,109.0,-65.0,127.0,127.0,127.0,-125.0,-80.0,82.0
127.0,130.0,126.0,127.0,125.0,126.0,123.0,128.0,-1.0,109.0,-65.0,127.0,127.0,127.0,-125.0,-80.0,82.0
127.0,130.0,126.0,127.0,125.0,126.0,123.0,128.0,-1.0,109.0,-65.0,127.0,127.0,127.0,-125.0,-80.0,82.0
126.0,130.0,126.0,127.0,124.0,126.0,124.0,128.0,-1.0,109.0,-65.0,127.0,127.0,127.0,-125.0,-80.0,82.0
126.0,131.0,125.0,127.0,124.0,126.0,124.0,128.0,-1.0,109.0,-65.0,127.0,127.0,127.0,-125.0,-80.0,82.0
126.0,130.0,125.0,127.0,124.0,126.0,124.0,128.0,-1.0,109.0,-65.0,127.0,127.0,127.0,-125.0,-80.0,82.0
126.0,130.0,125.0,127.0,124.0,126.0,124.0,128.0,-1.0,109.0,-65.0,127.0,127.0,127.0,-125.0,-80.0,82.0
126.0,130.0,126.0,127.0,124.0,126.0,123.0,127.0,-1.0,109.0,-65.0,127.0,127.0,127.0,-125.0,-80.0,82.0
127.0,130.0,126.0,127.0,124.0,126.0,123.0,128.0,-1.0,109.0,-65.0,127.0,127.0,127.0,-125.0,-80.0,82.0
126.0,130.0,125.0,127.0,124.0,126.0,123.0,128.0,-1.0,109.0,-65.0,127.0,127.0,127.0,-125.0,-80.0,82.0
127.0,129.0,124.0,127.0,125.0,126.0,120.0,127.0,-1.0,109.0,-64.0,127.0,127.0,127.0,-125.0,-80.0,82.0
127.0,129.0,124.0,127.0,125.0,126.0,120.0,127.0,-1.0,109.0,-64.0,127.0,127.0,127.0,-125.0,-80.0,82.0
127.0,130.0,124.0,127.0,125.0,126.0,120.0,127.0,-1.0,109.0,-64.0,127.0,127.0,127.0,-125.0,-80.0,82.0
127.0,130.0,124.0,127.0,125.0,126.0,120.0,127.0,-1.0,109.0,-64.0,127.0,127.0,127.0,-125.0,-80.0,82.0
127.0,130.0,124.0,127.0,125.0,126.0,120.0,127.0,-1.0,109.0,-64.0,127.0,127.0,127.0,-125.0,-80.0,82.0
127.0,130.0,124.0,127.0,125.0,126.0,120.0,127.0,-1.0,109.0,-64.0,127.0,127.0,127.0,-125.0,-80.0,82.0
127.0,129.0,124.0,127.0,125.0,126.0,120.0,127.0,-1.0,109.0,-64.0,127.0,127.0,127.0,-125.0,-80.0,82.0
127.0,129.0,124.0,127.0,125.0,126.0,120.0,127.0,-1.0,109.0,-64.0,127.0,127.0,127.0,-125.0,-80.0,82.0
127.0,129.0,124.0,127.0,125.0,126.0,120.0,127.0,-1.0,109.0,-64.0,127.0,127.0,127.0,-125.0,-80.0,82.0
127.0,129.0,124.0,127.0,125.0,126.0,120.0,127.0,-1.0,109.0,-64.0,127.0,127.0,127.0,-125.0,-80.0,82.0
127.0,128.0,121.0,127.0,126.0,126.0,121.0,127.0,-1.0,109.0,-64.0,127.0,127.0,127.0,-124.0,-81.0,82.0
126.0,129.0,121.0,127.0,125.0,126.0,121.0,127.0,-1.0,109.0,-64.0,127.0,127.0,127.0,-124.0,-81.0,82.0
126.0,129.0,121.0,127.0,125.0,126.0,121.0,127.0,-1.0,109.0,-64.0,127.0,127.0,127.0,-124.0,-81.0,82.0
126.0,129.0,121.0,127.0,125.0,126.0,121.0,127.0,-1.0,109.0,-64.0,127.0,127.0,127.0,-124.0,-81.0,82.0
126.0,128.0,121.0,127.0,125.0,126.0,121.0,127.0,-1.0,109.0,-64.0,127.0,127.0,127.0,-124.0,-81.0,82.0
127.0,129.0,121.0,127.0,125.0,126.0,121.0,127.0,-1.0,109.0,-64.0,127.0,127.0,127.0,-124.0,-81.0,82.0
127.0,129.0,121.0,127.0,125.0,126.0,121.0,127.0,-1.0,109.0,-64.0,127.0,127.0,127.0,-124.0,-81.0,82.0
127.0,128.0,121.0,127.0,125.0,126.0,121.0,127.0,-1.0,109.0,-64.0,127.0,127.0,127.0,-124.0,-81.0,82.0
127.0,128.0,121.0,127.0,125.0,126.0,121.0,127.0,-1.0,109.0,-64.0,127.0,127.0,127.0,-124.0,-81.0,82.0
127.0,128.0,121.0,127.0,126.0,126.0,121.0,127.0,-1.0,109.0,-64.0,127.0,127.0,127.0,-124.0,-81.0,82.0
126.0,126.0,122.0,127.0,126.0,126.0,124.0,126.0,-1.0,109.0,-64.0,127.0,127.0,127.0,-124.0,-82.0,82.0
126.0,126.0,122.0,127.0,127.0,126.0,124.0,126.0,-1.0,109.0,-64.0,127.0,127.0,127.0,-124.0,-82.0,82.0
126.0,127.0,121.0,127.0,126.0,126.0,124.0,126.0,-1.0,109.0,-64.0,127.0,127.0,127.0,-124.0,-82.0,82.0
126.0,126.0,121.0,127.0,127.0,126.0,124.0,126.0,-1.0,109.0,-64.0,127.0,127.0,127.0,-124.0,-82.0,82.0
127.0,126.0,122.0,127.0,127.0,126.0,124.0,126.0,-1.0,109.0,-64.0,127.0,127.0,127.0,-124.0,-82.0,82.0
127.0,126.0,122.0,127.0,127.0,126.0,124.0,126.0,-1.0,109.0,-64.0,127.0,127.0,127.0,-124.0,-82.0,82.0
127.0,126.0,122.0,127.0,127.0,126.0,124.0,126.0,-1.0,109.0,-64.0,127.0,127.0,127.0,-124.0,-82.0,82.0
126.0,126.0,122.0,127.0,127.0,126.0,124.0,126.0,-1.0,109.0,-64.0,127.0,127.0,127.0,-124.0,-82.0,82.0
126.0,126.0,122.0,127.0,127.0,126.0,124.0,126.0,-1.0,109.0,-64.0,127.0,127.0,127.0,-124.0,-82.0,82.0
126.0,126.0,122.0,127.0,127.0,126.0,124.0,126.0,-1.0,109.0,-64.0,127.0,127.0,127.0,-124.0,-82.0,82.0
127.0,126.0,123.0,127.0,127.0,126.0,127.0,128.0,-1.0,108.0,-65.0,127.0,127.0,127.0,-124.0,-82.0,82.0
127.0,126.0,123.0,127.0,127.0,126.0,127.0,128.0,-1.0,108.0,-65.0,127.0,127.0,127.0,-124.0,-82.0,82.0
127.0,126.0,123.0,127.0,127.0,126.0,127.0,127.0,-1.0,108.0,-65.0,127.0,127.0,127.0,-124.0,-82.0,82.0
127.0,126.0,124.0,127.0,127.0,126.0,127.0,127.0,-1.0,108.0,-65.0,127.0,127.0,127.0,-124.0,-82.0,82.0
127.0,126.0,124.0,127.0,127.0,126.0,127.0,127.0,-1.0,108.0,-65.0,127.0,127.0,127.0,-124.0,-82.0,82.0
127.0,126.0,124.0,127.0,127.0,126.0,127.0,127.0,-1.0,108.0,-65.0,127.0,127.0,127.0,-124.0,-82.0,82.0
127.0,126.0,124.0,127.0,127.0,126.0,127.0,127.0,-1.0,108.0,-65.0,127.0,127.0,127.0,-124.0,-82.0,82.0
127.0,126.0,124.0,127.0,127.0,126.0,127.0,127.0,-1.0,108.0,-65.0,127.0,127.0,127.0,-124.0,-82.0,82.0
127.0,125.0,124.0,127.0,128.0,126.0,127.0,127.0,-1.0,108.0,-65.0,127.0,127.0,127.0,-124.0,-82.0,82.0
127.0,126.0,123.0,127.0,127.0,126.0,127.0,127.0,-1.0,108.0,-65.0,127.0,127.0,127.0,-124.0,-82.0,82.0
127.0,126.0,125.0,127.0,127.0,126.0,125.0,128.0,-1.0,108.0,-66.0,127.0,127.0,127.0,-123.0,-82.0,82.0
127.0,126.0,125.0,127.0,127.0,126.0,125.0,128.0,-1.0,108.0,-66.0,127.0,127.0,127.0,-123.0,-82.0,82.0
127.0,126.0,125.0,127.0,127.0,126.0,125.0,128.0,-1.0,108.0,-66.0,127.0,127.0,127.0,-123.0,-82.0,82.0
127.0,126.0,126.0,127.0,127.0,126.0,125.0,128.0,-1.0,108.0,-66.0,127.0,127.0,127.0,-123.0,-82.0,82.0
127.0,126.0,126.0,127.0,127.0,126.0,125.0,127.0,-1.0,108.0,-66.0,127.0,127.0,127.0,-123.0,-82.0,82.0
127.0,126.0,126.0,127.0,127.0,126.0,125.0,128.0,-1.0,108.0,-66.0,127.0,127.0,127.0,-123.0,-82.0,82.0
127.0,126.0,126.0,127.0,128.0,126.0,125.0,128.0,-1.0,108.0,-66.0,127.0,127.0,127.0,-123.0,-82.0,82.0
127.0,126.0,126.0,127.0,128.0,126.0,125.0,128.0,-1.0,108.0,-66.0,127.0,127.0,127.0,-123.0,-82.0,82.0
126.0,126.0,126.0,127.0,127.0,126.0,125.0,128.0,-1.0,108.0,-66.0,127.0,127.0,127.0,-123.0,-82.0,82.0
127.0,127.0,125.0,127.0,127.0,126.0,125.0,128.0,-1.0,108.0,-66.0,127.0,127.0,127.0,-123.0,-82.0,82.0
127.0,126.0,126.0,127.0,127.0,126.0,125.0,128.0,-1.0,108.0,-67.0,127.0,127.0,127.0,-123.0,-83.0,82.0
127.0,126.0,126.0,127.0,127.0,126.0,125.0,128.0,-1.0,108.0,-67.0,127.0,127.0,127.0,-123.0,-83.0,82.0
127.0,126.0,126.0,127.0,127.0,126.0,125.0,128.0,-1.0,108.0,-67.0,127.0,127.0,127.0,-123.0,-83.0,82.0
127.0,126.0,126.0,127.0,127.0,126.0,125.0,128.0,-1.0,108.0,-67.0,127.0,127.0,127.0,-123.0,-83.0,82.0
127.0,126.0,126.0,127.0,127.0,126.0,125.0,128.0,-1.0,108.0,-67.0,127.0,127.0,127.0,-123.0,-83.0,82.0
127.0,126.0,127.0,127.0,127.0,126.0,125.0,128.0,-1.0,108.0,-67.0,127.0,127.0,127.0,-123.0,-83.0,82.0
127.0,125.0,127.0,127.0,127.0,126.0,125.0,128.0,-1.0,108.0,-67.0,127.0,127.0,127.0,-123.0,-83.0,82.0
127.0,126.0,127.0,127.0,127.0,126.0,125.0,128.0,-1.0,108.0,-67.0,127.0,127.0,127.0,-123.0,-83.0,82.0
127.0,126.0,126.0,127.0,127.0,126.0,125.0,128.0,-1.0,108.0,-67.0,127.0,127.0,127.0,-123.0,-83.0,82.0
127.0,126.0,126.0,127.0,127.0,126.0,125.0,128.0,-1.0,108.0,-67.0,127.0,127.0,127.0,-123.0,-83.0,82.0
127.0,125.0,127.0,127.0,126.0,126.0,126.0,127.0,-1.0,108.0,-68.0,127.0,127.0,127.0,-122.0,-83.0,82.0
127.0,126.0,126.0,127.0,126.0,126.0,126.0,127.0,-1.0,108.0,-68.0,127.0,127.0,127.0,-122.0,-83.0,82.0
127.0,126.0,126.0,127.0,126.0,126.0,126.0,127.0,-1.0,108.0,-68.0,127.0,127.0,127.0,-122.0,-83.0,82.0
127.0,126.0,127.0,127.0,126.0,126.0,126.0,127.0,-1.0,108.0,-68.0,127.0,127.0,127.0,-122.0,-83.0,82.0
127.0,125.0,127.0,127.0,127.0,126.0,126.0,127.0,-1.0,108.0,-68.0,127.0,127.0,127.0,-122.0,-83.0,82.0
127.0,125.0,127.0,127.0,127.0,126.0,126.0,127.0,-1.0,108.0,-68.0,127.0,127.0,127.0,-122.0,-83.0,82.0
127.0,125.0,127.0,127.0,127.0,126.0,126.0,127.0,-1.0,108.0,-68.0,127.0,127.0,127.0,-122.0,-83.0,82.0
127.0,125.0,127.0,127.0,127.0,126.0,126.0,127.0,-1.0,108.0,-68.0,127.0,127.0,127.0,-122.0,-83.0,82.0
127.0,125.0,127.0,127.0,127.0,126.0,126.0,127.0,-1.0,108.0,-68.0,127.0,127.0,127.0,-122.0,-83.0,82.0
127.0,125.0,127.0,127.0,126.0,126.0,126.0,127.0,-1.0,108.0,-68.0,127.0,127.0,127.0,-122.0,-83.0,82.0
126.0,126.0,127.0,127.0,126.0,126.0,127.0,128.0,-1.0,108.0,-68.0,127.0,127.0,127.0,-122.0,-84.0,82.0
127.0,126.0,127.0,127.0,126.0,126.0,127.0,128.0,-1.0,108.0,-68.0,127.0,127.0,127.0,-122.0,-84.0,82.0
127.0,126.0,127.0,127.0,126.0,126.0,127.0,128.0,-1.0,108.0,-68.0,127.0,127.0,127.0,-122.0,-84.0,82.0
126.0,126.0,127.0,127.0,126.0,126.0,127.0,128.0,-1.0,108.0,-68.0,127.0,127.0,127.0,-122.0,-84.0,82.0
127.0,126.0,127.0,127.0,126.0,126.0,127.0,128.0,-1.0,108.0,-68.0,127.0,127.0,127.0,-122.0,-84.0,82.0
127.0,126.0,127.0,127.0,126.0,126.0,127.0,128.0,-1.0,108.0,-68.0,127.0,127.0,127.0,-122.0,-84.0,82.0
127.0,126.0,127.0,127.0,126.0,126.0,127.0,128.0,-1.0,108.0,-68.0,127.0,127.0,127.0,-122.0,-84.0,82.0
126.0,126.0,127.0,127.0,126.0,125.0,127.0,128.0,-1.0,108.0,-68.0,127.0,127.0,127.0,-122.0,-84.0,82.0
127.0,126.0,127.0,127.0,126.0,125.0,127.0,128.0,-1.0,108.0,-68.0,127.0,127.0,127.0,-122.0,-84.0,82.0
126.0,126.0,127.0,127.0,126.0,125.0,127.0,128.0,-1.0,108.0,-68.0,127.0,127.0,127.0,-122.0,-84.0,82.0
127.0,126.0,127.0,127.0,126.0,126.0,128.0,127.0,-1.0,108.0,-69.0,127.0,127.0,127.0,-122.0,-84.0,82.0
127.0,126.0,127.0,127.0,126.0,126.0,128.0,127.0,-1.0,108.0,-69.0,127.0,127.0,127.0,-122.0,-84.0,82.0
127.0,126.0,127.0,127.0,126.0,126.0,128.0,127.0,-1.0,108.0,-69.0,127.0,127.0,127.0,-122.0,-84.0,82.0
127.0,126.0,127.0,127.0,126.0,126.0,128.0,127.0,-1.0,108.0,-69.0,127.0,127.0,127.0,-122.0,-84.0,82.0
127.0,126.0,128.0,127.0,126.0,126.0,127.0,127.0,-1.0,108.0,-69.0,127.0,127.0,127.0,-122.0,-84.0,82.0
127.0,126.0,128.0,127.0,126.0,126.0,127.0,127.0,-1.0,108.0,-69.0,127.0,127.0,127.0,-122.0,-84.0,82.0
127.0,127.0,127.0,127.0,126.0,126.0,127.0,128.0,-1.0,108.0,-69.0,127.0,127.0,127.0,-122.0,-84.0,82.0
127.0,127.0,127.0,127.0,126.0,126.0,127.0,128.0,-1.0,108.0,-69.0,127.0,127.0,127.0,-122.0,-84.0,82.0
127.0,127.0,127.0,127.0,126.0,126.0,128.0,127.0,-1.0,108.0,-69.0,127.0,127.0,127.0,-122.0,-84.0,82.0
127.0,127.0,127.0,127.0,126.0,126.0,128.0,127.0,-1.0,108.0,-69.0,127.0,127.0,127.0,-122.0,-84.0,82.0
127.0,128.0,126.0,127.0,124.0,126.0,126.0,127.0,-1.0,108.0,-68.0,127.0,127.0,127.0,-122.0,-85.0,82.0
127.0,128.0,126.0,127.0,124.0,126.0,126.0,128.0,-1.0,108.0,-68.0,127.0,127.0,127.0,-122.0,-85.0,82.0
127.0,128.0,126.0,127.0,124.0,126.0,126.0,128.0,-1.0,108.0,-68.0,127.0,127.0,127.0,-122.0,-85.0,82.0
127.0,128.0,127.0,127.0,125.0,126.0,126.0,128.0,-1.0,108.0,-68.0,127.0,127.0,127.0,-122.0,-85.0,82.0
127.0,128.0,127.0,127.0,124.0,126.0,126.0,128.0,-1.0,108.0,-68.0,127.0,127.0,127.0,-122.0,-85.0,82.0
127.0,128.0,127.0,127.0,124.0,126.0,126.0,128.0,-1.0,108.0,-68.0,127.0,127.0,127.0,-122.0,-85.0,82.0
127.0,128.0,127.0,127.0,124.0,126.0,126.0,128.0,-1.0,108.0,-68.0,127.0,127.0,127.0,-122.0,-85.0,82.0
127.0,128.0,127.0,127.0,124.0,126.0,126.0,128.0,-1.0,108.0,-68.0,127.0,127.0,127.0,-122.0,-85.0,82.0
127.0,128.0,127.0,127.0,124.0,126.0,126.0,127.0,-1.0,108.0,-68.0,127.0,127.0,127.0,-122.0,-85.0,82.0
127.0,128.0,127.0,127.0,124.0,126.0,126.0,127.0,-1.0,108.0,-68.0,127.0,127.0,127.0,-122.0,-85.0,82.0
126.0,128.0,126.0,127.0,124.0,126.0,125.0,127.0,-1.0,109.0,-68.0,127.0,127.0,127.0,-122.0,-85.0,82.0
126.0,128.0,126.0,127.0,124.0,126.0,125.0,127.0,-1.0,109.0,-68.0,127.0,127.0,127.0,-122.0,-85.0,82.0
127.0,128.0,126.0,127.0,124.0,126.0,125.0,128.0,-1.0,109.0,-68.0,127.0,127.0,127.0,-122.0,-85.0,82.0
127.0,128.0,126.0,127.0,124.0,126.0,125.0,128.0,-1.0,109.0,-68.0,127.0,127.0,127.0,-122.0,-85.0,82.0
127.0,129.0,126.0,127.0,124.0,126.0,125.0,128.0,-1.0,109.0,-68.0,127.0,127.0,127.0,-122.0,-85.0,82.0
127.0,129.0,126.0,127.0,124.0,126.0,125.0,127.0,-1.0,109.0,-68.0,127.0,127.0,127.0,-122.0,-85.0,82.0
127.0,129.0,126.0,127.0,124.0,126.0,125.0,127.0,-1.0,109.0,-68.0,127.0,127.0,127.0,-122.0,-85.0,82.0
126.0,129.0,125.0,127.0,123.0,126.0,125.0,128.0,-1.0,109.0,-68.0,127.0,127.0,127.0,-122.0,-85.0,82.0
126.0,129.0,125.0,127.0,123.0,126.0,125.0,128.0,-1.0,109.0,-68.0,127.0,127.0,127.0,-122.0,-85.0,82.0
126.0,129.0,125.0,127.0,124.0,126.0,126.0,128.0,-1.0,109.0,-68.0,127.0,127.0,127.0,-122.0,-85.0,82.0
127.0,127.0,125.0,127.0,124.0,126.0,126.0,127.0,-1.0,109.0,-68.0,127.0,127.0,127.0,-122.0,-86.0,82.0
127.0,127.0,126.0,127.0,124.0,126.0,126.0,127.0,-1.0,109.0,-68.0,127.0,127.0,127.0,-122.0,-86.0,82.0
127.0,127.0,126.0,127.0,124.0,126.0,126.0,127.0,-1.0,109.0,-68.0,127.0,127.0,127.0,-122.0,-86.0,82.0
127.0,128.0,125.0,127.0,124.0,126.0,126.0,127.0,-1.0,109.0,-68.0,127.0,127.0,127.0,-122.0,-86.0,82.0
127.0,128.0,125.0,127.0,124.0,126.0,126.0,127.0,-1.0,109.0,-68.0,127.0,127.0,127.0,-122.0,-86.0,82.0
127.0,128.0,125.0,127.0,124.0,126.0,126.0,127.0,-1.0,109.0,-68.0,127.0,127.0,127.0,-122.0,-86.0,82.0
127.0,128.0,125.0,127.0,124.0,126.0,127.0,127.0,-1.0,109.0,-68.0,127.0,127.0,127.0,-122.0,-86.0,82.0
127.0,128.0,125.0,127.0,124.0,126.0,126.0,127.0,-1.0,109.0,-68.0,127.0,127.0,127.0,-122.0,-86.0,82.0
127.0,128.0,125.0,127.0,124.0,126.0,126.0,127.0,-1.0,109.0,-68.0,127.0,127.0,127.0,-122.0,-86.0,82.0
127.0,128.0,125.0,127.0,124.0,126.0,126.0,127.0,-1.0,109.0,-68.0,127.0,127.0,127.0,-122.0,-86.0,82.0
127.0,128.0,124.0,127.0,124.0,126.0,128.0,128.0,-1.0,109.0,-67.0,127.0,127.0,127.0,-121.0,-86.0,82.0
127.0,128.0,124.0,127.0,124.0,126.0,128.0,128.0,-1.0,109.0,-67.0,127.0,127.0,127.0,-121.0,-86.0,82.0
127.0,128.0,124.0,127.0,124.0,126.0,128.0,128.0,-1.0,109.0,-67.0,127.0,127.0,127.0,-121.0,-86.0,82.0
127.0,128.0,124.0,127.0,124.0,126.0,128.0,128.0,-1.0,109.0,-67.0,127.0,127.0,127.0,-121.0,-86.0,82.0
127.0,128.0,124.0,127.0,124.0,126.0,128.0,127.0,-1.0,109.0,-67.0,127.0,127.0,127.0,-121.0,-86.0,82.0
127.0,128.0,124.0,127.0,124.0,126.0,128.0,127.0,-1.0,109.0,-67.0,127.0,127.0,127.0,-121.0,-86.0,82.0
127.0,129.0,124.0,127.0,124.0,127.0,129.0,128.0,-1.0,109.0,-67.0,127.0,127.0,127.0,-121.0,-86.0,82.0
127.0,129.0,124.0,127.0,124.0,127.0,129.0,128.0,-1.0,109.0,-67.0,127.0,127.0,127.0,-121.0,-86.0,82.0
127.0,129.0,125.0,127.0,124.0,127.0,129.0,128.0,-1.0,109.0,-67.0,127.0,127.0,127.0,-121.0,-86.0,82.0
127.0,128.0,125.0,127.0,124.0,127.0,129.0,128.0,-1.0,109.0,-67.0,127.0,127.0,127.0,-121.0,-86.0,82.0
127.0,128.0,127.0,127.0,124.0,126.0,131.0,128.0,-1.0,109.0,-67.0,127.0,127.0,127.0,-121.0,-86.0,82.0
127.0,128.0,127.0,127.0,124.0,126.0,131.0,127.0,-1.0,109.0,-67.0,127.0,127.0,127.0,-121.0,-86.0,82.0
127.0,128.0,127.0,127.0,124.0,126.0,132.0,127.0,-1.0,109.0,-67.0,127.0,127.0,127.0,-121.0,-86.0,82.0
127.0,128.0,127.0,127.0,124.0,126.0,132.0,127.0,-1.0,109.0,-67.0,127.0,127.0,127.0,-121.0,-86.0,82.0
127.0,128.0,127.0,127.0,125.0,126.0,132.0,127.0,-1.0,109.0,-67.0,127.0,127.0,127.0,-121.0,-86.0,82.0
127.0,128.0,127.0,127.0,125.0,126.0,132.0,127.0,-1.0,109.0,-67.0,127.0,127.0,127.0,-121.0,-86.0,82.0
127.0,128.0,127.0,127.0,125.0,126.0,132.0,127.0,-1.0,109.0,-67.0,127.0,127.0,127.0,-121.0,-86.0,82.0
127.0,128.0,127.0,127.0,125.0,126.0,132.0,127.0,-1.0,109.0,-67.0,127.0,127.0,127.0,-121.0,-86.0,82.0
127.0,128.0,127.0,127.0,125.0,126.0,132.0,127.0,-1.0,109.0,-67.0,127.0,127.0,127.0,-121.0,-86.0,82.0
127.0,128.0,127.0,127.0,124.0,126.0,131.0,128.0,-1.0,109.0,-67.0,127.0,127.0,127.0,-121.0,-86.0,82.0
127.0,129.0,126.0,127.0,125.0,127.0,135.0,128.0,-1.0,109.0,-67.0,127.0,127.0,127.0,-121.0,-87.0,82.0
127.0,129.0,126.0,127.0,125.0,127.0,135.0,128.0,-1.0,109.0,-67.0,127.0,127.0,127.0,-121.0,-87.0,82.0
127.0,129.0,125.0,127.0,125.0,127.0,135.0,128.0,-1.0,109.0,-67.0,127.0,127.0,127.0,-121.0,-87.0,82.0
127.0,129.0,125.0,127.0,125.0,127.0,135.0,128.0,-1.0,109.0,-67.0,127.0,127.0,127.0,-121.0,-87.0,82.0
127.0,129.0,125.0,127.0,125.0,127.0,135.0,128.0,-1.0,109.0,-67.0,127.0,127.0,127.0,-121.0,-87.0,82.0
127.0,129.0,125.0,127.0,125.0,126.0,135.0,128.0,-1.0,109.0,-67.0,127.0,127.0,127.0,-121.0,-87.0,82.0
127.0,128.0,125.0,127.0,125.0,126.0,136.0,128.0,-1.0,109.0,-67.0,127.0,127.0,127.0,-121.0,-87.0,82.0
127.0,129.0,125.0,127.0,125.0,126.0,135.0,128.0,-1.0,109.0,-67.0,127.0,127.0,127.0,-121.0,-87.0,82.0
127.0,129.0,126.0,128.0,125.0,127.0,134.0,128.0,-1.0,109.0,-67.0,127.0,127.0,127.0,-121.0,-87.0,82.0
127.0,129.0,126.0,127.0,125.0,127.0,134.0,128.0,-1.0,109.0,-67.0,127.0,127.0,127.0,-121.0,-87.0,82.0
126.0,128.0,125.0,127.0,125.0,126.0,136.0,128.0,-1.0,108.0,-68.0,127.0,127.0,127.0,-120.0,-88.0,82.0
126.0,128.0,125.0,127.0,125.0,126.0,136.0,128.0,-1.0,108.0,-68.0,127.0,127.0,127.0,-120.0,-88.0,82.0
127.0,128.0,125.0,127.0,125.0,126.0,136.0,128.0,-1.0,108.0,-68.0,127.0,127.0,127.0,-120.0,-88.0,82.0
126.0,128.0,125.0,127.0,125.0,126.0,136.0,128.0,-1.0,108.0,-68.0,127.0,127.0,127.0,-120.0,-88.0,82.0
127.0,129.0,125.0,127.0,125.0,126.0,135.0,128.0,-1.0,108.0,-68.0,127.0,127.0,127.0,-120.0,-88.0,82.0
127.0,128.0,125.0,127.0,125.0,126.0,135.0,128.0,-1.0,108.0,-68.0,127.0,127.0,127.0,-120.0,-88.0,82.0
127.0,128.0,125.0,127.0,125.0,126.0,135.0,128.0,-1.0,108.0,-68.0,127.0,127.0,127.0,-120.0,-88.0,82.0
126.0,128.0,126.0,127.0,125.0,126.0,136.0,128.0,-1.0,108.0,-68.0,127.0,127.0,127.0,-120.0,-88.0,82.0
126.0,128.0,126.0,127.0,125.0,126.0,136.0,128.0,-1.0,108.0,-68.0,127.0,127.0,127.0,-120.0,-88.0,82.0
126.0,128.0,126.0,127.0,125.0,126.0,136.0,128.0,-1.0,108.0,-68.0,127.0,127.0,127.0,-120.0,-88.0,82.0
127.0,128.0,124.0,127.0,125.0,126.0,132.0,128.0,-1.0,108.0,-68.0,127.0,127.0,127.0,-120.0,-88.0,82.0
127.0,128.0,124.0,127.0,125.0,126.0,132.0,128.0,-1.0,108.0,-68.0,127.0,127.0,127.0,-120.0,-88.0,82.0
127.0,128.0,124.0,127.0,125.0,126.0,132.0,128.0,-1.0,108.0,-68.0,127.0,127.0,127.0,-120.0,-88.0,82.0
127.0,128.0,124.0,127.0,125.0,126.0,132.0,128.0,-1.0,108.0,-68.0,127.0,127.0,127.0,-120.0,-88.0,82.0
127.0,128.0,124.0,127.0,125.0,126.0,132.0,128.0,-1.0,108.0,-68.0,127.0,127.0,127.0,-120.0,-88.0,82.0
127.0,128.0,124.0,127.0,125.0,126.0,132.0,128.0,-1.0,108.0,-68.0,127.0,127.0,127.0,-120.0,-88.0,82.0
127.0,128.0,125.0,127.0,126.0,126.0,132.0,128.0,-1.0,108.0,-68.0,127.0,127.0,127.0,-120.0,-88.0,82.0
127.0,128.0,125.0,127.0,125.0,126.0,132.0,128.0,-1.0,108.0,-68.0,127.0,127.0,127.0,-120.0,-88.0,82.0
127.0,128.0,124.0,127.0,125.0,126.0,132.0,128.0,-1.0,108.0,-68.0,127.0,127.0,127.0,-120.0,-88.0,82.0
127.0,128.0,124.0,127.0,125.0,126.0,132.0,128.0,-1.0,108.0,-68.0,127.0,127.0,127.0,-120.0,-88.0,82.0
127.0,127.0,124.0,127.0,125.0,126.0,130.0,127.0,-1.0,108.0,-67.0,127.0,127.0,127.0,-120.0,-89.0,82.0
127.0,127.0,124.0,127.0,125.0,126.0,130.0,127.0,-1.0,108.0,-67.0,127.0,127.0,127.0,-120.0,-89.0,82.0
127.0,127.0,124.0,127.0,125.0,126.0,130.0,127.0,-1.0,108.0,-67.0,127.0,127.0,127.0,-120.0,-89.0,82.0
127.0,127.0,124.0,127.0,125.0,126.0,130.0,127.0,-1.0,108.0,-67.0,127.0,127.0,127.0,-120.0,-89.0,82.0
127.0,127.0,124.0,127.0,125.0,126.0,130.0,127.0,-1.0,108.0,-67.0,127.0,127.0,127.0,-120.0,-89.0,82.0
127.0,127.0,124.0,127.0,126.0,126.0,130.0,127.0,-1.0,108.0,-67.0,127.0,127.0,127.0,-120.0,-89.0,82.0
127.0,127.0,124.0,127.0,125.0,126.0,130.0,127.0,-1.0,108.0,-67.0,127.0,127.0,127.0,-120.0,-89.0,82.0
127.0,127.0,124.0,127.0,125.0,126.0,130.0,127.0,-1.0,108.0,-67.0,127.0,127.0,127.0,-120.0,-89.0,82.0
127.0,127.0,124.0,127.0,125.0,126.0,130.0,127.0,-1.0,108.0,-67.0,127.0,127.0,127.0,-120.0,-89.0,82.0
127.0,127.0,124.0,127.0,125.0,126.0,130.0,127.0,-1.0,108.0,-67.0,127.0,127.0,127.0,-120.0,-89.0,82.0
127.0,129.0,124.0,127.0,124.0,126.0,129.0,128.0,-1.0,108.0,-67.0,127.0,127.0,127.0,-120.0,-89.0,82.0
127.0,129.0,123.0,127.0,124.0,126.0,129.0,128.0,-1.0,108.0,-67.0,127.0,127.0,127.0,-120.0,-89.0,82.0
127.0,129.0,123.0,127.0,124.0,126.0,129.0,128.0,-1.0,108.0,-67.0,127.0,127.0,127.0,-120.0,-89.0,82.0
127.0,129.0,123.0,127.0,124.0,126.0,129.0,128.0,-1.0,108.0,-67.0,127.0,127.0,127.0,-120.0,-89.0,82.0
127.0,128.0,125.0,127.0,125.0,125.0,128.0,128.0,-1.0,108.0,-67.0,127.0,127.0,127.0,-120.0,-89.0,82.0
127.0,128.0,124.0,127.0,125.0,125.0,128.0,128.0,-1.0,108.0,-67.0,127.0,127.0,127.0,-120.0,-89.0,82.0
127.0,129.0,124.0,127.0,124.0,126.0,129.0,128.0,-1.0,108.0,-67.0,127.0,127.0,127.0,-120.0,-89.0,82.0
127.0,129.0,124.0,127.0,124.0,126.0,129.0,127.0,-1.0,108.0,-67.0,127.0,127.0,127.0,-120.0,-89.0,82.0
127.0,129.0,124.0,127.0,124.0,126.0,129.0,128.0,-1.0,108.0,-67.0,127.0,127.0,127.0,-120.0,-89.0,82.0
127.0,129.0,124.0,127.0,124.0,126.0,129.0,128.0,-1.0,108.0,-67.0,127.0,127.0,127.0,-120.0,-89.0,82.0
127.0,129.0,124.0,127.0,124.0,125.0,127.0,127.0,-1.0,108.0,-66.0,127.0,127.0,127.0,-120.0,-89.0,82.0
127.0,129.0,124.0,127.0,124.0,125.0,126.0,127.0,-1.0,108.0,-66.0,127.0,127.0,127.0,-120.0,-89.0,82.0
127.0,129.0,124.0,127.0,124.0,124.0,126.0,127.0,-1.0,108.0,-66.0,127.0,127.0,127.0,-120.0,-89.0,82.0
127.0,128.0,125.0,127.0,125.0,127.0,127.0,127.0,-1.0,108.0,-66.0,127.0,127.0,127.0,-120.0,-89.0,82.0
127.0,128.0,124.0,127.0,125.0,127.0,127.0,127.0,-1.0,108.0,-66.0,127.0,127.0,127.0,-120.0,-89.0,82.0
127.0,128.0,124.0,127.0,125.0,126.0,127.0,127.0,-1.0,108.0,-66.0,127.0,127.0,127.0,-120.0,-89.0,82.0
127.0,128.0,124.0,127.0,125.0,126.0,127.0,127.0,-1.0,108.0,-66.0,127.0,127.0,127.0,-120.0,-89.0,82.0
127.0,129.0,124.0,127.0,124.0,126.0,127.0,127.0,-1.0,108.0,-66.0,127.0,127.0,127.0,-120.0,-89.0,82.0
127.0,129.0,124.0,127.0,124.0,126.0,127.0,127.0,-1.0,108.0,-66.0,127.0,127.0,127.0,-120.0,-89.0,82.0
127.0,129.0,124.0,127.0,124.0,125.0,127.0,127.0,-1.0,108.0,-66.0,127.0,127.0,127.0,-120.0,-89.0,82.0
127.0,128.0,122.0,127.0,124.0,127.0,153.0,126.0,-1.0,108.0,-65.0,127.0,127.0,127.0,-120.0,-90.0,82.0
127.0,128.0,122.0,127.0,124.0,127.0,153.0,126.0,-1.0,108.0,-65.0,127.0,127.0,127.0,-120.0,-90.0,82.0
127.0,128.0,123.0,127.0,124.0,128.0,147.0,127.0,-1.0,108.0,-65.0,127.0,127.0,127.0,-120.0,-90.0,82.0
127.0,128.0,122.0,127.0,124.0,128.0,148.0,127.0,-1.0,108.0,-65.0,127.0,127.0,127.0,-120.0,-90.0,82.0
127.0,128.0,122.0,127.0,124.0,128.0,149.0,127.0,-1.0,108.0,-65.0,127.0,127.0,127.0,-120.0,-90.0,82.0
127.0,128.0,122.0,127.0,124.0,128.0,150.0,127.0,-1.0,108.0,-65.0,127.0,127.0,127.0,-120.0,-90.0,82.0
127.0,128.0,122.0,127.0,124.0,127.0,151.0,126.0,-1.0,108.0,-65.0,127.0,127.0,127.0,-120.0,-90.0,82.0
127.0,128.0,122.0,127.0,124.0,127.0,151.0,126.0,-1.0,108.0,-65.0,127.0,127.0,127.0,-120.0,-90.0,82.0
127.0,128.0,122.0,127.0,124.0,127.0,152.0,126.0,-1.0,108.0,-65.0,127.0,127.0,127.0,-120.0,-90.0,82.0
127.0,128.0,122.0,127.0,124.0,127.0,152.0,126.0,-1.0,108.0,-65.0,127.0,127.0,127.0,-120.0,-90.0,82.0
127.0,127.0,116.0,127.0,121.0,129.0,171.0,124.0,-1.0,108.0,-64.0,127.0,127.0,127.0,-120.0,-90.0,82.0
126.0,126.0,118.0,127.0,123.0,130.0,165.0,125.0,-1.0,108.0,-64.0,127.0,127.0,127.0,-120.0,-90.0,82.0
126.0,126.0,118.0,127.0,122.0,130.0,165.0,125.0,-1.0,108.0,-64.0,127.0,127.0,127.0,-120.0,-90.0,82.0
126.0,127.0,117.0,127.0,122.0,130.0,166.0,125.0,-1.0,108.0,-64.0,127.0,127.0,127.0,-120.0,-90.0,82.0
126.0,127.0,117.0,127.0,122.0,129.0,167.0,125.0,-1.0,108.0,-64.0,127.0,127.0,127.0,-120.0,-90.0,82.0
126.0,127.0,117.0,127.0,122.0,129.0,168.0,125.0,-1.0,108.0,-64.0,127.0,127.0,127.0,-120.0,-90.0,82.0
126.0,127.0,117.0,127.0,121.0,128.0,169.0,125.0,-1.0,108.0,-64.0,127.0,127.0,127.0,-120.0,-90.0,82.0
126.0,127.0,116.0,127.0,121.0,128.0,169.0,125.0,-1.0,108.0,-64.0,127.0,127.0,127.0,-120.0,-90.0,82.0
126.0,127.0,116.0,127.0,121.0,128.0,170.0,124.0,-1.0,108.0,-64.0,127.0,127.0,127.0,-120.0,-90.0,82.0
126.0,127.0,116.0,127.0,121.0,128.0,171.0,124.0,-1.0,108.0,-64.0,127.0,127.0,127.0,-120.0,-90.0,82.0
127.0,125.0,116.0,127.0,123.0,130.0,128.0,125.0,-1.0,109.0,-64.0,127.0,127.0,127.0,-120.0,-91.0,82.0
126.0,125.0,115.0,127.0,123.0,131.0,127.0,125.0,-1.0,109.0,-64.0,127.0,127.0,127.0,-120.0,-91.0,82.0
127.0,126.0,115.0,127.0,123.0,131.0,127.0,125.0,-1.0,109.0,-64.0,127.0,127.0,127.0,-120.0,-91.0,82.0
127.0,126.0,115.0,127.0,123.0,132.0,126.0,124.0,-1.0,109.0,-64.0,127.0,127.0,127.0,-120.0,-91.0,82.0
127.0,126.0,115.0,127.0,123.0,133.0,125.0,124.0,-1.0,109.0,-64.0,127.0,127.0,127.0,-120.0,-91.0,82.0
126.0,127.0,115.0,127.0,123.0,134.0,124.0,124.0,-1.0,109.0,-64.0,127.0,127.0,127.0,-120.0,-91.0,82.0
126.0,127.0,115.0,127.0,123.0,134.0,123.0,124.0,-1.0,109.0,-64.0,127.0,127.0,127.0,-120.0,-91.0,82.0
126.0,127.0,115.0,127.0,123.0,135.0,122.0,124.0,-1.0,109.0,-64.0,127.0,127.0,127.0,-120.0,-91.0,82.0
126.0,127.0,115.0,127.0,123.0,135.0,121.0,124.0,-1.0,109.0,-64.0,127.0,127.0,127.0,-120.0,-91.0,82.0
126.0,127.0,116.0,127.0,123.0,134.0,120.0,124.0,-1.0,109.0,-64.0,127.0,127.0,127.0,-120.0,-91.0,82.0
127.0,112.0,97.0,127.0,117.0,126.0,99.0,117.0,-1.0,109.0,-64.0,127.0,127.0,127.0,-119.0,-91.0,82.0
127.0,112.0,96.0,127.0,117.0,125.0,100.0,117.0,-1.0,109.0,-64.0,127.0,127.0,127.0,-119.0,-91.0,82.0
127.0,112.0,95.0,127.0,117.0,125.0,100.0,116.0,-1.0,109.0,-64.0,127.0,127.0,127.0,-119.0,-91.0,82.0
127.0,111.0,94.0,127.0,117.0,124.0,101.0,116.0,-1.0,109.0,-64.0,127.0,127.0,127.0,-119.0,-91.0,82.0
127.0,111.0,93.0,127.0,117.0,124.0,102.0,116.0,-1.0,109.0,-64.0,127.0,127.0,127.0,-119.0,-91.0,82.0
127.0,111.0,93.0,127.0,117.0,123.0,103.0,116.0,-1.0,109.0,-64.0,127.0,127.0,127.0,-119.0,-91.0,82.0
127.0,110.0,92.0,127.0,117.0,123.0,103.0,115.0,-1.0,109.0,-64.0,127.0,127.0,127.0,-119.0,-91.0,82.0
127.0,110.0,92.0,127.0,118.0,122.0,104.0,115.0,-1.0,109.0,-64.0,127.0,127.0,127.0,-119.0,-91.0,82.0
127.0,109.0,91.0,127.0,118.0,122.0,105.0,115.0,-1.0,109.0,-64.0,127.0,127.0,127.0,-119.0,-91.0,82.0
127.0,112.0,98.0,127.0,117.0,127.0,99.0,117.0,-1.0,109.0,-64.0,127.0,127.0,127.0,-119.0,-91.0,82.0
127.0,98.0,42.0,127.0,114.0,111.0,199.0,106.0,-1.0,110.0,-65.0,127.0,127.0,127.0,-119.0,-91.0,82.0
127.0,98.0,40.0,127.0,114.0,111.0,203.0,106.0,-1.0,110.0,-65.0,127.0,127.0,127.0,-119.0,-91.0,82.0
127.0,98.0,39.0,127.0,114.0,110.0,206.0,106.0,-1.0,110.0,-65.0,127.0,127.0,127.0,-119.0,-91.0,82.0
126.0,98.0,38.0,127.0,114.0,110.0,209.0,106.0,-1.0,110.0,-65.0,127.0,127.0,127.0,-119.0,-91.0,82.0
126.0,99.0,37.0,127.0,114.0,109.0,212.0,105.0,-1.0,110.0,-65.0,127.0,127.0,127.0,-119.0,-91.0,82.0
126.0,99.0,36.0,127.0,114.0,107.0,215.0,105.0,-1.0,110.0,-65.0,127.0,127.0,127.0,-119.0,-91.0,82.0
126.0,100.0,36.0,127.0,113.0,106.0,218.0,105.0,-1.0,110.0,-65.0,127.0,127.0,127.0,-119.0,-91.0,82.0
126.0,100.0,35.0,127.0,113.0,105.0,221.0,105.0,-1.0,110.0,-65.0,127.0,127.0,127.0,-119.0,-91.0,82.0
126.0,97.0,45.0,127.0,115.0,111.0,193.0,106.0,-1.0,110.0,-65.0,127.0,127.0,127.0,-119.0,-91.0,82.0
126.0,97.0,43.0,127.0,115.0,111.0,196.0,106.0,-1.0,110.0,-65.0,127.0,127.0,127.0,-119.0,-91.0,82.0
127.0,126.0,114.0,127.0,124.0,95.0,234.0,114.0,-1.0,111.0,-66.0,127.0,127.0,127.0,-119.0,-91.0,82.0
127.0,127.0,114.0,127.0,124.0,95.0,232.0,114.0,-1.0,111.0,-66.0,127.0,127.0,127.0,-119.0,-91.0,82.0
127.0,127.0,115.0,127.0,125.0,96.0,230.0,113.0,-1.0,111.0,-66.0,127.0,127.0,127.0,-119.0,-91.0,82.0
127.0,128.0,115.0,127.0,125.0,96.0,228.0,114.0,-1.0,111.0,-66.0,127.0,127.0,127.0,-119.0,-91.0,82.0
127.0,128.0,116.0,127.0,125.0,96.0,225.0,114.0,-1.0,111.0,-66.0,127.0,127.0,127.0,-119.0,-91.0,82.0
127.0,128.0,116.0,127.0,125.0,96.0,223.0,114.0,-1.0,111.0,-66.0,127.0,127.0,127.0,-119.0,-91.0,82.0
127.0,128.0,116.0,127.0,125.0,95.0,220.0,114.0,-1.0,111.0,-66.0,127.0,127.0,127.0,-119.0,-91.0,82.0
127.0,124.0,112.0,127.0,123.0,96.0,240.0,112.0,-1.0,111.0,-66.0,127.0,127.0,127.0,-119.0,-91.0,82.0
127.0,125.0,112.0,127.0,123.0,96.0,238.0,113.0,-1.0,111.0,-66.0,127.0,127.0,127.0,-119.0,-91.0,82.0
127.0,126.0,113.0,127.0,123.0,96.0,236.0,113.0,-1.0,111.0,-66.0,127.0,127.0,127.0,-119.0,-91.0,82.0
127.0,110.0,58.0,127.0,102.0,114.0,240.0,109.0,-1.0,109.0,-66.0,126.0,127.0,127.0,-119.0,-91.0,82.0
127.0,110.0,56.0,127.0,101.0,114.0,246.0,109.0,-1.0,109.0,-66.0,126.0,127.0,127.0,-119.0,-91.0,82.0
127.0,109.0,54.0,127.0,101.0,115.0,251.0,109.0,-1.0,109.0,-66.0,126.0,127.0,127.0,-119.0,-91.0,82.0
126.0,109.0,52.0,127.0,101.0,117.0,254.0,109.0,-1.0,109.0,-66.0,126.0,127.0,127.0,-119.0,-91.0,82.0
126.0,109.0,51.0,127.0,100.0,118.0,254.0,110.0,-1.0,109.0,-66.0,126.0,127.0,127.0,-119.0,-91.0,82.0
127.0,108.0,50.0,127.0,100.0,120.0,254.0,110.0,-1.0,109.0,-66.0,126.0,127.0,127.0,-119.0,-91.0,82.0
127.0,113.0,69.0,127.0,105.0,112.0,220.0,110.0,-1.0,109.0,-66.0,126.0,127.0,127.0,-119.0,-91.0,82.0
127.0,112.0,66.0,127.0,104.0,113.0,225.0,109.0,-1.0,109.0,-66.0,126.0,127.0,127.0,-119.0,-91.0,82.0
127.0,111.0,63.0,127.0,103.0,113.0,230.0,109.0,-1.0,109.0,-66.0,126.0,127.0,127.0,-119.0,-91.0,82.0
127.0,111.0,61.0,127.0,103.0,113.0,235.0,109.0,-1.0,109.0,-66.0,126.0,127.0,127.0,-119.0,-91.0,82.0
127.0,145.0,156.0,127.0,142.0,123.0,254.0,116.0,-1.0,109.0,-66.0,126.0,127.0,127.0,-119.0,-91.0,82.0
127.0,146.0,157.0,127.0,142.0,122.0,254.0,116.0,-1.0,109.0,-66.0,126.0,127.0,127.0,-119.0,-91.0,82.0
127.0,147.0,158.0,127.0,143.0,120.0,254.0,116.0,-1.0,109.0,-66.0,126.0,127.0,127.0,-119.0,-91.0,82.0
127.0,148.0,159.0,127.0,143.0,118.0,254.0,115.0,-1.0,109.0,-66.0,126.0,127.0,127.0,-119.0,-91.0,82.0
127.0,149.0,160.0,127.0,143.0,117.0,254.0,115.0,-1.0,109.0,-66.0,126.0,127.0,127.0,-119.0,-91.0,82.0
127.0,140.0,148.0,127.0,140.0,127.0,254.0,119.0,-1.0,109.0,-66.0,126.0,127.0,127.0,-119.0,-91.0,82.0
127.0,141.0,149.0,127.0,141.0,127.0,254.0,118.0,-1.0,109.0,-66.0,126.0,127.0,127.0,-119.0,-91.0,82.0
127.0,142.0,151.0,127.0,141.0,126.0,254.0,118.0,-1.0,109.0,-66.0,126.0,127.0,127.0,-119.0,-91.0,82.0
127.0,143.0,153.0,127.0,142.0,126.0,254.0,117.0,-1.0,109.0,-66.0,126.0,127.0,127.0,-119.0,-91.0,82.0
127.0,144.0,154.0,127.0,142.0,125.0,254.0,117.0,-1.0,109.0,-66.0,126.0,127.0,127.0,-119.0,-91.0,82.0
127.0,139.0,162.0,127.0,136.0,121.0,242.0,122.0,-1.0,108.0,-66.0,125.0,126.0,127.0,-118.0,-92.0,82.0
127.0,138.0,161.0,127.0,136.0,121.0,239.0,122.0,-1.0,108.0,-66.0,125.0,126.0,127.0,-118.0,-92.0,82.0
126.0,138.0,160.0,127.0,136.0,121.0,236.0,122.0,-1.0,108.0,-66.0,125.0,126.0,127.0,-118.0,-92.0,82.0
126.0,137.0,159.0,127.0,136.0,122.0,233.0,122.0,-1.0,108.0,-66.0,125.0,126.0,127.0,-118.0,-92.0,82.0
127.0,142.0,165.0,127.0,136.0,119.0,254.0,122.0,-1.0,108.0,-66.0,125.0,126.0,127.0,-118.0,-92.0,82.0
127.0,141.0,165.0,127.0,136.0,119.0,253.0,122.0,-1.0,108.0,-66.0,125.0,126.0,127.0,-118.0,-92.0,82.0
127.0,141.0,164.0,127.0,136.0,120.0,251.0,122.0,-1.0,108.0,-66.0,125.0,126.0,127.0,-118.0,-92.0,82.0
127.0,140.0,164.0,127.0,136.0,120.0,249.0,122.0,-1.0,108.0,-66.0,125.0,126.0,127.0,-118.0,-92.0,82.0
127.0,140.0,163.0,127.0,136.0,121.0,247.0,122.0,-1.0,108.0,-66.0,125.0,126.0,127.0,-118.0,-92.0,82.0
127.0,139.0,162.0,127.0,136.0,121.0,245.0,122.0,-1.0,108.0,-66.0,125.0,126.0,127.0,-118.0,-92.0,82.0
127.0,135.0,135.0,127.0,132.0,123.0,113.0,121.0,-1.0,105.0,-66.0,125.0,127.0,127.0,-118.0,-92.0,82.0
127.0,135.0,135.0,127.0,133.0,123.0,111.0,121.0,-1.0,105.0,-66.0,125.0,127.0,127.0,-118.0,-92.0,82.0
127.0,135.0,135.0,127.0,133.0,123.0,109.0,121.0,-1.0,105.0,-66.0,125.0,127.0,127.0,-118.0,-92.0,82.0
126.0,134.0,136.0,127.0,133.0,123.0,127.0,118.0,-1.0,105.0,-66.0,125.0,127.0,127.0,-118.0,-92.0,82.0
126.0,134.0,135.0,127.0,132.0,123.0,125.0,118.0,-1.0,105.0,-66.0,125.0,127.0,127.0,-118.0,-92.0,82.0
126.0,134.0,135.0,127.0,132.0,123.0,123.0,118.0,-1.0,105.0,-66.0,125.0,127.0,127.0,-118.0,-92.0,82.0
126.0,134.0,135.0,127.0,132.0,123.0,121.0,119.0,-1.0,105.0,-66.0,125.0,127.0,127.0,-118.0,-92.0,82.0
126.0,135.0,135.0,127.0,132.0,123.0,119.0,119.0,-1.0,105.0,-66.0,125.0,127.0,127.0,-118.0,-92.0,82.0
126.0,135.0,135.0,127.0,132.0,123.0,117.0,120.0,-1.0,105.0,-66.0,125.0,127.0,127.0,-118.0,-92.0,82.0
127.0,135.0,135.0,127.0,132.0,123.0,115.0,121.0,-1.0,105.0,-66.0,125.0,127.0,127.0,-118.0,-92.0,82.0
127.0,127.0,143.0,127.0,129.0,121.0,97.0,129.0,-1.0,105.0,-66.0,126.0,127.0,127.0,-118.0,-92.0,82.0
127.0,127.0,142.0,127.0,129.0,121.0,99.0,128.0,-1.0,105.0,-66.0,126.0,127.0,127.0,-118.0,-92.0,82.0
127.0,127.0,147.0,127.0,129.0,118.0,85.0,127.0,-1.0,105.0,-66.0,126.0,127.0,127.0,-118.0,-92.0,82.0
127.0,127.0,147.0,127.0,129.0,118.0,86.0,128.0,-1.0,105.0,-66.0,126.0,127.0,127.0,-118.0,-92.0,82.0
127.0,127.0,146.0,127.0,129.0,118.0,87.0,128.0,-1.0,105.0,-66.0,126.0,127.0,127.0,-118.0,-92.0,82.0
127.0,127.0,146.0,127.0,129.0,118.0,89.0,128.0,-1.0,105.0,-66.0,126.0,127.0,127.0,-118.0,-92.0,82.0
127.0,127.0,145.0,127.0,129.0,118.0,90.0,128.0,-1.0,105.0,-66.0,126.0,127.0,127.0,-118.0,-92.0,82.0
127.0,127.0,145.0,127.0,129.0,119.0,92.0,128.0,-1.0,105.0,-66.0,126.0,127.0,127.0,-118.0,-92.0,82.0
127.0,127.0,144.0,127.0,129.0,120.0,94.0,128.0,-1.0,105.0,-66.0,126.0,127.0,127.0,-118.0,-92.0,82.0
127.0,127.0,143.0,127.0,129.0,120.0,95.0,128.0,-1.0,105.0,-66.0,126.0,127.0,127.0,-118.0,-92.0,82.0
127.0,125.0,136.0,127.0,127.0,129.0,193.0,132.0,-1.0,106.0,-67.0,126.0,127.0,127.0,-118.0,-92.0,82.0
126.0,126.0,134.0,127.0,126.0,126.0,175.0,132.0,-1.0,106.0,-67.0,126.0,127.0,127.0,-118.0,-92.0,82.0
126.0,126.0,134.0,127.0,126.0,126.0,177.0,131.0,-1.0,106.0,-67.0,126.0,127.0,127.0,-118.0,-92.0,82.0
126.0,126.0,134.0,127.0,126.0,127.0,179.0,131.0,-1.0,106.0,-67.0,126.0,127.0,127.0,-118.0,-92.0,82.0
127.0,126.0,135.0,127.0,126.0,127.0,181.0,131.0,-1.0,106.0,-67.0,126.0,127.0,127.0,-118.0,-92.0,82.0
127.0,126.0,135.0,127.0,126.0,127.0,183.0,131.0,-1.0,106.0,-67.0,126.0,127.0,127.0,-118.0,-92.0,82.0
127.0,126.0,135.0,127.0,126.0,127.0,186.0,131.0,-1.0,106.0,-67.0,126.0,127.0,127.0,-118.0,-92.0,82.0
127.0,125.0,136.0,127.0,126.0,128.0,188.0,131.0,-1.0,106.0,-67.0,126.0,127.0,127.0,-118.0,-92.0,82.0
127.0,125.0,136.0,127.0,127.0,128.0,189.0,132.0,-1.0,106.0,-67.0,126.0,127.0,127.0,-118.0,-92.0,82.0
127.0,125.0,136.0,127.0,127.0,129.0,191.0,132.0,-1.0,106.0,-67.0,126.0,127.0,127.0,-118.0,-92.0,82.0
127.0,122.0,141.0,127.0,131.0,125.0,183.0,133.0,-1.0,107.0,-68.0,126.0,127.0,127.0,-118.0,-93.0,82.0
127.0,122.0,141.0,127.0,130.0,125.0,181.0,133.0,-1.0,107.0,-68.0,126.0,127.0,127.0,-118.0,-93.0,82.0
127.0,123.0,141.0,127.0,130.0,125.0,180.0,133.0,-1.0,107.0,-68.0,126.0,127.0,127.0,-118.0,-93.0,82.0
127.0,123.0,141.0,127.0,130.0,124.0,178.0,133.0,-1.0,107.0,-68.0,126.0,127.0,127.0,-118.0,-93.0,82.0
127.0,123.0,142.0,127.0,130.0,124.0,175.0,133.0,-1.0,107.0,-68.0,126.0,127.0,127.0,-118.0,-93.0,82.0
127.0,123.0,142.0,127.0,130.0,124.0,173.0,133.0,-1.0,107.0,-68.0,126.0,127.0,127.0,-118.0,-93.0,82.0
126.0,123.0,143.0,127.0,130.0,124.0,171.0,133.0,-1.0,107.0,-68.0,126.0,127.0,127.0,-118.0,-93.0,82.0
126.0,123.0,143.0,127.0,130.0,123.0,169.0,133.0,-1.0,107.0,-68.0,126.0,127.0,127.0,-118.0,-93.0,82.0
126.0,123.0,143.0,127.0,130.0,123.0,167.0,133.0,-1.0,107.0,-68.0,126.0,127.0,127.0,-118.0,-93.0,82.0
126.0,123.0,144.0,127.0,130.0,123.0,165.0,133.0,-1.0,107.0,-68.0,126.0,127.0,127.0,-118.0,-93.0,82.0
127.0,125.0,162.0,127.0,132.0,125.0,79.0,131.0,-1.0,106.0,-70.0,126.0,127.0,127.0,-118.0,-93.0,82.0
127.0,125.0,162.0,127.0,132.0,125.0,78.0,131.0,-1.0,106.0,-70.0,126.0,127.0,127.0,-118.0,-93.0,82.0
127.0,125.0,161.0,127.0,132.0,124.0,78.0,131.0,-1.0,106.0,-70.0,126.0,127.0,127.0,-118.0,-93.0,82.0
127.0,125.0,161.0,127.0,131.0,123.0,77.0,130.0,-1.0,106.0,-70.0,126.0,127.0,127.0,-118.0,-93.0,82.0
127.0,125.0,161.0,127.0,131.0,122.0,76.0,130.0,-1.0,106.0,-70.0,126.0,127.0,127.0,-118.0,-93.0,82.0
127.0,125.0,160.0,127.0,131.0,121.0,75.0,130.0,-1.0,106.0,-70.0,126.0,127.0,127.0,-118.0,-93.0,82.0
127.0,126.0,160.0,127.0,130.0,120.0,73.0,130.0,-1.0,106.0,-70.0,126.0,127.0,127.0,-118.0,-93.0,82.0
127.0,126.0,160.0,127.0,130.0,119.0,72.0,130.0,-1.0,106.0,-70.0,126.0,127.0,127.0,-118.0,-93.0,82.0
127.0,126.0,159.0,127.0,129.0,119.0,71.0,130.0,-1.0,106.0,-70.0,126.0,127.0,127.0,-118.0,-93.0,82.0
127.0,125.0,162.0,127.0,132.0,125.0,80.0,132.0,-1.0,106.0,-70.0,126.0,127.0,127.0,-118.0,-93.0,82.0
127.0,123.0,149.0,127.0,127.0,122.0,63.0,132.0,-1.0,104.0,-71.0,127.0,127.0,127.0,-117.0,-93.0,82.0
127.0,124.0,149.0,127.0,127.0,122.0,63.0,131.0,-1.0,104.0,-71.0,127.0,127.0,127.0,-117.0,-93.0,82.0
127.0,124.0,148.0,127.0,127.0,121.0,64.0,131.0,-1.0,104.0,-71.0,127.0,127.0,127.0,-117.0,-93.0,82.0
126.0,124.0,148.0,127.0,128.0,121.0,64.0,130.0,-1.0,104.0,-71.0,127.0,127.0,127.0,-117.0,-93.0,82.0
127.0,124.0,147.0,127.0,128.0,121.0,65.0,130.0,-1.0,104.0,-71.0,127.0,127.0,127.0,-117.0,-93.0,82.0
126.0,124.0,147.0,127.0,128.0,121.0,65.0,130.0,-1.0,104.0,-71.0,127.0,127.0,127.0,-117.0,-93.0,82.0
127.0,124.0,146.0,127.0,128.0,121.0,65.0,130.0,-1.0,104.0,-71.0,127.0,127.0,127.0,-117.0,-93.0,82.0
127.0,124.0,146.0,127.0,128.0,122.0,66.0,130.0,-1.0,104.0,-71.0,127.0,127.0,127.0,-117.0,-93.0,82.0
127.0,123.0,151.0,127.0,127.0,122.0,62.0,132.0,-1.0,104.0,-71.0,127.0,127.0,127.0,-117.0,-93.0,82.0
127.0,123.0,150.0,127.0,127.0,122.0,62.0,132.0,-1.0,104.0,-71.0,127.0,127.0,127.0,-117.0,-93.0,82.0
127.0,121.0,136.0,127.0,121.0,121.0,77.0,131.0,-1.0,103.0,-72.0,127.0,127.0,127.0,-117.0,-93.0,82.0
127.0,121.0,136.0,127.0,121.0,121.0,78.0,131.0,-1.0,103.0,-72.0,127.0,127.0,127.0,-117.0,-93.0,82.0
127.0,121.0,135.0,127.0,121.0,121.0,78.0,131.0,-1.0,103.0,-72.0,127.0,127.0,127.0,-117.0,-93.0,82.0
127.0,122.0,135.0,127.0,121.0,120.0,79.0,131.0,-1.0,103.0,-72.0,127.0,127.0,127.0,-117.0,-93.0,82.0
127.0,122.0,135.0,127.0,120.0,120.0,79.0,131.0,-1.0,103.0,-72.0,127.0,127.0,127.0,-117.0,-93.0,82.0
127.0,122.0,135.0,127.0,120.0,120.0,79.0,131.0,-1.0,103.0,-72.0,127.0,127.0,127.0,-117.0,-93.0,82.0
127.0,122.0,135.0,127.0,121.0,120.0,80.0,131.0,-1.0,103.0,-72.0,127.0,127.0,127.0,-117.0,-93.0,82.0
126.0,121.0,137.0,127.0,122.0,122.0,75.0,131.0,-1.0,103.0,-72.0,127.0,127.0,127.0,-117.0,-93.0,82.0
127.0,121.0,137.0,127.0,121.0,122.0,76.0,131.0,-1.0,103.0,-72.0,127.0,127.0,127.0,-117.0,-93.0,82.0
127.0,121.0,136.0,127.0,121.0,122.0,77.0,131.0,-1.0,103.0,-72.0,127.0,127.0,127.0,-117.0,-93.0,82.0
126.0,119.0,130.0,127.0,124.0,124.0,102.0,136.0,-1.0,105.0,-73.0,127.0,127.0,127.0,-116.0,-93.0,82.0
127.0,119.0,130.0,127.0,125.0,124.0,103.0,136.0,-1.0,105.0,-73.0,127.0,127.0,127.0,-116.0,-93.0,82.0
126.0,119.0,129.0,127.0,125.0,124.0,103.0,136.0,-1.0,105.0,-73.0,127.0,127.0,127.0,-116.0,-93.0,82.0
126.0,119.0,129.0,127.0,125.0,124.0,103.0,136.0,-1.0,105.0,-73.0,127.0,127.0,127.0,-116.0,-93.0,82.0
126.0,119.0,129.0,127.0,125.0,124.0,104.0,136.0,-1.0,105.0,-73.0,127.0,127.0,127.0,-116.0,-93.0,82.0
126.0,118.0,129.0,127.0,125.0,125.0,104.0,136.0,-1.0,105.0,-73.0,127.0,127.0,127.0,-116.0,-93.0,82.0
127.0,117.0,132.0,127.0,124.0,124.0,100.0,135.0,-1.0,105.0,-73.0,127.0,127.0,127.0,-116.0,-93.0,82.0
127.0,117.0,131.0,127.0,124.0,124.0,101.0,135.0,-1.0,105.0,-73.0,127.0,127.0,127.0,-116.0,-93.0,82.0
126.0,118.0,131.0,127.0,124.0,124.0,101.0,135.0,-1.0,105.0,-73.0,127.0,127.0,127.0,-116.0,-93.0,82.0
126.0,118.0,130.0,127.0,124.0,124.0,102.0,136.0,-1.0,105.0,-73.0,127.0,127.0,127.0,-116.0,-93.0,82.0
126.0,121.0,124.0,127.0,128.0,122.0,108.0,134.0,-1.0,106.0,-72.0,127.0,127.0,127.0,-116.0,-93.0,82.0
127.0,121.0,124.0,127.0,128.0,122.0,108.0,135.0,-1.0,106.0,-72.0,127.0,127.0,127.0,-116.0,-93.0,82.0
127.0,121.0,125.0,127.0,128.0,122.0,108.0,134.0,-1.0,106.0,-72.0,127.0,127.0,127.0,-116.0,-93.0,82.0
127.0,122.0,125.0,127.0,129.0,122.0,108.0,135.0,-1.0,106.0,-72.0,127.0,127.0,127.0,-116.0,-93.0,82.0
127.0,122.0,125.0,127.0,129.0,123.0,108.0,134.0,-1.0,106.0,-72.0,127.0,127.0,127.0,-116.0,-93.0,82.0
126.0,120.0,124.0,127.0,128.0,122.0,108.0,133.0,-1.0,106.0,-72.0,127.0,127.0,127.0,-116.0,-93.0,82.0
126.0,120.0,124.0,127.0,128.0,121.0,108.0,133.0,-1.0,106.0,-72.0,127.0,127.0,127.0,-116.0,-93.0,82.0
126.0,120.0,124.0,127.0,128.0,121.0,108.0,134.0,-1.0,106.0,-72.0,127.0,127.0,127.0,-116.0,-93.0,82.0
126.0,121.0,124.0,127.0,128.0,121.0,108.0,134.0,-1.0,106.0,-72.0,127.0,127.0,127.0,-116.0,-93.0,82.0
126.0,121.0,124.0,127.0,128.0,121.0,108.0,134.0,-1.0,106.0,-72.0,127.0,127.0,127.0,-116.0,-93.0,82.0
127.0,125.0,131.0,127.0,125.0,123.0,102.0,124.0,-1.0,106.0,-71.0,127.0,127.0,127.0,-116.0,-93.0,82.0
127.0,125.0,131.0,128.0,125.0,123.0,102.0,124.0,-1.0,106.0,-71.0,127.0,127.0,127.0,-116.0,-93.0,82.0
127.0,125.0,131.0,127.0,124.0,123.0,102.0,125.0,-1.0,106.0,-71.0,127.0,127.0,127.0,-116.0,-93.0,82.0
127.0,125.0,131.0,127.0,124.0,123.0,102.0,125.0,-1.0,106.0,-71.0,127.0,127.0,127.0,-116.0,-93.0,82.0
127.0,123.0,133.0,127.0,126.0,125.0,102.0,128.0,-1.0,106.0,-71.0,127.0,127.0,127.0,-116.0,-93.0,82.0
127.0,124.0,133.0,127.0,126.0,124.0,102.0,128.0,-1.0,106.0,-71.0,127.0,127.0,127.0,-116.0,-93.0,82.0
127.0,124.0,132.0,127.0,126.0,124.0,102.0,127.0,-1.0,106.0,-71.0,127.0,127.0,127.0,-116.0,-93.0,82.0
127.0,124.0,132.0,127.0,126.0,123.0,102.0,126.0,-1.0,106.0,-71.0,127.0,127.0,127.0,-116.0,-93.0,82.0
127.0,124.0,132.0,127.0,125.0,123.0,102.0,125.0,-1.0,106.0,-71.0,127.0,127.0,127.0,-116.0,-93.0,82.0
127.0,124.0,131.0,127.0,125.0,123.0,102.0,125.0,-1.0,106.0,-71.0,127.0,127.0,127.0,-116.0,-93.0,82.0
127.0,124.0,126.0,127.0,124.0,125.0,116.0,126.0,-1.0,105.0,-69.0,127.0,127.0,127.0,-116.0,-93.0,82.0
127.0,124.0,126.0,127.0,124.0,126.0,116.0,126.0,-1.0,105.0,-69.0,127.0,127.0,127.0,-116.0,-93.0,82.0
127.0,124.0,126.0,127.0,124.0,126.0,116.0,127.0,-1.0,105.0,-69.0,127.0,127.0,127.0,-116.0,-93.0,82.0
127.0,123.0,129.0,127.0,124.0,124.0,113.0,127.0,-1.0,105.0,-69.0,127.0,127.0,127.0,-116.0,-93.0,82.0
127.0,124.0,128.0,127.0,124.0,124.0,114.0,127.0,-1.0,105.0,-69.0,127.0,127.0,127.0,-116.0,-93.0,82.0
127.0,124.0,128.0,127.0,124.0,124.0,114.0,126.0,-1.0,105.0,-69.0,127.0,127.0,127.0,-116.0,-93.0,82.0
127.0,124.0,128.0,127.0,124.0,124.0,115.0,125.0,-1.0,105.0,-69.0,127.0,127.0,127.0,-116.0,-93.0,82.0
127.0,124.0,127.0,127.0,124.0,124.0,115.0,125.0,-1.0,105.0,-69.0,127.0,127.0,127.0,-116.0,-93.0,82.0
127.0,124.0,127.0,127.0,124.0,125.0,115.0,125.0,-1.0,105.0,-69.0,127.0,127.0,127.0,-116.0,-93.0,82.0
127.0,124.0,127.0,127.0,124.0,125.0,116.0,125.0,-1.0,105.0,-69.0,127.0,127.0,127.0,-116.0,-93.0,82.0
126.0,120.0,122.0,127.0,122.0,127.0,131.0,132.0,-1.0,106.0,-68.0,127.0,127.0,127.0,-116.0,-93.0,82.0
126.0,120.0,122.0,127.0,122.0,128.0,131.0,132.0,-1.0,106.0,-68.0,127.0,127.0,127.0,-116.0,-93.0,82.0
127.0,120.0,126.0,127.0,123.0,124.0,128.0,135.0,-1.0,106.0,-68.0,127.0,127.0,127.0,-116.0,-93.0,82.0
127.0,120.0,125.0,127.0,123.0,124.0,129.0,134.0,-1.0,106.0,-68.0,127.0,127.0,127.0,-116.0,-93.0,82.0
127.0,120.0,125.0,127.0,122.0,125.0,130.0,134.0,-1.0,106.0,-68.0,127.0,127.0,127.0,-116.0,-93.0,82.0
127.0,120.0,124.0,127.0,122.0,125.0,130.0,133.0,-1.0,106.0,-68.0,127.0,127.0,127.0,-116.0,-93.0,82.0
127.0,120.0,124.0,127.0,122.0,126.0,130.0,133.0,-1.0,106.0,-68.0,127.0,127.0,127.0,-116.0,-93.0,82.0
127.0,120.0,123.0,127.0,122.0,126.0,130.0,132.0,-1.0,106.0,-68.0,127.0,127.0,127.0,-116.0,-93.0,82.0
127.0,120.0,123.0,127.0,122.0,127.0,131.0,132.0,-1.0,106.0,-68.0,127.0,127.0,127.0,-116.0,-93.0,82.0
126.0,120.0,122.0,127.0,122.0,127.0,131.0,132.0,-1.0,106.0,-68.0,127.0,127.0,127.0,-116.0,-93.0,82.0
127.0,123.0,125.0,127.0,120.0,123.0,126.0,134.0,-1.0,106.0,-67.0,127.0,127.0,127.0,-116.0,-93.0,82.0
126.0,121.0,126.0,127.0,124.0,123.0,126.0,132.0,-1.0,106.0,-67.0,127.0,127.0,127.0,-116.0,-93.0,82.0
126.0,121.0,126.0,127.0,124.0,122.0,126.0,132.0,-1.0,106.0,-67.0,127.0,127.0,127.0,-116.0,-93.0,82.0
126.0,121.0,126.0,127.0,123.0,122.0,127.0,132.0,-1.0,106.0,-67.0,127.0,127.0,127.0,-116.0,-93.0,82.0
126.0,121.0,125.0,127.0,122.0,122.0,126.0,132.0,-1.0,106.0,-67.0,127.0,127.0,127.0,-116.0,-93.0,82.0
126.0,122.0,125.0,127.0,122.0,122.0,126.0,132.0,-1.0,106.0,-67.0,127.0,127.0,127.0,-116.0,-93.0,82.0
126.0,122.0,125.0,127.0,121.0,123.0,127.0,133.0,-1.0,106.0,-67.0,127.0,127.0,127.0,-116.0,-93.0,82.0
127.0,122.0,125.0,127.0,121.0,123.0,127.0,133.0,-1.0,106.0,-67.0,127.0,127.0,127.0,-116.0,-93.0,82.0
127.0,122.0,125.0,127.0,120.0,123.0,127.0,133.0,-1.0,106.0,-67.0,127.0,127.0,127.0,-116.0,-93.0,82.0
127.0,123.0,125.0,127.0,120.0,123.0,127.0,134.0,-1.0,106.0,-67.0,127.0,127.0,127.0,-116.0,-93.0,82.0
127.0,122.0,131.0,127.0,129.0,124.0,117.0,132.0,-1.0,106.0,-67.0,127.0,127.0,127.0,-116.0,-93.0,82.0
127.0,122.0,130.0,127.0,129.0,123.0,117.0,132.0,-1.0,106.0,-67.0,127.0,127.0,127.0,-116.0,-93.0,82.0
127.0,122.0,130.0,127.0,129.0,123.0,117.0,132.0,-1.0,106.0,-67.0,127.0,127.0,127.0,-116.0,-93.0,82.0
127.0,122.0,130.0,127.0,129.0,123.0,117.0,131.0,-1.0,106.0,-67.0,127.0,127.0,127.0,-116.0,-93.0,82.0
126.0,123.0,129.0,127.0,128.0,123.0,117.0,131.0,-1.0,106.0,-67.0,127.0,127.0,127.0,-116.0,-93.0,82.0
126.0,123.0,129.0,127.0,128.0,123.0,118.0,131.0,-1.0,106.0,-67.0,127.0,127.0,127.0,-116.0,-93.0,82.0
126.0,123.0,128.0,127.0,128.0,123.0,118.0,131.0,-1.0,106.0,-67.0,127.0,127.0,127.0,-116.0,-93.0,82.0
126.0,124.0,128.0,127.0,128.0,123.0,118.0,131.0,-1.0,106.0,-67.0,127.0,127.0,127.0,-116.0,-93.0,82.0
126.0,124.0,128.0,127.0,127.0,122.0,118.0,131.0,-1.0,106.0,-67.0,127.0,127.0,127.0,-116.0,-93.0,82.0
126.0,125.0,128.0,127.0,127.0,122.0,118.0,132.0,-1.0,106.0,-67.0,127.0,127.0,127.0,-116.0,-93.0,82.0
126.0,126.0,126.0,127.0,126.0,125.0,112.0,130.0,-1.0,105.0,-67.0,127.0,127.0,127.0,-116.0,-93.0,82.0
126.0,126.0,126.0,127.0,126.0,125.0,113.0,130.0,-1.0,105.0,-67.0,127.0,127.0,127.0,-116.0,-93.0,82.0
126.0,127.0,126.0,127.0,127.0,126.0,113.0,130.0,-1.0,105.0,-67.0,127.0,127.0,127.0,-116.0,-93.0,82.0
126.0,127.0,125.0,127.0,127.0,127.0,113.0,130.0,-1.0,105.0,-67.0,127.0,127.0,127.0,-116.0,-93.0,82.0
126.0,127.0,125.0,127.0,127.0,127.0,113.0,129.0,-1.0,105.0,-67.0,127.0,127.0,127.0,-116.0,-93.0,82.0
127.0,127.0,125.0,127.0,128.0,128.0,113.0,129.0,-1.0,105.0,-67.0,127.0,127.0,127.0,-116.0,-93.0,82.0
127.0,128.0,125.0,127.0,128.0,128.0,113.0,129.0,-1.0,105.0,-67.0,127.0,127.0,127.0,-116.0,-93.0,82.0
127.0,128.0,126.0,127.0,128.0,129.0,113.0,129.0,-1.0,105.0,-67.0,127.0,127.0,127.0,-116.0,-93.0,82.0
127.0,128.0,126.0,127.0,129.0,128.0,113.0,129.0,-1.0,105.0,-67.0,127.0,127.0,127.0,-116.0,-93.0,82.0
126.0,125.0,127.0,127.0,126.0,124.0,112.0,130.0,-1.0,105.0,-67.0,127.0,127.0,127.0,-116.0,-93.0,82.0
127.0,129.0,125.0,128.0,123.0,129.0,117.0,128.0,-1.0,104.0,-66.0,127.0,127.0,127.0,-116.0,-93.0,82.0
127.0,129.0,124.0,128.0,123.0,128.0,118.0,127.0,-1.0,104.0,-66.0,127.0,127.0,127.0,-116.0,-93.0,82.0
127.0,129.0,124.0,127.0,123.0,128.0,118.0,127.0,-1.0,104.0,-66.0,127.0,127.0,127.0,-116.0,-93.0,82.0
127.0,129.0,124.0,127.0,123.0,128.0,119.0,127.0,-1.0,104.0,-66.0,127.0,127.0,127.0,-116.0,-93.0,82.0
127.0,129.0,123.0,127.0,123.0,128.0,119.0,127.0,-1.0,104.0,-66.0,127.0,127.0,127.0,-116.0,-93.0,82.0
127.0,129.0,123.0,127.0,124.0,128.0,119.0,127.0,-1.0,104.0,-66.0,127.0,127.0,127.0,-116.0,-93.0,82.0
127.0,128.0,123.0,127.0,124.0,129.0,120.0,127.0,-1.0,104.0,-66.0,127.0,127.0,127.0,-116.0,-93.0,82.0
127.0,128.0,123.0,127.0,124.0,129.0,120.0,127.0,-1.0,104.0,-66.0,127.0,127.0,127.0,-116.0,-93.0,82.0
127.0,128.0,125.0,127.0,123.0,128.0,117.0,128.0,-1.0,104.0,-66.0,127.0,127.0,127.0,-116.0,-93.0,82.0
127.0,129.0,125.0,127.0,123.0,128.0,117.0,128.0,-1.0,104.0,-66.0,127.0,127.0,127.0,-116.0,-93.0,82.0
126.0,122.0,120.0,127.0,126.0,125.0,128.0,134.0,-1.0,104.0,-66.0,127.0,127.0,127.0,-116.0,-93.0,82.0
126.0,122.0,119.0,127.0,126.0,126.0,128.0,134.0,-1.0,104.0,-66.0,127.0,127.0,127.0,-116.0,-93.0,82.0
127.0,122.0,118.0,127.0,126.0,126.0,128.0,135.0,-1.0,104.0,-66.0,127.0,127.0,127.0,-116.0,-93.0,82.0
127.0,123.0,118.0,127.0,126.0,126.0,128.0,135.0,-1.0,104.0,-66.0,127.0,127.0,127.0,-116.0,-93.0,82.0
127.0,123.0,118.0,127.0,126.0,126.0,129.0,135.0,-1.0,104.0,-66.0,127.0,127.0,127.0,-116.0,-93.0,82.0
127.0,123.0,118.0,127.0,126.0,126.0,129.0,136.0,-1.0,104.0,-66.0,127.0,127.0,127.0,-116.0,-93.0,82.0
127.0,123.0,118.0,127.0,126.0,126.0,129.0,136.0,-1.0,104.0,-66.0,127.0,127.0,127.0,-116.0,-93.0,82.0
126.0,122.0,122.0,127.0,127.0,124.0,127.0,134.0,-1.0,104.0,-66.0,127.0,127.0,127.0,-116.0,-93.0,82.0
126.0,122.0,121.0,127.0,127.0,125.0,127.0,134.0,-1.0,104.0,-66.0,127.0,127.0,127.0,-116.0,-93.0,82.0
126.0,122.0,120.0,127.0,127.0,125.0,128.0,134.0,-1.0,104.0,-66.0,127.0,127.0,127.0,-116.0,-93.0,82.0
126.0,119.0,124.0,127.0,128.0,125.0,129.0,139.0,-1.0,106.0,-67.0,127.0,127.0,127.0,-116.0,-93.0,82.0
126.0,119.0,124.0,127.0,128.0,125.0,129.0,139.0,-1.0,106.0,-67.0,127.0,127.0,127.0,-116.0,-93.0,82.0
126.0,119.0,124.0,127.0,128.0,125.0,129.0,139.0,-1.0,106.0,-67.0,127.0,127.0,127.0,-116.0,-93.0,82.0
126.0,119.0,124.0,127.0,128.0,126.0,129.0,139.0,-1.0,106.0,-67.0,127.0,127.0,127.0,-116.0,-93.0,82.0
126.0,119.0,124.0,127.0,128.0,126.0,129.0,139.0,-1.0,106.0,-67.0,127.0,127.0,127.0,-116.0,-93.0,82.0
126.0,119.0,124.0,127.0,129.0,126.0,129.0,139.0,-1.0,106.0,-67.0,127.0,127.0,127.0,-116.0,-93.0,82.0
127.0,119.0,124.0,127.0,127.0,126.0,129.0,140.0,-1.0,106.0,-67.0,127.0,127.0,127.0,-116.0,-93.0,82.0
126.0,119.0,124.0,127.0,127.0,126.0,129.0,140.0,-1.0,106.0,-67.0,127.0,127.0,127.0,-116.0,-93.0,82.0
126.0,119.0,124.0,127.0,127.0,125.0,129.0,140.0,-1.0,106.0,-67.0,127.0,127.0,127.0,-116.0,-93.0,82.0
126.0,119.0,124.0,127.0,127.0,125.0,129.0,139.0,-1.0,106.0,-67.0,127.0,127.0,127.0,-116.0,-93.0,82.0
127.0,123.0,126.0,127.0,126.0,126.0,126.0,134.0,-1.0,106.0,-68.0,127.0,127.0,127.0,-116.0,-93.0,82.0
127.0,124.0,125.0,127.0,126.0,125.0,126.0,133.0,-1.0,106.0,-68.0,127.0,127.0,127.0,-116.0,-93.0,82.0
127.0,124.0,125.0,127.0,126.0,125.0,126.0,133.0,-1.0,106.0,-68.0,127.0,127.0,127.0,-116.0,-93.0,82.0
127.0,124.0,125.0,127.0,126.0,124.0,126.0,133.0,-1.0,106.0,-68.0,127.0,127.0,127.0,-116.0,-93.0,82.0
127.0,124.0,124.0,127.0,126.0,124.0,126.0,133.0,-1.0,106.0,-68.0,127.0,127.0,127.0,-116.0,-93.0,82.0
127.0,123.0,127.0,127.0,127.0,127.0,125.0,135.0,-1.0,106.0,-68.0,127.0,127.0,127.0,-116.0,-93.0,82.0
127.0,123.0,127.0,127.0,127.0,126.0,125.0,135.0,-1.0,106.0,-68.0,127.0,127.0,127.0,-116.0,-93.0,82.0
127.0,123.0,126.0,127.0,127.0,126.0,126.0,134.0,-1.0,106.0,-68.0,127.0,127.0,127.0,-116.0,-93.0,82.0
127.0,123.0,126.0,127.0,126.0,126.0,126.0,134.0,-1.0,106.0,-68.0,127.0,127.0,127.0,-116.0,-93.0,82.0
127.0,123.0,126.0,127.0,126.0,126.0,126.0,134.0,-1.0,106.0,-68.0,127.0,127.0,127.0,-116.0,-93.0,82.0
127.0,127.0,132.0,127.0,122.0,126.0,127.0,129.0,-1.0,105.0,-68.0,127.0,127.0,127.0,-115.0,-93.0,82.0
127.0,127.0,132.0,127.0,122.0,126.0,127.0,129.0,-1.0,105.0,-68.0,127.0,127.0,127.0,-115.0,-93.0,82.0
127.0,128.0,132.0,127.0,122.0,125.0,127.0,128.0,-1.0,105.0,-68.0,127.0,127.0,127.0,-115.0,-93.0,82.0
127.0,128.0,132.0,127.0,122.0,125.0,127.0,128.0,-1.0,105.0,-68.0,127.0,127.0,127.0,-115.0,-93.0,82.0
127.0,126.0,133.0,127.0,123.0,125.0,126.0,131.0,-1.0,105.0,-68.0,127.0,127.0,127.0,-115.0,-93.0,82.0
127.0,126.0,133.0,127.0,123.0,125.0,127.0,130.0,-1.0,105.0,-68.0,127.0,127.0,127.0,-115.0,-93.0,82.0
127.0,127.0,133.0,127.0,122.0,125.0,127.0,130.0,-1.0,105.0,-68.0,127.0,127.0,127.0,-115.0,-93.0,82.0
127.0,127.0,133.0,127.0,122.0,125.0,127.0,130.0,-1.0,105.0,-68.0,127.0,127.0,127.0,-115.0,-93.0,82.0
127.0,127.0,133.0,127.0,122.0,125.0,127.0,129.0,-1.0,105.0,-68.0,127.0,127.0,127.0,-115.0,-93.0,82.0
126.0,127.0,132.0,127.0,122.0,126.0,127.0,129.0,-1.0,105.0,-68.0,127.0,127.0,127.0,-115.0,-93.0,82.0
127.0,124.0,128.0,127.0,123.0,127.0,129.0,128.0,-1.0,105.0,-68.0,127.0,127.0,127.0,-115.0,-93.0,82.0
127.0,124.0,127.0,127.0,123.0,127.0,130.0,128.0,-1.0,105.0,-68.0,127.0,127.0,127.0,-115.0,-93.0,82.0
127.0,124.0,127.0,127.0,123.0,127.0,130.0,128.0,-1.0,105.0,-68.0,127.0,127.0,127.0,-115.0,-93.0,82.0
127.0,123.0,132.0,127.0,124.0,126.0,128.0,128.0,-1.0,105.0,-68.0,127.0,127.0,127.0,-115.0,-93.0,82.0
127.0,123.0,131.0,127.0,124.0,126.0,128.0,128.0,-1.0,105.0,-68.0,127.0,127.0,127.0,-115.0,-93.0,82.0
127.0,123.0,130.0,127.0,124.0,126.0,129.0,128.0,-1.0,105.0,-68.0,127.0,127.0,127.0,-115.0,-93.0,82.0
127.0,123.0,130.0,127.0,123.0,126.0,129.0,128.0,-1.0,105.0,-68.0,127.0,127.0,127.0,-115.0,-93.0,82.0
127.0,124.0,129.0,127.0,123.0,126.0,129.0,128.0,-1.0,105.0,-68.0,127.0,127.0,127.0,-115.0,-93.0,82.0
127.0,124.0,129.0,127.0,123.0,126.0,129.0,128.0,-1.0,105.0,-68.0,127.0,127.0,127.0,-115.0,-93.0,82.0
127.0,124.0,128.0,127.0,123.0,127.0,129.0,128.0,-1.0,105.0,-68.0,127.0,127.0,127.0,-115.0,-93.0,82.0
126.0,123.0,125.0,127.0,124.0,127.0,131.0,130.0,-1.0,106.0,-68.0,127.0,127.0,127.0,-115.0,-93.0,82.0
126.0,123.0,125.0,127.0,124.0,127.0,131.0,130.0,-1.0,106.0,-68.0,127.0,127.0,127.0,-115.0,-93.0,82.0
127.0,121.0,126.0,127.0,125.0,128.0,130.0,131.0,-1.0,106.0,-68.0,127.0,127.0,127.0,-115.0,-93.0,82.0
126.0,121.0,126.0,127.0,125.0,128.0,131.0,131.0,-1.0,106.0,-68.0,127.0,127.0,127.0,-115.0,-93.0,82.0
126.0,122.0,126.0,127.0,125.0,128.0,131.0,131.0,-1.0,106.0,-68.0,127.0,127.0,127.0,-115.0,-93.0,82.0
127.0,122.0,126.0,127.0,125.0,128.0,131.0,131.0,-1.0,106.0,-68.0,127.0,127.0,127.0,-115.0,-93.0,82.0
126.0,122.0,125.0,127.0,124.0,128.0,131.0,131.0,-1.0,106.0,-68.0,127.0,127.0,127.0,-115.0,-93.0,82.0
126.0,122.0,125.0,127.0,124.0,128.0,131.0,131.0,-1.0,106.0,-68.0,127.0,127.0,127.0,-115.0,-93.0,82.0
126.0,122.0,125.0,127.0,124.0,127.0,131.0,131.0,-1.0,106.0,-68.0,127.0,127.0,127.0,-115.0,-93.0,82.0
126.0,123.0,125.0,127.0,124.0,127.0,131.0,130.0,-1.0,106.0,-68.0,127.0,127.0,127.0,-115.0,-93.0,82.0
127.0,126.0,127.0,127.0,125.0,127.0,123.0,129.0,-1.0,106.0,-68.0,127.0,127.0,127.0,-115.0,-93.0,82.0
126.0,124.0,130.0,127.0,125.0,127.0,124.0,130.0,-1.0,106.0,-68.0,127.0,127.0,127.0,-115.0,-93.0,82.0
127.0,125.0,130.0,127.0,125.0,127.0,124.0,130.0,-1.0,106.0,-68.0,127.0,127.0,127.0,-115.0,-93.0,82.0
127.0,125.0,129.0,127.0,125.0,127.0,124.0,130.0,-1.0,106.0,-68.0,127.0,127.0,127.0,-115.0,-93.0,82.0
127.0,125.0,129.0,127.0,125.0,127.0,124.0,129.0,-1.0,106.0,-68.0,127.0,127.0,127.0,-115.0,-93.0,82.0
127.0,125.0,128.0,127.0,125.0,127.0,124.0,129.0,-1.0,106.0,-68.0,127.0,127.0,127.0,-115.0,-93.0,82.0
127.0,126.0,128.0,127.0,125.0,127.0,124.0,129.0,-1.0,106.0,-68.0,127.0,127.0,127.0,-115.0,-93.0,82.0
127.0,126.0,128.0,127.0,124.0,127.0,123.0,129.0,-1.0,106.0,-68.0,127.0,127.0,127.0,-115.0,-93.0,82.0
127.0,126.0,127.0,127.0,125.0,127.0,123.0,129.0,-1.0,106.0,-68.0,127.0,127.0,127.0,-115.0,-93.0,82.0
127.0,126.0,127.0,127.0,125.0,127.0,123.0,129.0,-1.0,106.0,-68.0,127.0,127.0,127.0,-115.0,-93.0,82.0
127.0,125.0,129.0,127.0,126.0,128.0,114.0,131.0,-1.0,106.0,-69.0,127.0,127.0,127.0,-115.0,-93.0,82.0
127.0,126.0,129.0,127.0,126.0,128.0,114.0,131.0,-1.0,106.0,-69.0,127.0,127.0,127.0,-115.0,-93.0,82.0
127.0,126.0,128.0,127.0,125.0,127.0,114.0,131.0,-1.0,106.0,-69.0,127.0,127.0,127.0,-115.0,-93.0,82.0
127.0,126.0,128.0,127.0,125.0,128.0,114.0,131.0,-1.0,106.0,-69.0,127.0,127.0,127.0,-115.0,-93.0,82.0
127.0,127.0,127.0,127.0,125.0,128.0,114.0,131.0,-1.0,106.0,-69.0,127.0,127.0,127.0,-115.0,-93.0,82.0
127.0,127.0,127.0,128.0,125.0,127.0,113.0,131.0,-1.0,106.0,-69.0,127.0,127.0,127.0,-115.0,-93.0,82.0
127.0,127.0,126.0,127.0,124.0,127.0,113.0,130.0,-1.0,106.0,-69.0,127.0,127.0,127.0,-115.0,-93.0,82.0
127.0,127.0,126.0,127.0,124.0,127.0,112.0,130.0,-1.0,106.0,-69.0,127.0,127.0,127.0,-115.0,-93.0,82.0
127.0,127.0,126.0,127.0,124.0,127.0,112.0,130.0,-1.0,106.0,-69.0,127.0,127.0,127.0,-115.0,-93.0,82.0
127.0,127.0,126.0,127.0,124.0,127.0,112.0,130.0,-1.0,106.0,-69.0,127.0,127.0,127.0,-115.0,-93.0,82.0
127.0,123.0,128.0,127.0,127.0,124.0,91.0,130.0,-1.0,106.0,-69.0,127.0,127.0,127.0,-115.0,-93.0,82.0
127.0,124.0,127.0,127.0,127.0,125.0,91.0,130.0,-1.0,106.0,-69.0,127.0,127.0,127.0,-115.0,-93.0,82.0
127.0,124.0,127.0,127.0,126.0,125.0,91.0,130.0,-1.0,106.0,-69.0,127.0,127.0,127.0,-115.0,-93.0,82.0
127.0,124.0,126.0,127.0,126.0,125.0,91.0,130.0,-1.0,106.0,-69.0,127.0,127.0,127.0,-115.0,-93.0,82.0
127.0,124.0,126.0,127.0,126.0,125.0,91.0,130.0,-1.0,106.0,-69.0,127.0,127.0,127.0,-115.0,-93.0,82.0
127.0,124.0,126.0,127.0,126.0,125.0,91.0,130.0,-1.0,106.0,-69.0,127.0,127.0,127.0,-115.0,-93.0,82.0
127.0,124.0,125.0,127.0,126.0,125.0,91.0,129.0,-1.0,106.0,-69.0,127.0,127.0,127.0,-115.0,-93.0,82.0
127.0,124.0,125.0,127.0,126.0,125.0,91.0,129.0,-1.0,106.0,-69.0,127.0,127.0,127.0,-115.0,-93.0,82.0
126.0,124.0,125.0,127.0,126.0,124.0,90.0,129.0,-1.0,106.0,-69.0,127.0,127.0,127.0,-115.0,-93.0,82.0
126.0,123.0,128.0,127.0,127.0,125.0,91.0,130.0,-1.0,106.0,-69.0,127.0,127.0,127.0,-115.0,-93.0,82.0
126.0,117.0,121.0,127.0,130.0,122.0,75.0,128.0,-1.0,105.0,-70.0,127.0,127.0,127.0,-115.0,-93.0,82.0
126.0,117.0,121.0,127.0,130.0,122.0,75.0,128.0,-1.0,105.0,-70.0,127.0,127.0,127.0,-115.0,-93.0,82.0
126.0,117.0,120.0,127.0,130.0,122.0,76.0,127.0,-1.0,105.0,-70.0,127.0,127.0,127.0,-115.0,-93.0,82.0
126.0,118.0,120.0,127.0,130.0,121.0,76.0,127.0,-1.0,105.0,-70.0,127.0,127.0,127.0,-115.0,-93.0,82.0
126.0,118.0,119.0,127.0,130.0,121.0,76.0,127.0,-1.0,105.0,-70.0,127.0,127.0,127.0,-115.0,-93.0,82.0
126.0,118.0,119.0,127.0,130.0,121.0,76.0,127.0,-1.0,105.0,-70.0,127.0,127.0,127.0,-115.0,-93.0,82.0
126.0,118.0,119.0,127.0,130.0,121.0,76.0,126.0,-1.0,105.0,-70.0,127.0,127.0,127.0,-115.0,-93.0,82.0
127.0,118.0,118.0,127.0,130.0,121.0,76.0,126.0,-1.0,105.0,-70.0,127.0,127.0,127.0,-115.0,-93.0,82.0
126.0,117.0,123.0,127.0,131.0,122.0,75.0,128.0,-1.0,105.0,-70.0,127.0,127.0,127.0,-115.0,-93.0,82.0
126.0,117.0,122.0,127.0,130.0,122.0,75.0,128.0,-1.0,105.0,-70.0,127.0,127.0,127.0,-115.0,-93.0,82.0
127.0,115.0,114.0,127.0,129.0,122.0,96.0,125.0,-1.0,106.0,-70.0,127.0,127.0,127.0,-115.0,-93.0,82.0
127.0,115.0,114.0,127.0,129.0,122.0,96.0,125.0,-1.0,106.0,-70.0,127.0,127.0,127.0,-115.0,-93.0,82.0
127.0,115.0,113.0,127.0,129.0,123.0,97.0,125.0,-1.0,106.0,-70.0,127.0,127.0,127.0,-115.0,-93.0,82.0
126.0,115.0,113.0,127.0,129.0,123.0,97.0,124.0,-1.0,106.0,-70.0,127.0,127.0,127.0,-115.0,-93.0,82.0
127.0,116.0,112.0,127.0,129.0,123.0,98.0,124.0,-1.0,106.0,-70.0,127.0,127.0,127.0,-115.0,-93.0,82.0
127.0,116.0,112.0,127.0,129.0,123.0,98.0,124.0,-1.0,106.0,-70.0,127.0,127.0,127.0,-115.0,-93.0,82.0
127.0,116.0,112.0,127.0,129.0,123.0,98.0,124.0,-1.0,106.0,-70.0,127.0,127.0,127.0,-115.0,-93.0,82.0
127.0,114.0,115.0,127.0,130.0,122.0,94.0,125.0,-1.0,106.0,-70.0,127.0,127.0,127.0,-115.0,-93.0,82.0
127.0,115.0,115.0,127.0,129.0,122.0,95.0,125.0,-1.0,106.0,-70.0,127.0,127.0,127.0,-115.0,-93.0,82.0
127.0,115.0,114.0,127.0,129.0,122.0,95.0,125.0,-1.0,106.0,-70.0,127.0,127.0,127.0,-115.0,-93.0,82.0
127.0,115.0,119.0,127.0,128.0,125.0,96.0,125.0,-1.0,106.0,-70.0,127.0,127.0,127.0,-115.0,-93.0,82.0
127.0,115.0,119.0,127.0,128.0,125.0,96.0,125.0,-1.0,106.0,-70.0,127.0,127.0,127.0,-115.0,-93.0,82.0
127.0,116.0,119.0,127.0,128.0,125.0,97.0,124.0,-1.0,106.0,-70.0,127.0,127.0,127.0,-115.0,-93.0,82.0
127.0,116.0,118.0,127.0,128.0,125.0,97.0,124.0,-1.0,106.0,-70.0,127.0,127.0,127.0,-115.0,-93.0,82.0
127.0,116.0,118.0,127.0,128.0,125.0,97.0,124.0,-1.0,106.0,-70.0,127.0,127.0,127.0,-115.0,-93.0,82.0
127.0,116.0,118.0,127.0,128.0,125.0,97.0,124.0,-1.0,106.0,-70.0,127.0,127.0,127.0,-115.0,-93.0,82.0
127.0,114.0,120.0,127.0,129.0,125.0,95.0,125.0,-1.0,106.0,-70.0,127.0,127.0,127.0,-115.0,-93.0,82.0
127.0,115.0,119.0,127.0,129.0,125.0,95.0,125.0,-1.0,106.0,-70.0,127.0,127.0,127.0,-115.0,-93.0,82.0
127.0,115.0,119.0,127.0,129.0,125.0,95.0,125.0,-1.0,106.0,-70.0,127.0,127.0,127.0,-115.0,-93.0,82.0
127.0,115.0,119.0,127.0,129.0,125.0,96.0,125.0,-1.0,106.0,-70.0,127.0,127.0,127.0,-115.0,-93.0,82.0
126.0,117.0,117.0,127.0,126.0,126.0,92.0,123.0,-1.0,106.0,-70.0,127.0,127.0,127.0,-115.0,-93.0,82.0
126.0,117.0,117.0,127.0,126.0,126.0,93.0,123.0,-1.0,106.0,-70.0,127.0,127.0,127.0,-115.0,-93.0,82.0
126.0,117.0,117.0,127.0,126.0,126.0,93.0,123.0,-1.0,106.0,-70.0,127.0,127.0,127.0,-115.0,-93.0,82.0
126.0,117.0,116.0,127.0,126.0,126.0,93.0,122.0,-1.0,106.0,-70.0,127.0,127.0,127.0,-115.0,-93.0,82.0
126.0,117.0,116.0,127.0,126.0,126.0,93.0,122.0,-1.0,106.0,-70.0,127.0,127.0,127.0,-115.0,-93.0,82.0
127.0,115.0,120.0,127.0,127.0,127.0,91.0,124.0,-1.0,106.0,-70.0,127.0,127.0,127.0,-115.0,-93.0,82.0
127.0,116.0,119.0,127.0,127.0,126.0,91.0,124.0,-1.0,106.0,-70.0,127.0,127.0,127.0,-115.0,-93.0,82.0
127.0,116.0,119.0,127.0,127.0,126.0,91.0,123.0,-1.0,106.0,-70.0,127.0,127.0,127.0,-115.0,-93.0,82.0
126.0,116.0,118.0,127.0,126.0,126.0,92.0,123.0,-1.0,106.0,-70.0,127.0,127.0,127.0,-115.0,-93.0,82.0
126.0,116.0,118.0,127.0,126.0,126.0,92.0,123.0,-1.0,106.0,-70.0,127.0,127.0,127.0,-115.0,-93.0,82.0
127.0,120.0,115.0,127.0,126.0,128.0,104.0,125.0,-1.0,106.0,-69.0,127.0,127.0,127.0,-115.0,-93.0,82.0
127.0,120.0,114.0,127.0,126.0,128.0,105.0,125.0,-1.0,106.0,-69.0,127.0,127.0,127.0,-115.0,-93.0,82.0
127.0,120.0,114.0,127.0,126.0,128.0,105.0,125.0,-1.0,106.0,-69.0,127.0,127.0,127.0,-115.0,-93.0,82.0
127.0,120.0,114.0,127.0,126.0,128.0,106.0,124.0,-1.0,106.0,-69.0,127.0,127.0,127.0,-115.0,-93.0,82.0
127.0,118.0,117.0,127.0,127.0,129.0,101.0,126.0,-1.0,106.0,-69.0,127.0,127.0,127.0,-115.0,-93.0,82.0
127.0,119.0,116.0,127.0,127.0,129.0,101.0,125.0,-1.0,106.0,-69.0,127.0,127.0,127.0,-115.0,-93.0,82.0
127.0,119.0,116.0,127.0,127.0,128.0,102.0,125.0,-1.0,106.0,-69.0,127.0,127.0,127.0,-115.0,-93.0,82.0
127.0,119.0,116.0,127.0,126.0,128.0,103.0,125.0,-1.0,106.0,-69.0,127.0,127.0,127.0,-115.0,-93.0,82.0
127.0,119.0,115.0,127.0,126.0,128.0,103.0,125.0,-1.0,106.0,-69.0,127.0,127.0,127.0,-115.0,-93.0,82.0
127.0,120.0,115.0,127.0,126.0,128.0,104.0,125.0,-1.0,106.0,-69.0,127.0,127.0,127.0,-115.0,-93.0,82.0
127.0,120.0,111.0,127.0,127.0,129.0,130.0,126.0,-1.0,105.0,-68.0,127.0,127.0,127.0,-115.0,-93.0,82.0
127.0,121.0,111.0,127.0,126.0,129.0,131.0,126.0,-1.0,105.0,-68.0,127.0,127.0,127.0,-115.0,-93.0,82.0
127.0,121.0,111.0,127.0,126.0,129.0,132.0,126.0,-1.0,105.0,-68.0,127.0,127.0,127.0,-115.0,-93.0,82.0
127.0,119.0,114.0,127.0,128.0,129.0,124.0,127.0,-1.0,105.0,-68.0,127.0,127.0,127.0,-115.0,-93.0,82.0
127.0,119.0,114.0,127.0,128.0,129.0,125.0,127.0,-1.0,105.0,-68.0,127.0,127.0,127.0,-115.0,-93.0,82.0
127.0,120.0,113.0,127.0,127.0,129.0,126.0,127.0,-1.0,105.0,-68.0,127.0,127.0,127.0,-115.0,-93.0,82.0
127.0,120.0,112.0,127.0,127.0,129.0,127.0,127.0,-1.0,105.0,-68.0,127.0,127.0,127.0,-115.0,-93.0,82.0
127.0,120.0,112.0,127.0,127.0,129.0,128.0,127.0,-1.0,105.0,-68.0,127.0,127.0,127.0,-115.0,-93.0,82.0
127.0,120.0,112.0,127.0,127.0,129.0,129.0,126.0,-1.0,105.0,-68.0,127.0,127.0,127.0,-115.0,-93.0,82.0
127.0,120.0,112.0,127.0,127.0,129.0,129.0,126.0,-1.0,105.0,-68.0,127.0,127.0,127.0,-115.0,-93.0,82.0
127.0,123.0,112.0,127.0,125.0,132.0,137.0,126.0,-1.0,106.0,-66.0,127.0,127.0,127.0,-115.0,-93.0,82.0
127.0,123.0,112.0,127.0,125.0,132.0,136.0,126.0,-1.0,106.0,-66.0,127.0,127.0,127.0,-115.0,-93.0,82.0
127.0,121.0,115.0,127.0,126.0,131.0,144.0,126.0,-1.0,106.0,-66.0,127.0,127.0,127.0,-115.0,-93.0,82.0
127.0,121.0,114.0,127.0,126.0,131.0,143.0,126.0,-1.0,106.0,-66.0,127.0,127.0,127.0,-115.0,-93.0,82.0
127.0,121.0,114.0,127.0,125.0,131.0,142.0,126.0,-1.0,106.0,-66.0,127.0,127.0,127.0,-115.0,-93.0,82.0
127.0,122.0,113.0,127.0,125.0,131.0,142.0,126.0,-1.0,106.0,-66.0,127.0,127.0,127.0,-115.0,-93.0,82.0
127.0,122.0,113.0,127.0,125.0,131.0,141.0,126.0,-1.0,106.0,-66.0,127.0,127.0,127.0,-115.0,-93.0,82.0
127.0,122.0,113.0,127.0,125.0,131.0,140.0,126.0,-1.0,106.0,-66.0,127.0,127.0,127.0,-115.0,-93.0,82.0
