emg1,emg2,emg3,emg4,emg5,emg6,emg7,emg8,acc_x,acc_y,acc_z,gyro_x,gyro_y,gyro_z,angle_pitch,angle_roll,angle_yaw
127.0,127.0,128.0,127.0,126.0,130.0,126.0,128.0,22.0,-104.0,-76.0,127.0,127.0,127.0,112.0,85.0,-94.0
127.0,127.0,128.0,126.0,126.0,129.0,126.0,128.0,22.0,-104.0,-76.0,127.0,127.0,127.0,112.0,85.0,-94.0
127.0,127.0,128.0,127.0,126.0,129.0,126.0,128.0,22.0,-104.0,-76.0,127.0,127.0,127.0,112.0,85.0,-94.0
127.0,127.0,128.0,126.0,126.0,130.0,126.0,128.0,22.0,-104.0,-76.0,127.0,127.0,127.0,112.0,85.0,-94.0
127.0,127.0,128.0,126.0,126.0,130.0,126.0,128.0,22.0,-104.0,-76.0,127.0,127.0,127.0,112.0,85.0,-94.0
127.0,127.0,128.0,126.0,126.0,130.0,126.0,128.0,22.0,-104.0,-76.0,127.0,127.0,127.0,112.0,85.0,-94.0
127.0,127.0,128.0,126.0,126.0,130.0,126.0,128.0,22.0,-104.0,-76.0,127.0,127.0,127.0,112.0,85.0,-94.0
126.0,127.0,128.0,126.0,126.0,128.0,126.0,127.0,22.0,-104.0,-76.0,127.0,127.0,127.0,112.0,85.0,-94.0
126.0,127.0,128.0,126.0,126.0,129.0,126.0,127.0,22.0,-104.0,-76.0,127.0,127.0,127.0,112.0,85.0,-94.0
126.0,127.0,128.0,126.0,126.0,128.0,126.0,127.0,22.0,-104.0,-76.0,127.0,127.0,127.0,112.0,85.0,-94.0
127.0,127.0,128.0,126.0,126.0,129.0,126.0,127.0,22.0,-104.0,-76.0,127.0,127.0,127.0,112.0,85.0,-94.0
127.0,127.0,128.0,126.0,126.0,129.0,126.0,127.0,22.0,-104.0,-76.0,127.0,127.0,127.0,112.0,85.0,-94.0
126.0,126.0,128.0,126.0,126.0,128.0,126.0,127.0,22.0,-104.0,-76.0,127.0,127.0,127.0,112.0,85.0,-94.0
126.0,126.0,128.0,126.0,126.0,128.0,126.0,127.0,22.0,-104.0,-76.0,127.0,127.0,127.0,112.0,85.0,-94.0
126.0,126.0,128.0,126.0,126.0,128.0,126.0,127.0,22.0,-104.0,-76.0,127.0,127.0,127.0,112.0,85.0,-94.0
126.0,126.0,128.0,126.0,126.0,128.0,126.0,127.0,22.0,-104.0,-76.0,127.0,127.0,127.0,112.0,85.0,-94.0
126.0,126.0,128.0,126.0,126.0,128.0,126.0,127.0,22.0,-104.0,-76.0,127.0,127.0,127.0,112.0,85.0,-94.0
126.0,126.0,127.0,126.0,126.0,129.0,125.0,127.0,22.0,-103.0,-77.0,127.0,127.0,127.0,112.0,85.0,-94.0
126.0,126.0,128.0,126.0,126.0,129.0,125.0,127.0,22.0,-103.0,-77.0,127.0,127.0,127.0,112.0,85.0,-94.0
126.0,126.0,128.0,126.0,126.0,128.0,125.0,127.0,22.0,-103.0,-77.0,127.0,127.0,127.0,112.0,85.0,-94.0
126.0,126.0,128.0,126.0,126.0,128.0,125.0,127.0,22.0,-103.0,-77.0,127.0,127.0,127.0,112.0,85.0,-94.0
126.0,126.0,128.0,126.0,126.0,128.0,125.0,127.0,22.0,-103.0,-77.0,127.0,127.0,127.0,112.0,85.0,-94.0
126.0,126.0,128.0,125.0,126.0,128.0,125.0,127.0,22.0,-103.0,-77.0,127.0,127.0,127.0,112.0,85.0,-94.0
126.0,126.0,128.0,126.0,126.0,129.0,124.0,127.0,22.0,-103.0,-77.0,127.0,127.0,127.0,112.0,85.0,-94.0
126.0,126.0,128.0,126.0,126.0,129.0,125.0,127.0,22.0,-103.0,-77.0,127.0,127.0,127.0,112.0,85.0,-94.0
126.0,126.0,128.0,126.0,126.0,129.0,125.0,127.0,22.0,-103.0,-77.0,127.0,127.0,127.0,112.0,85.0,-94.0
126.0,127.0,128.0,126.0,126.0,129.0,124.0,127.0,22.0,-103.0,-77.0,127.0,127.0,127.0,112.0,85.0,-94.0
125.0,124.0,129.0,126.0,126.0,127.0,124.0,127.0,22.0,-103.0,-77.0,127.0,127.0,127.0,112.0,85.0,-94.0
125.0,124.0,129.0,126.0,126.0,127.0,124.0,127.0,22.0,-103.0,-77.0,127.0,127.0,127.0,112.0,85.0,-94.0
125.0,125.0,129.0,126.0,126.0,128.0,124.0,127.0,22.0,-103.0,-77.0,127.0,127.0,127.0,112.0,85.0,-94.0
125.0,125.0,129.0,126.0,126.0,128.0,124.0,127.0,22.0,-103.0,-77.0,127.0,127.0,127.0,112.0,85.0,-94.0
125.0,124.0,129.0,126.0,126.0,128.0,124.0,127.0,22.0,-103.0,-77.0,127.0,127.0,127.0,112.0,85.0,-94.0
125.0,124.0,129.0,126.0,126.0,128.0,124.0,127.0,22.0,-103.0,-77.0,127.0,127.0,127.0,112.0,85.0,-94.0
125.0,124.0,129.0,126.0,126.0,128.0,124.0,127.0,22.0,-103.0,-77.0,127.0,127.0,127.0,112.0,85.0,-94.0
125.0,124.0,129.0,126.0,126.0,128.0,124.0,127.0,22.0,-103.0,-77.0,127.0,127.0,127.0,112.0,85.0,-94.0
125.0,124.0,129.0,126.0,126.0,128.0,124.0,127.0,22.0,-103.0,-77.0,127.0,127.0,127.0,112.0,85.0,-94.0
125.0,124.0,129.0,126.0,126.0,127.0,124.0,127.0,22.0,-103.0,-77.0,127.0,127.0,127.0,112.0,85.0,-94.0
125.0,125.0,128.0,126.0,126.0,129.0,124.0,127.0,22.0,-103.0,-77.0,127.0,127.0,127.0,112.0,85.0,-94.0
124.0,124.0,129.0,126.0,126.0,128.0,124.0,127.0,22.0,-103.0,-77.0,127.0,127.0,127.0,112.0,85.0,-94.0
124.0,124.0,129.0,126.0,126.0,128.0,123.0,127.0,22.0,-103.0,-77.0,127.0,127.0,127.0,112.0,85.0,-94.0
124.0,124.0,129.0,126.0,126.0,128.0,124.0,127.0,22.0,-103.0,-77.0,127.0,127.0,127.0,112.0,85.0,-94.0
124.0,124.0,129.0,126.0,126.0,128.0,124.0,127.0,22.0,-103.0,-77.0,127.0,127.0,127.0,112.0,85.0,-94.0
124.0,124.0,129.0,126.0,126.0,128.0,124.0,127.0,22.0,-103.0,-77.0,127.0,127.0,127.0,112.0,85.0,-94.0
124.0,124.0,129.0,126.0,126.0,128.0,124.0,127.0,22.0,-103.0,-77.0,127.0,127.0,127.0,112.0,85.0,-94.0
124.0,125.0,129.0,126.0,126.0,129.0,124.0,126.0,22.0,-103.0,-77.0,127.0,127.0,127.0,112.0,85.0,-94.0
125.0,125.0,128.0,126.0,126.0,129.0,124.0,127.0,22.0,-103.0,-77.0,127.0,127.0,127.0,112.0,85.0,-94.0
125.0,125.0,128.0,126.0,126.0,129.0,124.0,127.0,22.0,-103.0,-77.0,127.0,127.0,127.0,112.0,85.0,-94.0
126.0,126.0,128.0,127.0,127.0,129.0,126.0,127.0,21.0,-103.0,-77.0,127.0,127.0,127.0,112.0,85.0,-94.0
126.0,126.0,128.0,127.0,127.0,129.0,126.0,127.0,21.0,-103.0,-77.0,127.0,127.0,127.0,112.0,85.0,-94.0
125.0,126.0,128.0,127.0,127.0,128.0,126.0,128.0,21.0,-103.0,-77.0,127.0,127.0,127.0,112.0,85.0,-94.0
125.0,126.0,128.0,127.0,127.0,128.0,126.0,128.0,21.0,-103.0,-77.0,127.0,127.0,127.0,112.0,85.0,-94.0
125.0,126.0,128.0,127.0,127.0,128.0,126.0,128.0,21.0,-103.0,-77.0,127.0,127.0,127.0,112.0,85.0,-94.0
125.0,126.0,128.0,127.0,127.0,128.0,126.0,128.0,21.0,-103.0,-77.0,127.0,127.0,127.0,112.0,85.0,-94.0
126.0,126.0,128.0,127.0,127.0,128.0,126.0,128.0,21.0,-103.0,-77.0,127.0,127.0,127.0,112.0,85.0,-94.0
126.0,126.0,128.0,127.0,127.0,128.0,126.0,128.0,21.0,-103.0,-77.0,127.0,127.0,127.0,112.0,85.0,-94.0
126.0,126.0,128.0,127.0,127.0,128.0,127.0,128.0,21.0,-103.0,-77.0,127.0,127.0,127.0,112.0,85.0,-94.0
126.0,126.0,128.0,127.0,127.0,127.0,127.0,128.0,21.0,-103.0,-77.0,127.0,127.0,127.0,112.0,85.0,-94.0
127.0,127.0,126.0,127.0,127.0,127.0,127.0,128.0,21.0,-104.0,-77.0,127.0,127.0,127.0,112.0,85.0,-94.0
127.0,127.0,126.0,127.0,127.0,127.0,128.0,128.0,21.0,-104.0,-77.0,127.0,127.0,127.0,112.0,85.0,-94.0
127.0,127.0,126.0,127.0,127.0,127.0,128.0,128.0,21.0,-104.0,-77.0,127.0,127.0,127.0,112.0,85.0,-94.0
127.0,127.0,126.0,127.0,127.0,126.0,128.0,128.0,21.0,-104.0,-77.0,127.0,127.0,127.0,112.0,85.0,-94.0
127.0,127.0,126.0,127.0,127.0,126.0,128.0,128.0,21.0,-104.0,-77.0,127.0,127.0,127.0,112.0,85.0,-94.0
127.0,127.0,126.0,127.0,127.0,127.0,127.0,128.0,21.0,-104.0,-77.0,127.0,127.0,127.0,112.0,85.0,-94.0
127.0,127.0,126.0,127.0,127.0,127.0,127.0,128.0,21.0,-104.0,-77.0,127.0,127.0,127.0,112.0,85.0,-94.0
127.0,127.0,126.0,127.0,127.0,127.0,128.0,128.0,21.0,-104.0,-77.0,127.0,127.0,127.0,112.0,85.0,-94.0
127.0,127.0,126.0,127.0,127.0,126.0,128.0,128.0,21.0,-104.0,-77.0,127.0,127.0,127.0,112.0,85.0,-94.0
127.0,127.0,126.0,127.0,127.0,127.0,127.0,128.0,21.0,-104.0,-77.0,127.0,127.0,127.0,112.0,85.0,-94.0
126.0,126.0,128.0,126.0,127.0,127.0,126.0,127.0,21.0,-104.0,-77.0,127.0,127.0,127.0,112.0,85.0,-94.0
126.0,126.0,128.0,126.0,127.0,127.0,126.0,127.0,21.0,-104.0,-77.0,127.0,127.0,127.0,112.0,85.0,-94.0
126.0,126.0,128.0,126.0,127.0,127.0,126.0,127.0,21.0,-104.0,-77.0,127.0,127.0,127.0,112.0,85.0,-94.0
126.0,126.0,128.0,126.0,127.0,127.0,126.0,127.0,21.0,-104.0,-77.0,127.0,127.0,127.0,112.0,85.0,-94.0
126.0,126.0,128.0,126.0,126.0,127.0,126.0,127.0,21.0,-104.0,-77.0,127.0,127.0,127.0,112.0,85.0,-94.0
126.0,126.0,128.0,126.0,126.0,127.0,126.0,127.0,21.0,-104.0,-77.0,127.0,127.0,127.0,112.0,85.0,-94.0
126.0,126.0,128.0,126.0,126.0,127.0,126.0,127.0,21.0,-104.0,-77.0,127.0,127.0,127.0,112.0,85.0,-94.0
126.0,126.0,128.0,126.0,126.0,127.0,126.0,127.0,21.0,-104.0,-77.0,127.0,127.0,127.0,112.0,85.0,-94.0
126.0,126.0,128.0,126.0,126.0,127.0,126.0,127.0,21.0,-104.0,-77.0,127.0,127.0,127.0,112.0,85.0,-94.0
126.0,126.0,127.0,126.0,127.0,127.0,126.0,127.0,21.0,-104.0,-77.0,127.0,127.0,127.0,112.0,85.0,-94.0
126.0,126.0,127.0,126.0,127.0,129.0,125.0,127.0,21.0,-104.0,-77.0,127.0,127.0,127.0,112.0,85.0,-94.0
127.0,127.0,127.0,127.0,127.0,129.0,125.0,127.0,21.0,-104.0,-77.0,127.0,127.0,127.0,112.0,85.0,-94.0
127.0,127.0,127.0,127.0,127.0,129.0,125.0,127.0,21.0,-104.0,-77.0,127.0,127.0,127.0,112.0,85.0,-94.0
126.0,127.0,127.0,127.0,127.0,129.0,125.0,127.0,21.0,-104.0,-77.0,127.0,127.0,127.0,112.0,85.0,-94.0
126.0,127.0,127.0,127.0,127.0,129.0,125.0,127.0,21.0,-104.0,-77.0,127.0,127.0,127.0,112.0,85.0,-94.0
126.0,126.0,127.0,127.0,127.0,129.0,125.0,127.0,21.0,-104.0,-77.0,127.0,127.0,127.0,112.0,85.0,-94.0
126.0,126.0,127.0,127.0,127.0,128.0,125.0,127.0,21.0,-104.0,-77.0,127.0,127.0,127.0,112.0,85.0,-94.0
126.0,126.0,127.0,126.0,127.0,129.0,125.0,127.0,21.0,-104.0,-77.0,127.0,127.0,127.0,112.0,85.0,-94.0
127.0,127.0,127.0,126.0,127.0,129.0,125.0,127.0,21.0,-104.0,-77.0,127.0,127.0,127.0,112.0,85.0,-94.0
127.0,126.0,127.0,127.0,127.0,129.0,125.0,127.0,21.0,-104.0,-77.0,127.0,127.0,127.0,112.0,85.0,-94.0
125.0,125.0,128.0,126.0,126.0,128.0,125.0,127.0,21.0,-103.0,-77.0,127.0,127.0,127.0,112.0,85.0,-94.0
125.0,125.0,128.0,126.0,126.0,128.0,125.0,127.0,21.0,-103.0,-77.0,127.0,127.0,127.0,112.0,85.0,-94.0
125.0,125.0,128.0,126.0,126.0,128.0,125.0,127.0,21.0,-103.0,-77.0,127.0,127.0,127.0,112.0,85.0,-94.0
126.0,126.0,128.0,126.0,126.0,129.0,125.0,127.0,21.0,-103.0,-77.0,127.0,127.0,127.0,112.0,85.0,-94.0
126.0,126.0,128.0,126.0,127.0,129.0,125.0,127.0,21.0,-103.0,-77.0,127.0,127.0,127.0,112.0,85.0,-94.0
126.0,126.0,128.0,126.0,127.0,128.0,125.0,127.0,21.0,-103.0,-77.0,127.0,127.0,127.0,112.0,85.0,-94.0
125.0,125.0,128.0,126.0,127.0,127.0,125.0,127.0,21.0,-103.0,-77.0,127.0,127.0,127.0,112.0,85.0,-94.0
125.0,125.0,128.0,126.0,126.0,127.0,125.0,127.0,21.0,-103.0,-77.0,127.0,127.0,127.0,112.0,85.0,-94.0
125.0,125.0,128.0,126.0,126.0,127.0,125.0,127.0,21.0,-103.0,-77.0,127.0,127.0,127.0,112.0,85.0,-94.0
125.0,125.0,128.0,126.0,126.0,128.0,125.0,127.0,21.0,-103.0,-77.0,127.0,127.0,127.0,112.0,85.0,-94.0
125.0,124.0,128.0,126.0,126.0,128.0,123.0,126.0,22.0,-103.0,-77.0,127.0,127.0,127.0,112.0,85.0,-94.0
125.0,124.0,128.0,126.0,126.0,128.0,123.0,126.0,22.0,-103.0,-77.0,127.0,127.0,127.0,112.0,85.0,-94.0
125.0,124.0,128.0,126.0,126.0,128.0,123.0,126.0,22.0,-103.0,-77.0,127.0,127.0,127.0,112.0,85.0,-94.0
125.0,124.0,128.0,126.0,126.0,128.0,123.0,126.0,22.0,-103.0,-77.0,127.0,127.0,127.0,112.0,85.0,-94.0
125.0,124.0,128.0,126.0,126.0,128.0,123.0,126.0,22.0,-103.0,-77.0,127.0,127.0,127.0,112.0,85.0,-94.0
124.0,124.0,129.0,126.0,126.0,128.0,124.0,126.0,22.0,-103.0,-77.0,127.0,127.0,127.0,112.0,85.0,-94.0
124.0,123.0,129.0,126.0,126.0,127.0,123.0,126.0,22.0,-103.0,-77.0,127.0,127.0,127.0,112.0,85.0,-94.0
124.0,123.0,129.0,126.0,126.0,128.0,123.0,126.0,22.0,-103.0,-77.0,127.0,127.0,127.0,112.0,85.0,-94.0
124.0,123.0,129.0,126.0,126.0,128.0,123.0,126.0,22.0,-103.0,-77.0,127.0,127.0,127.0,112.0,85.0,-94.0
125.0,124.0,128.0,126.0,127.0,128.0,123.0,126.0,22.0,-103.0,-77.0,127.0,127.0,127.0,112.0,85.0,-94.0
124.0,123.0,128.0,126.0,126.0,129.0,121.0,126.0,23.0,-103.0,-77.0,127.0,127.0,127.0,112.0,85.0,-94.0
124.0,123.0,128.0,126.0,126.0,130.0,121.0,126.0,23.0,-103.0,-77.0,127.0,127.0,127.0,112.0,85.0,-94.0
124.0,123.0,128.0,126.0,126.0,130.0,121.0,126.0,23.0,-103.0,-77.0,127.0,127.0,127.0,112.0,85.0,-94.0
124.0,123.0,128.0,126.0,126.0,130.0,121.0,127.0,23.0,-103.0,-77.0,127.0,127.0,127.0,112.0,85.0,-94.0
124.0,123.0,129.0,126.0,126.0,129.0,121.0,126.0,23.0,-103.0,-77.0,127.0,127.0,127.0,112.0,85.0,-94.0
124.0,123.0,129.0,126.0,126.0,128.0,121.0,126.0,23.0,-103.0,-77.0,127.0,127.0,127.0,112.0,85.0,-94.0
123.0,122.0,129.0,126.0,126.0,129.0,121.0,126.0,23.0,-103.0,-77.0,127.0,127.0,127.0,112.0,85.0,-94.0
123.0,122.0,129.0,126.0,126.0,129.0,121.0,126.0,23.0,-103.0,-77.0,127.0,127.0,127.0,112.0,85.0,-94.0
124.0,123.0,129.0,126.0,126.0,129.0,121.0,126.0,23.0,-103.0,-77.0,127.0,127.0,127.0,112.0,85.0,-94.0
124.0,123.0,129.0,126.0,126.0,129.0,121.0,126.0,23.0,-103.0,-77.0,127.0,127.0,127.0,112.0,85.0,-94.0
124.0,124.0,127.0,126.0,126.0,128.0,124.0,128.0,25.0,-103.0,-77.0,127.0,127.0,127.0,112.0,85.0,-94.0
124.0,124.0,127.0,126.0,126.0,128.0,124.0,128.0,25.0,-103.0,-77.0,127.0,127.0,127.0,112.0,85.0,-94.0
124.0,124.0,127.0,126.0,126.0,128.0,124.0,128.0,25.0,-103.0,-77.0,127.0,127.0,127.0,112.0,85.0,-94.0
124.0,123.0,128.0,126.0,126.0,128.0,124.0,128.0,25.0,-103.0,-77.0,127.0,127.0,127.0,112.0,85.0,-94.0
124.0,123.0,128.0,126.0,126.0,128.0,124.0,128.0,25.0,-103.0,-77.0,127.0,127.0,127.0,112.0,85.0,-94.0
124.0,123.0,128.0,126.0,126.0,128.0,124.0,128.0,25.0,-103.0,-77.0,127.0,127.0,127.0,112.0,85.0,-94.0
124.0,123.0,128.0,126.0,126.0,128.0,124.0,128.0,25.0,-103.0,-77.0,127.0,127.0,127.0,112.0,85.0,-94.0
124.0,124.0,127.0,126.0,126.0,129.0,124.0,127.0,25.0,-103.0,-77.0,127.0,127.0,127.0,112.0,85.0,-94.0
124.0,124.0,127.0,126.0,126.0,129.0,124.0,128.0,25.0,-103.0,-77.0,127.0,127.0,127.0,112.0,85.0,-94.0
124.0,124.0,127.0,126.0,126.0,129.0,124.0,128.0,25.0,-103.0,-77.0,127.0,127.0,127.0,112.0,85.0,-94.0
126.0,126.0,125.0,127.0,127.0,128.0,128.0,129.0,25.0,-103.0,-77.0,127.0,127.0,127.0,112.0,85.0,-94.0
126.0,126.0,125.0,127.0,127.0,128.0,128.0,129.0,25.0,-103.0,-77.0,127.0,127.0,127.0,112.0,85.0,-94.0
125.0,125.0,126.0,127.0,127.0,127.0,127.0,129.0,25.0,-103.0,-77.0,127.0,127.0,127.0,112.0,85.0,-94.0
125.0,126.0,125.0,127.0,127.0,127.0,127.0,129.0,25.0,-103.0,-77.0,127.0,127.0,127.0,112.0,85.0,-94.0
125.0,126.0,126.0,127.0,127.0,128.0,127.0,129.0,25.0,-103.0,-77.0,127.0,127.0,127.0,112.0,85.0,-94.0
125.0,126.0,126.0,127.0,127.0,127.0,128.0,129.0,25.0,-103.0,-77.0,127.0,127.0,127.0,112.0,85.0,-94.0
125.0,126.0,126.0,127.0,127.0,127.0,128.0,129.0,25.0,-103.0,-77.0,127.0,127.0,127.0,112.0,85.0,-94.0
125.0,126.0,126.0,127.0,127.0,127.0,128.0,129.0,25.0,-103.0,-77.0,127.0,127.0,127.0,112.0,85.0,-94.0
125.0,126.0,126.0,127.0,127.0,127.0,128.0,129.0,25.0,-103.0,-77.0,127.0,127.0,127.0,112.0,85.0,-94.0
125.0,126.0,125.0,127.0,127.0,128.0,128.0,129.0,25.0,-103.0,-77.0,127.0,127.0,127.0,112.0,85.0,-94.0
126.0,127.0,126.0,127.0,127.0,128.0,128.0,129.0,26.0,-103.0,-77.0,127.0,127.0,127.0,112.0,85.0,-94.0
125.0,126.0,126.0,127.0,127.0,128.0,128.0,128.0,26.0,-103.0,-77.0,127.0,127.0,127.0,112.0,85.0,-94.0
125.0,127.0,126.0,127.0,127.0,129.0,128.0,128.0,26.0,-103.0,-77.0,127.0,127.0,127.0,112.0,85.0,-94.0
125.0,127.0,126.0,127.0,127.0,129.0,128.0,128.0,26.0,-103.0,-77.0,127.0,127.0,127.0,112.0,85.0,-94.0
125.0,127.0,126.0,127.0,127.0,129.0,128.0,128.0,26.0,-103.0,-77.0,127.0,127.0,127.0,112.0,85.0,-94.0
126.0,127.0,126.0,127.0,127.0,129.0,128.0,128.0,26.0,-103.0,-77.0,127.0,127.0,127.0,112.0,85.0,-94.0
126.0,127.0,126.0,127.0,127.0,129.0,128.0,128.0,26.0,-103.0,-77.0,127.0,127.0,127.0,112.0,85.0,-94.0
126.0,127.0,126.0,127.0,127.0,129.0,128.0,129.0,26.0,-103.0,-77.0,127.0,127.0,127.0,112.0,85.0,-94.0
126.0,127.0,126.0,127.0,127.0,129.0,128.0,128.0,26.0,-103.0,-77.0,127.0,127.0,127.0,112.0,85.0,-94.0
126.0,127.0,126.0,127.0,127.0,129.0,128.0,129.0,26.0,-103.0,-77.0,127.0,127.0,127.0,112.0,85.0,-94.0
126.0,128.0,125.0,127.0,126.0,126.0,128.0,128.0,26.0,-104.0,-77.0,127.0,127.0,127.0,112.0,85.0,-94.0
126.0,128.0,125.0,127.0,126.0,126.0,128.0,128.0,26.0,-104.0,-77.0,127.0,127.0,127.0,112.0,85.0,-94.0
126.0,127.0,125.0,127.0,126.0,126.0,128.0,128.0,26.0,-104.0,-77.0,127.0,127.0,127.0,112.0,85.0,-94.0
126.0,127.0,125.0,127.0,126.0,126.0,128.0,128.0,26.0,-104.0,-77.0,127.0,127.0,127.0,112.0,85.0,-94.0
126.0,128.0,124.0,127.0,126.0,126.0,128.0,128.0,26.0,-104.0,-77.0,127.0,127.0,127.0,112.0,85.0,-94.0
126.0,128.0,124.0,127.0,127.0,126.0,128.0,128.0,26.0,-104.0,-77.0,127.0,127.0,127.0,112.0,85.0,-94.0
126.0,128.0,124.0,127.0,127.0,126.0,128.0,128.0,26.0,-104.0,-77.0,127.0,127.0,127.0,112.0,85.0,-94.0
126.0,128.0,124.0,127.0,127.0,126.0,128.0,128.0,26.0,-104.0,-77.0,127.0,127.0,127.0,112.0,85.0,-94.0
127.0,129.0,124.0,127.0,127.0,127.0,128.0,128.0,26.0,-104.0,-77.0,127.0,127.0,127.0,112.0,85.0,-94.0
127.0,129.0,124.0,127.0,127.0,127.0,129.0,128.0,26.0,-104.0,-77.0,127.0,127.0,127.0,112.0,85.0,-94.0
127.0,129.0,124.0,127.0,127.0,126.0,130.0,128.0,25.0,-104.0,-76.0,127.0,127.0,127.0,112.0,85.0,-94.0
127.0,129.0,125.0,127.0,127.0,126.0,130.0,128.0,25.0,-104.0,-76.0,127.0,127.0,127.0,112.0,85.0,-94.0
127.0,129.0,124.0,127.0,126.0,126.0,130.0,128.0,25.0,-104.0,-76.0,127.0,127.0,127.0,112.0,85.0,-94.0
127.0,129.0,124.0,127.0,126.0,126.0,130.0,128.0,25.0,-104.0,-76.0,127.0,127.0,127.0,112.0,85.0,-94.0
127.0,130.0,124.0,127.0,127.0,127.0,130.0,128.0,25.0,-104.0,-76.0,127.0,127.0,127.0,112.0,85.0,-94.0
127.0,130.0,124.0,127.0,127.0,126.0,130.0,128.0,25.0,-104.0,-76.0,127.0,127.0,127.0,112.0,85.0,-94.0
127.0,130.0,124.0,127.0,127.0,126.0,130.0,128.0,25.0,-104.0,-76.0,127.0,127.0,127.0,112.0,85.0,-94.0
127.0,129.0,124.0,127.0,127.0,126.0,130.0,128.0,25.0,-104.0,-76.0,127.0,127.0,127.0,112.0,85.0,-94.0
127.0,129.0,124.0,127.0,127.0,126.0,130.0,128.0,25.0,-104.0,-76.0,127.0,127.0,127.0,112.0,85.0,-94.0
127.0,130.0,124.0,127.0,127.0,127.0,130.0,128.0,25.0,-104.0,-76.0,127.0,127.0,127.0,112.0,85.0,-94.0
127.0,129.0,124.0,124.0,125.0,126.0,130.0,128.0,24.0,-104.0,-76.0,127.0,127.0,127.0,112.0,85.0,-94.0
127.0,129.0,124.0,125.0,125.0,126.0,130.0,128.0,24.0,-104.0,-76.0,127.0,127.0,127.0,112.0,85.0,-94.0
127.0,129.0,124.0,125.0,126.0,126.0,131.0,128.0,24.0,-104.0,-76.0,127.0,127.0,127.0,112.0,85.0,-94.0
128.0,129.0,124.0,125.0,126.0,126.0,131.0,128.0,24.0,-104.0,-76.0,127.0,127.0,127.0,112.0,85.0,-94.0
128.0,129.0,124.0,126.0,126.0,126.0,131.0,128.0,24.0,-104.0,-76.0,127.0,127.0,127.0,112.0,85.0,-94.0
128.0,129.0,124.0,126.0,126.0,126.0,131.0,128.0,24.0,-104.0,-76.0,127.0,127.0,127.0,112.0,85.0,-94.0
128.0,129.0,124.0,126.0,127.0,126.0,131.0,128.0,24.0,-104.0,-76.0,127.0,127.0,127.0,112.0,85.0,-94.0
128.0,129.0,124.0,127.0,127.0,126.0,130.0,128.0,24.0,-104.0,-76.0,127.0,127.0,127.0,112.0,85.0,-94.0
128.0,129.0,124.0,124.0,125.0,126.0,130.0,128.0,24.0,-104.0,-76.0,127.0,127.0,127.0,112.0,85.0,-94.0
127.0,129.0,124.0,124.0,125.0,126.0,130.0,128.0,24.0,-104.0,-76.0,127.0,127.0,127.0,112.0,85.0,-94.0
129.0,130.0,125.0,128.0,127.0,128.0,129.0,128.0,23.0,-103.0,-76.0,127.0,127.0,127.0,112.0,85.0,-94.0
128.0,130.0,126.0,128.0,127.0,128.0,129.0,128.0,23.0,-103.0,-76.0,127.0,127.0,127.0,112.0,85.0,-94.0
129.0,131.0,125.0,128.0,127.0,128.0,129.0,128.0,23.0,-103.0,-76.0,127.0,127.0,127.0,112.0,85.0,-94.0
129.0,130.0,126.0,128.0,127.0,128.0,129.0,128.0,23.0,-103.0,-76.0,127.0,127.0,127.0,112.0,85.0,-94.0
129.0,130.0,126.0,127.0,127.0,128.0,129.0,128.0,23.0,-103.0,-76.0,127.0,127.0,127.0,112.0,85.0,-94.0
129.0,131.0,125.0,127.0,127.0,129.0,129.0,128.0,23.0,-103.0,-76.0,127.0,127.0,127.0,112.0,85.0,-94.0
129.0,130.0,125.0,128.0,127.0,128.0,129.0,128.0,23.0,-103.0,-76.0,127.0,127.0,127.0,112.0,85.0,-94.0
128.0,130.0,125.0,128.0,127.0,128.0,129.0,128.0,23.0,-103.0,-76.0,127.0,127.0,127.0,112.0,85.0,-94.0
128.0,130.0,125.0,128.0,127.0,128.0,129.0,128.0,23.0,-103.0,-76.0,127.0,127.0,127.0,112.0,85.0,-94.0
128.0,130.0,125.0,128.0,127.0,128.0,129.0,128.0,23.0,-103.0,-76.0,127.0,127.0,127.0,112.0,85.0,-94.0
128.0,130.0,127.0,127.0,127.0,128.0,129.0,128.0,22.0,-103.0,-76.0,127.0,127.0,127.0,112.0,85.0,-94.0
128.0,130.0,127.0,128.0,127.0,129.0,129.0,128.0,22.0,-103.0,-76.0,127.0,127.0,127.0,112.0,85.0,-94.0
128.0,130.0,127.0,128.0,127.0,129.0,129.0,128.0,22.0,-103.0,-76.0,127.0,127.0,127.0,112.0,85.0,-94.0
128.0,130.0,127.0,128.0,127.0,128.0,129.0,129.0,22.0,-103.0,-76.0,127.0,127.0,127.0,112.0,85.0,-94.0
128.0,130.0,127.0,128.0,127.0,128.0,129.0,129.0,22.0,-103.0,-76.0,127.0,127.0,127.0,112.0,85.0,-94.0
128.0,130.0,128.0,128.0,127.0,128.0,129.0,129.0,22.0,-103.0,-76.0,127.0,127.0,127.0,112.0,85.0,-94.0
128.0,129.0,127.0,127.0,127.0,128.0,129.0,128.0,22.0,-103.0,-76.0,127.0,127.0,127.0,112.0,85.0,-94.0
128.0,129.0,127.0,127.0,127.0,127.0,129.0,128.0,22.0,-103.0,-76.0,127.0,127.0,127.0,112.0,85.0,-94.0
128.0,130.0,127.0,127.0,127.0,128.0,129.0,128.0,22.0,-103.0,-76.0,127.0,127.0,127.0,112.0,85.0,-94.0
128.0,130.0,127.0,127.0,127.0,128.0,129.0,129.0,22.0,-103.0,-76.0,127.0,127.0,127.0,112.0,85.0,-94.0
127.0,127.0,129.0,127.0,126.0,127.0,128.0,129.0,22.0,-103.0,-76.0,127.0,127.0,127.0,112.0,85.0,-94.0
127.0,127.0,129.0,127.0,126.0,127.0,127.0,129.0,22.0,-103.0,-76.0,127.0,127.0,127.0,112.0,85.0,-94.0
127.0,127.0,129.0,126.0,126.0,127.0,127.0,129.0,22.0,-103.0,-76.0,127.0,127.0,127.0,112.0,85.0,-94.0
127.0,127.0,129.0,126.0,126.0,127.0,127.0,129.0,22.0,-103.0,-76.0,127.0,127.0,127.0,112.0,85.0,-94.0
127.0,128.0,129.0,128.0,127.0,128.0,128.0,129.0,22.0,-103.0,-76.0,127.0,127.0,127.0,112.0,85.0,-94.0
127.0,128.0,129.0,128.0,127.0,128.0,128.0,129.0,22.0,-103.0,-76.0,127.0,127.0,127.0,112.0,85.0,-94.0
127.0,128.0,129.0,128.0,127.0,128.0,128.0,129.0,22.0,-103.0,-76.0,127.0,127.0,127.0,112.0,85.0,-94.0
127.0,128.0,129.0,127.0,127.0,128.0,128.0,129.0,22.0,-103.0,-76.0,127.0,127.0,127.0,112.0,85.0,-94.0
127.0,128.0,129.0,127.0,126.0,127.0,128.0,129.0,22.0,-103.0,-76.0,127.0,127.0,127.0,112.0,85.0,-94.0
127.0,128.0,129.0,127.0,126.0,127.0,128.0,129.0,22.0,-103.0,-76.0,127.0,127.0,127.0,112.0,85.0,-94.0
126.0,127.0,130.0,127.0,127.0,129.0,127.0,129.0,22.0,-104.0,-76.0,127.0,127.0,127.0,112.0,85.0,-94.0
126.0,127.0,130.0,127.0,127.0,128.0,127.0,129.0,22.0,-104.0,-76.0,127.0,127.0,127.0,112.0,85.0,-94.0
126.0,126.0,130.0,127.0,127.0,128.0,127.0,129.0,22.0,-104.0,-76.0,127.0,127.0,127.0,112.0,85.0,-94.0
127.0,128.0,130.0,127.0,127.0,129.0,127.0,129.0,22.0,-104.0,-76.0,127.0,127.0,127.0,112.0,85.0,-94.0
127.0,127.0,130.0,127.0,127.0,129.0,127.0,129.0,22.0,-104.0,-76.0,127.0,127.0,127.0,112.0,85.0,-94.0
126.0,127.0,130.0,127.0,127.0,129.0,127.0,129.0,22.0,-104.0,-76.0,127.0,127.0,127.0,112.0,85.0,-94.0
126.0,127.0,130.0,127.0,127.0,128.0,127.0,129.0,22.0,-104.0,-76.0,127.0,127.0,127.0,112.0,85.0,-94.0
126.0,127.0,130.0,127.0,127.0,128.0,127.0,129.0,22.0,-104.0,-76.0,127.0,127.0,127.0,112.0,85.0,-94.0
126.0,127.0,130.0,127.0,127.0,128.0,127.0,129.0,22.0,-104.0,-76.0,127.0,127.0,127.0,112.0,85.0,-94.0
126.0,127.0,130.0,127.0,127.0,129.0,127.0,129.0,22.0,-104.0,-76.0,127.0,127.0,127.0,112.0,85.0,-94.0
126.0,126.0,128.0,127.0,128.0,126.0,126.0,128.0,22.0,-104.0,-76.0,127.0,127.0,127.0,112.0,85.0,-94.0
126.0,126.0,127.0,126.0,128.0,126.0,126.0,128.0,22.0,-104.0,-76.0,127.0,127.0,127.0,112.0,85.0,-94.0
127.0,127.0,128.0,128.0,127.0,127.0,126.0,128.0,22.0,-104.0,-76.0,127.0,127.0,127.0,112.0,85.0,-94.0
126.0,127.0,128.0,128.0,126.0,127.0,126.0,128.0,22.0,-104.0,-76.0,127.0,127.0,127.0,112.0,85.0,-94.0
126.0,126.0,128.0,128.0,127.0,127.0,126.0,128.0,22.0,-104.0,-76.0,127.0,127.0,127.0,112.0,85.0,-94.0
127.0,127.0,127.0,127.0,127.0,127.0,126.0,128.0,22.0,-104.0,-76.0,127.0,127.0,127.0,112.0,85.0,-94.0
127.0,127.0,128.0,127.0,127.0,127.0,126.0,128.0,22.0,-104.0,-76.0,127.0,127.0,127.0,112.0,85.0,-94.0
127.0,126.0,128.0,127.0,127.0,127.0,126.0,128.0,22.0,-104.0,-76.0,127.0,127.0,127.0,112.0,85.0,-94.0
126.0,126.0,128.0,127.0,128.0,127.0,126.0,128.0,22.0,-104.0,-76.0,127.0,127.0,127.0,112.0,85.0,-94.0
126.0,126.0,128.0,127.0,128.0,126.0,126.0,128.0,22.0,-104.0,-76.0,127.0,127.0,127.0,112.0,85.0,-94.0
125.0,125.0,126.0,127.0,126.0,119.0,125.0,127.0,22.0,-104.0,-77.0,127.0,127.0,127.0,112.0,85.0,-94.0
126.0,125.0,126.0,126.0,126.0,120.0,125.0,127.0,22.0,-104.0,-77.0,127.0,127.0,127.0,112.0,85.0,-94.0
126.0,125.0,126.0,126.0,126.0,120.0,125.0,127.0,22.0,-104.0,-77.0,127.0,127.0,127.0,112.0,85.0,-94.0
126.0,125.0,126.0,126.0,126.0,120.0,125.0,127.0,22.0,-104.0,-77.0,127.0,127.0,127.0,112.0,85.0,-94.0
126.0,125.0,126.0,127.0,126.0,120.0,125.0,127.0,22.0,-104.0,-77.0,127.0,127.0,127.0,112.0,85.0,-94.0
126.0,125.0,126.0,127.0,127.0,120.0,125.0,127.0,22.0,-104.0,-77.0,127.0,127.0,127.0,112.0,85.0,-94.0
125.0,125.0,126.0,127.0,127.0,120.0,125.0,127.0,22.0,-104.0,-77.0,127.0,127.0,127.0,112.0,85.0,-94.0
125.0,125.0,126.0,127.0,127.0,119.0,125.0,127.0,22.0,-104.0,-77.0,127.0,127.0,127.0,112.0,85.0,-94.0
126.0,125.0,126.0,127.0,127.0,119.0,125.0,127.0,22.0,-104.0,-77.0,127.0,127.0,127.0,112.0,85.0,-94.0
125.0,125.0,126.0,127.0,126.0,119.0,125.0,127.0,22.0,-104.0,-77.0,127.0,127.0,127.0,112.0,85.0,-94.0
124.0,121.0,121.0,124.0,126.0,109.0,125.0,127.0,21.0,-104.0,-77.0,127.0,127.0,127.0,112.0,85.0,-94.0
124.0,121.0,120.0,124.0,125.0,108.0,125.0,127.0,21.0,-104.0,-77.0,127.0,127.0,127.0,112.0,85.0,-94.0
124.0,122.0,120.0,124.0,125.0,108.0,125.0,127.0,21.0,-104.0,-77.0,127.0,127.0,127.0,112.0,85.0,-94.0
124.0,122.0,120.0,123.0,125.0,107.0,125.0,127.0,21.0,-104.0,-77.0,127.0,127.0,127.0,112.0,85.0,-94.0
124.0,122.0,119.0,123.0,125.0,107.0,125.0,127.0,21.0,-104.0,-77.0,127.0,127.0,127.0,112.0,85.0,-94.0
124.0,122.0,119.0,123.0,124.0,107.0,125.0,127.0,21.0,-104.0,-77.0,127.0,127.0,127.0,112.0,85.0,-94.0
124.0,122.0,118.0,122.0,124.0,106.0,125.0,127.0,21.0,-104.0,-77.0,127.0,127.0,127.0,112.0,85.0,-94.0
124.0,121.0,117.0,121.0,124.0,106.0,124.0,127.0,21.0,-104.0,-77.0,127.0,127.0,127.0,112.0,85.0,-94.0
124.0,121.0,117.0,120.0,124.0,105.0,124.0,127.0,21.0,-104.0,-77.0,127.0,127.0,127.0,112.0,85.0,-94.0
124.0,121.0,116.0,120.0,124.0,105.0,124.0,127.0,21.0,-104.0,-77.0,127.0,127.0,127.0,112.0,85.0,-94.0
124.0,120.0,80.0,131.0,128.0,114.0,125.0,128.0,20.0,-102.0,-77.0,127.0,127.0,127.0,112.0,85.0,-94.0
124.0,121.0,79.0,130.0,128.0,115.0,126.0,128.0,20.0,-102.0,-77.0,127.0,127.0,127.0,112.0,85.0,-94.0
124.0,120.0,78.0,130.0,127.0,116.0,126.0,128.0,20.0,-102.0,-77.0,127.0,127.0,127.0,112.0,85.0,-94.0
124.0,120.0,77.0,128.0,127.0,116.0,126.0,128.0,20.0,-102.0,-77.0,127.0,127.0,127.0,112.0,85.0,-94.0
124.0,120.0,76.0,127.0,127.0,117.0,126.0,128.0,20.0,-102.0,-77.0,127.0,127.0,127.0,112.0,85.0,-94.0
124.0,120.0,74.0,125.0,127.0,117.0,126.0,129.0,20.0,-102.0,-77.0,127.0,127.0,127.0,112.0,85.0,-94.0
124.0,119.0,73.0,124.0,127.0,118.0,126.0,129.0,20.0,-102.0,-77.0,127.0,127.0,127.0,112.0,85.0,-94.0
124.0,119.0,71.0,123.0,126.0,118.0,126.0,129.0,20.0,-102.0,-77.0,127.0,127.0,127.0,112.0,85.0,-94.0
124.0,120.0,70.0,122.0,126.0,119.0,126.0,129.0,20.0,-102.0,-77.0,127.0,127.0,127.0,112.0,85.0,-94.0
124.0,121.0,80.0,131.0,128.0,113.0,125.0,128.0,20.0,-102.0,-77.0,127.0,127.0,127.0,112.0,85.0,-94.0
127.0,124.0,0.0,120.0,126.0,138.0,128.0,130.0,19.0,-100.0,-76.0,127.0,127.0,127.0,111.0,85.0,-94.0
127.0,123.0,0.0,119.0,126.0,139.0,128.0,130.0,19.0,-100.0,-76.0,127.0,127.0,127.0,111.0,85.0,-94.0
127.0,123.0,0.0,118.0,126.0,139.0,128.0,130.0,19.0,-100.0,-76.0,127.0,127.0,127.0,111.0,85.0,-94.0
127.0,123.0,0.0,117.0,125.0,139.0,128.0,130.0,19.0,-100.0,-76.0,127.0,127.0,127.0,111.0,85.0,-94.0
127.0,123.0,0.0,116.0,125.0,139.0,128.0,130.0,19.0,-100.0,-76.0,127.0,127.0,127.0,111.0,85.0,-94.0
126.0,122.0,0.0,115.0,125.0,139.0,128.0,130.0,19.0,-100.0,-76.0,127.0,127.0,127.0,111.0,85.0,-94.0
126.0,122.0,0.0,114.0,124.0,140.0,128.0,130.0,19.0,-100.0,-76.0,127.0,127.0,127.0,111.0,85.0,-94.0
126.0,121.0,0.0,113.0,124.0,140.0,128.0,130.0,19.0,-100.0,-76.0,127.0,127.0,127.0,111.0,85.0,-94.0
127.0,124.0,0.0,123.0,126.0,138.0,128.0,130.0,19.0,-100.0,-76.0,127.0,127.0,127.0,111.0,85.0,-94.0
127.0,124.0,0.0,121.0,126.0,138.0,128.0,130.0,19.0,-100.0,-76.0,127.0,127.0,127.0,111.0,85.0,-94.0
140.0,133.0,0.0,139.0,127.0,132.0,130.0,136.0,18.0,-99.0,-77.0,127.0,127.0,127.0,111.0,85.0,-94.0
140.0,133.0,0.0,137.0,127.0,131.0,130.0,135.0,18.0,-99.0,-77.0,127.0,127.0,127.0,111.0,85.0,-94.0
140.0,133.0,0.0,136.0,127.0,130.0,130.0,135.0,18.0,-99.0,-77.0,127.0,127.0,127.0,111.0,85.0,-94.0
140.0,133.0,0.0,134.0,127.0,129.0,130.0,137.0,18.0,-99.0,-77.0,127.0,127.0,127.0,111.0,85.0,-94.0
140.0,134.0,0.0,133.0,127.0,129.0,130.0,138.0,18.0,-99.0,-77.0,127.0,127.0,127.0,111.0,85.0,-94.0
140.0,134.0,0.0,132.0,127.0,128.0,131.0,139.0,18.0,-99.0,-77.0,127.0,127.0,127.0,111.0,85.0,-94.0
140.0,133.0,0.0,132.0,126.0,126.0,131.0,139.0,18.0,-99.0,-77.0,127.0,127.0,127.0,111.0,85.0,-94.0
139.0,133.0,0.0,141.0,127.0,134.0,129.0,136.0,18.0,-99.0,-77.0,127.0,127.0,127.0,111.0,85.0,-94.0
140.0,133.0,0.0,141.0,128.0,134.0,129.0,136.0,18.0,-99.0,-77.0,127.0,127.0,127.0,111.0,85.0,-94.0
140.0,133.0,0.0,140.0,128.0,133.0,130.0,136.0,18.0,-99.0,-77.0,127.0,127.0,127.0,111.0,85.0,-94.0
164.0,141.0,0.0,136.0,129.0,99.0,132.0,132.0,17.0,-101.0,-75.0,-128.0,126.0,126.0,111.0,85.0,-94.0
164.0,141.0,0.0,136.0,129.0,99.0,132.0,132.0,17.0,-101.0,-75.0,-128.0,126.0,126.0,111.0,85.0,-94.0
165.0,141.0,0.0,136.0,129.0,98.0,132.0,133.0,17.0,-101.0,-75.0,-128.0,126.0,126.0,111.0,85.0,-94.0
165.0,142.0,0.0,137.0,129.0,99.0,132.0,133.0,17.0,-101.0,-75.0,-128.0,126.0,126.0,111.0,85.0,-94.0
165.0,142.0,0.0,137.0,129.0,99.0,132.0,134.0,17.0,-101.0,-75.0,-128.0,126.0,126.0,111.0,85.0,-94.0
165.0,143.0,0.0,138.0,129.0,99.0,132.0,135.0,17.0,-101.0,-75.0,-128.0,126.0,126.0,111.0,85.0,-94.0
161.0,140.0,0.0,141.0,130.0,98.0,130.0,131.0,17.0,-101.0,-75.0,-128.0,126.0,126.0,111.0,85.0,-94.0
162.0,141.0,0.0,140.0,130.0,99.0,130.0,131.0,17.0,-101.0,-75.0,-128.0,126.0,126.0,111.0,85.0,-94.0
162.0,141.0,0.0,138.0,130.0,99.0,130.0,131.0,17.0,-101.0,-75.0,-128.0,126.0,126.0,111.0,85.0,-94.0
163.0,141.0,0.0,137.0,130.0,99.0,131.0,132.0,17.0,-101.0,-75.0,-128.0,126.0,126.0,111.0,85.0,-94.0
195.0,144.0,0.0,127.0,139.0,29.0,139.0,163.0,21.0,-106.0,-72.0,-128.0,126.0,126.0,111.0,85.0,-94.0
194.0,144.0,0.0,129.0,139.0,22.0,139.0,163.0,21.0,-106.0,-72.0,-128.0,126.0,126.0,111.0,85.0,-94.0
193.0,144.0,0.0,132.0,139.0,16.0,138.0,163.0,21.0,-106.0,-72.0,-128.0,126.0,126.0,111.0,85.0,-94.0
192.0,144.0,0.0,134.0,139.0,9.0,138.0,163.0,21.0,-106.0,-72.0,-128.0,126.0,126.0,111.0,85.0,-94.0
191.0,144.0,0.0,136.0,139.0,1.0,138.0,163.0,21.0,-106.0,-72.0,-128.0,126.0,126.0,111.0,85.0,-94.0
198.0,146.0,0.0,122.0,139.0,53.0,145.0,165.0,21.0,-106.0,-72.0,-128.0,126.0,126.0,111.0,85.0,-94.0
198.0,145.0,0.0,122.0,139.0,49.0,143.0,165.0,21.0,-106.0,-72.0,-128.0,126.0,126.0,111.0,85.0,-94.0
197.0,144.0,0.0,122.0,139.0,44.0,142.0,164.0,21.0,-106.0,-72.0,-128.0,126.0,126.0,111.0,85.0,-94.0
197.0,144.0,0.0,124.0,139.0,39.0,141.0,163.0,21.0,-106.0,-72.0,-128.0,126.0,126.0,111.0,85.0,-94.0
196.0,144.0,0.0,125.0,139.0,34.0,140.0,163.0,21.0,-106.0,-72.0,-128.0,126.0,126.0,111.0,85.0,-94.0
123.0,122.0,0.0,195.0,123.0,0.0,103.0,116.0,31.0,-113.0,-68.0,-126.0,127.0,126.0,111.0,85.0,-94.0
123.0,123.0,0.0,199.0,125.0,0.0,102.0,115.0,31.0,-113.0,-68.0,-126.0,127.0,126.0,111.0,85.0,-94.0
124.0,123.0,0.0,201.0,127.0,0.0,102.0,114.0,31.0,-113.0,-68.0,-126.0,127.0,126.0,111.0,85.0,-94.0
124.0,124.0,0.0,203.0,129.0,0.0,102.0,114.0,31.0,-113.0,-68.0,-126.0,127.0,126.0,111.0,85.0,-94.0
122.0,117.0,0.0,154.0,121.0,0.0,108.0,121.0,31.0,-113.0,-68.0,-126.0,127.0,126.0,111.0,85.0,-94.0
122.0,118.0,0.0,160.0,120.0,0.0,106.0,120.0,31.0,-113.0,-68.0,-126.0,127.0,126.0,111.0,85.0,-94.0
122.0,118.0,0.0,167.0,119.0,0.0,105.0,120.0,31.0,-113.0,-68.0,-126.0,127.0,126.0,111.0,85.0,-94.0
122.0,119.0,0.0,175.0,119.0,0.0,104.0,119.0,31.0,-113.0,-68.0,-126.0,127.0,126.0,111.0,85.0,-94.0
122.0,120.0,0.0,182.0,120.0,0.0,103.0,118.0,31.0,-113.0,-68.0,-126.0,127.0,126.0,111.0,85.0,-94.0
122.0,121.0,0.0,189.0,121.0,0.0,103.0,117.0,31.0,-113.0,-68.0,-126.0,127.0,126.0,111.0,85.0,-94.0
106.0,133.0,53.0,137.0,108.0,0.0,116.0,105.0,39.0,-112.0,-64.0,-126.0,127.0,127.0,112.0,86.0,-94.0
106.0,133.0,70.0,136.0,107.0,0.0,116.0,105.0,39.0,-112.0,-64.0,-126.0,127.0,127.0,112.0,86.0,-94.0
106.0,133.0,88.0,134.0,107.0,0.0,116.0,106.0,39.0,-112.0,-64.0,-126.0,127.0,127.0,112.0,86.0,-94.0
104.0,131.0,0.0,141.0,112.0,0.0,112.0,102.0,39.0,-112.0,-64.0,-126.0,127.0,127.0,112.0,86.0,-94.0
104.0,131.0,2.0,139.0,111.0,0.0,112.0,103.0,39.0,-112.0,-64.0,-126.0,127.0,127.0,112.0,86.0,-94.0
104.0,131.0,6.0,137.0,111.0,0.0,113.0,104.0,39.0,-112.0,-64.0,-126.0,127.0,127.0,112.0,86.0,-94.0
105.0,132.0,11.0,136.0,110.0,0.0,113.0,104.0,39.0,-112.0,-64.0,-126.0,127.0,127.0,112.0,86.0,-94.0
105.0,132.0,18.0,135.0,109.0,0.0,114.0,104.0,39.0,-112.0,-64.0,-126.0,127.0,127.0,112.0,86.0,-94.0
106.0,133.0,28.0,136.0,109.0,0.0,114.0,105.0,39.0,-112.0,-64.0,-126.0,127.0,127.0,112.0,86.0,-94.0
106.0,133.0,39.0,136.0,108.0,0.0,115.0,105.0,39.0,-112.0,-64.0,-126.0,127.0,127.0,112.0,86.0,-94.0
107.0,111.0,254.0,132.0,124.0,0.0,111.0,109.0,43.0,-103.0,-66.0,-128.0,127.0,127.0,112.0,87.0,-94.0
107.0,111.0,254.0,133.0,124.0,0.0,112.0,109.0,43.0,-103.0,-66.0,-128.0,127.0,127.0,112.0,87.0,-94.0
105.0,113.0,254.0,141.0,120.0,0.0,108.0,107.0,43.0,-103.0,-66.0,-128.0,127.0,127.0,112.0,87.0,-94.0
105.0,114.0,254.0,141.0,121.0,0.0,109.0,108.0,43.0,-103.0,-66.0,-128.0,127.0,127.0,112.0,87.0,-94.0
105.0,115.0,254.0,140.0,122.0,0.0,109.0,109.0,43.0,-103.0,-66.0,-128.0,127.0,127.0,112.0,87.0,-94.0
105.0,114.0,254.0,139.0,123.0,0.0,110.0,110.0,43.0,-103.0,-66.0,-128.0,127.0,127.0,112.0,87.0,-94.0
105.0,114.0,254.0,136.0,123.0,0.0,110.0,110.0,43.0,-103.0,-66.0,-128.0,127.0,127.0,112.0,87.0,-94.0
105.0,113.0,254.0,134.0,123.0,0.0,110.0,109.0,43.0,-103.0,-66.0,-128.0,127.0,127.0,112.0,87.0,-94.0
106.0,112.0,254.0,132.0,123.0,0.0,111.0,109.0,43.0,-103.0,-66.0,-128.0,127.0,127.0,112.0,87.0,-94.0
106.0,112.0,254.0,131.0,124.0,0.0,111.0,109.0,43.0,-103.0,-66.0,-128.0,127.0,127.0,112.0,87.0,-94.0
126.0,118.0,105.0,116.0,123.0,0.0,129.0,135.0,31.0,-94.0,-76.0,126.0,127.0,-128.0,111.0,87.0,-94.0
113.0,115.0,141.0,116.0,120.0,0.0,129.0,134.0,31.0,-94.0,-76.0,126.0,127.0,-128.0,111.0,87.0,-94.0
113.0,115.0,136.0,115.0,120.0,0.0,129.0,134.0,31.0,-94.0,-76.0,126.0,127.0,-128.0,111.0,87.0,-94.0
114.0,115.0,131.0,113.0,120.0,0.0,129.0,135.0,31.0,-94.0,-76.0,126.0,127.0,-128.0,111.0,87.0,-94.0
114.0,114.0,127.0,113.0,120.0,0.0,129.0,135.0,31.0,-94.0,-76.0,126.0,127.0,-128.0,111.0,87.0,-94.0
115.0,115.0,122.0,113.0,120.0,0.0,129.0,134.0,31.0,-94.0,-76.0,126.0,127.0,-128.0,111.0,87.0,-94.0
117.0,115.0,118.0,114.0,121.0,0.0,128.0,134.0,31.0,-94.0,-76.0,126.0,127.0,-128.0,111.0,87.0,-94.0
119.0,116.0,115.0,113.0,121.0,0.0,129.0,134.0,31.0,-94.0,-76.0,126.0,127.0,-128.0,111.0,87.0,-94.0
121.0,116.0,111.0,113.0,122.0,0.0,129.0,135.0,31.0,-94.0,-76.0,126.0,127.0,-128.0,111.0,87.0,-94.0
124.0,117.0,108.0,114.0,122.0,0.0,129.0,135.0,31.0,-94.0,-76.0,126.0,127.0,-128.0,111.0,87.0,-94.0
137.0,116.0,193.0,113.0,117.0,0.0,131.0,135.0,19.0,-94.0,-84.0,125.0,126.0,127.0,111.0,87.0,-94.0
137.0,115.0,197.0,113.0,117.0,0.0,132.0,135.0,19.0,-94.0,-84.0,125.0,126.0,127.0,111.0,87.0,-94.0
137.0,115.0,203.0,113.0,117.0,0.0,132.0,136.0,19.0,-94.0,-84.0,125.0,126.0,127.0,111.0,87.0,-94.0
137.0,115.0,208.0,113.0,117.0,0.0,133.0,137.0,19.0,-94.0,-84.0,125.0,126.0,127.0,111.0,87.0,-94.0
137.0,115.0,213.0,113.0,118.0,0.0,134.0,138.0,19.0,-94.0,-84.0,125.0,126.0,127.0,111.0,87.0,-94.0
137.0,115.0,218.0,114.0,119.0,0.0,135.0,138.0,19.0,-94.0,-84.0,125.0,126.0,127.0,111.0,87.0,-94.0
137.0,116.0,223.0,116.0,120.0,0.0,136.0,139.0,19.0,-94.0,-84.0,125.0,126.0,127.0,111.0,87.0,-94.0
138.0,116.0,228.0,119.0,122.0,0.0,137.0,139.0,19.0,-94.0,-84.0,125.0,126.0,127.0,111.0,87.0,-94.0
138.0,116.0,233.0,123.0,125.0,0.0,138.0,140.0,19.0,-94.0,-84.0,125.0,126.0,127.0,111.0,87.0,-94.0
138.0,117.0,237.0,126.0,127.0,0.0,138.0,140.0,19.0,-94.0,-84.0,125.0,126.0,127.0,111.0,87.0,-94.0
131.0,128.0,248.0,124.0,126.0,0.0,130.0,137.0,15.0,-99.0,-85.0,126.0,126.0,127.0,110.0,87.0,-94.0
130.0,127.0,247.0,124.0,126.0,0.0,130.0,137.0,15.0,-99.0,-85.0,126.0,126.0,127.0,110.0,87.0,-94.0
130.0,127.0,247.0,124.0,127.0,0.0,130.0,136.0,15.0,-99.0,-85.0,126.0,126.0,127.0,110.0,87.0,-94.0
129.0,126.0,246.0,124.0,128.0,0.0,130.0,136.0,15.0,-99.0,-85.0,126.0,126.0,127.0,110.0,87.0,-94.0
129.0,126.0,246.0,125.0,129.0,0.0,130.0,136.0,15.0,-99.0,-85.0,126.0,126.0,127.0,110.0,87.0,-94.0
129.0,126.0,246.0,126.0,130.0,0.0,130.0,135.0,15.0,-99.0,-85.0,126.0,126.0,127.0,110.0,87.0,-94.0
129.0,126.0,247.0,127.0,131.0,0.0,130.0,135.0,15.0,-99.0,-85.0,126.0,126.0,127.0,110.0,87.0,-94.0
129.0,127.0,247.0,127.0,132.0,0.0,129.0,135.0,15.0,-99.0,-85.0,126.0,126.0,127.0,110.0,87.0,-94.0
129.0,127.0,247.0,128.0,133.0,0.0,129.0,134.0,15.0,-99.0,-85.0,126.0,126.0,127.0,110.0,87.0,-94.0
131.0,129.0,248.0,124.0,125.0,0.0,130.0,137.0,15.0,-99.0,-85.0,126.0,126.0,127.0,110.0,87.0,-94.0
128.0,128.0,254.0,120.0,116.0,0.0,124.0,120.0,19.0,-105.0,-81.0,127.0,126.0,126.0,110.0,87.0,-94.0
128.0,128.0,254.0,120.0,117.0,0.0,124.0,121.0,19.0,-105.0,-81.0,127.0,126.0,126.0,110.0,87.0,-94.0
129.0,129.0,254.0,121.0,117.0,0.0,124.0,121.0,19.0,-105.0,-81.0,127.0,126.0,126.0,110.0,87.0,-94.0
129.0,129.0,254.0,121.0,118.0,0.0,125.0,120.0,19.0,-105.0,-81.0,127.0,126.0,126.0,110.0,87.0,-94.0
130.0,129.0,254.0,122.0,119.0,0.0,125.0,119.0,19.0,-105.0,-81.0,127.0,126.0,126.0,110.0,87.0,-94.0
130.0,130.0,254.0,123.0,119.0,0.0,125.0,119.0,19.0,-105.0,-81.0,127.0,126.0,126.0,110.0,87.0,-94.0
131.0,130.0,254.0,125.0,120.0,0.0,125.0,119.0,19.0,-105.0,-81.0,127.0,126.0,126.0,110.0,87.0,-94.0
131.0,129.0,254.0,126.0,121.0,0.0,125.0,119.0,19.0,-105.0,-81.0,127.0,126.0,126.0,110.0,87.0,-94.0
126.0,128.0,254.0,120.0,116.0,0.0,124.0,120.0,19.0,-105.0,-81.0,127.0,126.0,126.0,110.0,87.0,-94.0
127.0,127.0,254.0,120.0,116.0,0.0,124.0,120.0,19.0,-105.0,-81.0,127.0,126.0,126.0,110.0,87.0,-94.0
131.0,129.0,163.0,119.0,129.0,0.0,129.0,122.0,23.0,-109.0,-80.0,-128.0,127.0,127.0,110.0,87.0,-94.0
131.0,129.0,161.0,121.0,129.0,0.0,129.0,124.0,23.0,-109.0,-80.0,-128.0,127.0,127.0,110.0,87.0,-94.0
131.0,129.0,160.0,123.0,128.0,0.0,129.0,125.0,23.0,-109.0,-80.0,-128.0,127.0,127.0,110.0,87.0,-94.0
131.0,129.0,158.0,124.0,127.0,0.0,129.0,127.0,23.0,-109.0,-80.0,-128.0,127.0,127.0,110.0,87.0,-94.0
132.0,130.0,157.0,125.0,127.0,0.0,129.0,128.0,23.0,-109.0,-80.0,-128.0,127.0,127.0,110.0,87.0,-94.0
133.0,130.0,155.0,126.0,126.0,0.0,128.0,129.0,23.0,-109.0,-80.0,-128.0,127.0,127.0,110.0,87.0,-94.0
133.0,130.0,154.0,127.0,126.0,0.0,129.0,131.0,23.0,-109.0,-80.0,-128.0,127.0,127.0,110.0,87.0,-94.0
133.0,129.0,169.0,118.0,131.0,0.0,128.0,115.0,23.0,-109.0,-80.0,-128.0,127.0,127.0,110.0,87.0,-94.0
132.0,129.0,167.0,118.0,131.0,0.0,128.0,117.0,23.0,-109.0,-80.0,-128.0,127.0,127.0,110.0,87.0,-94.0
132.0,129.0,165.0,118.0,130.0,0.0,128.0,119.0,23.0,-109.0,-80.0,-128.0,127.0,127.0,110.0,87.0,-94.0
136.0,124.0,128.0,114.0,126.0,0.0,123.0,129.0,23.0,-112.0,-81.0,-128.0,127.0,127.0,110.0,87.0,-94.0
136.0,124.0,128.0,115.0,127.0,0.0,124.0,129.0,23.0,-112.0,-81.0,-128.0,127.0,127.0,110.0,87.0,-94.0
136.0,125.0,127.0,117.0,128.0,0.0,124.0,128.0,23.0,-112.0,-81.0,-128.0,127.0,127.0,110.0,87.0,-94.0
136.0,126.0,127.0,120.0,130.0,0.0,124.0,128.0,23.0,-112.0,-81.0,-128.0,127.0,127.0,110.0,87.0,-94.0
136.0,127.0,127.0,123.0,131.0,0.0,125.0,129.0,23.0,-112.0,-81.0,-128.0,127.0,127.0,110.0,87.0,-94.0
136.0,126.0,131.0,119.0,125.0,0.0,124.0,129.0,23.0,-112.0,-81.0,-128.0,127.0,127.0,110.0,87.0,-94.0
136.0,125.0,130.0,117.0,125.0,0.0,124.0,129.0,23.0,-112.0,-81.0,-128.0,127.0,127.0,110.0,87.0,-94.0
136.0,125.0,130.0,116.0,125.0,0.0,124.0,129.0,23.0,-112.0,-81.0,-128.0,127.0,127.0,110.0,87.0,-94.0
136.0,125.0,129.0,115.0,125.0,0.0,123.0,129.0,23.0,-112.0,-81.0,-128.0,127.0,127.0,110.0,87.0,-94.0
136.0,125.0,129.0,114.0,126.0,0.0,123.0,129.0,23.0,-112.0,-81.0,-128.0,127.0,127.0,110.0,87.0,-94.0
127.0,123.0,93.0,115.0,126.0,0.0,128.0,125.0,22.0,-110.0,-82.0,127.0,127.0,127.0,110.0,87.0,-94.0
127.0,123.0,93.0,116.0,127.0,0.0,128.0,125.0,22.0,-110.0,-82.0,127.0,127.0,127.0,110.0,87.0,-94.0
127.0,122.0,91.0,118.0,128.0,0.0,128.0,125.0,22.0,-110.0,-82.0,127.0,127.0,127.0,110.0,87.0,-94.0
127.0,122.0,90.0,119.0,129.0,0.0,128.0,125.0,22.0,-110.0,-82.0,127.0,127.0,127.0,110.0,87.0,-94.0
129.0,125.0,99.0,122.0,121.0,0.0,127.0,126.0,22.0,-110.0,-82.0,127.0,127.0,127.0,110.0,87.0,-94.0
129.0,125.0,98.0,121.0,121.0,0.0,128.0,126.0,22.0,-110.0,-82.0,127.0,127.0,127.0,110.0,87.0,-94.0
128.0,124.0,97.0,120.0,122.0,0.0,128.0,126.0,22.0,-110.0,-82.0,127.0,127.0,127.0,110.0,87.0,-94.0
128.0,123.0,96.0,118.0,123.0,0.0,128.0,126.0,22.0,-110.0,-82.0,127.0,127.0,127.0,110.0,87.0,-94.0
128.0,123.0,95.0,117.0,124.0,0.0,128.0,126.0,22.0,-110.0,-82.0,127.0,127.0,127.0,110.0,87.0,-94.0
127.0,123.0,95.0,115.0,125.0,0.0,128.0,125.0,22.0,-110.0,-82.0,127.0,127.0,127.0,110.0,87.0,-94.0
122.0,123.0,91.0,123.0,121.0,0.0,124.0,122.0,22.0,-106.0,-80.0,126.0,127.0,127.0,110.0,87.0,-94.0
122.0,123.0,92.0,126.0,122.0,0.0,125.0,122.0,22.0,-106.0,-80.0,126.0,127.0,127.0,110.0,87.0,-94.0
121.0,124.0,93.0,128.0,123.0,0.0,125.0,122.0,22.0,-106.0,-80.0,126.0,127.0,127.0,110.0,87.0,-94.0
124.0,123.0,85.0,115.0,118.0,0.0,124.0,125.0,22.0,-106.0,-80.0,126.0,127.0,127.0,110.0,87.0,-94.0
123.0,122.0,86.0,114.0,118.0,0.0,124.0,125.0,22.0,-106.0,-80.0,126.0,127.0,127.0,110.0,87.0,-94.0
123.0,122.0,87.0,114.0,119.0,0.0,124.0,124.0,22.0,-106.0,-80.0,126.0,127.0,127.0,110.0,87.0,-94.0
123.0,121.0,87.0,115.0,119.0,0.0,124.0,123.0,22.0,-106.0,-80.0,126.0,127.0,127.0,110.0,87.0,-94.0
123.0,122.0,88.0,116.0,120.0,0.0,124.0,123.0,22.0,-106.0,-80.0,126.0,127.0,127.0,110.0,87.0,-94.0
122.0,122.0,89.0,118.0,120.0,0.0,124.0,123.0,22.0,-106.0,-80.0,126.0,127.0,127.0,110.0,87.0,-94.0
122.0,122.0,90.0,120.0,121.0,0.0,124.0,122.0,22.0,-106.0,-80.0,126.0,127.0,127.0,110.0,87.0,-94.0
130.0,124.0,135.0,124.0,127.0,0.0,125.0,125.0,24.0,-104.0,-78.0,126.0,127.0,127.0,110.0,87.0,-94.0
130.0,124.0,135.0,125.0,128.0,0.0,125.0,124.0,24.0,-104.0,-78.0,126.0,127.0,127.0,110.0,87.0,-94.0
123.0,120.0,131.0,113.0,125.0,0.0,126.0,122.0,24.0,-104.0,-78.0,126.0,127.0,127.0,110.0,87.0,-94.0
124.0,120.0,131.0,115.0,125.0,0.0,126.0,121.0,24.0,-104.0,-78.0,126.0,127.0,127.0,110.0,87.0,-94.0
124.0,121.0,132.0,117.0,125.0,0.0,125.0,120.0,24.0,-104.0,-78.0,126.0,127.0,127.0,110.0,87.0,-94.0
124.0,122.0,132.0,120.0,126.0,0.0,125.0,120.0,24.0,-104.0,-78.0,126.0,127.0,127.0,110.0,87.0,-94.0
125.0,123.0,133.0,121.0,126.0,0.0,125.0,121.0,24.0,-104.0,-78.0,126.0,127.0,127.0,110.0,87.0,-94.0
126.0,123.0,133.0,122.0,126.0,0.0,125.0,123.0,24.0,-104.0,-78.0,126.0,127.0,127.0,110.0,87.0,-94.0
128.0,124.0,134.0,123.0,127.0,0.0,125.0,125.0,24.0,-104.0,-78.0,126.0,127.0,127.0,110.0,87.0,-94.0
129.0,124.0,134.0,123.0,127.0,0.0,125.0,125.0,24.0,-104.0,-78.0,126.0,127.0,127.0,110.0,87.0,-94.0
128.0,119.0,152.0,115.0,128.0,0.0,126.0,131.0,25.0,-105.0,-77.0,126.0,127.0,127.0,110.0,87.0,-94.0
128.0,123.0,151.0,123.0,130.0,0.0,127.0,120.0,25.0,-105.0,-77.0,126.0,127.0,127.0,110.0,87.0,-94.0
129.0,123.0,151.0,122.0,130.0,0.0,127.0,124.0,25.0,-105.0,-77.0,126.0,127.0,127.0,110.0,87.0,-94.0
129.0,123.0,151.0,122.0,131.0,0.0,128.0,128.0,25.0,-105.0,-77.0,126.0,127.0,127.0,110.0,87.0,-94.0
129.0,123.0,151.0,120.0,130.0,0.0,128.0,132.0,25.0,-105.0,-77.0,126.0,127.0,127.0,110.0,87.0,-94.0
130.0,123.0,151.0,119.0,130.0,0.0,127.0,133.0,25.0,-105.0,-77.0,126.0,127.0,127.0,110.0,87.0,-94.0
130.0,122.0,152.0,117.0,130.0,0.0,127.0,133.0,25.0,-105.0,-77.0,126.0,127.0,127.0,110.0,87.0,-94.0
129.0,121.0,152.0,116.0,130.0,0.0,127.0,133.0,25.0,-105.0,-77.0,126.0,127.0,127.0,110.0,87.0,-94.0
129.0,121.0,152.0,115.0,129.0,0.0,126.0,132.0,25.0,-105.0,-77.0,126.0,127.0,127.0,110.0,87.0,-94.0
128.0,120.0,152.0,115.0,129.0,0.0,126.0,132.0,25.0,-105.0,-77.0,126.0,127.0,127.0,110.0,87.0,-94.0
126.0,121.0,148.0,125.0,126.0,0.0,125.0,127.0,25.0,-106.0,-76.0,127.0,127.0,127.0,110.0,87.0,-94.0
126.0,121.0,148.0,126.0,127.0,0.0,125.0,127.0,25.0,-106.0,-76.0,127.0,127.0,127.0,110.0,87.0,-94.0
126.0,122.0,148.0,127.0,127.0,0.0,125.0,127.0,25.0,-106.0,-76.0,127.0,127.0,127.0,110.0,87.0,-94.0
125.0,122.0,148.0,127.0,127.0,0.0,126.0,128.0,25.0,-106.0,-76.0,127.0,127.0,127.0,110.0,87.0,-94.0
125.0,122.0,148.0,128.0,128.0,0.0,126.0,128.0,25.0,-106.0,-76.0,127.0,127.0,127.0,110.0,87.0,-94.0
125.0,122.0,148.0,130.0,128.0,0.0,126.0,128.0,25.0,-106.0,-76.0,127.0,127.0,127.0,110.0,87.0,-94.0
125.0,122.0,147.0,130.0,128.0,0.0,126.0,128.0,25.0,-106.0,-76.0,127.0,127.0,127.0,110.0,87.0,-94.0
125.0,122.0,147.0,131.0,129.0,0.0,126.0,128.0,25.0,-106.0,-76.0,127.0,127.0,127.0,110.0,87.0,-94.0
125.0,122.0,147.0,131.0,129.0,0.0,125.0,128.0,25.0,-106.0,-76.0,127.0,127.0,127.0,110.0,87.0,-94.0
125.0,122.0,147.0,129.0,129.0,0.0,125.0,128.0,25.0,-106.0,-76.0,127.0,127.0,127.0,110.0,87.0,-94.0
124.0,123.0,139.0,129.0,126.0,0.0,125.0,123.0,24.0,-104.0,-75.0,127.0,127.0,127.0,110.0,87.0,-94.0
124.0,123.0,139.0,128.0,126.0,0.0,125.0,124.0,24.0,-104.0,-75.0,127.0,127.0,127.0,110.0,87.0,-94.0
123.0,122.0,139.0,127.0,126.0,0.0,125.0,123.0,24.0,-104.0,-75.0,127.0,127.0,127.0,110.0,87.0,-94.0
123.0,122.0,139.0,125.0,126.0,0.0,125.0,123.0,24.0,-104.0,-75.0,127.0,127.0,127.0,110.0,87.0,-94.0
123.0,122.0,139.0,123.0,125.0,0.0,124.0,123.0,24.0,-104.0,-75.0,127.0,127.0,127.0,110.0,87.0,-94.0
122.0,122.0,139.0,121.0,125.0,0.0,124.0,122.0,24.0,-104.0,-75.0,127.0,127.0,127.0,110.0,87.0,-94.0
122.0,121.0,139.0,121.0,125.0,0.0,124.0,121.0,24.0,-104.0,-75.0,127.0,127.0,127.0,110.0,87.0,-94.0
121.0,121.0,139.0,121.0,125.0,0.0,123.0,120.0,24.0,-104.0,-75.0,127.0,127.0,127.0,110.0,87.0,-94.0
121.0,121.0,138.0,123.0,125.0,0.0,123.0,120.0,24.0,-104.0,-75.0,127.0,127.0,127.0,110.0,87.0,-94.0
123.0,123.0,139.0,130.0,126.0,0.0,125.0,124.0,24.0,-104.0,-75.0,127.0,127.0,127.0,110.0,87.0,-94.0
123.0,126.0,139.0,119.0,125.0,47.0,125.0,126.0,24.0,-103.0,-74.0,127.0,127.0,127.0,110.0,87.0,-94.0
123.0,126.0,140.0,120.0,125.0,49.0,125.0,127.0,24.0,-103.0,-74.0,127.0,127.0,127.0,110.0,87.0,-94.0
123.0,126.0,140.0,120.0,125.0,52.0,125.0,128.0,24.0,-103.0,-74.0,127.0,127.0,127.0,110.0,87.0,-94.0
123.0,126.0,140.0,119.0,125.0,54.0,125.0,128.0,24.0,-103.0,-74.0,127.0,127.0,127.0,110.0,87.0,-94.0
123.0,125.0,140.0,119.0,125.0,56.0,125.0,128.0,24.0,-103.0,-74.0,127.0,127.0,127.0,110.0,87.0,-94.0
122.0,125.0,140.0,118.0,125.0,58.0,124.0,127.0,24.0,-103.0,-74.0,127.0,127.0,127.0,110.0,87.0,-94.0
122.0,124.0,140.0,118.0,125.0,61.0,124.0,127.0,24.0,-103.0,-74.0,127.0,127.0,127.0,110.0,87.0,-94.0
121.0,123.0,141.0,117.0,124.0,62.0,124.0,126.0,24.0,-103.0,-74.0,127.0,127.0,127.0,110.0,87.0,-94.0
122.0,126.0,139.0,118.0,124.0,44.0,125.0,125.0,24.0,-103.0,-74.0,127.0,127.0,127.0,110.0,87.0,-94.0
123.0,126.0,139.0,119.0,124.0,46.0,125.0,126.0,24.0,-103.0,-74.0,127.0,127.0,127.0,110.0,87.0,-94.0
129.0,129.0,148.0,127.0,130.0,95.0,127.0,137.0,23.0,-103.0,-74.0,127.0,127.0,127.0,110.0,87.0,-94.0
129.0,128.0,148.0,128.0,130.0,96.0,127.0,136.0,23.0,-103.0,-74.0,127.0,127.0,127.0,110.0,87.0,-94.0
130.0,128.0,148.0,129.0,130.0,97.0,126.0,135.0,23.0,-103.0,-74.0,127.0,127.0,127.0,110.0,87.0,-94.0
130.0,128.0,148.0,131.0,129.0,98.0,126.0,135.0,23.0,-103.0,-74.0,127.0,127.0,127.0,110.0,87.0,-94.0
130.0,127.0,148.0,132.0,129.0,98.0,126.0,134.0,23.0,-103.0,-74.0,127.0,127.0,127.0,110.0,87.0,-94.0
130.0,127.0,148.0,133.0,129.0,98.0,126.0,133.0,23.0,-103.0,-74.0,127.0,127.0,127.0,110.0,87.0,-94.0
130.0,127.0,148.0,134.0,129.0,98.0,126.0,133.0,23.0,-103.0,-74.0,127.0,127.0,127.0,110.0,87.0,-94.0
129.0,127.0,147.0,125.0,131.0,93.0,127.0,137.0,23.0,-103.0,-74.0,127.0,127.0,127.0,110.0,87.0,-94.0
129.0,129.0,148.0,125.0,130.0,94.0,127.0,137.0,23.0,-103.0,-74.0,127.0,127.0,127.0,110.0,87.0,-94.0
129.0,129.0,148.0,126.0,130.0,94.0,127.0,137.0,23.0,-103.0,-74.0,127.0,127.0,127.0,110.0,87.0,-94.0
131.0,124.0,138.0,122.0,127.0,101.0,128.0,125.0,22.0,-104.0,-75.0,127.0,127.0,127.0,110.0,87.0,-94.0
131.0,125.0,138.0,124.0,127.0,103.0,128.0,124.0,22.0,-104.0,-75.0,127.0,127.0,127.0,110.0,87.0,-94.0
131.0,125.0,138.0,126.0,127.0,103.0,128.0,124.0,22.0,-104.0,-75.0,127.0,127.0,127.0,110.0,87.0,-94.0
131.0,125.0,137.0,127.0,128.0,103.0,128.0,123.0,22.0,-104.0,-75.0,127.0,127.0,127.0,110.0,87.0,-94.0
131.0,125.0,137.0,128.0,128.0,104.0,128.0,123.0,22.0,-104.0,-75.0,127.0,127.0,127.0,110.0,87.0,-94.0
130.0,126.0,136.0,128.0,129.0,105.0,128.0,122.0,22.0,-104.0,-75.0,127.0,127.0,127.0,110.0,87.0,-94.0
132.0,126.0,140.0,113.0,128.0,98.0,128.0,130.0,22.0,-104.0,-75.0,127.0,127.0,127.0,110.0,87.0,-94.0
132.0,126.0,140.0,115.0,128.0,99.0,128.0,128.0,22.0,-104.0,-75.0,127.0,127.0,127.0,110.0,87.0,-94.0
132.0,125.0,139.0,117.0,128.0,100.0,128.0,127.0,22.0,-104.0,-75.0,127.0,127.0,127.0,110.0,87.0,-94.0
131.0,124.0,139.0,120.0,127.0,100.0,128.0,126.0,22.0,-104.0,-75.0,127.0,127.0,127.0,110.0,87.0,-94.0
123.0,123.0,121.0,118.0,117.0,104.0,124.0,120.0,20.0,-104.0,-74.0,127.0,127.0,127.0,110.0,87.0,-94.0
123.0,122.0,121.0,119.0,117.0,105.0,124.0,120.0,20.0,-104.0,-74.0,127.0,127.0,127.0,110.0,87.0,-94.0
124.0,122.0,121.0,120.0,117.0,105.0,124.0,121.0,20.0,-104.0,-74.0,127.0,127.0,127.0,110.0,87.0,-94.0
124.0,122.0,121.0,122.0,117.0,107.0,124.0,122.0,20.0,-104.0,-74.0,127.0,127.0,127.0,110.0,87.0,-94.0
124.0,122.0,121.0,124.0,117.0,107.0,124.0,123.0,20.0,-104.0,-74.0,127.0,127.0,127.0,110.0,87.0,-94.0
124.0,124.0,121.0,116.0,121.0,105.0,124.0,122.0,20.0,-104.0,-74.0,127.0,127.0,127.0,110.0,87.0,-94.0
124.0,124.0,121.0,116.0,120.0,105.0,124.0,122.0,20.0,-104.0,-74.0,127.0,127.0,127.0,110.0,87.0,-94.0
124.0,124.0,121.0,115.0,119.0,104.0,124.0,121.0,20.0,-104.0,-74.0,127.0,127.0,127.0,110.0,87.0,-94.0
124.0,124.0,121.0,116.0,118.0,105.0,124.0,121.0,20.0,-104.0,-74.0,127.0,127.0,127.0,110.0,87.0,-94.0
124.0,123.0,121.0,116.0,117.0,104.0,124.0,120.0,20.0,-104.0,-74.0,127.0,127.0,127.0,110.0,87.0,-94.0
124.0,124.0,131.0,127.0,127.0,115.0,124.0,120.0,21.0,-102.0,-73.0,127.0,127.0,127.0,110.0,87.0,-94.0
124.0,124.0,132.0,127.0,127.0,115.0,124.0,122.0,21.0,-102.0,-73.0,127.0,127.0,127.0,110.0,87.0,-94.0
124.0,124.0,132.0,127.0,127.0,114.0,124.0,123.0,21.0,-102.0,-73.0,127.0,127.0,127.0,110.0,87.0,-94.0
124.0,124.0,132.0,127.0,127.0,114.0,124.0,124.0,21.0,-102.0,-73.0,127.0,127.0,127.0,110.0,87.0,-94.0
123.0,125.0,129.0,124.0,126.0,113.0,125.0,121.0,21.0,-102.0,-73.0,127.0,127.0,127.0,110.0,87.0,-94.0
123.0,125.0,130.0,124.0,127.0,114.0,124.0,120.0,21.0,-102.0,-73.0,127.0,127.0,127.0,110.0,87.0,-94.0
123.0,125.0,130.0,125.0,127.0,115.0,124.0,119.0,21.0,-102.0,-73.0,127.0,127.0,127.0,110.0,87.0,-94.0
124.0,125.0,130.0,125.0,127.0,115.0,124.0,119.0,21.0,-102.0,-73.0,127.0,127.0,127.0,110.0,87.0,-94.0
124.0,125.0,131.0,126.0,127.0,115.0,124.0,119.0,21.0,-102.0,-73.0,127.0,127.0,127.0,110.0,87.0,-94.0
124.0,125.0,131.0,126.0,127.0,115.0,124.0,119.0,21.0,-102.0,-73.0,127.0,127.0,127.0,110.0,87.0,-94.0
127.0,120.0,148.0,124.0,125.0,102.0,123.0,127.0,22.0,-103.0,-73.0,127.0,127.0,127.0,110.0,87.0,-94.0
127.0,121.0,148.0,125.0,126.0,101.0,123.0,128.0,22.0,-103.0,-73.0,127.0,127.0,127.0,110.0,87.0,-94.0
127.0,121.0,148.0,127.0,126.0,99.0,124.0,129.0,22.0,-103.0,-73.0,127.0,127.0,127.0,110.0,87.0,-94.0
126.0,121.0,147.0,121.0,126.0,107.0,123.0,124.0,22.0,-103.0,-73.0,127.0,127.0,127.0,110.0,87.0,-94.0
126.0,121.0,147.0,121.0,126.0,106.0,123.0,123.0,22.0,-103.0,-73.0,127.0,127.0,127.0,110.0,87.0,-94.0
127.0,121.0,147.0,121.0,125.0,107.0,123.0,123.0,22.0,-103.0,-73.0,127.0,127.0,127.0,110.0,87.0,-94.0
126.0,121.0,147.0,122.0,125.0,106.0,123.0,124.0,22.0,-103.0,-73.0,127.0,127.0,127.0,110.0,87.0,-94.0
126.0,120.0,148.0,122.0,125.0,105.0,123.0,125.0,22.0,-103.0,-73.0,127.0,127.0,127.0,110.0,87.0,-94.0
126.0,121.0,148.0,123.0,125.0,105.0,123.0,125.0,22.0,-103.0,-73.0,127.0,127.0,127.0,110.0,87.0,-94.0
126.0,120.0,148.0,123.0,125.0,103.0,123.0,126.0,22.0,-103.0,-73.0,127.0,127.0,127.0,110.0,87.0,-94.0
124.0,119.0,148.0,123.0,127.0,28.0,122.0,126.0,23.0,-105.0,-74.0,127.0,127.0,127.0,110.0,87.0,-94.0
124.0,119.0,148.0,124.0,127.0,29.0,122.0,125.0,23.0,-105.0,-74.0,127.0,127.0,127.0,110.0,87.0,-94.0
126.0,122.0,148.0,125.0,127.0,18.0,123.0,126.0,23.0,-105.0,-74.0,127.0,127.0,127.0,110.0,87.0,-94.0
126.0,122.0,148.0,125.0,127.0,18.0,123.0,126.0,23.0,-105.0,-74.0,127.0,127.0,127.0,110.0,87.0,-94.0
126.0,122.0,148.0,124.0,127.0,21.0,123.0,126.0,23.0,-105.0,-74.0,127.0,127.0,127.0,110.0,87.0,-94.0
125.0,122.0,148.0,124.0,127.0,22.0,123.0,126.0,23.0,-105.0,-74.0,127.0,127.0,127.0,110.0,87.0,-94.0
125.0,121.0,148.0,124.0,127.0,23.0,122.0,126.0,23.0,-105.0,-74.0,127.0,127.0,127.0,110.0,87.0,-94.0
125.0,120.0,148.0,123.0,127.0,24.0,122.0,126.0,23.0,-105.0,-74.0,127.0,127.0,127.0,110.0,87.0,-94.0
125.0,120.0,148.0,123.0,127.0,26.0,122.0,126.0,23.0,-105.0,-74.0,127.0,127.0,127.0,110.0,87.0,-94.0
125.0,120.0,148.0,123.0,127.0,27.0,122.0,126.0,23.0,-105.0,-74.0,127.0,127.0,127.0,110.0,87.0,-94.0
122.0,120.0,126.0,123.0,125.0,73.0,122.0,125.0,23.0,-105.0,-74.0,127.0,127.0,127.0,110.0,87.0,-94.0
124.0,121.0,136.0,123.0,126.0,64.0,122.0,125.0,23.0,-105.0,-74.0,127.0,127.0,127.0,110.0,87.0,-94.0
123.0,121.0,135.0,123.0,126.0,65.0,122.0,125.0,23.0,-105.0,-74.0,127.0,127.0,127.0,110.0,87.0,-94.0
123.0,121.0,134.0,122.0,126.0,68.0,122.0,125.0,23.0,-105.0,-74.0,127.0,127.0,127.0,110.0,87.0,-94.0
123.0,121.0,132.0,122.0,126.0,69.0,122.0,124.0,23.0,-105.0,-74.0,127.0,127.0,127.0,110.0,87.0,-94.0
123.0,121.0,131.0,122.0,126.0,70.0,122.0,124.0,23.0,-105.0,-74.0,127.0,127.0,127.0,110.0,87.0,-94.0
123.0,120.0,130.0,123.0,126.0,71.0,122.0,124.0,23.0,-105.0,-74.0,127.0,127.0,127.0,110.0,87.0,-94.0
123.0,120.0,129.0,123.0,126.0,72.0,122.0,124.0,23.0,-105.0,-74.0,127.0,127.0,127.0,110.0,87.0,-94.0
123.0,120.0,128.0,123.0,126.0,73.0,122.0,125.0,23.0,-105.0,-74.0,127.0,127.0,127.0,110.0,87.0,-94.0
122.0,120.0,127.0,123.0,125.0,73.0,122.0,125.0,23.0,-105.0,-74.0,127.0,127.0,127.0,110.0,87.0,-94.0
124.0,123.0,110.0,123.0,128.0,91.0,125.0,126.0,24.0,-103.0,-74.0,127.0,127.0,127.0,110.0,87.0,-94.0
124.0,123.0,110.0,123.0,128.0,91.0,125.0,126.0,24.0,-103.0,-74.0,127.0,127.0,127.0,110.0,87.0,-94.0
124.0,123.0,110.0,123.0,128.0,93.0,125.0,126.0,24.0,-103.0,-74.0,127.0,127.0,127.0,110.0,87.0,-94.0
124.0,123.0,110.0,123.0,127.0,94.0,125.0,126.0,24.0,-103.0,-74.0,127.0,127.0,127.0,110.0,87.0,-94.0
124.0,123.0,110.0,123.0,127.0,94.0,125.0,126.0,24.0,-103.0,-74.0,127.0,127.0,127.0,110.0,87.0,-94.0
124.0,123.0,110.0,122.0,126.0,96.0,125.0,126.0,24.0,-103.0,-74.0,127.0,127.0,127.0,110.0,87.0,-94.0
124.0,123.0,110.0,122.0,126.0,96.0,125.0,126.0,24.0,-103.0,-74.0,127.0,127.0,127.0,110.0,87.0,-94.0
124.0,122.0,110.0,122.0,126.0,97.0,125.0,126.0,24.0,-103.0,-74.0,127.0,127.0,127.0,110.0,87.0,-94.0
124.0,122.0,110.0,121.0,125.0,97.0,125.0,126.0,24.0,-103.0,-74.0,127.0,127.0,127.0,110.0,87.0,-94.0
124.0,123.0,110.0,121.0,125.0,98.0,125.0,126.0,24.0,-103.0,-74.0,127.0,127.0,127.0,110.0,87.0,-94.0
123.0,125.0,125.0,124.0,128.0,92.0,128.0,128.0,26.0,-103.0,-74.0,127.0,127.0,127.0,110.0,87.0,-94.0
122.0,124.0,125.0,124.0,128.0,92.0,128.0,128.0,26.0,-103.0,-74.0,127.0,127.0,127.0,110.0,87.0,-94.0
122.0,124.0,125.0,125.0,128.0,92.0,128.0,128.0,26.0,-103.0,-74.0,127.0,127.0,127.0,110.0,87.0,-94.0
122.0,124.0,126.0,125.0,128.0,93.0,128.0,128.0,26.0,-103.0,-74.0,127.0,127.0,127.0,110.0,87.0,-94.0
122.0,124.0,126.0,125.0,128.0,94.0,128.0,128.0,26.0,-103.0,-74.0,127.0,127.0,127.0,110.0,87.0,-94.0
122.0,124.0,126.0,125.0,128.0,95.0,128.0,128.0,26.0,-103.0,-74.0,127.0,127.0,127.0,110.0,87.0,-94.0
121.0,124.0,127.0,125.0,128.0,96.0,128.0,128.0,26.0,-103.0,-74.0,127.0,127.0,127.0,110.0,87.0,-94.0
121.0,123.0,127.0,126.0,128.0,96.0,128.0,128.0,26.0,-103.0,-74.0,127.0,127.0,127.0,110.0,87.0,-94.0
121.0,123.0,127.0,126.0,128.0,97.0,128.0,128.0,26.0,-103.0,-74.0,127.0,127.0,127.0,110.0,87.0,-94.0
123.0,125.0,124.0,124.0,128.0,92.0,128.0,128.0,26.0,-103.0,-74.0,127.0,127.0,127.0,110.0,87.0,-94.0
115.0,125.0,143.0,120.0,128.0,98.0,129.0,128.0,27.0,-103.0,-73.0,127.0,127.0,127.0,111.0,87.0,-94.0
114.0,125.0,143.0,120.0,128.0,98.0,129.0,128.0,27.0,-103.0,-73.0,127.0,127.0,127.0,111.0,87.0,-94.0
114.0,125.0,143.0,120.0,128.0,98.0,129.0,128.0,27.0,-103.0,-73.0,127.0,127.0,127.0,111.0,87.0,-94.0
114.0,124.0,143.0,120.0,128.0,98.0,129.0,128.0,27.0,-103.0,-73.0,127.0,127.0,127.0,111.0,87.0,-94.0
114.0,124.0,143.0,120.0,128.0,98.0,129.0,128.0,27.0,-103.0,-73.0,127.0,127.0,127.0,111.0,87.0,-94.0
113.0,124.0,143.0,121.0,128.0,98.0,129.0,128.0,27.0,-103.0,-73.0,127.0,127.0,127.0,111.0,87.0,-94.0
113.0,124.0,143.0,121.0,128.0,98.0,129.0,128.0,27.0,-103.0,-73.0,127.0,127.0,127.0,111.0,87.0,-94.0
113.0,124.0,144.0,121.0,128.0,98.0,129.0,128.0,27.0,-103.0,-73.0,127.0,127.0,127.0,111.0,87.0,-94.0
115.0,125.0,142.0,121.0,129.0,98.0,129.0,128.0,27.0,-103.0,-73.0,127.0,127.0,127.0,111.0,87.0,-94.0
115.0,125.0,143.0,120.0,128.0,98.0,129.0,128.0,27.0,-103.0,-73.0,127.0,127.0,127.0,111.0,87.0,-94.0
111.0,128.0,137.0,128.0,128.0,107.0,129.0,128.0,28.0,-104.0,-72.0,127.0,127.0,127.0,111.0,87.0,-94.0
111.0,128.0,137.0,128.0,128.0,107.0,129.0,128.0,28.0,-104.0,-72.0,127.0,127.0,127.0,111.0,87.0,-94.0
111.0,127.0,137.0,128.0,128.0,107.0,129.0,128.0,28.0,-104.0,-72.0,127.0,127.0,127.0,111.0,87.0,-94.0
111.0,127.0,137.0,127.0,128.0,108.0,129.0,128.0,28.0,-104.0,-72.0,127.0,127.0,127.0,111.0,87.0,-94.0
111.0,127.0,138.0,127.0,128.0,108.0,129.0,128.0,28.0,-104.0,-72.0,127.0,127.0,127.0,111.0,87.0,-94.0
111.0,127.0,138.0,127.0,128.0,108.0,129.0,128.0,28.0,-104.0,-72.0,127.0,127.0,127.0,111.0,87.0,-94.0
111.0,127.0,138.0,127.0,128.0,109.0,129.0,128.0,28.0,-104.0,-72.0,127.0,127.0,127.0,111.0,87.0,-94.0
112.0,128.0,137.0,128.0,128.0,105.0,129.0,128.0,28.0,-104.0,-72.0,127.0,127.0,127.0,111.0,87.0,-94.0
111.0,127.0,137.0,128.0,128.0,105.0,129.0,128.0,28.0,-104.0,-72.0,127.0,127.0,127.0,111.0,87.0,-94.0
111.0,127.0,137.0,128.0,128.0,106.0,129.0,128.0,28.0,-104.0,-72.0,127.0,127.0,127.0,111.0,87.0,-94.0
116.0,129.0,177.0,128.0,126.0,98.0,131.0,129.0,28.0,-104.0,-72.0,127.0,127.0,127.0,111.0,87.0,-94.0
116.0,129.0,178.0,129.0,126.0,98.0,131.0,129.0,28.0,-104.0,-72.0,127.0,127.0,127.0,111.0,87.0,-94.0
116.0,128.0,180.0,129.0,126.0,98.0,132.0,129.0,28.0,-104.0,-72.0,127.0,127.0,127.0,111.0,87.0,-94.0
116.0,128.0,182.0,129.0,126.0,98.0,132.0,129.0,28.0,-104.0,-72.0,127.0,127.0,127.0,111.0,87.0,-94.0
116.0,128.0,183.0,129.0,126.0,98.0,131.0,129.0,28.0,-104.0,-72.0,127.0,127.0,127.0,111.0,87.0,-94.0
115.0,129.0,170.0,128.0,126.0,94.0,132.0,129.0,28.0,-104.0,-72.0,127.0,127.0,127.0,111.0,87.0,-94.0
115.0,129.0,171.0,128.0,126.0,94.0,132.0,129.0,28.0,-104.0,-72.0,127.0,127.0,127.0,111.0,87.0,-94.0
115.0,129.0,172.0,128.0,126.0,95.0,132.0,129.0,28.0,-104.0,-72.0,127.0,127.0,127.0,111.0,87.0,-94.0
115.0,129.0,174.0,128.0,126.0,95.0,131.0,129.0,28.0,-104.0,-72.0,127.0,127.0,127.0,111.0,87.0,-94.0
116.0,129.0,175.0,128.0,126.0,97.0,131.0,129.0,28.0,-104.0,-72.0,127.0,127.0,127.0,111.0,87.0,-94.0
119.0,130.0,237.0,127.0,125.0,103.0,131.0,129.0,26.0,-104.0,-73.0,127.0,127.0,127.0,111.0,87.0,-94.0
119.0,130.0,235.0,127.0,125.0,105.0,131.0,129.0,26.0,-104.0,-73.0,127.0,127.0,127.0,111.0,87.0,-94.0
119.0,130.0,233.0,127.0,125.0,105.0,131.0,129.0,26.0,-104.0,-73.0,127.0,127.0,127.0,111.0,87.0,-94.0
119.0,130.0,231.0,127.0,126.0,105.0,131.0,129.0,26.0,-104.0,-73.0,127.0,127.0,127.0,111.0,87.0,-94.0
119.0,130.0,248.0,128.0,126.0,99.0,132.0,129.0,26.0,-104.0,-73.0,127.0,127.0,127.0,111.0,87.0,-94.0
119.0,130.0,246.0,128.0,125.0,101.0,132.0,129.0,26.0,-104.0,-73.0,127.0,127.0,127.0,111.0,87.0,-94.0
119.0,130.0,245.0,128.0,125.0,101.0,132.0,129.0,26.0,-104.0,-73.0,127.0,127.0,127.0,111.0,87.0,-94.0
119.0,130.0,243.0,127.0,125.0,101.0,131.0,129.0,26.0,-104.0,-73.0,127.0,127.0,127.0,111.0,87.0,-94.0
119.0,130.0,241.0,127.0,125.0,103.0,131.0,129.0,26.0,-104.0,-73.0,127.0,127.0,127.0,111.0,87.0,-94.0
119.0,130.0,239.0,127.0,125.0,103.0,131.0,129.0,26.0,-104.0,-73.0,127.0,127.0,127.0,111.0,87.0,-94.0
120.0,131.0,150.0,128.0,126.0,107.0,129.0,127.0,25.0,-104.0,-74.0,127.0,127.0,127.0,111.0,87.0,-94.0
120.0,130.0,149.0,128.0,126.0,108.0,129.0,127.0,25.0,-104.0,-74.0,127.0,127.0,127.0,111.0,87.0,-94.0
120.0,130.0,147.0,128.0,126.0,107.0,129.0,127.0,25.0,-104.0,-74.0,127.0,127.0,127.0,111.0,87.0,-94.0
120.0,131.0,159.0,129.0,126.0,104.0,130.0,127.0,25.0,-104.0,-74.0,127.0,127.0,127.0,111.0,87.0,-94.0
120.0,131.0,157.0,129.0,126.0,105.0,130.0,127.0,25.0,-104.0,-74.0,127.0,127.0,127.0,111.0,87.0,-94.0
120.0,131.0,156.0,129.0,126.0,105.0,129.0,127.0,25.0,-104.0,-74.0,127.0,127.0,127.0,111.0,87.0,-94.0
120.0,131.0,155.0,128.0,126.0,105.0,129.0,127.0,25.0,-104.0,-74.0,127.0,127.0,127.0,111.0,87.0,-94.0
121.0,131.0,153.0,128.0,126.0,106.0,129.0,127.0,25.0,-104.0,-74.0,127.0,127.0,127.0,111.0,87.0,-94.0
120.0,131.0,152.0,128.0,126.0,107.0,129.0,127.0,25.0,-104.0,-74.0,127.0,127.0,127.0,111.0,87.0,-94.0
120.0,130.0,151.0,128.0,126.0,106.0,129.0,127.0,25.0,-104.0,-74.0,127.0,127.0,127.0,111.0,87.0,-94.0
121.0,130.0,88.0,129.0,126.0,116.0,128.0,127.0,24.0,-105.0,-74.0,127.0,127.0,127.0,111.0,87.0,-94.0
121.0,130.0,87.0,129.0,126.0,116.0,128.0,127.0,24.0,-105.0,-74.0,127.0,127.0,127.0,111.0,87.0,-94.0
120.0,130.0,97.0,129.0,126.0,108.0,129.0,127.0,24.0,-105.0,-74.0,127.0,127.0,127.0,111.0,87.0,-94.0
121.0,131.0,96.0,129.0,126.0,110.0,129.0,127.0,24.0,-105.0,-74.0,127.0,127.0,127.0,111.0,87.0,-94.0
121.0,130.0,95.0,129.0,126.0,110.0,129.0,127.0,24.0,-105.0,-74.0,127.0,127.0,127.0,111.0,87.0,-94.0
121.0,130.0,94.0,129.0,126.0,110.0,129.0,127.0,24.0,-105.0,-74.0,127.0,127.0,127.0,111.0,87.0,-94.0
121.0,130.0,92.0,129.0,126.0,112.0,129.0,127.0,24.0,-105.0,-74.0,127.0,127.0,127.0,111.0,87.0,-94.0
121.0,130.0,91.0,129.0,126.0,113.0,129.0,127.0,24.0,-105.0,-74.0,127.0,127.0,127.0,111.0,87.0,-94.0
121.0,130.0,90.0,129.0,126.0,113.0,129.0,127.0,24.0,-105.0,-74.0,127.0,127.0,127.0,111.0,87.0,-94.0
121.0,130.0,89.0,129.0,126.0,115.0,128.0,127.0,24.0,-105.0,-74.0,127.0,127.0,127.0,111.0,87.0,-94.0
122.0,128.0,0.0,128.0,126.0,151.0,127.0,128.0,23.0,-106.0,-74.0,127.0,127.0,127.0,111.0,87.0,-94.0
122.0,129.0,0.0,128.0,126.0,142.0,128.0,128.0,23.0,-106.0,-74.0,127.0,127.0,127.0,111.0,87.0,-94.0
122.0,129.0,0.0,128.0,126.0,142.0,128.0,128.0,23.0,-106.0,-74.0,127.0,127.0,127.0,111.0,87.0,-94.0
122.0,128.0,0.0,128.0,126.0,143.0,128.0,128.0,23.0,-106.0,-74.0,127.0,127.0,127.0,111.0,87.0,-94.0
122.0,128.0,0.0,128.0,126.0,144.0,128.0,128.0,23.0,-106.0,-74.0,127.0,127.0,127.0,111.0,87.0,-94.0
122.0,128.0,0.0,128.0,126.0,145.0,127.0,128.0,23.0,-106.0,-74.0,127.0,127.0,127.0,111.0,87.0,-94.0
122.0,129.0,0.0,128.0,126.0,147.0,127.0,128.0,23.0,-106.0,-74.0,127.0,127.0,127.0,111.0,87.0,-94.0
122.0,128.0,0.0,128.0,126.0,148.0,127.0,128.0,23.0,-106.0,-74.0,127.0,127.0,127.0,111.0,87.0,-94.0
122.0,128.0,0.0,128.0,126.0,149.0,127.0,128.0,23.0,-106.0,-74.0,127.0,127.0,127.0,111.0,87.0,-94.0
122.0,128.0,0.0,128.0,126.0,151.0,127.0,128.0,23.0,-106.0,-74.0,127.0,127.0,127.0,111.0,87.0,-94.0
122.0,127.0,0.0,128.0,126.0,164.0,126.0,127.0,24.0,-107.0,-74.0,127.0,127.0,127.0,111.0,87.0,-94.0
122.0,127.0,0.0,128.0,126.0,164.0,126.0,127.0,24.0,-107.0,-74.0,127.0,127.0,127.0,111.0,87.0,-94.0
122.0,126.0,0.0,128.0,126.0,165.0,126.0,127.0,24.0,-107.0,-74.0,127.0,127.0,127.0,111.0,87.0,-94.0
122.0,126.0,0.0,128.0,126.0,166.0,126.0,127.0,24.0,-107.0,-74.0,127.0,127.0,127.0,111.0,87.0,-94.0
122.0,126.0,0.0,128.0,126.0,166.0,126.0,127.0,24.0,-107.0,-74.0,127.0,127.0,127.0,111.0,87.0,-94.0
121.0,126.0,0.0,127.0,126.0,166.0,126.0,127.0,24.0,-107.0,-74.0,127.0,127.0,127.0,111.0,87.0,-94.0
121.0,126.0,0.0,127.0,126.0,167.0,126.0,127.0,24.0,-107.0,-74.0,127.0,127.0,127.0,111.0,87.0,-94.0
121.0,125.0,0.0,127.0,126.0,167.0,126.0,127.0,24.0,-107.0,-74.0,127.0,127.0,127.0,111.0,87.0,-94.0
121.0,125.0,0.0,127.0,126.0,168.0,126.0,127.0,24.0,-107.0,-74.0,127.0,127.0,127.0,111.0,87.0,-94.0
121.0,125.0,0.0,127.0,126.0,169.0,126.0,127.0,24.0,-107.0,-74.0,127.0,127.0,127.0,111.0,87.0,-94.0
122.0,127.0,0.0,127.0,126.0,206.0,126.0,126.0,25.0,-108.0,-73.0,127.0,127.0,127.0,111.0,87.0,-94.0
122.0,127.0,0.0,127.0,127.0,208.0,126.0,126.0,25.0,-108.0,-73.0,127.0,127.0,127.0,111.0,87.0,-94.0
122.0,127.0,0.0,127.0,127.0,209.0,126.0,126.0,25.0,-108.0,-73.0,127.0,127.0,127.0,111.0,87.0,-94.0
122.0,127.0,0.0,127.0,126.0,211.0,126.0,126.0,25.0,-108.0,-73.0,127.0,127.0,127.0,111.0,87.0,-94.0
122.0,127.0,0.0,127.0,127.0,213.0,125.0,126.0,25.0,-108.0,-73.0,127.0,127.0,127.0,111.0,87.0,-94.0
122.0,127.0,0.0,126.0,127.0,214.0,126.0,126.0,25.0,-108.0,-73.0,127.0,127.0,127.0,111.0,87.0,-94.0
122.0,126.0,0.0,126.0,126.0,216.0,126.0,126.0,25.0,-108.0,-73.0,127.0,127.0,127.0,111.0,87.0,-94.0
122.0,126.0,0.0,126.0,126.0,218.0,125.0,126.0,25.0,-108.0,-73.0,127.0,127.0,127.0,111.0,87.0,-94.0
122.0,126.0,0.0,126.0,126.0,220.0,125.0,126.0,25.0,-108.0,-73.0,127.0,127.0,127.0,111.0,87.0,-94.0
122.0,127.0,0.0,127.0,126.0,204.0,126.0,126.0,25.0,-108.0,-73.0,127.0,127.0,127.0,111.0,87.0,-94.0
123.0,127.0,0.0,126.0,127.0,254.0,125.0,126.0,26.0,-107.0,-73.0,127.0,127.0,127.0,111.0,87.0,-94.0
123.0,127.0,0.0,126.0,127.0,254.0,125.0,126.0,26.0,-107.0,-73.0,127.0,127.0,127.0,111.0,87.0,-94.0
123.0,126.0,0.0,126.0,126.0,254.0,125.0,126.0,26.0,-107.0,-73.0,127.0,127.0,127.0,111.0,87.0,-94.0
123.0,126.0,0.0,126.0,127.0,254.0,125.0,126.0,26.0,-107.0,-73.0,127.0,127.0,127.0,111.0,87.0,-94.0
123.0,126.0,0.0,126.0,126.0,254.0,125.0,126.0,26.0,-107.0,-73.0,127.0,127.0,127.0,111.0,87.0,-94.0
122.0,126.0,0.0,125.0,126.0,254.0,125.0,126.0,26.0,-107.0,-73.0,127.0,127.0,127.0,111.0,87.0,-94.0
122.0,126.0,0.0,125.0,127.0,254.0,125.0,126.0,26.0,-107.0,-73.0,127.0,127.0,127.0,111.0,87.0,-94.0
122.0,126.0,0.0,125.0,127.0,254.0,125.0,126.0,26.0,-107.0,-73.0,127.0,127.0,127.0,111.0,87.0,-94.0
123.0,127.0,0.0,127.0,127.0,254.0,125.0,126.0,26.0,-107.0,-73.0,127.0,127.0,127.0,111.0,87.0,-94.0
123.0,127.0,0.0,126.0,127.0,254.0,125.0,126.0,26.0,-107.0,-73.0,127.0,127.0,127.0,111.0,87.0,-94.0
121.0,124.0,0.0,125.0,127.0,254.0,124.0,125.0,26.0,-107.0,-74.0,127.0,127.0,127.0,111.0,87.0,-94.0
121.0,124.0,0.0,125.0,127.0,254.0,124.0,125.0,26.0,-107.0,-74.0,127.0,127.0,127.0,111.0,87.0,-94.0
121.0,124.0,0.0,125.0,127.0,254.0,124.0,125.0,26.0,-107.0,-74.0,127.0,127.0,127.0,111.0,87.0,-94.0
121.0,124.0,0.0,125.0,127.0,254.0,124.0,125.0,26.0,-107.0,-74.0,127.0,127.0,127.0,111.0,87.0,-94.0
121.0,124.0,0.0,125.0,127.0,254.0,124.0,125.0,26.0,-107.0,-74.0,127.0,127.0,127.0,111.0,87.0,-94.0
121.0,124.0,0.0,125.0,127.0,254.0,123.0,125.0,26.0,-107.0,-74.0,127.0,127.0,127.0,111.0,87.0,-94.0
121.0,124.0,0.0,125.0,127.0,254.0,123.0,125.0,26.0,-107.0,-74.0,127.0,127.0,127.0,111.0,87.0,-94.0
121.0,124.0,0.0,125.0,127.0,254.0,124.0,126.0,26.0,-107.0,-74.0,127.0,127.0,127.0,111.0,87.0,-94.0
121.0,124.0,0.0,125.0,127.0,254.0,124.0,125.0,26.0,-107.0,-74.0,127.0,127.0,127.0,111.0,87.0,-94.0
121.0,125.0,0.0,125.0,127.0,254.0,124.0,125.0,26.0,-107.0,-74.0,127.0,127.0,127.0,111.0,87.0,-94.0
121.0,124.0,252.0,126.0,127.0,254.0,123.0,125.0,26.0,-106.0,-74.0,127.0,127.0,127.0,111.0,87.0,-94.0
121.0,124.0,254.0,126.0,127.0,254.0,123.0,125.0,26.0,-106.0,-74.0,127.0,127.0,127.0,111.0,87.0,-94.0
121.0,124.0,254.0,126.0,127.0,254.0,123.0,125.0,26.0,-106.0,-74.0,127.0,127.0,127.0,111.0,87.0,-94.0
121.0,124.0,254.0,126.0,127.0,254.0,123.0,125.0,26.0,-106.0,-74.0,127.0,127.0,127.0,111.0,87.0,-94.0
121.0,124.0,254.0,126.0,127.0,254.0,123.0,125.0,26.0,-106.0,-74.0,127.0,127.0,127.0,111.0,87.0,-94.0
121.0,124.0,254.0,126.0,127.0,254.0,123.0,125.0,26.0,-106.0,-74.0,127.0,127.0,127.0,111.0,87.0,-94.0
121.0,124.0,218.0,126.0,127.0,254.0,124.0,125.0,26.0,-106.0,-74.0,127.0,127.0,127.0,111.0,87.0,-94.0
121.0,124.0,226.0,126.0,127.0,254.0,124.0,125.0,26.0,-106.0,-74.0,127.0,127.0,127.0,111.0,87.0,-94.0
121.0,124.0,234.0,126.0,127.0,254.0,123.0,125.0,26.0,-106.0,-74.0,127.0,127.0,127.0,111.0,87.0,-94.0
121.0,124.0,243.0,126.0,127.0,254.0,123.0,125.0,26.0,-106.0,-74.0,127.0,127.0,127.0,111.0,87.0,-94.0
124.0,126.0,254.0,127.0,127.0,254.0,126.0,126.0,25.0,-106.0,-74.0,127.0,127.0,127.0,111.0,87.0,-94.0
124.0,126.0,254.0,127.0,127.0,254.0,126.0,127.0,25.0,-106.0,-74.0,127.0,127.0,127.0,111.0,87.0,-94.0
124.0,126.0,254.0,127.0,127.0,254.0,126.0,127.0,25.0,-106.0,-74.0,127.0,127.0,127.0,111.0,87.0,-94.0
124.0,126.0,254.0,127.0,127.0,254.0,126.0,127.0,25.0,-106.0,-74.0,127.0,127.0,127.0,111.0,87.0,-94.0
124.0,126.0,254.0,127.0,127.0,254.0,126.0,127.0,25.0,-106.0,-74.0,127.0,127.0,127.0,111.0,87.0,-94.0
124.0,126.0,254.0,127.0,127.0,254.0,126.0,126.0,25.0,-106.0,-74.0,127.0,127.0,127.0,111.0,87.0,-94.0
124.0,126.0,254.0,127.0,127.0,254.0,126.0,127.0,25.0,-106.0,-74.0,127.0,127.0,127.0,111.0,87.0,-94.0
124.0,126.0,254.0,127.0,127.0,254.0,126.0,127.0,25.0,-106.0,-74.0,127.0,127.0,127.0,111.0,87.0,-94.0
124.0,126.0,254.0,127.0,127.0,254.0,126.0,127.0,25.0,-106.0,-74.0,127.0,127.0,127.0,111.0,87.0,-94.0
124.0,126.0,254.0,127.0,127.0,254.0,126.0,127.0,25.0,-106.0,-74.0,127.0,127.0,127.0,111.0,87.0,-94.0
126.0,129.0,254.0,128.0,127.0,254.0,128.0,127.0,25.0,-105.0,-74.0,127.0,127.0,127.0,111.0,87.0,-94.0
126.0,129.0,254.0,128.0,127.0,254.0,128.0,127.0,25.0,-105.0,-74.0,127.0,127.0,127.0,111.0,87.0,-94.0
126.0,129.0,254.0,127.0,127.0,254.0,128.0,127.0,25.0,-105.0,-74.0,127.0,127.0,127.0,111.0,87.0,-94.0
126.0,129.0,254.0,128.0,127.0,254.0,128.0,127.0,25.0,-105.0,-74.0,127.0,127.0,127.0,111.0,87.0,-94.0
126.0,129.0,254.0,127.0,127.0,254.0,128.0,127.0,25.0,-105.0,-74.0,127.0,127.0,127.0,111.0,87.0,-94.0
126.0,129.0,254.0,128.0,127.0,254.0,128.0,127.0,25.0,-105.0,-74.0,127.0,127.0,127.0,111.0,87.0,-94.0
126.0,129.0,254.0,128.0,127.0,254.0,128.0,127.0,25.0,-105.0,-74.0,127.0,127.0,127.0,111.0,87.0,-94.0
126.0,129.0,254.0,128.0,127.0,254.0,128.0,127.0,25.0,-105.0,-74.0,127.0,127.0,127.0,111.0,87.0,-94.0
126.0,129.0,254.0,128.0,127.0,254.0,128.0,127.0,25.0,-105.0,-74.0,127.0,127.0,127.0,111.0,87.0,-94.0
126.0,129.0,254.0,128.0,127.0,254.0,128.0,127.0,25.0,-105.0,-74.0,127.0,127.0,127.0,111.0,87.0,-94.0
125.0,127.0,254.0,126.0,127.0,254.0,127.0,127.0,24.0,-105.0,-74.0,127.0,127.0,127.0,111.0,87.0,-94.0
125.0,127.0,254.0,126.0,127.0,254.0,127.0,126.0,24.0,-105.0,-74.0,127.0,127.0,127.0,111.0,87.0,-94.0
125.0,127.0,254.0,126.0,127.0,254.0,126.0,126.0,24.0,-105.0,-74.0,127.0,127.0,127.0,111.0,87.0,-94.0
125.0,127.0,254.0,126.0,127.0,254.0,127.0,127.0,24.0,-105.0,-74.0,127.0,127.0,127.0,111.0,87.0,-94.0
125.0,127.0,254.0,126.0,127.0,254.0,127.0,127.0,24.0,-105.0,-74.0,127.0,127.0,127.0,111.0,87.0,-94.0
125.0,127.0,254.0,126.0,127.0,254.0,127.0,127.0,24.0,-105.0,-74.0,127.0,127.0,127.0,111.0,87.0,-94.0
125.0,128.0,254.0,126.0,127.0,254.0,127.0,127.0,24.0,-105.0,-74.0,127.0,127.0,127.0,111.0,87.0,-94.0
125.0,127.0,254.0,126.0,127.0,254.0,127.0,127.0,24.0,-105.0,-74.0,127.0,127.0,127.0,111.0,87.0,-94.0
125.0,127.0,254.0,126.0,127.0,254.0,127.0,127.0,24.0,-105.0,-74.0,127.0,127.0,127.0,111.0,87.0,-94.0
125.0,127.0,254.0,126.0,127.0,254.0,127.0,126.0,24.0,-105.0,-74.0,127.0,127.0,127.0,111.0,87.0,-94.0
125.0,127.0,254.0,127.0,127.0,254.0,126.0,127.0,24.0,-105.0,-74.0,127.0,127.0,127.0,111.0,87.0,-94.0
125.0,127.0,254.0,127.0,127.0,254.0,126.0,127.0,24.0,-105.0,-74.0,127.0,127.0,127.0,111.0,87.0,-94.0
125.0,127.0,254.0,128.0,127.0,254.0,126.0,127.0,24.0,-105.0,-74.0,127.0,127.0,127.0,111.0,87.0,-94.0
125.0,127.0,254.0,127.0,127.0,254.0,126.0,127.0,24.0,-105.0,-74.0,127.0,127.0,127.0,111.0,87.0,-94.0
125.0,127.0,254.0,127.0,127.0,254.0,126.0,127.0,24.0,-105.0,-74.0,127.0,127.0,127.0,111.0,87.0,-94.0
125.0,127.0,254.0,127.0,127.0,254.0,126.0,127.0,24.0,-105.0,-74.0,127.0,127.0,127.0,111.0,87.0,-94.0
125.0,127.0,254.0,127.0,127.0,254.0,126.0,127.0,24.0,-105.0,-74.0,127.0,127.0,127.0,111.0,87.0,-94.0
125.0,127.0,254.0,127.0,127.0,254.0,126.0,127.0,24.0,-105.0,-74.0,127.0,127.0,127.0,111.0,87.0,-94.0
125.0,127.0,254.0,127.0,127.0,254.0,126.0,127.0,24.0,-105.0,-74.0,127.0,127.0,127.0,111.0,87.0,-94.0
125.0,127.0,254.0,127.0,127.0,254.0,126.0,127.0,24.0,-105.0,-74.0,127.0,127.0,127.0,111.0,87.0,-94.0
124.0,126.0,254.0,126.0,126.0,254.0,125.0,126.0,24.0,-104.0,-74.0,127.0,127.0,127.0,111.0,87.0,-94.0
124.0,126.0,254.0,127.0,127.0,254.0,125.0,126.0,24.0,-104.0,-74.0,127.0,127.0,127.0,111.0,87.0,-94.0
124.0,126.0,254.0,127.0,127.0,254.0,125.0,126.0,24.0,-104.0,-74.0,127.0,127.0,127.0,111.0,87.0,-94.0
124.0,126.0,254.0,126.0,127.0,254.0,125.0,126.0,24.0,-104.0,-74.0,127.0,127.0,127.0,111.0,87.0,-94.0
125.0,127.0,254.0,126.0,126.0,254.0,125.0,126.0,24.0,-104.0,-74.0,127.0,127.0,127.0,111.0,87.0,-94.0
125.0,127.0,254.0,126.0,126.0,254.0,125.0,126.0,24.0,-104.0,-74.0,127.0,127.0,127.0,111.0,87.0,-94.0
124.0,126.0,254.0,126.0,126.0,254.0,125.0,126.0,24.0,-104.0,-74.0,127.0,127.0,127.0,111.0,87.0,-94.0
124.0,126.0,254.0,126.0,126.0,254.0,125.0,126.0,24.0,-104.0,-74.0,127.0,127.0,127.0,111.0,87.0,-94.0
124.0,126.0,254.0,126.0,126.0,254.0,125.0,126.0,24.0,-104.0,-74.0,127.0,127.0,127.0,111.0,87.0,-94.0
124.0,126.0,254.0,126.0,127.0,254.0,125.0,126.0,24.0,-104.0,-74.0,127.0,127.0,127.0,111.0,87.0,-94.0
123.0,125.0,254.0,127.0,126.0,254.0,124.0,125.0,24.0,-104.0,-74.0,127.0,127.0,127.0,111.0,87.0,-94.0
123.0,125.0,254.0,127.0,126.0,254.0,124.0,125.0,24.0,-104.0,-74.0,127.0,127.0,127.0,111.0,87.0,-94.0
123.0,125.0,254.0,127.0,126.0,254.0,124.0,125.0,24.0,-104.0,-74.0,127.0,127.0,127.0,111.0,87.0,-94.0
123.0,125.0,254.0,127.0,126.0,254.0,123.0,125.0,24.0,-104.0,-74.0,127.0,127.0,127.0,111.0,87.0,-94.0
123.0,125.0,254.0,127.0,126.0,254.0,123.0,125.0,24.0,-104.0,-74.0,127.0,127.0,127.0,111.0,87.0,-94.0
123.0,124.0,254.0,127.0,126.0,254.0,123.0,125.0,24.0,-104.0,-74.0,127.0,127.0,127.0,111.0,87.0,-94.0
123.0,125.0,254.0,127.0,126.0,254.0,123.0,125.0,24.0,-104.0,-74.0,127.0,127.0,127.0,111.0,87.0,-94.0
123.0,125.0,254.0,127.0,126.0,254.0,123.0,125.0,24.0,-104.0,-74.0,127.0,127.0,127.0,111.0,87.0,-94.0
123.0,124.0,254.0,127.0,126.0,254.0,123.0,125.0,24.0,-104.0,-74.0,127.0,127.0,127.0,111.0,87.0,-94.0
123.0,124.0,254.0,127.0,126.0,254.0,123.0,125.0,24.0,-104.0,-74.0,127.0,127.0,127.0,111.0,87.0,-94.0
123.0,123.0,254.0,127.0,127.0,254.0,121.0,125.0,24.0,-103.0,-74.0,127.0,127.0,127.0,111.0,87.0,-94.0
122.0,122.0,254.0,127.0,127.0,254.0,121.0,125.0,24.0,-103.0,-74.0,127.0,127.0,127.0,111.0,87.0,-94.0
122.0,122.0,254.0,127.0,127.0,254.0,121.0,125.0,24.0,-103.0,-74.0,127.0,127.0,127.0,111.0,87.0,-94.0
122.0,122.0,254.0,127.0,127.0,254.0,121.0,125.0,24.0,-103.0,-74.0,127.0,127.0,127.0,111.0,87.0,-94.0
122.0,122.0,254.0,127.0,126.0,254.0,121.0,125.0,24.0,-103.0,-74.0,127.0,127.0,127.0,111.0,87.0,-94.0
122.0,122.0,254.0,127.0,127.0,254.0,121.0,125.0,24.0,-103.0,-74.0,127.0,127.0,127.0,111.0,87.0,-94.0
122.0,122.0,254.0,127.0,127.0,254.0,121.0,125.0,24.0,-103.0,-74.0,127.0,127.0,127.0,111.0,87.0,-94.0
122.0,122.0,254.0,127.0,126.0,254.0,121.0,125.0,24.0,-103.0,-74.0,127.0,127.0,127.0,111.0,87.0,-94.0
122.0,121.0,254.0,127.0,126.0,254.0,121.0,125.0,24.0,-103.0,-74.0,127.0,127.0,127.0,111.0,87.0,-94.0
122.0,123.0,254.0,127.0,127.0,254.0,121.0,125.0,24.0,-103.0,-74.0,127.0,127.0,127.0,111.0,87.0,-94.0
123.0,122.0,254.0,126.0,126.0,254.0,123.0,127.0,25.0,-102.0,-74.0,127.0,127.0,127.0,111.0,87.0,-94.0
122.0,122.0,254.0,126.0,126.0,254.0,123.0,127.0,25.0,-102.0,-74.0,127.0,127.0,127.0,111.0,87.0,-94.0
123.0,122.0,254.0,126.0,126.0,254.0,123.0,127.0,25.0,-102.0,-74.0,127.0,127.0,127.0,111.0,87.0,-94.0
122.0,122.0,254.0,126.0,126.0,254.0,123.0,127.0,25.0,-102.0,-74.0,127.0,127.0,127.0,111.0,87.0,-94.0
123.0,123.0,254.0,126.0,126.0,254.0,123.0,127.0,25.0,-102.0,-74.0,127.0,127.0,127.0,111.0,87.0,-94.0
123.0,123.0,254.0,127.0,126.0,254.0,123.0,127.0,25.0,-102.0,-74.0,127.0,127.0,127.0,111.0,87.0,-94.0
123.0,123.0,254.0,127.0,126.0,254.0,123.0,127.0,25.0,-102.0,-74.0,127.0,127.0,127.0,111.0,87.0,-94.0
123.0,122.0,254.0,127.0,126.0,254.0,123.0,127.0,25.0,-102.0,-74.0,127.0,127.0,127.0,111.0,87.0,-94.0
123.0,123.0,254.0,126.0,126.0,254.0,122.0,127.0,25.0,-102.0,-74.0,127.0,127.0,127.0,111.0,87.0,-94.0
123.0,122.0,254.0,126.0,126.0,254.0,123.0,127.0,25.0,-102.0,-74.0,127.0,127.0,127.0,111.0,87.0,-94.0
123.0,125.0,254.0,127.0,126.0,254.0,127.0,128.0,26.0,-102.0,-74.0,126.0,127.0,127.0,111.0,87.0,-94.0
123.0,125.0,254.0,127.0,126.0,254.0,127.0,128.0,26.0,-102.0,-74.0,126.0,127.0,127.0,111.0,87.0,-94.0
123.0,125.0,254.0,127.0,126.0,254.0,127.0,129.0,26.0,-102.0,-74.0,126.0,127.0,127.0,111.0,87.0,-94.0
123.0,124.0,254.0,127.0,126.0,254.0,127.0,128.0,26.0,-102.0,-74.0,126.0,127.0,127.0,111.0,87.0,-94.0
123.0,124.0,254.0,127.0,126.0,254.0,127.0,128.0,26.0,-102.0,-74.0,126.0,127.0,127.0,111.0,87.0,-94.0
123.0,124.0,254.0,127.0,126.0,254.0,127.0,129.0,26.0,-102.0,-74.0,126.0,127.0,127.0,111.0,87.0,-94.0
123.0,124.0,254.0,127.0,126.0,254.0,127.0,128.0,26.0,-102.0,-74.0,126.0,127.0,127.0,111.0,87.0,-94.0
124.0,125.0,254.0,127.0,126.0,254.0,127.0,128.0,26.0,-102.0,-74.0,126.0,127.0,127.0,111.0,87.0,-94.0
124.0,125.0,254.0,127.0,126.0,254.0,127.0,128.0,26.0,-102.0,-74.0,126.0,127.0,127.0,111.0,87.0,-94.0
124.0,125.0,254.0,127.0,126.0,254.0,127.0,128.0,26.0,-102.0,-74.0,126.0,127.0,127.0,111.0,87.0,-94.0
126.0,128.0,254.0,128.0,127.0,254.0,129.0,130.0,26.0,-102.0,-74.0,126.0,127.0,127.0,111.0,87.0,-94.0
126.0,128.0,254.0,128.0,127.0,254.0,129.0,130.0,26.0,-102.0,-74.0,126.0,127.0,127.0,111.0,87.0,-94.0
125.0,127.0,254.0,128.0,127.0,254.0,129.0,130.0,26.0,-102.0,-74.0,126.0,127.0,127.0,111.0,87.0,-94.0
125.0,127.0,254.0,128.0,127.0,254.0,129.0,130.0,26.0,-102.0,-74.0,126.0,127.0,127.0,111.0,87.0,-94.0
125.0,127.0,254.0,128.0,127.0,254.0,129.0,130.0,26.0,-102.0,-74.0,126.0,127.0,127.0,111.0,87.0,-94.0
125.0,127.0,254.0,128.0,127.0,254.0,129.0,130.0,26.0,-102.0,-74.0,126.0,127.0,127.0,111.0,87.0,-94.0
126.0,127.0,254.0,128.0,127.0,254.0,129.0,130.0,26.0,-102.0,-74.0,126.0,127.0,127.0,111.0,87.0,-94.0
126.0,127.0,254.0,128.0,127.0,254.0,129.0,130.0,26.0,-102.0,-74.0,126.0,127.0,127.0,111.0,87.0,-94.0
125.0,127.0,254.0,128.0,127.0,254.0,129.0,130.0,26.0,-102.0,-74.0,126.0,127.0,127.0,111.0,87.0,-94.0
126.0,128.0,254.0,128.0,127.0,254.0,129.0,130.0,26.0,-102.0,-74.0,126.0,127.0,127.0,111.0,87.0,-94.0
126.0,128.0,181.0,127.0,126.0,254.0,129.0,130.0,26.0,-103.0,-74.0,126.0,127.0,127.0,111.0,87.0,-94.0
126.0,129.0,179.0,127.0,126.0,254.0,128.0,130.0,26.0,-103.0,-74.0,126.0,127.0,127.0,111.0,87.0,-94.0
126.0,129.0,177.0,127.0,126.0,254.0,129.0,130.0,26.0,-103.0,-74.0,126.0,127.0,127.0,111.0,87.0,-94.0
126.0,129.0,175.0,127.0,126.0,254.0,129.0,130.0,26.0,-103.0,-74.0,126.0,127.0,127.0,111.0,87.0,-94.0
126.0,128.0,194.0,128.0,127.0,254.0,128.0,130.0,26.0,-103.0,-74.0,126.0,127.0,127.0,111.0,87.0,-94.0
126.0,128.0,191.0,128.0,127.0,254.0,128.0,130.0,26.0,-103.0,-74.0,126.0,127.0,127.0,111.0,87.0,-94.0
126.0,128.0,189.0,128.0,127.0,254.0,128.0,130.0,26.0,-103.0,-74.0,126.0,127.0,127.0,111.0,87.0,-94.0
126.0,128.0,187.0,128.0,127.0,254.0,128.0,130.0,26.0,-103.0,-74.0,126.0,127.0,127.0,111.0,87.0,-94.0
126.0,128.0,185.0,128.0,126.0,254.0,129.0,130.0,26.0,-103.0,-74.0,126.0,127.0,127.0,111.0,87.0,-94.0
126.0,128.0,183.0,127.0,126.0,254.0,129.0,130.0,26.0,-103.0,-74.0,126.0,127.0,127.0,111.0,87.0,-94.0
128.0,132.0,106.0,129.0,127.0,254.0,133.0,129.0,25.0,-104.0,-73.0,127.0,127.0,127.0,111.0,87.0,-94.0
128.0,132.0,105.0,129.0,127.0,254.0,133.0,129.0,25.0,-104.0,-73.0,127.0,127.0,127.0,111.0,87.0,-94.0
128.0,132.0,104.0,129.0,127.0,254.0,133.0,129.0,25.0,-104.0,-73.0,127.0,127.0,127.0,111.0,87.0,-94.0
128.0,132.0,103.0,129.0,127.0,254.0,133.0,129.0,25.0,-104.0,-73.0,127.0,127.0,127.0,111.0,87.0,-94.0
128.0,132.0,113.0,130.0,128.0,254.0,133.0,130.0,25.0,-104.0,-73.0,127.0,127.0,127.0,111.0,87.0,-94.0
128.0,132.0,112.0,129.0,127.0,254.0,133.0,130.0,25.0,-104.0,-73.0,127.0,127.0,127.0,111.0,87.0,-94.0
128.0,132.0,111.0,129.0,127.0,254.0,133.0,130.0,25.0,-104.0,-73.0,127.0,127.0,127.0,111.0,87.0,-94.0
128.0,132.0,110.0,129.0,127.0,254.0,133.0,130.0,25.0,-104.0,-73.0,127.0,127.0,127.0,111.0,87.0,-94.0
128.0,132.0,108.0,129.0,127.0,254.0,133.0,130.0,25.0,-104.0,-73.0,127.0,127.0,127.0,111.0,87.0,-94.0
128.0,132.0,107.0,129.0,127.0,254.0,133.0,130.0,25.0,-104.0,-73.0,127.0,127.0,127.0,111.0,87.0,-94.0
127.0,131.0,72.0,129.0,127.0,254.0,131.0,129.0,25.0,-104.0,-73.0,127.0,127.0,127.0,111.0,87.0,-94.0
127.0,132.0,72.0,129.0,127.0,254.0,131.0,129.0,25.0,-104.0,-73.0,127.0,127.0,127.0,111.0,87.0,-94.0
128.0,132.0,75.0,130.0,127.0,254.0,132.0,129.0,25.0,-104.0,-73.0,127.0,127.0,127.0,111.0,87.0,-94.0
128.0,132.0,75.0,129.0,127.0,254.0,132.0,129.0,25.0,-104.0,-73.0,127.0,127.0,127.0,111.0,87.0,-94.0
128.0,132.0,74.0,129.0,127.0,254.0,132.0,129.0,25.0,-104.0,-73.0,127.0,127.0,127.0,111.0,87.0,-94.0
128.0,132.0,74.0,129.0,127.0,254.0,132.0,129.0,25.0,-104.0,-73.0,127.0,127.0,127.0,111.0,87.0,-94.0
128.0,131.0,73.0,129.0,127.0,254.0,132.0,129.0,25.0,-104.0,-73.0,127.0,127.0,127.0,111.0,87.0,-94.0
127.0,131.0,73.0,129.0,127.0,254.0,131.0,129.0,25.0,-104.0,-73.0,127.0,127.0,127.0,111.0,87.0,-94.0
127.0,131.0,73.0,129.0,127.0,254.0,131.0,129.0,25.0,-104.0,-73.0,127.0,127.0,127.0,111.0,87.0,-94.0
127.0,131.0,72.0,129.0,127.0,254.0,131.0,129.0,25.0,-104.0,-73.0,127.0,127.0,127.0,111.0,87.0,-94.0
130.0,134.0,55.0,129.0,127.0,188.0,131.0,129.0,24.0,-104.0,-73.0,127.0,127.0,127.0,111.0,87.0,-94.0
130.0,134.0,57.0,129.0,127.0,199.0,131.0,129.0,24.0,-104.0,-73.0,127.0,127.0,127.0,111.0,87.0,-94.0
130.0,134.0,57.0,129.0,127.0,197.0,131.0,129.0,24.0,-104.0,-73.0,127.0,127.0,127.0,111.0,87.0,-94.0
130.0,134.0,57.0,129.0,127.0,196.0,131.0,129.0,24.0,-104.0,-73.0,127.0,127.0,127.0,111.0,87.0,-94.0
130.0,134.0,57.0,129.0,127.0,194.0,131.0,129.0,24.0,-104.0,-73.0,127.0,127.0,127.0,111.0,87.0,-94.0
130.0,134.0,57.0,129.0,127.0,193.0,131.0,129.0,24.0,-104.0,-73.0,127.0,127.0,127.0,111.0,87.0,-94.0
130.0,133.0,56.0,129.0,127.0,191.0,131.0,129.0,24.0,-104.0,-73.0,127.0,127.0,127.0,111.0,87.0,-94.0
130.0,133.0,56.0,129.0,127.0,190.0,131.0,129.0,24.0,-104.0,-73.0,127.0,127.0,127.0,111.0,87.0,-94.0
130.0,133.0,56.0,129.0,127.0,189.0,131.0,129.0,24.0,-104.0,-73.0,127.0,127.0,127.0,111.0,87.0,-94.0
130.0,134.0,55.0,129.0,127.0,189.0,131.0,129.0,24.0,-104.0,-73.0,127.0,127.0,127.0,111.0,87.0,-94.0
132.0,135.0,52.0,129.0,127.0,158.0,131.0,130.0,23.0,-104.0,-73.0,127.0,127.0,127.0,111.0,87.0,-94.0
131.0,134.0,53.0,129.0,127.0,157.0,131.0,130.0,23.0,-104.0,-73.0,127.0,127.0,127.0,111.0,87.0,-94.0
132.0,134.0,53.0,129.0,127.0,157.0,131.0,130.0,23.0,-104.0,-73.0,127.0,127.0,127.0,111.0,87.0,-94.0
131.0,134.0,53.0,129.0,127.0,156.0,131.0,130.0,23.0,-104.0,-73.0,127.0,127.0,127.0,111.0,87.0,-94.0
131.0,134.0,54.0,129.0,127.0,156.0,131.0,130.0,23.0,-104.0,-73.0,127.0,127.0,127.0,111.0,87.0,-94.0
131.0,134.0,54.0,129.0,127.0,156.0,131.0,130.0,23.0,-104.0,-73.0,127.0,127.0,127.0,111.0,87.0,-94.0
131.0,134.0,54.0,129.0,127.0,155.0,131.0,130.0,23.0,-104.0,-73.0,127.0,127.0,127.0,111.0,87.0,-94.0
131.0,134.0,55.0,129.0,127.0,155.0,131.0,130.0,23.0,-104.0,-73.0,127.0,127.0,127.0,111.0,87.0,-94.0
131.0,134.0,55.0,129.0,127.0,155.0,131.0,130.0,23.0,-104.0,-73.0,127.0,127.0,127.0,111.0,87.0,-94.0
131.0,134.0,55.0,129.0,127.0,154.0,131.0,130.0,23.0,-104.0,-73.0,127.0,127.0,127.0,111.0,87.0,-94.0
130.0,132.0,72.0,129.0,127.0,143.0,129.0,130.0,23.0,-105.0,-73.0,127.0,127.0,127.0,111.0,87.0,-94.0
130.0,133.0,72.0,129.0,127.0,143.0,129.0,130.0,23.0,-105.0,-73.0,127.0,127.0,127.0,111.0,87.0,-94.0
130.0,132.0,73.0,128.0,127.0,143.0,129.0,130.0,23.0,-105.0,-73.0,127.0,127.0,127.0,111.0,87.0,-94.0
130.0,132.0,73.0,128.0,127.0,143.0,129.0,130.0,23.0,-105.0,-73.0,127.0,127.0,127.0,111.0,87.0,-94.0
130.0,132.0,74.0,128.0,127.0,144.0,129.0,129.0,23.0,-105.0,-73.0,127.0,127.0,127.0,111.0,87.0,-94.0
130.0,132.0,74.0,128.0,127.0,144.0,129.0,129.0,23.0,-105.0,-73.0,127.0,127.0,127.0,111.0,87.0,-94.0
130.0,132.0,75.0,128.0,127.0,144.0,129.0,129.0,23.0,-105.0,-73.0,127.0,127.0,127.0,111.0,87.0,-94.0
130.0,132.0,76.0,128.0,126.0,144.0,129.0,129.0,23.0,-105.0,-73.0,127.0,127.0,127.0,111.0,87.0,-94.0
130.0,132.0,76.0,128.0,126.0,144.0,129.0,129.0,23.0,-105.0,-73.0,127.0,127.0,127.0,111.0,87.0,-94.0
130.0,132.0,72.0,129.0,127.0,143.0,129.0,130.0,23.0,-105.0,-73.0,127.0,127.0,127.0,111.0,87.0,-94.0
128.0,129.0,89.0,128.0,126.0,141.0,128.0,129.0,23.0,-105.0,-74.0,127.0,127.0,127.0,111.0,87.0,-94.0
128.0,129.0,89.0,127.0,126.0,141.0,127.0,129.0,23.0,-105.0,-74.0,127.0,127.0,127.0,111.0,87.0,-94.0
128.0,129.0,89.0,127.0,126.0,141.0,127.0,129.0,23.0,-105.0,-74.0,127.0,127.0,127.0,111.0,87.0,-94.0
128.0,129.0,89.0,127.0,126.0,141.0,127.0,129.0,23.0,-105.0,-74.0,127.0,127.0,127.0,111.0,87.0,-94.0
128.0,129.0,89.0,127.0,126.0,142.0,127.0,129.0,23.0,-105.0,-74.0,127.0,127.0,127.0,111.0,87.0,-94.0
128.0,129.0,89.0,127.0,126.0,142.0,127.0,129.0,23.0,-105.0,-74.0,127.0,127.0,127.0,111.0,87.0,-94.0
128.0,129.0,89.0,127.0,126.0,142.0,127.0,128.0,23.0,-105.0,-74.0,127.0,127.0,127.0,111.0,87.0,-94.0
128.0,129.0,89.0,127.0,126.0,142.0,127.0,128.0,23.0,-105.0,-74.0,127.0,127.0,127.0,111.0,87.0,-94.0
128.0,129.0,88.0,128.0,126.0,141.0,127.0,129.0,23.0,-105.0,-74.0,127.0,127.0,127.0,111.0,87.0,-94.0
128.0,129.0,88.0,128.0,126.0,141.0,128.0,129.0,23.0,-105.0,-74.0,127.0,127.0,127.0,111.0,87.0,-94.0
127.0,127.0,90.0,127.0,126.0,141.0,127.0,128.0,24.0,-105.0,-75.0,127.0,127.0,127.0,111.0,87.0,-94.0
126.0,127.0,90.0,127.0,126.0,141.0,127.0,128.0,24.0,-105.0,-75.0,127.0,127.0,127.0,111.0,87.0,-94.0
126.0,127.0,89.0,127.0,126.0,141.0,126.0,128.0,24.0,-105.0,-75.0,127.0,127.0,127.0,111.0,87.0,-94.0
127.0,127.0,89.0,127.0,126.0,141.0,126.0,128.0,24.0,-105.0,-75.0,127.0,127.0,127.0,111.0,87.0,-94.0
126.0,127.0,89.0,127.0,126.0,141.0,126.0,128.0,24.0,-105.0,-75.0,127.0,127.0,127.0,111.0,87.0,-94.0
126.0,127.0,90.0,127.0,126.0,141.0,127.0,128.0,24.0,-105.0,-75.0,127.0,127.0,127.0,111.0,87.0,-94.0
126.0,127.0,90.0,127.0,126.0,140.0,126.0,128.0,24.0,-105.0,-75.0,127.0,127.0,127.0,111.0,87.0,-94.0
127.0,127.0,90.0,127.0,126.0,140.0,127.0,128.0,24.0,-105.0,-75.0,127.0,127.0,127.0,111.0,87.0,-94.0
126.0,127.0,90.0,127.0,126.0,140.0,127.0,128.0,24.0,-105.0,-75.0,127.0,127.0,127.0,111.0,87.0,-94.0
127.0,127.0,90.0,127.0,126.0,141.0,127.0,128.0,24.0,-105.0,-75.0,127.0,127.0,127.0,111.0,87.0,-94.0
127.0,128.0,89.0,128.0,126.0,138.0,126.0,128.0,24.0,-105.0,-75.0,127.0,127.0,127.0,111.0,87.0,-94.0
126.0,128.0,90.0,128.0,126.0,138.0,126.0,128.0,24.0,-105.0,-75.0,127.0,127.0,127.0,111.0,87.0,-94.0
126.0,127.0,90.0,128.0,126.0,137.0,126.0,128.0,24.0,-105.0,-75.0,127.0,127.0,127.0,111.0,87.0,-94.0
126.0,127.0,90.0,128.0,126.0,138.0,126.0,128.0,24.0,-105.0,-75.0,127.0,127.0,127.0,111.0,87.0,-94.0
126.0,127.0,90.0,128.0,126.0,138.0,125.0,127.0,24.0,-105.0,-75.0,127.0,127.0,127.0,111.0,87.0,-94.0
126.0,128.0,89.0,128.0,126.0,138.0,125.0,128.0,24.0,-105.0,-75.0,127.0,127.0,127.0,111.0,87.0,-94.0
127.0,128.0,89.0,128.0,126.0,138.0,126.0,128.0,24.0,-105.0,-75.0,127.0,127.0,127.0,111.0,87.0,-94.0
127.0,128.0,89.0,128.0,126.0,137.0,126.0,128.0,24.0,-105.0,-75.0,127.0,127.0,127.0,111.0,87.0,-94.0
127.0,128.0,89.0,128.0,126.0,138.0,126.0,128.0,24.0,-105.0,-75.0,127.0,127.0,127.0,111.0,87.0,-94.0
127.0,128.0,89.0,128.0,126.0,138.0,125.0,128.0,24.0,-105.0,-75.0,127.0,127.0,127.0,111.0,87.0,-94.0
125.0,126.0,94.0,129.0,127.0,136.0,124.0,126.0,23.0,-105.0,-76.0,127.0,127.0,127.0,111.0,87.0,-94.0
125.0,126.0,94.0,129.0,127.0,136.0,124.0,126.0,23.0,-105.0,-76.0,127.0,127.0,127.0,111.0,87.0,-94.0
125.0,126.0,94.0,129.0,127.0,136.0,124.0,126.0,23.0,-105.0,-76.0,127.0,127.0,127.0,111.0,87.0,-94.0
124.0,126.0,94.0,129.0,127.0,136.0,124.0,126.0,23.0,-105.0,-76.0,127.0,127.0,127.0,111.0,87.0,-94.0
125.0,126.0,93.0,129.0,127.0,137.0,124.0,126.0,23.0,-105.0,-76.0,127.0,127.0,127.0,111.0,87.0,-94.0
125.0,126.0,95.0,129.0,127.0,135.0,124.0,127.0,23.0,-105.0,-76.0,127.0,127.0,127.0,111.0,87.0,-94.0
125.0,126.0,94.0,129.0,127.0,135.0,124.0,127.0,23.0,-105.0,-76.0,127.0,127.0,127.0,111.0,87.0,-94.0
125.0,126.0,94.0,129.0,127.0,136.0,124.0,126.0,23.0,-105.0,-76.0,127.0,127.0,127.0,111.0,87.0,-94.0
125.0,126.0,94.0,129.0,127.0,136.0,124.0,126.0,23.0,-105.0,-76.0,127.0,127.0,127.0,111.0,87.0,-94.0
125.0,126.0,94.0,129.0,127.0,136.0,124.0,127.0,23.0,-105.0,-76.0,127.0,127.0,127.0,111.0,87.0,-94.0
123.0,125.0,96.0,130.0,127.0,136.0,123.0,125.0,23.0,-104.0,-76.0,127.0,127.0,127.0,111.0,87.0,-94.0
123.0,125.0,96.0,130.0,127.0,136.0,123.0,125.0,23.0,-104.0,-76.0,127.0,127.0,127.0,111.0,87.0,-94.0
123.0,124.0,96.0,130.0,127.0,137.0,123.0,125.0,23.0,-104.0,-76.0,127.0,127.0,127.0,111.0,87.0,-94.0
123.0,125.0,96.0,130.0,127.0,137.0,123.0,125.0,23.0,-104.0,-76.0,127.0,127.0,127.0,111.0,87.0,-94.0
123.0,125.0,96.0,130.0,127.0,135.0,123.0,125.0,23.0,-104.0,-76.0,127.0,127.0,127.0,111.0,87.0,-94.0
123.0,125.0,96.0,130.0,127.0,135.0,123.0,125.0,23.0,-104.0,-76.0,127.0,127.0,127.0,111.0,87.0,-94.0
123.0,125.0,96.0,130.0,127.0,136.0,123.0,125.0,23.0,-104.0,-76.0,127.0,127.0,127.0,111.0,87.0,-94.0
123.0,125.0,96.0,130.0,127.0,136.0,123.0,125.0,23.0,-104.0,-76.0,127.0,127.0,127.0,111.0,87.0,-94.0
123.0,125.0,96.0,130.0,127.0,136.0,123.0,125.0,23.0,-104.0,-76.0,127.0,127.0,127.0,111.0,87.0,-94.0
123.0,125.0,96.0,130.0,127.0,136.0,123.0,125.0,23.0,-104.0,-76.0,127.0,127.0,127.0,111.0,87.0,-94.0
122.0,125.0,101.0,132.0,127.0,135.0,125.0,125.0,22.0,-104.0,-77.0,127.0,127.0,127.0,111.0,87.0,-94.0
122.0,125.0,101.0,132.0,127.0,135.0,125.0,125.0,22.0,-104.0,-77.0,127.0,127.0,127.0,111.0,87.0,-94.0
123.0,125.0,101.0,132.0,127.0,136.0,125.0,125.0,22.0,-104.0,-77.0,127.0,127.0,127.0,111.0,87.0,-94.0
122.0,125.0,100.0,132.0,127.0,135.0,125.0,125.0,22.0,-104.0,-77.0,127.0,127.0,127.0,111.0,87.0,-94.0
122.0,125.0,100.0,132.0,127.0,135.0,125.0,125.0,22.0,-104.0,-77.0,127.0,127.0,127.0,111.0,87.0,-94.0
122.0,125.0,100.0,132.0,127.0,135.0,125.0,125.0,22.0,-104.0,-77.0,127.0,127.0,127.0,111.0,87.0,-94.0
123.0,125.0,100.0,132.0,127.0,136.0,125.0,125.0,22.0,-104.0,-77.0,127.0,127.0,127.0,111.0,87.0,-94.0
123.0,125.0,100.0,132.0,127.0,136.0,125.0,125.0,22.0,-104.0,-77.0,127.0,127.0,127.0,111.0,87.0,-94.0
123.0,125.0,101.0,132.0,127.0,135.0,125.0,125.0,22.0,-104.0,-77.0,127.0,127.0,127.0,111.0,87.0,-94.0
122.0,125.0,101.0,132.0,127.0,135.0,125.0,125.0,22.0,-104.0,-77.0,127.0,127.0,127.0,111.0,87.0,-94.0
126.0,129.0,98.0,133.0,128.0,134.0,129.0,127.0,22.0,-104.0,-77.0,127.0,127.0,127.0,111.0,87.0,-94.0
126.0,129.0,98.0,133.0,128.0,135.0,128.0,127.0,22.0,-104.0,-77.0,127.0,127.0,127.0,111.0,87.0,-94.0
126.0,129.0,98.0,133.0,128.0,136.0,128.0,127.0,22.0,-104.0,-77.0,127.0,127.0,127.0,111.0,87.0,-94.0
126.0,129.0,98.0,133.0,128.0,135.0,128.0,127.0,22.0,-104.0,-77.0,127.0,127.0,127.0,111.0,87.0,-94.0
126.0,129.0,98.0,133.0,128.0,135.0,128.0,127.0,22.0,-104.0,-77.0,127.0,127.0,127.0,111.0,87.0,-94.0
126.0,129.0,98.0,132.0,128.0,135.0,128.0,127.0,22.0,-104.0,-77.0,127.0,127.0,127.0,111.0,87.0,-94.0
126.0,129.0,98.0,132.0,128.0,135.0,128.0,127.0,22.0,-104.0,-77.0,127.0,127.0,127.0,111.0,87.0,-94.0
126.0,129.0,98.0,132.0,128.0,135.0,129.0,127.0,22.0,-104.0,-77.0,127.0,127.0,127.0,111.0,87.0,-94.0
126.0,129.0,98.0,133.0,128.0,135.0,128.0,127.0,22.0,-104.0,-77.0,127.0,127.0,127.0,111.0,87.0,-94.0
126.0,129.0,98.0,133.0,128.0,135.0,128.0,127.0,22.0,-104.0,-77.0,127.0,127.0,127.0,111.0,87.0,-94.0
125.0,127.0,96.0,133.0,127.0,132.0,127.0,128.0,21.0,-104.0,-77.0,127.0,127.0,127.0,111.0,87.0,-94.0
126.0,129.0,96.0,134.0,127.0,132.0,128.0,128.0,21.0,-104.0,-77.0,127.0,127.0,127.0,111.0,87.0,-94.0
126.0,128.0,96.0,134.0,127.0,132.0,128.0,128.0,21.0,-104.0,-77.0,127.0,127.0,127.0,111.0,87.0,-94.0
126.0,128.0,96.0,134.0,127.0,132.0,128.0,128.0,21.0,-104.0,-77.0,127.0,127.0,127.0,111.0,87.0,-94.0
126.0,129.0,95.0,134.0,127.0,133.0,128.0,128.0,21.0,-104.0,-77.0,127.0,127.0,127.0,111.0,87.0,-94.0
126.0,128.0,95.0,134.0,127.0,133.0,128.0,128.0,21.0,-104.0,-77.0,127.0,127.0,127.0,111.0,87.0,-94.0
126.0,128.0,96.0,133.0,127.0,133.0,128.0,128.0,21.0,-104.0,-77.0,127.0,127.0,127.0,111.0,87.0,-94.0
125.0,128.0,96.0,133.0,127.0,133.0,128.0,128.0,21.0,-104.0,-77.0,127.0,127.0,127.0,111.0,87.0,-94.0
125.0,128.0,96.0,133.0,127.0,132.0,127.0,127.0,21.0,-104.0,-77.0,127.0,127.0,127.0,111.0,87.0,-94.0
125.0,127.0,96.0,133.0,127.0,132.0,127.0,128.0,21.0,-104.0,-77.0,127.0,127.0,127.0,111.0,87.0,-94.0
125.0,126.0,97.0,127.0,126.0,133.0,126.0,127.0,21.0,-105.0,-77.0,127.0,127.0,127.0,111.0,87.0,-94.0
125.0,126.0,97.0,127.0,126.0,133.0,126.0,127.0,21.0,-105.0,-77.0,127.0,127.0,127.0,111.0,87.0,-94.0
125.0,126.0,97.0,127.0,126.0,133.0,126.0,127.0,21.0,-105.0,-77.0,127.0,127.0,127.0,111.0,87.0,-94.0
125.0,127.0,97.0,126.0,126.0,134.0,126.0,127.0,21.0,-105.0,-77.0,127.0,127.0,127.0,111.0,87.0,-94.0
125.0,127.0,97.0,126.0,126.0,134.0,126.0,127.0,21.0,-105.0,-77.0,127.0,127.0,127.0,111.0,87.0,-94.0
125.0,127.0,97.0,126.0,126.0,134.0,126.0,127.0,21.0,-105.0,-77.0,127.0,127.0,127.0,111.0,87.0,-94.0
125.0,127.0,97.0,126.0,126.0,134.0,126.0,127.0,21.0,-105.0,-77.0,127.0,127.0,127.0,111.0,87.0,-94.0
125.0,127.0,97.0,126.0,126.0,135.0,126.0,127.0,21.0,-105.0,-77.0,127.0,127.0,127.0,111.0,87.0,-94.0
125.0,127.0,97.0,126.0,126.0,135.0,126.0,127.0,21.0,-105.0,-77.0,127.0,127.0,127.0,111.0,87.0,-94.0
125.0,127.0,97.0,126.0,126.0,135.0,125.0,127.0,21.0,-105.0,-77.0,127.0,127.0,127.0,111.0,87.0,-94.0
126.0,125.0,101.0,124.0,125.0,132.0,125.0,127.0,21.0,-105.0,-77.0,127.0,127.0,127.0,111.0,87.0,-94.0
126.0,125.0,101.0,123.0,125.0,132.0,125.0,127.0,21.0,-105.0,-77.0,127.0,127.0,127.0,111.0,87.0,-94.0
126.0,125.0,101.0,124.0,125.0,132.0,125.0,127.0,21.0,-105.0,-77.0,127.0,127.0,127.0,111.0,87.0,-94.0
126.0,125.0,102.0,124.0,125.0,133.0,125.0,127.0,21.0,-105.0,-77.0,127.0,127.0,127.0,111.0,87.0,-94.0
126.0,125.0,102.0,124.0,125.0,132.0,125.0,127.0,21.0,-105.0,-77.0,127.0,127.0,127.0,111.0,87.0,-94.0
126.0,125.0,102.0,123.0,125.0,133.0,125.0,127.0,21.0,-105.0,-77.0,127.0,127.0,127.0,111.0,87.0,-94.0
127.0,126.0,102.0,124.0,125.0,133.0,125.0,127.0,21.0,-105.0,-77.0,127.0,127.0,127.0,111.0,87.0,-94.0
127.0,125.0,102.0,124.0,125.0,133.0,125.0,127.0,21.0,-105.0,-77.0,127.0,127.0,127.0,111.0,87.0,-94.0
126.0,125.0,103.0,124.0,125.0,133.0,125.0,127.0,21.0,-105.0,-77.0,127.0,127.0,127.0,111.0,87.0,-94.0
126.0,125.0,101.0,124.0,125.0,132.0,125.0,127.0,21.0,-105.0,-77.0,127.0,127.0,127.0,111.0,87.0,-94.0
127.0,125.0,109.0,125.0,126.0,134.0,125.0,127.0,21.0,-105.0,-77.0,127.0,127.0,127.0,111.0,87.0,-94.0
126.0,125.0,110.0,124.0,126.0,134.0,124.0,127.0,21.0,-105.0,-77.0,127.0,127.0,127.0,111.0,87.0,-94.0
126.0,124.0,110.0,124.0,126.0,134.0,124.0,127.0,21.0,-105.0,-77.0,127.0,127.0,127.0,111.0,87.0,-94.0
126.0,124.0,110.0,124.0,126.0,134.0,124.0,127.0,21.0,-105.0,-77.0,127.0,127.0,127.0,111.0,87.0,-94.0
126.0,124.0,110.0,124.0,126.0,135.0,124.0,127.0,21.0,-105.0,-77.0,127.0,127.0,127.0,111.0,87.0,-94.0
127.0,125.0,110.0,124.0,126.0,135.0,124.0,127.0,21.0,-105.0,-77.0,127.0,127.0,127.0,111.0,87.0,-94.0
126.0,125.0,110.0,125.0,126.0,135.0,124.0,127.0,21.0,-105.0,-77.0,127.0,127.0,127.0,111.0,87.0,-94.0
126.0,124.0,110.0,124.0,126.0,136.0,124.0,127.0,21.0,-105.0,-77.0,127.0,127.0,127.0,111.0,87.0,-94.0
127.0,125.0,109.0,125.0,126.0,134.0,125.0,127.0,21.0,-105.0,-77.0,127.0,127.0,127.0,111.0,87.0,-94.0
127.0,125.0,109.0,125.0,126.0,134.0,125.0,127.0,21.0,-105.0,-77.0,127.0,127.0,127.0,111.0,87.0,-94.0
126.0,124.0,109.0,125.0,126.0,139.0,122.0,127.0,22.0,-104.0,-77.0,127.0,127.0,127.0,111.0,87.0,-94.0
126.0,124.0,109.0,125.0,126.0,139.0,122.0,127.0,22.0,-104.0,-77.0,127.0,127.0,127.0,111.0,87.0,-94.0
126.0,124.0,109.0,125.0,126.0,139.0,122.0,127.0,22.0,-104.0,-77.0,127.0,127.0,127.0,111.0,87.0,-94.0
126.0,124.0,109.0,124.0,126.0,139.0,122.0,127.0,22.0,-104.0,-77.0,127.0,127.0,127.0,111.0,87.0,-94.0
126.0,124.0,109.0,124.0,126.0,140.0,122.0,127.0,22.0,-104.0,-77.0,127.0,127.0,127.0,111.0,87.0,-94.0
126.0,124.0,109.0,124.0,126.0,140.0,122.0,127.0,22.0,-104.0,-77.0,127.0,127.0,127.0,111.0,87.0,-94.0
126.0,124.0,109.0,124.0,126.0,139.0,122.0,127.0,22.0,-104.0,-77.0,127.0,127.0,127.0,111.0,87.0,-94.0
125.0,124.0,109.0,125.0,126.0,138.0,122.0,127.0,22.0,-104.0,-77.0,127.0,127.0,127.0,111.0,87.0,-94.0
125.0,124.0,109.0,125.0,126.0,139.0,122.0,127.0,22.0,-104.0,-77.0,127.0,127.0,127.0,111.0,87.0,-94.0
125.0,124.0,109.0,125.0,126.0,139.0,122.0,127.0,22.0,-104.0,-77.0,127.0,127.0,127.0,111.0,87.0,-94.0
125.0,125.0,110.0,124.0,126.0,135.0,123.0,128.0,22.0,-102.0,-78.0,127.0,127.0,127.0,111.0,87.0,-94.0
125.0,125.0,110.0,124.0,126.0,136.0,123.0,128.0,22.0,-102.0,-78.0,127.0,127.0,127.0,111.0,87.0,-94.0
125.0,125.0,110.0,124.0,126.0,136.0,123.0,128.0,22.0,-102.0,-78.0,127.0,127.0,127.0,111.0,87.0,-94.0
125.0,125.0,110.0,124.0,126.0,136.0,123.0,128.0,22.0,-102.0,-78.0,127.0,127.0,127.0,111.0,87.0,-94.0
125.0,125.0,110.0,124.0,126.0,136.0,123.0,128.0,22.0,-102.0,-78.0,127.0,127.0,127.0,111.0,87.0,-94.0
125.0,124.0,110.0,124.0,126.0,135.0,123.0,128.0,22.0,-102.0,-78.0,127.0,127.0,127.0,111.0,87.0,-94.0
125.0,125.0,110.0,124.0,126.0,135.0,123.0,128.0,22.0,-102.0,-78.0,127.0,127.0,127.0,111.0,87.0,-94.0
126.0,125.0,110.0,125.0,126.0,136.0,123.0,128.0,22.0,-102.0,-78.0,127.0,127.0,127.0,111.0,87.0,-94.0
126.0,125.0,110.0,125.0,126.0,136.0,123.0,128.0,22.0,-102.0,-78.0,127.0,127.0,127.0,111.0,87.0,-94.0
125.0,125.0,110.0,125.0,126.0,135.0,123.0,128.0,22.0,-102.0,-78.0,127.0,127.0,127.0,111.0,87.0,-94.0
127.0,126.0,111.0,125.0,126.0,136.0,126.0,130.0,23.0,-102.0,-79.0,127.0,127.0,127.0,111.0,87.0,-94.0
126.0,126.0,112.0,125.0,126.0,135.0,126.0,130.0,23.0,-102.0,-79.0,127.0,127.0,127.0,111.0,87.0,-94.0
127.0,126.0,112.0,125.0,126.0,136.0,126.0,130.0,23.0,-102.0,-79.0,127.0,127.0,127.0,111.0,87.0,-94.0
127.0,126.0,112.0,125.0,126.0,136.0,127.0,130.0,23.0,-102.0,-79.0,127.0,127.0,127.0,111.0,87.0,-94.0
126.0,126.0,111.0,125.0,126.0,135.0,126.0,129.0,23.0,-102.0,-79.0,127.0,127.0,127.0,111.0,87.0,-94.0
126.0,126.0,111.0,125.0,126.0,135.0,126.0,129.0,23.0,-102.0,-79.0,127.0,127.0,127.0,111.0,87.0,-94.0
127.0,126.0,111.0,125.0,126.0,136.0,126.0,130.0,23.0,-102.0,-79.0,127.0,127.0,127.0,111.0,87.0,-94.0
127.0,126.0,111.0,125.0,126.0,135.0,126.0,130.0,23.0,-102.0,-79.0,127.0,127.0,127.0,111.0,87.0,-94.0
127.0,126.0,111.0,125.0,126.0,135.0,126.0,130.0,23.0,-102.0,-79.0,127.0,127.0,127.0,111.0,87.0,-94.0
127.0,126.0,111.0,125.0,126.0,136.0,126.0,130.0,23.0,-102.0,-79.0,127.0,127.0,127.0,111.0,87.0,-94.0
127.0,127.0,113.0,126.0,127.0,131.0,129.0,130.0,23.0,-101.0,-79.0,127.0,127.0,127.0,111.0,87.0,-94.0
127.0,128.0,113.0,126.0,127.0,132.0,129.0,130.0,23.0,-101.0,-79.0,127.0,127.0,127.0,111.0,87.0,-94.0
127.0,128.0,113.0,126.0,127.0,132.0,129.0,130.0,23.0,-101.0,-79.0,127.0,127.0,127.0,111.0,87.0,-94.0
127.0,127.0,113.0,124.0,126.0,131.0,129.0,131.0,23.0,-101.0,-79.0,127.0,127.0,127.0,111.0,87.0,-94.0
127.0,127.0,113.0,125.0,126.0,131.0,129.0,131.0,23.0,-101.0,-79.0,127.0,127.0,127.0,111.0,87.0,-94.0
127.0,127.0,113.0,125.0,126.0,131.0,129.0,131.0,23.0,-101.0,-79.0,127.0,127.0,127.0,111.0,87.0,-94.0
127.0,127.0,113.0,125.0,126.0,131.0,129.0,131.0,23.0,-101.0,-79.0,127.0,127.0,127.0,111.0,87.0,-94.0
127.0,127.0,113.0,125.0,126.0,131.0,129.0,131.0,23.0,-101.0,-79.0,127.0,127.0,127.0,111.0,87.0,-94.0
127.0,127.0,113.0,125.0,127.0,131.0,129.0,131.0,23.0,-101.0,-79.0,127.0,127.0,127.0,111.0,87.0,-94.0
127.0,127.0,113.0,126.0,127.0,131.0,129.0,131.0,23.0,-101.0,-79.0,127.0,127.0,127.0,111.0,87.0,-94.0
127.0,129.0,116.0,126.0,127.0,132.0,129.0,129.0,23.0,-102.0,-79.0,127.0,127.0,127.0,111.0,87.0,-94.0
127.0,129.0,116.0,125.0,127.0,132.0,129.0,129.0,23.0,-102.0,-79.0,127.0,127.0,127.0,111.0,87.0,-94.0
127.0,128.0,115.0,126.0,127.0,130.0,129.0,130.0,23.0,-102.0,-79.0,127.0,127.0,127.0,111.0,87.0,-94.0
127.0,128.0,115.0,126.0,127.0,131.0,129.0,130.0,23.0,-102.0,-79.0,127.0,127.0,127.0,111.0,87.0,-94.0
127.0,128.0,115.0,126.0,127.0,131.0,129.0,130.0,23.0,-102.0,-79.0,127.0,127.0,127.0,111.0,87.0,-94.0
127.0,128.0,115.0,126.0,127.0,131.0,129.0,130.0,23.0,-102.0,-79.0,127.0,127.0,127.0,111.0,87.0,-94.0
127.0,128.0,116.0,126.0,127.0,131.0,129.0,130.0,23.0,-102.0,-79.0,127.0,127.0,127.0,111.0,87.0,-94.0
127.0,129.0,115.0,126.0,127.0,132.0,129.0,129.0,23.0,-102.0,-79.0,127.0,127.0,127.0,111.0,87.0,-94.0
127.0,129.0,116.0,126.0,127.0,132.0,129.0,129.0,23.0,-102.0,-79.0,127.0,127.0,127.0,111.0,87.0,-94.0
127.0,128.0,116.0,126.0,127.0,132.0,129.0,129.0,23.0,-102.0,-79.0,127.0,127.0,127.0,111.0,87.0,-94.0
127.0,129.0,119.0,126.0,127.0,127.0,130.0,129.0,23.0,-102.0,-79.0,127.0,127.0,127.0,111.0,87.0,-94.0
128.0,129.0,118.0,126.0,127.0,129.0,129.0,129.0,23.0,-102.0,-79.0,127.0,127.0,127.0,111.0,87.0,-94.0
128.0,129.0,118.0,126.0,127.0,129.0,129.0,129.0,23.0,-102.0,-79.0,127.0,127.0,127.0,111.0,87.0,-94.0
128.0,129.0,118.0,126.0,127.0,128.0,130.0,129.0,23.0,-102.0,-79.0,127.0,127.0,127.0,111.0,87.0,-94.0
128.0,129.0,118.0,126.0,127.0,128.0,129.0,129.0,23.0,-102.0,-79.0,127.0,127.0,127.0,111.0,87.0,-94.0
128.0,129.0,118.0,126.0,127.0,128.0,130.0,129.0,23.0,-102.0,-79.0,127.0,127.0,127.0,111.0,87.0,-94.0
128.0,129.0,118.0,126.0,127.0,128.0,130.0,129.0,23.0,-102.0,-79.0,127.0,127.0,127.0,111.0,87.0,-94.0
128.0,129.0,118.0,126.0,127.0,128.0,130.0,129.0,23.0,-102.0,-79.0,127.0,127.0,127.0,111.0,87.0,-94.0
128.0,129.0,118.0,126.0,127.0,128.0,130.0,129.0,23.0,-102.0,-79.0,127.0,127.0,127.0,111.0,87.0,-94.0
127.0,129.0,118.0,126.0,127.0,128.0,130.0,129.0,23.0,-102.0,-79.0,127.0,127.0,127.0,111.0,87.0,-94.0
128.0,130.0,118.0,126.0,127.0,126.0,129.0,129.0,23.0,-102.0,-78.0,127.0,127.0,127.0,111.0,87.0,-94.0
128.0,130.0,118.0,126.0,127.0,126.0,129.0,129.0,23.0,-102.0,-78.0,127.0,127.0,127.0,111.0,87.0,-94.0
128.0,130.0,118.0,126.0,127.0,126.0,129.0,129.0,23.0,-102.0,-78.0,127.0,127.0,127.0,111.0,87.0,-94.0
128.0,130.0,118.0,126.0,127.0,126.0,129.0,129.0,23.0,-102.0,-78.0,127.0,127.0,127.0,111.0,87.0,-94.0
128.0,130.0,118.0,126.0,127.0,126.0,129.0,129.0,23.0,-102.0,-78.0,127.0,127.0,127.0,111.0,87.0,-94.0
128.0,130.0,118.0,126.0,127.0,126.0,129.0,129.0,23.0,-102.0,-78.0,127.0,127.0,127.0,111.0,87.0,-94.0
128.0,130.0,118.0,126.0,127.0,126.0,129.0,129.0,23.0,-102.0,-78.0,127.0,127.0,127.0,111.0,87.0,-94.0
128.0,130.0,118.0,126.0,127.0,126.0,129.0,129.0,23.0,-102.0,-78.0,127.0,127.0,127.0,111.0,87.0,-94.0
128.0,130.0,118.0,126.0,127.0,126.0,129.0,129.0,23.0,-102.0,-78.0,127.0,127.0,127.0,111.0,87.0,-94.0
128.0,130.0,118.0,126.0,127.0,126.0,129.0,129.0,23.0,-102.0,-78.0,127.0,127.0,127.0,111.0,87.0,-94.0
129.0,130.0,119.0,126.0,127.0,128.0,129.0,129.0,22.0,-102.0,-78.0,126.0,127.0,127.0,111.0,87.0,-94.0
128.0,130.0,119.0,126.0,127.0,128.0,129.0,129.0,22.0,-102.0,-78.0,126.0,127.0,127.0,111.0,87.0,-94.0
128.0,130.0,119.0,126.0,127.0,128.0,129.0,129.0,22.0,-102.0,-78.0,126.0,127.0,127.0,111.0,87.0,-94.0
128.0,130.0,119.0,126.0,127.0,128.0,129.0,129.0,22.0,-102.0,-78.0,126.0,127.0,127.0,111.0,87.0,-94.0
128.0,130.0,119.0,126.0,127.0,128.0,129.0,129.0,22.0,-102.0,-78.0,126.0,127.0,127.0,111.0,87.0,-94.0
128.0,130.0,119.0,126.0,127.0,128.0,129.0,129.0,22.0,-102.0,-78.0,126.0,127.0,127.0,111.0,87.0,-94.0
128.0,130.0,119.0,126.0,127.0,128.0,129.0,129.0,22.0,-102.0,-78.0,126.0,127.0,127.0,111.0,87.0,-94.0
128.0,130.0,119.0,126.0,127.0,129.0,129.0,129.0,22.0,-102.0,-78.0,126.0,127.0,127.0,111.0,87.0,-94.0
128.0,130.0,120.0,126.0,127.0,129.0,129.0,129.0,22.0,-102.0,-78.0,126.0,127.0,127.0,111.0,87.0,-94.0
129.0,130.0,118.0,126.0,127.0,128.0,129.0,129.0,22.0,-102.0,-78.0,126.0,127.0,127.0,111.0,87.0,-94.0
129.0,130.0,121.0,126.0,127.0,130.0,128.0,129.0,22.0,-102.0,-78.0,126.0,127.0,127.0,111.0,87.0,-94.0
128.0,130.0,121.0,126.0,127.0,130.0,128.0,129.0,22.0,-102.0,-78.0,126.0,127.0,127.0,111.0,87.0,-94.0
128.0,130.0,121.0,126.0,127.0,130.0,128.0,129.0,22.0,-102.0,-78.0,126.0,127.0,127.0,111.0,87.0,-94.0
128.0,130.0,121.0,126.0,127.0,130.0,128.0,129.0,22.0,-102.0,-78.0,126.0,127.0,127.0,111.0,87.0,-94.0
128.0,129.0,121.0,126.0,127.0,130.0,128.0,128.0,22.0,-102.0,-78.0,126.0,127.0,127.0,111.0,87.0,-94.0
128.0,129.0,121.0,126.0,127.0,130.0,128.0,128.0,22.0,-102.0,-78.0,126.0,127.0,127.0,111.0,87.0,-94.0
128.0,129.0,121.0,126.0,127.0,130.0,128.0,128.0,22.0,-102.0,-78.0,126.0,127.0,127.0,111.0,87.0,-94.0
128.0,129.0,121.0,126.0,127.0,130.0,128.0,128.0,22.0,-102.0,-78.0,126.0,127.0,127.0,111.0,87.0,-94.0
129.0,130.0,120.0,126.0,127.0,130.0,128.0,129.0,22.0,-102.0,-78.0,126.0,127.0,127.0,111.0,87.0,-94.0
129.0,130.0,120.0,126.0,127.0,130.0,128.0,129.0,22.0,-102.0,-78.0,126.0,127.0,127.0,111.0,87.0,-94.0
127.0,128.0,122.0,126.0,127.0,130.0,127.0,128.0,21.0,-102.0,-78.0,126.0,127.0,127.0,111.0,87.0,-94.0
127.0,128.0,123.0,126.0,127.0,130.0,127.0,128.0,21.0,-102.0,-78.0,126.0,127.0,127.0,111.0,87.0,-94.0
127.0,128.0,123.0,126.0,127.0,130.0,127.0,128.0,21.0,-102.0,-78.0,126.0,127.0,127.0,111.0,87.0,-94.0
127.0,128.0,123.0,126.0,127.0,130.0,127.0,128.0,21.0,-102.0,-78.0,126.0,127.0,127.0,111.0,87.0,-94.0
127.0,128.0,123.0,126.0,127.0,130.0,127.0,128.0,21.0,-102.0,-78.0,126.0,127.0,127.0,111.0,87.0,-94.0
127.0,128.0,123.0,126.0,127.0,130.0,127.0,128.0,21.0,-102.0,-78.0,126.0,127.0,127.0,111.0,87.0,-94.0
127.0,128.0,123.0,126.0,127.0,130.0,127.0,128.0,21.0,-102.0,-78.0,126.0,127.0,127.0,111.0,87.0,-94.0
127.0,129.0,122.0,126.0,127.0,130.0,128.0,128.0,21.0,-102.0,-78.0,126.0,127.0,127.0,111.0,87.0,-94.0
127.0,129.0,122.0,126.0,127.0,130.0,128.0,128.0,21.0,-102.0,-78.0,126.0,127.0,127.0,111.0,87.0,-94.0
127.0,128.0,122.0,126.0,127.0,130.0,128.0,128.0,21.0,-102.0,-78.0,126.0,127.0,127.0,111.0,87.0,-94.0
126.0,127.0,125.0,125.0,127.0,132.0,126.0,128.0,21.0,-102.0,-79.0,126.0,127.0,127.0,111.0,87.0,-94.0
126.0,127.0,124.0,125.0,127.0,132.0,126.0,128.0,21.0,-102.0,-79.0,126.0,127.0,127.0,111.0,87.0,-94.0
126.0,127.0,124.0,125.0,127.0,133.0,126.0,128.0,21.0,-102.0,-79.0,126.0,127.0,127.0,111.0,87.0,-94.0
126.0,127.0,125.0,126.0,127.0,133.0,126.0,128.0,21.0,-102.0,-79.0,126.0,127.0,127.0,111.0,87.0,-94.0
126.0,127.0,125.0,126.0,127.0,133.0,126.0,128.0,21.0,-102.0,-79.0,126.0,127.0,127.0,111.0,87.0,-94.0
126.0,127.0,125.0,126.0,127.0,134.0,126.0,128.0,21.0,-102.0,-79.0,126.0,127.0,127.0,111.0,87.0,-94.0
126.0,127.0,124.0,125.0,126.0,132.0,126.0,128.0,21.0,-102.0,-79.0,126.0,127.0,127.0,111.0,87.0,-94.0
126.0,127.0,124.0,125.0,126.0,132.0,126.0,128.0,21.0,-102.0,-79.0,126.0,127.0,127.0,111.0,87.0,-94.0
126.0,127.0,124.0,125.0,126.0,132.0,126.0,128.0,21.0,-102.0,-79.0,126.0,127.0,127.0,111.0,87.0,-94.0
126.0,127.0,124.0,125.0,126.0,132.0,126.0,128.0,21.0,-102.0,-79.0,126.0,127.0,127.0,111.0,87.0,-94.0
126.0,125.0,126.0,126.0,127.0,132.0,127.0,130.0,21.0,-102.0,-79.0,126.0,127.0,127.0,111.0,87.0,-94.0
126.0,125.0,126.0,126.0,126.0,132.0,127.0,130.0,21.0,-102.0,-79.0,126.0,127.0,127.0,111.0,87.0,-94.0
126.0,125.0,126.0,126.0,126.0,132.0,127.0,130.0,21.0,-102.0,-79.0,126.0,127.0,127.0,111.0,87.0,-94.0
126.0,125.0,126.0,126.0,126.0,132.0,127.0,130.0,21.0,-102.0,-79.0,126.0,127.0,127.0,111.0,87.0,-94.0
126.0,125.0,126.0,126.0,126.0,133.0,127.0,129.0,21.0,-102.0,-79.0,126.0,127.0,127.0,111.0,87.0,-94.0
126.0,125.0,126.0,126.0,127.0,132.0,127.0,129.0,21.0,-102.0,-79.0,126.0,127.0,127.0,111.0,87.0,-94.0
126.0,125.0,126.0,126.0,127.0,132.0,127.0,129.0,21.0,-102.0,-79.0,126.0,127.0,127.0,111.0,87.0,-94.0
126.0,125.0,126.0,126.0,126.0,132.0,127.0,129.0,21.0,-102.0,-79.0,126.0,127.0,127.0,111.0,87.0,-94.0
127.0,126.0,126.0,126.0,127.0,132.0,127.0,129.0,21.0,-102.0,-79.0,126.0,127.0,127.0,111.0,87.0,-94.0
126.0,125.0,126.0,126.0,127.0,132.0,127.0,129.0,21.0,-102.0,-79.0,126.0,127.0,127.0,111.0,87.0,-94.0
126.0,124.0,127.0,125.0,126.0,133.0,127.0,130.0,21.0,-102.0,-79.0,126.0,127.0,127.0,111.0,86.0,-94.0
126.0,124.0,127.0,125.0,126.0,133.0,127.0,129.0,21.0,-102.0,-79.0,126.0,127.0,127.0,111.0,86.0,-94.0
126.0,124.0,127.0,124.0,126.0,133.0,127.0,129.0,21.0,-102.0,-79.0,126.0,127.0,127.0,111.0,86.0,-94.0
126.0,124.0,127.0,124.0,126.0,133.0,126.0,129.0,21.0,-102.0,-79.0,126.0,127.0,127.0,111.0,86.0,-94.0
126.0,125.0,126.0,125.0,126.0,132.0,127.0,130.0,21.0,-102.0,-79.0,126.0,127.0,127.0,111.0,86.0,-94.0
126.0,125.0,126.0,125.0,126.0,132.0,127.0,130.0,21.0,-102.0,-79.0,126.0,127.0,127.0,111.0,86.0,-94.0
126.0,124.0,127.0,125.0,126.0,132.0,127.0,130.0,21.0,-102.0,-79.0,126.0,127.0,127.0,111.0,86.0,-94.0
126.0,124.0,127.0,125.0,126.0,132.0,127.0,130.0,21.0,-102.0,-79.0,126.0,127.0,127.0,111.0,86.0,-94.0
126.0,124.0,127.0,125.0,126.0,132.0,127.0,130.0,21.0,-102.0,-79.0,126.0,127.0,127.0,111.0,86.0,-94.0
126.0,124.0,127.0,125.0,126.0,132.0,127.0,130.0,21.0,-102.0,-79.0,126.0,127.0,127.0,111.0,86.0,-94.0
124.0,124.0,127.0,126.0,127.0,133.0,125.0,128.0,21.0,-102.0,-79.0,126.0,127.0,127.0,111.0,86.0,-94.0
124.0,123.0,127.0,126.0,126.0,133.0,125.0,128.0,21.0,-102.0,-79.0,126.0,127.0,127.0,111.0,86.0,-94.0
124.0,123.0,128.0,126.0,126.0,132.0,125.0,128.0,21.0,-102.0,-79.0,126.0,127.0,127.0,111.0,86.0,-94.0
125.0,125.0,127.0,126.0,126.0,133.0,125.0,128.0,21.0,-102.0,-79.0,126.0,127.0,127.0,111.0,86.0,-94.0
125.0,124.0,127.0,126.0,126.0,133.0,125.0,128.0,21.0,-102.0,-79.0,126.0,127.0,127.0,111.0,86.0,-94.0
125.0,124.0,127.0,126.0,126.0,133.0,125.0,128.0,21.0,-102.0,-79.0,126.0,127.0,127.0,111.0,86.0,-94.0
124.0,124.0,127.0,126.0,126.0,132.0,125.0,128.0,21.0,-102.0,-79.0,126.0,127.0,127.0,111.0,86.0,-94.0
124.0,124.0,127.0,126.0,126.0,132.0,125.0,128.0,21.0,-102.0,-79.0,126.0,127.0,127.0,111.0,86.0,-94.0
124.0,123.0,128.0,126.0,126.0,132.0,125.0,128.0,21.0,-102.0,-79.0,126.0,127.0,127.0,111.0,86.0,-94.0
124.0,124.0,127.0,126.0,126.0,133.0,125.0,128.0,21.0,-102.0,-79.0,126.0,127.0,127.0,111.0,86.0,-94.0
123.0,122.0,128.0,125.0,126.0,130.0,125.0,127.0,21.0,-103.0,-78.0,127.0,127.0,127.0,111.0,86.0,-94.0
123.0,122.0,128.0,124.0,126.0,130.0,125.0,127.0,21.0,-103.0,-78.0,127.0,127.0,127.0,111.0,86.0,-94.0
123.0,123.0,127.0,125.0,126.0,131.0,125.0,127.0,21.0,-103.0,-78.0,127.0,127.0,127.0,111.0,86.0,-94.0
123.0,123.0,127.0,125.0,126.0,131.0,125.0,127.0,21.0,-103.0,-78.0,127.0,127.0,127.0,111.0,86.0,-94.0
123.0,122.0,127.0,125.0,126.0,131.0,125.0,127.0,21.0,-103.0,-78.0,127.0,127.0,127.0,111.0,86.0,-94.0
123.0,122.0,127.0,125.0,126.0,131.0,125.0,127.0,21.0,-103.0,-78.0,127.0,127.0,127.0,111.0,86.0,-94.0
123.0,122.0,127.0,125.0,126.0,131.0,125.0,127.0,21.0,-103.0,-78.0,127.0,127.0,127.0,111.0,86.0,-94.0
123.0,122.0,127.0,125.0,126.0,131.0,125.0,127.0,21.0,-103.0,-78.0,127.0,127.0,127.0,111.0,86.0,-94.0
123.0,122.0,127.0,125.0,126.0,131.0,125.0,127.0,21.0,-103.0,-78.0,127.0,127.0,127.0,111.0,86.0,-94.0
123.0,122.0,128.0,125.0,126.0,130.0,125.0,127.0,21.0,-103.0,-78.0,127.0,127.0,127.0,111.0,86.0,-94.0
124.0,126.0,124.0,126.0,127.0,130.0,127.0,129.0,22.0,-103.0,-78.0,127.0,127.0,127.0,111.0,86.0,-94.0
124.0,125.0,125.0,125.0,127.0,130.0,126.0,129.0,22.0,-103.0,-78.0,127.0,127.0,127.0,111.0,86.0,-94.0
124.0,125.0,125.0,125.0,127.0,130.0,126.0,129.0,22.0,-103.0,-78.0,127.0,127.0,127.0,111.0,86.0,-94.0
124.0,125.0,125.0,125.0,127.0,129.0,126.0,129.0,22.0,-103.0,-78.0,127.0,127.0,127.0,111.0,86.0,-94.0
124.0,126.0,125.0,125.0,127.0,130.0,126.0,129.0,22.0,-103.0,-78.0,127.0,127.0,127.0,111.0,86.0,-94.0
125.0,126.0,124.0,125.0,127.0,130.0,126.0,129.0,22.0,-103.0,-78.0,127.0,127.0,127.0,111.0,86.0,-94.0
124.0,126.0,124.0,125.0,127.0,130.0,126.0,129.0,22.0,-103.0,-78.0,127.0,127.0,127.0,111.0,86.0,-94.0
124.0,126.0,124.0,125.0,127.0,130.0,126.0,129.0,22.0,-103.0,-78.0,127.0,127.0,127.0,111.0,86.0,-94.0
124.0,125.0,125.0,126.0,127.0,130.0,127.0,129.0,22.0,-103.0,-78.0,127.0,127.0,127.0,111.0,86.0,-94.0
124.0,125.0,125.0,126.0,127.0,130.0,127.0,129.0,22.0,-103.0,-78.0,127.0,127.0,127.0,111.0,86.0,-94.0
127.0,128.0,122.0,127.0,128.0,127.0,127.0,129.0,22.0,-103.0,-77.0,127.0,127.0,127.0,111.0,86.0,-94.0
127.0,128.0,122.0,127.0,128.0,127.0,127.0,129.0,22.0,-103.0,-77.0,127.0,127.0,127.0,111.0,86.0,-94.0
127.0,128.0,122.0,127.0,128.0,127.0,127.0,129.0,22.0,-103.0,-77.0,127.0,127.0,127.0,111.0,86.0,-94.0
127.0,128.0,122.0,127.0,128.0,127.0,127.0,129.0,22.0,-103.0,-77.0,127.0,127.0,127.0,111.0,86.0,-94.0
127.0,128.0,122.0,127.0,128.0,127.0,127.0,129.0,22.0,-103.0,-77.0,127.0,127.0,127.0,111.0,86.0,-94.0
127.0,128.0,122.0,127.0,128.0,127.0,127.0,129.0,22.0,-103.0,-77.0,127.0,127.0,127.0,111.0,86.0,-94.0
127.0,128.0,122.0,127.0,128.0,127.0,127.0,129.0,22.0,-103.0,-77.0,127.0,127.0,127.0,111.0,86.0,-94.0
127.0,128.0,123.0,127.0,128.0,127.0,127.0,129.0,22.0,-103.0,-77.0,127.0,127.0,127.0,111.0,86.0,-94.0
127.0,128.0,122.0,127.0,128.0,127.0,127.0,129.0,22.0,-103.0,-77.0,127.0,127.0,127.0,111.0,86.0,-94.0
127.0,128.0,123.0,127.0,128.0,127.0,127.0,129.0,22.0,-103.0,-77.0,127.0,127.0,127.0,111.0,86.0,-94.0
127.0,129.0,123.0,127.0,128.0,127.0,127.0,129.0,23.0,-104.0,-76.0,127.0,127.0,127.0,111.0,86.0,-94.0
127.0,129.0,123.0,127.0,128.0,128.0,127.0,129.0,23.0,-104.0,-76.0,127.0,127.0,127.0,111.0,86.0,-94.0
127.0,129.0,123.0,127.0,128.0,128.0,127.0,128.0,23.0,-104.0,-76.0,127.0,127.0,127.0,111.0,86.0,-94.0
127.0,129.0,123.0,127.0,128.0,128.0,127.0,128.0,23.0,-104.0,-76.0,127.0,127.0,127.0,111.0,86.0,-94.0
127.0,129.0,123.0,127.0,128.0,128.0,127.0,128.0,23.0,-104.0,-76.0,127.0,127.0,127.0,111.0,86.0,-94.0
127.0,129.0,123.0,127.0,128.0,128.0,127.0,128.0,23.0,-104.0,-76.0,127.0,127.0,127.0,111.0,86.0,-94.0
127.0,129.0,123.0,127.0,127.0,128.0,127.0,128.0,23.0,-104.0,-76.0,127.0,127.0,127.0,111.0,86.0,-94.0
127.0,129.0,123.0,127.0,127.0,128.0,127.0,128.0,23.0,-104.0,-76.0,127.0,127.0,127.0,111.0,86.0,-94.0
127.0,129.0,124.0,127.0,127.0,128.0,127.0,128.0,23.0,-104.0,-76.0,127.0,127.0,127.0,111.0,86.0,-94.0
127.0,129.0,123.0,127.0,128.0,127.0,127.0,129.0,23.0,-104.0,-76.0,127.0,127.0,127.0,111.0,86.0,-94.0
126.0,128.0,124.0,127.0,127.0,128.0,126.0,128.0,24.0,-105.0,-76.0,127.0,127.0,127.0,111.0,86.0,-94.0
126.0,128.0,124.0,127.0,127.0,128.0,126.0,128.0,24.0,-105.0,-76.0,127.0,127.0,127.0,111.0,86.0,-94.0
126.0,128.0,124.0,127.0,127.0,128.0,126.0,128.0,24.0,-105.0,-76.0,127.0,127.0,127.0,111.0,86.0,-94.0
126.0,128.0,124.0,127.0,127.0,128.0,126.0,128.0,24.0,-105.0,-76.0,127.0,127.0,127.0,111.0,86.0,-94.0
126.0,128.0,124.0,127.0,127.0,128.0,126.0,128.0,24.0,-105.0,-76.0,127.0,127.0,127.0,111.0,86.0,-94.0
127.0,128.0,124.0,127.0,127.0,129.0,126.0,128.0,24.0,-105.0,-76.0,127.0,127.0,127.0,111.0,86.0,-94.0
127.0,128.0,124.0,127.0,127.0,130.0,126.0,128.0,24.0,-105.0,-76.0,127.0,127.0,127.0,111.0,86.0,-94.0
127.0,128.0,124.0,127.0,127.0,129.0,126.0,128.0,24.0,-105.0,-76.0,127.0,127.0,127.0,111.0,86.0,-94.0
126.0,128.0,124.0,127.0,127.0,128.0,126.0,128.0,24.0,-105.0,-76.0,127.0,127.0,127.0,111.0,86.0,-94.0
126.0,128.0,124.0,127.0,127.0,128.0,126.0,128.0,24.0,-105.0,-76.0,127.0,127.0,127.0,111.0,86.0,-94.0
127.0,128.0,124.0,127.0,127.0,129.0,126.0,129.0,25.0,-106.0,-75.0,127.0,127.0,127.0,111.0,86.0,-94.0
127.0,128.0,125.0,127.0,127.0,128.0,126.0,129.0,25.0,-106.0,-75.0,127.0,127.0,127.0,111.0,86.0,-94.0
127.0,128.0,125.0,127.0,127.0,128.0,126.0,129.0,25.0,-106.0,-75.0,127.0,127.0,127.0,111.0,86.0,-94.0
127.0,128.0,125.0,127.0,127.0,128.0,126.0,129.0,25.0,-106.0,-75.0,127.0,127.0,127.0,111.0,86.0,-94.0
127.0,128.0,125.0,127.0,127.0,129.0,126.0,129.0,25.0,-106.0,-75.0,127.0,127.0,127.0,111.0,86.0,-94.0
127.0,128.0,125.0,127.0,127.0,129.0,126.0,128.0,25.0,-106.0,-75.0,127.0,127.0,127.0,111.0,86.0,-94.0
127.0,128.0,125.0,127.0,127.0,129.0,126.0,128.0,25.0,-106.0,-75.0,127.0,127.0,127.0,111.0,86.0,-94.0
127.0,128.0,124.0,127.0,127.0,128.0,126.0,129.0,25.0,-106.0,-75.0,127.0,127.0,127.0,111.0,86.0,-94.0
127.0,128.0,124.0,127.0,127.0,129.0,126.0,129.0,25.0,-106.0,-75.0,127.0,127.0,127.0,111.0,86.0,-94.0
127.0,128.0,124.0,127.0,127.0,129.0,126.0,129.0,25.0,-106.0,-75.0,127.0,127.0,127.0,111.0,86.0,-94.0
127.0,129.0,124.0,127.0,127.0,129.0,126.0,128.0,25.0,-106.0,-75.0,127.0,127.0,127.0,111.0,86.0,-94.0
127.0,129.0,124.0,127.0,127.0,129.0,126.0,128.0,25.0,-106.0,-75.0,127.0,127.0,127.0,111.0,86.0,-94.0
127.0,128.0,124.0,127.0,127.0,129.0,126.0,128.0,25.0,-106.0,-75.0,127.0,127.0,127.0,111.0,86.0,-94.0
127.0,128.0,125.0,127.0,127.0,129.0,126.0,128.0,25.0,-106.0,-75.0,127.0,127.0,127.0,111.0,86.0,-94.0
127.0,129.0,125.0,127.0,127.0,129.0,126.0,128.0,25.0,-106.0,-75.0,127.0,127.0,127.0,111.0,86.0,-94.0
127.0,128.0,125.0,127.0,127.0,129.0,126.0,128.0,25.0,-106.0,-75.0,127.0,127.0,127.0,111.0,86.0,-94.0
127.0,129.0,124.0,127.0,127.0,128.0,126.0,128.0,25.0,-106.0,-75.0,127.0,127.0,127.0,111.0,86.0,-94.0
127.0,129.0,124.0,127.0,127.0,129.0,126.0,128.0,25.0,-106.0,-75.0,127.0,127.0,127.0,111.0,86.0,-94.0
127.0,129.0,124.0,127.0,127.0,129.0,126.0,128.0,25.0,-106.0,-75.0,127.0,127.0,127.0,111.0,86.0,-94.0
127.0,128.0,124.0,127.0,127.0,128.0,126.0,128.0,25.0,-106.0,-75.0,127.0,127.0,127.0,111.0,86.0,-94.0
125.0,126.0,127.0,126.0,126.0,130.0,124.0,127.0,24.0,-107.0,-76.0,127.0,127.0,127.0,111.0,86.0,-94.0
125.0,126.0,127.0,126.0,126.0,130.0,124.0,127.0,24.0,-107.0,-76.0,127.0,127.0,127.0,111.0,86.0,-94.0
125.0,125.0,127.0,126.0,126.0,130.0,124.0,127.0,24.0,-107.0,-76.0,127.0,127.0,127.0,111.0,86.0,-94.0
125.0,125.0,127.0,126.0,126.0,129.0,124.0,127.0,24.0,-107.0,-76.0,127.0,127.0,127.0,111.0,86.0,-94.0
125.0,125.0,127.0,126.0,126.0,129.0,124.0,127.0,24.0,-107.0,-76.0,127.0,127.0,127.0,111.0,86.0,-94.0
126.0,126.0,127.0,126.0,127.0,130.0,124.0,127.0,24.0,-107.0,-76.0,127.0,127.0,127.0,111.0,86.0,-94.0
125.0,126.0,127.0,126.0,126.0,130.0,124.0,127.0,24.0,-107.0,-76.0,127.0,127.0,127.0,111.0,86.0,-94.0
125.0,126.0,127.0,126.0,126.0,130.0,124.0,127.0,24.0,-107.0,-76.0,127.0,127.0,127.0,111.0,86.0,-94.0
125.0,126.0,127.0,126.0,126.0,129.0,124.0,127.0,24.0,-107.0,-76.0,127.0,127.0,127.0,111.0,86.0,-94.0
125.0,126.0,127.0,126.0,126.0,130.0,124.0,127.0,24.0,-107.0,-76.0,127.0,127.0,127.0,111.0,86.0,-94.0
125.0,126.0,126.0,126.0,126.0,129.0,126.0,128.0,23.0,-106.0,-77.0,127.0,127.0,127.0,111.0,86.0,-94.0
125.0,126.0,126.0,126.0,127.0,129.0,126.0,128.0,23.0,-106.0,-77.0,127.0,127.0,127.0,111.0,86.0,-94.0
125.0,127.0,126.0,127.0,127.0,130.0,126.0,128.0,23.0,-106.0,-77.0,127.0,127.0,127.0,111.0,86.0,-94.0
125.0,126.0,126.0,127.0,127.0,130.0,126.0,128.0,23.0,-106.0,-77.0,127.0,127.0,127.0,111.0,86.0,-94.0
125.0,126.0,126.0,126.0,126.0,130.0,126.0,128.0,23.0,-106.0,-77.0,127.0,127.0,127.0,111.0,86.0,-94.0
125.0,126.0,126.0,126.0,126.0,130.0,126.0,128.0,23.0,-106.0,-77.0,127.0,127.0,127.0,111.0,86.0,-94.0
125.0,127.0,126.0,126.0,126.0,130.0,126.0,128.0,23.0,-106.0,-77.0,127.0,127.0,127.0,111.0,86.0,-94.0
125.0,126.0,126.0,126.0,126.0,130.0,126.0,128.0,23.0,-106.0,-77.0,127.0,127.0,127.0,111.0,86.0,-94.0
125.0,126.0,126.0,126.0,126.0,130.0,126.0,128.0,23.0,-106.0,-77.0,127.0,127.0,127.0,111.0,86.0,-94.0
125.0,126.0,126.0,126.0,126.0,129.0,126.0,128.0,23.0,-106.0,-77.0,127.0,127.0,127.0,111.0,86.0,-94.0
126.0,126.0,126.0,127.0,127.0,130.0,127.0,128.0,22.0,-106.0,-78.0,127.0,127.0,127.0,111.0,86.0,-94.0
126.0,126.0,126.0,127.0,126.0,129.0,127.0,128.0,22.0,-106.0,-78.0,127.0,127.0,127.0,111.0,86.0,-94.0
125.0,126.0,126.0,126.0,127.0,129.0,127.0,128.0,22.0,-106.0,-78.0,127.0,127.0,127.0,111.0,86.0,-94.0
126.0,127.0,126.0,127.0,127.0,129.0,127.0,128.0,22.0,-106.0,-78.0,127.0,127.0,127.0,111.0,86.0,-94.0
126.0,127.0,125.0,127.0,127.0,130.0,127.0,128.0,22.0,-106.0,-78.0,127.0,127.0,127.0,111.0,86.0,-94.0
126.0,127.0,125.0,127.0,127.0,130.0,127.0,128.0,22.0,-106.0,-78.0,127.0,127.0,127.0,111.0,86.0,-94.0
126.0,127.0,125.0,127.0,127.0,130.0,127.0,128.0,22.0,-106.0,-78.0,127.0,127.0,127.0,111.0,86.0,-94.0
126.0,127.0,125.0,127.0,127.0,130.0,127.0,128.0,22.0,-106.0,-78.0,127.0,127.0,127.0,111.0,86.0,-94.0
126.0,127.0,125.0,127.0,127.0,130.0,127.0,128.0,22.0,-106.0,-78.0,127.0,127.0,127.0,111.0,86.0,-94.0
126.0,127.0,125.0,127.0,127.0,130.0,127.0,128.0,22.0,-106.0,-78.0,127.0,127.0,127.0,111.0,86.0,-94.0
126.0,127.0,126.0,126.0,127.0,132.0,126.0,128.0,20.0,-105.0,-79.0,127.0,127.0,127.0,111.0,86.0,-94.0
125.0,126.0,126.0,126.0,126.0,132.0,126.0,128.0,20.0,-105.0,-79.0,127.0,127.0,127.0,111.0,86.0,-94.0
125.0,126.0,126.0,126.0,126.0,130.0,126.0,129.0,20.0,-105.0,-79.0,127.0,127.0,127.0,111.0,86.0,-94.0
125.0,126.0,126.0,126.0,126.0,130.0,126.0,129.0,20.0,-105.0,-79.0,127.0,127.0,127.0,111.0,86.0,-94.0
125.0,126.0,126.0,126.0,126.0,130.0,126.0,129.0,20.0,-105.0,-79.0,127.0,127.0,127.0,111.0,86.0,-94.0
125.0,126.0,126.0,126.0,127.0,130.0,126.0,129.0,20.0,-105.0,-79.0,127.0,127.0,127.0,111.0,86.0,-94.0
125.0,126.0,126.0,126.0,127.0,130.0,126.0,128.0,20.0,-105.0,-79.0,127.0,127.0,127.0,111.0,86.0,-94.0
126.0,126.0,126.0,126.0,127.0,131.0,126.0,128.0,20.0,-105.0,-79.0,127.0,127.0,127.0,111.0,86.0,-94.0
126.0,126.0,126.0,126.0,127.0,131.0,126.0,129.0,20.0,-105.0,-79.0,127.0,127.0,127.0,111.0,86.0,-94.0
126.0,126.0,126.0,126.0,127.0,131.0,126.0,128.0,20.0,-105.0,-79.0,127.0,127.0,127.0,111.0,86.0,-94.0
125.0,126.0,126.0,126.0,127.0,129.0,126.0,129.0,19.0,-105.0,-79.0,127.0,127.0,127.0,111.0,86.0,-94.0
126.0,126.0,126.0,127.0,127.0,129.0,126.0,129.0,19.0,-105.0,-79.0,127.0,127.0,127.0,111.0,86.0,-94.0
126.0,127.0,125.0,127.0,127.0,129.0,126.0,129.0,19.0,-105.0,-79.0,127.0,127.0,127.0,111.0,86.0,-94.0
126.0,127.0,125.0,127.0,127.0,130.0,126.0,129.0,19.0,-105.0,-79.0,127.0,127.0,127.0,111.0,86.0,-94.0
126.0,127.0,125.0,127.0,127.0,129.0,126.0,129.0,19.0,-105.0,-79.0,127.0,127.0,127.0,111.0,86.0,-94.0
126.0,127.0,125.0,127.0,127.0,129.0,126.0,129.0,19.0,-105.0,-79.0,127.0,127.0,127.0,111.0,86.0,-94.0
126.0,127.0,125.0,127.0,127.0,129.0,126.0,129.0,19.0,-105.0,-79.0,127.0,127.0,127.0,111.0,86.0,-94.0
