emg1,emg2,emg3,emg4,emg5,emg6,emg7,emg8,acc_x,acc_y,acc_z,gyro_x,gyro_y,gyro_z,angle_pitch,angle_roll,angle_yaw
127.0,128.0,126.0,128.0,127.0,127.0,106.0,128.0,30.0,-110.0,-66.0,127.0,127.0,127.0,116.0,89.0,-115.0
127.0,128.0,126.0,129.0,127.0,128.0,107.0,128.0,30.0,-110.0,-66.0,127.0,127.0,127.0,116.0,89.0,-115.0
127.0,128.0,126.0,129.0,127.0,128.0,107.0,128.0,30.0,-110.0,-66.0,127.0,127.0,127.0,116.0,89.0,-115.0
127.0,129.0,126.0,129.0,127.0,128.0,107.0,128.0,30.0,-110.0,-66.0,127.0,127.0,127.0,116.0,89.0,-115.0
127.0,129.0,126.0,129.0,127.0,128.0,106.0,128.0,30.0,-110.0,-66.0,127.0,127.0,127.0,116.0,89.0,-115.0
127.0,129.0,126.0,129.0,128.0,127.0,107.0,128.0,30.0,-110.0,-66.0,127.0,127.0,127.0,116.0,89.0,-115.0
127.0,129.0,126.0,129.0,128.0,127.0,106.0,128.0,30.0,-110.0,-66.0,127.0,127.0,127.0,116.0,89.0,-115.0
127.0,128.0,126.0,128.0,127.0,127.0,106.0,128.0,30.0,-110.0,-66.0,127.0,127.0,127.0,116.0,89.0,-115.0
127.0,128.0,126.0,128.0,127.0,127.0,106.0,128.0,30.0,-110.0,-66.0,127.0,127.0,127.0,116.0,89.0,-115.0
127.0,128.0,126.0,128.0,127.0,127.0,106.0,128.0,30.0,-110.0,-66.0,127.0,127.0,127.0,116.0,89.0,-115.0
127.0,129.0,126.0,129.0,127.0,128.0,106.0,128.0,30.0,-110.0,-66.0,127.0,127.0,127.0,116.0,89.0,-115.0
127.0,129.0,126.0,129.0,128.0,128.0,106.0,128.0,30.0,-110.0,-66.0,127.0,127.0,127.0,116.0,89.0,-115.0
127.0,129.0,126.0,129.0,127.0,128.0,106.0,128.0,30.0,-110.0,-66.0,127.0,127.0,127.0,116.0,89.0,-115.0
127.0,128.0,126.0,129.0,127.0,128.0,106.0,128.0,30.0,-110.0,-66.0,127.0,127.0,127.0,116.0,89.0,-115.0
127.0,128.0,126.0,129.0,127.0,128.0,107.0,128.0,30.0,-110.0,-66.0,127.0,127.0,127.0,116.0,89.0,-115.0
127.0,129.0,126.0,129.0,128.0,128.0,107.0,128.0,30.0,-110.0,-66.0,127.0,127.0,127.0,116.0,89.0,-115.0
127.0,129.0,126.0,129.0,128.0,128.0,107.0,128.0,30.0,-110.0,-66.0,127.0,127.0,127.0,116.0,89.0,-115.0
127.0,129.0,127.0,129.0,128.0,128.0,107.0,128.0,30.0,-110.0,-66.0,127.0,127.0,127.0,116.0,89.0,-115.0
127.0,128.0,127.0,129.0,128.0,128.0,107.0,128.0,30.0,-110.0,-66.0,127.0,127.0,127.0,116.0,89.0,-115.0
127.0,129.0,126.0,128.0,128.0,128.0,107.0,128.0,30.0,-110.0,-66.0,127.0,127.0,127.0,116.0,89.0,-115.0
127.0,129.0,126.0,128.0,128.0,128.0,107.0,128.0,30.0,-110.0,-66.0,127.0,127.0,127.0,116.0,89.0,-115.0
127.0,129.0,126.0,129.0,128.0,128.0,108.0,128.0,30.0,-110.0,-66.0,127.0,127.0,127.0,116.0,89.0,-115.0
127.0,129.0,126.0,129.0,128.0,128.0,108.0,128.0,30.0,-110.0,-66.0,127.0,127.0,127.0,116.0,89.0,-115.0
127.0,129.0,126.0,129.0,128.0,128.0,108.0,128.0,30.0,-110.0,-66.0,127.0,127.0,127.0,116.0,89.0,-115.0
127.0,129.0,126.0,129.0,128.0,128.0,107.0,128.0,30.0,-110.0,-66.0,127.0,127.0,127.0,116.0,89.0,-115.0
127.0,128.0,126.0,128.0,127.0,128.0,106.0,128.0,30.0,-109.0,-66.0,127.0,127.0,127.0,116.0,89.0,-115.0
127.0,128.0,126.0,128.0,127.0,128.0,106.0,128.0,30.0,-109.0,-66.0,127.0,127.0,127.0,116.0,89.0,-115.0
127.0,128.0,126.0,128.0,127.0,127.0,106.0,128.0,30.0,-109.0,-66.0,127.0,127.0,127.0,116.0,89.0,-115.0
127.0,128.0,126.0,128.0,127.0,128.0,107.0,128.0,30.0,-109.0,-66.0,127.0,127.0,127.0,116.0,89.0,-115.0
127.0,128.0,126.0,128.0,127.0,128.0,107.0,128.0,30.0,-109.0,-66.0,127.0,127.0,127.0,116.0,89.0,-115.0
127.0,128.0,126.0,128.0,127.0,128.0,107.0,128.0,30.0,-109.0,-66.0,127.0,127.0,127.0,116.0,89.0,-115.0
127.0,128.0,126.0,128.0,127.0,128.0,107.0,128.0,30.0,-109.0,-66.0,127.0,127.0,127.0,116.0,89.0,-115.0
127.0,128.0,126.0,128.0,127.0,128.0,107.0,128.0,30.0,-109.0,-66.0,127.0,127.0,127.0,116.0,89.0,-115.0
127.0,128.0,126.0,128.0,127.0,128.0,107.0,128.0,30.0,-109.0,-66.0,127.0,127.0,127.0,116.0,89.0,-115.0
127.0,128.0,126.0,128.0,127.0,127.0,106.0,128.0,30.0,-109.0,-66.0,127.0,127.0,127.0,116.0,89.0,-115.0
127.0,128.0,126.0,128.0,127.0,128.0,107.0,128.0,30.0,-109.0,-66.0,127.0,127.0,127.0,116.0,89.0,-115.0
127.0,128.0,126.0,128.0,127.0,128.0,107.0,128.0,30.0,-109.0,-66.0,127.0,127.0,127.0,116.0,89.0,-115.0
127.0,128.0,126.0,128.0,127.0,128.0,107.0,128.0,30.0,-109.0,-66.0,127.0,127.0,127.0,116.0,89.0,-115.0
127.0,128.0,126.0,128.0,127.0,128.0,107.0,129.0,30.0,-109.0,-66.0,127.0,127.0,127.0,116.0,89.0,-115.0
127.0,128.0,126.0,128.0,127.0,128.0,107.0,129.0,30.0,-109.0,-66.0,127.0,127.0,127.0,116.0,89.0,-115.0
127.0,128.0,126.0,128.0,127.0,128.0,107.0,129.0,30.0,-109.0,-66.0,127.0,127.0,127.0,116.0,89.0,-115.0
127.0,128.0,126.0,129.0,127.0,128.0,107.0,128.0,30.0,-109.0,-66.0,127.0,127.0,127.0,116.0,89.0,-115.0
127.0,128.0,126.0,129.0,127.0,128.0,107.0,129.0,30.0,-109.0,-66.0,127.0,127.0,127.0,116.0,89.0,-115.0
127.0,128.0,126.0,129.0,127.0,128.0,107.0,128.0,30.0,-109.0,-66.0,127.0,127.0,127.0,116.0,89.0,-115.0
127.0,128.0,126.0,128.0,127.0,128.0,107.0,128.0,30.0,-109.0,-66.0,127.0,127.0,127.0,116.0,89.0,-115.0
127.0,128.0,126.0,129.0,127.0,128.0,108.0,128.0,30.0,-109.0,-66.0,127.0,127.0,127.0,116.0,89.0,-115.0
127.0,128.0,126.0,129.0,128.0,128.0,107.0,128.0,30.0,-109.0,-66.0,127.0,127.0,127.0,116.0,89.0,-115.0
127.0,128.0,126.0,129.0,128.0,128.0,108.0,128.0,30.0,-109.0,-66.0,127.0,127.0,127.0,116.0,89.0,-115.0
127.0,128.0,126.0,129.0,128.0,128.0,107.0,128.0,30.0,-109.0,-66.0,127.0,127.0,127.0,116.0,89.0,-115.0
127.0,129.0,126.0,129.0,128.0,128.0,107.0,128.0,30.0,-109.0,-66.0,127.0,127.0,127.0,116.0,89.0,-115.0
127.0,129.0,126.0,129.0,128.0,128.0,107.0,128.0,30.0,-109.0,-66.0,127.0,127.0,127.0,116.0,89.0,-115.0
127.0,129.0,126.0,129.0,128.0,128.0,107.0,128.0,30.0,-109.0,-66.0,127.0,127.0,127.0,116.0,89.0,-115.0
127.0,128.0,126.0,129.0,128.0,128.0,108.0,128.0,30.0,-109.0,-66.0,127.0,127.0,127.0,116.0,89.0,-115.0
127.0,128.0,126.0,129.0,128.0,128.0,108.0,128.0,30.0,-109.0,-66.0,127.0,127.0,127.0,116.0,89.0,-115.0
127.0,128.0,126.0,129.0,128.0,128.0,108.0,128.0,30.0,-109.0,-66.0,127.0,127.0,127.0,116.0,89.0,-115.0
127.0,128.0,126.0,128.0,127.0,128.0,107.0,128.0,30.0,-109.0,-66.0,127.0,127.0,127.0,116.0,89.0,-115.0
127.0,128.0,126.0,128.0,127.0,128.0,107.0,128.0,30.0,-109.0,-66.0,127.0,127.0,127.0,116.0,89.0,-115.0
127.0,128.0,126.0,128.0,128.0,128.0,107.0,128.0,30.0,-109.0,-66.0,127.0,127.0,127.0,116.0,89.0,-115.0
127.0,129.0,126.0,128.0,128.0,128.0,107.0,128.0,30.0,-109.0,-66.0,127.0,127.0,127.0,116.0,89.0,-115.0
127.0,129.0,126.0,128.0,128.0,128.0,106.0,128.0,30.0,-109.0,-66.0,127.0,127.0,127.0,116.0,89.0,-115.0
127.0,129.0,126.0,128.0,128.0,128.0,107.0,128.0,30.0,-109.0,-66.0,127.0,127.0,127.0,116.0,89.0,-115.0
127.0,129.0,126.0,128.0,128.0,127.0,106.0,128.0,30.0,-109.0,-66.0,127.0,127.0,127.0,116.0,89.0,-115.0
127.0,129.0,126.0,128.0,128.0,128.0,106.0,128.0,30.0,-109.0,-66.0,127.0,127.0,127.0,116.0,89.0,-115.0
127.0,129.0,126.0,128.0,128.0,128.0,106.0,128.0,30.0,-109.0,-66.0,127.0,127.0,127.0,116.0,89.0,-115.0
127.0,128.0,126.0,128.0,127.0,128.0,106.0,128.0,30.0,-109.0,-66.0,127.0,127.0,127.0,116.0,89.0,-115.0
127.0,128.0,126.0,128.0,127.0,127.0,106.0,128.0,30.0,-109.0,-66.0,127.0,127.0,127.0,116.0,89.0,-115.0
127.0,128.0,126.0,128.0,127.0,128.0,106.0,128.0,30.0,-109.0,-66.0,127.0,127.0,127.0,116.0,89.0,-115.0
127.0,128.0,126.0,128.0,127.0,128.0,107.0,128.0,30.0,-109.0,-66.0,127.0,127.0,127.0,116.0,89.0,-115.0
127.0,128.0,126.0,128.0,127.0,128.0,107.0,128.0,30.0,-109.0,-66.0,127.0,127.0,127.0,116.0,89.0,-115.0
127.0,128.0,126.0,128.0,127.0,128.0,107.0,128.0,30.0,-109.0,-66.0,127.0,127.0,127.0,116.0,89.0,-115.0
127.0,128.0,126.0,128.0,127.0,128.0,107.0,128.0,30.0,-109.0,-66.0,127.0,127.0,127.0,116.0,89.0,-115.0
127.0,128.0,126.0,128.0,127.0,128.0,106.0,128.0,30.0,-109.0,-66.0,127.0,127.0,127.0,116.0,89.0,-115.0
127.0,128.0,126.0,128.0,127.0,127.0,106.0,128.0,30.0,-109.0,-66.0,127.0,127.0,127.0,116.0,89.0,-115.0
127.0,128.0,126.0,128.0,127.0,127.0,106.0,128.0,30.0,-109.0,-66.0,127.0,127.0,127.0,116.0,89.0,-115.0
127.0,128.0,126.0,128.0,127.0,127.0,107.0,128.0,30.0,-109.0,-66.0,127.0,127.0,127.0,116.0,89.0,-115.0
127.0,128.0,126.0,128.0,127.0,128.0,107.0,128.0,30.0,-109.0,-66.0,127.0,127.0,127.0,116.0,89.0,-115.0
127.0,128.0,126.0,128.0,127.0,128.0,107.0,128.0,30.0,-109.0,-66.0,127.0,127.0,127.0,116.0,89.0,-115.0
127.0,128.0,126.0,128.0,127.0,128.0,108.0,128.0,30.0,-109.0,-66.0,127.0,127.0,127.0,116.0,89.0,-115.0
127.0,128.0,126.0,128.0,127.0,128.0,107.0,128.0,30.0,-109.0,-66.0,127.0,127.0,127.0,116.0,89.0,-115.0
127.0,128.0,126.0,128.0,127.0,128.0,107.0,128.0,30.0,-109.0,-66.0,127.0,127.0,127.0,116.0,89.0,-115.0
127.0,128.0,126.0,128.0,127.0,128.0,107.0,128.0,30.0,-109.0,-66.0,127.0,127.0,127.0,116.0,89.0,-115.0
127.0,128.0,126.0,128.0,127.0,128.0,107.0,128.0,30.0,-109.0,-66.0,127.0,127.0,127.0,116.0,89.0,-115.0
127.0,128.0,126.0,128.0,127.0,128.0,107.0,128.0,30.0,-109.0,-66.0,127.0,127.0,127.0,116.0,89.0,-115.0
127.0,128.0,126.0,128.0,127.0,128.0,107.0,128.0,30.0,-109.0,-66.0,127.0,127.0,127.0,116.0,89.0,-115.0
127.0,128.0,126.0,128.0,127.0,128.0,107.0,128.0,30.0,-109.0,-66.0,127.0,127.0,127.0,116.0,89.0,-115.0
127.0,128.0,126.0,129.0,127.0,128.0,108.0,128.0,30.0,-109.0,-66.0,127.0,127.0,127.0,116.0,89.0,-115.0
127.0,128.0,126.0,129.0,127.0,128.0,108.0,128.0,30.0,-109.0,-66.0,127.0,127.0,127.0,116.0,89.0,-115.0
127.0,128.0,126.0,129.0,127.0,128.0,107.0,128.0,30.0,-109.0,-66.0,127.0,127.0,127.0,116.0,89.0,-115.0
127.0,128.0,126.0,129.0,127.0,128.0,107.0,128.0,30.0,-109.0,-66.0,127.0,127.0,127.0,116.0,89.0,-115.0
127.0,128.0,126.0,129.0,127.0,128.0,107.0,128.0,30.0,-109.0,-66.0,127.0,127.0,127.0,116.0,89.0,-115.0
127.0,128.0,126.0,128.0,127.0,128.0,107.0,128.0,30.0,-109.0,-66.0,127.0,127.0,127.0,116.0,89.0,-115.0
127.0,128.0,126.0,128.0,127.0,128.0,107.0,128.0,30.0,-109.0,-66.0,127.0,127.0,127.0,116.0,89.0,-115.0
127.0,128.0,126.0,128.0,127.0,128.0,107.0,128.0,30.0,-109.0,-66.0,127.0,127.0,127.0,116.0,89.0,-115.0
127.0,128.0,126.0,128.0,127.0,128.0,107.0,128.0,30.0,-109.0,-66.0,127.0,127.0,127.0,116.0,89.0,-115.0
127.0,128.0,126.0,128.0,127.0,128.0,107.0,128.0,30.0,-109.0,-66.0,127.0,127.0,127.0,116.0,89.0,-115.0
127.0,128.0,126.0,128.0,128.0,128.0,108.0,128.0,30.0,-109.0,-66.0,127.0,127.0,127.0,116.0,89.0,-115.0
127.0,128.0,126.0,128.0,128.0,128.0,107.0,128.0,30.0,-109.0,-66.0,127.0,127.0,127.0,116.0,89.0,-115.0
127.0,128.0,126.0,128.0,128.0,128.0,107.0,128.0,30.0,-109.0,-66.0,127.0,127.0,127.0,116.0,89.0,-115.0
127.0,128.0,126.0,128.0,128.0,128.0,107.0,128.0,30.0,-109.0,-66.0,127.0,127.0,127.0,116.0,89.0,-115.0
127.0,128.0,126.0,128.0,128.0,128.0,107.0,128.0,30.0,-109.0,-66.0,127.0,127.0,127.0,116.0,89.0,-115.0
127.0,128.0,126.0,128.0,128.0,128.0,107.0,128.0,30.0,-109.0,-66.0,127.0,127.0,127.0,116.0,89.0,-115.0
127.0,128.0,126.0,128.0,128.0,128.0,107.0,128.0,30.0,-109.0,-66.0,127.0,127.0,127.0,116.0,89.0,-115.0
127.0,128.0,126.0,128.0,128.0,128.0,107.0,128.0,30.0,-109.0,-66.0,127.0,127.0,127.0,116.0,89.0,-115.0
127.0,128.0,126.0,128.0,128.0,128.0,107.0,128.0,30.0,-109.0,-66.0,127.0,127.0,127.0,116.0,89.0,-115.0
127.0,128.0,126.0,128.0,128.0,128.0,107.0,128.0,30.0,-109.0,-66.0,127.0,127.0,127.0,116.0,89.0,-115.0
127.0,128.0,126.0,129.0,128.0,128.0,107.0,128.0,30.0,-109.0,-66.0,127.0,127.0,127.0,116.0,89.0,-115.0
127.0,128.0,126.0,129.0,128.0,128.0,107.0,128.0,30.0,-109.0,-66.0,127.0,127.0,127.0,116.0,89.0,-115.0
127.0,128.0,126.0,129.0,127.0,128.0,107.0,128.0,30.0,-109.0,-66.0,127.0,127.0,127.0,116.0,89.0,-115.0
127.0,129.0,126.0,129.0,127.0,128.0,106.0,128.0,30.0,-109.0,-66.0,127.0,127.0,127.0,116.0,89.0,-115.0
127.0,128.0,126.0,129.0,127.0,128.0,106.0,128.0,30.0,-109.0,-66.0,127.0,127.0,127.0,116.0,89.0,-115.0
127.0,128.0,126.0,129.0,128.0,128.0,107.0,128.0,30.0,-109.0,-66.0,127.0,127.0,127.0,116.0,89.0,-115.0
127.0,128.0,126.0,129.0,128.0,128.0,107.0,128.0,30.0,-109.0,-66.0,127.0,127.0,127.0,116.0,89.0,-115.0
127.0,128.0,126.0,129.0,128.0,128.0,107.0,128.0,30.0,-109.0,-66.0,127.0,127.0,127.0,116.0,89.0,-115.0
127.0,128.0,126.0,129.0,128.0,128.0,107.0,128.0,30.0,-109.0,-66.0,127.0,127.0,127.0,116.0,89.0,-115.0
127.0,128.0,126.0,129.0,128.0,128.0,107.0,128.0,30.0,-109.0,-66.0,127.0,127.0,127.0,116.0,89.0,-115.0
127.0,128.0,126.0,129.0,127.0,128.0,107.0,128.0,30.0,-109.0,-66.0,127.0,127.0,127.0,116.0,89.0,-115.0
127.0,128.0,126.0,129.0,127.0,128.0,107.0,129.0,30.0,-109.0,-66.0,127.0,127.0,127.0,116.0,89.0,-115.0
127.0,128.0,126.0,129.0,127.0,128.0,107.0,128.0,30.0,-109.0,-66.0,127.0,127.0,127.0,116.0,89.0,-115.0
127.0,128.0,126.0,129.0,127.0,128.0,107.0,128.0,30.0,-109.0,-66.0,127.0,127.0,127.0,116.0,89.0,-115.0
127.0,128.0,126.0,129.0,127.0,128.0,108.0,128.0,30.0,-109.0,-66.0,127.0,127.0,127.0,116.0,89.0,-115.0
127.0,128.0,126.0,129.0,127.0,128.0,107.0,128.0,30.0,-109.0,-66.0,127.0,127.0,127.0,116.0,89.0,-115.0
127.0,128.0,126.0,129.0,127.0,128.0,107.0,128.0,30.0,-109.0,-66.0,127.0,127.0,127.0,116.0,89.0,-115.0
127.0,128.0,126.0,129.0,127.0,128.0,107.0,128.0,30.0,-109.0,-66.0,127.0,127.0,127.0,116.0,89.0,-115.0
127.0,128.0,126.0,129.0,127.0,128.0,107.0,128.0,30.0,-109.0,-66.0,127.0,127.0,127.0,116.0,89.0,-115.0
127.0,128.0,126.0,129.0,127.0,128.0,107.0,128.0,30.0,-109.0,-66.0,127.0,127.0,127.0,116.0,89.0,-115.0
127.0,128.0,126.0,128.0,127.0,128.0,107.0,128.0,30.0,-109.0,-66.0,127.0,127.0,127.0,116.0,89.0,-115.0
127.0,128.0,126.0,128.0,127.0,128.0,107.0,128.0,30.0,-109.0,-66.0,127.0,127.0,127.0,116.0,89.0,-115.0
127.0,128.0,126.0,128.0,127.0,128.0,107.0,128.0,30.0,-109.0,-66.0,127.0,127.0,127.0,116.0,89.0,-115.0
127.0,128.0,126.0,128.0,127.0,128.0,108.0,128.0,30.0,-109.0,-66.0,127.0,127.0,127.0,116.0,89.0,-115.0
127.0,128.0,126.0,128.0,127.0,128.0,107.0,128.0,30.0,-109.0,-66.0,127.0,127.0,127.0,116.0,89.0,-115.0
127.0,129.0,126.0,128.0,127.0,128.0,107.0,128.0,30.0,-109.0,-66.0,127.0,127.0,127.0,116.0,89.0,-115.0
127.0,129.0,126.0,128.0,127.0,128.0,108.0,128.0,30.0,-109.0,-66.0,127.0,127.0,127.0,116.0,89.0,-115.0
127.0,129.0,126.0,128.0,127.0,128.0,108.0,128.0,30.0,-109.0,-66.0,127.0,127.0,127.0,116.0,89.0,-115.0
127.0,128.0,126.0,128.0,127.0,128.0,108.0,128.0,30.0,-109.0,-66.0,127.0,127.0,127.0,116.0,89.0,-115.0
127.0,128.0,126.0,128.0,127.0,128.0,108.0,128.0,30.0,-109.0,-66.0,127.0,127.0,127.0,116.0,89.0,-115.0
127.0,128.0,126.0,127.0,127.0,128.0,107.0,128.0,30.0,-109.0,-66.0,127.0,127.0,127.0,116.0,89.0,-115.0
127.0,128.0,126.0,127.0,127.0,128.0,107.0,128.0,30.0,-109.0,-66.0,127.0,127.0,127.0,116.0,89.0,-115.0
127.0,128.0,126.0,127.0,127.0,128.0,107.0,128.0,30.0,-109.0,-66.0,127.0,127.0,127.0,116.0,89.0,-115.0
127.0,128.0,126.0,127.0,128.0,128.0,107.0,128.0,30.0,-109.0,-66.0,127.0,127.0,127.0,116.0,89.0,-115.0
127.0,128.0,126.0,127.0,128.0,128.0,107.0,128.0,30.0,-109.0,-66.0,127.0,127.0,127.0,116.0,89.0,-115.0
127.0,129.0,126.0,127.0,128.0,128.0,107.0,128.0,30.0,-109.0,-66.0,127.0,127.0,127.0,116.0,89.0,-115.0
127.0,128.0,126.0,127.0,128.0,128.0,107.0,128.0,30.0,-109.0,-66.0,127.0,127.0,127.0,116.0,89.0,-115.0
127.0,128.0,126.0,127.0,127.0,128.0,108.0,128.0,30.0,-109.0,-66.0,127.0,127.0,127.0,116.0,89.0,-115.0
127.0,128.0,126.0,127.0,127.0,128.0,107.0,128.0,30.0,-109.0,-66.0,127.0,127.0,127.0,116.0,89.0,-115.0
127.0,128.0,126.0,127.0,127.0,128.0,107.0,128.0,30.0,-109.0,-66.0,127.0,127.0,127.0,116.0,89.0,-115.0
127.0,128.0,127.0,129.0,128.0,128.0,107.0,128.0,30.0,-109.0,-66.0,127.0,127.0,127.0,116.0,89.0,-115.0
127.0,128.0,127.0,129.0,127.0,128.0,108.0,128.0,30.0,-109.0,-66.0,127.0,127.0,127.0,116.0,89.0,-115.0
127.0,128.0,127.0,129.0,127.0,128.0,107.0,128.0,30.0,-109.0,-66.0,127.0,127.0,127.0,116.0,89.0,-115.0
127.0,128.0,127.0,129.0,128.0,128.0,107.0,128.0,30.0,-109.0,-66.0,127.0,127.0,127.0,116.0,89.0,-115.0
127.0,129.0,127.0,129.0,128.0,128.0,107.0,128.0,30.0,-109.0,-66.0,127.0,127.0,127.0,116.0,89.0,-115.0
127.0,128.0,127.0,129.0,128.0,128.0,108.0,128.0,30.0,-109.0,-66.0,127.0,127.0,127.0,116.0,89.0,-115.0
127.0,128.0,127.0,129.0,127.0,128.0,108.0,128.0,30.0,-109.0,-66.0,127.0,127.0,127.0,116.0,89.0,-115.0
127.0,128.0,127.0,129.0,127.0,128.0,107.0,128.0,30.0,-109.0,-66.0,127.0,127.0,127.0,116.0,89.0,-115.0
127.0,128.0,127.0,129.0,127.0,128.0,108.0,128.0,30.0,-109.0,-66.0,127.0,127.0,127.0,116.0,89.0,-115.0
127.0,128.0,127.0,129.0,127.0,128.0,107.0,128.0,30.0,-109.0,-66.0,127.0,127.0,127.0,116.0,89.0,-115.0
127.0,128.0,126.0,128.0,128.0,128.0,107.0,128.0,30.0,-109.0,-66.0,127.0,127.0,127.0,116.0,89.0,-115.0
127.0,128.0,126.0,128.0,128.0,128.0,107.0,128.0,30.0,-109.0,-66.0,127.0,127.0,127.0,116.0,89.0,-115.0
127.0,128.0,126.0,128.0,128.0,128.0,107.0,128.0,30.0,-109.0,-66.0,127.0,127.0,127.0,116.0,89.0,-115.0
127.0,129.0,126.0,128.0,128.0,128.0,108.0,128.0,30.0,-109.0,-66.0,127.0,127.0,127.0,116.0,89.0,-115.0
127.0,128.0,126.0,129.0,128.0,128.0,108.0,128.0,30.0,-109.0,-66.0,127.0,127.0,127.0,116.0,89.0,-115.0
127.0,128.0,126.0,129.0,128.0,128.0,108.0,128.0,30.0,-109.0,-66.0,127.0,127.0,127.0,116.0,89.0,-115.0
127.0,128.0,126.0,129.0,127.0,128.0,107.0,128.0,30.0,-109.0,-66.0,127.0,127.0,127.0,116.0,89.0,-115.0
127.0,128.0,126.0,129.0,128.0,128.0,107.0,128.0,30.0,-109.0,-66.0,127.0,127.0,127.0,116.0,89.0,-115.0
127.0,128.0,126.0,129.0,127.0,128.0,107.0,128.0,30.0,-109.0,-66.0,127.0,127.0,127.0,116.0,89.0,-115.0
127.0,128.0,126.0,129.0,127.0,128.0,107.0,128.0,30.0,-109.0,-66.0,127.0,127.0,127.0,116.0,89.0,-115.0
127.0,128.0,126.0,128.0,127.0,128.0,107.0,128.0,30.0,-110.0,-66.0,127.0,127.0,127.0,116.0,89.0,-115.0
127.0,128.0,126.0,128.0,127.0,128.0,107.0,128.0,30.0,-110.0,-66.0,127.0,127.0,127.0,116.0,89.0,-115.0
127.0,128.0,126.0,128.0,128.0,128.0,107.0,128.0,30.0,-110.0,-66.0,127.0,127.0,127.0,116.0,89.0,-115.0
127.0,128.0,126.0,129.0,127.0,128.0,108.0,128.0,30.0,-110.0,-66.0,127.0,127.0,127.0,116.0,89.0,-115.0
127.0,128.0,126.0,129.0,127.0,128.0,108.0,128.0,30.0,-110.0,-66.0,127.0,127.0,127.0,116.0,89.0,-115.0
127.0,128.0,126.0,129.0,127.0,128.0,108.0,128.0,30.0,-110.0,-66.0,127.0,127.0,127.0,116.0,89.0,-115.0
127.0,128.0,126.0,129.0,127.0,128.0,107.0,128.0,30.0,-110.0,-66.0,127.0,127.0,127.0,116.0,89.0,-115.0
127.0,128.0,126.0,129.0,127.0,128.0,107.0,128.0,30.0,-110.0,-66.0,127.0,127.0,127.0,116.0,89.0,-115.0
127.0,128.0,126.0,129.0,127.0,128.0,107.0,128.0,30.0,-110.0,-66.0,127.0,127.0,127.0,116.0,89.0,-115.0
127.0,128.0,126.0,128.0,127.0,128.0,107.0,128.0,30.0,-110.0,-66.0,127.0,127.0,127.0,116.0,89.0,-115.0
127.0,128.0,126.0,128.0,128.0,128.0,107.0,128.0,30.0,-110.0,-66.0,127.0,127.0,127.0,116.0,89.0,-115.0
127.0,128.0,126.0,128.0,128.0,128.0,107.0,128.0,30.0,-110.0,-66.0,127.0,127.0,127.0,116.0,89.0,-115.0
127.0,128.0,126.0,128.0,128.0,128.0,107.0,129.0,30.0,-110.0,-66.0,127.0,127.0,127.0,116.0,89.0,-115.0
127.0,128.0,126.0,129.0,128.0,128.0,108.0,129.0,30.0,-110.0,-66.0,127.0,127.0,127.0,116.0,89.0,-115.0
127.0,128.0,126.0,129.0,127.0,128.0,108.0,129.0,30.0,-110.0,-66.0,127.0,127.0,127.0,116.0,89.0,-115.0
127.0,128.0,126.0,129.0,127.0,128.0,108.0,129.0,30.0,-110.0,-66.0,127.0,127.0,127.0,116.0,89.0,-115.0
127.0,128.0,126.0,129.0,127.0,128.0,108.0,129.0,30.0,-110.0,-66.0,127.0,127.0,127.0,116.0,89.0,-115.0
127.0,128.0,126.0,129.0,127.0,128.0,108.0,129.0,30.0,-110.0,-66.0,127.0,127.0,127.0,116.0,89.0,-115.0
127.0,128.0,127.0,128.0,127.0,128.0,108.0,128.0,30.0,-110.0,-66.0,127.0,127.0,127.0,116.0,89.0,-115.0
127.0,128.0,126.0,128.0,128.0,128.0,106.0,128.0,30.0,-110.0,-66.0,127.0,127.0,127.0,116.0,89.0,-115.0
127.0,128.0,126.0,128.0,127.0,128.0,107.0,128.0,30.0,-110.0,-66.0,127.0,127.0,127.0,116.0,89.0,-115.0
127.0,128.0,126.0,128.0,127.0,128.0,107.0,128.0,30.0,-110.0,-66.0,127.0,127.0,127.0,116.0,89.0,-115.0
127.0,128.0,126.0,129.0,127.0,128.0,108.0,128.0,30.0,-110.0,-66.0,127.0,127.0,127.0,116.0,89.0,-115.0
127.0,128.0,126.0,129.0,127.0,128.0,107.0,128.0,30.0,-110.0,-66.0,127.0,127.0,127.0,116.0,89.0,-115.0
127.0,128.0,126.0,129.0,127.0,128.0,107.0,128.0,30.0,-110.0,-66.0,127.0,127.0,127.0,116.0,89.0,-115.0
127.0,128.0,126.0,128.0,127.0,128.0,107.0,128.0,30.0,-110.0,-66.0,127.0,127.0,127.0,116.0,89.0,-115.0
127.0,128.0,126.0,128.0,127.0,128.0,107.0,128.0,30.0,-110.0,-66.0,127.0,127.0,127.0,116.0,89.0,-115.0
127.0,128.0,126.0,128.0,127.0,127.0,106.0,128.0,30.0,-110.0,-66.0,127.0,127.0,127.0,116.0,89.0,-115.0
127.0,128.0,126.0,128.0,127.0,128.0,106.0,128.0,30.0,-110.0,-66.0,127.0,127.0,127.0,116.0,89.0,-115.0
127.0,128.0,126.0,128.0,127.0,128.0,107.0,128.0,30.0,-110.0,-66.0,127.0,127.0,127.0,116.0,89.0,-115.0
127.0,129.0,126.0,128.0,127.0,128.0,107.0,128.0,30.0,-110.0,-66.0,127.0,127.0,127.0,116.0,89.0,-115.0
127.0,128.0,126.0,129.0,127.0,128.0,107.0,128.0,30.0,-110.0,-66.0,127.0,127.0,127.0,116.0,89.0,-115.0
127.0,128.0,126.0,129.0,127.0,128.0,107.0,129.0,30.0,-110.0,-66.0,127.0,127.0,127.0,116.0,89.0,-115.0
127.0,128.0,126.0,129.0,127.0,128.0,107.0,128.0,30.0,-110.0,-66.0,127.0,127.0,127.0,116.0,89.0,-115.0
127.0,128.0,126.0,129.0,127.0,128.0,107.0,128.0,30.0,-110.0,-66.0,127.0,127.0,127.0,116.0,89.0,-115.0
127.0,128.0,126.0,129.0,127.0,127.0,107.0,128.0,30.0,-110.0,-66.0,127.0,127.0,127.0,116.0,89.0,-115.0
127.0,128.0,126.0,128.0,127.0,128.0,106.0,128.0,30.0,-110.0,-66.0,127.0,127.0,127.0,116.0,89.0,-115.0
127.0,128.0,126.0,128.0,127.0,128.0,106.0,128.0,30.0,-110.0,-66.0,127.0,127.0,127.0,116.0,89.0,-115.0
127.0,128.0,126.0,128.0,127.0,128.0,107.0,128.0,30.0,-110.0,-66.0,127.0,127.0,127.0,116.0,89.0,-115.0
127.0,128.0,126.0,128.0,127.0,128.0,106.0,128.0,30.0,-110.0,-66.0,127.0,127.0,127.0,116.0,89.0,-115.0
127.0,128.0,126.0,128.0,128.0,128.0,108.0,128.0,30.0,-109.0,-66.0,127.0,127.0,127.0,116.0,89.0,-115.0
127.0,128.0,126.0,128.0,128.0,128.0,107.0,128.0,30.0,-109.0,-66.0,127.0,127.0,127.0,116.0,89.0,-115.0
127.0,128.0,126.0,128.0,128.0,128.0,108.0,128.0,30.0,-109.0,-66.0,127.0,127.0,127.0,116.0,89.0,-115.0
127.0,128.0,126.0,128.0,128.0,128.0,107.0,128.0,30.0,-109.0,-66.0,127.0,127.0,127.0,116.0,89.0,-115.0
127.0,128.0,126.0,128.0,128.0,128.0,107.0,128.0,30.0,-109.0,-66.0,127.0,127.0,127.0,116.0,89.0,-115.0
127.0,128.0,126.0,128.0,128.0,128.0,107.0,128.0,30.0,-109.0,-66.0,127.0,127.0,127.0,116.0,89.0,-115.0
127.0,128.0,127.0,128.0,127.0,128.0,107.0,128.0,30.0,-109.0,-66.0,127.0,127.0,127.0,116.0,89.0,-115.0
127.0,128.0,126.0,128.0,127.0,128.0,108.0,128.0,30.0,-109.0,-66.0,127.0,127.0,127.0,116.0,89.0,-115.0
127.0,128.0,126.0,128.0,128.0,128.0,107.0,128.0,30.0,-109.0,-66.0,127.0,127.0,127.0,116.0,89.0,-115.0
127.0,128.0,126.0,128.0,128.0,128.0,107.0,128.0,30.0,-109.0,-66.0,127.0,127.0,127.0,116.0,89.0,-115.0
127.0,128.0,127.0,129.0,127.0,128.0,107.0,128.0,30.0,-109.0,-66.0,127.0,127.0,127.0,116.0,89.0,-115.0
127.0,128.0,127.0,129.0,127.0,128.0,107.0,128.0,30.0,-109.0,-66.0,127.0,127.0,127.0,116.0,89.0,-115.0
127.0,128.0,128.0,129.0,127.0,128.0,107.0,128.0,30.0,-109.0,-66.0,127.0,127.0,127.0,116.0,89.0,-115.0
127.0,128.0,127.0,129.0,127.0,128.0,107.0,128.0,30.0,-109.0,-66.0,127.0,127.0,127.0,116.0,89.0,-115.0
127.0,129.0,128.0,129.0,127.0,127.0,107.0,128.0,30.0,-109.0,-66.0,127.0,127.0,127.0,116.0,89.0,-115.0
127.0,128.0,128.0,129.0,127.0,128.0,107.0,128.0,30.0,-109.0,-66.0,127.0,127.0,127.0,116.0,89.0,-115.0
127.0,128.0,128.0,129.0,127.0,128.0,107.0,128.0,30.0,-109.0,-66.0,127.0,127.0,127.0,116.0,89.0,-115.0
127.0,128.0,127.0,129.0,127.0,127.0,107.0,128.0,30.0,-109.0,-66.0,127.0,127.0,127.0,116.0,89.0,-115.0
127.0,129.0,127.0,129.0,127.0,128.0,107.0,128.0,30.0,-109.0,-66.0,127.0,127.0,127.0,116.0,89.0,-115.0
127.0,129.0,127.0,129.0,127.0,128.0,107.0,128.0,30.0,-109.0,-66.0,127.0,127.0,127.0,116.0,89.0,-115.0
127.0,128.0,127.0,129.0,128.0,128.0,108.0,128.0,30.0,-109.0,-67.0,127.0,127.0,127.0,116.0,89.0,-115.0
127.0,128.0,127.0,129.0,128.0,128.0,107.0,128.0,30.0,-109.0,-67.0,127.0,127.0,127.0,116.0,89.0,-115.0
127.0,128.0,127.0,129.0,128.0,128.0,107.0,128.0,30.0,-109.0,-67.0,127.0,127.0,127.0,116.0,89.0,-115.0
127.0,128.0,127.0,129.0,128.0,128.0,107.0,128.0,30.0,-109.0,-67.0,127.0,127.0,127.0,116.0,89.0,-115.0
127.0,128.0,126.0,128.0,127.0,128.0,106.0,128.0,30.0,-109.0,-67.0,127.0,127.0,127.0,116.0,89.0,-115.0
127.0,128.0,126.0,129.0,128.0,128.0,107.0,128.0,30.0,-109.0,-67.0,127.0,127.0,127.0,116.0,89.0,-115.0
127.0,128.0,126.0,129.0,128.0,128.0,107.0,128.0,30.0,-109.0,-67.0,127.0,127.0,127.0,116.0,89.0,-115.0
127.0,128.0,126.0,129.0,127.0,128.0,107.0,128.0,30.0,-109.0,-67.0,127.0,127.0,127.0,116.0,89.0,-115.0
127.0,128.0,126.0,129.0,128.0,128.0,107.0,128.0,30.0,-109.0,-67.0,127.0,127.0,127.0,116.0,89.0,-115.0
127.0,128.0,126.0,129.0,128.0,128.0,107.0,128.0,30.0,-109.0,-67.0,127.0,127.0,127.0,116.0,89.0,-115.0
126.0,128.0,124.0,127.0,126.0,128.0,106.0,126.0,30.0,-109.0,-67.0,127.0,127.0,127.0,116.0,89.0,-115.0
127.0,128.0,124.0,127.0,126.0,128.0,107.0,127.0,30.0,-109.0,-67.0,127.0,127.0,127.0,116.0,89.0,-115.0
127.0,128.0,124.0,128.0,126.0,128.0,107.0,128.0,30.0,-109.0,-67.0,127.0,127.0,127.0,116.0,89.0,-115.0
127.0,127.0,124.0,127.0,126.0,127.0,106.0,126.0,30.0,-109.0,-67.0,127.0,127.0,127.0,116.0,89.0,-115.0
127.0,128.0,124.0,127.0,126.0,127.0,106.0,126.0,30.0,-109.0,-67.0,127.0,127.0,127.0,116.0,89.0,-115.0
127.0,128.0,124.0,127.0,126.0,127.0,106.0,126.0,30.0,-109.0,-67.0,127.0,127.0,127.0,116.0,89.0,-115.0
127.0,128.0,124.0,127.0,126.0,127.0,107.0,126.0,30.0,-109.0,-67.0,127.0,127.0,127.0,116.0,89.0,-115.0
127.0,128.0,124.0,127.0,126.0,127.0,107.0,126.0,30.0,-109.0,-67.0,127.0,127.0,127.0,116.0,89.0,-115.0
126.0,128.0,124.0,127.0,126.0,127.0,106.0,126.0,30.0,-109.0,-67.0,127.0,127.0,127.0,116.0,89.0,-115.0
126.0,128.0,124.0,127.0,126.0,128.0,106.0,126.0,30.0,-109.0,-67.0,127.0,127.0,127.0,116.0,89.0,-115.0
125.0,127.0,113.0,132.0,126.0,127.0,114.0,127.0,30.0,-110.0,-67.0,127.0,127.0,127.0,116.0,89.0,-115.0
125.0,127.0,112.0,132.0,126.0,127.0,111.0,127.0,30.0,-110.0,-67.0,127.0,127.0,127.0,116.0,89.0,-115.0
125.0,126.0,116.0,126.0,125.0,126.0,112.0,125.0,30.0,-110.0,-67.0,127.0,127.0,127.0,116.0,89.0,-115.0
125.0,126.0,115.0,127.0,125.0,126.0,112.0,125.0,30.0,-110.0,-67.0,127.0,127.0,127.0,116.0,89.0,-115.0
125.0,127.0,114.0,128.0,125.0,126.0,113.0,125.0,30.0,-110.0,-67.0,127.0,127.0,127.0,116.0,89.0,-115.0
125.0,127.0,114.0,130.0,125.0,127.0,112.0,126.0,30.0,-110.0,-67.0,127.0,127.0,127.0,116.0,89.0,-115.0
125.0,127.0,113.0,131.0,125.0,127.0,112.0,126.0,30.0,-110.0,-67.0,127.0,127.0,127.0,116.0,89.0,-115.0
125.0,127.0,114.0,132.0,126.0,127.0,113.0,126.0,30.0,-110.0,-67.0,127.0,127.0,127.0,116.0,89.0,-115.0
125.0,127.0,114.0,132.0,126.0,127.0,113.0,126.0,30.0,-110.0,-67.0,127.0,127.0,127.0,116.0,89.0,-115.0
125.0,127.0,114.0,133.0,126.0,127.0,113.0,126.0,30.0,-110.0,-67.0,127.0,127.0,127.0,116.0,89.0,-115.0
124.0,126.0,122.0,134.0,131.0,128.0,107.0,133.0,30.0,-110.0,-67.0,127.0,127.0,127.0,116.0,89.0,-115.0
125.0,127.0,95.0,115.0,125.0,126.0,111.0,127.0,30.0,-110.0,-67.0,127.0,127.0,127.0,116.0,89.0,-115.0
125.0,127.0,97.0,116.0,125.0,126.0,111.0,127.0,30.0,-110.0,-67.0,127.0,127.0,127.0,116.0,89.0,-115.0
125.0,127.0,101.0,117.0,126.0,126.0,111.0,128.0,30.0,-110.0,-67.0,127.0,127.0,127.0,116.0,89.0,-115.0
124.0,127.0,104.0,119.0,126.0,126.0,111.0,129.0,30.0,-110.0,-67.0,127.0,127.0,127.0,116.0,89.0,-115.0
124.0,127.0,108.0,121.0,127.0,126.0,111.0,130.0,30.0,-110.0,-67.0,127.0,127.0,127.0,116.0,89.0,-115.0
123.0,127.0,111.0,123.0,128.0,126.0,112.0,130.0,30.0,-110.0,-67.0,127.0,127.0,127.0,116.0,89.0,-115.0
123.0,126.0,114.0,125.0,129.0,127.0,113.0,131.0,30.0,-110.0,-67.0,127.0,127.0,127.0,116.0,89.0,-115.0
123.0,125.0,117.0,128.0,129.0,127.0,110.0,132.0,30.0,-110.0,-67.0,127.0,127.0,127.0,116.0,89.0,-115.0
124.0,125.0,119.0,132.0,130.0,127.0,107.0,132.0,30.0,-110.0,-67.0,127.0,127.0,127.0,116.0,89.0,-115.0
119.0,134.0,204.0,141.0,138.0,130.0,111.0,133.0,30.0,-110.0,-66.0,127.0,127.0,127.0,116.0,89.0,-115.0
118.0,134.0,206.0,141.0,139.0,131.0,112.0,133.0,30.0,-110.0,-66.0,127.0,127.0,127.0,116.0,89.0,-115.0
117.0,134.0,208.0,142.0,139.0,131.0,112.0,133.0,30.0,-110.0,-66.0,127.0,127.0,127.0,116.0,89.0,-115.0
117.0,133.0,209.0,142.0,139.0,131.0,113.0,134.0,30.0,-110.0,-66.0,127.0,127.0,127.0,116.0,89.0,-115.0
118.0,134.0,209.0,142.0,139.0,132.0,113.0,134.0,30.0,-110.0,-66.0,127.0,127.0,127.0,116.0,89.0,-115.0
120.0,134.0,209.0,142.0,140.0,132.0,114.0,135.0,30.0,-110.0,-66.0,127.0,127.0,127.0,116.0,89.0,-115.0
121.0,134.0,209.0,141.0,140.0,132.0,115.0,136.0,30.0,-110.0,-66.0,127.0,127.0,127.0,116.0,89.0,-115.0
121.0,134.0,208.0,141.0,140.0,133.0,115.0,137.0,30.0,-110.0,-66.0,127.0,127.0,127.0,116.0,89.0,-115.0
121.0,134.0,208.0,141.0,140.0,133.0,116.0,139.0,30.0,-110.0,-66.0,127.0,127.0,127.0,116.0,89.0,-115.0
121.0,134.0,207.0,142.0,140.0,133.0,116.0,139.0,30.0,-110.0,-66.0,127.0,127.0,127.0,116.0,89.0,-115.0
121.0,138.0,147.0,141.0,132.0,109.0,98.0,146.0,30.0,-111.0,-65.0,-128.0,127.0,127.0,116.0,89.0,-115.0
120.0,138.0,145.0,141.0,131.0,108.0,95.0,146.0,30.0,-111.0,-65.0,-128.0,127.0,127.0,116.0,89.0,-115.0
120.0,138.0,142.0,142.0,130.0,106.0,92.0,145.0,30.0,-111.0,-65.0,-128.0,127.0,127.0,116.0,89.0,-115.0
120.0,138.0,139.0,142.0,130.0,104.0,90.0,144.0,30.0,-111.0,-65.0,-128.0,127.0,127.0,116.0,89.0,-115.0
121.0,138.0,138.0,142.0,129.0,102.0,92.0,143.0,30.0,-111.0,-65.0,-128.0,127.0,127.0,116.0,89.0,-115.0
122.0,139.0,137.0,143.0,129.0,99.0,89.0,143.0,30.0,-111.0,-65.0,-128.0,127.0,127.0,116.0,89.0,-115.0
123.0,139.0,136.0,143.0,129.0,97.0,85.0,143.0,30.0,-111.0,-65.0,-128.0,127.0,127.0,116.0,89.0,-115.0
123.0,139.0,135.0,143.0,129.0,95.0,84.0,143.0,30.0,-111.0,-65.0,-128.0,127.0,127.0,116.0,89.0,-115.0
123.0,139.0,133.0,143.0,129.0,93.0,84.0,143.0,30.0,-111.0,-65.0,-128.0,127.0,127.0,116.0,89.0,-115.0
123.0,138.0,150.0,141.0,132.0,111.0,96.0,147.0,30.0,-111.0,-65.0,-128.0,127.0,127.0,116.0,89.0,-115.0
132.0,135.0,254.0,211.0,117.0,86.0,80.0,119.0,31.0,-113.0,-66.0,-128.0,127.0,127.0,116.0,89.0,-115.0
132.0,135.0,254.0,217.0,116.0,88.0,78.0,119.0,31.0,-113.0,-66.0,-128.0,127.0,127.0,116.0,89.0,-115.0
133.0,135.0,254.0,224.0,116.0,90.0,79.0,119.0,31.0,-113.0,-66.0,-128.0,127.0,127.0,116.0,89.0,-115.0
134.0,135.0,254.0,230.0,116.0,92.0,82.0,119.0,31.0,-113.0,-66.0,-128.0,127.0,127.0,116.0,89.0,-115.0
135.0,135.0,254.0,235.0,116.0,94.0,84.0,119.0,31.0,-113.0,-66.0,-128.0,127.0,127.0,116.0,89.0,-115.0
135.0,135.0,254.0,239.0,115.0,95.0,85.0,120.0,31.0,-113.0,-66.0,-128.0,127.0,127.0,116.0,89.0,-115.0
136.0,135.0,254.0,241.0,114.0,97.0,84.0,120.0,31.0,-113.0,-66.0,-128.0,127.0,127.0,116.0,89.0,-115.0
135.0,135.0,254.0,243.0,113.0,98.0,86.0,120.0,31.0,-113.0,-66.0,-128.0,127.0,127.0,116.0,89.0,-115.0
129.0,133.0,254.0,202.0,118.0,83.0,74.0,120.0,31.0,-113.0,-66.0,-128.0,127.0,127.0,116.0,89.0,-115.0
131.0,134.0,254.0,206.0,117.0,85.0,77.0,120.0,31.0,-113.0,-66.0,-128.0,127.0,127.0,116.0,89.0,-115.0
125.0,123.0,80.0,127.0,126.0,22.0,39.0,136.0,33.0,-108.0,-66.0,-127.0,127.0,127.0,116.0,89.0,-115.0
123.0,122.0,75.0,124.0,126.0,18.0,36.0,136.0,33.0,-108.0,-66.0,-127.0,127.0,127.0,116.0,89.0,-115.0
122.0,122.0,70.0,121.0,126.0,14.0,34.0,136.0,33.0,-108.0,-66.0,-127.0,127.0,127.0,116.0,89.0,-115.0
123.0,123.0,66.0,118.0,127.0,10.0,31.0,137.0,33.0,-108.0,-66.0,-127.0,127.0,127.0,116.0,89.0,-115.0
124.0,124.0,62.0,116.0,127.0,7.0,30.0,138.0,33.0,-108.0,-66.0,-127.0,127.0,127.0,116.0,89.0,-115.0
126.0,125.0,57.0,113.0,128.0,3.0,28.0,140.0,33.0,-108.0,-66.0,-127.0,127.0,127.0,116.0,89.0,-115.0
128.0,125.0,53.0,111.0,128.0,1.0,25.0,142.0,33.0,-108.0,-66.0,-127.0,127.0,127.0,116.0,89.0,-115.0
129.0,121.0,95.0,135.0,125.0,35.0,47.0,137.0,33.0,-108.0,-66.0,-127.0,127.0,127.0,116.0,89.0,-115.0
128.0,122.0,90.0,133.0,125.0,31.0,43.0,137.0,33.0,-108.0,-66.0,-127.0,127.0,127.0,116.0,89.0,-115.0
127.0,123.0,85.0,130.0,126.0,27.0,41.0,136.0,33.0,-108.0,-66.0,-127.0,127.0,127.0,116.0,89.0,-115.0
124.0,124.0,25.0,173.0,129.0,88.0,78.0,117.0,31.0,-108.0,-66.0,-127.0,127.0,127.0,116.0,89.0,-115.0
124.0,123.0,28.0,174.0,129.0,91.0,79.0,117.0,31.0,-108.0,-66.0,-127.0,127.0,127.0,116.0,89.0,-115.0
124.0,123.0,32.0,176.0,129.0,93.0,83.0,116.0,31.0,-108.0,-66.0,-127.0,127.0,127.0,116.0,89.0,-115.0
124.0,124.0,35.0,177.0,128.0,96.0,85.0,116.0,31.0,-108.0,-66.0,-127.0,127.0,127.0,116.0,89.0,-115.0
124.0,125.0,38.0,178.0,128.0,98.0,84.0,115.0,31.0,-108.0,-66.0,-127.0,127.0,127.0,116.0,89.0,-115.0
124.0,125.0,41.0,179.0,128.0,100.0,87.0,115.0,31.0,-108.0,-66.0,-127.0,127.0,127.0,116.0,89.0,-115.0
123.0,124.0,14.0,170.0,129.0,77.0,71.0,122.0,31.0,-108.0,-66.0,-127.0,127.0,127.0,116.0,89.0,-115.0
123.0,125.0,16.0,171.0,130.0,80.0,73.0,121.0,31.0,-108.0,-66.0,-127.0,127.0,127.0,116.0,89.0,-115.0
123.0,125.0,18.0,172.0,130.0,83.0,74.0,120.0,31.0,-108.0,-66.0,-127.0,127.0,127.0,116.0,89.0,-115.0
124.0,124.0,21.0,172.0,129.0,85.0,78.0,118.0,31.0,-108.0,-66.0,-127.0,127.0,127.0,116.0,89.0,-115.0
127.0,122.0,114.0,141.0,131.0,112.0,96.0,128.0,28.0,-103.0,-66.0,-128.0,126.0,127.0,116.0,89.0,-115.0
127.0,122.0,114.0,143.0,131.0,112.0,95.0,128.0,28.0,-103.0,-66.0,-128.0,126.0,127.0,116.0,89.0,-115.0
128.0,122.0,113.0,145.0,130.0,111.0,96.0,128.0,28.0,-103.0,-66.0,-128.0,126.0,127.0,116.0,89.0,-115.0
128.0,121.0,113.0,146.0,130.0,111.0,99.0,128.0,28.0,-103.0,-66.0,-128.0,126.0,127.0,116.0,89.0,-115.0
128.0,121.0,113.0,148.0,130.0,110.0,99.0,128.0,28.0,-103.0,-66.0,-128.0,126.0,127.0,116.0,89.0,-115.0
124.0,123.0,117.0,140.0,132.0,116.0,103.0,125.0,28.0,-103.0,-66.0,-128.0,126.0,127.0,116.0,89.0,-115.0
124.0,123.0,116.0,140.0,133.0,116.0,101.0,126.0,28.0,-103.0,-66.0,-128.0,126.0,127.0,116.0,89.0,-115.0
125.0,123.0,116.0,140.0,132.0,115.0,100.0,126.0,28.0,-103.0,-66.0,-128.0,126.0,127.0,116.0,89.0,-115.0
126.0,123.0,116.0,140.0,132.0,114.0,99.0,127.0,28.0,-103.0,-66.0,-128.0,126.0,127.0,116.0,89.0,-115.0
126.0,123.0,115.0,140.0,132.0,113.0,98.0,127.0,28.0,-103.0,-66.0,-128.0,126.0,127.0,116.0,89.0,-115.0
122.0,123.0,111.0,131.0,122.0,106.0,92.0,127.0,28.0,-103.0,-68.0,-128.0,127.0,127.0,116.0,89.0,-115.0
122.0,123.0,112.0,132.0,122.0,106.0,91.0,127.0,28.0,-103.0,-68.0,-128.0,127.0,127.0,116.0,89.0,-115.0
122.0,123.0,113.0,133.0,122.0,106.0,92.0,127.0,28.0,-103.0,-68.0,-128.0,127.0,127.0,116.0,89.0,-115.0
123.0,122.0,112.0,135.0,122.0,106.0,92.0,126.0,28.0,-103.0,-68.0,-128.0,127.0,127.0,116.0,89.0,-115.0
120.0,121.0,110.0,126.0,126.0,107.0,93.0,125.0,28.0,-103.0,-68.0,-128.0,127.0,127.0,116.0,89.0,-115.0
120.0,121.0,110.0,125.0,125.0,107.0,93.0,125.0,28.0,-103.0,-68.0,-128.0,127.0,127.0,116.0,89.0,-115.0
120.0,122.0,109.0,126.0,124.0,107.0,93.0,125.0,28.0,-103.0,-68.0,-128.0,127.0,127.0,116.0,89.0,-115.0
121.0,122.0,109.0,127.0,124.0,107.0,93.0,125.0,28.0,-103.0,-68.0,-128.0,127.0,127.0,116.0,89.0,-115.0
121.0,123.0,109.0,128.0,123.0,106.0,93.0,125.0,28.0,-103.0,-68.0,-128.0,127.0,127.0,116.0,89.0,-115.0
121.0,123.0,110.0,130.0,123.0,106.0,92.0,126.0,28.0,-103.0,-68.0,-128.0,127.0,127.0,116.0,89.0,-115.0
127.0,123.0,110.0,141.0,122.0,105.0,90.0,126.0,27.0,-108.0,-65.0,-128.0,126.0,127.0,116.0,89.0,-115.0
127.0,123.0,109.0,140.0,122.0,106.0,91.0,126.0,27.0,-108.0,-65.0,-128.0,126.0,127.0,116.0,89.0,-115.0
127.0,124.0,114.0,141.0,123.0,103.0,90.0,126.0,27.0,-108.0,-65.0,-128.0,126.0,127.0,116.0,89.0,-115.0
127.0,124.0,114.0,142.0,123.0,103.0,88.0,126.0,27.0,-108.0,-65.0,-128.0,126.0,127.0,116.0,89.0,-115.0
127.0,125.0,113.0,142.0,123.0,104.0,88.0,126.0,27.0,-108.0,-65.0,-128.0,126.0,127.0,116.0,89.0,-115.0
127.0,125.0,113.0,142.0,123.0,104.0,88.0,126.0,27.0,-108.0,-65.0,-128.0,126.0,127.0,116.0,89.0,-115.0
127.0,125.0,113.0,143.0,123.0,104.0,89.0,127.0,27.0,-108.0,-65.0,-128.0,126.0,127.0,116.0,89.0,-115.0
127.0,124.0,112.0,143.0,122.0,104.0,89.0,126.0,27.0,-108.0,-65.0,-128.0,126.0,127.0,116.0,89.0,-115.0
127.0,124.0,111.0,142.0,122.0,104.0,89.0,126.0,27.0,-108.0,-65.0,-128.0,126.0,127.0,116.0,89.0,-115.0
127.0,123.0,111.0,142.0,122.0,105.0,89.0,126.0,27.0,-108.0,-65.0,-128.0,126.0,127.0,116.0,89.0,-115.0
128.0,127.0,116.0,123.0,124.0,118.0,105.0,132.0,30.0,-111.0,-64.0,-127.0,127.0,127.0,116.0,89.0,-115.0
125.0,122.0,113.0,137.0,119.0,116.0,102.0,126.0,30.0,-111.0,-64.0,-127.0,127.0,127.0,116.0,89.0,-115.0
125.0,122.0,113.0,135.0,119.0,116.0,102.0,126.0,30.0,-111.0,-64.0,-127.0,127.0,127.0,116.0,89.0,-115.0
125.0,123.0,113.0,134.0,120.0,117.0,102.0,127.0,30.0,-111.0,-64.0,-127.0,127.0,127.0,116.0,89.0,-115.0
125.0,124.0,114.0,133.0,121.0,117.0,103.0,128.0,30.0,-111.0,-64.0,-127.0,127.0,127.0,116.0,89.0,-115.0
126.0,125.0,114.0,131.0,122.0,117.0,104.0,129.0,30.0,-111.0,-64.0,-127.0,127.0,127.0,116.0,89.0,-115.0
126.0,125.0,115.0,129.0,122.0,117.0,104.0,130.0,30.0,-111.0,-64.0,-127.0,127.0,127.0,116.0,89.0,-115.0
127.0,126.0,115.0,127.0,122.0,117.0,104.0,131.0,30.0,-111.0,-64.0,-127.0,127.0,127.0,116.0,89.0,-115.0
127.0,126.0,116.0,125.0,123.0,117.0,104.0,131.0,30.0,-111.0,-64.0,-127.0,127.0,127.0,116.0,89.0,-115.0
127.0,126.0,116.0,123.0,123.0,118.0,105.0,132.0,30.0,-111.0,-64.0,-127.0,127.0,127.0,116.0,89.0,-115.0
126.0,124.0,112.0,117.0,127.0,119.0,102.0,125.0,31.0,-112.0,-65.0,-127.0,127.0,127.0,116.0,89.0,-115.0
126.0,124.0,112.0,117.0,127.0,119.0,105.0,125.0,31.0,-112.0,-65.0,-127.0,127.0,127.0,116.0,89.0,-115.0
127.0,124.0,112.0,117.0,127.0,119.0,106.0,125.0,31.0,-112.0,-65.0,-127.0,127.0,127.0,116.0,89.0,-115.0
127.0,125.0,112.0,117.0,127.0,119.0,107.0,125.0,31.0,-112.0,-65.0,-127.0,127.0,127.0,116.0,89.0,-115.0
127.0,125.0,112.0,118.0,127.0,119.0,107.0,125.0,31.0,-112.0,-65.0,-127.0,127.0,127.0,116.0,89.0,-115.0
127.0,125.0,112.0,118.0,126.0,119.0,107.0,125.0,31.0,-112.0,-65.0,-127.0,127.0,127.0,116.0,89.0,-115.0
127.0,125.0,113.0,119.0,127.0,119.0,106.0,125.0,31.0,-112.0,-65.0,-127.0,127.0,127.0,116.0,89.0,-115.0
127.0,125.0,113.0,120.0,127.0,119.0,107.0,126.0,31.0,-112.0,-65.0,-127.0,127.0,127.0,116.0,89.0,-115.0
127.0,125.0,113.0,121.0,127.0,119.0,104.0,126.0,31.0,-112.0,-65.0,-127.0,127.0,127.0,116.0,89.0,-115.0
127.0,125.0,114.0,122.0,127.0,119.0,100.0,126.0,31.0,-112.0,-65.0,-127.0,127.0,127.0,116.0,89.0,-115.0
127.0,125.0,120.0,118.0,126.0,131.0,114.0,126.0,32.0,-110.0,-67.0,-128.0,127.0,127.0,116.0,89.0,-115.0
127.0,125.0,119.0,119.0,126.0,131.0,113.0,126.0,32.0,-110.0,-67.0,-128.0,127.0,127.0,116.0,89.0,-115.0
127.0,125.0,119.0,119.0,126.0,131.0,113.0,126.0,32.0,-110.0,-67.0,-128.0,127.0,127.0,116.0,89.0,-115.0
127.0,126.0,119.0,120.0,126.0,131.0,113.0,127.0,32.0,-110.0,-67.0,-128.0,127.0,127.0,116.0,89.0,-115.0
127.0,126.0,120.0,120.0,126.0,131.0,113.0,127.0,32.0,-110.0,-67.0,-128.0,127.0,127.0,116.0,89.0,-115.0
128.0,126.0,120.0,121.0,126.0,132.0,114.0,127.0,32.0,-110.0,-67.0,-128.0,127.0,127.0,116.0,89.0,-115.0
128.0,127.0,120.0,121.0,126.0,132.0,114.0,127.0,32.0,-110.0,-67.0,-128.0,127.0,127.0,116.0,89.0,-115.0
127.0,126.0,120.0,121.0,126.0,132.0,114.0,127.0,32.0,-110.0,-67.0,-128.0,127.0,127.0,116.0,89.0,-115.0
128.0,127.0,120.0,121.0,126.0,133.0,115.0,127.0,32.0,-110.0,-67.0,-128.0,127.0,127.0,116.0,89.0,-115.0
127.0,125.0,120.0,118.0,126.0,131.0,113.0,125.0,32.0,-110.0,-67.0,-128.0,127.0,127.0,116.0,89.0,-115.0
127.0,126.0,126.0,109.0,125.0,137.0,116.0,127.0,31.0,-107.0,-69.0,-128.0,127.0,127.0,116.0,89.0,-115.0
127.0,126.0,125.0,108.0,125.0,138.0,117.0,127.0,31.0,-107.0,-69.0,-128.0,127.0,127.0,116.0,89.0,-115.0
127.0,126.0,125.0,108.0,125.0,138.0,117.0,127.0,31.0,-107.0,-69.0,-128.0,127.0,127.0,116.0,89.0,-115.0
127.0,126.0,125.0,108.0,125.0,138.0,117.0,127.0,31.0,-107.0,-69.0,-128.0,127.0,127.0,116.0,89.0,-115.0
127.0,126.0,125.0,108.0,125.0,137.0,116.0,127.0,31.0,-107.0,-69.0,-128.0,127.0,127.0,116.0,89.0,-115.0
127.0,126.0,125.0,108.0,126.0,137.0,116.0,127.0,31.0,-107.0,-69.0,-128.0,127.0,127.0,116.0,89.0,-115.0
127.0,126.0,125.0,108.0,126.0,137.0,116.0,127.0,31.0,-107.0,-69.0,-128.0,127.0,127.0,116.0,89.0,-115.0
127.0,126.0,125.0,109.0,126.0,138.0,117.0,127.0,31.0,-107.0,-69.0,-128.0,127.0,127.0,116.0,89.0,-115.0
127.0,125.0,127.0,109.0,125.0,137.0,116.0,127.0,31.0,-107.0,-69.0,-128.0,127.0,127.0,116.0,89.0,-115.0
127.0,125.0,126.0,109.0,125.0,137.0,116.0,127.0,31.0,-107.0,-69.0,-128.0,127.0,127.0,116.0,89.0,-115.0
127.0,126.0,138.0,106.0,125.0,143.0,119.0,127.0,31.0,-105.0,-69.0,127.0,127.0,127.0,116.0,89.0,-115.0
127.0,126.0,138.0,106.0,125.0,143.0,119.0,127.0,31.0,-105.0,-69.0,127.0,127.0,127.0,116.0,89.0,-115.0
127.0,126.0,138.0,106.0,125.0,143.0,118.0,127.0,31.0,-105.0,-69.0,127.0,127.0,127.0,116.0,89.0,-115.0
127.0,126.0,139.0,107.0,125.0,143.0,119.0,127.0,31.0,-105.0,-69.0,127.0,127.0,127.0,116.0,89.0,-115.0
127.0,126.0,139.0,107.0,125.0,143.0,119.0,127.0,31.0,-105.0,-69.0,127.0,127.0,127.0,116.0,89.0,-115.0
127.0,126.0,139.0,107.0,126.0,144.0,120.0,127.0,31.0,-105.0,-69.0,127.0,127.0,127.0,116.0,89.0,-115.0
127.0,126.0,140.0,108.0,126.0,144.0,120.0,127.0,31.0,-105.0,-69.0,127.0,127.0,127.0,116.0,89.0,-115.0
127.0,125.0,138.0,105.0,125.0,143.0,121.0,126.0,31.0,-105.0,-69.0,127.0,127.0,127.0,116.0,89.0,-115.0
127.0,125.0,138.0,105.0,125.0,143.0,119.0,126.0,31.0,-105.0,-69.0,127.0,127.0,127.0,116.0,89.0,-115.0
127.0,125.0,138.0,106.0,125.0,143.0,118.0,127.0,31.0,-105.0,-69.0,127.0,127.0,127.0,116.0,89.0,-115.0
127.0,126.0,163.0,105.0,127.0,173.0,146.0,127.0,30.0,-104.0,-69.0,127.0,127.0,127.0,116.0,89.0,-115.0
127.0,126.0,163.0,106.0,127.0,174.0,146.0,127.0,30.0,-104.0,-69.0,127.0,127.0,127.0,116.0,89.0,-115.0
127.0,126.0,162.0,106.0,127.0,174.0,147.0,127.0,30.0,-104.0,-69.0,127.0,127.0,127.0,116.0,89.0,-115.0
127.0,126.0,162.0,107.0,128.0,174.0,147.0,127.0,30.0,-104.0,-69.0,127.0,127.0,127.0,116.0,89.0,-115.0
127.0,126.0,162.0,108.0,128.0,175.0,148.0,127.0,30.0,-104.0,-69.0,127.0,127.0,127.0,116.0,89.0,-115.0
127.0,126.0,162.0,108.0,128.0,175.0,143.0,127.0,30.0,-104.0,-69.0,127.0,127.0,127.0,116.0,89.0,-115.0
126.0,125.0,164.0,104.0,126.0,172.0,143.0,126.0,30.0,-104.0,-69.0,127.0,127.0,127.0,116.0,89.0,-115.0
127.0,125.0,164.0,104.0,127.0,172.0,144.0,127.0,30.0,-104.0,-69.0,127.0,127.0,127.0,116.0,89.0,-115.0
127.0,126.0,163.0,104.0,127.0,173.0,145.0,127.0,30.0,-104.0,-69.0,127.0,127.0,127.0,116.0,89.0,-115.0
127.0,126.0,163.0,105.0,127.0,173.0,145.0,127.0,30.0,-104.0,-69.0,127.0,127.0,127.0,116.0,89.0,-115.0
127.0,127.0,128.0,121.0,128.0,182.0,153.0,128.0,29.0,-103.0,-69.0,127.0,127.0,127.0,116.0,89.0,-115.0
127.0,127.0,127.0,121.0,128.0,182.0,153.0,128.0,29.0,-103.0,-69.0,127.0,127.0,127.0,116.0,89.0,-115.0
127.0,127.0,126.0,122.0,128.0,182.0,153.0,128.0,29.0,-103.0,-69.0,127.0,127.0,127.0,116.0,89.0,-115.0
127.0,127.0,126.0,122.0,128.0,182.0,153.0,128.0,29.0,-103.0,-69.0,127.0,127.0,127.0,116.0,89.0,-115.0
127.0,127.0,125.0,122.0,128.0,182.0,153.0,128.0,29.0,-103.0,-69.0,127.0,127.0,127.0,116.0,89.0,-115.0
127.0,126.0,134.0,119.0,128.0,182.0,153.0,127.0,29.0,-103.0,-69.0,127.0,127.0,127.0,116.0,89.0,-115.0
127.0,126.0,133.0,119.0,128.0,182.0,153.0,127.0,29.0,-103.0,-69.0,127.0,127.0,127.0,116.0,89.0,-115.0
127.0,126.0,132.0,119.0,128.0,182.0,153.0,127.0,29.0,-103.0,-69.0,127.0,127.0,127.0,116.0,89.0,-115.0
127.0,127.0,131.0,120.0,128.0,182.0,153.0,127.0,29.0,-103.0,-69.0,127.0,127.0,127.0,116.0,89.0,-115.0
127.0,127.0,130.0,120.0,128.0,182.0,153.0,128.0,29.0,-103.0,-69.0,127.0,127.0,127.0,116.0,89.0,-115.0
127.0,127.0,101.0,124.0,126.0,174.0,147.0,128.0,28.0,-104.0,-70.0,127.0,127.0,127.0,116.0,89.0,-115.0
127.0,127.0,101.0,124.0,126.0,174.0,147.0,128.0,28.0,-104.0,-70.0,127.0,127.0,127.0,116.0,89.0,-115.0
127.0,127.0,101.0,124.0,126.0,173.0,146.0,128.0,28.0,-104.0,-70.0,127.0,127.0,127.0,116.0,89.0,-115.0
127.0,127.0,100.0,124.0,126.0,173.0,146.0,128.0,28.0,-104.0,-70.0,127.0,127.0,127.0,116.0,89.0,-115.0
127.0,126.0,105.0,122.0,126.0,177.0,144.0,127.0,28.0,-104.0,-70.0,127.0,127.0,127.0,116.0,89.0,-115.0
127.0,127.0,104.0,123.0,126.0,176.0,144.0,127.0,28.0,-104.0,-70.0,127.0,127.0,127.0,116.0,89.0,-115.0
127.0,127.0,103.0,123.0,126.0,176.0,144.0,127.0,28.0,-104.0,-70.0,127.0,127.0,127.0,116.0,89.0,-115.0
127.0,127.0,103.0,124.0,126.0,176.0,143.0,128.0,28.0,-104.0,-70.0,127.0,127.0,127.0,116.0,89.0,-115.0
127.0,127.0,102.0,124.0,126.0,175.0,142.0,128.0,28.0,-104.0,-70.0,127.0,127.0,127.0,116.0,89.0,-115.0
127.0,127.0,102.0,124.0,126.0,175.0,143.0,128.0,28.0,-104.0,-70.0,127.0,127.0,127.0,116.0,89.0,-115.0
127.0,127.0,100.0,116.0,126.0,160.0,133.0,128.0,28.0,-106.0,-71.0,126.0,127.0,127.0,116.0,89.0,-115.0
127.0,127.0,101.0,115.0,126.0,160.0,132.0,128.0,28.0,-106.0,-71.0,126.0,127.0,127.0,116.0,89.0,-115.0
126.0,127.0,102.0,115.0,126.0,160.0,132.0,128.0,28.0,-106.0,-71.0,126.0,127.0,127.0,116.0,89.0,-115.0
126.0,126.0,98.0,115.0,125.0,160.0,133.0,127.0,28.0,-106.0,-71.0,126.0,127.0,127.0,116.0,89.0,-115.0
126.0,127.0,98.0,116.0,125.0,160.0,133.0,127.0,28.0,-106.0,-71.0,126.0,127.0,127.0,116.0,89.0,-115.0
126.0,127.0,98.0,116.0,125.0,160.0,133.0,127.0,28.0,-106.0,-71.0,126.0,127.0,127.0,116.0,89.0,-115.0
126.0,127.0,98.0,116.0,125.0,160.0,132.0,127.0,28.0,-106.0,-71.0,126.0,127.0,127.0,116.0,89.0,-115.0
126.0,127.0,98.0,116.0,125.0,160.0,132.0,127.0,28.0,-106.0,-71.0,126.0,127.0,127.0,116.0,89.0,-115.0
126.0,127.0,99.0,116.0,126.0,160.0,133.0,127.0,28.0,-106.0,-71.0,126.0,127.0,127.0,116.0,89.0,-115.0
126.0,127.0,100.0,116.0,125.0,160.0,133.0,128.0,28.0,-106.0,-71.0,126.0,127.0,127.0,116.0,89.0,-115.0
126.0,128.0,131.0,107.0,127.0,152.0,127.0,127.0,29.0,-108.0,-72.0,126.0,127.0,127.0,116.0,89.0,-115.0
126.0,128.0,131.0,107.0,126.0,152.0,127.0,127.0,29.0,-108.0,-72.0,126.0,127.0,127.0,116.0,89.0,-115.0
126.0,127.0,130.0,104.0,126.0,154.0,129.0,127.0,29.0,-108.0,-72.0,126.0,127.0,127.0,116.0,89.0,-115.0
126.0,127.0,130.0,105.0,126.0,154.0,128.0,127.0,29.0,-108.0,-72.0,126.0,127.0,127.0,116.0,89.0,-115.0
126.0,127.0,130.0,105.0,126.0,153.0,128.0,127.0,29.0,-108.0,-72.0,126.0,127.0,127.0,116.0,89.0,-115.0
126.0,127.0,130.0,106.0,126.0,153.0,128.0,127.0,29.0,-108.0,-72.0,126.0,127.0,127.0,116.0,89.0,-115.0
126.0,128.0,130.0,106.0,127.0,153.0,128.0,127.0,29.0,-108.0,-72.0,126.0,127.0,127.0,116.0,89.0,-115.0
126.0,128.0,130.0,106.0,127.0,153.0,128.0,127.0,29.0,-108.0,-72.0,126.0,127.0,127.0,116.0,89.0,-115.0
126.0,128.0,130.0,106.0,127.0,153.0,127.0,127.0,29.0,-108.0,-72.0,126.0,127.0,127.0,116.0,89.0,-115.0
126.0,128.0,130.0,107.0,127.0,153.0,127.0,127.0,29.0,-108.0,-72.0,126.0,127.0,127.0,116.0,89.0,-115.0
126.0,128.0,136.0,112.0,127.0,146.0,124.0,127.0,29.0,-108.0,-71.0,127.0,127.0,127.0,116.0,89.0,-115.0
126.0,127.0,136.0,110.0,126.0,147.0,124.0,126.0,29.0,-108.0,-71.0,127.0,127.0,127.0,116.0,89.0,-115.0
126.0,127.0,136.0,110.0,126.0,147.0,125.0,127.0,29.0,-108.0,-71.0,127.0,127.0,127.0,116.0,89.0,-115.0
126.0,127.0,136.0,111.0,126.0,147.0,125.0,127.0,29.0,-108.0,-71.0,127.0,127.0,127.0,116.0,89.0,-115.0
126.0,127.0,136.0,111.0,127.0,147.0,124.0,127.0,29.0,-108.0,-71.0,127.0,127.0,127.0,116.0,89.0,-115.0
126.0,127.0,136.0,112.0,127.0,147.0,124.0,127.0,29.0,-108.0,-71.0,127.0,127.0,127.0,116.0,89.0,-115.0
126.0,128.0,136.0,112.0,127.0,146.0,124.0,127.0,29.0,-108.0,-71.0,127.0,127.0,127.0,116.0,89.0,-115.0
126.0,128.0,136.0,112.0,127.0,146.0,124.0,127.0,29.0,-108.0,-71.0,127.0,127.0,127.0,116.0,89.0,-115.0
126.0,128.0,136.0,112.0,127.0,146.0,124.0,127.0,29.0,-108.0,-71.0,127.0,127.0,127.0,116.0,89.0,-115.0
126.0,128.0,136.0,112.0,127.0,146.0,124.0,127.0,29.0,-108.0,-71.0,127.0,127.0,127.0,116.0,89.0,-115.0
126.0,127.0,138.0,107.0,125.0,140.0,121.0,127.0,30.0,-107.0,-71.0,126.0,127.0,127.0,116.0,89.0,-115.0
126.0,128.0,137.0,107.0,126.0,140.0,121.0,127.0,30.0,-107.0,-71.0,126.0,127.0,127.0,116.0,89.0,-115.0
126.0,128.0,137.0,108.0,126.0,140.0,121.0,127.0,30.0,-107.0,-71.0,126.0,127.0,127.0,116.0,89.0,-115.0
126.0,128.0,136.0,109.0,126.0,140.0,121.0,127.0,30.0,-107.0,-71.0,126.0,127.0,127.0,116.0,89.0,-115.0
126.0,128.0,136.0,109.0,126.0,140.0,121.0,127.0,30.0,-107.0,-71.0,126.0,127.0,127.0,116.0,89.0,-115.0
126.0,128.0,135.0,110.0,127.0,140.0,121.0,127.0,30.0,-107.0,-71.0,126.0,127.0,127.0,116.0,89.0,-115.0
126.0,129.0,135.0,110.0,127.0,140.0,120.0,127.0,30.0,-107.0,-71.0,126.0,127.0,127.0,116.0,89.0,-115.0
126.0,129.0,135.0,111.0,127.0,140.0,120.0,127.0,30.0,-107.0,-71.0,126.0,127.0,127.0,116.0,89.0,-115.0
126.0,129.0,135.0,111.0,127.0,140.0,120.0,127.0,30.0,-107.0,-71.0,126.0,127.0,127.0,116.0,89.0,-115.0
126.0,129.0,135.0,112.0,127.0,140.0,120.0,127.0,30.0,-107.0,-71.0,126.0,127.0,127.0,116.0,89.0,-115.0
126.0,128.0,123.0,115.0,127.0,134.0,117.0,127.0,30.0,-106.0,-69.0,126.0,127.0,127.0,116.0,89.0,-115.0
126.0,129.0,122.0,115.0,127.0,134.0,117.0,127.0,30.0,-106.0,-69.0,126.0,127.0,127.0,116.0,89.0,-115.0
126.0,129.0,122.0,115.0,127.0,134.0,117.0,127.0,30.0,-106.0,-69.0,126.0,127.0,127.0,116.0,89.0,-115.0
126.0,129.0,121.0,115.0,127.0,134.0,117.0,127.0,30.0,-106.0,-69.0,126.0,127.0,127.0,116.0,89.0,-115.0
126.0,129.0,120.0,116.0,127.0,134.0,117.0,127.0,30.0,-106.0,-69.0,126.0,127.0,127.0,116.0,89.0,-115.0
126.0,129.0,120.0,116.0,127.0,134.0,117.0,127.0,30.0,-106.0,-69.0,126.0,127.0,127.0,116.0,89.0,-115.0
126.0,129.0,120.0,116.0,127.0,134.0,117.0,127.0,30.0,-106.0,-69.0,126.0,127.0,127.0,116.0,89.0,-115.0
126.0,129.0,120.0,116.0,127.0,134.0,117.0,127.0,30.0,-106.0,-69.0,126.0,127.0,127.0,116.0,89.0,-115.0
126.0,129.0,120.0,117.0,127.0,134.0,117.0,127.0,30.0,-106.0,-69.0,126.0,127.0,127.0,116.0,89.0,-115.0
126.0,128.0,124.0,115.0,127.0,134.0,118.0,127.0,30.0,-106.0,-69.0,126.0,127.0,127.0,116.0,89.0,-115.0
126.0,127.0,119.0,118.0,127.0,132.0,115.0,127.0,29.0,-104.0,-68.0,126.0,127.0,127.0,116.0,89.0,-115.0
126.0,128.0,119.0,118.0,127.0,133.0,115.0,127.0,29.0,-104.0,-68.0,126.0,127.0,127.0,116.0,89.0,-115.0
126.0,128.0,118.0,118.0,127.0,132.0,115.0,127.0,29.0,-104.0,-68.0,126.0,127.0,127.0,116.0,89.0,-115.0
126.0,128.0,118.0,119.0,127.0,132.0,115.0,127.0,29.0,-104.0,-68.0,126.0,127.0,127.0,116.0,89.0,-115.0
126.0,129.0,118.0,119.0,127.0,133.0,115.0,127.0,29.0,-104.0,-68.0,126.0,127.0,127.0,116.0,89.0,-115.0
126.0,129.0,118.0,119.0,127.0,133.0,115.0,127.0,29.0,-104.0,-68.0,126.0,127.0,127.0,116.0,89.0,-115.0
126.0,129.0,118.0,119.0,127.0,133.0,115.0,127.0,29.0,-104.0,-68.0,126.0,127.0,127.0,116.0,89.0,-115.0
126.0,129.0,118.0,119.0,127.0,133.0,115.0,127.0,29.0,-104.0,-68.0,126.0,127.0,127.0,116.0,89.0,-115.0
126.0,127.0,120.0,117.0,127.0,132.0,115.0,127.0,29.0,-104.0,-68.0,126.0,127.0,127.0,116.0,89.0,-115.0
126.0,127.0,119.0,118.0,127.0,132.0,115.0,127.0,29.0,-104.0,-68.0,126.0,127.0,127.0,116.0,89.0,-115.0
126.0,128.0,105.0,114.0,128.0,131.0,113.0,127.0,28.0,-103.0,-67.0,126.0,127.0,127.0,116.0,89.0,-115.0
126.0,128.0,104.0,114.0,128.0,131.0,113.0,127.0,28.0,-103.0,-67.0,126.0,127.0,127.0,116.0,89.0,-115.0
126.0,128.0,104.0,115.0,129.0,132.0,113.0,127.0,28.0,-103.0,-67.0,126.0,127.0,127.0,116.0,89.0,-115.0
126.0,128.0,103.0,115.0,128.0,132.0,113.0,127.0,28.0,-103.0,-67.0,126.0,127.0,127.0,116.0,89.0,-115.0
126.0,128.0,103.0,115.0,128.0,131.0,113.0,127.0,28.0,-103.0,-67.0,126.0,127.0,127.0,116.0,89.0,-115.0
126.0,128.0,102.0,116.0,128.0,131.0,113.0,127.0,28.0,-103.0,-67.0,126.0,127.0,127.0,116.0,89.0,-115.0
127.0,129.0,102.0,116.0,128.0,131.0,114.0,127.0,28.0,-103.0,-67.0,126.0,127.0,127.0,116.0,89.0,-115.0
126.0,128.0,106.0,113.0,128.0,131.0,113.0,127.0,28.0,-103.0,-67.0,126.0,127.0,127.0,116.0,89.0,-115.0
126.0,128.0,106.0,113.0,128.0,131.0,113.0,127.0,28.0,-103.0,-67.0,126.0,127.0,127.0,116.0,89.0,-115.0
126.0,128.0,105.0,113.0,128.0,131.0,114.0,127.0,28.0,-103.0,-67.0,126.0,127.0,127.0,116.0,89.0,-115.0
127.0,129.0,103.0,113.0,127.0,129.0,110.0,127.0,28.0,-103.0,-66.0,126.0,127.0,127.0,116.0,89.0,-115.0
127.0,129.0,103.0,113.0,127.0,130.0,110.0,127.0,28.0,-103.0,-66.0,126.0,127.0,127.0,116.0,89.0,-115.0
127.0,129.0,103.0,113.0,127.0,130.0,110.0,127.0,28.0,-103.0,-66.0,126.0,127.0,127.0,116.0,89.0,-115.0
127.0,129.0,103.0,113.0,127.0,130.0,110.0,127.0,28.0,-103.0,-66.0,126.0,127.0,127.0,116.0,89.0,-115.0
127.0,129.0,104.0,113.0,127.0,130.0,110.0,127.0,28.0,-103.0,-66.0,126.0,127.0,127.0,116.0,89.0,-115.0
127.0,129.0,104.0,113.0,127.0,130.0,110.0,128.0,28.0,-103.0,-66.0,126.0,127.0,127.0,116.0,89.0,-115.0
127.0,128.0,103.0,112.0,126.0,129.0,110.0,127.0,28.0,-103.0,-66.0,126.0,127.0,127.0,116.0,89.0,-115.0
127.0,128.0,102.0,112.0,126.0,129.0,110.0,127.0,28.0,-103.0,-66.0,126.0,127.0,127.0,116.0,89.0,-115.0
127.0,128.0,102.0,112.0,126.0,129.0,110.0,127.0,28.0,-103.0,-66.0,126.0,127.0,127.0,116.0,89.0,-115.0
127.0,129.0,103.0,113.0,127.0,129.0,110.0,127.0,28.0,-103.0,-66.0,126.0,127.0,127.0,116.0,89.0,-115.0
127.0,129.0,122.0,117.0,127.0,129.0,110.0,128.0,27.0,-104.0,-66.0,126.0,127.0,127.0,116.0,89.0,-115.0
127.0,129.0,122.0,118.0,127.0,129.0,110.0,128.0,27.0,-104.0,-66.0,126.0,127.0,127.0,116.0,89.0,-115.0
127.0,129.0,122.0,118.0,127.0,130.0,110.0,128.0,27.0,-104.0,-66.0,126.0,127.0,127.0,116.0,89.0,-115.0
127.0,129.0,123.0,118.0,127.0,130.0,110.0,128.0,27.0,-104.0,-66.0,126.0,127.0,127.0,116.0,89.0,-115.0
127.0,129.0,123.0,118.0,128.0,130.0,110.0,128.0,27.0,-104.0,-66.0,126.0,127.0,127.0,116.0,89.0,-115.0
127.0,128.0,122.0,116.0,127.0,129.0,109.0,127.0,27.0,-104.0,-66.0,126.0,127.0,127.0,116.0,89.0,-115.0
127.0,128.0,122.0,116.0,127.0,129.0,109.0,127.0,27.0,-104.0,-66.0,126.0,127.0,127.0,116.0,89.0,-115.0
127.0,129.0,122.0,116.0,127.0,129.0,110.0,127.0,27.0,-104.0,-66.0,126.0,127.0,127.0,116.0,89.0,-115.0
127.0,129.0,122.0,117.0,127.0,129.0,110.0,127.0,27.0,-104.0,-66.0,126.0,127.0,127.0,116.0,89.0,-115.0
127.0,129.0,122.0,117.0,127.0,129.0,110.0,128.0,27.0,-104.0,-66.0,126.0,127.0,127.0,116.0,89.0,-115.0
127.0,129.0,139.0,122.0,127.0,130.0,110.0,128.0,27.0,-105.0,-66.0,126.0,127.0,127.0,116.0,89.0,-115.0
127.0,129.0,139.0,122.0,127.0,130.0,110.0,128.0,27.0,-105.0,-66.0,126.0,127.0,127.0,116.0,89.0,-115.0
127.0,129.0,139.0,123.0,128.0,130.0,110.0,128.0,27.0,-105.0,-66.0,126.0,127.0,127.0,116.0,89.0,-115.0
127.0,130.0,139.0,123.0,128.0,130.0,110.0,128.0,27.0,-105.0,-66.0,126.0,127.0,127.0,116.0,89.0,-115.0
127.0,128.0,139.0,120.0,127.0,129.0,110.0,128.0,27.0,-105.0,-66.0,126.0,127.0,127.0,116.0,89.0,-115.0
127.0,128.0,139.0,121.0,127.0,129.0,110.0,128.0,27.0,-105.0,-66.0,126.0,127.0,127.0,116.0,89.0,-115.0
127.0,129.0,139.0,121.0,127.0,129.0,110.0,128.0,27.0,-105.0,-66.0,126.0,127.0,127.0,116.0,89.0,-115.0
127.0,129.0,139.0,121.0,128.0,129.0,110.0,128.0,27.0,-105.0,-66.0,126.0,127.0,127.0,116.0,89.0,-115.0
127.0,129.0,139.0,122.0,128.0,130.0,110.0,128.0,27.0,-105.0,-66.0,126.0,127.0,127.0,116.0,89.0,-115.0
127.0,129.0,139.0,122.0,128.0,130.0,110.0,128.0,27.0,-105.0,-66.0,126.0,127.0,127.0,116.0,89.0,-115.0
127.0,129.0,140.0,126.0,127.0,129.0,109.0,128.0,27.0,-107.0,-67.0,126.0,127.0,127.0,116.0,89.0,-115.0
127.0,129.0,140.0,126.0,127.0,129.0,109.0,128.0,27.0,-107.0,-67.0,126.0,127.0,127.0,116.0,89.0,-115.0
127.0,129.0,140.0,127.0,127.0,129.0,109.0,128.0,27.0,-107.0,-67.0,126.0,127.0,127.0,116.0,89.0,-115.0
127.0,128.0,141.0,124.0,127.0,129.0,108.0,128.0,27.0,-107.0,-67.0,126.0,127.0,127.0,116.0,89.0,-115.0
127.0,128.0,141.0,125.0,127.0,129.0,108.0,128.0,27.0,-107.0,-67.0,126.0,127.0,127.0,116.0,89.0,-115.0
127.0,129.0,140.0,125.0,127.0,128.0,108.0,128.0,27.0,-107.0,-67.0,126.0,127.0,127.0,116.0,89.0,-115.0
127.0,129.0,140.0,125.0,127.0,129.0,108.0,128.0,27.0,-107.0,-67.0,126.0,127.0,127.0,116.0,89.0,-115.0
127.0,129.0,140.0,126.0,127.0,129.0,108.0,128.0,27.0,-107.0,-67.0,126.0,127.0,127.0,116.0,89.0,-115.0
127.0,129.0,140.0,126.0,127.0,129.0,109.0,128.0,27.0,-107.0,-67.0,126.0,127.0,127.0,116.0,89.0,-115.0
127.0,129.0,140.0,126.0,127.0,129.0,109.0,128.0,27.0,-107.0,-67.0,126.0,127.0,127.0,116.0,89.0,-115.0
127.0,129.0,139.0,129.0,128.0,129.0,108.0,128.0,28.0,-108.0,-67.0,126.0,127.0,127.0,116.0,89.0,-115.0
127.0,129.0,139.0,129.0,128.0,129.0,108.0,128.0,28.0,-108.0,-67.0,126.0,127.0,127.0,116.0,89.0,-115.0
127.0,128.0,141.0,127.0,127.0,128.0,108.0,127.0,28.0,-108.0,-67.0,126.0,127.0,127.0,116.0,89.0,-115.0
127.0,128.0,141.0,127.0,127.0,128.0,108.0,128.0,28.0,-108.0,-67.0,126.0,127.0,127.0,116.0,89.0,-115.0
127.0,128.0,141.0,128.0,128.0,128.0,108.0,128.0,28.0,-108.0,-67.0,126.0,127.0,127.0,116.0,89.0,-115.0
127.0,129.0,140.0,128.0,128.0,128.0,108.0,128.0,28.0,-108.0,-67.0,126.0,127.0,127.0,116.0,89.0,-115.0
127.0,129.0,140.0,128.0,128.0,128.0,109.0,128.0,28.0,-108.0,-67.0,126.0,127.0,127.0,116.0,89.0,-115.0
127.0,129.0,140.0,128.0,128.0,128.0,108.0,128.0,28.0,-108.0,-67.0,126.0,127.0,127.0,116.0,89.0,-115.0
127.0,129.0,140.0,129.0,128.0,128.0,108.0,128.0,28.0,-108.0,-67.0,126.0,127.0,127.0,116.0,89.0,-115.0
127.0,129.0,139.0,129.0,128.0,129.0,108.0,128.0,28.0,-108.0,-67.0,126.0,127.0,127.0,116.0,89.0,-115.0
127.0,129.0,143.0,130.0,128.0,128.0,108.0,128.0,28.0,-110.0,-67.0,126.0,127.0,127.0,116.0,89.0,-115.0
127.0,127.0,143.0,128.0,127.0,128.0,107.0,128.0,28.0,-110.0,-67.0,126.0,127.0,127.0,116.0,89.0,-115.0
127.0,128.0,143.0,128.0,127.0,128.0,108.0,128.0,28.0,-110.0,-67.0,126.0,127.0,127.0,116.0,89.0,-115.0
127.0,128.0,143.0,128.0,128.0,128.0,107.0,128.0,28.0,-110.0,-67.0,126.0,127.0,127.0,116.0,89.0,-115.0
127.0,129.0,143.0,129.0,128.0,128.0,107.0,128.0,28.0,-110.0,-67.0,126.0,127.0,127.0,116.0,89.0,-115.0
127.0,129.0,143.0,129.0,128.0,128.0,107.0,128.0,28.0,-110.0,-67.0,126.0,127.0,127.0,116.0,89.0,-115.0
127.0,129.0,143.0,129.0,128.0,128.0,108.0,128.0,28.0,-110.0,-67.0,126.0,127.0,127.0,116.0,89.0,-115.0
127.0,129.0,143.0,129.0,128.0,128.0,108.0,128.0,28.0,-110.0,-67.0,126.0,127.0,127.0,116.0,89.0,-115.0
127.0,129.0,143.0,129.0,128.0,128.0,108.0,128.0,28.0,-110.0,-67.0,126.0,127.0,127.0,116.0,89.0,-115.0
127.0,129.0,143.0,129.0,128.0,128.0,108.0,128.0,28.0,-110.0,-67.0,126.0,127.0,127.0,116.0,89.0,-115.0
127.0,128.0,140.0,128.0,127.0,127.0,107.0,128.0,29.0,-110.0,-67.0,126.0,127.0,127.0,116.0,89.0,-115.0
127.0,128.0,140.0,128.0,127.0,127.0,107.0,128.0,29.0,-110.0,-67.0,126.0,127.0,127.0,116.0,89.0,-115.0
127.0,128.0,139.0,128.0,127.0,127.0,106.0,128.0,29.0,-110.0,-67.0,126.0,127.0,127.0,116.0,89.0,-115.0
127.0,129.0,139.0,129.0,128.0,128.0,106.0,128.0,29.0,-110.0,-67.0,126.0,127.0,127.0,116.0,89.0,-115.0
127.0,129.0,139.0,129.0,128.0,128.0,107.0,128.0,29.0,-110.0,-67.0,126.0,127.0,127.0,116.0,89.0,-115.0
127.0,129.0,138.0,129.0,128.0,128.0,107.0,128.0,29.0,-110.0,-67.0,126.0,127.0,127.0,116.0,89.0,-115.0
127.0,129.0,138.0,129.0,128.0,128.0,108.0,128.0,29.0,-110.0,-67.0,126.0,127.0,127.0,116.0,89.0,-115.0
127.0,129.0,138.0,129.0,128.0,128.0,107.0,128.0,29.0,-110.0,-67.0,126.0,127.0,127.0,116.0,89.0,-115.0
127.0,129.0,137.0,130.0,128.0,128.0,107.0,128.0,29.0,-110.0,-67.0,126.0,127.0,127.0,116.0,89.0,-115.0
127.0,129.0,137.0,130.0,128.0,128.0,107.0,128.0,29.0,-110.0,-67.0,126.0,127.0,127.0,116.0,89.0,-115.0
127.0,128.0,131.0,128.0,127.0,128.0,106.0,128.0,29.0,-111.0,-67.0,127.0,127.0,127.0,116.0,89.0,-115.0
127.0,128.0,131.0,128.0,127.0,128.0,106.0,128.0,29.0,-111.0,-67.0,127.0,127.0,127.0,116.0,89.0,-115.0
127.0,128.0,131.0,129.0,127.0,128.0,107.0,128.0,29.0,-111.0,-67.0,127.0,127.0,127.0,116.0,89.0,-115.0
127.0,128.0,131.0,129.0,127.0,128.0,107.0,128.0,29.0,-111.0,-67.0,127.0,127.0,127.0,116.0,89.0,-115.0
127.0,129.0,131.0,129.0,128.0,128.0,108.0,128.0,29.0,-111.0,-67.0,127.0,127.0,127.0,116.0,89.0,-115.0
127.0,129.0,131.0,129.0,128.0,128.0,107.0,128.0,29.0,-111.0,-67.0,127.0,127.0,127.0,116.0,89.0,-115.0
127.0,129.0,130.0,129.0,128.0,128.0,107.0,128.0,29.0,-111.0,-67.0,127.0,127.0,127.0,116.0,89.0,-115.0
127.0,129.0,130.0,130.0,128.0,128.0,107.0,128.0,29.0,-111.0,-67.0,127.0,127.0,127.0,116.0,89.0,-115.0
127.0,129.0,130.0,130.0,128.0,128.0,107.0,128.0,29.0,-111.0,-67.0,127.0,127.0,127.0,116.0,89.0,-115.0
127.0,127.0,132.0,128.0,127.0,127.0,107.0,128.0,29.0,-111.0,-67.0,127.0,127.0,127.0,116.0,89.0,-115.0
127.0,128.0,127.0,129.0,128.0,128.0,106.0,128.0,30.0,-110.0,-67.0,127.0,127.0,127.0,116.0,89.0,-115.0
127.0,128.0,126.0,129.0,128.0,128.0,107.0,128.0,30.0,-110.0,-67.0,127.0,127.0,127.0,116.0,89.0,-115.0
127.0,128.0,126.0,130.0,128.0,128.0,107.0,128.0,30.0,-110.0,-67.0,127.0,127.0,127.0,116.0,89.0,-115.0
127.0,128.0,126.0,130.0,128.0,128.0,107.0,128.0,30.0,-110.0,-67.0,127.0,127.0,127.0,116.0,89.0,-115.0
127.0,129.0,125.0,130.0,128.0,128.0,107.0,128.0,30.0,-110.0,-67.0,127.0,127.0,127.0,116.0,89.0,-115.0
127.0,129.0,125.0,130.0,128.0,128.0,107.0,128.0,30.0,-110.0,-67.0,127.0,127.0,127.0,116.0,89.0,-115.0
127.0,129.0,125.0,130.0,128.0,128.0,108.0,128.0,30.0,-110.0,-67.0,127.0,127.0,127.0,116.0,89.0,-115.0
127.0,129.0,124.0,130.0,128.0,128.0,107.0,128.0,30.0,-110.0,-67.0,127.0,127.0,127.0,116.0,89.0,-115.0
126.0,128.0,127.0,129.0,128.0,127.0,107.0,127.0,30.0,-110.0,-67.0,127.0,127.0,127.0,116.0,89.0,-115.0
127.0,128.0,127.0,129.0,128.0,127.0,106.0,128.0,30.0,-110.0,-67.0,127.0,127.0,127.0,116.0,89.0,-115.0
127.0,128.0,125.0,129.0,127.0,128.0,107.0,128.0,30.0,-110.0,-67.0,127.0,127.0,127.0,116.0,89.0,-115.0
127.0,128.0,125.0,129.0,127.0,128.0,108.0,128.0,30.0,-110.0,-67.0,127.0,127.0,127.0,116.0,89.0,-115.0
127.0,128.0,125.0,129.0,127.0,128.0,107.0,128.0,30.0,-110.0,-67.0,127.0,127.0,127.0,116.0,89.0,-115.0
127.0,129.0,124.0,129.0,127.0,128.0,107.0,128.0,30.0,-110.0,-67.0,127.0,127.0,127.0,116.0,89.0,-115.0
127.0,129.0,124.0,130.0,128.0,128.0,107.0,128.0,30.0,-110.0,-67.0,127.0,127.0,127.0,116.0,89.0,-115.0
127.0,129.0,124.0,130.0,128.0,128.0,108.0,128.0,30.0,-110.0,-67.0,127.0,127.0,127.0,116.0,89.0,-115.0
127.0,129.0,124.0,130.0,128.0,128.0,108.0,128.0,30.0,-110.0,-67.0,127.0,127.0,127.0,116.0,89.0,-115.0
127.0,127.0,126.0,128.0,127.0,127.0,106.0,128.0,30.0,-110.0,-67.0,127.0,127.0,127.0,116.0,89.0,-115.0
127.0,128.0,126.0,128.0,127.0,128.0,106.0,128.0,30.0,-110.0,-67.0,127.0,127.0,127.0,116.0,89.0,-115.0
127.0,128.0,126.0,129.0,127.0,128.0,107.0,128.0,30.0,-110.0,-67.0,127.0,127.0,127.0,116.0,89.0,-115.0
127.0,128.0,126.0,130.0,127.0,128.0,108.0,128.0,29.0,-109.0,-66.0,127.0,127.0,127.0,116.0,89.0,-115.0
127.0,128.0,126.0,130.0,127.0,128.0,108.0,128.0,29.0,-109.0,-66.0,127.0,127.0,127.0,116.0,89.0,-115.0
127.0,128.0,126.0,130.0,128.0,128.0,107.0,128.0,29.0,-109.0,-66.0,127.0,127.0,127.0,116.0,89.0,-115.0
127.0,128.0,126.0,130.0,128.0,128.0,107.0,128.0,29.0,-109.0,-66.0,127.0,127.0,127.0,116.0,89.0,-115.0
127.0,128.0,125.0,130.0,128.0,128.0,107.0,128.0,29.0,-109.0,-66.0,127.0,127.0,127.0,116.0,89.0,-115.0
127.0,129.0,125.0,130.0,128.0,128.0,107.0,128.0,29.0,-109.0,-66.0,127.0,127.0,127.0,116.0,89.0,-115.0
127.0,127.0,127.0,129.0,127.0,128.0,106.0,128.0,29.0,-109.0,-66.0,127.0,127.0,127.0,116.0,89.0,-115.0
127.0,127.0,126.0,129.0,127.0,128.0,106.0,128.0,29.0,-109.0,-66.0,127.0,127.0,127.0,116.0,89.0,-115.0
127.0,128.0,126.0,130.0,127.0,128.0,107.0,128.0,29.0,-109.0,-66.0,127.0,127.0,127.0,116.0,89.0,-115.0
127.0,128.0,126.0,130.0,127.0,128.0,107.0,128.0,29.0,-109.0,-66.0,127.0,127.0,127.0,116.0,89.0,-115.0
127.0,128.0,129.0,130.0,127.0,128.0,107.0,128.0,29.0,-109.0,-66.0,127.0,127.0,127.0,116.0,89.0,-115.0
127.0,128.0,129.0,130.0,127.0,128.0,107.0,128.0,29.0,-109.0,-66.0,127.0,127.0,127.0,116.0,89.0,-115.0
127.0,129.0,129.0,130.0,127.0,128.0,107.0,128.0,29.0,-109.0,-66.0,127.0,127.0,127.0,116.0,89.0,-115.0
127.0,129.0,129.0,130.0,127.0,128.0,107.0,128.0,29.0,-109.0,-66.0,127.0,127.0,127.0,116.0,89.0,-115.0
127.0,129.0,129.0,130.0,127.0,128.0,108.0,129.0,29.0,-109.0,-66.0,127.0,127.0,127.0,116.0,89.0,-115.0
127.0,127.0,129.0,128.0,127.0,127.0,107.0,128.0,29.0,-109.0,-66.0,127.0,127.0,127.0,116.0,89.0,-115.0
127.0,127.0,129.0,129.0,127.0,127.0,106.0,128.0,29.0,-109.0,-66.0,127.0,127.0,127.0,116.0,89.0,-115.0
127.0,127.0,129.0,129.0,127.0,127.0,106.0,128.0,29.0,-109.0,-66.0,127.0,127.0,127.0,116.0,89.0,-115.0
127.0,128.0,129.0,129.0,127.0,127.0,106.0,128.0,29.0,-109.0,-66.0,127.0,127.0,127.0,116.0,89.0,-115.0
127.0,128.0,129.0,129.0,127.0,127.0,106.0,128.0,29.0,-109.0,-66.0,127.0,127.0,127.0,116.0,89.0,-115.0
127.0,128.0,128.0,129.0,127.0,128.0,107.0,128.0,28.0,-109.0,-66.0,127.0,127.0,127.0,116.0,89.0,-115.0
127.0,129.0,128.0,130.0,127.0,128.0,108.0,128.0,28.0,-109.0,-66.0,127.0,127.0,127.0,116.0,89.0,-115.0
127.0,129.0,128.0,130.0,128.0,128.0,108.0,128.0,28.0,-109.0,-66.0,127.0,127.0,127.0,116.0,89.0,-115.0
127.0,129.0,128.0,130.0,128.0,128.0,107.0,128.0,28.0,-109.0,-66.0,127.0,127.0,127.0,116.0,89.0,-115.0
127.0,127.0,130.0,128.0,127.0,127.0,106.0,128.0,28.0,-109.0,-66.0,127.0,127.0,127.0,116.0,89.0,-115.0
127.0,127.0,130.0,128.0,127.0,127.0,107.0,128.0,28.0,-109.0,-66.0,127.0,127.0,127.0,116.0,89.0,-115.0
127.0,128.0,129.0,129.0,127.0,127.0,106.0,128.0,28.0,-109.0,-66.0,127.0,127.0,127.0,116.0,89.0,-115.0
127.0,128.0,129.0,129.0,127.0,127.0,106.0,128.0,28.0,-109.0,-66.0,127.0,127.0,127.0,116.0,89.0,-115.0
127.0,128.0,129.0,129.0,127.0,127.0,106.0,128.0,28.0,-109.0,-66.0,127.0,127.0,127.0,116.0,89.0,-115.0
127.0,128.0,129.0,129.0,127.0,128.0,107.0,128.0,28.0,-109.0,-66.0,127.0,127.0,127.0,116.0,89.0,-115.0
127.0,128.0,126.0,129.0,127.0,128.0,106.0,129.0,28.0,-109.0,-66.0,127.0,127.0,127.0,116.0,89.0,-115.0
127.0,129.0,126.0,129.0,127.0,128.0,106.0,129.0,28.0,-109.0,-66.0,127.0,127.0,127.0,116.0,89.0,-115.0
127.0,129.0,126.0,129.0,127.0,128.0,107.0,129.0,28.0,-109.0,-66.0,127.0,127.0,127.0,116.0,89.0,-115.0
127.0,127.0,127.0,127.0,127.0,127.0,106.0,128.0,28.0,-109.0,-66.0,127.0,127.0,127.0,116.0,89.0,-115.0
127.0,127.0,127.0,128.0,127.0,127.0,106.0,128.0,28.0,-109.0,-66.0,127.0,127.0,127.0,116.0,89.0,-115.0
127.0,127.0,127.0,128.0,127.0,127.0,107.0,128.0,28.0,-109.0,-66.0,127.0,127.0,127.0,116.0,89.0,-115.0
127.0,127.0,127.0,128.0,127.0,127.0,107.0,128.0,28.0,-109.0,-66.0,127.0,127.0,127.0,116.0,89.0,-115.0
127.0,128.0,126.0,128.0,127.0,127.0,106.0,128.0,28.0,-109.0,-66.0,127.0,127.0,127.0,116.0,89.0,-115.0
127.0,128.0,126.0,129.0,127.0,127.0,106.0,128.0,28.0,-109.0,-66.0,127.0,127.0,127.0,116.0,89.0,-115.0
127.0,128.0,126.0,129.0,127.0,127.0,106.0,128.0,28.0,-109.0,-66.0,127.0,127.0,127.0,116.0,89.0,-115.0
127.0,129.0,127.0,130.0,128.0,128.0,108.0,128.0,28.0,-109.0,-66.0,127.0,127.0,127.0,116.0,89.0,-115.0
127.0,127.0,128.0,127.0,127.0,127.0,107.0,128.0,28.0,-109.0,-66.0,127.0,127.0,127.0,116.0,89.0,-115.0
127.0,127.0,128.0,128.0,127.0,127.0,106.0,128.0,28.0,-109.0,-66.0,127.0,127.0,127.0,116.0,89.0,-115.0
127.0,127.0,128.0,128.0,127.0,127.0,107.0,128.0,28.0,-109.0,-66.0,127.0,127.0,127.0,116.0,89.0,-115.0
127.0,127.0,128.0,128.0,127.0,127.0,107.0,128.0,28.0,-109.0,-66.0,127.0,127.0,127.0,116.0,89.0,-115.0
127.0,128.0,128.0,129.0,127.0,127.0,106.0,128.0,28.0,-109.0,-66.0,127.0,127.0,127.0,116.0,89.0,-115.0
127.0,128.0,127.0,129.0,127.0,128.0,107.0,128.0,28.0,-109.0,-66.0,127.0,127.0,127.0,116.0,89.0,-115.0
127.0,128.0,127.0,129.0,127.0,128.0,106.0,128.0,28.0,-109.0,-66.0,127.0,127.0,127.0,116.0,89.0,-115.0
127.0,129.0,127.0,129.0,128.0,128.0,107.0,128.0,28.0,-109.0,-66.0,127.0,127.0,127.0,116.0,89.0,-115.0
127.0,129.0,127.0,130.0,128.0,128.0,108.0,128.0,28.0,-109.0,-66.0,127.0,127.0,127.0,116.0,89.0,-115.0
127.0,127.0,126.0,128.0,126.0,127.0,108.0,128.0,28.0,-109.0,-66.0,127.0,127.0,127.0,116.0,89.0,-115.0
127.0,127.0,126.0,128.0,126.0,127.0,106.0,128.0,28.0,-109.0,-66.0,127.0,127.0,127.0,116.0,89.0,-115.0
127.0,127.0,126.0,128.0,127.0,127.0,106.0,128.0,28.0,-109.0,-66.0,127.0,127.0,127.0,116.0,89.0,-115.0
127.0,127.0,126.0,129.0,127.0,127.0,106.0,128.0,28.0,-109.0,-66.0,127.0,127.0,127.0,116.0,89.0,-115.0
127.0,128.0,126.0,129.0,127.0,127.0,106.0,128.0,28.0,-109.0,-66.0,127.0,127.0,127.0,116.0,89.0,-115.0
127.0,128.0,125.0,129.0,127.0,127.0,106.0,128.0,28.0,-109.0,-66.0,127.0,127.0,127.0,116.0,89.0,-115.0
127.0,128.0,125.0,129.0,127.0,127.0,106.0,128.0,28.0,-109.0,-66.0,127.0,127.0,127.0,116.0,89.0,-115.0
127.0,128.0,125.0,129.0,127.0,128.0,106.0,128.0,28.0,-109.0,-66.0,127.0,127.0,127.0,116.0,89.0,-115.0
127.0,129.0,125.0,130.0,127.0,128.0,107.0,128.0,28.0,-109.0,-66.0,127.0,127.0,127.0,116.0,89.0,-115.0
127.0,129.0,125.0,130.0,127.0,128.0,107.0,129.0,28.0,-109.0,-66.0,127.0,127.0,127.0,116.0,89.0,-115.0
127.0,127.0,126.0,127.0,127.0,127.0,106.0,128.0,28.0,-108.0,-66.0,127.0,127.0,127.0,116.0,89.0,-115.0
127.0,127.0,126.0,128.0,127.0,127.0,106.0,128.0,28.0,-108.0,-66.0,127.0,127.0,127.0,116.0,89.0,-115.0
127.0,127.0,125.0,128.0,127.0,127.0,106.0,128.0,28.0,-108.0,-66.0,127.0,127.0,127.0,116.0,89.0,-115.0
127.0,128.0,125.0,128.0,127.0,127.0,107.0,128.0,28.0,-108.0,-66.0,127.0,127.0,127.0,116.0,89.0,-115.0
127.0,128.0,125.0,129.0,127.0,127.0,106.0,128.0,28.0,-108.0,-66.0,127.0,127.0,127.0,116.0,89.0,-115.0
127.0,128.0,125.0,129.0,127.0,127.0,107.0,128.0,28.0,-108.0,-66.0,127.0,127.0,127.0,116.0,89.0,-115.0
127.0,129.0,125.0,129.0,128.0,128.0,106.0,128.0,28.0,-108.0,-66.0,127.0,127.0,127.0,116.0,89.0,-115.0
127.0,129.0,124.0,129.0,128.0,128.0,106.0,128.0,28.0,-108.0,-66.0,127.0,127.0,127.0,116.0,89.0,-115.0
127.0,129.0,124.0,129.0,128.0,128.0,106.0,128.0,28.0,-108.0,-66.0,127.0,127.0,127.0,116.0,89.0,-115.0
127.0,127.0,126.0,127.0,127.0,127.0,110.0,128.0,28.0,-108.0,-66.0,127.0,127.0,127.0,116.0,89.0,-115.0
127.0,128.0,126.0,128.0,127.0,127.0,107.0,128.0,28.0,-108.0,-66.0,126.0,127.0,127.0,116.0,89.0,-115.0
127.0,128.0,126.0,128.0,127.0,127.0,106.0,128.0,28.0,-108.0,-66.0,126.0,127.0,127.0,116.0,89.0,-115.0
127.0,128.0,126.0,128.0,127.0,127.0,107.0,128.0,28.0,-108.0,-66.0,126.0,127.0,127.0,116.0,89.0,-115.0
127.0,128.0,125.0,129.0,127.0,127.0,106.0,128.0,28.0,-108.0,-66.0,126.0,127.0,127.0,116.0,89.0,-115.0
127.0,129.0,125.0,129.0,127.0,127.0,107.0,128.0,28.0,-108.0,-66.0,126.0,127.0,127.0,116.0,89.0,-115.0
127.0,129.0,125.0,129.0,127.0,127.0,107.0,128.0,28.0,-108.0,-66.0,126.0,127.0,127.0,116.0,89.0,-115.0
127.0,129.0,125.0,129.0,128.0,128.0,106.0,128.0,28.0,-108.0,-66.0,126.0,127.0,127.0,116.0,89.0,-115.0
127.0,129.0,125.0,130.0,128.0,128.0,107.0,128.0,28.0,-108.0,-66.0,126.0,127.0,127.0,116.0,89.0,-115.0
127.0,127.0,126.0,127.0,127.0,127.0,112.0,128.0,28.0,-108.0,-66.0,126.0,127.0,127.0,116.0,89.0,-115.0
127.0,127.0,126.0,128.0,127.0,127.0,111.0,128.0,28.0,-108.0,-66.0,126.0,127.0,127.0,116.0,89.0,-115.0
127.0,127.0,126.0,129.0,127.0,127.0,107.0,128.0,28.0,-109.0,-66.0,126.0,127.0,127.0,116.0,89.0,-115.0
127.0,127.0,126.0,129.0,127.0,127.0,106.0,128.0,28.0,-109.0,-66.0,126.0,127.0,127.0,116.0,89.0,-115.0
127.0,128.0,126.0,129.0,127.0,128.0,106.0,128.0,28.0,-109.0,-66.0,126.0,127.0,127.0,116.0,89.0,-115.0
127.0,128.0,126.0,129.0,127.0,128.0,107.0,128.0,28.0,-109.0,-66.0,126.0,127.0,127.0,116.0,89.0,-115.0
127.0,128.0,126.0,129.0,127.0,128.0,107.0,129.0,28.0,-109.0,-66.0,126.0,127.0,127.0,116.0,89.0,-115.0
127.0,128.0,126.0,130.0,127.0,128.0,107.0,129.0,28.0,-109.0,-66.0,126.0,127.0,127.0,116.0,89.0,-115.0
127.0,128.0,125.0,130.0,127.0,128.0,107.0,129.0,28.0,-109.0,-66.0,126.0,127.0,127.0,116.0,89.0,-115.0
126.0,127.0,127.0,128.0,127.0,127.0,106.0,128.0,28.0,-109.0,-66.0,126.0,127.0,127.0,116.0,89.0,-115.0
126.0,127.0,127.0,128.0,127.0,127.0,106.0,128.0,28.0,-109.0,-66.0,126.0,127.0,127.0,116.0,89.0,-115.0
127.0,127.0,127.0,129.0,127.0,127.0,106.0,128.0,28.0,-109.0,-66.0,126.0,127.0,127.0,116.0,89.0,-115.0
127.0,127.0,125.0,128.0,127.0,127.0,107.0,128.0,29.0,-109.0,-66.0,126.0,127.0,127.0,116.0,89.0,-115.0
127.0,128.0,125.0,128.0,127.0,127.0,106.0,128.0,29.0,-109.0,-66.0,126.0,127.0,127.0,116.0,89.0,-115.0
127.0,128.0,125.0,128.0,127.0,127.0,106.0,128.0,29.0,-109.0,-66.0,126.0,127.0,127.0,116.0,89.0,-115.0
127.0,128.0,125.0,129.0,127.0,128.0,106.0,128.0,29.0,-109.0,-66.0,126.0,127.0,127.0,116.0,89.0,-115.0
127.0,128.0,124.0,129.0,127.0,128.0,106.0,128.0,29.0,-109.0,-66.0,126.0,127.0,127.0,116.0,89.0,-115.0
127.0,128.0,124.0,129.0,127.0,128.0,107.0,128.0,29.0,-109.0,-66.0,126.0,127.0,127.0,116.0,89.0,-115.0
127.0,127.0,126.0,127.0,127.0,127.0,112.0,128.0,29.0,-109.0,-66.0,126.0,127.0,127.0,116.0,89.0,-115.0
127.0,127.0,126.0,127.0,127.0,127.0,107.0,128.0,29.0,-109.0,-66.0,126.0,127.0,127.0,116.0,89.0,-115.0
127.0,127.0,126.0,127.0,127.0,127.0,106.0,128.0,29.0,-109.0,-66.0,126.0,127.0,127.0,116.0,89.0,-115.0
127.0,127.0,125.0,128.0,127.0,127.0,106.0,128.0,29.0,-109.0,-66.0,126.0,127.0,127.0,116.0,89.0,-115.0
127.0,128.0,125.0,128.0,127.0,127.0,106.0,128.0,29.0,-109.0,-66.0,126.0,127.0,127.0,116.0,89.0,-115.0
127.0,128.0,125.0,128.0,127.0,127.0,107.0,128.0,29.0,-109.0,-66.0,126.0,127.0,127.0,116.0,89.0,-115.0
127.0,128.0,125.0,128.0,127.0,127.0,107.0,128.0,29.0,-109.0,-66.0,126.0,127.0,127.0,116.0,89.0,-115.0
127.0,128.0,125.0,129.0,127.0,127.0,106.0,128.0,29.0,-109.0,-66.0,126.0,127.0,127.0,116.0,89.0,-115.0
127.0,128.0,125.0,129.0,127.0,128.0,106.0,128.0,29.0,-109.0,-66.0,126.0,127.0,127.0,116.0,89.0,-115.0
126.0,126.0,126.0,127.0,126.0,127.0,112.0,128.0,29.0,-109.0,-66.0,126.0,127.0,127.0,116.0,89.0,-115.0
126.0,127.0,126.0,127.0,126.0,127.0,107.0,128.0,29.0,-109.0,-66.0,126.0,127.0,127.0,116.0,89.0,-115.0
126.0,127.0,125.0,127.0,127.0,127.0,108.0,128.0,29.0,-109.0,-66.0,126.0,127.0,127.0,116.0,89.0,-115.0
126.0,127.0,125.0,127.0,127.0,127.0,108.0,128.0,29.0,-109.0,-66.0,126.0,127.0,127.0,116.0,89.0,-115.0
127.0,128.0,125.0,128.0,127.0,127.0,106.0,128.0,29.0,-109.0,-66.0,126.0,127.0,127.0,116.0,89.0,-115.0
127.0,128.0,126.0,129.0,127.0,127.0,107.0,128.0,29.0,-110.0,-66.0,126.0,127.0,127.0,116.0,89.0,-115.0
127.0,128.0,126.0,129.0,127.0,127.0,107.0,128.0,29.0,-110.0,-66.0,126.0,127.0,127.0,116.0,89.0,-115.0
127.0,129.0,125.0,129.0,127.0,128.0,106.0,128.0,29.0,-110.0,-66.0,126.0,127.0,127.0,116.0,89.0,-115.0
127.0,129.0,125.0,129.0,127.0,128.0,106.0,128.0,29.0,-110.0,-66.0,126.0,127.0,127.0,116.0,89.0,-115.0
126.0,127.0,127.0,127.0,127.0,127.0,112.0,128.0,29.0,-110.0,-66.0,126.0,127.0,127.0,116.0,89.0,-115.0
126.0,127.0,127.0,127.0,127.0,127.0,109.0,128.0,29.0,-110.0,-66.0,126.0,127.0,127.0,116.0,89.0,-115.0
126.0,127.0,127.0,128.0,127.0,127.0,106.0,128.0,29.0,-110.0,-66.0,126.0,127.0,127.0,116.0,89.0,-115.0
127.0,128.0,126.0,128.0,127.0,127.0,107.0,128.0,29.0,-110.0,-66.0,126.0,127.0,127.0,116.0,89.0,-115.0
127.0,128.0,126.0,128.0,127.0,127.0,106.0,128.0,29.0,-110.0,-66.0,126.0,127.0,127.0,116.0,89.0,-115.0
127.0,128.0,126.0,128.0,127.0,127.0,107.0,128.0,29.0,-110.0,-66.0,126.0,127.0,127.0,116.0,89.0,-115.0
127.0,128.0,125.0,128.0,128.0,128.0,107.0,128.0,30.0,-110.0,-66.0,126.0,127.0,127.0,116.0,89.0,-115.0
127.0,128.0,125.0,128.0,127.0,128.0,107.0,128.0,30.0,-110.0,-66.0,126.0,127.0,127.0,116.0,89.0,-115.0
127.0,128.0,125.0,128.0,128.0,128.0,108.0,128.0,30.0,-110.0,-66.0,126.0,127.0,127.0,116.0,89.0,-115.0
126.0,127.0,126.0,127.0,127.0,127.0,107.0,128.0,30.0,-110.0,-66.0,126.0,127.0,127.0,116.0,89.0,-115.0
126.0,127.0,126.0,127.0,127.0,127.0,107.0,128.0,30.0,-110.0,-66.0,126.0,127.0,127.0,116.0,89.0,-115.0
126.0,127.0,126.0,127.0,127.0,127.0,106.0,128.0,30.0,-110.0,-66.0,126.0,127.0,127.0,116.0,89.0,-115.0
127.0,128.0,126.0,127.0,127.0,127.0,106.0,128.0,30.0,-110.0,-66.0,126.0,127.0,127.0,116.0,89.0,-115.0
127.0,128.0,126.0,127.0,127.0,127.0,107.0,128.0,30.0,-110.0,-66.0,126.0,127.0,127.0,116.0,89.0,-115.0
127.0,128.0,125.0,128.0,127.0,127.0,106.0,128.0,30.0,-110.0,-66.0,126.0,127.0,127.0,116.0,89.0,-115.0
127.0,128.0,125.0,128.0,127.0,128.0,106.0,128.0,30.0,-110.0,-66.0,126.0,127.0,127.0,116.0,89.0,-115.0
127.0,128.0,125.0,128.0,127.0,128.0,107.0,128.0,30.0,-111.0,-66.0,126.0,127.0,127.0,116.0,89.0,-115.0
127.0,128.0,125.0,129.0,127.0,128.0,108.0,128.0,30.0,-111.0,-66.0,126.0,127.0,127.0,116.0,89.0,-115.0
126.0,127.0,126.0,127.0,127.0,127.0,106.0,128.0,30.0,-111.0,-66.0,126.0,127.0,127.0,116.0,89.0,-115.0
126.0,127.0,126.0,127.0,127.0,127.0,106.0,128.0,30.0,-111.0,-66.0,126.0,127.0,127.0,116.0,89.0,-115.0
126.0,127.0,126.0,127.0,127.0,127.0,107.0,128.0,30.0,-111.0,-66.0,126.0,127.0,127.0,116.0,89.0,-115.0
127.0,127.0,126.0,127.0,127.0,127.0,106.0,128.0,30.0,-111.0,-66.0,126.0,127.0,127.0,116.0,89.0,-115.0
127.0,128.0,126.0,128.0,127.0,127.0,107.0,128.0,30.0,-111.0,-66.0,126.0,127.0,127.0,116.0,89.0,-115.0
127.0,128.0,125.0,128.0,127.0,127.0,106.0,128.0,30.0,-111.0,-66.0,126.0,127.0,127.0,116.0,89.0,-115.0
127.0,128.0,125.0,128.0,127.0,128.0,106.0,128.0,30.0,-111.0,-66.0,126.0,127.0,127.0,116.0,89.0,-115.0
127.0,128.0,125.0,128.0,127.0,128.0,107.0,128.0,30.0,-111.0,-66.0,126.0,127.0,127.0,116.0,89.0,-115.0
127.0,128.0,125.0,129.0,127.0,128.0,107.0,128.0,31.0,-111.0,-66.0,126.0,127.0,127.0,116.0,89.0,-115.0
127.0,126.0,126.0,127.0,127.0,127.0,112.0,128.0,31.0,-111.0,-66.0,126.0,127.0,127.0,116.0,89.0,-115.0
127.0,127.0,126.0,127.0,127.0,127.0,108.0,128.0,31.0,-111.0,-66.0,126.0,127.0,127.0,116.0,89.0,-115.0
127.0,127.0,126.0,128.0,127.0,127.0,106.0,128.0,31.0,-111.0,-66.0,126.0,127.0,127.0,116.0,89.0,-115.0
127.0,127.0,126.0,128.0,127.0,127.0,106.0,128.0,31.0,-111.0,-66.0,126.0,127.0,127.0,116.0,89.0,-115.0
127.0,128.0,126.0,128.0,127.0,127.0,106.0,128.0,31.0,-111.0,-66.0,126.0,127.0,127.0,116.0,89.0,-115.0
127.0,128.0,126.0,128.0,127.0,127.0,107.0,128.0,31.0,-111.0,-66.0,126.0,127.0,127.0,116.0,89.0,-115.0
127.0,128.0,125.0,129.0,127.0,127.0,106.0,128.0,31.0,-111.0,-66.0,126.0,127.0,127.0,116.0,89.0,-115.0
127.0,128.0,125.0,129.0,127.0,128.0,106.0,128.0,31.0,-111.0,-66.0,126.0,127.0,127.0,116.0,89.0,-115.0
127.0,128.0,125.0,129.0,127.0,128.0,107.0,128.0,31.0,-111.0,-66.0,126.0,127.0,127.0,116.0,89.0,-115.0
126.0,126.0,127.0,126.0,127.0,127.0,112.0,127.0,31.0,-111.0,-66.0,126.0,127.0,127.0,116.0,89.0,-115.0
126.0,126.0,127.0,127.0,127.0,127.0,113.0,128.0,31.0,-111.0,-66.0,126.0,127.0,127.0,116.0,89.0,-115.0
126.0,127.0,127.0,127.0,127.0,127.0,111.0,128.0,31.0,-111.0,-66.0,126.0,127.0,127.0,116.0,89.0,-115.0
126.0,127.0,127.0,127.0,127.0,127.0,109.0,128.0,31.0,-111.0,-66.0,126.0,127.0,127.0,116.0,89.0,-115.0
127.0,127.0,127.0,127.0,127.0,127.0,108.0,128.0,31.0,-111.0,-66.0,126.0,127.0,127.0,116.0,89.0,-115.0
127.0,128.0,126.0,128.0,127.0,127.0,106.0,128.0,31.0,-111.0,-66.0,126.0,127.0,127.0,116.0,89.0,-115.0
127.0,128.0,126.0,128.0,127.0,127.0,106.0,128.0,31.0,-111.0,-66.0,126.0,127.0,127.0,116.0,89.0,-115.0
127.0,128.0,126.0,128.0,127.0,127.0,106.0,128.0,31.0,-111.0,-66.0,126.0,127.0,127.0,116.0,89.0,-115.0
127.0,129.0,126.0,128.0,127.0,127.0,107.0,128.0,31.0,-111.0,-66.0,126.0,127.0,127.0,116.0,89.0,-115.0
127.0,128.0,126.0,129.0,127.0,127.0,107.0,128.0,31.0,-111.0,-66.0,126.0,127.0,127.0,116.0,89.0,-115.0
126.0,127.0,126.0,127.0,127.0,127.0,113.0,128.0,31.0,-111.0,-65.0,127.0,127.0,127.0,116.0,89.0,-115.0
126.0,127.0,126.0,127.0,127.0,127.0,111.0,128.0,31.0,-111.0,-65.0,127.0,127.0,127.0,116.0,89.0,-115.0
126.0,127.0,126.0,127.0,127.0,127.0,106.0,128.0,31.0,-111.0,-65.0,127.0,127.0,127.0,116.0,89.0,-115.0
126.0,127.0,126.0,128.0,127.0,127.0,106.0,128.0,31.0,-111.0,-65.0,127.0,127.0,127.0,116.0,89.0,-115.0
127.0,127.0,126.0,128.0,127.0,127.0,107.0,128.0,31.0,-111.0,-65.0,127.0,127.0,127.0,116.0,89.0,-115.0
127.0,128.0,126.0,128.0,127.0,127.0,106.0,128.0,31.0,-111.0,-65.0,127.0,127.0,127.0,116.0,89.0,-115.0
127.0,128.0,126.0,129.0,127.0,128.0,106.0,128.0,31.0,-111.0,-65.0,127.0,127.0,127.0,116.0,89.0,-115.0
127.0,128.0,126.0,129.0,127.0,128.0,107.0,128.0,31.0,-111.0,-65.0,127.0,127.0,127.0,116.0,89.0,-115.0
127.0,128.0,125.0,129.0,127.0,128.0,107.0,129.0,31.0,-111.0,-65.0,127.0,127.0,127.0,116.0,89.0,-115.0
126.0,126.0,126.0,126.0,127.0,127.0,112.0,128.0,31.0,-111.0,-65.0,127.0,127.0,127.0,116.0,89.0,-115.0
126.0,127.0,127.0,127.0,126.0,127.0,113.0,128.0,31.0,-112.0,-65.0,127.0,127.0,127.0,116.0,89.0,-115.0
126.0,127.0,126.0,127.0,127.0,127.0,111.0,128.0,31.0,-112.0,-65.0,127.0,127.0,127.0,116.0,89.0,-115.0
126.0,127.0,126.0,127.0,127.0,127.0,107.0,128.0,31.0,-112.0,-65.0,127.0,127.0,127.0,116.0,89.0,-115.0
126.0,128.0,126.0,127.0,127.0,127.0,107.0,128.0,31.0,-112.0,-65.0,127.0,127.0,127.0,116.0,89.0,-115.0
127.0,128.0,125.0,128.0,127.0,127.0,106.0,128.0,31.0,-112.0,-65.0,127.0,127.0,127.0,116.0,89.0,-115.0
127.0,128.0,125.0,128.0,127.0,127.0,107.0,128.0,31.0,-112.0,-65.0,127.0,127.0,127.0,116.0,89.0,-115.0
127.0,128.0,125.0,128.0,127.0,128.0,106.0,128.0,31.0,-112.0,-65.0,127.0,127.0,127.0,116.0,89.0,-115.0
127.0,128.0,125.0,129.0,127.0,128.0,107.0,128.0,31.0,-112.0,-65.0,127.0,127.0,127.0,116.0,89.0,-115.0
126.0,126.0,127.0,126.0,126.0,127.0,112.0,127.0,31.0,-112.0,-65.0,127.0,127.0,127.0,116.0,89.0,-115.0
126.0,127.0,127.0,126.0,126.0,127.0,113.0,128.0,31.0,-112.0,-65.0,127.0,127.0,127.0,116.0,89.0,-115.0
126.0,127.0,127.0,127.0,127.0,127.0,109.0,128.0,32.0,-112.0,-65.0,127.0,127.0,127.0,116.0,89.0,-115.0
127.0,127.0,127.0,128.0,127.0,127.0,106.0,128.0,32.0,-112.0,-65.0,127.0,127.0,127.0,116.0,89.0,-115.0
127.0,128.0,126.0,128.0,127.0,127.0,106.0,128.0,32.0,-112.0,-65.0,127.0,127.0,127.0,116.0,89.0,-115.0
127.0,128.0,126.0,128.0,127.0,127.0,107.0,128.0,32.0,-112.0,-65.0,127.0,127.0,127.0,116.0,89.0,-115.0
127.0,128.0,126.0,128.0,127.0,127.0,106.0,128.0,32.0,-112.0,-65.0,127.0,127.0,127.0,116.0,89.0,-115.0
127.0,128.0,126.0,129.0,127.0,128.0,107.0,128.0,32.0,-112.0,-65.0,127.0,127.0,127.0,116.0,89.0,-115.0
127.0,128.0,126.0,129.0,127.0,128.0,107.0,128.0,32.0,-112.0,-65.0,127.0,127.0,127.0,116.0,89.0,-115.0
126.0,126.0,127.0,127.0,126.0,127.0,113.0,128.0,32.0,-112.0,-65.0,127.0,127.0,127.0,116.0,89.0,-115.0
126.0,127.0,127.0,127.0,127.0,127.0,113.0,128.0,32.0,-112.0,-65.0,127.0,127.0,127.0,116.0,89.0,-115.0
126.0,127.0,127.0,127.0,127.0,127.0,113.0,128.0,32.0,-112.0,-65.0,127.0,127.0,127.0,116.0,89.0,-115.0
127.0,127.0,126.0,127.0,127.0,127.0,107.0,128.0,32.0,-112.0,-64.0,127.0,127.0,127.0,117.0,89.0,-115.0
127.0,128.0,126.0,128.0,127.0,127.0,107.0,128.0,32.0,-112.0,-64.0,127.0,127.0,127.0,117.0,89.0,-115.0
127.0,128.0,126.0,128.0,127.0,127.0,107.0,128.0,32.0,-112.0,-64.0,127.0,127.0,127.0,117.0,89.0,-115.0
127.0,128.0,126.0,128.0,127.0,127.0,106.0,128.0,32.0,-112.0,-64.0,127.0,127.0,127.0,117.0,89.0,-115.0
127.0,128.0,126.0,129.0,127.0,128.0,107.0,128.0,32.0,-112.0,-64.0,127.0,127.0,127.0,117.0,89.0,-115.0
127.0,129.0,126.0,129.0,128.0,128.0,107.0,128.0,32.0,-112.0,-64.0,127.0,127.0,127.0,117.0,89.0,-115.0
126.0,126.0,127.0,126.0,127.0,127.0,114.0,128.0,32.0,-112.0,-64.0,127.0,127.0,127.0,117.0,89.0,-115.0
127.0,126.0,126.0,127.0,127.0,127.0,113.0,127.0,32.0,-112.0,-64.0,127.0,127.0,127.0,117.0,89.0,-115.0
127.0,127.0,126.0,127.0,127.0,127.0,113.0,128.0,32.0,-112.0,-64.0,127.0,127.0,127.0,117.0,89.0,-115.0
127.0,127.0,126.0,127.0,127.0,127.0,108.0,128.0,32.0,-112.0,-64.0,127.0,127.0,127.0,117.0,89.0,-115.0
126.0,127.0,126.0,127.0,127.0,127.0,107.0,128.0,32.0,-112.0,-64.0,127.0,127.0,127.0,117.0,89.0,-115.0
127.0,127.0,126.0,128.0,127.0,127.0,106.0,128.0,32.0,-112.0,-64.0,127.0,127.0,127.0,117.0,89.0,-115.0
127.0,128.0,126.0,128.0,127.0,127.0,106.0,128.0,32.0,-112.0,-64.0,127.0,127.0,127.0,117.0,89.0,-115.0
127.0,128.0,126.0,128.0,127.0,127.0,106.0,128.0,32.0,-112.0,-64.0,127.0,127.0,127.0,117.0,89.0,-115.0
127.0,128.0,126.0,128.0,128.0,128.0,106.0,128.0,32.0,-112.0,-64.0,127.0,127.0,127.0,117.0,89.0,-115.0
126.0,126.0,127.0,126.0,126.0,127.0,111.0,127.0,32.0,-112.0,-64.0,127.0,127.0,127.0,117.0,89.0,-115.0
126.0,126.0,127.0,126.0,127.0,127.0,111.0,127.0,32.0,-112.0,-64.0,127.0,127.0,127.0,117.0,89.0,-115.0
126.0,127.0,126.0,126.0,127.0,127.0,111.0,127.0,32.0,-112.0,-64.0,127.0,127.0,127.0,117.0,89.0,-115.0
126.0,127.0,126.0,127.0,127.0,127.0,107.0,128.0,32.0,-112.0,-64.0,127.0,127.0,127.0,117.0,89.0,-115.0
126.0,127.0,126.0,127.0,127.0,127.0,106.0,128.0,32.0,-112.0,-64.0,127.0,127.0,127.0,117.0,89.0,-115.0
127.0,127.0,127.0,128.0,127.0,127.0,106.0,128.0,32.0,-112.0,-64.0,127.0,127.0,127.0,117.0,89.0,-115.0
127.0,128.0,127.0,128.0,127.0,127.0,106.0,128.0,32.0,-112.0,-64.0,127.0,127.0,127.0,117.0,89.0,-115.0
127.0,128.0,127.0,128.0,127.0,127.0,106.0,128.0,32.0,-112.0,-64.0,127.0,127.0,127.0,117.0,89.0,-115.0
127.0,128.0,126.0,128.0,127.0,128.0,107.0,128.0,32.0,-112.0,-64.0,127.0,127.0,127.0,117.0,89.0,-115.0
126.0,126.0,128.0,126.0,127.0,127.0,113.0,127.0,32.0,-112.0,-64.0,127.0,127.0,127.0,117.0,89.0,-115.0
126.0,126.0,128.0,127.0,127.0,127.0,113.0,127.0,32.0,-112.0,-64.0,127.0,127.0,127.0,117.0,89.0,-115.0
126.0,127.0,127.0,127.0,127.0,127.0,112.0,128.0,32.0,-112.0,-64.0,127.0,127.0,127.0,117.0,89.0,-115.0
127.0,127.0,127.0,127.0,127.0,127.0,108.0,128.0,32.0,-112.0,-64.0,127.0,127.0,127.0,117.0,89.0,-115.0
127.0,127.0,127.0,127.0,127.0,127.0,106.0,128.0,32.0,-112.0,-64.0,127.0,127.0,127.0,117.0,89.0,-115.0
127.0,127.0,127.0,127.0,127.0,127.0,107.0,128.0,32.0,-112.0,-64.0,127.0,127.0,127.0,117.0,89.0,-115.0
127.0,128.0,126.0,128.0,127.0,127.0,107.0,128.0,32.0,-112.0,-63.0,127.0,127.0,127.0,117.0,89.0,-115.0
127.0,128.0,126.0,128.0,127.0,127.0,107.0,128.0,32.0,-112.0,-63.0,127.0,127.0,127.0,117.0,89.0,-115.0
127.0,128.0,126.0,128.0,127.0,127.0,106.0,128.0,32.0,-112.0,-63.0,127.0,127.0,127.0,117.0,89.0,-115.0
126.0,126.0,127.0,126.0,126.0,127.0,113.0,128.0,32.0,-112.0,-63.0,127.0,127.0,127.0,117.0,89.0,-115.0
126.0,126.0,127.0,126.0,126.0,127.0,113.0,128.0,32.0,-112.0,-63.0,127.0,127.0,127.0,117.0,89.0,-115.0
126.0,127.0,127.0,126.0,126.0,127.0,113.0,128.0,32.0,-112.0,-63.0,127.0,127.0,127.0,117.0,89.0,-115.0
126.0,127.0,127.0,127.0,126.0,127.0,113.0,128.0,32.0,-112.0,-63.0,127.0,127.0,127.0,117.0,89.0,-115.0
127.0,127.0,127.0,127.0,126.0,127.0,110.0,128.0,32.0,-112.0,-63.0,127.0,127.0,127.0,117.0,89.0,-115.0
127.0,127.0,127.0,127.0,126.0,127.0,106.0,128.0,32.0,-112.0,-63.0,127.0,127.0,127.0,117.0,89.0,-115.0
127.0,127.0,126.0,127.0,127.0,127.0,106.0,128.0,32.0,-112.0,-63.0,127.0,127.0,127.0,117.0,89.0,-115.0
127.0,128.0,126.0,128.0,127.0,127.0,106.0,128.0,32.0,-113.0,-63.0,127.0,127.0,127.0,118.0,89.0,-115.0
127.0,129.0,126.0,128.0,127.0,127.0,107.0,128.0,32.0,-113.0,-63.0,127.0,127.0,127.0,118.0,89.0,-115.0
126.0,126.0,127.0,126.0,126.0,127.0,113.0,128.0,32.0,-113.0,-63.0,127.0,127.0,127.0,118.0,89.0,-115.0
126.0,126.0,127.0,127.0,126.0,127.0,113.0,128.0,32.0,-113.0,-63.0,127.0,127.0,127.0,118.0,89.0,-115.0
126.0,127.0,127.0,127.0,127.0,127.0,113.0,128.0,32.0,-113.0,-63.0,127.0,127.0,127.0,118.0,89.0,-115.0
127.0,127.0,127.0,127.0,127.0,127.0,113.0,128.0,32.0,-113.0,-63.0,127.0,127.0,127.0,118.0,89.0,-115.0
127.0,127.0,127.0,127.0,127.0,127.0,108.0,128.0,32.0,-113.0,-63.0,127.0,127.0,127.0,118.0,89.0,-115.0
127.0,127.0,127.0,127.0,127.0,127.0,106.0,128.0,32.0,-113.0,-63.0,127.0,127.0,127.0,118.0,89.0,-115.0
127.0,128.0,126.0,128.0,127.0,127.0,106.0,128.0,32.0,-113.0,-63.0,127.0,127.0,127.0,118.0,89.0,-115.0
127.0,128.0,126.0,128.0,127.0,127.0,106.0,128.0,32.0,-113.0,-63.0,127.0,127.0,127.0,118.0,89.0,-115.0
127.0,128.0,126.0,128.0,127.0,127.0,106.0,128.0,32.0,-113.0,-63.0,127.0,127.0,127.0,118.0,89.0,-115.0
126.0,126.0,128.0,127.0,126.0,127.0,113.0,128.0,32.0,-113.0,-63.0,127.0,127.0,127.0,118.0,89.0,-115.0
126.0,126.0,128.0,127.0,126.0,127.0,113.0,128.0,32.0,-113.0,-63.0,127.0,127.0,127.0,118.0,89.0,-115.0
126.0,126.0,128.0,127.0,126.0,127.0,113.0,128.0,32.0,-113.0,-63.0,127.0,127.0,127.0,118.0,89.0,-115.0
126.0,126.0,127.0,127.0,126.0,127.0,111.0,128.0,32.0,-113.0,-63.0,127.0,127.0,127.0,118.0,89.0,-115.0
126.0,127.0,127.0,127.0,126.0,127.0,106.0,128.0,32.0,-113.0,-63.0,127.0,127.0,127.0,118.0,89.0,-115.0
126.0,127.0,127.0,128.0,126.0,127.0,106.0,128.0,32.0,-113.0,-63.0,127.0,127.0,127.0,118.0,89.0,-115.0
126.0,127.0,127.0,128.0,126.0,127.0,106.0,128.0,32.0,-113.0,-63.0,127.0,127.0,127.0,118.0,89.0,-115.0
127.0,127.0,127.0,128.0,127.0,127.0,107.0,128.0,32.0,-113.0,-63.0,127.0,127.0,127.0,118.0,89.0,-115.0
127.0,127.0,127.0,128.0,127.0,127.0,106.0,128.0,32.0,-113.0,-63.0,127.0,127.0,127.0,118.0,89.0,-115.0
126.0,125.0,127.0,125.0,126.0,127.0,113.0,127.0,33.0,-112.0,-63.0,127.0,127.0,127.0,118.0,89.0,-115.0
126.0,126.0,127.0,125.0,126.0,127.0,113.0,128.0,33.0,-112.0,-63.0,127.0,127.0,127.0,118.0,89.0,-115.0
126.0,126.0,127.0,126.0,126.0,127.0,113.0,127.0,33.0,-112.0,-63.0,127.0,127.0,127.0,118.0,89.0,-115.0
126.0,126.0,127.0,126.0,127.0,127.0,113.0,128.0,33.0,-112.0,-63.0,127.0,127.0,127.0,118.0,89.0,-115.0
126.0,127.0,127.0,126.0,127.0,127.0,109.0,128.0,33.0,-112.0,-63.0,127.0,127.0,127.0,118.0,89.0,-115.0
126.0,127.0,127.0,126.0,127.0,127.0,106.0,128.0,33.0,-112.0,-63.0,127.0,127.0,127.0,118.0,89.0,-115.0
126.0,127.0,126.0,127.0,127.0,127.0,106.0,128.0,33.0,-112.0,-63.0,127.0,127.0,127.0,118.0,89.0,-115.0
127.0,127.0,126.0,127.0,127.0,127.0,106.0,128.0,33.0,-112.0,-63.0,127.0,127.0,127.0,118.0,89.0,-115.0
126.0,128.0,126.0,128.0,127.0,127.0,106.0,128.0,33.0,-112.0,-63.0,127.0,127.0,127.0,118.0,89.0,-115.0
127.0,128.0,126.0,128.0,127.0,127.0,106.0,128.0,33.0,-112.0,-63.0,127.0,127.0,127.0,118.0,89.0,-115.0
126.0,126.0,127.0,127.0,126.0,127.0,107.0,127.0,34.0,-112.0,-63.0,127.0,127.0,127.0,118.0,89.0,-115.0
126.0,126.0,127.0,127.0,127.0,127.0,107.0,127.0,34.0,-112.0,-63.0,127.0,127.0,127.0,118.0,89.0,-115.0
126.0,127.0,127.0,127.0,127.0,127.0,109.0,127.0,34.0,-112.0,-63.0,127.0,127.0,127.0,118.0,89.0,-115.0
126.0,127.0,127.0,127.0,127.0,127.0,107.0,128.0,34.0,-112.0,-63.0,127.0,127.0,127.0,118.0,89.0,-115.0
127.0,127.0,126.0,127.0,127.0,127.0,107.0,128.0,34.0,-112.0,-63.0,127.0,127.0,127.0,118.0,89.0,-115.0
127.0,127.0,126.0,128.0,127.0,127.0,107.0,128.0,34.0,-112.0,-63.0,127.0,127.0,127.0,118.0,89.0,-115.0
127.0,128.0,126.0,128.0,127.0,127.0,107.0,128.0,34.0,-112.0,-63.0,127.0,127.0,127.0,118.0,89.0,-115.0
127.0,128.0,126.0,128.0,127.0,128.0,107.0,128.0,34.0,-112.0,-63.0,127.0,127.0,127.0,118.0,89.0,-115.0
127.0,128.0,126.0,129.0,127.0,128.0,107.0,128.0,34.0,-112.0,-63.0,127.0,127.0,127.0,118.0,89.0,-115.0
126.0,126.0,127.0,126.0,126.0,127.0,110.0,127.0,34.0,-112.0,-63.0,127.0,127.0,127.0,118.0,89.0,-115.0
126.0,126.0,128.0,127.0,126.0,127.0,106.0,128.0,34.0,-112.0,-63.0,127.0,127.0,127.0,118.0,89.0,-115.0
126.0,126.0,127.0,127.0,126.0,127.0,106.0,128.0,34.0,-112.0,-63.0,127.0,127.0,127.0,118.0,89.0,-115.0
126.0,127.0,127.0,127.0,126.0,127.0,107.0,128.0,34.0,-112.0,-63.0,127.0,127.0,127.0,118.0,89.0,-115.0
126.0,127.0,127.0,127.0,126.0,127.0,107.0,128.0,34.0,-112.0,-63.0,127.0,127.0,127.0,118.0,89.0,-115.0
127.0,127.0,127.0,127.0,126.0,127.0,106.0,128.0,34.0,-112.0,-63.0,127.0,127.0,127.0,118.0,89.0,-115.0
127.0,127.0,127.0,128.0,127.0,128.0,106.0,128.0,34.0,-112.0,-63.0,127.0,127.0,127.0,118.0,89.0,-115.0
127.0,127.0,127.0,128.0,127.0,128.0,107.0,128.0,34.0,-112.0,-63.0,127.0,127.0,127.0,118.0,89.0,-115.0
127.0,128.0,127.0,128.0,127.0,128.0,107.0,128.0,34.0,-112.0,-63.0,127.0,127.0,127.0,118.0,89.0,-115.0
126.0,126.0,128.0,126.0,126.0,127.0,106.0,127.0,34.0,-112.0,-63.0,127.0,127.0,127.0,118.0,89.0,-115.0
126.0,126.0,128.0,126.0,126.0,127.0,106.0,128.0,34.0,-112.0,-63.0,127.0,127.0,127.0,118.0,89.0,-115.0
127.0,127.0,127.0,127.0,127.0,127.0,113.0,128.0,35.0,-113.0,-63.0,127.0,127.0,127.0,118.0,89.0,-115.0
127.0,127.0,127.0,127.0,127.0,127.0,113.0,128.0,35.0,-113.0,-63.0,127.0,127.0,127.0,118.0,89.0,-115.0
127.0,127.0,126.0,127.0,127.0,127.0,110.0,128.0,35.0,-113.0,-63.0,127.0,127.0,127.0,118.0,89.0,-115.0
127.0,127.0,126.0,127.0,127.0,127.0,107.0,128.0,35.0,-113.0,-63.0,127.0,127.0,127.0,118.0,89.0,-115.0
127.0,127.0,126.0,128.0,127.0,127.0,106.0,128.0,35.0,-113.0,-63.0,127.0,127.0,127.0,118.0,89.0,-115.0
127.0,128.0,126.0,128.0,127.0,127.0,107.0,128.0,35.0,-113.0,-63.0,127.0,127.0,127.0,118.0,89.0,-115.0
127.0,128.0,126.0,128.0,127.0,127.0,107.0,128.0,35.0,-113.0,-63.0,127.0,127.0,127.0,118.0,89.0,-115.0
126.0,126.0,127.0,126.0,126.0,127.0,113.0,127.0,35.0,-113.0,-63.0,127.0,127.0,127.0,118.0,89.0,-115.0
126.0,126.0,127.0,126.0,126.0,127.0,113.0,127.0,35.0,-113.0,-63.0,127.0,127.0,127.0,118.0,89.0,-115.0
126.0,126.0,127.0,127.0,126.0,127.0,113.0,127.0,35.0,-113.0,-63.0,127.0,127.0,127.0,118.0,89.0,-115.0
127.0,127.0,127.0,127.0,127.0,127.0,112.0,127.0,35.0,-113.0,-63.0,127.0,127.0,127.0,118.0,89.0,-115.0
127.0,127.0,127.0,127.0,127.0,127.0,107.0,128.0,35.0,-113.0,-63.0,127.0,127.0,127.0,118.0,89.0,-115.0
127.0,127.0,127.0,127.0,127.0,127.0,106.0,128.0,35.0,-113.0,-63.0,127.0,127.0,127.0,118.0,89.0,-115.0
127.0,128.0,127.0,128.0,127.0,127.0,106.0,128.0,35.0,-113.0,-63.0,127.0,127.0,127.0,118.0,89.0,-115.0
127.0,128.0,127.0,128.0,127.0,127.0,106.0,128.0,35.0,-113.0,-63.0,127.0,127.0,127.0,118.0,89.0,-115.0
127.0,128.0,126.0,128.0,127.0,127.0,106.0,128.0,35.0,-113.0,-63.0,127.0,127.0,127.0,118.0,89.0,-115.0
126.0,126.0,128.0,126.0,126.0,127.0,113.0,127.0,35.0,-113.0,-63.0,127.0,127.0,127.0,118.0,89.0,-115.0
126.0,126.0,128.0,126.0,127.0,127.0,113.0,127.0,35.0,-113.0,-63.0,127.0,127.0,127.0,118.0,89.0,-115.0
126.0,126.0,127.0,126.0,127.0,127.0,113.0,127.0,35.0,-113.0,-63.0,127.0,127.0,127.0,118.0,89.0,-115.0
126.0,127.0,127.0,126.0,127.0,127.0,113.0,127.0,35.0,-113.0,-63.0,127.0,127.0,127.0,118.0,89.0,-115.0
126.0,127.0,126.0,126.0,127.0,127.0,113.0,128.0,35.0,-112.0,-63.0,127.0,127.0,127.0,118.0,89.0,-115.0
126.0,127.0,126.0,126.0,127.0,127.0,113.0,128.0,35.0,-112.0,-63.0,127.0,127.0,127.0,118.0,89.0,-115.0
126.0,127.0,126.0,127.0,127.0,127.0,111.0,128.0,35.0,-112.0,-63.0,127.0,127.0,127.0,118.0,89.0,-115.0
127.0,128.0,126.0,127.0,127.0,127.0,107.0,128.0,35.0,-112.0,-63.0,127.0,127.0,127.0,118.0,89.0,-115.0
127.0,128.0,126.0,127.0,127.0,127.0,106.0,128.0,35.0,-112.0,-63.0,127.0,127.0,127.0,118.0,89.0,-115.0
126.0,126.0,127.0,125.0,126.0,127.0,112.0,127.0,35.0,-112.0,-63.0,127.0,127.0,127.0,118.0,89.0,-115.0
126.0,126.0,127.0,125.0,126.0,127.0,112.0,127.0,35.0,-112.0,-63.0,127.0,127.0,127.0,118.0,89.0,-115.0
126.0,126.0,127.0,126.0,126.0,127.0,112.0,127.0,35.0,-112.0,-63.0,127.0,127.0,127.0,118.0,89.0,-115.0
126.0,127.0,126.0,126.0,126.0,127.0,112.0,128.0,35.0,-112.0,-63.0,127.0,127.0,127.0,118.0,89.0,-115.0
126.0,127.0,126.0,126.0,127.0,127.0,112.0,128.0,35.0,-112.0,-63.0,127.0,127.0,127.0,118.0,89.0,-115.0
127.0,127.0,127.0,126.0,127.0,127.0,106.0,128.0,35.0,-112.0,-63.0,127.0,127.0,127.0,118.0,89.0,-115.0
127.0,127.0,127.0,127.0,127.0,127.0,106.0,128.0,35.0,-112.0,-63.0,127.0,127.0,127.0,118.0,89.0,-115.0
127.0,128.0,126.0,127.0,127.0,127.0,107.0,128.0,35.0,-112.0,-63.0,127.0,127.0,127.0,118.0,89.0,-115.0
127.0,128.0,126.0,127.0,127.0,127.0,107.0,128.0,35.0,-112.0,-63.0,127.0,127.0,127.0,118.0,89.0,-115.0
127.0,126.0,127.0,125.0,127.0,127.0,112.0,128.0,35.0,-112.0,-63.0,127.0,127.0,127.0,118.0,89.0,-115.0
127.0,126.0,127.0,126.0,127.0,127.0,113.0,128.0,35.0,-112.0,-63.0,127.0,127.0,127.0,118.0,89.0,-115.0
127.0,126.0,127.0,126.0,127.0,127.0,113.0,128.0,35.0,-112.0,-63.0,127.0,127.0,127.0,118.0,89.0,-115.0
127.0,127.0,127.0,126.0,127.0,127.0,113.0,128.0,35.0,-112.0,-63.0,127.0,127.0,127.0,118.0,89.0,-115.0
127.0,127.0,127.0,126.0,127.0,127.0,113.0,128.0,35.0,-112.0,-63.0,127.0,127.0,127.0,118.0,89.0,-115.0
127.0,127.0,127.0,126.0,127.0,127.0,111.0,128.0,35.0,-112.0,-63.0,127.0,127.0,127.0,118.0,89.0,-115.0
127.0,127.0,127.0,127.0,127.0,127.0,109.0,128.0,35.0,-112.0,-63.0,127.0,127.0,127.0,118.0,89.0,-115.0
127.0,128.0,127.0,127.0,127.0,127.0,107.0,128.0,35.0,-112.0,-63.0,127.0,127.0,127.0,118.0,89.0,-115.0
127.0,128.0,127.0,127.0,127.0,127.0,106.0,128.0,35.0,-112.0,-63.0,127.0,127.0,127.0,118.0,89.0,-115.0
126.0,126.0,128.0,126.0,126.0,127.0,112.0,127.0,35.0,-112.0,-63.0,127.0,127.0,127.0,118.0,89.0,-115.0
126.0,126.0,128.0,126.0,126.0,127.0,113.0,127.0,35.0,-112.0,-63.0,127.0,127.0,127.0,118.0,89.0,-115.0
126.0,126.0,128.0,126.0,127.0,127.0,113.0,127.0,35.0,-112.0,-63.0,127.0,127.0,127.0,118.0,89.0,-115.0
126.0,126.0,128.0,126.0,127.0,127.0,113.0,127.0,35.0,-112.0,-63.0,127.0,127.0,127.0,118.0,89.0,-115.0
126.0,126.0,127.0,126.0,127.0,127.0,112.0,128.0,35.0,-112.0,-63.0,127.0,127.0,127.0,118.0,89.0,-115.0
126.0,127.0,127.0,127.0,127.0,127.0,111.0,128.0,35.0,-112.0,-63.0,127.0,127.0,127.0,118.0,89.0,-115.0
126.0,127.0,127.0,127.0,127.0,127.0,109.0,128.0,35.0,-112.0,-63.0,127.0,127.0,127.0,118.0,89.0,-115.0
127.0,127.0,126.0,127.0,127.0,127.0,107.0,128.0,35.0,-111.0,-62.0,127.0,127.0,127.0,118.0,89.0,-115.0
127.0,128.0,126.0,127.0,127.0,127.0,107.0,128.0,35.0,-111.0,-62.0,127.0,127.0,127.0,118.0,89.0,-115.0
126.0,126.0,128.0,125.0,126.0,126.0,112.0,127.0,35.0,-111.0,-62.0,127.0,127.0,127.0,118.0,89.0,-115.0
126.0,126.0,128.0,125.0,126.0,127.0,112.0,127.0,35.0,-111.0,-62.0,127.0,127.0,127.0,118.0,89.0,-115.0
126.0,126.0,127.0,126.0,127.0,127.0,112.0,127.0,35.0,-111.0,-62.0,127.0,127.0,127.0,118.0,89.0,-115.0
127.0,127.0,127.0,126.0,127.0,127.0,113.0,127.0,35.0,-111.0,-62.0,127.0,127.0,127.0,118.0,89.0,-115.0
127.0,127.0,127.0,126.0,127.0,127.0,113.0,128.0,35.0,-111.0,-62.0,127.0,127.0,127.0,118.0,89.0,-115.0
127.0,127.0,127.0,126.0,127.0,127.0,113.0,128.0,35.0,-111.0,-62.0,127.0,127.0,127.0,118.0,89.0,-115.0
127.0,127.0,127.0,127.0,127.0,127.0,107.0,128.0,35.0,-111.0,-62.0,127.0,127.0,127.0,118.0,89.0,-115.0
127.0,127.0,127.0,127.0,127.0,127.0,106.0,128.0,35.0,-111.0,-62.0,127.0,127.0,127.0,118.0,89.0,-115.0
127.0,127.0,126.0,127.0,127.0,127.0,106.0,128.0,35.0,-111.0,-62.0,127.0,127.0,127.0,118.0,89.0,-115.0
126.0,126.0,128.0,125.0,126.0,126.0,112.0,127.0,35.0,-111.0,-62.0,127.0,127.0,127.0,118.0,89.0,-115.0
126.0,126.0,127.0,125.0,127.0,127.0,112.0,127.0,35.0,-111.0,-62.0,127.0,127.0,127.0,118.0,89.0,-115.0
126.0,127.0,127.0,125.0,127.0,127.0,112.0,127.0,35.0,-111.0,-62.0,127.0,127.0,127.0,118.0,89.0,-115.0
126.0,127.0,127.0,126.0,127.0,127.0,113.0,127.0,35.0,-111.0,-62.0,127.0,127.0,127.0,118.0,89.0,-115.0
126.0,127.0,127.0,126.0,127.0,127.0,113.0,127.0,35.0,-111.0,-62.0,127.0,127.0,127.0,118.0,89.0,-115.0
126.0,127.0,127.0,126.0,127.0,127.0,113.0,127.0,35.0,-111.0,-62.0,127.0,127.0,127.0,118.0,89.0,-115.0
126.0,127.0,127.0,126.0,127.0,127.0,112.0,127.0,35.0,-111.0,-62.0,127.0,127.0,127.0,118.0,89.0,-115.0
127.0,127.0,126.0,126.0,127.0,127.0,108.0,128.0,35.0,-111.0,-62.0,127.0,127.0,127.0,118.0,89.0,-115.0
126.0,127.0,126.0,127.0,127.0,127.0,106.0,128.0,35.0,-111.0,-62.0,127.0,127.0,127.0,118.0,89.0,-115.0
126.0,126.0,127.0,125.0,127.0,126.0,112.0,127.0,35.0,-111.0,-62.0,127.0,127.0,127.0,118.0,89.0,-115.0
126.0,126.0,127.0,125.0,127.0,126.0,112.0,127.0,35.0,-111.0,-62.0,127.0,127.0,127.0,118.0,89.0,-115.0
126.0,126.0,127.0,126.0,127.0,126.0,112.0,127.0,35.0,-111.0,-62.0,127.0,127.0,127.0,118.0,89.0,-115.0
126.0,126.0,127.0,126.0,127.0,126.0,113.0,127.0,35.0,-111.0,-62.0,127.0,127.0,127.0,118.0,89.0,-115.0
126.0,127.0,127.0,126.0,127.0,127.0,112.0,127.0,35.0,-111.0,-62.0,127.0,127.0,127.0,118.0,89.0,-115.0
126.0,127.0,127.0,127.0,127.0,127.0,112.0,127.0,35.0,-111.0,-62.0,127.0,127.0,127.0,118.0,89.0,-115.0
127.0,127.0,127.0,127.0,127.0,127.0,113.0,127.0,35.0,-111.0,-62.0,127.0,127.0,127.0,118.0,89.0,-115.0
127.0,127.0,127.0,127.0,127.0,127.0,112.0,128.0,35.0,-111.0,-62.0,127.0,127.0,127.0,118.0,89.0,-115.0
127.0,127.0,127.0,127.0,127.0,127.0,107.0,128.0,35.0,-111.0,-62.0,127.0,127.0,127.0,118.0,89.0,-115.0
127.0,127.0,127.0,128.0,127.0,127.0,106.0,128.0,35.0,-111.0,-62.0,127.0,127.0,127.0,118.0,89.0,-115.0
127.0,126.0,127.0,126.0,127.0,126.0,112.0,127.0,35.0,-110.0,-62.0,127.0,127.0,127.0,118.0,89.0,-115.0
127.0,126.0,127.0,126.0,127.0,126.0,113.0,127.0,35.0,-110.0,-62.0,127.0,127.0,127.0,118.0,89.0,-115.0
127.0,127.0,127.0,126.0,127.0,126.0,112.0,127.0,35.0,-110.0,-62.0,127.0,127.0,127.0,118.0,89.0,-115.0
127.0,127.0,127.0,127.0,127.0,127.0,112.0,127.0,35.0,-110.0,-62.0,127.0,127.0,127.0,118.0,89.0,-115.0
127.0,127.0,126.0,127.0,127.0,127.0,113.0,127.0,35.0,-110.0,-62.0,127.0,127.0,127.0,118.0,89.0,-115.0
127.0,127.0,126.0,127.0,127.0,127.0,112.0,128.0,35.0,-110.0,-62.0,127.0,127.0,127.0,118.0,89.0,-115.0
127.0,127.0,126.0,127.0,127.0,127.0,108.0,128.0,35.0,-110.0,-62.0,127.0,127.0,127.0,118.0,89.0,-115.0
127.0,128.0,126.0,128.0,127.0,127.0,106.0,128.0,35.0,-110.0,-62.0,127.0,127.0,127.0,118.0,89.0,-115.0
127.0,128.0,126.0,128.0,127.0,127.0,106.0,128.0,35.0,-110.0,-62.0,127.0,127.0,127.0,118.0,89.0,-115.0
126.0,126.0,127.0,126.0,126.0,126.0,112.0,127.0,35.0,-110.0,-62.0,127.0,127.0,127.0,118.0,89.0,-115.0
126.0,126.0,127.0,126.0,127.0,127.0,112.0,127.0,35.0,-110.0,-61.0,127.0,127.0,127.0,118.0,89.0,-115.0
126.0,126.0,127.0,126.0,127.0,127.0,112.0,127.0,35.0,-110.0,-61.0,127.0,127.0,127.0,118.0,89.0,-115.0
126.0,126.0,127.0,126.0,127.0,127.0,112.0,127.0,35.0,-110.0,-61.0,127.0,127.0,127.0,118.0,89.0,-115.0
126.0,127.0,127.0,127.0,127.0,127.0,112.0,127.0,35.0,-110.0,-61.0,127.0,127.0,127.0,118.0,89.0,-115.0
126.0,127.0,127.0,127.0,127.0,127.0,113.0,127.0,35.0,-110.0,-61.0,127.0,127.0,127.0,118.0,89.0,-115.0
127.0,127.0,127.0,127.0,127.0,127.0,112.0,128.0,35.0,-110.0,-61.0,127.0,127.0,127.0,118.0,89.0,-115.0
127.0,127.0,126.0,127.0,127.0,127.0,106.0,128.0,35.0,-110.0,-61.0,127.0,127.0,127.0,118.0,89.0,-115.0
127.0,127.0,126.0,128.0,127.0,127.0,106.0,128.0,35.0,-110.0,-61.0,127.0,127.0,127.0,118.0,89.0,-115.0
126.0,126.0,127.0,126.0,126.0,126.0,112.0,127.0,35.0,-110.0,-61.0,127.0,127.0,127.0,118.0,89.0,-115.0
126.0,126.0,127.0,126.0,126.0,126.0,112.0,127.0,35.0,-110.0,-61.0,127.0,127.0,127.0,118.0,89.0,-115.0
126.0,127.0,127.0,126.0,127.0,127.0,112.0,127.0,35.0,-109.0,-61.0,127.0,127.0,127.0,118.0,89.0,-115.0
127.0,127.0,127.0,127.0,127.0,127.0,112.0,128.0,35.0,-109.0,-61.0,127.0,127.0,127.0,118.0,89.0,-115.0
127.0,127.0,127.0,127.0,127.0,127.0,113.0,128.0,35.0,-109.0,-61.0,127.0,127.0,127.0,118.0,89.0,-115.0
127.0,127.0,127.0,127.0,127.0,127.0,113.0,128.0,35.0,-109.0,-61.0,127.0,127.0,127.0,118.0,89.0,-115.0
127.0,127.0,127.0,127.0,127.0,127.0,109.0,128.0,35.0,-109.0,-61.0,127.0,127.0,127.0,118.0,89.0,-115.0
127.0,127.0,127.0,127.0,127.0,127.0,106.0,128.0,35.0,-109.0,-61.0,127.0,127.0,127.0,118.0,89.0,-115.0
127.0,128.0,126.0,128.0,127.0,127.0,106.0,128.0,35.0,-109.0,-61.0,127.0,127.0,127.0,118.0,89.0,-115.0
126.0,126.0,127.0,126.0,126.0,127.0,113.0,127.0,35.0,-109.0,-61.0,127.0,127.0,127.0,118.0,89.0,-115.0
126.0,126.0,127.0,126.0,126.0,126.0,112.0,127.0,35.0,-109.0,-61.0,127.0,127.0,127.0,118.0,89.0,-115.0
126.0,126.0,127.0,126.0,127.0,126.0,113.0,127.0,35.0,-109.0,-61.0,127.0,127.0,127.0,118.0,89.0,-115.0
127.0,127.0,127.0,126.0,126.0,127.0,112.0,128.0,35.0,-109.0,-61.0,127.0,127.0,127.0,118.0,89.0,-115.0
127.0,127.0,127.0,126.0,127.0,127.0,113.0,128.0,35.0,-109.0,-61.0,127.0,127.0,127.0,118.0,89.0,-115.0
127.0,127.0,127.0,127.0,127.0,127.0,112.0,128.0,35.0,-109.0,-61.0,127.0,127.0,127.0,118.0,89.0,-115.0
127.0,127.0,127.0,127.0,127.0,127.0,108.0,128.0,35.0,-109.0,-61.0,127.0,127.0,127.0,118.0,89.0,-115.0
127.0,127.0,127.0,127.0,127.0,127.0,106.0,128.0,35.0,-109.0,-61.0,127.0,127.0,127.0,118.0,89.0,-115.0
127.0,127.0,127.0,127.0,127.0,127.0,106.0,128.0,35.0,-109.0,-61.0,127.0,127.0,127.0,118.0,89.0,-115.0
126.0,126.0,128.0,126.0,126.0,127.0,112.0,127.0,35.0,-109.0,-61.0,127.0,127.0,127.0,118.0,89.0,-115.0
126.0,126.0,127.0,126.0,126.0,126.0,112.0,127.0,35.0,-109.0,-61.0,127.0,127.0,127.0,118.0,89.0,-115.0
126.0,126.0,127.0,126.0,126.0,126.0,112.0,128.0,35.0,-109.0,-61.0,127.0,127.0,127.0,118.0,89.0,-115.0
127.0,127.0,127.0,126.0,126.0,127.0,112.0,128.0,35.0,-109.0,-61.0,127.0,127.0,127.0,118.0,89.0,-115.0
127.0,127.0,127.0,126.0,127.0,127.0,113.0,127.0,35.0,-109.0,-61.0,127.0,127.0,127.0,118.0,89.0,-115.0
127.0,127.0,127.0,127.0,127.0,127.0,112.0,128.0,35.0,-109.0,-61.0,127.0,127.0,127.0,118.0,89.0,-115.0
127.0,127.0,127.0,127.0,127.0,127.0,108.0,128.0,35.0,-109.0,-61.0,127.0,127.0,127.0,118.0,89.0,-115.0
127.0,127.0,127.0,127.0,127.0,127.0,106.0,128.0,35.0,-109.0,-61.0,127.0,127.0,127.0,118.0,89.0,-115.0
127.0,127.0,127.0,127.0,127.0,127.0,106.0,128.0,35.0,-109.0,-61.0,127.0,127.0,127.0,118.0,89.0,-115.0
126.0,126.0,128.0,126.0,126.0,126.0,113.0,127.0,35.0,-109.0,-61.0,127.0,127.0,127.0,118.0,89.0,-115.0
126.0,126.0,128.0,126.0,126.0,127.0,112.0,127.0,35.0,-109.0,-61.0,127.0,127.0,127.0,118.0,89.0,-115.0
126.0,126.0,128.0,126.0,127.0,127.0,112.0,127.0,35.0,-109.0,-61.0,127.0,127.0,127.0,118.0,89.0,-115.0
126.0,126.0,127.0,126.0,127.0,127.0,113.0,128.0,35.0,-109.0,-61.0,127.0,127.0,127.0,118.0,89.0,-115.0
126.0,126.0,127.0,126.0,127.0,127.0,113.0,127.0,35.0,-109.0,-61.0,127.0,127.0,127.0,118.0,89.0,-115.0
127.0,126.0,127.0,127.0,126.0,127.0,113.0,128.0,35.0,-109.0,-60.0,127.0,127.0,127.0,118.0,89.0,-115.0
127.0,127.0,127.0,127.0,126.0,127.0,113.0,128.0,35.0,-109.0,-60.0,127.0,127.0,127.0,118.0,89.0,-115.0
127.0,127.0,127.0,127.0,126.0,127.0,107.0,128.0,35.0,-109.0,-60.0,127.0,127.0,127.0,118.0,89.0,-115.0
127.0,127.0,127.0,127.0,127.0,127.0,106.0,128.0,35.0,-109.0,-60.0,127.0,127.0,127.0,118.0,89.0,-115.0
126.0,126.0,127.0,125.0,126.0,126.0,112.0,127.0,35.0,-109.0,-60.0,127.0,127.0,127.0,118.0,89.0,-115.0
126.0,126.0,127.0,126.0,126.0,126.0,113.0,127.0,35.0,-109.0,-60.0,127.0,127.0,127.0,118.0,89.0,-115.0
127.0,126.0,127.0,126.0,126.0,127.0,112.0,127.0,35.0,-109.0,-60.0,127.0,127.0,127.0,118.0,89.0,-115.0
126.0,126.0,127.0,126.0,126.0,127.0,112.0,128.0,35.0,-109.0,-60.0,127.0,127.0,127.0,118.0,89.0,-115.0
127.0,126.0,127.0,126.0,126.0,127.0,112.0,128.0,35.0,-109.0,-60.0,127.0,127.0,127.0,118.0,89.0,-115.0
127.0,126.0,127.0,126.0,126.0,127.0,113.0,128.0,35.0,-109.0,-60.0,127.0,127.0,127.0,118.0,89.0,-115.0
126.0,127.0,127.0,127.0,127.0,127.0,111.0,128.0,35.0,-109.0,-60.0,127.0,127.0,127.0,118.0,89.0,-115.0
126.0,127.0,127.0,127.0,127.0,127.0,107.0,128.0,35.0,-109.0,-60.0,127.0,127.0,127.0,118.0,89.0,-115.0
127.0,127.0,127.0,127.0,127.0,127.0,106.0,128.0,35.0,-109.0,-60.0,127.0,127.0,127.0,118.0,89.0,-115.0
126.0,126.0,128.0,125.0,127.0,126.0,112.0,127.0,35.0,-109.0,-60.0,127.0,127.0,127.0,118.0,89.0,-115.0
126.0,126.0,128.0,125.0,127.0,126.0,112.0,127.0,35.0,-109.0,-60.0,127.0,127.0,127.0,118.0,89.0,-115.0
126.0,126.0,128.0,126.0,127.0,127.0,113.0,127.0,35.0,-109.0,-60.0,127.0,127.0,127.0,118.0,89.0,-115.0
126.0,126.0,127.0,126.0,127.0,127.0,112.0,128.0,35.0,-109.0,-60.0,127.0,127.0,127.0,118.0,89.0,-115.0
126.0,126.0,127.0,126.0,127.0,127.0,112.0,128.0,35.0,-109.0,-60.0,127.0,127.0,127.0,118.0,89.0,-115.0
126.0,126.0,127.0,126.0,127.0,127.0,113.0,128.0,35.0,-109.0,-60.0,127.0,127.0,127.0,118.0,89.0,-115.0
126.0,127.0,127.0,126.0,127.0,127.0,113.0,128.0,35.0,-109.0,-60.0,127.0,127.0,127.0,118.0,89.0,-115.0
127.0,127.0,127.0,127.0,127.0,127.0,106.0,128.0,35.0,-109.0,-60.0,127.0,127.0,127.0,118.0,89.0,-115.0
127.0,127.0,127.0,127.0,127.0,127.0,106.0,128.0,35.0,-109.0,-60.0,127.0,127.0,127.0,118.0,89.0,-115.0
126.0,126.0,128.0,125.0,127.0,126.0,112.0,127.0,35.0,-109.0,-60.0,127.0,127.0,127.0,118.0,89.0,-115.0
126.0,126.0,127.0,126.0,127.0,127.0,113.0,127.0,35.0,-109.0,-60.0,127.0,127.0,127.0,118.0,89.0,-115.0
126.0,126.0,127.0,126.0,127.0,127.0,112.0,127.0,35.0,-109.0,-60.0,127.0,127.0,127.0,118.0,89.0,-115.0
126.0,126.0,127.0,126.0,127.0,127.0,112.0,128.0,35.0,-109.0,-60.0,127.0,127.0,127.0,118.0,89.0,-115.0
126.0,127.0,127.0,126.0,127.0,127.0,113.0,128.0,35.0,-109.0,-60.0,127.0,127.0,127.0,118.0,89.0,-115.0
126.0,127.0,127.0,126.0,127.0,127.0,113.0,128.0,35.0,-109.0,-60.0,127.0,127.0,127.0,118.0,89.0,-115.0
126.0,127.0,127.0,127.0,127.0,127.0,113.0,128.0,35.0,-109.0,-60.0,127.0,127.0,127.0,118.0,89.0,-115.0
127.0,127.0,127.0,127.0,127.0,127.0,110.0,128.0,35.0,-109.0,-60.0,127.0,127.0,127.0,118.0,89.0,-115.0
127.0,127.0,127.0,127.0,127.0,127.0,107.0,128.0,35.0,-110.0,-61.0,127.0,127.0,127.0,118.0,89.0,-115.0
126.0,126.0,127.0,125.0,126.0,127.0,112.0,127.0,35.0,-110.0,-61.0,127.0,127.0,127.0,118.0,89.0,-115.0
126.0,126.0,127.0,126.0,126.0,127.0,112.0,127.0,35.0,-110.0,-61.0,127.0,127.0,127.0,118.0,89.0,-115.0
126.0,126.0,128.0,126.0,126.0,127.0,112.0,127.0,35.0,-110.0,-61.0,127.0,127.0,127.0,118.0,89.0,-115.0
126.0,126.0,128.0,126.0,126.0,127.0,113.0,127.0,35.0,-110.0,-61.0,127.0,127.0,127.0,118.0,89.0,-115.0
126.0,126.0,127.0,126.0,126.0,127.0,113.0,128.0,35.0,-110.0,-61.0,127.0,127.0,127.0,118.0,89.0,-115.0
126.0,127.0,127.0,126.0,126.0,127.0,110.0,128.0,35.0,-110.0,-61.0,127.0,127.0,127.0,118.0,89.0,-115.0
126.0,127.0,127.0,127.0,126.0,127.0,106.0,128.0,35.0,-110.0,-61.0,127.0,127.0,127.0,118.0,89.0,-115.0
126.0,127.0,127.0,127.0,126.0,127.0,106.0,128.0,35.0,-110.0,-61.0,127.0,127.0,127.0,118.0,89.0,-115.0
127.0,127.0,127.0,127.0,127.0,127.0,107.0,128.0,35.0,-110.0,-61.0,127.0,127.0,127.0,118.0,89.0,-115.0
126.0,126.0,127.0,125.0,126.0,127.0,112.0,127.0,35.0,-110.0,-61.0,127.0,127.0,127.0,118.0,89.0,-115.0
126.0,126.0,127.0,125.0,126.0,127.0,112.0,127.0,35.0,-110.0,-61.0,127.0,127.0,127.0,118.0,89.0,-115.0
126.0,126.0,127.0,125.0,126.0,127.0,113.0,127.0,35.0,-110.0,-61.0,127.0,127.0,127.0,118.0,89.0,-115.0
126.0,126.0,127.0,126.0,127.0,127.0,113.0,127.0,35.0,-110.0,-61.0,127.0,127.0,127.0,118.0,89.0,-115.0
126.0,126.0,127.0,126.0,127.0,127.0,111.0,127.0,35.0,-110.0,-61.0,127.0,127.0,127.0,118.0,89.0,-115.0
127.0,126.0,127.0,126.0,127.0,127.0,106.0,127.0,35.0,-110.0,-61.0,127.0,127.0,127.0,118.0,89.0,-115.0
127.0,126.0,127.0,126.0,127.0,127.0,106.0,127.0,35.0,-110.0,-61.0,127.0,127.0,127.0,118.0,89.0,-115.0
127.0,127.0,127.0,127.0,127.0,127.0,106.0,128.0,35.0,-110.0,-61.0,127.0,127.0,127.0,118.0,89.0,-115.0
127.0,127.0,127.0,127.0,127.0,127.0,106.0,128.0,35.0,-110.0,-61.0,127.0,127.0,127.0,118.0,89.0,-115.0
127.0,127.0,127.0,127.0,127.0,128.0,106.0,128.0,35.0,-110.0,-61.0,127.0,127.0,127.0,118.0,89.0,-115.0
126.0,126.0,127.0,125.0,127.0,126.0,112.0,127.0,35.0,-111.0,-61.0,127.0,127.0,127.0,118.0,89.0,-115.0
126.0,126.0,127.0,126.0,127.0,127.0,112.0,127.0,35.0,-111.0,-61.0,127.0,127.0,127.0,118.0,89.0,-115.0
126.0,126.0,127.0,126.0,127.0,127.0,112.0,127.0,35.0,-111.0,-61.0,127.0,127.0,127.0,118.0,89.0,-115.0
126.0,126.0,127.0,126.0,127.0,127.0,112.0,127.0,35.0,-111.0,-61.0,127.0,127.0,127.0,118.0,89.0,-115.0
126.0,126.0,127.0,126.0,127.0,127.0,113.0,127.0,35.0,-111.0,-61.0,127.0,127.0,127.0,118.0,89.0,-115.0
126.0,127.0,127.0,127.0,127.0,127.0,109.0,127.0,35.0,-111.0,-61.0,127.0,127.0,127.0,118.0,89.0,-115.0
126.0,127.0,127.0,127.0,127.0,127.0,106.0,128.0,35.0,-111.0,-61.0,127.0,127.0,127.0,118.0,89.0,-115.0
126.0,127.0,127.0,127.0,127.0,127.0,106.0,128.0,35.0,-111.0,-61.0,127.0,127.0,127.0,118.0,89.0,-115.0
126.0,127.0,127.0,127.0,127.0,127.0,107.0,128.0,35.0,-111.0,-61.0,127.0,127.0,127.0,118.0,89.0,-115.0
126.0,126.0,127.0,125.0,127.0,126.0,112.0,127.0,35.0,-111.0,-61.0,127.0,127.0,127.0,118.0,89.0,-115.0
126.0,126.0,128.0,126.0,127.0,127.0,113.0,127.0,36.0,-111.0,-61.0,127.0,127.0,127.0,118.0,89.0,-115.0
126.0,126.0,128.0,126.0,127.0,127.0,113.0,127.0,36.0,-111.0,-61.0,127.0,127.0,127.0,118.0,89.0,-115.0
126.0,126.0,128.0,126.0,127.0,127.0,113.0,127.0,36.0,-111.0,-61.0,127.0,127.0,127.0,118.0,89.0,-115.0
126.0,127.0,127.0,126.0,127.0,127.0,109.0,127.0,36.0,-111.0,-61.0,127.0,127.0,127.0,118.0,89.0,-115.0
126.0,127.0,127.0,126.0,127.0,127.0,106.0,128.0,36.0,-111.0,-61.0,127.0,127.0,127.0,118.0,89.0,-115.0
126.0,127.0,127.0,127.0,127.0,127.0,106.0,128.0,36.0,-111.0,-61.0,127.0,127.0,127.0,118.0,89.0,-115.0
126.0,127.0,127.0,127.0,127.0,127.0,107.0,128.0,36.0,-111.0,-61.0,127.0,127.0,127.0,118.0,89.0,-115.0
126.0,127.0,127.0,127.0,127.0,127.0,107.0,128.0,36.0,-111.0,-61.0,127.0,127.0,127.0,118.0,89.0,-115.0
126.0,126.0,128.0,125.0,127.0,126.0,112.0,127.0,36.0,-111.0,-61.0,127.0,127.0,127.0,118.0,89.0,-115.0
126.0,126.0,128.0,126.0,127.0,127.0,112.0,127.0,36.0,-111.0,-61.0,127.0,127.0,127.0,118.0,89.0,-115.0
126.0,126.0,128.0,126.0,126.0,126.0,112.0,127.0,36.0,-111.0,-61.0,127.0,127.0,127.0,118.0,89.0,-115.0
126.0,126.0,128.0,126.0,127.0,127.0,112.0,127.0,36.0,-111.0,-61.0,127.0,127.0,127.0,118.0,89.0,-115.0
126.0,127.0,128.0,126.0,127.0,127.0,112.0,127.0,36.0,-111.0,-61.0,127.0,127.0,127.0,118.0,89.0,-115.0
126.0,127.0,128.0,127.0,127.0,127.0,113.0,127.0,36.0,-111.0,-61.0,127.0,127.0,127.0,118.0,89.0,-115.0
126.0,127.0,127.0,127.0,127.0,127.0,113.0,127.0,36.0,-111.0,-61.0,127.0,127.0,127.0,118.0,89.0,-115.0
127.0,127.0,127.0,127.0,127.0,127.0,110.0,127.0,36.0,-111.0,-61.0,127.0,127.0,127.0,118.0,89.0,-115.0
127.0,127.0,127.0,127.0,127.0,127.0,107.0,128.0,36.0,-111.0,-61.0,127.0,127.0,127.0,118.0,89.0,-115.0
126.0,125.0,128.0,125.0,126.0,126.0,113.0,127.0,36.0,-111.0,-61.0,127.0,127.0,127.0,118.0,89.0,-115.0
126.0,125.0,128.0,126.0,126.0,126.0,112.0,127.0,36.0,-111.0,-61.0,127.0,127.0,127.0,118.0,89.0,-115.0
126.0,126.0,128.0,126.0,126.0,127.0,112.0,127.0,36.0,-111.0,-61.0,127.0,127.0,127.0,118.0,89.0,-115.0
126.0,126.0,128.0,126.0,126.0,127.0,113.0,127.0,35.0,-111.0,-62.0,127.0,127.0,127.0,118.0,89.0,-115.0
126.0,126.0,128.0,126.0,126.0,127.0,113.0,127.0,35.0,-111.0,-62.0,127.0,127.0,127.0,118.0,89.0,-115.0
126.0,126.0,128.0,126.0,126.0,127.0,112.0,128.0,35.0,-111.0,-62.0,127.0,127.0,127.0,118.0,89.0,-115.0
126.0,127.0,128.0,126.0,127.0,127.0,107.0,128.0,35.0,-111.0,-62.0,127.0,127.0,127.0,118.0,89.0,-115.0
126.0,127.0,127.0,127.0,127.0,127.0,106.0,128.0,35.0,-111.0,-62.0,127.0,127.0,127.0,118.0,89.0,-115.0
127.0,127.0,127.0,127.0,127.0,127.0,107.0,128.0,35.0,-111.0,-62.0,127.0,127.0,127.0,118.0,89.0,-115.0
126.0,125.0,128.0,125.0,126.0,126.0,112.0,127.0,35.0,-111.0,-62.0,127.0,127.0,127.0,118.0,89.0,-115.0
126.0,126.0,128.0,125.0,126.0,126.0,113.0,127.0,35.0,-111.0,-62.0,127.0,127.0,127.0,118.0,89.0,-115.0
126.0,126.0,128.0,125.0,126.0,127.0,112.0,127.0,35.0,-111.0,-62.0,127.0,127.0,127.0,118.0,89.0,-115.0
126.0,126.0,128.0,126.0,126.0,127.0,112.0,127.0,35.0,-111.0,-62.0,127.0,127.0,127.0,118.0,89.0,-115.0
126.0,126.0,127.0,126.0,126.0,127.0,112.0,128.0,35.0,-111.0,-62.0,127.0,127.0,127.0,118.0,89.0,-115.0
126.0,126.0,127.0,126.0,127.0,127.0,113.0,128.0,35.0,-111.0,-62.0,127.0,127.0,127.0,118.0,89.0,-115.0
126.0,126.0,127.0,126.0,127.0,127.0,113.0,128.0,35.0,-111.0,-62.0,127.0,127.0,127.0,118.0,89.0,-115.0
126.0,127.0,127.0,127.0,127.0,127.0,112.0,128.0,35.0,-111.0,-62.0,127.0,127.0,127.0,118.0,89.0,-115.0
126.0,127.0,127.0,127.0,127.0,127.0,109.0,128.0,35.0,-111.0,-62.0,127.0,127.0,127.0,118.0,89.0,-115.0
126.0,126.0,128.0,125.0,126.0,126.0,112.0,127.0,35.0,-111.0,-62.0,127.0,127.0,127.0,118.0,89.0,-115.0
126.0,126.0,128.0,125.0,126.0,126.0,112.0,127.0,35.0,-111.0,-62.0,127.0,127.0,127.0,118.0,89.0,-115.0
126.0,126.0,128.0,125.0,126.0,126.0,112.0,127.0,35.0,-111.0,-62.0,127.0,127.0,127.0,118.0,89.0,-115.0
126.0,126.0,128.0,126.0,126.0,126.0,113.0,127.0,35.0,-111.0,-62.0,127.0,127.0,127.0,118.0,89.0,-115.0
126.0,126.0,127.0,126.0,126.0,127.0,112.0,128.0,35.0,-111.0,-62.0,127.0,127.0,127.0,118.0,89.0,-115.0
126.0,126.0,127.0,126.0,126.0,127.0,113.0,127.0,34.0,-111.0,-62.0,127.0,127.0,127.0,118.0,89.0,-115.0
126.0,126.0,127.0,126.0,126.0,127.0,113.0,128.0,34.0,-111.0,-62.0,127.0,127.0,127.0,118.0,89.0,-115.0
126.0,126.0,127.0,127.0,126.0,127.0,108.0,128.0,34.0,-111.0,-62.0,127.0,127.0,127.0,118.0,89.0,-115.0
126.0,127.0,127.0,127.0,126.0,127.0,106.0,128.0,34.0,-111.0,-62.0,127.0,127.0,127.0,118.0,89.0,-115.0
126.0,125.0,128.0,125.0,126.0,126.0,112.0,127.0,34.0,-111.0,-62.0,127.0,127.0,127.0,118.0,89.0,-115.0
126.0,125.0,128.0,125.0,126.0,126.0,112.0,127.0,34.0,-111.0,-62.0,127.0,127.0,127.0,118.0,89.0,-115.0
126.0,126.0,128.0,125.0,126.0,126.0,113.0,127.0,34.0,-111.0,-62.0,127.0,127.0,127.0,118.0,89.0,-115.0
126.0,126.0,127.0,125.0,126.0,127.0,112.0,127.0,34.0,-111.0,-62.0,127.0,127.0,127.0,118.0,89.0,-115.0
126.0,126.0,127.0,126.0,126.0,127.0,112.0,127.0,34.0,-111.0,-62.0,127.0,127.0,127.0,118.0,89.0,-115.0
126.0,126.0,127.0,126.0,126.0,127.0,112.0,127.0,34.0,-111.0,-62.0,127.0,127.0,127.0,118.0,89.0,-115.0
126.0,126.0,127.0,126.0,127.0,127.0,111.0,128.0,34.0,-111.0,-62.0,127.0,127.0,127.0,118.0,89.0,-115.0
126.0,127.0,127.0,127.0,127.0,127.0,106.0,128.0,34.0,-111.0,-62.0,127.0,127.0,127.0,118.0,89.0,-115.0
126.0,127.0,127.0,127.0,127.0,127.0,106.0,128.0,34.0,-111.0,-62.0,127.0,127.0,127.0,118.0,89.0,-115.0
126.0,126.0,127.0,125.0,126.0,126.0,112.0,127.0,34.0,-111.0,-62.0,127.0,127.0,127.0,118.0,89.0,-115.0
126.0,126.0,127.0,125.0,126.0,126.0,113.0,127.0,34.0,-111.0,-62.0,127.0,127.0,127.0,118.0,89.0,-115.0
126.0,126.0,127.0,125.0,126.0,126.0,113.0,127.0,34.0,-111.0,-62.0,127.0,127.0,127.0,118.0,89.0,-115.0
126.0,126.0,127.0,125.0,126.0,127.0,112.0,128.0,34.0,-111.0,-62.0,127.0,127.0,127.0,118.0,89.0,-115.0
126.0,126.0,127.0,126.0,126.0,127.0,112.0,128.0,34.0,-111.0,-62.0,127.0,127.0,127.0,118.0,89.0,-115.0
126.0,126.0,127.0,126.0,127.0,127.0,113.0,128.0,34.0,-111.0,-62.0,127.0,127.0,127.0,118.0,89.0,-115.0
126.0,126.0,127.0,126.0,127.0,127.0,114.0,128.0,34.0,-111.0,-62.0,127.0,127.0,127.0,118.0,89.0,-115.0
126.0,127.0,128.0,127.0,126.0,127.0,113.0,128.0,33.0,-111.0,-62.0,127.0,127.0,127.0,118.0,89.0,-115.0
127.0,127.0,127.0,127.0,126.0,127.0,112.0,128.0,33.0,-111.0,-62.0,127.0,127.0,127.0,118.0,89.0,-115.0
126.0,126.0,128.0,125.0,126.0,126.0,111.0,127.0,33.0,-111.0,-62.0,127.0,127.0,127.0,118.0,89.0,-115.0
126.0,126.0,128.0,125.0,126.0,126.0,111.0,127.0,33.0,-111.0,-62.0,127.0,127.0,127.0,118.0,89.0,-115.0
126.0,126.0,128.0,125.0,126.0,126.0,112.0,127.0,33.0,-111.0,-62.0,127.0,127.0,127.0,118.0,89.0,-115.0
126.0,126.0,128.0,126.0,126.0,126.0,112.0,127.0,33.0,-111.0,-62.0,127.0,127.0,127.0,118.0,89.0,-115.0
126.0,126.0,128.0,126.0,126.0,126.0,113.0,127.0,33.0,-111.0,-62.0,127.0,127.0,127.0,118.0,89.0,-115.0
126.0,126.0,128.0,126.0,126.0,127.0,112.0,127.0,33.0,-111.0,-62.0,127.0,127.0,127.0,118.0,89.0,-115.0
126.0,126.0,128.0,126.0,126.0,127.0,112.0,127.0,33.0,-111.0,-62.0,127.0,127.0,127.0,118.0,89.0,-115.0
126.0,126.0,128.0,126.0,126.0,127.0,113.0,128.0,33.0,-111.0,-62.0,127.0,127.0,127.0,118.0,89.0,-115.0
127.0,127.0,127.0,127.0,127.0,127.0,112.0,128.0,33.0,-111.0,-62.0,127.0,127.0,127.0,118.0,89.0,-115.0
127.0,126.0,128.0,125.0,126.0,126.0,111.0,127.0,33.0,-111.0,-62.0,127.0,127.0,127.0,118.0,89.0,-115.0
127.0,126.0,128.0,125.0,126.0,126.0,111.0,127.0,33.0,-111.0,-62.0,127.0,127.0,127.0,118.0,89.0,-115.0
127.0,126.0,127.0,126.0,127.0,126.0,112.0,127.0,33.0,-111.0,-62.0,127.0,127.0,127.0,118.0,89.0,-115.0
127.0,126.0,127.0,126.0,127.0,126.0,112.0,127.0,33.0,-111.0,-62.0,127.0,127.0,127.0,118.0,89.0,-115.0
127.0,126.0,127.0,126.0,127.0,126.0,112.0,127.0,33.0,-111.0,-62.0,127.0,127.0,127.0,118.0,89.0,-115.0
127.0,126.0,127.0,126.0,127.0,126.0,113.0,127.0,33.0,-111.0,-62.0,127.0,127.0,127.0,118.0,89.0,-115.0
127.0,127.0,127.0,126.0,127.0,127.0,112.0,127.0,33.0,-111.0,-62.0,127.0,127.0,127.0,118.0,89.0,-115.0
127.0,127.0,127.0,127.0,127.0,127.0,112.0,128.0,33.0,-111.0,-62.0,127.0,127.0,127.0,118.0,89.0,-115.0
127.0,127.0,127.0,127.0,127.0,127.0,113.0,128.0,33.0,-111.0,-62.0,127.0,127.0,127.0,118.0,89.0,-115.0
126.0,125.0,128.0,125.0,126.0,126.0,112.0,127.0,34.0,-111.0,-62.0,127.0,127.0,127.0,118.0,89.0,-115.0
126.0,125.0,128.0,125.0,126.0,126.0,112.0,127.0,34.0,-111.0,-62.0,127.0,127.0,127.0,118.0,89.0,-115.0
126.0,126.0,127.0,125.0,127.0,126.0,112.0,127.0,34.0,-111.0,-62.0,127.0,127.0,127.0,118.0,89.0,-115.0
126.0,126.0,127.0,126.0,127.0,126.0,112.0,127.0,34.0,-111.0,-62.0,127.0,127.0,127.0,118.0,89.0,-115.0
126.0,126.0,127.0,126.0,127.0,127.0,112.0,127.0,34.0,-111.0,-62.0,127.0,127.0,127.0,118.0,89.0,-115.0
126.0,126.0,127.0,126.0,127.0,127.0,112.0,127.0,34.0,-111.0,-62.0,127.0,127.0,127.0,118.0,89.0,-115.0
126.0,126.0,127.0,126.0,127.0,127.0,112.0,127.0,34.0,-111.0,-62.0,127.0,127.0,127.0,118.0,89.0,-115.0
127.0,127.0,127.0,127.0,127.0,127.0,112.0,128.0,34.0,-111.0,-62.0,127.0,127.0,127.0,118.0,89.0,-115.0
127.0,127.0,127.0,127.0,127.0,127.0,112.0,128.0,34.0,-111.0,-62.0,127.0,127.0,127.0,118.0,89.0,-115.0
127.0,127.0,127.0,127.0,127.0,127.0,108.0,128.0,34.0,-111.0,-62.0,127.0,127.0,127.0,118.0,89.0,-115.0
126.0,125.0,128.0,125.0,126.0,127.0,112.0,127.0,35.0,-111.0,-62.0,127.0,127.0,127.0,118.0,89.0,-115.0
126.0,125.0,128.0,125.0,126.0,127.0,112.0,127.0,35.0,-111.0,-62.0,127.0,127.0,127.0,118.0,89.0,-115.0
126.0,126.0,128.0,125.0,126.0,127.0,112.0,127.0,35.0,-111.0,-62.0,127.0,127.0,127.0,118.0,89.0,-115.0
126.0,126.0,128.0,125.0,126.0,127.0,113.0,127.0,35.0,-111.0,-62.0,127.0,127.0,127.0,118.0,89.0,-115.0
126.0,126.0,127.0,125.0,126.0,127.0,112.0,127.0,35.0,-111.0,-62.0,127.0,127.0,127.0,118.0,89.0,-115.0
126.0,126.0,127.0,126.0,126.0,127.0,112.0,127.0,35.0,-111.0,-62.0,127.0,127.0,127.0,118.0,89.0,-115.0
126.0,127.0,127.0,126.0,126.0,127.0,112.0,128.0,35.0,-111.0,-62.0,127.0,127.0,127.0,118.0,89.0,-115.0
126.0,127.0,127.0,126.0,126.0,127.0,113.0,128.0,35.0,-111.0,-62.0,127.0,127.0,127.0,118.0,89.0,-115.0
126.0,127.0,127.0,126.0,126.0,127.0,113.0,128.0,35.0,-111.0,-62.0,127.0,127.0,127.0,118.0,89.0,-115.0
126.0,125.0,128.0,125.0,126.0,127.0,112.0,127.0,35.0,-111.0,-62.0,127.0,127.0,127.0,118.0,89.0,-115.0
126.0,125.0,128.0,125.0,127.0,126.0,113.0,127.0,36.0,-111.0,-62.0,127.0,127.0,127.0,118.0,89.0,-115.0
126.0,126.0,128.0,126.0,127.0,127.0,112.0,127.0,36.0,-111.0,-62.0,127.0,127.0,127.0,118.0,89.0,-115.0
126.0,126.0,128.0,126.0,127.0,127.0,112.0,127.0,36.0,-111.0,-62.0,127.0,127.0,127.0,118.0,89.0,-115.0
126.0,126.0,128.0,126.0,127.0,127.0,113.0,127.0,36.0,-111.0,-62.0,127.0,127.0,127.0,118.0,89.0,-115.0
126.0,126.0,128.0,126.0,127.0,127.0,113.0,127.0,36.0,-111.0,-62.0,127.0,127.0,127.0,118.0,89.0,-115.0
126.0,126.0,127.0,126.0,127.0,127.0,114.0,127.0,36.0,-111.0,-62.0,127.0,127.0,127.0,118.0,89.0,-115.0
126.0,126.0,127.0,127.0,127.0,127.0,111.0,127.0,36.0,-111.0,-62.0,127.0,127.0,127.0,118.0,89.0,-115.0
126.0,127.0,127.0,127.0,127.0,127.0,107.0,127.0,36.0,-111.0,-62.0,127.0,127.0,127.0,118.0,89.0,-115.0
126.0,127.0,127.0,127.0,127.0,127.0,106.0,127.0,36.0,-111.0,-62.0,127.0,127.0,127.0,118.0,89.0,-115.0
126.0,125.0,128.0,125.0,126.0,126.0,112.0,127.0,36.0,-111.0,-62.0,127.0,127.0,127.0,118.0,89.0,-115.0
