emg1,emg2,emg3,emg4,emg5,emg6,emg7,emg8,acc_x,acc_y,acc_z,gyro_x,gyro_y,gyro_z,angle_pitch,angle_roll,angle_yaw
127.0,127.0,127.0,127.0,127.0,128.0,127.0,126.0,-1.0,106.0,-66.0,127.0,127.0,127.0,-120.0,-90.0,116.0
127.0,127.0,127.0,127.0,126.0,129.0,127.0,126.0,-1.0,106.0,-66.0,127.0,127.0,127.0,-120.0,-90.0,116.0
127.0,127.0,127.0,127.0,127.0,129.0,127.0,126.0,-1.0,106.0,-66.0,127.0,127.0,127.0,-120.0,-90.0,116.0
127.0,127.0,127.0,127.0,127.0,129.0,127.0,126.0,-1.0,106.0,-66.0,127.0,127.0,127.0,-120.0,-90.0,116.0
127.0,127.0,127.0,127.0,127.0,129.0,127.0,126.0,-1.0,106.0,-66.0,127.0,127.0,127.0,-120.0,-90.0,116.0
127.0,127.0,127.0,127.0,127.0,129.0,127.0,126.0,-1.0,106.0,-66.0,127.0,127.0,127.0,-120.0,-90.0,116.0
127.0,127.0,127.0,127.0,127.0,128.0,127.0,126.0,-1.0,106.0,-66.0,127.0,127.0,127.0,-120.0,-90.0,116.0
127.0,127.0,127.0,127.0,127.0,128.0,127.0,126.0,-1.0,106.0,-66.0,127.0,127.0,127.0,-120.0,-90.0,116.0
127.0,127.0,127.0,127.0,127.0,128.0,127.0,126.0,-1.0,106.0,-66.0,127.0,127.0,127.0,-120.0,-90.0,116.0
127.0,127.0,127.0,127.0,127.0,128.0,128.0,125.0,-1.0,106.0,-65.0,127.0,127.0,127.0,-120.0,-90.0,116.0
127.0,127.0,127.0,127.0,126.0,129.0,128.0,126.0,-1.0,106.0,-65.0,127.0,127.0,127.0,-120.0,-90.0,116.0
127.0,127.0,127.0,127.0,126.0,129.0,128.0,125.0,-1.0,106.0,-65.0,127.0,127.0,127.0,-120.0,-90.0,116.0
127.0,127.0,127.0,127.0,127.0,129.0,128.0,125.0,-1.0,106.0,-65.0,127.0,127.0,127.0,-120.0,-90.0,116.0
127.0,127.0,127.0,127.0,127.0,129.0,128.0,125.0,-1.0,106.0,-65.0,127.0,127.0,127.0,-120.0,-90.0,116.0
127.0,127.0,127.0,127.0,127.0,128.0,128.0,125.0,-1.0,106.0,-65.0,127.0,127.0,127.0,-120.0,-90.0,116.0
127.0,127.0,127.0,127.0,127.0,128.0,128.0,125.0,-1.0,106.0,-65.0,127.0,127.0,127.0,-120.0,-90.0,116.0
127.0,127.0,127.0,127.0,127.0,128.0,128.0,125.0,-1.0,106.0,-65.0,127.0,127.0,127.0,-120.0,-90.0,116.0
127.0,127.0,127.0,127.0,127.0,128.0,128.0,125.0,-1.0,106.0,-65.0,127.0,127.0,127.0,-120.0,-90.0,116.0
127.0,127.0,127.0,127.0,127.0,128.0,128.0,125.0,-1.0,106.0,-65.0,127.0,127.0,127.0,-120.0,-90.0,116.0
127.0,127.0,128.0,127.0,127.0,128.0,128.0,126.0,-1.0,106.0,-64.0,127.0,127.0,127.0,-120.0,-90.0,116.0
127.0,127.0,128.0,127.0,127.0,128.0,128.0,126.0,-1.0,106.0,-64.0,127.0,127.0,127.0,-120.0,-90.0,116.0
127.0,127.0,128.0,127.0,127.0,128.0,128.0,126.0,-1.0,106.0,-64.0,127.0,127.0,127.0,-120.0,-90.0,116.0
127.0,127.0,128.0,127.0,127.0,128.0,128.0,126.0,-1.0,106.0,-64.0,127.0,127.0,127.0,-120.0,-90.0,116.0
127.0,127.0,128.0,127.0,127.0,128.0,127.0,126.0,-1.0,106.0,-64.0,127.0,127.0,127.0,-120.0,-90.0,116.0
127.0,127.0,128.0,127.0,126.0,129.0,127.0,126.0,-1.0,106.0,-64.0,127.0,127.0,127.0,-120.0,-90.0,116.0
127.0,127.0,128.0,127.0,127.0,129.0,127.0,126.0,-1.0,106.0,-64.0,127.0,127.0,127.0,-120.0,-90.0,116.0
127.0,127.0,128.0,127.0,127.0,128.0,127.0,126.0,-1.0,106.0,-64.0,127.0,127.0,127.0,-120.0,-90.0,116.0
127.0,127.0,128.0,127.0,127.0,128.0,127.0,126.0,-1.0,106.0,-64.0,127.0,127.0,127.0,-120.0,-90.0,116.0
127.0,127.0,128.0,127.0,127.0,128.0,127.0,126.0,-1.0,106.0,-64.0,127.0,127.0,127.0,-120.0,-90.0,116.0
126.0,126.0,127.0,127.0,127.0,127.0,127.0,125.0,-1.0,106.0,-64.0,127.0,127.0,127.0,-120.0,-90.0,116.0
126.0,126.0,127.0,127.0,127.0,127.0,127.0,125.0,-1.0,106.0,-64.0,127.0,127.0,127.0,-120.0,-90.0,116.0
126.0,126.0,127.0,127.0,127.0,128.0,127.0,125.0,-1.0,106.0,-64.0,127.0,127.0,127.0,-120.0,-90.0,116.0
126.0,126.0,127.0,127.0,127.0,127.0,126.0,126.0,-1.0,106.0,-64.0,127.0,127.0,127.0,-120.0,-90.0,116.0
126.0,126.0,128.0,127.0,127.0,127.0,127.0,125.0,-1.0,106.0,-64.0,127.0,127.0,127.0,-120.0,-90.0,116.0
126.0,126.0,128.0,127.0,127.0,128.0,126.0,125.0,-1.0,106.0,-64.0,127.0,127.0,127.0,-120.0,-90.0,116.0
126.0,126.0,128.0,127.0,127.0,127.0,126.0,126.0,-1.0,106.0,-64.0,127.0,127.0,127.0,-120.0,-90.0,116.0
126.0,126.0,128.0,127.0,127.0,128.0,127.0,125.0,-1.0,106.0,-64.0,127.0,127.0,127.0,-120.0,-90.0,116.0
126.0,126.0,128.0,127.0,127.0,128.0,127.0,125.0,-1.0,106.0,-64.0,127.0,127.0,127.0,-120.0,-90.0,116.0
126.0,126.0,127.0,127.0,127.0,127.0,127.0,125.0,-1.0,106.0,-64.0,127.0,127.0,127.0,-120.0,-90.0,116.0
126.0,127.0,127.0,127.0,127.0,128.0,126.0,127.0,-1.0,106.0,-64.0,127.0,127.0,127.0,-120.0,-90.0,116.0
126.0,127.0,127.0,127.0,127.0,129.0,126.0,127.0,-1.0,106.0,-64.0,127.0,127.0,127.0,-120.0,-90.0,116.0
126.0,127.0,127.0,127.0,127.0,128.0,126.0,127.0,-1.0,106.0,-64.0,127.0,127.0,127.0,-120.0,-90.0,116.0
126.0,127.0,127.0,127.0,127.0,128.0,126.0,127.0,-1.0,106.0,-64.0,127.0,127.0,127.0,-120.0,-90.0,116.0
126.0,127.0,127.0,127.0,127.0,128.0,126.0,127.0,-1.0,106.0,-64.0,127.0,127.0,127.0,-120.0,-90.0,116.0
126.0,127.0,127.0,127.0,127.0,128.0,126.0,127.0,-1.0,106.0,-64.0,127.0,127.0,127.0,-120.0,-90.0,116.0
126.0,127.0,127.0,127.0,127.0,129.0,126.0,127.0,-1.0,106.0,-64.0,127.0,127.0,127.0,-120.0,-90.0,116.0
126.0,127.0,127.0,127.0,127.0,129.0,126.0,127.0,-1.0,106.0,-64.0,127.0,127.0,127.0,-120.0,-90.0,116.0
126.0,127.0,127.0,127.0,127.0,127.0,127.0,126.0,-1.0,106.0,-64.0,127.0,127.0,127.0,-120.0,-90.0,116.0
126.0,127.0,127.0,127.0,127.0,128.0,126.0,126.0,-1.0,106.0,-64.0,127.0,127.0,127.0,-120.0,-90.0,116.0
126.0,127.0,127.0,128.0,127.0,128.0,126.0,127.0,-1.0,106.0,-65.0,127.0,127.0,127.0,-120.0,-90.0,116.0
126.0,127.0,128.0,128.0,127.0,128.0,126.0,127.0,-1.0,106.0,-65.0,127.0,127.0,127.0,-120.0,-90.0,116.0
126.0,127.0,128.0,128.0,127.0,128.0,126.0,127.0,-1.0,106.0,-65.0,127.0,127.0,127.0,-120.0,-90.0,116.0
126.0,127.0,128.0,127.0,127.0,128.0,126.0,127.0,-1.0,106.0,-65.0,127.0,127.0,127.0,-120.0,-90.0,116.0
126.0,127.0,128.0,127.0,127.0,128.0,126.0,127.0,-1.0,106.0,-65.0,127.0,127.0,127.0,-120.0,-90.0,116.0
126.0,127.0,128.0,127.0,127.0,129.0,126.0,127.0,-1.0,106.0,-65.0,127.0,127.0,127.0,-120.0,-90.0,116.0
126.0,127.0,128.0,128.0,127.0,129.0,126.0,127.0,-1.0,106.0,-65.0,127.0,127.0,127.0,-120.0,-90.0,116.0
126.0,127.0,128.0,127.0,127.0,127.0,127.0,127.0,-1.0,106.0,-65.0,127.0,127.0,127.0,-120.0,-90.0,116.0
126.0,127.0,128.0,127.0,127.0,127.0,126.0,127.0,-1.0,106.0,-65.0,127.0,127.0,127.0,-120.0,-90.0,116.0
126.0,127.0,127.0,127.0,127.0,128.0,126.0,127.0,-1.0,106.0,-65.0,127.0,127.0,127.0,-120.0,-90.0,116.0
126.0,127.0,129.0,128.0,127.0,129.0,125.0,127.0,-1.0,106.0,-65.0,127.0,127.0,127.0,-120.0,-90.0,116.0
126.0,127.0,129.0,128.0,127.0,129.0,125.0,127.0,-1.0,106.0,-65.0,127.0,127.0,127.0,-120.0,-90.0,116.0
126.0,127.0,129.0,128.0,127.0,129.0,125.0,127.0,-1.0,106.0,-65.0,127.0,127.0,127.0,-120.0,-90.0,116.0
126.0,127.0,129.0,128.0,127.0,129.0,125.0,127.0,-1.0,106.0,-65.0,127.0,127.0,127.0,-120.0,-90.0,116.0
126.0,127.0,129.0,128.0,127.0,130.0,125.0,127.0,-1.0,106.0,-65.0,127.0,127.0,127.0,-120.0,-90.0,116.0
126.0,127.0,129.0,128.0,127.0,130.0,125.0,127.0,-1.0,106.0,-65.0,127.0,127.0,127.0,-120.0,-90.0,116.0
126.0,127.0,129.0,128.0,127.0,128.0,126.0,127.0,-1.0,106.0,-65.0,127.0,127.0,127.0,-120.0,-90.0,116.0
126.0,127.0,129.0,128.0,127.0,128.0,126.0,127.0,-1.0,106.0,-65.0,127.0,127.0,127.0,-120.0,-90.0,116.0
126.0,127.0,128.0,128.0,127.0,129.0,125.0,127.0,-1.0,106.0,-65.0,127.0,127.0,127.0,-120.0,-90.0,116.0
126.0,127.0,129.0,128.0,127.0,129.0,125.0,127.0,-1.0,106.0,-65.0,127.0,127.0,127.0,-120.0,-90.0,116.0
126.0,128.0,128.0,128.0,127.0,128.0,126.0,126.0,-1.0,106.0,-66.0,127.0,127.0,127.0,-120.0,-90.0,116.0
126.0,128.0,128.0,128.0,127.0,128.0,126.0,126.0,-1.0,106.0,-66.0,127.0,127.0,127.0,-120.0,-90.0,116.0
126.0,128.0,128.0,128.0,127.0,128.0,126.0,126.0,-1.0,106.0,-66.0,127.0,127.0,127.0,-120.0,-90.0,116.0
126.0,128.0,128.0,128.0,127.0,128.0,126.0,126.0,-1.0,106.0,-66.0,127.0,127.0,127.0,-120.0,-90.0,116.0
127.0,128.0,128.0,128.0,126.0,129.0,125.0,126.0,-1.0,106.0,-66.0,127.0,127.0,127.0,-120.0,-90.0,116.0
126.0,128.0,128.0,128.0,127.0,128.0,126.0,126.0,-1.0,106.0,-66.0,127.0,127.0,127.0,-120.0,-90.0,116.0
126.0,128.0,128.0,128.0,127.0,128.0,126.0,126.0,-1.0,106.0,-66.0,127.0,127.0,127.0,-120.0,-90.0,116.0
126.0,128.0,128.0,128.0,127.0,129.0,126.0,126.0,-1.0,106.0,-66.0,127.0,127.0,127.0,-120.0,-90.0,116.0
126.0,128.0,128.0,128.0,127.0,129.0,126.0,127.0,-1.0,106.0,-66.0,127.0,127.0,127.0,-120.0,-90.0,116.0
126.0,128.0,128.0,128.0,127.0,129.0,126.0,127.0,-1.0,106.0,-66.0,127.0,127.0,127.0,-120.0,-90.0,116.0
127.0,127.0,127.0,128.0,126.0,127.0,127.0,126.0,-1.0,106.0,-66.0,127.0,127.0,127.0,-120.0,-90.0,116.0
126.0,127.0,127.0,128.0,126.0,127.0,127.0,126.0,-1.0,106.0,-66.0,127.0,127.0,127.0,-120.0,-90.0,116.0
126.0,127.0,127.0,128.0,126.0,127.0,127.0,126.0,-1.0,106.0,-66.0,127.0,127.0,127.0,-120.0,-90.0,116.0
126.0,127.0,127.0,128.0,127.0,127.0,127.0,126.0,-1.0,106.0,-66.0,127.0,127.0,127.0,-120.0,-90.0,116.0
127.0,128.0,127.0,128.0,126.0,128.0,128.0,126.0,-1.0,106.0,-66.0,127.0,127.0,127.0,-120.0,-90.0,116.0
127.0,128.0,127.0,128.0,126.0,128.0,128.0,126.0,-1.0,106.0,-66.0,127.0,127.0,127.0,-120.0,-90.0,116.0
127.0,128.0,127.0,128.0,126.0,128.0,127.0,126.0,-1.0,106.0,-66.0,127.0,127.0,127.0,-120.0,-90.0,116.0
127.0,128.0,127.0,128.0,126.0,127.0,127.0,126.0,-1.0,106.0,-66.0,127.0,127.0,127.0,-120.0,-90.0,116.0
126.0,127.0,127.0,128.0,126.0,127.0,127.0,126.0,-1.0,106.0,-66.0,127.0,127.0,127.0,-120.0,-90.0,116.0
126.0,127.0,127.0,128.0,126.0,127.0,127.0,126.0,-1.0,106.0,-66.0,127.0,127.0,127.0,-120.0,-90.0,116.0
126.0,127.0,127.0,128.0,126.0,128.0,128.0,126.0,-1.0,106.0,-67.0,127.0,127.0,127.0,-120.0,-90.0,116.0
126.0,127.0,127.0,128.0,127.0,128.0,128.0,126.0,-1.0,106.0,-67.0,127.0,127.0,127.0,-120.0,-90.0,116.0
126.0,127.0,127.0,128.0,127.0,128.0,128.0,126.0,-1.0,106.0,-67.0,127.0,127.0,127.0,-120.0,-90.0,116.0
126.0,127.0,127.0,128.0,126.0,128.0,128.0,126.0,-1.0,106.0,-67.0,127.0,127.0,127.0,-120.0,-90.0,116.0
126.0,127.0,127.0,128.0,126.0,128.0,128.0,126.0,-1.0,106.0,-67.0,127.0,127.0,127.0,-120.0,-90.0,116.0
126.0,127.0,127.0,128.0,126.0,128.0,128.0,126.0,-1.0,106.0,-67.0,127.0,127.0,127.0,-120.0,-90.0,116.0
126.0,127.0,127.0,128.0,126.0,128.0,128.0,126.0,-1.0,106.0,-67.0,127.0,127.0,127.0,-120.0,-90.0,116.0
126.0,127.0,127.0,128.0,126.0,128.0,128.0,126.0,-1.0,106.0,-67.0,127.0,127.0,127.0,-120.0,-90.0,116.0
126.0,127.0,127.0,128.0,126.0,128.0,128.0,126.0,-1.0,106.0,-67.0,127.0,127.0,127.0,-120.0,-90.0,116.0
126.0,127.0,127.0,128.0,126.0,128.0,128.0,126.0,-1.0,106.0,-67.0,127.0,127.0,127.0,-120.0,-90.0,116.0
127.0,127.0,124.0,127.0,125.0,127.0,128.0,126.0,-1.0,106.0,-67.0,127.0,127.0,127.0,-120.0,-90.0,116.0
127.0,127.0,124.0,127.0,125.0,127.0,128.0,126.0,-1.0,106.0,-67.0,127.0,127.0,127.0,-120.0,-90.0,116.0
127.0,128.0,124.0,127.0,125.0,127.0,129.0,126.0,-1.0,106.0,-67.0,127.0,127.0,127.0,-120.0,-90.0,116.0
127.0,128.0,124.0,127.0,125.0,127.0,129.0,126.0,-1.0,106.0,-67.0,127.0,127.0,127.0,-120.0,-90.0,116.0
127.0,128.0,124.0,127.0,125.0,127.0,129.0,126.0,-1.0,106.0,-67.0,127.0,127.0,127.0,-120.0,-90.0,116.0
127.0,127.0,124.0,127.0,125.0,127.0,129.0,126.0,-1.0,106.0,-67.0,127.0,127.0,127.0,-120.0,-90.0,116.0
127.0,127.0,124.0,127.0,125.0,127.0,129.0,126.0,-1.0,106.0,-67.0,127.0,127.0,127.0,-120.0,-90.0,116.0
127.0,127.0,124.0,127.0,125.0,127.0,129.0,126.0,-1.0,106.0,-67.0,127.0,127.0,127.0,-120.0,-90.0,116.0
127.0,127.0,124.0,127.0,125.0,127.0,128.0,126.0,-1.0,106.0,-67.0,127.0,127.0,127.0,-120.0,-90.0,116.0
127.0,127.0,124.0,127.0,125.0,127.0,128.0,126.0,-1.0,106.0,-67.0,127.0,127.0,127.0,-120.0,-90.0,116.0
124.0,126.0,124.0,127.0,125.0,125.0,129.0,126.0,-1.0,107.0,-67.0,127.0,127.0,127.0,-120.0,-90.0,116.0
125.0,126.0,124.0,127.0,125.0,124.0,130.0,125.0,-1.0,107.0,-67.0,127.0,127.0,127.0,-120.0,-90.0,116.0
125.0,126.0,124.0,127.0,125.0,124.0,130.0,125.0,-1.0,107.0,-67.0,127.0,127.0,127.0,-120.0,-90.0,116.0
124.0,126.0,124.0,127.0,125.0,124.0,130.0,126.0,-1.0,107.0,-67.0,127.0,127.0,127.0,-120.0,-90.0,116.0
124.0,126.0,124.0,127.0,125.0,125.0,130.0,126.0,-1.0,107.0,-67.0,127.0,127.0,127.0,-120.0,-90.0,116.0
124.0,127.0,124.0,127.0,125.0,125.0,130.0,126.0,-1.0,107.0,-67.0,127.0,127.0,127.0,-120.0,-90.0,116.0
124.0,126.0,124.0,127.0,125.0,125.0,130.0,126.0,-1.0,107.0,-67.0,127.0,127.0,127.0,-120.0,-90.0,116.0
124.0,126.0,124.0,127.0,125.0,125.0,129.0,126.0,-1.0,107.0,-67.0,127.0,127.0,127.0,-120.0,-90.0,116.0
124.0,126.0,124.0,127.0,125.0,125.0,129.0,126.0,-1.0,107.0,-67.0,127.0,127.0,127.0,-120.0,-90.0,116.0
124.0,126.0,124.0,127.0,126.0,125.0,129.0,126.0,-1.0,107.0,-67.0,127.0,127.0,127.0,-120.0,-90.0,116.0
123.0,126.0,126.0,127.0,127.0,127.0,128.0,126.0,-1.0,107.0,-67.0,127.0,127.0,127.0,-120.0,-90.0,116.0
123.0,126.0,126.0,127.0,127.0,127.0,128.0,126.0,-1.0,107.0,-67.0,127.0,127.0,127.0,-120.0,-90.0,116.0
123.0,126.0,126.0,127.0,127.0,127.0,127.0,126.0,-1.0,107.0,-67.0,127.0,127.0,127.0,-120.0,-90.0,116.0
122.0,126.0,126.0,127.0,127.0,127.0,127.0,126.0,-1.0,107.0,-67.0,127.0,127.0,127.0,-120.0,-90.0,116.0
123.0,126.0,126.0,127.0,127.0,127.0,127.0,126.0,-1.0,107.0,-67.0,127.0,127.0,127.0,-120.0,-90.0,116.0
123.0,126.0,126.0,127.0,127.0,127.0,127.0,126.0,-1.0,107.0,-67.0,127.0,127.0,127.0,-120.0,-90.0,116.0
123.0,126.0,126.0,127.0,127.0,127.0,127.0,126.0,-1.0,107.0,-67.0,127.0,127.0,127.0,-120.0,-90.0,116.0
122.0,126.0,126.0,127.0,127.0,126.0,127.0,126.0,-1.0,107.0,-67.0,127.0,127.0,127.0,-120.0,-90.0,116.0
123.0,126.0,126.0,127.0,127.0,127.0,127.0,126.0,-1.0,107.0,-67.0,127.0,127.0,127.0,-120.0,-90.0,116.0
123.0,126.0,127.0,127.0,127.0,126.0,127.0,126.0,-1.0,107.0,-67.0,127.0,127.0,127.0,-120.0,-90.0,116.0
124.0,127.0,127.0,127.0,127.0,127.0,126.0,127.0,-1.0,107.0,-68.0,127.0,127.0,127.0,-120.0,-90.0,116.0
124.0,127.0,128.0,128.0,127.0,127.0,126.0,127.0,-1.0,107.0,-68.0,127.0,127.0,127.0,-120.0,-90.0,116.0
124.0,127.0,128.0,128.0,127.0,128.0,126.0,127.0,-1.0,107.0,-68.0,127.0,127.0,127.0,-120.0,-90.0,116.0
124.0,127.0,128.0,128.0,127.0,128.0,126.0,127.0,-1.0,107.0,-68.0,127.0,127.0,127.0,-120.0,-90.0,116.0
124.0,127.0,128.0,128.0,127.0,128.0,126.0,128.0,-1.0,107.0,-68.0,127.0,127.0,127.0,-120.0,-90.0,116.0
124.0,127.0,128.0,128.0,127.0,128.0,126.0,127.0,-1.0,107.0,-68.0,127.0,127.0,127.0,-120.0,-90.0,116.0
124.0,127.0,128.0,128.0,127.0,128.0,126.0,127.0,-1.0,107.0,-68.0,127.0,127.0,127.0,-120.0,-90.0,116.0
124.0,127.0,128.0,128.0,127.0,128.0,126.0,127.0,-1.0,107.0,-68.0,127.0,127.0,127.0,-120.0,-90.0,116.0
124.0,127.0,128.0,128.0,127.0,128.0,125.0,127.0,-1.0,107.0,-68.0,127.0,127.0,127.0,-120.0,-90.0,116.0
124.0,127.0,127.0,127.0,127.0,127.0,126.0,127.0,-1.0,107.0,-68.0,127.0,127.0,127.0,-120.0,-90.0,116.0
125.0,127.0,128.0,128.0,127.0,129.0,125.0,128.0,-1.0,106.0,-68.0,127.0,127.0,127.0,-120.0,-90.0,116.0
125.0,127.0,128.0,128.0,127.0,129.0,125.0,128.0,-1.0,106.0,-68.0,127.0,127.0,127.0,-120.0,-90.0,116.0
125.0,127.0,128.0,128.0,127.0,129.0,125.0,128.0,-1.0,106.0,-68.0,127.0,127.0,127.0,-120.0,-90.0,116.0
125.0,127.0,128.0,128.0,127.0,129.0,125.0,128.0,-1.0,106.0,-68.0,127.0,127.0,127.0,-120.0,-90.0,116.0
125.0,127.0,128.0,128.0,127.0,128.0,125.0,128.0,-1.0,106.0,-68.0,127.0,127.0,127.0,-120.0,-90.0,116.0
125.0,126.0,128.0,128.0,128.0,128.0,125.0,128.0,-1.0,106.0,-68.0,127.0,127.0,127.0,-120.0,-90.0,116.0
125.0,126.0,128.0,128.0,127.0,128.0,125.0,128.0,-1.0,106.0,-68.0,127.0,127.0,127.0,-120.0,-90.0,116.0
125.0,126.0,128.0,128.0,128.0,128.0,125.0,128.0,-1.0,106.0,-68.0,127.0,127.0,127.0,-120.0,-90.0,116.0
125.0,127.0,128.0,128.0,127.0,129.0,126.0,128.0,-1.0,106.0,-68.0,127.0,127.0,127.0,-120.0,-90.0,116.0
125.0,127.0,128.0,128.0,127.0,129.0,126.0,128.0,-1.0,106.0,-68.0,127.0,127.0,127.0,-120.0,-90.0,116.0
126.0,127.0,128.0,127.0,126.0,128.0,126.0,128.0,-1.0,106.0,-68.0,127.0,127.0,127.0,-120.0,-90.0,116.0
126.0,127.0,128.0,127.0,126.0,128.0,126.0,128.0,-1.0,106.0,-68.0,127.0,127.0,127.0,-120.0,-90.0,116.0
126.0,126.0,128.0,127.0,126.0,128.0,126.0,127.0,-1.0,106.0,-68.0,127.0,127.0,127.0,-120.0,-90.0,116.0
126.0,126.0,128.0,127.0,126.0,128.0,126.0,127.0,-1.0,106.0,-68.0,127.0,127.0,127.0,-120.0,-90.0,116.0
126.0,126.0,128.0,127.0,127.0,128.0,126.0,127.0,-1.0,106.0,-68.0,127.0,127.0,127.0,-120.0,-90.0,116.0
125.0,126.0,128.0,127.0,127.0,128.0,126.0,127.0,-1.0,106.0,-68.0,127.0,127.0,127.0,-120.0,-90.0,116.0
125.0,126.0,128.0,127.0,127.0,128.0,126.0,127.0,-1.0,106.0,-68.0,127.0,127.0,127.0,-120.0,-90.0,116.0
126.0,127.0,127.0,127.0,126.0,128.0,126.0,128.0,-1.0,106.0,-68.0,127.0,127.0,127.0,-120.0,-90.0,116.0
126.0,127.0,127.0,127.0,126.0,128.0,126.0,128.0,-1.0,106.0,-68.0,127.0,127.0,127.0,-120.0,-90.0,116.0
126.0,127.0,128.0,127.0,126.0,128.0,126.0,128.0,-1.0,106.0,-68.0,127.0,127.0,127.0,-120.0,-90.0,116.0
125.0,127.0,127.0,127.0,127.0,128.0,126.0,127.0,-1.0,106.0,-68.0,127.0,127.0,127.0,-120.0,-90.0,116.0
125.0,127.0,127.0,127.0,127.0,128.0,126.0,127.0,-1.0,106.0,-68.0,127.0,127.0,127.0,-120.0,-90.0,116.0
125.0,127.0,127.0,127.0,127.0,128.0,126.0,127.0,-1.0,106.0,-68.0,127.0,127.0,127.0,-120.0,-90.0,116.0
125.0,127.0,127.0,127.0,127.0,128.0,126.0,127.0,-1.0,106.0,-68.0,127.0,127.0,127.0,-120.0,-90.0,116.0
125.0,127.0,127.0,127.0,127.0,128.0,126.0,127.0,-1.0,106.0,-68.0,127.0,127.0,127.0,-120.0,-90.0,116.0
125.0,127.0,127.0,127.0,127.0,128.0,126.0,127.0,-1.0,106.0,-68.0,127.0,127.0,127.0,-120.0,-90.0,116.0
125.0,127.0,127.0,127.0,126.0,128.0,126.0,127.0,-1.0,106.0,-68.0,127.0,127.0,127.0,-120.0,-90.0,116.0
125.0,127.0,127.0,127.0,126.0,128.0,126.0,127.0,-1.0,106.0,-68.0,127.0,127.0,127.0,-120.0,-90.0,116.0
125.0,127.0,127.0,127.0,126.0,128.0,126.0,127.0,-1.0,106.0,-68.0,127.0,127.0,127.0,-120.0,-90.0,116.0
125.0,127.0,127.0,127.0,127.0,128.0,126.0,127.0,-1.0,106.0,-68.0,127.0,127.0,127.0,-120.0,-90.0,116.0
125.0,127.0,127.0,127.0,127.0,128.0,126.0,126.0,-1.0,106.0,-68.0,127.0,127.0,127.0,-120.0,-90.0,116.0
125.0,127.0,127.0,127.0,127.0,128.0,126.0,126.0,-1.0,106.0,-68.0,127.0,127.0,127.0,-120.0,-90.0,116.0
125.0,127.0,127.0,127.0,127.0,128.0,126.0,126.0,-1.0,106.0,-68.0,127.0,127.0,127.0,-120.0,-90.0,116.0
125.0,127.0,127.0,127.0,127.0,128.0,126.0,126.0,-1.0,106.0,-68.0,127.0,127.0,127.0,-120.0,-90.0,116.0
125.0,127.0,127.0,127.0,127.0,128.0,126.0,126.0,-1.0,106.0,-68.0,127.0,127.0,127.0,-120.0,-90.0,116.0
125.0,127.0,127.0,127.0,126.0,129.0,126.0,127.0,-1.0,106.0,-68.0,127.0,127.0,127.0,-120.0,-90.0,116.0
125.0,127.0,127.0,127.0,127.0,129.0,126.0,127.0,-1.0,106.0,-68.0,127.0,127.0,127.0,-120.0,-90.0,116.0
125.0,127.0,127.0,127.0,127.0,129.0,126.0,127.0,-1.0,106.0,-68.0,127.0,127.0,127.0,-120.0,-90.0,116.0
125.0,127.0,127.0,127.0,127.0,129.0,126.0,127.0,-1.0,106.0,-68.0,127.0,127.0,127.0,-120.0,-90.0,116.0
125.0,127.0,127.0,127.0,127.0,129.0,126.0,126.0,-1.0,106.0,-68.0,127.0,127.0,127.0,-120.0,-90.0,116.0
126.0,127.0,128.0,127.0,126.0,128.0,125.0,127.0,-1.0,106.0,-67.0,127.0,127.0,127.0,-120.0,-90.0,116.0
126.0,127.0,128.0,127.0,127.0,128.0,125.0,126.0,-1.0,106.0,-67.0,127.0,127.0,127.0,-120.0,-90.0,116.0
126.0,127.0,128.0,127.0,127.0,128.0,125.0,126.0,-1.0,106.0,-67.0,127.0,127.0,127.0,-120.0,-90.0,116.0
126.0,127.0,128.0,127.0,127.0,128.0,125.0,126.0,-1.0,106.0,-67.0,127.0,127.0,127.0,-120.0,-90.0,116.0
126.0,127.0,127.0,127.0,126.0,129.0,126.0,127.0,-1.0,106.0,-67.0,127.0,127.0,127.0,-120.0,-90.0,116.0
126.0,127.0,127.0,127.0,126.0,129.0,125.0,127.0,-1.0,106.0,-67.0,127.0,127.0,127.0,-120.0,-90.0,116.0
126.0,127.0,128.0,127.0,126.0,129.0,125.0,127.0,-1.0,106.0,-67.0,127.0,127.0,127.0,-120.0,-90.0,116.0
126.0,127.0,128.0,127.0,126.0,129.0,125.0,127.0,-1.0,106.0,-67.0,127.0,127.0,127.0,-120.0,-90.0,116.0
126.0,127.0,128.0,127.0,126.0,129.0,125.0,127.0,-1.0,106.0,-67.0,127.0,127.0,127.0,-120.0,-90.0,116.0
126.0,127.0,128.0,127.0,126.0,128.0,125.0,127.0,-1.0,106.0,-67.0,127.0,127.0,127.0,-120.0,-90.0,116.0
126.0,127.0,128.0,127.0,126.0,128.0,125.0,126.0,-1.0,107.0,-66.0,127.0,127.0,127.0,-120.0,-90.0,116.0
126.0,127.0,127.0,127.0,126.0,129.0,125.0,127.0,-1.0,107.0,-66.0,127.0,127.0,127.0,-120.0,-90.0,116.0
126.0,127.0,127.0,127.0,126.0,129.0,125.0,127.0,-1.0,107.0,-66.0,127.0,127.0,127.0,-120.0,-90.0,116.0
126.0,127.0,128.0,127.0,127.0,127.0,126.0,126.0,-1.0,107.0,-66.0,127.0,127.0,127.0,-120.0,-90.0,116.0
126.0,127.0,127.0,127.0,126.0,128.0,126.0,126.0,-1.0,107.0,-66.0,127.0,127.0,127.0,-120.0,-90.0,116.0
126.0,127.0,127.0,127.0,126.0,128.0,126.0,127.0,-1.0,107.0,-66.0,127.0,127.0,127.0,-120.0,-90.0,116.0
126.0,127.0,127.0,127.0,126.0,128.0,125.0,127.0,-1.0,107.0,-66.0,127.0,127.0,127.0,-120.0,-90.0,116.0
126.0,127.0,128.0,127.0,126.0,128.0,125.0,126.0,-1.0,107.0,-66.0,127.0,127.0,127.0,-120.0,-90.0,116.0
126.0,127.0,128.0,127.0,126.0,128.0,125.0,126.0,-1.0,107.0,-66.0,127.0,127.0,127.0,-120.0,-90.0,116.0
126.0,127.0,128.0,127.0,126.0,128.0,125.0,126.0,-1.0,107.0,-66.0,127.0,127.0,127.0,-120.0,-90.0,116.0
126.0,127.0,127.0,127.0,126.0,129.0,128.0,126.0,-1.0,107.0,-65.0,127.0,127.0,127.0,-120.0,-90.0,116.0
126.0,127.0,127.0,127.0,126.0,129.0,128.0,126.0,-1.0,107.0,-65.0,127.0,127.0,127.0,-120.0,-90.0,116.0
126.0,127.0,127.0,127.0,127.0,127.0,128.0,126.0,-1.0,107.0,-65.0,127.0,127.0,127.0,-120.0,-90.0,116.0
126.0,127.0,127.0,127.0,126.0,127.0,128.0,126.0,-1.0,107.0,-65.0,127.0,127.0,127.0,-120.0,-90.0,116.0
126.0,127.0,127.0,127.0,126.0,128.0,128.0,126.0,-1.0,107.0,-65.0,127.0,127.0,127.0,-120.0,-90.0,116.0
126.0,127.0,127.0,127.0,126.0,128.0,128.0,126.0,-1.0,107.0,-65.0,127.0,127.0,127.0,-120.0,-90.0,116.0
126.0,127.0,127.0,127.0,127.0,128.0,128.0,126.0,-1.0,107.0,-65.0,127.0,127.0,127.0,-120.0,-90.0,116.0
126.0,127.0,127.0,127.0,127.0,128.0,128.0,126.0,-1.0,107.0,-65.0,127.0,127.0,127.0,-120.0,-90.0,116.0
126.0,127.0,127.0,127.0,127.0,128.0,128.0,126.0,-1.0,107.0,-65.0,127.0,127.0,127.0,-120.0,-90.0,116.0
126.0,127.0,127.0,127.0,127.0,128.0,128.0,126.0,-1.0,107.0,-65.0,127.0,127.0,127.0,-120.0,-90.0,116.0
126.0,127.0,127.0,126.0,127.0,129.0,126.0,127.0,-1.0,106.0,-64.0,127.0,127.0,127.0,-120.0,-90.0,116.0
126.0,127.0,127.0,126.0,127.0,127.0,127.0,126.0,-1.0,106.0,-64.0,127.0,127.0,127.0,-120.0,-90.0,116.0
126.0,127.0,127.0,126.0,126.0,127.0,127.0,126.0,-1.0,106.0,-64.0,127.0,127.0,127.0,-120.0,-90.0,116.0
126.0,127.0,127.0,126.0,126.0,128.0,127.0,126.0,-1.0,106.0,-64.0,127.0,127.0,127.0,-120.0,-90.0,116.0
126.0,127.0,127.0,126.0,127.0,128.0,127.0,126.0,-1.0,106.0,-64.0,127.0,127.0,127.0,-120.0,-90.0,116.0
126.0,127.0,127.0,126.0,127.0,128.0,127.0,126.0,-1.0,106.0,-64.0,127.0,127.0,127.0,-120.0,-90.0,116.0
126.0,127.0,127.0,126.0,127.0,128.0,127.0,126.0,-1.0,106.0,-64.0,127.0,127.0,127.0,-120.0,-90.0,116.0
126.0,127.0,127.0,126.0,127.0,128.0,127.0,126.0,-1.0,106.0,-64.0,127.0,127.0,127.0,-120.0,-90.0,116.0
126.0,127.0,127.0,126.0,127.0,128.0,127.0,126.0,-1.0,106.0,-64.0,127.0,127.0,127.0,-120.0,-90.0,116.0
126.0,127.0,127.0,126.0,127.0,129.0,126.0,126.0,-1.0,106.0,-64.0,127.0,127.0,127.0,-120.0,-90.0,116.0
126.0,127.0,127.0,125.0,127.0,127.0,126.0,126.0,-1.0,106.0,-63.0,127.0,127.0,127.0,-120.0,-90.0,116.0
126.0,127.0,127.0,125.0,127.0,127.0,126.0,126.0,-1.0,106.0,-63.0,127.0,127.0,127.0,-120.0,-90.0,116.0
126.0,127.0,127.0,125.0,127.0,128.0,126.0,127.0,-1.0,106.0,-63.0,127.0,127.0,127.0,-120.0,-90.0,116.0
126.0,127.0,127.0,125.0,127.0,128.0,126.0,127.0,-1.0,106.0,-63.0,127.0,127.0,127.0,-120.0,-90.0,116.0
126.0,127.0,127.0,125.0,127.0,128.0,125.0,127.0,-1.0,106.0,-63.0,127.0,127.0,127.0,-120.0,-90.0,116.0
126.0,127.0,128.0,125.0,127.0,128.0,125.0,127.0,-1.0,106.0,-63.0,127.0,127.0,127.0,-120.0,-90.0,116.0
126.0,127.0,128.0,125.0,127.0,128.0,125.0,127.0,-1.0,106.0,-63.0,127.0,127.0,127.0,-120.0,-90.0,116.0
126.0,127.0,128.0,125.0,127.0,128.0,125.0,127.0,-1.0,106.0,-63.0,127.0,127.0,127.0,-120.0,-90.0,116.0
126.0,127.0,128.0,125.0,127.0,128.0,125.0,127.0,-1.0,106.0,-63.0,127.0,127.0,127.0,-120.0,-90.0,116.0
126.0,127.0,127.0,125.0,127.0,129.0,125.0,127.0,-1.0,106.0,-63.0,127.0,127.0,127.0,-120.0,-90.0,116.0
126.0,127.0,127.0,125.0,127.0,127.0,127.0,127.0,-1.0,106.0,-63.0,127.0,127.0,127.0,-120.0,-90.0,116.0
126.0,127.0,127.0,125.0,127.0,128.0,126.0,127.0,-1.0,106.0,-63.0,127.0,127.0,127.0,-120.0,-90.0,116.0
126.0,127.0,127.0,125.0,127.0,128.0,126.0,127.0,-1.0,106.0,-63.0,127.0,127.0,127.0,-120.0,-90.0,116.0
126.0,127.0,127.0,125.0,127.0,128.0,126.0,127.0,-1.0,106.0,-63.0,127.0,127.0,127.0,-120.0,-90.0,116.0
126.0,127.0,127.0,125.0,127.0,128.0,126.0,127.0,-1.0,106.0,-63.0,127.0,127.0,127.0,-120.0,-90.0,116.0
126.0,127.0,127.0,125.0,127.0,128.0,126.0,127.0,-1.0,106.0,-63.0,127.0,127.0,127.0,-120.0,-90.0,116.0
126.0,127.0,127.0,125.0,127.0,128.0,126.0,127.0,-1.0,106.0,-63.0,127.0,127.0,127.0,-120.0,-90.0,116.0
126.0,127.0,127.0,125.0,127.0,128.0,126.0,127.0,-1.0,106.0,-63.0,127.0,127.0,127.0,-120.0,-90.0,116.0
126.0,127.0,127.0,126.0,127.0,129.0,126.0,127.0,-1.0,106.0,-63.0,127.0,127.0,127.0,-120.0,-90.0,116.0
126.0,127.0,127.0,125.0,127.0,127.0,127.0,127.0,-1.0,106.0,-63.0,127.0,127.0,127.0,-120.0,-90.0,116.0
127.0,127.0,127.0,126.0,127.0,128.0,127.0,127.0,-1.0,106.0,-64.0,127.0,127.0,127.0,-120.0,-90.0,116.0
127.0,127.0,127.0,126.0,127.0,128.0,127.0,127.0,-1.0,106.0,-64.0,127.0,127.0,127.0,-120.0,-90.0,116.0
127.0,127.0,127.0,126.0,127.0,128.0,126.0,127.0,-1.0,106.0,-64.0,127.0,127.0,127.0,-120.0,-90.0,116.0
127.0,127.0,128.0,126.0,127.0,128.0,126.0,127.0,-1.0,106.0,-64.0,127.0,127.0,127.0,-120.0,-90.0,116.0
127.0,127.0,128.0,126.0,127.0,128.0,126.0,127.0,-1.0,106.0,-64.0,127.0,127.0,127.0,-120.0,-90.0,116.0
127.0,127.0,128.0,126.0,127.0,128.0,126.0,127.0,-1.0,106.0,-64.0,127.0,127.0,127.0,-120.0,-90.0,116.0
127.0,127.0,128.0,126.0,127.0,128.0,126.0,127.0,-1.0,106.0,-64.0,127.0,127.0,127.0,-120.0,-90.0,116.0
127.0,127.0,128.0,126.0,127.0,129.0,126.0,128.0,-1.0,106.0,-64.0,127.0,127.0,127.0,-120.0,-90.0,116.0
127.0,127.0,127.0,126.0,127.0,127.0,127.0,127.0,-1.0,106.0,-64.0,127.0,127.0,127.0,-120.0,-90.0,116.0
127.0,127.0,127.0,126.0,127.0,127.0,127.0,127.0,-1.0,106.0,-64.0,127.0,127.0,127.0,-120.0,-90.0,116.0
126.0,128.0,128.0,127.0,127.0,129.0,125.0,127.0,-1.0,106.0,-65.0,127.0,127.0,127.0,-120.0,-90.0,116.0
126.0,128.0,128.0,127.0,127.0,129.0,125.0,127.0,-1.0,106.0,-65.0,127.0,127.0,127.0,-120.0,-90.0,116.0
126.0,128.0,128.0,127.0,127.0,128.0,125.0,127.0,-1.0,106.0,-65.0,127.0,127.0,127.0,-120.0,-90.0,116.0
126.0,128.0,129.0,127.0,127.0,128.0,125.0,127.0,-1.0,106.0,-65.0,127.0,127.0,127.0,-120.0,-90.0,116.0
126.0,128.0,128.0,127.0,127.0,128.0,125.0,127.0,-1.0,106.0,-65.0,127.0,127.0,127.0,-120.0,-90.0,116.0
126.0,127.0,128.0,127.0,127.0,128.0,124.0,127.0,-1.0,106.0,-65.0,127.0,127.0,127.0,-120.0,-90.0,116.0
126.0,127.0,129.0,127.0,127.0,128.0,124.0,127.0,-1.0,106.0,-65.0,127.0,127.0,127.0,-120.0,-90.0,116.0
126.0,127.0,128.0,127.0,127.0,130.0,125.0,127.0,-1.0,106.0,-65.0,127.0,127.0,127.0,-120.0,-90.0,116.0
126.0,127.0,128.0,127.0,127.0,129.0,125.0,127.0,-1.0,106.0,-65.0,127.0,127.0,127.0,-120.0,-90.0,116.0
126.0,128.0,128.0,127.0,127.0,129.0,125.0,127.0,-1.0,106.0,-65.0,127.0,127.0,127.0,-120.0,-90.0,116.0
127.0,128.0,128.0,127.0,128.0,131.0,149.0,128.0,-1.0,106.0,-65.0,127.0,127.0,127.0,-120.0,-90.0,116.0
128.0,128.0,129.0,128.0,128.0,131.0,151.0,128.0,-1.0,106.0,-65.0,127.0,127.0,127.0,-120.0,-90.0,116.0
128.0,128.0,129.0,128.0,129.0,131.0,153.0,128.0,-1.0,106.0,-65.0,127.0,127.0,127.0,-120.0,-90.0,116.0
128.0,128.0,129.0,128.0,129.0,131.0,156.0,128.0,-1.0,106.0,-65.0,127.0,127.0,127.0,-120.0,-90.0,116.0
128.0,128.0,129.0,128.0,129.0,130.0,158.0,128.0,-1.0,106.0,-65.0,127.0,127.0,127.0,-120.0,-90.0,116.0
127.0,128.0,128.0,127.0,128.0,131.0,138.0,128.0,-1.0,106.0,-65.0,127.0,127.0,127.0,-120.0,-90.0,116.0
127.0,127.0,128.0,127.0,128.0,131.0,140.0,128.0,-1.0,106.0,-65.0,127.0,127.0,127.0,-120.0,-90.0,116.0
127.0,127.0,128.0,127.0,128.0,131.0,142.0,128.0,-1.0,106.0,-65.0,127.0,127.0,127.0,-120.0,-90.0,116.0
127.0,127.0,128.0,127.0,128.0,132.0,144.0,128.0,-1.0,106.0,-65.0,127.0,127.0,127.0,-120.0,-90.0,116.0
127.0,127.0,128.0,127.0,128.0,131.0,146.0,128.0,-1.0,106.0,-65.0,127.0,127.0,127.0,-120.0,-90.0,116.0
127.0,129.0,126.0,129.0,124.0,119.0,254.0,116.0,-1.0,106.0,-66.0,127.0,127.0,127.0,-120.0,-90.0,116.0
127.0,130.0,127.0,129.0,124.0,119.0,254.0,116.0,-1.0,106.0,-66.0,127.0,127.0,127.0,-120.0,-90.0,116.0
128.0,130.0,127.0,129.0,124.0,119.0,254.0,116.0,-1.0,106.0,-66.0,127.0,127.0,127.0,-120.0,-90.0,116.0
128.0,131.0,127.0,130.0,124.0,119.0,254.0,116.0,-1.0,106.0,-66.0,127.0,127.0,127.0,-120.0,-90.0,116.0
126.0,131.0,125.0,128.0,124.0,119.0,254.0,117.0,-1.0,106.0,-66.0,127.0,127.0,127.0,-120.0,-90.0,116.0
126.0,130.0,125.0,128.0,124.0,120.0,254.0,117.0,-1.0,106.0,-66.0,127.0,127.0,127.0,-120.0,-90.0,116.0
126.0,130.0,125.0,128.0,124.0,120.0,254.0,117.0,-1.0,106.0,-66.0,127.0,127.0,127.0,-120.0,-90.0,116.0
126.0,129.0,126.0,128.0,124.0,120.0,254.0,117.0,-1.0,106.0,-66.0,127.0,127.0,127.0,-120.0,-90.0,116.0
127.0,129.0,126.0,129.0,124.0,119.0,254.0,117.0,-1.0,106.0,-66.0,127.0,127.0,127.0,-120.0,-90.0,116.0
127.0,129.0,126.0,129.0,124.0,119.0,254.0,117.0,-1.0,106.0,-66.0,127.0,127.0,127.0,-120.0,-90.0,116.0
127.0,121.0,124.0,126.0,121.0,112.0,96.0,117.0,-1.0,106.0,-66.0,127.0,127.0,127.0,-120.0,-90.0,116.0
126.0,120.0,124.0,126.0,121.0,112.0,93.0,118.0,-1.0,106.0,-66.0,127.0,127.0,127.0,-120.0,-90.0,116.0
126.0,119.0,123.0,126.0,121.0,112.0,91.0,118.0,-1.0,106.0,-66.0,127.0,127.0,127.0,-120.0,-90.0,116.0
134.0,121.0,125.0,127.0,121.0,115.0,124.0,115.0,-1.0,106.0,-66.0,127.0,127.0,127.0,-120.0,-90.0,116.0
134.0,122.0,125.0,127.0,121.0,115.0,119.0,116.0,-1.0,106.0,-66.0,127.0,127.0,127.0,-120.0,-90.0,116.0
134.0,122.0,125.0,127.0,121.0,115.0,115.0,116.0,-1.0,106.0,-66.0,127.0,127.0,127.0,-120.0,-90.0,116.0
133.0,122.0,125.0,127.0,121.0,114.0,111.0,117.0,-1.0,106.0,-66.0,127.0,127.0,127.0,-120.0,-90.0,116.0
131.0,122.0,125.0,127.0,121.0,114.0,107.0,117.0,-1.0,106.0,-66.0,127.0,127.0,127.0,-120.0,-90.0,116.0
130.0,122.0,125.0,126.0,121.0,113.0,103.0,117.0,-1.0,106.0,-66.0,127.0,127.0,127.0,-120.0,-90.0,116.0
129.0,121.0,125.0,126.0,121.0,113.0,100.0,117.0,-1.0,106.0,-66.0,127.0,127.0,127.0,-120.0,-90.0,116.0
131.0,104.0,111.0,118.0,130.0,117.0,124.0,142.0,-1.0,108.0,-65.0,126.0,127.0,127.0,-120.0,-90.0,116.0
131.0,104.0,111.0,117.0,129.0,116.0,125.0,142.0,-1.0,108.0,-65.0,126.0,127.0,127.0,-120.0,-90.0,116.0
132.0,102.0,106.0,119.0,132.0,122.0,115.0,140.0,-1.0,108.0,-65.0,126.0,127.0,127.0,-120.0,-90.0,116.0
132.0,103.0,107.0,119.0,132.0,123.0,116.0,141.0,-1.0,108.0,-65.0,126.0,127.0,127.0,-120.0,-90.0,116.0
132.0,104.0,108.0,119.0,132.0,123.0,117.0,141.0,-1.0,108.0,-65.0,126.0,127.0,127.0,-120.0,-90.0,116.0
131.0,104.0,109.0,119.0,132.0,122.0,119.0,142.0,-1.0,108.0,-65.0,126.0,127.0,127.0,-120.0,-90.0,116.0
131.0,105.0,110.0,119.0,132.0,121.0,120.0,142.0,-1.0,108.0,-65.0,126.0,127.0,127.0,-120.0,-90.0,116.0
131.0,105.0,111.0,119.0,132.0,120.0,121.0,142.0,-1.0,108.0,-65.0,126.0,127.0,127.0,-120.0,-90.0,116.0
131.0,105.0,111.0,119.0,131.0,119.0,122.0,142.0,-1.0,108.0,-65.0,126.0,127.0,127.0,-120.0,-90.0,116.0
131.0,104.0,111.0,118.0,130.0,118.0,123.0,142.0,-1.0,108.0,-65.0,126.0,127.0,127.0,-120.0,-90.0,116.0
120.0,125.0,134.0,125.0,121.0,55.0,13.0,145.0,-1.0,110.0,-68.0,126.0,127.0,127.0,-120.0,-90.0,116.0
125.0,125.0,128.0,121.0,122.0,63.0,45.0,143.0,-1.0,110.0,-68.0,126.0,127.0,127.0,-120.0,-90.0,116.0
125.0,125.0,128.0,121.0,121.0,63.0,40.0,143.0,-1.0,110.0,-68.0,126.0,127.0,127.0,-120.0,-90.0,116.0
124.0,125.0,129.0,121.0,121.0,63.0,36.0,143.0,-1.0,110.0,-68.0,126.0,127.0,127.0,-120.0,-90.0,116.0
123.0,125.0,130.0,122.0,121.0,62.0,32.0,143.0,-1.0,110.0,-68.0,126.0,127.0,127.0,-120.0,-90.0,116.0
122.0,125.0,131.0,122.0,121.0,61.0,29.0,143.0,-1.0,110.0,-68.0,126.0,127.0,127.0,-120.0,-90.0,116.0
122.0,125.0,131.0,123.0,121.0,60.0,25.0,143.0,-1.0,110.0,-68.0,126.0,127.0,127.0,-120.0,-90.0,116.0
121.0,125.0,132.0,123.0,121.0,59.0,21.0,144.0,-1.0,110.0,-68.0,126.0,127.0,127.0,-120.0,-90.0,116.0
121.0,125.0,133.0,124.0,121.0,58.0,18.0,144.0,-1.0,110.0,-68.0,126.0,127.0,127.0,-120.0,-90.0,116.0
120.0,125.0,134.0,124.0,121.0,57.0,15.0,145.0,-1.0,110.0,-68.0,126.0,127.0,127.0,-120.0,-90.0,116.0
122.0,117.0,132.0,144.0,127.0,127.0,95.0,149.0,-1.0,108.0,-68.0,126.0,127.0,127.0,-120.0,-90.0,116.0
123.0,117.0,132.0,146.0,127.0,131.0,100.0,150.0,-1.0,108.0,-68.0,126.0,127.0,127.0,-120.0,-90.0,116.0
123.0,118.0,132.0,147.0,127.0,135.0,106.0,150.0,-1.0,108.0,-68.0,126.0,127.0,127.0,-120.0,-90.0,116.0
123.0,118.0,131.0,149.0,127.0,138.0,111.0,150.0,-1.0,108.0,-68.0,126.0,127.0,127.0,-120.0,-90.0,116.0
123.0,117.0,131.0,150.0,127.0,140.0,117.0,150.0,-1.0,108.0,-68.0,126.0,127.0,127.0,-120.0,-90.0,116.0
123.0,117.0,131.0,151.0,127.0,142.0,122.0,149.0,-1.0,108.0,-68.0,126.0,127.0,127.0,-120.0,-90.0,116.0
123.0,117.0,130.0,153.0,127.0,143.0,128.0,149.0,-1.0,108.0,-68.0,126.0,127.0,127.0,-120.0,-90.0,116.0
124.0,118.0,130.0,154.0,126.0,145.0,134.0,150.0,-1.0,108.0,-68.0,126.0,127.0,127.0,-120.0,-90.0,116.0
124.0,118.0,130.0,155.0,127.0,147.0,141.0,150.0,-1.0,108.0,-68.0,126.0,127.0,127.0,-120.0,-90.0,116.0
125.0,118.0,129.0,157.0,127.0,149.0,146.0,151.0,-1.0,108.0,-68.0,126.0,127.0,127.0,-120.0,-90.0,116.0
126.0,132.0,135.0,169.0,132.0,115.0,229.0,155.0,-1.0,109.0,-68.0,126.0,127.0,127.0,-120.0,-90.0,116.0
127.0,133.0,135.0,169.0,132.0,113.0,228.0,155.0,-1.0,109.0,-68.0,126.0,127.0,127.0,-120.0,-90.0,116.0
128.0,133.0,136.0,168.0,132.0,112.0,227.0,156.0,-1.0,109.0,-68.0,126.0,127.0,127.0,-120.0,-90.0,116.0
129.0,133.0,136.0,168.0,132.0,110.0,226.0,156.0,-1.0,109.0,-68.0,126.0,127.0,127.0,-120.0,-90.0,116.0
129.0,134.0,136.0,167.0,133.0,109.0,226.0,156.0,-1.0,109.0,-68.0,126.0,127.0,127.0,-120.0,-90.0,116.0
129.0,134.0,137.0,167.0,133.0,109.0,226.0,156.0,-1.0,109.0,-68.0,126.0,127.0,127.0,-120.0,-90.0,116.0
128.0,134.0,137.0,166.0,134.0,110.0,225.0,156.0,-1.0,109.0,-68.0,126.0,127.0,127.0,-120.0,-90.0,116.0
128.0,134.0,137.0,166.0,134.0,110.0,224.0,156.0,-1.0,109.0,-68.0,126.0,127.0,127.0,-120.0,-90.0,116.0
127.0,134.0,137.0,165.0,135.0,111.0,223.0,156.0,-1.0,109.0,-68.0,126.0,127.0,127.0,-120.0,-90.0,116.0
125.0,133.0,135.0,170.0,132.0,116.0,229.0,155.0,-1.0,109.0,-68.0,126.0,127.0,127.0,-120.0,-90.0,116.0
126.0,140.0,136.0,142.0,133.0,145.0,202.0,151.0,-1.0,105.0,-67.0,125.0,127.0,127.0,-120.0,-90.0,116.0
126.0,140.0,136.0,143.0,133.0,145.0,201.0,151.0,-1.0,105.0,-67.0,125.0,127.0,127.0,-120.0,-90.0,116.0
126.0,140.0,136.0,143.0,133.0,145.0,200.0,150.0,-1.0,105.0,-67.0,125.0,127.0,127.0,-120.0,-90.0,116.0
126.0,140.0,136.0,143.0,132.0,145.0,199.0,149.0,-1.0,105.0,-67.0,125.0,127.0,127.0,-120.0,-90.0,116.0
126.0,139.0,135.0,143.0,132.0,146.0,198.0,149.0,-1.0,105.0,-67.0,125.0,127.0,127.0,-120.0,-90.0,116.0
126.0,139.0,135.0,143.0,132.0,147.0,198.0,148.0,-1.0,105.0,-67.0,125.0,127.0,127.0,-120.0,-90.0,116.0
126.0,138.0,134.0,143.0,131.0,148.0,197.0,148.0,-1.0,105.0,-67.0,125.0,127.0,127.0,-120.0,-90.0,116.0
126.0,138.0,134.0,143.0,131.0,150.0,196.0,148.0,-1.0,105.0,-67.0,125.0,127.0,127.0,-120.0,-90.0,116.0
125.0,139.0,136.0,142.0,133.0,144.0,204.0,150.0,-1.0,105.0,-67.0,125.0,127.0,127.0,-120.0,-90.0,116.0
126.0,140.0,136.0,142.0,133.0,144.0,203.0,151.0,-1.0,105.0,-67.0,125.0,127.0,127.0,-120.0,-90.0,116.0
134.0,137.0,130.0,141.0,124.0,156.0,181.0,146.0,-1.0,101.0,-68.0,127.0,127.0,127.0,-120.0,-90.0,116.0
134.0,137.0,130.0,141.0,123.0,155.0,181.0,146.0,-1.0,101.0,-68.0,127.0,127.0,127.0,-120.0,-90.0,116.0
134.0,137.0,130.0,141.0,123.0,154.0,181.0,146.0,-1.0,101.0,-68.0,127.0,127.0,127.0,-120.0,-90.0,116.0
134.0,137.0,130.0,142.0,123.0,153.0,180.0,145.0,-1.0,101.0,-68.0,127.0,127.0,127.0,-120.0,-90.0,116.0
133.0,137.0,131.0,142.0,123.0,152.0,180.0,145.0,-1.0,101.0,-68.0,127.0,127.0,127.0,-120.0,-90.0,116.0
133.0,137.0,131.0,142.0,123.0,152.0,180.0,145.0,-1.0,101.0,-68.0,127.0,127.0,127.0,-120.0,-90.0,116.0
133.0,137.0,131.0,142.0,124.0,152.0,180.0,145.0,-1.0,101.0,-68.0,127.0,127.0,127.0,-120.0,-90.0,116.0
134.0,138.0,130.0,141.0,125.0,156.0,182.0,146.0,-1.0,101.0,-68.0,127.0,127.0,127.0,-120.0,-90.0,116.0
134.0,138.0,130.0,141.0,124.0,156.0,181.0,146.0,-1.0,101.0,-68.0,127.0,127.0,127.0,-120.0,-90.0,116.0
134.0,138.0,130.0,141.0,124.0,156.0,181.0,146.0,-1.0,101.0,-68.0,127.0,127.0,127.0,-120.0,-90.0,116.0
134.0,137.0,127.0,138.0,123.0,141.0,174.0,141.0,-1.0,103.0,-69.0,127.0,127.0,127.0,-120.0,-90.0,116.0
134.0,138.0,127.0,138.0,123.0,140.0,174.0,141.0,-1.0,103.0,-69.0,127.0,127.0,127.0,-120.0,-90.0,116.0
134.0,138.0,127.0,137.0,123.0,139.0,173.0,140.0,-1.0,103.0,-69.0,127.0,127.0,127.0,-120.0,-90.0,116.0
134.0,138.0,127.0,137.0,122.0,139.0,173.0,140.0,-1.0,103.0,-69.0,127.0,127.0,127.0,-120.0,-90.0,116.0
134.0,138.0,127.0,136.0,122.0,139.0,173.0,140.0,-1.0,103.0,-69.0,127.0,127.0,127.0,-120.0,-90.0,116.0
134.0,138.0,127.0,136.0,122.0,139.0,173.0,139.0,-1.0,103.0,-69.0,127.0,127.0,127.0,-120.0,-90.0,116.0
134.0,136.0,127.0,141.0,125.0,147.0,175.0,142.0,-1.0,103.0,-69.0,127.0,127.0,127.0,-120.0,-90.0,116.0
134.0,136.0,127.0,140.0,125.0,145.0,175.0,142.0,-1.0,103.0,-69.0,127.0,127.0,127.0,-120.0,-90.0,116.0
134.0,137.0,127.0,140.0,124.0,144.0,175.0,142.0,-1.0,103.0,-69.0,127.0,127.0,127.0,-120.0,-90.0,116.0
134.0,137.0,127.0,139.0,124.0,142.0,174.0,142.0,-1.0,103.0,-69.0,127.0,127.0,127.0,-120.0,-90.0,116.0
134.0,135.0,129.0,129.0,127.0,131.0,165.0,136.0,-1.0,106.0,-68.0,126.0,127.0,127.0,-120.0,-90.0,116.0
134.0,135.0,128.0,129.0,127.0,132.0,164.0,135.0,-1.0,106.0,-68.0,126.0,127.0,127.0,-120.0,-90.0,116.0
134.0,136.0,128.0,129.0,127.0,134.0,164.0,135.0,-1.0,106.0,-68.0,126.0,127.0,127.0,-120.0,-90.0,116.0
134.0,136.0,128.0,129.0,127.0,135.0,163.0,135.0,-1.0,106.0,-68.0,126.0,127.0,127.0,-120.0,-90.0,116.0
135.0,136.0,128.0,129.0,127.0,136.0,163.0,135.0,-1.0,106.0,-68.0,126.0,127.0,127.0,-120.0,-90.0,116.0
134.0,138.0,130.0,130.0,127.0,126.0,167.0,137.0,-1.0,106.0,-68.0,126.0,127.0,127.0,-120.0,-90.0,116.0
134.0,137.0,130.0,129.0,127.0,126.0,166.0,137.0,-1.0,106.0,-68.0,126.0,127.0,127.0,-120.0,-90.0,116.0
134.0,137.0,129.0,129.0,126.0,127.0,166.0,137.0,-1.0,106.0,-68.0,126.0,127.0,127.0,-120.0,-90.0,116.0
134.0,136.0,129.0,130.0,127.0,128.0,165.0,136.0,-1.0,106.0,-68.0,126.0,127.0,127.0,-120.0,-90.0,116.0
134.0,136.0,129.0,129.0,127.0,129.0,165.0,136.0,-1.0,106.0,-68.0,126.0,127.0,127.0,-120.0,-90.0,116.0
127.0,135.0,126.0,129.0,128.0,138.0,150.0,130.0,-1.0,105.0,-66.0,126.0,127.0,127.0,-120.0,-90.0,116.0
127.0,135.0,127.0,129.0,129.0,138.0,150.0,130.0,-1.0,105.0,-66.0,126.0,127.0,127.0,-120.0,-90.0,116.0
127.0,135.0,127.0,129.0,129.0,138.0,150.0,130.0,-1.0,105.0,-66.0,126.0,127.0,127.0,-120.0,-90.0,116.0
127.0,135.0,127.0,129.0,129.0,138.0,149.0,130.0,-1.0,105.0,-66.0,126.0,127.0,127.0,-120.0,-90.0,116.0
127.0,136.0,125.0,129.0,127.0,134.0,152.0,130.0,-1.0,105.0,-66.0,126.0,127.0,127.0,-120.0,-90.0,116.0
127.0,136.0,125.0,129.0,127.0,134.0,152.0,130.0,-1.0,105.0,-66.0,126.0,127.0,127.0,-120.0,-90.0,116.0
126.0,136.0,125.0,129.0,127.0,135.0,151.0,130.0,-1.0,105.0,-66.0,126.0,127.0,127.0,-120.0,-90.0,116.0
126.0,135.0,126.0,129.0,128.0,137.0,151.0,130.0,-1.0,105.0,-66.0,126.0,127.0,127.0,-120.0,-90.0,116.0
127.0,135.0,126.0,129.0,128.0,138.0,151.0,130.0,-1.0,105.0,-66.0,126.0,127.0,127.0,-120.0,-90.0,116.0
127.0,135.0,126.0,129.0,128.0,138.0,150.0,130.0,-1.0,105.0,-66.0,126.0,127.0,127.0,-120.0,-90.0,116.0
122.0,136.0,127.0,130.0,128.0,138.0,143.0,129.0,-1.0,103.0,-65.0,126.0,127.0,127.0,-119.0,-90.0,116.0
123.0,135.0,127.0,130.0,128.0,137.0,142.0,129.0,-1.0,103.0,-65.0,126.0,127.0,127.0,-119.0,-90.0,116.0
123.0,135.0,127.0,130.0,129.0,136.0,142.0,129.0,-1.0,103.0,-65.0,126.0,127.0,127.0,-119.0,-90.0,116.0
123.0,135.0,125.0,130.0,128.0,138.0,144.0,128.0,-1.0,103.0,-65.0,126.0,127.0,127.0,-119.0,-90.0,116.0
122.0,135.0,126.0,129.0,128.0,138.0,143.0,128.0,-1.0,103.0,-65.0,126.0,127.0,127.0,-119.0,-90.0,116.0
122.0,135.0,126.0,129.0,128.0,138.0,143.0,128.0,-1.0,103.0,-65.0,126.0,127.0,127.0,-119.0,-90.0,116.0
122.0,136.0,126.0,130.0,128.0,139.0,143.0,128.0,-1.0,103.0,-65.0,126.0,127.0,127.0,-119.0,-90.0,116.0
122.0,136.0,126.0,130.0,128.0,139.0,143.0,128.0,-1.0,103.0,-65.0,126.0,127.0,127.0,-119.0,-90.0,116.0
122.0,136.0,127.0,130.0,128.0,139.0,143.0,129.0,-1.0,103.0,-65.0,126.0,127.0,127.0,-119.0,-90.0,116.0
122.0,136.0,127.0,130.0,128.0,138.0,143.0,129.0,-1.0,103.0,-65.0,126.0,127.0,127.0,-119.0,-90.0,116.0
117.0,134.0,127.0,127.0,128.0,139.0,138.0,128.0,-1.0,103.0,-65.0,127.0,127.0,127.0,-119.0,-90.0,116.0
117.0,134.0,127.0,126.0,128.0,139.0,138.0,128.0,-1.0,103.0,-65.0,127.0,127.0,127.0,-119.0,-90.0,116.0
118.0,136.0,127.0,127.0,127.0,137.0,140.0,127.0,-1.0,103.0,-65.0,127.0,127.0,127.0,-119.0,-90.0,116.0
118.0,136.0,127.0,127.0,127.0,137.0,139.0,128.0,-1.0,103.0,-65.0,127.0,127.0,127.0,-119.0,-90.0,116.0
118.0,135.0,127.0,127.0,127.0,137.0,139.0,128.0,-1.0,103.0,-65.0,127.0,127.0,127.0,-119.0,-90.0,116.0
118.0,135.0,127.0,127.0,127.0,138.0,139.0,128.0,-1.0,103.0,-65.0,127.0,127.0,127.0,-119.0,-90.0,116.0
118.0,134.0,126.0,127.0,127.0,138.0,139.0,128.0,-1.0,103.0,-65.0,127.0,127.0,127.0,-119.0,-90.0,116.0
118.0,134.0,127.0,127.0,127.0,138.0,139.0,128.0,-1.0,103.0,-65.0,127.0,127.0,127.0,-119.0,-90.0,116.0
118.0,134.0,127.0,127.0,127.0,138.0,139.0,128.0,-1.0,103.0,-65.0,127.0,127.0,127.0,-119.0,-90.0,116.0
117.0,134.0,126.0,127.0,127.0,139.0,138.0,128.0,-1.0,103.0,-65.0,127.0,127.0,127.0,-119.0,-90.0,116.0
123.0,133.0,127.0,125.0,128.0,136.0,133.0,129.0,-1.0,103.0,-65.0,127.0,127.0,127.0,-119.0,-90.0,116.0
123.0,134.0,127.0,125.0,128.0,139.0,135.0,130.0,-1.0,103.0,-65.0,127.0,127.0,127.0,-119.0,-90.0,116.0
123.0,134.0,127.0,126.0,128.0,138.0,135.0,130.0,-1.0,103.0,-65.0,127.0,127.0,127.0,-119.0,-90.0,116.0
123.0,134.0,127.0,125.0,128.0,137.0,135.0,129.0,-1.0,103.0,-65.0,127.0,127.0,127.0,-119.0,-90.0,116.0
123.0,134.0,127.0,126.0,128.0,137.0,134.0,130.0,-1.0,103.0,-65.0,127.0,127.0,127.0,-119.0,-90.0,116.0
123.0,134.0,127.0,125.0,128.0,137.0,134.0,129.0,-1.0,103.0,-65.0,127.0,127.0,127.0,-119.0,-90.0,116.0
123.0,134.0,127.0,125.0,128.0,136.0,134.0,129.0,-1.0,103.0,-65.0,127.0,127.0,127.0,-119.0,-90.0,116.0
123.0,133.0,127.0,125.0,128.0,136.0,134.0,129.0,-1.0,103.0,-65.0,127.0,127.0,127.0,-119.0,-90.0,116.0
123.0,133.0,127.0,125.0,127.0,136.0,134.0,129.0,-1.0,103.0,-65.0,127.0,127.0,127.0,-119.0,-90.0,116.0
123.0,133.0,127.0,125.0,127.0,136.0,134.0,129.0,-1.0,103.0,-65.0,127.0,127.0,127.0,-119.0,-90.0,116.0
124.0,132.0,126.0,124.0,126.0,135.0,135.0,127.0,-1.0,102.0,-65.0,127.0,127.0,127.0,-119.0,-90.0,116.0
124.0,132.0,126.0,124.0,126.0,135.0,135.0,127.0,-1.0,102.0,-65.0,127.0,127.0,127.0,-119.0,-90.0,116.0
124.0,132.0,126.0,124.0,126.0,135.0,135.0,127.0,-1.0,102.0,-65.0,127.0,127.0,127.0,-119.0,-90.0,116.0
124.0,132.0,125.0,124.0,126.0,136.0,135.0,127.0,-1.0,102.0,-65.0,127.0,127.0,127.0,-119.0,-90.0,116.0
124.0,132.0,125.0,124.0,126.0,137.0,135.0,128.0,-1.0,102.0,-65.0,127.0,127.0,127.0,-119.0,-90.0,116.0
124.0,132.0,125.0,124.0,126.0,137.0,135.0,128.0,-1.0,102.0,-65.0,127.0,127.0,127.0,-119.0,-90.0,116.0
125.0,132.0,126.0,124.0,126.0,138.0,135.0,128.0,-1.0,102.0,-65.0,127.0,127.0,127.0,-119.0,-90.0,116.0
125.0,132.0,126.0,124.0,126.0,138.0,135.0,128.0,-1.0,102.0,-65.0,127.0,127.0,127.0,-119.0,-90.0,116.0
125.0,132.0,126.0,124.0,127.0,138.0,135.0,128.0,-1.0,102.0,-65.0,127.0,127.0,127.0,-119.0,-90.0,116.0
125.0,132.0,126.0,124.0,127.0,139.0,135.0,128.0,-1.0,102.0,-65.0,127.0,127.0,127.0,-119.0,-90.0,116.0
125.0,132.0,126.0,124.0,126.0,133.0,137.0,127.0,-1.0,102.0,-66.0,127.0,127.0,127.0,-118.0,-90.0,116.0
125.0,132.0,126.0,124.0,127.0,133.0,137.0,127.0,-1.0,102.0,-66.0,127.0,127.0,127.0,-118.0,-90.0,116.0
125.0,132.0,126.0,124.0,127.0,134.0,137.0,127.0,-1.0,102.0,-66.0,127.0,127.0,127.0,-118.0,-90.0,116.0
125.0,132.0,126.0,124.0,127.0,135.0,137.0,128.0,-1.0,102.0,-66.0,127.0,127.0,127.0,-118.0,-90.0,116.0
125.0,132.0,127.0,124.0,127.0,135.0,137.0,128.0,-1.0,102.0,-66.0,127.0,127.0,127.0,-118.0,-90.0,116.0
125.0,132.0,127.0,124.0,127.0,136.0,136.0,128.0,-1.0,102.0,-66.0,127.0,127.0,127.0,-118.0,-90.0,116.0
126.0,132.0,127.0,124.0,127.0,137.0,136.0,129.0,-1.0,102.0,-66.0,127.0,127.0,127.0,-118.0,-90.0,116.0
126.0,132.0,127.0,124.0,128.0,137.0,136.0,129.0,-1.0,102.0,-66.0,127.0,127.0,127.0,-118.0,-90.0,116.0
126.0,132.0,127.0,124.0,128.0,138.0,136.0,129.0,-1.0,102.0,-66.0,127.0,127.0,127.0,-118.0,-90.0,116.0
125.0,132.0,126.0,124.0,126.0,133.0,137.0,127.0,-1.0,102.0,-66.0,127.0,127.0,127.0,-118.0,-90.0,116.0
125.0,130.0,126.0,117.0,126.0,134.0,135.0,127.0,-1.0,102.0,-66.0,127.0,127.0,127.0,-118.0,-90.0,116.0
125.0,130.0,126.0,117.0,126.0,134.0,135.0,127.0,-1.0,102.0,-66.0,127.0,127.0,127.0,-118.0,-90.0,116.0
125.0,130.0,126.0,117.0,126.0,134.0,135.0,127.0,-1.0,102.0,-66.0,127.0,127.0,127.0,-118.0,-90.0,116.0
125.0,130.0,126.0,116.0,126.0,134.0,135.0,127.0,-1.0,102.0,-66.0,127.0,127.0,127.0,-118.0,-90.0,116.0
125.0,130.0,126.0,116.0,126.0,134.0,134.0,127.0,-1.0,102.0,-66.0,127.0,127.0,127.0,-118.0,-90.0,116.0
125.0,130.0,126.0,116.0,126.0,135.0,134.0,127.0,-1.0,102.0,-66.0,127.0,127.0,127.0,-118.0,-90.0,116.0
125.0,130.0,126.0,116.0,126.0,135.0,134.0,127.0,-1.0,102.0,-66.0,127.0,127.0,127.0,-118.0,-90.0,116.0
125.0,130.0,126.0,116.0,126.0,135.0,134.0,127.0,-1.0,102.0,-66.0,127.0,127.0,127.0,-118.0,-90.0,116.0
125.0,130.0,126.0,117.0,126.0,134.0,135.0,127.0,-1.0,102.0,-66.0,127.0,127.0,127.0,-118.0,-90.0,116.0
125.0,130.0,126.0,117.0,126.0,134.0,135.0,127.0,-1.0,102.0,-66.0,127.0,127.0,127.0,-118.0,-90.0,116.0
125.0,131.0,126.0,106.0,126.0,132.0,135.0,127.0,-1.0,102.0,-67.0,127.0,127.0,127.0,-118.0,-90.0,116.0
125.0,131.0,126.0,106.0,126.0,132.0,135.0,127.0,-1.0,102.0,-67.0,127.0,127.0,127.0,-118.0,-90.0,116.0
125.0,131.0,126.0,106.0,126.0,132.0,135.0,127.0,-1.0,102.0,-67.0,127.0,127.0,127.0,-118.0,-90.0,116.0
125.0,131.0,126.0,106.0,126.0,133.0,135.0,127.0,-1.0,102.0,-67.0,127.0,127.0,127.0,-118.0,-90.0,116.0
125.0,130.0,126.0,106.0,126.0,133.0,135.0,127.0,-1.0,102.0,-67.0,127.0,127.0,127.0,-118.0,-90.0,116.0
125.0,130.0,126.0,106.0,126.0,133.0,135.0,127.0,-1.0,102.0,-67.0,127.0,127.0,127.0,-118.0,-90.0,116.0
125.0,130.0,126.0,106.0,127.0,133.0,135.0,127.0,-1.0,102.0,-67.0,127.0,127.0,127.0,-118.0,-90.0,116.0
125.0,131.0,126.0,106.0,125.0,132.0,135.0,127.0,-1.0,102.0,-67.0,127.0,127.0,127.0,-118.0,-90.0,116.0
125.0,131.0,126.0,106.0,125.0,132.0,135.0,127.0,-1.0,102.0,-67.0,127.0,127.0,127.0,-118.0,-90.0,116.0
125.0,131.0,126.0,106.0,126.0,132.0,135.0,127.0,-1.0,102.0,-67.0,127.0,127.0,127.0,-118.0,-90.0,116.0
124.0,129.0,126.0,108.0,127.0,134.0,133.0,126.0,-1.0,103.0,-67.0,127.0,127.0,127.0,-118.0,-90.0,116.0
124.0,129.0,126.0,108.0,127.0,134.0,134.0,125.0,-1.0,103.0,-67.0,127.0,127.0,127.0,-118.0,-90.0,116.0
124.0,129.0,126.0,108.0,127.0,134.0,134.0,125.0,-1.0,103.0,-67.0,127.0,127.0,127.0,-118.0,-90.0,116.0
124.0,129.0,126.0,108.0,127.0,133.0,134.0,125.0,-1.0,103.0,-67.0,127.0,127.0,127.0,-118.0,-90.0,116.0
124.0,129.0,126.0,108.0,127.0,133.0,134.0,125.0,-1.0,103.0,-67.0,127.0,127.0,127.0,-118.0,-90.0,116.0
124.0,129.0,126.0,108.0,127.0,133.0,134.0,125.0,-1.0,103.0,-67.0,127.0,127.0,127.0,-118.0,-90.0,116.0
124.0,129.0,126.0,108.0,127.0,134.0,133.0,125.0,-1.0,103.0,-67.0,127.0,127.0,127.0,-118.0,-90.0,116.0
124.0,129.0,126.0,108.0,127.0,135.0,133.0,126.0,-1.0,103.0,-67.0,127.0,127.0,127.0,-118.0,-90.0,116.0
124.0,129.0,126.0,108.0,127.0,135.0,133.0,126.0,-1.0,103.0,-67.0,127.0,127.0,127.0,-118.0,-90.0,116.0
124.0,129.0,126.0,108.0,127.0,134.0,133.0,126.0,-1.0,103.0,-67.0,127.0,127.0,127.0,-118.0,-90.0,116.0
124.0,128.0,126.0,115.0,125.0,136.0,129.0,126.0,-1.0,104.0,-67.0,127.0,127.0,127.0,-118.0,-90.0,116.0
124.0,127.0,126.0,115.0,125.0,135.0,129.0,126.0,-1.0,104.0,-67.0,127.0,127.0,127.0,-118.0,-90.0,116.0
124.0,127.0,126.0,115.0,125.0,135.0,129.0,126.0,-1.0,104.0,-67.0,127.0,127.0,127.0,-118.0,-90.0,116.0
124.0,127.0,126.0,115.0,125.0,135.0,129.0,126.0,-1.0,104.0,-67.0,127.0,127.0,127.0,-118.0,-90.0,116.0
124.0,127.0,126.0,115.0,125.0,135.0,129.0,126.0,-1.0,104.0,-67.0,127.0,127.0,127.0,-118.0,-90.0,116.0
124.0,127.0,126.0,114.0,125.0,135.0,131.0,125.0,-1.0,104.0,-67.0,127.0,127.0,127.0,-118.0,-90.0,116.0
124.0,128.0,126.0,114.0,125.0,135.0,131.0,126.0,-1.0,104.0,-67.0,127.0,127.0,127.0,-118.0,-90.0,116.0
124.0,128.0,126.0,114.0,125.0,135.0,131.0,126.0,-1.0,104.0,-67.0,127.0,127.0,127.0,-118.0,-90.0,116.0
124.0,127.0,126.0,114.0,125.0,135.0,130.0,126.0,-1.0,104.0,-67.0,127.0,127.0,127.0,-118.0,-90.0,116.0
124.0,127.0,126.0,114.0,125.0,136.0,130.0,126.0,-1.0,104.0,-67.0,127.0,127.0,127.0,-118.0,-90.0,116.0
124.0,126.0,126.0,119.0,125.0,132.0,139.0,119.0,-1.0,104.0,-68.0,127.0,127.0,127.0,-118.0,-90.0,116.0
124.0,126.0,126.0,119.0,125.0,132.0,139.0,118.0,-1.0,104.0,-68.0,127.0,127.0,127.0,-118.0,-90.0,116.0
124.0,126.0,126.0,119.0,125.0,132.0,139.0,118.0,-1.0,104.0,-68.0,127.0,127.0,127.0,-118.0,-90.0,116.0
124.0,126.0,126.0,120.0,125.0,132.0,138.0,118.0,-1.0,104.0,-68.0,127.0,127.0,127.0,-118.0,-90.0,116.0
123.0,127.0,126.0,119.0,125.0,131.0,139.0,121.0,-1.0,104.0,-68.0,127.0,127.0,127.0,-118.0,-90.0,116.0
123.0,127.0,126.0,119.0,125.0,131.0,139.0,121.0,-1.0,104.0,-68.0,127.0,127.0,127.0,-118.0,-90.0,116.0
124.0,127.0,126.0,119.0,125.0,131.0,139.0,120.0,-1.0,104.0,-68.0,127.0,127.0,127.0,-118.0,-90.0,116.0
123.0,126.0,126.0,119.0,125.0,131.0,139.0,120.0,-1.0,104.0,-68.0,127.0,127.0,127.0,-118.0,-90.0,116.0
124.0,126.0,126.0,119.0,125.0,132.0,139.0,120.0,-1.0,104.0,-68.0,127.0,127.0,127.0,-118.0,-90.0,116.0
124.0,126.0,126.0,119.0,125.0,132.0,139.0,119.0,-1.0,104.0,-68.0,127.0,127.0,127.0,-118.0,-90.0,116.0
124.0,126.0,125.0,120.0,126.0,132.0,102.0,120.0,-1.0,104.0,-68.0,127.0,127.0,127.0,-118.0,-90.0,116.0
124.0,126.0,125.0,120.0,126.0,132.0,102.0,120.0,-1.0,104.0,-68.0,127.0,127.0,127.0,-118.0,-90.0,116.0
124.0,126.0,125.0,120.0,126.0,132.0,102.0,120.0,-1.0,104.0,-68.0,127.0,127.0,127.0,-118.0,-90.0,116.0
124.0,126.0,124.0,120.0,126.0,132.0,105.0,119.0,-1.0,104.0,-68.0,127.0,127.0,127.0,-118.0,-90.0,116.0
124.0,126.0,124.0,120.0,126.0,132.0,104.0,119.0,-1.0,104.0,-68.0,127.0,127.0,127.0,-118.0,-90.0,116.0
124.0,126.0,124.0,120.0,126.0,132.0,104.0,119.0,-1.0,104.0,-68.0,127.0,127.0,127.0,-118.0,-90.0,116.0
124.0,126.0,124.0,120.0,126.0,132.0,103.0,119.0,-1.0,104.0,-68.0,127.0,127.0,127.0,-118.0,-90.0,116.0
124.0,126.0,124.0,120.0,125.0,132.0,103.0,119.0,-1.0,104.0,-68.0,127.0,127.0,127.0,-118.0,-90.0,116.0
124.0,126.0,124.0,120.0,125.0,132.0,102.0,120.0,-1.0,104.0,-68.0,127.0,127.0,127.0,-118.0,-90.0,116.0
124.0,126.0,124.0,120.0,126.0,132.0,102.0,120.0,-1.0,104.0,-68.0,127.0,127.0,127.0,-118.0,-90.0,116.0
125.0,125.0,124.0,122.0,125.0,130.0,36.0,127.0,-1.0,104.0,-69.0,127.0,127.0,127.0,-118.0,-90.0,116.0
125.0,125.0,124.0,122.0,125.0,130.0,34.0,127.0,-1.0,104.0,-69.0,127.0,127.0,127.0,-118.0,-90.0,116.0
125.0,126.0,124.0,121.0,125.0,129.0,55.0,126.0,-1.0,104.0,-69.0,127.0,127.0,127.0,-118.0,-90.0,116.0
125.0,125.0,124.0,121.0,125.0,129.0,52.0,126.0,-1.0,104.0,-69.0,127.0,127.0,127.0,-118.0,-90.0,116.0
125.0,125.0,124.0,121.0,125.0,129.0,50.0,126.0,-1.0,104.0,-69.0,127.0,127.0,127.0,-118.0,-90.0,116.0
125.0,125.0,124.0,121.0,125.0,129.0,47.0,126.0,-1.0,104.0,-69.0,127.0,127.0,127.0,-118.0,-90.0,116.0
125.0,125.0,124.0,121.0,125.0,129.0,45.0,126.0,-1.0,104.0,-69.0,127.0,127.0,127.0,-118.0,-90.0,116.0
125.0,126.0,124.0,122.0,125.0,130.0,43.0,126.0,-1.0,104.0,-69.0,127.0,127.0,127.0,-118.0,-90.0,116.0
125.0,126.0,124.0,122.0,125.0,130.0,40.0,126.0,-1.0,104.0,-69.0,127.0,127.0,127.0,-118.0,-90.0,116.0
125.0,125.0,124.0,122.0,125.0,130.0,38.0,127.0,-1.0,104.0,-69.0,127.0,127.0,127.0,-118.0,-90.0,116.0
127.0,125.0,125.0,123.0,125.0,128.0,0.0,129.0,-1.0,104.0,-69.0,-128.0,127.0,127.0,-118.0,-90.0,116.0
126.0,125.0,124.0,123.0,125.0,127.0,0.0,128.0,-1.0,104.0,-69.0,-128.0,127.0,127.0,-118.0,-90.0,116.0
126.0,125.0,124.0,123.0,125.0,127.0,0.0,128.0,-1.0,104.0,-69.0,-128.0,127.0,127.0,-118.0,-90.0,116.0
126.0,125.0,124.0,123.0,125.0,127.0,0.0,128.0,-1.0,104.0,-69.0,-128.0,127.0,127.0,-118.0,-90.0,116.0
126.0,125.0,124.0,123.0,125.0,127.0,0.0,128.0,-1.0,104.0,-69.0,-128.0,127.0,127.0,-118.0,-90.0,116.0
126.0,125.0,124.0,123.0,125.0,127.0,0.0,128.0,-1.0,104.0,-69.0,-128.0,127.0,127.0,-118.0,-90.0,116.0
126.0,125.0,124.0,123.0,124.0,128.0,0.0,129.0,-1.0,104.0,-69.0,-128.0,127.0,127.0,-118.0,-90.0,116.0
126.0,125.0,124.0,123.0,124.0,128.0,0.0,129.0,-1.0,104.0,-69.0,-128.0,127.0,127.0,-118.0,-90.0,116.0
126.0,125.0,125.0,123.0,125.0,128.0,0.0,129.0,-1.0,104.0,-69.0,-128.0,127.0,127.0,-118.0,-90.0,116.0
127.0,125.0,125.0,123.0,125.0,128.0,0.0,129.0,-1.0,104.0,-69.0,-128.0,127.0,127.0,-118.0,-90.0,116.0
131.0,124.0,124.0,122.0,125.0,124.0,0.0,131.0,-1.0,104.0,-69.0,-128.0,127.0,127.0,-118.0,-90.0,116.0
131.0,124.0,125.0,122.0,125.0,123.0,0.0,131.0,-1.0,104.0,-69.0,-128.0,127.0,127.0,-118.0,-90.0,116.0
131.0,124.0,125.0,122.0,125.0,123.0,0.0,130.0,-1.0,104.0,-69.0,-128.0,127.0,127.0,-118.0,-90.0,116.0
131.0,124.0,125.0,122.0,125.0,123.0,0.0,130.0,-1.0,104.0,-69.0,-128.0,127.0,127.0,-118.0,-90.0,116.0
131.0,124.0,125.0,123.0,125.0,123.0,0.0,130.0,-1.0,104.0,-69.0,-128.0,127.0,127.0,-118.0,-90.0,116.0
130.0,124.0,125.0,123.0,125.0,123.0,0.0,130.0,-1.0,104.0,-69.0,-128.0,127.0,127.0,-118.0,-90.0,116.0
130.0,124.0,125.0,123.0,125.0,123.0,0.0,130.0,-1.0,104.0,-69.0,-128.0,127.0,127.0,-118.0,-90.0,116.0
130.0,124.0,125.0,123.0,125.0,123.0,0.0,130.0,-1.0,104.0,-69.0,-128.0,127.0,127.0,-118.0,-90.0,116.0
130.0,124.0,125.0,123.0,125.0,124.0,0.0,131.0,-1.0,104.0,-69.0,-128.0,127.0,127.0,-118.0,-90.0,116.0
130.0,124.0,125.0,123.0,125.0,124.0,0.0,131.0,-1.0,104.0,-69.0,-128.0,127.0,127.0,-118.0,-90.0,116.0
128.0,124.0,126.0,123.0,126.0,123.0,0.0,129.0,-1.0,104.0,-68.0,-128.0,127.0,127.0,-118.0,-90.0,116.0
128.0,124.0,126.0,123.0,125.0,124.0,0.0,129.0,-1.0,104.0,-68.0,-128.0,127.0,127.0,-118.0,-90.0,116.0
128.0,125.0,126.0,123.0,125.0,124.0,0.0,129.0,-1.0,104.0,-68.0,-128.0,127.0,127.0,-118.0,-90.0,116.0
128.0,125.0,126.0,123.0,125.0,124.0,0.0,129.0,-1.0,104.0,-68.0,-128.0,127.0,127.0,-118.0,-90.0,116.0
128.0,125.0,126.0,123.0,126.0,124.0,0.0,129.0,-1.0,104.0,-68.0,-128.0,127.0,127.0,-118.0,-90.0,116.0
128.0,124.0,126.0,123.0,126.0,124.0,0.0,129.0,-1.0,104.0,-68.0,-128.0,127.0,127.0,-118.0,-90.0,116.0
128.0,124.0,126.0,123.0,126.0,124.0,0.0,129.0,-1.0,104.0,-68.0,-128.0,127.0,127.0,-118.0,-90.0,116.0
128.0,124.0,126.0,123.0,126.0,124.0,0.0,129.0,-1.0,104.0,-68.0,-128.0,127.0,127.0,-118.0,-90.0,116.0
127.0,124.0,126.0,123.0,126.0,124.0,0.0,129.0,-1.0,104.0,-68.0,-128.0,127.0,127.0,-118.0,-90.0,116.0
128.0,124.0,126.0,123.0,125.0,123.0,0.0,129.0,-1.0,104.0,-68.0,-128.0,127.0,127.0,-118.0,-90.0,116.0
127.0,125.0,126.0,123.0,126.0,124.0,0.0,127.0,-1.0,105.0,-67.0,-128.0,127.0,127.0,-118.0,-90.0,116.0
127.0,125.0,126.0,123.0,126.0,124.0,0.0,127.0,-1.0,105.0,-67.0,-128.0,127.0,127.0,-118.0,-90.0,116.0
127.0,125.0,127.0,123.0,126.0,124.0,0.0,127.0,-1.0,105.0,-67.0,-128.0,127.0,127.0,-118.0,-90.0,116.0
127.0,125.0,127.0,123.0,126.0,124.0,0.0,127.0,-1.0,105.0,-67.0,-128.0,127.0,127.0,-118.0,-90.0,116.0
127.0,125.0,127.0,123.0,126.0,124.0,0.0,127.0,-1.0,105.0,-67.0,-128.0,127.0,127.0,-118.0,-90.0,116.0
127.0,125.0,127.0,123.0,126.0,124.0,0.0,127.0,-1.0,105.0,-67.0,-128.0,127.0,127.0,-118.0,-90.0,116.0
127.0,125.0,127.0,123.0,126.0,124.0,0.0,127.0,-1.0,105.0,-67.0,-128.0,127.0,127.0,-118.0,-90.0,116.0
126.0,125.0,127.0,123.0,126.0,124.0,0.0,126.0,-1.0,105.0,-67.0,-128.0,127.0,127.0,-118.0,-90.0,116.0
127.0,125.0,126.0,123.0,126.0,123.0,0.0,127.0,-1.0,105.0,-67.0,-128.0,127.0,127.0,-118.0,-90.0,116.0
127.0,125.0,127.0,123.0,126.0,123.0,0.0,127.0,-1.0,105.0,-67.0,-128.0,127.0,127.0,-118.0,-90.0,116.0
126.0,124.0,126.0,125.0,126.0,125.0,32.0,125.0,-1.0,105.0,-66.0,-128.0,127.0,127.0,-118.0,-90.0,116.0
126.0,124.0,126.0,125.0,126.0,125.0,33.0,125.0,-1.0,105.0,-66.0,-128.0,127.0,127.0,-118.0,-90.0,116.0
126.0,124.0,126.0,125.0,126.0,125.0,35.0,125.0,-1.0,105.0,-66.0,-128.0,127.0,127.0,-118.0,-90.0,116.0
126.0,124.0,126.0,125.0,126.0,125.0,36.0,125.0,-1.0,105.0,-66.0,-128.0,127.0,127.0,-118.0,-90.0,116.0
126.0,124.0,126.0,125.0,126.0,125.0,37.0,125.0,-1.0,105.0,-66.0,-128.0,127.0,127.0,-118.0,-90.0,116.0
126.0,124.0,127.0,125.0,127.0,125.0,39.0,124.0,-1.0,105.0,-66.0,-128.0,127.0,127.0,-118.0,-90.0,116.0
126.0,124.0,127.0,125.0,127.0,125.0,40.0,124.0,-1.0,105.0,-66.0,-128.0,127.0,127.0,-118.0,-90.0,116.0
126.0,124.0,126.0,124.0,126.0,125.0,28.0,125.0,-1.0,105.0,-66.0,-128.0,127.0,127.0,-118.0,-90.0,116.0
126.0,124.0,126.0,124.0,126.0,125.0,29.0,125.0,-1.0,105.0,-66.0,-128.0,127.0,127.0,-118.0,-90.0,116.0
126.0,124.0,126.0,124.0,126.0,125.0,30.0,125.0,-1.0,105.0,-66.0,-128.0,127.0,127.0,-118.0,-90.0,116.0
126.0,125.0,127.0,125.0,127.0,126.0,70.0,123.0,-1.0,105.0,-65.0,-128.0,127.0,127.0,-118.0,-90.0,116.0
126.0,125.0,127.0,125.0,127.0,126.0,70.0,123.0,-1.0,105.0,-65.0,-128.0,127.0,127.0,-118.0,-90.0,116.0
126.0,125.0,127.0,125.0,127.0,126.0,71.0,123.0,-1.0,105.0,-65.0,-128.0,127.0,127.0,-118.0,-90.0,116.0
126.0,125.0,127.0,125.0,127.0,126.0,71.0,123.0,-1.0,105.0,-65.0,-128.0,127.0,127.0,-118.0,-90.0,116.0
126.0,125.0,127.0,125.0,127.0,126.0,71.0,123.0,-1.0,105.0,-65.0,-128.0,127.0,127.0,-118.0,-90.0,116.0
126.0,124.0,127.0,125.0,128.0,126.0,71.0,123.0,-1.0,105.0,-65.0,-128.0,127.0,127.0,-118.0,-90.0,116.0
126.0,125.0,127.0,125.0,127.0,125.0,69.0,123.0,-1.0,105.0,-65.0,-128.0,127.0,127.0,-118.0,-90.0,116.0
126.0,124.0,127.0,125.0,127.0,125.0,69.0,123.0,-1.0,105.0,-65.0,-128.0,127.0,127.0,-118.0,-90.0,116.0
126.0,125.0,126.0,125.0,127.0,126.0,69.0,123.0,-1.0,105.0,-65.0,-128.0,127.0,127.0,-118.0,-90.0,116.0
126.0,125.0,126.0,125.0,127.0,126.0,70.0,123.0,-1.0,105.0,-65.0,-128.0,127.0,127.0,-118.0,-90.0,116.0
124.0,125.0,127.0,124.0,126.0,126.0,89.0,123.0,-1.0,105.0,-64.0,-128.0,127.0,127.0,-118.0,-90.0,116.0
124.0,125.0,127.0,124.0,127.0,126.0,89.0,123.0,-1.0,105.0,-64.0,-128.0,127.0,127.0,-118.0,-90.0,116.0
124.0,125.0,127.0,124.0,127.0,126.0,88.0,123.0,-1.0,105.0,-64.0,-128.0,127.0,127.0,-118.0,-90.0,116.0
124.0,125.0,127.0,124.0,127.0,126.0,88.0,123.0,-1.0,105.0,-64.0,-128.0,127.0,127.0,-118.0,-90.0,116.0
124.0,125.0,128.0,124.0,127.0,126.0,87.0,123.0,-1.0,105.0,-64.0,-128.0,127.0,127.0,-118.0,-90.0,116.0
124.0,125.0,127.0,124.0,127.0,125.0,88.0,123.0,-1.0,105.0,-64.0,-128.0,127.0,127.0,-118.0,-90.0,116.0
124.0,125.0,127.0,124.0,127.0,125.0,89.0,123.0,-1.0,105.0,-64.0,-128.0,127.0,127.0,-118.0,-90.0,116.0
124.0,125.0,127.0,124.0,127.0,125.0,89.0,123.0,-1.0,105.0,-64.0,-128.0,127.0,127.0,-118.0,-90.0,116.0
124.0,125.0,127.0,124.0,126.0,126.0,89.0,123.0,-1.0,105.0,-64.0,-128.0,127.0,127.0,-118.0,-90.0,116.0
124.0,125.0,127.0,124.0,126.0,126.0,89.0,123.0,-1.0,105.0,-64.0,-128.0,127.0,127.0,-118.0,-90.0,116.0
124.0,125.0,127.0,124.0,126.0,127.0,79.0,122.0,-1.0,105.0,-64.0,-128.0,127.0,127.0,-118.0,-90.0,116.0
124.0,125.0,127.0,124.0,126.0,127.0,79.0,122.0,-1.0,105.0,-64.0,-128.0,127.0,127.0,-118.0,-90.0,116.0
124.0,125.0,127.0,124.0,126.0,126.0,80.0,122.0,-1.0,105.0,-64.0,-128.0,127.0,127.0,-118.0,-90.0,116.0
124.0,125.0,128.0,124.0,127.0,126.0,80.0,122.0,-1.0,105.0,-64.0,-128.0,127.0,127.0,-118.0,-90.0,116.0
124.0,125.0,127.0,124.0,127.0,126.0,77.0,122.0,-1.0,105.0,-64.0,-128.0,127.0,127.0,-118.0,-90.0,116.0
124.0,125.0,127.0,124.0,126.0,126.0,77.0,122.0,-1.0,105.0,-64.0,-128.0,127.0,127.0,-118.0,-90.0,116.0
124.0,125.0,127.0,124.0,126.0,126.0,77.0,122.0,-1.0,105.0,-64.0,-128.0,127.0,127.0,-118.0,-90.0,116.0
124.0,125.0,127.0,124.0,126.0,127.0,78.0,122.0,-1.0,105.0,-64.0,-128.0,127.0,127.0,-118.0,-90.0,116.0
124.0,125.0,127.0,124.0,126.0,127.0,78.0,122.0,-1.0,105.0,-64.0,-128.0,127.0,127.0,-118.0,-90.0,116.0
124.0,125.0,127.0,124.0,126.0,127.0,79.0,122.0,-1.0,105.0,-64.0,-128.0,127.0,127.0,-118.0,-90.0,116.0
125.0,126.0,127.0,124.0,126.0,125.0,104.0,122.0,-1.0,105.0,-64.0,-128.0,127.0,127.0,-118.0,-90.0,116.0
125.0,126.0,127.0,124.0,126.0,125.0,105.0,122.0,-1.0,105.0,-64.0,-128.0,127.0,127.0,-118.0,-90.0,116.0
125.0,126.0,127.0,124.0,126.0,125.0,105.0,122.0,-1.0,105.0,-64.0,-128.0,127.0,127.0,-118.0,-90.0,116.0
125.0,126.0,127.0,124.0,126.0,125.0,102.0,122.0,-1.0,105.0,-64.0,-128.0,127.0,127.0,-118.0,-90.0,116.0
125.0,126.0,127.0,124.0,126.0,125.0,102.0,122.0,-1.0,105.0,-64.0,-128.0,127.0,127.0,-118.0,-90.0,116.0
125.0,126.0,127.0,124.0,126.0,125.0,103.0,122.0,-1.0,105.0,-64.0,-128.0,127.0,127.0,-118.0,-90.0,116.0
125.0,126.0,127.0,124.0,126.0,125.0,103.0,122.0,-1.0,105.0,-64.0,-128.0,127.0,127.0,-118.0,-90.0,116.0
125.0,126.0,127.0,124.0,126.0,126.0,103.0,122.0,-1.0,105.0,-64.0,-128.0,127.0,127.0,-118.0,-90.0,116.0
125.0,126.0,127.0,124.0,126.0,125.0,104.0,122.0,-1.0,105.0,-64.0,-128.0,127.0,127.0,-118.0,-90.0,116.0
125.0,126.0,127.0,124.0,126.0,125.0,104.0,122.0,-1.0,105.0,-64.0,-128.0,127.0,127.0,-118.0,-90.0,116.0
125.0,126.0,127.0,125.0,126.0,125.0,126.0,122.0,-1.0,106.0,-64.0,127.0,127.0,127.0,-118.0,-90.0,116.0
125.0,126.0,127.0,125.0,126.0,125.0,127.0,122.0,-1.0,106.0,-64.0,127.0,127.0,127.0,-118.0,-90.0,116.0
125.0,126.0,127.0,125.0,127.0,124.0,123.0,121.0,-1.0,106.0,-64.0,127.0,127.0,127.0,-118.0,-90.0,116.0
125.0,126.0,127.0,125.0,127.0,124.0,123.0,121.0,-1.0,106.0,-64.0,127.0,127.0,127.0,-118.0,-90.0,116.0
125.0,126.0,127.0,125.0,127.0,124.0,124.0,121.0,-1.0,106.0,-64.0,127.0,127.0,127.0,-118.0,-90.0,116.0
125.0,126.0,127.0,125.0,126.0,124.0,124.0,121.0,-1.0,106.0,-64.0,127.0,127.0,127.0,-118.0,-90.0,116.0
125.0,126.0,127.0,125.0,126.0,124.0,125.0,121.0,-1.0,106.0,-64.0,127.0,127.0,127.0,-118.0,-90.0,116.0
125.0,126.0,127.0,125.0,126.0,124.0,125.0,122.0,-1.0,106.0,-64.0,127.0,127.0,127.0,-118.0,-90.0,116.0
125.0,126.0,127.0,125.0,126.0,125.0,125.0,122.0,-1.0,106.0,-64.0,127.0,127.0,127.0,-118.0,-90.0,116.0
125.0,126.0,127.0,125.0,126.0,125.0,126.0,122.0,-1.0,106.0,-64.0,127.0,127.0,127.0,-118.0,-90.0,116.0
126.0,126.0,127.0,126.0,126.0,125.0,138.0,122.0,-1.0,106.0,-64.0,127.0,127.0,127.0,-118.0,-90.0,116.0
126.0,126.0,127.0,126.0,126.0,125.0,138.0,122.0,-1.0,106.0,-64.0,127.0,127.0,127.0,-118.0,-90.0,116.0
126.0,126.0,127.0,126.0,126.0,125.0,138.0,122.0,-1.0,106.0,-64.0,127.0,127.0,127.0,-118.0,-90.0,116.0
126.0,126.0,127.0,126.0,126.0,125.0,138.0,122.0,-1.0,106.0,-64.0,127.0,127.0,127.0,-118.0,-90.0,116.0
126.0,126.0,127.0,126.0,126.0,125.0,138.0,122.0,-1.0,106.0,-64.0,127.0,127.0,127.0,-118.0,-90.0,116.0
126.0,126.0,127.0,126.0,126.0,125.0,138.0,122.0,-1.0,106.0,-64.0,127.0,127.0,127.0,-118.0,-90.0,116.0
126.0,126.0,127.0,126.0,126.0,125.0,138.0,122.0,-1.0,106.0,-64.0,127.0,127.0,127.0,-118.0,-90.0,116.0
126.0,126.0,127.0,126.0,126.0,125.0,138.0,122.0,-1.0,106.0,-64.0,127.0,127.0,127.0,-118.0,-90.0,116.0
126.0,126.0,127.0,126.0,126.0,125.0,138.0,122.0,-1.0,106.0,-64.0,127.0,127.0,127.0,-118.0,-90.0,116.0
126.0,126.0,127.0,126.0,126.0,125.0,138.0,122.0,-1.0,106.0,-64.0,127.0,127.0,127.0,-118.0,-90.0,116.0
126.0,126.0,127.0,126.0,126.0,126.0,138.0,121.0,-1.0,106.0,-65.0,127.0,127.0,127.0,-118.0,-90.0,116.0
126.0,126.0,127.0,126.0,126.0,127.0,137.0,121.0,-1.0,106.0,-65.0,127.0,127.0,127.0,-118.0,-90.0,116.0
126.0,126.0,127.0,126.0,126.0,127.0,137.0,121.0,-1.0,106.0,-65.0,127.0,127.0,127.0,-118.0,-90.0,116.0
126.0,126.0,127.0,126.0,126.0,127.0,137.0,121.0,-1.0,106.0,-65.0,127.0,127.0,127.0,-118.0,-90.0,116.0
126.0,126.0,127.0,126.0,126.0,126.0,137.0,121.0,-1.0,106.0,-65.0,127.0,127.0,127.0,-118.0,-90.0,116.0
126.0,126.0,127.0,126.0,126.0,127.0,137.0,121.0,-1.0,106.0,-65.0,127.0,127.0,127.0,-118.0,-90.0,116.0
126.0,126.0,127.0,126.0,127.0,126.0,137.0,121.0,-1.0,106.0,-65.0,127.0,127.0,127.0,-118.0,-90.0,116.0
126.0,126.0,127.0,126.0,127.0,126.0,137.0,120.0,-1.0,106.0,-65.0,127.0,127.0,127.0,-118.0,-90.0,116.0
126.0,126.0,127.0,126.0,127.0,126.0,137.0,120.0,-1.0,106.0,-65.0,127.0,127.0,127.0,-118.0,-90.0,116.0
126.0,126.0,127.0,126.0,127.0,126.0,137.0,120.0,-1.0,106.0,-65.0,127.0,127.0,127.0,-118.0,-90.0,116.0
126.0,126.0,126.0,126.0,126.0,127.0,143.0,122.0,-1.0,106.0,-66.0,127.0,127.0,127.0,-118.0,-90.0,116.0
126.0,126.0,126.0,126.0,126.0,127.0,143.0,122.0,-1.0,106.0,-66.0,127.0,127.0,127.0,-118.0,-90.0,116.0
126.0,126.0,127.0,127.0,126.0,127.0,143.0,122.0,-1.0,106.0,-66.0,127.0,127.0,127.0,-118.0,-90.0,116.0
126.0,126.0,127.0,127.0,127.0,127.0,143.0,122.0,-1.0,106.0,-66.0,127.0,127.0,127.0,-118.0,-90.0,116.0
126.0,126.0,127.0,127.0,127.0,127.0,143.0,122.0,-1.0,106.0,-66.0,127.0,127.0,127.0,-118.0,-90.0,116.0
126.0,126.0,127.0,127.0,127.0,127.0,143.0,123.0,-1.0,106.0,-66.0,127.0,127.0,127.0,-118.0,-90.0,116.0
126.0,126.0,127.0,127.0,127.0,127.0,144.0,123.0,-1.0,106.0,-66.0,127.0,127.0,127.0,-118.0,-90.0,116.0
126.0,126.0,127.0,127.0,127.0,127.0,144.0,123.0,-1.0,106.0,-66.0,127.0,127.0,127.0,-118.0,-90.0,116.0
126.0,126.0,127.0,127.0,127.0,126.0,144.0,123.0,-1.0,106.0,-66.0,127.0,127.0,127.0,-118.0,-90.0,116.0
126.0,126.0,126.0,126.0,126.0,126.0,143.0,122.0,-1.0,106.0,-66.0,127.0,127.0,127.0,-118.0,-90.0,116.0
126.0,126.0,126.0,126.0,126.0,127.0,142.0,125.0,-1.0,106.0,-66.0,127.0,127.0,127.0,-118.0,-90.0,116.0
126.0,126.0,127.0,126.0,126.0,127.0,142.0,125.0,-1.0,106.0,-66.0,127.0,127.0,127.0,-118.0,-90.0,116.0
126.0,126.0,127.0,126.0,126.0,127.0,142.0,125.0,-1.0,106.0,-66.0,127.0,127.0,127.0,-118.0,-90.0,116.0
126.0,126.0,127.0,126.0,126.0,127.0,142.0,125.0,-1.0,106.0,-66.0,127.0,127.0,127.0,-118.0,-90.0,116.0
126.0,126.0,127.0,126.0,126.0,127.0,141.0,125.0,-1.0,106.0,-66.0,127.0,127.0,127.0,-118.0,-90.0,116.0
126.0,126.0,127.0,126.0,127.0,126.0,141.0,125.0,-1.0,106.0,-66.0,127.0,127.0,127.0,-118.0,-90.0,116.0
126.0,126.0,127.0,126.0,127.0,126.0,141.0,125.0,-1.0,106.0,-66.0,127.0,127.0,127.0,-118.0,-90.0,116.0
126.0,126.0,127.0,126.0,127.0,126.0,141.0,125.0,-1.0,106.0,-66.0,127.0,127.0,127.0,-118.0,-90.0,116.0
126.0,126.0,126.0,126.0,126.0,126.0,143.0,125.0,-1.0,106.0,-66.0,127.0,127.0,127.0,-118.0,-90.0,116.0
126.0,126.0,126.0,126.0,126.0,127.0,142.0,125.0,-1.0,106.0,-66.0,127.0,127.0,127.0,-118.0,-90.0,116.0
126.0,126.0,127.0,126.0,127.0,127.0,137.0,125.0,-1.0,106.0,-67.0,127.0,127.0,127.0,-118.0,-90.0,116.0
126.0,126.0,127.0,126.0,127.0,127.0,137.0,125.0,-1.0,106.0,-67.0,127.0,127.0,127.0,-118.0,-90.0,116.0
126.0,126.0,127.0,126.0,127.0,127.0,137.0,125.0,-1.0,106.0,-67.0,127.0,127.0,127.0,-118.0,-90.0,116.0
126.0,126.0,127.0,126.0,127.0,127.0,137.0,125.0,-1.0,106.0,-67.0,127.0,127.0,127.0,-118.0,-90.0,116.0
126.0,126.0,127.0,126.0,127.0,127.0,137.0,125.0,-1.0,106.0,-67.0,127.0,127.0,127.0,-118.0,-90.0,116.0
126.0,126.0,127.0,126.0,127.0,127.0,136.0,125.0,-1.0,106.0,-67.0,127.0,127.0,127.0,-118.0,-90.0,116.0
126.0,126.0,127.0,126.0,128.0,127.0,136.0,125.0,-1.0,106.0,-67.0,127.0,127.0,127.0,-118.0,-90.0,116.0
125.0,126.0,127.0,126.0,127.0,126.0,137.0,125.0,-1.0,106.0,-67.0,127.0,127.0,127.0,-118.0,-90.0,116.0
126.0,126.0,127.0,126.0,127.0,127.0,137.0,125.0,-1.0,106.0,-67.0,127.0,127.0,127.0,-118.0,-90.0,116.0
126.0,126.0,127.0,126.0,127.0,127.0,137.0,125.0,-1.0,106.0,-67.0,127.0,127.0,127.0,-118.0,-90.0,116.0
126.0,126.0,127.0,126.0,127.0,127.0,133.0,125.0,-1.0,106.0,-67.0,127.0,127.0,127.0,-118.0,-90.0,116.0
126.0,126.0,127.0,126.0,127.0,127.0,133.0,125.0,-1.0,106.0,-67.0,127.0,127.0,127.0,-118.0,-90.0,116.0
126.0,126.0,127.0,126.0,127.0,127.0,133.0,124.0,-1.0,106.0,-67.0,127.0,127.0,127.0,-118.0,-90.0,116.0
126.0,126.0,127.0,126.0,127.0,127.0,133.0,124.0,-1.0,106.0,-67.0,127.0,127.0,127.0,-118.0,-90.0,116.0
126.0,126.0,127.0,126.0,127.0,127.0,133.0,124.0,-1.0,106.0,-67.0,127.0,127.0,127.0,-118.0,-90.0,116.0
126.0,126.0,127.0,126.0,127.0,127.0,133.0,124.0,-1.0,106.0,-67.0,127.0,127.0,127.0,-118.0,-90.0,116.0
126.0,126.0,127.0,126.0,127.0,126.0,134.0,124.0,-1.0,106.0,-67.0,127.0,127.0,127.0,-118.0,-90.0,116.0
126.0,126.0,127.0,126.0,127.0,127.0,133.0,125.0,-1.0,106.0,-67.0,127.0,127.0,127.0,-118.0,-90.0,116.0
126.0,126.0,127.0,126.0,127.0,127.0,133.0,125.0,-1.0,106.0,-67.0,127.0,127.0,127.0,-118.0,-90.0,116.0
126.0,126.0,127.0,126.0,127.0,127.0,133.0,125.0,-1.0,106.0,-67.0,127.0,127.0,127.0,-118.0,-90.0,116.0
126.0,127.0,127.0,127.0,127.0,127.0,133.0,124.0,-1.0,106.0,-67.0,127.0,127.0,127.0,-118.0,-90.0,116.0
126.0,127.0,127.0,127.0,127.0,127.0,133.0,124.0,-1.0,106.0,-67.0,127.0,127.0,127.0,-118.0,-90.0,116.0
126.0,127.0,127.0,127.0,127.0,126.0,134.0,124.0,-1.0,106.0,-67.0,127.0,127.0,127.0,-118.0,-90.0,116.0
126.0,126.0,127.0,127.0,127.0,126.0,134.0,124.0,-1.0,106.0,-67.0,127.0,127.0,127.0,-118.0,-90.0,116.0
126.0,126.0,127.0,127.0,127.0,126.0,134.0,124.0,-1.0,106.0,-67.0,127.0,127.0,127.0,-118.0,-90.0,116.0
126.0,127.0,127.0,127.0,126.0,126.0,134.0,124.0,-1.0,106.0,-67.0,127.0,127.0,127.0,-118.0,-90.0,116.0
126.0,127.0,126.0,127.0,126.0,126.0,133.0,124.0,-1.0,106.0,-67.0,127.0,127.0,127.0,-118.0,-90.0,116.0
126.0,127.0,126.0,127.0,126.0,126.0,133.0,124.0,-1.0,106.0,-67.0,127.0,127.0,127.0,-118.0,-90.0,116.0
126.0,127.0,127.0,127.0,126.0,127.0,133.0,124.0,-1.0,106.0,-67.0,127.0,127.0,127.0,-118.0,-90.0,116.0
126.0,127.0,127.0,127.0,126.0,126.0,133.0,124.0,-1.0,106.0,-67.0,127.0,127.0,127.0,-118.0,-90.0,116.0
126.0,127.0,127.0,126.0,126.0,127.0,138.0,125.0,-1.0,106.0,-66.0,127.0,127.0,127.0,-118.0,-90.0,116.0
126.0,127.0,127.0,126.0,126.0,127.0,138.0,125.0,-1.0,106.0,-66.0,127.0,127.0,127.0,-118.0,-90.0,116.0
126.0,126.0,127.0,126.0,127.0,127.0,138.0,125.0,-1.0,106.0,-66.0,127.0,127.0,127.0,-118.0,-90.0,116.0
126.0,126.0,127.0,126.0,127.0,127.0,137.0,125.0,-1.0,106.0,-66.0,127.0,127.0,127.0,-118.0,-90.0,116.0
126.0,126.0,127.0,126.0,127.0,126.0,138.0,124.0,-1.0,106.0,-66.0,127.0,127.0,127.0,-118.0,-90.0,116.0
126.0,126.0,127.0,126.0,127.0,126.0,138.0,124.0,-1.0,106.0,-66.0,127.0,127.0,127.0,-118.0,-90.0,116.0
126.0,126.0,127.0,126.0,127.0,126.0,138.0,124.0,-1.0,106.0,-66.0,127.0,127.0,127.0,-118.0,-90.0,116.0
126.0,126.0,127.0,126.0,126.0,126.0,138.0,125.0,-1.0,106.0,-66.0,127.0,127.0,127.0,-118.0,-90.0,116.0
126.0,126.0,127.0,126.0,126.0,126.0,138.0,125.0,-1.0,106.0,-66.0,127.0,127.0,127.0,-118.0,-90.0,116.0
126.0,127.0,127.0,126.0,126.0,127.0,138.0,125.0,-1.0,106.0,-66.0,127.0,127.0,127.0,-118.0,-90.0,116.0
126.0,126.0,127.0,126.0,127.0,126.0,138.0,126.0,-1.0,106.0,-66.0,127.0,127.0,127.0,-118.0,-90.0,116.0
126.0,126.0,127.0,126.0,127.0,126.0,138.0,126.0,-1.0,106.0,-66.0,127.0,127.0,127.0,-118.0,-90.0,116.0
126.0,126.0,127.0,126.0,127.0,126.0,138.0,126.0,-1.0,106.0,-66.0,127.0,127.0,127.0,-118.0,-90.0,116.0
126.0,127.0,126.0,126.0,126.0,127.0,138.0,126.0,-1.0,106.0,-66.0,127.0,127.0,127.0,-118.0,-90.0,116.0
126.0,127.0,126.0,126.0,126.0,127.0,138.0,126.0,-1.0,106.0,-66.0,127.0,127.0,127.0,-118.0,-90.0,116.0
126.0,127.0,126.0,126.0,126.0,127.0,138.0,126.0,-1.0,106.0,-66.0,127.0,127.0,127.0,-118.0,-90.0,116.0
126.0,127.0,126.0,126.0,126.0,127.0,138.0,126.0,-1.0,106.0,-66.0,127.0,127.0,127.0,-118.0,-90.0,116.0
126.0,127.0,126.0,126.0,126.0,127.0,138.0,126.0,-1.0,106.0,-66.0,127.0,127.0,127.0,-118.0,-90.0,116.0
126.0,127.0,127.0,126.0,127.0,126.0,138.0,126.0,-1.0,106.0,-66.0,127.0,127.0,127.0,-118.0,-90.0,116.0
126.0,126.0,127.0,126.0,127.0,126.0,138.0,126.0,-1.0,106.0,-66.0,127.0,127.0,127.0,-118.0,-90.0,116.0
126.0,127.0,127.0,126.0,127.0,126.0,138.0,126.0,-1.0,106.0,-66.0,127.0,127.0,127.0,-118.0,-90.0,116.0
126.0,126.0,127.0,126.0,127.0,126.0,138.0,126.0,-1.0,106.0,-66.0,127.0,127.0,127.0,-118.0,-90.0,116.0
126.0,127.0,126.0,126.0,126.0,127.0,138.0,126.0,-1.0,106.0,-66.0,127.0,127.0,127.0,-118.0,-90.0,116.0
126.0,127.0,126.0,126.0,126.0,127.0,138.0,126.0,-1.0,106.0,-66.0,127.0,127.0,127.0,-118.0,-90.0,116.0
126.0,127.0,127.0,126.0,126.0,127.0,138.0,126.0,-1.0,106.0,-66.0,127.0,127.0,127.0,-118.0,-90.0,116.0
126.0,127.0,127.0,126.0,126.0,127.0,138.0,126.0,-1.0,106.0,-66.0,127.0,127.0,127.0,-118.0,-90.0,116.0
126.0,127.0,127.0,126.0,127.0,127.0,138.0,126.0,-1.0,106.0,-66.0,127.0,127.0,127.0,-118.0,-90.0,116.0
126.0,127.0,127.0,126.0,127.0,127.0,138.0,126.0,-1.0,106.0,-66.0,127.0,127.0,127.0,-118.0,-90.0,116.0
126.0,127.0,127.0,126.0,127.0,126.0,138.0,126.0,-1.0,106.0,-66.0,127.0,127.0,127.0,-118.0,-90.0,116.0
126.0,127.0,127.0,126.0,127.0,126.0,138.0,126.0,-1.0,106.0,-66.0,127.0,127.0,127.0,-118.0,-90.0,116.0
126.0,126.0,127.0,125.0,127.0,126.0,141.0,126.0,-1.0,107.0,-66.0,127.0,127.0,127.0,-118.0,-90.0,116.0
126.0,127.0,127.0,125.0,126.0,127.0,140.0,126.0,-1.0,107.0,-66.0,127.0,127.0,127.0,-118.0,-90.0,116.0
126.0,127.0,127.0,125.0,126.0,127.0,140.0,126.0,-1.0,107.0,-66.0,127.0,127.0,127.0,-118.0,-90.0,116.0
126.0,127.0,127.0,125.0,127.0,127.0,141.0,126.0,-1.0,107.0,-66.0,127.0,127.0,127.0,-118.0,-90.0,116.0
126.0,127.0,127.0,125.0,127.0,127.0,141.0,126.0,-1.0,107.0,-66.0,127.0,127.0,127.0,-118.0,-90.0,116.0
126.0,127.0,127.0,125.0,127.0,127.0,141.0,126.0,-1.0,107.0,-66.0,127.0,127.0,127.0,-118.0,-90.0,116.0
126.0,127.0,127.0,125.0,127.0,127.0,141.0,126.0,-1.0,107.0,-66.0,127.0,127.0,127.0,-118.0,-90.0,116.0
126.0,127.0,127.0,125.0,127.0,127.0,141.0,126.0,-1.0,107.0,-66.0,127.0,127.0,127.0,-118.0,-90.0,116.0
126.0,127.0,127.0,125.0,127.0,127.0,141.0,126.0,-1.0,107.0,-66.0,127.0,127.0,127.0,-118.0,-90.0,116.0
126.0,126.0,127.0,125.0,127.0,127.0,141.0,126.0,-1.0,107.0,-66.0,127.0,127.0,127.0,-118.0,-90.0,116.0
127.0,127.0,126.0,126.0,126.0,127.0,141.0,125.0,-1.0,107.0,-66.0,127.0,127.0,127.0,-118.0,-90.0,116.0
127.0,127.0,126.0,126.0,126.0,127.0,141.0,125.0,-1.0,107.0,-66.0,127.0,127.0,127.0,-118.0,-90.0,116.0
127.0,127.0,127.0,126.0,126.0,127.0,141.0,125.0,-1.0,107.0,-66.0,127.0,127.0,127.0,-118.0,-90.0,116.0
127.0,127.0,127.0,126.0,127.0,127.0,141.0,125.0,-1.0,107.0,-66.0,127.0,127.0,127.0,-118.0,-90.0,116.0
127.0,127.0,127.0,126.0,127.0,127.0,141.0,125.0,-1.0,107.0,-66.0,127.0,127.0,127.0,-118.0,-90.0,116.0
127.0,127.0,127.0,126.0,127.0,127.0,141.0,125.0,-1.0,107.0,-66.0,127.0,127.0,127.0,-118.0,-90.0,116.0
127.0,127.0,127.0,126.0,127.0,127.0,141.0,125.0,-1.0,107.0,-66.0,127.0,127.0,127.0,-118.0,-90.0,116.0
127.0,127.0,127.0,126.0,127.0,127.0,141.0,125.0,-1.0,107.0,-66.0,127.0,127.0,127.0,-118.0,-90.0,116.0
127.0,127.0,127.0,126.0,127.0,126.0,141.0,125.0,-1.0,107.0,-66.0,127.0,127.0,127.0,-118.0,-90.0,116.0
127.0,127.0,127.0,126.0,127.0,126.0,141.0,125.0,-1.0,107.0,-66.0,127.0,127.0,127.0,-118.0,-90.0,116.0
126.0,127.0,126.0,126.0,126.0,127.0,140.0,125.0,-1.0,107.0,-66.0,127.0,127.0,127.0,-118.0,-90.0,116.0
126.0,127.0,126.0,126.0,126.0,127.0,140.0,125.0,-1.0,107.0,-66.0,127.0,127.0,127.0,-118.0,-90.0,116.0
126.0,127.0,126.0,126.0,126.0,127.0,140.0,125.0,-1.0,107.0,-66.0,127.0,127.0,127.0,-118.0,-90.0,116.0
126.0,127.0,126.0,126.0,126.0,127.0,140.0,126.0,-1.0,107.0,-66.0,127.0,127.0,127.0,-118.0,-90.0,116.0
126.0,127.0,126.0,126.0,126.0,127.0,140.0,125.0,-1.0,107.0,-66.0,127.0,127.0,127.0,-118.0,-90.0,116.0
126.0,127.0,126.0,126.0,126.0,127.0,140.0,125.0,-1.0,107.0,-66.0,127.0,127.0,127.0,-118.0,-90.0,116.0
126.0,127.0,126.0,126.0,126.0,127.0,140.0,126.0,-1.0,107.0,-66.0,127.0,127.0,127.0,-118.0,-90.0,116.0
126.0,127.0,126.0,126.0,126.0,127.0,140.0,126.0,-1.0,107.0,-66.0,127.0,127.0,127.0,-118.0,-90.0,116.0
126.0,127.0,126.0,126.0,126.0,127.0,140.0,125.0,-1.0,107.0,-66.0,127.0,127.0,127.0,-118.0,-90.0,116.0
126.0,127.0,126.0,126.0,126.0,127.0,140.0,125.0,-1.0,107.0,-66.0,127.0,127.0,127.0,-118.0,-90.0,116.0
126.0,127.0,126.0,126.0,126.0,127.0,140.0,126.0,-1.0,107.0,-66.0,127.0,127.0,127.0,-118.0,-90.0,116.0
126.0,127.0,126.0,126.0,126.0,127.0,140.0,126.0,-1.0,107.0,-66.0,127.0,127.0,127.0,-118.0,-90.0,116.0
126.0,127.0,126.0,126.0,126.0,127.0,140.0,126.0,-1.0,107.0,-66.0,127.0,127.0,127.0,-118.0,-90.0,116.0
126.0,127.0,126.0,126.0,126.0,127.0,140.0,126.0,-1.0,107.0,-66.0,127.0,127.0,127.0,-118.0,-90.0,116.0
126.0,127.0,127.0,126.0,126.0,127.0,140.0,126.0,-1.0,107.0,-66.0,127.0,127.0,127.0,-118.0,-90.0,116.0
126.0,127.0,127.0,126.0,126.0,127.0,140.0,126.0,-1.0,107.0,-66.0,127.0,127.0,127.0,-118.0,-90.0,116.0
126.0,127.0,127.0,126.0,126.0,126.0,140.0,126.0,-1.0,107.0,-66.0,127.0,127.0,127.0,-118.0,-90.0,116.0
126.0,127.0,127.0,126.0,126.0,126.0,140.0,126.0,-1.0,107.0,-66.0,127.0,127.0,127.0,-118.0,-90.0,116.0
126.0,127.0,126.0,126.0,125.0,127.0,140.0,126.0,-1.0,107.0,-66.0,127.0,127.0,127.0,-118.0,-90.0,116.0
126.0,127.0,126.0,126.0,125.0,127.0,140.0,126.0,-1.0,107.0,-66.0,127.0,127.0,127.0,-118.0,-90.0,116.0
127.0,127.0,126.0,127.0,126.0,127.0,129.0,127.0,-1.0,107.0,-66.0,127.0,127.0,127.0,-118.0,-90.0,116.0
126.0,127.0,126.0,127.0,126.0,127.0,129.0,127.0,-1.0,107.0,-66.0,127.0,127.0,127.0,-118.0,-90.0,116.0
126.0,127.0,126.0,127.0,126.0,127.0,129.0,126.0,-1.0,107.0,-66.0,127.0,127.0,127.0,-118.0,-90.0,116.0
126.0,127.0,126.0,127.0,126.0,127.0,129.0,126.0,-1.0,107.0,-66.0,127.0,127.0,127.0,-118.0,-90.0,116.0
126.0,127.0,127.0,127.0,126.0,127.0,129.0,126.0,-1.0,107.0,-66.0,127.0,127.0,127.0,-118.0,-90.0,116.0
126.0,127.0,127.0,127.0,126.0,127.0,129.0,126.0,-1.0,107.0,-66.0,127.0,127.0,127.0,-118.0,-90.0,116.0
126.0,127.0,127.0,127.0,126.0,127.0,129.0,126.0,-1.0,107.0,-66.0,127.0,127.0,127.0,-118.0,-90.0,116.0
127.0,127.0,126.0,127.0,126.0,128.0,129.0,127.0,-1.0,107.0,-66.0,127.0,127.0,127.0,-118.0,-90.0,116.0
126.0,127.0,126.0,127.0,126.0,128.0,129.0,127.0,-1.0,107.0,-66.0,127.0,127.0,127.0,-118.0,-90.0,116.0
126.0,127.0,126.0,127.0,126.0,127.0,129.0,127.0,-1.0,107.0,-66.0,127.0,127.0,127.0,-118.0,-90.0,116.0
126.0,127.0,126.0,127.0,126.0,127.0,132.0,127.0,-1.0,107.0,-66.0,127.0,127.0,127.0,-118.0,-90.0,116.0
126.0,127.0,127.0,127.0,126.0,127.0,132.0,127.0,-1.0,107.0,-66.0,127.0,127.0,127.0,-118.0,-90.0,116.0
126.0,127.0,127.0,127.0,126.0,127.0,132.0,127.0,-1.0,107.0,-66.0,127.0,127.0,127.0,-118.0,-90.0,116.0
126.0,127.0,127.0,127.0,127.0,127.0,132.0,127.0,-1.0,107.0,-66.0,127.0,127.0,127.0,-118.0,-90.0,116.0
126.0,127.0,127.0,127.0,126.0,127.0,132.0,127.0,-1.0,107.0,-66.0,127.0,127.0,127.0,-118.0,-90.0,116.0
126.0,127.0,126.0,127.0,126.0,127.0,131.0,127.0,-1.0,107.0,-66.0,127.0,127.0,127.0,-118.0,-90.0,116.0
126.0,126.0,127.0,127.0,127.0,126.0,131.0,126.0,-1.0,107.0,-66.0,127.0,127.0,127.0,-118.0,-90.0,116.0
126.0,127.0,127.0,127.0,126.0,126.0,131.0,126.0,-1.0,107.0,-66.0,127.0,127.0,127.0,-118.0,-90.0,116.0
126.0,127.0,126.0,127.0,126.0,126.0,132.0,126.0,-1.0,107.0,-66.0,127.0,127.0,127.0,-118.0,-90.0,116.0
126.0,127.0,126.0,127.0,126.0,127.0,131.0,127.0,-1.0,107.0,-66.0,127.0,127.0,127.0,-118.0,-90.0,116.0
126.0,127.0,127.0,127.0,126.0,126.0,132.0,126.0,-1.0,108.0,-66.0,127.0,127.0,127.0,-118.0,-90.0,116.0
126.0,127.0,127.0,128.0,126.0,126.0,132.0,126.0,-1.0,108.0,-66.0,127.0,127.0,127.0,-118.0,-90.0,116.0
126.0,127.0,127.0,128.0,126.0,126.0,132.0,126.0,-1.0,108.0,-66.0,127.0,127.0,127.0,-118.0,-90.0,116.0
126.0,127.0,127.0,128.0,126.0,126.0,132.0,126.0,-1.0,108.0,-66.0,127.0,127.0,127.0,-118.0,-90.0,116.0
126.0,127.0,127.0,128.0,126.0,126.0,132.0,126.0,-1.0,108.0,-66.0,127.0,127.0,127.0,-118.0,-90.0,116.0
126.0,127.0,126.0,127.0,125.0,127.0,132.0,126.0,-1.0,108.0,-66.0,127.0,127.0,127.0,-118.0,-90.0,116.0
126.0,127.0,126.0,127.0,125.0,127.0,132.0,126.0,-1.0,108.0,-66.0,127.0,127.0,127.0,-118.0,-90.0,116.0
126.0,127.0,127.0,127.0,125.0,127.0,132.0,126.0,-1.0,108.0,-66.0,127.0,127.0,127.0,-118.0,-90.0,116.0
126.0,127.0,127.0,127.0,125.0,127.0,132.0,126.0,-1.0,108.0,-66.0,127.0,127.0,127.0,-118.0,-90.0,116.0
126.0,127.0,127.0,127.0,125.0,127.0,132.0,126.0,-1.0,108.0,-66.0,127.0,127.0,127.0,-118.0,-90.0,116.0
126.0,127.0,127.0,129.0,126.0,127.0,131.0,125.0,-1.0,108.0,-67.0,127.0,127.0,127.0,-118.0,-90.0,116.0
126.0,127.0,127.0,129.0,127.0,127.0,131.0,125.0,-1.0,108.0,-67.0,127.0,127.0,127.0,-118.0,-90.0,116.0
126.0,127.0,127.0,129.0,127.0,127.0,131.0,125.0,-1.0,108.0,-67.0,127.0,127.0,127.0,-118.0,-90.0,116.0
126.0,127.0,127.0,129.0,127.0,127.0,131.0,126.0,-1.0,108.0,-67.0,127.0,127.0,127.0,-118.0,-90.0,116.0
126.0,127.0,127.0,128.0,126.0,127.0,131.0,126.0,-1.0,108.0,-67.0,127.0,127.0,127.0,-118.0,-90.0,116.0
126.0,127.0,127.0,128.0,126.0,127.0,131.0,126.0,-1.0,108.0,-67.0,127.0,127.0,127.0,-118.0,-90.0,116.0
126.0,127.0,127.0,128.0,126.0,127.0,131.0,126.0,-1.0,108.0,-67.0,127.0,127.0,127.0,-118.0,-90.0,116.0
126.0,127.0,127.0,128.0,126.0,127.0,131.0,126.0,-1.0,108.0,-67.0,127.0,127.0,127.0,-118.0,-90.0,116.0
126.0,127.0,127.0,128.0,126.0,127.0,131.0,126.0,-1.0,108.0,-67.0,127.0,127.0,127.0,-118.0,-90.0,116.0
126.0,127.0,127.0,129.0,126.0,127.0,131.0,126.0,-1.0,108.0,-67.0,127.0,127.0,127.0,-118.0,-90.0,116.0
126.0,127.0,127.0,129.0,126.0,127.0,127.0,125.0,-1.0,108.0,-67.0,127.0,127.0,127.0,-118.0,-90.0,116.0
126.0,127.0,127.0,129.0,126.0,127.0,127.0,125.0,-1.0,108.0,-67.0,127.0,127.0,127.0,-118.0,-90.0,116.0
126.0,127.0,127.0,129.0,126.0,127.0,127.0,125.0,-1.0,108.0,-67.0,127.0,127.0,127.0,-118.0,-90.0,116.0
126.0,127.0,127.0,129.0,126.0,127.0,128.0,125.0,-1.0,108.0,-67.0,127.0,127.0,127.0,-118.0,-90.0,116.0
126.0,127.0,127.0,129.0,126.0,127.0,128.0,125.0,-1.0,108.0,-67.0,127.0,127.0,127.0,-118.0,-90.0,116.0
126.0,127.0,127.0,129.0,126.0,127.0,128.0,125.0,-1.0,108.0,-67.0,127.0,127.0,127.0,-118.0,-90.0,116.0
126.0,127.0,127.0,129.0,126.0,127.0,128.0,125.0,-1.0,108.0,-67.0,127.0,127.0,127.0,-118.0,-90.0,116.0
126.0,127.0,127.0,129.0,126.0,127.0,128.0,125.0,-1.0,108.0,-67.0,127.0,127.0,127.0,-118.0,-90.0,116.0
126.0,127.0,127.0,129.0,126.0,127.0,127.0,125.0,-1.0,108.0,-67.0,127.0,127.0,127.0,-118.0,-90.0,116.0
126.0,127.0,127.0,129.0,126.0,127.0,127.0,125.0,-1.0,108.0,-67.0,127.0,127.0,127.0,-118.0,-90.0,116.0
126.0,127.0,127.0,129.0,127.0,126.0,124.0,125.0,-1.0,108.0,-67.0,127.0,127.0,127.0,-118.0,-90.0,116.0
126.0,127.0,128.0,129.0,127.0,126.0,124.0,125.0,-1.0,108.0,-67.0,127.0,127.0,127.0,-118.0,-90.0,116.0
126.0,127.0,127.0,129.0,126.0,127.0,125.0,125.0,-1.0,108.0,-67.0,127.0,127.0,127.0,-118.0,-90.0,116.0
126.0,127.0,127.0,129.0,126.0,127.0,124.0,125.0,-1.0,108.0,-67.0,127.0,127.0,127.0,-118.0,-90.0,116.0
126.0,127.0,127.0,129.0,126.0,127.0,124.0,125.0,-1.0,108.0,-67.0,127.0,127.0,127.0,-118.0,-90.0,116.0
126.0,127.0,127.0,129.0,126.0,127.0,124.0,125.0,-1.0,108.0,-67.0,127.0,127.0,127.0,-118.0,-90.0,116.0
126.0,127.0,127.0,129.0,126.0,127.0,124.0,125.0,-1.0,108.0,-67.0,127.0,127.0,127.0,-118.0,-90.0,116.0
126.0,127.0,127.0,129.0,126.0,127.0,124.0,125.0,-1.0,108.0,-67.0,127.0,127.0,127.0,-118.0,-90.0,116.0
126.0,127.0,127.0,129.0,127.0,126.0,124.0,125.0,-1.0,108.0,-67.0,127.0,127.0,127.0,-118.0,-90.0,116.0
126.0,127.0,127.0,129.0,127.0,126.0,124.0,125.0,-1.0,108.0,-67.0,127.0,127.0,127.0,-118.0,-90.0,116.0
126.0,127.0,127.0,128.0,127.0,127.0,126.0,126.0,-1.0,107.0,-68.0,127.0,127.0,127.0,-118.0,-90.0,116.0
126.0,127.0,127.0,129.0,127.0,127.0,126.0,126.0,-1.0,107.0,-68.0,127.0,127.0,127.0,-118.0,-90.0,116.0
126.0,127.0,127.0,128.0,127.0,127.0,126.0,126.0,-1.0,107.0,-68.0,127.0,127.0,127.0,-118.0,-90.0,116.0
126.0,127.0,127.0,128.0,127.0,127.0,126.0,126.0,-1.0,107.0,-68.0,127.0,127.0,127.0,-118.0,-90.0,116.0
126.0,127.0,127.0,128.0,127.0,127.0,126.0,126.0,-1.0,107.0,-68.0,127.0,127.0,127.0,-118.0,-90.0,116.0
126.0,127.0,127.0,128.0,127.0,127.0,126.0,126.0,-1.0,107.0,-68.0,127.0,127.0,127.0,-118.0,-90.0,116.0
126.0,127.0,127.0,128.0,127.0,127.0,126.0,126.0,-1.0,107.0,-68.0,127.0,127.0,127.0,-118.0,-90.0,116.0
126.0,127.0,127.0,128.0,127.0,127.0,126.0,126.0,-1.0,107.0,-68.0,127.0,127.0,127.0,-118.0,-90.0,116.0
126.0,127.0,127.0,128.0,127.0,127.0,126.0,126.0,-1.0,107.0,-68.0,127.0,127.0,127.0,-118.0,-90.0,116.0
126.0,127.0,127.0,128.0,127.0,127.0,126.0,126.0,-1.0,107.0,-68.0,127.0,127.0,127.0,-118.0,-90.0,116.0
126.0,127.0,126.0,128.0,127.0,128.0,127.0,127.0,-1.0,106.0,-69.0,127.0,127.0,127.0,-118.0,-90.0,116.0
126.0,127.0,126.0,128.0,127.0,128.0,127.0,127.0,-1.0,106.0,-69.0,127.0,127.0,127.0,-118.0,-90.0,116.0
126.0,127.0,126.0,128.0,127.0,128.0,127.0,127.0,-1.0,106.0,-69.0,127.0,127.0,127.0,-118.0,-90.0,116.0
126.0,127.0,127.0,128.0,127.0,128.0,127.0,127.0,-1.0,106.0,-69.0,127.0,127.0,127.0,-118.0,-90.0,116.0
126.0,127.0,127.0,128.0,127.0,127.0,127.0,127.0,-1.0,106.0,-69.0,127.0,127.0,127.0,-118.0,-90.0,116.0
126.0,127.0,127.0,128.0,127.0,127.0,127.0,127.0,-1.0,106.0,-69.0,127.0,127.0,127.0,-118.0,-90.0,116.0
126.0,127.0,127.0,128.0,127.0,127.0,127.0,127.0,-1.0,106.0,-69.0,127.0,127.0,127.0,-118.0,-90.0,116.0
126.0,127.0,127.0,128.0,127.0,127.0,127.0,127.0,-1.0,106.0,-69.0,127.0,127.0,127.0,-118.0,-90.0,116.0
126.0,127.0,127.0,128.0,127.0,127.0,127.0,127.0,-1.0,106.0,-69.0,127.0,127.0,127.0,-118.0,-90.0,116.0
126.0,127.0,127.0,128.0,127.0,127.0,127.0,127.0,-1.0,106.0,-69.0,127.0,127.0,127.0,-118.0,-90.0,116.0
126.0,127.0,126.0,128.0,125.0,128.0,128.0,128.0,-1.0,105.0,-70.0,127.0,127.0,127.0,-118.0,-90.0,116.0
126.0,127.0,126.0,128.0,126.0,128.0,128.0,128.0,-1.0,105.0,-70.0,127.0,127.0,127.0,-118.0,-90.0,116.0
126.0,127.0,126.0,128.0,126.0,128.0,128.0,128.0,-1.0,105.0,-70.0,127.0,127.0,127.0,-118.0,-90.0,116.0
125.0,127.0,126.0,128.0,126.0,127.0,128.0,127.0,-1.0,105.0,-70.0,127.0,127.0,127.0,-118.0,-90.0,116.0
125.0,127.0,126.0,128.0,126.0,127.0,128.0,127.0,-1.0,105.0,-70.0,127.0,127.0,127.0,-118.0,-90.0,116.0
125.0,127.0,126.0,128.0,126.0,127.0,128.0,127.0,-1.0,105.0,-70.0,127.0,127.0,127.0,-118.0,-90.0,116.0
125.0,127.0,126.0,128.0,126.0,127.0,128.0,127.0,-1.0,105.0,-70.0,127.0,127.0,127.0,-118.0,-90.0,116.0
125.0,127.0,127.0,128.0,126.0,127.0,128.0,127.0,-1.0,105.0,-70.0,127.0,127.0,127.0,-118.0,-90.0,116.0
125.0,127.0,127.0,128.0,126.0,127.0,128.0,127.0,-1.0,105.0,-70.0,127.0,127.0,127.0,-118.0,-90.0,116.0
126.0,127.0,126.0,128.0,126.0,127.0,128.0,127.0,-1.0,105.0,-70.0,127.0,127.0,127.0,-118.0,-90.0,116.0
126.0,126.0,127.0,128.0,126.0,126.0,129.0,127.0,-1.0,104.0,-70.0,127.0,127.0,127.0,-118.0,-90.0,116.0
126.0,126.0,127.0,128.0,126.0,126.0,129.0,127.0,-1.0,104.0,-70.0,127.0,127.0,127.0,-118.0,-90.0,116.0
126.0,126.0,127.0,128.0,126.0,126.0,129.0,127.0,-1.0,104.0,-70.0,127.0,127.0,127.0,-118.0,-90.0,116.0
126.0,126.0,127.0,128.0,126.0,126.0,129.0,127.0,-1.0,104.0,-70.0,127.0,127.0,127.0,-118.0,-90.0,116.0
126.0,126.0,127.0,128.0,126.0,127.0,129.0,128.0,-1.0,104.0,-70.0,127.0,127.0,127.0,-118.0,-90.0,116.0
126.0,127.0,127.0,128.0,126.0,127.0,129.0,128.0,-1.0,104.0,-70.0,127.0,127.0,127.0,-118.0,-90.0,116.0
126.0,127.0,127.0,128.0,126.0,127.0,129.0,128.0,-1.0,104.0,-70.0,127.0,127.0,127.0,-118.0,-90.0,116.0
126.0,126.0,127.0,128.0,126.0,127.0,128.0,128.0,-1.0,104.0,-70.0,127.0,127.0,127.0,-118.0,-90.0,116.0
126.0,126.0,127.0,128.0,126.0,126.0,129.0,127.0,-1.0,104.0,-70.0,127.0,127.0,127.0,-118.0,-90.0,116.0
126.0,126.0,127.0,128.0,126.0,126.0,129.0,127.0,-1.0,104.0,-70.0,127.0,127.0,127.0,-118.0,-90.0,116.0
126.0,127.0,127.0,128.0,125.0,127.0,129.0,127.0,-1.0,104.0,-71.0,127.0,127.0,127.0,-118.0,-90.0,116.0
126.0,127.0,127.0,128.0,126.0,127.0,129.0,127.0,-1.0,104.0,-71.0,127.0,127.0,127.0,-118.0,-90.0,116.0
126.0,126.0,127.0,128.0,126.0,127.0,129.0,127.0,-1.0,104.0,-71.0,127.0,127.0,127.0,-118.0,-90.0,116.0
126.0,127.0,127.0,128.0,126.0,127.0,129.0,127.0,-1.0,104.0,-71.0,127.0,127.0,127.0,-118.0,-90.0,116.0
126.0,126.0,127.0,128.0,126.0,127.0,129.0,127.0,-1.0,104.0,-71.0,127.0,127.0,127.0,-118.0,-90.0,116.0
126.0,126.0,127.0,128.0,126.0,127.0,129.0,127.0,-1.0,104.0,-71.0,127.0,127.0,127.0,-118.0,-90.0,116.0
126.0,126.0,127.0,128.0,126.0,127.0,129.0,127.0,-1.0,104.0,-71.0,127.0,127.0,127.0,-118.0,-90.0,116.0
126.0,126.0,126.0,128.0,126.0,126.0,129.0,127.0,-1.0,104.0,-71.0,127.0,127.0,127.0,-118.0,-90.0,116.0
126.0,127.0,126.0,128.0,125.0,127.0,129.0,127.0,-1.0,104.0,-71.0,127.0,127.0,127.0,-118.0,-90.0,116.0
126.0,127.0,126.0,128.0,125.0,127.0,129.0,127.0,-1.0,104.0,-71.0,127.0,127.0,127.0,-118.0,-90.0,116.0
126.0,127.0,126.0,128.0,125.0,127.0,130.0,128.0,-1.0,103.0,-71.0,127.0,127.0,127.0,-118.0,-89.0,116.0
126.0,127.0,126.0,128.0,125.0,127.0,130.0,128.0,-1.0,103.0,-71.0,127.0,127.0,127.0,-118.0,-89.0,116.0
126.0,127.0,127.0,128.0,125.0,127.0,130.0,128.0,-1.0,103.0,-71.0,127.0,127.0,127.0,-118.0,-89.0,116.0
126.0,127.0,127.0,129.0,126.0,127.0,130.0,128.0,-1.0,103.0,-71.0,127.0,127.0,127.0,-118.0,-89.0,116.0
126.0,127.0,127.0,129.0,126.0,127.0,130.0,128.0,-1.0,103.0,-71.0,127.0,127.0,127.0,-118.0,-89.0,116.0
126.0,127.0,127.0,129.0,126.0,127.0,130.0,128.0,-1.0,103.0,-71.0,127.0,127.0,127.0,-118.0,-89.0,116.0
126.0,127.0,126.0,128.0,125.0,126.0,130.0,128.0,-1.0,103.0,-71.0,127.0,127.0,127.0,-118.0,-89.0,116.0
126.0,127.0,126.0,128.0,125.0,127.0,130.0,128.0,-1.0,103.0,-71.0,127.0,127.0,127.0,-118.0,-89.0,116.0
126.0,127.0,126.0,128.0,125.0,127.0,130.0,128.0,-1.0,103.0,-71.0,127.0,127.0,127.0,-118.0,-89.0,116.0
126.0,127.0,126.0,128.0,125.0,127.0,130.0,128.0,-1.0,103.0,-71.0,127.0,127.0,127.0,-118.0,-89.0,116.0
126.0,127.0,126.0,130.0,126.0,127.0,130.0,127.0,-1.0,103.0,-70.0,127.0,127.0,127.0,-118.0,-89.0,116.0
126.0,127.0,126.0,130.0,126.0,127.0,130.0,127.0,-1.0,103.0,-70.0,127.0,127.0,127.0,-118.0,-89.0,116.0
126.0,127.0,127.0,130.0,126.0,127.0,130.0,127.0,-1.0,103.0,-70.0,127.0,127.0,127.0,-118.0,-89.0,116.0
126.0,127.0,127.0,130.0,126.0,127.0,130.0,127.0,-1.0,103.0,-70.0,127.0,127.0,127.0,-118.0,-89.0,116.0
126.0,127.0,127.0,130.0,126.0,127.0,130.0,127.0,-1.0,103.0,-70.0,127.0,127.0,127.0,-118.0,-89.0,116.0
126.0,127.0,126.0,129.0,126.0,127.0,130.0,127.0,-1.0,103.0,-70.0,127.0,127.0,127.0,-118.0,-89.0,116.0
126.0,127.0,126.0,129.0,126.0,127.0,130.0,127.0,-1.0,103.0,-70.0,127.0,127.0,127.0,-118.0,-89.0,116.0
126.0,127.0,126.0,130.0,125.0,128.0,130.0,127.0,-1.0,103.0,-70.0,127.0,127.0,127.0,-118.0,-89.0,116.0
126.0,127.0,126.0,129.0,126.0,128.0,130.0,127.0,-1.0,103.0,-70.0,127.0,127.0,127.0,-118.0,-89.0,116.0
126.0,127.0,126.0,130.0,126.0,127.0,130.0,127.0,-1.0,103.0,-70.0,127.0,127.0,127.0,-118.0,-89.0,116.0
126.0,127.0,127.0,129.0,126.0,126.0,129.0,127.0,-1.0,104.0,-70.0,127.0,127.0,127.0,-118.0,-89.0,116.0
126.0,127.0,127.0,129.0,126.0,126.0,129.0,127.0,-1.0,104.0,-70.0,127.0,127.0,127.0,-118.0,-89.0,116.0
126.0,127.0,127.0,129.0,126.0,126.0,129.0,127.0,-1.0,104.0,-70.0,127.0,127.0,127.0,-118.0,-89.0,116.0
126.0,127.0,127.0,129.0,126.0,126.0,129.0,127.0,-1.0,104.0,-70.0,127.0,127.0,127.0,-118.0,-89.0,116.0
126.0,127.0,127.0,129.0,126.0,127.0,129.0,127.0,-1.0,104.0,-70.0,127.0,127.0,127.0,-118.0,-89.0,116.0
126.0,127.0,127.0,129.0,126.0,127.0,129.0,127.0,-1.0,104.0,-70.0,127.0,127.0,127.0,-118.0,-89.0,116.0
126.0,127.0,127.0,129.0,126.0,126.0,130.0,127.0,-1.0,104.0,-70.0,127.0,127.0,127.0,-118.0,-89.0,116.0
126.0,127.0,127.0,129.0,126.0,127.0,130.0,127.0,-1.0,104.0,-70.0,127.0,127.0,127.0,-118.0,-89.0,116.0
126.0,127.0,127.0,129.0,126.0,126.0,129.0,127.0,-1.0,104.0,-70.0,127.0,127.0,127.0,-118.0,-89.0,116.0
126.0,127.0,127.0,129.0,126.0,126.0,129.0,127.0,-1.0,104.0,-70.0,127.0,127.0,127.0,-118.0,-89.0,116.0
126.0,127.0,127.0,129.0,125.0,127.0,129.0,127.0,-1.0,104.0,-69.0,127.0,127.0,127.0,-118.0,-89.0,116.0
126.0,127.0,127.0,128.0,125.0,127.0,129.0,127.0,-1.0,104.0,-69.0,127.0,127.0,127.0,-118.0,-89.0,116.0
126.0,127.0,127.0,128.0,126.0,127.0,129.0,127.0,-1.0,104.0,-69.0,127.0,127.0,127.0,-118.0,-89.0,116.0
126.0,127.0,126.0,129.0,125.0,127.0,129.0,127.0,-1.0,104.0,-69.0,127.0,127.0,127.0,-118.0,-89.0,116.0
126.0,127.0,126.0,128.0,125.0,126.0,129.0,127.0,-1.0,104.0,-69.0,127.0,127.0,127.0,-118.0,-89.0,116.0
126.0,127.0,126.0,128.0,125.0,127.0,129.0,127.0,-1.0,104.0,-69.0,127.0,127.0,127.0,-118.0,-89.0,116.0
126.0,127.0,126.0,128.0,125.0,127.0,129.0,127.0,-1.0,104.0,-69.0,127.0,127.0,127.0,-118.0,-89.0,116.0
126.0,127.0,126.0,128.0,125.0,127.0,129.0,127.0,-1.0,104.0,-69.0,127.0,127.0,127.0,-118.0,-89.0,116.0
126.0,127.0,126.0,128.0,125.0,127.0,129.0,127.0,-1.0,104.0,-69.0,127.0,127.0,127.0,-118.0,-89.0,116.0
126.0,127.0,126.0,129.0,125.0,127.0,129.0,127.0,-1.0,104.0,-69.0,127.0,127.0,127.0,-118.0,-89.0,116.0
126.0,127.0,126.0,128.0,126.0,127.0,129.0,127.0,-1.0,105.0,-68.0,127.0,127.0,127.0,-118.0,-89.0,116.0
125.0,127.0,126.0,128.0,126.0,127.0,129.0,127.0,-1.0,105.0,-68.0,127.0,127.0,127.0,-118.0,-89.0,116.0
126.0,127.0,126.0,128.0,126.0,127.0,129.0,127.0,-1.0,105.0,-68.0,127.0,127.0,127.0,-118.0,-89.0,116.0
126.0,127.0,126.0,128.0,126.0,127.0,129.0,127.0,-1.0,105.0,-68.0,127.0,127.0,127.0,-118.0,-89.0,116.0
126.0,127.0,126.0,128.0,125.0,127.0,129.0,127.0,-1.0,105.0,-68.0,127.0,127.0,127.0,-118.0,-89.0,116.0
126.0,127.0,126.0,128.0,125.0,128.0,129.0,127.0,-1.0,105.0,-68.0,127.0,127.0,127.0,-118.0,-89.0,116.0
126.0,127.0,126.0,128.0,126.0,128.0,129.0,127.0,-1.0,105.0,-68.0,127.0,127.0,127.0,-118.0,-89.0,116.0
126.0,127.0,126.0,128.0,126.0,127.0,129.0,127.0,-1.0,105.0,-68.0,127.0,127.0,127.0,-118.0,-89.0,116.0
126.0,127.0,126.0,128.0,126.0,127.0,129.0,127.0,-1.0,105.0,-68.0,127.0,127.0,127.0,-118.0,-89.0,116.0
126.0,127.0,126.0,128.0,126.0,127.0,129.0,127.0,-1.0,105.0,-68.0,127.0,127.0,127.0,-118.0,-89.0,116.0
126.0,127.0,126.0,128.0,126.0,126.0,129.0,127.0,-1.0,105.0,-68.0,127.0,127.0,127.0,-118.0,-89.0,116.0
126.0,127.0,126.0,128.0,126.0,126.0,129.0,127.0,-1.0,105.0,-68.0,127.0,127.0,127.0,-118.0,-89.0,116.0
125.0,127.0,126.0,128.0,126.0,126.0,129.0,127.0,-1.0,105.0,-68.0,127.0,127.0,127.0,-118.0,-89.0,116.0
125.0,127.0,126.0,128.0,125.0,126.0,129.0,127.0,-1.0,105.0,-68.0,127.0,127.0,127.0,-118.0,-89.0,116.0
126.0,127.0,126.0,128.0,125.0,127.0,129.0,127.0,-1.0,105.0,-68.0,127.0,127.0,127.0,-118.0,-89.0,116.0
126.0,127.0,126.0,128.0,125.0,127.0,129.0,127.0,-1.0,105.0,-68.0,127.0,127.0,127.0,-118.0,-89.0,116.0
126.0,127.0,126.0,128.0,125.0,127.0,129.0,127.0,-1.0,105.0,-68.0,127.0,127.0,127.0,-118.0,-89.0,116.0
125.0,127.0,126.0,128.0,126.0,127.0,129.0,127.0,-1.0,105.0,-68.0,127.0,127.0,127.0,-118.0,-89.0,116.0
125.0,127.0,126.0,128.0,126.0,127.0,129.0,127.0,-1.0,105.0,-68.0,127.0,127.0,127.0,-118.0,-89.0,116.0
126.0,127.0,126.0,128.0,126.0,127.0,129.0,127.0,-1.0,105.0,-68.0,127.0,127.0,127.0,-118.0,-89.0,116.0
126.0,127.0,126.0,128.0,126.0,126.0,129.0,126.0,-1.0,106.0,-67.0,127.0,127.0,127.0,-118.0,-89.0,116.0
126.0,127.0,126.0,128.0,126.0,126.0,129.0,126.0,-1.0,106.0,-67.0,127.0,127.0,127.0,-118.0,-89.0,116.0
126.0,127.0,127.0,128.0,126.0,126.0,129.0,126.0,-1.0,106.0,-67.0,127.0,127.0,127.0,-118.0,-89.0,116.0
126.0,127.0,127.0,128.0,126.0,126.0,129.0,126.0,-1.0,106.0,-67.0,127.0,127.0,127.0,-118.0,-89.0,116.0
126.0,127.0,127.0,128.0,126.0,126.0,129.0,126.0,-1.0,106.0,-67.0,127.0,127.0,127.0,-118.0,-89.0,116.0
126.0,127.0,127.0,128.0,126.0,126.0,129.0,127.0,-1.0,106.0,-67.0,127.0,127.0,127.0,-118.0,-89.0,116.0
126.0,127.0,126.0,128.0,125.0,127.0,129.0,127.0,-1.0,106.0,-67.0,127.0,127.0,127.0,-118.0,-89.0,116.0
126.0,127.0,127.0,128.0,126.0,127.0,129.0,127.0,-1.0,106.0,-67.0,127.0,127.0,127.0,-118.0,-89.0,116.0
126.0,127.0,127.0,128.0,126.0,127.0,129.0,127.0,-1.0,106.0,-67.0,127.0,127.0,127.0,-118.0,-89.0,116.0
126.0,127.0,127.0,128.0,126.0,127.0,129.0,127.0,-1.0,106.0,-67.0,127.0,127.0,127.0,-118.0,-89.0,116.0
126.0,127.0,126.0,127.0,126.0,127.0,129.0,127.0,-1.0,106.0,-67.0,127.0,127.0,127.0,-118.0,-89.0,116.0
126.0,127.0,126.0,127.0,126.0,127.0,129.0,127.0,-1.0,106.0,-67.0,127.0,127.0,127.0,-118.0,-89.0,116.0
126.0,127.0,126.0,127.0,126.0,127.0,129.0,126.0,-1.0,106.0,-67.0,127.0,127.0,127.0,-118.0,-89.0,116.0
126.0,127.0,126.0,127.0,126.0,127.0,129.0,127.0,-1.0,106.0,-67.0,127.0,127.0,127.0,-118.0,-89.0,116.0
126.0,127.0,126.0,127.0,126.0,127.0,129.0,127.0,-1.0,106.0,-67.0,127.0,127.0,127.0,-118.0,-89.0,116.0
126.0,127.0,126.0,127.0,126.0,127.0,129.0,127.0,-1.0,106.0,-67.0,127.0,127.0,127.0,-118.0,-89.0,116.0
126.0,127.0,126.0,127.0,126.0,127.0,129.0,127.0,-1.0,106.0,-67.0,127.0,127.0,127.0,-118.0,-89.0,116.0
126.0,127.0,126.0,127.0,126.0,127.0,129.0,127.0,-1.0,106.0,-67.0,127.0,127.0,127.0,-118.0,-89.0,116.0
126.0,127.0,126.0,127.0,126.0,127.0,129.0,126.0,-1.0,106.0,-67.0,127.0,127.0,127.0,-118.0,-89.0,116.0
126.0,127.0,126.0,127.0,126.0,127.0,129.0,126.0,-1.0,106.0,-67.0,127.0,127.0,127.0,-118.0,-89.0,116.0
126.0,127.0,126.0,127.0,126.0,127.0,129.0,126.0,-1.0,106.0,-67.0,127.0,127.0,127.0,-118.0,-89.0,116.0
126.0,127.0,126.0,127.0,126.0,127.0,129.0,126.0,-1.0,106.0,-67.0,127.0,127.0,127.0,-118.0,-89.0,116.0
126.0,127.0,126.0,127.0,126.0,127.0,129.0,126.0,-1.0,106.0,-67.0,127.0,127.0,127.0,-118.0,-89.0,116.0
126.0,127.0,126.0,127.0,126.0,127.0,129.0,126.0,-1.0,106.0,-67.0,127.0,127.0,127.0,-118.0,-89.0,116.0
126.0,127.0,126.0,127.0,126.0,127.0,129.0,126.0,-1.0,106.0,-67.0,127.0,127.0,127.0,-118.0,-89.0,116.0
126.0,127.0,126.0,127.0,126.0,127.0,129.0,126.0,-1.0,106.0,-67.0,127.0,127.0,127.0,-118.0,-89.0,116.0
126.0,127.0,126.0,128.0,126.0,127.0,129.0,126.0,-1.0,106.0,-67.0,127.0,127.0,127.0,-118.0,-89.0,116.0
126.0,127.0,126.0,127.0,126.0,127.0,129.0,126.0,-1.0,106.0,-67.0,127.0,127.0,127.0,-118.0,-89.0,116.0
126.0,127.0,126.0,127.0,126.0,127.0,129.0,126.0,-1.0,106.0,-67.0,127.0,127.0,127.0,-118.0,-89.0,116.0
126.0,127.0,126.0,127.0,126.0,127.0,129.0,126.0,-1.0,106.0,-67.0,127.0,127.0,127.0,-118.0,-89.0,116.0
126.0,127.0,127.0,127.0,126.0,127.0,129.0,126.0,-1.0,107.0,-67.0,127.0,127.0,127.0,-118.0,-89.0,116.0
126.0,127.0,127.0,127.0,126.0,127.0,129.0,126.0,-1.0,107.0,-67.0,127.0,127.0,127.0,-118.0,-89.0,116.0
126.0,127.0,127.0,127.0,126.0,127.0,129.0,126.0,-1.0,107.0,-67.0,127.0,127.0,127.0,-118.0,-89.0,116.0
126.0,127.0,127.0,127.0,126.0,127.0,129.0,126.0,-1.0,107.0,-67.0,127.0,127.0,127.0,-118.0,-89.0,116.0
126.0,127.0,127.0,127.0,126.0,127.0,129.0,126.0,-1.0,107.0,-67.0,127.0,127.0,127.0,-118.0,-89.0,116.0
126.0,127.0,127.0,127.0,126.0,127.0,129.0,126.0,-1.0,107.0,-67.0,127.0,127.0,127.0,-118.0,-89.0,116.0
126.0,126.0,127.0,127.0,126.0,126.0,129.0,126.0,-1.0,107.0,-67.0,127.0,127.0,127.0,-118.0,-89.0,116.0
126.0,127.0,126.0,127.0,125.0,127.0,129.0,126.0,-1.0,107.0,-67.0,127.0,127.0,127.0,-118.0,-89.0,116.0
126.0,127.0,126.0,127.0,125.0,127.0,129.0,126.0,-1.0,107.0,-67.0,127.0,127.0,127.0,-118.0,-89.0,116.0
126.0,127.0,126.0,127.0,126.0,127.0,129.0,126.0,-1.0,107.0,-67.0,127.0,127.0,127.0,-118.0,-89.0,116.0
126.0,126.0,126.0,127.0,126.0,127.0,126.0,126.0,-1.0,107.0,-67.0,127.0,127.0,127.0,-118.0,-89.0,116.0
126.0,126.0,126.0,127.0,126.0,127.0,126.0,126.0,-1.0,107.0,-67.0,127.0,127.0,127.0,-118.0,-89.0,116.0
126.0,126.0,127.0,127.0,126.0,127.0,126.0,126.0,-1.0,107.0,-67.0,127.0,127.0,127.0,-118.0,-89.0,116.0
126.0,126.0,127.0,127.0,127.0,127.0,126.0,126.0,-1.0,107.0,-67.0,127.0,127.0,127.0,-118.0,-89.0,116.0
126.0,126.0,127.0,127.0,127.0,127.0,126.0,126.0,-1.0,107.0,-67.0,127.0,127.0,127.0,-118.0,-89.0,116.0
126.0,126.0,127.0,127.0,127.0,127.0,126.0,126.0,-1.0,107.0,-67.0,127.0,127.0,127.0,-118.0,-89.0,116.0
126.0,126.0,126.0,127.0,126.0,128.0,127.0,126.0,-1.0,107.0,-67.0,127.0,127.0,127.0,-118.0,-89.0,116.0
126.0,126.0,126.0,127.0,126.0,128.0,127.0,126.0,-1.0,107.0,-67.0,127.0,127.0,127.0,-118.0,-89.0,116.0
126.0,126.0,126.0,127.0,126.0,128.0,127.0,126.0,-1.0,107.0,-67.0,127.0,127.0,127.0,-118.0,-89.0,116.0
126.0,126.0,126.0,127.0,126.0,127.0,127.0,126.0,-1.0,107.0,-67.0,127.0,127.0,127.0,-118.0,-89.0,116.0
126.0,126.0,127.0,128.0,126.0,128.0,126.0,126.0,-1.0,107.0,-67.0,127.0,127.0,127.0,-118.0,-89.0,116.0
126.0,126.0,127.0,128.0,126.0,128.0,125.0,126.0,-1.0,107.0,-67.0,127.0,127.0,127.0,-118.0,-89.0,116.0
126.0,126.0,127.0,128.0,126.0,127.0,126.0,126.0,-1.0,107.0,-67.0,127.0,127.0,127.0,-118.0,-89.0,116.0
126.0,126.0,127.0,128.0,126.0,127.0,126.0,126.0,-1.0,107.0,-67.0,127.0,127.0,127.0,-118.0,-89.0,116.0
126.0,126.0,127.0,128.0,126.0,127.0,126.0,126.0,-1.0,107.0,-67.0,127.0,127.0,127.0,-118.0,-89.0,116.0
126.0,126.0,127.0,127.0,126.0,128.0,126.0,126.0,-1.0,107.0,-67.0,127.0,127.0,127.0,-118.0,-89.0,116.0
126.0,126.0,127.0,127.0,126.0,128.0,126.0,126.0,-1.0,107.0,-67.0,127.0,127.0,127.0,-118.0,-89.0,116.0
126.0,126.0,127.0,127.0,126.0,128.0,125.0,126.0,-1.0,107.0,-67.0,127.0,127.0,127.0,-118.0,-89.0,116.0
126.0,126.0,127.0,127.0,126.0,128.0,125.0,126.0,-1.0,107.0,-67.0,127.0,127.0,127.0,-118.0,-89.0,116.0
126.0,126.0,127.0,127.0,126.0,128.0,126.0,126.0,-1.0,107.0,-67.0,127.0,127.0,127.0,-118.0,-89.0,116.0
125.0,126.0,126.0,128.0,126.0,127.0,126.0,126.0,-1.0,107.0,-68.0,127.0,127.0,127.0,-118.0,-89.0,116.0
125.0,126.0,127.0,128.0,127.0,127.0,126.0,126.0,-1.0,107.0,-68.0,127.0,127.0,127.0,-118.0,-89.0,116.0
125.0,126.0,127.0,128.0,127.0,127.0,126.0,126.0,-1.0,107.0,-68.0,127.0,127.0,127.0,-118.0,-89.0,116.0
125.0,126.0,127.0,128.0,127.0,127.0,126.0,126.0,-1.0,107.0,-68.0,127.0,127.0,127.0,-118.0,-89.0,116.0
125.0,126.0,126.0,128.0,126.0,127.0,126.0,126.0,-1.0,107.0,-68.0,127.0,127.0,127.0,-118.0,-89.0,116.0
125.0,126.0,126.0,128.0,126.0,128.0,126.0,127.0,-1.0,107.0,-68.0,127.0,127.0,127.0,-118.0,-89.0,116.0
125.0,126.0,126.0,128.0,126.0,128.0,126.0,127.0,-1.0,107.0,-68.0,127.0,127.0,127.0,-118.0,-89.0,116.0
125.0,127.0,126.0,128.0,126.0,127.0,126.0,127.0,-1.0,107.0,-68.0,127.0,127.0,127.0,-118.0,-89.0,116.0
125.0,127.0,126.0,128.0,126.0,127.0,126.0,126.0,-1.0,107.0,-68.0,127.0,127.0,127.0,-118.0,-89.0,116.0
125.0,126.0,126.0,128.0,126.0,127.0,126.0,126.0,-1.0,107.0,-68.0,127.0,127.0,127.0,-118.0,-89.0,116.0
126.0,127.0,127.0,128.0,127.0,127.0,126.0,127.0,-1.0,107.0,-68.0,127.0,127.0,127.0,-118.0,-89.0,116.0
126.0,126.0,127.0,128.0,127.0,127.0,126.0,127.0,-1.0,107.0,-68.0,127.0,127.0,127.0,-118.0,-89.0,116.0
126.0,126.0,127.0,128.0,127.0,127.0,126.0,127.0,-1.0,107.0,-68.0,127.0,127.0,127.0,-118.0,-89.0,116.0
125.0,127.0,127.0,128.0,126.0,127.0,126.0,127.0,-1.0,107.0,-68.0,127.0,127.0,127.0,-118.0,-89.0,116.0
126.0,127.0,126.0,128.0,126.0,128.0,126.0,127.0,-1.0,107.0,-68.0,127.0,127.0,127.0,-118.0,-89.0,116.0
126.0,127.0,126.0,128.0,126.0,128.0,126.0,127.0,-1.0,107.0,-68.0,127.0,127.0,127.0,-118.0,-89.0,116.0
125.0,127.0,126.0,128.0,126.0,127.0,126.0,127.0,-1.0,107.0,-68.0,127.0,127.0,127.0,-118.0,-89.0,116.0
125.0,127.0,127.0,128.0,126.0,127.0,126.0,127.0,-1.0,107.0,-68.0,127.0,127.0,127.0,-118.0,-89.0,116.0
126.0,127.0,127.0,128.0,126.0,127.0,126.0,127.0,-1.0,107.0,-68.0,127.0,127.0,127.0,-118.0,-89.0,116.0
126.0,127.0,127.0,128.0,127.0,127.0,126.0,127.0,-1.0,107.0,-68.0,127.0,127.0,127.0,-118.0,-89.0,116.0
125.0,127.0,127.0,128.0,127.0,127.0,126.0,127.0,-1.0,107.0,-68.0,127.0,127.0,127.0,-118.0,-89.0,116.0
125.0,127.0,127.0,128.0,127.0,127.0,126.0,127.0,-1.0,107.0,-68.0,127.0,127.0,127.0,-118.0,-89.0,116.0
125.0,127.0,127.0,128.0,126.0,126.0,126.0,127.0,-1.0,107.0,-68.0,127.0,127.0,127.0,-118.0,-89.0,116.0
126.0,126.0,127.0,128.0,126.0,126.0,126.0,127.0,-1.0,107.0,-68.0,127.0,127.0,127.0,-118.0,-89.0,116.0
125.0,126.0,127.0,128.0,126.0,126.0,126.0,127.0,-1.0,107.0,-68.0,127.0,127.0,127.0,-118.0,-89.0,116.0
125.0,126.0,127.0,128.0,126.0,126.0,126.0,127.0,-1.0,107.0,-68.0,127.0,127.0,127.0,-118.0,-89.0,116.0
126.0,127.0,127.0,128.0,126.0,127.0,126.0,127.0,-1.0,107.0,-68.0,127.0,127.0,127.0,-118.0,-89.0,116.0
126.0,127.0,127.0,128.0,126.0,127.0,126.0,127.0,-1.0,107.0,-68.0,127.0,127.0,127.0,-118.0,-89.0,116.0
125.0,127.0,127.0,128.0,126.0,127.0,126.0,127.0,-1.0,107.0,-68.0,127.0,127.0,127.0,-118.0,-89.0,116.0
125.0,127.0,127.0,128.0,126.0,127.0,126.0,127.0,-1.0,107.0,-68.0,127.0,127.0,127.0,-118.0,-89.0,116.0
125.0,127.0,127.0,127.0,126.0,128.0,121.0,128.0,-1.0,107.0,-68.0,127.0,127.0,127.0,-118.0,-89.0,116.0
125.0,127.0,127.0,127.0,126.0,127.0,121.0,127.0,-1.0,107.0,-68.0,127.0,127.0,127.0,-118.0,-89.0,116.0
125.0,127.0,127.0,127.0,126.0,127.0,121.0,128.0,-1.0,107.0,-68.0,127.0,127.0,127.0,-118.0,-89.0,116.0
125.0,127.0,127.0,127.0,126.0,127.0,121.0,127.0,-1.0,107.0,-68.0,127.0,127.0,127.0,-118.0,-89.0,116.0
125.0,127.0,127.0,127.0,126.0,127.0,121.0,127.0,-1.0,107.0,-68.0,127.0,127.0,127.0,-118.0,-89.0,116.0
125.0,127.0,127.0,127.0,126.0,127.0,121.0,127.0,-1.0,107.0,-68.0,127.0,127.0,127.0,-118.0,-89.0,116.0
125.0,127.0,127.0,127.0,126.0,127.0,121.0,127.0,-1.0,107.0,-68.0,127.0,127.0,127.0,-118.0,-89.0,116.0
125.0,127.0,127.0,127.0,126.0,127.0,121.0,127.0,-1.0,107.0,-68.0,127.0,127.0,127.0,-118.0,-89.0,116.0
125.0,127.0,127.0,127.0,126.0,127.0,121.0,127.0,-1.0,107.0,-68.0,127.0,127.0,127.0,-118.0,-89.0,116.0
125.0,127.0,127.0,127.0,126.0,126.0,121.0,127.0,-1.0,107.0,-68.0,127.0,127.0,127.0,-118.0,-89.0,116.0
126.0,127.0,127.0,127.0,127.0,128.0,121.0,127.0,-1.0,107.0,-68.0,127.0,127.0,127.0,-118.0,-89.0,116.0
126.0,127.0,127.0,127.0,127.0,128.0,121.0,127.0,-1.0,107.0,-68.0,127.0,127.0,127.0,-118.0,-89.0,116.0
126.0,127.0,127.0,127.0,127.0,128.0,121.0,127.0,-1.0,107.0,-68.0,127.0,127.0,127.0,-118.0,-89.0,116.0
126.0,127.0,127.0,127.0,127.0,127.0,121.0,127.0,-1.0,107.0,-68.0,127.0,127.0,127.0,-118.0,-89.0,116.0
126.0,127.0,127.0,127.0,127.0,127.0,121.0,127.0,-1.0,107.0,-68.0,127.0,127.0,127.0,-118.0,-89.0,116.0
126.0,127.0,127.0,126.0,127.0,127.0,121.0,127.0,-1.0,107.0,-68.0,127.0,127.0,127.0,-118.0,-89.0,116.0
126.0,127.0,127.0,127.0,127.0,127.0,121.0,127.0,-1.0,107.0,-68.0,127.0,127.0,127.0,-118.0,-89.0,116.0
126.0,127.0,127.0,127.0,127.0,127.0,121.0,127.0,-1.0,107.0,-68.0,127.0,127.0,127.0,-118.0,-89.0,116.0
126.0,127.0,127.0,126.0,127.0,127.0,121.0,127.0,-1.0,107.0,-68.0,127.0,127.0,127.0,-118.0,-89.0,116.0
126.0,127.0,127.0,126.0,127.0,127.0,121.0,127.0,-1.0,107.0,-68.0,127.0,127.0,127.0,-118.0,-89.0,116.0
126.0,127.0,126.0,126.0,126.0,128.0,122.0,127.0,-1.0,107.0,-68.0,127.0,127.0,127.0,-118.0,-89.0,116.0
126.0,127.0,126.0,126.0,126.0,127.0,122.0,127.0,-1.0,107.0,-68.0,127.0,127.0,127.0,-118.0,-89.0,116.0
126.0,127.0,126.0,126.0,126.0,128.0,122.0,127.0,-1.0,107.0,-68.0,127.0,127.0,127.0,-118.0,-89.0,116.0
126.0,127.0,127.0,126.0,126.0,127.0,123.0,127.0,-1.0,107.0,-68.0,127.0,127.0,127.0,-118.0,-89.0,116.0
126.0,127.0,127.0,126.0,126.0,127.0,123.0,127.0,-1.0,107.0,-68.0,127.0,127.0,127.0,-118.0,-89.0,116.0
126.0,127.0,127.0,126.0,126.0,127.0,123.0,127.0,-1.0,107.0,-68.0,127.0,127.0,127.0,-118.0,-89.0,116.0
126.0,127.0,127.0,126.0,126.0,127.0,123.0,127.0,-1.0,107.0,-68.0,127.0,127.0,127.0,-118.0,-89.0,116.0
126.0,127.0,127.0,126.0,126.0,127.0,123.0,127.0,-1.0,107.0,-68.0,127.0,127.0,127.0,-118.0,-89.0,116.0
126.0,127.0,127.0,126.0,126.0,127.0,123.0,127.0,-1.0,107.0,-68.0,127.0,127.0,127.0,-118.0,-89.0,116.0
126.0,127.0,126.0,126.0,126.0,128.0,122.0,127.0,-1.0,107.0,-68.0,127.0,127.0,127.0,-118.0,-89.0,116.0
126.0,128.0,127.0,126.0,125.0,128.0,124.0,129.0,-1.0,107.0,-68.0,127.0,127.0,127.0,-118.0,-89.0,116.0
126.0,127.0,127.0,126.0,125.0,128.0,124.0,129.0,-1.0,107.0,-68.0,127.0,127.0,127.0,-118.0,-89.0,116.0
126.0,127.0,127.0,126.0,125.0,128.0,124.0,128.0,-1.0,107.0,-68.0,127.0,127.0,127.0,-118.0,-89.0,116.0
126.0,127.0,127.0,126.0,125.0,127.0,124.0,128.0,-1.0,107.0,-68.0,127.0,127.0,127.0,-118.0,-89.0,116.0
126.0,127.0,127.0,126.0,125.0,127.0,124.0,128.0,-1.0,107.0,-68.0,127.0,127.0,127.0,-118.0,-89.0,116.0
126.0,127.0,127.0,126.0,126.0,127.0,124.0,128.0,-1.0,107.0,-68.0,127.0,127.0,127.0,-118.0,-89.0,116.0
126.0,127.0,127.0,126.0,125.0,128.0,124.0,129.0,-1.0,107.0,-68.0,127.0,127.0,127.0,-118.0,-89.0,116.0
126.0,127.0,127.0,126.0,125.0,128.0,124.0,129.0,-1.0,107.0,-68.0,127.0,127.0,127.0,-118.0,-89.0,116.0
126.0,127.0,127.0,126.0,125.0,127.0,124.0,128.0,-1.0,107.0,-68.0,127.0,127.0,127.0,-118.0,-89.0,116.0
126.0,127.0,127.0,126.0,125.0,127.0,123.0,128.0,-1.0,107.0,-68.0,127.0,127.0,127.0,-118.0,-89.0,116.0
126.0,127.0,127.0,126.0,126.0,127.0,126.0,129.0,-1.0,107.0,-68.0,127.0,127.0,127.0,-118.0,-89.0,116.0
126.0,127.0,127.0,126.0,126.0,127.0,126.0,129.0,-1.0,107.0,-68.0,127.0,127.0,127.0,-118.0,-89.0,116.0
126.0,127.0,127.0,127.0,127.0,127.0,126.0,128.0,-1.0,107.0,-68.0,127.0,127.0,127.0,-118.0,-89.0,116.0
126.0,127.0,127.0,126.0,127.0,127.0,126.0,128.0,-1.0,107.0,-68.0,127.0,127.0,127.0,-118.0,-89.0,116.0
126.0,127.0,127.0,126.0,127.0,127.0,126.0,128.0,-1.0,107.0,-68.0,127.0,127.0,127.0,-118.0,-89.0,116.0
126.0,127.0,127.0,126.0,127.0,127.0,126.0,128.0,-1.0,107.0,-68.0,127.0,127.0,127.0,-118.0,-89.0,116.0
126.0,127.0,127.0,126.0,127.0,127.0,126.0,128.0,-1.0,107.0,-68.0,127.0,127.0,127.0,-118.0,-89.0,116.0
126.0,127.0,127.0,126.0,126.0,127.0,126.0,129.0,-1.0,107.0,-68.0,127.0,127.0,127.0,-118.0,-89.0,116.0
126.0,127.0,127.0,126.0,126.0,127.0,126.0,129.0,-1.0,107.0,-68.0,127.0,127.0,127.0,-118.0,-89.0,116.0
126.0,127.0,127.0,126.0,126.0,127.0,126.0,129.0,-1.0,107.0,-68.0,127.0,127.0,127.0,-118.0,-89.0,116.0
126.0,127.0,127.0,127.0,126.0,128.0,125.0,128.0,-1.0,107.0,-68.0,127.0,127.0,127.0,-118.0,-89.0,116.0
126.0,127.0,127.0,127.0,126.0,127.0,125.0,128.0,-1.0,107.0,-68.0,127.0,127.0,127.0,-118.0,-89.0,116.0
126.0,127.0,127.0,127.0,126.0,127.0,125.0,128.0,-1.0,107.0,-68.0,127.0,127.0,127.0,-118.0,-89.0,116.0
126.0,127.0,127.0,127.0,126.0,127.0,125.0,128.0,-1.0,107.0,-68.0,127.0,127.0,127.0,-118.0,-89.0,116.0
126.0,127.0,127.0,127.0,126.0,127.0,125.0,128.0,-1.0,107.0,-68.0,127.0,127.0,127.0,-118.0,-89.0,116.0
126.0,127.0,127.0,127.0,126.0,127.0,125.0,128.0,-1.0,107.0,-68.0,127.0,127.0,127.0,-118.0,-89.0,116.0
126.0,127.0,126.0,127.0,126.0,128.0,125.0,129.0,-1.0,107.0,-68.0,127.0,127.0,127.0,-118.0,-89.0,116.0
126.0,127.0,126.0,127.0,126.0,128.0,125.0,129.0,-1.0,107.0,-68.0,127.0,127.0,127.0,-118.0,-89.0,116.0
126.0,127.0,126.0,127.0,126.0,128.0,125.0,129.0,-1.0,107.0,-68.0,127.0,127.0,127.0,-118.0,-89.0,116.0
126.0,127.0,127.0,127.0,126.0,128.0,125.0,129.0,-1.0,107.0,-68.0,127.0,127.0,127.0,-118.0,-89.0,116.0
126.0,128.0,127.0,127.0,127.0,128.0,126.0,128.0,-1.0,107.0,-68.0,127.0,127.0,127.0,-118.0,-89.0,116.0
126.0,127.0,127.0,127.0,127.0,127.0,126.0,128.0,-1.0,107.0,-68.0,127.0,127.0,127.0,-118.0,-89.0,116.0
126.0,127.0,127.0,127.0,127.0,127.0,126.0,128.0,-1.0,107.0,-68.0,127.0,127.0,127.0,-118.0,-89.0,116.0
126.0,127.0,127.0,127.0,127.0,127.0,126.0,128.0,-1.0,107.0,-68.0,127.0,127.0,127.0,-118.0,-89.0,116.0
126.0,127.0,127.0,127.0,127.0,127.0,126.0,128.0,-1.0,107.0,-68.0,127.0,127.0,127.0,-118.0,-89.0,116.0
126.0,128.0,127.0,127.0,126.0,128.0,126.0,128.0,-1.0,107.0,-68.0,127.0,127.0,127.0,-118.0,-89.0,116.0
126.0,128.0,127.0,127.0,126.0,128.0,126.0,128.0,-1.0,107.0,-68.0,127.0,127.0,127.0,-118.0,-89.0,116.0
126.0,128.0,127.0,127.0,126.0,128.0,126.0,128.0,-1.0,107.0,-68.0,127.0,127.0,127.0,-118.0,-89.0,116.0
126.0,128.0,127.0,127.0,126.0,128.0,126.0,128.0,-1.0,107.0,-68.0,127.0,127.0,127.0,-118.0,-89.0,116.0
126.0,128.0,127.0,127.0,126.0,128.0,126.0,128.0,-1.0,107.0,-68.0,127.0,127.0,127.0,-118.0,-89.0,116.0
126.0,127.0,127.0,127.0,126.0,127.0,128.0,128.0,-1.0,107.0,-67.0,127.0,127.0,127.0,-118.0,-89.0,116.0
126.0,127.0,127.0,127.0,126.0,127.0,128.0,128.0,-1.0,107.0,-67.0,127.0,127.0,127.0,-118.0,-89.0,116.0
126.0,127.0,127.0,127.0,126.0,127.0,128.0,128.0,-1.0,107.0,-67.0,127.0,127.0,127.0,-118.0,-89.0,116.0
126.0,127.0,127.0,127.0,126.0,128.0,128.0,128.0,-1.0,107.0,-67.0,127.0,127.0,127.0,-118.0,-89.0,116.0
126.0,127.0,127.0,127.0,126.0,126.0,128.0,128.0,-1.0,107.0,-67.0,127.0,127.0,127.0,-118.0,-89.0,116.0
126.0,127.0,127.0,127.0,126.0,126.0,128.0,128.0,-1.0,107.0,-67.0,127.0,127.0,127.0,-118.0,-89.0,116.0
126.0,127.0,127.0,127.0,126.0,127.0,128.0,128.0,-1.0,107.0,-67.0,127.0,127.0,127.0,-118.0,-89.0,116.0
126.0,127.0,126.0,127.0,126.0,127.0,128.0,128.0,-1.0,107.0,-67.0,127.0,127.0,127.0,-118.0,-89.0,116.0
126.0,127.0,127.0,127.0,126.0,127.0,128.0,128.0,-1.0,107.0,-67.0,127.0,127.0,127.0,-118.0,-89.0,116.0
126.0,127.0,127.0,127.0,126.0,127.0,128.0,128.0,-1.0,107.0,-67.0,127.0,127.0,127.0,-118.0,-89.0,116.0
126.0,127.0,126.0,128.0,126.0,127.0,129.0,128.0,-1.0,107.0,-67.0,127.0,127.0,127.0,-118.0,-89.0,116.0
126.0,127.0,126.0,128.0,126.0,126.0,129.0,128.0,-1.0,107.0,-67.0,127.0,127.0,127.0,-118.0,-89.0,116.0
126.0,127.0,126.0,128.0,126.0,127.0,128.0,128.0,-1.0,107.0,-67.0,127.0,127.0,127.0,-118.0,-89.0,116.0
126.0,127.0,126.0,128.0,126.0,125.0,129.0,127.0,-1.0,107.0,-67.0,127.0,127.0,127.0,-118.0,-89.0,116.0
126.0,127.0,126.0,128.0,126.0,126.0,129.0,127.0,-1.0,107.0,-67.0,127.0,127.0,127.0,-118.0,-89.0,116.0
126.0,127.0,126.0,128.0,126.0,126.0,129.0,127.0,-1.0,107.0,-67.0,127.0,127.0,127.0,-118.0,-89.0,116.0
126.0,127.0,126.0,128.0,125.0,127.0,129.0,128.0,-1.0,107.0,-67.0,127.0,127.0,127.0,-118.0,-89.0,116.0
126.0,127.0,126.0,128.0,126.0,127.0,129.0,128.0,-1.0,107.0,-67.0,127.0,127.0,127.0,-118.0,-89.0,116.0
126.0,127.0,126.0,128.0,126.0,126.0,129.0,128.0,-1.0,107.0,-67.0,127.0,127.0,127.0,-118.0,-89.0,116.0
126.0,127.0,126.0,128.0,126.0,126.0,129.0,128.0,-1.0,107.0,-67.0,127.0,127.0,127.0,-118.0,-89.0,116.0
126.0,127.0,127.0,128.0,126.0,126.0,128.0,128.0,-1.0,107.0,-67.0,127.0,127.0,127.0,-118.0,-89.0,116.0
126.0,127.0,127.0,128.0,126.0,126.0,128.0,128.0,-1.0,107.0,-67.0,127.0,127.0,127.0,-118.0,-89.0,116.0
126.0,127.0,126.0,128.0,126.0,127.0,128.0,128.0,-1.0,107.0,-67.0,127.0,127.0,127.0,-118.0,-89.0,116.0
126.0,127.0,126.0,128.0,126.0,127.0,128.0,128.0,-1.0,107.0,-67.0,127.0,127.0,127.0,-118.0,-89.0,116.0
126.0,127.0,126.0,128.0,126.0,127.0,128.0,128.0,-1.0,107.0,-67.0,127.0,127.0,127.0,-118.0,-89.0,116.0
126.0,127.0,126.0,128.0,126.0,127.0,128.0,128.0,-1.0,107.0,-67.0,127.0,127.0,127.0,-118.0,-89.0,116.0
126.0,127.0,126.0,128.0,126.0,127.0,128.0,128.0,-1.0,107.0,-67.0,127.0,127.0,127.0,-118.0,-89.0,116.0
126.0,127.0,126.0,128.0,126.0,127.0,128.0,128.0,-1.0,107.0,-67.0,127.0,127.0,127.0,-118.0,-89.0,116.0
126.0,127.0,127.0,128.0,126.0,126.0,128.0,128.0,-1.0,107.0,-67.0,127.0,127.0,127.0,-118.0,-89.0,116.0
126.0,127.0,127.0,128.0,126.0,127.0,128.0,128.0,-1.0,107.0,-67.0,127.0,127.0,127.0,-118.0,-89.0,116.0
126.0,127.0,127.0,128.0,126.0,126.0,129.0,127.0,-1.0,107.0,-67.0,127.0,127.0,127.0,-118.0,-89.0,116.0
126.0,127.0,127.0,128.0,126.0,127.0,128.0,128.0,-1.0,107.0,-67.0,127.0,127.0,127.0,-118.0,-89.0,116.0
126.0,127.0,127.0,128.0,126.0,127.0,128.0,128.0,-1.0,107.0,-67.0,127.0,127.0,127.0,-118.0,-89.0,116.0
126.0,127.0,127.0,128.0,126.0,127.0,128.0,128.0,-1.0,107.0,-67.0,127.0,127.0,127.0,-118.0,-89.0,116.0
126.0,127.0,127.0,128.0,126.0,127.0,129.0,128.0,-1.0,107.0,-67.0,127.0,127.0,127.0,-118.0,-89.0,116.0
126.0,127.0,127.0,128.0,126.0,127.0,129.0,128.0,-1.0,107.0,-67.0,127.0,127.0,127.0,-118.0,-89.0,116.0
126.0,127.0,127.0,128.0,126.0,127.0,129.0,128.0,-1.0,107.0,-67.0,127.0,127.0,127.0,-118.0,-89.0,116.0
126.0,127.0,127.0,128.0,126.0,127.0,129.0,128.0,-1.0,107.0,-67.0,127.0,127.0,127.0,-118.0,-89.0,116.0
126.0,127.0,127.0,128.0,126.0,127.0,129.0,127.0,-1.0,107.0,-67.0,127.0,127.0,127.0,-118.0,-89.0,116.0
126.0,127.0,127.0,128.0,126.0,127.0,129.0,127.0,-1.0,107.0,-67.0,127.0,127.0,127.0,-118.0,-89.0,116.0
126.0,127.0,127.0,128.0,126.0,127.0,129.0,128.0,-1.0,107.0,-68.0,127.0,127.0,127.0,-118.0,-89.0,116.0
126.0,127.0,127.0,128.0,126.0,127.0,129.0,128.0,-1.0,107.0,-68.0,127.0,127.0,127.0,-118.0,-89.0,116.0
126.0,127.0,127.0,128.0,126.0,127.0,129.0,128.0,-1.0,107.0,-68.0,127.0,127.0,127.0,-118.0,-89.0,116.0
126.0,127.0,127.0,128.0,126.0,127.0,129.0,128.0,-1.0,107.0,-68.0,127.0,127.0,127.0,-118.0,-89.0,116.0
126.0,127.0,127.0,128.0,126.0,127.0,129.0,128.0,-1.0,107.0,-68.0,127.0,127.0,127.0,-118.0,-89.0,116.0
126.0,127.0,127.0,128.0,126.0,127.0,129.0,128.0,-1.0,107.0,-68.0,127.0,127.0,127.0,-118.0,-89.0,116.0
126.0,127.0,127.0,128.0,126.0,127.0,129.0,128.0,-1.0,107.0,-68.0,127.0,127.0,127.0,-118.0,-89.0,116.0
126.0,127.0,127.0,128.0,127.0,127.0,129.0,127.0,-1.0,107.0,-68.0,127.0,127.0,127.0,-118.0,-89.0,116.0
126.0,127.0,127.0,128.0,126.0,127.0,129.0,127.0,-1.0,107.0,-68.0,127.0,127.0,127.0,-118.0,-89.0,116.0
126.0,127.0,127.0,128.0,127.0,127.0,129.0,127.0,-1.0,107.0,-68.0,127.0,127.0,127.0,-118.0,-89.0,116.0
126.0,127.0,127.0,128.0,125.0,127.0,128.0,128.0,-1.0,107.0,-68.0,127.0,127.0,127.0,-118.0,-89.0,116.0
126.0,127.0,127.0,128.0,125.0,127.0,128.0,128.0,-1.0,107.0,-68.0,127.0,127.0,127.0,-118.0,-89.0,116.0
126.0,127.0,127.0,128.0,125.0,127.0,128.0,128.0,-1.0,107.0,-68.0,127.0,127.0,127.0,-118.0,-89.0,116.0
126.0,127.0,127.0,128.0,125.0,127.0,128.0,128.0,-1.0,107.0,-68.0,127.0,127.0,127.0,-118.0,-89.0,116.0
126.0,127.0,127.0,128.0,126.0,127.0,128.0,128.0,-1.0,107.0,-68.0,127.0,127.0,127.0,-118.0,-89.0,116.0
126.0,127.0,127.0,128.0,126.0,127.0,128.0,128.0,-1.0,107.0,-68.0,127.0,127.0,127.0,-118.0,-89.0,116.0
126.0,127.0,127.0,128.0,126.0,127.0,128.0,128.0,-1.0,107.0,-68.0,127.0,127.0,127.0,-118.0,-89.0,116.0
126.0,127.0,127.0,128.0,126.0,127.0,128.0,128.0,-1.0,107.0,-68.0,127.0,127.0,127.0,-118.0,-89.0,116.0
126.0,127.0,127.0,128.0,126.0,126.0,128.0,128.0,-1.0,107.0,-68.0,127.0,127.0,127.0,-118.0,-89.0,116.0
126.0,127.0,127.0,128.0,125.0,127.0,128.0,128.0,-1.0,107.0,-68.0,127.0,127.0,127.0,-118.0,-89.0,116.0
127.0,127.0,126.0,128.0,126.0,127.0,128.0,128.0,-1.0,107.0,-68.0,127.0,127.0,127.0,-118.0,-89.0,116.0
127.0,127.0,126.0,128.0,126.0,127.0,128.0,128.0,-1.0,107.0,-68.0,127.0,127.0,127.0,-118.0,-89.0,116.0
126.0,127.0,126.0,128.0,126.0,127.0,128.0,128.0,-1.0,107.0,-68.0,127.0,127.0,127.0,-118.0,-89.0,116.0
127.0,127.0,126.0,128.0,126.0,127.0,128.0,128.0,-1.0,107.0,-68.0,127.0,127.0,127.0,-118.0,-89.0,116.0
127.0,127.0,126.0,128.0,126.0,126.0,128.0,128.0,-1.0,107.0,-68.0,127.0,127.0,127.0,-118.0,-89.0,116.0
127.0,127.0,126.0,128.0,126.0,126.0,128.0,128.0,-1.0,107.0,-68.0,127.0,127.0,127.0,-118.0,-89.0,116.0
126.0,127.0,126.0,128.0,126.0,126.0,128.0,128.0,-1.0,107.0,-68.0,127.0,127.0,127.0,-118.0,-89.0,116.0
126.0,127.0,126.0,128.0,126.0,126.0,128.0,128.0,-1.0,107.0,-68.0,127.0,127.0,127.0,-118.0,-89.0,116.0
127.0,127.0,126.0,128.0,126.0,128.0,128.0,128.0,-1.0,107.0,-68.0,127.0,127.0,127.0,-118.0,-89.0,116.0
127.0,127.0,126.0,128.0,126.0,127.0,128.0,128.0,-1.0,107.0,-68.0,127.0,127.0,127.0,-118.0,-89.0,116.0
127.0,127.0,126.0,128.0,126.0,127.0,128.0,128.0,-1.0,107.0,-68.0,127.0,127.0,127.0,-118.0,-89.0,116.0
127.0,127.0,126.0,128.0,126.0,127.0,128.0,128.0,-1.0,107.0,-68.0,127.0,127.0,127.0,-118.0,-89.0,116.0
127.0,127.0,126.0,128.0,126.0,127.0,128.0,128.0,-1.0,107.0,-68.0,127.0,127.0,127.0,-118.0,-89.0,116.0
127.0,127.0,126.0,128.0,126.0,127.0,128.0,128.0,-1.0,107.0,-68.0,127.0,127.0,127.0,-118.0,-89.0,116.0
127.0,127.0,126.0,128.0,126.0,127.0,128.0,128.0,-1.0,107.0,-68.0,127.0,127.0,127.0,-118.0,-89.0,116.0
127.0,127.0,126.0,128.0,126.0,127.0,128.0,128.0,-1.0,107.0,-68.0,127.0,127.0,127.0,-118.0,-89.0,116.0
127.0,127.0,126.0,128.0,126.0,127.0,128.0,128.0,-1.0,107.0,-68.0,127.0,127.0,127.0,-118.0,-89.0,116.0
127.0,127.0,126.0,128.0,126.0,128.0,128.0,129.0,-1.0,107.0,-68.0,127.0,127.0,127.0,-118.0,-89.0,116.0
127.0,127.0,126.0,128.0,126.0,127.0,128.0,128.0,-1.0,107.0,-68.0,127.0,127.0,127.0,-118.0,-89.0,116.0
127.0,127.0,126.0,128.0,126.0,128.0,128.0,128.0,-1.0,107.0,-68.0,127.0,127.0,127.0,-118.0,-89.0,116.0
127.0,127.0,127.0,128.0,126.0,127.0,123.0,128.0,-1.0,107.0,-68.0,127.0,127.0,127.0,-118.0,-89.0,116.0
127.0,127.0,127.0,128.0,126.0,127.0,123.0,128.0,-1.0,107.0,-68.0,127.0,127.0,127.0,-118.0,-89.0,116.0
127.0,127.0,127.0,128.0,126.0,127.0,123.0,128.0,-1.0,107.0,-68.0,127.0,127.0,127.0,-118.0,-89.0,116.0
126.0,127.0,126.0,128.0,126.0,128.0,123.0,129.0,-1.0,107.0,-68.0,127.0,127.0,127.0,-118.0,-89.0,116.0
127.0,127.0,126.0,128.0,126.0,128.0,123.0,129.0,-1.0,107.0,-68.0,127.0,127.0,127.0,-118.0,-89.0,116.0
127.0,127.0,127.0,128.0,126.0,128.0,123.0,129.0,-1.0,107.0,-68.0,127.0,127.0,127.0,-118.0,-89.0,116.0
126.0,127.0,127.0,128.0,126.0,127.0,123.0,128.0,-1.0,107.0,-68.0,127.0,127.0,127.0,-118.0,-89.0,116.0
126.0,127.0,127.0,128.0,126.0,127.0,123.0,128.0,-1.0,107.0,-68.0,127.0,127.0,127.0,-118.0,-89.0,116.0
127.0,127.0,127.0,128.0,126.0,127.0,123.0,128.0,-1.0,107.0,-68.0,127.0,127.0,127.0,-118.0,-89.0,116.0
127.0,127.0,127.0,128.0,126.0,127.0,123.0,128.0,-1.0,107.0,-68.0,127.0,127.0,127.0,-118.0,-89.0,116.0
127.0,127.0,127.0,128.0,126.0,127.0,124.0,128.0,-1.0,107.0,-69.0,127.0,127.0,127.0,-118.0,-89.0,116.0
127.0,127.0,127.0,128.0,126.0,126.0,124.0,128.0,-1.0,107.0,-69.0,127.0,127.0,127.0,-118.0,-89.0,116.0
127.0,127.0,126.0,128.0,126.0,127.0,124.0,128.0,-1.0,107.0,-69.0,127.0,127.0,127.0,-118.0,-89.0,116.0
127.0,127.0,126.0,128.0,126.0,127.0,124.0,128.0,-1.0,107.0,-69.0,127.0,127.0,127.0,-118.0,-89.0,116.0
127.0,127.0,127.0,128.0,126.0,127.0,124.0,128.0,-1.0,107.0,-69.0,127.0,127.0,127.0,-118.0,-89.0,116.0
126.0,127.0,127.0,128.0,126.0,126.0,124.0,128.0,-1.0,107.0,-69.0,127.0,127.0,127.0,-118.0,-89.0,116.0
126.0,127.0,126.0,128.0,126.0,127.0,124.0,128.0,-1.0,107.0,-69.0,127.0,127.0,127.0,-118.0,-89.0,116.0
126.0,127.0,126.0,128.0,126.0,127.0,124.0,128.0,-1.0,107.0,-69.0,127.0,127.0,127.0,-118.0,-89.0,116.0
127.0,127.0,126.0,128.0,126.0,127.0,124.0,128.0,-1.0,107.0,-69.0,127.0,127.0,127.0,-118.0,-89.0,116.0
127.0,127.0,127.0,128.0,126.0,127.0,124.0,128.0,-1.0,107.0,-69.0,127.0,127.0,127.0,-118.0,-89.0,116.0
127.0,127.0,127.0,128.0,126.0,127.0,127.0,128.0,-1.0,106.0,-69.0,127.0,127.0,127.0,-118.0,-89.0,116.0
126.0,127.0,126.0,128.0,126.0,127.0,127.0,128.0,-1.0,106.0,-69.0,127.0,127.0,127.0,-118.0,-89.0,116.0
127.0,127.0,126.0,128.0,126.0,128.0,127.0,128.0,-1.0,106.0,-69.0,127.0,127.0,127.0,-118.0,-89.0,116.0
127.0,127.0,126.0,128.0,126.0,128.0,127.0,128.0,-1.0,106.0,-69.0,127.0,127.0,127.0,-118.0,-89.0,116.0
126.0,127.0,127.0,128.0,126.0,126.0,126.0,128.0,-1.0,106.0,-69.0,127.0,127.0,127.0,-118.0,-89.0,116.0
127.0,127.0,126.0,128.0,126.0,127.0,126.0,128.0,-1.0,106.0,-69.0,127.0,127.0,127.0,-118.0,-89.0,116.0
127.0,127.0,126.0,128.0,126.0,127.0,126.0,128.0,-1.0,106.0,-69.0,127.0,127.0,127.0,-118.0,-89.0,116.0
