emg1,emg2,emg3,emg4,emg5,emg6,emg7,emg8,acc_x,acc_y,acc_z,gyro_x,gyro_y,gyro_z,angle_pitch,angle_roll,angle_yaw
126.0,127.0,127.0,127.0,127.0,128.0,106.0,129.0,26.0,-118.0,-69.0,127.0,127.0,127.0,122.0,87.0,-81.0
126.0,127.0,127.0,127.0,127.0,127.0,106.0,129.0,26.0,-118.0,-69.0,127.0,127.0,127.0,122.0,87.0,-81.0
126.0,127.0,127.0,127.0,127.0,127.0,106.0,129.0,26.0,-118.0,-69.0,127.0,127.0,127.0,122.0,87.0,-81.0
126.0,127.0,127.0,127.0,127.0,127.0,106.0,129.0,26.0,-118.0,-69.0,127.0,127.0,127.0,122.0,87.0,-81.0
127.0,127.0,127.0,127.0,127.0,127.0,107.0,129.0,26.0,-118.0,-69.0,127.0,127.0,127.0,122.0,87.0,-81.0
127.0,127.0,127.0,127.0,127.0,127.0,106.0,129.0,26.0,-118.0,-69.0,127.0,127.0,127.0,122.0,87.0,-81.0
127.0,127.0,126.0,127.0,127.0,127.0,106.0,128.0,26.0,-118.0,-69.0,127.0,127.0,127.0,122.0,87.0,-81.0
127.0,127.0,127.0,127.0,127.0,128.0,107.0,129.0,26.0,-118.0,-69.0,127.0,127.0,127.0,122.0,87.0,-81.0
127.0,127.0,127.0,127.0,127.0,128.0,107.0,129.0,26.0,-118.0,-69.0,127.0,127.0,127.0,122.0,87.0,-81.0
126.0,127.0,127.0,127.0,127.0,128.0,107.0,129.0,26.0,-118.0,-69.0,127.0,127.0,127.0,122.0,87.0,-81.0
127.0,127.0,127.0,127.0,127.0,128.0,107.0,129.0,26.0,-118.0,-69.0,127.0,127.0,127.0,122.0,87.0,-81.0
126.0,127.0,127.0,127.0,127.0,128.0,107.0,129.0,26.0,-118.0,-69.0,127.0,127.0,127.0,122.0,87.0,-81.0
126.0,127.0,127.0,127.0,127.0,128.0,107.0,129.0,26.0,-118.0,-69.0,127.0,127.0,127.0,122.0,87.0,-81.0
127.0,127.0,126.0,127.0,127.0,128.0,107.0,129.0,26.0,-118.0,-69.0,127.0,127.0,127.0,122.0,87.0,-81.0
127.0,127.0,126.0,127.0,127.0,128.0,106.0,128.0,26.0,-118.0,-69.0,127.0,127.0,127.0,122.0,87.0,-81.0
127.0,127.0,126.0,127.0,127.0,128.0,106.0,128.0,26.0,-118.0,-69.0,127.0,127.0,127.0,122.0,87.0,-81.0
127.0,127.0,126.0,127.0,127.0,127.0,107.0,128.0,27.0,-118.0,-69.0,127.0,127.0,127.0,122.0,87.0,-81.0
127.0,127.0,126.0,127.0,127.0,127.0,106.0,128.0,27.0,-118.0,-69.0,127.0,127.0,127.0,122.0,87.0,-81.0
127.0,127.0,126.0,127.0,127.0,127.0,107.0,128.0,27.0,-118.0,-69.0,127.0,127.0,127.0,122.0,87.0,-81.0
127.0,127.0,126.0,127.0,127.0,127.0,107.0,128.0,27.0,-118.0,-69.0,127.0,127.0,127.0,122.0,87.0,-81.0
127.0,127.0,126.0,127.0,127.0,127.0,106.0,128.0,27.0,-118.0,-69.0,127.0,127.0,127.0,122.0,87.0,-81.0
127.0,127.0,126.0,127.0,127.0,127.0,107.0,128.0,27.0,-118.0,-69.0,127.0,127.0,127.0,122.0,87.0,-81.0
127.0,127.0,127.0,127.0,127.0,127.0,107.0,128.0,27.0,-118.0,-69.0,127.0,127.0,127.0,122.0,87.0,-81.0
127.0,127.0,127.0,127.0,127.0,127.0,106.0,128.0,27.0,-118.0,-69.0,127.0,127.0,127.0,122.0,87.0,-81.0
127.0,127.0,127.0,127.0,127.0,127.0,107.0,128.0,27.0,-118.0,-69.0,127.0,127.0,127.0,122.0,87.0,-81.0
127.0,127.0,127.0,127.0,127.0,127.0,107.0,128.0,27.0,-118.0,-69.0,127.0,127.0,127.0,122.0,87.0,-81.0
127.0,127.0,127.0,127.0,127.0,127.0,107.0,128.0,27.0,-118.0,-69.0,127.0,127.0,127.0,122.0,87.0,-81.0
127.0,127.0,127.0,127.0,127.0,127.0,107.0,128.0,27.0,-118.0,-69.0,127.0,127.0,127.0,122.0,87.0,-81.0
127.0,127.0,127.0,127.0,127.0,127.0,107.0,128.0,27.0,-118.0,-69.0,127.0,127.0,127.0,122.0,87.0,-81.0
127.0,127.0,127.0,127.0,127.0,127.0,107.0,128.0,27.0,-118.0,-69.0,127.0,127.0,127.0,122.0,87.0,-81.0
127.0,127.0,127.0,127.0,127.0,127.0,107.0,128.0,27.0,-118.0,-69.0,127.0,127.0,127.0,122.0,87.0,-81.0
127.0,127.0,127.0,127.0,127.0,127.0,106.0,128.0,27.0,-118.0,-69.0,127.0,127.0,127.0,122.0,87.0,-81.0
127.0,127.0,127.0,127.0,127.0,127.0,106.0,128.0,27.0,-118.0,-69.0,127.0,127.0,127.0,122.0,87.0,-81.0
127.0,127.0,127.0,127.0,127.0,127.0,108.0,128.0,27.0,-118.0,-69.0,127.0,127.0,127.0,122.0,87.0,-81.0
127.0,127.0,127.0,127.0,127.0,127.0,107.0,128.0,27.0,-118.0,-69.0,127.0,127.0,127.0,122.0,87.0,-81.0
127.0,127.0,127.0,127.0,127.0,127.0,106.0,128.0,27.0,-118.0,-69.0,127.0,127.0,127.0,122.0,87.0,-81.0
127.0,127.0,127.0,127.0,127.0,127.0,112.0,128.0,27.0,-119.0,-68.0,127.0,127.0,127.0,122.0,87.0,-81.0
127.0,127.0,127.0,127.0,127.0,127.0,112.0,128.0,27.0,-119.0,-68.0,127.0,127.0,127.0,122.0,87.0,-81.0
127.0,127.0,127.0,127.0,127.0,127.0,113.0,128.0,27.0,-119.0,-68.0,127.0,127.0,127.0,122.0,87.0,-81.0
127.0,127.0,127.0,127.0,127.0,127.0,112.0,128.0,27.0,-119.0,-68.0,127.0,127.0,127.0,122.0,87.0,-81.0
127.0,126.0,127.0,127.0,127.0,127.0,112.0,128.0,27.0,-119.0,-68.0,127.0,127.0,127.0,122.0,87.0,-81.0
127.0,126.0,127.0,127.0,127.0,127.0,112.0,128.0,27.0,-119.0,-68.0,127.0,127.0,127.0,122.0,87.0,-81.0
127.0,127.0,127.0,127.0,127.0,127.0,112.0,128.0,27.0,-119.0,-68.0,127.0,127.0,127.0,122.0,87.0,-81.0
127.0,127.0,127.0,127.0,127.0,127.0,112.0,128.0,27.0,-119.0,-68.0,127.0,127.0,127.0,122.0,87.0,-81.0
127.0,126.0,127.0,127.0,127.0,127.0,112.0,128.0,27.0,-119.0,-68.0,127.0,127.0,127.0,122.0,87.0,-81.0
127.0,126.0,127.0,127.0,127.0,126.0,112.0,128.0,27.0,-119.0,-68.0,127.0,127.0,127.0,122.0,87.0,-81.0
127.0,127.0,128.0,127.0,127.0,127.0,113.0,128.0,27.0,-119.0,-68.0,127.0,127.0,127.0,122.0,87.0,-81.0
127.0,127.0,128.0,127.0,127.0,127.0,112.0,128.0,27.0,-119.0,-68.0,127.0,127.0,127.0,122.0,87.0,-81.0
127.0,127.0,127.0,127.0,127.0,127.0,112.0,128.0,27.0,-119.0,-68.0,127.0,127.0,127.0,122.0,87.0,-81.0
127.0,127.0,127.0,127.0,127.0,127.0,106.0,128.0,27.0,-119.0,-68.0,127.0,127.0,127.0,122.0,87.0,-81.0
127.0,127.0,127.0,127.0,127.0,127.0,106.0,128.0,27.0,-119.0,-68.0,127.0,127.0,127.0,122.0,87.0,-81.0
127.0,127.0,127.0,127.0,127.0,127.0,106.0,128.0,27.0,-119.0,-68.0,127.0,127.0,127.0,122.0,87.0,-81.0
127.0,127.0,127.0,127.0,127.0,127.0,107.0,128.0,27.0,-119.0,-68.0,127.0,127.0,127.0,122.0,87.0,-81.0
127.0,127.0,127.0,127.0,127.0,127.0,107.0,128.0,27.0,-119.0,-68.0,127.0,127.0,127.0,122.0,87.0,-81.0
127.0,127.0,127.0,127.0,127.0,127.0,112.0,128.0,27.0,-119.0,-68.0,127.0,127.0,127.0,122.0,87.0,-81.0
127.0,127.0,127.0,127.0,127.0,127.0,113.0,128.0,27.0,-119.0,-68.0,127.0,127.0,127.0,122.0,87.0,-81.0
126.0,127.0,127.0,127.0,127.0,127.0,106.0,128.0,26.0,-119.0,-68.0,127.0,127.0,127.0,122.0,87.0,-81.0
126.0,127.0,127.0,127.0,127.0,127.0,106.0,128.0,26.0,-119.0,-68.0,127.0,127.0,127.0,122.0,87.0,-81.0
126.0,127.0,127.0,127.0,126.0,127.0,107.0,128.0,26.0,-119.0,-68.0,127.0,127.0,127.0,122.0,87.0,-81.0
126.0,127.0,126.0,127.0,126.0,127.0,107.0,128.0,26.0,-119.0,-68.0,127.0,127.0,127.0,122.0,87.0,-81.0
126.0,127.0,126.0,127.0,127.0,127.0,107.0,128.0,26.0,-119.0,-68.0,127.0,127.0,127.0,122.0,87.0,-81.0
126.0,127.0,126.0,127.0,127.0,127.0,106.0,128.0,26.0,-119.0,-68.0,127.0,127.0,127.0,122.0,87.0,-81.0
126.0,127.0,126.0,127.0,127.0,127.0,107.0,128.0,26.0,-119.0,-68.0,127.0,127.0,127.0,122.0,87.0,-81.0
126.0,127.0,126.0,127.0,127.0,127.0,107.0,128.0,26.0,-119.0,-68.0,127.0,127.0,127.0,122.0,87.0,-81.0
126.0,127.0,126.0,127.0,127.0,127.0,106.0,128.0,26.0,-119.0,-68.0,127.0,127.0,127.0,122.0,87.0,-81.0
126.0,127.0,127.0,127.0,127.0,127.0,106.0,128.0,26.0,-119.0,-68.0,127.0,127.0,127.0,122.0,87.0,-81.0
126.0,128.0,127.0,127.0,127.0,127.0,106.0,128.0,26.0,-119.0,-67.0,127.0,127.0,127.0,122.0,87.0,-81.0
126.0,127.0,127.0,127.0,127.0,127.0,107.0,128.0,26.0,-119.0,-67.0,127.0,127.0,127.0,122.0,87.0,-81.0
126.0,127.0,127.0,127.0,127.0,127.0,106.0,128.0,26.0,-119.0,-67.0,127.0,127.0,127.0,122.0,87.0,-81.0
126.0,128.0,127.0,127.0,127.0,128.0,107.0,128.0,26.0,-119.0,-67.0,127.0,127.0,127.0,122.0,87.0,-81.0
126.0,128.0,127.0,127.0,127.0,128.0,107.0,128.0,26.0,-119.0,-67.0,127.0,127.0,127.0,122.0,87.0,-81.0
126.0,128.0,127.0,127.0,127.0,128.0,107.0,128.0,26.0,-119.0,-67.0,127.0,127.0,127.0,122.0,87.0,-81.0
126.0,128.0,127.0,127.0,127.0,128.0,108.0,128.0,26.0,-119.0,-67.0,127.0,127.0,127.0,122.0,87.0,-81.0
126.0,128.0,127.0,127.0,127.0,128.0,107.0,128.0,26.0,-119.0,-67.0,127.0,127.0,127.0,122.0,87.0,-81.0
126.0,128.0,127.0,127.0,127.0,128.0,107.0,128.0,26.0,-119.0,-67.0,127.0,127.0,127.0,122.0,87.0,-81.0
126.0,128.0,127.0,127.0,127.0,128.0,107.0,128.0,26.0,-119.0,-67.0,127.0,127.0,127.0,122.0,87.0,-81.0
126.0,127.0,127.0,127.0,127.0,127.0,106.0,127.0,26.0,-118.0,-67.0,127.0,127.0,127.0,122.0,87.0,-81.0
126.0,127.0,127.0,127.0,127.0,127.0,107.0,127.0,26.0,-118.0,-67.0,127.0,127.0,127.0,122.0,87.0,-81.0
126.0,127.0,127.0,127.0,127.0,128.0,107.0,127.0,26.0,-118.0,-67.0,127.0,127.0,127.0,122.0,87.0,-81.0
126.0,127.0,127.0,127.0,127.0,128.0,107.0,127.0,26.0,-118.0,-67.0,127.0,127.0,127.0,122.0,87.0,-81.0
126.0,127.0,127.0,127.0,127.0,128.0,107.0,127.0,26.0,-118.0,-67.0,127.0,127.0,127.0,122.0,87.0,-81.0
126.0,127.0,127.0,127.0,127.0,128.0,107.0,127.0,26.0,-118.0,-67.0,127.0,127.0,127.0,122.0,87.0,-81.0
126.0,127.0,127.0,127.0,127.0,128.0,107.0,127.0,26.0,-118.0,-67.0,127.0,127.0,127.0,122.0,87.0,-81.0
126.0,127.0,127.0,127.0,127.0,128.0,106.0,127.0,26.0,-118.0,-67.0,127.0,127.0,127.0,122.0,87.0,-81.0
126.0,127.0,127.0,127.0,127.0,127.0,106.0,127.0,26.0,-118.0,-67.0,127.0,127.0,127.0,122.0,87.0,-81.0
126.0,127.0,127.0,127.0,127.0,127.0,106.0,127.0,26.0,-118.0,-67.0,127.0,127.0,127.0,122.0,87.0,-81.0
126.0,127.0,127.0,127.0,126.0,127.0,107.0,127.0,26.0,-118.0,-67.0,127.0,127.0,127.0,122.0,87.0,-81.0
126.0,128.0,127.0,127.0,127.0,127.0,107.0,127.0,26.0,-118.0,-67.0,127.0,127.0,127.0,122.0,87.0,-81.0
126.0,128.0,127.0,127.0,126.0,127.0,106.0,127.0,26.0,-118.0,-67.0,127.0,127.0,127.0,122.0,87.0,-81.0
126.0,128.0,127.0,127.0,126.0,127.0,106.0,127.0,26.0,-118.0,-67.0,127.0,127.0,127.0,122.0,87.0,-81.0
126.0,128.0,127.0,127.0,126.0,127.0,106.0,127.0,26.0,-118.0,-67.0,127.0,127.0,127.0,122.0,87.0,-81.0
126.0,128.0,127.0,127.0,126.0,127.0,106.0,127.0,26.0,-118.0,-67.0,127.0,127.0,127.0,122.0,87.0,-81.0
126.0,128.0,127.0,127.0,127.0,127.0,106.0,127.0,26.0,-118.0,-67.0,127.0,127.0,127.0,122.0,87.0,-81.0
126.0,128.0,127.0,127.0,127.0,127.0,107.0,127.0,26.0,-118.0,-67.0,127.0,127.0,127.0,122.0,87.0,-81.0
126.0,128.0,127.0,127.0,126.0,127.0,107.0,127.0,26.0,-118.0,-67.0,127.0,127.0,127.0,122.0,87.0,-81.0
126.0,127.0,127.0,127.0,126.0,127.0,107.0,127.0,26.0,-118.0,-67.0,127.0,127.0,127.0,122.0,87.0,-81.0
126.0,127.0,127.0,127.0,127.0,128.0,106.0,127.0,26.0,-118.0,-67.0,127.0,127.0,127.0,122.0,87.0,-81.0
126.0,128.0,126.0,127.0,127.0,128.0,107.0,127.0,26.0,-118.0,-67.0,127.0,127.0,127.0,122.0,87.0,-81.0
126.0,128.0,126.0,127.0,127.0,128.0,107.0,127.0,26.0,-118.0,-67.0,127.0,127.0,127.0,122.0,87.0,-81.0
126.0,128.0,126.0,127.0,127.0,128.0,107.0,127.0,26.0,-118.0,-67.0,127.0,127.0,127.0,122.0,87.0,-81.0
126.0,128.0,127.0,127.0,127.0,128.0,106.0,127.0,26.0,-118.0,-67.0,127.0,127.0,127.0,122.0,87.0,-81.0
126.0,128.0,127.0,127.0,127.0,128.0,106.0,127.0,26.0,-118.0,-67.0,127.0,127.0,127.0,122.0,87.0,-81.0
126.0,128.0,127.0,127.0,127.0,128.0,106.0,127.0,26.0,-118.0,-67.0,127.0,127.0,127.0,122.0,87.0,-81.0
126.0,128.0,127.0,127.0,127.0,127.0,106.0,127.0,26.0,-118.0,-67.0,127.0,127.0,127.0,122.0,87.0,-81.0
126.0,128.0,127.0,127.0,127.0,127.0,107.0,127.0,26.0,-118.0,-67.0,127.0,127.0,127.0,122.0,87.0,-81.0
126.0,127.0,127.0,127.0,127.0,127.0,106.0,127.0,26.0,-118.0,-67.0,127.0,127.0,127.0,122.0,87.0,-81.0
126.0,127.0,127.0,127.0,126.0,127.0,109.0,127.0,26.0,-118.0,-67.0,127.0,127.0,127.0,122.0,87.0,-81.0
126.0,127.0,127.0,127.0,126.0,127.0,109.0,127.0,26.0,-118.0,-67.0,127.0,127.0,127.0,122.0,87.0,-81.0
126.0,127.0,127.0,127.0,126.0,127.0,110.0,127.0,26.0,-118.0,-67.0,127.0,127.0,127.0,122.0,87.0,-81.0
126.0,128.0,127.0,127.0,127.0,127.0,108.0,127.0,26.0,-118.0,-67.0,127.0,127.0,127.0,122.0,87.0,-81.0
126.0,128.0,127.0,127.0,127.0,127.0,107.0,127.0,26.0,-118.0,-67.0,127.0,127.0,127.0,122.0,87.0,-81.0
126.0,128.0,127.0,127.0,127.0,127.0,107.0,127.0,26.0,-118.0,-67.0,127.0,127.0,127.0,122.0,87.0,-81.0
126.0,128.0,127.0,127.0,127.0,127.0,106.0,127.0,26.0,-118.0,-67.0,127.0,127.0,127.0,122.0,87.0,-81.0
126.0,127.0,127.0,127.0,126.0,127.0,106.0,127.0,26.0,-118.0,-67.0,127.0,127.0,127.0,122.0,87.0,-81.0
126.0,127.0,127.0,127.0,126.0,127.0,106.0,127.0,26.0,-118.0,-67.0,127.0,127.0,127.0,122.0,87.0,-81.0
126.0,127.0,127.0,127.0,126.0,127.0,106.0,127.0,26.0,-118.0,-67.0,127.0,127.0,127.0,122.0,87.0,-81.0
126.0,127.0,127.0,126.0,126.0,127.0,112.0,127.0,27.0,-119.0,-67.0,127.0,127.0,127.0,122.0,87.0,-81.0
126.0,127.0,127.0,126.0,126.0,127.0,112.0,127.0,27.0,-119.0,-67.0,127.0,127.0,127.0,122.0,87.0,-81.0
126.0,127.0,127.0,126.0,126.0,127.0,112.0,127.0,27.0,-119.0,-67.0,127.0,127.0,127.0,122.0,87.0,-81.0
126.0,127.0,127.0,126.0,126.0,127.0,112.0,127.0,27.0,-119.0,-67.0,127.0,127.0,127.0,122.0,87.0,-81.0
127.0,127.0,127.0,126.0,126.0,127.0,112.0,127.0,27.0,-119.0,-67.0,127.0,127.0,127.0,122.0,87.0,-81.0
126.0,127.0,127.0,126.0,126.0,127.0,112.0,127.0,27.0,-119.0,-67.0,127.0,127.0,127.0,122.0,87.0,-81.0
127.0,127.0,127.0,126.0,126.0,127.0,113.0,127.0,27.0,-119.0,-67.0,127.0,127.0,127.0,122.0,87.0,-81.0
127.0,127.0,127.0,126.0,126.0,127.0,113.0,127.0,27.0,-119.0,-67.0,127.0,127.0,127.0,122.0,87.0,-81.0
126.0,127.0,127.0,126.0,126.0,127.0,113.0,127.0,27.0,-119.0,-67.0,127.0,127.0,127.0,122.0,87.0,-81.0
126.0,127.0,127.0,126.0,126.0,127.0,113.0,127.0,27.0,-119.0,-67.0,127.0,127.0,127.0,122.0,87.0,-81.0
127.0,127.0,127.0,127.0,127.0,127.0,106.0,128.0,27.0,-119.0,-67.0,127.0,127.0,127.0,122.0,87.0,-81.0
127.0,127.0,127.0,127.0,127.0,127.0,106.0,128.0,27.0,-119.0,-67.0,127.0,127.0,127.0,122.0,87.0,-81.0
127.0,127.0,127.0,127.0,127.0,127.0,106.0,128.0,27.0,-119.0,-67.0,127.0,127.0,127.0,122.0,87.0,-81.0
127.0,127.0,127.0,127.0,127.0,127.0,107.0,128.0,27.0,-119.0,-67.0,127.0,127.0,127.0,122.0,87.0,-81.0
127.0,127.0,127.0,127.0,127.0,127.0,106.0,128.0,27.0,-119.0,-67.0,127.0,127.0,127.0,122.0,87.0,-81.0
127.0,127.0,127.0,127.0,127.0,127.0,107.0,128.0,27.0,-119.0,-67.0,127.0,127.0,127.0,122.0,87.0,-81.0
127.0,127.0,127.0,127.0,127.0,127.0,107.0,128.0,27.0,-119.0,-67.0,127.0,127.0,127.0,122.0,87.0,-81.0
127.0,127.0,127.0,127.0,127.0,127.0,107.0,128.0,27.0,-119.0,-67.0,127.0,127.0,127.0,122.0,87.0,-81.0
127.0,127.0,127.0,127.0,127.0,128.0,107.0,128.0,27.0,-119.0,-67.0,127.0,127.0,127.0,122.0,87.0,-81.0
127.0,127.0,127.0,127.0,127.0,127.0,107.0,128.0,27.0,-119.0,-67.0,127.0,127.0,127.0,122.0,87.0,-81.0
127.0,127.0,127.0,127.0,127.0,127.0,106.0,128.0,27.0,-119.0,-67.0,127.0,127.0,127.0,122.0,87.0,-81.0
127.0,127.0,128.0,127.0,127.0,127.0,106.0,128.0,27.0,-119.0,-67.0,127.0,127.0,127.0,122.0,87.0,-81.0
127.0,127.0,128.0,127.0,127.0,127.0,106.0,128.0,27.0,-119.0,-67.0,127.0,127.0,127.0,122.0,87.0,-81.0
127.0,127.0,128.0,127.0,127.0,127.0,106.0,128.0,27.0,-119.0,-67.0,127.0,127.0,127.0,122.0,87.0,-81.0
127.0,127.0,127.0,127.0,127.0,127.0,111.0,128.0,27.0,-119.0,-67.0,127.0,127.0,127.0,122.0,87.0,-81.0
127.0,127.0,127.0,127.0,127.0,127.0,107.0,128.0,27.0,-119.0,-67.0,127.0,127.0,127.0,122.0,87.0,-81.0
127.0,127.0,127.0,127.0,127.0,127.0,106.0,128.0,27.0,-119.0,-67.0,127.0,127.0,127.0,122.0,87.0,-81.0
127.0,127.0,127.0,127.0,127.0,127.0,106.0,128.0,27.0,-119.0,-67.0,127.0,127.0,127.0,122.0,87.0,-81.0
127.0,127.0,127.0,127.0,127.0,127.0,106.0,128.0,27.0,-119.0,-67.0,127.0,127.0,127.0,122.0,87.0,-81.0
127.0,127.0,127.0,127.0,127.0,127.0,106.0,128.0,27.0,-119.0,-67.0,127.0,127.0,127.0,122.0,87.0,-81.0
126.0,127.0,127.0,127.0,127.0,128.0,107.0,129.0,27.0,-119.0,-68.0,127.0,127.0,127.0,122.0,87.0,-81.0
126.0,127.0,127.0,127.0,127.0,128.0,107.0,128.0,27.0,-119.0,-68.0,127.0,127.0,127.0,122.0,87.0,-81.0
126.0,127.0,127.0,127.0,127.0,128.0,107.0,129.0,27.0,-119.0,-68.0,127.0,127.0,127.0,122.0,87.0,-81.0
126.0,127.0,127.0,127.0,127.0,128.0,107.0,129.0,27.0,-119.0,-68.0,127.0,127.0,127.0,122.0,87.0,-81.0
127.0,127.0,127.0,127.0,127.0,127.0,106.0,128.0,27.0,-119.0,-68.0,127.0,127.0,127.0,122.0,87.0,-81.0
127.0,127.0,127.0,127.0,127.0,127.0,106.0,128.0,27.0,-119.0,-68.0,127.0,127.0,127.0,122.0,87.0,-81.0
127.0,127.0,127.0,127.0,127.0,127.0,107.0,128.0,27.0,-119.0,-68.0,127.0,127.0,127.0,122.0,87.0,-81.0
127.0,127.0,127.0,127.0,127.0,127.0,107.0,128.0,27.0,-119.0,-68.0,127.0,127.0,127.0,122.0,87.0,-81.0
126.0,127.0,127.0,127.0,127.0,127.0,107.0,128.0,27.0,-119.0,-68.0,127.0,127.0,127.0,122.0,87.0,-81.0
126.0,127.0,127.0,127.0,127.0,127.0,106.0,128.0,27.0,-119.0,-68.0,127.0,127.0,127.0,122.0,87.0,-81.0
126.0,127.0,127.0,127.0,127.0,127.0,106.0,128.0,26.0,-119.0,-68.0,127.0,127.0,127.0,122.0,87.0,-81.0
126.0,127.0,127.0,127.0,127.0,127.0,106.0,128.0,26.0,-119.0,-68.0,127.0,127.0,127.0,122.0,87.0,-81.0
126.0,127.0,127.0,127.0,127.0,127.0,107.0,128.0,26.0,-119.0,-68.0,127.0,127.0,127.0,122.0,87.0,-81.0
127.0,127.0,127.0,127.0,127.0,127.0,108.0,128.0,26.0,-119.0,-68.0,127.0,127.0,127.0,122.0,87.0,-81.0
127.0,127.0,127.0,127.0,127.0,127.0,107.0,128.0,26.0,-119.0,-68.0,127.0,127.0,127.0,122.0,87.0,-81.0
127.0,127.0,127.0,127.0,127.0,127.0,106.0,128.0,26.0,-119.0,-68.0,127.0,127.0,127.0,122.0,87.0,-81.0
127.0,127.0,127.0,127.0,127.0,127.0,106.0,128.0,26.0,-119.0,-68.0,127.0,127.0,127.0,122.0,87.0,-81.0
127.0,127.0,127.0,127.0,127.0,127.0,106.0,128.0,26.0,-119.0,-68.0,127.0,127.0,127.0,122.0,87.0,-81.0
127.0,127.0,127.0,127.0,127.0,127.0,106.0,128.0,26.0,-119.0,-68.0,127.0,127.0,127.0,122.0,87.0,-81.0
126.0,127.0,127.0,127.0,127.0,127.0,106.0,128.0,26.0,-119.0,-68.0,127.0,127.0,127.0,122.0,87.0,-81.0
127.0,127.0,127.0,127.0,127.0,128.0,107.0,128.0,26.0,-119.0,-68.0,127.0,127.0,127.0,122.0,87.0,-81.0
127.0,127.0,127.0,127.0,127.0,128.0,107.0,128.0,26.0,-119.0,-68.0,127.0,127.0,127.0,122.0,87.0,-81.0
127.0,127.0,127.0,127.0,127.0,128.0,106.0,128.0,26.0,-119.0,-68.0,127.0,127.0,127.0,122.0,87.0,-81.0
127.0,127.0,127.0,127.0,127.0,128.0,106.0,128.0,26.0,-119.0,-68.0,127.0,127.0,127.0,122.0,87.0,-81.0
127.0,127.0,127.0,127.0,127.0,127.0,106.0,128.0,26.0,-119.0,-68.0,127.0,127.0,127.0,122.0,87.0,-81.0
127.0,127.0,127.0,127.0,127.0,127.0,106.0,128.0,26.0,-119.0,-68.0,127.0,127.0,127.0,122.0,87.0,-81.0
127.0,127.0,127.0,127.0,127.0,127.0,106.0,128.0,26.0,-119.0,-68.0,127.0,127.0,127.0,122.0,87.0,-81.0
127.0,127.0,127.0,127.0,127.0,127.0,106.0,128.0,26.0,-119.0,-68.0,127.0,127.0,127.0,122.0,87.0,-81.0
127.0,127.0,127.0,127.0,127.0,128.0,107.0,128.0,26.0,-119.0,-68.0,127.0,127.0,127.0,122.0,87.0,-81.0
127.0,127.0,127.0,127.0,127.0,128.0,107.0,128.0,26.0,-119.0,-68.0,127.0,127.0,127.0,122.0,87.0,-81.0
127.0,127.0,127.0,127.0,127.0,128.0,107.0,128.0,26.0,-119.0,-68.0,127.0,127.0,127.0,122.0,87.0,-81.0
127.0,127.0,127.0,127.0,127.0,127.0,106.0,128.0,26.0,-119.0,-68.0,127.0,127.0,127.0,122.0,87.0,-81.0
127.0,127.0,127.0,127.0,127.0,128.0,106.0,128.0,26.0,-119.0,-68.0,127.0,127.0,127.0,122.0,87.0,-81.0
127.0,127.0,127.0,127.0,127.0,128.0,106.0,128.0,26.0,-119.0,-68.0,127.0,127.0,127.0,122.0,87.0,-81.0
127.0,126.0,127.0,127.0,127.0,127.0,107.0,128.0,26.0,-119.0,-68.0,127.0,127.0,127.0,122.0,87.0,-81.0
127.0,127.0,127.0,127.0,127.0,127.0,107.0,128.0,26.0,-119.0,-68.0,127.0,127.0,127.0,122.0,87.0,-81.0
127.0,127.0,127.0,127.0,127.0,127.0,107.0,128.0,26.0,-119.0,-68.0,127.0,127.0,127.0,122.0,87.0,-81.0
126.0,127.0,127.0,127.0,127.0,127.0,107.0,128.0,26.0,-119.0,-68.0,127.0,127.0,127.0,122.0,87.0,-81.0
126.0,127.0,127.0,127.0,127.0,128.0,107.0,128.0,26.0,-119.0,-68.0,127.0,127.0,127.0,122.0,87.0,-81.0
127.0,127.0,127.0,127.0,127.0,128.0,107.0,128.0,26.0,-119.0,-68.0,127.0,127.0,127.0,122.0,87.0,-81.0
127.0,127.0,127.0,127.0,127.0,127.0,108.0,128.0,26.0,-118.0,-68.0,127.0,127.0,127.0,122.0,87.0,-81.0
127.0,127.0,127.0,127.0,127.0,127.0,107.0,128.0,26.0,-118.0,-68.0,127.0,127.0,127.0,122.0,87.0,-81.0
127.0,127.0,127.0,127.0,127.0,127.0,106.0,128.0,26.0,-118.0,-68.0,127.0,127.0,127.0,122.0,87.0,-81.0
127.0,127.0,127.0,127.0,127.0,127.0,107.0,128.0,26.0,-118.0,-68.0,127.0,127.0,127.0,122.0,87.0,-81.0
127.0,127.0,127.0,127.0,127.0,127.0,107.0,128.0,26.0,-118.0,-68.0,127.0,127.0,127.0,122.0,87.0,-81.0
127.0,127.0,127.0,127.0,127.0,127.0,107.0,128.0,26.0,-118.0,-68.0,127.0,127.0,127.0,122.0,87.0,-81.0
127.0,127.0,127.0,127.0,127.0,127.0,106.0,128.0,26.0,-118.0,-68.0,127.0,127.0,127.0,122.0,87.0,-81.0
127.0,127.0,127.0,127.0,127.0,128.0,106.0,128.0,26.0,-118.0,-68.0,127.0,127.0,127.0,122.0,87.0,-81.0
127.0,127.0,127.0,127.0,127.0,128.0,107.0,128.0,26.0,-118.0,-68.0,127.0,127.0,127.0,122.0,87.0,-81.0
127.0,127.0,127.0,127.0,127.0,128.0,107.0,128.0,26.0,-118.0,-68.0,127.0,127.0,127.0,122.0,87.0,-81.0
127.0,127.0,127.0,127.0,127.0,127.0,113.0,128.0,26.0,-118.0,-68.0,127.0,127.0,127.0,122.0,87.0,-81.0
127.0,127.0,127.0,127.0,127.0,127.0,113.0,128.0,26.0,-118.0,-68.0,127.0,127.0,127.0,122.0,87.0,-81.0
127.0,127.0,127.0,127.0,127.0,127.0,113.0,128.0,26.0,-118.0,-68.0,127.0,127.0,127.0,122.0,87.0,-81.0
127.0,127.0,127.0,127.0,127.0,127.0,113.0,128.0,26.0,-118.0,-68.0,127.0,127.0,127.0,122.0,87.0,-81.0
127.0,127.0,127.0,127.0,127.0,127.0,112.0,128.0,26.0,-118.0,-68.0,127.0,127.0,127.0,122.0,87.0,-81.0
127.0,127.0,127.0,127.0,127.0,127.0,112.0,128.0,26.0,-118.0,-68.0,127.0,127.0,127.0,122.0,87.0,-81.0
127.0,127.0,127.0,127.0,127.0,127.0,112.0,128.0,26.0,-118.0,-68.0,127.0,127.0,127.0,122.0,87.0,-81.0
127.0,127.0,127.0,127.0,127.0,127.0,112.0,128.0,26.0,-118.0,-68.0,127.0,127.0,127.0,122.0,87.0,-81.0
127.0,127.0,127.0,127.0,127.0,127.0,113.0,128.0,26.0,-118.0,-68.0,127.0,127.0,127.0,122.0,87.0,-81.0
127.0,127.0,127.0,127.0,127.0,127.0,113.0,128.0,26.0,-118.0,-68.0,127.0,127.0,127.0,122.0,87.0,-81.0
127.0,127.0,127.0,127.0,127.0,127.0,113.0,128.0,27.0,-119.0,-68.0,127.0,127.0,127.0,122.0,87.0,-81.0
127.0,127.0,127.0,127.0,127.0,127.0,113.0,128.0,27.0,-119.0,-68.0,127.0,127.0,127.0,122.0,87.0,-81.0
127.0,127.0,127.0,126.0,127.0,127.0,110.0,128.0,27.0,-119.0,-68.0,127.0,127.0,127.0,122.0,87.0,-81.0
127.0,127.0,127.0,126.0,127.0,127.0,108.0,128.0,27.0,-119.0,-68.0,127.0,127.0,127.0,122.0,87.0,-81.0
127.0,127.0,127.0,127.0,127.0,127.0,106.0,128.0,27.0,-119.0,-68.0,127.0,127.0,127.0,122.0,87.0,-81.0
127.0,127.0,127.0,127.0,127.0,127.0,108.0,128.0,27.0,-119.0,-68.0,127.0,127.0,127.0,122.0,87.0,-81.0
127.0,127.0,127.0,127.0,127.0,127.0,112.0,128.0,27.0,-119.0,-68.0,127.0,127.0,127.0,122.0,87.0,-81.0
127.0,127.0,127.0,127.0,127.0,127.0,113.0,128.0,27.0,-119.0,-68.0,127.0,127.0,127.0,122.0,87.0,-81.0
127.0,127.0,127.0,127.0,127.0,127.0,113.0,128.0,27.0,-119.0,-68.0,127.0,127.0,127.0,122.0,87.0,-81.0
127.0,127.0,127.0,127.0,127.0,127.0,112.0,128.0,27.0,-119.0,-68.0,127.0,127.0,127.0,122.0,87.0,-81.0
126.0,127.0,127.0,127.0,127.0,127.0,113.0,128.0,27.0,-119.0,-68.0,127.0,127.0,127.0,122.0,87.0,-81.0
126.0,127.0,127.0,127.0,127.0,127.0,108.0,128.0,27.0,-119.0,-68.0,127.0,127.0,127.0,122.0,87.0,-81.0
126.0,127.0,127.0,127.0,127.0,127.0,106.0,128.0,27.0,-119.0,-68.0,127.0,127.0,127.0,122.0,87.0,-81.0
126.0,127.0,127.0,127.0,127.0,127.0,106.0,128.0,27.0,-119.0,-68.0,127.0,127.0,127.0,122.0,87.0,-81.0
126.0,127.0,127.0,127.0,127.0,127.0,106.0,128.0,27.0,-119.0,-68.0,127.0,127.0,127.0,122.0,87.0,-81.0
126.0,127.0,127.0,127.0,127.0,127.0,106.0,128.0,27.0,-119.0,-68.0,127.0,127.0,127.0,122.0,87.0,-81.0
126.0,127.0,127.0,127.0,127.0,127.0,106.0,128.0,27.0,-119.0,-68.0,127.0,127.0,127.0,122.0,87.0,-81.0
127.0,127.0,127.0,127.0,127.0,127.0,108.0,128.0,27.0,-119.0,-68.0,127.0,127.0,127.0,122.0,87.0,-81.0
127.0,127.0,127.0,127.0,127.0,127.0,112.0,128.0,27.0,-119.0,-68.0,127.0,127.0,127.0,122.0,87.0,-81.0
127.0,127.0,127.0,127.0,127.0,127.0,114.0,128.0,27.0,-119.0,-68.0,127.0,127.0,127.0,122.0,87.0,-81.0
126.0,127.0,127.0,127.0,127.0,127.0,106.0,127.0,27.0,-119.0,-67.0,127.0,127.0,127.0,122.0,87.0,-81.0
126.0,127.0,127.0,127.0,127.0,127.0,106.0,127.0,27.0,-119.0,-67.0,127.0,127.0,127.0,122.0,87.0,-81.0
126.0,127.0,127.0,127.0,127.0,127.0,106.0,128.0,27.0,-119.0,-67.0,127.0,127.0,127.0,122.0,87.0,-81.0
126.0,127.0,127.0,127.0,127.0,127.0,107.0,127.0,27.0,-119.0,-67.0,127.0,127.0,127.0,122.0,87.0,-81.0
126.0,127.0,127.0,127.0,127.0,127.0,107.0,128.0,27.0,-119.0,-67.0,127.0,127.0,127.0,122.0,87.0,-81.0
126.0,127.0,127.0,127.0,127.0,127.0,106.0,127.0,27.0,-119.0,-67.0,127.0,127.0,127.0,122.0,87.0,-81.0
127.0,127.0,127.0,127.0,127.0,127.0,106.0,127.0,27.0,-119.0,-67.0,127.0,127.0,127.0,122.0,87.0,-81.0
127.0,127.0,127.0,127.0,127.0,127.0,106.0,127.0,27.0,-119.0,-67.0,127.0,127.0,127.0,122.0,87.0,-81.0
126.0,127.0,127.0,127.0,127.0,127.0,106.0,127.0,27.0,-119.0,-67.0,127.0,127.0,127.0,122.0,87.0,-81.0
126.0,127.0,127.0,127.0,127.0,127.0,106.0,127.0,27.0,-119.0,-67.0,127.0,127.0,127.0,122.0,87.0,-81.0
126.0,127.0,127.0,126.0,127.0,127.0,107.0,127.0,27.0,-119.0,-67.0,127.0,127.0,127.0,122.0,87.0,-81.0
126.0,127.0,127.0,126.0,127.0,127.0,107.0,127.0,27.0,-119.0,-67.0,127.0,127.0,127.0,122.0,87.0,-81.0
126.0,127.0,127.0,126.0,127.0,127.0,106.0,127.0,27.0,-119.0,-67.0,127.0,127.0,127.0,122.0,87.0,-81.0
126.0,128.0,127.0,126.0,127.0,128.0,107.0,127.0,27.0,-119.0,-67.0,127.0,127.0,127.0,122.0,87.0,-81.0
126.0,128.0,127.0,126.0,127.0,128.0,107.0,127.0,27.0,-119.0,-67.0,127.0,127.0,127.0,122.0,87.0,-81.0
126.0,127.0,127.0,127.0,127.0,127.0,106.0,127.0,27.0,-119.0,-67.0,127.0,127.0,127.0,122.0,87.0,-81.0
126.0,127.0,127.0,127.0,126.0,127.0,111.0,127.0,27.0,-119.0,-67.0,127.0,127.0,127.0,122.0,87.0,-81.0
126.0,127.0,127.0,126.0,127.0,127.0,112.0,127.0,27.0,-119.0,-67.0,127.0,127.0,127.0,122.0,87.0,-81.0
126.0,127.0,127.0,126.0,126.0,127.0,112.0,127.0,27.0,-119.0,-67.0,127.0,127.0,127.0,122.0,87.0,-81.0
126.0,127.0,127.0,126.0,127.0,127.0,109.0,127.0,27.0,-119.0,-67.0,127.0,127.0,127.0,122.0,87.0,-81.0
126.0,124.0,120.0,116.0,123.0,125.0,110.0,126.0,26.0,-118.0,-67.0,127.0,127.0,127.0,122.0,87.0,-81.0
126.0,125.0,120.0,117.0,123.0,125.0,110.0,126.0,26.0,-118.0,-67.0,127.0,127.0,127.0,122.0,87.0,-81.0
126.0,125.0,121.0,119.0,124.0,125.0,110.0,126.0,26.0,-118.0,-67.0,127.0,127.0,127.0,122.0,87.0,-81.0
126.0,126.0,122.0,120.0,124.0,125.0,110.0,126.0,26.0,-118.0,-67.0,127.0,127.0,127.0,122.0,87.0,-81.0
125.0,123.0,118.0,115.0,124.0,125.0,110.0,126.0,26.0,-118.0,-67.0,127.0,127.0,127.0,122.0,87.0,-81.0
125.0,123.0,118.0,114.0,124.0,125.0,110.0,126.0,26.0,-118.0,-67.0,127.0,127.0,127.0,122.0,87.0,-81.0
125.0,123.0,118.0,114.0,123.0,125.0,110.0,126.0,26.0,-118.0,-67.0,127.0,127.0,127.0,122.0,87.0,-81.0
125.0,123.0,118.0,113.0,123.0,125.0,110.0,126.0,26.0,-118.0,-67.0,127.0,127.0,127.0,122.0,87.0,-81.0
125.0,123.0,118.0,114.0,123.0,125.0,110.0,126.0,26.0,-118.0,-67.0,127.0,127.0,127.0,122.0,87.0,-81.0
126.0,123.0,119.0,114.0,123.0,125.0,110.0,126.0,26.0,-118.0,-67.0,127.0,127.0,127.0,122.0,87.0,-81.0
122.0,127.0,233.0,87.0,127.0,117.0,103.0,128.0,26.0,-118.0,-67.0,127.0,127.0,127.0,122.0,87.0,-81.0
122.0,127.0,237.0,87.0,128.0,117.0,103.0,128.0,26.0,-118.0,-67.0,127.0,127.0,127.0,122.0,87.0,-81.0
122.0,128.0,242.0,88.0,129.0,117.0,103.0,128.0,26.0,-118.0,-67.0,127.0,127.0,127.0,122.0,87.0,-81.0
125.0,128.0,206.0,90.0,127.0,118.0,106.0,127.0,26.0,-118.0,-67.0,127.0,127.0,127.0,122.0,87.0,-81.0
124.0,128.0,210.0,88.0,127.0,118.0,106.0,127.0,26.0,-118.0,-67.0,127.0,127.0,127.0,122.0,87.0,-81.0
124.0,128.0,213.0,87.0,127.0,118.0,106.0,128.0,26.0,-118.0,-67.0,127.0,127.0,127.0,122.0,87.0,-81.0
124.0,128.0,216.0,86.0,127.0,118.0,105.0,128.0,26.0,-118.0,-67.0,127.0,127.0,127.0,122.0,87.0,-81.0
123.0,128.0,220.0,86.0,126.0,117.0,105.0,128.0,26.0,-118.0,-67.0,127.0,127.0,127.0,122.0,87.0,-81.0
123.0,127.0,224.0,86.0,126.0,117.0,104.0,128.0,26.0,-118.0,-67.0,127.0,127.0,127.0,122.0,87.0,-81.0
122.0,127.0,228.0,86.0,127.0,117.0,103.0,128.0,26.0,-118.0,-67.0,127.0,127.0,127.0,122.0,87.0,-81.0
113.0,128.0,254.0,193.0,132.0,65.0,62.0,129.0,26.0,-118.0,-66.0,127.0,127.0,127.0,122.0,87.0,-81.0
113.0,129.0,254.0,196.0,132.0,63.0,62.0,130.0,26.0,-118.0,-66.0,127.0,127.0,127.0,122.0,87.0,-81.0
119.0,133.0,254.0,183.0,135.0,79.0,73.0,131.0,26.0,-118.0,-66.0,127.0,127.0,127.0,122.0,87.0,-81.0
118.0,132.0,254.0,182.0,134.0,77.0,74.0,131.0,26.0,-118.0,-66.0,127.0,127.0,127.0,122.0,87.0,-81.0
117.0,130.0,254.0,182.0,133.0,76.0,72.0,131.0,26.0,-118.0,-66.0,127.0,127.0,127.0,122.0,87.0,-81.0
116.0,129.0,254.0,181.0,132.0,74.0,70.0,130.0,26.0,-118.0,-66.0,127.0,127.0,127.0,122.0,87.0,-81.0
115.0,128.0,254.0,183.0,131.0,72.0,67.0,130.0,26.0,-118.0,-66.0,127.0,127.0,127.0,122.0,87.0,-81.0
115.0,127.0,254.0,185.0,131.0,70.0,68.0,129.0,26.0,-118.0,-66.0,127.0,127.0,127.0,122.0,87.0,-81.0
114.0,127.0,254.0,188.0,131.0,68.0,67.0,129.0,26.0,-118.0,-66.0,127.0,127.0,127.0,122.0,87.0,-81.0
113.0,127.0,254.0,190.0,131.0,66.0,65.0,129.0,26.0,-118.0,-66.0,127.0,127.0,127.0,122.0,87.0,-81.0
121.0,138.0,212.0,185.0,152.0,0.0,22.0,157.0,26.0,-119.0,-65.0,127.0,127.0,127.0,122.0,87.0,-81.0
117.0,135.0,244.0,183.0,148.0,0.0,22.0,152.0,26.0,-119.0,-65.0,127.0,127.0,127.0,122.0,87.0,-81.0
117.0,135.0,243.0,184.0,148.0,0.0,22.0,152.0,26.0,-119.0,-65.0,127.0,127.0,127.0,122.0,87.0,-81.0
118.0,134.0,241.0,185.0,149.0,0.0,22.0,153.0,26.0,-119.0,-65.0,127.0,127.0,127.0,122.0,87.0,-81.0
119.0,133.0,240.0,186.0,149.0,0.0,22.0,153.0,26.0,-119.0,-65.0,127.0,127.0,127.0,122.0,87.0,-81.0
119.0,132.0,238.0,185.0,150.0,0.0,22.0,154.0,26.0,-119.0,-65.0,127.0,127.0,127.0,122.0,87.0,-81.0
120.0,134.0,235.0,185.0,150.0,0.0,22.0,155.0,26.0,-119.0,-65.0,127.0,127.0,127.0,122.0,87.0,-81.0
120.0,135.0,231.0,185.0,151.0,0.0,22.0,156.0,26.0,-119.0,-65.0,127.0,127.0,127.0,122.0,87.0,-81.0
121.0,136.0,226.0,185.0,151.0,0.0,22.0,157.0,26.0,-119.0,-65.0,127.0,127.0,127.0,122.0,87.0,-81.0
121.0,137.0,220.0,185.0,152.0,0.0,22.0,157.0,26.0,-119.0,-65.0,127.0,127.0,127.0,122.0,87.0,-81.0
123.0,128.0,34.0,254.0,121.0,0.0,22.0,127.0,25.0,-122.0,-69.0,-128.0,127.0,127.0,122.0,87.0,-81.0
123.0,128.0,34.0,254.0,119.0,0.0,22.0,127.0,25.0,-122.0,-69.0,-128.0,127.0,127.0,122.0,87.0,-81.0
123.0,127.0,33.0,254.0,117.0,0.0,22.0,126.0,25.0,-122.0,-69.0,-128.0,127.0,127.0,122.0,87.0,-81.0
123.0,127.0,32.0,254.0,116.0,0.0,22.0,125.0,25.0,-122.0,-69.0,-128.0,127.0,127.0,122.0,87.0,-81.0
122.0,126.0,31.0,254.0,114.0,0.0,22.0,125.0,25.0,-122.0,-69.0,-128.0,127.0,127.0,122.0,87.0,-81.0
122.0,126.0,29.0,254.0,112.0,0.0,22.0,124.0,25.0,-122.0,-69.0,-128.0,127.0,127.0,122.0,87.0,-81.0
122.0,125.0,26.0,254.0,111.0,0.0,22.0,123.0,25.0,-122.0,-69.0,-128.0,127.0,127.0,122.0,87.0,-81.0
122.0,125.0,23.0,254.0,109.0,0.0,22.0,123.0,25.0,-122.0,-69.0,-128.0,127.0,127.0,122.0,87.0,-81.0
122.0,125.0,21.0,254.0,107.0,0.0,22.0,123.0,25.0,-122.0,-69.0,-128.0,127.0,127.0,122.0,87.0,-81.0
122.0,124.0,18.0,254.0,105.0,0.0,22.0,123.0,25.0,-122.0,-69.0,-128.0,127.0,127.0,122.0,87.0,-81.0
122.0,143.0,3.0,199.0,130.0,0.0,22.0,139.0,25.0,-119.0,-69.0,-126.0,127.0,127.0,122.0,87.0,-81.0
121.0,143.0,4.0,199.0,130.0,0.0,22.0,140.0,25.0,-119.0,-69.0,-126.0,127.0,127.0,122.0,87.0,-81.0
121.0,143.0,5.0,198.0,129.0,0.0,22.0,140.0,25.0,-119.0,-69.0,-126.0,127.0,127.0,122.0,87.0,-81.0
120.0,143.0,5.0,198.0,129.0,0.0,22.0,141.0,25.0,-119.0,-69.0,-126.0,127.0,127.0,122.0,87.0,-81.0
120.0,143.0,6.0,199.0,128.0,0.0,22.0,142.0,25.0,-119.0,-69.0,-126.0,127.0,127.0,122.0,87.0,-81.0
120.0,143.0,8.0,201.0,128.0,0.0,22.0,143.0,25.0,-119.0,-69.0,-126.0,127.0,127.0,122.0,87.0,-81.0
120.0,143.0,10.0,202.0,128.0,0.0,22.0,144.0,25.0,-119.0,-69.0,-126.0,127.0,127.0,122.0,87.0,-81.0
121.0,142.0,12.0,203.0,128.0,0.0,22.0,144.0,25.0,-119.0,-69.0,-126.0,127.0,127.0,122.0,87.0,-81.0
121.0,142.0,15.0,204.0,127.0,0.0,22.0,145.0,25.0,-119.0,-69.0,-126.0,127.0,127.0,122.0,87.0,-81.0
122.0,143.0,1.0,200.0,130.0,0.0,22.0,139.0,25.0,-119.0,-69.0,-126.0,127.0,127.0,122.0,87.0,-81.0
137.0,128.0,92.0,254.0,120.0,0.0,22.0,120.0,22.0,-120.0,-68.0,-127.0,126.0,126.0,122.0,87.0,-81.0
136.0,127.0,92.0,254.0,121.0,0.0,22.0,120.0,22.0,-120.0,-68.0,-127.0,126.0,126.0,122.0,87.0,-81.0
135.0,127.0,91.0,254.0,121.0,0.0,22.0,121.0,22.0,-120.0,-68.0,-127.0,126.0,126.0,122.0,87.0,-81.0
133.0,127.0,91.0,254.0,121.0,0.0,22.0,120.0,22.0,-120.0,-68.0,-127.0,126.0,126.0,122.0,87.0,-81.0
131.0,126.0,91.0,254.0,121.0,0.0,22.0,120.0,22.0,-120.0,-68.0,-127.0,126.0,126.0,122.0,87.0,-81.0
129.0,126.0,93.0,254.0,122.0,0.0,22.0,120.0,22.0,-120.0,-68.0,-127.0,126.0,126.0,122.0,87.0,-81.0
128.0,126.0,96.0,254.0,122.0,0.0,22.0,120.0,22.0,-120.0,-68.0,-127.0,126.0,126.0,122.0,87.0,-81.0
127.0,125.0,99.0,254.0,123.0,0.0,22.0,120.0,22.0,-120.0,-68.0,-127.0,126.0,126.0,122.0,87.0,-81.0
137.0,128.0,91.0,254.0,120.0,0.0,22.0,121.0,22.0,-120.0,-68.0,-127.0,126.0,126.0,122.0,87.0,-81.0
138.0,128.0,91.0,254.0,120.0,0.0,22.0,120.0,22.0,-120.0,-68.0,-127.0,126.0,126.0,122.0,87.0,-81.0
137.0,123.0,110.0,211.0,128.0,0.0,22.0,135.0,20.0,-113.0,-66.0,-128.0,125.0,127.0,122.0,87.0,-81.0
137.0,123.0,110.0,209.0,128.0,0.0,22.0,134.0,20.0,-113.0,-66.0,-128.0,125.0,127.0,122.0,87.0,-81.0
137.0,122.0,110.0,208.0,128.0,0.0,22.0,134.0,20.0,-113.0,-66.0,-128.0,125.0,127.0,122.0,87.0,-81.0
136.0,121.0,110.0,208.0,127.0,0.0,22.0,133.0,20.0,-113.0,-66.0,-128.0,125.0,127.0,122.0,87.0,-81.0
136.0,121.0,110.0,208.0,127.0,0.0,22.0,132.0,20.0,-113.0,-66.0,-128.0,125.0,127.0,122.0,87.0,-81.0
135.0,121.0,109.0,209.0,127.0,0.0,22.0,132.0,20.0,-113.0,-66.0,-128.0,125.0,127.0,122.0,87.0,-81.0
139.0,125.0,111.0,225.0,130.0,0.0,22.0,134.0,20.0,-113.0,-66.0,-128.0,125.0,127.0,122.0,87.0,-81.0
138.0,125.0,111.0,221.0,130.0,0.0,22.0,134.0,20.0,-113.0,-66.0,-128.0,125.0,127.0,122.0,87.0,-81.0
138.0,124.0,111.0,217.0,129.0,0.0,22.0,135.0,20.0,-113.0,-66.0,-128.0,125.0,127.0,122.0,87.0,-81.0
138.0,124.0,111.0,213.0,129.0,0.0,22.0,135.0,20.0,-113.0,-66.0,-128.0,125.0,127.0,122.0,87.0,-81.0
125.0,118.0,114.0,126.0,129.0,0.0,22.0,138.0,24.0,-115.0,-66.0,-128.0,126.0,127.0,122.0,87.0,-81.0
125.0,118.0,114.0,125.0,128.0,0.0,22.0,139.0,24.0,-115.0,-66.0,-128.0,126.0,127.0,122.0,87.0,-81.0
125.0,117.0,113.0,124.0,127.0,0.0,22.0,139.0,24.0,-115.0,-66.0,-128.0,126.0,127.0,122.0,87.0,-81.0
125.0,117.0,112.0,124.0,126.0,0.0,22.0,140.0,24.0,-115.0,-66.0,-128.0,126.0,127.0,122.0,87.0,-81.0
124.0,116.0,111.0,123.0,125.0,0.0,22.0,140.0,24.0,-115.0,-66.0,-128.0,126.0,127.0,122.0,87.0,-81.0
124.0,116.0,110.0,121.0,125.0,0.0,22.0,140.0,24.0,-115.0,-66.0,-128.0,126.0,127.0,122.0,87.0,-81.0
126.0,119.0,114.0,131.0,131.0,0.0,22.0,138.0,24.0,-115.0,-66.0,-128.0,126.0,127.0,122.0,87.0,-81.0
126.0,119.0,115.0,130.0,131.0,0.0,22.0,138.0,24.0,-115.0,-66.0,-128.0,126.0,127.0,122.0,87.0,-81.0
125.0,119.0,115.0,128.0,130.0,0.0,22.0,138.0,24.0,-115.0,-66.0,-128.0,126.0,127.0,122.0,87.0,-81.0
125.0,119.0,114.0,127.0,129.0,0.0,22.0,138.0,24.0,-115.0,-66.0,-128.0,126.0,127.0,122.0,87.0,-81.0
125.0,126.0,111.0,103.0,120.0,0.0,22.0,138.0,28.0,-121.0,-63.0,-128.0,126.0,127.0,122.0,87.0,-82.0
126.0,126.0,111.0,103.0,120.0,0.0,22.0,137.0,28.0,-121.0,-63.0,-128.0,126.0,127.0,122.0,87.0,-82.0
126.0,126.0,111.0,104.0,120.0,0.0,22.0,138.0,28.0,-121.0,-63.0,-128.0,126.0,127.0,122.0,87.0,-82.0
126.0,127.0,111.0,105.0,120.0,0.0,22.0,137.0,28.0,-121.0,-63.0,-128.0,126.0,127.0,122.0,87.0,-82.0
126.0,127.0,112.0,106.0,120.0,0.0,22.0,137.0,28.0,-121.0,-63.0,-128.0,126.0,127.0,122.0,87.0,-82.0
126.0,124.0,108.0,104.0,119.0,0.0,22.0,138.0,28.0,-121.0,-63.0,-128.0,126.0,127.0,122.0,87.0,-82.0
125.0,125.0,108.0,104.0,119.0,0.0,22.0,138.0,28.0,-121.0,-63.0,-128.0,126.0,127.0,122.0,87.0,-82.0
125.0,125.0,109.0,104.0,120.0,0.0,22.0,138.0,28.0,-121.0,-63.0,-128.0,126.0,127.0,122.0,87.0,-82.0
125.0,125.0,110.0,104.0,120.0,0.0,22.0,138.0,28.0,-121.0,-63.0,-128.0,126.0,127.0,122.0,87.0,-82.0
125.0,126.0,110.0,103.0,120.0,0.0,22.0,138.0,28.0,-121.0,-63.0,-128.0,126.0,127.0,122.0,87.0,-82.0
129.0,127.0,110.0,98.0,125.0,0.0,22.0,137.0,35.0,-124.0,-62.0,-127.0,126.0,127.0,122.0,87.0,-82.0
129.0,127.0,110.0,98.0,125.0,0.0,22.0,137.0,35.0,-124.0,-62.0,-127.0,126.0,127.0,122.0,87.0,-82.0
128.0,126.0,111.0,98.0,125.0,0.0,22.0,137.0,35.0,-124.0,-62.0,-127.0,126.0,127.0,122.0,87.0,-82.0
130.0,127.0,107.0,97.0,124.0,0.0,22.0,136.0,35.0,-124.0,-62.0,-127.0,126.0,127.0,122.0,87.0,-82.0
130.0,127.0,107.0,97.0,124.0,0.0,22.0,136.0,35.0,-124.0,-62.0,-127.0,126.0,127.0,122.0,87.0,-82.0
130.0,127.0,107.0,98.0,124.0,0.0,22.0,136.0,35.0,-124.0,-62.0,-127.0,126.0,127.0,122.0,87.0,-82.0
130.0,127.0,107.0,98.0,124.0,0.0,22.0,137.0,35.0,-124.0,-62.0,-127.0,126.0,127.0,122.0,87.0,-82.0
129.0,127.0,108.0,98.0,125.0,0.0,22.0,137.0,35.0,-124.0,-62.0,-127.0,126.0,127.0,122.0,87.0,-82.0
129.0,127.0,109.0,98.0,125.0,0.0,22.0,137.0,35.0,-124.0,-62.0,-127.0,126.0,127.0,122.0,87.0,-82.0
129.0,127.0,109.0,98.0,125.0,0.0,22.0,137.0,35.0,-124.0,-62.0,-127.0,126.0,127.0,122.0,87.0,-82.0
129.0,124.0,126.0,99.0,125.0,0.0,22.0,140.0,38.0,-121.0,-64.0,-127.0,126.0,127.0,122.0,87.0,-82.0
129.0,124.0,126.0,99.0,125.0,0.0,22.0,140.0,38.0,-121.0,-64.0,-127.0,126.0,127.0,122.0,87.0,-82.0
130.0,124.0,123.0,99.0,125.0,0.0,22.0,138.0,38.0,-121.0,-64.0,-127.0,126.0,127.0,122.0,87.0,-82.0
130.0,124.0,123.0,99.0,125.0,0.0,22.0,138.0,38.0,-121.0,-64.0,-127.0,126.0,127.0,122.0,87.0,-82.0
130.0,124.0,123.0,99.0,125.0,0.0,22.0,138.0,38.0,-121.0,-64.0,-127.0,126.0,127.0,122.0,87.0,-82.0
130.0,125.0,123.0,99.0,125.0,0.0,22.0,138.0,38.0,-121.0,-64.0,-127.0,126.0,127.0,122.0,87.0,-82.0
129.0,125.0,123.0,99.0,125.0,0.0,22.0,139.0,38.0,-121.0,-64.0,-127.0,126.0,127.0,122.0,87.0,-82.0
129.0,125.0,124.0,99.0,125.0,0.0,22.0,139.0,38.0,-121.0,-64.0,-127.0,126.0,127.0,122.0,87.0,-82.0
129.0,124.0,124.0,99.0,125.0,0.0,22.0,139.0,38.0,-121.0,-64.0,-127.0,126.0,127.0,122.0,87.0,-82.0
129.0,124.0,125.0,99.0,125.0,0.0,22.0,140.0,38.0,-121.0,-64.0,-127.0,126.0,127.0,122.0,87.0,-82.0
128.0,125.0,133.0,107.0,126.0,0.0,22.0,133.0,35.0,-118.0,-67.0,-128.0,127.0,127.0,122.0,87.0,-82.0
128.0,124.0,130.0,107.0,126.0,0.0,22.0,135.0,35.0,-118.0,-67.0,-128.0,127.0,127.0,122.0,87.0,-82.0
128.0,124.0,130.0,107.0,126.0,0.0,22.0,134.0,35.0,-118.0,-67.0,-128.0,127.0,127.0,122.0,87.0,-82.0
128.0,124.0,130.0,107.0,126.0,0.0,22.0,134.0,35.0,-118.0,-67.0,-128.0,127.0,127.0,122.0,87.0,-82.0
128.0,124.0,130.0,107.0,126.0,0.0,22.0,134.0,35.0,-118.0,-67.0,-128.0,127.0,127.0,122.0,87.0,-82.0
128.0,124.0,131.0,107.0,126.0,0.0,22.0,134.0,35.0,-118.0,-67.0,-128.0,127.0,127.0,122.0,87.0,-82.0
128.0,124.0,131.0,107.0,126.0,0.0,22.0,134.0,35.0,-118.0,-67.0,-128.0,127.0,127.0,122.0,87.0,-82.0
128.0,124.0,131.0,107.0,126.0,0.0,22.0,134.0,35.0,-118.0,-67.0,-128.0,127.0,127.0,122.0,87.0,-82.0
128.0,124.0,131.0,107.0,126.0,0.0,22.0,133.0,35.0,-118.0,-67.0,-128.0,127.0,127.0,122.0,87.0,-82.0
128.0,125.0,132.0,107.0,126.0,0.0,22.0,133.0,35.0,-118.0,-67.0,-128.0,127.0,127.0,122.0,87.0,-82.0
128.0,125.0,141.0,108.0,127.0,0.0,22.0,131.0,31.0,-117.0,-69.0,127.0,127.0,127.0,122.0,87.0,-82.0
128.0,125.0,141.0,108.0,126.0,0.0,22.0,131.0,31.0,-117.0,-69.0,127.0,127.0,127.0,122.0,87.0,-82.0
128.0,125.0,141.0,108.0,126.0,0.0,22.0,131.0,31.0,-117.0,-69.0,127.0,127.0,127.0,122.0,87.0,-82.0
128.0,125.0,141.0,108.0,127.0,0.0,22.0,131.0,31.0,-117.0,-69.0,127.0,127.0,127.0,122.0,87.0,-82.0
128.0,125.0,141.0,108.0,127.0,0.0,22.0,131.0,31.0,-117.0,-69.0,127.0,127.0,127.0,122.0,87.0,-82.0
128.0,125.0,141.0,108.0,127.0,0.0,22.0,131.0,31.0,-117.0,-69.0,127.0,127.0,127.0,122.0,87.0,-82.0
128.0,125.0,141.0,108.0,127.0,0.0,22.0,131.0,31.0,-117.0,-69.0,127.0,127.0,127.0,122.0,87.0,-82.0
128.0,125.0,142.0,108.0,127.0,0.0,22.0,130.0,31.0,-117.0,-69.0,127.0,127.0,127.0,122.0,87.0,-82.0
128.0,125.0,142.0,108.0,127.0,0.0,22.0,130.0,31.0,-117.0,-69.0,127.0,127.0,127.0,122.0,87.0,-82.0
128.0,125.0,142.0,108.0,127.0,0.0,22.0,130.0,31.0,-117.0,-69.0,127.0,127.0,127.0,122.0,87.0,-82.0
128.0,123.0,137.0,100.0,128.0,39.0,46.0,131.0,29.0,-115.0,-69.0,127.0,127.0,127.0,122.0,87.0,-82.0
128.0,123.0,137.0,100.0,128.0,44.0,49.0,131.0,29.0,-115.0,-69.0,127.0,127.0,127.0,122.0,87.0,-82.0
128.0,123.0,136.0,100.0,128.0,49.0,52.0,131.0,29.0,-115.0,-69.0,127.0,127.0,127.0,122.0,87.0,-82.0
128.0,123.0,136.0,99.0,128.0,54.0,56.0,131.0,29.0,-115.0,-69.0,127.0,127.0,127.0,122.0,87.0,-82.0
128.0,123.0,136.0,99.0,128.0,59.0,58.0,131.0,29.0,-115.0,-69.0,127.0,127.0,127.0,122.0,87.0,-82.0
128.0,123.0,136.0,99.0,128.0,65.0,62.0,131.0,29.0,-115.0,-69.0,127.0,127.0,127.0,122.0,87.0,-82.0
128.0,123.0,135.0,99.0,128.0,70.0,66.0,131.0,29.0,-115.0,-69.0,127.0,127.0,127.0,122.0,87.0,-82.0
128.0,123.0,135.0,98.0,128.0,75.0,69.0,131.0,29.0,-115.0,-69.0,127.0,127.0,127.0,122.0,87.0,-82.0
128.0,123.0,135.0,98.0,128.0,81.0,73.0,131.0,29.0,-115.0,-69.0,127.0,127.0,127.0,122.0,87.0,-82.0
128.0,123.0,137.0,100.0,128.0,34.0,43.0,131.0,29.0,-115.0,-69.0,127.0,127.0,127.0,122.0,87.0,-82.0
129.0,124.0,124.0,64.0,126.0,226.0,176.0,132.0,27.0,-114.0,-68.0,127.0,126.0,127.0,122.0,87.0,-82.0
129.0,124.0,124.0,64.0,126.0,228.0,177.0,132.0,27.0,-114.0,-68.0,127.0,126.0,127.0,122.0,87.0,-82.0
129.0,124.0,124.0,63.0,127.0,228.0,179.0,132.0,27.0,-114.0,-68.0,127.0,126.0,127.0,122.0,87.0,-82.0
129.0,125.0,124.0,62.0,127.0,229.0,180.0,132.0,27.0,-114.0,-68.0,127.0,126.0,127.0,122.0,87.0,-82.0
129.0,125.0,124.0,62.0,127.0,230.0,181.0,132.0,27.0,-114.0,-68.0,127.0,126.0,127.0,122.0,87.0,-82.0
128.0,125.0,124.0,61.0,127.0,231.0,177.0,132.0,27.0,-114.0,-68.0,127.0,126.0,127.0,122.0,87.0,-82.0
129.0,125.0,124.0,61.0,128.0,232.0,177.0,132.0,27.0,-114.0,-68.0,127.0,126.0,127.0,122.0,87.0,-82.0
128.0,125.0,124.0,60.0,128.0,233.0,178.0,132.0,27.0,-114.0,-68.0,127.0,126.0,127.0,122.0,87.0,-82.0
129.0,124.0,124.0,66.0,127.0,224.0,173.0,132.0,27.0,-114.0,-68.0,127.0,126.0,127.0,122.0,87.0,-82.0
129.0,124.0,124.0,65.0,126.0,225.0,174.0,132.0,27.0,-114.0,-68.0,127.0,126.0,127.0,122.0,87.0,-82.0
128.0,126.0,126.0,49.0,132.0,246.0,189.0,130.0,27.0,-114.0,-66.0,127.0,126.0,127.0,122.0,87.0,-82.0
128.0,126.0,126.0,49.0,132.0,245.0,189.0,130.0,27.0,-114.0,-66.0,127.0,126.0,127.0,122.0,87.0,-82.0
128.0,126.0,126.0,49.0,132.0,245.0,188.0,130.0,27.0,-114.0,-66.0,127.0,126.0,127.0,122.0,87.0,-82.0
128.0,126.0,126.0,49.0,131.0,244.0,187.0,130.0,27.0,-114.0,-66.0,127.0,126.0,127.0,122.0,87.0,-82.0
128.0,126.0,127.0,48.0,131.0,243.0,187.0,130.0,27.0,-114.0,-66.0,127.0,126.0,127.0,122.0,87.0,-82.0
128.0,126.0,127.0,48.0,131.0,243.0,186.0,130.0,27.0,-114.0,-66.0,127.0,126.0,127.0,122.0,87.0,-82.0
128.0,126.0,127.0,48.0,131.0,242.0,185.0,130.0,27.0,-114.0,-66.0,127.0,126.0,127.0,122.0,87.0,-82.0
128.0,126.0,126.0,49.0,132.0,247.0,185.0,131.0,27.0,-114.0,-66.0,127.0,126.0,127.0,122.0,87.0,-82.0
128.0,126.0,126.0,49.0,132.0,247.0,185.0,131.0,27.0,-114.0,-66.0,127.0,126.0,127.0,122.0,87.0,-82.0
128.0,126.0,126.0,49.0,132.0,246.0,188.0,131.0,27.0,-114.0,-66.0,127.0,126.0,127.0,122.0,87.0,-82.0
128.0,126.0,126.0,66.0,129.0,222.0,177.0,128.0,28.0,-115.0,-65.0,127.0,127.0,127.0,122.0,87.0,-82.0
128.0,126.0,126.0,66.0,129.0,222.0,177.0,128.0,28.0,-115.0,-65.0,127.0,127.0,127.0,122.0,87.0,-82.0
128.0,126.0,126.0,66.0,129.0,222.0,177.0,128.0,28.0,-115.0,-65.0,127.0,127.0,127.0,122.0,87.0,-82.0
128.0,126.0,125.0,66.0,129.0,222.0,176.0,128.0,28.0,-115.0,-65.0,127.0,127.0,127.0,122.0,87.0,-82.0
128.0,126.0,125.0,67.0,129.0,221.0,176.0,128.0,28.0,-115.0,-65.0,127.0,127.0,127.0,122.0,87.0,-82.0
128.0,126.0,125.0,67.0,129.0,221.0,176.0,128.0,28.0,-115.0,-65.0,127.0,127.0,127.0,122.0,87.0,-82.0
128.0,126.0,126.0,64.0,129.0,223.0,172.0,128.0,28.0,-115.0,-65.0,127.0,127.0,127.0,122.0,87.0,-82.0
128.0,126.0,126.0,65.0,129.0,223.0,172.0,128.0,28.0,-115.0,-65.0,127.0,127.0,127.0,122.0,87.0,-82.0
128.0,126.0,126.0,65.0,129.0,223.0,172.0,128.0,28.0,-115.0,-65.0,127.0,127.0,127.0,122.0,87.0,-82.0
128.0,126.0,126.0,65.0,129.0,223.0,172.0,128.0,28.0,-115.0,-65.0,127.0,127.0,127.0,122.0,87.0,-82.0
128.0,125.0,115.0,79.0,127.0,238.0,185.0,128.0,30.0,-115.0,-64.0,126.0,127.0,127.0,122.0,87.0,-82.0
128.0,125.0,115.0,80.0,127.0,238.0,186.0,128.0,30.0,-115.0,-64.0,126.0,127.0,127.0,122.0,87.0,-82.0
128.0,125.0,114.0,80.0,126.0,239.0,184.0,128.0,30.0,-115.0,-64.0,126.0,127.0,127.0,122.0,87.0,-82.0
128.0,125.0,114.0,80.0,126.0,239.0,181.0,128.0,30.0,-115.0,-64.0,126.0,127.0,127.0,122.0,87.0,-82.0
128.0,125.0,114.0,80.0,126.0,239.0,181.0,128.0,30.0,-115.0,-64.0,126.0,127.0,127.0,122.0,87.0,-82.0
128.0,125.0,116.0,78.0,127.0,236.0,182.0,128.0,30.0,-115.0,-64.0,126.0,127.0,127.0,122.0,87.0,-82.0
128.0,125.0,116.0,78.0,127.0,236.0,183.0,128.0,30.0,-115.0,-64.0,126.0,127.0,127.0,122.0,87.0,-82.0
128.0,125.0,116.0,78.0,127.0,237.0,183.0,128.0,30.0,-115.0,-64.0,126.0,127.0,127.0,122.0,87.0,-82.0
128.0,125.0,115.0,79.0,127.0,237.0,184.0,128.0,30.0,-115.0,-64.0,126.0,127.0,127.0,122.0,87.0,-82.0
128.0,125.0,115.0,79.0,127.0,237.0,185.0,128.0,30.0,-115.0,-64.0,126.0,127.0,127.0,122.0,87.0,-82.0
127.0,124.0,108.0,94.0,123.0,254.0,195.0,128.0,30.0,-116.0,-65.0,126.0,127.0,127.0,122.0,87.0,-82.0
127.0,124.0,108.0,95.0,123.0,254.0,195.0,128.0,30.0,-116.0,-65.0,126.0,127.0,127.0,122.0,87.0,-82.0
127.0,124.0,108.0,95.0,123.0,254.0,195.0,128.0,30.0,-116.0,-65.0,126.0,127.0,127.0,122.0,87.0,-82.0
127.0,124.0,108.0,95.0,123.0,254.0,195.0,128.0,30.0,-116.0,-65.0,126.0,127.0,127.0,122.0,87.0,-82.0
127.0,124.0,106.0,92.0,123.0,254.0,195.0,128.0,30.0,-116.0,-65.0,126.0,127.0,127.0,122.0,87.0,-82.0
127.0,124.0,107.0,93.0,123.0,254.0,195.0,128.0,30.0,-116.0,-65.0,126.0,127.0,127.0,122.0,87.0,-82.0
127.0,124.0,107.0,93.0,123.0,254.0,195.0,128.0,30.0,-116.0,-65.0,126.0,127.0,127.0,122.0,87.0,-82.0
127.0,124.0,107.0,93.0,123.0,254.0,195.0,128.0,30.0,-116.0,-65.0,126.0,127.0,127.0,122.0,87.0,-82.0
127.0,124.0,107.0,94.0,123.0,254.0,195.0,128.0,30.0,-116.0,-65.0,126.0,127.0,127.0,122.0,87.0,-82.0
127.0,124.0,107.0,94.0,123.0,254.0,195.0,128.0,30.0,-116.0,-65.0,126.0,127.0,127.0,122.0,87.0,-82.0
127.0,125.0,83.0,102.0,122.0,254.0,195.0,128.0,31.0,-117.0,-66.0,126.0,127.0,127.0,122.0,87.0,-82.0
127.0,125.0,83.0,102.0,122.0,254.0,194.0,128.0,31.0,-117.0,-66.0,126.0,127.0,127.0,122.0,87.0,-82.0
127.0,125.0,83.0,102.0,122.0,254.0,195.0,129.0,31.0,-117.0,-66.0,126.0,127.0,127.0,122.0,87.0,-82.0
127.0,124.0,85.0,101.0,122.0,254.0,195.0,128.0,31.0,-117.0,-66.0,126.0,127.0,127.0,122.0,87.0,-82.0
127.0,124.0,84.0,101.0,122.0,254.0,195.0,128.0,31.0,-117.0,-66.0,126.0,127.0,127.0,122.0,87.0,-82.0
127.0,124.0,84.0,101.0,122.0,254.0,194.0,128.0,31.0,-117.0,-66.0,126.0,127.0,127.0,122.0,87.0,-82.0
127.0,125.0,84.0,101.0,122.0,254.0,195.0,128.0,31.0,-117.0,-66.0,126.0,127.0,127.0,122.0,87.0,-82.0
127.0,125.0,84.0,102.0,122.0,254.0,195.0,128.0,31.0,-117.0,-66.0,126.0,127.0,127.0,122.0,87.0,-82.0
127.0,125.0,84.0,102.0,122.0,254.0,195.0,128.0,31.0,-117.0,-66.0,126.0,127.0,127.0,122.0,87.0,-82.0
127.0,125.0,83.0,102.0,122.0,254.0,195.0,128.0,31.0,-117.0,-66.0,126.0,127.0,127.0,122.0,87.0,-82.0
127.0,126.0,62.0,109.0,123.0,254.0,195.0,128.0,31.0,-118.0,-67.0,126.0,127.0,127.0,122.0,87.0,-82.0
127.0,126.0,62.0,109.0,123.0,254.0,194.0,129.0,31.0,-118.0,-67.0,126.0,127.0,127.0,122.0,87.0,-82.0
127.0,125.0,57.0,107.0,122.0,254.0,195.0,128.0,31.0,-118.0,-67.0,126.0,127.0,127.0,122.0,87.0,-82.0
127.0,125.0,57.0,108.0,122.0,254.0,195.0,128.0,31.0,-118.0,-67.0,126.0,127.0,127.0,122.0,87.0,-82.0
127.0,125.0,58.0,108.0,122.0,254.0,194.0,128.0,31.0,-118.0,-67.0,126.0,127.0,127.0,122.0,87.0,-82.0
127.0,126.0,58.0,108.0,123.0,254.0,194.0,128.0,31.0,-118.0,-67.0,126.0,127.0,127.0,122.0,87.0,-82.0
127.0,126.0,59.0,108.0,123.0,254.0,195.0,129.0,31.0,-118.0,-67.0,126.0,127.0,127.0,122.0,87.0,-82.0
127.0,126.0,60.0,108.0,123.0,254.0,195.0,129.0,31.0,-118.0,-67.0,126.0,127.0,127.0,122.0,87.0,-82.0
127.0,126.0,60.0,108.0,122.0,254.0,195.0,129.0,31.0,-118.0,-67.0,126.0,127.0,127.0,122.0,87.0,-82.0
127.0,126.0,61.0,108.0,123.0,254.0,195.0,129.0,31.0,-118.0,-67.0,126.0,127.0,127.0,122.0,87.0,-82.0
127.0,127.0,108.0,116.0,125.0,254.0,195.0,128.0,31.0,-119.0,-68.0,126.0,127.0,127.0,122.0,87.0,-82.0
127.0,126.0,100.0,115.0,124.0,254.0,195.0,128.0,31.0,-119.0,-68.0,126.0,127.0,127.0,122.0,87.0,-82.0
127.0,126.0,101.0,115.0,124.0,254.0,195.0,128.0,31.0,-119.0,-68.0,126.0,127.0,127.0,122.0,87.0,-82.0
127.0,126.0,102.0,115.0,124.0,254.0,194.0,128.0,31.0,-119.0,-68.0,126.0,127.0,127.0,122.0,87.0,-82.0
127.0,127.0,103.0,115.0,124.0,254.0,194.0,128.0,31.0,-119.0,-68.0,126.0,127.0,127.0,122.0,87.0,-82.0
127.0,127.0,104.0,115.0,124.0,254.0,195.0,128.0,31.0,-119.0,-68.0,126.0,127.0,127.0,122.0,87.0,-82.0
127.0,127.0,105.0,115.0,124.0,254.0,195.0,128.0,31.0,-119.0,-68.0,126.0,127.0,127.0,122.0,87.0,-82.0
127.0,126.0,106.0,115.0,124.0,254.0,195.0,128.0,31.0,-119.0,-68.0,126.0,127.0,127.0,122.0,87.0,-82.0
127.0,127.0,106.0,116.0,125.0,254.0,195.0,128.0,31.0,-119.0,-68.0,126.0,127.0,127.0,122.0,87.0,-82.0
127.0,127.0,107.0,116.0,124.0,254.0,195.0,128.0,31.0,-119.0,-68.0,126.0,127.0,127.0,122.0,87.0,-82.0
127.0,127.0,140.0,117.0,125.0,254.0,195.0,126.0,32.0,-119.0,-67.0,126.0,127.0,127.0,122.0,87.0,-82.0
127.0,127.0,140.0,118.0,126.0,254.0,195.0,126.0,32.0,-119.0,-67.0,126.0,127.0,127.0,122.0,87.0,-82.0
127.0,127.0,140.0,118.0,126.0,254.0,195.0,126.0,32.0,-119.0,-67.0,126.0,127.0,127.0,122.0,87.0,-82.0
127.0,127.0,140.0,118.0,126.0,254.0,195.0,127.0,32.0,-119.0,-67.0,126.0,127.0,127.0,122.0,87.0,-82.0
127.0,127.0,141.0,118.0,126.0,254.0,195.0,127.0,32.0,-119.0,-67.0,126.0,127.0,127.0,122.0,87.0,-82.0
127.0,127.0,142.0,118.0,126.0,254.0,195.0,127.0,32.0,-119.0,-67.0,126.0,127.0,127.0,122.0,87.0,-82.0
127.0,127.0,142.0,118.0,126.0,254.0,195.0,127.0,32.0,-119.0,-67.0,126.0,127.0,127.0,122.0,87.0,-82.0
127.0,127.0,143.0,118.0,126.0,254.0,195.0,126.0,32.0,-119.0,-67.0,126.0,127.0,127.0,122.0,87.0,-82.0
127.0,127.0,143.0,118.0,126.0,254.0,195.0,126.0,32.0,-119.0,-67.0,126.0,127.0,127.0,122.0,87.0,-82.0
127.0,128.0,144.0,118.0,127.0,254.0,194.0,127.0,32.0,-119.0,-67.0,126.0,127.0,127.0,122.0,87.0,-82.0
127.0,128.0,162.0,119.0,126.0,230.0,180.0,126.0,31.0,-119.0,-67.0,126.0,127.0,127.0,122.0,87.0,-82.0
127.0,128.0,162.0,119.0,126.0,229.0,181.0,126.0,31.0,-119.0,-67.0,126.0,127.0,127.0,122.0,87.0,-82.0
127.0,128.0,162.0,119.0,126.0,229.0,180.0,126.0,31.0,-119.0,-67.0,126.0,127.0,127.0,122.0,87.0,-82.0
127.0,128.0,162.0,119.0,126.0,228.0,179.0,126.0,31.0,-119.0,-67.0,126.0,127.0,127.0,122.0,87.0,-82.0
127.0,128.0,163.0,119.0,126.0,227.0,178.0,126.0,31.0,-119.0,-67.0,126.0,127.0,127.0,122.0,87.0,-82.0
127.0,128.0,163.0,119.0,126.0,227.0,177.0,126.0,31.0,-119.0,-67.0,126.0,127.0,127.0,122.0,87.0,-82.0
127.0,128.0,163.0,119.0,126.0,226.0,176.0,126.0,31.0,-119.0,-67.0,126.0,127.0,127.0,122.0,87.0,-82.0
127.0,128.0,163.0,119.0,126.0,225.0,175.0,126.0,31.0,-119.0,-67.0,126.0,127.0,127.0,122.0,87.0,-82.0
127.0,128.0,164.0,119.0,126.0,224.0,174.0,126.0,31.0,-119.0,-67.0,126.0,127.0,127.0,122.0,87.0,-82.0
127.0,128.0,162.0,119.0,127.0,231.0,176.0,126.0,31.0,-119.0,-67.0,126.0,127.0,127.0,122.0,87.0,-82.0
127.0,128.0,162.0,120.0,127.0,202.0,162.0,126.0,31.0,-119.0,-66.0,126.0,127.0,127.0,122.0,87.0,-82.0
127.0,128.0,162.0,119.0,127.0,202.0,162.0,126.0,31.0,-119.0,-66.0,126.0,127.0,127.0,122.0,87.0,-82.0
127.0,128.0,161.0,119.0,128.0,201.0,161.0,126.0,31.0,-119.0,-66.0,126.0,127.0,127.0,122.0,87.0,-82.0
127.0,128.0,161.0,120.0,128.0,201.0,160.0,126.0,31.0,-119.0,-66.0,126.0,127.0,127.0,122.0,87.0,-82.0
127.0,128.0,161.0,120.0,127.0,200.0,159.0,126.0,31.0,-119.0,-66.0,126.0,127.0,127.0,122.0,87.0,-82.0
127.0,128.0,161.0,120.0,127.0,200.0,159.0,126.0,31.0,-119.0,-66.0,126.0,127.0,127.0,122.0,87.0,-82.0
127.0,128.0,161.0,120.0,127.0,199.0,158.0,126.0,31.0,-119.0,-66.0,126.0,127.0,127.0,122.0,87.0,-82.0
127.0,128.0,161.0,120.0,127.0,199.0,158.0,126.0,31.0,-119.0,-66.0,126.0,127.0,127.0,122.0,87.0,-82.0
127.0,128.0,162.0,119.0,128.0,203.0,163.0,126.0,31.0,-119.0,-66.0,126.0,127.0,127.0,122.0,87.0,-82.0
127.0,128.0,162.0,119.0,128.0,203.0,163.0,126.0,31.0,-119.0,-66.0,126.0,127.0,127.0,122.0,87.0,-82.0
127.0,128.0,155.0,121.0,128.0,184.0,149.0,126.0,30.0,-118.0,-66.0,126.0,127.0,127.0,122.0,87.0,-82.0
127.0,128.0,155.0,121.0,128.0,184.0,149.0,126.0,30.0,-118.0,-66.0,126.0,127.0,127.0,122.0,87.0,-82.0
127.0,128.0,155.0,121.0,128.0,184.0,149.0,126.0,30.0,-118.0,-66.0,126.0,127.0,127.0,122.0,87.0,-82.0
127.0,128.0,154.0,121.0,128.0,184.0,148.0,126.0,30.0,-118.0,-66.0,126.0,127.0,127.0,122.0,87.0,-82.0
127.0,128.0,154.0,121.0,128.0,183.0,148.0,126.0,30.0,-118.0,-66.0,126.0,127.0,127.0,122.0,87.0,-82.0
127.0,128.0,154.0,121.0,128.0,183.0,149.0,126.0,30.0,-118.0,-66.0,126.0,127.0,127.0,122.0,87.0,-82.0
127.0,128.0,154.0,121.0,128.0,182.0,153.0,126.0,30.0,-118.0,-66.0,126.0,127.0,127.0,122.0,87.0,-82.0
127.0,128.0,156.0,120.0,128.0,185.0,150.0,126.0,30.0,-118.0,-66.0,126.0,127.0,127.0,122.0,87.0,-82.0
127.0,128.0,156.0,120.0,128.0,185.0,150.0,126.0,30.0,-118.0,-66.0,126.0,127.0,127.0,122.0,87.0,-82.0
127.0,128.0,155.0,121.0,128.0,185.0,149.0,126.0,30.0,-118.0,-66.0,126.0,127.0,127.0,122.0,87.0,-82.0
127.0,128.0,147.0,121.0,128.0,171.0,143.0,126.0,29.0,-118.0,-65.0,126.0,127.0,127.0,122.0,87.0,-82.0
127.0,128.0,147.0,121.0,128.0,171.0,143.0,126.0,29.0,-118.0,-65.0,126.0,127.0,127.0,122.0,87.0,-82.0
127.0,128.0,147.0,121.0,128.0,171.0,143.0,126.0,29.0,-118.0,-65.0,126.0,127.0,127.0,122.0,87.0,-82.0
127.0,128.0,147.0,121.0,128.0,171.0,142.0,126.0,29.0,-118.0,-65.0,126.0,127.0,127.0,122.0,87.0,-82.0
127.0,128.0,147.0,121.0,128.0,170.0,142.0,126.0,29.0,-118.0,-65.0,126.0,127.0,127.0,122.0,87.0,-82.0
127.0,128.0,147.0,121.0,128.0,170.0,141.0,126.0,29.0,-118.0,-65.0,126.0,127.0,127.0,122.0,87.0,-82.0
127.0,127.0,147.0,121.0,128.0,172.0,144.0,126.0,29.0,-118.0,-65.0,126.0,127.0,127.0,122.0,87.0,-82.0
127.0,127.0,147.0,121.0,128.0,171.0,143.0,126.0,29.0,-118.0,-65.0,126.0,127.0,127.0,122.0,87.0,-82.0
127.0,127.0,147.0,121.0,128.0,171.0,143.0,126.0,29.0,-118.0,-65.0,126.0,127.0,127.0,122.0,87.0,-82.0
127.0,127.0,147.0,121.0,128.0,171.0,143.0,126.0,29.0,-118.0,-65.0,126.0,127.0,127.0,122.0,87.0,-82.0
127.0,127.0,143.0,122.0,128.0,163.0,137.0,126.0,28.0,-119.0,-65.0,126.0,127.0,127.0,122.0,87.0,-82.0
127.0,127.0,143.0,122.0,127.0,163.0,137.0,126.0,28.0,-119.0,-65.0,126.0,127.0,127.0,122.0,87.0,-82.0
127.0,127.0,143.0,122.0,128.0,163.0,136.0,126.0,28.0,-119.0,-65.0,126.0,127.0,127.0,122.0,87.0,-82.0
127.0,127.0,142.0,122.0,127.0,162.0,136.0,126.0,28.0,-119.0,-65.0,126.0,127.0,127.0,122.0,87.0,-82.0
127.0,127.0,142.0,122.0,127.0,162.0,136.0,126.0,28.0,-119.0,-65.0,126.0,127.0,127.0,122.0,87.0,-82.0
127.0,128.0,143.0,121.0,128.0,164.0,139.0,126.0,28.0,-119.0,-65.0,126.0,127.0,127.0,122.0,87.0,-82.0
127.0,127.0,143.0,121.0,127.0,164.0,138.0,126.0,28.0,-119.0,-65.0,126.0,127.0,127.0,122.0,87.0,-82.0
127.0,127.0,143.0,122.0,128.0,164.0,138.0,126.0,28.0,-119.0,-65.0,126.0,127.0,127.0,122.0,87.0,-82.0
127.0,127.0,143.0,122.0,128.0,163.0,138.0,126.0,28.0,-119.0,-65.0,126.0,127.0,127.0,122.0,87.0,-82.0
127.0,127.0,143.0,122.0,127.0,163.0,138.0,126.0,28.0,-119.0,-65.0,126.0,127.0,127.0,122.0,87.0,-82.0
127.0,127.0,139.0,124.0,128.0,157.0,135.0,126.0,27.0,-119.0,-65.0,126.0,127.0,127.0,122.0,87.0,-82.0
127.0,127.0,139.0,124.0,128.0,157.0,134.0,126.0,27.0,-119.0,-65.0,126.0,127.0,127.0,122.0,87.0,-82.0
127.0,127.0,139.0,124.0,128.0,157.0,134.0,126.0,27.0,-119.0,-65.0,126.0,127.0,127.0,122.0,87.0,-82.0
127.0,127.0,139.0,124.0,128.0,157.0,134.0,126.0,27.0,-119.0,-65.0,126.0,127.0,127.0,122.0,87.0,-82.0
127.0,128.0,139.0,123.0,128.0,158.0,136.0,126.0,27.0,-119.0,-65.0,126.0,127.0,127.0,122.0,87.0,-82.0
127.0,127.0,139.0,123.0,128.0,158.0,136.0,126.0,27.0,-119.0,-65.0,126.0,127.0,127.0,122.0,87.0,-82.0
127.0,127.0,139.0,124.0,128.0,158.0,136.0,126.0,27.0,-119.0,-65.0,126.0,127.0,127.0,122.0,87.0,-82.0
127.0,127.0,139.0,124.0,128.0,158.0,136.0,126.0,27.0,-119.0,-65.0,126.0,127.0,127.0,122.0,87.0,-82.0
127.0,127.0,139.0,124.0,128.0,157.0,135.0,126.0,27.0,-119.0,-65.0,126.0,127.0,127.0,122.0,87.0,-82.0
127.0,127.0,139.0,124.0,128.0,157.0,135.0,126.0,27.0,-119.0,-65.0,126.0,127.0,127.0,122.0,87.0,-82.0
127.0,127.0,134.0,126.0,128.0,152.0,126.0,126.0,26.0,-119.0,-65.0,126.0,127.0,127.0,122.0,87.0,-82.0
127.0,127.0,134.0,126.0,127.0,152.0,126.0,126.0,26.0,-119.0,-65.0,126.0,127.0,127.0,122.0,87.0,-82.0
127.0,127.0,134.0,126.0,128.0,152.0,126.0,126.0,26.0,-119.0,-65.0,126.0,127.0,127.0,122.0,87.0,-82.0
127.0,127.0,135.0,126.0,128.0,153.0,128.0,126.0,26.0,-119.0,-65.0,126.0,127.0,127.0,122.0,87.0,-82.0
127.0,127.0,135.0,126.0,128.0,153.0,128.0,126.0,26.0,-119.0,-65.0,126.0,127.0,127.0,122.0,87.0,-82.0
127.0,127.0,135.0,126.0,128.0,153.0,127.0,126.0,26.0,-119.0,-65.0,126.0,127.0,127.0,122.0,87.0,-82.0
127.0,127.0,135.0,126.0,128.0,153.0,127.0,126.0,26.0,-119.0,-65.0,126.0,127.0,127.0,122.0,87.0,-82.0
127.0,127.0,135.0,126.0,128.0,153.0,127.0,126.0,26.0,-119.0,-65.0,126.0,127.0,127.0,122.0,87.0,-82.0
127.0,127.0,134.0,126.0,128.0,152.0,126.0,126.0,26.0,-119.0,-65.0,126.0,127.0,127.0,122.0,87.0,-82.0
127.0,127.0,134.0,126.0,128.0,152.0,126.0,126.0,26.0,-119.0,-65.0,126.0,127.0,127.0,122.0,87.0,-82.0
127.0,128.0,131.0,128.0,127.0,148.0,127.0,126.0,26.0,-120.0,-65.0,126.0,127.0,127.0,122.0,87.0,-82.0
127.0,128.0,131.0,128.0,127.0,148.0,127.0,126.0,26.0,-120.0,-65.0,126.0,127.0,127.0,122.0,87.0,-82.0
127.0,127.0,133.0,128.0,127.0,149.0,128.0,126.0,26.0,-120.0,-65.0,126.0,127.0,127.0,122.0,87.0,-82.0
127.0,127.0,133.0,127.0,127.0,149.0,129.0,126.0,26.0,-120.0,-65.0,126.0,127.0,127.0,122.0,87.0,-82.0
127.0,128.0,132.0,127.0,127.0,149.0,128.0,126.0,26.0,-120.0,-65.0,126.0,127.0,127.0,122.0,87.0,-82.0
127.0,128.0,132.0,127.0,127.0,149.0,128.0,126.0,26.0,-120.0,-65.0,126.0,127.0,127.0,122.0,87.0,-82.0
127.0,128.0,131.0,128.0,127.0,148.0,128.0,126.0,26.0,-120.0,-65.0,126.0,127.0,127.0,122.0,87.0,-82.0
127.0,128.0,131.0,128.0,127.0,148.0,127.0,126.0,26.0,-120.0,-65.0,126.0,127.0,127.0,122.0,87.0,-82.0
127.0,128.0,131.0,128.0,127.0,148.0,128.0,126.0,26.0,-120.0,-65.0,126.0,127.0,127.0,122.0,87.0,-82.0
127.0,128.0,131.0,128.0,127.0,148.0,127.0,126.0,26.0,-120.0,-65.0,126.0,127.0,127.0,122.0,87.0,-82.0
127.0,127.0,129.0,128.0,127.0,145.0,123.0,126.0,26.0,-120.0,-65.0,127.0,127.0,127.0,122.0,87.0,-82.0
127.0,128.0,129.0,128.0,127.0,146.0,124.0,126.0,26.0,-120.0,-65.0,127.0,127.0,127.0,122.0,87.0,-82.0
127.0,127.0,129.0,128.0,127.0,146.0,124.0,126.0,26.0,-120.0,-65.0,127.0,127.0,127.0,122.0,87.0,-82.0
127.0,127.0,129.0,128.0,127.0,146.0,124.0,126.0,26.0,-120.0,-65.0,127.0,127.0,127.0,122.0,87.0,-82.0
127.0,127.0,129.0,128.0,127.0,146.0,124.0,126.0,26.0,-120.0,-65.0,127.0,127.0,127.0,122.0,87.0,-82.0
127.0,127.0,129.0,128.0,127.0,146.0,123.0,126.0,26.0,-120.0,-65.0,127.0,127.0,127.0,122.0,87.0,-82.0
127.0,127.0,129.0,128.0,127.0,146.0,123.0,126.0,26.0,-120.0,-65.0,127.0,127.0,127.0,122.0,87.0,-82.0
127.0,127.0,129.0,128.0,127.0,146.0,123.0,126.0,26.0,-120.0,-65.0,127.0,127.0,127.0,122.0,87.0,-82.0
127.0,127.0,129.0,128.0,127.0,146.0,123.0,126.0,26.0,-120.0,-65.0,127.0,127.0,127.0,122.0,87.0,-82.0
127.0,127.0,129.0,128.0,127.0,145.0,122.0,126.0,26.0,-120.0,-65.0,127.0,127.0,127.0,122.0,87.0,-82.0
127.0,128.0,128.0,127.0,127.0,145.0,122.0,126.0,27.0,-120.0,-65.0,127.0,127.0,127.0,122.0,87.0,-82.0
127.0,128.0,128.0,127.0,127.0,145.0,121.0,126.0,27.0,-120.0,-65.0,127.0,127.0,127.0,122.0,87.0,-82.0
127.0,128.0,128.0,127.0,127.0,145.0,122.0,126.0,27.0,-120.0,-65.0,127.0,127.0,127.0,122.0,87.0,-82.0
127.0,128.0,128.0,127.0,127.0,145.0,122.0,126.0,27.0,-120.0,-65.0,127.0,127.0,127.0,122.0,87.0,-82.0
127.0,128.0,128.0,127.0,127.0,145.0,122.0,126.0,27.0,-120.0,-65.0,127.0,127.0,127.0,122.0,87.0,-82.0
127.0,127.0,128.0,127.0,127.0,144.0,121.0,126.0,27.0,-120.0,-65.0,127.0,127.0,127.0,122.0,87.0,-82.0
127.0,127.0,128.0,127.0,127.0,144.0,121.0,126.0,27.0,-120.0,-65.0,127.0,127.0,127.0,122.0,87.0,-82.0
127.0,127.0,128.0,127.0,127.0,144.0,121.0,126.0,27.0,-120.0,-65.0,127.0,127.0,127.0,122.0,87.0,-82.0
127.0,127.0,128.0,127.0,127.0,144.0,120.0,126.0,27.0,-120.0,-65.0,127.0,127.0,127.0,122.0,87.0,-82.0
127.0,127.0,128.0,127.0,127.0,144.0,120.0,126.0,27.0,-120.0,-65.0,127.0,127.0,127.0,122.0,87.0,-82.0
127.0,127.0,127.0,127.0,127.0,143.0,125.0,126.0,27.0,-120.0,-66.0,127.0,127.0,127.0,122.0,87.0,-82.0
127.0,128.0,127.0,127.0,127.0,143.0,122.0,126.0,27.0,-120.0,-66.0,127.0,127.0,127.0,122.0,87.0,-82.0
127.0,128.0,127.0,127.0,127.0,143.0,121.0,126.0,27.0,-120.0,-66.0,127.0,127.0,127.0,122.0,87.0,-82.0
126.0,128.0,127.0,127.0,127.0,143.0,124.0,126.0,27.0,-120.0,-66.0,127.0,127.0,127.0,122.0,87.0,-82.0
126.0,128.0,127.0,127.0,127.0,143.0,121.0,126.0,27.0,-120.0,-66.0,127.0,127.0,127.0,122.0,87.0,-82.0
126.0,128.0,127.0,127.0,127.0,143.0,120.0,126.0,27.0,-120.0,-66.0,127.0,127.0,127.0,122.0,87.0,-82.0
126.0,128.0,127.0,127.0,127.0,143.0,123.0,126.0,27.0,-120.0,-66.0,127.0,127.0,127.0,122.0,87.0,-82.0
127.0,128.0,127.0,127.0,127.0,143.0,125.0,126.0,27.0,-120.0,-66.0,127.0,127.0,127.0,122.0,87.0,-82.0
127.0,127.0,127.0,127.0,127.0,142.0,125.0,126.0,27.0,-120.0,-66.0,127.0,127.0,127.0,122.0,87.0,-82.0
127.0,127.0,127.0,127.0,127.0,143.0,125.0,126.0,27.0,-120.0,-66.0,127.0,127.0,127.0,122.0,87.0,-82.0
126.0,127.0,127.0,127.0,127.0,140.0,119.0,126.0,28.0,-120.0,-66.0,127.0,127.0,127.0,122.0,87.0,-82.0
126.0,127.0,127.0,127.0,127.0,140.0,120.0,126.0,28.0,-120.0,-66.0,127.0,127.0,127.0,122.0,87.0,-82.0
127.0,127.0,127.0,127.0,127.0,140.0,120.0,126.0,28.0,-120.0,-66.0,127.0,127.0,127.0,122.0,87.0,-82.0
126.0,127.0,127.0,127.0,127.0,139.0,120.0,126.0,28.0,-120.0,-66.0,127.0,127.0,127.0,122.0,87.0,-82.0
126.0,127.0,127.0,127.0,127.0,139.0,120.0,126.0,28.0,-120.0,-66.0,127.0,127.0,127.0,122.0,87.0,-82.0
126.0,127.0,127.0,127.0,127.0,139.0,120.0,126.0,28.0,-120.0,-66.0,127.0,127.0,127.0,122.0,87.0,-82.0
126.0,127.0,127.0,127.0,127.0,139.0,120.0,126.0,28.0,-120.0,-66.0,127.0,127.0,127.0,122.0,87.0,-82.0
126.0,127.0,127.0,127.0,127.0,139.0,120.0,126.0,28.0,-120.0,-66.0,127.0,127.0,127.0,122.0,87.0,-82.0
126.0,127.0,127.0,127.0,127.0,140.0,120.0,126.0,28.0,-120.0,-66.0,127.0,127.0,127.0,122.0,87.0,-82.0
126.0,127.0,127.0,127.0,127.0,140.0,120.0,126.0,28.0,-120.0,-66.0,127.0,127.0,127.0,122.0,87.0,-82.0
127.0,127.0,128.0,127.0,127.0,138.0,117.0,126.0,28.0,-120.0,-66.0,127.0,127.0,127.0,122.0,87.0,-82.0
127.0,127.0,128.0,127.0,127.0,138.0,117.0,126.0,28.0,-120.0,-66.0,127.0,127.0,127.0,122.0,87.0,-82.0
127.0,127.0,128.0,127.0,127.0,138.0,117.0,126.0,28.0,-120.0,-66.0,127.0,127.0,127.0,122.0,87.0,-82.0
127.0,127.0,128.0,127.0,127.0,138.0,117.0,126.0,28.0,-120.0,-66.0,127.0,127.0,127.0,122.0,87.0,-82.0
127.0,127.0,128.0,127.0,127.0,138.0,118.0,126.0,28.0,-120.0,-66.0,127.0,127.0,127.0,122.0,87.0,-82.0
126.0,127.0,128.0,127.0,127.0,138.0,117.0,126.0,28.0,-120.0,-66.0,127.0,127.0,127.0,122.0,87.0,-82.0
127.0,127.0,127.0,127.0,127.0,138.0,117.0,126.0,28.0,-120.0,-66.0,127.0,127.0,127.0,122.0,87.0,-82.0
127.0,127.0,128.0,127.0,127.0,138.0,117.0,126.0,28.0,-120.0,-66.0,127.0,127.0,127.0,122.0,87.0,-82.0
127.0,127.0,128.0,127.0,126.0,138.0,117.0,126.0,28.0,-120.0,-66.0,127.0,127.0,127.0,122.0,87.0,-82.0
127.0,127.0,128.0,127.0,127.0,138.0,117.0,126.0,28.0,-120.0,-66.0,127.0,127.0,127.0,122.0,87.0,-82.0
126.0,127.0,127.0,126.0,127.0,137.0,116.0,127.0,28.0,-120.0,-66.0,127.0,127.0,127.0,122.0,87.0,-82.0
126.0,127.0,126.0,126.0,127.0,137.0,116.0,127.0,28.0,-120.0,-66.0,127.0,127.0,127.0,122.0,87.0,-82.0
126.0,127.0,126.0,126.0,127.0,138.0,116.0,127.0,28.0,-120.0,-66.0,127.0,127.0,127.0,122.0,87.0,-82.0
126.0,127.0,126.0,126.0,127.0,138.0,116.0,127.0,28.0,-120.0,-66.0,127.0,127.0,127.0,122.0,87.0,-82.0
126.0,127.0,126.0,126.0,127.0,138.0,116.0,127.0,28.0,-120.0,-66.0,127.0,127.0,127.0,122.0,87.0,-82.0
126.0,128.0,126.0,126.0,127.0,138.0,117.0,127.0,28.0,-120.0,-66.0,127.0,127.0,127.0,122.0,87.0,-82.0
126.0,127.0,127.0,127.0,127.0,138.0,116.0,127.0,28.0,-120.0,-66.0,127.0,127.0,127.0,122.0,87.0,-82.0
126.0,127.0,127.0,127.0,127.0,137.0,116.0,127.0,28.0,-120.0,-66.0,127.0,127.0,127.0,122.0,87.0,-82.0
126.0,127.0,127.0,127.0,127.0,137.0,116.0,127.0,28.0,-120.0,-66.0,127.0,127.0,127.0,122.0,87.0,-82.0
126.0,127.0,127.0,127.0,127.0,137.0,116.0,126.0,28.0,-120.0,-66.0,127.0,127.0,127.0,122.0,87.0,-82.0
126.0,127.0,126.0,125.0,126.0,137.0,115.0,127.0,28.0,-120.0,-67.0,127.0,127.0,127.0,122.0,87.0,-82.0
126.0,127.0,126.0,125.0,126.0,137.0,115.0,127.0,28.0,-120.0,-67.0,127.0,127.0,127.0,122.0,87.0,-82.0
126.0,127.0,126.0,124.0,126.0,137.0,115.0,127.0,28.0,-120.0,-67.0,127.0,127.0,127.0,122.0,87.0,-82.0
126.0,127.0,126.0,124.0,126.0,137.0,115.0,127.0,28.0,-120.0,-67.0,127.0,127.0,127.0,122.0,87.0,-82.0
126.0,127.0,126.0,124.0,126.0,137.0,114.0,126.0,28.0,-120.0,-67.0,127.0,127.0,127.0,122.0,87.0,-82.0
126.0,127.0,126.0,125.0,127.0,137.0,115.0,127.0,28.0,-120.0,-67.0,127.0,127.0,127.0,122.0,87.0,-82.0
126.0,127.0,126.0,125.0,126.0,137.0,115.0,127.0,28.0,-120.0,-67.0,127.0,127.0,127.0,122.0,87.0,-82.0
126.0,127.0,126.0,125.0,126.0,137.0,115.0,127.0,28.0,-120.0,-67.0,127.0,127.0,127.0,122.0,87.0,-82.0
126.0,127.0,126.0,125.0,126.0,137.0,115.0,127.0,28.0,-120.0,-67.0,127.0,127.0,127.0,122.0,87.0,-82.0
126.0,127.0,126.0,125.0,126.0,137.0,115.0,127.0,28.0,-120.0,-67.0,127.0,127.0,127.0,122.0,87.0,-82.0
126.0,127.0,126.0,126.0,127.0,136.0,114.0,127.0,28.0,-119.0,-67.0,127.0,127.0,127.0,122.0,87.0,-82.0
126.0,127.0,126.0,126.0,127.0,136.0,114.0,127.0,28.0,-119.0,-67.0,127.0,127.0,127.0,122.0,87.0,-82.0
126.0,127.0,126.0,126.0,127.0,136.0,114.0,127.0,28.0,-119.0,-67.0,127.0,127.0,127.0,122.0,87.0,-82.0
126.0,127.0,126.0,126.0,127.0,136.0,113.0,127.0,28.0,-119.0,-67.0,127.0,127.0,127.0,122.0,87.0,-82.0
126.0,127.0,126.0,126.0,127.0,136.0,114.0,127.0,28.0,-119.0,-67.0,127.0,127.0,127.0,122.0,87.0,-82.0
126.0,127.0,126.0,126.0,127.0,136.0,115.0,127.0,28.0,-119.0,-67.0,127.0,127.0,127.0,122.0,87.0,-82.0
126.0,127.0,126.0,126.0,127.0,136.0,115.0,127.0,28.0,-119.0,-67.0,127.0,127.0,127.0,122.0,87.0,-82.0
126.0,127.0,126.0,126.0,127.0,136.0,114.0,127.0,28.0,-119.0,-67.0,127.0,127.0,127.0,122.0,87.0,-82.0
126.0,127.0,126.0,126.0,127.0,136.0,114.0,127.0,28.0,-119.0,-67.0,127.0,127.0,127.0,122.0,87.0,-82.0
126.0,127.0,126.0,126.0,127.0,136.0,114.0,127.0,28.0,-119.0,-67.0,127.0,127.0,127.0,122.0,87.0,-82.0
127.0,127.0,126.0,127.0,127.0,135.0,112.0,127.0,28.0,-120.0,-67.0,127.0,127.0,127.0,122.0,87.0,-82.0
127.0,127.0,126.0,127.0,127.0,135.0,113.0,127.0,28.0,-120.0,-67.0,127.0,127.0,127.0,122.0,87.0,-82.0
127.0,127.0,126.0,127.0,127.0,135.0,112.0,127.0,28.0,-120.0,-67.0,127.0,127.0,127.0,122.0,87.0,-82.0
127.0,127.0,127.0,127.0,128.0,136.0,113.0,127.0,28.0,-120.0,-67.0,127.0,127.0,127.0,122.0,87.0,-82.0
127.0,127.0,127.0,127.0,128.0,136.0,114.0,127.0,28.0,-120.0,-67.0,127.0,127.0,127.0,122.0,87.0,-82.0
127.0,127.0,127.0,127.0,128.0,136.0,114.0,127.0,28.0,-120.0,-67.0,127.0,127.0,127.0,122.0,87.0,-82.0
127.0,127.0,126.0,127.0,128.0,136.0,114.0,127.0,28.0,-120.0,-67.0,127.0,127.0,127.0,122.0,87.0,-82.0
127.0,127.0,126.0,127.0,128.0,136.0,114.0,127.0,28.0,-120.0,-67.0,127.0,127.0,127.0,122.0,87.0,-82.0
127.0,127.0,126.0,127.0,127.0,136.0,114.0,127.0,28.0,-120.0,-67.0,127.0,127.0,127.0,122.0,87.0,-82.0
127.0,127.0,126.0,127.0,127.0,136.0,113.0,127.0,28.0,-120.0,-67.0,127.0,127.0,127.0,122.0,87.0,-82.0
126.0,127.0,126.0,126.0,127.0,135.0,118.0,127.0,28.0,-120.0,-67.0,127.0,127.0,127.0,122.0,87.0,-82.0
126.0,127.0,126.0,126.0,127.0,134.0,119.0,127.0,28.0,-120.0,-67.0,127.0,127.0,127.0,122.0,87.0,-82.0
126.0,127.0,126.0,126.0,127.0,135.0,116.0,127.0,28.0,-120.0,-67.0,127.0,127.0,127.0,122.0,87.0,-82.0
126.0,127.0,126.0,126.0,127.0,135.0,113.0,128.0,28.0,-120.0,-67.0,127.0,127.0,127.0,122.0,87.0,-82.0
126.0,127.0,126.0,126.0,127.0,135.0,112.0,128.0,28.0,-120.0,-67.0,127.0,127.0,127.0,122.0,87.0,-82.0
126.0,127.0,126.0,126.0,127.0,135.0,112.0,128.0,28.0,-120.0,-67.0,127.0,127.0,127.0,122.0,87.0,-82.0
126.0,127.0,126.0,126.0,127.0,135.0,114.0,127.0,28.0,-120.0,-67.0,127.0,127.0,127.0,122.0,87.0,-82.0
126.0,127.0,126.0,126.0,127.0,135.0,116.0,128.0,28.0,-120.0,-67.0,127.0,127.0,127.0,122.0,87.0,-82.0
126.0,127.0,126.0,126.0,127.0,135.0,118.0,127.0,28.0,-120.0,-67.0,127.0,127.0,127.0,122.0,87.0,-82.0
126.0,127.0,126.0,126.0,127.0,135.0,119.0,127.0,28.0,-120.0,-67.0,127.0,127.0,127.0,122.0,87.0,-82.0
127.0,127.0,126.0,126.0,127.0,134.0,117.0,127.0,28.0,-120.0,-67.0,127.0,127.0,127.0,122.0,87.0,-82.0
127.0,127.0,126.0,125.0,127.0,134.0,117.0,127.0,28.0,-120.0,-67.0,127.0,127.0,127.0,122.0,87.0,-82.0
127.0,127.0,126.0,125.0,127.0,134.0,118.0,127.0,28.0,-120.0,-67.0,127.0,127.0,127.0,122.0,87.0,-82.0
127.0,127.0,126.0,125.0,127.0,134.0,118.0,127.0,28.0,-120.0,-67.0,127.0,127.0,127.0,122.0,87.0,-82.0
127.0,127.0,126.0,125.0,127.0,134.0,118.0,127.0,28.0,-120.0,-67.0,127.0,127.0,127.0,122.0,87.0,-82.0
127.0,127.0,126.0,125.0,126.0,134.0,118.0,127.0,28.0,-120.0,-67.0,127.0,127.0,127.0,122.0,87.0,-82.0
127.0,127.0,126.0,126.0,127.0,134.0,118.0,127.0,28.0,-120.0,-67.0,127.0,127.0,127.0,122.0,87.0,-82.0
127.0,127.0,126.0,126.0,126.0,134.0,118.0,127.0,28.0,-120.0,-67.0,127.0,127.0,127.0,122.0,87.0,-82.0
127.0,127.0,126.0,126.0,127.0,134.0,117.0,127.0,28.0,-120.0,-67.0,127.0,127.0,127.0,122.0,87.0,-82.0
127.0,127.0,126.0,126.0,127.0,134.0,117.0,127.0,28.0,-120.0,-67.0,127.0,127.0,127.0,122.0,87.0,-82.0
127.0,127.0,126.0,127.0,127.0,133.0,115.0,126.0,28.0,-120.0,-66.0,127.0,127.0,127.0,122.0,87.0,-82.0
127.0,127.0,126.0,127.0,127.0,132.0,115.0,126.0,28.0,-120.0,-66.0,127.0,127.0,127.0,122.0,87.0,-82.0
127.0,127.0,126.0,127.0,127.0,133.0,115.0,126.0,28.0,-120.0,-66.0,127.0,127.0,127.0,122.0,87.0,-82.0
127.0,127.0,126.0,127.0,127.0,133.0,115.0,126.0,28.0,-120.0,-66.0,127.0,127.0,127.0,122.0,87.0,-82.0
127.0,127.0,126.0,127.0,127.0,133.0,116.0,126.0,28.0,-120.0,-66.0,127.0,127.0,127.0,122.0,87.0,-82.0
127.0,127.0,126.0,127.0,127.0,133.0,116.0,126.0,28.0,-120.0,-66.0,127.0,127.0,127.0,122.0,87.0,-82.0
127.0,127.0,126.0,127.0,127.0,133.0,116.0,126.0,28.0,-120.0,-66.0,127.0,127.0,127.0,122.0,87.0,-82.0
127.0,127.0,126.0,127.0,127.0,133.0,116.0,126.0,28.0,-120.0,-66.0,127.0,127.0,127.0,122.0,87.0,-82.0
127.0,127.0,126.0,127.0,127.0,133.0,116.0,126.0,28.0,-120.0,-66.0,127.0,127.0,127.0,122.0,87.0,-82.0
127.0,127.0,126.0,127.0,127.0,133.0,116.0,126.0,28.0,-120.0,-66.0,127.0,127.0,127.0,122.0,87.0,-82.0
127.0,127.0,126.0,127.0,127.0,133.0,116.0,127.0,28.0,-121.0,-66.0,127.0,127.0,127.0,122.0,87.0,-82.0
127.0,127.0,126.0,127.0,127.0,133.0,116.0,127.0,28.0,-121.0,-66.0,127.0,127.0,127.0,122.0,87.0,-82.0
127.0,127.0,126.0,127.0,127.0,133.0,116.0,127.0,28.0,-121.0,-66.0,127.0,127.0,127.0,122.0,87.0,-82.0
127.0,127.0,126.0,127.0,127.0,133.0,116.0,127.0,28.0,-121.0,-66.0,127.0,127.0,127.0,122.0,87.0,-82.0
127.0,127.0,126.0,127.0,127.0,133.0,116.0,127.0,28.0,-121.0,-66.0,127.0,127.0,127.0,122.0,87.0,-82.0
127.0,127.0,126.0,127.0,127.0,133.0,116.0,127.0,28.0,-121.0,-66.0,127.0,127.0,127.0,122.0,87.0,-82.0
127.0,127.0,126.0,127.0,127.0,132.0,115.0,127.0,28.0,-121.0,-66.0,127.0,127.0,127.0,122.0,87.0,-82.0
127.0,127.0,127.0,127.0,127.0,132.0,115.0,127.0,28.0,-121.0,-66.0,127.0,127.0,127.0,122.0,87.0,-82.0
127.0,127.0,127.0,127.0,127.0,132.0,115.0,127.0,28.0,-121.0,-66.0,127.0,127.0,127.0,122.0,87.0,-82.0
127.0,127.0,126.0,127.0,127.0,133.0,116.0,127.0,28.0,-121.0,-66.0,127.0,127.0,127.0,122.0,87.0,-82.0
126.0,128.0,126.0,127.0,127.0,133.0,116.0,127.0,28.0,-121.0,-66.0,127.0,127.0,127.0,122.0,87.0,-82.0
126.0,128.0,126.0,127.0,127.0,133.0,116.0,127.0,28.0,-121.0,-66.0,127.0,127.0,127.0,122.0,87.0,-82.0
126.0,128.0,126.0,127.0,127.0,133.0,116.0,127.0,28.0,-121.0,-66.0,127.0,127.0,127.0,122.0,87.0,-82.0
126.0,128.0,126.0,127.0,127.0,133.0,116.0,127.0,28.0,-121.0,-66.0,127.0,127.0,127.0,122.0,87.0,-82.0
126.0,128.0,126.0,127.0,127.0,133.0,117.0,127.0,28.0,-121.0,-66.0,127.0,127.0,127.0,122.0,87.0,-82.0
126.0,127.0,126.0,127.0,127.0,133.0,116.0,127.0,28.0,-121.0,-66.0,127.0,127.0,127.0,122.0,87.0,-82.0
126.0,127.0,126.0,127.0,127.0,133.0,116.0,127.0,28.0,-121.0,-66.0,127.0,127.0,127.0,122.0,87.0,-82.0
127.0,127.0,126.0,127.0,127.0,133.0,116.0,127.0,28.0,-121.0,-66.0,127.0,127.0,127.0,122.0,87.0,-82.0
126.0,127.0,126.0,127.0,127.0,133.0,115.0,127.0,28.0,-121.0,-66.0,127.0,127.0,127.0,122.0,87.0,-82.0
127.0,128.0,126.0,127.0,127.0,133.0,116.0,127.0,28.0,-121.0,-66.0,127.0,127.0,127.0,122.0,87.0,-82.0
127.0,127.0,127.0,127.0,126.0,132.0,115.0,127.0,27.0,-121.0,-66.0,127.0,127.0,127.0,123.0,87.0,-82.0
126.0,127.0,127.0,127.0,126.0,132.0,115.0,127.0,27.0,-121.0,-66.0,127.0,127.0,127.0,123.0,87.0,-82.0
127.0,127.0,127.0,127.0,126.0,133.0,115.0,127.0,27.0,-121.0,-66.0,127.0,127.0,127.0,123.0,87.0,-82.0
127.0,127.0,127.0,127.0,126.0,133.0,115.0,127.0,27.0,-121.0,-66.0,127.0,127.0,127.0,123.0,87.0,-82.0
127.0,127.0,127.0,127.0,126.0,133.0,115.0,127.0,27.0,-121.0,-66.0,127.0,127.0,127.0,123.0,87.0,-82.0
127.0,127.0,127.0,127.0,126.0,133.0,115.0,127.0,27.0,-121.0,-66.0,127.0,127.0,127.0,123.0,87.0,-82.0
127.0,127.0,127.0,127.0,126.0,133.0,115.0,127.0,27.0,-121.0,-66.0,127.0,127.0,127.0,123.0,87.0,-82.0
127.0,127.0,127.0,127.0,126.0,132.0,115.0,127.0,27.0,-121.0,-66.0,127.0,127.0,127.0,123.0,87.0,-82.0
127.0,127.0,127.0,127.0,126.0,132.0,115.0,127.0,27.0,-121.0,-66.0,127.0,127.0,127.0,123.0,87.0,-82.0
127.0,127.0,127.0,127.0,126.0,132.0,115.0,127.0,27.0,-121.0,-66.0,127.0,127.0,127.0,123.0,87.0,-82.0
126.0,127.0,127.0,126.0,126.0,132.0,114.0,127.0,26.0,-121.0,-66.0,127.0,127.0,127.0,123.0,87.0,-82.0
126.0,127.0,127.0,127.0,126.0,132.0,115.0,127.0,26.0,-121.0,-66.0,127.0,127.0,127.0,123.0,87.0,-82.0
126.0,127.0,127.0,127.0,126.0,132.0,115.0,127.0,26.0,-121.0,-66.0,127.0,127.0,127.0,123.0,87.0,-82.0
126.0,127.0,127.0,127.0,126.0,132.0,116.0,127.0,26.0,-121.0,-66.0,127.0,127.0,127.0,123.0,87.0,-82.0
126.0,127.0,126.0,127.0,126.0,132.0,115.0,127.0,26.0,-121.0,-66.0,127.0,127.0,127.0,123.0,87.0,-82.0
126.0,127.0,126.0,127.0,126.0,132.0,115.0,127.0,26.0,-121.0,-66.0,127.0,127.0,127.0,123.0,87.0,-82.0
127.0,127.0,127.0,126.0,126.0,132.0,114.0,127.0,26.0,-121.0,-66.0,127.0,127.0,127.0,123.0,87.0,-82.0
127.0,127.0,127.0,126.0,126.0,132.0,114.0,126.0,26.0,-121.0,-66.0,127.0,127.0,127.0,123.0,87.0,-82.0
126.0,127.0,127.0,126.0,126.0,132.0,114.0,126.0,26.0,-121.0,-66.0,127.0,127.0,127.0,123.0,87.0,-82.0
127.0,127.0,127.0,126.0,126.0,132.0,114.0,126.0,26.0,-121.0,-66.0,127.0,127.0,127.0,123.0,87.0,-82.0
126.0,128.0,127.0,127.0,126.0,132.0,114.0,126.0,26.0,-121.0,-67.0,127.0,127.0,127.0,123.0,87.0,-82.0
126.0,128.0,127.0,127.0,126.0,132.0,114.0,126.0,26.0,-121.0,-67.0,127.0,127.0,127.0,123.0,87.0,-82.0
126.0,128.0,127.0,127.0,126.0,132.0,114.0,126.0,26.0,-121.0,-67.0,127.0,127.0,127.0,123.0,87.0,-82.0
126.0,128.0,127.0,127.0,126.0,132.0,114.0,126.0,26.0,-121.0,-67.0,127.0,127.0,127.0,123.0,87.0,-82.0
126.0,128.0,127.0,127.0,126.0,132.0,114.0,126.0,26.0,-121.0,-67.0,127.0,127.0,127.0,123.0,87.0,-82.0
126.0,128.0,127.0,127.0,126.0,132.0,115.0,126.0,26.0,-121.0,-67.0,127.0,127.0,127.0,123.0,87.0,-82.0
126.0,127.0,127.0,127.0,126.0,132.0,114.0,126.0,26.0,-121.0,-67.0,127.0,127.0,127.0,123.0,87.0,-82.0
127.0,127.0,127.0,127.0,126.0,132.0,114.0,126.0,26.0,-121.0,-67.0,127.0,127.0,127.0,123.0,87.0,-82.0
126.0,127.0,127.0,127.0,126.0,132.0,114.0,126.0,26.0,-121.0,-67.0,127.0,127.0,127.0,123.0,87.0,-82.0
126.0,127.0,127.0,127.0,126.0,132.0,114.0,126.0,26.0,-121.0,-67.0,127.0,127.0,127.0,123.0,87.0,-82.0
126.0,127.0,127.0,127.0,126.0,132.0,114.0,126.0,25.0,-120.0,-67.0,127.0,127.0,127.0,123.0,87.0,-82.0
126.0,127.0,127.0,127.0,126.0,132.0,114.0,126.0,25.0,-120.0,-67.0,127.0,127.0,127.0,123.0,87.0,-82.0
126.0,127.0,127.0,127.0,126.0,132.0,114.0,126.0,25.0,-120.0,-67.0,127.0,127.0,127.0,123.0,87.0,-82.0
126.0,127.0,127.0,127.0,126.0,132.0,114.0,126.0,25.0,-120.0,-67.0,127.0,127.0,127.0,123.0,87.0,-82.0
126.0,127.0,127.0,126.0,126.0,132.0,113.0,126.0,25.0,-120.0,-67.0,127.0,127.0,127.0,123.0,87.0,-82.0
126.0,127.0,127.0,126.0,126.0,131.0,113.0,126.0,25.0,-120.0,-67.0,127.0,127.0,127.0,123.0,87.0,-82.0
126.0,127.0,127.0,126.0,126.0,131.0,113.0,126.0,25.0,-120.0,-67.0,127.0,127.0,127.0,123.0,87.0,-82.0
126.0,127.0,127.0,126.0,126.0,131.0,113.0,126.0,25.0,-120.0,-67.0,127.0,127.0,127.0,123.0,87.0,-82.0
126.0,127.0,127.0,126.0,126.0,131.0,113.0,126.0,25.0,-120.0,-67.0,127.0,127.0,127.0,123.0,87.0,-82.0
126.0,127.0,127.0,127.0,126.0,132.0,114.0,126.0,25.0,-120.0,-67.0,127.0,127.0,127.0,123.0,87.0,-82.0
126.0,127.0,127.0,127.0,127.0,132.0,115.0,127.0,25.0,-120.0,-67.0,127.0,127.0,127.0,123.0,87.0,-82.0
126.0,127.0,127.0,127.0,127.0,132.0,114.0,127.0,25.0,-120.0,-67.0,127.0,127.0,127.0,123.0,87.0,-82.0
126.0,127.0,127.0,127.0,127.0,132.0,114.0,127.0,25.0,-120.0,-67.0,127.0,127.0,127.0,123.0,87.0,-82.0
126.0,127.0,127.0,127.0,127.0,132.0,115.0,127.0,25.0,-120.0,-67.0,127.0,127.0,127.0,123.0,87.0,-82.0
126.0,127.0,127.0,127.0,127.0,132.0,115.0,127.0,25.0,-120.0,-67.0,127.0,127.0,127.0,123.0,87.0,-82.0
126.0,127.0,127.0,127.0,127.0,132.0,115.0,127.0,25.0,-120.0,-67.0,127.0,127.0,127.0,123.0,87.0,-82.0
126.0,127.0,127.0,127.0,127.0,132.0,114.0,127.0,25.0,-120.0,-67.0,127.0,127.0,127.0,123.0,87.0,-82.0
126.0,127.0,127.0,127.0,127.0,132.0,114.0,127.0,25.0,-120.0,-67.0,127.0,127.0,127.0,123.0,87.0,-82.0
126.0,127.0,127.0,127.0,127.0,132.0,114.0,127.0,25.0,-120.0,-67.0,127.0,127.0,127.0,123.0,87.0,-82.0
126.0,127.0,127.0,127.0,127.0,132.0,114.0,127.0,25.0,-120.0,-67.0,127.0,127.0,127.0,123.0,87.0,-82.0
126.0,127.0,127.0,126.0,126.0,131.0,112.0,127.0,25.0,-120.0,-68.0,127.0,127.0,127.0,123.0,87.0,-82.0
126.0,127.0,127.0,126.0,126.0,131.0,112.0,127.0,25.0,-120.0,-68.0,127.0,127.0,127.0,123.0,87.0,-82.0
126.0,127.0,128.0,126.0,126.0,131.0,112.0,127.0,25.0,-120.0,-68.0,127.0,127.0,127.0,123.0,87.0,-82.0
126.0,127.0,127.0,126.0,126.0,131.0,112.0,127.0,25.0,-120.0,-68.0,127.0,127.0,127.0,123.0,87.0,-82.0
126.0,127.0,128.0,126.0,126.0,131.0,112.0,127.0,25.0,-120.0,-68.0,127.0,127.0,127.0,123.0,87.0,-82.0
126.0,127.0,127.0,126.0,126.0,131.0,112.0,127.0,25.0,-120.0,-68.0,127.0,127.0,127.0,123.0,87.0,-82.0
126.0,127.0,127.0,126.0,126.0,131.0,112.0,127.0,25.0,-120.0,-68.0,127.0,127.0,127.0,123.0,87.0,-82.0
126.0,127.0,127.0,126.0,126.0,131.0,111.0,127.0,25.0,-120.0,-68.0,127.0,127.0,127.0,123.0,87.0,-82.0
126.0,127.0,127.0,126.0,126.0,131.0,112.0,127.0,25.0,-120.0,-68.0,127.0,127.0,127.0,123.0,87.0,-82.0
126.0,127.0,127.0,126.0,126.0,130.0,112.0,127.0,25.0,-120.0,-68.0,127.0,127.0,127.0,123.0,87.0,-82.0
127.0,127.0,127.0,127.0,127.0,131.0,113.0,127.0,25.0,-120.0,-68.0,127.0,127.0,127.0,123.0,87.0,-82.0
127.0,127.0,126.0,127.0,127.0,131.0,112.0,127.0,25.0,-120.0,-68.0,127.0,127.0,127.0,123.0,87.0,-82.0
127.0,127.0,126.0,127.0,127.0,131.0,112.0,127.0,25.0,-120.0,-68.0,127.0,127.0,127.0,123.0,87.0,-82.0
127.0,127.0,126.0,127.0,127.0,131.0,112.0,127.0,25.0,-120.0,-68.0,127.0,127.0,127.0,123.0,87.0,-82.0
127.0,127.0,127.0,127.0,127.0,131.0,114.0,127.0,25.0,-120.0,-68.0,127.0,127.0,127.0,123.0,87.0,-82.0
127.0,127.0,127.0,127.0,127.0,131.0,114.0,127.0,25.0,-120.0,-68.0,127.0,127.0,127.0,123.0,87.0,-82.0
127.0,127.0,127.0,127.0,127.0,131.0,113.0,127.0,25.0,-120.0,-68.0,127.0,127.0,127.0,123.0,87.0,-82.0
127.0,127.0,127.0,127.0,127.0,131.0,114.0,127.0,25.0,-120.0,-68.0,127.0,127.0,127.0,123.0,87.0,-82.0
127.0,127.0,127.0,127.0,127.0,131.0,114.0,127.0,25.0,-120.0,-68.0,127.0,127.0,127.0,123.0,87.0,-82.0
127.0,127.0,127.0,127.0,127.0,131.0,114.0,127.0,25.0,-120.0,-68.0,127.0,127.0,127.0,123.0,87.0,-82.0
127.0,127.0,127.0,127.0,127.0,131.0,112.0,127.0,25.0,-120.0,-68.0,127.0,127.0,127.0,123.0,87.0,-82.0
127.0,127.0,127.0,127.0,127.0,131.0,112.0,127.0,25.0,-120.0,-68.0,127.0,127.0,127.0,123.0,87.0,-82.0
127.0,127.0,127.0,127.0,127.0,131.0,113.0,127.0,25.0,-120.0,-68.0,127.0,127.0,127.0,123.0,87.0,-82.0
127.0,127.0,127.0,127.0,127.0,131.0,113.0,127.0,25.0,-120.0,-68.0,127.0,127.0,127.0,123.0,87.0,-82.0
127.0,127.0,127.0,127.0,127.0,131.0,113.0,128.0,25.0,-120.0,-68.0,127.0,127.0,127.0,123.0,87.0,-82.0
127.0,127.0,127.0,127.0,127.0,131.0,113.0,128.0,25.0,-120.0,-68.0,127.0,127.0,127.0,123.0,87.0,-82.0
127.0,127.0,127.0,127.0,127.0,131.0,112.0,128.0,25.0,-120.0,-68.0,127.0,127.0,127.0,123.0,87.0,-82.0
127.0,127.0,127.0,127.0,127.0,131.0,112.0,128.0,25.0,-120.0,-68.0,127.0,127.0,127.0,123.0,87.0,-82.0
127.0,127.0,127.0,127.0,127.0,131.0,112.0,127.0,25.0,-120.0,-68.0,127.0,127.0,127.0,123.0,87.0,-82.0
127.0,127.0,127.0,127.0,127.0,131.0,112.0,127.0,25.0,-120.0,-68.0,127.0,127.0,127.0,123.0,87.0,-82.0
127.0,127.0,127.0,127.0,127.0,130.0,112.0,128.0,25.0,-120.0,-68.0,127.0,127.0,127.0,123.0,87.0,-82.0
127.0,127.0,127.0,127.0,127.0,130.0,111.0,128.0,25.0,-120.0,-68.0,127.0,127.0,127.0,123.0,87.0,-82.0
127.0,127.0,127.0,127.0,127.0,131.0,112.0,128.0,25.0,-120.0,-68.0,127.0,127.0,127.0,123.0,87.0,-82.0
127.0,127.0,127.0,127.0,127.0,131.0,112.0,128.0,25.0,-120.0,-68.0,127.0,127.0,127.0,123.0,87.0,-82.0
127.0,127.0,127.0,127.0,127.0,131.0,112.0,128.0,25.0,-120.0,-68.0,127.0,127.0,127.0,123.0,87.0,-82.0
127.0,127.0,127.0,127.0,127.0,131.0,112.0,128.0,25.0,-120.0,-68.0,127.0,127.0,127.0,123.0,87.0,-82.0
127.0,127.0,127.0,127.0,127.0,131.0,112.0,128.0,25.0,-120.0,-68.0,127.0,127.0,127.0,123.0,87.0,-82.0
127.0,127.0,127.0,127.0,127.0,131.0,112.0,128.0,25.0,-120.0,-68.0,127.0,127.0,127.0,123.0,87.0,-82.0
127.0,127.0,127.0,127.0,127.0,130.0,112.0,128.0,25.0,-120.0,-68.0,127.0,127.0,127.0,123.0,87.0,-82.0
127.0,127.0,127.0,127.0,127.0,130.0,112.0,128.0,25.0,-120.0,-68.0,127.0,127.0,127.0,123.0,87.0,-82.0
127.0,126.0,127.0,127.0,127.0,130.0,112.0,128.0,25.0,-120.0,-68.0,127.0,127.0,127.0,123.0,87.0,-82.0
127.0,127.0,127.0,127.0,128.0,131.0,112.0,128.0,25.0,-120.0,-68.0,127.0,127.0,127.0,123.0,87.0,-82.0
127.0,127.0,127.0,127.0,128.0,131.0,112.0,128.0,25.0,-120.0,-68.0,127.0,127.0,127.0,123.0,87.0,-82.0
127.0,127.0,127.0,127.0,128.0,131.0,112.0,128.0,25.0,-120.0,-68.0,127.0,127.0,127.0,123.0,87.0,-82.0
127.0,127.0,127.0,127.0,127.0,130.0,111.0,128.0,25.0,-120.0,-68.0,127.0,127.0,127.0,123.0,87.0,-82.0
127.0,127.0,127.0,127.0,127.0,130.0,111.0,128.0,25.0,-120.0,-68.0,127.0,127.0,127.0,123.0,87.0,-82.0
127.0,126.0,127.0,127.0,127.0,130.0,112.0,128.0,25.0,-120.0,-68.0,127.0,127.0,127.0,123.0,87.0,-82.0
127.0,126.0,127.0,127.0,127.0,130.0,112.0,128.0,25.0,-120.0,-68.0,127.0,127.0,127.0,123.0,87.0,-82.0
127.0,126.0,127.0,127.0,128.0,130.0,111.0,128.0,25.0,-120.0,-68.0,127.0,127.0,127.0,123.0,87.0,-82.0
127.0,126.0,127.0,127.0,127.0,130.0,112.0,128.0,25.0,-120.0,-68.0,127.0,127.0,127.0,123.0,87.0,-82.0
126.0,127.0,127.0,127.0,127.0,131.0,112.0,128.0,26.0,-120.0,-68.0,127.0,127.0,127.0,123.0,87.0,-82.0
126.0,127.0,127.0,127.0,127.0,131.0,112.0,128.0,26.0,-120.0,-68.0,127.0,127.0,127.0,123.0,87.0,-82.0
126.0,127.0,127.0,127.0,127.0,131.0,112.0,128.0,26.0,-120.0,-68.0,127.0,127.0,127.0,123.0,87.0,-82.0
126.0,127.0,127.0,127.0,127.0,131.0,112.0,128.0,26.0,-120.0,-68.0,127.0,127.0,127.0,123.0,87.0,-82.0
126.0,127.0,127.0,127.0,127.0,131.0,112.0,128.0,26.0,-120.0,-68.0,127.0,127.0,127.0,123.0,87.0,-82.0
126.0,127.0,127.0,127.0,127.0,131.0,112.0,128.0,26.0,-120.0,-68.0,127.0,127.0,127.0,123.0,87.0,-82.0
126.0,127.0,127.0,127.0,127.0,130.0,111.0,128.0,26.0,-120.0,-68.0,127.0,127.0,127.0,123.0,87.0,-82.0
127.0,127.0,127.0,127.0,127.0,130.0,112.0,128.0,26.0,-120.0,-68.0,127.0,127.0,127.0,123.0,87.0,-82.0
127.0,127.0,127.0,127.0,127.0,130.0,112.0,128.0,26.0,-120.0,-68.0,127.0,127.0,127.0,123.0,87.0,-82.0
127.0,127.0,127.0,127.0,127.0,130.0,112.0,128.0,26.0,-120.0,-68.0,127.0,127.0,127.0,123.0,87.0,-82.0
127.0,127.0,127.0,127.0,127.0,131.0,112.0,128.0,26.0,-120.0,-68.0,127.0,127.0,127.0,123.0,87.0,-82.0
127.0,127.0,127.0,127.0,127.0,131.0,112.0,128.0,26.0,-120.0,-68.0,127.0,127.0,127.0,123.0,87.0,-82.0
127.0,127.0,127.0,127.0,127.0,131.0,112.0,128.0,26.0,-120.0,-68.0,127.0,127.0,127.0,123.0,87.0,-82.0
127.0,127.0,127.0,127.0,127.0,131.0,112.0,128.0,26.0,-120.0,-68.0,127.0,127.0,127.0,123.0,87.0,-82.0
127.0,127.0,127.0,127.0,127.0,131.0,112.0,128.0,26.0,-120.0,-68.0,127.0,127.0,127.0,123.0,87.0,-82.0
127.0,127.0,127.0,127.0,127.0,130.0,112.0,128.0,26.0,-120.0,-68.0,127.0,127.0,127.0,123.0,87.0,-82.0
127.0,127.0,127.0,127.0,127.0,130.0,112.0,128.0,26.0,-120.0,-68.0,127.0,127.0,127.0,123.0,87.0,-82.0
127.0,126.0,127.0,127.0,127.0,130.0,111.0,128.0,26.0,-120.0,-68.0,127.0,127.0,127.0,123.0,87.0,-82.0
127.0,126.0,127.0,127.0,127.0,130.0,111.0,128.0,26.0,-120.0,-68.0,127.0,127.0,127.0,123.0,87.0,-82.0
127.0,127.0,127.0,127.0,127.0,130.0,111.0,128.0,26.0,-120.0,-68.0,127.0,127.0,127.0,123.0,87.0,-82.0
127.0,127.0,127.0,127.0,127.0,130.0,112.0,128.0,27.0,-120.0,-68.0,127.0,127.0,127.0,123.0,87.0,-82.0
127.0,127.0,127.0,127.0,127.0,130.0,112.0,128.0,27.0,-120.0,-68.0,127.0,127.0,127.0,123.0,87.0,-82.0
127.0,127.0,127.0,127.0,127.0,130.0,111.0,128.0,27.0,-120.0,-68.0,127.0,127.0,127.0,123.0,87.0,-82.0
127.0,127.0,127.0,127.0,127.0,130.0,111.0,128.0,27.0,-120.0,-68.0,127.0,127.0,127.0,123.0,87.0,-82.0
127.0,127.0,127.0,127.0,127.0,130.0,111.0,128.0,27.0,-120.0,-68.0,127.0,127.0,127.0,123.0,87.0,-82.0
127.0,127.0,127.0,127.0,127.0,130.0,110.0,128.0,27.0,-120.0,-68.0,127.0,127.0,127.0,123.0,87.0,-82.0
127.0,127.0,127.0,127.0,127.0,130.0,111.0,128.0,27.0,-120.0,-68.0,127.0,127.0,127.0,123.0,87.0,-82.0
127.0,127.0,127.0,127.0,127.0,130.0,111.0,128.0,27.0,-120.0,-68.0,127.0,127.0,127.0,123.0,87.0,-82.0
127.0,127.0,126.0,127.0,127.0,130.0,111.0,128.0,27.0,-120.0,-68.0,127.0,127.0,127.0,123.0,87.0,-82.0
127.0,127.0,127.0,127.0,127.0,130.0,112.0,128.0,27.0,-120.0,-68.0,127.0,127.0,127.0,123.0,87.0,-82.0
127.0,126.0,127.0,127.0,127.0,129.0,109.0,127.0,27.0,-120.0,-68.0,127.0,127.0,127.0,123.0,87.0,-82.0
127.0,126.0,127.0,127.0,127.0,129.0,109.0,127.0,27.0,-120.0,-68.0,127.0,127.0,127.0,123.0,87.0,-82.0
127.0,126.0,127.0,127.0,127.0,129.0,109.0,127.0,27.0,-120.0,-68.0,127.0,127.0,127.0,123.0,87.0,-82.0
127.0,126.0,127.0,127.0,127.0,129.0,109.0,127.0,27.0,-120.0,-68.0,127.0,127.0,127.0,123.0,87.0,-82.0
127.0,126.0,127.0,127.0,127.0,129.0,109.0,127.0,27.0,-120.0,-68.0,127.0,127.0,127.0,123.0,87.0,-82.0
127.0,126.0,127.0,127.0,127.0,129.0,109.0,127.0,27.0,-120.0,-68.0,127.0,127.0,127.0,123.0,87.0,-82.0
127.0,126.0,127.0,127.0,127.0,129.0,109.0,127.0,27.0,-120.0,-68.0,127.0,127.0,127.0,123.0,87.0,-82.0
127.0,126.0,127.0,127.0,127.0,129.0,109.0,127.0,27.0,-120.0,-68.0,127.0,127.0,127.0,123.0,87.0,-82.0
127.0,126.0,127.0,127.0,127.0,129.0,109.0,127.0,27.0,-120.0,-68.0,127.0,127.0,127.0,123.0,87.0,-82.0
127.0,126.0,127.0,127.0,127.0,129.0,109.0,127.0,27.0,-120.0,-68.0,127.0,127.0,127.0,123.0,87.0,-82.0
127.0,127.0,127.0,127.0,127.0,130.0,111.0,128.0,27.0,-120.0,-68.0,127.0,127.0,127.0,123.0,87.0,-82.0
127.0,127.0,127.0,127.0,127.0,130.0,111.0,128.0,27.0,-120.0,-68.0,127.0,127.0,127.0,123.0,87.0,-82.0
127.0,127.0,127.0,127.0,127.0,130.0,110.0,128.0,27.0,-120.0,-68.0,127.0,127.0,127.0,123.0,87.0,-82.0
127.0,127.0,126.0,127.0,127.0,130.0,111.0,128.0,27.0,-120.0,-68.0,127.0,127.0,127.0,123.0,87.0,-82.0
127.0,127.0,126.0,127.0,127.0,130.0,111.0,128.0,27.0,-120.0,-68.0,127.0,127.0,127.0,123.0,87.0,-82.0
127.0,127.0,126.0,127.0,127.0,130.0,111.0,128.0,27.0,-120.0,-68.0,127.0,127.0,127.0,123.0,87.0,-82.0
127.0,127.0,126.0,127.0,127.0,130.0,111.0,128.0,27.0,-120.0,-68.0,127.0,127.0,127.0,123.0,87.0,-82.0
127.0,127.0,126.0,127.0,127.0,130.0,110.0,128.0,27.0,-120.0,-68.0,127.0,127.0,127.0,123.0,87.0,-82.0
127.0,127.0,126.0,127.0,127.0,130.0,111.0,128.0,27.0,-120.0,-68.0,127.0,127.0,127.0,123.0,87.0,-82.0
127.0,127.0,127.0,127.0,127.0,130.0,111.0,128.0,27.0,-120.0,-68.0,127.0,127.0,127.0,123.0,87.0,-82.0
127.0,127.0,127.0,127.0,127.0,129.0,110.0,127.0,28.0,-120.0,-67.0,127.0,127.0,127.0,123.0,87.0,-82.0
127.0,127.0,127.0,127.0,127.0,129.0,110.0,127.0,28.0,-120.0,-67.0,127.0,127.0,127.0,123.0,87.0,-82.0
127.0,127.0,127.0,127.0,127.0,129.0,110.0,127.0,28.0,-120.0,-67.0,127.0,127.0,127.0,123.0,87.0,-82.0
127.0,127.0,127.0,127.0,127.0,130.0,111.0,127.0,28.0,-120.0,-67.0,127.0,127.0,127.0,123.0,87.0,-82.0
127.0,127.0,127.0,127.0,127.0,130.0,110.0,127.0,28.0,-120.0,-67.0,127.0,127.0,127.0,123.0,87.0,-82.0
127.0,127.0,127.0,127.0,127.0,130.0,111.0,127.0,28.0,-120.0,-67.0,127.0,127.0,127.0,123.0,87.0,-82.0
127.0,127.0,127.0,127.0,127.0,130.0,110.0,127.0,28.0,-120.0,-67.0,127.0,127.0,127.0,123.0,87.0,-82.0
127.0,127.0,127.0,127.0,127.0,130.0,110.0,127.0,28.0,-120.0,-67.0,127.0,127.0,127.0,123.0,87.0,-82.0
127.0,127.0,127.0,127.0,127.0,130.0,110.0,127.0,28.0,-120.0,-67.0,127.0,127.0,127.0,123.0,87.0,-82.0
127.0,127.0,127.0,127.0,127.0,130.0,110.0,127.0,28.0,-120.0,-67.0,127.0,127.0,127.0,123.0,87.0,-82.0
127.0,127.0,127.0,127.0,127.0,130.0,110.0,127.0,28.0,-120.0,-67.0,127.0,127.0,127.0,123.0,87.0,-82.0
127.0,127.0,127.0,127.0,127.0,129.0,109.0,127.0,28.0,-120.0,-67.0,127.0,127.0,127.0,123.0,87.0,-82.0
127.0,127.0,127.0,127.0,127.0,130.0,110.0,127.0,28.0,-120.0,-67.0,127.0,127.0,127.0,123.0,87.0,-82.0
127.0,127.0,127.0,127.0,127.0,130.0,110.0,127.0,28.0,-120.0,-67.0,127.0,127.0,127.0,123.0,87.0,-82.0
127.0,127.0,127.0,127.0,127.0,130.0,110.0,127.0,28.0,-120.0,-67.0,127.0,127.0,127.0,123.0,87.0,-82.0
127.0,128.0,127.0,127.0,127.0,130.0,111.0,127.0,28.0,-120.0,-67.0,127.0,127.0,127.0,123.0,87.0,-82.0
127.0,128.0,127.0,127.0,127.0,130.0,111.0,127.0,28.0,-120.0,-67.0,127.0,127.0,127.0,123.0,87.0,-82.0
127.0,128.0,127.0,127.0,127.0,130.0,111.0,127.0,28.0,-120.0,-67.0,127.0,127.0,127.0,123.0,87.0,-82.0
127.0,127.0,127.0,127.0,127.0,130.0,111.0,127.0,28.0,-120.0,-67.0,127.0,127.0,127.0,123.0,87.0,-82.0
127.0,127.0,127.0,127.0,127.0,130.0,110.0,127.0,28.0,-120.0,-67.0,127.0,127.0,127.0,123.0,87.0,-82.0
127.0,127.0,127.0,127.0,127.0,129.0,110.0,127.0,27.0,-120.0,-67.0,127.0,127.0,127.0,123.0,87.0,-82.0
127.0,127.0,127.0,127.0,127.0,129.0,110.0,127.0,27.0,-120.0,-67.0,127.0,127.0,127.0,123.0,87.0,-82.0
127.0,127.0,127.0,127.0,127.0,129.0,109.0,127.0,27.0,-120.0,-67.0,127.0,127.0,127.0,123.0,87.0,-82.0
127.0,127.0,127.0,127.0,127.0,129.0,110.0,127.0,27.0,-120.0,-67.0,127.0,127.0,127.0,123.0,87.0,-82.0
127.0,127.0,127.0,127.0,127.0,129.0,110.0,127.0,27.0,-120.0,-67.0,127.0,127.0,127.0,123.0,87.0,-82.0
127.0,127.0,127.0,127.0,127.0,130.0,110.0,127.0,27.0,-120.0,-67.0,127.0,127.0,127.0,123.0,87.0,-82.0
127.0,127.0,127.0,127.0,127.0,130.0,110.0,127.0,27.0,-120.0,-67.0,127.0,127.0,127.0,123.0,87.0,-82.0
127.0,127.0,127.0,127.0,127.0,130.0,110.0,127.0,27.0,-120.0,-67.0,127.0,127.0,127.0,123.0,87.0,-82.0
126.0,127.0,127.0,127.0,127.0,130.0,110.0,127.0,27.0,-120.0,-67.0,127.0,127.0,127.0,123.0,87.0,-82.0
126.0,127.0,127.0,127.0,127.0,130.0,110.0,127.0,27.0,-120.0,-67.0,127.0,127.0,127.0,123.0,87.0,-82.0
127.0,127.0,127.0,127.0,126.0,130.0,110.0,127.0,27.0,-120.0,-67.0,127.0,127.0,127.0,123.0,87.0,-82.0
127.0,127.0,127.0,127.0,126.0,129.0,110.0,127.0,27.0,-120.0,-67.0,127.0,127.0,127.0,123.0,87.0,-82.0
127.0,127.0,127.0,127.0,126.0,129.0,110.0,127.0,27.0,-120.0,-67.0,127.0,127.0,127.0,123.0,87.0,-82.0
127.0,127.0,127.0,127.0,126.0,130.0,110.0,127.0,27.0,-120.0,-67.0,127.0,127.0,127.0,123.0,87.0,-82.0
127.0,127.0,127.0,127.0,127.0,130.0,111.0,127.0,27.0,-120.0,-67.0,127.0,127.0,127.0,123.0,87.0,-82.0
127.0,127.0,127.0,127.0,127.0,130.0,111.0,127.0,27.0,-120.0,-67.0,127.0,127.0,127.0,123.0,87.0,-82.0
127.0,127.0,127.0,127.0,127.0,130.0,111.0,127.0,27.0,-120.0,-67.0,127.0,127.0,127.0,123.0,87.0,-82.0
126.0,127.0,127.0,127.0,127.0,130.0,111.0,127.0,27.0,-120.0,-67.0,127.0,127.0,127.0,123.0,87.0,-82.0
127.0,127.0,127.0,127.0,127.0,130.0,111.0,127.0,27.0,-120.0,-67.0,127.0,127.0,127.0,123.0,87.0,-82.0
127.0,127.0,127.0,127.0,126.0,129.0,110.0,127.0,27.0,-120.0,-67.0,127.0,127.0,127.0,123.0,87.0,-82.0
127.0,127.0,127.0,127.0,127.0,129.0,110.0,127.0,26.0,-120.0,-67.0,127.0,127.0,127.0,123.0,87.0,-82.0
127.0,127.0,127.0,127.0,127.0,129.0,110.0,127.0,26.0,-120.0,-67.0,127.0,127.0,127.0,123.0,87.0,-82.0
127.0,127.0,127.0,127.0,126.0,129.0,110.0,127.0,26.0,-120.0,-67.0,127.0,127.0,127.0,123.0,87.0,-82.0
127.0,127.0,127.0,127.0,126.0,129.0,110.0,126.0,26.0,-120.0,-67.0,127.0,127.0,127.0,123.0,87.0,-82.0
127.0,127.0,127.0,127.0,126.0,129.0,110.0,127.0,26.0,-120.0,-67.0,127.0,127.0,127.0,123.0,87.0,-82.0
127.0,127.0,127.0,127.0,126.0,129.0,109.0,126.0,26.0,-120.0,-67.0,127.0,127.0,127.0,123.0,87.0,-82.0
127.0,127.0,127.0,127.0,126.0,129.0,109.0,126.0,26.0,-120.0,-67.0,127.0,127.0,127.0,123.0,87.0,-82.0
127.0,127.0,127.0,127.0,126.0,129.0,109.0,126.0,26.0,-120.0,-67.0,127.0,127.0,127.0,123.0,87.0,-82.0
127.0,127.0,127.0,127.0,127.0,130.0,110.0,127.0,26.0,-120.0,-67.0,127.0,127.0,127.0,123.0,87.0,-82.0
127.0,127.0,127.0,127.0,127.0,129.0,110.0,127.0,26.0,-120.0,-67.0,127.0,127.0,127.0,123.0,87.0,-82.0
127.0,127.0,127.0,127.0,126.0,129.0,110.0,126.0,25.0,-119.0,-68.0,127.0,127.0,127.0,123.0,87.0,-82.0
127.0,127.0,127.0,127.0,126.0,129.0,109.0,126.0,25.0,-119.0,-68.0,127.0,127.0,127.0,123.0,87.0,-82.0
127.0,127.0,127.0,127.0,126.0,129.0,109.0,126.0,25.0,-119.0,-68.0,127.0,127.0,127.0,123.0,87.0,-82.0
126.0,127.0,127.0,127.0,126.0,129.0,110.0,126.0,25.0,-119.0,-68.0,127.0,127.0,127.0,123.0,87.0,-82.0
126.0,127.0,127.0,127.0,126.0,129.0,110.0,126.0,25.0,-119.0,-68.0,127.0,127.0,127.0,123.0,87.0,-82.0
126.0,128.0,127.0,127.0,126.0,130.0,110.0,126.0,25.0,-119.0,-68.0,127.0,127.0,127.0,123.0,87.0,-82.0
126.0,128.0,127.0,127.0,126.0,130.0,111.0,126.0,25.0,-119.0,-68.0,127.0,127.0,127.0,123.0,87.0,-82.0
127.0,128.0,127.0,127.0,126.0,129.0,110.0,126.0,25.0,-119.0,-68.0,127.0,127.0,127.0,123.0,87.0,-82.0
127.0,127.0,127.0,127.0,126.0,129.0,110.0,126.0,25.0,-119.0,-68.0,127.0,127.0,127.0,123.0,87.0,-82.0
127.0,127.0,127.0,127.0,126.0,129.0,110.0,126.0,25.0,-119.0,-68.0,127.0,127.0,127.0,123.0,87.0,-82.0
126.0,127.0,127.0,127.0,126.0,129.0,109.0,126.0,25.0,-119.0,-68.0,127.0,127.0,127.0,123.0,87.0,-82.0
126.0,127.0,127.0,127.0,126.0,129.0,109.0,126.0,25.0,-119.0,-68.0,127.0,127.0,127.0,123.0,87.0,-82.0
126.0,127.0,127.0,127.0,126.0,129.0,108.0,126.0,25.0,-119.0,-68.0,127.0,127.0,127.0,123.0,87.0,-82.0
126.0,127.0,127.0,127.0,126.0,129.0,109.0,126.0,25.0,-119.0,-68.0,127.0,127.0,127.0,123.0,87.0,-82.0
126.0,127.0,127.0,127.0,127.0,129.0,109.0,126.0,25.0,-119.0,-68.0,127.0,127.0,127.0,123.0,87.0,-82.0
126.0,127.0,127.0,127.0,127.0,129.0,109.0,126.0,25.0,-119.0,-68.0,127.0,127.0,127.0,123.0,87.0,-82.0
126.0,127.0,127.0,127.0,126.0,128.0,109.0,126.0,25.0,-119.0,-68.0,127.0,127.0,127.0,123.0,87.0,-82.0
126.0,127.0,127.0,127.0,126.0,128.0,109.0,126.0,25.0,-119.0,-68.0,127.0,127.0,127.0,123.0,87.0,-82.0
126.0,127.0,127.0,127.0,126.0,129.0,109.0,126.0,25.0,-119.0,-68.0,127.0,127.0,127.0,123.0,87.0,-82.0
126.0,127.0,127.0,127.0,126.0,129.0,109.0,126.0,25.0,-119.0,-68.0,127.0,127.0,127.0,123.0,87.0,-82.0
126.0,127.0,127.0,126.0,126.0,129.0,109.0,127.0,24.0,-119.0,-69.0,127.0,127.0,127.0,123.0,87.0,-82.0
126.0,127.0,127.0,126.0,126.0,129.0,109.0,127.0,24.0,-119.0,-69.0,127.0,127.0,127.0,123.0,87.0,-82.0
126.0,127.0,127.0,126.0,126.0,129.0,109.0,127.0,24.0,-119.0,-69.0,127.0,127.0,127.0,123.0,87.0,-82.0
126.0,127.0,127.0,126.0,126.0,129.0,109.0,127.0,24.0,-119.0,-69.0,127.0,127.0,127.0,123.0,87.0,-82.0
126.0,127.0,128.0,126.0,127.0,129.0,110.0,127.0,24.0,-119.0,-69.0,127.0,127.0,127.0,123.0,87.0,-82.0
126.0,127.0,127.0,126.0,126.0,129.0,108.0,126.0,24.0,-119.0,-69.0,127.0,127.0,127.0,123.0,87.0,-82.0
126.0,127.0,127.0,126.0,126.0,129.0,109.0,126.0,24.0,-119.0,-69.0,127.0,127.0,127.0,123.0,87.0,-82.0
126.0,127.0,127.0,126.0,126.0,129.0,109.0,127.0,24.0,-119.0,-69.0,127.0,127.0,127.0,123.0,87.0,-82.0
126.0,127.0,127.0,126.0,126.0,129.0,109.0,127.0,24.0,-119.0,-69.0,127.0,127.0,127.0,123.0,87.0,-82.0
126.0,127.0,127.0,126.0,126.0,129.0,109.0,127.0,24.0,-119.0,-69.0,127.0,127.0,127.0,123.0,87.0,-82.0
126.0,127.0,127.0,127.0,127.0,129.0,109.0,127.0,24.0,-119.0,-69.0,127.0,127.0,127.0,123.0,87.0,-82.0
126.0,127.0,127.0,127.0,127.0,129.0,109.0,127.0,24.0,-119.0,-69.0,127.0,127.0,127.0,123.0,87.0,-82.0
126.0,127.0,127.0,127.0,127.0,129.0,109.0,127.0,24.0,-119.0,-69.0,127.0,127.0,127.0,123.0,87.0,-82.0
126.0,127.0,127.0,127.0,127.0,129.0,110.0,127.0,24.0,-119.0,-69.0,127.0,127.0,127.0,123.0,87.0,-82.0
126.0,127.0,127.0,127.0,127.0,128.0,108.0,127.0,24.0,-119.0,-69.0,127.0,127.0,127.0,123.0,87.0,-82.0
126.0,127.0,127.0,127.0,127.0,129.0,108.0,127.0,24.0,-119.0,-69.0,127.0,127.0,127.0,123.0,87.0,-82.0
126.0,127.0,127.0,127.0,127.0,129.0,109.0,127.0,24.0,-119.0,-69.0,127.0,127.0,127.0,123.0,87.0,-82.0
126.0,127.0,127.0,127.0,127.0,129.0,109.0,127.0,24.0,-119.0,-69.0,127.0,127.0,127.0,123.0,87.0,-82.0
126.0,127.0,127.0,127.0,127.0,129.0,109.0,127.0,24.0,-119.0,-69.0,127.0,127.0,127.0,123.0,87.0,-82.0
126.0,127.0,127.0,127.0,127.0,129.0,109.0,127.0,24.0,-119.0,-69.0,127.0,127.0,127.0,123.0,87.0,-82.0
127.0,127.0,127.0,126.0,126.0,129.0,109.0,127.0,24.0,-118.0,-69.0,127.0,127.0,127.0,123.0,87.0,-82.0
126.0,127.0,127.0,126.0,126.0,129.0,109.0,127.0,24.0,-118.0,-69.0,127.0,127.0,127.0,123.0,87.0,-82.0
126.0,127.0,127.0,126.0,127.0,129.0,110.0,127.0,24.0,-118.0,-69.0,127.0,127.0,127.0,123.0,87.0,-82.0
127.0,127.0,127.0,126.0,126.0,129.0,108.0,127.0,24.0,-118.0,-69.0,127.0,127.0,127.0,123.0,87.0,-82.0
127.0,127.0,127.0,126.0,126.0,129.0,108.0,127.0,24.0,-118.0,-69.0,127.0,127.0,127.0,123.0,87.0,-82.0
126.0,127.0,127.0,126.0,126.0,129.0,109.0,127.0,24.0,-118.0,-69.0,127.0,127.0,127.0,123.0,87.0,-82.0
126.0,127.0,127.0,126.0,127.0,129.0,109.0,127.0,24.0,-118.0,-69.0,127.0,127.0,127.0,123.0,87.0,-82.0
126.0,127.0,127.0,126.0,126.0,129.0,109.0,127.0,24.0,-118.0,-69.0,127.0,127.0,127.0,123.0,87.0,-82.0
126.0,127.0,127.0,126.0,126.0,129.0,109.0,127.0,24.0,-118.0,-69.0,127.0,127.0,127.0,123.0,87.0,-82.0
126.0,127.0,127.0,126.0,126.0,129.0,109.0,127.0,24.0,-118.0,-69.0,127.0,127.0,127.0,123.0,87.0,-82.0
127.0,127.0,127.0,127.0,127.0,129.0,109.0,127.0,24.0,-118.0,-69.0,127.0,127.0,127.0,123.0,87.0,-82.0
127.0,127.0,127.0,127.0,127.0,129.0,109.0,127.0,24.0,-118.0,-69.0,127.0,127.0,127.0,123.0,87.0,-82.0
127.0,127.0,127.0,126.0,127.0,128.0,108.0,127.0,24.0,-118.0,-69.0,127.0,127.0,127.0,123.0,87.0,-82.0
127.0,126.0,127.0,126.0,127.0,129.0,108.0,127.0,24.0,-118.0,-69.0,127.0,127.0,127.0,123.0,87.0,-82.0
127.0,127.0,127.0,126.0,127.0,129.0,108.0,127.0,24.0,-118.0,-69.0,127.0,127.0,127.0,123.0,87.0,-82.0
127.0,127.0,127.0,126.0,127.0,129.0,109.0,127.0,24.0,-118.0,-69.0,127.0,127.0,127.0,123.0,87.0,-82.0
127.0,127.0,127.0,126.0,127.0,129.0,109.0,127.0,24.0,-118.0,-69.0,127.0,127.0,127.0,123.0,87.0,-82.0
127.0,127.0,127.0,127.0,127.0,129.0,109.0,127.0,24.0,-118.0,-69.0,127.0,127.0,127.0,123.0,87.0,-82.0
127.0,127.0,127.0,127.0,127.0,129.0,109.0,127.0,24.0,-118.0,-69.0,127.0,127.0,127.0,123.0,87.0,-82.0
127.0,127.0,127.0,127.0,127.0,129.0,109.0,127.0,24.0,-118.0,-69.0,127.0,127.0,127.0,123.0,87.0,-82.0
127.0,127.0,127.0,126.0,127.0,129.0,109.0,127.0,24.0,-118.0,-70.0,127.0,127.0,127.0,123.0,87.0,-82.0
127.0,127.0,127.0,127.0,127.0,129.0,108.0,127.0,24.0,-118.0,-70.0,127.0,127.0,127.0,123.0,87.0,-82.0
127.0,127.0,127.0,126.0,127.0,129.0,109.0,127.0,24.0,-118.0,-70.0,127.0,127.0,127.0,123.0,87.0,-82.0
127.0,127.0,127.0,126.0,127.0,129.0,109.0,127.0,24.0,-118.0,-70.0,127.0,127.0,127.0,123.0,87.0,-82.0
127.0,127.0,127.0,126.0,127.0,129.0,109.0,127.0,24.0,-118.0,-70.0,127.0,127.0,127.0,123.0,87.0,-82.0
127.0,127.0,127.0,126.0,127.0,129.0,109.0,127.0,24.0,-118.0,-70.0,127.0,127.0,127.0,123.0,87.0,-82.0
127.0,127.0,127.0,126.0,127.0,129.0,109.0,127.0,24.0,-118.0,-70.0,127.0,127.0,127.0,123.0,87.0,-82.0
127.0,127.0,127.0,126.0,127.0,129.0,109.0,127.0,24.0,-118.0,-70.0,127.0,127.0,127.0,123.0,87.0,-82.0
127.0,127.0,127.0,126.0,127.0,129.0,109.0,127.0,24.0,-118.0,-70.0,127.0,127.0,127.0,123.0,87.0,-82.0
127.0,127.0,127.0,126.0,127.0,129.0,109.0,127.0,24.0,-118.0,-70.0,127.0,127.0,127.0,123.0,87.0,-82.0
127.0,126.0,127.0,127.0,126.0,129.0,108.0,128.0,24.0,-118.0,-70.0,127.0,127.0,127.0,123.0,87.0,-82.0
127.0,126.0,127.0,127.0,126.0,129.0,108.0,128.0,24.0,-118.0,-70.0,127.0,127.0,127.0,123.0,87.0,-82.0
127.0,126.0,127.0,127.0,126.0,129.0,109.0,128.0,24.0,-118.0,-70.0,127.0,127.0,127.0,123.0,87.0,-82.0
127.0,127.0,126.0,127.0,127.0,129.0,109.0,128.0,24.0,-118.0,-70.0,127.0,127.0,127.0,123.0,87.0,-82.0
127.0,127.0,127.0,127.0,127.0,129.0,109.0,128.0,24.0,-118.0,-70.0,127.0,127.0,127.0,123.0,87.0,-82.0
127.0,127.0,127.0,127.0,127.0,129.0,110.0,128.0,24.0,-118.0,-70.0,127.0,127.0,127.0,123.0,87.0,-82.0
127.0,127.0,127.0,127.0,127.0,129.0,109.0,128.0,24.0,-118.0,-70.0,127.0,127.0,127.0,123.0,87.0,-82.0
127.0,127.0,127.0,127.0,127.0,129.0,109.0,128.0,24.0,-118.0,-70.0,127.0,127.0,127.0,123.0,87.0,-82.0
127.0,127.0,127.0,127.0,127.0,129.0,109.0,128.0,24.0,-118.0,-70.0,127.0,127.0,127.0,123.0,87.0,-82.0
127.0,127.0,126.0,127.0,127.0,129.0,109.0,128.0,24.0,-118.0,-70.0,127.0,127.0,127.0,123.0,87.0,-82.0
126.0,127.0,127.0,127.0,127.0,129.0,109.0,128.0,25.0,-118.0,-70.0,127.0,127.0,127.0,123.0,87.0,-82.0
126.0,127.0,127.0,127.0,127.0,129.0,110.0,128.0,25.0,-118.0,-70.0,127.0,127.0,127.0,123.0,87.0,-82.0
126.0,127.0,127.0,127.0,127.0,129.0,110.0,128.0,25.0,-118.0,-70.0,127.0,127.0,127.0,123.0,87.0,-82.0
126.0,127.0,127.0,127.0,127.0,129.0,109.0,128.0,25.0,-118.0,-70.0,127.0,127.0,127.0,123.0,87.0,-82.0
126.0,127.0,127.0,127.0,127.0,129.0,110.0,128.0,25.0,-118.0,-70.0,127.0,127.0,127.0,123.0,87.0,-82.0
126.0,127.0,127.0,127.0,127.0,129.0,109.0,128.0,25.0,-118.0,-70.0,127.0,127.0,127.0,123.0,87.0,-82.0
126.0,127.0,127.0,127.0,127.0,129.0,109.0,128.0,25.0,-118.0,-70.0,127.0,127.0,127.0,123.0,87.0,-82.0
126.0,127.0,127.0,127.0,127.0,129.0,109.0,128.0,25.0,-118.0,-70.0,127.0,127.0,127.0,123.0,87.0,-82.0
126.0,126.0,127.0,127.0,127.0,129.0,109.0,128.0,25.0,-118.0,-70.0,127.0,127.0,127.0,123.0,87.0,-82.0
126.0,127.0,127.0,127.0,127.0,129.0,109.0,128.0,25.0,-118.0,-70.0,127.0,127.0,127.0,123.0,87.0,-82.0
126.0,126.0,127.0,127.0,127.0,128.0,109.0,128.0,25.0,-118.0,-70.0,127.0,127.0,127.0,123.0,87.0,-82.0
126.0,126.0,127.0,127.0,127.0,129.0,108.0,128.0,25.0,-118.0,-70.0,127.0,127.0,127.0,123.0,87.0,-82.0
126.0,126.0,127.0,127.0,127.0,129.0,109.0,128.0,25.0,-118.0,-70.0,127.0,127.0,127.0,123.0,87.0,-82.0
126.0,126.0,127.0,127.0,127.0,129.0,109.0,128.0,25.0,-118.0,-70.0,127.0,127.0,127.0,123.0,87.0,-82.0
126.0,126.0,127.0,127.0,127.0,129.0,109.0,128.0,25.0,-118.0,-70.0,127.0,127.0,127.0,123.0,87.0,-82.0
126.0,126.0,127.0,127.0,127.0,129.0,109.0,128.0,25.0,-118.0,-70.0,127.0,127.0,127.0,123.0,87.0,-82.0
126.0,126.0,127.0,127.0,127.0,129.0,109.0,128.0,25.0,-118.0,-70.0,127.0,127.0,127.0,123.0,87.0,-82.0
126.0,126.0,127.0,127.0,127.0,129.0,109.0,128.0,25.0,-118.0,-70.0,127.0,127.0,127.0,123.0,87.0,-82.0
127.0,126.0,127.0,127.0,127.0,128.0,108.0,128.0,25.0,-118.0,-70.0,127.0,127.0,127.0,123.0,87.0,-82.0
126.0,126.0,127.0,127.0,127.0,128.0,108.0,128.0,25.0,-118.0,-70.0,127.0,127.0,127.0,123.0,87.0,-82.0
126.0,127.0,127.0,126.0,127.0,129.0,109.0,128.0,25.0,-118.0,-70.0,127.0,127.0,127.0,123.0,87.0,-82.0
126.0,127.0,127.0,126.0,127.0,129.0,109.0,128.0,25.0,-118.0,-70.0,127.0,127.0,127.0,123.0,87.0,-82.0
126.0,127.0,127.0,127.0,127.0,129.0,109.0,128.0,25.0,-118.0,-70.0,127.0,127.0,127.0,123.0,87.0,-82.0
126.0,127.0,127.0,127.0,127.0,129.0,109.0,128.0,25.0,-118.0,-70.0,127.0,127.0,127.0,123.0,87.0,-82.0
126.0,127.0,127.0,127.0,127.0,129.0,109.0,128.0,25.0,-118.0,-70.0,127.0,127.0,127.0,123.0,87.0,-82.0
126.0,127.0,127.0,127.0,127.0,129.0,109.0,128.0,25.0,-118.0,-70.0,127.0,127.0,127.0,123.0,87.0,-82.0
126.0,127.0,127.0,127.0,127.0,129.0,109.0,128.0,25.0,-118.0,-70.0,127.0,127.0,127.0,123.0,87.0,-82.0
126.0,127.0,127.0,126.0,127.0,129.0,109.0,128.0,25.0,-118.0,-70.0,127.0,127.0,127.0,123.0,87.0,-82.0
126.0,127.0,127.0,126.0,127.0,129.0,109.0,128.0,25.0,-118.0,-70.0,127.0,127.0,127.0,123.0,87.0,-82.0
126.0,127.0,127.0,126.0,127.0,129.0,109.0,128.0,25.0,-118.0,-70.0,127.0,127.0,127.0,123.0,87.0,-82.0
127.0,127.0,127.0,127.0,127.0,129.0,108.0,128.0,26.0,-118.0,-69.0,127.0,127.0,127.0,123.0,87.0,-82.0
127.0,127.0,127.0,127.0,127.0,129.0,108.0,128.0,26.0,-118.0,-69.0,127.0,127.0,127.0,123.0,87.0,-82.0
127.0,127.0,127.0,127.0,127.0,129.0,108.0,128.0,26.0,-118.0,-69.0,127.0,127.0,127.0,123.0,87.0,-82.0
127.0,127.0,127.0,127.0,127.0,128.0,108.0,128.0,26.0,-118.0,-69.0,127.0,127.0,127.0,123.0,87.0,-82.0
127.0,127.0,127.0,127.0,127.0,129.0,108.0,128.0,26.0,-118.0,-69.0,127.0,127.0,127.0,123.0,87.0,-82.0
127.0,127.0,127.0,127.0,127.0,128.0,108.0,128.0,26.0,-118.0,-69.0,127.0,127.0,127.0,123.0,87.0,-82.0
127.0,127.0,127.0,127.0,127.0,128.0,107.0,128.0,26.0,-118.0,-69.0,127.0,127.0,127.0,123.0,87.0,-82.0
127.0,127.0,127.0,127.0,127.0,129.0,108.0,128.0,26.0,-118.0,-69.0,127.0,127.0,127.0,123.0,87.0,-82.0
127.0,127.0,127.0,127.0,127.0,129.0,108.0,128.0,26.0,-118.0,-69.0,127.0,127.0,127.0,123.0,87.0,-82.0
127.0,127.0,127.0,127.0,127.0,129.0,108.0,128.0,26.0,-118.0,-69.0,127.0,127.0,127.0,123.0,87.0,-82.0
127.0,127.0,127.0,127.0,127.0,129.0,109.0,128.0,26.0,-119.0,-69.0,127.0,127.0,127.0,123.0,87.0,-82.0
127.0,127.0,127.0,127.0,127.0,129.0,109.0,128.0,26.0,-119.0,-69.0,127.0,127.0,127.0,123.0,87.0,-82.0
127.0,127.0,127.0,127.0,127.0,128.0,109.0,128.0,26.0,-119.0,-69.0,127.0,127.0,127.0,123.0,87.0,-82.0
127.0,127.0,127.0,126.0,127.0,128.0,109.0,128.0,26.0,-119.0,-69.0,127.0,127.0,127.0,123.0,87.0,-82.0
127.0,127.0,127.0,126.0,127.0,128.0,108.0,128.0,26.0,-119.0,-69.0,127.0,127.0,127.0,123.0,87.0,-82.0
127.0,127.0,127.0,126.0,127.0,129.0,109.0,128.0,26.0,-119.0,-69.0,127.0,127.0,127.0,123.0,87.0,-82.0
127.0,127.0,127.0,126.0,127.0,129.0,109.0,128.0,26.0,-119.0,-69.0,127.0,127.0,127.0,123.0,87.0,-82.0
127.0,127.0,127.0,127.0,127.0,129.0,109.0,128.0,26.0,-119.0,-69.0,127.0,127.0,127.0,123.0,87.0,-82.0
127.0,127.0,127.0,126.0,127.0,129.0,109.0,128.0,26.0,-119.0,-69.0,127.0,127.0,127.0,123.0,87.0,-82.0
127.0,127.0,127.0,126.0,127.0,129.0,109.0,128.0,26.0,-119.0,-69.0,127.0,127.0,127.0,123.0,87.0,-82.0
127.0,127.0,127.0,127.0,127.0,128.0,109.0,128.0,26.0,-119.0,-69.0,127.0,127.0,127.0,123.0,87.0,-82.0
127.0,127.0,127.0,127.0,127.0,128.0,108.0,128.0,26.0,-119.0,-69.0,127.0,127.0,127.0,123.0,87.0,-82.0
127.0,127.0,127.0,127.0,127.0,128.0,108.0,128.0,26.0,-119.0,-69.0,127.0,127.0,127.0,123.0,87.0,-82.0
127.0,127.0,127.0,127.0,126.0,128.0,108.0,128.0,26.0,-119.0,-69.0,127.0,127.0,127.0,123.0,87.0,-82.0
127.0,127.0,127.0,127.0,127.0,128.0,107.0,128.0,26.0,-119.0,-69.0,127.0,127.0,127.0,123.0,87.0,-82.0
127.0,127.0,127.0,127.0,127.0,128.0,108.0,128.0,26.0,-119.0,-69.0,127.0,127.0,127.0,123.0,87.0,-82.0
127.0,127.0,127.0,127.0,127.0,129.0,108.0,128.0,26.0,-119.0,-69.0,127.0,127.0,127.0,123.0,87.0,-82.0
127.0,127.0,127.0,127.0,127.0,128.0,108.0,128.0,26.0,-119.0,-69.0,127.0,127.0,127.0,123.0,87.0,-82.0
127.0,127.0,127.0,127.0,127.0,128.0,108.0,128.0,26.0,-119.0,-69.0,127.0,127.0,127.0,123.0,87.0,-82.0
127.0,127.0,127.0,127.0,127.0,128.0,108.0,128.0,26.0,-119.0,-69.0,127.0,127.0,127.0,123.0,87.0,-82.0
127.0,127.0,127.0,127.0,127.0,129.0,108.0,128.0,26.0,-119.0,-68.0,127.0,127.0,127.0,123.0,87.0,-82.0
127.0,127.0,127.0,127.0,127.0,128.0,108.0,128.0,26.0,-119.0,-68.0,127.0,127.0,127.0,123.0,87.0,-82.0
127.0,127.0,127.0,127.0,127.0,128.0,108.0,128.0,26.0,-119.0,-68.0,127.0,127.0,127.0,123.0,87.0,-82.0
127.0,127.0,127.0,127.0,127.0,128.0,108.0,128.0,26.0,-119.0,-68.0,127.0,127.0,127.0,123.0,87.0,-82.0
127.0,127.0,127.0,127.0,127.0,129.0,108.0,128.0,26.0,-119.0,-68.0,127.0,127.0,127.0,123.0,87.0,-82.0
127.0,127.0,127.0,127.0,127.0,129.0,108.0,128.0,26.0,-119.0,-68.0,127.0,127.0,127.0,123.0,87.0,-82.0
127.0,127.0,127.0,127.0,127.0,129.0,109.0,128.0,26.0,-119.0,-68.0,127.0,127.0,127.0,123.0,87.0,-82.0
127.0,127.0,127.0,127.0,127.0,129.0,109.0,128.0,26.0,-119.0,-68.0,127.0,127.0,127.0,123.0,87.0,-82.0
127.0,127.0,127.0,127.0,127.0,129.0,109.0,128.0,26.0,-119.0,-68.0,127.0,127.0,127.0,123.0,87.0,-82.0
127.0,127.0,127.0,127.0,127.0,129.0,109.0,128.0,26.0,-119.0,-68.0,127.0,127.0,127.0,123.0,87.0,-82.0
126.0,127.0,126.0,127.0,127.0,129.0,109.0,127.0,26.0,-120.0,-68.0,127.0,127.0,127.0,123.0,87.0,-82.0
126.0,127.0,127.0,127.0,127.0,129.0,109.0,128.0,26.0,-120.0,-68.0,127.0,127.0,127.0,123.0,87.0,-82.0
126.0,127.0,127.0,127.0,127.0,128.0,108.0,127.0,26.0,-120.0,-68.0,127.0,127.0,127.0,123.0,87.0,-82.0
126.0,127.0,127.0,127.0,127.0,129.0,108.0,127.0,26.0,-120.0,-68.0,127.0,127.0,127.0,123.0,87.0,-82.0
126.0,127.0,127.0,127.0,127.0,129.0,109.0,127.0,26.0,-120.0,-68.0,127.0,127.0,127.0,123.0,87.0,-82.0
126.0,127.0,127.0,127.0,127.0,129.0,109.0,127.0,26.0,-120.0,-68.0,127.0,127.0,127.0,123.0,87.0,-82.0
126.0,127.0,127.0,127.0,127.0,129.0,109.0,128.0,26.0,-120.0,-68.0,127.0,127.0,127.0,123.0,87.0,-82.0
126.0,127.0,126.0,127.0,127.0,129.0,109.0,128.0,26.0,-120.0,-68.0,127.0,127.0,127.0,123.0,87.0,-82.0
126.0,127.0,127.0,127.0,127.0,129.0,109.0,128.0,26.0,-120.0,-68.0,127.0,127.0,127.0,123.0,87.0,-82.0
126.0,127.0,127.0,127.0,127.0,129.0,109.0,128.0,26.0,-120.0,-68.0,127.0,127.0,127.0,123.0,87.0,-82.0
126.0,127.0,126.0,126.0,127.0,129.0,108.0,127.0,26.0,-120.0,-67.0,127.0,127.0,127.0,123.0,87.0,-82.0
126.0,127.0,126.0,126.0,127.0,128.0,109.0,127.0,26.0,-120.0,-67.0,127.0,127.0,127.0,123.0,87.0,-82.0
126.0,127.0,126.0,126.0,127.0,128.0,109.0,127.0,26.0,-120.0,-67.0,127.0,127.0,127.0,123.0,87.0,-82.0
126.0,127.0,126.0,126.0,127.0,128.0,108.0,127.0,26.0,-120.0,-67.0,127.0,127.0,127.0,123.0,87.0,-82.0
126.0,127.0,126.0,126.0,127.0,128.0,108.0,127.0,26.0,-120.0,-67.0,127.0,127.0,127.0,123.0,87.0,-82.0
126.0,127.0,126.0,126.0,127.0,128.0,108.0,127.0,26.0,-120.0,-67.0,127.0,127.0,127.0,123.0,87.0,-82.0
126.0,128.0,126.0,126.0,127.0,129.0,108.0,127.0,26.0,-120.0,-67.0,127.0,127.0,127.0,123.0,87.0,-82.0
126.0,127.0,126.0,126.0,127.0,129.0,108.0,127.0,26.0,-120.0,-67.0,127.0,127.0,127.0,123.0,87.0,-82.0
126.0,127.0,126.0,126.0,127.0,129.0,109.0,127.0,26.0,-120.0,-67.0,127.0,127.0,127.0,123.0,87.0,-82.0
126.0,127.0,126.0,126.0,127.0,129.0,108.0,127.0,26.0,-120.0,-67.0,127.0,127.0,127.0,123.0,87.0,-82.0
126.0,127.0,127.0,126.0,126.0,128.0,108.0,126.0,27.0,-120.0,-67.0,127.0,127.0,127.0,123.0,87.0,-82.0
126.0,127.0,127.0,126.0,126.0,128.0,108.0,126.0,27.0,-120.0,-67.0,127.0,127.0,127.0,123.0,87.0,-82.0
126.0,127.0,127.0,126.0,126.0,128.0,108.0,126.0,27.0,-120.0,-67.0,127.0,127.0,127.0,123.0,87.0,-82.0
126.0,127.0,127.0,126.0,126.0,128.0,107.0,126.0,27.0,-120.0,-67.0,127.0,127.0,127.0,123.0,87.0,-82.0
126.0,127.0,127.0,126.0,126.0,128.0,107.0,126.0,27.0,-120.0,-67.0,127.0,127.0,127.0,123.0,87.0,-82.0
126.0,127.0,127.0,126.0,126.0,128.0,107.0,126.0,27.0,-120.0,-67.0,127.0,127.0,127.0,123.0,87.0,-82.0
126.0,127.0,127.0,126.0,126.0,128.0,107.0,126.0,27.0,-120.0,-67.0,127.0,127.0,127.0,123.0,87.0,-82.0
126.0,127.0,127.0,126.0,126.0,128.0,107.0,126.0,27.0,-120.0,-67.0,127.0,127.0,127.0,123.0,87.0,-82.0
126.0,127.0,127.0,126.0,126.0,128.0,108.0,126.0,27.0,-120.0,-67.0,127.0,127.0,127.0,123.0,87.0,-82.0
126.0,128.0,127.0,126.0,126.0,129.0,108.0,126.0,27.0,-120.0,-67.0,127.0,127.0,127.0,123.0,87.0,-82.0
126.0,127.0,127.0,127.0,126.0,128.0,108.0,127.0,27.0,-120.0,-67.0,127.0,127.0,127.0,123.0,87.0,-82.0
126.0,128.0,127.0,127.0,127.0,129.0,108.0,127.0,27.0,-120.0,-67.0,127.0,127.0,127.0,123.0,87.0,-82.0
126.0,128.0,127.0,127.0,127.0,129.0,109.0,127.0,27.0,-120.0,-67.0,127.0,127.0,127.0,123.0,87.0,-82.0
126.0,128.0,127.0,127.0,127.0,129.0,109.0,127.0,27.0,-120.0,-67.0,127.0,127.0,127.0,123.0,87.0,-82.0
126.0,128.0,127.0,127.0,127.0,129.0,109.0,127.0,27.0,-120.0,-67.0,127.0,127.0,127.0,123.0,87.0,-82.0
126.0,127.0,127.0,127.0,127.0,129.0,109.0,127.0,27.0,-120.0,-67.0,127.0,127.0,127.0,123.0,87.0,-82.0
126.0,127.0,127.0,127.0,127.0,129.0,109.0,127.0,27.0,-120.0,-67.0,127.0,127.0,127.0,123.0,87.0,-82.0
126.0,127.0,127.0,127.0,127.0,129.0,108.0,127.0,27.0,-120.0,-67.0,127.0,127.0,127.0,123.0,87.0,-82.0
126.0,127.0,127.0,127.0,126.0,128.0,108.0,127.0,27.0,-120.0,-67.0,127.0,127.0,127.0,123.0,87.0,-82.0
126.0,127.0,127.0,127.0,126.0,128.0,109.0,127.0,27.0,-120.0,-67.0,127.0,127.0,127.0,123.0,87.0,-82.0
126.0,128.0,127.0,127.0,127.0,129.0,109.0,127.0,28.0,-120.0,-67.0,127.0,127.0,127.0,123.0,87.0,-82.0
126.0,128.0,127.0,127.0,127.0,129.0,109.0,127.0,28.0,-120.0,-67.0,127.0,127.0,127.0,123.0,87.0,-82.0
126.0,127.0,127.0,127.0,127.0,129.0,109.0,127.0,28.0,-120.0,-67.0,127.0,127.0,127.0,123.0,87.0,-82.0
126.0,127.0,127.0,127.0,127.0,129.0,109.0,127.0,28.0,-120.0,-67.0,127.0,127.0,127.0,123.0,87.0,-82.0
126.0,127.0,127.0,127.0,127.0,129.0,109.0,127.0,28.0,-120.0,-67.0,127.0,127.0,127.0,123.0,87.0,-82.0
126.0,127.0,127.0,127.0,127.0,129.0,109.0,127.0,28.0,-120.0,-67.0,127.0,127.0,127.0,123.0,87.0,-82.0
126.0,127.0,127.0,127.0,126.0,129.0,109.0,127.0,28.0,-120.0,-67.0,127.0,127.0,127.0,123.0,87.0,-82.0
126.0,127.0,127.0,127.0,126.0,129.0,109.0,127.0,28.0,-120.0,-67.0,127.0,127.0,127.0,123.0,87.0,-82.0
126.0,127.0,127.0,127.0,127.0,129.0,108.0,127.0,28.0,-120.0,-67.0,127.0,127.0,127.0,123.0,87.0,-82.0
126.0,127.0,127.0,127.0,127.0,128.0,108.0,127.0,28.0,-120.0,-67.0,127.0,127.0,127.0,123.0,87.0,-82.0
126.0,127.0,127.0,126.0,126.0,129.0,108.0,127.0,28.0,-120.0,-67.0,127.0,127.0,127.0,123.0,87.0,-82.0
126.0,127.0,127.0,126.0,126.0,129.0,108.0,127.0,28.0,-120.0,-67.0,127.0,127.0,127.0,123.0,87.0,-82.0
126.0,127.0,127.0,126.0,126.0,129.0,109.0,127.0,28.0,-120.0,-67.0,127.0,127.0,127.0,123.0,87.0,-82.0
126.0,127.0,127.0,126.0,126.0,129.0,109.0,127.0,28.0,-120.0,-67.0,127.0,127.0,127.0,123.0,87.0,-82.0
126.0,127.0,127.0,126.0,126.0,129.0,109.0,127.0,28.0,-120.0,-67.0,127.0,127.0,127.0,123.0,87.0,-82.0
126.0,127.0,127.0,126.0,126.0,129.0,109.0,127.0,28.0,-120.0,-67.0,127.0,127.0,127.0,123.0,87.0,-82.0
126.0,127.0,127.0,126.0,126.0,129.0,109.0,127.0,28.0,-120.0,-67.0,127.0,127.0,127.0,123.0,87.0,-82.0
126.0,127.0,127.0,126.0,126.0,128.0,108.0,127.0,28.0,-120.0,-67.0,127.0,127.0,127.0,123.0,87.0,-82.0
126.0,127.0,127.0,126.0,126.0,128.0,108.0,127.0,28.0,-120.0,-67.0,127.0,127.0,127.0,123.0,87.0,-82.0
126.0,127.0,127.0,126.0,126.0,128.0,108.0,127.0,28.0,-120.0,-67.0,127.0,127.0,127.0,123.0,87.0,-82.0
127.0,127.0,127.0,127.0,127.0,128.0,108.0,127.0,28.0,-121.0,-66.0,127.0,127.0,127.0,123.0,87.0,-82.0
126.0,127.0,127.0,127.0,127.0,128.0,108.0,127.0,28.0,-121.0,-66.0,127.0,127.0,127.0,123.0,87.0,-82.0
127.0,127.0,127.0,127.0,127.0,129.0,108.0,127.0,28.0,-121.0,-66.0,127.0,127.0,127.0,123.0,87.0,-82.0
127.0,127.0,127.0,127.0,127.0,128.0,108.0,127.0,28.0,-121.0,-66.0,127.0,127.0,127.0,123.0,87.0,-82.0
127.0,127.0,127.0,127.0,127.0,128.0,108.0,127.0,28.0,-121.0,-66.0,127.0,127.0,127.0,123.0,87.0,-82.0
127.0,127.0,127.0,127.0,127.0,128.0,108.0,127.0,28.0,-121.0,-66.0,127.0,127.0,127.0,123.0,87.0,-82.0
127.0,127.0,127.0,127.0,127.0,128.0,108.0,127.0,28.0,-121.0,-66.0,127.0,127.0,127.0,123.0,87.0,-82.0
127.0,127.0,127.0,127.0,127.0,128.0,108.0,127.0,28.0,-121.0,-66.0,127.0,127.0,127.0,123.0,87.0,-82.0
127.0,127.0,127.0,127.0,127.0,128.0,108.0,127.0,28.0,-121.0,-66.0,127.0,127.0,127.0,123.0,87.0,-82.0
127.0,127.0,127.0,127.0,127.0,128.0,107.0,127.0,28.0,-121.0,-66.0,127.0,127.0,127.0,123.0,87.0,-82.0
127.0,127.0,127.0,127.0,127.0,128.0,108.0,127.0,28.0,-121.0,-66.0,127.0,127.0,127.0,123.0,87.0,-82.0
127.0,127.0,127.0,127.0,127.0,128.0,108.0,127.0,28.0,-121.0,-66.0,127.0,127.0,127.0,123.0,87.0,-82.0
127.0,127.0,127.0,127.0,127.0,129.0,108.0,127.0,28.0,-121.0,-66.0,127.0,127.0,127.0,123.0,87.0,-82.0
127.0,127.0,127.0,127.0,127.0,129.0,108.0,127.0,28.0,-121.0,-66.0,127.0,127.0,127.0,123.0,87.0,-82.0
127.0,127.0,127.0,127.0,127.0,129.0,109.0,128.0,28.0,-121.0,-66.0,127.0,127.0,127.0,123.0,87.0,-82.0
127.0,127.0,127.0,127.0,127.0,128.0,108.0,127.0,28.0,-121.0,-66.0,127.0,127.0,127.0,123.0,87.0,-82.0
127.0,127.0,127.0,127.0,127.0,128.0,108.0,127.0,28.0,-121.0,-66.0,127.0,127.0,127.0,123.0,87.0,-82.0
127.0,127.0,127.0,127.0,127.0,128.0,108.0,127.0,28.0,-121.0,-66.0,127.0,127.0,127.0,123.0,87.0,-82.0
127.0,127.0,127.0,127.0,127.0,128.0,108.0,127.0,28.0,-121.0,-66.0,127.0,127.0,127.0,123.0,87.0,-82.0
127.0,127.0,127.0,127.0,127.0,128.0,108.0,127.0,28.0,-121.0,-66.0,127.0,127.0,127.0,123.0,87.0,-82.0
127.0,126.0,127.0,127.0,127.0,128.0,109.0,128.0,28.0,-121.0,-66.0,127.0,127.0,127.0,123.0,87.0,-82.0
127.0,126.0,127.0,127.0,127.0,128.0,108.0,128.0,28.0,-121.0,-66.0,127.0,127.0,127.0,123.0,87.0,-82.0
127.0,126.0,127.0,127.0,127.0,128.0,108.0,128.0,28.0,-121.0,-66.0,127.0,127.0,127.0,123.0,87.0,-82.0
127.0,127.0,127.0,127.0,127.0,129.0,108.0,128.0,28.0,-121.0,-66.0,127.0,127.0,127.0,123.0,87.0,-82.0
127.0,126.0,128.0,127.0,127.0,128.0,108.0,127.0,28.0,-121.0,-66.0,127.0,127.0,127.0,123.0,87.0,-82.0
127.0,126.0,128.0,127.0,127.0,128.0,108.0,127.0,28.0,-121.0,-66.0,127.0,127.0,127.0,123.0,87.0,-82.0
127.0,126.0,128.0,127.0,127.0,128.0,107.0,127.0,28.0,-121.0,-66.0,127.0,127.0,127.0,123.0,87.0,-82.0
127.0,127.0,127.0,127.0,127.0,128.0,108.0,128.0,28.0,-121.0,-66.0,127.0,127.0,127.0,123.0,87.0,-82.0
127.0,127.0,128.0,127.0,127.0,128.0,108.0,128.0,28.0,-121.0,-66.0,127.0,127.0,127.0,123.0,87.0,-82.0
127.0,127.0,127.0,127.0,127.0,128.0,108.0,128.0,28.0,-121.0,-66.0,127.0,127.0,127.0,123.0,87.0,-82.0
127.0,126.0,127.0,127.0,127.0,128.0,107.0,128.0,28.0,-121.0,-67.0,127.0,127.0,127.0,123.0,87.0,-82.0
127.0,126.0,127.0,127.0,127.0,128.0,107.0,128.0,28.0,-121.0,-67.0,127.0,127.0,127.0,123.0,87.0,-82.0
127.0,126.0,127.0,127.0,127.0,128.0,108.0,128.0,28.0,-121.0,-67.0,127.0,127.0,127.0,123.0,87.0,-82.0
127.0,126.0,127.0,127.0,127.0,128.0,107.0,127.0,28.0,-121.0,-67.0,127.0,127.0,127.0,123.0,87.0,-82.0
127.0,126.0,127.0,127.0,127.0,128.0,107.0,127.0,28.0,-121.0,-67.0,127.0,127.0,127.0,123.0,87.0,-82.0
127.0,126.0,127.0,127.0,127.0,128.0,107.0,127.0,28.0,-121.0,-67.0,127.0,127.0,127.0,123.0,87.0,-82.0
127.0,127.0,127.0,127.0,127.0,128.0,107.0,128.0,28.0,-121.0,-67.0,127.0,127.0,127.0,123.0,87.0,-82.0
127.0,127.0,127.0,127.0,127.0,128.0,107.0,128.0,28.0,-121.0,-67.0,127.0,127.0,127.0,123.0,87.0,-82.0
127.0,126.0,127.0,127.0,127.0,128.0,107.0,128.0,28.0,-121.0,-67.0,127.0,127.0,127.0,123.0,87.0,-82.0
127.0,126.0,127.0,127.0,127.0,128.0,107.0,128.0,28.0,-121.0,-67.0,127.0,127.0,127.0,123.0,87.0,-82.0
127.0,127.0,127.0,127.0,127.0,129.0,109.0,128.0,27.0,-121.0,-67.0,127.0,127.0,127.0,123.0,87.0,-82.0
127.0,127.0,127.0,127.0,127.0,129.0,109.0,128.0,27.0,-121.0,-67.0,127.0,127.0,127.0,123.0,87.0,-82.0
127.0,127.0,127.0,127.0,127.0,128.0,108.0,128.0,27.0,-121.0,-67.0,127.0,127.0,127.0,123.0,87.0,-82.0
127.0,127.0,127.0,127.0,127.0,129.0,108.0,128.0,27.0,-121.0,-67.0,127.0,127.0,127.0,123.0,87.0,-82.0
127.0,127.0,127.0,127.0,127.0,128.0,108.0,128.0,27.0,-121.0,-67.0,127.0,127.0,127.0,123.0,87.0,-82.0
127.0,127.0,127.0,127.0,127.0,129.0,109.0,128.0,27.0,-121.0,-67.0,127.0,127.0,127.0,123.0,87.0,-82.0
127.0,127.0,127.0,127.0,127.0,129.0,109.0,128.0,27.0,-121.0,-67.0,127.0,127.0,127.0,123.0,87.0,-82.0
127.0,127.0,128.0,127.0,127.0,129.0,109.0,128.0,27.0,-121.0,-67.0,127.0,127.0,127.0,123.0,87.0,-82.0
127.0,127.0,128.0,127.0,127.0,129.0,109.0,128.0,27.0,-121.0,-67.0,127.0,127.0,127.0,123.0,87.0,-82.0
127.0,127.0,128.0,127.0,127.0,129.0,108.0,128.0,27.0,-121.0,-67.0,127.0,127.0,127.0,123.0,87.0,-82.0
127.0,127.0,127.0,127.0,127.0,128.0,108.0,128.0,27.0,-121.0,-67.0,127.0,127.0,127.0,123.0,87.0,-82.0
127.0,127.0,127.0,127.0,127.0,128.0,108.0,128.0,27.0,-121.0,-67.0,127.0,127.0,127.0,123.0,87.0,-82.0
127.0,127.0,127.0,127.0,127.0,128.0,108.0,128.0,27.0,-121.0,-67.0,127.0,127.0,127.0,123.0,87.0,-82.0
127.0,127.0,127.0,127.0,127.0,128.0,108.0,128.0,27.0,-121.0,-67.0,127.0,127.0,127.0,123.0,87.0,-82.0
127.0,127.0,127.0,127.0,127.0,128.0,108.0,128.0,27.0,-121.0,-67.0,127.0,127.0,127.0,123.0,87.0,-82.0
127.0,127.0,127.0,127.0,127.0,129.0,109.0,128.0,27.0,-121.0,-67.0,127.0,127.0,127.0,123.0,87.0,-82.0
127.0,127.0,127.0,127.0,127.0,129.0,109.0,128.0,27.0,-121.0,-67.0,127.0,127.0,127.0,123.0,87.0,-82.0
127.0,127.0,127.0,127.0,127.0,129.0,108.0,128.0,27.0,-121.0,-67.0,127.0,127.0,127.0,123.0,87.0,-82.0
127.0,127.0,127.0,127.0,127.0,129.0,108.0,128.0,27.0,-121.0,-67.0,127.0,127.0,127.0,123.0,87.0,-82.0
127.0,127.0,127.0,127.0,127.0,129.0,108.0,128.0,27.0,-121.0,-67.0,127.0,127.0,127.0,123.0,87.0,-82.0
127.0,127.0,126.0,127.0,127.0,128.0,109.0,127.0,27.0,-121.0,-67.0,127.0,127.0,127.0,123.0,87.0,-82.0
127.0,127.0,126.0,127.0,127.0,128.0,108.0,128.0,27.0,-121.0,-67.0,127.0,127.0,127.0,123.0,87.0,-82.0
127.0,127.0,126.0,127.0,127.0,128.0,108.0,128.0,27.0,-121.0,-67.0,127.0,127.0,127.0,123.0,87.0,-82.0
127.0,127.0,126.0,127.0,127.0,128.0,108.0,128.0,27.0,-121.0,-67.0,127.0,127.0,127.0,123.0,87.0,-82.0
127.0,127.0,126.0,127.0,127.0,129.0,108.0,128.0,27.0,-121.0,-67.0,127.0,127.0,127.0,123.0,87.0,-82.0
127.0,127.0,126.0,127.0,127.0,129.0,108.0,128.0,27.0,-121.0,-67.0,127.0,127.0,127.0,123.0,87.0,-82.0
127.0,127.0,126.0,127.0,127.0,129.0,108.0,128.0,27.0,-121.0,-67.0,127.0,127.0,127.0,123.0,87.0,-82.0
127.0,127.0,126.0,127.0,127.0,128.0,108.0,128.0,27.0,-121.0,-67.0,127.0,127.0,127.0,123.0,87.0,-82.0
127.0,127.0,126.0,127.0,127.0,129.0,108.0,128.0,27.0,-121.0,-67.0,127.0,127.0,127.0,123.0,87.0,-82.0
127.0,127.0,126.0,127.0,127.0,128.0,108.0,128.0,27.0,-121.0,-67.0,127.0,127.0,127.0,123.0,87.0,-82.0
127.0,127.0,127.0,126.0,127.0,128.0,107.0,127.0,27.0,-121.0,-67.0,127.0,127.0,127.0,123.0,87.0,-82.0
127.0,127.0,127.0,126.0,127.0,128.0,108.0,127.0,27.0,-121.0,-67.0,127.0,127.0,127.0,123.0,87.0,-82.0
127.0,127.0,127.0,126.0,127.0,128.0,107.0,127.0,27.0,-121.0,-67.0,127.0,127.0,127.0,123.0,87.0,-82.0
127.0,127.0,127.0,126.0,127.0,128.0,108.0,128.0,27.0,-121.0,-67.0,127.0,127.0,127.0,123.0,87.0,-82.0
127.0,127.0,127.0,127.0,127.0,128.0,108.0,128.0,27.0,-121.0,-67.0,127.0,127.0,127.0,123.0,87.0,-82.0
