emg1,emg2,emg3,emg4,emg5,emg6,emg7,emg8,acc_x,acc_y,acc_z,gyro_x,gyro_y,gyro_z,angle_pitch,angle_roll,angle_yaw
127.0,127.0,127.0,127.0,127.0,128.0,126.0,129.0,-1.0,105.0,-79.0,127.0,127.0,127.0,-113.0,-84.0,118.0
127.0,127.0,127.0,127.0,127.0,127.0,126.0,129.0,-1.0,105.0,-79.0,127.0,127.0,127.0,-113.0,-84.0,118.0
127.0,127.0,127.0,127.0,127.0,128.0,126.0,129.0,-1.0,105.0,-79.0,127.0,127.0,127.0,-113.0,-84.0,118.0
127.0,127.0,127.0,127.0,127.0,128.0,126.0,129.0,-1.0,105.0,-79.0,127.0,127.0,127.0,-113.0,-84.0,118.0
127.0,128.0,126.0,127.0,126.0,128.0,126.0,130.0,-1.0,105.0,-79.0,127.0,127.0,127.0,-113.0,-84.0,118.0
127.0,128.0,127.0,127.0,125.0,127.0,127.0,129.0,-1.0,106.0,-79.0,127.0,127.0,127.0,-113.0,-84.0,118.0
127.0,128.0,127.0,127.0,126.0,127.0,127.0,129.0,-1.0,106.0,-79.0,127.0,127.0,127.0,-113.0,-84.0,118.0
127.0,128.0,127.0,127.0,126.0,127.0,127.0,129.0,-1.0,106.0,-79.0,127.0,127.0,127.0,-113.0,-84.0,118.0
127.0,127.0,127.0,127.0,126.0,127.0,127.0,129.0,-1.0,106.0,-79.0,127.0,127.0,127.0,-113.0,-84.0,118.0
127.0,127.0,127.0,127.0,126.0,127.0,127.0,129.0,-1.0,106.0,-79.0,127.0,127.0,127.0,-113.0,-84.0,118.0
127.0,127.0,127.0,127.0,126.0,127.0,127.0,129.0,-1.0,106.0,-79.0,127.0,127.0,127.0,-113.0,-84.0,118.0
127.0,127.0,127.0,127.0,126.0,127.0,127.0,129.0,-1.0,106.0,-79.0,127.0,127.0,127.0,-113.0,-84.0,118.0
127.0,127.0,127.0,127.0,126.0,127.0,127.0,129.0,-1.0,106.0,-79.0,127.0,127.0,127.0,-113.0,-84.0,118.0
127.0,128.0,127.0,127.0,125.0,127.0,127.0,129.0,-1.0,106.0,-79.0,127.0,127.0,127.0,-113.0,-84.0,118.0
127.0,128.0,127.0,127.0,125.0,127.0,127.0,129.0,-1.0,106.0,-79.0,127.0,127.0,127.0,-113.0,-84.0,118.0
127.0,128.0,127.0,127.0,127.0,128.0,127.0,129.0,-1.0,106.0,-79.0,127.0,127.0,127.0,-113.0,-84.0,118.0
127.0,128.0,127.0,127.0,127.0,128.0,127.0,129.0,-1.0,106.0,-79.0,127.0,127.0,127.0,-113.0,-84.0,118.0
127.0,128.0,127.0,127.0,127.0,128.0,127.0,129.0,-1.0,106.0,-79.0,127.0,127.0,127.0,-113.0,-84.0,118.0
127.0,127.0,127.0,127.0,127.0,128.0,127.0,129.0,-1.0,106.0,-79.0,127.0,127.0,127.0,-113.0,-84.0,118.0
127.0,127.0,127.0,127.0,127.0,128.0,127.0,129.0,-1.0,106.0,-79.0,127.0,127.0,127.0,-113.0,-84.0,118.0
127.0,127.0,127.0,127.0,127.0,128.0,127.0,129.0,-1.0,106.0,-79.0,127.0,127.0,127.0,-113.0,-84.0,118.0
127.0,127.0,127.0,127.0,127.0,128.0,127.0,129.0,-1.0,106.0,-79.0,127.0,127.0,127.0,-113.0,-84.0,118.0
127.0,128.0,126.0,127.0,126.0,128.0,127.0,129.0,-1.0,106.0,-79.0,127.0,127.0,127.0,-113.0,-84.0,118.0
127.0,128.0,126.0,127.0,126.0,128.0,127.0,129.0,-1.0,106.0,-79.0,127.0,127.0,127.0,-113.0,-84.0,118.0
127.0,128.0,126.0,127.0,126.0,128.0,127.0,129.0,-1.0,106.0,-79.0,127.0,127.0,127.0,-113.0,-84.0,118.0
127.0,127.0,127.0,127.0,126.0,127.0,127.0,129.0,-1.0,105.0,-79.0,127.0,127.0,127.0,-113.0,-84.0,118.0
127.0,127.0,127.0,127.0,126.0,127.0,127.0,129.0,-1.0,105.0,-79.0,127.0,127.0,127.0,-113.0,-84.0,118.0
127.0,127.0,127.0,127.0,127.0,127.0,127.0,129.0,-1.0,105.0,-79.0,127.0,127.0,127.0,-113.0,-84.0,118.0
127.0,127.0,127.0,127.0,127.0,127.0,127.0,129.0,-1.0,105.0,-79.0,127.0,127.0,127.0,-113.0,-84.0,118.0
127.0,127.0,127.0,127.0,127.0,127.0,127.0,129.0,-1.0,105.0,-79.0,127.0,127.0,127.0,-113.0,-84.0,118.0
127.0,127.0,127.0,127.0,127.0,127.0,127.0,129.0,-1.0,105.0,-79.0,127.0,127.0,127.0,-113.0,-84.0,118.0
127.0,127.0,127.0,127.0,126.0,128.0,127.0,129.0,-1.0,105.0,-79.0,127.0,127.0,127.0,-113.0,-84.0,118.0
127.0,127.0,127.0,127.0,126.0,127.0,127.0,129.0,-1.0,105.0,-79.0,127.0,127.0,127.0,-113.0,-84.0,118.0
127.0,127.0,127.0,127.0,126.0,127.0,127.0,129.0,-1.0,105.0,-79.0,127.0,127.0,127.0,-113.0,-84.0,118.0
127.0,127.0,127.0,127.0,126.0,127.0,127.0,129.0,-1.0,105.0,-79.0,127.0,127.0,127.0,-113.0,-84.0,118.0
128.0,127.0,127.0,127.0,126.0,127.0,126.0,129.0,-1.0,105.0,-79.0,127.0,127.0,127.0,-113.0,-84.0,118.0
128.0,127.0,127.0,127.0,127.0,127.0,126.0,129.0,-1.0,105.0,-79.0,127.0,127.0,127.0,-113.0,-84.0,118.0
128.0,127.0,127.0,127.0,127.0,127.0,126.0,129.0,-1.0,105.0,-79.0,127.0,127.0,127.0,-113.0,-84.0,118.0
128.0,127.0,127.0,127.0,127.0,127.0,126.0,129.0,-1.0,105.0,-79.0,127.0,127.0,127.0,-113.0,-84.0,118.0
128.0,127.0,127.0,127.0,127.0,127.0,126.0,129.0,-1.0,105.0,-79.0,127.0,127.0,127.0,-113.0,-84.0,118.0
128.0,127.0,126.0,127.0,126.0,128.0,127.0,129.0,-1.0,105.0,-79.0,127.0,127.0,127.0,-113.0,-84.0,118.0
128.0,127.0,126.0,127.0,126.0,127.0,127.0,129.0,-1.0,105.0,-79.0,127.0,127.0,127.0,-113.0,-84.0,118.0
128.0,127.0,126.0,127.0,126.0,127.0,127.0,129.0,-1.0,105.0,-79.0,127.0,127.0,127.0,-113.0,-84.0,118.0
128.0,127.0,126.0,127.0,126.0,127.0,127.0,129.0,-1.0,105.0,-79.0,127.0,127.0,127.0,-113.0,-84.0,118.0
128.0,127.0,126.0,127.0,126.0,127.0,126.0,129.0,-1.0,105.0,-79.0,127.0,127.0,127.0,-113.0,-84.0,118.0
127.0,127.0,126.0,127.0,126.0,127.0,127.0,128.0,-1.0,105.0,-79.0,127.0,127.0,127.0,-113.0,-84.0,118.0
127.0,127.0,126.0,127.0,127.0,127.0,127.0,128.0,-1.0,105.0,-79.0,127.0,127.0,127.0,-113.0,-84.0,118.0
127.0,127.0,127.0,127.0,127.0,127.0,127.0,128.0,-1.0,105.0,-79.0,127.0,127.0,127.0,-113.0,-84.0,118.0
127.0,127.0,127.0,127.0,127.0,127.0,127.0,128.0,-1.0,105.0,-79.0,127.0,127.0,127.0,-113.0,-84.0,118.0
128.0,127.0,126.0,127.0,126.0,128.0,127.0,128.0,-1.0,105.0,-79.0,127.0,127.0,127.0,-113.0,-84.0,118.0
128.0,127.0,126.0,127.0,126.0,128.0,127.0,128.0,-1.0,105.0,-79.0,127.0,127.0,127.0,-113.0,-84.0,118.0
127.0,127.0,126.0,127.0,126.0,128.0,127.0,128.0,-1.0,105.0,-79.0,127.0,127.0,127.0,-113.0,-84.0,118.0
128.0,127.0,126.0,127.0,126.0,128.0,127.0,128.0,-1.0,105.0,-79.0,127.0,127.0,127.0,-113.0,-84.0,118.0
128.0,127.0,126.0,127.0,126.0,127.0,127.0,128.0,-1.0,105.0,-79.0,127.0,127.0,127.0,-113.0,-84.0,118.0
128.0,127.0,126.0,127.0,126.0,127.0,127.0,128.0,-1.0,105.0,-79.0,127.0,127.0,127.0,-113.0,-84.0,118.0
127.0,128.0,127.0,127.0,127.0,127.0,127.0,129.0,-1.0,105.0,-79.0,127.0,127.0,127.0,-113.0,-84.0,118.0
127.0,128.0,127.0,127.0,127.0,128.0,127.0,129.0,-1.0,105.0,-79.0,127.0,127.0,127.0,-113.0,-84.0,118.0
127.0,128.0,127.0,127.0,127.0,128.0,127.0,129.0,-1.0,105.0,-79.0,127.0,127.0,127.0,-113.0,-84.0,118.0
127.0,127.0,127.0,127.0,127.0,126.0,127.0,129.0,-1.0,105.0,-79.0,127.0,127.0,127.0,-113.0,-84.0,118.0
127.0,128.0,127.0,127.0,127.0,126.0,127.0,129.0,-1.0,105.0,-79.0,127.0,127.0,127.0,-113.0,-84.0,118.0
127.0,128.0,127.0,127.0,126.0,127.0,127.0,129.0,-1.0,105.0,-79.0,127.0,127.0,127.0,-113.0,-84.0,118.0
127.0,128.0,127.0,127.0,127.0,127.0,127.0,129.0,-1.0,105.0,-79.0,127.0,127.0,127.0,-113.0,-84.0,118.0
127.0,128.0,127.0,127.0,127.0,127.0,127.0,129.0,-1.0,105.0,-79.0,127.0,127.0,127.0,-113.0,-84.0,118.0
127.0,128.0,127.0,127.0,127.0,127.0,127.0,129.0,-1.0,105.0,-79.0,127.0,127.0,127.0,-113.0,-84.0,118.0
127.0,128.0,127.0,127.0,127.0,127.0,127.0,129.0,-1.0,105.0,-79.0,127.0,127.0,127.0,-113.0,-84.0,118.0
127.0,127.0,126.0,127.0,126.0,128.0,127.0,129.0,-1.0,105.0,-79.0,127.0,127.0,127.0,-113.0,-84.0,118.0
127.0,127.0,126.0,127.0,126.0,128.0,127.0,129.0,-1.0,105.0,-79.0,127.0,127.0,127.0,-113.0,-84.0,118.0
127.0,127.0,127.0,127.0,126.0,126.0,128.0,128.0,-1.0,105.0,-79.0,127.0,127.0,127.0,-113.0,-84.0,118.0
127.0,127.0,126.0,127.0,126.0,127.0,127.0,128.0,-1.0,105.0,-79.0,127.0,127.0,127.0,-113.0,-84.0,118.0
127.0,127.0,126.0,127.0,126.0,127.0,127.0,129.0,-1.0,105.0,-79.0,127.0,127.0,127.0,-113.0,-84.0,118.0
127.0,127.0,126.0,127.0,126.0,127.0,127.0,129.0,-1.0,105.0,-79.0,127.0,127.0,127.0,-113.0,-84.0,118.0
127.0,127.0,126.0,127.0,126.0,127.0,127.0,129.0,-1.0,105.0,-79.0,127.0,127.0,127.0,-113.0,-84.0,118.0
127.0,127.0,127.0,127.0,126.0,127.0,127.0,129.0,-1.0,105.0,-79.0,127.0,127.0,127.0,-113.0,-84.0,118.0
127.0,127.0,126.0,127.0,126.0,127.0,127.0,129.0,-1.0,105.0,-79.0,127.0,127.0,127.0,-113.0,-84.0,118.0
127.0,127.0,126.0,127.0,126.0,127.0,127.0,129.0,-1.0,105.0,-79.0,127.0,127.0,127.0,-113.0,-84.0,118.0
127.0,127.0,127.0,127.0,126.0,128.0,127.0,128.0,-1.0,105.0,-79.0,127.0,127.0,127.0,-113.0,-84.0,118.0
127.0,127.0,127.0,127.0,126.0,126.0,128.0,128.0,-1.0,105.0,-79.0,127.0,127.0,127.0,-113.0,-84.0,118.0
127.0,127.0,127.0,127.0,126.0,127.0,128.0,128.0,-1.0,105.0,-79.0,127.0,127.0,127.0,-113.0,-84.0,118.0
127.0,127.0,127.0,127.0,126.0,127.0,128.0,128.0,-1.0,105.0,-79.0,127.0,127.0,127.0,-113.0,-84.0,118.0
127.0,127.0,127.0,127.0,126.0,127.0,128.0,128.0,-1.0,105.0,-79.0,127.0,127.0,127.0,-113.0,-84.0,118.0
127.0,127.0,127.0,127.0,126.0,127.0,128.0,128.0,-1.0,105.0,-79.0,127.0,127.0,127.0,-113.0,-84.0,118.0
127.0,127.0,127.0,127.0,126.0,127.0,128.0,128.0,-1.0,105.0,-79.0,127.0,127.0,127.0,-113.0,-84.0,118.0
127.0,127.0,127.0,127.0,126.0,127.0,128.0,128.0,-1.0,105.0,-79.0,127.0,127.0,127.0,-113.0,-84.0,118.0
127.0,127.0,127.0,127.0,126.0,127.0,128.0,128.0,-1.0,105.0,-79.0,127.0,127.0,127.0,-113.0,-84.0,118.0
127.0,127.0,127.0,127.0,126.0,128.0,128.0,128.0,-1.0,105.0,-79.0,127.0,127.0,127.0,-113.0,-84.0,118.0
127.0,127.0,127.0,127.0,126.0,127.0,127.0,128.0,-1.0,105.0,-79.0,127.0,127.0,127.0,-113.0,-84.0,118.0
127.0,127.0,127.0,127.0,126.0,127.0,127.0,128.0,-1.0,105.0,-79.0,127.0,127.0,127.0,-113.0,-84.0,118.0
127.0,127.0,126.0,127.0,126.0,127.0,127.0,128.0,-1.0,105.0,-79.0,127.0,127.0,127.0,-113.0,-84.0,118.0
127.0,127.0,127.0,127.0,126.0,127.0,127.0,128.0,-1.0,105.0,-79.0,127.0,127.0,127.0,-113.0,-84.0,118.0
127.0,127.0,127.0,127.0,126.0,127.0,127.0,128.0,-1.0,105.0,-79.0,127.0,127.0,127.0,-113.0,-84.0,118.0
127.0,127.0,127.0,127.0,126.0,127.0,127.0,128.0,-1.0,105.0,-79.0,127.0,127.0,127.0,-113.0,-84.0,118.0
127.0,127.0,127.0,127.0,126.0,127.0,127.0,128.0,-1.0,105.0,-79.0,127.0,127.0,127.0,-113.0,-84.0,118.0
127.0,127.0,127.0,127.0,126.0,127.0,127.0,128.0,-1.0,105.0,-79.0,127.0,127.0,127.0,-113.0,-84.0,118.0
127.0,127.0,127.0,127.0,126.0,128.0,127.0,128.0,-1.0,105.0,-79.0,127.0,127.0,127.0,-113.0,-84.0,118.0
127.0,127.0,127.0,127.0,126.0,128.0,127.0,128.0,-1.0,105.0,-79.0,127.0,127.0,127.0,-113.0,-84.0,118.0
127.0,127.0,127.0,127.0,126.0,126.0,127.0,128.0,-1.0,105.0,-79.0,127.0,127.0,127.0,-113.0,-84.0,118.0
127.0,127.0,126.0,127.0,126.0,127.0,127.0,128.0,-1.0,105.0,-79.0,127.0,127.0,127.0,-113.0,-84.0,118.0
127.0,127.0,126.0,127.0,126.0,127.0,127.0,128.0,-1.0,105.0,-79.0,127.0,127.0,127.0,-113.0,-84.0,118.0
127.0,127.0,127.0,127.0,126.0,127.0,127.0,128.0,-1.0,105.0,-79.0,127.0,127.0,127.0,-113.0,-84.0,118.0
127.0,127.0,127.0,127.0,126.0,127.0,127.0,128.0,-1.0,105.0,-79.0,127.0,127.0,127.0,-113.0,-84.0,118.0
127.0,127.0,127.0,127.0,126.0,127.0,127.0,128.0,-1.0,105.0,-79.0,127.0,127.0,127.0,-113.0,-84.0,118.0
127.0,127.0,127.0,127.0,126.0,127.0,127.0,128.0,-1.0,105.0,-79.0,127.0,127.0,127.0,-113.0,-84.0,118.0
127.0,127.0,127.0,127.0,126.0,127.0,127.0,128.0,-1.0,105.0,-79.0,127.0,127.0,127.0,-113.0,-84.0,118.0
127.0,127.0,127.0,127.0,126.0,128.0,127.0,128.0,-1.0,105.0,-79.0,127.0,127.0,127.0,-113.0,-84.0,118.0
127.0,127.0,127.0,127.0,126.0,126.0,127.0,128.0,-1.0,105.0,-79.0,127.0,127.0,127.0,-113.0,-84.0,118.0
127.0,127.0,127.0,127.0,126.0,127.0,127.0,127.0,-1.0,105.0,-79.0,127.0,127.0,127.0,-113.0,-84.0,118.0
127.0,127.0,127.0,127.0,126.0,127.0,127.0,127.0,-1.0,105.0,-79.0,127.0,127.0,127.0,-113.0,-84.0,118.0
127.0,127.0,127.0,127.0,126.0,127.0,127.0,127.0,-1.0,105.0,-79.0,127.0,127.0,127.0,-113.0,-84.0,118.0
127.0,127.0,127.0,127.0,126.0,127.0,127.0,127.0,-1.0,105.0,-79.0,127.0,127.0,127.0,-113.0,-84.0,118.0
127.0,127.0,127.0,127.0,126.0,127.0,127.0,127.0,-1.0,105.0,-79.0,127.0,127.0,127.0,-113.0,-84.0,118.0
127.0,127.0,127.0,127.0,126.0,128.0,127.0,127.0,-1.0,105.0,-79.0,127.0,127.0,127.0,-113.0,-84.0,118.0
127.0,127.0,127.0,127.0,126.0,128.0,127.0,127.0,-1.0,105.0,-79.0,127.0,127.0,127.0,-113.0,-84.0,118.0
127.0,127.0,127.0,127.0,126.0,128.0,127.0,127.0,-1.0,105.0,-79.0,127.0,127.0,127.0,-113.0,-84.0,118.0
127.0,127.0,127.0,127.0,126.0,126.0,127.0,127.0,-1.0,105.0,-79.0,127.0,127.0,127.0,-113.0,-84.0,118.0
127.0,127.0,127.0,127.0,126.0,127.0,127.0,127.0,-1.0,105.0,-79.0,127.0,127.0,127.0,-113.0,-84.0,118.0
127.0,128.0,127.0,127.0,126.0,127.0,127.0,126.0,-1.0,105.0,-80.0,127.0,127.0,127.0,-113.0,-84.0,118.0
127.0,127.0,127.0,127.0,126.0,127.0,127.0,126.0,-1.0,105.0,-80.0,127.0,127.0,127.0,-113.0,-84.0,118.0
127.0,127.0,127.0,127.0,126.0,127.0,127.0,126.0,-1.0,105.0,-80.0,127.0,127.0,127.0,-113.0,-84.0,118.0
127.0,127.0,127.0,127.0,126.0,127.0,127.0,126.0,-1.0,105.0,-80.0,127.0,127.0,127.0,-113.0,-84.0,118.0
127.0,127.0,127.0,127.0,126.0,127.0,127.0,126.0,-1.0,105.0,-80.0,127.0,127.0,127.0,-113.0,-84.0,118.0
127.0,127.0,127.0,127.0,126.0,127.0,127.0,126.0,-1.0,105.0,-80.0,127.0,127.0,127.0,-113.0,-84.0,118.0
127.0,128.0,127.0,127.0,126.0,128.0,127.0,126.0,-1.0,105.0,-80.0,127.0,127.0,127.0,-113.0,-84.0,118.0
127.0,127.0,127.0,127.0,126.0,126.0,127.0,125.0,-1.0,105.0,-80.0,127.0,127.0,127.0,-113.0,-84.0,118.0
127.0,127.0,127.0,127.0,126.0,126.0,127.0,125.0,-1.0,105.0,-80.0,127.0,127.0,127.0,-113.0,-84.0,118.0
127.0,127.0,127.0,127.0,126.0,127.0,127.0,126.0,-1.0,105.0,-80.0,127.0,127.0,127.0,-113.0,-84.0,118.0
127.0,128.0,127.0,127.0,126.0,127.0,127.0,125.0,-1.0,105.0,-80.0,127.0,127.0,127.0,-113.0,-84.0,118.0
127.0,128.0,127.0,127.0,126.0,127.0,127.0,125.0,-1.0,105.0,-80.0,127.0,127.0,127.0,-113.0,-84.0,118.0
127.0,128.0,127.0,127.0,126.0,127.0,127.0,125.0,-1.0,105.0,-80.0,127.0,127.0,127.0,-113.0,-84.0,118.0
127.0,128.0,127.0,127.0,126.0,127.0,127.0,125.0,-1.0,105.0,-80.0,127.0,127.0,127.0,-113.0,-84.0,118.0
127.0,127.0,127.0,127.0,126.0,127.0,127.0,125.0,-1.0,105.0,-80.0,127.0,127.0,127.0,-113.0,-84.0,118.0
127.0,128.0,127.0,127.0,126.0,128.0,127.0,125.0,-1.0,105.0,-80.0,127.0,127.0,127.0,-113.0,-84.0,118.0
127.0,127.0,127.0,127.0,126.0,126.0,127.0,124.0,-1.0,105.0,-80.0,127.0,127.0,127.0,-113.0,-84.0,118.0
127.0,127.0,127.0,127.0,126.0,126.0,127.0,124.0,-1.0,105.0,-80.0,127.0,127.0,127.0,-113.0,-84.0,118.0
127.0,127.0,126.0,127.0,126.0,126.0,127.0,125.0,-1.0,105.0,-80.0,127.0,127.0,127.0,-113.0,-84.0,118.0
127.0,128.0,127.0,127.0,126.0,127.0,127.0,125.0,-1.0,105.0,-80.0,127.0,127.0,127.0,-113.0,-84.0,118.0
127.0,127.0,127.0,127.0,126.0,126.0,127.0,125.0,-1.0,105.0,-80.0,127.0,127.0,127.0,-113.0,-84.0,118.0
127.0,127.0,127.0,127.0,126.0,126.0,127.0,125.0,-1.0,105.0,-80.0,127.0,127.0,127.0,-113.0,-84.0,118.0
127.0,127.0,127.0,127.0,126.0,126.0,127.0,125.0,-1.0,105.0,-80.0,127.0,127.0,127.0,-113.0,-84.0,118.0
127.0,127.0,127.0,127.0,126.0,126.0,127.0,125.0,-1.0,105.0,-80.0,127.0,127.0,127.0,-113.0,-84.0,118.0
127.0,127.0,127.0,127.0,126.0,126.0,127.0,125.0,-1.0,105.0,-80.0,127.0,127.0,127.0,-113.0,-84.0,118.0
127.0,127.0,127.0,127.0,126.0,126.0,127.0,125.0,-1.0,105.0,-80.0,127.0,127.0,127.0,-113.0,-84.0,118.0
127.0,127.0,127.0,127.0,126.0,126.0,127.0,125.0,-1.0,105.0,-80.0,127.0,127.0,127.0,-113.0,-84.0,118.0
127.0,127.0,126.0,127.0,126.0,126.0,127.0,125.0,-1.0,105.0,-80.0,127.0,127.0,127.0,-113.0,-84.0,118.0
127.0,127.0,127.0,127.0,126.0,126.0,127.0,125.0,-1.0,105.0,-80.0,127.0,127.0,127.0,-113.0,-84.0,118.0
127.0,127.0,127.0,127.0,126.0,126.0,127.0,125.0,-1.0,105.0,-80.0,127.0,127.0,127.0,-113.0,-84.0,118.0
127.0,128.0,126.0,127.0,126.0,128.0,127.0,126.0,-1.0,105.0,-80.0,127.0,127.0,127.0,-113.0,-84.0,118.0
127.0,128.0,126.0,127.0,126.0,128.0,127.0,126.0,-1.0,105.0,-80.0,127.0,127.0,127.0,-113.0,-84.0,118.0
127.0,128.0,127.0,127.0,126.0,128.0,127.0,126.0,-1.0,105.0,-80.0,127.0,127.0,127.0,-113.0,-84.0,118.0
127.0,128.0,127.0,127.0,127.0,128.0,127.0,126.0,-1.0,105.0,-80.0,127.0,127.0,127.0,-113.0,-84.0,118.0
127.0,127.0,126.0,127.0,126.0,127.0,127.0,126.0,-1.0,105.0,-80.0,127.0,127.0,127.0,-113.0,-84.0,118.0
127.0,128.0,127.0,127.0,126.0,127.0,127.0,126.0,-1.0,105.0,-80.0,127.0,127.0,127.0,-113.0,-84.0,118.0
127.0,127.0,127.0,127.0,126.0,127.0,127.0,126.0,-1.0,105.0,-80.0,127.0,127.0,127.0,-113.0,-84.0,118.0
127.0,127.0,127.0,127.0,126.0,127.0,127.0,126.0,-1.0,105.0,-80.0,127.0,127.0,127.0,-113.0,-84.0,118.0
127.0,127.0,127.0,127.0,126.0,127.0,127.0,126.0,-1.0,105.0,-80.0,127.0,127.0,127.0,-113.0,-84.0,118.0
127.0,127.0,127.0,127.0,126.0,127.0,127.0,126.0,-1.0,105.0,-80.0,127.0,127.0,127.0,-113.0,-84.0,118.0
127.0,127.0,127.0,127.0,126.0,128.0,127.0,126.0,-1.0,105.0,-80.0,127.0,127.0,127.0,-113.0,-84.0,118.0
127.0,127.0,127.0,127.0,126.0,127.0,127.0,126.0,-1.0,105.0,-80.0,127.0,127.0,127.0,-113.0,-84.0,118.0
127.0,127.0,127.0,127.0,126.0,127.0,127.0,126.0,-1.0,105.0,-80.0,127.0,127.0,127.0,-113.0,-84.0,118.0
127.0,127.0,127.0,127.0,126.0,127.0,127.0,126.0,-1.0,105.0,-80.0,127.0,127.0,127.0,-113.0,-84.0,118.0
127.0,127.0,127.0,127.0,126.0,127.0,127.0,126.0,-1.0,105.0,-80.0,127.0,127.0,127.0,-113.0,-84.0,118.0
127.0,127.0,127.0,127.0,126.0,127.0,127.0,126.0,-1.0,105.0,-80.0,127.0,127.0,127.0,-113.0,-84.0,118.0
127.0,127.0,127.0,127.0,126.0,127.0,127.0,126.0,-1.0,105.0,-80.0,127.0,127.0,127.0,-113.0,-84.0,118.0
127.0,127.0,127.0,127.0,126.0,127.0,127.0,126.0,-1.0,105.0,-80.0,127.0,127.0,127.0,-113.0,-84.0,118.0
127.0,127.0,127.0,127.0,126.0,127.0,127.0,126.0,-1.0,105.0,-80.0,127.0,127.0,127.0,-113.0,-84.0,118.0
127.0,127.0,127.0,127.0,126.0,127.0,127.0,126.0,-1.0,105.0,-80.0,127.0,127.0,127.0,-113.0,-84.0,118.0
127.0,127.0,126.0,127.0,126.0,128.0,127.0,127.0,-1.0,105.0,-80.0,127.0,127.0,127.0,-113.0,-84.0,118.0
127.0,127.0,126.0,127.0,127.0,128.0,127.0,127.0,-1.0,105.0,-80.0,127.0,127.0,127.0,-113.0,-84.0,118.0
127.0,127.0,126.0,127.0,126.0,127.0,127.0,126.0,-1.0,105.0,-80.0,127.0,127.0,127.0,-113.0,-84.0,118.0
127.0,127.0,126.0,127.0,126.0,127.0,127.0,126.0,-1.0,105.0,-80.0,127.0,127.0,127.0,-113.0,-84.0,118.0
127.0,127.0,126.0,127.0,126.0,127.0,127.0,126.0,-1.0,105.0,-80.0,127.0,127.0,127.0,-113.0,-84.0,118.0
127.0,127.0,126.0,127.0,127.0,127.0,127.0,126.0,-1.0,105.0,-80.0,127.0,127.0,127.0,-113.0,-84.0,118.0
127.0,127.0,126.0,127.0,127.0,127.0,127.0,126.0,-1.0,105.0,-80.0,127.0,127.0,127.0,-113.0,-84.0,118.0
127.0,127.0,126.0,127.0,127.0,127.0,127.0,127.0,-1.0,105.0,-80.0,127.0,127.0,127.0,-113.0,-84.0,118.0
127.0,127.0,126.0,127.0,126.0,127.0,127.0,127.0,-1.0,105.0,-80.0,127.0,127.0,127.0,-113.0,-84.0,118.0
127.0,127.0,126.0,127.0,126.0,128.0,127.0,127.0,-1.0,105.0,-80.0,127.0,127.0,127.0,-113.0,-84.0,118.0
127.0,127.0,127.0,127.0,126.0,128.0,127.0,127.0,-1.0,105.0,-80.0,127.0,127.0,127.0,-113.0,-84.0,118.0
127.0,127.0,126.0,127.0,126.0,127.0,127.0,126.0,-1.0,105.0,-80.0,127.0,127.0,127.0,-113.0,-84.0,118.0
127.0,127.0,126.0,127.0,126.0,127.0,127.0,126.0,-1.0,105.0,-80.0,127.0,127.0,127.0,-113.0,-84.0,118.0
127.0,127.0,127.0,127.0,126.0,127.0,127.0,126.0,-1.0,105.0,-80.0,127.0,127.0,127.0,-113.0,-84.0,118.0
127.0,127.0,127.0,127.0,126.0,127.0,127.0,126.0,-1.0,105.0,-80.0,127.0,127.0,127.0,-113.0,-84.0,118.0
127.0,127.0,127.0,127.0,126.0,127.0,127.0,126.0,-1.0,105.0,-80.0,127.0,127.0,127.0,-113.0,-84.0,118.0
127.0,127.0,127.0,127.0,126.0,127.0,127.0,126.0,-1.0,105.0,-80.0,127.0,127.0,127.0,-113.0,-84.0,118.0
127.0,127.0,127.0,127.0,126.0,127.0,127.0,126.0,-1.0,105.0,-80.0,127.0,127.0,127.0,-113.0,-84.0,118.0
127.0,127.0,127.0,127.0,126.0,128.0,127.0,127.0,-1.0,105.0,-80.0,127.0,127.0,127.0,-113.0,-84.0,118.0
127.0,127.0,127.0,127.0,126.0,128.0,127.0,127.0,-1.0,105.0,-80.0,127.0,127.0,127.0,-113.0,-84.0,118.0
127.0,127.0,126.0,126.0,126.0,127.0,127.0,126.0,-1.0,105.0,-80.0,127.0,127.0,127.0,-113.0,-84.0,118.0
127.0,127.0,126.0,127.0,126.0,127.0,127.0,127.0,-1.0,105.0,-80.0,127.0,127.0,127.0,-113.0,-84.0,118.0
127.0,127.0,126.0,127.0,126.0,127.0,127.0,127.0,-1.0,105.0,-80.0,127.0,127.0,127.0,-113.0,-84.0,118.0
127.0,127.0,126.0,127.0,126.0,127.0,127.0,127.0,-1.0,105.0,-80.0,127.0,127.0,127.0,-113.0,-84.0,118.0
127.0,127.0,126.0,127.0,126.0,127.0,127.0,127.0,-1.0,105.0,-80.0,127.0,127.0,127.0,-113.0,-84.0,118.0
127.0,127.0,127.0,127.0,126.0,127.0,127.0,127.0,-1.0,105.0,-80.0,127.0,127.0,127.0,-113.0,-84.0,118.0
127.0,127.0,126.0,127.0,126.0,127.0,127.0,127.0,-1.0,105.0,-80.0,127.0,127.0,127.0,-113.0,-84.0,118.0
127.0,127.0,126.0,127.0,126.0,128.0,127.0,127.0,-1.0,105.0,-80.0,127.0,127.0,127.0,-113.0,-84.0,118.0
127.0,127.0,126.0,127.0,126.0,128.0,127.0,127.0,-1.0,105.0,-80.0,127.0,127.0,127.0,-113.0,-84.0,118.0
127.0,127.0,126.0,127.0,126.0,128.0,127.0,127.0,-1.0,105.0,-80.0,127.0,127.0,127.0,-113.0,-84.0,118.0
127.0,127.0,126.0,127.0,126.0,127.0,127.0,127.0,-1.0,105.0,-80.0,127.0,127.0,127.0,-113.0,-84.0,118.0
127.0,127.0,126.0,127.0,126.0,127.0,127.0,127.0,-1.0,105.0,-80.0,127.0,127.0,127.0,-113.0,-84.0,118.0
127.0,127.0,126.0,127.0,126.0,127.0,127.0,127.0,-1.0,105.0,-80.0,127.0,127.0,127.0,-113.0,-84.0,118.0
127.0,127.0,127.0,127.0,126.0,127.0,127.0,127.0,-1.0,105.0,-80.0,127.0,127.0,127.0,-113.0,-84.0,118.0
127.0,127.0,127.0,127.0,126.0,127.0,127.0,127.0,-1.0,105.0,-80.0,127.0,127.0,127.0,-113.0,-84.0,118.0
127.0,127.0,126.0,127.0,126.0,127.0,126.0,127.0,-1.0,105.0,-80.0,127.0,127.0,127.0,-113.0,-84.0,118.0
127.0,127.0,126.0,127.0,126.0,128.0,126.0,127.0,-1.0,105.0,-80.0,127.0,127.0,127.0,-113.0,-84.0,118.0
127.0,127.0,126.0,127.0,126.0,128.0,126.0,127.0,-1.0,105.0,-80.0,127.0,127.0,127.0,-113.0,-84.0,118.0
127.0,127.0,127.0,127.0,126.0,128.0,126.0,127.0,-1.0,105.0,-80.0,127.0,127.0,127.0,-113.0,-84.0,118.0
127.0,127.0,126.0,127.0,126.0,127.0,127.0,127.0,-1.0,105.0,-80.0,127.0,127.0,127.0,-113.0,-84.0,118.0
127.0,127.0,126.0,127.0,126.0,127.0,127.0,127.0,-1.0,105.0,-80.0,127.0,127.0,127.0,-113.0,-84.0,118.0
127.0,127.0,126.0,127.0,126.0,127.0,127.0,127.0,-1.0,105.0,-80.0,127.0,127.0,127.0,-113.0,-84.0,118.0
127.0,127.0,127.0,127.0,126.0,127.0,127.0,127.0,-1.0,105.0,-80.0,127.0,127.0,127.0,-113.0,-84.0,118.0
127.0,127.0,127.0,127.0,126.0,127.0,127.0,127.0,-1.0,105.0,-80.0,127.0,127.0,127.0,-113.0,-84.0,118.0
127.0,127.0,127.0,127.0,126.0,127.0,127.0,127.0,-1.0,105.0,-80.0,127.0,127.0,127.0,-113.0,-84.0,118.0
127.0,127.0,126.0,127.0,126.0,128.0,127.0,128.0,-1.0,105.0,-80.0,127.0,127.0,127.0,-113.0,-84.0,118.0
127.0,127.0,126.0,127.0,126.0,128.0,127.0,128.0,-1.0,105.0,-80.0,127.0,127.0,127.0,-113.0,-84.0,118.0
127.0,127.0,126.0,127.0,126.0,128.0,127.0,128.0,-1.0,105.0,-80.0,127.0,127.0,127.0,-113.0,-84.0,118.0
127.0,127.0,126.0,127.0,126.0,126.0,127.0,127.0,-1.0,105.0,-80.0,127.0,127.0,127.0,-113.0,-84.0,118.0
127.0,127.0,126.0,127.0,126.0,127.0,127.0,127.0,-1.0,105.0,-80.0,127.0,127.0,127.0,-113.0,-84.0,118.0
127.0,127.0,127.0,127.0,126.0,126.0,127.0,127.0,-1.0,105.0,-80.0,127.0,127.0,127.0,-113.0,-84.0,118.0
127.0,127.0,127.0,127.0,127.0,126.0,127.0,127.0,-1.0,105.0,-80.0,127.0,127.0,127.0,-113.0,-84.0,118.0
127.0,127.0,127.0,127.0,126.0,126.0,127.0,127.0,-1.0,105.0,-80.0,127.0,127.0,127.0,-113.0,-84.0,118.0
127.0,127.0,127.0,127.0,127.0,126.0,127.0,127.0,-1.0,105.0,-80.0,127.0,127.0,127.0,-113.0,-84.0,118.0
127.0,127.0,127.0,127.0,127.0,126.0,127.0,127.0,-1.0,105.0,-80.0,127.0,127.0,127.0,-113.0,-84.0,118.0
127.0,127.0,127.0,127.0,127.0,126.0,127.0,127.0,-1.0,105.0,-80.0,127.0,127.0,127.0,-113.0,-84.0,118.0
126.0,127.0,127.0,127.0,126.0,126.0,127.0,127.0,-1.0,105.0,-80.0,127.0,127.0,127.0,-113.0,-84.0,118.0
127.0,127.0,127.0,127.0,126.0,126.0,127.0,127.0,-1.0,105.0,-80.0,127.0,127.0,127.0,-113.0,-84.0,118.0
127.0,127.0,127.0,127.0,126.0,126.0,127.0,127.0,-1.0,105.0,-80.0,127.0,127.0,127.0,-113.0,-84.0,118.0
127.0,127.0,127.0,127.0,126.0,126.0,127.0,127.0,-1.0,105.0,-80.0,127.0,127.0,127.0,-113.0,-84.0,118.0
127.0,128.0,126.0,127.0,126.0,127.0,127.0,128.0,-1.0,105.0,-80.0,127.0,127.0,127.0,-113.0,-84.0,118.0
127.0,128.0,126.0,127.0,126.0,127.0,127.0,128.0,-1.0,105.0,-80.0,127.0,127.0,127.0,-113.0,-84.0,118.0
127.0,128.0,126.0,127.0,126.0,127.0,127.0,128.0,-1.0,105.0,-80.0,127.0,127.0,127.0,-113.0,-84.0,118.0
127.0,128.0,127.0,127.0,126.0,127.0,127.0,128.0,-1.0,105.0,-80.0,127.0,127.0,127.0,-113.0,-84.0,118.0
127.0,127.0,127.0,127.0,126.0,127.0,127.0,128.0,-1.0,105.0,-80.0,127.0,127.0,127.0,-113.0,-84.0,118.0
127.0,127.0,127.0,127.0,126.0,127.0,127.0,128.0,-1.0,105.0,-80.0,127.0,127.0,127.0,-113.0,-84.0,118.0
127.0,128.0,127.0,127.0,126.0,127.0,127.0,128.0,-1.0,105.0,-80.0,127.0,127.0,127.0,-113.0,-84.0,118.0
127.0,128.0,127.0,127.0,126.0,127.0,127.0,128.0,-1.0,105.0,-80.0,127.0,127.0,127.0,-113.0,-84.0,118.0
127.0,128.0,126.0,127.0,126.0,127.0,127.0,128.0,-1.0,105.0,-80.0,127.0,127.0,127.0,-113.0,-84.0,118.0
127.0,127.0,126.0,127.0,126.0,127.0,127.0,128.0,-1.0,105.0,-80.0,127.0,127.0,127.0,-113.0,-84.0,118.0
127.0,127.0,127.0,127.0,126.0,127.0,127.0,129.0,-1.0,105.0,-80.0,127.0,127.0,127.0,-113.0,-84.0,118.0
127.0,127.0,127.0,127.0,126.0,127.0,127.0,128.0,-1.0,105.0,-80.0,127.0,127.0,127.0,-113.0,-84.0,118.0
127.0,127.0,127.0,127.0,126.0,128.0,127.0,129.0,-1.0,105.0,-80.0,127.0,127.0,127.0,-113.0,-84.0,118.0
127.0,127.0,127.0,127.0,126.0,128.0,127.0,129.0,-1.0,105.0,-80.0,127.0,127.0,127.0,-113.0,-84.0,118.0
127.0,127.0,127.0,127.0,126.0,128.0,127.0,129.0,-1.0,105.0,-80.0,127.0,127.0,127.0,-113.0,-84.0,118.0
127.0,127.0,127.0,127.0,126.0,127.0,127.0,128.0,-1.0,105.0,-80.0,127.0,127.0,127.0,-113.0,-84.0,118.0
127.0,127.0,127.0,127.0,126.0,126.0,127.0,128.0,-1.0,105.0,-80.0,127.0,127.0,127.0,-113.0,-84.0,118.0
127.0,127.0,127.0,127.0,126.0,127.0,127.0,128.0,-1.0,105.0,-80.0,127.0,127.0,127.0,-113.0,-84.0,118.0
127.0,127.0,127.0,127.0,126.0,127.0,127.0,128.0,-1.0,105.0,-80.0,127.0,127.0,127.0,-113.0,-84.0,118.0
127.0,127.0,127.0,127.0,126.0,127.0,127.0,128.0,-1.0,105.0,-80.0,127.0,127.0,127.0,-113.0,-84.0,118.0
127.0,127.0,127.0,127.0,126.0,126.0,126.0,128.0,-1.0,105.0,-80.0,127.0,127.0,127.0,-113.0,-84.0,118.0
127.0,127.0,127.0,127.0,126.0,126.0,126.0,128.0,-1.0,105.0,-80.0,127.0,127.0,127.0,-113.0,-84.0,118.0
127.0,127.0,127.0,127.0,126.0,127.0,126.0,128.0,-1.0,105.0,-80.0,127.0,127.0,127.0,-113.0,-84.0,118.0
127.0,127.0,127.0,127.0,126.0,127.0,126.0,128.0,-1.0,105.0,-80.0,127.0,127.0,127.0,-113.0,-84.0,118.0
127.0,127.0,127.0,127.0,126.0,126.0,126.0,128.0,-1.0,105.0,-80.0,127.0,127.0,127.0,-113.0,-84.0,118.0
127.0,127.0,127.0,127.0,126.0,126.0,126.0,128.0,-1.0,105.0,-80.0,127.0,127.0,127.0,-113.0,-84.0,118.0
127.0,127.0,126.0,127.0,126.0,127.0,126.0,128.0,-1.0,105.0,-80.0,127.0,127.0,127.0,-113.0,-84.0,118.0
127.0,127.0,127.0,127.0,126.0,126.0,126.0,128.0,-1.0,105.0,-80.0,127.0,127.0,127.0,-113.0,-84.0,118.0
127.0,127.0,127.0,127.0,126.0,126.0,126.0,128.0,-1.0,105.0,-80.0,127.0,127.0,127.0,-113.0,-84.0,118.0
127.0,127.0,127.0,127.0,126.0,126.0,126.0,128.0,-1.0,105.0,-80.0,127.0,127.0,127.0,-113.0,-84.0,118.0
127.0,128.0,127.0,128.0,127.0,130.0,129.0,128.0,-1.0,105.0,-80.0,127.0,127.0,127.0,-113.0,-84.0,118.0
127.0,128.0,127.0,128.0,127.0,131.0,129.0,128.0,-1.0,105.0,-80.0,127.0,127.0,127.0,-113.0,-84.0,118.0
127.0,128.0,127.0,128.0,127.0,130.0,129.0,128.0,-1.0,105.0,-80.0,127.0,127.0,127.0,-113.0,-84.0,118.0
127.0,129.0,127.0,128.0,127.0,127.0,128.0,128.0,-1.0,105.0,-80.0,127.0,127.0,127.0,-113.0,-84.0,118.0
127.0,129.0,127.0,128.0,127.0,128.0,128.0,128.0,-1.0,105.0,-80.0,127.0,127.0,127.0,-113.0,-84.0,118.0
127.0,128.0,127.0,128.0,126.0,128.0,128.0,128.0,-1.0,105.0,-80.0,127.0,127.0,127.0,-113.0,-84.0,118.0
127.0,128.0,127.0,128.0,127.0,129.0,128.0,128.0,-1.0,105.0,-80.0,127.0,127.0,127.0,-113.0,-84.0,118.0
127.0,128.0,127.0,128.0,127.0,129.0,128.0,128.0,-1.0,105.0,-80.0,127.0,127.0,127.0,-113.0,-84.0,118.0
127.0,127.0,127.0,128.0,127.0,129.0,129.0,128.0,-1.0,105.0,-80.0,127.0,127.0,127.0,-113.0,-84.0,118.0
127.0,128.0,127.0,128.0,127.0,129.0,129.0,128.0,-1.0,105.0,-80.0,127.0,127.0,127.0,-113.0,-84.0,118.0
128.0,128.0,126.0,129.0,126.0,127.0,215.0,124.0,-1.0,105.0,-80.0,127.0,127.0,127.0,-113.0,-84.0,118.0
128.0,129.0,127.0,129.0,126.0,126.0,217.0,124.0,-1.0,105.0,-80.0,127.0,127.0,127.0,-113.0,-84.0,118.0
127.0,129.0,127.0,129.0,127.0,123.0,198.0,126.0,-1.0,105.0,-80.0,127.0,127.0,127.0,-113.0,-84.0,118.0
127.0,129.0,127.0,129.0,127.0,124.0,201.0,125.0,-1.0,105.0,-80.0,127.0,127.0,127.0,-113.0,-84.0,118.0
127.0,129.0,127.0,129.0,126.0,126.0,203.0,125.0,-1.0,105.0,-80.0,127.0,127.0,127.0,-113.0,-84.0,118.0
128.0,129.0,127.0,129.0,126.0,127.0,205.0,125.0,-1.0,105.0,-80.0,127.0,127.0,127.0,-113.0,-84.0,118.0
128.0,129.0,127.0,129.0,126.0,128.0,207.0,124.0,-1.0,105.0,-80.0,127.0,127.0,127.0,-113.0,-84.0,118.0
128.0,128.0,127.0,129.0,126.0,128.0,209.0,124.0,-1.0,105.0,-80.0,127.0,127.0,127.0,-113.0,-84.0,118.0
128.0,127.0,127.0,129.0,126.0,128.0,211.0,124.0,-1.0,105.0,-80.0,127.0,127.0,127.0,-113.0,-84.0,118.0
128.0,128.0,126.0,129.0,126.0,127.0,213.0,124.0,-1.0,105.0,-80.0,127.0,127.0,127.0,-113.0,-84.0,118.0
124.0,126.0,123.0,131.0,119.0,108.0,155.0,119.0,-1.0,105.0,-79.0,127.0,127.0,127.0,-113.0,-84.0,118.0
128.0,127.0,124.0,131.0,121.0,116.0,201.0,119.0,-1.0,105.0,-79.0,127.0,127.0,127.0,-113.0,-84.0,118.0
128.0,127.0,124.0,131.0,121.0,116.0,195.0,119.0,-1.0,105.0,-79.0,127.0,127.0,127.0,-113.0,-84.0,118.0
127.0,127.0,124.0,131.0,121.0,115.0,190.0,119.0,-1.0,105.0,-79.0,127.0,127.0,127.0,-113.0,-84.0,118.0
126.0,127.0,124.0,132.0,121.0,113.0,184.0,119.0,-1.0,105.0,-79.0,127.0,127.0,127.0,-113.0,-84.0,118.0
125.0,127.0,124.0,132.0,121.0,111.0,179.0,119.0,-1.0,105.0,-79.0,127.0,127.0,127.0,-113.0,-84.0,118.0
124.0,127.0,124.0,132.0,121.0,109.0,174.0,118.0,-1.0,105.0,-79.0,127.0,127.0,127.0,-113.0,-84.0,118.0
124.0,127.0,124.0,132.0,121.0,108.0,169.0,118.0,-1.0,105.0,-79.0,127.0,127.0,127.0,-113.0,-84.0,118.0
124.0,127.0,124.0,131.0,121.0,107.0,164.0,118.0,-1.0,105.0,-79.0,127.0,127.0,127.0,-113.0,-84.0,118.0
124.0,127.0,123.0,131.0,120.0,108.0,160.0,119.0,-1.0,105.0,-79.0,127.0,127.0,127.0,-113.0,-84.0,118.0
132.0,116.0,117.0,120.0,122.0,112.0,80.0,135.0,-1.0,106.0,-78.0,126.0,127.0,127.0,-113.0,-84.0,118.0
131.0,115.0,117.0,119.0,122.0,112.0,82.0,135.0,-1.0,106.0,-78.0,126.0,127.0,127.0,-113.0,-84.0,118.0
130.0,115.0,117.0,119.0,121.0,112.0,84.0,136.0,-1.0,106.0,-78.0,126.0,127.0,127.0,-113.0,-84.0,118.0
130.0,114.0,117.0,118.0,121.0,112.0,86.0,137.0,-1.0,106.0,-78.0,126.0,127.0,127.0,-113.0,-84.0,118.0
129.0,113.0,117.0,118.0,121.0,112.0,88.0,137.0,-1.0,106.0,-78.0,126.0,127.0,127.0,-113.0,-84.0,118.0
128.0,112.0,117.0,118.0,121.0,113.0,90.0,137.0,-1.0,106.0,-78.0,126.0,127.0,127.0,-113.0,-84.0,118.0
128.0,111.0,116.0,117.0,121.0,113.0,92.0,138.0,-1.0,106.0,-78.0,126.0,127.0,127.0,-113.0,-84.0,118.0
128.0,110.0,116.0,117.0,121.0,113.0,94.0,138.0,-1.0,106.0,-78.0,126.0,127.0,127.0,-113.0,-84.0,118.0
128.0,110.0,115.0,116.0,121.0,113.0,96.0,139.0,-1.0,106.0,-78.0,126.0,127.0,127.0,-113.0,-84.0,118.0
128.0,108.0,114.0,116.0,121.0,113.0,99.0,139.0,-1.0,106.0,-78.0,126.0,127.0,127.0,-113.0,-84.0,118.0
126.0,122.0,126.0,118.0,128.0,101.0,131.0,145.0,-1.0,108.0,-79.0,127.0,127.0,127.0,-113.0,-84.0,118.0
125.0,123.0,126.0,119.0,128.0,100.0,130.0,145.0,-1.0,108.0,-79.0,127.0,127.0,127.0,-113.0,-84.0,118.0
125.0,123.0,126.0,119.0,128.0,99.0,129.0,145.0,-1.0,108.0,-79.0,127.0,127.0,127.0,-113.0,-84.0,118.0
125.0,124.0,127.0,118.0,128.0,98.0,128.0,145.0,-1.0,108.0,-79.0,127.0,127.0,127.0,-113.0,-84.0,118.0
125.0,124.0,127.0,119.0,128.0,96.0,126.0,146.0,-1.0,108.0,-79.0,127.0,127.0,127.0,-113.0,-84.0,118.0
124.0,125.0,127.0,119.0,127.0,95.0,124.0,146.0,-1.0,108.0,-79.0,127.0,127.0,127.0,-113.0,-84.0,118.0
124.0,126.0,128.0,119.0,127.0,94.0,122.0,146.0,-1.0,108.0,-79.0,127.0,127.0,127.0,-113.0,-84.0,118.0
124.0,127.0,128.0,119.0,127.0,93.0,120.0,147.0,-1.0,108.0,-79.0,127.0,127.0,127.0,-113.0,-84.0,118.0
125.0,128.0,128.0,119.0,127.0,91.0,117.0,148.0,-1.0,108.0,-79.0,127.0,127.0,127.0,-113.0,-84.0,118.0
126.0,122.0,125.0,118.0,128.0,102.0,131.0,145.0,-1.0,108.0,-79.0,127.0,127.0,127.0,-113.0,-84.0,118.0
129.0,129.0,138.0,142.0,130.0,102.0,104.0,157.0,-1.0,107.0,-80.0,126.0,127.0,127.0,-113.0,-84.0,118.0
129.0,128.0,138.0,144.0,130.0,106.0,108.0,157.0,-1.0,107.0,-80.0,126.0,127.0,127.0,-113.0,-84.0,118.0
129.0,127.0,137.0,146.0,130.0,110.0,112.0,157.0,-1.0,107.0,-80.0,126.0,127.0,127.0,-113.0,-84.0,118.0
129.0,127.0,137.0,148.0,130.0,114.0,117.0,157.0,-1.0,107.0,-80.0,126.0,127.0,127.0,-113.0,-84.0,118.0
129.0,126.0,136.0,150.0,130.0,117.0,121.0,157.0,-1.0,107.0,-80.0,126.0,127.0,127.0,-113.0,-84.0,118.0
130.0,126.0,136.0,152.0,130.0,120.0,126.0,157.0,-1.0,107.0,-80.0,126.0,127.0,127.0,-113.0,-84.0,118.0
130.0,125.0,136.0,154.0,131.0,123.0,131.0,158.0,-1.0,107.0,-80.0,126.0,127.0,127.0,-113.0,-84.0,118.0
129.0,132.0,139.0,138.0,128.0,91.0,94.0,157.0,-1.0,107.0,-80.0,126.0,127.0,127.0,-113.0,-84.0,118.0
129.0,131.0,139.0,139.0,129.0,95.0,97.0,157.0,-1.0,107.0,-80.0,126.0,127.0,127.0,-113.0,-84.0,118.0
129.0,130.0,139.0,141.0,129.0,98.0,100.0,157.0,-1.0,107.0,-80.0,126.0,127.0,127.0,-113.0,-84.0,118.0
139.0,129.0,129.0,166.0,128.0,116.0,228.0,154.0,-1.0,106.0,-79.0,126.0,127.0,127.0,-113.0,-84.0,118.0
139.0,129.0,128.0,164.0,128.0,115.0,228.0,154.0,-1.0,106.0,-79.0,126.0,127.0,127.0,-113.0,-84.0,118.0
140.0,130.0,128.0,163.0,127.0,114.0,227.0,153.0,-1.0,106.0,-79.0,126.0,127.0,127.0,-113.0,-84.0,118.0
140.0,131.0,128.0,162.0,126.0,114.0,226.0,153.0,-1.0,106.0,-79.0,126.0,127.0,127.0,-113.0,-84.0,118.0
141.0,131.0,128.0,160.0,126.0,114.0,225.0,153.0,-1.0,106.0,-79.0,126.0,127.0,127.0,-113.0,-84.0,118.0
141.0,132.0,128.0,159.0,125.0,113.0,225.0,153.0,-1.0,106.0,-79.0,126.0,127.0,127.0,-113.0,-84.0,118.0
137.0,127.0,129.0,170.0,131.0,119.0,233.0,156.0,-1.0,106.0,-79.0,126.0,127.0,127.0,-113.0,-84.0,118.0
138.0,128.0,129.0,169.0,130.0,119.0,231.0,156.0,-1.0,106.0,-79.0,126.0,127.0,127.0,-113.0,-84.0,118.0
138.0,128.0,129.0,168.0,130.0,118.0,230.0,155.0,-1.0,106.0,-79.0,126.0,127.0,127.0,-113.0,-84.0,118.0
139.0,128.0,129.0,167.0,129.0,117.0,229.0,155.0,-1.0,106.0,-79.0,126.0,127.0,127.0,-113.0,-84.0,118.0
136.0,137.0,133.0,147.0,129.0,146.0,187.0,150.0,-1.0,103.0,-79.0,125.0,127.0,127.0,-113.0,-84.0,118.0
136.0,137.0,133.0,147.0,129.0,147.0,186.0,150.0,-1.0,103.0,-79.0,125.0,127.0,127.0,-113.0,-84.0,118.0
137.0,136.0,133.0,147.0,129.0,148.0,185.0,151.0,-1.0,103.0,-79.0,125.0,127.0,127.0,-113.0,-84.0,118.0
137.0,136.0,133.0,148.0,130.0,149.0,185.0,151.0,-1.0,103.0,-79.0,125.0,127.0,127.0,-113.0,-84.0,118.0
137.0,136.0,133.0,148.0,130.0,150.0,184.0,151.0,-1.0,103.0,-79.0,125.0,127.0,127.0,-113.0,-84.0,118.0
134.0,137.0,134.0,146.0,129.0,139.0,190.0,150.0,-1.0,103.0,-79.0,125.0,127.0,127.0,-113.0,-84.0,118.0
134.0,136.0,133.0,146.0,129.0,141.0,189.0,150.0,-1.0,103.0,-79.0,125.0,127.0,127.0,-113.0,-84.0,118.0
135.0,136.0,133.0,146.0,128.0,142.0,189.0,149.0,-1.0,103.0,-79.0,125.0,127.0,127.0,-113.0,-84.0,118.0
135.0,136.0,133.0,146.0,128.0,143.0,188.0,149.0,-1.0,103.0,-79.0,125.0,127.0,127.0,-113.0,-84.0,118.0
136.0,136.0,133.0,146.0,128.0,145.0,187.0,150.0,-1.0,103.0,-79.0,125.0,127.0,127.0,-113.0,-84.0,118.0
138.0,138.0,131.0,149.0,125.0,142.0,175.0,151.0,-1.0,100.0,-80.0,127.0,127.0,127.0,-113.0,-84.0,118.0
137.0,138.0,131.0,149.0,125.0,142.0,174.0,151.0,-1.0,100.0,-80.0,127.0,127.0,127.0,-113.0,-84.0,118.0
137.0,138.0,131.0,149.0,125.0,141.0,173.0,151.0,-1.0,100.0,-80.0,127.0,127.0,127.0,-113.0,-84.0,118.0
136.0,137.0,131.0,150.0,124.0,141.0,172.0,151.0,-1.0,100.0,-80.0,127.0,127.0,127.0,-113.0,-84.0,118.0
142.0,140.0,133.0,149.0,128.0,146.0,177.0,151.0,-1.0,100.0,-80.0,127.0,127.0,127.0,-113.0,-84.0,118.0
141.0,140.0,133.0,149.0,128.0,145.0,177.0,151.0,-1.0,100.0,-80.0,127.0,127.0,127.0,-113.0,-84.0,118.0
140.0,140.0,133.0,149.0,128.0,144.0,177.0,151.0,-1.0,100.0,-80.0,127.0,127.0,127.0,-113.0,-84.0,118.0
140.0,140.0,133.0,149.0,127.0,144.0,176.0,151.0,-1.0,100.0,-80.0,127.0,127.0,127.0,-113.0,-84.0,118.0
139.0,140.0,132.0,149.0,126.0,144.0,176.0,151.0,-1.0,100.0,-80.0,127.0,127.0,127.0,-113.0,-84.0,118.0
138.0,139.0,132.0,149.0,126.0,143.0,175.0,151.0,-1.0,100.0,-80.0,127.0,127.0,127.0,-113.0,-84.0,118.0
139.0,129.0,129.0,141.0,125.0,136.0,163.0,144.0,-1.0,102.0,-81.0,127.0,127.0,127.0,-113.0,-84.0,118.0
139.0,129.0,129.0,141.0,125.0,136.0,163.0,144.0,-1.0,102.0,-81.0,127.0,127.0,127.0,-113.0,-84.0,118.0
139.0,128.0,129.0,141.0,125.0,136.0,163.0,144.0,-1.0,102.0,-81.0,127.0,127.0,127.0,-113.0,-84.0,118.0
138.0,129.0,128.0,145.0,123.0,139.0,162.0,144.0,-1.0,102.0,-81.0,127.0,127.0,127.0,-113.0,-84.0,118.0
139.0,129.0,128.0,144.0,123.0,139.0,162.0,144.0,-1.0,102.0,-81.0,127.0,127.0,127.0,-113.0,-84.0,118.0
139.0,129.0,128.0,144.0,123.0,139.0,162.0,144.0,-1.0,102.0,-81.0,127.0,127.0,127.0,-113.0,-84.0,118.0
139.0,129.0,128.0,143.0,123.0,138.0,162.0,144.0,-1.0,102.0,-81.0,127.0,127.0,127.0,-113.0,-84.0,118.0
139.0,129.0,128.0,143.0,124.0,138.0,162.0,144.0,-1.0,102.0,-81.0,127.0,127.0,127.0,-113.0,-84.0,118.0
139.0,129.0,128.0,142.0,124.0,137.0,163.0,144.0,-1.0,102.0,-81.0,127.0,127.0,127.0,-113.0,-84.0,118.0
139.0,129.0,128.0,142.0,124.0,137.0,163.0,144.0,-1.0,102.0,-81.0,127.0,127.0,127.0,-113.0,-84.0,118.0
136.0,132.0,129.0,130.0,129.0,128.0,153.0,139.0,-1.0,104.0,-81.0,126.0,127.0,127.0,-113.0,-84.0,118.0
136.0,131.0,129.0,130.0,129.0,129.0,153.0,138.0,-1.0,104.0,-81.0,126.0,127.0,127.0,-113.0,-84.0,118.0
137.0,132.0,130.0,130.0,127.0,124.0,154.0,140.0,-1.0,104.0,-81.0,126.0,127.0,127.0,-113.0,-84.0,118.0
137.0,132.0,130.0,130.0,127.0,125.0,154.0,139.0,-1.0,104.0,-81.0,126.0,127.0,127.0,-113.0,-84.0,118.0
137.0,133.0,130.0,130.0,127.0,126.0,154.0,139.0,-1.0,104.0,-81.0,126.0,127.0,127.0,-113.0,-84.0,118.0
136.0,133.0,129.0,130.0,127.0,127.0,154.0,139.0,-1.0,104.0,-81.0,126.0,127.0,127.0,-113.0,-84.0,118.0
136.0,133.0,129.0,130.0,127.0,127.0,154.0,139.0,-1.0,104.0,-81.0,126.0,127.0,127.0,-113.0,-84.0,118.0
136.0,133.0,129.0,130.0,128.0,127.0,154.0,139.0,-1.0,104.0,-81.0,126.0,127.0,127.0,-113.0,-84.0,118.0
136.0,133.0,129.0,130.0,128.0,127.0,154.0,139.0,-1.0,104.0,-81.0,126.0,127.0,127.0,-113.0,-84.0,118.0
136.0,132.0,129.0,130.0,128.0,128.0,153.0,139.0,-1.0,104.0,-81.0,126.0,127.0,127.0,-113.0,-84.0,118.0
130.0,134.0,126.0,130.0,129.0,130.0,91.0,134.0,-1.0,104.0,-79.0,126.0,127.0,127.0,-113.0,-84.0,118.0
131.0,134.0,126.0,130.0,129.0,131.0,115.0,134.0,-1.0,104.0,-79.0,126.0,127.0,127.0,-113.0,-84.0,118.0
131.0,134.0,126.0,130.0,129.0,131.0,112.0,134.0,-1.0,104.0,-79.0,126.0,127.0,127.0,-113.0,-84.0,118.0
131.0,135.0,126.0,130.0,129.0,131.0,110.0,134.0,-1.0,104.0,-79.0,126.0,127.0,127.0,-113.0,-84.0,118.0
131.0,135.0,127.0,130.0,129.0,131.0,108.0,134.0,-1.0,104.0,-79.0,126.0,127.0,127.0,-113.0,-84.0,118.0
131.0,135.0,127.0,130.0,129.0,131.0,105.0,134.0,-1.0,104.0,-79.0,126.0,127.0,127.0,-113.0,-84.0,118.0
131.0,135.0,127.0,130.0,129.0,131.0,102.0,134.0,-1.0,104.0,-79.0,126.0,127.0,127.0,-113.0,-84.0,118.0
130.0,135.0,127.0,130.0,129.0,130.0,100.0,134.0,-1.0,104.0,-79.0,126.0,127.0,127.0,-113.0,-84.0,118.0
131.0,135.0,127.0,130.0,129.0,130.0,97.0,134.0,-1.0,104.0,-79.0,126.0,127.0,127.0,-113.0,-84.0,118.0
131.0,134.0,127.0,130.0,129.0,130.0,94.0,134.0,-1.0,104.0,-79.0,126.0,127.0,127.0,-113.0,-84.0,118.0
121.0,133.0,125.0,127.0,127.0,135.0,0.0,131.0,-1.0,103.0,-79.0,126.0,127.0,127.0,-113.0,-84.0,118.0
121.0,134.0,125.0,127.0,126.0,136.0,0.0,131.0,-1.0,103.0,-79.0,126.0,127.0,127.0,-113.0,-84.0,118.0
121.0,134.0,125.0,127.0,127.0,137.0,0.0,131.0,-1.0,103.0,-79.0,126.0,127.0,127.0,-113.0,-84.0,118.0
121.0,135.0,124.0,127.0,127.0,137.0,0.0,131.0,-1.0,103.0,-79.0,126.0,127.0,127.0,-113.0,-84.0,118.0
120.0,135.0,124.0,127.0,127.0,137.0,0.0,131.0,-1.0,103.0,-79.0,126.0,127.0,127.0,-113.0,-84.0,118.0
120.0,136.0,124.0,127.0,127.0,137.0,0.0,130.0,-1.0,103.0,-79.0,126.0,127.0,127.0,-113.0,-84.0,118.0
120.0,136.0,124.0,126.0,127.0,138.0,0.0,130.0,-1.0,103.0,-79.0,126.0,127.0,127.0,-113.0,-84.0,118.0
120.0,136.0,123.0,126.0,127.0,138.0,0.0,130.0,-1.0,103.0,-79.0,126.0,127.0,127.0,-113.0,-84.0,118.0
120.0,136.0,123.0,126.0,127.0,139.0,0.0,130.0,-1.0,103.0,-79.0,126.0,127.0,127.0,-113.0,-84.0,118.0
120.0,135.0,123.0,126.0,127.0,139.0,0.0,130.0,-1.0,103.0,-79.0,126.0,127.0,127.0,-113.0,-84.0,118.0
119.0,136.0,127.0,124.0,127.0,135.0,18.0,131.0,-1.0,103.0,-80.0,127.0,127.0,127.0,-113.0,-84.0,118.0
119.0,136.0,126.0,124.0,127.0,134.0,19.0,131.0,-1.0,103.0,-80.0,127.0,127.0,127.0,-113.0,-84.0,118.0
119.0,135.0,126.0,124.0,127.0,134.0,20.0,131.0,-1.0,103.0,-80.0,127.0,127.0,127.0,-113.0,-84.0,118.0
118.0,135.0,126.0,124.0,127.0,134.0,21.0,131.0,-1.0,103.0,-80.0,127.0,127.0,127.0,-113.0,-84.0,118.0
117.0,134.0,126.0,124.0,127.0,134.0,22.0,130.0,-1.0,103.0,-80.0,127.0,127.0,127.0,-113.0,-84.0,118.0
117.0,133.0,126.0,124.0,127.0,135.0,23.0,130.0,-1.0,103.0,-80.0,127.0,127.0,127.0,-113.0,-84.0,118.0
116.0,133.0,125.0,124.0,127.0,135.0,24.0,130.0,-1.0,103.0,-80.0,127.0,127.0,127.0,-113.0,-84.0,118.0
116.0,133.0,125.0,124.0,126.0,136.0,25.0,130.0,-1.0,103.0,-80.0,127.0,127.0,127.0,-113.0,-84.0,118.0
116.0,133.0,125.0,124.0,126.0,136.0,26.0,130.0,-1.0,103.0,-80.0,127.0,127.0,127.0,-113.0,-84.0,118.0
119.0,136.0,127.0,124.0,128.0,135.0,17.0,131.0,-1.0,103.0,-80.0,127.0,127.0,127.0,-113.0,-84.0,118.0
116.0,134.0,125.0,127.0,126.0,135.0,63.0,130.0,-1.0,104.0,-81.0,127.0,127.0,127.0,-113.0,-84.0,118.0
116.0,134.0,125.0,127.0,126.0,135.0,64.0,130.0,-1.0,104.0,-81.0,127.0,127.0,127.0,-113.0,-84.0,118.0
116.0,134.0,125.0,127.0,126.0,135.0,65.0,130.0,-1.0,104.0,-81.0,127.0,127.0,127.0,-113.0,-84.0,118.0
116.0,134.0,125.0,127.0,126.0,135.0,66.0,130.0,-1.0,104.0,-81.0,127.0,127.0,127.0,-113.0,-84.0,118.0
116.0,134.0,125.0,127.0,126.0,135.0,67.0,130.0,-1.0,104.0,-81.0,127.0,127.0,127.0,-113.0,-84.0,118.0
116.0,134.0,125.0,127.0,126.0,135.0,67.0,130.0,-1.0,104.0,-81.0,127.0,127.0,127.0,-113.0,-84.0,118.0
116.0,134.0,125.0,127.0,126.0,136.0,68.0,130.0,-1.0,104.0,-81.0,127.0,127.0,127.0,-113.0,-84.0,118.0
116.0,134.0,125.0,127.0,126.0,136.0,69.0,130.0,-1.0,104.0,-81.0,127.0,127.0,127.0,-113.0,-84.0,118.0
116.0,134.0,125.0,127.0,127.0,134.0,62.0,130.0,-1.0,104.0,-81.0,127.0,127.0,127.0,-113.0,-84.0,118.0
116.0,134.0,125.0,127.0,126.0,135.0,63.0,130.0,-1.0,104.0,-81.0,127.0,127.0,127.0,-113.0,-84.0,118.0
117.0,132.0,125.0,123.0,126.0,131.0,93.0,131.0,-1.0,103.0,-82.0,127.0,127.0,127.0,-113.0,-84.0,118.0
117.0,132.0,125.0,123.0,127.0,131.0,93.0,131.0,-1.0,103.0,-82.0,127.0,127.0,127.0,-113.0,-84.0,118.0
117.0,132.0,125.0,123.0,126.0,132.0,93.0,131.0,-1.0,103.0,-82.0,127.0,127.0,127.0,-113.0,-84.0,118.0
117.0,132.0,125.0,122.0,126.0,132.0,94.0,131.0,-1.0,103.0,-82.0,127.0,127.0,127.0,-113.0,-84.0,118.0
117.0,132.0,125.0,122.0,126.0,133.0,94.0,131.0,-1.0,103.0,-82.0,127.0,127.0,127.0,-113.0,-84.0,118.0
117.0,132.0,125.0,122.0,126.0,134.0,94.0,132.0,-1.0,103.0,-82.0,127.0,127.0,127.0,-113.0,-84.0,118.0
118.0,132.0,125.0,122.0,126.0,134.0,94.0,132.0,-1.0,103.0,-82.0,127.0,127.0,127.0,-113.0,-84.0,118.0
117.0,132.0,126.0,123.0,127.0,129.0,92.0,131.0,-1.0,103.0,-82.0,127.0,127.0,127.0,-113.0,-84.0,118.0
117.0,132.0,125.0,123.0,126.0,130.0,92.0,131.0,-1.0,103.0,-82.0,127.0,127.0,127.0,-113.0,-84.0,118.0
117.0,132.0,125.0,123.0,126.0,131.0,92.0,131.0,-1.0,103.0,-82.0,127.0,127.0,127.0,-113.0,-84.0,118.0
118.0,130.0,126.0,109.0,127.0,133.0,108.0,127.0,-1.0,102.0,-82.0,127.0,127.0,127.0,-113.0,-84.0,118.0
118.0,130.0,126.0,109.0,127.0,133.0,108.0,127.0,-1.0,102.0,-82.0,127.0,127.0,127.0,-113.0,-84.0,118.0
118.0,130.0,126.0,109.0,127.0,133.0,108.0,127.0,-1.0,102.0,-82.0,127.0,127.0,127.0,-113.0,-84.0,118.0
118.0,130.0,126.0,108.0,127.0,134.0,108.0,127.0,-1.0,102.0,-82.0,127.0,127.0,127.0,-113.0,-84.0,118.0
118.0,130.0,126.0,108.0,126.0,135.0,109.0,127.0,-1.0,102.0,-82.0,127.0,127.0,127.0,-113.0,-84.0,118.0
118.0,130.0,126.0,108.0,127.0,135.0,109.0,127.0,-1.0,102.0,-82.0,127.0,127.0,127.0,-113.0,-84.0,118.0
118.0,130.0,126.0,111.0,126.0,132.0,107.0,127.0,-1.0,102.0,-82.0,127.0,127.0,127.0,-113.0,-84.0,118.0
118.0,130.0,126.0,110.0,126.0,133.0,107.0,127.0,-1.0,102.0,-82.0,127.0,127.0,127.0,-113.0,-84.0,118.0
118.0,130.0,126.0,110.0,126.0,133.0,107.0,127.0,-1.0,102.0,-82.0,127.0,127.0,127.0,-113.0,-84.0,118.0
118.0,130.0,126.0,110.0,126.0,133.0,107.0,127.0,-1.0,102.0,-82.0,127.0,127.0,127.0,-113.0,-84.0,118.0
121.0,129.0,126.0,106.0,126.0,133.0,118.0,127.0,-1.0,102.0,-82.0,127.0,127.0,127.0,-113.0,-84.0,118.0
121.0,130.0,126.0,106.0,127.0,134.0,118.0,127.0,-1.0,102.0,-82.0,127.0,127.0,127.0,-113.0,-84.0,118.0
121.0,129.0,126.0,106.0,126.0,134.0,118.0,127.0,-1.0,102.0,-82.0,127.0,127.0,127.0,-113.0,-84.0,118.0
121.0,130.0,126.0,107.0,126.0,134.0,118.0,127.0,-1.0,102.0,-82.0,127.0,127.0,127.0,-113.0,-84.0,118.0
121.0,129.0,126.0,107.0,126.0,134.0,118.0,127.0,-1.0,102.0,-82.0,127.0,127.0,127.0,-113.0,-84.0,118.0
120.0,130.0,126.0,106.0,127.0,132.0,117.0,126.0,-1.0,102.0,-82.0,127.0,127.0,127.0,-113.0,-84.0,118.0
120.0,129.0,126.0,106.0,126.0,133.0,117.0,126.0,-1.0,102.0,-82.0,127.0,127.0,127.0,-113.0,-84.0,118.0
121.0,130.0,126.0,106.0,126.0,133.0,118.0,127.0,-1.0,102.0,-82.0,127.0,127.0,127.0,-113.0,-84.0,118.0
121.0,130.0,126.0,106.0,126.0,134.0,118.0,127.0,-1.0,102.0,-82.0,127.0,127.0,127.0,-113.0,-84.0,118.0
121.0,130.0,126.0,106.0,126.0,133.0,118.0,127.0,-1.0,102.0,-82.0,127.0,127.0,127.0,-113.0,-84.0,118.0
123.0,128.0,126.0,110.0,127.0,133.0,125.0,127.0,-1.0,103.0,-82.0,127.0,127.0,127.0,-113.0,-84.0,118.0
123.0,128.0,126.0,110.0,127.0,133.0,125.0,127.0,-1.0,103.0,-82.0,127.0,127.0,127.0,-113.0,-84.0,118.0
123.0,128.0,126.0,110.0,127.0,134.0,125.0,127.0,-1.0,103.0,-82.0,127.0,127.0,127.0,-113.0,-84.0,118.0
123.0,128.0,126.0,110.0,127.0,134.0,125.0,127.0,-1.0,103.0,-82.0,127.0,127.0,127.0,-113.0,-84.0,118.0
123.0,128.0,126.0,110.0,126.0,132.0,124.0,127.0,-1.0,103.0,-82.0,127.0,127.0,127.0,-113.0,-84.0,118.0
123.0,128.0,126.0,110.0,126.0,132.0,124.0,127.0,-1.0,103.0,-82.0,127.0,127.0,127.0,-113.0,-84.0,118.0
123.0,128.0,126.0,110.0,126.0,133.0,124.0,127.0,-1.0,103.0,-82.0,127.0,127.0,127.0,-113.0,-84.0,118.0
123.0,128.0,126.0,110.0,126.0,133.0,124.0,127.0,-1.0,103.0,-82.0,127.0,127.0,127.0,-113.0,-84.0,118.0
123.0,128.0,126.0,110.0,126.0,133.0,124.0,127.0,-1.0,103.0,-82.0,127.0,127.0,127.0,-113.0,-84.0,118.0
123.0,128.0,126.0,110.0,127.0,133.0,125.0,127.0,-1.0,103.0,-82.0,127.0,127.0,127.0,-113.0,-84.0,118.0
123.0,129.0,125.0,111.0,125.0,131.0,132.0,128.0,-1.0,103.0,-82.0,127.0,127.0,127.0,-113.0,-84.0,118.0
123.0,129.0,125.0,111.0,125.0,132.0,132.0,128.0,-1.0,103.0,-82.0,127.0,127.0,127.0,-113.0,-84.0,118.0
123.0,129.0,125.0,111.0,125.0,132.0,132.0,128.0,-1.0,103.0,-82.0,127.0,127.0,127.0,-113.0,-84.0,118.0
123.0,129.0,126.0,111.0,126.0,132.0,131.0,128.0,-1.0,103.0,-82.0,127.0,127.0,127.0,-113.0,-84.0,118.0
123.0,129.0,126.0,111.0,126.0,132.0,131.0,128.0,-1.0,103.0,-82.0,127.0,127.0,127.0,-113.0,-84.0,118.0
123.0,129.0,125.0,111.0,125.0,133.0,131.0,128.0,-1.0,103.0,-82.0,127.0,127.0,127.0,-113.0,-84.0,118.0
123.0,130.0,125.0,111.0,125.0,132.0,131.0,128.0,-1.0,103.0,-82.0,127.0,127.0,127.0,-113.0,-84.0,118.0
123.0,130.0,126.0,111.0,125.0,132.0,131.0,128.0,-1.0,103.0,-82.0,127.0,127.0,127.0,-113.0,-84.0,118.0
123.0,130.0,126.0,111.0,126.0,132.0,131.0,128.0,-1.0,103.0,-82.0,127.0,127.0,127.0,-113.0,-84.0,118.0
123.0,130.0,126.0,111.0,125.0,132.0,132.0,128.0,-1.0,103.0,-82.0,127.0,127.0,127.0,-113.0,-84.0,118.0
123.0,127.0,126.0,113.0,126.0,128.0,142.0,130.0,-1.0,103.0,-82.0,127.0,127.0,127.0,-113.0,-84.0,118.0
124.0,127.0,126.0,113.0,126.0,128.0,142.0,130.0,-1.0,103.0,-82.0,127.0,127.0,127.0,-113.0,-84.0,118.0
123.0,129.0,126.0,113.0,126.0,128.0,141.0,130.0,-1.0,103.0,-82.0,127.0,127.0,127.0,-113.0,-84.0,118.0
123.0,129.0,126.0,113.0,126.0,128.0,141.0,130.0,-1.0,103.0,-82.0,127.0,127.0,127.0,-113.0,-84.0,118.0
123.0,128.0,126.0,113.0,126.0,128.0,141.0,130.0,-1.0,103.0,-82.0,127.0,127.0,127.0,-113.0,-84.0,118.0
123.0,128.0,126.0,113.0,126.0,128.0,141.0,130.0,-1.0,103.0,-82.0,127.0,127.0,127.0,-113.0,-84.0,118.0
123.0,128.0,126.0,113.0,126.0,128.0,141.0,130.0,-1.0,103.0,-82.0,127.0,127.0,127.0,-113.0,-84.0,118.0
123.0,128.0,126.0,113.0,126.0,128.0,141.0,130.0,-1.0,103.0,-82.0,127.0,127.0,127.0,-113.0,-84.0,118.0
123.0,127.0,126.0,113.0,126.0,128.0,141.0,130.0,-1.0,103.0,-82.0,127.0,127.0,127.0,-113.0,-84.0,118.0
123.0,127.0,126.0,113.0,126.0,128.0,141.0,130.0,-1.0,103.0,-82.0,127.0,127.0,127.0,-113.0,-84.0,118.0
125.0,127.0,126.0,115.0,125.0,130.0,146.0,129.0,-1.0,104.0,-82.0,127.0,127.0,127.0,-113.0,-84.0,118.0
125.0,127.0,126.0,115.0,125.0,130.0,146.0,129.0,-1.0,104.0,-82.0,127.0,127.0,127.0,-113.0,-84.0,118.0
126.0,127.0,126.0,115.0,125.0,130.0,146.0,130.0,-1.0,104.0,-82.0,127.0,127.0,127.0,-113.0,-84.0,118.0
126.0,127.0,126.0,115.0,125.0,130.0,146.0,130.0,-1.0,104.0,-82.0,127.0,127.0,127.0,-113.0,-84.0,118.0
126.0,127.0,126.0,115.0,125.0,130.0,146.0,130.0,-1.0,104.0,-82.0,127.0,127.0,127.0,-113.0,-84.0,118.0
126.0,127.0,126.0,115.0,125.0,129.0,146.0,130.0,-1.0,104.0,-82.0,127.0,127.0,127.0,-113.0,-84.0,118.0
126.0,127.0,126.0,116.0,125.0,130.0,146.0,130.0,-1.0,104.0,-82.0,127.0,127.0,127.0,-113.0,-84.0,118.0
126.0,127.0,126.0,116.0,125.0,130.0,146.0,130.0,-1.0,104.0,-82.0,127.0,127.0,127.0,-113.0,-84.0,118.0
127.0,127.0,126.0,116.0,125.0,130.0,146.0,130.0,-1.0,104.0,-82.0,127.0,127.0,127.0,-113.0,-84.0,118.0
127.0,127.0,126.0,116.0,125.0,130.0,146.0,130.0,-1.0,104.0,-82.0,127.0,127.0,127.0,-113.0,-84.0,118.0
129.0,126.0,126.0,120.0,125.0,130.0,140.0,128.0,-1.0,105.0,-82.0,127.0,127.0,127.0,-113.0,-84.0,118.0
129.0,126.0,126.0,120.0,125.0,130.0,139.0,127.0,-1.0,105.0,-82.0,127.0,127.0,127.0,-113.0,-84.0,118.0
129.0,126.0,126.0,120.0,125.0,129.0,139.0,127.0,-1.0,105.0,-82.0,127.0,127.0,127.0,-113.0,-84.0,118.0
129.0,126.0,126.0,120.0,125.0,129.0,139.0,127.0,-1.0,105.0,-82.0,127.0,127.0,127.0,-113.0,-84.0,118.0
129.0,126.0,126.0,121.0,125.0,129.0,139.0,127.0,-1.0,105.0,-82.0,127.0,127.0,127.0,-113.0,-84.0,118.0
128.0,127.0,126.0,121.0,125.0,130.0,138.0,127.0,-1.0,105.0,-82.0,127.0,127.0,127.0,-113.0,-84.0,118.0
129.0,127.0,126.0,121.0,125.0,130.0,138.0,127.0,-1.0,105.0,-82.0,127.0,127.0,127.0,-113.0,-84.0,118.0
129.0,127.0,126.0,121.0,125.0,130.0,138.0,127.0,-1.0,105.0,-82.0,127.0,127.0,127.0,-113.0,-84.0,118.0
129.0,127.0,126.0,121.0,125.0,130.0,138.0,127.0,-1.0,105.0,-82.0,127.0,127.0,127.0,-113.0,-84.0,118.0
129.0,126.0,126.0,120.0,125.0,129.0,140.0,127.0,-1.0,105.0,-82.0,127.0,127.0,127.0,-113.0,-84.0,118.0
127.0,128.0,125.0,124.0,126.0,130.0,132.0,127.0,-1.0,105.0,-81.0,127.0,127.0,127.0,-113.0,-84.0,118.0
127.0,128.0,125.0,124.0,126.0,130.0,132.0,126.0,-1.0,105.0,-81.0,127.0,127.0,127.0,-113.0,-84.0,118.0
127.0,128.0,125.0,124.0,126.0,130.0,132.0,126.0,-1.0,105.0,-81.0,127.0,127.0,127.0,-113.0,-84.0,118.0
127.0,128.0,125.0,124.0,126.0,130.0,132.0,126.0,-1.0,105.0,-81.0,127.0,127.0,127.0,-113.0,-84.0,118.0
127.0,128.0,125.0,125.0,126.0,130.0,132.0,126.0,-1.0,105.0,-81.0,127.0,127.0,127.0,-113.0,-84.0,118.0
127.0,128.0,125.0,125.0,126.0,130.0,132.0,126.0,-1.0,105.0,-81.0,127.0,127.0,127.0,-113.0,-84.0,118.0
127.0,128.0,125.0,125.0,126.0,130.0,132.0,126.0,-1.0,105.0,-81.0,127.0,127.0,127.0,-113.0,-84.0,118.0
127.0,128.0,126.0,125.0,126.0,130.0,132.0,126.0,-1.0,105.0,-81.0,127.0,127.0,127.0,-113.0,-84.0,118.0
127.0,128.0,125.0,124.0,126.0,130.0,132.0,127.0,-1.0,105.0,-81.0,127.0,127.0,127.0,-113.0,-84.0,118.0
127.0,128.0,125.0,124.0,126.0,130.0,132.0,127.0,-1.0,105.0,-81.0,127.0,127.0,127.0,-113.0,-84.0,118.0
127.0,129.0,125.0,125.0,125.0,128.0,128.0,126.0,-1.0,105.0,-81.0,127.0,127.0,127.0,-113.0,-84.0,118.0
127.0,129.0,125.0,126.0,125.0,128.0,128.0,126.0,-1.0,105.0,-81.0,127.0,127.0,127.0,-113.0,-84.0,118.0
127.0,129.0,125.0,126.0,125.0,128.0,128.0,126.0,-1.0,105.0,-81.0,127.0,127.0,127.0,-113.0,-84.0,118.0
127.0,129.0,125.0,126.0,125.0,129.0,128.0,126.0,-1.0,105.0,-81.0,127.0,127.0,127.0,-113.0,-84.0,118.0
127.0,129.0,125.0,126.0,125.0,130.0,128.0,127.0,-1.0,105.0,-81.0,127.0,127.0,127.0,-113.0,-84.0,118.0
127.0,129.0,125.0,126.0,126.0,130.0,128.0,127.0,-1.0,105.0,-81.0,127.0,127.0,127.0,-113.0,-84.0,118.0
127.0,129.0,125.0,126.0,126.0,130.0,128.0,127.0,-1.0,105.0,-81.0,127.0,127.0,127.0,-113.0,-84.0,118.0
127.0,129.0,125.0,125.0,125.0,128.0,129.0,126.0,-1.0,105.0,-81.0,127.0,127.0,127.0,-113.0,-84.0,118.0
127.0,129.0,125.0,125.0,125.0,128.0,128.0,126.0,-1.0,105.0,-81.0,127.0,127.0,127.0,-113.0,-84.0,118.0
127.0,129.0,125.0,125.0,125.0,128.0,128.0,126.0,-1.0,105.0,-81.0,127.0,127.0,127.0,-113.0,-84.0,118.0
130.0,130.0,125.0,128.0,125.0,128.0,119.0,127.0,-1.0,104.0,-80.0,127.0,127.0,127.0,-113.0,-84.0,118.0
129.0,130.0,125.0,128.0,125.0,128.0,119.0,127.0,-1.0,104.0,-80.0,127.0,127.0,127.0,-113.0,-84.0,118.0
129.0,130.0,125.0,128.0,124.0,128.0,119.0,127.0,-1.0,104.0,-80.0,127.0,127.0,127.0,-113.0,-84.0,118.0
129.0,130.0,125.0,128.0,124.0,129.0,118.0,127.0,-1.0,104.0,-80.0,127.0,127.0,127.0,-113.0,-84.0,118.0
129.0,130.0,125.0,128.0,124.0,129.0,118.0,127.0,-1.0,104.0,-80.0,127.0,127.0,127.0,-113.0,-84.0,118.0
129.0,130.0,125.0,128.0,125.0,129.0,118.0,127.0,-1.0,104.0,-80.0,127.0,127.0,127.0,-113.0,-84.0,118.0
130.0,130.0,125.0,127.0,125.0,128.0,120.0,127.0,-1.0,104.0,-80.0,127.0,127.0,127.0,-113.0,-84.0,118.0
130.0,130.0,125.0,127.0,125.0,128.0,120.0,127.0,-1.0,104.0,-80.0,127.0,127.0,127.0,-113.0,-84.0,118.0
130.0,130.0,125.0,127.0,125.0,128.0,120.0,127.0,-1.0,104.0,-80.0,127.0,127.0,127.0,-113.0,-84.0,118.0
130.0,130.0,125.0,127.0,125.0,128.0,119.0,127.0,-1.0,104.0,-80.0,127.0,127.0,127.0,-113.0,-84.0,118.0
126.0,129.0,126.0,129.0,125.0,129.0,113.0,127.0,-1.0,104.0,-79.0,127.0,127.0,127.0,-113.0,-84.0,118.0
126.0,129.0,126.0,129.0,125.0,129.0,113.0,128.0,-1.0,104.0,-79.0,127.0,127.0,127.0,-113.0,-84.0,118.0
126.0,129.0,126.0,129.0,125.0,129.0,113.0,128.0,-1.0,104.0,-79.0,127.0,127.0,127.0,-113.0,-84.0,118.0
126.0,130.0,126.0,129.0,125.0,129.0,114.0,128.0,-1.0,104.0,-79.0,127.0,127.0,127.0,-113.0,-84.0,118.0
126.0,129.0,126.0,130.0,125.0,129.0,114.0,128.0,-1.0,104.0,-79.0,127.0,127.0,127.0,-113.0,-84.0,118.0
127.0,130.0,126.0,129.0,125.0,129.0,113.0,127.0,-1.0,104.0,-79.0,127.0,127.0,127.0,-113.0,-84.0,118.0
127.0,130.0,126.0,129.0,124.0,129.0,113.0,128.0,-1.0,104.0,-79.0,127.0,127.0,127.0,-113.0,-84.0,118.0
127.0,130.0,126.0,129.0,125.0,129.0,113.0,128.0,-1.0,104.0,-79.0,127.0,127.0,127.0,-113.0,-84.0,118.0
127.0,129.0,126.0,129.0,125.0,129.0,113.0,128.0,-1.0,104.0,-79.0,127.0,127.0,127.0,-113.0,-84.0,118.0
126.0,129.0,126.0,129.0,125.0,129.0,113.0,128.0,-1.0,104.0,-79.0,127.0,127.0,127.0,-113.0,-84.0,118.0
125.0,128.0,126.0,130.0,125.0,128.0,124.0,127.0,-1.0,103.0,-79.0,127.0,127.0,127.0,-113.0,-84.0,118.0
125.0,128.0,126.0,130.0,125.0,129.0,124.0,127.0,-1.0,103.0,-79.0,127.0,127.0,127.0,-113.0,-84.0,118.0
125.0,128.0,126.0,130.0,125.0,129.0,124.0,127.0,-1.0,103.0,-79.0,127.0,127.0,127.0,-113.0,-84.0,118.0
125.0,128.0,126.0,130.0,125.0,129.0,124.0,127.0,-1.0,103.0,-79.0,127.0,127.0,127.0,-113.0,-84.0,118.0
125.0,128.0,126.0,129.0,125.0,128.0,124.0,126.0,-1.0,103.0,-79.0,127.0,127.0,127.0,-113.0,-84.0,118.0
125.0,128.0,126.0,130.0,125.0,129.0,124.0,127.0,-1.0,103.0,-79.0,127.0,127.0,127.0,-113.0,-84.0,118.0
125.0,128.0,126.0,130.0,125.0,128.0,124.0,127.0,-1.0,103.0,-79.0,127.0,127.0,127.0,-113.0,-84.0,118.0
125.0,128.0,126.0,130.0,125.0,128.0,124.0,127.0,-1.0,103.0,-79.0,127.0,127.0,127.0,-113.0,-84.0,118.0
125.0,128.0,126.0,130.0,125.0,128.0,124.0,127.0,-1.0,103.0,-79.0,127.0,127.0,127.0,-113.0,-84.0,118.0
125.0,128.0,126.0,130.0,125.0,128.0,124.0,127.0,-1.0,103.0,-79.0,127.0,127.0,127.0,-113.0,-84.0,118.0
125.0,127.0,127.0,130.0,125.0,126.0,105.0,127.0,-1.0,103.0,-79.0,127.0,127.0,127.0,-113.0,-84.0,118.0
125.0,127.0,127.0,130.0,125.0,126.0,104.0,127.0,-1.0,103.0,-79.0,127.0,127.0,127.0,-113.0,-84.0,118.0
125.0,127.0,127.0,130.0,125.0,126.0,104.0,127.0,-1.0,103.0,-79.0,127.0,127.0,127.0,-113.0,-84.0,118.0
125.0,127.0,127.0,130.0,126.0,126.0,111.0,128.0,-1.0,103.0,-79.0,127.0,127.0,127.0,-113.0,-84.0,118.0
125.0,127.0,127.0,130.0,126.0,126.0,110.0,127.0,-1.0,103.0,-79.0,127.0,127.0,127.0,-113.0,-84.0,118.0
125.0,127.0,127.0,130.0,125.0,126.0,109.0,127.0,-1.0,103.0,-79.0,127.0,127.0,127.0,-113.0,-84.0,118.0
125.0,127.0,127.0,130.0,125.0,126.0,108.0,127.0,-1.0,103.0,-79.0,127.0,127.0,127.0,-113.0,-84.0,118.0
125.0,127.0,127.0,130.0,125.0,126.0,107.0,127.0,-1.0,103.0,-79.0,127.0,127.0,127.0,-113.0,-84.0,118.0
125.0,127.0,127.0,130.0,125.0,126.0,107.0,127.0,-1.0,103.0,-79.0,127.0,127.0,127.0,-113.0,-84.0,118.0
125.0,127.0,127.0,130.0,125.0,126.0,106.0,127.0,-1.0,103.0,-79.0,127.0,127.0,127.0,-113.0,-84.0,118.0
124.0,127.0,126.0,130.0,126.0,127.0,103.0,126.0,-1.0,103.0,-80.0,127.0,127.0,127.0,-113.0,-84.0,118.0
124.0,127.0,126.0,130.0,126.0,127.0,103.0,127.0,-1.0,103.0,-80.0,127.0,127.0,127.0,-113.0,-84.0,118.0
124.0,126.0,126.0,130.0,126.0,128.0,101.0,126.0,-1.0,103.0,-80.0,127.0,127.0,127.0,-113.0,-84.0,118.0
124.0,126.0,126.0,130.0,126.0,127.0,102.0,126.0,-1.0,103.0,-80.0,127.0,127.0,127.0,-113.0,-84.0,118.0
124.0,126.0,126.0,130.0,126.0,127.0,102.0,126.0,-1.0,103.0,-80.0,127.0,127.0,127.0,-113.0,-84.0,118.0
124.0,127.0,126.0,130.0,126.0,127.0,102.0,126.0,-1.0,103.0,-80.0,127.0,127.0,127.0,-113.0,-84.0,118.0
124.0,127.0,126.0,130.0,126.0,128.0,102.0,126.0,-1.0,103.0,-80.0,127.0,127.0,127.0,-113.0,-84.0,118.0
124.0,127.0,126.0,130.0,126.0,128.0,102.0,127.0,-1.0,103.0,-80.0,127.0,127.0,127.0,-113.0,-84.0,118.0
124.0,127.0,126.0,130.0,126.0,128.0,103.0,127.0,-1.0,103.0,-80.0,127.0,127.0,127.0,-113.0,-84.0,118.0
124.0,127.0,126.0,130.0,126.0,128.0,103.0,127.0,-1.0,103.0,-80.0,127.0,127.0,127.0,-113.0,-84.0,118.0
122.0,126.0,127.0,130.0,126.0,127.0,103.0,127.0,-1.0,103.0,-80.0,127.0,127.0,127.0,-113.0,-84.0,118.0
123.0,126.0,127.0,130.0,126.0,127.0,106.0,128.0,-1.0,103.0,-80.0,127.0,127.0,127.0,-113.0,-84.0,118.0
123.0,126.0,127.0,130.0,126.0,127.0,106.0,128.0,-1.0,103.0,-80.0,127.0,127.0,127.0,-113.0,-84.0,118.0
123.0,126.0,127.0,130.0,126.0,127.0,106.0,127.0,-1.0,103.0,-80.0,127.0,127.0,127.0,-113.0,-84.0,118.0
123.0,126.0,127.0,130.0,126.0,127.0,105.0,127.0,-1.0,103.0,-80.0,127.0,127.0,127.0,-113.0,-84.0,118.0
123.0,126.0,127.0,130.0,126.0,128.0,105.0,128.0,-1.0,103.0,-80.0,127.0,127.0,127.0,-113.0,-84.0,118.0
123.0,126.0,127.0,130.0,126.0,128.0,104.0,128.0,-1.0,103.0,-80.0,127.0,127.0,127.0,-113.0,-84.0,118.0
123.0,126.0,127.0,130.0,126.0,128.0,104.0,128.0,-1.0,103.0,-80.0,127.0,127.0,127.0,-113.0,-84.0,118.0
123.0,126.0,127.0,130.0,126.0,127.0,104.0,127.0,-1.0,103.0,-80.0,127.0,127.0,127.0,-113.0,-84.0,118.0
122.0,126.0,127.0,130.0,126.0,127.0,103.0,128.0,-1.0,103.0,-80.0,127.0,127.0,127.0,-113.0,-84.0,118.0
122.0,126.0,127.0,130.0,126.0,126.0,87.0,126.0,-1.0,103.0,-80.0,127.0,127.0,127.0,-113.0,-84.0,118.0
122.0,126.0,127.0,129.0,126.0,126.0,87.0,126.0,-1.0,103.0,-80.0,127.0,127.0,127.0,-113.0,-84.0,118.0
122.0,126.0,127.0,129.0,126.0,126.0,87.0,126.0,-1.0,103.0,-80.0,127.0,127.0,127.0,-113.0,-84.0,118.0
122.0,126.0,127.0,129.0,126.0,126.0,87.0,126.0,-1.0,103.0,-80.0,127.0,127.0,127.0,-113.0,-84.0,118.0
122.0,126.0,127.0,129.0,126.0,126.0,86.0,126.0,-1.0,103.0,-80.0,127.0,127.0,127.0,-113.0,-84.0,118.0
122.0,126.0,127.0,129.0,126.0,127.0,86.0,126.0,-1.0,103.0,-80.0,127.0,127.0,127.0,-113.0,-84.0,118.0
122.0,126.0,127.0,129.0,126.0,127.0,86.0,126.0,-1.0,103.0,-80.0,127.0,127.0,127.0,-113.0,-84.0,118.0
122.0,126.0,127.0,129.0,126.0,127.0,86.0,126.0,-1.0,103.0,-80.0,127.0,127.0,127.0,-113.0,-84.0,118.0
122.0,126.0,127.0,129.0,126.0,127.0,86.0,126.0,-1.0,103.0,-80.0,127.0,127.0,127.0,-113.0,-84.0,118.0
122.0,126.0,127.0,129.0,126.0,127.0,86.0,126.0,-1.0,103.0,-80.0,127.0,127.0,127.0,-113.0,-84.0,118.0
122.0,126.0,127.0,129.0,126.0,126.0,93.0,126.0,-1.0,103.0,-80.0,127.0,127.0,127.0,-113.0,-84.0,118.0
122.0,126.0,127.0,129.0,126.0,126.0,93.0,126.0,-1.0,103.0,-80.0,127.0,127.0,127.0,-113.0,-84.0,118.0
123.0,127.0,127.0,129.0,126.0,126.0,93.0,126.0,-1.0,103.0,-80.0,127.0,127.0,127.0,-113.0,-84.0,118.0
123.0,127.0,127.0,129.0,126.0,127.0,94.0,126.0,-1.0,103.0,-80.0,127.0,127.0,127.0,-113.0,-84.0,118.0
123.0,127.0,127.0,129.0,126.0,127.0,94.0,127.0,-1.0,103.0,-80.0,127.0,127.0,127.0,-113.0,-84.0,118.0
123.0,127.0,127.0,129.0,126.0,127.0,94.0,127.0,-1.0,103.0,-80.0,127.0,127.0,127.0,-113.0,-84.0,118.0
123.0,127.0,127.0,129.0,126.0,127.0,95.0,127.0,-1.0,103.0,-80.0,127.0,127.0,127.0,-113.0,-84.0,118.0
123.0,127.0,127.0,129.0,126.0,127.0,95.0,127.0,-1.0,103.0,-80.0,127.0,127.0,127.0,-113.0,-84.0,118.0
123.0,127.0,127.0,129.0,126.0,127.0,95.0,127.0,-1.0,103.0,-80.0,127.0,127.0,127.0,-113.0,-84.0,118.0
122.0,127.0,127.0,129.0,126.0,126.0,92.0,126.0,-1.0,103.0,-80.0,127.0,127.0,127.0,-113.0,-84.0,118.0
124.0,127.0,127.0,128.0,126.0,126.0,108.0,126.0,-1.0,103.0,-80.0,127.0,127.0,127.0,-113.0,-84.0,118.0
124.0,126.0,127.0,128.0,126.0,125.0,108.0,126.0,-1.0,103.0,-80.0,127.0,127.0,127.0,-113.0,-84.0,118.0
124.0,126.0,127.0,128.0,126.0,126.0,109.0,126.0,-1.0,103.0,-80.0,127.0,127.0,127.0,-113.0,-84.0,118.0
124.0,127.0,127.0,128.0,126.0,126.0,109.0,127.0,-1.0,103.0,-80.0,127.0,127.0,127.0,-113.0,-84.0,118.0
124.0,127.0,127.0,128.0,126.0,126.0,109.0,127.0,-1.0,103.0,-80.0,127.0,127.0,127.0,-113.0,-84.0,118.0
124.0,127.0,127.0,128.0,126.0,126.0,109.0,127.0,-1.0,103.0,-80.0,127.0,127.0,127.0,-113.0,-84.0,118.0
124.0,127.0,127.0,128.0,126.0,126.0,110.0,127.0,-1.0,103.0,-80.0,127.0,127.0,127.0,-113.0,-84.0,118.0
124.0,127.0,127.0,129.0,126.0,127.0,110.0,126.0,-1.0,103.0,-80.0,127.0,127.0,127.0,-113.0,-84.0,118.0
124.0,127.0,127.0,128.0,126.0,126.0,108.0,126.0,-1.0,103.0,-80.0,127.0,127.0,127.0,-113.0,-84.0,118.0
124.0,126.0,127.0,128.0,126.0,126.0,108.0,126.0,-1.0,103.0,-80.0,127.0,127.0,127.0,-113.0,-84.0,118.0
124.0,126.0,127.0,128.0,126.0,125.0,121.0,126.0,-1.0,103.0,-80.0,127.0,127.0,127.0,-113.0,-84.0,118.0
124.0,126.0,127.0,128.0,125.0,126.0,121.0,126.0,-1.0,103.0,-80.0,127.0,127.0,127.0,-113.0,-84.0,118.0
124.0,126.0,126.0,128.0,125.0,126.0,121.0,126.0,-1.0,103.0,-80.0,127.0,127.0,127.0,-113.0,-84.0,118.0
124.0,126.0,126.0,128.0,126.0,126.0,122.0,126.0,-1.0,103.0,-80.0,127.0,127.0,127.0,-113.0,-84.0,118.0
124.0,126.0,126.0,128.0,126.0,126.0,122.0,126.0,-1.0,103.0,-80.0,127.0,127.0,127.0,-113.0,-84.0,118.0
124.0,126.0,127.0,128.0,126.0,126.0,122.0,126.0,-1.0,103.0,-80.0,127.0,127.0,127.0,-113.0,-84.0,118.0
124.0,126.0,127.0,128.0,126.0,126.0,122.0,126.0,-1.0,103.0,-80.0,127.0,127.0,127.0,-113.0,-84.0,118.0
124.0,126.0,127.0,128.0,126.0,126.0,120.0,126.0,-1.0,103.0,-80.0,127.0,127.0,127.0,-113.0,-84.0,118.0
124.0,126.0,127.0,128.0,126.0,126.0,121.0,126.0,-1.0,103.0,-80.0,127.0,127.0,127.0,-113.0,-84.0,118.0
124.0,126.0,127.0,128.0,126.0,125.0,121.0,126.0,-1.0,103.0,-80.0,127.0,127.0,127.0,-113.0,-84.0,118.0
123.0,125.0,127.0,127.0,126.0,125.0,119.0,125.0,-1.0,103.0,-80.0,127.0,127.0,127.0,-113.0,-84.0,118.0
123.0,125.0,126.0,127.0,126.0,125.0,119.0,125.0,-1.0,103.0,-80.0,127.0,127.0,127.0,-113.0,-84.0,118.0
124.0,126.0,127.0,127.0,126.0,126.0,119.0,125.0,-1.0,103.0,-80.0,127.0,127.0,127.0,-113.0,-84.0,118.0
124.0,126.0,127.0,127.0,126.0,126.0,119.0,125.0,-1.0,103.0,-80.0,127.0,127.0,127.0,-113.0,-84.0,118.0
124.0,126.0,126.0,127.0,126.0,126.0,119.0,125.0,-1.0,103.0,-80.0,127.0,127.0,127.0,-113.0,-84.0,118.0
124.0,126.0,126.0,127.0,126.0,126.0,119.0,125.0,-1.0,103.0,-80.0,127.0,127.0,127.0,-113.0,-84.0,118.0
123.0,125.0,127.0,127.0,126.0,125.0,120.0,125.0,-1.0,103.0,-80.0,127.0,127.0,127.0,-113.0,-84.0,118.0
123.0,125.0,127.0,127.0,126.0,125.0,120.0,125.0,-1.0,103.0,-80.0,127.0,127.0,127.0,-113.0,-84.0,118.0
123.0,125.0,127.0,127.0,126.0,125.0,120.0,125.0,-1.0,103.0,-80.0,127.0,127.0,127.0,-113.0,-84.0,118.0
123.0,125.0,127.0,127.0,126.0,125.0,120.0,125.0,-1.0,103.0,-80.0,127.0,127.0,127.0,-113.0,-84.0,118.0
124.0,125.0,127.0,126.0,127.0,124.0,121.0,125.0,-1.0,103.0,-80.0,127.0,127.0,127.0,-113.0,-84.0,118.0
124.0,126.0,127.0,127.0,127.0,124.0,121.0,125.0,-1.0,103.0,-80.0,127.0,127.0,127.0,-113.0,-84.0,118.0
124.0,126.0,127.0,127.0,127.0,124.0,121.0,125.0,-1.0,103.0,-80.0,127.0,127.0,127.0,-113.0,-84.0,118.0
124.0,126.0,127.0,127.0,127.0,124.0,121.0,124.0,-1.0,103.0,-80.0,127.0,127.0,127.0,-113.0,-84.0,118.0
124.0,126.0,127.0,127.0,127.0,124.0,121.0,125.0,-1.0,103.0,-80.0,127.0,127.0,127.0,-113.0,-84.0,118.0
124.0,125.0,127.0,127.0,126.0,124.0,121.0,125.0,-1.0,103.0,-80.0,127.0,127.0,127.0,-113.0,-84.0,118.0
124.0,125.0,127.0,126.0,127.0,124.0,121.0,125.0,-1.0,103.0,-80.0,127.0,127.0,127.0,-113.0,-84.0,118.0
124.0,125.0,127.0,127.0,127.0,124.0,121.0,125.0,-1.0,103.0,-80.0,127.0,127.0,127.0,-113.0,-84.0,118.0
124.0,126.0,127.0,126.0,127.0,124.0,121.0,125.0,-1.0,103.0,-80.0,127.0,127.0,127.0,-113.0,-84.0,118.0
124.0,126.0,127.0,127.0,127.0,124.0,121.0,125.0,-1.0,103.0,-80.0,127.0,127.0,127.0,-113.0,-84.0,118.0
125.0,126.0,127.0,126.0,126.0,126.0,120.0,126.0,-1.0,104.0,-81.0,127.0,127.0,127.0,-113.0,-84.0,118.0
125.0,126.0,127.0,126.0,126.0,126.0,120.0,126.0,-1.0,104.0,-81.0,127.0,127.0,127.0,-113.0,-84.0,118.0
125.0,126.0,127.0,126.0,126.0,126.0,120.0,126.0,-1.0,104.0,-81.0,127.0,127.0,127.0,-113.0,-84.0,118.0
125.0,126.0,127.0,126.0,126.0,126.0,121.0,126.0,-1.0,104.0,-81.0,127.0,127.0,127.0,-113.0,-84.0,118.0
125.0,126.0,127.0,126.0,126.0,126.0,120.0,125.0,-1.0,104.0,-81.0,127.0,127.0,127.0,-113.0,-84.0,118.0
125.0,126.0,127.0,126.0,126.0,125.0,120.0,125.0,-1.0,104.0,-81.0,127.0,127.0,127.0,-113.0,-84.0,118.0
125.0,126.0,127.0,126.0,126.0,125.0,120.0,125.0,-1.0,104.0,-81.0,127.0,127.0,127.0,-113.0,-84.0,118.0
125.0,126.0,127.0,126.0,126.0,125.0,120.0,125.0,-1.0,104.0,-81.0,127.0,127.0,127.0,-113.0,-84.0,118.0
125.0,126.0,127.0,126.0,126.0,125.0,120.0,125.0,-1.0,104.0,-81.0,127.0,127.0,127.0,-113.0,-84.0,118.0
125.0,126.0,127.0,126.0,126.0,126.0,120.0,125.0,-1.0,104.0,-81.0,127.0,127.0,127.0,-113.0,-84.0,118.0
125.0,127.0,127.0,127.0,126.0,126.0,121.0,127.0,-1.0,104.0,-81.0,127.0,127.0,127.0,-113.0,-84.0,118.0
125.0,127.0,127.0,127.0,126.0,126.0,121.0,127.0,-1.0,104.0,-81.0,127.0,127.0,127.0,-113.0,-84.0,118.0
125.0,127.0,127.0,127.0,126.0,126.0,121.0,127.0,-1.0,104.0,-81.0,127.0,127.0,127.0,-113.0,-84.0,118.0
125.0,127.0,127.0,126.0,126.0,126.0,121.0,127.0,-1.0,104.0,-81.0,127.0,127.0,127.0,-113.0,-84.0,118.0
125.0,127.0,127.0,126.0,126.0,126.0,121.0,127.0,-1.0,104.0,-81.0,127.0,127.0,127.0,-113.0,-84.0,118.0
125.0,127.0,127.0,127.0,126.0,126.0,121.0,127.0,-1.0,104.0,-81.0,127.0,127.0,127.0,-113.0,-84.0,118.0
125.0,127.0,127.0,127.0,126.0,125.0,121.0,127.0,-1.0,104.0,-81.0,127.0,127.0,127.0,-113.0,-84.0,118.0
125.0,127.0,127.0,127.0,126.0,125.0,121.0,127.0,-1.0,104.0,-81.0,127.0,127.0,127.0,-113.0,-84.0,118.0
125.0,127.0,127.0,126.0,126.0,126.0,121.0,127.0,-1.0,104.0,-81.0,127.0,127.0,127.0,-113.0,-84.0,118.0
125.0,127.0,127.0,127.0,126.0,126.0,121.0,127.0,-1.0,104.0,-81.0,127.0,127.0,127.0,-113.0,-84.0,118.0
126.0,127.0,126.0,126.0,126.0,125.0,125.0,127.0,-1.0,104.0,-81.0,127.0,127.0,127.0,-113.0,-84.0,118.0
126.0,127.0,127.0,126.0,126.0,125.0,123.0,127.0,-1.0,104.0,-81.0,127.0,127.0,127.0,-113.0,-84.0,118.0
126.0,127.0,126.0,126.0,126.0,125.0,124.0,127.0,-1.0,104.0,-81.0,127.0,127.0,127.0,-113.0,-84.0,118.0
126.0,127.0,126.0,126.0,126.0,125.0,124.0,127.0,-1.0,104.0,-81.0,127.0,127.0,127.0,-113.0,-84.0,118.0
126.0,127.0,126.0,126.0,126.0,125.0,124.0,127.0,-1.0,104.0,-81.0,127.0,127.0,127.0,-113.0,-84.0,118.0
126.0,127.0,126.0,126.0,126.0,125.0,124.0,127.0,-1.0,104.0,-81.0,127.0,127.0,127.0,-113.0,-84.0,118.0
126.0,127.0,126.0,126.0,126.0,125.0,124.0,127.0,-1.0,104.0,-81.0,127.0,127.0,127.0,-113.0,-84.0,118.0
126.0,127.0,126.0,126.0,126.0,125.0,125.0,127.0,-1.0,104.0,-81.0,127.0,127.0,127.0,-113.0,-84.0,118.0
126.0,127.0,126.0,126.0,126.0,126.0,125.0,127.0,-1.0,104.0,-81.0,127.0,127.0,127.0,-113.0,-84.0,118.0
126.0,127.0,126.0,126.0,126.0,126.0,125.0,127.0,-1.0,104.0,-81.0,127.0,127.0,127.0,-113.0,-84.0,118.0
126.0,128.0,126.0,126.0,126.0,125.0,128.0,127.0,-1.0,104.0,-80.0,127.0,127.0,127.0,-113.0,-84.0,118.0
126.0,128.0,126.0,126.0,126.0,126.0,128.0,127.0,-1.0,104.0,-80.0,127.0,127.0,127.0,-113.0,-84.0,118.0
126.0,128.0,126.0,126.0,126.0,125.0,128.0,127.0,-1.0,104.0,-80.0,127.0,127.0,127.0,-113.0,-84.0,118.0
126.0,128.0,126.0,126.0,126.0,125.0,128.0,127.0,-1.0,104.0,-80.0,127.0,127.0,127.0,-113.0,-84.0,118.0
125.0,128.0,126.0,126.0,126.0,125.0,128.0,127.0,-1.0,104.0,-80.0,127.0,127.0,127.0,-113.0,-84.0,118.0
126.0,128.0,126.0,126.0,126.0,125.0,128.0,127.0,-1.0,104.0,-80.0,127.0,127.0,127.0,-113.0,-84.0,118.0
126.0,128.0,126.0,125.0,126.0,125.0,128.0,127.0,-1.0,104.0,-80.0,127.0,127.0,127.0,-113.0,-84.0,118.0
126.0,128.0,126.0,126.0,126.0,126.0,128.0,127.0,-1.0,104.0,-80.0,127.0,127.0,127.0,-113.0,-84.0,118.0
126.0,128.0,126.0,126.0,126.0,126.0,128.0,127.0,-1.0,104.0,-80.0,127.0,127.0,127.0,-113.0,-84.0,118.0
126.0,128.0,126.0,126.0,126.0,125.0,128.0,127.0,-1.0,104.0,-80.0,127.0,127.0,127.0,-113.0,-84.0,118.0
125.0,127.0,127.0,125.0,126.0,125.0,131.0,127.0,-1.0,104.0,-80.0,127.0,127.0,127.0,-113.0,-84.0,118.0
125.0,127.0,127.0,125.0,126.0,125.0,131.0,127.0,-1.0,104.0,-80.0,127.0,127.0,127.0,-113.0,-84.0,118.0
125.0,127.0,127.0,125.0,126.0,125.0,131.0,127.0,-1.0,104.0,-80.0,127.0,127.0,127.0,-113.0,-84.0,118.0
125.0,127.0,127.0,125.0,126.0,125.0,131.0,127.0,-1.0,104.0,-80.0,127.0,127.0,127.0,-113.0,-84.0,118.0
126.0,127.0,127.0,125.0,126.0,124.0,131.0,127.0,-1.0,104.0,-80.0,127.0,127.0,127.0,-113.0,-84.0,118.0
126.0,127.0,127.0,125.0,126.0,124.0,132.0,127.0,-1.0,104.0,-80.0,127.0,127.0,127.0,-113.0,-84.0,118.0
125.0,127.0,127.0,125.0,126.0,124.0,132.0,127.0,-1.0,104.0,-80.0,127.0,127.0,127.0,-113.0,-84.0,118.0
126.0,127.0,127.0,125.0,126.0,124.0,132.0,127.0,-1.0,104.0,-80.0,127.0,127.0,127.0,-113.0,-84.0,118.0
126.0,127.0,127.0,125.0,126.0,124.0,132.0,127.0,-1.0,104.0,-80.0,127.0,127.0,127.0,-113.0,-84.0,118.0
125.0,127.0,127.0,125.0,126.0,125.0,131.0,127.0,-1.0,104.0,-80.0,127.0,127.0,127.0,-113.0,-84.0,118.0
125.0,127.0,126.0,125.0,126.0,125.0,136.0,128.0,-1.0,104.0,-80.0,127.0,127.0,127.0,-113.0,-84.0,118.0
125.0,127.0,127.0,125.0,126.0,125.0,136.0,128.0,-1.0,104.0,-80.0,127.0,127.0,127.0,-113.0,-84.0,118.0
125.0,127.0,127.0,125.0,126.0,125.0,136.0,127.0,-1.0,104.0,-80.0,127.0,127.0,127.0,-113.0,-84.0,118.0
125.0,127.0,127.0,125.0,126.0,125.0,136.0,127.0,-1.0,104.0,-80.0,127.0,127.0,127.0,-113.0,-84.0,118.0
125.0,127.0,127.0,125.0,126.0,125.0,136.0,127.0,-1.0,104.0,-80.0,127.0,127.0,127.0,-113.0,-84.0,118.0
125.0,127.0,127.0,125.0,126.0,125.0,136.0,127.0,-1.0,104.0,-80.0,127.0,127.0,127.0,-113.0,-84.0,118.0
125.0,127.0,127.0,125.0,126.0,125.0,136.0,127.0,-1.0,104.0,-80.0,127.0,127.0,127.0,-113.0,-84.0,118.0
125.0,127.0,127.0,125.0,126.0,125.0,136.0,127.0,-1.0,104.0,-80.0,127.0,127.0,127.0,-113.0,-84.0,118.0
125.0,127.0,126.0,126.0,126.0,126.0,135.0,128.0,-1.0,104.0,-80.0,127.0,127.0,127.0,-113.0,-84.0,118.0
125.0,127.0,126.0,125.0,126.0,126.0,135.0,128.0,-1.0,104.0,-80.0,127.0,127.0,127.0,-113.0,-84.0,118.0
125.0,128.0,127.0,126.0,126.0,126.0,135.0,127.0,-1.0,105.0,-80.0,127.0,127.0,127.0,-113.0,-84.0,118.0
125.0,128.0,127.0,126.0,126.0,126.0,135.0,127.0,-1.0,105.0,-80.0,127.0,127.0,127.0,-113.0,-84.0,118.0
125.0,128.0,127.0,126.0,126.0,126.0,135.0,127.0,-1.0,105.0,-80.0,127.0,127.0,127.0,-113.0,-84.0,118.0
125.0,127.0,127.0,126.0,126.0,126.0,135.0,127.0,-1.0,105.0,-80.0,127.0,127.0,127.0,-113.0,-84.0,118.0
125.0,128.0,127.0,126.0,126.0,125.0,135.0,127.0,-1.0,105.0,-80.0,127.0,127.0,127.0,-113.0,-84.0,118.0
125.0,127.0,127.0,126.0,126.0,125.0,135.0,127.0,-1.0,105.0,-80.0,127.0,127.0,127.0,-113.0,-84.0,118.0
125.0,127.0,127.0,126.0,126.0,125.0,135.0,127.0,-1.0,105.0,-80.0,127.0,127.0,127.0,-113.0,-84.0,118.0
125.0,128.0,126.0,126.0,126.0,127.0,135.0,127.0,-1.0,105.0,-80.0,127.0,127.0,127.0,-113.0,-84.0,118.0
125.0,128.0,126.0,126.0,126.0,126.0,135.0,127.0,-1.0,105.0,-80.0,127.0,127.0,127.0,-113.0,-84.0,118.0
125.0,128.0,127.0,126.0,126.0,126.0,135.0,127.0,-1.0,105.0,-80.0,127.0,127.0,127.0,-113.0,-84.0,118.0
125.0,127.0,126.0,125.0,126.0,124.0,137.0,127.0,-1.0,105.0,-80.0,127.0,127.0,127.0,-113.0,-84.0,118.0
125.0,127.0,126.0,125.0,126.0,124.0,137.0,127.0,-1.0,105.0,-80.0,127.0,127.0,127.0,-113.0,-84.0,118.0
125.0,127.0,126.0,125.0,126.0,124.0,137.0,127.0,-1.0,105.0,-80.0,127.0,127.0,127.0,-113.0,-84.0,118.0
125.0,127.0,126.0,125.0,126.0,125.0,137.0,127.0,-1.0,105.0,-80.0,127.0,127.0,127.0,-113.0,-84.0,118.0
125.0,127.0,126.0,125.0,126.0,125.0,137.0,127.0,-1.0,105.0,-80.0,127.0,127.0,127.0,-113.0,-84.0,118.0
125.0,127.0,126.0,125.0,126.0,125.0,137.0,127.0,-1.0,105.0,-80.0,127.0,127.0,127.0,-113.0,-84.0,118.0
125.0,127.0,126.0,125.0,126.0,124.0,137.0,127.0,-1.0,105.0,-80.0,127.0,127.0,127.0,-113.0,-84.0,118.0
125.0,127.0,126.0,125.0,126.0,124.0,137.0,127.0,-1.0,105.0,-80.0,127.0,127.0,127.0,-113.0,-84.0,118.0
125.0,127.0,126.0,125.0,126.0,125.0,137.0,127.0,-1.0,105.0,-80.0,127.0,127.0,127.0,-113.0,-84.0,118.0
125.0,127.0,126.0,125.0,126.0,124.0,137.0,127.0,-1.0,105.0,-80.0,127.0,127.0,127.0,-113.0,-84.0,118.0
126.0,127.0,126.0,125.0,125.0,125.0,139.0,128.0,-1.0,105.0,-80.0,127.0,127.0,127.0,-113.0,-84.0,118.0
126.0,127.0,127.0,125.0,126.0,125.0,139.0,127.0,-1.0,105.0,-80.0,127.0,127.0,127.0,-113.0,-84.0,118.0
126.0,127.0,126.0,125.0,125.0,125.0,139.0,128.0,-1.0,105.0,-80.0,127.0,127.0,127.0,-113.0,-84.0,118.0
126.0,127.0,126.0,125.0,125.0,126.0,139.0,128.0,-1.0,105.0,-80.0,127.0,127.0,127.0,-113.0,-84.0,118.0
126.0,127.0,126.0,125.0,125.0,126.0,139.0,128.0,-1.0,105.0,-80.0,127.0,127.0,127.0,-113.0,-84.0,118.0
126.0,127.0,127.0,125.0,126.0,124.0,139.0,127.0,-1.0,105.0,-80.0,127.0,127.0,127.0,-113.0,-84.0,118.0
125.0,127.0,126.0,125.0,125.0,125.0,139.0,128.0,-1.0,105.0,-80.0,127.0,127.0,127.0,-113.0,-84.0,118.0
126.0,127.0,126.0,125.0,125.0,125.0,139.0,128.0,-1.0,105.0,-80.0,127.0,127.0,127.0,-113.0,-84.0,118.0
126.0,127.0,126.0,125.0,125.0,125.0,139.0,128.0,-1.0,105.0,-80.0,127.0,127.0,127.0,-113.0,-84.0,118.0
126.0,127.0,127.0,125.0,125.0,125.0,139.0,127.0,-1.0,105.0,-80.0,127.0,127.0,127.0,-113.0,-84.0,118.0
126.0,127.0,127.0,125.0,126.0,126.0,140.0,128.0,-1.0,105.0,-79.0,127.0,127.0,127.0,-113.0,-84.0,118.0
126.0,127.0,127.0,125.0,125.0,126.0,140.0,128.0,-1.0,105.0,-79.0,127.0,127.0,127.0,-113.0,-84.0,118.0
126.0,128.0,127.0,125.0,126.0,127.0,140.0,128.0,-1.0,105.0,-79.0,127.0,127.0,127.0,-113.0,-84.0,118.0
126.0,128.0,127.0,125.0,126.0,127.0,140.0,128.0,-1.0,105.0,-79.0,127.0,127.0,127.0,-113.0,-84.0,118.0
126.0,127.0,127.0,125.0,126.0,125.0,140.0,128.0,-1.0,105.0,-79.0,127.0,127.0,127.0,-113.0,-84.0,118.0
126.0,127.0,127.0,125.0,126.0,126.0,140.0,128.0,-1.0,105.0,-79.0,127.0,127.0,127.0,-113.0,-84.0,118.0
126.0,127.0,127.0,125.0,126.0,126.0,140.0,128.0,-1.0,105.0,-79.0,127.0,127.0,127.0,-113.0,-84.0,118.0
126.0,127.0,127.0,125.0,126.0,126.0,140.0,128.0,-1.0,105.0,-79.0,127.0,127.0,127.0,-113.0,-84.0,118.0
126.0,127.0,127.0,125.0,126.0,126.0,140.0,128.0,-1.0,105.0,-79.0,127.0,127.0,127.0,-113.0,-84.0,118.0
126.0,127.0,127.0,125.0,126.0,126.0,140.0,128.0,-1.0,105.0,-79.0,127.0,127.0,127.0,-113.0,-84.0,118.0
127.0,128.0,126.0,125.0,126.0,126.0,141.0,128.0,-1.0,105.0,-79.0,127.0,127.0,127.0,-113.0,-84.0,118.0
127.0,128.0,126.0,125.0,126.0,126.0,141.0,128.0,-1.0,105.0,-79.0,127.0,127.0,127.0,-113.0,-84.0,118.0
127.0,128.0,126.0,125.0,126.0,126.0,141.0,128.0,-1.0,105.0,-79.0,127.0,127.0,127.0,-113.0,-84.0,118.0
127.0,127.0,126.0,125.0,126.0,125.0,141.0,128.0,-1.0,105.0,-79.0,127.0,127.0,127.0,-113.0,-84.0,118.0
127.0,128.0,126.0,125.0,126.0,126.0,141.0,128.0,-1.0,105.0,-79.0,127.0,127.0,127.0,-113.0,-84.0,118.0
127.0,128.0,126.0,125.0,126.0,126.0,141.0,128.0,-1.0,105.0,-79.0,127.0,127.0,127.0,-113.0,-84.0,118.0
127.0,128.0,126.0,125.0,126.0,126.0,141.0,128.0,-1.0,105.0,-79.0,127.0,127.0,127.0,-113.0,-84.0,118.0
127.0,128.0,126.0,125.0,126.0,126.0,141.0,128.0,-1.0,105.0,-79.0,127.0,127.0,127.0,-113.0,-84.0,118.0
127.0,128.0,126.0,125.0,126.0,125.0,141.0,128.0,-1.0,105.0,-79.0,127.0,127.0,127.0,-113.0,-84.0,118.0
127.0,128.0,126.0,125.0,126.0,126.0,141.0,128.0,-1.0,105.0,-79.0,127.0,127.0,127.0,-113.0,-84.0,118.0
126.0,128.0,126.0,125.0,126.0,127.0,141.0,129.0,-1.0,105.0,-79.0,127.0,127.0,127.0,-113.0,-84.0,118.0
126.0,128.0,126.0,125.0,126.0,127.0,141.0,129.0,-1.0,105.0,-79.0,127.0,127.0,127.0,-113.0,-84.0,118.0
126.0,127.0,127.0,126.0,126.0,126.0,141.0,128.0,-1.0,105.0,-79.0,127.0,127.0,127.0,-113.0,-84.0,118.0
126.0,127.0,127.0,126.0,126.0,126.0,141.0,128.0,-1.0,105.0,-79.0,127.0,127.0,127.0,-113.0,-84.0,118.0
126.0,127.0,127.0,126.0,126.0,126.0,141.0,128.0,-1.0,105.0,-79.0,127.0,127.0,127.0,-113.0,-84.0,118.0
126.0,128.0,127.0,126.0,126.0,126.0,141.0,128.0,-1.0,105.0,-79.0,127.0,127.0,127.0,-113.0,-84.0,118.0
126.0,127.0,127.0,125.0,126.0,126.0,141.0,128.0,-1.0,105.0,-79.0,127.0,127.0,127.0,-113.0,-84.0,118.0
126.0,127.0,127.0,125.0,126.0,126.0,141.0,128.0,-1.0,105.0,-79.0,127.0,127.0,127.0,-113.0,-84.0,118.0
126.0,127.0,127.0,125.0,126.0,126.0,141.0,128.0,-1.0,105.0,-79.0,127.0,127.0,127.0,-113.0,-84.0,118.0
126.0,128.0,127.0,125.0,126.0,126.0,141.0,128.0,-1.0,105.0,-79.0,127.0,127.0,127.0,-113.0,-84.0,118.0
126.0,128.0,126.0,126.0,126.0,127.0,140.0,128.0,-1.0,105.0,-79.0,127.0,127.0,127.0,-113.0,-84.0,118.0
126.0,127.0,126.0,126.0,127.0,126.0,141.0,128.0,-1.0,105.0,-79.0,127.0,127.0,127.0,-113.0,-84.0,118.0
126.0,127.0,126.0,126.0,126.0,126.0,141.0,128.0,-1.0,105.0,-79.0,127.0,127.0,127.0,-113.0,-84.0,118.0
126.0,127.0,126.0,126.0,126.0,127.0,140.0,128.0,-1.0,105.0,-79.0,127.0,127.0,127.0,-113.0,-84.0,118.0
126.0,128.0,126.0,126.0,126.0,127.0,141.0,128.0,-1.0,105.0,-79.0,127.0,127.0,127.0,-113.0,-84.0,118.0
126.0,127.0,126.0,126.0,126.0,126.0,140.0,128.0,-1.0,105.0,-79.0,127.0,127.0,127.0,-113.0,-84.0,118.0
126.0,127.0,126.0,126.0,126.0,126.0,141.0,128.0,-1.0,105.0,-79.0,127.0,127.0,127.0,-113.0,-84.0,118.0
126.0,127.0,126.0,126.0,126.0,126.0,141.0,128.0,-1.0,105.0,-79.0,127.0,127.0,127.0,-113.0,-84.0,118.0
126.0,127.0,126.0,126.0,126.0,126.0,140.0,128.0,-1.0,105.0,-79.0,127.0,127.0,127.0,-113.0,-84.0,118.0
126.0,128.0,126.0,126.0,126.0,127.0,141.0,128.0,-1.0,105.0,-79.0,127.0,127.0,127.0,-113.0,-84.0,118.0
126.0,127.0,126.0,126.0,127.0,125.0,140.0,128.0,-1.0,105.0,-80.0,127.0,127.0,127.0,-113.0,-84.0,118.0
126.0,127.0,126.0,126.0,126.0,126.0,140.0,128.0,-1.0,105.0,-80.0,127.0,127.0,127.0,-113.0,-84.0,118.0
126.0,128.0,126.0,126.0,126.0,126.0,140.0,129.0,-1.0,105.0,-80.0,127.0,127.0,127.0,-113.0,-84.0,118.0
126.0,128.0,126.0,126.0,126.0,126.0,140.0,129.0,-1.0,105.0,-80.0,127.0,127.0,127.0,-113.0,-84.0,118.0
126.0,127.0,126.0,126.0,126.0,126.0,140.0,129.0,-1.0,105.0,-80.0,127.0,127.0,127.0,-113.0,-84.0,118.0
126.0,127.0,126.0,126.0,126.0,126.0,140.0,129.0,-1.0,105.0,-80.0,127.0,127.0,127.0,-113.0,-84.0,118.0
126.0,127.0,126.0,126.0,126.0,126.0,140.0,129.0,-1.0,105.0,-80.0,127.0,127.0,127.0,-113.0,-84.0,118.0
126.0,128.0,126.0,126.0,126.0,126.0,140.0,129.0,-1.0,105.0,-80.0,127.0,127.0,127.0,-113.0,-84.0,118.0
126.0,128.0,126.0,126.0,126.0,127.0,140.0,129.0,-1.0,105.0,-80.0,127.0,127.0,127.0,-113.0,-84.0,118.0
126.0,128.0,126.0,126.0,126.0,127.0,140.0,129.0,-1.0,105.0,-80.0,127.0,127.0,127.0,-113.0,-84.0,118.0
126.0,127.0,127.0,126.0,126.0,126.0,139.0,129.0,-1.0,105.0,-80.0,127.0,127.0,127.0,-113.0,-84.0,118.0
126.0,128.0,126.0,126.0,126.0,126.0,139.0,129.0,-1.0,105.0,-80.0,127.0,127.0,127.0,-113.0,-84.0,118.0
126.0,127.0,126.0,126.0,126.0,126.0,138.0,129.0,-1.0,105.0,-80.0,127.0,127.0,127.0,-113.0,-84.0,118.0
126.0,127.0,126.0,126.0,126.0,126.0,138.0,129.0,-1.0,105.0,-80.0,127.0,127.0,127.0,-113.0,-84.0,118.0
126.0,127.0,126.0,126.0,126.0,126.0,138.0,129.0,-1.0,105.0,-80.0,127.0,127.0,127.0,-113.0,-84.0,118.0
126.0,127.0,126.0,126.0,126.0,126.0,138.0,129.0,-1.0,105.0,-80.0,127.0,127.0,127.0,-113.0,-84.0,118.0
126.0,127.0,126.0,126.0,126.0,126.0,138.0,129.0,-1.0,105.0,-80.0,127.0,127.0,127.0,-113.0,-84.0,118.0
126.0,128.0,126.0,126.0,126.0,126.0,138.0,129.0,-1.0,105.0,-80.0,127.0,127.0,127.0,-113.0,-84.0,118.0
126.0,128.0,126.0,126.0,126.0,126.0,138.0,129.0,-1.0,105.0,-80.0,127.0,127.0,127.0,-113.0,-84.0,118.0
126.0,127.0,127.0,126.0,126.0,125.0,139.0,129.0,-1.0,105.0,-80.0,127.0,127.0,127.0,-113.0,-84.0,118.0
126.0,127.0,127.0,126.0,126.0,125.0,137.0,128.0,-1.0,105.0,-80.0,127.0,127.0,127.0,-113.0,-84.0,118.0
126.0,127.0,127.0,126.0,126.0,125.0,137.0,128.0,-1.0,105.0,-80.0,127.0,127.0,127.0,-113.0,-84.0,118.0
126.0,127.0,127.0,126.0,126.0,125.0,137.0,128.0,-1.0,105.0,-80.0,127.0,127.0,127.0,-113.0,-84.0,118.0
126.0,127.0,127.0,126.0,126.0,125.0,137.0,128.0,-1.0,105.0,-80.0,127.0,127.0,127.0,-113.0,-84.0,118.0
126.0,127.0,127.0,126.0,126.0,125.0,137.0,128.0,-1.0,105.0,-80.0,127.0,127.0,127.0,-113.0,-84.0,118.0
126.0,127.0,127.0,126.0,126.0,125.0,137.0,128.0,-1.0,105.0,-80.0,127.0,127.0,127.0,-113.0,-84.0,118.0
126.0,127.0,127.0,126.0,126.0,125.0,137.0,128.0,-1.0,105.0,-80.0,127.0,127.0,127.0,-113.0,-84.0,118.0
126.0,127.0,127.0,126.0,126.0,125.0,137.0,128.0,-1.0,105.0,-80.0,127.0,127.0,127.0,-113.0,-84.0,118.0
126.0,127.0,127.0,126.0,126.0,126.0,137.0,128.0,-1.0,105.0,-80.0,127.0,127.0,127.0,-113.0,-84.0,118.0
126.0,127.0,127.0,126.0,126.0,126.0,137.0,128.0,-1.0,105.0,-80.0,127.0,127.0,127.0,-113.0,-84.0,118.0
126.0,127.0,126.0,126.0,126.0,126.0,135.0,128.0,-1.0,105.0,-80.0,127.0,127.0,127.0,-113.0,-84.0,118.0
126.0,127.0,126.0,126.0,126.0,126.0,135.0,128.0,-1.0,105.0,-80.0,127.0,127.0,127.0,-113.0,-84.0,118.0
126.0,127.0,126.0,126.0,126.0,126.0,135.0,128.0,-1.0,105.0,-80.0,127.0,127.0,127.0,-113.0,-84.0,118.0
126.0,127.0,126.0,126.0,126.0,126.0,135.0,128.0,-1.0,105.0,-80.0,127.0,127.0,127.0,-113.0,-84.0,118.0
126.0,127.0,126.0,126.0,126.0,126.0,135.0,128.0,-1.0,105.0,-80.0,127.0,127.0,127.0,-113.0,-84.0,118.0
126.0,127.0,126.0,126.0,126.0,126.0,135.0,128.0,-1.0,105.0,-80.0,127.0,127.0,127.0,-113.0,-84.0,118.0
126.0,127.0,126.0,126.0,126.0,126.0,135.0,128.0,-1.0,105.0,-80.0,127.0,127.0,127.0,-113.0,-84.0,118.0
126.0,127.0,127.0,126.0,126.0,125.0,135.0,128.0,-1.0,105.0,-80.0,127.0,127.0,127.0,-113.0,-84.0,118.0
126.0,127.0,127.0,126.0,126.0,125.0,135.0,128.0,-1.0,105.0,-80.0,127.0,127.0,127.0,-113.0,-84.0,118.0
126.0,127.0,126.0,126.0,126.0,126.0,135.0,128.0,-1.0,105.0,-80.0,127.0,127.0,127.0,-113.0,-84.0,118.0
126.0,127.0,127.0,126.0,126.0,127.0,134.0,128.0,-1.0,105.0,-80.0,127.0,127.0,127.0,-113.0,-84.0,118.0
127.0,127.0,127.0,126.0,126.0,127.0,134.0,128.0,-1.0,105.0,-80.0,127.0,127.0,127.0,-113.0,-84.0,118.0
126.0,127.0,127.0,126.0,126.0,127.0,134.0,128.0,-1.0,105.0,-80.0,127.0,127.0,127.0,-113.0,-84.0,118.0
126.0,127.0,127.0,126.0,126.0,127.0,134.0,128.0,-1.0,105.0,-80.0,127.0,127.0,127.0,-113.0,-84.0,118.0
127.0,127.0,127.0,126.0,126.0,127.0,134.0,128.0,-1.0,105.0,-80.0,127.0,127.0,127.0,-113.0,-84.0,118.0
127.0,127.0,127.0,126.0,126.0,127.0,134.0,128.0,-1.0,105.0,-80.0,127.0,127.0,127.0,-113.0,-84.0,118.0
126.0,127.0,127.0,126.0,126.0,126.0,134.0,127.0,-1.0,105.0,-80.0,127.0,127.0,127.0,-113.0,-84.0,118.0
126.0,127.0,127.0,126.0,126.0,126.0,134.0,127.0,-1.0,105.0,-80.0,127.0,127.0,127.0,-113.0,-84.0,118.0
126.0,127.0,127.0,126.0,126.0,127.0,134.0,128.0,-1.0,105.0,-80.0,127.0,127.0,127.0,-113.0,-84.0,118.0
126.0,127.0,127.0,126.0,126.0,127.0,134.0,128.0,-1.0,105.0,-80.0,127.0,127.0,127.0,-113.0,-84.0,118.0
127.0,127.0,127.0,126.0,126.0,126.0,133.0,128.0,-1.0,105.0,-80.0,127.0,127.0,127.0,-113.0,-84.0,118.0
127.0,127.0,127.0,126.0,126.0,126.0,133.0,128.0,-1.0,105.0,-80.0,127.0,127.0,127.0,-113.0,-84.0,118.0
127.0,127.0,127.0,126.0,126.0,126.0,133.0,128.0,-1.0,105.0,-80.0,127.0,127.0,127.0,-113.0,-84.0,118.0
127.0,127.0,126.0,126.0,126.0,126.0,133.0,128.0,-1.0,105.0,-80.0,127.0,127.0,127.0,-113.0,-84.0,118.0
127.0,128.0,126.0,126.0,126.0,126.0,133.0,128.0,-1.0,105.0,-80.0,127.0,127.0,127.0,-113.0,-84.0,118.0
127.0,127.0,127.0,126.0,126.0,125.0,133.0,128.0,-1.0,105.0,-80.0,127.0,127.0,127.0,-113.0,-84.0,118.0
127.0,127.0,127.0,126.0,126.0,125.0,133.0,128.0,-1.0,105.0,-80.0,127.0,127.0,127.0,-113.0,-84.0,118.0
127.0,127.0,126.0,126.0,126.0,126.0,133.0,128.0,-1.0,105.0,-80.0,127.0,127.0,127.0,-113.0,-84.0,118.0
127.0,127.0,126.0,126.0,126.0,126.0,133.0,128.0,-1.0,105.0,-80.0,127.0,127.0,127.0,-113.0,-84.0,118.0
127.0,127.0,126.0,126.0,126.0,126.0,133.0,128.0,-1.0,105.0,-80.0,127.0,127.0,127.0,-113.0,-84.0,118.0
126.0,128.0,127.0,126.0,126.0,126.0,132.0,128.0,-1.0,105.0,-80.0,127.0,127.0,127.0,-113.0,-84.0,118.0
126.0,128.0,127.0,126.0,126.0,126.0,132.0,128.0,-1.0,105.0,-80.0,127.0,127.0,127.0,-113.0,-84.0,118.0
126.0,128.0,127.0,126.0,126.0,126.0,132.0,128.0,-1.0,105.0,-80.0,127.0,127.0,127.0,-113.0,-84.0,118.0
126.0,128.0,127.0,126.0,126.0,127.0,132.0,128.0,-1.0,105.0,-80.0,127.0,127.0,127.0,-113.0,-84.0,118.0
126.0,128.0,127.0,126.0,126.0,127.0,132.0,128.0,-1.0,105.0,-80.0,127.0,127.0,127.0,-113.0,-84.0,118.0
127.0,128.0,127.0,126.0,126.0,127.0,132.0,128.0,-1.0,105.0,-80.0,127.0,127.0,127.0,-113.0,-84.0,118.0
126.0,128.0,127.0,126.0,126.0,127.0,132.0,128.0,-1.0,105.0,-80.0,127.0,127.0,127.0,-113.0,-84.0,118.0
127.0,128.0,127.0,126.0,126.0,127.0,132.0,128.0,-1.0,105.0,-80.0,127.0,127.0,127.0,-113.0,-84.0,118.0
126.0,128.0,127.0,126.0,126.0,126.0,132.0,128.0,-1.0,105.0,-80.0,127.0,127.0,127.0,-113.0,-84.0,118.0
126.0,128.0,127.0,126.0,126.0,126.0,132.0,128.0,-1.0,105.0,-80.0,127.0,127.0,127.0,-113.0,-84.0,118.0
126.0,128.0,126.0,126.0,126.0,126.0,132.0,127.0,-1.0,105.0,-80.0,127.0,127.0,127.0,-113.0,-84.0,118.0
126.0,128.0,126.0,126.0,127.0,126.0,132.0,127.0,-1.0,105.0,-80.0,127.0,127.0,127.0,-113.0,-84.0,118.0
126.0,128.0,126.0,126.0,126.0,127.0,131.0,128.0,-1.0,105.0,-80.0,127.0,127.0,127.0,-113.0,-84.0,118.0
126.0,128.0,126.0,126.0,126.0,127.0,131.0,128.0,-1.0,105.0,-80.0,127.0,127.0,127.0,-113.0,-84.0,118.0
126.0,128.0,126.0,126.0,126.0,127.0,131.0,128.0,-1.0,105.0,-80.0,127.0,127.0,127.0,-113.0,-84.0,118.0
126.0,128.0,126.0,126.0,126.0,127.0,131.0,128.0,-1.0,105.0,-80.0,127.0,127.0,127.0,-113.0,-84.0,118.0
126.0,128.0,126.0,126.0,126.0,127.0,131.0,128.0,-1.0,105.0,-80.0,127.0,127.0,127.0,-113.0,-84.0,118.0
126.0,128.0,126.0,126.0,126.0,127.0,132.0,128.0,-1.0,105.0,-80.0,127.0,127.0,127.0,-113.0,-84.0,118.0
126.0,128.0,126.0,126.0,126.0,126.0,132.0,127.0,-1.0,105.0,-80.0,127.0,127.0,127.0,-113.0,-84.0,118.0
126.0,128.0,126.0,126.0,126.0,126.0,132.0,127.0,-1.0,105.0,-80.0,127.0,127.0,127.0,-113.0,-84.0,118.0
126.0,128.0,127.0,126.0,126.0,126.0,130.0,128.0,-1.0,105.0,-80.0,127.0,127.0,127.0,-113.0,-84.0,118.0
126.0,128.0,127.0,126.0,126.0,127.0,130.0,128.0,-1.0,105.0,-80.0,127.0,127.0,127.0,-113.0,-84.0,118.0
126.0,128.0,127.0,126.0,126.0,127.0,130.0,128.0,-1.0,105.0,-80.0,127.0,127.0,127.0,-113.0,-84.0,118.0
126.0,128.0,127.0,126.0,126.0,127.0,130.0,128.0,-1.0,105.0,-80.0,127.0,127.0,127.0,-113.0,-84.0,118.0
126.0,128.0,127.0,126.0,126.0,127.0,130.0,128.0,-1.0,105.0,-80.0,127.0,127.0,127.0,-113.0,-84.0,118.0
126.0,128.0,127.0,126.0,126.0,126.0,130.0,128.0,-1.0,105.0,-80.0,127.0,127.0,127.0,-113.0,-84.0,118.0
126.0,128.0,127.0,126.0,126.0,126.0,130.0,128.0,-1.0,105.0,-80.0,127.0,127.0,127.0,-113.0,-84.0,118.0
126.0,128.0,127.0,126.0,126.0,126.0,130.0,128.0,-1.0,105.0,-80.0,127.0,127.0,127.0,-113.0,-84.0,118.0
126.0,128.0,127.0,126.0,126.0,126.0,130.0,128.0,-1.0,105.0,-80.0,127.0,127.0,127.0,-113.0,-84.0,118.0
126.0,128.0,127.0,126.0,126.0,126.0,130.0,128.0,-1.0,105.0,-80.0,127.0,127.0,127.0,-113.0,-84.0,118.0
126.0,128.0,127.0,126.0,126.0,128.0,131.0,129.0,-1.0,105.0,-80.0,127.0,127.0,127.0,-113.0,-84.0,118.0
126.0,127.0,127.0,126.0,126.0,128.0,131.0,129.0,-1.0,105.0,-80.0,127.0,127.0,127.0,-113.0,-84.0,118.0
126.0,128.0,127.0,126.0,126.0,128.0,131.0,129.0,-1.0,105.0,-80.0,127.0,127.0,127.0,-113.0,-84.0,118.0
126.0,128.0,127.0,126.0,126.0,127.0,132.0,128.0,-1.0,105.0,-80.0,127.0,127.0,127.0,-113.0,-84.0,118.0
126.0,127.0,127.0,126.0,126.0,127.0,132.0,128.0,-1.0,105.0,-80.0,127.0,127.0,127.0,-113.0,-84.0,118.0
126.0,127.0,127.0,126.0,126.0,127.0,132.0,128.0,-1.0,105.0,-80.0,127.0,127.0,127.0,-113.0,-84.0,118.0
126.0,127.0,127.0,126.0,126.0,127.0,132.0,128.0,-1.0,105.0,-80.0,127.0,127.0,127.0,-113.0,-84.0,118.0
126.0,127.0,127.0,126.0,126.0,127.0,132.0,128.0,-1.0,105.0,-80.0,127.0,127.0,127.0,-113.0,-84.0,118.0
126.0,127.0,127.0,126.0,126.0,127.0,132.0,128.0,-1.0,105.0,-80.0,127.0,127.0,127.0,-113.0,-84.0,118.0
126.0,127.0,127.0,126.0,126.0,127.0,132.0,128.0,-1.0,105.0,-80.0,127.0,127.0,127.0,-113.0,-84.0,118.0
126.0,127.0,127.0,126.0,126.0,125.0,131.0,128.0,-1.0,105.0,-80.0,127.0,127.0,127.0,-113.0,-84.0,118.0
126.0,127.0,127.0,126.0,126.0,126.0,131.0,128.0,-1.0,105.0,-80.0,127.0,127.0,127.0,-113.0,-84.0,118.0
126.0,127.0,127.0,126.0,126.0,125.0,131.0,128.0,-1.0,105.0,-80.0,127.0,127.0,127.0,-113.0,-84.0,118.0
126.0,127.0,127.0,126.0,126.0,125.0,131.0,128.0,-1.0,105.0,-80.0,127.0,127.0,127.0,-113.0,-84.0,118.0
126.0,127.0,127.0,126.0,126.0,125.0,131.0,128.0,-1.0,105.0,-80.0,127.0,127.0,127.0,-113.0,-84.0,118.0
126.0,127.0,127.0,126.0,126.0,125.0,131.0,128.0,-1.0,105.0,-80.0,127.0,127.0,127.0,-113.0,-84.0,118.0
126.0,127.0,127.0,126.0,126.0,125.0,131.0,128.0,-1.0,105.0,-80.0,127.0,127.0,127.0,-113.0,-84.0,118.0
126.0,127.0,127.0,126.0,126.0,125.0,131.0,128.0,-1.0,105.0,-80.0,127.0,127.0,127.0,-113.0,-84.0,118.0
126.0,127.0,127.0,126.0,126.0,125.0,131.0,128.0,-1.0,105.0,-80.0,127.0,127.0,127.0,-113.0,-84.0,118.0
126.0,127.0,127.0,126.0,126.0,126.0,131.0,128.0,-1.0,105.0,-80.0,127.0,127.0,127.0,-113.0,-84.0,118.0
127.0,128.0,127.0,126.0,126.0,128.0,130.0,128.0,-1.0,105.0,-80.0,127.0,127.0,127.0,-113.0,-84.0,118.0
127.0,128.0,127.0,126.0,126.0,127.0,130.0,128.0,-1.0,105.0,-80.0,127.0,127.0,127.0,-113.0,-84.0,118.0
127.0,128.0,127.0,126.0,126.0,127.0,130.0,128.0,-1.0,105.0,-80.0,127.0,127.0,127.0,-113.0,-84.0,118.0
127.0,128.0,127.0,126.0,126.0,127.0,130.0,128.0,-1.0,105.0,-80.0,127.0,127.0,127.0,-113.0,-84.0,118.0
127.0,128.0,127.0,126.0,126.0,127.0,130.0,128.0,-1.0,105.0,-80.0,127.0,127.0,127.0,-113.0,-84.0,118.0
127.0,128.0,127.0,126.0,126.0,126.0,130.0,128.0,-1.0,105.0,-80.0,127.0,127.0,127.0,-113.0,-84.0,118.0
127.0,127.0,127.0,126.0,126.0,126.0,130.0,127.0,-1.0,105.0,-80.0,127.0,127.0,127.0,-113.0,-84.0,118.0
127.0,127.0,127.0,126.0,126.0,126.0,130.0,127.0,-1.0,105.0,-80.0,127.0,127.0,127.0,-113.0,-84.0,118.0
127.0,127.0,127.0,126.0,126.0,127.0,130.0,128.0,-1.0,105.0,-80.0,127.0,127.0,127.0,-113.0,-84.0,118.0
127.0,128.0,127.0,126.0,126.0,128.0,130.0,128.0,-1.0,105.0,-80.0,127.0,127.0,127.0,-113.0,-84.0,118.0
126.0,127.0,127.0,126.0,126.0,127.0,129.0,127.0,-1.0,105.0,-80.0,127.0,127.0,127.0,-113.0,-84.0,118.0
126.0,127.0,127.0,126.0,126.0,127.0,129.0,127.0,-1.0,105.0,-80.0,127.0,127.0,127.0,-113.0,-84.0,118.0
126.0,127.0,127.0,126.0,126.0,127.0,129.0,127.0,-1.0,105.0,-80.0,127.0,127.0,127.0,-113.0,-84.0,118.0
126.0,127.0,127.0,126.0,126.0,127.0,129.0,127.0,-1.0,105.0,-80.0,127.0,127.0,127.0,-113.0,-84.0,118.0
126.0,127.0,127.0,126.0,126.0,126.0,129.0,127.0,-1.0,105.0,-80.0,127.0,127.0,127.0,-113.0,-84.0,118.0
126.0,127.0,127.0,126.0,126.0,126.0,129.0,127.0,-1.0,105.0,-80.0,127.0,127.0,127.0,-113.0,-84.0,118.0
126.0,127.0,127.0,126.0,126.0,126.0,129.0,127.0,-1.0,105.0,-80.0,127.0,127.0,127.0,-113.0,-84.0,118.0
126.0,127.0,127.0,126.0,126.0,126.0,129.0,127.0,-1.0,105.0,-80.0,127.0,127.0,127.0,-113.0,-84.0,118.0
126.0,127.0,127.0,126.0,126.0,127.0,129.0,127.0,-1.0,105.0,-80.0,127.0,127.0,127.0,-113.0,-84.0,118.0
126.0,127.0,127.0,126.0,126.0,127.0,129.0,127.0,-1.0,105.0,-80.0,127.0,127.0,127.0,-113.0,-84.0,118.0
126.0,127.0,126.0,126.0,126.0,128.0,129.0,127.0,-1.0,105.0,-80.0,127.0,127.0,127.0,-113.0,-84.0,118.0
127.0,127.0,126.0,126.0,126.0,127.0,129.0,128.0,-1.0,105.0,-80.0,127.0,127.0,127.0,-113.0,-84.0,118.0
127.0,127.0,126.0,126.0,127.0,127.0,129.0,127.0,-1.0,105.0,-80.0,127.0,127.0,127.0,-113.0,-84.0,118.0
127.0,127.0,126.0,126.0,127.0,127.0,129.0,127.0,-1.0,105.0,-80.0,127.0,127.0,127.0,-113.0,-84.0,118.0
127.0,127.0,126.0,126.0,127.0,127.0,129.0,127.0,-1.0,105.0,-80.0,127.0,127.0,127.0,-113.0,-84.0,118.0
126.0,127.0,126.0,126.0,127.0,127.0,129.0,127.0,-1.0,105.0,-80.0,127.0,127.0,127.0,-113.0,-84.0,118.0
126.0,127.0,127.0,126.0,126.0,127.0,129.0,127.0,-1.0,105.0,-80.0,127.0,127.0,127.0,-113.0,-84.0,118.0
127.0,127.0,126.0,126.0,126.0,128.0,129.0,128.0,-1.0,105.0,-80.0,127.0,127.0,127.0,-113.0,-84.0,118.0
127.0,128.0,126.0,126.0,126.0,128.0,129.0,128.0,-1.0,105.0,-80.0,127.0,127.0,127.0,-113.0,-84.0,118.0
127.0,128.0,126.0,126.0,126.0,128.0,129.0,128.0,-1.0,105.0,-80.0,127.0,127.0,127.0,-113.0,-84.0,118.0
127.0,128.0,126.0,126.0,126.0,127.0,129.0,127.0,-1.0,105.0,-80.0,127.0,127.0,127.0,-113.0,-84.0,118.0
127.0,128.0,126.0,126.0,126.0,127.0,129.0,127.0,-1.0,105.0,-80.0,127.0,127.0,127.0,-113.0,-84.0,118.0
127.0,128.0,126.0,126.0,126.0,127.0,129.0,127.0,-1.0,105.0,-80.0,127.0,127.0,127.0,-113.0,-84.0,118.0
127.0,128.0,126.0,126.0,126.0,127.0,129.0,127.0,-1.0,105.0,-80.0,127.0,127.0,127.0,-113.0,-84.0,118.0
127.0,127.0,126.0,126.0,126.0,127.0,129.0,127.0,-1.0,105.0,-80.0,127.0,127.0,127.0,-113.0,-84.0,118.0
127.0,127.0,127.0,126.0,127.0,126.0,129.0,127.0,-1.0,105.0,-80.0,127.0,127.0,127.0,-113.0,-84.0,118.0
127.0,127.0,126.0,126.0,126.0,127.0,129.0,127.0,-1.0,105.0,-80.0,127.0,127.0,127.0,-113.0,-84.0,118.0
127.0,127.0,126.0,126.0,126.0,127.0,129.0,128.0,-1.0,105.0,-80.0,127.0,127.0,127.0,-113.0,-84.0,118.0
127.0,127.0,126.0,126.0,126.0,127.0,129.0,127.0,-1.0,105.0,-80.0,127.0,127.0,127.0,-113.0,-84.0,118.0
127.0,127.0,126.0,126.0,126.0,127.0,129.0,127.0,-1.0,105.0,-80.0,127.0,127.0,127.0,-113.0,-84.0,118.0
127.0,128.0,126.0,126.0,126.0,127.0,128.0,128.0,-1.0,105.0,-80.0,127.0,127.0,127.0,-113.0,-84.0,118.0
127.0,128.0,126.0,126.0,126.0,127.0,128.0,128.0,-1.0,105.0,-80.0,127.0,127.0,127.0,-113.0,-84.0,118.0
127.0,128.0,126.0,126.0,126.0,127.0,128.0,127.0,-1.0,105.0,-80.0,127.0,127.0,127.0,-113.0,-84.0,118.0
127.0,128.0,126.0,126.0,126.0,127.0,128.0,128.0,-1.0,105.0,-80.0,127.0,127.0,127.0,-113.0,-84.0,118.0
127.0,127.0,127.0,126.0,126.0,127.0,128.0,127.0,-1.0,105.0,-80.0,127.0,127.0,127.0,-113.0,-84.0,118.0
127.0,127.0,126.0,126.0,126.0,127.0,128.0,128.0,-1.0,105.0,-80.0,127.0,127.0,127.0,-113.0,-84.0,118.0
127.0,128.0,126.0,126.0,126.0,127.0,128.0,128.0,-1.0,105.0,-80.0,127.0,127.0,127.0,-113.0,-84.0,118.0
127.0,128.0,126.0,126.0,126.0,127.0,128.0,128.0,-1.0,105.0,-80.0,127.0,127.0,127.0,-113.0,-84.0,118.0
127.0,128.0,126.0,126.0,126.0,127.0,128.0,128.0,-1.0,105.0,-80.0,127.0,127.0,127.0,-113.0,-84.0,118.0
127.0,128.0,126.0,126.0,126.0,127.0,128.0,128.0,-1.0,105.0,-80.0,127.0,127.0,127.0,-113.0,-84.0,118.0
127.0,128.0,127.0,126.0,126.0,127.0,128.0,128.0,-1.0,105.0,-80.0,127.0,127.0,127.0,-113.0,-84.0,118.0
127.0,128.0,127.0,126.0,126.0,127.0,128.0,128.0,-1.0,105.0,-80.0,127.0,127.0,127.0,-113.0,-84.0,118.0
127.0,128.0,127.0,126.0,126.0,127.0,128.0,128.0,-1.0,105.0,-80.0,127.0,127.0,127.0,-113.0,-84.0,118.0
127.0,127.0,127.0,126.0,126.0,127.0,128.0,128.0,-1.0,105.0,-80.0,127.0,127.0,127.0,-113.0,-84.0,118.0
127.0,128.0,127.0,126.0,126.0,127.0,128.0,128.0,-1.0,105.0,-80.0,127.0,127.0,127.0,-113.0,-84.0,118.0
127.0,128.0,127.0,126.0,126.0,128.0,128.0,128.0,-1.0,105.0,-80.0,127.0,127.0,127.0,-113.0,-84.0,118.0
127.0,128.0,127.0,126.0,126.0,128.0,128.0,128.0,-1.0,105.0,-80.0,127.0,127.0,127.0,-113.0,-84.0,118.0
127.0,128.0,127.0,126.0,126.0,128.0,128.0,128.0,-1.0,105.0,-80.0,127.0,127.0,127.0,-113.0,-84.0,118.0
127.0,128.0,127.0,126.0,126.0,127.0,128.0,128.0,-1.0,105.0,-80.0,127.0,127.0,127.0,-113.0,-84.0,118.0
127.0,128.0,127.0,126.0,126.0,127.0,128.0,128.0,-1.0,105.0,-80.0,127.0,127.0,127.0,-113.0,-84.0,118.0
127.0,127.0,127.0,126.0,126.0,127.0,127.0,128.0,-1.0,105.0,-80.0,127.0,127.0,127.0,-113.0,-84.0,118.0
127.0,127.0,127.0,126.0,126.0,127.0,126.0,128.0,-1.0,105.0,-80.0,127.0,127.0,127.0,-113.0,-84.0,118.0
126.0,127.0,127.0,126.0,126.0,127.0,127.0,128.0,-1.0,105.0,-80.0,127.0,127.0,127.0,-113.0,-84.0,118.0
126.0,127.0,127.0,126.0,126.0,127.0,127.0,128.0,-1.0,105.0,-80.0,127.0,127.0,127.0,-113.0,-84.0,118.0
126.0,127.0,127.0,126.0,126.0,127.0,127.0,128.0,-1.0,105.0,-80.0,127.0,127.0,127.0,-113.0,-84.0,118.0
126.0,127.0,127.0,126.0,126.0,127.0,127.0,128.0,-1.0,105.0,-80.0,127.0,127.0,127.0,-113.0,-84.0,118.0
126.0,127.0,127.0,126.0,126.0,127.0,127.0,128.0,-1.0,105.0,-80.0,127.0,127.0,127.0,-113.0,-84.0,118.0
127.0,127.0,127.0,126.0,126.0,126.0,127.0,128.0,-1.0,105.0,-80.0,127.0,127.0,127.0,-113.0,-84.0,118.0
127.0,127.0,127.0,126.0,126.0,126.0,127.0,128.0,-1.0,105.0,-80.0,127.0,127.0,127.0,-113.0,-84.0,118.0
127.0,127.0,127.0,126.0,126.0,126.0,127.0,128.0,-1.0,105.0,-80.0,127.0,127.0,127.0,-113.0,-84.0,118.0
126.0,127.0,127.0,126.0,126.0,125.0,128.0,127.0,-1.0,105.0,-80.0,127.0,127.0,127.0,-113.0,-84.0,118.0
127.0,127.0,127.0,126.0,126.0,127.0,127.0,128.0,-1.0,105.0,-80.0,127.0,127.0,127.0,-113.0,-84.0,118.0
127.0,127.0,127.0,126.0,126.0,127.0,127.0,128.0,-1.0,105.0,-80.0,127.0,127.0,127.0,-113.0,-84.0,118.0
127.0,127.0,127.0,126.0,126.0,127.0,127.0,128.0,-1.0,105.0,-80.0,127.0,127.0,127.0,-113.0,-84.0,118.0
127.0,127.0,127.0,126.0,126.0,127.0,127.0,128.0,-1.0,105.0,-80.0,127.0,127.0,127.0,-113.0,-84.0,118.0
126.0,127.0,127.0,126.0,126.0,126.0,127.0,128.0,-1.0,105.0,-80.0,127.0,127.0,127.0,-113.0,-84.0,118.0
127.0,127.0,127.0,126.0,126.0,126.0,128.0,128.0,-1.0,105.0,-80.0,127.0,127.0,127.0,-113.0,-84.0,118.0
127.0,127.0,127.0,126.0,126.0,126.0,128.0,128.0,-1.0,105.0,-80.0,127.0,127.0,127.0,-113.0,-84.0,118.0
126.0,127.0,127.0,126.0,126.0,126.0,128.0,128.0,-1.0,105.0,-80.0,127.0,127.0,127.0,-113.0,-84.0,118.0
126.0,127.0,127.0,126.0,126.0,126.0,128.0,127.0,-1.0,105.0,-80.0,127.0,127.0,127.0,-113.0,-84.0,118.0
126.0,127.0,127.0,126.0,126.0,127.0,128.0,127.0,-1.0,105.0,-80.0,127.0,127.0,127.0,-113.0,-84.0,118.0
126.0,127.0,127.0,126.0,126.0,126.0,128.0,127.0,-1.0,105.0,-80.0,127.0,127.0,127.0,-113.0,-84.0,118.0
126.0,127.0,127.0,126.0,126.0,126.0,128.0,127.0,-1.0,105.0,-80.0,127.0,127.0,127.0,-113.0,-84.0,118.0
126.0,127.0,127.0,126.0,126.0,126.0,128.0,127.0,-1.0,105.0,-80.0,127.0,127.0,127.0,-113.0,-84.0,118.0
126.0,127.0,127.0,126.0,126.0,126.0,128.0,127.0,-1.0,105.0,-80.0,127.0,127.0,127.0,-113.0,-84.0,118.0
126.0,127.0,126.0,126.0,126.0,126.0,128.0,127.0,-1.0,105.0,-80.0,127.0,127.0,127.0,-113.0,-84.0,118.0
126.0,127.0,126.0,126.0,126.0,126.0,128.0,127.0,-1.0,105.0,-80.0,127.0,127.0,127.0,-113.0,-84.0,118.0
126.0,127.0,126.0,126.0,126.0,126.0,128.0,127.0,-1.0,105.0,-80.0,127.0,127.0,127.0,-113.0,-84.0,118.0
126.0,127.0,126.0,126.0,126.0,126.0,128.0,127.0,-1.0,105.0,-80.0,127.0,127.0,127.0,-113.0,-84.0,118.0
126.0,127.0,126.0,126.0,126.0,126.0,128.0,127.0,-1.0,105.0,-80.0,127.0,127.0,127.0,-113.0,-84.0,118.0
126.0,127.0,127.0,126.0,126.0,127.0,127.0,128.0,-1.0,105.0,-80.0,127.0,127.0,127.0,-113.0,-84.0,118.0
126.0,127.0,127.0,126.0,126.0,126.0,127.0,128.0,-1.0,105.0,-80.0,127.0,127.0,127.0,-113.0,-84.0,118.0
126.0,127.0,127.0,126.0,126.0,126.0,127.0,128.0,-1.0,105.0,-80.0,127.0,127.0,127.0,-113.0,-84.0,118.0
126.0,128.0,127.0,126.0,126.0,126.0,127.0,128.0,-1.0,105.0,-80.0,127.0,127.0,127.0,-113.0,-84.0,118.0
126.0,128.0,126.0,126.0,125.0,127.0,126.0,128.0,-1.0,105.0,-80.0,127.0,127.0,127.0,-113.0,-84.0,118.0
126.0,128.0,126.0,126.0,125.0,127.0,127.0,128.0,-1.0,105.0,-80.0,127.0,127.0,127.0,-113.0,-84.0,118.0
126.0,128.0,126.0,126.0,125.0,127.0,126.0,128.0,-1.0,105.0,-80.0,127.0,127.0,127.0,-113.0,-84.0,118.0
126.0,128.0,126.0,126.0,126.0,127.0,126.0,128.0,-1.0,105.0,-80.0,127.0,127.0,127.0,-113.0,-84.0,118.0
126.0,128.0,126.0,126.0,126.0,126.0,127.0,128.0,-1.0,105.0,-80.0,127.0,127.0,127.0,-113.0,-84.0,118.0
126.0,127.0,127.0,126.0,126.0,127.0,127.0,128.0,-1.0,105.0,-80.0,127.0,127.0,127.0,-113.0,-84.0,118.0
126.0,127.0,127.0,126.0,126.0,127.0,126.0,128.0,-1.0,105.0,-80.0,127.0,127.0,127.0,-113.0,-84.0,118.0
126.0,127.0,127.0,126.0,126.0,126.0,126.0,128.0,-1.0,105.0,-80.0,127.0,127.0,127.0,-113.0,-84.0,118.0
126.0,127.0,127.0,126.0,127.0,127.0,126.0,127.0,-1.0,105.0,-80.0,127.0,127.0,127.0,-113.0,-84.0,118.0
126.0,127.0,127.0,126.0,126.0,127.0,126.0,128.0,-1.0,105.0,-80.0,127.0,127.0,127.0,-113.0,-84.0,118.0
127.0,127.0,127.0,126.0,126.0,127.0,126.0,128.0,-1.0,105.0,-80.0,127.0,127.0,127.0,-113.0,-84.0,118.0
127.0,127.0,127.0,126.0,126.0,127.0,126.0,128.0,-1.0,105.0,-80.0,127.0,127.0,127.0,-113.0,-84.0,118.0
127.0,127.0,127.0,126.0,126.0,127.0,126.0,128.0,-1.0,105.0,-80.0,127.0,127.0,127.0,-113.0,-84.0,118.0
127.0,127.0,126.0,126.0,126.0,127.0,126.0,128.0,-1.0,105.0,-80.0,127.0,127.0,127.0,-113.0,-84.0,118.0
126.0,127.0,127.0,126.0,126.0,127.0,126.0,128.0,-1.0,105.0,-80.0,127.0,127.0,127.0,-113.0,-84.0,118.0
126.0,127.0,127.0,126.0,126.0,127.0,126.0,128.0,-1.0,105.0,-80.0,127.0,127.0,127.0,-113.0,-84.0,118.0
127.0,128.0,126.0,126.0,127.0,127.0,125.0,127.0,-1.0,105.0,-80.0,127.0,127.0,127.0,-113.0,-84.0,118.0
127.0,128.0,126.0,126.0,127.0,127.0,126.0,127.0,-1.0,105.0,-80.0,127.0,127.0,127.0,-113.0,-84.0,118.0
127.0,128.0,126.0,126.0,126.0,127.0,125.0,127.0,-1.0,105.0,-80.0,127.0,127.0,127.0,-113.0,-84.0,118.0
127.0,128.0,126.0,126.0,126.0,128.0,125.0,128.0,-1.0,105.0,-80.0,127.0,127.0,127.0,-113.0,-84.0,118.0
127.0,128.0,126.0,126.0,126.0,128.0,125.0,128.0,-1.0,105.0,-80.0,127.0,127.0,127.0,-113.0,-84.0,118.0
127.0,128.0,126.0,126.0,126.0,128.0,125.0,128.0,-1.0,105.0,-80.0,127.0,127.0,127.0,-113.0,-84.0,118.0
127.0,127.0,126.0,126.0,126.0,127.0,126.0,128.0,-1.0,105.0,-80.0,127.0,127.0,127.0,-113.0,-84.0,118.0
127.0,128.0,126.0,126.0,126.0,127.0,125.0,128.0,-1.0,105.0,-80.0,127.0,127.0,127.0,-113.0,-84.0,118.0
127.0,128.0,126.0,126.0,127.0,127.0,125.0,128.0,-1.0,105.0,-80.0,127.0,127.0,127.0,-113.0,-84.0,118.0
127.0,128.0,126.0,126.0,127.0,127.0,125.0,128.0,-1.0,105.0,-80.0,127.0,127.0,127.0,-113.0,-84.0,118.0
127.0,128.0,127.0,127.0,126.0,127.0,126.0,128.0,-1.0,105.0,-80.0,127.0,127.0,127.0,-113.0,-84.0,118.0
127.0,128.0,127.0,127.0,126.0,127.0,126.0,128.0,-1.0,105.0,-80.0,127.0,127.0,127.0,-113.0,-84.0,118.0
127.0,128.0,127.0,127.0,127.0,126.0,126.0,127.0,-1.0,105.0,-80.0,127.0,127.0,127.0,-113.0,-84.0,118.0
127.0,128.0,127.0,127.0,127.0,126.0,126.0,127.0,-1.0,105.0,-80.0,127.0,127.0,127.0,-113.0,-84.0,118.0
127.0,128.0,127.0,127.0,127.0,126.0,126.0,127.0,-1.0,105.0,-80.0,127.0,127.0,127.0,-113.0,-84.0,118.0
126.0,127.0,127.0,127.0,126.0,127.0,126.0,128.0,-1.0,105.0,-80.0,127.0,127.0,127.0,-113.0,-84.0,118.0
126.0,128.0,127.0,127.0,126.0,127.0,126.0,128.0,-1.0,105.0,-80.0,127.0,127.0,127.0,-113.0,-84.0,118.0
126.0,128.0,127.0,127.0,126.0,127.0,126.0,128.0,-1.0,105.0,-80.0,127.0,127.0,127.0,-113.0,-84.0,118.0
127.0,128.0,127.0,127.0,126.0,127.0,126.0,128.0,-1.0,105.0,-80.0,127.0,127.0,127.0,-113.0,-84.0,118.0
127.0,128.0,127.0,127.0,126.0,127.0,126.0,128.0,-1.0,105.0,-80.0,127.0,127.0,127.0,-113.0,-84.0,118.0
127.0,128.0,126.0,126.0,125.0,127.0,126.0,128.0,-1.0,105.0,-80.0,127.0,127.0,127.0,-113.0,-84.0,118.0
127.0,127.0,126.0,126.0,125.0,127.0,126.0,128.0,-1.0,105.0,-80.0,127.0,127.0,127.0,-113.0,-84.0,118.0
127.0,128.0,126.0,126.0,125.0,127.0,126.0,128.0,-1.0,105.0,-80.0,127.0,127.0,127.0,-113.0,-84.0,118.0
127.0,128.0,126.0,126.0,126.0,127.0,126.0,128.0,-1.0,105.0,-80.0,127.0,127.0,127.0,-113.0,-84.0,118.0
127.0,127.0,127.0,126.0,125.0,127.0,126.0,128.0,-1.0,105.0,-80.0,127.0,127.0,127.0,-113.0,-84.0,118.0
127.0,127.0,127.0,126.0,125.0,127.0,126.0,128.0,-1.0,105.0,-80.0,127.0,127.0,127.0,-113.0,-84.0,118.0
127.0,127.0,127.0,126.0,125.0,127.0,126.0,128.0,-1.0,105.0,-80.0,127.0,127.0,127.0,-113.0,-84.0,118.0
127.0,127.0,127.0,126.0,125.0,127.0,126.0,128.0,-1.0,105.0,-80.0,127.0,127.0,127.0,-113.0,-84.0,118.0
127.0,128.0,126.0,126.0,125.0,128.0,126.0,128.0,-1.0,105.0,-80.0,127.0,127.0,127.0,-113.0,-84.0,118.0
127.0,128.0,126.0,126.0,125.0,128.0,126.0,128.0,-1.0,105.0,-80.0,127.0,127.0,127.0,-113.0,-84.0,118.0
127.0,127.0,126.0,126.0,126.0,127.0,124.0,128.0,-1.0,105.0,-80.0,127.0,127.0,127.0,-113.0,-84.0,118.0
127.0,127.0,126.0,126.0,126.0,127.0,123.0,128.0,-1.0,105.0,-80.0,127.0,127.0,127.0,-113.0,-84.0,118.0
127.0,127.0,126.0,126.0,126.0,127.0,123.0,128.0,-1.0,105.0,-80.0,127.0,127.0,127.0,-113.0,-84.0,118.0
127.0,127.0,127.0,126.0,126.0,127.0,124.0,128.0,-1.0,105.0,-80.0,127.0,127.0,127.0,-113.0,-84.0,118.0
127.0,127.0,127.0,126.0,126.0,127.0,124.0,128.0,-1.0,105.0,-80.0,127.0,127.0,127.0,-113.0,-84.0,118.0
127.0,127.0,126.0,126.0,126.0,127.0,124.0,128.0,-1.0,105.0,-80.0,127.0,127.0,127.0,-113.0,-84.0,118.0
127.0,127.0,126.0,126.0,126.0,127.0,124.0,128.0,-1.0,105.0,-80.0,127.0,127.0,127.0,-113.0,-84.0,118.0
127.0,127.0,126.0,126.0,126.0,127.0,124.0,128.0,-1.0,105.0,-80.0,127.0,127.0,127.0,-113.0,-84.0,118.0
127.0,127.0,126.0,126.0,126.0,127.0,124.0,128.0,-1.0,105.0,-80.0,127.0,127.0,127.0,-113.0,-84.0,118.0
127.0,127.0,126.0,126.0,126.0,127.0,124.0,128.0,-1.0,105.0,-80.0,127.0,127.0,127.0,-113.0,-84.0,118.0
127.0,127.0,127.0,126.0,126.0,126.0,120.0,128.0,-1.0,105.0,-80.0,127.0,127.0,127.0,-113.0,-84.0,118.0
127.0,127.0,127.0,126.0,126.0,126.0,120.0,128.0,-1.0,105.0,-80.0,127.0,127.0,127.0,-113.0,-84.0,118.0
127.0,127.0,127.0,126.0,127.0,126.0,120.0,128.0,-1.0,105.0,-80.0,127.0,127.0,127.0,-113.0,-84.0,118.0
127.0,127.0,128.0,126.0,127.0,126.0,120.0,128.0,-1.0,105.0,-80.0,127.0,127.0,127.0,-113.0,-84.0,118.0
127.0,127.0,127.0,126.0,126.0,126.0,120.0,128.0,-1.0,105.0,-80.0,127.0,127.0,127.0,-113.0,-84.0,118.0
127.0,127.0,127.0,126.0,126.0,126.0,120.0,128.0,-1.0,105.0,-80.0,127.0,127.0,127.0,-113.0,-84.0,118.0
127.0,127.0,127.0,126.0,126.0,126.0,120.0,128.0,-1.0,105.0,-80.0,127.0,127.0,127.0,-113.0,-84.0,118.0
127.0,127.0,127.0,126.0,126.0,126.0,120.0,128.0,-1.0,105.0,-80.0,127.0,127.0,127.0,-113.0,-84.0,118.0
127.0,127.0,127.0,126.0,126.0,126.0,120.0,128.0,-1.0,105.0,-80.0,127.0,127.0,127.0,-113.0,-84.0,118.0
127.0,127.0,127.0,126.0,126.0,126.0,120.0,128.0,-1.0,105.0,-80.0,127.0,127.0,127.0,-113.0,-84.0,118.0
127.0,127.0,126.0,126.0,126.0,127.0,122.0,128.0,-1.0,105.0,-80.0,127.0,127.0,127.0,-113.0,-84.0,118.0
127.0,127.0,127.0,126.0,126.0,127.0,121.0,128.0,-1.0,105.0,-80.0,127.0,127.0,127.0,-113.0,-84.0,118.0
127.0,127.0,127.0,126.0,126.0,128.0,121.0,128.0,-1.0,105.0,-80.0,127.0,127.0,127.0,-113.0,-84.0,118.0
127.0,127.0,126.0,126.0,126.0,128.0,121.0,128.0,-1.0,105.0,-80.0,127.0,127.0,127.0,-113.0,-84.0,118.0
127.0,127.0,127.0,126.0,126.0,127.0,121.0,128.0,-1.0,105.0,-80.0,127.0,127.0,127.0,-113.0,-84.0,118.0
127.0,127.0,127.0,126.0,126.0,127.0,121.0,128.0,-1.0,105.0,-80.0,127.0,127.0,127.0,-113.0,-84.0,118.0
127.0,127.0,126.0,126.0,126.0,127.0,121.0,128.0,-1.0,105.0,-80.0,127.0,127.0,127.0,-113.0,-84.0,118.0
127.0,127.0,126.0,126.0,126.0,127.0,121.0,128.0,-1.0,105.0,-80.0,127.0,127.0,127.0,-113.0,-84.0,118.0
127.0,127.0,126.0,126.0,126.0,127.0,121.0,128.0,-1.0,105.0,-80.0,127.0,127.0,127.0,-113.0,-84.0,118.0
127.0,127.0,126.0,126.0,126.0,127.0,122.0,128.0,-1.0,105.0,-80.0,127.0,127.0,127.0,-113.0,-84.0,118.0
127.0,127.0,127.0,126.0,126.0,127.0,123.0,128.0,-1.0,105.0,-80.0,127.0,127.0,127.0,-113.0,-84.0,118.0
127.0,127.0,127.0,126.0,125.0,128.0,123.0,128.0,-1.0,105.0,-80.0,127.0,127.0,127.0,-113.0,-84.0,118.0
127.0,127.0,127.0,126.0,125.0,128.0,123.0,128.0,-1.0,105.0,-80.0,127.0,127.0,127.0,-113.0,-84.0,118.0
127.0,127.0,127.0,126.0,125.0,127.0,123.0,128.0,-1.0,105.0,-80.0,127.0,127.0,127.0,-113.0,-84.0,118.0
127.0,127.0,126.0,126.0,125.0,127.0,123.0,128.0,-1.0,105.0,-80.0,127.0,127.0,127.0,-113.0,-84.0,118.0
127.0,127.0,126.0,126.0,125.0,127.0,123.0,128.0,-1.0,105.0,-80.0,127.0,127.0,127.0,-113.0,-84.0,118.0
127.0,127.0,126.0,126.0,125.0,127.0,123.0,128.0,-1.0,105.0,-80.0,127.0,127.0,127.0,-113.0,-84.0,118.0
127.0,127.0,126.0,126.0,125.0,127.0,124.0,127.0,-1.0,105.0,-80.0,127.0,127.0,127.0,-113.0,-84.0,118.0
127.0,127.0,126.0,126.0,125.0,127.0,124.0,127.0,-1.0,105.0,-80.0,127.0,127.0,127.0,-113.0,-84.0,118.0
127.0,127.0,127.0,126.0,125.0,126.0,124.0,127.0,-1.0,105.0,-80.0,127.0,127.0,127.0,-113.0,-84.0,118.0
127.0,128.0,127.0,126.0,126.0,127.0,125.0,128.0,-1.0,105.0,-80.0,127.0,127.0,127.0,-113.0,-84.0,118.0
127.0,128.0,127.0,126.0,126.0,127.0,125.0,128.0,-1.0,105.0,-80.0,127.0,127.0,127.0,-113.0,-84.0,118.0
127.0,128.0,127.0,126.0,126.0,127.0,125.0,128.0,-1.0,105.0,-80.0,127.0,127.0,127.0,-113.0,-84.0,118.0
127.0,128.0,127.0,126.0,126.0,127.0,125.0,128.0,-1.0,105.0,-80.0,127.0,127.0,127.0,-113.0,-84.0,118.0
127.0,128.0,127.0,126.0,126.0,127.0,125.0,128.0,-1.0,105.0,-80.0,127.0,127.0,127.0,-113.0,-84.0,118.0
127.0,128.0,126.0,126.0,126.0,127.0,125.0,128.0,-1.0,105.0,-80.0,127.0,127.0,127.0,-113.0,-84.0,118.0
127.0,128.0,127.0,126.0,126.0,127.0,125.0,128.0,-1.0,105.0,-80.0,127.0,127.0,127.0,-113.0,-84.0,118.0
127.0,127.0,127.0,126.0,126.0,127.0,125.0,127.0,-1.0,105.0,-80.0,127.0,127.0,127.0,-113.0,-84.0,118.0
127.0,127.0,127.0,126.0,126.0,127.0,125.0,127.0,-1.0,105.0,-80.0,127.0,127.0,127.0,-113.0,-84.0,118.0
127.0,127.0,127.0,126.0,126.0,127.0,125.0,128.0,-1.0,105.0,-80.0,127.0,127.0,127.0,-113.0,-84.0,118.0
127.0,128.0,126.0,127.0,126.0,128.0,125.0,128.0,-1.0,105.0,-80.0,127.0,127.0,127.0,-113.0,-84.0,118.0
127.0,127.0,126.0,127.0,126.0,127.0,125.0,128.0,-1.0,105.0,-80.0,127.0,127.0,127.0,-113.0,-84.0,118.0
127.0,127.0,126.0,127.0,126.0,127.0,125.0,128.0,-1.0,105.0,-80.0,127.0,127.0,127.0,-113.0,-84.0,118.0
127.0,127.0,126.0,127.0,126.0,127.0,125.0,128.0,-1.0,105.0,-80.0,127.0,127.0,127.0,-113.0,-84.0,118.0
127.0,127.0,126.0,127.0,126.0,127.0,125.0,128.0,-1.0,105.0,-80.0,127.0,127.0,127.0,-113.0,-84.0,118.0
127.0,127.0,126.0,127.0,126.0,127.0,125.0,128.0,-1.0,105.0,-80.0,127.0,127.0,127.0,-113.0,-84.0,118.0
127.0,127.0,127.0,126.0,126.0,127.0,125.0,128.0,-1.0,105.0,-80.0,127.0,127.0,127.0,-113.0,-84.0,118.0
127.0,127.0,127.0,127.0,126.0,127.0,125.0,128.0,-1.0,105.0,-80.0,127.0,127.0,127.0,-113.0,-84.0,118.0
127.0,127.0,127.0,127.0,126.0,127.0,125.0,128.0,-1.0,105.0,-80.0,127.0,127.0,127.0,-113.0,-84.0,118.0
127.0,127.0,126.0,127.0,126.0,127.0,125.0,128.0,-1.0,105.0,-80.0,127.0,127.0,127.0,-113.0,-84.0,118.0
126.0,127.0,126.0,126.0,126.0,127.0,124.0,128.0,-1.0,105.0,-80.0,127.0,127.0,127.0,-113.0,-84.0,118.0
126.0,127.0,126.0,126.0,126.0,127.0,124.0,128.0,-1.0,105.0,-80.0,127.0,127.0,127.0,-113.0,-84.0,118.0
126.0,127.0,126.0,126.0,126.0,127.0,124.0,128.0,-1.0,105.0,-80.0,127.0,127.0,127.0,-113.0,-84.0,118.0
126.0,127.0,126.0,126.0,126.0,127.0,125.0,128.0,-1.0,105.0,-80.0,127.0,127.0,127.0,-113.0,-84.0,118.0
126.0,127.0,126.0,126.0,126.0,127.0,125.0,128.0,-1.0,105.0,-80.0,127.0,127.0,127.0,-113.0,-84.0,118.0
127.0,127.0,126.0,126.0,126.0,126.0,125.0,128.0,-1.0,105.0,-80.0,127.0,127.0,127.0,-113.0,-84.0,118.0
126.0,127.0,126.0,126.0,126.0,126.0,125.0,128.0,-1.0,105.0,-80.0,127.0,127.0,127.0,-113.0,-84.0,118.0
126.0,127.0,127.0,126.0,126.0,126.0,124.0,128.0,-1.0,105.0,-80.0,127.0,127.0,127.0,-113.0,-84.0,118.0
126.0,127.0,126.0,126.0,126.0,127.0,124.0,128.0,-1.0,105.0,-80.0,127.0,127.0,127.0,-113.0,-84.0,118.0
126.0,127.0,126.0,126.0,126.0,127.0,124.0,128.0,-1.0,105.0,-80.0,127.0,127.0,127.0,-113.0,-84.0,118.0
127.0,127.0,127.0,126.0,127.0,128.0,125.0,128.0,-1.0,105.0,-80.0,127.0,127.0,127.0,-113.0,-84.0,118.0
127.0,127.0,127.0,126.0,127.0,127.0,125.0,128.0,-1.0,105.0,-80.0,127.0,127.0,127.0,-113.0,-84.0,118.0
127.0,127.0,127.0,126.0,127.0,127.0,125.0,128.0,-1.0,105.0,-80.0,127.0,127.0,127.0,-113.0,-84.0,118.0
127.0,127.0,127.0,126.0,127.0,127.0,125.0,128.0,-1.0,105.0,-80.0,127.0,127.0,127.0,-113.0,-84.0,118.0
127.0,127.0,127.0,126.0,127.0,127.0,125.0,128.0,-1.0,105.0,-80.0,127.0,127.0,127.0,-113.0,-84.0,118.0
127.0,127.0,127.0,126.0,127.0,127.0,125.0,128.0,-1.0,105.0,-80.0,127.0,127.0,127.0,-113.0,-84.0,118.0
127.0,127.0,127.0,126.0,127.0,127.0,125.0,128.0,-1.0,105.0,-80.0,127.0,127.0,127.0,-113.0,-84.0,118.0
127.0,127.0,127.0,126.0,126.0,128.0,125.0,128.0,-1.0,105.0,-80.0,127.0,127.0,127.0,-113.0,-84.0,118.0
127.0,127.0,127.0,127.0,126.0,128.0,125.0,129.0,-1.0,105.0,-80.0,127.0,127.0,127.0,-113.0,-84.0,118.0
127.0,127.0,127.0,126.0,126.0,128.0,125.0,129.0,-1.0,105.0,-80.0,127.0,127.0,127.0,-113.0,-84.0,118.0
127.0,128.0,126.0,126.0,126.0,127.0,123.0,128.0,-1.0,105.0,-80.0,127.0,127.0,127.0,-113.0,-84.0,118.0
127.0,128.0,126.0,126.0,126.0,127.0,123.0,128.0,-1.0,105.0,-80.0,127.0,127.0,127.0,-113.0,-84.0,118.0
127.0,128.0,126.0,126.0,126.0,127.0,123.0,128.0,-1.0,105.0,-80.0,127.0,127.0,127.0,-113.0,-84.0,118.0
127.0,128.0,126.0,126.0,126.0,126.0,123.0,128.0,-1.0,105.0,-80.0,127.0,127.0,127.0,-113.0,-84.0,118.0
127.0,127.0,126.0,126.0,126.0,126.0,123.0,128.0,-1.0,105.0,-80.0,127.0,127.0,127.0,-113.0,-84.0,118.0
127.0,127.0,127.0,127.0,127.0,127.0,123.0,128.0,-1.0,105.0,-80.0,127.0,127.0,127.0,-113.0,-84.0,118.0
127.0,127.0,127.0,126.0,126.0,127.0,123.0,128.0,-1.0,105.0,-80.0,127.0,127.0,127.0,-113.0,-84.0,118.0
127.0,127.0,126.0,126.0,126.0,128.0,123.0,128.0,-1.0,105.0,-80.0,127.0,127.0,127.0,-113.0,-84.0,118.0
127.0,128.0,126.0,126.0,126.0,127.0,123.0,128.0,-1.0,105.0,-80.0,127.0,127.0,127.0,-113.0,-84.0,118.0
127.0,128.0,126.0,126.0,126.0,127.0,123.0,128.0,-1.0,105.0,-80.0,127.0,127.0,127.0,-113.0,-84.0,118.0
127.0,127.0,126.0,126.0,126.0,128.0,122.0,128.0,-1.0,105.0,-80.0,127.0,127.0,127.0,-113.0,-84.0,118.0
127.0,127.0,126.0,126.0,126.0,128.0,122.0,128.0,-1.0,105.0,-80.0,127.0,127.0,127.0,-113.0,-84.0,118.0
127.0,127.0,126.0,126.0,126.0,128.0,122.0,128.0,-1.0,105.0,-80.0,127.0,127.0,127.0,-113.0,-84.0,118.0
127.0,127.0,126.0,126.0,126.0,128.0,122.0,128.0,-1.0,105.0,-80.0,127.0,127.0,127.0,-113.0,-84.0,118.0
127.0,127.0,127.0,126.0,126.0,127.0,122.0,128.0,-1.0,105.0,-80.0,127.0,127.0,127.0,-113.0,-84.0,118.0
127.0,127.0,127.0,126.0,126.0,128.0,122.0,128.0,-1.0,105.0,-80.0,127.0,127.0,127.0,-113.0,-84.0,118.0
127.0,127.0,126.0,126.0,126.0,128.0,122.0,128.0,-1.0,105.0,-80.0,127.0,127.0,127.0,-113.0,-84.0,118.0
127.0,127.0,126.0,126.0,126.0,128.0,122.0,128.0,-1.0,105.0,-80.0,127.0,127.0,127.0,-113.0,-84.0,118.0
127.0,127.0,126.0,126.0,126.0,128.0,122.0,128.0,-1.0,105.0,-80.0,127.0,127.0,127.0,-113.0,-84.0,118.0
127.0,127.0,126.0,126.0,126.0,128.0,122.0,128.0,-1.0,105.0,-80.0,127.0,127.0,127.0,-113.0,-84.0,118.0
127.0,128.0,127.0,126.0,127.0,127.0,124.0,128.0,-1.0,105.0,-80.0,127.0,127.0,127.0,-113.0,-84.0,118.0
127.0,128.0,127.0,126.0,127.0,127.0,124.0,128.0,-1.0,105.0,-80.0,127.0,127.0,127.0,-113.0,-84.0,118.0
127.0,127.0,127.0,126.0,127.0,126.0,124.0,128.0,-1.0,105.0,-80.0,127.0,127.0,127.0,-113.0,-84.0,118.0
127.0,127.0,127.0,126.0,127.0,127.0,123.0,128.0,-1.0,105.0,-80.0,127.0,127.0,127.0,-113.0,-84.0,118.0
127.0,127.0,127.0,126.0,127.0,127.0,123.0,128.0,-1.0,105.0,-80.0,127.0,127.0,127.0,-113.0,-84.0,118.0
127.0,127.0,127.0,126.0,127.0,128.0,123.0,128.0,-1.0,105.0,-80.0,127.0,127.0,127.0,-113.0,-84.0,118.0
127.0,127.0,127.0,126.0,127.0,128.0,123.0,128.0,-1.0,105.0,-80.0,127.0,127.0,127.0,-113.0,-84.0,118.0
127.0,128.0,127.0,126.0,127.0,128.0,123.0,128.0,-1.0,105.0,-80.0,127.0,127.0,127.0,-113.0,-84.0,118.0
127.0,128.0,127.0,126.0,127.0,127.0,123.0,128.0,-1.0,105.0,-80.0,127.0,127.0,127.0,-113.0,-84.0,118.0
127.0,128.0,127.0,126.0,127.0,127.0,124.0,128.0,-1.0,105.0,-80.0,127.0,127.0,127.0,-113.0,-84.0,118.0
127.0,127.0,127.0,127.0,126.0,127.0,125.0,128.0,-1.0,105.0,-80.0,127.0,127.0,127.0,-113.0,-84.0,118.0
127.0,127.0,127.0,126.0,126.0,127.0,125.0,127.0,-1.0,105.0,-80.0,127.0,127.0,127.0,-113.0,-84.0,118.0
127.0,127.0,127.0,127.0,126.0,127.0,124.0,128.0,-1.0,105.0,-80.0,127.0,127.0,127.0,-113.0,-84.0,118.0
127.0,127.0,127.0,127.0,126.0,127.0,124.0,128.0,-1.0,105.0,-80.0,127.0,127.0,127.0,-113.0,-84.0,118.0
127.0,127.0,127.0,127.0,126.0,128.0,124.0,128.0,-1.0,105.0,-80.0,127.0,127.0,127.0,-113.0,-84.0,118.0
127.0,127.0,127.0,127.0,126.0,128.0,124.0,128.0,-1.0,105.0,-80.0,127.0,127.0,127.0,-113.0,-84.0,118.0
127.0,127.0,127.0,127.0,126.0,128.0,124.0,128.0,-1.0,105.0,-80.0,127.0,127.0,127.0,-113.0,-84.0,118.0
127.0,127.0,127.0,127.0,126.0,127.0,124.0,128.0,-1.0,105.0,-80.0,127.0,127.0,127.0,-113.0,-84.0,118.0
127.0,127.0,127.0,127.0,126.0,128.0,124.0,128.0,-1.0,105.0,-80.0,127.0,127.0,127.0,-113.0,-84.0,118.0
127.0,128.0,127.0,127.0,126.0,127.0,125.0,128.0,-1.0,105.0,-80.0,127.0,127.0,127.0,-113.0,-84.0,118.0
127.0,127.0,127.0,127.0,126.0,127.0,125.0,128.0,-1.0,105.0,-79.0,127.0,127.0,127.0,-113.0,-84.0,118.0
127.0,127.0,127.0,127.0,126.0,127.0,125.0,128.0,-1.0,105.0,-79.0,127.0,127.0,127.0,-113.0,-84.0,118.0
127.0,127.0,127.0,127.0,126.0,127.0,125.0,128.0,-1.0,105.0,-79.0,127.0,127.0,127.0,-113.0,-84.0,118.0
127.0,127.0,127.0,127.0,126.0,128.0,125.0,128.0,-1.0,105.0,-79.0,127.0,127.0,127.0,-113.0,-84.0,118.0
127.0,127.0,127.0,127.0,126.0,128.0,125.0,128.0,-1.0,105.0,-79.0,127.0,127.0,127.0,-113.0,-84.0,118.0
127.0,127.0,127.0,127.0,126.0,128.0,125.0,128.0,-1.0,105.0,-79.0,127.0,127.0,127.0,-113.0,-84.0,118.0
127.0,127.0,127.0,127.0,126.0,128.0,125.0,128.0,-1.0,105.0,-79.0,127.0,127.0,127.0,-113.0,-84.0,118.0
127.0,127.0,127.0,127.0,126.0,128.0,126.0,128.0,-1.0,105.0,-79.0,127.0,127.0,127.0,-113.0,-84.0,118.0
127.0,127.0,127.0,127.0,126.0,128.0,126.0,128.0,-1.0,105.0,-79.0,127.0,127.0,127.0,-113.0,-84.0,118.0
127.0,127.0,127.0,127.0,126.0,127.0,126.0,128.0,-1.0,105.0,-79.0,127.0,127.0,127.0,-113.0,-84.0,118.0
127.0,127.0,127.0,126.0,126.0,127.0,125.0,128.0,-1.0,105.0,-79.0,127.0,127.0,127.0,-113.0,-84.0,118.0
127.0,127.0,127.0,126.0,126.0,127.0,125.0,128.0,-1.0,105.0,-79.0,127.0,127.0,127.0,-113.0,-84.0,118.0
127.0,127.0,127.0,126.0,126.0,128.0,125.0,128.0,-1.0,105.0,-79.0,127.0,127.0,127.0,-113.0,-84.0,118.0
127.0,127.0,127.0,126.0,126.0,128.0,125.0,128.0,-1.0,105.0,-79.0,127.0,127.0,127.0,-113.0,-84.0,118.0
127.0,127.0,127.0,126.0,126.0,128.0,125.0,128.0,-1.0,105.0,-79.0,127.0,127.0,127.0,-113.0,-84.0,118.0
127.0,127.0,127.0,126.0,126.0,128.0,125.0,128.0,-1.0,105.0,-79.0,127.0,127.0,127.0,-113.0,-84.0,118.0
127.0,127.0,127.0,126.0,126.0,128.0,126.0,128.0,-1.0,105.0,-79.0,127.0,127.0,127.0,-113.0,-84.0,118.0
127.0,127.0,127.0,126.0,126.0,128.0,126.0,128.0,-1.0,105.0,-79.0,127.0,127.0,127.0,-113.0,-84.0,118.0
127.0,127.0,127.0,126.0,126.0,127.0,126.0,128.0,-1.0,105.0,-79.0,127.0,127.0,127.0,-113.0,-84.0,118.0
127.0,127.0,127.0,126.0,126.0,127.0,126.0,128.0,-1.0,105.0,-79.0,127.0,127.0,127.0,-113.0,-84.0,118.0
127.0,127.0,127.0,126.0,127.0,127.0,125.0,128.0,-1.0,105.0,-79.0,127.0,127.0,127.0,-113.0,-84.0,118.0
127.0,128.0,127.0,126.0,126.0,127.0,125.0,128.0,-1.0,105.0,-79.0,127.0,127.0,127.0,-113.0,-84.0,118.0
127.0,128.0,127.0,126.0,126.0,128.0,125.0,128.0,-1.0,105.0,-79.0,127.0,127.0,127.0,-113.0,-84.0,118.0
127.0,128.0,127.0,126.0,126.0,127.0,125.0,128.0,-1.0,105.0,-79.0,127.0,127.0,127.0,-113.0,-84.0,118.0
127.0,128.0,127.0,126.0,126.0,127.0,125.0,128.0,-1.0,105.0,-79.0,127.0,127.0,127.0,-113.0,-84.0,118.0
127.0,128.0,127.0,126.0,126.0,127.0,125.0,128.0,-1.0,105.0,-79.0,127.0,127.0,127.0,-113.0,-84.0,118.0
127.0,128.0,127.0,126.0,126.0,127.0,125.0,128.0,-1.0,105.0,-79.0,127.0,127.0,127.0,-113.0,-84.0,118.0
127.0,128.0,127.0,126.0,126.0,127.0,125.0,128.0,-1.0,105.0,-79.0,127.0,127.0,127.0,-113.0,-84.0,118.0
127.0,127.0,127.0,126.0,127.0,127.0,125.0,128.0,-1.0,105.0,-79.0,127.0,127.0,127.0,-113.0,-84.0,118.0
127.0,127.0,127.0,126.0,127.0,127.0,125.0,128.0,-1.0,105.0,-79.0,127.0,127.0,127.0,-113.0,-84.0,118.0
127.0,127.0,127.0,126.0,126.0,127.0,124.0,128.0,-1.0,105.0,-79.0,127.0,127.0,127.0,-113.0,-84.0,118.0
127.0,127.0,127.0,127.0,126.0,127.0,124.0,129.0,-1.0,105.0,-79.0,127.0,127.0,127.0,-113.0,-84.0,118.0
127.0,128.0,127.0,127.0,126.0,127.0,124.0,128.0,-1.0,105.0,-79.0,127.0,127.0,127.0,-113.0,-84.0,118.0
127.0,127.0,127.0,127.0,126.0,127.0,124.0,128.0,-1.0,105.0,-79.0,127.0,127.0,127.0,-113.0,-84.0,118.0
127.0,128.0,127.0,127.0,126.0,127.0,124.0,128.0,-1.0,105.0,-79.0,127.0,127.0,127.0,-113.0,-84.0,118.0
127.0,127.0,127.0,126.0,126.0,127.0,125.0,128.0,-1.0,105.0,-79.0,127.0,127.0,127.0,-113.0,-84.0,118.0
127.0,128.0,127.0,126.0,126.0,127.0,125.0,128.0,-1.0,105.0,-79.0,127.0,127.0,127.0,-113.0,-84.0,118.0
127.0,127.0,127.0,127.0,126.0,127.0,124.0,128.0,-1.0,105.0,-79.0,127.0,127.0,127.0,-113.0,-84.0,118.0
127.0,127.0,127.0,127.0,126.0,127.0,124.0,128.0,-1.0,105.0,-79.0,127.0,127.0,127.0,-113.0,-84.0,118.0
127.0,127.0,127.0,127.0,127.0,127.0,124.0,128.0,-1.0,105.0,-79.0,127.0,127.0,127.0,-113.0,-84.0,118.0
127.0,128.0,126.0,127.0,126.0,128.0,126.0,129.0,-1.0,105.0,-79.0,127.0,127.0,127.0,-113.0,-84.0,118.0
127.0,128.0,126.0,127.0,126.0,128.0,126.0,129.0,-1.0,105.0,-79.0,127.0,127.0,127.0,-113.0,-84.0,118.0
127.0,128.0,126.0,127.0,126.0,128.0,126.0,128.0,-1.0,105.0,-79.0,127.0,127.0,127.0,-113.0,-84.0,118.0
127.0,128.0,126.0,126.0,126.0,127.0,126.0,128.0,-1.0,105.0,-79.0,127.0,127.0,127.0,-113.0,-84.0,118.0
127.0,128.0,126.0,126.0,126.0,127.0,126.0,128.0,-1.0,105.0,-79.0,127.0,127.0,127.0,-113.0,-84.0,118.0
127.0,128.0,126.0,126.0,126.0,127.0,126.0,128.0,-1.0,105.0,-79.0,127.0,127.0,127.0,-113.0,-84.0,118.0
127.0,127.0,127.0,127.0,126.0,127.0,126.0,128.0,-1.0,105.0,-79.0,127.0,127.0,127.0,-113.0,-84.0,118.0
127.0,127.0,127.0,127.0,126.0,127.0,126.0,128.0,-1.0,105.0,-79.0,127.0,127.0,127.0,-113.0,-84.0,118.0
127.0,127.0,127.0,127.0,126.0,127.0,126.0,128.0,-1.0,105.0,-79.0,127.0,127.0,127.0,-113.0,-84.0,118.0
127.0,127.0,127.0,127.0,126.0,127.0,126.0,128.0,-1.0,105.0,-79.0,127.0,127.0,127.0,-113.0,-84.0,118.0
127.0,127.0,127.0,126.0,126.0,125.0,127.0,128.0,-1.0,105.0,-79.0,127.0,127.0,127.0,-113.0,-84.0,118.0
