emg1,emg2,emg3,emg4,emg5,emg6,emg7,emg8,acc_x,acc_y,acc_z,gyro_x,gyro_y,gyro_z,angle_pitch,angle_roll,angle_yaw
127.0,127.0,127.0,127.0,126.0,127.0,127.0,128.0,-1.0,104.0,-79.0,127.0,127.0,127.0,-114.0,-84.0,117.0
127.0,127.0,127.0,127.0,126.0,127.0,127.0,128.0,-1.0,104.0,-79.0,127.0,127.0,127.0,-114.0,-84.0,117.0
127.0,127.0,127.0,127.0,126.0,127.0,127.0,128.0,-1.0,104.0,-79.0,127.0,127.0,127.0,-114.0,-84.0,117.0
127.0,127.0,127.0,127.0,126.0,126.0,127.0,128.0,-1.0,104.0,-79.0,127.0,127.0,127.0,-114.0,-84.0,117.0
127.0,127.0,127.0,127.0,126.0,126.0,127.0,128.0,-1.0,104.0,-79.0,127.0,127.0,127.0,-114.0,-84.0,117.0
127.0,127.0,126.0,127.0,126.0,127.0,127.0,128.0,-1.0,104.0,-79.0,127.0,127.0,127.0,-114.0,-84.0,117.0
127.0,128.0,126.0,127.0,126.0,127.0,127.0,128.0,-1.0,104.0,-79.0,127.0,127.0,127.0,-114.0,-84.0,117.0
127.0,128.0,126.0,127.0,126.0,127.0,127.0,128.0,-1.0,104.0,-79.0,127.0,127.0,127.0,-114.0,-84.0,117.0
127.0,127.0,127.0,127.0,126.0,126.0,127.0,128.0,-1.0,104.0,-79.0,127.0,127.0,127.0,-114.0,-84.0,117.0
127.0,127.0,127.0,127.0,126.0,127.0,127.0,128.0,-1.0,104.0,-79.0,127.0,127.0,127.0,-114.0,-84.0,117.0
127.0,128.0,127.0,127.0,126.0,127.0,127.0,128.0,-1.0,104.0,-79.0,127.0,127.0,127.0,-114.0,-84.0,117.0
127.0,128.0,127.0,127.0,126.0,127.0,127.0,128.0,-1.0,104.0,-79.0,127.0,127.0,127.0,-114.0,-84.0,117.0
127.0,128.0,127.0,127.0,126.0,127.0,127.0,128.0,-1.0,104.0,-79.0,127.0,127.0,127.0,-114.0,-84.0,117.0
127.0,128.0,127.0,127.0,126.0,127.0,127.0,128.0,-1.0,104.0,-79.0,127.0,127.0,127.0,-114.0,-84.0,117.0
127.0,128.0,127.0,127.0,125.0,127.0,127.0,128.0,-1.0,104.0,-79.0,127.0,127.0,127.0,-114.0,-84.0,117.0
127.0,128.0,127.0,127.0,125.0,127.0,127.0,128.0,-1.0,104.0,-79.0,127.0,127.0,127.0,-114.0,-84.0,117.0
127.0,128.0,127.0,127.0,126.0,128.0,127.0,128.0,-1.0,104.0,-79.0,127.0,127.0,127.0,-114.0,-84.0,117.0
127.0,127.0,127.0,127.0,126.0,126.0,127.0,128.0,-1.0,104.0,-79.0,127.0,127.0,127.0,-114.0,-84.0,117.0
127.0,128.0,127.0,127.0,126.0,127.0,127.0,128.0,-1.0,104.0,-79.0,127.0,127.0,127.0,-114.0,-84.0,117.0
127.0,128.0,127.0,127.0,126.0,127.0,127.0,128.0,-1.0,104.0,-79.0,127.0,127.0,127.0,-114.0,-84.0,117.0
127.0,127.0,127.0,127.0,126.0,127.0,127.0,128.0,-1.0,104.0,-79.0,127.0,127.0,127.0,-114.0,-84.0,117.0
127.0,127.0,127.0,127.0,126.0,127.0,127.0,128.0,-1.0,104.0,-79.0,127.0,127.0,127.0,-114.0,-84.0,117.0
127.0,127.0,127.0,127.0,126.0,127.0,127.0,128.0,-1.0,104.0,-79.0,127.0,127.0,127.0,-114.0,-84.0,117.0
127.0,127.0,127.0,127.0,126.0,127.0,126.0,128.0,-1.0,104.0,-79.0,127.0,127.0,127.0,-114.0,-84.0,117.0
127.0,127.0,127.0,127.0,126.0,128.0,126.0,128.0,-1.0,104.0,-79.0,127.0,127.0,127.0,-114.0,-84.0,117.0
127.0,127.0,127.0,127.0,126.0,127.0,126.0,128.0,-1.0,104.0,-79.0,127.0,127.0,127.0,-114.0,-84.0,117.0
127.0,127.0,127.0,127.0,126.0,127.0,127.0,128.0,-1.0,104.0,-79.0,127.0,127.0,127.0,-114.0,-84.0,117.0
127.0,127.0,127.0,127.0,126.0,127.0,127.0,128.0,-1.0,104.0,-79.0,127.0,127.0,127.0,-114.0,-84.0,117.0
127.0,127.0,127.0,127.0,126.0,127.0,127.0,128.0,-1.0,104.0,-79.0,127.0,127.0,127.0,-114.0,-84.0,117.0
127.0,127.0,127.0,127.0,126.0,127.0,127.0,128.0,-1.0,104.0,-79.0,127.0,127.0,127.0,-114.0,-84.0,117.0
127.0,127.0,127.0,127.0,126.0,127.0,126.0,128.0,-1.0,104.0,-79.0,127.0,127.0,127.0,-114.0,-84.0,117.0
127.0,127.0,127.0,127.0,126.0,127.0,126.0,128.0,-1.0,104.0,-79.0,127.0,127.0,127.0,-114.0,-84.0,117.0
127.0,127.0,126.0,127.0,126.0,127.0,126.0,128.0,-1.0,104.0,-79.0,127.0,127.0,127.0,-114.0,-84.0,117.0
127.0,128.0,126.0,127.0,126.0,128.0,126.0,128.0,-1.0,104.0,-79.0,127.0,127.0,127.0,-114.0,-84.0,117.0
127.0,128.0,126.0,127.0,126.0,128.0,126.0,128.0,-1.0,104.0,-79.0,127.0,127.0,127.0,-114.0,-84.0,117.0
127.0,127.0,127.0,127.0,126.0,126.0,127.0,128.0,-1.0,104.0,-79.0,127.0,127.0,127.0,-114.0,-84.0,117.0
127.0,127.0,127.0,127.0,126.0,127.0,126.0,128.0,-1.0,104.0,-79.0,127.0,127.0,127.0,-114.0,-84.0,117.0
127.0,127.0,126.0,127.0,126.0,127.0,126.0,128.0,-1.0,104.0,-79.0,127.0,127.0,127.0,-114.0,-84.0,117.0
127.0,127.0,127.0,127.0,126.0,127.0,126.0,128.0,-1.0,104.0,-79.0,127.0,127.0,127.0,-114.0,-84.0,117.0
127.0,127.0,127.0,127.0,126.0,127.0,126.0,128.0,-1.0,104.0,-79.0,127.0,127.0,127.0,-114.0,-84.0,117.0
127.0,127.0,127.0,127.0,126.0,126.0,127.0,128.0,-1.0,104.0,-79.0,127.0,127.0,127.0,-114.0,-84.0,117.0
127.0,127.0,127.0,127.0,126.0,126.0,127.0,128.0,-1.0,104.0,-79.0,127.0,127.0,127.0,-114.0,-84.0,117.0
127.0,127.0,127.0,127.0,126.0,126.0,127.0,128.0,-1.0,104.0,-79.0,127.0,127.0,127.0,-114.0,-84.0,117.0
127.0,127.0,127.0,127.0,126.0,126.0,127.0,128.0,-1.0,104.0,-79.0,127.0,127.0,127.0,-114.0,-84.0,117.0
127.0,127.0,127.0,127.0,127.0,127.0,127.0,128.0,-1.0,104.0,-79.0,127.0,127.0,127.0,-114.0,-84.0,117.0
127.0,127.0,127.0,127.0,127.0,126.0,127.0,128.0,-1.0,104.0,-79.0,127.0,127.0,127.0,-114.0,-84.0,117.0
127.0,127.0,127.0,127.0,127.0,126.0,127.0,128.0,-1.0,104.0,-79.0,127.0,127.0,127.0,-114.0,-84.0,117.0
127.0,127.0,127.0,127.0,127.0,126.0,127.0,128.0,-1.0,104.0,-79.0,127.0,127.0,127.0,-114.0,-84.0,117.0
127.0,127.0,127.0,127.0,127.0,126.0,127.0,128.0,-1.0,104.0,-79.0,127.0,127.0,127.0,-114.0,-84.0,117.0
127.0,127.0,127.0,127.0,126.0,126.0,127.0,128.0,-1.0,104.0,-79.0,127.0,127.0,127.0,-114.0,-84.0,117.0
127.0,128.0,126.0,127.0,126.0,127.0,127.0,128.0,-1.0,104.0,-79.0,127.0,127.0,127.0,-114.0,-84.0,117.0
127.0,128.0,126.0,127.0,126.0,127.0,127.0,128.0,-1.0,104.0,-79.0,127.0,127.0,127.0,-114.0,-84.0,117.0
127.0,128.0,126.0,127.0,126.0,127.0,127.0,128.0,-1.0,104.0,-79.0,127.0,127.0,127.0,-114.0,-84.0,117.0
127.0,128.0,127.0,127.0,127.0,127.0,127.0,128.0,-1.0,104.0,-79.0,127.0,127.0,127.0,-114.0,-84.0,117.0
127.0,128.0,127.0,127.0,127.0,127.0,127.0,128.0,-1.0,104.0,-79.0,127.0,127.0,127.0,-114.0,-84.0,117.0
127.0,128.0,127.0,127.0,127.0,127.0,127.0,127.0,-1.0,104.0,-79.0,127.0,127.0,127.0,-114.0,-84.0,117.0
127.0,128.0,127.0,127.0,127.0,127.0,127.0,128.0,-1.0,104.0,-79.0,127.0,127.0,127.0,-114.0,-84.0,117.0
127.0,128.0,126.0,127.0,127.0,127.0,127.0,127.0,-1.0,104.0,-79.0,127.0,127.0,127.0,-114.0,-84.0,117.0
127.0,128.0,126.0,127.0,126.0,127.0,127.0,128.0,-1.0,104.0,-79.0,127.0,127.0,127.0,-114.0,-84.0,117.0
127.0,128.0,126.0,127.0,126.0,127.0,127.0,128.0,-1.0,104.0,-79.0,127.0,127.0,127.0,-114.0,-84.0,117.0
127.0,128.0,126.0,127.0,126.0,127.0,126.0,128.0,-1.0,104.0,-79.0,127.0,127.0,127.0,-114.0,-84.0,117.0
127.0,128.0,127.0,127.0,126.0,127.0,126.0,128.0,-1.0,104.0,-79.0,127.0,127.0,127.0,-114.0,-84.0,117.0
127.0,128.0,127.0,127.0,126.0,127.0,126.0,128.0,-1.0,104.0,-79.0,127.0,127.0,127.0,-114.0,-84.0,117.0
127.0,128.0,127.0,127.0,126.0,127.0,126.0,128.0,-1.0,104.0,-79.0,127.0,127.0,127.0,-114.0,-84.0,117.0
127.0,128.0,127.0,127.0,126.0,127.0,126.0,128.0,-1.0,104.0,-79.0,127.0,127.0,127.0,-114.0,-84.0,117.0
127.0,128.0,127.0,127.0,126.0,127.0,126.0,128.0,-1.0,104.0,-79.0,127.0,127.0,127.0,-114.0,-84.0,117.0
127.0,128.0,127.0,127.0,126.0,127.0,126.0,128.0,-1.0,104.0,-79.0,127.0,127.0,127.0,-114.0,-84.0,117.0
127.0,128.0,126.0,127.0,126.0,128.0,126.0,128.0,-1.0,104.0,-79.0,127.0,127.0,127.0,-114.0,-84.0,117.0
127.0,128.0,126.0,127.0,126.0,128.0,126.0,128.0,-1.0,104.0,-79.0,127.0,127.0,127.0,-114.0,-84.0,117.0
127.0,128.0,126.0,127.0,126.0,128.0,126.0,128.0,-1.0,104.0,-79.0,127.0,127.0,127.0,-114.0,-84.0,117.0
127.0,128.0,126.0,127.0,126.0,127.0,126.0,128.0,-1.0,104.0,-79.0,127.0,127.0,127.0,-114.0,-84.0,117.0
127.0,127.0,126.0,127.0,126.0,128.0,126.0,128.0,-1.0,104.0,-79.0,127.0,127.0,127.0,-114.0,-84.0,117.0
127.0,127.0,126.0,127.0,126.0,127.0,126.0,128.0,-1.0,104.0,-79.0,127.0,127.0,127.0,-114.0,-84.0,117.0
127.0,127.0,126.0,127.0,126.0,127.0,126.0,128.0,-1.0,104.0,-79.0,127.0,127.0,127.0,-114.0,-84.0,117.0
127.0,127.0,126.0,127.0,126.0,127.0,126.0,128.0,-1.0,104.0,-79.0,127.0,127.0,127.0,-114.0,-84.0,117.0
127.0,127.0,126.0,127.0,126.0,127.0,126.0,128.0,-1.0,104.0,-79.0,127.0,127.0,127.0,-114.0,-84.0,117.0
127.0,127.0,126.0,127.0,126.0,127.0,126.0,128.0,-1.0,104.0,-79.0,127.0,127.0,127.0,-114.0,-84.0,117.0
127.0,127.0,126.0,127.0,126.0,127.0,126.0,128.0,-1.0,104.0,-79.0,127.0,127.0,127.0,-114.0,-84.0,117.0
127.0,128.0,126.0,127.0,126.0,127.0,126.0,128.0,-1.0,104.0,-79.0,127.0,127.0,127.0,-114.0,-84.0,117.0
127.0,128.0,126.0,127.0,126.0,127.0,126.0,128.0,-1.0,104.0,-79.0,127.0,127.0,127.0,-114.0,-84.0,117.0
127.0,127.0,126.0,127.0,126.0,127.0,126.0,128.0,-1.0,104.0,-79.0,127.0,127.0,127.0,-114.0,-84.0,117.0
127.0,127.0,126.0,127.0,126.0,127.0,126.0,128.0,-1.0,104.0,-79.0,127.0,127.0,127.0,-114.0,-84.0,117.0
127.0,127.0,126.0,127.0,126.0,127.0,126.0,128.0,-1.0,104.0,-79.0,127.0,127.0,127.0,-114.0,-84.0,117.0
127.0,127.0,126.0,127.0,126.0,127.0,126.0,128.0,-1.0,104.0,-79.0,127.0,127.0,127.0,-114.0,-84.0,117.0
127.0,127.0,126.0,127.0,126.0,127.0,126.0,128.0,-1.0,104.0,-79.0,127.0,127.0,127.0,-114.0,-84.0,117.0
127.0,127.0,126.0,127.0,126.0,127.0,126.0,128.0,-1.0,104.0,-79.0,127.0,127.0,127.0,-114.0,-84.0,117.0
127.0,128.0,126.0,127.0,126.0,127.0,126.0,128.0,-1.0,104.0,-79.0,127.0,127.0,127.0,-114.0,-84.0,117.0
127.0,128.0,126.0,127.0,126.0,127.0,126.0,128.0,-1.0,104.0,-79.0,127.0,127.0,127.0,-114.0,-84.0,117.0
127.0,128.0,126.0,127.0,126.0,127.0,126.0,128.0,-1.0,104.0,-79.0,127.0,127.0,127.0,-114.0,-84.0,117.0
127.0,127.0,126.0,127.0,126.0,127.0,126.0,128.0,-1.0,104.0,-79.0,127.0,127.0,127.0,-114.0,-84.0,117.0
127.0,128.0,126.0,127.0,126.0,127.0,127.0,128.0,-1.0,104.0,-79.0,127.0,127.0,127.0,-114.0,-84.0,117.0
127.0,128.0,126.0,127.0,126.0,127.0,127.0,128.0,-1.0,104.0,-79.0,127.0,127.0,127.0,-114.0,-84.0,117.0
127.0,128.0,126.0,127.0,126.0,127.0,127.0,128.0,-1.0,104.0,-79.0,127.0,127.0,127.0,-114.0,-84.0,117.0
127.0,128.0,126.0,127.0,126.0,127.0,127.0,128.0,-1.0,104.0,-79.0,127.0,127.0,127.0,-114.0,-84.0,117.0
127.0,128.0,126.0,127.0,126.0,127.0,127.0,128.0,-1.0,104.0,-79.0,127.0,127.0,127.0,-114.0,-84.0,117.0
127.0,128.0,126.0,127.0,126.0,127.0,127.0,128.0,-1.0,104.0,-79.0,127.0,127.0,127.0,-114.0,-84.0,117.0
127.0,128.0,126.0,127.0,126.0,127.0,127.0,129.0,-1.0,104.0,-79.0,127.0,127.0,127.0,-114.0,-84.0,117.0
127.0,128.0,126.0,127.0,126.0,127.0,127.0,128.0,-1.0,104.0,-79.0,127.0,127.0,127.0,-114.0,-84.0,117.0
127.0,128.0,126.0,127.0,126.0,127.0,127.0,128.0,-1.0,104.0,-79.0,127.0,127.0,127.0,-114.0,-84.0,117.0
127.0,128.0,126.0,127.0,126.0,127.0,126.0,128.0,-1.0,104.0,-79.0,127.0,127.0,127.0,-114.0,-84.0,117.0
127.0,128.0,127.0,127.0,126.0,127.0,127.0,128.0,-1.0,104.0,-79.0,127.0,127.0,127.0,-114.0,-84.0,117.0
127.0,128.0,127.0,127.0,126.0,127.0,127.0,128.0,-1.0,104.0,-79.0,127.0,127.0,127.0,-114.0,-84.0,117.0
127.0,128.0,127.0,127.0,126.0,127.0,127.0,128.0,-1.0,104.0,-79.0,127.0,127.0,127.0,-114.0,-84.0,117.0
127.0,128.0,127.0,127.0,126.0,127.0,127.0,129.0,-1.0,104.0,-79.0,127.0,127.0,127.0,-114.0,-84.0,117.0
127.0,128.0,127.0,127.0,126.0,128.0,127.0,129.0,-1.0,104.0,-79.0,127.0,127.0,127.0,-114.0,-84.0,117.0
127.0,128.0,127.0,127.0,126.0,128.0,127.0,129.0,-1.0,104.0,-79.0,127.0,127.0,127.0,-114.0,-84.0,117.0
127.0,128.0,127.0,127.0,126.0,127.0,127.0,129.0,-1.0,104.0,-79.0,127.0,127.0,127.0,-114.0,-84.0,117.0
127.0,128.0,127.0,127.0,126.0,127.0,127.0,129.0,-1.0,104.0,-79.0,127.0,127.0,127.0,-114.0,-84.0,117.0
127.0,128.0,127.0,127.0,126.0,127.0,127.0,129.0,-1.0,104.0,-79.0,127.0,127.0,127.0,-114.0,-84.0,117.0
127.0,128.0,127.0,127.0,126.0,127.0,127.0,129.0,-1.0,104.0,-79.0,127.0,127.0,127.0,-114.0,-84.0,117.0
127.0,128.0,126.0,127.0,126.0,127.0,126.0,128.0,-1.0,104.0,-79.0,127.0,127.0,127.0,-114.0,-84.0,117.0
127.0,128.0,126.0,127.0,126.0,127.0,126.0,128.0,-1.0,104.0,-79.0,127.0,127.0,127.0,-114.0,-84.0,117.0
127.0,128.0,126.0,127.0,126.0,128.0,126.0,128.0,-1.0,104.0,-79.0,127.0,127.0,127.0,-114.0,-84.0,117.0
127.0,128.0,126.0,127.0,126.0,128.0,126.0,129.0,-1.0,104.0,-79.0,127.0,127.0,127.0,-114.0,-84.0,117.0
127.0,128.0,126.0,127.0,126.0,128.0,126.0,129.0,-1.0,104.0,-79.0,127.0,127.0,127.0,-114.0,-84.0,117.0
127.0,128.0,126.0,127.0,126.0,128.0,126.0,128.0,-1.0,104.0,-79.0,127.0,127.0,127.0,-114.0,-84.0,117.0
127.0,127.0,126.0,127.0,126.0,127.0,126.0,128.0,-1.0,104.0,-79.0,127.0,127.0,127.0,-114.0,-84.0,117.0
127.0,128.0,126.0,127.0,126.0,128.0,126.0,128.0,-1.0,104.0,-79.0,127.0,127.0,127.0,-114.0,-84.0,117.0
127.0,128.0,126.0,127.0,126.0,128.0,126.0,128.0,-1.0,104.0,-79.0,127.0,127.0,127.0,-114.0,-84.0,117.0
127.0,128.0,126.0,127.0,126.0,127.0,126.0,128.0,-1.0,104.0,-79.0,127.0,127.0,127.0,-114.0,-84.0,117.0
127.0,127.0,127.0,127.0,126.0,126.0,126.0,127.0,-1.0,105.0,-79.0,127.0,127.0,127.0,-114.0,-84.0,117.0
127.0,127.0,127.0,127.0,126.0,126.0,126.0,127.0,-1.0,105.0,-79.0,127.0,127.0,127.0,-114.0,-84.0,117.0
127.0,127.0,127.0,126.0,126.0,126.0,127.0,127.0,-1.0,105.0,-79.0,127.0,127.0,127.0,-114.0,-84.0,117.0
127.0,127.0,127.0,126.0,126.0,126.0,127.0,127.0,-1.0,105.0,-79.0,127.0,127.0,127.0,-114.0,-84.0,117.0
127.0,127.0,127.0,126.0,126.0,126.0,126.0,127.0,-1.0,105.0,-79.0,127.0,127.0,127.0,-114.0,-84.0,117.0
126.0,127.0,127.0,127.0,127.0,127.0,126.0,127.0,-1.0,105.0,-79.0,127.0,127.0,127.0,-114.0,-84.0,117.0
126.0,127.0,127.0,127.0,127.0,127.0,126.0,127.0,-1.0,105.0,-79.0,127.0,127.0,127.0,-114.0,-84.0,117.0
126.0,127.0,127.0,127.0,127.0,127.0,126.0,127.0,-1.0,105.0,-79.0,127.0,127.0,127.0,-114.0,-84.0,117.0
126.0,127.0,127.0,127.0,127.0,126.0,126.0,127.0,-1.0,105.0,-79.0,127.0,127.0,127.0,-114.0,-84.0,117.0
127.0,127.0,127.0,127.0,126.0,126.0,126.0,127.0,-1.0,105.0,-79.0,127.0,127.0,127.0,-114.0,-84.0,117.0
127.0,128.0,126.0,127.0,126.0,127.0,127.0,129.0,-1.0,105.0,-79.0,127.0,127.0,127.0,-114.0,-84.0,117.0
127.0,128.0,127.0,127.0,126.0,127.0,127.0,129.0,-1.0,105.0,-79.0,127.0,127.0,127.0,-114.0,-84.0,117.0
127.0,128.0,127.0,127.0,126.0,127.0,127.0,129.0,-1.0,105.0,-79.0,127.0,127.0,127.0,-114.0,-84.0,117.0
127.0,128.0,127.0,127.0,126.0,127.0,127.0,129.0,-1.0,105.0,-79.0,127.0,127.0,127.0,-114.0,-84.0,117.0
127.0,127.0,127.0,127.0,126.0,127.0,127.0,129.0,-1.0,105.0,-79.0,127.0,127.0,127.0,-114.0,-84.0,117.0
127.0,127.0,127.0,127.0,126.0,127.0,127.0,128.0,-1.0,105.0,-79.0,127.0,127.0,127.0,-114.0,-84.0,117.0
127.0,127.0,127.0,127.0,126.0,127.0,127.0,128.0,-1.0,105.0,-79.0,127.0,127.0,127.0,-114.0,-84.0,117.0
127.0,127.0,127.0,127.0,126.0,127.0,127.0,128.0,-1.0,105.0,-79.0,127.0,127.0,127.0,-114.0,-84.0,117.0
127.0,128.0,126.0,127.0,126.0,128.0,127.0,129.0,-1.0,105.0,-79.0,127.0,127.0,127.0,-114.0,-84.0,117.0
127.0,128.0,126.0,127.0,126.0,128.0,127.0,129.0,-1.0,105.0,-79.0,127.0,127.0,127.0,-114.0,-84.0,117.0
127.0,128.0,126.0,127.0,126.0,127.0,127.0,128.0,-1.0,105.0,-79.0,127.0,127.0,127.0,-114.0,-84.0,117.0
127.0,128.0,126.0,127.0,126.0,127.0,127.0,128.0,-1.0,105.0,-79.0,127.0,127.0,127.0,-114.0,-84.0,117.0
127.0,128.0,126.0,127.0,126.0,127.0,127.0,128.0,-1.0,105.0,-79.0,127.0,127.0,127.0,-114.0,-84.0,117.0
127.0,127.0,127.0,127.0,126.0,127.0,127.0,128.0,-1.0,105.0,-79.0,127.0,127.0,127.0,-114.0,-84.0,117.0
127.0,127.0,127.0,127.0,126.0,127.0,127.0,128.0,-1.0,105.0,-79.0,127.0,127.0,127.0,-114.0,-84.0,117.0
127.0,127.0,127.0,127.0,126.0,127.0,127.0,128.0,-1.0,105.0,-79.0,127.0,127.0,127.0,-114.0,-84.0,117.0
127.0,127.0,126.0,127.0,126.0,127.0,127.0,128.0,-1.0,105.0,-79.0,127.0,127.0,127.0,-114.0,-84.0,117.0
127.0,128.0,126.0,127.0,126.0,128.0,127.0,128.0,-1.0,105.0,-79.0,127.0,127.0,127.0,-114.0,-84.0,117.0
127.0,128.0,126.0,127.0,126.0,127.0,127.0,128.0,-1.0,105.0,-79.0,127.0,127.0,127.0,-114.0,-84.0,117.0
127.0,128.0,126.0,127.0,126.0,127.0,127.0,128.0,-1.0,105.0,-79.0,127.0,127.0,127.0,-114.0,-84.0,117.0
127.0,128.0,127.0,127.0,126.0,127.0,127.0,128.0,-1.0,105.0,-79.0,127.0,127.0,127.0,-114.0,-84.0,117.0
127.0,128.0,127.0,127.0,126.0,127.0,127.0,128.0,-1.0,105.0,-79.0,127.0,127.0,127.0,-114.0,-84.0,117.0
126.0,128.0,127.0,127.0,126.0,127.0,127.0,128.0,-1.0,105.0,-79.0,127.0,127.0,127.0,-114.0,-84.0,117.0
126.0,128.0,127.0,127.0,126.0,127.0,127.0,128.0,-1.0,105.0,-79.0,127.0,127.0,127.0,-114.0,-84.0,117.0
126.0,128.0,127.0,127.0,126.0,127.0,127.0,128.0,-1.0,105.0,-79.0,127.0,127.0,127.0,-114.0,-84.0,117.0
126.0,128.0,127.0,127.0,126.0,127.0,127.0,128.0,-1.0,105.0,-79.0,127.0,127.0,127.0,-114.0,-84.0,117.0
126.0,128.0,126.0,127.0,126.0,128.0,127.0,128.0,-1.0,105.0,-79.0,127.0,127.0,127.0,-114.0,-84.0,117.0
126.0,128.0,126.0,127.0,126.0,127.0,127.0,129.0,-1.0,105.0,-79.0,127.0,127.0,127.0,-114.0,-84.0,117.0
127.0,128.0,127.0,127.0,126.0,127.0,127.0,128.0,-1.0,105.0,-79.0,127.0,127.0,127.0,-114.0,-84.0,117.0
127.0,128.0,127.0,127.0,126.0,127.0,127.0,128.0,-1.0,105.0,-79.0,127.0,127.0,127.0,-114.0,-84.0,117.0
127.0,128.0,126.0,127.0,125.0,127.0,127.0,128.0,-1.0,105.0,-79.0,127.0,127.0,127.0,-114.0,-84.0,117.0
127.0,128.0,127.0,127.0,126.0,127.0,127.0,128.0,-1.0,105.0,-79.0,127.0,127.0,127.0,-114.0,-84.0,117.0
127.0,128.0,127.0,127.0,126.0,127.0,127.0,128.0,-1.0,105.0,-79.0,127.0,127.0,127.0,-114.0,-84.0,117.0
127.0,128.0,127.0,127.0,126.0,127.0,127.0,128.0,-1.0,105.0,-79.0,127.0,127.0,127.0,-114.0,-84.0,117.0
127.0,128.0,127.0,127.0,126.0,127.0,127.0,128.0,-1.0,105.0,-79.0,127.0,127.0,127.0,-114.0,-84.0,117.0
127.0,128.0,126.0,127.0,125.0,127.0,127.0,128.0,-1.0,105.0,-79.0,127.0,127.0,127.0,-114.0,-84.0,117.0
127.0,128.0,126.0,127.0,125.0,127.0,127.0,128.0,-1.0,105.0,-79.0,127.0,127.0,127.0,-114.0,-84.0,117.0
127.0,128.0,126.0,127.0,125.0,127.0,127.0,128.0,-1.0,105.0,-79.0,127.0,127.0,127.0,-114.0,-84.0,117.0
127.0,128.0,126.0,127.0,125.0,127.0,127.0,128.0,-1.0,105.0,-79.0,127.0,127.0,127.0,-114.0,-84.0,117.0
127.0,128.0,126.0,127.0,125.0,127.0,127.0,128.0,-1.0,105.0,-79.0,127.0,127.0,127.0,-114.0,-84.0,117.0
126.0,128.0,127.0,127.0,126.0,127.0,126.0,128.0,-1.0,105.0,-79.0,127.0,127.0,127.0,-114.0,-84.0,117.0
126.0,128.0,127.0,127.0,126.0,127.0,126.0,128.0,-1.0,105.0,-79.0,127.0,127.0,127.0,-114.0,-84.0,117.0
126.0,128.0,127.0,127.0,126.0,127.0,126.0,128.0,-1.0,105.0,-79.0,127.0,127.0,127.0,-114.0,-84.0,117.0
126.0,128.0,127.0,127.0,126.0,127.0,126.0,128.0,-1.0,105.0,-79.0,127.0,127.0,127.0,-114.0,-84.0,117.0
126.0,128.0,127.0,127.0,126.0,128.0,126.0,128.0,-1.0,105.0,-79.0,127.0,127.0,127.0,-114.0,-84.0,117.0
126.0,128.0,126.0,127.0,126.0,128.0,126.0,128.0,-1.0,105.0,-79.0,127.0,127.0,127.0,-114.0,-84.0,117.0
127.0,128.0,127.0,127.0,126.0,128.0,126.0,128.0,-1.0,105.0,-79.0,127.0,127.0,127.0,-114.0,-84.0,117.0
127.0,128.0,127.0,127.0,126.0,128.0,126.0,128.0,-1.0,105.0,-79.0,127.0,127.0,127.0,-114.0,-84.0,117.0
127.0,128.0,127.0,127.0,126.0,128.0,126.0,128.0,-1.0,105.0,-79.0,127.0,127.0,127.0,-114.0,-84.0,117.0
127.0,128.0,127.0,127.0,126.0,128.0,126.0,128.0,-1.0,105.0,-79.0,127.0,127.0,127.0,-114.0,-84.0,117.0
127.0,128.0,127.0,127.0,126.0,128.0,126.0,128.0,-1.0,105.0,-79.0,127.0,127.0,127.0,-114.0,-84.0,117.0
127.0,128.0,127.0,127.0,126.0,128.0,126.0,128.0,-1.0,105.0,-79.0,127.0,127.0,127.0,-114.0,-84.0,117.0
127.0,128.0,127.0,127.0,126.0,128.0,127.0,129.0,-1.0,105.0,-79.0,127.0,127.0,127.0,-114.0,-84.0,117.0
127.0,128.0,127.0,127.0,126.0,128.0,126.0,129.0,-1.0,105.0,-79.0,127.0,127.0,127.0,-114.0,-84.0,117.0
127.0,128.0,127.0,127.0,126.0,128.0,126.0,129.0,-1.0,105.0,-79.0,127.0,127.0,127.0,-114.0,-84.0,117.0
127.0,128.0,127.0,127.0,126.0,128.0,127.0,129.0,-1.0,105.0,-79.0,127.0,127.0,127.0,-114.0,-84.0,117.0
127.0,128.0,127.0,127.0,126.0,128.0,127.0,129.0,-1.0,105.0,-79.0,127.0,127.0,127.0,-114.0,-84.0,117.0
127.0,128.0,127.0,127.0,126.0,128.0,127.0,129.0,-1.0,105.0,-79.0,127.0,127.0,127.0,-114.0,-84.0,117.0
127.0,128.0,127.0,127.0,126.0,128.0,127.0,128.0,-1.0,105.0,-79.0,127.0,127.0,127.0,-114.0,-84.0,117.0
127.0,128.0,127.0,127.0,126.0,128.0,126.0,128.0,-1.0,105.0,-79.0,127.0,127.0,127.0,-114.0,-84.0,117.0
126.0,127.0,126.0,127.0,126.0,127.0,126.0,128.0,-1.0,105.0,-79.0,127.0,127.0,127.0,-114.0,-84.0,117.0
126.0,128.0,126.0,127.0,126.0,127.0,126.0,128.0,-1.0,105.0,-79.0,127.0,127.0,127.0,-114.0,-84.0,117.0
127.0,128.0,126.0,127.0,126.0,127.0,126.0,128.0,-1.0,105.0,-79.0,127.0,127.0,127.0,-114.0,-84.0,117.0
127.0,128.0,126.0,127.0,126.0,128.0,126.0,128.0,-1.0,105.0,-79.0,127.0,127.0,127.0,-114.0,-84.0,117.0
127.0,128.0,126.0,127.0,126.0,128.0,126.0,129.0,-1.0,105.0,-79.0,127.0,127.0,127.0,-114.0,-84.0,117.0
127.0,128.0,126.0,127.0,126.0,127.0,126.0,129.0,-1.0,105.0,-79.0,127.0,127.0,127.0,-114.0,-84.0,117.0
127.0,128.0,126.0,127.0,126.0,127.0,126.0,129.0,-1.0,105.0,-79.0,127.0,127.0,127.0,-114.0,-84.0,117.0
127.0,128.0,126.0,127.0,126.0,127.0,126.0,129.0,-1.0,105.0,-79.0,127.0,127.0,127.0,-114.0,-84.0,117.0
127.0,128.0,126.0,127.0,126.0,127.0,126.0,128.0,-1.0,105.0,-79.0,127.0,127.0,127.0,-114.0,-84.0,117.0
127.0,127.0,126.0,127.0,126.0,127.0,126.0,128.0,-1.0,105.0,-79.0,127.0,127.0,127.0,-114.0,-84.0,117.0
127.0,127.0,127.0,127.0,126.0,127.0,126.0,128.0,-1.0,105.0,-79.0,127.0,127.0,127.0,-114.0,-84.0,117.0
127.0,127.0,127.0,127.0,126.0,126.0,126.0,128.0,-1.0,105.0,-79.0,127.0,127.0,127.0,-114.0,-84.0,117.0
127.0,127.0,127.0,127.0,126.0,126.0,126.0,128.0,-1.0,105.0,-79.0,127.0,127.0,127.0,-114.0,-84.0,117.0
127.0,127.0,127.0,127.0,126.0,126.0,126.0,128.0,-1.0,105.0,-79.0,127.0,127.0,127.0,-114.0,-84.0,117.0
127.0,127.0,126.0,127.0,126.0,127.0,126.0,128.0,-1.0,105.0,-79.0,127.0,127.0,127.0,-114.0,-84.0,117.0
127.0,127.0,126.0,127.0,126.0,127.0,126.0,128.0,-1.0,105.0,-79.0,127.0,127.0,127.0,-114.0,-84.0,117.0
127.0,127.0,126.0,127.0,126.0,127.0,126.0,128.0,-1.0,105.0,-79.0,127.0,127.0,127.0,-114.0,-84.0,117.0
127.0,127.0,127.0,127.0,126.0,127.0,126.0,128.0,-1.0,105.0,-79.0,127.0,127.0,127.0,-114.0,-84.0,117.0
127.0,127.0,127.0,127.0,126.0,127.0,126.0,128.0,-1.0,105.0,-79.0,127.0,127.0,127.0,-114.0,-84.0,117.0
127.0,127.0,127.0,127.0,126.0,127.0,126.0,128.0,-1.0,105.0,-79.0,127.0,127.0,127.0,-114.0,-84.0,117.0
127.0,128.0,127.0,127.0,126.0,128.0,126.0,129.0,-1.0,105.0,-79.0,127.0,127.0,127.0,-114.0,-84.0,117.0
127.0,128.0,127.0,127.0,126.0,127.0,127.0,129.0,-1.0,105.0,-79.0,127.0,127.0,127.0,-114.0,-84.0,117.0
127.0,128.0,127.0,127.0,126.0,127.0,127.0,129.0,-1.0,105.0,-79.0,127.0,127.0,127.0,-114.0,-84.0,117.0
127.0,128.0,127.0,127.0,126.0,127.0,127.0,129.0,-1.0,105.0,-79.0,127.0,127.0,127.0,-114.0,-84.0,117.0
127.0,128.0,127.0,127.0,126.0,127.0,127.0,128.0,-1.0,105.0,-79.0,127.0,127.0,127.0,-114.0,-84.0,117.0
127.0,128.0,127.0,127.0,126.0,127.0,127.0,128.0,-1.0,105.0,-79.0,127.0,127.0,127.0,-114.0,-84.0,117.0
127.0,127.0,127.0,127.0,126.0,127.0,126.0,128.0,-1.0,105.0,-79.0,127.0,127.0,127.0,-114.0,-84.0,117.0
127.0,127.0,127.0,127.0,126.0,128.0,126.0,129.0,-1.0,105.0,-79.0,127.0,127.0,127.0,-114.0,-84.0,117.0
127.0,128.0,127.0,127.0,126.0,128.0,126.0,129.0,-1.0,105.0,-79.0,127.0,127.0,127.0,-114.0,-84.0,117.0
127.0,128.0,127.0,127.0,126.0,128.0,126.0,129.0,-1.0,105.0,-79.0,127.0,127.0,127.0,-114.0,-84.0,117.0
127.0,128.0,126.0,127.0,126.0,127.0,127.0,129.0,-1.0,105.0,-79.0,127.0,127.0,127.0,-114.0,-84.0,117.0
127.0,128.0,126.0,127.0,126.0,127.0,127.0,129.0,-1.0,105.0,-79.0,127.0,127.0,127.0,-114.0,-84.0,117.0
127.0,128.0,127.0,127.0,126.0,127.0,127.0,128.0,-1.0,105.0,-79.0,127.0,127.0,127.0,-114.0,-84.0,117.0
127.0,128.0,127.0,127.0,126.0,127.0,127.0,128.0,-1.0,105.0,-79.0,127.0,127.0,127.0,-114.0,-84.0,117.0
127.0,128.0,127.0,126.0,126.0,126.0,127.0,128.0,-1.0,105.0,-79.0,127.0,127.0,127.0,-114.0,-84.0,117.0
127.0,128.0,127.0,127.0,126.0,127.0,127.0,128.0,-1.0,105.0,-79.0,127.0,127.0,127.0,-114.0,-84.0,117.0
127.0,128.0,126.0,126.0,126.0,127.0,127.0,128.0,-1.0,105.0,-79.0,127.0,127.0,127.0,-114.0,-84.0,117.0
127.0,128.0,126.0,127.0,126.0,127.0,127.0,129.0,-1.0,105.0,-79.0,127.0,127.0,127.0,-114.0,-84.0,117.0
127.0,128.0,126.0,127.0,126.0,127.0,127.0,129.0,-1.0,105.0,-79.0,127.0,127.0,127.0,-114.0,-84.0,117.0
127.0,128.0,126.0,127.0,126.0,127.0,127.0,129.0,-1.0,105.0,-79.0,127.0,127.0,127.0,-114.0,-84.0,117.0
127.0,128.0,127.0,127.0,126.0,128.0,127.0,129.0,-1.0,105.0,-79.0,127.0,127.0,127.0,-114.0,-84.0,117.0
127.0,128.0,127.0,127.0,126.0,128.0,127.0,129.0,-1.0,105.0,-79.0,127.0,127.0,127.0,-114.0,-84.0,117.0
127.0,128.0,127.0,127.0,126.0,127.0,127.0,129.0,-1.0,105.0,-79.0,127.0,127.0,127.0,-114.0,-84.0,117.0
127.0,128.0,127.0,127.0,126.0,127.0,127.0,128.0,-1.0,105.0,-79.0,127.0,127.0,127.0,-114.0,-84.0,117.0
127.0,128.0,127.0,127.0,126.0,128.0,127.0,129.0,-1.0,105.0,-79.0,127.0,127.0,127.0,-114.0,-84.0,117.0
127.0,128.0,127.0,127.0,126.0,128.0,127.0,129.0,-1.0,105.0,-79.0,127.0,127.0,127.0,-114.0,-84.0,117.0
127.0,128.0,127.0,127.0,126.0,129.0,127.0,129.0,-1.0,105.0,-79.0,127.0,127.0,127.0,-114.0,-84.0,117.0
127.0,128.0,127.0,127.0,126.0,128.0,127.0,129.0,-1.0,105.0,-79.0,127.0,127.0,127.0,-114.0,-84.0,117.0
127.0,128.0,127.0,127.0,126.0,128.0,127.0,129.0,-1.0,105.0,-79.0,127.0,127.0,127.0,-114.0,-84.0,117.0
127.0,128.0,127.0,127.0,126.0,128.0,127.0,129.0,-1.0,105.0,-79.0,127.0,127.0,127.0,-114.0,-84.0,117.0
127.0,128.0,127.0,126.0,126.0,128.0,127.0,129.0,-1.0,105.0,-79.0,127.0,127.0,127.0,-114.0,-84.0,117.0
127.0,128.0,127.0,126.0,126.0,128.0,127.0,129.0,-1.0,105.0,-79.0,127.0,127.0,127.0,-114.0,-84.0,117.0
127.0,128.0,127.0,126.0,126.0,127.0,127.0,128.0,-1.0,105.0,-79.0,127.0,127.0,127.0,-114.0,-84.0,117.0
127.0,128.0,127.0,126.0,126.0,128.0,127.0,128.0,-1.0,105.0,-79.0,127.0,127.0,127.0,-114.0,-84.0,117.0
127.0,128.0,127.0,126.0,126.0,128.0,127.0,128.0,-1.0,105.0,-79.0,127.0,127.0,127.0,-114.0,-84.0,117.0
127.0,128.0,127.0,126.0,126.0,128.0,127.0,129.0,-1.0,105.0,-79.0,127.0,127.0,127.0,-114.0,-84.0,117.0
127.0,128.0,127.0,126.0,126.0,128.0,127.0,129.0,-1.0,105.0,-79.0,127.0,127.0,127.0,-114.0,-84.0,117.0
127.0,128.0,127.0,126.0,126.0,128.0,127.0,129.0,-1.0,105.0,-79.0,127.0,127.0,127.0,-114.0,-84.0,117.0
127.0,128.0,127.0,126.0,126.0,128.0,127.0,129.0,-1.0,105.0,-79.0,127.0,127.0,127.0,-114.0,-84.0,117.0
127.0,128.0,127.0,126.0,126.0,128.0,127.0,129.0,-1.0,105.0,-79.0,127.0,127.0,127.0,-114.0,-84.0,117.0
127.0,128.0,127.0,126.0,126.0,128.0,129.0,128.0,-1.0,105.0,-79.0,127.0,127.0,127.0,-114.0,-84.0,117.0
127.0,127.0,127.0,126.0,126.0,128.0,128.0,128.0,-1.0,105.0,-79.0,127.0,127.0,127.0,-114.0,-84.0,117.0
127.0,127.0,127.0,126.0,126.0,128.0,129.0,128.0,-1.0,105.0,-79.0,127.0,127.0,127.0,-114.0,-84.0,117.0
127.0,127.0,127.0,126.0,126.0,128.0,129.0,128.0,-1.0,105.0,-79.0,127.0,127.0,127.0,-114.0,-84.0,117.0
127.0,128.0,126.0,126.0,126.0,129.0,129.0,129.0,-1.0,105.0,-79.0,127.0,127.0,127.0,-114.0,-84.0,117.0
127.0,128.0,126.0,126.0,126.0,129.0,129.0,129.0,-1.0,105.0,-79.0,127.0,127.0,127.0,-114.0,-84.0,117.0
127.0,128.0,126.0,126.0,126.0,129.0,129.0,129.0,-1.0,105.0,-79.0,127.0,127.0,127.0,-114.0,-84.0,117.0
127.0,128.0,127.0,126.0,126.0,128.0,129.0,129.0,-1.0,105.0,-79.0,127.0,127.0,127.0,-114.0,-84.0,117.0
127.0,128.0,127.0,126.0,126.0,128.0,129.0,128.0,-1.0,105.0,-79.0,127.0,127.0,127.0,-114.0,-84.0,117.0
127.0,128.0,126.0,126.0,126.0,128.0,129.0,128.0,-1.0,105.0,-79.0,127.0,127.0,127.0,-114.0,-84.0,117.0
126.0,129.0,127.0,127.0,126.0,128.0,167.0,126.0,-1.0,105.0,-79.0,127.0,127.0,127.0,-114.0,-84.0,117.0
126.0,128.0,127.0,126.0,126.0,126.0,155.0,127.0,-1.0,105.0,-79.0,127.0,127.0,127.0,-114.0,-84.0,117.0
126.0,128.0,127.0,126.0,126.0,126.0,157.0,127.0,-1.0,105.0,-79.0,127.0,127.0,127.0,-114.0,-84.0,117.0
126.0,128.0,126.0,126.0,126.0,127.0,158.0,127.0,-1.0,105.0,-79.0,127.0,127.0,127.0,-114.0,-84.0,117.0
126.0,128.0,126.0,126.0,126.0,128.0,159.0,127.0,-1.0,105.0,-79.0,127.0,127.0,127.0,-114.0,-84.0,117.0
126.0,128.0,126.0,126.0,126.0,128.0,161.0,127.0,-1.0,105.0,-79.0,127.0,127.0,127.0,-114.0,-84.0,117.0
126.0,129.0,127.0,126.0,126.0,128.0,162.0,126.0,-1.0,105.0,-79.0,127.0,127.0,127.0,-114.0,-84.0,117.0
126.0,129.0,127.0,126.0,126.0,128.0,163.0,126.0,-1.0,105.0,-79.0,127.0,127.0,127.0,-114.0,-84.0,117.0
126.0,129.0,127.0,127.0,126.0,128.0,165.0,126.0,-1.0,105.0,-79.0,127.0,127.0,127.0,-114.0,-84.0,117.0
126.0,129.0,127.0,127.0,126.0,128.0,166.0,126.0,-1.0,105.0,-79.0,127.0,127.0,127.0,-114.0,-84.0,117.0
127.0,127.0,127.0,127.0,126.0,127.0,223.0,123.0,-1.0,105.0,-79.0,127.0,127.0,127.0,-114.0,-84.0,117.0
127.0,128.0,127.0,127.0,126.0,126.0,224.0,123.0,-1.0,105.0,-79.0,127.0,127.0,127.0,-114.0,-84.0,117.0
127.0,128.0,127.0,127.0,125.0,125.0,224.0,122.0,-1.0,105.0,-79.0,127.0,127.0,127.0,-114.0,-84.0,117.0
127.0,128.0,127.0,127.0,125.0,125.0,225.0,122.0,-1.0,105.0,-79.0,127.0,127.0,127.0,-114.0,-84.0,117.0
127.0,128.0,127.0,127.0,125.0,124.0,226.0,122.0,-1.0,105.0,-79.0,127.0,127.0,127.0,-114.0,-84.0,117.0
126.0,129.0,127.0,127.0,125.0,123.0,226.0,122.0,-1.0,105.0,-79.0,127.0,127.0,127.0,-114.0,-84.0,117.0
126.0,129.0,127.0,127.0,125.0,123.0,226.0,121.0,-1.0,105.0,-79.0,127.0,127.0,127.0,-114.0,-84.0,117.0
126.0,129.0,127.0,127.0,125.0,122.0,227.0,121.0,-1.0,105.0,-79.0,127.0,127.0,127.0,-114.0,-84.0,117.0
125.0,128.0,127.0,127.0,125.0,121.0,227.0,121.0,-1.0,105.0,-79.0,127.0,127.0,127.0,-114.0,-84.0,117.0
125.0,128.0,127.0,127.0,125.0,121.0,227.0,121.0,-1.0,105.0,-79.0,127.0,127.0,127.0,-114.0,-84.0,117.0
122.0,128.0,126.0,127.0,125.0,120.0,123.0,124.0,-1.0,105.0,-78.0,127.0,127.0,127.0,-114.0,-84.0,117.0
122.0,128.0,127.0,127.0,125.0,120.0,118.0,124.0,-1.0,105.0,-78.0,127.0,127.0,127.0,-114.0,-84.0,117.0
122.0,128.0,128.0,127.0,125.0,120.0,113.0,124.0,-1.0,105.0,-78.0,127.0,127.0,127.0,-114.0,-84.0,117.0
122.0,129.0,129.0,127.0,125.0,120.0,108.0,124.0,-1.0,105.0,-78.0,127.0,127.0,127.0,-114.0,-84.0,117.0
122.0,129.0,129.0,127.0,124.0,121.0,104.0,125.0,-1.0,105.0,-78.0,127.0,127.0,127.0,-114.0,-84.0,117.0
123.0,129.0,129.0,127.0,124.0,122.0,100.0,125.0,-1.0,105.0,-78.0,127.0,127.0,127.0,-114.0,-84.0,117.0
124.0,130.0,129.0,127.0,124.0,123.0,96.0,126.0,-1.0,105.0,-78.0,127.0,127.0,127.0,-114.0,-84.0,117.0
125.0,130.0,129.0,127.0,124.0,123.0,92.0,126.0,-1.0,105.0,-78.0,127.0,127.0,127.0,-114.0,-84.0,117.0
121.0,127.0,123.0,127.0,125.0,121.0,133.0,123.0,-1.0,105.0,-78.0,127.0,127.0,127.0,-114.0,-84.0,117.0
122.0,127.0,124.0,127.0,125.0,120.0,128.0,124.0,-1.0,105.0,-78.0,127.0,127.0,127.0,-114.0,-84.0,117.0
123.0,113.0,116.0,122.0,126.0,117.0,89.0,137.0,-1.0,106.0,-77.0,126.0,127.0,127.0,-114.0,-84.0,117.0
123.0,113.0,115.0,122.0,126.0,117.0,90.0,137.0,-1.0,106.0,-77.0,126.0,127.0,127.0,-114.0,-84.0,117.0
123.0,112.0,114.0,122.0,126.0,117.0,91.0,137.0,-1.0,106.0,-77.0,126.0,127.0,127.0,-114.0,-84.0,117.0
122.0,111.0,112.0,121.0,126.0,118.0,93.0,136.0,-1.0,106.0,-77.0,126.0,127.0,127.0,-114.0,-84.0,117.0
121.0,110.0,111.0,121.0,126.0,118.0,94.0,135.0,-1.0,106.0,-77.0,126.0,127.0,127.0,-114.0,-84.0,117.0
121.0,109.0,111.0,120.0,125.0,119.0,95.0,135.0,-1.0,106.0,-77.0,126.0,127.0,127.0,-114.0,-84.0,117.0
121.0,109.0,110.0,120.0,125.0,119.0,96.0,134.0,-1.0,106.0,-77.0,126.0,127.0,127.0,-114.0,-84.0,117.0
126.0,113.0,120.0,122.0,125.0,120.0,84.0,137.0,-1.0,106.0,-77.0,126.0,127.0,127.0,-114.0,-84.0,117.0
125.0,113.0,119.0,122.0,125.0,119.0,86.0,137.0,-1.0,106.0,-77.0,126.0,127.0,127.0,-114.0,-84.0,117.0
124.0,113.0,118.0,122.0,126.0,118.0,87.0,137.0,-1.0,106.0,-77.0,126.0,127.0,127.0,-114.0,-84.0,117.0
121.0,125.0,123.0,120.0,125.0,90.0,93.0,143.0,-1.0,107.0,-78.0,127.0,127.0,127.0,-114.0,-84.0,117.0
121.0,125.0,123.0,120.0,125.0,89.0,90.0,143.0,-1.0,107.0,-78.0,127.0,127.0,127.0,-114.0,-84.0,117.0
121.0,125.0,123.0,121.0,125.0,87.0,87.0,143.0,-1.0,107.0,-78.0,127.0,127.0,127.0,-114.0,-84.0,117.0
121.0,125.0,123.0,121.0,125.0,85.0,83.0,143.0,-1.0,107.0,-78.0,127.0,127.0,127.0,-114.0,-84.0,117.0
121.0,125.0,123.0,121.0,125.0,84.0,79.0,143.0,-1.0,107.0,-78.0,127.0,127.0,127.0,-114.0,-84.0,117.0
121.0,125.0,124.0,121.0,125.0,82.0,75.0,144.0,-1.0,107.0,-78.0,127.0,127.0,127.0,-114.0,-84.0,117.0
123.0,126.0,122.0,120.0,125.0,92.0,103.0,143.0,-1.0,107.0,-78.0,127.0,127.0,127.0,-114.0,-84.0,117.0
122.0,125.0,122.0,120.0,125.0,92.0,101.0,143.0,-1.0,107.0,-78.0,127.0,127.0,127.0,-114.0,-84.0,117.0
121.0,125.0,123.0,120.0,125.0,92.0,99.0,143.0,-1.0,107.0,-78.0,127.0,127.0,127.0,-114.0,-84.0,117.0
121.0,125.0,123.0,120.0,125.0,91.0,96.0,143.0,-1.0,107.0,-78.0,127.0,127.0,127.0,-114.0,-84.0,117.0
130.0,128.0,136.0,150.0,137.0,119.0,105.0,160.0,-1.0,106.0,-78.0,126.0,127.0,127.0,-114.0,-84.0,117.0
130.0,128.0,136.0,152.0,137.0,119.0,112.0,160.0,-1.0,106.0,-78.0,126.0,127.0,127.0,-114.0,-84.0,117.0
130.0,128.0,136.0,154.0,138.0,120.0,119.0,160.0,-1.0,106.0,-78.0,126.0,127.0,127.0,-114.0,-84.0,117.0
130.0,128.0,136.0,155.0,138.0,121.0,127.0,161.0,-1.0,106.0,-78.0,126.0,127.0,127.0,-114.0,-84.0,117.0
130.0,127.0,135.0,157.0,137.0,123.0,134.0,160.0,-1.0,106.0,-78.0,126.0,127.0,127.0,-114.0,-84.0,117.0
127.0,128.0,136.0,141.0,134.0,109.0,73.0,156.0,-1.0,106.0,-78.0,126.0,127.0,127.0,-114.0,-84.0,117.0
127.0,128.0,136.0,143.0,135.0,112.0,79.0,157.0,-1.0,106.0,-78.0,126.0,127.0,127.0,-114.0,-84.0,117.0
128.0,129.0,136.0,145.0,135.0,114.0,85.0,158.0,-1.0,106.0,-78.0,126.0,127.0,127.0,-114.0,-84.0,117.0
129.0,129.0,137.0,147.0,136.0,116.0,92.0,159.0,-1.0,106.0,-78.0,126.0,127.0,127.0,-114.0,-84.0,117.0
129.0,128.0,137.0,148.0,137.0,117.0,99.0,159.0,-1.0,106.0,-78.0,126.0,127.0,127.0,-114.0,-84.0,117.0
132.0,138.0,130.0,154.0,126.0,109.0,154.0,150.0,-1.0,105.0,-77.0,126.0,127.0,127.0,-114.0,-84.0,117.0
133.0,139.0,130.0,153.0,126.0,108.0,152.0,150.0,-1.0,105.0,-77.0,126.0,127.0,127.0,-114.0,-84.0,117.0
133.0,139.0,130.0,152.0,126.0,107.0,151.0,149.0,-1.0,105.0,-77.0,126.0,127.0,127.0,-114.0,-84.0,117.0
132.0,139.0,130.0,151.0,126.0,107.0,150.0,149.0,-1.0,105.0,-77.0,126.0,127.0,127.0,-114.0,-84.0,117.0
131.0,133.0,129.0,159.0,128.0,113.0,166.0,152.0,-1.0,105.0,-77.0,126.0,127.0,127.0,-114.0,-84.0,117.0
131.0,133.0,129.0,158.0,128.0,113.0,164.0,152.0,-1.0,105.0,-77.0,126.0,127.0,127.0,-114.0,-84.0,117.0
131.0,134.0,129.0,157.0,127.0,113.0,162.0,152.0,-1.0,105.0,-77.0,126.0,127.0,127.0,-114.0,-84.0,117.0
132.0,135.0,130.0,156.0,127.0,112.0,159.0,151.0,-1.0,105.0,-77.0,126.0,127.0,127.0,-114.0,-84.0,117.0
132.0,136.0,130.0,155.0,127.0,111.0,157.0,151.0,-1.0,105.0,-77.0,126.0,127.0,127.0,-114.0,-84.0,117.0
132.0,137.0,130.0,154.0,126.0,110.0,156.0,150.0,-1.0,105.0,-77.0,126.0,127.0,127.0,-114.0,-84.0,117.0
128.0,136.0,135.0,134.0,126.0,142.0,141.0,142.0,-1.0,103.0,-77.0,125.0,127.0,127.0,-114.0,-84.0,117.0
128.0,137.0,135.0,133.0,126.0,142.0,141.0,142.0,-1.0,103.0,-77.0,125.0,127.0,127.0,-114.0,-84.0,117.0
128.0,137.0,134.0,133.0,126.0,142.0,142.0,141.0,-1.0,103.0,-77.0,125.0,127.0,127.0,-114.0,-84.0,117.0
132.0,136.0,133.0,135.0,128.0,142.0,137.0,143.0,-1.0,103.0,-77.0,125.0,127.0,127.0,-114.0,-84.0,117.0
131.0,136.0,133.0,134.0,128.0,143.0,138.0,143.0,-1.0,103.0,-77.0,125.0,127.0,127.0,-114.0,-84.0,117.0
131.0,136.0,134.0,134.0,128.0,143.0,138.0,143.0,-1.0,103.0,-77.0,125.0,127.0,127.0,-114.0,-84.0,117.0
131.0,136.0,134.0,134.0,127.0,144.0,139.0,143.0,-1.0,103.0,-77.0,125.0,127.0,127.0,-114.0,-84.0,117.0
130.0,136.0,134.0,134.0,127.0,143.0,139.0,143.0,-1.0,103.0,-77.0,125.0,127.0,127.0,-114.0,-84.0,117.0
129.0,136.0,135.0,134.0,127.0,143.0,139.0,142.0,-1.0,103.0,-77.0,125.0,127.0,127.0,-114.0,-84.0,117.0
129.0,136.0,135.0,134.0,126.0,142.0,140.0,142.0,-1.0,103.0,-77.0,125.0,127.0,127.0,-114.0,-84.0,117.0
136.0,138.0,132.0,128.0,125.0,143.0,164.0,142.0,-1.0,100.0,-79.0,126.0,127.0,127.0,-114.0,-84.0,117.0
136.0,139.0,132.0,128.0,125.0,142.0,164.0,143.0,-1.0,100.0,-79.0,126.0,127.0,127.0,-114.0,-84.0,117.0
134.0,137.0,132.0,128.0,124.0,148.0,165.0,141.0,-1.0,100.0,-79.0,126.0,127.0,127.0,-114.0,-84.0,117.0
134.0,137.0,131.0,128.0,123.0,148.0,165.0,141.0,-1.0,100.0,-79.0,126.0,127.0,127.0,-114.0,-84.0,117.0
134.0,137.0,131.0,128.0,123.0,147.0,165.0,141.0,-1.0,100.0,-79.0,126.0,127.0,127.0,-114.0,-84.0,117.0
134.0,137.0,131.0,128.0,123.0,147.0,165.0,141.0,-1.0,100.0,-79.0,126.0,127.0,127.0,-114.0,-84.0,117.0
135.0,137.0,131.0,128.0,123.0,147.0,165.0,141.0,-1.0,100.0,-79.0,126.0,127.0,127.0,-114.0,-84.0,117.0
135.0,137.0,131.0,128.0,124.0,147.0,164.0,141.0,-1.0,100.0,-79.0,126.0,127.0,127.0,-114.0,-84.0,117.0
135.0,138.0,131.0,128.0,124.0,146.0,164.0,142.0,-1.0,100.0,-79.0,126.0,127.0,127.0,-114.0,-84.0,117.0
135.0,138.0,131.0,128.0,125.0,145.0,164.0,142.0,-1.0,100.0,-79.0,126.0,127.0,127.0,-114.0,-84.0,117.0
140.0,137.0,125.0,125.0,124.0,140.0,152.0,136.0,-1.0,102.0,-80.0,127.0,127.0,127.0,-114.0,-84.0,117.0
139.0,136.0,125.0,125.0,120.0,138.0,156.0,135.0,-1.0,102.0,-80.0,127.0,127.0,127.0,-114.0,-84.0,117.0
139.0,136.0,125.0,125.0,120.0,140.0,155.0,135.0,-1.0,102.0,-80.0,127.0,127.0,127.0,-114.0,-84.0,117.0
139.0,136.0,125.0,125.0,120.0,141.0,155.0,136.0,-1.0,102.0,-80.0,127.0,127.0,127.0,-114.0,-84.0,117.0
140.0,136.0,125.0,125.0,121.0,142.0,154.0,136.0,-1.0,102.0,-80.0,127.0,127.0,127.0,-114.0,-84.0,117.0
140.0,136.0,125.0,125.0,121.0,142.0,154.0,136.0,-1.0,102.0,-80.0,127.0,127.0,127.0,-114.0,-84.0,117.0
140.0,136.0,125.0,125.0,122.0,141.0,154.0,136.0,-1.0,102.0,-80.0,127.0,127.0,127.0,-114.0,-84.0,117.0
140.0,137.0,125.0,125.0,122.0,141.0,153.0,136.0,-1.0,102.0,-80.0,127.0,127.0,127.0,-114.0,-84.0,117.0
140.0,137.0,125.0,125.0,123.0,141.0,153.0,136.0,-1.0,102.0,-80.0,127.0,127.0,127.0,-114.0,-84.0,117.0
140.0,137.0,125.0,125.0,124.0,140.0,152.0,136.0,-1.0,102.0,-80.0,127.0,127.0,127.0,-114.0,-84.0,117.0
140.0,135.0,127.0,124.0,127.0,136.0,139.0,133.0,-1.0,103.0,-80.0,126.0,127.0,127.0,-114.0,-84.0,117.0
140.0,135.0,127.0,124.0,128.0,137.0,139.0,133.0,-1.0,103.0,-80.0,126.0,127.0,127.0,-114.0,-84.0,117.0
140.0,135.0,127.0,124.0,128.0,138.0,139.0,133.0,-1.0,103.0,-80.0,126.0,127.0,127.0,-114.0,-84.0,117.0
140.0,135.0,127.0,125.0,129.0,139.0,139.0,133.0,-1.0,103.0,-80.0,126.0,127.0,127.0,-114.0,-84.0,117.0
140.0,135.0,128.0,125.0,129.0,140.0,139.0,134.0,-1.0,103.0,-80.0,126.0,127.0,127.0,-114.0,-84.0,117.0
140.0,135.0,128.0,125.0,129.0,141.0,139.0,135.0,-1.0,103.0,-80.0,126.0,127.0,127.0,-114.0,-84.0,117.0
140.0,136.0,128.0,126.0,130.0,141.0,139.0,135.0,-1.0,103.0,-80.0,126.0,127.0,127.0,-114.0,-84.0,117.0
140.0,136.0,128.0,126.0,130.0,140.0,138.0,135.0,-1.0,103.0,-80.0,126.0,127.0,127.0,-114.0,-84.0,117.0
140.0,136.0,129.0,126.0,130.0,140.0,138.0,135.0,-1.0,103.0,-80.0,126.0,127.0,127.0,-114.0,-84.0,117.0
141.0,137.0,129.0,126.0,130.0,139.0,138.0,134.0,-1.0,103.0,-80.0,126.0,127.0,127.0,-114.0,-84.0,117.0
133.0,136.0,127.0,123.0,126.0,134.0,137.0,131.0,-1.0,103.0,-79.0,126.0,127.0,127.0,-114.0,-84.0,117.0
134.0,135.0,127.0,123.0,126.0,134.0,136.0,131.0,-1.0,103.0,-79.0,126.0,127.0,127.0,-114.0,-84.0,117.0
134.0,135.0,127.0,123.0,126.0,135.0,137.0,131.0,-1.0,103.0,-79.0,126.0,127.0,127.0,-114.0,-84.0,117.0
134.0,134.0,127.0,122.0,126.0,135.0,137.0,131.0,-1.0,103.0,-79.0,126.0,127.0,127.0,-114.0,-84.0,117.0
134.0,134.0,126.0,122.0,126.0,136.0,137.0,130.0,-1.0,103.0,-79.0,126.0,127.0,127.0,-114.0,-84.0,117.0
134.0,134.0,126.0,122.0,126.0,136.0,137.0,130.0,-1.0,103.0,-79.0,126.0,127.0,127.0,-114.0,-84.0,117.0
133.0,133.0,126.0,122.0,126.0,136.0,137.0,130.0,-1.0,103.0,-79.0,126.0,127.0,127.0,-114.0,-84.0,117.0
132.0,133.0,126.0,122.0,126.0,136.0,137.0,129.0,-1.0,103.0,-79.0,126.0,127.0,127.0,-114.0,-84.0,117.0
130.0,133.0,126.0,122.0,126.0,136.0,137.0,129.0,-1.0,103.0,-79.0,126.0,127.0,127.0,-114.0,-84.0,117.0
133.0,137.0,127.0,123.0,126.0,133.0,136.0,131.0,-1.0,103.0,-79.0,126.0,127.0,127.0,-114.0,-84.0,117.0
121.0,131.0,125.0,122.0,126.0,131.0,150.0,129.0,-1.0,103.0,-79.0,126.0,127.0,127.0,-114.0,-84.0,117.0
120.0,131.0,126.0,122.0,126.0,130.0,150.0,129.0,-1.0,103.0,-79.0,126.0,127.0,127.0,-114.0,-84.0,117.0
120.0,132.0,127.0,122.0,126.0,130.0,151.0,128.0,-1.0,103.0,-79.0,126.0,127.0,127.0,-114.0,-84.0,117.0
120.0,132.0,127.0,122.0,126.0,130.0,151.0,128.0,-1.0,103.0,-79.0,126.0,127.0,127.0,-114.0,-84.0,117.0
120.0,133.0,127.0,122.0,126.0,131.0,151.0,128.0,-1.0,103.0,-79.0,126.0,127.0,127.0,-114.0,-84.0,117.0
119.0,133.0,128.0,122.0,126.0,131.0,151.0,128.0,-1.0,103.0,-79.0,126.0,127.0,127.0,-114.0,-84.0,117.0
119.0,133.0,128.0,122.0,126.0,132.0,151.0,127.0,-1.0,103.0,-79.0,126.0,127.0,127.0,-114.0,-84.0,117.0
119.0,133.0,128.0,122.0,126.0,132.0,151.0,127.0,-1.0,103.0,-79.0,126.0,127.0,127.0,-114.0,-84.0,117.0
121.0,131.0,124.0,123.0,126.0,133.0,150.0,129.0,-1.0,103.0,-79.0,126.0,127.0,127.0,-114.0,-84.0,117.0
121.0,131.0,124.0,122.0,126.0,132.0,150.0,129.0,-1.0,103.0,-79.0,126.0,127.0,127.0,-114.0,-84.0,117.0
118.0,134.0,127.0,124.0,127.0,136.0,148.0,129.0,-1.0,103.0,-80.0,127.0,127.0,127.0,-114.0,-84.0,117.0
119.0,134.0,127.0,124.0,127.0,135.0,148.0,128.0,-1.0,103.0,-80.0,127.0,127.0,127.0,-114.0,-84.0,117.0
119.0,135.0,127.0,124.0,127.0,134.0,148.0,128.0,-1.0,103.0,-80.0,127.0,127.0,127.0,-114.0,-84.0,117.0
119.0,135.0,127.0,124.0,126.0,133.0,148.0,128.0,-1.0,103.0,-80.0,127.0,127.0,127.0,-114.0,-84.0,117.0
118.0,135.0,127.0,124.0,126.0,133.0,148.0,128.0,-1.0,103.0,-80.0,127.0,127.0,127.0,-114.0,-84.0,117.0
118.0,135.0,127.0,124.0,126.0,133.0,148.0,128.0,-1.0,103.0,-80.0,127.0,127.0,127.0,-114.0,-84.0,117.0
118.0,135.0,127.0,124.0,126.0,133.0,148.0,127.0,-1.0,103.0,-80.0,127.0,127.0,127.0,-114.0,-84.0,117.0
118.0,134.0,127.0,124.0,127.0,137.0,148.0,128.0,-1.0,103.0,-80.0,127.0,127.0,127.0,-114.0,-84.0,117.0
118.0,134.0,127.0,124.0,127.0,136.0,148.0,128.0,-1.0,103.0,-80.0,127.0,127.0,127.0,-114.0,-84.0,117.0
118.0,134.0,127.0,124.0,127.0,136.0,148.0,128.0,-1.0,103.0,-80.0,127.0,127.0,127.0,-114.0,-84.0,117.0
117.0,134.0,126.0,125.0,127.0,133.0,142.0,129.0,-1.0,103.0,-81.0,127.0,127.0,127.0,-114.0,-84.0,117.0
117.0,134.0,127.0,125.0,127.0,133.0,142.0,129.0,-1.0,103.0,-81.0,127.0,127.0,127.0,-114.0,-84.0,117.0
117.0,134.0,127.0,125.0,127.0,133.0,142.0,129.0,-1.0,103.0,-81.0,127.0,127.0,127.0,-114.0,-84.0,117.0
117.0,134.0,127.0,126.0,127.0,133.0,142.0,128.0,-1.0,103.0,-81.0,127.0,127.0,127.0,-114.0,-84.0,117.0
117.0,134.0,127.0,126.0,127.0,132.0,141.0,128.0,-1.0,103.0,-81.0,127.0,127.0,127.0,-114.0,-84.0,117.0
116.0,134.0,126.0,125.0,125.0,134.0,143.0,129.0,-1.0,103.0,-81.0,127.0,127.0,127.0,-114.0,-84.0,117.0
116.0,134.0,126.0,125.0,125.0,134.0,143.0,129.0,-1.0,103.0,-81.0,127.0,127.0,127.0,-114.0,-84.0,117.0
116.0,134.0,126.0,125.0,126.0,134.0,143.0,129.0,-1.0,103.0,-81.0,127.0,127.0,127.0,-114.0,-84.0,117.0
116.0,134.0,126.0,125.0,126.0,134.0,142.0,129.0,-1.0,103.0,-81.0,127.0,127.0,127.0,-114.0,-84.0,117.0
117.0,134.0,126.0,125.0,126.0,134.0,142.0,129.0,-1.0,103.0,-81.0,127.0,127.0,127.0,-114.0,-84.0,117.0
121.0,133.0,125.0,124.0,125.0,130.0,132.0,128.0,-1.0,102.0,-81.0,127.0,127.0,127.0,-114.0,-84.0,117.0
121.0,132.0,125.0,124.0,125.0,131.0,132.0,128.0,-1.0,102.0,-81.0,127.0,127.0,127.0,-114.0,-84.0,117.0
120.0,132.0,125.0,124.0,125.0,131.0,132.0,128.0,-1.0,102.0,-81.0,127.0,127.0,127.0,-114.0,-84.0,117.0
120.0,132.0,125.0,124.0,125.0,131.0,131.0,127.0,-1.0,102.0,-81.0,127.0,127.0,127.0,-114.0,-84.0,117.0
120.0,133.0,125.0,125.0,126.0,131.0,133.0,129.0,-1.0,102.0,-81.0,127.0,127.0,127.0,-114.0,-84.0,117.0
120.0,133.0,125.0,125.0,125.0,131.0,133.0,129.0,-1.0,102.0,-81.0,127.0,127.0,127.0,-114.0,-84.0,117.0
120.0,133.0,125.0,125.0,125.0,131.0,133.0,128.0,-1.0,102.0,-81.0,127.0,127.0,127.0,-114.0,-84.0,117.0
120.0,133.0,125.0,125.0,125.0,130.0,132.0,128.0,-1.0,102.0,-81.0,127.0,127.0,127.0,-114.0,-84.0,117.0
120.0,133.0,125.0,125.0,125.0,130.0,132.0,128.0,-1.0,102.0,-81.0,127.0,127.0,127.0,-114.0,-84.0,117.0
121.0,133.0,125.0,125.0,125.0,130.0,132.0,128.0,-1.0,102.0,-81.0,127.0,127.0,127.0,-114.0,-84.0,117.0
120.0,132.0,126.0,124.0,127.0,133.0,124.0,126.0,-1.0,102.0,-81.0,127.0,127.0,127.0,-114.0,-84.0,117.0
120.0,132.0,126.0,124.0,127.0,133.0,124.0,126.0,-1.0,102.0,-81.0,127.0,127.0,127.0,-114.0,-84.0,117.0
119.0,132.0,126.0,124.0,127.0,132.0,124.0,126.0,-1.0,102.0,-81.0,127.0,127.0,127.0,-114.0,-84.0,117.0
120.0,132.0,126.0,125.0,127.0,134.0,124.0,127.0,-1.0,102.0,-81.0,127.0,127.0,127.0,-114.0,-84.0,117.0
120.0,132.0,126.0,125.0,127.0,134.0,124.0,127.0,-1.0,102.0,-81.0,127.0,127.0,127.0,-114.0,-84.0,117.0
120.0,132.0,126.0,125.0,127.0,134.0,124.0,126.0,-1.0,102.0,-81.0,127.0,127.0,127.0,-114.0,-84.0,117.0
120.0,132.0,126.0,125.0,127.0,134.0,124.0,126.0,-1.0,102.0,-81.0,127.0,127.0,127.0,-114.0,-84.0,117.0
120.0,132.0,126.0,124.0,126.0,134.0,124.0,126.0,-1.0,102.0,-81.0,127.0,127.0,127.0,-114.0,-84.0,117.0
120.0,132.0,126.0,124.0,127.0,133.0,124.0,126.0,-1.0,102.0,-81.0,127.0,127.0,127.0,-114.0,-84.0,117.0
120.0,132.0,126.0,124.0,127.0,133.0,124.0,126.0,-1.0,102.0,-81.0,127.0,127.0,127.0,-114.0,-84.0,117.0
118.0,129.0,126.0,123.0,126.0,131.0,114.0,126.0,-1.0,102.0,-81.0,127.0,127.0,127.0,-114.0,-84.0,117.0
118.0,129.0,126.0,123.0,126.0,131.0,114.0,126.0,-1.0,102.0,-81.0,127.0,127.0,127.0,-114.0,-84.0,117.0
118.0,130.0,126.0,123.0,126.0,134.0,116.0,127.0,-1.0,102.0,-81.0,127.0,127.0,127.0,-114.0,-84.0,117.0
118.0,130.0,126.0,123.0,126.0,134.0,115.0,127.0,-1.0,102.0,-81.0,127.0,127.0,127.0,-114.0,-84.0,117.0
118.0,130.0,126.0,123.0,126.0,133.0,115.0,127.0,-1.0,102.0,-81.0,127.0,127.0,127.0,-114.0,-84.0,117.0
118.0,130.0,126.0,123.0,126.0,133.0,115.0,127.0,-1.0,102.0,-81.0,127.0,127.0,127.0,-114.0,-84.0,117.0
118.0,130.0,126.0,123.0,126.0,133.0,115.0,127.0,-1.0,102.0,-81.0,127.0,127.0,127.0,-114.0,-84.0,117.0
118.0,130.0,126.0,123.0,126.0,133.0,114.0,127.0,-1.0,102.0,-81.0,127.0,127.0,127.0,-114.0,-84.0,117.0
118.0,129.0,126.0,123.0,126.0,132.0,114.0,127.0,-1.0,102.0,-81.0,127.0,127.0,127.0,-114.0,-84.0,117.0
118.0,129.0,126.0,123.0,126.0,132.0,114.0,127.0,-1.0,102.0,-81.0,127.0,127.0,127.0,-114.0,-84.0,117.0
119.0,128.0,126.0,124.0,127.0,132.0,105.0,121.0,-1.0,102.0,-80.0,127.0,127.0,127.0,-114.0,-84.0,117.0
118.0,127.0,126.0,124.0,128.0,132.0,103.0,121.0,-1.0,102.0,-80.0,127.0,127.0,127.0,-114.0,-84.0,117.0
118.0,127.0,126.0,123.0,128.0,132.0,103.0,121.0,-1.0,102.0,-80.0,127.0,127.0,127.0,-114.0,-84.0,117.0
119.0,127.0,126.0,123.0,127.0,132.0,103.0,121.0,-1.0,102.0,-80.0,127.0,127.0,127.0,-114.0,-84.0,117.0
119.0,128.0,126.0,124.0,127.0,133.0,103.0,121.0,-1.0,102.0,-80.0,127.0,127.0,127.0,-114.0,-84.0,117.0
119.0,128.0,126.0,124.0,127.0,133.0,103.0,121.0,-1.0,102.0,-80.0,127.0,127.0,127.0,-114.0,-84.0,117.0
119.0,128.0,126.0,124.0,127.0,133.0,104.0,121.0,-1.0,102.0,-80.0,127.0,127.0,127.0,-114.0,-84.0,117.0
119.0,128.0,126.0,124.0,127.0,132.0,104.0,121.0,-1.0,102.0,-80.0,127.0,127.0,127.0,-114.0,-84.0,117.0
119.0,128.0,126.0,124.0,127.0,132.0,104.0,121.0,-1.0,102.0,-80.0,127.0,127.0,127.0,-114.0,-84.0,117.0
119.0,128.0,126.0,124.0,127.0,132.0,105.0,121.0,-1.0,102.0,-80.0,127.0,127.0,127.0,-114.0,-84.0,117.0
122.0,127.0,126.0,124.0,127.0,133.0,119.0,125.0,-1.0,102.0,-80.0,127.0,127.0,127.0,-114.0,-84.0,117.0
122.0,127.0,126.0,124.0,127.0,133.0,119.0,125.0,-1.0,102.0,-80.0,127.0,127.0,127.0,-114.0,-84.0,117.0
122.0,127.0,126.0,124.0,126.0,133.0,119.0,125.0,-1.0,102.0,-80.0,127.0,127.0,127.0,-114.0,-84.0,117.0
122.0,127.0,125.0,124.0,126.0,133.0,119.0,125.0,-1.0,102.0,-80.0,127.0,127.0,127.0,-114.0,-84.0,117.0
122.0,127.0,125.0,124.0,126.0,134.0,120.0,125.0,-1.0,102.0,-80.0,127.0,127.0,127.0,-114.0,-84.0,117.0
122.0,127.0,125.0,124.0,126.0,134.0,120.0,125.0,-1.0,102.0,-80.0,127.0,127.0,127.0,-114.0,-84.0,117.0
122.0,127.0,125.0,124.0,126.0,133.0,120.0,125.0,-1.0,102.0,-80.0,127.0,127.0,127.0,-114.0,-84.0,117.0
122.0,127.0,125.0,124.0,126.0,133.0,120.0,125.0,-1.0,102.0,-80.0,127.0,127.0,127.0,-114.0,-84.0,117.0
122.0,127.0,125.0,124.0,126.0,132.0,120.0,125.0,-1.0,102.0,-80.0,127.0,127.0,127.0,-114.0,-84.0,117.0
122.0,127.0,125.0,124.0,126.0,132.0,120.0,125.0,-1.0,102.0,-80.0,127.0,127.0,127.0,-114.0,-84.0,117.0
124.0,127.0,126.0,124.0,127.0,131.0,110.0,129.0,-1.0,102.0,-81.0,127.0,127.0,127.0,-114.0,-84.0,117.0
124.0,127.0,126.0,124.0,127.0,131.0,110.0,129.0,-1.0,102.0,-81.0,127.0,127.0,127.0,-114.0,-84.0,117.0
124.0,127.0,126.0,124.0,126.0,131.0,110.0,129.0,-1.0,102.0,-81.0,127.0,127.0,127.0,-114.0,-84.0,117.0
124.0,127.0,126.0,124.0,126.0,132.0,110.0,129.0,-1.0,102.0,-81.0,127.0,127.0,127.0,-114.0,-84.0,117.0
124.0,127.0,126.0,124.0,126.0,132.0,110.0,129.0,-1.0,102.0,-81.0,127.0,127.0,127.0,-114.0,-84.0,117.0
124.0,127.0,126.0,124.0,126.0,132.0,110.0,129.0,-1.0,102.0,-81.0,127.0,127.0,127.0,-114.0,-84.0,117.0
124.0,127.0,126.0,124.0,126.0,131.0,110.0,129.0,-1.0,102.0,-81.0,127.0,127.0,127.0,-114.0,-84.0,117.0
124.0,127.0,126.0,124.0,126.0,131.0,110.0,129.0,-1.0,102.0,-81.0,127.0,127.0,127.0,-114.0,-84.0,117.0
124.0,127.0,126.0,124.0,126.0,131.0,110.0,129.0,-1.0,102.0,-81.0,127.0,127.0,127.0,-114.0,-84.0,117.0
124.0,127.0,126.0,124.0,127.0,131.0,111.0,129.0,-1.0,102.0,-81.0,127.0,127.0,127.0,-114.0,-84.0,117.0
127.0,126.0,125.0,124.0,126.0,132.0,110.0,133.0,-1.0,103.0,-81.0,127.0,127.0,127.0,-114.0,-84.0,117.0
127.0,126.0,125.0,124.0,126.0,131.0,110.0,132.0,-1.0,103.0,-81.0,127.0,127.0,127.0,-114.0,-84.0,117.0
127.0,126.0,125.0,124.0,125.0,132.0,110.0,133.0,-1.0,103.0,-81.0,127.0,127.0,127.0,-114.0,-84.0,117.0
127.0,126.0,125.0,124.0,126.0,132.0,110.0,133.0,-1.0,103.0,-81.0,127.0,127.0,127.0,-114.0,-84.0,117.0
127.0,126.0,125.0,124.0,126.0,131.0,111.0,132.0,-1.0,103.0,-81.0,127.0,127.0,127.0,-114.0,-84.0,117.0
127.0,126.0,125.0,124.0,126.0,131.0,111.0,132.0,-1.0,103.0,-81.0,127.0,127.0,127.0,-114.0,-84.0,117.0
127.0,126.0,125.0,124.0,126.0,131.0,111.0,132.0,-1.0,103.0,-81.0,127.0,127.0,127.0,-114.0,-84.0,117.0
127.0,126.0,125.0,124.0,126.0,131.0,111.0,132.0,-1.0,103.0,-81.0,127.0,127.0,127.0,-114.0,-84.0,117.0
127.0,126.0,125.0,124.0,126.0,131.0,109.0,132.0,-1.0,103.0,-81.0,127.0,127.0,127.0,-114.0,-84.0,117.0
127.0,126.0,125.0,124.0,126.0,132.0,110.0,133.0,-1.0,103.0,-81.0,127.0,127.0,127.0,-114.0,-84.0,117.0
128.0,125.0,126.0,124.0,126.0,128.0,126.0,131.0,-1.0,103.0,-81.0,-128.0,127.0,127.0,-114.0,-84.0,117.0
128.0,125.0,125.0,124.0,126.0,129.0,126.0,131.0,-1.0,103.0,-81.0,-128.0,127.0,127.0,-114.0,-84.0,117.0
128.0,125.0,125.0,124.0,126.0,129.0,127.0,131.0,-1.0,103.0,-81.0,-128.0,127.0,127.0,-114.0,-84.0,117.0
128.0,125.0,125.0,124.0,126.0,129.0,127.0,131.0,-1.0,103.0,-81.0,-128.0,127.0,127.0,-114.0,-84.0,117.0
128.0,125.0,126.0,124.0,126.0,129.0,128.0,131.0,-1.0,103.0,-81.0,-128.0,127.0,127.0,-114.0,-84.0,117.0
128.0,125.0,125.0,124.0,126.0,129.0,128.0,131.0,-1.0,103.0,-81.0,-128.0,127.0,127.0,-114.0,-84.0,117.0
128.0,125.0,125.0,124.0,126.0,128.0,129.0,131.0,-1.0,103.0,-81.0,-128.0,127.0,127.0,-114.0,-84.0,117.0
128.0,125.0,126.0,124.0,126.0,129.0,124.0,131.0,-1.0,103.0,-81.0,-128.0,127.0,127.0,-114.0,-84.0,117.0
128.0,124.0,126.0,124.0,126.0,129.0,125.0,131.0,-1.0,103.0,-81.0,-128.0,127.0,127.0,-114.0,-84.0,117.0
128.0,125.0,126.0,124.0,126.0,129.0,125.0,131.0,-1.0,103.0,-81.0,-128.0,127.0,127.0,-114.0,-84.0,117.0
126.0,124.0,126.0,124.0,126.0,128.0,151.0,130.0,-1.0,104.0,-81.0,-128.0,127.0,127.0,-114.0,-84.0,117.0
126.0,124.0,126.0,124.0,126.0,128.0,151.0,130.0,-1.0,104.0,-81.0,-128.0,127.0,127.0,-114.0,-84.0,117.0
126.0,124.0,126.0,124.0,126.0,128.0,151.0,130.0,-1.0,104.0,-81.0,-128.0,127.0,127.0,-114.0,-84.0,117.0
126.0,124.0,126.0,124.0,126.0,127.0,151.0,130.0,-1.0,104.0,-81.0,-128.0,127.0,127.0,-114.0,-84.0,117.0
126.0,124.0,125.0,124.0,126.0,127.0,151.0,129.0,-1.0,104.0,-81.0,-128.0,127.0,127.0,-114.0,-84.0,117.0
126.0,124.0,125.0,124.0,126.0,127.0,151.0,129.0,-1.0,104.0,-81.0,-128.0,127.0,127.0,-114.0,-84.0,117.0
126.0,124.0,126.0,124.0,126.0,127.0,150.0,130.0,-1.0,104.0,-81.0,-128.0,127.0,127.0,-114.0,-84.0,117.0
126.0,124.0,126.0,124.0,126.0,127.0,150.0,130.0,-1.0,104.0,-81.0,-128.0,127.0,127.0,-114.0,-84.0,117.0
126.0,124.0,126.0,124.0,126.0,127.0,151.0,130.0,-1.0,104.0,-81.0,-128.0,127.0,127.0,-114.0,-84.0,117.0
126.0,124.0,126.0,124.0,126.0,127.0,151.0,130.0,-1.0,104.0,-81.0,-128.0,127.0,127.0,-114.0,-84.0,117.0
123.0,123.0,126.0,124.0,125.0,125.0,152.0,126.0,-1.0,104.0,-80.0,-128.0,127.0,127.0,-114.0,-84.0,117.0
123.0,123.0,126.0,124.0,125.0,125.0,152.0,126.0,-1.0,104.0,-80.0,-128.0,127.0,127.0,-114.0,-84.0,117.0
123.0,123.0,126.0,124.0,125.0,125.0,153.0,126.0,-1.0,104.0,-80.0,-128.0,127.0,127.0,-114.0,-84.0,117.0
123.0,123.0,126.0,124.0,125.0,125.0,153.0,126.0,-1.0,104.0,-80.0,-128.0,127.0,127.0,-114.0,-84.0,117.0
123.0,123.0,126.0,124.0,125.0,125.0,153.0,126.0,-1.0,104.0,-80.0,-128.0,127.0,127.0,-114.0,-84.0,117.0
123.0,122.0,126.0,124.0,126.0,124.0,152.0,126.0,-1.0,104.0,-80.0,-128.0,127.0,127.0,-114.0,-84.0,117.0
123.0,122.0,126.0,124.0,126.0,124.0,152.0,126.0,-1.0,104.0,-80.0,-128.0,127.0,127.0,-114.0,-84.0,117.0
123.0,122.0,126.0,124.0,126.0,124.0,152.0,126.0,-1.0,104.0,-80.0,-128.0,127.0,127.0,-114.0,-84.0,117.0
123.0,122.0,126.0,124.0,125.0,124.0,152.0,126.0,-1.0,104.0,-80.0,-128.0,127.0,127.0,-114.0,-84.0,117.0
123.0,122.0,126.0,124.0,125.0,125.0,152.0,126.0,-1.0,104.0,-80.0,-128.0,127.0,127.0,-114.0,-84.0,117.0
122.0,123.0,126.0,125.0,126.0,124.0,149.0,126.0,-1.0,105.0,-80.0,-128.0,127.0,127.0,-114.0,-84.0,117.0
122.0,123.0,126.0,125.0,126.0,124.0,149.0,126.0,-1.0,105.0,-80.0,-128.0,127.0,127.0,-114.0,-84.0,117.0
123.0,123.0,126.0,125.0,126.0,124.0,149.0,126.0,-1.0,105.0,-80.0,-128.0,127.0,127.0,-114.0,-84.0,117.0
122.0,123.0,126.0,125.0,126.0,124.0,148.0,126.0,-1.0,105.0,-80.0,-128.0,127.0,127.0,-114.0,-84.0,117.0
122.0,123.0,126.0,125.0,126.0,124.0,150.0,126.0,-1.0,105.0,-80.0,-128.0,127.0,127.0,-114.0,-84.0,117.0
122.0,123.0,126.0,125.0,126.0,124.0,150.0,126.0,-1.0,105.0,-80.0,-128.0,127.0,127.0,-114.0,-84.0,117.0
122.0,123.0,126.0,125.0,126.0,124.0,150.0,126.0,-1.0,105.0,-80.0,-128.0,127.0,127.0,-114.0,-84.0,117.0
122.0,123.0,126.0,125.0,126.0,123.0,150.0,126.0,-1.0,105.0,-80.0,-128.0,127.0,127.0,-114.0,-84.0,117.0
122.0,123.0,126.0,125.0,126.0,124.0,149.0,126.0,-1.0,105.0,-80.0,-128.0,127.0,127.0,-114.0,-84.0,117.0
122.0,123.0,126.0,125.0,125.0,124.0,149.0,126.0,-1.0,105.0,-80.0,-128.0,127.0,127.0,-114.0,-84.0,117.0
123.0,123.0,127.0,126.0,125.0,123.0,136.0,125.0,-1.0,105.0,-79.0,127.0,127.0,127.0,-114.0,-84.0,117.0
123.0,123.0,126.0,126.0,125.0,123.0,136.0,126.0,-1.0,105.0,-79.0,127.0,127.0,127.0,-114.0,-84.0,117.0
123.0,123.0,126.0,126.0,125.0,123.0,136.0,126.0,-1.0,105.0,-79.0,127.0,127.0,127.0,-114.0,-84.0,117.0
123.0,123.0,127.0,127.0,126.0,123.0,138.0,126.0,-1.0,105.0,-79.0,127.0,127.0,127.0,-114.0,-84.0,117.0
123.0,123.0,127.0,127.0,126.0,123.0,137.0,126.0,-1.0,105.0,-79.0,127.0,127.0,127.0,-114.0,-84.0,117.0
123.0,123.0,127.0,127.0,126.0,123.0,137.0,126.0,-1.0,105.0,-79.0,127.0,127.0,127.0,-114.0,-84.0,117.0
123.0,123.0,127.0,127.0,126.0,123.0,137.0,126.0,-1.0,105.0,-79.0,127.0,127.0,127.0,-114.0,-84.0,117.0
123.0,123.0,127.0,126.0,126.0,123.0,137.0,126.0,-1.0,105.0,-79.0,127.0,127.0,127.0,-114.0,-84.0,117.0
123.0,123.0,127.0,126.0,126.0,123.0,137.0,125.0,-1.0,105.0,-79.0,127.0,127.0,127.0,-114.0,-84.0,117.0
123.0,123.0,127.0,126.0,126.0,123.0,136.0,125.0,-1.0,105.0,-79.0,127.0,127.0,127.0,-114.0,-84.0,117.0
122.0,123.0,127.0,127.0,126.0,124.0,121.0,125.0,-1.0,105.0,-78.0,127.0,127.0,127.0,-114.0,-84.0,117.0
122.0,123.0,127.0,127.0,126.0,124.0,121.0,125.0,-1.0,105.0,-78.0,127.0,127.0,127.0,-114.0,-84.0,117.0
122.0,123.0,127.0,127.0,126.0,124.0,124.0,125.0,-1.0,105.0,-78.0,127.0,127.0,127.0,-114.0,-84.0,117.0
122.0,123.0,127.0,127.0,126.0,124.0,124.0,125.0,-1.0,105.0,-78.0,127.0,127.0,127.0,-114.0,-84.0,117.0
122.0,123.0,127.0,127.0,126.0,124.0,123.0,125.0,-1.0,105.0,-78.0,127.0,127.0,127.0,-114.0,-84.0,117.0
122.0,123.0,127.0,127.0,126.0,124.0,123.0,125.0,-1.0,105.0,-78.0,127.0,127.0,127.0,-114.0,-84.0,117.0
122.0,123.0,127.0,127.0,126.0,124.0,122.0,125.0,-1.0,105.0,-78.0,127.0,127.0,127.0,-114.0,-84.0,117.0
122.0,123.0,127.0,127.0,126.0,125.0,122.0,125.0,-1.0,105.0,-78.0,127.0,127.0,127.0,-114.0,-84.0,117.0
122.0,123.0,127.0,127.0,126.0,125.0,122.0,125.0,-1.0,105.0,-78.0,127.0,127.0,127.0,-114.0,-84.0,117.0
122.0,123.0,127.0,127.0,126.0,125.0,121.0,125.0,-1.0,105.0,-78.0,127.0,127.0,127.0,-114.0,-84.0,117.0
124.0,125.0,127.0,127.0,126.0,125.0,102.0,125.0,-1.0,104.0,-78.0,127.0,127.0,127.0,-114.0,-84.0,117.0
124.0,125.0,127.0,127.0,126.0,125.0,104.0,125.0,-1.0,104.0,-78.0,127.0,127.0,127.0,-114.0,-84.0,117.0
124.0,125.0,127.0,127.0,126.0,125.0,104.0,125.0,-1.0,104.0,-78.0,127.0,127.0,127.0,-114.0,-84.0,117.0
124.0,125.0,127.0,127.0,126.0,125.0,103.0,125.0,-1.0,104.0,-78.0,127.0,127.0,127.0,-114.0,-84.0,117.0
124.0,125.0,127.0,127.0,126.0,125.0,103.0,125.0,-1.0,104.0,-78.0,127.0,127.0,127.0,-114.0,-84.0,117.0
124.0,125.0,127.0,127.0,126.0,125.0,103.0,125.0,-1.0,104.0,-78.0,127.0,127.0,127.0,-114.0,-84.0,117.0
124.0,125.0,127.0,127.0,126.0,125.0,103.0,125.0,-1.0,104.0,-78.0,127.0,127.0,127.0,-114.0,-84.0,117.0
124.0,125.0,127.0,127.0,126.0,125.0,102.0,125.0,-1.0,104.0,-78.0,127.0,127.0,127.0,-114.0,-84.0,117.0
124.0,125.0,127.0,127.0,126.0,125.0,102.0,125.0,-1.0,104.0,-78.0,127.0,127.0,127.0,-114.0,-84.0,117.0
124.0,125.0,127.0,127.0,126.0,125.0,102.0,125.0,-1.0,104.0,-78.0,127.0,127.0,127.0,-114.0,-84.0,117.0
124.0,126.0,127.0,127.0,127.0,127.0,95.0,124.0,-1.0,104.0,-78.0,127.0,127.0,127.0,-114.0,-84.0,117.0
124.0,126.0,127.0,127.0,127.0,127.0,94.0,124.0,-1.0,104.0,-78.0,127.0,127.0,127.0,-114.0,-84.0,117.0
124.0,126.0,127.0,127.0,127.0,126.0,94.0,124.0,-1.0,104.0,-78.0,127.0,127.0,127.0,-114.0,-84.0,117.0
124.0,126.0,127.0,127.0,126.0,126.0,94.0,124.0,-1.0,104.0,-78.0,127.0,127.0,127.0,-114.0,-84.0,117.0
124.0,126.0,127.0,127.0,126.0,126.0,94.0,124.0,-1.0,104.0,-78.0,127.0,127.0,127.0,-114.0,-84.0,117.0
124.0,126.0,127.0,127.0,126.0,126.0,93.0,124.0,-1.0,104.0,-78.0,127.0,127.0,127.0,-114.0,-84.0,117.0
124.0,126.0,127.0,127.0,126.0,126.0,93.0,124.0,-1.0,104.0,-78.0,127.0,127.0,127.0,-114.0,-84.0,117.0
124.0,126.0,127.0,127.0,126.0,125.0,93.0,124.0,-1.0,104.0,-78.0,127.0,127.0,127.0,-114.0,-84.0,117.0
124.0,126.0,127.0,127.0,126.0,125.0,93.0,124.0,-1.0,104.0,-78.0,127.0,127.0,127.0,-114.0,-84.0,117.0
124.0,126.0,127.0,126.0,126.0,125.0,92.0,124.0,-1.0,104.0,-78.0,127.0,127.0,127.0,-114.0,-84.0,117.0
125.0,127.0,127.0,127.0,127.0,127.0,71.0,124.0,-1.0,104.0,-78.0,127.0,127.0,127.0,-114.0,-84.0,117.0
125.0,127.0,127.0,127.0,127.0,127.0,71.0,123.0,-1.0,104.0,-78.0,127.0,127.0,127.0,-114.0,-84.0,117.0
125.0,127.0,127.0,127.0,127.0,127.0,71.0,123.0,-1.0,104.0,-78.0,127.0,127.0,127.0,-114.0,-84.0,117.0
125.0,126.0,127.0,127.0,127.0,127.0,70.0,123.0,-1.0,104.0,-78.0,127.0,127.0,127.0,-114.0,-84.0,117.0
125.0,126.0,127.0,127.0,127.0,126.0,70.0,123.0,-1.0,104.0,-78.0,127.0,127.0,127.0,-114.0,-84.0,117.0
125.0,126.0,127.0,127.0,127.0,126.0,70.0,123.0,-1.0,104.0,-78.0,127.0,127.0,127.0,-114.0,-84.0,117.0
125.0,126.0,127.0,127.0,127.0,126.0,70.0,123.0,-1.0,104.0,-78.0,127.0,127.0,127.0,-114.0,-84.0,117.0
125.0,126.0,127.0,127.0,127.0,126.0,70.0,123.0,-1.0,104.0,-78.0,127.0,127.0,127.0,-114.0,-84.0,117.0
125.0,126.0,127.0,127.0,127.0,126.0,70.0,123.0,-1.0,104.0,-78.0,127.0,127.0,127.0,-114.0,-84.0,117.0
125.0,127.0,127.0,127.0,126.0,127.0,71.0,124.0,-1.0,104.0,-78.0,127.0,127.0,127.0,-114.0,-84.0,117.0
125.0,126.0,127.0,127.0,126.0,126.0,84.0,124.0,-1.0,103.0,-78.0,127.0,127.0,127.0,-114.0,-84.0,117.0
125.0,127.0,127.0,127.0,126.0,126.0,85.0,124.0,-1.0,103.0,-78.0,127.0,127.0,127.0,-114.0,-84.0,117.0
125.0,127.0,127.0,127.0,126.0,126.0,85.0,124.0,-1.0,103.0,-78.0,127.0,127.0,127.0,-114.0,-84.0,117.0
125.0,127.0,127.0,127.0,126.0,126.0,85.0,124.0,-1.0,103.0,-78.0,127.0,127.0,127.0,-114.0,-84.0,117.0
125.0,127.0,127.0,127.0,126.0,126.0,86.0,124.0,-1.0,103.0,-78.0,127.0,127.0,127.0,-114.0,-84.0,117.0
125.0,127.0,127.0,127.0,126.0,126.0,86.0,124.0,-1.0,103.0,-78.0,127.0,127.0,127.0,-114.0,-84.0,117.0
125.0,127.0,127.0,127.0,126.0,125.0,87.0,124.0,-1.0,103.0,-78.0,127.0,127.0,127.0,-114.0,-84.0,117.0
125.0,126.0,127.0,127.0,126.0,125.0,87.0,124.0,-1.0,103.0,-78.0,127.0,127.0,127.0,-114.0,-84.0,117.0
125.0,127.0,127.0,127.0,126.0,127.0,83.0,124.0,-1.0,103.0,-78.0,127.0,127.0,127.0,-114.0,-84.0,117.0
125.0,126.0,127.0,127.0,126.0,127.0,83.0,124.0,-1.0,103.0,-78.0,127.0,127.0,127.0,-114.0,-84.0,117.0
126.0,127.0,127.0,127.0,126.0,126.0,92.0,124.0,-1.0,103.0,-78.0,127.0,127.0,127.0,-114.0,-84.0,117.0
126.0,127.0,127.0,127.0,126.0,126.0,92.0,124.0,-1.0,103.0,-78.0,127.0,127.0,127.0,-114.0,-84.0,117.0
126.0,127.0,127.0,127.0,126.0,126.0,92.0,124.0,-1.0,103.0,-78.0,127.0,127.0,127.0,-114.0,-84.0,117.0
126.0,127.0,127.0,127.0,126.0,126.0,92.0,124.0,-1.0,103.0,-78.0,127.0,127.0,127.0,-114.0,-84.0,117.0
126.0,127.0,127.0,127.0,126.0,125.0,92.0,124.0,-1.0,103.0,-78.0,127.0,127.0,127.0,-114.0,-84.0,117.0
126.0,127.0,127.0,126.0,126.0,125.0,92.0,124.0,-1.0,103.0,-78.0,127.0,127.0,127.0,-114.0,-84.0,117.0
126.0,127.0,127.0,127.0,126.0,126.0,92.0,124.0,-1.0,103.0,-78.0,127.0,127.0,127.0,-114.0,-84.0,117.0
126.0,127.0,127.0,127.0,126.0,126.0,92.0,124.0,-1.0,103.0,-78.0,127.0,127.0,127.0,-114.0,-84.0,117.0
126.0,127.0,127.0,127.0,126.0,126.0,92.0,124.0,-1.0,103.0,-78.0,127.0,127.0,127.0,-114.0,-84.0,117.0
126.0,127.0,127.0,127.0,126.0,126.0,92.0,124.0,-1.0,103.0,-78.0,127.0,127.0,127.0,-114.0,-84.0,117.0
123.0,127.0,127.0,126.0,126.0,126.0,93.0,125.0,-1.0,103.0,-79.0,127.0,127.0,127.0,-114.0,-84.0,117.0
123.0,127.0,127.0,126.0,126.0,126.0,93.0,125.0,-1.0,103.0,-79.0,127.0,127.0,127.0,-114.0,-84.0,117.0
123.0,127.0,127.0,126.0,126.0,126.0,93.0,125.0,-1.0,103.0,-79.0,127.0,127.0,127.0,-114.0,-84.0,117.0
123.0,127.0,127.0,126.0,126.0,126.0,93.0,125.0,-1.0,103.0,-79.0,127.0,127.0,127.0,-114.0,-84.0,117.0
123.0,127.0,127.0,126.0,126.0,125.0,93.0,125.0,-1.0,103.0,-79.0,127.0,127.0,127.0,-114.0,-84.0,117.0
123.0,127.0,127.0,126.0,126.0,127.0,93.0,125.0,-1.0,103.0,-79.0,127.0,127.0,127.0,-114.0,-84.0,117.0
123.0,127.0,127.0,126.0,126.0,127.0,93.0,125.0,-1.0,103.0,-79.0,127.0,127.0,127.0,-114.0,-84.0,117.0
123.0,127.0,127.0,126.0,127.0,127.0,93.0,125.0,-1.0,103.0,-79.0,127.0,127.0,127.0,-114.0,-84.0,117.0
123.0,127.0,127.0,126.0,127.0,127.0,93.0,125.0,-1.0,103.0,-79.0,127.0,127.0,127.0,-114.0,-84.0,117.0
123.0,127.0,127.0,126.0,127.0,127.0,93.0,125.0,-1.0,103.0,-79.0,127.0,127.0,127.0,-114.0,-84.0,117.0
125.0,127.0,127.0,126.0,127.0,126.0,102.0,125.0,-1.0,103.0,-79.0,127.0,127.0,127.0,-114.0,-84.0,117.0
125.0,126.0,127.0,126.0,127.0,126.0,102.0,125.0,-1.0,103.0,-79.0,127.0,127.0,127.0,-114.0,-84.0,117.0
125.0,126.0,127.0,126.0,127.0,125.0,103.0,125.0,-1.0,103.0,-79.0,127.0,127.0,127.0,-114.0,-84.0,117.0
125.0,127.0,127.0,126.0,126.0,126.0,103.0,125.0,-1.0,103.0,-79.0,127.0,127.0,127.0,-114.0,-84.0,117.0
124.0,126.0,127.0,126.0,127.0,125.0,100.0,125.0,-1.0,103.0,-79.0,127.0,127.0,127.0,-114.0,-84.0,117.0
124.0,126.0,127.0,126.0,127.0,125.0,101.0,125.0,-1.0,103.0,-79.0,127.0,127.0,127.0,-114.0,-84.0,117.0
124.0,126.0,127.0,126.0,127.0,125.0,101.0,125.0,-1.0,103.0,-79.0,127.0,127.0,127.0,-114.0,-84.0,117.0
124.0,126.0,127.0,126.0,126.0,126.0,101.0,125.0,-1.0,103.0,-79.0,127.0,127.0,127.0,-114.0,-84.0,117.0
125.0,126.0,127.0,126.0,126.0,126.0,101.0,125.0,-1.0,103.0,-79.0,127.0,127.0,127.0,-114.0,-84.0,117.0
125.0,127.0,127.0,126.0,127.0,126.0,102.0,125.0,-1.0,103.0,-79.0,127.0,127.0,127.0,-114.0,-84.0,117.0
125.0,127.0,127.0,126.0,127.0,126.0,110.0,125.0,-1.0,103.0,-79.0,127.0,127.0,127.0,-114.0,-84.0,117.0
125.0,127.0,127.0,126.0,127.0,126.0,110.0,125.0,-1.0,103.0,-79.0,127.0,127.0,127.0,-114.0,-84.0,117.0
125.0,127.0,127.0,126.0,127.0,126.0,110.0,125.0,-1.0,103.0,-79.0,127.0,127.0,127.0,-114.0,-84.0,117.0
125.0,127.0,127.0,126.0,127.0,127.0,109.0,125.0,-1.0,103.0,-79.0,127.0,127.0,127.0,-114.0,-84.0,117.0
125.0,126.0,127.0,126.0,127.0,127.0,109.0,126.0,-1.0,103.0,-79.0,127.0,127.0,127.0,-114.0,-84.0,117.0
125.0,127.0,127.0,126.0,127.0,127.0,109.0,126.0,-1.0,103.0,-79.0,127.0,127.0,127.0,-114.0,-84.0,117.0
125.0,127.0,127.0,126.0,127.0,127.0,109.0,125.0,-1.0,103.0,-79.0,127.0,127.0,127.0,-114.0,-84.0,117.0
125.0,127.0,127.0,126.0,127.0,127.0,109.0,125.0,-1.0,103.0,-79.0,127.0,127.0,127.0,-114.0,-84.0,117.0
125.0,127.0,127.0,126.0,127.0,127.0,109.0,125.0,-1.0,103.0,-79.0,127.0,127.0,127.0,-114.0,-84.0,117.0
125.0,127.0,127.0,126.0,127.0,126.0,110.0,125.0,-1.0,103.0,-79.0,127.0,127.0,127.0,-114.0,-84.0,117.0
125.0,127.0,127.0,126.0,127.0,126.0,111.0,125.0,-1.0,103.0,-79.0,127.0,127.0,127.0,-114.0,-84.0,117.0
125.0,127.0,127.0,126.0,127.0,126.0,112.0,125.0,-1.0,103.0,-79.0,127.0,127.0,127.0,-114.0,-84.0,117.0
125.0,127.0,127.0,127.0,127.0,127.0,111.0,126.0,-1.0,103.0,-79.0,127.0,127.0,127.0,-114.0,-84.0,117.0
125.0,127.0,127.0,127.0,127.0,127.0,111.0,126.0,-1.0,103.0,-79.0,127.0,127.0,127.0,-114.0,-84.0,117.0
125.0,127.0,127.0,127.0,127.0,127.0,111.0,126.0,-1.0,103.0,-79.0,127.0,127.0,127.0,-114.0,-84.0,117.0
125.0,127.0,127.0,127.0,127.0,127.0,111.0,126.0,-1.0,103.0,-79.0,127.0,127.0,127.0,-114.0,-84.0,117.0
125.0,127.0,127.0,127.0,127.0,127.0,111.0,126.0,-1.0,103.0,-79.0,127.0,127.0,127.0,-114.0,-84.0,117.0
125.0,127.0,127.0,127.0,127.0,127.0,111.0,126.0,-1.0,103.0,-79.0,127.0,127.0,127.0,-114.0,-84.0,117.0
125.0,127.0,127.0,127.0,127.0,126.0,112.0,125.0,-1.0,103.0,-79.0,127.0,127.0,127.0,-114.0,-84.0,117.0
125.0,127.0,127.0,126.0,127.0,126.0,112.0,125.0,-1.0,103.0,-79.0,127.0,127.0,127.0,-114.0,-84.0,117.0
125.0,127.0,127.0,126.0,126.0,126.0,114.0,126.0,-1.0,104.0,-79.0,127.0,127.0,127.0,-114.0,-84.0,117.0
125.0,127.0,127.0,126.0,126.0,127.0,113.0,127.0,-1.0,104.0,-79.0,127.0,127.0,127.0,-114.0,-84.0,117.0
125.0,127.0,127.0,127.0,126.0,127.0,113.0,127.0,-1.0,104.0,-79.0,127.0,127.0,127.0,-114.0,-84.0,117.0
125.0,127.0,127.0,126.0,126.0,127.0,113.0,127.0,-1.0,104.0,-79.0,127.0,127.0,127.0,-114.0,-84.0,117.0
125.0,127.0,127.0,126.0,126.0,127.0,113.0,126.0,-1.0,104.0,-79.0,127.0,127.0,127.0,-114.0,-84.0,117.0
125.0,127.0,127.0,126.0,126.0,126.0,113.0,126.0,-1.0,104.0,-79.0,127.0,127.0,127.0,-114.0,-84.0,117.0
125.0,127.0,127.0,126.0,126.0,126.0,113.0,126.0,-1.0,104.0,-79.0,127.0,127.0,127.0,-114.0,-84.0,117.0
125.0,127.0,127.0,126.0,126.0,126.0,114.0,126.0,-1.0,104.0,-79.0,127.0,127.0,127.0,-114.0,-84.0,117.0
125.0,127.0,127.0,126.0,126.0,126.0,114.0,126.0,-1.0,104.0,-79.0,127.0,127.0,127.0,-114.0,-84.0,117.0
125.0,127.0,127.0,126.0,126.0,126.0,114.0,126.0,-1.0,104.0,-79.0,127.0,127.0,127.0,-114.0,-84.0,117.0
126.0,127.0,127.0,127.0,126.0,128.0,119.0,126.0,-1.0,104.0,-79.0,127.0,127.0,127.0,-114.0,-84.0,117.0
126.0,127.0,127.0,126.0,126.0,127.0,119.0,126.0,-1.0,104.0,-79.0,127.0,127.0,127.0,-114.0,-84.0,117.0
126.0,127.0,127.0,126.0,126.0,128.0,120.0,126.0,-1.0,104.0,-79.0,127.0,127.0,127.0,-114.0,-84.0,117.0
126.0,127.0,127.0,126.0,127.0,127.0,120.0,126.0,-1.0,104.0,-79.0,127.0,127.0,127.0,-114.0,-84.0,117.0
126.0,127.0,127.0,126.0,127.0,127.0,120.0,126.0,-1.0,104.0,-79.0,127.0,127.0,127.0,-114.0,-84.0,117.0
126.0,127.0,127.0,126.0,127.0,127.0,120.0,126.0,-1.0,104.0,-79.0,127.0,127.0,127.0,-114.0,-84.0,117.0
126.0,127.0,127.0,126.0,127.0,127.0,120.0,126.0,-1.0,104.0,-79.0,127.0,127.0,127.0,-114.0,-84.0,117.0
126.0,127.0,127.0,126.0,127.0,127.0,121.0,126.0,-1.0,104.0,-79.0,127.0,127.0,127.0,-114.0,-84.0,117.0
126.0,127.0,127.0,126.0,127.0,127.0,121.0,126.0,-1.0,104.0,-79.0,127.0,127.0,127.0,-114.0,-84.0,117.0
126.0,127.0,127.0,126.0,127.0,127.0,121.0,126.0,-1.0,104.0,-79.0,127.0,127.0,127.0,-114.0,-84.0,117.0
126.0,127.0,127.0,127.0,126.0,129.0,124.0,126.0,-1.0,104.0,-79.0,127.0,127.0,127.0,-114.0,-84.0,117.0
126.0,127.0,127.0,127.0,126.0,128.0,124.0,126.0,-1.0,104.0,-79.0,127.0,127.0,127.0,-114.0,-84.0,117.0
126.0,127.0,127.0,127.0,126.0,128.0,125.0,126.0,-1.0,104.0,-79.0,127.0,127.0,127.0,-114.0,-84.0,117.0
126.0,127.0,127.0,127.0,127.0,128.0,125.0,126.0,-1.0,104.0,-79.0,127.0,127.0,127.0,-114.0,-84.0,117.0
126.0,127.0,127.0,127.0,127.0,128.0,125.0,126.0,-1.0,104.0,-79.0,127.0,127.0,127.0,-114.0,-84.0,117.0
126.0,127.0,127.0,127.0,127.0,127.0,125.0,126.0,-1.0,104.0,-79.0,127.0,127.0,127.0,-114.0,-84.0,117.0
126.0,127.0,127.0,127.0,127.0,127.0,125.0,126.0,-1.0,104.0,-79.0,127.0,127.0,127.0,-114.0,-84.0,117.0
126.0,127.0,127.0,126.0,127.0,127.0,125.0,126.0,-1.0,104.0,-79.0,127.0,127.0,127.0,-114.0,-84.0,117.0
126.0,127.0,127.0,127.0,127.0,127.0,125.0,126.0,-1.0,104.0,-79.0,127.0,127.0,127.0,-114.0,-84.0,117.0
126.0,127.0,127.0,126.0,126.0,128.0,124.0,126.0,-1.0,104.0,-79.0,127.0,127.0,127.0,-114.0,-84.0,117.0
126.0,127.0,127.0,126.0,127.0,127.0,125.0,127.0,-1.0,104.0,-79.0,127.0,127.0,127.0,-114.0,-84.0,117.0
126.0,127.0,127.0,126.0,127.0,127.0,125.0,127.0,-1.0,104.0,-79.0,127.0,127.0,127.0,-114.0,-84.0,117.0
126.0,127.0,127.0,126.0,126.0,127.0,125.0,127.0,-1.0,104.0,-79.0,127.0,127.0,127.0,-114.0,-84.0,117.0
126.0,127.0,127.0,126.0,126.0,127.0,125.0,127.0,-1.0,104.0,-79.0,127.0,127.0,127.0,-114.0,-84.0,117.0
126.0,127.0,127.0,126.0,126.0,127.0,125.0,127.0,-1.0,104.0,-79.0,127.0,127.0,127.0,-114.0,-84.0,117.0
126.0,127.0,127.0,126.0,126.0,127.0,125.0,127.0,-1.0,104.0,-79.0,127.0,127.0,127.0,-114.0,-84.0,117.0
126.0,127.0,127.0,126.0,126.0,127.0,125.0,127.0,-1.0,104.0,-79.0,127.0,127.0,127.0,-114.0,-84.0,117.0
126.0,127.0,127.0,126.0,126.0,127.0,125.0,127.0,-1.0,104.0,-79.0,127.0,127.0,127.0,-114.0,-84.0,117.0
126.0,127.0,127.0,126.0,127.0,127.0,125.0,127.0,-1.0,104.0,-79.0,127.0,127.0,127.0,-114.0,-84.0,117.0
126.0,127.0,127.0,126.0,127.0,127.0,125.0,127.0,-1.0,104.0,-79.0,127.0,127.0,127.0,-114.0,-84.0,117.0
126.0,126.0,127.0,126.0,127.0,127.0,128.0,127.0,-1.0,104.0,-79.0,127.0,127.0,127.0,-114.0,-84.0,117.0
126.0,127.0,127.0,126.0,126.0,127.0,127.0,127.0,-1.0,104.0,-79.0,127.0,127.0,127.0,-114.0,-84.0,117.0
126.0,127.0,127.0,126.0,126.0,127.0,128.0,127.0,-1.0,104.0,-79.0,127.0,127.0,127.0,-114.0,-84.0,117.0
126.0,127.0,127.0,126.0,126.0,127.0,128.0,127.0,-1.0,104.0,-79.0,127.0,127.0,127.0,-114.0,-84.0,117.0
126.0,127.0,127.0,126.0,126.0,127.0,128.0,127.0,-1.0,104.0,-79.0,127.0,127.0,127.0,-114.0,-84.0,117.0
126.0,127.0,127.0,126.0,127.0,127.0,128.0,127.0,-1.0,104.0,-79.0,127.0,127.0,127.0,-114.0,-84.0,117.0
126.0,127.0,127.0,126.0,126.0,127.0,128.0,127.0,-1.0,104.0,-79.0,127.0,127.0,127.0,-114.0,-84.0,117.0
126.0,126.0,127.0,126.0,127.0,127.0,127.0,127.0,-1.0,104.0,-79.0,127.0,127.0,127.0,-114.0,-84.0,117.0
126.0,127.0,127.0,126.0,127.0,127.0,127.0,127.0,-1.0,104.0,-79.0,127.0,127.0,127.0,-114.0,-84.0,117.0
126.0,127.0,127.0,126.0,127.0,127.0,127.0,127.0,-1.0,104.0,-79.0,127.0,127.0,127.0,-114.0,-84.0,117.0
126.0,127.0,127.0,126.0,126.0,127.0,129.0,127.0,-1.0,104.0,-79.0,127.0,127.0,127.0,-114.0,-84.0,117.0
126.0,127.0,127.0,126.0,126.0,127.0,129.0,127.0,-1.0,104.0,-79.0,127.0,127.0,127.0,-114.0,-84.0,117.0
126.0,127.0,127.0,126.0,126.0,126.0,129.0,127.0,-1.0,104.0,-79.0,127.0,127.0,127.0,-114.0,-84.0,117.0
126.0,127.0,127.0,126.0,126.0,126.0,129.0,126.0,-1.0,104.0,-79.0,127.0,127.0,127.0,-114.0,-84.0,117.0
126.0,127.0,127.0,126.0,126.0,126.0,129.0,126.0,-1.0,104.0,-79.0,127.0,127.0,127.0,-114.0,-84.0,117.0
126.0,127.0,127.0,126.0,126.0,126.0,129.0,126.0,-1.0,104.0,-79.0,127.0,127.0,127.0,-114.0,-84.0,117.0
126.0,127.0,127.0,126.0,126.0,128.0,129.0,127.0,-1.0,104.0,-79.0,127.0,127.0,127.0,-114.0,-84.0,117.0
126.0,127.0,127.0,126.0,126.0,128.0,129.0,127.0,-1.0,104.0,-79.0,127.0,127.0,127.0,-114.0,-84.0,117.0
126.0,127.0,127.0,126.0,126.0,128.0,129.0,127.0,-1.0,104.0,-79.0,127.0,127.0,127.0,-114.0,-84.0,117.0
126.0,127.0,127.0,126.0,126.0,127.0,129.0,127.0,-1.0,104.0,-79.0,127.0,127.0,127.0,-114.0,-84.0,117.0
126.0,126.0,127.0,126.0,127.0,126.0,126.0,126.0,-1.0,104.0,-79.0,127.0,127.0,127.0,-114.0,-84.0,117.0
126.0,127.0,127.0,126.0,127.0,126.0,126.0,126.0,-1.0,104.0,-79.0,127.0,127.0,127.0,-114.0,-84.0,117.0
126.0,127.0,127.0,126.0,126.0,126.0,126.0,126.0,-1.0,104.0,-79.0,127.0,127.0,127.0,-114.0,-84.0,117.0
126.0,127.0,127.0,126.0,126.0,126.0,126.0,126.0,-1.0,104.0,-79.0,127.0,127.0,127.0,-114.0,-84.0,117.0
126.0,127.0,127.0,126.0,126.0,126.0,126.0,126.0,-1.0,104.0,-79.0,127.0,127.0,127.0,-114.0,-84.0,117.0
126.0,126.0,127.0,126.0,127.0,126.0,126.0,126.0,-1.0,104.0,-79.0,127.0,127.0,127.0,-114.0,-84.0,117.0
126.0,126.0,127.0,126.0,127.0,126.0,126.0,126.0,-1.0,104.0,-79.0,127.0,127.0,127.0,-114.0,-84.0,117.0
126.0,126.0,127.0,126.0,127.0,126.0,126.0,126.0,-1.0,104.0,-79.0,127.0,127.0,127.0,-114.0,-84.0,117.0
126.0,126.0,127.0,126.0,127.0,126.0,126.0,126.0,-1.0,104.0,-79.0,127.0,127.0,127.0,-114.0,-84.0,117.0
126.0,126.0,127.0,126.0,127.0,126.0,126.0,126.0,-1.0,104.0,-79.0,127.0,127.0,127.0,-114.0,-84.0,117.0
126.0,127.0,127.0,126.0,126.0,127.0,123.0,127.0,-1.0,105.0,-79.0,127.0,127.0,127.0,-114.0,-84.0,117.0
126.0,127.0,127.0,126.0,126.0,126.0,123.0,127.0,-1.0,105.0,-79.0,127.0,127.0,127.0,-114.0,-84.0,117.0
126.0,127.0,127.0,126.0,126.0,127.0,122.0,127.0,-1.0,105.0,-79.0,127.0,127.0,127.0,-114.0,-84.0,117.0
126.0,127.0,127.0,126.0,126.0,127.0,122.0,127.0,-1.0,105.0,-79.0,127.0,127.0,127.0,-114.0,-84.0,117.0
126.0,126.0,127.0,126.0,127.0,126.0,123.0,127.0,-1.0,105.0,-79.0,127.0,127.0,127.0,-114.0,-84.0,117.0
126.0,126.0,127.0,126.0,126.0,127.0,123.0,127.0,-1.0,105.0,-79.0,127.0,127.0,127.0,-114.0,-84.0,117.0
126.0,127.0,127.0,126.0,126.0,127.0,123.0,127.0,-1.0,105.0,-79.0,127.0,127.0,127.0,-114.0,-84.0,117.0
126.0,127.0,127.0,126.0,126.0,127.0,123.0,127.0,-1.0,105.0,-79.0,127.0,127.0,127.0,-114.0,-84.0,117.0
126.0,127.0,127.0,126.0,126.0,127.0,123.0,127.0,-1.0,105.0,-79.0,127.0,127.0,127.0,-114.0,-84.0,117.0
126.0,127.0,127.0,126.0,126.0,127.0,123.0,127.0,-1.0,105.0,-79.0,127.0,127.0,127.0,-114.0,-84.0,117.0
126.0,126.0,127.0,126.0,126.0,127.0,123.0,127.0,-1.0,105.0,-79.0,127.0,127.0,127.0,-114.0,-84.0,117.0
126.0,127.0,127.0,126.0,126.0,127.0,123.0,127.0,-1.0,105.0,-79.0,127.0,127.0,127.0,-114.0,-84.0,117.0
126.0,127.0,127.0,126.0,126.0,127.0,123.0,127.0,-1.0,105.0,-79.0,127.0,127.0,127.0,-114.0,-84.0,117.0
126.0,126.0,127.0,126.0,127.0,126.0,123.0,127.0,-1.0,105.0,-79.0,127.0,127.0,127.0,-114.0,-84.0,117.0
126.0,126.0,127.0,126.0,127.0,127.0,123.0,127.0,-1.0,105.0,-79.0,127.0,127.0,127.0,-114.0,-84.0,117.0
126.0,126.0,127.0,126.0,126.0,127.0,123.0,127.0,-1.0,105.0,-79.0,127.0,127.0,127.0,-114.0,-84.0,117.0
126.0,126.0,127.0,126.0,126.0,127.0,123.0,127.0,-1.0,105.0,-79.0,127.0,127.0,127.0,-114.0,-84.0,117.0
126.0,126.0,127.0,126.0,126.0,127.0,123.0,127.0,-1.0,105.0,-79.0,127.0,127.0,127.0,-114.0,-84.0,117.0
126.0,126.0,127.0,126.0,126.0,127.0,123.0,127.0,-1.0,105.0,-79.0,127.0,127.0,127.0,-114.0,-84.0,117.0
126.0,126.0,127.0,126.0,126.0,127.0,123.0,127.0,-1.0,105.0,-79.0,127.0,127.0,127.0,-114.0,-84.0,117.0
126.0,127.0,127.0,126.0,126.0,127.0,126.0,127.0,-1.0,105.0,-79.0,127.0,127.0,127.0,-114.0,-84.0,117.0
126.0,127.0,127.0,126.0,126.0,127.0,126.0,128.0,-1.0,105.0,-79.0,127.0,127.0,127.0,-114.0,-84.0,117.0
126.0,126.0,127.0,126.0,127.0,126.0,125.0,127.0,-1.0,105.0,-79.0,127.0,127.0,127.0,-114.0,-84.0,117.0
126.0,126.0,127.0,126.0,127.0,126.0,125.0,127.0,-1.0,105.0,-79.0,127.0,127.0,127.0,-114.0,-84.0,117.0
126.0,126.0,127.0,126.0,126.0,127.0,125.0,127.0,-1.0,105.0,-79.0,127.0,127.0,127.0,-114.0,-84.0,117.0
126.0,126.0,127.0,126.0,126.0,127.0,125.0,128.0,-1.0,105.0,-79.0,127.0,127.0,127.0,-114.0,-84.0,117.0
126.0,126.0,127.0,126.0,126.0,127.0,126.0,127.0,-1.0,105.0,-79.0,127.0,127.0,127.0,-114.0,-84.0,117.0
126.0,126.0,127.0,126.0,126.0,127.0,126.0,127.0,-1.0,105.0,-79.0,127.0,127.0,127.0,-114.0,-84.0,117.0
126.0,126.0,127.0,126.0,126.0,127.0,126.0,127.0,-1.0,105.0,-79.0,127.0,127.0,127.0,-114.0,-84.0,117.0
126.0,127.0,127.0,126.0,126.0,127.0,126.0,127.0,-1.0,105.0,-79.0,127.0,127.0,127.0,-114.0,-84.0,117.0
126.0,127.0,127.0,126.0,126.0,127.0,128.0,128.0,-1.0,105.0,-79.0,127.0,127.0,127.0,-114.0,-84.0,117.0
126.0,126.0,127.0,126.0,127.0,126.0,128.0,128.0,-1.0,105.0,-79.0,127.0,127.0,127.0,-114.0,-84.0,117.0
126.0,126.0,127.0,126.0,126.0,126.0,128.0,128.0,-1.0,105.0,-79.0,127.0,127.0,127.0,-114.0,-84.0,117.0
126.0,126.0,127.0,126.0,126.0,127.0,128.0,128.0,-1.0,105.0,-79.0,127.0,127.0,127.0,-114.0,-84.0,117.0
126.0,126.0,127.0,126.0,126.0,127.0,128.0,128.0,-1.0,105.0,-79.0,127.0,127.0,127.0,-114.0,-84.0,117.0
126.0,126.0,127.0,126.0,126.0,127.0,128.0,128.0,-1.0,105.0,-79.0,127.0,127.0,127.0,-114.0,-84.0,117.0
126.0,126.0,127.0,126.0,126.0,127.0,128.0,128.0,-1.0,105.0,-79.0,127.0,127.0,127.0,-114.0,-84.0,117.0
126.0,126.0,127.0,126.0,126.0,127.0,128.0,128.0,-1.0,105.0,-79.0,127.0,127.0,127.0,-114.0,-84.0,117.0
126.0,126.0,127.0,126.0,126.0,127.0,128.0,128.0,-1.0,105.0,-79.0,127.0,127.0,127.0,-114.0,-84.0,117.0
126.0,127.0,127.0,126.0,126.0,127.0,128.0,128.0,-1.0,105.0,-79.0,127.0,127.0,127.0,-114.0,-84.0,117.0
126.0,126.0,127.0,127.0,127.0,127.0,128.0,128.0,-1.0,105.0,-79.0,127.0,127.0,127.0,-114.0,-84.0,117.0
126.0,126.0,127.0,127.0,127.0,127.0,128.0,128.0,-1.0,105.0,-79.0,127.0,127.0,127.0,-114.0,-84.0,117.0
126.0,127.0,127.0,127.0,126.0,127.0,128.0,128.0,-1.0,105.0,-79.0,127.0,127.0,127.0,-114.0,-84.0,117.0
126.0,127.0,127.0,127.0,126.0,128.0,128.0,128.0,-1.0,105.0,-79.0,127.0,127.0,127.0,-114.0,-84.0,117.0
126.0,127.0,127.0,127.0,127.0,127.0,128.0,128.0,-1.0,105.0,-79.0,127.0,127.0,127.0,-114.0,-84.0,117.0
126.0,127.0,127.0,127.0,127.0,127.0,128.0,128.0,-1.0,105.0,-79.0,127.0,127.0,127.0,-114.0,-84.0,117.0
126.0,127.0,127.0,127.0,127.0,127.0,128.0,128.0,-1.0,105.0,-79.0,127.0,127.0,127.0,-114.0,-84.0,117.0
127.0,127.0,127.0,127.0,127.0,127.0,128.0,127.0,-1.0,105.0,-79.0,127.0,127.0,127.0,-114.0,-84.0,117.0
127.0,127.0,127.0,127.0,126.0,127.0,128.0,128.0,-1.0,105.0,-79.0,127.0,127.0,127.0,-114.0,-84.0,117.0
127.0,127.0,127.0,127.0,126.0,127.0,128.0,128.0,-1.0,105.0,-79.0,127.0,127.0,127.0,-114.0,-84.0,117.0
127.0,127.0,127.0,127.0,127.0,127.0,128.0,127.0,-1.0,105.0,-79.0,127.0,127.0,127.0,-114.0,-84.0,117.0
127.0,127.0,127.0,127.0,127.0,128.0,128.0,127.0,-1.0,105.0,-79.0,127.0,127.0,127.0,-114.0,-84.0,117.0
127.0,127.0,127.0,127.0,126.0,128.0,128.0,127.0,-1.0,105.0,-79.0,127.0,127.0,127.0,-114.0,-84.0,117.0
127.0,127.0,127.0,127.0,127.0,128.0,128.0,127.0,-1.0,105.0,-79.0,127.0,127.0,127.0,-114.0,-84.0,117.0
127.0,127.0,127.0,127.0,127.0,128.0,128.0,127.0,-1.0,105.0,-79.0,127.0,127.0,127.0,-114.0,-84.0,117.0
127.0,127.0,127.0,127.0,126.0,127.0,128.0,127.0,-1.0,105.0,-79.0,127.0,127.0,127.0,-114.0,-84.0,117.0
127.0,127.0,127.0,127.0,127.0,127.0,128.0,127.0,-1.0,105.0,-79.0,127.0,127.0,127.0,-114.0,-84.0,117.0
127.0,127.0,127.0,127.0,126.0,128.0,128.0,127.0,-1.0,105.0,-79.0,127.0,127.0,127.0,-114.0,-84.0,117.0
127.0,127.0,126.0,127.0,126.0,128.0,128.0,127.0,-1.0,105.0,-79.0,127.0,127.0,127.0,-114.0,-84.0,117.0
127.0,127.0,127.0,127.0,127.0,127.0,128.0,127.0,-1.0,105.0,-79.0,127.0,127.0,127.0,-114.0,-84.0,117.0
126.0,127.0,127.0,127.0,127.0,126.0,130.0,127.0,-1.0,105.0,-79.0,127.0,127.0,127.0,-114.0,-84.0,117.0
126.0,127.0,127.0,127.0,127.0,126.0,130.0,127.0,-1.0,105.0,-79.0,127.0,127.0,127.0,-114.0,-84.0,117.0
126.0,127.0,127.0,127.0,127.0,126.0,130.0,127.0,-1.0,105.0,-79.0,127.0,127.0,127.0,-114.0,-84.0,117.0
126.0,127.0,127.0,127.0,127.0,126.0,130.0,127.0,-1.0,105.0,-79.0,127.0,127.0,127.0,-114.0,-84.0,117.0
126.0,127.0,127.0,127.0,127.0,126.0,130.0,127.0,-1.0,105.0,-79.0,127.0,127.0,127.0,-114.0,-84.0,117.0
126.0,127.0,127.0,127.0,127.0,126.0,130.0,127.0,-1.0,105.0,-79.0,127.0,127.0,127.0,-114.0,-84.0,117.0
126.0,127.0,127.0,127.0,127.0,126.0,130.0,127.0,-1.0,105.0,-79.0,127.0,127.0,127.0,-114.0,-84.0,117.0
126.0,127.0,127.0,127.0,127.0,126.0,130.0,127.0,-1.0,105.0,-79.0,127.0,127.0,127.0,-114.0,-84.0,117.0
126.0,127.0,127.0,127.0,127.0,126.0,130.0,127.0,-1.0,105.0,-79.0,127.0,127.0,127.0,-114.0,-84.0,117.0
126.0,127.0,127.0,127.0,127.0,126.0,130.0,127.0,-1.0,105.0,-79.0,127.0,127.0,127.0,-114.0,-84.0,117.0
126.0,127.0,127.0,127.0,126.0,126.0,130.0,128.0,-1.0,105.0,-79.0,127.0,127.0,127.0,-114.0,-84.0,117.0
126.0,127.0,127.0,127.0,126.0,126.0,130.0,128.0,-1.0,105.0,-79.0,127.0,127.0,127.0,-114.0,-84.0,117.0
126.0,127.0,127.0,127.0,126.0,127.0,130.0,128.0,-1.0,105.0,-79.0,127.0,127.0,127.0,-114.0,-84.0,117.0
126.0,127.0,127.0,127.0,126.0,127.0,130.0,128.0,-1.0,105.0,-79.0,127.0,127.0,127.0,-114.0,-84.0,117.0
126.0,127.0,127.0,127.0,126.0,127.0,130.0,128.0,-1.0,105.0,-79.0,127.0,127.0,127.0,-114.0,-84.0,117.0
126.0,127.0,127.0,127.0,126.0,127.0,130.0,128.0,-1.0,105.0,-79.0,127.0,127.0,127.0,-114.0,-84.0,117.0
126.0,127.0,127.0,127.0,126.0,127.0,130.0,128.0,-1.0,105.0,-79.0,127.0,127.0,127.0,-114.0,-84.0,117.0
126.0,127.0,127.0,127.0,126.0,127.0,130.0,128.0,-1.0,105.0,-79.0,127.0,127.0,127.0,-114.0,-84.0,117.0
126.0,127.0,127.0,127.0,126.0,127.0,130.0,128.0,-1.0,105.0,-79.0,127.0,127.0,127.0,-114.0,-84.0,117.0
126.0,127.0,127.0,127.0,126.0,127.0,130.0,128.0,-1.0,105.0,-79.0,127.0,127.0,127.0,-114.0,-84.0,117.0
126.0,127.0,127.0,127.0,127.0,127.0,131.0,127.0,-1.0,104.0,-79.0,127.0,127.0,127.0,-114.0,-84.0,117.0
126.0,127.0,127.0,127.0,126.0,127.0,131.0,127.0,-1.0,104.0,-79.0,127.0,127.0,127.0,-114.0,-84.0,117.0
126.0,127.0,127.0,127.0,126.0,128.0,130.0,128.0,-1.0,104.0,-79.0,127.0,127.0,127.0,-114.0,-84.0,117.0
126.0,127.0,127.0,127.0,126.0,128.0,131.0,128.0,-1.0,104.0,-79.0,127.0,127.0,127.0,-114.0,-84.0,117.0
126.0,127.0,127.0,127.0,127.0,128.0,131.0,128.0,-1.0,104.0,-79.0,127.0,127.0,127.0,-114.0,-84.0,117.0
126.0,127.0,127.0,127.0,126.0,127.0,131.0,128.0,-1.0,104.0,-79.0,127.0,127.0,127.0,-114.0,-84.0,117.0
126.0,127.0,127.0,127.0,126.0,127.0,131.0,128.0,-1.0,104.0,-79.0,127.0,127.0,127.0,-114.0,-84.0,117.0
126.0,127.0,127.0,127.0,126.0,127.0,131.0,128.0,-1.0,104.0,-79.0,127.0,127.0,127.0,-114.0,-84.0,117.0
126.0,127.0,127.0,127.0,126.0,127.0,131.0,128.0,-1.0,104.0,-79.0,127.0,127.0,127.0,-114.0,-84.0,117.0
126.0,127.0,127.0,127.0,127.0,127.0,131.0,128.0,-1.0,104.0,-79.0,127.0,127.0,127.0,-114.0,-84.0,117.0
126.0,127.0,127.0,126.0,126.0,127.0,130.0,127.0,-1.0,104.0,-79.0,127.0,127.0,127.0,-114.0,-84.0,117.0
126.0,127.0,127.0,126.0,126.0,128.0,130.0,128.0,-1.0,104.0,-79.0,127.0,127.0,127.0,-114.0,-84.0,117.0
126.0,127.0,127.0,126.0,126.0,128.0,130.0,128.0,-1.0,104.0,-79.0,127.0,127.0,127.0,-114.0,-84.0,117.0
126.0,127.0,127.0,126.0,126.0,128.0,130.0,128.0,-1.0,104.0,-79.0,127.0,127.0,127.0,-114.0,-84.0,117.0
125.0,127.0,128.0,126.0,127.0,127.0,131.0,128.0,-1.0,104.0,-79.0,127.0,127.0,127.0,-114.0,-84.0,117.0
126.0,127.0,127.0,127.0,126.0,127.0,131.0,128.0,-1.0,104.0,-79.0,127.0,127.0,127.0,-114.0,-84.0,117.0
126.0,127.0,127.0,127.0,126.0,127.0,130.0,128.0,-1.0,104.0,-79.0,127.0,127.0,127.0,-114.0,-84.0,117.0
126.0,127.0,128.0,127.0,127.0,127.0,130.0,128.0,-1.0,104.0,-79.0,127.0,127.0,127.0,-114.0,-84.0,117.0
126.0,127.0,128.0,126.0,126.0,127.0,130.0,128.0,-1.0,104.0,-79.0,127.0,127.0,127.0,-114.0,-84.0,117.0
126.0,127.0,128.0,126.0,126.0,127.0,130.0,128.0,-1.0,104.0,-79.0,127.0,127.0,127.0,-114.0,-84.0,117.0
126.0,128.0,128.0,127.0,126.0,128.0,131.0,128.0,-1.0,104.0,-79.0,127.0,127.0,127.0,-114.0,-84.0,117.0
126.0,128.0,128.0,127.0,126.0,128.0,131.0,128.0,-1.0,104.0,-79.0,127.0,127.0,127.0,-114.0,-84.0,117.0
126.0,128.0,128.0,127.0,126.0,128.0,131.0,128.0,-1.0,104.0,-79.0,127.0,127.0,127.0,-114.0,-84.0,117.0
126.0,127.0,128.0,127.0,127.0,128.0,131.0,128.0,-1.0,104.0,-79.0,127.0,127.0,127.0,-114.0,-84.0,117.0
126.0,127.0,128.0,127.0,127.0,128.0,131.0,128.0,-1.0,104.0,-79.0,127.0,127.0,127.0,-114.0,-84.0,117.0
126.0,127.0,128.0,127.0,127.0,128.0,131.0,128.0,-1.0,104.0,-79.0,127.0,127.0,127.0,-114.0,-84.0,117.0
126.0,127.0,128.0,127.0,127.0,128.0,131.0,128.0,-1.0,104.0,-79.0,127.0,127.0,127.0,-114.0,-84.0,117.0
126.0,127.0,128.0,127.0,127.0,128.0,131.0,128.0,-1.0,104.0,-79.0,127.0,127.0,127.0,-114.0,-84.0,117.0
126.0,127.0,128.0,127.0,127.0,128.0,131.0,128.0,-1.0,104.0,-79.0,127.0,127.0,127.0,-114.0,-84.0,117.0
126.0,127.0,128.0,127.0,127.0,128.0,131.0,128.0,-1.0,104.0,-79.0,127.0,127.0,127.0,-114.0,-84.0,117.0
125.0,127.0,128.0,127.0,126.0,128.0,130.0,128.0,-1.0,104.0,-79.0,127.0,127.0,127.0,-114.0,-84.0,117.0
126.0,127.0,127.0,127.0,126.0,128.0,130.0,128.0,-1.0,104.0,-79.0,127.0,127.0,127.0,-114.0,-84.0,117.0
125.0,127.0,128.0,126.0,127.0,128.0,130.0,127.0,-1.0,104.0,-79.0,127.0,127.0,127.0,-114.0,-84.0,117.0
125.0,127.0,128.0,127.0,126.0,128.0,130.0,128.0,-1.0,104.0,-79.0,127.0,127.0,127.0,-114.0,-84.0,117.0
125.0,127.0,128.0,127.0,126.0,129.0,130.0,128.0,-1.0,104.0,-79.0,127.0,127.0,127.0,-114.0,-84.0,117.0
125.0,127.0,128.0,127.0,126.0,128.0,130.0,128.0,-1.0,104.0,-79.0,127.0,127.0,127.0,-114.0,-84.0,117.0
125.0,127.0,128.0,127.0,127.0,128.0,130.0,128.0,-1.0,104.0,-79.0,127.0,127.0,127.0,-114.0,-84.0,117.0
125.0,127.0,128.0,126.0,126.0,128.0,130.0,128.0,-1.0,104.0,-79.0,127.0,127.0,127.0,-114.0,-84.0,117.0
125.0,127.0,128.0,127.0,126.0,128.0,130.0,128.0,-1.0,104.0,-79.0,127.0,127.0,127.0,-114.0,-84.0,117.0
125.0,127.0,128.0,127.0,126.0,128.0,130.0,128.0,-1.0,104.0,-79.0,127.0,127.0,127.0,-114.0,-84.0,117.0
126.0,127.0,128.0,126.0,126.0,128.0,130.0,128.0,-1.0,104.0,-79.0,127.0,127.0,127.0,-114.0,-84.0,117.0
125.0,127.0,128.0,126.0,127.0,127.0,130.0,128.0,-1.0,104.0,-79.0,127.0,127.0,127.0,-114.0,-84.0,117.0
125.0,127.0,128.0,126.0,126.0,128.0,130.0,128.0,-1.0,104.0,-79.0,127.0,127.0,127.0,-114.0,-84.0,117.0
126.0,127.0,128.0,127.0,127.0,128.0,130.0,128.0,-1.0,104.0,-79.0,127.0,127.0,127.0,-114.0,-84.0,117.0
126.0,127.0,128.0,126.0,127.0,127.0,130.0,128.0,-1.0,104.0,-79.0,127.0,127.0,127.0,-114.0,-84.0,117.0
126.0,127.0,128.0,126.0,127.0,127.0,130.0,128.0,-1.0,104.0,-79.0,127.0,127.0,127.0,-114.0,-84.0,117.0
126.0,127.0,128.0,126.0,127.0,127.0,130.0,128.0,-1.0,104.0,-79.0,127.0,127.0,127.0,-114.0,-84.0,117.0
126.0,127.0,128.0,126.0,127.0,127.0,130.0,128.0,-1.0,104.0,-79.0,127.0,127.0,127.0,-114.0,-84.0,117.0
126.0,127.0,128.0,126.0,126.0,128.0,130.0,128.0,-1.0,104.0,-79.0,127.0,127.0,127.0,-114.0,-84.0,117.0
126.0,127.0,128.0,126.0,126.0,128.0,130.0,128.0,-1.0,104.0,-79.0,127.0,127.0,127.0,-114.0,-84.0,117.0
126.0,127.0,128.0,126.0,127.0,127.0,129.0,128.0,-1.0,104.0,-79.0,127.0,127.0,127.0,-114.0,-84.0,117.0
126.0,127.0,127.0,127.0,126.0,128.0,129.0,128.0,-1.0,104.0,-79.0,127.0,127.0,127.0,-114.0,-84.0,117.0
126.0,127.0,128.0,127.0,126.0,128.0,129.0,128.0,-1.0,104.0,-79.0,127.0,127.0,127.0,-114.0,-84.0,117.0
126.0,127.0,128.0,127.0,127.0,128.0,129.0,128.0,-1.0,104.0,-79.0,127.0,127.0,127.0,-114.0,-84.0,117.0
126.0,127.0,128.0,127.0,127.0,128.0,129.0,128.0,-1.0,104.0,-79.0,127.0,127.0,127.0,-114.0,-84.0,117.0
126.0,127.0,128.0,127.0,127.0,127.0,129.0,128.0,-1.0,104.0,-79.0,127.0,127.0,127.0,-114.0,-84.0,117.0
126.0,127.0,128.0,127.0,127.0,127.0,129.0,128.0,-1.0,104.0,-79.0,127.0,127.0,127.0,-114.0,-84.0,117.0
126.0,127.0,127.0,126.0,126.0,128.0,129.0,128.0,-1.0,104.0,-79.0,127.0,127.0,127.0,-114.0,-84.0,117.0
126.0,127.0,127.0,127.0,127.0,128.0,129.0,128.0,-1.0,104.0,-79.0,127.0,127.0,127.0,-114.0,-84.0,117.0
126.0,127.0,127.0,127.0,127.0,128.0,129.0,128.0,-1.0,104.0,-79.0,127.0,127.0,127.0,-114.0,-84.0,117.0
125.0,127.0,128.0,127.0,127.0,127.0,129.0,127.0,-1.0,104.0,-79.0,127.0,127.0,127.0,-114.0,-84.0,117.0
125.0,127.0,128.0,126.0,127.0,127.0,129.0,127.0,-1.0,104.0,-79.0,127.0,127.0,127.0,-114.0,-84.0,117.0
125.0,127.0,128.0,126.0,127.0,127.0,129.0,127.0,-1.0,104.0,-79.0,127.0,127.0,127.0,-114.0,-84.0,117.0
125.0,127.0,128.0,126.0,127.0,127.0,129.0,127.0,-1.0,104.0,-79.0,127.0,127.0,127.0,-114.0,-84.0,117.0
125.0,127.0,128.0,126.0,127.0,127.0,129.0,127.0,-1.0,104.0,-79.0,127.0,127.0,127.0,-114.0,-84.0,117.0
125.0,127.0,127.0,126.0,127.0,127.0,130.0,127.0,-1.0,104.0,-79.0,127.0,127.0,127.0,-114.0,-84.0,117.0
125.0,127.0,127.0,126.0,127.0,127.0,130.0,127.0,-1.0,104.0,-79.0,127.0,127.0,127.0,-114.0,-84.0,117.0
125.0,127.0,127.0,126.0,127.0,126.0,130.0,127.0,-1.0,104.0,-79.0,127.0,127.0,127.0,-114.0,-84.0,117.0
125.0,127.0,127.0,126.0,126.0,127.0,130.0,127.0,-1.0,104.0,-79.0,127.0,127.0,127.0,-114.0,-84.0,117.0
125.0,127.0,128.0,127.0,127.0,127.0,129.0,127.0,-1.0,104.0,-79.0,127.0,127.0,127.0,-114.0,-84.0,117.0
126.0,127.0,128.0,126.0,126.0,127.0,129.0,127.0,-1.0,104.0,-79.0,127.0,127.0,127.0,-114.0,-84.0,117.0
126.0,127.0,128.0,126.0,126.0,127.0,129.0,127.0,-1.0,104.0,-79.0,127.0,127.0,127.0,-114.0,-84.0,117.0
126.0,127.0,127.0,126.0,126.0,127.0,129.0,127.0,-1.0,104.0,-79.0,127.0,127.0,127.0,-114.0,-84.0,117.0
126.0,127.0,127.0,126.0,126.0,128.0,129.0,128.0,-1.0,104.0,-79.0,127.0,127.0,127.0,-114.0,-84.0,117.0
126.0,127.0,127.0,126.0,126.0,128.0,129.0,128.0,-1.0,104.0,-79.0,127.0,127.0,127.0,-114.0,-84.0,117.0
126.0,127.0,127.0,126.0,126.0,127.0,128.0,127.0,-1.0,104.0,-79.0,127.0,127.0,127.0,-114.0,-84.0,117.0
126.0,127.0,127.0,126.0,126.0,127.0,128.0,127.0,-1.0,104.0,-79.0,127.0,127.0,127.0,-114.0,-84.0,117.0
126.0,127.0,127.0,126.0,126.0,127.0,128.0,127.0,-1.0,104.0,-79.0,127.0,127.0,127.0,-114.0,-84.0,117.0
126.0,127.0,128.0,127.0,126.0,127.0,129.0,127.0,-1.0,104.0,-79.0,127.0,127.0,127.0,-114.0,-84.0,117.0
126.0,127.0,128.0,126.0,126.0,127.0,129.0,127.0,-1.0,104.0,-79.0,127.0,127.0,127.0,-114.0,-84.0,117.0
126.0,127.0,127.0,126.0,126.0,128.0,128.0,128.0,-1.0,105.0,-79.0,127.0,127.0,127.0,-114.0,-84.0,117.0
126.0,127.0,127.0,126.0,126.0,128.0,128.0,128.0,-1.0,105.0,-79.0,127.0,127.0,127.0,-114.0,-84.0,117.0
126.0,127.0,127.0,126.0,126.0,127.0,128.0,128.0,-1.0,105.0,-79.0,127.0,127.0,127.0,-114.0,-84.0,117.0
126.0,127.0,127.0,126.0,126.0,127.0,128.0,128.0,-1.0,105.0,-79.0,127.0,127.0,127.0,-114.0,-84.0,117.0
126.0,127.0,127.0,126.0,126.0,127.0,128.0,128.0,-1.0,105.0,-79.0,127.0,127.0,127.0,-114.0,-84.0,117.0
126.0,127.0,127.0,126.0,126.0,127.0,128.0,128.0,-1.0,105.0,-79.0,127.0,127.0,127.0,-114.0,-84.0,117.0
126.0,127.0,127.0,126.0,126.0,127.0,128.0,128.0,-1.0,105.0,-79.0,127.0,127.0,127.0,-114.0,-84.0,117.0
126.0,127.0,127.0,126.0,126.0,128.0,128.0,128.0,-1.0,105.0,-79.0,127.0,127.0,127.0,-114.0,-84.0,117.0
126.0,127.0,127.0,126.0,126.0,128.0,128.0,128.0,-1.0,105.0,-79.0,127.0,127.0,127.0,-114.0,-84.0,117.0
126.0,127.0,127.0,126.0,126.0,128.0,128.0,128.0,-1.0,105.0,-79.0,127.0,127.0,127.0,-114.0,-84.0,117.0
126.0,127.0,127.0,127.0,126.0,127.0,127.0,128.0,-1.0,105.0,-79.0,127.0,127.0,127.0,-114.0,-84.0,117.0
126.0,127.0,127.0,127.0,126.0,127.0,127.0,128.0,-1.0,105.0,-79.0,127.0,127.0,127.0,-114.0,-84.0,117.0
126.0,127.0,127.0,127.0,126.0,127.0,127.0,128.0,-1.0,105.0,-79.0,127.0,127.0,127.0,-114.0,-84.0,117.0
126.0,127.0,127.0,127.0,126.0,127.0,127.0,128.0,-1.0,105.0,-79.0,127.0,127.0,127.0,-114.0,-84.0,117.0
126.0,127.0,127.0,126.0,126.0,127.0,127.0,128.0,-1.0,105.0,-79.0,127.0,127.0,127.0,-114.0,-84.0,117.0
126.0,127.0,126.0,126.0,126.0,127.0,127.0,128.0,-1.0,105.0,-79.0,127.0,127.0,127.0,-114.0,-84.0,117.0
126.0,127.0,127.0,127.0,126.0,127.0,127.0,128.0,-1.0,105.0,-79.0,127.0,127.0,127.0,-114.0,-84.0,117.0
126.0,127.0,127.0,127.0,127.0,127.0,127.0,128.0,-1.0,105.0,-79.0,127.0,127.0,127.0,-114.0,-84.0,117.0
126.0,127.0,127.0,127.0,127.0,127.0,127.0,128.0,-1.0,105.0,-79.0,127.0,127.0,127.0,-114.0,-84.0,117.0
126.0,127.0,127.0,127.0,126.0,127.0,127.0,128.0,-1.0,105.0,-79.0,127.0,127.0,127.0,-114.0,-84.0,117.0
126.0,127.0,127.0,127.0,127.0,128.0,127.0,128.0,-1.0,105.0,-79.0,127.0,127.0,127.0,-114.0,-84.0,117.0
126.0,127.0,127.0,127.0,126.0,128.0,127.0,128.0,-1.0,105.0,-79.0,127.0,127.0,127.0,-114.0,-84.0,117.0
126.0,127.0,127.0,127.0,127.0,128.0,127.0,128.0,-1.0,105.0,-79.0,127.0,127.0,127.0,-114.0,-84.0,117.0
126.0,127.0,127.0,127.0,127.0,128.0,127.0,128.0,-1.0,105.0,-79.0,127.0,127.0,127.0,-114.0,-84.0,117.0
126.0,127.0,127.0,127.0,127.0,128.0,127.0,128.0,-1.0,105.0,-79.0,127.0,127.0,127.0,-114.0,-84.0,117.0
126.0,127.0,127.0,127.0,127.0,128.0,127.0,128.0,-1.0,105.0,-79.0,127.0,127.0,127.0,-114.0,-84.0,117.0
126.0,127.0,127.0,127.0,127.0,128.0,127.0,128.0,-1.0,105.0,-79.0,127.0,127.0,127.0,-114.0,-84.0,117.0
126.0,127.0,127.0,127.0,127.0,127.0,127.0,128.0,-1.0,105.0,-79.0,127.0,127.0,127.0,-114.0,-84.0,117.0
126.0,127.0,127.0,127.0,127.0,127.0,127.0,128.0,-1.0,105.0,-79.0,127.0,127.0,127.0,-114.0,-84.0,117.0
126.0,127.0,127.0,127.0,127.0,127.0,127.0,128.0,-1.0,105.0,-79.0,127.0,127.0,127.0,-114.0,-84.0,117.0
126.0,127.0,127.0,126.0,126.0,128.0,126.0,128.0,-1.0,105.0,-79.0,127.0,127.0,127.0,-114.0,-84.0,117.0
126.0,127.0,126.0,126.0,126.0,128.0,127.0,128.0,-1.0,105.0,-79.0,127.0,127.0,127.0,-114.0,-84.0,117.0
126.0,127.0,126.0,126.0,126.0,127.0,127.0,128.0,-1.0,105.0,-79.0,127.0,127.0,127.0,-114.0,-84.0,117.0
126.0,127.0,126.0,126.0,126.0,127.0,127.0,128.0,-1.0,105.0,-79.0,127.0,127.0,127.0,-114.0,-84.0,117.0
126.0,127.0,127.0,126.0,126.0,127.0,126.0,128.0,-1.0,105.0,-79.0,127.0,127.0,127.0,-114.0,-84.0,117.0
126.0,127.0,127.0,126.0,126.0,127.0,127.0,128.0,-1.0,105.0,-79.0,127.0,127.0,127.0,-114.0,-84.0,117.0
126.0,127.0,127.0,126.0,126.0,127.0,126.0,128.0,-1.0,105.0,-79.0,127.0,127.0,127.0,-114.0,-84.0,117.0
126.0,127.0,127.0,126.0,126.0,127.0,127.0,128.0,-1.0,105.0,-79.0,127.0,127.0,127.0,-114.0,-84.0,117.0
126.0,127.0,127.0,126.0,126.0,127.0,127.0,128.0,-1.0,105.0,-79.0,127.0,127.0,127.0,-114.0,-84.0,117.0
126.0,127.0,127.0,126.0,126.0,128.0,126.0,128.0,-1.0,105.0,-79.0,127.0,127.0,127.0,-114.0,-84.0,117.0
126.0,127.0,127.0,127.0,126.0,127.0,127.0,128.0,-1.0,105.0,-79.0,127.0,127.0,127.0,-114.0,-84.0,117.0
126.0,128.0,127.0,127.0,127.0,127.0,127.0,128.0,-1.0,105.0,-79.0,127.0,127.0,127.0,-114.0,-84.0,117.0
126.0,127.0,127.0,126.0,127.0,127.0,127.0,128.0,-1.0,105.0,-79.0,127.0,127.0,127.0,-114.0,-84.0,117.0
126.0,127.0,127.0,127.0,127.0,127.0,127.0,128.0,-1.0,105.0,-79.0,127.0,127.0,127.0,-114.0,-84.0,117.0
126.0,127.0,127.0,126.0,127.0,127.0,127.0,128.0,-1.0,105.0,-79.0,127.0,127.0,127.0,-114.0,-84.0,117.0
126.0,127.0,127.0,126.0,127.0,127.0,127.0,128.0,-1.0,105.0,-79.0,127.0,127.0,127.0,-114.0,-84.0,117.0
126.0,127.0,127.0,126.0,127.0,127.0,127.0,128.0,-1.0,105.0,-79.0,127.0,127.0,127.0,-114.0,-84.0,117.0
126.0,127.0,127.0,126.0,127.0,127.0,127.0,128.0,-1.0,105.0,-79.0,127.0,127.0,127.0,-114.0,-84.0,117.0
126.0,127.0,127.0,126.0,126.0,127.0,127.0,128.0,-1.0,105.0,-79.0,127.0,127.0,127.0,-114.0,-84.0,117.0
126.0,127.0,127.0,126.0,126.0,128.0,127.0,128.0,-1.0,105.0,-79.0,127.0,127.0,127.0,-114.0,-84.0,117.0
126.0,127.0,127.0,127.0,126.0,127.0,127.0,128.0,-1.0,105.0,-79.0,127.0,127.0,127.0,-114.0,-84.0,117.0
126.0,127.0,127.0,127.0,126.0,127.0,127.0,128.0,-1.0,105.0,-79.0,127.0,127.0,127.0,-114.0,-84.0,117.0
126.0,127.0,127.0,127.0,126.0,128.0,127.0,128.0,-1.0,105.0,-79.0,127.0,127.0,127.0,-114.0,-84.0,117.0
126.0,127.0,127.0,127.0,126.0,127.0,127.0,128.0,-1.0,105.0,-79.0,127.0,127.0,127.0,-114.0,-84.0,117.0
126.0,127.0,127.0,127.0,127.0,127.0,127.0,128.0,-1.0,105.0,-79.0,127.0,127.0,127.0,-114.0,-84.0,117.0
126.0,127.0,127.0,127.0,127.0,127.0,127.0,128.0,-1.0,105.0,-79.0,127.0,127.0,127.0,-114.0,-84.0,117.0
126.0,127.0,127.0,127.0,127.0,127.0,127.0,128.0,-1.0,105.0,-79.0,127.0,127.0,127.0,-114.0,-84.0,117.0
126.0,127.0,127.0,127.0,126.0,128.0,127.0,128.0,-1.0,105.0,-79.0,127.0,127.0,127.0,-114.0,-84.0,117.0
126.0,127.0,127.0,126.0,126.0,128.0,127.0,128.0,-1.0,105.0,-79.0,127.0,127.0,127.0,-114.0,-84.0,117.0
126.0,127.0,127.0,127.0,126.0,128.0,127.0,128.0,-1.0,105.0,-79.0,127.0,127.0,127.0,-114.0,-84.0,117.0
126.0,127.0,127.0,127.0,126.0,127.0,128.0,127.0,-1.0,105.0,-79.0,127.0,127.0,127.0,-114.0,-84.0,117.0
126.0,127.0,127.0,127.0,126.0,127.0,128.0,127.0,-1.0,105.0,-79.0,127.0,127.0,127.0,-114.0,-84.0,117.0
126.0,127.0,127.0,126.0,126.0,127.0,128.0,127.0,-1.0,105.0,-79.0,127.0,127.0,127.0,-114.0,-84.0,117.0
126.0,127.0,127.0,127.0,126.0,127.0,128.0,127.0,-1.0,105.0,-79.0,127.0,127.0,127.0,-114.0,-84.0,117.0
126.0,127.0,127.0,127.0,126.0,127.0,128.0,127.0,-1.0,105.0,-79.0,127.0,127.0,127.0,-114.0,-84.0,117.0
126.0,127.0,127.0,127.0,126.0,127.0,128.0,127.0,-1.0,105.0,-79.0,127.0,127.0,127.0,-114.0,-84.0,117.0
126.0,127.0,127.0,127.0,126.0,127.0,128.0,127.0,-1.0,105.0,-79.0,127.0,127.0,127.0,-114.0,-84.0,117.0
126.0,127.0,127.0,127.0,126.0,127.0,128.0,127.0,-1.0,105.0,-79.0,127.0,127.0,127.0,-114.0,-84.0,117.0
126.0,127.0,127.0,127.0,126.0,127.0,128.0,127.0,-1.0,105.0,-79.0,127.0,127.0,127.0,-114.0,-84.0,117.0
126.0,127.0,127.0,127.0,126.0,127.0,128.0,127.0,-1.0,105.0,-79.0,127.0,127.0,127.0,-114.0,-84.0,117.0
126.0,127.0,127.0,127.0,127.0,128.0,127.0,128.0,-1.0,105.0,-79.0,127.0,127.0,127.0,-114.0,-84.0,117.0
126.0,127.0,127.0,127.0,127.0,127.0,127.0,128.0,-1.0,105.0,-79.0,127.0,127.0,127.0,-114.0,-84.0,117.0
126.0,127.0,127.0,127.0,127.0,127.0,127.0,128.0,-1.0,105.0,-79.0,127.0,127.0,127.0,-114.0,-84.0,117.0
126.0,127.0,127.0,127.0,127.0,127.0,127.0,128.0,-1.0,105.0,-79.0,127.0,127.0,127.0,-114.0,-84.0,117.0
126.0,127.0,127.0,127.0,127.0,127.0,127.0,128.0,-1.0,105.0,-79.0,127.0,127.0,127.0,-114.0,-84.0,117.0
126.0,127.0,127.0,127.0,127.0,127.0,127.0,128.0,-1.0,105.0,-79.0,127.0,127.0,127.0,-114.0,-84.0,117.0
126.0,127.0,127.0,126.0,127.0,127.0,127.0,128.0,-1.0,105.0,-79.0,127.0,127.0,127.0,-114.0,-84.0,117.0
126.0,127.0,127.0,127.0,127.0,127.0,127.0,127.0,-1.0,105.0,-79.0,127.0,127.0,127.0,-114.0,-84.0,117.0
126.0,127.0,127.0,126.0,126.0,127.0,127.0,127.0,-1.0,105.0,-79.0,127.0,127.0,127.0,-114.0,-84.0,117.0
126.0,127.0,127.0,127.0,127.0,128.0,128.0,128.0,-1.0,105.0,-79.0,127.0,127.0,127.0,-114.0,-84.0,117.0
126.0,127.0,127.0,127.0,127.0,127.0,127.0,128.0,-1.0,105.0,-79.0,127.0,127.0,127.0,-114.0,-84.0,117.0
126.0,127.0,127.0,127.0,126.0,128.0,127.0,128.0,-1.0,105.0,-79.0,127.0,127.0,127.0,-114.0,-84.0,117.0
126.0,128.0,127.0,127.0,126.0,128.0,127.0,128.0,-1.0,105.0,-79.0,127.0,127.0,127.0,-114.0,-84.0,117.0
126.0,128.0,127.0,127.0,127.0,128.0,127.0,128.0,-1.0,105.0,-79.0,127.0,127.0,127.0,-114.0,-84.0,117.0
126.0,127.0,127.0,127.0,127.0,128.0,127.0,128.0,-1.0,105.0,-79.0,127.0,127.0,127.0,-114.0,-84.0,117.0
126.0,127.0,127.0,127.0,127.0,128.0,127.0,128.0,-1.0,105.0,-79.0,127.0,127.0,127.0,-114.0,-84.0,117.0
126.0,127.0,127.0,127.0,127.0,128.0,127.0,128.0,-1.0,105.0,-79.0,127.0,127.0,127.0,-114.0,-84.0,117.0
126.0,127.0,127.0,127.0,127.0,127.0,127.0,128.0,-1.0,105.0,-79.0,127.0,127.0,127.0,-114.0,-84.0,117.0
126.0,127.0,127.0,127.0,127.0,127.0,127.0,128.0,-1.0,105.0,-79.0,127.0,127.0,127.0,-114.0,-84.0,117.0
126.0,127.0,127.0,127.0,127.0,127.0,127.0,128.0,-1.0,105.0,-79.0,127.0,127.0,127.0,-114.0,-84.0,117.0
126.0,127.0,127.0,127.0,127.0,128.0,127.0,128.0,-1.0,105.0,-79.0,127.0,127.0,127.0,-114.0,-84.0,117.0
126.0,128.0,127.0,127.0,127.0,128.0,127.0,128.0,-1.0,105.0,-79.0,127.0,127.0,127.0,-114.0,-84.0,117.0
126.0,128.0,127.0,127.0,127.0,128.0,127.0,128.0,-1.0,105.0,-79.0,127.0,127.0,127.0,-114.0,-84.0,117.0
126.0,128.0,127.0,127.0,127.0,128.0,127.0,128.0,-1.0,105.0,-79.0,127.0,127.0,127.0,-114.0,-84.0,117.0
126.0,127.0,127.0,127.0,127.0,128.0,127.0,128.0,-1.0,105.0,-79.0,127.0,127.0,127.0,-114.0,-84.0,117.0
126.0,127.0,127.0,127.0,126.0,128.0,127.0,128.0,-1.0,105.0,-79.0,127.0,127.0,127.0,-114.0,-84.0,117.0
126.0,128.0,127.0,127.0,126.0,128.0,127.0,128.0,-1.0,105.0,-79.0,127.0,127.0,127.0,-114.0,-84.0,117.0
126.0,127.0,127.0,127.0,127.0,127.0,127.0,128.0,-1.0,105.0,-79.0,127.0,127.0,127.0,-114.0,-84.0,117.0
126.0,127.0,127.0,127.0,127.0,127.0,127.0,128.0,-1.0,105.0,-79.0,127.0,127.0,127.0,-114.0,-84.0,117.0
126.0,127.0,127.0,127.0,127.0,127.0,127.0,128.0,-1.0,105.0,-79.0,127.0,127.0,127.0,-114.0,-84.0,117.0
126.0,127.0,127.0,127.0,126.0,128.0,127.0,128.0,-1.0,105.0,-79.0,127.0,127.0,127.0,-114.0,-84.0,117.0
127.0,127.0,127.0,127.0,126.0,128.0,127.0,128.0,-1.0,105.0,-79.0,127.0,127.0,127.0,-114.0,-84.0,117.0
126.0,127.0,127.0,127.0,126.0,128.0,127.0,128.0,-1.0,105.0,-79.0,127.0,127.0,127.0,-114.0,-84.0,117.0
126.0,127.0,127.0,127.0,126.0,128.0,127.0,128.0,-1.0,105.0,-79.0,127.0,127.0,127.0,-114.0,-84.0,117.0
127.0,127.0,127.0,127.0,126.0,128.0,127.0,128.0,-1.0,105.0,-79.0,127.0,127.0,127.0,-114.0,-84.0,117.0
126.0,127.0,127.0,127.0,126.0,128.0,127.0,128.0,-1.0,105.0,-79.0,127.0,127.0,127.0,-114.0,-84.0,117.0
126.0,127.0,127.0,127.0,127.0,128.0,127.0,128.0,-1.0,105.0,-79.0,127.0,127.0,127.0,-114.0,-84.0,117.0
126.0,127.0,127.0,127.0,127.0,127.0,127.0,128.0,-1.0,105.0,-79.0,127.0,127.0,127.0,-114.0,-84.0,117.0
126.0,127.0,127.0,127.0,127.0,128.0,127.0,128.0,-1.0,105.0,-79.0,127.0,127.0,127.0,-114.0,-84.0,117.0
126.0,127.0,127.0,127.0,126.0,128.0,127.0,128.0,-1.0,105.0,-79.0,127.0,127.0,127.0,-114.0,-84.0,117.0
127.0,128.0,126.0,127.0,126.0,128.0,127.0,128.0,-1.0,105.0,-79.0,127.0,127.0,127.0,-114.0,-84.0,117.0
126.0,128.0,126.0,127.0,126.0,128.0,127.0,128.0,-1.0,105.0,-79.0,127.0,127.0,127.0,-114.0,-84.0,117.0
126.0,128.0,126.0,127.0,126.0,128.0,127.0,128.0,-1.0,105.0,-79.0,127.0,127.0,127.0,-114.0,-84.0,117.0
126.0,128.0,126.0,127.0,126.0,128.0,127.0,128.0,-1.0,105.0,-79.0,127.0,127.0,127.0,-114.0,-84.0,117.0
126.0,128.0,126.0,127.0,127.0,128.0,127.0,128.0,-1.0,105.0,-79.0,127.0,127.0,127.0,-114.0,-84.0,117.0
126.0,127.0,127.0,127.0,127.0,127.0,127.0,128.0,-1.0,105.0,-79.0,127.0,127.0,127.0,-114.0,-84.0,117.0
126.0,127.0,127.0,127.0,127.0,127.0,127.0,128.0,-1.0,105.0,-79.0,127.0,127.0,127.0,-114.0,-84.0,117.0
126.0,127.0,127.0,127.0,127.0,127.0,127.0,128.0,-1.0,105.0,-79.0,127.0,127.0,127.0,-114.0,-84.0,117.0
126.0,127.0,127.0,127.0,126.0,128.0,127.0,128.0,-1.0,105.0,-79.0,127.0,127.0,127.0,-114.0,-84.0,117.0
126.0,128.0,126.0,127.0,126.0,128.0,127.0,128.0,-1.0,105.0,-79.0,127.0,127.0,127.0,-114.0,-84.0,117.0
126.0,128.0,126.0,127.0,126.0,128.0,127.0,128.0,-1.0,105.0,-79.0,127.0,127.0,127.0,-114.0,-84.0,117.0
126.0,128.0,126.0,127.0,126.0,128.0,127.0,128.0,-1.0,105.0,-79.0,127.0,127.0,127.0,-114.0,-84.0,117.0
126.0,128.0,126.0,127.0,126.0,128.0,127.0,129.0,-1.0,105.0,-79.0,127.0,127.0,127.0,-114.0,-84.0,117.0
126.0,128.0,126.0,127.0,126.0,128.0,127.0,128.0,-1.0,105.0,-79.0,127.0,127.0,127.0,-114.0,-84.0,117.0
126.0,127.0,126.0,127.0,126.0,127.0,127.0,128.0,-1.0,105.0,-79.0,127.0,127.0,127.0,-114.0,-84.0,117.0
126.0,127.0,126.0,127.0,126.0,127.0,127.0,128.0,-1.0,105.0,-79.0,127.0,127.0,127.0,-114.0,-84.0,117.0
126.0,127.0,126.0,127.0,126.0,127.0,127.0,128.0,-1.0,105.0,-79.0,127.0,127.0,127.0,-114.0,-84.0,117.0
126.0,127.0,126.0,127.0,126.0,127.0,127.0,128.0,-1.0,105.0,-79.0,127.0,127.0,127.0,-114.0,-84.0,117.0
126.0,128.0,126.0,127.0,126.0,128.0,127.0,128.0,-1.0,105.0,-79.0,127.0,127.0,127.0,-114.0,-84.0,117.0
126.0,128.0,126.0,127.0,126.0,128.0,127.0,128.0,-1.0,105.0,-79.0,127.0,127.0,127.0,-114.0,-84.0,117.0
126.0,127.0,126.0,127.0,127.0,127.0,127.0,128.0,-1.0,105.0,-79.0,127.0,127.0,127.0,-114.0,-84.0,117.0
126.0,127.0,126.0,127.0,127.0,127.0,127.0,128.0,-1.0,105.0,-79.0,127.0,127.0,127.0,-114.0,-84.0,117.0
126.0,127.0,126.0,127.0,127.0,127.0,127.0,128.0,-1.0,105.0,-79.0,127.0,127.0,127.0,-114.0,-84.0,117.0
126.0,127.0,126.0,127.0,127.0,128.0,127.0,128.0,-1.0,105.0,-79.0,127.0,127.0,127.0,-114.0,-84.0,117.0
126.0,127.0,126.0,127.0,127.0,128.0,127.0,128.0,-1.0,105.0,-79.0,127.0,127.0,127.0,-114.0,-84.0,117.0
126.0,127.0,126.0,127.0,127.0,128.0,127.0,128.0,-1.0,105.0,-79.0,127.0,127.0,127.0,-114.0,-84.0,117.0
126.0,127.0,126.0,127.0,127.0,128.0,127.0,128.0,-1.0,105.0,-79.0,127.0,127.0,127.0,-114.0,-84.0,117.0
126.0,127.0,126.0,127.0,127.0,127.0,127.0,128.0,-1.0,105.0,-79.0,127.0,127.0,127.0,-114.0,-84.0,117.0
126.0,127.0,126.0,127.0,127.0,127.0,127.0,128.0,-1.0,105.0,-79.0,127.0,127.0,127.0,-114.0,-84.0,117.0
126.0,127.0,126.0,127.0,127.0,127.0,127.0,128.0,-1.0,105.0,-79.0,127.0,127.0,127.0,-114.0,-84.0,117.0
127.0,127.0,126.0,127.0,126.0,128.0,127.0,128.0,-1.0,105.0,-79.0,127.0,127.0,127.0,-114.0,-84.0,117.0
127.0,127.0,126.0,127.0,126.0,128.0,127.0,128.0,-1.0,105.0,-79.0,127.0,127.0,127.0,-114.0,-84.0,117.0
126.0,127.0,127.0,127.0,127.0,127.0,127.0,128.0,-1.0,105.0,-79.0,127.0,127.0,127.0,-114.0,-84.0,117.0
127.0,127.0,126.0,127.0,126.0,128.0,127.0,128.0,-1.0,105.0,-79.0,127.0,127.0,127.0,-114.0,-84.0,117.0
127.0,127.0,126.0,127.0,126.0,128.0,127.0,128.0,-1.0,105.0,-79.0,127.0,127.0,127.0,-114.0,-84.0,117.0
127.0,127.0,126.0,127.0,126.0,128.0,127.0,128.0,-1.0,105.0,-79.0,127.0,127.0,127.0,-114.0,-84.0,117.0
126.0,127.0,126.0,127.0,126.0,127.0,127.0,128.0,-1.0,105.0,-79.0,127.0,127.0,127.0,-114.0,-84.0,117.0
126.0,127.0,126.0,127.0,127.0,127.0,127.0,128.0,-1.0,105.0,-79.0,127.0,127.0,127.0,-114.0,-84.0,117.0
126.0,127.0,126.0,127.0,126.0,127.0,127.0,128.0,-1.0,105.0,-79.0,127.0,127.0,127.0,-114.0,-84.0,117.0
126.0,127.0,126.0,127.0,126.0,127.0,127.0,128.0,-1.0,105.0,-79.0,127.0,127.0,127.0,-114.0,-84.0,117.0
126.0,128.0,127.0,127.0,126.0,128.0,127.0,129.0,-1.0,104.0,-79.0,127.0,127.0,127.0,-114.0,-84.0,117.0
126.0,127.0,127.0,127.0,127.0,127.0,127.0,128.0,-1.0,104.0,-79.0,127.0,127.0,127.0,-114.0,-84.0,117.0
126.0,128.0,127.0,127.0,127.0,127.0,127.0,128.0,-1.0,104.0,-79.0,127.0,127.0,127.0,-114.0,-84.0,117.0
126.0,128.0,127.0,127.0,127.0,128.0,127.0,128.0,-1.0,104.0,-79.0,127.0,127.0,127.0,-114.0,-84.0,117.0
126.0,128.0,127.0,127.0,127.0,128.0,127.0,128.0,-1.0,104.0,-79.0,127.0,127.0,127.0,-114.0,-84.0,117.0
126.0,128.0,127.0,127.0,127.0,127.0,127.0,128.0,-1.0,104.0,-79.0,127.0,127.0,127.0,-114.0,-84.0,117.0
126.0,127.0,127.0,127.0,127.0,127.0,127.0,128.0,-1.0,104.0,-79.0,127.0,127.0,127.0,-114.0,-84.0,117.0
126.0,127.0,127.0,127.0,127.0,127.0,127.0,128.0,-1.0,104.0,-79.0,127.0,127.0,127.0,-114.0,-84.0,117.0
126.0,128.0,127.0,127.0,126.0,127.0,127.0,128.0,-1.0,104.0,-79.0,127.0,127.0,127.0,-114.0,-84.0,117.0
126.0,128.0,127.0,127.0,126.0,128.0,127.0,129.0,-1.0,104.0,-79.0,127.0,127.0,127.0,-114.0,-84.0,117.0
127.0,127.0,127.0,127.0,127.0,127.0,127.0,128.0,-1.0,105.0,-79.0,127.0,127.0,127.0,-114.0,-84.0,117.0
127.0,127.0,127.0,127.0,126.0,128.0,127.0,129.0,-1.0,105.0,-79.0,127.0,127.0,127.0,-114.0,-84.0,117.0
127.0,127.0,127.0,127.0,126.0,128.0,127.0,129.0,-1.0,105.0,-79.0,127.0,127.0,127.0,-114.0,-84.0,117.0
127.0,127.0,127.0,127.0,126.0,128.0,127.0,129.0,-1.0,105.0,-79.0,127.0,127.0,127.0,-114.0,-84.0,117.0
127.0,127.0,127.0,127.0,126.0,128.0,127.0,129.0,-1.0,105.0,-79.0,127.0,127.0,127.0,-114.0,-84.0,117.0
127.0,127.0,127.0,127.0,126.0,128.0,127.0,128.0,-1.0,105.0,-79.0,127.0,127.0,127.0,-114.0,-84.0,117.0
127.0,127.0,127.0,127.0,126.0,128.0,127.0,128.0,-1.0,105.0,-79.0,127.0,127.0,127.0,-114.0,-84.0,117.0
127.0,127.0,126.0,127.0,126.0,128.0,126.0,128.0,-1.0,105.0,-79.0,127.0,127.0,127.0,-114.0,-84.0,117.0
127.0,128.0,126.0,127.0,126.0,128.0,126.0,129.0,-1.0,105.0,-79.0,127.0,127.0,127.0,-114.0,-84.0,117.0
127.0,128.0,126.0,127.0,126.0,128.0,126.0,129.0,-1.0,105.0,-79.0,127.0,127.0,127.0,-114.0,-84.0,117.0
126.0,127.0,127.0,127.0,126.0,127.0,127.0,129.0,-1.0,105.0,-79.0,127.0,127.0,127.0,-114.0,-84.0,117.0
127.0,128.0,127.0,127.0,126.0,128.0,127.0,129.0,-1.0,105.0,-79.0,127.0,127.0,127.0,-114.0,-84.0,117.0
127.0,128.0,127.0,127.0,126.0,128.0,127.0,129.0,-1.0,105.0,-79.0,127.0,127.0,127.0,-114.0,-84.0,117.0
127.0,128.0,127.0,127.0,127.0,127.0,127.0,129.0,-1.0,105.0,-79.0,127.0,127.0,127.0,-114.0,-84.0,117.0
126.0,127.0,127.0,127.0,127.0,127.0,127.0,129.0,-1.0,105.0,-79.0,127.0,127.0,127.0,-114.0,-84.0,117.0
126.0,128.0,127.0,127.0,127.0,127.0,127.0,129.0,-1.0,105.0,-79.0,127.0,127.0,127.0,-114.0,-84.0,117.0
127.0,128.0,127.0,127.0,126.0,127.0,127.0,129.0,-1.0,105.0,-79.0,127.0,127.0,127.0,-114.0,-84.0,117.0
126.0,128.0,127.0,127.0,126.0,128.0,127.0,129.0,-1.0,105.0,-79.0,127.0,127.0,127.0,-114.0,-84.0,117.0
127.0,128.0,127.0,127.0,126.0,128.0,127.0,129.0,-1.0,105.0,-79.0,127.0,127.0,127.0,-114.0,-84.0,117.0
127.0,127.0,127.0,127.0,127.0,127.0,127.0,129.0,-1.0,105.0,-79.0,127.0,127.0,127.0,-114.0,-84.0,117.0
127.0,127.0,127.0,127.0,126.0,128.0,127.0,129.0,-1.0,105.0,-79.0,127.0,127.0,127.0,-114.0,-84.0,117.0
127.0,127.0,127.0,127.0,126.0,128.0,127.0,129.0,-1.0,105.0,-79.0,127.0,127.0,127.0,-114.0,-84.0,117.0
126.0,127.0,127.0,127.0,126.0,128.0,127.0,129.0,-1.0,105.0,-79.0,127.0,127.0,127.0,-114.0,-84.0,117.0
127.0,127.0,127.0,127.0,127.0,128.0,127.0,129.0,-1.0,105.0,-79.0,127.0,127.0,127.0,-114.0,-84.0,117.0
127.0,127.0,127.0,127.0,126.0,128.0,127.0,128.0,-1.0,105.0,-79.0,127.0,127.0,127.0,-114.0,-84.0,117.0
127.0,127.0,127.0,127.0,126.0,128.0,127.0,128.0,-1.0,105.0,-79.0,127.0,127.0,127.0,-114.0,-84.0,117.0
127.0,127.0,127.0,127.0,126.0,127.0,127.0,128.0,-1.0,105.0,-79.0,127.0,127.0,127.0,-114.0,-84.0,117.0
127.0,127.0,127.0,127.0,126.0,127.0,127.0,128.0,-1.0,105.0,-79.0,127.0,127.0,127.0,-114.0,-84.0,117.0
127.0,127.0,127.0,127.0,126.0,128.0,127.0,129.0,-1.0,105.0,-79.0,127.0,127.0,127.0,-114.0,-84.0,117.0
127.0,127.0,127.0,127.0,126.0,128.0,127.0,129.0,-1.0,105.0,-79.0,127.0,127.0,127.0,-114.0,-84.0,117.0
126.0,127.0,127.0,127.0,127.0,128.0,126.0,129.0,-1.0,105.0,-79.0,127.0,127.0,127.0,-114.0,-84.0,117.0
126.0,127.0,127.0,127.0,127.0,128.0,126.0,129.0,-1.0,105.0,-79.0,127.0,127.0,127.0,-114.0,-84.0,117.0
126.0,127.0,127.0,127.0,127.0,128.0,126.0,129.0,-1.0,105.0,-79.0,127.0,127.0,127.0,-114.0,-84.0,117.0
126.0,127.0,127.0,127.0,127.0,128.0,126.0,129.0,-1.0,105.0,-79.0,127.0,127.0,127.0,-114.0,-84.0,117.0
126.0,127.0,127.0,127.0,127.0,127.0,126.0,129.0,-1.0,105.0,-79.0,127.0,127.0,127.0,-114.0,-84.0,117.0
126.0,127.0,127.0,127.0,127.0,127.0,126.0,128.0,-1.0,105.0,-79.0,127.0,127.0,127.0,-114.0,-84.0,117.0
127.0,127.0,127.0,127.0,127.0,127.0,126.0,128.0,-1.0,105.0,-79.0,127.0,127.0,127.0,-114.0,-84.0,117.0
126.0,128.0,127.0,127.0,127.0,128.0,126.0,129.0,-1.0,105.0,-79.0,127.0,127.0,127.0,-114.0,-84.0,117.0
126.0,128.0,127.0,127.0,127.0,128.0,126.0,129.0,-1.0,105.0,-79.0,127.0,127.0,127.0,-114.0,-84.0,117.0
126.0,128.0,127.0,127.0,127.0,128.0,126.0,129.0,-1.0,105.0,-79.0,127.0,127.0,127.0,-114.0,-84.0,117.0
126.0,127.0,127.0,127.0,127.0,128.0,126.0,129.0,-1.0,105.0,-79.0,127.0,127.0,127.0,-114.0,-84.0,117.0
126.0,127.0,127.0,126.0,127.0,128.0,126.0,129.0,-1.0,105.0,-79.0,127.0,127.0,127.0,-114.0,-84.0,117.0
126.0,127.0,127.0,126.0,127.0,128.0,126.0,129.0,-1.0,105.0,-79.0,127.0,127.0,127.0,-114.0,-84.0,117.0
126.0,127.0,127.0,126.0,127.0,128.0,126.0,129.0,-1.0,105.0,-79.0,127.0,127.0,127.0,-114.0,-84.0,117.0
126.0,127.0,127.0,126.0,127.0,128.0,126.0,128.0,-1.0,105.0,-79.0,127.0,127.0,127.0,-114.0,-84.0,117.0
126.0,127.0,127.0,127.0,127.0,128.0,126.0,128.0,-1.0,105.0,-79.0,127.0,127.0,127.0,-114.0,-84.0,117.0
127.0,127.0,127.0,127.0,127.0,129.0,126.0,129.0,-1.0,105.0,-79.0,127.0,127.0,127.0,-114.0,-84.0,117.0
126.0,127.0,127.0,126.0,127.0,129.0,126.0,129.0,-1.0,105.0,-79.0,127.0,127.0,127.0,-114.0,-84.0,117.0
126.0,127.0,127.0,127.0,127.0,128.0,126.0,129.0,-1.0,105.0,-79.0,127.0,127.0,127.0,-114.0,-84.0,117.0
126.0,128.0,127.0,127.0,127.0,129.0,126.0,129.0,-1.0,105.0,-79.0,127.0,127.0,127.0,-114.0,-84.0,117.0
127.0,128.0,127.0,127.0,127.0,128.0,126.0,129.0,-1.0,105.0,-79.0,127.0,127.0,127.0,-114.0,-84.0,117.0
127.0,128.0,127.0,127.0,127.0,128.0,126.0,129.0,-1.0,105.0,-79.0,127.0,127.0,127.0,-114.0,-84.0,117.0
127.0,128.0,127.0,127.0,127.0,128.0,126.0,129.0,-1.0,105.0,-79.0,127.0,127.0,127.0,-114.0,-84.0,117.0
127.0,128.0,127.0,127.0,127.0,128.0,127.0,129.0,-1.0,105.0,-79.0,127.0,127.0,127.0,-114.0,-84.0,117.0
127.0,128.0,127.0,127.0,127.0,128.0,127.0,128.0,-1.0,105.0,-79.0,127.0,127.0,127.0,-114.0,-84.0,117.0
127.0,128.0,127.0,127.0,127.0,128.0,126.0,129.0,-1.0,105.0,-79.0,127.0,127.0,127.0,-114.0,-84.0,117.0
127.0,128.0,127.0,127.0,127.0,128.0,126.0,129.0,-1.0,105.0,-79.0,127.0,127.0,127.0,-114.0,-84.0,117.0
127.0,128.0,127.0,127.0,127.0,128.0,126.0,129.0,-1.0,105.0,-79.0,127.0,127.0,127.0,-114.0,-84.0,117.0
127.0,128.0,127.0,127.0,127.0,128.0,126.0,129.0,-1.0,105.0,-79.0,127.0,127.0,127.0,-114.0,-84.0,117.0
127.0,128.0,127.0,127.0,127.0,128.0,126.0,129.0,-1.0,105.0,-79.0,127.0,127.0,127.0,-114.0,-84.0,117.0
127.0,127.0,127.0,127.0,127.0,127.0,126.0,128.0,-1.0,105.0,-79.0,127.0,127.0,127.0,-114.0,-84.0,117.0
127.0,127.0,127.0,127.0,127.0,127.0,126.0,128.0,-1.0,105.0,-79.0,127.0,127.0,127.0,-114.0,-84.0,117.0
127.0,127.0,127.0,127.0,127.0,127.0,126.0,128.0,-1.0,105.0,-79.0,127.0,127.0,127.0,-114.0,-84.0,117.0
127.0,127.0,127.0,127.0,127.0,128.0,126.0,128.0,-1.0,105.0,-79.0,127.0,127.0,127.0,-114.0,-84.0,117.0
127.0,127.0,127.0,127.0,128.0,127.0,127.0,127.0,-1.0,105.0,-79.0,127.0,127.0,127.0,-114.0,-84.0,117.0
127.0,127.0,127.0,127.0,127.0,127.0,127.0,128.0,-1.0,105.0,-79.0,127.0,127.0,127.0,-114.0,-84.0,117.0
127.0,127.0,127.0,127.0,127.0,127.0,127.0,128.0,-1.0,105.0,-79.0,127.0,127.0,127.0,-114.0,-84.0,117.0
127.0,127.0,127.0,127.0,127.0,128.0,127.0,128.0,-1.0,105.0,-79.0,127.0,127.0,127.0,-114.0,-84.0,117.0
127.0,127.0,127.0,127.0,127.0,128.0,127.0,128.0,-1.0,105.0,-79.0,127.0,127.0,127.0,-114.0,-84.0,117.0
127.0,127.0,127.0,127.0,127.0,127.0,127.0,128.0,-1.0,105.0,-79.0,127.0,127.0,127.0,-114.0,-84.0,117.0
127.0,127.0,127.0,127.0,127.0,128.0,125.0,128.0,-1.0,105.0,-79.0,127.0,127.0,127.0,-114.0,-84.0,117.0
126.0,127.0,127.0,127.0,127.0,127.0,125.0,128.0,-1.0,105.0,-79.0,127.0,127.0,127.0,-114.0,-84.0,117.0
127.0,127.0,127.0,127.0,127.0,127.0,125.0,128.0,-1.0,105.0,-79.0,127.0,127.0,127.0,-114.0,-84.0,117.0
126.0,127.0,127.0,127.0,127.0,128.0,125.0,129.0,-1.0,105.0,-79.0,127.0,127.0,127.0,-114.0,-84.0,117.0
127.0,127.0,127.0,127.0,127.0,128.0,125.0,129.0,-1.0,105.0,-79.0,127.0,127.0,127.0,-114.0,-84.0,117.0
126.0,127.0,127.0,127.0,127.0,128.0,125.0,129.0,-1.0,105.0,-79.0,127.0,127.0,127.0,-114.0,-84.0,117.0
127.0,127.0,127.0,127.0,127.0,128.0,125.0,129.0,-1.0,105.0,-79.0,127.0,127.0,127.0,-114.0,-84.0,117.0
127.0,127.0,127.0,127.0,127.0,128.0,125.0,129.0,-1.0,105.0,-79.0,127.0,127.0,127.0,-114.0,-84.0,117.0
127.0,127.0,127.0,127.0,127.0,128.0,125.0,129.0,-1.0,105.0,-79.0,127.0,127.0,127.0,-114.0,-84.0,117.0
127.0,127.0,127.0,127.0,127.0,128.0,125.0,128.0,-1.0,105.0,-79.0,127.0,127.0,127.0,-114.0,-84.0,117.0
126.0,127.0,127.0,127.0,127.0,128.0,124.0,128.0,-1.0,105.0,-79.0,127.0,127.0,127.0,-114.0,-84.0,117.0
127.0,127.0,127.0,127.0,126.0,128.0,124.0,129.0,-1.0,105.0,-79.0,127.0,127.0,127.0,-114.0,-84.0,117.0
127.0,128.0,127.0,127.0,126.0,129.0,124.0,129.0,-1.0,105.0,-79.0,127.0,127.0,127.0,-114.0,-84.0,117.0
126.0,128.0,127.0,127.0,126.0,129.0,124.0,129.0,-1.0,105.0,-79.0,127.0,127.0,127.0,-114.0,-84.0,117.0
126.0,127.0,127.0,127.0,126.0,128.0,124.0,129.0,-1.0,105.0,-79.0,127.0,127.0,127.0,-114.0,-84.0,117.0
126.0,127.0,127.0,127.0,126.0,128.0,124.0,128.0,-1.0,105.0,-79.0,127.0,127.0,127.0,-114.0,-84.0,117.0
126.0,127.0,127.0,127.0,126.0,128.0,124.0,129.0,-1.0,105.0,-79.0,127.0,127.0,127.0,-114.0,-84.0,117.0
126.0,127.0,127.0,127.0,126.0,128.0,124.0,128.0,-1.0,105.0,-79.0,127.0,127.0,127.0,-114.0,-84.0,117.0
126.0,127.0,127.0,127.0,126.0,128.0,124.0,128.0,-1.0,105.0,-79.0,127.0,127.0,127.0,-114.0,-84.0,117.0
126.0,127.0,127.0,127.0,127.0,128.0,124.0,128.0,-1.0,105.0,-79.0,127.0,127.0,127.0,-114.0,-84.0,117.0
127.0,128.0,127.0,127.0,127.0,128.0,124.0,128.0,-1.0,105.0,-79.0,127.0,127.0,127.0,-114.0,-84.0,117.0
127.0,128.0,127.0,127.0,127.0,128.0,124.0,129.0,-1.0,105.0,-79.0,127.0,127.0,127.0,-114.0,-84.0,117.0
127.0,128.0,127.0,127.0,127.0,128.0,124.0,128.0,-1.0,105.0,-79.0,127.0,127.0,127.0,-114.0,-84.0,117.0
127.0,128.0,127.0,127.0,127.0,128.0,124.0,129.0,-1.0,105.0,-79.0,127.0,127.0,127.0,-114.0,-84.0,117.0
127.0,128.0,127.0,127.0,127.0,128.0,124.0,128.0,-1.0,105.0,-79.0,127.0,127.0,127.0,-114.0,-84.0,117.0
127.0,128.0,127.0,127.0,127.0,128.0,124.0,128.0,-1.0,105.0,-79.0,127.0,127.0,127.0,-114.0,-84.0,117.0
127.0,128.0,127.0,127.0,127.0,128.0,124.0,128.0,-1.0,105.0,-79.0,127.0,127.0,127.0,-114.0,-84.0,117.0
127.0,128.0,127.0,127.0,127.0,128.0,124.0,128.0,-1.0,105.0,-79.0,127.0,127.0,127.0,-114.0,-84.0,117.0
127.0,128.0,127.0,127.0,127.0,128.0,124.0,128.0,-1.0,105.0,-79.0,127.0,127.0,127.0,-114.0,-84.0,117.0
126.0,128.0,127.0,127.0,127.0,127.0,124.0,128.0,-1.0,105.0,-79.0,127.0,127.0,127.0,-114.0,-84.0,117.0
127.0,128.0,127.0,127.0,127.0,128.0,126.0,128.0,-1.0,105.0,-79.0,127.0,127.0,127.0,-114.0,-84.0,117.0
127.0,128.0,127.0,127.0,127.0,128.0,126.0,128.0,-1.0,105.0,-79.0,127.0,127.0,127.0,-114.0,-84.0,117.0
127.0,128.0,127.0,127.0,127.0,128.0,126.0,128.0,-1.0,105.0,-79.0,127.0,127.0,127.0,-114.0,-84.0,117.0
127.0,128.0,127.0,127.0,127.0,128.0,126.0,128.0,-1.0,105.0,-79.0,127.0,127.0,127.0,-114.0,-84.0,117.0
127.0,128.0,127.0,127.0,127.0,128.0,126.0,128.0,-1.0,105.0,-79.0,127.0,127.0,127.0,-114.0,-84.0,117.0
127.0,128.0,127.0,127.0,127.0,128.0,126.0,128.0,-1.0,105.0,-79.0,127.0,127.0,127.0,-114.0,-84.0,117.0
127.0,128.0,127.0,127.0,127.0,128.0,126.0,128.0,-1.0,105.0,-79.0,127.0,127.0,127.0,-114.0,-84.0,117.0
127.0,128.0,127.0,127.0,127.0,128.0,126.0,128.0,-1.0,105.0,-79.0,127.0,127.0,127.0,-114.0,-84.0,117.0
127.0,128.0,127.0,127.0,127.0,127.0,126.0,128.0,-1.0,105.0,-79.0,127.0,127.0,127.0,-114.0,-84.0,117.0
127.0,127.0,127.0,127.0,127.0,128.0,126.0,128.0,-1.0,105.0,-79.0,127.0,127.0,127.0,-114.0,-84.0,117.0
127.0,128.0,127.0,128.0,127.0,128.0,126.0,128.0,-1.0,105.0,-79.0,127.0,127.0,127.0,-114.0,-84.0,117.0
127.0,128.0,127.0,128.0,127.0,128.0,126.0,128.0,-1.0,105.0,-79.0,127.0,127.0,127.0,-114.0,-84.0,117.0
127.0,128.0,127.0,128.0,127.0,128.0,126.0,128.0,-1.0,105.0,-79.0,127.0,127.0,127.0,-114.0,-84.0,117.0
127.0,128.0,127.0,128.0,127.0,128.0,125.0,128.0,-1.0,105.0,-79.0,127.0,127.0,127.0,-114.0,-84.0,117.0
127.0,128.0,127.0,128.0,127.0,128.0,125.0,128.0,-1.0,105.0,-79.0,127.0,127.0,127.0,-114.0,-84.0,117.0
127.0,128.0,127.0,128.0,127.0,128.0,125.0,128.0,-1.0,105.0,-79.0,127.0,127.0,127.0,-114.0,-84.0,117.0
127.0,128.0,127.0,127.0,127.0,127.0,125.0,128.0,-1.0,105.0,-79.0,127.0,127.0,127.0,-114.0,-84.0,117.0
127.0,128.0,127.0,127.0,127.0,127.0,126.0,128.0,-1.0,105.0,-79.0,127.0,127.0,127.0,-114.0,-84.0,117.0
126.0,128.0,127.0,128.0,127.0,128.0,126.0,128.0,-1.0,105.0,-79.0,127.0,127.0,127.0,-114.0,-84.0,117.0
127.0,128.0,127.0,128.0,126.0,128.0,126.0,128.0,-1.0,105.0,-79.0,127.0,127.0,127.0,-114.0,-84.0,117.0
127.0,128.0,128.0,127.0,127.0,129.0,125.0,129.0,-1.0,105.0,-79.0,127.0,127.0,127.0,-114.0,-84.0,117.0
127.0,128.0,128.0,127.0,127.0,128.0,125.0,129.0,-1.0,105.0,-79.0,127.0,127.0,127.0,-114.0,-84.0,117.0
126.0,128.0,128.0,127.0,127.0,128.0,124.0,128.0,-1.0,105.0,-79.0,127.0,127.0,127.0,-114.0,-84.0,117.0
126.0,128.0,127.0,127.0,127.0,128.0,125.0,128.0,-1.0,105.0,-79.0,127.0,127.0,127.0,-114.0,-84.0,117.0
126.0,128.0,128.0,127.0,127.0,128.0,125.0,128.0,-1.0,105.0,-79.0,127.0,127.0,127.0,-114.0,-84.0,117.0
126.0,127.0,128.0,127.0,127.0,128.0,125.0,128.0,-1.0,105.0,-79.0,127.0,127.0,127.0,-114.0,-84.0,117.0
126.0,127.0,127.0,127.0,127.0,128.0,125.0,128.0,-1.0,105.0,-79.0,127.0,127.0,127.0,-114.0,-84.0,117.0
126.0,127.0,128.0,127.0,127.0,128.0,125.0,128.0,-1.0,105.0,-79.0,127.0,127.0,127.0,-114.0,-84.0,117.0
126.0,128.0,127.0,127.0,127.0,129.0,125.0,129.0,-1.0,105.0,-79.0,127.0,127.0,127.0,-114.0,-84.0,117.0
127.0,128.0,127.0,127.0,127.0,129.0,125.0,129.0,-1.0,105.0,-79.0,127.0,127.0,127.0,-114.0,-84.0,117.0
126.0,128.0,127.0,127.0,126.0,128.0,125.0,128.0,-1.0,105.0,-79.0,127.0,127.0,127.0,-114.0,-84.0,117.0
126.0,128.0,127.0,127.0,126.0,128.0,125.0,128.0,-1.0,105.0,-79.0,127.0,127.0,127.0,-114.0,-84.0,117.0
126.0,128.0,127.0,127.0,126.0,128.0,125.0,128.0,-1.0,105.0,-79.0,127.0,127.0,127.0,-114.0,-84.0,117.0
126.0,128.0,127.0,127.0,126.0,128.0,125.0,128.0,-1.0,105.0,-79.0,127.0,127.0,127.0,-114.0,-84.0,117.0
126.0,128.0,127.0,127.0,126.0,127.0,125.0,128.0,-1.0,105.0,-79.0,127.0,127.0,127.0,-114.0,-84.0,117.0
126.0,128.0,127.0,127.0,126.0,127.0,125.0,128.0,-1.0,105.0,-79.0,127.0,127.0,127.0,-114.0,-84.0,117.0
126.0,128.0,127.0,127.0,126.0,127.0,125.0,128.0,-1.0,105.0,-79.0,127.0,127.0,127.0,-114.0,-84.0,117.0
126.0,128.0,127.0,127.0,126.0,128.0,125.0,128.0,-1.0,105.0,-79.0,127.0,127.0,127.0,-114.0,-84.0,117.0
127.0,128.0,127.0,127.0,126.0,128.0,125.0,129.0,-1.0,105.0,-79.0,127.0,127.0,127.0,-114.0,-84.0,117.0
127.0,128.0,127.0,127.0,126.0,128.0,125.0,129.0,-1.0,105.0,-79.0,127.0,127.0,127.0,-114.0,-84.0,117.0
127.0,128.0,128.0,127.0,127.0,128.0,126.0,128.0,-1.0,104.0,-79.0,127.0,127.0,127.0,-114.0,-84.0,117.0
127.0,128.0,128.0,127.0,127.0,127.0,126.0,128.0,-1.0,104.0,-79.0,127.0,127.0,127.0,-114.0,-84.0,117.0
127.0,127.0,128.0,127.0,127.0,127.0,126.0,128.0,-1.0,104.0,-79.0,127.0,127.0,127.0,-114.0,-84.0,117.0
127.0,127.0,128.0,127.0,127.0,127.0,126.0,128.0,-1.0,104.0,-79.0,127.0,127.0,127.0,-114.0,-84.0,117.0
127.0,128.0,128.0,127.0,127.0,127.0,126.0,128.0,-1.0,104.0,-79.0,127.0,127.0,127.0,-114.0,-84.0,117.0
127.0,127.0,128.0,127.0,127.0,127.0,126.0,128.0,-1.0,104.0,-79.0,127.0,127.0,127.0,-114.0,-84.0,117.0
127.0,127.0,128.0,127.0,127.0,127.0,126.0,128.0,-1.0,104.0,-79.0,127.0,127.0,127.0,-114.0,-84.0,117.0
127.0,127.0,128.0,127.0,127.0,127.0,126.0,128.0,-1.0,104.0,-79.0,127.0,127.0,127.0,-114.0,-84.0,117.0
127.0,127.0,128.0,127.0,127.0,127.0,126.0,128.0,-1.0,104.0,-79.0,127.0,127.0,127.0,-114.0,-84.0,117.0
127.0,127.0,128.0,127.0,127.0,127.0,126.0,128.0,-1.0,104.0,-79.0,127.0,127.0,127.0,-114.0,-84.0,117.0
127.0,128.0,128.0,127.0,127.0,128.0,126.0,128.0,-1.0,104.0,-79.0,127.0,127.0,127.0,-114.0,-84.0,117.0
127.0,128.0,127.0,127.0,127.0,127.0,126.0,128.0,-1.0,104.0,-79.0,127.0,127.0,127.0,-114.0,-84.0,117.0
127.0,127.0,128.0,127.0,127.0,127.0,126.0,128.0,-1.0,104.0,-79.0,127.0,127.0,127.0,-114.0,-84.0,117.0
127.0,128.0,127.0,127.0,127.0,127.0,126.0,128.0,-1.0,104.0,-79.0,127.0,127.0,127.0,-114.0,-84.0,117.0
127.0,128.0,127.0,127.0,127.0,128.0,126.0,128.0,-1.0,104.0,-79.0,127.0,127.0,127.0,-114.0,-84.0,117.0
