emg1,emg2,emg3,emg4,emg5,emg6,emg7,emg8,acc_x,acc_y,acc_z,gyro_x,gyro_y,gyro_z,angle_pitch,angle_roll,angle_yaw
122.0,124.0,124.0,126.0,127.0,128.0,126.0,127.0,27.0,-101.0,-76.0,126.0,127.0,127.0,111.0,87.0,-92.0
124.0,128.0,124.0,127.0,127.0,128.0,130.0,128.0,27.0,-101.0,-76.0,126.0,127.0,127.0,111.0,87.0,-92.0
124.0,127.0,124.0,127.0,127.0,128.0,130.0,128.0,27.0,-101.0,-76.0,126.0,127.0,127.0,111.0,87.0,-92.0
124.0,127.0,124.0,127.0,127.0,127.0,130.0,128.0,27.0,-101.0,-76.0,126.0,127.0,127.0,111.0,87.0,-92.0
124.0,127.0,124.0,128.0,127.0,127.0,130.0,128.0,27.0,-101.0,-76.0,126.0,127.0,127.0,111.0,87.0,-92.0
124.0,127.0,124.0,127.0,127.0,127.0,130.0,128.0,27.0,-101.0,-76.0,126.0,127.0,127.0,111.0,87.0,-92.0
124.0,127.0,124.0,127.0,127.0,127.0,130.0,128.0,27.0,-101.0,-76.0,126.0,127.0,127.0,111.0,87.0,-92.0
124.0,128.0,123.0,127.0,127.0,128.0,129.0,128.0,27.0,-101.0,-76.0,126.0,127.0,127.0,111.0,87.0,-92.0
124.0,128.0,123.0,127.0,127.0,128.0,130.0,128.0,27.0,-101.0,-76.0,126.0,127.0,127.0,111.0,87.0,-92.0
124.0,128.0,124.0,127.0,127.0,128.0,130.0,128.0,27.0,-101.0,-76.0,126.0,127.0,127.0,111.0,87.0,-92.0
124.0,127.0,124.0,127.0,127.0,128.0,130.0,128.0,27.0,-101.0,-76.0,126.0,127.0,127.0,111.0,87.0,-92.0
126.0,130.0,124.0,128.0,127.0,125.0,131.0,129.0,26.0,-102.0,-75.0,126.0,127.0,127.0,111.0,87.0,-92.0
126.0,130.0,124.0,128.0,127.0,125.0,131.0,129.0,26.0,-102.0,-75.0,126.0,127.0,127.0,111.0,87.0,-92.0
126.0,130.0,124.0,128.0,127.0,125.0,131.0,129.0,26.0,-102.0,-75.0,126.0,127.0,127.0,111.0,87.0,-92.0
126.0,130.0,124.0,128.0,127.0,125.0,131.0,129.0,26.0,-102.0,-75.0,126.0,127.0,127.0,111.0,87.0,-92.0
126.0,130.0,124.0,128.0,127.0,124.0,131.0,129.0,26.0,-102.0,-75.0,126.0,127.0,127.0,111.0,87.0,-92.0
126.0,130.0,124.0,128.0,127.0,125.0,130.0,129.0,26.0,-102.0,-75.0,126.0,127.0,127.0,111.0,87.0,-92.0
126.0,130.0,124.0,128.0,127.0,125.0,130.0,129.0,26.0,-102.0,-75.0,126.0,127.0,127.0,111.0,87.0,-92.0
126.0,130.0,124.0,128.0,127.0,125.0,130.0,129.0,26.0,-102.0,-75.0,126.0,127.0,127.0,111.0,87.0,-92.0
126.0,130.0,124.0,128.0,127.0,125.0,131.0,129.0,26.0,-102.0,-75.0,126.0,127.0,127.0,111.0,87.0,-92.0
126.0,130.0,124.0,128.0,127.0,125.0,131.0,129.0,26.0,-102.0,-75.0,126.0,127.0,127.0,111.0,87.0,-92.0
130.0,134.0,121.0,129.0,128.0,124.0,135.0,131.0,26.0,-103.0,-74.0,126.0,127.0,127.0,111.0,87.0,-92.0
130.0,134.0,121.0,129.0,128.0,124.0,136.0,131.0,26.0,-103.0,-74.0,126.0,127.0,127.0,111.0,87.0,-92.0
130.0,134.0,122.0,129.0,128.0,124.0,136.0,131.0,26.0,-103.0,-74.0,126.0,127.0,127.0,111.0,87.0,-92.0
130.0,134.0,121.0,129.0,128.0,124.0,136.0,131.0,26.0,-103.0,-74.0,126.0,127.0,127.0,111.0,87.0,-92.0
130.0,134.0,122.0,129.0,128.0,124.0,135.0,131.0,26.0,-103.0,-74.0,126.0,127.0,127.0,111.0,87.0,-92.0
129.0,134.0,121.0,129.0,128.0,123.0,135.0,131.0,26.0,-103.0,-74.0,126.0,127.0,127.0,111.0,87.0,-92.0
129.0,134.0,121.0,129.0,128.0,123.0,135.0,131.0,26.0,-103.0,-74.0,126.0,127.0,127.0,111.0,87.0,-92.0
130.0,134.0,121.0,129.0,128.0,123.0,135.0,131.0,26.0,-103.0,-74.0,126.0,127.0,127.0,111.0,87.0,-92.0
130.0,134.0,121.0,129.0,128.0,124.0,135.0,131.0,26.0,-103.0,-74.0,126.0,127.0,127.0,111.0,87.0,-92.0
130.0,134.0,122.0,129.0,128.0,123.0,135.0,131.0,26.0,-103.0,-74.0,126.0,127.0,127.0,111.0,87.0,-92.0
130.0,133.0,122.0,129.0,128.0,125.0,134.0,130.0,25.0,-103.0,-74.0,127.0,127.0,127.0,111.0,87.0,-92.0
129.0,133.0,122.0,129.0,128.0,125.0,134.0,130.0,25.0,-103.0,-74.0,127.0,127.0,127.0,111.0,87.0,-92.0
129.0,132.0,123.0,129.0,127.0,125.0,134.0,130.0,25.0,-103.0,-74.0,127.0,127.0,127.0,111.0,87.0,-92.0
130.0,133.0,122.0,129.0,127.0,125.0,134.0,130.0,25.0,-103.0,-74.0,127.0,127.0,127.0,111.0,87.0,-92.0
130.0,133.0,122.0,129.0,128.0,125.0,134.0,130.0,25.0,-103.0,-74.0,127.0,127.0,127.0,111.0,87.0,-92.0
130.0,133.0,122.0,129.0,127.0,125.0,134.0,130.0,25.0,-103.0,-74.0,127.0,127.0,127.0,111.0,87.0,-92.0
129.0,133.0,122.0,129.0,128.0,124.0,134.0,130.0,25.0,-103.0,-74.0,127.0,127.0,127.0,111.0,87.0,-92.0
129.0,133.0,122.0,129.0,127.0,124.0,134.0,130.0,25.0,-103.0,-74.0,127.0,127.0,127.0,111.0,87.0,-92.0
129.0,133.0,122.0,129.0,127.0,124.0,134.0,130.0,25.0,-103.0,-74.0,127.0,127.0,127.0,111.0,87.0,-92.0
129.0,133.0,122.0,129.0,128.0,125.0,134.0,130.0,25.0,-103.0,-74.0,127.0,127.0,127.0,111.0,87.0,-92.0
131.0,134.0,123.0,129.0,127.0,128.0,133.0,130.0,24.0,-103.0,-73.0,127.0,127.0,127.0,111.0,87.0,-92.0
131.0,134.0,123.0,129.0,127.0,128.0,133.0,130.0,24.0,-103.0,-73.0,127.0,127.0,127.0,111.0,87.0,-92.0
131.0,134.0,123.0,129.0,127.0,127.0,133.0,130.0,24.0,-103.0,-73.0,127.0,127.0,127.0,111.0,87.0,-92.0
131.0,134.0,123.0,129.0,127.0,127.0,133.0,130.0,24.0,-103.0,-73.0,127.0,127.0,127.0,111.0,87.0,-92.0
131.0,134.0,123.0,129.0,127.0,127.0,133.0,130.0,24.0,-103.0,-73.0,127.0,127.0,127.0,111.0,87.0,-92.0
131.0,133.0,123.0,129.0,127.0,127.0,133.0,130.0,24.0,-103.0,-73.0,127.0,127.0,127.0,111.0,87.0,-92.0
131.0,133.0,123.0,129.0,127.0,127.0,133.0,130.0,24.0,-103.0,-73.0,127.0,127.0,127.0,111.0,87.0,-92.0
131.0,133.0,123.0,129.0,127.0,127.0,133.0,130.0,24.0,-103.0,-73.0,127.0,127.0,127.0,111.0,87.0,-92.0
131.0,134.0,123.0,129.0,127.0,127.0,133.0,130.0,24.0,-103.0,-73.0,127.0,127.0,127.0,111.0,87.0,-92.0
131.0,134.0,123.0,129.0,127.0,128.0,133.0,130.0,24.0,-103.0,-73.0,127.0,127.0,127.0,111.0,87.0,-92.0
131.0,133.0,125.0,128.0,127.0,128.0,132.0,131.0,23.0,-103.0,-73.0,127.0,127.0,127.0,111.0,87.0,-92.0
132.0,134.0,124.0,128.0,127.0,128.0,132.0,131.0,23.0,-103.0,-73.0,127.0,127.0,127.0,111.0,87.0,-92.0
132.0,134.0,124.0,128.0,127.0,128.0,132.0,131.0,23.0,-103.0,-73.0,127.0,127.0,127.0,111.0,87.0,-92.0
132.0,134.0,124.0,128.0,127.0,128.0,132.0,131.0,23.0,-103.0,-73.0,127.0,127.0,127.0,111.0,87.0,-92.0
132.0,134.0,124.0,128.0,127.0,128.0,132.0,131.0,23.0,-103.0,-73.0,127.0,127.0,127.0,111.0,87.0,-92.0
132.0,134.0,124.0,128.0,127.0,128.0,132.0,131.0,23.0,-103.0,-73.0,127.0,127.0,127.0,111.0,87.0,-92.0
132.0,134.0,125.0,128.0,127.0,128.0,132.0,131.0,23.0,-103.0,-73.0,127.0,127.0,127.0,111.0,87.0,-92.0
131.0,133.0,125.0,128.0,127.0,128.0,132.0,131.0,23.0,-103.0,-73.0,127.0,127.0,127.0,111.0,87.0,-92.0
131.0,133.0,125.0,128.0,127.0,128.0,132.0,131.0,23.0,-103.0,-73.0,127.0,127.0,127.0,111.0,87.0,-92.0
131.0,133.0,125.0,128.0,127.0,128.0,132.0,131.0,23.0,-103.0,-73.0,127.0,127.0,127.0,111.0,87.0,-92.0
130.0,131.0,126.0,128.0,126.0,128.0,130.0,131.0,23.0,-104.0,-73.0,127.0,127.0,127.0,111.0,87.0,-92.0
130.0,131.0,126.0,128.0,126.0,128.0,130.0,131.0,23.0,-104.0,-73.0,127.0,127.0,127.0,111.0,87.0,-92.0
130.0,131.0,126.0,128.0,127.0,128.0,130.0,131.0,23.0,-104.0,-73.0,127.0,127.0,127.0,111.0,87.0,-92.0
130.0,131.0,126.0,128.0,126.0,128.0,130.0,131.0,23.0,-104.0,-73.0,127.0,127.0,127.0,111.0,87.0,-92.0
130.0,132.0,126.0,128.0,127.0,129.0,130.0,131.0,23.0,-104.0,-73.0,127.0,127.0,127.0,111.0,87.0,-92.0
130.0,132.0,126.0,128.0,127.0,129.0,130.0,131.0,23.0,-104.0,-73.0,127.0,127.0,127.0,111.0,87.0,-92.0
130.0,132.0,126.0,128.0,127.0,129.0,130.0,131.0,23.0,-104.0,-73.0,127.0,127.0,127.0,111.0,87.0,-92.0
130.0,132.0,126.0,128.0,127.0,130.0,130.0,131.0,23.0,-104.0,-73.0,127.0,127.0,127.0,111.0,87.0,-92.0
130.0,132.0,126.0,128.0,127.0,130.0,130.0,131.0,23.0,-104.0,-73.0,127.0,127.0,127.0,111.0,87.0,-92.0
130.0,132.0,127.0,127.0,127.0,130.0,130.0,131.0,23.0,-104.0,-73.0,127.0,127.0,127.0,111.0,87.0,-92.0
127.0,129.0,128.0,127.0,126.0,131.0,128.0,130.0,23.0,-104.0,-74.0,127.0,127.0,127.0,111.0,87.0,-92.0
127.0,129.0,128.0,127.0,126.0,130.0,127.0,130.0,23.0,-104.0,-74.0,127.0,127.0,127.0,111.0,87.0,-92.0
127.0,129.0,128.0,127.0,126.0,130.0,127.0,129.0,23.0,-104.0,-74.0,127.0,127.0,127.0,111.0,87.0,-92.0
127.0,129.0,127.0,127.0,126.0,131.0,127.0,129.0,23.0,-104.0,-74.0,127.0,127.0,127.0,111.0,87.0,-92.0
127.0,129.0,128.0,127.0,126.0,131.0,127.0,129.0,23.0,-104.0,-74.0,127.0,127.0,127.0,111.0,87.0,-92.0
127.0,129.0,128.0,127.0,126.0,131.0,127.0,129.0,23.0,-104.0,-74.0,127.0,127.0,127.0,111.0,87.0,-92.0
127.0,129.0,128.0,127.0,126.0,131.0,127.0,129.0,23.0,-104.0,-74.0,127.0,127.0,127.0,111.0,87.0,-92.0
127.0,128.0,128.0,127.0,126.0,131.0,127.0,129.0,23.0,-104.0,-74.0,127.0,127.0,127.0,111.0,87.0,-92.0
127.0,128.0,128.0,127.0,126.0,131.0,127.0,129.0,23.0,-104.0,-74.0,127.0,127.0,127.0,111.0,87.0,-92.0
127.0,129.0,128.0,127.0,126.0,130.0,128.0,130.0,23.0,-104.0,-74.0,127.0,127.0,127.0,111.0,87.0,-92.0
125.0,127.0,129.0,127.0,126.0,130.0,126.0,129.0,24.0,-104.0,-74.0,127.0,127.0,127.0,111.0,87.0,-92.0
125.0,127.0,129.0,126.0,126.0,130.0,126.0,129.0,24.0,-104.0,-74.0,127.0,127.0,127.0,111.0,87.0,-92.0
125.0,127.0,129.0,126.0,126.0,131.0,126.0,129.0,24.0,-104.0,-74.0,127.0,127.0,127.0,111.0,87.0,-92.0
126.0,127.0,129.0,126.0,126.0,131.0,126.0,129.0,24.0,-104.0,-74.0,127.0,127.0,127.0,111.0,87.0,-92.0
125.0,127.0,129.0,126.0,126.0,131.0,126.0,129.0,24.0,-104.0,-74.0,127.0,127.0,127.0,111.0,87.0,-92.0
125.0,127.0,129.0,126.0,126.0,131.0,126.0,129.0,24.0,-104.0,-74.0,127.0,127.0,127.0,111.0,87.0,-92.0
125.0,127.0,129.0,126.0,126.0,130.0,126.0,129.0,24.0,-104.0,-74.0,127.0,127.0,127.0,111.0,87.0,-92.0
125.0,127.0,129.0,126.0,126.0,130.0,126.0,129.0,24.0,-104.0,-74.0,127.0,127.0,127.0,111.0,87.0,-92.0
125.0,127.0,129.0,126.0,126.0,130.0,126.0,129.0,24.0,-104.0,-74.0,127.0,127.0,127.0,111.0,87.0,-92.0
125.0,127.0,129.0,126.0,126.0,130.0,126.0,129.0,24.0,-104.0,-74.0,127.0,127.0,127.0,111.0,87.0,-92.0
127.0,128.0,127.0,127.0,127.0,129.0,125.0,129.0,24.0,-104.0,-75.0,127.0,127.0,127.0,111.0,87.0,-92.0
127.0,128.0,127.0,127.0,127.0,129.0,125.0,129.0,24.0,-104.0,-75.0,127.0,127.0,127.0,111.0,87.0,-92.0
127.0,128.0,127.0,127.0,127.0,129.0,125.0,129.0,24.0,-104.0,-75.0,127.0,127.0,127.0,111.0,87.0,-92.0
127.0,128.0,127.0,127.0,127.0,129.0,125.0,129.0,24.0,-104.0,-75.0,127.0,127.0,127.0,111.0,87.0,-92.0
127.0,128.0,127.0,127.0,127.0,130.0,125.0,128.0,24.0,-104.0,-75.0,127.0,127.0,127.0,111.0,87.0,-92.0
127.0,128.0,127.0,127.0,127.0,130.0,125.0,128.0,24.0,-104.0,-75.0,127.0,127.0,127.0,111.0,87.0,-92.0
127.0,128.0,127.0,127.0,127.0,129.0,125.0,128.0,24.0,-104.0,-75.0,127.0,127.0,127.0,111.0,87.0,-92.0
126.0,128.0,128.0,127.0,126.0,128.0,126.0,129.0,24.0,-104.0,-75.0,127.0,127.0,127.0,111.0,87.0,-92.0
127.0,128.0,127.0,127.0,127.0,129.0,126.0,129.0,24.0,-104.0,-75.0,127.0,127.0,127.0,111.0,87.0,-92.0
127.0,128.0,127.0,127.0,127.0,129.0,125.0,129.0,24.0,-104.0,-75.0,127.0,127.0,127.0,111.0,87.0,-92.0
125.0,125.0,129.0,127.0,127.0,129.0,122.0,127.0,24.0,-104.0,-75.0,127.0,127.0,127.0,111.0,87.0,-92.0
125.0,125.0,129.0,127.0,127.0,129.0,122.0,127.0,24.0,-104.0,-75.0,127.0,127.0,127.0,111.0,87.0,-92.0
124.0,125.0,129.0,127.0,127.0,129.0,122.0,127.0,24.0,-104.0,-75.0,127.0,127.0,127.0,111.0,87.0,-92.0
124.0,125.0,129.0,127.0,127.0,129.0,122.0,127.0,24.0,-104.0,-75.0,127.0,127.0,127.0,111.0,87.0,-92.0
124.0,125.0,129.0,127.0,126.0,129.0,122.0,127.0,24.0,-104.0,-75.0,127.0,127.0,127.0,111.0,87.0,-92.0
124.0,125.0,129.0,127.0,127.0,129.0,122.0,127.0,24.0,-104.0,-75.0,127.0,127.0,127.0,111.0,87.0,-92.0
125.0,126.0,129.0,127.0,126.0,128.0,123.0,127.0,24.0,-104.0,-75.0,127.0,127.0,127.0,111.0,87.0,-92.0
125.0,125.0,129.0,127.0,127.0,128.0,123.0,127.0,24.0,-104.0,-75.0,127.0,127.0,127.0,111.0,87.0,-92.0
124.0,125.0,129.0,127.0,127.0,128.0,123.0,127.0,24.0,-104.0,-75.0,127.0,127.0,127.0,111.0,87.0,-92.0
124.0,125.0,129.0,127.0,126.0,128.0,123.0,127.0,24.0,-104.0,-75.0,127.0,127.0,127.0,111.0,87.0,-92.0
122.0,124.0,129.0,126.0,126.0,130.0,121.0,125.0,24.0,-104.0,-75.0,127.0,127.0,127.0,111.0,87.0,-92.0
122.0,124.0,129.0,126.0,126.0,130.0,121.0,125.0,24.0,-104.0,-75.0,127.0,127.0,127.0,111.0,87.0,-92.0
122.0,123.0,129.0,126.0,126.0,130.0,121.0,125.0,24.0,-104.0,-75.0,127.0,127.0,127.0,111.0,87.0,-92.0
122.0,123.0,129.0,126.0,126.0,130.0,121.0,125.0,24.0,-104.0,-75.0,127.0,127.0,127.0,111.0,87.0,-92.0
122.0,123.0,129.0,126.0,126.0,130.0,121.0,125.0,24.0,-104.0,-75.0,127.0,127.0,127.0,111.0,87.0,-92.0
122.0,123.0,129.0,126.0,126.0,129.0,121.0,125.0,24.0,-104.0,-75.0,127.0,127.0,127.0,111.0,87.0,-92.0
122.0,123.0,129.0,126.0,126.0,129.0,121.0,125.0,24.0,-104.0,-75.0,127.0,127.0,127.0,111.0,87.0,-92.0
122.0,123.0,129.0,126.0,126.0,129.0,121.0,125.0,24.0,-104.0,-75.0,127.0,127.0,127.0,111.0,87.0,-92.0
122.0,123.0,129.0,126.0,126.0,129.0,121.0,125.0,24.0,-104.0,-75.0,127.0,127.0,127.0,111.0,87.0,-92.0
122.0,123.0,129.0,126.0,126.0,130.0,121.0,125.0,24.0,-104.0,-75.0,127.0,127.0,127.0,111.0,87.0,-92.0
122.0,123.0,128.0,126.0,126.0,129.0,123.0,126.0,23.0,-104.0,-76.0,127.0,127.0,127.0,111.0,87.0,-92.0
122.0,124.0,128.0,126.0,126.0,129.0,123.0,126.0,23.0,-104.0,-76.0,127.0,127.0,127.0,111.0,87.0,-92.0
123.0,124.0,128.0,126.0,126.0,130.0,123.0,126.0,23.0,-104.0,-76.0,127.0,127.0,127.0,111.0,87.0,-92.0
123.0,124.0,128.0,126.0,126.0,130.0,124.0,126.0,23.0,-104.0,-76.0,127.0,127.0,127.0,111.0,87.0,-92.0
122.0,123.0,128.0,126.0,127.0,129.0,123.0,125.0,23.0,-104.0,-76.0,127.0,127.0,127.0,111.0,87.0,-92.0
122.0,123.0,128.0,126.0,127.0,129.0,123.0,126.0,23.0,-104.0,-76.0,127.0,127.0,127.0,111.0,87.0,-92.0
122.0,123.0,128.0,126.0,127.0,129.0,123.0,126.0,23.0,-104.0,-76.0,127.0,127.0,127.0,111.0,87.0,-92.0
122.0,123.0,129.0,126.0,126.0,129.0,123.0,126.0,23.0,-104.0,-76.0,127.0,127.0,127.0,111.0,87.0,-92.0
122.0,123.0,129.0,126.0,126.0,129.0,123.0,126.0,23.0,-104.0,-76.0,127.0,127.0,127.0,111.0,87.0,-92.0
122.0,123.0,128.0,126.0,126.0,129.0,123.0,126.0,23.0,-104.0,-76.0,127.0,127.0,127.0,111.0,87.0,-92.0
125.0,127.0,125.0,127.0,127.0,128.0,127.0,128.0,23.0,-104.0,-75.0,127.0,127.0,127.0,111.0,87.0,-92.0
125.0,127.0,125.0,127.0,127.0,128.0,127.0,128.0,23.0,-104.0,-75.0,127.0,127.0,127.0,111.0,87.0,-92.0
125.0,127.0,125.0,127.0,127.0,128.0,127.0,128.0,23.0,-104.0,-75.0,127.0,127.0,127.0,111.0,87.0,-92.0
125.0,127.0,125.0,127.0,127.0,128.0,127.0,128.0,23.0,-104.0,-75.0,127.0,127.0,127.0,111.0,87.0,-92.0
125.0,127.0,125.0,127.0,127.0,128.0,127.0,128.0,23.0,-104.0,-75.0,127.0,127.0,127.0,111.0,87.0,-92.0
125.0,127.0,125.0,127.0,127.0,128.0,127.0,128.0,23.0,-104.0,-75.0,127.0,127.0,127.0,111.0,87.0,-92.0
125.0,127.0,125.0,127.0,127.0,128.0,127.0,128.0,23.0,-104.0,-75.0,127.0,127.0,127.0,111.0,87.0,-92.0
125.0,127.0,125.0,127.0,127.0,128.0,127.0,128.0,23.0,-104.0,-75.0,127.0,127.0,127.0,111.0,87.0,-92.0
125.0,127.0,125.0,127.0,127.0,128.0,127.0,128.0,23.0,-104.0,-75.0,127.0,127.0,127.0,111.0,87.0,-92.0
125.0,127.0,125.0,127.0,127.0,128.0,127.0,128.0,23.0,-104.0,-75.0,127.0,127.0,127.0,111.0,87.0,-92.0
126.0,129.0,125.0,128.0,127.0,129.0,127.0,128.0,23.0,-104.0,-75.0,127.0,127.0,127.0,111.0,87.0,-92.0
126.0,129.0,125.0,128.0,127.0,129.0,127.0,128.0,23.0,-104.0,-75.0,127.0,127.0,127.0,111.0,87.0,-92.0
127.0,130.0,124.0,128.0,127.0,129.0,127.0,128.0,23.0,-104.0,-75.0,127.0,127.0,127.0,111.0,87.0,-92.0
127.0,130.0,124.0,128.0,127.0,129.0,127.0,128.0,23.0,-104.0,-75.0,127.0,127.0,127.0,111.0,87.0,-92.0
127.0,129.0,124.0,128.0,127.0,129.0,127.0,128.0,23.0,-104.0,-75.0,127.0,127.0,127.0,111.0,87.0,-92.0
127.0,129.0,124.0,128.0,127.0,129.0,127.0,128.0,23.0,-104.0,-75.0,127.0,127.0,127.0,111.0,87.0,-92.0
126.0,129.0,124.0,128.0,127.0,129.0,127.0,128.0,23.0,-104.0,-75.0,127.0,127.0,127.0,111.0,87.0,-92.0
127.0,130.0,124.0,128.0,127.0,129.0,127.0,128.0,23.0,-104.0,-75.0,127.0,127.0,127.0,111.0,87.0,-92.0
127.0,129.0,124.0,128.0,127.0,129.0,127.0,128.0,23.0,-104.0,-75.0,127.0,127.0,127.0,111.0,87.0,-92.0
126.0,129.0,124.0,128.0,127.0,129.0,127.0,128.0,23.0,-104.0,-75.0,127.0,127.0,127.0,111.0,87.0,-92.0
125.0,127.0,127.0,127.0,127.0,129.0,127.0,128.0,23.0,-104.0,-75.0,127.0,127.0,127.0,111.0,87.0,-92.0
126.0,128.0,126.0,127.0,127.0,128.0,127.0,128.0,23.0,-104.0,-75.0,127.0,127.0,127.0,111.0,87.0,-92.0
125.0,127.0,126.0,127.0,127.0,128.0,127.0,128.0,23.0,-104.0,-75.0,127.0,127.0,127.0,111.0,87.0,-92.0
125.0,127.0,126.0,127.0,127.0,127.0,127.0,128.0,23.0,-104.0,-75.0,127.0,127.0,127.0,111.0,87.0,-92.0
125.0,127.0,127.0,127.0,127.0,127.0,127.0,128.0,23.0,-104.0,-75.0,127.0,127.0,127.0,111.0,87.0,-92.0
125.0,127.0,127.0,127.0,127.0,128.0,127.0,128.0,23.0,-104.0,-75.0,127.0,127.0,127.0,111.0,87.0,-92.0
125.0,127.0,126.0,127.0,127.0,128.0,127.0,128.0,23.0,-104.0,-75.0,127.0,127.0,127.0,111.0,87.0,-92.0
125.0,127.0,127.0,127.0,127.0,128.0,127.0,128.0,23.0,-104.0,-75.0,127.0,127.0,127.0,111.0,87.0,-92.0
125.0,127.0,127.0,127.0,127.0,128.0,127.0,128.0,23.0,-104.0,-75.0,127.0,127.0,127.0,111.0,87.0,-92.0
125.0,128.0,127.0,127.0,127.0,129.0,127.0,128.0,23.0,-104.0,-75.0,127.0,127.0,127.0,111.0,87.0,-92.0
126.0,127.0,127.0,127.0,127.0,128.0,127.0,128.0,23.0,-104.0,-75.0,127.0,127.0,127.0,111.0,87.0,-92.0
126.0,127.0,127.0,127.0,127.0,128.0,127.0,128.0,23.0,-104.0,-75.0,127.0,127.0,127.0,111.0,87.0,-92.0
126.0,127.0,126.0,127.0,127.0,129.0,127.0,128.0,23.0,-104.0,-75.0,127.0,127.0,127.0,111.0,87.0,-92.0
126.0,127.0,127.0,127.0,127.0,128.0,127.0,128.0,23.0,-104.0,-75.0,127.0,127.0,127.0,111.0,87.0,-92.0
126.0,127.0,127.0,127.0,127.0,128.0,127.0,128.0,23.0,-104.0,-75.0,127.0,127.0,127.0,111.0,87.0,-92.0
126.0,127.0,126.0,127.0,127.0,129.0,127.0,128.0,23.0,-104.0,-75.0,127.0,127.0,127.0,111.0,87.0,-92.0
126.0,127.0,126.0,127.0,127.0,129.0,127.0,128.0,23.0,-104.0,-75.0,127.0,127.0,127.0,111.0,87.0,-92.0
125.0,127.0,127.0,127.0,127.0,129.0,127.0,128.0,23.0,-104.0,-75.0,127.0,127.0,127.0,111.0,87.0,-92.0
126.0,127.0,127.0,127.0,127.0,129.0,127.0,128.0,23.0,-104.0,-75.0,127.0,127.0,127.0,111.0,87.0,-92.0
126.0,127.0,127.0,127.0,127.0,129.0,127.0,128.0,23.0,-104.0,-75.0,127.0,127.0,127.0,111.0,87.0,-92.0
125.0,126.0,127.0,126.0,127.0,128.0,126.0,128.0,24.0,-104.0,-75.0,127.0,127.0,127.0,111.0,87.0,-92.0
125.0,126.0,127.0,126.0,126.0,128.0,126.0,128.0,24.0,-104.0,-75.0,127.0,127.0,127.0,111.0,87.0,-92.0
125.0,126.0,127.0,126.0,127.0,128.0,126.0,128.0,24.0,-104.0,-75.0,127.0,127.0,127.0,111.0,87.0,-92.0
124.0,125.0,127.0,126.0,127.0,128.0,126.0,127.0,24.0,-104.0,-75.0,127.0,127.0,127.0,111.0,87.0,-92.0
125.0,126.0,127.0,126.0,127.0,128.0,126.0,127.0,24.0,-104.0,-75.0,127.0,127.0,127.0,111.0,87.0,-92.0
124.0,125.0,127.0,126.0,126.0,128.0,125.0,127.0,24.0,-104.0,-75.0,127.0,127.0,127.0,111.0,87.0,-92.0
124.0,125.0,127.0,126.0,126.0,128.0,125.0,127.0,24.0,-104.0,-75.0,127.0,127.0,127.0,111.0,87.0,-92.0
124.0,125.0,127.0,126.0,126.0,129.0,125.0,127.0,24.0,-104.0,-75.0,127.0,127.0,127.0,111.0,87.0,-92.0
125.0,126.0,127.0,126.0,127.0,128.0,126.0,128.0,24.0,-104.0,-75.0,127.0,127.0,127.0,111.0,87.0,-92.0
125.0,126.0,127.0,126.0,127.0,128.0,126.0,128.0,24.0,-104.0,-75.0,127.0,127.0,127.0,111.0,87.0,-92.0
121.0,122.0,129.0,126.0,126.0,128.0,122.0,126.0,25.0,-104.0,-75.0,127.0,127.0,127.0,111.0,87.0,-92.0
121.0,122.0,129.0,126.0,126.0,128.0,122.0,126.0,25.0,-104.0,-75.0,127.0,127.0,127.0,111.0,87.0,-92.0
121.0,122.0,129.0,126.0,126.0,128.0,122.0,126.0,25.0,-104.0,-75.0,127.0,127.0,127.0,111.0,87.0,-92.0
121.0,122.0,129.0,126.0,126.0,128.0,122.0,126.0,25.0,-104.0,-75.0,127.0,127.0,127.0,111.0,87.0,-92.0
121.0,122.0,129.0,126.0,126.0,128.0,122.0,126.0,25.0,-104.0,-75.0,127.0,127.0,127.0,111.0,87.0,-92.0
121.0,122.0,129.0,125.0,126.0,128.0,122.0,125.0,25.0,-104.0,-75.0,127.0,127.0,127.0,111.0,87.0,-92.0
121.0,122.0,129.0,125.0,126.0,129.0,122.0,125.0,25.0,-104.0,-75.0,127.0,127.0,127.0,111.0,87.0,-92.0
122.0,123.0,128.0,126.0,126.0,128.0,122.0,126.0,25.0,-104.0,-75.0,127.0,127.0,127.0,111.0,87.0,-92.0
122.0,123.0,128.0,126.0,126.0,128.0,122.0,126.0,25.0,-104.0,-75.0,127.0,127.0,127.0,111.0,87.0,-92.0
122.0,122.0,129.0,126.0,126.0,128.0,122.0,126.0,25.0,-104.0,-75.0,127.0,127.0,127.0,111.0,87.0,-92.0
119.0,120.0,129.0,126.0,126.0,130.0,118.0,124.0,26.0,-103.0,-75.0,127.0,127.0,127.0,111.0,87.0,-92.0
119.0,120.0,129.0,126.0,126.0,130.0,118.0,124.0,26.0,-103.0,-75.0,127.0,127.0,127.0,111.0,87.0,-92.0
119.0,120.0,129.0,126.0,126.0,130.0,118.0,124.0,26.0,-103.0,-75.0,127.0,127.0,127.0,111.0,87.0,-92.0
119.0,120.0,129.0,126.0,126.0,130.0,118.0,124.0,26.0,-103.0,-75.0,127.0,127.0,127.0,111.0,87.0,-92.0
119.0,120.0,129.0,126.0,126.0,130.0,118.0,124.0,26.0,-103.0,-75.0,127.0,127.0,127.0,111.0,87.0,-92.0
119.0,120.0,129.0,126.0,126.0,130.0,118.0,124.0,26.0,-103.0,-75.0,127.0,127.0,127.0,111.0,87.0,-92.0
119.0,120.0,129.0,126.0,126.0,129.0,118.0,124.0,26.0,-103.0,-75.0,127.0,127.0,127.0,111.0,87.0,-92.0
119.0,120.0,129.0,126.0,126.0,129.0,118.0,124.0,26.0,-103.0,-75.0,127.0,127.0,127.0,111.0,87.0,-92.0
119.0,120.0,130.0,126.0,126.0,129.0,118.0,124.0,26.0,-103.0,-75.0,127.0,127.0,127.0,111.0,87.0,-92.0
119.0,120.0,129.0,126.0,126.0,130.0,118.0,124.0,26.0,-103.0,-75.0,127.0,127.0,127.0,111.0,87.0,-92.0
119.0,120.0,127.0,126.0,126.0,128.0,119.0,124.0,27.0,-103.0,-75.0,127.0,127.0,127.0,111.0,87.0,-92.0
119.0,120.0,127.0,126.0,126.0,129.0,119.0,124.0,27.0,-103.0,-75.0,127.0,127.0,127.0,111.0,87.0,-92.0
119.0,121.0,127.0,126.0,126.0,129.0,119.0,124.0,27.0,-103.0,-75.0,127.0,127.0,127.0,111.0,87.0,-92.0
119.0,120.0,127.0,126.0,126.0,129.0,119.0,124.0,27.0,-103.0,-75.0,127.0,127.0,127.0,111.0,87.0,-92.0
119.0,120.0,127.0,126.0,126.0,129.0,119.0,124.0,27.0,-103.0,-75.0,127.0,127.0,127.0,111.0,87.0,-92.0
120.0,121.0,127.0,126.0,126.0,129.0,119.0,124.0,27.0,-103.0,-75.0,127.0,127.0,127.0,111.0,87.0,-92.0
120.0,121.0,127.0,126.0,126.0,129.0,119.0,124.0,27.0,-103.0,-75.0,127.0,127.0,127.0,111.0,87.0,-92.0
120.0,121.0,127.0,126.0,126.0,129.0,119.0,124.0,27.0,-103.0,-75.0,127.0,127.0,127.0,111.0,87.0,-92.0
119.0,120.0,127.0,126.0,126.0,129.0,119.0,124.0,27.0,-103.0,-75.0,127.0,127.0,127.0,111.0,87.0,-92.0
119.0,120.0,127.0,126.0,126.0,128.0,119.0,124.0,27.0,-103.0,-75.0,127.0,127.0,127.0,111.0,87.0,-92.0
122.0,124.0,125.0,127.0,127.0,129.0,124.0,126.0,27.0,-102.0,-75.0,127.0,127.0,127.0,111.0,87.0,-92.0
122.0,124.0,126.0,127.0,127.0,129.0,125.0,127.0,27.0,-102.0,-75.0,127.0,127.0,127.0,111.0,87.0,-92.0
122.0,124.0,126.0,127.0,127.0,129.0,125.0,127.0,27.0,-102.0,-75.0,127.0,127.0,127.0,111.0,87.0,-92.0
122.0,124.0,126.0,127.0,127.0,129.0,125.0,127.0,27.0,-102.0,-75.0,127.0,127.0,127.0,111.0,87.0,-92.0
121.0,123.0,126.0,126.0,127.0,129.0,124.0,126.0,27.0,-102.0,-75.0,127.0,127.0,127.0,111.0,87.0,-92.0
121.0,123.0,126.0,126.0,127.0,129.0,124.0,126.0,27.0,-102.0,-75.0,127.0,127.0,127.0,111.0,87.0,-92.0
121.0,123.0,126.0,127.0,127.0,129.0,124.0,126.0,27.0,-102.0,-75.0,127.0,127.0,127.0,111.0,87.0,-92.0
122.0,124.0,126.0,127.0,127.0,129.0,124.0,126.0,27.0,-102.0,-75.0,127.0,127.0,127.0,111.0,87.0,-92.0
122.0,124.0,125.0,127.0,127.0,129.0,124.0,126.0,27.0,-102.0,-75.0,127.0,127.0,127.0,111.0,87.0,-92.0
122.0,124.0,125.0,127.0,127.0,129.0,124.0,126.0,27.0,-102.0,-75.0,127.0,127.0,127.0,111.0,87.0,-92.0
123.0,127.0,124.0,127.0,127.0,128.0,129.0,128.0,27.0,-102.0,-75.0,127.0,127.0,127.0,111.0,87.0,-92.0
124.0,127.0,124.0,127.0,127.0,128.0,129.0,128.0,27.0,-102.0,-75.0,127.0,127.0,127.0,111.0,87.0,-92.0
124.0,127.0,124.0,127.0,127.0,128.0,130.0,128.0,27.0,-102.0,-75.0,127.0,127.0,127.0,111.0,87.0,-92.0
123.0,126.0,124.0,127.0,127.0,128.0,129.0,128.0,27.0,-102.0,-75.0,127.0,127.0,127.0,111.0,87.0,-92.0
123.0,126.0,124.0,127.0,127.0,127.0,129.0,128.0,27.0,-102.0,-75.0,127.0,127.0,127.0,111.0,87.0,-92.0
123.0,126.0,124.0,127.0,127.0,127.0,129.0,128.0,27.0,-102.0,-75.0,127.0,127.0,127.0,111.0,87.0,-92.0
123.0,127.0,124.0,127.0,127.0,128.0,129.0,128.0,27.0,-102.0,-75.0,127.0,127.0,127.0,111.0,87.0,-92.0
123.0,127.0,124.0,127.0,127.0,128.0,129.0,128.0,27.0,-102.0,-75.0,127.0,127.0,127.0,111.0,87.0,-92.0
123.0,127.0,124.0,127.0,127.0,128.0,129.0,128.0,27.0,-102.0,-75.0,127.0,127.0,127.0,111.0,87.0,-92.0
123.0,127.0,124.0,127.0,127.0,128.0,129.0,128.0,27.0,-102.0,-75.0,127.0,127.0,127.0,111.0,87.0,-92.0
125.0,129.0,124.0,128.0,128.0,126.0,129.0,128.0,27.0,-102.0,-75.0,126.0,127.0,127.0,111.0,87.0,-92.0
125.0,129.0,124.0,128.0,128.0,126.0,129.0,128.0,27.0,-102.0,-75.0,126.0,127.0,127.0,111.0,87.0,-92.0
125.0,129.0,124.0,128.0,128.0,126.0,129.0,128.0,27.0,-102.0,-75.0,126.0,127.0,127.0,111.0,87.0,-92.0
125.0,129.0,124.0,128.0,128.0,126.0,129.0,128.0,27.0,-102.0,-75.0,126.0,127.0,127.0,111.0,87.0,-92.0
125.0,129.0,124.0,128.0,128.0,126.0,129.0,128.0,27.0,-102.0,-75.0,126.0,127.0,127.0,111.0,87.0,-92.0
125.0,129.0,124.0,129.0,128.0,126.0,129.0,128.0,27.0,-102.0,-75.0,126.0,127.0,127.0,111.0,87.0,-92.0
125.0,130.0,124.0,129.0,128.0,127.0,129.0,128.0,27.0,-102.0,-75.0,126.0,127.0,127.0,111.0,87.0,-92.0
125.0,130.0,124.0,128.0,128.0,127.0,129.0,128.0,27.0,-102.0,-75.0,126.0,127.0,127.0,111.0,87.0,-92.0
125.0,129.0,124.0,128.0,128.0,127.0,129.0,128.0,27.0,-102.0,-75.0,126.0,127.0,127.0,111.0,87.0,-92.0
125.0,129.0,124.0,128.0,128.0,126.0,129.0,128.0,27.0,-102.0,-75.0,126.0,127.0,127.0,111.0,87.0,-92.0
126.0,129.0,116.0,128.0,128.0,122.0,133.0,129.0,25.0,-103.0,-74.0,126.0,127.0,127.0,111.0,87.0,-92.0
126.0,130.0,112.0,116.0,125.0,123.0,132.0,129.0,25.0,-103.0,-74.0,126.0,127.0,127.0,111.0,87.0,-92.0
126.0,129.0,111.0,116.0,125.0,123.0,132.0,129.0,25.0,-103.0,-74.0,126.0,127.0,127.0,111.0,87.0,-92.0
126.0,129.0,111.0,118.0,126.0,122.0,132.0,129.0,25.0,-103.0,-74.0,126.0,127.0,127.0,111.0,87.0,-92.0
126.0,129.0,112.0,119.0,126.0,122.0,132.0,129.0,25.0,-103.0,-74.0,126.0,127.0,127.0,111.0,87.0,-92.0
126.0,129.0,113.0,122.0,126.0,122.0,132.0,129.0,25.0,-103.0,-74.0,126.0,127.0,127.0,111.0,87.0,-92.0
126.0,129.0,114.0,124.0,127.0,122.0,133.0,129.0,25.0,-103.0,-74.0,126.0,127.0,127.0,111.0,87.0,-92.0
126.0,129.0,114.0,126.0,127.0,122.0,133.0,129.0,25.0,-103.0,-74.0,126.0,127.0,127.0,111.0,87.0,-92.0
126.0,129.0,114.0,127.0,127.0,122.0,133.0,129.0,25.0,-103.0,-74.0,126.0,127.0,127.0,111.0,87.0,-92.0
126.0,129.0,115.0,127.0,128.0,122.0,133.0,129.0,25.0,-103.0,-74.0,126.0,127.0,127.0,111.0,87.0,-92.0
129.0,131.0,90.0,129.0,133.0,113.0,136.0,130.0,24.0,-103.0,-74.0,127.0,127.0,127.0,111.0,87.0,-92.0
129.0,131.0,89.0,132.0,133.0,112.0,136.0,130.0,24.0,-103.0,-74.0,127.0,127.0,127.0,111.0,87.0,-92.0
129.0,131.0,88.0,135.0,132.0,111.0,136.0,130.0,24.0,-103.0,-74.0,127.0,127.0,127.0,111.0,87.0,-92.0
129.0,132.0,87.0,138.0,132.0,110.0,136.0,130.0,24.0,-103.0,-74.0,127.0,127.0,127.0,111.0,87.0,-92.0
129.0,132.0,86.0,140.0,132.0,110.0,137.0,129.0,24.0,-103.0,-74.0,127.0,127.0,127.0,111.0,87.0,-92.0
129.0,132.0,84.0,140.0,132.0,109.0,137.0,129.0,24.0,-103.0,-74.0,127.0,127.0,127.0,111.0,87.0,-92.0
129.0,132.0,82.0,140.0,132.0,108.0,137.0,129.0,24.0,-103.0,-74.0,127.0,127.0,127.0,111.0,87.0,-92.0
129.0,132.0,80.0,138.0,131.0,107.0,137.0,128.0,24.0,-103.0,-74.0,127.0,127.0,127.0,111.0,87.0,-92.0
129.0,132.0,76.0,134.0,131.0,106.0,137.0,128.0,24.0,-103.0,-74.0,127.0,127.0,127.0,111.0,87.0,-92.0
128.0,131.0,72.0,130.0,130.0,104.0,137.0,128.0,24.0,-103.0,-74.0,127.0,127.0,127.0,111.0,87.0,-92.0
131.0,136.0,0.0,136.0,132.0,46.0,135.0,123.0,24.0,-103.0,-73.0,127.0,127.0,127.0,111.0,87.0,-92.0
131.0,136.0,0.0,138.0,131.0,46.0,135.0,123.0,24.0,-103.0,-73.0,127.0,127.0,127.0,111.0,87.0,-92.0
131.0,135.0,0.0,140.0,131.0,45.0,135.0,123.0,24.0,-103.0,-73.0,127.0,127.0,127.0,111.0,87.0,-92.0
130.0,135.0,0.0,143.0,131.0,45.0,134.0,122.0,24.0,-103.0,-73.0,127.0,127.0,127.0,111.0,87.0,-92.0
130.0,135.0,0.0,146.0,130.0,44.0,134.0,122.0,24.0,-103.0,-73.0,127.0,127.0,127.0,111.0,87.0,-92.0
129.0,135.0,0.0,149.0,130.0,44.0,134.0,122.0,24.0,-103.0,-73.0,127.0,127.0,127.0,111.0,87.0,-92.0
130.0,135.0,0.0,152.0,130.0,44.0,134.0,123.0,24.0,-103.0,-73.0,127.0,127.0,127.0,111.0,87.0,-92.0
130.0,136.0,0.0,153.0,130.0,44.0,135.0,126.0,24.0,-103.0,-73.0,127.0,127.0,127.0,111.0,87.0,-92.0
131.0,136.0,0.0,152.0,130.0,43.0,136.0,131.0,24.0,-103.0,-73.0,127.0,127.0,127.0,111.0,87.0,-92.0
131.0,135.0,0.0,135.0,132.0,46.0,136.0,123.0,24.0,-103.0,-73.0,127.0,127.0,127.0,111.0,87.0,-92.0
139.0,147.0,0.0,158.0,135.0,0.0,136.0,149.0,23.0,-103.0,-71.0,-128.0,127.0,127.0,111.0,87.0,-92.0
139.0,147.0,0.0,155.0,134.0,0.0,136.0,149.0,23.0,-103.0,-71.0,-128.0,127.0,127.0,111.0,87.0,-92.0
138.0,147.0,0.0,152.0,134.0,0.0,137.0,150.0,23.0,-103.0,-71.0,-128.0,127.0,127.0,111.0,87.0,-92.0
138.0,147.0,0.0,149.0,133.0,0.0,136.0,151.0,23.0,-103.0,-71.0,-128.0,127.0,127.0,111.0,87.0,-92.0
138.0,146.0,0.0,145.0,133.0,0.0,136.0,152.0,23.0,-103.0,-71.0,-128.0,127.0,127.0,111.0,87.0,-92.0
138.0,146.0,0.0,142.0,132.0,0.0,136.0,154.0,23.0,-103.0,-71.0,-128.0,127.0,127.0,111.0,87.0,-92.0
139.0,145.0,0.0,141.0,132.0,0.0,136.0,154.0,23.0,-103.0,-71.0,-128.0,127.0,127.0,111.0,87.0,-92.0
139.0,144.0,0.0,139.0,131.0,0.0,137.0,155.0,23.0,-103.0,-71.0,-128.0,127.0,127.0,111.0,87.0,-92.0
140.0,145.0,0.0,163.0,135.0,0.0,137.0,150.0,23.0,-103.0,-71.0,-128.0,127.0,127.0,111.0,87.0,-92.0
140.0,146.0,0.0,161.0,135.0,0.0,137.0,149.0,23.0,-103.0,-71.0,-128.0,127.0,127.0,111.0,87.0,-92.0
170.0,159.0,0.0,133.0,125.0,0.0,127.0,130.0,23.0,-104.0,-75.0,-128.0,127.0,127.0,111.0,87.0,-92.0
171.0,160.0,0.0,134.0,125.0,0.0,126.0,130.0,23.0,-104.0,-75.0,-128.0,127.0,127.0,111.0,87.0,-92.0
171.0,160.0,0.0,137.0,125.0,0.0,126.0,129.0,23.0,-104.0,-75.0,-128.0,127.0,127.0,111.0,87.0,-92.0
172.0,161.0,0.0,141.0,125.0,0.0,126.0,130.0,23.0,-104.0,-75.0,-128.0,127.0,127.0,111.0,87.0,-92.0
172.0,161.0,0.0,145.0,125.0,0.0,126.0,131.0,23.0,-104.0,-75.0,-128.0,127.0,127.0,111.0,87.0,-92.0
173.0,162.0,0.0,148.0,125.0,0.0,127.0,133.0,23.0,-104.0,-75.0,-128.0,127.0,127.0,111.0,87.0,-92.0
175.0,162.0,0.0,149.0,125.0,0.0,127.0,133.0,23.0,-104.0,-75.0,-128.0,127.0,127.0,111.0,87.0,-92.0
172.0,158.0,0.0,142.0,123.0,0.0,127.0,134.0,23.0,-104.0,-75.0,-128.0,127.0,127.0,111.0,87.0,-92.0
171.0,158.0,0.0,137.0,124.0,0.0,127.0,133.0,23.0,-104.0,-75.0,-128.0,127.0,127.0,111.0,87.0,-92.0
171.0,159.0,0.0,134.0,124.0,0.0,127.0,131.0,23.0,-104.0,-75.0,-128.0,127.0,127.0,111.0,87.0,-92.0
178.0,129.0,0.0,114.0,121.0,0.0,125.0,131.0,23.0,-105.0,-78.0,-128.0,127.0,127.0,111.0,87.0,-92.0
177.0,128.0,0.0,114.0,122.0,0.0,125.0,132.0,23.0,-105.0,-78.0,-128.0,127.0,127.0,111.0,87.0,-92.0
177.0,129.0,0.0,115.0,123.0,0.0,126.0,133.0,23.0,-105.0,-78.0,-128.0,127.0,127.0,111.0,87.0,-92.0
176.0,130.0,0.0,115.0,124.0,0.0,127.0,135.0,23.0,-105.0,-78.0,-128.0,127.0,127.0,111.0,87.0,-92.0
175.0,131.0,0.0,114.0,125.0,0.0,128.0,136.0,23.0,-105.0,-78.0,-128.0,127.0,127.0,111.0,87.0,-92.0
174.0,131.0,0.0,114.0,126.0,0.0,129.0,136.0,23.0,-105.0,-78.0,-128.0,127.0,127.0,111.0,87.0,-92.0
183.0,134.0,0.0,118.0,120.0,0.0,127.0,131.0,23.0,-105.0,-78.0,-128.0,127.0,127.0,111.0,87.0,-92.0
181.0,132.0,0.0,116.0,120.0,0.0,126.0,130.0,23.0,-105.0,-78.0,-128.0,127.0,127.0,111.0,87.0,-92.0
180.0,131.0,0.0,114.0,120.0,0.0,126.0,131.0,23.0,-105.0,-78.0,-128.0,127.0,127.0,111.0,87.0,-92.0
179.0,129.0,0.0,114.0,121.0,0.0,125.0,131.0,23.0,-105.0,-78.0,-128.0,127.0,127.0,111.0,87.0,-92.0
122.0,124.0,0.0,118.0,119.0,0.0,127.0,143.0,23.0,-106.0,-78.0,-127.0,127.0,127.0,111.0,87.0,-93.0
122.0,125.0,0.0,123.0,119.0,0.0,128.0,143.0,23.0,-106.0,-78.0,-127.0,127.0,127.0,111.0,87.0,-93.0
122.0,126.0,0.0,128.0,119.0,0.0,128.0,143.0,23.0,-106.0,-78.0,-127.0,127.0,127.0,111.0,87.0,-93.0
122.0,127.0,0.0,133.0,119.0,0.0,128.0,143.0,23.0,-106.0,-78.0,-127.0,127.0,127.0,111.0,87.0,-93.0
123.0,127.0,0.0,137.0,120.0,0.0,128.0,143.0,23.0,-106.0,-78.0,-127.0,127.0,127.0,111.0,87.0,-93.0
124.0,122.0,0.0,109.0,121.0,0.0,128.0,148.0,23.0,-106.0,-78.0,-127.0,127.0,127.0,111.0,87.0,-93.0
123.0,122.0,0.0,108.0,120.0,0.0,128.0,147.0,23.0,-106.0,-78.0,-127.0,127.0,127.0,111.0,87.0,-93.0
123.0,122.0,0.0,109.0,120.0,0.0,127.0,146.0,23.0,-106.0,-78.0,-127.0,127.0,127.0,111.0,87.0,-93.0
123.0,122.0,0.0,111.0,119.0,0.0,127.0,145.0,23.0,-106.0,-78.0,-127.0,127.0,127.0,111.0,87.0,-93.0
122.0,123.0,0.0,114.0,119.0,0.0,127.0,144.0,23.0,-106.0,-78.0,-127.0,127.0,127.0,111.0,87.0,-93.0
121.0,129.0,33.0,122.0,120.0,0.0,125.0,112.0,19.0,-106.0,-75.0,-127.0,126.0,126.0,111.0,87.0,-93.0
121.0,129.0,37.0,122.0,120.0,0.0,125.0,112.0,19.0,-106.0,-75.0,-127.0,126.0,126.0,111.0,87.0,-93.0
121.0,130.0,41.0,121.0,121.0,0.0,126.0,113.0,19.0,-106.0,-75.0,-127.0,126.0,126.0,111.0,87.0,-93.0
122.0,130.0,44.0,122.0,122.0,0.0,126.0,113.0,19.0,-106.0,-75.0,-127.0,126.0,126.0,111.0,87.0,-93.0
118.0,131.0,5.0,122.0,121.0,0.0,126.0,114.0,19.0,-106.0,-75.0,-127.0,126.0,126.0,111.0,87.0,-93.0
118.0,131.0,9.0,121.0,121.0,0.0,126.0,114.0,19.0,-106.0,-75.0,-127.0,126.0,126.0,111.0,87.0,-93.0
119.0,131.0,15.0,120.0,120.0,0.0,126.0,114.0,19.0,-106.0,-75.0,-127.0,126.0,126.0,111.0,87.0,-93.0
119.0,130.0,20.0,121.0,120.0,0.0,126.0,113.0,19.0,-106.0,-75.0,-127.0,126.0,126.0,111.0,87.0,-93.0
120.0,129.0,25.0,121.0,120.0,0.0,126.0,113.0,19.0,-106.0,-75.0,-127.0,126.0,126.0,111.0,87.0,-93.0
120.0,129.0,29.0,121.0,120.0,0.0,125.0,113.0,19.0,-106.0,-75.0,-127.0,126.0,126.0,111.0,87.0,-93.0
131.0,120.0,182.0,121.0,126.0,0.0,123.0,122.0,17.0,-98.0,-77.0,127.0,126.0,127.0,111.0,87.0,-93.0
132.0,120.0,186.0,122.0,126.0,0.0,123.0,122.0,17.0,-98.0,-77.0,127.0,126.0,127.0,111.0,87.0,-93.0
132.0,120.0,191.0,121.0,127.0,0.0,123.0,122.0,17.0,-98.0,-77.0,127.0,126.0,127.0,111.0,87.0,-93.0
130.0,125.0,153.0,114.0,126.0,0.0,123.0,112.0,17.0,-98.0,-77.0,127.0,126.0,127.0,111.0,87.0,-93.0
130.0,124.0,157.0,114.0,126.0,0.0,123.0,112.0,17.0,-98.0,-77.0,127.0,126.0,127.0,111.0,87.0,-93.0
130.0,123.0,161.0,114.0,126.0,0.0,123.0,113.0,17.0,-98.0,-77.0,127.0,126.0,127.0,111.0,87.0,-93.0
130.0,122.0,165.0,114.0,125.0,0.0,123.0,114.0,17.0,-98.0,-77.0,127.0,126.0,127.0,111.0,87.0,-93.0
130.0,121.0,169.0,116.0,125.0,0.0,123.0,116.0,17.0,-98.0,-77.0,127.0,126.0,127.0,111.0,87.0,-93.0
130.0,121.0,173.0,118.0,125.0,0.0,123.0,118.0,17.0,-98.0,-77.0,127.0,126.0,127.0,111.0,87.0,-93.0
131.0,121.0,177.0,120.0,126.0,0.0,123.0,120.0,17.0,-98.0,-77.0,127.0,126.0,127.0,111.0,87.0,-93.0
128.0,121.0,254.0,129.0,132.0,0.0,122.0,125.0,14.0,-98.0,-78.0,126.0,126.0,127.0,111.0,87.0,-93.0
128.0,121.0,254.0,128.0,132.0,0.0,123.0,127.0,14.0,-98.0,-78.0,126.0,126.0,127.0,111.0,87.0,-93.0
126.0,120.0,254.0,144.0,132.0,0.0,124.0,123.0,14.0,-98.0,-78.0,126.0,126.0,127.0,111.0,87.0,-93.0
127.0,120.0,254.0,143.0,132.0,0.0,124.0,123.0,14.0,-98.0,-78.0,126.0,126.0,127.0,111.0,87.0,-93.0
127.0,120.0,254.0,141.0,132.0,0.0,124.0,122.0,14.0,-98.0,-78.0,126.0,126.0,127.0,111.0,87.0,-93.0
127.0,120.0,254.0,139.0,132.0,0.0,123.0,122.0,14.0,-98.0,-78.0,126.0,126.0,127.0,111.0,87.0,-93.0
127.0,120.0,254.0,137.0,132.0,0.0,123.0,122.0,14.0,-98.0,-78.0,126.0,126.0,127.0,111.0,87.0,-93.0
128.0,121.0,254.0,135.0,132.0,0.0,123.0,123.0,14.0,-98.0,-78.0,126.0,126.0,127.0,111.0,87.0,-93.0
128.0,121.0,254.0,133.0,132.0,0.0,122.0,123.0,14.0,-98.0,-78.0,126.0,126.0,127.0,111.0,87.0,-93.0
128.0,120.0,254.0,131.0,132.0,0.0,122.0,124.0,14.0,-98.0,-78.0,126.0,126.0,127.0,111.0,87.0,-93.0
121.0,116.0,254.0,119.0,119.0,0.0,113.0,133.0,18.0,-101.0,-77.0,127.0,126.0,127.0,111.0,87.0,-93.0
118.0,111.0,254.0,103.0,118.0,0.0,112.0,131.0,18.0,-101.0,-77.0,127.0,126.0,127.0,111.0,87.0,-93.0
118.0,112.0,254.0,105.0,118.0,0.0,112.0,131.0,18.0,-101.0,-77.0,127.0,126.0,127.0,111.0,87.0,-93.0
118.0,112.0,254.0,108.0,118.0,0.0,112.0,131.0,18.0,-101.0,-77.0,127.0,126.0,127.0,111.0,87.0,-93.0
118.0,113.0,254.0,111.0,118.0,0.0,112.0,132.0,18.0,-101.0,-77.0,127.0,126.0,127.0,111.0,87.0,-93.0
118.0,113.0,254.0,114.0,118.0,0.0,113.0,132.0,18.0,-101.0,-77.0,127.0,126.0,127.0,111.0,87.0,-93.0
118.0,113.0,254.0,115.0,118.0,0.0,113.0,132.0,18.0,-101.0,-77.0,127.0,126.0,127.0,111.0,87.0,-93.0
119.0,113.0,254.0,116.0,118.0,0.0,113.0,133.0,18.0,-101.0,-77.0,127.0,126.0,127.0,111.0,87.0,-93.0
119.0,114.0,254.0,117.0,119.0,0.0,113.0,133.0,18.0,-101.0,-77.0,127.0,126.0,127.0,111.0,87.0,-93.0
120.0,115.0,254.0,118.0,119.0,0.0,113.0,133.0,18.0,-101.0,-77.0,127.0,126.0,127.0,111.0,87.0,-93.0
120.0,112.0,254.0,120.0,137.0,0.0,123.0,128.0,23.0,-105.0,-76.0,127.0,126.0,127.0,111.0,87.0,-93.0
120.0,110.0,254.0,117.0,137.0,0.0,123.0,129.0,23.0,-105.0,-76.0,127.0,126.0,127.0,111.0,87.0,-93.0
120.0,110.0,254.0,114.0,137.0,0.0,124.0,130.0,23.0,-105.0,-76.0,127.0,126.0,127.0,111.0,87.0,-93.0
121.0,109.0,254.0,112.0,136.0,0.0,124.0,133.0,23.0,-105.0,-76.0,127.0,126.0,127.0,111.0,87.0,-93.0
121.0,108.0,254.0,110.0,136.0,0.0,125.0,136.0,23.0,-105.0,-76.0,127.0,126.0,127.0,111.0,87.0,-93.0
121.0,108.0,254.0,110.0,135.0,0.0,125.0,139.0,23.0,-105.0,-76.0,127.0,126.0,127.0,111.0,87.0,-93.0
121.0,108.0,254.0,110.0,134.0,0.0,125.0,140.0,23.0,-105.0,-76.0,127.0,126.0,127.0,111.0,87.0,-93.0
121.0,108.0,254.0,111.0,133.0,0.0,125.0,140.0,23.0,-105.0,-76.0,127.0,126.0,127.0,111.0,87.0,-93.0
122.0,107.0,254.0,112.0,131.0,0.0,125.0,140.0,23.0,-105.0,-76.0,127.0,126.0,127.0,111.0,87.0,-93.0
122.0,108.0,254.0,114.0,130.0,0.0,125.0,140.0,23.0,-105.0,-76.0,127.0,126.0,127.0,111.0,87.0,-93.0
135.0,121.0,254.0,115.0,122.0,0.0,126.0,129.0,26.0,-108.0,-76.0,127.0,126.0,127.0,111.0,87.0,-93.0
134.0,119.0,254.0,113.0,122.0,0.0,126.0,128.0,26.0,-108.0,-76.0,127.0,126.0,127.0,111.0,87.0,-93.0
133.0,117.0,254.0,112.0,121.0,0.0,125.0,127.0,26.0,-108.0,-76.0,127.0,126.0,127.0,111.0,87.0,-93.0
133.0,116.0,254.0,111.0,121.0,0.0,125.0,127.0,26.0,-108.0,-76.0,127.0,126.0,127.0,111.0,87.0,-93.0
134.0,115.0,254.0,112.0,121.0,0.0,125.0,127.0,26.0,-108.0,-76.0,127.0,126.0,127.0,111.0,87.0,-93.0
134.0,115.0,254.0,114.0,121.0,0.0,125.0,127.0,26.0,-108.0,-76.0,127.0,126.0,127.0,111.0,87.0,-93.0
135.0,115.0,254.0,118.0,122.0,0.0,125.0,128.0,26.0,-108.0,-76.0,127.0,126.0,127.0,111.0,87.0,-93.0
136.0,116.0,254.0,123.0,123.0,0.0,126.0,129.0,26.0,-108.0,-76.0,127.0,126.0,127.0,111.0,87.0,-93.0
137.0,118.0,254.0,130.0,125.0,0.0,126.0,129.0,26.0,-108.0,-76.0,127.0,126.0,127.0,111.0,87.0,-93.0
135.0,123.0,254.0,118.0,122.0,0.0,126.0,130.0,26.0,-108.0,-76.0,127.0,126.0,127.0,111.0,87.0,-93.0
130.0,122.0,254.0,136.0,123.0,52.0,126.0,124.0,25.0,-106.0,-77.0,127.0,126.0,127.0,111.0,87.0,-93.0
129.0,122.0,254.0,138.0,124.0,53.0,127.0,127.0,25.0,-106.0,-77.0,127.0,126.0,127.0,111.0,87.0,-93.0
128.0,122.0,254.0,138.0,125.0,54.0,127.0,128.0,25.0,-106.0,-77.0,127.0,126.0,127.0,111.0,87.0,-93.0
127.0,122.0,254.0,138.0,126.0,56.0,128.0,128.0,25.0,-106.0,-77.0,127.0,126.0,127.0,111.0,87.0,-93.0
126.0,122.0,254.0,137.0,127.0,58.0,128.0,128.0,25.0,-106.0,-77.0,127.0,126.0,127.0,111.0,87.0,-93.0
125.0,121.0,254.0,136.0,127.0,59.0,127.0,127.0,25.0,-106.0,-77.0,127.0,126.0,127.0,111.0,87.0,-93.0
125.0,121.0,254.0,135.0,128.0,61.0,127.0,127.0,25.0,-106.0,-77.0,127.0,126.0,127.0,111.0,87.0,-93.0
124.0,121.0,254.0,136.0,128.0,62.0,127.0,126.0,25.0,-106.0,-77.0,127.0,126.0,127.0,111.0,87.0,-93.0
131.0,120.0,254.0,129.0,120.0,48.0,124.0,118.0,25.0,-106.0,-77.0,127.0,126.0,127.0,111.0,87.0,-93.0
131.0,121.0,254.0,133.0,121.0,50.0,124.0,121.0,25.0,-106.0,-77.0,127.0,126.0,127.0,111.0,87.0,-93.0
118.0,115.0,197.0,112.0,119.0,106.0,123.0,122.0,24.0,-102.0,-76.0,127.0,126.0,127.0,111.0,87.0,-93.0
118.0,116.0,195.0,116.0,120.0,107.0,123.0,122.0,24.0,-102.0,-76.0,127.0,126.0,127.0,111.0,87.0,-93.0
119.0,117.0,193.0,121.0,120.0,107.0,123.0,123.0,24.0,-102.0,-76.0,127.0,126.0,127.0,111.0,87.0,-93.0
119.0,118.0,191.0,125.0,121.0,108.0,124.0,124.0,24.0,-102.0,-76.0,127.0,126.0,127.0,111.0,87.0,-93.0
120.0,120.0,190.0,130.0,122.0,108.0,124.0,124.0,24.0,-102.0,-76.0,127.0,126.0,127.0,111.0,87.0,-93.0
121.0,122.0,188.0,133.0,123.0,108.0,124.0,125.0,24.0,-102.0,-76.0,127.0,126.0,127.0,111.0,87.0,-93.0
122.0,123.0,186.0,135.0,124.0,108.0,124.0,125.0,24.0,-102.0,-76.0,127.0,126.0,127.0,111.0,87.0,-93.0
118.0,114.0,202.0,103.0,121.0,105.0,123.0,121.0,24.0,-102.0,-76.0,127.0,126.0,127.0,111.0,87.0,-93.0
118.0,114.0,200.0,105.0,120.0,105.0,123.0,121.0,24.0,-102.0,-76.0,127.0,126.0,127.0,111.0,87.0,-93.0
118.0,114.0,198.0,109.0,119.0,106.0,123.0,121.0,24.0,-102.0,-76.0,127.0,126.0,127.0,111.0,87.0,-93.0
122.0,119.0,143.0,118.0,122.0,127.0,119.0,113.0,27.0,-102.0,-74.0,127.0,126.0,127.0,111.0,87.0,-93.0
123.0,119.0,143.0,122.0,123.0,128.0,119.0,112.0,27.0,-102.0,-74.0,127.0,126.0,127.0,111.0,87.0,-93.0
123.0,119.0,143.0,124.0,125.0,128.0,119.0,111.0,27.0,-102.0,-74.0,127.0,126.0,127.0,111.0,87.0,-93.0
123.0,120.0,142.0,126.0,126.0,129.0,120.0,111.0,27.0,-102.0,-74.0,127.0,126.0,127.0,111.0,87.0,-93.0
123.0,120.0,142.0,126.0,127.0,129.0,120.0,111.0,27.0,-102.0,-74.0,127.0,126.0,127.0,111.0,87.0,-93.0
123.0,122.0,146.0,109.0,120.0,125.0,120.0,120.0,27.0,-102.0,-74.0,127.0,126.0,127.0,111.0,87.0,-93.0
123.0,122.0,145.0,110.0,121.0,126.0,120.0,119.0,27.0,-102.0,-74.0,127.0,126.0,127.0,111.0,87.0,-93.0
123.0,121.0,145.0,110.0,121.0,127.0,120.0,118.0,27.0,-102.0,-74.0,127.0,126.0,127.0,111.0,87.0,-93.0
122.0,120.0,144.0,112.0,121.0,127.0,120.0,116.0,27.0,-102.0,-74.0,127.0,126.0,127.0,111.0,87.0,-93.0
122.0,119.0,144.0,114.0,122.0,127.0,119.0,114.0,27.0,-102.0,-74.0,127.0,126.0,127.0,111.0,87.0,-93.0
132.0,125.0,125.0,130.0,128.0,127.0,125.0,134.0,28.0,-104.0,-73.0,127.0,126.0,127.0,111.0,87.0,-94.0
132.0,126.0,125.0,130.0,129.0,127.0,125.0,134.0,28.0,-104.0,-73.0,127.0,126.0,127.0,111.0,87.0,-94.0
132.0,127.0,124.0,130.0,129.0,127.0,124.0,134.0,28.0,-104.0,-73.0,127.0,126.0,127.0,111.0,87.0,-94.0
132.0,129.0,124.0,129.0,129.0,127.0,124.0,133.0,28.0,-104.0,-73.0,127.0,126.0,127.0,111.0,87.0,-94.0
129.0,121.0,127.0,133.0,124.0,128.0,121.0,122.0,28.0,-104.0,-73.0,127.0,126.0,127.0,111.0,87.0,-94.0
129.0,121.0,126.0,134.0,125.0,128.0,122.0,123.0,28.0,-104.0,-73.0,127.0,126.0,127.0,111.0,87.0,-94.0
130.0,121.0,126.0,135.0,126.0,128.0,123.0,125.0,28.0,-104.0,-73.0,127.0,126.0,127.0,111.0,87.0,-94.0
130.0,121.0,126.0,134.0,127.0,128.0,124.0,128.0,28.0,-104.0,-73.0,127.0,126.0,127.0,111.0,87.0,-94.0
131.0,122.0,125.0,133.0,127.0,127.0,124.0,131.0,28.0,-104.0,-73.0,127.0,126.0,127.0,111.0,87.0,-94.0
132.0,123.0,125.0,131.0,128.0,127.0,125.0,133.0,28.0,-104.0,-73.0,127.0,126.0,127.0,111.0,87.0,-94.0
130.0,122.0,128.0,122.0,127.0,130.0,123.0,120.0,27.0,-105.0,-74.0,127.0,126.0,127.0,111.0,87.0,-94.0
130.0,123.0,128.0,121.0,128.0,129.0,123.0,121.0,27.0,-105.0,-74.0,127.0,126.0,127.0,111.0,87.0,-94.0
130.0,123.0,128.0,122.0,128.0,129.0,123.0,124.0,27.0,-105.0,-74.0,127.0,126.0,127.0,111.0,87.0,-94.0
132.0,123.0,127.0,128.0,128.0,129.0,124.0,121.0,27.0,-105.0,-74.0,127.0,126.0,127.0,111.0,87.0,-94.0
132.0,123.0,127.0,127.0,128.0,130.0,124.0,119.0,27.0,-105.0,-74.0,127.0,126.0,127.0,111.0,87.0,-94.0
132.0,122.0,128.0,127.0,128.0,130.0,124.0,119.0,27.0,-105.0,-74.0,127.0,126.0,127.0,111.0,87.0,-94.0
131.0,122.0,128.0,127.0,128.0,130.0,124.0,119.0,27.0,-105.0,-74.0,127.0,126.0,127.0,111.0,87.0,-94.0
131.0,122.0,128.0,125.0,128.0,130.0,124.0,119.0,27.0,-105.0,-74.0,127.0,126.0,127.0,111.0,87.0,-94.0
131.0,122.0,128.0,124.0,127.0,130.0,123.0,119.0,27.0,-105.0,-74.0,127.0,126.0,127.0,111.0,87.0,-94.0
131.0,122.0,128.0,123.0,127.0,130.0,123.0,120.0,27.0,-105.0,-74.0,127.0,126.0,127.0,111.0,87.0,-94.0
128.0,130.0,114.0,125.0,125.0,125.0,127.0,133.0,26.0,-105.0,-75.0,127.0,126.0,127.0,111.0,87.0,-94.0
127.0,130.0,113.0,126.0,125.0,125.0,127.0,133.0,26.0,-105.0,-75.0,127.0,126.0,127.0,111.0,87.0,-94.0
127.0,130.0,118.0,118.0,126.0,126.0,131.0,133.0,26.0,-105.0,-75.0,127.0,126.0,127.0,111.0,87.0,-94.0
128.0,130.0,118.0,117.0,126.0,126.0,130.0,133.0,26.0,-105.0,-75.0,127.0,126.0,127.0,111.0,87.0,-94.0
128.0,131.0,117.0,117.0,126.0,126.0,130.0,133.0,26.0,-105.0,-75.0,127.0,126.0,127.0,111.0,87.0,-94.0
128.0,131.0,116.0,117.0,126.0,126.0,130.0,133.0,26.0,-105.0,-75.0,127.0,126.0,127.0,111.0,87.0,-94.0
128.0,131.0,116.0,119.0,126.0,126.0,129.0,133.0,26.0,-105.0,-75.0,127.0,126.0,127.0,111.0,87.0,-94.0
128.0,131.0,115.0,121.0,126.0,126.0,129.0,133.0,26.0,-105.0,-75.0,127.0,126.0,127.0,111.0,87.0,-94.0
128.0,131.0,115.0,122.0,126.0,126.0,128.0,133.0,26.0,-105.0,-75.0,127.0,126.0,127.0,111.0,87.0,-94.0
128.0,131.0,114.0,123.0,126.0,125.0,128.0,133.0,26.0,-105.0,-75.0,127.0,126.0,127.0,111.0,87.0,-94.0
129.0,131.0,75.0,122.0,123.0,124.0,131.0,128.0,27.0,-106.0,-73.0,127.0,127.0,127.0,111.0,87.0,-94.0
127.0,129.0,86.0,123.0,119.0,123.0,131.0,129.0,27.0,-106.0,-73.0,127.0,127.0,127.0,111.0,87.0,-94.0
127.0,129.0,85.0,127.0,120.0,123.0,131.0,129.0,27.0,-106.0,-73.0,127.0,127.0,127.0,111.0,87.0,-94.0
128.0,130.0,83.0,129.0,121.0,124.0,132.0,129.0,27.0,-106.0,-73.0,127.0,127.0,127.0,111.0,87.0,-94.0
128.0,130.0,82.0,129.0,121.0,123.0,132.0,129.0,27.0,-106.0,-73.0,127.0,127.0,127.0,111.0,87.0,-94.0
128.0,131.0,81.0,127.0,122.0,124.0,132.0,129.0,27.0,-106.0,-73.0,127.0,127.0,127.0,111.0,87.0,-94.0
129.0,131.0,79.0,125.0,122.0,124.0,131.0,129.0,27.0,-106.0,-73.0,127.0,127.0,127.0,111.0,87.0,-94.0
129.0,131.0,78.0,123.0,122.0,124.0,131.0,129.0,27.0,-106.0,-73.0,127.0,127.0,127.0,111.0,87.0,-94.0
129.0,132.0,77.0,122.0,123.0,124.0,131.0,129.0,27.0,-106.0,-73.0,127.0,127.0,127.0,111.0,87.0,-94.0
129.0,131.0,76.0,122.0,123.0,124.0,131.0,129.0,27.0,-106.0,-73.0,127.0,127.0,127.0,111.0,87.0,-94.0
132.0,128.0,53.0,131.0,128.0,121.0,131.0,128.0,28.0,-105.0,-72.0,126.0,127.0,127.0,111.0,87.0,-94.0
132.0,128.0,52.0,131.0,128.0,121.0,131.0,128.0,28.0,-105.0,-72.0,126.0,127.0,127.0,111.0,87.0,-94.0
132.0,128.0,52.0,131.0,128.0,121.0,131.0,128.0,28.0,-105.0,-72.0,126.0,127.0,127.0,111.0,87.0,-94.0
133.0,128.0,51.0,130.0,129.0,121.0,131.0,128.0,28.0,-105.0,-72.0,126.0,127.0,127.0,111.0,87.0,-94.0
133.0,128.0,50.0,130.0,129.0,122.0,131.0,127.0,28.0,-105.0,-72.0,126.0,127.0,127.0,111.0,87.0,-94.0
133.0,128.0,50.0,130.0,129.0,122.0,131.0,127.0,28.0,-105.0,-72.0,126.0,127.0,127.0,111.0,87.0,-94.0
133.0,128.0,49.0,130.0,129.0,122.0,131.0,126.0,28.0,-105.0,-72.0,126.0,127.0,127.0,111.0,87.0,-94.0
133.0,128.0,48.0,129.0,129.0,122.0,131.0,126.0,28.0,-105.0,-72.0,126.0,127.0,127.0,111.0,87.0,-94.0
133.0,127.0,48.0,129.0,129.0,123.0,131.0,125.0,28.0,-105.0,-72.0,126.0,127.0,127.0,111.0,87.0,-94.0
134.0,127.0,47.0,128.0,129.0,123.0,131.0,125.0,28.0,-105.0,-72.0,126.0,127.0,127.0,111.0,87.0,-94.0
134.0,127.0,70.0,126.0,128.0,113.0,129.0,128.0,28.0,-105.0,-72.0,127.0,127.0,127.0,111.0,87.0,-94.0
135.0,127.0,71.0,127.0,128.0,113.0,129.0,128.0,28.0,-105.0,-72.0,127.0,127.0,127.0,111.0,87.0,-94.0
135.0,128.0,73.0,127.0,128.0,113.0,129.0,128.0,28.0,-105.0,-72.0,127.0,127.0,127.0,111.0,87.0,-94.0
134.0,129.0,74.0,128.0,128.0,113.0,129.0,128.0,28.0,-105.0,-72.0,127.0,127.0,127.0,111.0,87.0,-94.0
134.0,129.0,75.0,128.0,128.0,112.0,129.0,129.0,28.0,-105.0,-72.0,127.0,127.0,127.0,111.0,87.0,-94.0
134.0,130.0,76.0,128.0,128.0,112.0,130.0,129.0,28.0,-105.0,-72.0,127.0,127.0,127.0,111.0,87.0,-94.0
134.0,130.0,78.0,128.0,128.0,112.0,130.0,130.0,28.0,-105.0,-72.0,127.0,127.0,127.0,111.0,87.0,-94.0
134.0,130.0,79.0,128.0,128.0,112.0,130.0,130.0,28.0,-105.0,-72.0,127.0,127.0,127.0,111.0,87.0,-94.0
133.0,129.0,80.0,128.0,128.0,111.0,130.0,130.0,28.0,-105.0,-72.0,127.0,127.0,127.0,111.0,87.0,-94.0
134.0,126.0,69.0,125.0,128.0,113.0,129.0,128.0,28.0,-105.0,-72.0,127.0,127.0,127.0,111.0,87.0,-94.0
126.0,127.0,89.0,119.0,129.0,110.0,128.0,128.0,27.0,-105.0,-71.0,127.0,127.0,127.0,111.0,87.0,-94.0
126.0,127.0,88.0,118.0,128.0,110.0,128.0,128.0,27.0,-105.0,-71.0,127.0,127.0,127.0,111.0,87.0,-94.0
126.0,127.0,86.0,118.0,128.0,110.0,127.0,128.0,27.0,-105.0,-71.0,127.0,127.0,127.0,111.0,87.0,-94.0
126.0,127.0,84.0,117.0,127.0,110.0,127.0,127.0,27.0,-105.0,-71.0,127.0,127.0,127.0,111.0,87.0,-94.0
126.0,127.0,82.0,117.0,127.0,110.0,127.0,127.0,27.0,-105.0,-71.0,127.0,127.0,127.0,111.0,87.0,-94.0
125.0,127.0,81.0,117.0,126.0,110.0,127.0,127.0,27.0,-105.0,-71.0,127.0,127.0,127.0,111.0,87.0,-94.0
125.0,127.0,79.0,117.0,125.0,110.0,127.0,128.0,27.0,-105.0,-71.0,127.0,127.0,127.0,111.0,87.0,-94.0
125.0,127.0,77.0,117.0,125.0,109.0,127.0,127.0,27.0,-105.0,-71.0,127.0,127.0,127.0,111.0,87.0,-94.0
126.0,127.0,92.0,120.0,130.0,109.0,128.0,128.0,27.0,-105.0,-71.0,127.0,127.0,127.0,111.0,87.0,-94.0
126.0,127.0,91.0,119.0,130.0,109.0,128.0,128.0,27.0,-105.0,-71.0,127.0,127.0,127.0,111.0,87.0,-94.0
121.0,128.0,73.0,124.0,128.0,110.0,128.0,129.0,27.0,-106.0,-70.0,127.0,127.0,127.0,111.0,87.0,-94.0
121.0,128.0,75.0,124.0,128.0,110.0,128.0,129.0,27.0,-106.0,-70.0,127.0,127.0,127.0,111.0,87.0,-94.0
121.0,128.0,76.0,124.0,127.0,110.0,128.0,129.0,27.0,-106.0,-70.0,127.0,127.0,127.0,111.0,87.0,-94.0
121.0,128.0,78.0,123.0,127.0,110.0,128.0,128.0,27.0,-106.0,-70.0,127.0,127.0,127.0,111.0,87.0,-94.0
121.0,128.0,80.0,123.0,127.0,110.0,128.0,128.0,27.0,-106.0,-70.0,127.0,127.0,127.0,111.0,87.0,-94.0
121.0,128.0,81.0,123.0,127.0,110.0,128.0,128.0,27.0,-106.0,-70.0,127.0,127.0,127.0,111.0,87.0,-94.0
121.0,128.0,83.0,124.0,127.0,111.0,128.0,128.0,27.0,-106.0,-70.0,127.0,127.0,127.0,111.0,87.0,-94.0
121.0,127.0,69.0,125.0,129.0,108.0,128.0,130.0,27.0,-106.0,-70.0,127.0,127.0,127.0,111.0,87.0,-94.0
121.0,127.0,70.0,124.0,128.0,108.0,128.0,129.0,27.0,-106.0,-70.0,127.0,127.0,127.0,111.0,87.0,-94.0
121.0,128.0,72.0,124.0,128.0,109.0,128.0,129.0,27.0,-106.0,-70.0,127.0,127.0,127.0,111.0,87.0,-94.0
118.0,127.0,133.0,126.0,126.0,112.0,127.0,129.0,28.0,-107.0,-69.0,127.0,127.0,127.0,112.0,87.0,-94.0
118.0,127.0,134.0,127.0,126.0,112.0,127.0,129.0,28.0,-107.0,-69.0,127.0,127.0,127.0,112.0,87.0,-94.0
118.0,127.0,135.0,127.0,126.0,112.0,127.0,128.0,28.0,-107.0,-69.0,127.0,127.0,127.0,112.0,87.0,-94.0
118.0,127.0,135.0,127.0,127.0,112.0,128.0,128.0,28.0,-107.0,-69.0,127.0,127.0,127.0,112.0,87.0,-94.0
118.0,127.0,136.0,127.0,127.0,112.0,127.0,128.0,28.0,-107.0,-69.0,127.0,127.0,127.0,112.0,87.0,-94.0
118.0,127.0,137.0,128.0,127.0,113.0,127.0,128.0,28.0,-107.0,-69.0,127.0,127.0,127.0,112.0,87.0,-94.0
118.0,126.0,130.0,126.0,125.0,111.0,127.0,129.0,28.0,-107.0,-69.0,127.0,127.0,127.0,112.0,87.0,-94.0
118.0,126.0,131.0,126.0,125.0,111.0,127.0,129.0,28.0,-107.0,-69.0,127.0,127.0,127.0,112.0,87.0,-94.0
118.0,127.0,132.0,126.0,126.0,112.0,127.0,128.0,28.0,-107.0,-69.0,127.0,127.0,127.0,112.0,87.0,-94.0
118.0,127.0,132.0,126.0,126.0,112.0,127.0,128.0,28.0,-107.0,-69.0,127.0,127.0,127.0,112.0,87.0,-94.0
116.0,126.0,181.0,126.0,127.0,112.0,128.0,128.0,28.0,-107.0,-69.0,-128.0,127.0,127.0,112.0,87.0,-94.0
116.0,126.0,182.0,126.0,127.0,111.0,128.0,128.0,28.0,-107.0,-69.0,-128.0,127.0,127.0,112.0,87.0,-94.0
116.0,126.0,184.0,126.0,127.0,111.0,128.0,128.0,28.0,-107.0,-69.0,-128.0,127.0,127.0,112.0,87.0,-94.0
116.0,126.0,186.0,126.0,127.0,111.0,127.0,128.0,28.0,-107.0,-69.0,-128.0,127.0,127.0,112.0,87.0,-94.0
116.0,127.0,187.0,126.0,127.0,111.0,127.0,128.0,28.0,-107.0,-69.0,-128.0,127.0,127.0,112.0,87.0,-94.0
116.0,126.0,173.0,126.0,127.0,112.0,127.0,128.0,28.0,-107.0,-69.0,-128.0,127.0,127.0,112.0,87.0,-94.0
116.0,126.0,175.0,126.0,127.0,112.0,127.0,128.0,28.0,-107.0,-69.0,-128.0,127.0,127.0,112.0,87.0,-94.0
116.0,126.0,176.0,126.0,127.0,112.0,127.0,128.0,28.0,-107.0,-69.0,-128.0,127.0,127.0,112.0,87.0,-94.0
116.0,126.0,177.0,126.0,127.0,112.0,127.0,128.0,28.0,-107.0,-69.0,-128.0,127.0,127.0,112.0,87.0,-94.0
116.0,127.0,179.0,126.0,127.0,112.0,127.0,128.0,28.0,-107.0,-69.0,-128.0,127.0,127.0,112.0,87.0,-94.0
115.0,126.0,254.0,127.0,127.0,62.0,127.0,127.0,28.0,-107.0,-70.0,-128.0,127.0,127.0,112.0,87.0,-94.0
115.0,126.0,254.0,127.0,127.0,62.0,127.0,127.0,28.0,-107.0,-70.0,-128.0,127.0,127.0,112.0,87.0,-94.0
114.0,126.0,254.0,126.0,127.0,61.0,127.0,127.0,28.0,-107.0,-70.0,-128.0,127.0,127.0,112.0,87.0,-94.0
115.0,126.0,254.0,126.0,127.0,62.0,127.0,127.0,28.0,-107.0,-70.0,-128.0,127.0,127.0,112.0,87.0,-94.0
114.0,125.0,254.0,126.0,126.0,65.0,127.0,127.0,28.0,-107.0,-70.0,-128.0,127.0,127.0,112.0,87.0,-94.0
114.0,125.0,254.0,126.0,126.0,64.0,127.0,127.0,28.0,-107.0,-70.0,-128.0,127.0,127.0,112.0,87.0,-94.0
114.0,125.0,254.0,126.0,126.0,64.0,126.0,127.0,28.0,-107.0,-70.0,-128.0,127.0,127.0,112.0,87.0,-94.0
115.0,126.0,254.0,127.0,127.0,64.0,127.0,127.0,28.0,-107.0,-70.0,-128.0,127.0,127.0,112.0,87.0,-94.0
115.0,126.0,254.0,127.0,127.0,64.0,127.0,127.0,28.0,-107.0,-70.0,-128.0,127.0,127.0,112.0,87.0,-94.0
115.0,126.0,254.0,127.0,127.0,63.0,127.0,127.0,28.0,-107.0,-70.0,-128.0,127.0,127.0,112.0,87.0,-94.0
114.0,127.0,178.0,126.0,126.0,49.0,127.0,126.0,27.0,-106.0,-72.0,-128.0,127.0,127.0,112.0,87.0,-94.0
114.0,127.0,177.0,126.0,126.0,49.0,127.0,127.0,27.0,-106.0,-72.0,-128.0,127.0,127.0,112.0,87.0,-94.0
114.0,127.0,175.0,126.0,126.0,50.0,127.0,127.0,27.0,-106.0,-72.0,-128.0,127.0,127.0,112.0,87.0,-94.0
113.0,127.0,191.0,125.0,126.0,50.0,127.0,126.0,27.0,-106.0,-72.0,-128.0,127.0,127.0,112.0,87.0,-94.0
114.0,127.0,189.0,125.0,126.0,50.0,126.0,126.0,27.0,-106.0,-72.0,-128.0,127.0,127.0,112.0,87.0,-94.0
114.0,127.0,187.0,126.0,126.0,50.0,126.0,126.0,27.0,-106.0,-72.0,-128.0,127.0,127.0,112.0,87.0,-94.0
114.0,127.0,185.0,126.0,126.0,51.0,126.0,126.0,27.0,-106.0,-72.0,-128.0,127.0,127.0,112.0,87.0,-94.0
114.0,127.0,183.0,126.0,126.0,50.0,126.0,126.0,27.0,-106.0,-72.0,-128.0,127.0,127.0,112.0,87.0,-94.0
114.0,127.0,182.0,126.0,126.0,50.0,126.0,126.0,27.0,-106.0,-72.0,-128.0,127.0,127.0,112.0,87.0,-94.0
114.0,127.0,180.0,126.0,126.0,49.0,126.0,126.0,27.0,-106.0,-72.0,-128.0,127.0,127.0,112.0,87.0,-94.0
115.0,126.0,136.0,126.0,126.0,47.0,126.0,125.0,25.0,-105.0,-74.0,127.0,127.0,127.0,112.0,87.0,-94.0
116.0,126.0,136.0,126.0,126.0,46.0,126.0,126.0,25.0,-105.0,-74.0,127.0,127.0,127.0,112.0,87.0,-94.0
115.0,126.0,137.0,127.0,126.0,47.0,126.0,125.0,25.0,-105.0,-74.0,127.0,127.0,127.0,112.0,87.0,-94.0
115.0,126.0,137.0,127.0,126.0,47.0,126.0,125.0,25.0,-105.0,-74.0,127.0,127.0,127.0,112.0,87.0,-94.0
115.0,126.0,137.0,127.0,126.0,47.0,126.0,125.0,25.0,-105.0,-74.0,127.0,127.0,127.0,112.0,87.0,-94.0
115.0,126.0,137.0,127.0,126.0,47.0,126.0,125.0,25.0,-105.0,-74.0,127.0,127.0,127.0,112.0,87.0,-94.0
115.0,126.0,136.0,126.0,126.0,47.0,126.0,125.0,25.0,-105.0,-74.0,127.0,127.0,127.0,112.0,87.0,-94.0
115.0,126.0,136.0,126.0,126.0,47.0,126.0,125.0,25.0,-105.0,-74.0,127.0,127.0,127.0,112.0,87.0,-94.0
115.0,126.0,136.0,126.0,126.0,47.0,126.0,125.0,25.0,-105.0,-74.0,127.0,127.0,127.0,112.0,87.0,-94.0
115.0,126.0,136.0,126.0,126.0,47.0,126.0,125.0,25.0,-105.0,-74.0,127.0,127.0,127.0,112.0,87.0,-94.0
118.0,128.0,131.0,128.0,127.0,55.0,126.0,126.0,24.0,-105.0,-75.0,127.0,127.0,127.0,112.0,87.0,-94.0
116.0,127.0,134.0,127.0,126.0,48.0,126.0,126.0,24.0,-105.0,-75.0,127.0,127.0,127.0,112.0,87.0,-94.0
117.0,127.0,134.0,127.0,126.0,48.0,126.0,126.0,24.0,-105.0,-75.0,127.0,127.0,127.0,112.0,87.0,-94.0
117.0,127.0,133.0,127.0,126.0,49.0,126.0,126.0,24.0,-105.0,-75.0,127.0,127.0,127.0,112.0,87.0,-94.0
117.0,127.0,133.0,128.0,127.0,51.0,126.0,126.0,24.0,-105.0,-75.0,127.0,127.0,127.0,112.0,87.0,-94.0
117.0,128.0,133.0,128.0,127.0,52.0,126.0,126.0,24.0,-105.0,-75.0,127.0,127.0,127.0,112.0,87.0,-94.0
117.0,128.0,133.0,128.0,127.0,52.0,126.0,126.0,24.0,-105.0,-75.0,127.0,127.0,127.0,112.0,87.0,-94.0
117.0,127.0,132.0,128.0,127.0,52.0,126.0,126.0,24.0,-105.0,-75.0,127.0,127.0,127.0,112.0,87.0,-94.0
117.0,127.0,132.0,128.0,127.0,53.0,126.0,126.0,24.0,-105.0,-75.0,127.0,127.0,127.0,112.0,87.0,-94.0
117.0,127.0,132.0,128.0,127.0,53.0,126.0,126.0,24.0,-105.0,-75.0,127.0,127.0,127.0,112.0,87.0,-94.0
119.0,128.0,110.0,128.0,127.0,81.0,125.0,126.0,23.0,-106.0,-75.0,127.0,127.0,127.0,112.0,87.0,-94.0
119.0,128.0,110.0,127.0,127.0,82.0,126.0,126.0,23.0,-106.0,-75.0,127.0,127.0,127.0,112.0,87.0,-94.0
119.0,128.0,109.0,127.0,127.0,82.0,126.0,126.0,23.0,-106.0,-75.0,127.0,127.0,127.0,112.0,87.0,-94.0
119.0,128.0,109.0,127.0,127.0,83.0,126.0,126.0,23.0,-106.0,-75.0,127.0,127.0,127.0,112.0,87.0,-94.0
119.0,128.0,109.0,127.0,127.0,84.0,126.0,126.0,23.0,-106.0,-75.0,127.0,127.0,127.0,112.0,87.0,-94.0
119.0,128.0,109.0,127.0,127.0,84.0,126.0,126.0,23.0,-106.0,-75.0,127.0,127.0,127.0,112.0,87.0,-94.0
120.0,128.0,109.0,127.0,126.0,85.0,126.0,126.0,23.0,-106.0,-75.0,127.0,127.0,127.0,112.0,87.0,-94.0
120.0,128.0,108.0,126.0,126.0,86.0,126.0,126.0,23.0,-106.0,-75.0,127.0,127.0,127.0,112.0,87.0,-94.0
120.0,128.0,108.0,126.0,126.0,86.0,126.0,126.0,23.0,-106.0,-75.0,127.0,127.0,127.0,112.0,87.0,-94.0
119.0,128.0,108.0,126.0,126.0,86.0,126.0,127.0,23.0,-106.0,-75.0,127.0,127.0,127.0,112.0,87.0,-94.0
119.0,128.0,106.0,128.0,127.0,94.0,126.0,128.0,24.0,-108.0,-75.0,127.0,127.0,127.0,112.0,87.0,-94.0
119.0,128.0,106.0,128.0,127.0,93.0,126.0,128.0,24.0,-108.0,-75.0,127.0,127.0,127.0,112.0,87.0,-94.0
119.0,128.0,106.0,128.0,127.0,93.0,126.0,128.0,24.0,-108.0,-75.0,127.0,127.0,127.0,112.0,87.0,-94.0
119.0,128.0,107.0,128.0,127.0,93.0,126.0,128.0,24.0,-108.0,-75.0,127.0,127.0,127.0,112.0,87.0,-94.0
119.0,128.0,107.0,128.0,127.0,93.0,126.0,128.0,24.0,-108.0,-75.0,127.0,127.0,127.0,112.0,87.0,-94.0
120.0,128.0,107.0,128.0,127.0,94.0,125.0,128.0,24.0,-108.0,-75.0,127.0,127.0,127.0,112.0,87.0,-94.0
120.0,129.0,108.0,128.0,127.0,95.0,125.0,128.0,24.0,-108.0,-75.0,127.0,127.0,127.0,112.0,87.0,-94.0
120.0,128.0,108.0,128.0,127.0,95.0,125.0,128.0,24.0,-108.0,-75.0,127.0,127.0,127.0,112.0,87.0,-94.0
120.0,128.0,108.0,127.0,127.0,95.0,125.0,128.0,24.0,-108.0,-75.0,127.0,127.0,127.0,112.0,87.0,-94.0
119.0,128.0,106.0,128.0,127.0,93.0,126.0,127.0,24.0,-108.0,-75.0,127.0,127.0,127.0,112.0,87.0,-94.0
118.0,126.0,82.0,126.0,126.0,104.0,125.0,127.0,24.0,-108.0,-74.0,127.0,127.0,127.0,112.0,87.0,-94.0
119.0,126.0,80.0,126.0,126.0,105.0,125.0,127.0,24.0,-108.0,-74.0,127.0,127.0,127.0,112.0,87.0,-94.0
119.0,126.0,78.0,126.0,126.0,106.0,125.0,127.0,24.0,-108.0,-74.0,127.0,127.0,127.0,112.0,87.0,-94.0
119.0,126.0,77.0,126.0,126.0,107.0,125.0,127.0,24.0,-108.0,-74.0,127.0,127.0,127.0,112.0,87.0,-94.0
119.0,126.0,75.0,126.0,126.0,107.0,125.0,127.0,24.0,-108.0,-74.0,127.0,127.0,127.0,112.0,87.0,-94.0
119.0,126.0,74.0,126.0,126.0,107.0,125.0,127.0,24.0,-108.0,-74.0,127.0,127.0,127.0,112.0,87.0,-94.0
119.0,126.0,72.0,126.0,126.0,107.0,125.0,127.0,24.0,-108.0,-74.0,127.0,127.0,127.0,112.0,87.0,-94.0
119.0,126.0,70.0,126.0,126.0,107.0,125.0,127.0,24.0,-108.0,-74.0,127.0,127.0,127.0,112.0,87.0,-94.0
118.0,126.0,85.0,126.0,126.0,104.0,125.0,127.0,24.0,-108.0,-74.0,127.0,127.0,127.0,112.0,87.0,-94.0
118.0,126.0,83.0,126.0,126.0,104.0,125.0,127.0,24.0,-108.0,-74.0,127.0,127.0,127.0,112.0,87.0,-94.0
119.0,124.0,0.0,125.0,126.0,120.0,125.0,126.0,25.0,-108.0,-74.0,127.0,127.0,127.0,112.0,87.0,-94.0
119.0,125.0,0.0,125.0,126.0,121.0,125.0,126.0,25.0,-108.0,-74.0,127.0,127.0,127.0,112.0,87.0,-94.0
120.0,125.0,0.0,125.0,126.0,122.0,125.0,126.0,25.0,-108.0,-74.0,127.0,127.0,127.0,112.0,87.0,-94.0
120.0,125.0,0.0,126.0,126.0,122.0,125.0,126.0,25.0,-108.0,-74.0,127.0,127.0,127.0,112.0,87.0,-94.0
120.0,124.0,0.0,126.0,126.0,122.0,125.0,126.0,25.0,-108.0,-74.0,127.0,127.0,127.0,112.0,87.0,-94.0
120.0,125.0,0.0,126.0,126.0,122.0,125.0,126.0,25.0,-108.0,-74.0,127.0,127.0,127.0,112.0,87.0,-94.0
120.0,124.0,0.0,126.0,126.0,122.0,125.0,126.0,25.0,-108.0,-74.0,127.0,127.0,127.0,112.0,87.0,-94.0
119.0,124.0,0.0,124.0,125.0,119.0,125.0,126.0,25.0,-108.0,-74.0,127.0,127.0,127.0,112.0,87.0,-94.0
119.0,124.0,0.0,124.0,125.0,119.0,125.0,126.0,25.0,-108.0,-74.0,127.0,127.0,127.0,112.0,87.0,-94.0
119.0,124.0,0.0,125.0,126.0,120.0,125.0,126.0,25.0,-108.0,-74.0,127.0,127.0,127.0,112.0,87.0,-94.0
120.0,125.0,0.0,126.0,126.0,130.0,126.0,125.0,24.0,-106.0,-74.0,127.0,127.0,127.0,112.0,87.0,-94.0
120.0,125.0,0.0,126.0,127.0,131.0,126.0,125.0,24.0,-106.0,-74.0,127.0,127.0,127.0,112.0,87.0,-94.0
120.0,125.0,0.0,126.0,127.0,130.0,126.0,125.0,24.0,-106.0,-74.0,127.0,127.0,127.0,112.0,87.0,-94.0
120.0,125.0,0.0,126.0,126.0,130.0,126.0,125.0,24.0,-106.0,-74.0,127.0,127.0,127.0,112.0,87.0,-94.0
120.0,125.0,0.0,126.0,126.0,130.0,126.0,125.0,24.0,-106.0,-74.0,127.0,127.0,127.0,112.0,87.0,-94.0
120.0,125.0,0.0,126.0,126.0,130.0,126.0,125.0,24.0,-106.0,-74.0,127.0,127.0,127.0,112.0,87.0,-94.0
119.0,124.0,0.0,125.0,126.0,129.0,126.0,125.0,24.0,-106.0,-74.0,127.0,127.0,127.0,112.0,87.0,-94.0
119.0,124.0,0.0,126.0,126.0,129.0,126.0,125.0,24.0,-106.0,-74.0,127.0,127.0,127.0,112.0,87.0,-94.0
120.0,125.0,0.0,126.0,126.0,129.0,126.0,125.0,24.0,-106.0,-74.0,127.0,127.0,127.0,112.0,87.0,-94.0
120.0,125.0,0.0,126.0,126.0,129.0,126.0,125.0,24.0,-106.0,-74.0,127.0,127.0,127.0,112.0,87.0,-94.0
121.0,127.0,0.0,127.0,127.0,137.0,127.0,126.0,24.0,-105.0,-74.0,127.0,127.0,127.0,112.0,87.0,-94.0
121.0,127.0,0.0,127.0,127.0,137.0,127.0,126.0,24.0,-105.0,-74.0,127.0,127.0,127.0,112.0,87.0,-94.0
121.0,127.0,0.0,127.0,127.0,137.0,127.0,126.0,24.0,-105.0,-74.0,127.0,127.0,127.0,112.0,87.0,-94.0
121.0,127.0,0.0,127.0,127.0,138.0,127.0,126.0,24.0,-105.0,-74.0,127.0,127.0,127.0,112.0,87.0,-94.0
121.0,128.0,0.0,127.0,127.0,138.0,127.0,126.0,24.0,-105.0,-74.0,127.0,127.0,127.0,112.0,87.0,-94.0
121.0,127.0,0.0,127.0,127.0,137.0,127.0,126.0,24.0,-105.0,-74.0,127.0,127.0,127.0,112.0,87.0,-94.0
121.0,127.0,0.0,127.0,127.0,137.0,127.0,126.0,24.0,-105.0,-74.0,127.0,127.0,127.0,112.0,87.0,-94.0
121.0,127.0,0.0,127.0,127.0,137.0,127.0,126.0,24.0,-105.0,-74.0,127.0,127.0,127.0,112.0,87.0,-94.0
121.0,127.0,0.0,127.0,127.0,137.0,127.0,126.0,24.0,-105.0,-74.0,127.0,127.0,127.0,112.0,87.0,-94.0
121.0,127.0,0.0,127.0,127.0,137.0,127.0,126.0,24.0,-105.0,-74.0,127.0,127.0,127.0,112.0,87.0,-94.0
121.0,128.0,0.0,127.0,127.0,171.0,126.0,126.0,24.0,-104.0,-74.0,127.0,127.0,127.0,112.0,87.0,-94.0
121.0,128.0,0.0,127.0,127.0,172.0,126.0,126.0,24.0,-104.0,-74.0,127.0,127.0,127.0,112.0,87.0,-94.0
121.0,128.0,0.0,127.0,127.0,172.0,126.0,126.0,24.0,-104.0,-74.0,127.0,127.0,127.0,112.0,87.0,-94.0
121.0,128.0,0.0,127.0,127.0,173.0,126.0,126.0,24.0,-104.0,-74.0,127.0,127.0,127.0,112.0,87.0,-94.0
121.0,128.0,0.0,127.0,127.0,167.0,126.0,126.0,24.0,-104.0,-74.0,127.0,127.0,127.0,112.0,87.0,-94.0
121.0,128.0,0.0,127.0,127.0,168.0,126.0,126.0,24.0,-104.0,-74.0,127.0,127.0,127.0,112.0,87.0,-94.0
121.0,128.0,0.0,127.0,127.0,169.0,127.0,126.0,24.0,-104.0,-74.0,127.0,127.0,127.0,112.0,87.0,-94.0
121.0,128.0,0.0,127.0,127.0,169.0,126.0,126.0,24.0,-104.0,-74.0,127.0,127.0,127.0,112.0,87.0,-94.0
121.0,128.0,0.0,127.0,127.0,170.0,126.0,126.0,24.0,-104.0,-74.0,127.0,127.0,127.0,112.0,87.0,-94.0
121.0,128.0,0.0,127.0,127.0,171.0,126.0,126.0,24.0,-104.0,-74.0,127.0,127.0,127.0,112.0,87.0,-94.0
118.0,124.0,254.0,127.0,127.0,253.0,125.0,125.0,24.0,-103.0,-74.0,127.0,127.0,127.0,112.0,87.0,-94.0
118.0,124.0,254.0,127.0,127.0,254.0,125.0,125.0,24.0,-103.0,-74.0,127.0,127.0,127.0,112.0,87.0,-94.0
118.0,124.0,254.0,127.0,127.0,254.0,125.0,125.0,24.0,-103.0,-74.0,127.0,127.0,127.0,112.0,87.0,-94.0
118.0,125.0,254.0,127.0,127.0,238.0,125.0,125.0,24.0,-103.0,-74.0,127.0,127.0,127.0,112.0,87.0,-94.0
118.0,124.0,254.0,127.0,127.0,240.0,125.0,125.0,24.0,-103.0,-74.0,127.0,127.0,127.0,112.0,87.0,-94.0
118.0,124.0,254.0,127.0,127.0,243.0,125.0,125.0,24.0,-103.0,-74.0,127.0,127.0,127.0,112.0,87.0,-94.0
118.0,124.0,254.0,127.0,127.0,245.0,125.0,125.0,24.0,-103.0,-74.0,127.0,127.0,127.0,112.0,87.0,-94.0
118.0,124.0,254.0,127.0,127.0,246.0,125.0,125.0,24.0,-103.0,-74.0,127.0,127.0,127.0,112.0,87.0,-94.0
118.0,124.0,254.0,127.0,127.0,249.0,125.0,125.0,24.0,-103.0,-74.0,127.0,127.0,127.0,112.0,87.0,-94.0
118.0,124.0,254.0,127.0,127.0,251.0,125.0,125.0,24.0,-103.0,-74.0,127.0,127.0,127.0,112.0,87.0,-94.0
120.0,125.0,254.0,127.0,127.0,254.0,125.0,125.0,24.0,-102.0,-74.0,126.0,127.0,127.0,112.0,87.0,-94.0
120.0,125.0,254.0,127.0,127.0,254.0,125.0,126.0,24.0,-102.0,-74.0,126.0,127.0,127.0,112.0,87.0,-94.0
119.0,124.0,254.0,126.0,127.0,254.0,125.0,125.0,24.0,-102.0,-74.0,126.0,127.0,127.0,112.0,87.0,-94.0
119.0,125.0,254.0,127.0,127.0,254.0,125.0,125.0,24.0,-102.0,-74.0,126.0,127.0,127.0,112.0,87.0,-94.0
119.0,125.0,254.0,127.0,127.0,254.0,125.0,125.0,24.0,-102.0,-74.0,126.0,127.0,127.0,112.0,87.0,-94.0
119.0,124.0,254.0,126.0,127.0,254.0,125.0,125.0,24.0,-102.0,-74.0,126.0,127.0,127.0,112.0,87.0,-94.0
119.0,124.0,254.0,127.0,127.0,254.0,125.0,125.0,24.0,-102.0,-74.0,126.0,127.0,127.0,112.0,87.0,-94.0
119.0,124.0,254.0,127.0,127.0,254.0,125.0,125.0,24.0,-102.0,-74.0,126.0,127.0,127.0,112.0,87.0,-94.0
119.0,124.0,254.0,127.0,127.0,254.0,125.0,126.0,24.0,-102.0,-74.0,126.0,127.0,127.0,112.0,87.0,-94.0
119.0,125.0,254.0,127.0,127.0,254.0,125.0,125.0,24.0,-102.0,-74.0,126.0,127.0,127.0,112.0,87.0,-94.0
121.0,125.0,254.0,126.0,127.0,254.0,125.0,126.0,25.0,-101.0,-74.0,126.0,127.0,127.0,112.0,87.0,-94.0
121.0,126.0,254.0,126.0,127.0,254.0,125.0,126.0,25.0,-101.0,-74.0,126.0,127.0,127.0,112.0,87.0,-94.0
122.0,126.0,254.0,126.0,127.0,254.0,125.0,126.0,25.0,-101.0,-74.0,126.0,127.0,127.0,112.0,87.0,-94.0
122.0,126.0,254.0,126.0,127.0,254.0,125.0,126.0,25.0,-101.0,-74.0,126.0,127.0,127.0,112.0,87.0,-94.0
122.0,126.0,254.0,127.0,127.0,254.0,126.0,127.0,25.0,-101.0,-74.0,126.0,127.0,127.0,112.0,87.0,-94.0
122.0,126.0,254.0,127.0,127.0,254.0,126.0,127.0,25.0,-101.0,-74.0,126.0,127.0,127.0,112.0,87.0,-94.0
122.0,126.0,254.0,127.0,127.0,254.0,126.0,127.0,25.0,-101.0,-74.0,126.0,127.0,127.0,112.0,87.0,-94.0
122.0,126.0,254.0,127.0,127.0,254.0,126.0,127.0,25.0,-101.0,-74.0,126.0,127.0,127.0,112.0,87.0,-94.0
122.0,127.0,254.0,127.0,127.0,254.0,126.0,127.0,25.0,-101.0,-74.0,126.0,127.0,127.0,112.0,87.0,-94.0
123.0,127.0,254.0,127.0,127.0,254.0,126.0,127.0,25.0,-101.0,-74.0,126.0,127.0,127.0,112.0,87.0,-94.0
124.0,128.0,254.0,126.0,127.0,254.0,129.0,129.0,25.0,-101.0,-73.0,126.0,127.0,127.0,112.0,87.0,-94.0
125.0,129.0,254.0,126.0,127.0,254.0,129.0,129.0,25.0,-101.0,-73.0,126.0,127.0,127.0,112.0,87.0,-94.0
125.0,129.0,254.0,126.0,127.0,254.0,129.0,129.0,25.0,-101.0,-73.0,126.0,127.0,127.0,112.0,87.0,-94.0
125.0,129.0,254.0,126.0,127.0,254.0,129.0,129.0,25.0,-101.0,-73.0,126.0,127.0,127.0,112.0,87.0,-94.0
125.0,129.0,254.0,127.0,127.0,254.0,129.0,129.0,25.0,-101.0,-73.0,126.0,127.0,127.0,112.0,87.0,-94.0
125.0,129.0,254.0,127.0,127.0,254.0,129.0,129.0,25.0,-101.0,-73.0,126.0,127.0,127.0,112.0,87.0,-94.0
125.0,129.0,254.0,127.0,127.0,254.0,129.0,129.0,25.0,-101.0,-73.0,126.0,127.0,127.0,112.0,87.0,-94.0
125.0,129.0,254.0,127.0,127.0,254.0,129.0,129.0,25.0,-101.0,-73.0,126.0,127.0,127.0,112.0,87.0,-94.0
126.0,130.0,254.0,127.0,127.0,254.0,129.0,129.0,25.0,-101.0,-73.0,126.0,127.0,127.0,112.0,87.0,-94.0
124.0,128.0,254.0,126.0,127.0,254.0,129.0,129.0,25.0,-101.0,-73.0,126.0,127.0,127.0,112.0,87.0,-94.0
124.0,128.0,254.0,128.0,127.0,254.0,128.0,128.0,26.0,-102.0,-73.0,126.0,127.0,127.0,112.0,87.0,-94.0
124.0,128.0,254.0,128.0,127.0,254.0,128.0,128.0,26.0,-102.0,-73.0,126.0,127.0,127.0,112.0,87.0,-94.0
124.0,128.0,254.0,128.0,127.0,254.0,128.0,128.0,26.0,-102.0,-73.0,126.0,127.0,127.0,112.0,87.0,-94.0
124.0,128.0,254.0,128.0,127.0,254.0,128.0,128.0,26.0,-102.0,-73.0,126.0,127.0,127.0,112.0,87.0,-94.0
124.0,128.0,254.0,127.0,127.0,254.0,128.0,128.0,26.0,-102.0,-73.0,126.0,127.0,127.0,112.0,87.0,-94.0
125.0,128.0,254.0,127.0,127.0,254.0,128.0,128.0,26.0,-102.0,-73.0,126.0,127.0,127.0,112.0,87.0,-94.0
124.0,128.0,254.0,127.0,127.0,254.0,128.0,128.0,26.0,-102.0,-73.0,126.0,127.0,127.0,112.0,87.0,-94.0
124.0,128.0,254.0,127.0,127.0,254.0,128.0,128.0,26.0,-102.0,-73.0,126.0,127.0,127.0,112.0,87.0,-94.0
124.0,128.0,254.0,128.0,127.0,254.0,128.0,128.0,26.0,-102.0,-73.0,126.0,127.0,127.0,112.0,87.0,-94.0
124.0,128.0,254.0,128.0,127.0,254.0,128.0,128.0,26.0,-102.0,-73.0,126.0,127.0,127.0,112.0,87.0,-94.0
125.0,128.0,254.0,128.0,127.0,254.0,128.0,128.0,26.0,-102.0,-73.0,126.0,127.0,127.0,112.0,87.0,-94.0
125.0,128.0,254.0,128.0,127.0,254.0,128.0,128.0,26.0,-102.0,-73.0,126.0,127.0,127.0,112.0,87.0,-94.0
125.0,129.0,254.0,129.0,127.0,254.0,128.0,128.0,26.0,-102.0,-73.0,126.0,127.0,127.0,112.0,87.0,-94.0
125.0,129.0,254.0,129.0,127.0,254.0,128.0,128.0,26.0,-102.0,-73.0,126.0,127.0,127.0,112.0,87.0,-94.0
125.0,129.0,254.0,129.0,127.0,254.0,128.0,128.0,26.0,-102.0,-73.0,126.0,127.0,127.0,112.0,87.0,-94.0
125.0,129.0,254.0,129.0,127.0,254.0,128.0,128.0,26.0,-102.0,-73.0,126.0,127.0,127.0,112.0,87.0,-94.0
125.0,130.0,254.0,129.0,127.0,254.0,128.0,128.0,26.0,-102.0,-73.0,126.0,127.0,127.0,112.0,87.0,-94.0
124.0,127.0,254.0,127.0,127.0,254.0,128.0,128.0,26.0,-102.0,-73.0,126.0,127.0,127.0,112.0,87.0,-94.0
124.0,127.0,254.0,127.0,127.0,254.0,128.0,128.0,26.0,-102.0,-73.0,126.0,127.0,127.0,112.0,87.0,-94.0
124.0,127.0,254.0,128.0,127.0,254.0,128.0,128.0,26.0,-102.0,-73.0,126.0,127.0,127.0,112.0,87.0,-94.0
126.0,130.0,254.0,129.0,127.0,254.0,129.0,129.0,26.0,-103.0,-72.0,126.0,127.0,127.0,112.0,87.0,-94.0
126.0,130.0,254.0,129.0,127.0,254.0,129.0,129.0,26.0,-103.0,-72.0,126.0,127.0,127.0,112.0,87.0,-94.0
126.0,130.0,254.0,129.0,127.0,254.0,129.0,129.0,26.0,-103.0,-72.0,126.0,127.0,127.0,112.0,87.0,-94.0
126.0,130.0,254.0,129.0,127.0,254.0,129.0,129.0,26.0,-103.0,-72.0,126.0,127.0,127.0,112.0,87.0,-94.0
126.0,130.0,254.0,129.0,127.0,254.0,129.0,129.0,26.0,-103.0,-72.0,126.0,127.0,127.0,112.0,87.0,-94.0
126.0,130.0,254.0,129.0,127.0,254.0,129.0,129.0,26.0,-103.0,-72.0,126.0,127.0,127.0,112.0,87.0,-94.0
126.0,130.0,254.0,129.0,127.0,254.0,129.0,128.0,26.0,-103.0,-72.0,126.0,127.0,127.0,112.0,87.0,-94.0
126.0,130.0,254.0,129.0,127.0,254.0,129.0,129.0,26.0,-103.0,-72.0,126.0,127.0,127.0,112.0,87.0,-94.0
126.0,130.0,254.0,129.0,127.0,254.0,129.0,129.0,26.0,-103.0,-72.0,126.0,127.0,127.0,112.0,87.0,-94.0
126.0,130.0,254.0,129.0,127.0,254.0,129.0,129.0,26.0,-103.0,-72.0,126.0,127.0,127.0,112.0,87.0,-94.0
127.0,130.0,254.0,128.0,127.0,254.0,129.0,128.0,26.0,-103.0,-72.0,126.0,127.0,127.0,112.0,87.0,-94.0
127.0,130.0,254.0,128.0,127.0,254.0,129.0,128.0,26.0,-103.0,-72.0,126.0,127.0,127.0,112.0,87.0,-94.0
127.0,130.0,254.0,128.0,127.0,254.0,129.0,128.0,26.0,-103.0,-72.0,126.0,127.0,127.0,112.0,87.0,-94.0
127.0,130.0,254.0,128.0,127.0,254.0,129.0,128.0,26.0,-103.0,-72.0,126.0,127.0,127.0,112.0,87.0,-94.0
127.0,130.0,254.0,128.0,127.0,254.0,129.0,128.0,26.0,-103.0,-72.0,126.0,127.0,127.0,112.0,87.0,-94.0
127.0,130.0,254.0,128.0,127.0,254.0,128.0,128.0,26.0,-103.0,-72.0,126.0,127.0,127.0,112.0,87.0,-94.0
127.0,130.0,254.0,128.0,127.0,254.0,128.0,128.0,26.0,-103.0,-72.0,126.0,127.0,127.0,112.0,87.0,-94.0
127.0,130.0,254.0,128.0,127.0,254.0,128.0,128.0,26.0,-103.0,-72.0,126.0,127.0,127.0,112.0,87.0,-94.0
127.0,130.0,254.0,128.0,127.0,254.0,128.0,128.0,26.0,-103.0,-72.0,126.0,127.0,127.0,112.0,87.0,-94.0
127.0,130.0,254.0,128.0,127.0,254.0,128.0,128.0,26.0,-103.0,-72.0,126.0,127.0,127.0,112.0,87.0,-94.0
128.0,131.0,254.0,128.0,127.0,254.0,129.0,128.0,27.0,-104.0,-71.0,127.0,127.0,127.0,112.0,87.0,-94.0
128.0,131.0,254.0,128.0,127.0,254.0,129.0,128.0,27.0,-104.0,-71.0,127.0,127.0,127.0,112.0,87.0,-94.0
128.0,131.0,254.0,128.0,127.0,254.0,129.0,128.0,27.0,-104.0,-71.0,127.0,127.0,127.0,112.0,87.0,-94.0
128.0,131.0,254.0,128.0,127.0,254.0,129.0,128.0,27.0,-104.0,-71.0,127.0,127.0,127.0,112.0,87.0,-94.0
127.0,130.0,254.0,128.0,127.0,254.0,129.0,128.0,27.0,-104.0,-71.0,127.0,127.0,127.0,112.0,87.0,-94.0
127.0,130.0,254.0,128.0,127.0,254.0,129.0,128.0,27.0,-104.0,-71.0,127.0,127.0,127.0,112.0,87.0,-94.0
127.0,130.0,254.0,128.0,127.0,254.0,129.0,128.0,27.0,-104.0,-71.0,127.0,127.0,127.0,112.0,87.0,-94.0
127.0,130.0,254.0,128.0,127.0,254.0,129.0,128.0,27.0,-104.0,-71.0,127.0,127.0,127.0,112.0,87.0,-94.0
127.0,130.0,254.0,128.0,127.0,254.0,129.0,128.0,27.0,-104.0,-71.0,127.0,127.0,127.0,112.0,87.0,-94.0
127.0,130.0,254.0,128.0,127.0,254.0,129.0,128.0,27.0,-104.0,-71.0,127.0,127.0,127.0,112.0,87.0,-94.0
128.0,130.0,254.0,128.0,127.0,254.0,128.0,129.0,27.0,-104.0,-71.0,127.0,127.0,127.0,112.0,87.0,-94.0
128.0,130.0,254.0,128.0,127.0,254.0,128.0,129.0,27.0,-104.0,-71.0,127.0,127.0,127.0,112.0,87.0,-94.0
127.0,130.0,254.0,128.0,127.0,254.0,129.0,129.0,27.0,-104.0,-71.0,127.0,127.0,127.0,112.0,87.0,-94.0
127.0,129.0,254.0,128.0,127.0,254.0,128.0,129.0,27.0,-104.0,-71.0,127.0,127.0,127.0,112.0,87.0,-94.0
127.0,129.0,254.0,128.0,127.0,254.0,128.0,129.0,27.0,-104.0,-71.0,127.0,127.0,127.0,112.0,87.0,-94.0
127.0,129.0,254.0,128.0,127.0,254.0,128.0,129.0,27.0,-104.0,-71.0,127.0,127.0,127.0,112.0,87.0,-94.0
127.0,130.0,254.0,128.0,127.0,254.0,128.0,129.0,27.0,-104.0,-71.0,127.0,127.0,127.0,112.0,87.0,-94.0
128.0,130.0,254.0,128.0,127.0,254.0,128.0,129.0,27.0,-104.0,-71.0,127.0,127.0,127.0,112.0,87.0,-94.0
128.0,130.0,254.0,128.0,127.0,254.0,128.0,129.0,27.0,-104.0,-71.0,127.0,127.0,127.0,112.0,87.0,-94.0
128.0,130.0,254.0,128.0,127.0,254.0,128.0,129.0,27.0,-104.0,-71.0,127.0,127.0,127.0,112.0,87.0,-94.0
126.0,129.0,195.0,128.0,127.0,254.0,128.0,129.0,27.0,-104.0,-71.0,127.0,127.0,127.0,112.0,87.0,-94.0
126.0,129.0,191.0,128.0,127.0,254.0,128.0,129.0,27.0,-104.0,-71.0,127.0,127.0,127.0,112.0,87.0,-94.0
126.0,128.0,222.0,128.0,127.0,254.0,128.0,129.0,27.0,-104.0,-71.0,127.0,127.0,127.0,112.0,87.0,-94.0
126.0,128.0,219.0,128.0,127.0,254.0,128.0,129.0,27.0,-104.0,-71.0,127.0,127.0,127.0,112.0,87.0,-94.0
126.0,128.0,215.0,128.0,127.0,254.0,128.0,129.0,27.0,-104.0,-71.0,127.0,127.0,127.0,112.0,87.0,-94.0
126.0,128.0,212.0,128.0,127.0,254.0,128.0,129.0,27.0,-104.0,-71.0,127.0,127.0,127.0,112.0,87.0,-94.0
126.0,129.0,208.0,128.0,127.0,254.0,128.0,129.0,27.0,-104.0,-71.0,127.0,127.0,127.0,112.0,87.0,-94.0
126.0,129.0,205.0,128.0,127.0,254.0,128.0,129.0,27.0,-104.0,-71.0,127.0,127.0,127.0,112.0,87.0,-94.0
126.0,129.0,202.0,128.0,127.0,254.0,128.0,129.0,27.0,-104.0,-71.0,127.0,127.0,127.0,112.0,87.0,-94.0
126.0,129.0,198.0,128.0,127.0,254.0,128.0,129.0,27.0,-104.0,-71.0,127.0,127.0,127.0,112.0,87.0,-94.0
127.0,129.0,78.0,128.0,127.0,254.0,127.0,129.0,28.0,-105.0,-71.0,127.0,127.0,127.0,112.0,87.0,-94.0
126.0,128.0,90.0,128.0,127.0,254.0,127.0,129.0,28.0,-105.0,-71.0,127.0,127.0,127.0,112.0,87.0,-94.0
126.0,129.0,88.0,128.0,127.0,254.0,127.0,129.0,28.0,-105.0,-71.0,127.0,127.0,127.0,112.0,87.0,-94.0
126.0,128.0,87.0,128.0,127.0,254.0,127.0,129.0,28.0,-105.0,-71.0,127.0,127.0,127.0,112.0,87.0,-94.0
126.0,129.0,85.0,128.0,127.0,254.0,127.0,128.0,28.0,-105.0,-71.0,127.0,127.0,127.0,112.0,87.0,-94.0
126.0,129.0,84.0,128.0,127.0,254.0,127.0,128.0,28.0,-105.0,-71.0,127.0,127.0,127.0,112.0,87.0,-94.0
126.0,129.0,82.0,128.0,127.0,254.0,127.0,129.0,28.0,-105.0,-71.0,127.0,127.0,127.0,112.0,87.0,-94.0
126.0,129.0,81.0,128.0,127.0,254.0,127.0,129.0,28.0,-105.0,-71.0,127.0,127.0,127.0,112.0,87.0,-94.0
127.0,129.0,80.0,128.0,127.0,254.0,127.0,129.0,28.0,-105.0,-71.0,127.0,127.0,127.0,112.0,87.0,-94.0
127.0,129.0,79.0,128.0,127.0,254.0,127.0,129.0,28.0,-105.0,-71.0,127.0,127.0,127.0,112.0,87.0,-94.0
125.0,127.0,66.0,127.0,127.0,241.0,127.0,128.0,28.0,-105.0,-72.0,127.0,127.0,127.0,112.0,87.0,-94.0
125.0,127.0,65.0,127.0,127.0,240.0,127.0,128.0,28.0,-105.0,-72.0,127.0,127.0,127.0,112.0,87.0,-94.0
125.0,127.0,65.0,127.0,127.0,238.0,127.0,128.0,28.0,-105.0,-72.0,127.0,127.0,127.0,112.0,87.0,-94.0
125.0,127.0,65.0,128.0,127.0,236.0,127.0,128.0,28.0,-105.0,-72.0,127.0,127.0,127.0,112.0,87.0,-94.0
125.0,127.0,65.0,127.0,127.0,234.0,127.0,128.0,28.0,-105.0,-72.0,127.0,127.0,127.0,112.0,87.0,-94.0
125.0,127.0,64.0,128.0,127.0,233.0,127.0,128.0,28.0,-105.0,-72.0,127.0,127.0,127.0,112.0,87.0,-94.0
125.0,127.0,64.0,128.0,127.0,231.0,127.0,128.0,28.0,-105.0,-72.0,127.0,127.0,127.0,112.0,87.0,-94.0
125.0,127.0,64.0,128.0,127.0,229.0,127.0,128.0,28.0,-105.0,-72.0,127.0,127.0,127.0,112.0,87.0,-94.0
125.0,127.0,64.0,128.0,127.0,227.0,127.0,128.0,28.0,-105.0,-72.0,127.0,127.0,127.0,112.0,87.0,-94.0
125.0,127.0,64.0,128.0,127.0,225.0,127.0,128.0,28.0,-105.0,-72.0,127.0,127.0,127.0,112.0,87.0,-94.0
126.0,129.0,60.0,128.0,127.0,175.0,125.0,128.0,28.0,-105.0,-72.0,127.0,127.0,127.0,112.0,87.0,-94.0
126.0,129.0,60.0,128.0,127.0,175.0,126.0,128.0,28.0,-105.0,-72.0,127.0,127.0,127.0,112.0,87.0,-94.0
126.0,128.0,60.0,128.0,127.0,173.0,125.0,128.0,28.0,-105.0,-72.0,127.0,127.0,127.0,112.0,87.0,-94.0
126.0,129.0,60.0,128.0,127.0,173.0,126.0,128.0,28.0,-105.0,-72.0,127.0,127.0,127.0,112.0,87.0,-94.0
126.0,129.0,60.0,128.0,127.0,172.0,126.0,128.0,28.0,-105.0,-72.0,127.0,127.0,127.0,112.0,87.0,-94.0
126.0,129.0,60.0,128.0,127.0,171.0,126.0,128.0,28.0,-105.0,-72.0,127.0,127.0,127.0,112.0,87.0,-94.0
126.0,129.0,59.0,128.0,127.0,170.0,126.0,128.0,28.0,-105.0,-72.0,127.0,127.0,127.0,112.0,87.0,-94.0
126.0,129.0,59.0,128.0,127.0,170.0,126.0,128.0,28.0,-105.0,-72.0,127.0,127.0,127.0,112.0,87.0,-94.0
126.0,129.0,59.0,128.0,127.0,169.0,126.0,128.0,28.0,-105.0,-72.0,127.0,127.0,127.0,112.0,87.0,-94.0
126.0,128.0,61.0,128.0,127.0,176.0,125.0,128.0,28.0,-105.0,-72.0,127.0,127.0,127.0,112.0,87.0,-94.0
124.0,127.0,59.0,127.0,127.0,149.0,125.0,127.0,28.0,-105.0,-72.0,127.0,127.0,127.0,112.0,87.0,-94.0
124.0,127.0,59.0,127.0,126.0,149.0,125.0,127.0,28.0,-105.0,-72.0,127.0,127.0,127.0,112.0,87.0,-94.0
125.0,127.0,59.0,127.0,127.0,149.0,125.0,127.0,28.0,-105.0,-72.0,127.0,127.0,127.0,112.0,87.0,-94.0
125.0,127.0,59.0,127.0,127.0,149.0,125.0,127.0,28.0,-105.0,-72.0,127.0,127.0,127.0,112.0,87.0,-94.0
125.0,127.0,59.0,127.0,127.0,148.0,125.0,127.0,28.0,-105.0,-72.0,127.0,127.0,127.0,112.0,87.0,-94.0
125.0,128.0,59.0,127.0,127.0,148.0,125.0,127.0,28.0,-105.0,-72.0,127.0,127.0,127.0,112.0,87.0,-94.0
125.0,128.0,59.0,127.0,127.0,148.0,125.0,127.0,28.0,-105.0,-72.0,127.0,127.0,127.0,112.0,87.0,-94.0
125.0,127.0,59.0,127.0,127.0,147.0,125.0,127.0,28.0,-105.0,-72.0,127.0,127.0,127.0,112.0,87.0,-94.0
124.0,127.0,60.0,127.0,126.0,149.0,125.0,127.0,28.0,-105.0,-72.0,127.0,127.0,127.0,112.0,87.0,-94.0
124.0,127.0,59.0,127.0,127.0,149.0,125.0,127.0,28.0,-105.0,-72.0,127.0,127.0,127.0,112.0,87.0,-94.0
124.0,127.0,65.0,127.0,127.0,143.0,125.0,127.0,27.0,-105.0,-73.0,127.0,127.0,127.0,112.0,87.0,-94.0
124.0,126.0,65.0,127.0,127.0,143.0,125.0,127.0,27.0,-105.0,-73.0,127.0,127.0,127.0,112.0,87.0,-94.0
124.0,126.0,65.0,127.0,127.0,142.0,125.0,127.0,27.0,-105.0,-73.0,127.0,127.0,127.0,112.0,87.0,-94.0
124.0,126.0,65.0,127.0,127.0,142.0,125.0,127.0,27.0,-105.0,-73.0,127.0,127.0,127.0,112.0,87.0,-94.0
125.0,127.0,64.0,127.0,127.0,143.0,125.0,127.0,27.0,-105.0,-73.0,127.0,127.0,127.0,112.0,87.0,-94.0
125.0,127.0,64.0,127.0,127.0,143.0,125.0,127.0,27.0,-105.0,-73.0,127.0,127.0,127.0,112.0,87.0,-94.0
125.0,127.0,64.0,128.0,127.0,142.0,125.0,127.0,27.0,-105.0,-73.0,127.0,127.0,127.0,112.0,87.0,-94.0
124.0,126.0,65.0,127.0,127.0,143.0,124.0,127.0,27.0,-105.0,-73.0,127.0,127.0,127.0,112.0,87.0,-94.0
124.0,126.0,64.0,127.0,127.0,144.0,124.0,127.0,27.0,-105.0,-73.0,127.0,127.0,127.0,112.0,87.0,-94.0
124.0,127.0,64.0,127.0,127.0,144.0,125.0,127.0,27.0,-105.0,-73.0,127.0,127.0,127.0,112.0,87.0,-94.0
125.0,128.0,72.0,127.0,127.0,140.0,126.0,128.0,27.0,-105.0,-73.0,127.0,127.0,127.0,112.0,87.0,-94.0
126.0,128.0,72.0,127.0,127.0,140.0,126.0,128.0,27.0,-105.0,-73.0,127.0,127.0,127.0,112.0,87.0,-94.0
126.0,128.0,72.0,127.0,127.0,139.0,127.0,128.0,27.0,-105.0,-73.0,127.0,127.0,127.0,112.0,87.0,-94.0
126.0,128.0,72.0,127.0,127.0,139.0,127.0,128.0,27.0,-105.0,-73.0,127.0,127.0,127.0,112.0,87.0,-94.0
125.0,128.0,72.0,127.0,127.0,139.0,127.0,128.0,27.0,-105.0,-73.0,127.0,127.0,127.0,112.0,87.0,-94.0
125.0,128.0,72.0,127.0,127.0,139.0,127.0,128.0,27.0,-105.0,-73.0,127.0,127.0,127.0,112.0,87.0,-94.0
125.0,127.0,72.0,127.0,126.0,141.0,126.0,128.0,27.0,-105.0,-73.0,127.0,127.0,127.0,112.0,87.0,-94.0
125.0,127.0,72.0,127.0,126.0,140.0,126.0,128.0,27.0,-105.0,-73.0,127.0,127.0,127.0,112.0,87.0,-94.0
125.0,127.0,72.0,127.0,126.0,140.0,126.0,128.0,27.0,-105.0,-73.0,127.0,127.0,127.0,112.0,87.0,-94.0
125.0,127.0,72.0,127.0,127.0,139.0,126.0,128.0,27.0,-105.0,-73.0,127.0,127.0,127.0,112.0,87.0,-94.0
126.0,129.0,77.0,129.0,127.0,138.0,128.0,128.0,26.0,-104.0,-73.0,127.0,127.0,127.0,112.0,87.0,-94.0
126.0,129.0,77.0,129.0,127.0,138.0,128.0,128.0,26.0,-104.0,-73.0,127.0,127.0,127.0,112.0,87.0,-94.0
126.0,129.0,77.0,129.0,127.0,137.0,128.0,128.0,26.0,-104.0,-73.0,127.0,127.0,127.0,112.0,87.0,-94.0
126.0,129.0,77.0,129.0,127.0,137.0,128.0,128.0,26.0,-104.0,-73.0,127.0,127.0,127.0,112.0,87.0,-94.0
126.0,129.0,77.0,129.0,127.0,137.0,128.0,129.0,26.0,-104.0,-73.0,127.0,127.0,127.0,112.0,87.0,-94.0
126.0,129.0,77.0,128.0,127.0,138.0,128.0,128.0,26.0,-104.0,-73.0,127.0,127.0,127.0,112.0,87.0,-94.0
126.0,129.0,77.0,128.0,127.0,137.0,128.0,128.0,26.0,-104.0,-73.0,127.0,127.0,127.0,112.0,87.0,-94.0
126.0,129.0,77.0,129.0,127.0,137.0,128.0,128.0,26.0,-104.0,-73.0,127.0,127.0,127.0,112.0,87.0,-94.0
126.0,129.0,77.0,129.0,127.0,137.0,128.0,128.0,26.0,-104.0,-73.0,127.0,127.0,127.0,112.0,87.0,-94.0
126.0,129.0,77.0,129.0,127.0,138.0,128.0,128.0,26.0,-104.0,-73.0,127.0,127.0,127.0,112.0,87.0,-94.0
126.0,129.0,86.0,128.0,127.0,139.0,127.0,128.0,26.0,-104.0,-73.0,127.0,127.0,127.0,112.0,87.0,-94.0
126.0,129.0,86.0,129.0,127.0,138.0,127.0,128.0,26.0,-104.0,-73.0,127.0,127.0,127.0,112.0,87.0,-94.0
126.0,129.0,86.0,128.0,127.0,138.0,127.0,128.0,26.0,-104.0,-73.0,127.0,127.0,127.0,112.0,87.0,-94.0
126.0,129.0,87.0,128.0,127.0,138.0,127.0,128.0,26.0,-104.0,-73.0,127.0,127.0,127.0,112.0,87.0,-94.0
125.0,128.0,85.0,129.0,127.0,139.0,127.0,128.0,26.0,-104.0,-73.0,127.0,127.0,127.0,112.0,87.0,-94.0
126.0,129.0,85.0,129.0,127.0,139.0,127.0,128.0,26.0,-104.0,-73.0,127.0,127.0,127.0,112.0,87.0,-94.0
126.0,129.0,85.0,129.0,127.0,139.0,127.0,128.0,26.0,-104.0,-73.0,127.0,127.0,127.0,112.0,87.0,-94.0
126.0,129.0,86.0,129.0,127.0,139.0,127.0,128.0,26.0,-104.0,-73.0,127.0,127.0,127.0,112.0,87.0,-94.0
126.0,129.0,86.0,128.0,127.0,139.0,127.0,128.0,26.0,-104.0,-73.0,127.0,127.0,127.0,112.0,87.0,-94.0
126.0,129.0,86.0,129.0,127.0,139.0,127.0,128.0,26.0,-104.0,-73.0,127.0,127.0,127.0,112.0,87.0,-94.0
125.0,127.0,93.0,127.0,126.0,137.0,126.0,128.0,26.0,-103.0,-73.0,127.0,127.0,127.0,112.0,87.0,-94.0
125.0,127.0,92.0,128.0,126.0,137.0,126.0,128.0,26.0,-103.0,-73.0,127.0,127.0,127.0,112.0,87.0,-94.0
125.0,127.0,92.0,128.0,127.0,137.0,126.0,128.0,26.0,-103.0,-73.0,127.0,127.0,127.0,112.0,87.0,-94.0
124.0,127.0,93.0,127.0,126.0,137.0,127.0,128.0,26.0,-103.0,-73.0,127.0,127.0,127.0,112.0,87.0,-94.0
124.0,127.0,92.0,127.0,126.0,137.0,126.0,128.0,26.0,-103.0,-73.0,127.0,127.0,127.0,112.0,87.0,-94.0
125.0,127.0,92.0,127.0,126.0,138.0,126.0,128.0,26.0,-103.0,-73.0,127.0,127.0,127.0,112.0,87.0,-94.0
125.0,127.0,92.0,127.0,126.0,137.0,126.0,128.0,26.0,-103.0,-73.0,127.0,127.0,127.0,112.0,87.0,-94.0
125.0,127.0,93.0,127.0,126.0,137.0,126.0,128.0,26.0,-103.0,-73.0,127.0,127.0,127.0,112.0,87.0,-94.0
125.0,127.0,93.0,127.0,126.0,137.0,127.0,128.0,26.0,-103.0,-73.0,127.0,127.0,127.0,112.0,87.0,-94.0
125.0,127.0,93.0,127.0,126.0,137.0,127.0,128.0,26.0,-103.0,-73.0,127.0,127.0,127.0,112.0,87.0,-94.0
125.0,127.0,96.0,128.0,127.0,138.0,126.0,127.0,26.0,-103.0,-73.0,127.0,127.0,127.0,112.0,87.0,-94.0
125.0,127.0,96.0,128.0,127.0,138.0,126.0,127.0,26.0,-103.0,-73.0,127.0,127.0,127.0,112.0,87.0,-94.0
124.0,125.0,97.0,128.0,127.0,137.0,126.0,128.0,26.0,-103.0,-73.0,127.0,127.0,127.0,112.0,87.0,-94.0
124.0,126.0,97.0,128.0,127.0,137.0,126.0,127.0,26.0,-103.0,-73.0,127.0,127.0,127.0,112.0,87.0,-94.0
124.0,126.0,96.0,128.0,127.0,138.0,126.0,127.0,26.0,-103.0,-73.0,127.0,127.0,127.0,112.0,87.0,-94.0
125.0,126.0,96.0,128.0,127.0,138.0,126.0,128.0,26.0,-103.0,-73.0,127.0,127.0,127.0,112.0,87.0,-94.0
125.0,126.0,97.0,128.0,127.0,138.0,126.0,128.0,26.0,-103.0,-73.0,127.0,127.0,127.0,112.0,87.0,-94.0
125.0,126.0,97.0,128.0,127.0,137.0,126.0,128.0,26.0,-103.0,-73.0,127.0,127.0,127.0,112.0,87.0,-94.0
125.0,126.0,97.0,128.0,127.0,137.0,126.0,128.0,26.0,-103.0,-73.0,127.0,127.0,127.0,112.0,87.0,-94.0
125.0,126.0,96.0,128.0,127.0,137.0,126.0,128.0,26.0,-103.0,-73.0,127.0,127.0,127.0,112.0,87.0,-94.0
124.0,125.0,102.0,128.0,126.0,137.0,125.0,127.0,26.0,-103.0,-73.0,127.0,127.0,127.0,112.0,87.0,-94.0
124.0,125.0,101.0,128.0,126.0,138.0,125.0,127.0,26.0,-103.0,-73.0,127.0,127.0,127.0,112.0,87.0,-94.0
124.0,125.0,101.0,128.0,126.0,137.0,125.0,127.0,26.0,-103.0,-73.0,127.0,127.0,127.0,112.0,87.0,-94.0
124.0,125.0,101.0,128.0,126.0,137.0,125.0,127.0,26.0,-103.0,-73.0,127.0,127.0,127.0,112.0,87.0,-94.0
124.0,125.0,101.0,128.0,126.0,137.0,125.0,127.0,26.0,-103.0,-73.0,127.0,127.0,127.0,112.0,87.0,-94.0
124.0,125.0,101.0,128.0,126.0,137.0,125.0,127.0,26.0,-103.0,-73.0,127.0,127.0,127.0,112.0,87.0,-94.0
124.0,125.0,101.0,128.0,126.0,138.0,125.0,127.0,26.0,-103.0,-73.0,127.0,127.0,127.0,112.0,87.0,-94.0
124.0,125.0,101.0,128.0,126.0,137.0,125.0,127.0,26.0,-103.0,-73.0,127.0,127.0,127.0,112.0,87.0,-94.0
124.0,125.0,101.0,128.0,126.0,137.0,125.0,127.0,26.0,-103.0,-73.0,127.0,127.0,127.0,112.0,87.0,-94.0
124.0,125.0,102.0,128.0,126.0,137.0,125.0,127.0,26.0,-103.0,-73.0,127.0,127.0,127.0,112.0,87.0,-94.0
122.0,123.0,108.0,128.0,126.0,139.0,122.0,126.0,26.0,-103.0,-74.0,127.0,127.0,127.0,112.0,87.0,-94.0
122.0,123.0,108.0,128.0,126.0,139.0,122.0,126.0,26.0,-103.0,-74.0,127.0,127.0,127.0,112.0,87.0,-94.0
122.0,123.0,108.0,128.0,126.0,138.0,122.0,126.0,26.0,-103.0,-74.0,127.0,127.0,127.0,112.0,87.0,-94.0
122.0,123.0,108.0,128.0,126.0,138.0,121.0,126.0,26.0,-103.0,-74.0,127.0,127.0,127.0,112.0,87.0,-94.0
122.0,123.0,108.0,128.0,126.0,138.0,121.0,126.0,26.0,-103.0,-74.0,127.0,127.0,127.0,112.0,87.0,-94.0
123.0,123.0,108.0,128.0,126.0,139.0,121.0,126.0,26.0,-103.0,-74.0,127.0,127.0,127.0,112.0,87.0,-94.0
123.0,124.0,108.0,128.0,126.0,139.0,121.0,126.0,26.0,-103.0,-74.0,127.0,127.0,127.0,112.0,87.0,-94.0
123.0,124.0,108.0,128.0,126.0,139.0,121.0,126.0,26.0,-103.0,-74.0,127.0,127.0,127.0,112.0,87.0,-94.0
123.0,124.0,107.0,128.0,126.0,139.0,121.0,125.0,26.0,-103.0,-74.0,127.0,127.0,127.0,112.0,87.0,-94.0
123.0,124.0,107.0,128.0,126.0,139.0,121.0,125.0,26.0,-103.0,-74.0,127.0,127.0,127.0,112.0,87.0,-94.0
122.0,122.0,110.0,128.0,126.0,135.0,121.0,125.0,26.0,-102.0,-74.0,127.0,127.0,127.0,112.0,87.0,-94.0
122.0,122.0,110.0,128.0,126.0,135.0,121.0,125.0,26.0,-102.0,-74.0,127.0,127.0,127.0,112.0,87.0,-94.0
122.0,123.0,110.0,128.0,126.0,135.0,121.0,125.0,26.0,-102.0,-74.0,127.0,127.0,127.0,112.0,87.0,-94.0
122.0,123.0,110.0,128.0,126.0,135.0,121.0,125.0,26.0,-102.0,-74.0,127.0,127.0,127.0,112.0,87.0,-94.0
122.0,123.0,110.0,128.0,126.0,135.0,121.0,125.0,26.0,-102.0,-74.0,127.0,127.0,127.0,112.0,87.0,-94.0
122.0,123.0,110.0,128.0,126.0,134.0,121.0,125.0,26.0,-102.0,-74.0,127.0,127.0,127.0,112.0,87.0,-94.0
122.0,123.0,110.0,128.0,126.0,134.0,121.0,125.0,26.0,-102.0,-74.0,127.0,127.0,127.0,112.0,87.0,-94.0
123.0,123.0,110.0,128.0,126.0,134.0,122.0,126.0,26.0,-102.0,-74.0,127.0,127.0,127.0,112.0,87.0,-94.0
123.0,123.0,110.0,128.0,126.0,134.0,122.0,126.0,26.0,-102.0,-74.0,127.0,127.0,127.0,112.0,87.0,-94.0
122.0,122.0,110.0,128.0,126.0,135.0,121.0,125.0,26.0,-102.0,-74.0,127.0,127.0,127.0,112.0,87.0,-94.0
124.0,124.0,109.0,128.0,126.0,135.0,124.0,127.0,27.0,-101.0,-75.0,127.0,127.0,127.0,112.0,87.0,-94.0
124.0,124.0,109.0,128.0,126.0,135.0,124.0,127.0,27.0,-101.0,-75.0,127.0,127.0,127.0,112.0,87.0,-94.0
124.0,124.0,109.0,128.0,126.0,135.0,124.0,127.0,27.0,-101.0,-75.0,127.0,127.0,127.0,112.0,87.0,-94.0
124.0,124.0,108.0,128.0,126.0,135.0,124.0,127.0,27.0,-101.0,-75.0,127.0,127.0,127.0,112.0,87.0,-94.0
124.0,125.0,108.0,128.0,126.0,135.0,124.0,127.0,27.0,-101.0,-75.0,127.0,127.0,127.0,112.0,87.0,-94.0
124.0,125.0,108.0,128.0,126.0,135.0,124.0,127.0,27.0,-101.0,-75.0,127.0,127.0,127.0,112.0,87.0,-94.0
124.0,125.0,108.0,128.0,126.0,135.0,124.0,127.0,27.0,-101.0,-75.0,127.0,127.0,127.0,112.0,87.0,-94.0
125.0,125.0,108.0,128.0,126.0,136.0,124.0,127.0,27.0,-101.0,-75.0,127.0,127.0,127.0,112.0,87.0,-94.0
124.0,124.0,109.0,127.0,126.0,136.0,123.0,126.0,27.0,-101.0,-75.0,127.0,127.0,127.0,112.0,87.0,-94.0
124.0,124.0,109.0,127.0,126.0,136.0,123.0,126.0,27.0,-101.0,-75.0,127.0,127.0,127.0,112.0,87.0,-94.0
124.0,125.0,110.0,127.0,126.0,134.0,126.0,128.0,27.0,-101.0,-75.0,127.0,127.0,127.0,112.0,87.0,-94.0
124.0,125.0,110.0,127.0,126.0,134.0,126.0,128.0,27.0,-101.0,-75.0,127.0,127.0,127.0,112.0,87.0,-94.0
124.0,126.0,109.0,127.0,126.0,135.0,126.0,128.0,27.0,-101.0,-75.0,127.0,127.0,127.0,112.0,87.0,-94.0
124.0,126.0,109.0,127.0,127.0,135.0,126.0,128.0,27.0,-101.0,-75.0,127.0,127.0,127.0,112.0,87.0,-94.0
124.0,126.0,109.0,127.0,127.0,135.0,127.0,128.0,27.0,-101.0,-75.0,127.0,127.0,127.0,112.0,87.0,-94.0
124.0,126.0,110.0,127.0,127.0,135.0,127.0,128.0,27.0,-101.0,-75.0,127.0,127.0,127.0,112.0,87.0,-94.0
123.0,125.0,110.0,127.0,126.0,135.0,126.0,128.0,27.0,-101.0,-75.0,127.0,127.0,127.0,112.0,87.0,-94.0
124.0,125.0,110.0,127.0,126.0,135.0,126.0,128.0,27.0,-101.0,-75.0,127.0,127.0,127.0,112.0,87.0,-94.0
124.0,125.0,110.0,127.0,126.0,135.0,126.0,128.0,27.0,-101.0,-75.0,127.0,127.0,127.0,112.0,87.0,-94.0
124.0,125.0,110.0,127.0,126.0,134.0,126.0,128.0,27.0,-101.0,-75.0,127.0,127.0,127.0,112.0,87.0,-94.0
123.0,126.0,115.0,127.0,127.0,135.0,127.0,128.0,26.0,-101.0,-75.0,126.0,127.0,127.0,112.0,87.0,-94.0
123.0,126.0,115.0,127.0,127.0,135.0,127.0,128.0,26.0,-101.0,-75.0,126.0,127.0,127.0,112.0,87.0,-94.0
123.0,126.0,115.0,127.0,127.0,134.0,127.0,128.0,26.0,-101.0,-75.0,126.0,127.0,127.0,112.0,87.0,-94.0
123.0,126.0,115.0,127.0,127.0,134.0,127.0,128.0,26.0,-101.0,-75.0,126.0,127.0,127.0,112.0,87.0,-94.0
123.0,126.0,115.0,127.0,127.0,134.0,128.0,128.0,26.0,-101.0,-75.0,126.0,127.0,127.0,112.0,87.0,-94.0
122.0,125.0,115.0,127.0,126.0,135.0,127.0,128.0,26.0,-101.0,-75.0,126.0,127.0,127.0,112.0,87.0,-94.0
123.0,125.0,115.0,127.0,127.0,135.0,127.0,128.0,26.0,-101.0,-75.0,126.0,127.0,127.0,112.0,87.0,-94.0
123.0,126.0,115.0,127.0,127.0,135.0,127.0,128.0,26.0,-101.0,-75.0,126.0,127.0,127.0,112.0,87.0,-94.0
123.0,126.0,115.0,127.0,127.0,135.0,127.0,128.0,26.0,-101.0,-75.0,126.0,127.0,127.0,112.0,87.0,-94.0
123.0,126.0,115.0,127.0,127.0,136.0,127.0,128.0,26.0,-101.0,-75.0,126.0,127.0,127.0,112.0,87.0,-94.0
125.0,128.0,115.0,128.0,127.0,129.0,129.0,129.0,26.0,-102.0,-75.0,127.0,127.0,127.0,112.0,87.0,-94.0
125.0,128.0,115.0,128.0,127.0,129.0,129.0,129.0,26.0,-102.0,-75.0,127.0,127.0,127.0,112.0,87.0,-94.0
125.0,128.0,115.0,128.0,127.0,129.0,129.0,129.0,26.0,-102.0,-75.0,127.0,127.0,127.0,112.0,87.0,-94.0
125.0,129.0,115.0,128.0,127.0,129.0,129.0,129.0,26.0,-102.0,-75.0,127.0,127.0,127.0,112.0,87.0,-94.0
124.0,127.0,116.0,127.0,127.0,130.0,128.0,129.0,26.0,-102.0,-75.0,127.0,127.0,127.0,112.0,87.0,-94.0
124.0,127.0,116.0,127.0,127.0,130.0,128.0,129.0,26.0,-102.0,-75.0,127.0,127.0,127.0,112.0,87.0,-94.0
124.0,128.0,115.0,127.0,127.0,130.0,128.0,129.0,26.0,-102.0,-75.0,127.0,127.0,127.0,112.0,87.0,-94.0
125.0,128.0,115.0,127.0,127.0,130.0,128.0,129.0,26.0,-102.0,-75.0,127.0,127.0,127.0,112.0,87.0,-94.0
125.0,128.0,115.0,127.0,127.0,130.0,129.0,129.0,26.0,-102.0,-75.0,127.0,127.0,127.0,112.0,87.0,-94.0
125.0,128.0,115.0,127.0,127.0,129.0,129.0,129.0,26.0,-102.0,-75.0,127.0,127.0,127.0,112.0,87.0,-94.0
129.0,133.0,112.0,128.0,128.0,129.0,132.0,130.0,25.0,-102.0,-74.0,127.0,127.0,127.0,112.0,87.0,-94.0
129.0,133.0,112.0,128.0,128.0,129.0,132.0,130.0,25.0,-102.0,-74.0,127.0,127.0,127.0,112.0,87.0,-94.0
129.0,133.0,112.0,128.0,128.0,128.0,133.0,130.0,25.0,-102.0,-74.0,127.0,127.0,127.0,112.0,87.0,-94.0
129.0,132.0,113.0,128.0,128.0,129.0,131.0,129.0,25.0,-102.0,-74.0,127.0,127.0,127.0,112.0,87.0,-94.0
129.0,132.0,113.0,128.0,128.0,129.0,131.0,130.0,25.0,-102.0,-74.0,127.0,127.0,127.0,112.0,87.0,-94.0
129.0,133.0,113.0,128.0,128.0,129.0,132.0,130.0,25.0,-102.0,-74.0,127.0,127.0,127.0,112.0,87.0,-94.0
129.0,133.0,112.0,128.0,128.0,129.0,132.0,130.0,25.0,-102.0,-74.0,127.0,127.0,127.0,112.0,87.0,-94.0
129.0,133.0,112.0,128.0,128.0,129.0,132.0,130.0,25.0,-102.0,-74.0,127.0,127.0,127.0,112.0,87.0,-94.0
129.0,133.0,112.0,128.0,128.0,129.0,132.0,130.0,25.0,-102.0,-74.0,127.0,127.0,127.0,112.0,87.0,-94.0
129.0,133.0,112.0,128.0,128.0,128.0,132.0,130.0,25.0,-102.0,-74.0,127.0,127.0,127.0,112.0,87.0,-94.0
129.0,133.0,115.0,127.0,127.0,128.0,133.0,130.0,25.0,-102.0,-74.0,127.0,127.0,127.0,112.0,87.0,-94.0
130.0,133.0,115.0,127.0,128.0,127.0,133.0,130.0,25.0,-102.0,-74.0,127.0,127.0,127.0,112.0,87.0,-94.0
129.0,132.0,115.0,126.0,127.0,128.0,133.0,130.0,25.0,-102.0,-74.0,127.0,127.0,127.0,112.0,87.0,-94.0
129.0,132.0,115.0,126.0,127.0,129.0,133.0,130.0,25.0,-102.0,-74.0,127.0,127.0,127.0,112.0,87.0,-94.0
129.0,132.0,115.0,126.0,127.0,129.0,133.0,130.0,25.0,-102.0,-74.0,127.0,127.0,127.0,112.0,87.0,-94.0
129.0,132.0,114.0,126.0,127.0,128.0,133.0,130.0,25.0,-102.0,-74.0,127.0,127.0,127.0,112.0,87.0,-94.0
130.0,133.0,114.0,126.0,127.0,129.0,133.0,130.0,25.0,-102.0,-74.0,127.0,127.0,127.0,112.0,87.0,-94.0
130.0,133.0,114.0,126.0,127.0,129.0,133.0,130.0,25.0,-102.0,-74.0,127.0,127.0,127.0,112.0,87.0,-94.0
130.0,133.0,114.0,126.0,127.0,128.0,133.0,130.0,25.0,-102.0,-74.0,127.0,127.0,127.0,112.0,87.0,-94.0
129.0,133.0,115.0,127.0,127.0,128.0,133.0,130.0,25.0,-102.0,-74.0,127.0,127.0,127.0,112.0,87.0,-94.0
129.0,132.0,116.0,127.0,127.0,128.0,131.0,130.0,25.0,-103.0,-73.0,127.0,127.0,127.0,112.0,87.0,-94.0
129.0,132.0,116.0,127.0,127.0,129.0,131.0,129.0,25.0,-103.0,-73.0,127.0,127.0,127.0,112.0,87.0,-94.0
129.0,132.0,116.0,127.0,127.0,129.0,131.0,129.0,25.0,-103.0,-73.0,127.0,127.0,127.0,112.0,87.0,-94.0
129.0,132.0,116.0,127.0,127.0,129.0,131.0,129.0,25.0,-103.0,-73.0,127.0,127.0,127.0,112.0,87.0,-94.0
129.0,132.0,116.0,127.0,127.0,129.0,131.0,129.0,25.0,-103.0,-73.0,127.0,127.0,127.0,112.0,87.0,-94.0
129.0,132.0,116.0,127.0,127.0,129.0,131.0,129.0,25.0,-103.0,-73.0,127.0,127.0,127.0,112.0,87.0,-94.0
129.0,132.0,116.0,127.0,127.0,129.0,131.0,129.0,25.0,-103.0,-73.0,127.0,127.0,127.0,112.0,87.0,-94.0
129.0,132.0,116.0,127.0,127.0,129.0,131.0,130.0,25.0,-103.0,-73.0,127.0,127.0,127.0,112.0,87.0,-94.0
129.0,132.0,116.0,127.0,127.0,129.0,131.0,130.0,25.0,-103.0,-73.0,127.0,127.0,127.0,112.0,87.0,-94.0
129.0,132.0,116.0,127.0,127.0,128.0,131.0,130.0,25.0,-103.0,-73.0,127.0,127.0,127.0,112.0,87.0,-94.0
129.0,131.0,119.0,126.0,127.0,128.0,131.0,130.0,25.0,-103.0,-73.0,127.0,127.0,127.0,112.0,87.0,-94.0
129.0,131.0,119.0,126.0,127.0,128.0,131.0,130.0,25.0,-103.0,-73.0,127.0,127.0,127.0,112.0,87.0,-94.0
129.0,131.0,119.0,126.0,127.0,128.0,131.0,130.0,25.0,-103.0,-73.0,127.0,127.0,127.0,112.0,87.0,-94.0
129.0,131.0,119.0,126.0,127.0,128.0,131.0,130.0,25.0,-103.0,-73.0,127.0,127.0,127.0,112.0,87.0,-94.0
129.0,131.0,119.0,126.0,127.0,128.0,131.0,130.0,25.0,-103.0,-73.0,127.0,127.0,127.0,112.0,87.0,-94.0
129.0,131.0,119.0,126.0,127.0,128.0,131.0,130.0,25.0,-103.0,-73.0,127.0,127.0,127.0,112.0,87.0,-94.0
129.0,132.0,119.0,127.0,127.0,128.0,131.0,130.0,25.0,-103.0,-73.0,127.0,127.0,127.0,112.0,87.0,-94.0
129.0,132.0,119.0,127.0,127.0,128.0,131.0,130.0,25.0,-103.0,-73.0,127.0,127.0,127.0,112.0,87.0,-94.0
130.0,132.0,119.0,127.0,127.0,128.0,131.0,130.0,25.0,-103.0,-73.0,127.0,127.0,127.0,112.0,87.0,-94.0
130.0,132.0,119.0,127.0,127.0,128.0,131.0,130.0,25.0,-103.0,-73.0,127.0,127.0,127.0,112.0,87.0,-94.0
129.0,129.0,122.0,126.0,126.0,131.0,130.0,130.0,25.0,-103.0,-73.0,127.0,127.0,127.0,112.0,87.0,-94.0
129.0,129.0,122.0,126.0,126.0,131.0,130.0,130.0,25.0,-103.0,-73.0,127.0,127.0,127.0,112.0,87.0,-94.0
129.0,129.0,122.0,126.0,126.0,131.0,130.0,130.0,25.0,-103.0,-73.0,127.0,127.0,127.0,112.0,87.0,-94.0
129.0,130.0,122.0,126.0,126.0,130.0,130.0,130.0,25.0,-103.0,-73.0,127.0,127.0,127.0,112.0,87.0,-94.0
129.0,130.0,122.0,126.0,126.0,130.0,130.0,130.0,25.0,-103.0,-73.0,127.0,127.0,127.0,112.0,87.0,-94.0
129.0,130.0,122.0,126.0,126.0,130.0,130.0,130.0,25.0,-103.0,-73.0,127.0,127.0,127.0,112.0,87.0,-94.0
129.0,130.0,122.0,126.0,126.0,130.0,129.0,130.0,25.0,-103.0,-73.0,127.0,127.0,127.0,112.0,87.0,-94.0
129.0,129.0,122.0,126.0,126.0,130.0,129.0,130.0,25.0,-103.0,-73.0,127.0,127.0,127.0,112.0,87.0,-94.0
129.0,130.0,122.0,126.0,126.0,130.0,129.0,130.0,25.0,-103.0,-73.0,127.0,127.0,127.0,112.0,87.0,-94.0
129.0,129.0,122.0,126.0,126.0,131.0,130.0,130.0,25.0,-103.0,-73.0,127.0,127.0,127.0,112.0,87.0,-94.0
128.0,129.0,124.0,126.0,126.0,134.0,127.0,130.0,25.0,-103.0,-73.0,127.0,127.0,127.0,112.0,87.0,-94.0
128.0,129.0,124.0,126.0,126.0,134.0,127.0,130.0,25.0,-103.0,-73.0,127.0,127.0,127.0,112.0,87.0,-94.0
128.0,129.0,124.0,126.0,126.0,134.0,127.0,130.0,25.0,-103.0,-73.0,127.0,127.0,127.0,112.0,87.0,-94.0
128.0,129.0,124.0,126.0,126.0,134.0,127.0,130.0,25.0,-103.0,-73.0,127.0,127.0,127.0,112.0,87.0,-94.0
128.0,129.0,124.0,126.0,126.0,134.0,127.0,130.0,25.0,-103.0,-73.0,127.0,127.0,127.0,112.0,87.0,-94.0
128.0,129.0,124.0,126.0,126.0,133.0,127.0,130.0,25.0,-103.0,-73.0,127.0,127.0,127.0,112.0,87.0,-94.0
128.0,129.0,124.0,126.0,126.0,133.0,127.0,130.0,25.0,-103.0,-73.0,127.0,127.0,127.0,112.0,87.0,-94.0
128.0,129.0,124.0,126.0,126.0,133.0,127.0,130.0,25.0,-103.0,-73.0,127.0,127.0,127.0,112.0,87.0,-94.0
128.0,129.0,124.0,126.0,126.0,135.0,127.0,130.0,25.0,-103.0,-73.0,127.0,127.0,127.0,112.0,87.0,-94.0
128.0,129.0,124.0,126.0,126.0,134.0,127.0,130.0,25.0,-103.0,-73.0,127.0,127.0,127.0,112.0,87.0,-94.0
127.0,127.0,126.0,125.0,126.0,132.0,127.0,130.0,26.0,-103.0,-73.0,127.0,127.0,127.0,112.0,87.0,-94.0
127.0,127.0,126.0,126.0,126.0,132.0,127.0,130.0,26.0,-103.0,-73.0,127.0,127.0,127.0,112.0,87.0,-94.0
127.0,127.0,126.0,126.0,126.0,132.0,127.0,130.0,26.0,-103.0,-73.0,127.0,127.0,127.0,112.0,87.0,-94.0
127.0,128.0,126.0,126.0,126.0,132.0,127.0,130.0,26.0,-103.0,-73.0,127.0,127.0,127.0,112.0,87.0,-94.0
127.0,128.0,126.0,126.0,126.0,132.0,127.0,130.0,26.0,-103.0,-73.0,127.0,127.0,127.0,112.0,87.0,-94.0
127.0,127.0,126.0,126.0,126.0,131.0,127.0,130.0,26.0,-103.0,-73.0,127.0,127.0,127.0,112.0,87.0,-94.0
127.0,128.0,126.0,126.0,126.0,131.0,127.0,130.0,26.0,-103.0,-73.0,127.0,127.0,127.0,112.0,87.0,-94.0
127.0,127.0,127.0,125.0,126.0,132.0,127.0,130.0,26.0,-103.0,-73.0,127.0,127.0,127.0,112.0,87.0,-94.0
127.0,127.0,126.0,125.0,126.0,132.0,127.0,130.0,26.0,-103.0,-73.0,127.0,127.0,127.0,112.0,87.0,-94.0
127.0,127.0,126.0,125.0,126.0,132.0,127.0,130.0,26.0,-103.0,-73.0,127.0,127.0,127.0,112.0,87.0,-94.0
127.0,127.0,126.0,126.0,126.0,132.0,126.0,129.0,26.0,-103.0,-74.0,127.0,127.0,127.0,112.0,87.0,-94.0
127.0,127.0,126.0,126.0,126.0,131.0,126.0,129.0,26.0,-103.0,-74.0,127.0,127.0,127.0,112.0,87.0,-94.0
127.0,127.0,125.0,126.0,126.0,131.0,126.0,129.0,26.0,-103.0,-74.0,127.0,127.0,127.0,112.0,87.0,-94.0
127.0,127.0,125.0,126.0,126.0,131.0,126.0,129.0,26.0,-103.0,-74.0,127.0,127.0,127.0,112.0,87.0,-94.0
128.0,128.0,125.0,126.0,126.0,132.0,126.0,129.0,26.0,-103.0,-74.0,127.0,127.0,127.0,112.0,87.0,-94.0
128.0,128.0,125.0,126.0,126.0,132.0,126.0,129.0,26.0,-103.0,-74.0,127.0,127.0,127.0,112.0,87.0,-94.0
127.0,127.0,126.0,126.0,126.0,131.0,126.0,129.0,26.0,-103.0,-74.0,127.0,127.0,127.0,112.0,87.0,-94.0
127.0,127.0,126.0,125.0,127.0,132.0,126.0,129.0,26.0,-103.0,-74.0,127.0,127.0,127.0,112.0,87.0,-94.0
127.0,128.0,125.0,126.0,126.0,132.0,126.0,129.0,26.0,-103.0,-74.0,127.0,127.0,127.0,112.0,87.0,-94.0
127.0,127.0,125.0,126.0,126.0,132.0,126.0,129.0,26.0,-103.0,-74.0,127.0,127.0,127.0,112.0,87.0,-94.0
125.0,125.0,128.0,126.0,127.0,134.0,123.0,127.0,26.0,-103.0,-74.0,127.0,127.0,127.0,112.0,87.0,-94.0
125.0,125.0,128.0,126.0,127.0,134.0,123.0,127.0,26.0,-103.0,-74.0,127.0,127.0,127.0,112.0,87.0,-94.0
125.0,125.0,128.0,126.0,127.0,134.0,123.0,127.0,26.0,-103.0,-74.0,127.0,127.0,127.0,112.0,87.0,-94.0
125.0,125.0,128.0,126.0,127.0,135.0,123.0,127.0,26.0,-103.0,-74.0,127.0,127.0,127.0,112.0,87.0,-94.0
125.0,125.0,128.0,126.0,127.0,135.0,123.0,127.0,26.0,-103.0,-74.0,127.0,127.0,127.0,112.0,87.0,-94.0
124.0,124.0,129.0,126.0,126.0,133.0,123.0,127.0,26.0,-103.0,-74.0,127.0,127.0,127.0,112.0,87.0,-94.0
124.0,124.0,128.0,126.0,126.0,133.0,123.0,127.0,26.0,-103.0,-74.0,127.0,127.0,127.0,112.0,87.0,-94.0
124.0,125.0,128.0,126.0,126.0,134.0,123.0,127.0,26.0,-103.0,-74.0,127.0,127.0,127.0,112.0,87.0,-94.0
124.0,125.0,128.0,126.0,126.0,134.0,123.0,127.0,26.0,-103.0,-74.0,127.0,127.0,127.0,112.0,87.0,-94.0
124.0,125.0,128.0,126.0,126.0,134.0,123.0,127.0,26.0,-103.0,-74.0,127.0,127.0,127.0,112.0,87.0,-94.0
122.0,123.0,130.0,125.0,126.0,134.0,122.0,126.0,25.0,-103.0,-75.0,127.0,127.0,127.0,112.0,87.0,-94.0
122.0,122.0,130.0,125.0,126.0,134.0,122.0,126.0,25.0,-103.0,-75.0,127.0,127.0,127.0,112.0,87.0,-94.0
122.0,122.0,130.0,125.0,126.0,133.0,122.0,126.0,25.0,-103.0,-75.0,127.0,127.0,127.0,112.0,87.0,-94.0
122.0,122.0,130.0,125.0,126.0,133.0,122.0,126.0,25.0,-103.0,-75.0,127.0,127.0,127.0,112.0,87.0,-94.0
122.0,122.0,130.0,125.0,126.0,134.0,122.0,126.0,25.0,-103.0,-75.0,127.0,127.0,127.0,112.0,87.0,-94.0
122.0,122.0,130.0,125.0,126.0,134.0,122.0,126.0,25.0,-103.0,-75.0,127.0,127.0,127.0,112.0,87.0,-94.0
123.0,123.0,129.0,125.0,126.0,135.0,122.0,126.0,25.0,-103.0,-75.0,127.0,127.0,127.0,112.0,87.0,-94.0
123.0,123.0,129.0,125.0,126.0,135.0,122.0,126.0,25.0,-103.0,-75.0,127.0,127.0,127.0,112.0,87.0,-94.0
123.0,123.0,130.0,125.0,126.0,134.0,122.0,126.0,25.0,-103.0,-75.0,127.0,127.0,127.0,112.0,87.0,-94.0
122.0,122.0,130.0,125.0,126.0,134.0,122.0,126.0,25.0,-103.0,-75.0,127.0,127.0,127.0,112.0,87.0,-94.0
123.0,125.0,126.0,126.0,127.0,134.0,124.0,126.0,25.0,-103.0,-75.0,127.0,127.0,127.0,112.0,87.0,-94.0
123.0,125.0,126.0,126.0,127.0,133.0,124.0,127.0,25.0,-103.0,-75.0,127.0,127.0,127.0,112.0,87.0,-94.0
123.0,125.0,126.0,126.0,127.0,133.0,125.0,127.0,25.0,-103.0,-75.0,127.0,127.0,127.0,112.0,87.0,-94.0
123.0,124.0,127.0,126.0,127.0,134.0,124.0,126.0,25.0,-103.0,-75.0,127.0,127.0,127.0,112.0,87.0,-94.0
123.0,124.0,127.0,125.0,127.0,134.0,124.0,126.0,25.0,-103.0,-75.0,127.0,127.0,127.0,112.0,87.0,-94.0
123.0,125.0,127.0,126.0,127.0,135.0,124.0,126.0,25.0,-103.0,-75.0,127.0,127.0,127.0,112.0,87.0,-94.0
123.0,125.0,127.0,126.0,127.0,135.0,124.0,126.0,25.0,-103.0,-75.0,127.0,127.0,127.0,112.0,87.0,-94.0
123.0,125.0,127.0,126.0,127.0,134.0,124.0,126.0,25.0,-103.0,-75.0,127.0,127.0,127.0,112.0,87.0,-94.0
123.0,125.0,127.0,126.0,127.0,134.0,124.0,126.0,25.0,-103.0,-75.0,127.0,127.0,127.0,112.0,87.0,-94.0
123.0,125.0,126.0,126.0,127.0,134.0,124.0,126.0,25.0,-103.0,-75.0,127.0,127.0,127.0,112.0,87.0,-94.0
126.0,128.0,123.0,126.0,127.0,132.0,128.0,128.0,24.0,-103.0,-75.0,127.0,127.0,127.0,112.0,87.0,-94.0
126.0,128.0,123.0,126.0,127.0,131.0,128.0,128.0,24.0,-103.0,-75.0,127.0,127.0,127.0,112.0,87.0,-94.0
126.0,127.0,123.0,126.0,127.0,133.0,127.0,128.0,24.0,-103.0,-75.0,127.0,127.0,127.0,112.0,87.0,-94.0
126.0,127.0,123.0,126.0,127.0,132.0,127.0,128.0,24.0,-103.0,-75.0,127.0,127.0,127.0,112.0,87.0,-94.0
126.0,127.0,123.0,126.0,127.0,132.0,128.0,128.0,24.0,-103.0,-75.0,127.0,127.0,127.0,112.0,87.0,-94.0
126.0,128.0,123.0,126.0,127.0,132.0,128.0,128.0,24.0,-103.0,-75.0,127.0,127.0,127.0,112.0,87.0,-94.0
126.0,128.0,123.0,126.0,127.0,132.0,128.0,128.0,24.0,-103.0,-75.0,127.0,127.0,127.0,112.0,87.0,-94.0
126.0,128.0,123.0,126.0,127.0,133.0,128.0,128.0,24.0,-103.0,-75.0,127.0,127.0,127.0,112.0,87.0,-94.0
126.0,128.0,123.0,126.0,127.0,133.0,128.0,128.0,24.0,-103.0,-75.0,127.0,127.0,127.0,112.0,87.0,-94.0
126.0,128.0,123.0,126.0,127.0,132.0,128.0,128.0,24.0,-103.0,-75.0,127.0,127.0,127.0,112.0,87.0,-94.0
125.0,127.0,125.0,127.0,127.0,131.0,127.0,129.0,23.0,-103.0,-75.0,127.0,127.0,127.0,112.0,87.0,-94.0
125.0,127.0,125.0,126.0,127.0,132.0,127.0,128.0,23.0,-103.0,-75.0,127.0,127.0,127.0,112.0,87.0,-94.0
125.0,127.0,125.0,126.0,127.0,132.0,127.0,128.0,23.0,-103.0,-75.0,127.0,127.0,127.0,112.0,87.0,-94.0
125.0,127.0,125.0,126.0,127.0,131.0,127.0,128.0,23.0,-103.0,-75.0,127.0,127.0,127.0,112.0,87.0,-94.0
125.0,127.0,125.0,126.0,127.0,131.0,127.0,128.0,23.0,-103.0,-75.0,127.0,127.0,127.0,112.0,87.0,-94.0
125.0,127.0,125.0,126.0,127.0,131.0,127.0,129.0,23.0,-103.0,-75.0,127.0,127.0,127.0,112.0,87.0,-94.0
125.0,127.0,125.0,126.0,127.0,131.0,127.0,129.0,23.0,-103.0,-75.0,127.0,127.0,127.0,112.0,87.0,-94.0
125.0,127.0,125.0,126.0,127.0,131.0,127.0,129.0,23.0,-103.0,-75.0,127.0,127.0,127.0,112.0,87.0,-94.0
125.0,127.0,125.0,126.0,127.0,131.0,127.0,129.0,23.0,-103.0,-75.0,127.0,127.0,127.0,112.0,87.0,-94.0
125.0,127.0,125.0,126.0,127.0,131.0,127.0,129.0,23.0,-103.0,-75.0,127.0,127.0,127.0,112.0,87.0,-94.0
124.0,126.0,127.0,126.0,127.0,132.0,126.0,128.0,23.0,-103.0,-75.0,127.0,127.0,127.0,112.0,87.0,-94.0
124.0,126.0,127.0,126.0,127.0,132.0,126.0,128.0,23.0,-103.0,-75.0,127.0,127.0,127.0,112.0,87.0,-94.0
124.0,126.0,127.0,126.0,127.0,132.0,126.0,128.0,23.0,-103.0,-75.0,127.0,127.0,127.0,112.0,87.0,-94.0
124.0,126.0,127.0,126.0,127.0,132.0,126.0,128.0,23.0,-103.0,-75.0,127.0,127.0,127.0,112.0,87.0,-94.0
124.0,126.0,127.0,126.0,127.0,132.0,126.0,128.0,23.0,-103.0,-75.0,127.0,127.0,127.0,112.0,87.0,-94.0
124.0,126.0,127.0,126.0,127.0,132.0,126.0,128.0,23.0,-103.0,-75.0,127.0,127.0,127.0,112.0,87.0,-94.0
124.0,126.0,127.0,126.0,127.0,132.0,126.0,128.0,23.0,-103.0,-75.0,127.0,127.0,127.0,112.0,87.0,-94.0
125.0,126.0,127.0,126.0,127.0,132.0,126.0,128.0,23.0,-103.0,-75.0,127.0,127.0,127.0,112.0,87.0,-94.0
125.0,126.0,127.0,126.0,127.0,132.0,125.0,128.0,23.0,-103.0,-75.0,127.0,127.0,127.0,112.0,87.0,-94.0
125.0,127.0,126.0,126.0,127.0,133.0,125.0,128.0,23.0,-103.0,-75.0,127.0,127.0,127.0,112.0,87.0,-94.0
124.0,125.0,126.0,126.0,127.0,133.0,125.0,128.0,23.0,-104.0,-75.0,127.0,127.0,127.0,112.0,87.0,-94.0
124.0,125.0,126.0,126.0,127.0,133.0,125.0,128.0,23.0,-104.0,-75.0,127.0,127.0,127.0,112.0,87.0,-94.0
124.0,126.0,126.0,126.0,127.0,133.0,125.0,128.0,23.0,-104.0,-75.0,127.0,127.0,127.0,112.0,87.0,-94.0
124.0,126.0,126.0,126.0,127.0,133.0,125.0,128.0,23.0,-104.0,-75.0,127.0,127.0,127.0,112.0,87.0,-94.0
124.0,126.0,126.0,126.0,127.0,133.0,125.0,128.0,23.0,-104.0,-75.0,127.0,127.0,127.0,112.0,87.0,-94.0
124.0,126.0,125.0,126.0,127.0,133.0,125.0,128.0,23.0,-104.0,-75.0,127.0,127.0,127.0,112.0,87.0,-94.0
124.0,126.0,125.0,126.0,127.0,133.0,125.0,128.0,23.0,-104.0,-75.0,127.0,127.0,127.0,112.0,87.0,-94.0
124.0,126.0,125.0,126.0,127.0,133.0,125.0,128.0,23.0,-104.0,-75.0,127.0,127.0,127.0,112.0,87.0,-94.0
124.0,126.0,125.0,126.0,127.0,133.0,125.0,128.0,23.0,-104.0,-75.0,127.0,127.0,127.0,112.0,87.0,-94.0
124.0,125.0,126.0,126.0,127.0,133.0,125.0,128.0,23.0,-104.0,-75.0,127.0,127.0,127.0,112.0,87.0,-94.0
122.0,123.0,127.0,126.0,127.0,131.0,124.0,126.0,23.0,-104.0,-75.0,127.0,127.0,127.0,112.0,87.0,-94.0
122.0,123.0,126.0,126.0,127.0,131.0,124.0,126.0,23.0,-104.0,-75.0,127.0,127.0,127.0,112.0,87.0,-94.0
123.0,123.0,126.0,126.0,127.0,131.0,124.0,126.0,23.0,-104.0,-75.0,127.0,127.0,127.0,112.0,87.0,-94.0
123.0,123.0,127.0,126.0,127.0,131.0,124.0,126.0,23.0,-104.0,-75.0,127.0,127.0,127.0,112.0,87.0,-94.0
122.0,123.0,127.0,126.0,127.0,131.0,124.0,126.0,23.0,-104.0,-75.0,127.0,127.0,127.0,112.0,87.0,-94.0
123.0,123.0,126.0,126.0,127.0,131.0,124.0,126.0,23.0,-104.0,-75.0,127.0,127.0,127.0,112.0,87.0,-94.0
122.0,123.0,127.0,126.0,127.0,131.0,124.0,126.0,23.0,-104.0,-75.0,127.0,127.0,127.0,112.0,87.0,-94.0
122.0,123.0,127.0,126.0,127.0,131.0,124.0,126.0,23.0,-104.0,-75.0,127.0,127.0,127.0,112.0,87.0,-94.0
122.0,123.0,127.0,126.0,127.0,131.0,124.0,126.0,23.0,-104.0,-75.0,127.0,127.0,127.0,112.0,87.0,-94.0
122.0,123.0,127.0,126.0,127.0,131.0,124.0,126.0,23.0,-104.0,-75.0,127.0,127.0,127.0,112.0,87.0,-94.0
119.0,119.0,130.0,125.0,126.0,132.0,119.0,124.0,24.0,-104.0,-75.0,127.0,127.0,127.0,112.0,87.0,-94.0
119.0,120.0,130.0,125.0,126.0,132.0,119.0,124.0,24.0,-104.0,-75.0,127.0,127.0,127.0,112.0,87.0,-94.0
119.0,120.0,130.0,125.0,126.0,132.0,119.0,124.0,24.0,-104.0,-75.0,127.0,127.0,127.0,112.0,87.0,-94.0
119.0,119.0,130.0,125.0,126.0,132.0,119.0,124.0,24.0,-104.0,-75.0,127.0,127.0,127.0,112.0,87.0,-94.0
119.0,120.0,130.0,125.0,126.0,132.0,119.0,124.0,24.0,-104.0,-75.0,127.0,127.0,127.0,112.0,87.0,-94.0
119.0,120.0,130.0,125.0,126.0,132.0,119.0,124.0,24.0,-104.0,-75.0,127.0,127.0,127.0,112.0,87.0,-94.0
119.0,120.0,130.0,125.0,126.0,132.0,120.0,124.0,24.0,-104.0,-75.0,127.0,127.0,127.0,112.0,87.0,-94.0
119.0,120.0,130.0,125.0,126.0,132.0,120.0,124.0,24.0,-104.0,-75.0,127.0,127.0,127.0,112.0,87.0,-94.0
119.0,120.0,130.0,125.0,126.0,132.0,120.0,124.0,24.0,-104.0,-75.0,127.0,127.0,127.0,112.0,87.0,-94.0
119.0,120.0,130.0,125.0,126.0,132.0,120.0,124.0,24.0,-104.0,-75.0,127.0,127.0,127.0,112.0,87.0,-94.0
121.0,122.0,128.0,126.0,127.0,134.0,120.0,124.0,25.0,-103.0,-76.0,127.0,127.0,127.0,112.0,87.0,-94.0
121.0,122.0,128.0,126.0,127.0,134.0,120.0,124.0,25.0,-103.0,-76.0,127.0,127.0,127.0,112.0,87.0,-94.0
121.0,122.0,127.0,126.0,127.0,134.0,120.0,124.0,25.0,-103.0,-76.0,127.0,127.0,127.0,112.0,87.0,-94.0
121.0,122.0,127.0,126.0,127.0,134.0,120.0,124.0,25.0,-103.0,-76.0,127.0,127.0,127.0,112.0,87.0,-94.0
121.0,122.0,127.0,126.0,127.0,134.0,120.0,124.0,25.0,-103.0,-76.0,127.0,127.0,127.0,112.0,87.0,-94.0
120.0,121.0,128.0,126.0,127.0,134.0,119.0,124.0,25.0,-103.0,-76.0,127.0,127.0,127.0,112.0,87.0,-94.0
120.0,121.0,128.0,126.0,127.0,134.0,119.0,124.0,25.0,-103.0,-76.0,127.0,127.0,127.0,112.0,87.0,-94.0
120.0,121.0,128.0,126.0,127.0,134.0,120.0,124.0,25.0,-103.0,-76.0,127.0,127.0,127.0,112.0,87.0,-94.0
121.0,121.0,128.0,126.0,127.0,134.0,119.0,124.0,25.0,-103.0,-76.0,127.0,127.0,127.0,112.0,87.0,-94.0
121.0,122.0,128.0,126.0,127.0,134.0,120.0,124.0,25.0,-103.0,-76.0,127.0,127.0,127.0,112.0,87.0,-94.0
120.0,121.0,128.0,126.0,126.0,131.0,121.0,125.0,26.0,-103.0,-76.0,127.0,127.0,127.0,112.0,87.0,-94.0
120.0,121.0,127.0,126.0,126.0,132.0,121.0,125.0,26.0,-103.0,-76.0,127.0,127.0,127.0,112.0,87.0,-94.0
121.0,122.0,127.0,126.0,126.0,132.0,121.0,125.0,26.0,-103.0,-76.0,127.0,127.0,127.0,112.0,87.0,-94.0
121.0,122.0,127.0,126.0,126.0,131.0,121.0,125.0,26.0,-103.0,-76.0,127.0,127.0,127.0,112.0,87.0,-94.0
119.0,120.0,129.0,125.0,126.0,131.0,121.0,125.0,26.0,-103.0,-76.0,127.0,127.0,127.0,112.0,87.0,-94.0
120.0,120.0,128.0,125.0,126.0,131.0,121.0,125.0,26.0,-103.0,-76.0,127.0,127.0,127.0,112.0,87.0,-94.0
120.0,120.0,128.0,125.0,126.0,131.0,121.0,125.0,26.0,-103.0,-76.0,127.0,127.0,127.0,112.0,87.0,-94.0
120.0,120.0,128.0,125.0,126.0,131.0,121.0,125.0,26.0,-103.0,-76.0,127.0,127.0,127.0,112.0,87.0,-94.0
120.0,120.0,128.0,126.0,126.0,130.0,121.0,125.0,26.0,-103.0,-76.0,127.0,127.0,127.0,112.0,87.0,-94.0
120.0,120.0,128.0,126.0,126.0,131.0,121.0,125.0,26.0,-103.0,-76.0,127.0,127.0,127.0,112.0,87.0,-94.0
122.0,124.0,124.0,126.0,127.0,132.0,127.0,127.0,26.0,-102.0,-76.0,127.0,127.0,127.0,112.0,87.0,-94.0
122.0,124.0,124.0,126.0,127.0,132.0,127.0,127.0,26.0,-102.0,-76.0,127.0,127.0,127.0,112.0,87.0,-94.0
122.0,124.0,124.0,126.0,127.0,132.0,127.0,127.0,26.0,-102.0,-76.0,127.0,127.0,127.0,112.0,87.0,-94.0
122.0,123.0,124.0,126.0,127.0,133.0,126.0,126.0,26.0,-102.0,-76.0,127.0,127.0,127.0,112.0,87.0,-94.0
122.0,124.0,124.0,126.0,127.0,134.0,126.0,126.0,26.0,-102.0,-76.0,127.0,127.0,127.0,112.0,87.0,-94.0
122.0,124.0,124.0,126.0,127.0,133.0,126.0,126.0,26.0,-102.0,-76.0,127.0,127.0,127.0,112.0,87.0,-94.0
122.0,124.0,124.0,126.0,127.0,133.0,126.0,127.0,26.0,-102.0,-76.0,127.0,127.0,127.0,112.0,87.0,-94.0
122.0,124.0,124.0,126.0,127.0,134.0,126.0,127.0,26.0,-102.0,-76.0,127.0,127.0,127.0,112.0,87.0,-94.0
122.0,124.0,124.0,126.0,127.0,133.0,126.0,127.0,26.0,-102.0,-76.0,127.0,127.0,127.0,112.0,87.0,-94.0
122.0,124.0,124.0,126.0,127.0,133.0,126.0,127.0,26.0,-102.0,-76.0,127.0,127.0,127.0,112.0,87.0,-94.0
125.0,128.0,122.0,127.0,127.0,130.0,130.0,128.0,26.0,-102.0,-76.0,127.0,127.0,127.0,112.0,87.0,-94.0
125.0,128.0,122.0,127.0,127.0,130.0,130.0,128.0,26.0,-102.0,-76.0,127.0,127.0,127.0,112.0,87.0,-94.0
124.0,126.0,123.0,127.0,127.0,129.0,130.0,128.0,26.0,-102.0,-76.0,127.0,127.0,127.0,112.0,87.0,-94.0
124.0,127.0,123.0,127.0,127.0,130.0,130.0,128.0,26.0,-102.0,-76.0,127.0,127.0,127.0,112.0,87.0,-94.0
124.0,127.0,123.0,127.0,127.0,130.0,130.0,128.0,26.0,-102.0,-76.0,127.0,127.0,127.0,112.0,87.0,-94.0
124.0,127.0,123.0,127.0,127.0,130.0,130.0,128.0,26.0,-102.0,-76.0,127.0,127.0,127.0,112.0,87.0,-94.0
124.0,127.0,123.0,127.0,127.0,129.0,130.0,128.0,26.0,-102.0,-76.0,127.0,127.0,127.0,112.0,87.0,-94.0
124.0,127.0,123.0,127.0,127.0,129.0,130.0,128.0,26.0,-102.0,-76.0,127.0,127.0,127.0,112.0,87.0,-94.0
124.0,127.0,123.0,127.0,127.0,129.0,130.0,128.0,26.0,-102.0,-76.0,127.0,127.0,127.0,112.0,87.0,-94.0
125.0,128.0,122.0,127.0,127.0,130.0,130.0,128.0,26.0,-102.0,-76.0,127.0,127.0,127.0,112.0,87.0,-94.0
127.0,130.0,122.0,127.0,127.0,126.0,131.0,129.0,26.0,-102.0,-75.0,127.0,127.0,127.0,112.0,87.0,-94.0
125.0,129.0,123.0,127.0,127.0,127.0,130.0,128.0,26.0,-102.0,-75.0,127.0,127.0,127.0,112.0,87.0,-94.0
126.0,129.0,123.0,127.0,127.0,127.0,130.0,128.0,26.0,-102.0,-75.0,127.0,127.0,127.0,112.0,87.0,-94.0
126.0,129.0,123.0,127.0,127.0,127.0,130.0,128.0,26.0,-102.0,-75.0,127.0,127.0,127.0,112.0,87.0,-94.0
126.0,129.0,123.0,127.0,127.0,127.0,130.0,128.0,26.0,-102.0,-75.0,127.0,127.0,127.0,112.0,87.0,-94.0
126.0,130.0,122.0,127.0,127.0,127.0,130.0,128.0,26.0,-102.0,-75.0,127.0,127.0,127.0,112.0,87.0,-94.0
127.0,130.0,122.0,127.0,127.0,127.0,131.0,128.0,26.0,-102.0,-75.0,127.0,127.0,127.0,112.0,87.0,-94.0
127.0,130.0,122.0,127.0,127.0,127.0,131.0,129.0,26.0,-102.0,-75.0,127.0,127.0,127.0,112.0,87.0,-94.0
127.0,130.0,122.0,127.0,127.0,126.0,131.0,129.0,26.0,-102.0,-75.0,127.0,127.0,127.0,112.0,87.0,-94.0
127.0,130.0,122.0,127.0,127.0,126.0,131.0,129.0,26.0,-102.0,-75.0,127.0,127.0,127.0,112.0,87.0,-94.0
128.0,132.0,122.0,128.0,128.0,123.0,134.0,130.0,25.0,-103.0,-75.0,127.0,127.0,127.0,112.0,87.0,-94.0
128.0,132.0,122.0,128.0,128.0,123.0,134.0,130.0,25.0,-103.0,-75.0,127.0,127.0,127.0,112.0,87.0,-94.0
128.0,132.0,122.0,128.0,128.0,123.0,134.0,130.0,25.0,-103.0,-75.0,127.0,127.0,127.0,112.0,87.0,-94.0
128.0,132.0,122.0,128.0,128.0,123.0,134.0,130.0,25.0,-103.0,-75.0,127.0,127.0,127.0,112.0,87.0,-94.0
128.0,133.0,121.0,128.0,128.0,123.0,134.0,130.0,25.0,-103.0,-75.0,127.0,127.0,127.0,112.0,87.0,-94.0
128.0,133.0,121.0,128.0,128.0,124.0,134.0,130.0,25.0,-103.0,-75.0,127.0,127.0,127.0,112.0,87.0,-94.0
129.0,133.0,121.0,128.0,128.0,124.0,135.0,130.0,25.0,-103.0,-75.0,127.0,127.0,127.0,112.0,87.0,-94.0
129.0,133.0,121.0,128.0,128.0,123.0,135.0,130.0,25.0,-103.0,-75.0,127.0,127.0,127.0,112.0,87.0,-94.0
128.0,133.0,121.0,128.0,128.0,123.0,135.0,130.0,25.0,-103.0,-75.0,127.0,127.0,127.0,112.0,87.0,-94.0
129.0,133.0,121.0,128.0,128.0,123.0,135.0,130.0,25.0,-103.0,-75.0,127.0,127.0,127.0,112.0,87.0,-94.0
128.0,132.0,123.0,128.0,128.0,126.0,133.0,130.0,25.0,-103.0,-74.0,127.0,127.0,127.0,112.0,87.0,-94.0
128.0,132.0,123.0,128.0,128.0,126.0,133.0,130.0,25.0,-103.0,-74.0,127.0,127.0,127.0,112.0,87.0,-94.0
128.0,132.0,123.0,128.0,128.0,126.0,133.0,130.0,25.0,-103.0,-74.0,127.0,127.0,127.0,112.0,87.0,-94.0
129.0,132.0,123.0,128.0,128.0,126.0,133.0,130.0,25.0,-103.0,-74.0,127.0,127.0,127.0,112.0,87.0,-94.0
129.0,133.0,123.0,128.0,128.0,127.0,133.0,130.0,25.0,-103.0,-74.0,127.0,127.0,127.0,112.0,87.0,-94.0
129.0,133.0,122.0,128.0,128.0,126.0,133.0,130.0,25.0,-103.0,-74.0,127.0,127.0,127.0,112.0,87.0,-94.0
129.0,133.0,123.0,128.0,128.0,126.0,133.0,130.0,25.0,-103.0,-74.0,127.0,127.0,127.0,112.0,87.0,-94.0
129.0,132.0,123.0,128.0,128.0,126.0,133.0,130.0,25.0,-103.0,-74.0,127.0,127.0,127.0,112.0,87.0,-94.0
129.0,132.0,123.0,128.0,128.0,126.0,133.0,130.0,25.0,-103.0,-74.0,127.0,127.0,127.0,112.0,87.0,-94.0
129.0,132.0,123.0,128.0,128.0,126.0,133.0,130.0,25.0,-103.0,-74.0,127.0,127.0,127.0,112.0,87.0,-94.0
131.0,133.0,123.0,128.0,127.0,127.0,133.0,130.0,24.0,-104.0,-74.0,127.0,127.0,127.0,112.0,87.0,-94.0
131.0,133.0,123.0,128.0,127.0,127.0,133.0,130.0,24.0,-104.0,-74.0,127.0,127.0,127.0,112.0,87.0,-94.0
131.0,133.0,123.0,128.0,127.0,127.0,133.0,130.0,24.0,-104.0,-74.0,127.0,127.0,127.0,112.0,87.0,-94.0
131.0,133.0,123.0,128.0,127.0,127.0,133.0,130.0,24.0,-104.0,-74.0,127.0,127.0,127.0,112.0,87.0,-94.0
131.0,133.0,123.0,128.0,127.0,127.0,133.0,130.0,24.0,-104.0,-74.0,127.0,127.0,127.0,112.0,87.0,-94.0
131.0,133.0,123.0,128.0,127.0,126.0,133.0,130.0,24.0,-104.0,-74.0,127.0,127.0,127.0,112.0,87.0,-94.0
131.0,133.0,123.0,128.0,127.0,126.0,133.0,130.0,24.0,-104.0,-74.0,127.0,127.0,127.0,112.0,87.0,-94.0
131.0,133.0,123.0,128.0,127.0,126.0,133.0,131.0,24.0,-104.0,-74.0,127.0,127.0,127.0,112.0,87.0,-94.0
130.0,132.0,123.0,128.0,127.0,126.0,133.0,130.0,24.0,-104.0,-74.0,127.0,127.0,127.0,112.0,87.0,-94.0
131.0,133.0,123.0,128.0,127.0,127.0,132.0,130.0,24.0,-104.0,-74.0,127.0,127.0,127.0,112.0,87.0,-94.0
131.0,132.0,124.0,127.0,126.0,127.0,132.0,131.0,23.0,-104.0,-74.0,127.0,127.0,127.0,112.0,87.0,-94.0
131.0,132.0,124.0,127.0,126.0,126.0,132.0,131.0,23.0,-104.0,-74.0,127.0,127.0,127.0,112.0,87.0,-94.0
131.0,133.0,124.0,127.0,126.0,127.0,132.0,131.0,23.0,-104.0,-74.0,127.0,127.0,127.0,112.0,87.0,-94.0
131.0,133.0,124.0,128.0,126.0,127.0,132.0,131.0,23.0,-104.0,-74.0,127.0,127.0,127.0,112.0,87.0,-94.0
131.0,133.0,124.0,128.0,126.0,127.0,132.0,131.0,23.0,-104.0,-74.0,127.0,127.0,127.0,112.0,87.0,-94.0
131.0,133.0,123.0,128.0,126.0,127.0,132.0,131.0,23.0,-104.0,-74.0,127.0,127.0,127.0,112.0,87.0,-94.0
132.0,133.0,123.0,128.0,127.0,127.0,132.0,131.0,23.0,-104.0,-74.0,127.0,127.0,127.0,112.0,87.0,-94.0
130.0,132.0,124.0,127.0,126.0,126.0,132.0,131.0,23.0,-104.0,-74.0,127.0,127.0,127.0,112.0,87.0,-94.0
131.0,132.0,124.0,127.0,126.0,126.0,132.0,131.0,23.0,-104.0,-74.0,127.0,127.0,127.0,112.0,87.0,-94.0
131.0,132.0,124.0,127.0,126.0,127.0,132.0,130.0,23.0,-104.0,-74.0,127.0,127.0,127.0,112.0,87.0,-94.0
129.0,131.0,127.0,127.0,126.0,127.0,130.0,130.0,23.0,-104.0,-74.0,127.0,127.0,127.0,112.0,87.0,-94.0
129.0,131.0,126.0,127.0,126.0,128.0,130.0,130.0,23.0,-104.0,-74.0,127.0,127.0,127.0,112.0,87.0,-94.0
129.0,131.0,126.0,127.0,126.0,128.0,130.0,130.0,23.0,-104.0,-74.0,127.0,127.0,127.0,112.0,87.0,-94.0
129.0,131.0,126.0,127.0,126.0,128.0,130.0,130.0,23.0,-104.0,-74.0,127.0,127.0,127.0,112.0,87.0,-94.0
129.0,131.0,126.0,127.0,126.0,128.0,130.0,130.0,23.0,-104.0,-74.0,127.0,127.0,127.0,112.0,87.0,-94.0
129.0,131.0,126.0,127.0,126.0,127.0,130.0,130.0,23.0,-104.0,-74.0,127.0,127.0,127.0,112.0,87.0,-94.0
129.0,130.0,127.0,127.0,126.0,127.0,130.0,130.0,23.0,-104.0,-74.0,127.0,127.0,127.0,112.0,87.0,-94.0
129.0,130.0,127.0,127.0,126.0,127.0,130.0,130.0,23.0,-104.0,-74.0,127.0,127.0,127.0,112.0,87.0,-94.0
129.0,130.0,127.0,127.0,126.0,127.0,130.0,130.0,23.0,-104.0,-74.0,127.0,127.0,127.0,112.0,87.0,-94.0
129.0,130.0,127.0,127.0,126.0,127.0,130.0,130.0,23.0,-104.0,-74.0,127.0,127.0,127.0,112.0,87.0,-94.0
126.0,128.0,129.0,127.0,126.0,129.0,128.0,129.0,23.0,-104.0,-75.0,127.0,127.0,127.0,112.0,87.0,-94.0
126.0,128.0,129.0,127.0,126.0,129.0,128.0,129.0,23.0,-104.0,-75.0,127.0,127.0,127.0,112.0,87.0,-94.0
126.0,128.0,129.0,127.0,126.0,129.0,128.0,129.0,23.0,-104.0,-75.0,127.0,127.0,127.0,112.0,87.0,-94.0
126.0,128.0,129.0,126.0,126.0,129.0,128.0,129.0,23.0,-104.0,-75.0,127.0,127.0,127.0,112.0,87.0,-94.0
126.0,128.0,129.0,127.0,126.0,129.0,128.0,129.0,23.0,-104.0,-75.0,127.0,127.0,127.0,112.0,87.0,-94.0
126.0,128.0,129.0,126.0,126.0,129.0,128.0,129.0,23.0,-104.0,-75.0,127.0,127.0,127.0,112.0,87.0,-94.0
126.0,128.0,129.0,126.0,126.0,129.0,128.0,129.0,23.0,-104.0,-75.0,127.0,127.0,127.0,112.0,87.0,-94.0
126.0,128.0,129.0,126.0,126.0,129.0,128.0,129.0,23.0,-104.0,-75.0,127.0,127.0,127.0,112.0,87.0,-94.0
126.0,128.0,129.0,126.0,126.0,129.0,128.0,129.0,23.0,-104.0,-75.0,127.0,127.0,127.0,112.0,87.0,-94.0
126.0,128.0,129.0,127.0,126.0,129.0,128.0,129.0,23.0,-104.0,-75.0,127.0,127.0,127.0,112.0,87.0,-94.0
125.0,126.0,128.0,126.0,126.0,128.0,126.0,129.0,23.0,-104.0,-75.0,127.0,127.0,127.0,112.0,87.0,-94.0
126.0,126.0,128.0,126.0,126.0,128.0,126.0,129.0,23.0,-104.0,-75.0,127.0,127.0,127.0,112.0,87.0,-94.0
126.0,127.0,128.0,126.0,126.0,129.0,126.0,128.0,23.0,-104.0,-75.0,127.0,127.0,127.0,112.0,87.0,-94.0
126.0,127.0,128.0,126.0,126.0,129.0,126.0,129.0,23.0,-104.0,-75.0,127.0,127.0,127.0,112.0,87.0,-94.0
125.0,126.0,129.0,126.0,126.0,129.0,126.0,129.0,23.0,-104.0,-75.0,127.0,127.0,127.0,112.0,87.0,-94.0
125.0,126.0,129.0,126.0,126.0,129.0,126.0,129.0,23.0,-104.0,-75.0,127.0,127.0,127.0,112.0,87.0,-94.0
125.0,126.0,129.0,126.0,126.0,129.0,126.0,129.0,23.0,-104.0,-75.0,127.0,127.0,127.0,112.0,87.0,-94.0
125.0,126.0,129.0,126.0,126.0,129.0,126.0,129.0,23.0,-104.0,-75.0,127.0,127.0,127.0,112.0,87.0,-94.0
125.0,126.0,129.0,126.0,126.0,128.0,126.0,129.0,23.0,-104.0,-75.0,127.0,127.0,127.0,112.0,87.0,-94.0
125.0,126.0,129.0,126.0,126.0,128.0,126.0,129.0,23.0,-104.0,-75.0,127.0,127.0,127.0,112.0,87.0,-94.0
127.0,128.0,128.0,126.0,126.0,127.0,125.0,129.0,23.0,-103.0,-76.0,127.0,127.0,127.0,112.0,87.0,-94.0
127.0,128.0,128.0,126.0,126.0,126.0,125.0,129.0,23.0,-103.0,-76.0,127.0,127.0,127.0,112.0,87.0,-94.0
127.0,127.0,128.0,126.0,126.0,126.0,125.0,129.0,23.0,-103.0,-76.0,127.0,127.0,127.0,112.0,87.0,-94.0
127.0,127.0,128.0,126.0,126.0,127.0,125.0,129.0,23.0,-103.0,-76.0,127.0,127.0,127.0,112.0,87.0,-94.0
127.0,127.0,128.0,126.0,126.0,127.0,125.0,129.0,23.0,-103.0,-76.0,127.0,127.0,127.0,112.0,87.0,-94.0
127.0,127.0,128.0,126.0,126.0,127.0,125.0,128.0,23.0,-103.0,-76.0,127.0,127.0,127.0,112.0,87.0,-94.0
127.0,128.0,128.0,126.0,126.0,127.0,125.0,129.0,23.0,-103.0,-76.0,127.0,127.0,127.0,112.0,87.0,-94.0
127.0,128.0,128.0,126.0,126.0,127.0,125.0,129.0,23.0,-103.0,-76.0,127.0,127.0,127.0,112.0,87.0,-94.0
127.0,128.0,128.0,126.0,126.0,127.0,125.0,129.0,23.0,-103.0,-76.0,127.0,127.0,127.0,112.0,87.0,-94.0
127.0,128.0,128.0,126.0,126.0,127.0,125.0,129.0,23.0,-103.0,-76.0,127.0,127.0,127.0,112.0,87.0,-94.0
124.0,125.0,130.0,126.0,126.0,129.0,122.0,127.0,23.0,-103.0,-76.0,127.0,127.0,127.0,112.0,87.0,-94.0
