emg1,emg2,emg3,emg4,emg5,emg6,emg7,emg8,acc_x,acc_y,acc_z,gyro_x,gyro_y,gyro_z,angle_pitch,angle_roll,angle_yaw
126.0,127.0,127.0,127.0,127.0,127.0,106.0,128.0,26.0,-124.0,-68.0,127.0,127.0,127.0,126.0,87.0,-38.0
126.0,127.0,127.0,128.0,127.0,127.0,106.0,128.0,26.0,-124.0,-68.0,127.0,127.0,127.0,126.0,87.0,-38.0
126.0,127.0,127.0,128.0,127.0,127.0,108.0,128.0,26.0,-124.0,-68.0,127.0,127.0,127.0,126.0,87.0,-38.0
126.0,127.0,127.0,128.0,127.0,127.0,111.0,128.0,26.0,-124.0,-68.0,127.0,127.0,127.0,126.0,87.0,-38.0
126.0,127.0,127.0,128.0,127.0,127.0,112.0,128.0,26.0,-124.0,-68.0,127.0,127.0,127.0,126.0,87.0,-38.0
126.0,127.0,127.0,128.0,127.0,127.0,112.0,128.0,26.0,-124.0,-68.0,127.0,127.0,127.0,126.0,87.0,-38.0
126.0,127.0,127.0,128.0,127.0,127.0,113.0,128.0,26.0,-124.0,-68.0,127.0,127.0,127.0,126.0,87.0,-38.0
126.0,127.0,127.0,128.0,127.0,127.0,106.0,128.0,26.0,-124.0,-68.0,127.0,127.0,127.0,126.0,87.0,-38.0
126.0,127.0,127.0,128.0,127.0,128.0,107.0,128.0,26.0,-124.0,-68.0,127.0,127.0,127.0,126.0,87.0,-38.0
126.0,127.0,127.0,128.0,127.0,128.0,107.0,128.0,26.0,-124.0,-68.0,127.0,127.0,127.0,126.0,87.0,-38.0
126.0,127.0,127.0,128.0,127.0,128.0,107.0,128.0,26.0,-124.0,-68.0,127.0,127.0,127.0,126.0,87.0,-38.0
126.0,127.0,127.0,128.0,127.0,128.0,107.0,128.0,26.0,-124.0,-68.0,127.0,127.0,127.0,126.0,87.0,-38.0
126.0,127.0,127.0,128.0,127.0,128.0,107.0,128.0,26.0,-124.0,-68.0,127.0,127.0,127.0,126.0,87.0,-38.0
126.0,127.0,127.0,128.0,127.0,128.0,107.0,128.0,26.0,-124.0,-68.0,127.0,127.0,127.0,126.0,87.0,-38.0
126.0,127.0,127.0,128.0,127.0,128.0,106.0,128.0,26.0,-124.0,-68.0,127.0,127.0,127.0,126.0,87.0,-38.0
126.0,127.0,127.0,128.0,127.0,127.0,106.0,128.0,26.0,-124.0,-68.0,127.0,127.0,127.0,126.0,87.0,-38.0
126.0,127.0,127.0,128.0,127.0,127.0,106.0,128.0,26.0,-124.0,-68.0,127.0,127.0,127.0,126.0,87.0,-38.0
126.0,127.0,127.0,127.0,126.0,127.0,106.0,128.0,26.0,-124.0,-68.0,127.0,127.0,127.0,126.0,87.0,-38.0
126.0,127.0,127.0,127.0,126.0,128.0,107.0,128.0,26.0,-124.0,-68.0,127.0,127.0,127.0,126.0,87.0,-38.0
126.0,127.0,127.0,127.0,126.0,128.0,107.0,128.0,26.0,-124.0,-68.0,127.0,127.0,127.0,126.0,87.0,-38.0
126.0,127.0,127.0,127.0,126.0,128.0,107.0,128.0,26.0,-124.0,-68.0,127.0,127.0,127.0,126.0,87.0,-38.0
126.0,127.0,127.0,127.0,126.0,128.0,107.0,128.0,26.0,-124.0,-68.0,127.0,127.0,127.0,126.0,87.0,-38.0
126.0,127.0,127.0,127.0,126.0,128.0,107.0,128.0,26.0,-124.0,-68.0,127.0,127.0,127.0,126.0,87.0,-38.0
126.0,127.0,127.0,127.0,126.0,127.0,106.0,128.0,26.0,-124.0,-68.0,127.0,127.0,127.0,126.0,87.0,-38.0
126.0,127.0,127.0,127.0,126.0,127.0,107.0,128.0,26.0,-124.0,-68.0,127.0,127.0,127.0,126.0,87.0,-38.0
126.0,127.0,127.0,127.0,126.0,127.0,107.0,128.0,26.0,-124.0,-68.0,127.0,127.0,127.0,126.0,87.0,-38.0
126.0,127.0,127.0,127.0,126.0,127.0,107.0,128.0,26.0,-124.0,-68.0,127.0,127.0,127.0,126.0,87.0,-38.0
126.0,127.0,127.0,128.0,127.0,128.0,107.0,128.0,26.0,-124.0,-68.0,127.0,127.0,127.0,126.0,87.0,-38.0
126.0,127.0,127.0,128.0,127.0,128.0,108.0,128.0,26.0,-124.0,-68.0,127.0,127.0,127.0,126.0,87.0,-38.0
126.0,127.0,127.0,128.0,127.0,128.0,107.0,128.0,26.0,-124.0,-68.0,127.0,127.0,127.0,126.0,87.0,-38.0
126.0,127.0,127.0,128.0,127.0,128.0,107.0,128.0,26.0,-124.0,-68.0,127.0,127.0,127.0,126.0,87.0,-38.0
126.0,127.0,127.0,128.0,127.0,128.0,108.0,128.0,26.0,-124.0,-68.0,127.0,127.0,127.0,126.0,87.0,-38.0
126.0,127.0,127.0,128.0,127.0,128.0,107.0,128.0,26.0,-124.0,-68.0,127.0,127.0,127.0,126.0,87.0,-38.0
126.0,127.0,127.0,128.0,127.0,128.0,107.0,128.0,26.0,-124.0,-68.0,127.0,127.0,127.0,126.0,87.0,-38.0
126.0,127.0,127.0,128.0,127.0,128.0,108.0,128.0,26.0,-124.0,-68.0,127.0,127.0,127.0,126.0,87.0,-38.0
126.0,127.0,127.0,128.0,127.0,127.0,107.0,128.0,26.0,-124.0,-68.0,127.0,127.0,127.0,126.0,87.0,-38.0
126.0,127.0,127.0,128.0,127.0,127.0,107.0,128.0,26.0,-124.0,-68.0,127.0,127.0,127.0,126.0,87.0,-38.0
126.0,127.0,126.0,128.0,126.0,127.0,106.0,128.0,26.0,-124.0,-68.0,127.0,127.0,127.0,126.0,87.0,-38.0
126.0,127.0,126.0,127.0,126.0,127.0,106.0,128.0,26.0,-124.0,-68.0,127.0,127.0,127.0,126.0,87.0,-38.0
126.0,127.0,126.0,128.0,127.0,128.0,106.0,128.0,26.0,-124.0,-68.0,127.0,127.0,127.0,126.0,87.0,-38.0
126.0,127.0,126.0,128.0,127.0,128.0,107.0,128.0,26.0,-124.0,-68.0,127.0,127.0,127.0,126.0,87.0,-38.0
126.0,127.0,126.0,128.0,126.0,127.0,106.0,128.0,26.0,-124.0,-68.0,127.0,127.0,127.0,126.0,87.0,-38.0
126.0,127.0,126.0,128.0,126.0,127.0,107.0,128.0,26.0,-124.0,-68.0,127.0,127.0,127.0,126.0,87.0,-38.0
126.0,127.0,126.0,127.0,126.0,127.0,107.0,128.0,26.0,-124.0,-68.0,127.0,127.0,127.0,126.0,87.0,-38.0
126.0,127.0,126.0,127.0,126.0,127.0,107.0,128.0,26.0,-124.0,-68.0,127.0,127.0,127.0,126.0,87.0,-38.0
126.0,127.0,126.0,127.0,126.0,127.0,107.0,128.0,26.0,-124.0,-68.0,127.0,127.0,127.0,126.0,87.0,-38.0
126.0,127.0,126.0,127.0,126.0,127.0,106.0,128.0,26.0,-124.0,-68.0,127.0,127.0,127.0,126.0,87.0,-38.0
126.0,127.0,127.0,128.0,127.0,127.0,106.0,128.0,26.0,-124.0,-68.0,127.0,127.0,127.0,126.0,87.0,-38.0
126.0,127.0,127.0,128.0,127.0,127.0,106.0,128.0,26.0,-124.0,-68.0,127.0,127.0,127.0,126.0,87.0,-38.0
126.0,127.0,127.0,128.0,127.0,128.0,106.0,128.0,26.0,-124.0,-68.0,127.0,127.0,127.0,126.0,87.0,-38.0
126.0,127.0,127.0,128.0,127.0,128.0,106.0,128.0,26.0,-124.0,-68.0,127.0,127.0,127.0,126.0,87.0,-38.0
126.0,127.0,127.0,128.0,127.0,127.0,106.0,128.0,26.0,-124.0,-68.0,127.0,127.0,127.0,126.0,87.0,-38.0
126.0,127.0,127.0,128.0,127.0,127.0,106.0,128.0,26.0,-124.0,-68.0,127.0,127.0,127.0,126.0,87.0,-38.0
126.0,127.0,127.0,128.0,127.0,127.0,107.0,128.0,26.0,-124.0,-68.0,127.0,127.0,127.0,126.0,87.0,-38.0
127.0,127.0,127.0,128.0,127.0,127.0,107.0,128.0,26.0,-124.0,-68.0,127.0,127.0,127.0,126.0,87.0,-38.0
127.0,127.0,127.0,128.0,127.0,127.0,106.0,128.0,26.0,-124.0,-68.0,127.0,127.0,127.0,126.0,87.0,-38.0
127.0,127.0,127.0,128.0,127.0,127.0,106.0,128.0,26.0,-124.0,-68.0,127.0,127.0,127.0,126.0,87.0,-38.0
126.0,127.0,127.0,127.0,127.0,127.0,107.0,128.0,26.0,-124.0,-68.0,127.0,127.0,127.0,126.0,87.0,-38.0
126.0,127.0,127.0,128.0,126.0,127.0,107.0,128.0,26.0,-124.0,-68.0,127.0,127.0,127.0,126.0,87.0,-38.0
126.0,127.0,127.0,128.0,126.0,127.0,107.0,128.0,26.0,-124.0,-68.0,127.0,127.0,127.0,126.0,87.0,-38.0
126.0,127.0,127.0,127.0,126.0,127.0,106.0,128.0,26.0,-124.0,-68.0,127.0,127.0,127.0,126.0,87.0,-38.0
126.0,127.0,127.0,127.0,126.0,128.0,106.0,128.0,26.0,-124.0,-68.0,127.0,127.0,127.0,126.0,87.0,-38.0
127.0,127.0,127.0,128.0,127.0,127.0,107.0,128.0,26.0,-124.0,-68.0,127.0,127.0,127.0,126.0,87.0,-38.0
127.0,127.0,127.0,128.0,127.0,127.0,106.0,128.0,26.0,-124.0,-68.0,127.0,127.0,127.0,126.0,87.0,-38.0
127.0,127.0,127.0,128.0,127.0,127.0,106.0,128.0,26.0,-124.0,-68.0,127.0,127.0,127.0,126.0,87.0,-38.0
127.0,127.0,127.0,128.0,127.0,127.0,107.0,128.0,26.0,-124.0,-68.0,127.0,127.0,127.0,126.0,87.0,-38.0
127.0,127.0,127.0,128.0,127.0,127.0,107.0,128.0,26.0,-124.0,-68.0,127.0,127.0,127.0,126.0,87.0,-38.0
127.0,127.0,127.0,128.0,127.0,127.0,113.0,128.0,26.0,-124.0,-68.0,127.0,127.0,127.0,126.0,87.0,-38.0
127.0,127.0,127.0,128.0,127.0,127.0,112.0,128.0,26.0,-124.0,-68.0,127.0,127.0,127.0,126.0,87.0,-38.0
127.0,127.0,127.0,128.0,127.0,127.0,112.0,128.0,26.0,-124.0,-68.0,127.0,127.0,127.0,126.0,87.0,-38.0
127.0,127.0,127.0,128.0,127.0,127.0,112.0,128.0,26.0,-124.0,-68.0,127.0,127.0,127.0,126.0,87.0,-38.0
127.0,127.0,127.0,128.0,127.0,127.0,113.0,128.0,26.0,-124.0,-68.0,127.0,127.0,127.0,126.0,87.0,-38.0
127.0,127.0,127.0,128.0,127.0,127.0,113.0,128.0,26.0,-124.0,-68.0,127.0,127.0,127.0,126.0,87.0,-38.0
127.0,127.0,127.0,128.0,127.0,127.0,113.0,128.0,26.0,-124.0,-68.0,127.0,127.0,127.0,126.0,87.0,-38.0
127.0,127.0,127.0,128.0,127.0,127.0,113.0,128.0,26.0,-124.0,-68.0,127.0,127.0,127.0,126.0,87.0,-38.0
127.0,127.0,127.0,128.0,127.0,127.0,112.0,128.0,26.0,-124.0,-68.0,127.0,127.0,127.0,126.0,87.0,-38.0
127.0,127.0,127.0,128.0,127.0,127.0,112.0,128.0,26.0,-124.0,-68.0,127.0,127.0,127.0,126.0,87.0,-38.0
126.0,127.0,127.0,128.0,127.0,127.0,106.0,128.0,26.0,-124.0,-68.0,127.0,127.0,127.0,126.0,87.0,-38.0
126.0,127.0,127.0,128.0,127.0,127.0,106.0,128.0,26.0,-124.0,-68.0,127.0,127.0,127.0,126.0,87.0,-38.0
127.0,127.0,127.0,128.0,127.0,127.0,106.0,128.0,26.0,-124.0,-68.0,127.0,127.0,127.0,126.0,87.0,-38.0
127.0,127.0,127.0,127.0,127.0,127.0,107.0,128.0,26.0,-124.0,-68.0,127.0,127.0,127.0,126.0,87.0,-38.0
127.0,127.0,127.0,128.0,127.0,127.0,106.0,128.0,26.0,-124.0,-68.0,127.0,127.0,127.0,126.0,87.0,-38.0
127.0,127.0,127.0,127.0,127.0,127.0,107.0,128.0,26.0,-124.0,-68.0,127.0,127.0,127.0,126.0,87.0,-38.0
127.0,127.0,127.0,128.0,127.0,127.0,107.0,128.0,26.0,-124.0,-68.0,127.0,127.0,127.0,126.0,87.0,-38.0
127.0,127.0,127.0,128.0,127.0,127.0,107.0,128.0,26.0,-124.0,-68.0,127.0,127.0,127.0,126.0,87.0,-38.0
127.0,127.0,127.0,128.0,127.0,127.0,107.0,128.0,26.0,-124.0,-68.0,127.0,127.0,127.0,126.0,87.0,-38.0
127.0,127.0,127.0,128.0,127.0,127.0,106.0,128.0,26.0,-124.0,-68.0,127.0,127.0,127.0,126.0,87.0,-38.0
126.0,127.0,127.0,128.0,127.0,128.0,107.0,128.0,26.0,-124.0,-68.0,127.0,127.0,127.0,126.0,87.0,-38.0
126.0,127.0,127.0,128.0,127.0,128.0,107.0,128.0,26.0,-124.0,-68.0,127.0,127.0,127.0,126.0,87.0,-38.0
127.0,127.0,127.0,127.0,127.0,127.0,106.0,128.0,26.0,-124.0,-68.0,127.0,127.0,127.0,126.0,87.0,-38.0
127.0,127.0,127.0,127.0,127.0,127.0,106.0,128.0,26.0,-124.0,-68.0,127.0,127.0,127.0,126.0,87.0,-38.0
126.0,127.0,127.0,127.0,127.0,127.0,107.0,128.0,26.0,-124.0,-68.0,127.0,127.0,127.0,126.0,87.0,-38.0
126.0,127.0,127.0,128.0,127.0,127.0,106.0,128.0,26.0,-124.0,-68.0,127.0,127.0,127.0,126.0,87.0,-38.0
126.0,127.0,127.0,128.0,127.0,128.0,107.0,128.0,26.0,-124.0,-68.0,127.0,127.0,127.0,126.0,87.0,-38.0
126.0,127.0,127.0,128.0,127.0,127.0,106.0,128.0,26.0,-124.0,-68.0,127.0,127.0,127.0,126.0,87.0,-38.0
126.0,127.0,127.0,128.0,127.0,128.0,107.0,128.0,26.0,-124.0,-68.0,127.0,127.0,127.0,126.0,87.0,-38.0
126.0,127.0,127.0,128.0,127.0,128.0,107.0,128.0,26.0,-124.0,-68.0,127.0,127.0,127.0,126.0,87.0,-38.0
126.0,127.0,127.0,127.0,126.0,127.0,106.0,128.0,26.0,-124.0,-68.0,127.0,127.0,127.0,126.0,87.0,-38.0
127.0,127.0,127.0,127.0,127.0,127.0,114.0,128.0,26.0,-124.0,-68.0,127.0,127.0,127.0,126.0,87.0,-38.0
127.0,127.0,127.0,127.0,127.0,127.0,112.0,128.0,26.0,-124.0,-68.0,127.0,127.0,127.0,126.0,87.0,-38.0
127.0,127.0,127.0,128.0,127.0,127.0,110.0,128.0,26.0,-124.0,-68.0,127.0,127.0,127.0,126.0,87.0,-38.0
126.0,127.0,126.0,128.0,127.0,127.0,109.0,128.0,26.0,-124.0,-68.0,127.0,127.0,127.0,126.0,87.0,-38.0
126.0,127.0,126.0,128.0,127.0,127.0,107.0,128.0,26.0,-124.0,-68.0,127.0,127.0,127.0,126.0,87.0,-38.0
126.0,127.0,127.0,128.0,127.0,127.0,107.0,128.0,26.0,-124.0,-68.0,127.0,127.0,127.0,126.0,87.0,-38.0
126.0,127.0,127.0,128.0,127.0,127.0,106.0,128.0,26.0,-124.0,-68.0,127.0,127.0,127.0,126.0,87.0,-38.0
126.0,127.0,127.0,127.0,127.0,127.0,106.0,128.0,26.0,-124.0,-68.0,127.0,127.0,127.0,126.0,87.0,-38.0
126.0,127.0,127.0,128.0,127.0,127.0,106.0,128.0,26.0,-124.0,-68.0,127.0,127.0,127.0,126.0,87.0,-38.0
127.0,126.0,127.0,128.0,127.0,126.0,112.0,128.0,26.0,-124.0,-68.0,127.0,127.0,127.0,126.0,87.0,-38.0
126.0,126.0,127.0,128.0,127.0,127.0,112.0,128.0,26.0,-124.0,-68.0,127.0,127.0,127.0,126.0,87.0,-38.0
126.0,126.0,127.0,128.0,127.0,127.0,112.0,128.0,26.0,-124.0,-68.0,127.0,127.0,127.0,126.0,87.0,-38.0
126.0,127.0,126.0,128.0,127.0,127.0,112.0,128.0,26.0,-124.0,-68.0,127.0,127.0,127.0,126.0,87.0,-38.0
126.0,127.0,126.0,128.0,127.0,127.0,108.0,128.0,26.0,-124.0,-68.0,127.0,127.0,127.0,126.0,87.0,-38.0
126.0,127.0,127.0,128.0,127.0,127.0,107.0,128.0,26.0,-124.0,-68.0,127.0,127.0,127.0,126.0,87.0,-38.0
126.0,127.0,127.0,128.0,127.0,127.0,112.0,128.0,26.0,-124.0,-68.0,127.0,127.0,127.0,126.0,87.0,-38.0
126.0,127.0,127.0,128.0,127.0,127.0,113.0,128.0,26.0,-124.0,-68.0,127.0,127.0,127.0,126.0,87.0,-38.0
126.0,127.0,127.0,128.0,127.0,127.0,113.0,128.0,26.0,-124.0,-68.0,127.0,127.0,127.0,126.0,87.0,-38.0
126.0,127.0,126.0,128.0,127.0,127.0,111.0,128.0,26.0,-124.0,-68.0,127.0,127.0,127.0,126.0,87.0,-38.0
127.0,127.0,127.0,128.0,126.0,127.0,106.0,128.0,26.0,-124.0,-68.0,127.0,127.0,127.0,126.0,87.0,-38.0
127.0,127.0,127.0,128.0,127.0,127.0,106.0,128.0,26.0,-124.0,-68.0,127.0,127.0,127.0,126.0,87.0,-38.0
127.0,127.0,127.0,127.0,126.0,127.0,106.0,128.0,26.0,-124.0,-68.0,127.0,127.0,127.0,126.0,87.0,-38.0
127.0,127.0,127.0,128.0,127.0,127.0,106.0,128.0,26.0,-124.0,-68.0,127.0,127.0,127.0,126.0,87.0,-38.0
127.0,127.0,127.0,128.0,126.0,127.0,106.0,128.0,26.0,-124.0,-68.0,127.0,127.0,127.0,126.0,87.0,-38.0
126.0,127.0,127.0,128.0,126.0,127.0,106.0,128.0,26.0,-124.0,-68.0,127.0,127.0,127.0,126.0,87.0,-38.0
126.0,127.0,126.0,128.0,127.0,128.0,107.0,128.0,26.0,-124.0,-68.0,127.0,127.0,127.0,126.0,87.0,-38.0
126.0,127.0,127.0,128.0,127.0,128.0,107.0,128.0,26.0,-124.0,-68.0,127.0,127.0,127.0,126.0,87.0,-38.0
126.0,127.0,127.0,128.0,127.0,128.0,107.0,128.0,26.0,-124.0,-68.0,127.0,127.0,127.0,126.0,87.0,-38.0
127.0,127.0,127.0,128.0,126.0,127.0,107.0,128.0,26.0,-124.0,-68.0,127.0,127.0,127.0,126.0,87.0,-38.0
126.0,127.0,127.0,127.0,127.0,127.0,107.0,128.0,26.0,-124.0,-68.0,127.0,127.0,127.0,126.0,87.0,-38.0
126.0,127.0,127.0,128.0,127.0,127.0,107.0,128.0,26.0,-124.0,-68.0,127.0,127.0,127.0,126.0,87.0,-38.0
126.0,127.0,127.0,128.0,127.0,127.0,107.0,128.0,26.0,-124.0,-68.0,127.0,127.0,127.0,126.0,87.0,-38.0
126.0,127.0,127.0,128.0,127.0,127.0,107.0,128.0,26.0,-124.0,-68.0,127.0,127.0,127.0,126.0,87.0,-38.0
126.0,127.0,127.0,128.0,127.0,127.0,106.0,128.0,26.0,-124.0,-68.0,127.0,127.0,127.0,126.0,87.0,-38.0
126.0,127.0,127.0,128.0,127.0,127.0,106.0,128.0,26.0,-124.0,-68.0,127.0,127.0,127.0,126.0,87.0,-38.0
126.0,127.0,127.0,128.0,127.0,127.0,106.0,128.0,26.0,-124.0,-68.0,127.0,127.0,127.0,126.0,87.0,-38.0
126.0,127.0,127.0,128.0,127.0,127.0,106.0,128.0,26.0,-124.0,-68.0,127.0,127.0,127.0,126.0,87.0,-38.0
126.0,127.0,127.0,127.0,127.0,127.0,108.0,128.0,26.0,-124.0,-68.0,127.0,127.0,127.0,126.0,87.0,-38.0
126.0,127.0,127.0,127.0,127.0,127.0,107.0,128.0,26.0,-124.0,-68.0,127.0,127.0,127.0,126.0,87.0,-38.0
126.0,127.0,127.0,128.0,127.0,128.0,107.0,128.0,26.0,-124.0,-68.0,127.0,127.0,127.0,126.0,87.0,-38.0
126.0,127.0,127.0,128.0,127.0,128.0,107.0,128.0,26.0,-124.0,-68.0,127.0,127.0,127.0,126.0,87.0,-38.0
126.0,127.0,127.0,127.0,127.0,128.0,107.0,128.0,26.0,-124.0,-68.0,127.0,127.0,127.0,126.0,87.0,-38.0
126.0,127.0,127.0,127.0,127.0,128.0,107.0,128.0,26.0,-124.0,-68.0,127.0,127.0,127.0,126.0,87.0,-38.0
126.0,127.0,127.0,127.0,127.0,128.0,107.0,128.0,26.0,-124.0,-68.0,127.0,127.0,127.0,126.0,87.0,-38.0
126.0,127.0,127.0,128.0,127.0,128.0,107.0,128.0,26.0,-124.0,-68.0,127.0,127.0,127.0,126.0,87.0,-38.0
126.0,127.0,127.0,127.0,127.0,128.0,107.0,128.0,26.0,-124.0,-68.0,127.0,127.0,127.0,126.0,87.0,-38.0
126.0,127.0,127.0,128.0,127.0,127.0,106.0,128.0,26.0,-124.0,-68.0,127.0,127.0,127.0,126.0,87.0,-38.0
126.0,127.0,127.0,128.0,127.0,128.0,107.0,128.0,26.0,-124.0,-68.0,127.0,127.0,127.0,126.0,87.0,-38.0
126.0,127.0,127.0,128.0,127.0,128.0,107.0,128.0,26.0,-124.0,-68.0,127.0,127.0,127.0,126.0,87.0,-38.0
127.0,127.0,127.0,127.0,126.0,127.0,113.0,128.0,26.0,-124.0,-68.0,127.0,127.0,127.0,126.0,87.0,-38.0
126.0,127.0,127.0,127.0,126.0,127.0,113.0,128.0,26.0,-124.0,-68.0,127.0,127.0,127.0,126.0,87.0,-38.0
126.0,127.0,127.0,127.0,126.0,127.0,113.0,128.0,26.0,-124.0,-68.0,127.0,127.0,127.0,126.0,87.0,-38.0
126.0,127.0,127.0,127.0,126.0,127.0,110.0,128.0,26.0,-124.0,-68.0,127.0,127.0,127.0,126.0,87.0,-38.0
126.0,127.0,127.0,127.0,127.0,127.0,107.0,128.0,26.0,-124.0,-68.0,127.0,127.0,127.0,126.0,87.0,-38.0
126.0,127.0,127.0,127.0,127.0,127.0,107.0,128.0,26.0,-124.0,-68.0,127.0,127.0,127.0,126.0,87.0,-38.0
127.0,126.0,127.0,127.0,126.0,127.0,113.0,128.0,26.0,-124.0,-68.0,127.0,127.0,127.0,126.0,87.0,-38.0
127.0,127.0,127.0,127.0,126.0,127.0,113.0,128.0,26.0,-124.0,-68.0,127.0,127.0,127.0,126.0,87.0,-38.0
127.0,127.0,127.0,127.0,126.0,127.0,113.0,128.0,26.0,-124.0,-68.0,127.0,127.0,127.0,126.0,87.0,-38.0
127.0,127.0,127.0,127.0,126.0,127.0,113.0,128.0,26.0,-124.0,-68.0,127.0,127.0,127.0,126.0,87.0,-38.0
126.0,127.0,128.0,128.0,127.0,127.0,106.0,128.0,26.0,-124.0,-68.0,127.0,127.0,127.0,126.0,87.0,-38.0
127.0,127.0,128.0,128.0,127.0,127.0,106.0,128.0,26.0,-124.0,-68.0,127.0,127.0,127.0,126.0,87.0,-38.0
127.0,127.0,128.0,128.0,127.0,127.0,105.0,128.0,26.0,-124.0,-68.0,127.0,127.0,127.0,126.0,87.0,-38.0
127.0,127.0,128.0,128.0,126.0,127.0,109.0,128.0,26.0,-124.0,-68.0,127.0,127.0,127.0,126.0,87.0,-38.0
127.0,127.0,128.0,128.0,126.0,127.0,112.0,128.0,26.0,-124.0,-68.0,127.0,127.0,127.0,126.0,87.0,-38.0
127.0,127.0,128.0,127.0,127.0,127.0,113.0,128.0,26.0,-124.0,-68.0,127.0,127.0,127.0,126.0,87.0,-38.0
127.0,127.0,128.0,127.0,127.0,127.0,109.0,128.0,26.0,-124.0,-68.0,127.0,127.0,127.0,126.0,87.0,-38.0
126.0,127.0,128.0,127.0,127.0,127.0,107.0,128.0,26.0,-124.0,-68.0,127.0,127.0,127.0,126.0,87.0,-38.0
127.0,127.0,128.0,128.0,127.0,127.0,107.0,128.0,26.0,-124.0,-68.0,127.0,127.0,127.0,126.0,87.0,-38.0
127.0,127.0,128.0,128.0,127.0,127.0,106.0,128.0,26.0,-124.0,-68.0,127.0,127.0,127.0,126.0,87.0,-38.0
127.0,127.0,127.0,128.0,127.0,128.0,107.0,128.0,26.0,-124.0,-68.0,127.0,127.0,127.0,126.0,87.0,-38.0
127.0,127.0,127.0,128.0,127.0,128.0,107.0,128.0,26.0,-124.0,-68.0,127.0,127.0,127.0,126.0,87.0,-38.0
127.0,127.0,127.0,128.0,127.0,128.0,106.0,128.0,26.0,-124.0,-68.0,127.0,127.0,127.0,126.0,87.0,-38.0
127.0,127.0,127.0,128.0,127.0,127.0,106.0,128.0,26.0,-124.0,-68.0,127.0,127.0,127.0,126.0,87.0,-38.0
127.0,127.0,127.0,128.0,127.0,128.0,106.0,128.0,26.0,-124.0,-68.0,127.0,127.0,127.0,126.0,87.0,-38.0
126.0,127.0,127.0,128.0,127.0,128.0,107.0,128.0,26.0,-124.0,-68.0,127.0,127.0,127.0,126.0,87.0,-38.0
127.0,127.0,127.0,128.0,127.0,128.0,107.0,128.0,26.0,-124.0,-68.0,127.0,127.0,127.0,126.0,87.0,-38.0
127.0,127.0,127.0,128.0,127.0,128.0,107.0,128.0,26.0,-124.0,-68.0,127.0,127.0,127.0,126.0,87.0,-38.0
127.0,127.0,127.0,128.0,127.0,128.0,108.0,128.0,26.0,-124.0,-68.0,127.0,127.0,127.0,126.0,87.0,-38.0
127.0,127.0,127.0,128.0,127.0,128.0,107.0,128.0,26.0,-124.0,-68.0,127.0,127.0,127.0,126.0,87.0,-38.0
126.0,127.0,127.0,128.0,127.0,128.0,106.0,128.0,26.0,-124.0,-68.0,127.0,127.0,127.0,126.0,87.0,-38.0
126.0,127.0,127.0,128.0,127.0,127.0,106.0,128.0,26.0,-124.0,-68.0,127.0,127.0,127.0,126.0,87.0,-38.0
126.0,127.0,127.0,128.0,127.0,127.0,107.0,128.0,26.0,-124.0,-68.0,127.0,127.0,127.0,126.0,87.0,-38.0
126.0,127.0,127.0,128.0,127.0,127.0,107.0,128.0,26.0,-124.0,-68.0,127.0,127.0,127.0,126.0,87.0,-38.0
126.0,127.0,127.0,127.0,127.0,127.0,106.0,128.0,26.0,-124.0,-68.0,127.0,127.0,127.0,126.0,87.0,-38.0
126.0,127.0,127.0,127.0,127.0,128.0,107.0,128.0,26.0,-124.0,-68.0,127.0,127.0,127.0,126.0,87.0,-38.0
126.0,127.0,127.0,128.0,127.0,128.0,107.0,128.0,26.0,-124.0,-68.0,127.0,127.0,127.0,126.0,87.0,-38.0
126.0,127.0,127.0,128.0,127.0,128.0,107.0,128.0,26.0,-124.0,-68.0,127.0,127.0,127.0,126.0,87.0,-38.0
126.0,127.0,127.0,128.0,127.0,128.0,107.0,128.0,26.0,-124.0,-68.0,127.0,127.0,127.0,126.0,87.0,-38.0
126.0,127.0,127.0,128.0,127.0,128.0,106.0,128.0,26.0,-124.0,-68.0,127.0,127.0,127.0,126.0,87.0,-38.0
126.0,127.0,127.0,127.0,127.0,128.0,108.0,128.0,26.0,-124.0,-68.0,127.0,127.0,127.0,126.0,87.0,-38.0
126.0,127.0,127.0,128.0,127.0,128.0,108.0,128.0,26.0,-124.0,-68.0,127.0,127.0,127.0,126.0,87.0,-38.0
126.0,127.0,127.0,128.0,127.0,128.0,108.0,128.0,26.0,-124.0,-68.0,127.0,127.0,127.0,126.0,87.0,-38.0
126.0,127.0,127.0,127.0,127.0,128.0,107.0,128.0,26.0,-124.0,-68.0,127.0,127.0,127.0,126.0,87.0,-38.0
126.0,127.0,127.0,127.0,127.0,128.0,107.0,128.0,26.0,-124.0,-68.0,127.0,127.0,127.0,126.0,87.0,-38.0
126.0,127.0,127.0,127.0,127.0,128.0,108.0,128.0,26.0,-124.0,-68.0,127.0,127.0,127.0,126.0,87.0,-38.0
126.0,127.0,127.0,127.0,127.0,128.0,108.0,128.0,26.0,-124.0,-68.0,127.0,127.0,127.0,126.0,87.0,-38.0
126.0,127.0,127.0,127.0,127.0,128.0,107.0,128.0,26.0,-124.0,-68.0,127.0,127.0,127.0,126.0,87.0,-38.0
126.0,127.0,127.0,127.0,127.0,128.0,107.0,128.0,26.0,-124.0,-68.0,127.0,127.0,127.0,126.0,87.0,-38.0
126.0,127.0,127.0,127.0,127.0,128.0,107.0,128.0,26.0,-124.0,-68.0,127.0,127.0,127.0,126.0,87.0,-38.0
126.0,127.0,127.0,128.0,127.0,127.0,106.0,128.0,26.0,-124.0,-68.0,127.0,127.0,127.0,126.0,87.0,-38.0
126.0,127.0,127.0,128.0,127.0,127.0,106.0,128.0,26.0,-124.0,-68.0,127.0,127.0,127.0,126.0,87.0,-38.0
127.0,127.0,127.0,127.0,126.0,127.0,113.0,128.0,26.0,-124.0,-68.0,127.0,127.0,127.0,126.0,87.0,-38.0
127.0,127.0,127.0,127.0,127.0,127.0,108.0,128.0,26.0,-124.0,-68.0,127.0,127.0,127.0,126.0,87.0,-38.0
126.0,127.0,127.0,127.0,127.0,127.0,107.0,128.0,26.0,-124.0,-68.0,127.0,127.0,127.0,126.0,87.0,-38.0
127.0,127.0,127.0,127.0,127.0,127.0,107.0,128.0,26.0,-124.0,-68.0,127.0,127.0,127.0,126.0,87.0,-38.0
127.0,127.0,127.0,127.0,127.0,127.0,107.0,128.0,26.0,-124.0,-68.0,127.0,127.0,127.0,126.0,87.0,-38.0
126.0,127.0,127.0,128.0,127.0,127.0,106.0,128.0,26.0,-124.0,-68.0,127.0,127.0,127.0,126.0,87.0,-38.0
126.0,127.0,127.0,128.0,127.0,127.0,107.0,128.0,26.0,-124.0,-68.0,127.0,127.0,127.0,126.0,87.0,-38.0
126.0,127.0,127.0,128.0,127.0,127.0,106.0,128.0,26.0,-124.0,-68.0,127.0,127.0,127.0,126.0,87.0,-38.0
126.0,127.0,127.0,128.0,127.0,128.0,106.0,128.0,26.0,-125.0,-68.0,127.0,127.0,127.0,126.0,87.0,-38.0
127.0,126.0,127.0,128.0,127.0,127.0,107.0,128.0,26.0,-125.0,-68.0,127.0,127.0,127.0,126.0,87.0,-38.0
126.0,127.0,127.0,128.0,127.0,127.0,107.0,128.0,26.0,-125.0,-68.0,127.0,127.0,127.0,126.0,87.0,-38.0
126.0,127.0,127.0,128.0,127.0,128.0,106.0,128.0,26.0,-125.0,-68.0,127.0,127.0,127.0,126.0,87.0,-38.0
126.0,127.0,127.0,128.0,127.0,127.0,106.0,128.0,26.0,-125.0,-68.0,127.0,127.0,127.0,126.0,87.0,-38.0
126.0,127.0,127.0,128.0,127.0,127.0,106.0,128.0,26.0,-125.0,-68.0,127.0,127.0,127.0,126.0,87.0,-38.0
126.0,127.0,127.0,128.0,127.0,127.0,107.0,128.0,26.0,-125.0,-68.0,127.0,127.0,127.0,126.0,87.0,-38.0
126.0,127.0,127.0,128.0,127.0,127.0,107.0,128.0,26.0,-125.0,-68.0,127.0,127.0,127.0,126.0,87.0,-38.0
126.0,127.0,127.0,128.0,127.0,127.0,106.0,128.0,26.0,-125.0,-68.0,127.0,127.0,127.0,126.0,87.0,-38.0
126.0,127.0,127.0,128.0,127.0,128.0,107.0,128.0,26.0,-125.0,-68.0,127.0,127.0,127.0,126.0,87.0,-38.0
127.0,126.0,126.0,127.0,126.0,127.0,113.0,128.0,26.0,-125.0,-67.0,127.0,127.0,127.0,126.0,87.0,-38.0
127.0,127.0,126.0,127.0,126.0,127.0,111.0,128.0,26.0,-125.0,-67.0,127.0,127.0,127.0,126.0,87.0,-38.0
127.0,127.0,126.0,127.0,126.0,127.0,107.0,128.0,26.0,-125.0,-67.0,127.0,127.0,127.0,126.0,87.0,-38.0
127.0,127.0,126.0,127.0,126.0,127.0,106.0,128.0,26.0,-125.0,-67.0,127.0,127.0,127.0,126.0,87.0,-38.0
127.0,127.0,126.0,127.0,126.0,127.0,107.0,128.0,26.0,-125.0,-67.0,127.0,127.0,127.0,126.0,87.0,-38.0
127.0,127.0,126.0,127.0,126.0,127.0,109.0,128.0,26.0,-125.0,-67.0,127.0,127.0,127.0,126.0,87.0,-38.0
127.0,127.0,126.0,127.0,126.0,127.0,112.0,128.0,26.0,-125.0,-67.0,127.0,127.0,127.0,126.0,87.0,-38.0
127.0,127.0,126.0,126.0,126.0,127.0,112.0,127.0,26.0,-125.0,-67.0,127.0,127.0,127.0,126.0,87.0,-38.0
127.0,127.0,126.0,126.0,126.0,127.0,107.0,127.0,26.0,-125.0,-67.0,127.0,127.0,127.0,126.0,87.0,-38.0
127.0,126.0,126.0,127.0,126.0,127.0,113.0,128.0,26.0,-125.0,-67.0,127.0,127.0,127.0,126.0,87.0,-38.0
127.0,126.0,124.0,120.0,124.0,126.0,112.0,124.0,26.0,-124.0,-67.0,127.0,127.0,127.0,126.0,87.0,-38.0
126.0,126.0,124.0,123.0,124.0,126.0,112.0,123.0,26.0,-124.0,-67.0,127.0,127.0,127.0,126.0,87.0,-38.0
126.0,125.0,124.0,126.0,125.0,126.0,113.0,122.0,26.0,-124.0,-67.0,127.0,127.0,127.0,126.0,87.0,-38.0
126.0,125.0,124.0,128.0,125.0,126.0,113.0,122.0,26.0,-124.0,-67.0,127.0,127.0,127.0,126.0,87.0,-38.0
125.0,126.0,124.0,130.0,126.0,127.0,112.0,122.0,26.0,-124.0,-67.0,127.0,127.0,127.0,126.0,87.0,-38.0
125.0,126.0,124.0,132.0,126.0,127.0,112.0,122.0,26.0,-124.0,-67.0,127.0,127.0,127.0,126.0,87.0,-38.0
125.0,126.0,125.0,132.0,126.0,127.0,113.0,123.0,26.0,-124.0,-67.0,127.0,127.0,127.0,126.0,87.0,-38.0
125.0,126.0,125.0,133.0,127.0,127.0,112.0,123.0,26.0,-124.0,-67.0,127.0,127.0,127.0,126.0,87.0,-38.0
125.0,126.0,125.0,132.0,127.0,127.0,113.0,123.0,26.0,-124.0,-67.0,127.0,127.0,127.0,126.0,87.0,-38.0
127.0,126.0,125.0,118.0,124.0,126.0,112.0,124.0,26.0,-124.0,-67.0,127.0,127.0,127.0,126.0,87.0,-38.0
127.0,124.0,145.0,120.0,127.0,125.0,111.0,132.0,26.0,-124.0,-67.0,127.0,127.0,127.0,126.0,87.0,-38.0
127.0,124.0,146.0,121.0,127.0,125.0,111.0,133.0,26.0,-124.0,-67.0,127.0,127.0,127.0,126.0,87.0,-38.0
127.0,124.0,147.0,120.0,127.0,125.0,111.0,133.0,26.0,-124.0,-67.0,127.0,127.0,127.0,126.0,87.0,-38.0
126.0,124.0,148.0,119.0,127.0,126.0,111.0,133.0,26.0,-124.0,-67.0,127.0,127.0,127.0,126.0,87.0,-38.0
126.0,125.0,149.0,119.0,127.0,126.0,111.0,131.0,26.0,-124.0,-67.0,127.0,127.0,127.0,126.0,87.0,-38.0
126.0,124.0,150.0,119.0,127.0,126.0,111.0,129.0,26.0,-124.0,-67.0,127.0,127.0,127.0,126.0,87.0,-38.0
125.0,124.0,151.0,120.0,127.0,126.0,111.0,127.0,26.0,-124.0,-67.0,127.0,127.0,127.0,126.0,87.0,-38.0
124.0,124.0,153.0,122.0,127.0,126.0,111.0,124.0,26.0,-124.0,-67.0,127.0,127.0,127.0,126.0,87.0,-38.0
127.0,124.0,142.0,115.0,127.0,126.0,111.0,131.0,26.0,-124.0,-67.0,127.0,127.0,127.0,126.0,87.0,-38.0
127.0,124.0,143.0,118.0,127.0,125.0,111.0,132.0,26.0,-124.0,-67.0,127.0,127.0,127.0,126.0,87.0,-38.0
120.0,133.0,147.0,145.0,135.0,130.0,111.0,133.0,26.0,-124.0,-67.0,127.0,127.0,127.0,126.0,87.0,-38.0
120.0,133.0,145.0,142.0,135.0,130.0,111.0,132.0,26.0,-124.0,-67.0,127.0,127.0,127.0,126.0,87.0,-38.0
119.0,133.0,143.0,141.0,135.0,131.0,112.0,131.0,26.0,-124.0,-67.0,127.0,127.0,127.0,126.0,87.0,-38.0
119.0,132.0,141.0,139.0,135.0,131.0,111.0,130.0,26.0,-124.0,-67.0,127.0,127.0,127.0,126.0,87.0,-38.0
120.0,132.0,140.0,139.0,134.0,130.0,112.0,129.0,26.0,-124.0,-67.0,127.0,127.0,127.0,126.0,87.0,-38.0
120.0,132.0,139.0,140.0,134.0,130.0,111.0,128.0,26.0,-124.0,-67.0,127.0,127.0,127.0,126.0,87.0,-38.0
121.0,131.0,138.0,142.0,134.0,130.0,111.0,127.0,26.0,-124.0,-67.0,127.0,127.0,127.0,126.0,87.0,-38.0
120.0,134.0,149.0,149.0,133.0,130.0,111.0,134.0,26.0,-124.0,-67.0,127.0,127.0,127.0,126.0,87.0,-38.0
120.0,133.0,148.0,148.0,134.0,130.0,110.0,135.0,26.0,-124.0,-67.0,127.0,127.0,127.0,126.0,87.0,-38.0
120.0,133.0,147.0,147.0,135.0,130.0,111.0,134.0,26.0,-124.0,-67.0,127.0,127.0,127.0,126.0,87.0,-38.0
99.0,131.0,86.0,154.0,128.0,118.0,104.0,163.0,26.0,-126.0,-66.0,127.0,127.0,127.0,126.0,87.0,-38.0
100.0,130.0,84.0,150.0,127.0,118.0,105.0,162.0,26.0,-126.0,-66.0,127.0,127.0,127.0,126.0,87.0,-38.0
101.0,130.0,83.0,146.0,127.0,119.0,105.0,162.0,26.0,-126.0,-66.0,127.0,127.0,127.0,126.0,87.0,-38.0
102.0,129.0,83.0,143.0,128.0,119.0,103.0,162.0,26.0,-126.0,-66.0,127.0,127.0,127.0,126.0,87.0,-38.0
103.0,129.0,84.0,141.0,128.0,120.0,101.0,163.0,26.0,-126.0,-66.0,127.0,127.0,127.0,126.0,87.0,-38.0
104.0,129.0,85.0,141.0,129.0,120.0,101.0,164.0,26.0,-126.0,-66.0,127.0,127.0,127.0,126.0,87.0,-38.0
98.0,131.0,91.0,164.0,129.0,118.0,105.0,164.0,26.0,-126.0,-66.0,127.0,127.0,127.0,126.0,87.0,-38.0
99.0,131.0,90.0,163.0,129.0,118.0,105.0,165.0,26.0,-126.0,-66.0,127.0,127.0,127.0,126.0,87.0,-38.0
99.0,131.0,89.0,161.0,129.0,118.0,104.0,166.0,26.0,-126.0,-66.0,127.0,127.0,127.0,126.0,87.0,-38.0
99.0,131.0,88.0,158.0,128.0,118.0,104.0,165.0,26.0,-126.0,-66.0,127.0,127.0,127.0,126.0,87.0,-38.0
127.0,129.0,143.0,199.0,139.0,127.0,107.0,151.0,26.0,-128.0,-68.0,127.0,127.0,127.0,126.0,87.0,-38.0
127.0,129.0,144.0,200.0,139.0,127.0,106.0,150.0,26.0,-128.0,-68.0,127.0,127.0,127.0,126.0,87.0,-38.0
128.0,128.0,145.0,202.0,138.0,127.0,110.0,148.0,26.0,-128.0,-68.0,127.0,127.0,127.0,126.0,87.0,-38.0
128.0,126.0,147.0,203.0,137.0,126.0,112.0,146.0,26.0,-128.0,-68.0,127.0,127.0,127.0,126.0,87.0,-38.0
128.0,125.0,147.0,207.0,137.0,126.0,112.0,144.0,26.0,-128.0,-68.0,127.0,127.0,127.0,126.0,87.0,-38.0
125.0,130.0,144.0,205.0,141.0,129.0,110.0,159.0,26.0,-128.0,-68.0,127.0,127.0,127.0,126.0,87.0,-38.0
126.0,129.0,144.0,205.0,141.0,129.0,110.0,158.0,26.0,-128.0,-68.0,127.0,127.0,127.0,126.0,87.0,-38.0
126.0,129.0,143.0,203.0,141.0,129.0,109.0,156.0,26.0,-128.0,-68.0,127.0,127.0,127.0,126.0,87.0,-38.0
126.0,129.0,142.0,201.0,140.0,128.0,108.0,155.0,26.0,-128.0,-68.0,127.0,127.0,127.0,126.0,87.0,-38.0
127.0,129.0,142.0,200.0,140.0,128.0,107.0,153.0,26.0,-128.0,-68.0,127.0,127.0,127.0,126.0,87.0,-38.0
135.0,130.0,128.0,189.0,127.0,70.0,68.0,126.0,26.0,-126.0,-67.0,-127.0,127.0,127.0,126.0,87.0,-38.0
135.0,131.0,126.0,189.0,127.0,66.0,65.0,126.0,26.0,-126.0,-67.0,-127.0,127.0,127.0,126.0,87.0,-38.0
135.0,130.0,125.0,189.0,126.0,61.0,63.0,127.0,26.0,-126.0,-67.0,-127.0,127.0,127.0,126.0,87.0,-38.0
135.0,130.0,125.0,189.0,124.0,57.0,59.0,127.0,26.0,-126.0,-67.0,-127.0,127.0,127.0,126.0,87.0,-38.0
136.0,128.0,125.0,198.0,132.0,91.0,83.0,126.0,26.0,-126.0,-67.0,-127.0,127.0,127.0,126.0,87.0,-38.0
136.0,129.0,128.0,197.0,132.0,88.0,79.0,126.0,26.0,-126.0,-67.0,-127.0,127.0,127.0,126.0,87.0,-38.0
136.0,130.0,130.0,195.0,131.0,85.0,79.0,126.0,26.0,-126.0,-67.0,-127.0,127.0,127.0,126.0,87.0,-38.0
136.0,130.0,131.0,193.0,130.0,81.0,75.0,126.0,26.0,-126.0,-67.0,-127.0,127.0,127.0,126.0,87.0,-38.0
135.0,130.0,131.0,191.0,129.0,77.0,73.0,126.0,26.0,-126.0,-67.0,-127.0,127.0,127.0,126.0,87.0,-38.0
135.0,130.0,129.0,189.0,128.0,73.0,70.0,126.0,26.0,-126.0,-67.0,-127.0,127.0,127.0,126.0,87.0,-38.0
127.0,130.0,149.0,244.0,129.0,0.0,22.0,134.0,29.0,-126.0,-65.0,-128.0,127.0,127.0,126.0,87.0,-38.0
127.0,131.0,153.0,243.0,130.0,0.0,22.0,133.0,29.0,-126.0,-65.0,-128.0,127.0,127.0,126.0,87.0,-38.0
127.0,133.0,157.0,242.0,130.0,0.0,22.0,132.0,29.0,-126.0,-65.0,-128.0,127.0,127.0,126.0,87.0,-38.0
126.0,128.0,133.0,240.0,126.0,0.0,22.0,142.0,29.0,-126.0,-65.0,-128.0,127.0,127.0,126.0,87.0,-38.0
126.0,127.0,133.0,241.0,127.0,0.0,22.0,141.0,29.0,-126.0,-65.0,-128.0,127.0,127.0,126.0,87.0,-38.0
126.0,127.0,134.0,242.0,127.0,0.0,22.0,140.0,29.0,-126.0,-65.0,-128.0,127.0,127.0,126.0,87.0,-38.0
126.0,127.0,136.0,243.0,128.0,0.0,22.0,139.0,29.0,-126.0,-65.0,-128.0,127.0,127.0,126.0,87.0,-38.0
126.0,127.0,139.0,244.0,128.0,0.0,22.0,138.0,29.0,-126.0,-65.0,-128.0,127.0,127.0,126.0,87.0,-38.0
126.0,127.0,142.0,244.0,128.0,0.0,22.0,137.0,29.0,-126.0,-65.0,-128.0,127.0,127.0,126.0,87.0,-38.0
126.0,128.0,144.0,244.0,128.0,0.0,22.0,135.0,29.0,-126.0,-65.0,-128.0,127.0,127.0,126.0,87.0,-38.0
129.0,122.0,142.0,191.0,118.0,40.0,47.0,120.0,27.0,-122.0,-64.0,-127.0,127.0,127.0,126.0,87.0,-38.0
127.0,124.0,137.0,202.0,124.0,23.0,39.0,128.0,27.0,-122.0,-64.0,-127.0,127.0,127.0,126.0,87.0,-38.0
127.0,123.0,135.0,200.0,123.0,25.0,38.0,127.0,27.0,-122.0,-64.0,-127.0,127.0,127.0,126.0,87.0,-38.0
128.0,123.0,133.0,197.0,122.0,27.0,40.0,127.0,27.0,-122.0,-64.0,-127.0,127.0,127.0,126.0,87.0,-38.0
128.0,122.0,132.0,196.0,121.0,29.0,42.0,126.0,27.0,-122.0,-64.0,-127.0,127.0,127.0,126.0,87.0,-38.0
128.0,122.0,132.0,195.0,120.0,30.0,44.0,125.0,27.0,-122.0,-64.0,-127.0,127.0,127.0,126.0,87.0,-38.0
129.0,121.0,132.0,194.0,120.0,32.0,42.0,124.0,27.0,-122.0,-64.0,-127.0,127.0,127.0,126.0,87.0,-38.0
129.0,121.0,133.0,192.0,119.0,34.0,43.0,123.0,27.0,-122.0,-64.0,-127.0,127.0,127.0,126.0,87.0,-38.0
129.0,121.0,135.0,191.0,119.0,36.0,46.0,122.0,27.0,-122.0,-64.0,-127.0,127.0,127.0,126.0,87.0,-38.0
129.0,121.0,138.0,190.0,118.0,38.0,48.0,121.0,27.0,-122.0,-64.0,-127.0,127.0,127.0,126.0,87.0,-38.0
133.0,124.0,133.0,126.0,123.0,26.0,40.0,133.0,26.0,-119.0,-66.0,127.0,126.0,127.0,126.0,87.0,-38.0
132.0,123.0,132.0,124.0,123.0,24.0,38.0,133.0,26.0,-119.0,-66.0,127.0,126.0,127.0,126.0,87.0,-38.0
132.0,123.0,131.0,125.0,124.0,22.0,39.0,133.0,26.0,-119.0,-66.0,127.0,126.0,127.0,126.0,87.0,-38.0
132.0,123.0,131.0,128.0,124.0,20.0,37.0,133.0,26.0,-119.0,-66.0,127.0,126.0,127.0,126.0,87.0,-38.0
131.0,123.0,131.0,131.0,125.0,18.0,35.0,132.0,26.0,-119.0,-66.0,127.0,126.0,127.0,126.0,87.0,-38.0
131.0,123.0,132.0,134.0,127.0,16.0,33.0,131.0,26.0,-119.0,-66.0,127.0,126.0,127.0,126.0,87.0,-38.0
131.0,124.0,134.0,134.0,128.0,15.0,34.0,132.0,26.0,-119.0,-66.0,127.0,126.0,127.0,126.0,87.0,-38.0
132.0,125.0,136.0,132.0,128.0,14.0,35.0,133.0,26.0,-119.0,-66.0,127.0,126.0,127.0,126.0,87.0,-38.0
133.0,126.0,138.0,129.0,129.0,12.0,33.0,134.0,26.0,-119.0,-66.0,127.0,126.0,127.0,126.0,87.0,-38.0
134.0,127.0,139.0,125.0,129.0,11.0,32.0,134.0,26.0,-119.0,-66.0,127.0,126.0,127.0,126.0,87.0,-38.0
125.0,127.0,130.0,91.0,122.0,0.0,22.0,130.0,28.0,-121.0,-69.0,127.0,127.0,127.0,126.0,87.0,-38.0
124.0,127.0,131.0,87.0,122.0,0.0,22.0,129.0,28.0,-121.0,-69.0,127.0,127.0,127.0,126.0,87.0,-38.0
123.0,127.0,132.0,85.0,122.0,0.0,22.0,129.0,28.0,-121.0,-69.0,127.0,127.0,127.0,126.0,87.0,-38.0
122.0,127.0,132.0,82.0,122.0,0.0,22.0,129.0,28.0,-121.0,-69.0,127.0,127.0,127.0,126.0,87.0,-38.0
121.0,127.0,131.0,80.0,122.0,0.0,22.0,129.0,28.0,-121.0,-69.0,127.0,127.0,127.0,126.0,87.0,-38.0
121.0,127.0,130.0,79.0,122.0,0.0,22.0,129.0,28.0,-121.0,-69.0,127.0,127.0,127.0,126.0,87.0,-38.0
121.0,126.0,129.0,79.0,122.0,0.0,22.0,128.0,28.0,-121.0,-69.0,127.0,127.0,127.0,126.0,87.0,-38.0
122.0,126.0,128.0,78.0,122.0,0.0,22.0,128.0,28.0,-121.0,-69.0,127.0,127.0,127.0,126.0,87.0,-38.0
122.0,126.0,128.0,78.0,122.0,0.0,22.0,127.0,28.0,-121.0,-69.0,127.0,127.0,127.0,126.0,87.0,-38.0
126.0,127.0,129.0,94.0,122.0,0.0,22.0,130.0,28.0,-121.0,-69.0,127.0,127.0,127.0,126.0,87.0,-38.0
126.0,126.0,120.0,73.0,124.0,0.0,22.0,130.0,26.0,-125.0,-69.0,-128.0,127.0,127.0,126.0,87.0,-38.0
127.0,126.0,121.0,73.0,124.0,0.0,22.0,130.0,26.0,-125.0,-69.0,-128.0,127.0,127.0,126.0,87.0,-38.0
127.0,127.0,122.0,74.0,124.0,0.0,22.0,130.0,26.0,-125.0,-69.0,-128.0,127.0,127.0,126.0,87.0,-38.0
128.0,127.0,123.0,76.0,124.0,0.0,22.0,130.0,26.0,-125.0,-69.0,-128.0,127.0,127.0,126.0,87.0,-38.0
128.0,128.0,125.0,79.0,124.0,0.0,22.0,129.0,26.0,-125.0,-69.0,-128.0,127.0,127.0,126.0,87.0,-38.0
128.0,128.0,126.0,82.0,124.0,0.0,22.0,129.0,26.0,-125.0,-69.0,-128.0,127.0,127.0,126.0,87.0,-38.0
129.0,129.0,126.0,85.0,123.0,0.0,22.0,129.0,26.0,-125.0,-69.0,-128.0,127.0,127.0,126.0,87.0,-38.0
129.0,128.0,126.0,86.0,123.0,0.0,22.0,129.0,26.0,-125.0,-69.0,-128.0,127.0,127.0,126.0,87.0,-38.0
126.0,125.0,118.0,73.0,124.0,0.0,22.0,131.0,26.0,-125.0,-69.0,-128.0,127.0,127.0,126.0,87.0,-38.0
126.0,125.0,119.0,73.0,124.0,0.0,22.0,131.0,26.0,-125.0,-69.0,-128.0,127.0,127.0,126.0,87.0,-38.0
131.0,125.0,128.0,107.0,120.0,0.0,22.0,122.0,27.0,-125.0,-68.0,-127.0,127.0,127.0,126.0,87.0,-38.0
130.0,125.0,130.0,105.0,120.0,0.0,22.0,120.0,27.0,-125.0,-68.0,-127.0,127.0,127.0,126.0,87.0,-38.0
130.0,125.0,130.0,103.0,119.0,0.0,22.0,120.0,27.0,-125.0,-68.0,-127.0,127.0,127.0,126.0,87.0,-38.0
130.0,125.0,130.0,100.0,118.0,0.0,22.0,120.0,27.0,-125.0,-68.0,-127.0,127.0,127.0,126.0,87.0,-38.0
130.0,125.0,129.0,98.0,118.0,0.0,22.0,121.0,27.0,-125.0,-68.0,-127.0,127.0,127.0,126.0,87.0,-38.0
130.0,124.0,128.0,95.0,117.0,0.0,22.0,123.0,27.0,-125.0,-68.0,-127.0,127.0,127.0,126.0,87.0,-38.0
130.0,124.0,127.0,93.0,117.0,0.0,22.0,125.0,27.0,-125.0,-68.0,-127.0,127.0,127.0,126.0,87.0,-38.0
131.0,123.0,118.0,103.0,121.0,0.0,22.0,126.0,27.0,-125.0,-68.0,-127.0,127.0,127.0,126.0,87.0,-38.0
131.0,124.0,121.0,105.0,121.0,0.0,22.0,124.0,27.0,-125.0,-68.0,-127.0,127.0,127.0,126.0,87.0,-38.0
131.0,125.0,125.0,107.0,120.0,0.0,22.0,123.0,27.0,-125.0,-68.0,-127.0,127.0,127.0,126.0,87.0,-38.0
129.0,125.0,122.0,101.0,128.0,3.0,27.0,132.0,27.0,-121.0,-67.0,-128.0,127.0,127.0,126.0,87.0,-38.0
129.0,127.0,122.0,101.0,128.0,5.0,28.0,132.0,27.0,-121.0,-67.0,-128.0,127.0,127.0,126.0,87.0,-38.0
128.0,127.0,121.0,102.0,128.0,5.0,29.0,131.0,27.0,-121.0,-67.0,-128.0,127.0,127.0,126.0,87.0,-38.0
128.0,128.0,121.0,101.0,128.0,6.0,30.0,130.0,27.0,-121.0,-67.0,-128.0,127.0,127.0,126.0,87.0,-38.0
128.0,129.0,121.0,101.0,128.0,7.0,31.0,129.0,27.0,-121.0,-67.0,-128.0,127.0,127.0,126.0,87.0,-38.0
127.0,130.0,121.0,101.0,127.0,7.0,31.0,128.0,27.0,-121.0,-67.0,-128.0,127.0,127.0,126.0,87.0,-38.0
129.0,126.0,120.0,100.0,128.0,1.0,25.0,130.0,27.0,-121.0,-67.0,-128.0,127.0,127.0,126.0,87.0,-38.0
129.0,125.0,121.0,99.0,128.0,2.0,25.0,130.0,27.0,-121.0,-67.0,-128.0,127.0,127.0,126.0,87.0,-38.0
129.0,125.0,122.0,99.0,128.0,2.0,26.0,130.0,27.0,-121.0,-67.0,-128.0,127.0,127.0,126.0,87.0,-38.0
129.0,125.0,122.0,100.0,128.0,3.0,26.0,131.0,27.0,-121.0,-67.0,-128.0,127.0,127.0,126.0,87.0,-38.0
127.0,124.0,116.0,99.0,123.0,37.0,47.0,131.0,27.0,-119.0,-68.0,127.0,127.0,127.0,126.0,87.0,-38.0
127.0,123.0,115.0,99.0,122.0,38.0,48.0,130.0,27.0,-119.0,-68.0,127.0,127.0,127.0,126.0,87.0,-38.0
126.0,122.0,114.0,100.0,122.0,40.0,47.0,130.0,27.0,-119.0,-68.0,127.0,127.0,127.0,126.0,87.0,-38.0
126.0,122.0,114.0,102.0,122.0,42.0,47.0,129.0,27.0,-119.0,-68.0,127.0,127.0,127.0,126.0,87.0,-38.0
125.0,122.0,115.0,105.0,123.0,44.0,50.0,129.0,27.0,-119.0,-68.0,127.0,127.0,127.0,126.0,87.0,-38.0
125.0,122.0,116.0,109.0,123.0,45.0,52.0,128.0,27.0,-119.0,-68.0,127.0,127.0,127.0,126.0,87.0,-38.0
127.0,126.0,118.0,100.0,125.0,31.0,44.0,132.0,27.0,-119.0,-68.0,127.0,127.0,127.0,126.0,87.0,-38.0
127.0,126.0,118.0,100.0,124.0,33.0,42.0,132.0,27.0,-119.0,-68.0,127.0,127.0,127.0,126.0,87.0,-38.0
127.0,125.0,117.0,100.0,124.0,34.0,44.0,132.0,27.0,-119.0,-68.0,127.0,127.0,127.0,126.0,87.0,-38.0
127.0,125.0,116.0,99.0,123.0,36.0,45.0,131.0,27.0,-119.0,-68.0,127.0,127.0,127.0,126.0,87.0,-38.0
127.0,125.0,117.0,102.0,127.0,99.0,88.0,129.0,26.0,-120.0,-68.0,127.0,127.0,127.0,126.0,87.0,-38.0
127.0,126.0,117.0,102.0,126.0,100.0,89.0,129.0,26.0,-120.0,-68.0,127.0,127.0,127.0,126.0,87.0,-38.0
127.0,126.0,117.0,103.0,126.0,101.0,90.0,128.0,26.0,-120.0,-68.0,127.0,127.0,127.0,126.0,87.0,-38.0
127.0,126.0,117.0,104.0,125.0,101.0,91.0,128.0,26.0,-120.0,-68.0,127.0,127.0,127.0,126.0,87.0,-38.0
126.0,127.0,118.0,100.0,129.0,96.0,83.0,130.0,26.0,-120.0,-68.0,127.0,127.0,127.0,126.0,87.0,-38.0
126.0,127.0,118.0,99.0,128.0,97.0,83.0,130.0,26.0,-120.0,-68.0,127.0,127.0,127.0,126.0,87.0,-38.0
126.0,126.0,117.0,99.0,128.0,97.0,84.0,130.0,26.0,-120.0,-68.0,127.0,127.0,127.0,126.0,87.0,-38.0
127.0,126.0,117.0,99.0,128.0,98.0,85.0,129.0,26.0,-120.0,-68.0,127.0,127.0,127.0,126.0,87.0,-38.0
127.0,126.0,117.0,100.0,128.0,98.0,86.0,129.0,26.0,-120.0,-68.0,127.0,127.0,127.0,126.0,87.0,-38.0
127.0,126.0,117.0,101.0,127.0,99.0,87.0,129.0,26.0,-120.0,-68.0,127.0,127.0,127.0,126.0,87.0,-38.0
126.0,125.0,116.0,108.0,127.0,151.0,126.0,129.0,25.0,-121.0,-68.0,127.0,127.0,127.0,126.0,87.0,-38.0
126.0,125.0,116.0,107.0,127.0,152.0,126.0,128.0,25.0,-121.0,-68.0,127.0,127.0,127.0,126.0,87.0,-38.0
126.0,125.0,116.0,106.0,127.0,152.0,126.0,128.0,25.0,-121.0,-68.0,127.0,127.0,127.0,126.0,87.0,-38.0
128.0,125.0,117.0,106.0,128.0,146.0,123.0,130.0,25.0,-121.0,-68.0,127.0,127.0,127.0,126.0,87.0,-38.0
128.0,125.0,116.0,107.0,127.0,147.0,124.0,130.0,25.0,-121.0,-68.0,127.0,127.0,127.0,126.0,87.0,-38.0
128.0,125.0,116.0,108.0,127.0,148.0,126.0,130.0,25.0,-121.0,-68.0,127.0,127.0,127.0,126.0,87.0,-38.0
128.0,125.0,116.0,108.0,127.0,149.0,128.0,129.0,25.0,-121.0,-68.0,127.0,127.0,127.0,126.0,87.0,-38.0
127.0,125.0,116.0,108.0,127.0,150.0,129.0,129.0,25.0,-121.0,-68.0,127.0,127.0,127.0,126.0,87.0,-38.0
127.0,125.0,116.0,108.0,127.0,150.0,130.0,129.0,25.0,-121.0,-68.0,127.0,127.0,127.0,126.0,87.0,-38.0
127.0,125.0,116.0,108.0,127.0,151.0,129.0,129.0,25.0,-121.0,-68.0,127.0,127.0,127.0,126.0,87.0,-38.0
128.0,126.0,120.0,104.0,125.0,174.0,146.0,127.0,24.0,-120.0,-67.0,127.0,127.0,127.0,126.0,87.0,-38.0
128.0,126.0,120.0,104.0,125.0,175.0,147.0,127.0,24.0,-120.0,-67.0,127.0,127.0,127.0,126.0,87.0,-38.0
129.0,125.0,120.0,107.0,125.0,173.0,145.0,127.0,24.0,-120.0,-67.0,127.0,127.0,127.0,126.0,87.0,-38.0
129.0,125.0,120.0,107.0,125.0,173.0,145.0,127.0,24.0,-120.0,-67.0,127.0,127.0,127.0,126.0,87.0,-38.0
128.0,125.0,120.0,107.0,125.0,173.0,145.0,127.0,24.0,-120.0,-67.0,127.0,127.0,127.0,126.0,87.0,-38.0
128.0,125.0,120.0,107.0,125.0,173.0,145.0,127.0,24.0,-120.0,-67.0,127.0,127.0,127.0,126.0,87.0,-38.0
128.0,125.0,120.0,106.0,125.0,173.0,146.0,127.0,24.0,-120.0,-67.0,127.0,127.0,127.0,126.0,87.0,-38.0
128.0,125.0,120.0,106.0,124.0,173.0,146.0,127.0,24.0,-120.0,-67.0,127.0,127.0,127.0,126.0,87.0,-38.0
128.0,125.0,120.0,105.0,124.0,173.0,146.0,127.0,24.0,-120.0,-67.0,127.0,127.0,127.0,126.0,87.0,-38.0
128.0,126.0,120.0,105.0,125.0,174.0,146.0,127.0,24.0,-120.0,-67.0,127.0,127.0,127.0,126.0,87.0,-38.0
127.0,126.0,123.0,109.0,126.0,177.0,144.0,127.0,24.0,-120.0,-67.0,127.0,127.0,127.0,125.0,87.0,-38.0
128.0,126.0,123.0,108.0,127.0,176.0,143.0,127.0,24.0,-120.0,-67.0,127.0,127.0,127.0,125.0,87.0,-38.0
128.0,126.0,123.0,108.0,127.0,176.0,143.0,127.0,24.0,-120.0,-67.0,127.0,127.0,127.0,125.0,87.0,-38.0
127.0,126.0,123.0,108.0,127.0,176.0,143.0,127.0,24.0,-120.0,-67.0,127.0,127.0,127.0,125.0,87.0,-38.0
127.0,126.0,123.0,108.0,127.0,176.0,144.0,127.0,24.0,-120.0,-67.0,127.0,127.0,127.0,125.0,87.0,-38.0
127.0,126.0,123.0,109.0,127.0,176.0,144.0,127.0,24.0,-120.0,-67.0,127.0,127.0,127.0,125.0,87.0,-38.0
127.0,126.0,123.0,109.0,127.0,177.0,144.0,127.0,24.0,-120.0,-67.0,127.0,127.0,127.0,125.0,87.0,-38.0
127.0,126.0,123.0,109.0,127.0,177.0,144.0,127.0,24.0,-120.0,-67.0,127.0,127.0,127.0,125.0,87.0,-38.0
127.0,126.0,123.0,109.0,127.0,177.0,144.0,127.0,24.0,-120.0,-67.0,127.0,127.0,127.0,125.0,87.0,-38.0
127.0,126.0,123.0,109.0,127.0,177.0,144.0,127.0,24.0,-120.0,-67.0,127.0,127.0,127.0,125.0,87.0,-38.0
128.0,125.0,132.0,109.0,127.0,171.0,142.0,127.0,25.0,-120.0,-67.0,127.0,127.0,127.0,125.0,87.0,-38.0
128.0,125.0,133.0,109.0,128.0,171.0,142.0,127.0,25.0,-120.0,-67.0,127.0,127.0,127.0,125.0,87.0,-38.0
128.0,126.0,133.0,109.0,128.0,171.0,142.0,127.0,25.0,-120.0,-67.0,127.0,127.0,127.0,125.0,87.0,-38.0
127.0,126.0,133.0,109.0,128.0,172.0,143.0,127.0,25.0,-120.0,-67.0,127.0,127.0,127.0,125.0,87.0,-38.0
128.0,126.0,133.0,110.0,128.0,171.0,143.0,127.0,25.0,-120.0,-67.0,127.0,127.0,127.0,125.0,87.0,-38.0
128.0,125.0,133.0,110.0,128.0,171.0,143.0,127.0,25.0,-120.0,-67.0,127.0,127.0,127.0,125.0,87.0,-38.0
128.0,126.0,133.0,110.0,128.0,171.0,143.0,127.0,25.0,-120.0,-67.0,127.0,127.0,127.0,125.0,87.0,-38.0
128.0,126.0,134.0,109.0,128.0,171.0,143.0,127.0,25.0,-120.0,-67.0,127.0,127.0,127.0,125.0,87.0,-38.0
127.0,126.0,134.0,109.0,128.0,171.0,143.0,127.0,25.0,-120.0,-67.0,127.0,127.0,127.0,125.0,87.0,-38.0
127.0,126.0,134.0,109.0,128.0,172.0,143.0,127.0,25.0,-120.0,-67.0,127.0,127.0,127.0,125.0,87.0,-38.0
128.0,125.0,133.0,107.0,127.0,171.0,142.0,127.0,26.0,-121.0,-67.0,127.0,127.0,127.0,125.0,87.0,-38.0
128.0,126.0,132.0,107.0,127.0,172.0,143.0,127.0,26.0,-121.0,-67.0,127.0,127.0,127.0,125.0,87.0,-38.0
128.0,126.0,132.0,106.0,127.0,172.0,144.0,127.0,26.0,-121.0,-67.0,127.0,127.0,127.0,125.0,87.0,-38.0
128.0,126.0,132.0,106.0,127.0,172.0,144.0,127.0,26.0,-121.0,-67.0,127.0,127.0,127.0,125.0,87.0,-38.0
128.0,126.0,132.0,106.0,127.0,172.0,144.0,127.0,26.0,-121.0,-67.0,127.0,127.0,127.0,125.0,87.0,-38.0
128.0,126.0,132.0,106.0,127.0,172.0,144.0,127.0,26.0,-121.0,-67.0,127.0,127.0,127.0,125.0,87.0,-38.0
128.0,126.0,132.0,106.0,127.0,173.0,145.0,127.0,26.0,-121.0,-67.0,127.0,127.0,127.0,125.0,87.0,-38.0
128.0,126.0,132.0,106.0,127.0,173.0,145.0,127.0,26.0,-121.0,-67.0,127.0,127.0,127.0,125.0,87.0,-38.0
128.0,126.0,131.0,105.0,127.0,174.0,146.0,127.0,26.0,-121.0,-67.0,127.0,127.0,127.0,125.0,87.0,-38.0
128.0,125.0,133.0,107.0,127.0,171.0,142.0,127.0,26.0,-121.0,-67.0,127.0,127.0,127.0,125.0,87.0,-38.0
128.0,126.0,124.0,99.0,127.0,183.0,151.0,126.0,26.0,-122.0,-67.0,127.0,127.0,127.0,125.0,87.0,-38.0
128.0,126.0,124.0,98.0,127.0,184.0,149.0,126.0,26.0,-122.0,-67.0,127.0,127.0,127.0,125.0,87.0,-38.0
128.0,126.0,124.0,98.0,127.0,184.0,149.0,126.0,26.0,-122.0,-67.0,127.0,127.0,127.0,125.0,87.0,-38.0
128.0,126.0,124.0,98.0,127.0,184.0,149.0,126.0,26.0,-122.0,-67.0,127.0,127.0,127.0,125.0,87.0,-38.0
128.0,126.0,124.0,98.0,127.0,184.0,149.0,126.0,26.0,-122.0,-67.0,127.0,127.0,127.0,125.0,87.0,-38.0
128.0,126.0,124.0,97.0,127.0,185.0,149.0,126.0,26.0,-122.0,-67.0,127.0,127.0,127.0,125.0,87.0,-38.0
128.0,126.0,124.0,97.0,127.0,185.0,150.0,126.0,26.0,-122.0,-67.0,127.0,127.0,127.0,125.0,87.0,-38.0
128.0,126.0,123.0,97.0,127.0,186.0,151.0,126.0,26.0,-122.0,-67.0,127.0,127.0,127.0,125.0,87.0,-38.0
128.0,125.0,124.0,99.0,127.0,182.0,152.0,126.0,26.0,-122.0,-67.0,127.0,127.0,127.0,125.0,87.0,-38.0
128.0,125.0,124.0,99.0,127.0,183.0,152.0,126.0,26.0,-122.0,-67.0,127.0,127.0,127.0,125.0,87.0,-38.0
127.0,126.0,120.0,98.0,127.0,214.0,171.0,125.0,27.0,-122.0,-67.0,127.0,127.0,127.0,125.0,87.0,-38.0
127.0,126.0,121.0,99.0,127.0,215.0,171.0,125.0,27.0,-122.0,-67.0,127.0,127.0,127.0,125.0,87.0,-38.0
127.0,126.0,121.0,98.0,127.0,215.0,168.0,125.0,27.0,-122.0,-67.0,127.0,127.0,127.0,125.0,87.0,-38.0
127.0,126.0,121.0,98.0,127.0,216.0,168.0,125.0,27.0,-122.0,-67.0,127.0,127.0,127.0,125.0,87.0,-38.0
127.0,126.0,120.0,98.0,127.0,217.0,169.0,125.0,27.0,-122.0,-67.0,127.0,127.0,127.0,125.0,87.0,-38.0
127.0,126.0,120.0,98.0,127.0,218.0,170.0,125.0,27.0,-122.0,-67.0,127.0,127.0,127.0,125.0,87.0,-38.0
127.0,126.0,120.0,98.0,127.0,219.0,171.0,125.0,27.0,-122.0,-67.0,127.0,127.0,127.0,125.0,87.0,-38.0
127.0,126.0,120.0,98.0,128.0,210.0,166.0,125.0,27.0,-122.0,-67.0,127.0,127.0,127.0,125.0,87.0,-38.0
127.0,126.0,120.0,98.0,128.0,211.0,167.0,125.0,27.0,-122.0,-67.0,127.0,127.0,127.0,125.0,87.0,-38.0
127.0,126.0,120.0,98.0,127.0,212.0,169.0,125.0,27.0,-122.0,-67.0,127.0,127.0,127.0,125.0,87.0,-38.0
126.0,127.0,122.0,101.0,127.0,234.0,180.0,124.0,27.0,-122.0,-67.0,127.0,127.0,127.0,125.0,87.0,-38.0
126.0,127.0,121.0,101.0,127.0,234.0,180.0,124.0,27.0,-122.0,-67.0,127.0,127.0,127.0,125.0,87.0,-38.0
126.0,127.0,121.0,100.0,126.0,234.0,180.0,124.0,27.0,-122.0,-67.0,127.0,127.0,127.0,125.0,87.0,-38.0
126.0,127.0,121.0,100.0,126.0,233.0,179.0,124.0,27.0,-122.0,-67.0,127.0,127.0,127.0,125.0,87.0,-38.0
126.0,127.0,121.0,100.0,126.0,233.0,179.0,124.0,27.0,-122.0,-67.0,127.0,127.0,127.0,125.0,87.0,-38.0
126.0,127.0,121.0,100.0,126.0,233.0,179.0,124.0,27.0,-122.0,-67.0,127.0,127.0,127.0,125.0,87.0,-38.0
127.0,126.0,122.0,101.0,127.0,234.0,179.0,124.0,27.0,-122.0,-67.0,127.0,127.0,127.0,125.0,87.0,-38.0
127.0,127.0,122.0,101.0,127.0,234.0,179.0,124.0,27.0,-122.0,-67.0,127.0,127.0,127.0,125.0,87.0,-38.0
127.0,127.0,122.0,101.0,127.0,234.0,179.0,124.0,27.0,-122.0,-67.0,127.0,127.0,127.0,125.0,87.0,-38.0
127.0,127.0,121.0,101.0,127.0,234.0,180.0,124.0,27.0,-122.0,-67.0,127.0,127.0,127.0,125.0,87.0,-38.0
126.0,127.0,115.0,98.0,127.0,226.0,175.0,124.0,27.0,-122.0,-67.0,127.0,127.0,127.0,125.0,87.0,-38.0
126.0,127.0,115.0,98.0,127.0,226.0,175.0,124.0,27.0,-122.0,-67.0,127.0,127.0,127.0,125.0,87.0,-38.0
126.0,127.0,114.0,98.0,127.0,226.0,175.0,124.0,27.0,-122.0,-67.0,127.0,127.0,127.0,125.0,87.0,-38.0
126.0,127.0,114.0,98.0,127.0,226.0,175.0,124.0,27.0,-122.0,-67.0,127.0,127.0,127.0,125.0,87.0,-38.0
126.0,127.0,114.0,99.0,127.0,226.0,175.0,124.0,27.0,-122.0,-67.0,127.0,127.0,127.0,125.0,87.0,-38.0
126.0,127.0,116.0,97.0,126.0,225.0,174.0,124.0,27.0,-122.0,-67.0,127.0,127.0,127.0,125.0,87.0,-38.0
126.0,127.0,116.0,97.0,127.0,225.0,174.0,124.0,27.0,-122.0,-67.0,127.0,127.0,127.0,125.0,87.0,-38.0
127.0,127.0,116.0,98.0,127.0,225.0,174.0,124.0,27.0,-122.0,-67.0,127.0,127.0,127.0,125.0,87.0,-38.0
126.0,127.0,115.0,98.0,127.0,225.0,175.0,124.0,27.0,-122.0,-67.0,127.0,127.0,127.0,125.0,87.0,-38.0
126.0,127.0,115.0,98.0,127.0,226.0,175.0,124.0,27.0,-122.0,-67.0,127.0,127.0,127.0,125.0,87.0,-38.0
127.0,127.0,84.0,104.0,127.0,227.0,177.0,125.0,27.0,-122.0,-67.0,127.0,127.0,127.0,125.0,87.0,-38.0
127.0,127.0,82.0,104.0,127.0,228.0,178.0,125.0,27.0,-122.0,-67.0,127.0,127.0,127.0,125.0,87.0,-38.0
127.0,127.0,82.0,104.0,127.0,228.0,178.0,125.0,27.0,-122.0,-67.0,127.0,127.0,127.0,125.0,87.0,-38.0
127.0,127.0,81.0,104.0,126.0,228.0,179.0,125.0,27.0,-122.0,-67.0,127.0,127.0,127.0,125.0,87.0,-38.0
127.0,127.0,89.0,101.0,127.0,227.0,177.0,125.0,27.0,-122.0,-67.0,127.0,127.0,127.0,125.0,87.0,-38.0
127.0,127.0,89.0,102.0,127.0,227.0,177.0,125.0,27.0,-122.0,-67.0,127.0,127.0,127.0,125.0,87.0,-38.0
127.0,127.0,88.0,102.0,127.0,227.0,177.0,125.0,27.0,-122.0,-67.0,127.0,127.0,127.0,125.0,87.0,-38.0
127.0,127.0,87.0,103.0,127.0,227.0,177.0,125.0,27.0,-122.0,-67.0,127.0,127.0,127.0,125.0,87.0,-38.0
127.0,127.0,86.0,103.0,127.0,227.0,176.0,125.0,27.0,-122.0,-67.0,127.0,127.0,127.0,125.0,87.0,-38.0
127.0,127.0,85.0,104.0,127.0,227.0,177.0,125.0,27.0,-122.0,-67.0,127.0,127.0,127.0,125.0,87.0,-38.0
126.0,127.0,56.0,116.0,127.0,231.0,176.0,125.0,27.0,-122.0,-67.0,127.0,127.0,127.0,125.0,87.0,-38.0
126.0,127.0,56.0,116.0,127.0,231.0,175.0,126.0,27.0,-122.0,-67.0,127.0,127.0,127.0,125.0,87.0,-38.0
126.0,127.0,56.0,116.0,127.0,230.0,179.0,125.0,27.0,-122.0,-67.0,127.0,127.0,127.0,125.0,87.0,-38.0
126.0,127.0,56.0,113.0,127.0,231.0,175.0,125.0,27.0,-122.0,-67.0,127.0,127.0,127.0,125.0,87.0,-38.0
126.0,127.0,56.0,113.0,127.0,231.0,176.0,126.0,27.0,-122.0,-67.0,127.0,127.0,127.0,125.0,87.0,-38.0
126.0,127.0,56.0,114.0,127.0,231.0,176.0,126.0,27.0,-122.0,-67.0,127.0,127.0,127.0,125.0,87.0,-38.0
126.0,127.0,56.0,114.0,127.0,231.0,176.0,126.0,27.0,-122.0,-67.0,127.0,127.0,127.0,125.0,87.0,-38.0
126.0,126.0,56.0,115.0,127.0,231.0,176.0,125.0,27.0,-122.0,-67.0,127.0,127.0,127.0,125.0,87.0,-38.0
126.0,127.0,56.0,115.0,127.0,231.0,176.0,126.0,27.0,-122.0,-67.0,127.0,127.0,127.0,125.0,87.0,-38.0
126.0,127.0,56.0,115.0,127.0,231.0,176.0,126.0,27.0,-122.0,-67.0,127.0,127.0,127.0,125.0,87.0,-38.0
127.0,127.0,71.0,119.0,126.0,209.0,165.0,126.0,27.0,-123.0,-66.0,126.0,127.0,127.0,125.0,87.0,-38.0
127.0,127.0,72.0,119.0,126.0,208.0,164.0,126.0,27.0,-123.0,-66.0,126.0,127.0,127.0,125.0,87.0,-38.0
127.0,126.0,62.0,118.0,126.0,215.0,167.0,126.0,27.0,-123.0,-66.0,126.0,127.0,127.0,125.0,87.0,-38.0
127.0,126.0,62.0,119.0,127.0,215.0,168.0,126.0,27.0,-123.0,-66.0,126.0,127.0,127.0,125.0,87.0,-38.0
127.0,126.0,63.0,119.0,127.0,214.0,172.0,126.0,27.0,-123.0,-66.0,126.0,127.0,127.0,125.0,87.0,-38.0
127.0,126.0,64.0,119.0,126.0,213.0,171.0,126.0,27.0,-123.0,-66.0,126.0,127.0,127.0,125.0,87.0,-38.0
127.0,126.0,65.0,119.0,126.0,213.0,170.0,126.0,27.0,-123.0,-66.0,126.0,127.0,127.0,125.0,87.0,-38.0
127.0,126.0,66.0,119.0,126.0,212.0,169.0,126.0,27.0,-123.0,-66.0,126.0,127.0,127.0,125.0,87.0,-38.0
127.0,127.0,68.0,119.0,126.0,211.0,168.0,126.0,27.0,-123.0,-66.0,126.0,127.0,127.0,125.0,87.0,-38.0
127.0,127.0,69.0,119.0,126.0,210.0,167.0,126.0,27.0,-123.0,-66.0,126.0,127.0,127.0,125.0,87.0,-38.0
126.0,127.0,157.0,120.0,127.0,180.0,150.0,126.0,28.0,-124.0,-66.0,126.0,127.0,127.0,125.0,87.0,-38.0
127.0,127.0,146.0,120.0,127.0,183.0,148.0,126.0,28.0,-124.0,-66.0,126.0,127.0,127.0,125.0,87.0,-38.0
127.0,127.0,148.0,120.0,127.0,183.0,148.0,126.0,28.0,-124.0,-66.0,126.0,127.0,127.0,125.0,87.0,-38.0
127.0,127.0,149.0,120.0,127.0,182.0,152.0,126.0,28.0,-124.0,-66.0,126.0,127.0,127.0,125.0,87.0,-38.0
127.0,127.0,151.0,120.0,127.0,182.0,153.0,126.0,28.0,-124.0,-66.0,126.0,127.0,127.0,125.0,87.0,-38.0
127.0,127.0,152.0,120.0,127.0,182.0,153.0,126.0,28.0,-124.0,-66.0,126.0,127.0,127.0,125.0,87.0,-38.0
127.0,127.0,153.0,120.0,127.0,182.0,152.0,126.0,28.0,-124.0,-66.0,126.0,127.0,127.0,125.0,87.0,-38.0
127.0,127.0,154.0,120.0,127.0,181.0,152.0,126.0,28.0,-124.0,-66.0,126.0,127.0,127.0,125.0,87.0,-38.0
127.0,127.0,155.0,120.0,127.0,181.0,151.0,126.0,28.0,-124.0,-66.0,126.0,127.0,127.0,125.0,87.0,-38.0
127.0,127.0,156.0,120.0,127.0,180.0,150.0,126.0,28.0,-124.0,-66.0,126.0,127.0,127.0,125.0,87.0,-38.0
126.0,127.0,176.0,122.0,127.0,169.0,139.0,126.0,28.0,-125.0,-66.0,127.0,127.0,127.0,125.0,87.0,-38.0
126.0,127.0,176.0,122.0,127.0,169.0,139.0,126.0,28.0,-125.0,-66.0,127.0,127.0,127.0,125.0,87.0,-38.0
126.0,127.0,176.0,122.0,127.0,168.0,138.0,126.0,28.0,-125.0,-66.0,127.0,127.0,127.0,125.0,87.0,-38.0
126.0,127.0,176.0,122.0,127.0,168.0,138.0,126.0,28.0,-125.0,-66.0,127.0,127.0,127.0,125.0,87.0,-38.0
126.0,128.0,176.0,123.0,127.0,168.0,138.0,126.0,28.0,-125.0,-66.0,127.0,127.0,127.0,125.0,87.0,-38.0
126.0,128.0,176.0,123.0,127.0,168.0,138.0,126.0,28.0,-125.0,-66.0,127.0,127.0,127.0,125.0,87.0,-38.0
126.0,128.0,176.0,123.0,127.0,168.0,138.0,126.0,28.0,-125.0,-66.0,127.0,127.0,127.0,125.0,87.0,-38.0
126.0,128.0,175.0,123.0,127.0,168.0,137.0,126.0,28.0,-125.0,-66.0,127.0,127.0,127.0,125.0,87.0,-38.0
126.0,128.0,175.0,123.0,127.0,167.0,137.0,126.0,28.0,-125.0,-66.0,127.0,127.0,127.0,125.0,87.0,-38.0
126.0,128.0,175.0,123.0,127.0,167.0,137.0,126.0,28.0,-125.0,-66.0,127.0,127.0,127.0,125.0,87.0,-38.0
127.0,128.0,167.0,126.0,127.0,158.0,136.0,126.0,29.0,-125.0,-65.0,127.0,127.0,127.0,125.0,87.0,-38.0
127.0,128.0,166.0,126.0,127.0,157.0,135.0,126.0,29.0,-125.0,-65.0,127.0,127.0,127.0,125.0,87.0,-38.0
127.0,128.0,166.0,126.0,127.0,157.0,135.0,126.0,29.0,-125.0,-65.0,127.0,127.0,127.0,125.0,87.0,-38.0
127.0,128.0,166.0,126.0,127.0,157.0,134.0,126.0,29.0,-125.0,-65.0,127.0,127.0,127.0,125.0,87.0,-38.0
127.0,128.0,165.0,126.0,127.0,157.0,135.0,126.0,29.0,-125.0,-65.0,127.0,127.0,127.0,125.0,87.0,-38.0
127.0,128.0,165.0,126.0,127.0,157.0,135.0,126.0,29.0,-125.0,-65.0,127.0,127.0,127.0,125.0,87.0,-38.0
127.0,128.0,164.0,126.0,127.0,157.0,134.0,126.0,29.0,-125.0,-65.0,127.0,127.0,127.0,125.0,87.0,-38.0
127.0,128.0,164.0,126.0,127.0,157.0,134.0,126.0,29.0,-125.0,-65.0,127.0,127.0,127.0,125.0,87.0,-38.0
127.0,128.0,164.0,126.0,127.0,157.0,134.0,126.0,29.0,-125.0,-65.0,127.0,127.0,127.0,125.0,87.0,-38.0
127.0,128.0,167.0,126.0,127.0,158.0,136.0,126.0,29.0,-125.0,-65.0,127.0,127.0,127.0,125.0,87.0,-38.0
127.0,127.0,153.0,126.0,127.0,152.0,127.0,126.0,29.0,-124.0,-65.0,127.0,127.0,127.0,125.0,87.0,-38.0
127.0,127.0,152.0,126.0,127.0,152.0,126.0,126.0,29.0,-124.0,-65.0,127.0,127.0,127.0,125.0,87.0,-38.0
127.0,127.0,152.0,126.0,126.0,152.0,126.0,126.0,29.0,-124.0,-65.0,127.0,127.0,127.0,125.0,87.0,-38.0
127.0,127.0,152.0,126.0,126.0,152.0,126.0,126.0,29.0,-124.0,-65.0,127.0,127.0,127.0,125.0,87.0,-38.0
127.0,127.0,152.0,126.0,126.0,152.0,126.0,126.0,29.0,-124.0,-65.0,127.0,127.0,127.0,125.0,87.0,-38.0
127.0,127.0,151.0,126.0,126.0,151.0,125.0,126.0,29.0,-124.0,-65.0,127.0,127.0,127.0,125.0,87.0,-38.0
127.0,127.0,151.0,126.0,126.0,152.0,125.0,126.0,29.0,-124.0,-65.0,127.0,127.0,127.0,125.0,87.0,-38.0
127.0,127.0,151.0,126.0,126.0,152.0,125.0,126.0,29.0,-124.0,-65.0,127.0,127.0,127.0,125.0,87.0,-38.0
127.0,127.0,154.0,126.0,127.0,152.0,126.0,126.0,29.0,-124.0,-65.0,127.0,127.0,127.0,125.0,87.0,-38.0
127.0,127.0,153.0,126.0,127.0,152.0,126.0,126.0,29.0,-124.0,-65.0,127.0,127.0,127.0,125.0,87.0,-38.0
127.0,127.0,141.0,128.0,128.0,146.0,124.0,126.0,28.0,-124.0,-65.0,127.0,127.0,127.0,125.0,87.0,-38.0
127.0,127.0,141.0,128.0,128.0,146.0,124.0,126.0,28.0,-124.0,-65.0,127.0,127.0,127.0,125.0,87.0,-38.0
127.0,127.0,141.0,128.0,128.0,146.0,124.0,126.0,28.0,-124.0,-65.0,127.0,127.0,127.0,125.0,87.0,-38.0
127.0,127.0,140.0,128.0,128.0,146.0,124.0,126.0,28.0,-124.0,-65.0,127.0,127.0,127.0,125.0,87.0,-38.0
127.0,127.0,140.0,128.0,128.0,146.0,123.0,126.0,28.0,-124.0,-65.0,127.0,127.0,127.0,125.0,87.0,-38.0
127.0,127.0,140.0,128.0,128.0,146.0,124.0,126.0,28.0,-124.0,-65.0,127.0,127.0,127.0,125.0,87.0,-38.0
127.0,127.0,140.0,128.0,128.0,146.0,124.0,126.0,28.0,-124.0,-65.0,127.0,127.0,127.0,125.0,87.0,-38.0
127.0,127.0,142.0,128.0,128.0,146.0,123.0,126.0,28.0,-124.0,-65.0,127.0,127.0,127.0,125.0,87.0,-38.0
127.0,127.0,142.0,128.0,128.0,146.0,123.0,126.0,28.0,-124.0,-65.0,127.0,127.0,127.0,125.0,87.0,-38.0
127.0,127.0,141.0,128.0,128.0,146.0,124.0,126.0,28.0,-124.0,-65.0,127.0,127.0,127.0,125.0,87.0,-38.0
127.0,126.0,137.0,127.0,127.0,140.0,120.0,126.0,28.0,-124.0,-65.0,127.0,127.0,127.0,125.0,87.0,-38.0
127.0,126.0,137.0,127.0,127.0,139.0,119.0,126.0,28.0,-124.0,-65.0,127.0,127.0,127.0,125.0,87.0,-38.0
127.0,126.0,137.0,127.0,127.0,139.0,120.0,126.0,28.0,-124.0,-65.0,127.0,127.0,127.0,125.0,87.0,-38.0
127.0,126.0,137.0,127.0,127.0,139.0,120.0,126.0,28.0,-124.0,-65.0,127.0,127.0,127.0,125.0,87.0,-38.0
127.0,126.0,137.0,127.0,126.0,139.0,119.0,126.0,28.0,-124.0,-65.0,127.0,127.0,127.0,125.0,87.0,-38.0
127.0,126.0,137.0,127.0,126.0,139.0,118.0,126.0,28.0,-124.0,-65.0,127.0,127.0,127.0,125.0,87.0,-38.0
127.0,126.0,137.0,127.0,127.0,140.0,120.0,126.0,28.0,-124.0,-65.0,127.0,127.0,127.0,125.0,87.0,-38.0
127.0,126.0,137.0,127.0,127.0,140.0,120.0,126.0,28.0,-124.0,-65.0,127.0,127.0,127.0,125.0,87.0,-38.0
127.0,126.0,137.0,127.0,127.0,140.0,120.0,126.0,28.0,-124.0,-65.0,127.0,127.0,127.0,125.0,87.0,-38.0
127.0,126.0,137.0,127.0,127.0,140.0,120.0,126.0,28.0,-124.0,-65.0,127.0,127.0,127.0,125.0,87.0,-38.0
127.0,127.0,135.0,129.0,126.0,136.0,114.0,126.0,28.0,-124.0,-65.0,127.0,127.0,127.0,125.0,87.0,-38.0
127.0,127.0,135.0,129.0,126.0,136.0,114.0,126.0,28.0,-124.0,-65.0,127.0,127.0,127.0,125.0,87.0,-38.0
127.0,127.0,135.0,129.0,126.0,136.0,114.0,126.0,28.0,-124.0,-65.0,127.0,127.0,127.0,125.0,87.0,-38.0
127.0,127.0,135.0,129.0,127.0,136.0,114.0,126.0,28.0,-124.0,-65.0,127.0,127.0,127.0,125.0,87.0,-38.0
127.0,127.0,135.0,129.0,127.0,136.0,113.0,126.0,28.0,-124.0,-65.0,127.0,127.0,127.0,125.0,87.0,-38.0
127.0,127.0,136.0,129.0,127.0,136.0,114.0,126.0,28.0,-124.0,-65.0,127.0,127.0,127.0,125.0,87.0,-38.0
127.0,127.0,135.0,129.0,127.0,136.0,115.0,126.0,28.0,-124.0,-65.0,127.0,127.0,127.0,125.0,87.0,-38.0
127.0,127.0,135.0,129.0,126.0,136.0,114.0,126.0,28.0,-124.0,-65.0,127.0,127.0,127.0,125.0,87.0,-38.0
127.0,127.0,135.0,129.0,126.0,136.0,114.0,126.0,28.0,-124.0,-65.0,127.0,127.0,127.0,125.0,87.0,-38.0
127.0,127.0,135.0,129.0,126.0,136.0,114.0,126.0,28.0,-124.0,-65.0,127.0,127.0,127.0,125.0,87.0,-38.0
126.0,127.0,132.0,130.0,127.0,134.0,118.0,126.0,28.0,-124.0,-65.0,127.0,127.0,127.0,125.0,87.0,-38.0
126.0,127.0,132.0,130.0,127.0,134.0,118.0,126.0,28.0,-124.0,-65.0,127.0,127.0,127.0,125.0,87.0,-38.0
126.0,127.0,132.0,130.0,127.0,134.0,117.0,126.0,28.0,-124.0,-65.0,127.0,127.0,127.0,125.0,87.0,-38.0
126.0,127.0,132.0,130.0,127.0,134.0,118.0,126.0,28.0,-124.0,-65.0,127.0,127.0,127.0,125.0,87.0,-38.0
126.0,127.0,133.0,130.0,127.0,134.0,118.0,126.0,28.0,-124.0,-65.0,127.0,127.0,127.0,125.0,87.0,-38.0
126.0,127.0,133.0,130.0,127.0,134.0,118.0,126.0,28.0,-124.0,-65.0,127.0,127.0,127.0,125.0,87.0,-38.0
126.0,127.0,133.0,130.0,127.0,134.0,118.0,126.0,28.0,-124.0,-65.0,127.0,127.0,127.0,125.0,87.0,-38.0
126.0,127.0,132.0,130.0,127.0,134.0,118.0,126.0,28.0,-124.0,-65.0,127.0,127.0,127.0,125.0,87.0,-38.0
126.0,127.0,132.0,130.0,127.0,134.0,118.0,126.0,28.0,-124.0,-65.0,127.0,127.0,127.0,125.0,87.0,-38.0
126.0,127.0,132.0,130.0,127.0,134.0,118.0,126.0,28.0,-124.0,-65.0,127.0,127.0,127.0,125.0,87.0,-38.0
126.0,127.0,131.0,130.0,126.0,132.0,115.0,126.0,28.0,-125.0,-65.0,127.0,127.0,127.0,125.0,87.0,-38.0
126.0,127.0,131.0,130.0,126.0,132.0,114.0,126.0,28.0,-125.0,-65.0,127.0,127.0,127.0,125.0,87.0,-38.0
126.0,127.0,131.0,130.0,126.0,132.0,114.0,126.0,28.0,-125.0,-65.0,127.0,127.0,127.0,125.0,87.0,-38.0
126.0,127.0,131.0,130.0,127.0,132.0,114.0,126.0,28.0,-125.0,-65.0,127.0,127.0,127.0,125.0,87.0,-38.0
126.0,127.0,131.0,131.0,127.0,132.0,114.0,126.0,28.0,-125.0,-65.0,127.0,127.0,127.0,125.0,87.0,-38.0
126.0,127.0,131.0,130.0,126.0,132.0,114.0,126.0,28.0,-125.0,-65.0,127.0,127.0,127.0,125.0,87.0,-38.0
126.0,127.0,131.0,130.0,126.0,132.0,115.0,126.0,28.0,-125.0,-65.0,127.0,127.0,127.0,125.0,87.0,-38.0
126.0,127.0,131.0,130.0,126.0,132.0,115.0,126.0,28.0,-125.0,-65.0,127.0,127.0,127.0,125.0,87.0,-38.0
126.0,127.0,131.0,130.0,126.0,132.0,114.0,126.0,28.0,-125.0,-65.0,127.0,127.0,127.0,125.0,87.0,-38.0
126.0,127.0,131.0,130.0,126.0,132.0,115.0,126.0,28.0,-125.0,-65.0,127.0,127.0,127.0,125.0,87.0,-38.0
127.0,127.0,127.0,130.0,127.0,131.0,112.0,126.0,29.0,-125.0,-65.0,127.0,127.0,127.0,125.0,87.0,-38.0
126.0,127.0,127.0,130.0,126.0,131.0,112.0,127.0,29.0,-125.0,-65.0,127.0,127.0,127.0,125.0,87.0,-38.0
127.0,127.0,129.0,131.0,127.0,131.0,112.0,126.0,29.0,-125.0,-65.0,127.0,127.0,127.0,125.0,87.0,-38.0
127.0,127.0,129.0,131.0,127.0,131.0,112.0,126.0,29.0,-125.0,-65.0,127.0,127.0,127.0,125.0,87.0,-38.0
127.0,127.0,129.0,131.0,127.0,130.0,111.0,126.0,29.0,-125.0,-65.0,127.0,127.0,127.0,125.0,87.0,-38.0
127.0,127.0,129.0,130.0,127.0,130.0,111.0,126.0,29.0,-125.0,-65.0,127.0,127.0,127.0,125.0,87.0,-38.0
127.0,127.0,129.0,130.0,127.0,130.0,111.0,126.0,29.0,-125.0,-65.0,127.0,127.0,127.0,125.0,87.0,-38.0
127.0,127.0,128.0,130.0,127.0,131.0,112.0,126.0,29.0,-125.0,-65.0,127.0,127.0,127.0,125.0,87.0,-38.0
127.0,127.0,128.0,130.0,127.0,131.0,112.0,126.0,29.0,-125.0,-65.0,127.0,127.0,127.0,125.0,87.0,-38.0
127.0,127.0,128.0,130.0,127.0,131.0,112.0,127.0,29.0,-125.0,-65.0,127.0,127.0,127.0,125.0,87.0,-38.0
127.0,127.0,128.0,129.0,126.0,129.0,110.0,127.0,29.0,-125.0,-65.0,127.0,127.0,127.0,125.0,87.0,-38.0
127.0,127.0,128.0,130.0,127.0,129.0,110.0,127.0,29.0,-125.0,-65.0,127.0,127.0,127.0,125.0,87.0,-38.0
127.0,127.0,129.0,130.0,127.0,129.0,110.0,127.0,29.0,-125.0,-65.0,127.0,127.0,127.0,125.0,87.0,-38.0
127.0,127.0,129.0,130.0,127.0,129.0,110.0,127.0,29.0,-125.0,-65.0,127.0,127.0,127.0,125.0,87.0,-38.0
127.0,127.0,129.0,130.0,127.0,130.0,110.0,127.0,29.0,-125.0,-65.0,127.0,127.0,127.0,125.0,87.0,-38.0
127.0,127.0,129.0,130.0,127.0,130.0,111.0,127.0,29.0,-125.0,-65.0,127.0,127.0,127.0,125.0,87.0,-38.0
127.0,127.0,129.0,130.0,127.0,130.0,111.0,127.0,29.0,-125.0,-65.0,127.0,127.0,127.0,125.0,87.0,-38.0
127.0,127.0,129.0,130.0,127.0,130.0,110.0,127.0,29.0,-125.0,-65.0,127.0,127.0,127.0,125.0,87.0,-38.0
127.0,127.0,128.0,129.0,126.0,130.0,110.0,127.0,29.0,-125.0,-65.0,127.0,127.0,127.0,125.0,87.0,-38.0
127.0,127.0,128.0,129.0,126.0,130.0,110.0,127.0,29.0,-125.0,-65.0,127.0,127.0,127.0,125.0,87.0,-38.0
127.0,126.0,126.0,129.0,126.0,129.0,110.0,126.0,28.0,-125.0,-65.0,127.0,127.0,127.0,125.0,87.0,-38.0
127.0,127.0,126.0,129.0,127.0,129.0,109.0,127.0,28.0,-125.0,-65.0,127.0,127.0,127.0,125.0,87.0,-38.0
127.0,127.0,125.0,129.0,127.0,129.0,109.0,126.0,28.0,-125.0,-65.0,127.0,127.0,127.0,125.0,87.0,-38.0
127.0,127.0,125.0,129.0,127.0,129.0,110.0,127.0,28.0,-125.0,-65.0,127.0,127.0,127.0,125.0,87.0,-38.0
127.0,127.0,125.0,129.0,127.0,130.0,110.0,127.0,28.0,-125.0,-65.0,127.0,127.0,127.0,125.0,87.0,-38.0
127.0,127.0,125.0,129.0,127.0,129.0,110.0,127.0,28.0,-125.0,-65.0,127.0,127.0,127.0,125.0,87.0,-38.0
127.0,127.0,125.0,129.0,127.0,129.0,110.0,127.0,28.0,-125.0,-65.0,127.0,127.0,127.0,125.0,87.0,-38.0
127.0,127.0,125.0,129.0,127.0,129.0,110.0,127.0,28.0,-125.0,-65.0,127.0,127.0,127.0,125.0,87.0,-38.0
127.0,127.0,125.0,129.0,127.0,129.0,110.0,127.0,28.0,-125.0,-65.0,127.0,127.0,127.0,125.0,87.0,-38.0
127.0,127.0,125.0,129.0,127.0,129.0,110.0,127.0,28.0,-125.0,-65.0,127.0,127.0,127.0,125.0,87.0,-38.0
127.0,127.0,126.0,129.0,127.0,129.0,109.0,127.0,28.0,-125.0,-66.0,127.0,127.0,127.0,125.0,87.0,-38.0
127.0,127.0,126.0,129.0,127.0,129.0,109.0,127.0,28.0,-125.0,-66.0,127.0,127.0,127.0,125.0,87.0,-38.0
127.0,127.0,126.0,129.0,127.0,129.0,110.0,127.0,28.0,-125.0,-66.0,127.0,127.0,127.0,125.0,87.0,-38.0
127.0,127.0,126.0,129.0,127.0,129.0,110.0,127.0,28.0,-125.0,-66.0,127.0,127.0,127.0,125.0,87.0,-38.0
127.0,127.0,126.0,129.0,127.0,129.0,110.0,127.0,28.0,-125.0,-66.0,127.0,127.0,127.0,125.0,87.0,-38.0
127.0,127.0,126.0,129.0,127.0,129.0,109.0,127.0,28.0,-125.0,-66.0,127.0,127.0,127.0,125.0,87.0,-38.0
127.0,127.0,126.0,129.0,127.0,129.0,109.0,127.0,28.0,-125.0,-66.0,127.0,127.0,127.0,125.0,87.0,-38.0
127.0,127.0,126.0,129.0,127.0,129.0,109.0,127.0,28.0,-125.0,-66.0,127.0,127.0,127.0,125.0,87.0,-38.0
127.0,127.0,126.0,129.0,127.0,129.0,109.0,127.0,28.0,-125.0,-66.0,127.0,127.0,127.0,125.0,87.0,-38.0
127.0,127.0,127.0,129.0,127.0,129.0,109.0,127.0,28.0,-125.0,-66.0,127.0,127.0,127.0,125.0,87.0,-38.0
127.0,126.0,126.0,128.0,126.0,128.0,108.0,127.0,28.0,-125.0,-66.0,127.0,127.0,127.0,125.0,87.0,-38.0
127.0,126.0,126.0,128.0,126.0,129.0,108.0,127.0,28.0,-125.0,-66.0,127.0,127.0,127.0,125.0,87.0,-38.0
127.0,126.0,126.0,128.0,126.0,129.0,109.0,127.0,28.0,-125.0,-66.0,127.0,127.0,127.0,125.0,87.0,-38.0
127.0,126.0,126.0,129.0,126.0,129.0,109.0,127.0,28.0,-125.0,-66.0,127.0,127.0,127.0,125.0,87.0,-38.0
126.0,126.0,126.0,128.0,126.0,129.0,109.0,127.0,28.0,-125.0,-66.0,127.0,127.0,127.0,125.0,87.0,-38.0
126.0,127.0,126.0,129.0,126.0,129.0,109.0,127.0,28.0,-125.0,-66.0,127.0,127.0,127.0,125.0,87.0,-38.0
126.0,127.0,126.0,129.0,126.0,129.0,109.0,127.0,28.0,-125.0,-66.0,127.0,127.0,127.0,125.0,87.0,-38.0
126.0,127.0,126.0,129.0,126.0,129.0,109.0,127.0,28.0,-125.0,-66.0,127.0,127.0,127.0,125.0,87.0,-38.0
127.0,126.0,126.0,129.0,126.0,129.0,109.0,127.0,28.0,-125.0,-66.0,127.0,127.0,127.0,125.0,87.0,-38.0
127.0,126.0,126.0,128.0,126.0,129.0,108.0,127.0,28.0,-125.0,-66.0,127.0,127.0,127.0,125.0,87.0,-38.0
126.0,127.0,127.0,129.0,127.0,129.0,109.0,127.0,28.0,-125.0,-66.0,127.0,127.0,127.0,125.0,87.0,-38.0
126.0,127.0,127.0,129.0,127.0,129.0,109.0,127.0,28.0,-125.0,-66.0,127.0,127.0,127.0,125.0,87.0,-38.0
126.0,127.0,127.0,129.0,127.0,129.0,109.0,127.0,28.0,-125.0,-66.0,127.0,127.0,127.0,125.0,87.0,-38.0
126.0,127.0,127.0,129.0,126.0,129.0,109.0,127.0,28.0,-125.0,-66.0,127.0,127.0,127.0,125.0,87.0,-38.0
126.0,127.0,127.0,129.0,126.0,129.0,109.0,127.0,28.0,-125.0,-66.0,127.0,127.0,127.0,125.0,87.0,-38.0
126.0,127.0,127.0,129.0,126.0,129.0,109.0,127.0,28.0,-125.0,-66.0,127.0,127.0,127.0,125.0,87.0,-38.0
126.0,127.0,127.0,129.0,126.0,129.0,109.0,127.0,28.0,-125.0,-66.0,127.0,127.0,127.0,125.0,87.0,-38.0
126.0,127.0,127.0,129.0,127.0,129.0,108.0,127.0,28.0,-125.0,-66.0,127.0,127.0,127.0,125.0,87.0,-38.0
127.0,127.0,127.0,129.0,127.0,129.0,109.0,127.0,28.0,-125.0,-66.0,127.0,127.0,127.0,125.0,87.0,-38.0
127.0,127.0,127.0,129.0,127.0,129.0,109.0,127.0,28.0,-125.0,-66.0,127.0,127.0,127.0,125.0,87.0,-38.0
127.0,127.0,129.0,129.0,126.0,128.0,108.0,127.0,28.0,-125.0,-66.0,127.0,127.0,127.0,125.0,87.0,-38.0
127.0,127.0,129.0,129.0,126.0,128.0,108.0,127.0,28.0,-125.0,-66.0,127.0,127.0,127.0,125.0,87.0,-38.0
127.0,127.0,129.0,129.0,126.0,128.0,107.0,127.0,28.0,-125.0,-66.0,127.0,127.0,127.0,125.0,87.0,-38.0
126.0,127.0,129.0,129.0,126.0,128.0,108.0,127.0,28.0,-125.0,-66.0,127.0,127.0,127.0,125.0,87.0,-38.0
127.0,127.0,129.0,129.0,126.0,129.0,108.0,127.0,28.0,-125.0,-66.0,127.0,127.0,127.0,125.0,87.0,-38.0
127.0,127.0,129.0,129.0,126.0,128.0,108.0,127.0,28.0,-125.0,-66.0,127.0,127.0,127.0,125.0,87.0,-38.0
127.0,127.0,128.0,129.0,127.0,128.0,107.0,127.0,28.0,-125.0,-66.0,127.0,127.0,127.0,125.0,87.0,-38.0
127.0,127.0,129.0,129.0,127.0,128.0,108.0,127.0,28.0,-125.0,-66.0,127.0,127.0,127.0,125.0,87.0,-38.0
127.0,127.0,129.0,129.0,127.0,128.0,108.0,127.0,28.0,-125.0,-66.0,127.0,127.0,127.0,125.0,87.0,-38.0
127.0,127.0,129.0,129.0,127.0,128.0,108.0,127.0,28.0,-125.0,-66.0,127.0,127.0,127.0,125.0,87.0,-38.0
127.0,127.0,127.0,128.0,126.0,128.0,107.0,127.0,27.0,-125.0,-66.0,127.0,127.0,127.0,125.0,87.0,-38.0
126.0,127.0,127.0,128.0,126.0,128.0,107.0,127.0,27.0,-125.0,-66.0,127.0,127.0,127.0,125.0,87.0,-38.0
126.0,127.0,127.0,128.0,126.0,128.0,107.0,127.0,27.0,-125.0,-66.0,127.0,127.0,127.0,125.0,87.0,-38.0
126.0,127.0,127.0,128.0,126.0,128.0,107.0,127.0,27.0,-125.0,-66.0,127.0,127.0,127.0,125.0,87.0,-38.0
126.0,127.0,127.0,128.0,126.0,128.0,107.0,127.0,27.0,-125.0,-66.0,127.0,127.0,127.0,125.0,87.0,-38.0
126.0,127.0,127.0,128.0,126.0,127.0,107.0,127.0,27.0,-125.0,-66.0,127.0,127.0,127.0,125.0,87.0,-38.0
126.0,127.0,127.0,129.0,127.0,128.0,107.0,127.0,27.0,-125.0,-66.0,127.0,127.0,127.0,125.0,87.0,-38.0
126.0,127.0,127.0,128.0,127.0,128.0,108.0,127.0,27.0,-125.0,-66.0,127.0,127.0,127.0,125.0,87.0,-38.0
126.0,127.0,127.0,129.0,127.0,128.0,107.0,127.0,27.0,-125.0,-66.0,127.0,127.0,127.0,125.0,87.0,-38.0
127.0,127.0,127.0,128.0,126.0,128.0,107.0,127.0,27.0,-125.0,-66.0,127.0,127.0,127.0,125.0,87.0,-38.0
127.0,127.0,126.0,128.0,126.0,128.0,107.0,127.0,27.0,-125.0,-66.0,127.0,127.0,127.0,125.0,87.0,-38.0
127.0,127.0,126.0,128.0,126.0,128.0,106.0,127.0,27.0,-125.0,-66.0,127.0,127.0,127.0,125.0,87.0,-38.0
127.0,127.0,126.0,128.0,126.0,127.0,106.0,127.0,27.0,-125.0,-66.0,127.0,127.0,127.0,125.0,87.0,-38.0
127.0,127.0,127.0,128.0,126.0,127.0,106.0,127.0,27.0,-125.0,-66.0,127.0,127.0,127.0,125.0,87.0,-38.0
127.0,127.0,126.0,129.0,127.0,127.0,106.0,127.0,27.0,-125.0,-66.0,127.0,127.0,127.0,125.0,87.0,-38.0
127.0,127.0,126.0,129.0,127.0,128.0,107.0,127.0,27.0,-125.0,-66.0,127.0,127.0,127.0,125.0,87.0,-38.0
127.0,127.0,126.0,129.0,127.0,128.0,107.0,127.0,27.0,-125.0,-66.0,127.0,127.0,127.0,125.0,87.0,-38.0
127.0,127.0,126.0,129.0,127.0,128.0,108.0,127.0,27.0,-125.0,-66.0,127.0,127.0,127.0,125.0,87.0,-38.0
127.0,127.0,126.0,129.0,127.0,128.0,108.0,127.0,27.0,-125.0,-66.0,127.0,127.0,127.0,125.0,87.0,-38.0
127.0,127.0,126.0,129.0,127.0,128.0,107.0,127.0,27.0,-125.0,-66.0,127.0,127.0,127.0,125.0,87.0,-38.0
126.0,127.0,126.0,128.0,127.0,128.0,107.0,127.0,27.0,-125.0,-66.0,127.0,127.0,127.0,125.0,87.0,-38.0
127.0,127.0,126.0,128.0,127.0,128.0,107.0,127.0,27.0,-125.0,-66.0,127.0,127.0,127.0,125.0,87.0,-38.0
127.0,127.0,126.0,128.0,127.0,128.0,107.0,127.0,27.0,-125.0,-66.0,127.0,127.0,127.0,125.0,87.0,-38.0
127.0,127.0,126.0,128.0,127.0,128.0,107.0,127.0,27.0,-125.0,-66.0,127.0,127.0,127.0,125.0,87.0,-38.0
127.0,127.0,126.0,128.0,127.0,127.0,106.0,127.0,27.0,-125.0,-66.0,127.0,127.0,127.0,125.0,87.0,-38.0
127.0,127.0,126.0,128.0,127.0,127.0,106.0,127.0,27.0,-125.0,-66.0,127.0,127.0,127.0,125.0,87.0,-38.0
127.0,127.0,126.0,128.0,127.0,127.0,106.0,127.0,27.0,-125.0,-66.0,127.0,127.0,127.0,125.0,87.0,-38.0
127.0,127.0,126.0,128.0,127.0,128.0,107.0,127.0,27.0,-125.0,-66.0,127.0,127.0,127.0,125.0,87.0,-38.0
127.0,127.0,126.0,128.0,127.0,128.0,107.0,127.0,27.0,-125.0,-66.0,127.0,127.0,127.0,125.0,87.0,-38.0
127.0,127.0,126.0,128.0,127.0,128.0,107.0,127.0,27.0,-125.0,-66.0,127.0,127.0,127.0,125.0,87.0,-38.0
127.0,127.0,127.0,128.0,126.0,127.0,106.0,127.0,27.0,-125.0,-66.0,127.0,127.0,127.0,125.0,87.0,-38.0
127.0,127.0,127.0,128.0,126.0,127.0,106.0,127.0,27.0,-125.0,-66.0,127.0,127.0,127.0,125.0,87.0,-38.0
127.0,127.0,127.0,129.0,127.0,128.0,106.0,127.0,27.0,-125.0,-66.0,127.0,127.0,127.0,125.0,87.0,-38.0
127.0,127.0,127.0,129.0,127.0,128.0,107.0,127.0,27.0,-125.0,-66.0,127.0,127.0,127.0,125.0,87.0,-38.0
127.0,127.0,127.0,129.0,126.0,128.0,108.0,127.0,27.0,-125.0,-66.0,127.0,127.0,127.0,125.0,87.0,-38.0
127.0,127.0,127.0,129.0,126.0,128.0,107.0,127.0,27.0,-125.0,-66.0,127.0,127.0,127.0,125.0,87.0,-38.0
127.0,127.0,127.0,129.0,126.0,128.0,107.0,127.0,27.0,-125.0,-66.0,127.0,127.0,127.0,125.0,87.0,-38.0
127.0,127.0,127.0,128.0,126.0,127.0,107.0,127.0,27.0,-125.0,-66.0,127.0,127.0,127.0,125.0,87.0,-38.0
127.0,127.0,127.0,128.0,126.0,127.0,106.0,127.0,27.0,-125.0,-66.0,127.0,127.0,127.0,125.0,87.0,-38.0
127.0,127.0,127.0,128.0,126.0,127.0,106.0,127.0,27.0,-125.0,-66.0,127.0,127.0,127.0,125.0,87.0,-38.0
127.0,127.0,126.0,128.0,127.0,128.0,107.0,127.0,27.0,-125.0,-66.0,127.0,127.0,127.0,125.0,87.0,-38.0
127.0,127.0,127.0,129.0,127.0,128.0,107.0,127.0,27.0,-125.0,-66.0,127.0,127.0,127.0,125.0,87.0,-38.0
127.0,127.0,127.0,129.0,127.0,128.0,106.0,127.0,27.0,-125.0,-66.0,127.0,127.0,127.0,125.0,87.0,-38.0
127.0,127.0,127.0,129.0,127.0,127.0,106.0,127.0,27.0,-125.0,-66.0,127.0,127.0,127.0,125.0,87.0,-38.0
127.0,127.0,127.0,129.0,127.0,127.0,106.0,127.0,27.0,-125.0,-66.0,127.0,127.0,127.0,125.0,87.0,-38.0
127.0,127.0,126.0,129.0,127.0,128.0,106.0,127.0,27.0,-125.0,-66.0,127.0,127.0,127.0,125.0,87.0,-38.0
127.0,127.0,126.0,129.0,127.0,128.0,107.0,127.0,27.0,-125.0,-66.0,127.0,127.0,127.0,125.0,87.0,-38.0
127.0,127.0,126.0,129.0,127.0,128.0,108.0,127.0,27.0,-125.0,-66.0,127.0,127.0,127.0,125.0,87.0,-38.0
127.0,127.0,126.0,129.0,127.0,128.0,107.0,127.0,27.0,-125.0,-66.0,127.0,127.0,127.0,125.0,87.0,-38.0
127.0,127.0,126.0,128.0,127.0,128.0,107.0,127.0,27.0,-125.0,-66.0,127.0,127.0,127.0,125.0,87.0,-38.0
127.0,126.0,126.0,128.0,126.0,127.0,110.0,127.0,27.0,-125.0,-66.0,127.0,127.0,127.0,125.0,87.0,-38.0
127.0,126.0,126.0,128.0,126.0,127.0,107.0,127.0,27.0,-125.0,-66.0,127.0,127.0,127.0,125.0,87.0,-38.0
127.0,126.0,126.0,128.0,126.0,127.0,109.0,127.0,27.0,-125.0,-66.0,127.0,127.0,127.0,125.0,87.0,-38.0
127.0,126.0,126.0,128.0,126.0,127.0,108.0,127.0,27.0,-125.0,-66.0,127.0,127.0,127.0,125.0,87.0,-38.0
127.0,126.0,126.0,128.0,126.0,127.0,107.0,127.0,27.0,-125.0,-66.0,127.0,127.0,127.0,125.0,87.0,-38.0
127.0,126.0,126.0,128.0,126.0,127.0,110.0,127.0,27.0,-125.0,-66.0,127.0,127.0,127.0,125.0,87.0,-38.0
127.0,126.0,126.0,128.0,126.0,127.0,108.0,127.0,27.0,-125.0,-66.0,127.0,127.0,127.0,125.0,87.0,-38.0
127.0,126.0,126.0,128.0,126.0,127.0,107.0,127.0,27.0,-125.0,-66.0,127.0,127.0,127.0,125.0,87.0,-38.0
127.0,127.0,126.0,128.0,126.0,127.0,106.0,127.0,27.0,-125.0,-66.0,127.0,127.0,127.0,125.0,87.0,-38.0
127.0,127.0,126.0,128.0,127.0,128.0,107.0,127.0,27.0,-125.0,-66.0,127.0,127.0,127.0,125.0,87.0,-38.0
127.0,127.0,128.0,128.0,126.0,127.0,106.0,127.0,27.0,-125.0,-66.0,127.0,127.0,127.0,125.0,87.0,-38.0
127.0,126.0,128.0,128.0,126.0,127.0,106.0,127.0,27.0,-125.0,-66.0,127.0,127.0,127.0,125.0,87.0,-38.0
127.0,127.0,128.0,128.0,126.0,127.0,106.0,127.0,27.0,-125.0,-66.0,127.0,127.0,127.0,125.0,87.0,-38.0
127.0,127.0,128.0,128.0,126.0,127.0,106.0,127.0,27.0,-125.0,-66.0,127.0,127.0,127.0,125.0,87.0,-38.0
127.0,127.0,128.0,128.0,126.0,127.0,107.0,127.0,27.0,-125.0,-66.0,127.0,127.0,127.0,125.0,87.0,-38.0
127.0,127.0,128.0,127.0,126.0,127.0,108.0,127.0,27.0,-125.0,-66.0,127.0,127.0,127.0,125.0,87.0,-38.0
127.0,127.0,128.0,127.0,126.0,127.0,107.0,127.0,27.0,-125.0,-66.0,127.0,127.0,127.0,125.0,87.0,-38.0
126.0,127.0,127.0,127.0,126.0,127.0,107.0,127.0,27.0,-125.0,-66.0,127.0,127.0,127.0,125.0,87.0,-38.0
126.0,127.0,127.0,127.0,126.0,127.0,106.0,128.0,27.0,-125.0,-66.0,127.0,127.0,127.0,125.0,87.0,-38.0
127.0,127.0,128.0,128.0,126.0,127.0,106.0,127.0,27.0,-125.0,-66.0,127.0,127.0,127.0,125.0,87.0,-38.0
127.0,126.0,126.0,128.0,126.0,127.0,106.0,127.0,27.0,-126.0,-66.0,127.0,127.0,127.0,125.0,87.0,-38.0
126.0,126.0,126.0,128.0,126.0,127.0,107.0,127.0,27.0,-126.0,-66.0,127.0,127.0,127.0,125.0,87.0,-38.0
127.0,127.0,126.0,128.0,126.0,127.0,107.0,127.0,27.0,-126.0,-66.0,127.0,127.0,127.0,125.0,87.0,-38.0
126.0,127.0,126.0,128.0,126.0,127.0,107.0,127.0,27.0,-126.0,-66.0,127.0,127.0,127.0,125.0,87.0,-38.0
126.0,127.0,126.0,128.0,126.0,127.0,107.0,127.0,27.0,-126.0,-66.0,127.0,127.0,127.0,125.0,87.0,-38.0
126.0,127.0,126.0,128.0,126.0,127.0,106.0,127.0,27.0,-126.0,-66.0,127.0,127.0,127.0,125.0,87.0,-38.0
126.0,127.0,126.0,128.0,126.0,127.0,107.0,127.0,27.0,-126.0,-66.0,127.0,127.0,127.0,125.0,87.0,-38.0
126.0,127.0,126.0,128.0,126.0,128.0,107.0,127.0,27.0,-126.0,-66.0,127.0,127.0,127.0,125.0,87.0,-38.0
126.0,127.0,126.0,128.0,126.0,127.0,107.0,127.0,27.0,-126.0,-66.0,127.0,127.0,127.0,125.0,87.0,-38.0
126.0,127.0,126.0,128.0,126.0,127.0,106.0,127.0,27.0,-126.0,-66.0,127.0,127.0,127.0,125.0,87.0,-38.0
127.0,127.0,127.0,128.0,127.0,128.0,107.0,127.0,27.0,-126.0,-66.0,127.0,127.0,127.0,125.0,87.0,-38.0
127.0,127.0,127.0,128.0,127.0,128.0,106.0,127.0,27.0,-126.0,-66.0,127.0,127.0,127.0,125.0,87.0,-38.0
127.0,127.0,127.0,128.0,127.0,127.0,106.0,127.0,27.0,-126.0,-66.0,127.0,127.0,127.0,125.0,87.0,-38.0
127.0,127.0,127.0,128.0,127.0,127.0,106.0,127.0,27.0,-126.0,-66.0,127.0,127.0,127.0,125.0,87.0,-38.0
127.0,127.0,127.0,128.0,127.0,127.0,106.0,127.0,27.0,-126.0,-66.0,127.0,127.0,127.0,125.0,87.0,-38.0
127.0,127.0,127.0,128.0,127.0,128.0,107.0,127.0,27.0,-126.0,-66.0,127.0,127.0,127.0,125.0,87.0,-38.0
127.0,127.0,127.0,128.0,127.0,128.0,107.0,128.0,27.0,-126.0,-66.0,127.0,127.0,127.0,125.0,87.0,-38.0
127.0,126.0,127.0,128.0,127.0,127.0,107.0,127.0,27.0,-126.0,-66.0,127.0,127.0,127.0,125.0,87.0,-38.0
127.0,126.0,127.0,128.0,127.0,127.0,106.0,127.0,27.0,-126.0,-66.0,127.0,127.0,127.0,125.0,87.0,-38.0
127.0,127.0,127.0,128.0,127.0,127.0,107.0,127.0,27.0,-126.0,-66.0,127.0,127.0,127.0,125.0,87.0,-38.0
127.0,127.0,128.0,129.0,127.0,128.0,107.0,128.0,27.0,-126.0,-66.0,127.0,127.0,127.0,125.0,87.0,-38.0
127.0,127.0,128.0,129.0,127.0,128.0,107.0,128.0,27.0,-126.0,-66.0,127.0,127.0,127.0,125.0,87.0,-38.0
127.0,127.0,127.0,129.0,127.0,128.0,107.0,128.0,27.0,-126.0,-66.0,127.0,127.0,127.0,125.0,87.0,-38.0
127.0,127.0,127.0,129.0,127.0,128.0,107.0,128.0,27.0,-126.0,-66.0,127.0,127.0,127.0,125.0,87.0,-38.0
127.0,127.0,127.0,129.0,127.0,128.0,107.0,128.0,27.0,-126.0,-66.0,127.0,127.0,127.0,125.0,87.0,-38.0
127.0,127.0,127.0,128.0,127.0,127.0,107.0,128.0,27.0,-126.0,-66.0,127.0,127.0,127.0,125.0,87.0,-38.0
127.0,127.0,128.0,128.0,127.0,128.0,107.0,128.0,27.0,-126.0,-66.0,127.0,127.0,127.0,125.0,87.0,-38.0
127.0,127.0,128.0,128.0,127.0,128.0,107.0,128.0,27.0,-126.0,-66.0,127.0,127.0,127.0,125.0,87.0,-38.0
127.0,127.0,128.0,129.0,127.0,128.0,107.0,128.0,27.0,-126.0,-66.0,127.0,127.0,127.0,125.0,87.0,-38.0
127.0,127.0,128.0,129.0,127.0,128.0,108.0,128.0,27.0,-126.0,-66.0,127.0,127.0,127.0,125.0,87.0,-38.0
127.0,127.0,127.0,128.0,127.0,128.0,106.0,128.0,27.0,-126.0,-66.0,127.0,127.0,127.0,125.0,87.0,-38.0
127.0,127.0,127.0,128.0,127.0,127.0,106.0,128.0,27.0,-126.0,-66.0,127.0,127.0,127.0,125.0,87.0,-38.0
127.0,127.0,127.0,128.0,127.0,127.0,107.0,128.0,27.0,-126.0,-66.0,127.0,127.0,127.0,125.0,87.0,-38.0
127.0,127.0,127.0,128.0,127.0,127.0,107.0,128.0,27.0,-126.0,-66.0,127.0,127.0,127.0,125.0,87.0,-38.0
127.0,127.0,127.0,128.0,127.0,127.0,106.0,128.0,27.0,-126.0,-66.0,127.0,127.0,127.0,125.0,87.0,-38.0
126.0,127.0,127.0,128.0,127.0,128.0,107.0,128.0,27.0,-126.0,-66.0,127.0,127.0,127.0,125.0,87.0,-38.0
126.0,127.0,127.0,128.0,127.0,128.0,107.0,128.0,27.0,-126.0,-66.0,127.0,127.0,127.0,125.0,87.0,-38.0
126.0,127.0,127.0,128.0,127.0,128.0,107.0,128.0,27.0,-126.0,-66.0,127.0,127.0,127.0,125.0,87.0,-38.0
127.0,127.0,127.0,128.0,127.0,128.0,106.0,128.0,27.0,-126.0,-66.0,127.0,127.0,127.0,125.0,87.0,-38.0
127.0,127.0,127.0,128.0,127.0,128.0,106.0,128.0,27.0,-126.0,-66.0,127.0,127.0,127.0,125.0,87.0,-38.0
126.0,127.0,126.0,128.0,127.0,128.0,108.0,128.0,27.0,-126.0,-66.0,127.0,127.0,127.0,125.0,87.0,-38.0
126.0,127.0,126.0,128.0,127.0,128.0,107.0,128.0,27.0,-126.0,-66.0,127.0,127.0,127.0,125.0,87.0,-38.0
126.0,127.0,126.0,128.0,127.0,128.0,107.0,128.0,27.0,-126.0,-66.0,127.0,127.0,127.0,125.0,87.0,-38.0
126.0,127.0,126.0,128.0,127.0,128.0,107.0,128.0,27.0,-126.0,-66.0,127.0,127.0,127.0,125.0,87.0,-38.0
126.0,127.0,126.0,128.0,127.0,128.0,107.0,127.0,27.0,-126.0,-66.0,127.0,127.0,127.0,125.0,87.0,-38.0
126.0,127.0,126.0,128.0,127.0,128.0,107.0,128.0,27.0,-126.0,-66.0,127.0,127.0,127.0,125.0,87.0,-38.0
126.0,127.0,126.0,128.0,127.0,128.0,107.0,127.0,27.0,-126.0,-66.0,127.0,127.0,127.0,125.0,87.0,-38.0
126.0,127.0,126.0,128.0,127.0,128.0,107.0,128.0,27.0,-126.0,-66.0,127.0,127.0,127.0,125.0,87.0,-38.0
126.0,127.0,126.0,128.0,127.0,128.0,107.0,128.0,27.0,-126.0,-66.0,127.0,127.0,127.0,125.0,87.0,-38.0
126.0,127.0,126.0,128.0,127.0,128.0,107.0,128.0,27.0,-126.0,-66.0,127.0,127.0,127.0,125.0,87.0,-38.0
127.0,127.0,127.0,128.0,126.0,127.0,106.0,127.0,27.0,-126.0,-67.0,127.0,127.0,127.0,125.0,87.0,-38.0
127.0,127.0,127.0,128.0,126.0,127.0,106.0,127.0,27.0,-126.0,-67.0,127.0,127.0,127.0,125.0,87.0,-38.0
127.0,127.0,127.0,128.0,126.0,127.0,110.0,127.0,27.0,-126.0,-67.0,127.0,127.0,127.0,125.0,87.0,-38.0
127.0,127.0,126.0,128.0,127.0,127.0,108.0,128.0,27.0,-126.0,-67.0,127.0,127.0,127.0,125.0,87.0,-38.0
127.0,127.0,126.0,128.0,127.0,128.0,106.0,127.0,27.0,-126.0,-67.0,127.0,127.0,127.0,125.0,87.0,-38.0
127.0,127.0,127.0,128.0,126.0,127.0,106.0,128.0,27.0,-126.0,-67.0,127.0,127.0,127.0,125.0,87.0,-38.0
127.0,127.0,127.0,128.0,126.0,127.0,106.0,128.0,27.0,-126.0,-67.0,127.0,127.0,127.0,125.0,87.0,-38.0
127.0,127.0,127.0,128.0,126.0,127.0,107.0,127.0,27.0,-126.0,-67.0,127.0,127.0,127.0,125.0,87.0,-38.0
127.0,127.0,127.0,128.0,126.0,127.0,107.0,127.0,27.0,-126.0,-67.0,127.0,127.0,127.0,125.0,87.0,-38.0
127.0,127.0,127.0,128.0,126.0,127.0,107.0,127.0,27.0,-126.0,-67.0,127.0,127.0,127.0,125.0,87.0,-38.0
127.0,127.0,127.0,128.0,126.0,127.0,112.0,127.0,26.0,-126.0,-67.0,127.0,127.0,127.0,125.0,87.0,-38.0
127.0,127.0,127.0,128.0,126.0,127.0,112.0,127.0,26.0,-126.0,-67.0,127.0,127.0,127.0,125.0,87.0,-38.0
127.0,126.0,128.0,128.0,126.0,127.0,112.0,127.0,26.0,-126.0,-67.0,127.0,127.0,127.0,125.0,87.0,-38.0
127.0,126.0,128.0,128.0,126.0,127.0,112.0,127.0,26.0,-126.0,-67.0,127.0,127.0,127.0,125.0,87.0,-38.0
127.0,126.0,128.0,128.0,126.0,127.0,112.0,127.0,26.0,-126.0,-67.0,127.0,127.0,127.0,125.0,87.0,-38.0
127.0,126.0,128.0,128.0,126.0,127.0,112.0,127.0,26.0,-126.0,-67.0,127.0,127.0,127.0,125.0,87.0,-38.0
127.0,126.0,128.0,128.0,126.0,127.0,112.0,127.0,26.0,-126.0,-67.0,127.0,127.0,127.0,125.0,87.0,-38.0
127.0,126.0,128.0,128.0,126.0,127.0,113.0,127.0,26.0,-126.0,-67.0,127.0,127.0,127.0,125.0,87.0,-38.0
127.0,126.0,128.0,128.0,126.0,127.0,112.0,127.0,26.0,-126.0,-67.0,127.0,127.0,127.0,125.0,87.0,-38.0
127.0,126.0,127.0,128.0,126.0,127.0,113.0,127.0,26.0,-126.0,-67.0,127.0,127.0,127.0,125.0,87.0,-38.0
126.0,127.0,127.0,128.0,127.0,127.0,106.0,127.0,26.0,-126.0,-67.0,127.0,127.0,127.0,125.0,87.0,-38.0
126.0,127.0,126.0,128.0,127.0,127.0,106.0,127.0,26.0,-126.0,-67.0,127.0,127.0,127.0,125.0,87.0,-38.0
126.0,127.0,126.0,128.0,127.0,128.0,106.0,128.0,26.0,-126.0,-67.0,127.0,127.0,127.0,125.0,87.0,-38.0
126.0,127.0,126.0,128.0,127.0,127.0,106.0,128.0,26.0,-126.0,-67.0,127.0,127.0,127.0,125.0,87.0,-38.0
127.0,127.0,127.0,128.0,127.0,127.0,107.0,127.0,26.0,-126.0,-67.0,127.0,127.0,127.0,125.0,87.0,-38.0
127.0,126.0,127.0,128.0,127.0,127.0,107.0,127.0,26.0,-126.0,-67.0,127.0,127.0,127.0,125.0,87.0,-38.0
127.0,127.0,127.0,128.0,127.0,127.0,106.0,127.0,26.0,-126.0,-67.0,127.0,127.0,127.0,125.0,87.0,-38.0
126.0,127.0,127.0,128.0,127.0,127.0,107.0,127.0,26.0,-126.0,-67.0,127.0,127.0,127.0,125.0,87.0,-38.0
126.0,127.0,127.0,128.0,127.0,128.0,107.0,127.0,26.0,-126.0,-67.0,127.0,127.0,127.0,125.0,87.0,-38.0
126.0,127.0,127.0,128.0,127.0,128.0,106.0,128.0,26.0,-126.0,-67.0,127.0,127.0,127.0,125.0,87.0,-38.0
127.0,127.0,127.0,128.0,126.0,127.0,112.0,127.0,26.0,-126.0,-67.0,127.0,127.0,127.0,125.0,87.0,-38.0
127.0,127.0,127.0,128.0,127.0,127.0,107.0,127.0,26.0,-126.0,-67.0,127.0,127.0,127.0,125.0,87.0,-38.0
127.0,127.0,127.0,128.0,127.0,127.0,107.0,127.0,26.0,-126.0,-67.0,127.0,127.0,127.0,125.0,87.0,-38.0
127.0,127.0,127.0,128.0,127.0,127.0,107.0,127.0,26.0,-126.0,-67.0,127.0,127.0,127.0,125.0,87.0,-38.0
127.0,127.0,127.0,128.0,127.0,127.0,107.0,127.0,26.0,-126.0,-67.0,127.0,127.0,127.0,125.0,87.0,-38.0
127.0,127.0,127.0,128.0,127.0,127.0,107.0,127.0,26.0,-126.0,-67.0,127.0,127.0,127.0,125.0,87.0,-38.0
127.0,127.0,127.0,128.0,127.0,127.0,106.0,127.0,26.0,-126.0,-67.0,127.0,127.0,127.0,125.0,87.0,-38.0
127.0,127.0,127.0,128.0,127.0,127.0,106.0,127.0,26.0,-126.0,-67.0,127.0,127.0,127.0,125.0,87.0,-38.0
127.0,127.0,127.0,128.0,127.0,127.0,106.0,127.0,26.0,-126.0,-67.0,127.0,127.0,127.0,125.0,87.0,-38.0
127.0,127.0,127.0,128.0,127.0,127.0,106.0,127.0,26.0,-126.0,-67.0,127.0,127.0,127.0,125.0,87.0,-38.0
127.0,127.0,127.0,128.0,127.0,128.0,107.0,128.0,26.0,-126.0,-67.0,127.0,127.0,127.0,125.0,87.0,-38.0
127.0,127.0,127.0,128.0,127.0,128.0,107.0,128.0,26.0,-126.0,-67.0,127.0,127.0,127.0,125.0,87.0,-38.0
127.0,127.0,127.0,128.0,127.0,128.0,107.0,128.0,26.0,-126.0,-67.0,127.0,127.0,127.0,125.0,87.0,-38.0
127.0,127.0,127.0,128.0,127.0,128.0,107.0,128.0,26.0,-126.0,-67.0,127.0,127.0,127.0,125.0,87.0,-38.0
127.0,127.0,127.0,128.0,127.0,128.0,107.0,128.0,26.0,-126.0,-67.0,127.0,127.0,127.0,125.0,87.0,-38.0
127.0,127.0,127.0,128.0,127.0,128.0,107.0,128.0,26.0,-126.0,-67.0,127.0,127.0,127.0,125.0,87.0,-38.0
127.0,127.0,127.0,128.0,127.0,128.0,107.0,128.0,26.0,-126.0,-67.0,127.0,127.0,127.0,125.0,87.0,-38.0
127.0,127.0,127.0,128.0,127.0,127.0,106.0,128.0,26.0,-126.0,-67.0,127.0,127.0,127.0,125.0,87.0,-38.0
127.0,127.0,127.0,128.0,127.0,127.0,106.0,128.0,26.0,-126.0,-67.0,127.0,127.0,127.0,125.0,87.0,-38.0
127.0,127.0,127.0,128.0,127.0,127.0,107.0,128.0,26.0,-126.0,-67.0,127.0,127.0,127.0,125.0,87.0,-38.0
126.0,127.0,126.0,128.0,126.0,127.0,106.0,128.0,26.0,-126.0,-67.0,127.0,127.0,127.0,125.0,87.0,-38.0
126.0,127.0,126.0,128.0,127.0,127.0,106.0,128.0,26.0,-126.0,-67.0,127.0,127.0,127.0,125.0,87.0,-38.0
126.0,127.0,126.0,128.0,127.0,128.0,106.0,128.0,26.0,-126.0,-67.0,127.0,127.0,127.0,125.0,87.0,-38.0
126.0,127.0,126.0,128.0,127.0,128.0,107.0,128.0,26.0,-126.0,-67.0,127.0,127.0,127.0,125.0,87.0,-38.0
126.0,127.0,126.0,128.0,127.0,127.0,106.0,128.0,26.0,-126.0,-67.0,127.0,127.0,127.0,125.0,87.0,-38.0
126.0,127.0,126.0,128.0,127.0,127.0,106.0,128.0,26.0,-126.0,-67.0,127.0,127.0,127.0,125.0,87.0,-38.0
126.0,127.0,126.0,128.0,127.0,127.0,106.0,127.0,26.0,-126.0,-67.0,127.0,127.0,127.0,125.0,87.0,-38.0
126.0,127.0,126.0,128.0,127.0,127.0,106.0,128.0,26.0,-126.0,-67.0,127.0,127.0,127.0,125.0,87.0,-38.0
126.0,127.0,127.0,127.0,126.0,127.0,107.0,128.0,26.0,-126.0,-67.0,127.0,127.0,127.0,125.0,87.0,-38.0
126.0,127.0,126.0,128.0,126.0,127.0,106.0,128.0,26.0,-126.0,-67.0,127.0,127.0,127.0,125.0,87.0,-38.0
126.0,127.0,127.0,128.0,127.0,127.0,106.0,127.0,26.0,-126.0,-67.0,127.0,127.0,127.0,125.0,87.0,-38.0
126.0,127.0,127.0,128.0,127.0,127.0,107.0,127.0,26.0,-126.0,-67.0,127.0,127.0,127.0,125.0,87.0,-38.0
126.0,127.0,127.0,128.0,127.0,127.0,106.0,128.0,26.0,-126.0,-67.0,127.0,127.0,127.0,125.0,87.0,-38.0
126.0,127.0,127.0,128.0,127.0,127.0,107.0,127.0,26.0,-126.0,-67.0,127.0,127.0,127.0,125.0,87.0,-38.0
126.0,127.0,127.0,127.0,127.0,127.0,106.0,127.0,26.0,-126.0,-67.0,127.0,127.0,127.0,125.0,87.0,-38.0
126.0,127.0,127.0,128.0,127.0,128.0,106.0,128.0,26.0,-126.0,-67.0,127.0,127.0,127.0,125.0,87.0,-38.0
126.0,127.0,127.0,128.0,127.0,128.0,107.0,128.0,26.0,-126.0,-67.0,127.0,127.0,127.0,125.0,87.0,-38.0
126.0,127.0,127.0,128.0,127.0,128.0,107.0,128.0,26.0,-126.0,-67.0,127.0,127.0,127.0,125.0,87.0,-38.0
126.0,127.0,127.0,128.0,127.0,127.0,110.0,127.0,26.0,-126.0,-67.0,127.0,127.0,127.0,125.0,87.0,-38.0
126.0,127.0,127.0,128.0,127.0,127.0,107.0,127.0,26.0,-126.0,-67.0,127.0,127.0,127.0,125.0,87.0,-38.0
126.0,127.0,127.0,127.0,126.0,127.0,107.0,127.0,26.0,-126.0,-67.0,127.0,127.0,127.0,125.0,87.0,-38.0
126.0,127.0,127.0,127.0,126.0,127.0,107.0,127.0,26.0,-126.0,-67.0,127.0,127.0,127.0,125.0,87.0,-38.0
126.0,126.0,127.0,127.0,126.0,127.0,106.0,127.0,26.0,-126.0,-67.0,127.0,127.0,127.0,125.0,87.0,-38.0
126.0,127.0,127.0,127.0,126.0,127.0,106.0,127.0,26.0,-126.0,-67.0,127.0,127.0,127.0,125.0,87.0,-38.0
126.0,127.0,127.0,127.0,126.0,128.0,107.0,127.0,26.0,-126.0,-67.0,127.0,127.0,127.0,125.0,87.0,-38.0
126.0,127.0,127.0,127.0,126.0,128.0,107.0,127.0,26.0,-126.0,-67.0,127.0,127.0,127.0,125.0,87.0,-38.0
127.0,126.0,127.0,127.0,127.0,127.0,106.0,127.0,26.0,-126.0,-67.0,127.0,127.0,127.0,125.0,87.0,-38.0
126.0,127.0,127.0,127.0,126.0,127.0,106.0,127.0,26.0,-126.0,-67.0,127.0,127.0,127.0,125.0,87.0,-38.0
126.0,127.0,127.0,127.0,126.0,127.0,106.0,127.0,26.0,-126.0,-67.0,127.0,127.0,127.0,125.0,87.0,-38.0
126.0,127.0,127.0,127.0,126.0,127.0,106.0,127.0,26.0,-126.0,-67.0,127.0,127.0,127.0,125.0,87.0,-38.0
126.0,127.0,127.0,128.0,127.0,127.0,106.0,127.0,26.0,-126.0,-67.0,127.0,127.0,127.0,125.0,87.0,-38.0
127.0,127.0,127.0,128.0,127.0,127.0,107.0,128.0,26.0,-126.0,-67.0,127.0,127.0,127.0,125.0,87.0,-38.0
126.0,127.0,127.0,128.0,127.0,127.0,107.0,127.0,26.0,-126.0,-67.0,127.0,127.0,127.0,125.0,87.0,-38.0
126.0,127.0,126.0,128.0,127.0,128.0,107.0,128.0,26.0,-126.0,-67.0,127.0,127.0,127.0,125.0,87.0,-38.0
126.0,127.0,126.0,128.0,127.0,128.0,107.0,128.0,26.0,-126.0,-67.0,127.0,127.0,127.0,125.0,87.0,-38.0
126.0,127.0,127.0,127.0,127.0,127.0,108.0,127.0,26.0,-126.0,-67.0,127.0,127.0,127.0,125.0,87.0,-38.0
126.0,127.0,126.0,127.0,127.0,127.0,106.0,127.0,26.0,-126.0,-67.0,127.0,127.0,127.0,125.0,87.0,-38.0
126.0,127.0,126.0,127.0,127.0,128.0,106.0,128.0,26.0,-126.0,-67.0,127.0,127.0,127.0,125.0,87.0,-38.0
126.0,127.0,126.0,127.0,127.0,128.0,106.0,127.0,26.0,-126.0,-67.0,127.0,127.0,127.0,125.0,87.0,-38.0
126.0,127.0,127.0,128.0,127.0,127.0,106.0,128.0,26.0,-126.0,-67.0,127.0,127.0,127.0,125.0,87.0,-38.0
127.0,126.0,127.0,128.0,127.0,127.0,109.0,127.0,26.0,-126.0,-67.0,127.0,127.0,127.0,125.0,87.0,-38.0
127.0,126.0,127.0,128.0,127.0,127.0,109.0,127.0,26.0,-126.0,-67.0,127.0,127.0,127.0,125.0,87.0,-38.0
127.0,126.0,127.0,128.0,127.0,127.0,108.0,128.0,26.0,-126.0,-67.0,127.0,127.0,127.0,125.0,87.0,-38.0
127.0,126.0,127.0,128.0,127.0,127.0,107.0,127.0,26.0,-126.0,-67.0,127.0,127.0,127.0,125.0,87.0,-38.0
127.0,126.0,127.0,128.0,127.0,127.0,110.0,127.0,26.0,-126.0,-67.0,127.0,127.0,127.0,125.0,87.0,-38.0
127.0,126.0,127.0,128.0,127.0,127.0,107.0,127.0,26.0,-126.0,-67.0,127.0,127.0,127.0,125.0,87.0,-38.0
127.0,126.0,127.0,128.0,127.0,127.0,109.0,127.0,26.0,-126.0,-67.0,127.0,127.0,127.0,125.0,87.0,-38.0
127.0,126.0,127.0,128.0,127.0,127.0,108.0,127.0,26.0,-126.0,-67.0,127.0,127.0,127.0,125.0,87.0,-38.0
127.0,126.0,127.0,128.0,127.0,127.0,107.0,127.0,26.0,-126.0,-67.0,127.0,127.0,127.0,125.0,87.0,-38.0
127.0,126.0,127.0,128.0,127.0,127.0,110.0,127.0,26.0,-126.0,-67.0,127.0,127.0,127.0,125.0,87.0,-38.0
126.0,127.0,127.0,128.0,127.0,128.0,107.0,128.0,26.0,-126.0,-67.0,127.0,127.0,127.0,125.0,87.0,-38.0
126.0,127.0,127.0,128.0,127.0,128.0,107.0,128.0,26.0,-126.0,-67.0,127.0,127.0,127.0,125.0,87.0,-38.0
126.0,127.0,127.0,128.0,127.0,128.0,107.0,128.0,26.0,-126.0,-67.0,127.0,127.0,127.0,125.0,87.0,-38.0
126.0,127.0,127.0,128.0,127.0,128.0,108.0,128.0,26.0,-126.0,-67.0,127.0,127.0,127.0,125.0,87.0,-38.0
126.0,127.0,127.0,128.0,127.0,128.0,107.0,128.0,26.0,-126.0,-67.0,127.0,127.0,127.0,125.0,87.0,-38.0
126.0,127.0,127.0,128.0,127.0,128.0,106.0,128.0,26.0,-126.0,-67.0,127.0,127.0,127.0,125.0,87.0,-38.0
126.0,127.0,127.0,128.0,127.0,127.0,106.0,128.0,26.0,-126.0,-67.0,127.0,127.0,127.0,125.0,87.0,-38.0
126.0,127.0,127.0,128.0,126.0,127.0,106.0,128.0,26.0,-126.0,-67.0,127.0,127.0,127.0,125.0,87.0,-38.0
126.0,127.0,127.0,128.0,127.0,128.0,107.0,128.0,26.0,-126.0,-67.0,127.0,127.0,127.0,125.0,87.0,-38.0
126.0,127.0,127.0,128.0,127.0,128.0,107.0,128.0,26.0,-126.0,-67.0,127.0,127.0,127.0,125.0,87.0,-38.0
126.0,127.0,127.0,128.0,127.0,127.0,106.0,127.0,26.0,-126.0,-67.0,127.0,127.0,127.0,125.0,87.0,-38.0
126.0,127.0,127.0,128.0,127.0,127.0,106.0,128.0,26.0,-126.0,-67.0,127.0,127.0,127.0,125.0,87.0,-38.0
127.0,127.0,127.0,128.0,127.0,127.0,113.0,127.0,26.0,-126.0,-67.0,127.0,127.0,127.0,125.0,87.0,-38.0
126.0,127.0,127.0,128.0,127.0,127.0,113.0,127.0,26.0,-126.0,-67.0,127.0,127.0,127.0,125.0,87.0,-38.0
126.0,127.0,127.0,128.0,127.0,127.0,109.0,127.0,26.0,-126.0,-67.0,127.0,127.0,127.0,125.0,87.0,-38.0
126.0,127.0,127.0,128.0,127.0,127.0,107.0,128.0,26.0,-126.0,-67.0,127.0,127.0,127.0,125.0,87.0,-38.0
126.0,127.0,127.0,128.0,127.0,127.0,106.0,128.0,26.0,-126.0,-67.0,127.0,127.0,127.0,125.0,87.0,-38.0
127.0,127.0,127.0,128.0,127.0,127.0,106.0,128.0,26.0,-126.0,-67.0,127.0,127.0,127.0,125.0,87.0,-38.0
127.0,127.0,127.0,128.0,127.0,127.0,106.0,127.0,26.0,-126.0,-67.0,127.0,127.0,127.0,125.0,87.0,-38.0
127.0,127.0,127.0,128.0,127.0,127.0,106.0,127.0,26.0,-126.0,-67.0,127.0,127.0,127.0,125.0,87.0,-38.0
127.0,127.0,126.0,128.0,127.0,127.0,106.0,128.0,26.0,-126.0,-67.0,127.0,127.0,127.0,125.0,87.0,-38.0
127.0,127.0,127.0,128.0,127.0,127.0,106.0,128.0,26.0,-126.0,-67.0,127.0,127.0,127.0,125.0,87.0,-38.0
127.0,126.0,126.0,128.0,127.0,127.0,107.0,127.0,26.0,-126.0,-67.0,127.0,127.0,127.0,125.0,87.0,-38.0
127.0,126.0,126.0,128.0,127.0,127.0,106.0,128.0,26.0,-126.0,-67.0,127.0,127.0,127.0,125.0,87.0,-38.0
127.0,127.0,126.0,128.0,127.0,128.0,107.0,128.0,26.0,-126.0,-67.0,127.0,127.0,127.0,125.0,87.0,-38.0
127.0,126.0,126.0,128.0,127.0,128.0,107.0,128.0,26.0,-126.0,-67.0,127.0,127.0,127.0,125.0,87.0,-38.0
127.0,127.0,126.0,128.0,127.0,128.0,107.0,128.0,26.0,-126.0,-67.0,127.0,127.0,127.0,125.0,87.0,-38.0
127.0,126.0,126.0,128.0,127.0,128.0,107.0,128.0,26.0,-126.0,-67.0,127.0,127.0,127.0,125.0,87.0,-38.0
127.0,126.0,126.0,128.0,127.0,128.0,107.0,128.0,26.0,-126.0,-67.0,127.0,127.0,127.0,125.0,87.0,-38.0
127.0,127.0,126.0,128.0,127.0,128.0,106.0,128.0,26.0,-126.0,-67.0,127.0,127.0,127.0,125.0,87.0,-38.0
126.0,127.0,127.0,128.0,127.0,127.0,107.0,128.0,26.0,-126.0,-67.0,127.0,127.0,127.0,125.0,87.0,-38.0
127.0,127.0,127.0,128.0,127.0,127.0,106.0,128.0,26.0,-126.0,-67.0,127.0,127.0,127.0,125.0,87.0,-38.0
126.0,127.0,127.0,128.0,127.0,127.0,107.0,128.0,26.0,-126.0,-67.0,127.0,127.0,127.0,125.0,87.0,-38.0
126.0,127.0,127.0,128.0,127.0,128.0,107.0,128.0,26.0,-126.0,-67.0,127.0,127.0,127.0,125.0,87.0,-38.0
126.0,127.0,127.0,128.0,127.0,128.0,107.0,128.0,26.0,-126.0,-67.0,127.0,127.0,127.0,125.0,87.0,-38.0
126.0,127.0,127.0,128.0,127.0,128.0,107.0,128.0,26.0,-126.0,-67.0,127.0,127.0,127.0,125.0,87.0,-38.0
126.0,127.0,127.0,128.0,127.0,128.0,106.0,128.0,26.0,-126.0,-67.0,127.0,127.0,127.0,125.0,87.0,-38.0
126.0,127.0,127.0,128.0,127.0,128.0,106.0,128.0,26.0,-126.0,-67.0,127.0,127.0,127.0,125.0,87.0,-38.0
126.0,127.0,127.0,128.0,127.0,128.0,106.0,128.0,26.0,-126.0,-67.0,127.0,127.0,127.0,125.0,87.0,-38.0
126.0,127.0,127.0,128.0,127.0,127.0,107.0,128.0,26.0,-126.0,-67.0,127.0,127.0,127.0,125.0,87.0,-38.0
127.0,126.0,127.0,128.0,126.0,128.0,106.0,128.0,26.0,-126.0,-67.0,127.0,127.0,127.0,125.0,87.0,-38.0
126.0,126.0,127.0,128.0,126.0,127.0,106.0,128.0,26.0,-126.0,-67.0,127.0,127.0,127.0,125.0,87.0,-38.0
126.0,127.0,127.0,128.0,126.0,128.0,107.0,128.0,26.0,-126.0,-67.0,127.0,127.0,127.0,125.0,87.0,-38.0
126.0,127.0,127.0,128.0,126.0,128.0,107.0,128.0,26.0,-126.0,-67.0,127.0,127.0,127.0,125.0,87.0,-38.0
126.0,127.0,127.0,128.0,127.0,128.0,107.0,128.0,26.0,-126.0,-67.0,127.0,127.0,127.0,125.0,87.0,-38.0
126.0,127.0,127.0,128.0,127.0,128.0,107.0,128.0,26.0,-126.0,-67.0,127.0,127.0,127.0,125.0,87.0,-38.0
126.0,127.0,127.0,128.0,127.0,128.0,107.0,128.0,26.0,-126.0,-67.0,127.0,127.0,127.0,125.0,87.0,-38.0
126.0,127.0,127.0,128.0,127.0,128.0,107.0,128.0,26.0,-126.0,-67.0,127.0,127.0,127.0,125.0,87.0,-38.0
127.0,127.0,127.0,128.0,127.0,128.0,107.0,128.0,26.0,-126.0,-67.0,127.0,127.0,127.0,125.0,87.0,-38.0
127.0,126.0,127.0,128.0,126.0,127.0,106.0,128.0,26.0,-126.0,-67.0,127.0,127.0,127.0,125.0,87.0,-38.0
126.0,127.0,127.0,128.0,126.0,127.0,111.0,128.0,26.0,-126.0,-67.0,127.0,127.0,127.0,125.0,87.0,-38.0
126.0,127.0,126.0,128.0,127.0,127.0,108.0,128.0,26.0,-126.0,-67.0,127.0,127.0,127.0,125.0,87.0,-38.0
126.0,127.0,127.0,128.0,126.0,127.0,107.0,128.0,26.0,-126.0,-67.0,127.0,127.0,127.0,125.0,87.0,-38.0
126.0,127.0,127.0,128.0,126.0,127.0,107.0,128.0,26.0,-126.0,-67.0,127.0,127.0,127.0,125.0,87.0,-38.0
126.0,127.0,126.0,128.0,126.0,128.0,107.0,128.0,26.0,-126.0,-67.0,127.0,127.0,127.0,125.0,87.0,-38.0
126.0,127.0,127.0,128.0,127.0,128.0,107.0,128.0,26.0,-126.0,-67.0,127.0,127.0,127.0,125.0,87.0,-38.0
126.0,127.0,127.0,128.0,127.0,127.0,106.0,128.0,26.0,-126.0,-67.0,127.0,127.0,127.0,125.0,87.0,-38.0
126.0,127.0,127.0,128.0,127.0,128.0,107.0,128.0,26.0,-126.0,-67.0,127.0,127.0,127.0,125.0,87.0,-38.0
126.0,127.0,127.0,128.0,127.0,128.0,107.0,128.0,26.0,-126.0,-67.0,127.0,127.0,127.0,125.0,87.0,-38.0
126.0,127.0,127.0,128.0,126.0,127.0,112.0,128.0,26.0,-126.0,-67.0,127.0,127.0,127.0,125.0,87.0,-38.0
126.0,127.0,127.0,128.0,126.0,127.0,111.0,128.0,26.0,-126.0,-67.0,127.0,127.0,127.0,125.0,87.0,-38.0
127.0,127.0,127.0,128.0,127.0,127.0,107.0,128.0,26.0,-126.0,-67.0,127.0,127.0,127.0,125.0,87.0,-38.0
126.0,127.0,127.0,128.0,127.0,127.0,106.0,128.0,26.0,-126.0,-67.0,127.0,127.0,127.0,125.0,87.0,-38.0
127.0,127.0,127.0,129.0,127.0,127.0,106.0,128.0,26.0,-126.0,-67.0,127.0,127.0,127.0,125.0,87.0,-38.0
127.0,127.0,127.0,128.0,127.0,127.0,106.0,128.0,26.0,-126.0,-67.0,127.0,127.0,127.0,125.0,87.0,-38.0
127.0,127.0,127.0,129.0,127.0,127.0,106.0,128.0,26.0,-126.0,-67.0,127.0,127.0,127.0,125.0,87.0,-38.0
127.0,127.0,127.0,129.0,127.0,127.0,108.0,128.0,26.0,-126.0,-67.0,127.0,127.0,127.0,125.0,87.0,-38.0
127.0,126.0,127.0,128.0,126.0,127.0,112.0,127.0,26.0,-126.0,-67.0,127.0,127.0,127.0,125.0,87.0,-38.0
127.0,126.0,127.0,128.0,126.0,127.0,112.0,128.0,26.0,-126.0,-67.0,127.0,127.0,127.0,125.0,87.0,-38.0
127.0,126.0,127.0,128.0,126.0,127.0,113.0,128.0,26.0,-126.0,-67.0,127.0,127.0,127.0,125.0,87.0,-38.0
127.0,127.0,126.0,128.0,127.0,127.0,107.0,128.0,26.0,-126.0,-67.0,127.0,127.0,127.0,126.0,87.0,-38.0
127.0,127.0,127.0,128.0,127.0,127.0,106.0,128.0,26.0,-126.0,-67.0,127.0,127.0,127.0,126.0,87.0,-38.0
127.0,127.0,126.0,128.0,127.0,127.0,107.0,128.0,26.0,-126.0,-67.0,127.0,127.0,127.0,126.0,87.0,-38.0
127.0,127.0,126.0,128.0,127.0,127.0,107.0,128.0,26.0,-126.0,-67.0,127.0,127.0,127.0,126.0,87.0,-38.0
127.0,127.0,126.0,128.0,127.0,128.0,106.0,128.0,26.0,-126.0,-67.0,127.0,127.0,127.0,126.0,87.0,-38.0
126.0,127.0,126.0,128.0,127.0,127.0,106.0,128.0,26.0,-126.0,-67.0,127.0,127.0,127.0,126.0,87.0,-38.0
127.0,127.0,127.0,128.0,127.0,127.0,108.0,128.0,26.0,-126.0,-67.0,127.0,127.0,127.0,126.0,87.0,-38.0
127.0,127.0,127.0,128.0,127.0,127.0,111.0,128.0,26.0,-126.0,-67.0,127.0,127.0,127.0,126.0,87.0,-38.0
127.0,127.0,127.0,128.0,127.0,127.0,112.0,128.0,26.0,-126.0,-67.0,127.0,127.0,127.0,126.0,87.0,-38.0
127.0,127.0,126.0,128.0,127.0,127.0,110.0,128.0,26.0,-126.0,-67.0,127.0,127.0,127.0,126.0,87.0,-38.0
127.0,127.0,127.0,128.0,127.0,127.0,106.0,128.0,26.0,-126.0,-67.0,127.0,127.0,127.0,126.0,87.0,-38.0
127.0,127.0,127.0,128.0,127.0,127.0,106.0,128.0,26.0,-126.0,-67.0,127.0,127.0,127.0,126.0,87.0,-38.0
127.0,127.0,127.0,128.0,127.0,127.0,107.0,128.0,26.0,-126.0,-67.0,127.0,127.0,127.0,126.0,87.0,-38.0
127.0,127.0,127.0,128.0,127.0,127.0,107.0,128.0,26.0,-126.0,-67.0,127.0,127.0,127.0,126.0,87.0,-38.0
127.0,127.0,127.0,128.0,127.0,127.0,107.0,128.0,26.0,-126.0,-67.0,127.0,127.0,127.0,126.0,87.0,-38.0
127.0,127.0,127.0,128.0,127.0,127.0,106.0,128.0,26.0,-126.0,-67.0,127.0,127.0,127.0,126.0,87.0,-38.0
127.0,126.0,127.0,128.0,127.0,127.0,107.0,128.0,26.0,-126.0,-67.0,127.0,127.0,127.0,126.0,87.0,-38.0
127.0,127.0,127.0,128.0,127.0,127.0,106.0,128.0,26.0,-126.0,-67.0,127.0,127.0,127.0,126.0,87.0,-38.0
127.0,127.0,127.0,128.0,127.0,127.0,106.0,128.0,26.0,-126.0,-67.0,127.0,127.0,127.0,126.0,87.0,-38.0
127.0,127.0,127.0,128.0,127.0,127.0,106.0,128.0,26.0,-126.0,-67.0,127.0,127.0,127.0,126.0,87.0,-38.0
126.0,127.0,127.0,128.0,127.0,128.0,107.0,128.0,26.0,-126.0,-67.0,127.0,127.0,127.0,126.0,87.0,-38.0
126.0,127.0,127.0,128.0,127.0,128.0,107.0,128.0,26.0,-126.0,-67.0,127.0,127.0,127.0,126.0,87.0,-38.0
126.0,127.0,127.0,128.0,127.0,128.0,107.0,128.0,26.0,-126.0,-67.0,127.0,127.0,127.0,126.0,87.0,-38.0
126.0,127.0,127.0,128.0,127.0,128.0,107.0,128.0,26.0,-126.0,-67.0,127.0,127.0,127.0,126.0,87.0,-38.0
126.0,126.0,127.0,128.0,126.0,127.0,107.0,128.0,26.0,-126.0,-67.0,127.0,127.0,127.0,126.0,87.0,-38.0
127.0,127.0,127.0,128.0,126.0,127.0,108.0,128.0,26.0,-126.0,-67.0,127.0,127.0,127.0,126.0,87.0,-38.0
127.0,127.0,127.0,128.0,127.0,127.0,106.0,128.0,26.0,-126.0,-67.0,127.0,127.0,127.0,126.0,87.0,-38.0
126.0,127.0,127.0,128.0,127.0,127.0,107.0,128.0,26.0,-126.0,-67.0,127.0,127.0,127.0,126.0,87.0,-38.0
126.0,127.0,127.0,128.0,127.0,128.0,106.0,128.0,26.0,-126.0,-67.0,127.0,127.0,127.0,126.0,87.0,-38.0
126.0,127.0,127.0,128.0,127.0,128.0,106.0,128.0,26.0,-126.0,-67.0,127.0,127.0,127.0,126.0,87.0,-38.0
126.0,127.0,127.0,128.0,127.0,128.0,107.0,128.0,26.0,-126.0,-67.0,127.0,127.0,127.0,126.0,87.0,-38.0
126.0,127.0,126.0,128.0,127.0,128.0,107.0,128.0,26.0,-126.0,-67.0,127.0,127.0,127.0,126.0,87.0,-38.0
126.0,127.0,126.0,128.0,127.0,128.0,107.0,128.0,26.0,-126.0,-67.0,127.0,127.0,127.0,126.0,87.0,-38.0
127.0,127.0,127.0,128.0,127.0,127.0,107.0,128.0,26.0,-126.0,-67.0,127.0,127.0,127.0,126.0,87.0,-38.0
127.0,127.0,127.0,129.0,126.0,127.0,111.0,128.0,26.0,-126.0,-67.0,127.0,127.0,127.0,126.0,87.0,-38.0
127.0,127.0,127.0,128.0,126.0,127.0,111.0,128.0,26.0,-126.0,-67.0,127.0,127.0,127.0,126.0,87.0,-38.0
127.0,127.0,127.0,128.0,126.0,127.0,111.0,128.0,26.0,-126.0,-67.0,127.0,127.0,127.0,126.0,87.0,-38.0
126.0,127.0,127.0,128.0,126.0,127.0,108.0,128.0,26.0,-126.0,-67.0,127.0,127.0,127.0,126.0,87.0,-38.0
126.0,127.0,127.0,128.0,127.0,127.0,107.0,128.0,26.0,-126.0,-67.0,127.0,127.0,127.0,126.0,87.0,-38.0
126.0,127.0,127.0,128.0,126.0,127.0,107.0,128.0,26.0,-126.0,-67.0,127.0,127.0,127.0,126.0,87.0,-38.0
126.0,126.0,127.0,128.0,127.0,127.0,113.0,127.0,26.0,-126.0,-67.0,127.0,127.0,127.0,126.0,87.0,-38.0
126.0,126.0,127.0,128.0,127.0,127.0,114.0,127.0,26.0,-126.0,-67.0,127.0,127.0,127.0,126.0,87.0,-38.0
126.0,126.0,127.0,128.0,127.0,127.0,113.0,127.0,26.0,-126.0,-67.0,127.0,127.0,127.0,126.0,87.0,-38.0
126.0,127.0,127.0,128.0,126.0,127.0,106.0,127.0,26.0,-126.0,-67.0,127.0,127.0,127.0,126.0,87.0,-38.0
126.0,127.0,127.0,128.0,127.0,127.0,106.0,127.0,26.0,-126.0,-67.0,127.0,127.0,127.0,126.0,87.0,-38.0
126.0,127.0,127.0,128.0,127.0,127.0,106.0,128.0,26.0,-126.0,-67.0,127.0,127.0,127.0,126.0,87.0,-38.0
126.0,127.0,127.0,128.0,127.0,127.0,106.0,127.0,26.0,-126.0,-67.0,127.0,127.0,127.0,126.0,87.0,-38.0
126.0,127.0,127.0,128.0,127.0,127.0,105.0,127.0,26.0,-126.0,-67.0,127.0,127.0,127.0,126.0,87.0,-38.0
126.0,127.0,127.0,128.0,127.0,127.0,107.0,127.0,26.0,-126.0,-67.0,127.0,127.0,127.0,126.0,87.0,-38.0
126.0,126.0,127.0,128.0,127.0,127.0,111.0,127.0,26.0,-126.0,-67.0,127.0,127.0,127.0,126.0,87.0,-38.0
126.0,127.0,127.0,128.0,126.0,128.0,107.0,128.0,26.0,-126.0,-67.0,127.0,127.0,127.0,126.0,87.0,-38.0
127.0,127.0,127.0,128.0,126.0,128.0,107.0,128.0,26.0,-126.0,-67.0,127.0,127.0,127.0,126.0,87.0,-38.0
126.0,126.0,127.0,128.0,127.0,128.0,107.0,128.0,26.0,-126.0,-67.0,127.0,127.0,127.0,126.0,87.0,-38.0
126.0,127.0,127.0,128.0,127.0,128.0,107.0,128.0,26.0,-126.0,-67.0,127.0,127.0,127.0,126.0,87.0,-38.0
126.0,127.0,127.0,128.0,127.0,128.0,107.0,128.0,26.0,-126.0,-67.0,127.0,127.0,127.0,126.0,87.0,-38.0
126.0,127.0,127.0,128.0,127.0,128.0,107.0,128.0,26.0,-126.0,-67.0,127.0,127.0,127.0,126.0,87.0,-38.0
126.0,127.0,127.0,128.0,127.0,128.0,107.0,128.0,26.0,-126.0,-67.0,127.0,127.0,127.0,126.0,87.0,-38.0
127.0,127.0,128.0,128.0,126.0,128.0,107.0,128.0,26.0,-126.0,-67.0,127.0,127.0,127.0,126.0,87.0,-38.0
126.0,127.0,127.0,128.0,126.0,128.0,107.0,128.0,26.0,-126.0,-67.0,127.0,127.0,127.0,126.0,87.0,-38.0
126.0,127.0,127.0,128.0,126.0,128.0,107.0,128.0,26.0,-126.0,-67.0,127.0,127.0,127.0,126.0,87.0,-38.0
127.0,127.0,127.0,128.0,127.0,127.0,106.0,128.0,26.0,-126.0,-67.0,127.0,127.0,127.0,126.0,87.0,-38.0
126.0,127.0,127.0,128.0,127.0,127.0,106.0,128.0,26.0,-126.0,-67.0,127.0,127.0,127.0,126.0,87.0,-38.0
126.0,127.0,127.0,128.0,127.0,127.0,106.0,128.0,26.0,-126.0,-67.0,127.0,127.0,127.0,126.0,87.0,-38.0
126.0,127.0,127.0,128.0,127.0,127.0,107.0,128.0,26.0,-126.0,-67.0,127.0,127.0,127.0,126.0,87.0,-38.0
126.0,127.0,127.0,128.0,127.0,127.0,106.0,128.0,26.0,-126.0,-67.0,127.0,127.0,127.0,126.0,87.0,-38.0
126.0,127.0,127.0,128.0,127.0,127.0,106.0,128.0,26.0,-126.0,-67.0,127.0,127.0,127.0,126.0,87.0,-38.0
126.0,127.0,127.0,128.0,127.0,127.0,106.0,128.0,26.0,-126.0,-67.0,127.0,127.0,127.0,126.0,87.0,-38.0
126.0,127.0,127.0,128.0,127.0,127.0,106.0,128.0,26.0,-126.0,-67.0,127.0,127.0,127.0,126.0,87.0,-38.0
126.0,127.0,127.0,128.0,127.0,127.0,107.0,128.0,26.0,-126.0,-67.0,127.0,127.0,127.0,126.0,87.0,-38.0
127.0,127.0,127.0,128.0,127.0,127.0,107.0,128.0,26.0,-126.0,-67.0,127.0,127.0,127.0,126.0,87.0,-38.0
126.0,127.0,126.0,128.0,127.0,128.0,106.0,128.0,26.0,-126.0,-67.0,127.0,127.0,127.0,126.0,87.0,-38.0
126.0,127.0,126.0,128.0,127.0,128.0,107.0,128.0,26.0,-126.0,-67.0,127.0,127.0,127.0,126.0,87.0,-38.0
126.0,127.0,126.0,128.0,127.0,128.0,107.0,128.0,26.0,-126.0,-67.0,127.0,127.0,127.0,126.0,87.0,-38.0
126.0,127.0,126.0,128.0,127.0,128.0,107.0,128.0,26.0,-126.0,-67.0,127.0,127.0,127.0,126.0,87.0,-38.0
126.0,127.0,126.0,128.0,127.0,128.0,107.0,128.0,26.0,-126.0,-67.0,127.0,127.0,127.0,126.0,87.0,-38.0
126.0,127.0,126.0,128.0,127.0,128.0,107.0,128.0,26.0,-126.0,-67.0,127.0,127.0,127.0,126.0,87.0,-38.0
126.0,127.0,127.0,128.0,127.0,128.0,107.0,128.0,26.0,-126.0,-67.0,127.0,127.0,127.0,126.0,87.0,-38.0
126.0,127.0,126.0,128.0,127.0,128.0,108.0,128.0,26.0,-126.0,-67.0,127.0,127.0,127.0,126.0,87.0,-38.0
126.0,127.0,127.0,128.0,127.0,128.0,107.0,128.0,26.0,-126.0,-67.0,127.0,127.0,127.0,126.0,87.0,-38.0
126.0,127.0,127.0,128.0,127.0,128.0,107.0,128.0,26.0,-126.0,-67.0,127.0,127.0,127.0,126.0,87.0,-38.0
127.0,126.0,127.0,128.0,127.0,127.0,112.0,127.0,26.0,-125.0,-67.0,127.0,127.0,127.0,126.0,87.0,-38.0
127.0,126.0,127.0,128.0,127.0,127.0,112.0,128.0,26.0,-125.0,-67.0,127.0,127.0,127.0,126.0,87.0,-38.0
127.0,126.0,127.0,128.0,127.0,127.0,112.0,128.0,26.0,-125.0,-67.0,127.0,127.0,127.0,126.0,87.0,-38.0
127.0,126.0,127.0,128.0,127.0,127.0,112.0,128.0,26.0,-125.0,-67.0,127.0,127.0,127.0,126.0,87.0,-38.0
127.0,126.0,127.0,128.0,127.0,127.0,113.0,128.0,26.0,-125.0,-67.0,127.0,127.0,127.0,126.0,87.0,-38.0
126.0,126.0,127.0,128.0,127.0,127.0,113.0,128.0,26.0,-125.0,-67.0,127.0,127.0,127.0,126.0,87.0,-38.0
126.0,126.0,126.0,128.0,127.0,127.0,110.0,128.0,26.0,-125.0,-67.0,127.0,127.0,127.0,126.0,87.0,-38.0
126.0,126.0,126.0,128.0,127.0,127.0,107.0,128.0,26.0,-125.0,-67.0,127.0,127.0,127.0,126.0,87.0,-38.0
126.0,126.0,126.0,128.0,127.0,127.0,107.0,128.0,26.0,-125.0,-67.0,127.0,127.0,127.0,126.0,87.0,-38.0
127.0,126.0,127.0,128.0,127.0,127.0,112.0,128.0,26.0,-125.0,-67.0,127.0,127.0,127.0,126.0,87.0,-38.0
126.0,127.0,128.0,128.0,126.0,127.0,107.0,128.0,26.0,-125.0,-67.0,127.0,127.0,127.0,126.0,87.0,-38.0
126.0,127.0,128.0,128.0,127.0,127.0,106.0,128.0,26.0,-125.0,-67.0,127.0,127.0,127.0,126.0,87.0,-38.0
126.0,127.0,128.0,128.0,127.0,127.0,108.0,128.0,26.0,-125.0,-67.0,127.0,127.0,127.0,126.0,87.0,-38.0
127.0,127.0,128.0,128.0,127.0,127.0,112.0,128.0,26.0,-125.0,-67.0,127.0,127.0,127.0,126.0,87.0,-38.0
127.0,127.0,128.0,128.0,127.0,127.0,111.0,128.0,26.0,-125.0,-67.0,127.0,127.0,127.0,126.0,87.0,-38.0
127.0,127.0,128.0,128.0,127.0,127.0,113.0,128.0,26.0,-125.0,-67.0,127.0,127.0,127.0,126.0,87.0,-38.0
126.0,127.0,127.0,128.0,127.0,127.0,113.0,128.0,26.0,-125.0,-67.0,127.0,127.0,127.0,126.0,87.0,-38.0
126.0,127.0,127.0,128.0,126.0,127.0,107.0,128.0,26.0,-125.0,-67.0,127.0,127.0,127.0,126.0,87.0,-38.0
126.0,127.0,128.0,128.0,126.0,127.0,107.0,128.0,26.0,-125.0,-67.0,127.0,127.0,127.0,126.0,87.0,-38.0
126.0,127.0,128.0,128.0,126.0,127.0,107.0,128.0,26.0,-125.0,-67.0,127.0,127.0,127.0,126.0,87.0,-38.0
126.0,127.0,127.0,128.0,127.0,128.0,107.0,128.0,26.0,-126.0,-67.0,127.0,127.0,127.0,126.0,87.0,-38.0
127.0,127.0,127.0,128.0,127.0,128.0,107.0,128.0,26.0,-126.0,-67.0,127.0,127.0,127.0,126.0,87.0,-38.0
127.0,127.0,127.0,128.0,127.0,128.0,107.0,128.0,26.0,-126.0,-67.0,127.0,127.0,127.0,126.0,87.0,-38.0
127.0,127.0,127.0,128.0,127.0,128.0,107.0,128.0,26.0,-126.0,-67.0,127.0,127.0,127.0,126.0,87.0,-38.0
127.0,127.0,127.0,128.0,127.0,127.0,107.0,128.0,26.0,-126.0,-67.0,127.0,127.0,127.0,126.0,87.0,-38.0
127.0,127.0,127.0,128.0,127.0,127.0,107.0,128.0,26.0,-126.0,-67.0,127.0,127.0,127.0,126.0,87.0,-38.0
127.0,127.0,127.0,128.0,127.0,127.0,107.0,128.0,26.0,-126.0,-67.0,127.0,127.0,127.0,126.0,87.0,-38.0
127.0,127.0,127.0,128.0,127.0,128.0,107.0,128.0,26.0,-126.0,-67.0,127.0,127.0,127.0,126.0,87.0,-38.0
127.0,127.0,127.0,128.0,127.0,128.0,106.0,128.0,26.0,-126.0,-67.0,127.0,127.0,127.0,126.0,87.0,-38.0
127.0,127.0,127.0,128.0,127.0,128.0,107.0,128.0,26.0,-126.0,-67.0,127.0,127.0,127.0,126.0,87.0,-38.0
126.0,127.0,127.0,127.0,126.0,127.0,106.0,128.0,26.0,-126.0,-67.0,127.0,127.0,127.0,126.0,87.0,-38.0
126.0,127.0,127.0,127.0,126.0,127.0,110.0,128.0,26.0,-126.0,-67.0,127.0,127.0,127.0,126.0,87.0,-38.0
126.0,127.0,127.0,127.0,126.0,127.0,110.0,128.0,26.0,-126.0,-67.0,127.0,127.0,127.0,126.0,87.0,-38.0
126.0,127.0,127.0,127.0,126.0,127.0,110.0,128.0,26.0,-126.0,-67.0,127.0,127.0,127.0,126.0,87.0,-38.0
126.0,127.0,127.0,128.0,126.0,127.0,107.0,128.0,26.0,-126.0,-67.0,127.0,127.0,127.0,126.0,87.0,-38.0
126.0,127.0,127.0,128.0,126.0,127.0,107.0,128.0,26.0,-126.0,-67.0,127.0,127.0,127.0,126.0,87.0,-38.0
126.0,126.0,127.0,127.0,126.0,127.0,112.0,128.0,26.0,-126.0,-67.0,127.0,127.0,127.0,126.0,87.0,-38.0
126.0,127.0,127.0,127.0,126.0,127.0,112.0,128.0,26.0,-126.0,-67.0,127.0,127.0,127.0,126.0,87.0,-38.0
126.0,127.0,127.0,127.0,126.0,127.0,107.0,128.0,26.0,-126.0,-67.0,127.0,127.0,127.0,126.0,87.0,-38.0
126.0,127.0,127.0,127.0,126.0,127.0,106.0,128.0,26.0,-126.0,-67.0,127.0,127.0,127.0,126.0,87.0,-38.0
126.0,127.0,127.0,128.0,126.0,127.0,105.0,128.0,26.0,-126.0,-67.0,127.0,127.0,127.0,126.0,87.0,-38.0
126.0,127.0,127.0,128.0,126.0,127.0,106.0,128.0,26.0,-126.0,-67.0,127.0,127.0,127.0,126.0,87.0,-38.0
126.0,127.0,127.0,128.0,126.0,127.0,109.0,128.0,26.0,-126.0,-67.0,127.0,127.0,127.0,126.0,87.0,-38.0
126.0,126.0,127.0,128.0,126.0,127.0,113.0,128.0,26.0,-126.0,-67.0,127.0,127.0,127.0,126.0,87.0,-38.0
126.0,127.0,127.0,128.0,126.0,127.0,114.0,128.0,26.0,-126.0,-67.0,127.0,127.0,127.0,126.0,87.0,-38.0
126.0,127.0,127.0,128.0,126.0,127.0,106.0,128.0,26.0,-126.0,-67.0,127.0,127.0,127.0,126.0,87.0,-38.0
126.0,127.0,127.0,128.0,126.0,127.0,106.0,128.0,26.0,-126.0,-67.0,127.0,127.0,127.0,126.0,87.0,-38.0
126.0,127.0,127.0,128.0,126.0,127.0,106.0,128.0,26.0,-126.0,-67.0,127.0,127.0,127.0,126.0,87.0,-38.0
126.0,127.0,127.0,128.0,126.0,127.0,106.0,128.0,26.0,-126.0,-67.0,127.0,127.0,127.0,126.0,87.0,-38.0
126.0,127.0,127.0,128.0,126.0,127.0,106.0,128.0,26.0,-126.0,-67.0,127.0,127.0,127.0,126.0,87.0,-38.0
127.0,127.0,127.0,128.0,127.0,127.0,107.0,128.0,26.0,-125.0,-67.0,127.0,127.0,127.0,126.0,87.0,-38.0
127.0,127.0,127.0,128.0,127.0,127.0,106.0,128.0,26.0,-125.0,-67.0,127.0,127.0,127.0,126.0,87.0,-38.0
127.0,127.0,127.0,128.0,127.0,127.0,106.0,128.0,26.0,-125.0,-67.0,127.0,127.0,127.0,126.0,87.0,-38.0
127.0,127.0,127.0,128.0,127.0,127.0,110.0,128.0,26.0,-125.0,-67.0,127.0,127.0,127.0,126.0,87.0,-38.0
126.0,127.0,127.0,128.0,127.0,127.0,107.0,128.0,26.0,-125.0,-67.0,127.0,127.0,127.0,126.0,87.0,-38.0
126.0,127.0,127.0,128.0,127.0,127.0,107.0,128.0,26.0,-125.0,-67.0,127.0,127.0,127.0,126.0,87.0,-38.0
126.0,127.0,127.0,128.0,127.0,127.0,107.0,128.0,26.0,-125.0,-67.0,127.0,127.0,127.0,126.0,87.0,-38.0
126.0,127.0,127.0,128.0,127.0,127.0,107.0,128.0,26.0,-125.0,-67.0,127.0,127.0,127.0,126.0,87.0,-38.0
126.0,127.0,127.0,128.0,127.0,127.0,107.0,128.0,26.0,-125.0,-67.0,127.0,127.0,127.0,126.0,87.0,-38.0
126.0,127.0,127.0,128.0,127.0,127.0,107.0,128.0,26.0,-125.0,-67.0,127.0,127.0,127.0,126.0,87.0,-38.0
127.0,127.0,127.0,128.0,126.0,127.0,106.0,128.0,26.0,-125.0,-67.0,127.0,127.0,127.0,126.0,87.0,-38.0
127.0,127.0,127.0,128.0,126.0,127.0,107.0,128.0,26.0,-125.0,-67.0,127.0,127.0,127.0,126.0,87.0,-38.0
127.0,127.0,127.0,128.0,126.0,127.0,110.0,128.0,26.0,-125.0,-67.0,127.0,127.0,127.0,126.0,87.0,-38.0
127.0,127.0,127.0,128.0,126.0,127.0,107.0,128.0,26.0,-125.0,-67.0,127.0,127.0,127.0,126.0,87.0,-38.0
127.0,127.0,127.0,128.0,127.0,127.0,107.0,128.0,26.0,-125.0,-67.0,127.0,127.0,127.0,126.0,87.0,-38.0
127.0,127.0,127.0,128.0,126.0,127.0,106.0,128.0,26.0,-125.0,-67.0,127.0,127.0,127.0,126.0,87.0,-38.0
127.0,127.0,127.0,128.0,126.0,127.0,106.0,128.0,26.0,-125.0,-67.0,127.0,127.0,127.0,126.0,87.0,-38.0
127.0,127.0,127.0,128.0,126.0,127.0,106.0,128.0,26.0,-125.0,-67.0,127.0,127.0,127.0,126.0,87.0,-38.0
127.0,127.0,127.0,128.0,126.0,127.0,106.0,128.0,26.0,-125.0,-67.0,127.0,127.0,127.0,126.0,87.0,-38.0
127.0,127.0,127.0,128.0,126.0,127.0,106.0,128.0,26.0,-125.0,-67.0,127.0,127.0,127.0,126.0,87.0,-38.0
126.0,126.0,127.0,128.0,127.0,127.0,112.0,128.0,26.0,-125.0,-67.0,127.0,127.0,127.0,126.0,87.0,-38.0
126.0,126.0,127.0,128.0,127.0,127.0,112.0,127.0,26.0,-125.0,-67.0,127.0,127.0,127.0,126.0,87.0,-38.0
126.0,127.0,127.0,128.0,126.0,127.0,112.0,128.0,26.0,-125.0,-67.0,127.0,127.0,127.0,126.0,87.0,-38.0
126.0,126.0,127.0,128.0,127.0,127.0,112.0,127.0,26.0,-125.0,-67.0,127.0,127.0,127.0,126.0,87.0,-38.0
126.0,126.0,127.0,128.0,127.0,127.0,112.0,127.0,26.0,-125.0,-67.0,127.0,127.0,127.0,126.0,87.0,-38.0
126.0,126.0,127.0,128.0,127.0,127.0,112.0,127.0,26.0,-125.0,-67.0,127.0,127.0,127.0,126.0,87.0,-38.0
126.0,126.0,127.0,128.0,127.0,127.0,112.0,127.0,26.0,-125.0,-67.0,127.0,127.0,127.0,126.0,87.0,-38.0
126.0,126.0,127.0,128.0,127.0,127.0,112.0,127.0,26.0,-125.0,-67.0,127.0,127.0,127.0,126.0,87.0,-38.0
126.0,126.0,127.0,127.0,127.0,127.0,112.0,127.0,26.0,-125.0,-67.0,127.0,127.0,127.0,126.0,87.0,-38.0
126.0,126.0,127.0,127.0,127.0,127.0,112.0,128.0,26.0,-125.0,-67.0,127.0,127.0,127.0,126.0,87.0,-38.0
126.0,127.0,127.0,128.0,127.0,128.0,107.0,128.0,26.0,-125.0,-67.0,127.0,127.0,127.0,126.0,87.0,-38.0
126.0,127.0,126.0,128.0,127.0,128.0,107.0,128.0,26.0,-125.0,-67.0,127.0,127.0,127.0,126.0,87.0,-38.0
126.0,127.0,127.0,128.0,127.0,128.0,107.0,128.0,26.0,-125.0,-67.0,127.0,127.0,127.0,126.0,87.0,-38.0
126.0,127.0,127.0,128.0,127.0,128.0,107.0,128.0,26.0,-125.0,-67.0,127.0,127.0,127.0,126.0,87.0,-38.0
126.0,127.0,127.0,128.0,127.0,128.0,107.0,128.0,26.0,-125.0,-67.0,127.0,127.0,127.0,126.0,87.0,-38.0
126.0,127.0,127.0,128.0,127.0,128.0,107.0,128.0,26.0,-125.0,-67.0,127.0,127.0,127.0,126.0,87.0,-38.0
126.0,127.0,127.0,128.0,127.0,128.0,107.0,128.0,26.0,-125.0,-67.0,127.0,127.0,127.0,126.0,87.0,-38.0
126.0,127.0,127.0,128.0,127.0,128.0,107.0,128.0,26.0,-125.0,-67.0,127.0,127.0,127.0,126.0,87.0,-38.0
126.0,127.0,127.0,128.0,127.0,128.0,106.0,128.0,26.0,-125.0,-67.0,127.0,127.0,127.0,126.0,87.0,-38.0
126.0,127.0,127.0,128.0,127.0,127.0,106.0,128.0,26.0,-125.0,-67.0,127.0,127.0,127.0,126.0,87.0,-38.0
126.0,127.0,127.0,128.0,126.0,127.0,107.0,128.0,26.0,-125.0,-67.0,127.0,127.0,127.0,126.0,87.0,-38.0
126.0,127.0,127.0,128.0,126.0,127.0,106.0,128.0,26.0,-125.0,-67.0,127.0,127.0,127.0,126.0,87.0,-38.0
126.0,127.0,127.0,128.0,126.0,127.0,106.0,128.0,26.0,-125.0,-67.0,127.0,127.0,127.0,126.0,87.0,-38.0
126.0,127.0,127.0,128.0,126.0,127.0,106.0,128.0,26.0,-125.0,-67.0,127.0,127.0,127.0,126.0,87.0,-38.0
126.0,127.0,127.0,128.0,126.0,127.0,106.0,128.0,26.0,-125.0,-67.0,127.0,127.0,127.0,126.0,87.0,-38.0
126.0,127.0,127.0,128.0,126.0,127.0,108.0,128.0,26.0,-125.0,-67.0,127.0,127.0,127.0,126.0,87.0,-38.0
126.0,127.0,127.0,128.0,126.0,127.0,112.0,128.0,26.0,-125.0,-67.0,127.0,127.0,127.0,126.0,87.0,-38.0
126.0,127.0,127.0,128.0,126.0,127.0,113.0,128.0,26.0,-125.0,-67.0,127.0,127.0,127.0,126.0,87.0,-38.0
126.0,127.0,127.0,128.0,126.0,127.0,113.0,128.0,26.0,-125.0,-67.0,127.0,127.0,127.0,126.0,87.0,-38.0
126.0,127.0,127.0,128.0,126.0,127.0,112.0,128.0,26.0,-125.0,-67.0,127.0,127.0,127.0,126.0,87.0,-38.0
126.0,127.0,127.0,128.0,127.0,127.0,106.0,128.0,26.0,-126.0,-67.0,127.0,127.0,127.0,126.0,87.0,-38.0
126.0,127.0,127.0,128.0,127.0,127.0,107.0,128.0,26.0,-126.0,-67.0,127.0,127.0,127.0,126.0,87.0,-38.0
126.0,127.0,127.0,128.0,127.0,128.0,107.0,128.0,26.0,-126.0,-67.0,127.0,127.0,127.0,126.0,87.0,-38.0
126.0,127.0,127.0,128.0,127.0,128.0,107.0,128.0,26.0,-126.0,-67.0,127.0,127.0,127.0,126.0,87.0,-38.0
126.0,127.0,126.0,128.0,127.0,128.0,106.0,128.0,26.0,-126.0,-67.0,127.0,127.0,127.0,126.0,87.0,-38.0
126.0,127.0,126.0,128.0,127.0,127.0,106.0,128.0,26.0,-126.0,-67.0,127.0,127.0,127.0,126.0,87.0,-38.0
126.0,127.0,126.0,128.0,127.0,128.0,106.0,128.0,26.0,-126.0,-67.0,127.0,127.0,127.0,126.0,87.0,-38.0
126.0,127.0,126.0,128.0,127.0,127.0,106.0,128.0,26.0,-126.0,-67.0,127.0,127.0,127.0,126.0,87.0,-38.0
126.0,127.0,126.0,128.0,127.0,128.0,107.0,128.0,26.0,-126.0,-67.0,127.0,127.0,127.0,126.0,87.0,-38.0
126.0,127.0,127.0,128.0,127.0,127.0,106.0,128.0,26.0,-126.0,-67.0,127.0,127.0,127.0,126.0,87.0,-38.0
126.0,127.0,127.0,128.0,126.0,127.0,110.0,128.0,26.0,-126.0,-67.0,127.0,127.0,127.0,126.0,87.0,-38.0
127.0,127.0,127.0,128.0,127.0,127.0,113.0,128.0,26.0,-126.0,-67.0,127.0,127.0,127.0,126.0,87.0,-38.0
127.0,127.0,127.0,128.0,127.0,127.0,112.0,128.0,26.0,-126.0,-67.0,127.0,127.0,127.0,126.0,87.0,-38.0
126.0,127.0,127.0,128.0,127.0,127.0,109.0,128.0,26.0,-126.0,-67.0,127.0,127.0,127.0,126.0,87.0,-38.0
126.0,127.0,127.0,128.0,127.0,127.0,107.0,128.0,26.0,-126.0,-67.0,127.0,127.0,127.0,126.0,87.0,-38.0
126.0,127.0,127.0,128.0,127.0,127.0,107.0,128.0,26.0,-126.0,-67.0,127.0,127.0,127.0,126.0,87.0,-38.0
126.0,127.0,127.0,128.0,127.0,127.0,106.0,128.0,26.0,-126.0,-67.0,127.0,127.0,127.0,126.0,87.0,-38.0
126.0,127.0,127.0,128.0,127.0,128.0,107.0,128.0,26.0,-126.0,-67.0,127.0,127.0,127.0,126.0,87.0,-38.0
126.0,127.0,127.0,128.0,126.0,127.0,112.0,128.0,26.0,-126.0,-67.0,127.0,127.0,127.0,126.0,87.0,-38.0
126.0,127.0,127.0,128.0,126.0,127.0,109.0,128.0,26.0,-126.0,-67.0,127.0,127.0,127.0,126.0,87.0,-38.0
127.0,127.0,127.0,128.0,127.0,127.0,106.0,128.0,26.0,-126.0,-67.0,127.0,127.0,127.0,126.0,87.0,-38.0
127.0,127.0,127.0,128.0,127.0,127.0,106.0,128.0,26.0,-126.0,-67.0,127.0,127.0,127.0,126.0,87.0,-38.0
127.0,127.0,127.0,128.0,127.0,127.0,106.0,128.0,26.0,-126.0,-67.0,127.0,127.0,127.0,126.0,87.0,-38.0
127.0,127.0,127.0,128.0,127.0,127.0,106.0,128.0,26.0,-126.0,-67.0,127.0,127.0,127.0,126.0,87.0,-38.0
127.0,127.0,127.0,128.0,127.0,127.0,106.0,128.0,26.0,-126.0,-67.0,127.0,127.0,127.0,126.0,87.0,-38.0
127.0,127.0,127.0,128.0,127.0,127.0,107.0,128.0,26.0,-126.0,-67.0,127.0,127.0,127.0,126.0,87.0,-38.0
127.0,126.0,127.0,128.0,127.0,127.0,112.0,128.0,26.0,-126.0,-67.0,127.0,127.0,127.0,126.0,87.0,-38.0
126.0,127.0,126.0,128.0,127.0,127.0,106.0,128.0,26.0,-126.0,-67.0,127.0,127.0,127.0,126.0,87.0,-38.0
126.0,127.0,126.0,128.0,127.0,128.0,106.0,128.0,26.0,-126.0,-67.0,127.0,127.0,127.0,126.0,87.0,-38.0
127.0,127.0,126.0,128.0,127.0,127.0,106.0,128.0,26.0,-126.0,-67.0,127.0,127.0,127.0,126.0,87.0,-38.0
127.0,127.0,126.0,128.0,127.0,127.0,106.0,128.0,26.0,-126.0,-67.0,127.0,127.0,127.0,126.0,87.0,-38.0
127.0,127.0,127.0,128.0,127.0,127.0,107.0,128.0,26.0,-126.0,-67.0,127.0,127.0,127.0,126.0,87.0,-38.0
127.0,127.0,127.0,128.0,127.0,127.0,107.0,128.0,26.0,-126.0,-67.0,127.0,127.0,127.0,126.0,87.0,-38.0
127.0,127.0,127.0,128.0,127.0,127.0,107.0,128.0,26.0,-126.0,-67.0,127.0,127.0,127.0,126.0,87.0,-38.0
127.0,127.0,127.0,128.0,127.0,127.0,107.0,128.0,26.0,-126.0,-67.0,127.0,127.0,127.0,126.0,87.0,-38.0
127.0,127.0,127.0,128.0,127.0,127.0,106.0,128.0,26.0,-126.0,-67.0,127.0,127.0,127.0,126.0,87.0,-38.0
127.0,127.0,126.0,128.0,127.0,128.0,107.0,128.0,26.0,-126.0,-67.0,127.0,127.0,127.0,126.0,87.0,-38.0
127.0,127.0,126.0,128.0,127.0,128.0,107.0,128.0,26.0,-126.0,-67.0,127.0,127.0,127.0,126.0,87.0,-38.0
127.0,127.0,126.0,128.0,127.0,128.0,107.0,128.0,26.0,-126.0,-67.0,127.0,127.0,127.0,126.0,87.0,-38.0
127.0,127.0,126.0,128.0,127.0,128.0,106.0,128.0,26.0,-126.0,-67.0,127.0,127.0,127.0,126.0,87.0,-38.0
127.0,126.0,127.0,128.0,126.0,127.0,108.0,128.0,26.0,-126.0,-67.0,127.0,127.0,127.0,126.0,87.0,-38.0
127.0,126.0,127.0,128.0,126.0,127.0,110.0,128.0,26.0,-126.0,-67.0,127.0,127.0,127.0,126.0,87.0,-38.0
127.0,127.0,127.0,127.0,126.0,127.0,112.0,128.0,26.0,-126.0,-67.0,127.0,127.0,127.0,126.0,87.0,-38.0
127.0,127.0,127.0,128.0,126.0,127.0,110.0,128.0,26.0,-126.0,-67.0,127.0,127.0,127.0,126.0,87.0,-38.0
127.0,127.0,127.0,127.0,126.0,127.0,109.0,128.0,26.0,-126.0,-67.0,127.0,127.0,127.0,126.0,87.0,-38.0
127.0,127.0,127.0,128.0,127.0,127.0,106.0,128.0,26.0,-126.0,-67.0,127.0,127.0,127.0,126.0,87.0,-38.0
127.0,127.0,127.0,128.0,127.0,127.0,106.0,128.0,26.0,-126.0,-67.0,127.0,127.0,127.0,126.0,87.0,-38.0
127.0,127.0,127.0,128.0,127.0,127.0,106.0,128.0,26.0,-126.0,-67.0,127.0,127.0,127.0,126.0,87.0,-38.0
127.0,127.0,127.0,128.0,127.0,127.0,106.0,128.0,26.0,-126.0,-67.0,127.0,127.0,127.0,126.0,87.0,-38.0
127.0,127.0,127.0,128.0,126.0,127.0,109.0,128.0,26.0,-126.0,-67.0,127.0,127.0,127.0,126.0,87.0,-38.0
126.0,127.0,127.0,127.0,126.0,127.0,107.0,128.0,26.0,-126.0,-67.0,127.0,127.0,127.0,126.0,87.0,-38.0
126.0,126.0,127.0,127.0,126.0,127.0,107.0,128.0,26.0,-126.0,-67.0,127.0,127.0,127.0,126.0,87.0,-38.0
126.0,127.0,127.0,127.0,126.0,127.0,107.0,128.0,26.0,-126.0,-67.0,127.0,127.0,127.0,126.0,87.0,-38.0
126.0,127.0,127.0,127.0,126.0,127.0,107.0,128.0,26.0,-126.0,-67.0,127.0,127.0,127.0,126.0,87.0,-38.0
126.0,127.0,127.0,128.0,127.0,127.0,106.0,128.0,26.0,-126.0,-67.0,127.0,127.0,127.0,126.0,87.0,-38.0
126.0,126.0,127.0,127.0,126.0,127.0,106.0,128.0,26.0,-126.0,-67.0,127.0,127.0,127.0,126.0,87.0,-38.0
126.0,126.0,127.0,127.0,127.0,127.0,106.0,128.0,26.0,-126.0,-67.0,127.0,127.0,127.0,126.0,87.0,-38.0
126.0,126.0,127.0,127.0,126.0,127.0,107.0,128.0,26.0,-126.0,-67.0,127.0,127.0,127.0,126.0,87.0,-38.0
126.0,127.0,127.0,127.0,126.0,127.0,107.0,128.0,26.0,-126.0,-67.0,127.0,127.0,127.0,126.0,87.0,-38.0
126.0,127.0,127.0,127.0,126.0,127.0,106.0,128.0,26.0,-126.0,-67.0,127.0,127.0,127.0,126.0,87.0,-38.0
126.0,127.0,127.0,128.0,127.0,127.0,108.0,128.0,26.0,-126.0,-67.0,127.0,127.0,127.0,126.0,87.0,-38.0
126.0,127.0,127.0,128.0,127.0,127.0,107.0,128.0,26.0,-126.0,-67.0,127.0,127.0,127.0,126.0,87.0,-38.0
