emg1,emg2,emg3,emg4,emg5,emg6,emg7,emg8,acc_x,acc_y,acc_z,gyro_x,gyro_y,gyro_z,angle_pitch,angle_roll,angle_yaw
125.0,126.0,128.0,127.0,127.0,127.0,124.0,128.0,-1.0,113.0,-58.0,127.0,127.0,127.0,-122.0,-90.0,-103.0
125.0,126.0,128.0,127.0,127.0,127.0,125.0,128.0,-1.0,112.0,-59.0,127.0,127.0,127.0,-122.0,-90.0,-103.0
125.0,126.0,128.0,127.0,127.0,127.0,125.0,128.0,-1.0,112.0,-59.0,127.0,127.0,127.0,-122.0,-90.0,-103.0
125.0,126.0,128.0,127.0,127.0,127.0,125.0,128.0,-1.0,112.0,-59.0,127.0,127.0,127.0,-122.0,-90.0,-103.0
125.0,126.0,128.0,127.0,127.0,127.0,125.0,127.0,-1.0,112.0,-59.0,127.0,127.0,127.0,-122.0,-90.0,-103.0
125.0,127.0,127.0,127.0,126.0,127.0,125.0,127.0,-1.0,112.0,-59.0,127.0,127.0,127.0,-122.0,-90.0,-103.0
125.0,126.0,129.0,127.0,127.0,127.0,125.0,128.0,-1.0,112.0,-59.0,127.0,127.0,127.0,-122.0,-90.0,-103.0
125.0,126.0,129.0,127.0,127.0,127.0,124.0,128.0,-1.0,112.0,-59.0,127.0,127.0,127.0,-122.0,-90.0,-103.0
125.0,126.0,129.0,127.0,127.0,127.0,125.0,128.0,-1.0,112.0,-59.0,127.0,127.0,127.0,-122.0,-90.0,-103.0
125.0,126.0,129.0,127.0,127.0,127.0,125.0,128.0,-1.0,112.0,-59.0,127.0,127.0,127.0,-122.0,-90.0,-103.0
125.0,126.0,128.0,127.0,127.0,127.0,125.0,128.0,-1.0,112.0,-59.0,127.0,127.0,127.0,-122.0,-90.0,-103.0
125.0,126.0,128.0,127.0,127.0,127.0,125.0,128.0,-1.0,112.0,-59.0,127.0,127.0,127.0,-122.0,-90.0,-103.0
125.0,126.0,128.0,127.0,127.0,127.0,125.0,128.0,-1.0,112.0,-59.0,127.0,127.0,127.0,-122.0,-90.0,-103.0
125.0,126.0,127.0,127.0,127.0,127.0,125.0,128.0,-1.0,112.0,-59.0,127.0,127.0,127.0,-122.0,-90.0,-103.0
126.0,127.0,127.0,127.0,127.0,127.0,125.0,128.0,-1.0,112.0,-59.0,127.0,127.0,127.0,-122.0,-90.0,-103.0
125.0,126.0,129.0,127.0,127.0,127.0,124.0,128.0,-1.0,112.0,-59.0,127.0,127.0,127.0,-122.0,-90.0,-103.0
125.0,126.0,129.0,127.0,127.0,127.0,124.0,128.0,-1.0,112.0,-59.0,127.0,127.0,127.0,-122.0,-90.0,-103.0
125.0,126.0,129.0,127.0,127.0,127.0,124.0,128.0,-1.0,112.0,-59.0,127.0,127.0,127.0,-122.0,-90.0,-103.0
125.0,126.0,128.0,127.0,127.0,127.0,124.0,128.0,-1.0,112.0,-59.0,127.0,127.0,127.0,-122.0,-90.0,-103.0
125.0,126.0,128.0,127.0,127.0,127.0,124.0,128.0,-1.0,112.0,-59.0,127.0,127.0,127.0,-122.0,-90.0,-103.0
125.0,126.0,128.0,127.0,127.0,127.0,124.0,128.0,-1.0,112.0,-59.0,127.0,127.0,127.0,-122.0,-90.0,-103.0
125.0,126.0,128.0,128.0,127.0,128.0,125.0,129.0,-1.0,111.0,-59.0,127.0,127.0,127.0,-122.0,-90.0,-103.0
125.0,126.0,128.0,128.0,127.0,128.0,125.0,129.0,-1.0,111.0,-59.0,127.0,127.0,127.0,-122.0,-90.0,-103.0
126.0,126.0,128.0,128.0,127.0,128.0,126.0,129.0,-1.0,111.0,-59.0,127.0,127.0,127.0,-122.0,-90.0,-103.0
125.0,126.0,129.0,128.0,127.0,127.0,124.0,129.0,-1.0,111.0,-59.0,127.0,127.0,127.0,-122.0,-90.0,-103.0
125.0,126.0,129.0,128.0,127.0,127.0,124.0,129.0,-1.0,111.0,-59.0,127.0,127.0,127.0,-122.0,-90.0,-103.0
125.0,126.0,129.0,128.0,127.0,127.0,124.0,129.0,-1.0,111.0,-59.0,127.0,127.0,127.0,-122.0,-90.0,-103.0
125.0,126.0,129.0,128.0,127.0,127.0,125.0,129.0,-1.0,111.0,-59.0,127.0,127.0,127.0,-122.0,-90.0,-103.0
125.0,126.0,129.0,128.0,127.0,127.0,125.0,129.0,-1.0,111.0,-59.0,127.0,127.0,127.0,-122.0,-90.0,-103.0
125.0,126.0,128.0,128.0,127.0,128.0,125.0,129.0,-1.0,111.0,-59.0,127.0,127.0,127.0,-122.0,-90.0,-103.0
125.0,126.0,128.0,128.0,127.0,128.0,125.0,129.0,-1.0,111.0,-59.0,127.0,127.0,127.0,-122.0,-90.0,-103.0
126.0,126.0,128.0,127.0,127.0,127.0,126.0,129.0,-1.0,111.0,-59.0,127.0,127.0,127.0,-122.0,-90.0,-103.0
126.0,127.0,128.0,127.0,127.0,127.0,126.0,128.0,-1.0,111.0,-59.0,127.0,127.0,127.0,-122.0,-90.0,-103.0
125.0,126.0,129.0,128.0,127.0,127.0,125.0,129.0,-1.0,111.0,-59.0,127.0,127.0,127.0,-122.0,-90.0,-103.0
125.0,126.0,129.0,127.0,127.0,127.0,125.0,129.0,-1.0,111.0,-59.0,127.0,127.0,127.0,-122.0,-90.0,-103.0
125.0,126.0,129.0,127.0,127.0,127.0,125.0,129.0,-1.0,111.0,-59.0,127.0,127.0,127.0,-122.0,-90.0,-103.0
125.0,126.0,129.0,128.0,127.0,127.0,125.0,129.0,-1.0,111.0,-59.0,127.0,127.0,127.0,-122.0,-90.0,-103.0
125.0,126.0,129.0,128.0,127.0,127.0,125.0,129.0,-1.0,111.0,-59.0,127.0,127.0,127.0,-122.0,-90.0,-103.0
125.0,126.0,129.0,127.0,127.0,127.0,125.0,129.0,-1.0,111.0,-59.0,127.0,127.0,127.0,-122.0,-90.0,-103.0
125.0,126.0,129.0,128.0,127.0,127.0,125.0,129.0,-1.0,111.0,-59.0,127.0,127.0,127.0,-122.0,-90.0,-103.0
126.0,126.0,128.0,127.0,127.0,127.0,126.0,129.0,-1.0,111.0,-59.0,127.0,127.0,127.0,-122.0,-90.0,-103.0
126.0,127.0,127.0,127.0,127.0,127.0,126.0,129.0,-1.0,111.0,-59.0,127.0,127.0,127.0,-122.0,-90.0,-103.0
125.0,126.0,129.0,127.0,127.0,127.0,125.0,130.0,-1.0,111.0,-59.0,127.0,127.0,127.0,-122.0,-90.0,-103.0
125.0,126.0,129.0,127.0,127.0,127.0,125.0,130.0,-1.0,111.0,-59.0,127.0,127.0,127.0,-122.0,-90.0,-103.0
125.0,126.0,128.0,127.0,127.0,127.0,125.0,130.0,-1.0,111.0,-59.0,127.0,127.0,127.0,-122.0,-90.0,-103.0
125.0,126.0,128.0,127.0,127.0,127.0,125.0,129.0,-1.0,111.0,-59.0,127.0,127.0,127.0,-122.0,-90.0,-103.0
125.0,126.0,128.0,127.0,127.0,127.0,125.0,129.0,-1.0,111.0,-59.0,127.0,127.0,127.0,-122.0,-90.0,-103.0
126.0,127.0,128.0,127.0,127.0,127.0,125.0,129.0,-1.0,111.0,-59.0,127.0,127.0,127.0,-122.0,-90.0,-103.0
126.0,127.0,128.0,127.0,127.0,127.0,125.0,129.0,-1.0,111.0,-59.0,127.0,127.0,127.0,-122.0,-90.0,-103.0
126.0,127.0,128.0,127.0,127.0,127.0,126.0,129.0,-1.0,111.0,-59.0,127.0,127.0,127.0,-122.0,-90.0,-103.0
126.0,127.0,128.0,127.0,127.0,127.0,126.0,129.0,-1.0,111.0,-59.0,127.0,127.0,127.0,-122.0,-90.0,-103.0
125.0,127.0,129.0,127.0,127.0,127.0,125.0,130.0,-1.0,111.0,-60.0,127.0,127.0,127.0,-122.0,-90.0,-103.0
125.0,127.0,129.0,127.0,127.0,127.0,125.0,130.0,-1.0,111.0,-60.0,127.0,127.0,127.0,-122.0,-90.0,-103.0
125.0,127.0,129.0,127.0,127.0,127.0,125.0,130.0,-1.0,111.0,-60.0,127.0,127.0,127.0,-122.0,-90.0,-103.0
126.0,127.0,129.0,127.0,127.0,127.0,125.0,130.0,-1.0,111.0,-60.0,127.0,127.0,127.0,-122.0,-90.0,-103.0
126.0,127.0,129.0,127.0,127.0,127.0,125.0,130.0,-1.0,111.0,-60.0,127.0,127.0,127.0,-122.0,-90.0,-103.0
126.0,127.0,128.0,127.0,127.0,127.0,125.0,130.0,-1.0,111.0,-60.0,127.0,127.0,127.0,-122.0,-90.0,-103.0
126.0,127.0,128.0,127.0,127.0,127.0,125.0,130.0,-1.0,111.0,-60.0,127.0,127.0,127.0,-122.0,-90.0,-103.0
126.0,127.0,128.0,127.0,126.0,127.0,126.0,130.0,-1.0,111.0,-60.0,127.0,127.0,127.0,-122.0,-90.0,-103.0
126.0,127.0,128.0,127.0,126.0,127.0,126.0,129.0,-1.0,111.0,-60.0,127.0,127.0,127.0,-122.0,-90.0,-103.0
126.0,127.0,128.0,127.0,126.0,127.0,126.0,129.0,-1.0,111.0,-60.0,127.0,127.0,127.0,-122.0,-90.0,-103.0
126.0,127.0,129.0,128.0,127.0,127.0,125.0,130.0,-1.0,111.0,-60.0,127.0,127.0,127.0,-122.0,-90.0,-103.0
126.0,127.0,129.0,128.0,127.0,127.0,125.0,130.0,-1.0,111.0,-60.0,127.0,127.0,127.0,-122.0,-90.0,-103.0
126.0,127.0,129.0,128.0,127.0,127.0,125.0,130.0,-1.0,111.0,-60.0,127.0,127.0,127.0,-122.0,-90.0,-103.0
126.0,127.0,129.0,128.0,127.0,127.0,125.0,130.0,-1.0,111.0,-60.0,127.0,127.0,127.0,-122.0,-90.0,-103.0
126.0,127.0,129.0,128.0,127.0,127.0,125.0,130.0,-1.0,111.0,-60.0,127.0,127.0,127.0,-122.0,-90.0,-103.0
126.0,127.0,128.0,128.0,127.0,127.0,125.0,130.0,-1.0,111.0,-60.0,127.0,127.0,127.0,-122.0,-90.0,-103.0
126.0,127.0,128.0,128.0,127.0,127.0,125.0,130.0,-1.0,111.0,-60.0,127.0,127.0,127.0,-122.0,-90.0,-103.0
126.0,127.0,128.0,128.0,127.0,127.0,125.0,129.0,-1.0,111.0,-60.0,127.0,127.0,127.0,-122.0,-90.0,-103.0
126.0,127.0,128.0,128.0,127.0,127.0,126.0,129.0,-1.0,111.0,-60.0,127.0,127.0,127.0,-122.0,-90.0,-103.0
126.0,127.0,129.0,128.0,127.0,127.0,125.0,130.0,-1.0,111.0,-60.0,127.0,127.0,127.0,-122.0,-90.0,-103.0
126.0,127.0,129.0,128.0,126.0,127.0,124.0,130.0,-1.0,112.0,-60.0,127.0,127.0,127.0,-122.0,-90.0,-103.0
126.0,127.0,129.0,128.0,126.0,127.0,124.0,130.0,-1.0,112.0,-60.0,127.0,127.0,127.0,-122.0,-90.0,-103.0
126.0,127.0,129.0,128.0,126.0,127.0,124.0,130.0,-1.0,112.0,-60.0,127.0,127.0,127.0,-122.0,-90.0,-103.0
126.0,127.0,129.0,128.0,126.0,127.0,124.0,130.0,-1.0,112.0,-60.0,127.0,127.0,127.0,-122.0,-90.0,-103.0
126.0,127.0,128.0,128.0,126.0,127.0,124.0,130.0,-1.0,112.0,-60.0,127.0,127.0,127.0,-122.0,-90.0,-103.0
126.0,127.0,128.0,128.0,126.0,127.0,125.0,129.0,-1.0,112.0,-60.0,127.0,127.0,127.0,-122.0,-90.0,-103.0
126.0,127.0,128.0,128.0,126.0,127.0,125.0,129.0,-1.0,112.0,-60.0,127.0,127.0,127.0,-122.0,-90.0,-103.0
126.0,127.0,128.0,128.0,126.0,127.0,125.0,129.0,-1.0,112.0,-60.0,127.0,127.0,127.0,-122.0,-90.0,-103.0
126.0,127.0,129.0,128.0,126.0,127.0,124.0,130.0,-1.0,112.0,-60.0,127.0,127.0,127.0,-122.0,-90.0,-103.0
126.0,127.0,129.0,128.0,126.0,127.0,124.0,130.0,-1.0,112.0,-60.0,127.0,127.0,127.0,-122.0,-90.0,-103.0
126.0,126.0,129.0,128.0,127.0,126.0,125.0,129.0,-1.0,113.0,-60.0,127.0,127.0,127.0,-122.0,-90.0,-103.0
126.0,126.0,129.0,128.0,127.0,126.0,125.0,129.0,-1.0,113.0,-60.0,127.0,127.0,127.0,-122.0,-90.0,-103.0
126.0,127.0,128.0,128.0,127.0,127.0,125.0,129.0,-1.0,113.0,-60.0,127.0,127.0,127.0,-122.0,-90.0,-103.0
126.0,127.0,128.0,128.0,127.0,127.0,125.0,129.0,-1.0,113.0,-60.0,127.0,127.0,127.0,-122.0,-90.0,-103.0
126.0,127.0,128.0,128.0,127.0,127.0,125.0,129.0,-1.0,113.0,-60.0,127.0,127.0,127.0,-122.0,-90.0,-103.0
126.0,127.0,128.0,128.0,127.0,126.0,125.0,129.0,-1.0,113.0,-60.0,127.0,127.0,127.0,-122.0,-90.0,-103.0
126.0,127.0,128.0,128.0,126.0,126.0,125.0,129.0,-1.0,113.0,-60.0,127.0,127.0,127.0,-122.0,-90.0,-103.0
126.0,126.0,130.0,128.0,127.0,127.0,125.0,129.0,-1.0,113.0,-60.0,127.0,127.0,127.0,-122.0,-90.0,-103.0
126.0,126.0,129.0,128.0,127.0,127.0,125.0,129.0,-1.0,113.0,-60.0,127.0,127.0,127.0,-122.0,-90.0,-103.0
126.0,126.0,129.0,128.0,127.0,126.0,125.0,129.0,-1.0,113.0,-60.0,127.0,127.0,127.0,-122.0,-90.0,-103.0
126.0,126.0,129.0,128.0,127.0,127.0,124.0,129.0,-1.0,113.0,-60.0,127.0,127.0,127.0,-122.0,-90.0,-103.0
126.0,126.0,129.0,128.0,127.0,127.0,125.0,129.0,-1.0,113.0,-60.0,127.0,127.0,127.0,-122.0,-90.0,-103.0
126.0,126.0,128.0,128.0,127.0,127.0,125.0,129.0,-1.0,113.0,-60.0,127.0,127.0,127.0,-122.0,-90.0,-103.0
126.0,126.0,128.0,128.0,127.0,127.0,125.0,129.0,-1.0,113.0,-60.0,127.0,127.0,127.0,-122.0,-90.0,-103.0
126.0,126.0,128.0,128.0,127.0,127.0,125.0,129.0,-1.0,113.0,-60.0,127.0,127.0,127.0,-122.0,-90.0,-103.0
126.0,126.0,128.0,128.0,127.0,127.0,125.0,128.0,-1.0,113.0,-60.0,127.0,127.0,127.0,-122.0,-90.0,-103.0
126.0,126.0,129.0,128.0,127.0,127.0,124.0,129.0,-1.0,113.0,-60.0,127.0,127.0,127.0,-122.0,-90.0,-103.0
126.0,126.0,129.0,128.0,127.0,127.0,124.0,129.0,-1.0,113.0,-60.0,127.0,127.0,127.0,-122.0,-90.0,-103.0
126.0,126.0,129.0,128.0,127.0,127.0,124.0,129.0,-1.0,113.0,-60.0,127.0,127.0,127.0,-122.0,-90.0,-103.0
126.0,126.0,129.0,128.0,127.0,127.0,124.0,129.0,-1.0,113.0,-60.0,127.0,127.0,127.0,-122.0,-90.0,-103.0
125.0,126.0,128.0,128.0,127.0,127.0,124.0,128.0,-1.0,113.0,-60.0,127.0,127.0,127.0,-122.0,-90.0,-103.0
125.0,126.0,128.0,128.0,127.0,127.0,124.0,128.0,-1.0,113.0,-60.0,127.0,127.0,127.0,-122.0,-90.0,-103.0
125.0,126.0,128.0,128.0,127.0,127.0,125.0,128.0,-1.0,113.0,-60.0,127.0,127.0,127.0,-122.0,-90.0,-103.0
125.0,126.0,128.0,128.0,127.0,127.0,125.0,127.0,-1.0,113.0,-60.0,127.0,127.0,127.0,-122.0,-90.0,-103.0
125.0,126.0,128.0,128.0,127.0,127.0,125.0,127.0,-1.0,113.0,-60.0,127.0,127.0,127.0,-122.0,-90.0,-103.0
125.0,126.0,129.0,128.0,127.0,127.0,124.0,128.0,-1.0,113.0,-60.0,127.0,127.0,127.0,-122.0,-90.0,-103.0
125.0,126.0,129.0,128.0,127.0,127.0,124.0,128.0,-1.0,113.0,-60.0,127.0,127.0,127.0,-122.0,-90.0,-103.0
125.0,126.0,129.0,128.0,127.0,127.0,124.0,128.0,-1.0,113.0,-60.0,127.0,127.0,127.0,-122.0,-90.0,-103.0
125.0,126.0,128.0,128.0,127.0,127.0,124.0,128.0,-1.0,113.0,-60.0,127.0,127.0,127.0,-122.0,-90.0,-103.0
125.0,126.0,128.0,128.0,127.0,127.0,124.0,128.0,-1.0,113.0,-60.0,127.0,127.0,127.0,-122.0,-90.0,-103.0
125.0,126.0,128.0,128.0,127.0,127.0,125.0,127.0,-1.0,113.0,-59.0,127.0,127.0,127.0,-122.0,-90.0,-103.0
125.0,126.0,128.0,128.0,127.0,127.0,125.0,127.0,-1.0,113.0,-59.0,127.0,127.0,127.0,-122.0,-90.0,-103.0
125.0,126.0,128.0,128.0,127.0,127.0,125.0,127.0,-1.0,113.0,-59.0,127.0,127.0,127.0,-122.0,-90.0,-103.0
125.0,126.0,128.0,128.0,127.0,127.0,125.0,127.0,-1.0,113.0,-59.0,127.0,127.0,127.0,-122.0,-90.0,-103.0
125.0,126.0,128.0,128.0,127.0,127.0,124.0,128.0,-1.0,113.0,-59.0,127.0,127.0,127.0,-122.0,-90.0,-103.0
125.0,126.0,128.0,128.0,127.0,127.0,124.0,128.0,-1.0,113.0,-59.0,127.0,127.0,127.0,-122.0,-90.0,-103.0
125.0,126.0,128.0,128.0,127.0,127.0,124.0,128.0,-1.0,113.0,-59.0,127.0,127.0,127.0,-122.0,-90.0,-103.0
125.0,126.0,128.0,128.0,127.0,127.0,124.0,128.0,-1.0,113.0,-59.0,127.0,127.0,127.0,-122.0,-90.0,-103.0
125.0,126.0,128.0,128.0,127.0,127.0,124.0,128.0,-1.0,113.0,-59.0,127.0,127.0,127.0,-122.0,-90.0,-103.0
125.0,126.0,128.0,128.0,127.0,127.0,124.0,127.0,-1.0,113.0,-59.0,127.0,127.0,127.0,-122.0,-90.0,-103.0
125.0,126.0,128.0,128.0,127.0,127.0,125.0,127.0,-1.0,113.0,-59.0,127.0,127.0,127.0,-122.0,-90.0,-103.0
125.0,126.0,128.0,128.0,127.0,127.0,125.0,127.0,-1.0,113.0,-59.0,127.0,127.0,127.0,-122.0,-90.0,-103.0
125.0,126.0,128.0,128.0,127.0,127.0,126.0,127.0,-1.0,113.0,-59.0,127.0,127.0,127.0,-122.0,-90.0,-103.0
125.0,126.0,128.0,128.0,127.0,127.0,125.0,128.0,-1.0,113.0,-59.0,127.0,127.0,127.0,-122.0,-90.0,-103.0
125.0,126.0,128.0,128.0,127.0,127.0,125.0,127.0,-1.0,113.0,-59.0,127.0,127.0,127.0,-122.0,-90.0,-103.0
125.0,126.0,128.0,128.0,127.0,127.0,125.0,127.0,-1.0,113.0,-59.0,127.0,127.0,127.0,-122.0,-90.0,-103.0
125.0,126.0,128.0,128.0,127.0,127.0,125.0,127.0,-1.0,113.0,-59.0,127.0,127.0,127.0,-122.0,-90.0,-103.0
125.0,126.0,128.0,128.0,127.0,127.0,125.0,127.0,-1.0,113.0,-59.0,127.0,127.0,127.0,-122.0,-90.0,-103.0
125.0,126.0,128.0,128.0,127.0,127.0,125.0,127.0,-1.0,113.0,-59.0,127.0,127.0,127.0,-122.0,-90.0,-103.0
125.0,126.0,128.0,128.0,127.0,127.0,125.0,127.0,-1.0,113.0,-59.0,127.0,127.0,127.0,-122.0,-90.0,-103.0
126.0,127.0,128.0,127.0,127.0,127.0,125.0,127.0,-1.0,112.0,-58.0,127.0,127.0,127.0,-122.0,-90.0,-103.0
126.0,127.0,127.0,127.0,126.0,127.0,126.0,127.0,-1.0,112.0,-58.0,127.0,127.0,127.0,-122.0,-90.0,-103.0
125.0,126.0,128.0,127.0,127.0,127.0,125.0,127.0,-1.0,112.0,-58.0,127.0,127.0,127.0,-122.0,-90.0,-103.0
125.0,126.0,128.0,127.0,127.0,127.0,125.0,127.0,-1.0,112.0,-58.0,127.0,127.0,127.0,-122.0,-90.0,-103.0
125.0,126.0,128.0,127.0,127.0,127.0,125.0,127.0,-1.0,112.0,-58.0,127.0,127.0,127.0,-122.0,-90.0,-103.0
125.0,127.0,128.0,127.0,126.0,127.0,125.0,128.0,-1.0,112.0,-58.0,127.0,127.0,127.0,-122.0,-90.0,-103.0
125.0,127.0,128.0,127.0,126.0,127.0,125.0,128.0,-1.0,112.0,-58.0,127.0,127.0,127.0,-122.0,-90.0,-103.0
125.0,127.0,128.0,127.0,126.0,127.0,125.0,127.0,-1.0,112.0,-58.0,127.0,127.0,127.0,-122.0,-90.0,-103.0
125.0,127.0,128.0,127.0,126.0,127.0,125.0,127.0,-1.0,112.0,-58.0,127.0,127.0,127.0,-122.0,-90.0,-103.0
125.0,127.0,128.0,127.0,126.0,127.0,125.0,127.0,-1.0,112.0,-58.0,127.0,127.0,127.0,-122.0,-90.0,-103.0
126.0,127.0,128.0,127.0,127.0,127.0,125.0,127.0,-1.0,111.0,-58.0,127.0,127.0,127.0,-122.0,-90.0,-103.0
126.0,127.0,129.0,127.0,127.0,127.0,125.0,128.0,-1.0,111.0,-58.0,127.0,127.0,127.0,-122.0,-90.0,-103.0
126.0,127.0,129.0,127.0,127.0,127.0,125.0,128.0,-1.0,111.0,-58.0,127.0,127.0,127.0,-122.0,-90.0,-103.0
126.0,127.0,129.0,127.0,127.0,127.0,125.0,128.0,-1.0,111.0,-58.0,127.0,127.0,127.0,-122.0,-90.0,-103.0
126.0,127.0,128.0,127.0,127.0,127.0,124.0,128.0,-1.0,111.0,-58.0,127.0,127.0,127.0,-122.0,-90.0,-103.0
126.0,127.0,128.0,127.0,127.0,127.0,124.0,128.0,-1.0,111.0,-58.0,127.0,127.0,127.0,-122.0,-90.0,-103.0
126.0,127.0,128.0,127.0,127.0,127.0,125.0,128.0,-1.0,111.0,-58.0,127.0,127.0,127.0,-122.0,-90.0,-103.0
126.0,127.0,128.0,127.0,127.0,127.0,125.0,127.0,-1.0,111.0,-58.0,127.0,127.0,127.0,-122.0,-90.0,-103.0
126.0,127.0,128.0,127.0,127.0,127.0,125.0,127.0,-1.0,111.0,-58.0,127.0,127.0,127.0,-122.0,-90.0,-103.0
126.0,127.0,128.0,127.0,127.0,127.0,125.0,127.0,-1.0,111.0,-58.0,127.0,127.0,127.0,-122.0,-90.0,-103.0
126.0,126.0,129.0,127.0,127.0,127.0,125.0,128.0,-1.0,111.0,-58.0,127.0,127.0,127.0,-122.0,-90.0,-103.0
126.0,126.0,129.0,127.0,127.0,127.0,125.0,128.0,-1.0,111.0,-58.0,127.0,127.0,127.0,-122.0,-90.0,-103.0
126.0,126.0,129.0,127.0,127.0,127.0,125.0,127.0,-1.0,111.0,-58.0,127.0,127.0,127.0,-122.0,-90.0,-103.0
126.0,127.0,128.0,127.0,127.0,127.0,124.0,128.0,-1.0,111.0,-58.0,127.0,127.0,127.0,-122.0,-90.0,-103.0
126.0,127.0,128.0,127.0,127.0,127.0,124.0,128.0,-1.0,111.0,-58.0,127.0,127.0,127.0,-122.0,-90.0,-103.0
126.0,127.0,128.0,127.0,127.0,127.0,124.0,128.0,-1.0,111.0,-58.0,127.0,127.0,127.0,-122.0,-90.0,-103.0
126.0,127.0,128.0,127.0,127.0,127.0,125.0,128.0,-1.0,111.0,-58.0,127.0,127.0,127.0,-122.0,-90.0,-103.0
126.0,127.0,128.0,127.0,127.0,127.0,125.0,128.0,-1.0,111.0,-58.0,127.0,127.0,127.0,-122.0,-90.0,-103.0
126.0,127.0,128.0,127.0,127.0,127.0,125.0,127.0,-1.0,111.0,-58.0,127.0,127.0,127.0,-122.0,-90.0,-103.0
126.0,127.0,128.0,127.0,127.0,127.0,125.0,127.0,-1.0,111.0,-58.0,127.0,127.0,127.0,-122.0,-90.0,-103.0
126.0,126.0,129.0,127.0,127.0,127.0,125.0,128.0,-1.0,111.0,-58.0,127.0,127.0,127.0,-122.0,-90.0,-103.0
126.0,126.0,129.0,127.0,127.0,127.0,125.0,128.0,-1.0,111.0,-58.0,127.0,127.0,127.0,-122.0,-90.0,-103.0
126.0,126.0,129.0,128.0,127.0,127.0,125.0,128.0,-1.0,111.0,-58.0,127.0,127.0,127.0,-122.0,-90.0,-103.0
126.0,126.0,129.0,127.0,127.0,127.0,125.0,127.0,-1.0,111.0,-58.0,127.0,127.0,127.0,-122.0,-90.0,-103.0
126.0,126.0,129.0,128.0,127.0,127.0,125.0,127.0,-1.0,111.0,-58.0,127.0,127.0,127.0,-122.0,-90.0,-103.0
126.0,126.0,129.0,127.0,127.0,127.0,125.0,127.0,-1.0,111.0,-58.0,127.0,127.0,127.0,-122.0,-90.0,-103.0
126.0,126.0,128.0,128.0,127.0,127.0,125.0,128.0,-1.0,111.0,-58.0,127.0,127.0,127.0,-122.0,-90.0,-103.0
126.0,127.0,128.0,128.0,127.0,127.0,125.0,127.0,-1.0,111.0,-58.0,127.0,127.0,127.0,-122.0,-90.0,-103.0
126.0,127.0,128.0,128.0,127.0,127.0,125.0,127.0,-1.0,111.0,-58.0,127.0,127.0,127.0,-122.0,-90.0,-103.0
126.0,126.0,129.0,127.0,128.0,127.0,125.0,128.0,-1.0,111.0,-58.0,127.0,127.0,127.0,-122.0,-90.0,-103.0
126.0,126.0,129.0,128.0,127.0,127.0,125.0,128.0,-1.0,112.0,-58.0,127.0,127.0,127.0,-122.0,-90.0,-103.0
126.0,126.0,129.0,128.0,127.0,127.0,125.0,128.0,-1.0,112.0,-58.0,127.0,127.0,127.0,-122.0,-90.0,-103.0
126.0,126.0,129.0,128.0,127.0,127.0,125.0,128.0,-1.0,112.0,-58.0,127.0,127.0,127.0,-122.0,-90.0,-103.0
126.0,126.0,129.0,128.0,127.0,127.0,125.0,128.0,-1.0,112.0,-58.0,127.0,127.0,127.0,-122.0,-90.0,-103.0
126.0,126.0,129.0,128.0,127.0,127.0,125.0,128.0,-1.0,112.0,-58.0,127.0,127.0,127.0,-122.0,-90.0,-103.0
126.0,126.0,129.0,128.0,127.0,127.0,125.0,128.0,-1.0,112.0,-58.0,127.0,127.0,127.0,-122.0,-90.0,-103.0
126.0,126.0,129.0,128.0,127.0,127.0,125.0,128.0,-1.0,112.0,-58.0,127.0,127.0,127.0,-122.0,-90.0,-103.0
126.0,126.0,128.0,128.0,127.0,127.0,125.0,128.0,-1.0,112.0,-58.0,127.0,127.0,127.0,-122.0,-90.0,-103.0
126.0,126.0,129.0,127.0,127.0,127.0,125.0,128.0,-1.0,112.0,-58.0,127.0,127.0,127.0,-122.0,-90.0,-103.0
126.0,126.0,129.0,127.0,127.0,127.0,125.0,128.0,-1.0,112.0,-58.0,127.0,127.0,127.0,-122.0,-90.0,-103.0
126.0,126.0,129.0,128.0,127.0,127.0,124.0,128.0,-1.0,113.0,-58.0,127.0,127.0,127.0,-122.0,-90.0,-103.0
126.0,126.0,129.0,128.0,127.0,127.0,125.0,128.0,-1.0,113.0,-58.0,127.0,127.0,127.0,-122.0,-90.0,-103.0
126.0,126.0,129.0,128.0,127.0,127.0,125.0,128.0,-1.0,113.0,-58.0,127.0,127.0,127.0,-122.0,-90.0,-103.0
126.0,126.0,128.0,128.0,127.0,127.0,125.0,128.0,-1.0,113.0,-58.0,127.0,127.0,127.0,-122.0,-90.0,-103.0
126.0,126.0,128.0,128.0,127.0,127.0,125.0,128.0,-1.0,113.0,-58.0,127.0,127.0,127.0,-122.0,-90.0,-103.0
126.0,126.0,128.0,128.0,127.0,127.0,125.0,128.0,-1.0,113.0,-58.0,127.0,127.0,127.0,-122.0,-90.0,-103.0
126.0,126.0,128.0,128.0,127.0,127.0,125.0,127.0,-1.0,113.0,-58.0,127.0,127.0,127.0,-122.0,-90.0,-103.0
126.0,126.0,129.0,128.0,127.0,127.0,125.0,128.0,-1.0,113.0,-58.0,127.0,127.0,127.0,-122.0,-90.0,-103.0
126.0,126.0,129.0,128.0,127.0,127.0,125.0,128.0,-1.0,113.0,-58.0,127.0,127.0,127.0,-122.0,-90.0,-103.0
126.0,126.0,129.0,128.0,127.0,127.0,125.0,128.0,-1.0,113.0,-58.0,127.0,127.0,127.0,-122.0,-90.0,-103.0
126.0,126.0,129.0,128.0,127.0,127.0,124.0,128.0,-1.0,113.0,-58.0,127.0,127.0,127.0,-122.0,-90.0,-103.0
126.0,126.0,129.0,128.0,127.0,127.0,124.0,128.0,-1.0,113.0,-58.0,127.0,127.0,127.0,-122.0,-90.0,-103.0
126.0,126.0,129.0,128.0,127.0,127.0,124.0,128.0,-1.0,113.0,-58.0,127.0,127.0,127.0,-122.0,-90.0,-103.0
126.0,126.0,129.0,128.0,127.0,127.0,125.0,127.0,-1.0,113.0,-58.0,127.0,127.0,127.0,-122.0,-90.0,-103.0
126.0,127.0,129.0,128.0,127.0,127.0,125.0,127.0,-1.0,113.0,-58.0,127.0,127.0,127.0,-122.0,-90.0,-103.0
126.0,127.0,128.0,128.0,127.0,127.0,125.0,127.0,-1.0,113.0,-58.0,127.0,127.0,127.0,-122.0,-90.0,-103.0
126.0,126.0,129.0,128.0,127.0,127.0,125.0,128.0,-1.0,113.0,-58.0,127.0,127.0,127.0,-122.0,-90.0,-103.0
126.0,126.0,129.0,128.0,127.0,127.0,124.0,128.0,-1.0,113.0,-58.0,127.0,127.0,127.0,-122.0,-90.0,-103.0
126.0,126.0,129.0,128.0,127.0,127.0,124.0,128.0,-1.0,113.0,-58.0,127.0,127.0,127.0,-122.0,-90.0,-103.0
126.0,126.0,129.0,128.0,127.0,127.0,124.0,128.0,-1.0,113.0,-58.0,127.0,127.0,127.0,-122.0,-90.0,-103.0
126.0,126.0,128.0,127.0,126.0,127.0,124.0,128.0,-1.0,113.0,-58.0,127.0,127.0,127.0,-122.0,-90.0,-103.0
126.0,126.0,128.0,127.0,126.0,127.0,124.0,128.0,-1.0,113.0,-58.0,127.0,127.0,127.0,-122.0,-90.0,-103.0
126.0,126.0,128.0,127.0,127.0,127.0,124.0,127.0,-1.0,113.0,-58.0,127.0,127.0,127.0,-122.0,-90.0,-103.0
126.0,126.0,128.0,127.0,127.0,127.0,124.0,127.0,-1.0,113.0,-58.0,127.0,127.0,127.0,-122.0,-90.0,-103.0
126.0,126.0,128.0,127.0,127.0,127.0,125.0,127.0,-1.0,113.0,-58.0,127.0,127.0,127.0,-122.0,-90.0,-103.0
125.0,126.0,129.0,127.0,127.0,127.0,125.0,128.0,-1.0,113.0,-58.0,127.0,127.0,127.0,-122.0,-90.0,-103.0
125.0,126.0,129.0,127.0,127.0,127.0,124.0,128.0,-1.0,113.0,-58.0,127.0,127.0,127.0,-122.0,-90.0,-103.0
125.0,126.0,129.0,127.0,127.0,127.0,124.0,128.0,-1.0,113.0,-58.0,127.0,127.0,127.0,-122.0,-90.0,-103.0
125.0,126.0,129.0,127.0,127.0,127.0,124.0,128.0,-1.0,113.0,-58.0,127.0,127.0,127.0,-122.0,-90.0,-103.0
125.0,126.0,128.0,127.0,126.0,127.0,124.0,128.0,-1.0,113.0,-58.0,127.0,127.0,127.0,-122.0,-90.0,-103.0
125.0,126.0,128.0,127.0,127.0,127.0,124.0,128.0,-1.0,113.0,-58.0,127.0,127.0,127.0,-122.0,-90.0,-103.0
125.0,126.0,128.0,127.0,127.0,127.0,124.0,128.0,-1.0,113.0,-58.0,127.0,127.0,127.0,-122.0,-90.0,-103.0
126.0,126.0,128.0,127.0,127.0,127.0,124.0,128.0,-1.0,113.0,-58.0,127.0,127.0,127.0,-122.0,-90.0,-103.0
126.0,126.0,128.0,127.0,127.0,127.0,124.0,128.0,-1.0,113.0,-58.0,127.0,127.0,127.0,-122.0,-90.0,-103.0
125.0,126.0,128.0,127.0,127.0,127.0,124.0,128.0,-1.0,113.0,-58.0,127.0,127.0,127.0,-122.0,-90.0,-103.0
125.0,126.0,129.0,127.0,127.0,127.0,124.0,128.0,-1.0,113.0,-58.0,127.0,127.0,127.0,-122.0,-90.0,-103.0
125.0,126.0,128.0,127.0,127.0,127.0,124.0,128.0,-1.0,113.0,-58.0,127.0,127.0,127.0,-122.0,-90.0,-103.0
125.0,126.0,129.0,127.0,127.0,127.0,124.0,128.0,-1.0,113.0,-58.0,127.0,127.0,127.0,-122.0,-90.0,-103.0
125.0,126.0,128.0,127.0,127.0,127.0,124.0,128.0,-1.0,113.0,-58.0,127.0,127.0,127.0,-122.0,-90.0,-103.0
125.0,126.0,128.0,127.0,127.0,127.0,124.0,128.0,-1.0,113.0,-58.0,127.0,127.0,127.0,-122.0,-90.0,-103.0
125.0,126.0,128.0,127.0,127.0,127.0,125.0,128.0,-1.0,113.0,-58.0,127.0,127.0,127.0,-122.0,-90.0,-103.0
125.0,127.0,128.0,127.0,127.0,127.0,125.0,128.0,-1.0,113.0,-58.0,127.0,127.0,127.0,-122.0,-90.0,-103.0
125.0,127.0,128.0,127.0,127.0,127.0,125.0,127.0,-1.0,113.0,-58.0,127.0,127.0,127.0,-122.0,-90.0,-103.0
125.0,126.0,129.0,127.0,127.0,127.0,125.0,128.0,-1.0,113.0,-58.0,127.0,127.0,127.0,-122.0,-90.0,-103.0
125.0,126.0,129.0,127.0,127.0,127.0,125.0,128.0,-1.0,113.0,-58.0,127.0,127.0,127.0,-122.0,-90.0,-103.0
125.0,126.0,129.0,127.0,127.0,127.0,125.0,128.0,-1.0,113.0,-58.0,127.0,127.0,127.0,-122.0,-90.0,-103.0
125.0,126.0,129.0,127.0,127.0,127.0,125.0,128.0,-1.0,113.0,-58.0,127.0,127.0,127.0,-122.0,-90.0,-103.0
125.0,126.0,129.0,127.0,127.0,127.0,125.0,128.0,-1.0,113.0,-58.0,127.0,127.0,127.0,-122.0,-90.0,-103.0
125.0,126.0,129.0,127.0,127.0,127.0,125.0,128.0,-1.0,113.0,-58.0,127.0,127.0,127.0,-122.0,-90.0,-103.0
125.0,126.0,129.0,127.0,127.0,127.0,125.0,128.0,-1.0,113.0,-58.0,127.0,127.0,127.0,-122.0,-90.0,-103.0
125.0,126.0,127.0,127.0,126.0,127.0,124.0,127.0,-1.0,112.0,-58.0,127.0,127.0,127.0,-122.0,-90.0,-103.0
125.0,126.0,126.0,127.0,126.0,127.0,124.0,127.0,-1.0,112.0,-58.0,127.0,127.0,127.0,-122.0,-90.0,-103.0
125.0,126.0,129.0,127.0,127.0,127.0,124.0,127.0,-1.0,112.0,-58.0,127.0,127.0,127.0,-122.0,-90.0,-103.0
125.0,126.0,129.0,127.0,127.0,127.0,124.0,127.0,-1.0,112.0,-58.0,127.0,127.0,127.0,-122.0,-90.0,-103.0
125.0,126.0,128.0,127.0,127.0,127.0,124.0,128.0,-1.0,112.0,-58.0,127.0,127.0,127.0,-122.0,-90.0,-103.0
125.0,126.0,128.0,128.0,127.0,127.0,124.0,128.0,-1.0,112.0,-58.0,127.0,127.0,127.0,-122.0,-90.0,-103.0
125.0,126.0,128.0,127.0,127.0,127.0,124.0,128.0,-1.0,112.0,-58.0,127.0,127.0,127.0,-122.0,-90.0,-103.0
125.0,126.0,128.0,127.0,127.0,127.0,124.0,127.0,-1.0,112.0,-58.0,127.0,127.0,127.0,-122.0,-90.0,-103.0
125.0,126.0,128.0,127.0,127.0,127.0,124.0,127.0,-1.0,112.0,-58.0,127.0,127.0,127.0,-122.0,-90.0,-103.0
125.0,126.0,127.0,127.0,127.0,127.0,124.0,127.0,-1.0,112.0,-58.0,127.0,127.0,127.0,-122.0,-90.0,-103.0
125.0,127.0,125.0,129.0,127.0,128.0,124.0,127.0,-1.0,112.0,-58.0,127.0,127.0,127.0,-122.0,-90.0,-103.0
125.0,126.0,125.0,129.0,127.0,127.0,124.0,128.0,-1.0,112.0,-58.0,127.0,127.0,127.0,-122.0,-90.0,-103.0
125.0,126.0,125.0,129.0,127.0,127.0,124.0,128.0,-1.0,112.0,-58.0,127.0,127.0,127.0,-122.0,-90.0,-103.0
125.0,126.0,125.0,129.0,127.0,127.0,124.0,128.0,-1.0,112.0,-58.0,127.0,127.0,127.0,-122.0,-90.0,-103.0
125.0,126.0,126.0,129.0,127.0,127.0,124.0,128.0,-1.0,112.0,-58.0,127.0,127.0,127.0,-122.0,-90.0,-103.0
125.0,126.0,126.0,129.0,127.0,127.0,124.0,128.0,-1.0,112.0,-58.0,127.0,127.0,127.0,-122.0,-90.0,-103.0
125.0,126.0,126.0,129.0,127.0,127.0,124.0,128.0,-1.0,112.0,-58.0,127.0,127.0,127.0,-122.0,-90.0,-103.0
125.0,126.0,126.0,129.0,127.0,127.0,124.0,128.0,-1.0,112.0,-58.0,127.0,127.0,127.0,-122.0,-90.0,-103.0
125.0,126.0,126.0,129.0,127.0,127.0,124.0,128.0,-1.0,112.0,-58.0,127.0,127.0,127.0,-122.0,-90.0,-103.0
125.0,126.0,125.0,129.0,127.0,128.0,124.0,127.0,-1.0,112.0,-58.0,127.0,127.0,127.0,-122.0,-90.0,-103.0
125.0,129.0,124.0,130.0,126.0,126.0,120.0,127.0,-1.0,111.0,-58.0,127.0,127.0,127.0,-122.0,-90.0,-103.0
125.0,129.0,124.0,131.0,126.0,126.0,120.0,127.0,-1.0,111.0,-58.0,127.0,127.0,127.0,-122.0,-90.0,-103.0
125.0,129.0,125.0,131.0,126.0,126.0,120.0,128.0,-1.0,111.0,-58.0,127.0,127.0,127.0,-122.0,-90.0,-103.0
125.0,129.0,125.0,132.0,127.0,126.0,119.0,128.0,-1.0,111.0,-58.0,127.0,127.0,127.0,-122.0,-90.0,-103.0
125.0,129.0,126.0,132.0,127.0,127.0,119.0,127.0,-1.0,111.0,-58.0,127.0,127.0,127.0,-122.0,-90.0,-103.0
125.0,129.0,127.0,133.0,127.0,127.0,119.0,127.0,-1.0,111.0,-58.0,127.0,127.0,127.0,-122.0,-90.0,-103.0
125.0,129.0,127.0,133.0,127.0,127.0,119.0,127.0,-1.0,111.0,-58.0,127.0,127.0,127.0,-122.0,-90.0,-103.0
125.0,129.0,127.0,134.0,127.0,127.0,119.0,127.0,-1.0,111.0,-58.0,127.0,127.0,127.0,-122.0,-90.0,-103.0
126.0,129.0,127.0,135.0,127.0,127.0,119.0,128.0,-1.0,111.0,-58.0,127.0,127.0,127.0,-122.0,-90.0,-103.0
126.0,129.0,126.0,135.0,127.0,127.0,119.0,128.0,-1.0,111.0,-58.0,127.0,127.0,127.0,-122.0,-90.0,-103.0
128.0,123.0,146.0,186.0,127.0,126.0,112.0,127.0,-1.0,111.0,-59.0,127.0,127.0,127.0,-122.0,-90.0,-103.0
128.0,123.0,148.0,188.0,127.0,126.0,111.0,127.0,-1.0,111.0,-59.0,127.0,127.0,127.0,-122.0,-90.0,-103.0
128.0,124.0,148.0,191.0,128.0,126.0,111.0,127.0,-1.0,111.0,-59.0,127.0,127.0,127.0,-122.0,-90.0,-103.0
128.0,124.0,148.0,193.0,128.0,127.0,111.0,127.0,-1.0,111.0,-59.0,127.0,127.0,127.0,-122.0,-90.0,-103.0
129.0,124.0,146.0,195.0,128.0,127.0,111.0,127.0,-1.0,111.0,-59.0,127.0,127.0,127.0,-122.0,-90.0,-103.0
129.0,125.0,143.0,197.0,128.0,126.0,111.0,127.0,-1.0,111.0,-59.0,127.0,127.0,127.0,-122.0,-90.0,-103.0
129.0,125.0,140.0,199.0,128.0,126.0,111.0,127.0,-1.0,111.0,-59.0,127.0,127.0,127.0,-122.0,-90.0,-103.0
129.0,125.0,137.0,201.0,127.0,126.0,111.0,127.0,-1.0,111.0,-59.0,127.0,127.0,127.0,-122.0,-90.0,-103.0
130.0,126.0,135.0,203.0,127.0,126.0,110.0,128.0,-1.0,111.0,-59.0,127.0,127.0,127.0,-122.0,-90.0,-103.0
128.0,123.0,144.0,184.0,126.0,126.0,112.0,127.0,-1.0,111.0,-59.0,127.0,127.0,127.0,-122.0,-90.0,-103.0
132.0,121.0,137.0,254.0,114.0,128.0,96.0,130.0,-1.0,112.0,-59.0,127.0,127.0,127.0,-122.0,-90.0,-103.0
132.0,121.0,136.0,254.0,114.0,128.0,96.0,130.0,-1.0,112.0,-59.0,127.0,127.0,127.0,-122.0,-90.0,-103.0
132.0,122.0,134.0,254.0,114.0,129.0,97.0,130.0,-1.0,112.0,-59.0,127.0,127.0,127.0,-122.0,-90.0,-103.0
132.0,122.0,131.0,254.0,114.0,129.0,97.0,129.0,-1.0,112.0,-59.0,127.0,127.0,127.0,-122.0,-90.0,-103.0
132.0,122.0,129.0,254.0,113.0,129.0,97.0,129.0,-1.0,112.0,-59.0,127.0,127.0,127.0,-122.0,-90.0,-103.0
132.0,123.0,127.0,254.0,113.0,128.0,96.0,129.0,-1.0,112.0,-59.0,127.0,127.0,127.0,-122.0,-90.0,-103.0
132.0,123.0,125.0,254.0,113.0,128.0,96.0,129.0,-1.0,112.0,-59.0,127.0,127.0,127.0,-122.0,-90.0,-103.0
132.0,123.0,123.0,254.0,112.0,128.0,96.0,129.0,-1.0,112.0,-59.0,127.0,127.0,127.0,-122.0,-90.0,-103.0
131.0,120.0,140.0,254.0,115.0,128.0,97.0,130.0,-1.0,112.0,-59.0,127.0,127.0,127.0,-122.0,-90.0,-103.0
131.0,120.0,139.0,254.0,115.0,128.0,96.0,130.0,-1.0,112.0,-59.0,127.0,127.0,127.0,-122.0,-90.0,-103.0
133.0,128.0,123.0,173.0,100.0,128.0,96.0,131.0,-1.0,113.0,-60.0,126.0,127.0,126.0,-122.0,-90.0,-103.0
133.0,127.0,122.0,171.0,100.0,128.0,97.0,131.0,-1.0,113.0,-60.0,126.0,127.0,126.0,-122.0,-90.0,-103.0
133.0,127.0,121.0,169.0,100.0,128.0,97.0,131.0,-1.0,113.0,-60.0,126.0,127.0,126.0,-122.0,-90.0,-103.0
133.0,127.0,120.0,166.0,99.0,127.0,98.0,130.0,-1.0,113.0,-60.0,126.0,127.0,126.0,-122.0,-90.0,-103.0
133.0,127.0,119.0,164.0,99.0,127.0,99.0,130.0,-1.0,113.0,-60.0,126.0,127.0,126.0,-122.0,-90.0,-103.0
133.0,127.0,117.0,162.0,99.0,128.0,100.0,129.0,-1.0,113.0,-60.0,126.0,127.0,126.0,-122.0,-90.0,-103.0
133.0,127.0,116.0,160.0,99.0,128.0,100.0,129.0,-1.0,113.0,-60.0,126.0,127.0,126.0,-122.0,-90.0,-103.0
133.0,128.0,125.0,181.0,102.0,127.0,96.0,129.0,-1.0,113.0,-60.0,126.0,127.0,126.0,-122.0,-90.0,-103.0
133.0,127.0,125.0,178.0,101.0,127.0,96.0,130.0,-1.0,113.0,-60.0,126.0,127.0,126.0,-122.0,-90.0,-103.0
133.0,128.0,124.0,176.0,101.0,128.0,96.0,130.0,-1.0,113.0,-60.0,126.0,127.0,126.0,-122.0,-90.0,-103.0
132.0,115.0,95.0,90.0,102.0,141.0,119.0,144.0,-1.0,116.0,-60.0,124.0,126.0,126.0,-122.0,-90.0,-103.0
132.0,114.0,94.0,91.0,103.0,141.0,120.0,144.0,-1.0,116.0,-60.0,124.0,126.0,126.0,-122.0,-90.0,-103.0
132.0,112.0,94.0,91.0,103.0,141.0,121.0,144.0,-1.0,116.0,-60.0,124.0,126.0,126.0,-122.0,-90.0,-103.0
133.0,111.0,94.0,91.0,104.0,141.0,122.0,145.0,-1.0,116.0,-60.0,124.0,126.0,126.0,-122.0,-90.0,-103.0
133.0,110.0,95.0,92.0,106.0,142.0,123.0,145.0,-1.0,116.0,-60.0,124.0,126.0,126.0,-122.0,-90.0,-103.0
133.0,109.0,96.0,93.0,107.0,142.0,125.0,145.0,-1.0,116.0,-60.0,124.0,126.0,126.0,-122.0,-90.0,-103.0
132.0,116.0,95.0,90.0,99.0,140.0,115.0,140.0,-1.0,116.0,-60.0,124.0,126.0,126.0,-122.0,-90.0,-103.0
132.0,116.0,95.0,90.0,100.0,141.0,116.0,141.0,-1.0,116.0,-60.0,124.0,126.0,126.0,-122.0,-90.0,-103.0
132.0,115.0,95.0,90.0,101.0,141.0,117.0,142.0,-1.0,116.0,-60.0,124.0,126.0,126.0,-122.0,-90.0,-103.0
132.0,115.0,95.0,90.0,101.0,141.0,118.0,143.0,-1.0,116.0,-60.0,124.0,126.0,126.0,-122.0,-90.0,-103.0
144.0,130.0,172.0,254.0,157.0,129.0,201.0,183.0,-1.0,121.0,-60.0,121.0,125.0,126.0,-123.0,-90.0,-103.0
144.0,131.0,171.0,254.0,157.0,129.0,203.0,185.0,-1.0,121.0,-60.0,121.0,125.0,126.0,-123.0,-90.0,-103.0
144.0,132.0,169.0,254.0,157.0,129.0,205.0,187.0,-1.0,121.0,-60.0,121.0,125.0,126.0,-123.0,-90.0,-103.0
144.0,132.0,167.0,254.0,158.0,129.0,206.0,188.0,-1.0,121.0,-60.0,121.0,125.0,126.0,-123.0,-90.0,-103.0
144.0,133.0,165.0,254.0,158.0,129.0,207.0,190.0,-1.0,121.0,-60.0,121.0,125.0,126.0,-123.0,-90.0,-103.0
144.0,125.0,173.0,254.0,155.0,130.0,191.0,175.0,-1.0,121.0,-60.0,121.0,125.0,126.0,-123.0,-90.0,-103.0
144.0,126.0,174.0,254.0,155.0,129.0,193.0,176.0,-1.0,121.0,-60.0,121.0,125.0,126.0,-123.0,-90.0,-103.0
144.0,127.0,174.0,254.0,156.0,129.0,195.0,178.0,-1.0,121.0,-60.0,121.0,125.0,126.0,-123.0,-90.0,-103.0
144.0,128.0,174.0,254.0,156.0,129.0,197.0,180.0,-1.0,121.0,-60.0,121.0,125.0,126.0,-123.0,-90.0,-103.0
144.0,129.0,173.0,254.0,157.0,129.0,199.0,181.0,-1.0,121.0,-60.0,121.0,125.0,126.0,-123.0,-90.0,-103.0
118.0,118.0,155.0,254.0,164.0,131.0,200.0,128.0,-1.0,-128.0,-62.0,120.0,125.0,126.0,-124.0,-90.0,-103.0
118.0,118.0,153.0,254.0,164.0,131.0,197.0,126.0,-1.0,-128.0,-62.0,120.0,125.0,126.0,-124.0,-90.0,-103.0
118.0,118.0,151.0,254.0,163.0,131.0,193.0,124.0,-1.0,-128.0,-62.0,120.0,125.0,126.0,-124.0,-90.0,-103.0
118.0,117.0,149.0,254.0,163.0,131.0,189.0,122.0,-1.0,-128.0,-62.0,120.0,125.0,126.0,-124.0,-90.0,-103.0
120.0,120.0,164.0,254.0,166.0,133.0,220.0,142.0,-1.0,-128.0,-62.0,120.0,125.0,126.0,-124.0,-90.0,-103.0
120.0,119.0,163.0,254.0,166.0,133.0,217.0,139.0,-1.0,-128.0,-62.0,120.0,125.0,126.0,-124.0,-90.0,-103.0
119.0,119.0,162.0,254.0,166.0,132.0,214.0,137.0,-1.0,-128.0,-62.0,120.0,125.0,126.0,-124.0,-90.0,-103.0
119.0,119.0,160.0,254.0,166.0,132.0,211.0,134.0,-1.0,-128.0,-62.0,120.0,125.0,126.0,-124.0,-90.0,-103.0
119.0,118.0,158.0,254.0,165.0,131.0,207.0,132.0,-1.0,-128.0,-62.0,120.0,125.0,126.0,-124.0,-90.0,-103.0
118.0,118.0,157.0,254.0,165.0,131.0,204.0,130.0,-1.0,-128.0,-62.0,120.0,125.0,126.0,-124.0,-90.0,-103.0
115.0,128.0,143.0,163.0,134.0,134.0,79.0,117.0,-1.0,120.0,-64.0,119.0,125.0,126.0,-124.0,-90.0,-103.0
115.0,129.0,143.0,159.0,134.0,133.0,79.0,117.0,-1.0,120.0,-64.0,119.0,125.0,126.0,-124.0,-90.0,-103.0
115.0,129.0,143.0,156.0,133.0,133.0,78.0,118.0,-1.0,120.0,-64.0,119.0,125.0,126.0,-124.0,-90.0,-103.0
114.0,125.0,139.0,188.0,139.0,134.0,85.0,112.0,-1.0,120.0,-64.0,119.0,125.0,126.0,-124.0,-90.0,-103.0
114.0,126.0,141.0,185.0,139.0,134.0,84.0,113.0,-1.0,120.0,-64.0,119.0,125.0,126.0,-124.0,-90.0,-103.0
114.0,126.0,141.0,181.0,138.0,133.0,83.0,113.0,-1.0,120.0,-64.0,119.0,125.0,126.0,-124.0,-90.0,-103.0
114.0,126.0,142.0,177.0,137.0,133.0,82.0,114.0,-1.0,120.0,-64.0,119.0,125.0,126.0,-124.0,-90.0,-103.0
114.0,127.0,142.0,174.0,136.0,133.0,81.0,115.0,-1.0,120.0,-64.0,119.0,125.0,126.0,-124.0,-90.0,-103.0
114.0,127.0,142.0,170.0,136.0,133.0,81.0,115.0,-1.0,120.0,-64.0,119.0,125.0,126.0,-124.0,-90.0,-103.0
114.0,127.0,143.0,167.0,135.0,134.0,80.0,116.0,-1.0,120.0,-64.0,119.0,125.0,126.0,-124.0,-90.0,-103.0
116.0,123.0,137.0,89.0,118.0,130.0,78.0,102.0,-1.0,107.0,-65.0,121.0,125.0,126.0,-124.0,-90.0,-103.0
116.0,122.0,137.0,91.0,118.0,130.0,79.0,101.0,-1.0,107.0,-65.0,121.0,125.0,126.0,-124.0,-90.0,-103.0
116.0,126.0,140.0,74.0,119.0,129.0,74.0,105.0,-1.0,107.0,-65.0,121.0,125.0,126.0,-124.0,-90.0,-103.0
115.0,125.0,140.0,76.0,119.0,129.0,74.0,105.0,-1.0,107.0,-65.0,121.0,125.0,126.0,-124.0,-90.0,-103.0
115.0,125.0,139.0,78.0,119.0,129.0,74.0,104.0,-1.0,107.0,-65.0,121.0,125.0,126.0,-124.0,-90.0,-103.0
115.0,124.0,139.0,80.0,118.0,130.0,75.0,104.0,-1.0,107.0,-65.0,121.0,125.0,126.0,-124.0,-90.0,-103.0
115.0,124.0,138.0,82.0,118.0,130.0,75.0,103.0,-1.0,107.0,-65.0,121.0,125.0,126.0,-124.0,-90.0,-103.0
115.0,123.0,138.0,84.0,118.0,130.0,76.0,103.0,-1.0,107.0,-65.0,121.0,125.0,126.0,-124.0,-90.0,-103.0
115.0,123.0,137.0,85.0,118.0,130.0,77.0,103.0,-1.0,107.0,-65.0,121.0,125.0,126.0,-124.0,-90.0,-103.0
115.0,123.0,137.0,87.0,118.0,130.0,77.0,102.0,-1.0,107.0,-65.0,121.0,125.0,126.0,-124.0,-90.0,-103.0
116.0,110.0,117.0,127.0,132.0,127.0,119.0,87.0,-1.0,101.0,-66.0,124.0,126.0,126.0,-123.0,-90.0,-103.0
116.0,110.0,123.0,121.0,134.0,129.0,112.0,91.0,-1.0,101.0,-66.0,124.0,126.0,126.0,-123.0,-90.0,-103.0
116.0,110.0,123.0,122.0,134.0,129.0,112.0,91.0,-1.0,101.0,-66.0,124.0,126.0,126.0,-123.0,-90.0,-103.0
116.0,109.0,123.0,122.0,134.0,128.0,113.0,90.0,-1.0,101.0,-66.0,124.0,126.0,126.0,-123.0,-90.0,-103.0
116.0,109.0,122.0,123.0,134.0,128.0,114.0,89.0,-1.0,101.0,-66.0,124.0,126.0,126.0,-123.0,-90.0,-103.0
116.0,109.0,122.0,124.0,133.0,128.0,115.0,89.0,-1.0,101.0,-66.0,124.0,126.0,126.0,-123.0,-90.0,-103.0
116.0,109.0,121.0,124.0,133.0,128.0,116.0,88.0,-1.0,101.0,-66.0,124.0,126.0,126.0,-123.0,-90.0,-103.0
116.0,109.0,120.0,125.0,133.0,128.0,116.0,88.0,-1.0,101.0,-66.0,124.0,126.0,126.0,-123.0,-90.0,-103.0
116.0,110.0,119.0,125.0,133.0,128.0,117.0,88.0,-1.0,101.0,-66.0,124.0,126.0,126.0,-123.0,-90.0,-103.0
116.0,110.0,118.0,126.0,132.0,127.0,118.0,87.0,-1.0,101.0,-66.0,124.0,126.0,126.0,-123.0,-90.0,-103.0
118.0,120.0,122.0,136.0,134.0,126.0,136.0,87.0,-1.0,104.0,-67.0,125.0,126.0,126.0,-122.0,-90.0,-103.0
118.0,120.0,123.0,136.0,134.0,126.0,136.0,87.0,-1.0,104.0,-67.0,125.0,126.0,126.0,-122.0,-90.0,-103.0
118.0,120.0,124.0,136.0,134.0,126.0,136.0,87.0,-1.0,104.0,-67.0,125.0,126.0,126.0,-122.0,-90.0,-103.0
118.0,120.0,124.0,136.0,135.0,126.0,136.0,87.0,-1.0,104.0,-67.0,125.0,126.0,126.0,-122.0,-90.0,-103.0
118.0,120.0,125.0,136.0,135.0,126.0,137.0,87.0,-1.0,104.0,-67.0,125.0,126.0,126.0,-122.0,-90.0,-103.0
118.0,120.0,125.0,136.0,135.0,126.0,137.0,87.0,-1.0,104.0,-67.0,125.0,126.0,126.0,-122.0,-90.0,-103.0
118.0,120.0,124.0,136.0,135.0,126.0,137.0,87.0,-1.0,104.0,-67.0,125.0,126.0,126.0,-122.0,-90.0,-103.0
118.0,121.0,124.0,136.0,134.0,126.0,137.0,87.0,-1.0,104.0,-67.0,125.0,126.0,126.0,-122.0,-90.0,-103.0
118.0,121.0,124.0,136.0,134.0,127.0,137.0,87.0,-1.0,104.0,-67.0,125.0,126.0,126.0,-122.0,-90.0,-103.0
118.0,121.0,123.0,136.0,134.0,126.0,137.0,87.0,-1.0,104.0,-67.0,125.0,126.0,126.0,-122.0,-90.0,-103.0
119.0,123.0,122.0,131.0,130.0,127.0,135.0,91.0,-1.0,106.0,-68.0,125.0,126.0,127.0,-122.0,-90.0,-103.0
119.0,123.0,123.0,131.0,130.0,127.0,135.0,91.0,-1.0,106.0,-68.0,125.0,126.0,127.0,-122.0,-90.0,-103.0
119.0,122.0,123.0,131.0,130.0,127.0,134.0,91.0,-1.0,106.0,-68.0,125.0,126.0,127.0,-122.0,-90.0,-103.0
118.0,123.0,123.0,131.0,129.0,127.0,134.0,91.0,-1.0,106.0,-68.0,125.0,126.0,127.0,-122.0,-90.0,-103.0
118.0,123.0,123.0,131.0,129.0,127.0,134.0,92.0,-1.0,106.0,-68.0,125.0,126.0,127.0,-122.0,-90.0,-103.0
119.0,123.0,123.0,131.0,129.0,127.0,134.0,92.0,-1.0,106.0,-68.0,125.0,126.0,127.0,-122.0,-90.0,-103.0
118.0,123.0,123.0,131.0,129.0,127.0,134.0,92.0,-1.0,106.0,-68.0,125.0,126.0,127.0,-122.0,-90.0,-103.0
119.0,123.0,123.0,131.0,129.0,127.0,134.0,92.0,-1.0,106.0,-68.0,125.0,126.0,127.0,-122.0,-90.0,-103.0
119.0,123.0,123.0,131.0,129.0,127.0,134.0,92.0,-1.0,106.0,-68.0,125.0,126.0,127.0,-122.0,-90.0,-103.0
119.0,123.0,122.0,131.0,130.0,127.0,135.0,91.0,-1.0,106.0,-68.0,125.0,126.0,127.0,-122.0,-90.0,-103.0
120.0,125.0,127.0,132.0,127.0,128.0,130.0,103.0,-1.0,104.0,-68.0,125.0,126.0,127.0,-122.0,-90.0,-103.0
120.0,125.0,127.0,132.0,127.0,127.0,130.0,103.0,-1.0,104.0,-68.0,125.0,126.0,127.0,-122.0,-90.0,-103.0
120.0,125.0,127.0,132.0,127.0,127.0,130.0,103.0,-1.0,104.0,-68.0,125.0,126.0,127.0,-122.0,-90.0,-103.0
120.0,125.0,127.0,132.0,126.0,126.0,130.0,103.0,-1.0,104.0,-68.0,125.0,126.0,127.0,-122.0,-90.0,-103.0
120.0,124.0,127.0,132.0,126.0,126.0,130.0,103.0,-1.0,104.0,-68.0,125.0,126.0,127.0,-122.0,-90.0,-103.0
120.0,124.0,127.0,132.0,127.0,125.0,130.0,103.0,-1.0,104.0,-68.0,125.0,126.0,127.0,-122.0,-90.0,-103.0
120.0,124.0,127.0,132.0,127.0,125.0,130.0,103.0,-1.0,104.0,-68.0,125.0,126.0,127.0,-122.0,-90.0,-103.0
120.0,124.0,128.0,132.0,127.0,125.0,130.0,103.0,-1.0,104.0,-68.0,125.0,126.0,127.0,-122.0,-90.0,-103.0
120.0,125.0,128.0,132.0,127.0,129.0,130.0,102.0,-1.0,104.0,-68.0,125.0,126.0,127.0,-122.0,-90.0,-103.0
120.0,125.0,127.0,132.0,127.0,128.0,130.0,102.0,-1.0,104.0,-68.0,125.0,126.0,127.0,-122.0,-90.0,-103.0
121.0,122.0,127.0,133.0,126.0,127.0,130.0,110.0,-1.0,100.0,-68.0,126.0,127.0,127.0,-121.0,-90.0,-103.0
121.0,122.0,127.0,133.0,126.0,127.0,130.0,110.0,-1.0,100.0,-68.0,126.0,127.0,127.0,-121.0,-90.0,-103.0
121.0,122.0,127.0,133.0,126.0,127.0,130.0,110.0,-1.0,100.0,-68.0,126.0,127.0,127.0,-121.0,-90.0,-103.0
121.0,123.0,128.0,133.0,127.0,127.0,130.0,110.0,-1.0,100.0,-68.0,126.0,127.0,127.0,-121.0,-90.0,-103.0
121.0,123.0,128.0,133.0,127.0,126.0,130.0,110.0,-1.0,100.0,-68.0,126.0,127.0,127.0,-121.0,-90.0,-103.0
121.0,123.0,128.0,133.0,127.0,126.0,130.0,110.0,-1.0,100.0,-68.0,126.0,127.0,127.0,-121.0,-90.0,-103.0
121.0,123.0,127.0,133.0,127.0,126.0,130.0,110.0,-1.0,100.0,-68.0,126.0,127.0,127.0,-121.0,-90.0,-103.0
121.0,123.0,126.0,133.0,126.0,127.0,130.0,109.0,-1.0,100.0,-68.0,126.0,127.0,127.0,-121.0,-90.0,-103.0
121.0,123.0,126.0,133.0,126.0,127.0,130.0,110.0,-1.0,100.0,-68.0,126.0,127.0,127.0,-121.0,-90.0,-103.0
121.0,123.0,127.0,133.0,126.0,127.0,130.0,110.0,-1.0,100.0,-68.0,126.0,127.0,127.0,-121.0,-90.0,-103.0
121.0,122.0,127.0,131.0,127.0,125.0,131.0,113.0,-1.0,99.0,-68.0,126.0,127.0,127.0,-120.0,-90.0,-103.0
121.0,122.0,127.0,131.0,127.0,125.0,131.0,113.0,-1.0,99.0,-68.0,126.0,127.0,127.0,-120.0,-90.0,-103.0
121.0,122.0,127.0,131.0,127.0,126.0,131.0,113.0,-1.0,99.0,-68.0,126.0,127.0,127.0,-120.0,-90.0,-103.0
121.0,122.0,126.0,131.0,127.0,126.0,131.0,113.0,-1.0,99.0,-68.0,126.0,127.0,127.0,-120.0,-90.0,-103.0
121.0,122.0,126.0,131.0,127.0,126.0,131.0,113.0,-1.0,99.0,-68.0,126.0,127.0,127.0,-120.0,-90.0,-103.0
122.0,122.0,126.0,131.0,127.0,125.0,131.0,113.0,-1.0,99.0,-68.0,126.0,127.0,127.0,-120.0,-90.0,-103.0
122.0,122.0,127.0,131.0,127.0,125.0,131.0,113.0,-1.0,99.0,-68.0,126.0,127.0,127.0,-120.0,-90.0,-103.0
122.0,122.0,127.0,131.0,127.0,125.0,131.0,113.0,-1.0,99.0,-68.0,126.0,127.0,127.0,-120.0,-90.0,-103.0
121.0,122.0,127.0,131.0,127.0,125.0,131.0,113.0,-1.0,99.0,-68.0,126.0,127.0,127.0,-120.0,-90.0,-103.0
121.0,122.0,127.0,131.0,127.0,125.0,131.0,113.0,-1.0,99.0,-68.0,126.0,127.0,127.0,-120.0,-90.0,-103.0
121.0,123.0,128.0,130.0,126.0,127.0,129.0,115.0,-1.0,99.0,-68.0,126.0,127.0,127.0,-120.0,-90.0,-103.0
121.0,123.0,128.0,130.0,126.0,127.0,129.0,115.0,-1.0,99.0,-68.0,126.0,127.0,127.0,-120.0,-90.0,-103.0
121.0,123.0,128.0,130.0,126.0,127.0,129.0,115.0,-1.0,99.0,-68.0,126.0,127.0,127.0,-120.0,-90.0,-103.0
121.0,123.0,128.0,130.0,125.0,127.0,129.0,115.0,-1.0,99.0,-68.0,126.0,127.0,127.0,-120.0,-90.0,-103.0
122.0,123.0,127.0,130.0,126.0,126.0,129.0,115.0,-1.0,99.0,-68.0,126.0,127.0,127.0,-120.0,-90.0,-103.0
122.0,123.0,127.0,130.0,126.0,126.0,129.0,115.0,-1.0,99.0,-68.0,126.0,127.0,127.0,-120.0,-90.0,-103.0
122.0,123.0,127.0,130.0,126.0,127.0,129.0,115.0,-1.0,99.0,-68.0,126.0,127.0,127.0,-120.0,-90.0,-103.0
122.0,123.0,128.0,130.0,126.0,127.0,129.0,115.0,-1.0,99.0,-68.0,126.0,127.0,127.0,-120.0,-90.0,-103.0
121.0,123.0,128.0,130.0,126.0,127.0,129.0,115.0,-1.0,99.0,-68.0,126.0,127.0,127.0,-120.0,-90.0,-103.0
121.0,123.0,128.0,130.0,126.0,127.0,129.0,115.0,-1.0,99.0,-68.0,126.0,127.0,127.0,-120.0,-90.0,-103.0
121.0,123.0,129.0,124.0,127.0,127.0,127.0,118.0,-1.0,99.0,-68.0,126.0,127.0,127.0,-119.0,-90.0,-103.0
121.0,123.0,129.0,124.0,127.0,126.0,126.0,118.0,-1.0,99.0,-68.0,126.0,127.0,127.0,-119.0,-90.0,-103.0
121.0,123.0,129.0,124.0,127.0,126.0,126.0,117.0,-1.0,99.0,-68.0,126.0,127.0,127.0,-119.0,-90.0,-103.0
122.0,123.0,129.0,125.0,127.0,126.0,128.0,117.0,-1.0,99.0,-68.0,126.0,127.0,127.0,-119.0,-90.0,-103.0
122.0,123.0,129.0,125.0,127.0,126.0,127.0,117.0,-1.0,99.0,-68.0,126.0,127.0,127.0,-119.0,-90.0,-103.0
122.0,123.0,129.0,125.0,127.0,126.0,127.0,118.0,-1.0,99.0,-68.0,126.0,127.0,127.0,-119.0,-90.0,-103.0
121.0,123.0,129.0,125.0,127.0,126.0,127.0,118.0,-1.0,99.0,-68.0,126.0,127.0,127.0,-119.0,-90.0,-103.0
121.0,123.0,129.0,125.0,127.0,126.0,127.0,118.0,-1.0,99.0,-68.0,126.0,127.0,127.0,-119.0,-90.0,-103.0
121.0,123.0,129.0,125.0,127.0,126.0,127.0,118.0,-1.0,99.0,-68.0,126.0,127.0,127.0,-119.0,-90.0,-103.0
121.0,123.0,129.0,125.0,127.0,126.0,127.0,118.0,-1.0,99.0,-68.0,126.0,127.0,127.0,-119.0,-90.0,-103.0
121.0,123.0,129.0,114.0,127.0,126.0,125.0,120.0,-1.0,99.0,-69.0,127.0,127.0,127.0,-118.0,-90.0,-103.0
121.0,123.0,129.0,114.0,126.0,126.0,125.0,120.0,-1.0,99.0,-69.0,127.0,127.0,127.0,-118.0,-90.0,-103.0
121.0,123.0,129.0,120.0,127.0,127.0,125.0,119.0,-1.0,99.0,-69.0,127.0,127.0,127.0,-118.0,-90.0,-103.0
121.0,123.0,129.0,119.0,127.0,127.0,125.0,119.0,-1.0,99.0,-69.0,127.0,127.0,127.0,-118.0,-90.0,-103.0
121.0,123.0,130.0,118.0,127.0,127.0,125.0,119.0,-1.0,99.0,-69.0,127.0,127.0,127.0,-118.0,-90.0,-103.0
121.0,123.0,130.0,118.0,127.0,127.0,125.0,119.0,-1.0,99.0,-69.0,127.0,127.0,127.0,-118.0,-90.0,-103.0
121.0,123.0,130.0,117.0,127.0,127.0,125.0,119.0,-1.0,99.0,-69.0,127.0,127.0,127.0,-118.0,-90.0,-103.0
121.0,123.0,130.0,116.0,127.0,127.0,125.0,119.0,-1.0,99.0,-69.0,127.0,127.0,127.0,-118.0,-90.0,-103.0
120.0,123.0,130.0,116.0,127.0,127.0,125.0,119.0,-1.0,99.0,-69.0,127.0,127.0,127.0,-118.0,-90.0,-103.0
120.0,123.0,130.0,115.0,127.0,126.0,125.0,119.0,-1.0,99.0,-69.0,127.0,127.0,127.0,-118.0,-90.0,-103.0
120.0,123.0,129.0,87.0,126.0,127.0,125.0,121.0,-1.0,99.0,-69.0,127.0,127.0,127.0,-118.0,-90.0,-103.0
121.0,123.0,130.0,87.0,126.0,126.0,126.0,121.0,-1.0,99.0,-69.0,127.0,127.0,127.0,-118.0,-90.0,-103.0
120.0,123.0,130.0,87.0,126.0,126.0,126.0,121.0,-1.0,99.0,-69.0,127.0,127.0,127.0,-118.0,-90.0,-103.0
120.0,123.0,129.0,87.0,126.0,127.0,126.0,121.0,-1.0,99.0,-69.0,127.0,127.0,127.0,-118.0,-90.0,-103.0
120.0,123.0,130.0,87.0,126.0,127.0,126.0,121.0,-1.0,99.0,-69.0,127.0,127.0,127.0,-118.0,-90.0,-103.0
120.0,123.0,130.0,87.0,126.0,127.0,125.0,121.0,-1.0,99.0,-69.0,127.0,127.0,127.0,-118.0,-90.0,-103.0
120.0,123.0,130.0,87.0,126.0,127.0,125.0,121.0,-1.0,99.0,-69.0,127.0,127.0,127.0,-118.0,-90.0,-103.0
120.0,123.0,130.0,87.0,126.0,127.0,125.0,121.0,-1.0,99.0,-69.0,127.0,127.0,127.0,-118.0,-90.0,-103.0
120.0,123.0,129.0,87.0,126.0,127.0,125.0,121.0,-1.0,99.0,-69.0,127.0,127.0,127.0,-118.0,-90.0,-103.0
120.0,123.0,129.0,87.0,126.0,127.0,125.0,121.0,-1.0,99.0,-69.0,127.0,127.0,127.0,-118.0,-90.0,-103.0
120.0,125.0,128.0,86.0,126.0,125.0,123.0,122.0,-1.0,99.0,-69.0,127.0,127.0,127.0,-118.0,-90.0,-103.0
120.0,125.0,129.0,85.0,126.0,125.0,123.0,123.0,-1.0,99.0,-69.0,127.0,127.0,127.0,-118.0,-90.0,-103.0
120.0,125.0,128.0,85.0,126.0,124.0,123.0,123.0,-1.0,99.0,-69.0,127.0,127.0,127.0,-118.0,-90.0,-103.0
120.0,125.0,129.0,85.0,126.0,124.0,123.0,123.0,-1.0,99.0,-69.0,127.0,127.0,127.0,-118.0,-90.0,-103.0
120.0,125.0,129.0,85.0,126.0,124.0,122.0,123.0,-1.0,99.0,-69.0,127.0,127.0,127.0,-118.0,-90.0,-103.0
120.0,125.0,129.0,84.0,126.0,124.0,122.0,123.0,-1.0,99.0,-69.0,127.0,127.0,127.0,-118.0,-90.0,-103.0
120.0,125.0,129.0,84.0,125.0,124.0,122.0,123.0,-1.0,99.0,-69.0,127.0,127.0,127.0,-118.0,-90.0,-103.0
120.0,125.0,129.0,84.0,125.0,124.0,122.0,123.0,-1.0,99.0,-69.0,127.0,127.0,127.0,-118.0,-90.0,-103.0
120.0,125.0,129.0,83.0,125.0,124.0,122.0,123.0,-1.0,99.0,-69.0,127.0,127.0,127.0,-118.0,-90.0,-103.0
120.0,125.0,129.0,83.0,125.0,124.0,122.0,123.0,-1.0,99.0,-69.0,127.0,127.0,127.0,-118.0,-90.0,-103.0
120.0,126.0,129.0,77.0,126.0,126.0,119.0,127.0,-1.0,99.0,-69.0,-128.0,127.0,127.0,-117.0,-90.0,-103.0
120.0,126.0,129.0,77.0,126.0,126.0,119.0,127.0,-1.0,99.0,-69.0,-128.0,127.0,127.0,-117.0,-90.0,-103.0
120.0,126.0,129.0,77.0,126.0,126.0,119.0,127.0,-1.0,99.0,-69.0,-128.0,127.0,127.0,-117.0,-90.0,-103.0
120.0,126.0,129.0,77.0,126.0,127.0,119.0,127.0,-1.0,99.0,-69.0,-128.0,127.0,127.0,-117.0,-90.0,-103.0
120.0,126.0,129.0,77.0,126.0,127.0,119.0,127.0,-1.0,99.0,-69.0,-128.0,127.0,127.0,-117.0,-90.0,-103.0
120.0,126.0,130.0,77.0,126.0,127.0,119.0,127.0,-1.0,99.0,-69.0,-128.0,127.0,127.0,-117.0,-90.0,-103.0
120.0,126.0,129.0,77.0,126.0,127.0,119.0,127.0,-1.0,99.0,-69.0,-128.0,127.0,127.0,-117.0,-90.0,-103.0
120.0,126.0,129.0,77.0,126.0,127.0,119.0,127.0,-1.0,99.0,-69.0,-128.0,127.0,127.0,-117.0,-90.0,-103.0
120.0,126.0,129.0,77.0,126.0,126.0,120.0,127.0,-1.0,99.0,-69.0,-128.0,127.0,127.0,-117.0,-90.0,-103.0
120.0,126.0,129.0,77.0,126.0,126.0,119.0,126.0,-1.0,99.0,-69.0,-128.0,127.0,127.0,-117.0,-90.0,-103.0
120.0,126.0,129.0,76.0,126.0,127.0,124.0,130.0,-1.0,99.0,-69.0,-128.0,127.0,127.0,-117.0,-90.0,-103.0
120.0,127.0,129.0,76.0,126.0,128.0,124.0,130.0,-1.0,99.0,-69.0,-128.0,127.0,127.0,-117.0,-90.0,-103.0
120.0,127.0,130.0,76.0,126.0,127.0,124.0,131.0,-1.0,99.0,-69.0,-128.0,127.0,127.0,-117.0,-90.0,-103.0
120.0,127.0,130.0,76.0,126.0,127.0,124.0,130.0,-1.0,99.0,-69.0,-128.0,127.0,127.0,-117.0,-90.0,-103.0
120.0,126.0,130.0,75.0,126.0,127.0,124.0,130.0,-1.0,99.0,-69.0,-128.0,127.0,127.0,-117.0,-90.0,-103.0
120.0,127.0,130.0,75.0,126.0,127.0,124.0,130.0,-1.0,99.0,-69.0,-128.0,127.0,127.0,-117.0,-90.0,-103.0
120.0,127.0,130.0,75.0,126.0,127.0,125.0,130.0,-1.0,99.0,-69.0,-128.0,127.0,127.0,-117.0,-90.0,-103.0
120.0,127.0,130.0,74.0,126.0,127.0,125.0,130.0,-1.0,99.0,-69.0,-128.0,127.0,127.0,-117.0,-90.0,-103.0
121.0,127.0,129.0,77.0,127.0,128.0,124.0,131.0,-1.0,99.0,-69.0,-128.0,127.0,127.0,-117.0,-90.0,-103.0
121.0,126.0,129.0,77.0,127.0,128.0,124.0,130.0,-1.0,99.0,-69.0,-128.0,127.0,127.0,-117.0,-90.0,-103.0
122.0,127.0,129.0,75.0,126.0,127.0,127.0,132.0,-1.0,99.0,-69.0,-128.0,127.0,127.0,-116.0,-90.0,-103.0
122.0,127.0,129.0,75.0,126.0,127.0,127.0,132.0,-1.0,99.0,-69.0,-128.0,127.0,127.0,-116.0,-90.0,-103.0
122.0,127.0,129.0,75.0,126.0,127.0,127.0,132.0,-1.0,99.0,-69.0,-128.0,127.0,127.0,-116.0,-90.0,-103.0
122.0,127.0,129.0,75.0,126.0,127.0,127.0,132.0,-1.0,99.0,-69.0,-128.0,127.0,127.0,-116.0,-90.0,-103.0
122.0,127.0,129.0,75.0,126.0,127.0,127.0,132.0,-1.0,99.0,-69.0,-128.0,127.0,127.0,-116.0,-90.0,-103.0
122.0,127.0,129.0,75.0,126.0,127.0,127.0,132.0,-1.0,99.0,-69.0,-128.0,127.0,127.0,-116.0,-90.0,-103.0
122.0,127.0,129.0,75.0,126.0,127.0,127.0,132.0,-1.0,99.0,-69.0,-128.0,127.0,127.0,-116.0,-90.0,-103.0
122.0,127.0,128.0,74.0,126.0,127.0,127.0,132.0,-1.0,99.0,-69.0,-128.0,127.0,127.0,-116.0,-90.0,-103.0
122.0,127.0,129.0,75.0,126.0,127.0,127.0,132.0,-1.0,99.0,-69.0,-128.0,127.0,127.0,-116.0,-90.0,-103.0
122.0,127.0,129.0,75.0,126.0,127.0,127.0,132.0,-1.0,99.0,-69.0,-128.0,127.0,127.0,-116.0,-90.0,-103.0
123.0,127.0,128.0,81.0,127.0,127.0,128.0,133.0,-1.0,99.0,-69.0,-127.0,127.0,127.0,-116.0,-90.0,-103.0
123.0,127.0,128.0,82.0,127.0,127.0,128.0,133.0,-1.0,99.0,-69.0,-127.0,127.0,127.0,-116.0,-90.0,-103.0
123.0,127.0,128.0,82.0,127.0,127.0,128.0,134.0,-1.0,99.0,-69.0,-127.0,127.0,127.0,-116.0,-90.0,-103.0
123.0,127.0,128.0,82.0,127.0,127.0,128.0,134.0,-1.0,99.0,-69.0,-127.0,127.0,127.0,-116.0,-90.0,-103.0
123.0,127.0,128.0,82.0,127.0,127.0,128.0,134.0,-1.0,99.0,-69.0,-127.0,127.0,127.0,-116.0,-90.0,-103.0
123.0,127.0,127.0,82.0,127.0,127.0,128.0,134.0,-1.0,99.0,-69.0,-127.0,127.0,127.0,-116.0,-90.0,-103.0
123.0,127.0,128.0,81.0,126.0,127.0,128.0,133.0,-1.0,99.0,-69.0,-127.0,127.0,127.0,-116.0,-90.0,-103.0
123.0,127.0,128.0,81.0,126.0,127.0,128.0,133.0,-1.0,99.0,-69.0,-127.0,127.0,127.0,-116.0,-90.0,-103.0
123.0,127.0,128.0,81.0,126.0,127.0,128.0,133.0,-1.0,99.0,-69.0,-127.0,127.0,127.0,-116.0,-90.0,-103.0
123.0,127.0,128.0,81.0,127.0,127.0,128.0,133.0,-1.0,99.0,-69.0,-127.0,127.0,127.0,-116.0,-90.0,-103.0
124.0,127.0,127.0,88.0,127.0,126.0,129.0,135.0,-1.0,101.0,-68.0,-127.0,127.0,127.0,-116.0,-90.0,-103.0
124.0,128.0,127.0,88.0,127.0,126.0,129.0,135.0,-1.0,101.0,-68.0,-127.0,127.0,127.0,-116.0,-90.0,-103.0
124.0,128.0,127.0,88.0,127.0,126.0,129.0,135.0,-1.0,101.0,-68.0,-127.0,127.0,127.0,-116.0,-90.0,-103.0
124.0,128.0,127.0,88.0,127.0,126.0,129.0,135.0,-1.0,101.0,-68.0,-127.0,127.0,127.0,-116.0,-90.0,-103.0
124.0,128.0,127.0,88.0,127.0,126.0,129.0,135.0,-1.0,101.0,-68.0,-127.0,127.0,127.0,-116.0,-90.0,-103.0
125.0,128.0,127.0,87.0,128.0,127.0,131.0,136.0,-1.0,101.0,-68.0,-127.0,127.0,127.0,-116.0,-90.0,-103.0
125.0,128.0,127.0,87.0,128.0,127.0,131.0,136.0,-1.0,101.0,-68.0,-127.0,127.0,127.0,-116.0,-90.0,-103.0
124.0,128.0,127.0,87.0,128.0,127.0,130.0,135.0,-1.0,101.0,-68.0,-127.0,127.0,127.0,-116.0,-90.0,-103.0
124.0,127.0,127.0,87.0,128.0,126.0,130.0,135.0,-1.0,101.0,-68.0,-127.0,127.0,127.0,-116.0,-90.0,-103.0
124.0,127.0,127.0,87.0,127.0,126.0,129.0,135.0,-1.0,101.0,-68.0,-127.0,127.0,127.0,-116.0,-90.0,-103.0
125.0,129.0,128.0,96.0,126.0,126.0,128.0,138.0,-1.0,102.0,-68.0,-127.0,127.0,127.0,-116.0,-90.0,-103.0
126.0,129.0,128.0,97.0,126.0,126.0,128.0,138.0,-1.0,102.0,-68.0,-127.0,127.0,127.0,-116.0,-90.0,-103.0
126.0,129.0,127.0,97.0,126.0,126.0,128.0,138.0,-1.0,102.0,-68.0,-127.0,127.0,127.0,-116.0,-90.0,-103.0
126.0,129.0,127.0,97.0,126.0,126.0,128.0,138.0,-1.0,102.0,-68.0,-127.0,127.0,127.0,-116.0,-90.0,-103.0
126.0,129.0,127.0,95.0,126.0,126.0,129.0,137.0,-1.0,102.0,-68.0,-127.0,127.0,127.0,-116.0,-90.0,-103.0
126.0,129.0,127.0,96.0,126.0,126.0,129.0,137.0,-1.0,102.0,-68.0,-127.0,127.0,127.0,-116.0,-90.0,-103.0
126.0,129.0,127.0,96.0,126.0,126.0,129.0,137.0,-1.0,102.0,-68.0,-127.0,127.0,127.0,-116.0,-90.0,-103.0
126.0,129.0,128.0,96.0,126.0,126.0,129.0,137.0,-1.0,102.0,-68.0,-127.0,127.0,127.0,-116.0,-90.0,-103.0
126.0,129.0,128.0,96.0,126.0,126.0,128.0,137.0,-1.0,102.0,-68.0,-127.0,127.0,127.0,-116.0,-90.0,-103.0
126.0,129.0,128.0,96.0,126.0,126.0,128.0,137.0,-1.0,102.0,-68.0,-127.0,127.0,127.0,-116.0,-90.0,-103.0
126.0,130.0,128.0,102.0,127.0,127.0,129.0,139.0,-1.0,103.0,-68.0,-127.0,127.0,127.0,-116.0,-90.0,-103.0
126.0,130.0,128.0,102.0,127.0,127.0,129.0,139.0,-1.0,103.0,-68.0,-127.0,127.0,127.0,-116.0,-90.0,-103.0
126.0,130.0,128.0,102.0,127.0,127.0,130.0,139.0,-1.0,103.0,-68.0,-127.0,127.0,127.0,-116.0,-90.0,-103.0
126.0,130.0,127.0,102.0,126.0,127.0,129.0,139.0,-1.0,103.0,-68.0,-127.0,127.0,127.0,-116.0,-90.0,-103.0
126.0,130.0,127.0,102.0,126.0,127.0,129.0,139.0,-1.0,103.0,-68.0,-127.0,127.0,127.0,-116.0,-90.0,-103.0
126.0,130.0,127.0,102.0,126.0,127.0,129.0,139.0,-1.0,103.0,-68.0,-127.0,127.0,127.0,-116.0,-90.0,-103.0
126.0,130.0,127.0,102.0,126.0,127.0,129.0,139.0,-1.0,103.0,-68.0,-127.0,127.0,127.0,-116.0,-90.0,-103.0
126.0,130.0,128.0,102.0,127.0,127.0,129.0,139.0,-1.0,103.0,-68.0,-127.0,127.0,127.0,-116.0,-90.0,-103.0
126.0,130.0,128.0,102.0,127.0,127.0,129.0,139.0,-1.0,103.0,-68.0,-127.0,127.0,127.0,-116.0,-90.0,-103.0
126.0,130.0,128.0,102.0,127.0,127.0,129.0,139.0,-1.0,103.0,-68.0,-127.0,127.0,127.0,-116.0,-90.0,-103.0
125.0,130.0,129.0,103.0,126.0,127.0,132.0,139.0,-1.0,104.0,-67.0,-127.0,127.0,127.0,-116.0,-90.0,-103.0
125.0,130.0,129.0,103.0,126.0,127.0,132.0,139.0,-1.0,104.0,-67.0,-127.0,127.0,127.0,-116.0,-90.0,-103.0
126.0,130.0,128.0,103.0,127.0,128.0,135.0,140.0,-1.0,104.0,-67.0,-127.0,127.0,127.0,-116.0,-90.0,-103.0
126.0,130.0,128.0,103.0,127.0,128.0,135.0,140.0,-1.0,104.0,-67.0,-127.0,127.0,127.0,-116.0,-90.0,-103.0
126.0,130.0,128.0,103.0,127.0,128.0,135.0,140.0,-1.0,104.0,-67.0,-127.0,127.0,127.0,-116.0,-90.0,-103.0
126.0,130.0,129.0,103.0,126.0,127.0,134.0,140.0,-1.0,104.0,-67.0,-127.0,127.0,127.0,-116.0,-90.0,-103.0
126.0,130.0,129.0,103.0,126.0,127.0,134.0,140.0,-1.0,104.0,-67.0,-127.0,127.0,127.0,-116.0,-90.0,-103.0
125.0,130.0,129.0,103.0,126.0,127.0,133.0,140.0,-1.0,104.0,-67.0,-127.0,127.0,127.0,-116.0,-90.0,-103.0
125.0,130.0,129.0,103.0,126.0,127.0,133.0,140.0,-1.0,104.0,-67.0,-127.0,127.0,127.0,-116.0,-90.0,-103.0
125.0,130.0,129.0,103.0,126.0,127.0,133.0,140.0,-1.0,104.0,-67.0,-127.0,127.0,127.0,-116.0,-90.0,-103.0
127.0,130.0,128.0,108.0,127.0,127.0,134.0,141.0,-1.0,105.0,-67.0,-127.0,127.0,127.0,-116.0,-90.0,-103.0
127.0,131.0,128.0,107.0,127.0,127.0,132.0,141.0,-1.0,105.0,-67.0,-127.0,127.0,127.0,-116.0,-90.0,-103.0
127.0,130.0,128.0,107.0,127.0,127.0,132.0,141.0,-1.0,105.0,-67.0,-127.0,127.0,127.0,-116.0,-90.0,-103.0
127.0,130.0,128.0,107.0,127.0,127.0,132.0,141.0,-1.0,105.0,-67.0,-127.0,127.0,127.0,-116.0,-90.0,-103.0
127.0,130.0,128.0,107.0,127.0,127.0,133.0,141.0,-1.0,105.0,-67.0,-127.0,127.0,127.0,-116.0,-90.0,-103.0
127.0,130.0,128.0,107.0,127.0,127.0,133.0,141.0,-1.0,105.0,-67.0,-127.0,127.0,127.0,-116.0,-90.0,-103.0
127.0,130.0,128.0,107.0,127.0,127.0,133.0,141.0,-1.0,105.0,-67.0,-127.0,127.0,127.0,-116.0,-90.0,-103.0
127.0,130.0,128.0,107.0,127.0,127.0,133.0,141.0,-1.0,105.0,-67.0,-127.0,127.0,127.0,-116.0,-90.0,-103.0
127.0,130.0,128.0,108.0,127.0,127.0,133.0,141.0,-1.0,105.0,-67.0,-127.0,127.0,127.0,-116.0,-90.0,-103.0
127.0,130.0,128.0,108.0,127.0,127.0,134.0,141.0,-1.0,105.0,-67.0,-127.0,127.0,127.0,-116.0,-90.0,-103.0
129.0,130.0,125.0,108.0,127.0,126.0,131.0,139.0,-1.0,106.0,-66.0,-127.0,127.0,127.0,-116.0,-90.0,-103.0
129.0,130.0,126.0,108.0,127.0,126.0,131.0,139.0,-1.0,106.0,-66.0,-127.0,127.0,127.0,-116.0,-90.0,-103.0
128.0,130.0,126.0,108.0,127.0,126.0,131.0,139.0,-1.0,106.0,-66.0,-127.0,127.0,127.0,-116.0,-90.0,-103.0
128.0,130.0,126.0,108.0,127.0,126.0,131.0,139.0,-1.0,106.0,-66.0,-127.0,127.0,127.0,-116.0,-90.0,-103.0
128.0,130.0,126.0,108.0,127.0,126.0,131.0,139.0,-1.0,106.0,-66.0,-127.0,127.0,127.0,-116.0,-90.0,-103.0
128.0,130.0,126.0,108.0,127.0,126.0,130.0,139.0,-1.0,106.0,-66.0,-127.0,127.0,127.0,-116.0,-90.0,-103.0
128.0,130.0,126.0,108.0,127.0,126.0,130.0,139.0,-1.0,106.0,-66.0,-127.0,127.0,127.0,-116.0,-90.0,-103.0
128.0,130.0,126.0,108.0,127.0,126.0,130.0,139.0,-1.0,106.0,-66.0,-127.0,127.0,127.0,-116.0,-90.0,-103.0
128.0,130.0,126.0,108.0,127.0,126.0,130.0,139.0,-1.0,106.0,-66.0,-127.0,127.0,127.0,-116.0,-90.0,-103.0
128.0,130.0,126.0,108.0,127.0,126.0,130.0,139.0,-1.0,106.0,-66.0,-127.0,127.0,127.0,-116.0,-90.0,-103.0
129.0,131.0,123.0,109.0,127.0,125.0,129.0,137.0,-1.0,107.0,-66.0,-127.0,127.0,127.0,-116.0,-90.0,-103.0
129.0,131.0,123.0,109.0,127.0,125.0,128.0,137.0,-1.0,107.0,-66.0,-127.0,127.0,127.0,-116.0,-90.0,-103.0
129.0,131.0,124.0,109.0,127.0,126.0,128.0,137.0,-1.0,107.0,-66.0,-127.0,127.0,127.0,-116.0,-90.0,-103.0
129.0,131.0,124.0,109.0,128.0,126.0,128.0,137.0,-1.0,107.0,-66.0,-127.0,127.0,127.0,-116.0,-90.0,-103.0
129.0,130.0,124.0,109.0,128.0,126.0,127.0,138.0,-1.0,107.0,-66.0,-127.0,127.0,127.0,-116.0,-90.0,-103.0
128.0,130.0,124.0,109.0,128.0,126.0,127.0,138.0,-1.0,107.0,-66.0,-127.0,127.0,127.0,-116.0,-90.0,-103.0
128.0,130.0,124.0,109.0,128.0,126.0,127.0,138.0,-1.0,107.0,-66.0,-127.0,127.0,127.0,-116.0,-90.0,-103.0
128.0,130.0,124.0,109.0,128.0,126.0,127.0,138.0,-1.0,107.0,-66.0,-127.0,127.0,127.0,-116.0,-90.0,-103.0
128.0,130.0,124.0,109.0,128.0,126.0,127.0,138.0,-1.0,107.0,-66.0,-127.0,127.0,127.0,-116.0,-90.0,-103.0
129.0,131.0,123.0,109.0,127.0,125.0,129.0,137.0,-1.0,107.0,-66.0,-127.0,127.0,127.0,-116.0,-90.0,-103.0
130.0,132.0,126.0,114.0,126.0,125.0,130.0,138.0,-1.0,107.0,-65.0,-127.0,127.0,127.0,-116.0,-90.0,-103.0
130.0,132.0,127.0,114.0,126.0,125.0,130.0,138.0,-1.0,107.0,-65.0,-127.0,127.0,127.0,-116.0,-90.0,-103.0
130.0,132.0,127.0,114.0,125.0,125.0,130.0,138.0,-1.0,107.0,-65.0,-127.0,127.0,127.0,-116.0,-90.0,-103.0
130.0,132.0,127.0,114.0,125.0,125.0,130.0,138.0,-1.0,107.0,-65.0,-127.0,127.0,127.0,-116.0,-90.0,-103.0
129.0,131.0,127.0,114.0,125.0,125.0,130.0,138.0,-1.0,107.0,-65.0,-127.0,127.0,127.0,-116.0,-90.0,-103.0
129.0,132.0,127.0,114.0,125.0,125.0,130.0,138.0,-1.0,107.0,-65.0,-127.0,127.0,127.0,-116.0,-90.0,-103.0
129.0,132.0,127.0,114.0,125.0,125.0,130.0,138.0,-1.0,107.0,-65.0,-127.0,127.0,127.0,-116.0,-90.0,-103.0
130.0,132.0,127.0,114.0,125.0,125.0,130.0,138.0,-1.0,107.0,-65.0,-127.0,127.0,127.0,-116.0,-90.0,-103.0
130.0,132.0,126.0,113.0,126.0,125.0,130.0,138.0,-1.0,107.0,-65.0,-127.0,127.0,127.0,-116.0,-90.0,-103.0
130.0,132.0,126.0,114.0,126.0,125.0,130.0,138.0,-1.0,107.0,-65.0,-127.0,127.0,127.0,-116.0,-90.0,-103.0
131.0,131.0,129.0,118.0,126.0,126.0,131.0,139.0,-1.0,108.0,-65.0,-127.0,127.0,127.0,-116.0,-90.0,-103.0
131.0,131.0,129.0,118.0,126.0,126.0,131.0,139.0,-1.0,108.0,-65.0,-127.0,127.0,127.0,-116.0,-90.0,-103.0
131.0,131.0,129.0,118.0,126.0,126.0,131.0,139.0,-1.0,108.0,-65.0,-127.0,127.0,127.0,-116.0,-90.0,-103.0
131.0,131.0,130.0,118.0,126.0,126.0,130.0,139.0,-1.0,108.0,-65.0,-127.0,127.0,127.0,-116.0,-90.0,-103.0
131.0,131.0,129.0,118.0,126.0,126.0,130.0,139.0,-1.0,108.0,-65.0,-127.0,127.0,127.0,-116.0,-90.0,-103.0
131.0,131.0,129.0,118.0,126.0,126.0,130.0,139.0,-1.0,108.0,-65.0,-127.0,127.0,127.0,-116.0,-90.0,-103.0
131.0,131.0,129.0,118.0,126.0,126.0,130.0,139.0,-1.0,108.0,-65.0,-127.0,127.0,127.0,-116.0,-90.0,-103.0
131.0,132.0,128.0,118.0,126.0,126.0,132.0,139.0,-1.0,108.0,-65.0,-127.0,127.0,127.0,-116.0,-90.0,-103.0
131.0,132.0,129.0,118.0,126.0,126.0,131.0,139.0,-1.0,108.0,-65.0,-127.0,127.0,127.0,-116.0,-90.0,-103.0
131.0,132.0,129.0,118.0,126.0,126.0,131.0,139.0,-1.0,108.0,-65.0,-127.0,127.0,127.0,-116.0,-90.0,-103.0
131.0,131.0,130.0,119.0,126.0,125.0,126.0,139.0,-1.0,108.0,-65.0,-127.0,127.0,127.0,-116.0,-90.0,-103.0
131.0,131.0,130.0,119.0,126.0,125.0,126.0,139.0,-1.0,108.0,-65.0,-127.0,127.0,127.0,-116.0,-90.0,-103.0
131.0,130.0,130.0,119.0,126.0,125.0,126.0,139.0,-1.0,108.0,-65.0,-127.0,127.0,127.0,-116.0,-90.0,-103.0
131.0,131.0,130.0,119.0,126.0,125.0,126.0,139.0,-1.0,108.0,-65.0,-127.0,127.0,127.0,-116.0,-90.0,-103.0
131.0,131.0,129.0,119.0,126.0,125.0,125.0,139.0,-1.0,108.0,-65.0,-127.0,127.0,127.0,-116.0,-90.0,-103.0
131.0,131.0,129.0,119.0,126.0,126.0,125.0,139.0,-1.0,108.0,-65.0,-127.0,127.0,127.0,-116.0,-90.0,-103.0
131.0,131.0,129.0,119.0,126.0,125.0,128.0,138.0,-1.0,108.0,-65.0,-127.0,127.0,127.0,-116.0,-90.0,-103.0
131.0,131.0,129.0,119.0,125.0,125.0,127.0,138.0,-1.0,108.0,-65.0,-127.0,127.0,127.0,-116.0,-90.0,-103.0
131.0,131.0,129.0,119.0,126.0,125.0,127.0,139.0,-1.0,108.0,-65.0,-127.0,127.0,127.0,-116.0,-90.0,-103.0
131.0,131.0,129.0,119.0,126.0,125.0,127.0,139.0,-1.0,108.0,-65.0,-127.0,127.0,127.0,-116.0,-90.0,-103.0
132.0,130.0,128.0,122.0,126.0,124.0,121.0,140.0,-1.0,108.0,-64.0,-127.0,127.0,127.0,-116.0,-90.0,-103.0
132.0,130.0,128.0,122.0,126.0,124.0,121.0,140.0,-1.0,108.0,-64.0,-127.0,127.0,127.0,-116.0,-90.0,-103.0
132.0,130.0,128.0,122.0,126.0,124.0,121.0,140.0,-1.0,108.0,-64.0,-127.0,127.0,127.0,-116.0,-90.0,-103.0
132.0,130.0,128.0,122.0,125.0,124.0,120.0,140.0,-1.0,108.0,-64.0,-127.0,127.0,127.0,-116.0,-90.0,-103.0
132.0,130.0,127.0,122.0,125.0,124.0,120.0,140.0,-1.0,108.0,-64.0,-127.0,127.0,127.0,-116.0,-90.0,-103.0
132.0,130.0,127.0,122.0,126.0,125.0,123.0,139.0,-1.0,108.0,-64.0,-127.0,127.0,127.0,-116.0,-90.0,-103.0
132.0,130.0,127.0,122.0,126.0,125.0,122.0,140.0,-1.0,108.0,-64.0,-127.0,127.0,127.0,-116.0,-90.0,-103.0
132.0,130.0,127.0,122.0,126.0,125.0,122.0,140.0,-1.0,108.0,-64.0,-127.0,127.0,127.0,-116.0,-90.0,-103.0
132.0,130.0,127.0,122.0,126.0,125.0,122.0,140.0,-1.0,108.0,-64.0,-127.0,127.0,127.0,-116.0,-90.0,-103.0
132.0,130.0,127.0,122.0,126.0,124.0,121.0,140.0,-1.0,108.0,-64.0,-127.0,127.0,127.0,-116.0,-90.0,-103.0
130.0,129.0,126.0,124.0,125.0,124.0,118.0,138.0,-1.0,108.0,-64.0,-127.0,127.0,127.0,-116.0,-90.0,-103.0
130.0,129.0,126.0,124.0,125.0,124.0,118.0,138.0,-1.0,108.0,-64.0,-127.0,127.0,127.0,-116.0,-90.0,-103.0
130.0,129.0,126.0,124.0,125.0,124.0,118.0,138.0,-1.0,108.0,-64.0,-127.0,127.0,127.0,-116.0,-90.0,-103.0
130.0,129.0,126.0,124.0,125.0,124.0,118.0,138.0,-1.0,108.0,-64.0,-127.0,127.0,127.0,-116.0,-90.0,-103.0
131.0,129.0,126.0,124.0,125.0,126.0,120.0,138.0,-1.0,108.0,-64.0,-127.0,127.0,127.0,-116.0,-90.0,-103.0
131.0,129.0,126.0,124.0,125.0,126.0,119.0,138.0,-1.0,108.0,-64.0,-127.0,127.0,127.0,-116.0,-90.0,-103.0
131.0,129.0,126.0,124.0,125.0,126.0,119.0,138.0,-1.0,108.0,-64.0,-127.0,127.0,127.0,-116.0,-90.0,-103.0
131.0,129.0,126.0,124.0,125.0,125.0,119.0,138.0,-1.0,108.0,-64.0,-127.0,127.0,127.0,-116.0,-90.0,-103.0
131.0,129.0,126.0,124.0,125.0,125.0,119.0,138.0,-1.0,108.0,-64.0,-127.0,127.0,127.0,-116.0,-90.0,-103.0
131.0,129.0,126.0,124.0,125.0,125.0,118.0,138.0,-1.0,108.0,-64.0,-127.0,127.0,127.0,-116.0,-90.0,-103.0
128.0,127.0,126.0,127.0,126.0,126.0,120.0,135.0,-1.0,109.0,-63.0,-127.0,127.0,127.0,-116.0,-90.0,-103.0
128.0,128.0,126.0,127.0,126.0,126.0,120.0,135.0,-1.0,109.0,-63.0,-127.0,127.0,127.0,-116.0,-90.0,-103.0
128.0,128.0,126.0,127.0,126.0,126.0,120.0,135.0,-1.0,109.0,-63.0,-127.0,127.0,127.0,-116.0,-90.0,-103.0
128.0,128.0,125.0,127.0,125.0,125.0,121.0,135.0,-1.0,109.0,-63.0,-127.0,127.0,127.0,-116.0,-90.0,-103.0
128.0,128.0,125.0,127.0,125.0,125.0,121.0,135.0,-1.0,109.0,-63.0,-127.0,127.0,127.0,-116.0,-90.0,-103.0
128.0,128.0,125.0,127.0,125.0,125.0,120.0,135.0,-1.0,109.0,-63.0,-127.0,127.0,127.0,-116.0,-90.0,-103.0
128.0,128.0,125.0,127.0,125.0,126.0,120.0,135.0,-1.0,109.0,-63.0,-127.0,127.0,127.0,-116.0,-90.0,-103.0
128.0,128.0,125.0,127.0,125.0,126.0,120.0,135.0,-1.0,109.0,-63.0,-127.0,127.0,127.0,-116.0,-90.0,-103.0
128.0,127.0,126.0,127.0,125.0,126.0,120.0,135.0,-1.0,109.0,-63.0,-127.0,127.0,127.0,-116.0,-90.0,-103.0
128.0,127.0,126.0,127.0,125.0,126.0,120.0,135.0,-1.0,109.0,-63.0,-127.0,127.0,127.0,-116.0,-90.0,-103.0
127.0,127.0,126.0,127.0,126.0,125.0,120.0,134.0,-1.0,110.0,-63.0,-128.0,127.0,127.0,-116.0,-90.0,-103.0
127.0,127.0,126.0,127.0,126.0,125.0,120.0,134.0,-1.0,110.0,-63.0,-128.0,127.0,127.0,-116.0,-90.0,-103.0
128.0,127.0,125.0,128.0,126.0,125.0,122.0,133.0,-1.0,110.0,-63.0,-128.0,127.0,127.0,-116.0,-90.0,-103.0
128.0,127.0,125.0,128.0,126.0,125.0,122.0,134.0,-1.0,110.0,-63.0,-128.0,127.0,127.0,-116.0,-90.0,-103.0
128.0,127.0,125.0,128.0,126.0,125.0,121.0,134.0,-1.0,110.0,-63.0,-128.0,127.0,127.0,-116.0,-90.0,-103.0
127.0,127.0,125.0,128.0,126.0,125.0,121.0,134.0,-1.0,110.0,-63.0,-128.0,127.0,127.0,-116.0,-90.0,-103.0
127.0,127.0,126.0,128.0,126.0,125.0,121.0,134.0,-1.0,110.0,-63.0,-128.0,127.0,127.0,-116.0,-90.0,-103.0
127.0,127.0,126.0,127.0,126.0,125.0,121.0,134.0,-1.0,110.0,-63.0,-128.0,127.0,127.0,-116.0,-90.0,-103.0
127.0,127.0,126.0,127.0,126.0,125.0,121.0,134.0,-1.0,110.0,-63.0,-128.0,127.0,127.0,-116.0,-90.0,-103.0
127.0,127.0,126.0,127.0,126.0,125.0,120.0,134.0,-1.0,110.0,-63.0,-128.0,127.0,127.0,-116.0,-90.0,-103.0
127.0,127.0,130.0,127.0,127.0,126.0,122.0,134.0,-1.0,111.0,-62.0,-128.0,127.0,127.0,-117.0,-90.0,-103.0
128.0,127.0,128.0,127.0,126.0,126.0,123.0,133.0,-1.0,111.0,-62.0,-128.0,127.0,127.0,-117.0,-90.0,-103.0
128.0,127.0,129.0,127.0,126.0,126.0,123.0,133.0,-1.0,111.0,-62.0,-128.0,127.0,127.0,-117.0,-90.0,-103.0
127.0,127.0,129.0,127.0,126.0,126.0,122.0,133.0,-1.0,111.0,-62.0,-128.0,127.0,127.0,-117.0,-90.0,-103.0
127.0,127.0,129.0,127.0,126.0,126.0,122.0,134.0,-1.0,111.0,-62.0,-128.0,127.0,127.0,-117.0,-90.0,-103.0
127.0,127.0,129.0,127.0,127.0,126.0,122.0,134.0,-1.0,111.0,-62.0,-128.0,127.0,127.0,-117.0,-90.0,-103.0
127.0,127.0,129.0,127.0,127.0,126.0,122.0,134.0,-1.0,111.0,-62.0,-128.0,127.0,127.0,-117.0,-90.0,-103.0
127.0,127.0,130.0,127.0,127.0,126.0,122.0,134.0,-1.0,111.0,-62.0,-128.0,127.0,127.0,-117.0,-90.0,-103.0
127.0,127.0,130.0,127.0,127.0,126.0,122.0,134.0,-1.0,111.0,-62.0,-128.0,127.0,127.0,-117.0,-90.0,-103.0
127.0,127.0,130.0,127.0,127.0,126.0,122.0,134.0,-1.0,111.0,-62.0,-128.0,127.0,127.0,-117.0,-90.0,-103.0
128.0,127.0,130.0,129.0,126.0,126.0,124.0,134.0,-1.0,111.0,-61.0,-128.0,127.0,127.0,-117.0,-90.0,-103.0
128.0,127.0,130.0,129.0,126.0,126.0,124.0,134.0,-1.0,111.0,-61.0,-128.0,127.0,127.0,-117.0,-90.0,-103.0
128.0,127.0,130.0,129.0,126.0,126.0,123.0,134.0,-1.0,111.0,-61.0,-128.0,127.0,127.0,-117.0,-90.0,-103.0
127.0,127.0,131.0,129.0,126.0,126.0,123.0,134.0,-1.0,111.0,-61.0,-128.0,127.0,127.0,-117.0,-90.0,-103.0
127.0,127.0,131.0,129.0,126.0,126.0,123.0,134.0,-1.0,111.0,-61.0,-128.0,127.0,127.0,-117.0,-90.0,-103.0
127.0,126.0,131.0,130.0,127.0,126.0,123.0,134.0,-1.0,111.0,-61.0,-128.0,127.0,127.0,-117.0,-90.0,-103.0
127.0,126.0,131.0,130.0,127.0,126.0,123.0,134.0,-1.0,111.0,-61.0,-128.0,127.0,127.0,-117.0,-90.0,-103.0
127.0,126.0,131.0,130.0,127.0,126.0,123.0,134.0,-1.0,111.0,-61.0,-128.0,127.0,127.0,-117.0,-90.0,-103.0
127.0,126.0,131.0,130.0,127.0,126.0,123.0,134.0,-1.0,111.0,-61.0,-128.0,127.0,127.0,-117.0,-90.0,-103.0
127.0,126.0,131.0,130.0,127.0,126.0,123.0,134.0,-1.0,111.0,-61.0,-128.0,127.0,127.0,-117.0,-90.0,-103.0
128.0,127.0,129.0,133.0,126.0,127.0,123.0,133.0,-1.0,111.0,-60.0,-128.0,127.0,127.0,-117.0,-90.0,-103.0
127.0,127.0,129.0,133.0,126.0,127.0,123.0,133.0,-1.0,111.0,-60.0,-128.0,127.0,127.0,-117.0,-90.0,-103.0
127.0,127.0,129.0,133.0,126.0,127.0,123.0,133.0,-1.0,111.0,-60.0,-128.0,127.0,127.0,-117.0,-90.0,-103.0
127.0,127.0,129.0,133.0,126.0,127.0,123.0,134.0,-1.0,111.0,-60.0,-128.0,127.0,127.0,-117.0,-90.0,-103.0
127.0,127.0,129.0,133.0,126.0,127.0,123.0,134.0,-1.0,111.0,-60.0,-128.0,127.0,127.0,-117.0,-90.0,-103.0
127.0,127.0,129.0,132.0,127.0,127.0,123.0,133.0,-1.0,111.0,-60.0,-128.0,127.0,127.0,-117.0,-90.0,-103.0
127.0,126.0,129.0,132.0,127.0,127.0,123.0,133.0,-1.0,111.0,-60.0,-128.0,127.0,127.0,-117.0,-90.0,-103.0
127.0,126.0,129.0,132.0,127.0,127.0,123.0,133.0,-1.0,111.0,-60.0,-128.0,127.0,127.0,-117.0,-90.0,-103.0
127.0,126.0,129.0,132.0,127.0,127.0,123.0,133.0,-1.0,111.0,-60.0,-128.0,127.0,127.0,-117.0,-90.0,-103.0
128.0,127.0,129.0,133.0,126.0,126.0,124.0,133.0,-1.0,111.0,-60.0,-128.0,127.0,127.0,-117.0,-90.0,-103.0
128.0,127.0,126.0,131.0,127.0,126.0,124.0,134.0,-1.0,111.0,-60.0,-128.0,127.0,127.0,-118.0,-90.0,-103.0
128.0,127.0,126.0,131.0,127.0,126.0,124.0,134.0,-1.0,111.0,-60.0,-128.0,127.0,127.0,-118.0,-90.0,-103.0
128.0,127.0,126.0,131.0,127.0,126.0,123.0,134.0,-1.0,111.0,-60.0,-128.0,127.0,127.0,-118.0,-90.0,-103.0
128.0,127.0,126.0,131.0,127.0,126.0,123.0,134.0,-1.0,111.0,-60.0,-128.0,127.0,127.0,-118.0,-90.0,-103.0
128.0,127.0,127.0,131.0,127.0,126.0,123.0,134.0,-1.0,111.0,-60.0,-128.0,127.0,127.0,-118.0,-90.0,-103.0
127.0,127.0,127.0,131.0,127.0,126.0,123.0,133.0,-1.0,111.0,-60.0,-128.0,127.0,127.0,-118.0,-90.0,-103.0
127.0,126.0,127.0,131.0,127.0,126.0,123.0,133.0,-1.0,111.0,-60.0,-128.0,127.0,127.0,-118.0,-90.0,-103.0
127.0,126.0,127.0,131.0,127.0,126.0,123.0,133.0,-1.0,111.0,-60.0,-128.0,127.0,127.0,-118.0,-90.0,-103.0
128.0,127.0,125.0,131.0,126.0,126.0,124.0,134.0,-1.0,111.0,-60.0,-128.0,127.0,127.0,-118.0,-90.0,-103.0
128.0,127.0,125.0,131.0,126.0,126.0,124.0,134.0,-1.0,111.0,-60.0,-128.0,127.0,127.0,-118.0,-90.0,-103.0
127.0,126.0,128.0,130.0,127.0,127.0,123.0,133.0,-1.0,110.0,-60.0,-128.0,127.0,127.0,-118.0,-90.0,-103.0
127.0,126.0,128.0,130.0,127.0,127.0,123.0,133.0,-1.0,110.0,-60.0,-128.0,127.0,127.0,-118.0,-90.0,-103.0
127.0,126.0,128.0,130.0,127.0,127.0,123.0,133.0,-1.0,110.0,-60.0,-128.0,127.0,127.0,-118.0,-90.0,-103.0
127.0,126.0,129.0,130.0,127.0,127.0,123.0,133.0,-1.0,110.0,-60.0,-128.0,127.0,127.0,-118.0,-90.0,-103.0
127.0,126.0,129.0,130.0,127.0,127.0,122.0,133.0,-1.0,110.0,-60.0,-128.0,127.0,127.0,-118.0,-90.0,-103.0
127.0,126.0,129.0,130.0,127.0,127.0,122.0,133.0,-1.0,110.0,-60.0,-128.0,127.0,127.0,-118.0,-90.0,-103.0
127.0,126.0,129.0,130.0,127.0,127.0,122.0,133.0,-1.0,110.0,-60.0,-128.0,127.0,127.0,-118.0,-90.0,-103.0
128.0,127.0,127.0,130.0,127.0,127.0,124.0,133.0,-1.0,110.0,-60.0,-128.0,127.0,127.0,-118.0,-90.0,-103.0
127.0,127.0,127.0,130.0,127.0,127.0,124.0,133.0,-1.0,110.0,-60.0,-128.0,127.0,127.0,-118.0,-90.0,-103.0
127.0,126.0,128.0,130.0,127.0,127.0,123.0,133.0,-1.0,110.0,-60.0,-128.0,127.0,127.0,-118.0,-90.0,-103.0
127.0,126.0,127.0,130.0,127.0,127.0,124.0,133.0,-1.0,111.0,-60.0,-128.0,127.0,127.0,-118.0,-90.0,-103.0
127.0,126.0,127.0,130.0,127.0,127.0,124.0,133.0,-1.0,111.0,-60.0,-128.0,127.0,127.0,-118.0,-90.0,-103.0
126.0,126.0,127.0,130.0,127.0,127.0,124.0,133.0,-1.0,111.0,-60.0,-128.0,127.0,127.0,-118.0,-90.0,-103.0
126.0,126.0,128.0,130.0,127.0,127.0,124.0,133.0,-1.0,111.0,-60.0,-128.0,127.0,127.0,-118.0,-90.0,-103.0
126.0,126.0,128.0,130.0,127.0,127.0,124.0,133.0,-1.0,111.0,-60.0,-128.0,127.0,127.0,-118.0,-90.0,-103.0
126.0,126.0,128.0,130.0,127.0,127.0,124.0,133.0,-1.0,111.0,-60.0,-128.0,127.0,127.0,-118.0,-90.0,-103.0
127.0,127.0,126.0,130.0,127.0,127.0,125.0,132.0,-1.0,111.0,-60.0,-128.0,127.0,127.0,-118.0,-90.0,-103.0
127.0,127.0,127.0,130.0,127.0,127.0,125.0,133.0,-1.0,111.0,-60.0,-128.0,127.0,127.0,-118.0,-90.0,-103.0
127.0,127.0,127.0,131.0,127.0,127.0,125.0,133.0,-1.0,111.0,-60.0,-128.0,127.0,127.0,-118.0,-90.0,-103.0
127.0,126.0,127.0,130.0,127.0,127.0,124.0,133.0,-1.0,111.0,-60.0,-128.0,127.0,127.0,-118.0,-90.0,-103.0
127.0,127.0,128.0,131.0,127.0,127.0,124.0,132.0,-1.0,111.0,-60.0,127.0,127.0,127.0,-118.0,-90.0,-103.0
127.0,127.0,129.0,131.0,127.0,127.0,124.0,132.0,-1.0,111.0,-60.0,127.0,127.0,127.0,-118.0,-90.0,-103.0
127.0,127.0,129.0,131.0,127.0,127.0,124.0,132.0,-1.0,111.0,-60.0,127.0,127.0,127.0,-118.0,-90.0,-103.0
126.0,126.0,129.0,131.0,127.0,126.0,124.0,132.0,-1.0,111.0,-60.0,127.0,127.0,127.0,-118.0,-90.0,-103.0
126.0,127.0,129.0,131.0,127.0,126.0,124.0,132.0,-1.0,111.0,-60.0,127.0,127.0,127.0,-118.0,-90.0,-103.0
127.0,127.0,127.0,131.0,127.0,127.0,126.0,132.0,-1.0,111.0,-60.0,127.0,127.0,127.0,-118.0,-90.0,-103.0
127.0,127.0,128.0,131.0,127.0,127.0,125.0,132.0,-1.0,111.0,-60.0,127.0,127.0,127.0,-118.0,-90.0,-103.0
127.0,127.0,128.0,131.0,127.0,127.0,125.0,132.0,-1.0,111.0,-60.0,127.0,127.0,127.0,-118.0,-90.0,-103.0
127.0,127.0,128.0,130.0,127.0,127.0,125.0,132.0,-1.0,111.0,-60.0,127.0,127.0,127.0,-118.0,-90.0,-103.0
127.0,127.0,128.0,131.0,127.0,127.0,124.0,132.0,-1.0,111.0,-60.0,127.0,127.0,127.0,-118.0,-90.0,-103.0
127.0,127.0,129.0,131.0,127.0,127.0,125.0,133.0,-1.0,112.0,-60.0,127.0,127.0,127.0,-118.0,-90.0,-103.0
126.0,126.0,129.0,131.0,127.0,127.0,125.0,133.0,-1.0,112.0,-60.0,127.0,127.0,127.0,-118.0,-90.0,-103.0
126.0,127.0,129.0,131.0,127.0,127.0,125.0,133.0,-1.0,112.0,-60.0,127.0,127.0,127.0,-118.0,-90.0,-103.0
126.0,126.0,129.0,131.0,127.0,127.0,125.0,133.0,-1.0,112.0,-60.0,127.0,127.0,127.0,-118.0,-90.0,-103.0
127.0,127.0,128.0,131.0,127.0,127.0,126.0,133.0,-1.0,112.0,-60.0,127.0,127.0,127.0,-118.0,-90.0,-103.0
127.0,127.0,128.0,131.0,127.0,127.0,126.0,133.0,-1.0,112.0,-60.0,127.0,127.0,127.0,-118.0,-90.0,-103.0
127.0,127.0,128.0,131.0,127.0,127.0,126.0,133.0,-1.0,112.0,-60.0,127.0,127.0,127.0,-118.0,-90.0,-103.0
127.0,127.0,128.0,131.0,127.0,127.0,126.0,133.0,-1.0,112.0,-60.0,127.0,127.0,127.0,-118.0,-90.0,-103.0
127.0,127.0,129.0,131.0,127.0,127.0,126.0,133.0,-1.0,112.0,-60.0,127.0,127.0,127.0,-118.0,-90.0,-103.0
127.0,127.0,129.0,131.0,127.0,127.0,125.0,133.0,-1.0,112.0,-60.0,127.0,127.0,127.0,-118.0,-90.0,-103.0
126.0,127.0,129.0,131.0,127.0,127.0,125.0,134.0,-1.0,112.0,-60.0,127.0,127.0,127.0,-119.0,-90.0,-103.0
126.0,127.0,129.0,131.0,127.0,127.0,125.0,134.0,-1.0,112.0,-60.0,127.0,127.0,127.0,-119.0,-90.0,-103.0
126.0,127.0,130.0,131.0,127.0,127.0,125.0,134.0,-1.0,112.0,-60.0,127.0,127.0,127.0,-119.0,-90.0,-103.0
127.0,127.0,128.0,131.0,127.0,127.0,126.0,133.0,-1.0,112.0,-60.0,127.0,127.0,127.0,-119.0,-90.0,-103.0
127.0,127.0,128.0,131.0,127.0,127.0,126.0,134.0,-1.0,112.0,-60.0,127.0,127.0,127.0,-119.0,-90.0,-103.0
127.0,127.0,128.0,131.0,127.0,127.0,126.0,134.0,-1.0,112.0,-60.0,127.0,127.0,127.0,-119.0,-90.0,-103.0
127.0,127.0,129.0,131.0,127.0,127.0,126.0,134.0,-1.0,112.0,-60.0,127.0,127.0,127.0,-119.0,-90.0,-103.0
127.0,127.0,129.0,131.0,127.0,127.0,125.0,134.0,-1.0,112.0,-60.0,127.0,127.0,127.0,-119.0,-90.0,-103.0
127.0,127.0,129.0,131.0,127.0,127.0,125.0,134.0,-1.0,112.0,-60.0,127.0,127.0,127.0,-119.0,-90.0,-103.0
127.0,127.0,129.0,131.0,127.0,127.0,125.0,134.0,-1.0,112.0,-60.0,127.0,127.0,127.0,-119.0,-90.0,-103.0
126.0,127.0,129.0,131.0,127.0,127.0,124.0,134.0,-1.0,113.0,-60.0,127.0,127.0,127.0,-119.0,-90.0,-103.0
126.0,127.0,129.0,131.0,127.0,127.0,124.0,134.0,-1.0,113.0,-60.0,127.0,127.0,127.0,-119.0,-90.0,-103.0
127.0,127.0,128.0,131.0,127.0,127.0,127.0,133.0,-1.0,113.0,-60.0,127.0,127.0,127.0,-119.0,-90.0,-103.0
127.0,127.0,128.0,131.0,127.0,127.0,126.0,133.0,-1.0,113.0,-60.0,127.0,127.0,127.0,-119.0,-90.0,-103.0
127.0,127.0,129.0,131.0,127.0,127.0,126.0,133.0,-1.0,113.0,-60.0,127.0,127.0,127.0,-119.0,-90.0,-103.0
127.0,127.0,129.0,131.0,127.0,127.0,126.0,133.0,-1.0,113.0,-60.0,127.0,127.0,127.0,-119.0,-90.0,-103.0
127.0,127.0,129.0,131.0,127.0,127.0,125.0,133.0,-1.0,113.0,-60.0,127.0,127.0,127.0,-119.0,-90.0,-103.0
126.0,127.0,129.0,131.0,127.0,127.0,125.0,133.0,-1.0,113.0,-60.0,127.0,127.0,127.0,-119.0,-90.0,-103.0
126.0,127.0,129.0,131.0,127.0,127.0,125.0,133.0,-1.0,113.0,-60.0,127.0,127.0,127.0,-119.0,-90.0,-103.0
126.0,127.0,129.0,131.0,127.0,127.0,124.0,134.0,-1.0,113.0,-60.0,127.0,127.0,127.0,-119.0,-90.0,-103.0
126.0,126.0,129.0,131.0,127.0,126.0,124.0,134.0,-1.0,113.0,-60.0,127.0,127.0,127.0,-120.0,-90.0,-103.0
127.0,127.0,128.0,131.0,127.0,126.0,126.0,133.0,-1.0,113.0,-60.0,127.0,127.0,127.0,-120.0,-90.0,-103.0
127.0,127.0,128.0,131.0,127.0,126.0,125.0,133.0,-1.0,113.0,-60.0,127.0,127.0,127.0,-120.0,-90.0,-103.0
127.0,126.0,128.0,131.0,127.0,126.0,125.0,133.0,-1.0,113.0,-60.0,127.0,127.0,127.0,-120.0,-90.0,-103.0
127.0,126.0,129.0,131.0,127.0,126.0,125.0,133.0,-1.0,113.0,-60.0,127.0,127.0,127.0,-120.0,-90.0,-103.0
126.0,126.0,129.0,131.0,127.0,126.0,124.0,134.0,-1.0,113.0,-60.0,127.0,127.0,127.0,-120.0,-90.0,-103.0
126.0,126.0,129.0,131.0,127.0,126.0,124.0,134.0,-1.0,113.0,-60.0,127.0,127.0,127.0,-120.0,-90.0,-103.0
126.0,126.0,129.0,131.0,127.0,126.0,124.0,134.0,-1.0,113.0,-60.0,127.0,127.0,127.0,-120.0,-90.0,-103.0
126.0,126.0,129.0,131.0,127.0,126.0,124.0,134.0,-1.0,113.0,-60.0,127.0,127.0,127.0,-120.0,-90.0,-103.0
126.0,126.0,129.0,131.0,127.0,126.0,124.0,134.0,-1.0,113.0,-60.0,127.0,127.0,127.0,-120.0,-90.0,-103.0
127.0,127.0,127.0,131.0,127.0,126.0,126.0,132.0,-1.0,114.0,-60.0,127.0,127.0,127.0,-120.0,-90.0,-103.0
127.0,127.0,127.0,131.0,127.0,126.0,125.0,133.0,-1.0,114.0,-60.0,127.0,127.0,127.0,-120.0,-90.0,-103.0
127.0,127.0,127.0,131.0,127.0,126.0,125.0,132.0,-1.0,114.0,-60.0,127.0,127.0,127.0,-120.0,-90.0,-103.0
126.0,126.0,128.0,131.0,127.0,126.0,125.0,133.0,-1.0,114.0,-60.0,127.0,127.0,127.0,-120.0,-90.0,-103.0
126.0,126.0,128.0,132.0,127.0,125.0,125.0,132.0,-1.0,114.0,-60.0,127.0,127.0,127.0,-120.0,-90.0,-103.0
126.0,126.0,128.0,131.0,127.0,126.0,124.0,132.0,-1.0,114.0,-60.0,127.0,127.0,127.0,-120.0,-90.0,-103.0
126.0,126.0,129.0,131.0,127.0,126.0,124.0,132.0,-1.0,114.0,-60.0,127.0,127.0,127.0,-120.0,-90.0,-103.0
126.0,126.0,129.0,131.0,127.0,126.0,124.0,132.0,-1.0,114.0,-60.0,127.0,127.0,127.0,-120.0,-90.0,-103.0
126.0,126.0,129.0,131.0,127.0,126.0,124.0,132.0,-1.0,114.0,-60.0,127.0,127.0,127.0,-120.0,-90.0,-103.0
126.0,126.0,129.0,131.0,127.0,126.0,124.0,132.0,-1.0,114.0,-60.0,127.0,127.0,127.0,-120.0,-90.0,-103.0
127.0,127.0,128.0,131.0,127.0,126.0,126.0,132.0,-1.0,114.0,-60.0,127.0,127.0,127.0,-120.0,-90.0,-103.0
127.0,127.0,128.0,131.0,127.0,126.0,126.0,132.0,-1.0,114.0,-60.0,127.0,127.0,127.0,-120.0,-90.0,-103.0
126.0,127.0,128.0,131.0,127.0,126.0,125.0,133.0,-1.0,114.0,-60.0,127.0,127.0,127.0,-120.0,-90.0,-103.0
126.0,127.0,129.0,131.0,127.0,126.0,125.0,133.0,-1.0,114.0,-60.0,127.0,127.0,127.0,-120.0,-90.0,-103.0
126.0,126.0,129.0,131.0,127.0,126.0,125.0,133.0,-1.0,114.0,-60.0,127.0,127.0,127.0,-120.0,-90.0,-103.0
126.0,126.0,129.0,131.0,127.0,126.0,125.0,133.0,-1.0,114.0,-60.0,127.0,127.0,127.0,-120.0,-90.0,-103.0
126.0,126.0,129.0,131.0,128.0,126.0,125.0,133.0,-1.0,114.0,-60.0,127.0,127.0,127.0,-120.0,-90.0,-103.0
126.0,126.0,129.0,131.0,127.0,126.0,125.0,133.0,-1.0,114.0,-60.0,127.0,127.0,127.0,-120.0,-90.0,-103.0
126.0,126.0,129.0,131.0,127.0,126.0,125.0,132.0,-1.0,114.0,-60.0,127.0,127.0,127.0,-120.0,-90.0,-103.0
127.0,127.0,127.0,131.0,127.0,126.0,126.0,132.0,-1.0,114.0,-60.0,127.0,127.0,127.0,-120.0,-90.0,-103.0
127.0,127.0,128.0,131.0,127.0,127.0,126.0,133.0,-1.0,114.0,-59.0,127.0,127.0,127.0,-120.0,-90.0,-103.0
126.0,127.0,128.0,131.0,127.0,127.0,126.0,133.0,-1.0,114.0,-59.0,127.0,127.0,127.0,-120.0,-90.0,-103.0
126.0,127.0,128.0,131.0,127.0,127.0,125.0,133.0,-1.0,114.0,-59.0,127.0,127.0,127.0,-120.0,-90.0,-103.0
126.0,127.0,128.0,131.0,127.0,127.0,125.0,133.0,-1.0,114.0,-59.0,127.0,127.0,127.0,-120.0,-90.0,-103.0
126.0,127.0,129.0,131.0,127.0,127.0,125.0,133.0,-1.0,114.0,-59.0,127.0,127.0,127.0,-120.0,-90.0,-103.0
126.0,127.0,129.0,131.0,127.0,127.0,125.0,132.0,-1.0,114.0,-59.0,127.0,127.0,127.0,-120.0,-90.0,-103.0
126.0,127.0,129.0,131.0,127.0,127.0,125.0,133.0,-1.0,114.0,-59.0,127.0,127.0,127.0,-120.0,-90.0,-103.0
126.0,127.0,129.0,131.0,127.0,127.0,124.0,133.0,-1.0,114.0,-59.0,127.0,127.0,127.0,-120.0,-90.0,-103.0
127.0,127.0,127.0,131.0,127.0,127.0,126.0,132.0,-1.0,114.0,-59.0,127.0,127.0,127.0,-120.0,-90.0,-103.0
127.0,127.0,127.0,131.0,127.0,127.0,126.0,132.0,-1.0,114.0,-59.0,127.0,127.0,127.0,-120.0,-90.0,-103.0
126.0,127.0,128.0,131.0,127.0,127.0,126.0,132.0,-1.0,114.0,-59.0,127.0,127.0,127.0,-120.0,-90.0,-103.0
126.0,127.0,128.0,131.0,127.0,127.0,126.0,131.0,-1.0,114.0,-59.0,127.0,127.0,127.0,-120.0,-90.0,-103.0
126.0,126.0,128.0,131.0,127.0,127.0,126.0,132.0,-1.0,114.0,-59.0,127.0,127.0,127.0,-120.0,-90.0,-103.0
125.0,126.0,128.0,131.0,127.0,127.0,126.0,132.0,-1.0,114.0,-59.0,127.0,127.0,127.0,-120.0,-90.0,-103.0
125.0,126.0,129.0,131.0,127.0,127.0,126.0,132.0,-1.0,114.0,-59.0,127.0,127.0,127.0,-120.0,-90.0,-103.0
125.0,126.0,128.0,131.0,127.0,126.0,125.0,132.0,-1.0,114.0,-59.0,127.0,127.0,127.0,-120.0,-90.0,-103.0
125.0,126.0,129.0,131.0,127.0,127.0,125.0,132.0,-1.0,114.0,-59.0,127.0,127.0,127.0,-120.0,-90.0,-103.0
126.0,127.0,127.0,131.0,127.0,127.0,127.0,131.0,-1.0,114.0,-59.0,127.0,127.0,127.0,-120.0,-90.0,-103.0
126.0,127.0,127.0,131.0,127.0,126.0,127.0,131.0,-1.0,114.0,-59.0,127.0,127.0,127.0,-120.0,-90.0,-103.0
126.0,127.0,127.0,131.0,127.0,127.0,126.0,131.0,-1.0,114.0,-59.0,127.0,127.0,127.0,-120.0,-90.0,-103.0
126.0,127.0,128.0,130.0,127.0,127.0,127.0,131.0,-1.0,113.0,-59.0,127.0,127.0,127.0,-120.0,-90.0,-103.0
126.0,126.0,128.0,130.0,127.0,127.0,126.0,131.0,-1.0,113.0,-59.0,127.0,127.0,127.0,-120.0,-90.0,-103.0
126.0,126.0,128.0,130.0,127.0,127.0,126.0,131.0,-1.0,113.0,-59.0,127.0,127.0,127.0,-120.0,-90.0,-103.0
126.0,126.0,128.0,130.0,127.0,127.0,126.0,131.0,-1.0,113.0,-59.0,127.0,127.0,127.0,-120.0,-90.0,-103.0
125.0,126.0,128.0,130.0,127.0,127.0,126.0,131.0,-1.0,113.0,-59.0,127.0,127.0,127.0,-120.0,-90.0,-103.0
125.0,126.0,128.0,130.0,127.0,127.0,125.0,131.0,-1.0,113.0,-59.0,127.0,127.0,127.0,-120.0,-90.0,-103.0
126.0,127.0,127.0,131.0,127.0,127.0,128.0,130.0,-1.0,113.0,-59.0,127.0,127.0,127.0,-120.0,-90.0,-103.0
126.0,127.0,127.0,130.0,127.0,127.0,127.0,130.0,-1.0,113.0,-59.0,127.0,127.0,127.0,-120.0,-90.0,-103.0
126.0,127.0,127.0,130.0,127.0,127.0,127.0,131.0,-1.0,113.0,-59.0,127.0,127.0,127.0,-120.0,-90.0,-103.0
126.0,127.0,127.0,130.0,127.0,127.0,127.0,131.0,-1.0,113.0,-59.0,127.0,127.0,127.0,-120.0,-90.0,-103.0
126.0,127.0,128.0,131.0,127.0,127.0,126.0,130.0,-1.0,113.0,-58.0,127.0,127.0,127.0,-120.0,-90.0,-103.0
126.0,126.0,128.0,131.0,127.0,127.0,125.0,130.0,-1.0,113.0,-58.0,127.0,127.0,127.0,-120.0,-90.0,-103.0
126.0,126.0,128.0,131.0,127.0,127.0,125.0,130.0,-1.0,113.0,-58.0,127.0,127.0,127.0,-120.0,-90.0,-103.0
126.0,126.0,129.0,131.0,127.0,127.0,125.0,130.0,-1.0,113.0,-58.0,127.0,127.0,127.0,-120.0,-90.0,-103.0
126.0,126.0,129.0,131.0,127.0,127.0,125.0,130.0,-1.0,113.0,-58.0,127.0,127.0,127.0,-120.0,-90.0,-103.0
127.0,127.0,127.0,131.0,127.0,127.0,127.0,130.0,-1.0,113.0,-58.0,127.0,127.0,127.0,-120.0,-90.0,-103.0
127.0,127.0,127.0,131.0,127.0,127.0,127.0,130.0,-1.0,113.0,-58.0,127.0,127.0,127.0,-120.0,-90.0,-103.0
126.0,127.0,127.0,131.0,127.0,127.0,126.0,130.0,-1.0,113.0,-58.0,127.0,127.0,127.0,-120.0,-90.0,-103.0
126.0,127.0,127.0,131.0,127.0,127.0,126.0,130.0,-1.0,113.0,-58.0,127.0,127.0,127.0,-120.0,-90.0,-103.0
126.0,127.0,128.0,131.0,127.0,127.0,126.0,130.0,-1.0,113.0,-58.0,127.0,127.0,127.0,-120.0,-90.0,-103.0
126.0,127.0,129.0,130.0,127.0,127.0,125.0,130.0,-1.0,112.0,-59.0,127.0,127.0,127.0,-121.0,-90.0,-103.0
126.0,127.0,129.0,130.0,127.0,127.0,125.0,130.0,-1.0,112.0,-59.0,127.0,127.0,127.0,-121.0,-90.0,-103.0
126.0,126.0,129.0,130.0,127.0,127.0,125.0,130.0,-1.0,112.0,-59.0,127.0,127.0,127.0,-121.0,-90.0,-103.0
126.0,126.0,129.0,130.0,127.0,127.0,125.0,130.0,-1.0,112.0,-59.0,127.0,127.0,127.0,-121.0,-90.0,-103.0
127.0,127.0,127.0,131.0,126.0,127.0,126.0,130.0,-1.0,112.0,-59.0,127.0,127.0,127.0,-121.0,-90.0,-103.0
127.0,127.0,127.0,130.0,127.0,127.0,126.0,130.0,-1.0,112.0,-59.0,127.0,127.0,127.0,-121.0,-90.0,-103.0
127.0,127.0,128.0,131.0,127.0,127.0,126.0,130.0,-1.0,112.0,-59.0,127.0,127.0,127.0,-121.0,-90.0,-103.0
127.0,127.0,128.0,130.0,127.0,127.0,126.0,130.0,-1.0,112.0,-59.0,127.0,127.0,127.0,-121.0,-90.0,-103.0
126.0,127.0,128.0,130.0,127.0,127.0,126.0,130.0,-1.0,112.0,-59.0,127.0,127.0,127.0,-121.0,-90.0,-103.0
126.0,127.0,129.0,130.0,127.0,127.0,126.0,130.0,-1.0,112.0,-59.0,127.0,127.0,127.0,-121.0,-90.0,-103.0
126.0,126.0,129.0,130.0,127.0,127.0,125.0,129.0,-1.0,113.0,-59.0,127.0,127.0,127.0,-121.0,-90.0,-103.0
126.0,126.0,129.0,130.0,127.0,127.0,125.0,129.0,-1.0,113.0,-59.0,127.0,127.0,127.0,-121.0,-90.0,-103.0
125.0,126.0,130.0,130.0,127.0,127.0,125.0,129.0,-1.0,113.0,-59.0,127.0,127.0,127.0,-121.0,-90.0,-103.0
127.0,127.0,128.0,130.0,127.0,126.0,126.0,129.0,-1.0,113.0,-59.0,127.0,127.0,127.0,-121.0,-90.0,-103.0
126.0,127.0,128.0,130.0,127.0,127.0,126.0,129.0,-1.0,113.0,-59.0,127.0,127.0,127.0,-121.0,-90.0,-103.0
126.0,127.0,128.0,130.0,127.0,126.0,126.0,129.0,-1.0,113.0,-59.0,127.0,127.0,127.0,-121.0,-90.0,-103.0
126.0,127.0,128.0,130.0,127.0,126.0,126.0,129.0,-1.0,113.0,-59.0,127.0,127.0,127.0,-121.0,-90.0,-103.0
126.0,126.0,129.0,130.0,127.0,127.0,126.0,129.0,-1.0,113.0,-59.0,127.0,127.0,127.0,-121.0,-90.0,-103.0
126.0,126.0,129.0,130.0,127.0,126.0,125.0,129.0,-1.0,113.0,-59.0,127.0,127.0,127.0,-121.0,-90.0,-103.0
126.0,126.0,129.0,130.0,127.0,126.0,125.0,129.0,-1.0,113.0,-59.0,127.0,127.0,127.0,-121.0,-90.0,-103.0
126.0,127.0,129.0,130.0,127.0,127.0,125.0,129.0,-1.0,113.0,-59.0,127.0,127.0,127.0,-121.0,-90.0,-103.0
126.0,126.0,129.0,130.0,127.0,127.0,125.0,129.0,-1.0,113.0,-59.0,127.0,127.0,127.0,-121.0,-90.0,-103.0
127.0,127.0,127.0,130.0,126.0,127.0,126.0,129.0,-1.0,113.0,-59.0,127.0,127.0,127.0,-121.0,-90.0,-103.0
127.0,127.0,127.0,130.0,127.0,127.0,126.0,129.0,-1.0,113.0,-59.0,127.0,127.0,127.0,-121.0,-90.0,-103.0
127.0,127.0,128.0,130.0,127.0,127.0,126.0,129.0,-1.0,113.0,-59.0,127.0,127.0,127.0,-121.0,-90.0,-103.0
127.0,127.0,128.0,130.0,127.0,127.0,126.0,129.0,-1.0,113.0,-59.0,127.0,127.0,127.0,-121.0,-90.0,-103.0
126.0,127.0,128.0,130.0,127.0,127.0,126.0,129.0,-1.0,113.0,-59.0,127.0,127.0,127.0,-121.0,-90.0,-103.0
126.0,127.0,128.0,130.0,127.0,127.0,125.0,129.0,-1.0,113.0,-59.0,127.0,127.0,127.0,-121.0,-90.0,-103.0
126.0,127.0,129.0,130.0,127.0,127.0,125.0,129.0,-1.0,113.0,-59.0,127.0,127.0,127.0,-121.0,-90.0,-103.0
126.0,127.0,129.0,130.0,127.0,127.0,125.0,129.0,-1.0,113.0,-59.0,127.0,127.0,127.0,-121.0,-90.0,-103.0
126.0,127.0,129.0,130.0,127.0,127.0,125.0,129.0,-1.0,113.0,-59.0,127.0,127.0,127.0,-121.0,-90.0,-103.0
127.0,127.0,127.0,130.0,127.0,127.0,127.0,129.0,-1.0,113.0,-59.0,127.0,127.0,127.0,-121.0,-90.0,-103.0
127.0,127.0,128.0,130.0,127.0,127.0,126.0,129.0,-1.0,113.0,-59.0,127.0,127.0,127.0,-121.0,-90.0,-103.0
126.0,127.0,128.0,130.0,127.0,127.0,126.0,129.0,-1.0,113.0,-59.0,127.0,127.0,127.0,-121.0,-90.0,-103.0
126.0,127.0,128.0,130.0,127.0,127.0,126.0,129.0,-1.0,113.0,-59.0,127.0,127.0,127.0,-121.0,-90.0,-103.0
126.0,127.0,128.0,130.0,127.0,127.0,125.0,129.0,-1.0,113.0,-59.0,127.0,127.0,127.0,-121.0,-90.0,-103.0
126.0,127.0,128.0,130.0,127.0,127.0,125.0,129.0,-1.0,113.0,-59.0,127.0,127.0,127.0,-121.0,-90.0,-103.0
126.0,127.0,128.0,130.0,127.0,127.0,125.0,129.0,-1.0,113.0,-59.0,127.0,127.0,127.0,-121.0,-90.0,-103.0
126.0,127.0,129.0,130.0,127.0,127.0,125.0,129.0,-1.0,113.0,-59.0,127.0,127.0,127.0,-121.0,-90.0,-103.0
126.0,127.0,129.0,130.0,127.0,127.0,125.0,129.0,-1.0,113.0,-59.0,127.0,127.0,127.0,-121.0,-90.0,-103.0
127.0,128.0,127.0,130.0,127.0,127.0,127.0,129.0,-1.0,113.0,-59.0,127.0,127.0,127.0,-121.0,-90.0,-103.0
127.0,127.0,127.0,130.0,127.0,127.0,127.0,129.0,-1.0,113.0,-59.0,127.0,127.0,127.0,-121.0,-90.0,-103.0
127.0,127.0,127.0,130.0,127.0,127.0,126.0,129.0,-1.0,113.0,-59.0,127.0,127.0,127.0,-121.0,-90.0,-103.0
126.0,127.0,127.0,130.0,127.0,127.0,126.0,129.0,-1.0,113.0,-59.0,127.0,127.0,127.0,-121.0,-90.0,-103.0
126.0,127.0,127.0,130.0,127.0,128.0,126.0,129.0,-1.0,113.0,-59.0,127.0,127.0,127.0,-121.0,-90.0,-103.0
126.0,127.0,128.0,130.0,127.0,128.0,125.0,130.0,-1.0,113.0,-59.0,127.0,127.0,127.0,-121.0,-90.0,-103.0
126.0,127.0,128.0,130.0,127.0,128.0,125.0,129.0,-1.0,113.0,-59.0,127.0,127.0,127.0,-121.0,-90.0,-103.0
126.0,127.0,128.0,130.0,127.0,128.0,125.0,130.0,-1.0,113.0,-59.0,127.0,127.0,127.0,-121.0,-90.0,-103.0
126.0,127.0,128.0,130.0,127.0,128.0,125.0,130.0,-1.0,113.0,-59.0,127.0,127.0,127.0,-121.0,-90.0,-103.0
126.0,127.0,128.0,129.0,127.0,128.0,125.0,130.0,-1.0,113.0,-59.0,127.0,127.0,127.0,-121.0,-90.0,-103.0
127.0,127.0,127.0,130.0,127.0,127.0,126.0,129.0,-1.0,112.0,-59.0,127.0,127.0,127.0,-121.0,-90.0,-103.0
127.0,127.0,128.0,130.0,127.0,127.0,126.0,129.0,-1.0,112.0,-59.0,127.0,127.0,127.0,-121.0,-90.0,-103.0
126.0,127.0,128.0,130.0,126.0,127.0,126.0,129.0,-1.0,112.0,-59.0,127.0,127.0,127.0,-121.0,-90.0,-103.0
126.0,127.0,128.0,130.0,127.0,127.0,125.0,130.0,-1.0,112.0,-59.0,127.0,127.0,127.0,-121.0,-90.0,-103.0
126.0,127.0,128.0,130.0,127.0,127.0,125.0,130.0,-1.0,112.0,-59.0,127.0,127.0,127.0,-121.0,-90.0,-103.0
126.0,127.0,129.0,130.0,127.0,127.0,125.0,130.0,-1.0,112.0,-59.0,127.0,127.0,127.0,-121.0,-90.0,-103.0
126.0,127.0,129.0,130.0,127.0,127.0,125.0,130.0,-1.0,112.0,-59.0,127.0,127.0,127.0,-121.0,-90.0,-103.0
126.0,127.0,129.0,130.0,127.0,127.0,125.0,130.0,-1.0,112.0,-59.0,127.0,127.0,127.0,-121.0,-90.0,-103.0
126.0,126.0,129.0,130.0,127.0,127.0,125.0,130.0,-1.0,112.0,-59.0,127.0,127.0,127.0,-121.0,-90.0,-103.0
127.0,127.0,127.0,130.0,126.0,127.0,127.0,129.0,-1.0,112.0,-59.0,127.0,127.0,127.0,-121.0,-90.0,-103.0
126.0,127.0,127.0,129.0,126.0,127.0,126.0,129.0,-1.0,112.0,-59.0,127.0,127.0,127.0,-122.0,-90.0,-103.0
126.0,126.0,127.0,129.0,126.0,127.0,126.0,130.0,-1.0,112.0,-59.0,127.0,127.0,127.0,-122.0,-90.0,-103.0
126.0,127.0,128.0,129.0,127.0,127.0,125.0,130.0,-1.0,112.0,-59.0,127.0,127.0,127.0,-122.0,-90.0,-103.0
126.0,126.0,128.0,129.0,127.0,127.0,125.0,130.0,-1.0,112.0,-59.0,127.0,127.0,127.0,-122.0,-90.0,-103.0
126.0,126.0,128.0,129.0,127.0,127.0,125.0,130.0,-1.0,112.0,-59.0,127.0,127.0,127.0,-122.0,-90.0,-103.0
126.0,126.0,128.0,129.0,127.0,127.0,125.0,130.0,-1.0,112.0,-59.0,127.0,127.0,127.0,-122.0,-90.0,-103.0
126.0,126.0,128.0,129.0,127.0,127.0,125.0,130.0,-1.0,112.0,-59.0,127.0,127.0,127.0,-122.0,-90.0,-103.0
125.0,126.0,129.0,129.0,127.0,127.0,125.0,130.0,-1.0,112.0,-59.0,127.0,127.0,127.0,-122.0,-90.0,-103.0
126.0,127.0,127.0,129.0,126.0,127.0,126.0,129.0,-1.0,112.0,-59.0,127.0,127.0,127.0,-122.0,-90.0,-103.0
126.0,127.0,127.0,129.0,126.0,127.0,126.0,129.0,-1.0,112.0,-59.0,127.0,127.0,127.0,-122.0,-90.0,-103.0
126.0,127.0,127.0,129.0,127.0,127.0,126.0,130.0,-1.0,112.0,-59.0,127.0,127.0,127.0,-122.0,-90.0,-103.0
126.0,127.0,128.0,129.0,127.0,128.0,126.0,130.0,-1.0,112.0,-59.0,127.0,127.0,127.0,-122.0,-90.0,-103.0
126.0,127.0,128.0,129.0,127.0,128.0,125.0,130.0,-1.0,112.0,-59.0,127.0,127.0,127.0,-122.0,-90.0,-103.0
126.0,127.0,128.0,129.0,127.0,128.0,125.0,130.0,-1.0,112.0,-59.0,127.0,127.0,127.0,-122.0,-90.0,-103.0
126.0,127.0,128.0,129.0,127.0,127.0,125.0,130.0,-1.0,112.0,-59.0,127.0,127.0,127.0,-122.0,-90.0,-103.0
126.0,127.0,128.0,129.0,127.0,127.0,125.0,130.0,-1.0,112.0,-59.0,127.0,127.0,127.0,-122.0,-90.0,-103.0
125.0,127.0,129.0,129.0,127.0,127.0,125.0,130.0,-1.0,112.0,-59.0,127.0,127.0,127.0,-122.0,-90.0,-103.0
127.0,127.0,127.0,129.0,127.0,127.0,127.0,130.0,-1.0,112.0,-59.0,127.0,127.0,127.0,-122.0,-90.0,-103.0
126.0,127.0,127.0,129.0,127.0,127.0,126.0,130.0,-1.0,112.0,-59.0,127.0,127.0,127.0,-122.0,-90.0,-103.0
126.0,127.0,127.0,129.0,127.0,127.0,126.0,130.0,-1.0,112.0,-59.0,127.0,127.0,127.0,-122.0,-90.0,-103.0
126.0,127.0,128.0,129.0,127.0,127.0,126.0,130.0,-1.0,112.0,-59.0,127.0,127.0,127.0,-122.0,-90.0,-103.0
126.0,127.0,129.0,129.0,127.0,127.0,126.0,130.0,-1.0,112.0,-59.0,127.0,127.0,127.0,-122.0,-90.0,-103.0
126.0,126.0,129.0,129.0,127.0,127.0,125.0,130.0,-1.0,112.0,-59.0,127.0,127.0,127.0,-122.0,-90.0,-103.0
126.0,127.0,129.0,129.0,127.0,127.0,125.0,130.0,-1.0,112.0,-59.0,127.0,127.0,127.0,-122.0,-90.0,-103.0
126.0,127.0,129.0,129.0,127.0,127.0,125.0,130.0,-1.0,112.0,-59.0,127.0,127.0,127.0,-122.0,-90.0,-103.0
125.0,126.0,129.0,129.0,127.0,127.0,125.0,130.0,-1.0,112.0,-59.0,127.0,127.0,127.0,-122.0,-90.0,-103.0
126.0,127.0,127.0,129.0,127.0,127.0,127.0,130.0,-1.0,112.0,-59.0,127.0,127.0,127.0,-122.0,-90.0,-103.0
126.0,127.0,127.0,129.0,127.0,127.0,127.0,130.0,-1.0,112.0,-59.0,127.0,127.0,127.0,-122.0,-90.0,-103.0
126.0,127.0,128.0,129.0,127.0,127.0,126.0,130.0,-1.0,112.0,-59.0,127.0,127.0,127.0,-122.0,-90.0,-103.0
126.0,127.0,128.0,129.0,127.0,127.0,126.0,130.0,-1.0,112.0,-59.0,127.0,127.0,127.0,-122.0,-90.0,-103.0
126.0,127.0,128.0,129.0,127.0,127.0,125.0,131.0,-1.0,112.0,-59.0,127.0,127.0,127.0,-122.0,-90.0,-103.0
126.0,126.0,129.0,129.0,127.0,127.0,125.0,131.0,-1.0,112.0,-59.0,127.0,127.0,127.0,-122.0,-90.0,-103.0
126.0,126.0,129.0,129.0,127.0,127.0,125.0,131.0,-1.0,112.0,-59.0,127.0,127.0,127.0,-122.0,-90.0,-103.0
125.0,126.0,129.0,129.0,127.0,127.0,125.0,131.0,-1.0,112.0,-59.0,127.0,127.0,127.0,-122.0,-90.0,-103.0
125.0,126.0,129.0,129.0,127.0,127.0,125.0,131.0,-1.0,112.0,-59.0,127.0,127.0,127.0,-122.0,-90.0,-103.0
126.0,127.0,127.0,129.0,127.0,127.0,126.0,130.0,-1.0,112.0,-59.0,127.0,127.0,127.0,-122.0,-90.0,-103.0
126.0,127.0,127.0,129.0,127.0,127.0,126.0,131.0,-1.0,112.0,-59.0,127.0,127.0,127.0,-122.0,-90.0,-103.0
126.0,127.0,127.0,129.0,127.0,127.0,126.0,131.0,-1.0,112.0,-59.0,127.0,127.0,127.0,-122.0,-90.0,-103.0
126.0,127.0,128.0,129.0,127.0,127.0,126.0,131.0,-1.0,112.0,-59.0,127.0,127.0,127.0,-122.0,-90.0,-103.0
126.0,127.0,128.0,129.0,127.0,127.0,125.0,131.0,-1.0,112.0,-59.0,127.0,127.0,127.0,-122.0,-90.0,-103.0
126.0,126.0,128.0,129.0,127.0,127.0,125.0,130.0,-1.0,112.0,-59.0,127.0,127.0,127.0,-122.0,-90.0,-103.0
126.0,126.0,128.0,129.0,127.0,127.0,125.0,130.0,-1.0,112.0,-59.0,127.0,127.0,127.0,-122.0,-90.0,-103.0
126.0,126.0,129.0,129.0,127.0,127.0,125.0,130.0,-1.0,112.0,-59.0,127.0,127.0,127.0,-122.0,-90.0,-103.0
126.0,126.0,129.0,129.0,127.0,127.0,125.0,130.0,-1.0,112.0,-59.0,127.0,127.0,127.0,-122.0,-90.0,-103.0
126.0,127.0,127.0,129.0,126.0,126.0,127.0,130.0,-1.0,112.0,-59.0,127.0,127.0,127.0,-122.0,-90.0,-103.0
126.0,127.0,127.0,129.0,126.0,126.0,126.0,130.0,-1.0,112.0,-59.0,127.0,127.0,127.0,-122.0,-90.0,-103.0
126.0,127.0,127.0,129.0,126.0,127.0,126.0,130.0,-1.0,112.0,-59.0,127.0,127.0,127.0,-122.0,-90.0,-103.0
126.0,127.0,127.0,129.0,126.0,127.0,126.0,130.0,-1.0,112.0,-59.0,127.0,127.0,127.0,-122.0,-90.0,-103.0
126.0,127.0,128.0,129.0,127.0,127.0,126.0,130.0,-1.0,112.0,-59.0,127.0,127.0,127.0,-122.0,-90.0,-103.0
126.0,127.0,128.0,129.0,127.0,127.0,125.0,130.0,-1.0,112.0,-59.0,127.0,127.0,127.0,-122.0,-90.0,-103.0
126.0,127.0,128.0,128.0,127.0,127.0,126.0,131.0,-1.0,112.0,-59.0,127.0,127.0,127.0,-122.0,-90.0,-103.0
126.0,127.0,128.0,128.0,127.0,127.0,126.0,131.0,-1.0,112.0,-59.0,127.0,127.0,127.0,-122.0,-90.0,-103.0
125.0,126.0,128.0,128.0,127.0,127.0,125.0,131.0,-1.0,112.0,-59.0,127.0,127.0,127.0,-122.0,-90.0,-103.0
127.0,127.0,126.0,128.0,126.0,127.0,128.0,130.0,-1.0,112.0,-59.0,127.0,127.0,127.0,-122.0,-90.0,-103.0
126.0,127.0,126.0,128.0,126.0,127.0,127.0,131.0,-1.0,112.0,-59.0,127.0,127.0,127.0,-122.0,-90.0,-103.0
126.0,127.0,127.0,128.0,126.0,127.0,127.0,131.0,-1.0,112.0,-59.0,127.0,127.0,127.0,-122.0,-90.0,-103.0
126.0,127.0,127.0,128.0,126.0,127.0,127.0,131.0,-1.0,112.0,-59.0,127.0,127.0,127.0,-122.0,-90.0,-103.0
126.0,127.0,127.0,128.0,127.0,127.0,126.0,131.0,-1.0,112.0,-59.0,127.0,127.0,127.0,-122.0,-90.0,-103.0
126.0,127.0,128.0,128.0,127.0,127.0,126.0,131.0,-1.0,112.0,-59.0,127.0,127.0,127.0,-122.0,-90.0,-103.0
126.0,127.0,128.0,128.0,127.0,127.0,126.0,131.0,-1.0,112.0,-59.0,127.0,127.0,127.0,-122.0,-90.0,-103.0
126.0,127.0,128.0,128.0,127.0,127.0,125.0,131.0,-1.0,112.0,-59.0,127.0,127.0,127.0,-122.0,-90.0,-103.0
126.0,127.0,128.0,128.0,127.0,127.0,125.0,131.0,-1.0,112.0,-59.0,127.0,127.0,127.0,-122.0,-90.0,-103.0
127.0,128.0,127.0,128.0,126.0,127.0,128.0,130.0,-1.0,112.0,-59.0,127.0,127.0,127.0,-122.0,-90.0,-103.0
127.0,128.0,127.0,128.0,126.0,127.0,128.0,130.0,-1.0,112.0,-59.0,127.0,127.0,127.0,-122.0,-90.0,-103.0
127.0,128.0,127.0,128.0,126.0,127.0,127.0,130.0,-1.0,112.0,-59.0,127.0,127.0,127.0,-122.0,-90.0,-103.0
127.0,128.0,127.0,128.0,127.0,127.0,127.0,130.0,-1.0,112.0,-59.0,127.0,127.0,127.0,-122.0,-90.0,-103.0
126.0,127.0,127.0,128.0,127.0,127.0,127.0,130.0,-1.0,112.0,-59.0,127.0,127.0,127.0,-122.0,-90.0,-103.0
126.0,127.0,127.0,128.0,127.0,127.0,126.0,131.0,-1.0,112.0,-59.0,127.0,127.0,127.0,-122.0,-90.0,-103.0
126.0,127.0,128.0,128.0,127.0,127.0,126.0,131.0,-1.0,112.0,-59.0,127.0,127.0,127.0,-122.0,-90.0,-103.0
126.0,127.0,128.0,128.0,127.0,127.0,126.0,131.0,-1.0,112.0,-59.0,127.0,127.0,127.0,-122.0,-90.0,-103.0
126.0,126.0,129.0,128.0,127.0,127.0,125.0,131.0,-1.0,112.0,-60.0,127.0,127.0,127.0,-122.0,-90.0,-103.0
127.0,128.0,127.0,128.0,126.0,127.0,127.0,131.0,-1.0,112.0,-60.0,127.0,127.0,127.0,-122.0,-90.0,-103.0
127.0,127.0,127.0,128.0,127.0,127.0,127.0,131.0,-1.0,112.0,-60.0,127.0,127.0,127.0,-122.0,-90.0,-103.0
127.0,127.0,127.0,128.0,127.0,127.0,126.0,131.0,-1.0,112.0,-60.0,127.0,127.0,127.0,-122.0,-90.0,-103.0
127.0,127.0,127.0,128.0,127.0,127.0,126.0,131.0,-1.0,112.0,-60.0,127.0,127.0,127.0,-122.0,-90.0,-103.0
126.0,127.0,128.0,128.0,127.0,127.0,126.0,131.0,-1.0,112.0,-60.0,127.0,127.0,127.0,-122.0,-90.0,-103.0
126.0,127.0,128.0,128.0,127.0,127.0,126.0,131.0,-1.0,112.0,-60.0,127.0,127.0,127.0,-122.0,-90.0,-103.0
126.0,127.0,128.0,128.0,127.0,127.0,125.0,131.0,-1.0,112.0,-60.0,127.0,127.0,127.0,-122.0,-90.0,-103.0
126.0,127.0,129.0,128.0,127.0,127.0,125.0,131.0,-1.0,112.0,-60.0,127.0,127.0,127.0,-122.0,-90.0,-103.0
126.0,127.0,129.0,128.0,127.0,127.0,125.0,131.0,-1.0,112.0,-60.0,127.0,127.0,127.0,-122.0,-90.0,-103.0
127.0,128.0,127.0,128.0,127.0,127.0,126.0,130.0,-1.0,112.0,-60.0,127.0,127.0,127.0,-122.0,-90.0,-103.0
127.0,128.0,127.0,128.0,127.0,127.0,126.0,130.0,-1.0,112.0,-60.0,127.0,127.0,127.0,-122.0,-90.0,-103.0
127.0,128.0,127.0,128.0,127.0,127.0,126.0,130.0,-1.0,112.0,-60.0,127.0,127.0,127.0,-122.0,-90.0,-103.0
127.0,128.0,127.0,128.0,127.0,128.0,126.0,130.0,-1.0,112.0,-60.0,127.0,127.0,127.0,-122.0,-90.0,-103.0
127.0,127.0,128.0,128.0,127.0,128.0,125.0,131.0,-1.0,112.0,-60.0,127.0,127.0,127.0,-122.0,-90.0,-103.0
127.0,127.0,128.0,128.0,127.0,128.0,125.0,131.0,-1.0,112.0,-60.0,127.0,127.0,127.0,-122.0,-90.0,-103.0
126.0,127.0,128.0,128.0,127.0,127.0,125.0,131.0,-1.0,112.0,-60.0,127.0,127.0,127.0,-122.0,-90.0,-103.0
126.0,127.0,128.0,128.0,127.0,127.0,125.0,131.0,-1.0,112.0,-60.0,127.0,127.0,127.0,-122.0,-90.0,-103.0
126.0,127.0,129.0,128.0,127.0,127.0,125.0,131.0,-1.0,112.0,-60.0,127.0,127.0,127.0,-122.0,-90.0,-103.0
126.0,127.0,129.0,128.0,127.0,127.0,124.0,131.0,-1.0,112.0,-60.0,127.0,127.0,127.0,-122.0,-90.0,-103.0
127.0,127.0,127.0,128.0,127.0,127.0,126.0,130.0,-1.0,113.0,-60.0,127.0,127.0,127.0,-122.0,-90.0,-103.0
127.0,127.0,127.0,128.0,127.0,127.0,126.0,130.0,-1.0,113.0,-60.0,127.0,127.0,127.0,-122.0,-90.0,-103.0
127.0,127.0,127.0,128.0,127.0,127.0,125.0,130.0,-1.0,113.0,-60.0,127.0,127.0,127.0,-122.0,-90.0,-103.0
127.0,127.0,127.0,128.0,127.0,127.0,125.0,130.0,-1.0,113.0,-60.0,127.0,127.0,127.0,-122.0,-90.0,-103.0
126.0,127.0,127.0,128.0,127.0,127.0,125.0,130.0,-1.0,113.0,-60.0,127.0,127.0,127.0,-122.0,-90.0,-103.0
126.0,127.0,128.0,128.0,127.0,127.0,125.0,130.0,-1.0,113.0,-60.0,127.0,127.0,127.0,-122.0,-90.0,-103.0
126.0,127.0,128.0,128.0,127.0,127.0,125.0,130.0,-1.0,113.0,-60.0,127.0,127.0,127.0,-122.0,-90.0,-103.0
126.0,127.0,128.0,128.0,127.0,127.0,124.0,130.0,-1.0,113.0,-60.0,127.0,127.0,127.0,-122.0,-90.0,-103.0
126.0,127.0,128.0,128.0,127.0,127.0,124.0,130.0,-1.0,113.0,-60.0,127.0,127.0,127.0,-122.0,-90.0,-103.0
127.0,127.0,127.0,128.0,127.0,127.0,126.0,130.0,-1.0,113.0,-60.0,127.0,127.0,127.0,-122.0,-90.0,-103.0
127.0,127.0,128.0,128.0,127.0,127.0,127.0,130.0,-1.0,113.0,-60.0,127.0,127.0,127.0,-122.0,-90.0,-103.0
126.0,127.0,128.0,128.0,127.0,127.0,126.0,130.0,-1.0,113.0,-60.0,127.0,127.0,127.0,-122.0,-90.0,-103.0
126.0,127.0,128.0,128.0,127.0,127.0,126.0,130.0,-1.0,113.0,-60.0,127.0,127.0,127.0,-122.0,-90.0,-103.0
126.0,126.0,128.0,128.0,127.0,127.0,126.0,130.0,-1.0,113.0,-60.0,127.0,127.0,127.0,-122.0,-90.0,-103.0
126.0,126.0,129.0,128.0,127.0,127.0,126.0,130.0,-1.0,113.0,-60.0,127.0,127.0,127.0,-122.0,-90.0,-103.0
126.0,126.0,129.0,128.0,127.0,127.0,126.0,130.0,-1.0,113.0,-60.0,127.0,127.0,127.0,-122.0,-90.0,-103.0
126.0,126.0,129.0,128.0,127.0,127.0,125.0,130.0,-1.0,113.0,-60.0,127.0,127.0,127.0,-122.0,-90.0,-103.0
126.0,126.0,129.0,128.0,127.0,126.0,125.0,130.0,-1.0,113.0,-60.0,127.0,127.0,127.0,-122.0,-90.0,-103.0
127.0,127.0,127.0,128.0,127.0,127.0,127.0,130.0,-1.0,113.0,-60.0,127.0,127.0,127.0,-122.0,-90.0,-103.0
127.0,127.0,127.0,128.0,127.0,127.0,127.0,130.0,-1.0,113.0,-60.0,127.0,127.0,127.0,-122.0,-90.0,-103.0
126.0,127.0,127.0,128.0,127.0,127.0,126.0,130.0,-1.0,113.0,-60.0,127.0,127.0,127.0,-122.0,-90.0,-103.0
126.0,127.0,127.0,128.0,127.0,127.0,126.0,130.0,-1.0,113.0,-60.0,127.0,127.0,127.0,-122.0,-90.0,-103.0
126.0,127.0,128.0,128.0,127.0,127.0,126.0,130.0,-1.0,113.0,-60.0,127.0,127.0,127.0,-122.0,-90.0,-103.0
126.0,127.0,128.0,128.0,127.0,127.0,125.0,130.0,-1.0,113.0,-60.0,127.0,127.0,127.0,-122.0,-90.0,-103.0
126.0,127.0,128.0,128.0,127.0,127.0,125.0,130.0,-1.0,113.0,-60.0,127.0,127.0,127.0,-122.0,-90.0,-103.0
126.0,126.0,128.0,128.0,127.0,127.0,125.0,130.0,-1.0,113.0,-60.0,127.0,127.0,127.0,-122.0,-90.0,-103.0
126.0,126.0,128.0,128.0,127.0,127.0,125.0,130.0,-1.0,113.0,-60.0,127.0,127.0,127.0,-122.0,-90.0,-103.0
127.0,127.0,126.0,128.0,126.0,127.0,127.0,130.0,-1.0,113.0,-60.0,127.0,127.0,127.0,-122.0,-90.0,-103.0
126.0,127.0,127.0,128.0,127.0,127.0,127.0,130.0,-1.0,113.0,-60.0,127.0,127.0,127.0,-122.0,-90.0,-103.0
126.0,127.0,127.0,128.0,127.0,127.0,127.0,130.0,-1.0,113.0,-60.0,127.0,127.0,127.0,-122.0,-90.0,-103.0
126.0,127.0,127.0,128.0,127.0,127.0,126.0,130.0,-1.0,113.0,-60.0,127.0,127.0,127.0,-122.0,-90.0,-103.0
126.0,127.0,127.0,128.0,127.0,127.0,126.0,130.0,-1.0,113.0,-60.0,127.0,127.0,127.0,-122.0,-90.0,-103.0
126.0,126.0,128.0,128.0,127.0,127.0,126.0,130.0,-1.0,113.0,-60.0,127.0,127.0,127.0,-122.0,-90.0,-103.0
126.0,126.0,128.0,128.0,127.0,127.0,125.0,130.0,-1.0,113.0,-60.0,127.0,127.0,127.0,-122.0,-90.0,-103.0
126.0,126.0,128.0,128.0,127.0,127.0,125.0,130.0,-1.0,113.0,-60.0,127.0,127.0,127.0,-122.0,-90.0,-103.0
125.0,126.0,128.0,128.0,127.0,127.0,125.0,130.0,-1.0,113.0,-60.0,127.0,127.0,127.0,-122.0,-90.0,-103.0
127.0,127.0,126.0,128.0,127.0,127.0,127.0,130.0,-1.0,113.0,-60.0,127.0,127.0,127.0,-122.0,-90.0,-103.0
127.0,127.0,126.0,128.0,127.0,127.0,127.0,130.0,-1.0,113.0,-60.0,127.0,127.0,127.0,-122.0,-90.0,-103.0
127.0,127.0,126.0,128.0,127.0,127.0,126.0,130.0,-1.0,113.0,-60.0,127.0,127.0,127.0,-122.0,-90.0,-103.0
126.0,127.0,127.0,128.0,127.0,127.0,126.0,130.0,-1.0,113.0,-60.0,127.0,127.0,127.0,-122.0,-90.0,-103.0
126.0,127.0,127.0,128.0,126.0,127.0,126.0,129.0,-1.0,113.0,-59.0,127.0,127.0,127.0,-122.0,-90.0,-103.0
126.0,127.0,127.0,128.0,127.0,127.0,126.0,129.0,-1.0,113.0,-59.0,127.0,127.0,127.0,-122.0,-90.0,-103.0
126.0,126.0,128.0,128.0,127.0,127.0,125.0,130.0,-1.0,113.0,-59.0,127.0,127.0,127.0,-122.0,-90.0,-103.0
126.0,126.0,128.0,128.0,127.0,127.0,125.0,130.0,-1.0,113.0,-59.0,127.0,127.0,127.0,-122.0,-90.0,-103.0
126.0,126.0,128.0,128.0,126.0,127.0,125.0,130.0,-1.0,113.0,-59.0,127.0,127.0,127.0,-122.0,-90.0,-103.0
127.0,127.0,126.0,128.0,126.0,126.0,127.0,129.0,-1.0,113.0,-59.0,127.0,127.0,127.0,-122.0,-90.0,-103.0
127.0,127.0,126.0,128.0,126.0,127.0,127.0,129.0,-1.0,113.0,-59.0,127.0,127.0,127.0,-122.0,-90.0,-103.0
126.0,127.0,126.0,128.0,126.0,127.0,126.0,129.0,-1.0,113.0,-59.0,127.0,127.0,127.0,-122.0,-90.0,-103.0
126.0,127.0,127.0,128.0,126.0,127.0,126.0,129.0,-1.0,113.0,-59.0,127.0,127.0,127.0,-122.0,-90.0,-103.0
126.0,127.0,127.0,128.0,126.0,127.0,126.0,129.0,-1.0,113.0,-59.0,127.0,127.0,127.0,-122.0,-90.0,-103.0
126.0,126.0,128.0,128.0,127.0,127.0,127.0,130.0,-1.0,113.0,-59.0,127.0,127.0,127.0,-122.0,-90.0,-103.0
126.0,126.0,128.0,128.0,127.0,127.0,126.0,130.0,-1.0,113.0,-59.0,127.0,127.0,127.0,-122.0,-90.0,-103.0
126.0,126.0,128.0,128.0,127.0,127.0,126.0,130.0,-1.0,113.0,-59.0,127.0,127.0,127.0,-122.0,-90.0,-103.0
126.0,126.0,128.0,128.0,127.0,127.0,126.0,130.0,-1.0,113.0,-59.0,127.0,127.0,127.0,-122.0,-90.0,-103.0
127.0,127.0,126.0,128.0,127.0,127.0,128.0,129.0,-1.0,113.0,-59.0,127.0,127.0,127.0,-122.0,-90.0,-103.0
127.0,127.0,127.0,128.0,127.0,127.0,127.0,129.0,-1.0,113.0,-59.0,127.0,127.0,127.0,-122.0,-90.0,-103.0
127.0,127.0,127.0,128.0,127.0,127.0,127.0,129.0,-1.0,113.0,-59.0,127.0,127.0,127.0,-122.0,-90.0,-103.0
127.0,127.0,127.0,128.0,127.0,127.0,127.0,129.0,-1.0,113.0,-59.0,127.0,127.0,127.0,-122.0,-90.0,-103.0
126.0,127.0,127.0,128.0,127.0,127.0,127.0,129.0,-1.0,113.0,-59.0,127.0,127.0,127.0,-122.0,-90.0,-103.0
126.0,127.0,128.0,128.0,127.0,127.0,127.0,129.0,-1.0,113.0,-59.0,127.0,127.0,127.0,-122.0,-90.0,-103.0
126.0,127.0,128.0,128.0,128.0,127.0,127.0,130.0,-1.0,112.0,-59.0,127.0,127.0,127.0,-122.0,-90.0,-103.0
126.0,127.0,128.0,128.0,128.0,127.0,127.0,130.0,-1.0,112.0,-59.0,127.0,127.0,127.0,-122.0,-90.0,-103.0
126.0,127.0,129.0,128.0,127.0,127.0,127.0,130.0,-1.0,112.0,-59.0,127.0,127.0,127.0,-122.0,-90.0,-103.0
127.0,127.0,127.0,128.0,127.0,127.0,129.0,130.0,-1.0,112.0,-59.0,127.0,127.0,127.0,-122.0,-90.0,-103.0
127.0,127.0,127.0,128.0,127.0,127.0,129.0,130.0,-1.0,112.0,-59.0,127.0,127.0,127.0,-122.0,-90.0,-103.0
127.0,127.0,127.0,128.0,127.0,127.0,129.0,130.0,-1.0,112.0,-59.0,127.0,127.0,127.0,-122.0,-90.0,-103.0
127.0,127.0,127.0,128.0,127.0,127.0,128.0,130.0,-1.0,112.0,-59.0,127.0,127.0,127.0,-122.0,-90.0,-103.0
127.0,127.0,127.0,128.0,127.0,127.0,128.0,130.0,-1.0,112.0,-59.0,127.0,127.0,127.0,-122.0,-90.0,-103.0
127.0,127.0,128.0,128.0,127.0,127.0,128.0,130.0,-1.0,112.0,-59.0,127.0,127.0,127.0,-122.0,-90.0,-103.0
126.0,127.0,128.0,128.0,128.0,127.0,128.0,130.0,-1.0,112.0,-59.0,127.0,127.0,127.0,-122.0,-90.0,-103.0
126.0,127.0,128.0,127.0,127.0,127.0,125.0,130.0,-1.0,112.0,-59.0,127.0,127.0,127.0,-122.0,-90.0,-103.0
126.0,127.0,128.0,128.0,127.0,126.0,125.0,130.0,-1.0,112.0,-59.0,127.0,127.0,127.0,-122.0,-90.0,-103.0
127.0,127.0,126.0,128.0,127.0,127.0,127.0,129.0,-1.0,112.0,-59.0,127.0,127.0,127.0,-122.0,-90.0,-103.0
127.0,127.0,126.0,127.0,127.0,127.0,127.0,129.0,-1.0,112.0,-59.0,127.0,127.0,127.0,-122.0,-90.0,-103.0
127.0,127.0,127.0,127.0,127.0,127.0,127.0,130.0,-1.0,112.0,-59.0,127.0,127.0,127.0,-122.0,-90.0,-103.0
127.0,127.0,127.0,127.0,127.0,127.0,127.0,130.0,-1.0,112.0,-59.0,127.0,127.0,127.0,-122.0,-90.0,-103.0
127.0,127.0,127.0,127.0,127.0,127.0,126.0,130.0,-1.0,112.0,-59.0,127.0,127.0,127.0,-122.0,-90.0,-103.0
126.0,127.0,127.0,128.0,127.0,127.0,126.0,130.0,-1.0,112.0,-59.0,127.0,127.0,127.0,-122.0,-90.0,-103.0
126.0,127.0,128.0,127.0,127.0,127.0,126.0,130.0,-1.0,112.0,-59.0,127.0,127.0,127.0,-122.0,-90.0,-103.0
126.0,127.0,128.0,127.0,127.0,126.0,126.0,130.0,-1.0,112.0,-59.0,127.0,127.0,127.0,-122.0,-90.0,-103.0
126.0,126.0,128.0,127.0,127.0,127.0,125.0,130.0,-1.0,112.0,-59.0,127.0,127.0,127.0,-122.0,-90.0,-103.0
127.0,127.0,126.0,127.0,126.0,127.0,127.0,129.0,-1.0,112.0,-59.0,127.0,127.0,127.0,-122.0,-90.0,-103.0
127.0,127.0,126.0,127.0,126.0,127.0,127.0,129.0,-1.0,112.0,-59.0,127.0,127.0,127.0,-122.0,-90.0,-103.0
127.0,127.0,126.0,127.0,126.0,127.0,126.0,129.0,-1.0,112.0,-59.0,127.0,127.0,127.0,-122.0,-90.0,-103.0
127.0,127.0,126.0,127.0,126.0,127.0,126.0,129.0,-1.0,112.0,-59.0,127.0,127.0,127.0,-122.0,-90.0,-103.0
127.0,127.0,126.0,127.0,126.0,127.0,126.0,130.0,-1.0,112.0,-59.0,127.0,127.0,127.0,-122.0,-90.0,-103.0
127.0,127.0,127.0,127.0,126.0,127.0,126.0,130.0,-1.0,112.0,-59.0,127.0,127.0,127.0,-122.0,-90.0,-103.0
126.0,127.0,127.0,127.0,126.0,127.0,125.0,130.0,-1.0,112.0,-59.0,127.0,127.0,127.0,-122.0,-90.0,-103.0
126.0,127.0,127.0,127.0,126.0,127.0,125.0,130.0,-1.0,112.0,-59.0,127.0,127.0,127.0,-122.0,-90.0,-103.0
126.0,126.0,128.0,127.0,126.0,127.0,125.0,130.0,-1.0,112.0,-59.0,127.0,127.0,127.0,-122.0,-90.0,-103.0
127.0,127.0,127.0,128.0,127.0,127.0,127.0,129.0,-1.0,112.0,-59.0,127.0,127.0,127.0,-122.0,-90.0,-103.0
127.0,127.0,127.0,128.0,127.0,127.0,127.0,129.0,-1.0,112.0,-59.0,127.0,127.0,127.0,-122.0,-90.0,-103.0
127.0,127.0,127.0,128.0,127.0,127.0,127.0,129.0,-1.0,112.0,-59.0,127.0,127.0,127.0,-122.0,-90.0,-103.0
127.0,127.0,127.0,128.0,127.0,127.0,127.0,129.0,-1.0,112.0,-59.0,127.0,127.0,127.0,-122.0,-90.0,-103.0
126.0,127.0,127.0,128.0,127.0,127.0,126.0,129.0,-1.0,112.0,-59.0,127.0,127.0,127.0,-122.0,-90.0,-103.0
126.0,127.0,128.0,128.0,127.0,127.0,126.0,129.0,-1.0,112.0,-59.0,127.0,127.0,127.0,-122.0,-90.0,-103.0
126.0,126.0,128.0,128.0,127.0,127.0,126.0,129.0,-1.0,112.0,-59.0,127.0,127.0,127.0,-122.0,-90.0,-103.0
126.0,126.0,128.0,127.0,127.0,127.0,126.0,129.0,-1.0,112.0,-59.0,127.0,127.0,127.0,-122.0,-90.0,-103.0
126.0,126.0,129.0,127.0,127.0,126.0,125.0,129.0,-1.0,112.0,-59.0,127.0,127.0,127.0,-122.0,-90.0,-103.0
126.0,126.0,129.0,127.0,127.0,127.0,125.0,130.0,-1.0,112.0,-59.0,127.0,127.0,127.0,-122.0,-90.0,-103.0
127.0,127.0,127.0,128.0,127.0,127.0,127.0,129.0,-1.0,113.0,-59.0,127.0,127.0,127.0,-122.0,-90.0,-103.0
127.0,127.0,127.0,128.0,127.0,127.0,127.0,129.0,-1.0,113.0,-59.0,127.0,127.0,127.0,-122.0,-90.0,-103.0
127.0,127.0,127.0,128.0,127.0,127.0,127.0,129.0,-1.0,113.0,-59.0,127.0,127.0,127.0,-122.0,-90.0,-103.0
127.0,127.0,127.0,128.0,127.0,127.0,126.0,129.0,-1.0,113.0,-59.0,127.0,127.0,127.0,-122.0,-90.0,-103.0
126.0,126.0,128.0,127.0,127.0,127.0,126.0,129.0,-1.0,113.0,-59.0,127.0,127.0,127.0,-122.0,-90.0,-103.0
126.0,126.0,128.0,127.0,127.0,127.0,126.0,129.0,-1.0,113.0,-59.0,127.0,127.0,127.0,-122.0,-90.0,-103.0
126.0,126.0,128.0,127.0,127.0,127.0,126.0,129.0,-1.0,113.0,-59.0,127.0,127.0,127.0,-122.0,-90.0,-103.0
126.0,126.0,129.0,127.0,127.0,127.0,126.0,129.0,-1.0,113.0,-59.0,127.0,127.0,127.0,-122.0,-90.0,-103.0
126.0,126.0,129.0,127.0,127.0,127.0,125.0,129.0,-1.0,113.0,-59.0,127.0,127.0,127.0,-122.0,-90.0,-103.0
127.0,127.0,127.0,128.0,127.0,127.0,127.0,129.0,-1.0,113.0,-59.0,127.0,127.0,127.0,-122.0,-90.0,-103.0
127.0,127.0,127.0,128.0,127.0,126.0,127.0,129.0,-1.0,113.0,-59.0,127.0,127.0,127.0,-122.0,-90.0,-103.0
127.0,127.0,127.0,128.0,127.0,126.0,127.0,129.0,-1.0,113.0,-59.0,127.0,127.0,127.0,-122.0,-90.0,-103.0
127.0,127.0,127.0,128.0,127.0,126.0,126.0,129.0,-1.0,113.0,-59.0,127.0,127.0,127.0,-122.0,-90.0,-103.0
126.0,127.0,128.0,128.0,127.0,126.0,126.0,129.0,-1.0,113.0,-59.0,127.0,127.0,127.0,-122.0,-90.0,-103.0
126.0,127.0,128.0,128.0,127.0,126.0,126.0,129.0,-1.0,113.0,-59.0,127.0,127.0,127.0,-122.0,-90.0,-103.0
126.0,127.0,128.0,128.0,127.0,126.0,126.0,129.0,-1.0,113.0,-59.0,127.0,127.0,127.0,-122.0,-90.0,-103.0
126.0,127.0,129.0,128.0,127.0,126.0,126.0,129.0,-1.0,113.0,-59.0,127.0,127.0,127.0,-122.0,-90.0,-103.0
126.0,127.0,129.0,128.0,127.0,126.0,125.0,129.0,-1.0,113.0,-59.0,127.0,127.0,127.0,-122.0,-90.0,-103.0
127.0,127.0,127.0,128.0,127.0,126.0,127.0,129.0,-1.0,113.0,-59.0,127.0,127.0,127.0,-122.0,-90.0,-103.0
127.0,127.0,127.0,128.0,127.0,126.0,127.0,129.0,-1.0,113.0,-59.0,127.0,127.0,127.0,-122.0,-90.0,-103.0
126.0,127.0,127.0,127.0,126.0,127.0,127.0,129.0,-1.0,113.0,-59.0,127.0,127.0,127.0,-122.0,-90.0,-103.0
126.0,127.0,127.0,127.0,126.0,127.0,127.0,129.0,-1.0,113.0,-59.0,127.0,127.0,127.0,-122.0,-90.0,-103.0
126.0,126.0,127.0,127.0,126.0,126.0,127.0,129.0,-1.0,113.0,-59.0,127.0,127.0,127.0,-122.0,-90.0,-103.0
126.0,126.0,128.0,127.0,126.0,127.0,127.0,129.0,-1.0,113.0,-59.0,127.0,127.0,127.0,-122.0,-90.0,-103.0
126.0,126.0,128.0,127.0,126.0,127.0,127.0,129.0,-1.0,113.0,-59.0,127.0,127.0,127.0,-122.0,-90.0,-103.0
126.0,126.0,128.0,127.0,127.0,126.0,126.0,129.0,-1.0,113.0,-59.0,127.0,127.0,127.0,-122.0,-90.0,-103.0
125.0,126.0,128.0,127.0,127.0,127.0,126.0,129.0,-1.0,113.0,-59.0,127.0,127.0,127.0,-122.0,-90.0,-103.0
126.0,127.0,126.0,127.0,126.0,127.0,128.0,128.0,-1.0,113.0,-59.0,127.0,127.0,127.0,-122.0,-90.0,-103.0
126.0,127.0,127.0,127.0,126.0,127.0,128.0,128.0,-1.0,113.0,-59.0,127.0,127.0,127.0,-122.0,-90.0,-103.0
126.0,127.0,127.0,127.0,126.0,127.0,127.0,129.0,-1.0,113.0,-59.0,127.0,127.0,127.0,-122.0,-90.0,-103.0
126.0,127.0,127.0,127.0,127.0,127.0,127.0,129.0,-1.0,113.0,-59.0,127.0,127.0,127.0,-122.0,-90.0,-103.0
126.0,127.0,127.0,127.0,127.0,127.0,127.0,129.0,-1.0,113.0,-59.0,127.0,127.0,127.0,-122.0,-90.0,-103.0
126.0,127.0,128.0,127.0,127.0,127.0,126.0,129.0,-1.0,113.0,-59.0,127.0,127.0,127.0,-122.0,-90.0,-103.0
126.0,127.0,128.0,127.0,127.0,127.0,126.0,129.0,-1.0,113.0,-59.0,127.0,127.0,127.0,-122.0,-90.0,-103.0
126.0,126.0,128.0,127.0,127.0,127.0,126.0,129.0,-1.0,113.0,-59.0,127.0,127.0,127.0,-122.0,-90.0,-103.0
126.0,126.0,128.0,127.0,127.0,127.0,126.0,129.0,-1.0,113.0,-59.0,127.0,127.0,127.0,-122.0,-90.0,-103.0
127.0,127.0,126.0,127.0,126.0,127.0,127.0,129.0,-1.0,113.0,-59.0,127.0,127.0,127.0,-122.0,-90.0,-103.0
127.0,127.0,126.0,127.0,126.0,127.0,127.0,129.0,-1.0,113.0,-59.0,127.0,127.0,127.0,-122.0,-90.0,-103.0
126.0,127.0,126.0,127.0,126.0,127.0,127.0,129.0,-1.0,113.0,-59.0,127.0,127.0,127.0,-122.0,-90.0,-103.0
126.0,127.0,127.0,127.0,126.0,127.0,127.0,129.0,-1.0,113.0,-59.0,127.0,127.0,127.0,-122.0,-90.0,-103.0
126.0,127.0,127.0,127.0,127.0,128.0,126.0,129.0,-1.0,112.0,-59.0,127.0,127.0,127.0,-122.0,-90.0,-103.0
126.0,127.0,127.0,127.0,127.0,128.0,126.0,129.0,-1.0,112.0,-59.0,127.0,127.0,127.0,-122.0,-90.0,-103.0
126.0,126.0,127.0,127.0,127.0,128.0,126.0,129.0,-1.0,112.0,-59.0,127.0,127.0,127.0,-122.0,-90.0,-103.0
126.0,126.0,128.0,127.0,127.0,128.0,126.0,129.0,-1.0,112.0,-59.0,127.0,127.0,127.0,-122.0,-90.0,-103.0
126.0,126.0,128.0,127.0,127.0,128.0,126.0,129.0,-1.0,112.0,-59.0,127.0,127.0,127.0,-122.0,-90.0,-103.0
127.0,127.0,126.0,127.0,126.0,127.0,127.0,129.0,-1.0,112.0,-59.0,127.0,127.0,127.0,-122.0,-90.0,-103.0
127.0,127.0,126.0,127.0,126.0,127.0,127.0,129.0,-1.0,112.0,-59.0,127.0,127.0,127.0,-122.0,-90.0,-103.0
127.0,127.0,126.0,127.0,126.0,127.0,127.0,129.0,-1.0,112.0,-59.0,127.0,127.0,127.0,-122.0,-90.0,-103.0
127.0,127.0,126.0,127.0,126.0,127.0,126.0,129.0,-1.0,112.0,-59.0,127.0,127.0,127.0,-122.0,-90.0,-103.0
127.0,127.0,127.0,127.0,127.0,127.0,126.0,129.0,-1.0,112.0,-59.0,127.0,127.0,127.0,-122.0,-90.0,-103.0
126.0,127.0,127.0,127.0,127.0,127.0,126.0,129.0,-1.0,112.0,-59.0,127.0,127.0,127.0,-122.0,-90.0,-103.0
126.0,127.0,128.0,127.0,127.0,127.0,126.0,129.0,-1.0,112.0,-59.0,127.0,127.0,127.0,-122.0,-90.0,-103.0
126.0,126.0,128.0,127.0,127.0,127.0,126.0,129.0,-1.0,112.0,-59.0,127.0,127.0,127.0,-122.0,-90.0,-103.0
126.0,126.0,128.0,127.0,127.0,127.0,126.0,129.0,-1.0,112.0,-59.0,127.0,127.0,127.0,-122.0,-90.0,-103.0
127.0,127.0,126.0,127.0,126.0,127.0,127.0,129.0,-1.0,112.0,-59.0,127.0,127.0,127.0,-122.0,-90.0,-103.0
127.0,127.0,127.0,127.0,126.0,127.0,127.0,129.0,-1.0,112.0,-59.0,127.0,127.0,127.0,-122.0,-90.0,-103.0
127.0,127.0,126.0,127.0,126.0,127.0,127.0,129.0,-1.0,112.0,-59.0,127.0,127.0,127.0,-122.0,-90.0,-103.0
127.0,127.0,127.0,127.0,126.0,127.0,127.0,129.0,-1.0,112.0,-59.0,127.0,127.0,127.0,-122.0,-90.0,-103.0
127.0,127.0,127.0,127.0,127.0,127.0,127.0,129.0,-1.0,112.0,-59.0,127.0,127.0,127.0,-122.0,-90.0,-103.0
126.0,127.0,127.0,127.0,127.0,127.0,126.0,129.0,-1.0,112.0,-59.0,127.0,127.0,127.0,-122.0,-90.0,-103.0
126.0,127.0,128.0,127.0,127.0,126.0,125.0,129.0,-1.0,112.0,-59.0,127.0,127.0,127.0,-122.0,-90.0,-103.0
126.0,127.0,128.0,127.0,127.0,126.0,125.0,129.0,-1.0,112.0,-59.0,127.0,127.0,127.0,-122.0,-90.0,-103.0
126.0,127.0,128.0,127.0,127.0,126.0,125.0,129.0,-1.0,112.0,-59.0,127.0,127.0,127.0,-122.0,-90.0,-103.0
127.0,127.0,126.0,127.0,126.0,127.0,127.0,129.0,-1.0,112.0,-59.0,127.0,127.0,127.0,-122.0,-90.0,-103.0
127.0,127.0,127.0,127.0,126.0,126.0,127.0,129.0,-1.0,112.0,-59.0,127.0,127.0,127.0,-122.0,-90.0,-103.0
127.0,127.0,126.0,127.0,126.0,126.0,127.0,129.0,-1.0,112.0,-59.0,127.0,127.0,127.0,-122.0,-90.0,-103.0
127.0,127.0,127.0,127.0,126.0,127.0,126.0,129.0,-1.0,112.0,-59.0,127.0,127.0,127.0,-122.0,-90.0,-103.0
127.0,127.0,127.0,127.0,126.0,126.0,126.0,129.0,-1.0,112.0,-59.0,127.0,127.0,127.0,-122.0,-90.0,-103.0
126.0,127.0,127.0,127.0,126.0,126.0,126.0,129.0,-1.0,112.0,-59.0,127.0,127.0,127.0,-122.0,-90.0,-103.0
126.0,127.0,127.0,127.0,126.0,126.0,126.0,129.0,-1.0,112.0,-59.0,127.0,127.0,127.0,-122.0,-90.0,-103.0
126.0,126.0,128.0,127.0,127.0,127.0,126.0,129.0,-1.0,112.0,-59.0,127.0,127.0,127.0,-122.0,-90.0,-103.0
126.0,127.0,128.0,127.0,127.0,127.0,126.0,130.0,-1.0,112.0,-59.0,127.0,127.0,127.0,-122.0,-90.0,-103.0
127.0,127.0,126.0,127.0,127.0,127.0,128.0,129.0,-1.0,112.0,-59.0,127.0,127.0,127.0,-122.0,-90.0,-103.0
127.0,127.0,127.0,127.0,127.0,127.0,128.0,129.0,-1.0,112.0,-59.0,127.0,127.0,127.0,-122.0,-90.0,-103.0
127.0,127.0,127.0,127.0,127.0,127.0,127.0,129.0,-1.0,112.0,-59.0,127.0,127.0,127.0,-122.0,-90.0,-103.0
127.0,127.0,127.0,127.0,127.0,127.0,127.0,129.0,-1.0,112.0,-59.0,127.0,127.0,127.0,-122.0,-90.0,-103.0
127.0,127.0,127.0,127.0,127.0,127.0,127.0,129.0,-1.0,112.0,-59.0,127.0,127.0,127.0,-122.0,-90.0,-103.0
126.0,127.0,127.0,127.0,127.0,127.0,127.0,129.0,-1.0,112.0,-59.0,127.0,127.0,127.0,-122.0,-90.0,-103.0
126.0,127.0,128.0,127.0,127.0,127.0,127.0,129.0,-1.0,112.0,-59.0,127.0,127.0,127.0,-122.0,-90.0,-103.0
126.0,126.0,128.0,127.0,127.0,127.0,126.0,129.0,-1.0,112.0,-59.0,127.0,127.0,127.0,-122.0,-90.0,-103.0
126.0,127.0,128.0,127.0,127.0,127.0,126.0,130.0,-1.0,112.0,-59.0,127.0,127.0,127.0,-122.0,-90.0,-103.0
127.0,127.0,126.0,127.0,127.0,127.0,128.0,129.0,-1.0,112.0,-59.0,127.0,127.0,127.0,-122.0,-90.0,-103.0
127.0,127.0,126.0,127.0,127.0,127.0,128.0,129.0,-1.0,112.0,-59.0,127.0,127.0,127.0,-122.0,-90.0,-103.0
127.0,127.0,126.0,127.0,127.0,127.0,127.0,129.0,-1.0,112.0,-59.0,127.0,127.0,127.0,-122.0,-90.0,-103.0
127.0,127.0,126.0,127.0,127.0,127.0,127.0,129.0,-1.0,112.0,-59.0,127.0,127.0,127.0,-122.0,-90.0,-103.0
127.0,127.0,127.0,127.0,127.0,127.0,127.0,130.0,-1.0,112.0,-59.0,127.0,127.0,127.0,-122.0,-90.0,-103.0
127.0,127.0,127.0,127.0,127.0,127.0,127.0,130.0,-1.0,112.0,-59.0,127.0,127.0,127.0,-122.0,-90.0,-103.0
127.0,127.0,127.0,127.0,127.0,127.0,127.0,129.0,-1.0,112.0,-59.0,127.0,127.0,127.0,-122.0,-90.0,-103.0
126.0,127.0,127.0,127.0,127.0,127.0,126.0,130.0,-1.0,112.0,-59.0,127.0,127.0,127.0,-122.0,-90.0,-103.0
126.0,127.0,128.0,127.0,127.0,127.0,126.0,130.0,-1.0,112.0,-59.0,127.0,127.0,127.0,-122.0,-90.0,-103.0
127.0,128.0,126.0,127.0,126.0,127.0,127.0,129.0,-1.0,112.0,-59.0,127.0,127.0,127.0,-122.0,-90.0,-103.0
127.0,127.0,126.0,127.0,126.0,127.0,127.0,129.0,-1.0,112.0,-59.0,127.0,127.0,127.0,-122.0,-90.0,-103.0
127.0,127.0,126.0,127.0,126.0,126.0,127.0,130.0,-1.0,112.0,-59.0,127.0,127.0,127.0,-122.0,-90.0,-103.0
127.0,128.0,126.0,127.0,126.0,127.0,127.0,130.0,-1.0,112.0,-59.0,127.0,127.0,127.0,-122.0,-90.0,-103.0
127.0,127.0,127.0,127.0,126.0,127.0,126.0,130.0,-1.0,112.0,-59.0,127.0,127.0,127.0,-122.0,-90.0,-103.0
127.0,127.0,127.0,127.0,126.0,127.0,126.0,130.0,-1.0,112.0,-59.0,127.0,127.0,127.0,-122.0,-90.0,-103.0
127.0,127.0,127.0,127.0,126.0,127.0,126.0,130.0,-1.0,112.0,-59.0,127.0,127.0,127.0,-122.0,-90.0,-103.0
126.0,127.0,127.0,127.0,126.0,127.0,126.0,130.0,-1.0,112.0,-59.0,127.0,127.0,127.0,-122.0,-90.0,-103.0
126.0,127.0,128.0,127.0,127.0,127.0,126.0,130.0,-1.0,112.0,-59.0,127.0,127.0,127.0,-122.0,-90.0,-103.0
126.0,127.0,128.0,127.0,127.0,127.0,126.0,130.0,-1.0,112.0,-59.0,127.0,127.0,127.0,-122.0,-90.0,-103.0
127.0,127.0,126.0,127.0,126.0,127.0,127.0,129.0,-1.0,112.0,-60.0,127.0,127.0,127.0,-122.0,-90.0,-103.0
127.0,127.0,126.0,127.0,126.0,127.0,127.0,129.0,-1.0,112.0,-60.0,127.0,127.0,127.0,-122.0,-90.0,-103.0
127.0,127.0,126.0,127.0,126.0,127.0,127.0,129.0,-1.0,112.0,-60.0,127.0,127.0,127.0,-122.0,-90.0,-103.0
127.0,127.0,126.0,127.0,126.0,127.0,126.0,129.0,-1.0,112.0,-60.0,127.0,127.0,127.0,-122.0,-90.0,-103.0
127.0,127.0,127.0,127.0,126.0,127.0,126.0,129.0,-1.0,112.0,-60.0,127.0,127.0,127.0,-122.0,-90.0,-103.0
127.0,127.0,126.0,127.0,126.0,127.0,126.0,129.0,-1.0,112.0,-60.0,127.0,127.0,127.0,-122.0,-90.0,-103.0
127.0,127.0,127.0,127.0,126.0,127.0,126.0,129.0,-1.0,112.0,-60.0,127.0,127.0,127.0,-122.0,-90.0,-103.0
126.0,127.0,127.0,127.0,127.0,127.0,125.0,129.0,-1.0,112.0,-60.0,127.0,127.0,127.0,-122.0,-90.0,-103.0
126.0,127.0,127.0,127.0,127.0,127.0,125.0,129.0,-1.0,112.0,-60.0,127.0,127.0,127.0,-122.0,-90.0,-103.0
127.0,128.0,126.0,127.0,126.0,127.0,127.0,129.0,-1.0,112.0,-60.0,127.0,127.0,127.0,-122.0,-90.0,-103.0
127.0,127.0,126.0,127.0,126.0,127.0,127.0,127.0,-1.0,112.0,-60.0,127.0,127.0,127.0,-122.0,-90.0,-103.0
127.0,127.0,126.0,127.0,126.0,127.0,127.0,128.0,-1.0,112.0,-60.0,127.0,127.0,127.0,-122.0,-90.0,-103.0
127.0,127.0,126.0,127.0,126.0,127.0,127.0,128.0,-1.0,112.0,-60.0,127.0,127.0,127.0,-122.0,-90.0,-103.0
